participant,condition,date,expName,psychopyVersion,OS,frameRate,block,phase,trial,learn_mouse.x,learn_mouse.y,learn_mouse.leftButton,learn_mouse.midButton,learn_mouse.rightButton,learn_mouse.time,learn_mouse.clicked_name,cat,token,row,col,t_select,cat_mouse_l.x,cat_mouse_l.y,cat_mouse_l.leftButton,cat_mouse_l.midButton,cat_mouse_l.rightButton,cat_mouse_l.time,cat_mouse_l.clicked_name,resp,t_resp,corr,train_trials.thisRepN,train_trials.thisTrialN,train_trials.thisN,train_trials.thisIndex,train_trials.ran,cat_mouse_t.x,cat_mouse_t.y,cat_mouse_t.leftButton,cat_mouse_t.midButton,cat_mouse_t.rightButton,cat_mouse_t.time,cat_mouse_t.clicked_name,test_trials.thisRepN,test_trials.thisTrialN,test_trials.thisN,test_trials.thisIndex,test_trials.ran,Bonus
55b2d3f2fdf99b525bc839aa,SCN,2024-06-25_12h23.32.736,LearnStrategy,2023.2.3,Win32,238.0952381,,,,,,,,,,,,,,,,,,,,,,,,,,,,,,,,,,,,,,,,,,,
55b2d3f2fdf99b525bc839aa,SCN,2024-06-25_12h23.32.736,LearnStrategy,2023.2.3,Win32,238.0952381,1,1,1,-0.395138889,0.402777778,1,0,0,3.4766,Obsidian_07,5,07,6,2,3.477,-0.1,-0.241666667,1,0,0,2.3254,Basalt_rect,2,2.325,0,0,0,0,0,1,,,,,,,,,,,,,
55b2d3f2fdf99b525bc839aa,SCN,2024-06-25_12h23.32.736,LearnStrategy,2023.2.3,Win32,238.0952381,1,1,2,0.084722222,0.391666667,1,0,0,1.7486,Pegmatite_16,6,16,6,5,1.749,0.165277778,-0.258333333,1,0,0,1.168,Diorite_rect,3,1.168,0,1,0,1,0,1,,,,,,,,,,,,,
55b2d3f2fdf99b525bc839aa,SCN,2024-06-25_12h23.32.736,LearnStrategy,2023.2.3,Win32,238.0952381,1,1,3,-0.076388889,-0.4,1,0,0,2.4608,Gabbro_13,4,13,1,4,2.461,0.345833333,-0.395138889,1,0,0,3.3904,Pumice_rect,8,3.39,0,2,0,2,0,1,,,,,,,,,,,,,
55b2d3f2fdf99b525bc839aa,SCN,2024-06-25_12h23.32.736,LearnStrategy,2023.2.3,Win32,238.0952381,1,1,4,0.513888889,0.097222222,1,0,0,3.2583,Diorite_02,3,02,4,8,3.258,0.345138889,-0.236805556,1,0,0,1.5492,Gabbro_rect,4,1.549,0,3,0,3,0,1,,,,,,,,,,,,,
55b2d3f2fdf99b525bc839aa,SCN,2024-06-25_12h23.32.736,LearnStrategy,2023.2.3,Win32,238.0952381,1,1,5,-0.04375,0.090277778,1,0,0,0.8076,Andesite_16,1,16,4,4,0.808,0.117361111,-0.244444444,1,0,0,0.9464,Diorite_rect,3,0.946,0,4,0,4,0,1,,,,,,,,,,,,,
55b2d3f2fdf99b525bc839aa,SCN,2024-06-25_12h23.32.736,LearnStrategy,2023.2.3,Win32,238.0952381,1,1,6,-0.357638889,-0.105555556,1,0,0,1.0076,Peridotite_07,7,07,3,2,1.008,-0.361111111,-0.245138889,1,0,0,1.8123,Andesite_rect,1,1.812,0,5,0,5,0,1,,,,,,,,,,,,,
55b2d3f2fdf99b525bc839aa,SCN,2024-06-25_12h23.32.736,LearnStrategy,2023.2.3,Win32,238.0952381,1,1,7,0.2625,0.245138889,1,0,0,4.4287,Basalt_02,2,02,5,6,4.429,0.127083333,-0.240277778,1,0,0,4.1739,Diorite_rect,3,4.174,0,6,0,6,0,1,,,,,,,,,,,,,
55b2d3f2fdf99b525bc839aa,SCN,2024-06-25_12h23.32.736,LearnStrategy,2023.2.3,Win32,238.0952381,1,1,8,-0.213194444,-0.256944444,1,0,0,2.0077,Pumice_14,8,14,2,3,2.008,-0.102083333,-0.39375,1,0,0,1.5256,Pegmatite_rect,6,1.526,0,7,0,7,0,1,,,,,,,,,,,,,
55b2d3f2fdf99b525bc839aa,SCN,2024-06-25_12h23.32.736,LearnStrategy,2023.2.3,Win32,238.0952381,1,1,9,-0.053472222,-0.072222222,1,0,0,63.6449,Andesite_11,1,11,3,4,63.645,-0.109722222,-0.386111111,1,0,0,31.5608,Pegmatite_rect,6,31.561,0,8,0,8,0,1,,,,,,,,,,,,,
55b2d3f2fdf99b525bc839aa,SCN,2024-06-25_12h23.32.736,LearnStrategy,2023.2.3,Win32,238.0952381,1,1,10,0.215277778,-0.068055556,1,0,0,0.8367,Gabbro_11,4,11,3,6,0.837,0.155555556,-0.384722222,1,0,0,26.5545,Peridotite_rect,7,26.554,0,9,0,9,0,1,,,,,,,,,,,,,
55b2d3f2fdf99b525bc839aa,SCN,2024-06-25_12h23.32.736,LearnStrategy,2023.2.3,Win32,238.0952381,1,1,11,-0.238194444,0.080555556,1,0,0,1.6908,Pegmatite_15,6,15,4,3,1.691,-0.359722222,-0.259027778,1,0,0,1.4648,Andesite_rect,1,1.465,0,10,0,10,0,1,,,,,,,,,,,,,
55b2d3f2fdf99b525bc839aa,SCN,2024-06-25_12h23.32.736,LearnStrategy,2023.2.3,Win32,238.0952381,1,1,12,-0.058333333,-0.423611111,1,0,0,23.1331,Gabbro_13,4,13,1,4,23.133,0.329166667,-0.270833333,1,0,0,27.6712,Gabbro_rect,4,27.671,1,11,0,11,0,1,,,,,,,,,,,,,
55b2d3f2fdf99b525bc839aa,SCN,2024-06-25_12h23.32.736,LearnStrategy,2023.2.3,Win32,238.0952381,1,1,13,-0.213194444,-0.085416667,1,0,0,5.3162,Andesite_03,1,03,3,3,5.316,-0.447222222,-0.239583333,1,0,0,16.7205,Andesite_rect,1,16.721,1,12,0,12,0,1,,,,,,,,,,,,,
55b2d3f2fdf99b525bc839aa,SCN,2024-06-25_12h23.32.736,LearnStrategy,2023.2.3,Win32,238.0952381,1,1,14,0.570138889,-0.088194444,1,0,0,1.7518,Peridotite_04,7,04,3,8,1.752,0.155555556,-0.395833333,1,0,0,29.0458,Peridotite_rect,7,29.046,1,13,0,13,0,1,,,,,,,,,,,,,
55b2d3f2fdf99b525bc839aa,SCN,2024-06-25_12h23.32.736,LearnStrategy,2023.2.3,Win32,238.0952381,1,1,15,0.565972222,-0.400694444,1,0,0,1.8377,Pegmatite_12,6,12,1,8,1.838,-0.368055556,-0.26875,1,0,0,18.2433,Andesite_rect,1,18.243,0,14,0,14,0,1,,,,,,,,,,,,,
55b2d3f2fdf99b525bc839aa,SCN,2024-06-25_12h23.32.736,LearnStrategy,2023.2.3,Win32,238.0952381,1,1,16,-0.383333333,-0.253472222,1,0,0,1.4918,Diorite_13,3,13,2,2,1.492,0.202777778,-0.388194444,1,0,0,14.1464,Peridotite_rect,7,14.146,0,15,0,15,0,1,,,,,,,,,,,,,
55b2d3f2fdf99b525bc839aa,SCN,2024-06-25_12h23.32.736,LearnStrategy,2023.2.3,Win32,238.0952381,1,2,1,,,,,,,,8,04,,,,,,,,,,,2,17.591,0,,,,,,-0.169444444,-0.263888889,1,0,0,17.5911,Basalt_rect,0,0,0,0,1,
55b2d3f2fdf99b525bc839aa,SCN,2024-06-25_12h23.32.736,LearnStrategy,2023.2.3,Win32,238.0952381,1,2,2,,,,,,,,2,12,,,,,,,,,,,2,11.789,1,,,,,,-0.145833333,-0.251388889,1,0,0,11.7893,Basalt_rect,1,0,1,0,1,
55b2d3f2fdf99b525bc839aa,SCN,2024-06-25_12h23.32.736,LearnStrategy,2023.2.3,Win32,238.0952381,1,2,3,,,,,,,,4,16,,,,,,,,,,,7,13.042,0,,,,,,0.161111111,-0.389583333,1,0,0,13.0418,Peridotite_rect,2,0,2,0,1,
55b2d3f2fdf99b525bc839aa,SCN,2024-06-25_12h23.32.736,LearnStrategy,2023.2.3,Win32,238.0952381,1,2,4,,,,,,,,6,03,,,,,,,,,,,5,15.947,0,,,,,,-0.343055556,-0.402083333,1,0,0,15.9472,Obsidian_rect,3,0,3,0,1,
55b2d3f2fdf99b525bc839aa,SCN,2024-06-25_12h23.32.736,LearnStrategy,2023.2.3,Win32,238.0952381,1,2,5,,,,,,,,7,12,,,,,,,,,,,7,10.441,1,,,,,,0.077777778,-0.411805556,1,0,0,10.4414,Peridotite_rect,4,0,4,0,1,
55b2d3f2fdf99b525bc839aa,SCN,2024-06-25_12h23.32.736,LearnStrategy,2023.2.3,Win32,238.0952381,1,2,6,,,,,,,,6,13,,,,,,,,,,,6,49.442,1,,,,,,-0.094444444,-0.396527778,1,0,0,49.4421,Pegmatite_rect,5,0,5,0,1,
55b2d3f2fdf99b525bc839aa,SCN,2024-06-25_12h23.32.736,LearnStrategy,2023.2.3,Win32,238.0952381,1,2,7,,,,,,,,1,01,,,,,,,,,,,4,13.267,0,,,,,,0.368055556,-0.25625,1,0,0,13.2673,Gabbro_rect,6,0,6,0,1,
55b2d3f2fdf99b525bc839aa,SCN,2024-06-25_12h23.32.736,LearnStrategy,2023.2.3,Win32,238.0952381,1,2,8,,,,,,,,7,13,,,,,,,,,,,7,10.553,1,,,,,,0.159027778,-0.411111111,1,0,0,10.5525,Peridotite_rect,7,0,7,0,1,
55b2d3f2fdf99b525bc839aa,SCN,2024-06-25_12h23.32.736,LearnStrategy,2023.2.3,Win32,238.0952381,1,2,9,,,,,,,,3,14,,,,,,,,,,,3,12.054,1,,,,,,0.116666667,-0.250694444,1,0,0,12.0537,Diorite_rect,8,0,8,0,1,
55b2d3f2fdf99b525bc839aa,SCN,2024-06-25_12h23.32.736,LearnStrategy,2023.2.3,Win32,238.0952381,1,2,10,,,,,,,,4,10,,,,,,,,,,,6,12.064,0,,,,,,-0.181944444,-0.389583333,1,0,0,12.0644,Pegmatite_rect,9,0,9,0,1,
55b2d3f2fdf99b525bc839aa,SCN,2024-06-25_12h23.32.736,LearnStrategy,2023.2.3,Win32,238.0952381,1,2,11,,,,,,,,2,14,,,,,,,,,,,2,10.89,1,,,,,,-0.172916667,-0.259027778,1,0,0,10.8897,Basalt_rect,10,0,10,0,1,
55b2d3f2fdf99b525bc839aa,SCN,2024-06-25_12h23.32.736,LearnStrategy,2023.2.3,Win32,238.0952381,1,2,12,,,,,,,,5,05,,,,,,,,,,,5,10.575,1,,,,,,-0.398611111,-0.40625,1,0,0,10.5746,Obsidian_rect,11,0,11,0,1,
55b2d3f2fdf99b525bc839aa,SCN,2024-06-25_12h23.32.736,LearnStrategy,2023.2.3,Win32,238.0952381,1,2,13,,,,,,,,1,05,,,,,,,,,,,8,13.599,0,,,,,,0.376388889,-0.397222222,1,0,0,13.5993,Pumice_rect,12,0,12,0,1,
55b2d3f2fdf99b525bc839aa,SCN,2024-06-25_12h23.32.736,LearnStrategy,2023.2.3,Win32,238.0952381,1,2,14,,,,,,,,3,06,,,,,,,,,,,2,66.439,0,,,,,,-0.100694444,-0.2375,1,0,0,66.439,Basalt_rect,13,0,13,0,1,
55b2d3f2fdf99b525bc839aa,SCN,2024-06-25_12h23.32.736,LearnStrategy,2023.2.3,Win32,238.0952381,1,2,15,,,,,,,,8,15,,,,,,,,,,,2,12.046,0,,,,,,-0.179861111,-0.259027778,1,0,0,12.0458,Basalt_rect,14,0,14,0,1,
55b2d3f2fdf99b525bc839aa,SCN,2024-06-25_12h23.32.736,LearnStrategy,2023.2.3,Win32,238.0952381,1,2,16,,,,,,,,5,02,,,,,,,,,,,5,10.53,1,,,,,,-0.426388889,-0.378472222,1,0,0,10.5298,Obsidian_rect,15,0,15,0,1,
55b2d3f2fdf99b525bc839aa,SCN,2024-06-25_12h23.32.736,LearnStrategy,2023.2.3,Win32,238.0952381,2,1,1,0.099305556,0.079861111,1,0,0,6.9956,Basalt_04,2,04,4,5,6.996,-0.201388889,-0.248611111,1,0,0,4.9324,Basalt_rect,2,4.932,1,0,0,0,0,1,,,,,,,,,,,,,
55b2d3f2fdf99b525bc839aa,SCN,2024-06-25_12h23.32.736,LearnStrategy,2023.2.3,Win32,238.0952381,2,1,2,0.236805556,-0.076388889,1,0,0,1.0188,Gabbro_11,4,11,3,6,1.019,0.164583333,-0.257638889,1,0,0,2.0778,Diorite_rect,3,2.078,0,1,0,1,0,1,,,,,,,,,,,,,
55b2d3f2fdf99b525bc839aa,SCN,2024-06-25_12h23.32.736,LearnStrategy,2023.2.3,Win32,238.0952381,2,1,3,-0.524305556,-0.272916667,1,0,0,1.1953,Pegmatite_10,6,10,2,1,1.195,-0.361805556,-0.388194444,1,0,0,0.86,Obsidian_rect,5,0.86,0,2,0,2,0,1,,,,,,,,,,,,,
55b2d3f2fdf99b525bc839aa,SCN,2024-06-25_12h23.32.736,LearnStrategy,2023.2.3,Win32,238.0952381,2,1,4,-0.077083333,0.390972222,1,0,0,0.9911,Obsidian_09,5,09,6,4,0.991,-0.368055556,-0.39375,1,0,0,0.6669,Obsidian_rect,5,0.667,1,3,0,3,0,1,,,,,,,,,,,,,
55b2d3f2fdf99b525bc839aa,SCN,2024-06-25_12h23.32.736,LearnStrategy,2023.2.3,Win32,238.0952381,2,1,5,-0.23125,0.11875,1,0,0,1.9194,Pegmatite_15,6,15,4,3,1.919,-0.395138889,-0.407638889,1,0,0,0.8134,Obsidian_rect,5,0.813,0,4,0,4,0,1,,,,,,,,,,,,,
55b2d3f2fdf99b525bc839aa,SCN,2024-06-25_12h23.32.736,LearnStrategy,2023.2.3,Win32,238.0952381,2,1,6,0.235416667,0.234722222,1,0,0,0.7701,Basalt_02,2,02,5,6,0.77,0.228472222,-0.398611111,1,0,0,1.2521,Peridotite_rect,7,1.252,0,5,0,5,0,1,,,,,,,,,,,,,
55b2d3f2fdf99b525bc839aa,SCN,2024-06-25_12h23.32.736,LearnStrategy,2023.2.3,Win32,238.0952381,2,1,7,0.361805556,0.116666667,1,0,0,1.7116,Obsidian_10,5,10,4,7,1.712,-0.336805556,-0.409027778,1,0,0,0.9346,Obsidian_rect,5,0.935,1,6,0,6,0,1,,,,,,,,,,,,,
55b2d3f2fdf99b525bc839aa,SCN,2024-06-25_12h23.32.736,LearnStrategy,2023.2.3,Win32,238.0952381,2,1,8,0.409722222,-0.106944444,1,0,0,63.7834,Pumice_09,8,09,3,7,63.783,-0.120138889,-0.245138889,1,0,0,0.9854,Basalt_rect,2,0.985,0,7,0,7,0,1,,,,,,,,,,,,,
55b2d3f2fdf99b525bc839aa,SCN,2024-06-25_12h23.32.736,LearnStrategy,2023.2.3,Win32,238.0952381,2,1,9,0.255555556,0.078472222,1,0,0,1.1727,Pegmatite_06,6,06,4,6,1.173,-0.368055556,-0.395833333,1,0,0,2.5819,Obsidian_rect,5,2.582,0,8,0,8,0,1,,,,,,,,,,,,,
55b2d3f2fdf99b525bc839aa,SCN,2024-06-25_12h23.32.736,LearnStrategy,2023.2.3,Win32,238.0952381,2,1,10,0.266666667,0.414583333,1,0,0,2.0811,Obsidian_14,5,14,6,6,2.081,-0.103472222,-0.378472222,1,0,0,1.9163,Pegmatite_rect,6,1.916,0,9,0,9,0,1,,,,,,,,,,,,,
55b2d3f2fdf99b525bc839aa,SCN,2024-06-25_12h23.32.736,LearnStrategy,2023.2.3,Win32,238.0952381,2,1,11,-0.234722222,0.079861111,1,0,0,1.1534,Pegmatite_15,6,15,4,3,1.153,-0.358333333,-0.383333333,1,0,0,0.7403,Obsidian_rect,5,0.74,0,10,0,10,0,1,,,,,,,,,,,,,
55b2d3f2fdf99b525bc839aa,SCN,2024-06-25_12h23.32.736,LearnStrategy,2023.2.3,Win32,238.0952381,2,1,12,0.545138889,0.390277778,1,0,0,1.0286,Peridotite_02,7,02,6,8,1.029,0.211111111,-0.234722222,1,0,0,2.4197,Diorite_rect,3,2.42,0,11,0,11,0,1,,,,,,,,,,,,,
55b2d3f2fdf99b525bc839aa,SCN,2024-06-25_12h23.32.736,LearnStrategy,2023.2.3,Win32,238.0952381,2,1,13,-0.230555556,0.23125,1,0,0,1.419,Andesite_06,1,06,5,3,1.419,0.371527778,-0.409722222,1,0,0,1.1342,Pumice_rect,8,1.134,0,12,0,12,0,1,,,,,,,,,,,,,
55b2d3f2fdf99b525bc839aa,SCN,2024-06-25_12h23.32.736,LearnStrategy,2023.2.3,Win32,238.0952381,2,1,14,0.534722222,-0.097222222,1,0,0,1.3521,Peridotite_04,7,04,3,8,1.352,-0.352777778,-0.24375,1,0,0,4.3113,Andesite_rect,1,4.311,0,13,0,13,0,1,,,,,,,,,,,,,
55b2d3f2fdf99b525bc839aa,SCN,2024-06-25_12h23.32.736,LearnStrategy,2023.2.3,Win32,238.0952381,2,1,15,0.545833333,-0.258333333,1,0,0,1.4859,Diorite_09,3,09,2,8,1.486,0.3875,-0.270138889,1,0,0,0.7581,Gabbro_rect,4,0.758,0,14,0,14,0,1,,,,,,,,,,,,,
55b2d3f2fdf99b525bc839aa,SCN,2024-06-25_12h23.32.736,LearnStrategy,2023.2.3,Win32,238.0952381,2,1,16,0.070138889,-0.115277778,1,0,0,24.6783,Basalt_16,2,16,3,5,24.678,-0.138194444,-0.389583333,1,0,0,1.4496,Pegmatite_rect,6,1.45,0,15,0,15,0,1,,,,,,,,,,,,,
55b2d3f2fdf99b525bc839aa,SCN,2024-06-25_12h23.32.736,LearnStrategy,2023.2.3,Win32,238.0952381,2,2,1,,,,,,,,2,09,,,,,,,,,,,2,15.498,1,,,,,,-0.181944444,-0.257638889,1,0,0,15.4977,Basalt_rect,0,0,0,0,1,
55b2d3f2fdf99b525bc839aa,SCN,2024-06-25_12h23.32.736,LearnStrategy,2023.2.3,Win32,238.0952381,2,2,2,,,,,,,,7,16,,,,,,,,,,,6,8.496,0,,,,,,-0.135416667,-0.419444444,1,0,0,8.4957,Pegmatite_rect,1,0,1,0,1,
55b2d3f2fdf99b525bc839aa,SCN,2024-06-25_12h23.32.736,LearnStrategy,2023.2.3,Win32,238.0952381,2,2,3,,,,,,,,6,05,,,,,,,,,,,5,8.314,0,,,,,,-0.386111111,-0.413194444,1,0,0,8.314,Obsidian_rect,2,0,2,0,1,
55b2d3f2fdf99b525bc839aa,SCN,2024-06-25_12h23.32.736,LearnStrategy,2023.2.3,Win32,238.0952381,2,2,4,,,,,,,,1,02,,,,,,,,,,,1,23.944,1,,,,,,-0.431944444,-0.261111111,1,0,0,23.9445,Andesite_rect,3,0,3,0,1,
55b2d3f2fdf99b525bc839aa,SCN,2024-06-25_12h23.32.736,LearnStrategy,2023.2.3,Win32,238.0952381,2,2,5,,,,,,,,2,11,,,,,,,,,,,1,11.853,0,,,,,,-0.397916667,-0.229166667,1,0,0,11.8532,Andesite_rect,4,0,4,0,1,
55b2d3f2fdf99b525bc839aa,SCN,2024-06-25_12h23.32.736,LearnStrategy,2023.2.3,Win32,238.0952381,2,2,6,,,,,,,,1,04,,,,,,,,,,,7,11.073,0,,,,,,0.145138889,-0.411805556,1,0,0,11.0726,Peridotite_rect,5,0,5,0,1,
55b2d3f2fdf99b525bc839aa,SCN,2024-06-25_12h23.32.736,LearnStrategy,2023.2.3,Win32,238.0952381,2,2,7,,,,,,,,5,12,,,,,,,,,,,5,2.233,1,,,,,,-0.356944444,-0.413888889,1,0,0,2.2332,Obsidian_rect,6,0,6,0,1,
55b2d3f2fdf99b525bc839aa,SCN,2024-06-25_12h23.32.736,LearnStrategy,2023.2.3,Win32,238.0952381,2,2,8,,,,,,,,4,15,,,,,,,,,,,3,207.046,0,,,,,,0.147222222,-0.242361111,1,0,0,207.0461,Diorite_rect,7,0,7,0,1,
55b2d3f2fdf99b525bc839aa,SCN,2024-06-25_12h23.32.736,LearnStrategy,2023.2.3,Win32,238.0952381,2,2,9,,,,,,,,3,08,,,,,,,,,,,2,409.17,0,,,,,,-0.056944444,-0.242361111,1,0,0,409.1696,Basalt_rect,8,0,8,0,1,
55b2d3f2fdf99b525bc839aa,SCN,2024-06-25_12h23.32.736,LearnStrategy,2023.2.3,Win32,238.0952381,2,2,10,,,,,,,,6,11,,,,,,,,,,,1,6.249,0,,,,,,-0.369444444,-0.268055556,1,0,0,6.2492,Andesite_rect,9,0,9,0,1,
55b2d3f2fdf99b525bc839aa,SCN,2024-06-25_12h23.32.736,LearnStrategy,2023.2.3,Win32,238.0952381,2,2,11,,,,,,,,7,15,,,,,,,,,,,4,7.365,0,,,,,,0.388888889,-0.256944444,1,0,0,7.3651,Gabbro_rect,10,0,10,0,1,
55b2d3f2fdf99b525bc839aa,SCN,2024-06-25_12h23.32.736,LearnStrategy,2023.2.3,Win32,238.0952381,2,2,12,,,,,,,,3,07,,,,,,,,,,,5,1.485,0,,,,,,-0.3375,-0.410416667,1,0,0,1.4846,Obsidian_rect,11,0,11,0,1,
55b2d3f2fdf99b525bc839aa,SCN,2024-06-25_12h23.32.736,LearnStrategy,2023.2.3,Win32,238.0952381,2,2,13,,,,,,,,5,08,,,,,,,,,,,7,1.912,0,,,,,,0.089583333,-0.409027778,1,0,0,1.9118,Peridotite_rect,12,0,12,0,1,
55b2d3f2fdf99b525bc839aa,SCN,2024-06-25_12h23.32.736,LearnStrategy,2023.2.3,Win32,238.0952381,2,2,14,,,,,,,,4,09,,,,,,,,,,,8,1.766,0,,,,,,0.347222222,-0.383333333,1,0,0,1.7661,Pumice_rect,13,0,13,0,1,
55b2d3f2fdf99b525bc839aa,SCN,2024-06-25_12h23.32.736,LearnStrategy,2023.2.3,Win32,238.0952381,2,2,15,,,,,,,,8,16,,,,,,,,,,,4,1.843,0,,,,,,0.349305556,-0.257638889,1,0,0,1.8429,Gabbro_rect,14,0,14,0,1,
55b2d3f2fdf99b525bc839aa,SCN,2024-06-25_12h23.32.736,LearnStrategy,2023.2.3,Win32,238.0952381,2,2,16,,,,,,,,8,08,,,,,,,,,,,1,1.228,0,,,,,,-0.347222222,-0.259722222,1,0,0,1.2278,Andesite_rect,15,0,15,0,1,
55b2d3f2fdf99b525bc839aa,SCN,2024-06-25_12h23.32.736,LearnStrategy,2023.2.3,Win32,238.0952381,3,1,1,0.388194444,0.079166667,1,0,0,1.5078,Obsidian_10,5,10,4,7,1.508,-0.332638889,-0.388194444,1,0,0,1.0129,Obsidian_rect,5,1.013,1,0,0,0,0,1,,,,,,,,,,,,,
55b2d3f2fdf99b525bc839aa,SCN,2024-06-25_12h23.32.736,LearnStrategy,2023.2.3,Win32,238.0952381,3,1,2,0.564583333,-0.097222222,1,0,0,0.6,Peridotite_04,7,04,3,8,0.6,0.375694444,-0.245138889,1,0,0,0.6978,Gabbro_rect,4,0.698,0,1,0,1,0,1,,,,,,,,,,,,,
55b2d3f2fdf99b525bc839aa,SCN,2024-06-25_12h23.32.736,LearnStrategy,2023.2.3,Win32,238.0952381,3,1,3,-0.219444444,-0.064583333,1,0,0,0.5034,Andesite_03,1,03,3,3,0.503,0.084027778,-0.413888889,1,0,0,1.1018,Peridotite_rect,7,1.102,0,2,0,2,0,1,,,,,,,,,,,,,
55b2d3f2fdf99b525bc839aa,SCN,2024-06-25_12h23.32.736,LearnStrategy,2023.2.3,Win32,238.0952381,3,1,4,-0.398611111,0.093055556,1,0,0,0.8577,Andesite_07,1,07,4,2,0.858,-0.13125,-0.420138889,1,0,0,1.6293,Pegmatite_rect,6,1.629,0,3,0,3,0,1,,,,,,,,,,,,,
55b2d3f2fdf99b525bc839aa,SCN,2024-06-25_12h23.32.736,LearnStrategy,2023.2.3,Win32,238.0952381,3,1,5,-0.523611111,0.086805556,1,0,0,0.7192,Andesite_09,1,09,4,1,0.719,-0.172222222,-0.411111111,1,0,0,1.7485,Pegmatite_rect,6,1.749,0,4,0,4,0,1,,,,,,,,,,,,,
55b2d3f2fdf99b525bc839aa,SCN,2024-06-25_12h23.32.736,LearnStrategy,2023.2.3,Win32,238.0952381,3,1,6,0.227083333,0.0875,1,0,0,20.8371,Pegmatite_06,6,06,4,6,20.837,0.168055556,-0.252083333,1,0,0,0.9043,Diorite_rect,3,0.904,0,5,0,5,0,1,,,,,,,,,,,,,
55b2d3f2fdf99b525bc839aa,SCN,2024-06-25_12h23.32.736,LearnStrategy,2023.2.3,Win32,238.0952381,3,1,7,0.063194444,0.251388889,1,0,0,0.7621,Diorite_12,3,12,5,5,0.762,-0.117361111,-0.235416667,1,0,0,0.6995,Basalt_rect,2,0.7,0,6,0,6,0,1,,,,,,,,,,,,,
55b2d3f2fdf99b525bc839aa,SCN,2024-06-25_12h23.32.736,LearnStrategy,2023.2.3,Win32,238.0952381,3,1,8,-0.252083333,0.240972222,1,0,0,0.9504,Andesite_06,1,06,5,3,0.95,0.1125,-0.251388889,1,0,0,0.8206,Diorite_rect,3,0.821,0,7,0,7,0,1,,,,,,,,,,,,,
55b2d3f2fdf99b525bc839aa,SCN,2024-06-25_12h23.32.736,LearnStrategy,2023.2.3,Win32,238.0952381,3,1,9,-0.542361111,0.100694444,1,0,0,0.6993,Andesite_09,1,09,4,1,0.699,-0.396527778,-0.264583333,1,0,0,1.0889,Andesite_rect,1,1.089,1,8,0,8,0,1,,,,,,,,,,,,,
55b2d3f2fdf99b525bc839aa,SCN,2024-06-25_12h23.32.736,LearnStrategy,2023.2.3,Win32,238.0952381,3,1,10,-0.539583333,-0.423611111,1,0,0,0.8326,Basalt_08,2,08,1,1,0.833,-0.125,-0.248611111,1,0,0,1.7503,Basalt_rect,2,1.75,1,9,0,9,0,1,,,,,,,,,,,,,
55b2d3f2fdf99b525bc839aa,SCN,2024-06-25_12h23.32.736,LearnStrategy,2023.2.3,Win32,238.0952381,3,1,11,-0.230555556,-0.417361111,1,0,0,0.836,Basalt_10,2,10,1,3,0.836,-0.1375,-0.247916667,1,0,0,1.6397,Basalt_rect,2,1.64,1,10,0,10,0,1,,,,,,,,,,,,,
55b2d3f2fdf99b525bc839aa,SCN,2024-06-25_12h23.32.736,LearnStrategy,2023.2.3,Win32,238.0952381,3,1,12,0.415972222,-0.261805556,1,0,0,0.7542,Pumice_13,8,13,2,7,0.754,0.363888889,-0.386805556,1,0,0,1.1342,Pumice_rect,8,1.134,1,11,0,11,0,1,,,,,,,,,,,,,
55b2d3f2fdf99b525bc839aa,SCN,2024-06-25_12h23.32.736,LearnStrategy,2023.2.3,Win32,238.0952381,3,1,13,0.267361111,-0.404166667,1,0,0,0.5952,Gabbro_08,4,08,1,6,0.595,-0.386805556,-0.240277778,1,0,0,1.0082,Andesite_rect,1,1.008,0,12,0,12,0,1,,,,,,,,,,,,,
55b2d3f2fdf99b525bc839aa,SCN,2024-06-25_12h23.32.736,LearnStrategy,2023.2.3,Win32,238.0952381,3,1,14,0.558333333,-0.081944444,1,0,0,0.8953,Peridotite_04,7,04,3,8,0.895,0.419444444,-0.249305556,1,0,0,0.7132,Gabbro_rect,4,0.713,0,13,0,13,0,1,,,,,,,,,,,,,
55b2d3f2fdf99b525bc839aa,SCN,2024-06-25_12h23.32.736,LearnStrategy,2023.2.3,Win32,238.0952381,3,1,15,0.400694444,0.117361111,1,0,0,0.8661,Obsidian_10,5,10,4,7,0.866,-0.406944444,-0.406944444,1,0,0,1.1581,Obsidian_rect,5,1.158,1,14,0,14,0,1,,,,,,,,,,,,,
55b2d3f2fdf99b525bc839aa,SCN,2024-06-25_12h23.32.736,LearnStrategy,2023.2.3,Win32,238.0952381,3,1,16,0.543055556,0.36875,1,0,0,0.8196,Peridotite_02,7,02,6,8,0.82,-0.095833333,-0.240277778,1,0,0,0.81,Basalt_rect,2,0.81,0,15,0,15,0,1,,,,,,,,,,,,,
55b2d3f2fdf99b525bc839aa,SCN,2024-06-25_12h23.32.736,LearnStrategy,2023.2.3,Win32,238.0952381,3,2,1,,,,,,,,4,03,,,,,,,,,,,4,20.41,1,,,,,,0.377083333,-0.240972222,1,0,0,20.4099,Gabbro_rect,0,0,0,0,1,
55b2d3f2fdf99b525bc839aa,SCN,2024-06-25_12h23.32.736,LearnStrategy,2023.2.3,Win32,238.0952381,3,2,2,,,,,,,,4,01,,,,,,,,,,,6,11.408,0,,,,,,-0.122222222,-0.402777778,1,0,0,11.408,Pegmatite_rect,1,0,1,0,1,
55b2d3f2fdf99b525bc839aa,SCN,2024-06-25_12h23.32.736,LearnStrategy,2023.2.3,Win32,238.0952381,3,2,3,,,,,,,,1,10,,,,,,,,,,,7,7.989,0,,,,,,0.120138889,-0.4,1,0,0,7.9894,Peridotite_rect,2,0,2,0,1,
55b2d3f2fdf99b525bc839aa,SCN,2024-06-25_12h23.32.736,LearnStrategy,2023.2.3,Win32,238.0952381,3,2,4,,,,,,,,3,15,,,,,,,,,,,3,9.548,1,,,,,,0.175694444,-0.260416667,1,0,0,9.548,Diorite_rect,3,0,3,0,1,
55b2d3f2fdf99b525bc839aa,SCN,2024-06-25_12h23.32.736,LearnStrategy,2023.2.3,Win32,238.0952381,3,2,5,,,,,,,,7,06,,,,,,,,,,,7,8.728,1,,,,,,0.1125,-0.383333333,1,0,0,8.728,Peridotite_rect,4,0,4,0,1,
55b2d3f2fdf99b525bc839aa,SCN,2024-06-25_12h23.32.736,LearnStrategy,2023.2.3,Win32,238.0952381,3,2,6,,,,,,,,7,05,,,,,,,,,,,7,8.047,1,,,,,,0.099305556,-0.394444444,1,0,0,8.0466,Peridotite_rect,5,0,5,0,1,
55b2d3f2fdf99b525bc839aa,SCN,2024-06-25_12h23.32.736,LearnStrategy,2023.2.3,Win32,238.0952381,3,2,7,,,,,,,,8,06,,,,,,,,,,,8,7.174,1,,,,,,0.382638889,-0.415277778,1,0,0,7.1742,Pumice_rect,6,0,6,0,1,
55b2d3f2fdf99b525bc839aa,SCN,2024-06-25_12h23.32.736,LearnStrategy,2023.2.3,Win32,238.0952381,3,2,8,,,,,,,,2,05,,,,,,,,,,,6,7.869,0,,,,,,-0.149305556,-0.394444444,1,0,0,7.8689,Pegmatite_rect,7,0,7,0,1,
55b2d3f2fdf99b525bc839aa,SCN,2024-06-25_12h23.32.736,LearnStrategy,2023.2.3,Win32,238.0952381,3,2,9,,,,,,,,6,07,,,,,,,,,,,7,9.039,0,,,,,,0.202083333,-0.411111111,1,0,0,9.0389,Peridotite_rect,8,0,8,0,1,
55b2d3f2fdf99b525bc839aa,SCN,2024-06-25_12h23.32.736,LearnStrategy,2023.2.3,Win32,238.0952381,3,2,10,,,,,,,,8,05,,,,,,,,,,,2,10.09,0,,,,,,-0.150694444,-0.261111111,1,0,0,10.0903,Basalt_rect,9,0,9,0,1,
55b2d3f2fdf99b525bc839aa,SCN,2024-06-25_12h23.32.736,LearnStrategy,2023.2.3,Win32,238.0952381,3,2,11,,,,,,,,3,10,,,,,,,,,,,3,11.768,1,,,,,,0.10625,-0.259722222,1,0,0,11.7685,Diorite_rect,10,0,10,0,1,
55b2d3f2fdf99b525bc839aa,SCN,2024-06-25_12h23.32.736,LearnStrategy,2023.2.3,Win32,238.0952381,3,2,12,,,,,,,,1,14,,,,,,,,,,,2,13.737,0,,,,,,-0.127777778,-0.255555556,1,0,0,13.7374,Basalt_rect,11,0,11,0,1,
55b2d3f2fdf99b525bc839aa,SCN,2024-06-25_12h23.32.736,LearnStrategy,2023.2.3,Win32,238.0952381,3,2,13,,,,,,,,5,06,,,,,,,,,,,5,2.294,1,,,,,,-0.392361111,-0.390277778,1,0,0,2.2943,Obsidian_rect,12,0,12,0,1,
55b2d3f2fdf99b525bc839aa,SCN,2024-06-25_12h23.32.736,LearnStrategy,2023.2.3,Win32,238.0952381,3,2,14,,,,,,,,2,01,,,,,,,,,,,3,11.984,0,,,,,,0.170138889,-0.259722222,1,0,0,11.9841,Diorite_rect,13,0,13,0,1,
55b2d3f2fdf99b525bc839aa,SCN,2024-06-25_12h23.32.736,LearnStrategy,2023.2.3,Win32,238.0952381,3,2,15,,,,,,,,5,04,,,,,,,,,,,5,3.629,1,,,,,,-0.364583333,-0.395833333,1,0,0,3.6285,Obsidian_rect,14,0,14,0,1,
55b2d3f2fdf99b525bc839aa,SCN,2024-06-25_12h23.32.736,LearnStrategy,2023.2.3,Win32,238.0952381,3,2,16,,,,,,,,6,09,,,,,,,,,,,5,1.248,0,,,,,,-0.361111111,-0.397916667,1,0,0,1.248,Obsidian_rect,15,0,15,0,1,
55b2d3f2fdf99b525bc839aa,SCN,2024-06-25_12h23.32.736,LearnStrategy,2023.2.3,Win32,238.0952381,4,1,1,0.547916667,-0.238888889,1,0,0,0.8474,Diorite_09,3,09,2,8,0.847,0.369444444,-0.251388889,1,0,0,0.8363,Gabbro_rect,4,0.836,0,0,0,0,0,1,,,,,,,,,,,,,
55b2d3f2fdf99b525bc839aa,SCN,2024-06-25_12h23.32.736,LearnStrategy,2023.2.3,Win32,238.0952381,4,1,2,-0.396527778,-0.254166667,1,0,0,1.1288,Diorite_13,3,13,2,2,1.129,-0.109722222,-0.255555556,1,0,0,0.5978,Basalt_rect,2,0.598,0,1,0,1,0,1,,,,,,,,,,,,,
55b2d3f2fdf99b525bc839aa,SCN,2024-06-25_12h23.32.736,LearnStrategy,2023.2.3,Win32,238.0952381,4,1,3,0.238888889,0.081944444,1,0,0,0.9922,Pegmatite_06,6,06,4,6,0.992,0.143055556,-0.410416667,1,0,0,0.8598,Peridotite_rect,7,0.86,0,2,0,2,0,1,,,,,,,,,,,,,
55b2d3f2fdf99b525bc839aa,SCN,2024-06-25_12h23.32.736,LearnStrategy,2023.2.3,Win32,238.0952381,4,1,4,-0.092361111,0.075,1,0,0,0.5326,Andesite_16,1,16,4,4,0.533,-0.35,-0.24375,1,0,0,0.7112,Andesite_rect,1,0.711,1,3,0,3,0,1,,,,,,,,,,,,,
55b2d3f2fdf99b525bc839aa,SCN,2024-06-25_12h23.32.736,LearnStrategy,2023.2.3,Win32,238.0952381,4,1,5,-0.210416667,0.246527778,1,0,0,0.6285,Andesite_06,1,06,5,3,0.628,-0.375694444,-0.25625,1,0,0,0.7455,Andesite_rect,1,0.745,1,4,0,4,0,1,,,,,,,,,,,,,
55b2d3f2fdf99b525bc839aa,SCN,2024-06-25_12h23.32.736,LearnStrategy,2023.2.3,Win32,238.0952381,4,1,6,-0.242361111,-0.100694444,1,0,0,0.7146,Andesite_03,1,03,3,3,0.715,-0.075,-0.266666667,1,0,0,2.8758,Basalt_rect,2,2.876,0,5,0,5,0,1,,,,,,,,,,,,,
55b2d3f2fdf99b525bc839aa,SCN,2024-06-25_12h23.32.736,LearnStrategy,2023.2.3,Win32,238.0952381,4,1,7,0.064583333,-0.277083333,1,0,0,0.57,Gabbro_12,4,12,2,5,0.57,-0.13125,-0.25625,1,0,0,0.8789,Basalt_rect,2,0.879,0,6,0,6,0,1,,,,,,,,,,,,,
55b2d3f2fdf99b525bc839aa,SCN,2024-06-25_12h23.32.736,LearnStrategy,2023.2.3,Win32,238.0952381,4,1,8,0.259722222,-0.1,1,0,0,0.5619,Gabbro_11,4,11,3,6,0.562,0.403472222,-0.250694444,1,0,0,1.1847,Gabbro_rect,4,1.185,1,7,0,7,0,1,,,,,,,,,,,,,
55b2d3f2fdf99b525bc839aa,SCN,2024-06-25_12h23.32.736,LearnStrategy,2023.2.3,Win32,238.0952381,4,1,9,0.211805556,-0.411111111,1,0,0,0.6728,Gabbro_08,4,08,1,6,0.673,0.327083333,-0.236805556,1,0,0,0.9731,Gabbro_rect,4,0.973,1,8,0,8,0,1,,,,,,,,,,,,,
55b2d3f2fdf99b525bc839aa,SCN,2024-06-25_12h23.32.736,LearnStrategy,2023.2.3,Win32,238.0952381,4,1,10,0.05625,-0.371527778,1,0,0,0.5854,Pumice_10,8,10,1,5,0.585,-0.090972222,-0.384027778,1,0,0,1.4093,Pegmatite_rect,6,1.409,0,9,0,9,0,1,,,,,,,,,,,,,
55b2d3f2fdf99b525bc839aa,SCN,2024-06-25_12h23.32.736,LearnStrategy,2023.2.3,Win32,238.0952381,4,1,11,0.40625,-0.2625,1,0,0,1.0368,Pumice_13,8,13,2,7,1.037,0.40625,-0.401388889,1,0,0,0.6076,Pumice_rect,8,0.608,1,10,0,10,0,1,,,,,,,,,,,,,
55b2d3f2fdf99b525bc839aa,SCN,2024-06-25_12h23.32.736,LearnStrategy,2023.2.3,Win32,238.0952381,4,1,12,-0.223611111,-0.420138889,1,0,0,2.1205,Basalt_10,2,10,1,3,2.12,0.431944444,-0.380555556,1,0,0,1.2688,Pumice_rect,8,1.269,0,11,0,11,0,1,,,,,,,,,,,,,
55b2d3f2fdf99b525bc839aa,SCN,2024-06-25_12h23.32.736,LearnStrategy,2023.2.3,Win32,238.0952381,4,1,13,0.520138889,-0.091666667,1,0,0,0.8715,Peridotite_04,7,04,3,8,0.872,0.335416667,-0.406944444,1,0,0,0.8391,Pumice_rect,8,0.839,0,12,0,12,0,1,,,,,,,,,,,,,
55b2d3f2fdf99b525bc839aa,SCN,2024-06-25_12h23.32.736,LearnStrategy,2023.2.3,Win32,238.0952381,4,1,14,0.090277778,-0.089583333,1,0,0,0.6409,Basalt_16,2,16,3,5,0.641,0.122222222,-0.249305556,1,0,0,0.6287,Diorite_rect,3,0.629,0,13,0,13,0,1,,,,,,,,,,,,,
55b2d3f2fdf99b525bc839aa,SCN,2024-06-25_12h23.32.736,LearnStrategy,2023.2.3,Win32,238.0952381,4,1,15,0.535416667,-0.106944444,1,0,0,0.6727,Peridotite_04,7,04,3,8,0.673,-0.388888889,-0.400694444,1,0,0,1.3204,Obsidian_rect,5,1.32,0,14,0,14,0,1,,,,,,,,,,,,,
55b2d3f2fdf99b525bc839aa,SCN,2024-06-25_12h23.32.736,LearnStrategy,2023.2.3,Win32,238.0952381,4,1,16,0.549305556,0.070138889,1,0,0,1.2327,Diorite_02,3,02,4,8,1.233,-0.347916667,-0.254166667,1,0,0,3.3737,Andesite_rect,1,3.374,0,15,0,15,0,1,,,,,,,,,,,,,
55b2d3f2fdf99b525bc839aa,SCN,2024-06-25_12h23.32.736,LearnStrategy,2023.2.3,Win32,238.0952381,4,2,1,,,,,,,,4,09,,,,,,,,,,,1,11.267,0,,,,,,-0.409027778,-0.241666667,1,0,0,11.267,Andesite_rect,0,0,0,0,1,
55b2d3f2fdf99b525bc839aa,SCN,2024-06-25_12h23.32.736,LearnStrategy,2023.2.3,Win32,238.0952381,4,2,2,,,,,,,,3,08,,,,,,,,,,,2,11.741,0,,,,,,-0.071527778,-0.2625,1,0,0,11.7406,Basalt_rect,1,0,1,0,1,
55b2d3f2fdf99b525bc839aa,SCN,2024-06-25_12h23.32.736,LearnStrategy,2023.2.3,Win32,238.0952381,4,2,3,,,,,,,,8,04,,,,,,,,,,,8,8.021,1,,,,,,0.384722222,-0.383333333,1,0,0,8.0209,Pumice_rect,2,0,2,0,1,
55b2d3f2fdf99b525bc839aa,SCN,2024-06-25_12h23.32.736,LearnStrategy,2023.2.3,Win32,238.0952381,4,2,4,,,,,,,,7,15,,,,,,,,,,,5,1.478,0,,,,,,-0.447916667,-0.4,1,0,0,1.4782,Obsidian_rect,3,0,3,0,1,
55b2d3f2fdf99b525bc839aa,SCN,2024-06-25_12h23.32.736,LearnStrategy,2023.2.3,Win32,238.0952381,4,2,5,,,,,,,,8,16,,,,,,,,,,,2,10.205,0,,,,,,-0.130555556,-0.247222222,1,0,0,10.2047,Basalt_rect,4,0,4,0,1,
55b2d3f2fdf99b525bc839aa,SCN,2024-06-25_12h23.32.736,LearnStrategy,2023.2.3,Win32,238.0952381,4,2,6,,,,,,,,5,08,,,,,,,,,,,5,1.709,1,,,,,,-0.43125,-0.394444444,1,0,0,1.7087,Obsidian_rect,5,0,5,0,1,
55b2d3f2fdf99b525bc839aa,SCN,2024-06-25_12h23.32.736,LearnStrategy,2023.2.3,Win32,238.0952381,4,2,7,,,,,,,,6,07,,,,,,,,,,,5,0.767,0,,,,,,-0.375694444,-0.402777778,1,0,0,0.767,Obsidian_rect,6,0,6,0,1,
55b2d3f2fdf99b525bc839aa,SCN,2024-06-25_12h23.32.736,LearnStrategy,2023.2.3,Win32,238.0952381,4,2,8,,,,,,,,5,12,,,,,,,,,,,5,0.955,1,,,,,,-0.453472222,-0.411805556,1,0,0,0.9552,Obsidian_rect,7,0,7,0,1,
55b2d3f2fdf99b525bc839aa,SCN,2024-06-25_12h23.32.736,LearnStrategy,2023.2.3,Win32,238.0952381,4,2,9,,,,,,,,3,15,,,,,,,,,,,3,10.689,1,,,,,,0.200694444,-0.248611111,1,0,0,10.6893,Diorite_rect,8,0,8,0,1,
55b2d3f2fdf99b525bc839aa,SCN,2024-06-25_12h23.32.736,LearnStrategy,2023.2.3,Win32,238.0952381,4,2,10,,,,,,,,4,15,,,,,,,,,,,4,10.462,1,,,,,,0.416666667,-0.259027778,1,0,0,10.4623,Gabbro_rect,9,0,9,0,1,
55b2d3f2fdf99b525bc839aa,SCN,2024-06-25_12h23.32.736,LearnStrategy,2023.2.3,Win32,238.0952381,4,2,11,,,,,,,,1,04,,,,,,,,,,,6,9.438,0,,,,,,-0.104166667,-0.4,1,0,0,9.4385,Pegmatite_rect,10,0,10,0,1,
55b2d3f2fdf99b525bc839aa,SCN,2024-06-25_12h23.32.736,LearnStrategy,2023.2.3,Win32,238.0952381,4,2,12,,,,,,,,2,09,,,,,,,,,,,2,8.814,1,,,,,,-0.165972222,-0.25,1,0,0,8.8144,Basalt_rect,11,0,11,0,1,
55b2d3f2fdf99b525bc839aa,SCN,2024-06-25_12h23.32.736,LearnStrategy,2023.2.3,Win32,238.0952381,4,2,13,,,,,,,,2,14,,,,,,,,,,,2,7.79,1,,,,,,-0.168055556,-0.235416667,1,0,0,7.7897,Basalt_rect,12,0,12,0,1,
55b2d3f2fdf99b525bc839aa,SCN,2024-06-25_12h23.32.736,LearnStrategy,2023.2.3,Win32,238.0952381,4,2,14,,,,,,,,1,02,,,,,,,,,,,1,8.582,1,,,,,,-0.399305556,-0.239583333,1,0,0,8.582,Andesite_rect,13,0,13,0,1,
55b2d3f2fdf99b525bc839aa,SCN,2024-06-25_12h23.32.736,LearnStrategy,2023.2.3,Win32,238.0952381,4,2,15,,,,,,,,6,11,,,,,,,,,,,5,1.816,0,,,,,,-0.425694444,-0.401388889,1,0,0,1.8159,Obsidian_rect,14,0,14,0,1,
55b2d3f2fdf99b525bc839aa,SCN,2024-06-25_12h23.32.736,LearnStrategy,2023.2.3,Win32,238.0952381,4,2,16,,,,,,,,7,05,,,,,,,,,,,6,2.205,0,,,,,,-0.100694444,-0.383333333,1,0,0,2.205,Pegmatite_rect,15,0,15,0,1,
55b2d3f2fdf99b525bc839aa,SCN,2024-06-25_12h23.32.736,LearnStrategy,2023.2.3,Win32,238.0952381,5,1,1,0.408333333,0.078472222,1,0,0,0.7894,Obsidian_10,5,10,4,7,0.789,-0.0875,-0.2375,1,0,0,0.7661,Basalt_rect,2,0.766,0,0,0,0,0,1,,,,,,,,,,,,,
55b2d3f2fdf99b525bc839aa,SCN,2024-06-25_12h23.32.736,LearnStrategy,2023.2.3,Win32,238.0952381,5,1,2,0.522916667,-0.102083333,1,0,0,0.6984,Peridotite_04,7,04,3,8,0.698,0.391666667,-0.253472222,1,0,0,0.8561,Gabbro_rect,4,0.856,0,1,0,1,0,1,,,,,,,,,,,,,
55b2d3f2fdf99b525bc839aa,SCN,2024-06-25_12h23.32.736,LearnStrategy,2023.2.3,Win32,238.0952381,5,1,3,0.388888889,0.378472222,1,0,0,0.7369,Gabbro_14,4,14,6,7,0.737,-0.374305556,-0.252083333,1,0,0,0.9538,Andesite_rect,1,0.954,0,2,0,2,0,1,,,,,,,,,,,,,
55b2d3f2fdf99b525bc839aa,SCN,2024-06-25_12h23.32.736,LearnStrategy,2023.2.3,Win32,238.0952381,5,1,4,0.221527778,0.236111111,1,0,0,0.8645,Basalt_02,2,02,5,6,0.864,0.133333333,-0.388888889,1,0,0,0.9613,Peridotite_rect,7,0.961,0,3,0,3,0,1,,,,,,,,,,,,,
55b2d3f2fdf99b525bc839aa,SCN,2024-06-25_12h23.32.736,LearnStrategy,2023.2.3,Win32,238.0952381,5,1,5,0.081944444,0.395138889,1,0,0,0.7314,Pegmatite_16,6,16,6,5,0.731,0.380555556,-0.41875,1,0,0,1.2922,Pumice_rect,8,1.292,0,4,0,4,0,1,,,,,,,,,,,,,
55b2d3f2fdf99b525bc839aa,SCN,2024-06-25_12h23.32.736,LearnStrategy,2023.2.3,Win32,238.0952381,5,1,6,0.5375,0.403472222,1,0,0,0.7408,Peridotite_02,7,02,6,8,0.741,-0.160416667,-0.406944444,1,0,0,1.8114,Pegmatite_rect,6,1.811,0,5,0,5,0,1,,,,,,,,,,,,,
55b2d3f2fdf99b525bc839aa,SCN,2024-06-25_12h23.32.736,LearnStrategy,2023.2.3,Win32,238.0952381,5,1,7,-0.063194444,0.422916667,1,0,0,0.6931,Obsidian_09,5,09,6,4,0.693,-0.372916667,-0.386805556,1,0,0,0.8877,Obsidian_rect,5,0.888,1,6,0,6,0,1,,,,,,,,,,,,,
55b2d3f2fdf99b525bc839aa,SCN,2024-06-25_12h23.32.736,LearnStrategy,2023.2.3,Win32,238.0952381,5,1,8,-0.354166667,0.404861111,1,0,0,0.7243,Obsidian_07,5,07,6,2,0.724,-0.395833333,-0.420833333,1,0,0,0.6083,Obsidian_rect,5,0.608,1,7,0,7,0,1,,,,,,,,,,,,,
55b2d3f2fdf99b525bc839aa,SCN,2024-06-25_12h23.32.736,LearnStrategy,2023.2.3,Win32,238.0952381,5,1,9,0.228472222,-0.100694444,1,0,0,0.9077,Gabbro_11,4,11,3,6,0.908,-0.122222222,-0.245833333,1,0,0,0.7423,Basalt_rect,2,0.742,0,8,0,8,0,1,,,,,,,,,,,,,
55b2d3f2fdf99b525bc839aa,SCN,2024-06-25_12h23.32.736,LearnStrategy,2023.2.3,Win32,238.0952381,5,1,10,0.377777778,-0.117361111,1,0,0,1.3326,Pumice_09,8,09,3,7,1.333,0.365972222,-0.406944444,1,0,0,1.0443,Pumice_rect,8,1.044,1,9,0,9,0,1,,,,,,,,,,,,,
55b2d3f2fdf99b525bc839aa,SCN,2024-06-25_12h23.32.736,LearnStrategy,2023.2.3,Win32,238.0952381,5,1,11,0.3875,-0.270138889,1,0,0,0.7392,Pumice_13,8,13,2,7,0.739,0.429166667,-0.415972222,1,0,0,0.515,Pumice_rect,8,0.515,1,10,0,10,0,1,,,,,,,,,,,,,
55b2d3f2fdf99b525bc839aa,SCN,2024-06-25_12h23.32.736,LearnStrategy,2023.2.3,Win32,238.0952381,5,1,12,-0.089583333,-0.270833333,1,0,0,0.8461,Peridotite_14,7,14,2,4,0.846,0.352777778,-0.386111111,1,0,0,1.0511,Pumice_rect,8,1.051,0,11,0,11,0,1,,,,,,,,,,,,,
55b2d3f2fdf99b525bc839aa,SCN,2024-06-25_12h23.32.736,LearnStrategy,2023.2.3,Win32,238.0952381,5,1,13,-0.083333333,-0.222916667,1,0,0,0.6535,Peridotite_14,7,14,2,4,0.653,-0.097222222,-0.383333333,1,0,0,0.7615,Pegmatite_rect,6,0.762,0,12,0,12,0,1,,,,,,,,,,,,,
55b2d3f2fdf99b525bc839aa,SCN,2024-06-25_12h23.32.736,LearnStrategy,2023.2.3,Win32,238.0952381,5,1,14,0.083333333,-0.288194444,1,0,0,4.0687,Gabbro_12,4,12,2,5,4.069,-0.384027778,-0.240972222,1,0,0,29.3605,Andesite_rect,1,29.361,0,13,0,13,0,1,,,,,,,,,,,,,
55b2d3f2fdf99b525bc839aa,SCN,2024-06-25_12h23.32.736,LearnStrategy,2023.2.3,Win32,238.0952381,5,1,15,-0.242361111,-0.084722222,1,0,0,1.1588,Andesite_03,1,03,3,3,1.159,-0.144444444,-0.238194444,1,0,0,0.7947,Basalt_rect,2,0.795,0,14,0,14,0,1,,,,,,,,,,,,,
55b2d3f2fdf99b525bc839aa,SCN,2024-06-25_12h23.32.736,LearnStrategy,2023.2.3,Win32,238.0952381,5,1,16,-0.227083333,0.088888889,1,0,0,1.0561,Pegmatite_15,6,15,4,3,1.056,-0.386805556,-0.415972222,1,0,0,1.4159,Obsidian_rect,5,1.416,0,15,0,15,0,1,,,,,,,,,,,,,
55b2d3f2fdf99b525bc839aa,SCN,2024-06-25_12h23.32.736,LearnStrategy,2023.2.3,Win32,238.0952381,5,2,1,,,,,,,,1,10,,,,,,,,,,,3,11.02,0,,,,,,0.129861111,-0.246527778,1,0,0,11.0196,Diorite_rect,0,0,0,0,1,
55b2d3f2fdf99b525bc839aa,SCN,2024-06-25_12h23.32.736,LearnStrategy,2023.2.3,Win32,238.0952381,5,2,2,,,,,,,,6,09,,,,,,,,,,,5,4.545,0,,,,,,-0.388194444,-0.388888889,1,0,0,4.5449,Obsidian_rect,1,0,1,0,1,
55b2d3f2fdf99b525bc839aa,SCN,2024-06-25_12h23.32.736,LearnStrategy,2023.2.3,Win32,238.0952381,5,2,3,,,,,,,,2,12,,,,,,,,,,,2,7.466,1,,,,,,-0.100694444,-0.238888889,1,0,0,7.4659,Basalt_rect,2,0,2,0,1,
55b2d3f2fdf99b525bc839aa,SCN,2024-06-25_12h23.32.736,LearnStrategy,2023.2.3,Win32,238.0952381,5,2,4,,,,,,,,4,03,,,,,,,,,,,4,9.092,1,,,,,,0.370833333,-0.258333333,1,0,0,9.0918,Gabbro_rect,3,0,3,0,1,
55b2d3f2fdf99b525bc839aa,SCN,2024-06-25_12h23.32.736,LearnStrategy,2023.2.3,Win32,238.0952381,5,2,5,,,,,,,,4,10,,,,,,,,,,,8,12.317,0,,,,,,0.361111111,-0.395138889,1,0,0,12.3174,Pumice_rect,4,0,4,0,1,
55b2d3f2fdf99b525bc839aa,SCN,2024-06-25_12h23.32.736,LearnStrategy,2023.2.3,Win32,238.0952381,5,2,6,,,,,,,,6,03,,,,,,,,,,,5,0.94,0,,,,,,-0.384027778,-0.403472222,1,0,0,0.9403,Obsidian_rect,5,0,5,0,1,
55b2d3f2fdf99b525bc839aa,SCN,2024-06-25_12h23.32.736,LearnStrategy,2023.2.3,Win32,238.0952381,5,2,7,,,,,,,,7,16,,,,,,,,,,,7,18.468,1,,,,,,0.130555556,-0.398611111,1,0,0,18.4684,Peridotite_rect,6,0,6,0,1,
55b2d3f2fdf99b525bc839aa,SCN,2024-06-25_12h23.32.736,LearnStrategy,2023.2.3,Win32,238.0952381,5,2,8,,,,,,,,5,05,,,,,,,,,,,5,0.883,1,,,,,,-0.329166667,-0.404166667,1,0,0,0.883,Obsidian_rect,7,0,7,0,1,
55b2d3f2fdf99b525bc839aa,SCN,2024-06-25_12h23.32.736,LearnStrategy,2023.2.3,Win32,238.0952381,5,2,9,,,,,,,,1,14,,,,,,,,,,,3,22.47,0,,,,,,0.102777778,-0.260416667,1,0,0,22.4699,Diorite_rect,8,0,8,0,1,
55b2d3f2fdf99b525bc839aa,SCN,2024-06-25_12h23.32.736,LearnStrategy,2023.2.3,Win32,238.0952381,5,2,10,,,,,,,,2,01,,,,,,,,,,,4,12.969,0,,,,,,0.364583333,-0.244444444,1,0,0,12.9687,Gabbro_rect,9,0,9,0,1,
55b2d3f2fdf99b525bc839aa,SCN,2024-06-25_12h23.32.736,LearnStrategy,2023.2.3,Win32,238.0952381,5,2,11,,,,,,,,8,15,,,,,,,,,,,8,1.114,1,,,,,,0.382638889,-0.381944444,1,0,0,1.1142,Pumice_rect,10,0,10,0,1,
55b2d3f2fdf99b525bc839aa,SCN,2024-06-25_12h23.32.736,LearnStrategy,2023.2.3,Win32,238.0952381,5,2,12,,,,,,,,8,05,,,,,,,,,,,8,1.122,1,,,,,,0.382638889,-0.396527778,1,0,0,1.1215,Pumice_rect,11,0,11,0,1,
55b2d3f2fdf99b525bc839aa,SCN,2024-06-25_12h23.32.736,LearnStrategy,2023.2.3,Win32,238.0952381,5,2,13,,,,,,,,3,07,,,,,,,,,,,3,9.005,1,,,,,,0.136805556,-0.245833333,1,0,0,9.0055,Diorite_rect,12,0,12,0,1,
55b2d3f2fdf99b525bc839aa,SCN,2024-06-25_12h23.32.736,LearnStrategy,2023.2.3,Win32,238.0952381,5,2,14,,,,,,,,7,13,,,,,,,,,,,7,9.177,1,,,,,,0.061111111,-0.380555556,1,0,0,9.1774,Peridotite_rect,13,0,13,0,1,
55b2d3f2fdf99b525bc839aa,SCN,2024-06-25_12h23.32.736,LearnStrategy,2023.2.3,Win32,238.0952381,5,2,15,,,,,,,,3,06,,,,,,,,,,,7,9.914,0,,,,,,0.064583333,-0.399305556,1,0,0,9.9137,Peridotite_rect,14,0,14,0,1,
55b2d3f2fdf99b525bc839aa,SCN,2024-06-25_12h23.32.736,LearnStrategy,2023.2.3,Win32,238.0952381,5,2,16,,,,,,,,5,04,,,,,,,,,,,5,1.137,1,,,,,,-0.398611111,-0.394444444,1,0,0,1.1368,Obsidian_rect,15,0,15,0,1,
55b2d3f2fdf99b525bc839aa,SCN,2024-06-25_12h23.32.736,LearnStrategy,2023.2.3,Win32,238.0952381,6,1,1,0.257638889,0.08125,1,0,0,0.6493,Pegmatite_06,6,06,4,6,0.649,-0.116666667,-0.24375,1,0,0,0.7831,Basalt_rect,2,0.783,0,0,0,0,0,1,,,,,,,,,,,,,
55b2d3f2fdf99b525bc839aa,SCN,2024-06-25_12h23.32.736,LearnStrategy,2023.2.3,Win32,238.0952381,6,1,2,0.55625,0.246527778,1,0,0,0.6701,Pumice_03,8,03,5,8,0.67,-0.329861111,-0.384722222,1,0,0,1.1601,Obsidian_rect,5,1.16,0,1,0,1,0,1,,,,,,,,,,,,,
55b2d3f2fdf99b525bc839aa,SCN,2024-06-25_12h23.32.736,LearnStrategy,2023.2.3,Win32,238.0952381,6,1,3,0.277083333,0.255555556,1,0,0,0.7063,Basalt_02,2,02,5,6,0.706,-0.069444444,-0.231944444,1,0,0,1.0691,Basalt_rect,2,1.069,1,2,0,2,0,1,,,,,,,,,,,,,
55b2d3f2fdf99b525bc839aa,SCN,2024-06-25_12h23.32.736,LearnStrategy,2023.2.3,Win32,238.0952381,6,1,4,0.238194444,-0.09375,1,0,0,0.6477,Gabbro_11,4,11,3,6,0.648,0.108333333,-0.249305556,1,0,0,0.5612,Diorite_rect,3,0.561,0,3,0,3,0,1,,,,,,,,,,,,,
55b2d3f2fdf99b525bc839aa,SCN,2024-06-25_12h23.32.736,LearnStrategy,2023.2.3,Win32,238.0952381,6,1,5,-0.117361111,0.070833333,1,0,0,0.5473,Andesite_16,1,16,4,4,0.547,-0.088888889,-0.248611111,1,0,0,0.6718,Basalt_rect,2,0.672,0,4,0,4,0,1,,,,,,,,,,,,,
55b2d3f2fdf99b525bc839aa,SCN,2024-06-25_12h23.32.736,LearnStrategy,2023.2.3,Win32,238.0952381,6,1,6,-0.259722222,0.228472222,1,0,0,0.5352,Andesite_06,1,06,5,3,0.535,0.351388889,-0.379861111,1,0,0,0.9245,Pumice_rect,8,0.925,0,5,0,5,0,1,,,,,,,,,,,,,
55b2d3f2fdf99b525bc839aa,SCN,2024-06-25_12h23.32.736,LearnStrategy,2023.2.3,Win32,238.0952381,6,1,7,0.072222222,0.263888889,1,0,0,0.4287,Diorite_12,3,12,5,5,0.429,-0.1625,-0.386111111,1,0,0,0.7608,Pegmatite_rect,6,0.761,0,6,0,6,0,1,,,,,,,,,,,,,
55b2d3f2fdf99b525bc839aa,SCN,2024-06-25_12h23.32.736,LearnStrategy,2023.2.3,Win32,238.0952381,6,1,8,0.250694444,0.388888889,1,0,0,0.5994,Obsidian_14,5,14,6,6,0.599,0.149305556,-0.378472222,1,0,0,1.536,Peridotite_rect,7,1.536,0,7,0,7,0,1,,,,,,,,,,,,,
55b2d3f2fdf99b525bc839aa,SCN,2024-06-25_12h23.32.736,LearnStrategy,2023.2.3,Win32,238.0952381,6,1,9,0.422222222,0.255555556,1,0,0,0.7728,Diorite_16,3,16,5,7,0.773,0.388888889,-0.234027778,1,0,0,0.4868,Gabbro_rect,4,0.487,0,8,0,8,0,1,,,,,,,,,,,,,
55b2d3f2fdf99b525bc839aa,SCN,2024-06-25_12h23.32.736,LearnStrategy,2023.2.3,Win32,238.0952381,6,1,10,0.113888889,0.3875,1,0,0,0.5829,Pegmatite_16,6,16,6,5,0.583,-0.183333333,-0.245833333,1,0,0,0.8758,Basalt_rect,2,0.876,0,9,0,9,0,1,,,,,,,,,,,,,
55b2d3f2fdf99b525bc839aa,SCN,2024-06-25_12h23.32.736,LearnStrategy,2023.2.3,Win32,238.0952381,6,1,11,-0.264583333,0.251388889,1,0,0,0.8035,Andesite_06,1,06,5,3,0.803,-0.138888889,-0.258333333,1,0,0,1.0086,Basalt_rect,2,1.009,0,10,0,10,0,1,,,,,,,,,,,,,
55b2d3f2fdf99b525bc839aa,SCN,2024-06-25_12h23.32.736,LearnStrategy,2023.2.3,Win32,238.0952381,6,1,12,-0.063888889,0.084722222,1,0,0,0.6744,Andesite_16,1,16,4,4,0.674,-0.388888889,-0.260416667,1,0,0,0.5189,Andesite_rect,1,0.519,1,11,0,11,0,1,,,,,,,,,,,,,
55b2d3f2fdf99b525bc839aa,SCN,2024-06-25_12h23.32.736,LearnStrategy,2023.2.3,Win32,238.0952381,6,1,13,0.526388889,-0.388888889,1,0,0,0.6204,Pegmatite_12,6,12,1,8,0.62,-0.355555556,-0.413888889,1,0,0,1.279,Obsidian_rect,5,1.279,0,12,0,12,0,1,,,,,,,,,,,,,
55b2d3f2fdf99b525bc839aa,SCN,2024-06-25_12h23.32.736,LearnStrategy,2023.2.3,Win32,238.0952381,6,1,14,0.065972222,-0.102083333,1,0,0,0.481,Basalt_16,2,16,3,5,0.481,0.348611111,-0.391666667,1,0,0,0.6351,Pumice_rect,8,0.635,0,13,0,13,0,1,,,,,,,,,,,,,
55b2d3f2fdf99b525bc839aa,SCN,2024-06-25_12h23.32.736,LearnStrategy,2023.2.3,Win32,238.0952381,6,1,15,0.242361111,-0.092361111,1,0,0,0.6204,Gabbro_11,4,11,3,6,0.62,0.236805556,-0.233333333,1,0,0,0.6795,Diorite_rect,3,0.679,0,14,0,14,0,1,,,,,,,,,,,,,
55b2d3f2fdf99b525bc839aa,SCN,2024-06-25_12h23.32.736,LearnStrategy,2023.2.3,Win32,238.0952381,6,1,16,0.028472222,-0.089583333,1,0,0,0.345,Basalt_16,2,16,3,5,0.345,-0.088194444,-0.234027778,1,0,0,0.8169,Basalt_rect,2,0.817,1,15,0,15,0,1,,,,,,,,,,,,,
55b2d3f2fdf99b525bc839aa,SCN,2024-06-25_12h23.32.736,LearnStrategy,2023.2.3,Win32,238.0952381,6,2,1,,,,,,,,4,16,,,,,,,,,,,6,11.116,0,,,,,,-0.132638889,-0.393055556,1,0,0,11.1161,Pegmatite_rect,0,0,0,0,1,
55b2d3f2fdf99b525bc839aa,SCN,2024-06-25_12h23.32.736,LearnStrategy,2023.2.3,Win32,238.0952381,6,2,2,,,,,,,,7,06,,,,,,,,,,,7,7.867,1,,,,,,0.104861111,-0.399305556,1,0,0,7.8666,Peridotite_rect,1,0,1,0,1,
55b2d3f2fdf99b525bc839aa,SCN,2024-06-25_12h23.32.736,LearnStrategy,2023.2.3,Win32,238.0952381,6,2,3,,,,,,,,8,06,,,,,,,,,,,8,2.402,1,,,,,,0.40625,-0.388194444,1,0,0,2.4022,Pumice_rect,2,0,2,0,1,
55b2d3f2fdf99b525bc839aa,SCN,2024-06-25_12h23.32.736,LearnStrategy,2023.2.3,Win32,238.0952381,6,2,4,,,,,,,,3,14,,,,,,,,,,,3,7.696,1,,,,,,0.116666667,-0.241666667,1,0,0,7.6958,Diorite_rect,3,0,3,0,1,
55b2d3f2fdf99b525bc839aa,SCN,2024-06-25_12h23.32.736,LearnStrategy,2023.2.3,Win32,238.0952381,6,2,5,,,,,,,,5,06,,,,,,,,,,,5,1.283,1,,,,,,-0.441666667,-0.402777778,1,0,0,1.2831,Obsidian_rect,4,0,4,0,1,
55b2d3f2fdf99b525bc839aa,SCN,2024-06-25_12h23.32.736,LearnStrategy,2023.2.3,Win32,238.0952381,6,2,6,,,,,,,,2,11,,,,,,,,,,,1,9.5,0,,,,,,-0.415277778,-0.255555556,1,0,0,9.4997,Andesite_rect,5,0,5,0,1,
55b2d3f2fdf99b525bc839aa,SCN,2024-06-25_12h23.32.736,LearnStrategy,2023.2.3,Win32,238.0952381,6,2,7,,,,,,,,2,05,,,,,,,,,,,3,9.677,0,,,,,,0.169444444,-0.266666667,1,0,0,9.6767,Diorite_rect,6,0,6,0,1,
55b2d3f2fdf99b525bc839aa,SCN,2024-06-25_12h23.32.736,LearnStrategy,2023.2.3,Win32,238.0952381,6,2,8,,,,,,,,1,01,,,,,,,,,,,7,13.39,0,,,,,,0.120833333,-0.400694444,1,0,0,13.3895,Peridotite_rect,7,0,7,0,1,
55b2d3f2fdf99b525bc839aa,SCN,2024-06-25_12h23.32.736,LearnStrategy,2023.2.3,Win32,238.0952381,6,2,9,,,,,,,,7,12,,,,,,,,,,,7,8.756,1,,,,,,0.115277778,-0.406944444,1,0,0,8.7561,Peridotite_rect,8,0,8,0,1,
55b2d3f2fdf99b525bc839aa,SCN,2024-06-25_12h23.32.736,LearnStrategy,2023.2.3,Win32,238.0952381,6,2,10,,,,,,,,1,05,,,,,,,,,,,2,9.349,0,,,,,,-0.060416667,-0.254166667,1,0,0,9.3489,Basalt_rect,9,0,9,0,1,
55b2d3f2fdf99b525bc839aa,SCN,2024-06-25_12h23.32.736,LearnStrategy,2023.2.3,Win32,238.0952381,6,2,11,,,,,,,,8,08,,,,,,,,,,,8,9.261,1,,,,,,0.359722222,-0.383333333,1,0,0,9.2608,Pumice_rect,10,0,10,0,1,
55b2d3f2fdf99b525bc839aa,SCN,2024-06-25_12h23.32.736,LearnStrategy,2023.2.3,Win32,238.0952381,6,2,12,,,,,,,,6,05,,,,,,,,,,,5,1.486,0,,,,,,-0.361111111,-0.403472222,1,0,0,1.4856,Obsidian_rect,11,0,11,0,1,
55b2d3f2fdf99b525bc839aa,SCN,2024-06-25_12h23.32.736,LearnStrategy,2023.2.3,Win32,238.0952381,6,2,13,,,,,,,,5,02,,,,,,,,,,,5,1.001,1,,,,,,-0.382638889,-0.410416667,1,0,0,1.0015,Obsidian_rect,12,0,12,0,1,
55b2d3f2fdf99b525bc839aa,SCN,2024-06-25_12h23.32.736,LearnStrategy,2023.2.3,Win32,238.0952381,6,2,14,,,,,,,,6,13,,,,,,,,,,,8,1.361,0,,,,,,0.340972222,-0.402777778,1,0,0,1.3611,Pumice_rect,13,0,13,0,1,
55b2d3f2fdf99b525bc839aa,SCN,2024-06-25_12h23.32.736,LearnStrategy,2023.2.3,Win32,238.0952381,6,2,15,,,,,,,,4,01,,,,,,,,,,,3,1.247,0,,,,,,0.115972222,-0.266666667,1,0,0,1.2465,Diorite_rect,14,0,14,0,1,
55b2d3f2fdf99b525bc839aa,SCN,2024-06-25_12h23.32.736,LearnStrategy,2023.2.3,Win32,238.0952381,6,2,16,,,,,,,,3,10,,,,,,,,,,,2,1.093,0,,,,,,-0.103472222,-0.264583333,1,0,0,1.0933,Basalt_rect,15,0,15,0,1,
55b2d3f2fdf99b525bc839aa,SCN,2024-06-25_12h23.32.736,LearnStrategy,2023.2.3,Win32,238.0952381,7,1,1,0.398611111,-0.085416667,1,0,0,0.658,Pumice_09,8,09,3,7,0.658,0.177777778,-0.234722222,1,0,0,0.8291,Diorite_rect,3,0.829,0,0,0,0,0,1,,,,,,,,,,,,,
55b2d3f2fdf99b525bc839aa,SCN,2024-06-25_12h23.32.736,LearnStrategy,2023.2.3,Win32,238.0952381,7,1,2,-0.061805556,0.115277778,1,0,0,0.445,Andesite_16,1,16,4,4,0.445,-0.199305556,-0.2375,1,0,0,0.5384,Basalt_rect,2,0.538,0,1,0,1,0,1,,,,,,,,,,,,,
55b2d3f2fdf99b525bc839aa,SCN,2024-06-25_12h23.32.736,LearnStrategy,2023.2.3,Win32,238.0952381,7,1,3,-0.384027778,0.073611111,1,0,0,0.7621,Andesite_07,1,07,4,2,0.762,0.153472222,-0.26875,1,0,0,0.9439,Diorite_rect,3,0.944,0,2,0,2,0,1,,,,,,,,,,,,,
55b2d3f2fdf99b525bc839aa,SCN,2024-06-25_12h23.32.736,LearnStrategy,2023.2.3,Win32,238.0952381,7,1,4,0.583333333,-0.3875,1,0,0,0.6146,Pegmatite_12,6,12,1,8,0.615,0.388194444,-0.267361111,1,0,0,1.3973,Gabbro_rect,4,1.397,0,3,0,3,0,1,,,,,,,,,,,,,
55b2d3f2fdf99b525bc839aa,SCN,2024-06-25_12h23.32.736,LearnStrategy,2023.2.3,Win32,238.0952381,7,1,5,0.245138889,-0.065277778,1,0,0,0.4618,Gabbro_11,4,11,3,6,0.462,0.375694444,-0.239583333,1,0,0,1.037,Gabbro_rect,4,1.037,1,4,0,4,0,1,,,,,,,,,,,,,
55b2d3f2fdf99b525bc839aa,SCN,2024-06-25_12h23.32.736,LearnStrategy,2023.2.3,Win32,238.0952381,7,1,6,-0.236111111,0.23125,1,0,0,0.5576,Andesite_06,1,06,5,3,0.558,-0.402777778,-0.236805556,1,0,0,0.4723,Andesite_rect,1,0.472,1,5,0,5,0,1,,,,,,,,,,,,,
55b2d3f2fdf99b525bc839aa,SCN,2024-06-25_12h23.32.736,LearnStrategy,2023.2.3,Win32,238.0952381,7,1,7,-0.063888889,0.216666667,1,0,0,0.5879,Obsidian_11,5,11,5,4,0.588,-0.401388889,-0.403472222,1,0,0,0.5628,Obsidian_rect,5,0.563,1,6,0,6,0,1,,,,,,,,,,,,,
55b2d3f2fdf99b525bc839aa,SCN,2024-06-25_12h23.32.736,LearnStrategy,2023.2.3,Win32,238.0952381,7,1,8,0.093055556,0.06875,1,0,0,0.6452,Basalt_04,2,04,4,5,0.645,-0.079166667,-0.380555556,1,0,0,1.3271,Pegmatite_rect,6,1.327,0,7,0,7,0,1,,,,,,,,,,,,,
55b2d3f2fdf99b525bc839aa,SCN,2024-06-25_12h23.32.736,LearnStrategy,2023.2.3,Win32,238.0952381,7,1,9,0.354861111,0.097222222,1,0,0,0.9991,Obsidian_10,5,10,4,7,0.999,-0.3625,-0.419444444,1,0,0,0.7938,Obsidian_rect,5,0.794,1,8,0,8,0,1,,,,,,,,,,,,,
55b2d3f2fdf99b525bc839aa,SCN,2024-06-25_12h23.32.736,LearnStrategy,2023.2.3,Win32,238.0952381,7,1,10,0.220138889,-0.079861111,1,0,0,0.6415,Gabbro_11,4,11,3,6,0.642,-0.046527778,-0.241666667,1,0,0,0.9254,Basalt_rect,2,0.925,0,9,0,9,0,1,,,,,,,,,,,,,
55b2d3f2fdf99b525bc839aa,SCN,2024-06-25_12h23.32.736,LearnStrategy,2023.2.3,Win32,238.0952381,7,1,11,0.227777778,-0.099305556,1,0,0,1.3782,Gabbro_11,4,11,3,6,1.378,-0.102083333,-0.238194444,1,0,0,90.2011,Basalt_rect,2,90.201,0,10,0,10,0,1,,,,,,,,,,,,,
55b2d3f2fdf99b525bc839aa,SCN,2024-06-25_12h23.32.736,LearnStrategy,2023.2.3,Win32,238.0952381,7,1,12,-0.055555556,0.064583333,1,0,0,1.0786,Andesite_16,1,16,4,4,1.079,-0.35,-0.25625,1,0,0,1.3863,Andesite_rect,1,1.386,1,11,0,11,0,1,,,,,,,,,,,,,
55b2d3f2fdf99b525bc839aa,SCN,2024-06-25_12h23.32.736,LearnStrategy,2023.2.3,Win32,238.0952381,7,1,13,-0.054861111,0.071527778,1,0,0,0.6744,Andesite_16,1,16,4,4,0.674,0.172916667,-0.23125,1,0,0,1.0858,Diorite_rect,3,1.086,0,12,0,12,0,1,,,,,,,,,,,,,
55b2d3f2fdf99b525bc839aa,SCN,2024-06-25_12h23.32.736,LearnStrategy,2023.2.3,Win32,238.0952381,7,1,14,0.549305556,-0.088194444,1,0,0,0.5852,Peridotite_04,7,04,3,8,0.585,0.374305556,-0.269444444,1,0,0,1.0842,Gabbro_rect,4,1.084,0,13,0,13,0,1,,,,,,,,,,,,,
55b2d3f2fdf99b525bc839aa,SCN,2024-06-25_12h23.32.736,LearnStrategy,2023.2.3,Win32,238.0952381,7,1,15,0.245833333,-0.260416667,1,0,0,0.5787,Pumice_02,8,02,2,6,0.579,-0.0875,-0.232638889,1,0,0,0.5601,Basalt_rect,2,0.56,0,14,0,14,0,1,,,,,,,,,,,,,
55b2d3f2fdf99b525bc839aa,SCN,2024-06-25_12h23.32.736,LearnStrategy,2023.2.3,Win32,238.0952381,7,1,16,0.248611111,-0.379861111,1,0,0,0.5163,Gabbro_08,4,08,1,6,0.516,0.372222222,-0.402777778,1,0,0,0.4661,Pumice_rect,8,0.466,0,15,0,15,0,1,,,,,,,,,,,,,
55b2d3f2fdf99b525bc839aa,SCN,2024-06-25_12h23.32.736,LearnStrategy,2023.2.3,Win32,238.0952381,7,2,1,,,,,,,,5,12,,,,,,,,,,,3,0.649,0,,,,,,0.18125,-0.269444444,1,0,0,0.6485,Diorite_rect,0,0,0,0,1,
55b2d3f2fdf99b525bc839aa,SCN,2024-06-25_12h23.32.736,LearnStrategy,2023.2.3,Win32,238.0952381,7,2,2,,,,,,,,4,09,,,,,,,,,,,2,0.712,0,,,,,,-0.085416667,-0.2375,1,0,0,0.7124,Basalt_rect,1,0,1,0,1,
55b2d3f2fdf99b525bc839aa,SCN,2024-06-25_12h23.32.736,LearnStrategy,2023.2.3,Win32,238.0952381,7,2,3,,,,,,,,1,14,,,,,,,,,,,4,1.476,0,,,,,,0.390972222,-0.240277778,1,0,0,1.4758,Gabbro_rect,2,0,2,0,1,
55b2d3f2fdf99b525bc839aa,SCN,2024-06-25_12h23.32.736,LearnStrategy,2023.2.3,Win32,238.0952381,7,2,4,,,,,,,,2,11,,,,,,,,,,,3,0.687,0,,,,,,0.153472222,-0.253472222,1,0,0,0.6872,Diorite_rect,3,0,3,0,1,
55b2d3f2fdf99b525bc839aa,SCN,2024-06-25_12h23.32.736,LearnStrategy,2023.2.3,Win32,238.0952381,7,2,5,,,,,,,,1,05,,,,,,,,,,,1,1.232,1,,,,,,-0.350694444,-0.248611111,1,0,0,1.2319,Andesite_rect,4,0,4,0,1,
55b2d3f2fdf99b525bc839aa,SCN,2024-06-25_12h23.32.736,LearnStrategy,2023.2.3,Win32,238.0952381,7,2,6,,,,,,,,3,07,,,,,,,,,,,2,0.559,0,,,,,,-0.141666667,-0.253472222,1,0,0,0.5595,Basalt_rect,5,0,5,0,1,
55b2d3f2fdf99b525bc839aa,SCN,2024-06-25_12h23.32.736,LearnStrategy,2023.2.3,Win32,238.0952381,7,2,7,,,,,,,,8,06,,,,,,,,,,,8,1.395,1,,,,,,0.323611111,-0.400694444,1,0,0,1.3953,Pumice_rect,6,0,6,0,1,
55b2d3f2fdf99b525bc839aa,SCN,2024-06-25_12h23.32.736,LearnStrategy,2023.2.3,Win32,238.0952381,7,2,8,,,,,,,,2,14,,,,,,,,,,,4,0.754,0,,,,,,0.379166667,-0.259722222,1,0,0,0.7542,Gabbro_rect,7,0,7,0,1,
55b2d3f2fdf99b525bc839aa,SCN,2024-06-25_12h23.32.736,LearnStrategy,2023.2.3,Win32,238.0952381,7,2,9,,,,,,,,8,16,,,,,,,,,,,1,1.13,0,,,,,,-0.322222222,-0.243055556,1,0,0,1.1298,Andesite_rect,8,0,8,0,1,
55b2d3f2fdf99b525bc839aa,SCN,2024-06-25_12h23.32.736,LearnStrategy,2023.2.3,Win32,238.0952381,7,2,10,,,,,,,,6,07,,,,,,,,,,,7,0.615,0,,,,,,0.146527778,-0.381944444,1,0,0,0.6155,Peridotite_rect,9,0,9,0,1,
55b2d3f2fdf99b525bc839aa,SCN,2024-06-25_12h23.32.736,LearnStrategy,2023.2.3,Win32,238.0952381,7,2,11,,,,,,,,6,11,,,,,,,,,,,2,0.847,0,,,,,,-0.118055556,-0.24375,1,0,0,0.8473,Basalt_rect,10,0,10,0,1,
55b2d3f2fdf99b525bc839aa,SCN,2024-06-25_12h23.32.736,LearnStrategy,2023.2.3,Win32,238.0952381,7,2,12,,,,,,,,3,08,,,,,,,,,,,6,0.398,0,,,,,,-0.139583333,-0.4,1,0,0,0.3983,Pegmatite_rect,11,0,11,0,1,
55b2d3f2fdf99b525bc839aa,SCN,2024-06-25_12h23.32.736,LearnStrategy,2023.2.3,Win32,238.0952381,7,2,13,,,,,,,,4,03,,,,,,,,,,,3,0.474,0,,,,,,0.146527778,-0.246527778,1,0,0,0.4735,Diorite_rect,12,0,12,0,1,
55b2d3f2fdf99b525bc839aa,SCN,2024-06-25_12h23.32.736,LearnStrategy,2023.2.3,Win32,238.0952381,7,2,14,,,,,,,,7,15,,,,,,,,,,,4,0.91,0,,,,,,0.391666667,-0.255555556,1,0,0,0.9102,Gabbro_rect,13,0,13,0,1,
55b2d3f2fdf99b525bc839aa,SCN,2024-06-25_12h23.32.736,LearnStrategy,2023.2.3,Win32,238.0952381,7,2,15,,,,,,,,5,04,,,,,,,,,,,8,0.869,0,,,,,,0.347916667,-0.388888889,1,0,0,0.8685,Pumice_rect,14,0,14,0,1,
55b2d3f2fdf99b525bc839aa,SCN,2024-06-25_12h23.32.736,LearnStrategy,2023.2.3,Win32,238.0952381,7,2,16,,,,,,,,7,13,,,,,,,,,,,1,1.248,0,,,,,,-0.338888889,-0.242361111,1,0,0,1.2479,Andesite_rect,15,0,15,0,1,
55b2d3f2fdf99b525bc839aa,SCN,2024-06-25_12h23.32.736,LearnStrategy,2023.2.3,Win32,238.0952381,8,1,1,0.522916667,0.104861111,1,0,0,0.5494,Diorite_02,3,02,4,8,0.549,0.131944444,-0.236111111,1,0,0,1.1791,Diorite_rect,3,1.179,1,0,0,0,0,1,,,,,,,,,,,,,
55b2d3f2fdf99b525bc839aa,SCN,2024-06-25_12h23.32.736,LearnStrategy,2023.2.3,Win32,238.0952381,8,1,2,-0.067361111,-0.059027778,1,0,0,0.395,Andesite_11,1,11,3,4,0.395,-0.134027778,-0.236111111,1,0,0,0.5435,Basalt_rect,2,0.544,0,1,0,1,0,1,,,,,,,,,,,,,
55b2d3f2fdf99b525bc839aa,SCN,2024-06-25_12h23.32.736,LearnStrategy,2023.2.3,Win32,238.0952381,8,1,3,-0.360416667,0.074305556,1,0,0,0.3896,Andesite_07,1,07,4,2,0.39,-0.135416667,-0.241666667,1,0,0,0.8477,Basalt_rect,2,0.848,0,2,0,2,0,1,,,,,,,,,,,,,
55b2d3f2fdf99b525bc839aa,SCN,2024-06-25_12h23.32.736,LearnStrategy,2023.2.3,Win32,238.0952381,8,1,4,0.110416667,0.090972222,1,0,0,0.4869,Basalt_04,2,04,4,5,0.487,0.154861111,-0.248611111,1,0,0,0.5327,Diorite_rect,3,0.533,0,3,0,3,0,1,,,,,,,,,,,,,
55b2d3f2fdf99b525bc839aa,SCN,2024-06-25_12h23.32.736,LearnStrategy,2023.2.3,Win32,238.0952381,8,1,5,0.373611111,0.120138889,1,0,0,0.6253,Obsidian_10,5,10,4,7,0.625,-0.120833333,-0.245138889,1,0,0,0.6731,Basalt_rect,2,0.673,0,4,0,4,0,1,,,,,,,,,,,,,
55b2d3f2fdf99b525bc839aa,SCN,2024-06-25_12h23.32.736,LearnStrategy,2023.2.3,Win32,238.0952381,8,1,6,0.272916667,0.229861111,1,0,0,0.5687,Basalt_02,2,02,5,6,0.569,-0.329166667,-0.247916667,1,0,0,0.9656,Andesite_rect,1,0.966,0,5,0,5,0,1,,,,,,,,,,,,,
55b2d3f2fdf99b525bc839aa,SCN,2024-06-25_12h23.32.736,LearnStrategy,2023.2.3,Win32,238.0952381,8,1,7,-0.359722222,0.077083333,1,0,0,0.5702,Andesite_07,1,07,4,2,0.57,-0.134027778,-0.378472222,1,0,0,0.5349,Pegmatite_rect,6,0.535,0,6,0,6,0,1,,,,,,,,,,,,,
55b2d3f2fdf99b525bc839aa,SCN,2024-06-25_12h23.32.736,LearnStrategy,2023.2.3,Win32,238.0952381,8,1,8,-0.522916667,-0.089583333,1,0,0,0.7372,Pegmatite_08,6,08,3,1,0.737,-0.129861111,-0.404166667,1,0,0,0.5292,Pegmatite_rect,6,0.529,1,7,0,7,0,1,,,,,,,,,,,,,
55b2d3f2fdf99b525bc839aa,SCN,2024-06-25_12h23.32.736,LearnStrategy,2023.2.3,Win32,238.0952381,8,1,9,0.077777778,0.077777778,1,0,0,0.4329,Basalt_04,2,04,4,5,0.433,0.096527778,-0.266666667,1,0,0,1.037,Diorite_rect,3,1.037,0,8,0,8,0,1,,,,,,,,,,,,,
55b2d3f2fdf99b525bc839aa,SCN,2024-06-25_12h23.32.736,LearnStrategy,2023.2.3,Win32,238.0952381,8,1,10,0.225694444,-0.074305556,1,0,0,0.4327,Gabbro_11,4,11,3,6,0.433,-0.129166667,-0.244444444,1,0,0,0.6026,Basalt_rect,2,0.603,0,9,0,9,0,1,,,,,,,,,,,,,
55b2d3f2fdf99b525bc839aa,SCN,2024-06-25_12h23.32.736,LearnStrategy,2023.2.3,Win32,238.0952381,8,1,11,0.563888889,0.0625,1,0,0,0.6288,Diorite_02,3,02,4,8,0.629,-0.15,-0.254166667,1,0,0,1.024,Basalt_rect,2,1.024,0,10,0,10,0,1,,,,,,,,,,,,,
55b2d3f2fdf99b525bc839aa,SCN,2024-06-25_12h23.32.736,LearnStrategy,2023.2.3,Win32,238.0952381,8,1,12,-0.515277778,0.104166667,1,0,0,0.7952,Andesite_09,1,09,4,1,0.795,0.106944444,-0.258333333,1,0,0,0.5914,Diorite_rect,3,0.591,0,11,0,11,0,1,,,,,,,,,,,,,
55b2d3f2fdf99b525bc839aa,SCN,2024-06-25_12h23.32.736,LearnStrategy,2023.2.3,Win32,238.0952381,8,1,13,0.095138889,0.250694444,1,0,0,0.6835,Diorite_12,3,12,5,5,0.684,-0.094444444,-0.266666667,1,0,0,0.8944,Basalt_rect,2,0.894,0,12,0,12,0,1,,,,,,,,,,,,,
55b2d3f2fdf99b525bc839aa,SCN,2024-06-25_12h23.32.736,LearnStrategy,2023.2.3,Win32,238.0952381,8,1,14,0.214583333,-0.4125,1,0,0,0.7684,Gabbro_08,4,08,1,6,0.768,-0.144444444,-0.402777778,1,0,0,1.1068,Pegmatite_rect,6,1.107,0,13,0,13,0,1,,,,,,,,,,,,,
55b2d3f2fdf99b525bc839aa,SCN,2024-06-25_12h23.32.736,LearnStrategy,2023.2.3,Win32,238.0952381,8,1,15,0.394444444,-0.264583333,1,0,0,0.7036,Pumice_13,8,13,2,7,0.704,0.441666667,-0.240972222,1,0,0,0.9926,Gabbro_rect,4,0.993,0,14,0,14,0,1,,,,,,,,,,,,,
55b2d3f2fdf99b525bc839aa,SCN,2024-06-25_12h23.32.736,LearnStrategy,2023.2.3,Win32,238.0952381,8,1,16,0.497916667,-0.384722222,1,0,0,0.6414,Pegmatite_12,6,12,1,8,0.641,0.390972222,-0.261805556,1,0,0,0.6982,Gabbro_rect,4,0.698,0,15,0,15,0,1,,,,,,,,,,,,,
55b2d3f2fdf99b525bc839aa,SCN,2024-06-25_12h23.32.736,LearnStrategy,2023.2.3,Win32,238.0952381,8,2,1,,,,,,,,1,04,,,,,,,,,,,3,21.92,0,,,,,,0.097222222,-0.260416667,1,0,0,21.9199,Diorite_rect,0,0,0,0,1,
55b2d3f2fdf99b525bc839aa,SCN,2024-06-25_12h23.32.736,LearnStrategy,2023.2.3,Win32,238.0952381,8,2,2,,,,,,,,4,10,,,,,,,,,,,1,1.397,0,,,,,,-0.352777778,-0.266666667,1,0,0,1.3972,Andesite_rect,1,0,1,0,1,
55b2d3f2fdf99b525bc839aa,SCN,2024-06-25_12h23.32.736,LearnStrategy,2023.2.3,Win32,238.0952381,8,2,3,,,,,,,,8,05,,,,,,,,,,,4,0.708,0,,,,,,0.348611111,-0.263194444,1,0,0,0.7076,Gabbro_rect,2,0,2,0,1,
55b2d3f2fdf99b525bc839aa,SCN,2024-06-25_12h23.32.736,LearnStrategy,2023.2.3,Win32,238.0952381,8,2,4,,,,,,,,4,15,,,,,,,,,,,7,1.266,0,,,,,,0.125,-0.401388889,1,0,0,1.266,Peridotite_rect,3,0,3,0,1,
55b2d3f2fdf99b525bc839aa,SCN,2024-06-25_12h23.32.736,LearnStrategy,2023.2.3,Win32,238.0952381,8,2,5,,,,,,,,3,14,,,,,,,,,,,6,0.854,0,,,,,,-0.147916667,-0.420138889,1,0,0,0.8538,Pegmatite_rect,4,0,4,0,1,
55b2d3f2fdf99b525bc839aa,SCN,2024-06-25_12h23.32.736,LearnStrategy,2023.2.3,Win32,238.0952381,8,2,6,,,,,,,,3,15,,,,,,,,,,,2,1.778,0,,,,,,-0.082638889,-0.244444444,1,0,0,1.778,Basalt_rect,5,0,5,0,1,
55b2d3f2fdf99b525bc839aa,SCN,2024-06-25_12h23.32.736,LearnStrategy,2023.2.3,Win32,238.0952381,8,2,7,,,,,,,,1,01,,,,,,,,,,,4,1.581,0,,,,,,0.327083333,-0.270138889,1,0,0,1.5813,Gabbro_rect,6,0,6,0,1,
55b2d3f2fdf99b525bc839aa,SCN,2024-06-25_12h23.32.736,LearnStrategy,2023.2.3,Win32,238.0952381,8,2,8,,,,,,,,7,12,,,,,,,,,,,7,2.745,1,,,,,,0.100694444,-0.398611111,1,0,0,2.7449,Peridotite_rect,7,0,7,0,1,
55b2d3f2fdf99b525bc839aa,SCN,2024-06-25_12h23.32.736,LearnStrategy,2023.2.3,Win32,238.0952381,8,2,9,,,,,,,,2,12,,,,,,,,,,,4,2.057,0,,,,,,0.359027778,-0.259027778,1,0,0,2.0566,Gabbro_rect,8,0,8,0,1,
55b2d3f2fdf99b525bc839aa,SCN,2024-06-25_12h23.32.736,LearnStrategy,2023.2.3,Win32,238.0952381,8,2,10,,,,,,,,8,04,,,,,,,,,,,8,0.848,1,,,,,,0.389583333,-0.404861111,1,0,0,0.8481,Pumice_rect,9,0,9,0,1,
55b2d3f2fdf99b525bc839aa,SCN,2024-06-25_12h23.32.736,LearnStrategy,2023.2.3,Win32,238.0952381,8,2,11,,,,,,,,7,16,,,,,,,,,,,6,2.453,0,,,,,,-0.094444444,-0.411111111,1,0,0,2.4526,Pegmatite_rect,10,0,10,0,1,
55b2d3f2fdf99b525bc839aa,SCN,2024-06-25_12h23.32.736,LearnStrategy,2023.2.3,Win32,238.0952381,8,2,12,,,,,,,,5,08,,,,,,,,,,,5,0.786,1,,,,,,-0.3625,-0.396527778,1,0,0,0.7856,Obsidian_rect,11,0,11,0,1,
55b2d3f2fdf99b525bc839aa,SCN,2024-06-25_12h23.32.736,LearnStrategy,2023.2.3,Win32,238.0952381,8,2,13,,,,,,,,5,05,,,,,,,,,,,5,0.701,1,,,,,,-0.351388889,-0.392361111,1,0,0,0.7013,Obsidian_rect,12,0,12,0,1,
55b2d3f2fdf99b525bc839aa,SCN,2024-06-25_12h23.32.736,LearnStrategy,2023.2.3,Win32,238.0952381,8,2,14,,,,,,,,2,09,,,,,,,,,,,4,1.634,0,,,,,,0.365972222,-0.263888889,1,0,0,1.6345,Gabbro_rect,13,0,13,0,1,
55b2d3f2fdf99b525bc839aa,SCN,2024-06-25_12h23.32.736,LearnStrategy,2023.2.3,Win32,238.0952381,8,2,15,,,,,,,,6,09,,,,,,,,,,,5,2.039,0,,,,,,-0.434722222,-0.414583333,1,0,0,2.0387,Obsidian_rect,14,0,14,0,1,
55b2d3f2fdf99b525bc839aa,SCN,2024-06-25_12h23.32.736,LearnStrategy,2023.2.3,Win32,238.0952381,8,2,16,,,,,,,,6,03,,,,,,,,,,,5,0.813,0,,,,,,-0.365972222,-0.413888889,1,0,0,0.8131,Obsidian_rect,15,0,15,0,1,
55b2d3f2fdf99b525bc839aa,SCN,2024-06-25_12h23.32.736,LearnStrategy,2023.2.3,Win32,238.0952381,9,1,1,0.072916667,0.078472222,1,0,0,0.4912,Basalt_04,2,04,4,5,0.491,0.373611111,-0.245833333,1,0,0,1.2304,Gabbro_rect,4,1.23,0,0,0,0,0,1,,,,,,,,,,,,,
55b2d3f2fdf99b525bc839aa,SCN,2024-06-25_12h23.32.736,LearnStrategy,2023.2.3,Win32,238.0952381,9,1,2,0.073611111,0.083333333,1,0,0,0.5035,Basalt_04,2,04,4,5,0.503,-0.088194444,-0.247916667,1,0,0,0.5416,Basalt_rect,2,0.542,1,1,0,1,0,1,,,,,,,,,,,,,
55b2d3f2fdf99b525bc839aa,SCN,2024-06-25_12h23.32.736,LearnStrategy,2023.2.3,Win32,238.0952381,9,1,3,0.244444444,0.079861111,1,0,0,0.3938,Pegmatite_06,6,06,4,6,0.394,-0.082638889,-0.242361111,1,0,0,0.8352,Basalt_rect,2,0.835,0,2,0,2,0,1,,,,,,,,,,,,,
55b2d3f2fdf99b525bc839aa,SCN,2024-06-25_12h23.32.736,LearnStrategy,2023.2.3,Win32,238.0952381,9,1,4,0.345833333,0.059027778,1,0,0,0.4702,Obsidian_10,5,10,4,7,0.47,-0.374305556,-0.390972222,1,0,0,1.3336,Obsidian_rect,5,1.334,1,3,0,3,0,1,,,,,,,,,,,,,
55b2d3f2fdf99b525bc839aa,SCN,2024-06-25_12h23.32.736,LearnStrategy,2023.2.3,Win32,238.0952381,9,1,5,-0.5375,-0.386111111,1,0,0,0.6994,Basalt_08,2,08,1,1,0.699,0.361805556,-0.404166667,1,0,0,0.669,Pumice_rect,8,0.669,0,4,0,4,0,1,,,,,,,,,,,,,
55b2d3f2fdf99b525bc839aa,SCN,2024-06-25_12h23.32.736,LearnStrategy,2023.2.3,Win32,238.0952381,9,1,6,-0.516666667,-0.442361111,1,0,0,0.6869,Basalt_08,2,08,1,1,0.687,-0.181944444,-0.245138889,1,0,0,0.5385,Basalt_rect,2,0.539,1,5,0,5,0,1,,,,,,,,,,,,,
55b2d3f2fdf99b525bc839aa,SCN,2024-06-25_12h23.32.736,LearnStrategy,2023.2.3,Win32,238.0952381,9,1,7,0.095138889,-0.070833333,1,0,0,0.3461,Basalt_16,2,16,3,5,0.346,0.135416667,-0.255555556,1,0,0,0.6831,Diorite_rect,3,0.683,0,6,0,6,0,1,,,,,,,,,,,,,
55b2d3f2fdf99b525bc839aa,SCN,2024-06-25_12h23.32.736,LearnStrategy,2023.2.3,Win32,238.0952381,9,1,8,-0.21875,-0.090972222,1,0,0,0.4202,Andesite_03,1,03,3,3,0.42,0.413888889,-0.270138889,1,0,0,0.6809,Gabbro_rect,4,0.681,0,7,0,7,0,1,,,,,,,,,,,,,
55b2d3f2fdf99b525bc839aa,SCN,2024-06-25_12h23.32.736,LearnStrategy,2023.2.3,Win32,238.0952381,9,1,9,-0.067361111,0.240972222,1,0,0,0.5501,Obsidian_11,5,11,5,4,0.55,-0.420833333,-0.384027778,1,0,0,0.6118,Obsidian_rect,5,0.612,1,8,0,8,0,1,,,,,,,,,,,,,
55b2d3f2fdf99b525bc839aa,SCN,2024-06-25_12h23.32.736,LearnStrategy,2023.2.3,Win32,238.0952381,9,1,10,-0.065277778,0.263194444,1,0,0,0.5579,Obsidian_11,5,11,5,4,0.558,-0.402777778,-0.420833333,1,0,0,0.5726,Obsidian_rect,5,0.573,1,9,0,9,0,1,,,,,,,,,,,,,
55b2d3f2fdf99b525bc839aa,SCN,2024-06-25_12h23.32.736,LearnStrategy,2023.2.3,Win32,238.0952381,9,1,11,0.254861111,0.401388889,1,0,0,0.6455,Obsidian_14,5,14,6,6,0.646,0.13125,-0.2625,1,0,0,0.8729,Diorite_rect,3,0.873,0,10,0,10,0,1,,,,,,,,,,,,,
55b2d3f2fdf99b525bc839aa,SCN,2024-06-25_12h23.32.736,LearnStrategy,2023.2.3,Win32,238.0952381,9,1,12,-0.084722222,0.252083333,1,0,0,0.593,Obsidian_11,5,11,5,4,0.593,-0.390277778,-0.413194444,1,0,0,0.7145,Obsidian_rect,5,0.715,1,11,0,11,0,1,,,,,,,,,,,,,
55b2d3f2fdf99b525bc839aa,SCN,2024-06-25_12h23.32.736,LearnStrategy,2023.2.3,Win32,238.0952381,9,1,13,0.407638889,-0.097916667,1,0,0,1.1369,Pumice_09,8,09,3,7,1.137,0.36875,-0.382638889,1,0,0,0.4675,Pumice_rect,8,0.467,1,12,0,12,0,1,,,,,,,,,,,,,
55b2d3f2fdf99b525bc839aa,SCN,2024-06-25_12h23.32.736,LearnStrategy,2023.2.3,Win32,238.0952381,9,1,14,0.053472222,-0.413888889,1,0,0,0.5952,Pumice_10,8,10,1,5,0.595,-0.058333333,-0.397916667,1,0,0,0.6694,Pegmatite_rect,6,0.669,0,13,0,13,0,1,,,,,,,,,,,,,
55b2d3f2fdf99b525bc839aa,SCN,2024-06-25_12h23.32.736,LearnStrategy,2023.2.3,Win32,238.0952381,9,1,15,0.380555556,-0.279861111,1,0,0,1.591,Pumice_13,8,13,2,7,1.591,0.159027778,-0.382638889,1,0,0,0.566,Peridotite_rect,7,0.566,0,14,0,14,0,1,,,,,,,,,,,,,
55b2d3f2fdf99b525bc839aa,SCN,2024-06-25_12h23.32.736,LearnStrategy,2023.2.3,Win32,238.0952381,9,1,16,-0.245833333,-0.402083333,1,0,0,1.6211,Basalt_10,2,10,1,3,1.621,-0.363888889,-0.267361111,1,0,0,9.7402,Andesite_rect,1,9.74,0,15,0,15,0,1,,,,,,,,,,,,,
55b2d3f2fdf99b525bc839aa,SCN,2024-06-25_12h23.32.736,LearnStrategy,2023.2.3,Win32,238.0952381,9,2,1,,,,,,,,1,02,,,,,,,,,,,8,3.098,0,,,,,,0.358333333,-0.39375,1,0,0,3.098,Pumice_rect,0,0,0,0,1,
55b2d3f2fdf99b525bc839aa,SCN,2024-06-25_12h23.32.736,LearnStrategy,2023.2.3,Win32,238.0952381,9,2,2,,,,,,,,8,15,,,,,,,,,,,3,5.478,0,,,,,,0.174305556,-0.271527778,1,0,0,5.4783,Diorite_rect,1,0,1,0,1,
55b2d3f2fdf99b525bc839aa,SCN,2024-06-25_12h23.32.736,LearnStrategy,2023.2.3,Win32,238.0952381,9,2,3,,,,,,,,5,06,,,,,,,,,,,5,0.779,1,,,,,,-0.35625,-0.394444444,1,0,0,0.7789,Obsidian_rect,2,0,2,0,1,
55b2d3f2fdf99b525bc839aa,SCN,2024-06-25_12h23.32.736,LearnStrategy,2023.2.3,Win32,238.0952381,9,2,4,,,,,,,,8,08,,,,,,,,,,,8,1.283,1,,,,,,0.389583333,-0.410416667,1,0,0,1.2832,Pumice_rect,3,0,3,0,1,
55b2d3f2fdf99b525bc839aa,SCN,2024-06-25_12h23.32.736,LearnStrategy,2023.2.3,Win32,238.0952381,9,2,5,,,,,,,,5,02,,,,,,,,,,,5,1.065,1,,,,,,-0.325,-0.381944444,1,0,0,1.065,Obsidian_rect,4,0,4,0,1,
55b2d3f2fdf99b525bc839aa,SCN,2024-06-25_12h23.32.736,LearnStrategy,2023.2.3,Win32,238.0952381,9,2,6,,,,,,,,2,05,,,,,,,,,,,2,1.611,1,,,,,,-0.050694444,-0.241666667,1,0,0,1.6114,Basalt_rect,5,0,5,0,1,
55b2d3f2fdf99b525bc839aa,SCN,2024-06-25_12h23.32.736,LearnStrategy,2023.2.3,Win32,238.0952381,9,2,7,,,,,,,,4,16,,,,,,,,,,,7,0.513,0,,,,,,0.120833333,-0.404166667,1,0,0,0.5133,Peridotite_rect,6,0,6,0,1,
55b2d3f2fdf99b525bc839aa,SCN,2024-06-25_12h23.32.736,LearnStrategy,2023.2.3,Win32,238.0952381,9,2,8,,,,,,,,7,05,,,,,,,,,,,6,0.528,0,,,,,,-0.111111111,-0.390972222,1,0,0,0.528,Pegmatite_rect,7,0,7,0,1,
55b2d3f2fdf99b525bc839aa,SCN,2024-06-25_12h23.32.736,LearnStrategy,2023.2.3,Win32,238.0952381,9,2,9,,,,,,,,3,10,,,,,,,,,,,4,0.54,0,,,,,,0.404166667,-0.261111111,1,0,0,0.5401,Gabbro_rect,8,0,8,0,1,
55b2d3f2fdf99b525bc839aa,SCN,2024-06-25_12h23.32.736,LearnStrategy,2023.2.3,Win32,238.0952381,9,2,10,,,,,,,,3,06,,,,,,,,,,,7,0.903,0,,,,,,0.159027778,-0.397916667,1,0,0,0.9027,Peridotite_rect,9,0,9,0,1,
55b2d3f2fdf99b525bc839aa,SCN,2024-06-25_12h23.32.736,LearnStrategy,2023.2.3,Win32,238.0952381,9,2,11,,,,,,,,7,06,,,,,,,,,,,3,0.793,0,,,,,,0.118055556,-0.245138889,1,0,0,0.7928,Diorite_rect,10,0,10,0,1,
55b2d3f2fdf99b525bc839aa,SCN,2024-06-25_12h23.32.736,LearnStrategy,2023.2.3,Win32,238.0952381,9,2,12,,,,,,,,6,05,,,,,,,,,,,4,1.024,0,,,,,,0.342361111,-0.258333333,1,0,0,1.0239,Gabbro_rect,11,0,11,0,1,
55b2d3f2fdf99b525bc839aa,SCN,2024-06-25_12h23.32.736,LearnStrategy,2023.2.3,Win32,238.0952381,9,2,13,,,,,,,,1,10,,,,,,,,,,,7,0.909,0,,,,,,0.178472222,-0.401388889,1,0,0,0.9091,Peridotite_rect,12,0,12,0,1,
55b2d3f2fdf99b525bc839aa,SCN,2024-06-25_12h23.32.736,LearnStrategy,2023.2.3,Win32,238.0952381,9,2,14,,,,,,,,2,01,,,,,,,,,,,6,0.35,0,,,,,,-0.125,-0.396527778,1,0,0,0.3503,Pegmatite_rect,13,0,13,0,1,
55b2d3f2fdf99b525bc839aa,SCN,2024-06-25_12h23.32.736,LearnStrategy,2023.2.3,Win32,238.0952381,9,2,15,,,,,,,,6,13,,,,,,,,,,,5,1.207,0,,,,,,-0.357638889,-0.388888889,1,0,0,1.2072,Obsidian_rect,14,0,14,0,1,
55b2d3f2fdf99b525bc839aa,SCN,2024-06-25_12h23.32.736,LearnStrategy,2023.2.3,Win32,238.0952381,9,2,16,,,,,,,,4,01,,,,,,,,,,,2,0.788,0,,,,,,-0.125,-0.265277778,1,0,0,0.7878,Basalt_rect,15,0,15,0,1,
55b2d3f2fdf99b525bc839aa,SCN,2024-06-25_12h23.32.736,LearnStrategy,2023.2.3,Win32,238.0952381,,,,,,,,,,,,,,,,,,,,,,,,,,,,,,,,,,,,,,,,,,,0
55b2d3f2fdf99b525bc839aa,SCN,2024-06-25_12h23.32.736,LearnStrategy,2023.2.3,Win32,238.0952381,,,,,,,,,,,,,,,,,,,,,,,,,,,,,,,,,,,,,,,,,,,
55b2d3f2fdf99b525bc839aa,SCN,2024-06-25_12h23.32.736,LearnStrategy,2023.2.3,Win32,238.0952381,,,,,,,,,,,2,08,1,1,,,,,,,,,,,,,,,,,,,,,,,,,,,,,
55b2d3f2fdf99b525bc839aa,SCN,2024-06-25_12h23.32.736,LearnStrategy,2023.2.3,Win32,238.0952381,,,,,,,,,,,7,08,1,2,,,,,,,,,,,,,,,,,,,,,,,,,,,,,
55b2d3f2fdf99b525bc839aa,SCN,2024-06-25_12h23.32.736,LearnStrategy,2023.2.3,Win32,238.0952381,,,,,,,,,,,2,10,1,3,,,,,,,,,,,,,,,,,,,,,,,,,,,,,
55b2d3f2fdf99b525bc839aa,SCN,2024-06-25_12h23.32.736,LearnStrategy,2023.2.3,Win32,238.0952381,,,,,,,,,,,4,13,1,4,,,,,,,,,,,,,,,,,,,,,,,,,,,,,
55b2d3f2fdf99b525bc839aa,SCN,2024-06-25_12h23.32.736,LearnStrategy,2023.2.3,Win32,238.0952381,,,,,,,,,,,8,10,1,5,,,,,,,,,,,,,,,,,,,,,,,,,,,,,
55b2d3f2fdf99b525bc839aa,SCN,2024-06-25_12h23.32.736,LearnStrategy,2023.2.3,Win32,238.0952381,,,,,,,,,,,4,08,1,6,,,,,,,,,,,,,,,,,,,,,,,,,,,,,
55b2d3f2fdf99b525bc839aa,SCN,2024-06-25_12h23.32.736,LearnStrategy,2023.2.3,Win32,238.0952381,,,,,,,,,,,3,11,1,7,,,,,,,,,,,,,,,,,,,,,,,,,,,,,
55b2d3f2fdf99b525bc839aa,SCN,2024-06-25_12h23.32.736,LearnStrategy,2023.2.3,Win32,238.0952381,,,,,,,,,,,6,12,1,8,,,,,,,,,,,,,,,,,,,,,,,,,,,,,
55b2d3f2fdf99b525bc839aa,SCN,2024-06-25_12h23.32.736,LearnStrategy,2023.2.3,Win32,238.0952381,,,,,,,,,,,6,10,2,1,,,,,,,,,,,,,,,,,,,,,,,,,,,,,
55b2d3f2fdf99b525bc839aa,SCN,2024-06-25_12h23.32.736,LearnStrategy,2023.2.3,Win32,238.0952381,,,,,,,,,,,3,13,2,2,,,,,,,,,,,,,,,,,,,,,,,,,,,,,
55b2d3f2fdf99b525bc839aa,SCN,2024-06-25_12h23.32.736,LearnStrategy,2023.2.3,Win32,238.0952381,,,,,,,,,,,8,14,2,3,,,,,,,,,,,,,,,,,,,,,,,,,,,,,
55b2d3f2fdf99b525bc839aa,SCN,2024-06-25_12h23.32.736,LearnStrategy,2023.2.3,Win32,238.0952381,,,,,,,,,,,7,14,2,4,,,,,,,,,,,,,,,,,,,,,,,,,,,,,
55b2d3f2fdf99b525bc839aa,SCN,2024-06-25_12h23.32.736,LearnStrategy,2023.2.3,Win32,238.0952381,,,,,,,,,,,4,12,2,5,,,,,,,,,,,,,,,,,,,,,,,,,,,,,
55b2d3f2fdf99b525bc839aa,SCN,2024-06-25_12h23.32.736,LearnStrategy,2023.2.3,Win32,238.0952381,,,,,,,,,,,8,02,2,6,,,,,,,,,,,,,,,,,,,,,,,,,,,,,
55b2d3f2fdf99b525bc839aa,SCN,2024-06-25_12h23.32.736,LearnStrategy,2023.2.3,Win32,238.0952381,,,,,,,,,,,8,13,2,7,,,,,,,,,,,,,,,,,,,,,,,,,,,,,
55b2d3f2fdf99b525bc839aa,SCN,2024-06-25_12h23.32.736,LearnStrategy,2023.2.3,Win32,238.0952381,,,,,,,,,,,3,09,2,8,,,,,,,,,,,,,,,,,,,,,,,,,,,,,
55b2d3f2fdf99b525bc839aa,SCN,2024-06-25_12h23.32.736,LearnStrategy,2023.2.3,Win32,238.0952381,,,,,,,,,,,6,08,3,1,,,,,,,,,,,,,,,,,,,,,,,,,,,,,
55b2d3f2fdf99b525bc839aa,SCN,2024-06-25_12h23.32.736,LearnStrategy,2023.2.3,Win32,238.0952381,,,,,,,,,,,7,07,3,2,,,,,,,,,,,,,,,,,,,,,,,,,,,,,
55b2d3f2fdf99b525bc839aa,SCN,2024-06-25_12h23.32.736,LearnStrategy,2023.2.3,Win32,238.0952381,,,,,,,,,,,1,03,3,3,,,,,,,,,,,,,,,,,,,,,,,,,,,,,
55b2d3f2fdf99b525bc839aa,SCN,2024-06-25_12h23.32.736,LearnStrategy,2023.2.3,Win32,238.0952381,,,,,,,,,,,1,11,3,4,,,,,,,,,,,,,,,,,,,,,,,,,,,,,
55b2d3f2fdf99b525bc839aa,SCN,2024-06-25_12h23.32.736,LearnStrategy,2023.2.3,Win32,238.0952381,,,,,,,,,,,2,16,3,5,,,,,,,,,,,,,,,,,,,,,,,,,,,,,
55b2d3f2fdf99b525bc839aa,SCN,2024-06-25_12h23.32.736,LearnStrategy,2023.2.3,Win32,238.0952381,,,,,,,,,,,4,11,3,6,,,,,,,,,,,,,,,,,,,,,,,,,,,,,
55b2d3f2fdf99b525bc839aa,SCN,2024-06-25_12h23.32.736,LearnStrategy,2023.2.3,Win32,238.0952381,,,,,,,,,,,8,09,3,7,,,,,,,,,,,,,,,,,,,,,,,,,,,,,
55b2d3f2fdf99b525bc839aa,SCN,2024-06-25_12h23.32.736,LearnStrategy,2023.2.3,Win32,238.0952381,,,,,,,,,,,7,04,3,8,,,,,,,,,,,,,,,,,,,,,,,,,,,,,
55b2d3f2fdf99b525bc839aa,SCN,2024-06-25_12h23.32.736,LearnStrategy,2023.2.3,Win32,238.0952381,,,,,,,,,,,1,09,4,1,,,,,,,,,,,,,,,,,,,,,,,,,,,,,
55b2d3f2fdf99b525bc839aa,SCN,2024-06-25_12h23.32.736,LearnStrategy,2023.2.3,Win32,238.0952381,,,,,,,,,,,1,07,4,2,,,,,,,,,,,,,,,,,,,,,,,,,,,,,
55b2d3f2fdf99b525bc839aa,SCN,2024-06-25_12h23.32.736,LearnStrategy,2023.2.3,Win32,238.0952381,,,,,,,,,,,6,15,4,3,,,,,,,,,,,,,,,,,,,,,,,,,,,,,
55b2d3f2fdf99b525bc839aa,SCN,2024-06-25_12h23.32.736,LearnStrategy,2023.2.3,Win32,238.0952381,,,,,,,,,,,1,16,4,4,,,,,,,,,,,,,,,,,,,,,,,,,,,,,
55b2d3f2fdf99b525bc839aa,SCN,2024-06-25_12h23.32.736,LearnStrategy,2023.2.3,Win32,238.0952381,,,,,,,,,,,2,04,4,5,,,,,,,,,,,,,,,,,,,,,,,,,,,,,
55b2d3f2fdf99b525bc839aa,SCN,2024-06-25_12h23.32.736,LearnStrategy,2023.2.3,Win32,238.0952381,,,,,,,,,,,6,06,4,6,,,,,,,,,,,,,,,,,,,,,,,,,,,,,
55b2d3f2fdf99b525bc839aa,SCN,2024-06-25_12h23.32.736,LearnStrategy,2023.2.3,Win32,238.0952381,,,,,,,,,,,5,10,4,7,,,,,,,,,,,,,,,,,,,,,,,,,,,,,
55b2d3f2fdf99b525bc839aa,SCN,2024-06-25_12h23.32.736,LearnStrategy,2023.2.3,Win32,238.0952381,,,,,,,,,,,3,02,4,8,,,,,,,,,,,,,,,,,,,,,,,,,,,,,
55b2d3f2fdf99b525bc839aa,SCN,2024-06-25_12h23.32.736,LearnStrategy,2023.2.3,Win32,238.0952381,,,,,,,,,,,5,16,5,1,,,,,,,,,,,,,,,,,,,,,,,,,,,,,
55b2d3f2fdf99b525bc839aa,SCN,2024-06-25_12h23.32.736,LearnStrategy,2023.2.3,Win32,238.0952381,,,,,,,,,,,7,10,5,2,,,,,,,,,,,,,,,,,,,,,,,,,,,,,
55b2d3f2fdf99b525bc839aa,SCN,2024-06-25_12h23.32.736,LearnStrategy,2023.2.3,Win32,238.0952381,,,,,,,,,,,1,06,5,3,,,,,,,,,,,,,,,,,,,,,,,,,,,,,
55b2d3f2fdf99b525bc839aa,SCN,2024-06-25_12h23.32.736,LearnStrategy,2023.2.3,Win32,238.0952381,,,,,,,,,,,5,11,5,4,,,,,,,,,,,,,,,,,,,,,,,,,,,,,
55b2d3f2fdf99b525bc839aa,SCN,2024-06-25_12h23.32.736,LearnStrategy,2023.2.3,Win32,238.0952381,,,,,,,,,,,3,12,5,5,,,,,,,,,,,,,,,,,,,,,,,,,,,,,
55b2d3f2fdf99b525bc839aa,SCN,2024-06-25_12h23.32.736,LearnStrategy,2023.2.3,Win32,238.0952381,,,,,,,,,,,2,02,5,6,,,,,,,,,,,,,,,,,,,,,,,,,,,,,
55b2d3f2fdf99b525bc839aa,SCN,2024-06-25_12h23.32.736,LearnStrategy,2023.2.3,Win32,238.0952381,,,,,,,,,,,3,16,5,7,,,,,,,,,,,,,,,,,,,,,,,,,,,,,
55b2d3f2fdf99b525bc839aa,SCN,2024-06-25_12h23.32.736,LearnStrategy,2023.2.3,Win32,238.0952381,,,,,,,,,,,8,03,5,8,,,,,,,,,,,,,,,,,,,,,,,,,,,,,
55b2d3f2fdf99b525bc839aa,SCN,2024-06-25_12h23.32.736,LearnStrategy,2023.2.3,Win32,238.0952381,,,,,,,,,,,4,05,6,1,,,,,,,,,,,,,,,,,,,,,,,,,,,,,
55b2d3f2fdf99b525bc839aa,SCN,2024-06-25_12h23.32.736,LearnStrategy,2023.2.3,Win32,238.0952381,,,,,,,,,,,5,07,6,2,,,,,,,,,,,,,,,,,,,,,,,,,,,,,
55b2d3f2fdf99b525bc839aa,SCN,2024-06-25_12h23.32.736,LearnStrategy,2023.2.3,Win32,238.0952381,,,,,,,,,,,2,06,6,3,,,,,,,,,,,,,,,,,,,,,,,,,,,,,
55b2d3f2fdf99b525bc839aa,SCN,2024-06-25_12h23.32.736,LearnStrategy,2023.2.3,Win32,238.0952381,,,,,,,,,,,5,09,6,4,,,,,,,,,,,,,,,,,,,,,,,,,,,,,
55b2d3f2fdf99b525bc839aa,SCN,2024-06-25_12h23.32.736,LearnStrategy,2023.2.3,Win32,238.0952381,,,,,,,,,,,6,16,6,5,,,,,,,,,,,,,,,,,,,,,,,,,,,,,
55b2d3f2fdf99b525bc839aa,SCN,2024-06-25_12h23.32.736,LearnStrategy,2023.2.3,Win32,238.0952381,,,,,,,,,,,5,14,6,6,,,,,,,,,,,,,,,,,,,,,,,,,,,,,
55b2d3f2fdf99b525bc839aa,SCN,2024-06-25_12h23.32.736,LearnStrategy,2023.2.3,Win32,238.0952381,,,,,,,,,,,4,14,6,7,,,,,,,,,,,,,,,,,,,,,,,,,,,,,
55b2d3f2fdf99b525bc839aa,SCN,2024-06-25_12h23.32.736,LearnStrategy,2023.2.3,Win32,238.0952381,,,,,,,,,,,7,02,6,8,,,,,,,,,,,,,,,,,,,,,,,,,,,,,