participant,condition,date,expName,psychopyVersion,OS,frameRate,block,phase,trial,learn_mouse.x,learn_mouse.y,learn_mouse.leftButton,learn_mouse.midButton,learn_mouse.rightButton,learn_mouse.time,learn_mouse.clicked_name,cat,token,row,col,t_select,cat_mouse_l.x,cat_mouse_l.y,cat_mouse_l.leftButton,cat_mouse_l.midButton,cat_mouse_l.rightButton,cat_mouse_l.time,cat_mouse_l.clicked_name,resp,t_resp,corr,train_trials.thisRepN,train_trials.thisTrialN,train_trials.thisN,train_trials.thisIndex,train_trials.ran,cat_mouse_t.x,cat_mouse_t.y,cat_mouse_t.leftButton,cat_mouse_t.midButton,cat_mouse_t.rightButton,cat_mouse_t.time,cat_mouse_t.clicked_name,test_trials.thisRepN,test_trials.thisTrialN,test_trials.thisN,test_trials.thisIndex,test_trials.ran,Bonus
5658000ca9872d0011e1ba26,SCN,2024-06-20_16h28.46.625,LearnStrategy,2023.2.3,Win32,163.9344262,,,,,,,,,,,,,,,,,,,,,,,,,,,,,,,,,,,,,,,,,,,
5658000ca9872d0011e1ba26,SCN,2024-06-20_16h28.46.625,LearnStrategy,2023.2.3,Win32,163.9344262,1,1,1,0.090740797,0.392129623,1,0,0,2.8833,Obsidian_06,5,06,6,5,2.883,-0.374074046,-0.406018575,1,0,0,4.2646,Obsidian_rect,5,4.265,1,0,0,0,0,1,,,,,,,,,,,,,
5658000ca9872d0011e1ba26,SCN,2024-06-20_16h28.46.625,LearnStrategy,2023.2.3,Win32,163.9344262,1,1,2,-0.387037023,0.114814801,1,0,0,3.6769,Pumice_05,8,05,4,2,3.677,0.389351908,-0.403240797,1,0,0,2.6389,Pumice_rect,8,2.639,1,1,0,1,0,1,,,,,,,,,,,,,
5658000ca9872d0011e1ba26,SCN,2024-06-20_16h28.46.625,LearnStrategy,2023.2.3,Win32,163.9344262,1,1,3,0.388888889,0.226388889,1,0,0,7.2427,Peridotite_02,7,02,5,7,7.243,0.131944444,-0.385185242,1,0,0,5.3677,Peridotite_rect,7,5.368,1,2,0,2,0,1,,,,,,,,,,,,,
5658000ca9872d0011e1ba26,SCN,2024-06-20_16h28.46.625,LearnStrategy,2023.2.3,Win32,163.9344262,1,1,4,0.078703732,-0.122222222,1,0,0,1.2114,Peridotite_15,7,15,3,5,1.211,0.107870399,-0.391203732,1,0,0,1.4514,Peridotite_rect,7,1.451,1,3,0,3,0,1,,,,,,,,,,,,,
5658000ca9872d0011e1ba26,SCN,2024-06-20_16h28.46.625,LearnStrategy,2023.2.3,Win32,163.9344262,1,1,5,-0.56620369,-0.418055556,1,0,0,4.8788,Pumice_16,8,16,1,1,4.879,0.413425954,-0.410648176,1,0,0,6.1851,Pumice_rect,8,6.185,1,4,0,4,0,1,,,,,,,,,,,,,
5658000ca9872d0011e1ba26,SCN,2024-06-20_16h28.46.625,LearnStrategy,2023.2.3,Win32,163.9344262,1,1,6,-0.053240712,-0.409259288,1,0,0,4.4043,Basalt_09,2,09,1,4,4.404,-0.071759203,-0.230555556,1,0,0,1.4695,Basalt_rect,2,1.47,1,5,0,5,0,1,,,,,,,,,,,,,
5658000ca9872d0011e1ba26,SCN,2024-06-20_16h28.46.625,LearnStrategy,2023.2.3,Win32,163.9344262,1,1,7,-0.109722222,0.283796289,1,0,0,3.8905,Gabbro_11,4,11,5,4,3.891,-0.095370314,-0.249074131,1,0,0,3.7768,Basalt_rect,2,3.777,0,6,0,6,0,1,,,,,,,,,,,,,
5658000ca9872d0011e1ba26,SCN,2024-06-20_16h28.46.625,LearnStrategy,2023.2.3,Win32,163.9344262,1,1,8,-0.532407379,0.3949074,1,0,0,4.8463,Pegmatite_03,6,03,6,1,4.846,0.176851908,-0.392129686,1,0,0,4.5002,Peridotite_rect,7,4.5,0,7,0,7,0,1,,,,,,,,,,,,,
5658000ca9872d0011e1ba26,SCN,2024-06-20_16h28.46.625,LearnStrategy,2023.2.3,Win32,163.9344262,1,1,9,0.530555556,0.270833333,1,0,0,3.7243,Basalt_10,2,10,5,8,3.724,0.093518575,-0.250925954,1,0,0,4.9122,Diorite_rect,3,4.912,0,8,0,8,0,1,,,,,,,,,,,,,
5658000ca9872d0011e1ba26,SCN,2024-06-20_16h28.46.625,LearnStrategy,2023.2.3,Win32,163.9344262,1,1,10,0.552314928,-0.106944444,1,0,0,23.112,Pegmatite_13,6,13,3,8,23.112,-0.115740712,-0.396759288,1,0,0,20.8411,Pegmatite_rect,6,20.841,1,9,0,9,0,1,,,,,,,,,,,,,
5658000ca9872d0011e1ba26,SCN,2024-06-20_16h28.46.625,LearnStrategy,2023.2.3,Win32,163.9344262,1,1,11,0.082407464,-0.251388889,1,0,0,7.9209,Diorite_11,3,11,2,5,7.921,0.105555556,-0.26898151,1,0,0,2.5774,Diorite_rect,3,2.577,1,10,0,10,0,1,,,,,,,,,,,,,
5658000ca9872d0011e1ba26,SCN,2024-06-20_16h28.46.625,LearnStrategy,2023.2.3,Win32,163.9344262,1,1,12,0.394907464,-0.297222222,1,0,0,1.9887,Diorite_10,3,10,2,7,1.989,0.179629686,-0.240740797,1,0,0,1.204,Diorite_rect,3,1.204,1,11,0,11,0,1,,,,,,,,,,,,,
5658000ca9872d0011e1ba26,SCN,2024-06-20_16h28.46.625,LearnStrategy,2023.2.3,Win32,163.9344262,1,1,13,-0.063425869,-0.261111111,1,0,0,2.6243,Pegmatite_10,6,10,2,4,2.624,0.098611111,-0.400925954,1,0,0,4.2538,Peridotite_rect,7,4.254,0,12,0,12,0,1,,,,,,,,,,,,,
5658000ca9872d0011e1ba26,SCN,2024-06-20_16h28.46.625,LearnStrategy,2023.2.3,Win32,163.9344262,1,1,14,-0.403240712,-0.393055556,1,0,0,5.9969,Obsidian_05,5,05,1,2,5.997,-0.389814801,-0.401851908,1,0,0,4.148,Obsidian_rect,5,4.148,1,13,0,13,0,1,,,,,,,,,,,,,
5658000ca9872d0011e1ba26,SCN,2024-06-20_16h28.46.625,LearnStrategy,2023.2.3,Win32,163.9344262,1,1,15,-0.378240712,-0.081018533,1,0,0,9.0967,Diorite_14,3,14,3,2,9.097,0.443518575,-0.246296353,1,0,0,2.0529,Gabbro_rect,4,2.053,0,14,0,14,0,1,,,,,,,,,,,,,
5658000ca9872d0011e1ba26,SCN,2024-06-20_16h28.46.625,LearnStrategy,2023.2.3,Win32,163.9344262,1,1,16,0.077314843,0.251851845,1,0,0,4.0393,Gabbro_03,4,03,5,5,4.039,0.099537065,-0.251851908,1,0,0,2.8105,Diorite_rect,3,2.81,0,15,0,15,0,1,,,,,,,,,,,,,
5658000ca9872d0011e1ba26,SCN,2024-06-20_16h28.46.625,LearnStrategy,2023.2.3,Win32,163.9344262,1,2,1,,,,,,,,3,16,,,,,,,,,,,3,5.386,1,,,,,,0.113888889,-0.231944444,1,0,0,5.3856,Diorite_rect,0,0,0,0,1,
5658000ca9872d0011e1ba26,SCN,2024-06-20_16h28.46.625,LearnStrategy,2023.2.3,Win32,163.9344262,1,2,2,,,,,,,,8,06,,,,,,,,,,,8,2.772,1,,,,,,0.39398151,-0.41898151,1,0,0,2.7715,Pumice_rect,1,0,1,0,1,
5658000ca9872d0011e1ba26,SCN,2024-06-20_16h28.46.625,LearnStrategy,2023.2.3,Win32,163.9344262,1,2,3,,,,,,,,5,16,,,,,,,,,,,5,2.057,1,,,,,,-0.409722222,-0.395370399,1,0,0,2.0566,Obsidian_rect,2,0,2,0,1,
5658000ca9872d0011e1ba26,SCN,2024-06-20_16h28.46.625,LearnStrategy,2023.2.3,Win32,163.9344262,1,2,4,,,,,,,,1,11,,,,,,,,,,,4,8.566,0,,,,,,0.421296353,-0.241666667,1,0,0,8.5664,Gabbro_rect,3,0,3,0,1,
5658000ca9872d0011e1ba26,SCN,2024-06-20_16h28.46.625,LearnStrategy,2023.2.3,Win32,163.9344262,1,2,5,,,,,,,,7,10,,,,,,,,,,,7,6.122,1,,,,,,0.123611111,-0.394907464,1,0,0,6.1217,Peridotite_rect,4,0,4,0,1,
5658000ca9872d0011e1ba26,SCN,2024-06-20_16h28.46.625,LearnStrategy,2023.2.3,Win32,163.9344262,1,2,6,,,,,,,,8,02,,,,,,,,,,,8,3.095,1,,,,,,0.438888889,-0.391666667,1,0,0,3.0952,Pumice_rect,5,0,5,0,1,
5658000ca9872d0011e1ba26,SCN,2024-06-20_16h28.46.625,LearnStrategy,2023.2.3,Win32,163.9344262,1,2,7,,,,,,,,4,12,,,,,,,,,,,2,1.98,0,,,,,,-0.113425869,-0.261574131,1,0,0,1.9802,Basalt_rect,6,0,6,0,1,
5658000ca9872d0011e1ba26,SCN,2024-06-20_16h28.46.625,LearnStrategy,2023.2.3,Win32,163.9344262,1,2,8,,,,,,,,6,11,,,,,,,,,,,1,11.416,0,,,,,,-0.387037023,-0.25648151,1,0,0,11.4157,Andesite_rect,7,0,7,0,1,
5658000ca9872d0011e1ba26,SCN,2024-06-20_16h28.46.625,LearnStrategy,2023.2.3,Win32,163.9344262,1,2,9,,,,,,,,5,12,,,,,,,,,,,5,1.39,1,,,,,,-0.377314801,-0.415277778,1,0,0,1.3904,Obsidian_rect,8,0,8,0,1,
5658000ca9872d0011e1ba26,SCN,2024-06-20_16h28.46.625,LearnStrategy,2023.2.3,Win32,163.9344262,1,2,10,,,,,,,,1,09,,,,,,,,,,,2,3.26,0,,,,,,-0.068981425,-0.2375,1,0,0,3.2604,Basalt_rect,9,0,9,0,1,
5658000ca9872d0011e1ba26,SCN,2024-06-20_16h28.46.625,LearnStrategy,2023.2.3,Win32,163.9344262,1,2,11,,,,,,,,2,14,,,,,,,,,,,8,2.239,0,,,,,,0.344444444,-0.386111111,1,0,0,2.2389,Pumice_rect,10,0,10,0,1,
5658000ca9872d0011e1ba26,SCN,2024-06-20_16h28.46.625,LearnStrategy,2023.2.3,Win32,163.9344262,1,2,12,,,,,,,,7,07,,,,,,,,,,,7,6.001,1,,,,,,0.194907464,-0.408333333,1,0,0,6.0008,Peridotite_rect,11,0,11,0,1,
5658000ca9872d0011e1ba26,SCN,2024-06-20_16h28.46.625,LearnStrategy,2023.2.3,Win32,163.9344262,1,2,13,,,,,,,,2,04,,,,,,,,,,,2,2.589,1,,,,,,-0.124536981,-0.248148176,1,0,0,2.5891,Basalt_rect,12,0,12,0,1,
5658000ca9872d0011e1ba26,SCN,2024-06-20_16h28.46.625,LearnStrategy,2023.2.3,Win32,163.9344262,1,2,14,,,,,,,,6,06,,,,,,,,,,,6,4.131,1,,,,,,-0.071759203,-0.380555556,1,0,0,4.131,Pegmatite_rect,13,0,13,0,1,
5658000ca9872d0011e1ba26,SCN,2024-06-20_16h28.46.625,LearnStrategy,2023.2.3,Win32,163.9344262,1,2,15,,,,,,,,4,08,,,,,,,,,,,3,5.833,0,,,,,,0.192592621,-0.238425954,1,0,0,5.8332,Diorite_rect,14,0,14,0,1,
5658000ca9872d0011e1ba26,SCN,2024-06-20_16h28.46.625,LearnStrategy,2023.2.3,Win32,163.9344262,1,2,16,,,,,,,,3,09,,,,,,,,,,,4,5.293,0,,,,,,0.366203732,-0.251851908,1,0,0,5.2927,Gabbro_rect,15,0,15,0,1,
5658000ca9872d0011e1ba26,SCN,2024-06-20_16h28.46.625,LearnStrategy,2023.2.3,Win32,163.9344262,2,1,1,-0.20370369,-0.399537065,1,0,0,3.9788,Andesite_05,1,05,1,3,3.979,0.110648176,-0.258796353,1,0,0,2.6464,Diorite_rect,3,2.646,0,0,0,0,0,1,,,,,,,,,,,,,
5658000ca9872d0011e1ba26,SCN,2024-06-20_16h28.46.625,LearnStrategy,2023.2.3,Win32,163.9344262,2,1,2,0.232407464,-0.402314843,1,0,0,1.5536,Diorite_02,3,02,1,6,1.554,-0.323148134,-0.247222222,1,0,0,1.48,Andesite_rect,1,1.48,0,1,0,1,0,1,,,,,,,,,,,,,
5658000ca9872d0011e1ba26,SCN,2024-06-20_16h28.46.625,LearnStrategy,2023.2.3,Win32,163.9344262,2,1,3,-0.391666667,0.097685157,1,0,0,24.5289,Pumice_05,8,05,4,2,24.529,0.372685242,-0.411574131,1,0,0,2.244,Pumice_rect,8,2.244,1,2,0,2,0,1,,,,,,,,,,,,,
5658000ca9872d0011e1ba26,SCN,2024-06-20_16h28.46.625,LearnStrategy,2023.2.3,Win32,163.9344262,2,1,4,-0.240277778,-0.392129686,1,0,0,1.3813,Andesite_05,1,05,1,3,1.381,-0.357870356,-0.248611111,1,0,0,1.2882,Andesite_rect,1,1.288,1,3,0,3,0,1,,,,,,,,,,,,,
5658000ca9872d0011e1ba26,SCN,2024-06-20_16h28.46.625,LearnStrategy,2023.2.3,Win32,163.9344262,2,1,5,0.379166667,-0.265740797,1,0,0,4.3154,Diorite_10,3,10,2,7,4.315,-0.375925912,-0.232870399,1,0,0,1.6942,Andesite_rect,1,1.694,0,4,0,4,0,1,,,,,,,,,,,,,
5658000ca9872d0011e1ba26,SCN,2024-06-20_16h28.46.625,LearnStrategy,2023.2.3,Win32,163.9344262,2,1,6,0.583333333,0.128240712,1,0,0,3.895,Diorite_15,3,15,4,8,3.895,0.330092621,-0.258333333,1,0,0,4.344,Gabbro_rect,4,4.344,0,5,0,5,0,1,,,,,,,,,,,,,
5658000ca9872d0011e1ba26,SCN,2024-06-20_16h28.46.625,LearnStrategy,2023.2.3,Win32,163.9344262,2,1,7,-0.408796268,-0.087962977,1,0,0,1.7169,Diorite_14,3,14,3,2,1.717,0.165277778,-0.249537065,1,0,0,3.1489,Diorite_rect,3,3.149,1,6,0,6,0,1,,,,,,,,,,,,,
5658000ca9872d0011e1ba26,SCN,2024-06-20_16h28.46.625,LearnStrategy,2023.2.3,Win32,163.9344262,2,1,8,0.552777778,0.281481467,1,0,0,3.4123,Basalt_10,2,10,5,8,3.412,-0.151388889,-0.248611111,1,0,0,1.0933,Basalt_rect,2,1.093,1,7,0,7,0,1,,,,,,,,,,,,,
5658000ca9872d0011e1ba26,SCN,2024-06-20_16h28.46.625,LearnStrategy,2023.2.3,Win32,163.9344262,2,1,9,-0.520833333,0.105555556,1,0,0,7.1482,Peridotite_16,7,16,4,1,7.148,0.091666667,-0.397222222,1,0,0,2.4579,Peridotite_rect,7,2.458,1,8,0,8,0,1,,,,,,,,,,,,,
5658000ca9872d0011e1ba26,SCN,2024-06-20_16h28.46.625,LearnStrategy,2023.2.3,Win32,163.9344262,2,1,10,0.085185242,-0.261574131,1,0,0,9.4045,Diorite_11,3,11,2,5,9.404,0.134259288,-0.260648176,1,0,0,1.2651,Diorite_rect,3,1.265,1,9,0,9,0,1,,,,,,,,,,,,,
5658000ca9872d0011e1ba26,SCN,2024-06-20_16h28.46.625,LearnStrategy,2023.2.3,Win32,163.9344262,2,1,11,-0.227314801,-0.404166667,1,0,0,2.5609,Andesite_05,1,05,1,3,2.561,-0.391666667,-0.240740797,1,0,0,0.9165,Andesite_rect,1,0.917,1,10,0,10,0,1,,,,,,,,,,,,,
5658000ca9872d0011e1ba26,SCN,2024-06-20_16h28.46.625,LearnStrategy,2023.2.3,Win32,163.9344262,2,1,12,0.246296353,-0.396759288,1,0,0,2.3774,Diorite_02,3,02,1,6,2.377,0.131944444,-0.234259288,1,0,0,1.2242,Diorite_rect,3,1.224,1,11,0,11,0,1,,,,,,,,,,,,,
5658000ca9872d0011e1ba26,SCN,2024-06-20_16h28.46.625,LearnStrategy,2023.2.3,Win32,163.9344262,2,1,13,0.031018575,0.240277778,1,0,0,31.5551,Gabbro_03,4,03,5,5,31.555,0.139351908,-0.231018575,1,0,0,0.9528,Diorite_rect,3,0.953,0,12,0,12,0,1,,,,,,,,,,,,,
5658000ca9872d0011e1ba26,SCN,2024-06-20_16h28.46.625,LearnStrategy,2023.2.3,Win32,163.9344262,2,1,14,-0.38101849,0.228240734,1,0,0,2.9988,Gabbro_10,4,10,5,2,2.999,0.199074131,-0.257407464,1,0,0,4.244,Diorite_rect,3,4.244,0,13,0,13,0,1,,,,,,,,,,,,,
5658000ca9872d0011e1ba26,SCN,2024-06-20_16h28.46.625,LearnStrategy,2023.2.3,Win32,163.9344262,2,1,15,0.219444444,-0.41898151,1,0,0,5.8447,Diorite_02,3,02,1,6,5.845,0.120370399,-0.256018575,1,0,0,0.8016,Diorite_rect,3,0.802,1,14,0,14,0,1,,,,,,,,,,,,,
5658000ca9872d0011e1ba26,SCN,2024-06-20_16h28.46.625,LearnStrategy,2023.2.3,Win32,163.9344262,2,1,16,-0.065277778,-0.226388889,1,0,0,2.9794,Pegmatite_10,6,10,2,4,2.979,-0.102777778,-0.395833333,1,0,0,2.209,Pegmatite_rect,6,2.209,1,15,0,15,0,1,,,,,,,,,,,,,
5658000ca9872d0011e1ba26,SCN,2024-06-20_16h28.46.625,LearnStrategy,2023.2.3,Win32,163.9344262,2,2,1,,,,,,,,1,07,,,,,,,,,,,1,9.802,1,,,,,,-0.359259245,-0.264814843,1,0,0,9.8023,Andesite_rect,0,0,0,0,1,
5658000ca9872d0011e1ba26,SCN,2024-06-20_16h28.46.625,LearnStrategy,2023.2.3,Win32,163.9344262,2,2,2,,,,,,,,4,09,,,,,,,,,,,4,4.851,1,,,,,,0.30648151,-0.255555556,1,0,0,4.8509,Gabbro_rect,1,0,1,0,1,
5658000ca9872d0011e1ba26,SCN,2024-06-20_16h28.46.625,LearnStrategy,2023.2.3,Win32,163.9344262,2,2,3,,,,,,,,5,14,,,,,,,,,,,5,1.441,1,,,,,,-0.389351824,-0.400925954,1,0,0,1.4412,Obsidian_rect,2,0,2,0,1,
5658000ca9872d0011e1ba26,SCN,2024-06-20_16h28.46.625,LearnStrategy,2023.2.3,Win32,163.9344262,2,2,4,,,,,,,,6,16,,,,,,,,,,,4,8.397,0,,,,,,0.400925954,-0.246296353,1,0,0,8.3968,Gabbro_rect,3,0,3,0,1,
5658000ca9872d0011e1ba26,SCN,2024-06-20_16h28.46.625,LearnStrategy,2023.2.3,Win32,163.9344262,2,2,5,,,,,,,,5,08,,,,,,,,,,,5,1.372,1,,,,,,-0.410648134,-0.392129686,1,0,0,1.3718,Obsidian_rect,4,0,4,0,1,
5658000ca9872d0011e1ba26,SCN,2024-06-20_16h28.46.625,LearnStrategy,2023.2.3,Win32,163.9344262,2,2,6,,,,,,,,4,15,,,,,,,,,,,3,3.488,0,,,,,,0.124074131,-0.247222222,1,0,0,3.4882,Diorite_rect,5,0,5,0,1,
5658000ca9872d0011e1ba26,SCN,2024-06-20_16h28.46.625,LearnStrategy,2023.2.3,Win32,163.9344262,2,2,7,,,,,,,,8,03,,,,,,,,,,,8,2.155,1,,,,,,0.353240797,-0.403240797,1,0,0,2.1546,Pumice_rect,6,0,6,0,1,
5658000ca9872d0011e1ba26,SCN,2024-06-20_16h28.46.625,LearnStrategy,2023.2.3,Win32,163.9344262,2,2,8,,,,,,,,2,01,,,,,,,,,,,2,1.523,1,,,,,,-0.064814758,-0.250925954,1,0,0,1.5234,Basalt_rect,7,0,7,0,1,
5658000ca9872d0011e1ba26,SCN,2024-06-20_16h28.46.625,LearnStrategy,2023.2.3,Win32,163.9344262,2,2,9,,,,,,,,8,15,,,,,,,,,,,8,2.463,1,,,,,,0.410648176,-0.398148176,1,0,0,2.4629,Pumice_rect,8,0,8,0,1,
5658000ca9872d0011e1ba26,SCN,2024-06-20_16h28.46.625,LearnStrategy,2023.2.3,Win32,163.9344262,2,2,10,,,,,,,,2,05,,,,,,,,,,,2,2.366,1,,,,,,-0.082870314,-0.257407464,1,0,0,2.3663,Basalt_rect,9,0,9,0,1,
5658000ca9872d0011e1ba26,SCN,2024-06-20_16h28.46.625,LearnStrategy,2023.2.3,Win32,163.9344262,2,2,11,,,,,,,,7,06,,,,,,,,,,,7,4.961,1,,,,,,0.127777778,-0.396296353,1,0,0,4.9612,Peridotite_rect,10,0,10,0,1,
5658000ca9872d0011e1ba26,SCN,2024-06-20_16h28.46.625,LearnStrategy,2023.2.3,Win32,163.9344262,2,2,12,,,,,,,,6,07,,,,,,,,,,,6,3.362,1,,,,,,-0.108333333,-0.4,1,0,0,3.3621,Pegmatite_rect,11,0,11,0,1,
5658000ca9872d0011e1ba26,SCN,2024-06-20_16h28.46.625,LearnStrategy,2023.2.3,Win32,163.9344262,2,2,13,,,,,,,,1,01,,,,,,,,,,,4,6.462,0,,,,,,0.366666667,-0.237037065,1,0,0,6.4621,Gabbro_rect,12,0,12,0,1,
5658000ca9872d0011e1ba26,SCN,2024-06-20_16h28.46.625,LearnStrategy,2023.2.3,Win32,163.9344262,2,2,14,,,,,,,,3,07,,,,,,,,,,,4,3.067,0,,,,,,0.374074131,-0.258796353,1,0,0,3.0669,Gabbro_rect,13,0,13,0,1,
5658000ca9872d0011e1ba26,SCN,2024-06-20_16h28.46.625,LearnStrategy,2023.2.3,Win32,163.9344262,2,2,15,,,,,,,,7,04,,,,,,,,,,,6,10.218,0,,,,,,-0.059259203,-0.406944444,1,0,0,10.2182,Pegmatite_rect,14,0,14,0,1,
5658000ca9872d0011e1ba26,SCN,2024-06-20_16h28.46.625,LearnStrategy,2023.2.3,Win32,163.9344262,2,2,16,,,,,,,,3,06,,,,,,,,,,,3,4.281,1,,,,,,0.060648176,-0.259259288,1,0,0,4.2809,Diorite_rect,15,0,15,0,1,
5658000ca9872d0011e1ba26,SCN,2024-06-20_16h28.46.625,LearnStrategy,2023.2.3,Win32,163.9344262,3,1,1,-0.363425912,-0.120833333,1,0,0,2.9694,Diorite_14,3,14,3,2,2.969,0.134259288,-0.249537065,1,0,0,0.8948,Diorite_rect,3,0.895,1,0,0,0,0,1,,,,,,,,,,,,,
5658000ca9872d0011e1ba26,SCN,2024-06-20_16h28.46.625,LearnStrategy,2023.2.3,Win32,163.9344262,3,1,2,-0.372222222,-0.4125,1,0,0,4.4944,Obsidian_05,5,05,1,2,4.494,-0.408333333,-0.409722222,1,0,0,1.6833,Obsidian_rect,5,1.683,1,1,0,1,0,1,,,,,,,,,,,,,
5658000ca9872d0011e1ba26,SCN,2024-06-20_16h28.46.625,LearnStrategy,2023.2.3,Win32,163.9344262,3,1,3,0.218518575,-0.413888889,1,0,0,3.2403,Diorite_02,3,02,1,6,3.24,0.191666667,-0.241666667,1,0,0,1.413,Diorite_rect,3,1.413,1,2,0,2,0,1,,,,,,,,,,,,,
5658000ca9872d0011e1ba26,SCN,2024-06-20_16h28.46.625,LearnStrategy,2023.2.3,Win32,163.9344262,3,1,4,0.560648261,-0.405092621,1,0,0,1.5265,Andesite_02,1,02,1,8,1.527,0.361574131,-0.247685242,1,0,0,2.6268,Gabbro_rect,4,2.627,0,3,0,3,0,1,,,,,,,,,,,,,
5658000ca9872d0011e1ba26,SCN,2024-06-20_16h28.46.625,LearnStrategy,2023.2.3,Win32,163.9344262,3,1,5,-0.36620369,0.263425912,1,0,0,7.1535,Gabbro_10,4,10,5,2,7.154,-0.364351824,-0.242129686,1,0,0,2.7125,Andesite_rect,1,2.712,0,4,0,4,0,1,,,,,,,,,,,,,
5658000ca9872d0011e1ba26,SCN,2024-06-20_16h28.46.625,LearnStrategy,2023.2.3,Win32,163.9344262,3,1,6,0.546759372,-0.427777778,1,0,0,7.4481,Andesite_02,1,02,1,8,7.448,-0.469444444,-0.235648176,1,0,0,1.8163,Andesite_rect,1,1.816,1,5,0,5,0,1,,,,,,,,,,,,,
5658000ca9872d0011e1ba26,SCN,2024-06-20_16h28.46.625,LearnStrategy,2023.2.3,Win32,163.9344262,3,1,7,-0.213425912,-0.394907464,1,0,0,1.0034,Andesite_05,1,05,1,3,1.003,-0.36620369,-0.231944444,1,0,0,0.8496,Andesite_rect,1,0.85,1,6,0,6,0,1,,,,,,,,,,,,,
5658000ca9872d0011e1ba26,SCN,2024-06-20_16h28.46.625,LearnStrategy,2023.2.3,Win32,163.9344262,3,1,8,0.394907464,-0.252314843,1,0,0,2.6847,Diorite_10,3,10,2,7,2.685,0.165740797,-0.248611111,1,0,0,2.019,Diorite_rect,3,2.019,1,7,0,7,0,1,,,,,,,,,,,,,
5658000ca9872d0011e1ba26,SCN,2024-06-20_16h28.46.625,LearnStrategy,2023.2.3,Win32,163.9344262,3,1,9,0.560648261,0.096759245,1,0,0,2.764,Diorite_15,3,15,4,8,2.764,0.186574131,-0.263425954,1,0,0,1.5425,Diorite_rect,3,1.542,1,8,0,8,0,1,,,,,,,,,,,,,
5658000ca9872d0011e1ba26,SCN,2024-06-20_16h28.46.625,LearnStrategy,2023.2.3,Win32,163.9344262,3,1,10,-0.213425912,0.256481467,1,0,0,5.029,Basalt_06,2,06,5,3,5.029,-0.14351849,-0.236574131,1,0,0,0.6711,Basalt_rect,2,0.671,1,9,0,9,0,1,,,,,,,,,,,,,
5658000ca9872d0011e1ba26,SCN,2024-06-20_16h28.46.625,LearnStrategy,2023.2.3,Win32,163.9344262,3,1,11,0.229166667,-0.402314843,1,0,0,1.9511,Diorite_02,3,02,1,6,1.951,0.19398151,-0.243518575,1,0,0,1.5179,Diorite_rect,3,1.518,1,10,0,10,0,1,,,,,,,,,,,,,
5658000ca9872d0011e1ba26,SCN,2024-06-20_16h28.46.625,LearnStrategy,2023.2.3,Win32,163.9344262,3,1,12,-0.100462935,0.3949074,1,0,0,2.75,Peridotite_05,7,05,6,4,2.75,0.124074131,-0.396296353,1,0,0,2.2464,Peridotite_rect,7,2.246,1,11,0,11,0,1,,,,,,,,,,,,,
5658000ca9872d0011e1ba26,SCN,2024-06-20_16h28.46.625,LearnStrategy,2023.2.3,Win32,163.9344262,3,1,13,0.544444444,0.274074067,1,0,0,2.1047,Basalt_10,2,10,5,8,2.105,-0.096296268,-0.237037065,1,0,0,0.7323,Basalt_rect,2,0.732,1,12,0,12,0,1,,,,,,,,,,,,,
5658000ca9872d0011e1ba26,SCN,2024-06-20_16h28.46.625,LearnStrategy,2023.2.3,Win32,163.9344262,3,1,14,0.361111111,-0.271296353,1,0,0,3.6226,Diorite_10,3,10,2,7,3.623,0.375925954,-0.261111111,1,0,0,1.2824,Gabbro_rect,4,1.282,0,13,0,13,0,1,,,,,,,,,,,,,
5658000ca9872d0011e1ba26,SCN,2024-06-20_16h28.46.625,LearnStrategy,2023.2.3,Win32,163.9344262,3,1,15,0.096296353,-0.254166667,1,0,0,1.448,Diorite_11,3,11,2,5,1.448,0.365277778,-0.242592621,1,0,0,1.2378,Gabbro_rect,4,1.238,0,14,0,14,0,1,,,,,,,,,,,,,
5658000ca9872d0011e1ba26,SCN,2024-06-20_16h28.46.625,LearnStrategy,2023.2.3,Win32,163.9344262,3,1,16,0.242592621,-0.265740797,1,0,0,0.8468,Diorite_12,3,12,2,6,0.847,0.138888889,-0.247222222,1,0,0,0.7894,Diorite_rect,3,0.789,1,15,0,15,0,1,,,,,,,,,,,,,
5658000ca9872d0011e1ba26,SCN,2024-06-20_16h28.46.625,LearnStrategy,2023.2.3,Win32,163.9344262,3,2,1,,,,,,,,1,04,,,,,,,,,,,1,3.931,1,,,,,,-0.387037023,-0.239814843,1,0,0,3.9307,Andesite_rect,0,0,0,0,1,
5658000ca9872d0011e1ba26,SCN,2024-06-20_16h28.46.625,LearnStrategy,2023.2.3,Win32,163.9344262,3,2,2,,,,,,,,3,08,,,,,,,,,,,3,2.604,1,,,,,,0.167129686,-0.250925954,1,0,0,2.6044,Diorite_rect,1,0,1,0,1,
5658000ca9872d0011e1ba26,SCN,2024-06-20_16h28.46.625,LearnStrategy,2023.2.3,Win32,163.9344262,3,2,3,,,,,,,,2,11,,,,,,,,,,,8,2.577,0,,,,,,0.394444444,-0.41898151,1,0,0,2.5772,Pumice_rect,2,0,2,0,1,
5658000ca9872d0011e1ba26,SCN,2024-06-20_16h28.46.625,LearnStrategy,2023.2.3,Win32,163.9344262,3,2,4,,,,,,,,5,04,,,,,,,,,,,5,1.241,1,,,,,,-0.336574046,-0.397222222,1,0,0,1.2414,Obsidian_rect,3,0,3,0,1,
5658000ca9872d0011e1ba26,SCN,2024-06-20_16h28.46.625,LearnStrategy,2023.2.3,Win32,163.9344262,3,2,5,,,,,,,,7,13,,,,,,,,,,,7,3.027,1,,,,,,0.081018575,-0.382870399,1,0,0,3.0273,Peridotite_rect,4,0,4,0,1,
5658000ca9872d0011e1ba26,SCN,2024-06-20_16h28.46.625,LearnStrategy,2023.2.3,Win32,163.9344262,3,2,6,,,,,,,,6,05,,,,,,,,,,,3,8.334,0,,,,,,0.170370399,-0.258796353,1,0,0,8.3343,Diorite_rect,5,0,5,0,1,
5658000ca9872d0011e1ba26,SCN,2024-06-20_16h28.46.625,LearnStrategy,2023.2.3,Win32,163.9344262,3,2,7,,,,,,,,8,13,,,,,,,,,,,8,1.681,1,,,,,,0.396759288,-0.394444444,1,0,0,1.681,Pumice_rect,6,0,6,0,1,
5658000ca9872d0011e1ba26,SCN,2024-06-20_16h28.46.625,LearnStrategy,2023.2.3,Win32,163.9344262,3,2,8,,,,,,,,1,16,,,,,,,,,,,1,1.466,1,,,,,,-0.430092578,-0.250463019,1,0,0,1.4657,Andesite_rect,7,0,7,0,1,
5658000ca9872d0011e1ba26,SCN,2024-06-20_16h28.46.625,LearnStrategy,2023.2.3,Win32,163.9344262,3,2,9,,,,,,,,4,16,,,,,,,,,,,2,2.574,0,,,,,,-0.175925869,-0.253240797,1,0,0,2.5744,Basalt_rect,8,0,8,0,1,
5658000ca9872d0011e1ba26,SCN,2024-06-20_16h28.46.625,LearnStrategy,2023.2.3,Win32,163.9344262,3,2,10,,,,,,,,6,09,,,,,,,,,,,6,2.662,1,,,,,,-0.112962935,-0.398148176,1,0,0,2.6616,Pegmatite_rect,9,0,9,0,1,
5658000ca9872d0011e1ba26,SCN,2024-06-20_16h28.46.625,LearnStrategy,2023.2.3,Win32,163.9344262,3,2,11,,,,,,,,8,04,,,,,,,,,,,8,1.945,1,,,,,,0.397222222,-0.395833333,1,0,0,1.9447,Pumice_rect,10,0,10,0,1,
5658000ca9872d0011e1ba26,SCN,2024-06-20_16h28.46.625,LearnStrategy,2023.2.3,Win32,163.9344262,3,2,12,,,,,,,,2,08,,,,,,,,,,,2,4.084,1,,,,,,-0.115740712,-0.241666667,1,0,0,4.0838,Basalt_rect,11,0,11,0,1,
5658000ca9872d0011e1ba26,SCN,2024-06-20_16h28.46.625,LearnStrategy,2023.2.3,Win32,163.9344262,3,2,13,,,,,,,,3,13,,,,,,,,,,,3,3.202,1,,,,,,0.204166667,-0.259722222,1,0,0,3.2018,Diorite_rect,12,0,12,0,1,
5658000ca9872d0011e1ba26,SCN,2024-06-20_16h28.46.625,LearnStrategy,2023.2.3,Win32,163.9344262,3,2,14,,,,,,,,4,05,,,,,,,,,,,4,6.516,1,,,,,,0.374074131,-0.252777778,1,0,0,6.5159,Gabbro_rect,13,0,13,0,1,
5658000ca9872d0011e1ba26,SCN,2024-06-20_16h28.46.625,LearnStrategy,2023.2.3,Win32,163.9344262,3,2,15,,,,,,,,7,12,,,,,,,,,,,7,2.878,1,,,,,,0.143055556,-0.403240797,1,0,0,2.8781,Peridotite_rect,14,0,14,0,1,
5658000ca9872d0011e1ba26,SCN,2024-06-20_16h28.46.625,LearnStrategy,2023.2.3,Win32,163.9344262,3,2,16,,,,,,,,5,02,,,,,,,,,,,5,1.257,1,,,,,,-0.405555556,-0.421759288,1,0,0,1.2568,Obsidian_rect,15,0,15,0,1,
5658000ca9872d0011e1ba26,SCN,2024-06-20_16h28.46.625,LearnStrategy,2023.2.3,Win32,163.9344262,4,1,1,0.371759288,-0.251388889,1,0,0,2.7631,Diorite_10,3,10,2,7,2.763,0.402777778,-0.237963019,1,0,0,1.153,Gabbro_rect,4,1.153,0,0,0,0,0,1,,,,,,,,,,,,,
5658000ca9872d0011e1ba26,SCN,2024-06-20_16h28.46.625,LearnStrategy,2023.2.3,Win32,163.9344262,4,1,2,0.211111111,0.234722222,1,0,0,5.5451,Gabbro_13,4,13,5,6,5.545,0.358796353,-0.250463019,1,0,0,1.781,Gabbro_rect,4,1.781,1,1,0,1,0,1,,,,,,,,,,,,,
5658000ca9872d0011e1ba26,SCN,2024-06-20_16h28.46.625,LearnStrategy,2023.2.3,Win32,163.9344262,4,1,3,0.10648151,0.236111111,1,0,0,1.6114,Gabbro_03,4,03,5,5,1.611,0.374537065,-0.232870399,1,0,0,0.9824,Gabbro_rect,4,0.982,1,2,0,2,0,1,,,,,,,,,,,,,
5658000ca9872d0011e1ba26,SCN,2024-06-20_16h28.46.625,LearnStrategy,2023.2.3,Win32,163.9344262,4,1,4,0.364814843,0.263425912,1,0,0,2.3702,Peridotite_02,7,02,5,7,2.37,0.181018575,-0.393055556,1,0,0,1.3214,Peridotite_rect,7,1.321,1,3,0,3,0,1,,,,,,,,,,,,,
5658000ca9872d0011e1ba26,SCN,2024-06-20_16h28.46.625,LearnStrategy,2023.2.3,Win32,163.9344262,4,1,5,0.239814843,0.4074074,1,0,0,3.5312,Andesite_06,1,06,6,6,3.531,0.363888889,-0.255555556,1,0,0,1.7047,Gabbro_rect,4,1.705,0,4,0,4,0,1,,,,,,,,,,,,,
5658000ca9872d0011e1ba26,SCN,2024-06-20_16h28.46.625,LearnStrategy,2023.2.3,Win32,163.9344262,4,1,6,0.411574131,0.414814811,1,0,0,1.9873,Peridotite_14,7,14,6,7,1.987,0.178240797,-0.383333333,1,0,0,2.6348,Peridotite_rect,7,2.635,1,5,0,5,0,1,,,,,,,,,,,,,
5658000ca9872d0011e1ba26,SCN,2024-06-20_16h28.46.625,LearnStrategy,2023.2.3,Win32,163.9344262,4,1,7,-0.5574074,0.399074067,1,0,0,3.6834,Pegmatite_03,6,03,6,1,3.683,-0.121296268,-0.414351908,1,0,0,1.8763,Pegmatite_rect,6,1.876,1,6,0,6,0,1,,,,,,,,,,,,,
5658000ca9872d0011e1ba26,SCN,2024-06-20_16h28.46.625,LearnStrategy,2023.2.3,Win32,163.9344262,4,1,8,0.075925954,-0.266203732,1,0,0,5.7417,Diorite_11,3,11,2,5,5.742,0.113425954,-0.243518575,1,0,0,0.7461,Diorite_rect,3,0.746,1,7,0,7,0,1,,,,,,,,,,,,,
5658000ca9872d0011e1ba26,SCN,2024-06-20_16h28.46.625,LearnStrategy,2023.2.3,Win32,163.9344262,4,1,9,0.214814843,-0.251388889,1,0,0,0.7792,Diorite_12,3,12,2,6,0.779,0.106018575,-0.243518575,1,0,0,0.8705,Diorite_rect,3,0.87,1,8,0,8,0,1,,,,,,,,,,,,,
5658000ca9872d0011e1ba26,SCN,2024-06-20_16h28.46.625,LearnStrategy,2023.2.3,Win32,163.9344262,4,1,10,0.373148176,-0.275925954,1,0,0,0.8239,Diorite_10,3,10,2,7,0.824,0.115277778,-0.241203732,1,0,0,1.7285,Diorite_rect,3,1.728,1,9,0,9,0,1,,,,,,,,,,,,,
5658000ca9872d0011e1ba26,SCN,2024-06-20_16h28.46.625,LearnStrategy,2023.2.3,Win32,163.9344262,4,1,11,0.223611111,-0.396759288,1,0,0,3.6159,Diorite_02,3,02,1,6,3.616,0.142592621,-0.241666667,1,0,0,0.9436,Diorite_rect,3,0.944,1,10,0,10,0,1,,,,,,,,,,,,,
5658000ca9872d0011e1ba26,SCN,2024-06-20_16h28.46.625,LearnStrategy,2023.2.3,Win32,163.9344262,4,1,12,0.089351908,0.229629623,1,0,0,7.3368,Gabbro_03,4,03,5,5,7.337,0.344907464,-0.257407464,1,0,0,2.0975,Gabbro_rect,4,2.097,1,11,0,11,0,1,,,,,,,,,,,,,
5658000ca9872d0011e1ba26,SCN,2024-06-20_16h28.46.625,LearnStrategy,2023.2.3,Win32,163.9344262,4,1,13,0.376851908,0.092592578,1,0,0,1.3362,Obsidian_10,5,10,4,7,1.336,-0.367129601,-0.392129686,1,0,0,0.9212,Obsidian_rect,5,0.921,1,12,0,12,0,1,,,,,,,,,,,,,
5658000ca9872d0011e1ba26,SCN,2024-06-20_16h28.46.625,LearnStrategy,2023.2.3,Win32,163.9344262,4,1,14,0.532870399,0.238888889,1,0,0,2.5026,Basalt_10,2,10,5,8,2.503,-0.163888889,-0.237037065,1,0,0,0.7899,Basalt_rect,2,0.79,1,13,0,13,0,1,,,,,,,,,,,,,
5658000ca9872d0011e1ba26,SCN,2024-06-20_16h28.46.625,LearnStrategy,2023.2.3,Win32,163.9344262,4,1,15,0.222222222,0.405555556,1,0,0,4.0668,Andesite_06,1,06,6,6,4.067,-0.431481467,-0.249074131,1,0,0,1.5239,Andesite_rect,1,1.524,1,14,0,14,0,1,,,,,,,,,,,,,
5658000ca9872d0011e1ba26,SCN,2024-06-20_16h28.46.625,LearnStrategy,2023.2.3,Win32,163.9344262,4,1,16,-0.406944444,-0.416666667,1,0,0,4.1127,Obsidian_05,5,05,1,2,4.113,-0.417592578,-0.400925954,1,0,0,1.3134,Obsidian_rect,5,1.313,1,15,0,15,0,1,,,,,,,,,,,,,
5658000ca9872d0011e1ba26,SCN,2024-06-20_16h28.46.625,LearnStrategy,2023.2.3,Win32,163.9344262,4,2,1,,,,,,,,3,08,,,,,,,,,,,3,5.58,1,,,,,,0.121759288,-0.254166667,1,0,0,5.5799,Diorite_rect,0,0,0,0,1,
5658000ca9872d0011e1ba26,SCN,2024-06-20_16h28.46.625,LearnStrategy,2023.2.3,Win32,163.9344262,4,2,2,,,,,,,,2,01,,,,,,,,,,,2,1.188,1,,,,,,-0.156944444,-0.23148151,1,0,0,1.1876,Basalt_rect,1,0,1,0,1,
5658000ca9872d0011e1ba26,SCN,2024-06-20_16h28.46.625,LearnStrategy,2023.2.3,Win32,163.9344262,4,2,3,,,,,,,,1,09,,,,,,,,,,,1,2.373,1,,,,,,-0.443055556,-0.253240797,1,0,0,2.3727,Andesite_rect,2,0,2,0,1,
5658000ca9872d0011e1ba26,SCN,2024-06-20_16h28.46.625,LearnStrategy,2023.2.3,Win32,163.9344262,4,2,4,,,,,,,,2,11,,,,,,,,,,,8,2.829,0,,,,,,0.327314843,-0.404166667,1,0,0,2.8289,Pumice_rect,3,0,3,0,1,
5658000ca9872d0011e1ba26,SCN,2024-06-20_16h28.46.625,LearnStrategy,2023.2.3,Win32,163.9344262,4,2,5,,,,,,,,4,12,,,,,,,,,,,4,2.306,1,,,,,,0.392592621,-0.236111111,1,0,0,2.3061,Gabbro_rect,4,0,4,0,1,
5658000ca9872d0011e1ba26,SCN,2024-06-20_16h28.46.625,LearnStrategy,2023.2.3,Win32,163.9344262,4,2,6,,,,,,,,3,07,,,,,,,,,,,3,5.951,1,,,,,,0.110185242,-0.253703732,1,0,0,5.9512,Diorite_rect,5,0,5,0,1,
5658000ca9872d0011e1ba26,SCN,2024-06-20_16h28.46.625,LearnStrategy,2023.2.3,Win32,163.9344262,4,2,7,,,,,,,,5,04,,,,,,,,,,,5,1.234,1,,,,,,-0.450925912,-0.388425954,1,0,0,1.2343,Obsidian_rect,6,0,6,0,1,
5658000ca9872d0011e1ba26,SCN,2024-06-20_16h28.46.625,LearnStrategy,2023.2.3,Win32,163.9344262,4,2,8,,,,,,,,7,04,,,,,,,,,,,7,1.854,1,,,,,,0.092592621,-0.400925954,1,0,0,1.8535,Peridotite_rect,7,0,7,0,1,
5658000ca9872d0011e1ba26,SCN,2024-06-20_16h28.46.625,LearnStrategy,2023.2.3,Win32,163.9344262,4,2,9,,,,,,,,6,16,,,,,,,,,,,4,19.87,0,,,,,,0.334259288,-0.266203732,1,0,0,19.8697,Gabbro_rect,8,0,8,0,1,
5658000ca9872d0011e1ba26,SCN,2024-06-20_16h28.46.625,LearnStrategy,2023.2.3,Win32,163.9344262,4,2,10,,,,,,,,5,08,,,,,,,,,,,5,1.195,1,,,,,,-0.467129601,-0.4,1,0,0,1.1954,Obsidian_rect,9,0,9,0,1,
5658000ca9872d0011e1ba26,SCN,2024-06-20_16h28.46.625,LearnStrategy,2023.2.3,Win32,163.9344262,4,2,11,,,,,,,,7,07,,,,,,,,,,,7,1.846,1,,,,,,0.116203732,-0.399537065,1,0,0,1.8456,Peridotite_rect,10,0,10,0,1,
5658000ca9872d0011e1ba26,SCN,2024-06-20_16h28.46.625,LearnStrategy,2023.2.3,Win32,163.9344262,4,2,12,,,,,,,,1,11,,,,,,,,,,,1,3.233,1,,,,,,-0.408333333,-0.252314843,1,0,0,3.2327,Andesite_rect,11,0,11,0,1,
5658000ca9872d0011e1ba26,SCN,2024-06-20_16h28.46.625,LearnStrategy,2023.2.3,Win32,163.9344262,4,2,13,,,,,,,,6,06,,,,,,,,,,,6,5.387,1,,,,,,-0.055555556,-0.395833333,1,0,0,5.3871,Pegmatite_rect,12,0,12,0,1,
5658000ca9872d0011e1ba26,SCN,2024-06-20_16h28.46.625,LearnStrategy,2023.2.3,Win32,163.9344262,4,2,14,,,,,,,,4,15,,,,,,,,,,,4,9.604,1,,,,,,0.330092621,-0.247222222,1,0,0,9.6041,Gabbro_rect,13,0,13,0,1,
5658000ca9872d0011e1ba26,SCN,2024-06-20_16h28.46.625,LearnStrategy,2023.2.3,Win32,163.9344262,4,2,15,,,,,,,,8,13,,,,,,,,,,,8,2.156,1,,,,,,0.403240797,-0.417129686,1,0,0,2.1558,Pumice_rect,14,0,14,0,1,
5658000ca9872d0011e1ba26,SCN,2024-06-20_16h28.46.625,LearnStrategy,2023.2.3,Win32,163.9344262,4,2,16,,,,,,,,8,15,,,,,,,,,,,8,1.191,1,,,,,,0.396759288,-0.391203732,1,0,0,1.1913,Pumice_rect,15,0,15,0,1,
5658000ca9872d0011e1ba26,SCN,2024-06-20_16h28.46.625,LearnStrategy,2023.2.3,Win32,163.9344262,5,1,1,0.227314843,0.282870356,1,0,0,5.4997,Gabbro_13,4,13,5,6,5.5,0.397685242,-0.2375,1,0,0,1.1194,Gabbro_rect,4,1.119,1,0,0,0,0,1,,,,,,,,,,,,,
5658000ca9872d0011e1ba26,SCN,2024-06-20_16h28.46.625,LearnStrategy,2023.2.3,Win32,163.9344262,5,1,2,0.217129686,-0.38148151,1,0,0,2.4427,Diorite_02,3,02,1,6,2.443,0.149074131,-0.229629686,1,0,0,0.8342,Diorite_rect,3,0.834,1,1,0,1,0,1,,,,,,,,,,,,,
5658000ca9872d0011e1ba26,SCN,2024-06-20_16h28.46.625,LearnStrategy,2023.2.3,Win32,163.9344262,5,1,3,-0.228240712,-0.1125,1,0,0,5.8929,Basalt_12,2,12,3,3,5.893,0.350463019,-0.413425954,1,0,0,2.1597,Pumice_rect,8,2.16,0,2,0,2,0,1,,,,,,,,,,,,,
5658000ca9872d0011e1ba26,SCN,2024-06-20_16h28.46.625,LearnStrategy,2023.2.3,Win32,163.9344262,5,1,4,-0.20601849,-0.411111111,1,0,0,4.8702,Andesite_05,1,05,1,3,4.87,-0.385185157,-0.247222222,1,0,0,0.7707,Andesite_rect,1,0.771,1,3,0,3,0,1,,,,,,,,,,,,,
5658000ca9872d0011e1ba26,SCN,2024-06-20_16h28.46.625,LearnStrategy,2023.2.3,Win32,163.9344262,5,1,5,0.266203732,-0.242592621,1,0,0,1.9068,Diorite_12,3,12,2,6,1.907,0.098611111,-0.256944444,1,0,0,2.1492,Diorite_rect,3,2.149,1,4,0,4,0,1,,,,,,,,,,,,,
5658000ca9872d0011e1ba26,SCN,2024-06-20_16h28.46.625,LearnStrategy,2023.2.3,Win32,163.9344262,5,1,6,-0.044444444,0.236111111,1,0,0,3.8954,Gabbro_11,4,11,5,4,3.895,-0.145370314,-0.248148176,1,0,0,2.3001,Basalt_rect,2,2.3,0,5,0,5,0,1,,,,,,,,,,,,,
5658000ca9872d0011e1ba26,SCN,2024-06-20_16h28.46.625,LearnStrategy,2023.2.3,Win32,163.9344262,5,1,7,-0.350462935,0.101851824,1,0,0,3.139,Pumice_05,8,05,4,2,3.139,0.368055556,-0.393518575,1,0,0,1.4816,Pumice_rect,8,1.482,1,6,0,6,0,1,,,,,,,,,,,,,
5658000ca9872d0011e1ba26,SCN,2024-06-20_16h28.46.625,LearnStrategy,2023.2.3,Win32,163.9344262,5,1,8,-0.531944444,0.10370369,1,0,0,2.2546,Peridotite_16,7,16,4,1,2.255,0.129629686,-0.400463019,1,0,0,1.5313,Peridotite_rect,7,1.531,1,7,0,7,0,1,,,,,,,,,,,,,
5658000ca9872d0011e1ba26,SCN,2024-06-20_16h28.46.625,LearnStrategy,2023.2.3,Win32,163.9344262,5,1,9,0.576851908,0.273148134,1,0,0,1.9995,Basalt_10,2,10,5,8,2,-0.168981425,-0.248611111,1,0,0,0.6749,Basalt_rect,2,0.675,1,8,0,8,0,1,,,,,,,,,,,,,
5658000ca9872d0011e1ba26,SCN,2024-06-20_16h28.46.625,LearnStrategy,2023.2.3,Win32,163.9344262,5,1,10,-0.195833333,0.093981467,1,0,0,1.0662,Andesite_10,1,10,4,3,1.066,-0.332407379,-0.237037065,1,0,0,2.0444,Andesite_rect,1,2.044,1,9,0,9,0,1,,,,,,,,,,,,,
5658000ca9872d0011e1ba26,SCN,2024-06-20_16h28.46.625,LearnStrategy,2023.2.3,Win32,163.9344262,5,1,11,0.558796353,-0.100925954,1,0,0,4.3414,Pegmatite_13,6,13,3,8,4.341,-0.15,-0.389351908,1,0,0,2.3634,Pegmatite_rect,6,2.363,1,10,0,10,0,1,,,,,,,,,,,,,
5658000ca9872d0011e1ba26,SCN,2024-06-20_16h28.46.625,LearnStrategy,2023.2.3,Win32,163.9344262,5,1,12,0.115740797,-0.10879631,1,0,0,1.32,Peridotite_15,7,15,3,5,1.32,0.160648176,-0.402314843,1,0,0,1.1061,Peridotite_rect,7,1.106,1,11,0,11,0,1,,,,,,,,,,,,,
5658000ca9872d0011e1ba26,SCN,2024-06-20_16h28.46.625,LearnStrategy,2023.2.3,Win32,163.9344262,5,1,13,-0.097222222,-0.240740797,1,0,0,3.8221,Pegmatite_10,6,10,2,4,3.822,-0.132870314,-0.386574131,1,0,0,1.4951,Pegmatite_rect,6,1.495,1,12,0,12,0,1,,,,,,,,,,,,,
5658000ca9872d0011e1ba26,SCN,2024-06-20_16h28.46.625,LearnStrategy,2023.2.3,Win32,163.9344262,5,1,14,0.235648176,0.431944444,1,0,0,4.1086,Andesite_06,1,06,6,6,4.109,-0.386111111,-0.255555556,1,0,0,2.3946,Andesite_rect,1,2.395,1,13,0,13,0,1,,,,,,,,,,,,,
5658000ca9872d0011e1ba26,SCN,2024-06-20_16h28.46.625,LearnStrategy,2023.2.3,Win32,163.9344262,5,1,15,0.546296353,0.421296295,1,0,0,1.5328,Gabbro_01,4,01,6,8,1.533,-0.317129601,-0.263888889,1,0,0,4.0565,Andesite_rect,1,4.056,0,14,0,14,0,1,,,,,,,,,,,,,
5658000ca9872d0011e1ba26,SCN,2024-06-20_16h28.46.625,LearnStrategy,2023.2.3,Win32,163.9344262,5,1,16,0.088888889,0.286574067,1,0,0,0.9689,Gabbro_03,4,03,5,5,0.969,0.380555556,-0.269444444,1,0,0,0.9827,Gabbro_rect,4,0.983,1,15,0,15,0,1,,,,,,,,,,,,,
5658000ca9872d0011e1ba26,SCN,2024-06-20_16h28.46.625,LearnStrategy,2023.2.3,Win32,163.9344262,5,2,1,,,,,,,,2,05,,,,,,,,,,,2,1.272,1,,,,,,-0.143055556,-0.236574131,1,0,0,1.272,Basalt_rect,0,0,0,0,1,
5658000ca9872d0011e1ba26,SCN,2024-06-20_16h28.46.625,LearnStrategy,2023.2.3,Win32,163.9344262,5,2,2,,,,,,,,8,04,,,,,,,,,,,8,1.68,1,,,,,,0.319907464,-0.409259288,1,0,0,1.6798,Pumice_rect,1,0,1,0,1,
5658000ca9872d0011e1ba26,SCN,2024-06-20_16h28.46.625,LearnStrategy,2023.2.3,Win32,163.9344262,5,2,3,,,,,,,,4,09,,,,,,,,,,,2,8.971,0,,,,,,-0.116203647,-0.243055556,1,0,0,8.9714,Basalt_rect,2,0,2,0,1,
5658000ca9872d0011e1ba26,SCN,2024-06-20_16h28.46.625,LearnStrategy,2023.2.3,Win32,163.9344262,5,2,4,,,,,,,,7,13,,,,,,,,,,,7,1.469,1,,,,,,0.100463019,-0.39398151,1,0,0,1.4689,Peridotite_rect,3,0,3,0,1,
5658000ca9872d0011e1ba26,SCN,2024-06-20_16h28.46.625,LearnStrategy,2023.2.3,Win32,163.9344262,5,2,5,,,,,,,,1,01,,,,,,,,,,,4,4.188,0,,,,,,0.386111111,-0.252314843,1,0,0,4.1882,Gabbro_rect,4,0,4,0,1,
5658000ca9872d0011e1ba26,SCN,2024-06-20_16h28.46.625,LearnStrategy,2023.2.3,Win32,163.9344262,5,2,6,,,,,,,,6,07,,,,,,,,,,,6,3.223,1,,,,,,-0.120833333,-0.4,1,0,0,3.2228,Pegmatite_rect,5,0,5,0,1,
5658000ca9872d0011e1ba26,SCN,2024-06-20_16h28.46.625,LearnStrategy,2023.2.3,Win32,163.9344262,5,2,7,,,,,,,,7,12,,,,,,,,,,,7,3.706,1,,,,,,0.131944444,-0.404166667,1,0,0,3.7063,Peridotite_rect,6,0,6,0,1,
5658000ca9872d0011e1ba26,SCN,2024-06-20_16h28.46.625,LearnStrategy,2023.2.3,Win32,163.9344262,5,2,8,,,,,,,,1,07,,,,,,,,,,,1,1.453,1,,,,,,-0.413888889,-0.229166667,1,0,0,1.4532,Andesite_rect,7,0,7,0,1,
5658000ca9872d0011e1ba26,SCN,2024-06-20_16h28.46.625,LearnStrategy,2023.2.3,Win32,163.9344262,5,2,9,,,,,,,,3,09,,,,,,,,,,,3,9.045,1,,,,,,0.150463019,-0.233796353,1,0,0,9.0446,Diorite_rect,8,0,8,0,1,
5658000ca9872d0011e1ba26,SCN,2024-06-20_16h28.46.625,LearnStrategy,2023.2.3,Win32,163.9344262,5,2,10,,,,,,,,8,03,,,,,,,,,,,8,1.245,1,,,,,,0.404166667,-0.389814843,1,0,0,1.2448,Pumice_rect,9,0,9,0,1,
5658000ca9872d0011e1ba26,SCN,2024-06-20_16h28.46.625,LearnStrategy,2023.2.3,Win32,163.9344262,5,2,11,,,,,,,,6,11,,,,,,,,,,,6,3.175,1,,,,,,-0.071296268,-0.417592621,1,0,0,3.1746,Pegmatite_rect,10,0,10,0,1,
5658000ca9872d0011e1ba26,SCN,2024-06-20_16h28.46.625,LearnStrategy,2023.2.3,Win32,163.9344262,5,2,12,,,,,,,,5,14,,,,,,,,,,,5,1.315,1,,,,,,-0.442129601,-0.399074131,1,0,0,1.3152,Obsidian_rect,11,0,11,0,1,
5658000ca9872d0011e1ba26,SCN,2024-06-20_16h28.46.625,LearnStrategy,2023.2.3,Win32,163.9344262,5,2,13,,,,,,,,5,02,,,,,,,,,,,5,1.99,1,,,,,,-0.392592578,-0.409259288,1,0,0,1.9896,Obsidian_rect,12,0,12,0,1,
5658000ca9872d0011e1ba26,SCN,2024-06-20_16h28.46.625,LearnStrategy,2023.2.3,Win32,163.9344262,5,2,14,,,,,,,,2,14,,,,,,,,,,,8,1.888,0,,,,,,0.433796353,-0.405092621,1,0,0,1.8877,Pumice_rect,13,0,13,0,1,
5658000ca9872d0011e1ba26,SCN,2024-06-20_16h28.46.625,LearnStrategy,2023.2.3,Win32,163.9344262,5,2,15,,,,,,,,3,13,,,,,,,,,,,3,3.425,1,,,,,,0.180555556,-0.253240797,1,0,0,3.4252,Diorite_rect,14,0,14,0,1,
5658000ca9872d0011e1ba26,SCN,2024-06-20_16h28.46.625,LearnStrategy,2023.2.3,Win32,163.9344262,5,2,16,,,,,,,,4,05,,,,,,,,,,,7,2.144,0,,,,,,0.154629686,-0.396759288,1,0,0,2.144,Peridotite_rect,15,0,15,0,1,
5658000ca9872d0011e1ba26,SCN,2024-06-20_16h28.46.625,LearnStrategy,2023.2.3,Win32,163.9344262,6,1,1,0.244444444,0.427314811,1,0,0,11.2601,Andesite_06,1,06,6,6,11.26,-0.398611111,-0.245833333,1,0,0,1.1962,Andesite_rect,1,1.196,1,0,0,0,0,1,,,,,,,,,,,,,
5658000ca9872d0011e1ba26,SCN,2024-06-20_16h28.46.625,LearnStrategy,2023.2.3,Win32,163.9344262,6,1,2,-0.106481425,0.258333333,1,0,0,1.4772,Gabbro_11,4,11,5,4,1.477,-0.3125,-0.246759288,1,0,0,2.7714,Andesite_rect,1,2.771,0,1,0,1,0,1,,,,,,,,,,,,,
5658000ca9872d0011e1ba26,SCN,2024-06-20_16h28.46.625,LearnStrategy,2023.2.3,Win32,163.9344262,6,1,3,0.035648176,0.243981467,1,0,0,1.4055,Gabbro_03,4,03,5,5,1.406,0.334722222,-0.232870399,1,0,0,1.0937,Gabbro_rect,4,1.094,1,2,0,2,0,1,,,,,,,,,,,,,
5658000ca9872d0011e1ba26,SCN,2024-06-20_16h28.46.625,LearnStrategy,2023.2.3,Win32,163.9344262,6,1,4,0.248148176,0.245370356,1,0,0,1.1552,Gabbro_13,4,13,5,6,1.155,0.3625,-0.242129686,1,0,0,1.3231,Gabbro_rect,4,1.323,1,3,0,3,0,1,,,,,,,,,,,,,
5658000ca9872d0011e1ba26,SCN,2024-06-20_16h28.46.625,LearnStrategy,2023.2.3,Win32,163.9344262,6,1,5,0.418055556,0.2699074,1,0,0,1.9448,Peridotite_02,7,02,5,7,1.945,0.163425954,-0.402314843,1,0,0,1.4934,Peridotite_rect,7,1.493,1,4,0,4,0,1,,,,,,,,,,,,,
5658000ca9872d0011e1ba26,SCN,2024-06-20_16h28.46.625,LearnStrategy,2023.2.3,Win32,163.9344262,6,1,6,-0.256481467,0.070833333,1,0,0,2.8888,Andesite_10,1,10,4,3,2.889,-0.121759203,-0.242592621,1,0,0,1.7316,Basalt_rect,2,1.732,0,5,0,5,0,1,,,,,,,,,,,,,
5658000ca9872d0011e1ba26,SCN,2024-06-20_16h28.46.625,LearnStrategy,2023.2.3,Win32,163.9344262,6,1,7,-0.034722222,0.095370356,1,0,0,5.0419,Pumice_08,8,08,4,4,5.042,-0.15,-0.249537065,1,0,0,1.1149,Basalt_rect,2,1.115,0,6,0,6,0,1,,,,,,,,,,,,,
5658000ca9872d0011e1ba26,SCN,2024-06-20_16h28.46.625,LearnStrategy,2023.2.3,Win32,163.9344262,6,1,8,0.099074131,0.102777778,1,0,0,1.6273,Pumice_10,8,10,4,5,1.627,0.343518575,-0.388888889,1,0,0,0.984,Pumice_rect,8,0.984,1,7,0,7,0,1,,,,,,,,,,,,,
5658000ca9872d0011e1ba26,SCN,2024-06-20_16h28.46.625,LearnStrategy,2023.2.3,Win32,163.9344262,6,1,9,0.276851908,0.099537023,1,0,0,1.3754,Pegmatite_08,6,08,4,6,1.375,-0.103703647,-0.39398151,1,0,0,1.265,Pegmatite_rect,6,1.265,1,8,0,8,0,1,,,,,,,,,,,,,
5658000ca9872d0011e1ba26,SCN,2024-06-20_16h28.46.625,LearnStrategy,2023.2.3,Win32,163.9344262,6,1,10,0.404166667,0.101388889,1,0,0,1.7901,Obsidian_10,5,10,4,7,1.79,-0.385648134,-0.397222222,1,0,0,1.1744,Obsidian_rect,5,1.174,1,9,0,9,0,1,,,,,,,,,,,,,
5658000ca9872d0011e1ba26,SCN,2024-06-20_16h28.46.625,LearnStrategy,2023.2.3,Win32,163.9344262,6,1,11,0.231018575,-0.078240755,1,0,0,1.4601,Basalt_16,2,16,3,6,1.46,-0.15601849,-0.264814843,1,0,0,2.4487,Basalt_rect,2,2.449,1,10,0,10,0,1,,,,,,,,,,,,,
5658000ca9872d0011e1ba26,SCN,2024-06-20_16h28.46.625,LearnStrategy,2023.2.3,Win32,163.9344262,6,1,12,-0.235648134,-0.073611111,1,0,0,2.4226,Basalt_12,2,12,3,3,2.423,-0.11851849,-0.231944444,1,0,0,0.8307,Basalt_rect,2,0.831,1,11,0,11,0,1,,,,,,,,,,,,,
5658000ca9872d0011e1ba26,SCN,2024-06-20_16h28.46.625,LearnStrategy,2023.2.3,Win32,163.9344262,6,1,13,-0.0625,-0.085648176,1,0,0,1.1631,Andesite_03,1,03,3,4,1.163,0.181018575,-0.264351908,1,0,0,4.7176,Diorite_rect,3,4.718,0,12,0,12,0,1,,,,,,,,,,,,,
5658000ca9872d0011e1ba26,SCN,2024-06-20_16h28.46.625,LearnStrategy,2023.2.3,Win32,163.9344262,6,1,14,-0.375462935,-0.254166667,1,0,0,5.3326,Pegmatite_15,6,15,2,2,5.333,-0.088425869,-0.39398151,1,0,0,1.2889,Pegmatite_rect,6,1.289,1,13,0,13,0,1,,,,,,,,,,,,,
5658000ca9872d0011e1ba26,SCN,2024-06-20_16h28.46.625,LearnStrategy,2023.2.3,Win32,163.9344262,6,1,15,0.252777778,-0.405092621,1,0,0,1.5417,Diorite_02,3,02,1,6,1.542,0.150925954,-0.243518575,1,0,0,0.8786,Diorite_rect,3,0.879,1,14,0,14,0,1,,,,,,,,,,,,,
5658000ca9872d0011e1ba26,SCN,2024-06-20_16h28.46.625,LearnStrategy,2023.2.3,Win32,163.9344262,6,1,16,0.515277778,-0.093055556,1,0,0,5.6541,Pegmatite_13,6,13,3,8,5.654,-0.096759203,-0.400463019,1,0,0,1.5325,Pegmatite_rect,6,1.533,1,15,0,15,0,1,,,,,,,,,,,,,
5658000ca9872d0011e1ba26,SCN,2024-06-20_16h28.46.625,LearnStrategy,2023.2.3,Win32,163.9344262,6,2,1,,,,,,,,1,16,,,,,,,,,,,1,1.676,1,,,,,,-0.389814801,-0.252314843,1,0,0,1.6757,Andesite_rect,0,0,0,0,1,
5658000ca9872d0011e1ba26,SCN,2024-06-20_16h28.46.625,LearnStrategy,2023.2.3,Win32,163.9344262,6,2,2,,,,,,,,5,12,,,,,,,,,,,5,1.188,1,,,,,,-0.364351824,-0.380555556,1,0,0,1.1884,Obsidian_rect,1,0,1,0,1,
5658000ca9872d0011e1ba26,SCN,2024-06-20_16h28.46.625,LearnStrategy,2023.2.3,Win32,163.9344262,6,2,3,,,,,,,,2,04,,,,,,,,,,,2,1.229,1,,,,,,-0.168981425,-0.245370399,1,0,0,1.2286,Basalt_rect,2,0,2,0,1,
5658000ca9872d0011e1ba26,SCN,2024-06-20_16h28.46.625,LearnStrategy,2023.2.3,Win32,163.9344262,6,2,4,,,,,,,,7,06,,,,,,,,,,,7,3.337,1,,,,,,0.141666667,-0.401851908,1,0,0,3.3373,Peridotite_rect,3,0,3,0,1,
5658000ca9872d0011e1ba26,SCN,2024-06-20_16h28.46.625,LearnStrategy,2023.2.3,Win32,163.9344262,6,2,5,,,,,,,,3,16,,,,,,,,,,,3,2.938,1,,,,,,0.167129686,-0.240740797,1,0,0,2.9383,Diorite_rect,4,0,4,0,1,
5658000ca9872d0011e1ba26,SCN,2024-06-20_16h28.46.625,LearnStrategy,2023.2.3,Win32,163.9344262,6,2,6,,,,,,,,4,16,,,,,,,,,,,2,3.217,0,,,,,,-0.114814758,-0.25,1,0,0,3.2173,Basalt_rect,5,0,5,0,1,
5658000ca9872d0011e1ba26,SCN,2024-06-20_16h28.46.625,LearnStrategy,2023.2.3,Win32,163.9344262,6,2,7,,,,,,,,1,04,,,,,,,,,,,1,1.496,1,,,,,,-0.358796268,-0.237963019,1,0,0,1.4961,Andesite_rect,6,0,6,0,1,
5658000ca9872d0011e1ba26,SCN,2024-06-20_16h28.46.625,LearnStrategy,2023.2.3,Win32,163.9344262,6,2,8,,,,,,,,4,08,,,,,,,,,,,4,6.76,1,,,,,,0.376388889,-0.248611111,1,0,0,6.7602,Gabbro_rect,7,0,7,0,1,
5658000ca9872d0011e1ba26,SCN,2024-06-20_16h28.46.625,LearnStrategy,2023.2.3,Win32,163.9344262,6,2,9,,,,,,,,6,09,,,,,,,,,,,6,2.402,1,,,,,,-0.064351824,-0.387037065,1,0,0,2.4022,Pegmatite_rect,8,0,8,0,1,
5658000ca9872d0011e1ba26,SCN,2024-06-20_16h28.46.625,LearnStrategy,2023.2.3,Win32,163.9344262,6,2,10,,,,,,,,3,06,,,,,,,,,,,3,22.328,1,,,,,,0.181018575,-0.247222222,1,0,0,22.3278,Diorite_rect,9,0,9,0,1,
5658000ca9872d0011e1ba26,SCN,2024-06-20_16h28.46.625,LearnStrategy,2023.2.3,Win32,163.9344262,6,2,11,,,,,,,,2,08,,,,,,,,,,,2,1.354,1,,,,,,-0.113425869,-0.241203732,1,0,0,1.3543,Basalt_rect,10,0,10,0,1,
5658000ca9872d0011e1ba26,SCN,2024-06-20_16h28.46.625,LearnStrategy,2023.2.3,Win32,163.9344262,6,2,12,,,,,,,,6,05,,,,,,,,,,,6,2.682,1,,,,,,-0.098148092,-0.403703732,1,0,0,2.6816,Pegmatite_rect,11,0,11,0,1,
5658000ca9872d0011e1ba26,SCN,2024-06-20_16h28.46.625,LearnStrategy,2023.2.3,Win32,163.9344262,6,2,13,,,,,,,,8,02,,,,,,,,,,,8,1.902,1,,,,,,0.351851908,-0.398611111,1,0,0,1.9017,Pumice_rect,12,0,12,0,1,
5658000ca9872d0011e1ba26,SCN,2024-06-20_16h28.46.625,LearnStrategy,2023.2.3,Win32,163.9344262,6,2,14,,,,,,,,5,16,,,,,,,,,,,5,1.22,1,,,,,,-0.432870356,-0.396296353,1,0,0,1.2205,Obsidian_rect,13,0,13,0,1,
5658000ca9872d0011e1ba26,SCN,2024-06-20_16h28.46.625,LearnStrategy,2023.2.3,Win32,163.9344262,6,2,15,,,,,,,,8,06,,,,,,,,,,,8,1.431,1,,,,,,0.3625,-0.4125,1,0,0,1.4309,Pumice_rect,14,0,14,0,1,
5658000ca9872d0011e1ba26,SCN,2024-06-20_16h28.46.625,LearnStrategy,2023.2.3,Win32,163.9344262,6,2,16,,,,,,,,7,10,,,,,,,,,,,7,1.786,1,,,,,,0.159259288,-0.414814843,1,0,0,1.7861,Peridotite_rect,15,0,15,0,1,
5658000ca9872d0011e1ba26,SCN,2024-06-20_16h28.46.625,LearnStrategy,2023.2.3,Win32,163.9344262,7,1,1,0.063425954,0.2375,1,0,0,1.493,Gabbro_03,4,03,5,5,1.493,0.358333333,-0.255092621,1,0,0,0.7878,Gabbro_rect,4,0.788,1,0,0,0,0,1,,,,,,,,,,,,,
5658000ca9872d0011e1ba26,SCN,2024-06-20_16h28.46.625,LearnStrategy,2023.2.3,Win32,163.9344262,7,1,2,0.081018575,-0.23148151,1,0,0,3.3027,Diorite_11,3,11,2,5,3.303,0.310648176,-0.247685242,1,0,0,2.3535,Gabbro_rect,4,2.354,0,1,0,1,0,1,,,,,,,,,,,,,
5658000ca9872d0011e1ba26,SCN,2024-06-20_16h28.46.625,LearnStrategy,2023.2.3,Win32,163.9344262,7,1,3,0.093055556,-0.215277778,1,0,0,1.0444,Diorite_11,3,11,2,5,1.044,0.145833333,-0.24398151,1,0,0,0.7404,Diorite_rect,3,0.74,1,2,0,2,0,1,,,,,,,,,,,,,
5658000ca9872d0011e1ba26,SCN,2024-06-20_16h28.46.625,LearnStrategy,2023.2.3,Win32,163.9344262,7,1,4,0.279629686,-0.243055556,1,0,0,1.0661,Diorite_12,3,12,2,6,1.066,0.174537065,-0.231944444,1,0,0,1.602,Diorite_rect,3,1.602,1,3,0,3,0,1,,,,,,,,,,,,,
5658000ca9872d0011e1ba26,SCN,2024-06-20_16h28.46.625,LearnStrategy,2023.2.3,Win32,163.9344262,7,1,5,0.371296353,-0.262037065,1,0,0,1.0541,Diorite_10,3,10,2,7,1.054,0.163425954,-0.239351908,1,0,0,1.5536,Diorite_rect,3,1.554,1,4,0,4,0,1,,,,,,,,,,,,,
5658000ca9872d0011e1ba26,SCN,2024-06-20_16h28.46.625,LearnStrategy,2023.2.3,Win32,163.9344262,7,1,6,0.231944444,0.405092589,1,0,0,4.3371,Andesite_06,1,06,6,6,4.337,0.427314843,-0.2375,1,0,0,2.4072,Gabbro_rect,4,2.407,0,5,0,5,0,1,,,,,,,,,,,,,
5658000ca9872d0011e1ba26,SCN,2024-06-20_16h28.46.625,LearnStrategy,2023.2.3,Win32,163.9344262,7,1,7,0.210185242,0.275462956,1,0,0,2.4637,Gabbro_13,4,13,5,6,2.464,0.395833333,-0.244444444,1,0,0,1.2521,Gabbro_rect,4,1.252,1,6,0,6,0,1,,,,,,,,,,,,,
5658000ca9872d0011e1ba26,SCN,2024-06-20_16h28.46.625,LearnStrategy,2023.2.3,Win32,163.9344262,7,1,8,-0.075925869,0.245833333,1,0,0,2.1494,Gabbro_11,4,11,5,4,2.149,0.403240797,-0.254166667,1,0,0,1.5064,Gabbro_rect,4,1.506,1,7,0,7,0,1,,,,,,,,,,,,,
5658000ca9872d0011e1ba26,SCN,2024-06-20_16h28.46.625,LearnStrategy,2023.2.3,Win32,163.9344262,7,1,9,-0.359722222,0.236574067,1,0,0,3.5958,Gabbro_10,4,10,5,2,3.596,0.298611111,-0.242592621,1,0,0,2.8994,Gabbro_rect,4,2.899,1,8,0,8,0,1,,,,,,,,,,,,,
5658000ca9872d0011e1ba26,SCN,2024-06-20_16h28.46.625,LearnStrategy,2023.2.3,Win32,163.9344262,7,1,10,-0.366666667,-0.084722222,1,0,0,4.8222,Diorite_14,3,14,3,2,4.822,0.167592621,-0.254629686,1,0,0,1.9046,Diorite_rect,3,1.905,1,9,0,9,0,1,,,,,,,,,,,,,
5658000ca9872d0011e1ba26,SCN,2024-06-20_16h28.46.625,LearnStrategy,2023.2.3,Win32,163.9344262,7,1,11,0.233333333,-0.381944444,1,0,0,1.0078,Diorite_02,3,02,1,6,1.008,0.124537065,-0.261574131,1,0,0,0.701,Diorite_rect,3,0.701,1,10,0,10,0,1,,,,,,,,,,,,,
5658000ca9872d0011e1ba26,SCN,2024-06-20_16h28.46.625,LearnStrategy,2023.2.3,Win32,163.9344262,7,1,12,0.382870399,0.401388889,1,0,0,2.9616,Peridotite_14,7,14,6,7,2.962,0.155092621,-0.415740797,1,0,0,1.1191,Peridotite_rect,7,1.119,1,11,0,11,0,1,,,,,,,,,,,,,
5658000ca9872d0011e1ba26,SCN,2024-06-20_16h28.46.625,LearnStrategy,2023.2.3,Win32,163.9344262,7,1,13,-0.535648134,0.268518511,1,0,0,3.7875,Obsidian_07,5,07,5,1,3.788,-0.404166667,-0.390740797,1,0,0,1.2832,Obsidian_rect,5,1.283,1,12,0,12,0,1,,,,,,,,,,,,,
5658000ca9872d0011e1ba26,SCN,2024-06-20_16h28.46.625,LearnStrategy,2023.2.3,Win32,163.9344262,7,1,14,0.198611111,-0.382870399,1,0,0,1.709,Diorite_02,3,02,1,6,1.709,0.047222222,-0.230555556,1,0,0,1.0349,Diorite_rect,3,1.035,1,13,0,13,0,1,,,,,,,,,,,,,
5658000ca9872d0011e1ba26,SCN,2024-06-20_16h28.46.625,LearnStrategy,2023.2.3,Win32,163.9344262,7,1,15,-0.430555556,0.227777778,1,0,0,2.6903,Gabbro_10,4,10,5,2,2.69,0.3875,-0.260648176,1,0,0,1.2212,Gabbro_rect,4,1.221,1,14,0,14,0,1,,,,,,,,,,,,,
5658000ca9872d0011e1ba26,SCN,2024-06-20_16h28.46.625,LearnStrategy,2023.2.3,Win32,163.9344262,7,1,16,-0.260185157,0.240277778,1,0,0,1.0238,Basalt_06,2,06,5,3,1.024,-0.165277778,-0.250463019,1,0,0,1.6749,Basalt_rect,2,1.675,1,15,0,15,0,1,,,,,,,,,,,,,
5658000ca9872d0011e1ba26,SCN,2024-06-20_16h28.46.625,LearnStrategy,2023.2.3,Win32,163.9344262,7,2,1,,,,,,,,8,06,,,,,,,,,,,8,1.376,1,,,,,,0.416666667,-0.409259288,1,0,0,1.3761,Pumice_rect,0,0,0,0,1,
5658000ca9872d0011e1ba26,SCN,2024-06-20_16h28.46.625,LearnStrategy,2023.2.3,Win32,163.9344262,7,2,2,,,,,,,,5,12,,,,,,,,,,,5,1.221,1,,,,,,-0.355092578,-0.388888889,1,0,0,1.2206,Obsidian_rect,1,0,1,0,1,
5658000ca9872d0011e1ba26,SCN,2024-06-20_16h28.46.625,LearnStrategy,2023.2.3,Win32,163.9344262,7,2,3,,,,,,,,4,12,,,,,,,,,,,4,3.563,1,,,,,,0.353703732,-0.237037065,1,0,0,3.5627,Gabbro_rect,2,0,2,0,1,
5658000ca9872d0011e1ba26,SCN,2024-06-20_16h28.46.625,LearnStrategy,2023.2.3,Win32,163.9344262,7,2,4,,,,,,,,1,07,,,,,,,,,,,1,1.473,1,,,,,,-0.386574046,-0.269907464,1,0,0,1.4726,Andesite_rect,3,0,3,0,1,
5658000ca9872d0011e1ba26,SCN,2024-06-20_16h28.46.625,LearnStrategy,2023.2.3,Win32,163.9344262,7,2,5,,,,,,,,7,04,,,,,,,,,,,7,4.768,1,,,,,,0.113425954,-0.398611111,1,0,0,4.7678,Peridotite_rect,4,0,4,0,1,
5658000ca9872d0011e1ba26,SCN,2024-06-20_16h28.46.625,LearnStrategy,2023.2.3,Win32,163.9344262,7,2,6,,,,,,,,4,15,,,,,,,,,,,4,1.712,1,,,,,,0.366666667,-0.232870399,1,0,0,1.7123,Gabbro_rect,5,0,5,0,1,
5658000ca9872d0011e1ba26,SCN,2024-06-20_16h28.46.625,LearnStrategy,2023.2.3,Win32,163.9344262,7,2,7,,,,,,,,1,16,,,,,,,,,,,1,1.925,1,,,,,,-0.457870356,-0.240277778,1,0,0,1.9255,Andesite_rect,6,0,6,0,1,
5658000ca9872d0011e1ba26,SCN,2024-06-20_16h28.46.625,LearnStrategy,2023.2.3,Win32,163.9344262,7,2,8,,,,,,,,5,16,,,,,,,,,,,5,1.168,1,,,,,,-0.36851849,-0.414814843,1,0,0,1.1682,Obsidian_rect,7,0,7,0,1,
5658000ca9872d0011e1ba26,SCN,2024-06-20_16h28.46.625,LearnStrategy,2023.2.3,Win32,163.9344262,7,2,9,,,,,,,,6,06,,,,,,,,,,,6,1.65,1,,,,,,-0.136111111,-0.395833333,1,0,0,1.6504,Pegmatite_rect,8,0,8,0,1,
5658000ca9872d0011e1ba26,SCN,2024-06-20_16h28.46.625,LearnStrategy,2023.2.3,Win32,163.9344262,7,2,10,,,,,,,,3,07,,,,,,,,,,,1,12.338,0,,,,,,-0.357407379,-0.244907464,1,0,0,12.3379,Andesite_rect,9,0,9,0,1,
5658000ca9872d0011e1ba26,SCN,2024-06-20_16h28.46.625,LearnStrategy,2023.2.3,Win32,163.9344262,7,2,11,,,,,,,,2,08,,,,,,,,,,,2,1.121,1,,,,,,-0.085648092,-0.261574131,1,0,0,1.1211,Basalt_rect,10,0,10,0,1,
5658000ca9872d0011e1ba26,SCN,2024-06-20_16h28.46.625,LearnStrategy,2023.2.3,Win32,163.9344262,7,2,12,,,,,,,,2,14,,,,,,,,,,,8,1.907,0,,,,,,0.438888889,-0.394907464,1,0,0,1.9065,Pumice_rect,11,0,11,0,1,
5658000ca9872d0011e1ba26,SCN,2024-06-20_16h28.46.625,LearnStrategy,2023.2.3,Win32,163.9344262,7,2,13,,,,,,,,6,11,,,,,,,,,,,6,1.855,1,,,,,,-0.150462935,-0.397222222,1,0,0,1.855,Pegmatite_rect,12,0,12,0,1,
5658000ca9872d0011e1ba26,SCN,2024-06-20_16h28.46.625,LearnStrategy,2023.2.3,Win32,163.9344262,7,2,14,,,,,,,,8,04,,,,,,,,,,,8,1.433,1,,,,,,0.377777778,-0.39398151,1,0,0,1.4325,Pumice_rect,13,0,13,0,1,
5658000ca9872d0011e1ba26,SCN,2024-06-20_16h28.46.625,LearnStrategy,2023.2.3,Win32,163.9344262,7,2,15,,,,,,,,7,07,,,,,,,,,,,7,1.713,1,,,,,,0.118055556,-0.396296353,1,0,0,1.7133,Peridotite_rect,14,0,14,0,1,
5658000ca9872d0011e1ba26,SCN,2024-06-20_16h28.46.625,LearnStrategy,2023.2.3,Win32,163.9344262,7,2,16,,,,,,,,3,16,,,,,,,,,,,3,3.739,1,,,,,,0.195370399,-0.230555556,1,0,0,3.739,Diorite_rect,15,0,15,0,1,
5658000ca9872d0011e1ba26,SCN,2024-06-20_16h28.46.625,LearnStrategy,2023.2.3,Win32,163.9344262,8,1,1,-0.2375,0.0625,1,0,0,3.9451,Andesite_10,1,10,4,3,3.945,0.368518575,-0.243055556,1,0,0,2.0057,Gabbro_rect,4,2.006,0,0,0,0,0,1,,,,,,,,,,,,,
5658000ca9872d0011e1ba26,SCN,2024-06-20_16h28.46.625,LearnStrategy,2023.2.3,Win32,163.9344262,8,1,2,0.087963019,0.243981467,1,0,0,1.4114,Gabbro_03,4,03,5,5,1.411,0.337037065,-0.242129686,1,0,0,0.8202,Gabbro_rect,4,0.82,1,1,0,1,0,1,,,,,,,,,,,,,
5658000ca9872d0011e1ba26,SCN,2024-06-20_16h28.46.625,LearnStrategy,2023.2.3,Win32,163.9344262,8,1,3,-0.376388889,0.250925912,1,0,0,2.5896,Gabbro_10,4,10,5,2,2.59,0.356018575,-0.250463019,1,0,0,1.2848,Gabbro_rect,4,1.285,1,2,0,2,0,1,,,,,,,,,,,,,
5658000ca9872d0011e1ba26,SCN,2024-06-20_16h28.46.625,LearnStrategy,2023.2.3,Win32,163.9344262,8,1,4,0.524074131,-0.423148176,1,0,0,3.1454,Andesite_02,1,02,1,8,3.145,0.348148176,-0.228703732,1,0,0,3.538,Gabbro_rect,4,3.538,0,3,0,3,0,1,,,,,,,,,,,,,
5658000ca9872d0011e1ba26,SCN,2024-06-20_16h28.46.625,LearnStrategy,2023.2.3,Win32,163.9344262,8,1,5,0.552314928,-0.424537065,1,0,0,2.2452,Andesite_02,1,02,1,8,2.245,-0.354629601,-0.253240797,1,0,0,0.7868,Andesite_rect,1,0.787,1,4,0,4,0,1,,,,,,,,,,,,,
5658000ca9872d0011e1ba26,SCN,2024-06-20_16h28.46.625,LearnStrategy,2023.2.3,Win32,163.9344262,8,1,6,-0.525,-0.236111111,1,0,0,4.5228,Pumice_09,8,09,2,1,4.523,0.352314843,-0.412037065,1,0,0,1.7347,Pumice_rect,8,1.735,1,5,0,5,0,1,,,,,,,,,,,,,
5658000ca9872d0011e1ba26,SCN,2024-06-20_16h28.46.625,LearnStrategy,2023.2.3,Win32,163.9344262,8,1,7,0.253240797,-0.097685199,1,0,0,1.5872,Basalt_16,2,16,3,6,1.587,-0.121759203,-0.244444444,1,0,0,1.2069,Basalt_rect,2,1.207,1,6,0,6,0,1,,,,,,,,,,,,,
5658000ca9872d0011e1ba26,SCN,2024-06-20_16h28.46.625,LearnStrategy,2023.2.3,Win32,163.9344262,8,1,8,0.4,-0.102777778,1,0,0,2.7024,Pumice_14,8,14,3,7,2.702,0.360648176,-0.400463019,1,0,0,1.2697,Pumice_rect,8,1.27,1,7,0,7,0,1,,,,,,,,,,,,,
5658000ca9872d0011e1ba26,SCN,2024-06-20_16h28.46.625,LearnStrategy,2023.2.3,Win32,163.9344262,8,1,9,0.228703732,-0.264814843,1,0,0,0.9084,Diorite_12,3,12,2,6,0.908,0.378240797,-0.254166667,1,0,0,3.5202,Gabbro_rect,4,3.52,0,8,0,8,0,1,,,,,,,,,,,,,
5658000ca9872d0011e1ba26,SCN,2024-06-20_16h28.46.625,LearnStrategy,2023.2.3,Win32,163.9344262,8,1,10,0.108796353,-0.252777778,1,0,0,1.3391,Diorite_11,3,11,2,5,1.339,0.125463019,-0.233333333,1,0,0,0.8465,Diorite_rect,3,0.847,1,9,0,9,0,1,,,,,,,,,,,,,
5658000ca9872d0011e1ba26,SCN,2024-06-20_16h28.46.625,LearnStrategy,2023.2.3,Win32,163.9344262,8,1,11,0.216203732,-0.390277778,1,0,0,1.5388,Diorite_02,3,02,1,6,1.539,0.153703732,-0.259259288,1,0,0,0.6368,Diorite_rect,3,0.637,1,10,0,10,0,1,,,,,,,,,,,,,
5658000ca9872d0011e1ba26,SCN,2024-06-20_16h28.46.625,LearnStrategy,2023.2.3,Win32,163.9344262,8,1,12,0.566666667,-0.233333333,1,0,0,4.2296,Basalt_02,2,02,2,8,4.23,-0.100462935,-0.245833333,1,0,0,0.962,Basalt_rect,2,0.962,1,11,0,11,0,1,,,,,,,,,,,,,
5658000ca9872d0011e1ba26,SCN,2024-06-20_16h28.46.625,LearnStrategy,2023.2.3,Win32,163.9344262,8,1,13,-0.236574046,-0.4125,1,0,0,1.9585,Andesite_05,1,05,1,3,1.958,-0.353240712,-0.262963019,1,0,0,0.9325,Andesite_rect,1,0.932,1,12,0,12,0,1,,,,,,,,,,,,,
5658000ca9872d0011e1ba26,SCN,2024-06-20_16h28.46.625,LearnStrategy,2023.2.3,Win32,163.9344262,8,1,14,-0.058796268,0.375,1,0,0,3.994,Peridotite_05,7,05,6,4,3.994,0.122222222,-0.389814843,1,0,0,1.3864,Peridotite_rect,7,1.386,1,13,0,13,0,1,,,,,,,,,,,,,
5658000ca9872d0011e1ba26,SCN,2024-06-20_16h28.46.625,LearnStrategy,2023.2.3,Win32,163.9344262,8,1,15,0.403240797,0.249074067,1,0,0,1.711,Peridotite_02,7,02,5,7,1.711,0.162037065,-0.420370399,1,0,0,1.1424,Peridotite_rect,7,1.142,1,14,0,14,0,1,,,,,,,,,,,,,
5658000ca9872d0011e1ba26,SCN,2024-06-20_16h28.46.625,LearnStrategy,2023.2.3,Win32,163.9344262,8,1,16,0.256018575,0.376388889,1,0,0,8.9821,Andesite_06,1,06,6,6,8.982,-0.374537023,-0.268518575,1,0,0,3.2946,Andesite_rect,1,3.295,1,15,0,15,0,1,,,,,,,,,,,,,
5658000ca9872d0011e1ba26,SCN,2024-06-20_16h28.46.625,LearnStrategy,2023.2.3,Win32,163.9344262,8,2,1,,,,,,,,1,09,,,,,,,,,,,1,2.351,1,,,,,,-0.344444444,-0.241666667,1,0,0,2.3506,Andesite_rect,0,0,0,0,1,
5658000ca9872d0011e1ba26,SCN,2024-06-20_16h28.46.625,LearnStrategy,2023.2.3,Win32,163.9344262,8,2,2,,,,,,,,5,08,,,,,,,,,,,5,1.13,1,,,,,,-0.343055556,-0.398148176,1,0,0,1.1304,Obsidian_rect,1,0,1,0,1,
5658000ca9872d0011e1ba26,SCN,2024-06-20_16h28.46.625,LearnStrategy,2023.2.3,Win32,163.9344262,8,2,3,,,,,,,,4,05,,,,,,,,,,,7,2.078,0,,,,,,0.13148151,-0.401388889,1,0,0,2.0783,Peridotite_rect,2,0,2,0,1,
5658000ca9872d0011e1ba26,SCN,2024-06-20_16h28.46.625,LearnStrategy,2023.2.3,Win32,163.9344262,8,2,4,,,,,,,,2,11,,,,,,,,,,,8,2.85,0,,,,,,0.400925954,-0.409259288,1,0,0,2.8496,Pumice_rect,3,0,3,0,1,
5658000ca9872d0011e1ba26,SCN,2024-06-20_16h28.46.625,LearnStrategy,2023.2.3,Win32,163.9344262,8,2,5,,,,,,,,7,13,,,,,,,,,,,7,1.792,1,,,,,,0.113425954,-0.402777778,1,0,0,1.7919,Peridotite_rect,4,0,4,0,1,
5658000ca9872d0011e1ba26,SCN,2024-06-20_16h28.46.625,LearnStrategy,2023.2.3,Win32,163.9344262,8,2,6,,,,,,,,6,16,,,,,,,,,,,6,3.333,1,,,,,,-0.070833333,-0.399537065,1,0,0,3.333,Pegmatite_rect,5,0,5,0,1,
5658000ca9872d0011e1ba26,SCN,2024-06-20_16h28.46.625,LearnStrategy,2023.2.3,Win32,163.9344262,8,2,7,,,,,,,,6,09,,,,,,,,,,,6,1.928,1,,,,,,-0.138425869,-0.388425954,1,0,0,1.9282,Pegmatite_rect,6,0,6,0,1,
5658000ca9872d0011e1ba26,SCN,2024-06-20_16h28.46.625,LearnStrategy,2023.2.3,Win32,163.9344262,8,2,8,,,,,,,,3,08,,,,,,,,,,,3,1.785,1,,,,,,0.124537065,-0.253240797,1,0,0,1.7851,Diorite_rect,7,0,7,0,1,
5658000ca9872d0011e1ba26,SCN,2024-06-20_16h28.46.625,LearnStrategy,2023.2.3,Win32,163.9344262,8,2,9,,,,,,,,2,05,,,,,,,,,,,2,1.203,1,,,,,,-0.071759203,-0.250463019,1,0,0,1.2029,Basalt_rect,8,0,8,0,1,
5658000ca9872d0011e1ba26,SCN,2024-06-20_16h28.46.625,LearnStrategy,2023.2.3,Win32,163.9344262,8,2,10,,,,,,,,4,08,,,,,,,,,,,4,1.979,1,,,,,,0.404629686,-0.242129686,1,0,0,1.9791,Gabbro_rect,9,0,9,0,1,
5658000ca9872d0011e1ba26,SCN,2024-06-20_16h28.46.625,LearnStrategy,2023.2.3,Win32,163.9344262,8,2,11,,,,,,,,1,04,,,,,,,,,,,1,1.555,1,,,,,,-0.435185157,-0.243518575,1,0,0,1.5554,Andesite_rect,10,0,10,0,1,
5658000ca9872d0011e1ba26,SCN,2024-06-20_16h28.46.625,LearnStrategy,2023.2.3,Win32,163.9344262,8,2,12,,,,,,,,8,15,,,,,,,,,,,8,1.351,1,,,,,,0.393518575,-0.400463019,1,0,0,1.3509,Pumice_rect,11,0,11,0,1,
5658000ca9872d0011e1ba26,SCN,2024-06-20_16h28.46.625,LearnStrategy,2023.2.3,Win32,163.9344262,8,2,13,,,,,,,,3,13,,,,,,,,,,,4,5.312,0,,,,,,0.35,-0.242129686,1,0,0,5.3118,Gabbro_rect,12,0,12,0,1,
5658000ca9872d0011e1ba26,SCN,2024-06-20_16h28.46.625,LearnStrategy,2023.2.3,Win32,163.9344262,8,2,14,,,,,,,,8,13,,,,,,,,,,,8,2.447,1,,,,,,0.361574131,-0.410185242,1,0,0,2.4469,Pumice_rect,13,0,13,0,1,
5658000ca9872d0011e1ba26,SCN,2024-06-20_16h28.46.625,LearnStrategy,2023.2.3,Win32,163.9344262,8,2,15,,,,,,,,7,10,,,,,,,,,,,7,1.915,1,,,,,,0.106944444,-0.400925954,1,0,0,1.9149,Peridotite_rect,14,0,14,0,1,
5658000ca9872d0011e1ba26,SCN,2024-06-20_16h28.46.625,LearnStrategy,2023.2.3,Win32,163.9344262,8,2,16,,,,,,,,5,04,,,,,,,,,,,5,1.454,1,,,,,,-0.438425912,-0.404629686,1,0,0,1.4542,Obsidian_rect,15,0,15,0,1,
5658000ca9872d0011e1ba26,SCN,2024-06-20_16h28.46.625,LearnStrategy,2023.2.3,Win32,163.9344262,9,1,1,0.258333333,0.121759245,1,0,0,5.2603,Pegmatite_08,6,08,4,6,5.26,-0.124074046,-0.409259288,1,0,0,1.3332,Pegmatite_rect,6,1.333,1,0,0,0,0,1,,,,,,,,,,,,,
5658000ca9872d0011e1ba26,SCN,2024-06-20_16h28.46.625,LearnStrategy,2023.2.3,Win32,163.9344262,9,1,2,0.224074131,-0.262963019,1,0,0,1.826,Diorite_12,3,12,2,6,1.826,0.129629686,-0.256018575,1,0,0,2.4102,Diorite_rect,3,2.41,1,1,0,1,0,1,,,,,,,,,,,,,
5658000ca9872d0011e1ba26,SCN,2024-06-20_16h28.46.625,LearnStrategy,2023.2.3,Win32,163.9344262,9,1,3,0.271296353,0.416666667,1,0,0,0.7894,Andesite_06,1,06,6,6,0.789,0.368055556,-0.239351908,1,0,0,1.9208,Gabbro_rect,4,1.921,0,2,0,2,0,1,,,,,,,,,,,,,
5658000ca9872d0011e1ba26,SCN,2024-06-20_16h28.46.625,LearnStrategy,2023.2.3,Win32,163.9344262,9,1,4,0.091666667,0.254629623,1,0,0,1.0049,Gabbro_03,4,03,5,5,1.005,0.427314843,-0.254629686,1,0,0,1.31,Gabbro_rect,4,1.31,1,3,0,3,0,1,,,,,,,,,,,,,
5658000ca9872d0011e1ba26,SCN,2024-06-20_16h28.46.625,LearnStrategy,2023.2.3,Win32,163.9344262,9,1,5,-0.370833333,0.411574072,1,0,0,2.0842,Andesite_14,1,14,6,2,2.084,0.349537065,-0.252777778,1,0,0,2.8044,Gabbro_rect,4,2.804,0,4,0,4,0,1,,,,,,,,,,,,,
5658000ca9872d0011e1ba26,SCN,2024-06-20_16h28.46.625,LearnStrategy,2023.2.3,Win32,163.9344262,9,1,6,0.252314843,-0.427777778,1,0,0,6.9129,Diorite_02,3,02,1,6,6.913,0.187037065,-0.251388889,1,0,0,0.6679,Diorite_rect,3,0.668,1,5,0,5,0,1,,,,,,,,,,,,,
5658000ca9872d0011e1ba26,SCN,2024-06-20_16h28.46.625,LearnStrategy,2023.2.3,Win32,163.9344262,9,1,7,0.243518575,-0.251388889,1,0,0,1.4562,Diorite_12,3,12,2,6,1.456,0.162037065,-0.257407464,1,0,0,0.7674,Diorite_rect,3,0.767,1,6,0,6,0,1,,,,,,,,,,,,,
5658000ca9872d0011e1ba26,SCN,2024-06-20_16h28.46.625,LearnStrategy,2023.2.3,Win32,163.9344262,9,1,8,0.079629686,-0.247222222,1,0,0,0.5904,Diorite_11,3,11,2,5,0.59,0.127314843,-0.252777778,1,0,0,0.5178,Diorite_rect,3,0.518,1,7,0,7,0,1,,,,,,,,,,,,,
5658000ca9872d0011e1ba26,SCN,2024-06-20_16h28.46.625,LearnStrategy,2023.2.3,Win32,163.9344262,9,1,9,0.381018575,-0.244444444,1,0,0,0.6419,Diorite_10,3,10,2,7,0.642,0.099537065,-0.235185242,1,0,0,0.6743,Diorite_rect,3,0.674,1,8,0,8,0,1,,,,,,,,,,,,,
5658000ca9872d0011e1ba26,SCN,2024-06-20_16h28.46.625,LearnStrategy,2023.2.3,Win32,163.9344262,9,1,10,0.543055556,-0.24398151,1,0,0,0.9872,Basalt_02,2,02,2,8,0.987,-0.150462935,-0.258333333,1,0,0,0.7117,Basalt_rect,2,0.712,1,9,0,9,0,1,,,,,,,,,,,,,
5658000ca9872d0011e1ba26,SCN,2024-06-20_16h28.46.625,LearnStrategy,2023.2.3,Win32,163.9344262,9,1,11,0.553703817,-0.078240755,1,0,0,2.0973,Pegmatite_13,6,13,3,8,2.097,-0.073148092,-0.395833333,1,0,0,0.8305,Pegmatite_rect,6,0.831,1,10,0,10,0,1,,,,,,,,,,,,,
5658000ca9872d0011e1ba26,SCN,2024-06-20_16h28.46.625,LearnStrategy,2023.2.3,Win32,163.9344262,9,1,12,0.57453715,0.284722222,1,0,0,1.2964,Basalt_10,2,10,5,8,1.296,-0.134259203,-0.251851908,1,0,0,0.7235,Basalt_rect,2,0.724,1,11,0,11,0,1,,,,,,,,,,,,,
5658000ca9872d0011e1ba26,SCN,2024-06-20_16h28.46.625,LearnStrategy,2023.2.3,Win32,163.9344262,9,1,13,0.225,0.398148145,1,0,0,2.3267,Andesite_06,1,06,6,6,2.327,-0.35601849,-0.250925954,1,0,0,1.0381,Andesite_rect,1,1.038,1,12,0,12,0,1,,,,,,,,,,,,,
5658000ca9872d0011e1ba26,SCN,2024-06-20_16h28.46.625,LearnStrategy,2023.2.3,Win32,163.9344262,9,1,14,-0.382870356,-0.088425954,1,0,0,4.6625,Diorite_14,3,14,3,2,4.663,0.108333333,-0.255555556,1,0,0,1.631,Diorite_rect,3,1.631,1,13,0,13,0,1,,,,,,,,,,,,,
5658000ca9872d0011e1ba26,SCN,2024-06-20_16h28.46.625,LearnStrategy,2023.2.3,Win32,163.9344262,9,1,15,-0.241666667,-0.273148176,1,0,0,2.6054,Gabbro_14,4,14,2,3,2.605,0.326851908,-0.250925954,1,0,0,1.762,Gabbro_rect,4,1.762,1,14,0,14,0,1,,,,,,,,,,,,,
5658000ca9872d0011e1ba26,SCN,2024-06-20_16h28.46.625,LearnStrategy,2023.2.3,Win32,163.9344262,9,1,16,0.222685242,0.265277778,1,0,0,3.1024,Gabbro_13,4,13,5,6,3.102,0.435648176,-0.253703732,1,0,0,0.9139,Gabbro_rect,4,0.914,1,15,0,15,0,1,,,,,,,,,,,,,
5658000ca9872d0011e1ba26,SCN,2024-06-20_16h28.46.625,LearnStrategy,2023.2.3,Win32,163.9344262,9,2,1,,,,,,,,5,02,,,,,,,,,,,5,1.199,1,,,,,,-0.374074046,-0.404166667,1,0,0,1.1991,Obsidian_rect,0,0,0,0,1,
5658000ca9872d0011e1ba26,SCN,2024-06-20_16h28.46.625,LearnStrategy,2023.2.3,Win32,163.9344262,9,2,2,,,,,,,,8,03,,,,,,,,,,,8,1.529,1,,,,,,0.340740797,-0.3875,1,0,0,1.5291,Pumice_rect,1,0,1,0,1,
5658000ca9872d0011e1ba26,SCN,2024-06-20_16h28.46.625,LearnStrategy,2023.2.3,Win32,163.9344262,9,2,3,,,,,,,,4,16,,,,,,,,,,,2,2.899,0,,,,,,-0.125925869,-0.244444444,1,0,0,2.8993,Basalt_rect,2,0,2,0,1,
5658000ca9872d0011e1ba26,SCN,2024-06-20_16h28.46.625,LearnStrategy,2023.2.3,Win32,163.9344262,9,2,4,,,,,,,,2,01,,,,,,,,,,,2,1.084,1,,,,,,-0.132870314,-0.2375,1,0,0,1.0838,Basalt_rect,3,0,3,0,1,
5658000ca9872d0011e1ba26,SCN,2024-06-20_16h28.46.625,LearnStrategy,2023.2.3,Win32,163.9344262,9,2,5,,,,,,,,8,02,,,,,,,,,,,8,1.421,1,,,,,,0.354166667,-0.391666667,1,0,0,1.4212,Pumice_rect,4,0,4,0,1,
5658000ca9872d0011e1ba26,SCN,2024-06-20_16h28.46.625,LearnStrategy,2023.2.3,Win32,163.9344262,9,2,6,,,,,,,,1,11,,,,,,,,,,,1,1.416,1,,,,,,-0.397685157,-0.239814843,1,0,0,1.4157,Andesite_rect,5,0,5,0,1,
5658000ca9872d0011e1ba26,SCN,2024-06-20_16h28.46.625,LearnStrategy,2023.2.3,Win32,163.9344262,9,2,7,,,,,,,,4,09,,,,,,,,,,,1,4.911,0,,,,,,-0.363888889,-0.255092621,1,0,0,4.9114,Andesite_rect,6,0,6,0,1,
5658000ca9872d0011e1ba26,SCN,2024-06-20_16h28.46.625,LearnStrategy,2023.2.3,Win32,163.9344262,9,2,8,,,,,,,,7,06,,,,,,,,,,,7,2.112,1,,,,,,0.094444444,-0.411111111,1,0,0,2.1121,Peridotite_rect,7,0,7,0,1,
5658000ca9872d0011e1ba26,SCN,2024-06-20_16h28.46.625,LearnStrategy,2023.2.3,Win32,163.9344262,9,2,9,,,,,,,,6,07,,,,,,,,,,,6,1.622,1,,,,,,-0.128240712,-0.395370399,1,0,0,1.6216,Pegmatite_rect,8,0,8,0,1,
5658000ca9872d0011e1ba26,SCN,2024-06-20_16h28.46.625,LearnStrategy,2023.2.3,Win32,163.9344262,9,2,10,,,,,,,,2,04,,,,,,,,,,,2,1.175,1,,,,,,-0.143981425,-0.25,1,0,0,1.1752,Basalt_rect,9,0,9,0,1,
5658000ca9872d0011e1ba26,SCN,2024-06-20_16h28.46.625,LearnStrategy,2023.2.3,Win32,163.9344262,9,2,11,,,,,,,,3,06,,,,,,,,,,,3,4.871,1,,,,,,0.162963019,-0.2625,1,0,0,4.8707,Diorite_rect,10,0,10,0,1,
5658000ca9872d0011e1ba26,SCN,2024-06-20_16h28.46.625,LearnStrategy,2023.2.3,Win32,163.9344262,9,2,12,,,,,,,,1,01,,,,,,,,,,,4,7.72,0,,,,,,0.388888889,-0.250925954,1,0,0,7.7196,Gabbro_rect,11,0,11,0,1,
5658000ca9872d0011e1ba26,SCN,2024-06-20_16h28.46.625,LearnStrategy,2023.2.3,Win32,163.9344262,9,2,13,,,,,,,,7,12,,,,,,,,,,,7,2.547,1,,,,,,0.140277778,-0.4,1,0,0,2.5473,Peridotite_rect,12,0,12,0,1,
5658000ca9872d0011e1ba26,SCN,2024-06-20_16h28.46.625,LearnStrategy,2023.2.3,Win32,163.9344262,9,2,14,,,,,,,,5,14,,,,,,,,,,,5,1.299,1,,,,,,-0.460185157,-0.400925954,1,0,0,1.2986,Obsidian_rect,13,0,13,0,1,
5658000ca9872d0011e1ba26,SCN,2024-06-20_16h28.46.625,LearnStrategy,2023.2.3,Win32,163.9344262,9,2,15,,,,,,,,6,05,,,,,,,,,,,6,2.353,1,,,,,,-0.172222222,-0.409259288,1,0,0,2.3532,Pegmatite_rect,14,0,14,0,1,
5658000ca9872d0011e1ba26,SCN,2024-06-20_16h28.46.625,LearnStrategy,2023.2.3,Win32,163.9344262,9,2,16,,,,,,,,3,09,,,,,,,,,,,3,3.089,1,,,,,,0.161111111,-0.256018575,1,0,0,3.089,Diorite_rect,15,0,15,0,1,
5658000ca9872d0011e1ba26,SCN,2024-06-20_16h28.46.625,LearnStrategy,2023.2.3,Win32,163.9344262,,,,,,,,,,,,,,,,,,,,,,,,,,,,,,,,,,,,,,,,,,,1
5658000ca9872d0011e1ba26,SCN,2024-06-20_16h28.46.625,LearnStrategy,2023.2.3,Win32,163.9344262,,,,,,,,,,,,,,,,,,,,,,,,,,,,,,,,,,,,,,,,,,,
5658000ca9872d0011e1ba26,SCN,2024-06-20_16h28.46.625,LearnStrategy,2023.2.3,Win32,163.9344262,,,,,,,,,,,8,16,1,1,,,,,,,,,,,,,,,,,,,,,,,,,,,,,
5658000ca9872d0011e1ba26,SCN,2024-06-20_16h28.46.625,LearnStrategy,2023.2.3,Win32,163.9344262,,,,,,,,,,,5,05,1,2,,,,,,,,,,,,,,,,,,,,,,,,,,,,,
5658000ca9872d0011e1ba26,SCN,2024-06-20_16h28.46.625,LearnStrategy,2023.2.3,Win32,163.9344262,,,,,,,,,,,1,05,1,3,,,,,,,,,,,,,,,,,,,,,,,,,,,,,
5658000ca9872d0011e1ba26,SCN,2024-06-20_16h28.46.625,LearnStrategy,2023.2.3,Win32,163.9344262,,,,,,,,,,,2,09,1,4,,,,,,,,,,,,,,,,,,,,,,,,,,,,,
5658000ca9872d0011e1ba26,SCN,2024-06-20_16h28.46.625,LearnStrategy,2023.2.3,Win32,163.9344262,,,,,,,,,,,5,11,1,5,,,,,,,,,,,,,,,,,,,,,,,,,,,,,
5658000ca9872d0011e1ba26,SCN,2024-06-20_16h28.46.625,LearnStrategy,2023.2.3,Win32,163.9344262,,,,,,,,,,,3,02,1,6,,,,,,,,,,,,,,,,,,,,,,,,,,,,,
5658000ca9872d0011e1ba26,SCN,2024-06-20_16h28.46.625,LearnStrategy,2023.2.3,Win32,163.9344262,,,,,,,,,,,5,09,1,7,,,,,,,,,,,,,,,,,,,,,,,,,,,,,
5658000ca9872d0011e1ba26,SCN,2024-06-20_16h28.46.625,LearnStrategy,2023.2.3,Win32,163.9344262,,,,,,,,,,,1,02,1,8,,,,,,,,,,,,,,,,,,,,,,,,,,,,,
5658000ca9872d0011e1ba26,SCN,2024-06-20_16h28.46.625,LearnStrategy,2023.2.3,Win32,163.9344262,,,,,,,,,,,8,09,2,1,,,,,,,,,,,,,,,,,,,,,,,,,,,,,
5658000ca9872d0011e1ba26,SCN,2024-06-20_16h28.46.625,LearnStrategy,2023.2.3,Win32,163.9344262,,,,,,,,,,,6,15,2,2,,,,,,,,,,,,,,,,,,,,,,,,,,,,,
5658000ca9872d0011e1ba26,SCN,2024-06-20_16h28.46.625,LearnStrategy,2023.2.3,Win32,163.9344262,,,,,,,,,,,4,14,2,3,,,,,,,,,,,,,,,,,,,,,,,,,,,,,
5658000ca9872d0011e1ba26,SCN,2024-06-20_16h28.46.625,LearnStrategy,2023.2.3,Win32,163.9344262,,,,,,,,,,,6,10,2,4,,,,,,,,,,,,,,,,,,,,,,,,,,,,,
5658000ca9872d0011e1ba26,SCN,2024-06-20_16h28.46.625,LearnStrategy,2023.2.3,Win32,163.9344262,,,,,,,,,,,3,11,2,5,,,,,,,,,,,,,,,,,,,,,,,,,,,,,
5658000ca9872d0011e1ba26,SCN,2024-06-20_16h28.46.625,LearnStrategy,2023.2.3,Win32,163.9344262,,,,,,,,,,,3,12,2,6,,,,,,,,,,,,,,,,,,,,,,,,,,,,,
5658000ca9872d0011e1ba26,SCN,2024-06-20_16h28.46.625,LearnStrategy,2023.2.3,Win32,163.9344262,,,,,,,,,,,3,10,2,7,,,,,,,,,,,,,,,,,,,,,,,,,,,,,
5658000ca9872d0011e1ba26,SCN,2024-06-20_16h28.46.625,LearnStrategy,2023.2.3,Win32,163.9344262,,,,,,,,,,,2,02,2,8,,,,,,,,,,,,,,,,,,,,,,,,,,,,,
5658000ca9872d0011e1ba26,SCN,2024-06-20_16h28.46.625,LearnStrategy,2023.2.3,Win32,163.9344262,,,,,,,,,,,7,08,3,1,,,,,,,,,,,,,,,,,,,,,,,,,,,,,
5658000ca9872d0011e1ba26,SCN,2024-06-20_16h28.46.625,LearnStrategy,2023.2.3,Win32,163.9344262,,,,,,,,,,,3,14,3,2,,,,,,,,,,,,,,,,,,,,,,,,,,,,,
5658000ca9872d0011e1ba26,SCN,2024-06-20_16h28.46.625,LearnStrategy,2023.2.3,Win32,163.9344262,,,,,,,,,,,2,12,3,3,,,,,,,,,,,,,,,,,,,,,,,,,,,,,
5658000ca9872d0011e1ba26,SCN,2024-06-20_16h28.46.625,LearnStrategy,2023.2.3,Win32,163.9344262,,,,,,,,,,,1,03,3,4,,,,,,,,,,,,,,,,,,,,,,,,,,,,,
5658000ca9872d0011e1ba26,SCN,2024-06-20_16h28.46.625,LearnStrategy,2023.2.3,Win32,163.9344262,,,,,,,,,,,7,15,3,5,,,,,,,,,,,,,,,,,,,,,,,,,,,,,
5658000ca9872d0011e1ba26,SCN,2024-06-20_16h28.46.625,LearnStrategy,2023.2.3,Win32,163.9344262,,,,,,,,,,,2,16,3,6,,,,,,,,,,,,,,,,,,,,,,,,,,,,,
5658000ca9872d0011e1ba26,SCN,2024-06-20_16h28.46.625,LearnStrategy,2023.2.3,Win32,163.9344262,,,,,,,,,,,8,14,3,7,,,,,,,,,,,,,,,,,,,,,,,,,,,,,
5658000ca9872d0011e1ba26,SCN,2024-06-20_16h28.46.625,LearnStrategy,2023.2.3,Win32,163.9344262,,,,,,,,,,,6,13,3,8,,,,,,,,,,,,,,,,,,,,,,,,,,,,,
5658000ca9872d0011e1ba26,SCN,2024-06-20_16h28.46.625,LearnStrategy,2023.2.3,Win32,163.9344262,,,,,,,,,,,7,16,4,1,,,,,,,,,,,,,,,,,,,,,,,,,,,,,
5658000ca9872d0011e1ba26,SCN,2024-06-20_16h28.46.625,LearnStrategy,2023.2.3,Win32,163.9344262,,,,,,,,,,,8,05,4,2,,,,,,,,,,,,,,,,,,,,,,,,,,,,,
5658000ca9872d0011e1ba26,SCN,2024-06-20_16h28.46.625,LearnStrategy,2023.2.3,Win32,163.9344262,,,,,,,,,,,1,10,4,3,,,,,,,,,,,,,,,,,,,,,,,,,,,,,
5658000ca9872d0011e1ba26,SCN,2024-06-20_16h28.46.625,LearnStrategy,2023.2.3,Win32,163.9344262,,,,,,,,,,,8,08,4,4,,,,,,,,,,,,,,,,,,,,,,,,,,,,,
5658000ca9872d0011e1ba26,SCN,2024-06-20_16h28.46.625,LearnStrategy,2023.2.3,Win32,163.9344262,,,,,,,,,,,8,10,4,5,,,,,,,,,,,,,,,,,,,,,,,,,,,,,
5658000ca9872d0011e1ba26,SCN,2024-06-20_16h28.46.625,LearnStrategy,2023.2.3,Win32,163.9344262,,,,,,,,,,,6,08,4,6,,,,,,,,,,,,,,,,,,,,,,,,,,,,,
5658000ca9872d0011e1ba26,SCN,2024-06-20_16h28.46.625,LearnStrategy,2023.2.3,Win32,163.9344262,,,,,,,,,,,5,10,4,7,,,,,,,,,,,,,,,,,,,,,,,,,,,,,
5658000ca9872d0011e1ba26,SCN,2024-06-20_16h28.46.625,LearnStrategy,2023.2.3,Win32,163.9344262,,,,,,,,,,,3,15,4,8,,,,,,,,,,,,,,,,,,,,,,,,,,,,,
5658000ca9872d0011e1ba26,SCN,2024-06-20_16h28.46.625,LearnStrategy,2023.2.3,Win32,163.9344262,,,,,,,,,,,5,07,5,1,,,,,,,,,,,,,,,,,,,,,,,,,,,,,
5658000ca9872d0011e1ba26,SCN,2024-06-20_16h28.46.625,LearnStrategy,2023.2.3,Win32,163.9344262,,,,,,,,,,,4,10,5,2,,,,,,,,,,,,,,,,,,,,,,,,,,,,,
5658000ca9872d0011e1ba26,SCN,2024-06-20_16h28.46.625,LearnStrategy,2023.2.3,Win32,163.9344262,,,,,,,,,,,2,06,5,3,,,,,,,,,,,,,,,,,,,,,,,,,,,,,
5658000ca9872d0011e1ba26,SCN,2024-06-20_16h28.46.625,LearnStrategy,2023.2.3,Win32,163.9344262,,,,,,,,,,,4,11,5,4,,,,,,,,,,,,,,,,,,,,,,,,,,,,,
5658000ca9872d0011e1ba26,SCN,2024-06-20_16h28.46.625,LearnStrategy,2023.2.3,Win32,163.9344262,,,,,,,,,,,4,03,5,5,,,,,,,,,,,,,,,,,,,,,,,,,,,,,
5658000ca9872d0011e1ba26,SCN,2024-06-20_16h28.46.625,LearnStrategy,2023.2.3,Win32,163.9344262,,,,,,,,,,,4,13,5,6,,,,,,,,,,,,,,,,,,,,,,,,,,,,,
5658000ca9872d0011e1ba26,SCN,2024-06-20_16h28.46.625,LearnStrategy,2023.2.3,Win32,163.9344262,,,,,,,,,,,7,02,5,7,,,,,,,,,,,,,,,,,,,,,,,,,,,,,
5658000ca9872d0011e1ba26,SCN,2024-06-20_16h28.46.625,LearnStrategy,2023.2.3,Win32,163.9344262,,,,,,,,,,,2,10,5,8,,,,,,,,,,,,,,,,,,,,,,,,,,,,,
5658000ca9872d0011e1ba26,SCN,2024-06-20_16h28.46.625,LearnStrategy,2023.2.3,Win32,163.9344262,,,,,,,,,,,6,03,6,1,,,,,,,,,,,,,,,,,,,,,,,,,,,,,
5658000ca9872d0011e1ba26,SCN,2024-06-20_16h28.46.625,LearnStrategy,2023.2.3,Win32,163.9344262,,,,,,,,,,,1,14,6,2,,,,,,,,,,,,,,,,,,,,,,,,,,,,,
5658000ca9872d0011e1ba26,SCN,2024-06-20_16h28.46.625,LearnStrategy,2023.2.3,Win32,163.9344262,,,,,,,,,,,6,12,6,3,,,,,,,,,,,,,,,,,,,,,,,,,,,,,
5658000ca9872d0011e1ba26,SCN,2024-06-20_16h28.46.625,LearnStrategy,2023.2.3,Win32,163.9344262,,,,,,,,,,,7,05,6,4,,,,,,,,,,,,,,,,,,,,,,,,,,,,,
5658000ca9872d0011e1ba26,SCN,2024-06-20_16h28.46.625,LearnStrategy,2023.2.3,Win32,163.9344262,,,,,,,,,,,5,06,6,5,,,,,,,,,,,,,,,,,,,,,,,,,,,,,
5658000ca9872d0011e1ba26,SCN,2024-06-20_16h28.46.625,LearnStrategy,2023.2.3,Win32,163.9344262,,,,,,,,,,,1,06,6,6,,,,,,,,,,,,,,,,,,,,,,,,,,,,,
5658000ca9872d0011e1ba26,SCN,2024-06-20_16h28.46.625,LearnStrategy,2023.2.3,Win32,163.9344262,,,,,,,,,,,7,14,6,7,,,,,,,,,,,,,,,,,,,,,,,,,,,,,
5658000ca9872d0011e1ba26,SCN,2024-06-20_16h28.46.625,LearnStrategy,2023.2.3,Win32,163.9344262,,,,,,,,,,,4,01,6,8,,,,,,,,,,,,,,,,,,,,,,,,,,,,,