participant,condition,date,expName,psychopyVersion,OS,frameRate,block,phase,trial,learn_mouse.x,learn_mouse.y,learn_mouse.leftButton,learn_mouse.midButton,learn_mouse.rightButton,learn_mouse.time,learn_mouse.clicked_name,cat,token,row,col,t_select,cat_mouse_l.x,cat_mouse_l.y,cat_mouse_l.leftButton,cat_mouse_l.midButton,cat_mouse_l.rightButton,cat_mouse_l.time,cat_mouse_l.clicked_name,resp,t_resp,corr,train_trials.thisRepN,train_trials.thisTrialN,train_trials.thisN,train_trials.thisIndex,train_trials.ran,cat_mouse_t.x,cat_mouse_t.y,cat_mouse_t.leftButton,cat_mouse_t.midButton,cat_mouse_t.rightButton,cat_mouse_t.time,cat_mouse_t.clicked_name,test_trials.thisRepN,test_trials.thisTrialN,test_trials.thisN,test_trials.thisIndex,test_trials.ran,Bonus
565c6791c121fe0012fc3caf,SCN,2024-06-24_14h45.14.357,LearnStrategy,2023.2.3,Win32,59.52380952,,,,,,,,,,,,,,,,,,,,,,,,,,,,,,,,,,,,,,,,,,,
565c6791c121fe0012fc3caf,SCN,2024-06-24_14h45.14.357,LearnStrategy,2023.2.3,Win32,59.52380952,1,1,1,-0.261111111,0.086666667,1,0,0,4.4161,Pegmatite_10,6,10,4,3,4.416,0.42,-0.403333333,1,0,0,7.1591,Pumice_rect,8,7.159,0,0,0,0,0,1,,,,,,,,,,,,,
565c6791c121fe0012fc3caf,SCN,2024-06-24_14h45.14.357,LearnStrategy,2023.2.3,Win32,59.52380952,1,1,2,0.222222222,-0.257777778,1,0,0,5.0495,Gabbro_03,4,03,2,6,5.05,-0.124444444,-0.236666667,1,0,0,2.9784,Basalt_rect,2,2.978,0,1,0,1,0,1,,,,,,,,,,,,,
565c6791c121fe0012fc3caf,SCN,2024-06-24_14h45.14.357,LearnStrategy,2023.2.3,Win32,59.52380952,1,1,3,0.566666667,-0.265555556,1,0,0,1.4625,Diorite_15,3,15,2,8,1.462,0.373333333,-0.392222222,1,0,0,2.0875,Pumice_rect,8,2.087,0,2,0,2,0,1,,,,,,,,,,,,,
565c6791c121fe0012fc3caf,SCN,2024-06-24_14h45.14.357,LearnStrategy,2023.2.3,Win32,59.52380952,1,1,4,0.384444444,-0.413333333,1,0,0,1.2976,Basalt_14,2,14,1,7,1.298,-0.394444444,-0.271111111,1,0,0,4.4114,Andesite_rect,1,4.411,0,3,0,3,0,1,,,,,,,,,,,,,
565c6791c121fe0012fc3caf,SCN,2024-06-24_14h45.14.357,LearnStrategy,2023.2.3,Win32,59.52380952,1,1,5,0.092222222,-0.088888889,1,0,0,2.5478,Pumice_03,8,03,3,5,2.548,0.382222222,-0.405555556,1,0,0,1.9307,Pumice_rect,8,1.931,1,4,0,4,0,1,,,,,,,,,,,,,
565c6791c121fe0012fc3caf,SCN,2024-06-24_14h45.14.357,LearnStrategy,2023.2.3,Win32,59.52380952,1,1,6,0.066666667,-0.252222222,1,0,0,1.4654,Obsidian_02,5,02,2,5,1.465,-0.396666667,-0.253333333,1,0,0,6.1676,Andesite_rect,1,6.168,0,5,0,5,0,1,,,,,,,,,,,,,
565c6791c121fe0012fc3caf,SCN,2024-06-24_14h45.14.357,LearnStrategy,2023.2.3,Win32,59.52380952,1,1,7,-0.554444444,0.378888889,1,0,0,4.2351,Obsidian_10,5,10,6,1,4.235,-0.358888889,-0.383333333,1,0,0,1.8819,Obsidian_rect,5,1.882,1,6,0,6,0,1,,,,,,,,,,,,,
565c6791c121fe0012fc3caf,SCN,2024-06-24_14h45.14.357,LearnStrategy,2023.2.3,Win32,59.52380952,1,1,8,-0.394444444,0.368888889,1,0,0,1.4491,Pumice_04,8,04,6,2,1.449,0.406666667,-0.406666667,1,0,0,2.299,Pumice_rect,8,2.299,1,7,0,7,0,1,,,,,,,,,,,,,
565c6791c121fe0012fc3caf,SCN,2024-06-24_14h45.14.357,LearnStrategy,2023.2.3,Win32,59.52380952,1,1,9,-0.235555556,0.375555556,1,0,0,1.0722,Basalt_10,2,10,6,3,1.072,-0.427777778,-0.415555556,1,0,0,3.7955,Obsidian_rect,5,3.796,0,8,0,8,0,1,,,,,,,,,,,,,
565c6791c121fe0012fc3caf,SCN,2024-06-24_14h45.14.357,LearnStrategy,2023.2.3,Win32,59.52380952,1,1,10,-0.088888889,0.414444444,1,0,0,2.0142,Andesite_02,1,02,6,4,2.014,0.171111111,-0.393333333,1,0,0,3.2391,Peridotite_rect,7,3.239,0,9,0,9,0,1,,,,,,,,,,,,,
565c6791c121fe0012fc3caf,SCN,2024-06-24_14h45.14.357,LearnStrategy,2023.2.3,Win32,59.52380952,1,1,11,0.076666667,0.411111111,1,0,0,1.5928,Basalt_11,2,11,6,5,1.593,0.101111111,-0.245555556,1,0,0,3.1801,Diorite_rect,3,3.18,0,10,0,10,0,1,,,,,,,,,,,,,
565c6791c121fe0012fc3caf,SCN,2024-06-24_14h45.14.357,LearnStrategy,2023.2.3,Win32,59.52380952,1,1,12,0.367777778,0.412222222,1,0,0,1.9742,Peridotite_08,7,08,6,7,1.974,-0.136666667,-0.394444444,1,0,0,5.8421,Pegmatite_rect,6,5.842,0,11,0,11,0,1,,,,,,,,,,,,,
565c6791c121fe0012fc3caf,SCN,2024-06-24_14h45.14.357,LearnStrategy,2023.2.3,Win32,59.52380952,1,1,13,0.57,0.404444444,1,0,0,2.338,Peridotite_14,7,14,6,8,2.338,-0.053333333,-0.412222222,1,0,0,7.566,Pegmatite_rect,6,7.566,0,12,0,12,0,1,,,,,,,,,,,,,
565c6791c121fe0012fc3caf,SCN,2024-06-24_14h45.14.357,LearnStrategy,2023.2.3,Win32,59.52380952,1,1,14,-0.551111111,0.231111111,1,0,0,1.7758,Gabbro_15,4,15,5,1,1.776,-0.165555556,-0.4,1,0,0,2.0551,Pegmatite_rect,6,2.055,0,13,0,13,0,1,,,,,,,,,,,,,
565c6791c121fe0012fc3caf,SCN,2024-06-24_14h45.14.357,LearnStrategy,2023.2.3,Win32,59.52380952,1,1,15,-0.373333333,0.244444444,1,0,0,1.9994,Pumice_08,8,08,5,2,1.999,0.173333333,-0.401111111,1,0,0,1.3717,Peridotite_rect,7,1.372,0,14,0,14,0,1,,,,,,,,,,,,,
565c6791c121fe0012fc3caf,SCN,2024-06-24_14h45.14.357,LearnStrategy,2023.2.3,Win32,59.52380952,1,1,16,-0.111111111,0.237777778,1,0,0,3.0807,Pegmatite_05,6,05,5,4,3.081,0.123333333,-0.407777778,1,0,0,1.7106,Peridotite_rect,7,1.711,0,15,0,15,0,1,,,,,,,,,,,,,
565c6791c121fe0012fc3caf,SCN,2024-06-24_14h45.14.357,LearnStrategy,2023.2.3,Win32,59.52380952,1,2,1,,,,,,,,1,01,,,,,,,,,,,3,3.26,0,,,,,,0.154444444,-0.247777778,1,0,0,3.2599,Diorite_rect,0,0,0,0,1,
565c6791c121fe0012fc3caf,SCN,2024-06-24_14h45.14.357,LearnStrategy,2023.2.3,Win32,59.52380952,1,2,2,,,,,,,,7,05,,,,,,,,,,,6,2.93,0,,,,,,-0.104444444,-0.4,1,0,0,2.93,Pegmatite_rect,1,0,1,0,1,
565c6791c121fe0012fc3caf,SCN,2024-06-24_14h45.14.357,LearnStrategy,2023.2.3,Win32,59.52380952,1,2,3,,,,,,,,6,15,,,,,,,,,,,4,7.658,0,,,,,,0.331111111,-0.26,1,0,0,7.6584,Gabbro_rect,2,0,2,0,1,
565c6791c121fe0012fc3caf,SCN,2024-06-24_14h45.14.357,LearnStrategy,2023.2.3,Win32,59.52380952,1,2,4,,,,,,,,4,05,,,,,,,,,,,6,6.731,0,,,,,,-0.205555556,-0.397777778,1,0,0,6.7313,Pegmatite_rect,3,0,3,0,1,
565c6791c121fe0012fc3caf,SCN,2024-06-24_14h45.14.357,LearnStrategy,2023.2.3,Win32,59.52380952,1,2,5,,,,,,,,8,09,,,,,,,,,,,8,2.087,1,,,,,,0.388888889,-0.395555556,1,0,0,2.0868,Pumice_rect,4,0,4,0,1,
565c6791c121fe0012fc3caf,SCN,2024-06-24_14h45.14.357,LearnStrategy,2023.2.3,Win32,59.52380952,1,2,6,,,,,,,,8,14,,,,,,,,,,,8,5.413,1,,,,,,0.381111111,-0.393333333,1,0,0,5.4126,Pumice_rect,5,0,5,0,1,
565c6791c121fe0012fc3caf,SCN,2024-06-24_14h45.14.357,LearnStrategy,2023.2.3,Win32,59.52380952,1,2,7,,,,,,,,6,13,,,,,,,,,,,5,4.726,0,,,,,,-0.344444444,-0.414444444,1,0,0,4.7259,Obsidian_rect,6,0,6,0,1,
565c6791c121fe0012fc3caf,SCN,2024-06-24_14h45.14.357,LearnStrategy,2023.2.3,Win32,59.52380952,1,2,8,,,,,,,,3,12,,,,,,,,,,,2,2.219,0,,,,,,-0.175555556,-0.257777778,1,0,0,2.2195,Basalt_rect,7,0,7,0,1,
565c6791c121fe0012fc3caf,SCN,2024-06-24_14h45.14.357,LearnStrategy,2023.2.3,Win32,59.52380952,1,2,9,,,,,,,,5,08,,,,,,,,,,,5,10.026,1,,,,,,-0.342222222,-0.412222222,1,0,0,10.0265,Obsidian_rect,8,0,8,0,1,
565c6791c121fe0012fc3caf,SCN,2024-06-24_14h45.14.357,LearnStrategy,2023.2.3,Win32,59.52380952,1,2,10,,,,,,,,5,14,,,,,,,,,,,5,1.75,1,,,,,,-0.392222222,-0.407777778,1,0,0,1.75,Obsidian_rect,9,0,9,0,1,
565c6791c121fe0012fc3caf,SCN,2024-06-24_14h45.14.357,LearnStrategy,2023.2.3,Win32,59.52380952,1,2,11,,,,,,,,2,06,,,,,,,,,,,3,4.243,0,,,,,,0.155555556,-0.24,1,0,0,4.243,Diorite_rect,10,0,10,0,1,
565c6791c121fe0012fc3caf,SCN,2024-06-24_14h45.14.357,LearnStrategy,2023.2.3,Win32,59.52380952,1,2,12,,,,,,,,2,09,,,,,,,,,,,4,2.073,0,,,,,,0.327777778,-0.253333333,1,0,0,2.073,Gabbro_rect,11,0,11,0,1,
565c6791c121fe0012fc3caf,SCN,2024-06-24_14h45.14.357,LearnStrategy,2023.2.3,Win32,59.52380952,1,2,13,,,,,,,,4,12,,,,,,,,,,,1,2.157,0,,,,,,-0.476666667,-0.23,1,0,0,2.1574,Andesite_rect,12,0,12,0,1,
565c6791c121fe0012fc3caf,SCN,2024-06-24_14h45.14.357,LearnStrategy,2023.2.3,Win32,59.52380952,1,2,14,,,,,,,,7,10,,,,,,,,,,,6,3.221,0,,,,,,-0.178888889,-0.385555556,1,0,0,3.2208,Pegmatite_rect,13,0,13,0,1,
565c6791c121fe0012fc3caf,SCN,2024-06-24_14h45.14.357,LearnStrategy,2023.2.3,Win32,59.52380952,1,2,15,,,,,,,,3,14,,,,,,,,,,,8,1.807,0,,,,,,0.318888889,-0.416666667,1,0,0,1.8074,Pumice_rect,14,0,14,0,1,
565c6791c121fe0012fc3caf,SCN,2024-06-24_14h45.14.357,LearnStrategy,2023.2.3,Win32,59.52380952,1,2,16,,,,,,,,1,16,,,,,,,,,,,3,2.628,0,,,,,,0.134444444,-0.247777778,1,0,0,2.6276,Diorite_rect,15,0,15,0,1,
565c6791c121fe0012fc3caf,SCN,2024-06-24_14h45.14.357,LearnStrategy,2023.2.3,Win32,59.52380952,2,1,1,-0.563333333,0.374444444,1,0,0,4.2115,Obsidian_10,5,10,6,1,4.212,-0.342222222,-0.395555556,1,0,0,1.9396,Obsidian_rect,5,1.94,1,0,0,0,0,1,,,,,,,,,,,,,
565c6791c121fe0012fc3caf,SCN,2024-06-24_14h45.14.357,LearnStrategy,2023.2.3,Win32,59.52380952,2,1,2,-0.376666667,0.402222222,1,0,0,1.8097,Pumice_04,8,04,6,2,1.81,0.38,-0.388888889,1,0,0,2.6153,Pumice_rect,8,2.615,1,1,0,1,0,1,,,,,,,,,,,,,
565c6791c121fe0012fc3caf,SCN,2024-06-24_14h45.14.357,LearnStrategy,2023.2.3,Win32,59.52380952,2,1,3,-0.242222222,0.406666667,1,0,0,1.4217,Basalt_10,2,10,6,3,1.422,0.127777778,-0.236666667,1,0,0,1.6681,Diorite_rect,3,1.668,0,2,0,2,0,1,,,,,,,,,,,,,
565c6791c121fe0012fc3caf,SCN,2024-06-24_14h45.14.357,LearnStrategy,2023.2.3,Win32,59.52380952,2,1,4,-0.066666667,0.392222222,1,0,0,2.8345,Andesite_02,1,02,6,4,2.834,0.118888889,-0.256666667,1,0,0,1.9395,Diorite_rect,3,1.94,0,3,0,3,0,1,,,,,,,,,,,,,
565c6791c121fe0012fc3caf,SCN,2024-06-24_14h45.14.357,LearnStrategy,2023.2.3,Win32,59.52380952,2,1,5,0.084444444,0.384444444,1,0,0,2.811,Basalt_11,2,11,6,5,2.811,0.358888889,-0.244444444,1,0,0,3.399,Gabbro_rect,4,3.399,0,4,0,4,0,1,,,,,,,,,,,,,
565c6791c121fe0012fc3caf,SCN,2024-06-24_14h45.14.357,LearnStrategy,2023.2.3,Win32,59.52380952,2,1,6,0.418888889,0.396666667,1,0,0,2.1861,Peridotite_08,7,08,6,7,2.186,-0.186666667,-0.403333333,1,0,0,2.6146,Pegmatite_rect,6,2.615,0,5,0,5,0,1,,,,,,,,,,,,,
565c6791c121fe0012fc3caf,SCN,2024-06-24_14h45.14.357,LearnStrategy,2023.2.3,Win32,59.52380952,2,1,7,0.394444444,0.258888889,1,0,0,1.3376,Obsidian_06,5,06,5,7,1.338,-0.367777778,-0.247777778,1,0,0,2.9,Andesite_rect,1,2.9,0,6,0,6,0,1,,,,,,,,,,,,,
565c6791c121fe0012fc3caf,SCN,2024-06-24_14h45.14.357,LearnStrategy,2023.2.3,Win32,59.52380952,2,1,8,0.247777778,-0.42,1,0,0,6.1468,Diorite_13,3,13,1,6,6.147,-0.368888889,-0.252222222,1,0,0,1.9984,Andesite_rect,1,1.998,0,7,0,7,0,1,,,,,,,,,,,,,
565c6791c121fe0012fc3caf,SCN,2024-06-24_14h45.14.357,LearnStrategy,2023.2.3,Win32,59.52380952,2,1,9,0.062222222,-0.431111111,1,0,0,2.3251,Diorite_06,3,06,1,5,2.325,-0.201111111,-0.257777778,1,0,0,2.4195,Basalt_rect,2,2.42,0,8,0,8,0,1,,,,,,,,,,,,,
565c6791c121fe0012fc3caf,SCN,2024-06-24_14h45.14.357,LearnStrategy,2023.2.3,Win32,59.52380952,2,1,10,-0.37,-0.405555556,1,0,0,3.3098,Pegmatite_16,6,16,1,2,3.31,0.061111111,-0.404444444,1,0,0,3.4941,Peridotite_rect,7,3.494,0,9,0,9,0,1,,,,,,,,,,,,,
565c6791c121fe0012fc3caf,SCN,2024-06-24_14h45.14.357,LearnStrategy,2023.2.3,Win32,59.52380952,2,1,11,0.394444444,-0.264444444,1,0,0,2.115,Pumice_13,8,13,2,7,2.115,0.402222222,-0.394444444,1,0,0,2.0099,Pumice_rect,8,2.01,1,10,0,10,0,1,,,,,,,,,,,,,
565c6791c121fe0012fc3caf,SCN,2024-06-24_14h45.14.357,LearnStrategy,2023.2.3,Win32,59.52380952,2,1,12,0.593333333,-0.256666667,1,0,0,1.7333,Diorite_15,3,15,2,8,1.733,0.082222222,-0.397777778,1,0,0,3.8596,Peridotite_rect,7,3.86,0,11,0,11,0,1,,,,,,,,,,,,,
565c6791c121fe0012fc3caf,SCN,2024-06-24_14h45.14.357,LearnStrategy,2023.2.3,Win32,59.52380952,2,1,13,-0.376666667,-0.238888889,1,0,0,4.6854,Peridotite_13,7,13,2,2,4.685,-0.18,-0.254444444,1,0,0,2.8415,Basalt_rect,2,2.841,0,12,0,12,0,1,,,,,,,,,,,,,
565c6791c121fe0012fc3caf,SCN,2024-06-24_14h45.14.357,LearnStrategy,2023.2.3,Win32,59.52380952,2,1,14,-0.534444444,-0.271111111,1,0,0,1.4585,Peridotite_04,7,04,2,1,1.458,0.141111111,-0.404444444,1,0,0,2.5317,Peridotite_rect,7,2.532,1,13,0,13,0,1,,,,,,,,,,,,,
565c6791c121fe0012fc3caf,SCN,2024-06-24_14h45.14.357,LearnStrategy,2023.2.3,Win32,59.52380952,2,1,15,0.258888889,-0.096666667,1,0,0,3.1585,Andesite_11,1,11,3,6,3.159,0.16,-0.248888889,1,0,0,2.116,Diorite_rect,3,2.116,0,14,0,14,0,1,,,,,,,,,,,,,
565c6791c121fe0012fc3caf,SCN,2024-06-24_14h45.14.357,LearnStrategy,2023.2.3,Win32,59.52380952,2,1,16,-0.351111111,-0.094444444,1,0,0,2.4096,Basalt_12,2,12,3,2,2.41,-0.197777778,-0.236666667,1,0,0,1.7467,Basalt_rect,2,1.747,1,15,0,15,0,1,,,,,,,,,,,,,
565c6791c121fe0012fc3caf,SCN,2024-06-24_14h45.14.357,LearnStrategy,2023.2.3,Win32,59.52380952,2,2,1,,,,,,,,8,10,,,,,,,,,,,2,2.95,0,,,,,,-0.11,-0.248888889,1,0,0,2.9503,Basalt_rect,0,0,0,0,1,
565c6791c121fe0012fc3caf,SCN,2024-06-24_14h45.14.357,LearnStrategy,2023.2.3,Win32,59.52380952,2,2,2,,,,,,,,3,11,,,,,,,,,,,1,6.304,0,,,,,,-0.387777778,-0.247777778,1,0,0,6.3042,Andesite_rect,1,0,1,0,1,
565c6791c121fe0012fc3caf,SCN,2024-06-24_14h45.14.357,LearnStrategy,2023.2.3,Win32,59.52380952,2,2,3,,,,,,,,1,10,,,,,,,,,,,7,4.878,0,,,,,,0.066666667,-0.412222222,1,0,0,4.8777,Peridotite_rect,2,0,2,0,1,
565c6791c121fe0012fc3caf,SCN,2024-06-24_14h45.14.357,LearnStrategy,2023.2.3,Win32,59.52380952,2,2,4,,,,,,,,1,05,,,,,,,,,,,3,4.64,0,,,,,,0.093333333,-0.25,1,0,0,4.6401,Diorite_rect,3,0,3,0,1,
565c6791c121fe0012fc3caf,SCN,2024-06-24_14h45.14.357,LearnStrategy,2023.2.3,Win32,59.52380952,2,2,5,,,,,,,,7,02,,,,,,,,,,,7,7.986,1,,,,,,0.104444444,-0.391111111,1,0,0,7.9865,Peridotite_rect,4,0,4,0,1,
565c6791c121fe0012fc3caf,SCN,2024-06-24_14h45.14.357,LearnStrategy,2023.2.3,Win32,59.52380952,2,2,6,,,,,,,,3,09,,,,,,,,,,,3,1.514,1,,,,,,0.108888889,-0.257777778,1,0,0,1.5143,Diorite_rect,5,0,5,0,1,
565c6791c121fe0012fc3caf,SCN,2024-06-24_14h45.14.357,LearnStrategy,2023.2.3,Win32,59.52380952,2,2,7,,,,,,,,5,07,,,,,,,,,,,5,1.967,1,,,,,,-0.355555556,-0.392222222,1,0,0,1.9666,Obsidian_rect,6,0,6,0,1,
565c6791c121fe0012fc3caf,SCN,2024-06-24_14h45.14.357,LearnStrategy,2023.2.3,Win32,59.52380952,2,2,8,,,,,,,,6,07,,,,,,,,,,,5,4.004,0,,,,,,-0.346666667,-0.378888889,1,0,0,4.0037,Obsidian_rect,7,0,7,0,1,
565c6791c121fe0012fc3caf,SCN,2024-06-24_14h45.14.357,LearnStrategy,2023.2.3,Win32,59.52380952,2,2,9,,,,,,,,4,16,,,,,,,,,,,2,2.442,0,,,,,,-0.193333333,-0.258888889,1,0,0,2.442,Basalt_rect,8,0,8,0,1,
565c6791c121fe0012fc3caf,SCN,2024-06-24_14h45.14.357,LearnStrategy,2023.2.3,Win32,59.52380952,2,2,10,,,,,,,,2,04,,,,,,,,,,,1,2.814,0,,,,,,-0.373333333,-0.256666667,1,0,0,2.8142,Andesite_rect,9,0,9,0,1,
565c6791c121fe0012fc3caf,SCN,2024-06-24_14h45.14.357,LearnStrategy,2023.2.3,Win32,59.52380952,2,2,11,,,,,,,,4,01,,,,,,,,,,,6,5.04,0,,,,,,-0.16,-0.38,1,0,0,5.0401,Pegmatite_rect,10,0,10,0,1,
565c6791c121fe0012fc3caf,SCN,2024-06-24_14h45.14.357,LearnStrategy,2023.2.3,Win32,59.52380952,2,2,12,,,,,,,,5,11,,,,,,,,,,,5,1.303,1,,,,,,-0.331111111,-0.404444444,1,0,0,1.3032,Obsidian_rect,11,0,11,0,1,
565c6791c121fe0012fc3caf,SCN,2024-06-24_14h45.14.357,LearnStrategy,2023.2.3,Win32,59.52380952,2,2,13,,,,,,,,6,09,,,,,,,,,,,3,8.395,0,,,,,,0.192222222,-0.252222222,1,0,0,8.3953,Diorite_rect,12,0,12,0,1,
565c6791c121fe0012fc3caf,SCN,2024-06-24_14h45.14.357,LearnStrategy,2023.2.3,Win32,59.52380952,2,2,14,,,,,,,,8,06,,,,,,,,,,,8,3.061,1,,,,,,0.343333333,-0.402222222,1,0,0,3.0613,Pumice_rect,13,0,13,0,1,
565c6791c121fe0012fc3caf,SCN,2024-06-24_14h45.14.357,LearnStrategy,2023.2.3,Win32,59.52380952,2,2,15,,,,,,,,7,16,,,,,,,,,,,4,2.516,0,,,,,,0.323333333,-0.246666667,1,0,0,2.5164,Gabbro_rect,14,0,14,0,1,
565c6791c121fe0012fc3caf,SCN,2024-06-24_14h45.14.357,LearnStrategy,2023.2.3,Win32,59.52380952,2,2,16,,,,,,,,2,02,,,,,,,,,,,3,3.055,0,,,,,,0.157777778,-0.245555556,1,0,0,3.0552,Diorite_rect,15,0,15,0,1,
565c6791c121fe0012fc3caf,SCN,2024-06-24_14h45.14.357,LearnStrategy,2023.2.3,Win32,59.52380952,3,1,1,-0.208888889,0.065555556,1,0,0,1.9323,Pegmatite_10,6,10,4,3,1.932,0.097777778,-0.242222222,1,0,0,2.8567,Diorite_rect,3,2.857,0,0,0,0,0,1,,,,,,,,,,,,,
565c6791c121fe0012fc3caf,SCN,2024-06-24_14h45.14.357,LearnStrategy,2023.2.3,Win32,59.52380952,3,1,2,0.222222222,-0.247777778,1,0,0,1.9105,Gabbro_03,4,03,2,6,1.91,0.067777778,-0.408888889,1,0,0,2.9668,Peridotite_rect,7,2.967,0,1,0,1,0,1,,,,,,,,,,,,,
565c6791c121fe0012fc3caf,SCN,2024-06-24_14h45.14.357,LearnStrategy,2023.2.3,Win32,59.52380952,3,1,3,-0.36,-0.397777778,1,0,0,4.3929,Pegmatite_16,6,16,1,2,4.393,-0.177777778,-0.262222222,1,0,0,3.5113,Basalt_rect,2,3.511,0,2,0,2,0,1,,,,,,,,,,,,,
565c6791c121fe0012fc3caf,SCN,2024-06-24_14h45.14.357,LearnStrategy,2023.2.3,Win32,59.52380952,3,1,4,-0.251111111,-0.117777778,1,0,0,1.3296,Gabbro_09,4,09,3,3,1.33,0.108888889,-0.231111111,1,0,0,1.8606,Diorite_rect,3,1.861,0,3,0,3,0,1,,,,,,,,,,,,,
565c6791c121fe0012fc3caf,SCN,2024-06-24_14h45.14.357,LearnStrategy,2023.2.3,Win32,59.52380952,3,1,5,-0.397777778,-0.103333333,1,0,0,1.2442,Basalt_12,2,12,3,2,1.244,0.047777778,-0.406666667,1,0,0,2.9461,Peridotite_rect,7,2.946,0,4,0,4,0,1,,,,,,,,,,,,,
565c6791c121fe0012fc3caf,SCN,2024-06-24_14h45.14.357,LearnStrategy,2023.2.3,Win32,59.52380952,3,1,6,-0.56,-0.078888889,1,0,0,2.4437,Diorite_16,3,16,3,1,2.444,0.115555556,-0.398888889,1,0,0,1.0978,Peridotite_rect,7,1.098,0,5,0,5,0,1,,,,,,,,,,,,,
565c6791c121fe0012fc3caf,SCN,2024-06-24_14h45.14.357,LearnStrategy,2023.2.3,Win32,59.52380952,3,1,7,0.195555556,0.12,1,0,0,2.3943,Obsidian_05,5,05,4,6,2.394,-0.371111111,-0.403333333,1,0,0,1.8836,Obsidian_rect,5,1.884,1,6,0,6,0,1,,,,,,,,,,,,,
565c6791c121fe0012fc3caf,SCN,2024-06-24_14h45.14.357,LearnStrategy,2023.2.3,Win32,59.52380952,3,1,8,-0.082222222,0.096666667,1,0,0,3.9774,Diorite_07,3,07,4,4,3.977,0.131111111,-0.404444444,1,0,0,1.6173,Peridotite_rect,7,1.617,0,7,0,7,0,1,,,,,,,,,,,,,
565c6791c121fe0012fc3caf,SCN,2024-06-24_14h45.14.357,LearnStrategy,2023.2.3,Win32,59.52380952,3,1,9,-0.111111111,0.254444444,1,0,0,2.4295,Pegmatite_05,6,05,5,4,2.429,0.095555556,-0.248888889,1,0,0,2.417,Diorite_rect,3,2.417,0,8,0,8,0,1,,,,,,,,,,,,,
565c6791c121fe0012fc3caf,SCN,2024-06-24_14h45.14.357,LearnStrategy,2023.2.3,Win32,59.52380952,3,1,10,-0.427777778,0.266666667,1,0,0,1.8811,Pumice_08,8,08,5,2,1.881,-0.36,-0.243333333,1,0,0,2.9135,Andesite_rect,1,2.913,0,9,0,9,0,1,,,,,,,,,,,,,
565c6791c121fe0012fc3caf,SCN,2024-06-24_14h45.14.357,LearnStrategy,2023.2.3,Win32,59.52380952,3,1,11,0.518888889,0.375555556,1,0,0,1.4513,Peridotite_14,7,14,6,8,1.451,0.078888889,-0.246666667,1,0,0,2.367,Diorite_rect,3,2.367,0,10,0,10,0,1,,,,,,,,,,,,,
565c6791c121fe0012fc3caf,SCN,2024-06-24_14h45.14.357,LearnStrategy,2023.2.3,Win32,59.52380952,3,1,12,-0.243333333,0.431111111,1,0,0,1.6433,Basalt_10,2,10,6,3,1.643,-0.153333333,-0.244444444,1,0,0,1.3267,Basalt_rect,2,1.327,1,11,0,11,0,1,,,,,,,,,,,,,
565c6791c121fe0012fc3caf,SCN,2024-06-24_14h45.14.357,LearnStrategy,2023.2.3,Win32,59.52380952,3,1,13,-0.433333333,0.378888889,1,0,0,4.0257,Pumice_04,8,04,6,2,4.026,0.382222222,-0.383333333,1,0,0,2.2206,Pumice_rect,8,2.221,1,12,0,12,0,1,,,,,,,,,,,,,
565c6791c121fe0012fc3caf,SCN,2024-06-24_14h45.14.357,LearnStrategy,2023.2.3,Win32,59.52380952,3,1,14,0.233333333,-0.402222222,1,0,0,3.4845,Diorite_13,3,13,1,6,3.485,0.067777778,-0.262222222,1,0,0,1.1355,Diorite_rect,3,1.135,1,13,0,13,0,1,,,,,,,,,,,,,
565c6791c121fe0012fc3caf,SCN,2024-06-24_14h45.14.357,LearnStrategy,2023.2.3,Win32,59.52380952,3,1,15,0.551111111,-0.424444444,1,0,0,1.4831,Basalt_05,2,05,1,8,1.483,0.355555556,-0.256666667,1,0,0,2.8014,Gabbro_rect,4,2.801,0,14,0,14,0,1,,,,,,,,,,,,,
565c6791c121fe0012fc3caf,SCN,2024-06-24_14h45.14.357,LearnStrategy,2023.2.3,Win32,59.52380952,3,1,16,-0.365555556,-0.088888889,1,0,0,2.8172,Basalt_12,2,12,3,2,2.817,-0.161111111,-0.26,1,0,0,2.3177,Basalt_rect,2,2.318,1,15,0,15,0,1,,,,,,,,,,,,,
565c6791c121fe0012fc3caf,SCN,2024-06-24_14h45.14.357,LearnStrategy,2023.2.3,Win32,59.52380952,3,2,1,,,,,,,,2,01,,,,,,,,,,,2,1.773,1,,,,,,-0.115555556,-0.27,1,0,0,1.7732,Basalt_rect,0,0,0,0,1,
565c6791c121fe0012fc3caf,SCN,2024-06-24_14h45.14.357,LearnStrategy,2023.2.3,Win32,59.52380952,3,2,2,,,,,,,,6,03,,,,,,,,,,,7,2.641,0,,,,,,0.104444444,-0.4,1,0,0,2.6406,Peridotite_rect,1,0,1,0,1,
565c6791c121fe0012fc3caf,SCN,2024-06-24_14h45.14.357,LearnStrategy,2023.2.3,Win32,59.52380952,3,2,3,,,,,,,,7,07,,,,,,,,,,,4,4.321,0,,,,,,0.446666667,-0.241111111,1,0,0,4.3207,Gabbro_rect,2,0,2,0,1,
565c6791c121fe0012fc3caf,SCN,2024-06-24_14h45.14.357,LearnStrategy,2023.2.3,Win32,59.52380952,3,2,4,,,,,,,,7,12,,,,,,,,,,,3,2.488,0,,,,,,0.095555556,-0.251111111,1,0,0,2.4876,Diorite_rect,3,0,3,0,1,
565c6791c121fe0012fc3caf,SCN,2024-06-24_14h45.14.357,LearnStrategy,2023.2.3,Win32,59.52380952,3,2,5,,,,,,,,1,06,,,,,,,,,,,6,3.278,0,,,,,,-0.054444444,-0.405555556,1,0,0,3.2782,Pegmatite_rect,4,0,4,0,1,
565c6791c121fe0012fc3caf,SCN,2024-06-24_14h45.14.357,LearnStrategy,2023.2.3,Win32,59.52380952,3,2,6,,,,,,,,4,13,,,,,,,,,,,7,5.493,0,,,,,,0.134444444,-0.398888889,1,0,0,5.4931,Peridotite_rect,5,0,5,0,1,
565c6791c121fe0012fc3caf,SCN,2024-06-24_14h45.14.357,LearnStrategy,2023.2.3,Win32,59.52380952,3,2,7,,,,,,,,6,06,,,,,,,,,,,6,3.357,1,,,,,,-0.114444444,-0.407777778,1,0,0,3.3568,Pegmatite_rect,6,0,6,0,1,
565c6791c121fe0012fc3caf,SCN,2024-06-24_14h45.14.357,LearnStrategy,2023.2.3,Win32,59.52380952,3,2,8,,,,,,,,5,09,,,,,,,,,,,5,1.925,1,,,,,,-0.404444444,-0.383333333,1,0,0,1.9249,Obsidian_rect,7,0,7,0,1,
565c6791c121fe0012fc3caf,SCN,2024-06-24_14h45.14.357,LearnStrategy,2023.2.3,Win32,59.52380952,3,2,9,,,,,,,,8,05,,,,,,,,,,,8,1.369,1,,,,,,0.408888889,-0.396666667,1,0,0,1.3692,Pumice_rect,8,0,8,0,1,
565c6791c121fe0012fc3caf,SCN,2024-06-24_14h45.14.357,LearnStrategy,2023.2.3,Win32,59.52380952,3,2,10,,,,,,,,2,16,,,,,,,,,,,2,1.921,1,,,,,,-0.147777778,-0.257777778,1,0,0,1.9212,Basalt_rect,9,0,9,0,1,
565c6791c121fe0012fc3caf,SCN,2024-06-24_14h45.14.357,LearnStrategy,2023.2.3,Win32,59.52380952,3,2,11,,,,,,,,8,02,,,,,,,,,,,8,1.925,1,,,,,,0.423333333,-0.403333333,1,0,0,1.9249,Pumice_rect,10,0,10,0,1,
565c6791c121fe0012fc3caf,SCN,2024-06-24_14h45.14.357,LearnStrategy,2023.2.3,Win32,59.52380952,3,2,12,,,,,,,,4,14,,,,,,,,,,,3,3.886,0,,,,,,0.117777778,-0.248888889,1,0,0,3.8863,Diorite_rect,11,0,11,0,1,
565c6791c121fe0012fc3caf,SCN,2024-06-24_14h45.14.357,LearnStrategy,2023.2.3,Win32,59.52380952,3,2,13,,,,,,,,1,07,,,,,,,,,,,1,5.423,1,,,,,,-0.316666667,-0.253333333,1,0,0,5.4233,Andesite_rect,12,0,12,0,1,
565c6791c121fe0012fc3caf,SCN,2024-06-24_14h45.14.357,LearnStrategy,2023.2.3,Win32,59.52380952,3,2,14,,,,,,,,3,08,,,,,,,,,,,3,3.243,1,,,,,,0.077777778,-0.262222222,1,0,0,3.2429,Diorite_rect,13,0,13,0,1,
565c6791c121fe0012fc3caf,SCN,2024-06-24_14h45.14.357,LearnStrategy,2023.2.3,Win32,59.52380952,3,2,15,,,,,,,,3,02,,,,,,,,,,,6,2.63,0,,,,,,-0.096666667,-0.401111111,1,0,0,2.63,Pegmatite_rect,14,0,14,0,1,
565c6791c121fe0012fc3caf,SCN,2024-06-24_14h45.14.357,LearnStrategy,2023.2.3,Win32,59.52380952,3,2,16,,,,,,,,5,12,,,,,,,,,,,5,1.366,1,,,,,,-0.376666667,-0.405555556,1,0,0,1.3658,Obsidian_rect,15,0,15,0,1,
565c6791c121fe0012fc3caf,SCN,2024-06-24_14h45.14.357,LearnStrategy,2023.2.3,Win32,59.52380952,4,1,1,0.576666667,-0.396666667,1,0,0,3.8308,Basalt_05,2,05,1,8,3.831,-0.091111111,-0.25,1,0,0,1.7988,Basalt_rect,2,1.799,1,0,0,0,0,1,,,,,,,,,,,,,
565c6791c121fe0012fc3caf,SCN,2024-06-24_14h45.14.357,LearnStrategy,2023.2.3,Win32,59.52380952,4,1,2,0.077777778,-0.391111111,1,0,0,2.1592,Diorite_06,3,06,1,5,2.159,0.142222222,-0.24,1,0,0,1.6013,Diorite_rect,3,1.601,1,1,0,1,0,1,,,,,,,,,,,,,
565c6791c121fe0012fc3caf,SCN,2024-06-24_14h45.14.357,LearnStrategy,2023.2.3,Win32,59.52380952,4,1,3,0.23,-0.387777778,1,0,0,1.3159,Diorite_13,3,13,1,6,1.316,0.155555556,-0.404444444,1,0,0,1.2631,Peridotite_rect,7,1.263,0,2,0,2,0,1,,,,,,,,,,,,,
565c6791c121fe0012fc3caf,SCN,2024-06-24_14h45.14.357,LearnStrategy,2023.2.3,Win32,59.52380952,4,1,4,-0.371111111,-0.265555556,1,0,0,2.2433,Peridotite_13,7,13,2,2,2.243,0.13,-0.413333333,1,0,0,3.3526,Peridotite_rect,7,3.353,1,3,0,3,0,1,,,,,,,,,,,,,
565c6791c121fe0012fc3caf,SCN,2024-06-24_14h45.14.357,LearnStrategy,2023.2.3,Win32,59.52380952,4,1,5,-0.368888889,-0.404444444,1,0,0,2.4921,Pegmatite_16,6,16,1,2,2.492,-0.143333333,-0.39,1,0,0,3.1347,Pegmatite_rect,6,3.135,1,4,0,4,0,1,,,,,,,,,,,,,
565c6791c121fe0012fc3caf,SCN,2024-06-24_14h45.14.357,LearnStrategy,2023.2.3,Win32,59.52380952,4,1,6,-0.257777778,0.383333333,1,0,0,14.123,Basalt_10,2,10,6,3,14.123,-0.096666667,-0.231111111,1,0,0,1.1506,Basalt_rect,2,1.151,1,5,0,5,0,1,,,,,,,,,,,,,
565c6791c121fe0012fc3caf,SCN,2024-06-24_14h45.14.357,LearnStrategy,2023.2.3,Win32,59.52380952,4,1,7,-0.078888889,0.411111111,1,0,0,1.421,Andesite_02,1,02,6,4,1.421,0.104444444,-0.253333333,1,0,0,2.2749,Diorite_rect,3,2.275,0,6,0,6,0,1,,,,,,,,,,,,,
565c6791c121fe0012fc3caf,SCN,2024-06-24_14h45.14.357,LearnStrategy,2023.2.3,Win32,59.52380952,4,1,8,0.375555556,0.417777778,1,0,0,2.1,Peridotite_08,7,08,6,7,2.1,0.137777778,-0.404444444,1,0,0,2.9912,Peridotite_rect,7,2.991,1,7,0,7,0,1,,,,,,,,,,,,,
565c6791c121fe0012fc3caf,SCN,2024-06-24_14h45.14.357,LearnStrategy,2023.2.3,Win32,59.52380952,4,1,9,0.072222222,0.225555556,1,0,0,3.7419,Pegmatite_11,6,11,5,5,3.742,-0.162222222,-0.396666667,1,0,0,3.7891,Pegmatite_rect,6,3.789,1,8,0,8,0,1,,,,,,,,,,,,,
565c6791c121fe0012fc3caf,SCN,2024-06-24_14h45.14.357,LearnStrategy,2023.2.3,Win32,59.52380952,4,1,10,0.425555556,-0.115555556,1,0,0,2.4144,Basalt_08,2,08,3,7,2.414,-0.136666667,-0.257777778,1,0,0,1.2945,Basalt_rect,2,1.294,1,9,0,9,0,1,,,,,,,,,,,,,
565c6791c121fe0012fc3caf,SCN,2024-06-24_14h45.14.357,LearnStrategy,2023.2.3,Win32,59.52380952,4,1,11,-0.086666667,-0.267777778,1,0,0,4.1005,Gabbro_11,4,11,2,4,4.101,-0.13,-0.256666667,1,0,0,1.3746,Basalt_rect,2,1.375,0,10,0,10,0,1,,,,,,,,,,,,,
565c6791c121fe0012fc3caf,SCN,2024-06-24_14h45.14.357,LearnStrategy,2023.2.3,Win32,59.52380952,4,1,12,-0.241111111,-0.258888889,1,0,0,3.4363,Pegmatite_08,6,08,2,3,3.436,0.083333333,-0.248888889,1,0,0,5.191,Diorite_rect,3,5.191,0,11,0,11,0,1,,,,,,,,,,,,,
565c6791c121fe0012fc3caf,SCN,2024-06-24_14h45.14.357,LearnStrategy,2023.2.3,Win32,59.52380952,4,1,13,0.577777778,-0.427777778,1,0,0,3.6482,Basalt_05,2,05,1,8,3.648,-0.161111111,-0.253333333,1,0,0,0.9054,Basalt_rect,2,0.905,1,12,0,12,0,1,,,,,,,,,,,,,
565c6791c121fe0012fc3caf,SCN,2024-06-24_14h45.14.357,LearnStrategy,2023.2.3,Win32,59.52380952,4,1,14,0.26,0.116666667,1,0,0,3.7152,Obsidian_05,5,05,4,6,3.715,0.151111111,-0.252222222,1,0,0,3.9807,Diorite_rect,3,3.981,0,13,0,13,0,1,,,,,,,,,,,,,
565c6791c121fe0012fc3caf,SCN,2024-06-24_14h45.14.357,LearnStrategy,2023.2.3,Win32,59.52380952,4,1,15,-0.541111111,-0.255555556,1,0,0,2.3758,Peridotite_04,7,04,2,1,2.376,-0.143333333,-0.387777778,1,0,0,3.6976,Pegmatite_rect,6,3.698,0,14,0,14,0,1,,,,,,,,,,,,,
565c6791c121fe0012fc3caf,SCN,2024-06-24_14h45.14.357,LearnStrategy,2023.2.3,Win32,59.52380952,4,1,16,0.524444444,0.404444444,1,0,0,2.0457,Peridotite_14,7,14,6,8,2.046,0.303333333,-0.258888889,1,0,0,3.9207,Gabbro_rect,4,3.921,0,15,0,15,0,1,,,,,,,,,,,,,
565c6791c121fe0012fc3caf,SCN,2024-06-24_14h45.14.357,LearnStrategy,2023.2.3,Win32,59.52380952,4,2,1,,,,,,,,2,06,,,,,,,,,,,2,17.342,1,,,,,,-0.151111111,-0.234444444,1,0,0,17.3418,Basalt_rect,0,0,0,0,1,
565c6791c121fe0012fc3caf,SCN,2024-06-24_14h45.14.357,LearnStrategy,2023.2.3,Win32,59.52380952,4,2,2,,,,,,,,4,01,,,,,,,,,,,7,8.372,0,,,,,,0.092222222,-0.39,1,0,0,8.3716,Peridotite_rect,1,0,1,0,1,
565c6791c121fe0012fc3caf,SCN,2024-06-24_14h45.14.357,LearnStrategy,2023.2.3,Win32,59.52380952,4,2,3,,,,,,,,1,06,,,,,,,,,,,7,10.951,0,,,,,,0.092222222,-0.386666667,1,0,0,10.9508,Peridotite_rect,2,0,2,0,1,
565c6791c121fe0012fc3caf,SCN,2024-06-24_14h45.14.357,LearnStrategy,2023.2.3,Win32,59.52380952,4,2,4,,,,,,,,6,06,,,,,,,,,,,6,6.224,1,,,,,,-0.094444444,-0.384444444,1,0,0,6.2238,Pegmatite_rect,3,0,3,0,1,
565c6791c121fe0012fc3caf,SCN,2024-06-24_14h45.14.357,LearnStrategy,2023.2.3,Win32,59.52380952,4,2,5,,,,,,,,7,02,,,,,,,,,,,7,5.656,1,,,,,,0.038888889,-0.391111111,1,0,0,5.6564,Peridotite_rect,4,0,4,0,1,
565c6791c121fe0012fc3caf,SCN,2024-06-24_14h45.14.357,LearnStrategy,2023.2.3,Win32,59.52380952,4,2,6,,,,,,,,3,09,,,,,,,,,,,3,5.978,1,,,,,,0.076666667,-0.23,1,0,0,5.9784,Diorite_rect,5,0,5,0,1,
565c6791c121fe0012fc3caf,SCN,2024-06-24_14h45.14.357,LearnStrategy,2023.2.3,Win32,59.52380952,4,2,7,,,,,,,,3,02,,,,,,,,,,,3,9.581,1,,,,,,0.104444444,-0.257777778,1,0,0,9.5806,Diorite_rect,6,0,6,0,1,
565c6791c121fe0012fc3caf,SCN,2024-06-24_14h45.14.357,LearnStrategy,2023.2.3,Win32,59.52380952,4,2,8,,,,,,,,5,14,,,,,,,,,,,5,2.308,1,,,,,,-0.414444444,-0.421111111,1,0,0,2.3084,Obsidian_rect,7,0,7,0,1,
565c6791c121fe0012fc3caf,SCN,2024-06-24_14h45.14.357,LearnStrategy,2023.2.3,Win32,59.52380952,4,2,9,,,,,,,,5,08,,,,,,,,,,,5,0.982,1,,,,,,-0.414444444,-0.421111111,1,0,0,0.9822,Obsidian_rect,8,0,8,0,1,
565c6791c121fe0012fc3caf,SCN,2024-06-24_14h45.14.357,LearnStrategy,2023.2.3,Win32,59.52380952,4,2,10,,,,,,,,7,05,,,,,,,,,,,7,17.784,1,,,,,,0.076666667,-0.415555556,1,0,0,17.7838,Peridotite_rect,9,0,9,0,1,
565c6791c121fe0012fc3caf,SCN,2024-06-24_14h45.14.357,LearnStrategy,2023.2.3,Win32,59.52380952,4,2,11,,,,,,,,8,02,,,,,,,,,,,8,1.73,1,,,,,,0.372222222,-0.385555556,1,0,0,1.7301,Pumice_rect,10,0,10,0,1,
565c6791c121fe0012fc3caf,SCN,2024-06-24_14h45.14.357,LearnStrategy,2023.2.3,Win32,59.52380952,4,2,12,,,,,,,,1,07,,,,,,,,,,,7,10.999,0,,,,,,0.143333333,-0.408888889,1,0,0,10.9989,Peridotite_rect,11,0,11,0,1,
565c6791c121fe0012fc3caf,SCN,2024-06-24_14h45.14.357,LearnStrategy,2023.2.3,Win32,59.52380952,4,2,13,,,,,,,,4,05,,,,,,,,,,,7,7.811,0,,,,,,0.143333333,-0.408888889,1,0,0,7.8105,Peridotite_rect,12,0,12,0,1,
565c6791c121fe0012fc3caf,SCN,2024-06-24_14h45.14.357,LearnStrategy,2023.2.3,Win32,59.52380952,4,2,14,,,,,,,,6,13,,,,,,,,,,,6,3.185,1,,,,,,-0.074444444,-0.401111111,1,0,0,3.1853,Pegmatite_rect,13,0,13,0,1,
565c6791c121fe0012fc3caf,SCN,2024-06-24_14h45.14.357,LearnStrategy,2023.2.3,Win32,59.52380952,4,2,15,,,,,,,,2,02,,,,,,,,,,,2,3.205,1,,,,,,-0.102222222,-0.258888889,1,0,0,3.2045,Basalt_rect,14,0,14,0,1,
565c6791c121fe0012fc3caf,SCN,2024-06-24_14h45.14.357,LearnStrategy,2023.2.3,Win32,59.52380952,4,2,16,,,,,,,,8,14,,,,,,,,,,,8,1.572,1,,,,,,0.451111111,-0.391111111,1,0,0,1.5721,Pumice_rect,15,0,15,0,1,
565c6791c121fe0012fc3caf,SCN,2024-06-24_14h45.14.357,LearnStrategy,2023.2.3,Win32,59.52380952,5,1,1,0.223333333,0.427777778,1,0,0,4.7602,Andesite_09,1,09,6,6,4.76,0.427777778,-0.26,1,0,0,1.9797,Gabbro_rect,4,1.98,0,0,0,0,0,1,,,,,,,,,,,,,
565c6791c121fe0012fc3caf,SCN,2024-06-24_14h45.14.357,LearnStrategy,2023.2.3,Win32,59.52380952,5,1,2,0.365555556,0.081111111,1,0,0,1.4293,Andesite_03,1,03,4,7,1.429,-0.083333333,-0.254444444,1,0,0,3.5144,Basalt_rect,2,3.514,0,1,0,1,0,1,,,,,,,,,,,,,
565c6791c121fe0012fc3caf,SCN,2024-06-24_14h45.14.357,LearnStrategy,2023.2.3,Win32,59.52380952,5,1,3,-0.054444444,-0.268888889,1,0,0,4.2117,Gabbro_11,4,11,2,4,4.212,-0.062222222,-0.266666667,1,0,0,2.5447,Basalt_rect,2,2.545,0,2,0,2,0,1,,,,,,,,,,,,,
565c6791c121fe0012fc3caf,SCN,2024-06-24_14h45.14.357,LearnStrategy,2023.2.3,Win32,59.52380952,5,1,4,-0.504444444,-0.103333333,1,0,0,5.2648,Diorite_16,3,16,3,1,5.265,-0.203333333,-0.235555556,1,0,0,1.4126,Basalt_rect,2,1.413,0,3,0,3,0,1,,,,,,,,,,,,,
565c6791c121fe0012fc3caf,SCN,2024-06-24_14h45.14.357,LearnStrategy,2023.2.3,Win32,59.52380952,5,1,5,-0.413333333,0.25,1,0,0,3.0751,Pumice_08,8,08,5,2,3.075,0.455555556,-0.382222222,1,0,0,0.9953,Pumice_rect,8,0.995,1,4,0,4,0,1,,,,,,,,,,,,,
565c6791c121fe0012fc3caf,SCN,2024-06-24_14h45.14.357,LearnStrategy,2023.2.3,Win32,59.52380952,5,1,6,-0.067777778,0.385555556,1,0,0,1.6396,Andesite_02,1,02,6,4,1.64,-0.38,-0.248888889,1,0,0,9.1905,Andesite_rect,1,9.19,1,5,0,5,0,1,,,,,,,,,,,,,
565c6791c121fe0012fc3caf,SCN,2024-06-24_14h45.14.357,LearnStrategy,2023.2.3,Win32,59.52380952,5,1,7,0.214444444,0.388888889,1,0,0,3.5521,Andesite_09,1,09,6,6,3.552,-0.35,-0.252222222,1,0,0,3.9514,Andesite_rect,1,3.951,1,6,0,6,0,1,,,,,,,,,,,,,
565c6791c121fe0012fc3caf,SCN,2024-06-24_14h45.14.357,LearnStrategy,2023.2.3,Win32,59.52380952,5,1,8,-0.202222222,-0.418888889,1,0,0,6.9248,Andesite_14,1,14,1,3,6.925,-0.084444444,-0.421111111,1,0,0,2.0579,Pegmatite_rect,6,2.058,0,7,0,7,0,1,,,,,,,,,,,,,
565c6791c121fe0012fc3caf,SCN,2024-06-24_14h45.14.357,LearnStrategy,2023.2.3,Win32,59.52380952,5,1,9,0.091111111,-0.453333333,1,0,0,1.3563,Diorite_06,3,06,1,5,1.356,0.105555556,-0.385555556,1,0,0,1.6931,Peridotite_rect,7,1.693,0,8,0,8,0,1,,,,,,,,,,,,,
565c6791c121fe0012fc3caf,SCN,2024-06-24_14h45.14.357,LearnStrategy,2023.2.3,Win32,59.52380952,5,1,10,0.575555556,-0.405555556,1,0,0,1.3194,Basalt_05,2,05,1,8,1.319,-0.095555556,-0.248888889,1,0,0,0.9883,Basalt_rect,2,0.988,1,9,0,9,0,1,,,,,,,,,,,,,
565c6791c121fe0012fc3caf,SCN,2024-06-24_14h45.14.357,LearnStrategy,2023.2.3,Win32,59.52380952,5,1,11,0.418888889,-0.268888889,1,0,0,2.9555,Pumice_13,8,13,2,7,2.956,0.368888889,-0.392222222,1,0,0,1.5944,Pumice_rect,8,1.594,1,10,0,10,0,1,,,,,,,,,,,,,
565c6791c121fe0012fc3caf,SCN,2024-06-24_14h45.14.357,LearnStrategy,2023.2.3,Win32,59.52380952,5,1,12,0.272222222,-0.274444444,1,0,0,1.2155,Gabbro_03,4,03,2,6,1.216,0.158888889,-0.253333333,1,0,0,2.4236,Diorite_rect,3,2.424,0,11,0,11,0,1,,,,,,,,,,,,,
565c6791c121fe0012fc3caf,SCN,2024-06-24_14h45.14.357,LearnStrategy,2023.2.3,Win32,59.52380952,5,1,13,-0.078888889,-0.268888889,1,0,0,2.9454,Gabbro_11,4,11,2,4,2.945,-0.078888889,-0.266666667,1,0,0,1.5252,Basalt_rect,2,1.525,0,12,0,12,0,1,,,,,,,,,,,,,
565c6791c121fe0012fc3caf,SCN,2024-06-24_14h45.14.357,LearnStrategy,2023.2.3,Win32,59.52380952,5,1,14,0.216666667,-0.268888889,1,0,0,4.0453,Gabbro_03,4,03,2,6,4.045,0.402222222,-0.263333333,1,0,0,0.9429,Gabbro_rect,4,0.943,1,13,0,13,0,1,,,,,,,,,,,,,
565c6791c121fe0012fc3caf,SCN,2024-06-24_14h45.14.357,LearnStrategy,2023.2.3,Win32,59.52380952,5,1,15,0.384444444,-0.11,1,0,0,1.7673,Basalt_08,2,08,3,7,1.767,-0.147777778,-0.255555556,1,0,0,0.9926,Basalt_rect,2,0.993,1,14,0,14,0,1,,,,,,,,,,,,,
565c6791c121fe0012fc3caf,SCN,2024-06-24_14h45.14.357,LearnStrategy,2023.2.3,Win32,59.52380952,5,1,16,-0.048888889,-0.102222222,1,0,0,1.6759,Gabbro_08,4,08,3,4,1.676,0.19,-0.405555556,1,0,0,4.3359,Peridotite_rect,7,4.336,0,15,0,15,0,1,,,,,,,,,,,,,
565c6791c121fe0012fc3caf,SCN,2024-06-24_14h45.14.357,LearnStrategy,2023.2.3,Win32,59.52380952,5,2,1,,,,,,,,1,05,,,,,,,,,,,4,2.097,0,,,,,,0.404444444,-0.258888889,1,0,0,2.0966,Gabbro_rect,0,0,0,0,1,
565c6791c121fe0012fc3caf,SCN,2024-06-24_14h45.14.357,LearnStrategy,2023.2.3,Win32,59.52380952,5,2,2,,,,,,,,3,08,,,,,,,,,,,7,8.5,0,,,,,,0.065555556,-0.41,1,0,0,8.4998,Peridotite_rect,1,0,1,0,1,
565c6791c121fe0012fc3caf,SCN,2024-06-24_14h45.14.357,LearnStrategy,2023.2.3,Win32,59.52380952,5,2,3,,,,,,,,5,07,,,,,,,,,,,5,2.216,1,,,,,,-0.374444444,-0.404444444,1,0,0,2.2162,Obsidian_rect,2,0,2,0,1,
565c6791c121fe0012fc3caf,SCN,2024-06-24_14h45.14.357,LearnStrategy,2023.2.3,Win32,59.52380952,5,2,4,,,,,,,,7,12,,,,,,,,,,,7,7.059,1,,,,,,0.115555556,-0.416666667,1,0,0,7.0586,Peridotite_rect,3,0,3,0,1,
565c6791c121fe0012fc3caf,SCN,2024-06-24_14h45.14.357,LearnStrategy,2023.2.3,Win32,59.52380952,5,2,5,,,,,,,,6,07,,,,,,,,,,,6,1.944,1,,,,,,-0.095555556,-0.396666667,1,0,0,1.9437,Pegmatite_rect,4,0,4,0,1,
565c6791c121fe0012fc3caf,SCN,2024-06-24_14h45.14.357,LearnStrategy,2023.2.3,Win32,59.52380952,5,2,6,,,,,,,,1,16,,,,,,,,,,,4,8.267,0,,,,,,0.432222222,-0.235555556,1,0,0,8.2675,Gabbro_rect,5,0,5,0,1,
565c6791c121fe0012fc3caf,SCN,2024-06-24_14h45.14.357,LearnStrategy,2023.2.3,Win32,59.52380952,5,2,7,,,,,,,,2,16,,,,,,,,,,,2,3.991,1,,,,,,-0.105555556,-0.242222222,1,0,0,3.9909,Basalt_rect,6,0,6,0,1,
565c6791c121fe0012fc3caf,SCN,2024-06-24_14h45.14.357,LearnStrategy,2023.2.3,Win32,59.52380952,5,2,8,,,,,,,,2,09,,,,,,,,,,,3,1.973,0,,,,,,0.124444444,-0.266666667,1,0,0,1.9731,Diorite_rect,7,0,7,0,1,
565c6791c121fe0012fc3caf,SCN,2024-06-24_14h45.14.357,LearnStrategy,2023.2.3,Win32,59.52380952,5,2,9,,,,,,,,5,11,,,,,,,,,,,5,1.954,1,,,,,,-0.338888889,-0.4,1,0,0,1.9537,Obsidian_rect,8,0,8,0,1,
565c6791c121fe0012fc3caf,SCN,2024-06-24_14h45.14.357,LearnStrategy,2023.2.3,Win32,59.52380952,5,2,10,,,,,,,,8,09,,,,,,,,,,,8,1.612,1,,,,,,0.431111111,-0.404444444,1,0,0,1.6116,Pumice_rect,9,0,9,0,1,
565c6791c121fe0012fc3caf,SCN,2024-06-24_14h45.14.357,LearnStrategy,2023.2.3,Win32,59.52380952,5,2,11,,,,,,,,4,13,,,,,,,,,,,3,4.781,0,,,,,,0.172222222,-0.271111111,1,0,0,4.7814,Diorite_rect,10,0,10,0,1,
565c6791c121fe0012fc3caf,SCN,2024-06-24_14h45.14.357,LearnStrategy,2023.2.3,Win32,59.52380952,5,2,12,,,,,,,,3,11,,,,,,,,,,,3,6.846,1,,,,,,0.16,-0.258888889,1,0,0,6.8459,Diorite_rect,11,0,11,0,1,
565c6791c121fe0012fc3caf,SCN,2024-06-24_14h45.14.357,LearnStrategy,2023.2.3,Win32,59.52380952,5,2,13,,,,,,,,8,05,,,,,,,,,,,8,1.562,1,,,,,,0.393333333,-0.39,1,0,0,1.5615,Pumice_rect,12,0,12,0,1,
565c6791c121fe0012fc3caf,SCN,2024-06-24_14h45.14.357,LearnStrategy,2023.2.3,Win32,59.52380952,5,2,14,,,,,,,,6,03,,,,,,,,,,,6,4.947,1,,,,,,-0.111111111,-0.411111111,1,0,0,4.9468,Pegmatite_rect,13,0,13,0,1,
565c6791c121fe0012fc3caf,SCN,2024-06-24_14h45.14.357,LearnStrategy,2023.2.3,Win32,59.52380952,5,2,15,,,,,,,,7,16,,,,,,,,,,,7,5.246,1,,,,,,0.134444444,-0.411111111,1,0,0,5.2465,Peridotite_rect,14,0,14,0,1,
565c6791c121fe0012fc3caf,SCN,2024-06-24_14h45.14.357,LearnStrategy,2023.2.3,Win32,59.52380952,5,2,16,,,,,,,,4,14,,,,,,,,,,,3,6.648,0,,,,,,0.097777778,-0.263333333,1,0,0,6.6478,Diorite_rect,15,0,15,0,1,
565c6791c121fe0012fc3caf,SCN,2024-06-24_14h45.14.357,LearnStrategy,2023.2.3,Win32,59.52380952,6,1,1,0.223333333,0.087777778,1,0,0,5.405,Obsidian_05,5,05,4,6,5.405,-0.426666667,-0.386666667,1,0,0,3.1941,Obsidian_rect,5,3.194,1,0,0,0,0,1,,,,,,,,,,,,,
565c6791c121fe0012fc3caf,SCN,2024-06-24_14h45.14.357,LearnStrategy,2023.2.3,Win32,59.52380952,6,1,2,0.043333333,0.08,1,0,0,2.5992,Gabbro_10,4,10,4,5,2.599,0.39,-0.25,1,0,0,3.4274,Gabbro_rect,4,3.427,1,1,0,1,0,1,,,,,,,,,,,,,
565c6791c121fe0012fc3caf,SCN,2024-06-24_14h45.14.357,LearnStrategy,2023.2.3,Win32,59.52380952,6,1,3,-0.087777778,0.103333333,1,0,0,1.8015,Diorite_07,3,07,4,4,1.802,0.094444444,-0.394444444,1,0,0,2.0288,Peridotite_rect,7,2.029,0,2,0,2,0,1,,,,,,,,,,,,,
565c6791c121fe0012fc3caf,SCN,2024-06-24_14h45.14.357,LearnStrategy,2023.2.3,Win32,59.52380952,6,1,4,-0.235555556,0.098888889,1,0,0,1.6002,Pegmatite_10,6,10,4,3,1.6,-0.095555556,-0.387777778,1,0,0,2.2267,Pegmatite_rect,6,2.227,1,3,0,3,0,1,,,,,,,,,,,,,
565c6791c121fe0012fc3caf,SCN,2024-06-24_14h45.14.357,LearnStrategy,2023.2.3,Win32,59.52380952,6,1,5,0.064444444,0.4,1,0,0,3.5896,Basalt_11,2,11,6,5,3.59,0.368888889,-0.388888889,1,0,0,2.635,Pumice_rect,8,2.635,0,4,0,4,0,1,,,,,,,,,,,,,
565c6791c121fe0012fc3caf,SCN,2024-06-24_14h45.14.357,LearnStrategy,2023.2.3,Win32,59.52380952,6,1,6,0.233333333,0.403333333,1,0,0,3.1716,Andesite_09,1,09,6,6,3.172,0.064444444,-0.234444444,1,0,0,1.6372,Diorite_rect,3,1.637,0,5,0,5,0,1,,,,,,,,,,,,,
565c6791c121fe0012fc3caf,SCN,2024-06-24_14h45.14.357,LearnStrategy,2023.2.3,Win32,59.52380952,6,1,7,-0.103333333,-0.435555556,1,0,0,1.1059,Diorite_10,3,10,1,4,1.106,0.072222222,-0.404444444,1,0,0,2.407,Peridotite_rect,7,2.407,0,6,0,6,0,1,,,,,,,,,,,,,
565c6791c121fe0012fc3caf,SCN,2024-06-24_14h45.14.357,LearnStrategy,2023.2.3,Win32,59.52380952,6,1,8,-0.37,-0.232222222,1,0,0,1.7159,Peridotite_13,7,13,2,2,1.716,0.134444444,-0.405555556,1,0,0,4.15,Peridotite_rect,7,4.15,1,7,0,7,0,1,,,,,,,,,,,,,
565c6791c121fe0012fc3caf,SCN,2024-06-24_14h45.14.357,LearnStrategy,2023.2.3,Win32,59.52380952,6,1,9,-0.574444444,-0.243333333,1,0,0,1.2712,Peridotite_04,7,04,2,1,1.271,0.124444444,-0.405555556,1,0,0,4.2387,Peridotite_rect,7,4.239,1,8,0,8,0,1,,,,,,,,,,,,,
565c6791c121fe0012fc3caf,SCN,2024-06-24_14h45.14.357,LearnStrategy,2023.2.3,Win32,59.52380952,6,1,10,-0.55,-0.407777778,1,0,0,3.3926,Pegmatite_12,6,12,1,1,3.393,0.052222222,-0.408888889,1,0,0,2.2807,Peridotite_rect,7,2.281,0,9,0,9,0,1,,,,,,,,,,,,,
565c6791c121fe0012fc3caf,SCN,2024-06-24_14h45.14.357,LearnStrategy,2023.2.3,Win32,59.52380952,6,1,11,-0.374444444,-0.431111111,1,0,0,2.7776,Pegmatite_16,6,16,1,2,2.778,-0.092222222,-0.412222222,1,0,0,2.5034,Pegmatite_rect,6,2.503,1,10,0,10,0,1,,,,,,,,,,,,,
565c6791c121fe0012fc3caf,SCN,2024-06-24_14h45.14.357,LearnStrategy,2023.2.3,Win32,59.52380952,6,1,12,-0.23,-0.267777778,1,0,0,1.1806,Pegmatite_08,6,08,2,3,1.181,-0.327777778,-0.405555556,1,0,0,2.5117,Obsidian_rect,5,2.512,0,11,0,11,0,1,,,,,,,,,,,,,
565c6791c121fe0012fc3caf,SCN,2024-06-24_14h45.14.357,LearnStrategy,2023.2.3,Win32,59.52380952,6,1,13,-0.395555556,-0.1,1,0,0,3.5594,Basalt_12,2,12,3,2,3.559,0.04,-0.235555556,1,0,0,1.2904,Diorite_rect,3,1.29,0,12,0,12,0,1,,,,,,,,,,,,,
565c6791c121fe0012fc3caf,SCN,2024-06-24_14h45.14.357,LearnStrategy,2023.2.3,Win32,59.52380952,6,1,14,-0.54,0.106666667,1,0,0,2.0056,Pumice_16,8,16,4,1,2.006,0.358888889,-0.383333333,1,0,0,2.0564,Pumice_rect,8,2.056,1,13,0,13,0,1,,,,,,,,,,,,,
565c6791c121fe0012fc3caf,SCN,2024-06-24_14h45.14.357,LearnStrategy,2023.2.3,Win32,59.52380952,6,1,15,-0.533333333,0.233333333,1,0,0,1.5014,Gabbro_15,4,15,5,1,1.501,0.094444444,-0.266666667,1,0,0,2.9766,Diorite_rect,3,2.977,0,14,0,14,0,1,,,,,,,,,,,,,
565c6791c121fe0012fc3caf,SCN,2024-06-24_14h45.14.357,LearnStrategy,2023.2.3,Win32,59.52380952,6,1,16,-0.226666667,0.263333333,1,0,0,3.2267,Andesite_04,1,04,5,3,3.227,0.135555556,-0.394444444,1,0,0,2.3951,Peridotite_rect,7,2.395,0,15,0,15,0,1,,,,,,,,,,,,,
565c6791c121fe0012fc3caf,SCN,2024-06-24_14h45.14.357,LearnStrategy,2023.2.3,Win32,59.52380952,6,2,1,,,,,,,,3,12,,,,,,,,,,,7,6.556,0,,,,,,0.148888889,-0.382222222,1,0,0,6.556,Peridotite_rect,0,0,0,0,1,
565c6791c121fe0012fc3caf,SCN,2024-06-24_14h45.14.357,LearnStrategy,2023.2.3,Win32,59.52380952,6,2,2,,,,,,,,5,12,,,,,,,,,,,5,1.86,1,,,,,,-0.378888889,-0.387777778,1,0,0,1.8603,Obsidian_rect,1,0,1,0,1,
565c6791c121fe0012fc3caf,SCN,2024-06-24_14h45.14.357,LearnStrategy,2023.2.3,Win32,59.52380952,6,2,3,,,,,,,,8,06,,,,,,,,,,,8,2.227,1,,,,,,0.436666667,-0.401111111,1,0,0,2.2269,Pumice_rect,2,0,2,0,1,
565c6791c121fe0012fc3caf,SCN,2024-06-24_14h45.14.357,LearnStrategy,2023.2.3,Win32,59.52380952,6,2,4,,,,,,,,1,10,,,,,,,,,,,1,8.627,1,,,,,,-0.394444444,-0.262222222,1,0,0,8.6267,Andesite_rect,3,0,3,0,1,
565c6791c121fe0012fc3caf,SCN,2024-06-24_14h45.14.357,LearnStrategy,2023.2.3,Win32,59.52380952,6,2,5,,,,,,,,4,16,,,,,,,,,,,2,4.868,0,,,,,,-0.147777778,-0.234444444,1,0,0,4.8683,Basalt_rect,4,0,4,0,1,
565c6791c121fe0012fc3caf,SCN,2024-06-24_14h45.14.357,LearnStrategy,2023.2.3,Win32,59.52380952,6,2,6,,,,,,,,2,01,,,,,,,,,,,2,5.431,1,,,,,,-0.163333333,-0.241111111,1,0,0,5.4315,Basalt_rect,5,0,5,0,1,
565c6791c121fe0012fc3caf,SCN,2024-06-24_14h45.14.357,LearnStrategy,2023.2.3,Win32,59.52380952,6,2,7,,,,,,,,6,09,,,,,,,,,,,6,5.905,1,,,,,,-0.083333333,-0.407777778,1,0,0,5.9052,Pegmatite_rect,6,0,6,0,1,
565c6791c121fe0012fc3caf,SCN,2024-06-24_14h45.14.357,LearnStrategy,2023.2.3,Win32,59.52380952,6,2,8,,,,,,,,3,14,,,,,,,,,,,3,8.299,1,,,,,,0.133333333,-0.252222222,1,0,0,8.2989,Diorite_rect,7,0,7,0,1,
565c6791c121fe0012fc3caf,SCN,2024-06-24_14h45.14.357,LearnStrategy,2023.2.3,Win32,59.52380952,6,2,9,,,,,,,,4,12,,,,,,,,,,,4,1.093,1,,,,,,0.365555556,-0.24,1,0,0,1.0932,Gabbro_rect,8,0,8,0,1,
565c6791c121fe0012fc3caf,SCN,2024-06-24_14h45.14.357,LearnStrategy,2023.2.3,Win32,59.52380952,6,2,10,,,,,,,,1,01,,,,,,,,,,,2,9.28,0,,,,,,-0.18,-0.27,1,0,0,9.2797,Basalt_rect,9,0,9,0,1,
565c6791c121fe0012fc3caf,SCN,2024-06-24_14h45.14.357,LearnStrategy,2023.2.3,Win32,59.52380952,6,2,11,,,,,,,,6,15,,,,,,,,,,,6,2.138,1,,,,,,-0.161111111,-0.406666667,1,0,0,2.1376,Pegmatite_rect,10,0,10,0,1,
565c6791c121fe0012fc3caf,SCN,2024-06-24_14h45.14.357,LearnStrategy,2023.2.3,Win32,59.52380952,6,2,12,,,,,,,,2,04,,,,,,,,,,,2,3.736,1,,,,,,-0.15,-0.247777778,1,0,0,3.7365,Basalt_rect,11,0,11,0,1,
565c6791c121fe0012fc3caf,SCN,2024-06-24_14h45.14.357,LearnStrategy,2023.2.3,Win32,59.52380952,6,2,13,,,,,,,,7,07,,,,,,,,,,,7,3.337,1,,,,,,0.106666667,-0.392222222,1,0,0,3.3368,Peridotite_rect,12,0,12,0,1,
565c6791c121fe0012fc3caf,SCN,2024-06-24_14h45.14.357,LearnStrategy,2023.2.3,Win32,59.52380952,6,2,14,,,,,,,,5,09,,,,,,,,,,,5,1.48,1,,,,,,-0.474444444,-0.411111111,1,0,0,1.48,Obsidian_rect,13,0,13,0,1,
565c6791c121fe0012fc3caf,SCN,2024-06-24_14h45.14.357,LearnStrategy,2023.2.3,Win32,59.52380952,6,2,15,,,,,,,,7,10,,,,,,,,,,,3,4.251,0,,,,,,0.123333333,-0.241111111,1,0,0,4.2511,Diorite_rect,14,0,14,0,1,
565c6791c121fe0012fc3caf,SCN,2024-06-24_14h45.14.357,LearnStrategy,2023.2.3,Win32,59.52380952,6,2,16,,,,,,,,8,10,,,,,,,,,,,8,1.66,1,,,,,,0.34,-0.382222222,1,0,0,1.6603,Pumice_rect,15,0,15,0,1,
565c6791c121fe0012fc3caf,SCN,2024-06-24_14h45.14.357,LearnStrategy,2023.2.3,Win32,59.52380952,7,1,1,-0.092222222,0.414444444,1,0,0,3.3765,Andesite_02,1,02,6,4,3.377,0.153333333,-0.404444444,1,0,0,2.7224,Peridotite_rect,7,2.722,0,0,0,0,0,1,,,,,,,,,,,,,
565c6791c121fe0012fc3caf,SCN,2024-06-24_14h45.14.357,LearnStrategy,2023.2.3,Win32,59.52380952,7,1,2,0.363333333,0.41,1,0,0,1.9454,Peridotite_08,7,08,6,7,1.945,0.081111111,-0.384444444,1,0,0,1.611,Peridotite_rect,7,1.611,1,1,0,1,0,1,,,,,,,,,,,,,
565c6791c121fe0012fc3caf,SCN,2024-06-24_14h45.14.357,LearnStrategy,2023.2.3,Win32,59.52380952,7,1,3,-0.412222222,0.405555556,1,0,0,5.327,Pumice_04,8,04,6,2,5.327,0.42,-0.416666667,1,0,0,1.3127,Pumice_rect,8,1.313,1,2,0,2,0,1,,,,,,,,,,,,,
565c6791c121fe0012fc3caf,SCN,2024-06-24_14h45.14.357,LearnStrategy,2023.2.3,Win32,59.52380952,7,1,4,-0.052222222,-0.27,1,0,0,1.279,Gabbro_11,4,11,2,4,1.279,-0.133333333,-0.256666667,1,0,0,1.3291,Basalt_rect,2,1.329,0,3,0,3,0,1,,,,,,,,,,,,,
565c6791c121fe0012fc3caf,SCN,2024-06-24_14h45.14.357,LearnStrategy,2023.2.3,Win32,59.52380952,7,1,5,-0.077777778,-0.442222222,1,0,0,1.3808,Diorite_10,3,10,1,4,1.381,0.077777778,-0.254444444,1,0,0,2.862,Diorite_rect,3,2.862,1,4,0,4,0,1,,,,,,,,,,,,,
565c6791c121fe0012fc3caf,SCN,2024-06-24_14h45.14.357,LearnStrategy,2023.2.3,Win32,59.52380952,7,1,6,-0.246666667,-0.41,1,0,0,1.7431,Andesite_14,1,14,1,3,1.743,-0.088888889,-0.408888889,1,0,0,2.6248,Pegmatite_rect,6,2.625,0,5,0,5,0,1,,,,,,,,,,,,,
565c6791c121fe0012fc3caf,SCN,2024-06-24_14h45.14.357,LearnStrategy,2023.2.3,Win32,59.52380952,7,1,7,-0.51,-0.427777778,1,0,0,1.4388,Pegmatite_12,6,12,1,1,1.439,-0.14,-0.405555556,1,0,0,1.9118,Pegmatite_rect,6,1.912,1,6,0,6,0,1,,,,,,,,,,,,,
565c6791c121fe0012fc3caf,SCN,2024-06-24_14h45.14.357,LearnStrategy,2023.2.3,Win32,59.52380952,7,1,8,-0.228888889,-0.111111111,1,0,0,3.152,Gabbro_09,4,09,3,3,3.152,-0.14,-0.26,1,0,0,1.9027,Basalt_rect,2,1.903,0,7,0,7,0,1,,,,,,,,,,,,,
565c6791c121fe0012fc3caf,SCN,2024-06-24_14h45.14.357,LearnStrategy,2023.2.3,Win32,59.52380952,7,1,9,-0.077777778,0.086666667,1,0,0,3.041,Diorite_07,3,07,4,4,3.041,0.053333333,-0.401111111,1,0,0,2.3406,Peridotite_rect,7,2.341,0,8,0,8,0,1,,,,,,,,,,,,,
565c6791c121fe0012fc3caf,SCN,2024-06-24_14h45.14.357,LearnStrategy,2023.2.3,Win32,59.52380952,7,1,10,0.055555556,0.072222222,1,0,0,0.9964,Gabbro_10,4,10,4,5,0.996,0.08,-0.242222222,1,0,0,3.1057,Diorite_rect,3,3.106,0,9,0,9,0,1,,,,,,,,,,,,,
565c6791c121fe0012fc3caf,SCN,2024-06-24_14h45.14.357,LearnStrategy,2023.2.3,Win32,59.52380952,7,1,11,-0.526666667,0.101111111,1,0,0,3.0471,Pumice_16,8,16,4,1,3.047,0.366666667,-0.401111111,1,0,0,2.0522,Pumice_rect,8,2.052,1,10,0,10,0,1,,,,,,,,,,,,,
565c6791c121fe0012fc3caf,SCN,2024-06-24_14h45.14.357,LearnStrategy,2023.2.3,Win32,59.52380952,7,1,12,0.036666667,0.265555556,1,0,0,1.334,Pegmatite_11,6,11,5,5,1.334,-0.122222222,-0.4,1,0,0,1.6809,Pegmatite_rect,6,1.681,1,11,0,11,0,1,,,,,,,,,,,,,
565c6791c121fe0012fc3caf,SCN,2024-06-24_14h45.14.357,LearnStrategy,2023.2.3,Win32,59.52380952,7,1,13,-0.531111111,0.241111111,1,0,0,3.212,Gabbro_15,4,15,5,1,3.212,-0.327777778,-0.265555556,1,0,0,3.1569,Andesite_rect,1,3.157,0,12,0,12,0,1,,,,,,,,,,,,,
565c6791c121fe0012fc3caf,SCN,2024-06-24_14h45.14.357,LearnStrategy,2023.2.3,Win32,59.52380952,7,1,14,-0.526666667,-0.264444444,1,0,0,8.6513,Peridotite_04,7,04,2,1,8.651,0.076666667,-0.405555556,1,0,0,2.0647,Peridotite_rect,7,2.065,1,13,0,13,0,1,,,,,,,,,,,,,
565c6791c121fe0012fc3caf,SCN,2024-06-24_14h45.14.357,LearnStrategy,2023.2.3,Win32,59.52380952,7,1,15,0.525555556,-0.413333333,1,0,0,2.1787,Basalt_05,2,05,1,8,2.179,0.485555556,-0.237777778,1,0,0,2.9512,Gabbro_rect,4,2.951,0,14,0,14,0,1,,,,,,,,,,,,,
565c6791c121fe0012fc3caf,SCN,2024-06-24_14h45.14.357,LearnStrategy,2023.2.3,Win32,59.52380952,7,1,16,0.056666667,0.381111111,1,0,0,13.128,Basalt_11,2,11,6,5,13.128,-0.114444444,-0.267777778,1,0,0,2.9877,Basalt_rect,2,2.988,1,15,0,15,0,1,,,,,,,,,,,,,
565c6791c121fe0012fc3caf,SCN,2024-06-24_14h45.14.357,LearnStrategy,2023.2.3,Win32,59.52380952,7,2,1,,,,,,,,6,06,,,,,,,,,,,6,2.626,1,,,,,,-0.115555556,-0.396666667,1,0,0,2.6261,Pegmatite_rect,0,0,0,0,1,
565c6791c121fe0012fc3caf,SCN,2024-06-24_14h45.14.357,LearnStrategy,2023.2.3,Win32,59.52380952,7,2,2,,,,,,,,7,05,,,,,,,,,,,7,9.506,1,,,,,,0.118888889,-0.413333333,1,0,0,9.5062,Peridotite_rect,1,0,1,0,1,
565c6791c121fe0012fc3caf,SCN,2024-06-24_14h45.14.357,LearnStrategy,2023.2.3,Win32,59.52380952,7,2,3,,,,,,,,3,11,,,,,,,,,,,3,10.039,1,,,,,,0.104444444,-0.264444444,1,0,0,10.0394,Diorite_rect,2,0,2,0,1,
565c6791c121fe0012fc3caf,SCN,2024-06-24_14h45.14.357,LearnStrategy,2023.2.3,Win32,59.52380952,7,2,4,,,,,,,,6,03,,,,,,,,,,,6,1.762,1,,,,,,-0.104444444,-0.401111111,1,0,0,1.7618,Pegmatite_rect,3,0,3,0,1,
565c6791c121fe0012fc3caf,SCN,2024-06-24_14h45.14.357,LearnStrategy,2023.2.3,Win32,59.52380952,7,2,5,,,,,,,,7,07,,,,,,,,,,,3,2.944,0,,,,,,0.072222222,-0.268888889,1,0,0,2.9441,Diorite_rect,4,0,4,0,1,
565c6791c121fe0012fc3caf,SCN,2024-06-24_14h45.14.357,LearnStrategy,2023.2.3,Win32,59.52380952,7,2,6,,,,,,,,8,02,,,,,,,,,,,8,1.476,1,,,,,,0.353333333,-0.4,1,0,0,1.4755,Pumice_rect,5,0,5,0,1,
565c6791c121fe0012fc3caf,SCN,2024-06-24_14h45.14.357,LearnStrategy,2023.2.3,Win32,59.52380952,7,2,7,,,,,,,,4,16,,,,,,,,,,,1,4.149,0,,,,,,-0.353333333,-0.25,1,0,0,4.149,Andesite_rect,6,0,6,0,1,
565c6791c121fe0012fc3caf,SCN,2024-06-24_14h45.14.357,LearnStrategy,2023.2.3,Win32,59.52380952,7,2,8,,,,,,,,1,01,,,,,,,,,,,2,3.209,0,,,,,,-0.195555556,-0.26,1,0,0,3.2086,Basalt_rect,7,0,7,0,1,
565c6791c121fe0012fc3caf,SCN,2024-06-24_14h45.14.357,LearnStrategy,2023.2.3,Win32,59.52380952,7,2,9,,,,,,,,3,09,,,,,,,,,,,3,1.25,1,,,,,,0.075555556,-0.252222222,1,0,0,1.2499,Diorite_rect,8,0,8,0,1,
565c6791c121fe0012fc3caf,SCN,2024-06-24_14h45.14.357,LearnStrategy,2023.2.3,Win32,59.52380952,7,2,10,,,,,,,,5,07,,,,,,,,,,,5,1.521,1,,,,,,-0.416666667,-0.392222222,1,0,0,1.5206,Obsidian_rect,9,0,9,0,1,
565c6791c121fe0012fc3caf,SCN,2024-06-24_14h45.14.357,LearnStrategy,2023.2.3,Win32,59.52380952,7,2,11,,,,,,,,5,09,,,,,,,,,,,5,0.744,1,,,,,,-0.416666667,-0.391111111,1,0,0,0.7438,Obsidian_rect,10,0,10,0,1,
565c6791c121fe0012fc3caf,SCN,2024-06-24_14h45.14.357,LearnStrategy,2023.2.3,Win32,59.52380952,7,2,12,,,,,,,,1,06,,,,,,,,,,,7,3.95,0,,,,,,0.065555556,-0.403333333,1,0,0,3.9497,Peridotite_rect,11,0,11,0,1,
565c6791c121fe0012fc3caf,SCN,2024-06-24_14h45.14.357,LearnStrategy,2023.2.3,Win32,59.52380952,7,2,13,,,,,,,,2,01,,,,,,,,,,,2,3.364,1,,,,,,-0.154444444,-0.243333333,1,0,0,3.3642,Basalt_rect,12,0,12,0,1,
565c6791c121fe0012fc3caf,SCN,2024-06-24_14h45.14.357,LearnStrategy,2023.2.3,Win32,59.52380952,7,2,14,,,,,,,,8,06,,,,,,,,,,,8,1.53,1,,,,,,0.404444444,-0.405555556,1,0,0,1.53,Pumice_rect,13,0,13,0,1,
565c6791c121fe0012fc3caf,SCN,2024-06-24_14h45.14.357,LearnStrategy,2023.2.3,Win32,59.52380952,7,2,15,,,,,,,,2,06,,,,,,,,,,,2,5.769,1,,,,,,-0.181111111,-0.246666667,1,0,0,5.7686,Basalt_rect,14,0,14,0,1,
565c6791c121fe0012fc3caf,SCN,2024-06-24_14h45.14.357,LearnStrategy,2023.2.3,Win32,59.52380952,7,2,16,,,,,,,,4,14,,,,,,,,,,,4,3.709,1,,,,,,0.34,-0.256666667,1,0,0,3.709,Gabbro_rect,15,0,15,0,1,
565c6791c121fe0012fc3caf,SCN,2024-06-24_14h45.14.357,LearnStrategy,2023.2.3,Win32,59.52380952,8,1,1,-0.243333333,0.383333333,1,0,0,6.0204,Basalt_10,2,10,6,3,6.02,-0.091111111,-0.246666667,1,0,0,3.5233,Basalt_rect,2,3.523,1,0,0,0,0,1,,,,,,,,,,,,,
565c6791c121fe0012fc3caf,SCN,2024-06-24_14h45.14.357,LearnStrategy,2023.2.3,Win32,59.52380952,8,1,2,-0.088888889,0.387777778,1,0,0,1.2103,Andesite_02,1,02,6,4,1.21,0.107777778,-0.403333333,1,0,0,1.8479,Peridotite_rect,7,1.848,0,1,0,1,0,1,,,,,,,,,,,,,
565c6791c121fe0012fc3caf,SCN,2024-06-24_14h45.14.357,LearnStrategy,2023.2.3,Win32,59.52380952,8,1,3,0.054444444,0.385555556,1,0,0,1.2993,Basalt_11,2,11,6,5,1.299,0.436666667,-0.417777778,1,0,0,1.4088,Pumice_rect,8,1.409,0,2,0,2,0,1,,,,,,,,,,,,,
565c6791c121fe0012fc3caf,SCN,2024-06-24_14h45.14.357,LearnStrategy,2023.2.3,Win32,59.52380952,8,1,4,0.214444444,0.403333333,1,0,0,1.6769,Andesite_09,1,09,6,6,1.677,0.164444444,-0.238888889,1,0,0,4.7822,Diorite_rect,3,4.782,0,3,0,3,0,1,,,,,,,,,,,,,
565c6791c121fe0012fc3caf,SCN,2024-06-24_14h45.14.357,LearnStrategy,2023.2.3,Win32,59.52380952,8,1,5,0.417777778,0.411111111,1,0,0,1.8969,Peridotite_08,7,08,6,7,1.897,0.1,-0.412222222,1,0,0,2.2027,Peridotite_rect,7,2.203,1,4,0,4,0,1,,,,,,,,,,,,,
565c6791c121fe0012fc3caf,SCN,2024-06-24_14h45.14.357,LearnStrategy,2023.2.3,Win32,59.52380952,8,1,6,0.535555556,0.395555556,1,0,0,1.0161,Peridotite_14,7,14,6,8,1.016,0.094444444,-0.398888889,1,0,0,2.2263,Peridotite_rect,7,2.226,1,5,0,5,0,1,,,,,,,,,,,,,
565c6791c121fe0012fc3caf,SCN,2024-06-24_14h45.14.357,LearnStrategy,2023.2.3,Win32,59.52380952,8,1,7,-0.534444444,0.25,1,0,0,1.1449,Gabbro_15,4,15,5,1,1.145,0.062222222,-0.261111111,1,0,0,2.6093,Diorite_rect,3,2.609,0,6,0,6,0,1,,,,,,,,,,,,,
565c6791c121fe0012fc3caf,SCN,2024-06-24_14h45.14.357,LearnStrategy,2023.2.3,Win32,59.52380952,8,1,8,0.096666667,0.075555556,1,0,0,6.9112,Gabbro_10,4,10,4,5,6.911,-0.103333333,-0.263333333,1,0,0,4.3656,Basalt_rect,2,4.366,0,7,0,7,0,1,,,,,,,,,,,,,
565c6791c121fe0012fc3caf,SCN,2024-06-24_14h45.14.357,LearnStrategy,2023.2.3,Win32,59.52380952,8,1,9,0.215555556,-0.402222222,1,0,0,1.4738,Diorite_13,3,13,1,6,1.474,0.101111111,-0.397777778,1,0,0,2.0948,Peridotite_rect,7,2.095,0,8,0,8,0,1,,,,,,,,,,,,,
565c6791c121fe0012fc3caf,SCN,2024-06-24_14h45.14.357,LearnStrategy,2023.2.3,Win32,59.52380952,8,1,10,0.215555556,-0.254444444,1,0,0,1.2618,Gabbro_03,4,03,2,6,1.262,0.215555556,-0.254444444,1,0,0,1.0145,Diorite_rect,3,1.014,0,9,0,9,0,1,,,,,,,,,,,,,
565c6791c121fe0012fc3caf,SCN,2024-06-24_14h45.14.357,LearnStrategy,2023.2.3,Win32,59.52380952,8,1,11,-0.245555556,-0.426666667,1,0,0,1.5313,Andesite_14,1,14,1,3,1.531,-0.067777778,-0.415555556,1,0,0,1.4501,Pegmatite_rect,6,1.45,0,10,0,10,0,1,,,,,,,,,,,,,
565c6791c121fe0012fc3caf,SCN,2024-06-24_14h45.14.357,LearnStrategy,2023.2.3,Win32,59.52380952,8,1,12,-0.56,-0.391111111,1,0,0,2.6009,Pegmatite_12,6,12,1,1,2.601,-0.171111111,-0.384444444,1,0,0,1.255,Pegmatite_rect,6,1.255,1,11,0,11,0,1,,,,,,,,,,,,,
565c6791c121fe0012fc3caf,SCN,2024-06-24_14h45.14.357,LearnStrategy,2023.2.3,Win32,59.52380952,8,1,13,-0.572222222,-0.117777778,1,0,0,1.2011,Diorite_16,3,16,3,1,1.201,-0.397777778,-0.231111111,1,0,0,2.0907,Andesite_rect,1,2.091,0,12,0,12,0,1,,,,,,,,,,,,,
565c6791c121fe0012fc3caf,SCN,2024-06-24_14h45.14.357,LearnStrategy,2023.2.3,Win32,59.52380952,8,1,14,-0.071111111,-0.112222222,1,0,0,3.0213,Gabbro_08,4,08,3,4,3.021,0.095555556,-0.25,1,0,0,1.3751,Diorite_rect,3,1.375,0,13,0,13,0,1,,,,,,,,,,,,,
565c6791c121fe0012fc3caf,SCN,2024-06-24_14h45.14.357,LearnStrategy,2023.2.3,Win32,59.52380952,8,1,15,-0.353333333,-0.084444444,1,0,0,2.0452,Basalt_12,2,12,3,2,2.045,0.058888889,-0.271111111,1,0,0,1.8013,Diorite_rect,3,1.801,0,14,0,14,0,1,,,,,,,,,,,,,
565c6791c121fe0012fc3caf,SCN,2024-06-24_14h45.14.357,LearnStrategy,2023.2.3,Win32,59.52380952,8,1,16,0.042222222,0.1,1,0,0,3.448,Gabbro_10,4,10,4,5,3.448,-0.103333333,-0.261111111,1,0,0,2.0327,Basalt_rect,2,2.033,0,15,0,15,0,1,,,,,,,,,,,,,
565c6791c121fe0012fc3caf,SCN,2024-06-24_14h45.14.357,LearnStrategy,2023.2.3,Win32,59.52380952,8,2,1,,,,,,,,6,13,,,,,,,,,,,6,4.913,1,,,,,,-0.075555556,-0.406666667,1,0,0,4.9128,Pegmatite_rect,0,0,0,0,1,
565c6791c121fe0012fc3caf,SCN,2024-06-24_14h45.14.357,LearnStrategy,2023.2.3,Win32,59.52380952,8,2,2,,,,,,,,5,14,,,,,,,,,,,5,1.601,1,,,,,,-0.34,-0.387777778,1,0,0,1.6008,Obsidian_rect,1,0,1,0,1,
565c6791c121fe0012fc3caf,SCN,2024-06-24_14h45.14.357,LearnStrategy,2023.2.3,Win32,59.52380952,8,2,3,,,,,,,,4,13,,,,,,,,,,,7,6.471,0,,,,,,0.118888889,-0.398888889,1,0,0,6.4708,Peridotite_rect,2,0,2,0,1,
565c6791c121fe0012fc3caf,SCN,2024-06-24_14h45.14.357,LearnStrategy,2023.2.3,Win32,59.52380952,8,2,4,,,,,,,,7,16,,,,,,,,,,,7,2.624,1,,,,,,0.118888889,-0.397777778,1,0,0,2.6235,Peridotite_rect,3,0,3,0,1,
565c6791c121fe0012fc3caf,SCN,2024-06-24_14h45.14.357,LearnStrategy,2023.2.3,Win32,59.52380952,8,2,5,,,,,,,,7,12,,,,,,,,,,,7,2.996,1,,,,,,0.118888889,-0.397777778,1,0,0,2.9957,Peridotite_rect,4,0,4,0,1,
565c6791c121fe0012fc3caf,SCN,2024-06-24_14h45.14.357,LearnStrategy,2023.2.3,Win32,59.52380952,8,2,6,,,,,,,,2,02,,,,,,,,,,,4,4.128,0,,,,,,0.325555556,-0.248888889,1,0,0,4.1277,Gabbro_rect,5,0,5,0,1,
565c6791c121fe0012fc3caf,SCN,2024-06-24_14h45.14.357,LearnStrategy,2023.2.3,Win32,59.52380952,8,2,7,,,,,,,,2,16,,,,,,,,,,,2,2.819,1,,,,,,-0.075555556,-0.247777778,1,0,0,2.8193,Basalt_rect,6,0,6,0,1,
565c6791c121fe0012fc3caf,SCN,2024-06-24_14h45.14.357,LearnStrategy,2023.2.3,Win32,59.52380952,8,2,8,,,,,,,,8,14,,,,,,,,,,,8,1.378,1,,,,,,0.423333333,-0.401111111,1,0,0,1.378,Pumice_rect,7,0,7,0,1,
565c6791c121fe0012fc3caf,SCN,2024-06-24_14h45.14.357,LearnStrategy,2023.2.3,Win32,59.52380952,8,2,9,,,,,,,,6,07,,,,,,,,,,,6,2.017,1,,,,,,-0.054444444,-0.402222222,1,0,0,2.0172,Pegmatite_rect,8,0,8,0,1,
565c6791c121fe0012fc3caf,SCN,2024-06-24_14h45.14.357,LearnStrategy,2023.2.3,Win32,59.52380952,8,2,10,,,,,,,,1,07,,,,,,,,,,,7,3.896,0,,,,,,0.092222222,-0.407777778,1,0,0,3.8961,Peridotite_rect,9,0,9,0,1,
565c6791c121fe0012fc3caf,SCN,2024-06-24_14h45.14.357,LearnStrategy,2023.2.3,Win32,59.52380952,8,2,11,,,,,,,,3,02,,,,,,,,,,,7,2.937,0,,,,,,0.091111111,-0.406666667,1,0,0,2.9373,Peridotite_rect,10,0,10,0,1,
565c6791c121fe0012fc3caf,SCN,2024-06-24_14h45.14.357,LearnStrategy,2023.2.3,Win32,59.52380952,8,2,12,,,,,,,,1,10,,,,,,,,,,,3,4.248,0,,,,,,0.107777778,-0.253333333,1,0,0,4.2484,Diorite_rect,11,0,11,0,1,
565c6791c121fe0012fc3caf,SCN,2024-06-24_14h45.14.357,LearnStrategy,2023.2.3,Win32,59.52380952,8,2,13,,,,,,,,5,08,,,,,,,,,,,5,1.24,1,,,,,,-0.364444444,-0.395555556,1,0,0,1.24,Obsidian_rect,12,0,12,0,1,
565c6791c121fe0012fc3caf,SCN,2024-06-24_14h45.14.357,LearnStrategy,2023.2.3,Win32,59.52380952,8,2,14,,,,,,,,3,08,,,,,,,,,,,3,4.221,1,,,,,,0.098888889,-0.245555556,1,0,0,4.221,Diorite_rect,13,0,13,0,1,
565c6791c121fe0012fc3caf,SCN,2024-06-24_14h45.14.357,LearnStrategy,2023.2.3,Win32,59.52380952,8,2,15,,,,,,,,4,12,,,,,,,,,,,4,0.993,1,,,,,,0.387777778,-0.262222222,1,0,0,0.9934,Gabbro_rect,14,0,14,0,1,
565c6791c121fe0012fc3caf,SCN,2024-06-24_14h45.14.357,LearnStrategy,2023.2.3,Win32,59.52380952,8,2,16,,,,,,,,8,05,,,,,,,,,,,8,1.442,1,,,,,,0.437777778,-0.405555556,1,0,0,1.4423,Pumice_rect,15,0,15,0,1,
565c6791c121fe0012fc3caf,SCN,2024-06-24_14h45.14.357,LearnStrategy,2023.2.3,Win32,59.52380952,9,1,1,-0.094444444,-0.43,1,0,0,12.3913,Diorite_10,3,10,1,4,12.391,-0.375555556,-0.252222222,1,0,0,1.0521,Andesite_rect,1,1.052,0,0,0,0,0,1,,,,,,,,,,,,,
565c6791c121fe0012fc3caf,SCN,2024-06-24_14h45.14.357,LearnStrategy,2023.2.3,Win32,59.52380952,9,1,2,0.268888889,-0.405555556,1,0,0,1.4053,Diorite_13,3,13,1,6,1.405,-0.372222222,-0.248888889,1,0,0,1.5936,Andesite_rect,1,1.594,0,1,0,1,0,1,,,,,,,,,,,,,
565c6791c121fe0012fc3caf,SCN,2024-06-24_14h45.14.357,LearnStrategy,2023.2.3,Win32,59.52380952,9,1,3,0.557777778,-0.267777778,1,0,0,1.3642,Diorite_15,3,15,2,8,1.364,0.167777778,-0.255555556,1,0,0,1.2072,Diorite_rect,3,1.207,1,2,0,2,0,1,,,,,,,,,,,,,
565c6791c121fe0012fc3caf,SCN,2024-06-24_14h45.14.357,LearnStrategy,2023.2.3,Win32,59.52380952,9,1,4,-0.076666667,0.1,1,0,0,4.7774,Diorite_07,3,07,4,4,4.777,-0.333333333,-0.23,1,0,0,0.7711,Andesite_rect,1,0.771,0,3,0,3,0,1,,,,,,,,,,,,,
565c6791c121fe0012fc3caf,SCN,2024-06-24_14h45.14.357,LearnStrategy,2023.2.3,Win32,59.52380952,9,1,5,0.244444444,0.081111111,1,0,0,1.529,Obsidian_05,5,05,4,6,1.529,-0.397777778,-0.402222222,1,0,0,2.35,Obsidian_rect,5,2.35,1,4,0,4,0,1,,,,,,,,,,,,,
565c6791c121fe0012fc3caf,SCN,2024-06-24_14h45.14.357,LearnStrategy,2023.2.3,Win32,59.52380952,9,1,6,0.222222222,-0.407777778,1,0,0,8.7988,Diorite_13,3,13,1,6,8.799,0.14,-0.256666667,1,0,0,1.5015,Diorite_rect,3,1.502,1,5,0,5,0,1,,,,,,,,,,,,,
565c6791c121fe0012fc3caf,SCN,2024-06-24_14h45.14.357,LearnStrategy,2023.2.3,Win32,59.52380952,9,1,7,-0.573333333,0.228888889,1,0,0,2.6909,Gabbro_15,4,15,5,1,2.691,-0.411111111,-0.258888889,1,0,0,3.2467,Andesite_rect,1,3.247,0,6,0,6,0,1,,,,,,,,,,,,,
565c6791c121fe0012fc3caf,SCN,2024-06-24_14h45.14.357,LearnStrategy,2023.2.3,Win32,59.52380952,9,1,8,0.522222222,0.402222222,1,0,0,3.5815,Peridotite_14,7,14,6,8,3.582,0.118888889,-0.42,1,0,0,1.6159,Peridotite_rect,7,1.616,1,7,0,7,0,1,,,,,,,,,,,,,
565c6791c121fe0012fc3caf,SCN,2024-06-24_14h45.14.357,LearnStrategy,2023.2.3,Win32,59.52380952,9,1,9,-0.566666667,-0.287777778,1,0,0,4.9411,Peridotite_04,7,04,2,1,4.941,0.06,-0.405555556,1,0,0,3.1468,Peridotite_rect,7,3.147,1,8,0,8,0,1,,,,,,,,,,,,,
565c6791c121fe0012fc3caf,SCN,2024-06-24_14h45.14.357,LearnStrategy,2023.2.3,Win32,59.52380952,9,1,10,-0.085555556,-0.106666667,1,0,0,1.0417,Gabbro_08,4,08,3,4,1.042,0.352222222,-0.235555556,1,0,0,2.6869,Gabbro_rect,4,2.687,1,9,0,9,0,1,,,,,,,,,,,,,
565c6791c121fe0012fc3caf,SCN,2024-06-24_14h45.14.357,LearnStrategy,2023.2.3,Win32,59.52380952,9,1,11,-0.053333333,-0.243333333,1,0,0,1.7565,Gabbro_11,4,11,2,4,1.756,-0.053333333,-0.244444444,1,0,0,1.0635,Basalt_rect,2,1.064,0,10,0,10,0,1,,,,,,,,,,,,,
565c6791c121fe0012fc3caf,SCN,2024-06-24_14h45.14.357,LearnStrategy,2023.2.3,Win32,59.52380952,9,1,12,-0.431111111,-0.11,1,0,0,1.2117,Basalt_12,2,12,3,2,1.212,0.063333333,-0.247777778,1,0,0,1.9272,Diorite_rect,3,1.927,0,11,0,11,0,1,,,,,,,,,,,,,
565c6791c121fe0012fc3caf,SCN,2024-06-24_14h45.14.357,LearnStrategy,2023.2.3,Win32,59.52380952,9,1,13,0.215555556,0.092222222,1,0,0,2.9294,Obsidian_05,5,05,4,6,2.929,-0.396666667,-0.404444444,1,0,0,2.1088,Obsidian_rect,5,2.109,1,12,0,12,0,1,,,,,,,,,,,,,
565c6791c121fe0012fc3caf,SCN,2024-06-24_14h45.14.357,LearnStrategy,2023.2.3,Win32,59.52380952,9,1,14,-0.072222222,0.091111111,1,0,0,1.4211,Diorite_07,3,07,4,4,1.421,0.137777778,-0.257777778,1,0,0,7.1429,Diorite_rect,3,7.143,1,13,0,13,0,1,,,,,,,,,,,,,
565c6791c121fe0012fc3caf,SCN,2024-06-24_14h45.14.357,LearnStrategy,2023.2.3,Win32,59.52380952,9,1,15,-0.394444444,0.088888889,1,0,0,1.6734,Peridotite_15,7,15,4,2,1.673,0.117777778,-0.385555556,1,0,0,3.1002,Peridotite_rect,7,3.1,1,14,0,14,0,1,,,,,,,,,,,,,
565c6791c121fe0012fc3caf,SCN,2024-06-24_14h45.14.357,LearnStrategy,2023.2.3,Win32,59.52380952,9,1,16,-0.553333333,0.105555556,1,0,0,1.1743,Pumice_16,8,16,4,1,1.174,0.395555556,-0.251111111,1,0,0,2.7516,Gabbro_rect,4,2.752,0,15,0,15,0,1,,,,,,,,,,,,,
565c6791c121fe0012fc3caf,SCN,2024-06-24_14h45.14.357,LearnStrategy,2023.2.3,Win32,59.52380952,9,2,1,,,,,,,,4,01,,,,,,,,,,,7,4.409,0,,,,,,0.166666667,-0.411111111,1,0,0,4.4088,Peridotite_rect,0,0,0,0,1,
565c6791c121fe0012fc3caf,SCN,2024-06-24_14h45.14.357,LearnStrategy,2023.2.3,Win32,59.52380952,9,2,2,,,,,,,,7,02,,,,,,,,,,,7,2.526,1,,,,,,0.164444444,-0.405555556,1,0,0,2.5259,Peridotite_rect,1,0,1,0,1,
565c6791c121fe0012fc3caf,SCN,2024-06-24_14h45.14.357,LearnStrategy,2023.2.3,Win32,59.52380952,9,2,3,,,,,,,,1,16,,,,,,,,,,,7,1.76,0,,,,,,0.164444444,-0.405555556,1,0,0,1.7605,Peridotite_rect,2,0,2,0,1,
565c6791c121fe0012fc3caf,SCN,2024-06-24_14h45.14.357,LearnStrategy,2023.2.3,Win32,59.52380952,9,2,4,,,,,,,,7,10,,,,,,,,,,,7,1.14,1,,,,,,0.162222222,-0.401111111,1,0,0,1.1402,Peridotite_rect,3,0,3,0,1,
565c6791c121fe0012fc3caf,SCN,2024-06-24_14h45.14.357,LearnStrategy,2023.2.3,Win32,59.52380952,9,2,5,,,,,,,,2,04,,,,,,,,,,,2,3.029,1,,,,,,-0.045555556,-0.245555556,1,0,0,3.0292,Basalt_rect,4,0,4,0,1,
565c6791c121fe0012fc3caf,SCN,2024-06-24_14h45.14.357,LearnStrategy,2023.2.3,Win32,59.52380952,9,2,6,,,,,,,,1,05,,,,,,,,,,,7,7.987,0,,,,,,0.144444444,-0.385555556,1,0,0,7.9871,Peridotite_rect,5,0,5,0,1,
565c6791c121fe0012fc3caf,SCN,2024-06-24_14h45.14.357,LearnStrategy,2023.2.3,Win32,59.52380952,9,2,7,,,,,,,,6,15,,,,,,,,,,,6,1.597,1,,,,,,-0.055555556,-0.403333333,1,0,0,1.5968,Pegmatite_rect,6,0,6,0,1,
565c6791c121fe0012fc3caf,SCN,2024-06-24_14h45.14.357,LearnStrategy,2023.2.3,Win32,59.52380952,9,2,8,,,,,,,,3,12,,,,,,,,,,,3,5.39,1,,,,,,0.087777778,-0.267777778,1,0,0,5.3904,Diorite_rect,7,0,7,0,1,
565c6791c121fe0012fc3caf,SCN,2024-06-24_14h45.14.357,LearnStrategy,2023.2.3,Win32,59.52380952,9,2,9,,,,,,,,8,09,,,,,,,,,,,8,1.457,1,,,,,,0.37,-0.4,1,0,0,1.4565,Pumice_rect,8,0,8,0,1,
565c6791c121fe0012fc3caf,SCN,2024-06-24_14h45.14.357,LearnStrategy,2023.2.3,Win32,59.52380952,9,2,10,,,,,,,,8,10,,,,,,,,,,,8,1.331,1,,,,,,0.37,-0.398888889,1,0,0,1.3313,Pumice_rect,9,0,9,0,1,
565c6791c121fe0012fc3caf,SCN,2024-06-24_14h45.14.357,LearnStrategy,2023.2.3,Win32,59.52380952,9,2,11,,,,,,,,3,14,,,,,,,,,,,7,2.15,0,,,,,,0.098888889,-0.386666667,1,0,0,2.1497,Peridotite_rect,10,0,10,0,1,
565c6791c121fe0012fc3caf,SCN,2024-06-24_14h45.14.357,LearnStrategy,2023.2.3,Win32,59.52380952,9,2,12,,,,,,,,6,09,,,,,,,,,,,6,2.408,1,,,,,,-0.082222222,-0.401111111,1,0,0,2.4081,Pegmatite_rect,11,0,11,0,1,
565c6791c121fe0012fc3caf,SCN,2024-06-24_14h45.14.357,LearnStrategy,2023.2.3,Win32,59.52380952,9,2,13,,,,,,,,5,11,,,,,,,,,,,5,0.947,1,,,,,,-0.364444444,-0.393333333,1,0,0,0.9468,Obsidian_rect,12,0,12,0,1,
565c6791c121fe0012fc3caf,SCN,2024-06-24_14h45.14.357,LearnStrategy,2023.2.3,Win32,59.52380952,9,2,14,,,,,,,,4,05,,,,,,,,,,,3,4.436,0,,,,,,0.158888889,-0.261111111,1,0,0,4.4362,Diorite_rect,13,0,13,0,1,
565c6791c121fe0012fc3caf,SCN,2024-06-24_14h45.14.357,LearnStrategy,2023.2.3,Win32,59.52380952,9,2,15,,,,,,,,2,09,,,,,,,,,,,4,2.857,0,,,,,,0.317777778,-0.24,1,0,0,2.8574,Gabbro_rect,14,0,14,0,1,
565c6791c121fe0012fc3caf,SCN,2024-06-24_14h45.14.357,LearnStrategy,2023.2.3,Win32,59.52380952,9,2,16,,,,,,,,5,12,,,,,,,,,,,5,1.16,1,,,,,,-0.327777778,-0.415555556,1,0,0,1.1597,Obsidian_rect,15,0,15,0,1,
565c6791c121fe0012fc3caf,SCN,2024-06-24_14h45.14.357,LearnStrategy,2023.2.3,Win32,59.52380952,,,,,,,,,,,,,,,,,,,,,,,,,,,,,,,,,,,,,,,,,,,1
565c6791c121fe0012fc3caf,SCN,2024-06-24_14h45.14.357,LearnStrategy,2023.2.3,Win32,59.52380952,,,,,,,,,,,,,,,,,,,,,,,,,,,,,,,,,,,,,,,,,,,
565c6791c121fe0012fc3caf,SCN,2024-06-24_14h45.14.357,LearnStrategy,2023.2.3,Win32,59.52380952,,,,,,,,,,,6,12,1,1,,,,,,,,,,,,,,,,,,,,,,,,,,,,,
565c6791c121fe0012fc3caf,SCN,2024-06-24_14h45.14.357,LearnStrategy,2023.2.3,Win32,59.52380952,,,,,,,,,,,6,16,1,2,,,,,,,,,,,,,,,,,,,,,,,,,,,,,
565c6791c121fe0012fc3caf,SCN,2024-06-24_14h45.14.357,LearnStrategy,2023.2.3,Win32,59.52380952,,,,,,,,,,,1,14,1,3,,,,,,,,,,,,,,,,,,,,,,,,,,,,,
565c6791c121fe0012fc3caf,SCN,2024-06-24_14h45.14.357,LearnStrategy,2023.2.3,Win32,59.52380952,,,,,,,,,,,3,10,1,4,,,,,,,,,,,,,,,,,,,,,,,,,,,,,
565c6791c121fe0012fc3caf,SCN,2024-06-24_14h45.14.357,LearnStrategy,2023.2.3,Win32,59.52380952,,,,,,,,,,,3,06,1,5,,,,,,,,,,,,,,,,,,,,,,,,,,,,,
565c6791c121fe0012fc3caf,SCN,2024-06-24_14h45.14.357,LearnStrategy,2023.2.3,Win32,59.52380952,,,,,,,,,,,3,13,1,6,,,,,,,,,,,,,,,,,,,,,,,,,,,,,
565c6791c121fe0012fc3caf,SCN,2024-06-24_14h45.14.357,LearnStrategy,2023.2.3,Win32,59.52380952,,,,,,,,,,,2,14,1,7,,,,,,,,,,,,,,,,,,,,,,,,,,,,,
565c6791c121fe0012fc3caf,SCN,2024-06-24_14h45.14.357,LearnStrategy,2023.2.3,Win32,59.52380952,,,,,,,,,,,2,05,1,8,,,,,,,,,,,,,,,,,,,,,,,,,,,,,
565c6791c121fe0012fc3caf,SCN,2024-06-24_14h45.14.357,LearnStrategy,2023.2.3,Win32,59.52380952,,,,,,,,,,,7,04,2,1,,,,,,,,,,,,,,,,,,,,,,,,,,,,,
565c6791c121fe0012fc3caf,SCN,2024-06-24_14h45.14.357,LearnStrategy,2023.2.3,Win32,59.52380952,,,,,,,,,,,7,13,2,2,,,,,,,,,,,,,,,,,,,,,,,,,,,,,
565c6791c121fe0012fc3caf,SCN,2024-06-24_14h45.14.357,LearnStrategy,2023.2.3,Win32,59.52380952,,,,,,,,,,,6,08,2,3,,,,,,,,,,,,,,,,,,,,,,,,,,,,,
565c6791c121fe0012fc3caf,SCN,2024-06-24_14h45.14.357,LearnStrategy,2023.2.3,Win32,59.52380952,,,,,,,,,,,4,11,2,4,,,,,,,,,,,,,,,,,,,,,,,,,,,,,
565c6791c121fe0012fc3caf,SCN,2024-06-24_14h45.14.357,LearnStrategy,2023.2.3,Win32,59.52380952,,,,,,,,,,,5,02,2,5,,,,,,,,,,,,,,,,,,,,,,,,,,,,,
565c6791c121fe0012fc3caf,SCN,2024-06-24_14h45.14.357,LearnStrategy,2023.2.3,Win32,59.52380952,,,,,,,,,,,4,03,2,6,,,,,,,,,,,,,,,,,,,,,,,,,,,,,
565c6791c121fe0012fc3caf,SCN,2024-06-24_14h45.14.357,LearnStrategy,2023.2.3,Win32,59.52380952,,,,,,,,,,,8,13,2,7,,,,,,,,,,,,,,,,,,,,,,,,,,,,,
565c6791c121fe0012fc3caf,SCN,2024-06-24_14h45.14.357,LearnStrategy,2023.2.3,Win32,59.52380952,,,,,,,,,,,3,15,2,8,,,,,,,,,,,,,,,,,,,,,,,,,,,,,
565c6791c121fe0012fc3caf,SCN,2024-06-24_14h45.14.357,LearnStrategy,2023.2.3,Win32,59.52380952,,,,,,,,,,,3,16,3,1,,,,,,,,,,,,,,,,,,,,,,,,,,,,,
565c6791c121fe0012fc3caf,SCN,2024-06-24_14h45.14.357,LearnStrategy,2023.2.3,Win32,59.52380952,,,,,,,,,,,2,12,3,2,,,,,,,,,,,,,,,,,,,,,,,,,,,,,
565c6791c121fe0012fc3caf,SCN,2024-06-24_14h45.14.357,LearnStrategy,2023.2.3,Win32,59.52380952,,,,,,,,,,,4,09,3,3,,,,,,,,,,,,,,,,,,,,,,,,,,,,,
565c6791c121fe0012fc3caf,SCN,2024-06-24_14h45.14.357,LearnStrategy,2023.2.3,Win32,59.52380952,,,,,,,,,,,4,08,3,4,,,,,,,,,,,,,,,,,,,,,,,,,,,,,
565c6791c121fe0012fc3caf,SCN,2024-06-24_14h45.14.357,LearnStrategy,2023.2.3,Win32,59.52380952,,,,,,,,,,,8,03,3,5,,,,,,,,,,,,,,,,,,,,,,,,,,,,,
565c6791c121fe0012fc3caf,SCN,2024-06-24_14h45.14.357,LearnStrategy,2023.2.3,Win32,59.52380952,,,,,,,,,,,1,11,3,6,,,,,,,,,,,,,,,,,,,,,,,,,,,,,
565c6791c121fe0012fc3caf,SCN,2024-06-24_14h45.14.357,LearnStrategy,2023.2.3,Win32,59.52380952,,,,,,,,,,,2,08,3,7,,,,,,,,,,,,,,,,,,,,,,,,,,,,,
565c6791c121fe0012fc3caf,SCN,2024-06-24_14h45.14.357,LearnStrategy,2023.2.3,Win32,59.52380952,,,,,,,,,,,5,16,3,8,,,,,,,,,,,,,,,,,,,,,,,,,,,,,
565c6791c121fe0012fc3caf,SCN,2024-06-24_14h45.14.357,LearnStrategy,2023.2.3,Win32,59.52380952,,,,,,,,,,,8,16,4,1,,,,,,,,,,,,,,,,,,,,,,,,,,,,,
565c6791c121fe0012fc3caf,SCN,2024-06-24_14h45.14.357,LearnStrategy,2023.2.3,Win32,59.52380952,,,,,,,,,,,7,15,4,2,,,,,,,,,,,,,,,,,,,,,,,,,,,,,
565c6791c121fe0012fc3caf,SCN,2024-06-24_14h45.14.357,LearnStrategy,2023.2.3,Win32,59.52380952,,,,,,,,,,,6,10,4,3,,,,,,,,,,,,,,,,,,,,,,,,,,,,,
565c6791c121fe0012fc3caf,SCN,2024-06-24_14h45.14.357,LearnStrategy,2023.2.3,Win32,59.52380952,,,,,,,,,,,3,07,4,4,,,,,,,,,,,,,,,,,,,,,,,,,,,,,
565c6791c121fe0012fc3caf,SCN,2024-06-24_14h45.14.357,LearnStrategy,2023.2.3,Win32,59.52380952,,,,,,,,,,,4,10,4,5,,,,,,,,,,,,,,,,,,,,,,,,,,,,,
565c6791c121fe0012fc3caf,SCN,2024-06-24_14h45.14.357,LearnStrategy,2023.2.3,Win32,59.52380952,,,,,,,,,,,5,05,4,6,,,,,,,,,,,,,,,,,,,,,,,,,,,,,
565c6791c121fe0012fc3caf,SCN,2024-06-24_14h45.14.357,LearnStrategy,2023.2.3,Win32,59.52380952,,,,,,,,,,,1,03,4,7,,,,,,,,,,,,,,,,,,,,,,,,,,,,,
565c6791c121fe0012fc3caf,SCN,2024-06-24_14h45.14.357,LearnStrategy,2023.2.3,Win32,59.52380952,,,,,,,,,,,7,06,4,8,,,,,,,,,,,,,,,,,,,,,,,,,,,,,
565c6791c121fe0012fc3caf,SCN,2024-06-24_14h45.14.357,LearnStrategy,2023.2.3,Win32,59.52380952,,,,,,,,,,,4,15,5,1,,,,,,,,,,,,,,,,,,,,,,,,,,,,,
565c6791c121fe0012fc3caf,SCN,2024-06-24_14h45.14.357,LearnStrategy,2023.2.3,Win32,59.52380952,,,,,,,,,,,8,08,5,2,,,,,,,,,,,,,,,,,,,,,,,,,,,,,
565c6791c121fe0012fc3caf,SCN,2024-06-24_14h45.14.357,LearnStrategy,2023.2.3,Win32,59.52380952,,,,,,,,,,,1,04,5,3,,,,,,,,,,,,,,,,,,,,,,,,,,,,,
565c6791c121fe0012fc3caf,SCN,2024-06-24_14h45.14.357,LearnStrategy,2023.2.3,Win32,59.52380952,,,,,,,,,,,6,05,5,4,,,,,,,,,,,,,,,,,,,,,,,,,,,,,
565c6791c121fe0012fc3caf,SCN,2024-06-24_14h45.14.357,LearnStrategy,2023.2.3,Win32,59.52380952,,,,,,,,,,,6,11,5,5,,,,,,,,,,,,,,,,,,,,,,,,,,,,,
565c6791c121fe0012fc3caf,SCN,2024-06-24_14h45.14.357,LearnStrategy,2023.2.3,Win32,59.52380952,,,,,,,,,,,5,04,5,6,,,,,,,,,,,,,,,,,,,,,,,,,,,,,
565c6791c121fe0012fc3caf,SCN,2024-06-24_14h45.14.357,LearnStrategy,2023.2.3,Win32,59.52380952,,,,,,,,,,,5,06,5,7,,,,,,,,,,,,,,,,,,,,,,,,,,,,,
565c6791c121fe0012fc3caf,SCN,2024-06-24_14h45.14.357,LearnStrategy,2023.2.3,Win32,59.52380952,,,,,,,,,,,8,15,5,8,,,,,,,,,,,,,,,,,,,,,,,,,,,,,
565c6791c121fe0012fc3caf,SCN,2024-06-24_14h45.14.357,LearnStrategy,2023.2.3,Win32,59.52380952,,,,,,,,,,,5,10,6,1,,,,,,,,,,,,,,,,,,,,,,,,,,,,,
565c6791c121fe0012fc3caf,SCN,2024-06-24_14h45.14.357,LearnStrategy,2023.2.3,Win32,59.52380952,,,,,,,,,,,8,04,6,2,,,,,,,,,,,,,,,,,,,,,,,,,,,,,
565c6791c121fe0012fc3caf,SCN,2024-06-24_14h45.14.357,LearnStrategy,2023.2.3,Win32,59.52380952,,,,,,,,,,,2,10,6,3,,,,,,,,,,,,,,,,,,,,,,,,,,,,,
565c6791c121fe0012fc3caf,SCN,2024-06-24_14h45.14.357,LearnStrategy,2023.2.3,Win32,59.52380952,,,,,,,,,,,1,02,6,4,,,,,,,,,,,,,,,,,,,,,,,,,,,,,
565c6791c121fe0012fc3caf,SCN,2024-06-24_14h45.14.357,LearnStrategy,2023.2.3,Win32,59.52380952,,,,,,,,,,,2,11,6,5,,,,,,,,,,,,,,,,,,,,,,,,,,,,,
565c6791c121fe0012fc3caf,SCN,2024-06-24_14h45.14.357,LearnStrategy,2023.2.3,Win32,59.52380952,,,,,,,,,,,1,09,6,6,,,,,,,,,,,,,,,,,,,,,,,,,,,,,
565c6791c121fe0012fc3caf,SCN,2024-06-24_14h45.14.357,LearnStrategy,2023.2.3,Win32,59.52380952,,,,,,,,,,,7,08,6,7,,,,,,,,,,,,,,,,,,,,,,,,,,,,,
565c6791c121fe0012fc3caf,SCN,2024-06-24_14h45.14.357,LearnStrategy,2023.2.3,Win32,59.52380952,,,,,,,,,,,7,14,6,8,,,,,,,,,,,,,,,,,,,,,,,,,,,,,