participant,condition,date,expName,psychopyVersion,OS,frameRate,block,phase,trial,learn_mouse_2.x,learn_mouse_2.y,learn_mouse_2.leftButton,learn_mouse_2.midButton,learn_mouse_2.rightButton,learn_mouse_2.time,learn_mouse_2.clicked_name,cat,token,row,col,t_select,cat_mouse_l.x,cat_mouse_l.y,cat_mouse_l.leftButton,cat_mouse_l.midButton,cat_mouse_l.rightButton,cat_mouse_l.time,cat_mouse_l.clicked_name,resp,t_resp,corr,train_trials.thisRepN,train_trials.thisTrialN,train_trials.thisN,train_trials.thisIndex,train_trials.ran,cat_mouse_t.x,cat_mouse_t.y,cat_mouse_t.leftButton,cat_mouse_t.midButton,cat_mouse_t.rightButton,cat_mouse_t.time,cat_mouse_t.clicked_name,test_trials.thisRepN,test_trials.thisTrialN,test_trials.thisN,test_trials.thisIndex,test_trials.ran,Bonus
5685850c333cbd000d4e042f,TCR,2024-06-20_16h27.07.596,LearnStrategy,2023.2.3,Win32,161.2903226,,,,,,,,,,,,,,,,,,,,,,,,,,,,,,,,,,,,,,,,,,,
5685850c333cbd000d4e042f,TCR,2024-06-20_16h27.07.596,LearnStrategy,2023.2.3,Win32,161.2903226,1,1,1,-0.027083333,0.001388889,1,0,0,1.5869,rock_grid_rect_2,7,08,-1,-1,1.587,0.103472222,-0.3875,1,0,0,4.418,Peridotite_rect,7,4.418,1,0,0,0,0,1,,,,,,,,,,,,,
5685850c333cbd000d4e042f,TCR,2024-06-20_16h27.07.596,LearnStrategy,2023.2.3,Win32,161.2903226,1,1,2,0.002777778,-0.011805556,1,0,0,1.1346,rock_grid_rect_2,6,11,-1,-1,1.135,-0.144444444,-0.248611111,1,0,0,3.2972,Basalt_rect,2,3.297,0,1,0,1,0,1,,,,,,,,,,,,,
5685850c333cbd000d4e042f,TCR,2024-06-20_16h27.07.596,LearnStrategy,2023.2.3,Win32,161.2903226,1,1,3,0.002777778,-0.005555556,1,0,0,1.1835,rock_grid_rect_2,7,10,-1,-1,1.183,-0.1,-0.25,1,0,0,3.4001,Basalt_rect,2,3.4,0,2,0,2,0,1,,,,,,,,,,,,,
5685850c333cbd000d4e042f,TCR,2024-06-20_16h27.07.596,LearnStrategy,2023.2.3,Win32,161.2903226,1,1,4,0.001388889,0.004166667,1,0,0,1.0418,rock_grid_rect_2,8,03,-1,-1,1.042,0.10625,-0.245138889,1,0,0,2.0096,Diorite_rect,3,2.01,0,3,0,3,0,1,,,,,,,,,,,,,
5685850c333cbd000d4e042f,TCR,2024-06-20_16h27.07.596,LearnStrategy,2023.2.3,Win32,161.2903226,1,1,5,-0.005555556,-0.020138889,1,0,0,0.8498,rock_grid_rect_2,4,12,-1,-1,0.85,0.196527778,-0.251388889,1,0,0,3.5636,Diorite_rect,3,3.564,0,4,0,4,0,1,,,,,,,,,,,,,
5685850c333cbd000d4e042f,TCR,2024-06-20_16h27.07.596,LearnStrategy,2023.2.3,Win32,161.2903226,1,1,6,0.034027778,-0.000694444,1,0,0,0.9995,rock_grid_rect_2,3,13,-1,-1,1,-0.358333333,-0.247222222,1,0,0,3.5394,Andesite_rect,1,3.539,0,5,0,5,0,1,,,,,,,,,,,,,
5685850c333cbd000d4e042f,TCR,2024-06-20_16h27.07.596,LearnStrategy,2023.2.3,Win32,161.2903226,1,1,7,0.002777778,-0.016666667,1,0,0,0.866,rock_grid_rect_2,1,07,-1,-1,0.866,0.3375,-0.378472222,1,0,0,3.7575,Pumice_rect,8,3.758,0,6,0,6,0,1,,,,,,,,,,,,,
5685850c333cbd000d4e042f,TCR,2024-06-20_16h27.07.596,LearnStrategy,2023.2.3,Win32,161.2903226,1,1,8,0.024305556,-0.011805556,1,0,0,0.8598,rock_grid_rect_2,6,10,-1,-1,0.86,-0.136805556,-0.24375,1,0,0,3.1878,Basalt_rect,2,3.188,0,7,0,7,0,1,,,,,,,,,,,,,
5685850c333cbd000d4e042f,TCR,2024-06-20_16h27.07.596,LearnStrategy,2023.2.3,Win32,161.2903226,1,1,9,0.001388889,0.011805556,1,0,0,0.9264,rock_grid_rect_2,3,12,-1,-1,0.926,-0.329166667,-0.247916667,1,0,0,2.8965,Andesite_rect,1,2.897,0,8,0,8,0,1,,,,,,,,,,,,,
5685850c333cbd000d4e042f,TCR,2024-06-20_16h27.07.596,LearnStrategy,2023.2.3,Win32,161.2903226,1,1,10,0.051388889,-0.006944444,1,0,0,0.7875,rock_grid_rect_2,4,14,-1,-1,0.787,0.334722222,-0.25625,1,0,0,5.134,Gabbro_rect,4,5.134,1,9,0,9,0,1,,,,,,,,,,,,,
5685850c333cbd000d4e042f,TCR,2024-06-20_16h27.07.596,LearnStrategy,2023.2.3,Win32,161.2903226,1,1,11,-0.030555556,-0.009722222,1,0,0,0.9083,rock_grid_rect_2,1,11,-1,-1,0.908,-0.34375,-0.2375,1,0,0,4.6004,Andesite_rect,1,4.6,1,10,0,10,0,1,,,,,,,,,,,,,
5685850c333cbd000d4e042f,TCR,2024-06-20_16h27.07.596,LearnStrategy,2023.2.3,Win32,161.2903226,1,1,12,0.013888889,-0.002777778,1,0,0,0.7085,rock_grid_rect_2,2,09,-1,-1,0.709,0.365972222,-0.413194444,1,0,0,2.2124,Pumice_rect,8,2.212,0,11,0,11,0,1,,,,,,,,,,,,,
5685850c333cbd000d4e042f,TCR,2024-06-20_16h27.07.596,LearnStrategy,2023.2.3,Win32,161.2903226,1,1,13,-0.033333333,0.002777778,1,0,0,0.6604,rock_grid_rect_2,8,05,-1,-1,0.66,0.388194444,-0.404861111,1,0,0,1.4624,Pumice_rect,8,1.462,1,12,0,12,0,1,,,,,,,,,,,,,
5685850c333cbd000d4e042f,TCR,2024-06-20_16h27.07.596,LearnStrategy,2023.2.3,Win32,161.2903226,1,1,14,-0.013194444,0.019444444,1,0,0,0.6716,rock_grid_rect_2,5,02,-1,-1,0.672,-0.365277778,-0.414583333,1,0,0,1.6911,Obsidian_rect,5,1.691,1,13,0,13,0,1,,,,,,,,,,,,,
5685850c333cbd000d4e042f,TCR,2024-06-20_16h27.07.596,LearnStrategy,2023.2.3,Win32,161.2903226,1,1,15,0.011805556,0,1,0,0,0.6962,rock_grid_rect_2,2,12,-1,-1,0.696,-0.047916667,-0.411805556,1,0,0,4.873,Pegmatite_rect,6,4.873,0,14,0,14,0,1,,,,,,,,,,,,,
5685850c333cbd000d4e042f,TCR,2024-06-20_16h27.07.596,LearnStrategy,2023.2.3,Win32,161.2903226,1,1,16,0.025,0.008333333,1,0,0,0.6663,rock_grid_rect_2,5,04,-1,-1,0.666,-0.40625,-0.40625,1,0,0,1.2462,Obsidian_rect,5,1.246,1,15,0,15,0,1,,,,,,,,,,,,,
5685850c333cbd000d4e042f,TCR,2024-06-20_16h27.07.596,LearnStrategy,2023.2.3,Win32,161.2903226,1,2,1,,,,,,,,7,02,,,,,,,,,,,6,5.68,0,,,,,,-0.05625,-0.399305556,1,0,0,5.6796,Pegmatite_rect,0,0,0,0,1,
5685850c333cbd000d4e042f,TCR,2024-06-20_16h27.07.596,LearnStrategy,2023.2.3,Win32,161.2903226,1,2,2,,,,,,,,4,11,,,,,,,,,,,4,4.655,1,,,,,,0.397222222,-0.253472222,1,0,0,4.6554,Gabbro_rect,1,0,1,0,1,
5685850c333cbd000d4e042f,TCR,2024-06-20_16h27.07.596,LearnStrategy,2023.2.3,Win32,161.2903226,1,2,3,,,,,,,,2,08,,,,,,,,,,,4,4.387,0,,,,,,0.396527778,-0.254166667,1,0,0,4.3866,Gabbro_rect,2,0,2,0,1,
5685850c333cbd000d4e042f,TCR,2024-06-20_16h27.07.596,LearnStrategy,2023.2.3,Win32,161.2903226,1,2,4,,,,,,,,5,12,,,,,,,,,,,5,1.846,1,,,,,,-0.386805556,-0.400694444,1,0,0,1.8465,Obsidian_rect,3,0,3,0,1,
5685850c333cbd000d4e042f,TCR,2024-06-20_16h27.07.596,LearnStrategy,2023.2.3,Win32,161.2903226,1,2,5,,,,,,,,3,09,,,,,,,,,,,7,5.188,0,,,,,,0.093055556,-0.419444444,1,0,0,5.1883,Peridotite_rect,4,0,4,0,1,
5685850c333cbd000d4e042f,TCR,2024-06-20_16h27.07.596,LearnStrategy,2023.2.3,Win32,161.2903226,1,2,6,,,,,,,,1,16,,,,,,,,,,,6,7.111,0,,,,,,-0.144444444,-0.392361111,1,0,0,7.1105,Pegmatite_rect,5,0,5,0,1,
5685850c333cbd000d4e042f,TCR,2024-06-20_16h27.07.596,LearnStrategy,2023.2.3,Win32,161.2903226,1,2,7,,,,,,,,2,05,,,,,,,,,,,4,4.691,0,,,,,,0.404861111,-0.249305556,1,0,0,4.6915,Gabbro_rect,6,0,6,0,1,
5685850c333cbd000d4e042f,TCR,2024-06-20_16h27.07.596,LearnStrategy,2023.2.3,Win32,161.2903226,1,2,8,,,,,,,,6,07,,,,,,,,,,,1,7.129,0,,,,,,-0.350694444,-0.232638889,1,0,0,7.1287,Andesite_rect,7,0,7,0,1,
5685850c333cbd000d4e042f,TCR,2024-06-20_16h27.07.596,LearnStrategy,2023.2.3,Win32,161.2903226,1,2,9,,,,,,,,3,07,,,,,,,,,,,7,7.868,0,,,,,,0.075694444,-0.410416667,1,0,0,7.8682,Peridotite_rect,8,0,8,0,1,
5685850c333cbd000d4e042f,TCR,2024-06-20_16h27.07.596,LearnStrategy,2023.2.3,Win32,161.2903226,1,2,10,,,,,,,,4,09,,,,,,,,,,,5,3.018,0,,,,,,-0.341666667,-0.411111111,1,0,0,3.0181,Obsidian_rect,9,0,9,0,1,
5685850c333cbd000d4e042f,TCR,2024-06-20_16h27.07.596,LearnStrategy,2023.2.3,Win32,161.2903226,1,2,11,,,,,,,,8,02,,,,,,,,,,,8,2.254,1,,,,,,0.361111111,-0.413194444,1,0,0,2.254,Pumice_rect,10,0,10,0,1,
5685850c333cbd000d4e042f,TCR,2024-06-20_16h27.07.596,LearnStrategy,2023.2.3,Win32,161.2903226,1,2,12,,,,,,,,7,06,,,,,,,,,,,7,7.086,1,,,,,,0.086805556,-0.420833333,1,0,0,7.0859,Peridotite_rect,11,0,11,0,1,
5685850c333cbd000d4e042f,TCR,2024-06-20_16h27.07.596,LearnStrategy,2023.2.3,Win32,161.2903226,1,2,13,,,,,,,,1,03,,,,,,,,,,,2,5.079,0,,,,,,-0.138888889,-0.269444444,1,0,0,5.0791,Basalt_rect,12,0,12,0,1,
5685850c333cbd000d4e042f,TCR,2024-06-20_16h27.07.596,LearnStrategy,2023.2.3,Win32,161.2903226,1,2,14,,,,,,,,6,13,,,,,,,,,,,6,6.441,1,,,,,,-0.111805556,-0.402777778,1,0,0,6.4414,Pegmatite_rect,13,0,13,0,1,
5685850c333cbd000d4e042f,TCR,2024-06-20_16h27.07.596,LearnStrategy,2023.2.3,Win32,161.2903226,1,2,15,,,,,,,,5,16,,,,,,,,,,,5,1.41,1,,,,,,-0.373611111,-0.397916667,1,0,0,1.4096,Obsidian_rect,14,0,14,0,1,
5685850c333cbd000d4e042f,TCR,2024-06-20_16h27.07.596,LearnStrategy,2023.2.3,Win32,161.2903226,1,2,16,,,,,,,,8,10,,,,,,,,,,,8,3.219,1,,,,,,0.3375,-0.392361111,1,0,0,3.2186,Pumice_rect,15,0,15,0,1,
5685850c333cbd000d4e042f,TCR,2024-06-20_16h27.07.596,LearnStrategy,2023.2.3,Win32,161.2903226,2,1,1,0.002083333,0.00625,1,0,0,1.2417,rock_grid_rect_2,1,10,-1,-1,1.242,0.09375,-0.4,1,0,0,5.8437,Peridotite_rect,7,5.844,0,0,0,0,0,1,,,,,,,,,,,,,
5685850c333cbd000d4e042f,TCR,2024-06-20_16h27.07.596,LearnStrategy,2023.2.3,Win32,161.2903226,2,1,2,-0.038888889,0.009027778,1,0,0,0.7877,rock_grid_rect_2,3,10,-1,-1,0.788,-0.097916667,-0.393055556,1,0,0,1.893,Pegmatite_rect,6,1.893,0,1,0,1,0,1,,,,,,,,,,,,,
5685850c333cbd000d4e042f,TCR,2024-06-20_16h27.07.596,LearnStrategy,2023.2.3,Win32,161.2903226,2,1,3,-0.013194444,-0.000694444,1,0,0,0.824,rock_grid_rect_2,2,09,-1,-1,0.824,0.430555556,-0.236111111,1,0,0,1.1083,Gabbro_rect,4,1.108,0,2,0,2,0,1,,,,,,,,,,,,,
5685850c333cbd000d4e042f,TCR,2024-06-20_16h27.07.596,LearnStrategy,2023.2.3,Win32,161.2903226,2,1,4,0.036805556,-0.013888889,1,0,0,0.8788,rock_grid_rect_2,6,15,-1,-1,0.879,-0.388194444,-0.26875,1,0,0,3.1758,Andesite_rect,1,3.176,0,3,0,3,0,1,,,,,,,,,,,,,
5685850c333cbd000d4e042f,TCR,2024-06-20_16h27.07.596,LearnStrategy,2023.2.3,Win32,161.2903226,2,1,5,0.035416667,-0.005555556,1,0,0,0.9879,rock_grid_rect_2,2,12,-1,-1,0.988,0.393055556,-0.417361111,1,0,0,4.7455,Pumice_rect,8,4.746,0,4,0,4,0,1,,,,,,,,,,,,,
5685850c333cbd000d4e042f,TCR,2024-06-20_16h27.07.596,LearnStrategy,2023.2.3,Win32,161.2903226,2,1,6,-0.034722222,0.001388889,1,0,0,0.7453,rock_grid_rect_2,4,12,-1,-1,0.745,0.379861111,-0.245833333,1,0,0,1.369,Gabbro_rect,4,1.369,1,5,0,5,0,1,,,,,,,,,,,,,
5685850c333cbd000d4e042f,TCR,2024-06-20_16h27.07.596,LearnStrategy,2023.2.3,Win32,161.2903226,2,1,7,-0.04375,-0.015972222,1,0,0,0.7332,rock_grid_rect_2,2,01,-1,-1,0.733,0.096527778,-0.2375,1,0,0,2.9997,Diorite_rect,3,3,0,6,0,6,0,1,,,,,,,,,,,,,
5685850c333cbd000d4e042f,TCR,2024-06-20_16h27.07.596,LearnStrategy,2023.2.3,Win32,161.2903226,2,1,8,-0.017361111,-0.00625,1,0,0,0.6967,rock_grid_rect_2,3,06,-1,-1,0.697,0.071527778,-0.40625,1,0,0,1.8662,Peridotite_rect,7,1.866,0,7,0,7,0,1,,,,,,,,,,,,,
5685850c333cbd000d4e042f,TCR,2024-06-20_16h27.07.596,LearnStrategy,2023.2.3,Win32,161.2903226,2,1,9,0.000694444,-0.015277778,1,0,0,0.7938,rock_grid_rect_2,7,07,-1,-1,0.794,0.096527778,-0.249305556,1,0,0,2.2421,Diorite_rect,3,2.242,0,8,0,8,0,1,,,,,,,,,,,,,
5685850c333cbd000d4e042f,TCR,2024-06-20_16h27.07.596,LearnStrategy,2023.2.3,Win32,161.2903226,2,1,10,-0.022916667,0.017361111,1,0,0,0.6967,rock_grid_rect_2,7,05,-1,-1,0.697,0.10625,-0.236805556,1,0,0,1.9575,Diorite_rect,3,1.957,0,9,0,9,0,1,,,,,,,,,,,,,
5685850c333cbd000d4e042f,TCR,2024-06-20_16h27.07.596,LearnStrategy,2023.2.3,Win32,161.2903226,2,1,11,-0.015972222,-0.020138889,1,0,0,0.6843,rock_grid_rect_2,4,12,-1,-1,0.684,0.3625,-0.248611111,1,0,0,1.254,Gabbro_rect,4,1.254,1,10,0,10,0,1,,,,,,,,,,,,,
5685850c333cbd000d4e042f,TCR,2024-06-20_16h27.07.596,LearnStrategy,2023.2.3,Win32,161.2903226,2,1,12,0.023611111,-0.013888889,1,0,0,0.6116,rock_grid_rect_2,1,04,-1,-1,0.612,-0.343055556,-0.253472222,1,0,0,3.8978,Andesite_rect,1,3.898,1,11,0,11,0,1,,,,,,,,,,,,,
5685850c333cbd000d4e042f,TCR,2024-06-20_16h27.07.596,LearnStrategy,2023.2.3,Win32,161.2903226,2,1,13,-0.044444444,0.002777778,1,0,0,0.6897,rock_grid_rect_2,5,07,-1,-1,0.69,-0.352083333,-0.415972222,1,0,0,1.0963,Obsidian_rect,5,1.096,1,12,0,12,0,1,,,,,,,,,,,,,
5685850c333cbd000d4e042f,TCR,2024-06-20_16h27.07.596,LearnStrategy,2023.2.3,Win32,161.2903226,2,1,14,-0.014583333,0.007638889,1,0,0,0.629,rock_grid_rect_2,6,10,-1,-1,0.629,0.053472222,-0.247916667,1,0,0,4.9345,Diorite_rect,3,4.934,0,13,0,13,0,1,,,,,,,,,,,,,
5685850c333cbd000d4e042f,TCR,2024-06-20_16h27.07.596,LearnStrategy,2023.2.3,Win32,161.2903226,2,1,15,0.038888889,-0.008333333,1,0,0,1.0297,rock_grid_rect_2,1,01,-1,-1,1.03,0.349305556,-0.413194444,1,0,0,2.2543,Pumice_rect,8,2.254,0,14,0,14,0,1,,,,,,,,,,,,,
5685850c333cbd000d4e042f,TCR,2024-06-20_16h27.07.596,LearnStrategy,2023.2.3,Win32,161.2903226,2,1,16,0.0125,-0.002777778,1,0,0,0.8107,rock_grid_rect_2,3,08,-1,-1,0.811,-0.078472222,-0.402777778,1,0,0,5.4738,Pegmatite_rect,6,5.474,0,15,0,15,0,1,,,,,,,,,,,,,
5685850c333cbd000d4e042f,TCR,2024-06-20_16h27.07.596,LearnStrategy,2023.2.3,Win32,161.2903226,2,2,1,,,,,,,,3,02,,,,,,,,,,,7,4.63,0,,,,,,0.083333333,-0.406944444,1,0,0,4.6298,Peridotite_rect,0,0,0,0,1,
5685850c333cbd000d4e042f,TCR,2024-06-20_16h27.07.596,LearnStrategy,2023.2.3,Win32,161.2903226,2,2,2,,,,,,,,6,06,,,,,,,,,,,3,4.883,0,,,,,,0.069444444,-0.261111111,1,0,0,4.8834,Diorite_rect,1,0,1,0,1,
5685850c333cbd000d4e042f,TCR,2024-06-20_16h27.07.596,LearnStrategy,2023.2.3,Win32,161.2903226,2,2,3,,,,,,,,7,13,,,,,,,,,,,6,2.483,0,,,,,,-0.097222222,-0.401388889,1,0,0,2.4826,Pegmatite_rect,2,0,2,0,1,
5685850c333cbd000d4e042f,TCR,2024-06-20_16h27.07.596,LearnStrategy,2023.2.3,Win32,161.2903226,2,2,4,,,,,,,,2,11,,,,,,,,,,,4,3.358,0,,,,,,0.4,-0.242361111,1,0,0,3.3576,Gabbro_rect,3,0,3,0,1,
5685850c333cbd000d4e042f,TCR,2024-06-20_16h27.07.596,LearnStrategy,2023.2.3,Win32,161.2903226,2,2,5,,,,,,,,7,16,,,,,,,,,,,4,2.103,0,,,,,,0.402777778,-0.240972222,1,0,0,2.103,Gabbro_rect,4,0,4,0,1,
5685850c333cbd000d4e042f,TCR,2024-06-20_16h27.07.596,LearnStrategy,2023.2.3,Win32,161.2903226,2,2,6,,,,,,,,1,09,,,,,,,,,,,4,2.387,0,,,,,,0.402777778,-0.240972222,1,0,0,2.3874,Gabbro_rect,5,0,5,0,1,
5685850c333cbd000d4e042f,TCR,2024-06-20_16h27.07.596,LearnStrategy,2023.2.3,Win32,161.2903226,2,2,7,,,,,,,,4,03,,,,,,,,,,,4,2.295,1,,,,,,0.402777778,-0.240972222,1,0,0,2.2946,Gabbro_rect,6,0,6,0,1,
5685850c333cbd000d4e042f,TCR,2024-06-20_16h27.07.596,LearnStrategy,2023.2.3,Win32,161.2903226,2,2,8,,,,,,,,2,02,,,,,,,,,,,4,1.646,0,,,,,,0.402777778,-0.240972222,1,0,0,1.6463,Gabbro_rect,7,0,7,0,1,
5685850c333cbd000d4e042f,TCR,2024-06-20_16h27.07.596,LearnStrategy,2023.2.3,Win32,161.2903226,2,2,9,,,,,,,,8,06,,,,,,,,,,,8,1.794,1,,,,,,0.369444444,-0.397222222,1,0,0,1.7945,Pumice_rect,8,0,8,0,1,
5685850c333cbd000d4e042f,TCR,2024-06-20_16h27.07.596,LearnStrategy,2023.2.3,Win32,161.2903226,2,2,10,,,,,,,,5,06,,,,,,,,,,,5,1.205,1,,,,,,-0.352777778,-0.40625,1,0,0,1.2053,Obsidian_rect,9,0,9,0,1,
5685850c333cbd000d4e042f,TCR,2024-06-20_16h27.07.596,LearnStrategy,2023.2.3,Win32,161.2903226,2,2,11,,,,,,,,4,15,,,,,,,,,,,1,3.6,0,,,,,,-0.396527778,-0.25625,1,0,0,3.6,Andesite_rect,10,0,10,0,1,
5685850c333cbd000d4e042f,TCR,2024-06-20_16h27.07.596,LearnStrategy,2023.2.3,Win32,161.2903226,2,2,12,,,,,,,,8,16,,,,,,,,,,,8,1.849,1,,,,,,0.349305556,-0.409027778,1,0,0,1.8487,Pumice_rect,11,0,11,0,1,
5685850c333cbd000d4e042f,TCR,2024-06-20_16h27.07.596,LearnStrategy,2023.2.3,Win32,161.2903226,2,2,13,,,,,,,,3,15,,,,,,,,,,,7,4.34,0,,,,,,0.10625,-0.401388889,1,0,0,4.3396,Peridotite_rect,12,0,12,0,1,
5685850c333cbd000d4e042f,TCR,2024-06-20_16h27.07.596,LearnStrategy,2023.2.3,Win32,161.2903226,2,2,14,,,,,,,,5,11,,,,,,,,,,,5,1.132,1,,,,,,-0.440277778,-0.411111111,1,0,0,1.1324,Obsidian_rect,13,0,13,0,1,
5685850c333cbd000d4e042f,TCR,2024-06-20_16h27.07.596,LearnStrategy,2023.2.3,Win32,161.2903226,2,2,15,,,,,,,,6,09,,,,,,,,,,,6,2.286,1,,,,,,-0.142361111,-0.409027778,1,0,0,2.2858,Pegmatite_rect,14,0,14,0,1,
5685850c333cbd000d4e042f,TCR,2024-06-20_16h27.07.596,LearnStrategy,2023.2.3,Win32,161.2903226,2,2,16,,,,,,,,1,02,,,,,,,,,,,3,2.473,0,,,,,,0.113888889,-0.245833333,1,0,0,2.4731,Diorite_rect,15,0,15,0,1,
5685850c333cbd000d4e042f,TCR,2024-06-20_16h27.07.596,LearnStrategy,2023.2.3,Win32,161.2903226,3,1,1,-0.015277778,-0.001388889,1,0,0,2.1882,rock_grid_rect_2,1,11,-1,-1,2.188,0.104166667,-0.245138889,1,0,0,1.6358,Diorite_rect,3,1.636,0,0,0,0,0,1,,,,,,,,,,,,,
5685850c333cbd000d4e042f,TCR,2024-06-20_16h27.07.596,LearnStrategy,2023.2.3,Win32,161.2903226,3,1,2,0.027083333,0.004166667,1,0,0,0.866,rock_grid_rect_2,6,11,-1,-1,0.866,-0.081944444,-0.408333333,1,0,0,1.7265,Pegmatite_rect,6,1.726,1,1,0,1,0,1,,,,,,,,,,,,,
5685850c333cbd000d4e042f,TCR,2024-06-20_16h27.07.596,LearnStrategy,2023.2.3,Win32,161.2903226,3,1,3,-0.004166667,-0.007638889,1,0,0,0.7454,rock_grid_rect_2,6,15,-1,-1,0.745,-0.077777778,-0.397222222,1,0,0,1.0782,Pegmatite_rect,6,1.078,1,2,0,2,0,1,,,,,,,,,,,,,
5685850c333cbd000d4e042f,TCR,2024-06-20_16h27.07.596,LearnStrategy,2023.2.3,Win32,161.2903226,3,1,4,-0.040972222,-0.008333333,1,0,0,0.7573,rock_grid_rect_2,1,01,-1,-1,0.757,0.050694444,-0.257638889,1,0,0,1.8054,Diorite_rect,3,1.805,0,3,0,3,0,1,,,,,,,,,,,,,
5685850c333cbd000d4e042f,TCR,2024-06-20_16h27.07.596,LearnStrategy,2023.2.3,Win32,161.2903226,3,1,5,0.034722222,0.013194444,1,0,0,0.648,rock_grid_rect_2,7,07,-1,-1,0.648,0.086111111,-0.230555556,1,0,0,1.3336,Diorite_rect,3,1.334,0,4,0,4,0,1,,,,,,,,,,,,,
5685850c333cbd000d4e042f,TCR,2024-06-20_16h27.07.596,LearnStrategy,2023.2.3,Win32,161.2903226,3,1,6,0.002083333,0.006944444,1,0,0,0.8542,rock_grid_rect_2,2,06,-1,-1,0.854,0.384722222,-0.252083333,1,0,0,1.1269,Gabbro_rect,4,1.127,0,5,0,5,0,1,,,,,,,,,,,,,
5685850c333cbd000d4e042f,TCR,2024-06-20_16h27.07.596,LearnStrategy,2023.2.3,Win32,161.2903226,3,1,7,0.019444444,-0.009027778,1,0,0,0.7264,rock_grid_rect_2,7,15,-1,-1,0.726,0.145833333,-0.257638889,1,0,0,1.5762,Diorite_rect,3,1.576,0,6,0,6,0,1,,,,,,,,,,,,,
5685850c333cbd000d4e042f,TCR,2024-06-20_16h27.07.596,LearnStrategy,2023.2.3,Win32,161.2903226,3,1,8,0.010416667,-0.021527778,1,0,0,0.7319,rock_grid_rect_2,3,16,-1,-1,0.732,-0.1125,-0.244444444,1,0,0,3.2978,Basalt_rect,2,3.298,0,7,0,7,0,1,,,,,,,,,,,,,
5685850c333cbd000d4e042f,TCR,2024-06-20_16h27.07.596,LearnStrategy,2023.2.3,Win32,161.2903226,3,1,9,-0.002777778,-0.002777778,1,0,0,0.6911,rock_grid_rect_2,2,12,-1,-1,0.691,0.373611111,-0.406944444,1,0,0,2.6057,Pumice_rect,8,2.606,0,8,0,8,0,1,,,,,,,,,,,,,
5685850c333cbd000d4e042f,TCR,2024-06-20_16h27.07.596,LearnStrategy,2023.2.3,Win32,161.2903226,3,1,10,-0.01875,0.00625,1,0,0,0.8601,rock_grid_rect_2,3,13,-1,-1,0.86,-0.061111111,-0.414583333,1,0,0,2.7149,Pegmatite_rect,6,2.715,0,9,0,9,0,1,,,,,,,,,,,,,
5685850c333cbd000d4e042f,TCR,2024-06-20_16h27.07.596,LearnStrategy,2023.2.3,Win32,161.2903226,3,1,11,0.0125,-0.0125,1,0,0,0.7274,rock_grid_rect_2,4,05,-1,-1,0.727,-0.379861111,-0.239583333,1,0,0,2.3453,Andesite_rect,1,2.345,0,10,0,10,0,1,,,,,,,,,,,,,
5685850c333cbd000d4e042f,TCR,2024-06-20_16h27.07.596,LearnStrategy,2023.2.3,Win32,161.2903226,3,1,12,-0.029166667,-0.004861111,1,0,0,0.7754,rock_grid_rect_2,1,04,-1,-1,0.775,0.186111111,-0.242361111,1,0,0,12.5481,Diorite_rect,3,12.548,0,11,0,11,0,1,,,,,,,,,,,,,
5685850c333cbd000d4e042f,TCR,2024-06-20_16h27.07.596,LearnStrategy,2023.2.3,Win32,161.2903226,3,1,13,-0.004166667,-0.009722222,1,0,0,0.9462,rock_grid_rect_2,3,13,-1,-1,0.946,0.0875,-0.253472222,1,0,0,2.4245,Diorite_rect,3,2.424,1,12,0,12,0,1,,,,,,,,,,,,,
5685850c333cbd000d4e042f,TCR,2024-06-20_16h27.07.596,LearnStrategy,2023.2.3,Win32,161.2903226,3,1,14,0.011111111,-0.009027778,1,0,0,5.1097,rock_grid_rect_2,2,06,-1,-1,5.11,-0.138194444,-0.238888889,1,0,0,2.9694,Basalt_rect,2,2.969,1,13,0,13,0,1,,,,,,,,,,,,,
5685850c333cbd000d4e042f,TCR,2024-06-20_16h27.07.596,LearnStrategy,2023.2.3,Win32,161.2903226,3,1,15,-0.015972222,-0.009722222,1,0,0,0.9272,rock_grid_rect_2,4,08,-1,-1,0.927,0.104166667,-0.396527778,1,0,0,5.7764,Peridotite_rect,7,5.776,0,14,0,14,0,1,,,,,,,,,,,,,
5685850c333cbd000d4e042f,TCR,2024-06-20_16h27.07.596,LearnStrategy,2023.2.3,Win32,161.2903226,3,1,16,-0.010416667,-0.009027778,1,0,0,0.757,rock_grid_rect_2,7,04,-1,-1,0.757,-0.354166667,-0.252777778,1,0,0,2.563,Andesite_rect,1,2.563,0,15,0,15,0,1,,,,,,,,,,,,,
5685850c333cbd000d4e042f,TCR,2024-06-20_16h27.07.596,LearnStrategy,2023.2.3,Win32,161.2903226,3,2,1,,,,,,,,6,12,,,,,,,,,,,6,6.996,1,,,,,,-0.083333333,-0.4,1,0,0,6.9955,Pegmatite_rect,0,0,0,0,1,
5685850c333cbd000d4e042f,TCR,2024-06-20_16h27.07.596,LearnStrategy,2023.2.3,Win32,161.2903226,3,2,2,,,,,,,,6,03,,,,,,,,,,,6,1.98,1,,,,,,-0.094444444,-0.402777778,1,0,0,1.9804,Pegmatite_rect,1,0,1,0,1,
5685850c333cbd000d4e042f,TCR,2024-06-20_16h27.07.596,LearnStrategy,2023.2.3,Win32,161.2903226,3,2,3,,,,,,,,3,11,,,,,,,,,,,3,2.666,1,,,,,,0.102083333,-0.245138889,1,0,0,2.6661,Diorite_rect,2,0,2,0,1,
5685850c333cbd000d4e042f,TCR,2024-06-20_16h27.07.596,LearnStrategy,2023.2.3,Win32,161.2903226,3,2,4,,,,,,,,5,05,,,,,,,,,,,5,1.588,1,,,,,,-0.369444444,-0.390972222,1,0,0,1.5878,Obsidian_rect,3,0,3,0,1,
5685850c333cbd000d4e042f,TCR,2024-06-20_16h27.07.596,LearnStrategy,2023.2.3,Win32,161.2903226,3,2,5,,,,,,,,8,09,,,,,,,,,,,8,1.854,1,,,,,,0.3625,-0.394444444,1,0,0,1.854,Pumice_rect,4,0,4,0,1,
5685850c333cbd000d4e042f,TCR,2024-06-20_16h27.07.596,LearnStrategy,2023.2.3,Win32,161.2903226,3,2,6,,,,,,,,4,10,,,,,,,,,,,4,2.121,1,,,,,,0.363194444,-0.245833333,1,0,0,2.1209,Gabbro_rect,5,0,5,0,1,
5685850c333cbd000d4e042f,TCR,2024-06-20_16h27.07.596,LearnStrategy,2023.2.3,Win32,161.2903226,3,2,7,,,,,,,,5,08,,,,,,,,,,,5,1.187,1,,,,,,-0.39375,-0.397222222,1,0,0,1.1871,Obsidian_rect,6,0,6,0,1,
5685850c333cbd000d4e042f,TCR,2024-06-20_16h27.07.596,LearnStrategy,2023.2.3,Win32,161.2903226,3,2,8,,,,,,,,1,05,,,,,,,,,,,3,3.195,0,,,,,,0.075,-0.236805556,1,0,0,3.1947,Diorite_rect,7,0,7,0,1,
5685850c333cbd000d4e042f,TCR,2024-06-20_16h27.07.596,LearnStrategy,2023.2.3,Win32,161.2903226,3,2,9,,,,,,,,2,16,,,,,,,,,,,2,3.704,1,,,,,,-0.14375,-0.261805556,1,0,0,3.7036,Basalt_rect,8,0,8,0,1,
5685850c333cbd000d4e042f,TCR,2024-06-20_16h27.07.596,LearnStrategy,2023.2.3,Win32,161.2903226,3,2,10,,,,,,,,7,14,,,,,,,,,,,2,1.545,0,,,,,,-0.14375,-0.251388889,1,0,0,1.5451,Basalt_rect,9,0,9,0,1,
5685850c333cbd000d4e042f,TCR,2024-06-20_16h27.07.596,LearnStrategy,2023.2.3,Win32,161.2903226,3,2,11,,,,,,,,4,13,,,,,,,,,,,1,4.213,0,,,,,,-0.349305556,-0.240277778,1,0,0,4.2128,Andesite_rect,10,0,10,0,1,
5685850c333cbd000d4e042f,TCR,2024-06-20_16h27.07.596,LearnStrategy,2023.2.3,Win32,161.2903226,3,2,12,,,,,,,,8,15,,,,,,,,,,,8,2.006,1,,,,,,0.388888889,-0.4,1,0,0,2.0056,Pumice_rect,11,0,11,0,1,
5685850c333cbd000d4e042f,TCR,2024-06-20_16h27.07.596,LearnStrategy,2023.2.3,Win32,161.2903226,3,2,13,,,,,,,,3,14,,,,,,,,,,,3,6.153,1,,,,,,0.117361111,-0.252083333,1,0,0,6.153,Diorite_rect,12,0,12,0,1,
5685850c333cbd000d4e042f,TCR,2024-06-20_16h27.07.596,LearnStrategy,2023.2.3,Win32,161.2903226,3,2,14,,,,,,,,7,12,,,,,,,,,,,7,1.788,1,,,,,,0.1125,-0.406944444,1,0,0,1.7878,Peridotite_rect,13,0,13,0,1,
5685850c333cbd000d4e042f,TCR,2024-06-20_16h27.07.596,LearnStrategy,2023.2.3,Win32,161.2903226,3,2,15,,,,,,,,1,14,,,,,,,,,,,2,10.019,0,,,,,,-0.15625,-0.259722222,1,0,0,10.0194,Basalt_rect,14,0,14,0,1,
5685850c333cbd000d4e042f,TCR,2024-06-20_16h27.07.596,LearnStrategy,2023.2.3,Win32,161.2903226,3,2,16,,,,,,,,2,10,,,,,,,,,,,4,4.019,0,,,,,,0.397916667,-0.240972222,1,0,0,4.0185,Gabbro_rect,15,0,15,0,1,
5685850c333cbd000d4e042f,TCR,2024-06-20_16h27.07.596,LearnStrategy,2023.2.3,Win32,161.2903226,4,1,1,-0.005555556,0.002083333,1,0,0,11.6811,rock_grid_rect_2,5,14,-1,-1,11.681,-0.354861111,-0.393055556,1,0,0,1.7194,Obsidian_rect,5,1.719,1,0,0,0,0,1,,,,,,,,,,,,,
5685850c333cbd000d4e042f,TCR,2024-06-20_16h27.07.596,LearnStrategy,2023.2.3,Win32,161.2903226,4,1,2,-0.004861111,0.004166667,1,0,0,1.0966,rock_grid_rect_2,7,15,-1,-1,1.097,0.1125,-0.417361111,1,0,0,3.5321,Peridotite_rect,7,3.532,1,1,0,1,0,1,,,,,,,,,,,,,
5685850c333cbd000d4e042f,TCR,2024-06-20_16h27.07.596,LearnStrategy,2023.2.3,Win32,161.2903226,4,1,3,0,-0.014583333,1,0,0,0.6476,rock_grid_rect_2,1,01,-1,-1,0.648,-0.375694444,-0.26875,1,0,0,1.9681,Andesite_rect,1,1.968,1,2,0,2,0,1,,,,,,,,,,,,,
5685850c333cbd000d4e042f,TCR,2024-06-20_16h27.07.596,LearnStrategy,2023.2.3,Win32,161.2903226,4,1,4,-0.046527778,-0.00625,1,0,0,0.8113,rock_grid_rect_2,1,11,-1,-1,0.811,-0.111805556,-0.250694444,1,0,0,2.5573,Basalt_rect,2,2.557,0,3,0,3,0,1,,,,,,,,,,,,,
5685850c333cbd000d4e042f,TCR,2024-06-20_16h27.07.596,LearnStrategy,2023.2.3,Win32,161.2903226,4,1,5,0.008333333,0,1,0,0,1.0657,rock_grid_rect_2,3,16,-1,-1,1.066,0.105555556,-0.239583333,1,0,0,1.5993,Diorite_rect,3,1.599,1,4,0,4,0,1,,,,,,,,,,,,,
5685850c333cbd000d4e042f,TCR,2024-06-20_16h27.07.596,LearnStrategy,2023.2.3,Win32,161.2903226,4,1,6,0.007638889,-0.002777778,1,0,0,0.5079,rock_grid_rect_2,6,08,-1,-1,0.508,-0.172916667,-0.402777778,1,0,0,1.4547,Pegmatite_rect,6,1.455,1,5,0,5,0,1,,,,,,,,,,,,,
5685850c333cbd000d4e042f,TCR,2024-06-20_16h27.07.596,LearnStrategy,2023.2.3,Win32,161.2903226,4,1,7,0.011805556,-0.003472222,1,0,0,0.697,rock_grid_rect_2,2,04,-1,-1,0.697,0.401388889,-0.25,1,0,0,1.4912,Gabbro_rect,4,1.491,0,6,0,6,0,1,,,,,,,,,,,,,
5685850c333cbd000d4e042f,TCR,2024-06-20_16h27.07.596,LearnStrategy,2023.2.3,Win32,161.2903226,4,1,8,0.016666667,-0.011805556,1,0,0,0.6296,rock_grid_rect_2,1,01,-1,-1,0.63,-0.3375,-0.240972222,1,0,0,3.6226,Andesite_rect,1,3.623,1,7,0,7,0,1,,,,,,,,,,,,,
5685850c333cbd000d4e042f,TCR,2024-06-20_16h27.07.596,LearnStrategy,2023.2.3,Win32,161.2903226,4,1,9,0.015277778,-0.000694444,1,0,0,0.6901,rock_grid_rect_2,4,12,-1,-1,0.69,0.390277778,-0.245833333,1,0,0,2.2792,Gabbro_rect,4,2.279,1,8,0,8,0,1,,,,,,,,,,,,,
5685850c333cbd000d4e042f,TCR,2024-06-20_16h27.07.596,LearnStrategy,2023.2.3,Win32,161.2903226,4,1,10,-0.006944444,-0.002083333,1,0,0,0.8356,rock_grid_rect_2,1,06,-1,-1,0.836,0.1,-0.259722222,1,0,0,3.8503,Diorite_rect,3,3.85,0,9,0,9,0,1,,,,,,,,,,,,,
5685850c333cbd000d4e042f,TCR,2024-06-20_16h27.07.596,LearnStrategy,2023.2.3,Win32,161.2903226,4,1,11,-0.020138889,0.006944444,1,0,0,0.6121,rock_grid_rect_2,7,04,-1,-1,0.612,-0.357638889,-0.229861111,1,0,0,1.2355,Andesite_rect,1,1.236,0,10,0,10,0,1,,,,,,,,,,,,,
5685850c333cbd000d4e042f,TCR,2024-06-20_16h27.07.596,LearnStrategy,2023.2.3,Win32,161.2903226,4,1,12,0.011111111,0.001388889,1,0,0,0.5999,rock_grid_rect_2,4,08,-1,-1,0.6,0.370138889,-0.239583333,1,0,0,5.3827,Gabbro_rect,4,5.383,1,11,0,11,0,1,,,,,,,,,,,,,
5685850c333cbd000d4e042f,TCR,2024-06-20_16h27.07.596,LearnStrategy,2023.2.3,Win32,161.2903226,4,1,13,0.044444444,-0.002083333,1,0,0,0.563,rock_grid_rect_2,7,15,-1,-1,0.563,0.124305556,-0.411111111,1,0,0,3.0187,Peridotite_rect,7,3.019,1,12,0,12,0,1,,,,,,,,,,,,,
5685850c333cbd000d4e042f,TCR,2024-06-20_16h27.07.596,LearnStrategy,2023.2.3,Win32,161.2903226,4,1,14,0.013194444,-0.009722222,1,0,0,0.6777,rock_grid_rect_2,2,04,-1,-1,0.678,-0.142361111,-0.247916667,1,0,0,2.3318,Basalt_rect,2,2.332,1,13,0,13,0,1,,,,,,,,,,,,,
5685850c333cbd000d4e042f,TCR,2024-06-20_16h27.07.596,LearnStrategy,2023.2.3,Win32,161.2903226,4,1,15,0.022222222,-0.000694444,1,0,0,0.5688,rock_grid_rect_2,2,12,-1,-1,0.569,-0.152777778,-0.251388889,1,0,0,7.6867,Basalt_rect,2,7.687,1,14,0,14,0,1,,,,,,,,,,,,,
5685850c333cbd000d4e042f,TCR,2024-06-20_16h27.07.596,LearnStrategy,2023.2.3,Win32,161.2903226,4,1,16,-0.015277778,0,1,0,0,0.7393,rock_grid_rect_2,3,12,-1,-1,0.739,0.129861111,-0.24375,1,0,0,1.6967,Diorite_rect,3,1.697,1,15,0,15,0,1,,,,,,,,,,,,,
5685850c333cbd000d4e042f,TCR,2024-06-20_16h27.07.596,LearnStrategy,2023.2.3,Win32,161.2903226,4,2,1,,,,,,,,7,16,,,,,,,,,,,1,8.838,0,,,,,,-0.341666667,-0.243055556,1,0,0,8.8376,Andesite_rect,0,0,0,0,1,
5685850c333cbd000d4e042f,TCR,2024-06-20_16h27.07.596,LearnStrategy,2023.2.3,Win32,161.2903226,4,2,2,,,,,,,,1,02,,,,,,,,,,,1,4.047,1,,,,,,-0.353472222,-0.254861111,1,0,0,4.0466,Andesite_rect,1,0,1,0,1,
5685850c333cbd000d4e042f,TCR,2024-06-20_16h27.07.596,LearnStrategy,2023.2.3,Win32,161.2903226,4,2,3,,,,,,,,7,02,,,,,,,,,,,6,4.079,0,,,,,,-0.071527778,-0.4,1,0,0,4.0786,Pegmatite_rect,2,0,2,0,1,
5685850c333cbd000d4e042f,TCR,2024-06-20_16h27.07.596,LearnStrategy,2023.2.3,Win32,161.2903226,4,2,4,,,,,,,,6,09,,,,,,,,,,,6,1.361,1,,,,,,-0.113888889,-0.388888889,1,0,0,1.3609,Pegmatite_rect,3,0,3,0,1,
5685850c333cbd000d4e042f,TCR,2024-06-20_16h27.07.596,LearnStrategy,2023.2.3,Win32,161.2903226,4,2,5,,,,,,,,4,15,,,,,,,,,,,3,7.4,0,,,,,,0.090277778,-0.251388889,1,0,0,7.3996,Diorite_rect,4,0,4,0,1,
5685850c333cbd000d4e042f,TCR,2024-06-20_16h27.07.596,LearnStrategy,2023.2.3,Win32,161.2903226,4,2,6,,,,,,,,1,05,,,,,,,,,,,1,2.707,1,,,,,,-0.367361111,-0.253472222,1,0,0,2.7073,Andesite_rect,5,0,5,0,1,
5685850c333cbd000d4e042f,TCR,2024-06-20_16h27.07.596,LearnStrategy,2023.2.3,Win32,161.2903226,4,2,7,,,,,,,,5,11,,,,,,,,,,,5,1.028,1,,,,,,-0.415972222,-0.38125,1,0,0,1.0278,Obsidian_rect,6,0,6,0,1,
5685850c333cbd000d4e042f,TCR,2024-06-20_16h27.07.596,LearnStrategy,2023.2.3,Win32,161.2903226,4,2,8,,,,,,,,2,10,,,,,,,,,,,2,6.504,1,,,,,,-0.105555556,-0.252777778,1,0,0,6.5035,Basalt_rect,7,0,7,0,1,
5685850c333cbd000d4e042f,TCR,2024-06-20_16h27.07.596,LearnStrategy,2023.2.3,Win32,161.2903226,4,2,9,,,,,,,,2,02,,,,,,,,,,,4,6.798,0,,,,,,0.3875,-0.245138889,1,0,0,6.7981,Gabbro_rect,8,0,8,0,1,
5685850c333cbd000d4e042f,TCR,2024-06-20_16h27.07.596,LearnStrategy,2023.2.3,Win32,161.2903226,4,2,10,,,,,,,,5,12,,,,,,,,,,,5,1.066,1,,,,,,-0.373611111,-0.4,1,0,0,1.0664,Obsidian_rect,9,0,9,0,1,
5685850c333cbd000d4e042f,TCR,2024-06-20_16h27.07.596,LearnStrategy,2023.2.3,Win32,161.2903226,4,2,11,,,,,,,,6,03,,,,,,,,,,,6,5.243,1,,,,,,-0.108333333,-0.395833333,1,0,0,5.2432,Pegmatite_rect,10,0,10,0,1,
5685850c333cbd000d4e042f,TCR,2024-06-20_16h27.07.596,LearnStrategy,2023.2.3,Win32,161.2903226,4,2,12,,,,,,,,3,11,,,,,,,,,,,3,6.758,1,,,,,,0.097916667,-0.244444444,1,0,0,6.7584,Diorite_rect,11,0,11,0,1,
5685850c333cbd000d4e042f,TCR,2024-06-20_16h27.07.596,LearnStrategy,2023.2.3,Win32,161.2903226,4,2,13,,,,,,,,3,07,,,,,,,,,,,6,10.649,0,,,,,,-0.120833333,-0.397916667,1,0,0,10.649,Pegmatite_rect,12,0,12,0,1,
5685850c333cbd000d4e042f,TCR,2024-06-20_16h27.07.596,LearnStrategy,2023.2.3,Win32,161.2903226,4,2,14,,,,,,,,8,10,,,,,,,,,,,8,1.533,1,,,,,,0.425694444,-0.399305556,1,0,0,1.5333,Pumice_rect,13,0,13,0,1,
5685850c333cbd000d4e042f,TCR,2024-06-20_16h27.07.596,LearnStrategy,2023.2.3,Win32,161.2903226,4,2,15,,,,,,,,8,16,,,,,,,,,,,8,1.278,1,,,,,,0.369444444,-0.388888889,1,0,0,1.278,Pumice_rect,14,0,14,0,1,
5685850c333cbd000d4e042f,TCR,2024-06-20_16h27.07.596,LearnStrategy,2023.2.3,Win32,161.2903226,4,2,16,,,,,,,,4,11,,,,,,,,,,,4,2.23,1,,,,,,0.371527778,-0.240972222,1,0,0,2.2297,Gabbro_rect,15,0,15,0,1,
5685850c333cbd000d4e042f,TCR,2024-06-20_16h27.07.596,LearnStrategy,2023.2.3,Win32,161.2903226,5,1,1,0.013194444,-0.00625,1,0,0,0.9752,rock_grid_rect_2,6,11,-1,-1,0.975,-0.138194444,-0.401388889,1,0,0,1.1633,Pegmatite_rect,6,1.163,1,0,0,0,0,1,,,,,,,,,,,,,
5685850c333cbd000d4e042f,TCR,2024-06-20_16h27.07.596,LearnStrategy,2023.2.3,Win32,161.2903226,5,1,2,-0.004861111,0.002777778,1,0,0,0.7516,rock_grid_rect_2,4,08,-1,-1,0.752,-0.345833333,-0.252777778,1,0,0,2.9568,Andesite_rect,1,2.957,0,1,0,1,0,1,,,,,,,,,,,,,
5685850c333cbd000d4e042f,TCR,2024-06-20_16h27.07.596,LearnStrategy,2023.2.3,Win32,161.2903226,5,1,3,-0.032638889,-0.005555556,1,0,0,0.618,rock_grid_rect_2,1,11,-1,-1,0.618,0.090277778,-0.265277778,1,0,0,2.1879,Diorite_rect,3,2.188,0,2,0,2,0,1,,,,,,,,,,,,,
5685850c333cbd000d4e042f,TCR,2024-06-20_16h27.07.596,LearnStrategy,2023.2.3,Win32,161.2903226,5,1,4,0.029166667,-0.020833333,1,0,0,0.6538,rock_grid_rect_2,4,08,-1,-1,0.654,0.079861111,-0.2625,1,0,0,1.8417,Diorite_rect,3,1.842,0,3,0,3,0,1,,,,,,,,,,,,,
5685850c333cbd000d4e042f,TCR,2024-06-20_16h27.07.596,LearnStrategy,2023.2.3,Win32,161.2903226,5,1,5,0.013888889,-0.004166667,1,0,0,0.6912,rock_grid_rect_2,3,13,-1,-1,0.691,0.102083333,-0.413194444,1,0,0,5.8805,Peridotite_rect,7,5.88,0,4,0,4,0,1,,,,,,,,,,,,,
5685850c333cbd000d4e042f,TCR,2024-06-20_16h27.07.596,LearnStrategy,2023.2.3,Win32,161.2903226,5,1,6,0.020833333,-0.007638889,1,0,0,0.6723,rock_grid_rect_2,7,05,-1,-1,0.672,-0.329861111,-0.2625,1,0,0,2.2845,Andesite_rect,1,2.284,0,5,0,5,0,1,,,,,,,,,,,,,
5685850c333cbd000d4e042f,TCR,2024-06-20_16h27.07.596,LearnStrategy,2023.2.3,Win32,161.2903226,5,1,7,0.027083333,0.011805556,1,0,0,0.6178,rock_grid_rect_2,7,15,-1,-1,0.618,0.117361111,-0.406944444,1,0,0,1.4661,Peridotite_rect,7,1.466,1,6,0,6,0,1,,,,,,,,,,,,,
5685850c333cbd000d4e042f,TCR,2024-06-20_16h27.07.596,LearnStrategy,2023.2.3,Win32,161.2903226,5,1,8,0.033333333,0.006944444,1,0,0,0.7569,rock_grid_rect_2,1,11,-1,-1,0.757,-0.110416667,-0.253472222,1,0,0,2.7818,Basalt_rect,2,2.782,0,7,0,7,0,1,,,,,,,,,,,,,
5685850c333cbd000d4e042f,TCR,2024-06-20_16h27.07.596,LearnStrategy,2023.2.3,Win32,161.2903226,5,1,9,-0.023611111,0.004861111,1,0,0,0.6351,rock_grid_rect_2,3,12,-1,-1,0.635,0.113888889,-0.242361111,1,0,0,2.2667,Diorite_rect,3,2.267,1,8,0,8,0,1,,,,,,,,,,,,,
5685850c333cbd000d4e042f,TCR,2024-06-20_16h27.07.596,LearnStrategy,2023.2.3,Win32,161.2903226,5,1,10,0.040277778,-0.009027778,1,0,0,0.7266,rock_grid_rect_2,7,05,-1,-1,0.727,0.145138889,-0.398611111,1,0,0,4.4972,Peridotite_rect,7,4.497,1,9,0,9,0,1,,,,,,,,,,,,,
5685850c333cbd000d4e042f,TCR,2024-06-20_16h27.07.596,LearnStrategy,2023.2.3,Win32,161.2903226,5,1,11,0.043055556,0.009722222,1,0,0,0.5809,rock_grid_rect_2,4,12,-1,-1,0.581,0.384722222,-0.256944444,1,0,0,1.103,Gabbro_rect,4,1.103,1,10,0,10,0,1,,,,,,,,,,,,,
5685850c333cbd000d4e042f,TCR,2024-06-20_16h27.07.596,LearnStrategy,2023.2.3,Win32,161.2903226,5,1,12,0.061805556,-0.001388889,1,0,0,0.5205,rock_grid_rect_2,1,06,-1,-1,0.52,0.106944444,-0.259722222,1,0,0,2.387,Diorite_rect,3,2.387,0,11,0,11,0,1,,,,,,,,,,,,,
5685850c333cbd000d4e042f,TCR,2024-06-20_16h27.07.596,LearnStrategy,2023.2.3,Win32,161.2903226,5,1,13,-0.020833333,-0.019444444,1,0,0,0.7143,rock_grid_rect_2,2,01,-1,-1,0.714,-0.065972222,-0.251388889,1,0,0,1.7987,Basalt_rect,2,1.799,1,12,0,12,0,1,,,,,,,,,,,,,
5685850c333cbd000d4e042f,TCR,2024-06-20_16h27.07.596,LearnStrategy,2023.2.3,Win32,161.2903226,5,1,14,-0.011111111,0.004861111,1,0,0,0.5152,rock_grid_rect_2,2,01,-1,-1,0.515,-0.094444444,-0.246527778,1,0,0,1.1146,Basalt_rect,2,1.115,1,13,0,13,0,1,,,,,,,,,,,,,
5685850c333cbd000d4e042f,TCR,2024-06-20_16h27.07.596,LearnStrategy,2023.2.3,Win32,161.2903226,5,1,15,0.023611111,0.007638889,1,0,0,0.606,rock_grid_rect_2,5,02,-1,-1,0.606,-0.389583333,-0.409722222,1,0,0,1.0477,Obsidian_rect,5,1.048,1,14,0,14,0,1,,,,,,,,,,,,,
5685850c333cbd000d4e042f,TCR,2024-06-20_16h27.07.596,LearnStrategy,2023.2.3,Win32,161.2903226,5,1,16,0.00625,0.009027778,1,0,0,0.7892,rock_grid_rect_2,2,04,-1,-1,0.789,-0.090972222,-0.263194444,1,0,0,1.5507,Basalt_rect,2,1.551,1,15,0,15,0,1,,,,,,,,,,,,,
5685850c333cbd000d4e042f,TCR,2024-06-20_16h27.07.596,LearnStrategy,2023.2.3,Win32,161.2903226,5,2,1,,,,,,,,4,10,,,,,,,,,,,2,6.268,0,,,,,,-0.122916667,-0.255555556,1,0,0,6.2676,Basalt_rect,0,0,0,0,1,
5685850c333cbd000d4e042f,TCR,2024-06-20_16h27.07.596,LearnStrategy,2023.2.3,Win32,161.2903226,5,2,2,,,,,,,,1,14,,,,,,,,,,,1,3.254,1,,,,,,-0.365277778,-0.260416667,1,0,0,3.2543,Andesite_rect,1,0,1,0,1,
5685850c333cbd000d4e042f,TCR,2024-06-20_16h27.07.596,LearnStrategy,2023.2.3,Win32,161.2903226,5,2,3,,,,,,,,8,09,,,,,,,,,,,8,1.017,1,,,,,,0.372222222,-0.399305556,1,0,0,1.0166,Pumice_rect,2,0,2,0,1,
5685850c333cbd000d4e042f,TCR,2024-06-20_16h27.07.596,LearnStrategy,2023.2.3,Win32,161.2903226,5,2,4,,,,,,,,5,16,,,,,,,,,,,5,0.987,1,,,,,,-0.409027778,-0.418055556,1,0,0,0.987,Obsidian_rect,3,0,3,0,1,
5685850c333cbd000d4e042f,TCR,2024-06-20_16h27.07.596,LearnStrategy,2023.2.3,Win32,161.2903226,5,2,5,,,,,,,,2,08,,,,,,,,,,,2,1.575,1,,,,,,-0.079861111,-0.240277778,1,0,0,1.5754,Basalt_rect,4,0,4,0,1,
5685850c333cbd000d4e042f,TCR,2024-06-20_16h27.07.596,LearnStrategy,2023.2.3,Win32,161.2903226,5,2,6,,,,,,,,8,02,,,,,,,,,,,8,1.278,1,,,,,,0.434722222,-0.39375,1,0,0,1.2782,Pumice_rect,5,0,5,0,1,
5685850c333cbd000d4e042f,TCR,2024-06-20_16h27.07.596,LearnStrategy,2023.2.3,Win32,161.2903226,5,2,7,,,,,,,,1,16,,,,,,,,,,,3,5.249,0,,,,,,0.140277778,-0.25,1,0,0,5.2489,Diorite_rect,6,0,6,0,1,
5685850c333cbd000d4e042f,TCR,2024-06-20_16h27.07.596,LearnStrategy,2023.2.3,Win32,161.2903226,5,2,8,,,,,,,,3,14,,,,,,,,,,,3,3.115,1,,,,,,0.140277778,-0.25,1,0,0,3.1153,Diorite_rect,7,0,7,0,1,
5685850c333cbd000d4e042f,TCR,2024-06-20_16h27.07.596,LearnStrategy,2023.2.3,Win32,161.2903226,5,2,9,,,,,,,,3,02,,,,,,,,,,,7,3.212,0,,,,,,0.113194444,-0.398611111,1,0,0,3.2124,Peridotite_rect,8,0,8,0,1,
5685850c333cbd000d4e042f,TCR,2024-06-20_16h27.07.596,LearnStrategy,2023.2.3,Win32,161.2903226,5,2,10,,,,,,,,7,14,,,,,,,,,,,1,3.915,0,,,,,,-0.361111111,-0.243055556,1,0,0,3.915,Andesite_rect,9,0,9,0,1,
5685850c333cbd000d4e042f,TCR,2024-06-20_16h27.07.596,LearnStrategy,2023.2.3,Win32,161.2903226,5,2,11,,,,,,,,2,16,,,,,,,,,,,2,1.915,1,,,,,,-0.093055556,-0.249305556,1,0,0,1.915,Basalt_rect,10,0,10,0,1,
5685850c333cbd000d4e042f,TCR,2024-06-20_16h27.07.596,LearnStrategy,2023.2.3,Win32,161.2903226,5,2,12,,,,,,,,4,13,,,,,,,,,,,3,2.534,0,,,,,,0.1,-0.251388889,1,0,0,2.5337,Diorite_rect,11,0,11,0,1,
5685850c333cbd000d4e042f,TCR,2024-06-20_16h27.07.596,LearnStrategy,2023.2.3,Win32,161.2903226,5,2,13,,,,,,,,6,13,,,,,,,,,,,6,1.563,1,,,,,,-0.157638889,-0.386805556,1,0,0,1.5631,Pegmatite_rect,12,0,12,0,1,
5685850c333cbd000d4e042f,TCR,2024-06-20_16h27.07.596,LearnStrategy,2023.2.3,Win32,161.2903226,5,2,14,,,,,,,,5,05,,,,,,,,,,,5,1.315,1,,,,,,-0.363888889,-0.403472222,1,0,0,1.3151,Obsidian_rect,13,0,13,0,1,
5685850c333cbd000d4e042f,TCR,2024-06-20_16h27.07.596,LearnStrategy,2023.2.3,Win32,161.2903226,5,2,15,,,,,,,,7,06,,,,,,,,,,,6,2.933,0,,,,,,-0.126388889,-0.402777778,1,0,0,2.9331,Pegmatite_rect,14,0,14,0,1,
5685850c333cbd000d4e042f,TCR,2024-06-20_16h27.07.596,LearnStrategy,2023.2.3,Win32,161.2903226,5,2,16,,,,,,,,6,07,,,,,,,,,,,6,1.193,1,,,,,,-0.127777778,-0.411805556,1,0,0,1.1931,Pegmatite_rect,15,0,15,0,1,
5685850c333cbd000d4e042f,TCR,2024-06-20_16h27.07.596,LearnStrategy,2023.2.3,Win32,161.2903226,6,1,1,0.034722222,-0.007638889,1,0,0,0.6049,rock_grid_rect_2,3,13,-1,-1,0.605,0.119444444,-0.397222222,1,0,0,2.1702,Peridotite_rect,7,2.17,0,0,0,0,0,1,,,,,,,,,,,,,
5685850c333cbd000d4e042f,TCR,2024-06-20_16h27.07.596,LearnStrategy,2023.2.3,Win32,161.2903226,6,1,2,-0.022916667,0.009027778,1,0,0,0.5937,rock_grid_rect_2,7,04,-1,-1,0.594,-0.105555556,-0.414583333,1,0,0,3.2301,Pegmatite_rect,6,3.23,0,1,0,1,0,1,,,,,,,,,,,,,
5685850c333cbd000d4e042f,TCR,2024-06-20_16h27.07.596,LearnStrategy,2023.2.3,Win32,161.2903226,6,1,3,-0.011805556,-0.002083333,1,0,0,2.1836,rock_grid_rect_2,7,15,-1,-1,2.184,0.0875,-0.247916667,1,0,0,2.7574,Diorite_rect,3,2.757,0,2,0,2,0,1,,,,,,,,,,,,,
5685850c333cbd000d4e042f,TCR,2024-06-20_16h27.07.596,LearnStrategy,2023.2.3,Win32,161.2903226,6,1,4,0.004861111,-0.004861111,1,0,0,0.5683,rock_grid_rect_2,3,13,-1,-1,0.568,0.086805556,-0.254166667,1,0,0,2.4231,Diorite_rect,3,2.423,1,3,0,3,0,1,,,,,,,,,,,,,
5685850c333cbd000d4e042f,TCR,2024-06-20_16h27.07.596,LearnStrategy,2023.2.3,Win32,161.2903226,6,1,5,0,-0.011805556,1,0,0,0.86,rock_grid_rect_2,2,06,-1,-1,0.86,0.353472222,-0.253472222,1,0,0,3.0184,Gabbro_rect,4,3.018,0,4,0,4,0,1,,,,,,,,,,,,,
5685850c333cbd000d4e042f,TCR,2024-06-20_16h27.07.596,LearnStrategy,2023.2.3,Win32,161.2903226,6,1,6,0.008333333,-0.006944444,1,0,0,0.4842,rock_grid_rect_2,6,15,-1,-1,0.484,-0.1,-0.40625,1,0,0,1.2051,Pegmatite_rect,6,1.205,1,5,0,5,0,1,,,,,,,,,,,,,
5685850c333cbd000d4e042f,TCR,2024-06-20_16h27.07.596,LearnStrategy,2023.2.3,Win32,161.2903226,6,1,7,-0.040277778,-0.004861111,1,0,0,0.6412,rock_grid_rect_2,4,16,-1,-1,0.641,-0.084722222,-0.259722222,1,0,0,1.6122,Basalt_rect,2,1.612,0,6,0,6,0,1,,,,,,,,,,,,,
5685850c333cbd000d4e042f,TCR,2024-06-20_16h27.07.596,LearnStrategy,2023.2.3,Win32,161.2903226,6,1,8,0.003472222,-0.002777778,1,0,0,0.5817,rock_grid_rect_2,2,12,-1,-1,0.582,-0.10625,-0.256944444,1,0,0,4.1279,Basalt_rect,2,4.128,1,7,0,7,0,1,,,,,,,,,,,,,
5685850c333cbd000d4e042f,TCR,2024-06-20_16h27.07.596,LearnStrategy,2023.2.3,Win32,161.2903226,6,1,9,-0.014583333,0.000694444,1,0,0,0.5692,rock_grid_rect_2,3,10,-1,-1,0.569,-0.330555556,-0.249305556,1,0,0,1.7572,Andesite_rect,1,1.757,0,8,0,8,0,1,,,,,,,,,,,,,
5685850c333cbd000d4e042f,TCR,2024-06-20_16h27.07.596,LearnStrategy,2023.2.3,Win32,161.2903226,6,1,10,-0.033333333,0.002083333,1,0,0,0.6889,rock_grid_rect_2,1,01,-1,-1,0.689,0.084722222,-0.261805556,1,0,0,1.0488,Diorite_rect,3,1.049,0,9,0,9,0,1,,,,,,,,,,,,,
5685850c333cbd000d4e042f,TCR,2024-06-20_16h27.07.596,LearnStrategy,2023.2.3,Win32,161.2903226,6,1,11,-0.007638889,-0.017361111,1,0,0,0.5807,rock_grid_rect_2,1,11,-1,-1,0.581,-0.068055556,-0.259027778,1,0,0,2.4426,Basalt_rect,2,2.443,0,10,0,10,0,1,,,,,,,,,,,,,
5685850c333cbd000d4e042f,TCR,2024-06-20_16h27.07.596,LearnStrategy,2023.2.3,Win32,161.2903226,6,1,12,-0.040277778,-0.003472222,1,0,0,0.5869,rock_grid_rect_2,7,05,-1,-1,0.587,-0.08125,-0.395138889,1,0,0,2.588,Pegmatite_rect,6,2.588,0,11,0,11,0,1,,,,,,,,,,,,,
5685850c333cbd000d4e042f,TCR,2024-06-20_16h27.07.596,LearnStrategy,2023.2.3,Win32,161.2903226,6,1,13,-0.015972222,0.018055556,1,0,0,0.4714,rock_grid_rect_2,1,07,-1,-1,0.471,0.079861111,-0.240277778,1,0,0,2.0127,Diorite_rect,3,2.013,0,12,0,12,0,1,,,,,,,,,,,,,
5685850c333cbd000d4e042f,TCR,2024-06-20_16h27.07.596,LearnStrategy,2023.2.3,Win32,161.2903226,6,1,14,0.013888889,0.018055556,1,0,0,0.5321,rock_grid_rect_2,4,12,-1,-1,0.532,0.356944444,-0.242361111,1,0,0,1.848,Gabbro_rect,4,1.848,1,13,0,13,0,1,,,,,,,,,,,,,
5685850c333cbd000d4e042f,TCR,2024-06-20_16h27.07.596,LearnStrategy,2023.2.3,Win32,161.2903226,6,1,15,0.021527778,0.00625,1,0,0,0.533,rock_grid_rect_2,7,15,-1,-1,0.533,0.072222222,-0.240277778,1,0,0,4.2368,Diorite_rect,3,4.237,0,14,0,14,0,1,,,,,,,,,,,,,
5685850c333cbd000d4e042f,TCR,2024-06-20_16h27.07.596,LearnStrategy,2023.2.3,Win32,161.2903226,6,1,16,0.013194444,-0.002083333,1,0,0,0.6607,rock_grid_rect_2,4,05,-1,-1,0.661,-0.099305556,-0.244444444,1,0,0,3.3918,Basalt_rect,2,3.392,0,15,0,15,0,1,,,,,,,,,,,,,
5685850c333cbd000d4e042f,TCR,2024-06-20_16h27.07.596,LearnStrategy,2023.2.3,Win32,161.2903226,6,2,1,,,,,,,,6,06,,,,,,,,,,,6,1.557,1,,,,,,-0.076388889,-0.388194444,1,0,0,1.5569,Pegmatite_rect,0,0,0,0,1,
5685850c333cbd000d4e042f,TCR,2024-06-20_16h27.07.596,LearnStrategy,2023.2.3,Win32,161.2903226,6,2,2,,,,,,,,8,15,,,,,,,,,,,8,3.044,1,,,,,,0.375694444,-0.40625,1,0,0,3.0445,Pumice_rect,1,0,1,0,1,
5685850c333cbd000d4e042f,TCR,2024-06-20_16h27.07.596,LearnStrategy,2023.2.3,Win32,161.2903226,6,2,3,,,,,,,,5,08,,,,,,,,,,,5,1.149,1,,,,,,-0.448611111,-0.395833333,1,0,0,1.1494,Obsidian_rect,2,0,2,0,1,
5685850c333cbd000d4e042f,TCR,2024-06-20_16h27.07.596,LearnStrategy,2023.2.3,Win32,161.2903226,6,2,4,,,,,,,,7,13,,,,,,,,,,,7,4.461,1,,,,,,0.147916667,-0.411111111,1,0,0,4.461,Peridotite_rect,3,0,3,0,1,
5685850c333cbd000d4e042f,TCR,2024-06-20_16h27.07.596,LearnStrategy,2023.2.3,Win32,161.2903226,6,2,5,,,,,,,,5,06,,,,,,,,,,,5,1.806,1,,,,,,-0.372916667,-0.399305556,1,0,0,1.8062,Obsidian_rect,4,0,4,0,1,
5685850c333cbd000d4e042f,TCR,2024-06-20_16h27.07.596,LearnStrategy,2023.2.3,Win32,161.2903226,6,2,6,,,,,,,,1,09,,,,,,,,,,,2,2.387,0,,,,,,-0.130555556,-0.247222222,1,0,0,2.3874,Basalt_rect,5,0,5,0,1,
5685850c333cbd000d4e042f,TCR,2024-06-20_16h27.07.596,LearnStrategy,2023.2.3,Win32,161.2903226,6,2,7,,,,,,,,3,15,,,,,,,,,,,1,2.612,0,,,,,,-0.359027778,-0.246527778,1,0,0,2.6119,Andesite_rect,6,0,6,0,1,
5685850c333cbd000d4e042f,TCR,2024-06-20_16h27.07.596,LearnStrategy,2023.2.3,Win32,161.2903226,6,2,8,,,,,,,,3,09,,,,,,,,,,,1,1.715,0,,,,,,-0.359027778,-0.248611111,1,0,0,1.7147,Andesite_rect,7,0,7,0,1,
5685850c333cbd000d4e042f,TCR,2024-06-20_16h27.07.596,LearnStrategy,2023.2.3,Win32,161.2903226,6,2,9,,,,,,,,6,12,,,,,,,,,,,6,2.018,1,,,,,,-0.154861111,-0.386805556,1,0,0,2.018,Pegmatite_rect,8,0,8,0,1,
5685850c333cbd000d4e042f,TCR,2024-06-20_16h27.07.596,LearnStrategy,2023.2.3,Win32,161.2903226,6,2,10,,,,,,,,8,06,,,,,,,,,,,8,1.193,1,,,,,,0.344444444,-0.39375,1,0,0,1.1934,Pumice_rect,9,0,9,0,1,
5685850c333cbd000d4e042f,TCR,2024-06-20_16h27.07.596,LearnStrategy,2023.2.3,Win32,161.2903226,6,2,11,,,,,,,,7,12,,,,,,,,,,,3,3.503,0,,,,,,0.11875,-0.252083333,1,0,0,3.5031,Diorite_rect,10,0,10,0,1,
5685850c333cbd000d4e042f,TCR,2024-06-20_16h27.07.596,LearnStrategy,2023.2.3,Win32,161.2903226,6,2,12,,,,,,,,2,05,,,,,,,,,,,4,1.721,0,,,,,,0.324305556,-0.256944444,1,0,0,1.7207,Gabbro_rect,11,0,11,0,1,
5685850c333cbd000d4e042f,TCR,2024-06-20_16h27.07.596,LearnStrategy,2023.2.3,Win32,161.2903226,6,2,13,,,,,,,,1,03,,,,,,,,,,,2,1.236,0,,,,,,-0.093055556,-0.238194444,1,0,0,1.2358,Basalt_rect,12,0,12,0,1,
5685850c333cbd000d4e042f,TCR,2024-06-20_16h27.07.596,LearnStrategy,2023.2.3,Win32,161.2903226,6,2,14,,,,,,,,2,11,,,,,,,,,,,4,4.875,0,,,,,,0.38125,-0.25625,1,0,0,4.8753,Gabbro_rect,13,0,13,0,1,
5685850c333cbd000d4e042f,TCR,2024-06-20_16h27.07.596,LearnStrategy,2023.2.3,Win32,161.2903226,6,2,15,,,,,,,,4,09,,,,,,,,,,,1,6.728,0,,,,,,-0.353472222,-0.250694444,1,0,0,6.7284,Andesite_rect,14,0,14,0,1,
5685850c333cbd000d4e042f,TCR,2024-06-20_16h27.07.596,LearnStrategy,2023.2.3,Win32,161.2903226,6,2,16,,,,,,,,4,03,,,,,,,,,,,4,3.146,1,,,,,,0.409722222,-0.251388889,1,0,0,3.1455,Gabbro_rect,15,0,15,0,1,
5685850c333cbd000d4e042f,TCR,2024-06-20_16h27.07.596,LearnStrategy,2023.2.3,Win32,161.2903226,7,1,1,0.021527778,-0.018055556,1,0,0,3.2548,rock_grid_rect_2,7,08,-1,-1,3.255,0.134027778,-0.255555556,1,0,0,3.0915,Diorite_rect,3,3.091,0,0,0,0,0,1,,,,,,,,,,,,,
5685850c333cbd000d4e042f,TCR,2024-06-20_16h27.07.596,LearnStrategy,2023.2.3,Win32,161.2903226,7,1,2,0.039583333,-0.013194444,1,0,0,0.5751,rock_grid_rect_2,2,14,-1,-1,0.575,0.375694444,-0.252777778,1,0,0,2.1027,Gabbro_rect,4,2.103,0,1,0,1,0,1,,,,,,,,,,,,,
5685850c333cbd000d4e042f,TCR,2024-06-20_16h27.07.596,LearnStrategy,2023.2.3,Win32,161.2903226,7,1,3,0.05,0.004166667,1,0,0,0.5939,rock_grid_rect_2,1,10,-1,-1,0.594,-0.393055556,-0.26875,1,0,0,1.945,Andesite_rect,1,1.945,1,2,0,2,0,1,,,,,,,,,,,,,
5685850c333cbd000d4e042f,TCR,2024-06-20_16h27.07.596,LearnStrategy,2023.2.3,Win32,161.2903226,7,1,4,-0.009027778,-0.005555556,1,0,0,0.6534,rock_grid_rect_2,4,12,-1,-1,0.653,0.401388889,-0.244444444,1,0,0,1.126,Gabbro_rect,4,1.126,1,3,0,3,0,1,,,,,,,,,,,,,
5685850c333cbd000d4e042f,TCR,2024-06-20_16h27.07.596,LearnStrategy,2023.2.3,Win32,161.2903226,7,1,5,-0.040277778,0.005555556,1,0,0,0.5449,rock_grid_rect_2,4,16,-1,-1,0.545,-0.081944444,-0.24375,1,0,0,1.7024,Basalt_rect,2,1.702,0,4,0,4,0,1,,,,,,,,,,,,,
5685850c333cbd000d4e042f,TCR,2024-06-20_16h27.07.596,LearnStrategy,2023.2.3,Win32,161.2903226,7,1,6,0.013194444,0.000694444,1,0,0,0.6968,rock_grid_rect_2,2,06,-1,-1,0.697,-0.0875,-0.245833333,1,0,0,1.4308,Basalt_rect,2,1.431,1,5,0,5,0,1,,,,,,,,,,,,,
5685850c333cbd000d4e042f,TCR,2024-06-20_16h27.07.596,LearnStrategy,2023.2.3,Win32,161.2903226,7,1,7,0.006944444,-0.009027778,1,0,0,0.5458,rock_grid_rect_2,1,06,-1,-1,0.546,0.099305556,-0.248611111,1,0,0,1.4656,Diorite_rect,3,1.466,0,6,0,6,0,1,,,,,,,,,,,,,
5685850c333cbd000d4e042f,TCR,2024-06-20_16h27.07.596,LearnStrategy,2023.2.3,Win32,161.2903226,7,1,8,0.020833333,-0.009722222,1,0,0,0.5388,rock_grid_rect_2,1,01,-1,-1,0.539,-0.354861111,-0.25625,1,0,0,1.668,Andesite_rect,1,1.668,1,7,0,7,0,1,,,,,,,,,,,,,
5685850c333cbd000d4e042f,TCR,2024-06-20_16h27.07.596,LearnStrategy,2023.2.3,Win32,161.2903226,7,1,9,-0.009027778,0.014583333,1,0,0,0.521,rock_grid_rect_2,7,10,-1,-1,0.521,0.104861111,-0.417361111,1,0,0,1.7571,Peridotite_rect,7,1.757,1,8,0,8,0,1,,,,,,,,,,,,,
5685850c333cbd000d4e042f,TCR,2024-06-20_16h27.07.596,LearnStrategy,2023.2.3,Win32,161.2903226,7,1,10,0,-0.002083333,1,0,0,0.7566,rock_grid_rect_2,4,14,-1,-1,0.757,0.096527778,-0.248611111,1,0,0,2.3132,Diorite_rect,3,2.313,0,9,0,9,0,1,,,,,,,,,,,,,
5685850c333cbd000d4e042f,TCR,2024-06-20_16h27.07.596,LearnStrategy,2023.2.3,Win32,161.2903226,7,1,11,0.023611111,-0.010416667,1,0,0,0.5021,rock_grid_rect_2,3,10,-1,-1,0.502,0.070138889,-0.248611111,1,0,0,1.4592,Diorite_rect,3,1.459,1,10,0,10,0,1,,,,,,,,,,,,,
5685850c333cbd000d4e042f,TCR,2024-06-20_16h27.07.596,LearnStrategy,2023.2.3,Win32,161.2903226,7,1,12,0.020833333,-0.00625,1,0,0,0.811,rock_grid_rect_2,7,04,-1,-1,0.811,-0.095833333,-0.390277778,1,0,0,1.344,Pegmatite_rect,6,1.344,0,11,0,11,0,1,,,,,,,,,,,,,
5685850c333cbd000d4e042f,TCR,2024-06-20_16h27.07.596,LearnStrategy,2023.2.3,Win32,161.2903226,7,1,13,0.020833333,0.005555556,1,0,0,0.7516,rock_grid_rect_2,2,01,-1,-1,0.752,-0.109027778,-0.247222222,1,0,0,1.369,Basalt_rect,2,1.369,1,12,0,12,0,1,,,,,,,,,,,,,
5685850c333cbd000d4e042f,TCR,2024-06-20_16h27.07.596,LearnStrategy,2023.2.3,Win32,161.2903226,7,1,14,-0.01875,0.015277778,1,0,0,0.4973,rock_grid_rect_2,3,16,-1,-1,0.497,0.094444444,-0.253472222,1,0,0,2.9071,Diorite_rect,3,2.907,1,13,0,13,0,1,,,,,,,,,,,,,
5685850c333cbd000d4e042f,TCR,2024-06-20_16h27.07.596,LearnStrategy,2023.2.3,Win32,161.2903226,7,1,15,0.024305556,0.005555556,1,0,0,0.6419,rock_grid_rect_2,6,08,-1,-1,0.642,-0.1,-0.4,1,0,0,1.0345,Pegmatite_rect,6,1.034,1,14,0,14,0,1,,,,,,,,,,,,,
5685850c333cbd000d4e042f,TCR,2024-06-20_16h27.07.596,LearnStrategy,2023.2.3,Win32,161.2903226,7,1,16,0.023611111,-0.00625,1,0,0,0.5996,rock_grid_rect_2,3,06,-1,-1,0.6,0.128472222,-0.266666667,1,0,0,3.2124,Diorite_rect,3,3.212,1,15,0,15,0,1,,,,,,,,,,,,,
5685850c333cbd000d4e042f,TCR,2024-06-20_16h27.07.596,LearnStrategy,2023.2.3,Win32,161.2903226,7,2,1,,,,,,,,7,13,,,,,,,,,,,7,1.533,1,,,,,,0.104861111,-0.409722222,1,0,0,1.5326,Peridotite_rect,0,0,0,0,1,
5685850c333cbd000d4e042f,TCR,2024-06-20_16h27.07.596,LearnStrategy,2023.2.3,Win32,161.2903226,7,2,2,,,,,,,,1,14,,,,,,,,,,,1,5.728,1,,,,,,-0.367361111,-0.25,1,0,0,5.7279,Andesite_rect,1,0,1,0,1,
5685850c333cbd000d4e042f,TCR,2024-06-20_16h27.07.596,LearnStrategy,2023.2.3,Win32,161.2903226,7,2,3,,,,,,,,2,02,,,,,,,,,,,4,2.582,0,,,,,,0.344444444,-0.245833333,1,0,0,2.5821,Gabbro_rect,2,0,2,0,1,
5685850c333cbd000d4e042f,TCR,2024-06-20_16h27.07.596,LearnStrategy,2023.2.3,Win32,161.2903226,7,2,4,,,,,,,,5,06,,,,,,,,,,,5,1.072,1,,,,,,-0.372916667,-0.402083333,1,0,0,1.0724,Obsidian_rect,3,0,3,0,1,
5685850c333cbd000d4e042f,TCR,2024-06-20_16h27.07.596,LearnStrategy,2023.2.3,Win32,161.2903226,7,2,5,,,,,,,,8,15,,,,,,,,,,,8,1.345,1,,,,,,0.390972222,-0.404166667,1,0,0,1.3448,Pumice_rect,4,0,4,0,1,
5685850c333cbd000d4e042f,TCR,2024-06-20_16h27.07.596,LearnStrategy,2023.2.3,Win32,161.2903226,7,2,6,,,,,,,,4,10,,,,,,,,,,,4,3.006,1,,,,,,0.365972222,-0.249305556,1,0,0,3.0065,Gabbro_rect,5,0,5,0,1,
5685850c333cbd000d4e042f,TCR,2024-06-20_16h27.07.596,LearnStrategy,2023.2.3,Win32,161.2903226,7,2,7,,,,,,,,6,06,,,,,,,,,,,6,1.382,1,,,,,,-0.13125,-0.386111111,1,0,0,1.3815,Pegmatite_rect,6,0,6,0,1,
5685850c333cbd000d4e042f,TCR,2024-06-20_16h27.07.596,LearnStrategy,2023.2.3,Win32,161.2903226,7,2,8,,,,,,,,1,09,,,,,,,,,,,2,1.824,0,,,,,,-0.100694444,-0.265972222,1,0,0,1.8244,Basalt_rect,7,0,7,0,1,
5685850c333cbd000d4e042f,TCR,2024-06-20_16h27.07.596,LearnStrategy,2023.2.3,Win32,161.2903226,7,2,9,,,,,,,,3,07,,,,,,,,,,,3,3.091,1,,,,,,0.072916667,-0.260416667,1,0,0,3.0909,Diorite_rect,8,0,8,0,1,
5685850c333cbd000d4e042f,TCR,2024-06-20_16h27.07.596,LearnStrategy,2023.2.3,Win32,161.2903226,7,2,10,,,,,,,,6,12,,,,,,,,,,,6,1.334,1,,,,,,-0.113194444,-0.395833333,1,0,0,1.3337,Pegmatite_rect,9,0,9,0,1,
5685850c333cbd000d4e042f,TCR,2024-06-20_16h27.07.596,LearnStrategy,2023.2.3,Win32,161.2903226,7,2,11,,,,,,,,8,09,,,,,,,,,,,8,1.23,1,,,,,,0.335416667,-0.388194444,1,0,0,1.2296,Pumice_rect,10,0,10,0,1,
5685850c333cbd000d4e042f,TCR,2024-06-20_16h27.07.596,LearnStrategy,2023.2.3,Win32,161.2903226,7,2,12,,,,,,,,2,16,,,,,,,,,,,4,5.273,0,,,,,,0.384722222,-0.24375,1,0,0,5.2732,Gabbro_rect,11,0,11,0,1,
5685850c333cbd000d4e042f,TCR,2024-06-20_16h27.07.596,LearnStrategy,2023.2.3,Win32,161.2903226,7,2,13,,,,,,,,7,02,,,,,,,,,,,7,7.297,1,,,,,,0.083333333,-0.414583333,1,0,0,7.2974,Peridotite_rect,12,0,12,0,1,
5685850c333cbd000d4e042f,TCR,2024-06-20_16h27.07.596,LearnStrategy,2023.2.3,Win32,161.2903226,7,2,14,,,,,,,,3,15,,,,,,,,,,,3,2.528,1,,,,,,0.111805556,-0.238888889,1,0,0,2.5277,Diorite_rect,13,0,13,0,1,
5685850c333cbd000d4e042f,TCR,2024-06-20_16h27.07.596,LearnStrategy,2023.2.3,Win32,161.2903226,7,2,15,,,,,,,,4,15,,,,,,,,,,,3,1.303,0,,,,,,0.111111111,-0.240277778,1,0,0,1.303,Diorite_rect,14,0,14,0,1,
5685850c333cbd000d4e042f,TCR,2024-06-20_16h27.07.596,LearnStrategy,2023.2.3,Win32,161.2903226,7,2,16,,,,,,,,5,08,,,,,,,,,,,5,1.019,1,,,,,,-0.397222222,-0.395138889,1,0,0,1.0193,Obsidian_rect,15,0,15,0,1,
5685850c333cbd000d4e042f,TCR,2024-06-20_16h27.07.596,LearnStrategy,2023.2.3,Win32,161.2903226,8,1,1,0.020138889,-0.016666667,1,0,0,0.8057,rock_grid_rect_2,7,04,-1,-1,0.806,-0.103472222,-0.3875,1,0,0,1.1813,Pegmatite_rect,6,1.181,0,0,0,0,0,1,,,,,,,,,,,,,
5685850c333cbd000d4e042f,TCR,2024-06-20_16h27.07.596,LearnStrategy,2023.2.3,Win32,161.2903226,8,1,2,-0.009722222,-0.009027778,1,0,0,0.8423,rock_grid_rect_2,6,08,-1,-1,0.842,-0.081944444,-0.4,1,0,0,1.1266,Pegmatite_rect,6,1.127,1,1,0,1,0,1,,,,,,,,,,,,,
5685850c333cbd000d4e042f,TCR,2024-06-20_16h27.07.596,LearnStrategy,2023.2.3,Win32,161.2903226,8,1,3,-0.005555556,0.008333333,1,0,0,0.5517,rock_grid_rect_2,1,07,-1,-1,0.552,-0.497916667,-0.25625,1,0,0,4.0727,Andesite_rect,1,4.073,1,2,0,2,0,1,,,,,,,,,,,,,
5685850c333cbd000d4e042f,TCR,2024-06-20_16h27.07.596,LearnStrategy,2023.2.3,Win32,161.2903226,8,1,4,-0.01875,0.004861111,1,0,0,0.5263,rock_grid_rect_2,5,04,-1,-1,0.526,-0.339583333,-0.395833333,1,0,0,0.955,Obsidian_rect,5,0.955,1,3,0,3,0,1,,,,,,,,,,,,,
5685850c333cbd000d4e042f,TCR,2024-06-20_16h27.07.596,LearnStrategy,2023.2.3,Win32,161.2903226,8,1,5,-0.0125,0,1,0,0,0.7201,rock_grid_rect_2,2,12,-1,-1,0.72,-0.122916667,-0.236111111,1,0,0,3.0974,Basalt_rect,2,3.097,1,4,0,4,0,1,,,,,,,,,,,,,
5685850c333cbd000d4e042f,TCR,2024-06-20_16h27.07.596,LearnStrategy,2023.2.3,Win32,161.2903226,8,1,6,0.007638889,-0.009027778,1,0,0,0.744,rock_grid_rect_2,4,12,-1,-1,0.744,0.396527778,-0.263194444,1,0,0,0.994,Gabbro_rect,4,0.994,1,5,0,5,0,1,,,,,,,,,,,,,
5685850c333cbd000d4e042f,TCR,2024-06-20_16h27.07.596,LearnStrategy,2023.2.3,Win32,161.2903226,8,1,7,0.002777778,-0.022916667,1,0,0,0.6175,rock_grid_rect_2,2,12,-1,-1,0.618,-0.108333333,-0.263888889,1,0,0,0.9507,Basalt_rect,2,0.951,1,6,0,6,0,1,,,,,,,,,,,,,
5685850c333cbd000d4e042f,TCR,2024-06-20_16h27.07.596,LearnStrategy,2023.2.3,Win32,161.2903226,8,1,8,0.00625,-0.009722222,1,0,0,0.5143,rock_grid_rect_2,3,16,-1,-1,0.514,0.11875,-0.249305556,1,0,0,1.1325,Diorite_rect,3,1.133,1,7,0,7,0,1,,,,,,,,,,,,,
5685850c333cbd000d4e042f,TCR,2024-06-20_16h27.07.596,LearnStrategy,2023.2.3,Win32,161.2903226,8,1,9,-0.016666667,0.021527778,1,0,0,0.5145,rock_grid_rect_2,3,10,-1,-1,0.514,-0.317361111,-0.240972222,1,0,0,2.06,Andesite_rect,1,2.06,0,8,0,8,0,1,,,,,,,,,,,,,
5685850c333cbd000d4e042f,TCR,2024-06-20_16h27.07.596,LearnStrategy,2023.2.3,Win32,161.2903226,8,1,10,-0.0375,-0.009027778,1,0,0,0.5448,rock_grid_rect_2,4,14,-1,-1,0.545,-0.364583333,-0.238888889,1,0,0,1.4174,Andesite_rect,1,1.417,0,9,0,9,0,1,,,,,,,,,,,,,
5685850c333cbd000d4e042f,TCR,2024-06-20_16h27.07.596,LearnStrategy,2023.2.3,Win32,161.2903226,8,1,11,-0.004861111,-0.011111111,1,0,0,0.6782,rock_grid_rect_2,1,01,-1,-1,0.678,-0.096527778,-0.252777778,1,0,0,1.4539,Basalt_rect,2,1.454,0,10,0,10,0,1,,,,,,,,,,,,,
5685850c333cbd000d4e042f,TCR,2024-06-20_16h27.07.596,LearnStrategy,2023.2.3,Win32,161.2903226,8,1,12,-0.001388889,-0.009027778,1,0,0,0.6106,rock_grid_rect_2,7,08,-1,-1,0.611,0.101388889,-0.40625,1,0,0,3.6069,Peridotite_rect,7,3.607,1,11,0,11,0,1,,,,,,,,,,,,,
5685850c333cbd000d4e042f,TCR,2024-06-20_16h27.07.596,LearnStrategy,2023.2.3,Win32,161.2903226,8,1,13,0.0375,0.000694444,1,0,0,0.7862,rock_grid_rect_2,2,09,-1,-1,0.786,-0.09375,-0.252777778,1,0,0,3.8789,Basalt_rect,2,3.879,1,12,0,12,0,1,,,,,,,,,,,,,
5685850c333cbd000d4e042f,TCR,2024-06-20_16h27.07.596,LearnStrategy,2023.2.3,Win32,161.2903226,8,1,14,0.013888889,0.009027778,1,0,0,0.6596,rock_grid_rect_2,4,16,-1,-1,0.66,0.336805556,-0.246527778,1,0,0,1.2418,Gabbro_rect,4,1.242,1,13,0,13,0,1,,,,,,,,,,,,,
5685850c333cbd000d4e042f,TCR,2024-06-20_16h27.07.596,LearnStrategy,2023.2.3,Win32,161.2903226,8,1,15,0.022916667,0.004166667,1,0,0,0.7087,rock_grid_rect_2,1,06,-1,-1,0.709,0.109027778,-0.256944444,1,0,0,2.1275,Diorite_rect,3,2.128,0,14,0,14,0,1,,,,,,,,,,,,,
5685850c333cbd000d4e042f,TCR,2024-06-20_16h27.07.596,LearnStrategy,2023.2.3,Win32,161.2903226,8,1,16,-0.034722222,-0.015972222,1,0,0,0.5687,rock_grid_rect_2,2,04,-1,-1,0.569,0.365972222,-0.231944444,1,0,0,2.849,Gabbro_rect,4,2.849,0,15,0,15,0,1,,,,,,,,,,,,,
5685850c333cbd000d4e042f,TCR,2024-06-20_16h27.07.596,LearnStrategy,2023.2.3,Win32,161.2903226,8,2,1,,,,,,,,2,10,,,,,,,,,,,2,4.188,1,,,,,,-0.122222222,-0.246527778,1,0,0,4.1883,Basalt_rect,0,0,0,0,1,
5685850c333cbd000d4e042f,TCR,2024-06-20_16h27.07.596,LearnStrategy,2023.2.3,Win32,161.2903226,8,2,2,,,,,,,,3,09,,,,,,,,,,,3,3.813,1,,,,,,0.104861111,-0.25,1,0,0,3.8125,Diorite_rect,1,0,1,0,1,
5685850c333cbd000d4e042f,TCR,2024-06-20_16h27.07.596,LearnStrategy,2023.2.3,Win32,161.2903226,8,2,3,,,,,,,,5,11,,,,,,,,,,,5,1.036,1,,,,,,-0.399305556,-0.403472222,1,0,0,1.0357,Obsidian_rect,2,0,2,0,1,
5685850c333cbd000d4e042f,TCR,2024-06-20_16h27.07.596,LearnStrategy,2023.2.3,Win32,161.2903226,8,2,4,,,,,,,,5,12,,,,,,,,,,,5,0.745,1,,,,,,-0.399305556,-0.403472222,1,0,0,0.7446,Obsidian_rect,3,0,3,0,1,
5685850c333cbd000d4e042f,TCR,2024-06-20_16h27.07.596,LearnStrategy,2023.2.3,Win32,161.2903226,8,2,5,,,,,,,,1,02,,,,,,,,,,,1,2.625,1,,,,,,-0.371527778,-0.239583333,1,0,0,2.6248,Andesite_rect,4,0,4,0,1,
5685850c333cbd000d4e042f,TCR,2024-06-20_16h27.07.596,LearnStrategy,2023.2.3,Win32,161.2903226,8,2,6,,,,,,,,7,06,,,,,,,,,,,7,5.934,1,,,,,,0.125,-0.411805556,1,0,0,5.934,Peridotite_rect,5,0,5,0,1,
5685850c333cbd000d4e042f,TCR,2024-06-20_16h27.07.596,LearnStrategy,2023.2.3,Win32,161.2903226,8,2,7,,,,,,,,4,11,,,,,,,,,,,4,5.418,1,,,,,,0.361805556,-0.229166667,1,0,0,5.4183,Gabbro_rect,6,0,6,0,1,
5685850c333cbd000d4e042f,TCR,2024-06-20_16h27.07.596,LearnStrategy,2023.2.3,Win32,161.2903226,8,2,8,,,,,,,,8,02,,,,,,,,,,,8,1.006,1,,,,,,0.377777778,-0.402083333,1,0,0,1.0057,Pumice_rect,7,0,7,0,1,
5685850c333cbd000d4e042f,TCR,2024-06-20_16h27.07.596,LearnStrategy,2023.2.3,Win32,161.2903226,8,2,9,,,,,,,,7,14,,,,,,,,,,,3,3.952,0,,,,,,0.073611111,-0.241666667,1,0,0,3.9517,Diorite_rect,8,0,8,0,1,
5685850c333cbd000d4e042f,TCR,2024-06-20_16h27.07.596,LearnStrategy,2023.2.3,Win32,161.2903226,8,2,10,,,,,,,,4,09,,,,,,,,,,,4,2.6,1,,,,,,0.384722222,-0.249305556,1,0,0,2.6004,Gabbro_rect,9,0,9,0,1,
5685850c333cbd000d4e042f,TCR,2024-06-20_16h27.07.596,LearnStrategy,2023.2.3,Win32,161.2903226,8,2,11,,,,,,,,3,14,,,,,,,,,,,1,3.242,0,,,,,,-0.363194444,-0.25625,1,0,0,3.2423,Andesite_rect,10,0,10,0,1,
5685850c333cbd000d4e042f,TCR,2024-06-20_16h27.07.596,LearnStrategy,2023.2.3,Win32,161.2903226,8,2,12,,,,,,,,2,08,,,,,,,,,,,2,2.447,1,,,,,,-0.111111111,-0.25625,1,0,0,2.4468,Basalt_rect,11,0,11,0,1,
5685850c333cbd000d4e042f,TCR,2024-06-20_16h27.07.596,LearnStrategy,2023.2.3,Win32,161.2903226,8,2,13,,,,,,,,6,07,,,,,,,,,,,6,1.392,1,,,,,,-0.114583333,-0.409027778,1,0,0,1.392,Pegmatite_rect,12,0,12,0,1,
5685850c333cbd000d4e042f,TCR,2024-06-20_16h27.07.596,LearnStrategy,2023.2.3,Win32,161.2903226,8,2,14,,,,,,,,1,16,,,,,,,,,,,1,3.52,1,,,,,,-0.335416667,-0.245833333,1,0,0,3.5201,Andesite_rect,13,0,13,0,1,
5685850c333cbd000d4e042f,TCR,2024-06-20_16h27.07.596,LearnStrategy,2023.2.3,Win32,161.2903226,8,2,15,,,,,,,,6,03,,,,,,,,,,,6,1.355,1,,,,,,-0.128472222,-0.385416667,1,0,0,1.3555,Pegmatite_rect,14,0,14,0,1,
5685850c333cbd000d4e042f,TCR,2024-06-20_16h27.07.596,LearnStrategy,2023.2.3,Win32,161.2903226,8,2,16,,,,,,,,8,06,,,,,,,,,,,8,1.746,1,,,,,,0.440277778,-0.418055556,1,0,0,1.7457,Pumice_rect,15,0,15,0,1,
5685850c333cbd000d4e042f,TCR,2024-06-20_16h27.07.596,LearnStrategy,2023.2.3,Win32,161.2903226,9,1,1,-0.033333333,0,1,0,0,0.5265,rock_grid_rect_2,6,11,-1,-1,0.526,-0.093055556,-0.398611111,1,0,0,1.2483,Pegmatite_rect,6,1.248,1,0,0,0,0,1,,,,,,,,,,,,,
5685850c333cbd000d4e042f,TCR,2024-06-20_16h27.07.596,LearnStrategy,2023.2.3,Win32,161.2903226,9,1,2,-0.018055556,-0.01875,1,0,0,0.9764,rock_grid_rect_2,7,08,-1,-1,0.976,0.134722222,-0.402777778,1,0,0,3.236,Peridotite_rect,7,3.236,1,1,0,1,0,1,,,,,,,,,,,,,
5685850c333cbd000d4e042f,TCR,2024-06-20_16h27.07.596,LearnStrategy,2023.2.3,Win32,161.2903226,9,1,3,0.002083333,0.006944444,1,0,0,0.7024,rock_grid_rect_2,4,05,-1,-1,0.702,0.090277778,-0.249305556,1,0,0,2.0422,Diorite_rect,3,2.042,0,2,0,2,0,1,,,,,,,,,,,,,
5685850c333cbd000d4e042f,TCR,2024-06-20_16h27.07.596,LearnStrategy,2023.2.3,Win32,161.2903226,9,1,4,0.016666667,0.00625,1,0,0,0.533,rock_grid_rect_2,3,08,-1,-1,0.533,0.089583333,-0.388888889,1,0,0,3.3694,Peridotite_rect,7,3.369,0,3,0,3,0,1,,,,,,,,,,,,,
5685850c333cbd000d4e042f,TCR,2024-06-20_16h27.07.596,LearnStrategy,2023.2.3,Win32,161.2903226,9,1,5,-0.004166667,-0.011805556,1,0,0,0.7027,rock_grid_rect_2,2,14,-1,-1,0.703,-0.075694444,-0.263888889,1,0,0,4.3577,Basalt_rect,2,4.358,1,4,0,4,0,1,,,,,,,,,,,,,
5685850c333cbd000d4e042f,TCR,2024-06-20_16h27.07.596,LearnStrategy,2023.2.3,Win32,161.2903226,9,1,6,0.009027778,-0.008333333,1,0,0,1.1389,rock_grid_rect_2,5,07,-1,-1,1.139,-0.377777778,-0.382638889,1,0,0,1.0053,Obsidian_rect,5,1.005,1,5,0,5,0,1,,,,,,,,,,,,,
5685850c333cbd000d4e042f,TCR,2024-06-20_16h27.07.596,LearnStrategy,2023.2.3,Win32,161.2903226,9,1,7,-0.009722222,0.000694444,1,0,0,0.6359,rock_grid_rect_2,1,06,-1,-1,0.636,-0.39375,-0.238888889,1,0,0,1.4297,Andesite_rect,1,1.43,1,6,0,6,0,1,,,,,,,,,,,,,
5685850c333cbd000d4e042f,TCR,2024-06-20_16h27.07.596,LearnStrategy,2023.2.3,Win32,161.2903226,9,1,8,-0.01875,-0.025,1,0,0,0.642,rock_grid_rect_2,7,08,-1,-1,0.642,0.129166667,-0.252777778,1,0,0,2.4297,Diorite_rect,3,2.43,0,7,0,7,0,1,,,,,,,,,,,,,
5685850c333cbd000d4e042f,TCR,2024-06-20_16h27.07.596,LearnStrategy,2023.2.3,Win32,161.2903226,9,1,9,0.009027778,-0.013194444,1,0,0,0.6847,rock_grid_rect_2,2,06,-1,-1,0.685,-0.118055556,-0.250694444,1,0,0,4.0413,Basalt_rect,2,4.041,1,8,0,8,0,1,,,,,,,,,,,,,
5685850c333cbd000d4e042f,TCR,2024-06-20_16h27.07.596,LearnStrategy,2023.2.3,Win32,161.2903226,9,1,10,0.030555556,0.002083333,1,0,0,0.5384,rock_grid_rect_2,7,10,-1,-1,0.538,0.131944444,-0.410416667,1,0,0,2.6111,Peridotite_rect,7,2.611,1,9,0,9,0,1,,,,,,,,,,,,,
5685850c333cbd000d4e042f,TCR,2024-06-20_16h27.07.596,LearnStrategy,2023.2.3,Win32,161.2903226,9,1,11,-0.027083333,0.002777778,1,0,0,0.66,rock_grid_rect_2,1,11,-1,-1,0.66,0.152777778,-0.249305556,1,0,0,2.8543,Diorite_rect,3,2.854,0,10,0,10,0,1,,,,,,,,,,,,,
5685850c333cbd000d4e042f,TCR,2024-06-20_16h27.07.596,LearnStrategy,2023.2.3,Win32,161.2903226,9,1,12,0.005555556,-0.002083333,1,0,0,0.5992,rock_grid_rect_2,2,09,-1,-1,0.599,-0.09375,-0.252083333,1,0,0,2.0119,Basalt_rect,2,2.012,1,11,0,11,0,1,,,,,,,,,,,,,
5685850c333cbd000d4e042f,TCR,2024-06-20_16h27.07.596,LearnStrategy,2023.2.3,Win32,161.2903226,9,1,13,-0.004166667,-0.00625,1,0,0,0.6238,rock_grid_rect_2,3,13,-1,-1,0.624,0.097222222,-0.4,1,0,0,2.6906,Peridotite_rect,7,2.691,0,12,0,12,0,1,,,,,,,,,,,,,
5685850c333cbd000d4e042f,TCR,2024-06-20_16h27.07.596,LearnStrategy,2023.2.3,Win32,161.2903226,9,1,14,-0.002777778,0.002777778,1,0,0,0.5698,rock_grid_rect_2,3,12,-1,-1,0.57,-0.367361111,-0.252777778,1,0,0,1.4237,Andesite_rect,1,1.424,0,13,0,13,0,1,,,,,,,,,,,,,
5685850c333cbd000d4e042f,TCR,2024-06-20_16h27.07.596,LearnStrategy,2023.2.3,Win32,161.2903226,9,1,15,-0.010416667,0.001388889,1,0,0,0.5928,rock_grid_rect_2,1,10,-1,-1,0.593,0.366666667,-0.244444444,1,0,0,2.8666,Gabbro_rect,4,2.867,0,14,0,14,0,1,,,,,,,,,,,,,
5685850c333cbd000d4e042f,TCR,2024-06-20_16h27.07.596,LearnStrategy,2023.2.3,Win32,161.2903226,9,1,16,0.006944444,-0.004166667,1,0,0,0.6722,rock_grid_rect_2,4,01,-1,-1,0.672,0.085416667,-0.238888889,1,0,0,5.1832,Diorite_rect,3,5.183,0,15,0,15,0,1,,,,,,,,,,,,,
5685850c333cbd000d4e042f,TCR,2024-06-20_16h27.07.596,LearnStrategy,2023.2.3,Win32,161.2903226,9,2,1,,,,,,,,7,12,,,,,,,,,,,3,4.916,0,,,,,,0.118055556,-0.263888889,1,0,0,4.9163,Diorite_rect,0,0,0,0,1,
5685850c333cbd000d4e042f,TCR,2024-06-20_16h27.07.596,LearnStrategy,2023.2.3,Win32,161.2903226,9,2,2,,,,,,,,7,16,,,,,,,,,,,1,3.951,0,,,,,,-0.384027778,-0.231944444,1,0,0,3.9512,Andesite_rect,1,0,1,0,1,
5685850c333cbd000d4e042f,TCR,2024-06-20_16h27.07.596,LearnStrategy,2023.2.3,Win32,161.2903226,9,2,3,,,,,,,,8,16,,,,,,,,,,,8,1.277,1,,,,,,0.402083333,-0.388888889,1,0,0,1.2766,Pumice_rect,2,0,2,0,1,
5685850c333cbd000d4e042f,TCR,2024-06-20_16h27.07.596,LearnStrategy,2023.2.3,Win32,161.2903226,9,2,4,,,,,,,,1,03,,,,,,,,,,,3,6.613,0,,,,,,0.074305556,-0.253472222,1,0,0,6.6129,Diorite_rect,3,0,3,0,1,
5685850c333cbd000d4e042f,TCR,2024-06-20_16h27.07.596,LearnStrategy,2023.2.3,Win32,161.2903226,9,2,5,,,,,,,,2,05,,,,,,,,,,,2,3.139,1,,,,,,-0.119444444,-0.269444444,1,0,0,3.1393,Basalt_rect,4,0,4,0,1,
5685850c333cbd000d4e042f,TCR,2024-06-20_16h27.07.596,LearnStrategy,2023.2.3,Win32,161.2903226,9,2,6,,,,,,,,3,11,,,,,,,,,,,1,2.74,0,,,,,,-0.333333333,-0.25625,1,0,0,2.7399,Andesite_rect,5,0,5,0,1,
5685850c333cbd000d4e042f,TCR,2024-06-20_16h27.07.596,LearnStrategy,2023.2.3,Win32,161.2903226,9,2,7,,,,,,,,4,13,,,,,,,,,,,1,5.964,0,,,,,,-0.350694444,-0.24375,1,0,0,5.9644,Andesite_rect,6,0,6,0,1,
5685850c333cbd000d4e042f,TCR,2024-06-20_16h27.07.596,LearnStrategy,2023.2.3,Win32,161.2903226,9,2,8,,,,,,,,6,13,,,,,,,,,,,6,1.109,1,,,,,,-0.114583333,-0.400694444,1,0,0,1.1086,Pegmatite_rect,7,0,7,0,1,
5685850c333cbd000d4e042f,TCR,2024-06-20_16h27.07.596,LearnStrategy,2023.2.3,Win32,161.2903226,9,2,9,,,,,,,,8,10,,,,,,,,,,,8,2.224,1,,,,,,0.347222222,-0.403472222,1,0,0,2.2241,Pumice_rect,8,0,8,0,1,
5685850c333cbd000d4e042f,TCR,2024-06-20_16h27.07.596,LearnStrategy,2023.2.3,Win32,161.2903226,9,2,10,,,,,,,,4,03,,,,,,,,,,,4,1.423,1,,,,,,0.360416667,-0.238888889,1,0,0,1.4233,Gabbro_rect,9,0,9,0,1,
5685850c333cbd000d4e042f,TCR,2024-06-20_16h27.07.596,LearnStrategy,2023.2.3,Win32,161.2903226,9,2,11,,,,,,,,3,02,,,,,,,,,,,3,3.564,1,,,,,,0.169444444,-0.259722222,1,0,0,3.5639,Diorite_rect,10,0,10,0,1,
5685850c333cbd000d4e042f,TCR,2024-06-20_16h27.07.596,LearnStrategy,2023.2.3,Win32,161.2903226,9,2,12,,,,,,,,6,09,,,,,,,,,,,6,0.999,1,,,,,,-0.0875,-0.409722222,1,0,0,0.9994,Pegmatite_rect,11,0,11,0,1,
5685850c333cbd000d4e042f,TCR,2024-06-20_16h27.07.596,LearnStrategy,2023.2.3,Win32,161.2903226,9,2,13,,,,,,,,1,05,,,,,,,,,,,2,5.098,0,,,,,,-0.089583333,-0.253472222,1,0,0,5.0976,Basalt_rect,12,0,12,0,1,
5685850c333cbd000d4e042f,TCR,2024-06-20_16h27.07.596,LearnStrategy,2023.2.3,Win32,161.2903226,9,2,14,,,,,,,,2,11,,,,,,,,,,,4,5.308,0,,,,,,0.373611111,-0.270138889,1,0,0,5.3083,Gabbro_rect,13,0,13,0,1,
5685850c333cbd000d4e042f,TCR,2024-06-20_16h27.07.596,LearnStrategy,2023.2.3,Win32,161.2903226,9,2,15,,,,,,,,5,05,,,,,,,,,,,5,1.253,1,,,,,,-0.35,-0.403472222,1,0,0,1.2527,Obsidian_rect,14,0,14,0,1,
5685850c333cbd000d4e042f,TCR,2024-06-20_16h27.07.596,LearnStrategy,2023.2.3,Win32,161.2903226,9,2,16,,,,,,,,5,16,,,,,,,,,,,5,0.701,1,,,,,,-0.35,-0.403472222,1,0,0,0.701,Obsidian_rect,15,0,15,0,1,
5685850c333cbd000d4e042f,TCR,2024-06-20_16h27.07.596,LearnStrategy,2023.2.3,Win32,161.2903226,,,,,,,,,,,,,,,,,,,,,,,,,,,,,,,,,,,,,,,,,,,1
5685850c333cbd000d4e042f,TCR,2024-06-20_16h27.07.596,LearnStrategy,2023.2.3,Win32,161.2903226,,,,,,,,,,,,,,,,,,,,,,,,,,,,,,,,,,,,,,,,,,,
5685850c333cbd000d4e042f,TCR,2024-06-20_16h27.07.596,LearnStrategy,2023.2.3,Win32,161.2903226,,,,,,,,,,,6,10,1,1,,,,,,,,,,,,,,,,,,,,,,,,,,,,,
5685850c333cbd000d4e042f,TCR,2024-06-20_16h27.07.596,LearnStrategy,2023.2.3,Win32,161.2903226,,,,,,,,,,,7,04,1,2,,,,,,,,,,,,,,,,,,,,,,,,,,,,,
5685850c333cbd000d4e042f,TCR,2024-06-20_16h27.07.596,LearnStrategy,2023.2.3,Win32,161.2903226,,,,,,,,,,,1,10,1,3,,,,,,,,,,,,,,,,,,,,,,,,,,,,,
5685850c333cbd000d4e042f,TCR,2024-06-20_16h27.07.596,LearnStrategy,2023.2.3,Win32,161.2903226,,,,,,,,,,,7,15,1,4,,,,,,,,,,,,,,,,,,,,,,,,,,,,,
5685850c333cbd000d4e042f,TCR,2024-06-20_16h27.07.596,LearnStrategy,2023.2.3,Win32,161.2903226,,,,,,,,,,,2,01,1,5,,,,,,,,,,,,,,,,,,,,,,,,,,,,,
5685850c333cbd000d4e042f,TCR,2024-06-20_16h27.07.596,LearnStrategy,2023.2.3,Win32,161.2903226,,,,,,,,,,,8,03,1,6,,,,,,,,,,,,,,,,,,,,,,,,,,,,,
5685850c333cbd000d4e042f,TCR,2024-06-20_16h27.07.596,LearnStrategy,2023.2.3,Win32,161.2903226,,,,,,,,,,,4,05,1,7,,,,,,,,,,,,,,,,,,,,,,,,,,,,,
5685850c333cbd000d4e042f,TCR,2024-06-20_16h27.07.596,LearnStrategy,2023.2.3,Win32,161.2903226,,,,,,,,,,,2,04,1,8,,,,,,,,,,,,,,,,,,,,,,,,,,,,,
5685850c333cbd000d4e042f,TCR,2024-06-20_16h27.07.596,LearnStrategy,2023.2.3,Win32,161.2903226,,,,,,,,,,,4,08,2,1,,,,,,,,,,,,,,,,,,,,,,,,,,,,,
5685850c333cbd000d4e042f,TCR,2024-06-20_16h27.07.596,LearnStrategy,2023.2.3,Win32,161.2903226,,,,,,,,,,,6,16,2,2,,,,,,,,,,,,,,,,,,,,,,,,,,,,,
5685850c333cbd000d4e042f,TCR,2024-06-20_16h27.07.596,LearnStrategy,2023.2.3,Win32,161.2903226,,,,,,,,,,,4,01,2,3,,,,,,,,,,,,,,,,,,,,,,,,,,,,,
5685850c333cbd000d4e042f,TCR,2024-06-20_16h27.07.596,LearnStrategy,2023.2.3,Win32,161.2903226,,,,,,,,,,,8,05,2,4,,,,,,,,,,,,,,,,,,,,,,,,,,,,,
5685850c333cbd000d4e042f,TCR,2024-06-20_16h27.07.596,LearnStrategy,2023.2.3,Win32,161.2903226,,,,,,,,,,,1,04,2,5,,,,,,,,,,,,,,,,,,,,,,,,,,,,,
5685850c333cbd000d4e042f,TCR,2024-06-20_16h27.07.596,LearnStrategy,2023.2.3,Win32,161.2903226,,,,,,,,,,,6,05,2,6,,,,,,,,,,,,,,,,,,,,,,,,,,,,,
5685850c333cbd000d4e042f,TCR,2024-06-20_16h27.07.596,LearnStrategy,2023.2.3,Win32,161.2903226,,,,,,,,,,,1,01,2,7,,,,,,,,,,,,,,,,,,,,,,,,,,,,,
5685850c333cbd000d4e042f,TCR,2024-06-20_16h27.07.596,LearnStrategy,2023.2.3,Win32,161.2903226,,,,,,,,,,,8,04,2,8,,,,,,,,,,,,,,,,,,,,,,,,,,,,,
5685850c333cbd000d4e042f,TCR,2024-06-20_16h27.07.596,LearnStrategy,2023.2.3,Win32,161.2903226,,,,,,,,,,,6,11,3,1,,,,,,,,,,,,,,,,,,,,,,,,,,,,,
5685850c333cbd000d4e042f,TCR,2024-06-20_16h27.07.596,LearnStrategy,2023.2.3,Win32,161.2903226,,,,,,,,,,,1,06,3,2,,,,,,,,,,,,,,,,,,,,,,,,,,,,,
5685850c333cbd000d4e042f,TCR,2024-06-20_16h27.07.596,LearnStrategy,2023.2.3,Win32,161.2903226,,,,,,,,,,,3,12,3,3,,,,,,,,,,,,,,,,,,,,,,,,,,,,,
5685850c333cbd000d4e042f,TCR,2024-06-20_16h27.07.596,LearnStrategy,2023.2.3,Win32,161.2903226,,,,,,,,,,,6,15,3,4,,,,,,,,,,,,,,,,,,,,,,,,,,,,,
5685850c333cbd000d4e042f,TCR,2024-06-20_16h27.07.596,LearnStrategy,2023.2.3,Win32,161.2903226,,,,,,,,,,,8,08,3,5,,,,,,,,,,,,,,,,,,,,,,,,,,,,,
5685850c333cbd000d4e042f,TCR,2024-06-20_16h27.07.596,LearnStrategy,2023.2.3,Win32,161.2903226,,,,,,,,,,,3,13,3,6,,,,,,,,,,,,,,,,,,,,,,,,,,,,,
5685850c333cbd000d4e042f,TCR,2024-06-20_16h27.07.596,LearnStrategy,2023.2.3,Win32,161.2903226,,,,,,,,,,,1,07,3,7,,,,,,,,,,,,,,,,,,,,,,,,,,,,,
5685850c333cbd000d4e042f,TCR,2024-06-20_16h27.07.596,LearnStrategy,2023.2.3,Win32,161.2903226,,,,,,,,,,,5,14,3,8,,,,,,,,,,,,,,,,,,,,,,,,,,,,,
5685850c333cbd000d4e042f,TCR,2024-06-20_16h27.07.596,LearnStrategy,2023.2.3,Win32,161.2903226,,,,,,,,,,,7,07,4,1,,,,,,,,,,,,,,,,,,,,,,,,,,,,,
5685850c333cbd000d4e042f,TCR,2024-06-20_16h27.07.596,LearnStrategy,2023.2.3,Win32,161.2903226,,,,,,,,,,,5,09,4,2,,,,,,,,,,,,,,,,,,,,,,,,,,,,,
5685850c333cbd000d4e042f,TCR,2024-06-20_16h27.07.596,LearnStrategy,2023.2.3,Win32,161.2903226,,,,,,,,,,,5,02,4,3,,,,,,,,,,,,,,,,,,,,,,,,,,,,,
5685850c333cbd000d4e042f,TCR,2024-06-20_16h27.07.596,LearnStrategy,2023.2.3,Win32,161.2903226,,,,,,,,,,,7,10,4,4,,,,,,,,,,,,,,,,,,,,,,,,,,,,,
5685850c333cbd000d4e042f,TCR,2024-06-20_16h27.07.596,LearnStrategy,2023.2.3,Win32,161.2903226,,,,,,,,,,,2,09,4,5,,,,,,,,,,,,,,,,,,,,,,,,,,,,,
5685850c333cbd000d4e042f,TCR,2024-06-20_16h27.07.596,LearnStrategy,2023.2.3,Win32,161.2903226,,,,,,,,,,,4,14,4,6,,,,,,,,,,,,,,,,,,,,,,,,,,,,,
5685850c333cbd000d4e042f,TCR,2024-06-20_16h27.07.596,LearnStrategy,2023.2.3,Win32,161.2903226,,,,,,,,,,,2,12,4,7,,,,,,,,,,,,,,,,,,,,,,,,,,,,,
5685850c333cbd000d4e042f,TCR,2024-06-20_16h27.07.596,LearnStrategy,2023.2.3,Win32,161.2903226,,,,,,,,,,,2,14,4,8,,,,,,,,,,,,,,,,,,,,,,,,,,,,,
5685850c333cbd000d4e042f,TCR,2024-06-20_16h27.07.596,LearnStrategy,2023.2.3,Win32,161.2903226,,,,,,,,,,,8,14,5,1,,,,,,,,,,,,,,,,,,,,,,,,,,,,,
5685850c333cbd000d4e042f,TCR,2024-06-20_16h27.07.596,LearnStrategy,2023.2.3,Win32,161.2903226,,,,,,,,,,,5,04,5,2,,,,,,,,,,,,,,,,,,,,,,,,,,,,,
5685850c333cbd000d4e042f,TCR,2024-06-20_16h27.07.596,LearnStrategy,2023.2.3,Win32,161.2903226,,,,,,,,,,,5,10,5,3,,,,,,,,,,,,,,,,,,,,,,,,,,,,,
5685850c333cbd000d4e042f,TCR,2024-06-20_16h27.07.596,LearnStrategy,2023.2.3,Win32,161.2903226,,,,,,,,,,,2,06,5,4,,,,,,,,,,,,,,,,,,,,,,,,,,,,,
5685850c333cbd000d4e042f,TCR,2024-06-20_16h27.07.596,LearnStrategy,2023.2.3,Win32,161.2903226,,,,,,,,,,,7,05,5,5,,,,,,,,,,,,,,,,,,,,,,,,,,,,,
5685850c333cbd000d4e042f,TCR,2024-06-20_16h27.07.596,LearnStrategy,2023.2.3,Win32,161.2903226,,,,,,,,,,,5,07,5,6,,,,,,,,,,,,,,,,,,,,,,,,,,,,,
5685850c333cbd000d4e042f,TCR,2024-06-20_16h27.07.596,LearnStrategy,2023.2.3,Win32,161.2903226,,,,,,,,,,,7,08,5,7,,,,,,,,,,,,,,,,,,,,,,,,,,,,,
5685850c333cbd000d4e042f,TCR,2024-06-20_16h27.07.596,LearnStrategy,2023.2.3,Win32,161.2903226,,,,,,,,,,,3,16,5,8,,,,,,,,,,,,,,,,,,,,,,,,,,,,,
5685850c333cbd000d4e042f,TCR,2024-06-20_16h27.07.596,LearnStrategy,2023.2.3,Win32,161.2903226,,,,,,,,,,,4,12,6,1,,,,,,,,,,,,,,,,,,,,,,,,,,,,,
5685850c333cbd000d4e042f,TCR,2024-06-20_16h27.07.596,LearnStrategy,2023.2.3,Win32,161.2903226,,,,,,,,,,,1,11,6,2,,,,,,,,,,,,,,,,,,,,,,,,,,,,,
5685850c333cbd000d4e042f,TCR,2024-06-20_16h27.07.596,LearnStrategy,2023.2.3,Win32,161.2903226,,,,,,,,,,,6,08,6,3,,,,,,,,,,,,,,,,,,,,,,,,,,,,,
5685850c333cbd000d4e042f,TCR,2024-06-20_16h27.07.596,LearnStrategy,2023.2.3,Win32,161.2903226,,,,,,,,,,,8,13,6,4,,,,,,,,,,,,,,,,,,,,,,,,,,,,,
5685850c333cbd000d4e042f,TCR,2024-06-20_16h27.07.596,LearnStrategy,2023.2.3,Win32,161.2903226,,,,,,,,,,,4,16,6,5,,,,,,,,,,,,,,,,,,,,,,,,,,,,,
5685850c333cbd000d4e042f,TCR,2024-06-20_16h27.07.596,LearnStrategy,2023.2.3,Win32,161.2903226,,,,,,,,,,,3,06,6,6,,,,,,,,,,,,,,,,,,,,,,,,,,,,,
5685850c333cbd000d4e042f,TCR,2024-06-20_16h27.07.596,LearnStrategy,2023.2.3,Win32,161.2903226,,,,,,,,,,,3,10,6,7,,,,,,,,,,,,,,,,,,,,,,,,,,,,,
5685850c333cbd000d4e042f,TCR,2024-06-20_16h27.07.596,LearnStrategy,2023.2.3,Win32,161.2903226,,,,,,,,,,,3,08,6,8,,,,,,,,,,,,,,,,,,,,,,,,,,,,,