participant,condition,date,expName,psychopyVersion,OS,frameRate,block,phase,trial,learn_mouse.x,learn_mouse.y,learn_mouse.leftButton,learn_mouse.midButton,learn_mouse.rightButton,learn_mouse.time,learn_mouse.clicked_name,cat,token,row,col,t_select,cat_mouse_l.x,cat_mouse_l.y,cat_mouse_l.leftButton,cat_mouse_l.midButton,cat_mouse_l.rightButton,cat_mouse_l.time,cat_mouse_l.clicked_name,resp,t_resp,corr,train_trials.thisRepN,train_trials.thisTrialN,train_trials.thisN,train_trials.thisIndex,train_trials.ran,cat_mouse_t.x,cat_mouse_t.y,cat_mouse_t.leftButton,cat_mouse_t.midButton,cat_mouse_t.rightButton,cat_mouse_t.time,cat_mouse_t.clicked_name,test_trials.thisRepN,test_trials.thisTrialN,test_trials.thisN,test_trials.thisIndex,test_trials.ran,Bonus
57027c1f68c641000e0c8970,SCN,2024-06-25_12h40.21.567,LearnStrategy,2023.2.3,Win32,59.88023952,,,,,,,,,,,,,,,,,,,,,,,,,,,,,,,,,,,,,,,,,,,
57027c1f68c641000e0c8970,SCN,2024-06-25_12h40.21.567,LearnStrategy,2023.2.3,Win32,59.88023952,1,1,1,-0.223958333,0.079427083,1,0,0,2.2175,Pegmatite_15,6,15,4,3,2.217,-0.0859375,-0.244791667,1,0,0,2.5142,Basalt_rect,2,2.514,0,0,0,0,0,1,,,,,,,,,,,,,
57027c1f68c641000e0c8970,SCN,2024-06-25_12h40.21.567,LearnStrategy,2023.2.3,Win32,59.88023952,1,1,2,0.223958333,0.092447917,1,0,0,1.8603,Pegmatite_10,6,10,4,6,1.86,-0.095052083,-0.40234375,1,0,0,2.5837,Pegmatite_rect,6,2.584,1,1,0,1,0,1,,,,,,,,,,,,,
57027c1f68c641000e0c8970,SCN,2024-06-25_12h40.21.567,LearnStrategy,2023.2.3,Win32,59.88023952,1,1,3,-0.05078125,0.088541667,1,0,0,2.4091,Peridotite_07,7,07,4,4,2.409,-0.118489583,-0.240885417,1,0,0,1.5509,Basalt_rect,2,1.551,0,2,0,2,0,1,,,,,,,,,,,,,
57027c1f68c641000e0c8970,SCN,2024-06-25_12h40.21.567,LearnStrategy,2023.2.3,Win32,59.88023952,1,1,4,0.244791667,-0.10546875,1,0,0,1.3621,Andesite_05,1,05,3,6,1.362,0.135416667,-0.408854167,1,0,0,1.3547,Peridotite_rect,7,1.355,0,3,0,3,0,1,,,,,,,,,,,,,
57027c1f68c641000e0c8970,SCN,2024-06-25_12h40.21.567,LearnStrategy,2023.2.3,Win32,59.88023952,1,1,5,-0.3671875,-0.098958333,1,0,0,2.6458,Gabbro_01,4,01,3,2,2.646,-0.33984375,-0.240885417,1,0,0,3.5733,Andesite_rect,1,3.573,0,4,0,4,0,1,,,,,,,,,,,,,
57027c1f68c641000e0c8970,SCN,2024-06-25_12h40.21.567,LearnStrategy,2023.2.3,Win32,59.88023952,1,1,6,0.239583333,0.408854167,1,0,0,2.1284,Pumice_02,8,02,6,6,2.128,0.467447917,-0.404947917,1,0,0,3.7586,Pumice_rect,8,3.759,1,5,0,5,0,1,,,,,,,,,,,,,
57027c1f68c641000e0c8970,SCN,2024-06-25_12h40.21.567,LearnStrategy,2023.2.3,Win32,59.88023952,1,1,7,0.3984375,-0.278645833,1,0,0,2.1287,Pumice_15,8,15,2,7,2.129,0.39453125,-0.39453125,1,0,0,1.6536,Pumice_rect,8,1.654,1,6,0,6,0,1,,,,,,,,,,,,,
57027c1f68c641000e0c8970,SCN,2024-06-25_12h40.21.567,LearnStrategy,2023.2.3,Win32,59.88023952,1,1,8,-0.23046875,-0.278645833,1,0,0,1.7452,Andesite_16,1,16,2,3,1.745,-0.13671875,-0.390625,1,0,0,3.5931,Pegmatite_rect,6,3.593,0,7,0,7,0,1,,,,,,,,,,,,,
57027c1f68c641000e0c8970,SCN,2024-06-25_12h40.21.567,LearnStrategy,2023.2.3,Win32,59.88023952,1,1,9,-0.415364583,-0.3828125,1,0,0,1.8289,Diorite_02,3,02,1,2,1.829,-0.348958333,-0.240885417,1,0,0,1.1162,Andesite_rect,1,1.116,0,8,0,8,0,1,,,,,,,,,,,,,
57027c1f68c641000e0c8970,SCN,2024-06-25_12h40.21.567,LearnStrategy,2023.2.3,Win32,59.88023952,1,1,10,-0.41796875,0.40234375,1,0,0,1.3448,Andesite_01,1,01,6,2,1.345,-0.16796875,-0.390625,1,0,0,1.6961,Pegmatite_rect,6,1.696,0,9,0,9,0,1,,,,,,,,,,,,,
57027c1f68c641000e0c8970,SCN,2024-06-25_12h40.21.567,LearnStrategy,2023.2.3,Win32,59.88023952,1,1,11,-0.223958333,0.4296875,1,0,0,1.1149,Gabbro_09,4,09,6,3,1.115,-0.34375,-0.239583333,1,0,0,1.8504,Andesite_rect,1,1.85,0,10,0,10,0,1,,,,,,,,,,,,,
57027c1f68c641000e0c8970,SCN,2024-06-25_12h40.21.567,LearnStrategy,2023.2.3,Win32,59.88023952,1,1,12,-0.057291667,0.395833333,1,0,0,1.3325,Basalt_02,2,02,6,4,1.332,-0.31640625,-0.415364583,1,0,0,2.2642,Obsidian_rect,5,2.264,0,11,0,11,0,1,,,,,,,,,,,,,
57027c1f68c641000e0c8970,SCN,2024-06-25_12h40.21.567,LearnStrategy,2023.2.3,Win32,59.88023952,1,1,13,0.049479167,0.419270833,1,0,0,1.0304,Peridotite_06,7,06,6,5,1.03,0.118489583,-0.41796875,1,0,0,7.4298,Peridotite_rect,7,7.43,1,12,0,12,0,1,,,,,,,,,,,,,
57027c1f68c641000e0c8970,SCN,2024-06-25_12h40.21.567,LearnStrategy,2023.2.3,Win32,59.88023952,1,1,14,0.239583333,0.395833333,1,0,0,1.1442,Pumice_02,8,02,6,6,1.144,0.428385417,-0.407552083,1,0,0,1.7822,Pumice_rect,8,1.782,1,13,0,13,0,1,,,,,,,,,,,,,
57027c1f68c641000e0c8970,SCN,2024-06-25_12h40.21.567,LearnStrategy,2023.2.3,Win32,59.88023952,1,1,15,0.389322917,0.40625,1,0,0,1.0288,Obsidian_11,5,11,6,7,1.029,-0.401041667,-0.399739583,1,0,0,2.0646,Obsidian_rect,5,2.065,1,14,0,14,0,1,,,,,,,,,,,,,
57027c1f68c641000e0c8970,SCN,2024-06-25_12h40.21.567,LearnStrategy,2023.2.3,Win32,59.88023952,1,1,16,0.5390625,0.4296875,1,0,0,1.1799,Andesite_04,1,04,6,8,1.18,-0.10546875,-0.389322917,1,0,0,2.0331,Pegmatite_rect,6,2.033,0,15,0,15,0,1,,,,,,,,,,,,,
57027c1f68c641000e0c8970,SCN,2024-06-25_12h40.21.567,LearnStrategy,2023.2.3,Win32,59.88023952,1,2,1,,,,,,,,5,04,,,,,,,,,,,5,1.718,1,,,,,,-0.368489583,-0.385416667,1,0,0,1.7182,Obsidian_rect,0,0,0,0,1,
57027c1f68c641000e0c8970,SCN,2024-06-25_12h40.21.567,LearnStrategy,2023.2.3,Win32,59.88023952,1,2,2,,,,,,,,2,01,,,,,,,,,,,4,5.67,0,,,,,,0.403645833,-0.24609375,1,0,0,5.6704,Gabbro_rect,1,0,1,0,1,
57027c1f68c641000e0c8970,SCN,2024-06-25_12h40.21.567,LearnStrategy,2023.2.3,Win32,59.88023952,1,2,3,,,,,,,,6,09,,,,,,,,,,,7,5.695,0,,,,,,0.11328125,-0.411458333,1,0,0,5.6952,Peridotite_rect,2,0,2,0,1,
57027c1f68c641000e0c8970,SCN,2024-06-25_12h40.21.567,LearnStrategy,2023.2.3,Win32,59.88023952,1,2,4,,,,,,,,3,14,,,,,,,,,,,6,2.089,0,,,,,,-0.087239583,-0.411458333,1,0,0,2.0886,Pegmatite_rect,3,0,3,0,1,
57027c1f68c641000e0c8970,SCN,2024-06-25_12h40.21.567,LearnStrategy,2023.2.3,Win32,59.88023952,1,2,5,,,,,,,,5,08,,,,,,,,,,,5,1.417,1,,,,,,-0.37109375,-0.399739583,1,0,0,1.4169,Obsidian_rect,4,0,4,0,1,
57027c1f68c641000e0c8970,SCN,2024-06-25_12h40.21.567,LearnStrategy,2023.2.3,Win32,59.88023952,1,2,6,,,,,,,,8,04,,,,,,,,,,,8,1.564,1,,,,,,0.38671875,-0.385416667,1,0,0,1.5636,Pumice_rect,5,0,5,0,1,
57027c1f68c641000e0c8970,SCN,2024-06-25_12h40.21.567,LearnStrategy,2023.2.3,Win32,59.88023952,1,2,7,,,,,,,,8,09,,,,,,,,,,,8,0.936,1,,,,,,0.38671875,-0.385416667,1,0,0,0.9356,Pumice_rect,6,0,6,0,1,
57027c1f68c641000e0c8970,SCN,2024-06-25_12h40.21.567,LearnStrategy,2023.2.3,Win32,59.88023952,1,2,8,,,,,,,,2,12,,,,,,,,,,,3,5.064,0,,,,,,0.115885417,-0.248697917,1,0,0,5.0643,Diorite_rect,7,0,7,0,1,
57027c1f68c641000e0c8970,SCN,2024-06-25_12h40.21.567,LearnStrategy,2023.2.3,Win32,59.88023952,1,2,9,,,,,,,,7,02,,,,,,,,,,,1,1.73,0,,,,,,-0.373697917,-0.256510417,1,0,0,1.7305,Andesite_rect,8,0,8,0,1,
57027c1f68c641000e0c8970,SCN,2024-06-25_12h40.21.567,LearnStrategy,2023.2.3,Win32,59.88023952,1,2,10,,,,,,,,4,14,,,,,,,,,,,4,3.755,1,,,,,,0.360677083,-0.260416667,1,0,0,3.7547,Gabbro_rect,9,0,9,0,1,
57027c1f68c641000e0c8970,SCN,2024-06-25_12h40.21.567,LearnStrategy,2023.2.3,Win32,59.88023952,1,2,11,,,,,,,,3,11,,,,,,,,,,,1,1.949,0,,,,,,-0.380208333,-0.233072917,1,0,0,1.9486,Andesite_rect,10,0,10,0,1,
57027c1f68c641000e0c8970,SCN,2024-06-25_12h40.21.567,LearnStrategy,2023.2.3,Win32,59.88023952,1,2,12,,,,,,,,1,11,,,,,,,,,,,2,1.4,0,,,,,,-0.157552083,-0.264322917,1,0,0,1.3998,Basalt_rect,11,0,11,0,1,
57027c1f68c641000e0c8970,SCN,2024-06-25_12h40.21.567,LearnStrategy,2023.2.3,Win32,59.88023952,1,2,13,,,,,,,,6,12,,,,,,,,,,,1,2.001,0,,,,,,-0.329427083,-0.236979167,1,0,0,2.0006,Andesite_rect,12,0,12,0,1,
57027c1f68c641000e0c8970,SCN,2024-06-25_12h40.21.567,LearnStrategy,2023.2.3,Win32,59.88023952,1,2,14,,,,,,,,1,09,,,,,,,,,,,2,1.06,0,,,,,,-0.139322917,-0.25390625,1,0,0,1.0603,Basalt_rect,13,0,13,0,1,
57027c1f68c641000e0c8970,SCN,2024-06-25_12h40.21.567,LearnStrategy,2023.2.3,Win32,59.88023952,1,2,15,,,,,,,,7,15,,,,,,,,,,,7,3.45,1,,,,,,0.075520833,-0.401041667,1,0,0,3.4497,Peridotite_rect,14,0,14,0,1,
57027c1f68c641000e0c8970,SCN,2024-06-25_12h40.21.567,LearnStrategy,2023.2.3,Win32,59.88023952,1,2,16,,,,,,,,4,05,,,,,,,,,,,4,2.265,1,,,,,,0.41015625,-0.239583333,1,0,0,2.2648,Gabbro_rect,15,0,15,0,1,
57027c1f68c641000e0c8970,SCN,2024-06-25_12h40.21.567,LearnStrategy,2023.2.3,Win32,59.88023952,2,1,1,-0.516927083,0.416666667,1,0,0,1.5442,Peridotite_08,7,08,6,1,1.544,-0.365885417,-0.234375,1,0,0,2.2652,Andesite_rect,1,2.265,0,0,0,0,0,1,,,,,,,,,,,,,
57027c1f68c641000e0c8970,SCN,2024-06-25_12h40.21.567,LearnStrategy,2023.2.3,Win32,59.88023952,2,1,2,-0.380208333,0.395833333,1,0,0,1.4923,Andesite_01,1,01,6,2,1.492,-0.43359375,-0.240885417,1,0,0,1.2085,Andesite_rect,1,1.208,1,1,0,1,0,1,,,,,,,,,,,,,
57027c1f68c641000e0c8970,SCN,2024-06-25_12h40.21.567,LearnStrategy,2023.2.3,Win32,59.88023952,2,1,3,-0.212239583,0.420572917,1,0,0,2.544,Gabbro_09,4,09,6,3,2.544,-0.08984375,-0.240885417,1,0,0,1.1557,Basalt_rect,2,1.156,0,2,0,2,0,1,,,,,,,,,,,,,
57027c1f68c641000e0c8970,SCN,2024-06-25_12h40.21.567,LearnStrategy,2023.2.3,Win32,59.88023952,2,1,4,-0.51953125,-0.09375,1,0,0,1.447,Obsidian_06,5,06,3,1,1.447,-0.209635417,-0.39453125,1,0,0,4.2518,Pegmatite_rect,6,4.252,0,3,0,3,0,1,,,,,,,,,,,,,
57027c1f68c641000e0c8970,SCN,2024-06-25_12h40.21.567,LearnStrategy,2023.2.3,Win32,59.88023952,2,1,5,-0.401041667,-0.110677083,1,0,0,1.0604,Gabbro_01,4,01,3,2,1.06,-0.361979167,-0.235677083,1,0,0,1.9716,Andesite_rect,1,1.972,0,4,0,4,0,1,,,,,,,,,,,,,
57027c1f68c641000e0c8970,SCN,2024-06-25_12h40.21.567,LearnStrategy,2023.2.3,Win32,59.88023952,2,1,6,-0.225260417,-0.115885417,1,0,0,0.9658,Basalt_11,2,11,3,3,0.966,-0.14453125,-0.255208333,1,0,0,0.9929,Basalt_rect,2,0.993,1,5,0,5,0,1,,,,,,,,,,,,,
57027c1f68c641000e0c8970,SCN,2024-06-25_12h40.21.567,LearnStrategy,2023.2.3,Win32,59.88023952,2,1,7,-0.080729167,-0.111979167,1,0,0,1.0142,Gabbro_10,4,10,3,4,1.014,-0.364583333,-0.235677083,1,0,0,1.1841,Andesite_rect,1,1.184,0,6,0,6,0,1,,,,,,,,,,,,,
57027c1f68c641000e0c8970,SCN,2024-06-25_12h40.21.567,LearnStrategy,2023.2.3,Win32,59.88023952,2,1,8,0.091145833,-0.102864583,1,0,0,0.8333,Gabbro_15,4,15,3,5,0.833,0.03515625,-0.235677083,1,0,0,2.0849,Diorite_rect,3,2.085,0,7,0,7,0,1,,,,,,,,,,,,,
57027c1f68c641000e0c8970,SCN,2024-06-25_12h40.21.567,LearnStrategy,2023.2.3,Win32,59.88023952,2,1,9,0.244791667,-0.09375,1,0,0,0.964,Andesite_05,1,05,3,6,0.964,-0.404947917,-0.247395833,1,0,0,1.6863,Andesite_rect,1,1.686,1,8,0,8,0,1,,,,,,,,,,,,,
57027c1f68c641000e0c8970,SCN,2024-06-25_12h40.21.567,LearnStrategy,2023.2.3,Win32,59.88023952,2,1,10,0.395833333,-0.104166667,1,0,0,1.462,Obsidian_16,5,16,3,7,1.462,-0.41015625,-0.397135417,1,0,0,1.2457,Obsidian_rect,5,1.246,1,9,0,9,0,1,,,,,,,,,,,,,
57027c1f68c641000e0c8970,SCN,2024-06-25_12h40.21.567,LearnStrategy,2023.2.3,Win32,59.88023952,2,1,11,0.576822917,-0.11328125,1,0,0,1.0634,Basalt_06,2,06,3,8,1.063,0.352864583,-0.256510417,1,0,0,1.1991,Gabbro_rect,4,1.199,0,10,0,10,0,1,,,,,,,,,,,,,
57027c1f68c641000e0c8970,SCN,2024-06-25_12h40.21.567,LearnStrategy,2023.2.3,Win32,59.88023952,2,1,12,-0.575520833,-0.256510417,1,0,0,1.1626,Diorite_07,3,07,2,1,1.163,-0.078125,-0.412760417,1,0,0,1.3837,Pegmatite_rect,6,1.384,0,11,0,11,0,1,,,,,,,,,,,,,
57027c1f68c641000e0c8970,SCN,2024-06-25_12h40.21.567,LearnStrategy,2023.2.3,Win32,59.88023952,2,1,13,-0.087239583,-0.401041667,1,0,0,1.3314,Pegmatite_05,6,05,1,4,1.331,0.130208333,-0.240885417,1,0,0,1.2875,Diorite_rect,3,1.288,0,12,0,12,0,1,,,,,,,,,,,,,
57027c1f68c641000e0c8970,SCN,2024-06-25_12h40.21.567,LearnStrategy,2023.2.3,Win32,59.88023952,2,1,14,0.119791667,-0.442708333,1,0,0,1.113,Pegmatite_03,6,03,1,5,1.113,-0.102864583,-0.390625,1,0,0,1.4647,Pegmatite_rect,6,1.465,1,13,0,13,0,1,,,,,,,,,,,,,
57027c1f68c641000e0c8970,SCN,2024-06-25_12h40.21.567,LearnStrategy,2023.2.3,Win32,59.88023952,2,1,15,0.268229167,-0.421875,1,0,0,1.6307,Pumice_10,8,10,1,6,1.631,0.401041667,-0.391927083,1,0,0,0.9172,Pumice_rect,8,0.917,1,14,0,14,0,1,,,,,,,,,,,,,
57027c1f68c641000e0c8970,SCN,2024-06-25_12h40.21.567,LearnStrategy,2023.2.3,Win32,59.88023952,2,1,16,-0.544270833,-0.421875,1,0,0,0.9124,Diorite_10,3,10,1,1,0.912,-0.114583333,-0.403645833,1,0,0,3.7163,Pegmatite_rect,6,3.716,0,15,0,15,0,1,,,,,,,,,,,,,
57027c1f68c641000e0c8970,SCN,2024-06-25_12h40.21.567,LearnStrategy,2023.2.3,Win32,59.88023952,2,2,1,,,,,,,,6,11,,,,,,,,,,,3,4.148,0,,,,,,0.15234375,-0.263020833,1,0,0,4.148,Diorite_rect,0,0,0,0,1,
57027c1f68c641000e0c8970,SCN,2024-06-25_12h40.21.567,LearnStrategy,2023.2.3,Win32,59.88023952,2,2,2,,,,,,,,2,09,,,,,,,,,,,2,1.554,1,,,,,,-0.106770833,-0.248697917,1,0,0,1.554,Basalt_rect,1,0,1,0,1,
57027c1f68c641000e0c8970,SCN,2024-06-25_12h40.21.567,LearnStrategy,2023.2.3,Win32,59.88023952,2,2,3,,,,,,,,5,09,,,,,,,,,,,5,1.283,1,,,,,,-0.37109375,-0.393229167,1,0,0,1.283,Obsidian_rect,2,0,2,0,1,
57027c1f68c641000e0c8970,SCN,2024-06-25_12h40.21.567,LearnStrategy,2023.2.3,Win32,59.88023952,2,2,4,,,,,,,,8,08,,,,,,,,,,,8,1.549,1,,,,,,0.412760417,-0.389322917,1,0,0,1.5489,Pumice_rect,3,0,3,0,1,
57027c1f68c641000e0c8970,SCN,2024-06-25_12h40.21.567,LearnStrategy,2023.2.3,Win32,59.88023952,2,2,5,,,,,,,,2,05,,,,,,,,,,,4,1.815,0,,,,,,0.342447917,-0.255208333,1,0,0,1.8148,Gabbro_rect,4,0,4,0,1,
57027c1f68c641000e0c8970,SCN,2024-06-25_12h40.21.567,LearnStrategy,2023.2.3,Win32,59.88023952,2,2,6,,,,,,,,3,08,,,,,,,,,,,1,4.081,0,,,,,,-0.3671875,-0.256510417,1,0,0,4.081,Andesite_rect,5,0,5,0,1,
57027c1f68c641000e0c8970,SCN,2024-06-25_12h40.21.567,LearnStrategy,2023.2.3,Win32,59.88023952,2,2,7,,,,,,,,1,07,,,,,,,,,,,7,6.505,0,,,,,,0.126302083,-0.419270833,1,0,0,6.5047,Peridotite_rect,6,0,6,0,1,
57027c1f68c641000e0c8970,SCN,2024-06-25_12h40.21.567,LearnStrategy,2023.2.3,Win32,59.88023952,2,2,8,,,,,,,,5,07,,,,,,,,,,,5,1.067,1,,,,,,-0.395833333,-0.3984375,1,0,0,1.0674,Obsidian_rect,7,0,7,0,1,
57027c1f68c641000e0c8970,SCN,2024-06-25_12h40.21.567,LearnStrategy,2023.2.3,Win32,59.88023952,2,2,9,,,,,,,,7,10,,,,,,,,,,,1,1.934,0,,,,,,-0.365885417,-0.25390625,1,0,0,1.934,Andesite_rect,8,0,8,0,1,
57027c1f68c641000e0c8970,SCN,2024-06-25_12h40.21.567,LearnStrategy,2023.2.3,Win32,59.88023952,2,2,10,,,,,,,,1,03,,,,,,,,,,,3,6.443,0,,,,,,0.126302083,-0.25390625,1,0,0,6.443,Diorite_rect,9,0,9,0,1,
57027c1f68c641000e0c8970,SCN,2024-06-25_12h40.21.567,LearnStrategy,2023.2.3,Win32,59.88023952,2,2,11,,,,,,,,6,16,,,,,,,,,,,1,2.222,0,,,,,,-0.303385417,-0.244791667,1,0,0,2.2217,Andesite_rect,10,0,10,0,1,
57027c1f68c641000e0c8970,SCN,2024-06-25_12h40.21.567,LearnStrategy,2023.2.3,Win32,59.88023952,2,2,12,,,,,,,,4,03,,,,,,,,,,,7,19.698,0,,,,,,0.141927083,-0.39453125,1,0,0,19.698,Peridotite_rect,11,0,11,0,1,
57027c1f68c641000e0c8970,SCN,2024-06-25_12h40.21.567,LearnStrategy,2023.2.3,Win32,59.88023952,2,2,13,,,,,,,,3,13,,,,,,,,,,,6,1.37,0,,,,,,-0.08984375,-0.397135417,1,0,0,1.3699,Pegmatite_rect,12,0,12,0,1,
57027c1f68c641000e0c8970,SCN,2024-06-25_12h40.21.567,LearnStrategy,2023.2.3,Win32,59.88023952,2,2,14,,,,,,,,4,13,,,,,,,,,,,1,1.735,0,,,,,,-0.37109375,-0.236979167,1,0,0,1.7351,Andesite_rect,13,0,13,0,1,
57027c1f68c641000e0c8970,SCN,2024-06-25_12h40.21.567,LearnStrategy,2023.2.3,Win32,59.88023952,2,2,15,,,,,,,,8,06,,,,,,,,,,,8,1.202,1,,,,,,0.401041667,-0.416666667,1,0,0,1.2022,Pumice_rect,14,0,14,0,1,
57027c1f68c641000e0c8970,SCN,2024-06-25_12h40.21.567,LearnStrategy,2023.2.3,Win32,59.88023952,2,2,16,,,,,,,,7,14,,,,,,,,,,,3,1.259,0,,,,,,0.149739583,-0.2421875,1,0,0,1.2588,Diorite_rect,15,0,15,0,1,
57027c1f68c641000e0c8970,SCN,2024-06-25_12h40.21.567,LearnStrategy,2023.2.3,Win32,59.88023952,3,1,1,-0.575520833,0.397135417,1,0,0,1.4622,Peridotite_08,7,08,6,1,1.462,-0.178385417,-0.393229167,1,0,0,2.6536,Pegmatite_rect,6,2.654,0,0,0,0,0,1,,,,,,,,,,,,,
57027c1f68c641000e0c8970,SCN,2024-06-25_12h40.21.567,LearnStrategy,2023.2.3,Win32,59.88023952,3,1,2,-0.57421875,0.240885417,1,0,0,1.7301,Diorite_15,3,15,5,1,1.73,0.083333333,-0.419270833,1,0,0,2.1868,Peridotite_rect,7,2.187,0,1,0,1,0,1,,,,,,,,,,,,,
57027c1f68c641000e0c8970,SCN,2024-06-25_12h40.21.567,LearnStrategy,2023.2.3,Win32,59.88023952,3,1,3,-0.5546875,0.075520833,1,0,0,1.0163,Basalt_10,2,10,4,1,1.016,0.388020833,-0.236979167,1,0,0,1.4505,Gabbro_rect,4,1.45,0,2,0,2,0,1,,,,,,,,,,,,,
57027c1f68c641000e0c8970,SCN,2024-06-25_12h40.21.567,LearnStrategy,2023.2.3,Win32,59.88023952,3,1,4,-0.524739583,-0.243489583,1,0,0,1.3799,Diorite_07,3,07,2,1,1.38,-0.401041667,-0.256510417,1,0,0,1.8363,Andesite_rect,1,1.836,0,3,0,3,0,1,,,,,,,,,,,,,
57027c1f68c641000e0c8970,SCN,2024-06-25_12h40.21.567,LearnStrategy,2023.2.3,Win32,59.88023952,3,1,5,-0.55078125,-0.23046875,1,0,0,1.0633,Diorite_07,3,07,2,1,1.063,0.130208333,-0.248697917,1,0,0,1.5325,Diorite_rect,3,1.532,1,4,0,4,0,1,,,,,,,,,,,,,
57027c1f68c641000e0c8970,SCN,2024-06-25_12h40.21.567,LearnStrategy,2023.2.3,Win32,59.88023952,3,1,6,-0.576822917,-0.391927083,1,0,0,1.2104,Diorite_10,3,10,1,1,1.21,0.145833333,-0.231770833,1,0,0,1.5929,Diorite_rect,3,1.593,1,5,0,5,0,1,,,,,,,,,,,,,
57027c1f68c641000e0c8970,SCN,2024-06-25_12h40.21.567,LearnStrategy,2023.2.3,Win32,59.88023952,3,1,7,-0.397135417,-0.1171875,1,0,0,0.9111,Gabbro_01,4,01,3,2,0.911,-0.31640625,-0.234375,1,0,0,2.5728,Andesite_rect,1,2.573,0,6,0,6,0,1,,,,,,,,,,,,,
57027c1f68c641000e0c8970,SCN,2024-06-25_12h40.21.567,LearnStrategy,2023.2.3,Win32,59.88023952,3,1,8,-0.108072917,-0.12109375,1,0,0,1.2295,Gabbro_10,4,10,3,4,1.23,0.424479167,-0.251302083,1,0,0,1.6539,Gabbro_rect,4,1.654,1,7,0,7,0,1,,,,,,,,,,,,,
57027c1f68c641000e0c8970,SCN,2024-06-25_12h40.21.567,LearnStrategy,2023.2.3,Win32,59.88023952,3,1,9,0.083333333,-0.25390625,1,0,0,1.0678,Andesite_14,1,14,2,5,1.068,0.143229167,-0.3828125,1,0,0,3.4391,Peridotite_rect,7,3.439,0,8,0,8,0,1,,,,,,,,,,,,,
57027c1f68c641000e0c8970,SCN,2024-06-25_12h40.21.567,LearnStrategy,2023.2.3,Win32,59.88023952,3,1,10,-0.083333333,-0.401041667,1,0,0,1.2464,Pegmatite_05,6,05,1,4,1.246,-0.325520833,-0.2421875,1,0,0,1.85,Andesite_rect,1,1.85,0,9,0,9,0,1,,,,,,,,,,,,,
57027c1f68c641000e0c8970,SCN,2024-06-25_12h40.21.567,LearnStrategy,2023.2.3,Win32,59.88023952,3,1,11,0.520833333,-0.416666667,1,0,0,0.995,Gabbro_16,4,16,1,8,0.995,0.440104167,-0.229166667,1,0,0,1.638,Gabbro_rect,4,1.638,1,10,0,10,0,1,,,,,,,,,,,,,
57027c1f68c641000e0c8970,SCN,2024-06-25_12h40.21.567,LearnStrategy,2023.2.3,Win32,59.88023952,3,1,12,0.548177083,-0.10546875,1,0,0,0.8438,Basalt_06,2,06,3,8,0.844,-0.102864583,-0.265625,1,0,0,1.2413,Basalt_rect,2,1.241,1,11,0,11,0,1,,,,,,,,,,,,,
57027c1f68c641000e0c8970,SCN,2024-06-25_12h40.21.567,LearnStrategy,2023.2.3,Win32,59.88023952,3,1,13,0.2421875,-0.096354167,1,0,0,0.8442,Andesite_05,1,05,3,6,0.844,0.09375,-0.243489583,1,0,0,2.4216,Diorite_rect,3,2.422,0,12,0,12,0,1,,,,,,,,,,,,,
57027c1f68c641000e0c8970,SCN,2024-06-25_12h40.21.567,LearnStrategy,2023.2.3,Win32,59.88023952,3,1,14,-0.075520833,-0.248697917,1,0,0,1.3621,Diorite_06,3,06,2,4,1.362,-0.35546875,-0.26171875,1,0,0,1.3361,Andesite_rect,1,1.336,0,13,0,13,0,1,,,,,,,,,,,,,
57027c1f68c641000e0c8970,SCN,2024-06-25_12h40.21.567,LearnStrategy,2023.2.3,Win32,59.88023952,3,1,15,-0.091145833,-0.434895833,1,0,0,1.0292,Pegmatite_05,6,05,1,4,1.029,-0.352864583,-0.24609375,1,0,0,1.7358,Andesite_rect,1,1.736,0,14,0,14,0,1,,,,,,,,,,,,,
57027c1f68c641000e0c8970,SCN,2024-06-25_12h40.21.567,LearnStrategy,2023.2.3,Win32,59.88023952,3,1,16,0.274739583,0.083333333,1,0,0,1.3653,Pegmatite_10,6,10,4,6,1.365,-0.0859375,-0.397135417,1,0,0,1.8192,Pegmatite_rect,6,1.819,1,15,0,15,0,1,,,,,,,,,,,,,
57027c1f68c641000e0c8970,SCN,2024-06-25_12h40.21.567,LearnStrategy,2023.2.3,Win32,59.88023952,3,2,1,,,,,,,,3,09,,,,,,,,,,,3,6.052,1,,,,,,0.063802083,-0.239583333,1,0,0,6.0523,Diorite_rect,0,0,0,0,1,
57027c1f68c641000e0c8970,SCN,2024-06-25_12h40.21.567,LearnStrategy,2023.2.3,Win32,59.88023952,3,2,2,,,,,,,,6,08,,,,,,,,,,,3,4.321,0,,,,,,0.161458333,-0.25,1,0,0,4.3213,Diorite_rect,1,0,1,0,1,
57027c1f68c641000e0c8970,SCN,2024-06-25_12h40.21.567,LearnStrategy,2023.2.3,Win32,59.88023952,3,2,3,,,,,,,,5,14,,,,,,,,,,,5,0.999,1,,,,,,-0.463541667,-0.415364583,1,0,0,0.9986,Obsidian_rect,2,0,2,0,1,
57027c1f68c641000e0c8970,SCN,2024-06-25_12h40.21.567,LearnStrategy,2023.2.3,Win32,59.88023952,3,2,4,,,,,,,,3,12,,,,,,,,,,,1,2.316,0,,,,,,-0.334635417,-0.252604167,1,0,0,2.3161,Andesite_rect,3,0,3,0,1,
57027c1f68c641000e0c8970,SCN,2024-06-25_12h40.21.567,LearnStrategy,2023.2.3,Win32,59.88023952,3,2,5,,,,,,,,1,10,,,,,,,,,,,4,5.653,0,,,,,,0.361979167,-0.248697917,1,0,0,5.6529,Gabbro_rect,4,0,4,0,1,
57027c1f68c641000e0c8970,SCN,2024-06-25_12h40.21.567,LearnStrategy,2023.2.3,Win32,59.88023952,3,2,6,,,,,,,,7,13,,,,,,,,,,,2,2.009,0,,,,,,-0.1328125,-0.260416667,1,0,0,2.0087,Basalt_rect,5,0,5,0,1,
57027c1f68c641000e0c8970,SCN,2024-06-25_12h40.21.567,LearnStrategy,2023.2.3,Win32,59.88023952,3,2,7,,,,,,,,6,07,,,,,,,,,,,3,2.746,0,,,,,,0.122395833,-0.23828125,1,0,0,2.7457,Diorite_rect,6,0,6,0,1,
57027c1f68c641000e0c8970,SCN,2024-06-25_12h40.21.567,LearnStrategy,2023.2.3,Win32,59.88023952,3,2,8,,,,,,,,5,12,,,,,,,,,,,5,1.084,1,,,,,,-0.428385417,-0.393229167,1,0,0,1.0843,Obsidian_rect,7,0,7,0,1,
57027c1f68c641000e0c8970,SCN,2024-06-25_12h40.21.567,LearnStrategy,2023.2.3,Win32,59.88023952,3,2,9,,,,,,,,4,08,,,,,,,,,,,2,4.384,0,,,,,,-0.08203125,-0.25,1,0,0,4.384,Basalt_rect,8,0,8,0,1,
57027c1f68c641000e0c8970,SCN,2024-06-25_12h40.21.567,LearnStrategy,2023.2.3,Win32,59.88023952,3,2,10,,,,,,,,8,03,,,,,,,,,,,8,1.509,1,,,,,,0.3828125,-0.388020833,1,0,0,1.5089,Pumice_rect,9,0,9,0,1,
57027c1f68c641000e0c8970,SCN,2024-06-25_12h40.21.567,LearnStrategy,2023.2.3,Win32,59.88023952,3,2,11,,,,,,,,2,16,,,,,,,,,,,4,3.074,0,,,,,,0.397135417,-0.251302083,1,0,0,3.0735,Gabbro_rect,10,0,10,0,1,
57027c1f68c641000e0c8970,SCN,2024-06-25_12h40.21.567,LearnStrategy,2023.2.3,Win32,59.88023952,3,2,12,,,,,,,,8,05,,,,,,,,,,,8,1.246,1,,,,,,0.450520833,-0.401041667,1,0,0,1.2457,Pumice_rect,11,0,11,0,1,
57027c1f68c641000e0c8970,SCN,2024-06-25_12h40.21.567,LearnStrategy,2023.2.3,Win32,59.88023952,3,2,13,,,,,,,,4,11,,,,,,,,,,,2,1.533,0,,,,,,-0.109375,-0.23828125,1,0,0,1.5332,Basalt_rect,12,0,12,0,1,
57027c1f68c641000e0c8970,SCN,2024-06-25_12h40.21.567,LearnStrategy,2023.2.3,Win32,59.88023952,3,2,14,,,,,,,,2,08,,,,,,,,,,,2,2.34,1,,,,,,-0.11328125,-0.252604167,1,0,0,2.3402,Basalt_rect,13,0,13,0,1,
57027c1f68c641000e0c8970,SCN,2024-06-25_12h40.21.567,LearnStrategy,2023.2.3,Win32,59.88023952,3,2,15,,,,,,,,7,04,,,,,,,,,,,6,1.122,0,,,,,,-0.154947917,-0.4140625,1,0,0,1.1221,Pegmatite_rect,14,0,14,0,1,
57027c1f68c641000e0c8970,SCN,2024-06-25_12h40.21.567,LearnStrategy,2023.2.3,Win32,59.88023952,3,2,16,,,,,,,,1,02,,,,,,,,,,,3,5.349,0,,,,,,0.114583333,-0.23828125,1,0,0,5.3492,Diorite_rect,15,0,15,0,1,
57027c1f68c641000e0c8970,SCN,2024-06-25_12h40.21.567,LearnStrategy,2023.2.3,Win32,59.88023952,4,1,1,-0.026041667,0.24609375,1,0,0,1.6623,Pumice_16,8,16,5,4,1.662,0.407552083,-0.39453125,1,0,0,1.5733,Pumice_rect,8,1.573,1,0,0,0,0,1,,,,,,,,,,,,,
57027c1f68c641000e0c8970,SCN,2024-06-25_12h40.21.567,LearnStrategy,2023.2.3,Win32,59.88023952,4,1,2,0.05859375,0.263020833,1,0,0,1.2103,Obsidian_10,5,10,5,5,1.21,-0.44140625,-0.4140625,1,0,0,1.1669,Obsidian_rect,5,1.167,1,1,0,1,0,1,,,,,,,,,,,,,
57027c1f68c641000e0c8970,SCN,2024-06-25_12h40.21.567,LearnStrategy,2023.2.3,Win32,59.88023952,4,1,3,0.104166667,0.420572917,1,0,0,1.1312,Peridotite_06,7,06,6,5,1.131,-0.322916667,-0.236979167,1,0,0,1.8254,Andesite_rect,1,1.825,0,2,0,2,0,1,,,,,,,,,,,,,
57027c1f68c641000e0c8970,SCN,2024-06-25_12h40.21.567,LearnStrategy,2023.2.3,Win32,59.88023952,4,1,4,0.22265625,0.424479167,1,0,0,1.1277,Pumice_02,8,02,6,6,1.128,0.403645833,-0.388020833,1,0,0,1.3577,Pumice_rect,8,1.358,1,3,0,3,0,1,,,,,,,,,,,,,
57027c1f68c641000e0c8970,SCN,2024-06-25_12h40.21.567,LearnStrategy,2023.2.3,Win32,59.88023952,4,1,5,0.541666667,0.24609375,1,0,0,2.5933,Obsidian_05,5,05,5,8,2.593,0.161458333,-0.389322917,1,0,0,1.9151,Peridotite_rect,7,1.915,0,4,0,4,0,1,,,,,,,,,,,,,
57027c1f68c641000e0c8970,SCN,2024-06-25_12h40.21.567,LearnStrategy,2023.2.3,Win32,59.88023952,4,1,6,0.529947917,0.055989583,1,0,0,1.8008,Peridotite_16,7,16,4,8,1.801,-0.110677083,-0.395833333,1,0,0,2.5276,Pegmatite_rect,6,2.528,0,5,0,5,0,1,,,,,,,,,,,,,
57027c1f68c641000e0c8970,SCN,2024-06-25_12h40.21.567,LearnStrategy,2023.2.3,Win32,59.88023952,4,1,7,-0.071614583,-0.10546875,1,0,0,3.9977,Gabbro_10,4,10,3,4,3.998,-0.375,-0.23828125,1,0,0,1.9868,Andesite_rect,1,1.987,0,6,0,6,0,1,,,,,,,,,,,,,
57027c1f68c641000e0c8970,SCN,2024-06-25_12h40.21.567,LearnStrategy,2023.2.3,Win32,59.88023952,4,1,8,-0.565104167,-0.24609375,1,0,0,1.5446,Diorite_07,3,07,2,1,1.545,-0.372395833,-0.25,1,0,0,1.416,Andesite_rect,1,1.416,0,7,0,7,0,1,,,,,,,,,,,,,
57027c1f68c641000e0c8970,SCN,2024-06-25_12h40.21.567,LearnStrategy,2023.2.3,Win32,59.88023952,4,1,9,-0.341145833,-0.411458333,1,0,0,2.0645,Diorite_02,3,02,1,2,2.064,0.1484375,-0.24609375,1,0,0,1.3863,Diorite_rect,3,1.386,1,8,0,8,0,1,,,,,,,,,,,,,
57027c1f68c641000e0c8970,SCN,2024-06-25_12h40.21.567,LearnStrategy,2023.2.3,Win32,59.88023952,4,1,10,0.524739583,-0.393229167,1,0,0,1.4113,Gabbro_16,4,16,1,8,1.411,0.38671875,-0.239583333,1,0,0,2.6282,Gabbro_rect,4,2.628,1,9,0,9,0,1,,,,,,,,,,,,,
57027c1f68c641000e0c8970,SCN,2024-06-25_12h40.21.567,LearnStrategy,2023.2.3,Win32,59.88023952,4,1,11,-0.21484375,0.251302083,1,0,0,2.1846,Pegmatite_13,6,13,5,3,2.185,0.114583333,-0.403645833,1,0,0,3.9917,Peridotite_rect,7,3.992,0,10,0,10,0,1,,,,,,,,,,,,,
57027c1f68c641000e0c8970,SCN,2024-06-25_12h40.21.567,LearnStrategy,2023.2.3,Win32,59.88023952,4,1,12,-0.3828125,0.122395833,1,0,0,0.8978,Basalt_04,2,04,4,2,0.898,0.360677083,-0.233072917,1,0,0,1.5553,Gabbro_rect,4,1.555,0,11,0,11,0,1,,,,,,,,,,,,,
57027c1f68c641000e0c8970,SCN,2024-06-25_12h40.21.567,LearnStrategy,2023.2.3,Win32,59.88023952,4,1,13,0.067708333,0.401041667,1,0,0,1.7795,Peridotite_06,7,06,6,5,1.779,0.11328125,-0.385416667,1,0,0,0.9344,Peridotite_rect,7,0.934,1,12,0,12,0,1,,,,,,,,,,,,,
57027c1f68c641000e0c8970,SCN,2024-06-25_12h40.21.567,LearnStrategy,2023.2.3,Win32,59.88023952,4,1,14,0.5390625,0.075520833,1,0,0,1.4787,Peridotite_16,7,16,4,8,1.479,0.157552083,-0.39453125,1,0,0,1.4318,Peridotite_rect,7,1.432,1,13,0,13,0,1,,,,,,,,,,,,,
57027c1f68c641000e0c8970,SCN,2024-06-25_12h40.21.567,LearnStrategy,2023.2.3,Win32,59.88023952,4,1,15,-0.5625,-0.270833333,1,0,0,1.4792,Diorite_07,3,07,2,1,1.479,-0.444010417,-0.248697917,1,0,0,1.2073,Andesite_rect,1,1.207,0,14,0,14,0,1,,,,,,,,,,,,,
57027c1f68c641000e0c8970,SCN,2024-06-25_12h40.21.567,LearnStrategy,2023.2.3,Win32,59.88023952,4,1,16,-0.3671875,-0.37890625,1,0,0,3.4778,Diorite_02,3,02,1,2,3.478,0.165364583,-0.243489583,1,0,0,1.2101,Diorite_rect,3,1.21,1,15,0,15,0,1,,,,,,,,,,,,,
57027c1f68c641000e0c8970,SCN,2024-06-25_12h40.21.567,LearnStrategy,2023.2.3,Win32,59.88023952,4,2,1,,,,,,,,8,05,,,,,,,,,,,8,1.197,1,,,,,,0.368489583,-0.40234375,1,0,0,1.1972,Pumice_rect,0,0,0,0,1,
57027c1f68c641000e0c8970,SCN,2024-06-25_12h40.21.567,LearnStrategy,2023.2.3,Win32,59.88023952,4,2,2,,,,,,,,3,13,,,,,,,,,,,3,4.139,1,,,,,,0.130208333,-0.259114583,1,0,0,4.1395,Diorite_rect,1,0,1,0,1,
57027c1f68c641000e0c8970,SCN,2024-06-25_12h40.21.567,LearnStrategy,2023.2.3,Win32,59.88023952,4,2,3,,,,,,,,3,14,,,,,,,,,,,3,5.203,1,,,,,,0.061197917,-0.25,1,0,0,5.2035,Diorite_rect,2,0,2,0,1,
57027c1f68c641000e0c8970,SCN,2024-06-25_12h40.21.567,LearnStrategy,2023.2.3,Win32,59.88023952,4,2,4,,,,,,,,7,13,,,,,,,,,,,6,1.913,0,,,,,,-0.111979167,-0.390625,1,0,0,1.9129,Pegmatite_rect,3,0,3,0,1,
57027c1f68c641000e0c8970,SCN,2024-06-25_12h40.21.567,LearnStrategy,2023.2.3,Win32,59.88023952,4,2,5,,,,,,,,5,07,,,,,,,,,,,5,1.052,1,,,,,,-0.43359375,-0.39453125,1,0,0,1.0518,Obsidian_rect,4,0,4,0,1,
57027c1f68c641000e0c8970,SCN,2024-06-25_12h40.21.567,LearnStrategy,2023.2.3,Win32,59.88023952,4,2,6,,,,,,,,7,02,,,,,,,,,,,6,2.008,0,,,,,,-0.131510417,-0.421875,1,0,0,2.0076,Pegmatite_rect,5,0,5,0,1,
57027c1f68c641000e0c8970,SCN,2024-06-25_12h40.21.567,LearnStrategy,2023.2.3,Win32,59.88023952,4,2,7,,,,,,,,4,08,,,,,,,,,,,2,2.175,0,,,,,,-0.118489583,-0.25,1,0,0,2.1749,Basalt_rect,6,0,6,0,1,
57027c1f68c641000e0c8970,SCN,2024-06-25_12h40.21.567,LearnStrategy,2023.2.3,Win32,59.88023952,4,2,8,,,,,,,,8,09,,,,,,,,,,,8,1.146,1,,,,,,0.39453125,-0.38671875,1,0,0,1.1462,Pumice_rect,7,0,7,0,1,
57027c1f68c641000e0c8970,SCN,2024-06-25_12h40.21.567,LearnStrategy,2023.2.3,Win32,59.88023952,4,2,9,,,,,,,,2,08,,,,,,,,,,,4,3.744,0,,,,,,0.39453125,-0.25,1,0,0,3.7438,Gabbro_rect,8,0,8,0,1,
57027c1f68c641000e0c8970,SCN,2024-06-25_12h40.21.567,LearnStrategy,2023.2.3,Win32,59.88023952,4,2,10,,,,,,,,6,09,,,,,,,,,,,6,2.512,1,,,,,,-0.092447917,-0.389322917,1,0,0,2.5125,Pegmatite_rect,9,0,9,0,1,
57027c1f68c641000e0c8970,SCN,2024-06-25_12h40.21.567,LearnStrategy,2023.2.3,Win32,59.88023952,4,2,11,,,,,,,,4,14,,,,,,,,,,,2,1.702,0,,,,,,-0.079427083,-0.244791667,1,0,0,1.7024,Basalt_rect,10,0,10,0,1,
57027c1f68c641000e0c8970,SCN,2024-06-25_12h40.21.567,LearnStrategy,2023.2.3,Win32,59.88023952,4,2,12,,,,,,,,5,14,,,,,,,,,,,5,2.552,1,,,,,,-0.34375,-0.412760417,1,0,0,2.552,Obsidian_rect,11,0,11,0,1,
57027c1f68c641000e0c8970,SCN,2024-06-25_12h40.21.567,LearnStrategy,2023.2.3,Win32,59.88023952,4,2,13,,,,,,,,6,12,,,,,,,,,,,1,2.909,0,,,,,,-0.345052083,-0.2421875,1,0,0,2.9086,Andesite_rect,12,0,12,0,1,
57027c1f68c641000e0c8970,SCN,2024-06-25_12h40.21.567,LearnStrategy,2023.2.3,Win32,59.88023952,4,2,14,,,,,,,,2,16,,,,,,,,,,,2,1.854,1,,,,,,-0.114583333,-0.2578125,1,0,0,1.8535,Basalt_rect,13,0,13,0,1,
57027c1f68c641000e0c8970,SCN,2024-06-25_12h40.21.567,LearnStrategy,2023.2.3,Win32,59.88023952,4,2,15,,,,,,,,1,02,,,,,,,,,,,6,2.935,0,,,,,,-0.067708333,-0.397135417,1,0,0,2.9345,Pegmatite_rect,14,0,14,0,1,
57027c1f68c641000e0c8970,SCN,2024-06-25_12h40.21.567,LearnStrategy,2023.2.3,Win32,59.88023952,4,2,16,,,,,,,,1,03,,,,,,,,,,,2,1.534,0,,,,,,-0.091145833,-0.239583333,1,0,0,1.5343,Basalt_rect,15,0,15,0,1,
57027c1f68c641000e0c8970,SCN,2024-06-25_12h40.21.567,LearnStrategy,2023.2.3,Win32,59.88023952,5,1,1,-0.0390625,-0.108072917,1,0,0,0.8113,Gabbro_10,4,10,3,4,0.811,-0.102864583,-0.2578125,1,0,0,1.476,Basalt_rect,2,1.476,0,0,0,0,0,1,,,,,,,,,,,,,
57027c1f68c641000e0c8970,SCN,2024-06-25_12h40.21.567,LearnStrategy,2023.2.3,Win32,59.88023952,5,1,2,0.057291667,-0.138020833,1,0,0,0.913,Gabbro_15,4,15,3,5,0.913,0.1171875,-0.260416667,1,0,0,2.4024,Diorite_rect,3,2.402,0,1,0,1,0,1,,,,,,,,,,,,,
57027c1f68c641000e0c8970,SCN,2024-06-25_12h40.21.567,LearnStrategy,2023.2.3,Win32,59.88023952,5,1,3,-0.06640625,-0.12109375,1,0,0,0.7649,Gabbro_10,4,10,3,4,0.765,0.399739583,-0.231770833,1,0,0,0.7824,Gabbro_rect,4,0.782,1,2,0,2,0,1,,,,,,,,,,,,,
57027c1f68c641000e0c8970,SCN,2024-06-25_12h40.21.567,LearnStrategy,2023.2.3,Win32,59.88023952,5,1,4,-0.104166667,-0.25,1,0,0,0.797,Diorite_06,3,06,2,4,0.797,-0.326822917,-0.251302083,1,0,0,1.503,Andesite_rect,1,1.503,0,3,0,3,0,1,,,,,,,,,,,,,
57027c1f68c641000e0c8970,SCN,2024-06-25_12h40.21.567,LearnStrategy,2023.2.3,Win32,59.88023952,5,1,5,0.040364583,-0.247395833,1,0,0,1.0136,Andesite_14,1,14,2,5,1.014,0.15234375,-0.243489583,1,0,0,1.2337,Diorite_rect,3,1.234,0,4,0,4,0,1,,,,,,,,,,,,,
57027c1f68c641000e0c8970,SCN,2024-06-25_12h40.21.567,LearnStrategy,2023.2.3,Win32,59.88023952,5,1,6,-0.096354167,-0.42578125,1,0,0,1.0934,Pegmatite_05,6,05,1,4,1.093,-0.08984375,-0.385416667,1,0,0,0.9747,Pegmatite_rect,6,0.975,1,5,0,5,0,1,,,,,,,,,,,,,
57027c1f68c641000e0c8970,SCN,2024-06-25_12h40.21.567,LearnStrategy,2023.2.3,Win32,59.88023952,5,1,7,0.048177083,-0.411458333,1,0,0,0.8786,Pegmatite_03,6,03,1,5,0.879,-0.1015625,-0.408854167,1,0,0,1.1512,Pegmatite_rect,6,1.151,1,6,0,6,0,1,,,,,,,,,,,,,
57027c1f68c641000e0c8970,SCN,2024-06-25_12h40.21.567,LearnStrategy,2023.2.3,Win32,59.88023952,5,1,8,-0.350260417,-0.415364583,1,0,0,1.3272,Diorite_02,3,02,1,2,1.327,-0.32421875,-0.229166667,1,0,0,1.79,Andesite_rect,1,1.79,0,7,0,7,0,1,,,,,,,,,,,,,
57027c1f68c641000e0c8970,SCN,2024-06-25_12h40.21.567,LearnStrategy,2023.2.3,Win32,59.88023952,5,1,9,0.23828125,0.260416667,1,0,0,1.1616,Basalt_14,2,14,5,6,1.162,0.416666667,-0.234375,1,0,0,1.5001,Gabbro_rect,4,1.5,0,8,0,8,0,1,,,,,,,,,,,,,
57027c1f68c641000e0c8970,SCN,2024-06-25_12h40.21.567,LearnStrategy,2023.2.3,Win32,59.88023952,5,1,10,-0.0546875,0.100260417,1,0,0,0.7639,Peridotite_07,7,07,4,4,0.764,-0.395833333,-0.259114583,1,0,0,1.6486,Andesite_rect,1,1.649,0,9,0,9,0,1,,,,,,,,,,,,,
57027c1f68c641000e0c8970,SCN,2024-06-25_12h40.21.567,LearnStrategy,2023.2.3,Win32,59.88023952,5,1,11,0.209635417,-0.389322917,1,0,0,1.4435,Pumice_10,8,10,1,6,1.443,0.438802083,-0.390625,1,0,0,1.042,Pumice_rect,8,1.042,1,10,0,10,0,1,,,,,,,,,,,,,
57027c1f68c641000e0c8970,SCN,2024-06-25_12h40.21.567,LearnStrategy,2023.2.3,Win32,59.88023952,5,1,12,-0.057291667,-0.26953125,1,0,0,0.8656,Diorite_06,3,06,2,4,0.866,-0.388020833,-0.243489583,1,0,0,1.5128,Andesite_rect,1,1.513,0,11,0,11,0,1,,,,,,,,,,,,,
57027c1f68c641000e0c8970,SCN,2024-06-25_12h40.21.567,LearnStrategy,2023.2.3,Win32,59.88023952,5,1,13,0.5234375,0.23046875,1,0,0,3.1786,Obsidian_05,5,05,5,8,3.179,-0.428385417,-0.384114583,1,0,0,1.3625,Obsidian_rect,5,1.362,1,12,0,12,0,1,,,,,,,,,,,,,
57027c1f68c641000e0c8970,SCN,2024-06-25_12h40.21.567,LearnStrategy,2023.2.3,Win32,59.88023952,5,1,14,-0.265625,-0.115885417,1,0,0,1.1448,Basalt_11,2,11,3,3,1.145,0.388020833,-0.3984375,1,0,0,1.3831,Pumice_rect,8,1.383,0,13,0,13,0,1,,,,,,,,,,,,,
57027c1f68c641000e0c8970,SCN,2024-06-25_12h40.21.567,LearnStrategy,2023.2.3,Win32,59.88023952,5,1,15,-0.381510417,-0.100260417,1,0,0,0.9135,Gabbro_01,4,01,3,2,0.913,-0.33984375,-0.24609375,1,0,0,1.106,Andesite_rect,1,1.106,0,14,0,14,0,1,,,,,,,,,,,,,
57027c1f68c641000e0c8970,SCN,2024-06-25_12h40.21.567,LearnStrategy,2023.2.3,Win32,59.88023952,5,1,16,0.1171875,0.243489583,1,0,0,1.5797,Obsidian_10,5,10,5,5,1.58,-0.423177083,-0.388020833,1,0,0,0.8506,Obsidian_rect,5,0.851,1,15,0,15,0,1,,,,,,,,,,,,,
57027c1f68c641000e0c8970,SCN,2024-06-25_12h40.21.567,LearnStrategy,2023.2.3,Win32,59.88023952,5,2,1,,,,,,,,8,08,,,,,,,,,,,8,1.35,1,,,,,,0.364583333,-0.404947917,1,0,0,1.3502,Pumice_rect,0,0,0,0,1,
57027c1f68c641000e0c8970,SCN,2024-06-25_12h40.21.567,LearnStrategy,2023.2.3,Win32,59.88023952,5,2,2,,,,,,,,6,16,,,,,,,,,,,3,6.245,0,,,,,,0.173177083,-0.2421875,1,0,0,6.2446,Diorite_rect,1,0,1,0,1,
57027c1f68c641000e0c8970,SCN,2024-06-25_12h40.21.567,LearnStrategy,2023.2.3,Win32,59.88023952,5,2,3,,,,,,,,8,03,,,,,,,,,,,8,1.424,1,,,,,,0.411458333,-0.397135417,1,0,0,1.4235,Pumice_rect,2,0,2,0,1,
57027c1f68c641000e0c8970,SCN,2024-06-25_12h40.21.567,LearnStrategy,2023.2.3,Win32,59.88023952,5,2,4,,,,,,,,4,11,,,,,,,,,,,2,1.349,0,,,,,,-0.065104167,-0.23828125,1,0,0,1.3494,Basalt_rect,3,0,3,0,1,
57027c1f68c641000e0c8970,SCN,2024-06-25_12h40.21.567,LearnStrategy,2023.2.3,Win32,59.88023952,5,2,5,,,,,,,,3,08,,,,,,,,,,,3,2.601,1,,,,,,0.119791667,-0.23828125,1,0,0,2.6006,Diorite_rect,4,0,4,0,1,
57027c1f68c641000e0c8970,SCN,2024-06-25_12h40.21.567,LearnStrategy,2023.2.3,Win32,59.88023952,5,2,6,,,,,,,,7,15,,,,,,,,,,,7,6.563,1,,,,,,0.104166667,-0.391927083,1,0,0,6.5631,Peridotite_rect,5,0,5,0,1,
57027c1f68c641000e0c8970,SCN,2024-06-25_12h40.21.567,LearnStrategy,2023.2.3,Win32,59.88023952,5,2,7,,,,,,,,2,05,,,,,,,,,,,2,5.257,1,,,,,,-0.147135417,-0.256510417,1,0,0,5.2566,Basalt_rect,6,0,6,0,1,
57027c1f68c641000e0c8970,SCN,2024-06-25_12h40.21.567,LearnStrategy,2023.2.3,Win32,59.88023952,5,2,8,,,,,,,,6,11,,,,,,,,,,,6,2.602,1,,,,,,-0.08984375,-0.391927083,1,0,0,2.6017,Pegmatite_rect,7,0,7,0,1,
57027c1f68c641000e0c8970,SCN,2024-06-25_12h40.21.567,LearnStrategy,2023.2.3,Win32,59.88023952,5,2,9,,,,,,,,5,09,,,,,,,,,,,5,1.102,1,,,,,,-0.408854167,-0.381510417,1,0,0,1.1021,Obsidian_rect,8,0,8,0,1,
57027c1f68c641000e0c8970,SCN,2024-06-25_12h40.21.567,LearnStrategy,2023.2.3,Win32,59.88023952,5,2,10,,,,,,,,2,09,,,,,,,,,,,2,1.246,1,,,,,,-0.145833333,-0.25390625,1,0,0,1.2457,Basalt_rect,9,0,9,0,1,
57027c1f68c641000e0c8970,SCN,2024-06-25_12h40.21.567,LearnStrategy,2023.2.3,Win32,59.88023952,5,2,11,,,,,,,,4,13,,,,,,,,,,,4,1.508,1,,,,,,0.358072917,-0.251302083,1,0,0,1.5081,Gabbro_rect,10,0,10,0,1,
57027c1f68c641000e0c8970,SCN,2024-06-25_12h40.21.567,LearnStrategy,2023.2.3,Win32,59.88023952,5,2,12,,,,,,,,5,08,,,,,,,,,,,5,1.172,1,,,,,,-0.37890625,-0.415364583,1,0,0,1.1722,Obsidian_rect,11,0,11,0,1,
57027c1f68c641000e0c8970,SCN,2024-06-25_12h40.21.567,LearnStrategy,2023.2.3,Win32,59.88023952,5,2,13,,,,,,,,3,11,,,,,,,,,,,3,2.9,1,,,,,,0.115885417,-0.236979167,1,0,0,2.8998,Diorite_rect,12,0,12,0,1,
57027c1f68c641000e0c8970,SCN,2024-06-25_12h40.21.567,LearnStrategy,2023.2.3,Win32,59.88023952,5,2,14,,,,,,,,1,10,,,,,,,,,,,2,1.77,0,,,,,,-0.08203125,-0.25,1,0,0,1.77,Basalt_rect,13,0,13,0,1,
57027c1f68c641000e0c8970,SCN,2024-06-25_12h40.21.567,LearnStrategy,2023.2.3,Win32,59.88023952,5,2,15,,,,,,,,7,10,,,,,,,,,,,1,1.227,0,,,,,,-0.345052083,-0.256510417,1,0,0,1.2266,Andesite_rect,14,0,14,0,1,
57027c1f68c641000e0c8970,SCN,2024-06-25_12h40.21.567,LearnStrategy,2023.2.3,Win32,59.88023952,5,2,16,,,,,,,,1,07,,,,,,,,,,,1,1.75,1,,,,,,-0.321614583,-0.252604167,1,0,0,1.75,Andesite_rect,15,0,15,0,1,
57027c1f68c641000e0c8970,SCN,2024-06-25_12h40.21.567,LearnStrategy,2023.2.3,Win32,59.88023952,6,1,1,-0.088541667,0.305989583,1,0,0,0.6485,Pumice_16,8,16,5,4,0.649,0.3671875,-0.38671875,1,0,0,1.196,Pumice_rect,8,1.196,1,0,0,0,0,1,,,,,,,,,,,,,
57027c1f68c641000e0c8970,SCN,2024-06-25_12h40.21.567,LearnStrategy,2023.2.3,Win32,59.88023952,6,1,2,-0.221354167,0.104166667,1,0,0,0.9126,Pegmatite_15,6,15,4,3,0.913,-0.141927083,-0.421875,1,0,0,0.8861,Pegmatite_rect,6,0.886,1,1,0,1,0,1,,,,,,,,,,,,,
57027c1f68c641000e0c8970,SCN,2024-06-25_12h40.21.567,LearnStrategy,2023.2.3,Win32,59.88023952,6,1,3,-0.411458333,0.143229167,1,0,0,0.8123,Basalt_04,2,04,4,2,0.812,-0.143229167,-0.23828125,1,0,0,0.8413,Basalt_rect,2,0.841,1,2,0,2,0,1,,,,,,,,,,,,,
57027c1f68c641000e0c8970,SCN,2024-06-25_12h40.21.567,LearnStrategy,2023.2.3,Win32,59.88023952,6,1,4,-0.553385417,0.10546875,1,0,0,0.8124,Basalt_10,2,10,4,1,0.812,0.444010417,-0.2578125,1,0,0,1.8737,Gabbro_rect,4,1.874,0,3,0,3,0,1,,,,,,,,,,,,,
57027c1f68c641000e0c8970,SCN,2024-06-25_12h40.21.567,LearnStrategy,2023.2.3,Win32,59.88023952,6,1,5,-0.076822917,0.37109375,1,0,0,1.5119,Basalt_02,2,02,6,4,1.512,-0.131510417,-0.255208333,1,0,0,0.7337,Basalt_rect,2,0.734,1,4,0,4,0,1,,,,,,,,,,,,,
57027c1f68c641000e0c8970,SCN,2024-06-25_12h40.21.567,LearnStrategy,2023.2.3,Win32,59.88023952,6,1,6,-0.244791667,-0.423177083,1,0,0,1.1817,Obsidian_02,5,02,1,3,1.182,-0.37109375,-0.397135417,1,0,0,0.549,Obsidian_rect,5,0.549,1,5,0,5,0,1,,,,,,,,,,,,,
57027c1f68c641000e0c8970,SCN,2024-06-25_12h40.21.567,LearnStrategy,2023.2.3,Win32,59.88023952,6,1,7,-0.39453125,-0.391927083,1,0,0,0.8659,Diorite_02,3,02,1,2,0.866,0.109375,-0.259114583,1,0,0,1.8331,Diorite_rect,3,1.833,1,6,0,6,0,1,,,,,,,,,,,,,
57027c1f68c641000e0c8970,SCN,2024-06-25_12h40.21.567,LearnStrategy,2023.2.3,Win32,59.88023952,6,1,8,0.380208333,-0.368489583,1,0,0,1.2285,Andesite_06,1,06,1,7,1.228,-0.084635417,-0.243489583,1,0,0,6.5613,Basalt_rect,2,6.561,0,7,0,7,0,1,,,,,,,,,,,,,
57027c1f68c641000e0c8970,SCN,2024-06-25_12h40.21.567,LearnStrategy,2023.2.3,Win32,59.88023952,6,1,9,-0.36328125,0.1328125,1,0,0,1.1464,Basalt_04,2,04,4,2,1.146,0.328125,-0.263020833,1,0,0,1.6305,Gabbro_rect,4,1.63,0,8,0,8,0,1,,,,,,,,,,,,,
57027c1f68c641000e0c8970,SCN,2024-06-25_12h40.21.567,LearnStrategy,2023.2.3,Win32,59.88023952,6,1,10,-0.579427083,0.09375,1,0,0,0.912,Basalt_10,2,10,4,1,0.912,0.322916667,-0.248697917,1,0,0,1.5406,Gabbro_rect,4,1.541,0,9,0,9,0,1,,,,,,,,,,,,,
57027c1f68c641000e0c8970,SCN,2024-06-25_12h40.21.567,LearnStrategy,2023.2.3,Win32,59.88023952,6,1,11,-0.390625,0.239583333,1,0,0,1.0582,Peridotite_12,7,12,5,2,1.058,-0.42578125,-0.25,1,0,0,1.676,Andesite_rect,1,1.676,0,10,0,10,0,1,,,,,,,,,,,,,
57027c1f68c641000e0c8970,SCN,2024-06-25_12h40.21.567,LearnStrategy,2023.2.3,Win32,59.88023952,6,1,12,-0.236979167,0.4140625,1,0,0,1.1328,Gabbro_09,4,09,6,3,1.133,-0.095052083,-0.4140625,1,0,0,1.6039,Pegmatite_rect,6,1.604,0,11,0,11,0,1,,,,,,,,,,,,,
57027c1f68c641000e0c8970,SCN,2024-06-25_12h40.21.567,LearnStrategy,2023.2.3,Win32,59.88023952,6,1,13,0.07421875,0.412760417,1,0,0,1.0153,Peridotite_06,7,06,6,5,1.015,-0.09375,-0.408854167,1,0,0,1.4257,Pegmatite_rect,6,1.426,0,12,0,12,0,1,,,,,,,,,,,,,
57027c1f68c641000e0c8970,SCN,2024-06-25_12h40.21.567,LearnStrategy,2023.2.3,Win32,59.88023952,6,1,14,0.434895833,0.114583333,1,0,0,1.1982,Pumice_14,8,14,4,7,1.198,0.359375,-0.40625,1,0,0,0.98,Pumice_rect,8,0.98,1,13,0,13,0,1,,,,,,,,,,,,,
57027c1f68c641000e0c8970,SCN,2024-06-25_12h40.21.567,LearnStrategy,2023.2.3,Win32,59.88023952,6,1,15,0.522135417,0.40234375,1,0,0,1.7618,Andesite_04,1,04,6,8,1.762,-0.100260417,-0.25,1,0,0,1.0611,Basalt_rect,2,1.061,0,14,0,14,0,1,,,,,,,,,,,,,
57027c1f68c641000e0c8970,SCN,2024-06-25_12h40.21.567,LearnStrategy,2023.2.3,Win32,59.88023952,6,1,16,-0.247395833,-0.102864583,1,0,0,0.8488,Basalt_11,2,11,3,3,0.849,-0.083333333,-0.268229167,1,0,0,3.5734,Basalt_rect,2,3.573,1,15,0,15,0,1,,,,,,,,,,,,,
57027c1f68c641000e0c8970,SCN,2024-06-25_12h40.21.567,LearnStrategy,2023.2.3,Win32,59.88023952,6,2,1,,,,,,,,8,04,,,,,,,,,,,8,3.711,1,,,,,,0.380208333,-0.37890625,1,0,0,3.7106,Pumice_rect,0,0,0,0,1,
57027c1f68c641000e0c8970,SCN,2024-06-25_12h40.21.567,LearnStrategy,2023.2.3,Win32,59.88023952,6,2,2,,,,,,,,2,12,,,,,,,,,,,2,9.451,1,,,,,,-0.1171875,-0.259114583,1,0,0,9.4505,Basalt_rect,1,0,1,0,1,
57027c1f68c641000e0c8970,SCN,2024-06-25_12h40.21.567,LearnStrategy,2023.2.3,Win32,59.88023952,6,2,3,,,,,,,,6,08,,,,,,,,,,,6,3.327,1,,,,,,-0.079427083,-0.404947917,1,0,0,3.3267,Pegmatite_rect,2,0,2,0,1,
57027c1f68c641000e0c8970,SCN,2024-06-25_12h40.21.567,LearnStrategy,2023.2.3,Win32,59.88023952,6,2,4,,,,,,,,6,07,,,,,,,,,,,6,1.22,1,,,,,,-0.079427083,-0.404947917,1,0,0,1.2203,Pegmatite_rect,3,0,3,0,1,
57027c1f68c641000e0c8970,SCN,2024-06-25_12h40.21.567,LearnStrategy,2023.2.3,Win32,59.88023952,6,2,5,,,,,,,,8,06,,,,,,,,,,,8,1.275,1,,,,,,0.3359375,-0.399739583,1,0,0,1.2755,Pumice_rect,4,0,4,0,1,
57027c1f68c641000e0c8970,SCN,2024-06-25_12h40.21.567,LearnStrategy,2023.2.3,Win32,59.88023952,6,2,6,,,,,,,,3,12,,,,,,,,,,,3,3.716,1,,,,,,0.1015625,-0.236979167,1,0,0,3.7159,Diorite_rect,5,0,5,0,1,
57027c1f68c641000e0c8970,SCN,2024-06-25_12h40.21.567,LearnStrategy,2023.2.3,Win32,59.88023952,6,2,7,,,,,,,,3,09,,,,,,,,,,,3,1.601,1,,,,,,0.13671875,-0.259114583,1,0,0,1.6013,Diorite_rect,6,0,6,0,1,
57027c1f68c641000e0c8970,SCN,2024-06-25_12h40.21.567,LearnStrategy,2023.2.3,Win32,59.88023952,6,2,8,,,,,,,,4,05,,,,,,,,,,,1,2.962,0,,,,,,-0.37109375,-0.255208333,1,0,0,2.9618,Andesite_rect,7,0,7,0,1,
57027c1f68c641000e0c8970,SCN,2024-06-25_12h40.21.567,LearnStrategy,2023.2.3,Win32,59.88023952,6,2,9,,,,,,,,1,09,,,,,,,,,,,2,1.619,0,,,,,,-0.095052083,-0.2578125,1,0,0,1.6194,Basalt_rect,8,0,8,0,1,
57027c1f68c641000e0c8970,SCN,2024-06-25_12h40.21.567,LearnStrategy,2023.2.3,Win32,59.88023952,6,2,10,,,,,,,,5,04,,,,,,,,,,,5,1.166,1,,,,,,-0.33203125,-0.399739583,1,0,0,1.1655,Obsidian_rect,9,0,9,0,1,
57027c1f68c641000e0c8970,SCN,2024-06-25_12h40.21.567,LearnStrategy,2023.2.3,Win32,59.88023952,6,2,11,,,,,,,,7,14,,,,,,,,,,,6,5.17,0,,,,,,-0.1015625,-0.40625,1,0,0,5.1697,Pegmatite_rect,10,0,10,0,1,
57027c1f68c641000e0c8970,SCN,2024-06-25_12h40.21.567,LearnStrategy,2023.2.3,Win32,59.88023952,6,2,12,,,,,,,,2,01,,,,,,,,,,,2,2.776,1,,,,,,-0.12109375,-0.23828125,1,0,0,2.7761,Basalt_rect,11,0,11,0,1,
57027c1f68c641000e0c8970,SCN,2024-06-25_12h40.21.567,LearnStrategy,2023.2.3,Win32,59.88023952,6,2,13,,,,,,,,1,11,,,,,,,,,,,6,3.79,0,,,,,,-0.111979167,-0.393229167,1,0,0,3.7896,Pegmatite_rect,12,0,12,0,1,
57027c1f68c641000e0c8970,SCN,2024-06-25_12h40.21.567,LearnStrategy,2023.2.3,Win32,59.88023952,6,2,14,,,,,,,,5,12,,,,,,,,,,,5,1.099,1,,,,,,-0.337239583,-0.38671875,1,0,0,1.0994,Obsidian_rect,13,0,13,0,1,
57027c1f68c641000e0c8970,SCN,2024-06-25_12h40.21.567,LearnStrategy,2023.2.3,Win32,59.88023952,6,2,15,,,,,,,,4,03,,,,,,,,,,,1,2.141,0,,,,,,-0.309895833,-0.251302083,1,0,0,2.1409,Andesite_rect,14,0,14,0,1,
57027c1f68c641000e0c8970,SCN,2024-06-25_12h40.21.567,LearnStrategy,2023.2.3,Win32,59.88023952,6,2,16,,,,,,,,7,04,,,,,,,,,,,6,2.994,0,,,,,,-0.139322917,-0.407552083,1,0,0,2.9936,Pegmatite_rect,15,0,15,0,1,
57027c1f68c641000e0c8970,SCN,2024-06-25_12h40.21.567,LearnStrategy,2023.2.3,Win32,59.88023952,7,1,1,-0.0625,0.239583333,1,0,0,1.0283,Pumice_16,8,16,5,4,1.028,0.451822917,-0.40625,1,0,0,0.8578,Pumice_rect,8,0.858,1,0,0,0,0,1,,,,,,,,,,,,,
57027c1f68c641000e0c8970,SCN,2024-06-25_12h40.21.567,LearnStrategy,2023.2.3,Win32,59.88023952,7,1,2,-0.05859375,0.11328125,1,0,0,0.6951,Peridotite_07,7,07,4,4,0.695,-0.337239583,-0.24609375,1,0,0,1.655,Andesite_rect,1,1.655,0,1,0,1,0,1,,,,,,,,,,,,,
57027c1f68c641000e0c8970,SCN,2024-06-25_12h40.21.567,LearnStrategy,2023.2.3,Win32,59.88023952,7,1,3,0.087239583,0.102864583,1,0,0,0.7653,Pegmatite_06,6,06,4,5,0.765,-0.083333333,-0.401041667,1,0,0,0.9182,Pegmatite_rect,6,0.918,1,2,0,2,0,1,,,,,,,,,,,,,
57027c1f68c641000e0c8970,SCN,2024-06-25_12h40.21.567,LearnStrategy,2023.2.3,Win32,59.88023952,7,1,4,0.578125,0.110677083,1,0,0,0.8796,Peridotite_16,7,16,4,8,0.88,-0.088541667,-0.4140625,1,0,0,1.2475,Pegmatite_rect,6,1.247,0,3,0,3,0,1,,,,,,,,,,,,,
57027c1f68c641000e0c8970,SCN,2024-06-25_12h40.21.567,LearnStrategy,2023.2.3,Win32,59.88023952,7,1,5,-0.236979167,-0.259114583,1,0,0,0.8977,Andesite_16,1,16,2,3,0.898,-0.184895833,-0.385416667,1,0,0,1.7849,Pegmatite_rect,6,1.785,0,4,0,4,0,1,,,,,,,,,,,,,
57027c1f68c641000e0c8970,SCN,2024-06-25_12h40.21.567,LearnStrategy,2023.2.3,Win32,59.88023952,7,1,6,-0.567708333,-0.23046875,1,0,0,1.1433,Diorite_07,3,07,2,1,1.143,0.123697917,-0.247395833,1,0,0,1.5089,Diorite_rect,3,1.509,1,5,0,5,0,1,,,,,,,,,,,,,
57027c1f68c641000e0c8970,SCN,2024-06-25_12h40.21.567,LearnStrategy,2023.2.3,Win32,59.88023952,7,1,7,-0.546875,-0.440104167,1,0,0,1.0979,Diorite_10,3,10,1,1,1.098,-0.315104167,-0.264322917,1,0,0,2.1397,Andesite_rect,1,2.14,0,6,0,6,0,1,,,,,,,,,,,,,
57027c1f68c641000e0c8970,SCN,2024-06-25_12h40.21.567,LearnStrategy,2023.2.3,Win32,59.88023952,7,1,8,-0.395833333,-0.44921875,1,0,0,0.9303,Diorite_02,3,02,1,2,0.93,0.08984375,-0.248697917,1,0,0,1.6188,Diorite_rect,3,1.619,1,7,0,7,0,1,,,,,,,,,,,,,
57027c1f68c641000e0c8970,SCN,2024-06-25_12h40.21.567,LearnStrategy,2023.2.3,Win32,59.88023952,7,1,9,0.395833333,-0.408854167,1,0,0,2.2611,Andesite_06,1,06,1,7,2.261,-0.325520833,-0.247395833,1,0,0,1.667,Andesite_rect,1,1.667,1,8,0,8,0,1,,,,,,,,,,,,,
57027c1f68c641000e0c8970,SCN,2024-06-25_12h40.21.567,LearnStrategy,2023.2.3,Win32,59.88023952,7,1,10,0.036458333,-0.388020833,1,0,0,0.8648,Pegmatite_03,6,03,1,5,0.865,-0.095052083,-0.384114583,1,0,0,1.111,Pegmatite_rect,6,1.111,1,9,0,9,0,1,,,,,,,,,,,,,
57027c1f68c641000e0c8970,SCN,2024-06-25_12h40.21.567,LearnStrategy,2023.2.3,Win32,59.88023952,7,1,11,-0.053385417,-0.09765625,1,0,0,1.0506,Gabbro_10,4,10,3,4,1.051,0.157552083,-0.243489583,1,0,0,1.0119,Diorite_rect,3,1.012,0,10,0,10,0,1,,,,,,,,,,,,,
57027c1f68c641000e0c8970,SCN,2024-06-25_12h40.21.567,LearnStrategy,2023.2.3,Win32,59.88023952,7,1,12,-0.19921875,-0.075520833,1,0,0,1.2626,Basalt_11,2,11,3,3,1.263,-0.078125,-0.23046875,1,0,0,1.2026,Basalt_rect,2,1.203,1,11,0,11,0,1,,,,,,,,,,,,,
57027c1f68c641000e0c8970,SCN,2024-06-25_12h40.21.567,LearnStrategy,2023.2.3,Win32,59.88023952,7,1,13,0.213541667,0.259114583,1,0,0,1.4799,Basalt_14,2,14,5,6,1.48,0.42578125,-0.243489583,1,0,0,1.4177,Gabbro_rect,4,1.418,0,12,0,12,0,1,,,,,,,,,,,,,
57027c1f68c641000e0c8970,SCN,2024-06-25_12h40.21.567,LearnStrategy,2023.2.3,Win32,59.88023952,7,1,14,-0.088541667,0.2734375,1,0,0,1.1986,Pumice_16,8,16,5,4,1.199,0.4296875,-0.404947917,1,0,0,1.3448,Pumice_rect,8,1.345,1,13,0,13,0,1,,,,,,,,,,,,,
57027c1f68c641000e0c8970,SCN,2024-06-25_12h40.21.567,LearnStrategy,2023.2.3,Win32,59.88023952,7,1,15,0.255208333,0.407552083,1,0,0,1.5689,Pumice_02,8,02,6,6,1.569,0.388020833,-0.404947917,1,0,0,1.398,Pumice_rect,8,1.398,1,14,0,14,0,1,,,,,,,,,,,,,
57027c1f68c641000e0c8970,SCN,2024-06-25_12h40.21.567,LearnStrategy,2023.2.3,Win32,59.88023952,7,1,16,0.05859375,0.421875,1,0,0,1.1618,Peridotite_06,7,06,6,5,1.162,-0.110677083,-0.391927083,1,0,0,1.2077,Pegmatite_rect,6,1.208,0,15,0,15,0,1,,,,,,,,,,,,,
57027c1f68c641000e0c8970,SCN,2024-06-25_12h40.21.567,LearnStrategy,2023.2.3,Win32,59.88023952,7,2,1,,,,,,,,4,13,,,,,,,,,,,1,5.242,0,,,,,,-0.384114583,-0.260416667,1,0,0,5.2423,Andesite_rect,0,0,0,0,1,
57027c1f68c641000e0c8970,SCN,2024-06-25_12h40.21.567,LearnStrategy,2023.2.3,Win32,59.88023952,7,2,2,,,,,,,,6,08,,,,,,,,,,,6,2.706,1,,,,,,-0.108072917,-0.403645833,1,0,0,2.7057,Pegmatite_rect,1,0,1,0,1,
57027c1f68c641000e0c8970,SCN,2024-06-25_12h40.21.567,LearnStrategy,2023.2.3,Win32,59.88023952,7,2,3,,,,,,,,7,04,,,,,,,,,,,6,1.77,0,,,,,,-0.09375,-0.39453125,1,0,0,1.7696,Pegmatite_rect,2,0,2,0,1,
57027c1f68c641000e0c8970,SCN,2024-06-25_12h40.21.567,LearnStrategy,2023.2.3,Win32,59.88023952,7,2,4,,,,,,,,1,03,,,,,,,,,,,2,1.554,0,,,,,,-0.080729167,-0.231770833,1,0,0,1.5536,Basalt_rect,3,0,3,0,1,
57027c1f68c641000e0c8970,SCN,2024-06-25_12h40.21.567,LearnStrategy,2023.2.3,Win32,59.88023952,7,2,5,,,,,,,,7,14,,,,,,,,,,,1,7.557,0,,,,,,-0.401041667,-0.244791667,1,0,0,7.557,Andesite_rect,4,0,4,0,1,
57027c1f68c641000e0c8970,SCN,2024-06-25_12h40.21.567,LearnStrategy,2023.2.3,Win32,59.88023952,7,2,6,,,,,,,,2,08,,,,,,,,,,,2,1.283,1,,,,,,-0.115885417,-0.248697917,1,0,0,1.2826,Basalt_rect,5,0,5,0,1,
57027c1f68c641000e0c8970,SCN,2024-06-25_12h40.21.567,LearnStrategy,2023.2.3,Win32,59.88023952,7,2,7,,,,,,,,1,02,,,,,,,,,,,1,3.18,1,,,,,,-0.346354167,-0.2421875,1,0,0,3.1798,Andesite_rect,6,0,6,0,1,
57027c1f68c641000e0c8970,SCN,2024-06-25_12h40.21.567,LearnStrategy,2023.2.3,Win32,59.88023952,7,2,8,,,,,,,,6,12,,,,,,,,,,,1,1.632,0,,,,,,-0.356770833,-0.24609375,1,0,0,1.6319,Andesite_rect,7,0,7,0,1,
57027c1f68c641000e0c8970,SCN,2024-06-25_12h40.21.567,LearnStrategy,2023.2.3,Win32,59.88023952,7,2,9,,,,,,,,3,11,,,,,,,,,,,7,1.654,0,,,,,,0.1328125,-0.385416667,1,0,0,1.654,Peridotite_rect,8,0,8,0,1,
57027c1f68c641000e0c8970,SCN,2024-06-25_12h40.21.567,LearnStrategy,2023.2.3,Win32,59.88023952,7,2,10,,,,,,,,4,03,,,,,,,,,,,3,1.183,0,,,,,,0.12890625,-0.252604167,1,0,0,1.1833,Diorite_rect,9,0,9,0,1,
57027c1f68c641000e0c8970,SCN,2024-06-25_12h40.21.567,LearnStrategy,2023.2.3,Win32,59.88023952,7,2,11,,,,,,,,2,16,,,,,,,,,,,4,2.08,0,,,,,,0.35546875,-0.260416667,1,0,0,2.0797,Gabbro_rect,10,0,10,0,1,
57027c1f68c641000e0c8970,SCN,2024-06-25_12h40.21.567,LearnStrategy,2023.2.3,Win32,59.88023952,7,2,12,,,,,,,,8,04,,,,,,,,,,,8,2.557,1,,,,,,0.434895833,-0.385416667,1,0,0,2.557,Pumice_rect,11,0,11,0,1,
57027c1f68c641000e0c8970,SCN,2024-06-25_12h40.21.567,LearnStrategy,2023.2.3,Win32,59.88023952,7,2,13,,,,,,,,3,12,,,,,,,,,,,3,1.681,1,,,,,,0.130208333,-0.247395833,1,0,0,1.6813,Diorite_rect,12,0,12,0,1,
57027c1f68c641000e0c8970,SCN,2024-06-25_12h40.21.567,LearnStrategy,2023.2.3,Win32,59.88023952,7,2,14,,,,,,,,5,04,,,,,,,,,,,5,6.524,1,,,,,,-0.354166667,-0.407552083,1,0,0,6.5245,Obsidian_rect,13,0,13,0,1,
57027c1f68c641000e0c8970,SCN,2024-06-25_12h40.21.567,LearnStrategy,2023.2.3,Win32,59.88023952,7,2,15,,,,,,,,8,06,,,,,,,,,,,8,3.059,1,,,,,,0.33203125,-0.41015625,1,0,0,3.0594,Pumice_rect,14,0,14,0,1,
57027c1f68c641000e0c8970,SCN,2024-06-25_12h40.21.567,LearnStrategy,2023.2.3,Win32,59.88023952,7,2,16,,,,,,,,5,14,,,,,,,,,,,5,1.146,1,,,,,,-0.389322917,-0.4140625,1,0,0,1.1464,Obsidian_rect,15,0,15,0,1,
57027c1f68c641000e0c8970,SCN,2024-06-25_12h40.21.567,LearnStrategy,2023.2.3,Win32,59.88023952,8,1,1,-0.572916667,-0.100260417,1,0,0,0.8204,Obsidian_06,5,06,3,1,0.82,-0.434895833,-0.41015625,1,0,0,0.8638,Obsidian_rect,5,0.864,1,0,0,0,0,1,,,,,,,,,,,,,
57027c1f68c641000e0c8970,SCN,2024-06-25_12h40.21.567,LearnStrategy,2023.2.3,Win32,59.88023952,8,1,2,-0.061197917,-0.0859375,1,0,0,0.663,Gabbro_10,4,10,3,4,0.663,-0.06640625,-0.2421875,1,0,0,1.8813,Basalt_rect,2,1.881,0,1,0,1,0,1,,,,,,,,,,,,,
57027c1f68c641000e0c8970,SCN,2024-06-25_12h40.21.567,LearnStrategy,2023.2.3,Win32,59.88023952,8,1,3,-0.069010417,-0.108072917,1,0,0,0.6467,Gabbro_10,4,10,3,4,0.647,0.3828125,-0.23828125,1,0,0,1.5671,Gabbro_rect,4,1.567,1,2,0,2,0,1,,,,,,,,,,,,,
57027c1f68c641000e0c8970,SCN,2024-06-25_12h40.21.567,LearnStrategy,2023.2.3,Win32,59.88023952,8,1,4,0.078125,0.087239583,1,0,0,0.6105,Pegmatite_06,6,06,4,5,0.611,-0.09375,-0.41796875,1,0,0,1.2313,Pegmatite_rect,6,1.231,1,3,0,3,0,1,,,,,,,,,,,,,
57027c1f68c641000e0c8970,SCN,2024-06-25_12h40.21.567,LearnStrategy,2023.2.3,Win32,59.88023952,8,1,5,0.106770833,0.236979167,1,0,0,0.8943,Obsidian_10,5,10,5,5,0.894,-0.428385417,-0.40625,1,0,0,0.7709,Obsidian_rect,5,0.771,1,4,0,4,0,1,,,,,,,,,,,,,
57027c1f68c641000e0c8970,SCN,2024-06-25_12h40.21.567,LearnStrategy,2023.2.3,Win32,59.88023952,8,1,6,0.26953125,0.263020833,1,0,0,1.4941,Basalt_14,2,14,5,6,1.494,0.3828125,-0.24609375,1,0,0,0.9222,Gabbro_rect,4,0.922,0,5,0,5,0,1,,,,,,,,,,,,,
57027c1f68c641000e0c8970,SCN,2024-06-25_12h40.21.567,LearnStrategy,2023.2.3,Win32,59.88023952,8,1,7,0.118489583,0.41015625,1,0,0,0.996,Peridotite_06,7,06,6,5,0.996,0.06640625,-0.252604167,1,0,0,1.2951,Diorite_rect,3,1.295,0,6,0,6,0,1,,,,,,,,,,,,,
57027c1f68c641000e0c8970,SCN,2024-06-25_12h40.21.567,LearnStrategy,2023.2.3,Win32,59.88023952,8,1,8,0.37109375,0.384114583,1,0,0,1.5653,Obsidian_11,5,11,6,7,1.565,-0.41015625,-0.3984375,1,0,0,0.8753,Obsidian_rect,5,0.875,1,7,0,7,0,1,,,,,,,,,,,,,
57027c1f68c641000e0c8970,SCN,2024-06-25_12h40.21.567,LearnStrategy,2023.2.3,Win32,59.88023952,8,1,9,-0.373697917,0.106770833,1,0,0,2.1105,Basalt_04,2,04,4,2,2.111,-0.141927083,-0.239583333,1,0,0,1.0146,Basalt_rect,2,1.015,1,8,0,8,0,1,,,,,,,,,,,,,
57027c1f68c641000e0c8970,SCN,2024-06-25_12h40.21.567,LearnStrategy,2023.2.3,Win32,59.88023952,8,1,10,0.546875,-0.108072917,1,0,0,1.2278,Basalt_06,2,06,3,8,1.228,-0.08984375,-0.252604167,1,0,0,0.9502,Basalt_rect,2,0.95,1,9,0,9,0,1,,,,,,,,,,,,,
57027c1f68c641000e0c8970,SCN,2024-06-25_12h40.21.567,LearnStrategy,2023.2.3,Win32,59.88023952,8,1,11,-0.072916667,-0.4140625,1,0,0,0.9334,Pegmatite_05,6,05,1,4,0.933,-0.083333333,-0.3828125,1,0,0,1.1442,Pegmatite_rect,6,1.144,1,10,0,10,0,1,,,,,,,,,,,,,
57027c1f68c641000e0c8970,SCN,2024-06-25_12h40.21.567,LearnStrategy,2023.2.3,Win32,59.88023952,8,1,12,0.266927083,-0.41015625,1,0,0,0.8118,Pumice_10,8,10,1,6,0.812,0.345052083,-0.3984375,1,0,0,1.226,Pumice_rect,8,1.226,1,11,0,11,0,1,,,,,,,,,,,,,
57027c1f68c641000e0c8970,SCN,2024-06-25_12h40.21.567,LearnStrategy,2023.2.3,Win32,59.88023952,8,1,13,0.0625,-0.09375,1,0,0,1.2463,Gabbro_15,4,15,3,5,1.246,0.115885417,-0.248697917,1,0,0,3.0247,Diorite_rect,3,3.025,0,12,0,12,0,1,,,,,,,,,,,,,
57027c1f68c641000e0c8970,SCN,2024-06-25_12h40.21.567,LearnStrategy,2023.2.3,Win32,59.88023952,8,1,14,0.111979167,0.265625,1,0,0,1.2327,Obsidian_10,5,10,5,5,1.233,-0.369791667,-0.389322917,1,0,0,1.0028,Obsidian_rect,5,1.003,1,13,0,13,0,1,,,,,,,,,,,,,
57027c1f68c641000e0c8970,SCN,2024-06-25_12h40.21.567,LearnStrategy,2023.2.3,Win32,59.88023952,8,1,15,0.53125,0.24609375,1,0,0,1.0141,Obsidian_05,5,05,5,8,1.014,0.131510417,-0.39453125,1,0,0,1.2898,Peridotite_rect,7,1.29,0,14,0,14,0,1,,,,,,,,,,,,,
57027c1f68c641000e0c8970,SCN,2024-06-25_12h40.21.567,LearnStrategy,2023.2.3,Win32,59.88023952,8,1,16,-0.0703125,0.25390625,1,0,0,0.7997,Pumice_16,8,16,5,4,0.8,0.35546875,-0.401041667,1,0,0,1.3409,Pumice_rect,8,1.341,1,15,0,15,0,1,,,,,,,,,,,,,
57027c1f68c641000e0c8970,SCN,2024-06-25_12h40.21.567,LearnStrategy,2023.2.3,Win32,59.88023952,8,2,1,,,,,,,,3,09,,,,,,,,,,,3,5.129,1,,,,,,0.114583333,-0.259114583,1,0,0,5.1293,Diorite_rect,0,0,0,0,1,
57027c1f68c641000e0c8970,SCN,2024-06-25_12h40.21.567,LearnStrategy,2023.2.3,Win32,59.88023952,8,2,2,,,,,,,,5,09,,,,,,,,,,,5,1.535,1,,,,,,-0.412760417,-0.395833333,1,0,0,1.5354,Obsidian_rect,1,0,1,0,1,
57027c1f68c641000e0c8970,SCN,2024-06-25_12h40.21.567,LearnStrategy,2023.2.3,Win32,59.88023952,8,2,3,,,,,,,,8,05,,,,,,,,,,,8,2.459,1,,,,,,0.376302083,-0.408854167,1,0,0,2.4588,Pumice_rect,2,0,2,0,1,
57027c1f68c641000e0c8970,SCN,2024-06-25_12h40.21.567,LearnStrategy,2023.2.3,Win32,59.88023952,8,2,4,,,,,,,,6,07,,,,,,,,,,,7,1.915,0,,,,,,0.102864583,-0.41015625,1,0,0,1.9153,Peridotite_rect,3,0,3,0,1,
57027c1f68c641000e0c8970,SCN,2024-06-25_12h40.21.567,LearnStrategy,2023.2.3,Win32,59.88023952,8,2,5,,,,,,,,5,12,,,,,,,,,,,5,1.091,1,,,,,,-0.3671875,-0.389322917,1,0,0,1.0907,Obsidian_rect,4,0,4,0,1,
57027c1f68c641000e0c8970,SCN,2024-06-25_12h40.21.567,LearnStrategy,2023.2.3,Win32,59.88023952,8,2,6,,,,,,,,2,01,,,,,,,,,,,2,1.057,1,,,,,,-0.174479167,-0.23046875,1,0,0,1.0565,Basalt_rect,5,0,5,0,1,
57027c1f68c641000e0c8970,SCN,2024-06-25_12h40.21.567,LearnStrategy,2023.2.3,Win32,59.88023952,8,2,7,,,,,,,,8,03,,,,,,,,,,,8,1.852,1,,,,,,0.38671875,-0.388020833,1,0,0,1.8524,Pumice_rect,6,0,6,0,1,
57027c1f68c641000e0c8970,SCN,2024-06-25_12h40.21.567,LearnStrategy,2023.2.3,Win32,59.88023952,8,2,8,,,,,,,,4,08,,,,,,,,,,,4,2.082,1,,,,,,0.376302083,-0.270833333,1,0,0,2.0823,Gabbro_rect,7,0,7,0,1,
57027c1f68c641000e0c8970,SCN,2024-06-25_12h40.21.567,LearnStrategy,2023.2.3,Win32,59.88023952,8,2,9,,,,,,,,7,02,,,,,,,,,,,3,1.922,0,,,,,,0.118489583,-0.264322917,1,0,0,1.9224,Diorite_rect,8,0,8,0,1,
57027c1f68c641000e0c8970,SCN,2024-06-25_12h40.21.567,LearnStrategy,2023.2.3,Win32,59.88023952,8,2,10,,,,,,,,4,11,,,,,,,,,,,2,1.559,0,,,,,,-0.10546875,-0.25,1,0,0,1.5591,Basalt_rect,9,0,9,0,1,
57027c1f68c641000e0c8970,SCN,2024-06-25_12h40.21.567,LearnStrategy,2023.2.3,Win32,59.88023952,8,2,11,,,,,,,,7,10,,,,,,,,,,,7,2.084,1,,,,,,0.115885417,-0.395833333,1,0,0,2.0835,Peridotite_rect,10,0,10,0,1,
57027c1f68c641000e0c8970,SCN,2024-06-25_12h40.21.567,LearnStrategy,2023.2.3,Win32,59.88023952,8,2,12,,,,,,,,6,11,,,,,,,,,,,6,1.341,1,,,,,,-0.092447917,-0.401041667,1,0,0,1.3413,Pegmatite_rect,11,0,11,0,1,
57027c1f68c641000e0c8970,SCN,2024-06-25_12h40.21.567,LearnStrategy,2023.2.3,Win32,59.88023952,8,2,13,,,,,,,,1,11,,,,,,,,,,,1,1.276,1,,,,,,-0.352864583,-0.239583333,1,0,0,1.2759,Andesite_rect,12,0,12,0,1,
57027c1f68c641000e0c8970,SCN,2024-06-25_12h40.21.567,LearnStrategy,2023.2.3,Win32,59.88023952,8,2,14,,,,,,,,3,08,,,,,,,,,,,3,1.92,1,,,,,,0.125,-0.25,1,0,0,1.9199,Diorite_rect,13,0,13,0,1,
57027c1f68c641000e0c8970,SCN,2024-06-25_12h40.21.567,LearnStrategy,2023.2.3,Win32,59.88023952,8,2,15,,,,,,,,2,09,,,,,,,,,,,2,1.145,1,,,,,,-0.13671875,-0.244791667,1,0,0,1.1445,Basalt_rect,14,0,14,0,1,
57027c1f68c641000e0c8970,SCN,2024-06-25_12h40.21.567,LearnStrategy,2023.2.3,Win32,59.88023952,8,2,16,,,,,,,,1,07,,,,,,,,,,,1,1.198,1,,,,,,-0.346354167,-0.229166667,1,0,0,1.1984,Andesite_rect,15,0,15,0,1,
57027c1f68c641000e0c8970,SCN,2024-06-25_12h40.21.567,LearnStrategy,2023.2.3,Win32,59.88023952,9,1,1,-0.053385417,0.118489583,1,0,0,0.7319,Peridotite_07,7,07,4,4,0.732,-0.34765625,-0.251302083,1,0,0,1.492,Andesite_rect,1,1.492,0,0,0,0,0,1,,,,,,,,,,,,,
57027c1f68c641000e0c8970,SCN,2024-06-25_12h40.21.567,LearnStrategy,2023.2.3,Win32,59.88023952,9,1,2,0.06640625,0.083333333,1,0,0,0.6495,Pegmatite_06,6,06,4,5,0.649,-0.100260417,-0.401041667,1,0,0,0.8178,Pegmatite_rect,6,0.818,1,1,0,1,0,1,,,,,,,,,,,,,
57027c1f68c641000e0c8970,SCN,2024-06-25_12h40.21.567,LearnStrategy,2023.2.3,Win32,59.88023952,9,1,3,-0.06640625,0.44921875,1,0,0,0.8118,Basalt_02,2,02,6,4,0.812,-0.1171875,-0.24609375,1,0,0,0.9856,Basalt_rect,2,0.986,1,2,0,2,0,1,,,,,,,,,,,,,
57027c1f68c641000e0c8970,SCN,2024-06-25_12h40.21.567,LearnStrategy,2023.2.3,Win32,59.88023952,9,1,4,-0.36328125,0.096354167,1,0,0,1.4811,Basalt_04,2,04,4,2,1.481,-0.139322917,-0.255208333,1,0,0,1.3767,Basalt_rect,2,1.377,1,3,0,3,0,1,,,,,,,,,,,,,
57027c1f68c641000e0c8970,SCN,2024-06-25_12h40.21.567,LearnStrategy,2023.2.3,Win32,59.88023952,9,1,5,0.537760417,0.076822917,1,0,0,1.1473,Peridotite_16,7,16,4,8,1.147,0.1875,-0.384114583,1,0,0,1.5589,Peridotite_rect,7,1.559,1,4,0,4,0,1,,,,,,,,,,,,,
57027c1f68c641000e0c8970,SCN,2024-06-25_12h40.21.567,LearnStrategy,2023.2.3,Win32,59.88023952,9,1,6,0.109375,-0.399739583,1,0,0,0.8958,Pegmatite_03,6,03,1,5,0.896,-0.095052083,-0.404947917,1,0,0,1.738,Pegmatite_rect,6,1.738,1,5,0,5,0,1,,,,,,,,,,,,,
57027c1f68c641000e0c8970,SCN,2024-06-25_12h40.21.567,LearnStrategy,2023.2.3,Win32,59.88023952,9,1,7,-0.375,-0.399739583,1,0,0,0.8156,Diorite_02,3,02,1,2,0.816,0.138020833,-0.260416667,1,0,0,2.2502,Diorite_rect,3,2.25,1,6,0,6,0,1,,,,,,,,,,,,,
57027c1f68c641000e0c8970,SCN,2024-06-25_12h40.21.567,LearnStrategy,2023.2.3,Win32,59.88023952,9,1,8,-0.395833333,-0.109375,1,0,0,1.1793,Gabbro_01,4,01,3,2,1.179,-0.354166667,-0.239583333,1,0,0,1.2345,Andesite_rect,1,1.235,0,7,0,7,0,1,,,,,,,,,,,,,
57027c1f68c641000e0c8970,SCN,2024-06-25_12h40.21.567,LearnStrategy,2023.2.3,Win32,59.88023952,9,1,9,0.37890625,0.096354167,1,0,0,1.412,Pumice_14,8,14,4,7,1.412,0.345052083,-0.407552083,1,0,0,0.9393,Pumice_rect,8,0.939,1,8,0,8,0,1,,,,,,,,,,,,,
57027c1f68c641000e0c8970,SCN,2024-06-25_12h40.21.567,LearnStrategy,2023.2.3,Win32,59.88023952,9,1,10,-0.58203125,-0.444010417,1,0,0,0.8788,Diorite_10,3,10,1,1,0.879,-0.388020833,-0.2578125,1,0,0,1.1993,Andesite_rect,1,1.199,0,9,0,9,0,1,,,,,,,,,,,,,
57027c1f68c641000e0c8970,SCN,2024-06-25_12h40.21.567,LearnStrategy,2023.2.3,Win32,59.88023952,9,1,11,-0.20703125,0.092447917,1,0,0,1.3425,Pegmatite_15,6,15,4,3,1.342,-0.095052083,-0.380208333,1,0,0,0.6773,Pegmatite_rect,6,0.677,1,10,0,10,0,1,,,,,,,,,,,,,
57027c1f68c641000e0c8970,SCN,2024-06-25_12h40.21.567,LearnStrategy,2023.2.3,Win32,59.88023952,9,1,12,0.059895833,0.26171875,1,0,0,0.844,Obsidian_10,5,10,5,5,0.844,-0.401041667,-0.381510417,1,0,0,0.8599,Obsidian_rect,5,0.86,1,11,0,11,0,1,,,,,,,,,,,,,
57027c1f68c641000e0c8970,SCN,2024-06-25_12h40.21.567,LearnStrategy,2023.2.3,Win32,59.88023952,9,1,13,-0.0390625,0.415364583,1,0,0,0.8252,Basalt_02,2,02,6,4,0.825,-0.059895833,-0.25390625,1,0,0,1.0336,Basalt_rect,2,1.034,1,12,0,12,0,1,,,,,,,,,,,,,
57027c1f68c641000e0c8970,SCN,2024-06-25_12h40.21.567,LearnStrategy,2023.2.3,Win32,59.88023952,9,1,14,-0.075520833,-0.26171875,1,0,0,0.8365,Diorite_06,3,06,2,4,0.837,0.12109375,-0.233072917,1,0,0,1.3762,Diorite_rect,3,1.376,1,13,0,13,0,1,,,,,,,,,,,,,
57027c1f68c641000e0c8970,SCN,2024-06-25_12h40.21.567,LearnStrategy,2023.2.3,Win32,59.88023952,9,1,15,0.341145833,-0.110677083,1,0,0,1.2472,Obsidian_16,5,16,3,7,1.247,-0.057291667,-0.395833333,1,0,0,1.9327,Pegmatite_rect,6,1.933,0,14,0,14,0,1,,,,,,,,,,,,,
57027c1f68c641000e0c8970,SCN,2024-06-25_12h40.21.567,LearnStrategy,2023.2.3,Win32,59.88023952,9,1,16,-0.0859375,-0.115885417,1,0,0,1.0946,Gabbro_10,4,10,3,4,1.095,0.416666667,-0.243489583,1,0,0,1.4203,Gabbro_rect,4,1.42,1,15,0,15,0,1,,,,,,,,,,,,,
57027c1f68c641000e0c8970,SCN,2024-06-25_12h40.21.567,LearnStrategy,2023.2.3,Win32,59.88023952,9,2,1,,,,,,,,3,14,,,,,,,,,,,3,2.046,1,,,,,,0.125,-0.256510417,1,0,0,2.046,Diorite_rect,0,0,0,0,1,
57027c1f68c641000e0c8970,SCN,2024-06-25_12h40.21.567,LearnStrategy,2023.2.3,Win32,59.88023952,9,2,2,,,,,,,,7,15,,,,,,,,,,,7,2.109,1,,,,,,0.084635417,-0.408854167,1,0,0,2.1085,Peridotite_rect,1,0,1,0,1,
57027c1f68c641000e0c8970,SCN,2024-06-25_12h40.21.567,LearnStrategy,2023.2.3,Win32,59.88023952,9,2,3,,,,,,,,6,16,,,,,,,,,,,6,3.194,1,,,,,,-0.061197917,-0.399739583,1,0,0,3.1942,Pegmatite_rect,2,0,2,0,1,
57027c1f68c641000e0c8970,SCN,2024-06-25_12h40.21.567,LearnStrategy,2023.2.3,Win32,59.88023952,9,2,4,,,,,,,,1,10,,,,,,,,,,,2,1.701,0,,,,,,-0.08203125,-0.26171875,1,0,0,1.7014,Basalt_rect,3,0,3,0,1,
57027c1f68c641000e0c8970,SCN,2024-06-25_12h40.21.567,LearnStrategy,2023.2.3,Win32,59.88023952,9,2,5,,,,,,,,4,14,,,,,,,,,,,4,2.433,1,,,,,,0.389322917,-0.259114583,1,0,0,2.4334,Gabbro_rect,4,0,4,0,1,
57027c1f68c641000e0c8970,SCN,2024-06-25_12h40.21.567,LearnStrategy,2023.2.3,Win32,59.88023952,9,2,6,,,,,,,,2,12,,,,,,,,,,,2,1.583,1,,,,,,-0.10546875,-0.25,1,0,0,1.5834,Basalt_rect,5,0,5,0,1,
57027c1f68c641000e0c8970,SCN,2024-06-25_12h40.21.567,LearnStrategy,2023.2.3,Win32,59.88023952,9,2,7,,,,,,,,2,05,,,,,,,,,,,4,1.401,0,,,,,,0.393229167,-0.229166667,1,0,0,1.4009,Gabbro_rect,6,0,6,0,1,
57027c1f68c641000e0c8970,SCN,2024-06-25_12h40.21.567,LearnStrategy,2023.2.3,Win32,59.88023952,9,2,8,,,,,,,,8,08,,,,,,,,,,,2,3.272,0,,,,,,-0.106770833,-0.263020833,1,0,0,3.2722,Basalt_rect,7,0,7,0,1,
57027c1f68c641000e0c8970,SCN,2024-06-25_12h40.21.567,LearnStrategy,2023.2.3,Win32,59.88023952,9,2,9,,,,,,,,4,05,,,,,,,,,,,4,2.887,1,,,,,,0.388020833,-0.248697917,1,0,0,2.8869,Gabbro_rect,8,0,8,0,1,
57027c1f68c641000e0c8970,SCN,2024-06-25_12h40.21.567,LearnStrategy,2023.2.3,Win32,59.88023952,9,2,10,,,,,,,,5,08,,,,,,,,,,,5,1.213,1,,,,,,-0.3984375,-0.37890625,1,0,0,1.2131,Obsidian_rect,9,0,9,0,1,
57027c1f68c641000e0c8970,SCN,2024-06-25_12h40.21.567,LearnStrategy,2023.2.3,Win32,59.88023952,9,2,11,,,,,,,,1,09,,,,,,,,,,,2,0.935,0,,,,,,-0.087239583,-0.26171875,1,0,0,0.9351,Basalt_rect,10,0,10,0,1,
57027c1f68c641000e0c8970,SCN,2024-06-25_12h40.21.567,LearnStrategy,2023.2.3,Win32,59.88023952,9,2,12,,,,,,,,6,09,,,,,,,,,,,6,1.188,1,,,,,,-0.096354167,-0.419270833,1,0,0,1.1881,Pegmatite_rect,11,0,11,0,1,
57027c1f68c641000e0c8970,SCN,2024-06-25_12h40.21.567,LearnStrategy,2023.2.3,Win32,59.88023952,9,2,13,,,,,,,,8,09,,,,,,,,,,,8,1.234,1,,,,,,0.37890625,-0.391927083,1,0,0,1.2341,Pumice_rect,12,0,12,0,1,
57027c1f68c641000e0c8970,SCN,2024-06-25_12h40.21.567,LearnStrategy,2023.2.3,Win32,59.88023952,9,2,14,,,,,,,,3,13,,,,,,,,,,,7,3.922,0,,,,,,0.141927083,-0.399739583,1,0,0,3.922,Peridotite_rect,13,0,13,0,1,
57027c1f68c641000e0c8970,SCN,2024-06-25_12h40.21.567,LearnStrategy,2023.2.3,Win32,59.88023952,9,2,15,,,,,,,,5,07,,,,,,,,,,,5,1.503,1,,,,,,-0.427083333,-0.397135417,1,0,0,1.5025,Obsidian_rect,14,0,14,0,1,
57027c1f68c641000e0c8970,SCN,2024-06-25_12h40.21.567,LearnStrategy,2023.2.3,Win32,59.88023952,9,2,16,,,,,,,,7,13,,,,,,,,,,,6,1.451,0,,,,,,-0.110677083,-0.391927083,1,0,0,1.4506,Pegmatite_rect,15,0,15,0,1,
57027c1f68c641000e0c8970,SCN,2024-06-25_12h40.21.567,LearnStrategy,2023.2.3,Win32,59.88023952,,,,,,,,,,,,,,,,,,,,,,,,,,,,,,,,,,,,,,,,,,,0
57027c1f68c641000e0c8970,SCN,2024-06-25_12h40.21.567,LearnStrategy,2023.2.3,Win32,59.88023952,,,,,,,,,,,,,,,,,,,,,,,,,,,,,,,,,,,,,,,,,,,
57027c1f68c641000e0c8970,SCN,2024-06-25_12h40.21.567,LearnStrategy,2023.2.3,Win32,59.88023952,,,,,,,,,,,3,10,1,1,,,,,,,,,,,,,,,,,,,,,,,,,,,,,
57027c1f68c641000e0c8970,SCN,2024-06-25_12h40.21.567,LearnStrategy,2023.2.3,Win32,59.88023952,,,,,,,,,,,3,02,1,2,,,,,,,,,,,,,,,,,,,,,,,,,,,,,
57027c1f68c641000e0c8970,SCN,2024-06-25_12h40.21.567,LearnStrategy,2023.2.3,Win32,59.88023952,,,,,,,,,,,5,02,1,3,,,,,,,,,,,,,,,,,,,,,,,,,,,,,
57027c1f68c641000e0c8970,SCN,2024-06-25_12h40.21.567,LearnStrategy,2023.2.3,Win32,59.88023952,,,,,,,,,,,6,05,1,4,,,,,,,,,,,,,,,,,,,,,,,,,,,,,
57027c1f68c641000e0c8970,SCN,2024-06-25_12h40.21.567,LearnStrategy,2023.2.3,Win32,59.88023952,,,,,,,,,,,6,03,1,5,,,,,,,,,,,,,,,,,,,,,,,,,,,,,
57027c1f68c641000e0c8970,SCN,2024-06-25_12h40.21.567,LearnStrategy,2023.2.3,Win32,59.88023952,,,,,,,,,,,8,10,1,6,,,,,,,,,,,,,,,,,,,,,,,,,,,,,
57027c1f68c641000e0c8970,SCN,2024-06-25_12h40.21.567,LearnStrategy,2023.2.3,Win32,59.88023952,,,,,,,,,,,1,06,1,7,,,,,,,,,,,,,,,,,,,,,,,,,,,,,
57027c1f68c641000e0c8970,SCN,2024-06-25_12h40.21.567,LearnStrategy,2023.2.3,Win32,59.88023952,,,,,,,,,,,4,16,1,8,,,,,,,,,,,,,,,,,,,,,,,,,,,,,
57027c1f68c641000e0c8970,SCN,2024-06-25_12h40.21.567,LearnStrategy,2023.2.3,Win32,59.88023952,,,,,,,,,,,3,07,2,1,,,,,,,,,,,,,,,,,,,,,,,,,,,,,
57027c1f68c641000e0c8970,SCN,2024-06-25_12h40.21.567,LearnStrategy,2023.2.3,Win32,59.88023952,,,,,,,,,,,3,16,2,2,,,,,,,,,,,,,,,,,,,,,,,,,,,,,
57027c1f68c641000e0c8970,SCN,2024-06-25_12h40.21.567,LearnStrategy,2023.2.3,Win32,59.88023952,,,,,,,,,,,1,16,2,3,,,,,,,,,,,,,,,,,,,,,,,,,,,,,
57027c1f68c641000e0c8970,SCN,2024-06-25_12h40.21.567,LearnStrategy,2023.2.3,Win32,59.88023952,,,,,,,,,,,3,06,2,4,,,,,,,,,,,,,,,,,,,,,,,,,,,,,
57027c1f68c641000e0c8970,SCN,2024-06-25_12h40.21.567,LearnStrategy,2023.2.3,Win32,59.88023952,,,,,,,,,,,1,14,2,5,,,,,,,,,,,,,,,,,,,,,,,,,,,,,
57027c1f68c641000e0c8970,SCN,2024-06-25_12h40.21.567,LearnStrategy,2023.2.3,Win32,59.88023952,,,,,,,,,,,7,05,2,6,,,,,,,,,,,,,,,,,,,,,,,,,,,,,
57027c1f68c641000e0c8970,SCN,2024-06-25_12h40.21.567,LearnStrategy,2023.2.3,Win32,59.88023952,,,,,,,,,,,8,15,2,7,,,,,,,,,,,,,,,,,,,,,,,,,,,,,
57027c1f68c641000e0c8970,SCN,2024-06-25_12h40.21.567,LearnStrategy,2023.2.3,Win32,59.88023952,,,,,,,,,,,4,12,2,8,,,,,,,,,,,,,,,,,,,,,,,,,,,,,
57027c1f68c641000e0c8970,SCN,2024-06-25_12h40.21.567,LearnStrategy,2023.2.3,Win32,59.88023952,,,,,,,,,,,5,06,3,1,,,,,,,,,,,,,,,,,,,,,,,,,,,,,
57027c1f68c641000e0c8970,SCN,2024-06-25_12h40.21.567,LearnStrategy,2023.2.3,Win32,59.88023952,,,,,,,,,,,4,01,3,2,,,,,,,,,,,,,,,,,,,,,,,,,,,,,
57027c1f68c641000e0c8970,SCN,2024-06-25_12h40.21.567,LearnStrategy,2023.2.3,Win32,59.88023952,,,,,,,,,,,2,11,3,3,,,,,,,,,,,,,,,,,,,,,,,,,,,,,
57027c1f68c641000e0c8970,SCN,2024-06-25_12h40.21.567,LearnStrategy,2023.2.3,Win32,59.88023952,,,,,,,,,,,4,10,3,4,,,,,,,,,,,,,,,,,,,,,,,,,,,,,
57027c1f68c641000e0c8970,SCN,2024-06-25_12h40.21.567,LearnStrategy,2023.2.3,Win32,59.88023952,,,,,,,,,,,4,15,3,5,,,,,,,,,,,,,,,,,,,,,,,,,,,,,
57027c1f68c641000e0c8970,SCN,2024-06-25_12h40.21.567,LearnStrategy,2023.2.3,Win32,59.88023952,,,,,,,,,,,1,05,3,6,,,,,,,,,,,,,,,,,,,,,,,,,,,,,
57027c1f68c641000e0c8970,SCN,2024-06-25_12h40.21.567,LearnStrategy,2023.2.3,Win32,59.88023952,,,,,,,,,,,5,16,3,7,,,,,,,,,,,,,,,,,,,,,,,,,,,,,
57027c1f68c641000e0c8970,SCN,2024-06-25_12h40.21.567,LearnStrategy,2023.2.3,Win32,59.88023952,,,,,,,,,,,2,06,3,8,,,,,,,,,,,,,,,,,,,,,,,,,,,,,
57027c1f68c641000e0c8970,SCN,2024-06-25_12h40.21.567,LearnStrategy,2023.2.3,Win32,59.88023952,,,,,,,,,,,2,10,4,1,,,,,,,,,,,,,,,,,,,,,,,,,,,,,
57027c1f68c641000e0c8970,SCN,2024-06-25_12h40.21.567,LearnStrategy,2023.2.3,Win32,59.88023952,,,,,,,,,,,2,04,4,2,,,,,,,,,,,,,,,,,,,,,,,,,,,,,
57027c1f68c641000e0c8970,SCN,2024-06-25_12h40.21.567,LearnStrategy,2023.2.3,Win32,59.88023952,,,,,,,,,,,6,15,4,3,,,,,,,,,,,,,,,,,,,,,,,,,,,,,
57027c1f68c641000e0c8970,SCN,2024-06-25_12h40.21.567,LearnStrategy,2023.2.3,Win32,59.88023952,,,,,,,,,,,7,07,4,4,,,,,,,,,,,,,,,,,,,,,,,,,,,,,
57027c1f68c641000e0c8970,SCN,2024-06-25_12h40.21.567,LearnStrategy,2023.2.3,Win32,59.88023952,,,,,,,,,,,6,06,4,5,,,,,,,,,,,,,,,,,,,,,,,,,,,,,
57027c1f68c641000e0c8970,SCN,2024-06-25_12h40.21.567,LearnStrategy,2023.2.3,Win32,59.88023952,,,,,,,,,,,6,10,4,6,,,,,,,,,,,,,,,,,,,,,,,,,,,,,
57027c1f68c641000e0c8970,SCN,2024-06-25_12h40.21.567,LearnStrategy,2023.2.3,Win32,59.88023952,,,,,,,,,,,8,14,4,7,,,,,,,,,,,,,,,,,,,,,,,,,,,,,
57027c1f68c641000e0c8970,SCN,2024-06-25_12h40.21.567,LearnStrategy,2023.2.3,Win32,59.88023952,,,,,,,,,,,7,16,4,8,,,,,,,,,,,,,,,,,,,,,,,,,,,,,
57027c1f68c641000e0c8970,SCN,2024-06-25_12h40.21.567,LearnStrategy,2023.2.3,Win32,59.88023952,,,,,,,,,,,3,15,5,1,,,,,,,,,,,,,,,,,,,,,,,,,,,,,
57027c1f68c641000e0c8970,SCN,2024-06-25_12h40.21.567,LearnStrategy,2023.2.3,Win32,59.88023952,,,,,,,,,,,7,12,5,2,,,,,,,,,,,,,,,,,,,,,,,,,,,,,
57027c1f68c641000e0c8970,SCN,2024-06-25_12h40.21.567,LearnStrategy,2023.2.3,Win32,59.88023952,,,,,,,,,,,6,13,5,3,,,,,,,,,,,,,,,,,,,,,,,,,,,,,
57027c1f68c641000e0c8970,SCN,2024-06-25_12h40.21.567,LearnStrategy,2023.2.3,Win32,59.88023952,,,,,,,,,,,8,16,5,4,,,,,,,,,,,,,,,,,,,,,,,,,,,,,
57027c1f68c641000e0c8970,SCN,2024-06-25_12h40.21.567,LearnStrategy,2023.2.3,Win32,59.88023952,,,,,,,,,,,5,10,5,5,,,,,,,,,,,,,,,,,,,,,,,,,,,,,
57027c1f68c641000e0c8970,SCN,2024-06-25_12h40.21.567,LearnStrategy,2023.2.3,Win32,59.88023952,,,,,,,,,,,2,14,5,6,,,,,,,,,,,,,,,,,,,,,,,,,,,,,
57027c1f68c641000e0c8970,SCN,2024-06-25_12h40.21.567,LearnStrategy,2023.2.3,Win32,59.88023952,,,,,,,,,,,8,13,5,7,,,,,,,,,,,,,,,,,,,,,,,,,,,,,
57027c1f68c641000e0c8970,SCN,2024-06-25_12h40.21.567,LearnStrategy,2023.2.3,Win32,59.88023952,,,,,,,,,,,5,05,5,8,,,,,,,,,,,,,,,,,,,,,,,,,,,,,
57027c1f68c641000e0c8970,SCN,2024-06-25_12h40.21.567,LearnStrategy,2023.2.3,Win32,59.88023952,,,,,,,,,,,7,08,6,1,,,,,,,,,,,,,,,,,,,,,,,,,,,,,
57027c1f68c641000e0c8970,SCN,2024-06-25_12h40.21.567,LearnStrategy,2023.2.3,Win32,59.88023952,,,,,,,,,,,1,01,6,2,,,,,,,,,,,,,,,,,,,,,,,,,,,,,
57027c1f68c641000e0c8970,SCN,2024-06-25_12h40.21.567,LearnStrategy,2023.2.3,Win32,59.88023952,,,,,,,,,,,4,09,6,3,,,,,,,,,,,,,,,,,,,,,,,,,,,,,
57027c1f68c641000e0c8970,SCN,2024-06-25_12h40.21.567,LearnStrategy,2023.2.3,Win32,59.88023952,,,,,,,,,,,2,02,6,4,,,,,,,,,,,,,,,,,,,,,,,,,,,,,
57027c1f68c641000e0c8970,SCN,2024-06-25_12h40.21.567,LearnStrategy,2023.2.3,Win32,59.88023952,,,,,,,,,,,7,06,6,5,,,,,,,,,,,,,,,,,,,,,,,,,,,,,
57027c1f68c641000e0c8970,SCN,2024-06-25_12h40.21.567,LearnStrategy,2023.2.3,Win32,59.88023952,,,,,,,,,,,8,02,6,6,,,,,,,,,,,,,,,,,,,,,,,,,,,,,
57027c1f68c641000e0c8970,SCN,2024-06-25_12h40.21.567,LearnStrategy,2023.2.3,Win32,59.88023952,,,,,,,,,,,5,11,6,7,,,,,,,,,,,,,,,,,,,,,,,,,,,,,
57027c1f68c641000e0c8970,SCN,2024-06-25_12h40.21.567,LearnStrategy,2023.2.3,Win32,59.88023952,,,,,,,,,,,1,04,6,8,,,,,,,,,,,,,,,,,,,,,,,,,,,,,