participant,condition,date,expName,psychopyVersion,OS,frameRate,block,phase,trial,learn_mouse.x,learn_mouse.y,learn_mouse.leftButton,learn_mouse.midButton,learn_mouse.rightButton,learn_mouse.time,learn_mouse.clicked_name,cat,token,row,col,t_select,cat_rec,token_rec,cat_mouse_l.x,cat_mouse_l.y,cat_mouse_l.leftButton,cat_mouse_l.midButton,cat_mouse_l.rightButton,cat_mouse_l.time,cat_mouse_l.clicked_name,resp,t_resp,corr,train_trials.thisRepN,train_trials.thisTrialN,train_trials.thisN,train_trials.thisIndex,train_trials.ran,cat_mouse_t.x,cat_mouse_t.y,cat_mouse_t.leftButton,cat_mouse_t.midButton,cat_mouse_t.rightButton,cat_mouse_t.time,cat_mouse_t.clicked_name,test_trials.thisRepN,test_trials.thisTrialN,test_trials.thisN,test_trials.thisIndex,test_trials.ran
575865ba7b74a80006de2689,SCR,2024-06-10_12h19.40.412,LearnStrategy,2023.2.3,Win32,60.0240096,,,,,,,,,,,,,,,,,,,,,,,,,,,,,,,,,,,,,,,,,,,,
575865ba7b74a80006de2689,SCR,2024-06-10_12h19.40.412,LearnStrategy,2023.2.3,Win32,60.0240096,1,1,1,-0.382407407,0.401851852,1,0,0,3.149,Basalt_16,2,16,6,2,3.149,2,16,0.32962963,-0.405555556,1,0,0,7.497,Pumice_rect,8,7.497,0,0,0,0,0,1,,,,,,,,,,,,
575865ba7b74a80006de2689,SCR,2024-06-10_12h19.40.412,LearnStrategy,2023.2.3,Win32,60.0240096,1,1,2,0.066666667,-0.105555556,1,0,0,2.096,Andesite_07,1,07,3,5,2.096,1,07,0.336111111,-0.228703704,1,0,0,5.635,Gabbro_rect,4,5.635,0,1,0,1,0,1,,,,,,,,,,,,
575865ba7b74a80006de2689,SCR,2024-06-10_12h19.40.412,LearnStrategy,2023.2.3,Win32,60.0240096,1,1,3,0.248148148,0.261111111,1,0,0,3.064,Gabbro_08,4,08,5,6,3.064,4,08,-0.385185185,-0.387037037,1,0,0,8.837,Obsidian_rect,5,8.837,0,2,0,2,0,1,,,,,,,,,,,,
575865ba7b74a80006de2689,SCR,2024-06-10_12h19.40.412,LearnStrategy,2023.2.3,Win32,60.0240096,1,1,4,-0.048148148,0.087037037,1,0,0,1.188,Diorite_10,3,10,4,4,1.188,3,10,0.156481481,-0.243518519,1,0,0,2.597,Diorite_rect,3,2.597,1,3,0,3,0,1,,,,,,,,,,,,
575865ba7b74a80006de2689,SCR,2024-06-10_12h19.40.412,LearnStrategy,2023.2.3,Win32,60.0240096,1,1,5,-0.375,-0.098148148,1,0,0,1.454,Obsidian_16,5,16,3,2,1.454,5,16,-0.35462963,-0.402777778,1,0,0,4.02,Obsidian_rect,5,4.02,1,4,0,4,0,1,,,,,,,,,,,,
575865ba7b74a80006de2689,SCR,2024-06-10_12h19.40.412,LearnStrategy,2023.2.3,Win32,60.0240096,1,1,6,0.216666667,0.080555556,1,0,0,1.077,Pegmatite_09,6,09,4,6,1.077,6,09,-0.059259259,-0.39537037,1,0,0,4.349,Pegmatite_rect,6,4.349,1,5,0,5,0,1,,,,,,,,,,,,
575865ba7b74a80006de2689,SCR,2024-06-10_12h19.40.412,LearnStrategy,2023.2.3,Win32,60.0240096,1,1,7,-0.062962963,-0.244444444,1,0,0,1.451,Pumice_03,8,03,2,4,1.451,8,03,0.082407407,-0.407407407,1,0,0,3.321,Peridotite_rect,7,3.321,0,6,0,6,0,1,,,,,,,,,,,,
575865ba7b74a80006de2689,SCR,2024-06-10_12h19.40.412,LearnStrategy,2023.2.3,Win32,60.0240096,1,1,8,0.208333333,-0.262962963,1,0,0,2.165,Gabbro_10,4,10,2,6,2.165,4,10,-0.342592593,-0.263888889,1,0,0,5.575,Andesite_rect,1,5.575,0,7,0,7,0,1,,,,,,,,,,,,
575865ba7b74a80006de2689,SCR,2024-06-10_12h19.40.412,LearnStrategy,2023.2.3,Win32,60.0240096,1,1,9,-0.223148148,-0.283333333,1,0,0,1.244,Pumice_10,8,10,2,3,1.244,8,10,0.362037037,-0.242592593,1,0,0,3.774,Gabbro_rect,4,3.774,0,8,0,8,0,1,,,,,,,,,,,,
575865ba7b74a80006de2689,SCR,2024-06-10_12h19.40.412,LearnStrategy,2023.2.3,Win32,60.0240096,1,1,10,0.399074074,-0.448148148,1,0,0,1.759,Pegmatite_16,6,16,1,7,1.759,6,16,-0.078703704,-0.40462963,1,0,0,9.684,Pegmatite_rect,6,9.684,1,9,0,9,0,1,,,,,,,,,,,,
575865ba7b74a80006de2689,SCR,2024-06-10_12h19.40.412,LearnStrategy,2023.2.3,Win32,60.0240096,1,1,11,-0.057407407,0.387962963,1,0,0,1.471,Obsidian_14,5,14,6,4,1.471,5,14,-0.377777778,-0.389814815,1,0,0,2.293,Obsidian_rect,5,2.293,1,10,0,10,0,1,,,,,,,,,,,,
575865ba7b74a80006de2689,SCR,2024-06-10_12h19.40.412,LearnStrategy,2023.2.3,Win32,60.0240096,1,1,12,-0.55,-0.389814815,1,0,0,1.49,Peridotite_07,7,07,1,1,1.49,7,07,0.094444444,-0.403703704,1,0,0,13.16,Peridotite_rect,7,13.16,1,11,0,11,0,1,,,,,,,,,,,,
575865ba7b74a80006de2689,SCR,2024-06-10_12h19.40.412,LearnStrategy,2023.2.3,Win32,60.0240096,1,1,13,-0.221296296,-0.110185185,1,0,0,0.996,Basalt_08,2,08,3,3,0.996,2,08,-0.387962963,-0.400925926,1,0,0,2.204,Obsidian_rect,5,2.204,0,12,0,12,0,1,,,,,,,,,,,,
575865ba7b74a80006de2689,SCR,2024-06-10_12h19.40.412,LearnStrategy,2023.2.3,Win32,60.0240096,1,1,14,-0.538888889,0.07962963,1,0,0,1.18,Andesite_10,1,10,4,1,1.18,1,10,0.381481481,-0.239814815,1,0,0,7.103,Gabbro_rect,4,7.103,0,13,0,13,0,1,,,,,,,,,,,,
575865ba7b74a80006de2689,SCR,2024-06-10_12h19.40.412,LearnStrategy,2023.2.3,Win32,60.0240096,1,1,15,0.536111111,0.237962963,1,0,0,1.345,Diorite_12,3,12,5,8,1.345,3,12,-0.099074074,-0.392592593,1,0,0,5.311,Pegmatite_rect,6,5.311,0,14,0,14,0,1,,,,,,,,,,,,
575865ba7b74a80006de2689,SCR,2024-06-10_12h19.40.412,LearnStrategy,2023.2.3,Win32,60.0240096,1,1,16,-0.212962963,0.396296296,1,0,0,1.479,Peridotite_13,7,13,6,3,1.479,7,13,0.108333333,-0.392592593,1,0,0,3.168,Peridotite_rect,7,3.168,1,15,0,15,0,1,,,,,,,,,,,,
575865ba7b74a80006de2689,SCR,2024-06-10_12h19.40.412,LearnStrategy,2023.2.3,Win32,60.0240096,1,2,1,,,,,,,,6,15,,,,,,,,,,,,,6,8.625,1,,,,,,-0.125925926,-0.419444444,1,0,0,8.625,Pegmatite_rect,0,0,0,0,1
575865ba7b74a80006de2689,SCR,2024-06-10_12h19.40.412,LearnStrategy,2023.2.3,Win32,60.0240096,1,2,2,,,,,,,,7,16,,,,,,,,,,,,,7,2.331,1,,,,,,0.117592593,-0.407407407,1,0,0,2.331,Peridotite_rect,1,0,1,0,1
575865ba7b74a80006de2689,SCR,2024-06-10_12h19.40.412,LearnStrategy,2023.2.3,Win32,60.0240096,1,2,3,,,,,,,,4,05,,,,,,,,,,,,,3,5.352,0,,,,,,0.134259259,-0.262037037,1,0,0,5.352,Diorite_rect,2,0,2,0,1
575865ba7b74a80006de2689,SCR,2024-06-10_12h19.40.412,LearnStrategy,2023.2.3,Win32,60.0240096,1,2,4,,,,,,,,5,06,,,,,,,,,,,,,5,2.532,1,,,,,,-0.407407407,-0.400925926,1,0,0,2.532,Obsidian_rect,3,0,3,0,1
575865ba7b74a80006de2689,SCR,2024-06-10_12h19.40.412,LearnStrategy,2023.2.3,Win32,60.0240096,1,2,5,,,,,,,,1,02,,,,,,,,,,,,,2,5.932,0,,,,,,-0.151851852,-0.237962963,1,0,0,5.932,Basalt_rect,4,0,4,0,1
575865ba7b74a80006de2689,SCR,2024-06-10_12h19.40.412,LearnStrategy,2023.2.3,Win32,60.0240096,1,2,6,,,,,,,,6,10,,,,,,,,,,,,,7,8.962,0,,,,,,0.085185185,-0.393518519,1,0,0,8.962,Peridotite_rect,5,0,5,0,1
575865ba7b74a80006de2689,SCR,2024-06-10_12h19.40.412,LearnStrategy,2023.2.3,Win32,60.0240096,1,2,7,,,,,,,,5,09,,,,,,,,,,,,,5,1.773,1,,,,,,-0.353703704,-0.393518519,1,0,0,1.773,Obsidian_rect,6,0,6,0,1
575865ba7b74a80006de2689,SCR,2024-06-10_12h19.40.412,LearnStrategy,2023.2.3,Win32,60.0240096,1,2,8,,,,,,,,2,11,,,,,,,,,,,,,8,4.37,0,,,,,,0.364814815,-0.389814815,1,0,0,4.37,Pumice_rect,7,0,7,0,1
575865ba7b74a80006de2689,SCR,2024-06-10_12h19.40.412,LearnStrategy,2023.2.3,Win32,60.0240096,1,2,9,,,,,,,,8,06,,,,,,,,,,,,,8,1.875,1,,,,,,0.364814815,-0.389814815,1,0,0,1.875,Pumice_rect,8,0,8,0,1
575865ba7b74a80006de2689,SCR,2024-06-10_12h19.40.412,LearnStrategy,2023.2.3,Win32,60.0240096,1,2,10,,,,,,,,3,14,,,,,,,,,,,,,6,4.997,0,,,,,,-0.106481481,-0.398148148,1,0,0,4.997,Pegmatite_rect,9,0,9,0,1
575865ba7b74a80006de2689,SCR,2024-06-10_12h19.40.412,LearnStrategy,2023.2.3,Win32,60.0240096,1,2,11,,,,,,,,8,14,,,,,,,,,,,,,8,2.184,1,,,,,,0.388888889,-0.396296296,1,0,0,2.184,Pumice_rect,10,0,10,0,1
575865ba7b74a80006de2689,SCR,2024-06-10_12h19.40.412,LearnStrategy,2023.2.3,Win32,60.0240096,1,2,12,,,,,,,,4,12,,,,,,,,,,,,,1,3.031,0,,,,,,-0.34537037,-0.267592593,1,0,0,3.031,Andesite_rect,11,0,11,0,1
575865ba7b74a80006de2689,SCR,2024-06-10_12h19.40.412,LearnStrategy,2023.2.3,Win32,60.0240096,1,2,13,,,,,,,,1,04,,,,,,,,,,,,,2,3.883,0,,,,,,-0.112037037,-0.255555556,1,0,0,3.883,Basalt_rect,12,0,12,0,1
575865ba7b74a80006de2689,SCR,2024-06-10_12h19.40.412,LearnStrategy,2023.2.3,Win32,60.0240096,1,2,14,,,,,,,,2,06,,,,,,,,,,,,,5,1.746,0,,,,,,-0.337962963,-0.386111111,1,0,0,1.746,Obsidian_rect,13,0,13,0,1
575865ba7b74a80006de2689,SCR,2024-06-10_12h19.40.412,LearnStrategy,2023.2.3,Win32,60.0240096,1,2,15,,,,,,,,3,09,,,,,,,,,,,,,1,7.446,0,,,,,,-0.34537037,-0.264814815,1,0,0,7.446,Andesite_rect,14,0,14,0,1
575865ba7b74a80006de2689,SCR,2024-06-10_12h19.40.412,LearnStrategy,2023.2.3,Win32,60.0240096,1,2,16,,,,,,,,7,02,,,,,,,,,,,,,7,3.341,1,,,,,,0.094444444,-0.397222222,1,0,0,3.341,Peridotite_rect,15,0,15,0,1
575865ba7b74a80006de2689,SCR,2024-06-10_12h19.40.412,LearnStrategy,2023.2.3,Win32,60.0240096,2,1,1,-0.382407407,0.07962963,1,0,0,2.445,Andesite_03,1,03,4,2,2.445,1,03,-0.128703704,-0.239814815,1,0,0,5.953,Basalt_rect,2,5.953,0,0,0,0,0,1,,,,,,,,,,,,
575865ba7b74a80006de2689,SCR,2024-06-10_12h19.40.412,LearnStrategy,2023.2.3,Win32,60.0240096,2,1,2,0.05462963,0.089814815,1,0,0,1.197,Pumice_08,8,08,4,5,1.197,8,08,0.349074074,-0.380555556,1,0,0,4.062,Pumice_rect,8,4.062,1,1,0,1,0,1,,,,,,,,,,,,
575865ba7b74a80006de2689,SCR,2024-06-10_12h19.40.412,LearnStrategy,2023.2.3,Win32,60.0240096,2,1,3,-0.371296296,-0.101851852,1,0,0,1.109,Obsidian_16,5,16,3,2,1.109,5,16,-0.392592593,-0.412037037,1,0,0,1.616,Obsidian_rect,5,1.616,1,2,0,2,0,1,,,,,,,,,,,,
575865ba7b74a80006de2689,SCR,2024-06-10_12h19.40.412,LearnStrategy,2023.2.3,Win32,60.0240096,2,1,4,0.236111111,0.427777778,1,0,0,1.621,Pegmatite_03,6,03,6,6,1.621,6,03,-0.084259259,-0.383333333,1,0,0,2.977,Pegmatite_rect,6,2.977,1,3,0,3,0,1,,,,,,,,,,,,
575865ba7b74a80006de2689,SCR,2024-06-10_12h19.40.412,LearnStrategy,2023.2.3,Win32,60.0240096,2,1,5,0.519444444,0.425925926,1,0,0,1.867,Andesite_09,1,09,6,8,1.867,1,09,-0.125,-0.238888889,1,0,0,3.155,Basalt_rect,2,3.155,0,4,0,4,0,1,,,,,,,,,,,,
575865ba7b74a80006de2689,SCR,2024-06-10_12h19.40.412,LearnStrategy,2023.2.3,Win32,60.0240096,2,1,6,-0.421296296,-0.27037037,1,0,0,1.213,Gabbro_16,4,16,2,2,1.213,4,16,0.336111111,-0.248148148,1,0,0,6.015,Gabbro_rect,4,6.015,1,5,0,5,0,1,,,,,,,,,,,,
575865ba7b74a80006de2689,SCR,2024-06-10_12h19.40.412,LearnStrategy,2023.2.3,Win32,60.0240096,2,1,7,-0.412037037,-0.403703704,1,0,0,1.133,Peridotite_15,7,15,1,2,1.133,7,15,0.119444444,-0.409259259,1,0,0,1.944,Peridotite_rect,7,1.944,1,6,0,6,0,1,,,,,,,,,,,,
575865ba7b74a80006de2689,SCR,2024-06-10_12h19.40.412,LearnStrategy,2023.2.3,Win32,60.0240096,2,1,8,0.577777778,-0.09537037,1,0,0,1.319,Basalt_02,2,02,3,8,1.319,2,02,-0.148148148,-0.231481481,1,0,0,2.63,Basalt_rect,2,2.63,1,7,0,7,0,1,,,,,,,,,,,,
575865ba7b74a80006de2689,SCR,2024-06-10_12h19.40.412,LearnStrategy,2023.2.3,Win32,60.0240096,2,1,9,0.524074074,-0.092592593,1,0,0,1.216,Basalt_02,2,02,3,8,1.216,2,02,-0.10462963,-0.241666667,1,0,0,1.306,Basalt_rect,2,1.306,1,8,0,8,0,1,,,,,,,,,,,,
575865ba7b74a80006de2689,SCR,2024-06-10_12h19.40.412,LearnStrategy,2023.2.3,Win32,60.0240096,2,1,10,-0.060185185,-0.090740741,1,0,0,1.438,Gabbro_11,4,11,3,4,1.438,4,11,-0.096296296,-0.251851852,1,0,0,2.726,Basalt_rect,2,2.726,0,9,0,9,0,1,,,,,,,,,,,,
575865ba7b74a80006de2689,SCR,2024-06-10_12h19.40.412,LearnStrategy,2023.2.3,Win32,60.0240096,2,1,11,-0.559259259,-0.243518519,1,0,0,1.193,Diorite_13,3,13,2,1,1.193,3,13,-0.411111111,-0.246296296,1,0,0,1.356,Andesite_rect,1,1.356,0,10,0,10,0,1,,,,,,,,,,,,
575865ba7b74a80006de2689,SCR,2024-06-10_12h19.40.412,LearnStrategy,2023.2.3,Win32,60.0240096,2,1,12,-0.580555556,0.27962963,1,0,0,1.601,Diorite_02,3,02,5,1,1.601,3,02,-0.386111111,-0.25,1,0,0,3.441,Andesite_rect,1,3.441,0,11,0,11,0,1,,,,,,,,,,,,
575865ba7b74a80006de2689,SCR,2024-06-10_12h19.40.412,LearnStrategy,2023.2.3,Win32,60.0240096,2,1,13,0.213888889,-0.239814815,1,0,0,1.168,Gabbro_10,4,10,2,6,1.168,4,10,0.383333333,-0.236111111,1,0,0,4.42,Gabbro_rect,4,4.42,1,12,0,12,0,1,,,,,,,,,,,,
575865ba7b74a80006de2689,SCR,2024-06-10_12h19.40.412,LearnStrategy,2023.2.3,Win32,60.0240096,2,1,14,-0.555555556,0.22962963,1,0,0,1.426,Diorite_02,3,02,5,1,1.426,3,02,-0.349074074,-0.237962963,1,0,0,2.551,Andesite_rect,1,2.551,0,13,0,13,0,1,,,,,,,,,,,,
575865ba7b74a80006de2689,SCR,2024-06-10_12h19.40.412,LearnStrategy,2023.2.3,Win32,60.0240096,2,1,15,-0.226851852,-0.083333333,1,0,0,1.098,Basalt_08,2,08,3,3,1.098,2,08,0.388888889,-0.238888889,1,0,0,2.601,Gabbro_rect,4,2.601,0,14,0,14,0,1,,,,,,,,,,,,
575865ba7b74a80006de2689,SCR,2024-06-10_12h19.40.412,LearnStrategy,2023.2.3,Win32,60.0240096,2,1,16,0.062962963,-0.240740741,1,0,0,1.167,Pegmatite_08,6,08,2,5,1.167,6,08,-0.106481481,-0.396296296,1,0,0,1.817,Pegmatite_rect,6,1.817,1,15,0,15,0,1,,,,,,,,,,,,
575865ba7b74a80006de2689,SCR,2024-06-10_12h19.40.412,LearnStrategy,2023.2.3,Win32,60.0240096,2,2,1,,,,,,,,3,06,,,,,,,,,,,,,1,4.535,0,,,,,,-0.336111111,-0.234259259,1,0,0,4.535,Andesite_rect,0,0,0,0,1
575865ba7b74a80006de2689,SCR,2024-06-10_12h19.40.412,LearnStrategy,2023.2.3,Win32,60.0240096,2,2,2,,,,,,,,8,13,,,,,,,,,,,,,8,2.625,1,,,,,,0.399074074,-0.416666667,1,0,0,2.625,Pumice_rect,1,0,1,0,1
575865ba7b74a80006de2689,SCR,2024-06-10_12h19.40.412,LearnStrategy,2023.2.3,Win32,60.0240096,2,2,3,,,,,,,,1,11,,,,,,,,,,,,,3,6.257,0,,,,,,0.128703704,-0.251851852,1,0,0,6.257,Diorite_rect,2,0,2,0,1
575865ba7b74a80006de2689,SCR,2024-06-10_12h19.40.412,LearnStrategy,2023.2.3,Win32,60.0240096,2,2,4,,,,,,,,6,12,,,,,,,,,,,,,1,4.364,0,,,,,,-0.372222222,-0.247222222,1,0,0,4.364,Andesite_rect,3,0,3,0,1
575865ba7b74a80006de2689,SCR,2024-06-10_12h19.40.412,LearnStrategy,2023.2.3,Win32,60.0240096,2,2,5,,,,,,,,4,01,,,,,,,,,,,,,6,3.078,0,,,,,,-0.141666667,-0.400925926,1,0,0,3.078,Pegmatite_rect,4,0,4,0,1
575865ba7b74a80006de2689,SCR,2024-06-10_12h19.40.412,LearnStrategy,2023.2.3,Win32,60.0240096,2,2,6,,,,,,,,4,09,,,,,,,,,,,,,3,5.127,0,,,,,,0.099074074,-0.265740741,1,0,0,5.127,Diorite_rect,5,0,5,0,1
575865ba7b74a80006de2689,SCR,2024-06-10_12h19.40.412,LearnStrategy,2023.2.3,Win32,60.0240096,2,2,7,,,,,,,,5,07,,,,,,,,,,,,,5,1.785,1,,,,,,-0.362037037,-0.397222222,1,0,0,1.785,Obsidian_rect,6,0,6,0,1
575865ba7b74a80006de2689,SCR,2024-06-10_12h19.40.412,LearnStrategy,2023.2.3,Win32,60.0240096,2,2,8,,,,,,,,7,10,,,,,,,,,,,,,7,1.666,1,,,,,,0.150925926,-0.400925926,1,0,0,1.666,Peridotite_rect,7,0,7,0,1
575865ba7b74a80006de2689,SCR,2024-06-10_12h19.40.412,LearnStrategy,2023.2.3,Win32,60.0240096,2,2,9,,,,,,,,2,01,,,,,,,,,,,,,2,5.391,1,,,,,,-0.075925926,-0.262962963,1,0,0,5.391,Basalt_rect,8,0,8,0,1
575865ba7b74a80006de2689,SCR,2024-06-10_12h19.40.412,LearnStrategy,2023.2.3,Win32,60.0240096,2,2,10,,,,,,,,2,04,,,,,,,,,,,,,2,2.01,1,,,,,,-0.075925926,-0.262962963,1,0,0,2.01,Basalt_rect,9,0,9,0,1
575865ba7b74a80006de2689,SCR,2024-06-10_12h19.40.412,LearnStrategy,2023.2.3,Win32,60.0240096,2,2,11,,,,,,,,7,06,,,,,,,,,,,,,7,2.334,1,,,,,,0.075,-0.409259259,1,0,0,2.334,Peridotite_rect,10,0,10,0,1
575865ba7b74a80006de2689,SCR,2024-06-10_12h19.40.412,LearnStrategy,2023.2.3,Win32,60.0240096,2,2,12,,,,,,,,1,06,,,,,,,,,,,,,1,2.721,1,,,,,,-0.4,-0.25462963,1,0,0,2.721,Andesite_rect,11,0,11,0,1
575865ba7b74a80006de2689,SCR,2024-06-10_12h19.40.412,LearnStrategy,2023.2.3,Win32,60.0240096,2,2,13,,,,,,,,3,11,,,,,,,,,,,,,3,3.368,1,,,,,,0.059259259,-0.250925926,1,0,0,3.368,Diorite_rect,12,0,12,0,1
575865ba7b74a80006de2689,SCR,2024-06-10_12h19.40.412,LearnStrategy,2023.2.3,Win32,60.0240096,2,2,14,,,,,,,,5,12,,,,,,,,,,,,,5,1.247,1,,,,,,-0.35,-0.39537037,1,0,0,1.247,Obsidian_rect,13,0,13,0,1
575865ba7b74a80006de2689,SCR,2024-06-10_12h19.40.412,LearnStrategy,2023.2.3,Win32,60.0240096,2,2,15,,,,,,,,6,05,,,,,,,,,,,,,5,10.724,0,,,,,,-0.32962963,-0.401851852,1,0,0,10.724,Obsidian_rect,14,0,14,0,1
575865ba7b74a80006de2689,SCR,2024-06-10_12h19.40.412,LearnStrategy,2023.2.3,Win32,60.0240096,2,2,16,,,,,,,,8,16,,,,,,,,,,,,,8,1.661,1,,,,,,0.366666667,-0.400925926,1,0,0,1.661,Pumice_rect,15,0,15,0,1
575865ba7b74a80006de2689,SCR,2024-06-10_12h19.40.412,LearnStrategy,2023.2.3,Win32,60.0240096,3,1,1,0.35462963,-0.394444444,1,0,0,1.855,Pegmatite_16,6,16,1,7,1.855,6,16,-0.112037037,-0.392592593,1,0,0,6.54,Pegmatite_rect,6,6.54,1,0,0,0,0,1,,,,,,,,,,,,
575865ba7b74a80006de2689,SCR,2024-06-10_12h19.40.412,LearnStrategy,2023.2.3,Win32,60.0240096,3,1,2,0.574074074,-0.297222222,1,0,0,1.893,Gabbro_03,4,03,2,8,1.893,4,03,-0.365740741,-0.244444444,1,0,0,2.497,Andesite_rect,1,2.497,0,1,0,1,0,1,,,,,,,,,,,,
575865ba7b74a80006de2689,SCR,2024-06-10_12h19.40.412,LearnStrategy,2023.2.3,Win32,60.0240096,3,1,3,-0.534259259,-0.257407407,1,0,0,1.099,Diorite_13,3,13,2,1,1.099,3,13,0.101851852,-0.24537037,1,0,0,2.905,Diorite_rect,3,2.905,1,2,0,2,0,1,,,,,,,,,,,,
575865ba7b74a80006de2689,SCR,2024-06-10_12h19.40.412,LearnStrategy,2023.2.3,Win32,60.0240096,3,1,4,-0.531481481,0.077777778,1,0,0,1.12,Andesite_10,1,10,4,1,1.12,1,10,-0.147222222,-0.24537037,1,0,0,4.724,Basalt_rect,2,4.724,0,3,0,3,0,1,,,,,,,,,,,,
575865ba7b74a80006de2689,SCR,2024-06-10_12h19.40.412,LearnStrategy,2023.2.3,Win32,60.0240096,3,1,5,0.030555556,0.414814815,1,0,0,1.307,Andesite_16,1,16,6,5,1.307,1,16,0.101851852,-0.249074074,1,0,0,2.629,Diorite_rect,3,2.629,0,4,0,4,0,1,,,,,,,,,,,,
575865ba7b74a80006de2689,SCR,2024-06-10_12h19.40.412,LearnStrategy,2023.2.3,Win32,60.0240096,3,1,6,-0.05,0.381481481,1,0,0,1.207,Obsidian_14,5,14,6,4,1.207,5,14,-0.391666667,-0.410185185,1,0,0,1.441,Obsidian_rect,5,1.441,1,5,0,5,0,1,,,,,,,,,,,,
575865ba7b74a80006de2689,SCR,2024-06-10_12h19.40.412,LearnStrategy,2023.2.3,Win32,60.0240096,3,1,7,-0.542592593,-0.416666667,1,0,0,10.478,Peridotite_07,7,07,1,1,10.478,2,09,0.084259259,-0.401851852,1,0,0,1.957,Peridotite_rect,7,1.957,1,6,0,6,0,1,,,,,,,,,,,,
575865ba7b74a80006de2689,SCR,2024-06-10_12h19.40.412,LearnStrategy,2023.2.3,Win32,60.0240096,3,1,8,0.239814815,0.250925926,1,0,0,5.789,Gabbro_08,4,08,5,6,5.789,6,08,-0.142592593,-0.246296296,1,0,0,18.51,Basalt_rect,2,18.51,0,7,0,7,0,1,,,,,,,,,,,,
575865ba7b74a80006de2689,SCR,2024-06-10_12h19.40.412,LearnStrategy,2023.2.3,Win32,60.0240096,3,1,9,-0.072222222,-0.438888889,1,0,0,1.558,Gabbro_14,4,14,1,4,1.558,4,14,-0.380555556,-0.233333333,1,0,0,3.586,Andesite_rect,1,3.586,0,8,0,8,0,1,,,,,,,,,,,,
575865ba7b74a80006de2689,SCR,2024-06-10_12h19.40.412,LearnStrategy,2023.2.3,Win32,60.0240096,3,1,10,-0.207407407,-0.417592593,1,0,0,5.816,Diorite_15,3,15,1,3,5.816,6,08,0.091666667,-0.242592593,1,0,0,2.357,Diorite_rect,3,2.357,1,9,0,9,0,1,,,,,,,,,,,,
575865ba7b74a80006de2689,SCR,2024-06-10_12h19.40.412,LearnStrategy,2023.2.3,Win32,60.0240096,3,1,11,0.202777778,-0.27037037,1,0,0,1.607,Gabbro_10,4,10,2,6,1.607,4,10,-0.123148148,-0.232407407,1,0,0,5.519,Basalt_rect,2,5.519,0,10,0,10,0,1,,,,,,,,,,,,
575865ba7b74a80006de2689,SCR,2024-06-10_12h19.40.412,LearnStrategy,2023.2.3,Win32,60.0240096,3,1,12,-0.046296296,0.065740741,1,0,0,0.772,Diorite_10,3,10,4,4,0.772,3,10,0.159259259,-0.237037037,1,0,0,2.695,Diorite_rect,3,2.695,1,11,0,11,0,1,,,,,,,,,,,,
575865ba7b74a80006de2689,SCR,2024-06-10_12h19.40.412,LearnStrategy,2023.2.3,Win32,60.0240096,3,1,13,0.2,0.252777778,1,0,0,1.337,Gabbro_08,4,08,5,6,1.337,4,08,0.448148148,-0.246296296,1,0,0,3.699,Gabbro_rect,4,3.699,1,12,0,12,0,1,,,,,,,,,,,,
575865ba7b74a80006de2689,SCR,2024-06-10_12h19.40.412,LearnStrategy,2023.2.3,Win32,60.0240096,3,1,14,-0.378703704,0.389814815,1,0,0,1.163,Basalt_16,2,16,6,2,1.163,2,16,0.372222222,-0.241666667,1,0,0,1.996,Gabbro_rect,4,1.996,0,13,0,13,0,1,,,,,,,,,,,,
575865ba7b74a80006de2689,SCR,2024-06-10_12h19.40.412,LearnStrategy,2023.2.3,Win32,60.0240096,3,1,15,0.510185185,0.408333333,1,0,0,1.083,Andesite_09,1,09,6,8,1.083,1,09,-0.39537037,-0.259259259,1,0,0,2.391,Andesite_rect,1,2.391,1,14,0,14,0,1,,,,,,,,,,,,
575865ba7b74a80006de2689,SCR,2024-06-10_12h19.40.412,LearnStrategy,2023.2.3,Win32,60.0240096,3,1,16,0.587037037,0.257407407,1,0,0,1.359,Diorite_12,3,12,5,8,1.359,3,12,0.09537037,-0.246296296,1,0,0,2.454,Diorite_rect,3,2.454,1,15,0,15,0,1,,,,,,,,,,,,
575865ba7b74a80006de2689,SCR,2024-06-10_12h19.40.412,LearnStrategy,2023.2.3,Win32,60.0240096,3,2,1,,,,,,,,6,06,,,,,,,,,,,,,6,18.043,1,,,,,,-0.123148148,-0.387962963,1,0,0,18.043,Pegmatite_rect,0,0,0,0,1
575865ba7b74a80006de2689,SCR,2024-06-10_12h19.40.412,LearnStrategy,2023.2.3,Win32,60.0240096,3,2,2,,,,,,,,7,08,,,,,,,,,,,,,7,1.444,1,,,,,,0.096296296,-0.392592593,1,0,0,1.444,Peridotite_rect,1,0,1,0,1
575865ba7b74a80006de2689,SCR,2024-06-10_12h19.40.412,LearnStrategy,2023.2.3,Win32,60.0240096,3,2,3,,,,,,,,3,16,,,,,,,,,,,,,3,2.591,1,,,,,,0.094444444,-0.253703704,1,0,0,2.591,Diorite_rect,2,0,2,0,1
575865ba7b74a80006de2689,SCR,2024-06-10_12h19.40.412,LearnStrategy,2023.2.3,Win32,60.0240096,3,2,4,,,,,,,,3,07,,,,,,,,,,,,,1,5.108,0,,,,,,-0.37037037,-0.25462963,1,0,0,5.108,Andesite_rect,3,0,3,0,1
575865ba7b74a80006de2689,SCR,2024-06-10_12h19.40.412,LearnStrategy,2023.2.3,Win32,60.0240096,3,2,5,,,,,,,,7,05,,,,,,,,,,,,,7,1.621,1,,,,,,0.143518519,-0.403703704,1,0,0,1.621,Peridotite_rect,4,0,4,0,1
575865ba7b74a80006de2689,SCR,2024-06-10_12h19.40.412,LearnStrategy,2023.2.3,Win32,60.0240096,3,2,6,,,,,,,,1,05,,,,,,,,,,,,,1,2.545,1,,,,,,-0.347222222,-0.244444444,1,0,0,2.545,Andesite_rect,5,0,5,0,1
575865ba7b74a80006de2689,SCR,2024-06-10_12h19.40.412,LearnStrategy,2023.2.3,Win32,60.0240096,3,2,7,,,,,,,,4,13,,,,,,,,,,,,,4,2.069,1,,,,,,0.373148148,-0.256481481,1,0,0,2.069,Gabbro_rect,6,0,6,0,1
575865ba7b74a80006de2689,SCR,2024-06-10_12h19.40.412,LearnStrategy,2023.2.3,Win32,60.0240096,3,2,8,,,,,,,,2,14,,,,,,,,,,,,,4,2.776,0,,,,,,0.369444444,-0.257407407,1,0,0,2.776,Gabbro_rect,7,0,7,0,1
575865ba7b74a80006de2689,SCR,2024-06-10_12h19.40.412,LearnStrategy,2023.2.3,Win32,60.0240096,3,2,9,,,,,,,,8,09,,,,,,,,,,,,,8,1.274,1,,,,,,0.368518519,-0.389814815,1,0,0,1.274,Pumice_rect,8,0,8,0,1
575865ba7b74a80006de2689,SCR,2024-06-10_12h19.40.412,LearnStrategy,2023.2.3,Win32,60.0240096,3,2,10,,,,,,,,4,15,,,,,,,,,,,,,1,2.134,0,,,,,,-0.349074074,-0.244444444,1,0,0,2.134,Andesite_rect,9,0,9,0,1
575865ba7b74a80006de2689,SCR,2024-06-10_12h19.40.412,LearnStrategy,2023.2.3,Win32,60.0240096,3,2,11,,,,,,,,5,11,,,,,,,,,,,,,5,1.203,1,,,,,,-0.371296296,-0.40462963,1,0,0,1.203,Obsidian_rect,10,0,10,0,1
575865ba7b74a80006de2689,SCR,2024-06-10_12h19.40.412,LearnStrategy,2023.2.3,Win32,60.0240096,3,2,12,,,,,,,,8,15,,,,,,,,,,,,,8,1.504,1,,,,,,0.40462963,-0.410185185,1,0,0,1.504,Pumice_rect,11,0,11,0,1
575865ba7b74a80006de2689,SCR,2024-06-10_12h19.40.412,LearnStrategy,2023.2.3,Win32,60.0240096,3,2,13,,,,,,,,2,10,,,,,,,,,,,,,4,2.269,0,,,,,,0.388888889,-0.268518519,1,0,0,2.269,Gabbro_rect,12,0,12,0,1
575865ba7b74a80006de2689,SCR,2024-06-10_12h19.40.412,LearnStrategy,2023.2.3,Win32,60.0240096,3,2,14,,,,,,,,6,07,,,,,,,,,,,,,6,5.093,1,,,,,,-0.087962963,-0.397222222,1,0,0,5.093,Pegmatite_rect,13,0,13,0,1
575865ba7b74a80006de2689,SCR,2024-06-10_12h19.40.412,LearnStrategy,2023.2.3,Win32,60.0240096,3,2,15,,,,,,,,5,02,,,,,,,,,,,,,5,1.271,1,,,,,,-0.357407407,-0.387962963,1,0,0,1.271,Obsidian_rect,14,0,14,0,1
575865ba7b74a80006de2689,SCR,2024-06-10_12h19.40.412,LearnStrategy,2023.2.3,Win32,60.0240096,3,2,16,,,,,,,,1,14,,,,,,,,,,,,,1,2.195,1,,,,,,-0.353703704,-0.258333333,1,0,0,2.195,Andesite_rect,15,0,15,0,1
575865ba7b74a80006de2689,SCR,2024-06-10_12h19.40.412,LearnStrategy,2023.2.3,Win32,60.0240096,4,1,1,0.373148148,-0.085185185,1,0,0,1.784,Basalt_05,2,05,3,7,1.784,2,05,-0.106481481,-0.24537037,1,0,0,5.566,Basalt_rect,2,5.566,1,0,0,0,0,1,,,,,,,,,,,,
575865ba7b74a80006de2689,SCR,2024-06-10_12h19.40.412,LearnStrategy,2023.2.3,Win32,60.0240096,4,1,2,-0.522222222,-0.117592593,1,0,0,1.203,Pumice_05,8,05,3,1,1.203,8,05,0.432407407,-0.39537037,1,0,0,1.535,Pumice_rect,8,1.535,1,1,0,1,0,1,,,,,,,,,,,,
575865ba7b74a80006de2689,SCR,2024-06-10_12h19.40.412,LearnStrategy,2023.2.3,Win32,60.0240096,4,1,3,0.552777778,-0.119444444,1,0,0,1.14,Basalt_02,2,02,3,8,1.14,2,02,-0.111111111,-0.235185185,1,0,0,1.778,Basalt_rect,2,1.778,1,2,0,2,0,1,,,,,,,,,,,,
575865ba7b74a80006de2689,SCR,2024-06-10_12h19.40.412,LearnStrategy,2023.2.3,Win32,60.0240096,4,1,4,0.213888889,-0.401851852,1,0,0,1.556,Diorite_08,3,08,1,6,1.556,3,08,0.138888889,-0.242592593,1,0,0,6.358,Diorite_rect,3,6.358,1,3,0,3,0,1,,,,,,,,,,,,
575865ba7b74a80006de2689,SCR,2024-06-10_12h19.40.412,LearnStrategy,2023.2.3,Win32,60.0240096,4,1,5,-0.208333333,0.07962963,1,0,0,0.857,Peridotite_12,7,12,4,3,0.857,7,12,0.113888889,-0.390740741,1,0,0,1.974,Peridotite_rect,7,1.974,1,4,0,4,0,1,,,,,,,,,,,,
575865ba7b74a80006de2689,SCR,2024-06-10_12h19.40.412,LearnStrategy,2023.2.3,Win32,60.0240096,4,1,6,-0.062037037,-0.399074074,1,0,0,1.36,Gabbro_14,4,14,1,4,1.36,4,14,-0.105555556,-0.237962963,1,0,0,3.035,Basalt_rect,2,3.035,0,5,0,5,0,1,,,,,,,,,,,,
575865ba7b74a80006de2689,SCR,2024-06-10_12h19.40.412,LearnStrategy,2023.2.3,Win32,60.0240096,4,1,7,0.212962963,-0.246296296,1,0,0,1.136,Gabbro_10,4,10,2,6,1.136,4,10,-0.083333333,-0.235185185,1,0,0,4.085,Basalt_rect,2,4.085,0,6,0,6,0,1,,,,,,,,,,,,
575865ba7b74a80006de2689,SCR,2024-06-10_12h19.40.412,LearnStrategy,2023.2.3,Win32,60.0240096,4,1,8,-0.044444444,-0.081481481,1,0,0,0.775,Gabbro_11,4,11,3,4,0.775,4,11,0.355555556,-0.228703704,1,0,0,5.02,Gabbro_rect,4,5.02,1,7,0,7,0,1,,,,,,,,,,,,
575865ba7b74a80006de2689,SCR,2024-06-10_12h19.40.412,LearnStrategy,2023.2.3,Win32,60.0240096,4,1,9,0.212962963,-0.400925926,1,0,0,1.292,Diorite_08,3,08,1,6,1.292,3,08,-0.349074074,-0.246296296,1,0,0,2.124,Andesite_rect,1,2.124,0,8,0,8,0,1,,,,,,,,,,,,
575865ba7b74a80006de2689,SCR,2024-06-10_12h19.40.412,LearnStrategy,2023.2.3,Win32,60.0240096,4,1,10,-0.526851852,-0.284259259,1,0,0,1.117,Diorite_13,3,13,2,1,1.117,3,13,0.118518519,-0.257407407,1,0,0,1.603,Diorite_rect,3,1.603,1,9,0,9,0,1,,,,,,,,,,,,
575865ba7b74a80006de2689,SCR,2024-06-10_12h19.40.412,LearnStrategy,2023.2.3,Win32,60.0240096,4,1,11,0.547222222,-0.285185185,1,0,0,1.096,Gabbro_03,4,03,2,8,1.096,4,03,-0.356481481,-0.257407407,1,0,0,1.459,Andesite_rect,1,1.459,0,10,0,10,0,1,,,,,,,,,,,,
575865ba7b74a80006de2689,SCR,2024-06-10_12h19.40.412,LearnStrategy,2023.2.3,Win32,60.0240096,4,1,12,0.401851852,0.068518519,1,0,0,1.086,Basalt_09,2,09,4,7,1.086,2,09,-0.109259259,-0.25,1,0,0,1.502,Basalt_rect,2,1.502,1,11,0,11,0,1,,,,,,,,,,,,
575865ba7b74a80006de2689,SCR,2024-06-10_12h19.40.412,LearnStrategy,2023.2.3,Win32,60.0240096,4,1,13,-0.237962963,0.250925926,1,0,0,0.99,Obsidian_04,5,04,5,3,0.99,5,04,-0.412037037,-0.399074074,1,0,0,0.941,Obsidian_rect,5,0.941,1,12,0,12,0,1,,,,,,,,,,,,
575865ba7b74a80006de2689,SCR,2024-06-10_12h19.40.412,LearnStrategy,2023.2.3,Win32,60.0240096,4,1,14,0.073148148,0.448148148,1,0,0,1.092,Andesite_16,1,16,6,5,1.092,1,16,0.119444444,-0.244444444,1,0,0,4.231,Diorite_rect,3,4.231,0,13,0,13,0,1,,,,,,,,,,,,
575865ba7b74a80006de2689,SCR,2024-06-10_12h19.40.412,LearnStrategy,2023.2.3,Win32,60.0240096,4,1,15,0.22962963,0.42037037,1,0,0,1.024,Pegmatite_03,6,03,6,6,1.024,6,03,-0.101851852,-0.387962963,1,0,0,1.909,Pegmatite_rect,6,1.909,1,14,0,14,0,1,,,,,,,,,,,,
575865ba7b74a80006de2689,SCR,2024-06-10_12h19.40.412,LearnStrategy,2023.2.3,Win32,60.0240096,4,1,16,0.512037037,0.101851852,1,0,0,1.167,Pegmatite_11,6,11,4,8,1.167,6,11,-0.136111111,-0.42037037,1,0,0,1.763,Pegmatite_rect,6,1.763,1,15,0,15,0,1,,,,,,,,,,,,
575865ba7b74a80006de2689,SCR,2024-06-10_12h19.40.412,LearnStrategy,2023.2.3,Win32,60.0240096,4,2,1,,,,,,,,4,09,,,,,,,,,,,,,2,7.338,0,,,,,,-0.119444444,-0.240740741,1,0,0,7.338,Basalt_rect,0,0,0,0,1
575865ba7b74a80006de2689,SCR,2024-06-10_12h19.40.412,LearnStrategy,2023.2.3,Win32,60.0240096,4,2,2,,,,,,,,5,02,,,,,,,,,,,,,5,1.255,1,,,,,,-0.348148148,-0.381481481,1,0,0,1.255,Obsidian_rect,1,0,1,0,1
575865ba7b74a80006de2689,SCR,2024-06-10_12h19.40.412,LearnStrategy,2023.2.3,Win32,60.0240096,4,2,3,,,,,,,,2,06,,,,,,,,,,,,,2,2.871,1,,,,,,-0.153703704,-0.260185185,1,0,0,2.871,Basalt_rect,2,0,2,0,1
575865ba7b74a80006de2689,SCR,2024-06-10_12h19.40.412,LearnStrategy,2023.2.3,Win32,60.0240096,4,2,4,,,,,,,,3,06,,,,,,,,,,,,,3,2.817,1,,,,,,0.118518519,-0.261111111,1,0,0,2.817,Diorite_rect,3,0,3,0,1
575865ba7b74a80006de2689,SCR,2024-06-10_12h19.40.412,LearnStrategy,2023.2.3,Win32,60.0240096,4,2,5,,,,,,,,1,05,,,,,,,,,,,,,1,3.791,1,,,,,,-0.336111111,-0.25462963,1,0,0,3.791,Andesite_rect,4,0,4,0,1
575865ba7b74a80006de2689,SCR,2024-06-10_12h19.40.412,LearnStrategy,2023.2.3,Win32,60.0240096,4,2,6,,,,,,,,6,10,,,,,,,,,,,,,7,5.727,0,,,,,,0.089814815,-0.403703704,1,0,0,5.727,Peridotite_rect,5,0,5,0,1
575865ba7b74a80006de2689,SCR,2024-06-10_12h19.40.412,LearnStrategy,2023.2.3,Win32,60.0240096,4,2,7,,,,,,,,1,02,,,,,,,,,,,,,1,1.959,1,,,,,,-0.335185185,-0.261111111,1,0,0,1.959,Andesite_rect,6,0,6,0,1
575865ba7b74a80006de2689,SCR,2024-06-10_12h19.40.412,LearnStrategy,2023.2.3,Win32,60.0240096,4,2,8,,,,,,,,7,05,,,,,,,,,,,,,7,1.499,1,,,,,,0.158333333,-0.421296296,1,0,0,1.499,Peridotite_rect,7,0,7,0,1
575865ba7b74a80006de2689,SCR,2024-06-10_12h19.40.412,LearnStrategy,2023.2.3,Win32,60.0240096,4,2,9,,,,,,,,2,14,,,,,,,,,,,,,4,3.133,0,,,,,,0.4,-0.253703704,1,0,0,3.133,Gabbro_rect,8,0,8,0,1
575865ba7b74a80006de2689,SCR,2024-06-10_12h19.40.412,LearnStrategy,2023.2.3,Win32,60.0240096,4,2,10,,,,,,,,4,05,,,,,,,,,,,,,1,12.035,0,,,,,,-0.325925926,-0.243518519,1,0,0,12.035,Andesite_rect,9,0,9,0,1
575865ba7b74a80006de2689,SCR,2024-06-10_12h19.40.412,LearnStrategy,2023.2.3,Win32,60.0240096,4,2,11,,,,,,,,6,07,,,,,,,,,,,,,6,1.834,1,,,,,,-0.1,-0.392592593,1,0,0,1.834,Pegmatite_rect,10,0,10,0,1
575865ba7b74a80006de2689,SCR,2024-06-10_12h19.40.412,LearnStrategy,2023.2.3,Win32,60.0240096,4,2,12,,,,,,,,3,11,,,,,,,,,,,,,3,2.349,1,,,,,,0.055555556,-0.240740741,1,0,0,2.349,Diorite_rect,11,0,11,0,1
575865ba7b74a80006de2689,SCR,2024-06-10_12h19.40.412,LearnStrategy,2023.2.3,Win32,60.0240096,4,2,13,,,,,,,,5,11,,,,,,,,,,,,,5,2.785,1,,,,,,-0.40462963,-0.402777778,1,0,0,2.785,Obsidian_rect,12,0,12,0,1
575865ba7b74a80006de2689,SCR,2024-06-10_12h19.40.412,LearnStrategy,2023.2.3,Win32,60.0240096,4,2,14,,,,,,,,8,15,,,,,,,,,,,,,8,1.577,1,,,,,,0.405555556,-0.402777778,1,0,0,1.577,Pumice_rect,13,0,13,0,1
575865ba7b74a80006de2689,SCR,2024-06-10_12h19.40.412,LearnStrategy,2023.2.3,Win32,60.0240096,4,2,15,,,,,,,,8,14,,,,,,,,,,,,,8,1.194,1,,,,,,0.405555556,-0.402777778,1,0,0,1.194,Pumice_rect,14,0,14,0,1
575865ba7b74a80006de2689,SCR,2024-06-10_12h19.40.412,LearnStrategy,2023.2.3,Win32,60.0240096,4,2,16,,,,,,,,7,10,,,,,,,,,,,,,7,1.692,1,,,,,,0.15,-0.409259259,1,0,0,1.692,Peridotite_rect,15,0,15,0,1
575865ba7b74a80006de2689,SCR,2024-06-10_12h19.40.412,LearnStrategy,2023.2.3,Win32,60.0240096,5,1,1,-0.366666667,0.380555556,1,0,0,1.268,Basalt_16,2,16,6,2,1.268,2,16,0.385185185,-0.239814815,1,0,0,2.007,Gabbro_rect,4,2.007,0,0,0,0,0,1,,,,,,,,,,,,
575865ba7b74a80006de2689,SCR,2024-06-10_12h19.40.412,LearnStrategy,2023.2.3,Win32,60.0240096,5,1,2,-0.266666667,-0.396296296,1,0,0,1.441,Diorite_15,3,15,1,3,1.441,3,15,-0.399074074,-0.262037037,1,0,0,1.833,Andesite_rect,1,1.833,0,1,0,1,0,1,,,,,,,,,,,,
575865ba7b74a80006de2689,SCR,2024-06-10_12h19.40.412,LearnStrategy,2023.2.3,Win32,60.0240096,5,1,3,0.550925926,-0.288888889,1,0,0,1.327,Gabbro_03,4,03,2,8,1.327,4,03,-0.388888889,-0.242592593,1,0,0,2.276,Andesite_rect,1,2.276,0,2,0,2,0,1,,,,,,,,,,,,
575865ba7b74a80006de2689,SCR,2024-06-10_12h19.40.412,LearnStrategy,2023.2.3,Win32,60.0240096,5,1,4,0.046296296,0.230555556,1,0,0,0.985,Peridotite_04,7,04,5,5,0.985,7,04,-0.125925926,-0.409259259,1,0,0,1.764,Pegmatite_rect,6,1.764,0,3,0,3,0,1,,,,,,,,,,,,
575865ba7b74a80006de2689,SCR,2024-06-10_12h19.40.412,LearnStrategy,2023.2.3,Win32,60.0240096,5,1,5,0.087962963,-0.3,1,0,0,1.654,Pegmatite_08,6,08,2,5,1.654,6,08,-0.121296296,-0.412037037,1,0,0,1.064,Pegmatite_rect,6,1.064,1,4,0,4,0,1,,,,,,,,,,,,
575865ba7b74a80006de2689,SCR,2024-06-10_12h19.40.412,LearnStrategy,2023.2.3,Win32,60.0240096,5,1,6,0.52037037,-0.240740741,1,0,0,1.224,Gabbro_03,4,03,2,8,1.224,4,03,0.375,-0.243518519,1,0,0,4.669,Gabbro_rect,4,4.669,1,5,0,5,0,1,,,,,,,,,,,,
575865ba7b74a80006de2689,SCR,2024-06-10_12h19.40.412,LearnStrategy,2023.2.3,Win32,60.0240096,5,1,7,0.543518519,-0.113888889,1,0,0,0.994,Basalt_02,2,02,3,8,0.994,2,02,0.401851852,-0.244444444,1,0,0,1.876,Gabbro_rect,4,1.876,0,6,0,6,0,1,,,,,,,,,,,,
575865ba7b74a80006de2689,SCR,2024-06-10_12h19.40.412,LearnStrategy,2023.2.3,Win32,60.0240096,5,1,8,-0.238888889,-0.253703704,1,0,0,1.337,Pumice_10,8,10,2,3,1.337,8,10,0.368518519,-0.410185185,1,0,0,2.367,Pumice_rect,8,2.367,1,7,0,7,0,1,,,,,,,,,,,,
575865ba7b74a80006de2689,SCR,2024-06-10_12h19.40.412,LearnStrategy,2023.2.3,Win32,60.0240096,5,1,9,0.390740741,-0.093518519,1,0,0,1.076,Basalt_05,2,05,3,7,1.076,2,05,-0.117592593,-0.250925926,1,0,0,3.3,Basalt_rect,2,3.3,1,8,0,8,0,1,,,,,,,,,,,,
575865ba7b74a80006de2689,SCR,2024-06-10_12h19.40.412,LearnStrategy,2023.2.3,Win32,60.0240096,5,1,10,-0.044444444,-0.083333333,1,0,0,0.944,Gabbro_11,4,11,3,4,0.944,4,11,0.392592593,-0.249074074,1,0,0,3.38,Gabbro_rect,4,3.38,1,9,0,9,0,1,,,,,,,,,,,,
575865ba7b74a80006de2689,SCR,2024-06-10_12h19.40.412,LearnStrategy,2023.2.3,Win32,60.0240096,5,1,11,-0.22962963,0.202777778,1,0,0,1.067,Obsidian_04,5,04,5,3,1.067,5,04,-0.422222222,-0.416666667,1,0,0,1.095,Obsidian_rect,5,1.095,1,10,0,10,0,1,,,,,,,,,,,,
575865ba7b74a80006de2689,SCR,2024-06-10_12h19.40.412,LearnStrategy,2023.2.3,Win32,60.0240096,5,1,12,-0.563888889,0.237037037,1,0,0,0.976,Diorite_02,3,02,5,1,0.976,3,02,0.099074074,-0.256481481,1,0,0,2.983,Diorite_rect,3,2.983,1,11,0,11,0,1,,,,,,,,,,,,
575865ba7b74a80006de2689,SCR,2024-06-10_12h19.40.412,LearnStrategy,2023.2.3,Win32,60.0240096,5,1,13,0.219444444,0.058333333,1,0,0,1.009,Pegmatite_09,6,09,4,6,1.009,6,09,0.121296296,-0.409259259,1,0,0,1.539,Peridotite_rect,7,1.539,0,12,0,12,0,1,,,,,,,,,,,,
575865ba7b74a80006de2689,SCR,2024-06-10_12h19.40.412,LearnStrategy,2023.2.3,Win32,60.0240096,5,1,14,-0.361111111,-0.275925926,1,0,0,1.144,Gabbro_16,4,16,2,2,1.144,4,16,0.399074074,-0.24537037,1,0,0,4.648,Gabbro_rect,4,4.648,1,13,0,13,0,1,,,,,,,,,,,,
575865ba7b74a80006de2689,SCR,2024-06-10_12h19.40.412,LearnStrategy,2023.2.3,Win32,60.0240096,5,1,15,0.239814815,0.414814815,1,0,0,1.135,Pegmatite_03,6,03,6,6,1.135,6,03,-0.091666667,-0.385185185,1,0,0,1.828,Pegmatite_rect,6,1.828,1,14,0,14,0,1,,,,,,,,,,,,
575865ba7b74a80006de2689,SCR,2024-06-10_12h19.40.412,LearnStrategy,2023.2.3,Win32,60.0240096,5,1,16,-0.394444444,0.077777778,1,0,0,1.029,Andesite_03,1,03,4,2,1.029,1,03,-0.347222222,-0.230555556,1,0,0,2.542,Andesite_rect,1,2.542,1,15,0,15,0,1,,,,,,,,,,,,
575865ba7b74a80006de2689,SCR,2024-06-10_12h19.40.412,LearnStrategy,2023.2.3,Win32,60.0240096,5,2,1,,,,,,,,1,06,,,,,,,,,,,,,1,3.858,1,,,,,,-0.405555556,-0.25,1,0,0,3.858,Andesite_rect,0,0,0,0,1
575865ba7b74a80006de2689,SCR,2024-06-10_12h19.40.412,LearnStrategy,2023.2.3,Win32,60.0240096,5,2,2,,,,,,,,3,16,,,,,,,,,,,,,3,1.652,1,,,,,,0.125,-0.237962963,1,0,0,1.652,Diorite_rect,1,0,1,0,1
575865ba7b74a80006de2689,SCR,2024-06-10_12h19.40.412,LearnStrategy,2023.2.3,Win32,60.0240096,5,2,3,,,,,,,,5,06,,,,,,,,,,,,,5,1.296,1,,,,,,-0.421296296,-0.413888889,1,0,0,1.296,Obsidian_rect,2,0,2,0,1
575865ba7b74a80006de2689,SCR,2024-06-10_12h19.40.412,LearnStrategy,2023.2.3,Win32,60.0240096,5,2,4,,,,,,,,1,04,,,,,,,,,,,,,1,2.661,1,,,,,,-0.4,-0.257407407,1,0,0,2.661,Andesite_rect,3,0,3,0,1
575865ba7b74a80006de2689,SCR,2024-06-10_12h19.40.412,LearnStrategy,2023.2.3,Win32,60.0240096,5,2,5,,,,,,,,6,06,,,,,,,,,,,,,6,3.867,1,,,,,,-0.118518519,-0.396296296,1,0,0,3.867,Pegmatite_rect,4,0,4,0,1
575865ba7b74a80006de2689,SCR,2024-06-10_12h19.40.412,LearnStrategy,2023.2.3,Win32,60.0240096,5,2,6,,,,,,,,4,12,,,,,,,,,,,,,2,3.241,0,,,,,,-0.144444444,-0.243518519,1,0,0,3.241,Basalt_rect,5,0,5,0,1
575865ba7b74a80006de2689,SCR,2024-06-10_12h19.40.412,LearnStrategy,2023.2.3,Win32,60.0240096,5,2,7,,,,,,,,7,16,,,,,,,,,,,,,7,1.99,1,,,,,,0.157407407,-0.411111111,1,0,0,1.99,Peridotite_rect,6,0,6,0,1
575865ba7b74a80006de2689,SCR,2024-06-10_12h19.40.412,LearnStrategy,2023.2.3,Win32,60.0240096,5,2,8,,,,,,,,8,13,,,,,,,,,,,,,8,1.473,1,,,,,,0.375,-0.403703704,1,0,0,1.473,Pumice_rect,7,0,7,0,1
575865ba7b74a80006de2689,SCR,2024-06-10_12h19.40.412,LearnStrategy,2023.2.3,Win32,60.0240096,5,2,9,,,,,,,,4,01,,,,,,,,,,,,,6,12.04,0,,,,,,-0.141666667,-0.400925926,1,0,0,12.04,Pegmatite_rect,8,0,8,0,1
575865ba7b74a80006de2689,SCR,2024-06-10_12h19.40.412,LearnStrategy,2023.2.3,Win32,60.0240096,5,2,10,,,,,,,,5,07,,,,,,,,,,,,,5,1.329,1,,,,,,-0.346296296,-0.390740741,1,0,0,1.329,Obsidian_rect,9,0,9,0,1
575865ba7b74a80006de2689,SCR,2024-06-10_12h19.40.412,LearnStrategy,2023.2.3,Win32,60.0240096,5,2,11,,,,,,,,3,07,,,,,,,,,,,,,3,2.334,1,,,,,,0.125925926,-0.256481481,1,0,0,2.334,Diorite_rect,10,0,10,0,1
575865ba7b74a80006de2689,SCR,2024-06-10_12h19.40.412,LearnStrategy,2023.2.3,Win32,60.0240096,5,2,12,,,,,,,,2,10,,,,,,,,,,,,,4,3.167,0,,,,,,0.39537037,-0.244444444,1,0,0,3.167,Gabbro_rect,11,0,11,0,1
575865ba7b74a80006de2689,SCR,2024-06-10_12h19.40.412,LearnStrategy,2023.2.3,Win32,60.0240096,5,2,13,,,,,,,,2,04,,,,,,,,,,,,,2,1.586,1,,,,,,-0.132407407,-0.252777778,1,0,0,1.586,Basalt_rect,12,0,12,0,1
575865ba7b74a80006de2689,SCR,2024-06-10_12h19.40.412,LearnStrategy,2023.2.3,Win32,60.0240096,5,2,14,,,,,,,,8,06,,,,,,,,,,,,,8,1.545,1,,,,,,0.387962963,-0.389814815,1,0,0,1.545,Pumice_rect,13,0,13,0,1
575865ba7b74a80006de2689,SCR,2024-06-10_12h19.40.412,LearnStrategy,2023.2.3,Win32,60.0240096,5,2,15,,,,,,,,6,05,,,,,,,,,,,,,6,5.079,1,,,,,,-0.140740741,-0.407407407,1,0,0,5.079,Pegmatite_rect,14,0,14,0,1
575865ba7b74a80006de2689,SCR,2024-06-10_12h19.40.412,LearnStrategy,2023.2.3,Win32,60.0240096,5,2,16,,,,,,,,7,08,,,,,,,,,,,,,7,1.675,1,,,,,,0.110185185,-0.39537037,1,0,0,1.675,Peridotite_rect,15,0,15,0,1
575865ba7b74a80006de2689,SCR,2024-06-10_12h19.40.412,LearnStrategy,2023.2.3,Win32,60.0240096,6,1,1,-0.061111111,-0.390740741,1,0,0,1.407,Gabbro_14,4,14,1,4,1.407,4,14,0.403703704,-0.249074074,1,0,0,15.27,Gabbro_rect,4,15.27,1,0,0,0,0,1,,,,,,,,,,,,
575865ba7b74a80006de2689,SCR,2024-06-10_12h19.40.412,LearnStrategy,2023.2.3,Win32,60.0240096,6,1,2,-0.040740741,-0.09537037,1,0,0,0.833,Gabbro_11,4,11,3,4,0.833,4,11,0.355555556,-0.24537037,1,0,0,9.328,Gabbro_rect,4,9.328,1,1,0,1,0,1,,,,,,,,,,,,
575865ba7b74a80006de2689,SCR,2024-06-10_12h19.40.412,LearnStrategy,2023.2.3,Win32,60.0240096,6,1,3,0.368518519,0.074074074,1,0,0,1.18,Basalt_09,2,09,4,7,1.18,2,09,-0.12037037,-0.257407407,1,0,0,1.717,Basalt_rect,2,1.717,1,2,0,2,0,1,,,,,,,,,,,,
575865ba7b74a80006de2689,SCR,2024-06-10_12h19.40.412,LearnStrategy,2023.2.3,Win32,60.0240096,6,1,4,0.372222222,-0.07037037,1,0,0,1.067,Basalt_05,2,05,3,7,1.067,2,05,-0.122222222,-0.248148148,1,0,0,1.93,Basalt_rect,2,1.93,1,3,0,3,0,1,,,,,,,,,,,,
575865ba7b74a80006de2689,SCR,2024-06-10_12h19.40.412,LearnStrategy,2023.2.3,Win32,60.0240096,6,1,5,0.4,-0.071296296,1,0,0,1.04,Basalt_05,2,05,3,7,1.04,2,05,-0.1,-0.236111111,1,0,0,1.197,Basalt_rect,2,1.197,1,4,0,4,0,1,,,,,,,,,,,,
575865ba7b74a80006de2689,SCR,2024-06-10_12h19.40.412,LearnStrategy,2023.2.3,Win32,60.0240096,6,1,6,0.227777778,-0.231481481,1,0,0,1.511,Gabbro_10,4,10,2,6,1.511,4,10,0.371296296,-0.237962963,1,0,0,11.069,Gabbro_rect,4,11.069,1,5,0,5,0,1,,,,,,,,,,,,
575865ba7b74a80006de2689,SCR,2024-06-10_12h19.40.412,LearnStrategy,2023.2.3,Win32,60.0240096,6,1,7,-0.044444444,0.212037037,1,0,0,1.423,Pegmatite_13,6,13,5,4,1.423,6,13,-0.114814815,-0.411111111,1,0,0,3.365,Pegmatite_rect,6,3.365,1,6,0,6,0,1,,,,,,,,,,,,
575865ba7b74a80006de2689,SCR,2024-06-10_12h19.40.412,LearnStrategy,2023.2.3,Win32,60.0240096,6,1,8,-0.356481481,0.219444444,1,0,0,1.392,Peridotite_14,7,14,5,2,1.392,7,14,0.125,-0.390740741,1,0,0,1.859,Peridotite_rect,7,1.859,1,7,0,7,0,1,,,,,,,,,,,,
575865ba7b74a80006de2689,SCR,2024-06-10_12h19.40.412,LearnStrategy,2023.2.3,Win32,60.0240096,6,1,9,0.261111111,-0.281481481,1,0,0,1.592,Gabbro_10,4,10,2,6,1.592,4,10,0.373148148,-0.237962963,1,0,0,3.574,Gabbro_rect,4,3.574,1,8,0,8,0,1,,,,,,,,,,,,
575865ba7b74a80006de2689,SCR,2024-06-10_12h19.40.412,LearnStrategy,2023.2.3,Win32,60.0240096,6,1,10,-0.05462963,0.378703704,1,0,0,1.333,Obsidian_14,5,14,6,4,1.333,5,14,-0.426851852,-0.412037037,1,0,0,1.115,Obsidian_rect,5,1.115,1,9,0,9,0,1,,,,,,,,,,,,
575865ba7b74a80006de2689,SCR,2024-06-10_12h19.40.412,LearnStrategy,2023.2.3,Win32,60.0240096,6,1,11,-0.071296296,-0.388888889,1,0,0,1.107,Gabbro_14,4,14,1,4,1.107,4,14,0.375925926,-0.255555556,1,0,0,2.335,Gabbro_rect,4,2.335,1,10,0,10,0,1,,,,,,,,,,,,
575865ba7b74a80006de2689,SCR,2024-06-10_12h19.40.412,LearnStrategy,2023.2.3,Win32,60.0240096,6,1,12,-0.242592593,-0.42962963,1,0,0,0.98,Diorite_15,3,15,1,3,0.98,3,15,0.142592593,-0.25462963,1,0,0,6.205,Diorite_rect,3,6.205,1,11,0,11,0,1,,,,,,,,,,,,
575865ba7b74a80006de2689,SCR,2024-06-10_12h19.40.412,LearnStrategy,2023.2.3,Win32,60.0240096,6,1,13,-0.526851852,-0.282407407,1,0,0,1.281,Diorite_13,3,13,2,1,1.281,3,13,0.099074074,-0.237962963,1,0,0,2.392,Diorite_rect,3,2.392,1,12,0,12,0,1,,,,,,,,,,,,
575865ba7b74a80006de2689,SCR,2024-06-10_12h19.40.412,LearnStrategy,2023.2.3,Win32,60.0240096,6,1,14,0.39537037,-0.419444444,1,0,0,1.328,Pegmatite_16,6,16,1,7,1.328,6,16,-0.142592593,-0.399074074,1,0,0,2.1,Pegmatite_rect,6,2.1,1,13,0,13,0,1,,,,,,,,,,,,
575865ba7b74a80006de2689,SCR,2024-06-10_12h19.40.412,LearnStrategy,2023.2.3,Win32,60.0240096,6,1,15,-0.056481481,-0.235185185,1,0,0,1.192,Pumice_03,8,03,2,4,1.192,8,03,0.353703704,-0.386111111,1,0,0,1.246,Pumice_rect,8,1.246,1,14,0,14,0,1,,,,,,,,,,,,
575865ba7b74a80006de2689,SCR,2024-06-10_12h19.40.412,LearnStrategy,2023.2.3,Win32,60.0240096,6,1,16,-0.373148148,0.392592593,1,0,0,1.063,Basalt_16,2,16,6,2,1.063,2,16,0.384259259,-0.255555556,1,0,0,7.66,Gabbro_rect,4,7.66,0,15,0,15,0,1,,,,,,,,,,,,
575865ba7b74a80006de2689,SCR,2024-06-10_12h19.40.412,LearnStrategy,2023.2.3,Win32,60.0240096,6,2,1,,,,,,,,3,14,,,,,,,,,,,,,3,5.152,1,,,,,,0.133333333,-0.233333333,1,0,0,5.152,Diorite_rect,0,0,0,0,1
575865ba7b74a80006de2689,SCR,2024-06-10_12h19.40.412,LearnStrategy,2023.2.3,Win32,60.0240096,6,2,2,,,,,,,,6,15,,,,,,,,,,,,,6,1.673,1,,,,,,-0.100925926,-0.397222222,1,0,0,1.673,Pegmatite_rect,1,0,1,0,1
575865ba7b74a80006de2689,SCR,2024-06-10_12h19.40.412,LearnStrategy,2023.2.3,Win32,60.0240096,6,2,3,,,,,,,,6,12,,,,,,,,,,,,,6,1.433,1,,,,,,-0.100925926,-0.397222222,1,0,0,1.433,Pegmatite_rect,2,0,2,0,1
575865ba7b74a80006de2689,SCR,2024-06-10_12h19.40.412,LearnStrategy,2023.2.3,Win32,60.0240096,6,2,4,,,,,,,,1,11,,,,,,,,,,,,,1,6.053,1,,,,,,-0.341666667,-0.259259259,1,0,0,6.053,Andesite_rect,3,0,3,0,1
575865ba7b74a80006de2689,SCR,2024-06-10_12h19.40.412,LearnStrategy,2023.2.3,Win32,60.0240096,6,2,5,,,,,,,,5,12,,,,,,,,,,,,,5,1.169,1,,,,,,-0.371296296,-0.389814815,1,0,0,1.169,Obsidian_rect,4,0,4,0,1
575865ba7b74a80006de2689,SCR,2024-06-10_12h19.40.412,LearnStrategy,2023.2.3,Win32,60.0240096,6,2,6,,,,,,,,2,01,,,,,,,,,,,,,2,1.846,1,,,,,,-0.136111111,-0.262962963,1,0,0,1.846,Basalt_rect,5,0,5,0,1
575865ba7b74a80006de2689,SCR,2024-06-10_12h19.40.412,LearnStrategy,2023.2.3,Win32,60.0240096,6,2,7,,,,,,,,4,13,,,,,,,,,,,,,4,3.287,1,,,,,,0.431481481,-0.237962963,1,0,0,3.287,Gabbro_rect,6,0,6,0,1
575865ba7b74a80006de2689,SCR,2024-06-10_12h19.40.412,LearnStrategy,2023.2.3,Win32,60.0240096,6,2,8,,,,,,,,8,16,,,,,,,,,,,,,8,1.308,1,,,,,,0.411111111,-0.387037037,1,0,0,1.308,Pumice_rect,7,0,7,0,1
575865ba7b74a80006de2689,SCR,2024-06-10_12h19.40.412,LearnStrategy,2023.2.3,Win32,60.0240096,6,2,9,,,,,,,,3,09,,,,,,,,,,,,,3,3.363,1,,,,,,0.100925926,-0.256481481,1,0,0,3.363,Diorite_rect,8,0,8,0,1
575865ba7b74a80006de2689,SCR,2024-06-10_12h19.40.412,LearnStrategy,2023.2.3,Win32,60.0240096,6,2,10,,,,,,,,7,06,,,,,,,,,,,,,7,1.596,1,,,,,,0.109259259,-0.411111111,1,0,0,1.596,Peridotite_rect,9,0,9,0,1
575865ba7b74a80006de2689,SCR,2024-06-10_12h19.40.412,LearnStrategy,2023.2.3,Win32,60.0240096,6,2,11,,,,,,,,2,11,,,,,,,,,,,,,2,2.6,1,,,,,,-0.125,-0.263888889,1,0,0,2.6,Basalt_rect,10,0,10,0,1
575865ba7b74a80006de2689,SCR,2024-06-10_12h19.40.412,LearnStrategy,2023.2.3,Win32,60.0240096,6,2,12,,,,,,,,8,09,,,,,,,,,,,,,8,1.366,1,,,,,,0.375,-0.381481481,1,0,0,1.366,Pumice_rect,11,0,11,0,1
575865ba7b74a80006de2689,SCR,2024-06-10_12h19.40.412,LearnStrategy,2023.2.3,Win32,60.0240096,6,2,13,,,,,,,,7,02,,,,,,,,,,,,,7,1.34,1,,,,,,0.128703704,-0.387962963,1,0,0,1.34,Peridotite_rect,12,0,12,0,1
575865ba7b74a80006de2689,SCR,2024-06-10_12h19.40.412,LearnStrategy,2023.2.3,Win32,60.0240096,6,2,14,,,,,,,,4,15,,,,,,,,,,,,,4,3.732,1,,,,,,0.372222222,-0.25,1,0,0,3.732,Gabbro_rect,13,0,13,0,1
575865ba7b74a80006de2689,SCR,2024-06-10_12h19.40.412,LearnStrategy,2023.2.3,Win32,60.0240096,6,2,15,,,,,,,,5,09,,,,,,,,,,,,,5,1.417,1,,,,,,-0.368518519,-0.411111111,1,0,0,1.417,Obsidian_rect,14,0,14,0,1
575865ba7b74a80006de2689,SCR,2024-06-10_12h19.40.412,LearnStrategy,2023.2.3,Win32,60.0240096,6,2,16,,,,,,,,1,14,,,,,,,,,,,,,1,5.79,1,,,,,,-0.364814815,-0.261111111,1,0,0,5.79,Andesite_rect,15,0,15,0,1
575865ba7b74a80006de2689,SCR,2024-06-10_12h19.40.412,LearnStrategy,2023.2.3,Win32,60.0240096,7,1,1,0.527777778,0.076851852,1,0,0,1.581,Pegmatite_11,6,11,4,8,1.581,6,11,-0.105555556,-0.392592593,1,0,0,5.983,Pegmatite_rect,6,5.983,1,0,0,0,0,1,,,,,,,,,,,,
575865ba7b74a80006de2689,SCR,2024-06-10_12h19.40.412,LearnStrategy,2023.2.3,Win32,60.0240096,7,1,2,-0.387962963,0.373148148,1,0,0,1.213,Basalt_16,2,16,6,2,1.213,2,16,-0.115740741,-0.248148148,1,0,0,2.815,Basalt_rect,2,2.815,1,1,0,1,0,1,,,,,,,,,,,,
575865ba7b74a80006de2689,SCR,2024-06-10_12h19.40.412,LearnStrategy,2023.2.3,Win32,60.0240096,7,1,3,0.553703704,-0.125,1,0,0,0.95,Basalt_02,2,02,3,8,0.95,2,02,-0.117592593,-0.251851852,1,0,0,1.833,Basalt_rect,2,1.833,1,2,0,2,0,1,,,,,,,,,,,,
575865ba7b74a80006de2689,SCR,2024-06-10_12h19.40.412,LearnStrategy,2023.2.3,Win32,60.0240096,7,1,4,-0.385185185,-0.239814815,1,0,0,1.548,Gabbro_16,4,16,2,2,1.548,4,16,0.419444444,-0.237037037,1,0,0,3.031,Gabbro_rect,4,3.031,1,3,0,3,0,1,,,,,,,,,,,,
575865ba7b74a80006de2689,SCR,2024-06-10_12h19.40.412,LearnStrategy,2023.2.3,Win32,60.0240096,7,1,5,0.04537037,0.07962963,1,0,0,0.926,Pumice_08,8,08,4,5,0.926,8,08,0.418518519,-0.389814815,1,0,0,2.229,Pumice_rect,8,2.229,1,4,0,4,0,1,,,,,,,,,,,,
575865ba7b74a80006de2689,SCR,2024-06-10_12h19.40.412,LearnStrategy,2023.2.3,Win32,60.0240096,7,1,6,-0.382407407,0.22962963,1,0,0,0.99,Peridotite_14,7,14,5,2,0.99,7,14,0.130555556,-0.409259259,1,0,0,1.321,Peridotite_rect,7,1.321,1,5,0,5,0,1,,,,,,,,,,,,
575865ba7b74a80006de2689,SCR,2024-06-10_12h19.40.412,LearnStrategy,2023.2.3,Win32,60.0240096,7,1,7,0.537037037,0.246296296,1,0,0,1.085,Diorite_12,3,12,5,8,1.085,3,12,0.122222222,-0.246296296,1,0,0,2.982,Diorite_rect,3,2.982,1,6,0,6,0,1,,,,,,,,,,,,
575865ba7b74a80006de2689,SCR,2024-06-10_12h19.40.412,LearnStrategy,2023.2.3,Win32,60.0240096,7,1,8,0.25,0.388888889,1,0,0,1.191,Pegmatite_03,6,03,6,6,1.191,6,03,-0.125,-0.406481481,1,0,0,2.122,Pegmatite_rect,6,2.122,1,7,0,7,0,1,,,,,,,,,,,,
575865ba7b74a80006de2689,SCR,2024-06-10_12h19.40.412,LearnStrategy,2023.2.3,Win32,60.0240096,7,1,9,0.20462963,-0.237037037,1,0,0,1.359,Gabbro_10,4,10,2,6,1.359,4,10,0.4,-0.247222222,1,0,0,3.011,Gabbro_rect,4,3.011,1,8,0,8,0,1,,,,,,,,,,,,
575865ba7b74a80006de2689,SCR,2024-06-10_12h19.40.412,LearnStrategy,2023.2.3,Win32,60.0240096,7,1,10,-0.047222222,0.380555556,1,0,0,1.029,Obsidian_14,5,14,6,4,1.029,5,14,-0.377777778,-0.411111111,1,0,0,1.237,Obsidian_rect,5,1.237,1,9,0,9,0,1,,,,,,,,,,,,
575865ba7b74a80006de2689,SCR,2024-06-10_12h19.40.412,LearnStrategy,2023.2.3,Win32,60.0240096,7,1,11,0.598148148,-0.262962963,1,0,0,1.193,Gabbro_03,4,03,2,8,1.193,4,03,0.369444444,-0.249074074,1,0,0,9.74,Gabbro_rect,4,9.74,1,10,0,10,0,1,,,,,,,,,,,,
575865ba7b74a80006de2689,SCR,2024-06-10_12h19.40.412,LearnStrategy,2023.2.3,Win32,60.0240096,7,1,12,-0.236111111,-0.092592593,1,0,0,0.946,Basalt_08,2,08,3,3,0.946,2,08,-0.125925926,-0.258333333,1,0,0,2.199,Basalt_rect,2,2.199,1,11,0,11,0,1,,,,,,,,,,,,
575865ba7b74a80006de2689,SCR,2024-06-10_12h19.40.412,LearnStrategy,2023.2.3,Win32,60.0240096,7,1,13,0.04537037,-0.10462963,1,0,0,0.834,Andesite_07,1,07,3,5,0.834,1,07,-0.357407407,-0.233333333,1,0,0,4.253,Andesite_rect,1,4.253,1,12,0,12,0,1,,,,,,,,,,,,
575865ba7b74a80006de2689,SCR,2024-06-10_12h19.40.412,LearnStrategy,2023.2.3,Win32,60.0240096,7,1,14,0.215740741,-0.402777778,1,0,0,1.13,Diorite_08,3,08,1,6,1.13,3,08,0.126851852,-0.251851852,1,0,0,2.545,Diorite_rect,3,2.545,1,13,0,13,0,1,,,,,,,,,,,,
575865ba7b74a80006de2689,SCR,2024-06-10_12h19.40.412,LearnStrategy,2023.2.3,Win32,60.0240096,7,1,15,-0.051851852,-0.106481481,1,0,0,0.842,Gabbro_11,4,11,3,4,0.842,4,11,0.363888889,-0.244444444,1,0,0,2.823,Gabbro_rect,4,2.823,1,14,0,14,0,1,,,,,,,,,,,,
575865ba7b74a80006de2689,SCR,2024-06-10_12h19.40.412,LearnStrategy,2023.2.3,Win32,60.0240096,7,1,16,0.225925926,-0.256481481,1,0,0,1.111,Gabbro_10,4,10,2,6,1.111,4,10,0.34537037,-0.241666667,1,0,0,2.111,Gabbro_rect,4,2.111,1,15,0,15,0,1,,,,,,,,,,,,
575865ba7b74a80006de2689,SCR,2024-06-10_12h19.40.412,LearnStrategy,2023.2.3,Win32,60.0240096,7,2,1,,,,,,,,5,06,,,,,,,,,,,,,5,1.541,1,,,,,,-0.372222222,-0.397222222,1,0,0,1.541,Obsidian_rect,0,0,0,0,1
575865ba7b74a80006de2689,SCR,2024-06-10_12h19.40.412,LearnStrategy,2023.2.3,Win32,60.0240096,7,2,2,,,,,,,,7,16,,,,,,,,,,,,,7,1.678,1,,,,,,0.134259259,-0.411111111,1,0,0,1.678,Peridotite_rect,1,0,1,0,1
575865ba7b74a80006de2689,SCR,2024-06-10_12h19.40.412,LearnStrategy,2023.2.3,Win32,60.0240096,7,2,3,,,,,,,,1,04,,,,,,,,,,,,,1,8.355,1,,,,,,-0.344444444,-0.259259259,1,0,0,8.355,Andesite_rect,2,0,2,0,1
575865ba7b74a80006de2689,SCR,2024-06-10_12h19.40.412,LearnStrategy,2023.2.3,Win32,60.0240096,7,2,4,,,,,,,,7,02,,,,,,,,,,,,,7,1.62,1,,,,,,0.135185185,-0.407407407,1,0,0,1.62,Peridotite_rect,3,0,3,0,1
575865ba7b74a80006de2689,SCR,2024-06-10_12h19.40.412,LearnStrategy,2023.2.3,Win32,60.0240096,7,2,5,,,,,,,,4,01,,,,,,,,,,,,,4,6.23,1,,,,,,0.366666667,-0.25462963,1,0,0,6.23,Gabbro_rect,4,0,4,0,1
575865ba7b74a80006de2689,SCR,2024-06-10_12h19.40.412,LearnStrategy,2023.2.3,Win32,60.0240096,7,2,6,,,,,,,,4,09,,,,,,,,,,,,,4,4.158,1,,,,,,0.339814815,-0.248148148,1,0,0,4.158,Gabbro_rect,5,0,5,0,1
575865ba7b74a80006de2689,SCR,2024-06-10_12h19.40.412,LearnStrategy,2023.2.3,Win32,60.0240096,7,2,7,,,,,,,,2,14,,,,,,,,,,,,,4,3.069,0,,,,,,0.339814815,-0.248148148,1,0,0,3.069,Gabbro_rect,6,0,6,0,1
575865ba7b74a80006de2689,SCR,2024-06-10_12h19.40.412,LearnStrategy,2023.2.3,Win32,60.0240096,7,2,8,,,,,,,,6,07,,,,,,,,,,,,,6,1.726,1,,,,,,-0.109259259,-0.387037037,1,0,0,1.726,Pegmatite_rect,7,0,7,0,1
575865ba7b74a80006de2689,SCR,2024-06-10_12h19.40.412,LearnStrategy,2023.2.3,Win32,60.0240096,7,2,9,,,,,,,,8,09,,,,,,,,,,,,,8,1.398,1,,,,,,0.396296296,-0.391666667,1,0,0,1.398,Pumice_rect,8,0,8,0,1
575865ba7b74a80006de2689,SCR,2024-06-10_12h19.40.412,LearnStrategy,2023.2.3,Win32,60.0240096,7,2,10,,,,,,,,3,16,,,,,,,,,,,,,3,5.656,1,,,,,,0.096296296,-0.257407407,1,0,0,5.656,Diorite_rect,9,0,9,0,1
575865ba7b74a80006de2689,SCR,2024-06-10_12h19.40.412,LearnStrategy,2023.2.3,Win32,60.0240096,7,2,11,,,,,,,,2,04,,,,,,,,,,,,,2,3.329,1,,,,,,-0.1,-0.253703704,1,0,0,3.329,Basalt_rect,10,0,10,0,1
575865ba7b74a80006de2689,SCR,2024-06-10_12h19.40.412,LearnStrategy,2023.2.3,Win32,60.0240096,7,2,12,,,,,,,,8,14,,,,,,,,,,,,,8,1.416,1,,,,,,0.346296296,-0.390740741,1,0,0,1.416,Pumice_rect,11,0,11,0,1
575865ba7b74a80006de2689,SCR,2024-06-10_12h19.40.412,LearnStrategy,2023.2.3,Win32,60.0240096,7,2,13,,,,,,,,6,10,,,,,,,,,,,,,7,5.152,0,,,,,,0.114814815,-0.398148148,1,0,0,5.152,Peridotite_rect,12,0,12,0,1
575865ba7b74a80006de2689,SCR,2024-06-10_12h19.40.412,LearnStrategy,2023.2.3,Win32,60.0240096,7,2,14,,,,,,,,1,02,,,,,,,,,,,,,1,1.938,1,,,,,,-0.362962963,-0.258333333,1,0,0,1.938,Andesite_rect,13,0,13,0,1
575865ba7b74a80006de2689,SCR,2024-06-10_12h19.40.412,LearnStrategy,2023.2.3,Win32,60.0240096,7,2,15,,,,,,,,5,07,,,,,,,,,,,,,5,1.163,1,,,,,,-0.39537037,-0.390740741,1,0,0,1.163,Obsidian_rect,14,0,14,0,1
575865ba7b74a80006de2689,SCR,2024-06-10_12h19.40.412,LearnStrategy,2023.2.3,Win32,60.0240096,7,2,16,,,,,,,,3,07,,,,,,,,,,,,,3,1.959,1,,,,,,0.085185185,-0.258333333,1,0,0,1.959,Diorite_rect,15,0,15,0,1
575865ba7b74a80006de2689,SCR,2024-06-10_12h19.40.412,LearnStrategy,2023.2.3,Win32,60.0240096,8,1,1,0.410185185,-0.124074074,1,0,0,1.213,Basalt_05,2,05,3,7,1.213,2,05,-0.096296296,-0.242592593,1,0,0,3.492,Basalt_rect,2,3.492,1,0,0,0,0,1,,,,,,,,,,,,
575865ba7b74a80006de2689,SCR,2024-06-10_12h19.40.412,LearnStrategy,2023.2.3,Win32,60.0240096,8,1,2,-0.562962963,-0.253703704,1,0,0,7.076,Diorite_13,3,13,2,1,7.076,2,05,0.107407407,-0.232407407,1,0,0,1.976,Diorite_rect,3,1.976,1,1,0,1,0,1,,,,,,,,,,,,
575865ba7b74a80006de2689,SCR,2024-06-10_12h19.40.412,LearnStrategy,2023.2.3,Win32,60.0240096,8,1,3,-0.084259259,0.075925926,1,0,0,5.582,Diorite_10,3,10,4,4,5.582,4,10,-0.37037037,-0.240740741,1,0,0,3.253,Andesite_rect,1,3.253,0,2,0,2,0,1,,,,,,,,,,,,
575865ba7b74a80006de2689,SCR,2024-06-10_12h19.40.412,LearnStrategy,2023.2.3,Win32,60.0240096,8,1,4,-0.417592593,0.411111111,1,0,0,1.321,Basalt_16,2,16,6,2,1.321,2,16,-0.072222222,-0.241666667,1,0,0,9.905,Basalt_rect,2,9.905,1,3,0,3,0,1,,,,,,,,,,,,
575865ba7b74a80006de2689,SCR,2024-06-10_12h19.40.412,LearnStrategy,2023.2.3,Win32,60.0240096,8,1,5,0.374074074,-0.221296296,1,0,0,1.462,Andesite_01,1,01,2,7,1.462,1,01,-0.369444444,-0.237962963,1,0,0,1.985,Andesite_rect,1,1.985,1,4,0,4,0,1,,,,,,,,,,,,
575865ba7b74a80006de2689,SCR,2024-06-10_12h19.40.412,LearnStrategy,2023.2.3,Win32,60.0240096,8,1,6,-0.089814815,0.227777778,1,0,0,1.001,Pegmatite_13,6,13,5,4,1.001,6,13,-0.133333333,-0.399074074,1,0,0,2.969,Pegmatite_rect,6,2.969,1,5,0,5,0,1,,,,,,,,,,,,
575865ba7b74a80006de2689,SCR,2024-06-10_12h19.40.412,LearnStrategy,2023.2.3,Win32,60.0240096,8,1,7,-0.058333333,-0.383333333,1,0,0,1.114,Gabbro_14,4,14,1,4,1.114,4,14,-0.106481481,-0.239814815,1,0,0,1.591,Basalt_rect,2,1.591,0,6,0,6,0,1,,,,,,,,,,,,
575865ba7b74a80006de2689,SCR,2024-06-10_12h19.40.412,LearnStrategy,2023.2.3,Win32,60.0240096,8,1,8,-0.050925926,-0.080555556,1,0,0,0.78,Gabbro_11,4,11,3,4,0.78,4,11,0.351851852,-0.233333333,1,0,0,1.291,Gabbro_rect,4,1.291,1,7,0,7,0,1,,,,,,,,,,,,
575865ba7b74a80006de2689,SCR,2024-06-10_12h19.40.412,LearnStrategy,2023.2.3,Win32,60.0240096,8,1,9,-0.215740741,-0.393518519,1,0,0,0.993,Diorite_15,3,15,1,3,0.993,3,15,0.113888889,-0.263888889,1,0,0,3.9,Diorite_rect,3,3.9,1,8,0,8,0,1,,,,,,,,,,,,
575865ba7b74a80006de2689,SCR,2024-06-10_12h19.40.412,LearnStrategy,2023.2.3,Win32,60.0240096,8,1,10,0.073148148,-0.391666667,1,0,0,1.023,Basalt_12,2,12,1,5,1.023,2,12,0.362037037,-0.403703704,1,0,0,4.333,Pumice_rect,8,4.333,0,9,0,9,0,1,,,,,,,,,,,,
575865ba7b74a80006de2689,SCR,2024-06-10_12h19.40.412,LearnStrategy,2023.2.3,Win32,60.0240096,8,1,11,-0.07037037,-0.283333333,1,0,0,1.083,Pumice_03,8,03,2,4,1.083,8,03,0.392592593,-0.406481481,1,0,0,1.243,Pumice_rect,8,1.243,1,10,0,10,0,1,,,,,,,,,,,,
575865ba7b74a80006de2689,SCR,2024-06-10_12h19.40.412,LearnStrategy,2023.2.3,Win32,60.0240096,8,1,12,0.525,0.081481481,1,0,0,1.049,Pegmatite_11,6,11,4,8,1.049,6,11,-0.1,-0.406481481,1,0,0,1.747,Pegmatite_rect,6,1.747,1,11,0,11,0,1,,,,,,,,,,,,
575865ba7b74a80006de2689,SCR,2024-06-10_12h19.40.412,LearnStrategy,2023.2.3,Win32,60.0240096,8,1,13,0.375925926,0.238888889,1,0,0,1.427,Obsidian_10,5,10,5,7,1.427,5,10,-0.407407407,-0.386111111,1,0,0,4.997,Obsidian_rect,5,4.997,1,12,0,12,0,1,,,,,,,,,,,,
575865ba7b74a80006de2689,SCR,2024-06-10_12h19.40.412,LearnStrategy,2023.2.3,Win32,60.0240096,8,1,14,0.07037037,-0.246296296,1,0,0,1.035,Pegmatite_08,6,08,2,5,1.035,6,08,-0.12962963,-0.396296296,1,0,0,2.532,Pegmatite_rect,6,2.532,1,13,0,13,0,1,,,,,,,,,,,,
575865ba7b74a80006de2689,SCR,2024-06-10_12h19.40.412,LearnStrategy,2023.2.3,Win32,60.0240096,8,1,15,0.553703704,-0.260185185,1,0,0,1.032,Gabbro_03,4,03,2,8,1.032,4,03,0.366666667,-0.236111111,1,0,0,2.542,Gabbro_rect,4,2.542,1,14,0,14,0,1,,,,,,,,,,,,
575865ba7b74a80006de2689,SCR,2024-06-10_12h19.40.412,LearnStrategy,2023.2.3,Win32,60.0240096,8,1,16,-0.381481481,-0.400925926,1,0,0,1.145,Peridotite_15,7,15,1,2,1.145,7,15,0.126851852,-0.388888889,1,0,0,1.25,Peridotite_rect,7,1.25,1,15,0,15,0,1,,,,,,,,,,,,
575865ba7b74a80006de2689,SCR,2024-06-10_12h19.40.412,LearnStrategy,2023.2.3,Win32,60.0240096,8,2,1,,,,,,,,1,14,,,,,,,,,,,,,1,2.484,1,,,,,,-0.358333333,-0.242592593,1,0,0,2.484,Andesite_rect,0,0,0,0,1
575865ba7b74a80006de2689,SCR,2024-06-10_12h19.40.412,LearnStrategy,2023.2.3,Win32,60.0240096,8,2,2,,,,,,,,3,11,,,,,,,,,,,,,3,1.842,1,,,,,,0.10462963,-0.25,1,0,0,1.842,Diorite_rect,1,0,1,0,1
575865ba7b74a80006de2689,SCR,2024-06-10_12h19.40.412,LearnStrategy,2023.2.3,Win32,60.0240096,8,2,3,,,,,,,,8,13,,,,,,,,,,,,,8,1.504,1,,,,,,0.375,-0.413888889,1,0,0,1.504,Pumice_rect,2,0,2,0,1
575865ba7b74a80006de2689,SCR,2024-06-10_12h19.40.412,LearnStrategy,2023.2.3,Win32,60.0240096,8,2,4,,,,,,,,8,06,,,,,,,,,,,,,8,1.318,1,,,,,,0.35462963,-0.387962963,1,0,0,1.318,Pumice_rect,3,0,3,0,1
575865ba7b74a80006de2689,SCR,2024-06-10_12h19.40.412,LearnStrategy,2023.2.3,Win32,60.0240096,8,2,5,,,,,,,,2,06,,,,,,,,,,,,,2,5.32,1,,,,,,-0.096296296,-0.257407407,1,0,0,5.32,Basalt_rect,4,0,4,0,1
575865ba7b74a80006de2689,SCR,2024-06-10_12h19.40.412,LearnStrategy,2023.2.3,Win32,60.0240096,8,2,6,,,,,,,,7,10,,,,,,,,,,,,,7,1.324,1,,,,,,0.124074074,-0.4,1,0,0,1.324,Peridotite_rect,5,0,5,0,1
575865ba7b74a80006de2689,SCR,2024-06-10_12h19.40.412,LearnStrategy,2023.2.3,Win32,60.0240096,8,2,7,,,,,,,,6,15,,,,,,,,,,,,,6,1.733,1,,,,,,-0.112037037,-0.396296296,1,0,0,1.733,Pegmatite_rect,6,0,6,0,1
575865ba7b74a80006de2689,SCR,2024-06-10_12h19.40.412,LearnStrategy,2023.2.3,Win32,60.0240096,8,2,8,,,,,,,,5,11,,,,,,,,,,,,,5,1.233,1,,,,,,-0.376851852,-0.410185185,1,0,0,1.233,Obsidian_rect,7,0,7,0,1
575865ba7b74a80006de2689,SCR,2024-06-10_12h19.40.412,LearnStrategy,2023.2.3,Win32,60.0240096,8,2,9,,,,,,,,7,06,,,,,,,,,,,,,7,1.359,1,,,,,,0.108333333,-0.390740741,1,0,0,1.359,Peridotite_rect,8,0,8,0,1
575865ba7b74a80006de2689,SCR,2024-06-10_12h19.40.412,LearnStrategy,2023.2.3,Win32,60.0240096,8,2,10,,,,,,,,3,09,,,,,,,,,,,,,3,3.997,1,,,,,,0.121296296,-0.253703704,1,0,0,3.997,Diorite_rect,9,0,9,0,1
575865ba7b74a80006de2689,SCR,2024-06-10_12h19.40.412,LearnStrategy,2023.2.3,Win32,60.0240096,8,2,11,,,,,,,,2,01,,,,,,,,,,,,,2,2.705,1,,,,,,-0.122222222,-0.261111111,1,0,0,2.705,Basalt_rect,10,0,10,0,1
575865ba7b74a80006de2689,SCR,2024-06-10_12h19.40.412,LearnStrategy,2023.2.3,Win32,60.0240096,8,2,12,,,,,,,,6,12,,,,,,,,,,,,,6,2.68,1,,,,,,-0.113888889,-0.394444444,1,0,0,2.68,Pegmatite_rect,11,0,11,0,1
575865ba7b74a80006de2689,SCR,2024-06-10_12h19.40.412,LearnStrategy,2023.2.3,Win32,60.0240096,8,2,13,,,,,,,,4,12,,,,,,,,,,,,,4,3.043,1,,,,,,0.380555556,-0.251851852,1,0,0,3.043,Gabbro_rect,12,0,12,0,1
575865ba7b74a80006de2689,SCR,2024-06-10_12h19.40.412,LearnStrategy,2023.2.3,Win32,60.0240096,8,2,14,,,,,,,,5,02,,,,,,,,,,,,,5,1.642,1,,,,,,-0.378703704,-0.400925926,1,0,0,1.642,Obsidian_rect,13,0,13,0,1
575865ba7b74a80006de2689,SCR,2024-06-10_12h19.40.412,LearnStrategy,2023.2.3,Win32,60.0240096,8,2,15,,,,,,,,1,11,,,,,,,,,,,,,1,1.755,1,,,,,,-0.348148148,-0.258333333,1,0,0,1.755,Andesite_rect,14,0,14,0,1
575865ba7b74a80006de2689,SCR,2024-06-10_12h19.40.412,LearnStrategy,2023.2.3,Win32,60.0240096,8,2,16,,,,,,,,4,05,,,,,,,,,,,,,1,16.054,0,,,,,,-0.37037037,-0.267592593,1,0,0,16.054,Andesite_rect,15,0,15,0,1
575865ba7b74a80006de2689,SCR,2024-06-10_12h19.40.412,LearnStrategy,2023.2.3,Win32,60.0240096,9,1,1,-0.373148148,0.222222222,1,0,0,1.126,Peridotite_14,7,14,5,2,1.126,7,14,0.150925926,-0.403703704,1,0,0,1.115,Peridotite_rect,7,1.115,1,0,0,0,0,1,,,,,,,,,,,,
575865ba7b74a80006de2689,SCR,2024-06-10_12h19.40.412,LearnStrategy,2023.2.3,Win32,60.0240096,9,1,2,0.088888889,-0.401851852,1,0,0,1.793,Basalt_12,2,12,1,5,1.793,2,12,-0.108333333,-0.247222222,1,0,0,2.924,Basalt_rect,2,2.924,1,1,0,1,0,1,,,,,,,,,,,,
575865ba7b74a80006de2689,SCR,2024-06-10_12h19.40.412,LearnStrategy,2023.2.3,Win32,60.0240096,9,1,3,0.199074074,-0.233333333,1,0,0,1.243,Gabbro_10,4,10,2,6,1.243,4,10,0.362037037,-0.241666667,1,0,0,1.994,Gabbro_rect,4,1.994,1,2,0,2,0,1,,,,,,,,,,,,
575865ba7b74a80006de2689,SCR,2024-06-10_12h19.40.412,LearnStrategy,2023.2.3,Win32,60.0240096,9,1,4,0.082407407,-0.4,1,0,0,1.311,Basalt_12,2,12,1,5,1.311,2,12,-0.103703704,-0.255555556,1,0,0,1.6,Basalt_rect,2,1.6,1,3,0,3,0,1,,,,,,,,,,,,
575865ba7b74a80006de2689,SCR,2024-06-10_12h19.40.412,LearnStrategy,2023.2.3,Win32,60.0240096,9,1,5,-0.382407407,-0.232407407,1,0,0,1.276,Gabbro_16,4,16,2,2,1.276,4,16,0.349074074,-0.247222222,1,0,0,3.12,Gabbro_rect,4,3.12,1,4,0,4,0,1,,,,,,,,,,,,
575865ba7b74a80006de2689,SCR,2024-06-10_12h19.40.412,LearnStrategy,2023.2.3,Win32,60.0240096,9,1,6,0.380555556,-0.101851852,1,0,0,1.109,Basalt_05,2,05,3,7,1.109,2,05,-0.116666667,-0.25462963,1,0,0,2.013,Basalt_rect,2,2.013,1,5,0,5,0,1,,,,,,,,,,,,
575865ba7b74a80006de2689,SCR,2024-06-10_12h19.40.412,LearnStrategy,2023.2.3,Win32,60.0240096,9,1,7,0.531481481,-0.244444444,1,0,0,1.251,Gabbro_03,4,03,2,8,1.251,4,03,-0.367592593,-0.246296296,1,0,0,5.367,Andesite_rect,1,5.367,0,6,0,6,0,1,,,,,,,,,,,,
575865ba7b74a80006de2689,SCR,2024-06-10_12h19.40.412,LearnStrategy,2023.2.3,Win32,60.0240096,9,1,8,-0.376851852,0.372222222,1,0,0,1.52,Basalt_16,2,16,6,2,1.52,2,16,-0.126851852,-0.25,1,0,0,2.295,Basalt_rect,2,2.295,1,7,0,7,0,1,,,,,,,,,,,,
575865ba7b74a80006de2689,SCR,2024-06-10_12h19.40.412,LearnStrategy,2023.2.3,Win32,60.0240096,9,1,9,-0.067592593,0.071296296,1,0,0,0.721,Diorite_10,3,10,4,4,0.721,3,10,0.110185185,-0.25,1,0,0,2.904,Diorite_rect,3,2.904,1,8,0,8,0,1,,,,,,,,,,,,
575865ba7b74a80006de2689,SCR,2024-06-10_12h19.40.412,LearnStrategy,2023.2.3,Win32,60.0240096,9,1,10,0.368518519,-0.390740741,1,0,0,1.168,Pegmatite_16,6,16,1,7,1.168,6,16,-0.113888889,-0.401851852,1,0,0,1.624,Pegmatite_rect,6,1.624,1,9,0,9,0,1,,,,,,,,,,,,
575865ba7b74a80006de2689,SCR,2024-06-10_12h19.40.412,LearnStrategy,2023.2.3,Win32,60.0240096,9,1,11,0.221296296,-0.283333333,1,0,0,1.2,Gabbro_10,4,10,2,6,1.2,4,10,0.378703704,-0.253703704,1,0,0,2.209,Gabbro_rect,4,2.209,1,10,0,10,0,1,,,,,,,,,,,,
575865ba7b74a80006de2689,SCR,2024-06-10_12h19.40.412,LearnStrategy,2023.2.3,Win32,60.0240096,9,1,12,0.060185185,-0.093518519,1,0,0,0.959,Andesite_07,1,07,3,5,0.959,1,07,-0.384259259,-0.240740741,1,0,0,3.997,Andesite_rect,1,3.997,1,11,0,11,0,1,,,,,,,,,,,,
575865ba7b74a80006de2689,SCR,2024-06-10_12h19.40.412,LearnStrategy,2023.2.3,Win32,60.0240096,9,1,13,0.399074074,0.225925926,1,0,0,1.309,Obsidian_10,5,10,5,7,1.309,5,10,-0.387962963,-0.414814815,1,0,0,1.136,Obsidian_rect,5,1.136,1,12,0,12,0,1,,,,,,,,,,,,
575865ba7b74a80006de2689,SCR,2024-06-10_12h19.40.412,LearnStrategy,2023.2.3,Win32,60.0240096,9,1,14,0.2,0.410185185,1,0,0,1.786,Pegmatite_03,6,03,6,6,1.786,6,03,-0.066666667,-0.398148148,1,0,0,2.707,Pegmatite_rect,6,2.707,1,13,0,13,0,1,,,,,,,,,,,,
575865ba7b74a80006de2689,SCR,2024-06-10_12h19.40.412,LearnStrategy,2023.2.3,Win32,60.0240096,9,1,15,0.072222222,0.080555556,1,0,0,0.837,Pumice_08,8,08,4,5,0.837,8,08,0.42037037,-0.400925926,1,0,0,1.618,Pumice_rect,8,1.618,1,14,0,14,0,1,,,,,,,,,,,,
575865ba7b74a80006de2689,SCR,2024-06-10_12h19.40.412,LearnStrategy,2023.2.3,Win32,60.0240096,9,1,16,0.398148148,-0.282407407,1,0,0,1.358,Andesite_01,1,01,2,7,1.358,1,01,-0.405555556,-0.250925926,1,0,0,3.641,Andesite_rect,1,3.641,1,15,0,15,0,1,,,,,,,,,,,,
575865ba7b74a80006de2689,SCR,2024-06-10_12h19.40.412,LearnStrategy,2023.2.3,Win32,60.0240096,9,2,1,,,,,,,,5,12,,,,,,,,,,,,,5,1.251,1,,,,,,-0.393518519,-0.402777778,1,0,0,1.251,Obsidian_rect,0,0,0,0,1
575865ba7b74a80006de2689,SCR,2024-06-10_12h19.40.412,LearnStrategy,2023.2.3,Win32,60.0240096,9,2,2,,,,,,,,8,16,,,,,,,,,,,,,8,1.29,1,,,,,,0.413888889,-0.414814815,1,0,0,1.29,Pumice_rect,1,0,1,0,1
575865ba7b74a80006de2689,SCR,2024-06-10_12h19.40.412,LearnStrategy,2023.2.3,Win32,60.0240096,9,2,3,,,,,,,,2,10,,,,,,,,,,,,,2,6.774,1,,,,,,-0.088888889,-0.246296296,1,0,0,6.774,Basalt_rect,2,0,2,0,1
575865ba7b74a80006de2689,SCR,2024-06-10_12h19.40.412,LearnStrategy,2023.2.3,Win32,60.0240096,9,2,4,,,,,,,,2,11,,,,,,,,,,,,,2,5.39,1,,,,,,-0.088888889,-0.246296296,1,0,0,5.39,Basalt_rect,3,0,3,0,1
575865ba7b74a80006de2689,SCR,2024-06-10_12h19.40.412,LearnStrategy,2023.2.3,Win32,60.0240096,9,2,5,,,,,,,,6,05,,,,,,,,,,,,,6,1.858,1,,,,,,-0.110185185,-0.403703704,1,0,0,1.858,Pegmatite_rect,4,0,4,0,1
575865ba7b74a80006de2689,SCR,2024-06-10_12h19.40.412,LearnStrategy,2023.2.3,Win32,60.0240096,9,2,6,,,,,,,,3,06,,,,,,,,,,,,,3,3.064,1,,,,,,0.128703704,-0.259259259,1,0,0,3.064,Diorite_rect,5,0,5,0,1
575865ba7b74a80006de2689,SCR,2024-06-10_12h19.40.412,LearnStrategy,2023.2.3,Win32,60.0240096,9,2,7,,,,,,,,5,09,,,,,,,,,,,,,5,1.243,1,,,,,,-0.362037037,-0.415740741,1,0,0,1.243,Obsidian_rect,6,0,6,0,1
575865ba7b74a80006de2689,SCR,2024-06-10_12h19.40.412,LearnStrategy,2023.2.3,Win32,60.0240096,9,2,8,,,,,,,,3,14,,,,,,,,,,,,,3,2.436,1,,,,,,0.105555556,-0.249074074,1,0,0,2.436,Diorite_rect,7,0,7,0,1
575865ba7b74a80006de2689,SCR,2024-06-10_12h19.40.412,LearnStrategy,2023.2.3,Win32,60.0240096,9,2,9,,,,,,,,1,05,,,,,,,,,,,,,1,1.781,1,,,,,,-0.368518519,-0.251851852,1,0,0,1.781,Andesite_rect,8,0,8,0,1
575865ba7b74a80006de2689,SCR,2024-06-10_12h19.40.412,LearnStrategy,2023.2.3,Win32,60.0240096,9,2,10,,,,,,,,1,06,,,,,,,,,,,,,1,1.411,1,,,,,,-0.366666667,-0.251851852,1,0,0,1.411,Andesite_rect,9,0,9,0,1
575865ba7b74a80006de2689,SCR,2024-06-10_12h19.40.412,LearnStrategy,2023.2.3,Win32,60.0240096,9,2,11,,,,,,,,6,06,,,,,,,,,,,,,6,1.674,1,,,,,,-0.112037037,-0.39537037,1,0,0,1.674,Pegmatite_rect,10,0,10,0,1
575865ba7b74a80006de2689,SCR,2024-06-10_12h19.40.412,LearnStrategy,2023.2.3,Win32,60.0240096,9,2,12,,,,,,,,8,15,,,,,,,,,,,,,8,1.547,1,,,,,,0.383333333,-0.403703704,1,0,0,1.547,Pumice_rect,11,0,11,0,1
575865ba7b74a80006de2689,SCR,2024-06-10_12h19.40.412,LearnStrategy,2023.2.3,Win32,60.0240096,9,2,13,,,,,,,,7,05,,,,,,,,,,,,,7,1.363,1,,,,,,0.144444444,-0.407407407,1,0,0,1.363,Peridotite_rect,12,0,12,0,1
575865ba7b74a80006de2689,SCR,2024-06-10_12h19.40.412,LearnStrategy,2023.2.3,Win32,60.0240096,9,2,14,,,,,,,,4,13,,,,,,,,,,,,,4,2.645,1,,,,,,0.381481481,-0.262962963,1,0,0,2.645,Gabbro_rect,13,0,13,0,1
575865ba7b74a80006de2689,SCR,2024-06-10_12h19.40.412,LearnStrategy,2023.2.3,Win32,60.0240096,9,2,15,,,,,,,,4,15,,,,,,,,,,,,,4,4.246,1,,,,,,0.355555556,-0.256481481,1,0,0,4.246,Gabbro_rect,14,0,14,0,1
575865ba7b74a80006de2689,SCR,2024-06-10_12h19.40.412,LearnStrategy,2023.2.3,Win32,60.0240096,9,2,16,,,,,,,,7,08,,,,,,,,,,,,,7,1.369,1,,,,,,0.10462963,-0.385185185,1,0,0,1.369,Peridotite_rect,15,0,15,0,1
575865ba7b74a80006de2689,SCR,2024-06-10_12h19.40.412,LearnStrategy,2023.2.3,Win32,60.0240096,,,,,,,,,,,,,,,,,,,,,,,,,,,,,,,,,,,,,,,,,,,,
575865ba7b74a80006de2689,SCR,2024-06-10_12h19.40.412,LearnStrategy,2023.2.3,Win32,60.0240096,,,,,,,,,,,,,,,,,,,,,,,,,,,,,,,,,,,,,,,,,,,,
575865ba7b74a80006de2689,SCR,2024-06-10_12h19.40.412,LearnStrategy,2023.2.3,Win32,60.0240096,,,,,,,,,,,7,07,1,1,,,,,,,,,,,,,,,,,,,,,,,,,,,,,,
575865ba7b74a80006de2689,SCR,2024-06-10_12h19.40.412,LearnStrategy,2023.2.3,Win32,60.0240096,,,,,,,,,,,7,15,1,2,,,,,,,,,,,,,,,,,,,,,,,,,,,,,,
575865ba7b74a80006de2689,SCR,2024-06-10_12h19.40.412,LearnStrategy,2023.2.3,Win32,60.0240096,,,,,,,,,,,3,15,1,3,,,,,,,,,,,,,,,,,,,,,,,,,,,,,,
575865ba7b74a80006de2689,SCR,2024-06-10_12h19.40.412,LearnStrategy,2023.2.3,Win32,60.0240096,,,,,,,,,,,4,14,1,4,,,,,,,,,,,,,,,,,,,,,,,,,,,,,,
575865ba7b74a80006de2689,SCR,2024-06-10_12h19.40.412,LearnStrategy,2023.2.3,Win32,60.0240096,,,,,,,,,,,2,12,1,5,,,,,,,,,,,,,,,,,,,,,,,,,,,,,,
575865ba7b74a80006de2689,SCR,2024-06-10_12h19.40.412,LearnStrategy,2023.2.3,Win32,60.0240096,,,,,,,,,,,3,08,1,6,,,,,,,,,,,,,,,,,,,,,,,,,,,,,,
575865ba7b74a80006de2689,SCR,2024-06-10_12h19.40.412,LearnStrategy,2023.2.3,Win32,60.0240096,,,,,,,,,,,6,16,1,7,,,,,,,,,,,,,,,,,,,,,,,,,,,,,,
575865ba7b74a80006de2689,SCR,2024-06-10_12h19.40.412,LearnStrategy,2023.2.3,Win32,60.0240096,,,,,,,,,,,5,08,1,8,,,,,,,,,,,,,,,,,,,,,,,,,,,,,,
575865ba7b74a80006de2689,SCR,2024-06-10_12h19.40.412,LearnStrategy,2023.2.3,Win32,60.0240096,,,,,,,,,,,3,13,2,1,,,,,,,,,,,,,,,,,,,,,,,,,,,,,,
575865ba7b74a80006de2689,SCR,2024-06-10_12h19.40.412,LearnStrategy,2023.2.3,Win32,60.0240096,,,,,,,,,,,4,16,2,2,,,,,,,,,,,,,,,,,,,,,,,,,,,,,,
575865ba7b74a80006de2689,SCR,2024-06-10_12h19.40.412,LearnStrategy,2023.2.3,Win32,60.0240096,,,,,,,,,,,8,10,2,3,,,,,,,,,,,,,,,,,,,,,,,,,,,,,,
575865ba7b74a80006de2689,SCR,2024-06-10_12h19.40.412,LearnStrategy,2023.2.3,Win32,60.0240096,,,,,,,,,,,8,03,2,4,,,,,,,,,,,,,,,,,,,,,,,,,,,,,,
575865ba7b74a80006de2689,SCR,2024-06-10_12h19.40.412,LearnStrategy,2023.2.3,Win32,60.0240096,,,,,,,,,,,6,08,2,5,,,,,,,,,,,,,,,,,,,,,,,,,,,,,,
575865ba7b74a80006de2689,SCR,2024-06-10_12h19.40.412,LearnStrategy,2023.2.3,Win32,60.0240096,,,,,,,,,,,4,10,2,6,,,,,,,,,,,,,,,,,,,,,,,,,,,,,,
575865ba7b74a80006de2689,SCR,2024-06-10_12h19.40.412,LearnStrategy,2023.2.3,Win32,60.0240096,,,,,,,,,,,1,01,2,7,,,,,,,,,,,,,,,,,,,,,,,,,,,,,,
575865ba7b74a80006de2689,SCR,2024-06-10_12h19.40.412,LearnStrategy,2023.2.3,Win32,60.0240096,,,,,,,,,,,4,03,2,8,,,,,,,,,,,,,,,,,,,,,,,,,,,,,,
575865ba7b74a80006de2689,SCR,2024-06-10_12h19.40.412,LearnStrategy,2023.2.3,Win32,60.0240096,,,,,,,,,,,8,05,3,1,,,,,,,,,,,,,,,,,,,,,,,,,,,,,,
575865ba7b74a80006de2689,SCR,2024-06-10_12h19.40.412,LearnStrategy,2023.2.3,Win32,60.0240096,,,,,,,,,,,5,16,3,2,,,,,,,,,,,,,,,,,,,,,,,,,,,,,,
575865ba7b74a80006de2689,SCR,2024-06-10_12h19.40.412,LearnStrategy,2023.2.3,Win32,60.0240096,,,,,,,,,,,2,08,3,3,,,,,,,,,,,,,,,,,,,,,,,,,,,,,,
575865ba7b74a80006de2689,SCR,2024-06-10_12h19.40.412,LearnStrategy,2023.2.3,Win32,60.0240096,,,,,,,,,,,4,11,3,4,,,,,,,,,,,,,,,,,,,,,,,,,,,,,,
575865ba7b74a80006de2689,SCR,2024-06-10_12h19.40.412,LearnStrategy,2023.2.3,Win32,60.0240096,,,,,,,,,,,1,07,3,5,,,,,,,,,,,,,,,,,,,,,,,,,,,,,,
575865ba7b74a80006de2689,SCR,2024-06-10_12h19.40.412,LearnStrategy,2023.2.3,Win32,60.0240096,,,,,,,,,,,8,02,3,6,,,,,,,,,,,,,,,,,,,,,,,,,,,,,,
575865ba7b74a80006de2689,SCR,2024-06-10_12h19.40.412,LearnStrategy,2023.2.3,Win32,60.0240096,,,,,,,,,,,2,05,3,7,,,,,,,,,,,,,,,,,,,,,,,,,,,,,,
575865ba7b74a80006de2689,SCR,2024-06-10_12h19.40.412,LearnStrategy,2023.2.3,Win32,60.0240096,,,,,,,,,,,2,02,3,8,,,,,,,,,,,,,,,,,,,,,,,,,,,,,,
575865ba7b74a80006de2689,SCR,2024-06-10_12h19.40.412,LearnStrategy,2023.2.3,Win32,60.0240096,,,,,,,,,,,1,10,4,1,,,,,,,,,,,,,,,,,,,,,,,,,,,,,,
575865ba7b74a80006de2689,SCR,2024-06-10_12h19.40.412,LearnStrategy,2023.2.3,Win32,60.0240096,,,,,,,,,,,1,03,4,2,,,,,,,,,,,,,,,,,,,,,,,,,,,,,,
575865ba7b74a80006de2689,SCR,2024-06-10_12h19.40.412,LearnStrategy,2023.2.3,Win32,60.0240096,,,,,,,,,,,7,12,4,3,,,,,,,,,,,,,,,,,,,,,,,,,,,,,,
575865ba7b74a80006de2689,SCR,2024-06-10_12h19.40.412,LearnStrategy,2023.2.3,Win32,60.0240096,,,,,,,,,,,3,10,4,4,,,,,,,,,,,,,,,,,,,,,,,,,,,,,,
575865ba7b74a80006de2689,SCR,2024-06-10_12h19.40.412,LearnStrategy,2023.2.3,Win32,60.0240096,,,,,,,,,,,8,08,4,5,,,,,,,,,,,,,,,,,,,,,,,,,,,,,,
575865ba7b74a80006de2689,SCR,2024-06-10_12h19.40.412,LearnStrategy,2023.2.3,Win32,60.0240096,,,,,,,,,,,6,09,4,6,,,,,,,,,,,,,,,,,,,,,,,,,,,,,,
575865ba7b74a80006de2689,SCR,2024-06-10_12h19.40.412,LearnStrategy,2023.2.3,Win32,60.0240096,,,,,,,,,,,2,09,4,7,,,,,,,,,,,,,,,,,,,,,,,,,,,,,,
575865ba7b74a80006de2689,SCR,2024-06-10_12h19.40.412,LearnStrategy,2023.2.3,Win32,60.0240096,,,,,,,,,,,6,11,4,8,,,,,,,,,,,,,,,,,,,,,,,,,,,,,,
575865ba7b74a80006de2689,SCR,2024-06-10_12h19.40.412,LearnStrategy,2023.2.3,Win32,60.0240096,,,,,,,,,,,3,02,5,1,,,,,,,,,,,,,,,,,,,,,,,,,,,,,,
575865ba7b74a80006de2689,SCR,2024-06-10_12h19.40.412,LearnStrategy,2023.2.3,Win32,60.0240096,,,,,,,,,,,7,14,5,2,,,,,,,,,,,,,,,,,,,,,,,,,,,,,,
575865ba7b74a80006de2689,SCR,2024-06-10_12h19.40.412,LearnStrategy,2023.2.3,Win32,60.0240096,,,,,,,,,,,5,04,5,3,,,,,,,,,,,,,,,,,,,,,,,,,,,,,,
575865ba7b74a80006de2689,SCR,2024-06-10_12h19.40.412,LearnStrategy,2023.2.3,Win32,60.0240096,,,,,,,,,,,6,13,5,4,,,,,,,,,,,,,,,,,,,,,,,,,,,,,,
575865ba7b74a80006de2689,SCR,2024-06-10_12h19.40.412,LearnStrategy,2023.2.3,Win32,60.0240096,,,,,,,,,,,7,04,5,5,,,,,,,,,,,,,,,,,,,,,,,,,,,,,,
575865ba7b74a80006de2689,SCR,2024-06-10_12h19.40.412,LearnStrategy,2023.2.3,Win32,60.0240096,,,,,,,,,,,4,08,5,6,,,,,,,,,,,,,,,,,,,,,,,,,,,,,,
575865ba7b74a80006de2689,SCR,2024-06-10_12h19.40.412,LearnStrategy,2023.2.3,Win32,60.0240096,,,,,,,,,,,5,10,5,7,,,,,,,,,,,,,,,,,,,,,,,,,,,,,,
575865ba7b74a80006de2689,SCR,2024-06-10_12h19.40.412,LearnStrategy,2023.2.3,Win32,60.0240096,,,,,,,,,,,3,12,5,8,,,,,,,,,,,,,,,,,,,,,,,,,,,,,,
575865ba7b74a80006de2689,SCR,2024-06-10_12h19.40.412,LearnStrategy,2023.2.3,Win32,60.0240096,,,,,,,,,,,8,04,6,1,,,,,,,,,,,,,,,,,,,,,,,,,,,,,,
575865ba7b74a80006de2689,SCR,2024-06-10_12h19.40.412,LearnStrategy,2023.2.3,Win32,60.0240096,,,,,,,,,,,2,16,6,2,,,,,,,,,,,,,,,,,,,,,,,,,,,,,,
575865ba7b74a80006de2689,SCR,2024-06-10_12h19.40.412,LearnStrategy,2023.2.3,Win32,60.0240096,,,,,,,,,,,7,13,6,3,,,,,,,,,,,,,,,,,,,,,,,,,,,,,,
575865ba7b74a80006de2689,SCR,2024-06-10_12h19.40.412,LearnStrategy,2023.2.3,Win32,60.0240096,,,,,,,,,,,5,14,6,4,,,,,,,,,,,,,,,,,,,,,,,,,,,,,,
575865ba7b74a80006de2689,SCR,2024-06-10_12h19.40.412,LearnStrategy,2023.2.3,Win32,60.0240096,,,,,,,,,,,1,16,6,5,,,,,,,,,,,,,,,,,,,,,,,,,,,,,,
575865ba7b74a80006de2689,SCR,2024-06-10_12h19.40.412,LearnStrategy,2023.2.3,Win32,60.0240096,,,,,,,,,,,6,03,6,6,,,,,,,,,,,,,,,,,,,,,,,,,,,,,,
575865ba7b74a80006de2689,SCR,2024-06-10_12h19.40.412,LearnStrategy,2023.2.3,Win32,60.0240096,,,,,,,,,,,5,05,6,7,,,,,,,,,,,,,,,,,,,,,,,,,,,,,,
575865ba7b74a80006de2689,SCR,2024-06-10_12h19.40.412,LearnStrategy,2023.2.3,Win32,60.0240096,,,,,,,,,,,1,09,6,8,,,,,,,,,,,,,,,,,,,,,,,,,,,,,,