participant,condition,date,expName,psychopyVersion,OS,frameRate,block,phase,trial,learn_mouse.x,learn_mouse.y,learn_mouse.leftButton,learn_mouse.midButton,learn_mouse.rightButton,learn_mouse.time,learn_mouse.clicked_name,cat,token,row,col,t_select,cat_rec,token_rec,cat_mouse_l.x,cat_mouse_l.y,cat_mouse_l.leftButton,cat_mouse_l.midButton,cat_mouse_l.rightButton,cat_mouse_l.time,cat_mouse_l.clicked_name,resp,t_resp,corr,train_trials.thisRepN,train_trials.thisTrialN,train_trials.thisN,train_trials.thisIndex,train_trials.ran,cat_mouse_t.x,cat_mouse_t.y,cat_mouse_t.leftButton,cat_mouse_t.midButton,cat_mouse_t.rightButton,cat_mouse_t.time,cat_mouse_t.clicked_name,test_trials.thisRepN,test_trials.thisTrialN,test_trials.thisN,test_trials.thisIndex,test_trials.ran
57b18b64f6b9390001af1e05,SCR,2024-06-10_13h53.37.122,LearnStrategy,2023.2.3,Win32,59.88023952,,,,,,,,,,,,,,,,,,,,,,,,,,,,,,,,,,,,,,,,,,,,
57b18b64f6b9390001af1e05,SCR,2024-06-10_13h53.37.122,LearnStrategy,2023.2.3,Win32,59.88023952,1,1,1,-0.563888889,-0.410185185,1,0,0,3.7274,Pumice_10,8,10,1,1,3.727,8,10,0.363888889,-0.403703704,1,0,0,5.7621,Pumice_rect,8,5.762,1,0,0,0,0,1,,,,,,,,,,,,
57b18b64f6b9390001af1e05,SCR,2024-06-10_13h53.37.122,LearnStrategy,2023.2.3,Win32,59.88023952,1,1,2,0.560185185,0.074074074,1,0,0,3.7664,Diorite_10,3,10,4,8,3.766,3,10,0.122222222,-0.413888889,1,0,0,10.3899,Peridotite_rect,7,10.39,0,1,0,1,0,1,,,,,,,,,,,,
57b18b64f6b9390001af1e05,SCR,2024-06-10_13h53.37.122,LearnStrategy,2023.2.3,Win32,59.88023952,1,1,3,0.275925926,0.076851852,1,0,0,6.8668,Andesite_02,1,02,4,6,6.867,1,02,0.191666667,-0.402777778,1,0,0,20.5992,Peridotite_rect,7,20.599,0,2,0,2,0,1,,,,,,,,,,,,
57b18b64f6b9390001af1e05,SCR,2024-06-10_13h53.37.122,LearnStrategy,2023.2.3,Win32,59.88023952,1,1,4,0.109259259,0.09537037,1,0,0,15.4608,Peridotite_13,7,13,4,5,15.461,7,13,0.166666667,-0.39537037,1,0,0,7.8462,Peridotite_rect,7,7.846,1,3,0,3,0,1,,,,,,,,,,,,
57b18b64f6b9390001af1e05,SCR,2024-06-10_13h53.37.122,LearnStrategy,2023.2.3,Win32,59.88023952,1,1,5,-0.04537037,0.419444444,1,0,0,10.9415,Pumice_16,8,16,6,4,10.941,8,16,-0.103703704,-0.257407407,1,0,0,6.8352,Basalt_rect,2,6.835,0,4,0,4,0,1,,,,,,,,,,,,
57b18b64f6b9390001af1e05,SCR,2024-06-10_13h53.37.122,LearnStrategy,2023.2.3,Win32,59.88023952,1,1,6,-0.211111111,-0.100925926,1,0,0,2.2663,Basalt_14,2,14,3,3,2.266,2,14,0.32037037,-0.4,1,0,0,10.3895,Pumice_rect,8,10.389,0,5,0,5,0,1,,,,,,,,,,,,
57b18b64f6b9390001af1e05,SCR,2024-06-10_13h53.37.122,LearnStrategy,2023.2.3,Win32,59.88023952,1,1,7,-0.066666667,0.272222222,1,0,0,2.2957,Gabbro_01,4,01,5,4,2.296,4,01,0.162962963,-0.236111111,1,0,0,7.6991,Diorite_rect,3,7.699,0,6,0,6,0,1,,,,,,,,,,,,
57b18b64f6b9390001af1e05,SCR,2024-06-10_13h53.37.122,LearnStrategy,2023.2.3,Win32,59.88023952,1,1,8,-0.548148148,0.390740741,1,0,0,2.0967,Basalt_02,2,02,6,1,2.097,2,02,-0.348148148,-0.25462963,1,0,0,10.5716,Andesite_rect,1,10.572,0,7,0,7,0,1,,,,,,,,,,,,
57b18b64f6b9390001af1e05,SCR,2024-06-10_13h53.37.122,LearnStrategy,2023.2.3,Win32,59.88023952,1,1,9,-0.040740741,0.05462963,1,0,0,1.8306,Gabbro_10,4,10,4,4,1.831,4,10,-0.078703704,-0.247222222,1,0,0,4.2469,Basalt_rect,2,4.247,0,8,0,8,0,1,,,,,,,,,,,,
57b18b64f6b9390001af1e05,SCR,2024-06-10_13h53.37.122,LearnStrategy,2023.2.3,Win32,59.88023952,1,1,10,-0.39537037,-0.276851852,1,0,0,6.669,Pegmatite_03,6,03,2,2,6.669,6,03,0.203703704,-0.396296296,1,0,0,3.2526,Peridotite_rect,7,3.253,0,9,0,9,0,1,,,,,,,,,,,,
57b18b64f6b9390001af1e05,SCR,2024-06-10_13h53.37.122,LearnStrategy,2023.2.3,Win32,59.88023952,1,1,11,0.571296296,0.272222222,1,0,0,8.7703,Andesite_07,1,07,5,8,8.77,1,07,0.189814815,-0.261111111,1,0,0,5.6647,Diorite_rect,3,5.665,0,10,0,10,0,1,,,,,,,,,,,,
57b18b64f6b9390001af1e05,SCR,2024-06-10_13h53.37.122,LearnStrategy,2023.2.3,Win32,59.88023952,1,1,12,-0.060185185,-0.276851852,1,0,0,10.1333,Diorite_14,3,14,2,4,10.133,3,14,-0.190740741,-0.417592593,1,0,0,12.2359,Pegmatite_rect,6,12.236,0,11,0,11,0,1,,,,,,,,,,,,
57b18b64f6b9390001af1e05,SCR,2024-06-10_13h53.37.122,LearnStrategy,2023.2.3,Win32,59.88023952,1,1,13,-0.201851852,0.201851852,1,0,0,2.3452,Obsidian_07,5,07,5,3,2.345,5,07,-0.377777778,-0.396296296,1,0,0,2.1572,Obsidian_rect,5,2.157,1,12,0,12,0,1,,,,,,,,,,,,
57b18b64f6b9390001af1e05,SCR,2024-06-10_13h53.37.122,LearnStrategy,2023.2.3,Win32,59.88023952,1,1,14,-0.569444444,-0.255555556,1,0,0,2.5476,Peridotite_12,7,12,2,1,2.548,7,12,0.197222222,-0.391666667,1,0,0,3.7809,Peridotite_rect,7,3.781,1,13,0,13,0,1,,,,,,,,,,,,
57b18b64f6b9390001af1e05,SCR,2024-06-10_13h53.37.122,LearnStrategy,2023.2.3,Win32,59.88023952,1,1,15,0.256481481,-0.438888889,1,0,0,1.3415,Pegmatite_07,6,07,1,6,1.341,6,07,-0.147222222,-0.394444444,1,0,0,4.853,Pegmatite_rect,6,4.853,1,14,0,14,0,1,,,,,,,,,,,,
57b18b64f6b9390001af1e05,SCR,2024-06-10_13h53.37.122,LearnStrategy,2023.2.3,Win32,59.88023952,1,1,16,0.37962963,0.075,1,0,0,1.9124,Obsidian_16,5,16,4,7,1.912,5,16,-0.35,-0.4,1,0,0,1.7237,Obsidian_rect,5,1.724,1,15,0,15,0,1,,,,,,,,,,,,
57b18b64f6b9390001af1e05,SCR,2024-06-10_13h53.37.122,LearnStrategy,2023.2.3,Win32,59.88023952,1,2,1,,,,,,,,4,13,,,,,,,,,,,,,1,19.286,0,,,,,,-0.356481481,-0.25462963,1,0,0,19.2857,Andesite_rect,0,0,0,0,1
57b18b64f6b9390001af1e05,SCR,2024-06-10_13h53.37.122,LearnStrategy,2023.2.3,Win32,59.88023952,1,2,2,,,,,,,,7,14,,,,,,,,,,,,,6,8.205,0,,,,,,-0.111111111,-0.399074074,1,0,0,8.2054,Pegmatite_rect,1,0,1,0,1
57b18b64f6b9390001af1e05,SCR,2024-06-10_13h53.37.122,LearnStrategy,2023.2.3,Win32,59.88023952,1,2,3,,,,,,,,5,05,,,,,,,,,,,,,5,2.849,1,,,,,,-0.425,-0.411111111,1,0,0,2.8494,Obsidian_rect,2,0,2,0,1
57b18b64f6b9390001af1e05,SCR,2024-06-10_13h53.37.122,LearnStrategy,2023.2.3,Win32,59.88023952,1,2,4,,,,,,,,1,05,,,,,,,,,,,,,1,16.867,1,,,,,,-0.382407407,-0.244444444,1,0,0,16.8669,Andesite_rect,3,0,3,0,1
57b18b64f6b9390001af1e05,SCR,2024-06-10_13h53.37.122,LearnStrategy,2023.2.3,Win32,59.88023952,1,2,5,,,,,,,,2,10,,,,,,,,,,,,,4,9.419,0,,,,,,0.457407407,-0.262037037,1,0,0,9.4186,Gabbro_rect,4,0,4,0,1
57b18b64f6b9390001af1e05,SCR,2024-06-10_13h53.37.122,LearnStrategy,2023.2.3,Win32,59.88023952,1,2,6,,,,,,,,8,04,,,,,,,,,,,,,8,2.505,1,,,,,,0.400925926,-0.401851852,1,0,0,2.5054,Pumice_rect,5,0,5,0,1
57b18b64f6b9390001af1e05,SCR,2024-06-10_13h53.37.122,LearnStrategy,2023.2.3,Win32,59.88023952,1,2,7,,,,,,,,7,07,,,,,,,,,,,,,7,2.792,1,,,,,,0.160185185,-0.415740741,1,0,0,2.7917,Peridotite_rect,6,0,6,0,1
57b18b64f6b9390001af1e05,SCR,2024-06-10_13h53.37.122,LearnStrategy,2023.2.3,Win32,59.88023952,1,2,8,,,,,,,,2,12,,,,,,,,,,,,,2,4.418,1,,,,,,-0.15462963,-0.256481481,1,0,0,4.4184,Basalt_rect,7,0,7,0,1
57b18b64f6b9390001af1e05,SCR,2024-06-10_13h53.37.122,LearnStrategy,2023.2.3,Win32,59.88023952,1,2,9,,,,,,,,4,08,,,,,,,,,,,,,4,14.233,1,,,,,,0.373148148,-0.267592593,1,0,0,14.2327,Gabbro_rect,8,0,8,0,1
57b18b64f6b9390001af1e05,SCR,2024-06-10_13h53.37.122,LearnStrategy,2023.2.3,Win32,59.88023952,1,2,10,,,,,,,,8,14,,,,,,,,,,,,,8,1.718,1,,,,,,0.381481481,-0.403703704,1,0,0,1.7184,Pumice_rect,9,0,9,0,1
57b18b64f6b9390001af1e05,SCR,2024-06-10_13h53.37.122,LearnStrategy,2023.2.3,Win32,59.88023952,1,2,11,,,,,,,,6,05,,,,,,,,,,,,,6,5.602,1,,,,,,-0.147222222,-0.408333333,1,0,0,5.6018,Pegmatite_rect,10,0,10,0,1
57b18b64f6b9390001af1e05,SCR,2024-06-10_13h53.37.122,LearnStrategy,2023.2.3,Win32,59.88023952,1,2,12,,,,,,,,5,10,,,,,,,,,,,,,5,2.087,1,,,,,,-0.361111111,-0.399074074,1,0,0,2.0872,Obsidian_rect,11,0,11,0,1
57b18b64f6b9390001af1e05,SCR,2024-06-10_13h53.37.122,LearnStrategy,2023.2.3,Win32,59.88023952,1,2,13,,,,,,,,6,11,,,,,,,,,,,,,5,6.761,0,,,,,,-0.361111111,-0.399074074,1,0,0,6.7611,Obsidian_rect,12,0,12,0,1
57b18b64f6b9390001af1e05,SCR,2024-06-10_13h53.37.122,LearnStrategy,2023.2.3,Win32,59.88023952,1,2,14,,,,,,,,3,07,,,,,,,,,,,,,3,9.672,1,,,,,,0.122222222,-0.259259259,1,0,0,9.6722,Diorite_rect,13,0,13,0,1
57b18b64f6b9390001af1e05,SCR,2024-06-10_13h53.37.122,LearnStrategy,2023.2.3,Win32,59.88023952,1,2,15,,,,,,,,1,11,,,,,,,,,,,,,2,3.435,0,,,,,,-0.146296296,-0.267592593,1,0,0,3.4352,Basalt_rect,14,0,14,0,1
57b18b64f6b9390001af1e05,SCR,2024-06-10_13h53.37.122,LearnStrategy,2023.2.3,Win32,59.88023952,1,2,16,,,,,,,,3,09,,,,,,,,,,,,,3,6.575,1,,,,,,0.116666667,-0.263888889,1,0,0,6.5751,Diorite_rect,15,0,15,0,1
57b18b64f6b9390001af1e05,SCR,2024-06-10_13h53.37.122,LearnStrategy,2023.2.3,Win32,59.88023952,2,1,1,-0.394444444,-0.09537037,1,0,0,8.8323,Basalt_05,2,05,3,2,8.832,2,05,-0.110185185,-0.271296296,1,0,0,2.0661,Basalt_rect,2,2.066,1,0,0,0,0,1,,,,,,,,,,,,
57b18b64f6b9390001af1e05,SCR,2024-06-10_13h53.37.122,LearnStrategy,2023.2.3,Win32,59.88023952,2,1,2,-0.537962963,0.25462963,1,0,0,9.5204,Diorite_08,3,08,5,1,9.52,4,01,0.148148148,-0.265740741,1,0,0,2.3381,Diorite_rect,3,2.338,1,1,0,1,0,1,,,,,,,,,,,,
57b18b64f6b9390001af1e05,SCR,2024-06-10_13h53.37.122,LearnStrategy,2023.2.3,Win32,59.88023952,2,1,3,0.567592593,0.392592593,1,0,0,15.5597,Pegmatite_09,6,09,6,8,15.56,2,02,-0.065740741,-0.405555556,1,0,0,4.4042,Pegmatite_rect,6,4.404,1,2,0,2,0,1,,,,,,,,,,,,
57b18b64f6b9390001af1e05,SCR,2024-06-10_13h53.37.122,LearnStrategy,2023.2.3,Win32,59.88023952,2,1,4,0.518518519,-0.277777778,1,0,0,2.3155,Peridotite_08,7,08,2,8,2.315,3,11,0.180555556,-0.416666667,1,0,0,2.0421,Peridotite_rect,7,2.042,1,3,0,3,0,1,,,,,,,,,,,,
57b18b64f6b9390001af1e05,SCR,2024-06-10_13h53.37.122,LearnStrategy,2023.2.3,Win32,59.88023952,2,1,5,-0.400925926,0.247222222,1,0,0,11.143,Pumice_15,8,15,5,2,11.143,4,10,0.394444444,-0.263888889,1,0,0,2.7491,Gabbro_rect,4,2.749,0,4,0,4,0,1,,,,,,,,,,,,
57b18b64f6b9390001af1e05,SCR,2024-06-10_13h53.37.122,LearnStrategy,2023.2.3,Win32,59.88023952,2,1,6,0.068518519,0.402777778,1,0,0,2.9936,Gabbro_14,4,14,6,5,2.994,7,16,0.45,-0.256481481,1,0,0,2.5981,Gabbro_rect,4,2.598,1,5,0,5,0,1,,,,,,,,,,,,
57b18b64f6b9390001af1e05,SCR,2024-06-10_13h53.37.122,LearnStrategy,2023.2.3,Win32,59.88023952,2,1,7,-0.248148148,0.381481481,1,0,0,6.3686,Andesite_14,1,14,6,3,6.369,8,10,-0.065740741,-0.396296296,1,0,0,8.2644,Pegmatite_rect,6,8.264,0,6,0,6,0,1,,,,,,,,,,,,
57b18b64f6b9390001af1e05,SCR,2024-06-10_13h53.37.122,LearnStrategy,2023.2.3,Win32,59.88023952,2,1,8,-0.225925926,0.075925926,1,0,0,4.1501,Pegmatite_15,6,15,4,3,4.15,7,12,-0.119444444,-0.393518519,1,0,0,3.489,Pegmatite_rect,6,3.489,1,7,0,7,0,1,,,,,,,,,,,,
57b18b64f6b9390001af1e05,SCR,2024-06-10_13h53.37.122,LearnStrategy,2023.2.3,Win32,59.88023952,2,1,9,0.22037037,-0.408333333,1,0,0,1.9091,Pegmatite_07,6,07,1,6,1.909,6,07,-0.144444444,-0.416666667,1,0,0,3.7846,Pegmatite_rect,6,3.785,1,8,0,8,0,1,,,,,,,,,,,,
57b18b64f6b9390001af1e05,SCR,2024-06-10_13h53.37.122,LearnStrategy,2023.2.3,Win32,59.88023952,2,1,10,0.07037037,-0.10462963,1,0,0,5.7301,Peridotite_05,7,05,3,5,5.73,5,14,0.136111111,-0.405555556,1,0,0,2.7444,Peridotite_rect,7,2.744,1,9,0,9,0,1,,,,,,,,,,,,
57b18b64f6b9390001af1e05,SCR,2024-06-10_13h53.37.122,LearnStrategy,2023.2.3,Win32,59.88023952,2,1,11,-0.065740741,0.108333333,1,0,0,2.2979,Gabbro_10,4,10,4,4,2.298,6,03,-0.109259259,-0.241666667,1,0,0,2.704,Basalt_rect,2,2.704,0,10,0,10,0,1,,,,,,,,,,,,
57b18b64f6b9390001af1e05,SCR,2024-06-10_13h53.37.122,LearnStrategy,2023.2.3,Win32,59.88023952,2,1,12,0.259259259,0.237962963,1,0,0,4.3644,Gabbro_03,4,03,5,6,4.364,1,16,0.130555556,-0.24537037,1,0,0,5.6166,Diorite_rect,3,5.617,0,11,0,11,0,1,,,,,,,,,,,,
57b18b64f6b9390001af1e05,SCR,2024-06-10_13h53.37.122,LearnStrategy,2023.2.3,Win32,59.88023952,2,1,13,0.276851852,0.386111111,1,0,0,2.3896,Gabbro_11,4,11,6,6,2.39,6,12,0.387962963,-0.253703704,1,0,0,2.219,Gabbro_rect,4,2.219,1,12,0,12,0,1,,,,,,,,,,,,
57b18b64f6b9390001af1e05,SCR,2024-06-10_13h53.37.122,LearnStrategy,2023.2.3,Win32,59.88023952,2,1,14,-0.407407407,0.40462963,1,0,0,17.9077,Andesite_04,1,04,6,2,17.908,7,05,0.452777778,-0.259259259,1,0,0,3.4336,Gabbro_rect,4,3.434,0,13,0,13,0,1,,,,,,,,,,,,
57b18b64f6b9390001af1e05,SCR,2024-06-10_13h53.37.122,LearnStrategy,2023.2.3,Win32,59.88023952,2,1,15,-0.525925926,0.230555556,1,0,0,7.4998,Diorite_08,3,08,5,1,7.5,1,07,0.203703704,-0.247222222,1,0,0,4.0462,Diorite_rect,3,4.046,1,14,0,14,0,1,,,,,,,,,,,,
57b18b64f6b9390001af1e05,SCR,2024-06-10_13h53.37.122,LearnStrategy,2023.2.3,Win32,59.88023952,2,1,16,-0.531481481,-0.267592593,1,0,0,4.433,Peridotite_12,7,12,2,1,4.433,4,10,0.061111111,-0.418518519,1,0,0,2.0185,Peridotite_rect,7,2.019,1,15,0,15,0,1,,,,,,,,,,,,
57b18b64f6b9390001af1e05,SCR,2024-06-10_13h53.37.122,LearnStrategy,2023.2.3,Win32,59.88023952,2,2,1,,,,,,,,4,16,,,,,,,,,,,,,4,4.922,1,,,,,,0.377777778,-0.235185185,1,0,0,4.922,Gabbro_rect,0,0,0,0,1
57b18b64f6b9390001af1e05,SCR,2024-06-10_13h53.37.122,LearnStrategy,2023.2.3,Win32,59.88023952,2,2,2,,,,,,,,6,10,,,,,,,,,,,,,6,20.064,1,,,,,,-0.103703704,-0.417592593,1,0,0,20.0645,Pegmatite_rect,1,0,1,0,1
57b18b64f6b9390001af1e05,SCR,2024-06-10_13h53.37.122,LearnStrategy,2023.2.3,Win32,59.88023952,2,2,3,,,,,,,,8,02,,,,,,,,,,,,,8,1.982,1,,,,,,0.444444444,-0.411111111,1,0,0,1.9823,Pumice_rect,2,0,2,0,1
57b18b64f6b9390001af1e05,SCR,2024-06-10_13h53.37.122,LearnStrategy,2023.2.3,Win32,59.88023952,2,2,4,,,,,,,,3,12,,,,,,,,,,,,,3,5.655,1,,,,,,0.210185185,-0.250925926,1,0,0,5.6554,Diorite_rect,3,0,3,0,1
57b18b64f6b9390001af1e05,SCR,2024-06-10_13h53.37.122,LearnStrategy,2023.2.3,Win32,59.88023952,2,2,5,,,,,,,,2,09,,,,,,,,,,,,,2,3.958,1,,,,,,-0.114814815,-0.25462963,1,0,0,3.958,Basalt_rect,4,0,4,0,1
57b18b64f6b9390001af1e05,SCR,2024-06-10_13h53.37.122,LearnStrategy,2023.2.3,Win32,59.88023952,2,2,6,,,,,,,,7,06,,,,,,,,,,,,,7,2.548,1,,,,,,0.110185185,-0.412037037,1,0,0,2.548,Peridotite_rect,5,0,5,0,1
57b18b64f6b9390001af1e05,SCR,2024-06-10_13h53.37.122,LearnStrategy,2023.2.3,Win32,59.88023952,2,2,7,,,,,,,,5,06,,,,,,,,,,,,,5,2.026,1,,,,,,-0.372222222,-0.387037037,1,0,0,2.0261,Obsidian_rect,6,0,6,0,1
57b18b64f6b9390001af1e05,SCR,2024-06-10_13h53.37.122,LearnStrategy,2023.2.3,Win32,59.88023952,2,2,8,,,,,,,,6,06,,,,,,,,,,,,,6,8.413,1,,,,,,-0.068518519,-0.39537037,1,0,0,8.4134,Pegmatite_rect,7,0,7,0,1
57b18b64f6b9390001af1e05,SCR,2024-06-10_13h53.37.122,LearnStrategy,2023.2.3,Win32,59.88023952,2,2,9,,,,,,,,3,06,,,,,,,,,,,,,3,8.35,1,,,,,,0.108333333,-0.258333333,1,0,0,8.3505,Diorite_rect,8,0,8,0,1
57b18b64f6b9390001af1e05,SCR,2024-06-10_13h53.37.122,LearnStrategy,2023.2.3,Win32,59.88023952,2,2,10,,,,,,,,4,05,,,,,,,,,,,,,2,6.002,0,,,,,,-0.146296296,-0.268518519,1,0,0,6.002,Basalt_rect,9,0,9,0,1
57b18b64f6b9390001af1e05,SCR,2024-06-10_13h53.37.122,LearnStrategy,2023.2.3,Win32,59.88023952,2,2,11,,,,,,,,7,15,,,,,,,,,,,,,7,1.725,1,,,,,,0.118518519,-0.415740741,1,0,0,1.725,Peridotite_rect,10,0,10,0,1
57b18b64f6b9390001af1e05,SCR,2024-06-10_13h53.37.122,LearnStrategy,2023.2.3,Win32,59.88023952,2,2,12,,,,,,,,2,16,,,,,,,,,,,,,4,3.863,0,,,,,,0.412037037,-0.239814815,1,0,0,3.8625,Gabbro_rect,11,0,11,0,1
57b18b64f6b9390001af1e05,SCR,2024-06-10_13h53.37.122,LearnStrategy,2023.2.3,Win32,59.88023952,2,2,13,,,,,,,,8,05,,,,,,,,,,,,,8,1.73,1,,,,,,0.385185185,-0.40462963,1,0,0,1.7302,Pumice_rect,12,0,12,0,1
57b18b64f6b9390001af1e05,SCR,2024-06-10_13h53.37.122,LearnStrategy,2023.2.3,Win32,59.88023952,2,2,14,,,,,,,,1,03,,,,,,,,,,,,,1,4.977,1,,,,,,-0.405555556,-0.24537037,1,0,0,4.977,Andesite_rect,13,0,13,0,1
57b18b64f6b9390001af1e05,SCR,2024-06-10_13h53.37.122,LearnStrategy,2023.2.3,Win32,59.88023952,2,2,15,,,,,,,,5,11,,,,,,,,,,,,,5,1.704,1,,,,,,-0.425,-0.398148148,1,0,0,1.7041,Obsidian_rect,14,0,14,0,1
57b18b64f6b9390001af1e05,SCR,2024-06-10_13h53.37.122,LearnStrategy,2023.2.3,Win32,59.88023952,2,2,16,,,,,,,,1,06,,,,,,,,,,,,,1,5.144,1,,,,,,-0.412962963,-0.261111111,1,0,0,5.1442,Andesite_rect,15,0,15,0,1
57b18b64f6b9390001af1e05,SCR,2024-06-10_13h53.37.122,LearnStrategy,2023.2.3,Win32,59.88023952,3,1,1,-0.043518519,0.225925926,1,0,0,2.6652,Gabbro_01,4,01,5,4,2.665,7,16,-0.336111111,-0.246296296,1,0,0,4.6844,Andesite_rect,1,4.684,0,0,0,0,0,1,,,,,,,,,,,,
57b18b64f6b9390001af1e05,SCR,2024-06-10_13h53.37.122,LearnStrategy,2023.2.3,Win32,59.88023952,3,1,2,0.101851852,0.217592593,1,0,0,1.6307,Peridotite_10,7,10,5,5,1.631,5,04,0.180555556,-0.387962963,1,0,0,1.6217,Peridotite_rect,7,1.622,1,1,0,1,0,1,,,,,,,,,,,,
57b18b64f6b9390001af1e05,SCR,2024-06-10_13h53.37.122,LearnStrategy,2023.2.3,Win32,59.88023952,3,1,3,0.581481481,0.064814815,1,0,0,1.2645,Diorite_10,3,10,4,8,1.264,3,10,0.134259259,-0.238888889,1,0,0,3.671,Diorite_rect,3,3.671,1,2,0,2,0,1,,,,,,,,,,,,
57b18b64f6b9390001af1e05,SCR,2024-06-10_13h53.37.122,LearnStrategy,2023.2.3,Win32,59.88023952,3,1,4,0.083333333,0.443518519,1,0,0,1.1453,Gabbro_14,4,14,6,5,1.145,4,14,0.403703704,-0.264814815,1,0,0,1.5046,Gabbro_rect,4,1.505,1,3,0,3,0,1,,,,,,,,,,,,
57b18b64f6b9390001af1e05,SCR,2024-06-10_13h53.37.122,LearnStrategy,2023.2.3,Win32,59.88023952,3,1,5,-0.062037037,0.225925926,1,0,0,2.1445,Gabbro_01,4,01,5,4,2.145,4,01,0.373148148,-0.250925926,1,0,0,2.9919,Gabbro_rect,4,2.992,1,4,0,4,0,1,,,,,,,,,,,,
57b18b64f6b9390001af1e05,SCR,2024-06-10_13h53.37.122,LearnStrategy,2023.2.3,Win32,59.88023952,3,1,6,0.247222222,-0.417592593,1,0,0,1.3267,Pegmatite_07,6,07,1,6,1.327,6,07,-0.123148148,-0.408333333,1,0,0,3.84,Pegmatite_rect,6,3.84,1,5,0,5,0,1,,,,,,,,,,,,
57b18b64f6b9390001af1e05,SCR,2024-06-10_13h53.37.122,LearnStrategy,2023.2.3,Win32,59.88023952,3,1,7,0.407407407,-0.423148148,1,0,0,1.4119,Gabbro_09,4,09,1,7,1.412,4,09,-0.090740741,-0.256481481,1,0,0,2.657,Basalt_rect,2,2.657,0,6,0,6,0,1,,,,,,,,,,,,
57b18b64f6b9390001af1e05,SCR,2024-06-10_13h53.37.122,LearnStrategy,2023.2.3,Win32,59.88023952,3,1,8,-0.05462963,0.088888889,1,0,0,1.0045,Gabbro_10,4,10,4,4,1.005,4,10,0.467592593,-0.242592593,1,0,0,2.0977,Gabbro_rect,4,2.098,1,7,0,7,0,1,,,,,,,,,,,,
57b18b64f6b9390001af1e05,SCR,2024-06-10_13h53.37.122,LearnStrategy,2023.2.3,Win32,59.88023952,3,1,9,-0.573148148,-0.435185185,1,0,0,1.5951,Pumice_10,8,10,1,1,1.595,8,10,0.357407407,-0.412962963,1,0,0,1.2816,Pumice_rect,8,1.282,1,8,0,8,0,1,,,,,,,,,,,,
57b18b64f6b9390001af1e05,SCR,2024-06-10_13h53.37.122,LearnStrategy,2023.2.3,Win32,59.88023952,3,1,10,-0.196296296,0.381481481,1,0,0,2.0755,Andesite_14,1,14,6,3,2.075,1,14,-0.363888889,-0.24537037,1,0,0,4.7551,Andesite_rect,1,4.755,1,9,0,9,0,1,,,,,,,,,,,,
57b18b64f6b9390001af1e05,SCR,2024-06-10_13h53.37.122,LearnStrategy,2023.2.3,Win32,59.88023952,3,1,11,0.558333333,-0.12962963,1,0,0,2.1618,Basalt_04,2,04,3,8,2.162,2,04,0.425,-0.257407407,1,0,0,1.8947,Gabbro_rect,4,1.895,0,10,0,10,0,1,,,,,,,,,,,,
57b18b64f6b9390001af1e05,SCR,2024-06-10_13h53.37.122,LearnStrategy,2023.2.3,Win32,59.88023952,3,1,12,0.572222222,-0.430555556,1,0,0,2.2137,Basalt_08,2,08,1,8,2.214,2,08,-0.101851852,-0.236111111,1,0,0,2.7177,Basalt_rect,2,2.718,1,11,0,11,0,1,,,,,,,,,,,,
57b18b64f6b9390001af1e05,SCR,2024-06-10_13h53.37.122,LearnStrategy,2023.2.3,Win32,59.88023952,3,1,13,0.581481481,-0.263888889,1,0,0,1.5471,Peridotite_08,7,08,2,8,1.547,7,08,0.134259259,-0.400925926,1,0,0,1.302,Peridotite_rect,7,1.302,1,12,0,12,0,1,,,,,,,,,,,,
57b18b64f6b9390001af1e05,SCR,2024-06-10_13h53.37.122,LearnStrategy,2023.2.3,Win32,59.88023952,3,1,14,-0.049074074,-0.402777778,1,0,0,1.4364,Basalt_06,2,06,1,4,1.436,2,06,-0.087962963,-0.22962963,1,0,0,1.7835,Basalt_rect,2,1.784,1,13,0,13,0,1,,,,,,,,,,,,
57b18b64f6b9390001af1e05,SCR,2024-06-10_13h53.37.122,LearnStrategy,2023.2.3,Win32,59.88023952,3,1,15,-0.353703704,-0.411111111,1,0,0,3.5161,Pumice_13,8,13,1,2,3.516,2,06,0.39537037,-0.412962963,1,0,0,4.7509,Pumice_rect,8,4.751,1,14,0,14,0,1,,,,,,,,,,,,
57b18b64f6b9390001af1e05,SCR,2024-06-10_13h53.37.122,LearnStrategy,2023.2.3,Win32,59.88023952,3,1,16,0.543518519,0.407407407,1,0,0,1.5138,Pegmatite_09,6,09,6,8,1.514,6,09,-0.094444444,-0.392592593,1,0,0,4.8957,Pegmatite_rect,6,4.896,1,15,0,15,0,1,,,,,,,,,,,,
57b18b64f6b9390001af1e05,SCR,2024-06-10_13h53.37.122,LearnStrategy,2023.2.3,Win32,59.88023952,3,2,1,,,,,,,,5,02,,,,,,,,,,,,,5,4.265,1,,,,,,-0.425925926,-0.406481481,1,0,0,4.2654,Obsidian_rect,0,0,0,0,1
57b18b64f6b9390001af1e05,SCR,2024-06-10_13h53.37.122,LearnStrategy,2023.2.3,Win32,59.88023952,3,2,2,,,,,,,,5,12,,,,,,,,,,,,,5,1.709,1,,,,,,-0.432407407,-0.40462963,1,0,0,1.7086,Obsidian_rect,1,0,1,0,1
57b18b64f6b9390001af1e05,SCR,2024-06-10_13h53.37.122,LearnStrategy,2023.2.3,Win32,59.88023952,3,2,3,,,,,,,,6,16,,,,,,,,,,,,,6,4.368,1,,,,,,-0.183333333,-0.406481481,1,0,0,4.3684,Pegmatite_rect,2,0,2,0,1
57b18b64f6b9390001af1e05,SCR,2024-06-10_13h53.37.122,LearnStrategy,2023.2.3,Win32,59.88023952,3,2,4,,,,,,,,6,13,,,,,,,,,,,,,5,17.348,0,,,,,,-0.324074074,-0.414814815,1,0,0,17.3477,Obsidian_rect,3,0,3,0,1
57b18b64f6b9390001af1e05,SCR,2024-06-10_13h53.37.122,LearnStrategy,2023.2.3,Win32,59.88023952,3,2,5,,,,,,,,4,15,,,,,,,,,,,,,1,10.956,0,,,,,,-0.380555556,-0.238888889,1,0,0,10.9564,Andesite_rect,4,0,4,0,1
57b18b64f6b9390001af1e05,SCR,2024-06-10_13h53.37.122,LearnStrategy,2023.2.3,Win32,59.88023952,3,2,6,,,,,,,,3,02,,,,,,,,,,,,,3,3.385,1,,,,,,0.10462963,-0.247222222,1,0,0,3.3852,Diorite_rect,5,0,5,0,1
57b18b64f6b9390001af1e05,SCR,2024-06-10_13h53.37.122,LearnStrategy,2023.2.3,Win32,59.88023952,3,2,7,,,,,,,,4,12,,,,,,,,,,,,,4,3.596,1,,,,,,0.432407407,-0.262037037,1,0,0,3.5962,Gabbro_rect,6,0,6,0,1
57b18b64f6b9390001af1e05,SCR,2024-06-10_13h53.37.122,LearnStrategy,2023.2.3,Win32,59.88023952,3,2,8,,,,,,,,2,01,,,,,,,,,,,,,2,2.585,1,,,,,,-0.105555556,-0.255555556,1,0,0,2.5847,Basalt_rect,7,0,7,0,1
57b18b64f6b9390001af1e05,SCR,2024-06-10_13h53.37.122,LearnStrategy,2023.2.3,Win32,59.88023952,3,2,9,,,,,,,,8,08,,,,,,,,,,,,,8,3.08,1,,,,,,0.398148148,-0.410185185,1,0,0,3.0798,Pumice_rect,8,0,8,0,1
57b18b64f6b9390001af1e05,SCR,2024-06-10_13h53.37.122,LearnStrategy,2023.2.3,Win32,59.88023952,3,2,10,,,,,,,,8,03,,,,,,,,,,,,,8,1.611,1,,,,,,0.398148148,-0.409259259,1,0,0,1.6114,Pumice_rect,9,0,9,0,1
57b18b64f6b9390001af1e05,SCR,2024-06-10_13h53.37.122,LearnStrategy,2023.2.3,Win32,59.88023952,3,2,11,,,,,,,,7,02,,,,,,,,,,,,,7,1.861,1,,,,,,0.087037037,-0.393518519,1,0,0,1.8609,Peridotite_rect,10,0,10,0,1
57b18b64f6b9390001af1e05,SCR,2024-06-10_13h53.37.122,LearnStrategy,2023.2.3,Win32,59.88023952,3,2,12,,,,,,,,1,09,,,,,,,,,,,,,1,7.774,1,,,,,,-0.393518519,-0.256481481,1,0,0,7.7736,Andesite_rect,11,0,11,0,1
57b18b64f6b9390001af1e05,SCR,2024-06-10_13h53.37.122,LearnStrategy,2023.2.3,Win32,59.88023952,3,2,13,,,,,,,,1,01,,,,,,,,,,,,,3,4.884,0,,,,,,0.089814815,-0.242592593,1,0,0,4.8844,Diorite_rect,12,0,12,0,1
57b18b64f6b9390001af1e05,SCR,2024-06-10_13h53.37.122,LearnStrategy,2023.2.3,Win32,59.88023952,3,2,14,,,,,,,,7,04,,,,,,,,,,,,,6,10.371,0,,,,,,-0.091666667,-0.412962963,1,0,0,10.3714,Pegmatite_rect,13,0,13,0,1
57b18b64f6b9390001af1e05,SCR,2024-06-10_13h53.37.122,LearnStrategy,2023.2.3,Win32,59.88023952,3,2,15,,,,,,,,3,13,,,,,,,,,,,,,3,2.821,1,,,,,,0.171296296,-0.258333333,1,0,0,2.8205,Diorite_rect,14,0,14,0,1
57b18b64f6b9390001af1e05,SCR,2024-06-10_13h53.37.122,LearnStrategy,2023.2.3,Win32,59.88023952,3,2,16,,,,,,,,2,11,,,,,,,,,,,,,2,4.016,1,,,,,,-0.100925926,-0.244444444,1,0,0,4.0159,Basalt_rect,15,0,15,0,1
57b18b64f6b9390001af1e05,SCR,2024-06-10_13h53.37.122,LearnStrategy,2023.2.3,Win32,59.88023952,4,1,1,-0.25,0.096296296,1,0,0,2.8638,Pegmatite_15,6,15,4,3,2.864,6,12,-0.090740741,-0.397222222,1,0,0,2.0117,Pegmatite_rect,6,2.012,1,0,0,0,0,1,,,,,,,,,,,,
57b18b64f6b9390001af1e05,SCR,2024-06-10_13h53.37.122,LearnStrategy,2023.2.3,Win32,59.88023952,4,1,2,0.24537037,0.377777778,1,0,0,2.7438,Gabbro_11,4,11,6,6,2.744,4,11,0.381481481,-0.247222222,1,0,0,3.0961,Gabbro_rect,4,3.096,1,1,0,1,0,1,,,,,,,,,,,,
57b18b64f6b9390001af1e05,SCR,2024-06-10_13h53.37.122,LearnStrategy,2023.2.3,Win32,59.88023952,4,1,3,-0.22037037,0.388888889,1,0,0,1.3811,Andesite_14,1,14,6,3,1.381,1,14,-0.35,-0.240740741,1,0,0,4.0449,Andesite_rect,1,4.045,1,2,0,2,0,1,,,,,,,,,,,,
57b18b64f6b9390001af1e05,SCR,2024-06-10_13h53.37.122,LearnStrategy,2023.2.3,Win32,59.88023952,4,1,4,0.050925926,0.062962963,1,0,0,1.8476,Peridotite_13,7,13,4,5,1.848,7,13,0.137962963,-0.386111111,1,0,0,1.5374,Peridotite_rect,7,1.537,1,3,0,3,0,1,,,,,,,,,,,,
57b18b64f6b9390001af1e05,SCR,2024-06-10_13h53.37.122,LearnStrategy,2023.2.3,Win32,59.88023952,4,1,5,-0.048148148,-0.112962963,1,0,0,0.9605,Pegmatite_12,6,12,3,4,0.96,6,12,-0.077777778,-0.403703704,1,0,0,3.1274,Pegmatite_rect,6,3.127,1,4,0,4,0,1,,,,,,,,,,,,
57b18b64f6b9390001af1e05,SCR,2024-06-10_13h53.37.122,LearnStrategy,2023.2.3,Win32,59.88023952,4,1,6,0.208333333,0.090740741,1,0,0,1.0956,Andesite_02,1,02,4,6,1.096,1,02,-0.411111111,-0.25462963,1,0,0,3.8384,Andesite_rect,1,3.838,1,5,0,5,0,1,,,,,,,,,,,,
57b18b64f6b9390001af1e05,SCR,2024-06-10_13h53.37.122,LearnStrategy,2023.2.3,Win32,59.88023952,4,1,7,-0.043518519,-0.437037037,1,0,0,1.3476,Basalt_06,2,06,1,4,1.348,2,06,-0.097222222,-0.247222222,1,0,0,1.7006,Basalt_rect,2,1.701,1,6,0,6,0,1,,,,,,,,,,,,
57b18b64f6b9390001af1e05,SCR,2024-06-10_13h53.37.122,LearnStrategy,2023.2.3,Win32,59.88023952,4,1,8,-0.432407407,0.080555556,1,0,0,1.391,Obsidian_14,5,14,4,2,1.391,5,14,-0.390740741,-0.393518519,1,0,0,1.5764,Obsidian_rect,5,1.576,1,7,0,7,0,1,,,,,,,,,,,,
57b18b64f6b9390001af1e05,SCR,2024-06-10_13h53.37.122,LearnStrategy,2023.2.3,Win32,59.88023952,4,1,9,-0.092592593,0.265740741,1,0,0,1.0498,Gabbro_01,4,01,5,4,1.05,4,01,0.433333333,-0.252777778,1,0,0,3.8998,Gabbro_rect,4,3.9,1,8,0,8,0,1,,,,,,,,,,,,
57b18b64f6b9390001af1e05,SCR,2024-06-10_13h53.37.122,LearnStrategy,2023.2.3,Win32,59.88023952,4,1,10,-0.413888889,-0.099074074,1,0,0,1.5463,Basalt_05,2,05,3,2,1.546,2,05,-0.082407407,-0.250925926,1,0,0,3.1329,Basalt_rect,2,3.133,1,9,0,9,0,1,,,,,,,,,,,,
57b18b64f6b9390001af1e05,SCR,2024-06-10_13h53.37.122,LearnStrategy,2023.2.3,Win32,59.88023952,4,1,11,-0.571296296,0.241666667,1,0,0,1.9794,Diorite_08,3,08,5,1,1.979,3,08,0.212962963,-0.251851852,1,0,0,2.3391,Diorite_rect,3,2.339,1,10,0,10,0,1,,,,,,,,,,,,
57b18b64f6b9390001af1e05,SCR,2024-06-10_13h53.37.122,LearnStrategy,2023.2.3,Win32,59.88023952,4,1,12,0.085185185,0.40462963,1,0,0,1.3945,Gabbro_14,4,14,6,5,1.395,4,14,0.463888889,-0.234259259,1,0,0,2.5301,Gabbro_rect,4,2.53,1,11,0,11,0,1,,,,,,,,,,,,
57b18b64f6b9390001af1e05,SCR,2024-06-10_13h53.37.122,LearnStrategy,2023.2.3,Win32,59.88023952,4,1,13,-0.077777778,0.388888889,1,0,0,1.9479,Pumice_16,8,16,6,4,1.948,8,16,0.435185185,-0.40462963,1,0,0,2.9287,Pumice_rect,8,2.929,1,12,0,12,0,1,,,,,,,,,,,,
57b18b64f6b9390001af1e05,SCR,2024-06-10_13h53.37.122,LearnStrategy,2023.2.3,Win32,59.88023952,4,1,14,0.575,0.248148148,1,0,0,1.8812,Andesite_07,1,07,5,8,1.881,1,07,-0.437037037,-0.269444444,1,0,0,7.6399,Andesite_rect,1,7.64,1,13,0,13,0,1,,,,,,,,,,,,
57b18b64f6b9390001af1e05,SCR,2024-06-10_13h53.37.122,LearnStrategy,2023.2.3,Win32,59.88023952,4,1,15,0.550925926,0.425925926,1,0,0,1.2055,Pegmatite_09,6,09,6,8,1.206,6,09,-0.121296296,-0.408333333,1,0,0,4.3075,Pegmatite_rect,6,4.308,1,14,0,14,0,1,,,,,,,,,,,,
57b18b64f6b9390001af1e05,SCR,2024-06-10_13h53.37.122,LearnStrategy,2023.2.3,Win32,59.88023952,4,1,16,0.288888889,-0.286111111,1,0,0,1.6929,Peridotite_16,7,16,2,6,1.693,7,16,-0.125925926,-0.400925926,1,0,0,5.1341,Pegmatite_rect,6,5.134,0,15,0,15,0,1,,,,,,,,,,,,
57b18b64f6b9390001af1e05,SCR,2024-06-10_13h53.37.122,LearnStrategy,2023.2.3,Win32,59.88023952,4,2,1,,,,,,,,2,09,,,,,,,,,,,,,2,3.177,1,,,,,,-0.124074074,-0.262037037,1,0,0,3.1771,Basalt_rect,0,0,0,0,1
57b18b64f6b9390001af1e05,SCR,2024-06-10_13h53.37.122,LearnStrategy,2023.2.3,Win32,59.88023952,4,2,2,,,,,,,,1,01,,,,,,,,,,,,,3,9.245,0,,,,,,0.162037037,-0.240740741,1,0,0,9.2452,Diorite_rect,1,0,1,0,1
57b18b64f6b9390001af1e05,SCR,2024-06-10_13h53.37.122,LearnStrategy,2023.2.3,Win32,59.88023952,4,2,3,,,,,,,,8,14,,,,,,,,,,,,,8,1.337,1,,,,,,0.47962963,-0.410185185,1,0,0,1.3372,Pumice_rect,2,0,2,0,1
57b18b64f6b9390001af1e05,SCR,2024-06-10_13h53.37.122,LearnStrategy,2023.2.3,Win32,59.88023952,4,2,4,,,,,,,,8,02,,,,,,,,,,,,,8,1.238,1,,,,,,0.474074074,-0.410185185,1,0,0,1.2379,Pumice_rect,3,0,3,0,1
57b18b64f6b9390001af1e05,SCR,2024-06-10_13h53.37.122,LearnStrategy,2023.2.3,Win32,59.88023952,4,2,5,,,,,,,,7,15,,,,,,,,,,,,,7,1.347,1,,,,,,0.192592593,-0.39537037,1,0,0,1.3468,Peridotite_rect,4,0,4,0,1
57b18b64f6b9390001af1e05,SCR,2024-06-10_13h53.37.122,LearnStrategy,2023.2.3,Win32,59.88023952,4,2,6,,,,,,,,2,12,,,,,,,,,,,,,2,5.508,1,,,,,,-0.133333333,-0.263888889,1,0,0,5.508,Basalt_rect,5,0,5,0,1
57b18b64f6b9390001af1e05,SCR,2024-06-10_13h53.37.122,LearnStrategy,2023.2.3,Win32,59.88023952,4,2,7,,,,,,,,3,02,,,,,,,,,,,,,3,3.481,1,,,,,,0.137037037,-0.247222222,1,0,0,3.4806,Diorite_rect,6,0,6,0,1
57b18b64f6b9390001af1e05,SCR,2024-06-10_13h53.37.122,LearnStrategy,2023.2.3,Win32,59.88023952,4,2,8,,,,,,,,5,12,,,,,,,,,,,,,5,1.316,1,,,,,,-0.359259259,-0.4,1,0,0,1.3161,Obsidian_rect,7,0,7,0,1
57b18b64f6b9390001af1e05,SCR,2024-06-10_13h53.37.122,LearnStrategy,2023.2.3,Win32,59.88023952,4,2,9,,,,,,,,1,05,,,,,,,,,,,,,1,4.167,1,,,,,,-0.388888889,-0.237037037,1,0,0,4.1673,Andesite_rect,8,0,8,0,1
57b18b64f6b9390001af1e05,SCR,2024-06-10_13h53.37.122,LearnStrategy,2023.2.3,Win32,59.88023952,4,2,10,,,,,,,,3,13,,,,,,,,,,,,,3,2.275,1,,,,,,0.168518519,-0.243518519,1,0,0,2.2747,Diorite_rect,9,0,9,0,1
57b18b64f6b9390001af1e05,SCR,2024-06-10_13h53.37.122,LearnStrategy,2023.2.3,Win32,59.88023952,4,2,11,,,,,,,,7,06,,,,,,,,,,,,,7,1.826,1,,,,,,0.12962963,-0.412037037,1,0,0,1.8263,Peridotite_rect,10,0,10,0,1
57b18b64f6b9390001af1e05,SCR,2024-06-10_13h53.37.122,LearnStrategy,2023.2.3,Win32,59.88023952,4,2,12,,,,,,,,6,11,,,,,,,,,,,,,5,2.938,0,,,,,,-0.377777778,-0.410185185,1,0,0,2.9384,Obsidian_rect,11,0,11,0,1
57b18b64f6b9390001af1e05,SCR,2024-06-10_13h53.37.122,LearnStrategy,2023.2.3,Win32,59.88023952,4,2,13,,,,,,,,6,10,,,,,,,,,,,,,6,2.641,1,,,,,,-0.140740741,-0.399074074,1,0,0,2.6405,Pegmatite_rect,12,0,12,0,1
57b18b64f6b9390001af1e05,SCR,2024-06-10_13h53.37.122,LearnStrategy,2023.2.3,Win32,59.88023952,4,2,14,,,,,,,,4,16,,,,,,,,,,,,,4,4.055,1,,,,,,0.413888889,-0.269444444,1,0,0,4.0553,Gabbro_rect,13,0,13,0,1
57b18b64f6b9390001af1e05,SCR,2024-06-10_13h53.37.122,LearnStrategy,2023.2.3,Win32,59.88023952,4,2,15,,,,,,,,4,05,,,,,,,,,,,,,4,3.636,1,,,,,,0.412037037,-0.269444444,1,0,0,3.6356,Gabbro_rect,14,0,14,0,1
57b18b64f6b9390001af1e05,SCR,2024-06-10_13h53.37.122,LearnStrategy,2023.2.3,Win32,59.88023952,4,2,16,,,,,,,,5,10,,,,,,,,,,,,,5,1.358,1,,,,,,-0.363888889,-0.385185185,1,0,0,1.358,Obsidian_rect,15,0,15,0,1
57b18b64f6b9390001af1e05,SCR,2024-06-10_13h53.37.122,LearnStrategy,2023.2.3,Win32,59.88023952,5,1,1,-0.236111111,-0.408333333,1,0,0,2.7583,Obsidian_04,5,04,1,3,2.758,5,04,-0.361111111,-0.39537037,1,0,0,1.0259,Obsidian_rect,5,1.026,1,0,0,0,0,1,,,,,,,,,,,,
57b18b64f6b9390001af1e05,SCR,2024-06-10_13h53.37.122,LearnStrategy,2023.2.3,Win32,59.88023952,5,1,2,-0.07037037,0.110185185,1,0,0,0.7457,Gabbro_10,4,10,4,4,0.746,4,10,0.368518519,-0.246296296,1,0,0,1.5676,Gabbro_rect,4,1.568,1,1,0,1,0,1,,,,,,,,,,,,
57b18b64f6b9390001af1e05,SCR,2024-06-10_13h53.37.122,LearnStrategy,2023.2.3,Win32,59.88023952,5,1,3,0.273148148,-0.272222222,1,0,0,1.4411,Peridotite_16,7,16,2,6,1.441,7,16,0.137962963,-0.413888889,1,0,0,2.2313,Peridotite_rect,7,2.231,1,2,0,2,0,1,,,,,,,,,,,,
57b18b64f6b9390001af1e05,SCR,2024-06-10_13h53.37.122,LearnStrategy,2023.2.3,Win32,59.88023952,5,1,4,0.281481481,0.275,1,0,0,1.2971,Gabbro_03,4,03,5,6,1.297,4,03,0.446296296,-0.247222222,1,0,0,2.6365,Gabbro_rect,4,2.637,1,3,0,3,0,1,,,,,,,,,,,,
57b18b64f6b9390001af1e05,SCR,2024-06-10_13h53.37.122,LearnStrategy,2023.2.3,Win32,59.88023952,5,1,5,-0.388888889,-0.125,1,0,0,1.1595,Basalt_05,2,05,3,2,1.16,2,05,-0.097222222,-0.25,1,0,0,2.0243,Basalt_rect,2,2.024,1,4,0,4,0,1,,,,,,,,,,,,
57b18b64f6b9390001af1e05,SCR,2024-06-10_13h53.37.122,LearnStrategy,2023.2.3,Win32,59.88023952,5,1,6,-0.073148148,-0.107407407,1,0,0,0.8927,Pegmatite_12,6,12,3,4,0.893,6,12,-0.118518519,-0.407407407,1,0,0,1.9445,Pegmatite_rect,6,1.945,1,5,0,5,0,1,,,,,,,,,,,,
57b18b64f6b9390001af1e05,SCR,2024-06-10_13h53.37.122,LearnStrategy,2023.2.3,Win32,59.88023952,5,1,7,0.209259259,0.389814815,1,0,0,0.9729,Gabbro_11,4,11,6,6,0.973,4,11,0.405555556,-0.247222222,1,0,0,2.4517,Gabbro_rect,4,2.452,1,6,0,6,0,1,,,,,,,,,,,,
57b18b64f6b9390001af1e05,SCR,2024-06-10_13h53.37.122,LearnStrategy,2023.2.3,Win32,59.88023952,5,1,8,-0.523148148,-0.398148148,1,0,0,1.3802,Pumice_10,8,10,1,1,1.38,8,10,0.389814815,-0.402777778,1,0,0,1.0256,Pumice_rect,8,1.026,1,7,0,7,0,1,,,,,,,,,,,,
57b18b64f6b9390001af1e05,SCR,2024-06-10_13h53.37.122,LearnStrategy,2023.2.3,Win32,59.88023952,5,1,9,0.391666667,0.384259259,1,0,0,0.947,Andesite_16,1,16,6,7,0.947,1,16,-0.419444444,-0.260185185,1,0,0,4.1841,Andesite_rect,1,4.184,1,8,0,8,0,1,,,,,,,,,,,,
57b18b64f6b9390001af1e05,SCR,2024-06-10_13h53.37.122,LearnStrategy,2023.2.3,Win32,59.88023952,5,1,10,0.07037037,-0.264814815,1,0,0,0.96,Diorite_11,3,11,2,5,0.96,3,11,0.07037037,-0.264814815,1,0,0,2.6241,Diorite_rect,3,2.624,1,9,0,9,0,1,,,,,,,,,,,,
57b18b64f6b9390001af1e05,SCR,2024-06-10_13h53.37.122,LearnStrategy,2023.2.3,Win32,59.88023952,5,1,11,0.583333333,-0.261111111,1,0,0,3.0315,Peridotite_08,7,08,2,8,3.032,7,08,0.099074074,-0.387037037,1,0,0,1.3451,Peridotite_rect,7,1.345,1,10,0,10,0,1,,,,,,,,,,,,
57b18b64f6b9390001af1e05,SCR,2024-06-10_13h53.37.122,LearnStrategy,2023.2.3,Win32,59.88023952,5,1,12,-0.22962963,0.418518519,1,0,0,1.0464,Andesite_14,1,14,6,3,1.046,1,14,-0.39537037,-0.250925926,1,0,0,2.6385,Andesite_rect,1,2.638,1,11,0,11,0,1,,,,,,,,,,,,
57b18b64f6b9390001af1e05,SCR,2024-06-10_13h53.37.122,LearnStrategy,2023.2.3,Win32,59.88023952,5,1,13,0.526851852,0.42037037,1,0,0,1.2793,Pegmatite_09,6,09,6,8,1.279,6,09,-0.1,-0.401851852,1,0,0,2.0384,Pegmatite_rect,6,2.038,1,12,0,12,0,1,,,,,,,,,,,,
57b18b64f6b9390001af1e05,SCR,2024-06-10_13h53.37.122,LearnStrategy,2023.2.3,Win32,59.88023952,5,1,14,-0.247222222,-0.109259259,1,0,0,0.8721,Basalt_14,2,14,3,3,0.872,2,14,-0.07962963,-0.25462963,1,0,0,4.0784,Basalt_rect,2,4.078,1,13,0,13,0,1,,,,,,,,,,,,
57b18b64f6b9390001af1e05,SCR,2024-06-10_13h53.37.122,LearnStrategy,2023.2.3,Win32,59.88023952,5,1,15,-0.266666667,0.086111111,1,0,0,1.2208,Pegmatite_15,6,15,4,3,1.221,6,15,-0.124074074,-0.390740741,1,0,0,1.7052,Pegmatite_rect,6,1.705,1,14,0,14,0,1,,,,,,,,,,,,
57b18b64f6b9390001af1e05,SCR,2024-06-10_13h53.37.122,LearnStrategy,2023.2.3,Win32,59.88023952,5,1,16,0.55462963,0.236111111,1,0,0,1.2073,Andesite_07,1,07,5,8,1.207,1,07,-0.446296296,-0.249074074,1,0,0,3.2339,Andesite_rect,1,3.234,1,15,0,15,0,1,,,,,,,,,,,,
57b18b64f6b9390001af1e05,SCR,2024-06-10_13h53.37.122,LearnStrategy,2023.2.3,Win32,59.88023952,5,2,1,,,,,,,,6,16,,,,,,,,,,,,,6,8.758,1,,,,,,-0.118518519,-0.416666667,1,0,0,8.758,Pegmatite_rect,0,0,0,0,1
57b18b64f6b9390001af1e05,SCR,2024-06-10_13h53.37.122,LearnStrategy,2023.2.3,Win32,59.88023952,5,2,2,,,,,,,,2,01,,,,,,,,,,,,,2,4.677,1,,,,,,-0.097222222,-0.239814815,1,0,0,4.6765,Basalt_rect,1,0,1,0,1
57b18b64f6b9390001af1e05,SCR,2024-06-10_13h53.37.122,LearnStrategy,2023.2.3,Win32,59.88023952,5,2,3,,,,,,,,1,03,,,,,,,,,,,,,1,3.07,1,,,,,,-0.360185185,-0.248148148,1,0,0,3.0698,Andesite_rect,2,0,2,0,1
57b18b64f6b9390001af1e05,SCR,2024-06-10_13h53.37.122,LearnStrategy,2023.2.3,Win32,59.88023952,5,2,4,,,,,,,,1,11,,,,,,,,,,,,,1,1.938,1,,,,,,-0.412037037,-0.269444444,1,0,0,1.9375,Andesite_rect,3,0,3,0,1
57b18b64f6b9390001af1e05,SCR,2024-06-10_13h53.37.122,LearnStrategy,2023.2.3,Win32,59.88023952,5,2,5,,,,,,,,8,08,,,,,,,,,,,,,8,1.681,1,,,,,,0.434259259,-0.410185185,1,0,0,1.6813,Pumice_rect,4,0,4,0,1
57b18b64f6b9390001af1e05,SCR,2024-06-10_13h53.37.122,LearnStrategy,2023.2.3,Win32,59.88023952,5,2,6,,,,,,,,5,11,,,,,,,,,,,,,5,1.949,1,,,,,,-0.433333333,-0.410185185,1,0,0,1.9492,Obsidian_rect,5,0,5,0,1
57b18b64f6b9390001af1e05,SCR,2024-06-10_13h53.37.122,LearnStrategy,2023.2.3,Win32,59.88023952,5,2,7,,,,,,,,5,05,,,,,,,,,,,,,5,1.379,1,,,,,,-0.433333333,-0.410185185,1,0,0,1.379,Obsidian_rect,6,0,6,0,1
57b18b64f6b9390001af1e05,SCR,2024-06-10_13h53.37.122,LearnStrategy,2023.2.3,Win32,59.88023952,5,2,8,,,,,,,,3,07,,,,,,,,,,,,,3,1.795,1,,,,,,0.125,-0.261111111,1,0,0,1.7954,Diorite_rect,7,0,7,0,1
57b18b64f6b9390001af1e05,SCR,2024-06-10_13h53.37.122,LearnStrategy,2023.2.3,Win32,59.88023952,5,2,9,,,,,,,,4,15,,,,,,,,,,,,,1,3.396,0,,,,,,-0.433333333,-0.255555556,1,0,0,3.3958,Andesite_rect,8,0,8,0,1
57b18b64f6b9390001af1e05,SCR,2024-06-10_13h53.37.122,LearnStrategy,2023.2.3,Win32,59.88023952,5,2,10,,,,,,,,8,05,,,,,,,,,,,,,8,1.668,1,,,,,,0.398148148,-0.414814815,1,0,0,1.6679,Pumice_rect,9,0,9,0,1
57b18b64f6b9390001af1e05,SCR,2024-06-10_13h53.37.122,LearnStrategy,2023.2.3,Win32,59.88023952,5,2,11,,,,,,,,6,06,,,,,,,,,,,,,6,2.635,1,,,,,,-0.165740741,-0.417592593,1,0,0,2.6354,Pegmatite_rect,10,0,10,0,1
57b18b64f6b9390001af1e05,SCR,2024-06-10_13h53.37.122,LearnStrategy,2023.2.3,Win32,59.88023952,5,2,12,,,,,,,,7,02,,,,,,,,,,,,,7,1.469,1,,,,,,0.117592593,-0.417592593,1,0,0,1.4685,Peridotite_rect,11,0,11,0,1
57b18b64f6b9390001af1e05,SCR,2024-06-10_13h53.37.122,LearnStrategy,2023.2.3,Win32,59.88023952,5,2,13,,,,,,,,3,12,,,,,,,,,,,,,3,2.988,1,,,,,,0.136111111,-0.257407407,1,0,0,2.9876,Diorite_rect,12,0,12,0,1
57b18b64f6b9390001af1e05,SCR,2024-06-10_13h53.37.122,LearnStrategy,2023.2.3,Win32,59.88023952,5,2,14,,,,,,,,2,16,,,,,,,,,,,,,4,2.565,0,,,,,,0.407407407,-0.250925926,1,0,0,2.5653,Gabbro_rect,13,0,13,0,1
57b18b64f6b9390001af1e05,SCR,2024-06-10_13h53.37.122,LearnStrategy,2023.2.3,Win32,59.88023952,5,2,15,,,,,,,,4,08,,,,,,,,,,,,,4,8.608,1,,,,,,0.361111111,-0.238888889,1,0,0,8.6084,Gabbro_rect,14,0,14,0,1
57b18b64f6b9390001af1e05,SCR,2024-06-10_13h53.37.122,LearnStrategy,2023.2.3,Win32,59.88023952,5,2,16,,,,,,,,7,04,,,,,,,,,,,,,6,8.624,0,,,,,,-0.125925926,-0.39537037,1,0,0,8.6242,Pegmatite_rect,15,0,15,0,1
57b18b64f6b9390001af1e05,SCR,2024-06-10_13h53.37.122,LearnStrategy,2023.2.3,Win32,59.88023952,6,1,1,-0.224074074,-0.418518519,1,0,0,2.2143,Obsidian_04,5,04,1,3,2.214,5,04,-0.442592593,-0.410185185,1,0,0,1.0371,Obsidian_rect,5,1.037,1,0,0,0,0,1,,,,,,,,,,,,
57b18b64f6b9390001af1e05,SCR,2024-06-10_13h53.37.122,LearnStrategy,2023.2.3,Win32,59.88023952,6,1,2,-0.243518519,0.389814815,1,0,0,0.9807,Andesite_14,1,14,6,3,0.981,1,14,-0.410185185,-0.259259259,1,0,0,2.0496,Andesite_rect,1,2.05,1,1,0,1,0,1,,,,,,,,,,,,
57b18b64f6b9390001af1e05,SCR,2024-06-10_13h53.37.122,LearnStrategy,2023.2.3,Win32,59.88023952,6,1,3,0.074074074,-0.105555556,1,0,0,1.4487,Peridotite_05,7,05,3,5,1.449,7,05,0.175,-0.402777778,1,0,0,1.3848,Peridotite_rect,7,1.385,1,2,0,2,0,1,,,,,,,,,,,,
57b18b64f6b9390001af1e05,SCR,2024-06-10_13h53.37.122,LearnStrategy,2023.2.3,Win32,59.88023952,6,1,4,0.062962963,0.413888889,1,0,0,1.0939,Gabbro_14,4,14,6,5,1.094,4,14,0.45,-0.249074074,1,0,0,1.6996,Gabbro_rect,4,1.7,1,3,0,3,0,1,,,,,,,,,,,,
57b18b64f6b9390001af1e05,SCR,2024-06-10_13h53.37.122,LearnStrategy,2023.2.3,Win32,59.88023952,6,1,5,-0.206481481,0.381481481,1,0,0,0.8726,Andesite_14,1,14,6,3,0.873,1,14,-0.383333333,-0.263888889,1,0,0,1.9773,Andesite_rect,1,1.977,1,4,0,4,0,1,,,,,,,,,,,,
57b18b64f6b9390001af1e05,SCR,2024-06-10_13h53.37.122,LearnStrategy,2023.2.3,Win32,59.88023952,6,1,6,0.063888889,0.073148148,1,0,0,0.9797,Peridotite_13,7,13,4,5,0.98,7,13,0.163888889,-0.416666667,1,0,0,0.9362,Peridotite_rect,7,0.936,1,5,0,5,0,1,,,,,,,,,,,,
57b18b64f6b9390001af1e05,SCR,2024-06-10_13h53.37.122,LearnStrategy,2023.2.3,Win32,59.88023952,6,1,7,0.4,-0.425925926,1,0,0,1.0991,Gabbro_09,4,09,1,7,1.099,4,09,-0.136111111,-0.242592593,1,0,0,3.1075,Basalt_rect,2,3.108,0,6,0,6,0,1,,,,,,,,,,,,
57b18b64f6b9390001af1e05,SCR,2024-06-10_13h53.37.122,LearnStrategy,2023.2.3,Win32,59.88023952,6,1,8,0.286111111,0.442592593,1,0,0,1.1421,Gabbro_11,4,11,6,6,1.142,4,11,0.462037037,-0.251851852,1,0,0,1.4532,Gabbro_rect,4,1.453,1,7,0,7,0,1,,,,,,,,,,,,
57b18b64f6b9390001af1e05,SCR,2024-06-10_13h53.37.122,LearnStrategy,2023.2.3,Win32,59.88023952,6,1,9,-0.538888889,-0.09537037,1,0,0,1.2417,Pumice_09,8,09,3,1,1.242,8,09,0.439814815,-0.406481481,1,0,0,0.8282,Pumice_rect,8,0.828,1,8,0,8,0,1,,,,,,,,,,,,
57b18b64f6b9390001af1e05,SCR,2024-06-10_13h53.37.122,LearnStrategy,2023.2.3,Win32,59.88023952,6,1,10,-0.412037037,-0.29537037,1,0,0,1.0082,Pegmatite_03,6,03,2,2,1.008,6,03,-0.116666667,-0.418518519,1,0,0,1.5889,Pegmatite_rect,6,1.589,1,9,0,9,0,1,,,,,,,,,,,,
57b18b64f6b9390001af1e05,SCR,2024-06-10_13h53.37.122,LearnStrategy,2023.2.3,Win32,59.88023952,6,1,11,-0.412962963,-0.119444444,1,0,0,0.8992,Basalt_05,2,05,3,2,0.899,2,05,-0.076851852,-0.255555556,1,0,0,1.2267,Basalt_rect,2,1.227,1,10,0,10,0,1,,,,,,,,,,,,
57b18b64f6b9390001af1e05,SCR,2024-06-10_13h53.37.122,LearnStrategy,2023.2.3,Win32,59.88023952,6,1,12,0.543518519,0.082407407,1,0,0,1.1978,Diorite_10,3,10,4,8,1.198,3,10,0.180555556,-0.256481481,1,0,0,2.9521,Diorite_rect,3,2.952,1,11,0,11,0,1,,,,,,,,,,,,
57b18b64f6b9390001af1e05,SCR,2024-06-10_13h53.37.122,LearnStrategy,2023.2.3,Win32,59.88023952,6,1,13,0.551851852,0.413888889,1,0,0,1.0054,Pegmatite_09,6,09,6,8,1.005,6,09,-0.139814815,-0.417592593,1,0,0,1.0603,Pegmatite_rect,6,1.06,1,12,0,12,0,1,,,,,,,,,,,,
57b18b64f6b9390001af1e05,SCR,2024-06-10_13h53.37.122,LearnStrategy,2023.2.3,Win32,59.88023952,6,1,14,-0.233333333,-0.119444444,1,0,0,0.8931,Basalt_14,2,14,3,3,0.893,2,14,-0.12037037,-0.262037037,1,0,0,1.0108,Basalt_rect,2,1.011,1,13,0,13,0,1,,,,,,,,,,,,
57b18b64f6b9390001af1e05,SCR,2024-06-10_13h53.37.122,LearnStrategy,2023.2.3,Win32,59.88023952,6,1,15,-0.555555556,0.405555556,1,0,0,0.9822,Basalt_02,2,02,6,1,0.982,2,02,-0.161111111,-0.259259259,1,0,0,4.4066,Basalt_rect,2,4.407,1,14,0,14,0,1,,,,,,,,,,,,
57b18b64f6b9390001af1e05,SCR,2024-06-10_13h53.37.122,LearnStrategy,2023.2.3,Win32,59.88023952,6,1,16,0.549074074,-0.267592593,1,0,0,1.4124,Peridotite_08,7,08,2,8,1.412,7,08,0.143518519,-0.386111111,1,0,0,1.8774,Peridotite_rect,7,1.877,1,15,0,15,0,1,,,,,,,,,,,,
57b18b64f6b9390001af1e05,SCR,2024-06-10_13h53.37.122,LearnStrategy,2023.2.3,Win32,59.88023952,6,2,1,,,,,,,,5,02,,,,,,,,,,,,,5,1.917,1,,,,,,-0.382407407,-0.394444444,1,0,0,1.9172,Obsidian_rect,0,0,0,0,1
57b18b64f6b9390001af1e05,SCR,2024-06-10_13h53.37.122,LearnStrategy,2023.2.3,Win32,59.88023952,6,2,2,,,,,,,,8,04,,,,,,,,,,,,,8,1.259,1,,,,,,0.400925926,-0.40462963,1,0,0,1.2588,Pumice_rect,1,0,1,0,1
57b18b64f6b9390001af1e05,SCR,2024-06-10_13h53.37.122,LearnStrategy,2023.2.3,Win32,59.88023952,6,2,3,,,,,,,,3,09,,,,,,,,,,,,,3,1.113,1,,,,,,0.125,-0.250925926,1,0,0,1.1131,Diorite_rect,2,0,2,0,1
57b18b64f6b9390001af1e05,SCR,2024-06-10_13h53.37.122,LearnStrategy,2023.2.3,Win32,59.88023952,6,2,4,,,,,,,,8,03,,,,,,,,,,,,,8,1.625,1,,,,,,0.373148148,-0.405555556,1,0,0,1.6253,Pumice_rect,3,0,3,0,1
57b18b64f6b9390001af1e05,SCR,2024-06-10_13h53.37.122,LearnStrategy,2023.2.3,Win32,59.88023952,6,2,5,,,,,,,,5,06,,,,,,,,,,,,,5,1.503,1,,,,,,-0.446296296,-0.412037037,1,0,0,1.5033,Obsidian_rect,4,0,4,0,1
57b18b64f6b9390001af1e05,SCR,2024-06-10_13h53.37.122,LearnStrategy,2023.2.3,Win32,59.88023952,6,2,6,,,,,,,,4,12,,,,,,,,,,,,,4,2.076,1,,,,,,0.373148148,-0.248148148,1,0,0,2.0764,Gabbro_rect,5,0,5,0,1
57b18b64f6b9390001af1e05,SCR,2024-06-10_13h53.37.122,LearnStrategy,2023.2.3,Win32,59.88023952,6,2,7,,,,,,,,1,06,,,,,,,,,,,,,1,1.688,1,,,,,,-0.372222222,-0.261111111,1,0,0,1.6882,Andesite_rect,6,0,6,0,1
57b18b64f6b9390001af1e05,SCR,2024-06-10_13h53.37.122,LearnStrategy,2023.2.3,Win32,59.88023952,6,2,8,,,,,,,,7,07,,,,,,,,,,,,,7,1.511,1,,,,,,0.118518519,-0.39537037,1,0,0,1.511,Peridotite_rect,7,0,7,0,1
57b18b64f6b9390001af1e05,SCR,2024-06-10_13h53.37.122,LearnStrategy,2023.2.3,Win32,59.88023952,6,2,9,,,,,,,,7,14,,,,,,,,,,,,,6,4.073,0,,,,,,-0.166666667,-0.400925926,1,0,0,4.0729,Pegmatite_rect,8,0,8,0,1
57b18b64f6b9390001af1e05,SCR,2024-06-10_13h53.37.122,LearnStrategy,2023.2.3,Win32,59.88023952,6,2,10,,,,,,,,2,11,,,,,,,,,,,,,2,2.552,1,,,,,,-0.102777778,-0.239814815,1,0,0,2.5519,Basalt_rect,9,0,9,0,1
57b18b64f6b9390001af1e05,SCR,2024-06-10_13h53.37.122,LearnStrategy,2023.2.3,Win32,59.88023952,6,2,11,,,,,,,,6,05,,,,,,,,,,,,,6,12.103,1,,,,,,-0.200925926,-0.394444444,1,0,0,12.1026,Pegmatite_rect,10,0,10,0,1
57b18b64f6b9390001af1e05,SCR,2024-06-10_13h53.37.122,LearnStrategy,2023.2.3,Win32,59.88023952,6,2,12,,,,,,,,6,13,,,,,,,,,,,,,5,2.137,0,,,,,,-0.383333333,-0.414814815,1,0,0,2.1374,Obsidian_rect,11,0,11,0,1
57b18b64f6b9390001af1e05,SCR,2024-06-10_13h53.37.122,LearnStrategy,2023.2.3,Win32,59.88023952,6,2,13,,,,,,,,2,10,,,,,,,,,,,,,4,1.763,0,,,,,,0.383333333,-0.238888889,1,0,0,1.7629,Gabbro_rect,12,0,12,0,1
57b18b64f6b9390001af1e05,SCR,2024-06-10_13h53.37.122,LearnStrategy,2023.2.3,Win32,59.88023952,6,2,14,,,,,,,,4,13,,,,,,,,,,,,,4,3.042,1,,,,,,0.386111111,-0.250925926,1,0,0,3.0419,Gabbro_rect,13,0,13,0,1
57b18b64f6b9390001af1e05,SCR,2024-06-10_13h53.37.122,LearnStrategy,2023.2.3,Win32,59.88023952,6,2,15,,,,,,,,1,09,,,,,,,,,,,,,1,5.043,1,,,,,,-0.463888889,-0.246296296,1,0,0,5.0428,Andesite_rect,14,0,14,0,1
57b18b64f6b9390001af1e05,SCR,2024-06-10_13h53.37.122,LearnStrategy,2023.2.3,Win32,59.88023952,6,2,16,,,,,,,,3,06,,,,,,,,,,,,,3,1.532,1,,,,,,0.198148148,-0.260185185,1,0,0,1.5322,Diorite_rect,15,0,15,0,1
57b18b64f6b9390001af1e05,SCR,2024-06-10_13h53.37.122,LearnStrategy,2023.2.3,Win32,59.88023952,7,1,1,0.262037037,0.099074074,1,0,0,1.5768,Andesite_02,1,02,4,6,1.577,1,02,-0.368518519,-0.247222222,1,0,0,1.3732,Andesite_rect,1,1.373,1,0,0,0,0,1,,,,,,,,,,,,
57b18b64f6b9390001af1e05,SCR,2024-06-10_13h53.37.122,LearnStrategy,2023.2.3,Win32,59.88023952,7,1,2,0.091666667,-0.091666667,1,0,0,0.8303,Peridotite_05,7,05,3,5,0.83,7,05,0.19537037,-0.400925926,1,0,0,1.2854,Peridotite_rect,7,1.285,1,1,0,1,0,1,,,,,,,,,,,,
57b18b64f6b9390001af1e05,SCR,2024-06-10_13h53.37.122,LearnStrategy,2023.2.3,Win32,59.88023952,7,1,3,0.190740741,0.076851852,1,0,0,0.76,Andesite_02,1,02,4,6,0.76,1,02,-0.396296296,-0.258333333,1,0,0,1.4305,Andesite_rect,1,1.43,1,2,0,2,0,1,,,,,,,,,,,,
57b18b64f6b9390001af1e05,SCR,2024-06-10_13h53.37.122,LearnStrategy,2023.2.3,Win32,59.88023952,7,1,4,-0.536111111,-0.244444444,1,0,0,1.1261,Peridotite_12,7,12,2,1,1.126,7,12,-0.181481481,-0.400925926,1,0,0,2.8388,Pegmatite_rect,6,2.839,0,3,0,3,0,1,,,,,,,,,,,,
57b18b64f6b9390001af1e05,SCR,2024-06-10_13h53.37.122,LearnStrategy,2023.2.3,Win32,59.88023952,7,1,5,0.410185185,0.137962963,1,0,0,0.8222,Obsidian_16,5,16,4,7,0.822,5,16,-0.333333333,-0.381481481,1,0,0,0.8653,Obsidian_rect,5,0.865,1,4,0,4,0,1,,,,,,,,,,,,
57b18b64f6b9390001af1e05,SCR,2024-06-10_13h53.37.122,LearnStrategy,2023.2.3,Win32,59.88023952,7,1,6,0.237962963,-0.400925926,1,0,0,1.0928,Pegmatite_07,6,07,1,6,1.093,6,07,-0.084259259,-0.408333333,1,0,0,2.2699,Pegmatite_rect,6,2.27,1,5,0,5,0,1,,,,,,,,,,,,
57b18b64f6b9390001af1e05,SCR,2024-06-10_13h53.37.122,LearnStrategy,2023.2.3,Win32,59.88023952,7,1,7,0.569444444,0.419444444,1,0,0,1.3607,Pegmatite_09,6,09,6,8,1.361,6,09,-0.102777778,-0.387037037,1,0,0,3.853,Pegmatite_rect,6,3.853,1,6,0,6,0,1,,,,,,,,,,,,
57b18b64f6b9390001af1e05,SCR,2024-06-10_13h53.37.122,LearnStrategy,2023.2.3,Win32,59.88023952,7,1,8,-0.069444444,-0.115740741,1,0,0,1.0462,Pegmatite_12,6,12,3,4,1.046,6,12,-0.12037037,-0.390740741,1,0,0,2.5178,Pegmatite_rect,6,2.518,1,7,0,7,0,1,,,,,,,,,,,,
57b18b64f6b9390001af1e05,SCR,2024-06-10_13h53.37.122,LearnStrategy,2023.2.3,Win32,59.88023952,7,1,9,0.232407407,0.374074074,1,0,0,0.7641,Gabbro_11,4,11,6,6,0.764,4,11,0.37962963,-0.250925926,1,0,0,1.5379,Gabbro_rect,4,1.538,1,8,0,8,0,1,,,,,,,,,,,,
57b18b64f6b9390001af1e05,SCR,2024-06-10_13h53.37.122,LearnStrategy,2023.2.3,Win32,59.88023952,7,1,10,0.550925926,-0.273148148,1,0,0,0.9976,Peridotite_08,7,08,2,8,0.998,7,08,0.15,-0.410185185,1,0,0,1.2191,Peridotite_rect,7,1.219,1,9,0,9,0,1,,,,,,,,,,,,
57b18b64f6b9390001af1e05,SCR,2024-06-10_13h53.37.122,LearnStrategy,2023.2.3,Win32,59.88023952,7,1,11,0.236111111,0.269444444,1,0,0,1.0134,Gabbro_03,4,03,5,6,1.013,4,03,0.396296296,-0.241666667,1,0,0,1.7199,Gabbro_rect,4,1.72,1,10,0,10,0,1,,,,,,,,,,,,
57b18b64f6b9390001af1e05,SCR,2024-06-10_13h53.37.122,LearnStrategy,2023.2.3,Win32,59.88023952,7,1,12,-0.366666667,-0.423148148,1,0,0,1.0736,Pumice_13,8,13,1,2,1.074,8,13,0.35462963,-0.403703704,1,0,0,2.9148,Pumice_rect,8,2.915,1,11,0,11,0,1,,,,,,,,,,,,
57b18b64f6b9390001af1e05,SCR,2024-06-10_13h53.37.122,LearnStrategy,2023.2.3,Win32,59.88023952,7,1,13,-0.062037037,-0.428703704,1,0,0,0.9917,Basalt_06,2,06,1,4,0.992,2,06,-0.060185185,-0.25,1,0,0,0.9799,Basalt_rect,2,0.98,1,12,0,12,0,1,,,,,,,,,,,,
57b18b64f6b9390001af1e05,SCR,2024-06-10_13h53.37.122,LearnStrategy,2023.2.3,Win32,59.88023952,7,1,14,0.538888889,0.098148148,1,0,0,1.1625,Diorite_10,3,10,4,8,1.163,3,10,0.149074074,-0.259259259,1,0,0,1.5977,Diorite_rect,3,1.598,1,13,0,13,0,1,,,,,,,,,,,,
57b18b64f6b9390001af1e05,SCR,2024-06-10_13h53.37.122,LearnStrategy,2023.2.3,Win32,59.88023952,7,1,15,-0.512962963,0.403703704,1,0,0,1.0465,Basalt_02,2,02,6,1,1.046,2,02,-0.087962963,-0.248148148,1,0,0,1.3459,Basalt_rect,2,1.346,1,14,0,14,0,1,,,,,,,,,,,,
57b18b64f6b9390001af1e05,SCR,2024-06-10_13h53.37.122,LearnStrategy,2023.2.3,Win32,59.88023952,7,1,16,0.575,-0.424074074,1,0,0,1.3622,Basalt_08,2,08,1,8,1.362,2,08,0.357407407,-0.268518519,1,0,0,4.8952,Gabbro_rect,4,4.895,0,15,0,15,0,1,,,,,,,,,,,,
57b18b64f6b9390001af1e05,SCR,2024-06-10_13h53.37.122,LearnStrategy,2023.2.3,Win32,59.88023952,7,2,1,,,,,,,,4,12,,,,,,,,,,,,,4,1.971,1,,,,,,0.352777778,-0.234259259,1,0,0,1.9713,Gabbro_rect,0,0,0,0,1
57b18b64f6b9390001af1e05,SCR,2024-06-10_13h53.37.122,LearnStrategy,2023.2.3,Win32,59.88023952,7,2,2,,,,,,,,5,02,,,,,,,,,,,,,5,1.247,1,,,,,,-0.393518519,-0.399074074,1,0,0,1.2472,Obsidian_rect,1,0,1,0,1
57b18b64f6b9390001af1e05,SCR,2024-06-10_13h53.37.122,LearnStrategy,2023.2.3,Win32,59.88023952,7,2,3,,,,,,,,2,11,,,,,,,,,,,,,2,1.747,1,,,,,,-0.188888889,-0.260185185,1,0,0,1.7466,Basalt_rect,2,0,2,0,1
57b18b64f6b9390001af1e05,SCR,2024-06-10_13h53.37.122,LearnStrategy,2023.2.3,Win32,59.88023952,7,2,4,,,,,,,,6,06,,,,,,,,,,,,,6,1.63,1,,,,,,-0.106481481,-0.405555556,1,0,0,1.6302,Pegmatite_rect,3,0,3,0,1
57b18b64f6b9390001af1e05,SCR,2024-06-10_13h53.37.122,LearnStrategy,2023.2.3,Win32,59.88023952,7,2,5,,,,,,,,3,12,,,,,,,,,,,,,3,1.434,1,,,,,,0.155555556,-0.259259259,1,0,0,1.434,Diorite_rect,4,0,4,0,1
57b18b64f6b9390001af1e05,SCR,2024-06-10_13h53.37.122,LearnStrategy,2023.2.3,Win32,59.88023952,7,2,6,,,,,,,,2,16,,,,,,,,,,,,,4,2.039,0,,,,,,0.437037037,-0.248148148,1,0,0,2.0388,Gabbro_rect,5,0,5,0,1
57b18b64f6b9390001af1e05,SCR,2024-06-10_13h53.37.122,LearnStrategy,2023.2.3,Win32,59.88023952,7,2,7,,,,,,,,4,16,,,,,,,,,,,,,4,1.673,1,,,,,,0.437037037,-0.248148148,1,0,0,1.6731,Gabbro_rect,6,0,6,0,1
57b18b64f6b9390001af1e05,SCR,2024-06-10_13h53.37.122,LearnStrategy,2023.2.3,Win32,59.88023952,7,2,8,,,,,,,,1,05,,,,,,,,,,,,,1,1.317,1,,,,,,-0.412037037,-0.231481481,1,0,0,1.3167,Andesite_rect,7,0,7,0,1
57b18b64f6b9390001af1e05,SCR,2024-06-10_13h53.37.122,LearnStrategy,2023.2.3,Win32,59.88023952,7,2,9,,,,,,,,6,05,,,,,,,,,,,,,6,2.003,1,,,,,,-0.117592593,-0.416666667,1,0,0,2.0029,Pegmatite_rect,8,0,8,0,1
57b18b64f6b9390001af1e05,SCR,2024-06-10_13h53.37.122,LearnStrategy,2023.2.3,Win32,59.88023952,7,2,10,,,,,,,,8,04,,,,,,,,,,,,,8,1.225,1,,,,,,0.376851852,-0.415740741,1,0,0,1.2254,Pumice_rect,9,0,9,0,1
57b18b64f6b9390001af1e05,SCR,2024-06-10_13h53.37.122,LearnStrategy,2023.2.3,Win32,59.88023952,7,2,11,,,,,,,,8,08,,,,,,,,,,,,,8,1.721,1,,,,,,0.376851852,-0.415740741,1,0,0,1.7206,Pumice_rect,10,0,10,0,1
57b18b64f6b9390001af1e05,SCR,2024-06-10_13h53.37.122,LearnStrategy,2023.2.3,Win32,59.88023952,7,2,12,,,,,,,,5,10,,,,,,,,,,,,,5,1.269,1,,,,,,-0.422222222,-0.39537037,1,0,0,1.2692,Obsidian_rect,11,0,11,0,1
57b18b64f6b9390001af1e05,SCR,2024-06-10_13h53.37.122,LearnStrategy,2023.2.3,Win32,59.88023952,7,2,13,,,,,,,,7,15,,,,,,,,,,,,,7,1.544,1,,,,,,0.137037037,-0.416666667,1,0,0,1.5443,Peridotite_rect,12,0,12,0,1
57b18b64f6b9390001af1e05,SCR,2024-06-10_13h53.37.122,LearnStrategy,2023.2.3,Win32,59.88023952,7,2,14,,,,,,,,7,02,,,,,,,,,,,,,7,1.148,1,,,,,,0.137037037,-0.416666667,1,0,0,1.1483,Peridotite_rect,13,0,13,0,1
57b18b64f6b9390001af1e05,SCR,2024-06-10_13h53.37.122,LearnStrategy,2023.2.3,Win32,59.88023952,7,2,15,,,,,,,,1,01,,,,,,,,,,,,,3,4.127,0,,,,,,0.113888889,-0.241666667,1,0,0,4.1267,Diorite_rect,14,0,14,0,1
57b18b64f6b9390001af1e05,SCR,2024-06-10_13h53.37.122,LearnStrategy,2023.2.3,Win32,59.88023952,7,2,16,,,,,,,,3,09,,,,,,,,,,,,,3,1.121,1,,,,,,0.113888889,-0.241666667,1,0,0,1.1213,Diorite_rect,15,0,15,0,1
57b18b64f6b9390001af1e05,SCR,2024-06-10_13h53.37.122,LearnStrategy,2023.2.3,Win32,59.88023952,8,1,1,0.37962963,-0.072222222,1,0,0,1.2561,Obsidian_08,5,08,3,7,1.256,5,08,-0.347222222,-0.401851852,1,0,0,0.9543,Obsidian_rect,5,0.954,1,0,0,0,0,1,,,,,,,,,,,,
57b18b64f6b9390001af1e05,SCR,2024-06-10_13h53.37.122,LearnStrategy,2023.2.3,Win32,59.88023952,8,1,2,0.118518519,-0.135185185,1,0,0,0.8481,Peridotite_05,7,05,3,5,0.848,7,05,0.158333333,-0.399074074,1,0,0,1.2483,Peridotite_rect,7,1.248,1,1,0,1,0,1,,,,,,,,,,,,
57b18b64f6b9390001af1e05,SCR,2024-06-10_13h53.37.122,LearnStrategy,2023.2.3,Win32,59.88023952,8,1,3,-0.553703704,0.436111111,1,0,0,1.012,Basalt_02,2,02,6,1,1.012,2,02,-0.094444444,-0.249074074,1,0,0,1.8195,Basalt_rect,2,1.82,1,2,0,2,0,1,,,,,,,,,,,,
57b18b64f6b9390001af1e05,SCR,2024-06-10_13h53.37.122,LearnStrategy,2023.2.3,Win32,59.88023952,8,1,4,-0.230555556,-0.113888889,1,0,0,1.0966,Basalt_14,2,14,3,3,1.097,2,14,-0.106481481,-0.262037037,1,0,0,0.9867,Basalt_rect,2,0.987,1,3,0,3,0,1,,,,,,,,,,,,
57b18b64f6b9390001af1e05,SCR,2024-06-10_13h53.37.122,LearnStrategy,2023.2.3,Win32,59.88023952,8,1,5,0.510185185,0.380555556,1,0,0,0.937,Pegmatite_09,6,09,6,8,0.937,6,09,-0.193518519,-0.400925926,1,0,0,4.8606,Pegmatite_rect,6,4.861,1,4,0,4,0,1,,,,,,,,,,,,
57b18b64f6b9390001af1e05,SCR,2024-06-10_13h53.37.122,LearnStrategy,2023.2.3,Win32,59.88023952,8,1,6,-0.42037037,-0.292592593,1,0,0,1.1543,Pegmatite_03,6,03,2,2,1.154,6,03,-0.09537037,-0.398148148,1,0,0,1.5559,Pegmatite_rect,6,1.556,1,5,0,5,0,1,,,,,,,,,,,,
57b18b64f6b9390001af1e05,SCR,2024-06-10_13h53.37.122,LearnStrategy,2023.2.3,Win32,59.88023952,8,1,7,0.115740741,-0.111111111,1,0,0,1.0591,Peridotite_05,7,05,3,5,1.059,7,05,0.186111111,-0.389814815,1,0,0,1.4258,Peridotite_rect,7,1.426,1,6,0,6,0,1,,,,,,,,,,,,
57b18b64f6b9390001af1e05,SCR,2024-06-10_13h53.37.122,LearnStrategy,2023.2.3,Win32,59.88023952,8,1,8,-0.265740741,-0.121296296,1,0,0,0.8973,Basalt_14,2,14,3,3,0.897,2,14,-0.085185185,-0.257407407,1,0,0,0.8775,Basalt_rect,2,0.878,1,7,0,7,0,1,,,,,,,,,,,,
57b18b64f6b9390001af1e05,SCR,2024-06-10_13h53.37.122,LearnStrategy,2023.2.3,Win32,59.88023952,8,1,9,0.246296296,0.089814815,1,0,0,0.9291,Andesite_02,1,02,4,6,0.929,1,02,-0.388888889,-0.25,1,0,0,1.106,Andesite_rect,1,1.106,1,8,0,8,0,1,,,,,,,,,,,,
57b18b64f6b9390001af1e05,SCR,2024-06-10_13h53.37.122,LearnStrategy,2023.2.3,Win32,59.88023952,8,1,10,0.07037037,-0.233333333,1,0,0,0.7751,Diorite_11,3,11,2,5,0.775,3,11,0.12037037,-0.248148148,1,0,0,0.7533,Diorite_rect,3,0.753,1,9,0,9,0,1,,,,,,,,,,,,
57b18b64f6b9390001af1e05,SCR,2024-06-10_13h53.37.122,LearnStrategy,2023.2.3,Win32,59.88023952,8,1,11,0.064814815,-0.437962963,1,0,0,2.1172,Pumice_06,8,06,1,5,2.117,8,06,0.387962963,-0.381481481,1,0,0,1.2079,Pumice_rect,8,1.208,1,10,0,10,0,1,,,,,,,,,,,,
57b18b64f6b9390001af1e05,SCR,2024-06-10_13h53.37.122,LearnStrategy,2023.2.3,Win32,59.88023952,8,1,12,0.403703704,0.413888889,1,0,0,1.4273,Andesite_16,1,16,6,7,1.427,1,16,-0.378703704,-0.235185185,1,0,0,5.2675,Andesite_rect,1,5.267,1,11,0,11,0,1,,,,,,,,,,,,
57b18b64f6b9390001af1e05,SCR,2024-06-10_13h53.37.122,LearnStrategy,2023.2.3,Win32,59.88023952,8,1,13,0.393518519,0.386111111,1,0,0,2.1112,Andesite_16,1,16,6,7,2.111,1,16,-0.459259259,-0.232407407,1,0,0,1.1334,Andesite_rect,1,1.133,1,12,0,12,0,1,,,,,,,,,,,,
57b18b64f6b9390001af1e05,SCR,2024-06-10_13h53.37.122,LearnStrategy,2023.2.3,Win32,59.88023952,8,1,14,0.394444444,-0.387962963,1,0,0,1.6471,Gabbro_09,4,09,1,7,1.647,4,09,-0.137037037,-0.42037037,1,0,0,3.2452,Pegmatite_rect,6,3.245,0,13,0,13,0,1,,,,,,,,,,,,
57b18b64f6b9390001af1e05,SCR,2024-06-10_13h53.37.122,LearnStrategy,2023.2.3,Win32,59.88023952,8,1,15,0.250925926,0.248148148,1,0,0,1.4476,Gabbro_03,4,03,5,6,1.448,4,03,0.44537037,-0.250925926,1,0,0,0.7278,Gabbro_rect,4,0.728,1,14,0,14,0,1,,,,,,,,,,,,
57b18b64f6b9390001af1e05,SCR,2024-06-10_13h53.37.122,LearnStrategy,2023.2.3,Win32,59.88023952,8,1,16,-0.394444444,-0.096296296,1,0,0,1.1633,Basalt_05,2,05,3,2,1.163,2,05,-0.100925926,-0.250925926,1,0,0,2.2556,Basalt_rect,2,2.256,1,15,0,15,0,1,,,,,,,,,,,,
57b18b64f6b9390001af1e05,SCR,2024-06-10_13h53.37.122,LearnStrategy,2023.2.3,Win32,59.88023952,8,2,1,,,,,,,,4,05,,,,,,,,,,,,,4,4.899,1,,,,,,0.408333333,-0.252777778,1,0,0,4.8991,Gabbro_rect,0,0,0,0,1
57b18b64f6b9390001af1e05,SCR,2024-06-10_13h53.37.122,LearnStrategy,2023.2.3,Win32,59.88023952,8,2,2,,,,,,,,3,06,,,,,,,,,,,,,3,1.261,1,,,,,,0.187962963,-0.261111111,1,0,0,1.261,Diorite_rect,1,0,1,0,1
57b18b64f6b9390001af1e05,SCR,2024-06-10_13h53.37.122,LearnStrategy,2023.2.3,Win32,59.88023952,8,2,3,,,,,,,,7,06,,,,,,,,,,,,,7,1.434,1,,,,,,0.166666667,-0.409259259,1,0,0,1.4337,Peridotite_rect,2,0,2,0,1
57b18b64f6b9390001af1e05,SCR,2024-06-10_13h53.37.122,LearnStrategy,2023.2.3,Win32,59.88023952,8,2,4,,,,,,,,1,06,,,,,,,,,,,,,1,1.928,1,,,,,,-0.381481481,-0.251851852,1,0,0,1.9275,Andesite_rect,3,0,3,0,1
57b18b64f6b9390001af1e05,SCR,2024-06-10_13h53.37.122,LearnStrategy,2023.2.3,Win32,59.88023952,8,2,5,,,,,,,,2,12,,,,,,,,,,,,,2,4.311,1,,,,,,-0.112037037,-0.268518519,1,0,0,4.3111,Basalt_rect,4,0,4,0,1
57b18b64f6b9390001af1e05,SCR,2024-06-10_13h53.37.122,LearnStrategy,2023.2.3,Win32,59.88023952,8,2,6,,,,,,,,3,07,,,,,,,,,,,,,3,3.053,1,,,,,,0.132407407,-0.251851852,1,0,0,3.0529,Diorite_rect,5,0,5,0,1
57b18b64f6b9390001af1e05,SCR,2024-06-10_13h53.37.122,LearnStrategy,2023.2.3,Win32,59.88023952,8,2,7,,,,,,,,6,16,,,,,,,,,,,,,6,2.046,1,,,,,,-0.137962963,-0.412037037,1,0,0,2.0457,Pegmatite_rect,6,0,6,0,1
57b18b64f6b9390001af1e05,SCR,2024-06-10_13h53.37.122,LearnStrategy,2023.2.3,Win32,59.88023952,8,2,8,,,,,,,,1,11,,,,,,,,,,,,,1,1.529,1,,,,,,-0.453703704,-0.25462963,1,0,0,1.5294,Andesite_rect,7,0,7,0,1
57b18b64f6b9390001af1e05,SCR,2024-06-10_13h53.37.122,LearnStrategy,2023.2.3,Win32,59.88023952,8,2,9,,,,,,,,2,09,,,,,,,,,,,,,2,3.368,1,,,,,,-0.102777778,-0.25462963,1,0,0,3.3675,Basalt_rect,8,0,8,0,1
57b18b64f6b9390001af1e05,SCR,2024-06-10_13h53.37.122,LearnStrategy,2023.2.3,Win32,59.88023952,8,2,10,,,,,,,,7,14,,,,,,,,,,,,,6,1.322,0,,,,,,-0.130555556,-0.402777778,1,0,0,1.3222,Pegmatite_rect,9,0,9,0,1
57b18b64f6b9390001af1e05,SCR,2024-06-10_13h53.37.122,LearnStrategy,2023.2.3,Win32,59.88023952,8,2,11,,,,,,,,6,11,,,,,,,,,,,,,5,1.561,0,,,,,,-0.380555556,-0.403703704,1,0,0,1.5605,Obsidian_rect,10,0,10,0,1
57b18b64f6b9390001af1e05,SCR,2024-06-10_13h53.37.122,LearnStrategy,2023.2.3,Win32,59.88023952,8,2,12,,,,,,,,5,12,,,,,,,,,,,,,5,1.169,1,,,,,,-0.380555556,-0.403703704,1,0,0,1.1685,Obsidian_rect,11,0,11,0,1
57b18b64f6b9390001af1e05,SCR,2024-06-10_13h53.37.122,LearnStrategy,2023.2.3,Win32,59.88023952,8,2,13,,,,,,,,5,06,,,,,,,,,,,,,5,1.123,1,,,,,,-0.380555556,-0.403703704,1,0,0,1.1227,Obsidian_rect,12,0,12,0,1
57b18b64f6b9390001af1e05,SCR,2024-06-10_13h53.37.122,LearnStrategy,2023.2.3,Win32,59.88023952,8,2,14,,,,,,,,8,02,,,,,,,,,,,,,8,1.359,1,,,,,,0.431481481,-0.394444444,1,0,0,1.3586,Pumice_rect,13,0,13,0,1
57b18b64f6b9390001af1e05,SCR,2024-06-10_13h53.37.122,LearnStrategy,2023.2.3,Win32,59.88023952,8,2,15,,,,,,,,4,08,,,,,,,,,,,,,4,1.637,1,,,,,,0.42962963,-0.259259259,1,0,0,1.6371,Gabbro_rect,14,0,14,0,1
57b18b64f6b9390001af1e05,SCR,2024-06-10_13h53.37.122,LearnStrategy,2023.2.3,Win32,59.88023952,8,2,16,,,,,,,,8,03,,,,,,,,,,,,,8,1.385,1,,,,,,0.419444444,-0.396296296,1,0,0,1.385,Pumice_rect,15,0,15,0,1
57b18b64f6b9390001af1e05,SCR,2024-06-10_13h53.37.122,LearnStrategy,2023.2.3,Win32,59.88023952,9,1,1,0.541666667,-0.084259259,1,0,0,1.447,Basalt_04,2,04,3,8,1.447,2,04,0.436111111,-0.248148148,1,0,0,3.5237,Gabbro_rect,4,3.524,0,0,0,0,0,1,,,,,,,,,,,,
57b18b64f6b9390001af1e05,SCR,2024-06-10_13h53.37.122,LearnStrategy,2023.2.3,Win32,59.88023952,9,1,2,0.237962963,0.102777778,1,0,0,1.01,Andesite_02,1,02,4,6,1.01,1,02,-0.423148148,-0.239814815,1,0,0,1.0369,Andesite_rect,1,1.037,1,1,0,1,0,1,,,,,,,,,,,,
57b18b64f6b9390001af1e05,SCR,2024-06-10_13h53.37.122,LearnStrategy,2023.2.3,Win32,59.88023952,9,1,3,0.065740741,-0.419444444,1,0,0,0.9206,Pumice_06,8,06,1,5,0.921,8,06,0.456481481,-0.40462963,1,0,0,0.5976,Pumice_rect,8,0.598,1,2,0,2,0,1,,,,,,,,,,,,
57b18b64f6b9390001af1e05,SCR,2024-06-10_13h53.37.122,LearnStrategy,2023.2.3,Win32,59.88023952,9,1,4,0.212962963,0.097222222,1,0,0,0.694,Andesite_02,1,02,4,6,0.694,1,02,-0.40462963,-0.243518519,1,0,0,1.4872,Andesite_rect,1,1.487,1,3,0,3,0,1,,,,,,,,,,,,
57b18b64f6b9390001af1e05,SCR,2024-06-10_13h53.37.122,LearnStrategy,2023.2.3,Win32,59.88023952,9,1,5,-0.546296296,-0.256481481,1,0,0,0.9265,Peridotite_12,7,12,2,1,0.927,7,12,0.097222222,-0.412037037,1,0,0,1.199,Peridotite_rect,7,1.199,1,4,0,4,0,1,,,,,,,,,,,,
57b18b64f6b9390001af1e05,SCR,2024-06-10_13h53.37.122,LearnStrategy,2023.2.3,Win32,59.88023952,9,1,6,0.267592593,-0.275925926,1,0,0,1.547,Peridotite_16,7,16,2,6,1.547,7,16,0.128703704,-0.405555556,1,0,0,1.7339,Peridotite_rect,7,1.734,1,5,0,5,0,1,,,,,,,,,,,,
57b18b64f6b9390001af1e05,SCR,2024-06-10_13h53.37.122,LearnStrategy,2023.2.3,Win32,59.88023952,9,1,7,0.239814815,0.426851852,1,0,0,1.2141,Gabbro_11,4,11,6,6,1.214,4,11,0.409259259,-0.257407407,1,0,0,1.1017,Gabbro_rect,4,1.102,1,6,0,6,0,1,,,,,,,,,,,,
57b18b64f6b9390001af1e05,SCR,2024-06-10_13h53.37.122,LearnStrategy,2023.2.3,Win32,59.88023952,9,1,8,-0.402777778,-0.264814815,1,0,0,0.8962,Pegmatite_03,6,03,2,2,0.896,6,03,-0.144444444,-0.399074074,1,0,0,1.2275,Pegmatite_rect,6,1.227,1,7,0,7,0,1,,,,,,,,,,,,
57b18b64f6b9390001af1e05,SCR,2024-06-10_13h53.37.122,LearnStrategy,2023.2.3,Win32,59.88023952,9,1,9,-0.24537037,0.050925926,1,0,0,0.9647,Pegmatite_15,6,15,4,3,0.965,6,15,-0.072222222,-0.400925926,1,0,0,1.2251,Pegmatite_rect,6,1.225,1,8,0,8,0,1,,,,,,,,,,,,
57b18b64f6b9390001af1e05,SCR,2024-06-10_13h53.37.122,LearnStrategy,2023.2.3,Win32,59.88023952,9,1,10,-0.230555556,-0.267592593,1,0,0,1.0296,Diorite_16,3,16,2,3,1.03,3,16,0.17037037,-0.267592593,1,0,0,0.7859,Diorite_rect,3,0.786,1,9,0,9,0,1,,,,,,,,,,,,
57b18b64f6b9390001af1e05,SCR,2024-06-10_13h53.37.122,LearnStrategy,2023.2.3,Win32,59.88023952,9,1,11,-0.075,-0.39537037,1,0,0,0.897,Basalt_06,2,06,1,4,0.897,2,06,-0.087962963,-0.251851852,1,0,0,1.8943,Basalt_rect,2,1.894,1,10,0,10,0,1,,,,,,,,,,,,
57b18b64f6b9390001af1e05,SCR,2024-06-10_13h53.37.122,LearnStrategy,2023.2.3,Win32,59.88023952,9,1,12,0.253703704,0.22037037,1,0,0,0.9462,Gabbro_03,4,03,5,6,0.946,4,03,0.397222222,-0.255555556,1,0,0,0.8707,Gabbro_rect,4,0.871,1,11,0,11,0,1,,,,,,,,,,,,
57b18b64f6b9390001af1e05,SCR,2024-06-10_13h53.37.122,LearnStrategy,2023.2.3,Win32,59.88023952,9,1,13,-0.200925926,0.232407407,1,0,0,0.9949,Obsidian_07,5,07,5,3,0.995,5,07,-0.343518519,-0.401851852,1,0,0,0.8293,Obsidian_rect,5,0.829,1,12,0,12,0,1,,,,,,,,,,,,
57b18b64f6b9390001af1e05,SCR,2024-06-10_13h53.37.122,LearnStrategy,2023.2.3,Win32,59.88023952,9,1,14,0.062962963,0.109259259,1,0,0,0.8157,Peridotite_13,7,13,4,5,0.816,7,13,0.140740741,-0.401851852,1,0,0,1.0065,Peridotite_rect,7,1.006,1,13,0,13,0,1,,,,,,,,,,,,
57b18b64f6b9390001af1e05,SCR,2024-06-10_13h53.37.122,LearnStrategy,2023.2.3,Win32,59.88023952,9,1,15,-0.07962963,-0.109259259,1,0,0,0.6787,Pegmatite_12,6,12,3,4,0.679,6,12,-0.094444444,-0.405555556,1,0,0,4.5574,Pegmatite_rect,6,4.557,1,14,0,14,0,1,,,,,,,,,,,,
57b18b64f6b9390001af1e05,SCR,2024-06-10_13h53.37.122,LearnStrategy,2023.2.3,Win32,59.88023952,9,1,16,-0.083333333,-0.451851852,1,0,0,1.025,Basalt_06,2,06,1,4,1.025,2,06,-0.102777778,-0.248148148,1,0,0,0.8235,Basalt_rect,2,0.823,1,15,0,15,0,1,,,,,,,,,,,,
57b18b64f6b9390001af1e05,SCR,2024-06-10_13h53.37.122,LearnStrategy,2023.2.3,Win32,59.88023952,9,2,1,,,,,,,,3,02,,,,,,,,,,,,,3,1.251,1,,,,,,0.150925926,-0.252777778,1,0,0,1.2511,Diorite_rect,0,0,0,0,1
57b18b64f6b9390001af1e05,SCR,2024-06-10_13h53.37.122,LearnStrategy,2023.2.3,Win32,59.88023952,9,2,2,,,,,,,,7,04,,,,,,,,,,,,,7,14.318,1,,,,,,0.112037037,-0.397222222,1,0,0,14.3175,Peridotite_rect,1,0,1,0,1
57b18b64f6b9390001af1e05,SCR,2024-06-10_13h53.37.122,LearnStrategy,2023.2.3,Win32,59.88023952,9,2,3,,,,,,,,1,09,,,,,,,,,,,,,1,2.972,1,,,,,,-0.362962963,-0.243518519,1,0,0,2.9722,Andesite_rect,2,0,2,0,1
57b18b64f6b9390001af1e05,SCR,2024-06-10_13h53.37.122,LearnStrategy,2023.2.3,Win32,59.88023952,9,2,4,,,,,,,,1,03,,,,,,,,,,,,,1,3.354,1,,,,,,-0.447222222,-0.250925926,1,0,0,3.3543,Andesite_rect,3,0,3,0,1
57b18b64f6b9390001af1e05,SCR,2024-06-10_13h53.37.122,LearnStrategy,2023.2.3,Win32,59.88023952,9,2,5,,,,,,,,2,01,,,,,,,,,,,,,4,5.149,0,,,,,,0.387037037,-0.240740741,1,0,0,5.1489,Gabbro_rect,4,0,4,0,1
57b18b64f6b9390001af1e05,SCR,2024-06-10_13h53.37.122,LearnStrategy,2023.2.3,Win32,59.88023952,9,2,6,,,,,,,,2,10,,,,,,,,,,,,,4,1.404,0,,,,,,0.433333333,-0.236111111,1,0,0,1.404,Gabbro_rect,5,0,5,0,1
57b18b64f6b9390001af1e05,SCR,2024-06-10_13h53.37.122,LearnStrategy,2023.2.3,Win32,59.88023952,9,2,7,,,,,,,,7,07,,,,,,,,,,,,,7,1.149,1,,,,,,0.09537037,-0.407407407,1,0,0,1.1491,Peridotite_rect,6,0,6,0,1
57b18b64f6b9390001af1e05,SCR,2024-06-10_13h53.37.122,LearnStrategy,2023.2.3,Win32,59.88023952,9,2,8,,,,,,,,6,13,,,,,,,,,,,,,5,2.442,0,,,,,,-0.367592593,-0.421296296,1,0,0,2.4419,Obsidian_rect,7,0,7,0,1
57b18b64f6b9390001af1e05,SCR,2024-06-10_13h53.37.122,LearnStrategy,2023.2.3,Win32,59.88023952,9,2,9,,,,,,,,5,05,,,,,,,,,,,,,5,1.276,1,,,,,,-0.405555556,-0.383333333,1,0,0,1.2763,Obsidian_rect,8,0,8,0,1
57b18b64f6b9390001af1e05,SCR,2024-06-10_13h53.37.122,LearnStrategy,2023.2.3,Win32,59.88023952,9,2,10,,,,,,,,3,13,,,,,,,,,,,,,3,1.744,1,,,,,,0.12962963,-0.247222222,1,0,0,1.744,Diorite_rect,9,0,9,0,1
57b18b64f6b9390001af1e05,SCR,2024-06-10_13h53.37.122,LearnStrategy,2023.2.3,Win32,59.88023952,9,2,11,,,,,,,,8,14,,,,,,,,,,,,,8,0.935,1,,,,,,0.346296296,-0.390740741,1,0,0,0.9346,Pumice_rect,10,0,10,0,1
57b18b64f6b9390001af1e05,SCR,2024-06-10_13h53.37.122,LearnStrategy,2023.2.3,Win32,59.88023952,9,2,12,,,,,,,,4,13,,,,,,,,,,,,,4,1.296,1,,,,,,0.426851852,-0.25462963,1,0,0,1.2964,Gabbro_rect,11,0,11,0,1
57b18b64f6b9390001af1e05,SCR,2024-06-10_13h53.37.122,LearnStrategy,2023.2.3,Win32,59.88023952,9,2,13,,,,,,,,8,05,,,,,,,,,,,,,8,1.659,1,,,,,,0.433333333,-0.403703704,1,0,0,1.6589,Pumice_rect,12,0,12,0,1
57b18b64f6b9390001af1e05,SCR,2024-06-10_13h53.37.122,LearnStrategy,2023.2.3,Win32,59.88023952,9,2,14,,,,,,,,6,10,,,,,,,,,,,,,6,1.812,1,,,,,,-0.087037037,-0.392592593,1,0,0,1.8124,Pegmatite_rect,13,0,13,0,1
57b18b64f6b9390001af1e05,SCR,2024-06-10_13h53.37.122,LearnStrategy,2023.2.3,Win32,59.88023952,9,2,15,,,,,,,,5,11,,,,,,,,,,,,,5,1.441,1,,,,,,-0.369444444,-0.390740741,1,0,0,1.4405,Obsidian_rect,14,0,14,0,1
57b18b64f6b9390001af1e05,SCR,2024-06-10_13h53.37.122,LearnStrategy,2023.2.3,Win32,59.88023952,9,2,16,,,,,,,,4,15,,,,,,,,,,,,,3,8.013,0,,,,,,0.152777778,-0.248148148,1,0,0,8.0131,Diorite_rect,15,0,15,0,1
57b18b64f6b9390001af1e05,SCR,2024-06-10_13h53.37.122,LearnStrategy,2023.2.3,Win32,59.88023952,,,,,,,,,,,,,,,,,,,,,,,,,,,,,,,,,,,,,,,,,,,,
57b18b64f6b9390001af1e05,SCR,2024-06-10_13h53.37.122,LearnStrategy,2023.2.3,Win32,59.88023952,,,,,,,,,,,,,,,,,,,,,,,,,,,,,,,,,,,,,,,,,,,,
57b18b64f6b9390001af1e05,SCR,2024-06-10_13h53.37.122,LearnStrategy,2023.2.3,Win32,59.88023952,,,,,,,,,,,8,10,1,1,,,,,,,,,,,,,,,,,,,,,,,,,,,,,,
57b18b64f6b9390001af1e05,SCR,2024-06-10_13h53.37.122,LearnStrategy,2023.2.3,Win32,59.88023952,,,,,,,,,,,8,13,1,2,,,,,,,,,,,,,,,,,,,,,,,,,,,,,,
57b18b64f6b9390001af1e05,SCR,2024-06-10_13h53.37.122,LearnStrategy,2023.2.3,Win32,59.88023952,,,,,,,,,,,5,04,1,3,,,,,,,,,,,,,,,,,,,,,,,,,,,,,,
57b18b64f6b9390001af1e05,SCR,2024-06-10_13h53.37.122,LearnStrategy,2023.2.3,Win32,59.88023952,,,,,,,,,,,2,06,1,4,,,,,,,,,,,,,,,,,,,,,,,,,,,,,,
57b18b64f6b9390001af1e05,SCR,2024-06-10_13h53.37.122,LearnStrategy,2023.2.3,Win32,59.88023952,,,,,,,,,,,8,06,1,5,,,,,,,,,,,,,,,,,,,,,,,,,,,,,,
57b18b64f6b9390001af1e05,SCR,2024-06-10_13h53.37.122,LearnStrategy,2023.2.3,Win32,59.88023952,,,,,,,,,,,6,07,1,6,,,,,,,,,,,,,,,,,,,,,,,,,,,,,,
57b18b64f6b9390001af1e05,SCR,2024-06-10_13h53.37.122,LearnStrategy,2023.2.3,Win32,59.88023952,,,,,,,,,,,4,09,1,7,,,,,,,,,,,,,,,,,,,,,,,,,,,,,,
57b18b64f6b9390001af1e05,SCR,2024-06-10_13h53.37.122,LearnStrategy,2023.2.3,Win32,59.88023952,,,,,,,,,,,2,08,1,8,,,,,,,,,,,,,,,,,,,,,,,,,,,,,,
57b18b64f6b9390001af1e05,SCR,2024-06-10_13h53.37.122,LearnStrategy,2023.2.3,Win32,59.88023952,,,,,,,,,,,7,12,2,1,,,,,,,,,,,,,,,,,,,,,,,,,,,,,,
57b18b64f6b9390001af1e05,SCR,2024-06-10_13h53.37.122,LearnStrategy,2023.2.3,Win32,59.88023952,,,,,,,,,,,6,03,2,2,,,,,,,,,,,,,,,,,,,,,,,,,,,,,,
57b18b64f6b9390001af1e05,SCR,2024-06-10_13h53.37.122,LearnStrategy,2023.2.3,Win32,59.88023952,,,,,,,,,,,3,16,2,3,,,,,,,,,,,,,,,,,,,,,,,,,,,,,,
57b18b64f6b9390001af1e05,SCR,2024-06-10_13h53.37.122,LearnStrategy,2023.2.3,Win32,59.88023952,,,,,,,,,,,3,14,2,4,,,,,,,,,,,,,,,,,,,,,,,,,,,,,,
57b18b64f6b9390001af1e05,SCR,2024-06-10_13h53.37.122,LearnStrategy,2023.2.3,Win32,59.88023952,,,,,,,,,,,3,11,2,5,,,,,,,,,,,,,,,,,,,,,,,,,,,,,,
57b18b64f6b9390001af1e05,SCR,2024-06-10_13h53.37.122,LearnStrategy,2023.2.3,Win32,59.88023952,,,,,,,,,,,7,16,2,6,,,,,,,,,,,,,,,,,,,,,,,,,,,,,,
57b18b64f6b9390001af1e05,SCR,2024-06-10_13h53.37.122,LearnStrategy,2023.2.3,Win32,59.88023952,,,,,,,,,,,1,10,2,7,,,,,,,,,,,,,,,,,,,,,,,,,,,,,,
57b18b64f6b9390001af1e05,SCR,2024-06-10_13h53.37.122,LearnStrategy,2023.2.3,Win32,59.88023952,,,,,,,,,,,7,08,2,8,,,,,,,,,,,,,,,,,,,,,,,,,,,,,,
57b18b64f6b9390001af1e05,SCR,2024-06-10_13h53.37.122,LearnStrategy,2023.2.3,Win32,59.88023952,,,,,,,,,,,8,09,3,1,,,,,,,,,,,,,,,,,,,,,,,,,,,,,,
57b18b64f6b9390001af1e05,SCR,2024-06-10_13h53.37.122,LearnStrategy,2023.2.3,Win32,59.88023952,,,,,,,,,,,2,05,3,2,,,,,,,,,,,,,,,,,,,,,,,,,,,,,,
57b18b64f6b9390001af1e05,SCR,2024-06-10_13h53.37.122,LearnStrategy,2023.2.3,Win32,59.88023952,,,,,,,,,,,2,14,3,3,,,,,,,,,,,,,,,,,,,,,,,,,,,,,,
57b18b64f6b9390001af1e05,SCR,2024-06-10_13h53.37.122,LearnStrategy,2023.2.3,Win32,59.88023952,,,,,,,,,,,6,12,3,4,,,,,,,,,,,,,,,,,,,,,,,,,,,,,,
57b18b64f6b9390001af1e05,SCR,2024-06-10_13h53.37.122,LearnStrategy,2023.2.3,Win32,59.88023952,,,,,,,,,,,7,05,3,5,,,,,,,,,,,,,,,,,,,,,,,,,,,,,,
57b18b64f6b9390001af1e05,SCR,2024-06-10_13h53.37.122,LearnStrategy,2023.2.3,Win32,59.88023952,,,,,,,,,,,6,08,3,6,,,,,,,,,,,,,,,,,,,,,,,,,,,,,,
57b18b64f6b9390001af1e05,SCR,2024-06-10_13h53.37.122,LearnStrategy,2023.2.3,Win32,59.88023952,,,,,,,,,,,5,08,3,7,,,,,,,,,,,,,,,,,,,,,,,,,,,,,,
57b18b64f6b9390001af1e05,SCR,2024-06-10_13h53.37.122,LearnStrategy,2023.2.3,Win32,59.88023952,,,,,,,,,,,2,04,3,8,,,,,,,,,,,,,,,,,,,,,,,,,,,,,,
57b18b64f6b9390001af1e05,SCR,2024-06-10_13h53.37.122,LearnStrategy,2023.2.3,Win32,59.88023952,,,,,,,,,,,3,15,4,1,,,,,,,,,,,,,,,,,,,,,,,,,,,,,,
57b18b64f6b9390001af1e05,SCR,2024-06-10_13h53.37.122,LearnStrategy,2023.2.3,Win32,59.88023952,,,,,,,,,,,5,14,4,2,,,,,,,,,,,,,,,,,,,,,,,,,,,,,,
57b18b64f6b9390001af1e05,SCR,2024-06-10_13h53.37.122,LearnStrategy,2023.2.3,Win32,59.88023952,,,,,,,,,,,6,15,4,3,,,,,,,,,,,,,,,,,,,,,,,,,,,,,,
57b18b64f6b9390001af1e05,SCR,2024-06-10_13h53.37.122,LearnStrategy,2023.2.3,Win32,59.88023952,,,,,,,,,,,4,10,4,4,,,,,,,,,,,,,,,,,,,,,,,,,,,,,,
57b18b64f6b9390001af1e05,SCR,2024-06-10_13h53.37.122,LearnStrategy,2023.2.3,Win32,59.88023952,,,,,,,,,,,7,13,4,5,,,,,,,,,,,,,,,,,,,,,,,,,,,,,,
57b18b64f6b9390001af1e05,SCR,2024-06-10_13h53.37.122,LearnStrategy,2023.2.3,Win32,59.88023952,,,,,,,,,,,1,02,4,6,,,,,,,,,,,,,,,,,,,,,,,,,,,,,,
57b18b64f6b9390001af1e05,SCR,2024-06-10_13h53.37.122,LearnStrategy,2023.2.3,Win32,59.88023952,,,,,,,,,,,5,16,4,7,,,,,,,,,,,,,,,,,,,,,,,,,,,,,,
57b18b64f6b9390001af1e05,SCR,2024-06-10_13h53.37.122,LearnStrategy,2023.2.3,Win32,59.88023952,,,,,,,,,,,3,10,4,8,,,,,,,,,,,,,,,,,,,,,,,,,,,,,,
57b18b64f6b9390001af1e05,SCR,2024-06-10_13h53.37.122,LearnStrategy,2023.2.3,Win32,59.88023952,,,,,,,,,,,3,08,5,1,,,,,,,,,,,,,,,,,,,,,,,,,,,,,,
57b18b64f6b9390001af1e05,SCR,2024-06-10_13h53.37.122,LearnStrategy,2023.2.3,Win32,59.88023952,,,,,,,,,,,8,15,5,2,,,,,,,,,,,,,,,,,,,,,,,,,,,,,,
57b18b64f6b9390001af1e05,SCR,2024-06-10_13h53.37.122,LearnStrategy,2023.2.3,Win32,59.88023952,,,,,,,,,,,5,07,5,3,,,,,,,,,,,,,,,,,,,,,,,,,,,,,,
57b18b64f6b9390001af1e05,SCR,2024-06-10_13h53.37.122,LearnStrategy,2023.2.3,Win32,59.88023952,,,,,,,,,,,4,01,5,4,,,,,,,,,,,,,,,,,,,,,,,,,,,,,,
57b18b64f6b9390001af1e05,SCR,2024-06-10_13h53.37.122,LearnStrategy,2023.2.3,Win32,59.88023952,,,,,,,,,,,7,10,5,5,,,,,,,,,,,,,,,,,,,,,,,,,,,,,,
57b18b64f6b9390001af1e05,SCR,2024-06-10_13h53.37.122,LearnStrategy,2023.2.3,Win32,59.88023952,,,,,,,,,,,4,03,5,6,,,,,,,,,,,,,,,,,,,,,,,,,,,,,,
57b18b64f6b9390001af1e05,SCR,2024-06-10_13h53.37.122,LearnStrategy,2023.2.3,Win32,59.88023952,,,,,,,,,,,5,09,5,7,,,,,,,,,,,,,,,,,,,,,,,,,,,,,,
57b18b64f6b9390001af1e05,SCR,2024-06-10_13h53.37.122,LearnStrategy,2023.2.3,Win32,59.88023952,,,,,,,,,,,1,07,5,8,,,,,,,,,,,,,,,,,,,,,,,,,,,,,,
57b18b64f6b9390001af1e05,SCR,2024-06-10_13h53.37.122,LearnStrategy,2023.2.3,Win32,59.88023952,,,,,,,,,,,2,02,6,1,,,,,,,,,,,,,,,,,,,,,,,,,,,,,,
57b18b64f6b9390001af1e05,SCR,2024-06-10_13h53.37.122,LearnStrategy,2023.2.3,Win32,59.88023952,,,,,,,,,,,1,04,6,2,,,,,,,,,,,,,,,,,,,,,,,,,,,,,,
57b18b64f6b9390001af1e05,SCR,2024-06-10_13h53.37.122,LearnStrategy,2023.2.3,Win32,59.88023952,,,,,,,,,,,1,14,6,3,,,,,,,,,,,,,,,,,,,,,,,,,,,,,,
57b18b64f6b9390001af1e05,SCR,2024-06-10_13h53.37.122,LearnStrategy,2023.2.3,Win32,59.88023952,,,,,,,,,,,8,16,6,4,,,,,,,,,,,,,,,,,,,,,,,,,,,,,,
57b18b64f6b9390001af1e05,SCR,2024-06-10_13h53.37.122,LearnStrategy,2023.2.3,Win32,59.88023952,,,,,,,,,,,4,14,6,5,,,,,,,,,,,,,,,,,,,,,,,,,,,,,,
57b18b64f6b9390001af1e05,SCR,2024-06-10_13h53.37.122,LearnStrategy,2023.2.3,Win32,59.88023952,,,,,,,,,,,4,11,6,6,,,,,,,,,,,,,,,,,,,,,,,,,,,,,,
57b18b64f6b9390001af1e05,SCR,2024-06-10_13h53.37.122,LearnStrategy,2023.2.3,Win32,59.88023952,,,,,,,,,,,1,16,6,7,,,,,,,,,,,,,,,,,,,,,,,,,,,,,,
57b18b64f6b9390001af1e05,SCR,2024-06-10_13h53.37.122,LearnStrategy,2023.2.3,Win32,59.88023952,,,,,,,,,,,6,09,6,8,,,,,,,,,,,,,,,,,,,,,,,,,,,,,,