participant,condition,date,expName,psychopyVersion,OS,frameRate,block,phase,trial,learn_mouse_2.x,learn_mouse_2.y,learn_mouse_2.leftButton,learn_mouse_2.midButton,learn_mouse_2.rightButton,learn_mouse_2.time,learn_mouse_2.clicked_name,cat,token,row,col,t_select,cat_mouse_l.x,cat_mouse_l.y,cat_mouse_l.leftButton,cat_mouse_l.midButton,cat_mouse_l.rightButton,cat_mouse_l.time,cat_mouse_l.clicked_name,resp,t_resp,corr,train_trials.thisRepN,train_trials.thisTrialN,train_trials.thisN,train_trials.thisIndex,train_trials.ran,cat_mouse_t.x,cat_mouse_t.y,cat_mouse_t.leftButton,cat_mouse_t.midButton,cat_mouse_t.rightButton,cat_mouse_t.time,cat_mouse_t.clicked_name,test_trials.thisRepN,test_trials.thisTrialN,test_trials.thisN,test_trials.thisIndex,test_trials.ran
57d1d04593d4400001cdc0db,TCR,2024-06-10_12h02.07.717,LearnStrategy,2023.2.3,Win32,59.17159763,,,,,,,,,,,,,,,,,,,,,,,,,,,,,,,,,,,,,,,,,,
57d1d04593d4400001cdc0db,TCR,2024-06-10_12h02.07.717,LearnStrategy,2023.2.3,Win32,59.17159763,1,1,1,-0.016666667,0.002777778,1,0,0,7.3372,rock_grid_rect_2,2,08,-1,-1,7.337,0.390740741,-0.40462963,1,0,0,6.4837,Pumice_rect,8,6.484,0,0,0,0,0,1,,,,,,,,,,,,
57d1d04593d4400001cdc0db,TCR,2024-06-10_12h02.07.717,LearnStrategy,2023.2.3,Win32,59.17159763,1,1,2,0.016666667,-0.002777778,1,0,0,2.2064,rock_grid_rect_2,1,10,-1,-1,2.206,0.353703704,-0.412962963,1,0,0,5.7953,Pumice_rect,8,5.795,0,1,0,1,0,1,,,,,,,,,,,,
57d1d04593d4400001cdc0db,TCR,2024-06-10_12h02.07.717,LearnStrategy,2023.2.3,Win32,59.17159763,1,1,3,0.012037037,-0.013888889,1,0,0,1.5472,rock_grid_rect_2,1,02,-1,-1,1.547,0.12037037,-0.237962963,1,0,0,6.484,Diorite_rect,3,6.484,0,2,0,2,0,1,,,,,,,,,,,,
57d1d04593d4400001cdc0db,TCR,2024-06-10_12h02.07.717,LearnStrategy,2023.2.3,Win32,59.17159763,1,1,4,0.059259259,-0.014814815,1,0,0,0.9827,rock_grid_rect_2,7,10,-1,-1,0.983,-0.111111111,-0.24537037,1,0,0,5.0237,Basalt_rect,2,5.024,0,3,0,3,0,1,,,,,,,,,,,,
57d1d04593d4400001cdc0db,TCR,2024-06-10_12h02.07.717,LearnStrategy,2023.2.3,Win32,59.17159763,1,1,5,-0.010185185,-0.006481481,1,0,0,1.0157,rock_grid_rect_2,3,12,-1,-1,1.016,0.338888889,-0.414814815,1,0,0,4.8919,Pumice_rect,8,4.892,0,4,0,4,0,1,,,,,,,,,,,,
57d1d04593d4400001cdc0db,TCR,2024-06-10_12h02.07.717,LearnStrategy,2023.2.3,Win32,59.17159763,1,1,6,0.034259259,0.016666667,1,0,0,1.1156,rock_grid_rect_2,8,06,-1,-1,1.116,0.368518519,-0.383333333,1,0,0,1.6949,Pumice_rect,8,1.695,1,5,0,5,0,1,,,,,,,,,,,,
57d1d04593d4400001cdc0db,TCR,2024-06-10_12h02.07.717,LearnStrategy,2023.2.3,Win32,59.17159763,1,1,7,0.002777778,0.00462963,1,0,0,1.0304,rock_grid_rect_2,3,08,-1,-1,1.03,-0.155555556,-0.387037037,1,0,0,6.3941,Pegmatite_rect,6,6.394,0,6,0,6,0,1,,,,,,,,,,,,
57d1d04593d4400001cdc0db,TCR,2024-06-10_12h02.07.717,LearnStrategy,2023.2.3,Win32,59.17159763,1,1,8,0.058333333,0.011111111,1,0,0,1.0138,rock_grid_rect_2,4,10,-1,-1,1.014,-0.37962963,-0.398148148,1,0,0,4.2314,Obsidian_rect,5,4.231,0,7,0,7,0,1,,,,,,,,,,,,
57d1d04593d4400001cdc0db,TCR,2024-06-10_12h02.07.717,LearnStrategy,2023.2.3,Win32,59.17159763,1,1,9,0.062962963,-0.009259259,1,0,0,1.1171,rock_grid_rect_2,5,16,-1,-1,1.117,-0.338888889,-0.389814815,1,0,0,1.4145,Obsidian_rect,5,1.414,1,8,0,8,0,1,,,,,,,,,,,,
57d1d04593d4400001cdc0db,TCR,2024-06-10_12h02.07.717,LearnStrategy,2023.2.3,Win32,59.17159763,1,1,10,-0.024074074,0.002777778,1,0,0,0.9482,rock_grid_rect_2,5,05,-1,-1,0.948,-0.403703704,-0.392592593,1,0,0,3.0013,Obsidian_rect,5,3.001,1,9,0,9,0,1,,,,,,,,,,,,
57d1d04593d4400001cdc0db,TCR,2024-06-10_12h02.07.717,LearnStrategy,2023.2.3,Win32,59.17159763,1,1,11,0.008333333,-0.002777778,1,0,0,1.2809,rock_grid_rect_2,6,16,-1,-1,1.281,0.103703704,-0.262037037,1,0,0,6.444,Diorite_rect,3,6.444,0,10,0,10,0,1,,,,,,,,,,,,
57d1d04593d4400001cdc0db,TCR,2024-06-10_12h02.07.717,LearnStrategy,2023.2.3,Win32,59.17159763,1,1,12,0.001851852,-0.007407407,1,0,0,1.0837,rock_grid_rect_2,4,15,-1,-1,1.084,0.1,-0.242592593,1,0,0,2.5313,Diorite_rect,3,2.531,0,11,0,11,0,1,,,,,,,,,,,,
57d1d04593d4400001cdc0db,TCR,2024-06-10_12h02.07.717,LearnStrategy,2023.2.3,Win32,59.17159763,1,1,13,-0.021296296,0.021296296,1,0,0,2.7826,rock_grid_rect_2,2,05,-1,-1,2.783,0.402777778,-0.241666667,1,0,0,4.8534,Gabbro_rect,4,4.853,0,12,0,12,0,1,,,,,,,,,,,,
57d1d04593d4400001cdc0db,TCR,2024-06-10_12h02.07.717,LearnStrategy,2023.2.3,Win32,59.17159763,1,1,14,0.053703704,-0.005555556,1,0,0,0.8328,rock_grid_rect_2,7,04,-1,-1,0.833,0.118518519,-0.258333333,1,0,0,3.7546,Diorite_rect,3,3.755,0,13,0,13,0,1,,,,,,,,,,,,
57d1d04593d4400001cdc0db,TCR,2024-06-10_12h02.07.717,LearnStrategy,2023.2.3,Win32,59.17159763,1,1,15,0.04537037,-0.006481481,1,0,0,0.9634,rock_grid_rect_2,8,16,-1,-1,0.963,0.362962963,-0.387962963,1,0,0,1.3326,Pumice_rect,8,1.333,1,14,0,14,0,1,,,,,,,,,,,,
57d1d04593d4400001cdc0db,TCR,2024-06-10_12h02.07.717,LearnStrategy,2023.2.3,Win32,59.17159763,1,1,16,-0.024074074,-0.003703704,1,0,0,1.0997,rock_grid_rect_2,6,11,-1,-1,1.1,-0.378703704,-0.239814815,1,0,0,4.3179,Andesite_rect,1,4.318,0,15,0,15,0,1,,,,,,,,,,,,
57d1d04593d4400001cdc0db,TCR,2024-06-10_12h02.07.717,LearnStrategy,2023.2.3,Win32,59.17159763,1,2,1,,,,,,,,1,06,,,,,,,,,,,3,11.725,0,,,,,,0.14537037,-0.258333333,1,0,0,11.7248,Diorite_rect,0,0,0,0,1
57d1d04593d4400001cdc0db,TCR,2024-06-10_12h02.07.717,LearnStrategy,2023.2.3,Win32,59.17159763,1,2,2,,,,,,,,3,11,,,,,,,,,,,3,5.294,1,,,,,,0.14537037,-0.258333333,1,0,0,5.2936,Diorite_rect,1,0,1,0,1
57d1d04593d4400001cdc0db,TCR,2024-06-10_12h02.07.717,LearnStrategy,2023.2.3,Win32,59.17159763,1,2,3,,,,,,,,4,09,,,,,,,,,,,4,14.472,1,,,,,,0.414814815,-0.261111111,1,0,0,14.472,Gabbro_rect,2,0,2,0,1
57d1d04593d4400001cdc0db,TCR,2024-06-10_12h02.07.717,LearnStrategy,2023.2.3,Win32,59.17159763,1,2,4,,,,,,,,2,02,,,,,,,,,,,2,2.845,1,,,,,,-0.123148148,-0.249074074,1,0,0,2.845,Basalt_rect,3,0,3,0,1
57d1d04593d4400001cdc0db,TCR,2024-06-10_12h02.07.717,LearnStrategy,2023.2.3,Win32,59.17159763,1,2,5,,,,,,,,7,15,,,,,,,,,,,7,1.398,1,,,,,,0.12962963,-0.40462963,1,0,0,1.3981,Peridotite_rect,4,0,4,0,1
57d1d04593d4400001cdc0db,TCR,2024-06-10_12h02.07.717,LearnStrategy,2023.2.3,Win32,59.17159763,1,2,6,,,,,,,,1,05,,,,,,,,,,,7,1.277,0,,,,,,0.124074074,-0.389814815,1,0,0,1.2773,Peridotite_rect,5,0,5,0,1
57d1d04593d4400001cdc0db,TCR,2024-06-10_12h02.07.717,LearnStrategy,2023.2.3,Win32,59.17159763,1,2,7,,,,,,,,5,10,,,,,,,,,,,5,1.112,1,,,,,,-0.377777778,-0.42037037,1,0,0,1.1116,Obsidian_rect,6,0,6,0,1
57d1d04593d4400001cdc0db,TCR,2024-06-10_12h02.07.717,LearnStrategy,2023.2.3,Win32,59.17159763,1,2,8,,,,,,,,3,10,,,,,,,,,,,1,10.546,0,,,,,,-0.307407407,-0.24537037,1,0,0,10.5462,Andesite_rect,7,0,7,0,1
57d1d04593d4400001cdc0db,TCR,2024-06-10_12h02.07.717,LearnStrategy,2023.2.3,Win32,59.17159763,1,2,9,,,,,,,,7,02,,,,,,,,,,,7,1.281,1,,,,,,0.126851852,-0.412037037,1,0,0,1.2808,Peridotite_rect,8,0,8,0,1
57d1d04593d4400001cdc0db,TCR,2024-06-10_12h02.07.717,LearnStrategy,2023.2.3,Win32,59.17159763,1,2,10,,,,,,,,8,08,,,,,,,,,,,8,1.043,1,,,,,,0.35462963,-0.398148148,1,0,0,1.0433,Pumice_rect,9,0,9,0,1
57d1d04593d4400001cdc0db,TCR,2024-06-10_12h02.07.717,LearnStrategy,2023.2.3,Win32,59.17159763,1,2,11,,,,,,,,8,04,,,,,,,,,,,8,0.929,1,,,,,,0.428703704,-0.412962963,1,0,0,0.9293,Pumice_rect,10,0,10,0,1
57d1d04593d4400001cdc0db,TCR,2024-06-10_12h02.07.717,LearnStrategy,2023.2.3,Win32,59.17159763,1,2,12,,,,,,,,6,10,,,,,,,,,,,7,8.323,0,,,,,,0.076851852,-0.4,1,0,0,8.3228,Peridotite_rect,11,0,11,0,1
57d1d04593d4400001cdc0db,TCR,2024-06-10_12h02.07.717,LearnStrategy,2023.2.3,Win32,59.17159763,1,2,13,,,,,,,,5,06,,,,,,,,,,,5,2.143,1,,,,,,-0.358333333,-0.380555556,1,0,0,2.1433,Obsidian_rect,12,0,12,0,1
57d1d04593d4400001cdc0db,TCR,2024-06-10_12h02.07.717,LearnStrategy,2023.2.3,Win32,59.17159763,1,2,14,,,,,,,,2,06,,,,,,,,,,,2,9.628,1,,,,,,-0.118518519,-0.266666667,1,0,0,9.6276,Basalt_rect,13,0,13,0,1
57d1d04593d4400001cdc0db,TCR,2024-06-10_12h02.07.717,LearnStrategy,2023.2.3,Win32,59.17159763,1,2,15,,,,,,,,4,03,,,,,,,,,,,3,12.015,0,,,,,,0.137962963,-0.261111111,1,0,0,12.0152,Diorite_rect,14,0,14,0,1
57d1d04593d4400001cdc0db,TCR,2024-06-10_12h02.07.717,LearnStrategy,2023.2.3,Win32,59.17159763,1,2,16,,,,,,,,6,07,,,,,,,,,,,6,6.192,1,,,,,,-0.111111111,-0.381481481,1,0,0,6.1921,Pegmatite_rect,15,0,15,0,1
57d1d04593d4400001cdc0db,TCR,2024-06-10_12h02.07.717,LearnStrategy,2023.2.3,Win32,59.17159763,2,1,1,0.112037037,-0.010185185,1,0,0,2.734,rock_grid_rect_2,6,03,-1,-1,2.734,-0.130555556,-0.390740741,1,0,0,6.6927,Pegmatite_rect,6,6.693,1,0,0,0,0,1,,,,,,,,,,,,
57d1d04593d4400001cdc0db,TCR,2024-06-10_12h02.07.717,LearnStrategy,2023.2.3,Win32,59.17159763,2,1,2,0.02962963,-0.007407407,1,0,0,1.1124,rock_grid_rect_2,7,16,-1,-1,1.112,0.111111111,-0.390740741,1,0,0,5.6336,Peridotite_rect,7,5.634,1,1,0,1,0,1,,,,,,,,,,,,
57d1d04593d4400001cdc0db,TCR,2024-06-10_12h02.07.717,LearnStrategy,2023.2.3,Win32,59.17159763,2,1,3,-0.013888889,0.000925926,1,0,0,1.2312,rock_grid_rect_2,3,08,-1,-1,1.231,0.103703704,-0.264814815,1,0,0,3.5489,Diorite_rect,3,3.549,1,2,0,2,0,1,,,,,,,,,,,,
57d1d04593d4400001cdc0db,TCR,2024-06-10_12h02.07.717,LearnStrategy,2023.2.3,Win32,59.17159763,2,1,4,0.05462963,-0.009259259,1,0,0,1.0451,rock_grid_rect_2,1,16,-1,-1,1.045,0.1,-0.238888889,1,0,0,2.2276,Diorite_rect,3,2.228,0,3,0,3,0,1,,,,,,,,,,,,
57d1d04593d4400001cdc0db,TCR,2024-06-10_12h02.07.717,LearnStrategy,2023.2.3,Win32,59.17159763,2,1,5,0.030555556,0.002777778,1,0,0,0.9149,rock_grid_rect_2,4,01,-1,-1,0.915,-0.34537037,-0.246296296,1,0,0,2.583,Andesite_rect,1,2.583,0,4,0,4,0,1,,,,,,,,,,,,
57d1d04593d4400001cdc0db,TCR,2024-06-10_12h02.07.717,LearnStrategy,2023.2.3,Win32,59.17159763,2,1,6,0.106481481,-0.015740741,1,0,0,0.8665,rock_grid_rect_2,3,14,-1,-1,0.867,0.132407407,-0.27037037,1,0,0,3.0215,Diorite_rect,3,3.022,1,5,0,5,0,1,,,,,,,,,,,,
57d1d04593d4400001cdc0db,TCR,2024-06-10_12h02.07.717,LearnStrategy,2023.2.3,Win32,59.17159763,2,1,7,0.014814815,0.002777778,1,0,0,1.1469,rock_grid_rect_2,8,10,-1,-1,1.147,0.311111111,-0.384259259,1,0,0,1.0802,Pumice_rect,8,1.08,1,6,0,6,0,1,,,,,,,,,,,,
57d1d04593d4400001cdc0db,TCR,2024-06-10_12h02.07.717,LearnStrategy,2023.2.3,Win32,59.17159763,2,1,8,-0.001851852,-0.006481481,1,0,0,0.8466,rock_grid_rect_2,1,16,-1,-1,0.847,-0.34537037,-0.257407407,1,0,0,4.1077,Andesite_rect,1,4.108,1,7,0,7,0,1,,,,,,,,,,,,
57d1d04593d4400001cdc0db,TCR,2024-06-10_12h02.07.717,LearnStrategy,2023.2.3,Win32,59.17159763,2,1,9,0.027777778,-0.015740741,1,0,0,0.7977,rock_grid_rect_2,6,08,-1,-1,0.798,-0.156481481,-0.413888889,1,0,0,3.0083,Pegmatite_rect,6,3.008,1,8,0,8,0,1,,,,,,,,,,,,
57d1d04593d4400001cdc0db,TCR,2024-06-10_12h02.07.717,LearnStrategy,2023.2.3,Win32,59.17159763,2,1,10,0.060185185,-0.008333333,1,0,0,0.8137,rock_grid_rect_2,4,01,-1,-1,0.814,0.394444444,-0.235185185,1,0,0,4.9971,Gabbro_rect,4,4.997,1,9,0,9,0,1,,,,,,,,,,,,
57d1d04593d4400001cdc0db,TCR,2024-06-10_12h02.07.717,LearnStrategy,2023.2.3,Win32,59.17159763,2,1,11,0.041666667,-0.012962963,1,0,0,0.8806,rock_grid_rect_2,1,03,-1,-1,0.881,-0.100925926,-0.24537037,1,0,0,3.2589,Basalt_rect,2,3.259,0,10,0,10,0,1,,,,,,,,,,,,
57d1d04593d4400001cdc0db,TCR,2024-06-10_12h02.07.717,LearnStrategy,2023.2.3,Win32,59.17159763,2,1,12,0.05,-0.006481481,1,0,0,0.8986,rock_grid_rect_2,3,08,-1,-1,0.899,0.091666667,-0.25,1,0,0,4.6438,Diorite_rect,3,4.644,1,11,0,11,0,1,,,,,,,,,,,,
57d1d04593d4400001cdc0db,TCR,2024-06-10_12h02.07.717,LearnStrategy,2023.2.3,Win32,59.17159763,2,1,13,0.013888889,-0.005555556,1,0,0,0.7976,rock_grid_rect_2,6,09,-1,-1,0.798,-0.091666667,-0.393518519,1,0,0,1.8152,Pegmatite_rect,6,1.815,1,12,0,12,0,1,,,,,,,,,,,,
57d1d04593d4400001cdc0db,TCR,2024-06-10_12h02.07.717,LearnStrategy,2023.2.3,Win32,59.17159763,2,1,14,0.061111111,-0.012037037,1,0,0,0.932,rock_grid_rect_2,1,10,-1,-1,0.932,-0.369444444,-0.235185185,1,0,0,1.7149,Andesite_rect,1,1.715,1,13,0,13,0,1,,,,,,,,,,,,
57d1d04593d4400001cdc0db,TCR,2024-06-10_12h02.07.717,LearnStrategy,2023.2.3,Win32,59.17159763,2,1,15,0.044444444,-0.011111111,1,0,0,0.6496,rock_grid_rect_2,4,12,-1,-1,0.65,0.323148148,-0.241666667,1,0,0,2.0252,Gabbro_rect,4,2.025,1,14,0,14,0,1,,,,,,,,,,,,
57d1d04593d4400001cdc0db,TCR,2024-06-10_12h02.07.717,LearnStrategy,2023.2.3,Win32,59.17159763,2,1,16,0.100925926,0.000925926,1,0,0,0.701,rock_grid_rect_2,5,04,-1,-1,0.701,-0.403703704,-0.397222222,1,0,0,1.1241,Obsidian_rect,5,1.124,1,15,0,15,0,1,,,,,,,,,,,,
57d1d04593d4400001cdc0db,TCR,2024-06-10_12h02.07.717,LearnStrategy,2023.2.3,Win32,59.17159763,2,2,1,,,,,,,,1,11,,,,,,,,,,,1,4.257,1,,,,,,-0.359259259,-0.27037037,1,0,0,4.2567,Andesite_rect,0,0,0,0,1
57d1d04593d4400001cdc0db,TCR,2024-06-10_12h02.07.717,LearnStrategy,2023.2.3,Win32,59.17159763,2,2,2,,,,,,,,2,10,,,,,,,,,,,2,12.366,1,,,,,,-0.080555556,-0.25462963,1,0,0,12.3661,Basalt_rect,1,0,1,0,1
57d1d04593d4400001cdc0db,TCR,2024-06-10_12h02.07.717,LearnStrategy,2023.2.3,Win32,59.17159763,2,2,3,,,,,,,,6,13,,,,,,,,,,,6,2.041,1,,,,,,-0.099074074,-0.390740741,1,0,0,2.0414,Pegmatite_rect,2,0,2,0,1
57d1d04593d4400001cdc0db,TCR,2024-06-10_12h02.07.717,LearnStrategy,2023.2.3,Win32,59.17159763,2,2,4,,,,,,,,6,05,,,,,,,,,,,6,1.323,1,,,,,,-0.100925926,-0.385185185,1,0,0,1.3227,Pegmatite_rect,3,0,3,0,1
57d1d04593d4400001cdc0db,TCR,2024-06-10_12h02.07.717,LearnStrategy,2023.2.3,Win32,59.17159763,2,2,5,,,,,,,,7,06,,,,,,,,,,,7,1.206,1,,,,,,0.108333333,-0.4,1,0,0,1.2064,Peridotite_rect,4,0,4,0,1
57d1d04593d4400001cdc0db,TCR,2024-06-10_12h02.07.717,LearnStrategy,2023.2.3,Win32,59.17159763,2,2,6,,,,,,,,4,11,,,,,,,,,,,1,1.853,0,,,,,,-0.331481481,-0.238888889,1,0,0,1.8533,Andesite_rect,5,0,5,0,1
57d1d04593d4400001cdc0db,TCR,2024-06-10_12h02.07.717,LearnStrategy,2023.2.3,Win32,59.17159763,2,2,7,,,,,,,,2,11,,,,,,,,,,,8,1.948,0,,,,,,0.432407407,-0.397222222,1,0,0,1.9479,Pumice_rect,6,0,6,0,1
57d1d04593d4400001cdc0db,TCR,2024-06-10_12h02.07.717,LearnStrategy,2023.2.3,Win32,59.17159763,2,2,8,,,,,,,,4,14,,,,,,,,,,,4,2.748,1,,,,,,0.384259259,-0.264814815,1,0,0,2.7482,Gabbro_rect,7,0,7,0,1
57d1d04593d4400001cdc0db,TCR,2024-06-10_12h02.07.717,LearnStrategy,2023.2.3,Win32,59.17159763,2,2,9,,,,,,,,1,04,,,,,,,,,,,1,2.587,1,,,,,,-0.362037037,-0.238888889,1,0,0,2.5865,Andesite_rect,8,0,8,0,1
57d1d04593d4400001cdc0db,TCR,2024-06-10_12h02.07.717,LearnStrategy,2023.2.3,Win32,59.17159763,2,2,10,,,,,,,,8,14,,,,,,,,,,,8,0.991,1,,,,,,0.403703704,-0.386111111,1,0,0,0.9908,Pumice_rect,9,0,9,0,1
57d1d04593d4400001cdc0db,TCR,2024-06-10_12h02.07.717,LearnStrategy,2023.2.3,Win32,59.17159763,2,2,11,,,,,,,,8,03,,,,,,,,,,,8,1.303,1,,,,,,0.376851852,-0.39537037,1,0,0,1.3025,Pumice_rect,10,0,10,0,1
57d1d04593d4400001cdc0db,TCR,2024-06-10_12h02.07.717,LearnStrategy,2023.2.3,Win32,59.17159763,2,2,12,,,,,,,,5,14,,,,,,,,,,,5,1.571,1,,,,,,-0.397222222,-0.407407407,1,0,0,1.5713,Obsidian_rect,11,0,11,0,1
57d1d04593d4400001cdc0db,TCR,2024-06-10_12h02.07.717,LearnStrategy,2023.2.3,Win32,59.17159763,2,2,13,,,,,,,,3,07,,,,,,,,,,,3,3.642,1,,,,,,0.15,-0.253703704,1,0,0,3.6424,Diorite_rect,12,0,12,0,1
57d1d04593d4400001cdc0db,TCR,2024-06-10_12h02.07.717,LearnStrategy,2023.2.3,Win32,59.17159763,2,2,14,,,,,,,,3,13,,,,,,,,,,,3,0.999,1,,,,,,0.146296296,-0.244444444,1,0,0,0.999,Diorite_rect,13,0,13,0,1
57d1d04593d4400001cdc0db,TCR,2024-06-10_12h02.07.717,LearnStrategy,2023.2.3,Win32,59.17159763,2,2,15,,,,,,,,7,08,,,,,,,,,,,7,1.474,1,,,,,,0.139814815,-0.401851852,1,0,0,1.4744,Peridotite_rect,14,0,14,0,1
57d1d04593d4400001cdc0db,TCR,2024-06-10_12h02.07.717,LearnStrategy,2023.2.3,Win32,59.17159763,2,2,16,,,,,,,,5,11,,,,,,,,,,,5,0.964,1,,,,,,-0.399074074,-0.412962963,1,0,0,0.9645,Obsidian_rect,15,0,15,0,1
57d1d04593d4400001cdc0db,TCR,2024-06-10_12h02.07.717,LearnStrategy,2023.2.3,Win32,59.17159763,3,1,1,-0.030555556,-0.003703704,1,0,0,1.2656,rock_grid_rect_2,6,09,-1,-1,1.266,-0.146296296,-0.403703704,1,0,0,1.3576,Pegmatite_rect,6,1.358,1,0,0,0,0,1,,,,,,,,,,,,
57d1d04593d4400001cdc0db,TCR,2024-06-10_12h02.07.717,LearnStrategy,2023.2.3,Win32,59.17159763,3,1,2,0.037037037,0.005555556,1,0,0,1.3492,rock_grid_rect_2,4,01,-1,-1,1.349,0.359259259,-0.25462963,1,0,0,1.6471,Gabbro_rect,4,1.647,1,1,0,1,0,1,,,,,,,,,,,,
57d1d04593d4400001cdc0db,TCR,2024-06-10_12h02.07.717,LearnStrategy,2023.2.3,Win32,59.17159763,3,1,3,0.107407407,-0.003703704,1,0,0,0.8987,rock_grid_rect_2,2,12,-1,-1,0.899,0.346296296,-0.389814815,1,0,0,1.5582,Pumice_rect,8,1.558,0,2,0,2,0,1,,,,,,,,,,,,
57d1d04593d4400001cdc0db,TCR,2024-06-10_12h02.07.717,LearnStrategy,2023.2.3,Win32,59.17159763,3,1,4,0.021296296,-0.011111111,1,0,0,0.9309,rock_grid_rect_2,4,13,-1,-1,0.931,-0.372222222,-0.240740741,1,0,0,3.4638,Andesite_rect,1,3.464,0,3,0,3,0,1,,,,,,,,,,,,
57d1d04593d4400001cdc0db,TCR,2024-06-10_12h02.07.717,LearnStrategy,2023.2.3,Win32,59.17159763,3,1,5,0.036111111,-0.001851852,1,0,0,0.7999,rock_grid_rect_2,3,12,-1,-1,0.8,0.097222222,-0.264814815,1,0,0,1.3314,Diorite_rect,3,1.331,1,4,0,4,0,1,,,,,,,,,,,,
57d1d04593d4400001cdc0db,TCR,2024-06-10_12h02.07.717,LearnStrategy,2023.2.3,Win32,59.17159763,3,1,6,0.008333333,-0.014814815,1,0,0,1.0175,rock_grid_rect_2,3,16,-1,-1,1.018,0.106481481,-0.261111111,1,0,0,0.9208,Diorite_rect,3,0.921,1,5,0,5,0,1,,,,,,,,,,,,
57d1d04593d4400001cdc0db,TCR,2024-06-10_12h02.07.717,LearnStrategy,2023.2.3,Win32,59.17159763,3,1,7,0.074074074,0.022222222,1,0,0,0.5503,rock_grid_rect_2,5,05,-1,-1,0.55,-0.349074074,-0.396296296,1,0,0,1.1044,Obsidian_rect,5,1.104,1,6,0,6,0,1,,,,,,,,,,,,
57d1d04593d4400001cdc0db,TCR,2024-06-10_12h02.07.717,LearnStrategy,2023.2.3,Win32,59.17159763,3,1,8,0.050925926,-0.007407407,1,0,0,0.8014,rock_grid_rect_2,7,12,-1,-1,0.801,0.167592593,-0.415740741,1,0,0,1.2142,Peridotite_rect,7,1.214,1,7,0,7,0,1,,,,,,,,,,,,
57d1d04593d4400001cdc0db,TCR,2024-06-10_12h02.07.717,LearnStrategy,2023.2.3,Win32,59.17159763,3,1,9,0.035185185,-0.015740741,1,0,0,0.8686,rock_grid_rect_2,2,09,-1,-1,0.869,-0.149074074,-0.265740741,1,0,0,1.7917,Basalt_rect,2,1.792,1,8,0,8,0,1,,,,,,,,,,,,
57d1d04593d4400001cdc0db,TCR,2024-06-10_12h02.07.717,LearnStrategy,2023.2.3,Win32,59.17159763,3,1,10,0.05,-0.006481481,1,0,0,0.8643,rock_grid_rect_2,8,06,-1,-1,0.864,0.306481481,-0.378703704,1,0,0,0.9207,Pumice_rect,8,0.921,1,9,0,9,0,1,,,,,,,,,,,,
57d1d04593d4400001cdc0db,TCR,2024-06-10_12h02.07.717,LearnStrategy,2023.2.3,Win32,59.17159763,3,1,11,0.064814815,-0.013888889,1,0,0,1.0654,rock_grid_rect_2,2,05,-1,-1,1.065,-0.385185185,-0.248148148,1,0,0,4.6945,Andesite_rect,1,4.694,0,10,0,10,0,1,,,,,,,,,,,,
57d1d04593d4400001cdc0db,TCR,2024-06-10_12h02.07.717,LearnStrategy,2023.2.3,Win32,59.17159763,3,1,12,-0.024074074,-0.008333333,1,0,0,0.666,rock_grid_rect_2,1,16,-1,-1,0.666,0.114814815,-0.236111111,1,0,0,1.0399,Diorite_rect,3,1.04,0,11,0,11,0,1,,,,,,,,,,,,
57d1d04593d4400001cdc0db,TCR,2024-06-10_12h02.07.717,LearnStrategy,2023.2.3,Win32,59.17159763,3,1,13,0.012037037,-0.011111111,1,0,0,1.1307,rock_grid_rect_2,4,13,-1,-1,1.131,0.415740741,-0.25,1,0,0,1.3983,Gabbro_rect,4,1.398,1,12,0,12,0,1,,,,,,,,,,,,
57d1d04593d4400001cdc0db,TCR,2024-06-10_12h02.07.717,LearnStrategy,2023.2.3,Win32,59.17159763,3,1,14,0.027777778,0.003703704,1,0,0,0.7639,rock_grid_rect_2,4,01,-1,-1,0.764,0.419444444,-0.248148148,1,0,0,1.41,Gabbro_rect,4,1.41,1,13,0,13,0,1,,,,,,,,,,,,
57d1d04593d4400001cdc0db,TCR,2024-06-10_12h02.07.717,LearnStrategy,2023.2.3,Win32,59.17159763,3,1,15,-0.037962963,0.003703704,1,0,0,0.864,rock_grid_rect_2,6,03,-1,-1,0.864,-0.12037037,-0.412962963,1,0,0,1.9299,Pegmatite_rect,6,1.93,1,14,0,14,0,1,,,,,,,,,,,,
57d1d04593d4400001cdc0db,TCR,2024-06-10_12h02.07.717,LearnStrategy,2023.2.3,Win32,59.17159763,3,1,16,-0.024074074,-0.015740741,1,0,0,1.0467,rock_grid_rect_2,1,01,-1,-1,1.047,0.173148148,-0.253703704,1,0,0,6.0974,Diorite_rect,3,6.097,0,15,0,15,0,1,,,,,,,,,,,,
57d1d04593d4400001cdc0db,TCR,2024-06-10_12h02.07.717,LearnStrategy,2023.2.3,Win32,59.17159763,3,2,1,,,,,,,,5,12,,,,,,,,,,,5,1.468,1,,,,,,-0.37037037,-0.417592593,1,0,0,1.4675,Obsidian_rect,0,0,0,0,1
57d1d04593d4400001cdc0db,TCR,2024-06-10_12h02.07.717,LearnStrategy,2023.2.3,Win32,59.17159763,3,2,2,,,,,,,,3,15,,,,,,,,,,,3,2.657,1,,,,,,0.122222222,-0.257407407,1,0,0,2.6573,Diorite_rect,1,0,1,0,1
57d1d04593d4400001cdc0db,TCR,2024-06-10_12h02.07.717,LearnStrategy,2023.2.3,Win32,59.17159763,3,2,3,,,,,,,,2,16,,,,,,,,,,,1,5.425,0,,,,,,-0.349074074,-0.248148148,1,0,0,5.4249,Andesite_rect,2,0,2,0,1
57d1d04593d4400001cdc0db,TCR,2024-06-10_12h02.07.717,LearnStrategy,2023.2.3,Win32,59.17159763,3,2,4,,,,,,,,5,07,,,,,,,,,,,5,1.1,1,,,,,,-0.349074074,-0.389814815,1,0,0,1.1,Obsidian_rect,3,0,3,0,1
57d1d04593d4400001cdc0db,TCR,2024-06-10_12h02.07.717,LearnStrategy,2023.2.3,Win32,59.17159763,3,2,5,,,,,,,,7,13,,,,,,,,,,,7,0.971,1,,,,,,0.132407407,-0.394444444,1,0,0,0.9707,Peridotite_rect,4,0,4,0,1
57d1d04593d4400001cdc0db,TCR,2024-06-10_12h02.07.717,LearnStrategy,2023.2.3,Win32,59.17159763,3,2,6,,,,,,,,3,09,,,,,,,,,,,3,1.158,1,,,,,,0.136111111,-0.259259259,1,0,0,1.1581,Diorite_rect,5,0,5,0,1
57d1d04593d4400001cdc0db,TCR,2024-06-10_12h02.07.717,LearnStrategy,2023.2.3,Win32,59.17159763,3,2,7,,,,,,,,4,05,,,,,,,,,,,4,9.849,1,,,,,,0.388888889,-0.238888889,1,0,0,9.8488,Gabbro_rect,6,0,6,0,1
57d1d04593d4400001cdc0db,TCR,2024-06-10_12h02.07.717,LearnStrategy,2023.2.3,Win32,59.17159763,3,2,8,,,,,,,,4,08,,,,,,,,,,,4,1.115,1,,,,,,0.378703704,-0.250925926,1,0,0,1.115,Gabbro_rect,7,0,7,0,1
57d1d04593d4400001cdc0db,TCR,2024-06-10_12h02.07.717,LearnStrategy,2023.2.3,Win32,59.17159763,3,2,9,,,,,,,,1,07,,,,,,,,,,,3,1.277,0,,,,,,0.107407407,-0.259259259,1,0,0,1.2766,Diorite_rect,8,0,8,0,1
57d1d04593d4400001cdc0db,TCR,2024-06-10_12h02.07.717,LearnStrategy,2023.2.3,Win32,59.17159763,3,2,10,,,,,,,,2,04,,,,,,,,,,,2,4.973,1,,,,,,-0.155555556,-0.252777778,1,0,0,4.9734,Basalt_rect,9,0,9,0,1
57d1d04593d4400001cdc0db,TCR,2024-06-10_12h02.07.717,LearnStrategy,2023.2.3,Win32,59.17159763,3,2,11,,,,,,,,6,06,,,,,,,,,,,6,5.453,1,,,,,,-0.125925926,-0.393518519,1,0,0,5.4528,Pegmatite_rect,10,0,10,0,1
57d1d04593d4400001cdc0db,TCR,2024-06-10_12h02.07.717,LearnStrategy,2023.2.3,Win32,59.17159763,3,2,12,,,,,,,,7,05,,,,,,,,,,,7,1.758,1,,,,,,0.112962963,-0.393518519,1,0,0,1.7584,Peridotite_rect,11,0,11,0,1
57d1d04593d4400001cdc0db,TCR,2024-06-10_12h02.07.717,LearnStrategy,2023.2.3,Win32,59.17159763,3,2,13,,,,,,,,8,09,,,,,,,,,,,8,0.913,1,,,,,,0.37962963,-0.413888889,1,0,0,0.9132,Pumice_rect,12,0,12,0,1
57d1d04593d4400001cdc0db,TCR,2024-06-10_12h02.07.717,LearnStrategy,2023.2.3,Win32,59.17159763,3,2,14,,,,,,,,8,02,,,,,,,,,,,8,0.697,1,,,,,,0.37962963,-0.399074074,1,0,0,0.6965,Pumice_rect,13,0,13,0,1
57d1d04593d4400001cdc0db,TCR,2024-06-10_12h02.07.717,LearnStrategy,2023.2.3,Win32,59.17159763,3,2,15,,,,,,,,1,09,,,,,,,,,,,1,2.026,1,,,,,,-0.40462963,-0.251851852,1,0,0,2.026,Andesite_rect,14,0,14,0,1
57d1d04593d4400001cdc0db,TCR,2024-06-10_12h02.07.717,LearnStrategy,2023.2.3,Win32,59.17159763,3,2,16,,,,,,,,6,15,,,,,,,,,,,6,1.505,1,,,,,,-0.094444444,-0.390740741,1,0,0,1.5046,Pegmatite_rect,15,0,15,0,1
57d1d04593d4400001cdc0db,TCR,2024-06-10_12h02.07.717,LearnStrategy,2023.2.3,Win32,59.17159763,4,1,1,-0.034259259,-0.02037037,1,0,0,24.4636,rock_grid_rect_2,3,06,-1,-1,24.464,0.163888889,-0.261111111,1,0,0,1.245,Diorite_rect,3,1.245,1,0,0,0,0,1,,,,,,,,,,,,
57d1d04593d4400001cdc0db,TCR,2024-06-10_12h02.07.717,LearnStrategy,2023.2.3,Win32,59.17159763,4,1,2,0.005555556,-0.008333333,1,0,0,1.0649,rock_grid_rect_2,1,14,-1,-1,1.065,-0.375925926,-0.241666667,1,0,0,2.1153,Andesite_rect,1,2.115,1,1,0,1,0,1,,,,,,,,,,,,
57d1d04593d4400001cdc0db,TCR,2024-06-10_12h02.07.717,LearnStrategy,2023.2.3,Win32,59.17159763,4,1,3,-0.012962963,0.001851852,1,0,0,0.88,rock_grid_rect_2,1,16,-1,-1,0.88,-0.434259259,-0.257407407,1,0,0,2.2028,Andesite_rect,1,2.203,1,2,0,2,0,1,,,,,,,,,,,,
57d1d04593d4400001cdc0db,TCR,2024-06-10_12h02.07.717,LearnStrategy,2023.2.3,Win32,59.17159763,4,1,4,-0.023148148,-0.012037037,1,0,0,0.831,rock_grid_rect_2,4,16,-1,-1,0.831,-0.121296296,-0.236111111,1,0,0,1.6813,Basalt_rect,2,1.681,0,3,0,3,0,1,,,,,,,,,,,,
57d1d04593d4400001cdc0db,TCR,2024-06-10_12h02.07.717,LearnStrategy,2023.2.3,Win32,59.17159763,4,1,5,0.017592593,-0.024074074,1,0,0,0.8498,rock_grid_rect_2,3,16,-1,-1,0.85,0.112037037,-0.244444444,1,0,0,1.1447,Diorite_rect,3,1.145,1,4,0,4,0,1,,,,,,,,,,,,
57d1d04593d4400001cdc0db,TCR,2024-06-10_12h02.07.717,LearnStrategy,2023.2.3,Win32,59.17159763,4,1,6,-0.005555556,0.007407407,1,0,0,0.681,rock_grid_rect_2,1,03,-1,-1,0.681,-0.367592593,-0.261111111,1,0,0,2.6349,Andesite_rect,1,2.635,1,5,0,5,0,1,,,,,,,,,,,,
57d1d04593d4400001cdc0db,TCR,2024-06-10_12h02.07.717,LearnStrategy,2023.2.3,Win32,59.17159763,4,1,7,-0.000925926,0.002777778,1,0,0,0.7346,rock_grid_rect_2,2,01,-1,-1,0.735,-0.087962963,-0.237962963,1,0,0,1.0415,Basalt_rect,2,1.042,1,6,0,6,0,1,,,,,,,,,,,,
57d1d04593d4400001cdc0db,TCR,2024-06-10_12h02.07.717,LearnStrategy,2023.2.3,Win32,59.17159763,4,1,8,-0.009259259,0.008333333,1,0,0,0.6811,rock_grid_rect_2,2,14,-1,-1,0.681,0.391666667,-0.397222222,1,0,0,2.9682,Pumice_rect,8,2.968,0,7,0,7,0,1,,,,,,,,,,,,
57d1d04593d4400001cdc0db,TCR,2024-06-10_12h02.07.717,LearnStrategy,2023.2.3,Win32,59.17159763,4,1,9,0.017592593,-0.018518519,1,0,0,1.2637,rock_grid_rect_2,2,09,-1,-1,1.264,-0.399074074,-0.268518519,1,0,0,2.9254,Andesite_rect,1,2.925,0,8,0,8,0,1,,,,,,,,,,,,
57d1d04593d4400001cdc0db,TCR,2024-06-10_12h02.07.717,LearnStrategy,2023.2.3,Win32,59.17159763,4,1,10,-0.018518519,0.001851852,1,0,0,0.7182,rock_grid_rect_2,6,08,-1,-1,0.718,-0.085185185,-0.398148148,1,0,0,1.5538,Pegmatite_rect,6,1.554,1,9,0,9,0,1,,,,,,,,,,,,
57d1d04593d4400001cdc0db,TCR,2024-06-10_12h02.07.717,LearnStrategy,2023.2.3,Win32,59.17159763,4,1,11,-0.012037037,-0.008333333,1,0,0,0.7494,rock_grid_rect_2,1,03,-1,-1,0.749,-0.377777778,-0.242592593,1,0,0,2.0911,Andesite_rect,1,2.091,1,10,0,10,0,1,,,,,,,,,,,,
57d1d04593d4400001cdc0db,TCR,2024-06-10_12h02.07.717,LearnStrategy,2023.2.3,Win32,59.17159763,4,1,12,0.037962963,0,1,0,0,0.6154,rock_grid_rect_2,4,01,-1,-1,0.615,0.113888889,-0.393518519,1,0,0,1.3311,Peridotite_rect,7,1.331,0,11,0,11,0,1,,,,,,,,,,,,
57d1d04593d4400001cdc0db,TCR,2024-06-10_12h02.07.717,LearnStrategy,2023.2.3,Win32,59.17159763,4,1,13,-0.030555556,-0.007407407,1,0,0,0.8495,rock_grid_rect_2,1,16,-1,-1,0.85,0.116666667,-0.261111111,1,0,0,2.8616,Diorite_rect,3,2.862,0,12,0,12,0,1,,,,,,,,,,,,
57d1d04593d4400001cdc0db,TCR,2024-06-10_12h02.07.717,LearnStrategy,2023.2.3,Win32,59.17159763,4,1,14,0.025,0.000925926,1,0,0,3.2475,rock_grid_rect_2,7,04,-1,-1,3.248,0.12037037,-0.384259259,1,0,0,1.244,Peridotite_rect,7,1.244,1,13,0,13,0,1,,,,,,,,,,,,
57d1d04593d4400001cdc0db,TCR,2024-06-10_12h02.07.717,LearnStrategy,2023.2.3,Win32,59.17159763,4,1,15,-0.006481481,-0.014814815,1,0,0,0.7856,rock_grid_rect_2,5,09,-1,-1,0.786,-0.409259259,-0.393518519,1,0,0,1.0086,Obsidian_rect,5,1.009,1,14,0,14,0,1,,,,,,,,,,,,
57d1d04593d4400001cdc0db,TCR,2024-06-10_12h02.07.717,LearnStrategy,2023.2.3,Win32,59.17159763,4,1,16,-0.005555556,-0.008333333,1,0,0,0.7822,rock_grid_rect_2,8,10,-1,-1,0.782,0.387037037,-0.387962963,1,0,0,0.9721,Pumice_rect,8,0.972,1,15,0,15,0,1,,,,,,,,,,,,
57d1d04593d4400001cdc0db,TCR,2024-06-10_12h02.07.717,LearnStrategy,2023.2.3,Win32,59.17159763,4,2,1,,,,,,,,6,07,,,,,,,,,,,7,2.678,0,,,,,,0.101851852,-0.387962963,1,0,0,2.6785,Peridotite_rect,0,0,0,0,1
57d1d04593d4400001cdc0db,TCR,2024-06-10_12h02.07.717,LearnStrategy,2023.2.3,Win32,59.17159763,4,2,2,,,,,,,,1,04,,,,,,,,,,,1,4.829,1,,,,,,-0.39537037,-0.256481481,1,0,0,4.8286,Andesite_rect,1,0,1,0,1
57d1d04593d4400001cdc0db,TCR,2024-06-10_12h02.07.717,LearnStrategy,2023.2.3,Win32,59.17159763,4,2,3,,,,,,,,5,11,,,,,,,,,,,5,1.016,1,,,,,,-0.400925926,-0.414814815,1,0,0,1.0159,Obsidian_rect,2,0,2,0,1
57d1d04593d4400001cdc0db,TCR,2024-06-10_12h02.07.717,LearnStrategy,2023.2.3,Win32,59.17159763,4,2,4,,,,,,,,1,09,,,,,,,,,,,1,2.427,1,,,,,,-0.360185185,-0.251851852,1,0,0,2.4269,Andesite_rect,3,0,3,0,1
57d1d04593d4400001cdc0db,TCR,2024-06-10_12h02.07.717,LearnStrategy,2023.2.3,Win32,59.17159763,4,2,5,,,,,,,,2,06,,,,,,,,,,,2,2.641,1,,,,,,-0.127777778,-0.24537037,1,0,0,2.6407,Basalt_rect,4,0,4,0,1
57d1d04593d4400001cdc0db,TCR,2024-06-10_12h02.07.717,LearnStrategy,2023.2.3,Win32,59.17159763,4,2,6,,,,,,,,7,15,,,,,,,,,,,7,1.134,1,,,,,,0.094444444,-0.412962963,1,0,0,1.1342,Peridotite_rect,5,0,5,0,1
57d1d04593d4400001cdc0db,TCR,2024-06-10_12h02.07.717,LearnStrategy,2023.2.3,Win32,59.17159763,4,2,7,,,,,,,,8,04,,,,,,,,,,,8,0.944,1,,,,,,0.349074074,-0.393518519,1,0,0,0.9441,Pumice_rect,6,0,6,0,1
57d1d04593d4400001cdc0db,TCR,2024-06-10_12h02.07.717,LearnStrategy,2023.2.3,Win32,59.17159763,4,2,8,,,,,,,,4,05,,,,,,,,,,,4,4.973,1,,,,,,0.35,-0.25,1,0,0,4.9735,Gabbro_rect,7,0,7,0,1
57d1d04593d4400001cdc0db,TCR,2024-06-10_12h02.07.717,LearnStrategy,2023.2.3,Win32,59.17159763,4,2,9,,,,,,,,2,02,,,,,,,,,,,2,2.02,1,,,,,,-0.162037037,-0.255555556,1,0,0,2.0203,Basalt_rect,8,0,8,0,1
57d1d04593d4400001cdc0db,TCR,2024-06-10_12h02.07.717,LearnStrategy,2023.2.3,Win32,59.17159763,4,2,10,,,,,,,,3,10,,,,,,,,,,,1,1.543,0,,,,,,-0.399074074,-0.262037037,1,0,0,1.5435,Andesite_rect,9,0,9,0,1
57d1d04593d4400001cdc0db,TCR,2024-06-10_12h02.07.717,LearnStrategy,2023.2.3,Win32,59.17159763,4,2,11,,,,,,,,7,13,,,,,,,,,,,7,2.144,1,,,,,,0.12037037,-0.40462963,1,0,0,2.1444,Peridotite_rect,10,0,10,0,1
57d1d04593d4400001cdc0db,TCR,2024-06-10_12h02.07.717,LearnStrategy,2023.2.3,Win32,59.17159763,4,2,12,,,,,,,,4,08,,,,,,,,,,,4,1.576,1,,,,,,0.362962963,-0.250925926,1,0,0,1.5762,Gabbro_rect,11,0,11,0,1
57d1d04593d4400001cdc0db,TCR,2024-06-10_12h02.07.717,LearnStrategy,2023.2.3,Win32,59.17159763,4,2,13,,,,,,,,8,02,,,,,,,,,,,8,1.858,1,,,,,,0.359259259,-0.398148148,1,0,0,1.8578,Pumice_rect,12,0,12,0,1
57d1d04593d4400001cdc0db,TCR,2024-06-10_12h02.07.717,LearnStrategy,2023.2.3,Win32,59.17159763,4,2,14,,,,,,,,5,10,,,,,,,,,,,5,1.129,1,,,,,,-0.434259259,-0.405555556,1,0,0,1.1289,Obsidian_rect,13,0,13,0,1
57d1d04593d4400001cdc0db,TCR,2024-06-10_12h02.07.717,LearnStrategy,2023.2.3,Win32,59.17159763,4,2,15,,,,,,,,6,06,,,,,,,,,,,6,3.606,1,,,,,,-0.124074074,-0.397222222,1,0,0,3.6055,Pegmatite_rect,14,0,14,0,1
57d1d04593d4400001cdc0db,TCR,2024-06-10_12h02.07.717,LearnStrategy,2023.2.3,Win32,59.17159763,4,2,16,,,,,,,,3,13,,,,,,,,,,,3,1.16,1,,,,,,0.133333333,-0.255555556,1,0,0,1.1602,Diorite_rect,15,0,15,0,1
57d1d04593d4400001cdc0db,TCR,2024-06-10_12h02.07.717,LearnStrategy,2023.2.3,Win32,59.17159763,5,1,1,0.075925926,0.006481481,1,0,0,9.4501,rock_grid_rect_2,5,04,-1,-1,9.45,-0.371296296,-0.394444444,1,0,0,2.8476,Obsidian_rect,5,2.848,1,0,0,0,0,1,,,,,,,,,,,,
57d1d04593d4400001cdc0db,TCR,2024-06-10_12h02.07.717,LearnStrategy,2023.2.3,Win32,59.17159763,5,1,2,0.064814815,-0.012962963,1,0,0,0.9309,rock_grid_rect_2,3,06,-1,-1,0.931,0.172222222,-0.262962963,1,0,0,3.2424,Diorite_rect,3,3.242,1,1,0,1,0,1,,,,,,,,,,,,
57d1d04593d4400001cdc0db,TCR,2024-06-10_12h02.07.717,LearnStrategy,2023.2.3,Win32,59.17159763,5,1,3,0.07962963,-0.02037037,1,0,0,0.8309,rock_grid_rect_2,6,11,-1,-1,0.831,-0.080555556,-0.392592593,1,0,0,1.5784,Pegmatite_rect,6,1.578,1,2,0,2,0,1,,,,,,,,,,,,
57d1d04593d4400001cdc0db,TCR,2024-06-10_12h02.07.717,LearnStrategy,2023.2.3,Win32,59.17159763,5,1,4,0.015740741,-0.012037037,1,0,0,0.9676,rock_grid_rect_2,1,02,-1,-1,0.968,-0.413888889,-0.24537037,1,0,0,1.4399,Andesite_rect,1,1.44,1,3,0,3,0,1,,,,,,,,,,,,
57d1d04593d4400001cdc0db,TCR,2024-06-10_12h02.07.717,LearnStrategy,2023.2.3,Win32,59.17159763,5,1,5,0.027777778,-0.016666667,1,0,0,1.3504,rock_grid_rect_2,2,05,-1,-1,1.35,-0.126851852,-0.259259259,1,0,0,1.6062,Basalt_rect,2,1.606,1,4,0,4,0,1,,,,,,,,,,,,
57d1d04593d4400001cdc0db,TCR,2024-06-10_12h02.07.717,LearnStrategy,2023.2.3,Win32,59.17159763,5,1,6,0.030555556,-0.003703704,1,0,0,0.681,rock_grid_rect_2,4,10,-1,-1,0.681,0.409259259,-0.264814815,1,0,0,1.8619,Gabbro_rect,4,1.862,1,5,0,5,0,1,,,,,,,,,,,,
57d1d04593d4400001cdc0db,TCR,2024-06-10_12h02.07.717,LearnStrategy,2023.2.3,Win32,59.17159763,5,1,7,0.013888889,0.003703704,1,0,0,0.7494,rock_grid_rect_2,6,09,-1,-1,0.749,-0.133333333,-0.387037037,1,0,0,2.0151,Pegmatite_rect,6,2.015,1,6,0,6,0,1,,,,,,,,,,,,
57d1d04593d4400001cdc0db,TCR,2024-06-10_12h02.07.717,LearnStrategy,2023.2.3,Win32,59.17159763,5,1,8,0.05,-0.02037037,1,0,0,0.7006,rock_grid_rect_2,7,07,-1,-1,0.701,0.108333333,-0.387962963,1,0,0,1.3968,Peridotite_rect,7,1.397,1,7,0,7,0,1,,,,,,,,,,,,
57d1d04593d4400001cdc0db,TCR,2024-06-10_12h02.07.717,LearnStrategy,2023.2.3,Win32,59.17159763,5,1,9,0.001851852,-0.013888889,1,0,0,0.6818,rock_grid_rect_2,1,16,-1,-1,0.682,-0.421296296,-0.257407407,1,0,0,2.225,Andesite_rect,1,2.225,1,8,0,8,0,1,,,,,,,,,,,,
57d1d04593d4400001cdc0db,TCR,2024-06-10_12h02.07.717,LearnStrategy,2023.2.3,Win32,59.17159763,5,1,10,0.005555556,-0.016666667,1,0,0,1.2317,rock_grid_rect_2,6,12,-1,-1,1.232,-0.124074074,-0.415740741,1,0,0,1.9586,Pegmatite_rect,6,1.959,1,9,0,9,0,1,,,,,,,,,,,,
57d1d04593d4400001cdc0db,TCR,2024-06-10_12h02.07.717,LearnStrategy,2023.2.3,Win32,59.17159763,5,1,11,0.033333333,0.00462963,1,0,0,0.6013,rock_grid_rect_2,2,08,-1,-1,0.601,-0.077777778,-0.260185185,1,0,0,1.2111,Basalt_rect,2,1.211,1,10,0,10,0,1,,,,,,,,,,,,
57d1d04593d4400001cdc0db,TCR,2024-06-10_12h02.07.717,LearnStrategy,2023.2.3,Win32,59.17159763,5,1,12,0.028703704,0.011111111,1,0,0,0.7141,rock_grid_rect_2,3,16,-1,-1,0.714,0.109259259,-0.258333333,1,0,0,1.9116,Diorite_rect,3,1.912,1,11,0,11,0,1,,,,,,,,,,,,
57d1d04593d4400001cdc0db,TCR,2024-06-10_12h02.07.717,LearnStrategy,2023.2.3,Win32,59.17159763,5,1,13,0.02037037,-0.006481481,1,0,0,1.6307,rock_grid_rect_2,3,16,-1,-1,1.631,0.092592593,-0.261111111,1,0,0,1.5878,Diorite_rect,3,1.588,1,12,0,12,0,1,,,,,,,,,,,,
57d1d04593d4400001cdc0db,TCR,2024-06-10_12h02.07.717,LearnStrategy,2023.2.3,Win32,59.17159763,5,1,14,0.030555556,-0.00462963,1,0,0,0.5829,rock_grid_rect_2,8,06,-1,-1,0.583,0.380555556,-0.399074074,1,0,0,1.163,Pumice_rect,8,1.163,1,13,0,13,0,1,,,,,,,,,,,,
57d1d04593d4400001cdc0db,TCR,2024-06-10_12h02.07.717,LearnStrategy,2023.2.3,Win32,59.17159763,5,1,15,0.039814815,-0.014814815,1,0,0,0.8992,rock_grid_rect_2,4,12,-1,-1,0.899,0.474074074,-0.243518519,1,0,0,4.6693,Gabbro_rect,4,4.669,1,14,0,14,0,1,,,,,,,,,,,,
57d1d04593d4400001cdc0db,TCR,2024-06-10_12h02.07.717,LearnStrategy,2023.2.3,Win32,59.17159763,5,1,16,0.059259259,-0.024074074,1,0,0,0.9504,rock_grid_rect_2,1,02,-1,-1,0.95,-0.342592593,-0.252777778,1,0,0,2.8934,Andesite_rect,1,2.893,1,15,0,15,0,1,,,,,,,,,,,,
57d1d04593d4400001cdc0db,TCR,2024-06-10_12h02.07.717,LearnStrategy,2023.2.3,Win32,59.17159763,5,2,1,,,,,,,,6,13,,,,,,,,,,,6,2.639,1,,,,,,-0.133333333,-0.414814815,1,0,0,2.6394,Pegmatite_rect,0,0,0,0,1
57d1d04593d4400001cdc0db,TCR,2024-06-10_12h02.07.717,LearnStrategy,2023.2.3,Win32,59.17159763,5,2,2,,,,,,,,4,09,,,,,,,,,,,4,5.929,1,,,,,,0.360185185,-0.249074074,1,0,0,5.929,Gabbro_rect,1,0,1,0,1
57d1d04593d4400001cdc0db,TCR,2024-06-10_12h02.07.717,LearnStrategy,2023.2.3,Win32,59.17159763,5,2,3,,,,,,,,7,05,,,,,,,,,,,7,1.821,1,,,,,,0.102777778,-0.394444444,1,0,0,1.8208,Peridotite_rect,2,0,2,0,1
57d1d04593d4400001cdc0db,TCR,2024-06-10_12h02.07.717,LearnStrategy,2023.2.3,Win32,59.17159763,5,2,4,,,,,,,,2,11,,,,,,,,,,,2,8.368,1,,,,,,-0.158333333,-0.265740741,1,0,0,8.3677,Basalt_rect,3,0,3,0,1
57d1d04593d4400001cdc0db,TCR,2024-06-10_12h02.07.717,LearnStrategy,2023.2.3,Win32,59.17159763,5,2,5,,,,,,,,5,12,,,,,,,,,,,5,1.102,1,,,,,,-0.378703704,-0.390740741,1,0,0,1.1016,Obsidian_rect,4,0,4,0,1
57d1d04593d4400001cdc0db,TCR,2024-06-10_12h02.07.717,LearnStrategy,2023.2.3,Win32,59.17159763,5,2,6,,,,,,,,3,15,,,,,,,,,,,3,1.507,1,,,,,,0.099074074,-0.240740741,1,0,0,1.5072,Diorite_rect,5,0,5,0,1
57d1d04593d4400001cdc0db,TCR,2024-06-10_12h02.07.717,LearnStrategy,2023.2.3,Win32,59.17159763,5,2,7,,,,,,,,3,11,,,,,,,,,,,3,1.142,1,,,,,,0.099074074,-0.240740741,1,0,0,1.1415,Diorite_rect,6,0,6,0,1
57d1d04593d4400001cdc0db,TCR,2024-06-10_12h02.07.717,LearnStrategy,2023.2.3,Win32,59.17159763,5,2,8,,,,,,,,4,14,,,,,,,,,,,4,1.874,1,,,,,,0.368518519,-0.267592593,1,0,0,1.8735,Gabbro_rect,7,0,7,0,1
57d1d04593d4400001cdc0db,TCR,2024-06-10_12h02.07.717,LearnStrategy,2023.2.3,Win32,59.17159763,5,2,9,,,,,,,,1,07,,,,,,,,,,,1,2.593,1,,,,,,-0.355555556,-0.238888889,1,0,0,2.5934,Andesite_rect,8,0,8,0,1
57d1d04593d4400001cdc0db,TCR,2024-06-10_12h02.07.717,LearnStrategy,2023.2.3,Win32,59.17159763,5,2,10,,,,,,,,6,10,,,,,,,,,,,7,6.543,0,,,,,,0.096296296,-0.39537037,1,0,0,6.5427,Peridotite_rect,9,0,9,0,1
57d1d04593d4400001cdc0db,TCR,2024-06-10_12h02.07.717,LearnStrategy,2023.2.3,Win32,59.17159763,5,2,11,,,,,,,,7,02,,,,,,,,,,,7,1.204,1,,,,,,0.096296296,-0.39537037,1,0,0,1.2038,Peridotite_rect,10,0,10,0,1
57d1d04593d4400001cdc0db,TCR,2024-06-10_12h02.07.717,LearnStrategy,2023.2.3,Win32,59.17159763,5,2,12,,,,,,,,1,11,,,,,,,,,,,1,1.326,1,,,,,,-0.336111111,-0.236111111,1,0,0,1.3256,Andesite_rect,11,0,11,0,1
57d1d04593d4400001cdc0db,TCR,2024-06-10_12h02.07.717,LearnStrategy,2023.2.3,Win32,59.17159763,5,2,13,,,,,,,,8,09,,,,,,,,,,,8,0.941,1,,,,,,0.413888889,-0.403703704,1,0,0,0.941,Pumice_rect,12,0,12,0,1
57d1d04593d4400001cdc0db,TCR,2024-06-10_12h02.07.717,LearnStrategy,2023.2.3,Win32,59.17159763,5,2,14,,,,,,,,5,06,,,,,,,,,,,5,0.997,1,,,,,,-0.430555556,-0.384259259,1,0,0,0.9969,Obsidian_rect,13,0,13,0,1
57d1d04593d4400001cdc0db,TCR,2024-06-10_12h02.07.717,LearnStrategy,2023.2.3,Win32,59.17159763,5,2,15,,,,,,,,8,14,,,,,,,,,,,8,0.81,1,,,,,,0.348148148,-0.390740741,1,0,0,0.8097,Pumice_rect,14,0,14,0,1
57d1d04593d4400001cdc0db,TCR,2024-06-10_12h02.07.717,LearnStrategy,2023.2.3,Win32,59.17159763,5,2,16,,,,,,,,2,04,,,,,,,,,,,2,2.966,1,,,,,,-0.111111111,-0.236111111,1,0,0,2.9656,Basalt_rect,15,0,15,0,1
57d1d04593d4400001cdc0db,TCR,2024-06-10_12h02.07.717,LearnStrategy,2023.2.3,Win32,59.17159763,6,1,1,0.028703704,0.011111111,1,0,0,1.4314,rock_grid_rect_2,6,08,-1,-1,1.431,-0.094444444,-0.405555556,1,0,0,3.2496,Pegmatite_rect,6,3.25,1,0,0,0,0,1,,,,,,,,,,,,
57d1d04593d4400001cdc0db,TCR,2024-06-10_12h02.07.717,LearnStrategy,2023.2.3,Win32,59.17159763,6,1,2,0.016666667,-0.005555556,1,0,0,0.9473,rock_grid_rect_2,4,12,-1,-1,0.947,-0.333333333,-0.253703704,1,0,0,2.6962,Andesite_rect,1,2.696,0,1,0,1,0,1,,,,,,,,,,,,
57d1d04593d4400001cdc0db,TCR,2024-06-10_12h02.07.717,LearnStrategy,2023.2.3,Win32,59.17159763,6,1,3,0.022222222,-0.014814815,1,0,0,0.9162,rock_grid_rect_2,8,06,-1,-1,0.916,0.367592593,-0.415740741,1,0,0,0.8746,Pumice_rect,8,0.875,1,2,0,2,0,1,,,,,,,,,,,,
57d1d04593d4400001cdc0db,TCR,2024-06-10_12h02.07.717,LearnStrategy,2023.2.3,Win32,59.17159763,6,1,4,-0.000925926,-0.005555556,1,0,0,0.6492,rock_grid_rect_2,3,02,-1,-1,0.649,0.119444444,-0.262037037,1,0,0,1.7769,Diorite_rect,3,1.777,1,3,0,3,0,1,,,,,,,,,,,,
57d1d04593d4400001cdc0db,TCR,2024-06-10_12h02.07.717,LearnStrategy,2023.2.3,Win32,59.17159763,6,1,5,0.027777778,0.002777778,1,0,0,0.7138,rock_grid_rect_2,1,03,-1,-1,0.714,-0.419444444,-0.232407407,1,0,0,1.1818,Andesite_rect,1,1.182,1,4,0,4,0,1,,,,,,,,,,,,
57d1d04593d4400001cdc0db,TCR,2024-06-10_12h02.07.717,LearnStrategy,2023.2.3,Win32,59.17159763,6,1,6,0.062962963,-0.008333333,1,0,0,0.7306,rock_grid_rect_2,6,12,-1,-1,0.731,-0.101851852,-0.392592593,1,0,0,2.2118,Pegmatite_rect,6,2.212,1,5,0,5,0,1,,,,,,,,,,,,
57d1d04593d4400001cdc0db,TCR,2024-06-10_12h02.07.717,LearnStrategy,2023.2.3,Win32,59.17159763,6,1,7,0.018518519,-0.009259259,1,0,0,0.669,rock_grid_rect_2,1,16,-1,-1,0.669,-0.364814815,-0.259259259,1,0,0,1.8392,Andesite_rect,1,1.839,1,6,0,6,0,1,,,,,,,,,,,,
57d1d04593d4400001cdc0db,TCR,2024-06-10_12h02.07.717,LearnStrategy,2023.2.3,Win32,59.17159763,6,1,8,0.009259259,-0.013888889,1,0,0,0.7469,rock_grid_rect_2,5,05,-1,-1,0.747,-0.344444444,-0.406481481,1,0,0,2.5202,Obsidian_rect,5,2.52,1,7,0,7,0,1,,,,,,,,,,,,
57d1d04593d4400001cdc0db,TCR,2024-06-10_12h02.07.717,LearnStrategy,2023.2.3,Win32,59.17159763,6,1,9,0.038888889,-0.017592593,1,0,0,0.8815,rock_grid_rect_2,2,12,-1,-1,0.882,-0.132407407,-0.248148148,1,0,0,2.4267,Basalt_rect,2,2.427,1,8,0,8,0,1,,,,,,,,,,,,
57d1d04593d4400001cdc0db,TCR,2024-06-10_12h02.07.717,LearnStrategy,2023.2.3,Win32,59.17159763,6,1,10,0.066666667,-0.010185185,1,0,0,0.598,rock_grid_rect_2,3,08,-1,-1,0.598,0.106481481,-0.246296296,1,0,0,0.9302,Diorite_rect,3,0.93,1,9,0,9,0,1,,,,,,,,,,,,
57d1d04593d4400001cdc0db,TCR,2024-06-10_12h02.07.717,LearnStrategy,2023.2.3,Win32,59.17159763,6,1,11,0.012037037,-0.015740741,1,0,0,0.7822,rock_grid_rect_2,2,01,-1,-1,0.782,-0.14537037,-0.243518519,1,0,0,1.093,Basalt_rect,2,1.093,1,10,0,10,0,1,,,,,,,,,,,,
57d1d04593d4400001cdc0db,TCR,2024-06-10_12h02.07.717,LearnStrategy,2023.2.3,Win32,59.17159763,6,1,12,0.044444444,-0.018518519,1,0,0,0.9669,rock_grid_rect_2,6,09,-1,-1,0.967,-0.092592593,-0.392592593,1,0,0,1.8613,Pegmatite_rect,6,1.861,1,11,0,11,0,1,,,,,,,,,,,,
57d1d04593d4400001cdc0db,TCR,2024-06-10_12h02.07.717,LearnStrategy,2023.2.3,Win32,59.17159763,6,1,13,0.052777778,-0.00462963,1,0,0,0.6841,rock_grid_rect_2,6,08,-1,-1,0.684,-0.131481481,-0.385185185,1,0,0,1.5304,Pegmatite_rect,6,1.53,1,12,0,12,0,1,,,,,,,,,,,,
57d1d04593d4400001cdc0db,TCR,2024-06-10_12h02.07.717,LearnStrategy,2023.2.3,Win32,59.17159763,6,1,14,0.033333333,0.014814815,1,0,0,0.5307,rock_grid_rect_2,4,01,-1,-1,0.531,-0.412962963,-0.247222222,1,0,0,1.4615,Andesite_rect,1,1.462,0,13,0,13,0,1,,,,,,,,,,,,
57d1d04593d4400001cdc0db,TCR,2024-06-10_12h02.07.717,LearnStrategy,2023.2.3,Win32,59.17159763,6,1,15,0.009259259,-0.013888889,1,0,0,0.8155,rock_grid_rect_2,1,16,-1,-1,0.815,-0.384259259,-0.260185185,1,0,0,1.0083,Andesite_rect,1,1.008,1,14,0,14,0,1,,,,,,,,,,,,
57d1d04593d4400001cdc0db,TCR,2024-06-10_12h02.07.717,LearnStrategy,2023.2.3,Win32,59.17159763,6,1,16,0.023148148,-0.008333333,1,0,0,0.5975,rock_grid_rect_2,7,10,-1,-1,0.597,0.112962963,-0.387962963,1,0,0,1.6607,Peridotite_rect,7,1.661,1,15,0,15,0,1,,,,,,,,,,,,
57d1d04593d4400001cdc0db,TCR,2024-06-10_12h02.07.717,LearnStrategy,2023.2.3,Win32,59.17159763,6,2,1,,,,,,,,7,06,,,,,,,,,,,7,3.958,1,,,,,,0.113888889,-0.406481481,1,0,0,3.9578,Peridotite_rect,0,0,0,0,1
57d1d04593d4400001cdc0db,TCR,2024-06-10_12h02.07.717,LearnStrategy,2023.2.3,Win32,59.17159763,6,2,2,,,,,,,,3,09,,,,,,,,,,,3,2.036,1,,,,,,0.111111111,-0.258333333,1,0,0,2.0359,Diorite_rect,1,0,1,0,1
57d1d04593d4400001cdc0db,TCR,2024-06-10_12h02.07.717,LearnStrategy,2023.2.3,Win32,59.17159763,6,2,3,,,,,,,,6,15,,,,,,,,,,,6,1.069,1,,,,,,-0.066666667,-0.393518519,1,0,0,1.0692,Pegmatite_rect,2,0,2,0,1
57d1d04593d4400001cdc0db,TCR,2024-06-10_12h02.07.717,LearnStrategy,2023.2.3,Win32,59.17159763,6,2,4,,,,,,,,5,14,,,,,,,,,,,5,1.147,1,,,,,,-0.347222222,-0.387037037,1,0,0,1.1468,Obsidian_rect,3,0,3,0,1
57d1d04593d4400001cdc0db,TCR,2024-06-10_12h02.07.717,LearnStrategy,2023.2.3,Win32,59.17159763,6,2,5,,,,,,,,5,07,,,,,,,,,,,5,0.944,1,,,,,,-0.364814815,-0.387037037,1,0,0,0.9441,Obsidian_rect,4,0,4,0,1
57d1d04593d4400001cdc0db,TCR,2024-06-10_12h02.07.717,LearnStrategy,2023.2.3,Win32,59.17159763,6,2,6,,,,,,,,1,05,,,,,,,,,,,1,3.9,1,,,,,,-0.35462963,-0.258333333,1,0,0,3.9002,Andesite_rect,5,0,5,0,1
57d1d04593d4400001cdc0db,TCR,2024-06-10_12h02.07.717,LearnStrategy,2023.2.3,Win32,59.17159763,6,2,7,,,,,,,,8,03,,,,,,,,,,,8,1.201,1,,,,,,0.427777778,-0.398148148,1,0,0,1.2013,Pumice_rect,6,0,6,0,1
57d1d04593d4400001cdc0db,TCR,2024-06-10_12h02.07.717,LearnStrategy,2023.2.3,Win32,59.17159763,6,2,8,,,,,,,,4,11,,,,,,,,,,,2,1.36,0,,,,,,-0.074074074,-0.239814815,1,0,0,1.3597,Basalt_rect,7,0,7,0,1
57d1d04593d4400001cdc0db,TCR,2024-06-10_12h02.07.717,LearnStrategy,2023.2.3,Win32,59.17159763,6,2,9,,,,,,,,2,10,,,,,,,,,,,2,1.229,1,,,,,,-0.119444444,-0.255555556,1,0,0,1.2288,Basalt_rect,8,0,8,0,1
57d1d04593d4400001cdc0db,TCR,2024-06-10_12h02.07.717,LearnStrategy,2023.2.3,Win32,59.17159763,6,2,10,,,,,,,,3,07,,,,,,,,,,,3,1.325,1,,,,,,0.113888889,-0.262962963,1,0,0,1.3246,Diorite_rect,9,0,9,0,1
57d1d04593d4400001cdc0db,TCR,2024-06-10_12h02.07.717,LearnStrategy,2023.2.3,Win32,59.17159763,6,2,11,,,,,,,,2,16,,,,,,,,,,,4,1.811,0,,,,,,0.380555556,-0.263888889,1,0,0,1.8106,Gabbro_rect,10,0,10,0,1
57d1d04593d4400001cdc0db,TCR,2024-06-10_12h02.07.717,LearnStrategy,2023.2.3,Win32,59.17159763,6,2,12,,,,,,,,6,05,,,,,,,,,,,6,3.34,1,,,,,,-0.110185185,-0.40462963,1,0,0,3.3402,Pegmatite_rect,11,0,11,0,1
57d1d04593d4400001cdc0db,TCR,2024-06-10_12h02.07.717,LearnStrategy,2023.2.3,Win32,59.17159763,6,2,13,,,,,,,,4,03,,,,,,,,,,,4,1.552,1,,,,,,0.356481481,-0.253703704,1,0,0,1.5521,Gabbro_rect,12,0,12,0,1
57d1d04593d4400001cdc0db,TCR,2024-06-10_12h02.07.717,LearnStrategy,2023.2.3,Win32,59.17159763,6,2,14,,,,,,,,7,08,,,,,,,,,,,7,1.364,1,,,,,,0.134259259,-0.400925926,1,0,0,1.3637,Peridotite_rect,13,0,13,0,1
57d1d04593d4400001cdc0db,TCR,2024-06-10_12h02.07.717,LearnStrategy,2023.2.3,Win32,59.17159763,6,2,15,,,,,,,,8,08,,,,,,,,,,,8,0.945,1,,,,,,0.341666667,-0.407407407,1,0,0,0.9448,Pumice_rect,14,0,14,0,1
57d1d04593d4400001cdc0db,TCR,2024-06-10_12h02.07.717,LearnStrategy,2023.2.3,Win32,59.17159763,6,2,16,,,,,,,,1,06,,,,,,,,,,,1,1.77,1,,,,,,-0.356481481,-0.237962963,1,0,0,1.77,Andesite_rect,15,0,15,0,1
57d1d04593d4400001cdc0db,TCR,2024-06-10_12h02.07.717,LearnStrategy,2023.2.3,Win32,59.17159763,7,1,1,0.1,-0.007407407,1,0,0,1.0651,rock_grid_rect_2,3,08,-1,-1,1.065,0.185185185,-0.258333333,1,0,0,2.6113,Diorite_rect,3,2.611,1,0,0,0,0,1,,,,,,,,,,,,
57d1d04593d4400001cdc0db,TCR,2024-06-10_12h02.07.717,LearnStrategy,2023.2.3,Win32,59.17159763,7,1,2,0.013888889,-0.013888889,1,0,0,0.7824,rock_grid_rect_2,4,15,-1,-1,0.782,0.42037037,-0.259259259,1,0,0,3.4298,Gabbro_rect,4,3.43,1,1,0,1,0,1,,,,,,,,,,,,
57d1d04593d4400001cdc0db,TCR,2024-06-10_12h02.07.717,LearnStrategy,2023.2.3,Win32,59.17159763,7,1,3,0.075925926,-0.013888889,1,0,0,0.766,rock_grid_rect_2,6,11,-1,-1,0.766,-0.112037037,-0.4,1,0,0,36.6752,Pegmatite_rect,6,36.675,1,2,0,2,0,1,,,,,,,,,,,,
57d1d04593d4400001cdc0db,TCR,2024-06-10_12h02.07.717,LearnStrategy,2023.2.3,Win32,59.17159763,7,1,4,0.00462963,-0.017592593,1,0,0,1.0003,rock_grid_rect_2,7,04,-1,-1,1,0.109259259,-0.387037037,1,0,0,1.2124,Peridotite_rect,7,1.212,1,3,0,3,0,1,,,,,,,,,,,,
57d1d04593d4400001cdc0db,TCR,2024-06-10_12h02.07.717,LearnStrategy,2023.2.3,Win32,59.17159763,7,1,5,0.042592593,-0.011111111,1,0,0,0.5327,rock_grid_rect_2,2,09,-1,-1,0.533,-0.167592593,-0.249074074,1,0,0,0.9762,Basalt_rect,2,0.976,1,4,0,4,0,1,,,,,,,,,,,,
57d1d04593d4400001cdc0db,TCR,2024-06-10_12h02.07.717,LearnStrategy,2023.2.3,Win32,59.17159763,7,1,6,0.047222222,-0.025,1,0,0,0.6153,rock_grid_rect_2,4,10,-1,-1,0.615,0.309259259,-0.251851852,1,0,0,1.4273,Gabbro_rect,4,1.427,1,5,0,5,0,1,,,,,,,,,,,,
57d1d04593d4400001cdc0db,TCR,2024-06-10_12h02.07.717,LearnStrategy,2023.2.3,Win32,59.17159763,7,1,7,-0.024074074,-0.010185185,1,0,0,0.7186,rock_grid_rect_2,2,14,-1,-1,0.719,0.319444444,-0.249074074,1,0,0,2.3416,Gabbro_rect,4,2.342,0,6,0,6,0,1,,,,,,,,,,,,
57d1d04593d4400001cdc0db,TCR,2024-06-10_12h02.07.717,LearnStrategy,2023.2.3,Win32,59.17159763,7,1,8,0.024074074,0.02037037,1,0,0,1.1151,rock_grid_rect_2,5,02,-1,-1,1.115,-0.447222222,-0.398148148,1,0,0,2.0765,Obsidian_rect,5,2.076,1,7,0,7,0,1,,,,,,,,,,,,
57d1d04593d4400001cdc0db,TCR,2024-06-10_12h02.07.717,LearnStrategy,2023.2.3,Win32,59.17159763,7,1,9,-0.002777778,-0.019444444,1,0,0,0.5488,rock_grid_rect_2,3,02,-1,-1,0.549,0.117592593,-0.253703704,1,0,0,1.3285,Diorite_rect,3,1.329,1,8,0,8,0,1,,,,,,,,,,,,
57d1d04593d4400001cdc0db,TCR,2024-06-10_12h02.07.717,LearnStrategy,2023.2.3,Win32,59.17159763,7,1,10,0.035185185,-0.02037037,1,0,0,0.5976,rock_grid_rect_2,1,01,-1,-1,0.598,-0.102777778,-0.269444444,1,0,0,5.1191,Basalt_rect,2,5.119,0,9,0,9,0,1,,,,,,,,,,,,
57d1d04593d4400001cdc0db,TCR,2024-06-10_12h02.07.717,LearnStrategy,2023.2.3,Win32,59.17159763,7,1,11,0.007407407,0.001851852,1,0,0,1.2636,rock_grid_rect_2,2,05,-1,-1,1.264,-0.106481481,-0.260185185,1,0,0,2.6122,Basalt_rect,2,2.612,1,10,0,10,0,1,,,,,,,,,,,,
57d1d04593d4400001cdc0db,TCR,2024-06-10_12h02.07.717,LearnStrategy,2023.2.3,Win32,59.17159763,7,1,12,0.02037037,0,1,0,0,1.2658,rock_grid_rect_2,8,15,-1,-1,1.266,0.377777778,-0.412962963,1,0,0,1.1432,Pumice_rect,8,1.143,1,11,0,11,0,1,,,,,,,,,,,,
57d1d04593d4400001cdc0db,TCR,2024-06-10_12h02.07.717,LearnStrategy,2023.2.3,Win32,59.17159763,7,1,13,0.025925926,0.001851852,1,0,0,0.9657,rock_grid_rect_2,6,11,-1,-1,0.966,-0.105555556,-0.388888889,1,0,0,1.0768,Pegmatite_rect,6,1.077,1,12,0,12,0,1,,,,,,,,,,,,
57d1d04593d4400001cdc0db,TCR,2024-06-10_12h02.07.717,LearnStrategy,2023.2.3,Win32,59.17159763,7,1,14,0.025,-0.010185185,1,0,0,0.6489,rock_grid_rect_2,1,10,-1,-1,0.649,-0.346296296,-0.267592593,1,0,0,1.2128,Andesite_rect,1,1.213,1,13,0,13,0,1,,,,,,,,,,,,
57d1d04593d4400001cdc0db,TCR,2024-06-10_12h02.07.717,LearnStrategy,2023.2.3,Win32,59.17159763,7,1,15,0.023148148,0.008333333,1,0,0,0.6981,rock_grid_rect_2,6,16,-1,-1,0.698,-0.090740741,-0.400925926,1,0,0,0.945,Pegmatite_rect,6,0.945,1,14,0,14,0,1,,,,,,,,,,,,
57d1d04593d4400001cdc0db,TCR,2024-06-10_12h02.07.717,LearnStrategy,2023.2.3,Win32,59.17159763,7,1,16,0.02037037,-0.013888889,1,0,0,0.548,rock_grid_rect_2,4,10,-1,-1,0.548,0.365740741,-0.256481481,1,0,0,1.8636,Gabbro_rect,4,1.864,1,15,0,15,0,1,,,,,,,,,,,,
57d1d04593d4400001cdc0db,TCR,2024-06-10_12h02.07.717,LearnStrategy,2023.2.3,Win32,59.17159763,7,2,1,,,,,,,,7,15,,,,,,,,,,,7,60.728,1,,,,,,0.208333333,-0.384259259,1,0,0,60.7279,Peridotite_rect,0,0,0,0,1
57d1d04593d4400001cdc0db,TCR,2024-06-10_12h02.07.717,LearnStrategy,2023.2.3,Win32,59.17159763,7,2,2,,,,,,,,1,06,,,,,,,,,,,1,1.203,1,,,,,,-0.425925926,-0.228703704,1,0,0,1.2031,Andesite_rect,1,0,1,0,1
57d1d04593d4400001cdc0db,TCR,2024-06-10_12h02.07.717,LearnStrategy,2023.2.3,Win32,59.17159763,7,2,3,,,,,,,,4,09,,,,,,,,,,,4,1.563,1,,,,,,0.410185185,-0.268518519,1,0,0,1.5633,Gabbro_rect,2,0,2,0,1
57d1d04593d4400001cdc0db,TCR,2024-06-10_12h02.07.717,LearnStrategy,2023.2.3,Win32,59.17159763,7,2,4,,,,,,,,5,14,,,,,,,,,,,5,1.146,1,,,,,,-0.390740741,-0.380555556,1,0,0,1.146,Obsidian_rect,3,0,3,0,1
57d1d04593d4400001cdc0db,TCR,2024-06-10_12h02.07.717,LearnStrategy,2023.2.3,Win32,59.17159763,7,2,5,,,,,,,,2,06,,,,,,,,,,,2,1.158,1,,,,,,-0.10462963,-0.264814815,1,0,0,1.1579,Basalt_rect,4,0,4,0,1
57d1d04593d4400001cdc0db,TCR,2024-06-10_12h02.07.717,LearnStrategy,2023.2.3,Win32,59.17159763,7,2,6,,,,,,,,5,10,,,,,,,,,,,5,1.011,1,,,,,,-0.389814815,-0.398148148,1,0,0,1.0106,Obsidian_rect,5,0,5,0,1
57d1d04593d4400001cdc0db,TCR,2024-06-10_12h02.07.717,LearnStrategy,2023.2.3,Win32,59.17159763,7,2,7,,,,,,,,6,13,,,,,,,,,,,6,3.398,1,,,,,,-0.109259259,-0.398148148,1,0,0,3.398,Pegmatite_rect,6,0,6,0,1
57d1d04593d4400001cdc0db,TCR,2024-06-10_12h02.07.717,LearnStrategy,2023.2.3,Win32,59.17159763,7,2,8,,,,,,,,3,13,,,,,,,,,,,3,1.038,1,,,,,,0.088888889,-0.256481481,1,0,0,1.0384,Diorite_rect,7,0,7,0,1
57d1d04593d4400001cdc0db,TCR,2024-06-10_12h02.07.717,LearnStrategy,2023.2.3,Win32,59.17159763,7,2,9,,,,,,,,8,14,,,,,,,,,,,8,1.179,1,,,,,,0.362037037,-0.394444444,1,0,0,1.1789,Pumice_rect,8,0,8,0,1
57d1d04593d4400001cdc0db,TCR,2024-06-10_12h02.07.717,LearnStrategy,2023.2.3,Win32,59.17159763,7,2,10,,,,,,,,1,11,,,,,,,,,,,1,1.376,1,,,,,,-0.35462963,-0.246296296,1,0,0,1.3763,Andesite_rect,9,0,9,0,1
57d1d04593d4400001cdc0db,TCR,2024-06-10_12h02.07.717,LearnStrategy,2023.2.3,Win32,59.17159763,7,2,11,,,,,,,,4,08,,,,,,,,,,,4,2.042,1,,,,,,0.390740741,-0.259259259,1,0,0,2.0419,Gabbro_rect,10,0,10,0,1
57d1d04593d4400001cdc0db,TCR,2024-06-10_12h02.07.717,LearnStrategy,2023.2.3,Win32,59.17159763,7,2,12,,,,,,,,8,08,,,,,,,,,,,8,1.179,1,,,,,,0.4,-0.385185185,1,0,0,1.1787,Pumice_rect,11,0,11,0,1
57d1d04593d4400001cdc0db,TCR,2024-06-10_12h02.07.717,LearnStrategy,2023.2.3,Win32,59.17159763,7,2,13,,,,,,,,7,06,,,,,,,,,,,7,3.193,1,,,,,,0.138888889,-0.393518519,1,0,0,3.1927,Peridotite_rect,12,0,12,0,1
57d1d04593d4400001cdc0db,TCR,2024-06-10_12h02.07.717,LearnStrategy,2023.2.3,Win32,59.17159763,7,2,14,,,,,,,,3,11,,,,,,,,,,,3,1.262,1,,,,,,0.141666667,-0.266666667,1,0,0,1.2616,Diorite_rect,13,0,13,0,1
57d1d04593d4400001cdc0db,TCR,2024-06-10_12h02.07.717,LearnStrategy,2023.2.3,Win32,59.17159763,7,2,15,,,,,,,,6,10,,,,,,,,,,,7,2.94,0,,,,,,0.114814815,-0.408333333,1,0,0,2.9405,Peridotite_rect,14,0,14,0,1
57d1d04593d4400001cdc0db,TCR,2024-06-10_12h02.07.717,LearnStrategy,2023.2.3,Win32,59.17159763,7,2,16,,,,,,,,2,10,,,,,,,,,,,2,1.955,1,,,,,,-0.114814815,-0.258333333,1,0,0,1.955,Basalt_rect,15,0,15,0,1
57d1d04593d4400001cdc0db,TCR,2024-06-10_12h02.07.717,LearnStrategy,2023.2.3,Win32,59.17159763,8,1,1,-0.034259259,0.001851852,1,0,0,1.3326,rock_grid_rect_2,6,11,-1,-1,1.333,-0.115740741,-0.400925926,1,0,0,1.9604,Pegmatite_rect,6,1.96,1,0,0,0,0,1,,,,,,,,,,,,
57d1d04593d4400001cdc0db,TCR,2024-06-10_12h02.07.717,LearnStrategy,2023.2.3,Win32,59.17159763,8,1,2,-0.017592593,0.00462963,1,0,0,0.9014,rock_grid_rect_2,7,10,-1,-1,0.901,0.090740741,-0.382407407,1,0,0,1.0616,Peridotite_rect,7,1.062,1,1,0,1,0,1,,,,,,,,,,,,
57d1d04593d4400001cdc0db,TCR,2024-06-10_12h02.07.717,LearnStrategy,2023.2.3,Win32,59.17159763,8,1,3,-0.014814815,-0.017592593,1,0,0,0.7464,rock_grid_rect_2,8,10,-1,-1,0.746,0.325925926,-0.387037037,1,0,0,3.8101,Pumice_rect,8,3.81,1,2,0,2,0,1,,,,,,,,,,,,
57d1d04593d4400001cdc0db,TCR,2024-06-10_12h02.07.717,LearnStrategy,2023.2.3,Win32,59.17159763,8,1,4,0.009259259,0.008333333,1,0,0,0.7814,rock_grid_rect_2,3,02,-1,-1,0.781,0.106481481,-0.232407407,1,0,0,0.9624,Diorite_rect,3,0.962,1,3,0,3,0,1,,,,,,,,,,,,
57d1d04593d4400001cdc0db,TCR,2024-06-10_12h02.07.717,LearnStrategy,2023.2.3,Win32,59.17159763,8,1,5,0.012962963,-0.00462963,1,0,0,0.5491,rock_grid_rect_2,3,12,-1,-1,0.549,0.127777778,-0.231481481,1,0,0,1.1766,Diorite_rect,3,1.177,1,4,0,4,0,1,,,,,,,,,,,,
57d1d04593d4400001cdc0db,TCR,2024-06-10_12h02.07.717,LearnStrategy,2023.2.3,Win32,59.17159763,8,1,6,0.050925926,0.005555556,1,0,0,1.0191,rock_grid_rect_2,4,13,-1,-1,1.019,0.405555556,-0.260185185,1,0,0,1.6935,Gabbro_rect,4,1.693,1,5,0,5,0,1,,,,,,,,,,,,
57d1d04593d4400001cdc0db,TCR,2024-06-10_12h02.07.717,LearnStrategy,2023.2.3,Win32,59.17159763,8,1,7,0.043518519,-0.006481481,1,0,0,0.7338,rock_grid_rect_2,6,03,-1,-1,0.734,-0.109259259,-0.405555556,1,0,0,2.2434,Pegmatite_rect,6,2.243,1,6,0,6,0,1,,,,,,,,,,,,
57d1d04593d4400001cdc0db,TCR,2024-06-10_12h02.07.717,LearnStrategy,2023.2.3,Win32,59.17159763,8,1,8,0.023148148,-0.02037037,1,0,0,1.0145,rock_grid_rect_2,2,05,-1,-1,1.014,-0.110185185,-0.244444444,1,0,0,1.4975,Basalt_rect,2,1.498,1,7,0,7,0,1,,,,,,,,,,,,
57d1d04593d4400001cdc0db,TCR,2024-06-10_12h02.07.717,LearnStrategy,2023.2.3,Win32,59.17159763,8,1,9,0.040740741,0.008333333,1,0,0,0.582,rock_grid_rect_2,5,09,-1,-1,0.582,-0.421296296,-0.400925926,1,0,0,1.9789,Obsidian_rect,5,1.979,1,8,0,8,0,1,,,,,,,,,,,,
57d1d04593d4400001cdc0db,TCR,2024-06-10_12h02.07.717,LearnStrategy,2023.2.3,Win32,59.17159763,8,1,10,0.028703704,-0.009259259,1,0,0,1.1298,rock_grid_rect_2,4,12,-1,-1,1.13,0.415740741,-0.260185185,1,0,0,2.0186,Gabbro_rect,4,2.019,1,9,0,9,0,1,,,,,,,,,,,,
57d1d04593d4400001cdc0db,TCR,2024-06-10_12h02.07.717,LearnStrategy,2023.2.3,Win32,59.17159763,8,1,11,0.057407407,0.003703704,1,0,0,0.8332,rock_grid_rect_2,6,12,-1,-1,0.833,-0.115740741,-0.39537037,1,0,0,1.1761,Pegmatite_rect,6,1.176,1,10,0,10,0,1,,,,,,,,,,,,
57d1d04593d4400001cdc0db,TCR,2024-06-10_12h02.07.717,LearnStrategy,2023.2.3,Win32,59.17159763,8,1,12,0.035185185,-0.012037037,1,0,0,0.6469,rock_grid_rect_2,1,10,-1,-1,0.647,-0.422222222,-0.25462963,1,0,0,2.6842,Andesite_rect,1,2.684,1,11,0,11,0,1,,,,,,,,,,,,
57d1d04593d4400001cdc0db,TCR,2024-06-10_12h02.07.717,LearnStrategy,2023.2.3,Win32,59.17159763,8,1,13,0.016666667,-0.009259259,1,0,0,0.7299,rock_grid_rect_2,2,08,-1,-1,0.73,-0.112037037,-0.264814815,1,0,0,1.2113,Basalt_rect,2,1.211,1,12,0,12,0,1,,,,,,,,,,,,
57d1d04593d4400001cdc0db,TCR,2024-06-10_12h02.07.717,LearnStrategy,2023.2.3,Win32,59.17159763,8,1,14,0.036111111,-0.012962963,1,0,0,1.2156,rock_grid_rect_2,2,12,-1,-1,1.216,0.388888889,-0.243518519,1,0,0,4.518,Gabbro_rect,4,4.518,0,13,0,13,0,1,,,,,,,,,,,,
57d1d04593d4400001cdc0db,TCR,2024-06-10_12h02.07.717,LearnStrategy,2023.2.3,Win32,59.17159763,8,1,15,0.087962963,0.02037037,1,0,0,0.9808,rock_grid_rect_2,6,08,-1,-1,0.981,-0.084259259,-0.412962963,1,0,0,1.0955,Pegmatite_rect,6,1.096,1,14,0,14,0,1,,,,,,,,,,,,
57d1d04593d4400001cdc0db,TCR,2024-06-10_12h02.07.717,LearnStrategy,2023.2.3,Win32,59.17159763,8,1,16,0.038888889,-0.014814815,1,0,0,0.9307,rock_grid_rect_2,4,16,-1,-1,0.931,0.44537037,-0.261111111,1,0,0,2.4419,Gabbro_rect,4,2.442,1,15,0,15,0,1,,,,,,,,,,,,
57d1d04593d4400001cdc0db,TCR,2024-06-10_12h02.07.717,LearnStrategy,2023.2.3,Win32,59.17159763,8,2,1,,,,,,,,8,04,,,,,,,,,,,8,2.345,1,,,,,,0.383333333,-0.409259259,1,0,0,2.3451,Pumice_rect,0,0,0,0,1
57d1d04593d4400001cdc0db,TCR,2024-06-10_12h02.07.717,LearnStrategy,2023.2.3,Win32,59.17159763,8,2,2,,,,,,,,1,05,,,,,,,,,,,1,3.579,1,,,,,,-0.407407407,-0.239814815,1,0,0,3.5793,Andesite_rect,1,0,1,0,1
57d1d04593d4400001cdc0db,TCR,2024-06-10_12h02.07.717,LearnStrategy,2023.2.3,Win32,59.17159763,8,2,3,,,,,,,,6,05,,,,,,,,,,,6,1.287,1,,,,,,-0.153703704,-0.410185185,1,0,0,1.2874,Pegmatite_rect,2,0,2,0,1
57d1d04593d4400001cdc0db,TCR,2024-06-10_12h02.07.717,LearnStrategy,2023.2.3,Win32,59.17159763,8,2,4,,,,,,,,5,07,,,,,,,,,,,5,1.061,1,,,,,,-0.372222222,-0.394444444,1,0,0,1.0609,Obsidian_rect,3,0,3,0,1
57d1d04593d4400001cdc0db,TCR,2024-06-10_12h02.07.717,LearnStrategy,2023.2.3,Win32,59.17159763,8,2,5,,,,,,,,7,05,,,,,,,,,,,7,1.147,1,,,,,,0.100925926,-0.392592593,1,0,0,1.1474,Peridotite_rect,4,0,4,0,1
57d1d04593d4400001cdc0db,TCR,2024-06-10_12h02.07.717,LearnStrategy,2023.2.3,Win32,59.17159763,8,2,6,,,,,,,,3,07,,,,,,,,,,,3,1.108,1,,,,,,0.131481481,-0.24537037,1,0,0,1.1083,Diorite_rect,5,0,5,0,1
57d1d04593d4400001cdc0db,TCR,2024-06-10_12h02.07.717,LearnStrategy,2023.2.3,Win32,59.17159763,8,2,7,,,,,,,,4,14,,,,,,,,,,,4,1.31,1,,,,,,0.392592593,-0.248148148,1,0,0,1.3102,Gabbro_rect,6,0,6,0,1
57d1d04593d4400001cdc0db,TCR,2024-06-10_12h02.07.717,LearnStrategy,2023.2.3,Win32,59.17159763,8,2,8,,,,,,,,2,04,,,,,,,,,,,2,1.124,1,,,,,,-0.121296296,-0.249074074,1,0,0,1.1236,Basalt_rect,7,0,7,0,1
57d1d04593d4400001cdc0db,TCR,2024-06-10_12h02.07.717,LearnStrategy,2023.2.3,Win32,59.17159763,8,2,9,,,,,,,,8,03,,,,,,,,,,,8,0.992,1,,,,,,0.392592593,-0.39537037,1,0,0,0.9917,Pumice_rect,8,0,8,0,1
57d1d04593d4400001cdc0db,TCR,2024-06-10_12h02.07.717,LearnStrategy,2023.2.3,Win32,59.17159763,8,2,10,,,,,,,,4,03,,,,,,,,,,,1,6.684,0,,,,,,-0.400925926,-0.25,1,0,0,6.6841,Andesite_rect,9,0,9,0,1
57d1d04593d4400001cdc0db,TCR,2024-06-10_12h02.07.717,LearnStrategy,2023.2.3,Win32,59.17159763,8,2,11,,,,,,,,6,06,,,,,,,,,,,6,3.734,1,,,,,,-0.128703704,-0.396296296,1,0,0,3.7343,Pegmatite_rect,10,0,10,0,1
57d1d04593d4400001cdc0db,TCR,2024-06-10_12h02.07.717,LearnStrategy,2023.2.3,Win32,59.17159763,8,2,12,,,,,,,,1,09,,,,,,,,,,,4,5.339,0,,,,,,0.322222222,-0.240740741,1,0,0,5.339,Gabbro_rect,11,0,11,0,1
57d1d04593d4400001cdc0db,TCR,2024-06-10_12h02.07.717,LearnStrategy,2023.2.3,Win32,59.17159763,8,2,13,,,,,,,,2,11,,,,,,,,,,,2,2.193,1,,,,,,-0.124074074,-0.246296296,1,0,0,2.1934,Basalt_rect,12,0,12,0,1
57d1d04593d4400001cdc0db,TCR,2024-06-10_12h02.07.717,LearnStrategy,2023.2.3,Win32,59.17159763,8,2,14,,,,,,,,3,09,,,,,,,,,,,3,0.945,1,,,,,,0.093518519,-0.241666667,1,0,0,0.9448,Diorite_rect,13,0,13,0,1
57d1d04593d4400001cdc0db,TCR,2024-06-10_12h02.07.717,LearnStrategy,2023.2.3,Win32,59.17159763,8,2,15,,,,,,,,5,06,,,,,,,,,,,5,0.992,1,,,,,,-0.351851852,-0.378703704,1,0,0,0.992,Obsidian_rect,14,0,14,0,1
57d1d04593d4400001cdc0db,TCR,2024-06-10_12h02.07.717,LearnStrategy,2023.2.3,Win32,59.17159763,8,2,16,,,,,,,,7,08,,,,,,,,,,,7,1.159,1,,,,,,0.125925926,-0.382407407,1,0,0,1.1587,Peridotite_rect,15,0,15,0,1
57d1d04593d4400001cdc0db,TCR,2024-06-10_12h02.07.717,LearnStrategy,2023.2.3,Win32,59.17159763,9,1,1,-0.02037037,-0.002777778,1,0,0,6.6321,rock_grid_rect_2,6,09,-1,-1,6.632,-0.103703704,-0.421296296,1,0,0,1.9284,Pegmatite_rect,6,1.928,1,0,0,0,0,1,,,,,,,,,,,,
57d1d04593d4400001cdc0db,TCR,2024-06-10_12h02.07.717,LearnStrategy,2023.2.3,Win32,59.17159763,9,1,2,0.013888889,-0.02037037,1,0,0,0.8138,rock_grid_rect_2,4,12,-1,-1,0.814,0.359259259,-0.239814815,1,0,0,1.7444,Gabbro_rect,4,1.744,1,1,0,1,0,1,,,,,,,,,,,,
57d1d04593d4400001cdc0db,TCR,2024-06-10_12h02.07.717,LearnStrategy,2023.2.3,Win32,59.17159763,9,1,3,0.05,-0.014814815,1,0,0,1.15,rock_grid_rect_2,2,14,-1,-1,1.15,-0.125,-0.241666667,1,0,0,1.8117,Basalt_rect,2,1.812,1,2,0,2,0,1,,,,,,,,,,,,
57d1d04593d4400001cdc0db,TCR,2024-06-10_12h02.07.717,LearnStrategy,2023.2.3,Win32,59.17159763,9,1,4,0.065740741,0.011111111,1,0,0,0.598,rock_grid_rect_2,6,11,-1,-1,0.598,-0.09537037,-0.403703704,1,0,0,2.8819,Pegmatite_rect,6,2.882,1,3,0,3,0,1,,,,,,,,,,,,
57d1d04593d4400001cdc0db,TCR,2024-06-10_12h02.07.717,LearnStrategy,2023.2.3,Win32,59.17159763,9,1,5,0.028703704,-0.008333333,1,0,0,1.6982,rock_grid_rect_2,7,12,-1,-1,1.698,0.118518519,-0.248148148,1,0,0,1.5971,Diorite_rect,3,1.597,0,4,0,4,0,1,,,,,,,,,,,,
57d1d04593d4400001cdc0db,TCR,2024-06-10_12h02.07.717,LearnStrategy,2023.2.3,Win32,59.17159763,9,1,6,0.039814815,-0.017592593,1,0,0,0.7137,rock_grid_rect_2,1,14,-1,-1,0.714,-0.427777778,-0.248148148,1,0,0,1.3824,Andesite_rect,1,1.382,1,5,0,5,0,1,,,,,,,,,,,,
57d1d04593d4400001cdc0db,TCR,2024-06-10_12h02.07.717,LearnStrategy,2023.2.3,Win32,59.17159763,9,1,7,0.033333333,-0.005555556,1,0,0,0.5329,rock_grid_rect_2,4,01,-1,-1,0.533,0.418518519,-0.262962963,1,0,0,1.72,Gabbro_rect,4,1.72,1,6,0,6,0,1,,,,,,,,,,,,
57d1d04593d4400001cdc0db,TCR,2024-06-10_12h02.07.717,LearnStrategy,2023.2.3,Win32,59.17159763,9,1,8,0.049074074,-0.017592593,1,0,0,0.6828,rock_grid_rect_2,3,08,-1,-1,0.683,0.152777778,-0.256481481,1,0,0,1.0777,Diorite_rect,3,1.078,1,7,0,7,0,1,,,,,,,,,,,,
57d1d04593d4400001cdc0db,TCR,2024-06-10_12h02.07.717,LearnStrategy,2023.2.3,Win32,59.17159763,9,1,9,0.078703704,0.008333333,1,0,0,0.5649,rock_grid_rect_2,1,03,-1,-1,0.565,-0.380555556,-0.268518519,1,0,0,1.0126,Andesite_rect,1,1.013,1,8,0,8,0,1,,,,,,,,,,,,
57d1d04593d4400001cdc0db,TCR,2024-06-10_12h02.07.717,LearnStrategy,2023.2.3,Win32,59.17159763,9,1,10,0.019444444,-0.005555556,1,0,0,0.4972,rock_grid_rect_2,5,16,-1,-1,0.497,-0.35,-0.410185185,1,0,0,1.1117,Obsidian_rect,5,1.112,1,9,0,9,0,1,,,,,,,,,,,,
57d1d04593d4400001cdc0db,TCR,2024-06-10_12h02.07.717,LearnStrategy,2023.2.3,Win32,59.17159763,9,1,11,0.036111111,-0.022222222,1,0,0,0.6482,rock_grid_rect_2,4,01,-1,-1,0.648,0.373148148,-0.235185185,1,0,0,1.2096,Gabbro_rect,4,1.21,1,10,0,10,0,1,,,,,,,,,,,,
57d1d04593d4400001cdc0db,TCR,2024-06-10_12h02.07.717,LearnStrategy,2023.2.3,Win32,59.17159763,9,1,12,0.035185185,0.000925926,1,0,0,1.1503,rock_grid_rect_2,2,01,-1,-1,1.15,-0.108333333,-0.248148148,1,0,0,1.3104,Basalt_rect,2,1.31,1,11,0,11,0,1,,,,,,,,,,,,
57d1d04593d4400001cdc0db,TCR,2024-06-10_12h02.07.717,LearnStrategy,2023.2.3,Win32,59.17159763,9,1,13,0.026851852,0.011111111,1,0,0,0.5971,rock_grid_rect_2,1,01,-1,-1,0.597,0.422222222,-0.249074074,1,0,0,3.5102,Gabbro_rect,4,3.51,0,12,0,12,0,1,,,,,,,,,,,,
57d1d04593d4400001cdc0db,TCR,2024-06-10_12h02.07.717,LearnStrategy,2023.2.3,Win32,59.17159763,9,1,14,0.026851852,-0.02037037,1,0,0,0.9827,rock_grid_rect_2,6,03,-1,-1,0.983,-0.090740741,-0.380555556,1,0,0,1.5127,Pegmatite_rect,6,1.513,1,13,0,13,0,1,,,,,,,,,,,,
57d1d04593d4400001cdc0db,TCR,2024-06-10_12h02.07.717,LearnStrategy,2023.2.3,Win32,59.17159763,9,1,15,0.031481481,-0.008333333,1,0,0,0.7157,rock_grid_rect_2,8,06,-1,-1,0.716,0.376851852,-0.419444444,1,0,0,0.8936,Pumice_rect,8,0.894,1,14,0,14,0,1,,,,,,,,,,,,
57d1d04593d4400001cdc0db,TCR,2024-06-10_12h02.07.717,LearnStrategy,2023.2.3,Win32,59.17159763,9,1,16,0.025,-0.014814815,1,0,0,0.5799,rock_grid_rect_2,4,15,-1,-1,0.58,0.351851852,-0.228703704,1,0,0,1.5781,Gabbro_rect,4,1.578,1,15,0,15,0,1,,,,,,,,,,,,
57d1d04593d4400001cdc0db,TCR,2024-06-10_12h02.07.717,LearnStrategy,2023.2.3,Win32,59.17159763,9,2,1,,,,,,,,1,04,,,,,,,,,,,1,2.025,1,,,,,,-0.387037037,-0.247222222,1,0,0,2.0253,Andesite_rect,0,0,0,0,1
57d1d04593d4400001cdc0db,TCR,2024-06-10_12h02.07.717,LearnStrategy,2023.2.3,Win32,59.17159763,9,2,2,,,,,,,,7,13,,,,,,,,,,,7,1.207,1,,,,,,0.12962963,-0.388888889,1,0,0,1.2073,Peridotite_rect,1,0,1,0,1
57d1d04593d4400001cdc0db,TCR,2024-06-10_12h02.07.717,LearnStrategy,2023.2.3,Win32,59.17159763,9,2,3,,,,,,,,8,02,,,,,,,,,,,8,0.943,1,,,,,,0.356481481,-0.394444444,1,0,0,0.9434,Pumice_rect,2,0,2,0,1
57d1d04593d4400001cdc0db,TCR,2024-06-10_12h02.07.717,LearnStrategy,2023.2.3,Win32,59.17159763,9,2,4,,,,,,,,8,09,,,,,,,,,,,8,0.845,1,,,,,,0.406481481,-0.388888889,1,0,0,0.8447,Pumice_rect,3,0,3,0,1
57d1d04593d4400001cdc0db,TCR,2024-06-10_12h02.07.717,LearnStrategy,2023.2.3,Win32,59.17159763,9,2,5,,,,,,,,6,07,,,,,,,,,,,6,2.758,1,,,,,,-0.09537037,-0.387962963,1,0,0,2.7583,Pegmatite_rect,4,0,4,0,1
57d1d04593d4400001cdc0db,TCR,2024-06-10_12h02.07.717,LearnStrategy,2023.2.3,Win32,59.17159763,9,2,6,,,,,,,,5,12,,,,,,,,,,,5,1.454,1,,,,,,-0.361111111,-0.396296296,1,0,0,1.4541,Obsidian_rect,5,0,5,0,1
57d1d04593d4400001cdc0db,TCR,2024-06-10_12h02.07.717,LearnStrategy,2023.2.3,Win32,59.17159763,9,2,7,,,,,,,,2,16,,,,,,,,,,,2,2.491,1,,,,,,-0.134259259,-0.251851852,1,0,0,2.491,Basalt_rect,6,0,6,0,1
57d1d04593d4400001cdc0db,TCR,2024-06-10_12h02.07.717,LearnStrategy,2023.2.3,Win32,59.17159763,9,2,8,,,,,,,,3,10,,,,,,,,,,,1,2.642,0,,,,,,-0.352777778,-0.24537037,1,0,0,2.6419,Andesite_rect,7,0,7,0,1
57d1d04593d4400001cdc0db,TCR,2024-06-10_12h02.07.717,LearnStrategy,2023.2.3,Win32,59.17159763,9,2,9,,,,,,,,3,15,,,,,,,,,,,3,1.389,1,,,,,,0.112962963,-0.248148148,1,0,0,1.3889,Diorite_rect,8,0,8,0,1
57d1d04593d4400001cdc0db,TCR,2024-06-10_12h02.07.717,LearnStrategy,2023.2.3,Win32,59.17159763,9,2,10,,,,,,,,4,05,,,,,,,,,,,4,1.128,1,,,,,,0.357407407,-0.250925926,1,0,0,1.128,Gabbro_rect,9,0,9,0,1
57d1d04593d4400001cdc0db,TCR,2024-06-10_12h02.07.717,LearnStrategy,2023.2.3,Win32,59.17159763,9,2,11,,,,,,,,7,02,,,,,,,,,,,7,1.828,1,,,,,,0.144444444,-0.391666667,1,0,0,1.8278,Peridotite_rect,10,0,10,0,1
57d1d04593d4400001cdc0db,TCR,2024-06-10_12h02.07.717,LearnStrategy,2023.2.3,Win32,59.17159763,9,2,12,,,,,,,,4,11,,,,,,,,,,,4,1.973,1,,,,,,0.375925926,-0.255555556,1,0,0,1.9729,Gabbro_rect,11,0,11,0,1
57d1d04593d4400001cdc0db,TCR,2024-06-10_12h02.07.717,LearnStrategy,2023.2.3,Win32,59.17159763,9,2,13,,,,,,,,5,11,,,,,,,,,,,5,0.981,1,,,,,,-0.401851852,-0.400925926,1,0,0,0.9809,Obsidian_rect,12,0,12,0,1
57d1d04593d4400001cdc0db,TCR,2024-06-10_12h02.07.717,LearnStrategy,2023.2.3,Win32,59.17159763,9,2,14,,,,,,,,1,07,,,,,,,,,,,1,2.575,1,,,,,,-0.348148148,-0.247222222,1,0,0,2.5749,Andesite_rect,13,0,13,0,1
57d1d04593d4400001cdc0db,TCR,2024-06-10_12h02.07.717,LearnStrategy,2023.2.3,Win32,59.17159763,9,2,15,,,,,,,,2,02,,,,,,,,,,,2,0.96,1,,,,,,-0.189814815,-0.239814815,1,0,0,0.9602,Basalt_rect,14,0,14,0,1
57d1d04593d4400001cdc0db,TCR,2024-06-10_12h02.07.717,LearnStrategy,2023.2.3,Win32,59.17159763,9,2,16,,,,,,,,6,15,,,,,,,,,,,6,2.182,1,,,,,,-0.117592593,-0.414814815,1,0,0,2.1821,Pegmatite_rect,15,0,15,0,1
57d1d04593d4400001cdc0db,TCR,2024-06-10_12h02.07.717,LearnStrategy,2023.2.3,Win32,59.17159763,,,,,,,,,,,,,,,,,,,,,,,,,,,,,,,,,,,,,,,,,,
57d1d04593d4400001cdc0db,TCR,2024-06-10_12h02.07.717,LearnStrategy,2023.2.3,Win32,59.17159763,,,,,,,,,,,,,,,,,,,,,,,,,,,,,,,,,,,,,,,,,,
57d1d04593d4400001cdc0db,TCR,2024-06-10_12h02.07.717,LearnStrategy,2023.2.3,Win32,59.17159763,,,,,,,,,,,8,15,1,1,,,,,,,,,,,,,,,,,,,,,,,,,,,,
57d1d04593d4400001cdc0db,TCR,2024-06-10_12h02.07.717,LearnStrategy,2023.2.3,Win32,59.17159763,,,,,,,,,,,7,10,1,2,,,,,,,,,,,,,,,,,,,,,,,,,,,,
57d1d04593d4400001cdc0db,TCR,2024-06-10_12h02.07.717,LearnStrategy,2023.2.3,Win32,59.17159763,,,,,,,,,,,5,08,1,3,,,,,,,,,,,,,,,,,,,,,,,,,,,,
57d1d04593d4400001cdc0db,TCR,2024-06-10_12h02.07.717,LearnStrategy,2023.2.3,Win32,59.17159763,,,,,,,,,,,2,08,1,4,,,,,,,,,,,,,,,,,,,,,,,,,,,,
57d1d04593d4400001cdc0db,TCR,2024-06-10_12h02.07.717,LearnStrategy,2023.2.3,Win32,59.17159763,,,,,,,,,,,2,09,1,5,,,,,,,,,,,,,,,,,,,,,,,,,,,,
57d1d04593d4400001cdc0db,TCR,2024-06-10_12h02.07.717,LearnStrategy,2023.2.3,Win32,59.17159763,,,,,,,,,,,7,07,1,6,,,,,,,,,,,,,,,,,,,,,,,,,,,,
57d1d04593d4400001cdc0db,TCR,2024-06-10_12h02.07.717,LearnStrategy,2023.2.3,Win32,59.17159763,,,,,,,,,,,5,02,1,7,,,,,,,,,,,,,,,,,,,,,,,,,,,,
57d1d04593d4400001cdc0db,TCR,2024-06-10_12h02.07.717,LearnStrategy,2023.2.3,Win32,59.17159763,,,,,,,,,,,5,09,1,8,,,,,,,,,,,,,,,,,,,,,,,,,,,,
57d1d04593d4400001cdc0db,TCR,2024-06-10_12h02.07.717,LearnStrategy,2023.2.3,Win32,59.17159763,,,,,,,,,,,4,16,2,1,,,,,,,,,,,,,,,,,,,,,,,,,,,,
57d1d04593d4400001cdc0db,TCR,2024-06-10_12h02.07.717,LearnStrategy,2023.2.3,Win32,59.17159763,,,,,,,,,,,3,02,2,2,,,,,,,,,,,,,,,,,,,,,,,,,,,,
57d1d04593d4400001cdc0db,TCR,2024-06-10_12h02.07.717,LearnStrategy,2023.2.3,Win32,59.17159763,,,,,,,,,,,3,16,2,3,,,,,,,,,,,,,,,,,,,,,,,,,,,,
57d1d04593d4400001cdc0db,TCR,2024-06-10_12h02.07.717,LearnStrategy,2023.2.3,Win32,59.17159763,,,,,,,,,,,3,08,2,4,,,,,,,,,,,,,,,,,,,,,,,,,,,,
57d1d04593d4400001cdc0db,TCR,2024-06-10_12h02.07.717,LearnStrategy,2023.2.3,Win32,59.17159763,,,,,,,,,,,2,05,2,5,,,,,,,,,,,,,,,,,,,,,,,,,,,,
57d1d04593d4400001cdc0db,TCR,2024-06-10_12h02.07.717,LearnStrategy,2023.2.3,Win32,59.17159763,,,,,,,,,,,7,14,2,6,,,,,,,,,,,,,,,,,,,,,,,,,,,,
57d1d04593d4400001cdc0db,TCR,2024-06-10_12h02.07.717,LearnStrategy,2023.2.3,Win32,59.17159763,,,,,,,,,,,4,10,2,7,,,,,,,,,,,,,,,,,,,,,,,,,,,,
57d1d04593d4400001cdc0db,TCR,2024-06-10_12h02.07.717,LearnStrategy,2023.2.3,Win32,59.17159763,,,,,,,,,,,2,14,2,8,,,,,,,,,,,,,,,,,,,,,,,,,,,,
57d1d04593d4400001cdc0db,TCR,2024-06-10_12h02.07.717,LearnStrategy,2023.2.3,Win32,59.17159763,,,,,,,,,,,6,12,3,1,,,,,,,,,,,,,,,,,,,,,,,,,,,,
57d1d04593d4400001cdc0db,TCR,2024-06-10_12h02.07.717,LearnStrategy,2023.2.3,Win32,59.17159763,,,,,,,,,,,8,06,3,2,,,,,,,,,,,,,,,,,,,,,,,,,,,,
57d1d04593d4400001cdc0db,TCR,2024-06-10_12h02.07.717,LearnStrategy,2023.2.3,Win32,59.17159763,,,,,,,,,,,7,16,3,3,,,,,,,,,,,,,,,,,,,,,,,,,,,,
57d1d04593d4400001cdc0db,TCR,2024-06-10_12h02.07.717,LearnStrategy,2023.2.3,Win32,59.17159763,,,,,,,,,,,8,10,3,4,,,,,,,,,,,,,,,,,,,,,,,,,,,,
57d1d04593d4400001cdc0db,TCR,2024-06-10_12h02.07.717,LearnStrategy,2023.2.3,Win32,59.17159763,,,,,,,,,,,2,12,3,5,,,,,,,,,,,,,,,,,,,,,,,,,,,,
57d1d04593d4400001cdc0db,TCR,2024-06-10_12h02.07.717,LearnStrategy,2023.2.3,Win32,59.17159763,,,,,,,,,,,8,16,3,6,,,,,,,,,,,,,,,,,,,,,,,,,,,,
57d1d04593d4400001cdc0db,TCR,2024-06-10_12h02.07.717,LearnStrategy,2023.2.3,Win32,59.17159763,,,,,,,,,,,6,08,3,7,,,,,,,,,,,,,,,,,,,,,,,,,,,,
57d1d04593d4400001cdc0db,TCR,2024-06-10_12h02.07.717,LearnStrategy,2023.2.3,Win32,59.17159763,,,,,,,,,,,6,09,3,8,,,,,,,,,,,,,,,,,,,,,,,,,,,,
57d1d04593d4400001cdc0db,TCR,2024-06-10_12h02.07.717,LearnStrategy,2023.2.3,Win32,59.17159763,,,,,,,,,,,4,12,4,1,,,,,,,,,,,,,,,,,,,,,,,,,,,,
57d1d04593d4400001cdc0db,TCR,2024-06-10_12h02.07.717,LearnStrategy,2023.2.3,Win32,59.17159763,,,,,,,,,,,5,05,4,2,,,,,,,,,,,,,,,,,,,,,,,,,,,,
57d1d04593d4400001cdc0db,TCR,2024-06-10_12h02.07.717,LearnStrategy,2023.2.3,Win32,59.17159763,,,,,,,,,,,1,01,4,3,,,,,,,,,,,,,,,,,,,,,,,,,,,,
57d1d04593d4400001cdc0db,TCR,2024-06-10_12h02.07.717,LearnStrategy,2023.2.3,Win32,59.17159763,,,,,,,,,,,8,05,4,4,,,,,,,,,,,,,,,,,,,,,,,,,,,,
57d1d04593d4400001cdc0db,TCR,2024-06-10_12h02.07.717,LearnStrategy,2023.2.3,Win32,59.17159763,,,,,,,,,,,4,13,4,5,,,,,,,,,,,,,,,,,,,,,,,,,,,,
57d1d04593d4400001cdc0db,TCR,2024-06-10_12h02.07.717,LearnStrategy,2023.2.3,Win32,59.17159763,,,,,,,,,,,4,01,4,6,,,,,,,,,,,,,,,,,,,,,,,,,,,,
57d1d04593d4400001cdc0db,TCR,2024-06-10_12h02.07.717,LearnStrategy,2023.2.3,Win32,59.17159763,,,,,,,,,,,1,10,4,7,,,,,,,,,,,,,,,,,,,,,,,,,,,,
57d1d04593d4400001cdc0db,TCR,2024-06-10_12h02.07.717,LearnStrategy,2023.2.3,Win32,59.17159763,,,,,,,,,,,2,01,4,8,,,,,,,,,,,,,,,,,,,,,,,,,,,,
57d1d04593d4400001cdc0db,TCR,2024-06-10_12h02.07.717,LearnStrategy,2023.2.3,Win32,59.17159763,,,,,,,,,,,7,04,5,1,,,,,,,,,,,,,,,,,,,,,,,,,,,,
57d1d04593d4400001cdc0db,TCR,2024-06-10_12h02.07.717,LearnStrategy,2023.2.3,Win32,59.17159763,,,,,,,,,,,6,11,5,2,,,,,,,,,,,,,,,,,,,,,,,,,,,,
57d1d04593d4400001cdc0db,TCR,2024-06-10_12h02.07.717,LearnStrategy,2023.2.3,Win32,59.17159763,,,,,,,,,,,1,03,5,3,,,,,,,,,,,,,,,,,,,,,,,,,,,,
57d1d04593d4400001cdc0db,TCR,2024-06-10_12h02.07.717,LearnStrategy,2023.2.3,Win32,59.17159763,,,,,,,,,,,3,06,5,4,,,,,,,,,,,,,,,,,,,,,,,,,,,,
57d1d04593d4400001cdc0db,TCR,2024-06-10_12h02.07.717,LearnStrategy,2023.2.3,Win32,59.17159763,,,,,,,,,,,6,16,5,5,,,,,,,,,,,,,,,,,,,,,,,,,,,,
57d1d04593d4400001cdc0db,TCR,2024-06-10_12h02.07.717,LearnStrategy,2023.2.3,Win32,59.17159763,,,,,,,,,,,5,04,5,6,,,,,,,,,,,,,,,,,,,,,,,,,,,,
57d1d04593d4400001cdc0db,TCR,2024-06-10_12h02.07.717,LearnStrategy,2023.2.3,Win32,59.17159763,,,,,,,,,,,1,16,5,7,,,,,,,,,,,,,,,,,,,,,,,,,,,,
57d1d04593d4400001cdc0db,TCR,2024-06-10_12h02.07.717,LearnStrategy,2023.2.3,Win32,59.17159763,,,,,,,,,,,3,12,5,8,,,,,,,,,,,,,,,,,,,,,,,,,,,,
57d1d04593d4400001cdc0db,TCR,2024-06-10_12h02.07.717,LearnStrategy,2023.2.3,Win32,59.17159763,,,,,,,,,,,5,16,6,1,,,,,,,,,,,,,,,,,,,,,,,,,,,,
57d1d04593d4400001cdc0db,TCR,2024-06-10_12h02.07.717,LearnStrategy,2023.2.3,Win32,59.17159763,,,,,,,,,,,8,13,6,2,,,,,,,,,,,,,,,,,,,,,,,,,,,,
57d1d04593d4400001cdc0db,TCR,2024-06-10_12h02.07.717,LearnStrategy,2023.2.3,Win32,59.17159763,,,,,,,,,,,1,02,6,3,,,,,,,,,,,,,,,,,,,,,,,,,,,,
57d1d04593d4400001cdc0db,TCR,2024-06-10_12h02.07.717,LearnStrategy,2023.2.3,Win32,59.17159763,,,,,,,,,,,7,12,6,4,,,,,,,,,,,,,,,,,,,,,,,,,,,,
57d1d04593d4400001cdc0db,TCR,2024-06-10_12h02.07.717,LearnStrategy,2023.2.3,Win32,59.17159763,,,,,,,,,,,4,15,6,5,,,,,,,,,,,,,,,,,,,,,,,,,,,,
57d1d04593d4400001cdc0db,TCR,2024-06-10_12h02.07.717,LearnStrategy,2023.2.3,Win32,59.17159763,,,,,,,,,,,1,14,6,6,,,,,,,,,,,,,,,,,,,,,,,,,,,,
57d1d04593d4400001cdc0db,TCR,2024-06-10_12h02.07.717,LearnStrategy,2023.2.3,Win32,59.17159763,,,,,,,,,,,6,03,6,7,,,,,,,,,,,,,,,,,,,,,,,,,,,,
57d1d04593d4400001cdc0db,TCR,2024-06-10_12h02.07.717,LearnStrategy,2023.2.3,Win32,59.17159763,,,,,,,,,,,3,14,6,8,,,,,,,,,,,,,,,,,,,,,,,,,,,,