participant,condition,date,expName,psychopyVersion,OS,frameRate,block,phase,trial,learn_mouse_2.x,learn_mouse_2.y,learn_mouse_2.leftButton,learn_mouse_2.midButton,learn_mouse_2.rightButton,learn_mouse_2.time,learn_mouse_2.clicked_name,cat,token,row,col,t_select,cat_mouse_l.x,cat_mouse_l.y,cat_mouse_l.leftButton,cat_mouse_l.midButton,cat_mouse_l.rightButton,cat_mouse_l.time,cat_mouse_l.clicked_name,resp,t_resp,corr,train_trials.thisRepN,train_trials.thisTrialN,train_trials.thisN,train_trials.thisIndex,train_trials.ran,cat_mouse_t.x,cat_mouse_t.y,cat_mouse_t.leftButton,cat_mouse_t.midButton,cat_mouse_t.rightButton,cat_mouse_t.time,cat_mouse_t.clicked_name,test_trials.thisRepN,test_trials.thisTrialN,test_trials.thisN,test_trials.thisIndex,test_trials.ran,Bonus
57dd186e6598aa0001992616,TCR,2024-06-20_15h07.38.648,LearnStrategy,2023.2.3,Win32,29.94011976,,,,,,,,,,,,,,,,,,,,,,,,,,,,,,,,,,,,,,,,,,,
57dd186e6598aa0001992616,TCR,2024-06-20_15h07.38.648,LearnStrategy,2023.2.3,Win32,29.94011976,1,1,1,0.081843472,-0.01194817,1,0,0,2.6445,rock_grid_rect_2,4,03,-1,-1,2.645,0.449835183,-0.242000909,1,0,0,2.9144,Gabbro_rect,4,2.914,1,0,0,0,0,1,,,,,,,,,,,,,
57dd186e6598aa0001992616,TCR,2024-06-20_15h07.38.648,LearnStrategy,2023.2.3,Win32,29.94011976,1,1,2,0.048978822,-0.001301873,1,0,0,1.5235,rock_grid_rect_2,5,05,-1,-1,1.524,-0.104235365,-0.409101447,1,0,0,2.2903,Pegmatite_rect,6,2.29,0,1,0,1,0,1,,,,,,,,,,,,,
57dd186e6598aa0001992616,TCR,2024-06-20_15h07.38.648,LearnStrategy,2023.2.3,Win32,29.94011976,1,1,3,0.062402403,-0.018428538,1,0,0,1.4912,rock_grid_rect_2,2,08,-1,-1,1.491,0.357258571,-0.386420249,1,0,0,2.5894,Pumice_rect,8,2.589,0,2,0,2,0,1,,,,,,,,,,,,,
57dd186e6598aa0001992616,TCR,2024-06-20_15h07.38.648,LearnStrategy,2023.2.3,Win32,29.94011976,1,1,4,0.038795369,-0.009170884,1,0,0,1.4438,rock_grid_rect_2,3,15,-1,-1,1.444,0.083232078,-0.240149386,1,0,0,4.306,Diorite_rect,3,4.306,1,3,0,3,0,1,,,,,,,,,,,,,
57dd186e6598aa0001992616,TCR,2024-06-20_15h07.38.648,LearnStrategy,2023.2.3,Win32,29.94011976,1,1,5,0.032777881,-0.014725455,1,0,0,1.6999,rock_grid_rect_2,7,12,-1,-1,1.7,0.317450671,-0.385957405,1,0,0,3.0609,Pumice_rect,8,3.061,0,4,0,4,0,1,,,,,,,,,,,,,
57dd186e6598aa0001992616,TCR,2024-06-20_15h07.38.648,LearnStrategy,2023.2.3,Win32,29.94011976,1,1,6,0.036481002,-0.015651216,1,0,0,1.4994,rock_grid_rect_2,1,02,-1,-1,1.499,-0.40048025,-0.244778268,1,0,0,4.1952,Andesite_rect,1,4.195,1,5,0,5,0,1,,,,,,,,,,,,,
57dd186e6598aa0001992616,TCR,2024-06-20_15h07.38.648,LearnStrategy,2023.2.3,Win32,29.94011976,1,1,7,0.011485437,0.008418661,1,0,0,1.0313,rock_grid_rect_2,8,09,-1,-1,1.031,0.326708361,-0.387808928,1,0,0,4.6321,Pumice_rect,8,4.632,1,6,0,6,0,1,,,,,,,,,,,,,
57dd186e6598aa0001992616,TCR,2024-06-20_15h07.38.648,LearnStrategy,2023.2.3,Win32,29.94011976,1,1,8,0.075825984,-0.007782205,1,0,0,1.1604,rock_grid_rect_2,6,09,-1,-1,1.16,0.353555524,-0.228577253,1,0,0,3.0028,Gabbro_rect,4,3.003,0,7,0,7,0,1,,,,,,,,,,,,,
57dd186e6598aa0001992616,TCR,2024-06-20_15h07.38.648,LearnStrategy,2023.2.3,Win32,29.94011976,1,1,9,0.080917711,-0.011022408,1,0,0,1.266,rock_grid_rect_2,6,16,-1,-1,1.266,0.367442023,-0.250332764,1,0,0,3.4618,Gabbro_rect,4,3.462,0,8,0,8,0,1,,,,,,,,,,,,,
57dd186e6598aa0001992616,TCR,2024-06-20_15h07.38.648,LearnStrategy,2023.2.3,Win32,29.94011976,1,1,10,0.064253926,-0.017039859,1,0,0,1.2318,rock_grid_rect_2,4,15,-1,-1,1.232,0.154053105,-0.239686394,1,0,0,2.8581,Diorite_rect,3,2.858,0,9,0,9,0,1,,,,,,,,,,,,,
57dd186e6598aa0001992616,TCR,2024-06-20_15h07.38.648,LearnStrategy,2023.2.3,Win32,29.94011976,1,1,11,0.042961334,-0.009633765,1,0,0,1.2882,rock_grid_rect_2,2,04,-1,-1,1.288,-0.166724538,-0.263756271,1,0,0,1.9339,Basalt_rect,2,1.934,1,10,0,10,0,1,,,,,,,,,,,,,
57dd186e6598aa0001992616,TCR,2024-06-20_15h07.38.648,LearnStrategy,2023.2.3,Win32,29.94011976,1,1,12,0.048978822,0.00193833,1,0,0,1.0331,rock_grid_rect_2,7,05,-1,-1,1.033,-0.091737546,-0.398918068,1,0,0,8.0707,Pegmatite_rect,6,8.071,0,11,0,11,0,1,,,,,,,,,,,,,
57dd186e6598aa0001992616,TCR,2024-06-20_15h07.38.648,LearnStrategy,2023.2.3,Win32,29.94011976,1,1,13,0.054070474,-0.020280062,1,0,0,1.1979,rock_grid_rect_2,5,08,-1,-1,1.198,-0.387519512,-0.405398474,1,0,0,4.5963,Obsidian_rect,5,4.596,1,12,0,12,0,1,,,,,,,,,,,,,
57dd186e6598aa0001992616,TCR,2024-06-20_15h07.38.648,LearnStrategy,2023.2.3,Win32,29.94011976,1,1,14,0.101747385,0.006567138,1,0,0,1.3648,rock_grid_rect_2,8,03,-1,-1,1.365,0.0989701,-0.246629643,1,0,0,5.597,Diorite_rect,3,5.597,0,13,0,13,0,1,,,,,,,,,,,,,
57dd186e6598aa0001992616,TCR,2024-06-20_15h07.38.648,LearnStrategy,2023.2.3,Win32,29.94011976,1,1,15,0.034629405,-0.009170884,1,0,0,1.1288,rock_grid_rect_2,3,06,-1,-1,1.129,0.121188455,-0.387345936,1,0,0,7.3992,Peridotite_rect,7,7.399,0,14,0,14,0,1,,,,,,,,,,,,,
57dd186e6598aa0001992616,TCR,2024-06-20_15h07.38.648,LearnStrategy,2023.2.3,Win32,29.94011976,1,1,16,0.026760467,0.007955781,1,0,0,1.0989,rock_grid_rect_2,1,03,-1,-1,1.099,-0.150523597,-0.235983347,1,0,0,2.0324,Basalt_rect,2,2.032,0,15,0,15,0,1,,,,,,,,,,,,,
57dd186e6598aa0001992616,TCR,2024-06-20_15h07.38.648,LearnStrategy,2023.2.3,Win32,29.94011976,1,2,1,,,,,,,,2,12,,,,,,,,,,,3,7.995,0,,,,,,0.189232197,-0.234594667,1,0,0,7.9948,Diorite_rect,0,0,0,0,1,
57dd186e6598aa0001992616,TCR,2024-06-20_15h07.38.648,LearnStrategy,2023.2.3,Win32,29.94011976,1,2,2,,,,,,,,3,16,,,,,,,,,,,6,8.76,0,,,,,,-0.05100381,-0.402158197,1,0,0,8.7599,Pegmatite_rect,1,0,1,0,1,
57dd186e6598aa0001992616,TCR,2024-06-20_15h07.38.648,LearnStrategy,2023.2.3,Win32,29.94011976,1,2,3,,,,,,,,4,12,,,,,,,,,,,7,8.045,0,,,,,,0.167476761,-0.382717128,1,0,0,8.0446,Peridotite_rect,2,0,2,0,1,
57dd186e6598aa0001992616,TCR,2024-06-20_15h07.38.648,LearnStrategy,2023.2.3,Win32,29.94011976,1,2,4,,,,,,,,6,08,,,,,,,,,,,5,2.513,0,,,,,,-0.375021692,-0.395214948,1,0,0,2.5131,Obsidian_rect,3,0,3,0,1,
57dd186e6598aa0001992616,TCR,2024-06-20_15h07.38.648,LearnStrategy,2023.2.3,Win32,29.94011976,1,2,5,,,,,,,,4,09,,,,,,,,,,,2,1.651,0,,,,,,-0.155152405,-0.254498803,1,0,0,1.6505,Basalt_rect,4,0,4,0,1,
57dd186e6598aa0001992616,TCR,2024-06-20_15h07.38.648,LearnStrategy,2023.2.3,Win32,29.94011976,1,2,6,,,,,,,,7,13,,,,,,,,,,,6,2.993,0,,,,,,-0.119973388,-0.410027357,1,0,0,2.9925,Pegmatite_rect,5,0,5,0,1,
57dd186e6598aa0001992616,TCR,2024-06-20_15h07.38.648,LearnStrategy,2023.2.3,Win32,29.94011976,1,2,7,,,,,,,,1,11,,,,,,,,,,,8,2.991,0,,,,,,0.394289186,-0.395214948,1,0,0,2.9911,Pumice_rect,6,0,6,0,1,
57dd186e6598aa0001992616,TCR,2024-06-20_15h07.38.648,LearnStrategy,2023.2.3,Win32,29.94011976,1,2,8,,,,,,,,2,01,,,,,,,,,,,1,3.592,0,,,,,,-0.395851404,-0.248018323,1,0,0,3.5923,Andesite_rect,7,0,7,0,1,
57dd186e6598aa0001992616,TCR,2024-06-20_15h07.38.648,LearnStrategy,2023.2.3,Win32,29.94011976,1,2,9,,,,,,,,5,10,,,,,,,,,,,5,5.341,1,,,,,,-0.383353584,-0.393826342,1,0,0,5.3415,Obsidian_rect,8,0,8,0,1,
57dd186e6598aa0001992616,TCR,2024-06-20_15h07.38.648,LearnStrategy,2023.2.3,Win32,29.94011976,1,2,10,,,,,,,,1,14,,,,,,,,,,,3,5.362,0,,,,,,0.158681988,-0.234594667,1,0,0,5.3624,Diorite_rect,9,0,9,0,1,
57dd186e6598aa0001992616,TCR,2024-06-20_15h07.38.648,LearnStrategy,2023.2.3,Win32,29.94011976,1,2,11,,,,,,,,7,02,,,,,,,,,,,7,3.006,1,,,,,,0.165625237,-0.381791366,1,0,0,3.0057,Peridotite_rect,10,0,10,0,1,
57dd186e6598aa0001992616,TCR,2024-06-20_15h07.38.648,LearnStrategy,2023.2.3,Win32,29.94011976,1,2,12,,,,,,,,8,14,,,,,,,,,,,4,2.117,0,,,,,,0.364664664,-0.265607869,1,0,0,2.1172,Gabbro_rect,11,0,11,0,1,
57dd186e6598aa0001992616,TCR,2024-06-20_15h07.38.648,LearnStrategy,2023.2.3,Win32,29.94011976,1,2,13,,,,,,,,5,14,,,,,,,,,,,5,2.746,1,,,,,,-0.341231243,-0.385494413,1,0,0,2.7459,Obsidian_rect,12,0,12,0,1,
57dd186e6598aa0001992616,TCR,2024-06-20_15h07.38.648,LearnStrategy,2023.2.3,Win32,29.94011976,1,2,14,,,,,,,,8,02,,,,,,,,,,,8,2.69,1,,,,,,0.344297907,-0.381791366,1,0,0,2.6905,Pumice_rect,13,0,13,0,1,
57dd186e6598aa0001992616,TCR,2024-06-20_15h07.38.648,LearnStrategy,2023.2.3,Win32,29.94011976,1,2,15,,,,,,,,6,12,,,,,,,,,,,1,5.821,0,,,,,,-0.375947454,-0.251721444,1,0,0,5.8213,Andesite_rect,14,0,14,0,1,
57dd186e6598aa0001992616,TCR,2024-06-20_15h07.38.648,LearnStrategy,2023.2.3,Win32,29.94011976,1,2,16,,,,,,,,3,13,,,,,,,,,,,3,3.357,1,,,,,,0.096192815,-0.234131823,1,0,0,3.3567,Diorite_rect,15,0,15,0,1,
57dd186e6598aa0001992616,TCR,2024-06-20_15h07.38.648,LearnStrategy,2023.2.3,Win32,29.94011976,2,1,1,0.067956973,-0.005930682,1,0,0,1.4975,rock_grid_rect_2,1,10,-1,-1,1.498,0.320690873,-0.383642964,1,0,0,5.3298,Pumice_rect,8,5.33,0,0,0,0,0,1,,,,,,,,,,,,,
57dd186e6598aa0001992616,TCR,2024-06-20_15h07.38.648,LearnStrategy,2023.2.3,Win32,29.94011976,2,1,2,0.049441666,-0.020280062,1,0,0,1.3626,rock_grid_rect_2,2,08,-1,-1,1.363,-0.162558573,-0.254498803,1,0,0,2.594,Basalt_rect,2,2.594,1,1,0,1,0,1,,,,,,,,,,,,,
57dd186e6598aa0001992616,TCR,2024-06-20_15h07.38.648,LearnStrategy,2023.2.3,Win32,29.94011976,2,1,3,0.053144786,-0.010096646,1,0,0,1.1003,rock_grid_rect_2,1,02,-1,-1,1.1,0.12766886,-0.236446265,1,0,0,1.9345,Diorite_rect,3,1.935,0,2,0,2,0,1,,,,,,,,,,,,,
57dd186e6598aa0001992616,TCR,2024-06-20_15h07.38.648,LearnStrategy,2023.2.3,Win32,29.94011976,2,1,4,0.105450432,-0.01194817,1,0,0,0.9975,rock_grid_rect_2,7,07,-1,-1,0.997,0.375311035,-0.400769592,1,0,0,4.2149,Pumice_rect,8,4.215,0,3,0,3,0,1,,,,,,,,,,,,,
57dd186e6598aa0001992616,TCR,2024-06-20_15h07.38.648,LearnStrategy,2023.2.3,Win32,29.94011976,2,1,5,0.089249566,-0.020280062,1,0,0,1.0285,rock_grid_rect_2,3,11,-1,-1,1.028,-0.080165413,-0.402158197,1,0,0,3.5048,Pegmatite_rect,6,3.505,0,4,0,4,0,1,,,,,,,,,,,,,
57dd186e6598aa0001992616,TCR,2024-06-20_15h07.38.648,LearnStrategy,2023.2.3,Win32,29.94011976,2,1,6,0.093878374,-0.014262574,1,0,0,1.4006,rock_grid_rect_2,3,14,-1,-1,1.401,0.11702249,-0.255424416,1,0,0,1.7571,Diorite_rect,3,1.757,1,5,0,5,0,1,,,,,,,,,,,,,
57dd186e6598aa0001992616,TCR,2024-06-20_15h07.38.648,LearnStrategy,2023.2.3,Win32,29.94011976,2,1,7,0.089712484,-0.007319324,1,0,0,1.133,rock_grid_rect_2,4,11,-1,-1,1.133,-0.183851166,-0.242926596,1,0,0,2.9378,Basalt_rect,2,2.938,0,6,0,6,0,1,,,,,,,,,,,,,
57dd186e6598aa0001992616,TCR,2024-06-20_15h07.38.648,LearnStrategy,2023.2.3,Win32,29.94011976,2,1,8,0.056384915,-0.007319324,1,0,0,1.1334,rock_grid_rect_2,8,08,-1,-1,1.133,0.111930838,-0.245241038,1,0,0,2.2112,Diorite_rect,3,2.211,0,7,0,7,0,1,,,,,,,,,,,,,
57dd186e6598aa0001992616,TCR,2024-06-20_15h07.38.648,LearnStrategy,2023.2.3,Win32,29.94011976,2,1,9,0.069808496,-0.010096646,1,0,0,1.066,rock_grid_rect_2,2,04,-1,-1,1.066,-0.174130631,-0.249406928,1,0,0,2.8618,Basalt_rect,2,2.862,1,8,0,8,0,1,,,,,,,,,,,,,
57dd186e6598aa0001992616,TCR,2024-06-20_15h07.38.648,LearnStrategy,2023.2.3,Win32,29.94011976,2,1,10,0.015651327,-0.013799693,1,0,0,1.029,rock_grid_rect_2,6,15,-1,-1,1.029,0.350315395,-0.385031643,1,0,0,5.4655,Pumice_rect,8,5.466,0,9,0,9,0,1,,,,,,,,,,,,,
57dd186e6598aa0001992616,TCR,2024-06-20_15h07.38.648,LearnStrategy,2023.2.3,Win32,29.94011976,2,1,11,0.010559527,-0.006393562,1,0,0,0.998,rock_grid_rect_2,6,16,-1,-1,0.998,0.097581421,-0.398455151,1,0,0,3.7587,Peridotite_rect,7,3.759,0,10,0,10,0,1,,,,,,,,,,,,,
57dd186e6598aa0001992616,TCR,2024-06-20_15h07.38.648,LearnStrategy,2023.2.3,Win32,29.94011976,2,1,12,0.043887095,-0.011485289,1,0,0,1.1983,rock_grid_rect_2,1,10,-1,-1,1.198,0.342446384,-0.396140783,1,0,0,5.4629,Pumice_rect,8,5.463,0,11,0,11,0,1,,,,,,,,,,,,,
57dd186e6598aa0001992616,TCR,2024-06-20_15h07.38.648,LearnStrategy,2023.2.3,Win32,29.94011976,2,1,13,0.064253926,8.67693E-05,1,0,0,0.9947,rock_grid_rect_2,4,03,-1,-1,0.995,0.107764873,-0.386883093,1,0,0,5.4923,Peridotite_rect,7,5.492,0,12,0,12,0,1,,,,,,,,,,,,,
57dd186e6598aa0001992616,TCR,2024-06-20_15h07.38.648,LearnStrategy,2023.2.3,Win32,29.94011976,2,1,14,0.052681868,0.009807304,1,0,0,1.0968,rock_grid_rect_2,4,01,-1,-1,1.097,-0.113030138,-0.400306822,1,0,0,3.4615,Pegmatite_rect,6,3.462,0,13,0,13,0,1,,,,,,,,,,,,,
57dd186e6598aa0001992616,TCR,2024-06-20_15h07.38.648,LearnStrategy,2023.2.3,Win32,29.94011976,2,1,15,0.044349939,0.00193833,1,0,0,1.2308,rock_grid_rect_2,6,16,-1,-1,1.231,-0.119047552,-0.39567794,1,0,0,2.0187,Pegmatite_rect,6,2.019,1,14,0,14,0,1,,,,,,,,,,,,,
57dd186e6598aa0001992616,TCR,2024-06-20_15h07.38.648,LearnStrategy,2023.2.3,Win32,29.94011976,2,1,16,0.074900223,-0.004542039,1,0,0,1.2005,rock_grid_rect_2,2,16,-1,-1,1.2,0.35309268,-0.244315202,1,0,0,3.0948,Gabbro_rect,4,3.095,0,15,0,15,0,1,,,,,,,,,,,,,
57dd186e6598aa0001992616,TCR,2024-06-20_15h07.38.648,LearnStrategy,2023.2.3,Win32,29.94011976,2,2,1,,,,,,,,4,05,,,,,,,,,,,4,6.462,1,,,,,,0.33689174,-0.244315202,1,0,0,6.4616,Gabbro_rect,0,0,0,0,1,
57dd186e6598aa0001992616,TCR,2024-06-20_15h07.38.648,LearnStrategy,2023.2.3,Win32,29.94011976,2,2,2,,,,,,,,7,06,,,,,,,,,,,6,2.387,0,,,,,,-0.099143639,-0.396140783,1,0,0,2.3869,Pegmatite_rect,1,0,1,0,1,
57dd186e6598aa0001992616,TCR,2024-06-20_15h07.38.648,LearnStrategy,2023.2.3,Win32,29.94011976,2,2,3,,,,,,,,5,04,,,,,,,,,,,5,1.423,1,,,,,,-0.377798977,-0.392437663,1,0,0,1.4235,Obsidian_rect,2,0,2,0,1,
57dd186e6598aa0001992616,TCR,2024-06-20_15h07.38.648,LearnStrategy,2023.2.3,Win32,29.94011976,2,2,4,,,,,,,,6,06,,,,,,,,,,,8,4.368,0,,,,,,0.393363498,-0.404009721,1,0,0,4.3675,Pumice_rect,3,0,3,0,1,
57dd186e6598aa0001992616,TCR,2024-06-20_15h07.38.648,LearnStrategy,2023.2.3,Win32,29.94011976,2,2,5,,,,,,,,1,16,,,,,,,,,,,3,2.945,0,,,,,,0.162385034,-0.265144951,1,0,0,2.9448,Diorite_rect,4,0,4,0,1,
57dd186e6598aa0001992616,TCR,2024-06-20_15h07.38.648,LearnStrategy,2023.2.3,Win32,29.94011976,2,2,6,,,,,,,,5,09,,,,,,,,,,,5,2.021,1,,,,,,-0.377336097,-0.394752178,1,0,0,2.0213,Obsidian_rect,5,0,5,0,1,
57dd186e6598aa0001992616,TCR,2024-06-20_15h07.38.648,LearnStrategy,2023.2.3,Win32,29.94011976,2,2,7,,,,,,,,7,16,,,,,,,,,,,6,2.701,0,,,,,,-0.110715697,-0.392437663,1,0,0,2.7008,Pegmatite_rect,6,0,6,0,1,
57dd186e6598aa0001992616,TCR,2024-06-20_15h07.38.648,LearnStrategy,2023.2.3,Win32,29.94011976,2,2,8,,,,,,,,8,15,,,,,,,,,,,3,3.487,0,,,,,,0.19108372,-0.261904748,1,0,0,3.4866,Diorite_rect,7,0,7,0,1,
57dd186e6598aa0001992616,TCR,2024-06-20_15h07.38.648,LearnStrategy,2023.2.3,Win32,29.94011976,2,2,9,,,,,,,,4,10,,,,,,,,,,,4,3.329,1,,,,,,0.323468158,-0.236446265,1,0,0,3.3288,Gabbro_rect,8,0,8,0,1,
57dd186e6598aa0001992616,TCR,2024-06-20_15h07.38.648,LearnStrategy,2023.2.3,Win32,29.94011976,2,2,10,,,,,,,,8,06,,,,,,,,,,,3,2.192,0,,,,,,0.126280181,-0.24986992,1,0,0,2.1921,Diorite_rect,9,0,9,0,1,
57dd186e6598aa0001992616,TCR,2024-06-20_15h07.38.648,LearnStrategy,2023.2.3,Win32,29.94011976,2,2,11,,,,,,,,3,12,,,,,,,,,,,7,2.001,0,,,,,,0.130908989,-0.398455151,1,0,0,2.0012,Peridotite_rect,10,0,10,0,1,
57dd186e6598aa0001992616,TCR,2024-06-20_15h07.38.648,LearnStrategy,2023.2.3,Win32,29.94011976,2,2,12,,,,,,,,2,10,,,,,,,,,,,1,4.092,0,,,,,,-0.411126546,-0.23922355,1,0,0,4.092,Andesite_rect,11,0,11,0,1,
57dd186e6598aa0001992616,TCR,2024-06-20_15h07.38.648,LearnStrategy,2023.2.3,Win32,29.94011976,2,2,13,,,,,,,,6,10,,,,,,,,,,,6,2.173,1,,,,,,-0.145431871,-0.402621115,1,0,0,2.1733,Pegmatite_rect,12,0,12,0,1,
57dd186e6598aa0001992616,TCR,2024-06-20_15h07.38.648,LearnStrategy,2023.2.3,Win32,29.94011976,2,2,14,,,,,,,,1,04,,,,,,,,,,,4,2.824,0,,,,,,0.340131943,-0.257738857,1,0,0,2.8237,Gabbro_rect,13,0,13,0,1,
57dd186e6598aa0001992616,TCR,2024-06-20_15h07.38.648,LearnStrategy,2023.2.3,Win32,29.94011976,2,2,15,,,,,,,,2,09,,,,,,,,,,,2,1.923,1,,,,,,-0.095440444,-0.263293427,1,0,0,1.9227,Basalt_rect,14,0,14,0,1,
57dd186e6598aa0001992616,TCR,2024-06-20_15h07.38.648,LearnStrategy,2023.2.3,Win32,29.94011976,2,2,16,,,,,,,,3,09,,,,,,,,,,,6,2.691,0,,,,,,-0.0602615,-0.41095297,1,0,0,2.6909,Pegmatite_rect,15,0,15,0,1,
57dd186e6598aa0001992616,TCR,2024-06-20_15h07.38.648,LearnStrategy,2023.2.3,Win32,29.94011976,3,1,1,0.044349939,-0.015651216,1,0,0,1.9005,rock_grid_rect_2,3,15,-1,-1,1.901,0.025371862,-0.404472713,1,0,0,4.2606,Peridotite_rect,7,4.261,0,0,0,0,0,1,,,,,,,,,,,,,
57dd186e6598aa0001992616,TCR,2024-06-20_15h07.38.648,LearnStrategy,2023.2.3,Win32,29.94011976,3,1,2,0.00130191,0.012584626,1,0,0,1.365,rock_grid_rect_2,6,15,-1,-1,1.365,-0.071833558,-0.407249998,1,0,0,1.6354,Pegmatite_rect,6,1.635,1,1,0,1,0,1,,,,,,,,,,,,,
57dd186e6598aa0001992616,TCR,2024-06-20_15h07.38.648,LearnStrategy,2023.2.3,Win32,29.94011976,3,1,3,0.06055088,0.001012531,1,0,0,0.9336,rock_grid_rect_2,8,03,-1,-1,0.934,0.3257826,-0.23922355,1,0,0,1.8247,Gabbro_rect,4,1.825,0,2,0,2,0,1,,,,,,,,,,,,,
57dd186e6598aa0001992616,TCR,2024-06-20_15h07.38.648,LearnStrategy,2023.2.3,Win32,29.94011976,3,1,4,0.112393682,-0.005467801,1,0,0,1.0292,rock_grid_rect_2,2,11,-1,-1,1.029,-0.354191981,-0.249406928,1,0,0,2.2007,Andesite_rect,1,2.201,0,3,0,3,0,1,,,,,,,,,,,,,
57dd186e6598aa0001992616,TCR,2024-06-20_15h07.38.648,LearnStrategy,2023.2.3,Win32,29.94011976,3,1,5,0.037869682,-0.009633765,1,0,0,1.1001,rock_grid_rect_2,2,05,-1,-1,1.1,-0.364375396,-0.231817382,1,0,0,2.2575,Andesite_rect,1,2.258,0,4,0,4,0,1,,,,,,,,,,,,,
57dd186e6598aa0001992616,TCR,2024-06-20_15h07.38.648,LearnStrategy,2023.2.3,Win32,29.94011976,3,1,6,0.022131585,-0.012873931,1,0,0,0.9004,rock_grid_rect_2,1,10,-1,-1,0.9,0.35309268,-0.261441978,1,0,0,2.5621,Gabbro_rect,4,2.562,0,5,0,5,0,1,,,,,,,,,,,,,
57dd186e6598aa0001992616,TCR,2024-06-20_15h07.38.648,LearnStrategy,2023.2.3,Win32,29.94011976,3,1,7,0.086009363,-0.003153397,1,0,0,1.1636,rock_grid_rect_2,6,03,-1,-1,1.164,-0.376410335,-0.384568651,1,0,0,2.3125,Obsidian_rect,5,2.313,0,6,0,6,0,1,,,,,,,,,,,,,
57dd186e6598aa0001992616,TCR,2024-06-20_15h07.38.648,LearnStrategy,2023.2.3,Win32,29.94011976,3,1,8,0.040647041,0.001475412,1,0,0,0.9645,rock_grid_rect_2,4,13,-1,-1,0.965,0.203118696,-0.248018323,1,0,0,1.7935,Diorite_rect,3,1.793,0,7,0,7,0,1,,,,,,,,,,,,,
57dd186e6598aa0001992616,TCR,2024-06-20_15h07.38.648,LearnStrategy,2023.2.3,Win32,29.94011976,3,1,9,0.062865247,-0.010559527,1,0,0,1.2006,rock_grid_rect_2,7,08,-1,-1,1.201,0.341983466,-0.260516142,1,0,0,4.159,Gabbro_rect,4,4.159,0,8,0,8,0,1,,,,,,,,,,,,,
57dd186e6598aa0001992616,TCR,2024-06-20_15h07.38.648,LearnStrategy,2023.2.3,Win32,29.94011976,3,1,10,0.073511543,-0.002690516,1,0,0,1.1298,rock_grid_rect_2,3,06,-1,-1,1.13,0.102210303,-0.238297788,1,0,0,2.2909,Diorite_rect,3,2.291,1,9,0,9,0,1,,,,,,,,,,,,,
57dd186e6598aa0001992616,TCR,2024-06-20_15h07.38.648,LearnStrategy,2023.2.3,Win32,29.94011976,3,1,11,0.067494055,-0.001301873,1,0,0,1.0301,rock_grid_rect_2,5,16,-1,-1,1.03,-0.361598074,-0.389660378,1,0,0,2.127,Obsidian_rect,5,2.127,1,10,0,10,0,1,,,,,,,,,,,,,
57dd186e6598aa0001992616,TCR,2024-06-20_15h07.38.648,LearnStrategy,2023.2.3,Win32,29.94011976,3,1,12,0.079529031,-0.01241105,1,0,0,0.9973,rock_grid_rect_2,8,04,-1,-1,0.997,0.393826268,-0.390586288,1,0,0,1.7676,Pumice_rect,8,1.768,1,11,0,11,0,1,,,,,,,,,,,,,
57dd186e6598aa0001992616,TCR,2024-06-20_15h07.38.648,LearnStrategy,2023.2.3,Win32,29.94011976,3,1,13,0.131834751,-0.008708004,1,0,0,1.7337,rock_grid_rect_2,1,10,-1,-1,1.734,-0.403257535,-0.240612229,1,0,0,2.3932,Andesite_rect,1,2.393,1,12,0,12,0,1,,,,,,,,,,,,,
57dd186e6598aa0001992616,TCR,2024-06-20_15h07.38.648,LearnStrategy,2023.2.3,Win32,29.94011976,3,1,14,0.051293189,-0.008245123,1,0,0,0.8995,rock_grid_rect_2,1,02,-1,-1,0.899,0.369756465,-0.246166799,1,0,0,4.2709,Gabbro_rect,4,4.271,0,13,0,13,0,1,,,,,,,,,,,,,
57dd186e6598aa0001992616,TCR,2024-06-20_15h07.38.648,LearnStrategy,2023.2.3,Win32,29.94011976,3,1,15,0.03185212,0.013973269,1,0,0,0.9298,rock_grid_rect_2,3,14,-1,-1,0.93,-0.088034499,-0.388734616,1,0,0,1.6012,Pegmatite_rect,6,1.601,0,14,0,14,0,1,,,,,,,,,,,,,
57dd186e6598aa0001992616,TCR,2024-06-20_15h07.38.648,LearnStrategy,2023.2.3,Win32,29.94011976,3,1,16,0.038332451,-0.016114097,1,0,0,1.0609,rock_grid_rect_2,7,10,-1,-1,1.061,0.106839112,-0.398918068,1,0,0,4.813,Peridotite_rect,7,4.813,1,15,0,15,0,1,,,,,,,,,,,,,
57dd186e6598aa0001992616,TCR,2024-06-20_15h07.38.648,LearnStrategy,2023.2.3,Win32,29.94011976,3,2,1,,,,,,,,5,06,,,,,,,,,,,5,3.257,1,,,,,,-0.367615562,-0.387345936,1,0,0,3.2569,Obsidian_rect,0,0,0,0,1,
57dd186e6598aa0001992616,TCR,2024-06-20_15h07.38.648,LearnStrategy,2023.2.3,Win32,29.94011976,3,2,2,,,,,,,,6,13,,,,,,,,,,,6,1.891,1,,,,,,-0.143117504,-0.393363498,1,0,0,1.8914,Pegmatite_rect,1,0,1,0,1,
57dd186e6598aa0001992616,TCR,2024-06-20_15h07.38.648,LearnStrategy,2023.2.3,Win32,29.94011976,3,2,3,,,,,,,,4,16,,,,,,,,,,,1,3.959,0,,,,,,-0.327344781,-0.246166799,1,0,0,3.9593,Andesite_rect,2,0,2,0,1,
57dd186e6598aa0001992616,TCR,2024-06-20_15h07.38.648,LearnStrategy,2023.2.3,Win32,29.94011976,3,2,4,,,,,,,,1,06,,,,,,,,,,,4,3.722,0,,,,,,0.322079553,-0.257276014,1,0,0,3.7217,Gabbro_rect,3,0,3,0,1,
57dd186e6598aa0001992616,TCR,2024-06-20_15h07.38.648,LearnStrategy,2023.2.3,Win32,29.94011976,3,2,5,,,,,,,,2,14,,,,,,,,,,,1,1.895,0,,,,,,-0.33937972,-0.241537917,1,0,0,1.8952,Andesite_rect,4,0,4,0,1,
57dd186e6598aa0001992616,TCR,2024-06-20_15h07.38.648,LearnStrategy,2023.2.3,Win32,29.94011976,3,2,6,,,,,,,,4,14,,,,,,,,,,,1,1.361,0,,,,,,-0.349100254,-0.268385154,1,0,0,1.3613,Andesite_rect,5,0,5,0,1,
57dd186e6598aa0001992616,TCR,2024-06-20_15h07.38.648,LearnStrategy,2023.2.3,Win32,29.94011976,3,2,7,,,,,,,,2,02,,,,,,,,,,,2,1.475,1,,,,,,-0.146357707,-0.269310989,1,0,0,1.4753,Basalt_rect,6,0,6,0,1,
57dd186e6598aa0001992616,TCR,2024-06-20_15h07.38.648,LearnStrategy,2023.2.3,Win32,29.94011976,3,2,8,,,,,,,,8,13,,,,,,,,,,,8,2.758,1,,,,,,0.354481286,-0.392437663,1,0,0,2.758,Pumice_rect,7,0,7,0,1,
57dd186e6598aa0001992616,TCR,2024-06-20_15h07.38.648,LearnStrategy,2023.2.3,Win32,29.94011976,3,2,9,,,,,,,,7,04,,,,,,,,,,,3,2.134,0,,,,,,0.123502896,-0.261904748,1,0,0,2.1339,Diorite_rect,8,0,8,0,1,
57dd186e6598aa0001992616,TCR,2024-06-20_15h07.38.648,LearnStrategy,2023.2.3,Win32,29.94011976,3,2,10,,,,,,,,5,11,,,,,,,,,,,5,1.324,1,,,,,,-0.336602435,-0.405861318,1,0,0,1.3237,Obsidian_rect,9,0,9,0,1,
57dd186e6598aa0001992616,TCR,2024-06-20_15h07.38.648,LearnStrategy,2023.2.3,Win32,29.94011976,3,2,11,,,,,,,,8,05,,,,,,,,,,,8,1.432,1,,,,,,0.389197534,-0.392437663,1,0,0,1.4321,Pumice_rect,10,0,10,0,1,
57dd186e6598aa0001992616,TCR,2024-06-20_15h07.38.648,LearnStrategy,2023.2.3,Win32,29.94011976,3,2,12,,,,,,,,1,07,,,,,,,,,,,7,1.832,0,,,,,,0.18552915,-0.379939843,1,0,0,1.8319,Peridotite_rect,11,0,11,0,1,
57dd186e6598aa0001992616,TCR,2024-06-20_15h07.38.648,LearnStrategy,2023.2.3,Win32,29.94011976,3,2,13,,,,,,,,6,11,,,,,,,,,,,7,2.491,0,,,,,,0.18552915,-0.379939843,1,0,0,2.4913,Peridotite_rect,12,0,12,0,1,
57dd186e6598aa0001992616,TCR,2024-06-20_15h07.38.648,LearnStrategy,2023.2.3,Win32,29.94011976,3,2,14,,,,,,,,3,08,,,,,,,,,,,7,1.717,0,,,,,,0.18552915,-0.379939843,1,0,0,1.7171,Peridotite_rect,13,0,13,0,1,
57dd186e6598aa0001992616,TCR,2024-06-20_15h07.38.648,LearnStrategy,2023.2.3,Win32,29.94011976,3,2,15,,,,,,,,7,14,,,,,,,,,,,4,2.244,0,,,,,,0.330411408,-0.260053299,1,0,0,2.2444,Gabbro_rect,14,0,14,0,1,
57dd186e6598aa0001992616,TCR,2024-06-20_15h07.38.648,LearnStrategy,2023.2.3,Win32,29.94011976,3,2,16,,,,,,,,3,02,,,,,,,,,,,5,2.09,0,,,,,,-0.410663665,-0.408175685,1,0,0,2.0898,Obsidian_rect,15,0,15,0,1,
57dd186e6598aa0001992616,TCR,2024-06-20_15h07.38.648,LearnStrategy,2023.2.3,Win32,29.94011976,4,1,1,0.154053105,-0.002227635,1,0,0,1.5998,rock_grid_rect_2,8,10,-1,-1,1.6,0.409101521,-0.382254284,1,0,0,1.7585,Pumice_rect,8,1.759,1,0,0,0,0,1,,,,,,,,,,,,,
57dd186e6598aa0001992616,TCR,2024-06-20_15h07.38.648,LearnStrategy,2023.2.3,Win32,29.94011976,4,1,2,0.068419817,-0.012873931,1,0,0,1.0638,rock_grid_rect_2,4,03,-1,-1,1.064,0.138778001,-0.380865753,1,0,0,3.8615,Peridotite_rect,7,3.861,0,1,0,1,0,1,,,,,,,,,,,,,
57dd186e6598aa0001992616,TCR,2024-06-20_15h07.38.648,LearnStrategy,2023.2.3,Win32,29.94011976,4,1,3,0.089249566,-0.009633765,1,0,0,1.6645,rock_grid_rect_2,1,10,-1,-1,1.664,-0.395851404,-0.254498803,1,0,0,1.6557,Andesite_rect,1,1.656,1,2,0,2,0,1,,,,,,,,,,,,,
57dd186e6598aa0001992616,TCR,2024-06-20_15h07.38.648,LearnStrategy,2023.2.3,Win32,29.94011976,4,1,4,0.058236438,-0.007782205,1,0,0,0.9964,rock_grid_rect_2,2,05,-1,-1,0.996,-0.080628257,-0.248944084,1,0,0,3.5018,Basalt_rect,2,3.502,1,3,0,3,0,1,,,,,,,,,,,,,
57dd186e6598aa0001992616,TCR,2024-06-20_15h07.38.648,LearnStrategy,2023.2.3,Win32,29.94011976,4,1,5,0.036481002,-0.014262574,1,0,0,1.1959,rock_grid_rect_2,3,07,-1,-1,1.196,0.143406809,-0.379014081,1,0,0,2.5253,Peridotite_rect,7,2.525,0,4,0,4,0,1,,,,,,,,,,,,,
57dd186e6598aa0001992616,TCR,2024-06-20_15h07.38.648,LearnStrategy,2023.2.3,Win32,29.94011976,4,1,6,0.048052986,0.007030019,1,0,0,1.0992,rock_grid_rect_2,6,05,-1,-1,1.099,-0.095440444,-0.384568651,1,0,0,2.5266,Pegmatite_rect,6,2.527,1,5,0,5,0,1,,,,,,,,,,,,,
57dd186e6598aa0001992616,TCR,2024-06-20_15h07.38.648,LearnStrategy,2023.2.3,Win32,29.94011976,4,1,7,0.085546519,0.01489903,1,0,0,1.3002,rock_grid_rect_2,2,08,-1,-1,1.3,-0.09590351,-0.237834944,1,0,0,1.7271,Basalt_rect,2,1.727,1,6,0,6,0,1,,,,,,,,,,,,,
57dd186e6598aa0001992616,TCR,2024-06-20_15h07.38.648,LearnStrategy,2023.2.3,Win32,29.94011976,4,1,8,0.030000596,-0.004542039,1,0,0,0.9287,rock_grid_rect_2,6,09,-1,-1,0.929,0.173494174,-0.410027357,1,0,0,2.4691,Peridotite_rect,7,2.469,0,7,0,7,0,1,,,,,,,,,,,,,
57dd186e6598aa0001992616,TCR,2024-06-20_15h07.38.648,LearnStrategy,2023.2.3,Win32,29.94011976,4,1,9,0.080917711,0.013973269,1,0,0,1.5331,rock_grid_rect_2,1,03,-1,-1,1.533,-0.357432146,-0.263756271,1,0,0,1.7629,Andesite_rect,1,1.763,1,8,0,8,0,1,,,,,,,,,,,,,
57dd186e6598aa0001992616,TCR,2024-06-20_15h07.38.648,LearnStrategy,2023.2.3,Win32,29.94011976,4,1,10,-0.014898956,0.009344423,1,0,0,1.1678,rock_grid_rect_2,3,15,-1,-1,1.168,0.189232197,-0.267459392,1,0,0,3.4781,Diorite_rect,3,3.478,1,9,0,9,0,1,,,,,,,,,,,,,
57dd186e6598aa0001992616,TCR,2024-06-20_15h07.38.648,LearnStrategy,2023.2.3,Win32,29.94011976,4,1,11,0.042035572,0.009344423,1,0,0,1.4334,rock_grid_rect_2,4,11,-1,-1,1.433,-0.377336097,-0.245241038,1,0,0,9.08,Andesite_rect,1,9.08,0,10,0,10,0,1,,,,,,,,,,,,,
57dd186e6598aa0001992616,TCR,2024-06-20_15h07.38.648,LearnStrategy,2023.2.3,Win32,29.94011976,4,1,12,0.06610545,0.013973269,1,0,0,1.2323,rock_grid_rect_2,7,07,-1,-1,1.232,-0.136637172,-0.380865753,1,0,0,2.4235,Pegmatite_rect,6,2.423,0,11,0,11,0,1,,,,,,,,,,,,,
57dd186e6598aa0001992616,TCR,2024-06-20_15h07.38.648,LearnStrategy,2023.2.3,Win32,29.94011976,4,1,13,0.050367576,-0.018428538,1,0,0,0.9671,rock_grid_rect_2,7,07,-1,-1,0.967,0.136463559,-0.384105808,1,0,0,1.5246,Peridotite_rect,7,1.525,1,12,0,12,0,1,,,,,,,,,,,,,
57dd186e6598aa0001992616,TCR,2024-06-20_15h07.38.648,LearnStrategy,2023.2.3,Win32,29.94011976,4,1,14,0.051293189,-0.005467801,1,0,0,0.8995,rock_grid_rect_2,1,02,-1,-1,0.899,0.427153836,-0.390586288,1,0,0,1.8256,Pumice_rect,8,1.826,0,13,0,13,0,1,,,,,,,,,,,,,
57dd186e6598aa0001992616,TCR,2024-06-20_15h07.38.648,LearnStrategy,2023.2.3,Win32,29.94011976,4,1,15,0.109616397,-0.00500492,1,0,0,1.0663,rock_grid_rect_2,7,10,-1,-1,1.066,0.089249566,-0.409564365,1,0,0,3.7621,Peridotite_rect,7,3.762,1,14,0,14,0,1,,,,,,,,,,,,,
57dd186e6598aa0001992616,TCR,2024-06-20_15h07.38.648,LearnStrategy,2023.2.3,Win32,29.94011976,4,1,16,0.077677508,-0.019817181,1,0,0,1.9676,rock_grid_rect_2,3,06,-1,-1,1.968,0.355869965,-0.258664619,1,0,0,4.2509,Gabbro_rect,4,4.251,0,15,0,15,0,1,,,,,,,,,,,,,
57dd186e6598aa0001992616,TCR,2024-06-20_15h07.38.648,LearnStrategy,2023.2.3,Win32,29.94011976,4,2,1,,,,,,,,5,10,,,,,,,,,,,5,1.917,1,,,,,,-0.383816465,-0.383642964,1,0,0,1.9171,Obsidian_rect,0,0,0,0,1,
57dd186e6598aa0001992616,TCR,2024-06-20_15h07.38.648,LearnStrategy,2023.2.3,Win32,29.94011976,4,2,2,,,,,,,,1,07,,,,,,,,,,,3,5.294,0,,,,,,0.218856719,-0.265144951,1,0,0,5.2942,Diorite_rect,1,0,1,0,1,
57dd186e6598aa0001992616,TCR,2024-06-20_15h07.38.648,LearnStrategy,2023.2.3,Win32,29.94011976,4,2,3,,,,,,,,8,05,,,,,,,,,,,8,3.522,1,,,,,,0.366516187,-0.402621115,1,0,0,3.5218,Pumice_rect,2,0,2,0,1,
57dd186e6598aa0001992616,TCR,2024-06-20_15h07.38.648,LearnStrategy,2023.2.3,Win32,29.94011976,4,2,4,,,,,,,,8,15,,,,,,,,,,,8,1.898,1,,,,,,0.338743263,-0.391511901,1,0,0,1.8982,Pumice_rect,3,0,3,0,1,
57dd186e6598aa0001992616,TCR,2024-06-20_15h07.38.648,LearnStrategy,2023.2.3,Win32,29.94011976,4,2,5,,,,,,,,6,12,,,,,,,,,,,7,3.011,0,,,,,,0.175345772,-0.383642964,1,0,0,3.0111,Peridotite_rect,4,0,4,0,1,
57dd186e6598aa0001992616,TCR,2024-06-20_15h07.38.648,LearnStrategy,2023.2.3,Win32,29.94011976,4,2,6,,,,,,,,6,11,,,,,,,,,,,7,5.541,0,,,,,,0.17997458,-0.379014081,1,0,0,5.5409,Peridotite_rect,5,0,5,0,1,
57dd186e6598aa0001992616,TCR,2024-06-20_15h07.38.648,LearnStrategy,2023.2.3,Win32,29.94011976,4,2,7,,,,,,,,1,16,,,,,,,,,,,4,4.793,0,,,,,,0.395215022,-0.251258451,1,0,0,4.7926,Gabbro_rect,6,0,6,0,1,
57dd186e6598aa0001992616,TCR,2024-06-20_15h07.38.648,LearnStrategy,2023.2.3,Win32,29.94011976,4,2,8,,,,,,,,4,10,,,,,,,,,,,1,3.505,0,,,,,,-0.360209431,-0.26653363,1,0,0,3.5052,Andesite_rect,7,0,7,0,1,
57dd186e6598aa0001992616,TCR,2024-06-20_15h07.38.648,LearnStrategy,2023.2.3,Win32,29.94011976,4,2,9,,,,,,,,3,13,,,,,,,,,,,7,3.62,0,,,,,,0.056384915,-0.386420249,1,0,0,3.6195,Peridotite_rect,8,0,8,0,1,
57dd186e6598aa0001992616,TCR,2024-06-20_15h07.38.648,LearnStrategy,2023.2.3,Win32,29.94011976,4,2,10,,,,,,,,3,12,,,,,,,,,,,8,2.393,0,,,,,,0.42854259,-0.402158197,1,0,0,2.3931,Pumice_rect,9,0,9,0,1,
57dd186e6598aa0001992616,TCR,2024-06-20_15h07.38.648,LearnStrategy,2023.2.3,Win32,29.94011976,4,2,11,,,,,,,,2,14,,,,,,,,,,,1,3.67,0,,,,,,-0.352340457,-0.250795608,1,0,0,3.6697,Andesite_rect,10,0,10,0,1,
57dd186e6598aa0001992616,TCR,2024-06-20_15h07.38.648,LearnStrategy,2023.2.3,Win32,29.94011976,4,2,12,,,,,,,,4,16,,,,,,,,,,,2,1.785,0,,,,,,-0.139877301,-0.248481166,1,0,0,1.7846,Basalt_rect,11,0,11,0,1,
57dd186e6598aa0001992616,TCR,2024-06-20_15h07.38.648,LearnStrategy,2023.2.3,Win32,29.94011976,4,2,13,,,,,,,,7,14,,,,,,,,,,,8,2.023,0,,,,,,0.405861244,-0.396603627,1,0,0,2.0233,Pumice_rect,12,0,12,0,1,
57dd186e6598aa0001992616,TCR,2024-06-20_15h07.38.648,LearnStrategy,2023.2.3,Win32,29.94011976,4,2,14,,,,,,,,7,04,,,,,,,,,,,7,1.615,1,,,,,,0.183677627,-0.400769592,1,0,0,1.6153,Peridotite_rect,13,0,13,0,1,
57dd186e6598aa0001992616,TCR,2024-06-20_15h07.38.648,LearnStrategy,2023.2.3,Win32,29.94011976,4,2,15,,,,,,,,2,12,,,,,,,,,,,8,1.733,0,,,,,,0.385957257,-0.396140783,1,0,0,1.7327,Pumice_rect,14,0,14,0,1,
57dd186e6598aa0001992616,TCR,2024-06-20_15h07.38.648,LearnStrategy,2023.2.3,Win32,29.94011976,4,2,16,,,,,,,,5,11,,,,,,,,,,,5,1.377,1,,,,,,-0.364838277,-0.379014081,1,0,0,1.3767,Obsidian_rect,15,0,15,0,1,
57dd186e6598aa0001992616,TCR,2024-06-20_15h07.38.648,LearnStrategy,2023.2.3,Win32,29.94011976,5,1,1,0.022131585,-0.001764754,1,0,0,7.373,rock_grid_rect_2,7,05,-1,-1,7.373,0.125354419,-0.415119009,1,0,0,2.4973,Peridotite_rect,7,2.497,1,0,0,0,0,1,,,,,,,,,,,,,
57dd186e6598aa0001992616,TCR,2024-06-20_15h07.38.648,LearnStrategy,2023.2.3,Win32,29.94011976,5,1,2,0.083232078,-0.000376112,1,0,0,0.9999,rock_grid_rect_2,2,04,-1,-1,1,-0.098680795,-0.240149386,1,0,0,1.719,Basalt_rect,2,1.719,1,1,0,1,0,1,,,,,,,,,,,,,
57dd186e6598aa0001992616,TCR,2024-06-20_15h07.38.648,LearnStrategy,2023.2.3,Win32,29.94011976,5,1,3,0.028611917,-0.018428538,1,0,0,1.0301,rock_grid_rect_2,2,08,-1,-1,1.03,-0.115807423,-0.235520503,1,0,0,1.6936,Basalt_rect,2,1.694,1,2,0,2,0,1,,,,,,,,,,,,,
57dd186e6598aa0001992616,TCR,2024-06-20_15h07.38.648,LearnStrategy,2023.2.3,Win32,29.94011976,5,1,4,0.10035878,-0.008708004,1,0,0,1.7009,rock_grid_rect_2,4,11,-1,-1,1.701,0.356795653,-0.250332764,1,0,0,3.326,Gabbro_rect,4,3.326,1,3,0,3,0,1,,,,,,,,,,,,,
57dd186e6598aa0001992616,TCR,2024-06-20_15h07.38.648,LearnStrategy,2023.2.3,Win32,29.94011976,5,1,5,0.068419817,-0.014262574,1,0,0,0.9667,rock_grid_rect_2,3,06,-1,-1,0.967,0.126280181,-0.229503015,1,0,0,1.7606,Diorite_rect,3,1.761,1,4,0,4,0,1,,,,,,,,,,,,,
57dd186e6598aa0001992616,TCR,2024-06-20_15h07.38.648,LearnStrategy,2023.2.3,Win32,29.94011976,5,1,6,0.03185212,-0.015651216,1,0,0,1.0662,rock_grid_rect_2,1,03,-1,-1,1.066,-0.3398426,-0.250332764,1,0,0,2.4272,Andesite_rect,1,2.427,1,5,0,5,0,1,,,,,,,,,,,,,
57dd186e6598aa0001992616,TCR,2024-06-20_15h07.38.648,LearnStrategy,2023.2.3,Win32,29.94011976,5,1,7,0.039721131,-0.01241105,1,0,0,0.9954,rock_grid_rect_2,6,15,-1,-1,0.995,-0.155152405,-0.404935482,1,0,0,1.5899,Pegmatite_rect,6,1.59,1,6,0,6,0,1,,,,,,,,,,,,,
57dd186e6598aa0001992616,TCR,2024-06-20_15h07.38.648,LearnStrategy,2023.2.3,Win32,29.94011976,5,1,8,0.04110981,-0.007782205,1,0,0,1.0001,rock_grid_rect_2,4,03,-1,-1,1,0.385957257,-0.234594667,1,0,0,2.3596,Gabbro_rect,4,2.36,1,7,0,7,0,1,,,,,,,,,,,,,
57dd186e6598aa0001992616,TCR,2024-06-20_15h07.38.648,LearnStrategy,2023.2.3,Win32,29.94011976,5,1,9,0.009633765,0.002864091,1,0,0,1.6993,rock_grid_rect_2,1,02,-1,-1,1.699,0.192935244,-0.256813096,1,0,0,2.984,Diorite_rect,3,2.984,0,8,0,8,0,1,,,,,,,,,,,,,
57dd186e6598aa0001992616,TCR,2024-06-20_15h07.38.648,LearnStrategy,2023.2.3,Win32,29.94011976,5,1,10,0.023057347,-0.010559527,1,0,0,1.5336,rock_grid_rect_2,4,03,-1,-1,1.534,0.391974745,-0.251258451,1,0,0,1.4921,Gabbro_rect,4,1.492,1,9,0,9,0,1,,,,,,,,,,,,,
57dd186e6598aa0001992616,TCR,2024-06-20_15h07.38.648,LearnStrategy,2023.2.3,Win32,29.94011976,5,1,11,0.069808496,-0.013799693,1,0,0,1.1316,rock_grid_rect_2,1,10,-1,-1,1.132,-0.391685477,-0.228577253,1,0,0,1.4938,Andesite_rect,1,1.494,1,10,0,10,0,1,,,,,,,,,,,,,
57dd186e6598aa0001992616,TCR,2024-06-20_15h07.38.648,LearnStrategy,2023.2.3,Win32,29.94011976,5,1,12,0.057773521,-0.01194817,1,0,0,1.1954,rock_grid_rect_2,3,07,-1,-1,1.195,0.367904941,-0.395214948,1,0,0,3.5609,Pumice_rect,8,3.561,0,11,0,11,0,1,,,,,,,,,,,,,
57dd186e6598aa0001992616,TCR,2024-06-20_15h07.38.648,LearnStrategy,2023.2.3,Win32,29.94011976,5,1,13,0.089712484,0.007030019,1,0,0,1.1668,rock_grid_rect_2,3,07,-1,-1,1.167,0.12766886,-0.23366898,1,0,0,1.4586,Diorite_rect,3,1.459,1,12,0,12,0,1,,,,,,,,,,,,,
57dd186e6598aa0001992616,TCR,2024-06-20_15h07.38.648,LearnStrategy,2023.2.3,Win32,29.94011976,5,1,14,0.03740669,0.010270185,1,0,0,1.2313,rock_grid_rect_2,7,05,-1,-1,1.231,-0.116733185,-0.386420249,1,0,0,3.6657,Pegmatite_rect,6,3.666,0,13,0,13,0,1,,,,,,,,,,,,,
57dd186e6598aa0001992616,TCR,2024-06-20_15h07.38.648,LearnStrategy,2023.2.3,Win32,29.94011976,5,1,15,0.030463514,0.003789853,1,0,0,1.0668,rock_grid_rect_2,8,16,-1,-1,1.067,0.373922429,-0.379014081,1,0,0,2.0775,Pumice_rect,8,2.077,1,14,0,14,0,1,,,,,,,,,,,,,
57dd186e6598aa0001992616,TCR,2024-06-20_15h07.38.648,LearnStrategy,2023.2.3,Win32,29.94011976,5,1,16,0.052681868,-0.013336812,1,0,0,1.0332,rock_grid_rect_2,6,09,-1,-1,1.033,-0.098680795,-0.397992233,1,0,0,3.9308,Pegmatite_rect,6,3.931,1,15,0,15,0,1,,,,,,,,,,,,,
57dd186e6598aa0001992616,TCR,2024-06-20_15h07.38.648,LearnStrategy,2023.2.3,Win32,29.94011976,5,2,1,,,,,,,,3,09,,,,,,,,,,,3,2.091,1,,,,,,0.141092442,-0.238297788,1,0,0,2.0909,Diorite_rect,0,0,0,0,1,
57dd186e6598aa0001992616,TCR,2024-06-20_15h07.38.648,LearnStrategy,2023.2.3,Win32,29.94011976,5,2,2,,,,,,,,8,13,,,,,,,,,,,8,2.219,1,,,,,,0.350778239,-0.388271698,1,0,0,2.2191,Pumice_rect,1,0,1,0,1,
57dd186e6598aa0001992616,TCR,2024-06-20_15h07.38.648,LearnStrategy,2023.2.3,Win32,29.94011976,5,2,3,,,,,,,,1,11,,,,,,,,,,,7,3.86,0,,,,,,0.144795488,-0.393363498,1,0,0,3.8597,Peridotite_rect,2,0,2,0,1,
57dd186e6598aa0001992616,TCR,2024-06-20_15h07.38.648,LearnStrategy,2023.2.3,Win32,29.94011976,5,2,4,,,,,,,,7,16,,,,,,,,,,,5,1.638,0,,,,,,-0.388445274,-0.400769592,1,0,0,1.6384,Obsidian_rect,3,0,3,0,1,
57dd186e6598aa0001992616,TCR,2024-06-20_15h07.38.648,LearnStrategy,2023.2.3,Win32,29.94011976,5,2,5,,,,,,,,6,08,,,,,,,,,,,6,2.741,1,,,,,,-0.095440444,-0.381791366,1,0,0,2.7412,Pegmatite_rect,4,0,4,0,1,
57dd186e6598aa0001992616,TCR,2024-06-20_15h07.38.648,LearnStrategy,2023.2.3,Win32,29.94011976,5,2,6,,,,,,,,2,09,,,,,,,,,,,2,3.754,1,,,,,,-0.08525714,-0.250795608,1,0,0,3.7542,Basalt_rect,5,0,5,0,1,
57dd186e6598aa0001992616,TCR,2024-06-20_15h07.38.648,LearnStrategy,2023.2.3,Win32,29.94011976,5,2,7,,,,,,,,5,14,,,,,,,,,,,5,1.419,1,,,,,,-0.337991077,-0.390123295,1,0,0,1.4187,Obsidian_rect,6,0,6,0,1,
57dd186e6598aa0001992616,TCR,2024-06-20_15h07.38.648,LearnStrategy,2023.2.3,Win32,29.94011976,5,2,8,,,,,,,,7,13,,,,,,,,,,,7,5.481,1,,,,,,0.092026851,-0.386883093,1,0,0,5.4806,Peridotite_rect,7,0,7,0,1,
57dd186e6598aa0001992616,TCR,2024-06-20_15h07.38.648,LearnStrategy,2023.2.3,Win32,29.94011976,5,2,9,,,,,,,,4,05,,,,,,,,,,,1,5.494,0,,,,,,-0.425475852,-0.256350178,1,0,0,5.494,Andesite_rect,8,0,8,0,1,
57dd186e6598aa0001992616,TCR,2024-06-20_15h07.38.648,LearnStrategy,2023.2.3,Win32,29.94011976,5,2,10,,,,,,,,5,04,,,,,,,,,,,5,1.722,1,,,,,,-0.350026016,-0.386883093,1,0,0,1.7225,Obsidian_rect,9,0,9,0,1,
57dd186e6598aa0001992616,TCR,2024-06-20_15h07.38.648,LearnStrategy,2023.2.3,Win32,29.94011976,5,2,11,,,,,,,,4,09,,,,,,,,,,,1,8.537,0,,,,,,-0.346322969,-0.26653363,1,0,0,8.5373,Andesite_rect,10,0,10,0,1,
57dd186e6598aa0001992616,TCR,2024-06-20_15h07.38.648,LearnStrategy,2023.2.3,Win32,29.94011976,5,2,12,,,,,,,,8,06,,,,,,,,,,,8,1.438,1,,,,,,0.375773952,-0.404935482,1,0,0,1.4378,Pumice_rect,11,0,11,0,1,
57dd186e6598aa0001992616,TCR,2024-06-20_15h07.38.648,LearnStrategy,2023.2.3,Win32,29.94011976,5,2,13,,,,,,,,1,04,,,,,,,,,,,3,2.11,0,,,,,,0.137389395,-0.257276014,1,0,0,2.1097,Diorite_rect,12,0,12,0,1,
57dd186e6598aa0001992616,TCR,2024-06-20_15h07.38.648,LearnStrategy,2023.2.3,Win32,29.94011976,5,2,14,,,,,,,,3,02,,,,,,,,,,,6,2.16,0,,,,,,-0.111641459,-0.407249998,1,0,0,2.1603,Pegmatite_rect,13,0,13,0,1,
57dd186e6598aa0001992616,TCR,2024-06-20_15h07.38.648,LearnStrategy,2023.2.3,Win32,29.94011976,5,2,15,,,,,,,,2,10,,,,,,,,,,,2,6.368,1,,,,,,-0.086182976,-0.248481166,1,0,0,6.3683,Basalt_rect,14,0,14,0,1,
57dd186e6598aa0001992616,TCR,2024-06-20_15h07.38.648,LearnStrategy,2023.2.3,Win32,29.94011976,5,2,16,,,,,,,,6,10,,,,,,,,,,,6,1.871,1,,,,,,-0.109327017,-0.415119009,1,0,0,1.8712,Pegmatite_rect,15,0,15,0,1,
57dd186e6598aa0001992616,TCR,2024-06-20_15h07.38.648,LearnStrategy,2023.2.3,Win32,29.94011976,6,1,1,0.078140351,-0.007782205,1,0,0,1.6669,rock_grid_rect_2,3,15,-1,-1,1.667,0.155904703,-0.262367666,1,0,0,3.4617,Diorite_rect,3,3.462,1,0,0,0,0,1,,,,,,,,,,,,,
57dd186e6598aa0001992616,TCR,2024-06-20_15h07.38.648,LearnStrategy,2023.2.3,Win32,29.94011976,6,1,2,0.07166002,-0.016576978,1,0,0,1.4303,rock_grid_rect_2,3,14,-1,-1,1.43,0.107764873,-0.257738857,1,0,0,1.5939,Diorite_rect,3,1.594,1,1,0,1,0,1,,,,,,,,,,,,,
57dd186e6598aa0001992616,TCR,2024-06-20_15h07.38.648,LearnStrategy,2023.2.3,Win32,29.94011976,6,1,3,0.073511543,-0.010559527,1,0,0,0.9319,rock_grid_rect_2,8,10,-1,-1,0.932,0.381328523,-0.400306822,1,0,0,2.974,Pumice_rect,8,2.974,1,2,0,2,0,1,,,,,,,,,,,,,
57dd186e6598aa0001992616,TCR,2024-06-20_15h07.38.648,LearnStrategy,2023.2.3,Win32,29.94011976,6,1,4,0.069345653,0.014436149,1,0,0,1.3909,rock_grid_rect_2,7,10,-1,-1,1.391,0.098044339,-0.41095297,1,0,0,3.5624,Peridotite_rect,7,3.562,1,3,0,3,0,1,,,,,,,,,,,,,
57dd186e6598aa0001992616,TCR,2024-06-20_15h07.38.648,LearnStrategy,2023.2.3,Win32,29.94011976,6,1,5,0.035555166,8.67693E-05,1,0,0,1.2988,rock_grid_rect_2,6,16,-1,-1,1.299,-0.126453719,-0.381328523,1,0,0,2.9598,Pegmatite_rect,6,2.96,1,4,0,4,0,1,,,,,,,,,,,,,
57dd186e6598aa0001992616,TCR,2024-06-20_15h07.38.648,LearnStrategy,2023.2.3,Win32,29.94011976,6,1,6,0.005467801,0.004715615,1,0,0,0.8663,rock_grid_rect_2,1,05,-1,-1,0.866,0.126280181,-0.380865753,1,0,0,1.8579,Peridotite_rect,7,1.858,0,5,0,5,0,1,,,,,,,,,,,,,
57dd186e6598aa0001992616,TCR,2024-06-20_15h07.38.648,LearnStrategy,2023.2.3,Win32,29.94011976,6,1,7,0.159144831,0.002864091,1,0,0,1.5335,rock_grid_rect_2,4,15,-1,-1,1.534,0.189695115,-0.263756271,1,0,0,3.7953,Diorite_rect,3,3.795,0,6,0,6,0,1,,,,,,,,,,,,,
57dd186e6598aa0001992616,TCR,2024-06-20_15h07.38.648,LearnStrategy,2023.2.3,Win32,29.94011976,6,1,8,-0.009807304,0.019527839,1,0,0,1.2314,rock_grid_rect_2,6,05,-1,-1,1.231,-0.093126151,-0.378088394,1,0,0,1.5578,Pegmatite_rect,6,1.558,1,7,0,7,0,1,,,,,,,,,,,,,
57dd186e6598aa0001992616,TCR,2024-06-20_15h07.38.648,LearnStrategy,2023.2.3,Win32,29.94011976,6,1,9,0.045275701,-0.002227635,1,0,0,1.1998,rock_grid_rect_2,3,07,-1,-1,1.2,0.205433138,-0.244778268,1,0,0,2.4284,Diorite_rect,3,2.428,1,8,0,8,0,1,,,,,,,,,,,,,
57dd186e6598aa0001992616,TCR,2024-06-20_15h07.38.648,LearnStrategy,2023.2.3,Win32,29.94011976,6,1,10,0.067956973,-0.010096646,1,0,0,1.0667,rock_grid_rect_2,4,15,-1,-1,1.067,-0.41899552,-0.258201701,1,0,0,1.6796,Andesite_rect,1,1.68,0,9,0,9,0,1,,,,,,,,,,,,,
57dd186e6598aa0001992616,TCR,2024-06-20_15h07.38.648,LearnStrategy,2023.2.3,Win32,29.94011976,6,1,11,0.014725492,-0.003616277,1,0,0,1.1537,rock_grid_rect_2,2,11,-1,-1,1.154,-0.428716055,-0.265607869,1,0,0,1.6344,Andesite_rect,1,1.634,0,10,0,10,0,1,,,,,,,,,,,,,
57dd186e6598aa0001992616,TCR,2024-06-20_15h07.38.648,LearnStrategy,2023.2.3,Win32,29.94011976,6,1,12,0.038332451,0.006567138,1,0,0,0.9998,rock_grid_rect_2,2,06,-1,-1,1,-0.13200829,-0.246166799,1,0,0,1.9675,Basalt_rect,2,1.967,1,11,0,11,0,1,,,,,,,,,,,,,
57dd186e6598aa0001992616,TCR,2024-06-20_15h07.38.648,LearnStrategy,2023.2.3,Win32,29.94011976,6,1,13,0.049904583,-0.008245123,1,0,0,1.1288,rock_grid_rect_2,7,08,-1,-1,1.129,0.111005076,-0.394289186,1,0,0,3.6614,Peridotite_rect,7,3.661,1,12,0,12,0,1,,,,,,,,,,,,,
57dd186e6598aa0001992616,TCR,2024-06-20_15h07.38.648,LearnStrategy,2023.2.3,Win32,29.94011976,6,1,14,0.035092397,0.009344423,1,0,0,1.2005,rock_grid_rect_2,1,09,-1,-1,1.2,0.413730255,-0.247555479,1,0,0,2.5589,Gabbro_rect,4,2.559,0,13,0,13,0,1,,,,,,,,,,,,,
57dd186e6598aa0001992616,TCR,2024-06-20_15h07.38.648,LearnStrategy,2023.2.3,Win32,29.94011976,6,1,15,-0.025545327,-0.00500492,1,0,0,1.0658,rock_grid_rect_2,4,13,-1,-1,1.066,0.11146792,-0.246629643,1,0,0,3.1925,Diorite_rect,3,3.192,0,14,0,14,0,1,,,,,,,,,,,,,
57dd186e6598aa0001992616,TCR,2024-06-20_15h07.38.648,LearnStrategy,2023.2.3,Win32,29.94011976,6,1,16,-0.026933932,-0.008245123,1,0,0,0.8977,rock_grid_rect_2,1,05,-1,-1,0.898,-0.352340457,-0.264219337,1,0,0,2.2937,Andesite_rect,1,2.294,1,15,0,15,0,1,,,,,,,,,,,,,
57dd186e6598aa0001992616,TCR,2024-06-20_15h07.38.648,LearnStrategy,2023.2.3,Win32,29.94011976,6,2,1,,,,,,,,7,06,,,,,,,,,,,6,4.428,0,,,,,,-0.119047552,-0.381328523,1,0,0,4.4276,Pegmatite_rect,0,0,0,0,1,
57dd186e6598aa0001992616,TCR,2024-06-20_15h07.38.648,LearnStrategy,2023.2.3,Win32,29.94011976,6,2,2,,,,,,,,4,12,,,,,,,,,,,2,4.99,0,,,,,,-0.104698209,-0.261441978,1,0,0,4.9903,Basalt_rect,1,0,1,0,1,
57dd186e6598aa0001992616,TCR,2024-06-20_15h07.38.648,LearnStrategy,2023.2.3,Win32,29.94011976,6,2,3,,,,,,,,5,06,,,,,,,,,,,5,1.219,1,,,,,,-0.340768362,-0.379939843,1,0,0,1.2191,Obsidian_rect,2,0,2,0,1,
57dd186e6598aa0001992616,TCR,2024-06-20_15h07.38.648,LearnStrategy,2023.2.3,Win32,29.94011976,6,2,4,,,,,,,,3,16,,,,,,,,,,,3,1.456,1,,,,,,0.098507257,-0.260516142,1,0,0,1.4564,Diorite_rect,3,0,3,0,1,
57dd186e6598aa0001992616,TCR,2024-06-20_15h07.38.648,LearnStrategy,2023.2.3,Win32,29.94011976,6,2,5,,,,,,,,7,02,,,,,,,,,,,7,1.991,1,,,,,,0.077677508,-0.406787006,1,0,0,1.991,Peridotite_rect,4,0,4,0,1,
57dd186e6598aa0001992616,TCR,2024-06-20_15h07.38.648,LearnStrategy,2023.2.3,Win32,29.94011976,6,2,6,,,,,,,,8,14,,,,,,,,,,,8,1.358,1,,,,,,0.363276059,-0.394289186,1,0,0,1.3584,Pumice_rect,5,0,5,0,1,
57dd186e6598aa0001992616,TCR,2024-06-20_15h07.38.648,LearnStrategy,2023.2.3,Win32,29.94011976,6,2,7,,,,,,,,2,01,,,,,,,,,,,2,1.458,1,,,,,,-0.099143639,-0.247092561,1,0,0,1.4584,Basalt_rect,6,0,6,0,1,
57dd186e6598aa0001992616,TCR,2024-06-20_15h07.38.648,LearnStrategy,2023.2.3,Win32,29.94011976,6,2,8,,,,,,,,1,06,,,,,,,,,,,1,2.893,1,,,,,,-0.329196304,-0.262367666,1,0,0,2.8932,Andesite_rect,7,0,7,0,1,
57dd186e6598aa0001992616,TCR,2024-06-20_15h07.38.648,LearnStrategy,2023.2.3,Win32,29.94011976,6,2,9,,,,,,,,3,08,,,,,,,,,,,6,6.357,0,,,,,,-0.100532319,-0.408638603,1,0,0,6.3573,Pegmatite_rect,8,0,8,0,1,
57dd186e6598aa0001992616,TCR,2024-06-20_15h07.38.648,LearnStrategy,2023.2.3,Win32,29.94011976,6,2,10,,,,,,,,6,13,,,,,,,,,,,7,3.959,0,,,,,,0.154978867,-0.395214948,1,0,0,3.9594,Peridotite_rect,9,0,9,0,1,
57dd186e6598aa0001992616,TCR,2024-06-20_15h07.38.648,LearnStrategy,2023.2.3,Win32,29.94011976,6,2,11,,,,,,,,8,02,,,,,,,,,,,8,2.36,1,,,,,,0.425765231,-0.378088394,1,0,0,2.3595,Pumice_rect,10,0,10,0,1,
57dd186e6598aa0001992616,TCR,2024-06-20_15h07.38.648,LearnStrategy,2023.2.3,Win32,29.94011976,6,2,12,,,,,,,,6,06,,,,,,,,,,,7,1.486,0,,,,,,0.186454912,-0.379014081,1,0,0,1.4857,Peridotite_rect,11,0,11,0,1,
57dd186e6598aa0001992616,TCR,2024-06-20_15h07.38.648,LearnStrategy,2023.2.3,Win32,29.94011976,6,2,13,,,,,,,,1,14,,,,,,,,,,,6,2.793,0,,,,,,-0.081554093,-0.382717128,1,0,0,2.7934,Pegmatite_rect,12,0,12,0,1,
57dd186e6598aa0001992616,TCR,2024-06-20_15h07.38.648,LearnStrategy,2023.2.3,Win32,29.94011976,6,2,14,,,,,,,,5,09,,,,,,,,,,,5,1.289,1,,,,,,-0.355580623,-0.39567794,1,0,0,1.2893,Obsidian_rect,13,0,13,0,1,
57dd186e6598aa0001992616,TCR,2024-06-20_15h07.38.648,LearnStrategy,2023.2.3,Win32,29.94011976,6,2,15,,,,,,,,2,02,,,,,,,,,,,2,2.024,1,,,,,,-0.147746312,-0.249406928,1,0,0,2.0237,Basalt_rect,14,0,14,0,1,
57dd186e6598aa0001992616,TCR,2024-06-20_15h07.38.648,LearnStrategy,2023.2.3,Win32,29.94011976,6,2,16,,,,,,,,4,14,,,,,,,,,,,1,2.8,0,,,,,,-0.385667989,-0.257738857,1,0,0,2.8001,Andesite_rect,15,0,15,0,1,
57dd186e6598aa0001992616,TCR,2024-06-20_15h07.38.648,LearnStrategy,2023.2.3,Win32,29.94011976,7,1,1,0.138778001,-0.002690516,1,0,0,1.5647,rock_grid_rect_2,6,09,-1,-1,1.565,-0.106086889,-0.402158197,1,0,0,2.7933,Pegmatite_rect,6,2.793,1,0,0,0,0,1,,,,,,,,,,,,,
57dd186e6598aa0001992616,TCR,2024-06-20_15h07.38.648,LearnStrategy,2023.2.3,Win32,29.94011976,7,1,2,0.050830345,-0.005930682,1,0,0,1.2615,rock_grid_rect_2,3,06,-1,-1,1.262,0.114245205,-0.255887334,1,0,0,1.6606,Diorite_rect,3,1.661,1,1,0,1,0,1,,,,,,,,,,,,,
57dd186e6598aa0001992616,TCR,2024-06-20_15h07.38.648,LearnStrategy,2023.2.3,Win32,29.94011976,7,1,3,0.058236438,-0.012873931,1,0,0,1.1662,rock_grid_rect_2,4,13,-1,-1,1.166,-0.450008684,-0.230891695,1,0,0,2.2599,Andesite_rect,1,2.26,0,2,0,2,0,1,,,,,,,,,,,,,
57dd186e6598aa0001992616,TCR,2024-06-20_15h07.38.648,LearnStrategy,2023.2.3,Win32,29.94011976,7,1,4,0.083694996,0.014436149,1,0,0,1.1662,rock_grid_rect_2,1,03,-1,-1,1.166,-0.133859813,-0.23922355,1,0,0,2.2603,Basalt_rect,2,2.26,0,3,0,3,0,1,,,,,,,,,,,,,
57dd186e6598aa0001992616,TCR,2024-06-20_15h07.38.648,LearnStrategy,2023.2.3,Win32,29.94011976,7,1,5,0.056384915,-0.014725455,1,0,0,0.9638,rock_grid_rect_2,1,05,-1,-1,0.964,-0.1139559,-0.396140783,1,0,0,1.7607,Pegmatite_rect,6,1.761,0,4,0,4,0,1,,,,,,,,,,,,,
57dd186e6598aa0001992616,TCR,2024-06-20_15h07.38.648,LearnStrategy,2023.2.3,Win32,29.94011976,7,1,6,0.067031211,-0.002690516,1,0,0,0.9281,rock_grid_rect_2,4,01,-1,-1,0.928,-0.096366354,-0.407249998,1,0,0,2.5617,Pegmatite_rect,6,2.562,0,5,0,5,0,1,,,,,,,,,,,,,
57dd186e6598aa0001992616,TCR,2024-06-20_15h07.38.648,LearnStrategy,2023.2.3,Win32,29.94011976,7,1,7,0.029537753,-0.006393562,1,0,0,0.9295,rock_grid_rect_2,4,15,-1,-1,0.929,-0.396777166,-0.264219337,1,0,0,2.8806,Andesite_rect,1,2.881,0,6,0,6,0,1,,,,,,,,,,,,,
57dd186e6598aa0001992616,TCR,2024-06-20_15h07.38.648,LearnStrategy,2023.2.3,Win32,29.94011976,7,1,8,-0.079239726,0.002864091,1,0,0,1.8296,rock_grid_rect_2,3,10,-1,-1,1.83,0.167939604,-0.233206062,1,0,0,1.8582,Diorite_rect,3,1.858,1,7,0,7,0,1,,,,,,,,,,,,,
57dd186e6598aa0001992616,TCR,2024-06-20_15h07.38.648,LearnStrategy,2023.2.3,Win32,29.94011976,7,1,9,0.057310751,0.008881542,1,0,0,0.8997,rock_grid_rect_2,1,05,-1,-1,0.9,-0.356969266,-0.248944084,1,0,0,2.3935,Andesite_rect,1,2.393,1,8,0,8,0,1,,,,,,,,,,,,,
57dd186e6598aa0001992616,TCR,2024-06-20_15h07.38.648,LearnStrategy,2023.2.3,Win32,29.94011976,7,1,10,0.033703717,-0.006393562,1,0,0,1.0624,rock_grid_rect_2,5,12,-1,-1,1.062,-0.369929966,-0.379014081,1,0,0,1.71,Obsidian_rect,5,1.71,1,9,0,9,0,1,,,,,,,,,,,,,
57dd186e6598aa0001992616,TCR,2024-06-20_15h07.38.648,LearnStrategy,2023.2.3,Win32,29.94011976,7,1,11,0.065179688,-0.004079158,1,0,0,1.5007,rock_grid_rect_2,7,08,-1,-1,1.501,-0.132471207,-0.414656017,1,0,0,2.7241,Pegmatite_rect,6,2.724,0,10,0,10,0,1,,,,,,,,,,,,,
57dd186e6598aa0001992616,TCR,2024-06-20_15h07.38.648,LearnStrategy,2023.2.3,Win32,29.94011976,7,1,12,0.066568294,0.007030019,1,0,0,1.4326,rock_grid_rect_2,7,10,-1,-1,1.433,-0.084331378,-0.412804568,1,0,0,1.9609,Pegmatite_rect,6,1.961,0,11,0,11,0,1,,,,,,,,,,,,,
57dd186e6598aa0001992616,TCR,2024-06-20_15h07.38.648,LearnStrategy,2023.2.3,Win32,29.94011976,7,1,13,0.049904583,0.004715615,1,0,0,0.7947,rock_grid_rect_2,2,08,-1,-1,0.795,-0.075536605,-0.234131823,1,0,0,1.5597,Basalt_rect,2,1.56,1,12,0,12,0,1,,,,,,,,,,,,,
57dd186e6598aa0001992616,TCR,2024-06-20_15h07.38.648,LearnStrategy,2023.2.3,Win32,29.94011976,7,1,14,-0.004715578,-0.000376112,1,0,0,1.0659,rock_grid_rect_2,8,09,-1,-1,1.066,0.349852477,-0.392437663,1,0,0,1.8238,Pumice_rect,8,1.824,1,13,0,13,0,1,,,,,,,,,,,,,
57dd186e6598aa0001992616,TCR,2024-06-20_15h07.38.648,LearnStrategy,2023.2.3,Win32,29.94011976,7,1,15,0.092026851,-0.003153397,1,0,0,1.8004,rock_grid_rect_2,6,03,-1,-1,1.8,0.097118577,-0.39984383,1,0,0,1.9264,Peridotite_rect,7,1.926,0,14,0,14,0,1,,,,,,,,,,,,,
57dd186e6598aa0001992616,TCR,2024-06-20_15h07.38.648,LearnStrategy,2023.2.3,Win32,29.94011976,7,1,16,-0.04544924,0.001012531,1,0,0,1.7957,rock_grid_rect_2,6,05,-1,-1,1.796,-0.080165413,-0.420673505,1,0,0,2.5608,Pegmatite_rect,6,2.561,1,15,0,15,0,1,,,,,,,,,,,,,
57dd186e6598aa0001992616,TCR,2024-06-20_15h07.38.648,LearnStrategy,2023.2.3,Win32,29.94011976,7,2,1,,,,,,,,5,09,,,,,,,,,,,5,1.824,1,,,,,,-0.451860171,-0.398455151,1,0,0,1.8238,Obsidian_rect,0,0,0,0,1,
57dd186e6598aa0001992616,TCR,2024-06-20_15h07.38.648,LearnStrategy,2023.2.3,Win32,29.94011976,7,2,2,,,,,,,,6,12,,,,,,,,,,,3,1.621,0,,,,,,0.069345653,-0.256350178,1,0,0,1.621,Diorite_rect,1,0,1,0,1,
57dd186e6598aa0001992616,TCR,2024-06-20_15h07.38.648,LearnStrategy,2023.2.3,Win32,29.94011976,7,2,3,,,,,,,,1,06,,,,,,,,,,,1,2.644,1,,,,,,-0.387982393,-0.269773833,1,0,0,2.644,Andesite_rect,2,0,2,0,1,
57dd186e6598aa0001992616,TCR,2024-06-20_15h07.38.648,LearnStrategy,2023.2.3,Win32,29.94011976,7,2,4,,,,,,,,8,14,,,,,,,,,,,8,1.463,1,,,,,,0.323931076,-0.380865753,1,0,0,1.4626,Pumice_rect,3,0,3,0,1,
57dd186e6598aa0001992616,TCR,2024-06-20_15h07.38.648,LearnStrategy,2023.2.3,Win32,29.94011976,7,2,5,,,,,,,,4,10,,,,,,,,,,,1,3.592,0,,,,,,-0.347711612,-0.229503015,1,0,0,3.592,Andesite_rect,4,0,4,0,1,
57dd186e6598aa0001992616,TCR,2024-06-20_15h07.38.648,LearnStrategy,2023.2.3,Win32,29.94011976,7,2,6,,,,,,,,1,16,,,,,,,,,,,7,2.258,0,,,,,,0.082769234,-0.400306822,1,0,0,2.2585,Peridotite_rect,5,0,5,0,1,
57dd186e6598aa0001992616,TCR,2024-06-20_15h07.38.648,LearnStrategy,2023.2.3,Win32,29.94011976,7,2,7,,,,,,,,3,02,,,,,,,,,,,6,1.492,0,,,,,,-0.105160979,-0.397529463,1,0,0,1.4916,Pegmatite_rect,6,0,6,0,1,
57dd186e6598aa0001992616,TCR,2024-06-20_15h07.38.648,LearnStrategy,2023.2.3,Win32,29.94011976,7,2,8,,,,,,,,4,16,,,,,,,,,,,2,4.892,0,,,,,,-0.12923093,-0.253572893,1,0,0,4.8925,Basalt_rect,7,0,7,0,1,
57dd186e6598aa0001992616,TCR,2024-06-20_15h07.38.648,LearnStrategy,2023.2.3,Win32,29.94011976,7,2,9,,,,,,,,7,06,,,,,,,,,,,6,1.389,0,,,,,,-0.091737546,-0.402158197,1,0,0,1.3893,Pegmatite_rect,8,0,8,0,1,
57dd186e6598aa0001992616,TCR,2024-06-20_15h07.38.648,LearnStrategy,2023.2.3,Win32,29.94011976,7,2,10,,,,,,,,3,08,,,,,,,,,,,3,1.268,1,,,,,,0.139240918,-0.250332764,1,0,0,1.2678,Diorite_rect,9,0,9,0,1,
57dd186e6598aa0001992616,TCR,2024-06-20_15h07.38.648,LearnStrategy,2023.2.3,Win32,29.94011976,7,2,11,,,,,,,,7,04,,,,,,,,,,,7,2.492,1,,,,,,0.149424297,-0.404009721,1,0,0,2.4925,Peridotite_rect,10,0,10,0,1,
57dd186e6598aa0001992616,TCR,2024-06-20_15h07.38.648,LearnStrategy,2023.2.3,Win32,29.94011976,7,2,12,,,,,,,,2,14,,,,,,,,,,,1,1.319,0,,,,,,-0.385205108,-0.243389514,1,0,0,1.3185,Andesite_rect,11,0,11,0,1,
57dd186e6598aa0001992616,TCR,2024-06-20_15h07.38.648,LearnStrategy,2023.2.3,Win32,29.94011976,7,2,13,,,,,,,,6,08,,,,,,,,,,,6,2.424,1,,,,,,-0.103772447,-0.396603627,1,0,0,2.4239,Pegmatite_rect,12,0,12,0,1,
57dd186e6598aa0001992616,TCR,2024-06-20_15h07.38.648,LearnStrategy,2023.2.3,Win32,29.94011976,7,2,14,,,,,,,,5,10,,,,,,,,,,,5,1.475,1,,,,,,-0.398165808,-0.41095297,1,0,0,1.4753,Obsidian_rect,13,0,13,0,1,
57dd186e6598aa0001992616,TCR,2024-06-20_15h07.38.648,LearnStrategy,2023.2.3,Win32,29.94011976,7,2,15,,,,,,,,2,01,,,,,,,,,,,2,1.077,1,,,,,,-0.094514831,-0.235520503,1,0,0,1.0767,Basalt_rect,14,0,14,0,1,
57dd186e6598aa0001992616,TCR,2024-06-20_15h07.38.648,LearnStrategy,2023.2.3,Win32,29.94011976,7,2,16,,,,,,,,8,05,,,,,,,,,,,8,1.522,1,,,,,,0.38780878,-0.399380912,1,0,0,1.522,Pumice_rect,15,0,15,0,1,
57dd186e6598aa0001992616,TCR,2024-06-20_15h07.38.648,LearnStrategy,2023.2.3,Win32,29.94011976,8,1,1,0.055459228,0.006567138,1,0,0,1.2666,rock_grid_rect_2,4,13,-1,-1,1.267,0.384568651,-0.245241038,1,0,0,8.2646,Gabbro_rect,4,8.265,1,0,0,0,0,1,,,,,,,,,,,,,
57dd186e6598aa0001992616,TCR,2024-06-20_15h07.38.648,LearnStrategy,2023.2.3,Win32,29.94011976,8,1,2,0.099433018,0.009807304,1,0,0,1.5593,rock_grid_rect_2,6,15,-1,-1,1.559,-0.137562934,-0.391974819,1,0,0,1.5924,Pegmatite_rect,6,1.592,1,1,0,1,0,1,,,,,,,,,,,,,
57dd186e6598aa0001992616,TCR,2024-06-20_15h07.38.648,LearnStrategy,2023.2.3,Win32,29.94011976,8,1,3,0.094341292,0.004252734,1,0,0,0.9623,rock_grid_rect_2,6,15,-1,-1,0.962,-0.127842399,-0.394289186,1,0,0,1.66,Pegmatite_rect,6,1.66,1,2,0,2,0,1,,,,,,,,,,,,,
57dd186e6598aa0001992616,TCR,2024-06-20_15h07.38.648,LearnStrategy,2023.2.3,Win32,29.94011976,8,1,4,0.160533511,-0.006856443,1,0,0,0.929,rock_grid_rect_2,8,16,-1,-1,0.929,0.382717128,-0.413730255,1,0,0,2.2335,Pumice_rect,8,2.234,1,3,0,3,0,1,,,,,,,,,,,,,
57dd186e6598aa0001992616,TCR,2024-06-20_15h07.38.648,LearnStrategy,2023.2.3,Win32,29.94011976,8,1,5,0.104061827,0.018139196,1,0,0,0.8952,rock_grid_rect_2,3,15,-1,-1,0.895,0.125817263,-0.245241038,1,0,0,1.6599,Diorite_rect,3,1.66,1,4,0,4,0,1,,,,,,,,,,,,,
57dd186e6598aa0001992616,TCR,2024-06-20_15h07.38.648,LearnStrategy,2023.2.3,Win32,29.94011976,8,1,6,0.098507257,-0.006393562,1,0,0,1.4968,rock_grid_rect_2,2,08,-1,-1,1.497,-0.156541011,-0.263293427,1,0,0,1.4363,Basalt_rect,2,1.436,1,5,0,5,0,1,,,,,,,,,,,,,
57dd186e6598aa0001992616,TCR,2024-06-20_15h07.38.648,LearnStrategy,2023.2.3,Win32,29.94011976,8,1,7,0.099433018,-0.002690516,1,0,0,0.8979,rock_grid_rect_2,1,02,-1,-1,0.898,-0.345397208,-0.234594667,1,0,0,2.2967,Andesite_rect,1,2.297,1,6,0,6,0,1,,,,,,,,,,,,,
57dd186e6598aa0001992616,TCR,2024-06-20_15h07.38.648,LearnStrategy,2023.2.3,Win32,29.94011976,8,1,8,0.054070474,0.002401211,1,0,0,0.7953,rock_grid_rect_2,1,09,-1,-1,0.795,-0.154226718,-0.23922355,1,0,0,1.7584,Basalt_rect,2,1.758,0,7,0,7,0,1,,,,,,,,,,,,,
57dd186e6598aa0001992616,TCR,2024-06-20_15h07.38.648,LearnStrategy,2023.2.3,Win32,29.94011976,8,1,9,0.082769234,-0.020280062,1,0,0,1.6342,rock_grid_rect_2,7,05,-1,-1,1.634,-0.110715697,-0.379939843,1,0,0,2.1429,Pegmatite_rect,6,2.143,0,8,0,8,0,1,,,,,,,,,,,,,
57dd186e6598aa0001992616,TCR,2024-06-20_15h07.38.648,LearnStrategy,2023.2.3,Win32,29.94011976,8,1,10,0.076288828,-0.001301873,1,0,0,1.1997,rock_grid_rect_2,6,07,-1,-1,1.2,-0.089423104,-0.408175685,1,0,0,1.9255,Pegmatite_rect,6,1.926,1,9,0,9,0,1,,,,,,,,,,,,,
57dd186e6598aa0001992616,TCR,2024-06-20_15h07.38.648,LearnStrategy,2023.2.3,Win32,29.94011976,8,1,11,0.021668741,0.002864091,1,0,0,0.9322,rock_grid_rect_2,3,07,-1,-1,0.932,0.123039978,-0.229965859,1,0,0,1.4254,Diorite_rect,3,1.425,1,10,0,10,0,1,,,,,,,,,,,,,
57dd186e6598aa0001992616,TCR,2024-06-20_15h07.38.648,LearnStrategy,2023.2.3,Win32,29.94011976,8,1,12,0.047590216,-0.009633765,1,0,0,1.1328,rock_grid_rect_2,1,10,-1,-1,1.133,-0.373170169,-0.259590455,1,0,0,2.3922,Andesite_rect,1,2.392,1,11,0,11,0,1,,,,,,,,,,,,,
57dd186e6598aa0001992616,TCR,2024-06-20_15h07.38.648,LearnStrategy,2023.2.3,Win32,29.94011976,8,1,13,0.055922071,-0.003153397,1,0,0,2.0654,rock_grid_rect_2,2,16,-1,-1,2.065,0.42345079,-0.266996548,1,0,0,2.2912,Gabbro_rect,4,2.291,0,12,0,12,0,1,,,,,,,,,,,,,
57dd186e6598aa0001992616,TCR,2024-06-20_15h07.38.648,LearnStrategy,2023.2.3,Win32,29.94011976,8,1,14,0.10452467,0.008881542,1,0,0,2.5015,rock_grid_rect_2,4,08,-1,-1,2.502,-0.376873216,-0.257738857,1,0,0,3.7212,Andesite_rect,1,3.721,0,13,0,13,0,1,,,,,,,,,,,,,
57dd186e6598aa0001992616,TCR,2024-06-20_15h07.38.648,LearnStrategy,2023.2.3,Win32,29.94011976,8,1,15,0.116559646,-0.002227635,1,0,0,1.0638,rock_grid_rect_2,7,07,-1,-1,1.064,0.102210303,-0.404009721,1,0,0,1.8352,Peridotite_rect,7,1.835,1,14,0,14,0,1,,,,,,,,,,,,,
57dd186e6598aa0001992616,TCR,2024-06-20_15h07.38.648,LearnStrategy,2023.2.3,Win32,29.94011976,8,1,16,0.052681868,-0.002690516,1,0,0,1.0996,rock_grid_rect_2,4,01,-1,-1,1.1,-0.09590351,-0.394289186,1,0,0,3.4589,Pegmatite_rect,6,3.459,0,15,0,15,0,1,,,,,,,,,,,,,
57dd186e6598aa0001992616,TCR,2024-06-20_15h07.38.648,LearnStrategy,2023.2.3,Win32,29.94011976,8,2,1,,,,,,,,5,11,,,,,,,,,,,5,2.033,1,,,,,,-0.361135193,-0.415119009,1,0,0,2.0329,Obsidian_rect,0,0,0,0,1,
57dd186e6598aa0001992616,TCR,2024-06-20_15h07.38.648,LearnStrategy,2023.2.3,Win32,29.94011976,8,2,2,,,,,,,,4,09,,,,,,,,,,,2,1.625,0,,,,,,-0.149134992,-0.253110049,1,0,0,1.6249,Basalt_rect,1,0,1,0,1,
57dd186e6598aa0001992616,TCR,2024-06-20_15h07.38.648,LearnStrategy,2023.2.3,Win32,29.94011976,8,2,3,,,,,,,,3,16,,,,,,,,,,,3,1.222,1,,,,,,0.175345772,-0.262367666,1,0,0,1.2218,Diorite_rect,2,0,2,0,1,
57dd186e6598aa0001992616,TCR,2024-06-20_15h07.38.648,LearnStrategy,2023.2.3,Win32,29.94011976,8,2,4,,,,,,,,7,14,,,,,,,,,,,7,3.627,1,,,,,,0.096655659,-0.402158197,1,0,0,3.6272,Peridotite_rect,3,0,3,0,1,
57dd186e6598aa0001992616,TCR,2024-06-20_15h07.38.648,LearnStrategy,2023.2.3,Win32,29.94011976,8,2,5,,,,,,,,7,16,,,,,,,,,,,6,1.601,0,,,,,,-0.088497268,-0.41095297,1,0,0,1.6005,Pegmatite_rect,4,0,4,0,1,
57dd186e6598aa0001992616,TCR,2024-06-20_15h07.38.648,LearnStrategy,2023.2.3,Win32,29.94011976,8,2,6,,,,,,,,3,13,,,,,,,,,,,3,1.525,1,,,,,,0.171642651,-0.265144951,1,0,0,1.5251,Diorite_rect,5,0,5,0,1,
57dd186e6598aa0001992616,TCR,2024-06-20_15h07.38.648,LearnStrategy,2023.2.3,Win32,29.94011976,8,2,7,,,,,,,,6,13,,,,,,,,,,,7,2.428,0,,,,,,0.156830464,-0.399380912,1,0,0,2.4279,Peridotite_rect,6,0,6,0,1,
57dd186e6598aa0001992616,TCR,2024-06-20_15h07.38.648,LearnStrategy,2023.2.3,Win32,29.94011976,8,2,8,,,,,,,,1,14,,,,,,,,,,,6,4.717,0,,,,,,-0.094514831,-0.403084033,1,0,0,4.7169,Pegmatite_rect,7,0,7,0,1,
57dd186e6598aa0001992616,TCR,2024-06-20_15h07.38.648,LearnStrategy,2023.2.3,Win32,29.94011976,8,2,9,,,,,,,,1,04,,,,,,,,,,,4,3.455,0,,,,,,0.356795653,-0.262830584,1,0,0,3.4551,Gabbro_rect,8,0,8,0,1,
57dd186e6598aa0001992616,TCR,2024-06-20_15h07.38.648,LearnStrategy,2023.2.3,Win32,29.94011976,8,2,10,,,,,,,,2,09,,,,,,,,,,,2,1.658,1,,,,,,-0.174593475,-0.259590455,1,0,0,1.6583,Basalt_rect,9,0,9,0,1,
57dd186e6598aa0001992616,TCR,2024-06-20_15h07.38.648,LearnStrategy,2023.2.3,Win32,29.94011976,8,2,11,,,,,,,,8,15,,,,,,,,,,,8,1.358,1,,,,,,0.348463798,-0.408638603,1,0,0,1.3578,Pumice_rect,10,0,10,0,1,
57dd186e6598aa0001992616,TCR,2024-06-20_15h07.38.648,LearnStrategy,2023.2.3,Win32,29.94011976,8,2,12,,,,,,,,5,14,,,,,,,,,,,5,1.243,1,,,,,,-0.415755317,-0.378551163,1,0,0,1.2429,Obsidian_rect,11,0,11,0,1,
57dd186e6598aa0001992616,TCR,2024-06-20_15h07.38.648,LearnStrategy,2023.2.3,Win32,29.94011976,8,2,13,,,,,,,,2,10,,,,,,,,,,,5,1.844,0,,,,,,-0.421772842,-0.409101447,1,0,0,1.8444,Obsidian_rect,12,0,12,0,1,
57dd186e6598aa0001992616,TCR,2024-06-20_15h07.38.648,LearnStrategy,2023.2.3,Win32,29.94011976,8,2,14,,,,,,,,4,14,,,,,,,,,,,1,1.989,0,,,,,,-0.357895027,-0.255424416,1,0,0,1.9886,Andesite_rect,13,0,13,0,1,
57dd186e6598aa0001992616,TCR,2024-06-20_15h07.38.648,LearnStrategy,2023.2.3,Win32,29.94011976,8,2,15,,,,,,,,8,13,,,,,,,,,,,8,1.786,1,,,,,,0.33689174,-0.401232436,1,0,0,1.7858,Pumice_rect,14,0,14,0,1,
57dd186e6598aa0001992616,TCR,2024-06-20_15h07.38.648,LearnStrategy,2023.2.3,Win32,29.94011976,8,2,16,,,,,,,,6,10,,,,,,,,,,,6,1.623,1,,,,,,-0.134322582,-0.398455151,1,0,0,1.6232,Pegmatite_rect,15,0,15,0,1,
57dd186e6598aa0001992616,TCR,2024-06-20_15h07.38.648,LearnStrategy,2023.2.3,Win32,29.94011976,9,1,1,0.138778001,-0.012873931,1,0,0,1.4656,rock_grid_rect_2,1,03,-1,-1,1.466,-0.150060753,-0.268847997,1,0,0,2.1234,Basalt_rect,2,2.123,0,0,0,0,0,1,,,,,,,,,,,,,
57dd186e6598aa0001992616,TCR,2024-06-20_15h07.38.648,LearnStrategy,2023.2.3,Win32,29.94011976,9,1,2,0.015188335,-0.005930682,1,0,0,1.1992,rock_grid_rect_2,3,10,-1,-1,1.199,0.125354419,-0.256813096,1,0,0,1.5743,Diorite_rect,3,1.574,1,1,0,1,0,1,,,,,,,,,,,,,
57dd186e6598aa0001992616,TCR,2024-06-20_15h07.38.648,LearnStrategy,2023.2.3,Win32,29.94011976,9,1,3,0.0591622,0.001012531,1,0,0,0.9003,rock_grid_rect_2,4,08,-1,-1,0.9,-0.377336097,-0.252184213,1,0,0,1.5107,Andesite_rect,1,1.511,0,2,0,2,0,1,,,,,,,,,,,,,
57dd186e6598aa0001992616,TCR,2024-06-20_15h07.38.648,LearnStrategy,2023.2.3,Win32,29.94011976,9,1,4,0.051756107,-0.000376112,1,0,0,0.998,rock_grid_rect_2,2,08,-1,-1,0.998,-0.104698209,-0.242000909,1,0,0,1.0443,Basalt_rect,2,1.044,1,3,0,3,0,1,,,,,,,,,,,,,
57dd186e6598aa0001992616,TCR,2024-06-20_15h07.38.648,LearnStrategy,2023.2.3,Win32,29.94011976,9,1,5,0.065642532,-0.013799693,1,0,0,1.4296,rock_grid_rect_2,4,08,-1,-1,1.43,-0.384742227,-0.234594667,1,0,0,2.2556,Andesite_rect,1,2.256,0,4,0,4,0,1,,,,,,,,,,,,,
57dd186e6598aa0001992616,TCR,2024-06-20_15h07.38.648,LearnStrategy,2023.2.3,Win32,29.94011976,9,1,6,0.000838992,-0.011022408,1,0,0,0.7326,rock_grid_rect_2,1,10,-1,-1,0.733,-0.426401613,-0.256350178,1,0,0,1.5613,Andesite_rect,1,1.561,1,5,0,5,0,1,,,,,,,,,,,,,
57dd186e6598aa0001992616,TCR,2024-06-20_15h07.38.648,LearnStrategy,2023.2.3,Win32,29.94011976,9,1,7,0.009633765,0.003326972,1,0,0,1.4003,rock_grid_rect_2,7,10,-1,-1,1.4,-0.137099942,-0.391511901,1,0,0,1.992,Pegmatite_rect,6,1.992,0,6,0,6,0,1,,,,,,,,,,,,,
57dd186e6598aa0001992616,TCR,2024-06-20_15h07.38.648,LearnStrategy,2023.2.3,Win32,29.94011976,9,1,8,0.062865247,-0.012873931,1,0,0,1.2331,rock_grid_rect_2,1,02,-1,-1,1.233,0.11146792,-0.246629643,1,0,0,1.4604,Diorite_rect,3,1.46,0,7,0,7,0,1,,,,,,,,,,,,,
57dd186e6598aa0001992616,TCR,2024-06-20_15h07.38.648,LearnStrategy,2023.2.3,Win32,29.94011976,9,1,9,0.092026851,-0.014262574,1,0,0,2.7987,rock_grid_rect_2,2,16,-1,-1,2.799,-0.17181619,-0.26653363,1,0,0,2.3907,Basalt_rect,2,2.391,1,8,0,8,0,1,,,,,,,,,,,,,
57dd186e6598aa0001992616,TCR,2024-06-20_15h07.38.648,LearnStrategy,2023.2.3,Win32,29.94011976,9,1,10,-0.04544924,-0.010559527,1,0,0,1.3339,rock_grid_rect_2,4,03,-1,-1,1.334,0.451223788,-0.229503015,1,0,0,2.3463,Gabbro_rect,4,2.346,1,9,0,9,0,1,,,,,,,,,,,,,
57dd186e6598aa0001992616,TCR,2024-06-20_15h07.38.648,LearnStrategy,2023.2.3,Win32,29.94011976,9,1,11,0.168402522,-0.009633765,1,0,0,1.5676,rock_grid_rect_2,6,09,-1,-1,1.568,-0.11256722,-0.387345936,1,0,0,1.7239,Pegmatite_rect,6,1.724,1,10,0,10,0,1,,,,,,,,,,,,,
57dd186e6598aa0001992616,TCR,2024-06-20_15h07.38.648,LearnStrategy,2023.2.3,Win32,29.94011976,9,1,12,0.010096683,-0.007319324,1,0,0,1.5997,rock_grid_rect_2,4,15,-1,-1,1.6,-0.190794415,-0.234594667,1,0,0,2.3927,Basalt_rect,2,2.393,0,11,0,11,0,1,,,,,,,,,,,,,
57dd186e6598aa0001992616,TCR,2024-06-20_15h07.38.648,LearnStrategy,2023.2.3,Win32,29.94011976,9,1,13,-0.005178421,0.0074929,1,0,0,1.3676,rock_grid_rect_2,6,05,-1,-1,1.368,0.107764873,-0.228577253,1,0,0,1.7133,Diorite_rect,3,1.713,0,12,0,12,0,1,,,,,,,,,,,,,
57dd186e6598aa0001992616,TCR,2024-06-20_15h07.38.648,LearnStrategy,2023.2.3,Win32,29.94011976,9,1,14,0.07166002,0.003326972,1,0,0,1.2667,rock_grid_rect_2,3,14,-1,-1,1.267,0.142943965,-0.248944084,1,0,0,1.7938,Diorite_rect,3,1.794,1,13,0,13,0,1,,,,,,,,,,,,,
57dd186e6598aa0001992616,TCR,2024-06-20_15h07.38.648,LearnStrategy,2023.2.3,Win32,29.94011976,9,1,15,0.085546519,-0.008708004,1,0,0,1.4289,rock_grid_rect_2,7,15,-1,-1,1.429,-0.134322582,-0.383642964,1,0,0,2.127,Pegmatite_rect,6,2.127,0,14,0,14,0,1,,,,,,,,,,,,,
57dd186e6598aa0001992616,TCR,2024-06-20_15h07.38.648,LearnStrategy,2023.2.3,Win32,29.94011976,9,1,16,0.080917711,-0.01750274,1,0,0,1.2617,rock_grid_rect_2,6,05,-1,-1,1.262,0.093878374,-0.261904748,1,0,0,1.6953,Diorite_rect,3,1.695,0,15,0,15,0,1,,,,,,,,,,,,,
57dd186e6598aa0001992616,TCR,2024-06-20_15h07.38.648,LearnStrategy,2023.2.3,Win32,29.94011976,9,2,1,,,,,,,,4,12,,,,,,,,,,,4,3.891,1,,,,,,0.310044577,-0.235057733,1,0,0,3.8911,Gabbro_rect,0,0,0,0,1,
57dd186e6598aa0001992616,TCR,2024-06-20_15h07.38.648,LearnStrategy,2023.2.3,Win32,29.94011976,9,2,2,,,,,,,,5,04,,,,,,,,,,,5,1.156,1,,,,,,-0.401406011,-0.403546877,1,0,0,1.1564,Obsidian_rect,1,0,1,0,1,
57dd186e6598aa0001992616,TCR,2024-06-20_15h07.38.648,LearnStrategy,2023.2.3,Win32,29.94011976,9,2,3,,,,,,,,7,13,,,,,,,,,,,7,2.558,1,,,,,,0.045275701,-0.390123295,1,0,0,2.5583,Peridotite_rect,2,0,2,0,1,
57dd186e6598aa0001992616,TCR,2024-06-20_15h07.38.648,LearnStrategy,2023.2.3,Win32,29.94011976,9,2,4,,,,,,,,6,11,,,,,,,,,,,6,1.524,1,,,,,,-0.082017011,-0.400769592,1,0,0,1.5237,Pegmatite_rect,3,0,3,0,1,
57dd186e6598aa0001992616,TCR,2024-06-20_15h07.38.648,LearnStrategy,2023.2.3,Win32,29.94011976,9,2,5,,,,,,,,3,12,,,,,,,,,,,6,4.794,0,,,,,,-0.082017011,-0.400769592,1,0,0,4.7937,Pegmatite_rect,4,0,4,0,1,
57dd186e6598aa0001992616,TCR,2024-06-20_15h07.38.648,LearnStrategy,2023.2.3,Win32,29.94011976,9,2,6,,,,,,,,1,11,,,,,,,,,,,1,2.741,1,,,,,,-0.335676673,-0.249406928,1,0,0,2.741,Andesite_rect,5,0,5,0,1,
57dd186e6598aa0001992616,TCR,2024-06-20_15h07.38.648,LearnStrategy,2023.2.3,Win32,29.94011976,9,2,7,,,,,,,,3,09,,,,,,,,,,,3,1.729,1,,,,,,0.157756226,-0.250795608,1,0,0,1.7292,Diorite_rect,6,0,6,0,1,
57dd186e6598aa0001992616,TCR,2024-06-20_15h07.38.648,LearnStrategy,2023.2.3,Win32,29.94011976,9,2,8,,,,,,,,2,12,,,,,,,,,,,8,1.616,0,,,,,,0.347538036,-0.393363498,1,0,0,1.6161,Pumice_rect,7,0,7,0,1,
57dd186e6598aa0001992616,TCR,2024-06-20_15h07.38.648,LearnStrategy,2023.2.3,Win32,29.94011976,9,2,9,,,,,,,,2,02,,,,,,,,,,,2,1.265,1,,,,,,-0.082942698,-0.253110049,1,0,0,1.2654,Basalt_rect,8,0,8,0,1,
57dd186e6598aa0001992616,TCR,2024-06-20_15h07.38.648,LearnStrategy,2023.2.3,Win32,29.94011976,9,2,10,,,,,,,,5,06,,,,,,,,,,,5,1.39,1,,,,,,-0.327344781,-0.382717128,1,0,0,1.3904,Obsidian_rect,9,0,9,0,1,
57dd186e6598aa0001992616,TCR,2024-06-20_15h07.38.648,LearnStrategy,2023.2.3,Win32,29.94011976,9,2,11,,,,,,,,4,05,,,,,,,,,,,6,4.893,0,,,,,,-0.149597835,-0.382254284,1,0,0,4.8932,Pegmatite_rect,10,0,10,0,1,
57dd186e6598aa0001992616,TCR,2024-06-20_15h07.38.648,LearnStrategy,2023.2.3,Win32,29.94011976,9,2,12,,,,,,,,7,02,,,,,,,,,,,7,2.399,1,,,,,,0.113782361,-0.390586288,1,0,0,2.3995,Peridotite_rect,11,0,11,0,1,
57dd186e6598aa0001992616,TCR,2024-06-20_15h07.38.648,LearnStrategy,2023.2.3,Win32,29.94011976,9,2,13,,,,,,,,6,06,,,,,,,,,,,7,2.151,0,,,,,,0.148498535,-0.403084033,1,0,0,2.1512,Peridotite_rect,12,0,12,0,1,
57dd186e6598aa0001992616,TCR,2024-06-20_15h07.38.648,LearnStrategy,2023.2.3,Win32,29.94011976,9,2,14,,,,,,,,8,02,,,,,,,,,,,8,1.659,1,,,,,,0.347538036,-0.387808928,1,0,0,1.6589,Pumice_rect,13,0,13,0,1,
57dd186e6598aa0001992616,TCR,2024-06-20_15h07.38.648,LearnStrategy,2023.2.3,Win32,29.94011976,9,2,15,,,,,,,,1,07,,,,,,,,,,,1,1.899,1,,,,,,-0.377336097,-0.268847997,1,0,0,1.8991,Andesite_rect,14,0,14,0,1,
57dd186e6598aa0001992616,TCR,2024-06-20_15h07.38.648,LearnStrategy,2023.2.3,Win32,29.94011976,9,2,16,,,,,,,,8,06,,,,,,,,,,,8,1.592,1,,,,,,0.321153791,-0.392437663,1,0,0,1.5922,Pumice_rect,15,0,15,0,1,
57dd186e6598aa0001992616,TCR,2024-06-20_15h07.38.648,LearnStrategy,2023.2.3,Win32,29.94011976,,,,,,,,,,,,,,,,,,,,,,,,,,,,,,,,,,,,,,,,,,,0
57dd186e6598aa0001992616,TCR,2024-06-20_15h07.38.648,LearnStrategy,2023.2.3,Win32,29.94011976,,,,,,,,,,,,,,,,,,,,,,,,,,,,,,,,,,,,,,,,,,,
57dd186e6598aa0001992616,TCR,2024-06-20_15h07.38.648,LearnStrategy,2023.2.3,Win32,29.94011976,,,,,,,,,,,8,10,1,1,,,,,,,,,,,,,,,,,,,,,,,,,,,,,
57dd186e6598aa0001992616,TCR,2024-06-20_15h07.38.648,LearnStrategy,2023.2.3,Win32,29.94011976,,,,,,,,,,,4,01,1,2,,,,,,,,,,,,,,,,,,,,,,,,,,,,,
57dd186e6598aa0001992616,TCR,2024-06-20_15h07.38.648,LearnStrategy,2023.2.3,Win32,29.94011976,,,,,,,,,,,2,08,1,3,,,,,,,,,,,,,,,,,,,,,,,,,,,,,
57dd186e6598aa0001992616,TCR,2024-06-20_15h07.38.648,LearnStrategy,2023.2.3,Win32,29.94011976,,,,,,,,,,,3,07,1,4,,,,,,,,,,,,,,,,,,,,,,,,,,,,,
57dd186e6598aa0001992616,TCR,2024-06-20_15h07.38.648,LearnStrategy,2023.2.3,Win32,29.94011976,,,,,,,,,,,1,09,1,5,,,,,,,,,,,,,,,,,,,,,,,,,,,,,
57dd186e6598aa0001992616,TCR,2024-06-20_15h07.38.648,LearnStrategy,2023.2.3,Win32,29.94011976,,,,,,,,,,,3,10,1,6,,,,,,,,,,,,,,,,,,,,,,,,,,,,,
57dd186e6598aa0001992616,TCR,2024-06-20_15h07.38.648,LearnStrategy,2023.2.3,Win32,29.94011976,,,,,,,,,,,7,10,1,7,,,,,,,,,,,,,,,,,,,,,,,,,,,,,
57dd186e6598aa0001992616,TCR,2024-06-20_15h07.38.648,LearnStrategy,2023.2.3,Win32,29.94011976,,,,,,,,,,,8,04,1,8,,,,,,,,,,,,,,,,,,,,,,,,,,,,,
57dd186e6598aa0001992616,TCR,2024-06-20_15h07.38.648,LearnStrategy,2023.2.3,Win32,29.94011976,,,,,,,,,,,8,09,2,1,,,,,,,,,,,,,,,,,,,,,,,,,,,,,
57dd186e6598aa0001992616,TCR,2024-06-20_15h07.38.648,LearnStrategy,2023.2.3,Win32,29.94011976,,,,,,,,,,,7,08,2,2,,,,,,,,,,,,,,,,,,,,,,,,,,,,,
57dd186e6598aa0001992616,TCR,2024-06-20_15h07.38.648,LearnStrategy,2023.2.3,Win32,29.94011976,,,,,,,,,,,1,01,2,3,,,,,,,,,,,,,,,,,,,,,,,,,,,,,
57dd186e6598aa0001992616,TCR,2024-06-20_15h07.38.648,LearnStrategy,2023.2.3,Win32,29.94011976,,,,,,,,,,,3,15,2,4,,,,,,,,,,,,,,,,,,,,,,,,,,,,,
57dd186e6598aa0001992616,TCR,2024-06-20_15h07.38.648,LearnStrategy,2023.2.3,Win32,29.94011976,,,,,,,,,,,2,16,2,5,,,,,,,,,,,,,,,,,,,,,,,,,,,,,
57dd186e6598aa0001992616,TCR,2024-06-20_15h07.38.648,LearnStrategy,2023.2.3,Win32,29.94011976,,,,,,,,,,,2,06,2,6,,,,,,,,,,,,,,,,,,,,,,,,,,,,,
57dd186e6598aa0001992616,TCR,2024-06-20_15h07.38.648,LearnStrategy,2023.2.3,Win32,29.94011976,,,,,,,,,,,4,03,2,7,,,,,,,,,,,,,,,,,,,,,,,,,,,,,
57dd186e6598aa0001992616,TCR,2024-06-20_15h07.38.648,LearnStrategy,2023.2.3,Win32,29.94011976,,,,,,,,,,,6,03,2,8,,,,,,,,,,,,,,,,,,,,,,,,,,,,,
57dd186e6598aa0001992616,TCR,2024-06-20_15h07.38.648,LearnStrategy,2023.2.3,Win32,29.94011976,,,,,,,,,,,6,16,3,1,,,,,,,,,,,,,,,,,,,,,,,,,,,,,
57dd186e6598aa0001992616,TCR,2024-06-20_15h07.38.648,LearnStrategy,2023.2.3,Win32,29.94011976,,,,,,,,,,,6,09,3,2,,,,,,,,,,,,,,,,,,,,,,,,,,,,,
57dd186e6598aa0001992616,TCR,2024-06-20_15h07.38.648,LearnStrategy,2023.2.3,Win32,29.94011976,,,,,,,,,,,4,15,3,3,,,,,,,,,,,,,,,,,,,,,,,,,,,,,
57dd186e6598aa0001992616,TCR,2024-06-20_15h07.38.648,LearnStrategy,2023.2.3,Win32,29.94011976,,,,,,,,,,,8,08,3,4,,,,,,,,,,,,,,,,,,,,,,,,,,,,,
57dd186e6598aa0001992616,TCR,2024-06-20_15h07.38.648,LearnStrategy,2023.2.3,Win32,29.94011976,,,,,,,,,,,1,02,3,5,,,,,,,,,,,,,,,,,,,,,,,,,,,,,
57dd186e6598aa0001992616,TCR,2024-06-20_15h07.38.648,LearnStrategy,2023.2.3,Win32,29.94011976,,,,,,,,,,,6,07,3,6,,,,,,,,,,,,,,,,,,,,,,,,,,,,,
57dd186e6598aa0001992616,TCR,2024-06-20_15h07.38.648,LearnStrategy,2023.2.3,Win32,29.94011976,,,,,,,,,,,5,12,3,7,,,,,,,,,,,,,,,,,,,,,,,,,,,,,
57dd186e6598aa0001992616,TCR,2024-06-20_15h07.38.648,LearnStrategy,2023.2.3,Win32,29.94011976,,,,,,,,,,,3,14,3,8,,,,,,,,,,,,,,,,,,,,,,,,,,,,,
57dd186e6598aa0001992616,TCR,2024-06-20_15h07.38.648,LearnStrategy,2023.2.3,Win32,29.94011976,,,,,,,,,,,2,04,4,1,,,,,,,,,,,,,,,,,,,,,,,,,,,,,
57dd186e6598aa0001992616,TCR,2024-06-20_15h07.38.648,LearnStrategy,2023.2.3,Win32,29.94011976,,,,,,,,,,,1,03,4,2,,,,,,,,,,,,,,,,,,,,,,,,,,,,,
57dd186e6598aa0001992616,TCR,2024-06-20_15h07.38.648,LearnStrategy,2023.2.3,Win32,29.94011976,,,,,,,,,,,4,13,4,3,,,,,,,,,,,,,,,,,,,,,,,,,,,,,
57dd186e6598aa0001992616,TCR,2024-06-20_15h07.38.648,LearnStrategy,2023.2.3,Win32,29.94011976,,,,,,,,,,,5,08,4,4,,,,,,,,,,,,,,,,,,,,,,,,,,,,,
57dd186e6598aa0001992616,TCR,2024-06-20_15h07.38.648,LearnStrategy,2023.2.3,Win32,29.94011976,,,,,,,,,,,1,10,4,5,,,,,,,,,,,,,,,,,,,,,,,,,,,,,
57dd186e6598aa0001992616,TCR,2024-06-20_15h07.38.648,LearnStrategy,2023.2.3,Win32,29.94011976,,,,,,,,,,,2,11,4,6,,,,,,,,,,,,,,,,,,,,,,,,,,,,,
57dd186e6598aa0001992616,TCR,2024-06-20_15h07.38.648,LearnStrategy,2023.2.3,Win32,29.94011976,,,,,,,,,,,7,15,4,7,,,,,,,,,,,,,,,,,,,,,,,,,,,,,
57dd186e6598aa0001992616,TCR,2024-06-20_15h07.38.648,LearnStrategy,2023.2.3,Win32,29.94011976,,,,,,,,,,,5,02,4,8,,,,,,,,,,,,,,,,,,,,,,,,,,,,,
57dd186e6598aa0001992616,TCR,2024-06-20_15h07.38.648,LearnStrategy,2023.2.3,Win32,29.94011976,,,,,,,,,,,7,07,5,1,,,,,,,,,,,,,,,,,,,,,,,,,,,,,
57dd186e6598aa0001992616,TCR,2024-06-20_15h07.38.648,LearnStrategy,2023.2.3,Win32,29.94011976,,,,,,,,,,,2,05,5,2,,,,,,,,,,,,,,,,,,,,,,,,,,,,,
57dd186e6598aa0001992616,TCR,2024-06-20_15h07.38.648,LearnStrategy,2023.2.3,Win32,29.94011976,,,,,,,,,,,5,16,5,3,,,,,,,,,,,,,,,,,,,,,,,,,,,,,
57dd186e6598aa0001992616,TCR,2024-06-20_15h07.38.648,LearnStrategy,2023.2.3,Win32,29.94011976,,,,,,,,,,,6,05,5,4,,,,,,,,,,,,,,,,,,,,,,,,,,,,,
57dd186e6598aa0001992616,TCR,2024-06-20_15h07.38.648,LearnStrategy,2023.2.3,Win32,29.94011976,,,,,,,,,,,3,11,5,5,,,,,,,,,,,,,,,,,,,,,,,,,,,,,
57dd186e6598aa0001992616,TCR,2024-06-20_15h07.38.648,LearnStrategy,2023.2.3,Win32,29.94011976,,,,,,,,,,,8,16,5,6,,,,,,,,,,,,,,,,,,,,,,,,,,,,,
57dd186e6598aa0001992616,TCR,2024-06-20_15h07.38.648,LearnStrategy,2023.2.3,Win32,29.94011976,,,,,,,,,,,4,11,5,7,,,,,,,,,,,,,,,,,,,,,,,,,,,,,
57dd186e6598aa0001992616,TCR,2024-06-20_15h07.38.648,LearnStrategy,2023.2.3,Win32,29.94011976,,,,,,,,,,,5,07,5,8,,,,,,,,,,,,,,,,,,,,,,,,,,,,,
57dd186e6598aa0001992616,TCR,2024-06-20_15h07.38.648,LearnStrategy,2023.2.3,Win32,29.94011976,,,,,,,,,,,4,08,6,1,,,,,,,,,,,,,,,,,,,,,,,,,,,,,
57dd186e6598aa0001992616,TCR,2024-06-20_15h07.38.648,LearnStrategy,2023.2.3,Win32,29.94011976,,,,,,,,,,,8,03,6,2,,,,,,,,,,,,,,,,,,,,,,,,,,,,,
57dd186e6598aa0001992616,TCR,2024-06-20_15h07.38.648,LearnStrategy,2023.2.3,Win32,29.94011976,,,,,,,,,,,6,15,6,3,,,,,,,,,,,,,,,,,,,,,,,,,,,,,
57dd186e6598aa0001992616,TCR,2024-06-20_15h07.38.648,LearnStrategy,2023.2.3,Win32,29.94011976,,,,,,,,,,,5,05,6,4,,,,,,,,,,,,,,,,,,,,,,,,,,,,,
57dd186e6598aa0001992616,TCR,2024-06-20_15h07.38.648,LearnStrategy,2023.2.3,Win32,29.94011976,,,,,,,,,,,3,06,6,5,,,,,,,,,,,,,,,,,,,,,,,,,,,,,
57dd186e6598aa0001992616,TCR,2024-06-20_15h07.38.648,LearnStrategy,2023.2.3,Win32,29.94011976,,,,,,,,,,,7,05,6,6,,,,,,,,,,,,,,,,,,,,,,,,,,,,,
57dd186e6598aa0001992616,TCR,2024-06-20_15h07.38.648,LearnStrategy,2023.2.3,Win32,29.94011976,,,,,,,,,,,1,05,6,7,,,,,,,,,,,,,,,,,,,,,,,,,,,,,
57dd186e6598aa0001992616,TCR,2024-06-20_15h07.38.648,LearnStrategy,2023.2.3,Win32,29.94011976,,,,,,,,,,,7,12,6,8,,,,,,,,,,,,,,,,,,,,,,,,,,,,,