participant,condition,date,expName,psychopyVersion,OS,frameRate,block,phase,trial,learn_mouse.x,learn_mouse.y,learn_mouse.leftButton,learn_mouse.midButton,learn_mouse.rightButton,learn_mouse.time,learn_mouse.clicked_name,cat,token,row,col,t_select,cat_rec,token_rec,cat_mouse_l.x,cat_mouse_l.y,cat_mouse_l.leftButton,cat_mouse_l.midButton,cat_mouse_l.rightButton,cat_mouse_l.time,cat_mouse_l.clicked_name,resp,t_resp,corr,train_trials.thisRepN,train_trials.thisTrialN,train_trials.thisN,train_trials.thisIndex,train_trials.ran,cat_mouse_t.x,cat_mouse_t.y,cat_mouse_t.leftButton,cat_mouse_t.midButton,cat_mouse_t.rightButton,cat_mouse_t.time,cat_mouse_t.clicked_name,test_trials.thisRepN,test_trials.thisTrialN,test_trials.thisN,test_trials.thisIndex,test_trials.ran,Bonus
580d5d1f357e890001dd14ce,SCR,2024-06-11_12h10.09.893,LearnStrategy,2023.2.3,Win32,120.4819277,,,,,,,,,,,,,,,,,,,,,,,,,,,,,,,,,,,,,,,,,,,,,
580d5d1f357e890001dd14ce,SCR,2024-06-11_12h10.09.893,LearnStrategy,2023.2.3,Win32,120.4819277,1,1,1,-0.539814815,0.413888889,1,0,0,2.3691,Basalt_06,2,06,6,1,2.369,2,14,-0.419444444,-0.392592593,1,0,0,3.2818,Obsidian_rect,5,3.282,0,0,0,0,0,1,,,,,,,,,,,,,
580d5d1f357e890001dd14ce,SCR,2024-06-11_12h10.09.893,LearnStrategy,2023.2.3,Win32,120.4819277,1,1,2,-0.525,0.387037037,1,0,0,1.0651,Basalt_06,2,06,6,1,1.065,8,05,-0.135185185,-0.253703704,1,0,0,1.0309,Basalt_rect,2,1.031,1,1,0,1,0,1,,,,,,,,,,,,,
580d5d1f357e890001dd14ce,SCR,2024-06-11_12h10.09.893,LearnStrategy,2023.2.3,Win32,120.4819277,1,1,3,0.099074074,0.249074074,1,0,0,1.6736,Pegmatite_08,6,08,5,5,1.674,6,08,0.450925926,-0.4,1,0,0,6.0884,Pumice_rect,8,6.088,0,2,0,2,0,1,,,,,,,,,,,,,
580d5d1f357e890001dd14ce,SCR,2024-06-11_12h10.09.893,LearnStrategy,2023.2.3,Win32,120.4819277,1,1,4,-0.580555556,-0.258333333,1,0,0,1.1563,Andesite_07,1,07,2,1,1.156,1,07,0.398148148,-0.260185185,1,0,0,3.313,Gabbro_rect,4,3.313,0,3,0,3,0,1,,,,,,,,,,,,,
580d5d1f357e890001dd14ce,SCR,2024-06-11_12h10.09.893,LearnStrategy,2023.2.3,Win32,120.4819277,1,1,5,0.560185185,-0.061111111,1,0,0,1.0984,Gabbro_12,4,12,3,8,1.098,4,12,0.366666667,-0.24537037,1,0,0,2.6205,Gabbro_rect,4,2.62,1,4,0,4,0,1,,,,,,,,,,,,,
580d5d1f357e890001dd14ce,SCR,2024-06-11_12h10.09.893,LearnStrategy,2023.2.3,Win32,120.4819277,1,1,6,-0.069444444,-0.402777778,1,0,0,1.2902,Basalt_11,2,11,1,4,1.29,2,11,0.387962963,-0.381481481,1,0,0,5.0303,Pumice_rect,8,5.03,0,5,0,5,0,1,,,,,,,,,,,,,
580d5d1f357e890001dd14ce,SCR,2024-06-11_12h10.09.893,LearnStrategy,2023.2.3,Win32,120.4819277,1,1,7,-0.543518519,-0.111111111,1,0,0,1.2649,Diorite_06,3,06,3,1,1.265,3,06,0.132407407,-0.237962963,1,0,0,3.0635,Diorite_rect,3,3.064,1,6,0,6,0,1,,,,,,,,,,,,,
580d5d1f357e890001dd14ce,SCR,2024-06-11_12h10.09.893,LearnStrategy,2023.2.3,Win32,120.4819277,1,1,8,-0.096296296,0.396296296,1,0,0,1.1901,Pumice_09,8,09,6,4,1.19,8,09,-0.112037037,-0.409259259,1,0,0,2.705,Pegmatite_rect,6,2.705,0,7,0,7,0,1,,,,,,,,,,,,,
580d5d1f357e890001dd14ce,SCR,2024-06-11_12h10.09.893,LearnStrategy,2023.2.3,Win32,120.4819277,1,1,9,-0.546296296,-0.461111111,1,0,0,1.1484,Diorite_07,3,07,1,1,1.148,3,07,0.126851852,-0.244444444,1,0,0,3.6534,Diorite_rect,3,3.653,1,8,0,8,0,1,,,,,,,,,,,,,
580d5d1f357e890001dd14ce,SCR,2024-06-11_12h10.09.893,LearnStrategy,2023.2.3,Win32,120.4819277,1,1,10,0.057407407,-0.431481481,1,0,0,1.0902,Peridotite_10,7,10,1,5,1.09,7,10,0.142592593,-0.40462963,1,0,0,4.3874,Peridotite_rect,7,4.387,1,9,0,9,0,1,,,,,,,,,,,,,
580d5d1f357e890001dd14ce,SCR,2024-06-11_12h10.09.893,LearnStrategy,2023.2.3,Win32,120.4819277,1,1,11,0.4,-0.069444444,1,0,0,1.0485,Andesite_16,1,16,3,7,1.048,1,16,0.390740741,-0.249074074,1,0,0,2.4051,Gabbro_rect,4,2.405,0,10,0,10,0,1,,,,,,,,,,,,,
580d5d1f357e890001dd14ce,SCR,2024-06-11_12h10.09.893,LearnStrategy,2023.2.3,Win32,120.4819277,1,1,12,-0.087962963,-0.112962963,1,0,0,0.8396,Pegmatite_06,6,06,3,4,0.84,6,06,-0.064814815,-0.396296296,1,0,0,3.6841,Pegmatite_rect,6,3.684,1,11,0,11,0,1,,,,,,,,,,,,,
580d5d1f357e890001dd14ce,SCR,2024-06-11_12h10.09.893,LearnStrategy,2023.2.3,Win32,120.4819277,1,1,13,-0.37962963,-0.119444444,1,0,0,1.0398,Peridotite_07,7,07,3,2,1.04,7,07,0.135185185,-0.397222222,1,0,0,1.6866,Peridotite_rect,7,1.687,1,12,0,12,0,1,,,,,,,,,,,,,
580d5d1f357e890001dd14ce,SCR,2024-06-11_12h10.09.893,LearnStrategy,2023.2.3,Win32,120.4819277,1,1,14,-0.222222222,-0.239814815,1,0,0,0.9569,Obsidian_05,5,05,2,3,0.957,5,05,-0.390740741,-0.39537037,1,0,0,2.0575,Obsidian_rect,5,2.057,1,13,0,13,0,1,,,,,,,,,,,,,
580d5d1f357e890001dd14ce,SCR,2024-06-11_12h10.09.893,LearnStrategy,2023.2.3,Win32,120.4819277,1,1,15,0.082407407,0.110185185,1,0,0,0.7815,Gabbro_13,4,13,4,5,0.782,4,13,-0.165740741,-0.232407407,1,0,0,5.3782,Basalt_rect,2,5.378,0,14,0,14,0,1,,,,,,,,,,,,,
580d5d1f357e890001dd14ce,SCR,2024-06-11_12h10.09.893,LearnStrategy,2023.2.3,Win32,120.4819277,1,1,16,0.052777778,-0.101851852,1,0,0,0.7069,Obsidian_12,5,12,3,5,0.707,5,12,-0.387037037,-0.401851852,1,0,0,1.3585,Obsidian_rect,5,1.358,1,15,0,15,0,1,,,,,,,,,,,,,
580d5d1f357e890001dd14ce,SCR,2024-06-11_12h10.09.893,LearnStrategy,2023.2.3,Win32,120.4819277,1,2,1,,,,,,,,2,04,,,,,,,,,,,,,2,5.74,1,,,,,,-0.197222222,-0.246296296,1,0,0,5.74,Basalt_rect,0,0,0,0,1,
580d5d1f357e890001dd14ce,SCR,2024-06-11_12h10.09.893,LearnStrategy,2023.2.3,Win32,120.4819277,1,2,2,,,,,,,,4,16,,,,,,,,,,,,,3,6.777,0,,,,,,0.093518519,-0.259259259,1,0,0,6.7767,Diorite_rect,1,0,1,0,1,
580d5d1f357e890001dd14ce,SCR,2024-06-11_12h10.09.893,LearnStrategy,2023.2.3,Win32,120.4819277,1,2,3,,,,,,,,1,05,,,,,,,,,,,,,4,1.737,0,,,,,,0.387037037,-0.256481481,1,0,0,1.7367,Gabbro_rect,2,0,2,0,1,
580d5d1f357e890001dd14ce,SCR,2024-06-11_12h10.09.893,LearnStrategy,2023.2.3,Win32,120.4819277,1,2,4,,,,,,,,5,06,,,,,,,,,,,,,5,1.123,1,,,,,,-0.458333333,-0.4,1,0,0,1.1226,Obsidian_rect,3,0,3,0,1,
580d5d1f357e890001dd14ce,SCR,2024-06-11_12h10.09.893,LearnStrategy,2023.2.3,Win32,120.4819277,1,2,5,,,,,,,,4,03,,,,,,,,,,,,,1,2.479,0,,,,,,-0.447222222,-0.239814815,1,0,0,2.4788,Andesite_rect,4,0,4,0,1,
580d5d1f357e890001dd14ce,SCR,2024-06-11_12h10.09.893,LearnStrategy,2023.2.3,Win32,120.4819277,1,2,6,,,,,,,,5,16,,,,,,,,,,,,,5,1.042,1,,,,,,-0.39537037,-0.385185185,1,0,0,1.0418,Obsidian_rect,5,0,5,0,1,
580d5d1f357e890001dd14ce,SCR,2024-06-11_12h10.09.893,LearnStrategy,2023.2.3,Win32,120.4819277,1,2,7,,,,,,,,1,04,,,,,,,,,,,,,4,4.633,0,,,,,,0.393518519,-0.250925926,1,0,0,4.6332,Gabbro_rect,6,0,6,0,1,
580d5d1f357e890001dd14ce,SCR,2024-06-11_12h10.09.893,LearnStrategy,2023.2.3,Win32,120.4819277,1,2,8,,,,,,,,8,06,,,,,,,,,,,,,8,1.205,1,,,,,,0.353703704,-0.412037037,1,0,0,1.2049,Pumice_rect,7,0,7,0,1,
580d5d1f357e890001dd14ce,SCR,2024-06-11_12h10.09.893,LearnStrategy,2023.2.3,Win32,120.4819277,1,2,9,,,,,,,,6,05,,,,,,,,,,,,,6,4.248,1,,,,,,-0.087962963,-0.405555556,1,0,0,4.2477,Pegmatite_rect,8,0,8,0,1,
580d5d1f357e890001dd14ce,SCR,2024-06-11_12h10.09.893,LearnStrategy,2023.2.3,Win32,120.4819277,1,2,10,,,,,,,,8,04,,,,,,,,,,,,,8,1.137,1,,,,,,0.406481481,-0.398148148,1,0,0,1.1371,Pumice_rect,9,0,9,0,1,
580d5d1f357e890001dd14ce,SCR,2024-06-11_12h10.09.893,LearnStrategy,2023.2.3,Win32,120.4819277,1,2,11,,,,,,,,7,14,,,,,,,,,,,,,1,3.495,0,,,,,,-0.359259259,-0.24537037,1,0,0,3.4953,Andesite_rect,10,0,10,0,1,
580d5d1f357e890001dd14ce,SCR,2024-06-11_12h10.09.893,LearnStrategy,2023.2.3,Win32,120.4819277,1,2,12,,,,,,,,6,15,,,,,,,,,,,,,2,7.794,0,,,,,,-0.115740741,-0.247222222,1,0,0,7.7944,Basalt_rect,11,0,11,0,1,
580d5d1f357e890001dd14ce,SCR,2024-06-11_12h10.09.893,LearnStrategy,2023.2.3,Win32,120.4819277,1,2,13,,,,,,,,3,16,,,,,,,,,,,,,2,2.6,0,,,,,,-0.083333333,-0.248148148,1,0,0,2.5997,Basalt_rect,12,0,12,0,1,
580d5d1f357e890001dd14ce,SCR,2024-06-11_12h10.09.893,LearnStrategy,2023.2.3,Win32,120.4819277,1,2,14,,,,,,,,7,06,,,,,,,,,,,,,7,1.62,1,,,,,,0.15462963,-0.380555556,1,0,0,1.6198,Peridotite_rect,13,0,13,0,1,
580d5d1f357e890001dd14ce,SCR,2024-06-11_12h10.09.893,LearnStrategy,2023.2.3,Win32,120.4819277,1,2,15,,,,,,,,3,15,,,,,,,,,,,,,4,3.986,0,,,,,,0.333333333,-0.25462963,1,0,0,3.9865,Gabbro_rect,14,0,14,0,1,
580d5d1f357e890001dd14ce,SCR,2024-06-11_12h10.09.893,LearnStrategy,2023.2.3,Win32,120.4819277,1,2,16,,,,,,,,2,01,,,,,,,,,,,,,2,2.796,1,,,,,,-0.135185185,-0.251851852,1,0,0,2.796,Basalt_rect,15,0,15,0,1,
580d5d1f357e890001dd14ce,SCR,2024-06-11_12h10.09.893,LearnStrategy,2023.2.3,Win32,120.4819277,2,1,1,-0.076851852,0.24537037,1,0,0,1.182,Diorite_12,3,12,5,4,1.182,3,12,0.1,-0.239814815,1,0,0,3.5876,Diorite_rect,3,3.588,1,0,0,0,0,1,,,,,,,,,,,,,
580d5d1f357e890001dd14ce,SCR,2024-06-11_12h10.09.893,LearnStrategy,2023.2.3,Win32,120.4819277,2,1,2,-0.584259259,0.255555556,1,0,0,0.9363,Gabbro_05,4,05,5,1,0.936,4,05,0.101851852,-0.399074074,1,0,0,1.8065,Peridotite_rect,7,1.807,0,1,0,1,0,1,,,,,,,,,,,,,
580d5d1f357e890001dd14ce,SCR,2024-06-11_12h10.09.893,LearnStrategy,2023.2.3,Win32,120.4819277,2,1,3,0.037037037,0.231481481,1,0,0,0.9573,Pegmatite_08,6,08,5,5,0.957,6,08,-0.152777778,-0.262037037,1,0,0,2.5375,Basalt_rect,2,2.537,0,2,0,2,0,1,,,,,,,,,,,,,
580d5d1f357e890001dd14ce,SCR,2024-06-11_12h10.09.893,LearnStrategy,2023.2.3,Win32,120.4819277,2,1,4,0.065740741,0.090740741,1,0,0,0.8406,Gabbro_13,4,13,4,5,0.841,4,13,-0.389814815,-0.267592593,1,0,0,5.6811,Andesite_rect,1,5.681,0,3,0,3,0,1,,,,,,,,,,,,,
580d5d1f357e890001dd14ce,SCR,2024-06-11_12h10.09.893,LearnStrategy,2023.2.3,Win32,120.4819277,2,1,5,0.062962963,-0.263888889,1,0,0,1.1487,Andesite_03,1,03,2,5,1.149,1,03,0.094444444,-0.400925926,1,0,0,100.3913,Peridotite_rect,7,100.391,0,4,0,4,0,1,,,,,,,,,,,,,
580d5d1f357e890001dd14ce,SCR,2024-06-11_12h10.09.893,LearnStrategy,2023.2.3,Win32,120.4819277,2,1,6,0.402777778,0.462037037,1,0,0,1.3901,Andesite_06,1,06,6,7,1.39,1,06,0.382407407,-0.250925926,1,0,0,1.8151,Gabbro_rect,4,1.815,0,5,0,5,0,1,,,,,,,,,,,,,
580d5d1f357e890001dd14ce,SCR,2024-06-11_12h10.09.893,LearnStrategy,2023.2.3,Win32,120.4819277,2,1,7,-0.594444444,-0.438888889,1,0,0,1.0071,Diorite_07,3,07,1,1,1.007,3,07,0.112962963,-0.243518519,1,0,0,5.2621,Diorite_rect,3,5.262,1,6,0,6,0,1,,,,,,,,,,,,,
580d5d1f357e890001dd14ce,SCR,2024-06-11_12h10.09.893,LearnStrategy,2023.2.3,Win32,120.4819277,2,1,8,-0.349074074,0.434259259,1,0,0,1.2067,Basalt_02,2,02,6,2,1.207,2,02,-0.136111111,-0.253703704,1,0,0,3.1163,Basalt_rect,2,3.116,1,7,0,7,0,1,,,,,,,,,,,,,
580d5d1f357e890001dd14ce,SCR,2024-06-11_12h10.09.893,LearnStrategy,2023.2.3,Win32,120.4819277,2,1,9,0.086111111,-0.292592593,1,0,0,1.2408,Andesite_03,1,03,2,5,1.241,1,03,-0.425925926,-0.233333333,1,0,0,2.3711,Andesite_rect,1,2.371,1,8,0,8,0,1,,,,,,,,,,,,,
580d5d1f357e890001dd14ce,SCR,2024-06-11_12h10.09.893,LearnStrategy,2023.2.3,Win32,120.4819277,2,1,10,0.555555556,-0.112037037,1,0,0,0.9073,Gabbro_12,4,12,3,8,0.907,4,12,0.40462963,-0.249074074,1,0,0,0.903,Gabbro_rect,4,0.903,1,9,0,9,0,1,,,,,,,,,,,,,
580d5d1f357e890001dd14ce,SCR,2024-06-11_12h10.09.893,LearnStrategy,2023.2.3,Win32,120.4819277,2,1,11,-0.243518519,0.392592593,1,0,0,0.9404,Pegmatite_07,6,07,6,3,0.94,6,07,-0.105555556,-0.416666667,1,0,0,3.8707,Pegmatite_rect,6,3.871,1,10,0,10,0,1,,,,,,,,,,,,,
580d5d1f357e890001dd14ce,SCR,2024-06-11_12h10.09.893,LearnStrategy,2023.2.3,Win32,120.4819277,2,1,12,-0.214814815,0.275925926,1,0,0,1.0067,Diorite_14,3,14,5,3,1.007,3,14,0.07962963,-0.237962963,1,0,0,1.1454,Diorite_rect,3,1.145,1,11,0,11,0,1,,,,,,,,,,,,,
580d5d1f357e890001dd14ce,SCR,2024-06-11_12h10.09.893,LearnStrategy,2023.2.3,Win32,120.4819277,2,1,13,0.214814815,0.119444444,1,0,0,0.9236,Peridotite_02,7,02,4,6,0.924,7,02,0.112037037,-0.40462963,1,0,0,1.5469,Peridotite_rect,7,1.547,1,12,0,12,0,1,,,,,,,,,,,,,
580d5d1f357e890001dd14ce,SCR,2024-06-11_12h10.09.893,LearnStrategy,2023.2.3,Win32,120.4819277,2,1,14,-0.37962963,0.266666667,1,0,0,0.9236,Peridotite_13,7,13,5,2,0.924,7,13,0.144444444,-0.387962963,1,0,0,1.1873,Peridotite_rect,7,1.187,1,13,0,13,0,1,,,,,,,,,,,,,
580d5d1f357e890001dd14ce,SCR,2024-06-11_12h10.09.893,LearnStrategy,2023.2.3,Win32,120.4819277,2,1,15,0.389814815,-0.116666667,1,0,0,0.9486,Andesite_16,1,16,3,7,0.949,1,16,-0.387962963,-0.265740741,1,0,0,4.5389,Andesite_rect,1,4.539,1,14,0,14,0,1,,,,,,,,,,,,,
580d5d1f357e890001dd14ce,SCR,2024-06-11_12h10.09.893,LearnStrategy,2023.2.3,Win32,120.4819277,2,1,16,0.533333333,-0.427777778,1,0,0,1.2733,Gabbro_10,4,10,1,8,1.273,4,10,0.396296296,-0.255555556,1,0,0,2.8696,Gabbro_rect,4,2.87,1,15,0,15,0,1,,,,,,,,,,,,,
580d5d1f357e890001dd14ce,SCR,2024-06-11_12h10.09.893,LearnStrategy,2023.2.3,Win32,120.4819277,2,2,1,,,,,,,,8,10,,,,,,,,,,,,,8,1.978,1,,,,,,0.383333333,-0.407407407,1,0,0,1.9778,Pumice_rect,0,0,0,0,1,
580d5d1f357e890001dd14ce,SCR,2024-06-11_12h10.09.893,LearnStrategy,2023.2.3,Win32,120.4819277,2,2,2,,,,,,,,8,15,,,,,,,,,,,,,8,3.299,1,,,,,,0.391666667,-0.406481481,1,0,0,3.2988,Pumice_rect,1,0,1,0,1,
580d5d1f357e890001dd14ce,SCR,2024-06-11_12h10.09.893,LearnStrategy,2023.2.3,Win32,120.4819277,2,2,3,,,,,,,,6,11,,,,,,,,,,,,,1,3.804,0,,,,,,-0.381481481,-0.242592593,1,0,0,3.8039,Andesite_rect,2,0,2,0,1,
580d5d1f357e890001dd14ce,SCR,2024-06-11_12h10.09.893,LearnStrategy,2023.2.3,Win32,120.4819277,2,2,4,,,,,,,,7,16,,,,,,,,,,,,,7,1.187,1,,,,,,0.139814815,-0.392592593,1,0,0,1.1873,Peridotite_rect,3,0,3,0,1,
580d5d1f357e890001dd14ce,SCR,2024-06-11_12h10.09.893,LearnStrategy,2023.2.3,Win32,120.4819277,2,2,5,,,,,,,,4,09,,,,,,,,,,,,,2,3.334,0,,,,,,-0.102777778,-0.25,1,0,0,3.3344,Basalt_rect,4,0,4,0,1,
580d5d1f357e890001dd14ce,SCR,2024-06-11_12h10.09.893,LearnStrategy,2023.2.3,Win32,120.4819277,2,2,6,,,,,,,,2,09,,,,,,,,,,,,,4,1.556,0,,,,,,0.399074074,-0.262037037,1,0,0,1.5557,Gabbro_rect,5,0,5,0,1,
580d5d1f357e890001dd14ce,SCR,2024-06-11_12h10.09.893,LearnStrategy,2023.2.3,Win32,120.4819277,2,2,7,,,,,,,,1,11,,,,,,,,,,,,,1,2.312,1,,,,,,-0.405555556,-0.261111111,1,0,0,2.3123,Andesite_rect,6,0,6,0,1,
580d5d1f357e890001dd14ce,SCR,2024-06-11_12h10.09.893,LearnStrategy,2023.2.3,Win32,120.4819277,2,2,8,,,,,,,,5,11,,,,,,,,,,,,,5,1.641,1,,,,,,-0.435185185,-0.403703704,1,0,0,1.6407,Obsidian_rect,7,0,7,0,1,
580d5d1f357e890001dd14ce,SCR,2024-06-11_12h10.09.893,LearnStrategy,2023.2.3,Win32,120.4819277,2,2,9,,,,,,,,7,05,,,,,,,,,,,,,7,2.554,1,,,,,,0.092592593,-0.402777778,1,0,0,2.5543,Peridotite_rect,8,0,8,0,1,
580d5d1f357e890001dd14ce,SCR,2024-06-11_12h10.09.893,LearnStrategy,2023.2.3,Win32,120.4819277,2,2,10,,,,,,,,1,09,,,,,,,,,,,,,4,3.145,0,,,,,,0.414814815,-0.248148148,1,0,0,3.1455,Gabbro_rect,9,0,9,0,1,
580d5d1f357e890001dd14ce,SCR,2024-06-11_12h10.09.893,LearnStrategy,2023.2.3,Win32,120.4819277,2,2,11,,,,,,,,5,08,,,,,,,,,,,,,5,1.171,1,,,,,,-0.344444444,-0.417592593,1,0,0,1.1709,Obsidian_rect,10,0,10,0,1,
580d5d1f357e890001dd14ce,SCR,2024-06-11_12h10.09.893,LearnStrategy,2023.2.3,Win32,120.4819277,2,2,12,,,,,,,,3,10,,,,,,,,,,,,,3,3.477,1,,,,,,0.119444444,-0.236111111,1,0,0,3.4767,Diorite_rect,11,0,11,0,1,
580d5d1f357e890001dd14ce,SCR,2024-06-11_12h10.09.893,LearnStrategy,2023.2.3,Win32,120.4819277,2,2,13,,,,,,,,4,14,,,,,,,,,,,,,2,2.702,0,,,,,,-0.116666667,-0.243518519,1,0,0,2.7021,Basalt_rect,12,0,12,0,1,
580d5d1f357e890001dd14ce,SCR,2024-06-11_12h10.09.893,LearnStrategy,2023.2.3,Win32,120.4819277,2,2,14,,,,,,,,2,10,,,,,,,,,,,,,6,7.433,0,,,,,,-0.138888889,-0.387037037,1,0,0,7.4333,Pegmatite_rect,13,0,13,0,1,
580d5d1f357e890001dd14ce,SCR,2024-06-11_12h10.09.893,LearnStrategy,2023.2.3,Win32,120.4819277,2,2,15,,,,,,,,6,10,,,,,,,,,,,,,7,1.189,0,,,,,,0.131481481,-0.399074074,1,0,0,1.1892,Peridotite_rect,14,0,14,0,1,
580d5d1f357e890001dd14ce,SCR,2024-06-11_12h10.09.893,LearnStrategy,2023.2.3,Win32,120.4819277,2,2,16,,,,,,,,3,11,,,,,,,,,,,,,3,1.629,1,,,,,,0.140740741,-0.244444444,1,0,0,1.6291,Diorite_rect,15,0,15,0,1,
580d5d1f357e890001dd14ce,SCR,2024-06-11_12h10.09.893,LearnStrategy,2023.2.3,Win32,120.4819277,3,1,1,0.555555556,-0.260185185,1,0,0,1.1847,Basalt_08,2,08,2,8,1.185,2,08,-0.183333333,-0.230555556,1,0,0,1.3338,Basalt_rect,2,1.334,1,0,0,0,0,1,,,,,,,,,,,,,
580d5d1f357e890001dd14ce,SCR,2024-06-11_12h10.09.893,LearnStrategy,2023.2.3,Win32,120.4819277,3,1,2,0.522222222,0.449074074,1,0,0,1.1903,Basalt_05,2,05,6,8,1.19,2,05,-0.118518519,-0.231481481,1,0,0,1.4947,Basalt_rect,2,1.495,1,1,0,1,0,1,,,,,,,,,,,,,
580d5d1f357e890001dd14ce,SCR,2024-06-11_12h10.09.893,LearnStrategy,2023.2.3,Win32,120.4819277,3,1,3,-0.081481481,-0.221296296,1,0,0,0.8567,Gabbro_15,4,15,2,4,0.857,4,15,0.141666667,-0.240740741,1,0,0,2.7449,Diorite_rect,3,2.745,0,2,0,2,0,1,,,,,,,,,,,,,
580d5d1f357e890001dd14ce,SCR,2024-06-11_12h10.09.893,LearnStrategy,2023.2.3,Win32,120.4819277,3,1,4,0.25462963,-0.403703704,1,0,0,0.9233,Basalt_14,2,14,1,6,0.923,2,14,0.332407407,-0.237962963,1,0,0,6.0519,Gabbro_rect,4,6.052,0,3,0,3,0,1,,,,,,,,,,,,,
580d5d1f357e890001dd14ce,SCR,2024-06-11_12h10.09.893,LearnStrategy,2023.2.3,Win32,120.4819277,3,1,5,0.246296296,-0.102777778,1,0,0,0.9506,Pegmatite_12,6,12,3,6,0.951,6,12,0.076851852,-0.239814815,1,0,0,1.9903,Diorite_rect,3,1.99,0,4,0,4,0,1,,,,,,,,,,,,,
580d5d1f357e890001dd14ce,SCR,2024-06-11_12h10.09.893,LearnStrategy,2023.2.3,Win32,120.4819277,3,1,6,-0.531481481,0.274074074,1,0,0,1.2154,Gabbro_05,4,05,5,1,1.215,4,05,0.116666667,-0.390740741,1,0,0,1.2262,Peridotite_rect,7,1.226,0,5,0,5,0,1,,,,,,,,,,,,,
580d5d1f357e890001dd14ce,SCR,2024-06-11_12h10.09.893,LearnStrategy,2023.2.3,Win32,120.4819277,3,1,7,-0.340740741,-0.118518519,1,0,0,1.0012,Peridotite_07,7,07,3,2,1.001,7,07,0.142592593,-0.381481481,1,0,0,1.5159,Peridotite_rect,7,1.516,1,6,0,6,0,1,,,,,,,,,,,,,
580d5d1f357e890001dd14ce,SCR,2024-06-11_12h10.09.893,LearnStrategy,2023.2.3,Win32,120.4819277,3,1,8,0.212037037,0.361111111,1,0,0,1.0149,Pegmatite_09,6,09,6,6,1.015,6,09,0.17037037,-0.397222222,1,0,0,1.2032,Peridotite_rect,7,1.203,0,7,0,7,0,1,,,,,,,,,,,,,
580d5d1f357e890001dd14ce,SCR,2024-06-11_12h10.09.893,LearnStrategy,2023.2.3,Win32,120.4819277,3,1,9,0.394444444,-0.077777778,1,0,0,0.9073,Andesite_16,1,16,3,7,0.907,1,16,0.101851852,-0.248148148,1,0,0,4.5038,Diorite_rect,3,4.504,0,8,0,8,0,1,,,,,,,,,,,,,
580d5d1f357e890001dd14ce,SCR,2024-06-11_12h10.09.893,LearnStrategy,2023.2.3,Win32,120.4819277,3,1,10,0.202777778,-0.285185185,1,0,0,0.7838,Diorite_08,3,08,2,6,0.784,3,08,-0.362962963,-0.249074074,1,0,0,2.193,Andesite_rect,1,2.193,0,9,0,9,0,1,,,,,,,,,,,,,
580d5d1f357e890001dd14ce,SCR,2024-06-11_12h10.09.893,LearnStrategy,2023.2.3,Win32,120.4819277,3,1,11,-0.069444444,0.084259259,1,0,0,0.7151,Pegmatite_16,6,16,4,4,0.715,6,16,0.159259259,-0.239814815,1,0,0,3.1937,Diorite_rect,3,3.194,0,10,0,10,0,1,,,,,,,,,,,,,
580d5d1f357e890001dd14ce,SCR,2024-06-11_12h10.09.893,LearnStrategy,2023.2.3,Win32,120.4819277,3,1,12,0.028703704,-0.239814815,1,0,0,0.7926,Andesite_03,1,03,2,5,0.793,1,03,-0.434259259,-0.267592593,1,0,0,2.1951,Andesite_rect,1,2.195,1,11,0,11,0,1,,,,,,,,,,,,,
580d5d1f357e890001dd14ce,SCR,2024-06-11_12h10.09.893,LearnStrategy,2023.2.3,Win32,120.4819277,3,1,13,0.382407407,-0.091666667,1,0,0,0.9323,Andesite_16,1,16,3,7,0.932,1,16,0.369444444,-0.265740741,1,0,0,2.2115,Gabbro_rect,4,2.212,0,12,0,12,0,1,,,,,,,,,,,,,
580d5d1f357e890001dd14ce,SCR,2024-06-11_12h10.09.893,LearnStrategy,2023.2.3,Win32,120.4819277,3,1,14,-0.557407407,-0.121296296,1,0,0,0.924,Diorite_06,3,06,3,1,0.924,3,06,0.118518519,-0.268518519,1,0,0,2.2901,Diorite_rect,3,2.29,1,13,0,13,0,1,,,,,,,,,,,,,
580d5d1f357e890001dd14ce,SCR,2024-06-11_12h10.09.893,LearnStrategy,2023.2.3,Win32,120.4819277,3,1,15,-0.085185185,-0.262037037,1,0,0,1.0487,Gabbro_15,4,15,2,4,1.049,4,15,-0.138888889,-0.411111111,1,0,0,3.8018,Pegmatite_rect,6,3.802,0,14,0,14,0,1,,,,,,,,,,,,,
580d5d1f357e890001dd14ce,SCR,2024-06-11_12h10.09.893,LearnStrategy,2023.2.3,Win32,120.4819277,3,1,16,0.572222222,0.066666667,1,0,0,0.8088,Gabbro_11,4,11,4,8,0.809,4,11,-0.133333333,-0.401851852,1,0,0,5.2562,Pegmatite_rect,6,5.256,0,15,0,15,0,1,,,,,,,,,,,,,
580d5d1f357e890001dd14ce,SCR,2024-06-11_12h10.09.893,LearnStrategy,2023.2.3,Win32,120.4819277,3,2,1,,,,,,,,7,08,,,,,,,,,,,,,4,5.323,0,,,,,,0.393518519,-0.248148148,1,0,0,5.3232,Gabbro_rect,0,0,0,0,1,
580d5d1f357e890001dd14ce,SCR,2024-06-11_12h10.09.893,LearnStrategy,2023.2.3,Win32,120.4819277,3,2,2,,,,,,,,2,16,,,,,,,,,,,,,2,1.795,1,,,,,,-0.122222222,-0.237037037,1,0,0,1.7947,Basalt_rect,1,0,1,0,1,
580d5d1f357e890001dd14ce,SCR,2024-06-11_12h10.09.893,LearnStrategy,2023.2.3,Win32,120.4819277,3,2,3,,,,,,,,1,10,,,,,,,,,,,,,4,5.821,0,,,,,,0.359259259,-0.262037037,1,0,0,5.8212,Gabbro_rect,2,0,2,0,1,
580d5d1f357e890001dd14ce,SCR,2024-06-11_12h10.09.893,LearnStrategy,2023.2.3,Win32,120.4819277,3,2,4,,,,,,,,5,04,,,,,,,,,,,,,5,1.706,1,,,,,,-0.383333333,-0.397222222,1,0,0,1.7063,Obsidian_rect,3,0,3,0,1,
580d5d1f357e890001dd14ce,SCR,2024-06-11_12h10.09.893,LearnStrategy,2023.2.3,Win32,120.4819277,3,2,5,,,,,,,,8,13,,,,,,,,,,,,,8,1.729,1,,,,,,0.386111111,-0.399074074,1,0,0,1.7291,Pumice_rect,4,0,4,0,1,
580d5d1f357e890001dd14ce,SCR,2024-06-11_12h10.09.893,LearnStrategy,2023.2.3,Win32,120.4819277,3,2,6,,,,,,,,3,02,,,,,,,,,,,,,3,2.12,1,,,,,,0.111111111,-0.25,1,0,0,2.1203,Diorite_rect,5,0,5,0,1,
580d5d1f357e890001dd14ce,SCR,2024-06-11_12h10.09.893,LearnStrategy,2023.2.3,Win32,120.4819277,3,2,7,,,,,,,,1,01,,,,,,,,,,,,,6,2.329,0,,,,,,-0.152777778,-0.387962963,1,0,0,2.3292,Pegmatite_rect,6,0,6,0,1,
580d5d1f357e890001dd14ce,SCR,2024-06-11_12h10.09.893,LearnStrategy,2023.2.3,Win32,120.4819277,3,2,8,,,,,,,,4,01,,,,,,,,,,,,,6,1.77,0,,,,,,-0.152777778,-0.387962963,1,0,0,1.77,Pegmatite_rect,7,0,7,0,1,
580d5d1f357e890001dd14ce,SCR,2024-06-11_12h10.09.893,LearnStrategy,2023.2.3,Win32,120.4819277,3,2,9,,,,,,,,6,13,,,,,,,,,,,,,8,1.755,0,,,,,,0.399074074,-0.40462963,1,0,0,1.7552,Pumice_rect,8,0,8,0,1,
580d5d1f357e890001dd14ce,SCR,2024-06-11_12h10.09.893,LearnStrategy,2023.2.3,Win32,120.4819277,3,2,10,,,,,,,,4,08,,,,,,,,,,,,,1,4.577,0,,,,,,-0.375925926,-0.256481481,1,0,0,4.577,Andesite_rect,9,0,9,0,1,
580d5d1f357e890001dd14ce,SCR,2024-06-11_12h10.09.893,LearnStrategy,2023.2.3,Win32,120.4819277,3,2,11,,,,,,,,5,02,,,,,,,,,,,,,5,1.005,1,,,,,,-0.351851852,-0.387962963,1,0,0,1.005,Obsidian_rect,10,0,10,0,1,
580d5d1f357e890001dd14ce,SCR,2024-06-11_12h10.09.893,LearnStrategy,2023.2.3,Win32,120.4819277,3,2,12,,,,,,,,8,16,,,,,,,,,,,,,1,2.735,0,,,,,,-0.325,-0.237962963,1,0,0,2.7354,Andesite_rect,11,0,11,0,1,
580d5d1f357e890001dd14ce,SCR,2024-06-11_12h10.09.893,LearnStrategy,2023.2.3,Win32,120.4819277,3,2,13,,,,,,,,2,12,,,,,,,,,,,,,8,2.07,0,,,,,,0.437962963,-0.396296296,1,0,0,2.0703,Pumice_rect,12,0,12,0,1,
580d5d1f357e890001dd14ce,SCR,2024-06-11_12h10.09.893,LearnStrategy,2023.2.3,Win32,120.4819277,3,2,14,,,,,,,,7,12,,,,,,,,,,,,,6,3.189,0,,,,,,-0.126851852,-0.400925926,1,0,0,3.1891,Pegmatite_rect,13,0,13,0,1,
580d5d1f357e890001dd14ce,SCR,2024-06-11_12h10.09.893,LearnStrategy,2023.2.3,Win32,120.4819277,3,2,15,,,,,,,,6,03,,,,,,,,,,,,,6,1.912,1,,,,,,-0.136111111,-0.408333333,1,0,0,1.9119,Pegmatite_rect,14,0,14,0,1,
580d5d1f357e890001dd14ce,SCR,2024-06-11_12h10.09.893,LearnStrategy,2023.2.3,Win32,120.4819277,3,2,16,,,,,,,,3,09,,,,,,,,,,,,,3,1.062,1,,,,,,0.114814815,-0.22962963,1,0,0,1.0616,Diorite_rect,15,0,15,0,1,
580d5d1f357e890001dd14ce,SCR,2024-06-11_12h10.09.893,LearnStrategy,2023.2.3,Win32,120.4819277,4,1,1,0.411111111,-0.286111111,1,0,0,1.1652,Diorite_13,3,13,2,7,1.165,3,13,0.139814815,-0.259259259,1,0,0,1.3049,Diorite_rect,3,1.305,1,0,0,0,0,1,,,,,,,,,,,,,
580d5d1f357e890001dd14ce,SCR,2024-06-11_12h10.09.893,LearnStrategy,2023.2.3,Win32,120.4819277,4,1,2,-0.389814815,0.266666667,1,0,0,0.9738,Peridotite_13,7,13,5,2,0.974,7,13,0.089814815,-0.397222222,1,0,0,1.0368,Peridotite_rect,7,1.037,1,1,0,1,0,1,,,,,,,,,,,,,
580d5d1f357e890001dd14ce,SCR,2024-06-11_12h10.09.893,LearnStrategy,2023.2.3,Win32,120.4819277,4,1,3,0.20462963,-0.082407407,1,0,0,0.7406,Pegmatite_12,6,12,3,6,0.741,6,12,-0.405555556,-0.231481481,1,0,0,1.7618,Andesite_rect,1,1.762,0,2,0,2,0,1,,,,,,,,,,,,,
580d5d1f357e890001dd14ce,SCR,2024-06-11_12h10.09.893,LearnStrategy,2023.2.3,Win32,120.4819277,4,1,4,-0.112962963,-0.276851852,1,0,0,0.6822,Gabbro_15,4,15,2,4,0.682,4,15,-0.125,-0.237962963,1,0,0,1.2843,Basalt_rect,2,1.284,0,3,0,3,0,1,,,,,,,,,,,,,
580d5d1f357e890001dd14ce,SCR,2024-06-11_12h10.09.893,LearnStrategy,2023.2.3,Win32,120.4819277,4,1,5,0.530555556,-0.075,1,0,0,1.0182,Gabbro_12,4,12,3,8,1.018,4,12,0.411111111,-0.235185185,1,0,0,0.6506,Gabbro_rect,4,0.651,1,4,0,4,0,1,,,,,,,,,,,,,
580d5d1f357e890001dd14ce,SCR,2024-06-11_12h10.09.893,LearnStrategy,2023.2.3,Win32,120.4819277,4,1,6,0.337962963,0.399074074,1,0,0,1.1244,Andesite_06,1,06,6,7,1.124,1,06,0.342592593,-0.247222222,1,0,0,1.0678,Gabbro_rect,4,1.068,0,5,0,5,0,1,,,,,,,,,,,,,
580d5d1f357e890001dd14ce,SCR,2024-06-11_12h10.09.893,LearnStrategy,2023.2.3,Win32,120.4819277,4,1,7,-0.260185185,0.425925926,1,0,0,0.9595,Pegmatite_07,6,07,6,3,0.959,6,07,-0.112037037,-0.390740741,1,0,0,1.2737,Pegmatite_rect,6,1.274,1,6,0,6,0,1,,,,,,,,,,,,,
580d5d1f357e890001dd14ce,SCR,2024-06-11_12h10.09.893,LearnStrategy,2023.2.3,Win32,120.4819277,4,1,8,0.389814815,0.223148148,1,0,0,0.7236,Pumice_03,8,03,5,7,0.724,8,03,0.375925926,-0.387037037,1,0,0,1.1037,Pumice_rect,8,1.104,1,7,0,7,0,1,,,,,,,,,,,,,
580d5d1f357e890001dd14ce,SCR,2024-06-11_12h10.09.893,LearnStrategy,2023.2.3,Win32,120.4819277,4,1,9,-0.39537037,-0.114814815,1,0,0,0.9326,Peridotite_07,7,07,3,2,0.933,7,07,0.118518519,-0.402777778,1,0,0,2.253,Peridotite_rect,7,2.253,1,8,0,8,0,1,,,,,,,,,,,,,
580d5d1f357e890001dd14ce,SCR,2024-06-11_12h10.09.893,LearnStrategy,2023.2.3,Win32,120.4819277,4,1,10,-0.116666667,0.099074074,1,0,0,0.7406,Pegmatite_16,6,16,4,4,0.741,6,16,-0.366666667,-0.259259259,1,0,0,2.4802,Andesite_rect,1,2.48,0,9,0,9,0,1,,,,,,,,,,,,,
580d5d1f357e890001dd14ce,SCR,2024-06-11_12h10.09.893,LearnStrategy,2023.2.3,Win32,120.4819277,4,1,11,0.550925926,0.436111111,1,0,0,1.0072,Basalt_05,2,05,6,8,1.007,2,05,-0.099074074,-0.256481481,1,0,0,1.8281,Basalt_rect,2,1.828,1,10,0,10,0,1,,,,,,,,,,,,,
580d5d1f357e890001dd14ce,SCR,2024-06-11_12h10.09.893,LearnStrategy,2023.2.3,Win32,120.4819277,4,1,12,0.376851852,0.435185185,1,0,0,0.9822,Andesite_06,1,06,6,7,0.982,1,06,0.387037037,-0.236111111,1,0,0,0.7029,Gabbro_rect,4,0.703,0,11,0,11,0,1,,,,,,,,,,,,,
580d5d1f357e890001dd14ce,SCR,2024-06-11_12h10.09.893,LearnStrategy,2023.2.3,Win32,120.4819277,4,1,13,0.558333333,-0.272222222,1,0,0,0.9826,Basalt_08,2,08,2,8,0.983,2,08,-0.138888889,-0.237037037,1,0,0,2.071,Basalt_rect,2,2.071,1,12,0,12,0,1,,,,,,,,,,,,,
580d5d1f357e890001dd14ce,SCR,2024-06-11_12h10.09.893,LearnStrategy,2023.2.3,Win32,120.4819277,4,1,14,-0.537962963,-0.257407407,1,0,0,1.224,Andesite_07,1,07,2,1,1.224,1,07,0.417592593,-0.262037037,1,0,0,0.8709,Gabbro_rect,4,0.871,0,13,0,13,0,1,,,,,,,,,,,,,
580d5d1f357e890001dd14ce,SCR,2024-06-11_12h10.09.893,LearnStrategy,2023.2.3,Win32,120.4819277,4,1,15,-0.583333333,0.24537037,1,0,0,0.9409,Gabbro_05,4,05,5,1,0.941,4,05,0.116666667,-0.387962963,1,0,0,1.9495,Peridotite_rect,7,1.95,0,14,0,14,0,1,,,,,,,,,,,,,
580d5d1f357e890001dd14ce,SCR,2024-06-11_12h10.09.893,LearnStrategy,2023.2.3,Win32,120.4819277,4,1,16,0.50462963,-0.112962963,1,0,0,0.7656,Gabbro_12,4,12,3,8,0.766,4,12,0.367592593,-0.244444444,1,0,0,0.6516,Gabbro_rect,4,0.652,1,15,0,15,0,1,,,,,,,,,,,,,
580d5d1f357e890001dd14ce,SCR,2024-06-11_12h10.09.893,LearnStrategy,2023.2.3,Win32,120.4819277,4,2,1,,,,,,,,7,08,,,,,,,,,,,,,7,146.666,1,,,,,,0.133333333,-0.387037037,1,0,0,146.6658,Peridotite_rect,0,0,0,0,1,
580d5d1f357e890001dd14ce,SCR,2024-06-11_12h10.09.893,LearnStrategy,2023.2.3,Win32,120.4819277,4,2,2,,,,,,,,3,09,,,,,,,,,,,,,3,10.38,1,,,,,,0.112962963,-0.238888889,1,0,0,10.3801,Diorite_rect,1,0,1,0,1,
580d5d1f357e890001dd14ce,SCR,2024-06-11_12h10.09.893,LearnStrategy,2023.2.3,Win32,120.4819277,4,2,3,,,,,,,,2,01,,,,,,,,,,,,,2,26.749,1,,,,,,-0.199074074,-0.264814815,1,0,0,26.749,Basalt_rect,2,0,2,0,1,
580d5d1f357e890001dd14ce,SCR,2024-06-11_12h10.09.893,LearnStrategy,2023.2.3,Win32,120.4819277,4,2,4,,,,,,,,4,03,,,,,,,,,,,,,3,10.415,0,,,,,,0.101851852,-0.267592593,1,0,0,10.4153,Diorite_rect,3,0,3,0,1,
580d5d1f357e890001dd14ce,SCR,2024-06-11_12h10.09.893,LearnStrategy,2023.2.3,Win32,120.4819277,4,2,5,,,,,,,,3,10,,,,,,,,,,,,,3,7.444,1,,,,,,0.108333333,-0.231481481,1,0,0,7.4442,Diorite_rect,4,0,4,0,1,
580d5d1f357e890001dd14ce,SCR,2024-06-11_12h10.09.893,LearnStrategy,2023.2.3,Win32,120.4819277,4,2,6,,,,,,,,4,09,,,,,,,,,,,,,6,33.416,0,,,,,,-0.173148148,-0.386111111,1,0,0,33.4157,Pegmatite_rect,5,0,5,0,1,
580d5d1f357e890001dd14ce,SCR,2024-06-11_12h10.09.893,LearnStrategy,2023.2.3,Win32,120.4819277,4,2,7,,,,,,,,2,09,,,,,,,,,,,,,4,3.874,0,,,,,,0.418518519,-0.260185185,1,0,0,3.8739,Gabbro_rect,6,0,6,0,1,
580d5d1f357e890001dd14ce,SCR,2024-06-11_12h10.09.893,LearnStrategy,2023.2.3,Win32,120.4819277,4,2,8,,,,,,,,1,04,,,,,,,,,,,,,7,2.437,0,,,,,,0.082407407,-0.396296296,1,0,0,2.4373,Peridotite_rect,7,0,7,0,1,
580d5d1f357e890001dd14ce,SCR,2024-06-11_12h10.09.893,LearnStrategy,2023.2.3,Win32,120.4819277,4,2,9,,,,,,,,6,11,,,,,,,,,,,,,6,2.435,1,,,,,,-0.199074074,-0.394444444,1,0,0,2.4353,Pegmatite_rect,8,0,8,0,1,
580d5d1f357e890001dd14ce,SCR,2024-06-11_12h10.09.893,LearnStrategy,2023.2.3,Win32,120.4819277,4,2,10,,,,,,,,6,05,,,,,,,,,,,,,5,4.739,0,,,,,,-0.399074074,-0.40462963,1,0,0,4.7386,Obsidian_rect,9,0,9,0,1,
580d5d1f357e890001dd14ce,SCR,2024-06-11_12h10.09.893,LearnStrategy,2023.2.3,Win32,120.4819277,4,2,11,,,,,,,,8,04,,,,,,,,,,,,,8,0.988,1,,,,,,0.355555556,-0.39537037,1,0,0,0.9878,Pumice_rect,10,0,10,0,1,
580d5d1f357e890001dd14ce,SCR,2024-06-11_12h10.09.893,LearnStrategy,2023.2.3,Win32,120.4819277,4,2,12,,,,,,,,5,08,,,,,,,,,,,,,5,1.341,1,,,,,,-0.432407407,-0.392592593,1,0,0,1.3411,Obsidian_rect,11,0,11,0,1,
580d5d1f357e890001dd14ce,SCR,2024-06-11_12h10.09.893,LearnStrategy,2023.2.3,Win32,120.4819277,4,2,13,,,,,,,,5,16,,,,,,,,,,,,,5,0.703,1,,,,,,-0.433333333,-0.393518519,1,0,0,0.7034,Obsidian_rect,12,0,12,0,1,
580d5d1f357e890001dd14ce,SCR,2024-06-11_12h10.09.893,LearnStrategy,2023.2.3,Win32,120.4819277,4,2,14,,,,,,,,1,11,,,,,,,,,,,,,1,3.605,1,,,,,,-0.452777778,-0.266666667,1,0,0,3.6048,Andesite_rect,13,0,13,0,1,
580d5d1f357e890001dd14ce,SCR,2024-06-11_12h10.09.893,LearnStrategy,2023.2.3,Win32,120.4819277,4,2,15,,,,,,,,8,06,,,,,,,,,,,,,8,1.079,1,,,,,,0.383333333,-0.414814815,1,0,0,1.0785,Pumice_rect,14,0,14,0,1,
580d5d1f357e890001dd14ce,SCR,2024-06-11_12h10.09.893,LearnStrategy,2023.2.3,Win32,120.4819277,4,2,16,,,,,,,,7,05,,,,,,,,,,,,,7,2.287,1,,,,,,0.102777778,-0.381481481,1,0,0,2.2867,Peridotite_rect,15,0,15,0,1,
580d5d1f357e890001dd14ce,SCR,2024-06-11_12h10.09.893,LearnStrategy,2023.2.3,Win32,120.4819277,5,1,1,-0.256481481,-0.069444444,1,0,0,1.1739,Andesite_14,1,14,3,3,1.174,1,14,-0.403703704,-0.248148148,1,0,0,2.1519,Andesite_rect,1,2.152,1,0,0,0,0,1,,,,,,,,,,,,,
580d5d1f357e890001dd14ce,SCR,2024-06-11_12h10.09.893,LearnStrategy,2023.2.3,Win32,120.4819277,5,1,2,0.55462963,0.1,1,0,0,1.058,Gabbro_11,4,11,4,8,1.058,4,11,0.377777778,-0.247222222,1,0,0,1.2662,Gabbro_rect,4,1.266,1,1,0,1,0,1,,,,,,,,,,,,,
580d5d1f357e890001dd14ce,SCR,2024-06-11_12h10.09.893,LearnStrategy,2023.2.3,Win32,120.4819277,5,1,3,0.538888889,0.082407407,1,0,0,0.9177,Gabbro_11,4,11,4,8,0.918,4,11,0.308333333,-0.240740741,1,0,0,1.0055,Gabbro_rect,4,1.005,1,2,0,2,0,1,,,,,,,,,,,,,
580d5d1f357e890001dd14ce,SCR,2024-06-11_12h10.09.893,LearnStrategy,2023.2.3,Win32,120.4819277,5,1,4,0.081481481,-0.1,1,0,0,0.6653,Obsidian_12,5,12,3,5,0.665,5,12,-0.413888889,-0.416666667,1,0,0,0.6792,Obsidian_rect,5,0.679,1,3,0,3,0,1,,,,,,,,,,,,,
580d5d1f357e890001dd14ce,SCR,2024-06-11_12h10.09.893,LearnStrategy,2023.2.3,Win32,120.4819277,5,1,5,0.402777778,-0.113888889,1,0,0,0.8578,Andesite_16,1,16,3,7,0.858,1,16,-0.125925926,-0.419444444,1,0,0,3.051,Pegmatite_rect,6,3.051,0,4,0,4,0,1,,,,,,,,,,,,,
580d5d1f357e890001dd14ce,SCR,2024-06-11_12h10.09.893,LearnStrategy,2023.2.3,Win32,120.4819277,5,1,6,0.082407407,0.24537037,1,0,0,0.8264,Pegmatite_08,6,08,5,5,0.826,6,08,-0.151851852,-0.403703704,1,0,0,1.532,Pegmatite_rect,6,1.532,1,5,0,5,0,1,,,,,,,,,,,,,
580d5d1f357e890001dd14ce,SCR,2024-06-11_12h10.09.893,LearnStrategy,2023.2.3,Win32,120.4819277,5,1,7,0.055555556,0.228703704,1,0,0,0.7739,Pegmatite_08,6,08,5,5,0.774,6,08,-0.078703704,-0.400925926,1,0,0,0.753,Pegmatite_rect,6,0.753,1,6,0,6,0,1,,,,,,,,,,,,,
580d5d1f357e890001dd14ce,SCR,2024-06-11_12h10.09.893,LearnStrategy,2023.2.3,Win32,120.4819277,5,1,8,-0.406481481,-0.292592593,1,0,0,0.9399,Peridotite_15,7,15,2,2,0.94,7,15,0.134259259,-0.403703704,1,0,0,1.6709,Peridotite_rect,7,1.671,1,7,0,7,0,1,,,,,,,,,,,,,
580d5d1f357e890001dd14ce,SCR,2024-06-11_12h10.09.893,LearnStrategy,2023.2.3,Win32,120.4819277,5,1,9,-0.578703704,0.294444444,1,0,0,0.8821,Gabbro_05,4,05,5,1,0.882,4,05,-0.375925926,-0.262037037,1,0,0,2.8299,Andesite_rect,1,2.83,0,8,0,8,0,1,,,,,,,,,,,,,
580d5d1f357e890001dd14ce,SCR,2024-06-11_12h10.09.893,LearnStrategy,2023.2.3,Win32,120.4819277,5,1,10,-0.263888889,-0.462037037,1,0,0,1.2407,Pumice_05,8,05,1,3,1.241,8,05,0.442592593,-0.391666667,1,0,0,0.6172,Pumice_rect,8,0.617,1,9,0,9,0,1,,,,,,,,,,,,,
580d5d1f357e890001dd14ce,SCR,2024-06-11_12h10.09.893,LearnStrategy,2023.2.3,Win32,120.4819277,5,1,11,0.118518519,-0.414814815,1,0,0,0.8596,Peridotite_10,7,10,1,5,0.86,7,10,0.117592593,-0.414814815,1,0,0,1.2804,Peridotite_rect,7,1.28,1,10,0,10,0,1,,,,,,,,,,,,,
580d5d1f357e890001dd14ce,SCR,2024-06-11_12h10.09.893,LearnStrategy,2023.2.3,Win32,120.4819277,5,1,12,0.525,-0.412037037,1,0,0,1.0175,Gabbro_10,4,10,1,8,1.017,4,10,-0.362037037,-0.246296296,1,0,0,2.449,Andesite_rect,1,2.449,0,11,0,11,0,1,,,,,,,,,,,,,
580d5d1f357e890001dd14ce,SCR,2024-06-11_12h10.09.893,LearnStrategy,2023.2.3,Win32,120.4819277,5,1,13,0.237962963,-0.415740741,1,0,0,0.7823,Basalt_14,2,14,1,6,0.782,2,14,-0.44537037,-0.246296296,1,0,0,1.8453,Andesite_rect,1,1.845,0,12,0,12,0,1,,,,,,,,,,,,,
580d5d1f357e890001dd14ce,SCR,2024-06-11_12h10.09.893,LearnStrategy,2023.2.3,Win32,120.4819277,5,1,14,0.251851852,0.419444444,1,0,0,0.7906,Pegmatite_09,6,09,6,6,0.791,6,09,-0.149074074,-0.401851852,1,0,0,1.5449,Pegmatite_rect,6,1.545,1,13,0,13,0,1,,,,,,,,,,,,,
580d5d1f357e890001dd14ce,SCR,2024-06-11_12h10.09.893,LearnStrategy,2023.2.3,Win32,120.4819277,5,1,15,-0.092592593,0.251851852,1,0,0,1.7489,Diorite_12,3,12,5,4,1.749,3,12,0.057407407,-0.231481481,1,0,0,1.5234,Diorite_rect,3,1.523,1,14,0,14,0,1,,,,,,,,,,,,,
580d5d1f357e890001dd14ce,SCR,2024-06-11_12h10.09.893,LearnStrategy,2023.2.3,Win32,120.4819277,5,1,16,-0.550925926,0.401851852,1,0,0,1.2903,Basalt_06,2,06,6,1,1.29,2,06,-0.187962963,-0.239814815,1,0,0,1.178,Basalt_rect,2,1.178,1,15,0,15,0,1,,,,,,,,,,,,,
580d5d1f357e890001dd14ce,SCR,2024-06-11_12h10.09.893,LearnStrategy,2023.2.3,Win32,120.4819277,5,2,1,,,,,,,,1,09,,,,,,,,,,,,,1,10.41,1,,,,,,-0.357407407,-0.251851852,1,0,0,10.4102,Andesite_rect,0,0,0,0,1,
580d5d1f357e890001dd14ce,SCR,2024-06-11_12h10.09.893,LearnStrategy,2023.2.3,Win32,120.4819277,5,2,2,,,,,,,,3,16,,,,,,,,,,,,,3,7.164,1,,,,,,0.112962963,-0.259259259,1,0,0,7.1636,Diorite_rect,1,0,1,0,1,
580d5d1f357e890001dd14ce,SCR,2024-06-11_12h10.09.893,LearnStrategy,2023.2.3,Win32,120.4819277,5,2,3,,,,,,,,7,06,,,,,,,,,,,,,7,6.971,1,,,,,,0.077777778,-0.378703704,1,0,0,6.9709,Peridotite_rect,2,0,2,0,1,
580d5d1f357e890001dd14ce,SCR,2024-06-11_12h10.09.893,LearnStrategy,2023.2.3,Win32,120.4819277,5,2,4,,,,,,,,2,10,,,,,,,,,,,,,2,10.453,1,,,,,,-0.150925926,-0.253703704,1,0,0,10.453,Basalt_rect,3,0,3,0,1,
580d5d1f357e890001dd14ce,SCR,2024-06-11_12h10.09.893,LearnStrategy,2023.2.3,Win32,120.4819277,5,2,5,,,,,,,,8,15,,,,,,,,,,,,,8,8.663,1,,,,,,0.403703704,-0.408333333,1,0,0,8.6627,Pumice_rect,4,0,4,0,1,
580d5d1f357e890001dd14ce,SCR,2024-06-11_12h10.09.893,LearnStrategy,2023.2.3,Win32,120.4819277,5,2,6,,,,,,,,1,05,,,,,,,,,,,,,4,10.856,0,,,,,,0.393518519,-0.262962963,1,0,0,10.8562,Gabbro_rect,5,0,5,0,1,
580d5d1f357e890001dd14ce,SCR,2024-06-11_12h10.09.893,LearnStrategy,2023.2.3,Win32,120.4819277,5,2,7,,,,,,,,5,06,,,,,,,,,,,,,5,1.495,1,,,,,,-0.415740741,-0.392592593,1,0,0,1.4951,Obsidian_rect,6,0,6,0,1,
580d5d1f357e890001dd14ce,SCR,2024-06-11_12h10.09.893,LearnStrategy,2023.2.3,Win32,120.4819277,5,2,8,,,,,,,,6,03,,,,,,,,,,,,,6,1.389,1,,,,,,-0.14537037,-0.383333333,1,0,0,1.3892,Pegmatite_rect,7,0,7,0,1,
580d5d1f357e890001dd14ce,SCR,2024-06-11_12h10.09.893,LearnStrategy,2023.2.3,Win32,120.4819277,5,2,9,,,,,,,,6,13,,,,,,,,,,,,,6,27.241,1,,,,,,-0.140740741,-0.412962963,1,0,0,27.2407,Pegmatite_rect,8,0,8,0,1,
580d5d1f357e890001dd14ce,SCR,2024-06-11_12h10.09.893,LearnStrategy,2023.2.3,Win32,120.4819277,5,2,10,,,,,,,,4,01,,,,,,,,,,,,,4,2.121,1,,,,,,0.381481481,-0.253703704,1,0,0,2.1206,Gabbro_rect,9,0,9,0,1,
580d5d1f357e890001dd14ce,SCR,2024-06-11_12h10.09.893,LearnStrategy,2023.2.3,Win32,120.4819277,5,2,11,,,,,,,,2,04,,,,,,,,,,,,,2,1.087,1,,,,,,-0.166666667,-0.268518519,1,0,0,1.0868,Basalt_rect,10,0,10,0,1,
580d5d1f357e890001dd14ce,SCR,2024-06-11_12h10.09.893,LearnStrategy,2023.2.3,Win32,120.4819277,5,2,12,,,,,,,,7,16,,,,,,,,,,,,,7,1.529,1,,,,,,0.062037037,-0.403703704,1,0,0,1.5292,Peridotite_rect,11,0,11,0,1,
580d5d1f357e890001dd14ce,SCR,2024-06-11_12h10.09.893,LearnStrategy,2023.2.3,Win32,120.4819277,5,2,13,,,,,,,,4,08,,,,,,,,,,,,,1,4.203,0,,,,,,-0.383333333,-0.248148148,1,0,0,4.203,Andesite_rect,12,0,12,0,1,
580d5d1f357e890001dd14ce,SCR,2024-06-11_12h10.09.893,LearnStrategy,2023.2.3,Win32,120.4819277,5,2,14,,,,,,,,3,02,,,,,,,,,,,,,3,1.639,1,,,,,,0.101851852,-0.260185185,1,0,0,1.6387,Diorite_rect,13,0,13,0,1,
580d5d1f357e890001dd14ce,SCR,2024-06-11_12h10.09.893,LearnStrategy,2023.2.3,Win32,120.4819277,5,2,15,,,,,,,,5,11,,,,,,,,,,,,,5,1.003,1,,,,,,-0.371296296,-0.388888889,1,0,0,1.0032,Obsidian_rect,14,0,14,0,1,
580d5d1f357e890001dd14ce,SCR,2024-06-11_12h10.09.893,LearnStrategy,2023.2.3,Win32,120.4819277,5,2,16,,,,,,,,8,10,,,,,,,,,,,,,8,1.213,1,,,,,,0.394444444,-0.415740741,1,0,0,1.2127,Pumice_rect,15,0,15,0,1,
580d5d1f357e890001dd14ce,SCR,2024-06-11_12h10.09.893,LearnStrategy,2023.2.3,Win32,120.4819277,6,1,1,0.412037037,0.455555556,1,0,0,1.2658,Andesite_06,1,06,6,7,1.266,1,06,-0.346296296,-0.244444444,1,0,0,1.2899,Andesite_rect,1,1.29,1,0,0,0,0,1,,,,,,,,,,,,,
580d5d1f357e890001dd14ce,SCR,2024-06-11_12h10.09.893,LearnStrategy,2023.2.3,Win32,120.4819277,6,1,2,-0.569444444,0.274074074,1,0,0,0.8739,Gabbro_05,4,05,5,1,0.874,4,05,0.106481481,-0.407407407,1,0,0,2.0831,Peridotite_rect,7,2.083,0,1,0,1,0,1,,,,,,,,,,,,,
580d5d1f357e890001dd14ce,SCR,2024-06-11_12h10.09.893,LearnStrategy,2023.2.3,Win32,120.4819277,6,1,3,-0.116666667,-0.248148148,1,0,0,0.8322,Gabbro_15,4,15,2,4,0.832,4,15,-0.119444444,-0.266666667,1,0,0,0.992,Basalt_rect,2,0.992,0,2,0,2,0,1,,,,,,,,,,,,,
580d5d1f357e890001dd14ce,SCR,2024-06-11_12h10.09.893,LearnStrategy,2023.2.3,Win32,120.4819277,6,1,4,0.541666667,0.242592593,1,0,0,0.8151,Obsidian_09,5,09,5,8,0.815,5,09,-0.366666667,-0.398148148,1,0,0,1.1716,Obsidian_rect,5,1.172,1,3,0,3,0,1,,,,,,,,,,,,,
580d5d1f357e890001dd14ce,SCR,2024-06-11_12h10.09.893,LearnStrategy,2023.2.3,Win32,120.4819277,6,1,5,0.373148148,-0.39537037,1,0,0,1.4503,Andesite_02,1,02,1,7,1.45,1,02,0.075925926,-0.234259259,1,0,0,1.5862,Diorite_rect,3,1.586,0,4,0,4,0,1,,,,,,,,,,,,,
580d5d1f357e890001dd14ce,SCR,2024-06-11_12h10.09.893,LearnStrategy,2023.2.3,Win32,120.4819277,6,1,6,-0.086111111,0.377777778,1,0,0,0.9406,Pumice_09,8,09,6,4,0.941,8,09,0.406481481,-0.418518519,1,0,0,1.6282,Pumice_rect,8,1.628,1,5,0,5,0,1,,,,,,,,,,,,,
580d5d1f357e890001dd14ce,SCR,2024-06-11_12h10.09.893,LearnStrategy,2023.2.3,Win32,120.4819277,6,1,7,0.363888889,0.381481481,1,0,0,1.1491,Andesite_06,1,06,6,7,1.149,1,06,0.346296296,-0.240740741,1,0,0,1.0914,Gabbro_rect,4,1.091,0,6,0,6,0,1,,,,,,,,,,,,,
580d5d1f357e890001dd14ce,SCR,2024-06-11_12h10.09.893,LearnStrategy,2023.2.3,Win32,120.4819277,6,1,8,0.512962963,0.12037037,1,0,0,1.026,Gabbro_11,4,11,4,8,1.026,4,11,0.341666667,-0.260185185,1,0,0,1.9077,Gabbro_rect,4,1.908,1,7,0,7,0,1,,,,,,,,,,,,,
580d5d1f357e890001dd14ce,SCR,2024-06-11_12h10.09.893,LearnStrategy,2023.2.3,Win32,120.4819277,6,1,9,0.062037037,0.1,1,0,0,0.924,Gabbro_13,4,13,4,5,0.924,4,13,-0.212962963,-0.409259259,1,0,0,2.0372,Pegmatite_rect,6,2.037,0,8,0,8,0,1,,,,,,,,,,,,,
580d5d1f357e890001dd14ce,SCR,2024-06-11_12h10.09.893,LearnStrategy,2023.2.3,Win32,120.4819277,6,1,10,-0.419444444,0.408333333,1,0,0,0.8821,Basalt_02,2,02,6,2,0.882,2,02,-0.363888889,-0.252777778,1,0,0,1.272,Andesite_rect,1,1.272,0,9,0,9,0,1,,,,,,,,,,,,,
580d5d1f357e890001dd14ce,SCR,2024-06-11_12h10.09.893,LearnStrategy,2023.2.3,Win32,120.4819277,6,1,11,-0.087037037,0.240740741,1,0,0,0.749,Diorite_12,3,12,5,4,0.749,3,12,0.119444444,-0.237962963,1,0,0,1.2449,Diorite_rect,3,1.245,1,10,0,10,0,1,,,,,,,,,,,,,
580d5d1f357e890001dd14ce,SCR,2024-06-11_12h10.09.893,LearnStrategy,2023.2.3,Win32,120.4819277,6,1,12,0.239814815,-0.377777778,1,0,0,0.9295,Basalt_14,2,14,1,6,0.929,2,14,-0.131481481,-0.252777778,1,0,0,0.9492,Basalt_rect,2,0.949,1,11,0,11,0,1,,,,,,,,,,,,,
580d5d1f357e890001dd14ce,SCR,2024-06-11_12h10.09.893,LearnStrategy,2023.2.3,Win32,120.4819277,6,1,13,-0.396296296,-0.106481481,1,0,0,0.8159,Peridotite_07,7,07,3,2,0.816,7,07,-0.381481481,-0.247222222,1,0,0,1.1037,Andesite_rect,1,1.104,0,12,0,12,0,1,,,,,,,,,,,,,
580d5d1f357e890001dd14ce,SCR,2024-06-11_12h10.09.893,LearnStrategy,2023.2.3,Win32,120.4819277,6,1,14,-0.05,0.067592593,1,0,0,0.5655,Pegmatite_16,6,16,4,4,0.565,6,16,-0.134259259,-0.418518519,1,0,0,1.7184,Pegmatite_rect,6,1.718,1,13,0,13,0,1,,,,,,,,,,,,,
580d5d1f357e890001dd14ce,SCR,2024-06-11_12h10.09.893,LearnStrategy,2023.2.3,Win32,120.4819277,6,1,15,0.268518519,-0.100925926,1,0,0,0.7177,Pegmatite_12,6,12,3,6,0.718,6,12,0.166666667,-0.25,1,0,0,1.2084,Diorite_rect,3,1.208,0,14,0,14,0,1,,,,,,,,,,,,,
580d5d1f357e890001dd14ce,SCR,2024-06-11_12h10.09.893,LearnStrategy,2023.2.3,Win32,120.4819277,6,1,16,0.065740741,-0.243518519,1,0,0,0.7239,Andesite_03,1,03,2,5,0.724,1,03,0.359259259,-0.24537037,1,0,0,2.8959,Gabbro_rect,4,2.896,0,15,0,15,0,1,,,,,,,,,,,,,
580d5d1f357e890001dd14ce,SCR,2024-06-11_12h10.09.893,LearnStrategy,2023.2.3,Win32,120.4819277,6,2,1,,,,,,,,1,01,,,,,,,,,,,,,1,2.852,1,,,,,,-0.406481481,-0.261111111,1,0,0,2.8517,Andesite_rect,0,0,0,0,1,
580d5d1f357e890001dd14ce,SCR,2024-06-11_12h10.09.893,LearnStrategy,2023.2.3,Win32,120.4819277,6,2,2,,,,,,,,3,11,,,,,,,,,,,,,3,1.524,1,,,,,,0.092592593,-0.251851852,1,0,0,1.524,Diorite_rect,1,0,1,0,1,
580d5d1f357e890001dd14ce,SCR,2024-06-11_12h10.09.893,LearnStrategy,2023.2.3,Win32,120.4819277,6,2,3,,,,,,,,8,13,,,,,,,,,,,,,8,1.345,1,,,,,,0.417592593,-0.394444444,1,0,0,1.3454,Pumice_rect,2,0,2,0,1,
580d5d1f357e890001dd14ce,SCR,2024-06-11_12h10.09.893,LearnStrategy,2023.2.3,Win32,120.4819277,6,2,4,,,,,,,,7,12,,,,,,,,,,,,,7,1.212,1,,,,,,0.126851852,-0.378703704,1,0,0,1.212,Peridotite_rect,3,0,3,0,1,
580d5d1f357e890001dd14ce,SCR,2024-06-11_12h10.09.893,LearnStrategy,2023.2.3,Win32,120.4819277,6,2,5,,,,,,,,6,15,,,,,,,,,,,,,6,1.055,1,,,,,,-0.076851852,-0.405555556,1,0,0,1.0552,Pegmatite_rect,4,0,4,0,1,
580d5d1f357e890001dd14ce,SCR,2024-06-11_12h10.09.893,LearnStrategy,2023.2.3,Win32,120.4819277,6,2,6,,,,,,,,6,10,,,,,,,,,,,,,6,0.664,1,,,,,,-0.075925926,-0.406481481,1,0,0,0.6637,Pegmatite_rect,5,0,5,0,1,
580d5d1f357e890001dd14ce,SCR,2024-06-11_12h10.09.893,LearnStrategy,2023.2.3,Win32,120.4819277,6,2,7,,,,,,,,1,10,,,,,,,,,,,,,2,3.794,0,,,,,,-0.187037037,-0.263888889,1,0,0,3.7937,Basalt_rect,6,0,6,0,1,
580d5d1f357e890001dd14ce,SCR,2024-06-11_12h10.09.893,LearnStrategy,2023.2.3,Win32,120.4819277,6,2,8,,,,,,,,5,04,,,,,,,,,,,,,5,1.033,1,,,,,,-0.339814815,-0.378703704,1,0,0,1.0334,Obsidian_rect,7,0,7,0,1,
580d5d1f357e890001dd14ce,SCR,2024-06-11_12h10.09.893,LearnStrategy,2023.2.3,Win32,120.4819277,6,2,9,,,,,,,,4,14,,,,,,,,,,,,,2,1.581,0,,,,,,-0.147222222,-0.260185185,1,0,0,1.581,Basalt_rect,8,0,8,0,1,
580d5d1f357e890001dd14ce,SCR,2024-06-11_12h10.09.893,LearnStrategy,2023.2.3,Win32,120.4819277,6,2,10,,,,,,,,7,14,,,,,,,,,,,,,1,5.572,0,,,,,,-0.441666667,-0.259259259,1,0,0,5.5724,Andesite_rect,9,0,9,0,1,
580d5d1f357e890001dd14ce,SCR,2024-06-11_12h10.09.893,LearnStrategy,2023.2.3,Win32,120.4819277,6,2,11,,,,,,,,4,16,,,,,,,,,,,,,2,1.619,0,,,,,,-0.100925926,-0.27037037,1,0,0,1.6186,Basalt_rect,10,0,10,0,1,
580d5d1f357e890001dd14ce,SCR,2024-06-11_12h10.09.893,LearnStrategy,2023.2.3,Win32,120.4819277,6,2,12,,,,,,,,2,12,,,,,,,,,,,,,8,2.924,0,,,,,,0.387962963,-0.416666667,1,0,0,2.9241,Pumice_rect,11,0,11,0,1,
580d5d1f357e890001dd14ce,SCR,2024-06-11_12h10.09.893,LearnStrategy,2023.2.3,Win32,120.4819277,6,2,13,,,,,,,,5,02,,,,,,,,,,,,,5,1.225,1,,,,,,-0.409259259,-0.402777778,1,0,0,1.2246,Obsidian_rect,12,0,12,0,1,
580d5d1f357e890001dd14ce,SCR,2024-06-11_12h10.09.893,LearnStrategy,2023.2.3,Win32,120.4819277,6,2,14,,,,,,,,3,15,,,,,,,,,,,,,3,6.18,1,,,,,,0.110185185,-0.255555556,1,0,0,6.1802,Diorite_rect,13,0,13,0,1,
580d5d1f357e890001dd14ce,SCR,2024-06-11_12h10.09.893,LearnStrategy,2023.2.3,Win32,120.4819277,6,2,15,,,,,,,,8,16,,,,,,,,,,,,,2,1.151,0,,,,,,-0.180555556,-0.267592593,1,0,0,1.1514,Basalt_rect,14,0,14,0,1,
580d5d1f357e890001dd14ce,SCR,2024-06-11_12h10.09.893,LearnStrategy,2023.2.3,Win32,120.4819277,6,2,16,,,,,,,,2,16,,,,,,,,,,,,,2,0.698,1,,,,,,-0.180555556,-0.267592593,1,0,0,0.6979,Basalt_rect,15,0,15,0,1,
580d5d1f357e890001dd14ce,SCR,2024-06-11_12h10.09.893,LearnStrategy,2023.2.3,Win32,120.4819277,7,1,1,0.071296296,-0.107407407,1,0,0,1.1122,Obsidian_12,5,12,3,5,1.112,5,12,-0.37962963,-0.398148148,1,0,0,0.8073,Obsidian_rect,5,0.807,1,0,0,0,0,1,,,,,,,,,,,,,
580d5d1f357e890001dd14ce,SCR,2024-06-11_12h10.09.893,LearnStrategy,2023.2.3,Win32,120.4819277,7,1,2,0.592592593,0.456481481,1,0,0,0.9957,Basalt_05,2,05,6,8,0.996,2,05,-0.115740741,-0.252777778,1,0,0,1.0911,Basalt_rect,2,1.091,1,1,0,1,0,1,,,,,,,,,,,,,
580d5d1f357e890001dd14ce,SCR,2024-06-11_12h10.09.893,LearnStrategy,2023.2.3,Win32,120.4819277,7,1,3,-0.093518519,0.237037037,1,0,0,0.7789,Diorite_12,3,12,5,4,0.779,3,12,0.096296296,-0.248148148,1,0,0,0.9193,Diorite_rect,3,0.919,1,2,0,2,0,1,,,,,,,,,,,,,
580d5d1f357e890001dd14ce,SCR,2024-06-11_12h10.09.893,LearnStrategy,2023.2.3,Win32,120.4819277,7,1,4,0.512037037,0.059259259,1,0,0,0.8121,Gabbro_11,4,11,4,8,0.812,4,11,-0.397222222,-0.244444444,1,0,0,1.9836,Andesite_rect,1,1.984,0,3,0,3,0,1,,,,,,,,,,,,,
580d5d1f357e890001dd14ce,SCR,2024-06-11_12h10.09.893,LearnStrategy,2023.2.3,Win32,120.4819277,7,1,5,-0.072222222,-0.223148148,1,0,0,0.7073,Gabbro_15,4,15,2,4,0.707,4,15,-0.123148148,-0.409259259,1,0,0,3.8861,Pegmatite_rect,6,3.886,0,4,0,4,0,1,,,,,,,,,,,,,
580d5d1f357e890001dd14ce,SCR,2024-06-11_12h10.09.893,LearnStrategy,2023.2.3,Win32,120.4819277,7,1,6,0.062037037,-0.392592593,1,0,0,0.8736,Peridotite_10,7,10,1,5,0.874,7,10,0.096296296,-0.394444444,1,0,0,1.1451,Peridotite_rect,7,1.145,1,5,0,5,0,1,,,,,,,,,,,,,
580d5d1f357e890001dd14ce,SCR,2024-06-11_12h10.09.893,LearnStrategy,2023.2.3,Win32,120.4819277,7,1,7,-0.442592593,-0.094444444,1,0,0,0.7993,Peridotite_07,7,07,3,2,0.799,7,07,0.062037037,-0.401851852,1,0,0,2.0058,Peridotite_rect,7,2.006,1,6,0,6,0,1,,,,,,,,,,,,,
580d5d1f357e890001dd14ce,SCR,2024-06-11_12h10.09.893,LearnStrategy,2023.2.3,Win32,120.4819277,7,1,8,-0.065740741,-0.22962963,1,0,0,0.7239,Gabbro_15,4,15,2,4,0.724,4,15,-0.065740741,-0.22962963,1,0,0,1.5622,Basalt_rect,2,1.562,0,7,0,7,0,1,,,,,,,,,,,,,
580d5d1f357e890001dd14ce,SCR,2024-06-11_12h10.09.893,LearnStrategy,2023.2.3,Win32,120.4819277,7,1,9,-0.221296296,0.391666667,1,0,0,0.9072,Pegmatite_07,6,07,6,3,0.907,6,07,-0.117592593,-0.407407407,1,0,0,1.0698,Pegmatite_rect,6,1.07,1,8,0,8,0,1,,,,,,,,,,,,,
580d5d1f357e890001dd14ce,SCR,2024-06-11_12h10.09.893,LearnStrategy,2023.2.3,Win32,120.4819277,7,1,10,0.275925926,-0.112962963,1,0,0,0.7574,Pegmatite_12,6,12,3,6,0.757,1,16,-0.151851852,-0.397222222,1,0,0,2.2521,Pegmatite_rect,6,2.252,1,9,0,9,0,1,,,,,,,,,,,,,
580d5d1f357e890001dd14ce,SCR,2024-06-11_12h10.09.893,LearnStrategy,2023.2.3,Win32,120.4819277,7,1,11,-0.271296296,-0.07962963,1,0,0,0.7845,Andesite_14,1,14,3,3,0.785,1,14,-0.376851852,-0.237037037,1,0,0,3.3751,Andesite_rect,1,3.375,1,10,0,10,0,1,,,,,,,,,,,,,
580d5d1f357e890001dd14ce,SCR,2024-06-11_12h10.09.893,LearnStrategy,2023.2.3,Win32,120.4819277,7,1,12,-0.082407407,-0.387037037,1,0,0,0.9489,Basalt_11,2,11,1,4,0.949,2,11,-0.341666667,-0.267592593,1,0,0,0.9825,Andesite_rect,1,0.982,0,11,0,11,0,1,,,,,,,,,,,,,
580d5d1f357e890001dd14ce,SCR,2024-06-11_12h10.09.893,LearnStrategy,2023.2.3,Win32,120.4819277,7,1,13,-0.569444444,0.1,1,0,0,0.7736,Pumice_08,8,08,4,1,0.774,8,08,0.324074074,-0.390740741,1,0,0,1.3785,Pumice_rect,8,1.379,1,12,0,12,0,1,,,,,,,,,,,,,
580d5d1f357e890001dd14ce,SCR,2024-06-11_12h10.09.893,LearnStrategy,2023.2.3,Win32,120.4819277,7,1,14,0.577777778,-0.412962963,1,0,0,0.9823,Gabbro_10,4,10,1,8,0.982,4,10,-0.127777778,-0.233333333,1,0,0,1.7622,Basalt_rect,2,1.762,0,13,0,13,0,1,,,,,,,,,,,,,
580d5d1f357e890001dd14ce,SCR,2024-06-11_12h10.09.893,LearnStrategy,2023.2.3,Win32,120.4819277,7,1,15,-0.249074074,0.092592593,1,0,0,0.665,Pumice_14,8,14,4,3,0.665,8,14,0.409259259,-0.392592593,1,0,0,0.9461,Pumice_rect,8,0.946,1,14,0,14,0,1,,,,,,,,,,,,,
580d5d1f357e890001dd14ce,SCR,2024-06-11_12h10.09.893,LearnStrategy,2023.2.3,Win32,120.4819277,7,1,16,0.535185185,0.372222222,1,0,0,0.854,Basalt_05,2,05,6,8,0.854,2,05,-0.192592593,-0.252777778,1,0,0,1.2966,Basalt_rect,2,1.297,1,15,0,15,0,1,,,,,,,,,,,,,
580d5d1f357e890001dd14ce,SCR,2024-06-11_12h10.09.893,LearnStrategy,2023.2.3,Win32,120.4819277,7,2,1,,,,,,,,4,16,,,,,,,,,,,,,2,1.447,0,,,,,,-0.098148148,-0.240740741,1,0,0,1.4466,Basalt_rect,0,0,0,0,1,
580d5d1f357e890001dd14ce,SCR,2024-06-11_12h10.09.893,LearnStrategy,2023.2.3,Win32,120.4819277,7,2,2,,,,,,,,2,12,,,,,,,,,,,,,8,1.195,0,,,,,,0.442592593,-0.40462963,1,0,0,1.1947,Pumice_rect,1,0,1,0,1,
580d5d1f357e890001dd14ce,SCR,2024-06-11_12h10.09.893,LearnStrategy,2023.2.3,Win32,120.4819277,7,2,3,,,,,,,,2,16,,,,,,,,,,,,,2,1.219,1,,,,,,-0.156481481,-0.268518519,1,0,0,1.2194,Basalt_rect,2,0,2,0,1,
580d5d1f357e890001dd14ce,SCR,2024-06-11_12h10.09.893,LearnStrategy,2023.2.3,Win32,120.4819277,7,2,4,,,,,,,,1,04,,,,,,,,,,,,,1,4.438,1,,,,,,-0.380555556,-0.248148148,1,0,0,4.4376,Andesite_rect,3,0,3,0,1,
580d5d1f357e890001dd14ce,SCR,2024-06-11_12h10.09.893,LearnStrategy,2023.2.3,Win32,120.4819277,7,2,5,,,,,,,,3,10,,,,,,,,,,,,,4,1.222,0,,,,,,0.368518519,-0.261111111,1,0,0,1.2223,Gabbro_rect,4,0,4,0,1,
580d5d1f357e890001dd14ce,SCR,2024-06-11_12h10.09.893,LearnStrategy,2023.2.3,Win32,120.4819277,7,2,6,,,,,,,,8,13,,,,,,,,,,,,,8,0.954,1,,,,,,0.371296296,-0.403703704,1,0,0,0.9539,Pumice_rect,5,0,5,0,1,
580d5d1f357e890001dd14ce,SCR,2024-06-11_12h10.09.893,LearnStrategy,2023.2.3,Win32,120.4819277,7,2,7,,,,,,,,6,03,,,,,,,,,,,,,6,1.109,1,,,,,,-0.126851852,-0.400925926,1,0,0,1.1088,Pegmatite_rect,6,0,6,0,1,
580d5d1f357e890001dd14ce,SCR,2024-06-11_12h10.09.893,LearnStrategy,2023.2.3,Win32,120.4819277,7,2,8,,,,,,,,1,11,,,,,,,,,,,,,1,2.638,1,,,,,,-0.35,-0.264814815,1,0,0,2.6379,Andesite_rect,7,0,7,0,1,
580d5d1f357e890001dd14ce,SCR,2024-06-11_12h10.09.893,LearnStrategy,2023.2.3,Win32,120.4819277,7,2,9,,,,,,,,7,06,,,,,,,,,,,,,7,1.229,1,,,,,,0.210185185,-0.40462963,1,0,0,1.2286,Peridotite_rect,8,0,8,0,1,
580d5d1f357e890001dd14ce,SCR,2024-06-11_12h10.09.893,LearnStrategy,2023.2.3,Win32,120.4819277,7,2,10,,,,,,,,4,03,,,,,,,,,,,,,4,2.694,1,,,,,,0.387962963,-0.246296296,1,0,0,2.6935,Gabbro_rect,9,0,9,0,1,
580d5d1f357e890001dd14ce,SCR,2024-06-11_12h10.09.893,LearnStrategy,2023.2.3,Win32,120.4819277,7,2,11,,,,,,,,5,11,,,,,,,,,,,,,5,0.998,1,,,,,,-0.385185185,-0.418518519,1,0,0,0.9983,Obsidian_rect,10,0,10,0,1,
580d5d1f357e890001dd14ce,SCR,2024-06-11_12h10.09.893,LearnStrategy,2023.2.3,Win32,120.4819277,7,2,12,,,,,,,,7,14,,,,,,,,,,,,,1,3.738,0,,,,,,-0.375,-0.264814815,1,0,0,3.7381,Andesite_rect,11,0,11,0,1,
580d5d1f357e890001dd14ce,SCR,2024-06-11_12h10.09.893,LearnStrategy,2023.2.3,Win32,120.4819277,7,2,13,,,,,,,,6,10,,,,,,,,,,,,,6,1.173,1,,,,,,-0.12962963,-0.401851852,1,0,0,1.1734,Pegmatite_rect,12,0,12,0,1,
580d5d1f357e890001dd14ce,SCR,2024-06-11_12h10.09.893,LearnStrategy,2023.2.3,Win32,120.4819277,7,2,14,,,,,,,,3,09,,,,,,,,,,,,,3,1.548,1,,,,,,0.158333333,-0.22962963,1,0,0,1.5484,Diorite_rect,13,0,13,0,1,
580d5d1f357e890001dd14ce,SCR,2024-06-11_12h10.09.893,LearnStrategy,2023.2.3,Win32,120.4819277,7,2,15,,,,,,,,5,08,,,,,,,,,,,,,5,1.138,1,,,,,,-0.378703704,-0.414814815,1,0,0,1.138,Obsidian_rect,14,0,14,0,1,
580d5d1f357e890001dd14ce,SCR,2024-06-11_12h10.09.893,LearnStrategy,2023.2.3,Win32,120.4819277,7,2,16,,,,,,,,8,16,,,,,,,,,,,,,2,0.954,0,,,,,,-0.123148148,-0.246296296,1,0,0,0.9542,Basalt_rect,15,0,15,0,1,
580d5d1f357e890001dd14ce,SCR,2024-06-11_12h10.09.893,LearnStrategy,2023.2.3,Win32,120.4819277,8,1,1,0.071296296,-0.224074074,1,0,0,1.066,Andesite_03,1,03,2,5,1.066,1,03,-0.422222222,-0.243518519,1,0,0,2.0523,Andesite_rect,1,2.052,1,0,0,0,0,1,,,,,,,,,,,,,
580d5d1f357e890001dd14ce,SCR,2024-06-11_12h10.09.893,LearnStrategy,2023.2.3,Win32,120.4819277,8,1,2,-0.564814815,0.375925926,1,0,0,0.9989,Basalt_06,2,06,6,1,0.999,2,06,-0.14537037,-0.256481481,1,0,0,1.0548,Basalt_rect,2,1.055,1,1,0,1,0,1,,,,,,,,,,,,,
580d5d1f357e890001dd14ce,SCR,2024-06-11_12h10.09.893,LearnStrategy,2023.2.3,Win32,120.4819277,8,1,3,-0.375925926,-0.371296296,1,0,0,0.9653,Pumice_02,8,02,1,2,0.965,8,02,0.328703704,-0.398148148,1,0,0,1.2441,Pumice_rect,8,1.244,1,2,0,2,0,1,,,,,,,,,,,,,
580d5d1f357e890001dd14ce,SCR,2024-06-11_12h10.09.893,LearnStrategy,2023.2.3,Win32,120.4819277,8,1,4,-0.05462963,-0.384259259,1,0,0,0.8263,Basalt_11,2,11,1,4,0.826,2,11,-0.40462963,-0.233333333,1,0,0,2.5145,Andesite_rect,1,2.514,0,3,0,3,0,1,,,,,,,,,,,,,
580d5d1f357e890001dd14ce,SCR,2024-06-11_12h10.09.893,LearnStrategy,2023.2.3,Win32,120.4819277,8,1,5,-0.247222222,-0.119444444,1,0,0,0.8347,Andesite_14,1,14,3,3,0.835,1,14,-0.112037037,-0.266666667,1,0,0,1.3119,Basalt_rect,2,1.312,0,4,0,4,0,1,,,,,,,,,,,,,
580d5d1f357e890001dd14ce,SCR,2024-06-11_12h10.09.893,LearnStrategy,2023.2.3,Win32,120.4819277,8,1,6,-0.075925926,0.076851852,1,0,0,0.6655,Pegmatite_16,6,16,4,4,0.665,6,16,-0.128703704,-0.390740741,1,0,0,0.7764,Pegmatite_rect,6,0.776,1,5,0,5,0,1,,,,,,,,,,,,,
580d5d1f357e890001dd14ce,SCR,2024-06-11_12h10.09.893,LearnStrategy,2023.2.3,Win32,120.4819277,8,1,7,0.521296296,0.091666667,1,0,0,0.8095,Gabbro_11,4,11,4,8,0.81,4,11,-0.083333333,-0.251851852,1,0,0,1.2253,Basalt_rect,2,1.225,0,6,0,6,0,1,,,,,,,,,,,,,
580d5d1f357e890001dd14ce,SCR,2024-06-11_12h10.09.893,LearnStrategy,2023.2.3,Win32,120.4819277,8,1,8,0.537037037,0.086111111,1,0,0,0.7324,Gabbro_11,4,11,4,8,0.732,4,11,0.355555556,-0.22962963,1,0,0,0.642,Gabbro_rect,4,0.642,1,7,0,7,0,1,,,,,,,,,,,,,
580d5d1f357e890001dd14ce,SCR,2024-06-11_12h10.09.893,LearnStrategy,2023.2.3,Win32,120.4819277,8,1,9,0.521296296,0.106481481,1,0,0,0.7742,Gabbro_11,4,11,4,8,0.774,4,11,0.347222222,-0.271296296,1,0,0,0.9942,Gabbro_rect,4,0.994,1,8,0,8,0,1,,,,,,,,,,,,,
580d5d1f357e890001dd14ce,SCR,2024-06-11_12h10.09.893,LearnStrategy,2023.2.3,Win32,120.4819277,8,1,10,-0.428703704,0.427777778,1,0,0,0.8574,Basalt_02,2,02,6,2,0.857,2,02,-0.375,-0.246296296,1,0,0,1.7274,Andesite_rect,1,1.727,0,9,0,9,0,1,,,,,,,,,,,,,
580d5d1f357e890001dd14ce,SCR,2024-06-11_12h10.09.893,LearnStrategy,2023.2.3,Win32,120.4819277,8,1,11,-0.198148148,-0.243518519,1,0,0,0.8072,Obsidian_05,5,05,2,3,0.807,5,05,-0.165740741,-0.400925926,1,0,0,1.7701,Pegmatite_rect,6,1.77,0,10,0,10,0,1,,,,,,,,,,,,,
580d5d1f357e890001dd14ce,SCR,2024-06-11_12h10.09.893,LearnStrategy,2023.2.3,Win32,120.4819277,8,1,12,0.118518519,0.087962963,1,0,0,0.6904,Gabbro_13,4,13,4,5,0.69,4,13,-0.184259259,-0.231481481,1,0,0,2.4189,Basalt_rect,2,2.419,0,11,0,11,0,1,,,,,,,,,,,,,
580d5d1f357e890001dd14ce,SCR,2024-06-11_12h10.09.893,LearnStrategy,2023.2.3,Win32,120.4819277,8,1,13,-0.561111111,0.094444444,1,0,0,0.9346,Pumice_08,8,08,4,1,0.935,8,08,0.375925926,-0.398148148,1,0,0,1.7075,Pumice_rect,8,1.707,1,12,0,12,0,1,,,,,,,,,,,,,
580d5d1f357e890001dd14ce,SCR,2024-06-11_12h10.09.893,LearnStrategy,2023.2.3,Win32,120.4819277,8,1,14,-0.538888889,-0.071296296,1,0,0,0.8824,Diorite_06,3,06,3,1,0.882,3,06,0.160185185,-0.25462963,1,0,0,3.7869,Diorite_rect,3,3.787,1,13,0,13,0,1,,,,,,,,,,,,,
580d5d1f357e890001dd14ce,SCR,2024-06-11_12h10.09.893,LearnStrategy,2023.2.3,Win32,120.4819277,8,1,15,-0.425925926,-0.128703704,1,0,0,0.7575,Peridotite_07,7,07,3,2,0.757,7,07,0.137037037,-0.401851852,1,0,0,1.5847,Peridotite_rect,7,1.585,1,14,0,14,0,1,,,,,,,,,,,,,
580d5d1f357e890001dd14ce,SCR,2024-06-11_12h10.09.893,LearnStrategy,2023.2.3,Win32,120.4819277,8,1,16,-0.385185185,-0.223148148,1,0,0,1.1016,Peridotite_15,7,15,2,2,1.102,7,15,-0.134259259,-0.392592593,1,0,0,1.1586,Pegmatite_rect,6,1.159,0,15,0,15,0,1,,,,,,,,,,,,,
580d5d1f357e890001dd14ce,SCR,2024-06-11_12h10.09.893,LearnStrategy,2023.2.3,Win32,120.4819277,8,2,1,,,,,,,,8,15,,,,,,,,,,,,,8,1.564,1,,,,,,0.446296296,-0.400925926,1,0,0,1.5637,Pumice_rect,0,0,0,0,1,
580d5d1f357e890001dd14ce,SCR,2024-06-11_12h10.09.893,LearnStrategy,2023.2.3,Win32,120.4819277,8,2,2,,,,,,,,7,12,,,,,,,,,,,,,7,2.181,1,,,,,,0.107407407,-0.399074074,1,0,0,2.1806,Peridotite_rect,1,0,1,0,1,
580d5d1f357e890001dd14ce,SCR,2024-06-11_12h10.09.893,LearnStrategy,2023.2.3,Win32,120.4819277,8,2,3,,,,,,,,8,04,,,,,,,,,,,,,8,1.154,1,,,,,,0.37962963,-0.400925926,1,0,0,1.1543,Pumice_rect,2,0,2,0,1,
580d5d1f357e890001dd14ce,SCR,2024-06-11_12h10.09.893,LearnStrategy,2023.2.3,Win32,120.4819277,8,2,4,,,,,,,,5,04,,,,,,,,,,,,,5,0.957,1,,,,,,-0.439814815,-0.380555556,1,0,0,0.9565,Obsidian_rect,3,0,3,0,1,
580d5d1f357e890001dd14ce,SCR,2024-06-11_12h10.09.893,LearnStrategy,2023.2.3,Win32,120.4819277,8,2,5,,,,,,,,4,14,,,,,,,,,,,,,2,1.481,0,,,,,,-0.130555556,-0.252777778,1,0,0,1.4807,Basalt_rect,4,0,4,0,1,
580d5d1f357e890001dd14ce,SCR,2024-06-11_12h10.09.893,LearnStrategy,2023.2.3,Win32,120.4819277,8,2,6,,,,,,,,2,09,,,,,,,,,,,,,4,3.681,0,,,,,,0.387962963,-0.22962963,1,0,0,3.6812,Gabbro_rect,5,0,5,0,1,
580d5d1f357e890001dd14ce,SCR,2024-06-11_12h10.09.893,LearnStrategy,2023.2.3,Win32,120.4819277,8,2,7,,,,,,,,3,02,,,,,,,,,,,,,3,2.991,1,,,,,,0.14537037,-0.242592593,1,0,0,2.9906,Diorite_rect,6,0,6,0,1,
580d5d1f357e890001dd14ce,SCR,2024-06-11_12h10.09.893,LearnStrategy,2023.2.3,Win32,120.4819277,8,2,8,,,,,,,,6,13,,,,,,,,,,,,,6,1.51,1,,,,,,-0.099074074,-0.398148148,1,0,0,1.5095,Pegmatite_rect,7,0,7,0,1,
580d5d1f357e890001dd14ce,SCR,2024-06-11_12h10.09.893,LearnStrategy,2023.2.3,Win32,120.4819277,8,2,9,,,,,,,,1,05,,,,,,,,,,,,,4,2.506,0,,,,,,0.298148148,-0.237037037,1,0,0,2.5056,Gabbro_rect,8,0,8,0,1,
580d5d1f357e890001dd14ce,SCR,2024-06-11_12h10.09.893,LearnStrategy,2023.2.3,Win32,120.4819277,8,2,10,,,,,,,,1,09,,,,,,,,,,,,,4,0.92,0,,,,,,0.298148148,-0.237037037,1,0,0,0.9205,Gabbro_rect,9,0,9,0,1,
580d5d1f357e890001dd14ce,SCR,2024-06-11_12h10.09.893,LearnStrategy,2023.2.3,Win32,120.4819277,8,2,11,,,,,,,,7,08,,,,,,,,,,,,,6,2.787,0,,,,,,-0.138888889,-0.389814815,1,0,0,2.7871,Pegmatite_rect,10,0,10,0,1,
580d5d1f357e890001dd14ce,SCR,2024-06-11_12h10.09.893,LearnStrategy,2023.2.3,Win32,120.4819277,8,2,12,,,,,,,,4,01,,,,,,,,,,,,,7,1.644,0,,,,,,0.140740741,-0.412962963,1,0,0,1.6444,Peridotite_rect,11,0,11,0,1,
580d5d1f357e890001dd14ce,SCR,2024-06-11_12h10.09.893,LearnStrategy,2023.2.3,Win32,120.4819277,8,2,13,,,,,,,,6,15,,,,,,,,,,,,,6,1.034,1,,,,,,-0.114814815,-0.403703704,1,0,0,1.034,Pegmatite_rect,12,0,12,0,1,
580d5d1f357e890001dd14ce,SCR,2024-06-11_12h10.09.893,LearnStrategy,2023.2.3,Win32,120.4819277,8,2,14,,,,,,,,5,06,,,,,,,,,,,,,5,0.988,1,,,,,,-0.388888889,-0.390740741,1,0,0,0.9877,Obsidian_rect,13,0,13,0,1,
580d5d1f357e890001dd14ce,SCR,2024-06-11_12h10.09.893,LearnStrategy,2023.2.3,Win32,120.4819277,8,2,15,,,,,,,,2,01,,,,,,,,,,,,,2,1.995,1,,,,,,-0.160185185,-0.251851852,1,0,0,1.9954,Basalt_rect,14,0,14,0,1,
580d5d1f357e890001dd14ce,SCR,2024-06-11_12h10.09.893,LearnStrategy,2023.2.3,Win32,120.4819277,8,2,16,,,,,,,,3,15,,,,,,,,,,,,,3,2.206,1,,,,,,0.126851852,-0.267592593,1,0,0,2.206,Diorite_rect,15,0,15,0,1,
580d5d1f357e890001dd14ce,SCR,2024-06-11_12h10.09.893,LearnStrategy,2023.2.3,Win32,120.4819277,9,1,1,0.525925926,0.407407407,1,0,0,1.241,Basalt_05,2,05,6,8,1.241,2,05,-0.111111111,-0.250925926,1,0,0,1.0846,Basalt_rect,2,1.085,1,0,0,0,0,1,,,,,,,,,,,,,
580d5d1f357e890001dd14ce,SCR,2024-06-11_12h10.09.893,LearnStrategy,2023.2.3,Win32,120.4819277,9,1,2,0.210185185,-0.241666667,1,0,0,0.8572,Diorite_08,3,08,2,6,0.857,3,08,-0.172222222,-0.408333333,1,0,0,1.0171,Pegmatite_rect,6,1.017,0,1,0,1,0,1,,,,,,,,,,,,,
580d5d1f357e890001dd14ce,SCR,2024-06-11_12h10.09.893,LearnStrategy,2023.2.3,Win32,120.4819277,9,1,3,-0.053703704,-0.103703704,1,0,0,0.6325,Pegmatite_06,6,06,3,4,0.632,6,06,-0.137037037,-0.389814815,1,0,0,1.4868,Pegmatite_rect,6,1.487,1,2,0,2,0,1,,,,,,,,,,,,,
580d5d1f357e890001dd14ce,SCR,2024-06-11_12h10.09.893,LearnStrategy,2023.2.3,Win32,120.4819277,9,1,4,-0.42962963,0.400925926,1,0,0,0.8907,Basalt_02,2,02,6,2,0.891,2,02,-0.167592593,-0.237037037,1,0,0,0.7725,Basalt_rect,2,0.773,1,3,0,3,0,1,,,,,,,,,,,,,
580d5d1f357e890001dd14ce,SCR,2024-06-11_12h10.09.893,LearnStrategy,2023.2.3,Win32,120.4819277,9,1,5,-0.098148148,0.231481481,1,0,0,0.9408,Diorite_12,3,12,5,4,0.941,3,12,-0.339814815,-0.249074074,1,0,0,5.0688,Andesite_rect,1,5.069,0,4,0,4,0,1,,,,,,,,,,,,,
580d5d1f357e890001dd14ce,SCR,2024-06-11_12h10.09.893,LearnStrategy,2023.2.3,Win32,120.4819277,9,1,6,0.403703704,0.416666667,1,0,0,0.9873,Andesite_06,1,06,6,7,0.987,1,06,-0.42037037,-0.256481481,1,0,0,1.0286,Andesite_rect,1,1.029,1,5,0,5,0,1,,,,,,,,,,,,,
580d5d1f357e890001dd14ce,SCR,2024-06-11_12h10.09.893,LearnStrategy,2023.2.3,Win32,120.4819277,9,1,7,0.506481481,-0.077777778,1,0,0,0.9598,Gabbro_12,4,12,3,8,0.96,4,12,0.407407407,-0.228703704,1,0,0,1.2161,Gabbro_rect,4,1.216,1,6,0,6,0,1,,,,,,,,,,,,,
580d5d1f357e890001dd14ce,SCR,2024-06-11_12h10.09.893,LearnStrategy,2023.2.3,Win32,120.4819277,9,1,8,0.092592593,-0.275925926,1,0,0,0.6742,Andesite_03,1,03,2,5,0.674,1,03,-0.398148148,-0.263888889,1,0,0,2.2973,Andesite_rect,1,2.297,1,7,0,7,0,1,,,,,,,,,,,,,
580d5d1f357e890001dd14ce,SCR,2024-06-11_12h10.09.893,LearnStrategy,2023.2.3,Win32,120.4819277,9,1,9,0.025,0.075,1,0,0,0.7823,Gabbro_13,4,13,4,5,0.782,4,13,-0.097222222,-0.255555556,1,0,0,0.9721,Basalt_rect,2,0.972,0,8,0,8,0,1,,,,,,,,,,,,,
580d5d1f357e890001dd14ce,SCR,2024-06-11_12h10.09.893,LearnStrategy,2023.2.3,Win32,120.4819277,9,1,10,0.522222222,-0.050925926,1,0,0,0.7908,Gabbro_12,4,12,3,8,0.791,4,12,0.432407407,-0.230555556,1,0,0,1.5359,Gabbro_rect,4,1.536,1,9,0,9,0,1,,,,,,,,,,,,,
580d5d1f357e890001dd14ce,SCR,2024-06-11_12h10.09.893,LearnStrategy,2023.2.3,Win32,120.4819277,9,1,11,0.390740741,-0.386111111,1,0,0,0.916,Andesite_02,1,02,1,7,0.916,1,02,0.390740741,-0.386111111,1,0,0,0.51,Pumice_rect,8,0.51,0,10,0,10,0,1,,,,,,,,,,,,,
580d5d1f357e890001dd14ce,SCR,2024-06-11_12h10.09.893,LearnStrategy,2023.2.3,Win32,120.4819277,9,1,12,0.235185185,0.075925926,1,0,0,1.5823,Peridotite_02,7,02,4,6,1.582,7,02,0.162037037,-0.393518519,1,0,0,1.0819,Peridotite_rect,7,1.082,1,11,0,11,0,1,,,,,,,,,,,,,
580d5d1f357e890001dd14ce,SCR,2024-06-11_12h10.09.893,LearnStrategy,2023.2.3,Win32,120.4819277,9,1,13,0.510185185,0.425,1,0,0,0.8907,Basalt_05,2,05,6,8,0.891,2,05,-0.135185185,-0.263888889,1,0,0,1.1874,Basalt_rect,2,1.187,1,12,0,12,0,1,,,,,,,,,,,,,
580d5d1f357e890001dd14ce,SCR,2024-06-11_12h10.09.893,LearnStrategy,2023.2.3,Win32,120.4819277,9,1,14,-0.558333333,0.089814815,1,0,0,0.9409,Pumice_08,8,08,4,1,0.941,8,08,0.394444444,-0.37962963,1,0,0,1.1829,Pumice_rect,8,1.183,1,13,0,13,0,1,,,,,,,,,,,,,
580d5d1f357e890001dd14ce,SCR,2024-06-11_12h10.09.893,LearnStrategy,2023.2.3,Win32,120.4819277,9,1,15,0.539814815,0.090740741,1,0,0,1.0574,Gabbro_11,4,11,4,8,1.057,4,11,-0.101851852,-0.230555556,1,0,0,1.57,Basalt_rect,2,1.57,0,14,0,14,0,1,,,,,,,,,,,,,
580d5d1f357e890001dd14ce,SCR,2024-06-11_12h10.09.893,LearnStrategy,2023.2.3,Win32,120.4819277,9,1,16,0.107407407,-0.362962963,1,0,0,0.7993,Peridotite_10,7,10,1,5,0.799,7,10,0.1,-0.378703704,1,0,0,1.0614,Peridotite_rect,7,1.061,1,15,0,15,0,1,,,,,,,,,,,,,
580d5d1f357e890001dd14ce,SCR,2024-06-11_12h10.09.893,LearnStrategy,2023.2.3,Win32,120.4819277,9,2,1,,,,,,,,4,09,,,,,,,,,,,,,2,1.725,0,,,,,,-0.174074074,-0.231481481,1,0,0,1.7251,Basalt_rect,0,0,0,0,1,
580d5d1f357e890001dd14ce,SCR,2024-06-11_12h10.09.893,LearnStrategy,2023.2.3,Win32,120.4819277,9,2,2,,,,,,,,8,10,,,,,,,,,,,,,8,1.396,1,,,,,,0.338888889,-0.382407407,1,0,0,1.3962,Pumice_rect,1,0,1,0,1,
580d5d1f357e890001dd14ce,SCR,2024-06-11_12h10.09.893,LearnStrategy,2023.2.3,Win32,120.4819277,9,2,3,,,,,,,,7,05,,,,,,,,,,,,,7,4.039,1,,,,,,0.049074074,-0.418518519,1,0,0,4.039,Peridotite_rect,2,0,2,0,1,
580d5d1f357e890001dd14ce,SCR,2024-06-11_12h10.09.893,LearnStrategy,2023.2.3,Win32,120.4819277,9,2,4,,,,,,,,8,06,,,,,,,,,,,,,8,0.951,1,,,,,,0.318518519,-0.410185185,1,0,0,0.9512,Pumice_rect,3,0,3,0,1,
580d5d1f357e890001dd14ce,SCR,2024-06-11_12h10.09.893,LearnStrategy,2023.2.3,Win32,120.4819277,9,2,5,,,,,,,,2,04,,,,,,,,,,,,,2,1.121,1,,,,,,-0.134259259,-0.246296296,1,0,0,1.1209,Basalt_rect,4,0,4,0,1,
580d5d1f357e890001dd14ce,SCR,2024-06-11_12h10.09.893,LearnStrategy,2023.2.3,Win32,120.4819277,9,2,6,,,,,,,,2,10,,,,,,,,,,,,,2,1.129,1,,,,,,-0.134259259,-0.248148148,1,0,0,1.1288,Basalt_rect,5,0,5,0,1,
580d5d1f357e890001dd14ce,SCR,2024-06-11_12h10.09.893,LearnStrategy,2023.2.3,Win32,120.4819277,9,2,7,,,,,,,,6,11,,,,,,,,,,,,,6,1.387,1,,,,,,-0.139814815,-0.416666667,1,0,0,1.3872,Pegmatite_rect,6,0,6,0,1,
580d5d1f357e890001dd14ce,SCR,2024-06-11_12h10.09.893,LearnStrategy,2023.2.3,Win32,120.4819277,9,2,8,,,,,,,,1,01,,,,,,,,,,,,,1,1.577,1,,,,,,-0.432407407,-0.24537037,1,0,0,1.577,Andesite_rect,7,0,7,0,1,
580d5d1f357e890001dd14ce,SCR,2024-06-11_12h10.09.893,LearnStrategy,2023.2.3,Win32,120.4819277,9,2,9,,,,,,,,4,08,,,,,,,,,,,,,4,1.363,1,,,,,,0.374074074,-0.252777778,1,0,0,1.3626,Gabbro_rect,8,0,8,0,1,
580d5d1f357e890001dd14ce,SCR,2024-06-11_12h10.09.893,LearnStrategy,2023.2.3,Win32,120.4819277,9,2,10,,,,,,,,3,16,,,,,,,,,,,,,3,4.678,1,,,,,,0.096296296,-0.235185185,1,0,0,4.6781,Diorite_rect,9,0,9,0,1,
580d5d1f357e890001dd14ce,SCR,2024-06-11_12h10.09.893,LearnStrategy,2023.2.3,Win32,120.4819277,9,2,11,,,,,,,,7,16,,,,,,,,,,,,,7,1.575,1,,,,,,0.092592593,-0.421296296,1,0,0,1.5749,Peridotite_rect,10,0,10,0,1,
580d5d1f357e890001dd14ce,SCR,2024-06-11_12h10.09.893,LearnStrategy,2023.2.3,Win32,120.4819277,9,2,12,,,,,,,,3,11,,,,,,,,,,,,,7,0.782,0,,,,,,0.092592593,-0.421296296,1,0,0,0.7817,Peridotite_rect,11,0,11,0,1,
580d5d1f357e890001dd14ce,SCR,2024-06-11_12h10.09.893,LearnStrategy,2023.2.3,Win32,120.4819277,9,2,13,,,,,,,,1,10,,,,,,,,,,,,,1,2.253,1,,,,,,-0.350925926,-0.265740741,1,0,0,2.2533,Andesite_rect,12,0,12,0,1,
580d5d1f357e890001dd14ce,SCR,2024-06-11_12h10.09.893,LearnStrategy,2023.2.3,Win32,120.4819277,9,2,14,,,,,,,,5,16,,,,,,,,,,,,,5,1.368,1,,,,,,-0.383333333,-0.396296296,1,0,0,1.368,Obsidian_rect,13,0,13,0,1,
580d5d1f357e890001dd14ce,SCR,2024-06-11_12h10.09.893,LearnStrategy,2023.2.3,Win32,120.4819277,9,2,15,,,,,,,,6,05,,,,,,,,,,,,,6,1.447,1,,,,,,-0.121296296,-0.400925926,1,0,0,1.4471,Pegmatite_rect,14,0,14,0,1,
580d5d1f357e890001dd14ce,SCR,2024-06-11_12h10.09.893,LearnStrategy,2023.2.3,Win32,120.4819277,9,2,16,,,,,,,,5,02,,,,,,,,,,,,,5,0.972,1,,,,,,-0.35462963,-0.389814815,1,0,0,0.9722,Obsidian_rect,15,0,15,0,1,
580d5d1f357e890001dd14ce,SCR,2024-06-11_12h10.09.893,LearnStrategy,2023.2.3,Win32,120.4819277,,,,,,,,,,,,,,,,,,,,,,,,,,,,,,,,,,,,,,,,,,,,,1
580d5d1f357e890001dd14ce,SCR,2024-06-11_12h10.09.893,LearnStrategy,2023.2.3,Win32,120.4819277,,,,,,,,,,,,,,,,,,,,,,,,,,,,,,,,,,,,,,,,,,,,,
580d5d1f357e890001dd14ce,SCR,2024-06-11_12h10.09.893,LearnStrategy,2023.2.3,Win32,120.4819277,,,,,,,,,,,3,07,1,1,,,,,,,,,,,,,,,,,,,,,,,,,,,,,,,
580d5d1f357e890001dd14ce,SCR,2024-06-11_12h10.09.893,LearnStrategy,2023.2.3,Win32,120.4819277,,,,,,,,,,,8,02,1,2,,,,,,,,,,,,,,,,,,,,,,,,,,,,,,,
580d5d1f357e890001dd14ce,SCR,2024-06-11_12h10.09.893,LearnStrategy,2023.2.3,Win32,120.4819277,,,,,,,,,,,8,05,1,3,,,,,,,,,,,,,,,,,,,,,,,,,,,,,,,
580d5d1f357e890001dd14ce,SCR,2024-06-11_12h10.09.893,LearnStrategy,2023.2.3,Win32,120.4819277,,,,,,,,,,,2,11,1,4,,,,,,,,,,,,,,,,,,,,,,,,,,,,,,,
580d5d1f357e890001dd14ce,SCR,2024-06-11_12h10.09.893,LearnStrategy,2023.2.3,Win32,120.4819277,,,,,,,,,,,7,10,1,5,,,,,,,,,,,,,,,,,,,,,,,,,,,,,,,
580d5d1f357e890001dd14ce,SCR,2024-06-11_12h10.09.893,LearnStrategy,2023.2.3,Win32,120.4819277,,,,,,,,,,,2,14,1,6,,,,,,,,,,,,,,,,,,,,,,,,,,,,,,,
580d5d1f357e890001dd14ce,SCR,2024-06-11_12h10.09.893,LearnStrategy,2023.2.3,Win32,120.4819277,,,,,,,,,,,1,02,1,7,,,,,,,,,,,,,,,,,,,,,,,,,,,,,,,
580d5d1f357e890001dd14ce,SCR,2024-06-11_12h10.09.893,LearnStrategy,2023.2.3,Win32,120.4819277,,,,,,,,,,,4,10,1,8,,,,,,,,,,,,,,,,,,,,,,,,,,,,,,,
580d5d1f357e890001dd14ce,SCR,2024-06-11_12h10.09.893,LearnStrategy,2023.2.3,Win32,120.4819277,,,,,,,,,,,1,07,2,1,,,,,,,,,,,,,,,,,,,,,,,,,,,,,,,
580d5d1f357e890001dd14ce,SCR,2024-06-11_12h10.09.893,LearnStrategy,2023.2.3,Win32,120.4819277,,,,,,,,,,,7,15,2,2,,,,,,,,,,,,,,,,,,,,,,,,,,,,,,,
580d5d1f357e890001dd14ce,SCR,2024-06-11_12h10.09.893,LearnStrategy,2023.2.3,Win32,120.4819277,,,,,,,,,,,5,05,2,3,,,,,,,,,,,,,,,,,,,,,,,,,,,,,,,
580d5d1f357e890001dd14ce,SCR,2024-06-11_12h10.09.893,LearnStrategy,2023.2.3,Win32,120.4819277,,,,,,,,,,,4,15,2,4,,,,,,,,,,,,,,,,,,,,,,,,,,,,,,,
580d5d1f357e890001dd14ce,SCR,2024-06-11_12h10.09.893,LearnStrategy,2023.2.3,Win32,120.4819277,,,,,,,,,,,1,03,2,5,,,,,,,,,,,,,,,,,,,,,,,,,,,,,,,
580d5d1f357e890001dd14ce,SCR,2024-06-11_12h10.09.893,LearnStrategy,2023.2.3,Win32,120.4819277,,,,,,,,,,,3,08,2,6,,,,,,,,,,,,,,,,,,,,,,,,,,,,,,,
580d5d1f357e890001dd14ce,SCR,2024-06-11_12h10.09.893,LearnStrategy,2023.2.3,Win32,120.4819277,,,,,,,,,,,3,13,2,7,,,,,,,,,,,,,,,,,,,,,,,,,,,,,,,
580d5d1f357e890001dd14ce,SCR,2024-06-11_12h10.09.893,LearnStrategy,2023.2.3,Win32,120.4819277,,,,,,,,,,,2,08,2,8,,,,,,,,,,,,,,,,,,,,,,,,,,,,,,,
580d5d1f357e890001dd14ce,SCR,2024-06-11_12h10.09.893,LearnStrategy,2023.2.3,Win32,120.4819277,,,,,,,,,,,3,06,3,1,,,,,,,,,,,,,,,,,,,,,,,,,,,,,,,
580d5d1f357e890001dd14ce,SCR,2024-06-11_12h10.09.893,LearnStrategy,2023.2.3,Win32,120.4819277,,,,,,,,,,,7,07,3,2,,,,,,,,,,,,,,,,,,,,,,,,,,,,,,,
580d5d1f357e890001dd14ce,SCR,2024-06-11_12h10.09.893,LearnStrategy,2023.2.3,Win32,120.4819277,,,,,,,,,,,1,14,3,3,,,,,,,,,,,,,,,,,,,,,,,,,,,,,,,
580d5d1f357e890001dd14ce,SCR,2024-06-11_12h10.09.893,LearnStrategy,2023.2.3,Win32,120.4819277,,,,,,,,,,,6,06,3,4,,,,,,,,,,,,,,,,,,,,,,,,,,,,,,,
580d5d1f357e890001dd14ce,SCR,2024-06-11_12h10.09.893,LearnStrategy,2023.2.3,Win32,120.4819277,,,,,,,,,,,5,12,3,5,,,,,,,,,,,,,,,,,,,,,,,,,,,,,,,
580d5d1f357e890001dd14ce,SCR,2024-06-11_12h10.09.893,LearnStrategy,2023.2.3,Win32,120.4819277,,,,,,,,,,,6,12,3,6,,,,,,,,,,,,,,,,,,,,,,,,,,,,,,,
580d5d1f357e890001dd14ce,SCR,2024-06-11_12h10.09.893,LearnStrategy,2023.2.3,Win32,120.4819277,,,,,,,,,,,1,16,3,7,,,,,,,,,,,,,,,,,,,,,,,,,,,,,,,
580d5d1f357e890001dd14ce,SCR,2024-06-11_12h10.09.893,LearnStrategy,2023.2.3,Win32,120.4819277,,,,,,,,,,,4,12,3,8,,,,,,,,,,,,,,,,,,,,,,,,,,,,,,,
580d5d1f357e890001dd14ce,SCR,2024-06-11_12h10.09.893,LearnStrategy,2023.2.3,Win32,120.4819277,,,,,,,,,,,8,08,4,1,,,,,,,,,,,,,,,,,,,,,,,,,,,,,,,
580d5d1f357e890001dd14ce,SCR,2024-06-11_12h10.09.893,LearnStrategy,2023.2.3,Win32,120.4819277,,,,,,,,,,,5,07,4,2,,,,,,,,,,,,,,,,,,,,,,,,,,,,,,,
580d5d1f357e890001dd14ce,SCR,2024-06-11_12h10.09.893,LearnStrategy,2023.2.3,Win32,120.4819277,,,,,,,,,,,8,14,4,3,,,,,,,,,,,,,,,,,,,,,,,,,,,,,,,
580d5d1f357e890001dd14ce,SCR,2024-06-11_12h10.09.893,LearnStrategy,2023.2.3,Win32,120.4819277,,,,,,,,,,,6,16,4,4,,,,,,,,,,,,,,,,,,,,,,,,,,,,,,,
580d5d1f357e890001dd14ce,SCR,2024-06-11_12h10.09.893,LearnStrategy,2023.2.3,Win32,120.4819277,,,,,,,,,,,4,13,4,5,,,,,,,,,,,,,,,,,,,,,,,,,,,,,,,
580d5d1f357e890001dd14ce,SCR,2024-06-11_12h10.09.893,LearnStrategy,2023.2.3,Win32,120.4819277,,,,,,,,,,,7,02,4,6,,,,,,,,,,,,,,,,,,,,,,,,,,,,,,,
580d5d1f357e890001dd14ce,SCR,2024-06-11_12h10.09.893,LearnStrategy,2023.2.3,Win32,120.4819277,,,,,,,,,,,7,04,4,7,,,,,,,,,,,,,,,,,,,,,,,,,,,,,,,
580d5d1f357e890001dd14ce,SCR,2024-06-11_12h10.09.893,LearnStrategy,2023.2.3,Win32,120.4819277,,,,,,,,,,,4,11,4,8,,,,,,,,,,,,,,,,,,,,,,,,,,,,,,,
580d5d1f357e890001dd14ce,SCR,2024-06-11_12h10.09.893,LearnStrategy,2023.2.3,Win32,120.4819277,,,,,,,,,,,4,05,5,1,,,,,,,,,,,,,,,,,,,,,,,,,,,,,,,
580d5d1f357e890001dd14ce,SCR,2024-06-11_12h10.09.893,LearnStrategy,2023.2.3,Win32,120.4819277,,,,,,,,,,,7,13,5,2,,,,,,,,,,,,,,,,,,,,,,,,,,,,,,,
580d5d1f357e890001dd14ce,SCR,2024-06-11_12h10.09.893,LearnStrategy,2023.2.3,Win32,120.4819277,,,,,,,,,,,3,14,5,3,,,,,,,,,,,,,,,,,,,,,,,,,,,,,,,
580d5d1f357e890001dd14ce,SCR,2024-06-11_12h10.09.893,LearnStrategy,2023.2.3,Win32,120.4819277,,,,,,,,,,,3,12,5,4,,,,,,,,,,,,,,,,,,,,,,,,,,,,,,,
580d5d1f357e890001dd14ce,SCR,2024-06-11_12h10.09.893,LearnStrategy,2023.2.3,Win32,120.4819277,,,,,,,,,,,6,08,5,5,,,,,,,,,,,,,,,,,,,,,,,,,,,,,,,
580d5d1f357e890001dd14ce,SCR,2024-06-11_12h10.09.893,LearnStrategy,2023.2.3,Win32,120.4819277,,,,,,,,,,,5,10,5,6,,,,,,,,,,,,,,,,,,,,,,,,,,,,,,,
580d5d1f357e890001dd14ce,SCR,2024-06-11_12h10.09.893,LearnStrategy,2023.2.3,Win32,120.4819277,,,,,,,,,,,8,03,5,7,,,,,,,,,,,,,,,,,,,,,,,,,,,,,,,
580d5d1f357e890001dd14ce,SCR,2024-06-11_12h10.09.893,LearnStrategy,2023.2.3,Win32,120.4819277,,,,,,,,,,,5,09,5,8,,,,,,,,,,,,,,,,,,,,,,,,,,,,,,,
580d5d1f357e890001dd14ce,SCR,2024-06-11_12h10.09.893,LearnStrategy,2023.2.3,Win32,120.4819277,,,,,,,,,,,2,06,6,1,,,,,,,,,,,,,,,,,,,,,,,,,,,,,,,
580d5d1f357e890001dd14ce,SCR,2024-06-11_12h10.09.893,LearnStrategy,2023.2.3,Win32,120.4819277,,,,,,,,,,,2,02,6,2,,,,,,,,,,,,,,,,,,,,,,,,,,,,,,,
580d5d1f357e890001dd14ce,SCR,2024-06-11_12h10.09.893,LearnStrategy,2023.2.3,Win32,120.4819277,,,,,,,,,,,6,07,6,3,,,,,,,,,,,,,,,,,,,,,,,,,,,,,,,
580d5d1f357e890001dd14ce,SCR,2024-06-11_12h10.09.893,LearnStrategy,2023.2.3,Win32,120.4819277,,,,,,,,,,,8,09,6,4,,,,,,,,,,,,,,,,,,,,,,,,,,,,,,,
580d5d1f357e890001dd14ce,SCR,2024-06-11_12h10.09.893,LearnStrategy,2023.2.3,Win32,120.4819277,,,,,,,,,,,5,14,6,5,,,,,,,,,,,,,,,,,,,,,,,,,,,,,,,
580d5d1f357e890001dd14ce,SCR,2024-06-11_12h10.09.893,LearnStrategy,2023.2.3,Win32,120.4819277,,,,,,,,,,,6,09,6,6,,,,,,,,,,,,,,,,,,,,,,,,,,,,,,,
580d5d1f357e890001dd14ce,SCR,2024-06-11_12h10.09.893,LearnStrategy,2023.2.3,Win32,120.4819277,,,,,,,,,,,1,06,6,7,,,,,,,,,,,,,,,,,,,,,,,,,,,,,,,
580d5d1f357e890001dd14ce,SCR,2024-06-11_12h10.09.893,LearnStrategy,2023.2.3,Win32,120.4819277,,,,,,,,,,,2,05,6,8,,,,,,,,,,,,,,,,,,,,,,,,,,,,,,,