participant,condition,date,expName,psychopyVersion,OS,frameRate,block,phase,trial,learn_mouse.x,learn_mouse.y,learn_mouse.leftButton,learn_mouse.midButton,learn_mouse.rightButton,learn_mouse.time,learn_mouse.clicked_name,cat,token,row,col,t_select,cat_mouse_l.x,cat_mouse_l.y,cat_mouse_l.leftButton,cat_mouse_l.midButton,cat_mouse_l.rightButton,cat_mouse_l.time,cat_mouse_l.clicked_name,resp,t_resp,corr,train_trials.thisRepN,train_trials.thisTrialN,train_trials.thisN,train_trials.thisIndex,train_trials.ran,cat_mouse_t.x,cat_mouse_t.y,cat_mouse_t.leftButton,cat_mouse_t.midButton,cat_mouse_t.rightButton,cat_mouse_t.time,cat_mouse_t.clicked_name,test_trials.thisRepN,test_trials.thisTrialN,test_trials.thisN,test_trials.thisIndex,test_trials.ran,Bonus
58b2338a898c2e0001a5ca56,SCN,2024-06-21_10h49.34.471,LearnStrategy,2023.2.3,Linux x86_64,58.2072177,,,,,,,,,,,,,,,,,,,,,,,,,,,,,,,,,,,,,,,,,,,
58b2338a898c2e0001a5ca56,SCN,2024-06-21_10h49.34.471,LearnStrategy,2023.2.3,Linux x86_64,58.2072177,1,1,1,0.06,0.225555556,1,0,0,18.324,Peridotite_13,7,13,5,5,18.324,0.123333333,-0.252222222,1,0,0,4.974,Diorite_rect,3,4.974,0,0,0,0,0,1,,,,,,,,,,,,,
58b2338a898c2e0001a5ca56,SCN,2024-06-21_10h49.34.471,LearnStrategy,2023.2.3,Linux x86_64,58.2072177,1,1,2,0.24,0.26,1,0,0,3.258,Pegmatite_08,6,08,5,6,3.258,0.106666667,-0.256666667,1,0,0,2.712,Diorite_rect,3,2.712,0,1,0,1,0,1,,,,,,,,,,,,,
58b2338a898c2e0001a5ca56,SCN,2024-06-21_10h49.34.471,LearnStrategy,2023.2.3,Linux x86_64,58.2072177,1,1,3,0.393333333,0.26,1,0,0,2.095,Andesite_05,1,05,5,7,2.095,-0.157777778,-0.242222222,1,0,0,3.557,Basalt_rect,2,3.557,0,2,0,2,0,1,,,,,,,,,,,,,
58b2338a898c2e0001a5ca56,SCN,2024-06-21_10h49.34.471,LearnStrategy,2023.2.3,Linux x86_64,58.2072177,1,1,4,0.558888889,0.27,1,0,0,3.61,Gabbro_14,4,14,5,8,3.61,-0.38,-0.25,1,0,0,3.776,Andesite_rect,1,3.776,0,3,0,3,0,1,,,,,,,,,,,,,
58b2338a898c2e0001a5ca56,SCN,2024-06-21_10h49.34.471,LearnStrategy,2023.2.3,Linux x86_64,58.2072177,1,1,5,0.601111111,0.081111111,1,0,0,4.21,Pegmatite_10,6,10,4,8,4.21,-0.397777778,-0.241111111,1,0,0,6.723,Andesite_rect,1,6.723,0,4,0,4,0,1,,,,,,,,,,,,,
58b2338a898c2e0001a5ca56,SCN,2024-06-21_10h49.34.471,LearnStrategy,2023.2.3,Linux x86_64,58.2072177,1,1,6,0.102222222,0.244444444,1,0,0,5.902,Peridotite_13,7,13,5,5,5.902,0.097777778,-0.415555556,1,0,0,2.404,Peridotite_rect,7,2.404,1,5,0,5,0,1,,,,,,,,,,,,,
58b2338a898c2e0001a5ca56,SCN,2024-06-21_10h49.34.471,LearnStrategy,2023.2.3,Linux x86_64,58.2072177,1,1,7,0.247777778,0.27,1,0,0,1.497,Pegmatite_08,6,08,5,6,1.497,0.356666667,-0.237777778,1,0,0,6.263,Gabbro_rect,4,6.263,0,6,0,6,0,1,,,,,,,,,,,,,
58b2338a898c2e0001a5ca56,SCN,2024-06-21_10h49.34.471,LearnStrategy,2023.2.3,Linux x86_64,58.2072177,1,1,8,0.4,0.252222222,1,0,0,2.13,Andesite_05,1,05,5,7,2.13,0.364444444,-0.255555556,1,0,0,1.94,Gabbro_rect,4,1.94,0,7,0,7,0,1,,,,,,,,,,,,,
58b2338a898c2e0001a5ca56,SCN,2024-06-21_10h49.34.471,LearnStrategy,2023.2.3,Linux x86_64,58.2072177,1,1,9,0.55,0.253333333,1,0,0,1.288,Gabbro_14,4,14,5,8,1.288,0.383333333,-0.264444444,1,0,0,1.811,Gabbro_rect,4,1.811,1,8,0,8,0,1,,,,,,,,,,,,,
58b2338a898c2e0001a5ca56,SCN,2024-06-21_10h49.34.471,LearnStrategy,2023.2.3,Linux x86_64,58.2072177,1,1,10,0.57,0.088888889,1,0,0,1.355,Pegmatite_10,6,10,4,8,1.355,0.111111111,-0.395555556,1,0,0,2.86,Peridotite_rect,7,2.86,0,9,0,9,0,1,,,,,,,,,,,,,
58b2338a898c2e0001a5ca56,SCN,2024-06-21_10h49.34.471,LearnStrategy,2023.2.3,Linux x86_64,58.2072177,1,1,11,0.536666667,0.092222222,1,0,0,1.726,Pegmatite_10,6,10,4,8,1.726,-0.142222222,-0.402222222,1,0,0,1.542,Pegmatite_rect,6,1.542,1,10,0,10,0,1,,,,,,,,,,,,,
58b2338a898c2e0001a5ca56,SCN,2024-06-21_10h49.34.471,LearnStrategy,2023.2.3,Linux x86_64,58.2072177,1,1,12,0.556666667,-0.415555556,1,0,0,3.82,Diorite_10,3,10,1,8,3.82,0.132222222,-0.413333333,1,0,0,9.647,Peridotite_rect,7,9.647,0,11,0,11,0,1,,,,,,,,,,,,,
58b2338a898c2e0001a5ca56,SCN,2024-06-21_10h49.34.471,LearnStrategy,2023.2.3,Linux x86_64,58.2072177,1,1,13,-0.384444444,0.405555556,1,0,0,2.908,Diorite_09,3,09,6,2,2.908,0.155555556,-0.24,1,0,0,2.353,Diorite_rect,3,2.353,1,12,0,12,0,1,,,,,,,,,,,,,
58b2338a898c2e0001a5ca56,SCN,2024-06-21_10h49.34.471,LearnStrategy,2023.2.3,Linux x86_64,58.2072177,1,1,14,0.076666667,0.406666667,1,0,0,2.537,Diorite_02,3,02,6,5,2.537,0.126666667,-0.24,1,0,0,1.989,Diorite_rect,3,1.989,1,13,0,13,0,1,,,,,,,,,,,,,
58b2338a898c2e0001a5ca56,SCN,2024-06-21_10h49.34.471,LearnStrategy,2023.2.3,Linux x86_64,58.2072177,1,1,15,0.074444444,-0.253333333,1,0,0,6.944,Diorite_14,3,14,2,5,6.944,0.074444444,-0.253333333,1,0,0,0.832,Diorite_rect,3,0.832,1,14,0,14,0,1,,,,,,,,,,,,,
58b2338a898c2e0001a5ca56,SCN,2024-06-21_10h49.34.471,LearnStrategy,2023.2.3,Linux x86_64,58.2072177,1,1,16,-0.215555556,-0.266666667,1,0,0,5.859,Gabbro_11,4,11,2,3,5.859,0.112222222,-0.244444444,1,0,0,3.433,Diorite_rect,3,3.433,0,15,0,15,0,1,,,,,,,,,,,,,
58b2338a898c2e0001a5ca56,SCN,2024-06-21_10h49.34.471,LearnStrategy,2023.2.3,Linux x86_64,58.2072177,1,2,1,,,,,,,,4,12,,,,,,,,,,,4,4.415,1,,,,,,0.413333333,-0.265555556,1,0,0,4.415,Gabbro_rect,0,0,0,0,1,
58b2338a898c2e0001a5ca56,SCN,2024-06-21_10h49.34.471,LearnStrategy,2023.2.3,Linux x86_64,58.2072177,1,2,2,,,,,,,,2,04,,,,,,,,,,,5,4.085,0,,,,,,-0.395555556,-0.405555556,1,0,0,4.085,Obsidian_rect,1,0,1,0,1,
58b2338a898c2e0001a5ca56,SCN,2024-06-21_10h49.34.471,LearnStrategy,2023.2.3,Linux x86_64,58.2072177,1,2,3,,,,,,,,3,11,,,,,,,,,,,7,3.329,0,,,,,,0.136666667,-0.401111111,1,0,0,3.329,Peridotite_rect,2,0,2,0,1,
58b2338a898c2e0001a5ca56,SCN,2024-06-21_10h49.34.471,LearnStrategy,2023.2.3,Linux x86_64,58.2072177,1,2,4,,,,,,,,3,08,,,,,,,,,,,6,2.231,0,,,,,,-0.142222222,-0.395555556,1,0,0,2.231,Pegmatite_rect,3,0,3,0,1,
58b2338a898c2e0001a5ca56,SCN,2024-06-21_10h49.34.471,LearnStrategy,2023.2.3,Linux x86_64,58.2072177,1,2,5,,,,,,,,5,08,,,,,,,,,,,5,2.326,1,,,,,,-0.421111111,-0.406666667,1,0,0,2.326,Obsidian_rect,4,0,4,0,1,
58b2338a898c2e0001a5ca56,SCN,2024-06-21_10h49.34.471,LearnStrategy,2023.2.3,Linux x86_64,58.2072177,1,2,6,,,,,,,,7,08,,,,,,,,,,,7,2.9,1,,,,,,0.141111111,-0.393333333,1,0,0,2.9,Peridotite_rect,5,0,5,0,1,
58b2338a898c2e0001a5ca56,SCN,2024-06-21_10h49.34.471,LearnStrategy,2023.2.3,Linux x86_64,58.2072177,1,2,7,,,,,,,,5,06,,,,,,,,,,,5,2.03,1,,,,,,-0.411111111,-0.401111111,1,0,0,2.03,Obsidian_rect,6,0,6,0,1,
58b2338a898c2e0001a5ca56,SCN,2024-06-21_10h49.34.471,LearnStrategy,2023.2.3,Linux x86_64,58.2072177,1,2,8,,,,,,,,6,06,,,,,,,,,,,1,2.771,0,,,,,,-0.375555556,-0.247777778,1,0,0,2.771,Andesite_rect,7,0,7,0,1,
58b2338a898c2e0001a5ca56,SCN,2024-06-21_10h49.34.471,LearnStrategy,2023.2.3,Linux x86_64,58.2072177,1,2,9,,,,,,,,4,01,,,,,,,,,,,4,2.55,1,,,,,,0.336666667,-0.24,1,0,0,2.55,Gabbro_rect,8,0,8,0,1,
58b2338a898c2e0001a5ca56,SCN,2024-06-21_10h49.34.471,LearnStrategy,2023.2.3,Linux x86_64,58.2072177,1,2,10,,,,,,,,6,15,,,,,,,,,,,6,5.236,1,,,,,,-0.193333333,-0.404444444,1,0,0,5.236,Pegmatite_rect,9,0,9,0,1,
58b2338a898c2e0001a5ca56,SCN,2024-06-21_10h49.34.471,LearnStrategy,2023.2.3,Linux x86_64,58.2072177,1,2,11,,,,,,,,1,09,,,,,,,,,,,4,1.868,0,,,,,,0.405555556,-0.237777778,1,0,0,1.868,Gabbro_rect,10,0,10,0,1,
58b2338a898c2e0001a5ca56,SCN,2024-06-21_10h49.34.471,LearnStrategy,2023.2.3,Linux x86_64,58.2072177,1,2,12,,,,,,,,8,10,,,,,,,,,,,8,1.836,1,,,,,,0.4,-0.396666667,1,0,0,1.836,Pumice_rect,11,0,11,0,1,
58b2338a898c2e0001a5ca56,SCN,2024-06-21_10h49.34.471,LearnStrategy,2023.2.3,Linux x86_64,58.2072177,1,2,13,,,,,,,,7,15,,,,,,,,,,,7,2.081,1,,,,,,0.08,-0.418888889,1,0,0,2.081,Peridotite_rect,12,0,12,0,1,
58b2338a898c2e0001a5ca56,SCN,2024-06-21_10h49.34.471,LearnStrategy,2023.2.3,Linux x86_64,58.2072177,1,2,14,,,,,,,,1,07,,,,,,,,,,,6,2.212,0,,,,,,-0.191111111,-0.418888889,1,0,0,2.212,Pegmatite_rect,13,0,13,0,1,
58b2338a898c2e0001a5ca56,SCN,2024-06-21_10h49.34.471,LearnStrategy,2023.2.3,Linux x86_64,58.2072177,1,2,15,,,,,,,,8,15,,,,,,,,,,,2,4.927,0,,,,,,-0.117777778,-0.251111111,1,0,0,4.927,Basalt_rect,14,0,14,0,1,
58b2338a898c2e0001a5ca56,SCN,2024-06-21_10h49.34.471,LearnStrategy,2023.2.3,Linux x86_64,58.2072177,1,2,16,,,,,,,,2,11,,,,,,,,,,,4,1.925,0,,,,,,0.38,-0.243333333,1,0,0,1.925,Gabbro_rect,15,0,15,0,1,
58b2338a898c2e0001a5ca56,SCN,2024-06-21_10h49.34.471,LearnStrategy,2023.2.3,Linux x86_64,58.2072177,2,1,1,0.082222222,-0.433333333,1,0,0,7.016,Pumice_16,8,16,1,5,7.016,0.368888889,-0.396666667,1,0,0,1.672,Pumice_rect,8,1.672,1,0,0,0,0,1,,,,,,,,,,,,,
58b2338a898c2e0001a5ca56,SCN,2024-06-21_10h49.34.471,LearnStrategy,2023.2.3,Linux x86_64,58.2072177,2,1,2,0.555555556,-0.108888889,1,0,0,8.596,Basalt_16,2,16,3,8,8.596,-0.362222222,-0.253333333,1,0,0,2.729,Andesite_rect,1,2.729,0,1,0,1,0,1,,,,,,,,,,,,,
58b2338a898c2e0001a5ca56,SCN,2024-06-21_10h49.34.471,LearnStrategy,2023.2.3,Linux x86_64,58.2072177,2,1,3,-0.555555556,-0.43,1,0,0,5.846,Peridotite_16,7,16,1,1,5.846,0.107777778,-0.395555556,1,0,0,4.005,Peridotite_rect,7,4.005,1,2,0,2,0,1,,,,,,,,,,,,,
58b2338a898c2e0001a5ca56,SCN,2024-06-21_10h49.34.471,LearnStrategy,2023.2.3,Linux x86_64,58.2072177,2,1,4,-0.553333333,0.235555556,1,0,0,3.871,Pumice_02,8,02,5,1,3.871,-0.102222222,-0.243333333,1,0,0,3.287,Basalt_rect,2,3.287,0,3,0,3,0,1,,,,,,,,,,,,,
58b2338a898c2e0001a5ca56,SCN,2024-06-21_10h49.34.471,LearnStrategy,2023.2.3,Linux x86_64,58.2072177,2,1,5,0.544444444,-0.424444444,1,0,0,3.173,Diorite_10,3,10,1,8,3.173,-0.113333333,-0.414444444,1,0,0,2.381,Pegmatite_rect,6,2.381,0,4,0,4,0,1,,,,,,,,,,,,,
58b2338a898c2e0001a5ca56,SCN,2024-06-21_10h49.34.471,LearnStrategy,2023.2.3,Linux x86_64,58.2072177,2,1,6,0.41,-0.434444444,1,0,0,1.568,Peridotite_12,7,12,1,7,1.568,-0.108888889,-0.411111111,1,0,0,2.308,Pegmatite_rect,6,2.308,0,5,0,5,0,1,,,,,,,,,,,,,
58b2338a898c2e0001a5ca56,SCN,2024-06-21_10h49.34.471,LearnStrategy,2023.2.3,Linux x86_64,58.2072177,2,1,7,0.231111111,-0.425555556,1,0,0,1.446,Peridotite_14,7,14,1,6,1.446,0.09,-0.395555556,1,0,0,2.602,Peridotite_rect,7,2.602,1,6,0,6,0,1,,,,,,,,,,,,,
58b2338a898c2e0001a5ca56,SCN,2024-06-21_10h49.34.471,LearnStrategy,2023.2.3,Linux x86_64,58.2072177,2,1,8,0.092222222,-0.406666667,1,0,0,1.503,Pumice_16,8,16,1,5,1.503,0.364444444,-0.403333333,1,0,0,1.694,Pumice_rect,8,1.694,1,7,0,7,0,1,,,,,,,,,,,,,
58b2338a898c2e0001a5ca56,SCN,2024-06-21_10h49.34.471,LearnStrategy,2023.2.3,Linux x86_64,58.2072177,2,1,9,-0.233333333,-0.41,1,0,0,2.166,Basalt_09,2,09,1,3,2.166,0.382222222,-0.265555556,1,0,0,1.628,Gabbro_rect,4,1.628,0,8,0,8,0,1,,,,,,,,,,,,,
58b2338a898c2e0001a5ca56,SCN,2024-06-21_10h49.34.471,LearnStrategy,2023.2.3,Linux x86_64,58.2072177,2,1,10,-0.552222222,-0.414444444,1,0,0,1.708,Peridotite_16,7,16,1,1,1.708,0.102222222,-0.236666667,1,0,0,3.055,Diorite_rect,3,3.055,0,9,0,9,0,1,,,,,,,,,,,,,
58b2338a898c2e0001a5ca56,SCN,2024-06-21_10h49.34.471,LearnStrategy,2023.2.3,Linux x86_64,58.2072177,2,1,11,-0.553333333,-0.257777778,1,0,0,1.461,Obsidian_05,5,05,2,1,1.461,-0.437777778,-0.252222222,1,0,0,2.176,Andesite_rect,1,2.176,0,10,0,10,0,1,,,,,,,,,,,,,
58b2338a898c2e0001a5ca56,SCN,2024-06-21_10h49.34.471,LearnStrategy,2023.2.3,Linux x86_64,58.2072177,2,1,12,-0.381111111,-0.261111111,1,0,0,1.39,Gabbro_09,4,09,2,2,1.39,0.381111111,-0.251111111,1,0,0,4.169,Gabbro_rect,4,4.169,1,11,0,11,0,1,,,,,,,,,,,,,
58b2338a898c2e0001a5ca56,SCN,2024-06-21_10h49.34.471,LearnStrategy,2023.2.3,Linux x86_64,58.2072177,2,1,13,-0.071111111,-0.24,1,0,0,2.401,Gabbro_05,4,05,2,4,2.401,-0.121111111,-0.411111111,1,0,0,2.73,Pegmatite_rect,6,2.73,0,12,0,12,0,1,,,,,,,,,,,,,
58b2338a898c2e0001a5ca56,SCN,2024-06-21_10h49.34.471,LearnStrategy,2023.2.3,Linux x86_64,58.2072177,2,1,14,0.058888889,-0.246666667,1,0,0,1.684,Diorite_14,3,14,2,5,1.684,0.095555556,-0.385555556,1,0,0,2.294,Peridotite_rect,7,2.294,0,13,0,13,0,1,,,,,,,,,,,,,
58b2338a898c2e0001a5ca56,SCN,2024-06-21_10h49.34.471,LearnStrategy,2023.2.3,Linux x86_64,58.2072177,2,1,15,0.245555556,-0.246666667,1,0,0,2.478,Pumice_13,8,13,2,6,2.478,0.384444444,-0.403333333,1,0,0,2.17,Pumice_rect,8,2.17,1,14,0,14,0,1,,,,,,,,,,,,,
58b2338a898c2e0001a5ca56,SCN,2024-06-21_10h49.34.471,LearnStrategy,2023.2.3,Linux x86_64,58.2072177,2,1,16,0.411111111,-0.247777778,1,0,0,1.293,Gabbro_03,4,03,2,7,1.293,0.164444444,-0.411111111,1,0,0,1.535,Peridotite_rect,7,1.535,0,15,0,15,0,1,,,,,,,,,,,,,
58b2338a898c2e0001a5ca56,SCN,2024-06-21_10h49.34.471,LearnStrategy,2023.2.3,Linux x86_64,58.2072177,2,2,1,,,,,,,,2,12,,,,,,,,,,,8,3.939,0,,,,,,0.393333333,-0.415555556,1,0,0,3.939,Pumice_rect,0,0,0,0,1,
58b2338a898c2e0001a5ca56,SCN,2024-06-21_10h49.34.471,LearnStrategy,2023.2.3,Linux x86_64,58.2072177,2,2,2,,,,,,,,1,03,,,,,,,,,,,4,3.901,0,,,,,,0.337777778,-0.244444444,1,0,0,3.901,Gabbro_rect,1,0,1,0,1,
58b2338a898c2e0001a5ca56,SCN,2024-06-21_10h49.34.471,LearnStrategy,2023.2.3,Linux x86_64,58.2072177,2,2,3,,,,,,,,7,07,,,,,,,,,,,7,1.877,1,,,,,,0.101111111,-0.411111111,1,0,0,1.877,Peridotite_rect,2,0,2,0,1,
58b2338a898c2e0001a5ca56,SCN,2024-06-21_10h49.34.471,LearnStrategy,2023.2.3,Linux x86_64,58.2072177,2,2,4,,,,,,,,7,02,,,,,,,,,,,3,5.014,0,,,,,,0.116666667,-0.25,1,0,0,5.014,Diorite_rect,3,0,3,0,1,
58b2338a898c2e0001a5ca56,SCN,2024-06-21_10h49.34.471,LearnStrategy,2023.2.3,Linux x86_64,58.2072177,2,2,5,,,,,,,,1,16,,,,,,,,,,,7,2.985,0,,,,,,0.137777778,-0.403333333,1,0,0,2.985,Peridotite_rect,4,0,4,0,1,
58b2338a898c2e0001a5ca56,SCN,2024-06-21_10h49.34.471,LearnStrategy,2023.2.3,Linux x86_64,58.2072177,2,2,6,,,,,,,,3,15,,,,,,,,,,,7,3.096,0,,,,,,0.137777778,-0.403333333,1,0,0,3.096,Peridotite_rect,5,0,5,0,1,
58b2338a898c2e0001a5ca56,SCN,2024-06-21_10h49.34.471,LearnStrategy,2023.2.3,Linux x86_64,58.2072177,2,2,7,,,,,,,,6,11,,,,,,,,,,,5,2.075,0,,,,,,-0.397777778,-0.403333333,1,0,0,2.075,Obsidian_rect,6,0,6,0,1,
58b2338a898c2e0001a5ca56,SCN,2024-06-21_10h49.34.471,LearnStrategy,2023.2.3,Linux x86_64,58.2072177,2,2,8,,,,,,,,8,06,,,,,,,,,,,8,1.797,1,,,,,,0.386666667,-0.404444444,1,0,0,1.797,Pumice_rect,7,0,7,0,1,
58b2338a898c2e0001a5ca56,SCN,2024-06-21_10h49.34.471,LearnStrategy,2023.2.3,Linux x86_64,58.2072177,2,2,9,,,,,,,,5,16,,,,,,,,,,,5,1.415,1,,,,,,-0.421111111,-0.408888889,1,0,0,1.415,Obsidian_rect,8,0,8,0,1,
58b2338a898c2e0001a5ca56,SCN,2024-06-21_10h49.34.471,LearnStrategy,2023.2.3,Linux x86_64,58.2072177,2,2,10,,,,,,,,3,07,,,,,,,,,,,7,1.761,0,,,,,,0.134444444,-0.416666667,1,0,0,1.761,Peridotite_rect,9,0,9,0,1,
58b2338a898c2e0001a5ca56,SCN,2024-06-21_10h49.34.471,LearnStrategy,2023.2.3,Linux x86_64,58.2072177,2,2,11,,,,,,,,4,15,,,,,,,,,,,6,2.601,0,,,,,,-0.104444444,-0.405555556,1,0,0,2.601,Pegmatite_rect,10,0,10,0,1,
58b2338a898c2e0001a5ca56,SCN,2024-06-21_10h49.34.471,LearnStrategy,2023.2.3,Linux x86_64,58.2072177,2,2,12,,,,,,,,4,16,,,,,,,,,,,4,2.235,1,,,,,,0.402222222,-0.24,1,0,0,2.235,Gabbro_rect,11,0,11,0,1,
58b2338a898c2e0001a5ca56,SCN,2024-06-21_10h49.34.471,LearnStrategy,2023.2.3,Linux x86_64,58.2072177,2,2,13,,,,,,,,5,10,,,,,,,,,,,5,1.737,1,,,,,,-0.396666667,-0.404444444,1,0,0,1.737,Obsidian_rect,12,0,12,0,1,
58b2338a898c2e0001a5ca56,SCN,2024-06-21_10h49.34.471,LearnStrategy,2023.2.3,Linux x86_64,58.2072177,2,2,14,,,,,,,,6,13,,,,,,,,,,,1,4.16,0,,,,,,-0.435555556,-0.26,1,0,0,4.16,Andesite_rect,13,0,13,0,1,
58b2338a898c2e0001a5ca56,SCN,2024-06-21_10h49.34.471,LearnStrategy,2023.2.3,Linux x86_64,58.2072177,2,2,15,,,,,,,,2,10,,,,,,,,,,,5,2.002,0,,,,,,-0.398888889,-0.393333333,1,0,0,2.002,Obsidian_rect,14,0,14,0,1,
58b2338a898c2e0001a5ca56,SCN,2024-06-21_10h49.34.471,LearnStrategy,2023.2.3,Linux x86_64,58.2072177,2,2,16,,,,,,,,8,14,,,,,,,,,,,8,1.775,1,,,,,,0.394444444,-0.385555556,1,0,0,1.775,Pumice_rect,15,0,15,0,1,
58b2338a898c2e0001a5ca56,SCN,2024-06-21_10h49.34.471,LearnStrategy,2023.2.3,Linux x86_64,58.2072177,3,1,1,-0.398888889,0.395555556,1,0,0,2.742,Diorite_09,3,09,6,2,2.742,0.122222222,-0.402222222,1,0,0,2.056,Peridotite_rect,7,2.056,0,0,0,0,0,1,,,,,,,,,,,,,
58b2338a898c2e0001a5ca56,SCN,2024-06-21_10h49.34.471,LearnStrategy,2023.2.3,Linux x86_64,58.2072177,3,1,2,-0.228888889,0.388888889,1,0,0,1.879,Basalt_08,2,08,6,3,1.879,0.328888889,-0.235555556,1,0,0,4.568,Gabbro_rect,4,4.568,0,1,0,1,0,1,,,,,,,,,,,,,
58b2338a898c2e0001a5ca56,SCN,2024-06-21_10h49.34.471,LearnStrategy,2023.2.3,Linux x86_64,58.2072177,3,1,3,-0.233333333,0.388888889,1,0,0,1.553,Basalt_08,2,08,6,3,1.553,-0.1,-0.265555556,1,0,0,3.781,Basalt_rect,2,3.781,1,2,0,2,0,1,,,,,,,,,,,,,
58b2338a898c2e0001a5ca56,SCN,2024-06-21_10h49.34.471,LearnStrategy,2023.2.3,Linux x86_64,58.2072177,3,1,4,-0.064444444,0.418888889,1,0,0,1.635,Obsidian_09,5,09,6,4,1.635,-0.371111111,-0.413333333,1,0,0,1.93,Obsidian_rect,5,1.93,1,3,0,3,0,1,,,,,,,,,,,,,
58b2338a898c2e0001a5ca56,SCN,2024-06-21_10h49.34.471,LearnStrategy,2023.2.3,Linux x86_64,58.2072177,3,1,5,0.066666667,0.402222222,1,0,0,1.237,Diorite_02,3,02,6,5,1.237,0.136666667,-0.25,1,0,0,1.842,Diorite_rect,3,1.842,1,4,0,4,0,1,,,,,,,,,,,,,
58b2338a898c2e0001a5ca56,SCN,2024-06-21_10h49.34.471,LearnStrategy,2023.2.3,Linux x86_64,58.2072177,3,1,6,0.225555556,0.402222222,1,0,0,2.149,Basalt_05,2,05,6,6,2.149,-0.103333333,-0.267777778,1,0,0,2.659,Basalt_rect,2,2.659,1,5,0,5,0,1,,,,,,,,,,,,,
58b2338a898c2e0001a5ca56,SCN,2024-06-21_10h49.34.471,LearnStrategy,2023.2.3,Linux x86_64,58.2072177,3,1,7,0.396666667,0.414444444,1,0,0,1.465,Pegmatite_03,6,03,6,7,1.465,-0.131111111,-0.416666667,1,0,0,2.509,Pegmatite_rect,6,2.509,1,6,0,6,0,1,,,,,,,,,,,,,
58b2338a898c2e0001a5ca56,SCN,2024-06-21_10h49.34.471,LearnStrategy,2023.2.3,Linux x86_64,58.2072177,3,1,8,0.567777778,0.415555556,1,0,0,1.463,Pumice_04,8,04,6,8,1.463,0.401111111,-0.404444444,1,0,0,2.459,Pumice_rect,8,2.459,1,7,0,7,0,1,,,,,,,,,,,,,
58b2338a898c2e0001a5ca56,SCN,2024-06-21_10h49.34.471,LearnStrategy,2023.2.3,Linux x86_64,58.2072177,3,1,9,-0.558888889,0.248888889,1,0,0,1.101,Pumice_02,8,02,5,1,1.101,0.375555556,-0.402222222,1,0,0,1.79,Pumice_rect,8,1.79,1,8,0,8,0,1,,,,,,,,,,,,,
58b2338a898c2e0001a5ca56,SCN,2024-06-21_10h49.34.471,LearnStrategy,2023.2.3,Linux x86_64,58.2072177,3,1,10,-0.387777778,0.256666667,1,0,0,1.122,Pegmatite_12,6,12,5,2,1.122,0.127777778,-0.245555556,1,0,0,5.201,Diorite_rect,3,5.201,0,9,0,9,0,1,,,,,,,,,,,,,
58b2338a898c2e0001a5ca56,SCN,2024-06-21_10h49.34.471,LearnStrategy,2023.2.3,Linux x86_64,58.2072177,3,1,11,-0.242222222,0.247777778,1,0,0,1.415,Diorite_06,3,06,5,3,1.415,0.083333333,-0.386666667,1,0,0,1.875,Peridotite_rect,7,1.875,0,10,0,10,0,1,,,,,,,,,,,,,
58b2338a898c2e0001a5ca56,SCN,2024-06-21_10h49.34.471,LearnStrategy,2023.2.3,Linux x86_64,58.2072177,3,1,12,-0.363333333,0.256666667,1,0,0,1.25,Pegmatite_12,6,12,5,2,1.25,0.132222222,-0.254444444,1,0,0,1.623,Diorite_rect,3,1.623,0,11,0,11,0,1,,,,,,,,,,,,,
58b2338a898c2e0001a5ca56,SCN,2024-06-21_10h49.34.471,LearnStrategy,2023.2.3,Linux x86_64,58.2072177,3,1,13,-0.228888889,0.254444444,1,0,0,2.779,Diorite_06,3,06,5,3,2.779,0.135555556,-0.256666667,1,0,0,1.406,Diorite_rect,3,1.406,1,12,0,12,0,1,,,,,,,,,,,,,
58b2338a898c2e0001a5ca56,SCN,2024-06-21_10h49.34.471,LearnStrategy,2023.2.3,Linux x86_64,58.2072177,3,1,14,-0.087777778,0.266666667,1,0,0,1.182,Andesite_01,1,01,5,4,1.182,0.132222222,-0.262222222,1,0,0,2.557,Diorite_rect,3,2.557,0,13,0,13,0,1,,,,,,,,,,,,,
58b2338a898c2e0001a5ca56,SCN,2024-06-21_10h49.34.471,LearnStrategy,2023.2.3,Linux x86_64,58.2072177,3,1,15,-0.575555556,0.072222222,1,0,0,10.63,Pegmatite_07,6,07,4,1,10.63,0.112222222,-0.247777778,1,0,0,3.035,Diorite_rect,3,3.035,0,14,0,14,0,1,,,,,,,,,,,,,
58b2338a898c2e0001a5ca56,SCN,2024-06-21_10h49.34.471,LearnStrategy,2023.2.3,Linux x86_64,58.2072177,3,1,16,-0.377777778,-0.1,1,0,0,4.088,Pegmatite_05,6,05,3,2,4.088,-0.396666667,-0.397777778,1,0,0,2.376,Obsidian_rect,5,2.376,0,15,0,15,0,1,,,,,,,,,,,,,
58b2338a898c2e0001a5ca56,SCN,2024-06-21_10h49.34.471,LearnStrategy,2023.2.3,Linux x86_64,58.2072177,3,2,1,,,,,,,,5,07,,,,,,,,,,,5,2.11,1,,,,,,-0.418888889,-0.414444444,1,0,0,2.11,Obsidian_rect,0,0,0,0,1,
58b2338a898c2e0001a5ca56,SCN,2024-06-21_10h49.34.471,LearnStrategy,2023.2.3,Linux x86_64,58.2072177,3,2,2,,,,,,,,2,01,,,,,,,,,,,2,3.075,1,,,,,,-0.164444444,-0.244444444,1,0,0,3.075,Basalt_rect,1,0,1,0,1,
58b2338a898c2e0001a5ca56,SCN,2024-06-21_10h49.34.471,LearnStrategy,2023.2.3,Linux x86_64,58.2072177,3,2,3,,,,,,,,5,14,,,,,,,,,,,5,1.553,1,,,,,,-0.387777778,-0.386666667,1,0,0,1.553,Obsidian_rect,2,0,2,0,1,
58b2338a898c2e0001a5ca56,SCN,2024-06-21_10h49.34.471,LearnStrategy,2023.2.3,Linux x86_64,58.2072177,3,2,4,,,,,,,,3,16,,,,,,,,,,,3,2.395,1,,,,,,0.145555556,-0.245555556,1,0,0,2.395,Diorite_rect,3,0,3,0,1,
58b2338a898c2e0001a5ca56,SCN,2024-06-21_10h49.34.471,LearnStrategy,2023.2.3,Linux x86_64,58.2072177,3,2,5,,,,,,,,6,16,,,,,,,,,,,7,2.94,0,,,,,,0.127777778,-0.414444444,1,0,0,2.94,Peridotite_rect,4,0,4,0,1,
58b2338a898c2e0001a5ca56,SCN,2024-06-21_10h49.34.471,LearnStrategy,2023.2.3,Linux x86_64,58.2072177,3,2,6,,,,,,,,7,10,,,,,,,,,,,7,1.659,1,,,,,,0.126666667,-0.406666667,1,0,0,1.659,Peridotite_rect,5,0,5,0,1,
58b2338a898c2e0001a5ca56,SCN,2024-06-21_10h49.34.471,LearnStrategy,2023.2.3,Linux x86_64,58.2072177,3,2,7,,,,,,,,7,04,,,,,,,,,,,6,2.666,0,,,,,,-0.157777778,-0.396666667,1,0,0,2.666,Pegmatite_rect,6,0,6,0,1,
58b2338a898c2e0001a5ca56,SCN,2024-06-21_10h49.34.471,LearnStrategy,2023.2.3,Linux x86_64,58.2072177,3,2,8,,,,,,,,8,03,,,,,,,,,,,8,2.04,1,,,,,,0.398888889,-0.384444444,1,0,0,2.04,Pumice_rect,7,0,7,0,1,
58b2338a898c2e0001a5ca56,SCN,2024-06-21_10h49.34.471,LearnStrategy,2023.2.3,Linux x86_64,58.2072177,3,2,9,,,,,,,,1,14,,,,,,,,,,,7,1.623,0,,,,,,0.141111111,-0.382222222,1,0,0,1.623,Peridotite_rect,8,0,8,0,1,
58b2338a898c2e0001a5ca56,SCN,2024-06-21_10h49.34.471,LearnStrategy,2023.2.3,Linux x86_64,58.2072177,3,2,10,,,,,,,,4,13,,,,,,,,,,,1,1.924,0,,,,,,-0.38,-0.263333333,1,0,0,1.924,Andesite_rect,9,0,9,0,1,
58b2338a898c2e0001a5ca56,SCN,2024-06-21_10h49.34.471,LearnStrategy,2023.2.3,Linux x86_64,58.2072177,3,2,11,,,,,,,,3,13,,,,,,,,,,,7,2.137,0,,,,,,0.124444444,-0.392222222,1,0,0,2.137,Peridotite_rect,10,0,10,0,1,
58b2338a898c2e0001a5ca56,SCN,2024-06-21_10h49.34.471,LearnStrategy,2023.2.3,Linux x86_64,58.2072177,3,2,12,,,,,,,,8,08,,,,,,,,,,,8,1.567,1,,,,,,0.378888889,-0.397777778,1,0,0,1.567,Pumice_rect,11,0,11,0,1,
58b2338a898c2e0001a5ca56,SCN,2024-06-21_10h49.34.471,LearnStrategy,2023.2.3,Linux x86_64,58.2072177,3,2,13,,,,,,,,2,14,,,,,,,,,,,5,5.755,0,,,,,,-0.36,-0.381111111,1,0,0,5.755,Obsidian_rect,12,0,12,0,1,
58b2338a898c2e0001a5ca56,SCN,2024-06-21_10h49.34.471,LearnStrategy,2023.2.3,Linux x86_64,58.2072177,3,2,14,,,,,,,,6,09,,,,,,,,,,,6,2.722,1,,,,,,-0.081111111,-0.413333333,1,0,0,2.722,Pegmatite_rect,13,0,13,0,1,
58b2338a898c2e0001a5ca56,SCN,2024-06-21_10h49.34.471,LearnStrategy,2023.2.3,Linux x86_64,58.2072177,3,2,15,,,,,,,,1,10,,,,,,,,,,,4,2.454,0,,,,,,0.427777778,-0.236666667,1,0,0,2.454,Gabbro_rect,14,0,14,0,1,
58b2338a898c2e0001a5ca56,SCN,2024-06-21_10h49.34.471,LearnStrategy,2023.2.3,Linux x86_64,58.2072177,3,2,16,,,,,,,,4,10,,,,,,,,,,,4,0.96,1,,,,,,0.427777778,-0.236666667,1,0,0,0.96,Gabbro_rect,15,0,15,0,1,
58b2338a898c2e0001a5ca56,SCN,2024-06-21_10h49.34.471,LearnStrategy,2023.2.3,Linux x86_64,58.2072177,4,1,1,0.552222222,-0.263333333,1,0,0,6.708,Andesite_11,1,11,2,8,6.708,-0.142222222,-0.395555556,1,0,0,4.61,Pegmatite_rect,6,4.61,0,0,0,0,0,1,,,,,,,,,,,,,
58b2338a898c2e0001a5ca56,SCN,2024-06-21_10h49.34.471,LearnStrategy,2023.2.3,Linux x86_64,58.2072177,4,1,2,-0.252222222,-0.113333333,1,0,0,6.117,Andesite_04,1,04,3,3,6.117,-0.357777778,-0.253333333,1,0,0,5.184,Andesite_rect,1,5.184,1,1,0,1,0,1,,,,,,,,,,,,,
58b2338a898c2e0001a5ca56,SCN,2024-06-21_10h49.34.471,LearnStrategy,2023.2.3,Linux x86_64,58.2072177,4,1,3,0.554444444,-0.255555556,1,0,0,2.19,Andesite_11,1,11,2,8,2.19,-0.377777778,-0.252222222,1,0,0,1.927,Andesite_rect,1,1.927,1,2,0,2,0,1,,,,,,,,,,,,,
58b2338a898c2e0001a5ca56,SCN,2024-06-21_10h49.34.471,LearnStrategy,2023.2.3,Linux x86_64,58.2072177,4,1,4,-0.564444444,0.074444444,1,0,0,8.132,Pegmatite_07,6,07,4,1,8.132,-0.395555556,-0.253333333,1,0,0,1.635,Andesite_rect,1,1.635,0,3,0,3,0,1,,,,,,,,,,,,,
58b2338a898c2e0001a5ca56,SCN,2024-06-21_10h49.34.471,LearnStrategy,2023.2.3,Linux x86_64,58.2072177,4,1,5,0.087777778,0.254444444,1,0,0,2.411,Peridotite_13,7,13,5,5,2.411,-0.133333333,-0.393333333,1,0,0,3.275,Pegmatite_rect,6,3.275,0,4,0,4,0,1,,,,,,,,,,,,,
58b2338a898c2e0001a5ca56,SCN,2024-06-21_10h49.34.471,LearnStrategy,2023.2.3,Linux x86_64,58.2072177,4,1,6,0.588888889,0.105555556,1,0,0,1.721,Pegmatite_10,6,10,4,8,1.721,0.152222222,-0.414444444,1,0,0,1.394,Peridotite_rect,7,1.394,0,5,0,5,0,1,,,,,,,,,,,,,
58b2338a898c2e0001a5ca56,SCN,2024-06-21_10h49.34.471,LearnStrategy,2023.2.3,Linux x86_64,58.2072177,4,1,7,0.066666667,0.223333333,1,0,0,2.506,Peridotite_13,7,13,5,5,2.506,-0.11,-0.41,1,0,0,1.968,Pegmatite_rect,6,1.968,0,6,0,6,0,1,,,,,,,,,,,,,
58b2338a898c2e0001a5ca56,SCN,2024-06-21_10h49.34.471,LearnStrategy,2023.2.3,Linux x86_64,58.2072177,4,1,8,0.56,0.083333333,1,0,0,1.251,Pegmatite_10,6,10,4,8,1.251,0.063333333,-0.408888889,1,0,0,2.062,Peridotite_rect,7,2.062,0,7,0,7,0,1,,,,,,,,,,,,,
58b2338a898c2e0001a5ca56,SCN,2024-06-21_10h49.34.471,LearnStrategy,2023.2.3,Linux x86_64,58.2072177,4,1,9,0.085555556,0.246666667,1,0,0,1.352,Peridotite_13,7,13,5,5,1.352,-0.15,-0.414444444,1,0,0,1.24,Pegmatite_rect,6,1.24,0,8,0,8,0,1,,,,,,,,,,,,,
58b2338a898c2e0001a5ca56,SCN,2024-06-21_10h49.34.471,LearnStrategy,2023.2.3,Linux x86_64,58.2072177,4,1,10,0.076666667,0.236666667,1,0,0,1.259,Peridotite_13,7,13,5,5,1.259,0.143333333,-0.417777778,1,0,0,1.5,Peridotite_rect,7,1.5,1,9,0,9,0,1,,,,,,,,,,,,,
58b2338a898c2e0001a5ca56,SCN,2024-06-21_10h49.34.471,LearnStrategy,2023.2.3,Linux x86_64,58.2072177,4,1,11,0.562222222,0.082222222,1,0,0,1.208,Pegmatite_10,6,10,4,8,1.208,-0.146666667,-0.393333333,1,0,0,1.357,Pegmatite_rect,6,1.357,1,10,0,10,0,1,,,,,,,,,,,,,
58b2338a898c2e0001a5ca56,SCN,2024-06-21_10h49.34.471,LearnStrategy,2023.2.3,Linux x86_64,58.2072177,4,1,12,0.407777778,-0.123333333,1,0,0,2.018,Basalt_02,2,02,3,7,2.018,-0.143333333,-0.253333333,1,0,0,1.599,Basalt_rect,2,1.599,1,11,0,11,0,1,,,,,,,,,,,,,
58b2338a898c2e0001a5ca56,SCN,2024-06-21_10h49.34.471,LearnStrategy,2023.2.3,Linux x86_64,58.2072177,4,1,13,-0.376666667,-0.095555556,1,0,0,2.198,Pegmatite_05,6,05,3,2,2.198,-0.39,-0.267777778,1,0,0,2.21,Andesite_rect,1,2.21,0,12,0,12,0,1,,,,,,,,,,,,,
58b2338a898c2e0001a5ca56,SCN,2024-06-21_10h49.34.471,LearnStrategy,2023.2.3,Linux x86_64,58.2072177,4,1,14,-0.555555556,-0.267777778,1,0,0,3.675,Obsidian_05,5,05,2,1,3.675,-0.361111111,-0.417777778,1,0,0,1.319,Obsidian_rect,5,1.319,1,13,0,13,0,1,,,,,,,,,,,,,
58b2338a898c2e0001a5ca56,SCN,2024-06-21_10h49.34.471,LearnStrategy,2023.2.3,Linux x86_64,58.2072177,4,1,15,-0.564444444,-0.094444444,1,0,0,1.449,Peridotite_06,7,06,3,1,1.449,0.091111111,-0.403333333,1,0,0,2.332,Peridotite_rect,7,2.332,1,14,0,14,0,1,,,,,,,,,,,,,
58b2338a898c2e0001a5ca56,SCN,2024-06-21_10h49.34.471,LearnStrategy,2023.2.3,Linux x86_64,58.2072177,4,1,16,-0.547777778,0.107777778,1,0,0,1.335,Pegmatite_07,6,07,4,1,1.335,-0.14,-0.393333333,1,0,0,2,Pegmatite_rect,6,2,1,15,0,15,0,1,,,,,,,,,,,,,
58b2338a898c2e0001a5ca56,SCN,2024-06-21_10h49.34.471,LearnStrategy,2023.2.3,Linux x86_64,58.2072177,4,2,1,,,,,,,,2,10,,,,,,,,,,,5,4.939,0,,,,,,-0.42,-0.391111111,1,0,0,4.939,Obsidian_rect,0,0,0,0,1,
58b2338a898c2e0001a5ca56,SCN,2024-06-21_10h49.34.471,LearnStrategy,2023.2.3,Linux x86_64,58.2072177,4,2,2,,,,,,,,8,03,,,,,,,,,,,8,2.23,1,,,,,,0.388888889,-0.401111111,1,0,0,2.23,Pumice_rect,1,0,1,0,1,
58b2338a898c2e0001a5ca56,SCN,2024-06-21_10h49.34.471,LearnStrategy,2023.2.3,Linux x86_64,58.2072177,4,2,3,,,,,,,,6,11,,,,,,,,,,,7,3.652,0,,,,,,0.123333333,-0.4,1,0,0,3.652,Peridotite_rect,2,0,2,0,1,
58b2338a898c2e0001a5ca56,SCN,2024-06-21_10h49.34.471,LearnStrategy,2023.2.3,Linux x86_64,58.2072177,4,2,4,,,,,,,,5,14,,,,,,,,,,,5,1.83,1,,,,,,-0.404444444,-0.403333333,1,0,0,1.83,Obsidian_rect,3,0,3,0,1,
58b2338a898c2e0001a5ca56,SCN,2024-06-21_10h49.34.471,LearnStrategy,2023.2.3,Linux x86_64,58.2072177,4,2,5,,,,,,,,7,02,,,,,,,,,,,7,2.746,1,,,,,,0.11,-0.404444444,1,0,0,2.746,Peridotite_rect,4,0,4,0,1,
58b2338a898c2e0001a5ca56,SCN,2024-06-21_10h49.34.471,LearnStrategy,2023.2.3,Linux x86_64,58.2072177,4,2,6,,,,,,,,8,08,,,,,,,,,,,8,1.645,1,,,,,,0.374444444,-0.418888889,1,0,0,1.645,Pumice_rect,5,0,5,0,1,
58b2338a898c2e0001a5ca56,SCN,2024-06-21_10h49.34.471,LearnStrategy,2023.2.3,Linux x86_64,58.2072177,4,2,7,,,,,,,,6,16,,,,,,,,,,,6,2.537,1,,,,,,-0.125555556,-0.414444444,1,0,0,2.537,Pegmatite_rect,6,0,6,0,1,
58b2338a898c2e0001a5ca56,SCN,2024-06-21_10h49.34.471,LearnStrategy,2023.2.3,Linux x86_64,58.2072177,4,2,8,,,,,,,,1,03,,,,,,,,,,,3,3.936,0,,,,,,0.108888889,-0.256666667,1,0,0,3.936,Diorite_rect,7,0,7,0,1,
58b2338a898c2e0001a5ca56,SCN,2024-06-21_10h49.34.471,LearnStrategy,2023.2.3,Linux x86_64,58.2072177,4,2,9,,,,,,,,4,10,,,,,,,,,,,4,1.887,1,,,,,,0.341111111,-0.266666667,1,0,0,1.887,Gabbro_rect,8,0,8,0,1,
58b2338a898c2e0001a5ca56,SCN,2024-06-21_10h49.34.471,LearnStrategy,2023.2.3,Linux x86_64,58.2072177,4,2,10,,,,,,,,1,09,,,,,,,,,,,4,1.256,0,,,,,,0.341111111,-0.266666667,1,0,0,1.256,Gabbro_rect,9,0,9,0,1,
58b2338a898c2e0001a5ca56,SCN,2024-06-21_10h49.34.471,LearnStrategy,2023.2.3,Linux x86_64,58.2072177,4,2,11,,,,,,,,7,04,,,,,,,,,,,1,2.659,0,,,,,,-0.38,-0.26,1,0,0,2.659,Andesite_rect,10,0,10,0,1,
58b2338a898c2e0001a5ca56,SCN,2024-06-21_10h49.34.471,LearnStrategy,2023.2.3,Linux x86_64,58.2072177,4,2,12,,,,,,,,3,08,,,,,,,,,,,7,2.567,0,,,,,,0.112222222,-0.417777778,1,0,0,2.567,Peridotite_rect,11,0,11,0,1,
58b2338a898c2e0001a5ca56,SCN,2024-06-21_10h49.34.471,LearnStrategy,2023.2.3,Linux x86_64,58.2072177,4,2,13,,,,,,,,3,07,,,,,,,,,,,6,1.554,0,,,,,,-0.152222222,-0.393333333,1,0,0,1.554,Pegmatite_rect,12,0,12,0,1,
58b2338a898c2e0001a5ca56,SCN,2024-06-21_10h49.34.471,LearnStrategy,2023.2.3,Linux x86_64,58.2072177,4,2,14,,,,,,,,5,06,,,,,,,,,,,5,1.603,1,,,,,,-0.388888889,-0.398888889,1,0,0,1.603,Obsidian_rect,13,0,13,0,1,
58b2338a898c2e0001a5ca56,SCN,2024-06-21_10h49.34.471,LearnStrategy,2023.2.3,Linux x86_64,58.2072177,4,2,15,,,,,,,,4,13,,,,,,,,,,,3,4.955,0,,,,,,0.131111111,-0.252222222,1,0,0,4.955,Diorite_rect,14,0,14,0,1,
58b2338a898c2e0001a5ca56,SCN,2024-06-21_10h49.34.471,LearnStrategy,2023.2.3,Linux x86_64,58.2072177,4,2,16,,,,,,,,2,12,,,,,,,,,,,8,1.579,0,,,,,,0.382222222,-0.408888889,1,0,0,1.579,Pumice_rect,15,0,15,0,1,
58b2338a898c2e0001a5ca56,SCN,2024-06-21_10h49.34.471,LearnStrategy,2023.2.3,Linux x86_64,58.2072177,5,1,1,-0.375555556,0.41,1,0,0,4.548,Diorite_09,3,09,6,2,4.548,0.111111111,-0.266666667,1,0,0,2.379,Diorite_rect,3,2.379,1,0,0,0,0,1,,,,,,,,,,,,,
58b2338a898c2e0001a5ca56,SCN,2024-06-21_10h49.34.471,LearnStrategy,2023.2.3,Linux x86_64,58.2072177,5,1,2,-0.245555556,0.417777778,1,0,0,1.341,Basalt_08,2,08,6,3,1.341,-0.134444444,-0.246666667,1,0,0,4.146,Basalt_rect,2,4.146,1,1,0,1,0,1,,,,,,,,,,,,,
58b2338a898c2e0001a5ca56,SCN,2024-06-21_10h49.34.471,LearnStrategy,2023.2.3,Linux x86_64,58.2072177,5,1,3,-0.078888889,0.401111111,1,0,0,1.163,Obsidian_09,5,09,6,4,1.163,-0.364444444,-0.415555556,1,0,0,1.659,Obsidian_rect,5,1.659,1,2,0,2,0,1,,,,,,,,,,,,,
58b2338a898c2e0001a5ca56,SCN,2024-06-21_10h49.34.471,LearnStrategy,2023.2.3,Linux x86_64,58.2072177,5,1,4,0.081111111,0.39,1,0,0,1.275,Diorite_02,3,02,6,5,1.275,0.104444444,-0.404444444,1,0,0,1.97,Peridotite_rect,7,1.97,0,3,0,3,0,1,,,,,,,,,,,,,
58b2338a898c2e0001a5ca56,SCN,2024-06-21_10h49.34.471,LearnStrategy,2023.2.3,Linux x86_64,58.2072177,5,1,5,0.237777778,0.397777778,1,0,0,1.318,Basalt_05,2,05,6,6,1.318,-0.133333333,-0.254444444,1,0,0,2.692,Basalt_rect,2,2.692,1,4,0,4,0,1,,,,,,,,,,,,,
58b2338a898c2e0001a5ca56,SCN,2024-06-21_10h49.34.471,LearnStrategy,2023.2.3,Linux x86_64,58.2072177,5,1,6,0.388888889,0.394444444,1,0,0,1.351,Pegmatite_03,6,03,6,7,1.351,0.102222222,-0.262222222,1,0,0,3.476,Diorite_rect,3,3.476,0,5,0,5,0,1,,,,,,,,,,,,,
58b2338a898c2e0001a5ca56,SCN,2024-06-21_10h49.34.471,LearnStrategy,2023.2.3,Linux x86_64,58.2072177,5,1,7,0.095555556,0.404444444,1,0,0,1.747,Diorite_02,3,02,6,5,1.747,0.114444444,-0.254444444,1,0,0,1.41,Diorite_rect,3,1.41,1,6,0,6,0,1,,,,,,,,,,,,,
58b2338a898c2e0001a5ca56,SCN,2024-06-21_10h49.34.471,LearnStrategy,2023.2.3,Linux x86_64,58.2072177,5,1,8,0.387777778,0.401111111,1,0,0,1.391,Pegmatite_03,6,03,6,7,1.391,0.106666667,-0.398888889,1,0,0,1.864,Peridotite_rect,7,1.864,0,7,0,7,0,1,,,,,,,,,,,,,
58b2338a898c2e0001a5ca56,SCN,2024-06-21_10h49.34.471,LearnStrategy,2023.2.3,Linux x86_64,58.2072177,5,1,9,0.534444444,0.268888889,1,0,0,2.549,Gabbro_14,4,14,5,8,2.549,-0.103333333,-0.404444444,1,0,0,2.532,Pegmatite_rect,6,2.532,0,8,0,8,0,1,,,,,,,,,,,,,
58b2338a898c2e0001a5ca56,SCN,2024-06-21_10h49.34.471,LearnStrategy,2023.2.3,Linux x86_64,58.2072177,5,1,10,0.393333333,0.412222222,1,0,0,2.018,Pegmatite_03,6,03,6,7,2.018,-0.161111111,-0.405555556,1,0,0,1.472,Pegmatite_rect,6,1.472,1,9,0,9,0,1,,,,,,,,,,,,,
58b2338a898c2e0001a5ca56,SCN,2024-06-21_10h49.34.471,LearnStrategy,2023.2.3,Linux x86_64,58.2072177,5,1,11,0.581111111,0.265555556,1,0,0,1.4,Gabbro_14,4,14,5,8,1.4,0.374444444,-0.266666667,1,0,0,1.648,Gabbro_rect,4,1.648,1,10,0,10,0,1,,,,,,,,,,,,,
58b2338a898c2e0001a5ca56,SCN,2024-06-21_10h49.34.471,LearnStrategy,2023.2.3,Linux x86_64,58.2072177,5,1,12,0.411111111,0.256666667,1,0,0,1.341,Andesite_05,1,05,5,7,1.341,0.111111111,-0.255555556,1,0,0,6.243,Diorite_rect,3,6.243,0,11,0,11,0,1,,,,,,,,,,,,,
58b2338a898c2e0001a5ca56,SCN,2024-06-21_10h49.34.471,LearnStrategy,2023.2.3,Linux x86_64,58.2072177,5,1,13,0.254444444,0.256666667,1,0,0,1.25,Pegmatite_08,6,08,5,6,1.25,0.143333333,-0.257777778,1,0,0,1.742,Diorite_rect,3,1.742,0,12,0,12,0,1,,,,,,,,,,,,,
58b2338a898c2e0001a5ca56,SCN,2024-06-21_10h49.34.471,LearnStrategy,2023.2.3,Linux x86_64,58.2072177,5,1,14,0.394444444,0.251111111,1,0,0,1.335,Andesite_05,1,05,5,7,1.335,-0.398888889,-0.243333333,1,0,0,3.03,Andesite_rect,1,3.03,1,13,0,13,0,1,,,,,,,,,,,,,
58b2338a898c2e0001a5ca56,SCN,2024-06-21_10h49.34.471,LearnStrategy,2023.2.3,Linux x86_64,58.2072177,5,1,15,0.256666667,0.262222222,1,0,0,1.421,Pegmatite_08,6,08,5,6,1.421,-0.136666667,-0.404444444,1,0,0,1.879,Pegmatite_rect,6,1.879,1,14,0,14,0,1,,,,,,,,,,,,,
58b2338a898c2e0001a5ca56,SCN,2024-06-21_10h49.34.471,LearnStrategy,2023.2.3,Linux x86_64,58.2072177,5,1,16,0.067777778,0.242222222,1,0,0,1.232,Peridotite_13,7,13,5,5,1.232,0.102222222,-0.402222222,1,0,0,1.489,Peridotite_rect,7,1.489,1,15,0,15,0,1,,,,,,,,,,,,,
58b2338a898c2e0001a5ca56,SCN,2024-06-21_10h49.34.471,LearnStrategy,2023.2.3,Linux x86_64,58.2072177,5,2,1,,,,,,,,1,10,,,,,,,,,,,8,8.841,0,,,,,,0.331111111,-0.386666667,1,0,0,8.841,Pumice_rect,0,0,0,0,1,
58b2338a898c2e0001a5ca56,SCN,2024-06-21_10h49.34.471,LearnStrategy,2023.2.3,Linux x86_64,58.2072177,5,2,2,,,,,,,,1,14,,,,,,,,,,,7,3.872,0,,,,,,0.122222222,-0.411111111,1,0,0,3.872,Peridotite_rect,1,0,1,0,1,
58b2338a898c2e0001a5ca56,SCN,2024-06-21_10h49.34.471,LearnStrategy,2023.2.3,Linux x86_64,58.2072177,5,2,3,,,,,,,,3,16,,,,,,,,,,,6,1.901,0,,,,,,-0.143333333,-0.396666667,1,0,0,1.901,Pegmatite_rect,2,0,2,0,1,
58b2338a898c2e0001a5ca56,SCN,2024-06-21_10h49.34.471,LearnStrategy,2023.2.3,Linux x86_64,58.2072177,5,2,4,,,,,,,,6,13,,,,,,,,,,,1,1.958,0,,,,,,-0.371111111,-0.243333333,1,0,0,1.958,Andesite_rect,3,0,3,0,1,
58b2338a898c2e0001a5ca56,SCN,2024-06-21_10h49.34.471,LearnStrategy,2023.2.3,Linux x86_64,58.2072177,5,2,5,,,,,,,,7,15,,,,,,,,,,,6,3.042,0,,,,,,-0.14,-0.383333333,1,0,0,3.042,Pegmatite_rect,4,0,4,0,1,
58b2338a898c2e0001a5ca56,SCN,2024-06-21_10h49.34.471,LearnStrategy,2023.2.3,Linux x86_64,58.2072177,5,2,6,,,,,,,,2,11,,,,,,,,,,,4,2.953,0,,,,,,0.393333333,-0.233333333,1,0,0,2.953,Gabbro_rect,5,0,5,0,1,
58b2338a898c2e0001a5ca56,SCN,2024-06-21_10h49.34.471,LearnStrategy,2023.2.3,Linux x86_64,58.2072177,5,2,7,,,,,,,,6,15,,,,,,,,,,,3,1.915,0,,,,,,0.15,-0.248888889,1,0,0,1.915,Diorite_rect,6,0,6,0,1,
58b2338a898c2e0001a5ca56,SCN,2024-06-21_10h49.34.471,LearnStrategy,2023.2.3,Linux x86_64,58.2072177,5,2,8,,,,,,,,2,04,,,,,,,,,,,2,1.711,1,,,,,,-0.144444444,-0.262222222,1,0,0,1.711,Basalt_rect,7,0,7,0,1,
58b2338a898c2e0001a5ca56,SCN,2024-06-21_10h49.34.471,LearnStrategy,2023.2.3,Linux x86_64,58.2072177,5,2,9,,,,,,,,4,16,,,,,,,,,,,4,2.293,1,,,,,,0.403333333,-0.237777778,1,0,0,2.293,Gabbro_rect,8,0,8,0,1,
58b2338a898c2e0001a5ca56,SCN,2024-06-21_10h49.34.471,LearnStrategy,2023.2.3,Linux x86_64,58.2072177,5,2,10,,,,,,,,3,13,,,,,,,,,,,1,2.58,0,,,,,,-0.313333333,-0.247777778,1,0,0,2.58,Andesite_rect,9,0,9,0,1,
58b2338a898c2e0001a5ca56,SCN,2024-06-21_10h49.34.471,LearnStrategy,2023.2.3,Linux x86_64,58.2072177,5,2,11,,,,,,,,8,14,,,,,,,,,,,8,1.423,1,,,,,,0.364444444,-0.403333333,1,0,0,1.423,Pumice_rect,10,0,10,0,1,
58b2338a898c2e0001a5ca56,SCN,2024-06-21_10h49.34.471,LearnStrategy,2023.2.3,Linux x86_64,58.2072177,5,2,12,,,,,,,,5,16,,,,,,,,,,,5,1.366,1,,,,,,-0.393333333,-0.404444444,1,0,0,1.366,Obsidian_rect,11,0,11,0,1,
58b2338a898c2e0001a5ca56,SCN,2024-06-21_10h49.34.471,LearnStrategy,2023.2.3,Linux x86_64,58.2072177,5,2,13,,,,,,,,7,10,,,,,,,,,,,7,1.68,1,,,,,,0.1,-0.387777778,1,0,0,1.68,Peridotite_rect,12,0,12,0,1,
58b2338a898c2e0001a5ca56,SCN,2024-06-21_10h49.34.471,LearnStrategy,2023.2.3,Linux x86_64,58.2072177,5,2,14,,,,,,,,8,06,,,,,,,,,,,8,1.553,1,,,,,,0.353333333,-0.412222222,1,0,0,1.553,Pumice_rect,13,0,13,0,1,
58b2338a898c2e0001a5ca56,SCN,2024-06-21_10h49.34.471,LearnStrategy,2023.2.3,Linux x86_64,58.2072177,5,2,15,,,,,,,,5,07,,,,,,,,,,,5,1.509,1,,,,,,-0.382222222,-0.398888889,1,0,0,1.509,Obsidian_rect,14,0,14,0,1,
58b2338a898c2e0001a5ca56,SCN,2024-06-21_10h49.34.471,LearnStrategy,2023.2.3,Linux x86_64,58.2072177,5,2,16,,,,,,,,4,01,,,,,,,,,,,7,3.942,0,,,,,,0.117777778,-0.397777778,1,0,0,3.942,Peridotite_rect,15,0,15,0,1,
58b2338a898c2e0001a5ca56,SCN,2024-06-21_10h49.34.471,LearnStrategy,2023.2.3,Linux x86_64,58.2072177,6,1,1,0.403333333,0.407777778,1,0,0,1.491,Pegmatite_03,6,03,6,7,1.491,-0.365555556,-0.241111111,1,0,0,2.824,Andesite_rect,1,2.824,0,0,0,0,0,1,,,,,,,,,,,,,
58b2338a898c2e0001a5ca56,SCN,2024-06-21_10h49.34.471,LearnStrategy,2023.2.3,Linux x86_64,58.2072177,6,1,2,0.532222222,0.233333333,1,0,0,1.298,Gabbro_14,4,14,5,8,1.298,-0.378888889,-0.24,1,0,0,2.656,Andesite_rect,1,2.656,0,1,0,1,0,1,,,,,,,,,,,,,
58b2338a898c2e0001a5ca56,SCN,2024-06-21_10h49.34.471,LearnStrategy,2023.2.3,Linux x86_64,58.2072177,6,1,3,0.391111111,0.398888889,1,0,0,3.149,Pegmatite_03,6,03,6,7,3.149,-0.124444444,-0.406666667,1,0,0,2.11,Pegmatite_rect,6,2.11,1,2,0,2,0,1,,,,,,,,,,,,,
58b2338a898c2e0001a5ca56,SCN,2024-06-21_10h49.34.471,LearnStrategy,2023.2.3,Linux x86_64,58.2072177,6,1,4,0.542222222,0.255555556,1,0,0,1.449,Gabbro_14,4,14,5,8,1.449,0.377777778,-0.254444444,1,0,0,1.591,Gabbro_rect,4,1.591,1,3,0,3,0,1,,,,,,,,,,,,,
58b2338a898c2e0001a5ca56,SCN,2024-06-21_10h49.34.471,LearnStrategy,2023.2.3,Linux x86_64,58.2072177,6,1,5,0.4,0.238888889,1,0,0,1.396,Andesite_05,1,05,5,7,1.396,-0.447777778,-0.246666667,1,0,0,1.762,Andesite_rect,1,1.762,1,4,0,4,0,1,,,,,,,,,,,,,
58b2338a898c2e0001a5ca56,SCN,2024-06-21_10h49.34.471,LearnStrategy,2023.2.3,Linux x86_64,58.2072177,6,1,6,0.256666667,0.267777778,1,0,0,1.217,Pegmatite_08,6,08,5,6,1.217,-0.157777778,-0.411111111,1,0,0,2.668,Pegmatite_rect,6,2.668,1,5,0,5,0,1,,,,,,,,,,,,,
58b2338a898c2e0001a5ca56,SCN,2024-06-21_10h49.34.471,LearnStrategy,2023.2.3,Linux x86_64,58.2072177,6,1,7,0.076666667,0.243333333,1,0,0,1.404,Peridotite_13,7,13,5,5,1.404,0.101111111,-0.403333333,1,0,0,1.491,Peridotite_rect,7,1.491,1,6,0,6,0,1,,,,,,,,,,,,,
58b2338a898c2e0001a5ca56,SCN,2024-06-21_10h49.34.471,LearnStrategy,2023.2.3,Linux x86_64,58.2072177,6,1,8,-0.08,0.247777778,1,0,0,1.107,Andesite_01,1,01,5,4,1.107,0.397777778,-0.263333333,1,0,0,2.332,Gabbro_rect,4,2.332,0,7,0,7,0,1,,,,,,,,,,,,,
58b2338a898c2e0001a5ca56,SCN,2024-06-21_10h49.34.471,LearnStrategy,2023.2.3,Linux x86_64,58.2072177,6,1,9,-0.22,0.271111111,1,0,0,1.228,Diorite_06,3,06,5,3,1.228,-0.143333333,-0.384444444,1,0,0,3.536,Pegmatite_rect,6,3.536,0,8,0,8,0,1,,,,,,,,,,,,,
58b2338a898c2e0001a5ca56,SCN,2024-06-21_10h49.34.471,LearnStrategy,2023.2.3,Linux x86_64,58.2072177,6,1,10,-0.064444444,0.242222222,1,0,0,1.001,Andesite_01,1,01,5,4,1.001,0.418888889,-0.232222222,1,0,0,2.336,Gabbro_rect,4,2.336,0,9,0,9,0,1,,,,,,,,,,,,,
58b2338a898c2e0001a5ca56,SCN,2024-06-21_10h49.34.471,LearnStrategy,2023.2.3,Linux x86_64,58.2072177,6,1,11,-0.287777778,0.242222222,1,0,0,1.746,Diorite_06,3,06,5,3,1.746,-0.401111111,-0.254444444,1,0,0,2.332,Andesite_rect,1,2.332,0,10,0,10,0,1,,,,,,,,,,,,,
58b2338a898c2e0001a5ca56,SCN,2024-06-21_10h49.34.471,LearnStrategy,2023.2.3,Linux x86_64,58.2072177,6,1,12,-0.068888889,0.237777778,1,0,0,1.425,Andesite_01,1,01,5,4,1.425,-0.37,-0.243333333,1,0,0,2.17,Andesite_rect,1,2.17,1,11,0,11,0,1,,,,,,,,,,,,,
58b2338a898c2e0001a5ca56,SCN,2024-06-21_10h49.34.471,LearnStrategy,2023.2.3,Linux x86_64,58.2072177,6,1,13,-0.23,0.253333333,1,0,0,2.152,Diorite_06,3,06,5,3,2.152,0.168888889,-0.253333333,1,0,0,1.428,Diorite_rect,3,1.428,1,12,0,12,0,1,,,,,,,,,,,,,
58b2338a898c2e0001a5ca56,SCN,2024-06-21_10h49.34.471,LearnStrategy,2023.2.3,Linux x86_64,58.2072177,6,1,14,-0.376666667,0.258888889,1,0,0,1.515,Pegmatite_12,6,12,5,2,1.515,-0.393333333,-0.241111111,1,0,0,3.163,Andesite_rect,1,3.163,0,13,0,13,0,1,,,,,,,,,,,,,
58b2338a898c2e0001a5ca56,SCN,2024-06-21_10h49.34.471,LearnStrategy,2023.2.3,Linux x86_64,58.2072177,6,1,15,-0.076666667,0.225555556,1,0,0,1.216,Andesite_01,1,01,5,4,1.216,-0.361111111,-0.25,1,0,0,1.988,Andesite_rect,1,1.988,1,14,0,14,0,1,,,,,,,,,,,,,
58b2338a898c2e0001a5ca56,SCN,2024-06-21_10h49.34.471,LearnStrategy,2023.2.3,Linux x86_64,58.2072177,6,1,16,-0.245555556,0.242222222,1,0,0,1.067,Diorite_06,3,06,5,3,1.067,0.153333333,-0.26,1,0,0,1.543,Diorite_rect,3,1.543,1,15,0,15,0,1,,,,,,,,,,,,,
58b2338a898c2e0001a5ca56,SCN,2024-06-21_10h49.34.471,LearnStrategy,2023.2.3,Linux x86_64,58.2072177,6,2,1,,,,,,,,1,16,,,,,,,,,,,1,4.181,1,,,,,,-0.385555556,-0.246666667,1,0,0,4.181,Andesite_rect,0,0,0,0,1,
58b2338a898c2e0001a5ca56,SCN,2024-06-21_10h49.34.471,LearnStrategy,2023.2.3,Linux x86_64,58.2072177,6,2,2,,,,,,,,5,10,,,,,,,,,,,5,1.466,1,,,,,,-0.426666667,-0.405555556,1,0,0,1.466,Obsidian_rect,1,0,1,0,1,
58b2338a898c2e0001a5ca56,SCN,2024-06-21_10h49.34.471,LearnStrategy,2023.2.3,Linux x86_64,58.2072177,6,2,3,,,,,,,,1,07,,,,,,,,,,,3,4.741,0,,,,,,0.115555556,-0.262222222,1,0,0,4.741,Diorite_rect,2,0,2,0,1,
58b2338a898c2e0001a5ca56,SCN,2024-06-21_10h49.34.471,LearnStrategy,2023.2.3,Linux x86_64,58.2072177,6,2,4,,,,,,,,3,11,,,,,,,,,,,6,2.338,0,,,,,,-0.113333333,-0.401111111,1,0,0,2.338,Pegmatite_rect,3,0,3,0,1,
58b2338a898c2e0001a5ca56,SCN,2024-06-21_10h49.34.471,LearnStrategy,2023.2.3,Linux x86_64,58.2072177,6,2,5,,,,,,,,8,15,,,,,,,,,,,8,1.783,1,,,,,,0.403333333,-0.386666667,1,0,0,1.783,Pumice_rect,4,0,4,0,1,
58b2338a898c2e0001a5ca56,SCN,2024-06-21_10h49.34.471,LearnStrategy,2023.2.3,Linux x86_64,58.2072177,6,2,6,,,,,,,,6,09,,,,,,,,,,,1,5.508,0,,,,,,-0.394444444,-0.264444444,1,0,0,5.508,Andesite_rect,5,0,5,0,1,
58b2338a898c2e0001a5ca56,SCN,2024-06-21_10h49.34.471,LearnStrategy,2023.2.3,Linux x86_64,58.2072177,6,2,7,,,,,,,,7,07,,,,,,,,,,,7,2.488,1,,,,,,0.108888889,-0.391111111,1,0,0,2.488,Peridotite_rect,6,0,6,0,1,
58b2338a898c2e0001a5ca56,SCN,2024-06-21_10h49.34.471,LearnStrategy,2023.2.3,Linux x86_64,58.2072177,6,2,8,,,,,,,,6,06,,,,,,,,,,,6,1.819,1,,,,,,-0.13,-0.404444444,1,0,0,1.819,Pegmatite_rect,7,0,7,0,1,
58b2338a898c2e0001a5ca56,SCN,2024-06-21_10h49.34.471,LearnStrategy,2023.2.3,Linux x86_64,58.2072177,6,2,9,,,,,,,,2,14,,,,,,,,,,,8,2.367,0,,,,,,0.39,-0.402222222,1,0,0,2.367,Pumice_rect,8,0,8,0,1,
58b2338a898c2e0001a5ca56,SCN,2024-06-21_10h49.34.471,LearnStrategy,2023.2.3,Linux x86_64,58.2072177,6,2,10,,,,,,,,4,12,,,,,,,,,,,4,1.747,1,,,,,,0.378888889,-0.241111111,1,0,0,1.747,Gabbro_rect,9,0,9,0,1,
58b2338a898c2e0001a5ca56,SCN,2024-06-21_10h49.34.471,LearnStrategy,2023.2.3,Linux x86_64,58.2072177,6,2,11,,,,,,,,8,10,,,,,,,,,,,8,1.512,1,,,,,,0.371111111,-0.41,1,0,0,1.512,Pumice_rect,10,0,10,0,1,
58b2338a898c2e0001a5ca56,SCN,2024-06-21_10h49.34.471,LearnStrategy,2023.2.3,Linux x86_64,58.2072177,6,2,12,,,,,,,,3,15,,,,,,,,,,,3,2.079,1,,,,,,0.147777778,-0.254444444,1,0,0,2.079,Diorite_rect,11,0,11,0,1,
58b2338a898c2e0001a5ca56,SCN,2024-06-21_10h49.34.471,LearnStrategy,2023.2.3,Linux x86_64,58.2072177,6,2,13,,,,,,,,2,01,,,,,,,,,,,2,1.802,1,,,,,,-0.086666667,-0.245555556,1,0,0,1.802,Basalt_rect,12,0,12,0,1,
58b2338a898c2e0001a5ca56,SCN,2024-06-21_10h49.34.471,LearnStrategy,2023.2.3,Linux x86_64,58.2072177,6,2,14,,,,,,,,4,15,,,,,,,,,,,6,1.76,0,,,,,,-0.147777778,-0.4,1,0,0,1.76,Pegmatite_rect,13,0,13,0,1,
58b2338a898c2e0001a5ca56,SCN,2024-06-21_10h49.34.471,LearnStrategy,2023.2.3,Linux x86_64,58.2072177,6,2,15,,,,,,,,7,08,,,,,,,,,,,7,2.577,1,,,,,,0.161111111,-0.405555556,1,0,0,2.577,Peridotite_rect,14,0,14,0,1,
58b2338a898c2e0001a5ca56,SCN,2024-06-21_10h49.34.471,LearnStrategy,2023.2.3,Linux x86_64,58.2072177,6,2,16,,,,,,,,5,08,,,,,,,,,,,5,1.497,1,,,,,,-0.405555556,-0.394444444,1,0,0,1.497,Obsidian_rect,15,0,15,0,1,
58b2338a898c2e0001a5ca56,SCN,2024-06-21_10h49.34.471,LearnStrategy,2023.2.3,Linux x86_64,58.2072177,7,1,1,-0.527777778,-0.435555556,1,0,0,2.908,Peridotite_16,7,16,1,1,2.908,-0.42,-0.256666667,1,0,0,7.389,Andesite_rect,1,7.389,0,0,0,0,0,1,,,,,,,,,,,,,
58b2338a898c2e0001a5ca56,SCN,2024-06-21_10h49.34.471,LearnStrategy,2023.2.3,Linux x86_64,58.2072177,7,1,2,-0.222222222,-0.407777778,1,0,0,3.698,Basalt_09,2,09,1,3,3.698,0.392222222,-0.244444444,1,0,0,1.208,Gabbro_rect,4,1.208,0,1,0,1,0,1,,,,,,,,,,,,,
58b2338a898c2e0001a5ca56,SCN,2024-06-21_10h49.34.471,LearnStrategy,2023.2.3,Linux x86_64,58.2072177,7,1,3,0.222222222,-0.435555556,1,0,0,2.772,Peridotite_14,7,14,1,6,2.772,-0.368888889,-0.25,1,0,0,2.514,Andesite_rect,1,2.514,0,2,0,2,0,1,,,,,,,,,,,,,
58b2338a898c2e0001a5ca56,SCN,2024-06-21_10h49.34.471,LearnStrategy,2023.2.3,Linux x86_64,58.2072177,7,1,4,-0.544444444,-0.401111111,1,0,0,1.235,Peridotite_16,7,16,1,1,1.235,0.094444444,-0.414444444,1,0,0,1.867,Peridotite_rect,7,1.867,1,3,0,3,0,1,,,,,,,,,,,,,
58b2338a898c2e0001a5ca56,SCN,2024-06-21_10h49.34.471,LearnStrategy,2023.2.3,Linux x86_64,58.2072177,7,1,5,0.255555556,-0.428888889,1,0,0,2.517,Peridotite_14,7,14,1,6,2.517,0.104444444,-0.395555556,1,0,0,1.615,Peridotite_rect,7,1.615,1,4,0,4,0,1,,,,,,,,,,,,,
58b2338a898c2e0001a5ca56,SCN,2024-06-21_10h49.34.471,LearnStrategy,2023.2.3,Linux x86_64,58.2072177,7,1,6,0.403333333,-0.425555556,1,0,0,2.073,Peridotite_12,7,12,1,7,2.073,-0.357777778,-0.245555556,1,0,0,2.042,Andesite_rect,1,2.042,0,5,0,5,0,1,,,,,,,,,,,,,
58b2338a898c2e0001a5ca56,SCN,2024-06-21_10h49.34.471,LearnStrategy,2023.2.3,Linux x86_64,58.2072177,7,1,7,0.551111111,-0.403333333,1,0,0,1.458,Diorite_10,3,10,1,8,1.458,0.103333333,-0.254444444,1,0,0,1.944,Diorite_rect,3,1.944,1,6,0,6,0,1,,,,,,,,,,,,,
58b2338a898c2e0001a5ca56,SCN,2024-06-21_10h49.34.471,LearnStrategy,2023.2.3,Linux x86_64,58.2072177,7,1,8,0.548888889,-0.255555556,1,0,0,2.082,Andesite_11,1,11,2,8,2.082,-0.388888889,-0.236666667,1,0,0,1.833,Andesite_rect,1,1.833,1,7,0,7,0,1,,,,,,,,,,,,,
58b2338a898c2e0001a5ca56,SCN,2024-06-21_10h49.34.471,LearnStrategy,2023.2.3,Linux x86_64,58.2072177,7,1,9,0.387777778,-0.266666667,1,0,0,1.548,Gabbro_03,4,03,2,7,1.548,0.39,-0.245555556,1,0,0,2.154,Gabbro_rect,4,2.154,1,8,0,8,0,1,,,,,,,,,,,,,
58b2338a898c2e0001a5ca56,SCN,2024-06-21_10h49.34.471,LearnStrategy,2023.2.3,Linux x86_64,58.2072177,7,1,10,0.056666667,-0.253333333,1,0,0,1.931,Diorite_14,3,14,2,5,1.931,0.056666667,-0.253333333,1,0,0,1.965,Diorite_rect,3,1.965,1,9,0,9,0,1,,,,,,,,,,,,,
58b2338a898c2e0001a5ca56,SCN,2024-06-21_10h49.34.471,LearnStrategy,2023.2.3,Linux x86_64,58.2072177,7,1,11,0.065555556,0.086666667,1,0,0,9.103,Peridotite_05,7,05,4,5,9.103,0.126666667,-0.251111111,1,0,0,2.964,Diorite_rect,3,2.964,0,10,0,10,0,1,,,,,,,,,,,,,
58b2338a898c2e0001a5ca56,SCN,2024-06-21_10h49.34.471,LearnStrategy,2023.2.3,Linux x86_64,58.2072177,7,1,12,-0.25,0.092222222,1,0,0,1.934,Andesite_06,1,06,4,3,1.934,-0.168888889,-0.403333333,1,0,0,2.374,Pegmatite_rect,6,2.374,0,11,0,11,0,1,,,,,,,,,,,,,
58b2338a898c2e0001a5ca56,SCN,2024-06-21_10h49.34.471,LearnStrategy,2023.2.3,Linux x86_64,58.2072177,7,1,13,-0.224444444,0.096666667,1,0,0,2.615,Andesite_06,1,06,4,3,2.615,-0.391111111,-0.255555556,1,0,0,1.576,Andesite_rect,1,1.576,1,12,0,12,0,1,,,,,,,,,,,,,
58b2338a898c2e0001a5ca56,SCN,2024-06-21_10h49.34.471,LearnStrategy,2023.2.3,Linux x86_64,58.2072177,7,1,14,-0.566666667,0.1,1,0,0,1.872,Pegmatite_07,6,07,4,1,1.872,-0.414444444,-0.267777778,1,0,0,1.681,Andesite_rect,1,1.681,0,13,0,13,0,1,,,,,,,,,,,,,
58b2338a898c2e0001a5ca56,SCN,2024-06-21_10h49.34.471,LearnStrategy,2023.2.3,Linux x86_64,58.2072177,7,1,15,-0.398888889,-0.104444444,1,0,0,2.106,Pegmatite_05,6,05,3,2,2.106,-0.146666667,-0.401111111,1,0,0,2.87,Pegmatite_rect,6,2.87,1,14,0,14,0,1,,,,,,,,,,,,,
58b2338a898c2e0001a5ca56,SCN,2024-06-21_10h49.34.471,LearnStrategy,2023.2.3,Linux x86_64,58.2072177,7,1,16,-0.538888889,0.095555556,1,0,0,1.681,Pegmatite_07,6,07,4,1,1.681,-0.135555556,-0.386666667,1,0,0,1.562,Pegmatite_rect,6,1.562,1,15,0,15,0,1,,,,,,,,,,,,,
58b2338a898c2e0001a5ca56,SCN,2024-06-21_10h49.34.471,LearnStrategy,2023.2.3,Linux x86_64,58.2072177,7,2,1,,,,,,,,6,15,,,,,,,,,,,6,3.498,1,,,,,,-0.127777778,-0.391111111,1,0,0,3.498,Pegmatite_rect,0,0,0,0,1,
58b2338a898c2e0001a5ca56,SCN,2024-06-21_10h49.34.471,LearnStrategy,2023.2.3,Linux x86_64,58.2072177,7,2,2,,,,,,,,7,10,,,,,,,,,,,7,1.928,1,,,,,,0.133333333,-0.418888889,1,0,0,1.928,Peridotite_rect,1,0,1,0,1,
58b2338a898c2e0001a5ca56,SCN,2024-06-21_10h49.34.471,LearnStrategy,2023.2.3,Linux x86_64,58.2072177,7,2,3,,,,,,,,3,08,,,,,,,,,,,3,1.797,1,,,,,,0.138888889,-0.254444444,1,0,0,1.797,Diorite_rect,2,0,2,0,1,
58b2338a898c2e0001a5ca56,SCN,2024-06-21_10h49.34.471,LearnStrategy,2023.2.3,Linux x86_64,58.2072177,7,2,4,,,,,,,,6,09,,,,,,,,,,,6,2.756,1,,,,,,-0.172222222,-0.412222222,1,0,0,2.756,Pegmatite_rect,3,0,3,0,1,
58b2338a898c2e0001a5ca56,SCN,2024-06-21_10h49.34.471,LearnStrategy,2023.2.3,Linux x86_64,58.2072177,7,2,5,,,,,,,,2,04,,,,,,,,,,,2,1.714,1,,,,,,-0.125555556,-0.26,1,0,0,1.714,Basalt_rect,4,0,4,0,1,
58b2338a898c2e0001a5ca56,SCN,2024-06-21_10h49.34.471,LearnStrategy,2023.2.3,Linux x86_64,58.2072177,7,2,6,,,,,,,,3,16,,,,,,,,,,,3,1.957,1,,,,,,0.123333333,-0.262222222,1,0,0,1.957,Diorite_rect,5,0,5,0,1,
58b2338a898c2e0001a5ca56,SCN,2024-06-21_10h49.34.471,LearnStrategy,2023.2.3,Linux x86_64,58.2072177,7,2,7,,,,,,,,8,08,,,,,,,,,,,8,1.428,1,,,,,,0.375555556,-0.397777778,1,0,0,1.428,Pumice_rect,6,0,6,0,1,
58b2338a898c2e0001a5ca56,SCN,2024-06-21_10h49.34.471,LearnStrategy,2023.2.3,Linux x86_64,58.2072177,7,2,8,,,,,,,,4,13,,,,,,,,,,,1,1.99,0,,,,,,-0.406666667,-0.257777778,1,0,0,1.99,Andesite_rect,7,0,7,0,1,
58b2338a898c2e0001a5ca56,SCN,2024-06-21_10h49.34.471,LearnStrategy,2023.2.3,Linux x86_64,58.2072177,7,2,9,,,,,,,,8,06,,,,,,,,,,,8,2.659,1,,,,,,0.371111111,-0.405555556,1,0,0,2.659,Pumice_rect,8,0,8,0,1,
58b2338a898c2e0001a5ca56,SCN,2024-06-21_10h49.34.471,LearnStrategy,2023.2.3,Linux x86_64,58.2072177,7,2,10,,,,,,,,5,16,,,,,,,,,,,5,1.33,1,,,,,,-0.427777778,-0.413333333,1,0,0,1.33,Obsidian_rect,9,0,9,0,1,
58b2338a898c2e0001a5ca56,SCN,2024-06-21_10h49.34.471,LearnStrategy,2023.2.3,Linux x86_64,58.2072177,7,2,11,,,,,,,,1,03,,,,,,,,,,,4,1.456,0,,,,,,0.438888889,-0.262222222,1,0,0,1.456,Gabbro_rect,10,0,10,0,1,
58b2338a898c2e0001a5ca56,SCN,2024-06-21_10h49.34.471,LearnStrategy,2023.2.3,Linux x86_64,58.2072177,7,2,12,,,,,,,,5,14,,,,,,,,,,,5,2.677,1,,,,,,-0.398888889,-0.392222222,1,0,0,2.677,Obsidian_rect,11,0,11,0,1,
58b2338a898c2e0001a5ca56,SCN,2024-06-21_10h49.34.471,LearnStrategy,2023.2.3,Linux x86_64,58.2072177,7,2,13,,,,,,,,2,14,,,,,,,,,,,8,1.927,0,,,,,,0.412222222,-0.414444444,1,0,0,1.927,Pumice_rect,12,0,12,0,1,
58b2338a898c2e0001a5ca56,SCN,2024-06-21_10h49.34.471,LearnStrategy,2023.2.3,Linux x86_64,58.2072177,7,2,14,,,,,,,,4,10,,,,,,,,,,,4,2.029,1,,,,,,0.405555556,-0.258888889,1,0,0,2.029,Gabbro_rect,13,0,13,0,1,
58b2338a898c2e0001a5ca56,SCN,2024-06-21_10h49.34.471,LearnStrategy,2023.2.3,Linux x86_64,58.2072177,7,2,15,,,,,,,,1,07,,,,,,,,,,,2,3.8,0,,,,,,-0.085555556,-0.241111111,1,0,0,3.8,Basalt_rect,14,0,14,0,1,
58b2338a898c2e0001a5ca56,SCN,2024-06-21_10h49.34.471,LearnStrategy,2023.2.3,Linux x86_64,58.2072177,7,2,16,,,,,,,,7,07,,,,,,,,,,,1,2.509,0,,,,,,-0.406666667,-0.24,1,0,0,2.509,Andesite_rect,15,0,15,0,1,
58b2338a898c2e0001a5ca56,SCN,2024-06-21_10h49.34.471,LearnStrategy,2023.2.3,Linux x86_64,58.2072177,8,1,1,-0.547777778,-0.4,1,0,0,4.004,Peridotite_16,7,16,1,1,4.004,0.124444444,-0.248888889,1,0,0,5.028,Diorite_rect,3,5.028,0,0,0,0,0,1,,,,,,,,,,,,,
58b2338a898c2e0001a5ca56,SCN,2024-06-21_10h49.34.471,LearnStrategy,2023.2.3,Linux x86_64,58.2072177,8,1,2,0.256666667,-0.432222222,1,0,0,3.994,Peridotite_14,7,14,1,6,3.994,0.113333333,-0.397777778,1,0,0,1.428,Peridotite_rect,7,1.428,1,1,0,1,0,1,,,,,,,,,,,,,
58b2338a898c2e0001a5ca56,SCN,2024-06-21_10h49.34.471,LearnStrategy,2023.2.3,Linux x86_64,58.2072177,8,1,3,0.084444444,0.267777778,1,0,0,6.335,Peridotite_13,7,13,5,5,6.335,0.097777778,-0.413333333,1,0,0,1.914,Peridotite_rect,7,1.914,1,2,0,2,0,1,,,,,,,,,,,,,
58b2338a898c2e0001a5ca56,SCN,2024-06-21_10h49.34.471,LearnStrategy,2023.2.3,Linux x86_64,58.2072177,8,1,4,-0.387777778,0.424444444,1,0,0,1.37,Diorite_09,3,09,6,2,1.37,0.122222222,-0.42,1,0,0,1.6,Peridotite_rect,7,1.6,0,3,0,3,0,1,,,,,,,,,,,,,
58b2338a898c2e0001a5ca56,SCN,2024-06-21_10h49.34.471,LearnStrategy,2023.2.3,Linux x86_64,58.2072177,8,1,5,-0.402222222,-0.093333333,1,0,0,5,Pegmatite_05,6,05,3,2,5,-0.392222222,-0.248888889,1,0,0,1.901,Andesite_rect,1,1.901,0,4,0,4,0,1,,,,,,,,,,,,,
58b2338a898c2e0001a5ca56,SCN,2024-06-21_10h49.34.471,LearnStrategy,2023.2.3,Linux x86_64,58.2072177,8,1,6,-0.59,0.096666667,1,0,0,1.326,Pegmatite_07,6,07,4,1,1.326,-0.123333333,-0.416666667,1,0,0,1.641,Pegmatite_rect,6,1.641,1,5,0,5,0,1,,,,,,,,,,,,,
58b2338a898c2e0001a5ca56,SCN,2024-06-21_10h49.34.471,LearnStrategy,2023.2.3,Linux x86_64,58.2072177,8,1,7,-0.385555556,-0.117777778,1,0,0,1.411,Pegmatite_05,6,05,3,2,1.411,-0.141111111,-0.393333333,1,0,0,1.791,Pegmatite_rect,6,1.791,1,6,0,6,0,1,,,,,,,,,,,,,
58b2338a898c2e0001a5ca56,SCN,2024-06-21_10h49.34.471,LearnStrategy,2023.2.3,Linux x86_64,58.2072177,8,1,8,-0.391111111,0.255555556,1,0,0,1.64,Pegmatite_12,6,12,5,2,1.64,-0.136666667,-0.402222222,1,0,0,1.454,Pegmatite_rect,6,1.454,1,7,0,7,0,1,,,,,,,,,,,,,
58b2338a898c2e0001a5ca56,SCN,2024-06-21_10h49.34.471,LearnStrategy,2023.2.3,Linux x86_64,58.2072177,8,1,9,0.256666667,0.235555556,1,0,0,1.832,Pegmatite_08,6,08,5,6,1.832,-0.16,-0.413333333,1,0,0,1.167,Pegmatite_rect,6,1.167,1,8,0,8,0,1,,,,,,,,,,,,,
58b2338a898c2e0001a5ca56,SCN,2024-06-21_10h49.34.471,LearnStrategy,2023.2.3,Linux x86_64,58.2072177,8,1,10,0.542222222,0.094444444,1,0,0,1.813,Pegmatite_10,6,10,4,8,1.813,-0.145555556,-0.397777778,1,0,0,2.516,Pegmatite_rect,6,2.516,1,9,0,9,0,1,,,,,,,,,,,,,
58b2338a898c2e0001a5ca56,SCN,2024-06-21_10h49.34.471,LearnStrategy,2023.2.3,Linux x86_64,58.2072177,8,1,11,-0.575555556,-0.12,1,0,0,4.8,Peridotite_06,7,06,3,1,4.8,-0.136666667,-0.386666667,1,0,0,1.889,Pegmatite_rect,6,1.889,0,10,0,10,0,1,,,,,,,,,,,,,
58b2338a898c2e0001a5ca56,SCN,2024-06-21_10h49.34.471,LearnStrategy,2023.2.3,Linux x86_64,58.2072177,8,1,12,0.231111111,-0.407777778,1,0,0,2.969,Peridotite_14,7,14,1,6,2.969,0.16,-0.401111111,1,0,0,1.34,Peridotite_rect,7,1.34,1,11,0,11,0,1,,,,,,,,,,,,,
58b2338a898c2e0001a5ca56,SCN,2024-06-21_10h49.34.471,LearnStrategy,2023.2.3,Linux x86_64,58.2072177,8,1,13,-0.551111111,-0.394444444,1,0,0,2.714,Peridotite_16,7,16,1,1,2.714,0.136666667,-0.41,1,0,0,1.701,Peridotite_rect,7,1.701,1,12,0,12,0,1,,,,,,,,,,,,,
58b2338a898c2e0001a5ca56,SCN,2024-06-21_10h49.34.471,LearnStrategy,2023.2.3,Linux x86_64,58.2072177,8,1,14,-0.558888889,-0.091111111,1,0,0,1.988,Peridotite_06,7,06,3,1,1.988,0.133333333,-0.39,1,0,0,1.446,Peridotite_rect,7,1.446,1,13,0,13,0,1,,,,,,,,,,,,,
58b2338a898c2e0001a5ca56,SCN,2024-06-21_10h49.34.471,LearnStrategy,2023.2.3,Linux x86_64,58.2072177,8,1,15,0.091111111,0.257777778,1,0,0,2.846,Peridotite_13,7,13,5,5,2.846,0.116666667,-0.398888889,1,0,0,1.593,Peridotite_rect,7,1.593,1,14,0,14,0,1,,,,,,,,,,,,,
58b2338a898c2e0001a5ca56,SCN,2024-06-21_10h49.34.471,LearnStrategy,2023.2.3,Linux x86_64,58.2072177,8,1,16,0.077777778,0.401111111,1,0,0,4.919,Diorite_02,3,02,6,5,4.919,0.116666667,-0.247777778,1,0,0,2.522,Diorite_rect,3,2.522,1,15,0,15,0,1,,,,,,,,,,,,,
58b2338a898c2e0001a5ca56,SCN,2024-06-21_10h49.34.471,LearnStrategy,2023.2.3,Linux x86_64,58.2072177,8,2,1,,,,,,,,7,02,,,,,,,,,,,6,6.935,0,,,,,,-0.104444444,-0.406666667,1,0,0,6.935,Pegmatite_rect,0,0,0,0,1,
58b2338a898c2e0001a5ca56,SCN,2024-06-21_10h49.34.471,LearnStrategy,2023.2.3,Linux x86_64,58.2072177,8,2,2,,,,,,,,2,10,,,,,,,,,,,2,4.041,1,,,,,,-0.133333333,-0.24,1,0,0,4.041,Basalt_rect,1,0,1,0,1,
58b2338a898c2e0001a5ca56,SCN,2024-06-21_10h49.34.471,LearnStrategy,2023.2.3,Linux x86_64,58.2072177,8,2,3,,,,,,,,1,14,,,,,,,,,,,7,7.456,0,,,,,,0.101111111,-0.42,1,0,0,7.456,Peridotite_rect,2,0,2,0,1,
58b2338a898c2e0001a5ca56,SCN,2024-06-21_10h49.34.471,LearnStrategy,2023.2.3,Linux x86_64,58.2072177,8,2,4,,,,,,,,1,16,,,,,,,,,,,6,2.362,0,,,,,,-0.198888889,-0.403333333,1,0,0,2.362,Pegmatite_rect,3,0,3,0,1,
58b2338a898c2e0001a5ca56,SCN,2024-06-21_10h49.34.471,LearnStrategy,2023.2.3,Linux x86_64,58.2072177,8,2,5,,,,,,,,2,12,,,,,,,,,,,8,1.718,0,,,,,,0.387777778,-0.407777778,1,0,0,1.718,Pumice_rect,4,0,4,0,1,
58b2338a898c2e0001a5ca56,SCN,2024-06-21_10h49.34.471,LearnStrategy,2023.2.3,Linux x86_64,58.2072177,8,2,6,,,,,,,,5,08,,,,,,,,,,,5,3.635,1,,,,,,-0.397777778,-0.388888889,1,0,0,3.635,Obsidian_rect,5,0,5,0,1,
58b2338a898c2e0001a5ca56,SCN,2024-06-21_10h49.34.471,LearnStrategy,2023.2.3,Linux x86_64,58.2072177,8,2,7,,,,,,,,5,10,,,,,,,,,,,5,0.77,1,,,,,,-0.397777778,-0.388888889,1,0,0,0.77,Obsidian_rect,6,0,6,0,1,
58b2338a898c2e0001a5ca56,SCN,2024-06-21_10h49.34.471,LearnStrategy,2023.2.3,Linux x86_64,58.2072177,8,2,8,,,,,,,,4,15,,,,,,,,,,,6,3.8,0,,,,,,-0.137777778,-0.393333333,1,0,0,3.8,Pegmatite_rect,7,0,7,0,1,
58b2338a898c2e0001a5ca56,SCN,2024-06-21_10h49.34.471,LearnStrategy,2023.2.3,Linux x86_64,58.2072177,8,2,9,,,,,,,,3,11,,,,,,,,,,,7,3.054,0,,,,,,0.134444444,-0.411111111,1,0,0,3.054,Peridotite_rect,8,0,8,0,1,
58b2338a898c2e0001a5ca56,SCN,2024-06-21_10h49.34.471,LearnStrategy,2023.2.3,Linux x86_64,58.2072177,8,2,10,,,,,,,,8,10,,,,,,,,,,,8,1.474,1,,,,,,0.375555556,-0.393333333,1,0,0,1.474,Pumice_rect,9,0,9,0,1,
58b2338a898c2e0001a5ca56,SCN,2024-06-21_10h49.34.471,LearnStrategy,2023.2.3,Linux x86_64,58.2072177,8,2,11,,,,,,,,6,06,,,,,,,,,,,1,2.142,0,,,,,,-0.381111111,-0.247777778,1,0,0,2.142,Andesite_rect,10,0,10,0,1,
58b2338a898c2e0001a5ca56,SCN,2024-06-21_10h49.34.471,LearnStrategy,2023.2.3,Linux x86_64,58.2072177,8,2,12,,,,,,,,6,13,,,,,,,,,,,1,1.221,0,,,,,,-0.381111111,-0.247777778,1,0,0,1.221,Andesite_rect,11,0,11,0,1,
58b2338a898c2e0001a5ca56,SCN,2024-06-21_10h49.34.471,LearnStrategy,2023.2.3,Linux x86_64,58.2072177,8,2,13,,,,,,,,4,16,,,,,,,,,,,3,3.483,0,,,,,,0.138888889,-0.26,1,0,0,3.483,Diorite_rect,12,0,12,0,1,
58b2338a898c2e0001a5ca56,SCN,2024-06-21_10h49.34.471,LearnStrategy,2023.2.3,Linux x86_64,58.2072177,8,2,14,,,,,,,,8,03,,,,,,,,,,,8,1.439,1,,,,,,0.367777778,-0.402222222,1,0,0,1.439,Pumice_rect,13,0,13,0,1,
58b2338a898c2e0001a5ca56,SCN,2024-06-21_10h49.34.471,LearnStrategy,2023.2.3,Linux x86_64,58.2072177,8,2,15,,,,,,,,7,15,,,,,,,,,,,6,2.193,0,,,,,,-0.084444444,-0.405555556,1,0,0,2.193,Pegmatite_rect,14,0,14,0,1,
58b2338a898c2e0001a5ca56,SCN,2024-06-21_10h49.34.471,LearnStrategy,2023.2.3,Linux x86_64,58.2072177,8,2,16,,,,,,,,3,13,,,,,,,,,,,6,0.983,0,,,,,,-0.084444444,-0.405555556,1,0,0,0.983,Pegmatite_rect,15,0,15,0,1,
58b2338a898c2e0001a5ca56,SCN,2024-06-21_10h49.34.471,LearnStrategy,2023.2.3,Linux x86_64,58.2072177,9,1,1,-0.407777778,0.415555556,1,0,0,1.708,Diorite_09,3,09,6,2,1.708,0.134444444,-0.242222222,1,0,0,1.688,Diorite_rect,3,1.688,1,0,0,0,0,1,,,,,,,,,,,,,
58b2338a898c2e0001a5ca56,SCN,2024-06-21_10h49.34.471,LearnStrategy,2023.2.3,Linux x86_64,58.2072177,9,1,2,0.072222222,0.393333333,1,0,0,2.052,Diorite_02,3,02,6,5,2.052,0.107777778,-0.394444444,1,0,0,2.05,Peridotite_rect,7,2.05,0,1,0,1,0,1,,,,,,,,,,,,,
58b2338a898c2e0001a5ca56,SCN,2024-06-21_10h49.34.471,LearnStrategy,2023.2.3,Linux x86_64,58.2072177,9,1,3,0.374444444,0.398888889,1,0,0,1.652,Pegmatite_03,6,03,6,7,1.652,-0.177777778,-0.421111111,1,0,0,2.666,Pegmatite_rect,6,2.666,1,2,0,2,0,1,,,,,,,,,,,,,
58b2338a898c2e0001a5ca56,SCN,2024-06-21_10h49.34.471,LearnStrategy,2023.2.3,Linux x86_64,58.2072177,9,1,4,0.242222222,0.404444444,1,0,0,1.401,Basalt_05,2,05,6,6,1.401,-0.15,-0.264444444,1,0,0,2.158,Basalt_rect,2,2.158,1,3,0,3,0,1,,,,,,,,,,,,,
58b2338a898c2e0001a5ca56,SCN,2024-06-21_10h49.34.471,LearnStrategy,2023.2.3,Linux x86_64,58.2072177,9,1,5,-0.391111111,0.09,1,0,0,1.647,Basalt_06,2,06,4,2,1.647,-0.118888889,-0.263333333,1,0,0,1.728,Basalt_rect,2,1.728,1,4,0,4,0,1,,,,,,,,,,,,,
58b2338a898c2e0001a5ca56,SCN,2024-06-21_10h49.34.471,LearnStrategy,2023.2.3,Linux x86_64,58.2072177,9,1,6,0.362222222,-0.102222222,1,0,0,3.883,Basalt_02,2,02,3,7,3.883,-0.13,-0.24,1,0,0,1.829,Basalt_rect,2,1.829,1,5,0,5,0,1,,,,,,,,,,,,,
58b2338a898c2e0001a5ca56,SCN,2024-06-21_10h49.34.471,LearnStrategy,2023.2.3,Linux x86_64,58.2072177,9,1,7,-0.241111111,-0.428888889,1,0,0,3.586,Basalt_09,2,09,1,3,3.586,-0.177777778,-0.262222222,1,0,0,2.92,Basalt_rect,2,2.92,1,6,0,6,0,1,,,,,,,,,,,,,
58b2338a898c2e0001a5ca56,SCN,2024-06-21_10h49.34.471,LearnStrategy,2023.2.3,Linux x86_64,58.2072177,9,1,8,0.224444444,-0.427777778,1,0,0,2.425,Peridotite_14,7,14,1,6,2.425,-0.33,-0.234444444,1,0,0,2.463,Andesite_rect,1,2.463,0,7,0,7,0,1,,,,,,,,,,,,,
58b2338a898c2e0001a5ca56,SCN,2024-06-21_10h49.34.471,LearnStrategy,2023.2.3,Linux x86_64,58.2072177,9,1,9,0.082222222,0.251111111,1,0,0,3.164,Peridotite_13,7,13,5,5,3.164,0.131111111,-0.387777778,1,0,0,1.896,Peridotite_rect,7,1.896,1,8,0,8,0,1,,,,,,,,,,,,,
58b2338a898c2e0001a5ca56,SCN,2024-06-21_10h49.34.471,LearnStrategy,2023.2.3,Linux x86_64,58.2072177,9,1,10,0.082222222,-0.256666667,1,0,0,1.766,Diorite_14,3,14,2,5,1.766,0.082222222,-0.256666667,1,0,0,1.59,Diorite_rect,3,1.59,1,9,0,9,0,1,,,,,,,,,,,,,
58b2338a898c2e0001a5ca56,SCN,2024-06-21_10h49.34.471,LearnStrategy,2023.2.3,Linux x86_64,58.2072177,9,1,11,0.241111111,0.236666667,1,0,0,6.063,Pegmatite_08,6,08,5,6,6.063,-0.146666667,-0.393333333,1,0,0,4.377,Pegmatite_rect,6,4.377,1,10,0,10,0,1,,,,,,,,,,,,,
58b2338a898c2e0001a5ca56,SCN,2024-06-21_10h49.34.471,LearnStrategy,2023.2.3,Linux x86_64,58.2072177,9,1,12,0.1,-0.261111111,1,0,0,2.077,Diorite_14,3,14,2,5,2.077,0.1,-0.261111111,1,0,0,1.452,Diorite_rect,3,1.452,1,11,0,11,0,1,,,,,,,,,,,,,
58b2338a898c2e0001a5ca56,SCN,2024-06-21_10h49.34.471,LearnStrategy,2023.2.3,Linux x86_64,58.2072177,9,1,13,-0.232222222,-0.12,1,0,0,1.966,Andesite_04,1,04,3,3,1.966,0.375555556,-0.25,1,0,0,1.854,Gabbro_rect,4,1.854,0,12,0,12,0,1,,,,,,,,,,,,,
58b2338a898c2e0001a5ca56,SCN,2024-06-21_10h49.34.471,LearnStrategy,2023.2.3,Linux x86_64,58.2072177,9,1,14,-0.554444444,0.251111111,1,0,0,3.081,Pumice_02,8,02,5,1,3.081,0.374444444,-0.392222222,1,0,0,1.919,Pumice_rect,8,1.919,1,13,0,13,0,1,,,,,,,,,,,,,
58b2338a898c2e0001a5ca56,SCN,2024-06-21_10h49.34.471,LearnStrategy,2023.2.3,Linux x86_64,58.2072177,9,1,15,-0.39,0.396666667,1,0,0,1.329,Diorite_09,3,09,6,2,1.329,-0.371111111,-0.257777778,1,0,0,1.388,Andesite_rect,1,1.388,0,14,0,14,0,1,,,,,,,,,,,,,
58b2338a898c2e0001a5ca56,SCN,2024-06-21_10h49.34.471,LearnStrategy,2023.2.3,Linux x86_64,58.2072177,9,1,16,-0.243333333,0.406666667,1,0,0,1.772,Basalt_08,2,08,6,3,1.772,-0.128888889,-0.236666667,1,0,0,1.829,Basalt_rect,2,1.829,1,15,0,15,0,1,,,,,,,,,,,,,
58b2338a898c2e0001a5ca56,SCN,2024-06-21_10h49.34.471,LearnStrategy,2023.2.3,Linux x86_64,58.2072177,9,2,1,,,,,,,,6,11,,,,,,,,,,,1,5.41,0,,,,,,-0.394444444,-0.256666667,1,0,0,5.41,Andesite_rect,0,0,0,0,1,
58b2338a898c2e0001a5ca56,SCN,2024-06-21_10h49.34.471,LearnStrategy,2023.2.3,Linux x86_64,58.2072177,9,2,2,,,,,,,,4,12,,,,,,,,,,,4,3.257,1,,,,,,0.378888889,-0.257777778,1,0,0,3.257,Gabbro_rect,1,0,1,0,1,
58b2338a898c2e0001a5ca56,SCN,2024-06-21_10h49.34.471,LearnStrategy,2023.2.3,Linux x86_64,58.2072177,9,2,3,,,,,,,,7,08,,,,,,,,,,,6,3.283,0,,,,,,-0.078888889,-0.401111111,1,0,0,3.283,Pegmatite_rect,2,0,2,0,1,
58b2338a898c2e0001a5ca56,SCN,2024-06-21_10h49.34.471,LearnStrategy,2023.2.3,Linux x86_64,58.2072177,9,2,4,,,,,,,,5,06,,,,,,,,,,,5,1.626,1,,,,,,-0.373333333,-0.391111111,1,0,0,1.626,Obsidian_rect,3,0,3,0,1,
58b2338a898c2e0001a5ca56,SCN,2024-06-21_10h49.34.471,LearnStrategy,2023.2.3,Linux x86_64,58.2072177,9,2,5,,,,,,,,1,10,,,,,,,,,,,8,2.156,0,,,,,,0.412222222,-0.404444444,1,0,0,2.156,Pumice_rect,4,0,4,0,1,
58b2338a898c2e0001a5ca56,SCN,2024-06-21_10h49.34.471,LearnStrategy,2023.2.3,Linux x86_64,58.2072177,9,2,6,,,,,,,,8,14,,,,,,,,,,,8,0.969,1,,,,,,0.412222222,-0.404444444,1,0,0,0.969,Pumice_rect,5,0,5,0,1,
58b2338a898c2e0001a5ca56,SCN,2024-06-21_10h49.34.471,LearnStrategy,2023.2.3,Linux x86_64,58.2072177,9,2,7,,,,,,,,6,16,,,,,,,,,,,1,2.282,0,,,,,,-0.423333333,-0.255555556,1,0,0,2.282,Andesite_rect,6,0,6,0,1,
58b2338a898c2e0001a5ca56,SCN,2024-06-21_10h49.34.471,LearnStrategy,2023.2.3,Linux x86_64,58.2072177,9,2,8,,,,,,,,7,04,,,,,,,,,,,6,2.981,0,,,,,,-0.14,-0.391111111,1,0,0,2.981,Pegmatite_rect,7,0,7,0,1,
58b2338a898c2e0001a5ca56,SCN,2024-06-21_10h49.34.471,LearnStrategy,2023.2.3,Linux x86_64,58.2072177,9,2,9,,,,,,,,3,15,,,,,,,,,,,7,2.032,0,,,,,,0.141111111,-0.404444444,1,0,0,2.032,Peridotite_rect,8,0,8,0,1,
58b2338a898c2e0001a5ca56,SCN,2024-06-21_10h49.34.471,LearnStrategy,2023.2.3,Linux x86_64,58.2072177,9,2,10,,,,,,,,5,07,,,,,,,,,,,5,1.762,1,,,,,,-0.391111111,-0.39,1,0,0,1.762,Obsidian_rect,9,0,9,0,1,
58b2338a898c2e0001a5ca56,SCN,2024-06-21_10h49.34.471,LearnStrategy,2023.2.3,Linux x86_64,58.2072177,9,2,11,,,,,,,,1,09,,,,,,,,,,,4,2.518,0,,,,,,0.398888889,-0.234444444,1,0,0,2.518,Gabbro_rect,10,0,10,0,1,
58b2338a898c2e0001a5ca56,SCN,2024-06-21_10h49.34.471,LearnStrategy,2023.2.3,Linux x86_64,58.2072177,9,2,12,,,,,,,,2,11,,,,,,,,,,,8,1.643,0,,,,,,0.4,-0.401111111,1,0,0,1.643,Pumice_rect,11,0,11,0,1,
58b2338a898c2e0001a5ca56,SCN,2024-06-21_10h49.34.471,LearnStrategy,2023.2.3,Linux x86_64,58.2072177,9,2,13,,,,,,,,8,15,,,,,,,,,,,8,0.947,1,,,,,,0.4,-0.401111111,1,0,0,0.947,Pumice_rect,12,0,12,0,1,
58b2338a898c2e0001a5ca56,SCN,2024-06-21_10h49.34.471,LearnStrategy,2023.2.3,Linux x86_64,58.2072177,9,2,14,,,,,,,,3,07,,,,,,,,,,,3,3.432,1,,,,,,0.116666667,-0.255555556,1,0,0,3.432,Diorite_rect,13,0,13,0,1,
58b2338a898c2e0001a5ca56,SCN,2024-06-21_10h49.34.471,LearnStrategy,2023.2.3,Linux x86_64,58.2072177,9,2,15,,,,,,,,4,01,,,,,,,,,,,6,3.809,0,,,,,,-0.131111111,-0.397777778,1,0,0,3.809,Pegmatite_rect,14,0,14,0,1,
58b2338a898c2e0001a5ca56,SCN,2024-06-21_10h49.34.471,LearnStrategy,2023.2.3,Linux x86_64,58.2072177,9,2,16,,,,,,,,2,01,,,,,,,,,,,2,1.615,1,,,,,,-0.145555556,-0.24,1,0,0,1.615,Basalt_rect,15,0,15,0,1,
58b2338a898c2e0001a5ca56,SCN,2024-06-21_10h49.34.471,LearnStrategy,2023.2.3,Linux x86_64,58.2072177,,,,,,,,,,,,,,,,,,,,,,,,,,,,,,,,,,,,,,,,,,,0
58b2338a898c2e0001a5ca56,SCN,2024-06-21_10h49.34.471,LearnStrategy,2023.2.3,Linux x86_64,58.2072177,,,,,,,,,,,,,,,,,,,,,,,,,,,,,,,,,,,,,,,,,,,
58b2338a898c2e0001a5ca56,SCN,2024-06-21_10h49.34.471,LearnStrategy,2023.2.3,Linux x86_64,58.2072177,,,,,,,,,,,7,16,1,1,,,,,,,,,,,,,,,,,,,,,,,,,,,,,
58b2338a898c2e0001a5ca56,SCN,2024-06-21_10h49.34.471,LearnStrategy,2023.2.3,Linux x86_64,58.2072177,,,,,,,,,,,5,02,1,2,,,,,,,,,,,,,,,,,,,,,,,,,,,,,
58b2338a898c2e0001a5ca56,SCN,2024-06-21_10h49.34.471,LearnStrategy,2023.2.3,Linux x86_64,58.2072177,,,,,,,,,,,2,09,1,3,,,,,,,,,,,,,,,,,,,,,,,,,,,,,
58b2338a898c2e0001a5ca56,SCN,2024-06-21_10h49.34.471,LearnStrategy,2023.2.3,Linux x86_64,58.2072177,,,,,,,,,,,5,04,1,4,,,,,,,,,,,,,,,,,,,,,,,,,,,,,
58b2338a898c2e0001a5ca56,SCN,2024-06-21_10h49.34.471,LearnStrategy,2023.2.3,Linux x86_64,58.2072177,,,,,,,,,,,8,16,1,5,,,,,,,,,,,,,,,,,,,,,,,,,,,,,
58b2338a898c2e0001a5ca56,SCN,2024-06-21_10h49.34.471,LearnStrategy,2023.2.3,Linux x86_64,58.2072177,,,,,,,,,,,7,14,1,6,,,,,,,,,,,,,,,,,,,,,,,,,,,,,
58b2338a898c2e0001a5ca56,SCN,2024-06-21_10h49.34.471,LearnStrategy,2023.2.3,Linux x86_64,58.2072177,,,,,,,,,,,7,12,1,7,,,,,,,,,,,,,,,,,,,,,,,,,,,,,
58b2338a898c2e0001a5ca56,SCN,2024-06-21_10h49.34.471,LearnStrategy,2023.2.3,Linux x86_64,58.2072177,,,,,,,,,,,3,10,1,8,,,,,,,,,,,,,,,,,,,,,,,,,,,,,
58b2338a898c2e0001a5ca56,SCN,2024-06-21_10h49.34.471,LearnStrategy,2023.2.3,Linux x86_64,58.2072177,,,,,,,,,,,5,05,2,1,,,,,,,,,,,,,,,,,,,,,,,,,,,,,
58b2338a898c2e0001a5ca56,SCN,2024-06-21_10h49.34.471,LearnStrategy,2023.2.3,Linux x86_64,58.2072177,,,,,,,,,,,4,09,2,2,,,,,,,,,,,,,,,,,,,,,,,,,,,,,
58b2338a898c2e0001a5ca56,SCN,2024-06-21_10h49.34.471,LearnStrategy,2023.2.3,Linux x86_64,58.2072177,,,,,,,,,,,4,11,2,3,,,,,,,,,,,,,,,,,,,,,,,,,,,,,
58b2338a898c2e0001a5ca56,SCN,2024-06-21_10h49.34.471,LearnStrategy,2023.2.3,Linux x86_64,58.2072177,,,,,,,,,,,4,05,2,4,,,,,,,,,,,,,,,,,,,,,,,,,,,,,
58b2338a898c2e0001a5ca56,SCN,2024-06-21_10h49.34.471,LearnStrategy,2023.2.3,Linux x86_64,58.2072177,,,,,,,,,,,3,14,2,5,,,,,,,,,,,,,,,,,,,,,,,,,,,,,
58b2338a898c2e0001a5ca56,SCN,2024-06-21_10h49.34.471,LearnStrategy,2023.2.3,Linux x86_64,58.2072177,,,,,,,,,,,8,13,2,6,,,,,,,,,,,,,,,,,,,,,,,,,,,,,
58b2338a898c2e0001a5ca56,SCN,2024-06-21_10h49.34.471,LearnStrategy,2023.2.3,Linux x86_64,58.2072177,,,,,,,,,,,4,03,2,7,,,,,,,,,,,,,,,,,,,,,,,,,,,,,
58b2338a898c2e0001a5ca56,SCN,2024-06-21_10h49.34.471,LearnStrategy,2023.2.3,Linux x86_64,58.2072177,,,,,,,,,,,1,11,2,8,,,,,,,,,,,,,,,,,,,,,,,,,,,,,
58b2338a898c2e0001a5ca56,SCN,2024-06-21_10h49.34.471,LearnStrategy,2023.2.3,Linux x86_64,58.2072177,,,,,,,,,,,7,06,3,1,,,,,,,,,,,,,,,,,,,,,,,,,,,,,
58b2338a898c2e0001a5ca56,SCN,2024-06-21_10h49.34.471,LearnStrategy,2023.2.3,Linux x86_64,58.2072177,,,,,,,,,,,6,05,3,2,,,,,,,,,,,,,,,,,,,,,,,,,,,,,
58b2338a898c2e0001a5ca56,SCN,2024-06-21_10h49.34.471,LearnStrategy,2023.2.3,Linux x86_64,58.2072177,,,,,,,,,,,1,04,3,3,,,,,,,,,,,,,,,,,,,,,,,,,,,,,
58b2338a898c2e0001a5ca56,SCN,2024-06-21_10h49.34.471,LearnStrategy,2023.2.3,Linux x86_64,58.2072177,,,,,,,,,,,8,09,3,4,,,,,,,,,,,,,,,,,,,,,,,,,,,,,
58b2338a898c2e0001a5ca56,SCN,2024-06-21_10h49.34.471,LearnStrategy,2023.2.3,Linux x86_64,58.2072177,,,,,,,,,,,1,02,3,5,,,,,,,,,,,,,,,,,,,,,,,,,,,,,
58b2338a898c2e0001a5ca56,SCN,2024-06-21_10h49.34.471,LearnStrategy,2023.2.3,Linux x86_64,58.2072177,,,,,,,,,,,4,08,3,6,,,,,,,,,,,,,,,,,,,,,,,,,,,,,
58b2338a898c2e0001a5ca56,SCN,2024-06-21_10h49.34.471,LearnStrategy,2023.2.3,Linux x86_64,58.2072177,,,,,,,,,,,2,02,3,7,,,,,,,,,,,,,,,,,,,,,,,,,,,,,
58b2338a898c2e0001a5ca56,SCN,2024-06-21_10h49.34.471,LearnStrategy,2023.2.3,Linux x86_64,58.2072177,,,,,,,,,,,2,16,3,8,,,,,,,,,,,,,,,,,,,,,,,,,,,,,
58b2338a898c2e0001a5ca56,SCN,2024-06-21_10h49.34.471,LearnStrategy,2023.2.3,Linux x86_64,58.2072177,,,,,,,,,,,6,07,4,1,,,,,,,,,,,,,,,,,,,,,,,,,,,,,
58b2338a898c2e0001a5ca56,SCN,2024-06-21_10h49.34.471,LearnStrategy,2023.2.3,Linux x86_64,58.2072177,,,,,,,,,,,2,06,4,2,,,,,,,,,,,,,,,,,,,,,,,,,,,,,
58b2338a898c2e0001a5ca56,SCN,2024-06-21_10h49.34.471,LearnStrategy,2023.2.3,Linux x86_64,58.2072177,,,,,,,,,,,1,06,4,3,,,,,,,,,,,,,,,,,,,,,,,,,,,,,
58b2338a898c2e0001a5ca56,SCN,2024-06-21_10h49.34.471,LearnStrategy,2023.2.3,Linux x86_64,58.2072177,,,,,,,,,,,5,11,4,4,,,,,,,,,,,,,,,,,,,,,,,,,,,,,
58b2338a898c2e0001a5ca56,SCN,2024-06-21_10h49.34.471,LearnStrategy,2023.2.3,Linux x86_64,58.2072177,,,,,,,,,,,7,05,4,5,,,,,,,,,,,,,,,,,,,,,,,,,,,,,
58b2338a898c2e0001a5ca56,SCN,2024-06-21_10h49.34.471,LearnStrategy,2023.2.3,Linux x86_64,58.2072177,,,,,,,,,,,8,05,4,6,,,,,,,,,,,,,,,,,,,,,,,,,,,,,
58b2338a898c2e0001a5ca56,SCN,2024-06-21_10h49.34.471,LearnStrategy,2023.2.3,Linux x86_64,58.2072177,,,,,,,,,,,3,12,4,7,,,,,,,,,,,,,,,,,,,,,,,,,,,,,
58b2338a898c2e0001a5ca56,SCN,2024-06-21_10h49.34.471,LearnStrategy,2023.2.3,Linux x86_64,58.2072177,,,,,,,,,,,6,10,4,8,,,,,,,,,,,,,,,,,,,,,,,,,,,,,
58b2338a898c2e0001a5ca56,SCN,2024-06-21_10h49.34.471,LearnStrategy,2023.2.3,Linux x86_64,58.2072177,,,,,,,,,,,8,02,5,1,,,,,,,,,,,,,,,,,,,,,,,,,,,,,
58b2338a898c2e0001a5ca56,SCN,2024-06-21_10h49.34.471,LearnStrategy,2023.2.3,Linux x86_64,58.2072177,,,,,,,,,,,6,12,5,2,,,,,,,,,,,,,,,,,,,,,,,,,,,,,
58b2338a898c2e0001a5ca56,SCN,2024-06-21_10h49.34.471,LearnStrategy,2023.2.3,Linux x86_64,58.2072177,,,,,,,,,,,3,06,5,3,,,,,,,,,,,,,,,,,,,,,,,,,,,,,
58b2338a898c2e0001a5ca56,SCN,2024-06-21_10h49.34.471,LearnStrategy,2023.2.3,Linux x86_64,58.2072177,,,,,,,,,,,1,01,5,4,,,,,,,,,,,,,,,,,,,,,,,,,,,,,
58b2338a898c2e0001a5ca56,SCN,2024-06-21_10h49.34.471,LearnStrategy,2023.2.3,Linux x86_64,58.2072177,,,,,,,,,,,7,13,5,5,,,,,,,,,,,,,,,,,,,,,,,,,,,,,
58b2338a898c2e0001a5ca56,SCN,2024-06-21_10h49.34.471,LearnStrategy,2023.2.3,Linux x86_64,58.2072177,,,,,,,,,,,6,08,5,6,,,,,,,,,,,,,,,,,,,,,,,,,,,,,
58b2338a898c2e0001a5ca56,SCN,2024-06-21_10h49.34.471,LearnStrategy,2023.2.3,Linux x86_64,58.2072177,,,,,,,,,,,1,05,5,7,,,,,,,,,,,,,,,,,,,,,,,,,,,,,
58b2338a898c2e0001a5ca56,SCN,2024-06-21_10h49.34.471,LearnStrategy,2023.2.3,Linux x86_64,58.2072177,,,,,,,,,,,4,14,5,8,,,,,,,,,,,,,,,,,,,,,,,,,,,,,
58b2338a898c2e0001a5ca56,SCN,2024-06-21_10h49.34.471,LearnStrategy,2023.2.3,Linux x86_64,58.2072177,,,,,,,,,,,5,12,6,1,,,,,,,,,,,,,,,,,,,,,,,,,,,,,
58b2338a898c2e0001a5ca56,SCN,2024-06-21_10h49.34.471,LearnStrategy,2023.2.3,Linux x86_64,58.2072177,,,,,,,,,,,3,09,6,2,,,,,,,,,,,,,,,,,,,,,,,,,,,,,
58b2338a898c2e0001a5ca56,SCN,2024-06-21_10h49.34.471,LearnStrategy,2023.2.3,Linux x86_64,58.2072177,,,,,,,,,,,2,08,6,3,,,,,,,,,,,,,,,,,,,,,,,,,,,,,
58b2338a898c2e0001a5ca56,SCN,2024-06-21_10h49.34.471,LearnStrategy,2023.2.3,Linux x86_64,58.2072177,,,,,,,,,,,5,09,6,4,,,,,,,,,,,,,,,,,,,,,,,,,,,,,
58b2338a898c2e0001a5ca56,SCN,2024-06-21_10h49.34.471,LearnStrategy,2023.2.3,Linux x86_64,58.2072177,,,,,,,,,,,3,02,6,5,,,,,,,,,,,,,,,,,,,,,,,,,,,,,
58b2338a898c2e0001a5ca56,SCN,2024-06-21_10h49.34.471,LearnStrategy,2023.2.3,Linux x86_64,58.2072177,,,,,,,,,,,2,05,6,6,,,,,,,,,,,,,,,,,,,,,,,,,,,,,
58b2338a898c2e0001a5ca56,SCN,2024-06-21_10h49.34.471,LearnStrategy,2023.2.3,Linux x86_64,58.2072177,,,,,,,,,,,6,03,6,7,,,,,,,,,,,,,,,,,,,,,,,,,,,,,
58b2338a898c2e0001a5ca56,SCN,2024-06-21_10h49.34.471,LearnStrategy,2023.2.3,Linux x86_64,58.2072177,,,,,,,,,,,8,04,6,8,,,,,,,,,,,,,,,,,,,,,,,,,,,,,