participant,condition,date,expName,psychopyVersion,OS,frameRate,block,phase,trial,learn_mouse_2.x,learn_mouse_2.y,learn_mouse_2.leftButton,learn_mouse_2.midButton,learn_mouse_2.rightButton,learn_mouse_2.time,learn_mouse_2.clicked_name,cat,token,row,col,t_select,cat_mouse_l.x,cat_mouse_l.y,cat_mouse_l.leftButton,cat_mouse_l.midButton,cat_mouse_l.rightButton,cat_mouse_l.time,cat_mouse_l.clicked_name,resp,t_resp,corr,train_trials.thisRepN,train_trials.thisTrialN,train_trials.thisN,train_trials.thisIndex,train_trials.ran,cat_mouse_t.x,cat_mouse_t.y,cat_mouse_t.leftButton,cat_mouse_t.midButton,cat_mouse_t.rightButton,cat_mouse_t.time,cat_mouse_t.clicked_name,test_trials.thisRepN,test_trials.thisTrialN,test_trials.thisN,test_trials.thisIndex,test_trials.ran,Bonus
59048309c4ef1300011b1085,TCR,2024-06-24_13h46.49.317,LearnStrategy,2023.2.3,Win32,59.17159763,,,,,,,,,,,,,,,,,,,,,,,,,,,,,,,,,,,,,,,,,,,
59048309c4ef1300011b1085,TCR,2024-06-24_13h46.49.317,LearnStrategy,2023.2.3,Win32,59.17159763,1,1,1,0.049074102,0.001851859,1,0,0,2.8914,rock_grid_rect_2,8,16,-1,-1,2.891,-0.175000014,-0.229629658,1,0,0,5.6226,Basalt_rect,2,5.623,0,0,0,0,0,1,,,,,,,,,,,,,
59048309c4ef1300011b1085,TCR,2024-06-24_13h46.49.317,LearnStrategy,2023.2.3,Win32,59.17159763,1,1,2,0.012037065,-0.012962977,1,0,0,1.182,rock_grid_rect_2,6,11,-1,-1,1.182,0.368518547,-0.268518519,1,0,0,1.628,Gabbro_rect,4,1.628,0,1,0,1,0,1,,,,,,,,,,,,,
59048309c4ef1300011b1085,TCR,2024-06-24_13h46.49.317,LearnStrategy,2023.2.3,Win32,59.17159763,1,1,3,0.055555556,0.01944443,1,0,0,1.1825,rock_grid_rect_2,4,11,-1,-1,1.183,0.358333305,-0.24537037,1,0,0,3.8458,Gabbro_rect,4,3.846,1,2,0,2,0,1,,,,,,,,,,,,,
59048309c4ef1300011b1085,TCR,2024-06-24_13h46.49.317,LearnStrategy,2023.2.3,Win32,59.17159763,1,1,4,0.042592578,0.01666666,1,0,0,0.8818,rock_grid_rect_2,5,05,-1,-1,0.882,-0.088888875,-0.267592607,1,0,0,1.7952,Basalt_rect,2,1.795,0,3,0,3,0,1,,,,,,,,,,,,,
59048309c4ef1300011b1085,TCR,2024-06-24_13h46.49.317,LearnStrategy,2023.2.3,Win32,59.17159763,1,1,5,0.026851866,0.013888889,1,0,0,1.049,rock_grid_rect_2,2,16,-1,-1,1.049,0.359259288,-0.415740755,1,0,0,2.212,Pumice_rect,8,2.212,0,4,0,4,0,1,,,,,,,,,,,,,
59048309c4ef1300011b1085,TCR,2024-06-24_13h46.49.317,LearnStrategy,2023.2.3,Win32,59.17159763,1,1,6,0.00462963,-0.009259259,1,0,0,1.3992,rock_grid_rect_2,3,14,-1,-1,1.399,-0.237962935,-0.401851866,1,0,0,2.362,Pegmatite_rect,6,2.362,0,5,0,5,0,1,,,,,,,,,,,,,
59048309c4ef1300011b1085,TCR,2024-06-24_13h46.49.317,LearnStrategy,2023.2.3,Win32,59.17159763,1,1,7,0.042592578,-0.001851859,1,0,0,0.6819,rock_grid_rect_2,7,13,-1,-1,0.682,-0.427777785,-0.248148176,1,0,0,2.1287,Andesite_rect,1,2.129,0,6,0,6,0,1,,,,,,,,,,,,,
59048309c4ef1300011b1085,TCR,2024-06-24_13h46.49.317,LearnStrategy,2023.2.3,Win32,59.17159763,1,1,8,0.027777778,0.001851859,1,0,0,1.116,rock_grid_rect_2,1,10,-1,-1,1.116,-0.167592578,-0.396296325,1,0,0,2.8962,Pegmatite_rect,6,2.896,0,7,0,7,0,1,,,,,,,,,,,,,
59048309c4ef1300011b1085,TCR,2024-06-24_13h46.49.317,LearnStrategy,2023.2.3,Win32,59.17159763,1,1,9,0.061111097,-0.01203703,1,0,0,0.6318,rock_grid_rect_2,5,04,-1,-1,0.632,-0.328703704,-0.380555541,1,0,0,2.9798,Obsidian_rect,5,2.98,1,8,0,8,0,1,,,,,,,,,,,,,
59048309c4ef1300011b1085,TCR,2024-06-24_13h46.49.317,LearnStrategy,2023.2.3,Win32,59.17159763,1,1,10,0.067592621,0.01203703,1,0,0,0.8818,rock_grid_rect_2,4,13,-1,-1,0.882,0.137037065,-0.39444443,1,0,0,4.4629,Peridotite_rect,7,4.463,0,9,0,9,0,1,,,,,,,,,,,,,
59048309c4ef1300011b1085,TCR,2024-06-24_13h46.49.317,LearnStrategy,2023.2.3,Win32,59.17159763,1,1,11,0.042592578,-0.015740748,1,0,0,1.0154,rock_grid_rect_2,1,03,-1,-1,1.015,-0.22592594,-0.271296325,1,0,0,1.4121,Basalt_rect,2,1.412,0,10,0,10,0,1,,,,,,,,,,,,,
59048309c4ef1300011b1085,TCR,2024-06-24_13h46.49.317,LearnStrategy,2023.2.3,Win32,59.17159763,1,1,12,0.005555541,0,1,0,0,0.9331,rock_grid_rect_2,6,16,-1,-1,0.933,0.128703718,-0.248148176,1,0,0,1.263,Diorite_rect,3,1.263,0,11,0,11,0,1,,,,,,,,,,,,,
59048309c4ef1300011b1085,TCR,2024-06-24_13h46.49.317,LearnStrategy,2023.2.3,Win32,59.17159763,1,1,13,0.031481496,0.005555541,1,0,0,0.7323,rock_grid_rect_2,2,09,-1,-1,0.732,0.202777792,-0.412037037,1,0,0,4.5125,Peridotite_rect,7,4.513,0,12,0,12,0,1,,,,,,,,,,,,,
59048309c4ef1300011b1085,TCR,2024-06-24_13h46.49.317,LearnStrategy,2023.2.3,Win32,59.17159763,1,1,14,0.044444473,0.011111118,1,0,0,0.7642,rock_grid_rect_2,8,04,-1,-1,0.764,0.349074046,-0.392592607,1,0,0,2.0291,Pumice_rect,8,2.029,1,13,0,13,0,1,,,,,,,,,,,,,
59048309c4ef1300011b1085,TCR,2024-06-24_13h46.49.317,LearnStrategy,2023.2.3,Win32,59.17159763,1,1,15,-0.001851824,0,1,0,0,0.7319,rock_grid_rect_2,7,07,-1,-1,0.732,0.125925912,-0.247222265,1,0,0,2.0455,Diorite_rect,3,2.045,0,14,0,14,0,1,,,,,,,,,,,,,
59048309c4ef1300011b1085,TCR,2024-06-24_13h46.49.317,LearnStrategy,2023.2.3,Win32,59.17159763,1,1,16,0.084259245,-0.0074074,1,0,0,0.8491,rock_grid_rect_2,3,11,-1,-1,0.849,0.10555557,-0.409259302,1,0,0,2.7789,Peridotite_rect,7,2.779,0,15,0,15,0,1,,,,,,,,,,,,,
59048309c4ef1300011b1085,TCR,2024-06-24_13h46.49.317,LearnStrategy,2023.2.3,Win32,59.17159763,1,2,1,,,,,,,,1,06,,,,,,,,,,,3,6.58,0,,,,,,0.114814829,-0.240740741,1,0,0,6.5796,Diorite_rect,0,0,0,0,1,
59048309c4ef1300011b1085,TCR,2024-06-24_13h46.49.317,LearnStrategy,2023.2.3,Win32,59.17159763,1,2,2,,,,,,,,5,12,,,,,,,,,,,5,1.578,1,,,,,,-0.39444443,-0.387962977,1,0,0,1.5777,Obsidian_rect,1,0,1,0,1,
59048309c4ef1300011b1085,TCR,2024-06-24_13h46.49.317,LearnStrategy,2023.2.3,Win32,59.17159763,1,2,3,,,,,,,,4,08,,,,,,,,,,,2,3.096,0,,,,,,-0.075925898,-0.270370413,1,0,0,3.0958,Basalt_rect,2,0,2,0,1,
59048309c4ef1300011b1085,TCR,2024-06-24_13h46.49.317,LearnStrategy,2023.2.3,Win32,59.17159763,1,2,4,,,,,,,,5,07,,,,,,,,,,,2,4.513,0,,,,,,-0.162962949,-0.253703718,1,0,0,4.5133,Basalt_rect,3,0,3,0,1,
59048309c4ef1300011b1085,TCR,2024-06-24_13h46.49.317,LearnStrategy,2023.2.3,Win32,59.17159763,1,2,5,,,,,,,,2,02,,,,,,,,,,,3,3.979,0,,,,,,0.152777778,-0.255555541,1,0,0,3.9794,Diorite_rect,4,0,4,0,1,
59048309c4ef1300011b1085,TCR,2024-06-24_13h46.49.317,LearnStrategy,2023.2.3,Win32,59.17159763,1,2,6,,,,,,,,3,06,,,,,,,,,,,7,2.079,0,,,,,,0.059259273,-0.400000042,1,0,0,2.0787,Peridotite_rect,5,0,5,0,1,
59048309c4ef1300011b1085,TCR,2024-06-24_13h46.49.317,LearnStrategy,2023.2.3,Win32,59.17159763,1,2,7,,,,,,,,2,01,,,,,,,,,,,2,2.345,1,,,,,,-0.160185143,-0.247222265,1,0,0,2.345,Basalt_rect,6,0,6,0,1,
59048309c4ef1300011b1085,TCR,2024-06-24_13h46.49.317,LearnStrategy,2023.2.3,Win32,59.17159763,1,2,8,,,,,,,,3,15,,,,,,,,,,,7,1.478,0,,,,,,0.127777806,-0.388888889,1,0,0,1.4781,Peridotite_rect,7,0,7,0,1,
59048309c4ef1300011b1085,TCR,2024-06-24_13h46.49.317,LearnStrategy,2023.2.3,Win32,59.17159763,1,2,9,,,,,,,,8,08,,,,,,,,,,,8,2.395,1,,,,,,0.404629601,-0.40370369,1,0,0,2.3949,Pumice_rect,8,0,8,0,1,
59048309c4ef1300011b1085,TCR,2024-06-24_13h46.49.317,LearnStrategy,2023.2.3,Win32,59.17159763,1,2,10,,,,,,,,7,02,,,,,,,,,,,4,2.345,0,,,,,,0.353703675,-0.236111111,1,0,0,2.3448,Gabbro_rect,9,0,9,0,1,
59048309c4ef1300011b1085,TCR,2024-06-24_13h46.49.317,LearnStrategy,2023.2.3,Win32,59.17159763,1,2,11,,,,,,,,6,08,,,,,,,,,,,2,3.796,0,,,,,,-0.162037037,-0.239814829,1,0,0,3.7957,Basalt_rect,10,0,10,0,1,
59048309c4ef1300011b1085,TCR,2024-06-24_13h46.49.317,LearnStrategy,2023.2.3,Win32,59.17159763,1,2,12,,,,,,,,8,15,,,,,,,,,,,8,1.278,1,,,,,,0.330555527,-0.405555584,1,0,0,1.278,Pumice_rect,11,0,11,0,1,
59048309c4ef1300011b1085,TCR,2024-06-24_13h46.49.317,LearnStrategy,2023.2.3,Win32,59.17159763,1,2,13,,,,,,,,7,14,,,,,,,,,,,1,1.078,0,,,,,,-0.361111111,-0.247222265,1,0,0,1.0784,Andesite_rect,12,0,12,0,1,
59048309c4ef1300011b1085,TCR,2024-06-24_13h46.49.317,LearnStrategy,2023.2.3,Win32,59.17159763,1,2,14,,,,,,,,1,05,,,,,,,,,,,7,1.128,0,,,,,,0.121296282,-0.381481524,1,0,0,1.1284,Peridotite_rect,13,0,13,0,1,
59048309c4ef1300011b1085,TCR,2024-06-24_13h46.49.317,LearnStrategy,2023.2.3,Win32,59.17159763,1,2,15,,,,,,,,6,15,,,,,,,,,,,2,4.263,0,,,,,,-0.16851849,-0.263888889,1,0,0,4.2628,Basalt_rect,14,0,14,0,1,
59048309c4ef1300011b1085,TCR,2024-06-24_13h46.49.317,LearnStrategy,2023.2.3,Win32,59.17159763,1,2,16,,,,,,,,4,16,,,,,,,,,,,4,2.062,1,,,,,,0.42777775,-0.247222265,1,0,0,2.0621,Gabbro_rect,15,0,15,0,1,
59048309c4ef1300011b1085,TCR,2024-06-24_13h46.49.317,LearnStrategy,2023.2.3,Win32,59.17159763,2,1,1,0.026851866,0.01203703,1,0,0,1.2995,rock_grid_rect_2,3,09,-1,-1,1.3,0.126851894,-0.228703746,1,0,0,1.088,Diorite_rect,3,1.088,1,0,0,0,0,1,,,,,,,,,,,,,
59048309c4ef1300011b1085,TCR,2024-06-24_13h46.49.317,LearnStrategy,2023.2.3,Win32,59.17159763,2,1,2,0.045370384,0.006481489,1,0,0,1.1252,rock_grid_rect_2,3,13,-1,-1,1.125,0.099074116,-0.266666695,1,0,0,0.9514,Diorite_rect,3,0.951,1,1,0,1,0,1,,,,,,,,,,,,,
59048309c4ef1300011b1085,TCR,2024-06-24_13h46.49.317,LearnStrategy,2023.2.3,Win32,59.17159763,2,1,3,0.040740755,0.006481489,1,0,0,0.8987,rock_grid_rect_2,6,16,-1,-1,0.899,-0.151851866,-0.243518547,1,0,0,1.7121,Basalt_rect,2,1.712,0,2,0,2,0,1,,,,,,,,,,,,,
59048309c4ef1300011b1085,TCR,2024-06-24_13h46.49.317,LearnStrategy,2023.2.3,Win32,59.17159763,2,1,4,0.074074074,-0.006481489,1,0,0,1.0326,rock_grid_rect_2,3,13,-1,-1,1.033,0.086111139,-0.24537037,1,0,0,0.978,Diorite_rect,3,0.978,1,3,0,3,0,1,,,,,,,,,,,,,
59048309c4ef1300011b1085,TCR,2024-06-24_13h46.49.317,LearnStrategy,2023.2.3,Win32,59.17159763,2,1,5,0.021296325,0.01203703,1,0,0,0.9829,rock_grid_rect_2,6,11,-1,-1,0.983,0.098148134,-0.414814843,1,0,0,1.1128,Peridotite_rect,7,1.113,0,4,0,4,0,1,,,,,,,,,,,,,
59048309c4ef1300011b1085,TCR,2024-06-24_13h46.49.317,LearnStrategy,2023.2.3,Win32,59.17159763,2,1,6,0.021296325,-0.001851859,1,0,0,0.7488,rock_grid_rect_2,1,14,-1,-1,0.749,0.132407436,-0.256481524,1,0,0,1.3787,Diorite_rect,3,1.379,0,5,0,5,0,1,,,,,,,,,,,,,
59048309c4ef1300011b1085,TCR,2024-06-24_13h46.49.317,LearnStrategy,2023.2.3,Win32,59.17159763,2,1,7,0.056481467,-0.001851859,1,0,0,0.7649,rock_grid_rect_2,2,05,-1,-1,0.765,0.330555527,-0.233333376,1,0,0,1.6276,Gabbro_rect,4,1.628,0,6,0,6,0,1,,,,,,,,,,,,,
59048309c4ef1300011b1085,TCR,2024-06-24_13h46.49.317,LearnStrategy,2023.2.3,Win32,59.17159763,2,1,8,0.008333347,-0.011111118,1,0,0,0.7327,rock_grid_rect_2,1,02,-1,-1,0.733,0.107407393,-0.252777806,1,0,0,1.0781,Diorite_rect,3,1.078,0,7,0,7,0,1,,,,,,,,,,,,,
59048309c4ef1300011b1085,TCR,2024-06-24_13h46.49.317,LearnStrategy,2023.2.3,Win32,59.17159763,2,1,9,0.068518533,-0.022222236,1,0,0,0.7158,rock_grid_rect_2,7,12,-1,-1,0.716,0.080555598,-0.257407436,1,0,0,1.3955,Diorite_rect,3,1.395,0,8,0,8,0,1,,,,,,,,,,,,,
59048309c4ef1300011b1085,TCR,2024-06-24_13h46.49.317,LearnStrategy,2023.2.3,Win32,59.17159763,2,1,10,0.025000042,0,1,0,0,1.116,rock_grid_rect_2,4,14,-1,-1,1.116,-0.182407379,-0.235185199,1,0,0,1.7949,Basalt_rect,2,1.795,0,9,0,9,0,1,,,,,,,,,,,,,
59048309c4ef1300011b1085,TCR,2024-06-24_13h46.49.317,LearnStrategy,2023.2.3,Win32,59.17159763,2,1,11,0.01944443,-0.009259259,1,0,0,0.748,rock_grid_rect_2,2,09,-1,-1,0.748,-0.302777785,-0.265740783,1,0,0,1.6951,Andesite_rect,1,1.695,0,10,0,10,0,1,,,,,,,,,,,,,
59048309c4ef1300011b1085,TCR,2024-06-24_13h46.49.317,LearnStrategy,2023.2.3,Win32,59.17159763,2,1,12,-0.011111083,0.011111118,1,0,0,0.8826,rock_grid_rect_2,5,10,-1,-1,0.883,-0.40370369,-0.39444443,1,0,0,1.2286,Obsidian_rect,5,1.229,1,11,0,11,0,1,,,,,,,,,,,,,
59048309c4ef1300011b1085,TCR,2024-06-24_13h46.49.317,LearnStrategy,2023.2.3,Win32,59.17159763,2,1,13,0.013888889,0.000925912,1,0,0,0.9827,rock_grid_rect_2,7,07,-1,-1,0.983,0.175000014,-0.234259288,1,0,0,1.1615,Diorite_rect,3,1.161,0,12,0,12,0,1,,,,,,,,,,,,,
59048309c4ef1300011b1085,TCR,2024-06-24_13h46.49.317,LearnStrategy,2023.2.3,Win32,59.17159763,2,1,14,0.029629672,-0.017592607,1,0,0,0.7148,rock_grid_rect_2,7,16,-1,-1,0.715,0.147222236,-0.409259302,1,0,0,1.9965,Peridotite_rect,7,1.997,1,13,0,13,0,1,,,,,,,,,,,,,
59048309c4ef1300011b1085,TCR,2024-06-24_13h46.49.317,LearnStrategy,2023.2.3,Win32,59.17159763,2,1,15,-0.036111125,0.021296289,1,0,0,0.7486,rock_grid_rect_2,4,11,-1,-1,0.749,0.341666751,-0.242592635,1,0,0,1.3111,Gabbro_rect,4,1.311,1,14,0,14,0,1,,,,,,,,,,,,,
59048309c4ef1300011b1085,TCR,2024-06-24_13h46.49.317,LearnStrategy,2023.2.3,Win32,59.17159763,2,1,16,0.044444473,0.015740748,1,0,0,0.8819,rock_grid_rect_2,1,01,-1,-1,0.882,0.062037079,-0.243518547,1,0,0,1.2454,Diorite_rect,3,1.245,0,15,0,15,0,1,,,,,,,,,,,,,
59048309c4ef1300011b1085,TCR,2024-06-24_13h46.49.317,LearnStrategy,2023.2.3,Win32,59.17159763,2,2,1,,,,,,,,1,16,,,,,,,,,,,1,4.096,1,,,,,,-0.353703711,-0.259259259,1,0,0,4.0955,Andesite_rect,0,0,0,0,1,
59048309c4ef1300011b1085,TCR,2024-06-24_13h46.49.317,LearnStrategy,2023.2.3,Win32,59.17159763,2,2,2,,,,,,,,7,04,,,,,,,,,,,1,3.173,0,,,,,,-0.361111111,-0.229629658,1,0,0,3.1734,Andesite_rect,1,0,1,0,1,
59048309c4ef1300011b1085,TCR,2024-06-24_13h46.49.317,LearnStrategy,2023.2.3,Win32,59.17159763,2,2,3,,,,,,,,3,12,,,,,,,,,,,3,0.827,1,,,,,,0.20185188,-0.252777806,1,0,0,0.8269,Diorite_rect,2,0,2,0,1,
59048309c4ef1300011b1085,TCR,2024-06-24_13h46.49.317,LearnStrategy,2023.2.3,Win32,59.17159763,2,2,4,,,,,,,,5,06,,,,,,,,,,,5,2.195,1,,,,,,-0.349074081,-0.384259259,1,0,0,2.1945,Obsidian_rect,3,0,3,0,1,
59048309c4ef1300011b1085,TCR,2024-06-24_13h46.49.317,LearnStrategy,2023.2.3,Win32,59.17159763,2,2,5,,,,,,,,2,08,,,,,,,,,,,2,1.695,1,,,,,,-0.140740712,-0.243518547,1,0,0,1.6946,Basalt_rect,4,0,4,0,1,
59048309c4ef1300011b1085,TCR,2024-06-24_13h46.49.317,LearnStrategy,2023.2.3,Win32,59.17159763,2,2,6,,,,,,,,4,05,,,,,,,,,,,4,2.19,1,,,,,,0.399074131,-0.258333347,1,0,0,2.1898,Gabbro_rect,5,0,5,0,1,
59048309c4ef1300011b1085,TCR,2024-06-24_13h46.49.317,LearnStrategy,2023.2.3,Win32,59.17159763,2,2,7,,,,,,,,4,12,,,,,,,,,,,4,0.878,1,,,,,,0.336111139,-0.268518519,1,0,0,0.8777,Gabbro_rect,6,0,6,0,1,
59048309c4ef1300011b1085,TCR,2024-06-24_13h46.49.317,LearnStrategy,2023.2.3,Win32,59.17159763,2,2,8,,,,,,,,5,16,,,,,,,,,,,5,1.161,1,,,,,,-0.388888889,-0.382407436,1,0,0,1.1613,Obsidian_rect,7,0,7,0,1,
59048309c4ef1300011b1085,TCR,2024-06-24_13h46.49.317,LearnStrategy,2023.2.3,Win32,59.17159763,2,2,9,,,,,,,,3,07,,,,,,,,,,,3,1.745,1,,,,,,0.116666653,-0.259259259,1,0,0,1.7454,Diorite_rect,8,0,8,0,1,
59048309c4ef1300011b1085,TCR,2024-06-24_13h46.49.317,LearnStrategy,2023.2.3,Win32,59.17159763,2,2,10,,,,,,,,6,06,,,,,,,,,,,6,1.739,1,,,,,,-0.135185171,-0.418518561,1,0,0,1.739,Pegmatite_rect,9,0,9,0,1,
59048309c4ef1300011b1085,TCR,2024-06-24_13h46.49.317,LearnStrategy,2023.2.3,Win32,59.17159763,2,2,11,,,,,,,,2,04,,,,,,,,,,,4,4.329,0,,,,,,0.400925954,-0.262037065,1,0,0,4.3286,Gabbro_rect,10,0,10,0,1,
59048309c4ef1300011b1085,TCR,2024-06-24_13h46.49.317,LearnStrategy,2023.2.3,Win32,59.17159763,2,2,12,,,,,,,,1,07,,,,,,,,,,,3,1.273,0,,,,,,0.125925912,-0.258333347,1,0,0,1.2726,Diorite_rect,11,0,11,0,1,
59048309c4ef1300011b1085,TCR,2024-06-24_13h46.49.317,LearnStrategy,2023.2.3,Win32,59.17159763,2,2,13,,,,,,,,6,07,,,,,,,,,,,7,1.428,0,,,,,,0.102777764,-0.391666695,1,0,0,1.4278,Peridotite_rect,12,0,12,0,1,
59048309c4ef1300011b1085,TCR,2024-06-24_13h46.49.317,LearnStrategy,2023.2.3,Win32,59.17159763,2,2,14,,,,,,,,8,03,,,,,,,,,,,8,1.395,1,,,,,,0.373148176,-0.404629672,1,0,0,1.395,Pumice_rect,13,0,13,0,1,
59048309c4ef1300011b1085,TCR,2024-06-24_13h46.49.317,LearnStrategy,2023.2.3,Win32,59.17159763,2,2,15,,,,,,,,7,06,,,,,,,,,,,1,2.095,0,,,,,,-0.314814815,-0.242592635,1,0,0,2.0951,Andesite_rect,14,0,14,0,1,
59048309c4ef1300011b1085,TCR,2024-06-24_13h46.49.317,LearnStrategy,2023.2.3,Win32,59.17159763,2,2,16,,,,,,,,8,10,,,,,,,,,,,8,1.211,1,,,,,,0.338888945,-0.382407436,1,0,0,1.211,Pumice_rect,15,0,15,0,1,
59048309c4ef1300011b1085,TCR,2024-06-24_13h46.49.317,LearnStrategy,2023.2.3,Win32,59.17159763,3,1,1,-0.001851824,0.010185171,1,0,0,0.9992,rock_grid_rect_2,2,05,-1,-1,0.999,-0.108333305,-0.270370413,1,0,0,2.3804,Basalt_rect,2,2.38,1,0,0,0,0,1,,,,,,,,,,,,,
59048309c4ef1300011b1085,TCR,2024-06-24_13h46.49.317,LearnStrategy,2023.2.3,Win32,59.17159763,3,1,2,-0.000925912,0.0074074,1,0,0,1.0829,rock_grid_rect_2,1,11,-1,-1,1.083,0.070370356,-0.416666667,1,0,0,1.478,Peridotite_rect,7,1.478,0,1,0,1,0,1,,,,,,,,,,,,,
59048309c4ef1300011b1085,TCR,2024-06-24_13h46.49.317,LearnStrategy,2023.2.3,Win32,59.17159763,3,1,3,0.026851866,-0.00462963,1,0,0,1.0322,rock_grid_rect_2,3,02,-1,-1,1.032,0.094444487,-0.233333376,1,0,0,0.9114,Diorite_rect,3,0.911,1,2,0,2,0,1,,,,,,,,,,,,,
59048309c4ef1300011b1085,TCR,2024-06-24_13h46.49.317,LearnStrategy,2023.2.3,Win32,59.17159763,3,1,4,0.029629672,0.000925912,1,0,0,0.8319,rock_grid_rect_2,5,05,-1,-1,0.832,-0.335185192,-0.247222265,1,0,0,1.8117,Andesite_rect,1,1.812,0,3,0,3,0,1,,,,,,,,,,,,,
59048309c4ef1300011b1085,TCR,2024-06-24_13h46.49.317,LearnStrategy,2023.2.3,Win32,59.17159763,3,1,5,0.015740783,0.00462963,1,0,0,1.4487,rock_grid_rect_2,1,14,-1,-1,1.449,0.078703704,-0.409259302,1,0,0,1.8622,Peridotite_rect,7,1.862,0,4,0,4,0,1,,,,,,,,,,,,,
59048309c4ef1300011b1085,TCR,2024-06-24_13h46.49.317,LearnStrategy,2023.2.3,Win32,59.17159763,3,1,6,-0.042592578,-0.015740748,1,0,0,0.9492,rock_grid_rect_2,7,07,-1,-1,0.949,0.075925968,-0.242592635,1,0,0,1.0614,Diorite_rect,3,1.061,0,5,0,5,0,1,,,,,,,,,,,,,
59048309c4ef1300011b1085,TCR,2024-06-24_13h46.49.317,LearnStrategy,2023.2.3,Win32,59.17159763,3,1,7,0.031481496,-0.015740748,1,0,0,0.8657,rock_grid_rect_2,6,12,-1,-1,0.866,-0.09629631,-0.238888917,1,0,0,1.7286,Basalt_rect,2,1.729,0,6,0,6,0,1,,,,,,,,,,,,,
59048309c4ef1300011b1085,TCR,2024-06-24_13h46.49.317,LearnStrategy,2023.2.3,Win32,59.17159763,3,1,8,0.05740745,0.010185171,1,0,0,0.8649,rock_grid_rect_2,4,13,-1,-1,0.865,-0.074999986,-0.419444473,1,0,0,1.5457,Pegmatite_rect,6,1.546,0,7,0,7,0,1,,,,,,,,,,,,,
59048309c4ef1300011b1085,TCR,2024-06-24_13h46.49.317,LearnStrategy,2023.2.3,Win32,59.17159763,3,1,9,0.051851838,-0.0074074,1,0,0,0.5983,rock_grid_rect_2,7,08,-1,-1,0.598,0.138888889,-0.415740755,1,0,0,3.1795,Peridotite_rect,7,3.179,1,8,0,8,0,1,,,,,,,,,,,,,
59048309c4ef1300011b1085,TCR,2024-06-24_13h46.49.317,LearnStrategy,2023.2.3,Win32,59.17159763,3,1,10,0.010185171,-0.001851859,1,0,0,0.8652,rock_grid_rect_2,6,05,-1,-1,0.865,-0.392592571,-0.398148148,1,0,0,1.579,Obsidian_rect,5,1.579,0,9,0,9,0,1,,,,,,,,,,,,,
59048309c4ef1300011b1085,TCR,2024-06-24_13h46.49.317,LearnStrategy,2023.2.3,Win32,59.17159763,3,1,11,-0.016666624,0.018518519,1,0,0,1.0817,rock_grid_rect_2,6,05,-1,-1,1.082,-0.171296296,-0.414814843,1,0,0,0.9956,Pegmatite_rect,6,0.996,1,10,0,10,0,1,,,,,,,,,,,,,
59048309c4ef1300011b1085,TCR,2024-06-24_13h46.49.317,LearnStrategy,2023.2.3,Win32,59.17159763,3,1,12,0.112037023,0.011111118,1,0,0,0.966,rock_grid_rect_2,7,16,-1,-1,0.966,-0.212962963,-0.258333347,1,0,0,1.3613,Basalt_rect,2,1.361,0,11,0,11,0,1,,,,,,,,,,,,,
59048309c4ef1300011b1085,TCR,2024-06-24_13h46.49.317,LearnStrategy,2023.2.3,Win32,59.17159763,3,1,13,-0.031481496,-0.017592607,1,0,0,0.9816,rock_grid_rect_2,2,05,-1,-1,0.982,-0.080555527,-0.25,1,0,0,0.995,Basalt_rect,2,0.995,1,12,0,12,0,1,,,,,,,,,,,,,
59048309c4ef1300011b1085,TCR,2024-06-24_13h46.49.317,LearnStrategy,2023.2.3,Win32,59.17159763,3,1,14,-0.001851824,0.006481489,1,0,0,0.9152,rock_grid_rect_2,7,16,-1,-1,0.915,0.174074102,-0.259259259,1,0,0,1.0456,Diorite_rect,3,1.046,0,13,0,13,0,1,,,,,,,,,,,,,
59048309c4ef1300011b1085,TCR,2024-06-24_13h46.49.317,LearnStrategy,2023.2.3,Win32,59.17159763,3,1,15,0.026851866,0.021296289,1,0,0,0.6158,rock_grid_rect_2,1,10,-1,-1,0.616,0.352777834,-0.271296325,1,0,0,2.1289,Gabbro_rect,4,2.129,0,14,0,14,0,1,,,,,,,,,,,,,
59048309c4ef1300011b1085,TCR,2024-06-24_13h46.49.317,LearnStrategy,2023.2.3,Win32,59.17159763,3,1,16,-0.024999972,0,1,0,0,0.8811,rock_grid_rect_2,3,11,-1,-1,0.881,0.193518533,-0.242592635,1,0,0,1.1288,Diorite_rect,3,1.129,1,15,0,15,0,1,,,,,,,,,,,,,
59048309c4ef1300011b1085,TCR,2024-06-24_13h46.49.317,LearnStrategy,2023.2.3,Win32,59.17159763,3,2,1,,,,,,,,7,15,,,,,,,,,,,3,1.461,0,,,,,,0.135185171,-0.249074088,1,0,0,1.461,Diorite_rect,0,0,0,0,1,
59048309c4ef1300011b1085,TCR,2024-06-24_13h46.49.317,LearnStrategy,2023.2.3,Win32,59.17159763,3,2,2,,,,,,,,2,06,,,,,,,,,,,2,2.178,1,,,,,,-0.16851849,-0.251851894,1,0,0,2.1784,Basalt_rect,1,0,1,0,1,
59048309c4ef1300011b1085,TCR,2024-06-24_13h46.49.317,LearnStrategy,2023.2.3,Win32,59.17159763,3,2,3,,,,,,,,7,10,,,,,,,,,,,1,1.494,0,,,,,,-0.365740741,-0.247222265,1,0,0,1.4943,Andesite_rect,2,0,2,0,1,
59048309c4ef1300011b1085,TCR,2024-06-24_13h46.49.317,LearnStrategy,2023.2.3,Win32,59.17159763,3,2,4,,,,,,,,2,14,,,,,,,,,,,8,1.777,0,,,,,,0.378703788,-0.393518519,1,0,0,1.7772,Pumice_rect,3,0,3,0,1,
59048309c4ef1300011b1085,TCR,2024-06-24_13h46.49.317,LearnStrategy,2023.2.3,Win32,59.17159763,3,2,5,,,,,,,,3,08,,,,,,,,,,,6,1.462,0,,,,,,-0.112962935,-0.391666695,1,0,0,1.462,Pegmatite_rect,4,0,4,0,1,
59048309c4ef1300011b1085,TCR,2024-06-24_13h46.49.317,LearnStrategy,2023.2.3,Win32,59.17159763,3,2,6,,,,,,,,1,09,,,,,,,,,,,7,1.328,0,,,,,,0.09629631,-0.39444443,1,0,0,1.3277,Peridotite_rect,5,0,5,0,1,
59048309c4ef1300011b1085,TCR,2024-06-24_13h46.49.317,LearnStrategy,2023.2.3,Win32,59.17159763,3,2,7,,,,,,,,4,09,,,,,,,,,,,5,1.112,0,,,,,,-0.356481481,-0.389814801,1,0,0,1.1116,Obsidian_rect,6,0,6,0,1,
59048309c4ef1300011b1085,TCR,2024-06-24_13h46.49.317,LearnStrategy,2023.2.3,Win32,59.17159763,3,2,8,,,,,,,,5,09,,,,,,,,,,,5,0.612,1,,,,,,-0.356481481,-0.389814801,1,0,0,0.6118,Obsidian_rect,7,0,7,0,1,
59048309c4ef1300011b1085,TCR,2024-06-24_13h46.49.317,LearnStrategy,2023.2.3,Win32,59.17159763,3,2,9,,,,,,,,6,03,,,,,,,,,,,1,1.445,0,,,,,,-0.35833334,-0.251851894,1,0,0,1.4447,Andesite_rect,8,0,8,0,1,
59048309c4ef1300011b1085,TCR,2024-06-24_13h46.49.317,LearnStrategy,2023.2.3,Win32,59.17159763,3,2,10,,,,,,,,3,10,,,,,,,,,,,3,1.027,1,,,,,,0.14444443,-0.249074088,1,0,0,1.0274,Diorite_rect,9,0,9,0,1,
59048309c4ef1300011b1085,TCR,2024-06-24_13h46.49.317,LearnStrategy,2023.2.3,Win32,59.17159763,3,2,11,,,,,,,,6,10,,,,,,,,,,,2,1.599,0,,,,,,-0.158333319,-0.237963005,1,0,0,1.5987,Basalt_rect,10,0,10,0,1,
59048309c4ef1300011b1085,TCR,2024-06-24_13h46.49.317,LearnStrategy,2023.2.3,Win32,59.17159763,3,2,12,,,,,,,,8,06,,,,,,,,,,,8,1.229,1,,,,,,0.336111139,-0.380555541,1,0,0,1.2286,Pumice_rect,11,0,11,0,1,
59048309c4ef1300011b1085,TCR,2024-06-24_13h46.49.317,LearnStrategy,2023.2.3,Win32,59.17159763,3,2,13,,,,,,,,5,11,,,,,,,,,,,5,1.261,1,,,,,,-0.375925912,-0.395370413,1,0,0,1.261,Obsidian_rect,12,0,12,0,1,
59048309c4ef1300011b1085,TCR,2024-06-24_13h46.49.317,LearnStrategy,2023.2.3,Win32,59.17159763,3,2,14,,,,,,,,1,04,,,,,,,,,,,4,1.411,0,,,,,,0.410185213,-0.231481481,1,0,0,1.4111,Gabbro_rect,13,0,13,0,1,
59048309c4ef1300011b1085,TCR,2024-06-24_13h46.49.317,LearnStrategy,2023.2.3,Win32,59.17159763,3,2,15,,,,,,,,4,15,,,,,,,,,,,3,1.328,0,,,,,,0.102777764,-0.261111153,1,0,0,1.328,Diorite_rect,14,0,14,0,1,
59048309c4ef1300011b1085,TCR,2024-06-24_13h46.49.317,LearnStrategy,2023.2.3,Win32,59.17159763,3,2,16,,,,,,,,8,13,,,,,,,,,,,7,1.578,0,,,,,,0.128703718,-0.416666667,1,0,0,1.5782,Peridotite_rect,15,0,15,0,1,
59048309c4ef1300011b1085,TCR,2024-06-24_13h46.49.317,LearnStrategy,2023.2.3,Win32,59.17159763,4,1,1,0.062962991,-0.012962977,1,0,0,2.1328,rock_grid_rect_2,6,16,-1,-1,2.133,0.091666681,-0.386111153,1,0,0,2.8291,Peridotite_rect,7,2.829,0,0,0,0,0,1,,,,,,,,,,,,,
59048309c4ef1300011b1085,TCR,2024-06-24_13h46.49.317,LearnStrategy,2023.2.3,Win32,59.17159763,4,1,2,0.011111153,0.018518519,1,0,0,0.815,rock_grid_rect_2,7,07,-1,-1,0.815,0.109259288,-0.243518547,1,0,0,1.1113,Diorite_rect,3,1.111,0,1,0,1,0,1,,,,,,,,,,,,,
59048309c4ef1300011b1085,TCR,2024-06-24_13h46.49.317,LearnStrategy,2023.2.3,Win32,59.17159763,4,1,3,0.025925954,-0.0074074,1,0,0,0.933,rock_grid_rect_2,8,09,-1,-1,0.933,0.374074159,-0.412962949,1,0,0,1.828,Pumice_rect,8,1.828,1,2,0,2,0,1,,,,,,,,,,,,,
59048309c4ef1300011b1085,TCR,2024-06-24_13h46.49.317,LearnStrategy,2023.2.3,Win32,59.17159763,4,1,4,-0.039814772,-0.006481489,1,0,0,0.9154,rock_grid_rect_2,1,01,-1,-1,0.915,-0.142592607,-0.248148176,1,0,0,0.9118,Basalt_rect,2,0.912,0,3,0,3,0,1,,,,,,,,,,,,,
59048309c4ef1300011b1085,TCR,2024-06-24_13h46.49.317,LearnStrategy,2023.2.3,Win32,59.17159763,4,1,5,0.008333347,-0.009259259,1,0,0,0.5987,rock_grid_rect_2,2,11,-1,-1,0.599,0.090740769,-0.270370413,1,0,0,2.1792,Diorite_rect,3,2.179,0,4,0,4,0,1,,,,,,,,,,,,,
59048309c4ef1300011b1085,TCR,2024-06-24_13h46.49.317,LearnStrategy,2023.2.3,Win32,59.17159763,4,1,6,-0.05277775,-0.009259259,1,0,0,1.0163,rock_grid_rect_2,3,16,-1,-1,1.016,-0.10092594,-0.228703746,1,0,0,0.9612,Basalt_rect,2,0.961,0,5,0,5,0,1,,,,,,,,,,,,,
59048309c4ef1300011b1085,TCR,2024-06-24_13h46.49.317,LearnStrategy,2023.2.3,Win32,59.17159763,4,1,7,0.069444444,-0.017592607,1,0,0,0.932,rock_grid_rect_2,4,10,-1,-1,0.932,-0.320370356,-0.24537037,1,0,0,1.595,Andesite_rect,1,1.595,0,6,0,6,0,1,,,,,,,,,,,,,
59048309c4ef1300011b1085,TCR,2024-06-24_13h46.49.317,LearnStrategy,2023.2.3,Win32,59.17159763,4,1,8,0.107407393,0.023148148,1,0,0,0.6156,rock_grid_rect_2,5,08,-1,-1,0.616,-0.343518504,-0.416666667,1,0,0,1.1954,Obsidian_rect,5,1.195,1,7,0,7,0,1,,,,,,,,,,,,,
59048309c4ef1300011b1085,TCR,2024-06-24_13h46.49.317,LearnStrategy,2023.2.3,Win32,59.17159763,4,1,9,-0.034259231,0.011111118,1,0,0,0.7981,rock_grid_rect_2,3,14,-1,-1,0.798,0.119444459,-0.260185171,1,0,0,1.295,Diorite_rect,3,1.295,1,8,0,8,0,1,,,,,,,,,,,,,
59048309c4ef1300011b1085,TCR,2024-06-24_13h46.49.317,LearnStrategy,2023.2.3,Win32,59.17159763,4,1,10,0.022222236,0.023148148,1,0,0,0.932,rock_grid_rect_2,7,08,-1,-1,0.932,0.294444473,-0.264814801,1,0,0,1.7119,Gabbro_rect,4,1.712,0,9,0,9,0,1,,,,,,,,,,,,,
59048309c4ef1300011b1085,TCR,2024-06-24_13h46.49.317,LearnStrategy,2023.2.3,Win32,59.17159763,4,1,11,0.031481496,-0.017592607,1,0,0,0.6476,rock_grid_rect_2,2,10,-1,-1,0.648,-0.175000014,-0.24537037,1,0,0,1.7454,Basalt_rect,2,1.745,1,10,0,10,0,1,,,,,,,,,,,,,
59048309c4ef1300011b1085,TCR,2024-06-24_13h46.49.317,LearnStrategy,2023.2.3,Win32,59.17159763,4,1,12,0.007407436,-0.0074074,1,0,0,0.9163,rock_grid_rect_2,4,03,-1,-1,0.916,0.117592635,-0.413888931,1,0,0,1.6611,Peridotite_rect,7,1.661,0,11,0,11,0,1,,,,,,,,,,,,,
59048309c4ef1300011b1085,TCR,2024-06-24_13h46.49.317,LearnStrategy,2023.2.3,Win32,59.17159763,4,1,13,0.008333347,0.006481489,1,0,0,0.716,rock_grid_rect_2,7,05,-1,-1,0.716,-0.380555541,-0.252777806,1,0,0,2.4294,Andesite_rect,1,2.429,0,12,0,12,0,1,,,,,,,,,,,,,
59048309c4ef1300011b1085,TCR,2024-06-24_13h46.49.317,LearnStrategy,2023.2.3,Win32,59.17159763,4,1,14,-0.014814801,-0.017592607,1,0,0,0.6151,rock_grid_rect_2,1,14,-1,-1,0.615,-0.124074088,-0.265740783,1,0,0,1.1282,Basalt_rect,2,1.128,0,13,0,13,0,1,,,,,,,,,,,,,
59048309c4ef1300011b1085,TCR,2024-06-24_13h46.49.317,LearnStrategy,2023.2.3,Win32,59.17159763,4,1,15,0.01944443,-0.015740748,1,0,0,0.9983,rock_grid_rect_2,6,05,-1,-1,0.998,-0.09629631,-0.387037065,1,0,0,2.1787,Pegmatite_rect,6,2.179,1,14,0,14,0,1,,,,,,,,,,,,,
59048309c4ef1300011b1085,TCR,2024-06-24_13h46.49.317,LearnStrategy,2023.2.3,Win32,59.17159763,4,1,16,0.013888889,0.01944443,1,0,0,0.7153,rock_grid_rect_2,1,03,-1,-1,0.715,0.155555584,-0.25462963,1,0,0,1.5118,Diorite_rect,3,1.512,0,15,0,15,0,1,,,,,,,,,,,,,
59048309c4ef1300011b1085,TCR,2024-06-24_13h46.49.317,LearnStrategy,2023.2.3,Win32,59.17159763,4,2,1,,,,,,,,5,06,,,,,,,,,,,5,1.578,1,,,,,,-0.372222229,-0.414814843,1,0,0,1.5784,Obsidian_rect,0,0,0,0,1,
59048309c4ef1300011b1085,TCR,2024-06-24_13h46.49.317,LearnStrategy,2023.2.3,Win32,59.17159763,4,2,2,,,,,,,,6,10,,,,,,,,,,,4,1.394,0,,,,,,0.335185157,-0.231481481,1,0,0,1.3945,Gabbro_rect,1,0,1,0,1,
59048309c4ef1300011b1085,TCR,2024-06-24_13h46.49.317,LearnStrategy,2023.2.3,Win32,59.17159763,4,2,3,,,,,,,,2,06,,,,,,,,,,,2,1.728,1,,,,,,-0.125,-0.253703718,1,0,0,1.7277,Basalt_rect,2,0,2,0,1,
59048309c4ef1300011b1085,TCR,2024-06-24_13h46.49.317,LearnStrategy,2023.2.3,Win32,59.17159763,4,2,4,,,,,,,,8,13,,,,,,,,,,,8,2.229,1,,,,,,0.350926011,-0.381481524,1,0,0,2.2287,Pumice_rect,3,0,3,0,1,
59048309c4ef1300011b1085,TCR,2024-06-24_13h46.49.317,LearnStrategy,2023.2.3,Win32,59.17159763,4,2,5,,,,,,,,6,08,,,,,,,,,,,6,1.261,1,,,,,,-0.211111069,-0.398148148,1,0,0,1.2613,Pegmatite_rect,4,0,4,0,1,
59048309c4ef1300011b1085,TCR,2024-06-24_13h46.49.317,LearnStrategy,2023.2.3,Win32,59.17159763,4,2,6,,,,,,,,2,01,,,,,,,,,,,2,0.944,1,,,,,,-0.070370356,-0.244444459,1,0,0,0.9441,Basalt_rect,5,0,5,0,1,
59048309c4ef1300011b1085,TCR,2024-06-24_13h46.49.317,LearnStrategy,2023.2.3,Win32,59.17159763,4,2,7,,,,,,,,3,06,,,,,,,,,,,3,2.012,1,,,,,,0.148148148,-0.244444459,1,0,0,2.0116,Diorite_rect,6,0,6,0,1,
59048309c4ef1300011b1085,TCR,2024-06-24_13h46.49.317,LearnStrategy,2023.2.3,Win32,59.17159763,4,2,8,,,,,,,,7,02,,,,,,,,,,,3,0.778,0,,,,,,0.148148148,-0.244444459,1,0,0,0.7776,Diorite_rect,7,0,7,0,1,
59048309c4ef1300011b1085,TCR,2024-06-24_13h46.49.317,LearnStrategy,2023.2.3,Win32,59.17159763,4,2,9,,,,,,,,4,08,,,,,,,,,,,1,1.278,0,,,,,,-0.309259238,-0.263888889,1,0,0,1.2779,Andesite_rect,8,0,8,0,1,
59048309c4ef1300011b1085,TCR,2024-06-24_13h46.49.317,LearnStrategy,2023.2.3,Win32,59.17159763,4,2,10,,,,,,,,1,07,,,,,,,,,,,7,1.594,0,,,,,,0.05277782,-0.410185213,1,0,0,1.5944,Peridotite_rect,9,0,9,0,1,
59048309c4ef1300011b1085,TCR,2024-06-24_13h46.49.317,LearnStrategy,2023.2.3,Win32,59.17159763,4,2,11,,,,,,,,3,10,,,,,,,,,,,6,0.944,0,,,,,,-0.142592607,-0.386111153,1,0,0,0.9442,Pegmatite_rect,10,0,10,0,1,
59048309c4ef1300011b1085,TCR,2024-06-24_13h46.49.317,LearnStrategy,2023.2.3,Win32,59.17159763,4,2,12,,,,,,,,8,10,,,,,,,,,,,8,1.165,1,,,,,,0.368518547,-0.395370413,1,0,0,1.165,Pumice_rect,11,0,11,0,1,
59048309c4ef1300011b1085,TCR,2024-06-24_13h46.49.317,LearnStrategy,2023.2.3,Win32,59.17159763,4,2,13,,,,,,,,5,12,,,,,,,,,,,5,1.178,1,,,,,,-0.371296282,-0.389814801,1,0,0,1.1779,Obsidian_rect,12,0,12,0,1,
59048309c4ef1300011b1085,TCR,2024-06-24_13h46.49.317,LearnStrategy,2023.2.3,Win32,59.17159763,4,2,14,,,,,,,,4,05,,,,,,,,,,,3,1.445,0,,,,,,0.075925968,-0.258333347,1,0,0,1.4446,Diorite_rect,13,0,13,0,1,
59048309c4ef1300011b1085,TCR,2024-06-24_13h46.49.317,LearnStrategy,2023.2.3,Win32,59.17159763,4,2,15,,,,,,,,1,06,,,,,,,,,,,3,0.845,0,,,,,,0.10092594,-0.247222265,1,0,0,0.8451,Diorite_rect,14,0,14,0,1,
59048309c4ef1300011b1085,TCR,2024-06-24_13h46.49.317,LearnStrategy,2023.2.3,Win32,59.17159763,4,2,16,,,,,,,,7,14,,,,,,,,,,,1,1.445,0,,,,,,-0.366666653,-0.237963005,1,0,0,1.4447,Andesite_rect,15,0,15,0,1,
59048309c4ef1300011b1085,TCR,2024-06-24_13h46.49.317,LearnStrategy,2023.2.3,Win32,59.17159763,5,1,1,0.02407406,-0.018518519,1,0,0,1.1998,rock_grid_rect_2,7,05,-1,-1,1.2,-0.388888889,-0.270370413,1,0,0,1.428,Andesite_rect,1,1.428,0,0,0,0,0,1,,,,,,,,,,,,,
59048309c4ef1300011b1085,TCR,2024-06-24_13h46.49.317,LearnStrategy,2023.2.3,Win32,59.17159763,5,1,2,0.05740745,-0.012962977,1,0,0,1.0814,rock_grid_rect_2,4,13,-1,-1,1.081,0.158333319,-0.259259259,1,0,0,1.7957,Diorite_rect,3,1.796,0,1,0,1,0,1,,,,,,,,,,,,,
59048309c4ef1300011b1085,TCR,2024-06-24_13h46.49.317,LearnStrategy,2023.2.3,Win32,59.17159763,5,1,3,0,-0.006481489,1,0,0,0.5985,rock_grid_rect_2,1,11,-1,-1,0.598,-0.126851824,-0.380555541,1,0,0,1.3949,Pegmatite_rect,6,1.395,0,2,0,2,0,1,,,,,,,,,,,,,
59048309c4ef1300011b1085,TCR,2024-06-24_13h46.49.317,LearnStrategy,2023.2.3,Win32,59.17159763,5,1,4,-0.005555541,-0.009259259,1,0,0,0.8997,rock_grid_rect_2,8,05,-1,-1,0.9,0.341666751,-0.389814801,1,0,0,1.1114,Pumice_rect,8,1.111,1,3,0,3,0,1,,,,,,,,,,,,,
59048309c4ef1300011b1085,TCR,2024-06-24_13h46.49.317,LearnStrategy,2023.2.3,Win32,59.17159763,5,1,5,-0.073148162,-0.00462963,1,0,0,0.6317,rock_grid_rect_2,1,03,-1,-1,0.632,0.091666681,-0.414814843,1,0,0,1.929,Peridotite_rect,7,1.929,0,4,0,4,0,1,,,,,,,,,,,,,
59048309c4ef1300011b1085,TCR,2024-06-24_13h46.49.317,LearnStrategy,2023.2.3,Win32,59.17159763,5,1,6,-0.050000014,0.015740748,1,0,0,1.032,rock_grid_rect_2,4,01,-1,-1,1.032,-0.127777735,-0.25,1,0,0,0.9452,Basalt_rect,2,0.945,0,5,0,5,0,1,,,,,,,,,,,,,
59048309c4ef1300011b1085,TCR,2024-06-24_13h46.49.317,LearnStrategy,2023.2.3,Win32,59.17159763,5,1,7,0.027777778,0.01944443,1,0,0,0.515,rock_grid_rect_2,2,12,-1,-1,0.515,0.426851908,-0.231481481,1,0,0,1.149,Gabbro_rect,4,1.149,0,6,0,6,0,1,,,,,,,,,,,,,
59048309c4ef1300011b1085,TCR,2024-06-24_13h46.49.317,LearnStrategy,2023.2.3,Win32,59.17159763,5,1,8,0,0.000925912,1,0,0,0.8808,rock_grid_rect_2,7,12,-1,-1,0.881,-0.088888875,-0.25,1,0,0,0.9456,Basalt_rect,2,0.946,0,7,0,7,0,1,,,,,,,,,,,,,
59048309c4ef1300011b1085,TCR,2024-06-24_13h46.49.317,LearnStrategy,2023.2.3,Win32,59.17159763,5,1,9,0.053703732,0.01666666,1,0,0,0.6984,rock_grid_rect_2,1,10,-1,-1,0.698,-0.387962942,-0.244444459,1,0,0,1.2449,Andesite_rect,1,1.245,1,8,0,8,0,1,,,,,,,,,,,,,
59048309c4ef1300011b1085,TCR,2024-06-24_13h46.49.317,LearnStrategy,2023.2.3,Win32,59.17159763,5,1,10,0.02407406,-0.021296289,1,0,0,0.9487,rock_grid_rect_2,3,09,-1,-1,0.949,0.117592635,-0.405555584,1,0,0,1.1284,Peridotite_rect,7,1.128,0,9,0,9,0,1,,,,,,,,,,,,,
59048309c4ef1300011b1085,TCR,2024-06-24_13h46.49.317,LearnStrategy,2023.2.3,Win32,59.17159763,5,1,11,-0.034259231,0.011111118,1,0,0,0.6316,rock_grid_rect_2,4,11,-1,-1,0.632,-0.126851824,-0.252777806,1,0,0,1.4785,Basalt_rect,2,1.479,0,10,0,10,0,1,,,,,,,,,,,,,
59048309c4ef1300011b1085,TCR,2024-06-24_13h46.49.317,LearnStrategy,2023.2.3,Win32,59.17159763,5,1,12,0.035185213,-0.009259259,1,0,0,0.982,rock_grid_rect_2,6,13,-1,-1,0.982,-0.106481481,-0.37962963,1,0,0,1.0621,Pegmatite_rect,6,1.062,1,11,0,11,0,1,,,,,,,,,,,,,
59048309c4ef1300011b1085,TCR,2024-06-24_13h46.49.317,LearnStrategy,2023.2.3,Win32,59.17159763,5,1,13,-0.011111083,-0.01666666,1,0,0,0.6154,rock_grid_rect_2,6,11,-1,-1,0.615,-0.080555527,-0.386111153,1,0,0,1.028,Pegmatite_rect,6,1.028,1,12,0,12,0,1,,,,,,,,,,,,,
59048309c4ef1300011b1085,TCR,2024-06-24_13h46.49.317,LearnStrategy,2023.2.3,Win32,59.17159763,5,1,14,0.035185213,0.021296289,1,0,0,0.6818,rock_grid_rect_2,3,02,-1,-1,0.682,0.150000042,-0.24537037,1,0,0,1.0119,Diorite_rect,3,1.012,1,13,0,13,0,1,,,,,,,,,,,,,
59048309c4ef1300011b1085,TCR,2024-06-24_13h46.49.317,LearnStrategy,2023.2.3,Win32,59.17159763,5,1,15,-0.04814812,-0.022222236,1,0,0,0.6483,rock_grid_rect_2,5,14,-1,-1,0.648,-0.356481481,-0.393518519,1,0,0,1.2449,Obsidian_rect,5,1.245,1,14,0,14,0,1,,,,,,,,,,,,,
59048309c4ef1300011b1085,TCR,2024-06-24_13h46.49.317,LearnStrategy,2023.2.3,Win32,59.17159763,5,1,16,0.016666695,-0.015740748,1,0,0,1.4829,rock_grid_rect_2,7,05,-1,-1,1.483,-0.328703704,-0.242592635,1,0,0,2.1788,Andesite_rect,1,2.179,0,15,0,15,0,1,,,,,,,,,,,,,
59048309c4ef1300011b1085,TCR,2024-06-24_13h46.49.317,LearnStrategy,2023.2.3,Win32,59.17159763,5,2,1,,,,,,,,3,07,,,,,,,,,,,6,1.778,0,,,,,,-0.133333347,-0.391666695,1,0,0,1.7782,Pegmatite_rect,0,0,0,0,1,
59048309c4ef1300011b1085,TCR,2024-06-24_13h46.49.317,LearnStrategy,2023.2.3,Win32,59.17159763,5,2,2,,,,,,,,4,12,,,,,,,,,,,2,1.094,0,,,,,,-0.122222194,-0.252777806,1,0,0,1.0942,Basalt_rect,1,0,1,0,1,
59048309c4ef1300011b1085,TCR,2024-06-24_13h46.49.317,LearnStrategy,2023.2.3,Win32,59.17159763,5,2,3,,,,,,,,1,16,,,,,,,,,,,3,1.077,0,,,,,,0.147222236,-0.247222265,1,0,0,1.0772,Diorite_rect,2,0,2,0,1,
59048309c4ef1300011b1085,TCR,2024-06-24_13h46.49.317,LearnStrategy,2023.2.3,Win32,59.17159763,5,2,4,,,,,,,,3,15,,,,,,,,,,,7,1.078,0,,,,,,0.137962977,-0.385185171,1,0,0,1.078,Peridotite_rect,3,0,3,0,1,
59048309c4ef1300011b1085,TCR,2024-06-24_13h46.49.317,LearnStrategy,2023.2.3,Win32,59.17159763,5,2,5,,,,,,,,2,02,,,,,,,,,,,2,0.911,1,,,,,,-0.097222222,-0.248148176,1,0,0,0.9114,Basalt_rect,4,0,4,0,1,
59048309c4ef1300011b1085,TCR,2024-06-24_13h46.49.317,LearnStrategy,2023.2.3,Win32,59.17159763,5,2,6,,,,,,,,6,03,,,,,,,,,,,6,1.011,1,,,,,,-0.073148162,-0.402777778,1,0,0,1.0113,Pegmatite_rect,5,0,5,0,1,
59048309c4ef1300011b1085,TCR,2024-06-24_13h46.49.317,LearnStrategy,2023.2.3,Win32,59.17159763,5,2,7,,,,,,,,1,04,,,,,,,,,,,3,1.311,0,,,,,,0.14444443,-0.263888889,1,0,0,1.3113,Diorite_rect,6,0,6,0,1,
59048309c4ef1300011b1085,TCR,2024-06-24_13h46.49.317,LearnStrategy,2023.2.3,Win32,59.17159763,5,2,8,,,,,,,,8,15,,,,,,,,,,,8,1.878,1,,,,,,0.341666751,-0.405555584,1,0,0,1.8777,Pumice_rect,7,0,7,0,1,
59048309c4ef1300011b1085,TCR,2024-06-24_13h46.49.317,LearnStrategy,2023.2.3,Win32,59.17159763,5,2,9,,,,,,,,7,04,,,,,,,,,,,4,1.138,0,,,,,,0.444444444,-0.261111153,1,0,0,1.1382,Gabbro_rect,8,0,8,0,1,
59048309c4ef1300011b1085,TCR,2024-06-24_13h46.49.317,LearnStrategy,2023.2.3,Win32,59.17159763,5,2,10,,,,,,,,2,14,,,,,,,,,,,3,2.462,0,,,,,,0.09629631,-0.268518519,1,0,0,2.4615,Diorite_rect,9,0,9,0,1,
59048309c4ef1300011b1085,TCR,2024-06-24_13h46.49.317,LearnStrategy,2023.2.3,Win32,59.17159763,5,2,11,,,,,,,,5,09,,,,,,,,,,,5,1.273,1,,,,,,-0.351851852,-0.389814801,1,0,0,1.2726,Obsidian_rect,10,0,10,0,1,
59048309c4ef1300011b1085,TCR,2024-06-24_13h46.49.317,LearnStrategy,2023.2.3,Win32,59.17159763,5,2,12,,,,,,,,8,08,,,,,,,,,,,8,1.595,1,,,,,,0.382407436,-0.407407407,1,0,0,1.595,Pumice_rect,11,0,11,0,1,
59048309c4ef1300011b1085,TCR,2024-06-24_13h46.49.317,LearnStrategy,2023.2.3,Win32,59.17159763,5,2,13,,,,,,,,5,16,,,,,,,,,,,5,1.631,1,,,,,,-0.38703703,-0.404629672,1,0,0,1.6311,Obsidian_rect,12,0,12,0,1,
59048309c4ef1300011b1085,TCR,2024-06-24_13h46.49.317,LearnStrategy,2023.2.3,Win32,59.17159763,5,2,14,,,,,,,,4,15,,,,,,,,,,,1,2.061,0,,,,,,-0.424999979,-0.25,1,0,0,2.0614,Andesite_rect,13,0,13,0,1,
59048309c4ef1300011b1085,TCR,2024-06-24_13h46.49.317,LearnStrategy,2023.2.3,Win32,59.17159763,5,2,15,,,,,,,,6,07,,,,,,,,,,,6,1.228,1,,,,,,-0.161111125,-0.390740783,1,0,0,1.2278,Pegmatite_rect,14,0,14,0,1,
59048309c4ef1300011b1085,TCR,2024-06-24_13h46.49.317,LearnStrategy,2023.2.3,Win32,59.17159763,5,2,16,,,,,,,,7,15,,,,,,,,,,,1,1.227,0,,,,,,-0.332407386,-0.23055557,1,0,0,1.2274,Andesite_rect,15,0,15,0,1,
59048309c4ef1300011b1085,TCR,2024-06-24_13h46.49.317,LearnStrategy,2023.2.3,Win32,59.17159763,6,1,1,0.060185185,-0.006481489,1,0,0,1.0826,rock_grid_rect_2,4,10,-1,-1,1.083,-0.302777785,-0.261111153,1,0,0,1.4286,Andesite_rect,1,1.429,0,0,0,0,0,1,,,,,,,,,,,,,
59048309c4ef1300011b1085,TCR,2024-06-24_13h46.49.317,LearnStrategy,2023.2.3,Win32,59.17159763,6,1,2,0.056481467,-0.017592607,1,0,0,0.8821,rock_grid_rect_2,8,09,-1,-1,0.882,0.334259316,-0.384259259,1,0,0,1.145,Pumice_rect,8,1.145,1,1,0,1,0,1,,,,,,,,,,,,,
59048309c4ef1300011b1085,TCR,2024-06-24_13h46.49.317,LearnStrategy,2023.2.3,Win32,59.17159763,6,1,3,0.01944443,0.021296289,1,0,0,0.8316,rock_grid_rect_2,1,14,-1,-1,0.832,-0.395370377,-0.242592635,1,0,0,1.1623,Andesite_rect,1,1.162,1,2,0,2,0,1,,,,,,,,,,,,,
59048309c4ef1300011b1085,TCR,2024-06-24_13h46.49.317,LearnStrategy,2023.2.3,Win32,59.17159763,6,1,4,0.030555584,-0.017592607,1,0,0,0.8985,rock_grid_rect_2,3,16,-1,-1,0.899,0.084259245,-0.414814843,1,0,0,1.7454,Peridotite_rect,7,1.745,0,3,0,3,0,1,,,,,,,,,,,,,
59048309c4ef1300011b1085,TCR,2024-06-24_13h46.49.317,LearnStrategy,2023.2.3,Win32,59.17159763,6,1,5,-0.01944443,-0.01666666,1,0,0,0.9324,rock_grid_rect_2,4,03,-1,-1,0.932,-0.121296282,-0.236111111,1,0,0,1.0617,Basalt_rect,2,1.062,0,4,0,4,0,1,,,,,,,,,,,,,
59048309c4ef1300011b1085,TCR,2024-06-24_13h46.49.317,LearnStrategy,2023.2.3,Win32,59.17159763,6,1,6,0.086111139,-0.01203703,1,0,0,1.1821,rock_grid_rect_2,3,14,-1,-1,1.182,-0.131481453,-0.387037065,1,0,0,1.1613,Pegmatite_rect,6,1.161,0,5,0,5,0,1,,,,,,,,,,,,,
59048309c4ef1300011b1085,TCR,2024-06-24_13h46.49.317,LearnStrategy,2023.2.3,Win32,59.17159763,6,1,7,0.070370356,0.021296289,1,0,0,0.8985,rock_grid_rect_2,1,03,-1,-1,0.899,0.065740727,-0.231481481,1,0,0,0.7786,Diorite_rect,3,0.779,0,6,0,6,0,1,,,,,,,,,,,,,
59048309c4ef1300011b1085,TCR,2024-06-24_13h46.49.317,LearnStrategy,2023.2.3,Win32,59.17159763,6,1,8,-0.020370342,-0.0074074,1,0,0,0.8989,rock_grid_rect_2,7,12,-1,-1,0.899,0.125925912,-0.421296296,1,0,0,1.5783,Peridotite_rect,7,1.578,1,7,0,7,0,1,,,,,,,,,,,,,
59048309c4ef1300011b1085,TCR,2024-06-24_13h46.49.317,LearnStrategy,2023.2.3,Win32,59.17159763,6,1,9,0.012037065,-0.00462963,1,0,0,0.6159,rock_grid_rect_2,3,02,-1,-1,0.616,0.10555557,-0.25,1,0,0,1.5951,Diorite_rect,3,1.595,1,8,0,8,0,1,,,,,,,,,,,,,
59048309c4ef1300011b1085,TCR,2024-06-24_13h46.49.317,LearnStrategy,2023.2.3,Win32,59.17159763,6,1,10,0.040740755,0.021296289,1,0,0,0.6649,rock_grid_rect_2,1,03,-1,-1,0.665,-0.10555557,-0.40370369,1,0,0,0.9282,Pegmatite_rect,6,0.928,0,9,0,9,0,1,,,,,,,,,,,,,
59048309c4ef1300011b1085,TCR,2024-06-24_13h46.49.317,LearnStrategy,2023.2.3,Win32,59.17159763,6,1,11,0.071296339,-0.01203703,1,0,0,0.6491,rock_grid_rect_2,6,12,-1,-1,0.649,-0.10555557,-0.407407407,1,0,0,1.0782,Pegmatite_rect,6,1.078,1,10,0,10,0,1,,,,,,,,,,,,,
59048309c4ef1300011b1085,TCR,2024-06-24_13h46.49.317,LearnStrategy,2023.2.3,Win32,59.17159763,6,1,12,0.113888917,-0.01666666,1,0,0,0.9665,rock_grid_rect_2,6,16,-1,-1,0.966,-0.098148134,-0.388888889,1,0,0,1.4449,Pegmatite_rect,6,1.445,1,11,0,11,0,1,,,,,,,,,,,,,
59048309c4ef1300011b1085,TCR,2024-06-24_13h46.49.317,LearnStrategy,2023.2.3,Win32,59.17159763,6,1,13,0.075925968,-0.00462963,1,0,0,3.0834,rock_grid_rect_2,4,14,-1,-1,3.083,-0.139814801,-0.262037065,1,0,0,1.3157,Basalt_rect,2,1.316,0,12,0,12,0,1,,,,,,,,,,,,,
59048309c4ef1300011b1085,TCR,2024-06-24_13h46.49.317,LearnStrategy,2023.2.3,Win32,59.17159763,6,1,14,-0.008333347,-0.009259259,1,0,0,0.5486,rock_grid_rect_2,2,16,-1,-1,0.549,-0.047222208,-0.248148176,1,0,0,1.0957,Basalt_rect,2,1.096,1,13,0,13,0,1,,,,,,,,,,,,,
59048309c4ef1300011b1085,TCR,2024-06-24_13h46.49.317,LearnStrategy,2023.2.3,Win32,59.17159763,6,1,15,0.070370356,-0.015740748,1,0,0,1.0663,rock_grid_rect_2,7,12,-1,-1,1.066,0.412963019,-0.265740783,1,0,0,1.3955,Gabbro_rect,4,1.396,0,14,0,14,0,1,,,,,,,,,,,,,
59048309c4ef1300011b1085,TCR,2024-06-24_13h46.49.317,LearnStrategy,2023.2.3,Win32,59.17159763,6,1,16,0.002777806,0.000925912,1,0,0,0.7157,rock_grid_rect_2,7,08,-1,-1,0.716,-0.347222222,-0.242592635,1,0,0,1.2451,Andesite_rect,1,1.245,0,15,0,15,0,1,,,,,,,,,,,,,
59048309c4ef1300011b1085,TCR,2024-06-24_13h46.49.317,LearnStrategy,2023.2.3,Win32,59.17159763,6,2,1,,,,,,,,5,07,,,,,,,,,,,5,1.278,1,,,,,,-0.361111111,-0.406481496,1,0,0,1.2777,Obsidian_rect,0,0,0,0,1,
59048309c4ef1300011b1085,TCR,2024-06-24_13h46.49.317,LearnStrategy,2023.2.3,Win32,59.17159763,6,2,2,,,,,,,,6,15,,,,,,,,,,,6,1.446,1,,,,,,-0.098148134,-0.413888931,1,0,0,1.4455,Pegmatite_rect,1,0,1,0,1,
59048309c4ef1300011b1085,TCR,2024-06-24_13h46.49.317,LearnStrategy,2023.2.3,Win32,59.17159763,6,2,3,,,,,,,,2,04,,,,,,,,,,,2,1.159,1,,,,,,-0.116666653,-0.246296282,1,0,0,1.1589,Basalt_rect,2,0,2,0,1,
59048309c4ef1300011b1085,TCR,2024-06-24_13h46.49.317,LearnStrategy,2023.2.3,Win32,59.17159763,6,2,4,,,,,,,,1,09,,,,,,,,,,,1,1.712,1,,,,,,-0.319444444,-0.266666695,1,0,0,1.7115,Andesite_rect,3,0,3,0,1,
59048309c4ef1300011b1085,TCR,2024-06-24_13h46.49.317,LearnStrategy,2023.2.3,Win32,59.17159763,6,2,5,,,,,,,,4,16,,,,,,,,,,,2,1.294,0,,,,,,-0.080555527,-0.248148176,1,0,0,1.2945,Basalt_rect,4,0,4,0,1,
59048309c4ef1300011b1085,TCR,2024-06-24_13h46.49.317,LearnStrategy,2023.2.3,Win32,59.17159763,6,2,6,,,,,,,,8,06,,,,,,,,,,,8,2.195,1,,,,,,0.391666695,-0.400000042,1,0,0,2.1949,Pumice_rect,5,0,5,0,1,
59048309c4ef1300011b1085,TCR,2024-06-24_13h46.49.317,LearnStrategy,2023.2.3,Win32,59.17159763,6,2,7,,,,,,,,7,10,,,,,,,,,,,3,0.811,0,,,,,,0.127777806,-0.25462963,1,0,0,0.8114,Diorite_rect,6,0,6,0,1,
59048309c4ef1300011b1085,TCR,2024-06-24_13h46.49.317,LearnStrategy,2023.2.3,Win32,59.17159763,6,2,8,,,,,,,,2,08,,,,,,,,,,,2,1.295,1,,,,,,-0.186111097,-0.253703718,1,0,0,1.2947,Basalt_rect,7,0,7,0,1,
59048309c4ef1300011b1085,TCR,2024-06-24_13h46.49.317,LearnStrategy,2023.2.3,Win32,59.17159763,6,2,9,,,,,,,,6,06,,,,,,,,,,,6,1.212,1,,,,,,-0.101851852,-0.405555584,1,0,0,1.2116,Pegmatite_rect,8,0,8,0,1,
59048309c4ef1300011b1085,TCR,2024-06-24_13h46.49.317,LearnStrategy,2023.2.3,Win32,59.17159763,6,2,10,,,,,,,,3,08,,,,,,,,,,,6,0.762,0,,,,,,-0.039814772,-0.408333319,1,0,0,0.7618,Pegmatite_rect,9,0,9,0,1,
59048309c4ef1300011b1085,TCR,2024-06-24_13h46.49.317,LearnStrategy,2023.2.3,Win32,59.17159763,6,2,11,,,,,,,,7,06,,,,,,,,,,,7,0.995,1,,,,,,0.178703732,-0.410185213,1,0,0,0.9945,Peridotite_rect,10,0,10,0,1,
59048309c4ef1300011b1085,TCR,2024-06-24_13h46.49.317,LearnStrategy,2023.2.3,Win32,59.17159763,6,2,12,,,,,,,,5,11,,,,,,,,,,,5,1.995,1,,,,,,-0.356481481,-0.391666695,1,0,0,1.9953,Obsidian_rect,11,0,11,0,1,
59048309c4ef1300011b1085,TCR,2024-06-24_13h46.49.317,LearnStrategy,2023.2.3,Win32,59.17159763,6,2,13,,,,,,,,4,09,,,,,,,,,,,2,1.595,0,,,,,,-0.181481467,-0.248148176,1,0,0,1.595,Basalt_rect,12,0,12,0,1,
59048309c4ef1300011b1085,TCR,2024-06-24_13h46.49.317,LearnStrategy,2023.2.3,Win32,59.17159763,6,2,14,,,,,,,,3,12,,,,,,,,,,,7,2.211,0,,,,,,0.066666709,-0.414814843,1,0,0,2.2112,Peridotite_rect,13,0,13,0,1,
59048309c4ef1300011b1085,TCR,2024-06-24_13h46.49.317,LearnStrategy,2023.2.3,Win32,59.17159763,6,2,15,,,,,,,,1,05,,,,,,,,,,,4,2.173,0,,,,,,0.397222307,-0.246296282,1,0,0,2.1728,Gabbro_rect,14,0,14,0,1,
59048309c4ef1300011b1085,TCR,2024-06-24_13h46.49.317,LearnStrategy,2023.2.3,Win32,59.17159763,6,2,16,,,,,,,,8,03,,,,,,,,,,,8,1.662,1,,,,,,0.368518547,-0.396296325,1,0,0,1.6616,Pumice_rect,15,0,15,0,1,
59048309c4ef1300011b1085,TCR,2024-06-24_13h46.49.317,LearnStrategy,2023.2.3,Win32,59.17159763,7,1,1,-0.009259259,0.021296289,1,0,0,0.7989,rock_grid_rect_2,1,02,-1,-1,0.799,-0.139814801,-0.416666667,1,0,0,1.6452,Pegmatite_rect,6,1.645,0,0,0,0,0,1,,,,,,,,,,,,,
59048309c4ef1300011b1085,TCR,2024-06-24_13h46.49.317,LearnStrategy,2023.2.3,Win32,59.17159763,7,1,2,-0.021296254,0.00462963,1,0,0,0.8825,rock_grid_rect_2,2,12,-1,-1,0.883,0.150925954,-0.39907406,1,0,0,1.6125,Peridotite_rect,7,1.613,0,1,0,1,0,1,,,,,,,,,,,,,
59048309c4ef1300011b1085,TCR,2024-06-24_13h46.49.317,LearnStrategy,2023.2.3,Win32,59.17159763,7,1,3,-0.006481453,-0.001851859,1,0,0,0.8157,rock_grid_rect_2,8,02,-1,-1,0.816,0.401851937,-0.414814843,1,0,0,2.2125,Pumice_rect,8,2.212,1,2,0,2,0,1,,,,,,,,,,,,,
59048309c4ef1300011b1085,TCR,2024-06-24_13h46.49.317,LearnStrategy,2023.2.3,Win32,59.17159763,7,1,4,-0.050000014,-0.003703718,1,0,0,0.7492,rock_grid_rect_2,5,05,-1,-1,0.749,-0.371296282,-0.39907406,1,0,0,1.127,Obsidian_rect,5,1.127,1,3,0,3,0,1,,,,,,,,,,,,,
59048309c4ef1300011b1085,TCR,2024-06-24_13h46.49.317,LearnStrategy,2023.2.3,Win32,59.17159763,7,1,5,-0.026851866,-0.009259259,1,0,0,0.8821,rock_grid_rect_2,7,07,-1,-1,0.882,0.114814829,-0.25,1,0,0,1.0783,Diorite_rect,3,1.078,0,4,0,4,0,1,,,,,,,,,,,,,
59048309c4ef1300011b1085,TCR,2024-06-24_13h46.49.317,LearnStrategy,2023.2.3,Win32,59.17159763,7,1,6,0.101851852,-0.01203703,1,0,0,0.5659,rock_grid_rect_2,1,03,-1,-1,0.566,-0.10555557,-0.380555541,1,0,0,1.2613,Pegmatite_rect,6,1.261,0,5,0,5,0,1,,,,,,,,,,,,,
59048309c4ef1300011b1085,TCR,2024-06-24_13h46.49.317,LearnStrategy,2023.2.3,Win32,59.17159763,7,1,7,0.083333333,-0.0074074,1,0,0,0.6658,rock_grid_rect_2,3,14,-1,-1,0.666,0.387963048,-0.268518519,1,0,0,1.6781,Gabbro_rect,4,1.678,0,6,0,6,0,1,,,,,,,,,,,,,
59048309c4ef1300011b1085,TCR,2024-06-24_13h46.49.317,LearnStrategy,2023.2.3,Win32,59.17159763,7,1,8,0.051851838,-0.003703718,1,0,0,0.9829,rock_grid_rect_2,3,11,-1,-1,0.983,0.35555564,-0.240740741,1,0,0,0.7778,Gabbro_rect,4,0.778,0,7,0,7,0,1,,,,,,,,,,,,,
59048309c4ef1300011b1085,TCR,2024-06-24_13h46.49.317,LearnStrategy,2023.2.3,Win32,59.17159763,7,1,9,-0.034259231,-0.008333347,1,0,0,0.6652,rock_grid_rect_2,3,14,-1,-1,0.665,-0.093518504,-0.388888889,1,0,0,1.5618,Pegmatite_rect,6,1.562,0,8,0,8,0,1,,,,,,,,,,,,,
59048309c4ef1300011b1085,TCR,2024-06-24_13h46.49.317,LearnStrategy,2023.2.3,Win32,59.17159763,7,1,10,0.062962991,0.005555541,1,0,0,0.5992,rock_grid_rect_2,7,13,-1,-1,0.599,0.341666751,-0.24537037,1,0,0,1.4616,Gabbro_rect,4,1.462,0,9,0,9,0,1,,,,,,,,,,,,,
59048309c4ef1300011b1085,TCR,2024-06-24_13h46.49.317,LearnStrategy,2023.2.3,Win32,59.17159763,7,1,11,0.005555541,-0.001851859,1,0,0,0.8987,rock_grid_rect_2,6,09,-1,-1,0.899,-0.161111125,-0.410185213,1,0,0,1.2116,Pegmatite_rect,6,1.212,1,10,0,10,0,1,,,,,,,,,,,,,
59048309c4ef1300011b1085,TCR,2024-06-24_13h46.49.317,LearnStrategy,2023.2.3,Win32,59.17159763,7,1,12,0.051851838,0.000925912,1,0,0,0.5817,rock_grid_rect_2,7,13,-1,-1,0.582,-0.316666674,-0.236111111,1,0,0,2.5956,Andesite_rect,1,2.596,0,11,0,11,0,1,,,,,,,,,,,,,
59048309c4ef1300011b1085,TCR,2024-06-24_13h46.49.317,LearnStrategy,2023.2.3,Win32,59.17159763,7,1,13,0.016666695,0.000925912,1,0,0,0.6143,rock_grid_rect_2,4,11,-1,-1,0.614,-0.103703675,-0.251851894,1,0,0,1.078,Basalt_rect,2,1.078,0,12,0,12,0,1,,,,,,,,,,,,,
59048309c4ef1300011b1085,TCR,2024-06-24_13h46.49.317,LearnStrategy,2023.2.3,Win32,59.17159763,7,1,14,0.037037037,0.018518519,1,0,0,0.7155,rock_grid_rect_2,1,01,-1,-1,0.716,0.103703746,-0.384259259,1,0,0,1.828,Peridotite_rect,7,1.828,0,13,0,13,0,1,,,,,,,,,,,,,
59048309c4ef1300011b1085,TCR,2024-06-24_13h46.49.317,LearnStrategy,2023.2.3,Win32,59.17159763,7,1,15,0.037037037,0.00462963,1,0,0,0.6159,rock_grid_rect_2,4,10,-1,-1,0.616,0.40370376,-0.252777806,1,0,0,1.2285,Gabbro_rect,4,1.228,1,14,0,14,0,1,,,,,,,,,,,,,
59048309c4ef1300011b1085,TCR,2024-06-24_13h46.49.317,LearnStrategy,2023.2.3,Win32,59.17159763,7,1,16,0.040740755,0.011111118,1,0,0,0.9158,rock_grid_rect_2,4,01,-1,-1,0.916,-0.325925933,-0.259259259,1,0,0,1.6448,Andesite_rect,1,1.645,0,15,0,15,0,1,,,,,,,,,,,,,
59048309c4ef1300011b1085,TCR,2024-06-24_13h46.49.317,LearnStrategy,2023.2.3,Win32,59.17159763,7,2,1,,,,,,,,5,07,,,,,,,,,,,5,1.111,1,,,,,,-0.361111111,-0.407407407,1,0,0,1.1109,Obsidian_rect,0,0,0,0,1,
59048309c4ef1300011b1085,TCR,2024-06-24_13h46.49.317,LearnStrategy,2023.2.3,Win32,59.17159763,7,2,2,,,,,,,,4,09,,,,,,,,,,,1,3.313,0,,,,,,-0.360185164,-0.237963005,1,0,0,3.3126,Andesite_rect,1,0,1,0,1,
59048309c4ef1300011b1085,TCR,2024-06-24_13h46.49.317,LearnStrategy,2023.2.3,Win32,59.17159763,7,2,3,,,,,,,,1,04,,,,,,,,,,,4,1.405,0,,,,,,0.387963048,-0.248148176,1,0,0,1.4052,Gabbro_rect,2,0,2,0,1,
59048309c4ef1300011b1085,TCR,2024-06-24_13h46.49.317,LearnStrategy,2023.2.3,Win32,59.17159763,7,2,4,,,,,,,,8,03,,,,,,,,,,,8,0.83,1,,,,,,0.399074131,-0.382407436,1,0,0,0.8295,Pumice_rect,3,0,3,0,1,
59048309c4ef1300011b1085,TCR,2024-06-24_13h46.49.317,LearnStrategy,2023.2.3,Win32,59.17159763,7,2,5,,,,,,,,1,06,,,,,,,,,,,7,2.179,0,,,,,,0.128703718,-0.410185213,1,0,0,2.179,Peridotite_rect,4,0,4,0,1,
59048309c4ef1300011b1085,TCR,2024-06-24_13h46.49.317,LearnStrategy,2023.2.3,Win32,59.17159763,7,2,6,,,,,,,,6,06,,,,,,,,,,,6,1.056,1,,,,,,-0.170370384,-0.390740783,1,0,0,1.056,Pegmatite_rect,5,0,5,0,1,
59048309c4ef1300011b1085,TCR,2024-06-24_13h46.49.317,LearnStrategy,2023.2.3,Win32,59.17159763,7,2,7,,,,,,,,2,08,,,,,,,,,,,2,0.894,1,,,,,,-0.136111083,-0.231481481,1,0,0,0.8944,Basalt_rect,6,0,6,0,1,
59048309c4ef1300011b1085,TCR,2024-06-24_13h46.49.317,LearnStrategy,2023.2.3,Win32,59.17159763,7,2,8,,,,,,,,3,10,,,,,,,,,,,3,0.961,1,,,,,,0.133333347,-0.270370413,1,0,0,0.961,Diorite_rect,7,0,7,0,1,
59048309c4ef1300011b1085,TCR,2024-06-24_13h46.49.317,LearnStrategy,2023.2.3,Win32,59.17159763,7,2,9,,,,,,,,3,12,,,,,,,,,,,3,0.545,1,,,,,,0.133333347,-0.270370413,1,0,0,0.5446,Diorite_rect,8,0,8,0,1,
59048309c4ef1300011b1085,TCR,2024-06-24_13h46.49.317,LearnStrategy,2023.2.3,Win32,59.17159763,7,2,10,,,,,,,,7,02,,,,,,,,,,,7,0.945,1,,,,,,0.068518533,-0.421296296,1,0,0,0.9449,Peridotite_rect,9,0,9,0,1,
59048309c4ef1300011b1085,TCR,2024-06-24_13h46.49.317,LearnStrategy,2023.2.3,Win32,59.17159763,7,2,11,,,,,,,,8,13,,,,,,,,,,,1,1.945,0,,,,,,-0.375925912,-0.263888889,1,0,0,1.9449,Andesite_rect,10,0,10,0,1,
59048309c4ef1300011b1085,TCR,2024-06-24_13h46.49.317,LearnStrategy,2023.2.3,Win32,59.17159763,7,2,12,,,,,,,,5,12,,,,,,,,,,,5,1.047,1,,,,,,-0.346296275,-0.388888889,1,0,0,1.0469,Obsidian_rect,11,0,11,0,1,
59048309c4ef1300011b1085,TCR,2024-06-24_13h46.49.317,LearnStrategy,2023.2.3,Win32,59.17159763,7,2,13,,,,,,,,4,16,,,,,,,,,,,2,2.228,0,,,,,,-0.108333305,-0.256481524,1,0,0,2.2281,Basalt_rect,12,0,12,0,1,
59048309c4ef1300011b1085,TCR,2024-06-24_13h46.49.317,LearnStrategy,2023.2.3,Win32,59.17159763,7,2,14,,,,,,,,6,07,,,,,,,,,,,6,1.148,1,,,,,,-0.158333319,-0.384259259,1,0,0,1.1477,Pegmatite_rect,13,0,13,0,1,
59048309c4ef1300011b1085,TCR,2024-06-24_13h46.49.317,LearnStrategy,2023.2.3,Win32,59.17159763,7,2,15,,,,,,,,2,06,,,,,,,,,,,2,0.978,1,,,,,,-0.078703704,-0.25,1,0,0,0.9784,Basalt_rect,14,0,14,0,1,
59048309c4ef1300011b1085,TCR,2024-06-24_13h46.49.317,LearnStrategy,2023.2.3,Win32,59.17159763,7,2,16,,,,,,,,7,15,,,,,,,,,,,3,1.362,0,,,,,,0.139814801,-0.248148176,1,0,0,1.3615,Diorite_rect,15,0,15,0,1,
59048309c4ef1300011b1085,TCR,2024-06-24_13h46.49.317,LearnStrategy,2023.2.3,Win32,59.17159763,8,1,1,-0.038888861,0.01944443,1,0,0,0.7829,rock_grid_rect_2,4,11,-1,-1,0.783,-0.112037023,-0.243518547,1,0,0,1.111,Basalt_rect,2,1.111,0,0,0,0,0,1,,,,,,,,,,,,,
59048309c4ef1300011b1085,TCR,2024-06-24_13h46.49.317,LearnStrategy,2023.2.3,Win32,59.17159763,8,1,2,0.082407422,-0.009259259,1,0,0,0.966,rock_grid_rect_2,3,09,-1,-1,0.966,0.10555557,-0.247222265,1,0,0,2.0124,Diorite_rect,3,2.012,1,1,0,1,0,1,,,,,,,,,,,,,
59048309c4ef1300011b1085,TCR,2024-06-24_13h46.49.317,LearnStrategy,2023.2.3,Win32,59.17159763,8,1,3,-0.046296296,-0.020370377,1,0,0,0.9822,rock_grid_rect_2,7,12,-1,-1,0.982,0.075925968,-0.387037065,1,0,0,1.4283,Peridotite_rect,7,1.428,1,2,0,2,0,1,,,,,,,,,,,,,
59048309c4ef1300011b1085,TCR,2024-06-24_13h46.49.317,LearnStrategy,2023.2.3,Win32,59.17159763,8,1,4,-0.091666681,-0.009259259,1,0,0,0.8664,rock_grid_rect_2,7,12,-1,-1,0.866,0.10555557,-0.393518519,1,0,0,0.8444,Peridotite_rect,7,0.844,1,3,0,3,0,1,,,,,,,,,,,,,
59048309c4ef1300011b1085,TCR,2024-06-24_13h46.49.317,LearnStrategy,2023.2.3,Win32,59.17159763,8,1,5,0.046296296,0,1,0,0,0.5652,rock_grid_rect_2,1,14,-1,-1,0.565,0.098148134,-0.253703718,1,0,0,1.3291,Diorite_rect,3,1.329,0,4,0,4,0,1,,,,,,,,,,,,,
59048309c4ef1300011b1085,TCR,2024-06-24_13h46.49.317,LearnStrategy,2023.2.3,Win32,59.17159763,8,1,6,-0.006481453,-0.017592607,1,0,0,0.5983,rock_grid_rect_2,4,13,-1,-1,0.598,0.317592621,-0.255555541,1,0,0,1.0286,Gabbro_rect,4,1.029,1,5,0,5,0,1,,,,,,,,,,,,,
59048309c4ef1300011b1085,TCR,2024-06-24_13h46.49.317,LearnStrategy,2023.2.3,Win32,59.17159763,8,1,7,0.060185185,-0.0074074,1,0,0,0.8322,rock_grid_rect_2,1,03,-1,-1,0.832,-0.156481496,-0.408333319,1,0,0,1.1282,Pegmatite_rect,6,1.128,0,6,0,6,0,1,,,,,,,,,,,,,
59048309c4ef1300011b1085,TCR,2024-06-24_13h46.49.317,LearnStrategy,2023.2.3,Win32,59.17159763,8,1,8,0.022222236,-0.017592607,1,0,0,0.9489,rock_grid_rect_2,2,11,-1,-1,0.949,-0.35833334,-0.271296325,1,0,0,1.0278,Andesite_rect,1,1.028,0,7,0,7,0,1,,,,,,,,,,,,,
59048309c4ef1300011b1085,TCR,2024-06-24_13h46.49.317,LearnStrategy,2023.2.3,Win32,59.17159763,8,1,9,-0.014814801,-0.00462963,1,0,0,0.7487,rock_grid_rect_2,6,05,-1,-1,0.749,-0.318518497,-0.40370369,1,0,0,1.4944,Obsidian_rect,5,1.494,0,8,0,8,0,1,,,,,,,,,,,,,
59048309c4ef1300011b1085,TCR,2024-06-24_13h46.49.317,LearnStrategy,2023.2.3,Win32,59.17159763,8,1,10,-0.02870369,-0.00462963,1,0,0,1.4155,rock_grid_rect_2,7,05,-1,-1,1.416,0.399074131,-0.24537037,1,0,0,1.846,Gabbro_rect,4,1.846,0,9,0,9,0,1,,,,,,,,,,,,,
59048309c4ef1300011b1085,TCR,2024-06-24_13h46.49.317,LearnStrategy,2023.2.3,Win32,59.17159763,8,1,11,0.049074102,-0.01203703,1,0,0,0.565,rock_grid_rect_2,4,10,-1,-1,0.565,0.152777778,-0.257407436,1,0,0,1.3628,Diorite_rect,3,1.363,0,10,0,10,0,1,,,,,,,,,,,,,
59048309c4ef1300011b1085,TCR,2024-06-24_13h46.49.317,LearnStrategy,2023.2.3,Win32,59.17159763,8,1,12,0.017592607,-0.023148148,1,0,0,0.9314,rock_grid_rect_2,3,16,-1,-1,0.931,0.118518547,-0.261111153,1,0,0,1.012,Diorite_rect,3,1.012,1,11,0,11,0,1,,,,,,,,,,,,,
59048309c4ef1300011b1085,TCR,2024-06-24_13h46.49.317,LearnStrategy,2023.2.3,Win32,59.17159763,8,1,13,0.027777778,-0.015740748,1,0,0,0.9816,rock_grid_rect_2,1,10,-1,-1,0.982,-0.37962963,-0.25,1,0,0,1.0113,Andesite_rect,1,1.011,1,12,0,12,0,1,,,,,,,,,,,,,
59048309c4ef1300011b1085,TCR,2024-06-24_13h46.49.317,LearnStrategy,2023.2.3,Win32,59.17159763,8,1,14,0.038888931,0.011111118,1,0,0,0.6489,rock_grid_rect_2,1,01,-1,-1,0.649,0.142592607,-0.251851894,1,0,0,1.4788,Diorite_rect,3,1.479,0,13,0,13,0,1,,,,,,,,,,,,,
59048309c4ef1300011b1085,TCR,2024-06-24_13h46.49.317,LearnStrategy,2023.2.3,Win32,59.17159763,8,1,15,0.040740755,-0.00462963,1,0,0,0.5647,rock_grid_rect_2,8,16,-1,-1,0.565,0.369444529,-0.400000042,1,0,0,1.079,Pumice_rect,8,1.079,1,14,0,14,0,1,,,,,,,,,,,,,
59048309c4ef1300011b1085,TCR,2024-06-24_13h46.49.317,LearnStrategy,2023.2.3,Win32,59.17159763,8,1,16,0.046296296,0.01666666,1,0,0,0.766,rock_grid_rect_2,4,01,-1,-1,0.766,-0.104629587,-0.236111111,1,0,0,1.3619,Basalt_rect,2,1.362,0,15,0,15,0,1,,,,,,,,,,,,,
59048309c4ef1300011b1085,TCR,2024-06-24_13h46.49.317,LearnStrategy,2023.2.3,Win32,59.17159763,8,2,1,,,,,,,,3,15,,,,,,,,,,,3,3.145,1,,,,,,0.118518547,-0.262962977,1,0,0,3.1449,Diorite_rect,0,0,0,0,1,
59048309c4ef1300011b1085,TCR,2024-06-24_13h46.49.317,LearnStrategy,2023.2.3,Win32,59.17159763,8,2,2,,,,,,,,3,08,,,,,,,,,,,3,1.288,1,,,,,,0.087037051,-0.252777806,1,0,0,1.2882,Diorite_rect,1,0,1,0,1,
59048309c4ef1300011b1085,TCR,2024-06-24_13h46.49.317,LearnStrategy,2023.2.3,Win32,59.17159763,8,2,3,,,,,,,,6,08,,,,,,,,,,,6,1.311,1,,,,,,-0.181481467,-0.416666667,1,0,0,1.3112,Pegmatite_rect,2,0,2,0,1,
59048309c4ef1300011b1085,TCR,2024-06-24_13h46.49.317,LearnStrategy,2023.2.3,Win32,59.17159763,8,2,4,,,,,,,,2,02,,,,,,,,,,,2,1.028,1,,,,,,-0.050000014,-0.265740783,1,0,0,1.0281,Basalt_rect,3,0,3,0,1,
59048309c4ef1300011b1085,TCR,2024-06-24_13h46.49.317,LearnStrategy,2023.2.3,Win32,59.17159763,8,2,5,,,,,,,,5,09,,,,,,,,,,,5,1.228,1,,,,,,-0.389814801,-0.39907406,1,0,0,1.2279,Obsidian_rect,4,0,4,0,1,
59048309c4ef1300011b1085,TCR,2024-06-24_13h46.49.317,LearnStrategy,2023.2.3,Win32,59.17159763,8,2,6,,,,,,,,7,10,,,,,,,,,,,3,1.145,0,,,,,,0.085185228,-0.251851894,1,0,0,1.1448,Diorite_rect,5,0,5,0,1,
59048309c4ef1300011b1085,TCR,2024-06-24_13h46.49.317,LearnStrategy,2023.2.3,Win32,59.17159763,8,2,7,,,,,,,,8,10,,,,,,,,,,,8,1.445,1,,,,,,0.344444416,-0.389814801,1,0,0,1.4447,Pumice_rect,6,0,6,0,1,
59048309c4ef1300011b1085,TCR,2024-06-24_13h46.49.317,LearnStrategy,2023.2.3,Win32,59.17159763,8,2,8,,,,,,,,5,06,,,,,,,,,,,5,1.712,1,,,,,,-0.354629623,-0.400000042,1,0,0,1.7117,Obsidian_rect,7,0,7,0,1,
59048309c4ef1300011b1085,TCR,2024-06-24_13h46.49.317,LearnStrategy,2023.2.3,Win32,59.17159763,8,2,9,,,,,,,,8,08,,,,,,,,,,,8,1.247,1,,,,,,0.452777863,-0.418518561,1,0,0,1.2472,Pumice_rect,8,0,8,0,1,
59048309c4ef1300011b1085,TCR,2024-06-24_13h46.49.317,LearnStrategy,2023.2.3,Win32,59.17159763,8,2,10,,,,,,,,1,07,,,,,,,,,,,6,2.195,0,,,,,,-0.10555557,-0.393518519,1,0,0,2.195,Pegmatite_rect,9,0,9,0,1,
59048309c4ef1300011b1085,TCR,2024-06-24_13h46.49.317,LearnStrategy,2023.2.3,Win32,59.17159763,8,2,11,,,,,,,,1,05,,,,,,,,,,,7,1.106,0,,,,,,0.074999986,-0.407407407,1,0,0,1.106,Peridotite_rect,10,0,10,0,1,
59048309c4ef1300011b1085,TCR,2024-06-24_13h46.49.317,LearnStrategy,2023.2.3,Win32,59.17159763,8,2,12,,,,,,,,4,12,,,,,,,,,,,2,1.311,0,,,,,,-0.151851866,-0.231481481,1,0,0,1.3106,Basalt_rect,11,0,11,0,1,
59048309c4ef1300011b1085,TCR,2024-06-24_13h46.49.317,LearnStrategy,2023.2.3,Win32,59.17159763,8,2,13,,,,,,,,6,03,,,,,,,,,,,6,1.028,1,,,,,,-0.16851849,-0.381481524,1,0,0,1.0282,Pegmatite_rect,12,0,12,0,1,
59048309c4ef1300011b1085,TCR,2024-06-24_13h46.49.317,LearnStrategy,2023.2.3,Win32,59.17159763,8,2,14,,,,,,,,2,04,,,,,,,,,,,2,1.178,1,,,,,,-0.132407365,-0.259259259,1,0,0,1.1781,Basalt_rect,13,0,13,0,1,
59048309c4ef1300011b1085,TCR,2024-06-24_13h46.49.317,LearnStrategy,2023.2.3,Win32,59.17159763,8,2,15,,,,,,,,4,05,,,,,,,,,,,4,1.128,1,,,,,,0.383333418,-0.262037065,1,0,0,1.1276,Gabbro_rect,14,0,14,0,1,
59048309c4ef1300011b1085,TCR,2024-06-24_13h46.49.317,LearnStrategy,2023.2.3,Win32,59.17159763,8,2,16,,,,,,,,7,14,,,,,,,,,,,1,2.011,0,,,,,,-0.430555556,-0.255555541,1,0,0,2.0112,Andesite_rect,15,0,15,0,1,
59048309c4ef1300011b1085,TCR,2024-06-24_13h46.49.317,LearnStrategy,2023.2.3,Win32,59.17159763,9,1,1,-0.007407365,-0.01666666,1,0,0,1.0986,rock_grid_rect_2,4,10,-1,-1,1.099,0.350000028,-0.263888889,1,0,0,1.7125,Gabbro_rect,4,1.712,1,0,0,0,0,1,,,,,,,,,,,,,
59048309c4ef1300011b1085,TCR,2024-06-24_13h46.49.317,LearnStrategy,2023.2.3,Win32,59.17159763,9,1,2,-0.001851824,-0.021296289,1,0,0,0.9817,rock_grid_rect_2,2,11,-1,-1,0.982,-0.356481481,-0.237037023,1,0,0,1.2952,Andesite_rect,1,1.295,0,1,0,1,0,1,,,,,,,,,,,,,
59048309c4ef1300011b1085,TCR,2024-06-24_13h46.49.317,LearnStrategy,2023.2.3,Win32,59.17159763,9,1,3,0.017592607,0.0074074,1,0,0,0.5647,rock_grid_rect_2,1,01,-1,-1,0.565,-0.119444459,-0.404629672,1,0,0,1.0951,Pegmatite_rect,6,1.095,0,2,0,2,0,1,,,,,,,,,,,,,
59048309c4ef1300011b1085,TCR,2024-06-24_13h46.49.317,LearnStrategy,2023.2.3,Win32,59.17159763,9,1,4,0.032407407,0.00462963,1,0,0,0.6825,rock_grid_rect_2,1,14,-1,-1,0.683,0.126851894,-0.270370413,1,0,0,1.1782,Diorite_rect,3,1.178,0,3,0,3,0,1,,,,,,,,,,,,,
59048309c4ef1300011b1085,TCR,2024-06-24_13h46.49.317,LearnStrategy,2023.2.3,Win32,59.17159763,9,1,5,-0.020370342,-0.011111118,1,0,0,0.7322,rock_grid_rect_2,3,02,-1,-1,0.732,0.150000042,-0.238888917,1,0,0,0.8816,Diorite_rect,3,0.882,1,4,0,4,0,1,,,,,,,,,,,,,
59048309c4ef1300011b1085,TCR,2024-06-24_13h46.49.317,LearnStrategy,2023.2.3,Win32,59.17159763,9,1,6,-0.024999972,-0.018518519,1,0,0,0.6989,rock_grid_rect_2,7,07,-1,-1,0.699,-0.320370356,-0.240740741,1,0,0,2.012,Andesite_rect,1,2.012,0,5,0,5,0,1,,,,,,,,,,,,,
59048309c4ef1300011b1085,TCR,2024-06-24_13h46.49.317,LearnStrategy,2023.2.3,Win32,59.17159763,9,1,7,0.005555541,0.020370377,1,0,0,0.5324,rock_grid_rect_2,6,05,-1,-1,0.532,-0.138888889,-0.39907406,1,0,0,1.395,Pegmatite_rect,6,1.395,1,6,0,6,0,1,,,,,,,,,,,,,
59048309c4ef1300011b1085,TCR,2024-06-24_13h46.49.317,LearnStrategy,2023.2.3,Win32,59.17159763,9,1,8,0.021296325,-0.006481489,1,0,0,0.5152,rock_grid_rect_2,4,11,-1,-1,0.515,-0.092592593,-0.252777806,1,0,0,0.8948,Basalt_rect,2,0.895,0,7,0,7,0,1,,,,,,,,,,,,,
59048309c4ef1300011b1085,TCR,2024-06-24_13h46.49.317,LearnStrategy,2023.2.3,Win32,59.17159763,9,1,9,0.09629631,0.005555541,1,0,0,0.5986,rock_grid_rect_2,1,03,-1,-1,0.599,0.079629616,-0.391666695,1,0,0,1.1782,Peridotite_rect,7,1.178,0,8,0,8,0,1,,,,,,,,,,,,,
59048309c4ef1300011b1085,TCR,2024-06-24_13h46.49.317,LearnStrategy,2023.2.3,Win32,59.17159763,9,1,10,-0.001851824,0.01203703,1,0,0,0.8159,rock_grid_rect_2,4,01,-1,-1,0.816,-0.378703683,-0.256481524,1,0,0,1.4784,Andesite_rect,1,1.478,0,9,0,9,0,1,,,,,,,,,,,,,
59048309c4ef1300011b1085,TCR,2024-06-24_13h46.49.317,LearnStrategy,2023.2.3,Win32,59.17159763,9,1,11,0.104629658,-0.013888889,1,0,0,0.6333,rock_grid_rect_2,3,11,-1,-1,0.633,-0.099074046,-0.413888931,1,0,0,1.0795,Pegmatite_rect,6,1.08,0,10,0,10,0,1,,,,,,,,,,,,,
59048309c4ef1300011b1085,TCR,2024-06-24_13h46.49.317,LearnStrategy,2023.2.3,Win32,59.17159763,9,1,12,0.025925954,-0.00462963,1,0,0,0.498,rock_grid_rect_2,7,13,-1,-1,0.498,0.433333362,-0.271296325,1,0,0,1.0615,Gabbro_rect,4,1.062,0,11,0,11,0,1,,,,,,,,,,,,,
59048309c4ef1300011b1085,TCR,2024-06-24_13h46.49.317,LearnStrategy,2023.2.3,Win32,59.17159763,9,1,13,0.058333362,-0.013888889,1,0,0,0.4823,rock_grid_rect_2,8,04,-1,-1,0.482,0.381481453,-0.396296325,1,0,0,2.2621,Pumice_rect,8,2.262,1,12,0,12,0,1,,,,,,,,,,,,,
59048309c4ef1300011b1085,TCR,2024-06-24_13h46.49.317,LearnStrategy,2023.2.3,Win32,59.17159763,9,1,14,0.044444473,-0.00462963,1,0,0,0.6822,rock_grid_rect_2,7,13,-1,-1,0.682,0.323148233,-0.231481481,1,0,0,1.2288,Gabbro_rect,4,1.229,0,13,0,13,0,1,,,,,,,,,,,,,
59048309c4ef1300011b1085,TCR,2024-06-24_13h46.49.317,LearnStrategy,2023.2.3,Win32,59.17159763,9,1,15,0.058333362,-0.018518519,1,0,0,0.7979,rock_grid_rect_2,7,08,-1,-1,0.798,0.148148148,-0.25462963,1,0,0,0.9788,Diorite_rect,3,0.979,0,14,0,14,0,1,,,,,,,,,,,,,
59048309c4ef1300011b1085,TCR,2024-06-24_13h46.49.317,LearnStrategy,2023.2.3,Win32,59.17159763,9,1,16,0.067592621,-0.017592607,1,0,0,0.6314,rock_grid_rect_2,1,10,-1,-1,0.631,-0.300925926,-0.258333347,1,0,0,2.4962,Andesite_rect,1,2.496,1,15,0,15,0,1,,,,,,,,,,,,,
59048309c4ef1300011b1085,TCR,2024-06-24_13h46.49.317,LearnStrategy,2023.2.3,Win32,59.17159763,9,2,1,,,,,,,,4,08,,,,,,,,,,,4,3.332,1,,,,,,0.375925982,-0.25,1,0,0,3.3322,Gabbro_rect,0,0,0,0,1,
59048309c4ef1300011b1085,TCR,2024-06-24_13h46.49.317,LearnStrategy,2023.2.3,Win32,59.17159763,9,2,2,,,,,,,,1,09,,,,,,,,,,,2,1.005,0,,,,,,-0.17314812,-0.231481481,1,0,0,1.0051,Basalt_rect,1,0,1,0,1,
59048309c4ef1300011b1085,TCR,2024-06-24_13h46.49.317,LearnStrategy,2023.2.3,Win32,59.17159763,9,2,3,,,,,,,,5,16,,,,,,,,,,,5,1.095,1,,,,,,-0.375925912,-0.395370413,1,0,0,1.0949,Obsidian_rect,2,0,2,0,1,
59048309c4ef1300011b1085,TCR,2024-06-24_13h46.49.317,LearnStrategy,2023.2.3,Win32,59.17159763,9,2,4,,,,,,,,8,06,,,,,,,,,,,8,0.978,1,,,,,,0.339814787,-0.397222236,1,0,0,0.9776,Pumice_rect,3,0,3,0,1,
59048309c4ef1300011b1085,TCR,2024-06-24_13h46.49.317,LearnStrategy,2023.2.3,Win32,59.17159763,9,2,5,,,,,,,,6,10,,,,,,,,,,,6,1.228,1,,,,,,-0.151851866,-0.389814801,1,0,0,1.2282,Pegmatite_rect,4,0,4,0,1,
59048309c4ef1300011b1085,TCR,2024-06-24_13h46.49.317,LearnStrategy,2023.2.3,Win32,59.17159763,9,2,6,,,,,,,,4,15,,,,,,,,,,,7,2.429,0,,,,,,0.173148191,-0.417592578,1,0,0,2.4288,Peridotite_rect,5,0,5,0,1,
59048309c4ef1300011b1085,TCR,2024-06-24_13h46.49.317,LearnStrategy,2023.2.3,Win32,59.17159763,9,2,7,,,,,,,,1,16,,,,,,,,,,,3,1.011,0,,,,,,0.148148148,-0.240740741,1,0,0,1.0106,Diorite_rect,6,0,6,0,1,
59048309c4ef1300011b1085,TCR,2024-06-24_13h46.49.317,LearnStrategy,2023.2.3,Win32,59.17159763,9,2,8,,,,,,,,5,11,,,,,,,,,,,5,1.212,1,,,,,,-0.371296282,-0.402777778,1,0,0,1.2118,Obsidian_rect,7,0,7,0,1,
59048309c4ef1300011b1085,TCR,2024-06-24_13h46.49.317,LearnStrategy,2023.2.3,Win32,59.17159763,9,2,9,,,,,,,,7,04,,,,,,,,,,,6,1.648,0,,,,,,-0.149999972,-0.404629672,1,0,0,1.6481,Pegmatite_rect,8,0,8,0,1,
59048309c4ef1300011b1085,TCR,2024-06-24_13h46.49.317,LearnStrategy,2023.2.3,Win32,59.17159763,9,2,10,,,,,,,,2,01,,,,,,,,,,,2,0.845,1,,,,,,-0.131481453,-0.247222265,1,0,0,0.8448,Basalt_rect,9,0,9,0,1,
59048309c4ef1300011b1085,TCR,2024-06-24_13h46.49.317,LearnStrategy,2023.2.3,Win32,59.17159763,9,2,11,,,,,,,,7,06,,,,,,,,,,,7,1.428,1,,,,,,0.176851838,-0.400000042,1,0,0,1.428,Peridotite_rect,10,0,10,0,1,
59048309c4ef1300011b1085,TCR,2024-06-24_13h46.49.317,LearnStrategy,2023.2.3,Win32,59.17159763,9,2,12,,,,,,,,6,15,,,,,,,,,,,6,1.027,1,,,,,,-0.14907406,-0.382407436,1,0,0,1.0273,Pegmatite_rect,11,0,11,0,1,
59048309c4ef1300011b1085,TCR,2024-06-24_13h46.49.317,LearnStrategy,2023.2.3,Win32,59.17159763,9,2,13,,,,,,,,3,06,,,,,,,,,,,3,0.945,1,,,,,,0.130555541,-0.268518519,1,0,0,0.9447,Diorite_rect,12,0,12,0,1,
59048309c4ef1300011b1085,TCR,2024-06-24_13h46.49.317,LearnStrategy,2023.2.3,Win32,59.17159763,9,2,14,,,,,,,,3,07,,,,,,,,,,,3,0.994,1,,,,,,0.130555541,-0.268518519,1,0,0,0.9939,Diorite_rect,13,0,13,0,1,
59048309c4ef1300011b1085,TCR,2024-06-24_13h46.49.317,LearnStrategy,2023.2.3,Win32,59.17159763,9,2,15,,,,,,,,2,14,,,,,,,,,,,1,4.112,0,,,,,,-0.3675926,-0.238888917,1,0,0,4.1123,Andesite_rect,14,0,14,0,1,
59048309c4ef1300011b1085,TCR,2024-06-24_13h46.49.317,LearnStrategy,2023.2.3,Win32,59.17159763,9,2,16,,,,,,,,8,15,,,,,,,,,,,8,1.84,1,,,,,,0.3648149,-0.382407436,1,0,0,1.8396,Pumice_rect,15,0,15,0,1,
59048309c4ef1300011b1085,TCR,2024-06-24_13h46.49.317,LearnStrategy,2023.2.3,Win32,59.17159763,,,,,,,,,,,,,,,,,,,,,,,,,,,,,,,,,,,,,,,,,,,1
59048309c4ef1300011b1085,TCR,2024-06-24_13h46.49.317,LearnStrategy,2023.2.3,Win32,59.17159763,,,,,,,,,,,,,,,,,,,,,,,,,,,,,,,,,,,,,,,,,,,
59048309c4ef1300011b1085,TCR,2024-06-24_13h46.49.317,LearnStrategy,2023.2.3,Win32,59.17159763,,,,,,,,,,,7,07,1,1,,,,,,,,,,,,,,,,,,,,,,,,,,,,,
59048309c4ef1300011b1085,TCR,2024-06-24_13h46.49.317,LearnStrategy,2023.2.3,Win32,59.17159763,,,,,,,,,,,5,10,1,2,,,,,,,,,,,,,,,,,,,,,,,,,,,,,
59048309c4ef1300011b1085,TCR,2024-06-24_13h46.49.317,LearnStrategy,2023.2.3,Win32,59.17159763,,,,,,,,,,,4,11,1,3,,,,,,,,,,,,,,,,,,,,,,,,,,,,,
59048309c4ef1300011b1085,TCR,2024-06-24_13h46.49.317,LearnStrategy,2023.2.3,Win32,59.17159763,,,,,,,,,,,8,04,1,4,,,,,,,,,,,,,,,,,,,,,,,,,,,,,
59048309c4ef1300011b1085,TCR,2024-06-24_13h46.49.317,LearnStrategy,2023.2.3,Win32,59.17159763,,,,,,,,,,,4,03,1,5,,,,,,,,,,,,,,,,,,,,,,,,,,,,,
59048309c4ef1300011b1085,TCR,2024-06-24_13h46.49.317,LearnStrategy,2023.2.3,Win32,59.17159763,,,,,,,,,,,6,12,1,6,,,,,,,,,,,,,,,,,,,,,,,,,,,,,
59048309c4ef1300011b1085,TCR,2024-06-24_13h46.49.317,LearnStrategy,2023.2.3,Win32,59.17159763,,,,,,,,,,,4,10,1,7,,,,,,,,,,,,,,,,,,,,,,,,,,,,,
59048309c4ef1300011b1085,TCR,2024-06-24_13h46.49.317,LearnStrategy,2023.2.3,Win32,59.17159763,,,,,,,,,,,4,13,1,8,,,,,,,,,,,,,,,,,,,,,,,,,,,,,
59048309c4ef1300011b1085,TCR,2024-06-24_13h46.49.317,LearnStrategy,2023.2.3,Win32,59.17159763,,,,,,,,,,,3,09,2,1,,,,,,,,,,,,,,,,,,,,,,,,,,,,,
59048309c4ef1300011b1085,TCR,2024-06-24_13h46.49.317,LearnStrategy,2023.2.3,Win32,59.17159763,,,,,,,,,,,1,03,2,2,,,,,,,,,,,,,,,,,,,,,,,,,,,,,
59048309c4ef1300011b1085,TCR,2024-06-24_13h46.49.317,LearnStrategy,2023.2.3,Win32,59.17159763,,,,,,,,,,,1,14,2,3,,,,,,,,,,,,,,,,,,,,,,,,,,,,,
59048309c4ef1300011b1085,TCR,2024-06-24_13h46.49.317,LearnStrategy,2023.2.3,Win32,59.17159763,,,,,,,,,,,5,08,2,4,,,,,,,,,,,,,,,,,,,,,,,,,,,,,
59048309c4ef1300011b1085,TCR,2024-06-24_13h46.49.317,LearnStrategy,2023.2.3,Win32,59.17159763,,,,,,,,,,,2,05,2,5,,,,,,,,,,,,,,,,,,,,,,,,,,,,,
59048309c4ef1300011b1085,TCR,2024-06-24_13h46.49.317,LearnStrategy,2023.2.3,Win32,59.17159763,,,,,,,,,,,2,10,2,6,,,,,,,,,,,,,,,,,,,,,,,,,,,,,
59048309c4ef1300011b1085,TCR,2024-06-24_13h46.49.317,LearnStrategy,2023.2.3,Win32,59.17159763,,,,,,,,,,,8,02,2,7,,,,,,,,,,,,,,,,,,,,,,,,,,,,,
59048309c4ef1300011b1085,TCR,2024-06-24_13h46.49.317,LearnStrategy,2023.2.3,Win32,59.17159763,,,,,,,,,,,5,14,2,8,,,,,,,,,,,,,,,,,,,,,,,,,,,,,
59048309c4ef1300011b1085,TCR,2024-06-24_13h46.49.317,LearnStrategy,2023.2.3,Win32,59.17159763,,,,,,,,,,,4,14,3,1,,,,,,,,,,,,,,,,,,,,,,,,,,,,,
59048309c4ef1300011b1085,TCR,2024-06-24_13h46.49.317,LearnStrategy,2023.2.3,Win32,59.17159763,,,,,,,,,,,3,14,3,2,,,,,,,,,,,,,,,,,,,,,,,,,,,,,
59048309c4ef1300011b1085,TCR,2024-06-24_13h46.49.317,LearnStrategy,2023.2.3,Win32,59.17159763,,,,,,,,,,,6,09,3,3,,,,,,,,,,,,,,,,,,,,,,,,,,,,,
59048309c4ef1300011b1085,TCR,2024-06-24_13h46.49.317,LearnStrategy,2023.2.3,Win32,59.17159763,,,,,,,,,,,6,16,3,4,,,,,,,,,,,,,,,,,,,,,,,,,,,,,
59048309c4ef1300011b1085,TCR,2024-06-24_13h46.49.317,LearnStrategy,2023.2.3,Win32,59.17159763,,,,,,,,,,,7,08,3,5,,,,,,,,,,,,,,,,,,,,,,,,,,,,,
59048309c4ef1300011b1085,TCR,2024-06-24_13h46.49.317,LearnStrategy,2023.2.3,Win32,59.17159763,,,,,,,,,,,1,01,3,6,,,,,,,,,,,,,,,,,,,,,,,,,,,,,
59048309c4ef1300011b1085,TCR,2024-06-24_13h46.49.317,LearnStrategy,2023.2.3,Win32,59.17159763,,,,,,,,,,,8,09,3,7,,,,,,,,,,,,,,,,,,,,,,,,,,,,,
59048309c4ef1300011b1085,TCR,2024-06-24_13h46.49.317,LearnStrategy,2023.2.3,Win32,59.17159763,,,,,,,,,,,2,12,3,8,,,,,,,,,,,,,,,,,,,,,,,,,,,,,
59048309c4ef1300011b1085,TCR,2024-06-24_13h46.49.317,LearnStrategy,2023.2.3,Win32,59.17159763,,,,,,,,,,,4,01,4,1,,,,,,,,,,,,,,,,,,,,,,,,,,,,,
59048309c4ef1300011b1085,TCR,2024-06-24_13h46.49.317,LearnStrategy,2023.2.3,Win32,59.17159763,,,,,,,,,,,6,13,4,2,,,,,,,,,,,,,,,,,,,,,,,,,,,,,
59048309c4ef1300011b1085,TCR,2024-06-24_13h46.49.317,LearnStrategy,2023.2.3,Win32,59.17159763,,,,,,,,,,,1,10,4,3,,,,,,,,,,,,,,,,,,,,,,,,,,,,,
59048309c4ef1300011b1085,TCR,2024-06-24_13h46.49.317,LearnStrategy,2023.2.3,Win32,59.17159763,,,,,,,,,,,8,05,4,4,,,,,,,,,,,,,,,,,,,,,,,,,,,,,
59048309c4ef1300011b1085,TCR,2024-06-24_13h46.49.317,LearnStrategy,2023.2.3,Win32,59.17159763,,,,,,,,,,,5,02,4,5,,,,,,,,,,,,,,,,,,,,,,,,,,,,,
59048309c4ef1300011b1085,TCR,2024-06-24_13h46.49.317,LearnStrategy,2023.2.3,Win32,59.17159763,,,,,,,,,,,6,05,4,6,,,,,,,,,,,,,,,,,,,,,,,,,,,,,
59048309c4ef1300011b1085,TCR,2024-06-24_13h46.49.317,LearnStrategy,2023.2.3,Win32,59.17159763,,,,,,,,,,,3,16,4,7,,,,,,,,,,,,,,,,,,,,,,,,,,,,,
59048309c4ef1300011b1085,TCR,2024-06-24_13h46.49.317,LearnStrategy,2023.2.3,Win32,59.17159763,,,,,,,,,,,8,14,4,8,,,,,,,,,,,,,,,,,,,,,,,,,,,,,
59048309c4ef1300011b1085,TCR,2024-06-24_13h46.49.317,LearnStrategy,2023.2.3,Win32,59.17159763,,,,,,,,,,,2,09,5,1,,,,,,,,,,,,,,,,,,,,,,,,,,,,,
59048309c4ef1300011b1085,TCR,2024-06-24_13h46.49.317,LearnStrategy,2023.2.3,Win32,59.17159763,,,,,,,,,,,2,16,5,2,,,,,,,,,,,,,,,,,,,,,,,,,,,,,
59048309c4ef1300011b1085,TCR,2024-06-24_13h46.49.317,LearnStrategy,2023.2.3,Win32,59.17159763,,,,,,,,,,,1,11,5,3,,,,,,,,,,,,,,,,,,,,,,,,,,,,,
59048309c4ef1300011b1085,TCR,2024-06-24_13h46.49.317,LearnStrategy,2023.2.3,Win32,59.17159763,,,,,,,,,,,3,11,5,4,,,,,,,,,,,,,,,,,,,,,,,,,,,,,
59048309c4ef1300011b1085,TCR,2024-06-24_13h46.49.317,LearnStrategy,2023.2.3,Win32,59.17159763,,,,,,,,,,,3,13,5,5,,,,,,,,,,,,,,,,,,,,,,,,,,,,,
59048309c4ef1300011b1085,TCR,2024-06-24_13h46.49.317,LearnStrategy,2023.2.3,Win32,59.17159763,,,,,,,,,,,5,04,5,6,,,,,,,,,,,,,,,,,,,,,,,,,,,,,
59048309c4ef1300011b1085,TCR,2024-06-24_13h46.49.317,LearnStrategy,2023.2.3,Win32,59.17159763,,,,,,,,,,,7,13,5,7,,,,,,,,,,,,,,,,,,,,,,,,,,,,,
59048309c4ef1300011b1085,TCR,2024-06-24_13h46.49.317,LearnStrategy,2023.2.3,Win32,59.17159763,,,,,,,,,,,7,12,5,8,,,,,,,,,,,,,,,,,,,,,,,,,,,,,
59048309c4ef1300011b1085,TCR,2024-06-24_13h46.49.317,LearnStrategy,2023.2.3,Win32,59.17159763,,,,,,,,,,,2,11,6,1,,,,,,,,,,,,,,,,,,,,,,,,,,,,,
59048309c4ef1300011b1085,TCR,2024-06-24_13h46.49.317,LearnStrategy,2023.2.3,Win32,59.17159763,,,,,,,,,,,1,02,6,2,,,,,,,,,,,,,,,,,,,,,,,,,,,,,
59048309c4ef1300011b1085,TCR,2024-06-24_13h46.49.317,LearnStrategy,2023.2.3,Win32,59.17159763,,,,,,,,,,,3,02,6,3,,,,,,,,,,,,,,,,,,,,,,,,,,,,,
59048309c4ef1300011b1085,TCR,2024-06-24_13h46.49.317,LearnStrategy,2023.2.3,Win32,59.17159763,,,,,,,,,,,5,05,6,4,,,,,,,,,,,,,,,,,,,,,,,,,,,,,
59048309c4ef1300011b1085,TCR,2024-06-24_13h46.49.317,LearnStrategy,2023.2.3,Win32,59.17159763,,,,,,,,,,,7,16,6,5,,,,,,,,,,,,,,,,,,,,,,,,,,,,,
59048309c4ef1300011b1085,TCR,2024-06-24_13h46.49.317,LearnStrategy,2023.2.3,Win32,59.17159763,,,,,,,,,,,6,11,6,6,,,,,,,,,,,,,,,,,,,,,,,,,,,,,
59048309c4ef1300011b1085,TCR,2024-06-24_13h46.49.317,LearnStrategy,2023.2.3,Win32,59.17159763,,,,,,,,,,,7,05,6,7,,,,,,,,,,,,,,,,,,,,,,,,,,,,,
59048309c4ef1300011b1085,TCR,2024-06-24_13h46.49.317,LearnStrategy,2023.2.3,Win32,59.17159763,,,,,,,,,,,8,16,6,8,,,,,,,,,,,,,,,,,,,,,,,,,,,,,