participant,condition,date,expName,psychopyVersion,OS,frameRate,block,phase,trial,learn_mouse.x,learn_mouse.y,learn_mouse.leftButton,learn_mouse.midButton,learn_mouse.rightButton,learn_mouse.time,learn_mouse.clicked_name,cat,token,row,col,t_select,cat_rec,token_rec,cat_mouse_l.x,cat_mouse_l.y,cat_mouse_l.leftButton,cat_mouse_l.midButton,cat_mouse_l.rightButton,cat_mouse_l.time,cat_mouse_l.clicked_name,resp,t_resp,corr,train_trials.thisRepN,train_trials.thisTrialN,train_trials.thisN,train_trials.thisIndex,train_trials.ran,cat_mouse_t.x,cat_mouse_t.y,cat_mouse_t.leftButton,cat_mouse_t.midButton,cat_mouse_t.rightButton,cat_mouse_t.time,cat_mouse_t.clicked_name,test_trials.thisRepN,test_trials.thisTrialN,test_trials.thisN,test_trials.thisIndex,test_trials.ran,Bonus
591d369e88bbb500013a8517,SCR,2024-06-21_11h02.31.616,LearnStrategy,2023.2.3,Win32,59.52380952,,,,,,,,,,,,,,,,,,,,,,,,,,,,,,,,,,,,,,,,,,,,,
591d369e88bbb500013a8517,SCR,2024-06-21_11h02.31.616,LearnStrategy,2023.2.3,Win32,59.52380952,1,1,1,0.238095238,-0.078095238,1,0,0,3.4864,Obsidian_06,5,06,3,6,3.486,7,06,-0.373333333,-0.24,1,0,0,9.2282,Andesite_rect,1,9.228,0,0,0,0,0,1,,,,,,,,,,,,,
591d369e88bbb500013a8517,SCR,2024-06-21_11h02.31.616,LearnStrategy,2023.2.3,Win32,59.52380952,1,1,2,0.217142857,0.255238095,1,0,0,1.4991,Gabbro_14,4,14,5,6,1.499,4,14,-0.387619048,-0.25047619,1,0,0,3.4711,Andesite_rect,1,3.471,0,1,0,1,0,1,,,,,,,,,,,,,
591d369e88bbb500013a8517,SCR,2024-06-21_11h02.31.616,LearnStrategy,2023.2.3,Win32,59.52380952,1,1,3,-0.224761905,-0.094285714,1,0,0,1.401,Diorite_16,3,16,3,3,1.401,3,16,-0.325714286,-0.248571429,1,0,0,3.6703,Andesite_rect,1,3.67,0,2,0,2,0,1,,,,,,,,,,,,,
591d369e88bbb500013a8517,SCR,2024-06-21_11h02.31.616,LearnStrategy,2023.2.3,Win32,59.52380952,1,1,4,0.397142857,0.251428571,1,0,0,3.5563,Obsidian_05,5,05,5,7,3.556,5,05,-0.376190476,-0.240952381,1,0,0,1.9268,Andesite_rect,1,1.927,0,3,0,3,0,1,,,,,,,,,,,,,
591d369e88bbb500013a8517,SCR,2024-06-21_11h02.31.616,LearnStrategy,2023.2.3,Win32,59.52380952,1,1,5,-0.224761905,0.404761905,1,0,0,4.5755,Obsidian_07,5,07,6,3,4.576,2,04,-0.353333333,-0.38952381,1,0,0,2.347,Obsidian_rect,5,2.347,1,4,0,4,0,1,,,,,,,,,,,,,
591d369e88bbb500013a8517,SCR,2024-06-21_11h02.31.616,LearnStrategy,2023.2.3,Win32,59.52380952,1,1,6,-0.559047619,0.414285714,1,0,0,1.3171,Basalt_11,2,11,6,1,1.317,2,11,0.38952381,-0.397142857,1,0,0,2.7519,Pumice_rect,8,2.752,0,5,0,5,0,1,,,,,,,,,,,,,
591d369e88bbb500013a8517,SCR,2024-06-21_11h02.31.616,LearnStrategy,2023.2.3,Win32,59.52380952,1,1,7,-0.398095238,-0.408571429,1,0,0,3.8244,Pumice_15,8,15,1,2,3.824,5,07,0.365714286,-0.4,1,0,0,1.272,Pumice_rect,8,1.272,1,6,0,6,0,1,,,,,,,,,,,,,
591d369e88bbb500013a8517,SCR,2024-06-21_11h02.31.616,LearnStrategy,2023.2.3,Win32,59.52380952,1,1,8,0.42,-0.263809524,1,0,0,2.0005,Pegmatite_08,6,08,2,7,2,4,08,0.145714286,-0.241904762,1,0,0,1.3932,Diorite_rect,3,1.393,0,7,0,7,0,1,,,,,,,,,,,,,
591d369e88bbb500013a8517,SCR,2024-06-21_11h02.31.616,LearnStrategy,2023.2.3,Win32,59.52380952,1,1,9,0.527619048,0.080952381,1,0,0,2.7041,Pumice_03,8,03,4,8,2.704,8,03,0.34952381,-0.404761905,1,0,0,1.6945,Pumice_rect,8,1.695,1,8,0,8,0,1,,,,,,,,,,,,,
591d369e88bbb500013a8517,SCR,2024-06-21_11h02.31.616,LearnStrategy,2023.2.3,Win32,59.52380952,1,1,10,-0.383809524,0.267619048,1,0,0,1.2333,Pegmatite_06,6,06,5,2,1.233,6,06,-0.34952381,-0.248571429,1,0,0,1.4823,Andesite_rect,1,1.482,0,9,0,9,0,1,,,,,,,,,,,,,
591d369e88bbb500013a8517,SCR,2024-06-21_11h02.31.616,LearnStrategy,2023.2.3,Win32,59.52380952,1,1,11,0.560952381,0.257142857,1,0,0,2.7549,Andesite_07,1,07,5,8,2.755,1,07,0.1,-0.248571429,1,0,0,6.0581,Diorite_rect,3,6.058,0,10,0,10,0,1,,,,,,,,,,,,,
591d369e88bbb500013a8517,SCR,2024-06-21_11h02.31.616,LearnStrategy,2023.2.3,Win32,59.52380952,1,1,12,-0.202857143,-0.09047619,1,0,0,1.8016,Diorite_16,3,16,3,3,1.802,8,06,-0.375238095,-0.241904762,1,0,0,0.8183,Andesite_rect,1,0.818,0,11,0,11,0,1,,,,,,,,,,,,,
591d369e88bbb500013a8517,SCR,2024-06-21_11h02.31.616,LearnStrategy,2023.2.3,Win32,59.52380952,1,1,13,0.066666667,-0.087619048,1,0,0,1.5674,Diorite_02,3,02,3,5,1.567,1,11,-0.334285714,-0.266666667,1,0,0,1.1144,Andesite_rect,1,1.114,0,12,0,12,0,1,,,,,,,,,,,,,
591d369e88bbb500013a8517,SCR,2024-06-21_11h02.31.616,LearnStrategy,2023.2.3,Win32,59.52380952,1,1,14,-0.396190476,-0.255238095,1,0,0,2.0311,Obsidian_02,5,02,2,2,2.031,7,12,-0.396190476,-0.255238095,1,0,0,0.9972,Andesite_rect,1,0.997,0,13,0,13,0,1,,,,,,,,,,,,,
591d369e88bbb500013a8517,SCR,2024-06-21_11h02.31.616,LearnStrategy,2023.2.3,Win32,59.52380952,1,1,15,0.531428571,-0.243809524,1,0,0,2.3535,Pegmatite_11,6,11,2,8,2.353,6,11,-0.103809524,-0.408571429,1,0,0,2.8359,Pegmatite_rect,6,2.836,1,14,0,14,0,1,,,,,,,,,,,,,
591d369e88bbb500013a8517,SCR,2024-06-21_11h02.31.616,LearnStrategy,2023.2.3,Win32,59.52380952,1,1,16,-0.218095238,0.265714286,1,0,0,1.4184,Diorite_15,3,15,5,3,1.418,3,15,-0.173333333,-0.237142857,1,0,0,3.2218,Basalt_rect,2,3.222,0,15,0,15,0,1,,,,,,,,,,,,,
591d369e88bbb500013a8517,SCR,2024-06-21_11h02.31.616,LearnStrategy,2023.2.3,Win32,59.52380952,1,2,1,,,,,,,,3,14,,,,,,,,,,,,,3,5.761,1,,,,,,0.138095238,-0.242857143,1,0,0,5.7615,Diorite_rect,0,0,0,0,1,
591d369e88bbb500013a8517,SCR,2024-06-21_11h02.31.616,LearnStrategy,2023.2.3,Win32,59.52380952,1,2,2,,,,,,,,4,11,,,,,,,,,,,,,2,3.637,0,,,,,,-0.151428571,-0.236190476,1,0,0,3.6372,Basalt_rect,1,0,1,0,1,
591d369e88bbb500013a8517,SCR,2024-06-21_11h02.31.616,LearnStrategy,2023.2.3,Win32,59.52380952,1,2,3,,,,,,,,7,14,,,,,,,,,,,,,2,2.803,0,,,,,,-0.151428571,-0.236190476,1,0,0,2.8027,Basalt_rect,2,0,2,0,1,
591d369e88bbb500013a8517,SCR,2024-06-21_11h02.31.616,LearnStrategy,2023.2.3,Win32,59.52380952,1,2,4,,,,,,,,1,02,,,,,,,,,,,,,2,4.843,0,,,,,,-0.113333333,-0.248571429,1,0,0,4.8427,Basalt_rect,3,0,3,0,1,
591d369e88bbb500013a8517,SCR,2024-06-21_11h02.31.616,LearnStrategy,2023.2.3,Win32,59.52380952,1,2,5,,,,,,,,7,16,,,,,,,,,,,,,4,2.216,0,,,,,,0.362857143,-0.261904762,1,0,0,2.2161,Gabbro_rect,4,0,4,0,1,
591d369e88bbb500013a8517,SCR,2024-06-21_11h02.31.616,LearnStrategy,2023.2.3,Win32,59.52380952,1,2,6,,,,,,,,3,13,,,,,,,,,,,,,2,1.983,0,,,,,,-0.046666667,-0.24952381,1,0,0,1.9829,Basalt_rect,5,0,5,0,1,
591d369e88bbb500013a8517,SCR,2024-06-21_11h02.31.616,LearnStrategy,2023.2.3,Win32,59.52380952,1,2,7,,,,,,,,5,08,,,,,,,,,,,,,6,3.61,0,,,,,,-0.085714286,-0.381904762,1,0,0,3.6102,Pegmatite_rect,6,0,6,0,1,
591d369e88bbb500013a8517,SCR,2024-06-21_11h02.31.616,LearnStrategy,2023.2.3,Win32,59.52380952,1,2,8,,,,,,,,2,08,,,,,,,,,,,,,5,3.288,0,,,,,,-0.342857143,-0.400952381,1,0,0,3.2882,Obsidian_rect,7,0,7,0,1,
591d369e88bbb500013a8517,SCR,2024-06-21_11h02.31.616,LearnStrategy,2023.2.3,Win32,59.52380952,1,2,9,,,,,,,,4,13,,,,,,,,,,,,,3,9.311,0,,,,,,0.153333333,-0.259047619,1,0,0,9.3115,Diorite_rect,8,0,8,0,1,
591d369e88bbb500013a8517,SCR,2024-06-21_11h02.31.616,LearnStrategy,2023.2.3,Win32,59.52380952,1,2,10,,,,,,,,6,05,,,,,,,,,,,,,6,4.422,1,,,,,,-0.061904762,-0.41047619,1,0,0,4.4223,Pegmatite_rect,9,0,9,0,1,
591d369e88bbb500013a8517,SCR,2024-06-21_11h02.31.616,LearnStrategy,2023.2.3,Win32,59.52380952,1,2,11,,,,,,,,1,01,,,,,,,,,,,,,2,5.477,0,,,,,,-0.161904762,-0.255238095,1,0,0,5.4769,Basalt_rect,10,0,10,0,1,
591d369e88bbb500013a8517,SCR,2024-06-21_11h02.31.616,LearnStrategy,2023.2.3,Win32,59.52380952,1,2,12,,,,,,,,5,12,,,,,,,,,,,,,7,1.78,0,,,,,,0.040952381,-0.397142857,1,0,0,1.7797,Peridotite_rect,11,0,11,0,1,
591d369e88bbb500013a8517,SCR,2024-06-21_11h02.31.616,LearnStrategy,2023.2.3,Win32,59.52380952,1,2,13,,,,,,,,8,04,,,,,,,,,,,,,2,3.806,0,,,,,,-0.086666667,-0.26,1,0,0,3.8059,Basalt_rect,12,0,12,0,1,
591d369e88bbb500013a8517,SCR,2024-06-21_11h02.31.616,LearnStrategy,2023.2.3,Win32,59.52380952,1,2,14,,,,,,,,8,13,,,,,,,,,,,,,2,1.634,0,,,,,,-0.088571429,-0.26,1,0,0,1.6339,Basalt_rect,13,0,13,0,1,
591d369e88bbb500013a8517,SCR,2024-06-21_11h02.31.616,LearnStrategy,2023.2.3,Win32,59.52380952,1,2,15,,,,,,,,6,13,,,,,,,,,,,,,4,2.368,0,,,,,,0.344761905,-0.268571429,1,0,0,2.3683,Gabbro_rect,14,0,14,0,1,
591d369e88bbb500013a8517,SCR,2024-06-21_11h02.31.616,LearnStrategy,2023.2.3,Win32,59.52380952,1,2,16,,,,,,,,2,02,,,,,,,,,,,,,2,1.517,1,,,,,,-0.078095238,-0.26,1,0,0,1.5169,Basalt_rect,15,0,15,0,1,
591d369e88bbb500013a8517,SCR,2024-06-21_11h02.31.616,LearnStrategy,2023.2.3,Win32,59.52380952,2,1,1,-0.555238095,-0.453333333,1,0,0,2.0691,Gabbro_16,4,16,1,1,2.069,4,16,-0.315238095,-0.245714286,1,0,0,2.5675,Andesite_rect,1,2.567,0,0,0,0,0,1,,,,,,,,,,,,,
591d369e88bbb500013a8517,SCR,2024-06-21_11h02.31.616,LearnStrategy,2023.2.3,Win32,59.52380952,2,1,2,0.558095238,0.404761905,1,0,0,1.7682,Peridotite_06,7,06,6,8,1.768,7,06,-0.096190476,-0.241904762,1,0,0,1.7823,Basalt_rect,2,1.782,0,1,0,1,0,1,,,,,,,,,,,,,
591d369e88bbb500013a8517,SCR,2024-06-21_11h02.31.616,LearnStrategy,2023.2.3,Win32,59.52380952,2,1,3,0.185714286,0.094285714,1,0,0,0.9661,Pegmatite_15,6,15,4,6,0.966,6,15,-0.064761905,-0.393333333,1,0,0,3.1368,Pegmatite_rect,6,3.137,1,2,0,2,0,1,,,,,,,,,,,,,
591d369e88bbb500013a8517,SCR,2024-06-21_11h02.31.616,LearnStrategy,2023.2.3,Win32,59.52380952,2,1,4,0.234285714,0.398095238,1,0,0,1.2668,Andesite_14,1,14,6,6,1.267,1,14,-0.092380952,-0.231428571,1,0,0,1.5484,Basalt_rect,2,1.548,0,3,0,3,0,1,,,,,,,,,,,,,
591d369e88bbb500013a8517,SCR,2024-06-21_11h02.31.616,LearnStrategy,2023.2.3,Win32,59.52380952,2,1,5,-0.258095238,0.28952381,1,0,0,1.0339,Diorite_15,3,15,5,3,1.034,3,15,-0.105714286,-0.24952381,1,0,0,2.0494,Basalt_rect,2,2.049,0,4,0,4,0,1,,,,,,,,,,,,,
591d369e88bbb500013a8517,SCR,2024-06-21_11h02.31.616,LearnStrategy,2023.2.3,Win32,59.52380952,2,1,6,-0.183809524,0.065714286,1,0,0,0.9164,Pegmatite_09,6,09,4,3,0.916,6,09,-0.131428571,-0.398095238,1,0,0,1.7162,Pegmatite_rect,6,1.716,1,5,0,5,0,1,,,,,,,,,,,,,
591d369e88bbb500013a8517,SCR,2024-06-21_11h02.31.616,LearnStrategy,2023.2.3,Win32,59.52380952,2,1,7,0.406666667,0.094285714,1,0,0,1.0992,Gabbro_12,4,12,4,7,1.099,4,12,-0.13047619,-0.258095238,1,0,0,1.9331,Basalt_rect,2,1.933,0,6,0,6,0,1,,,,,,,,,,,,,
591d369e88bbb500013a8517,SCR,2024-06-21_11h02.31.616,LearnStrategy,2023.2.3,Win32,59.52380952,2,1,8,0.546666667,0.076190476,1,0,0,1.1334,Pumice_03,8,03,4,8,1.133,8,03,0.433333333,-0.40952381,1,0,0,1.0133,Pumice_rect,8,1.013,1,7,0,7,0,1,,,,,,,,,,,,,
591d369e88bbb500013a8517,SCR,2024-06-21_11h02.31.616,LearnStrategy,2023.2.3,Win32,59.52380952,2,1,9,-0.065714286,-0.24,1,0,0,1.0162,Pumice_08,8,08,2,4,1.016,8,08,0.367619048,-0.393333333,1,0,0,1.2649,Pumice_rect,8,1.265,1,8,0,8,0,1,,,,,,,,,,,,,
591d369e88bbb500013a8517,SCR,2024-06-21_11h02.31.616,LearnStrategy,2023.2.3,Win32,59.52380952,2,1,10,0.048571429,0.400952381,1,0,0,1.2165,Basalt_09,2,09,6,5,1.216,2,09,0.381904762,-0.24952381,1,0,0,1.2814,Gabbro_rect,4,1.281,0,9,0,9,0,1,,,,,,,,,,,,,
591d369e88bbb500013a8517,SCR,2024-06-21_11h02.31.616,LearnStrategy,2023.2.3,Win32,59.52380952,2,1,11,-0.385714286,-0.08952381,1,0,0,0.9663,Peridotite_04,7,04,3,2,0.966,7,04,0.083809524,-0.255238095,1,0,0,2.7859,Diorite_rect,3,2.786,0,10,0,10,0,1,,,,,,,,,,,,,
591d369e88bbb500013a8517,SCR,2024-06-21_11h02.31.616,LearnStrategy,2023.2.3,Win32,59.52380952,2,1,12,-0.400952381,-0.252380952,1,0,0,0.9487,Obsidian_02,5,02,2,2,0.949,5,02,0.328571429,-0.253333333,1,0,0,2.1835,Gabbro_rect,4,2.184,0,11,0,11,0,1,,,,,,,,,,,,,
591d369e88bbb500013a8517,SCR,2024-06-21_11h02.31.616,LearnStrategy,2023.2.3,Win32,59.52380952,2,1,13,-0.544761905,-0.088571429,1,0,0,0.9824,Obsidian_10,5,10,3,1,0.982,5,10,-0.374285714,-0.396190476,1,0,0,1.4487,Obsidian_rect,5,1.449,1,12,0,12,0,1,,,,,,,,,,,,,
591d369e88bbb500013a8517,SCR,2024-06-21_11h02.31.616,LearnStrategy,2023.2.3,Win32,59.52380952,2,1,14,-0.239047619,-0.243809524,1,0,0,0.9991,Andesite_16,1,16,2,3,0.999,1,16,-0.095238095,-0.23047619,1,0,0,1.2351,Basalt_rect,2,1.235,0,13,0,13,0,1,,,,,,,,,,,,,
591d369e88bbb500013a8517,SCR,2024-06-21_11h02.31.616,LearnStrategy,2023.2.3,Win32,59.52380952,2,1,15,-0.541904762,0.268571429,1,0,0,1.1,Basalt_04,2,04,5,1,1.1,2,04,-0.139047619,-0.25047619,1,0,0,1.1642,Basalt_rect,2,1.164,1,14,0,14,0,1,,,,,,,,,,,,,
591d369e88bbb500013a8517,SCR,2024-06-21_11h02.31.616,LearnStrategy,2023.2.3,Win32,59.52380952,2,1,16,-0.079047619,0.395238095,1,0,0,1.0004,Gabbro_08,4,08,6,4,1,4,08,0.393333333,-0.26,1,0,0,2.1338,Gabbro_rect,4,2.134,1,15,0,15,0,1,,,,,,,,,,,,,
591d369e88bbb500013a8517,SCR,2024-06-21_11h02.31.616,LearnStrategy,2023.2.3,Win32,59.52380952,2,2,1,,,,,,,,7,07,,,,,,,,,,,,,4,4.021,0,,,,,,0.335238095,-0.251428571,1,0,0,4.0206,Gabbro_rect,0,0,0,0,1,
591d369e88bbb500013a8517,SCR,2024-06-21_11h02.31.616,LearnStrategy,2023.2.3,Win32,59.52380952,2,2,2,,,,,,,,7,13,,,,,,,,,,,,,6,3.488,0,,,,,,-0.054285714,-0.411428571,1,0,0,3.4884,Pegmatite_rect,1,0,1,0,1,
591d369e88bbb500013a8517,SCR,2024-06-21_11h02.31.616,LearnStrategy,2023.2.3,Win32,59.52380952,2,2,3,,,,,,,,1,03,,,,,,,,,,,,,4,4.057,0,,,,,,0.365714286,-0.253333333,1,0,0,4.0571,Gabbro_rect,2,0,2,0,1,
591d369e88bbb500013a8517,SCR,2024-06-21_11h02.31.616,LearnStrategy,2023.2.3,Win32,59.52380952,2,2,4,,,,,,,,8,05,,,,,,,,,,,,,8,1.164,1,,,,,,0.363809524,-0.378095238,1,0,0,1.1641,Pumice_rect,3,0,3,0,1,
591d369e88bbb500013a8517,SCR,2024-06-21_11h02.31.616,LearnStrategy,2023.2.3,Win32,59.52380952,2,2,5,,,,,,,,6,12,,,,,,,,,,,,,3,4.475,0,,,,,,0.174285714,-0.239047619,1,0,0,4.4751,Diorite_rect,4,0,4,0,1,
591d369e88bbb500013a8517,SCR,2024-06-21_11h02.31.616,LearnStrategy,2023.2.3,Win32,59.52380952,2,2,6,,,,,,,,2,06,,,,,,,,,,,,,2,3.653,1,,,,,,-0.086666667,-0.243809524,1,0,0,3.6534,Basalt_rect,5,0,5,0,1,
591d369e88bbb500013a8517,SCR,2024-06-21_11h02.31.616,LearnStrategy,2023.2.3,Win32,59.52380952,2,2,7,,,,,,,,5,16,,,,,,,,,,,,,5,2.234,1,,,,,,-0.391428571,-0.395238095,1,0,0,2.2336,Obsidian_rect,6,0,6,0,1,
591d369e88bbb500013a8517,SCR,2024-06-21_11h02.31.616,LearnStrategy,2023.2.3,Win32,59.52380952,2,2,8,,,,,,,,3,08,,,,,,,,,,,,,3,2.401,1,,,,,,0.08952381,-0.251428571,1,0,0,2.4008,Diorite_rect,7,0,7,0,1,
591d369e88bbb500013a8517,SCR,2024-06-21_11h02.31.616,LearnStrategy,2023.2.3,Win32,59.52380952,2,2,9,,,,,,,,3,11,,,,,,,,,,,,,3,1.165,1,,,,,,0.08952381,-0.251428571,1,0,0,1.1652,Diorite_rect,8,0,8,0,1,
591d369e88bbb500013a8517,SCR,2024-06-21_11h02.31.616,LearnStrategy,2023.2.3,Win32,59.52380952,2,2,10,,,,,,,,8,09,,,,,,,,,,,,,8,1.281,1,,,,,,0.332380952,-0.401904762,1,0,0,1.2813,Pumice_rect,9,0,9,0,1,
591d369e88bbb500013a8517,SCR,2024-06-21_11h02.31.616,LearnStrategy,2023.2.3,Win32,59.52380952,2,2,11,,,,,,,,6,16,,,,,,,,,,,,,6,3.74,1,,,,,,-0.082857143,-0.395238095,1,0,0,3.7398,Pegmatite_rect,10,0,10,0,1,
591d369e88bbb500013a8517,SCR,2024-06-21_11h02.31.616,LearnStrategy,2023.2.3,Win32,59.52380952,2,2,12,,,,,,,,5,11,,,,,,,,,,,,,5,1.247,1,,,,,,-0.412380952,-0.388571429,1,0,0,1.2474,Obsidian_rect,11,0,11,0,1,
591d369e88bbb500013a8517,SCR,2024-06-21_11h02.31.616,LearnStrategy,2023.2.3,Win32,59.52380952,2,2,13,,,,,,,,4,03,,,,,,,,,,,,,4,1.816,1,,,,,,0.426666667,-0.234285714,1,0,0,1.8164,Gabbro_rect,12,0,12,0,1,
591d369e88bbb500013a8517,SCR,2024-06-21_11h02.31.616,LearnStrategy,2023.2.3,Win32,59.52380952,2,2,14,,,,,,,,4,15,,,,,,,,,,,,,4,1.915,1,,,,,,0.426666667,-0.234285714,1,0,0,1.9152,Gabbro_rect,13,0,13,0,1,
591d369e88bbb500013a8517,SCR,2024-06-21_11h02.31.616,LearnStrategy,2023.2.3,Win32,59.52380952,2,2,15,,,,,,,,2,12,,,,,,,,,,,,,8,2.518,0,,,,,,0.413333333,-0.406666667,1,0,0,2.5182,Pumice_rect,14,0,14,0,1,
591d369e88bbb500013a8517,SCR,2024-06-21_11h02.31.616,LearnStrategy,2023.2.3,Win32,59.52380952,2,2,16,,,,,,,,1,06,,,,,,,,,,,,,4,3.373,0,,,,,,0.39047619,-0.24,1,0,0,3.3733,Gabbro_rect,15,0,15,0,1,
591d369e88bbb500013a8517,SCR,2024-06-21_11h02.31.616,LearnStrategy,2023.2.3,Win32,59.52380952,3,1,1,0.078095238,-0.387619048,1,0,0,1.0985,Basalt_16,2,16,1,5,1.099,2,16,0.353333333,-0.234285714,1,0,0,10.7093,Gabbro_rect,4,10.709,0,0,0,0,0,1,,,,,,,,,,,,,
591d369e88bbb500013a8517,SCR,2024-06-21_11h02.31.616,LearnStrategy,2023.2.3,Win32,59.52380952,3,1,2,0.081904762,0.225714286,1,0,0,0.844,Peridotite_12,7,12,5,5,0.844,7,12,0.348571429,-0.24952381,1,0,0,1.7827,Gabbro_rect,4,1.783,0,1,0,1,0,1,,,,,,,,,,,,,
591d369e88bbb500013a8517,SCR,2024-06-21_11h02.31.616,LearnStrategy,2023.2.3,Win32,59.52380952,3,1,3,-0.524761905,-0.419047619,1,0,0,1.2338,Gabbro_16,4,16,1,1,1.234,4,16,0.381904762,-0.261904762,1,0,0,7.0664,Gabbro_rect,4,7.066,1,2,0,2,0,1,,,,,,,,,,,,,
591d369e88bbb500013a8517,SCR,2024-06-21_11h02.31.616,LearnStrategy,2023.2.3,Win32,59.52380952,3,1,4,-0.04,-0.388571429,1,0,0,0.9984,Pumice_16,8,16,1,4,0.998,8,16,0.395238095,-0.4,1,0,0,1.1104,Pumice_rect,8,1.11,1,3,0,3,0,1,,,,,,,,,,,,,
591d369e88bbb500013a8517,SCR,2024-06-21_11h02.31.616,LearnStrategy,2023.2.3,Win32,59.52380952,3,1,5,0.368571429,0.4,1,0,0,1.3498,Basalt_01,2,01,6,7,1.35,2,01,-0.122857143,-0.234285714,1,0,0,1.1978,Basalt_rect,2,1.198,1,4,0,4,0,1,,,,,,,,,,,,,
591d369e88bbb500013a8517,SCR,2024-06-21_11h02.31.616,LearnStrategy,2023.2.3,Win32,59.52380952,3,1,6,-0.085714286,0.108571429,1,0,0,0.7326,Peridotite_15,7,15,4,4,0.733,7,15,0.426666667,-0.234285714,1,0,0,1.4148,Gabbro_rect,4,1.415,0,5,0,5,0,1,,,,,,,,,,,,,
591d369e88bbb500013a8517,SCR,2024-06-21_11h02.31.616,LearnStrategy,2023.2.3,Win32,59.52380952,3,1,7,0.235238095,0.378095238,1,0,0,1.0332,Andesite_14,1,14,6,6,1.033,1,14,-0.088571429,-0.392380952,1,0,0,1.9835,Pegmatite_rect,6,1.984,0,6,0,6,0,1,,,,,,,,,,,,,
591d369e88bbb500013a8517,SCR,2024-06-21_11h02.31.616,LearnStrategy,2023.2.3,Win32,59.52380952,3,1,8,0.342857143,0.098095238,1,0,0,1.3106,Gabbro_12,4,12,4,7,1.311,4,12,-0.099047619,-0.253333333,1,0,0,1.1971,Basalt_rect,2,1.197,0,7,0,7,0,1,,,,,,,,,,,,,
591d369e88bbb500013a8517,SCR,2024-06-21_11h02.31.616,LearnStrategy,2023.2.3,Win32,59.52380952,3,1,9,-0.240952381,0.092380952,1,0,0,1.2184,Pegmatite_09,6,09,4,3,1.218,6,09,-0.162857143,-0.403809524,1,0,0,1.3313,Pegmatite_rect,6,1.331,1,8,0,8,0,1,,,,,,,,,,,,,
591d369e88bbb500013a8517,SCR,2024-06-21_11h02.31.616,LearnStrategy,2023.2.3,Win32,59.52380952,3,1,10,-0.08,-0.259047619,1,0,0,0.682,Pumice_08,8,08,2,4,0.682,8,08,0.432380952,-0.401904762,1,0,0,0.8463,Pumice_rect,8,0.846,1,9,0,9,0,1,,,,,,,,,,,,,
591d369e88bbb500013a8517,SCR,2024-06-21_11h02.31.616,LearnStrategy,2023.2.3,Win32,59.52380952,3,1,11,0.407619048,0.278095238,1,0,0,1.136,Obsidian_05,5,05,5,7,1.136,5,05,-0.435238095,-0.42,1,0,0,2.1324,Obsidian_rect,5,2.132,1,10,0,10,0,1,,,,,,,,,,,,,
591d369e88bbb500013a8517,SCR,2024-06-21_11h02.31.616,LearnStrategy,2023.2.3,Win32,59.52380952,3,1,12,-0.220952381,-0.423809524,1,0,0,0.9172,Andesite_11,1,11,1,3,0.917,1,11,0.326666667,-0.258095238,1,0,0,2.0677,Gabbro_rect,4,2.068,0,11,0,11,0,1,,,,,,,,,,,,,
591d369e88bbb500013a8517,SCR,2024-06-21_11h02.31.616,LearnStrategy,2023.2.3,Win32,59.52380952,3,1,13,-0.214285714,-0.074285714,1,0,0,0.849,Diorite_16,3,16,3,3,0.849,3,16,-0.341904762,-0.254285714,1,0,0,1.1174,Andesite_rect,1,1.117,0,12,0,12,0,1,,,,,,,,,,,,,
591d369e88bbb500013a8517,SCR,2024-06-21_11h02.31.616,LearnStrategy,2023.2.3,Win32,59.52380952,3,1,14,0.114285714,0.259047619,1,0,0,0.868,Peridotite_12,7,12,5,5,0.868,7,12,0.33047619,-0.268571429,1,0,0,2.0833,Gabbro_rect,4,2.083,0,13,0,13,0,1,,,,,,,,,,,,,
591d369e88bbb500013a8517,SCR,2024-06-21_11h02.31.616,LearnStrategy,2023.2.3,Win32,59.52380952,3,1,15,0.535238095,0.281904762,1,0,0,0.9825,Andesite_07,1,07,5,8,0.982,1,07,0.176190476,-0.378095238,1,0,0,1.3811,Peridotite_rect,7,1.381,0,14,0,14,0,1,,,,,,,,,,,,,
591d369e88bbb500013a8517,SCR,2024-06-21_11h02.31.616,LearnStrategy,2023.2.3,Win32,59.52380952,3,1,16,-0.227619048,0.097142857,1,0,0,0.801,Pegmatite_09,6,09,4,3,0.801,6,09,-0.094285714,-0.411428571,1,0,0,1.1867,Pegmatite_rect,6,1.187,1,15,0,15,0,1,,,,,,,,,,,,,
591d369e88bbb500013a8517,SCR,2024-06-21_11h02.31.616,LearnStrategy,2023.2.3,Win32,59.52380952,3,2,1,,,,,,,,3,06,,,,,,,,,,,,,4,7.116,0,,,,,,0.358095238,-0.233333333,1,0,0,7.1157,Gabbro_rect,0,0,0,0,1,
591d369e88bbb500013a8517,SCR,2024-06-21_11h02.31.616,LearnStrategy,2023.2.3,Win32,59.52380952,3,2,2,,,,,,,,1,10,,,,,,,,,,,,,8,4.359,0,,,,,,0.382857143,-0.396190476,1,0,0,4.3588,Pumice_rect,1,0,1,0,1,
591d369e88bbb500013a8517,SCR,2024-06-21_11h02.31.616,LearnStrategy,2023.2.3,Win32,59.52380952,3,2,3,,,,,,,,7,02,,,,,,,,,,,,,7,3.271,1,,,,,,0.182857143,-0.397142857,1,0,0,3.2713,Peridotite_rect,2,0,2,0,1,
591d369e88bbb500013a8517,SCR,2024-06-21_11h02.31.616,LearnStrategy,2023.2.3,Win32,59.52380952,3,2,4,,,,,,,,6,07,,,,,,,,,,,,,6,3.204,1,,,,,,-0.114285714,-0.404761905,1,0,0,3.2041,Pegmatite_rect,3,0,3,0,1,
591d369e88bbb500013a8517,SCR,2024-06-21_11h02.31.616,LearnStrategy,2023.2.3,Win32,59.52380952,3,2,5,,,,,,,,8,14,,,,,,,,,,,,,8,1.18,1,,,,,,0.387619048,-0.400952381,1,0,0,1.1802,Pumice_rect,4,0,4,0,1,
591d369e88bbb500013a8517,SCR,2024-06-21_11h02.31.616,LearnStrategy,2023.2.3,Win32,59.52380952,3,2,6,,,,,,,,4,01,,,,,,,,,,,,,4,3.003,1,,,,,,0.36,-0.254285714,1,0,0,3.0032,Gabbro_rect,5,0,5,0,1,
591d369e88bbb500013a8517,SCR,2024-06-21_11h02.31.616,LearnStrategy,2023.2.3,Win32,59.52380952,3,2,7,,,,,,,,1,04,,,,,,,,,,,,,4,1.565,0,,,,,,0.36,-0.254285714,1,0,0,1.5646,Gabbro_rect,6,0,6,0,1,
591d369e88bbb500013a8517,SCR,2024-06-21_11h02.31.616,LearnStrategy,2023.2.3,Win32,59.52380952,3,2,8,,,,,,,,6,10,,,,,,,,,,,,,6,1.548,1,,,,,,-0.10952381,-0.404761905,1,0,0,1.5485,Pegmatite_rect,7,0,7,0,1,
591d369e88bbb500013a8517,SCR,2024-06-21_11h02.31.616,LearnStrategy,2023.2.3,Win32,59.52380952,3,2,9,,,,,,,,2,10,,,,,,,,,,,,,5,2.372,0,,,,,,-0.35047619,-0.38952381,1,0,0,2.3725,Obsidian_rect,8,0,8,0,1,
591d369e88bbb500013a8517,SCR,2024-06-21_11h02.31.616,LearnStrategy,2023.2.3,Win32,59.52380952,3,2,10,,,,,,,,4,10,,,,,,,,,,,,,1,2.44,0,,,,,,-0.37047619,-0.244761905,1,0,0,2.44,Andesite_rect,9,0,9,0,1,
591d369e88bbb500013a8517,SCR,2024-06-21_11h02.31.616,LearnStrategy,2023.2.3,Win32,59.52380952,3,2,11,,,,,,,,8,02,,,,,,,,,,,,,8,1.347,1,,,,,,0.371428571,-0.405714286,1,0,0,1.3473,Pumice_rect,10,0,10,0,1,
591d369e88bbb500013a8517,SCR,2024-06-21_11h02.31.616,LearnStrategy,2023.2.3,Win32,59.52380952,3,2,12,,,,,,,,3,09,,,,,,,,,,,,,3,1.999,1,,,,,,0.138095238,-0.251428571,1,0,0,1.9994,Diorite_rect,11,0,11,0,1,
591d369e88bbb500013a8517,SCR,2024-06-21_11h02.31.616,LearnStrategy,2023.2.3,Win32,59.52380952,3,2,13,,,,,,,,2,14,,,,,,,,,,,,,1,3.153,0,,,,,,-0.371428571,-0.244761905,1,0,0,3.1534,Andesite_rect,12,0,12,0,1,
591d369e88bbb500013a8517,SCR,2024-06-21_11h02.31.616,LearnStrategy,2023.2.3,Win32,59.52380952,3,2,14,,,,,,,,5,04,,,,,,,,,,,,,5,1.147,1,,,,,,-0.336190476,-0.396190476,1,0,0,1.147,Obsidian_rect,13,0,13,0,1,
591d369e88bbb500013a8517,SCR,2024-06-21_11h02.31.616,LearnStrategy,2023.2.3,Win32,59.52380952,3,2,15,,,,,,,,5,14,,,,,,,,,,,,,5,1.755,1,,,,,,-0.358095238,-0.38952381,1,0,0,1.7551,Obsidian_rect,14,0,14,0,1,
591d369e88bbb500013a8517,SCR,2024-06-21_11h02.31.616,LearnStrategy,2023.2.3,Win32,59.52380952,3,2,16,,,,,,,,7,05,,,,,,,,,,,,,1,6.515,0,,,,,,-0.404761905,-0.246666667,1,0,0,6.515,Andesite_rect,15,0,15,0,1,
591d369e88bbb500013a8517,SCR,2024-06-21_11h02.31.616,LearnStrategy,2023.2.3,Win32,59.52380952,4,1,1,0.10952381,0.414285714,1,0,0,0.8307,Basalt_09,2,09,6,5,0.831,2,09,-0.122857143,-0.236190476,1,0,0,1.3354,Basalt_rect,2,1.335,1,0,0,0,0,1,,,,,,,,,,,,,
591d369e88bbb500013a8517,SCR,2024-06-21_11h02.31.616,LearnStrategy,2023.2.3,Win32,59.52380952,4,1,2,-0.407619048,-0.254285714,1,0,0,0.9342,Obsidian_02,5,02,2,2,0.934,5,02,-0.408571429,-0.403809524,1,0,0,0.7129,Obsidian_rect,5,0.713,1,1,0,1,0,1,,,,,,,,,,,,,
591d369e88bbb500013a8517,SCR,2024-06-21_11h02.31.616,LearnStrategy,2023.2.3,Win32,59.52380952,4,1,3,-0.226666667,-0.377142857,1,0,0,0.8844,Andesite_11,1,11,1,3,0.884,1,11,0.367619048,-0.259047619,1,0,0,3.2201,Gabbro_rect,4,3.22,0,2,0,2,0,1,,,,,,,,,,,,,
591d369e88bbb500013a8517,SCR,2024-06-21_11h02.31.616,LearnStrategy,2023.2.3,Win32,59.52380952,4,1,4,0.221904762,-0.25047619,1,0,0,0.9652,Andesite_05,1,05,2,6,0.965,1,05,0.346666667,-0.238095238,1,0,0,1.6476,Gabbro_rect,4,1.648,0,3,0,3,0,1,,,,,,,,,,,,,
591d369e88bbb500013a8517,SCR,2024-06-21_11h02.31.616,LearnStrategy,2023.2.3,Win32,59.52380952,4,1,5,0.383809524,-0.253333333,1,0,0,1.1008,Pegmatite_08,6,08,2,7,1.101,6,08,-0.176190476,-0.396190476,1,0,0,0.8616,Pegmatite_rect,6,0.862,1,4,0,4,0,1,,,,,,,,,,,,,
591d369e88bbb500013a8517,SCR,2024-06-21_11h02.31.616,LearnStrategy,2023.2.3,Win32,59.52380952,4,1,6,-0.542857143,-0.427619048,1,0,0,0.9503,Gabbro_16,4,16,1,1,0.95,4,16,-0.339047619,-0.244761905,1,0,0,3.4206,Andesite_rect,1,3.421,0,5,0,5,0,1,,,,,,,,,,,,,
591d369e88bbb500013a8517,SCR,2024-06-21_11h02.31.616,LearnStrategy,2023.2.3,Win32,59.52380952,4,1,7,-0.371428571,-0.064761905,1,0,0,0.8488,Peridotite_04,7,04,3,2,0.849,7,04,-0.326666667,-0.241904762,1,0,0,3.5221,Andesite_rect,1,3.522,0,6,0,6,0,1,,,,,,,,,,,,,
591d369e88bbb500013a8517,SCR,2024-06-21_11h02.31.616,LearnStrategy,2023.2.3,Win32,59.52380952,4,1,8,0.104761905,0.247619048,1,0,0,0.7979,Peridotite_12,7,12,5,5,0.798,7,12,0.355238095,-0.236190476,1,0,0,1.7316,Gabbro_rect,4,1.732,0,7,0,7,0,1,,,,,,,,,,,,,
591d369e88bbb500013a8517,SCR,2024-06-21_11h02.31.616,LearnStrategy,2023.2.3,Win32,59.52380952,4,1,9,-0.368571429,-0.381904762,1,0,0,0.9494,Pumice_15,8,15,1,2,0.949,8,15,0.340952381,-0.38952381,1,0,0,1.95,Pumice_rect,8,1.95,1,8,0,8,0,1,,,,,,,,,,,,,
591d369e88bbb500013a8517,SCR,2024-06-21_11h02.31.616,LearnStrategy,2023.2.3,Win32,59.52380952,4,1,10,0.263809524,-0.408571429,1,0,0,1.2675,Diorite_10,3,10,1,6,1.268,3,10,0.345714286,-0.246666667,1,0,0,1.0383,Gabbro_rect,4,1.038,0,9,0,9,0,1,,,,,,,,,,,,,
591d369e88bbb500013a8517,SCR,2024-06-21_11h02.31.616,LearnStrategy,2023.2.3,Win32,59.52380952,4,1,11,0.565714286,0.256190476,1,0,0,1.0691,Andesite_07,1,07,5,8,1.069,1,07,0.341904762,-0.246666667,1,0,0,2.1325,Gabbro_rect,4,2.133,0,10,0,10,0,1,,,,,,,,,,,,,
591d369e88bbb500013a8517,SCR,2024-06-21_11h02.31.616,LearnStrategy,2023.2.3,Win32,59.52380952,4,1,12,0.08,0.400952381,1,0,0,0.851,Basalt_09,2,09,6,5,0.851,2,09,-0.08,-0.251428571,1,0,0,1.6489,Basalt_rect,2,1.649,1,11,0,11,0,1,,,,,,,,,,,,,
591d369e88bbb500013a8517,SCR,2024-06-21_11h02.31.616,LearnStrategy,2023.2.3,Win32,59.52380952,4,1,13,0.18952381,0.253333333,1,0,0,0.7674,Gabbro_14,4,14,5,6,0.767,4,14,-0.359047619,-0.24952381,1,0,0,1.766,Andesite_rect,1,1.766,0,12,0,12,0,1,,,,,,,,,,,,,
591d369e88bbb500013a8517,SCR,2024-06-21_11h02.31.616,LearnStrategy,2023.2.3,Win32,59.52380952,4,1,14,0.543809524,-0.098095238,1,0,0,0.8652,Peridotite_10,7,10,3,8,0.865,7,10,0.174285714,-0.399047619,1,0,0,1.5875,Peridotite_rect,7,1.588,1,13,0,13,0,1,,,,,,,,,,,,,
591d369e88bbb500013a8517,SCR,2024-06-21_11h02.31.616,LearnStrategy,2023.2.3,Win32,59.52380952,4,1,15,-0.253333333,-0.444761905,1,0,0,1.2193,Andesite_11,1,11,1,3,1.219,1,11,-0.357142857,-0.253333333,1,0,0,1.8659,Andesite_rect,1,1.866,1,14,0,14,0,1,,,,,,,,,,,,,
591d369e88bbb500013a8517,SCR,2024-06-21_11h02.31.616,LearnStrategy,2023.2.3,Win32,59.52380952,4,1,16,-0.393333333,0.1,1,0,0,0.8162,Basalt_05,2,05,4,2,0.816,2,05,-0.345714286,-0.386666667,1,0,0,2.5051,Obsidian_rect,5,2.505,0,15,0,15,0,1,,,,,,,,,,,,,
591d369e88bbb500013a8517,SCR,2024-06-21_11h02.31.616,LearnStrategy,2023.2.3,Win32,59.52380952,4,2,1,,,,,,,,6,05,,,,,,,,,,,,,6,3.851,1,,,,,,-0.105714286,-0.387619048,1,0,0,3.8511,Pegmatite_rect,0,0,0,0,1,
591d369e88bbb500013a8517,SCR,2024-06-21_11h02.31.616,LearnStrategy,2023.2.3,Win32,59.52380952,4,2,2,,,,,,,,2,10,,,,,,,,,,,,,2,1.816,1,,,,,,-0.145714286,-0.237142857,1,0,0,1.8164,Basalt_rect,1,0,1,0,1,
591d369e88bbb500013a8517,SCR,2024-06-21_11h02.31.616,LearnStrategy,2023.2.3,Win32,59.52380952,4,2,3,,,,,,,,3,11,,,,,,,,,,,,,1,3.755,0,,,,,,-0.344761905,-0.237142857,1,0,0,3.7554,Andesite_rect,2,0,2,0,1,
591d369e88bbb500013a8517,SCR,2024-06-21_11h02.31.616,LearnStrategy,2023.2.3,Win32,59.52380952,4,2,4,,,,,,,,7,02,,,,,,,,,,,,,7,1.381,1,,,,,,0.066666667,-0.394285714,1,0,0,1.3814,Peridotite_rect,3,0,3,0,1,
591d369e88bbb500013a8517,SCR,2024-06-21_11h02.31.616,LearnStrategy,2023.2.3,Win32,59.52380952,4,2,5,,,,,,,,4,03,,,,,,,,,,,,,1,1.532,0,,,,,,-0.377142857,-0.246666667,1,0,0,1.5321,Andesite_rect,4,0,4,0,1,
591d369e88bbb500013a8517,SCR,2024-06-21_11h02.31.616,LearnStrategy,2023.2.3,Win32,59.52380952,4,2,6,,,,,,,,2,14,,,,,,,,,,,,,4,2.821,0,,,,,,0.36,-0.261904762,1,0,0,2.8205,Gabbro_rect,5,0,5,0,1,
591d369e88bbb500013a8517,SCR,2024-06-21_11h02.31.616,LearnStrategy,2023.2.3,Win32,59.52380952,4,2,7,,,,,,,,8,02,,,,,,,,,,,,,8,1.392,1,,,,,,0.356190476,-0.388571429,1,0,0,1.3917,Pumice_rect,6,0,6,0,1,
591d369e88bbb500013a8517,SCR,2024-06-21_11h02.31.616,LearnStrategy,2023.2.3,Win32,59.52380952,4,2,8,,,,,,,,5,12,,,,,,,,,,,,,5,1.531,1,,,,,,-0.392380952,-0.384761905,1,0,0,1.531,Obsidian_rect,7,0,7,0,1,
591d369e88bbb500013a8517,SCR,2024-06-21_11h02.31.616,LearnStrategy,2023.2.3,Win32,59.52380952,4,2,9,,,,,,,,5,14,,,,,,,,,,,,,5,0.646,1,,,,,,-0.37047619,-0.386666667,1,0,0,0.6456,Obsidian_rect,8,0,8,0,1,
591d369e88bbb500013a8517,SCR,2024-06-21_11h02.31.616,LearnStrategy,2023.2.3,Win32,59.52380952,4,2,10,,,,,,,,1,01,,,,,,,,,,,,,3,3.272,0,,,,,,0.066666667,-0.263809524,1,0,0,3.2722,Diorite_rect,9,0,9,0,1,
591d369e88bbb500013a8517,SCR,2024-06-21_11h02.31.616,LearnStrategy,2023.2.3,Win32,59.52380952,4,2,11,,,,,,,,7,14,,,,,,,,,,,,,1,1.709,0,,,,,,-0.36952381,-0.255238095,1,0,0,1.7086,Andesite_rect,10,0,10,0,1,
591d369e88bbb500013a8517,SCR,2024-06-21_11h02.31.616,LearnStrategy,2023.2.3,Win32,59.52380952,4,2,12,,,,,,,,1,10,,,,,,,,,,,,,8,1.233,0,,,,,,0.344761905,-0.379047619,1,0,0,1.2328,Pumice_rect,11,0,11,0,1,
591d369e88bbb500013a8517,SCR,2024-06-21_11h02.31.616,LearnStrategy,2023.2.3,Win32,59.52380952,4,2,13,,,,,,,,6,16,,,,,,,,,,,,,6,1.682,1,,,,,,-0.057142857,-0.382857143,1,0,0,1.6821,Pegmatite_rect,12,0,12,0,1,
591d369e88bbb500013a8517,SCR,2024-06-21_11h02.31.616,LearnStrategy,2023.2.3,Win32,59.52380952,4,2,14,,,,,,,,4,11,,,,,,,,,,,,,2,1.465,0,,,,,,-0.101904762,-0.260952381,1,0,0,1.4652,Basalt_rect,13,0,13,0,1,
591d369e88bbb500013a8517,SCR,2024-06-21_11h02.31.616,LearnStrategy,2023.2.3,Win32,59.52380952,4,2,15,,,,,,,,8,14,,,,,,,,,,,,,8,1.178,1,,,,,,0.351428571,-0.386666667,1,0,0,1.1785,Pumice_rect,14,0,14,0,1,
591d369e88bbb500013a8517,SCR,2024-06-21_11h02.31.616,LearnStrategy,2023.2.3,Win32,59.52380952,4,2,16,,,,,,,,3,08,,,,,,,,,,,,,3,1.782,1,,,,,,0.147619048,-0.254285714,1,0,0,1.7819,Diorite_rect,15,0,15,0,1,
591d369e88bbb500013a8517,SCR,2024-06-21_11h02.31.616,LearnStrategy,2023.2.3,Win32,59.52380952,5,1,1,0.244761905,-0.266666667,1,0,0,0.8669,Andesite_05,1,05,2,6,0.867,1,05,-0.34952381,-0.240952381,1,0,0,1.5645,Andesite_rect,1,1.564,1,0,0,0,0,1,,,,,,,,,,,,,
591d369e88bbb500013a8517,SCR,2024-06-21_11h02.31.616,LearnStrategy,2023.2.3,Win32,59.52380952,5,1,2,-0.077142857,-0.117142857,1,0,0,0.6652,Gabbro_05,4,05,3,4,0.665,4,05,-0.355238095,-0.233333333,1,0,0,2.9362,Andesite_rect,1,2.936,0,1,0,1,0,1,,,,,,,,,,,,,
591d369e88bbb500013a8517,SCR,2024-06-21_11h02.31.616,LearnStrategy,2023.2.3,Win32,59.52380952,5,1,3,-0.361904762,-0.075238095,1,0,0,0.9821,Peridotite_04,7,04,3,2,0.982,7,04,0.102857143,-0.393333333,1,0,0,0.8961,Peridotite_rect,7,0.896,1,2,0,2,0,1,,,,,,,,,,,,,
591d369e88bbb500013a8517,SCR,2024-06-21_11h02.31.616,LearnStrategy,2023.2.3,Win32,59.52380952,5,1,4,-0.381904762,-0.081904762,1,0,0,0.768,Peridotite_04,7,04,3,2,0.768,7,04,0.16,-0.396190476,1,0,0,0.7301,Peridotite_rect,7,0.73,1,3,0,3,0,1,,,,,,,,,,,,,
591d369e88bbb500013a8517,SCR,2024-06-21_11h02.31.616,LearnStrategy,2023.2.3,Win32,59.52380952,5,1,5,-0.286666667,0.26,1,0,0,0.8442,Diorite_15,3,15,5,3,0.844,3,15,-0.345714286,-0.262857143,1,0,0,1.7715,Andesite_rect,1,1.772,0,4,0,4,0,1,,,,,,,,,,,,,
591d369e88bbb500013a8517,SCR,2024-06-21_11h02.31.616,LearnStrategy,2023.2.3,Win32,59.52380952,5,1,6,-0.527619048,-0.075238095,1,0,0,1.1007,Obsidian_10,5,10,3,1,1.101,5,10,-0.41047619,-0.407619048,1,0,0,0.981,Obsidian_rect,5,0.981,1,5,0,5,0,1,,,,,,,,,,,,,
591d369e88bbb500013a8517,SCR,2024-06-21_11h02.31.616,LearnStrategy,2023.2.3,Win32,59.52380952,5,1,7,-0.116190476,0.26,1,0,0,0.7816,Diorite_07,3,07,5,4,0.782,3,07,0.065714286,-0.232380952,1,0,0,1.3977,Diorite_rect,3,1.398,1,6,0,6,0,1,,,,,,,,,,,,,
591d369e88bbb500013a8517,SCR,2024-06-21_11h02.31.616,LearnStrategy,2023.2.3,Win32,59.52380952,5,1,8,0.200952381,-0.240952381,1,0,0,1.1522,Andesite_05,1,05,2,6,1.152,1,05,-0.323809524,-0.237142857,1,0,0,1.2677,Andesite_rect,1,1.268,1,7,0,7,0,1,,,,,,,,,,,,,
591d369e88bbb500013a8517,SCR,2024-06-21_11h02.31.616,LearnStrategy,2023.2.3,Win32,59.52380952,5,1,9,0.552380952,0.243809524,1,0,0,1.0332,Andesite_07,1,07,5,8,1.033,1,07,-0.346666667,-0.242857143,1,0,0,1.0807,Andesite_rect,1,1.081,1,8,0,8,0,1,,,,,,,,,,,,,
591d369e88bbb500013a8517,SCR,2024-06-21_11h02.31.616,LearnStrategy,2023.2.3,Win32,59.52380952,5,1,10,-0.226666667,-0.42,1,0,0,0.8514,Andesite_11,1,11,1,3,0.851,1,11,0.405714286,-0.245714286,1,0,0,1.2479,Gabbro_rect,4,1.248,0,9,0,9,0,1,,,,,,,,,,,,,
591d369e88bbb500013a8517,SCR,2024-06-21_11h02.31.616,LearnStrategy,2023.2.3,Win32,59.52380952,5,1,11,0.047619048,0.085714286,1,0,0,0.5994,Pumice_06,8,06,4,5,0.599,8,06,0.354285714,-0.38,1,0,0,1.0975,Pumice_rect,8,1.097,1,10,0,10,0,1,,,,,,,,,,,,,
591d369e88bbb500013a8517,SCR,2024-06-21_11h02.31.616,LearnStrategy,2023.2.3,Win32,59.52380952,5,1,12,-0.535238095,0.235238095,1,0,0,0.9176,Basalt_04,2,04,5,1,0.918,2,04,-0.196190476,-0.240952381,1,0,0,2.2171,Basalt_rect,2,2.217,1,11,0,11,0,1,,,,,,,,,,,,,
591d369e88bbb500013a8517,SCR,2024-06-21_11h02.31.616,LearnStrategy,2023.2.3,Win32,59.52380952,5,1,13,0.211428571,0.242857143,1,0,0,0.7824,Gabbro_14,4,14,5,6,0.782,4,14,0.337142857,-0.25047619,1,0,0,1.7821,Gabbro_rect,4,1.782,1,12,0,12,0,1,,,,,,,,,,,,,
591d369e88bbb500013a8517,SCR,2024-06-21_11h02.31.616,LearnStrategy,2023.2.3,Win32,59.52380952,5,1,14,0.422857143,0.084761905,1,0,0,0.8845,Gabbro_12,4,12,4,7,0.885,4,12,-0.08,-0.231428571,1,0,0,1.1642,Basalt_rect,2,1.164,0,13,0,13,0,1,,,,,,,,,,,,,
591d369e88bbb500013a8517,SCR,2024-06-21_11h02.31.616,LearnStrategy,2023.2.3,Win32,59.52380952,5,1,15,-0.575238095,0.402857143,1,0,0,1.0182,Basalt_11,2,11,6,1,1.018,2,11,0.380952381,-0.401904762,1,0,0,1.3816,Pumice_rect,8,1.382,0,14,0,14,0,1,,,,,,,,,,,,,
591d369e88bbb500013a8517,SCR,2024-06-21_11h02.31.616,LearnStrategy,2023.2.3,Win32,59.52380952,5,1,16,0.402857143,-0.240952381,1,0,0,1.0673,Pegmatite_08,6,08,2,7,1.067,6,08,-0.09047619,-0.386666667,1,0,0,0.6952,Pegmatite_rect,6,0.695,1,15,0,15,0,1,,,,,,,,,,,,,
591d369e88bbb500013a8517,SCR,2024-06-21_11h02.31.616,LearnStrategy,2023.2.3,Win32,59.52380952,5,2,1,,,,,,,,8,13,,,,,,,,,,,,,2,3.738,0,,,,,,-0.112380952,-0.23047619,1,0,0,3.7383,Basalt_rect,0,0,0,0,1,
591d369e88bbb500013a8517,SCR,2024-06-21_11h02.31.616,LearnStrategy,2023.2.3,Win32,59.52380952,5,2,2,,,,,,,,8,04,,,,,,,,,,,,,8,3.003,1,,,,,,0.352380952,-0.386666667,1,0,0,3.0034,Pumice_rect,1,0,1,0,1,
591d369e88bbb500013a8517,SCR,2024-06-21_11h02.31.616,LearnStrategy,2023.2.3,Win32,59.52380952,5,2,3,,,,,,,,3,14,,,,,,,,,,,,,3,1.26,1,,,,,,0.114285714,-0.242857143,1,0,0,1.2597,Diorite_rect,2,0,2,0,1,
591d369e88bbb500013a8517,SCR,2024-06-21_11h02.31.616,LearnStrategy,2023.2.3,Win32,59.52380952,5,2,4,,,,,,,,4,13,,,,,,,,,,,,,1,1.347,0,,,,,,-0.339047619,-0.232380952,1,0,0,1.3475,Andesite_rect,3,0,3,0,1,
591d369e88bbb500013a8517,SCR,2024-06-21_11h02.31.616,LearnStrategy,2023.2.3,Win32,59.52380952,5,2,5,,,,,,,,5,08,,,,,,,,,,,,,5,1.133,1,,,,,,-0.356190476,-0.402857143,1,0,0,1.1325,Obsidian_rect,4,0,4,0,1,
591d369e88bbb500013a8517,SCR,2024-06-21_11h02.31.616,LearnStrategy,2023.2.3,Win32,59.52380952,5,2,6,,,,,,,,7,05,,,,,,,,,,,,,7,2.116,1,,,,,,0.153333333,-0.40952381,1,0,0,2.1165,Peridotite_rect,5,0,5,0,1,
591d369e88bbb500013a8517,SCR,2024-06-21_11h02.31.616,LearnStrategy,2023.2.3,Win32,59.52380952,5,2,7,,,,,,,,3,06,,,,,,,,,,,,,3,1.328,1,,,,,,0.13047619,-0.257142857,1,0,0,1.3285,Diorite_rect,6,0,6,0,1,
591d369e88bbb500013a8517,SCR,2024-06-21_11h02.31.616,LearnStrategy,2023.2.3,Win32,59.52380952,5,2,8,,,,,,,,6,10,,,,,,,,,,,,,6,1.097,1,,,,,,-0.062857143,-0.4,1,0,0,1.0966,Pegmatite_rect,7,0,7,0,1,
591d369e88bbb500013a8517,SCR,2024-06-21_11h02.31.616,LearnStrategy,2023.2.3,Win32,59.52380952,5,2,9,,,,,,,,7,13,,,,,,,,,,,,,6,0.762,0,,,,,,-0.062857143,-0.4,1,0,0,0.7625,Pegmatite_rect,8,0,8,0,1,
591d369e88bbb500013a8517,SCR,2024-06-21_11h02.31.616,LearnStrategy,2023.2.3,Win32,59.52380952,5,2,10,,,,,,,,6,13,,,,,,,,,,,,,7,3.189,0,,,,,,0.067619048,-0.404761905,1,0,0,3.1889,Peridotite_rect,9,0,9,0,1,
591d369e88bbb500013a8517,SCR,2024-06-21_11h02.31.616,LearnStrategy,2023.2.3,Win32,59.52380952,5,2,11,,,,,,,,5,16,,,,,,,,,,,,,5,1.451,1,,,,,,-0.322857143,-0.380952381,1,0,0,1.4512,Obsidian_rect,10,0,10,0,1,
591d369e88bbb500013a8517,SCR,2024-06-21_11h02.31.616,LearnStrategy,2023.2.3,Win32,59.52380952,5,2,12,,,,,,,,1,04,,,,,,,,,,,,,1,1.7,1,,,,,,-0.397142857,-0.231428571,1,0,0,1.7003,Andesite_rect,11,0,11,0,1,
591d369e88bbb500013a8517,SCR,2024-06-21_11h02.31.616,LearnStrategy,2023.2.3,Win32,59.52380952,5,2,13,,,,,,,,2,06,,,,,,,,,,,,,2,1.297,1,,,,,,-0.181904762,-0.236190476,1,0,0,1.2969,Basalt_rect,12,0,12,0,1,
591d369e88bbb500013a8517,SCR,2024-06-21_11h02.31.616,LearnStrategy,2023.2.3,Win32,59.52380952,5,2,14,,,,,,,,1,03,,,,,,,,,,,,,4,2.585,0,,,,,,0.340952381,-0.242857143,1,0,0,2.585,Gabbro_rect,13,0,13,0,1,
591d369e88bbb500013a8517,SCR,2024-06-21_11h02.31.616,LearnStrategy,2023.2.3,Win32,59.52380952,5,2,15,,,,,,,,4,15,,,,,,,,,,,,,3,1.029,0,,,,,,0.168571429,-0.24,1,0,0,1.0293,Diorite_rect,14,0,14,0,1,
591d369e88bbb500013a8517,SCR,2024-06-21_11h02.31.616,LearnStrategy,2023.2.3,Win32,59.52380952,5,2,16,,,,,,,,2,02,,,,,,,,,,,,,2,1.265,1,,,,,,-0.121904762,-0.24,1,0,0,1.2654,Basalt_rect,15,0,15,0,1,
591d369e88bbb500013a8517,SCR,2024-06-21_11h02.31.616,LearnStrategy,2023.2.3,Win32,59.52380952,6,1,1,-0.076190476,0.087619048,1,0,0,0.717,Peridotite_15,7,15,4,4,0.717,7,15,-0.34,-0.266666667,1,0,0,1.2195,Andesite_rect,1,1.22,0,0,0,0,0,1,,,,,,,,,,,,,
591d369e88bbb500013a8517,SCR,2024-06-21_11h02.31.616,LearnStrategy,2023.2.3,Win32,59.52380952,6,1,2,-0.042857143,0.101904762,1,0,0,0.7057,Peridotite_15,7,15,4,4,0.706,7,15,0.15047619,-0.404761905,1,0,0,0.8974,Peridotite_rect,7,0.897,1,1,0,1,0,1,,,,,,,,,,,,,
591d369e88bbb500013a8517,SCR,2024-06-21_11h02.31.616,LearnStrategy,2023.2.3,Win32,59.52380952,6,1,3,-0.364761905,0.083809524,1,0,0,0.8152,Basalt_05,2,05,4,2,0.815,2,05,-0.172380952,-0.25047619,1,0,0,1.2134,Basalt_rect,2,1.213,1,2,0,2,0,1,,,,,,,,,,,,,
591d369e88bbb500013a8517,SCR,2024-06-21_11h02.31.616,LearnStrategy,2023.2.3,Win32,59.52380952,6,1,4,0.354285714,0.08,1,0,0,0.7992,Gabbro_12,4,12,4,7,0.799,4,12,-0.059047619,-0.24952381,1,0,0,1.2644,Basalt_rect,2,1.264,0,3,0,3,0,1,,,,,,,,,,,,,
591d369e88bbb500013a8517,SCR,2024-06-21_11h02.31.616,LearnStrategy,2023.2.3,Win32,59.52380952,6,1,5,0.052380952,-0.078095238,1,0,0,0.7656,Diorite_02,3,02,3,5,0.766,3,02,0.093333333,-0.255238095,1,0,0,1.6656,Diorite_rect,3,1.666,1,4,0,4,0,1,,,,,,,,,,,,,
591d369e88bbb500013a8517,SCR,2024-06-21_11h02.31.616,LearnStrategy,2023.2.3,Win32,59.52380952,6,1,6,0.532380952,0.238095238,1,0,0,1.1503,Andesite_07,1,07,5,8,1.15,1,07,-0.338095238,-0.234285714,1,0,0,1.2149,Andesite_rect,1,1.215,1,5,0,5,0,1,,,,,,,,,,,,,
591d369e88bbb500013a8517,SCR,2024-06-21_11h02.31.616,LearnStrategy,2023.2.3,Win32,59.52380952,6,1,7,-0.56952381,0.107619048,1,0,0,0.8994,Obsidian_09,5,09,4,1,0.899,5,09,-0.371428571,-0.40952381,1,0,0,0.8464,Obsidian_rect,5,0.846,1,6,0,6,0,1,,,,,,,,,,,,,
591d369e88bbb500013a8517,SCR,2024-06-21_11h02.31.616,LearnStrategy,2023.2.3,Win32,59.52380952,6,1,8,0.078095238,-0.406666667,1,0,0,0.9668,Basalt_16,2,16,1,5,0.967,2,16,-0.073333333,-0.243809524,1,0,0,0.9465,Basalt_rect,2,0.947,1,7,0,7,0,1,,,,,,,,,,,,,
591d369e88bbb500013a8517,SCR,2024-06-21_11h02.31.616,LearnStrategy,2023.2.3,Win32,59.52380952,6,1,9,-0.440952381,0.271428571,1,0,0,0.8992,Pegmatite_06,6,06,5,2,0.899,6,06,-0.156190476,-0.399047619,1,0,0,0.9299,Pegmatite_rect,6,0.93,1,8,0,8,0,1,,,,,,,,,,,,,
591d369e88bbb500013a8517,SCR,2024-06-21_11h02.31.616,LearnStrategy,2023.2.3,Win32,59.52380952,6,1,10,0.081904762,-0.236190476,1,0,0,0.8665,Gabbro_09,4,09,2,5,0.866,4,09,-0.32,-0.400952381,1,0,0,2.6683,Obsidian_rect,5,2.668,0,9,0,9,0,1,,,,,,,,,,,,,
591d369e88bbb500013a8517,SCR,2024-06-21_11h02.31.616,LearnStrategy,2023.2.3,Win32,59.52380952,6,1,11,0.226666667,0.392380952,1,0,0,0.9161,Andesite_14,1,14,6,6,0.916,1,14,-0.305714286,-0.257142857,1,0,0,1.6656,Andesite_rect,1,1.666,1,10,0,10,0,1,,,,,,,,,,,,,
591d369e88bbb500013a8517,SCR,2024-06-21_11h02.31.616,LearnStrategy,2023.2.3,Win32,59.52380952,6,1,12,0.260952381,0.20952381,1,0,0,0.8156,Gabbro_14,4,14,5,6,0.816,4,14,0.375238095,-0.24952381,1,0,0,2.0503,Gabbro_rect,4,2.05,1,11,0,11,0,1,,,,,,,,,,,,,
591d369e88bbb500013a8517,SCR,2024-06-21_11h02.31.616,LearnStrategy,2023.2.3,Win32,59.52380952,6,1,13,-0.363809524,0.42,1,0,0,0.8997,Pumice_10,8,10,6,2,0.9,8,10,0.406666667,-0.38952381,1,0,0,1.9494,Pumice_rect,8,1.949,1,12,0,12,0,1,,,,,,,,,,,,,
591d369e88bbb500013a8517,SCR,2024-06-21_11h02.31.616,LearnStrategy,2023.2.3,Win32,59.52380952,6,1,14,-0.075238095,-0.080952381,1,0,0,0.715,Gabbro_05,4,05,3,4,0.715,4,05,-0.385714286,-0.248571429,1,0,0,1.3151,Andesite_rect,1,1.315,0,13,0,13,0,1,,,,,,,,,,,,,
591d369e88bbb500013a8517,SCR,2024-06-21_11h02.31.616,LearnStrategy,2023.2.3,Win32,59.52380952,6,1,15,0.388571429,-0.221904762,1,0,0,0.9871,Pegmatite_08,6,08,2,7,0.987,6,08,-0.10952381,-0.385714286,1,0,0,0.693,Pegmatite_rect,6,0.693,1,14,0,14,0,1,,,,,,,,,,,,,
591d369e88bbb500013a8517,SCR,2024-06-21_11h02.31.616,LearnStrategy,2023.2.3,Win32,59.52380952,6,1,16,-0.248571429,-0.407619048,1,0,0,0.8681,Andesite_11,1,11,1,3,0.868,1,11,0.374285714,-0.245714286,1,0,0,1.3316,Gabbro_rect,4,1.332,0,15,0,15,0,1,,,,,,,,,,,,,
591d369e88bbb500013a8517,SCR,2024-06-21_11h02.31.616,LearnStrategy,2023.2.3,Win32,59.52380952,6,2,1,,,,,,,,1,06,,,,,,,,,,,,,1,1.432,1,,,,,,-0.360952381,-0.241904762,1,0,0,1.4317,Andesite_rect,0,0,0,0,1,
591d369e88bbb500013a8517,SCR,2024-06-21_11h02.31.616,LearnStrategy,2023.2.3,Win32,59.52380952,6,2,2,,,,,,,,3,09,,,,,,,,,,,,,3,2.018,1,,,,,,0.11047619,-0.24,1,0,0,2.0182,Diorite_rect,1,0,1,0,1,
591d369e88bbb500013a8517,SCR,2024-06-21_11h02.31.616,LearnStrategy,2023.2.3,Win32,59.52380952,6,2,3,,,,,,,,6,07,,,,,,,,,,,,,6,1.27,1,,,,,,-0.11047619,-0.383809524,1,0,0,1.2696,Pegmatite_rect,2,0,2,0,1,
591d369e88bbb500013a8517,SCR,2024-06-21_11h02.31.616,LearnStrategy,2023.2.3,Win32,59.52380952,6,2,4,,,,,,,,7,16,,,,,,,,,,,,,6,4.744,0,,,,,,-0.073333333,-0.39047619,1,0,0,4.744,Pegmatite_rect,3,0,3,0,1,
591d369e88bbb500013a8517,SCR,2024-06-21_11h02.31.616,LearnStrategy,2023.2.3,Win32,59.52380952,6,2,5,,,,,,,,4,10,,,,,,,,,,,,,4,2.529,1,,,,,,0.348571429,-0.24,1,0,0,2.5292,Gabbro_rect,4,0,4,0,1,
591d369e88bbb500013a8517,SCR,2024-06-21_11h02.31.616,LearnStrategy,2023.2.3,Win32,59.52380952,6,2,6,,,,,,,,3,13,,,,,,,,,,,,,1,2.012,0,,,,,,-0.322857143,-0.243809524,1,0,0,2.0122,Andesite_rect,5,0,5,0,1,
591d369e88bbb500013a8517,SCR,2024-06-21_11h02.31.616,LearnStrategy,2023.2.3,Win32,59.52380952,6,2,7,,,,,,,,2,08,,,,,,,,,,,,,2,1.683,1,,,,,,-0.113333333,-0.260952381,1,0,0,1.6832,Basalt_rect,6,0,6,0,1,
591d369e88bbb500013a8517,SCR,2024-06-21_11h02.31.616,LearnStrategy,2023.2.3,Win32,59.52380952,6,2,8,,,,,,,,8,09,,,,,,,,,,,,,8,2.101,1,,,,,,0.348571429,-0.402857143,1,0,0,2.1015,Pumice_rect,7,0,7,0,1,
591d369e88bbb500013a8517,SCR,2024-06-21_11h02.31.616,LearnStrategy,2023.2.3,Win32,59.52380952,6,2,9,,,,,,,,6,12,,,,,,,,,,,,,6,2.335,1,,,,,,-0.174285714,-0.408571429,1,0,0,2.3352,Pegmatite_rect,8,0,8,0,1,
591d369e88bbb500013a8517,SCR,2024-06-21_11h02.31.616,LearnStrategy,2023.2.3,Win32,59.52380952,6,2,10,,,,,,,,5,04,,,,,,,,,,,,,5,0.991,1,,,,,,-0.331428571,-0.394285714,1,0,0,0.9913,Obsidian_rect,9,0,9,0,1,
591d369e88bbb500013a8517,SCR,2024-06-21_11h02.31.616,LearnStrategy,2023.2.3,Win32,59.52380952,6,2,11,,,,,,,,2,12,,,,,,,,,,,,,8,1.145,0,,,,,,0.411428571,-0.382857143,1,0,0,1.1454,Pumice_rect,10,0,10,0,1,
591d369e88bbb500013a8517,SCR,2024-06-21_11h02.31.616,LearnStrategy,2023.2.3,Win32,59.52380952,6,2,12,,,,,,,,7,07,,,,,,,,,,,,,7,1.432,1,,,,,,0.138095238,-0.406666667,1,0,0,1.4315,Peridotite_rect,11,0,11,0,1,
591d369e88bbb500013a8517,SCR,2024-06-21_11h02.31.616,LearnStrategy,2023.2.3,Win32,59.52380952,6,2,13,,,,,,,,1,02,,,,,,,,,,,,,1,1.884,1,,,,,,-0.378095238,-0.245714286,1,0,0,1.8836,Andesite_rect,12,0,12,0,1,
591d369e88bbb500013a8517,SCR,2024-06-21_11h02.31.616,LearnStrategy,2023.2.3,Win32,59.52380952,6,2,14,,,,,,,,5,11,,,,,,,,,,,,,5,0.946,1,,,,,,-0.379047619,-0.395238095,1,0,0,0.9464,Obsidian_rect,13,0,13,0,1,
591d369e88bbb500013a8517,SCR,2024-06-21_11h02.31.616,LearnStrategy,2023.2.3,Win32,59.52380952,6,2,15,,,,,,,,8,05,,,,,,,,,,,,,8,1.699,1,,,,,,0.363809524,-0.411428571,1,0,0,1.6987,Pumice_rect,14,0,14,0,1,
591d369e88bbb500013a8517,SCR,2024-06-21_11h02.31.616,LearnStrategy,2023.2.3,Win32,59.52380952,6,2,16,,,,,,,,4,01,,,,,,,,,,,,,7,2.991,0,,,,,,0.20952381,-0.402857143,1,0,0,2.9908,Peridotite_rect,15,0,15,0,1,
591d369e88bbb500013a8517,SCR,2024-06-21_11h02.31.616,LearnStrategy,2023.2.3,Win32,59.52380952,7,1,1,0.106666667,0.374285714,1,0,0,1.7034,Basalt_09,2,09,6,5,1.703,2,09,-0.086666667,-0.228571429,1,0,0,2.1007,Basalt_rect,2,2.101,1,0,0,0,0,1,,,,,,,,,,,,,
591d369e88bbb500013a8517,SCR,2024-06-21_11h02.31.616,LearnStrategy,2023.2.3,Win32,59.52380952,7,1,2,-0.195238095,-0.084761905,1,0,0,0.7174,Diorite_16,3,16,3,3,0.717,3,16,0.161904762,-0.255238095,1,0,0,1.3309,Diorite_rect,3,1.331,1,1,0,1,0,1,,,,,,,,,,,,,
591d369e88bbb500013a8517,SCR,2024-06-21_11h02.31.616,LearnStrategy,2023.2.3,Win32,59.52380952,7,1,3,-0.075238095,-0.083809524,1,0,0,0.5497,Gabbro_05,4,05,3,4,0.55,4,05,0.413333333,-0.259047619,1,0,0,2.0758,Gabbro_rect,4,2.076,1,2,0,2,0,1,,,,,,,,,,,,,
591d369e88bbb500013a8517,SCR,2024-06-21_11h02.31.616,LearnStrategy,2023.2.3,Win32,59.52380952,7,1,4,-0.248571429,0.251428571,1,0,0,0.7947,Diorite_15,3,15,5,3,0.795,3,15,-0.358095238,-0.236190476,1,0,0,2.9855,Andesite_rect,1,2.986,0,3,0,3,0,1,,,,,,,,,,,,,
591d369e88bbb500013a8517,SCR,2024-06-21_11h02.31.616,LearnStrategy,2023.2.3,Win32,59.52380952,7,1,5,0.371428571,0.093333333,1,0,0,1.1171,Gabbro_12,4,12,4,7,1.117,4,12,-0.096190476,-0.24952381,1,0,0,0.7467,Basalt_rect,2,0.747,0,4,0,4,0,1,,,,,,,,,,,,,
591d369e88bbb500013a8517,SCR,2024-06-21_11h02.31.616,LearnStrategy,2023.2.3,Win32,59.52380952,7,1,6,-0.517142857,-0.234285714,1,0,0,0.9693,Andesite_09,1,09,2,1,0.969,1,09,-0.367619048,-0.24952381,1,0,0,2.0471,Andesite_rect,1,2.047,1,5,0,5,0,1,,,,,,,,,,,,,
591d369e88bbb500013a8517,SCR,2024-06-21_11h02.31.616,LearnStrategy,2023.2.3,Win32,59.52380952,7,1,7,-0.234285714,0.406666667,1,0,0,0.9331,Obsidian_07,5,07,6,3,0.933,5,07,-0.335238095,-0.387619048,1,0,0,1.5345,Obsidian_rect,5,1.534,1,6,0,6,0,1,,,,,,,,,,,,,
591d369e88bbb500013a8517,SCR,2024-06-21_11h02.31.616,LearnStrategy,2023.2.3,Win32,59.52380952,7,1,8,-0.395238095,0.407619048,1,0,0,0.8494,Pumice_10,8,10,6,2,0.849,8,10,0.364761905,-0.397142857,1,0,0,1.7322,Pumice_rect,8,1.732,1,7,0,7,0,1,,,,,,,,,,,,,
591d369e88bbb500013a8517,SCR,2024-06-21_11h02.31.616,LearnStrategy,2023.2.3,Win32,59.52380952,7,1,9,0.419047619,-0.066666667,1,0,0,1.0323,Peridotite_08,7,08,3,7,1.032,7,08,0.155238095,-0.398095238,1,0,0,1.214,Peridotite_rect,7,1.214,1,8,0,8,0,1,,,,,,,,,,,,,
591d369e88bbb500013a8517,SCR,2024-06-21_11h02.31.616,LearnStrategy,2023.2.3,Win32,59.52380952,7,1,10,-0.595238095,0.412380952,1,0,0,0.8832,Basalt_11,2,11,6,1,0.883,2,11,0.416190476,-0.245714286,1,0,0,3.0841,Gabbro_rect,4,3.084,0,9,0,9,0,1,,,,,,,,,,,,,
591d369e88bbb500013a8517,SCR,2024-06-21_11h02.31.616,LearnStrategy,2023.2.3,Win32,59.52380952,7,1,11,0.061904762,-0.26952381,1,0,0,0.7159,Gabbro_09,4,09,2,5,0.716,4,09,0.380952381,-0.236190476,1,0,0,1.9329,Gabbro_rect,4,1.933,1,10,0,10,0,1,,,,,,,,,,,,,
591d369e88bbb500013a8517,SCR,2024-06-21_11h02.31.616,LearnStrategy,2023.2.3,Win32,59.52380952,7,1,12,0.573333333,-0.13047619,1,0,0,0.8664,Peridotite_10,7,10,3,8,0.866,7,10,0.15047619,-0.398095238,1,0,0,1.3649,Peridotite_rect,7,1.365,1,11,0,11,0,1,,,,,,,,,,,,,
591d369e88bbb500013a8517,SCR,2024-06-21_11h02.31.616,LearnStrategy,2023.2.3,Win32,59.52380952,7,1,13,0.343809524,-0.08952381,1,0,0,0.865,Peridotite_08,7,08,3,7,0.865,7,08,0.178095238,-0.403809524,1,0,0,1.4975,Peridotite_rect,7,1.498,1,12,0,12,0,1,,,,,,,,,,,,,
591d369e88bbb500013a8517,SCR,2024-06-21_11h02.31.616,LearnStrategy,2023.2.3,Win32,59.52380952,7,1,14,0.233333333,0.41047619,1,0,0,0.9995,Andesite_14,1,14,6,6,0.999,1,14,-0.355238095,-0.241904762,1,0,0,1.9667,Andesite_rect,1,1.967,1,13,0,13,0,1,,,,,,,,,,,,,
591d369e88bbb500013a8517,SCR,2024-06-21_11h02.31.616,LearnStrategy,2023.2.3,Win32,59.52380952,7,1,15,0.556190476,0.232380952,1,0,0,1.0335,Andesite_07,1,07,5,8,1.034,1,07,-0.361904762,-0.237142857,1,0,0,1.1806,Andesite_rect,1,1.181,1,14,0,14,0,1,,,,,,,,,,,,,
591d369e88bbb500013a8517,SCR,2024-06-21_11h02.31.616,LearnStrategy,2023.2.3,Win32,59.52380952,7,1,16,-0.360952381,0.245714286,1,0,0,0.8996,Pegmatite_06,6,06,5,2,0.9,6,06,-0.102857143,-0.383809524,1,0,0,0.9016,Pegmatite_rect,6,0.902,1,15,0,15,0,1,,,,,,,,,,,,,
591d369e88bbb500013a8517,SCR,2024-06-21_11h02.31.616,LearnStrategy,2023.2.3,Win32,59.52380952,7,2,1,,,,,,,,5,14,,,,,,,,,,,,,5,1.08,1,,,,,,-0.387619048,-0.388571429,1,0,0,1.0798,Obsidian_rect,0,0,0,0,1,
591d369e88bbb500013a8517,SCR,2024-06-21_11h02.31.616,LearnStrategy,2023.2.3,Win32,59.52380952,7,2,2,,,,,,,,1,06,,,,,,,,,,,,,1,1.43,1,,,,,,-0.366666667,-0.251428571,1,0,0,1.4303,Andesite_rect,1,0,1,0,1,
591d369e88bbb500013a8517,SCR,2024-06-21_11h02.31.616,LearnStrategy,2023.2.3,Win32,59.52380952,7,2,3,,,,,,,,6,16,,,,,,,,,,,,,6,1.783,1,,,,,,-0.068571429,-0.381904762,1,0,0,1.7834,Pegmatite_rect,2,0,2,0,1,
591d369e88bbb500013a8517,SCR,2024-06-21_11h02.31.616,LearnStrategy,2023.2.3,Win32,59.52380952,7,2,4,,,,,,,,3,08,,,,,,,,,,,,,3,2.584,1,,,,,,0.214285714,-0.247619048,1,0,0,2.5843,Diorite_rect,3,0,3,0,1,
591d369e88bbb500013a8517,SCR,2024-06-21_11h02.31.616,LearnStrategy,2023.2.3,Win32,59.52380952,7,2,5,,,,,,,,2,12,,,,,,,,,,,,,8,4.086,0,,,,,,0.386666667,-0.401904762,1,0,0,4.0857,Pumice_rect,4,0,4,0,1,
591d369e88bbb500013a8517,SCR,2024-06-21_11h02.31.616,LearnStrategy,2023.2.3,Win32,59.52380952,7,2,6,,,,,,,,6,07,,,,,,,,,,,,,7,1.628,0,,,,,,0.07047619,-0.395238095,1,0,0,1.6275,Peridotite_rect,5,0,5,0,1,
591d369e88bbb500013a8517,SCR,2024-06-21_11h02.31.616,LearnStrategy,2023.2.3,Win32,59.52380952,7,2,7,,,,,,,,8,09,,,,,,,,,,,,,8,1.298,1,,,,,,0.371428571,-0.403809524,1,0,0,1.298,Pumice_rect,6,0,6,0,1,
591d369e88bbb500013a8517,SCR,2024-06-21_11h02.31.616,LearnStrategy,2023.2.3,Win32,59.52380952,7,2,8,,,,,,,,4,10,,,,,,,,,,,,,4,1.569,1,,,,,,0.343809524,-0.247619048,1,0,0,1.5693,Gabbro_rect,7,0,7,0,1,
591d369e88bbb500013a8517,SCR,2024-06-21_11h02.31.616,LearnStrategy,2023.2.3,Win32,59.52380952,7,2,9,,,,,,,,7,14,,,,,,,,,,,,,1,3.103,0,,,,,,-0.317142857,-0.247619048,1,0,0,3.103,Andesite_rect,8,0,8,0,1,
591d369e88bbb500013a8517,SCR,2024-06-21_11h02.31.616,LearnStrategy,2023.2.3,Win32,59.52380952,7,2,10,,,,,,,,7,05,,,,,,,,,,,,,7,1.894,1,,,,,,0.112380952,-0.384761905,1,0,0,1.8941,Peridotite_rect,9,0,9,0,1,
591d369e88bbb500013a8517,SCR,2024-06-21_11h02.31.616,LearnStrategy,2023.2.3,Win32,59.52380952,7,2,11,,,,,,,,5,11,,,,,,,,,,,,,5,1.047,1,,,,,,-0.4,-0.386666667,1,0,0,1.0471,Obsidian_rect,10,0,10,0,1,
591d369e88bbb500013a8517,SCR,2024-06-21_11h02.31.616,LearnStrategy,2023.2.3,Win32,59.52380952,7,2,12,,,,,,,,2,02,,,,,,,,,,,,,2,1.348,1,,,,,,-0.133333333,-0.252380952,1,0,0,1.3479,Basalt_rect,11,0,11,0,1,
591d369e88bbb500013a8517,SCR,2024-06-21_11h02.31.616,LearnStrategy,2023.2.3,Win32,59.52380952,7,2,13,,,,,,,,4,13,,,,,,,,,,,,,1,1.85,0,,,,,,-0.352380952,-0.256190476,1,0,0,1.8499,Andesite_rect,12,0,12,0,1,
591d369e88bbb500013a8517,SCR,2024-06-21_11h02.31.616,LearnStrategy,2023.2.3,Win32,59.52380952,7,2,14,,,,,,,,8,05,,,,,,,,,,,,,8,1.171,1,,,,,,0.360952381,-0.402857143,1,0,0,1.1706,Pumice_rect,13,0,13,0,1,
591d369e88bbb500013a8517,SCR,2024-06-21_11h02.31.616,LearnStrategy,2023.2.3,Win32,59.52380952,7,2,15,,,,,,,,3,11,,,,,,,,,,,,,3,1.518,1,,,,,,0.123809524,-0.255238095,1,0,0,1.5184,Diorite_rect,14,0,14,0,1,
591d369e88bbb500013a8517,SCR,2024-06-21_11h02.31.616,LearnStrategy,2023.2.3,Win32,59.52380952,7,2,16,,,,,,,,1,03,,,,,,,,,,,,,1,2.836,1,,,,,,-0.317142857,-0.246666667,1,0,0,2.8363,Andesite_rect,15,0,15,0,1,
591d369e88bbb500013a8517,SCR,2024-06-21_11h02.31.616,LearnStrategy,2023.2.3,Win32,59.52380952,8,1,1,-0.28,-0.09047619,1,0,0,0.8826,Diorite_16,3,16,3,3,0.883,3,16,0.16952381,-0.255238095,1,0,0,1.2816,Diorite_rect,3,1.282,1,0,0,0,0,1,,,,,,,,,,,,,
591d369e88bbb500013a8517,SCR,2024-06-21_11h02.31.616,LearnStrategy,2023.2.3,Win32,59.52380952,8,1,2,-0.584761905,-0.405714286,1,0,0,1.4006,Gabbro_16,4,16,1,1,1.401,4,16,0.359047619,-0.24952381,1,0,0,2.0549,Gabbro_rect,4,2.055,1,1,0,1,0,1,,,,,,,,,,,,,
591d369e88bbb500013a8517,SCR,2024-06-21_11h02.31.616,LearnStrategy,2023.2.3,Win32,59.52380952,8,1,3,-0.379047619,0.393333333,1,0,0,0.9374,Pumice_10,8,10,6,2,0.937,8,10,0.398095238,-0.411428571,1,0,0,1.1787,Pumice_rect,8,1.179,1,2,0,2,0,1,,,,,,,,,,,,,
591d369e88bbb500013a8517,SCR,2024-06-21_11h02.31.616,LearnStrategy,2023.2.3,Win32,59.52380952,8,1,4,0.52952381,-0.116190476,1,0,0,0.8999,Peridotite_10,7,10,3,8,0.9,7,10,0.132380952,-0.393333333,1,0,0,1.8658,Peridotite_rect,7,1.866,1,3,0,3,0,1,,,,,,,,,,,,,
591d369e88bbb500013a8517,SCR,2024-06-21_11h02.31.616,LearnStrategy,2023.2.3,Win32,59.52380952,8,1,5,0.26,0.082857143,1,0,0,0.7823,Pegmatite_15,6,15,4,6,0.782,6,15,-0.104761905,-0.4,1,0,0,1.4154,Pegmatite_rect,6,1.415,1,4,0,4,0,1,,,,,,,,,,,,,
591d369e88bbb500013a8517,SCR,2024-06-21_11h02.31.616,LearnStrategy,2023.2.3,Win32,59.52380952,8,1,6,0.238095238,0.251428571,1,0,0,0.8157,Gabbro_14,4,14,5,6,0.816,4,14,0.355238095,-0.242857143,1,0,0,1.3313,Gabbro_rect,4,1.331,1,5,0,5,0,1,,,,,,,,,,,,,
591d369e88bbb500013a8517,SCR,2024-06-21_11h02.31.616,LearnStrategy,2023.2.3,Win32,59.52380952,8,1,7,-0.34,-0.065714286,1,0,0,0.7493,Peridotite_04,7,04,3,2,0.749,7,04,-0.348571429,-0.251428571,1,0,0,1.6998,Andesite_rect,1,1.7,0,6,0,6,0,1,,,,,,,,,,,,,
591d369e88bbb500013a8517,SCR,2024-06-21_11h02.31.616,LearnStrategy,2023.2.3,Win32,59.52380952,8,1,8,-0.518095238,-0.257142857,1,0,0,0.883,Andesite_09,1,09,2,1,0.883,1,09,-0.161904762,-0.262857143,1,0,0,1.2478,Basalt_rect,2,1.248,0,7,0,7,0,1,,,,,,,,,,,,,
591d369e88bbb500013a8517,SCR,2024-06-21_11h02.31.616,LearnStrategy,2023.2.3,Win32,59.52380952,8,1,9,-0.376190476,0.094285714,1,0,0,0.7827,Basalt_05,2,05,4,2,0.783,2,05,-0.161904762,-0.25047619,1,0,0,0.7953,Basalt_rect,2,0.795,1,8,0,8,0,1,,,,,,,,,,,,,
591d369e88bbb500013a8517,SCR,2024-06-21_11h02.31.616,LearnStrategy,2023.2.3,Win32,59.52380952,8,1,10,-0.066666667,0.432380952,1,0,0,0.8159,Gabbro_08,4,08,6,4,0.816,4,08,0.085714286,-0.383809524,1,0,0,1.9176,Peridotite_rect,7,1.918,0,9,0,9,0,1,,,,,,,,,,,,,
591d369e88bbb500013a8517,SCR,2024-06-21_11h02.31.616,LearnStrategy,2023.2.3,Win32,59.52380952,8,1,11,0.048571429,0.241904762,1,0,0,0.6824,Peridotite_12,7,12,5,5,0.682,7,12,-0.32952381,-0.246666667,1,0,0,1.9374,Andesite_rect,1,1.937,0,10,0,10,0,1,,,,,,,,,,,,,
591d369e88bbb500013a8517,SCR,2024-06-21_11h02.31.616,LearnStrategy,2023.2.3,Win32,59.52380952,8,1,12,0.59047619,0.254285714,1,0,0,0.9996,Andesite_07,1,07,5,8,1,1,07,-0.333333333,-0.24,1,0,0,1.3151,Andesite_rect,1,1.315,1,11,0,11,0,1,,,,,,,,,,,,,
591d369e88bbb500013a8517,SCR,2024-06-21_11h02.31.616,LearnStrategy,2023.2.3,Win32,59.52380952,8,1,13,-0.222857143,0.084761905,1,0,0,0.9334,Pegmatite_09,6,09,4,3,0.933,6,09,-0.107619048,-0.388571429,1,0,0,0.9294,Pegmatite_rect,6,0.929,1,12,0,12,0,1,,,,,,,,,,,,,
591d369e88bbb500013a8517,SCR,2024-06-21_11h02.31.616,LearnStrategy,2023.2.3,Win32,59.52380952,8,1,14,-0.564761905,0.417142857,1,0,0,0.8828,Basalt_11,2,11,6,1,0.883,2,11,-0.083809524,-0.254285714,1,0,0,2.1166,Basalt_rect,2,2.117,1,13,0,13,0,1,,,,,,,,,,,,,
591d369e88bbb500013a8517,SCR,2024-06-21_11h02.31.616,LearnStrategy,2023.2.3,Win32,59.52380952,8,1,15,-0.260952381,0.400952381,1,0,0,0.766,Obsidian_07,5,07,6,3,0.766,5,07,-0.34952381,-0.412380952,1,0,0,1.2806,Obsidian_rect,5,1.281,1,14,0,14,0,1,,,,,,,,,,,,,
591d369e88bbb500013a8517,SCR,2024-06-21_11h02.31.616,LearnStrategy,2023.2.3,Win32,59.52380952,8,1,16,0.082857143,-0.400952381,1,0,0,1.032,Basalt_16,2,16,1,5,1.032,2,16,-0.102857143,-0.239047619,1,0,0,1.5822,Basalt_rect,2,1.582,1,15,0,15,0,1,,,,,,,,,,,,,
591d369e88bbb500013a8517,SCR,2024-06-21_11h02.31.616,LearnStrategy,2023.2.3,Win32,59.52380952,8,2,1,,,,,,,,4,11,,,,,,,,,,,,,2,2.185,0,,,,,,-0.099047619,-0.24,1,0,0,2.1849,Basalt_rect,0,0,0,0,1,
591d369e88bbb500013a8517,SCR,2024-06-21_11h02.31.616,LearnStrategy,2023.2.3,Win32,59.52380952,8,2,2,,,,,,,,7,02,,,,,,,,,,,,,7,1.215,1,,,,,,0.113333333,-0.408571429,1,0,0,1.2147,Peridotite_rect,1,0,1,0,1,
591d369e88bbb500013a8517,SCR,2024-06-21_11h02.31.616,LearnStrategy,2023.2.3,Win32,59.52380952,8,2,3,,,,,,,,1,02,,,,,,,,,,,,,1,1.648,1,,,,,,-0.352380952,-0.266666667,1,0,0,1.648,Andesite_rect,2,0,2,0,1,
591d369e88bbb500013a8517,SCR,2024-06-21_11h02.31.616,LearnStrategy,2023.2.3,Win32,59.52380952,8,2,4,,,,,,,,3,06,,,,,,,,,,,,,1,3.356,0,,,,,,-0.356190476,-0.24952381,1,0,0,3.3556,Andesite_rect,3,0,3,0,1,
591d369e88bbb500013a8517,SCR,2024-06-21_11h02.31.616,LearnStrategy,2023.2.3,Win32,59.52380952,8,2,5,,,,,,,,6,13,,,,,,,,,,,,,6,1.444,1,,,,,,-0.164761905,-0.392380952,1,0,0,1.4439,Pegmatite_rect,4,0,4,0,1,
591d369e88bbb500013a8517,SCR,2024-06-21_11h02.31.616,LearnStrategy,2023.2.3,Win32,59.52380952,8,2,6,,,,,,,,8,04,,,,,,,,,,,,,8,1.215,1,,,,,,0.377142857,-0.393333333,1,0,0,1.2152,Pumice_rect,5,0,5,0,1,
591d369e88bbb500013a8517,SCR,2024-06-21_11h02.31.616,LearnStrategy,2023.2.3,Win32,59.52380952,8,2,7,,,,,,,,5,12,,,,,,,,,,,,,5,1.097,1,,,,,,-0.300952381,-0.38952381,1,0,0,1.0966,Obsidian_rect,6,0,6,0,1,
591d369e88bbb500013a8517,SCR,2024-06-21_11h02.31.616,LearnStrategy,2023.2.3,Win32,59.52380952,8,2,8,,,,,,,,4,15,,,,,,,,,,,,,1,2.988,0,,,,,,-0.326666667,-0.253333333,1,0,0,2.9879,Andesite_rect,7,0,7,0,1,
591d369e88bbb500013a8517,SCR,2024-06-21_11h02.31.616,LearnStrategy,2023.2.3,Win32,59.52380952,8,2,9,,,,,,,,8,13,,,,,,,,,,,,,2,3.436,0,,,,,,-0.185714286,-0.263809524,1,0,0,3.4364,Basalt_rect,8,0,8,0,1,
591d369e88bbb500013a8517,SCR,2024-06-21_11h02.31.616,LearnStrategy,2023.2.3,Win32,59.52380952,8,2,10,,,,,,,,2,06,,,,,,,,,,,,,2,0.765,1,,,,,,-0.185714286,-0.263809524,1,0,0,0.7655,Basalt_rect,9,0,9,0,1,
591d369e88bbb500013a8517,SCR,2024-06-21_11h02.31.616,LearnStrategy,2023.2.3,Win32,59.52380952,8,2,11,,,,,,,,6,10,,,,,,,,,,,,,6,1.18,1,,,,,,-0.154285714,-0.393333333,1,0,0,1.1804,Pegmatite_rect,10,0,10,0,1,
591d369e88bbb500013a8517,SCR,2024-06-21_11h02.31.616,LearnStrategy,2023.2.3,Win32,59.52380952,8,2,12,,,,,,,,5,08,,,,,,,,,,,,,5,0.93,1,,,,,,-0.30952381,-0.392380952,1,0,0,0.9305,Obsidian_rect,11,0,11,0,1,
591d369e88bbb500013a8517,SCR,2024-06-21_11h02.31.616,LearnStrategy,2023.2.3,Win32,59.52380952,8,2,13,,,,,,,,2,08,,,,,,,,,,,,,2,1.217,1,,,,,,-0.16,-0.246666667,1,0,0,1.2169,Basalt_rect,12,0,12,0,1,
591d369e88bbb500013a8517,SCR,2024-06-21_11h02.31.616,LearnStrategy,2023.2.3,Win32,59.52380952,8,2,14,,,,,,,,3,14,,,,,,,,,,,,,3,1.164,1,,,,,,0.04952381,-0.236190476,1,0,0,1.1639,Diorite_rect,13,0,13,0,1,
591d369e88bbb500013a8517,SCR,2024-06-21_11h02.31.616,LearnStrategy,2023.2.3,Win32,59.52380952,8,2,15,,,,,,,,1,10,,,,,,,,,,,,,2,3.806,0,,,,,,-0.059047619,-0.248571429,1,0,0,3.8063,Basalt_rect,14,0,14,0,1,
591d369e88bbb500013a8517,SCR,2024-06-21_11h02.31.616,LearnStrategy,2023.2.3,Win32,59.52380952,8,2,16,,,,,,,,7,16,,,,,,,,,,,,,7,1.845,1,,,,,,0.065714286,-0.404761905,1,0,0,1.845,Peridotite_rect,15,0,15,0,1,
591d369e88bbb500013a8517,SCR,2024-06-21_11h02.31.616,LearnStrategy,2023.2.3,Win32,59.52380952,9,1,1,0.21047619,-0.398095238,1,0,0,1.067,Diorite_10,3,10,1,6,1.067,3,10,0.143809524,-0.240952381,1,0,0,1.7158,Diorite_rect,3,1.716,1,0,0,0,0,1,,,,,,,,,,,,,
591d369e88bbb500013a8517,SCR,2024-06-21_11h02.31.616,LearnStrategy,2023.2.3,Win32,59.52380952,9,1,2,-0.045714286,-0.26,1,0,0,0.6848,Pumice_08,8,08,2,4,0.685,8,08,0.425714286,-0.382857143,1,0,0,0.916,Pumice_rect,8,0.916,1,1,0,1,0,1,,,,,,,,,,,,,
591d369e88bbb500013a8517,SCR,2024-06-21_11h02.31.616,LearnStrategy,2023.2.3,Win32,59.52380952,9,1,3,0.073333333,0.422857143,1,0,0,0.8819,Basalt_09,2,09,6,5,0.882,2,09,-0.075238095,-0.24952381,1,0,0,0.8636,Basalt_rect,2,0.864,1,2,0,2,0,1,,,,,,,,,,,,,
591d369e88bbb500013a8517,SCR,2024-06-21_11h02.31.616,LearnStrategy,2023.2.3,Win32,59.52380952,9,1,4,-0.55047619,-0.397142857,1,0,0,1.1502,Gabbro_16,4,16,1,1,1.15,4,16,0.341904762,-0.252380952,1,0,0,1.8334,Gabbro_rect,4,1.833,1,3,0,3,0,1,,,,,,,,,,,,,
591d369e88bbb500013a8517,SCR,2024-06-21_11h02.31.616,LearnStrategy,2023.2.3,Win32,59.52380952,9,1,5,0.053333333,0.252380952,1,0,0,0.7822,Peridotite_12,7,12,5,5,0.782,7,12,0.124761905,-0.396190476,1,0,0,1.9338,Peridotite_rect,7,1.934,1,4,0,4,0,1,,,,,,,,,,,,,
591d369e88bbb500013a8517,SCR,2024-06-21_11h02.31.616,LearnStrategy,2023.2.3,Win32,59.52380952,9,1,6,0.065714286,0.220952381,1,0,0,0.7324,Peridotite_12,7,12,5,5,0.732,7,12,0.146666667,-0.408571429,1,0,0,0.8639,Peridotite_rect,7,0.864,1,5,0,5,0,1,,,,,,,,,,,,,
591d369e88bbb500013a8517,SCR,2024-06-21_11h02.31.616,LearnStrategy,2023.2.3,Win32,59.52380952,9,1,7,0.554285714,-0.27047619,1,0,0,1.0671,Pegmatite_11,6,11,2,8,1.067,6,11,-0.098095238,-0.401904762,1,0,0,0.9957,Pegmatite_rect,6,0.996,1,6,0,6,0,1,,,,,,,,,,,,,
591d369e88bbb500013a8517,SCR,2024-06-21_11h02.31.616,LearnStrategy,2023.2.3,Win32,59.52380952,9,1,8,0.396190476,0.240952381,1,0,0,0.9828,Obsidian_05,5,05,5,7,0.983,5,05,-0.36952381,-0.397142857,1,0,0,1.8322,Obsidian_rect,5,1.832,1,7,0,7,0,1,,,,,,,,,,,,,
591d369e88bbb500013a8517,SCR,2024-06-21_11h02.31.616,LearnStrategy,2023.2.3,Win32,59.52380952,9,1,9,-0.527619048,-0.42,1,0,0,1.0502,Gabbro_16,4,16,1,1,1.05,4,16,-0.144761905,-0.251428571,1,0,0,0.9165,Basalt_rect,2,0.917,0,8,0,8,0,1,,,,,,,,,,,,,
591d369e88bbb500013a8517,SCR,2024-06-21_11h02.31.616,LearnStrategy,2023.2.3,Win32,59.52380952,9,1,10,0.26952381,0.213333333,1,0,0,0.8662,Gabbro_14,4,14,5,6,0.866,4,14,-0.07047619,-0.253333333,1,0,0,1.1972,Basalt_rect,2,1.197,0,9,0,9,0,1,,,,,,,,,,,,,
591d369e88bbb500013a8517,SCR,2024-06-21_11h02.31.616,LearnStrategy,2023.2.3,Win32,59.52380952,9,1,11,-0.552380952,-0.405714286,1,0,0,1.0669,Gabbro_16,4,16,1,1,1.067,4,16,0.352380952,-0.236190476,1,0,0,1.2642,Gabbro_rect,4,1.264,1,10,0,10,0,1,,,,,,,,,,,,,
591d369e88bbb500013a8517,SCR,2024-06-21_11h02.31.616,LearnStrategy,2023.2.3,Win32,59.52380952,9,1,12,-0.548571429,-0.26,1,0,0,0.8829,Andesite_09,1,09,2,1,0.883,1,09,-0.120952381,-0.246666667,1,0,0,1.8164,Basalt_rect,2,1.816,0,11,0,11,0,1,,,,,,,,,,,,,
591d369e88bbb500013a8517,SCR,2024-06-21_11h02.31.616,LearnStrategy,2023.2.3,Win32,59.52380952,9,1,13,0.557142857,-0.420952381,1,0,0,1.2021,Diorite_12,3,12,1,8,1.202,3,12,0.186666667,-0.248571429,1,0,0,1.8722,Diorite_rect,3,1.872,1,12,0,12,0,1,,,,,,,,,,,,,
591d369e88bbb500013a8517,SCR,2024-06-21_11h02.31.616,LearnStrategy,2023.2.3,Win32,59.52380952,9,1,14,-0.35047619,-0.392380952,1,0,0,0.861,Pumice_15,8,15,1,2,0.861,8,15,0.382857143,-0.395238095,1,0,0,0.8293,Pumice_rect,8,0.829,1,13,0,13,0,1,,,,,,,,,,,,,
591d369e88bbb500013a8517,SCR,2024-06-21_11h02.31.616,LearnStrategy,2023.2.3,Win32,59.52380952,9,1,15,0.045714286,0.394285714,1,0,0,0.8172,Basalt_09,2,09,6,5,0.817,2,09,-0.122857143,-0.255238095,1,0,0,0.6956,Basalt_rect,2,0.696,1,14,0,14,0,1,,,,,,,,,,,,,
591d369e88bbb500013a8517,SCR,2024-06-21_11h02.31.616,LearnStrategy,2023.2.3,Win32,59.52380952,9,1,16,0.257142857,-0.256190476,1,0,0,1.1205,Andesite_05,1,05,2,6,1.12,1,05,-0.333333333,-0.254285714,1,0,0,1.4307,Andesite_rect,1,1.431,1,15,0,15,0,1,,,,,,,,,,,,,
591d369e88bbb500013a8517,SCR,2024-06-21_11h02.31.616,LearnStrategy,2023.2.3,Win32,59.52380952,9,2,1,,,,,,,,2,14,,,,,,,,,,,,,4,4.224,0,,,,,,0.34952381,-0.240952381,1,0,0,4.2242,Gabbro_rect,0,0,0,0,1,
591d369e88bbb500013a8517,SCR,2024-06-21_11h02.31.616,LearnStrategy,2023.2.3,Win32,59.52380952,9,2,2,,,,,,,,6,05,,,,,,,,,,,,,6,5.374,1,,,,,,-0.06952381,-0.391428571,1,0,0,5.3738,Pegmatite_rect,1,0,1,0,1,
591d369e88bbb500013a8517,SCR,2024-06-21_11h02.31.616,LearnStrategy,2023.2.3,Win32,59.52380952,9,2,3,,,,,,,,7,13,,,,,,,,,,,,,7,1.789,1,,,,,,0.060952381,-0.406666667,1,0,0,1.7895,Peridotite_rect,2,0,2,0,1,
591d369e88bbb500013a8517,SCR,2024-06-21_11h02.31.616,LearnStrategy,2023.2.3,Win32,59.52380952,9,2,4,,,,,,,,3,13,,,,,,,,,,,,,3,1.331,1,,,,,,0.08,-0.268571429,1,0,0,1.3313,Diorite_rect,3,0,3,0,1,
591d369e88bbb500013a8517,SCR,2024-06-21_11h02.31.616,LearnStrategy,2023.2.3,Win32,59.52380952,9,2,5,,,,,,,,1,04,,,,,,,,,,,,,1,1.552,1,,,,,,-0.371428571,-0.237142857,1,0,0,1.5523,Andesite_rect,4,0,4,0,1,
591d369e88bbb500013a8517,SCR,2024-06-21_11h02.31.616,LearnStrategy,2023.2.3,Win32,59.52380952,9,2,6,,,,,,,,3,09,,,,,,,,,,,,,3,1.599,1,,,,,,0.088571429,-0.256190476,1,0,0,1.5993,Diorite_rect,5,0,5,0,1,
591d369e88bbb500013a8517,SCR,2024-06-21_11h02.31.616,LearnStrategy,2023.2.3,Win32,59.52380952,9,2,7,,,,,,,,8,14,,,,,,,,,,,,,8,1.466,1,,,,,,0.322857143,-0.387619048,1,0,0,1.4662,Pumice_rect,6,0,6,0,1,
591d369e88bbb500013a8517,SCR,2024-06-21_11h02.31.616,LearnStrategy,2023.2.3,Win32,59.52380952,9,2,8,,,,,,,,2,10,,,,,,,,,,,,,2,2.922,1,,,,,,-0.157142857,-0.245714286,1,0,0,2.9217,Basalt_rect,7,0,7,0,1,
591d369e88bbb500013a8517,SCR,2024-06-21_11h02.31.616,LearnStrategy,2023.2.3,Win32,59.52380952,9,2,9,,,,,,,,5,04,,,,,,,,,,,,,5,0.986,1,,,,,,-0.376190476,-0.388571429,1,0,0,0.9861,Obsidian_rect,8,0,8,0,1,
591d369e88bbb500013a8517,SCR,2024-06-21_11h02.31.616,LearnStrategy,2023.2.3,Win32,59.52380952,9,2,10,,,,,,,,4,01,,,,,,,,,,,,,4,2.101,1,,,,,,0.357142857,-0.246666667,1,0,0,2.1013,Gabbro_rect,9,0,9,0,1,
591d369e88bbb500013a8517,SCR,2024-06-21_11h02.31.616,LearnStrategy,2023.2.3,Win32,59.52380952,9,2,11,,,,,,,,8,02,,,,,,,,,,,,,8,3.132,1,,,,,,0.365714286,-0.398095238,1,0,0,3.1316,Pumice_rect,10,0,10,0,1,
591d369e88bbb500013a8517,SCR,2024-06-21_11h02.31.616,LearnStrategy,2023.2.3,Win32,59.52380952,9,2,12,,,,,,,,4,03,,,,,,,,,,,,,3,3.7,0,,,,,,0.106666667,-0.255238095,1,0,0,3.6998,Diorite_rect,11,0,11,0,1,
591d369e88bbb500013a8517,SCR,2024-06-21_11h02.31.616,LearnStrategy,2023.2.3,Win32,59.52380952,9,2,13,,,,,,,,7,07,,,,,,,,,,,,,7,1.359,1,,,,,,0.106666667,-0.398095238,1,0,0,1.359,Peridotite_rect,12,0,12,0,1,
591d369e88bbb500013a8517,SCR,2024-06-21_11h02.31.616,LearnStrategy,2023.2.3,Win32,59.52380952,9,2,14,,,,,,,,5,16,,,,,,,,,,,,,5,1.337,1,,,,,,-0.31047619,-0.393333333,1,0,0,1.337,Obsidian_rect,13,0,13,0,1,
591d369e88bbb500013a8517,SCR,2024-06-21_11h02.31.616,LearnStrategy,2023.2.3,Win32,59.52380952,9,2,15,,,,,,,,1,01,,,,,,,,,,,,,4,1.617,0,,,,,,0.379047619,-0.257142857,1,0,0,1.6169,Gabbro_rect,14,0,14,0,1,
591d369e88bbb500013a8517,SCR,2024-06-21_11h02.31.616,LearnStrategy,2023.2.3,Win32,59.52380952,9,2,16,,,,,,,,6,12,,,,,,,,,,,,,6,4.059,1,,,,,,-0.095238095,-0.40952381,1,0,0,4.0594,Pegmatite_rect,15,0,15,0,1,
591d369e88bbb500013a8517,SCR,2024-06-21_11h02.31.616,LearnStrategy,2023.2.3,Win32,59.52380952,,,,,,,,,,,,,,,,,,,,,,,,,,,,,,,,,,,,,,,,,,,,,1
591d369e88bbb500013a8517,SCR,2024-06-21_11h02.31.616,LearnStrategy,2023.2.3,Win32,59.52380952,,,,,,,,,,,,,,,,,,,,,,,,,,,,,,,,,,,,,,,,,,,,,
591d369e88bbb500013a8517,SCR,2024-06-21_11h02.31.616,LearnStrategy,2023.2.3,Win32,59.52380952,,,,,,,,,,,4,16,1,1,,,,,,,,,,,,,,,,,,,,,,,,,,,,,,,
591d369e88bbb500013a8517,SCR,2024-06-21_11h02.31.616,LearnStrategy,2023.2.3,Win32,59.52380952,,,,,,,,,,,8,15,1,2,,,,,,,,,,,,,,,,,,,,,,,,,,,,,,,
591d369e88bbb500013a8517,SCR,2024-06-21_11h02.31.616,LearnStrategy,2023.2.3,Win32,59.52380952,,,,,,,,,,,1,11,1,3,,,,,,,,,,,,,,,,,,,,,,,,,,,,,,,
591d369e88bbb500013a8517,SCR,2024-06-21_11h02.31.616,LearnStrategy,2023.2.3,Win32,59.52380952,,,,,,,,,,,8,16,1,4,,,,,,,,,,,,,,,,,,,,,,,,,,,,,,,
591d369e88bbb500013a8517,SCR,2024-06-21_11h02.31.616,LearnStrategy,2023.2.3,Win32,59.52380952,,,,,,,,,,,2,16,1,5,,,,,,,,,,,,,,,,,,,,,,,,,,,,,,,
591d369e88bbb500013a8517,SCR,2024-06-21_11h02.31.616,LearnStrategy,2023.2.3,Win32,59.52380952,,,,,,,,,,,3,10,1,6,,,,,,,,,,,,,,,,,,,,,,,,,,,,,,,
591d369e88bbb500013a8517,SCR,2024-06-21_11h02.31.616,LearnStrategy,2023.2.3,Win32,59.52380952,,,,,,,,,,,6,03,1,7,,,,,,,,,,,,,,,,,,,,,,,,,,,,,,,
591d369e88bbb500013a8517,SCR,2024-06-21_11h02.31.616,LearnStrategy,2023.2.3,Win32,59.52380952,,,,,,,,,,,3,12,1,8,,,,,,,,,,,,,,,,,,,,,,,,,,,,,,,
591d369e88bbb500013a8517,SCR,2024-06-21_11h02.31.616,LearnStrategy,2023.2.3,Win32,59.52380952,,,,,,,,,,,1,09,2,1,,,,,,,,,,,,,,,,,,,,,,,,,,,,,,,
591d369e88bbb500013a8517,SCR,2024-06-21_11h02.31.616,LearnStrategy,2023.2.3,Win32,59.52380952,,,,,,,,,,,5,02,2,2,,,,,,,,,,,,,,,,,,,,,,,,,,,,,,,
591d369e88bbb500013a8517,SCR,2024-06-21_11h02.31.616,LearnStrategy,2023.2.3,Win32,59.52380952,,,,,,,,,,,1,16,2,3,,,,,,,,,,,,,,,,,,,,,,,,,,,,,,,
591d369e88bbb500013a8517,SCR,2024-06-21_11h02.31.616,LearnStrategy,2023.2.3,Win32,59.52380952,,,,,,,,,,,8,08,2,4,,,,,,,,,,,,,,,,,,,,,,,,,,,,,,,
591d369e88bbb500013a8517,SCR,2024-06-21_11h02.31.616,LearnStrategy,2023.2.3,Win32,59.52380952,,,,,,,,,,,4,09,2,5,,,,,,,,,,,,,,,,,,,,,,,,,,,,,,,
591d369e88bbb500013a8517,SCR,2024-06-21_11h02.31.616,LearnStrategy,2023.2.3,Win32,59.52380952,,,,,,,,,,,1,05,2,6,,,,,,,,,,,,,,,,,,,,,,,,,,,,,,,
591d369e88bbb500013a8517,SCR,2024-06-21_11h02.31.616,LearnStrategy,2023.2.3,Win32,59.52380952,,,,,,,,,,,6,08,2,7,,,,,,,,,,,,,,,,,,,,,,,,,,,,,,,
591d369e88bbb500013a8517,SCR,2024-06-21_11h02.31.616,LearnStrategy,2023.2.3,Win32,59.52380952,,,,,,,,,,,6,11,2,8,,,,,,,,,,,,,,,,,,,,,,,,,,,,,,,
591d369e88bbb500013a8517,SCR,2024-06-21_11h02.31.616,LearnStrategy,2023.2.3,Win32,59.52380952,,,,,,,,,,,5,10,3,1,,,,,,,,,,,,,,,,,,,,,,,,,,,,,,,
591d369e88bbb500013a8517,SCR,2024-06-21_11h02.31.616,LearnStrategy,2023.2.3,Win32,59.52380952,,,,,,,,,,,7,04,3,2,,,,,,,,,,,,,,,,,,,,,,,,,,,,,,,
591d369e88bbb500013a8517,SCR,2024-06-21_11h02.31.616,LearnStrategy,2023.2.3,Win32,59.52380952,,,,,,,,,,,3,16,3,3,,,,,,,,,,,,,,,,,,,,,,,,,,,,,,,
591d369e88bbb500013a8517,SCR,2024-06-21_11h02.31.616,LearnStrategy,2023.2.3,Win32,59.52380952,,,,,,,,,,,4,05,3,4,,,,,,,,,,,,,,,,,,,,,,,,,,,,,,,
591d369e88bbb500013a8517,SCR,2024-06-21_11h02.31.616,LearnStrategy,2023.2.3,Win32,59.52380952,,,,,,,,,,,3,02,3,5,,,,,,,,,,,,,,,,,,,,,,,,,,,,,,,
591d369e88bbb500013a8517,SCR,2024-06-21_11h02.31.616,LearnStrategy,2023.2.3,Win32,59.52380952,,,,,,,,,,,5,06,3,6,,,,,,,,,,,,,,,,,,,,,,,,,,,,,,,
591d369e88bbb500013a8517,SCR,2024-06-21_11h02.31.616,LearnStrategy,2023.2.3,Win32,59.52380952,,,,,,,,,,,7,08,3,7,,,,,,,,,,,,,,,,,,,,,,,,,,,,,,,
591d369e88bbb500013a8517,SCR,2024-06-21_11h02.31.616,LearnStrategy,2023.2.3,Win32,59.52380952,,,,,,,,,,,7,10,3,8,,,,,,,,,,,,,,,,,,,,,,,,,,,,,,,
591d369e88bbb500013a8517,SCR,2024-06-21_11h02.31.616,LearnStrategy,2023.2.3,Win32,59.52380952,,,,,,,,,,,5,09,4,1,,,,,,,,,,,,,,,,,,,,,,,,,,,,,,,
591d369e88bbb500013a8517,SCR,2024-06-21_11h02.31.616,LearnStrategy,2023.2.3,Win32,59.52380952,,,,,,,,,,,2,05,4,2,,,,,,,,,,,,,,,,,,,,,,,,,,,,,,,
591d369e88bbb500013a8517,SCR,2024-06-21_11h02.31.616,LearnStrategy,2023.2.3,Win32,59.52380952,,,,,,,,,,,6,09,4,3,,,,,,,,,,,,,,,,,,,,,,,,,,,,,,,
591d369e88bbb500013a8517,SCR,2024-06-21_11h02.31.616,LearnStrategy,2023.2.3,Win32,59.52380952,,,,,,,,,,,7,15,4,4,,,,,,,,,,,,,,,,,,,,,,,,,,,,,,,
591d369e88bbb500013a8517,SCR,2024-06-21_11h02.31.616,LearnStrategy,2023.2.3,Win32,59.52380952,,,,,,,,,,,8,06,4,5,,,,,,,,,,,,,,,,,,,,,,,,,,,,,,,
591d369e88bbb500013a8517,SCR,2024-06-21_11h02.31.616,LearnStrategy,2023.2.3,Win32,59.52380952,,,,,,,,,,,6,15,4,6,,,,,,,,,,,,,,,,,,,,,,,,,,,,,,,
591d369e88bbb500013a8517,SCR,2024-06-21_11h02.31.616,LearnStrategy,2023.2.3,Win32,59.52380952,,,,,,,,,,,4,12,4,7,,,,,,,,,,,,,,,,,,,,,,,,,,,,,,,
591d369e88bbb500013a8517,SCR,2024-06-21_11h02.31.616,LearnStrategy,2023.2.3,Win32,59.52380952,,,,,,,,,,,8,03,4,8,,,,,,,,,,,,,,,,,,,,,,,,,,,,,,,
591d369e88bbb500013a8517,SCR,2024-06-21_11h02.31.616,LearnStrategy,2023.2.3,Win32,59.52380952,,,,,,,,,,,2,04,5,1,,,,,,,,,,,,,,,,,,,,,,,,,,,,,,,
591d369e88bbb500013a8517,SCR,2024-06-21_11h02.31.616,LearnStrategy,2023.2.3,Win32,59.52380952,,,,,,,,,,,6,06,5,2,,,,,,,,,,,,,,,,,,,,,,,,,,,,,,,
591d369e88bbb500013a8517,SCR,2024-06-21_11h02.31.616,LearnStrategy,2023.2.3,Win32,59.52380952,,,,,,,,,,,3,15,5,3,,,,,,,,,,,,,,,,,,,,,,,,,,,,,,,
591d369e88bbb500013a8517,SCR,2024-06-21_11h02.31.616,LearnStrategy,2023.2.3,Win32,59.52380952,,,,,,,,,,,3,07,5,4,,,,,,,,,,,,,,,,,,,,,,,,,,,,,,,
591d369e88bbb500013a8517,SCR,2024-06-21_11h02.31.616,LearnStrategy,2023.2.3,Win32,59.52380952,,,,,,,,,,,7,12,5,5,,,,,,,,,,,,,,,,,,,,,,,,,,,,,,,
591d369e88bbb500013a8517,SCR,2024-06-21_11h02.31.616,LearnStrategy,2023.2.3,Win32,59.52380952,,,,,,,,,,,4,14,5,6,,,,,,,,,,,,,,,,,,,,,,,,,,,,,,,
591d369e88bbb500013a8517,SCR,2024-06-21_11h02.31.616,LearnStrategy,2023.2.3,Win32,59.52380952,,,,,,,,,,,5,05,5,7,,,,,,,,,,,,,,,,,,,,,,,,,,,,,,,
591d369e88bbb500013a8517,SCR,2024-06-21_11h02.31.616,LearnStrategy,2023.2.3,Win32,59.52380952,,,,,,,,,,,1,07,5,8,,,,,,,,,,,,,,,,,,,,,,,,,,,,,,,
591d369e88bbb500013a8517,SCR,2024-06-21_11h02.31.616,LearnStrategy,2023.2.3,Win32,59.52380952,,,,,,,,,,,2,11,6,1,,,,,,,,,,,,,,,,,,,,,,,,,,,,,,,
591d369e88bbb500013a8517,SCR,2024-06-21_11h02.31.616,LearnStrategy,2023.2.3,Win32,59.52380952,,,,,,,,,,,8,10,6,2,,,,,,,,,,,,,,,,,,,,,,,,,,,,,,,
591d369e88bbb500013a8517,SCR,2024-06-21_11h02.31.616,LearnStrategy,2023.2.3,Win32,59.52380952,,,,,,,,,,,5,07,6,3,,,,,,,,,,,,,,,,,,,,,,,,,,,,,,,
591d369e88bbb500013a8517,SCR,2024-06-21_11h02.31.616,LearnStrategy,2023.2.3,Win32,59.52380952,,,,,,,,,,,4,08,6,4,,,,,,,,,,,,,,,,,,,,,,,,,,,,,,,
591d369e88bbb500013a8517,SCR,2024-06-21_11h02.31.616,LearnStrategy,2023.2.3,Win32,59.52380952,,,,,,,,,,,2,09,6,5,,,,,,,,,,,,,,,,,,,,,,,,,,,,,,,
591d369e88bbb500013a8517,SCR,2024-06-21_11h02.31.616,LearnStrategy,2023.2.3,Win32,59.52380952,,,,,,,,,,,1,14,6,6,,,,,,,,,,,,,,,,,,,,,,,,,,,,,,,
591d369e88bbb500013a8517,SCR,2024-06-21_11h02.31.616,LearnStrategy,2023.2.3,Win32,59.52380952,,,,,,,,,,,2,01,6,7,,,,,,,,,,,,,,,,,,,,,,,,,,,,,,,
591d369e88bbb500013a8517,SCR,2024-06-21_11h02.31.616,LearnStrategy,2023.2.3,Win32,59.52380952,,,,,,,,,,,7,06,6,8,,,,,,,,,,,,,,,,,,,,,,,,,,,,,,,