participant,condition,date,expName,psychopyVersion,OS,frameRate,block,phase,trial,learn_mouse_2.x,learn_mouse_2.y,learn_mouse_2.leftButton,learn_mouse_2.midButton,learn_mouse_2.rightButton,learn_mouse_2.time,learn_mouse_2.clicked_name,cat,token,row,col,t_select,cat_mouse_l.x,cat_mouse_l.y,cat_mouse_l.leftButton,cat_mouse_l.midButton,cat_mouse_l.rightButton,cat_mouse_l.time,cat_mouse_l.clicked_name,resp,t_resp,corr,train_trials.thisRepN,train_trials.thisTrialN,train_trials.thisN,train_trials.thisIndex,train_trials.ran,cat_mouse_t.x,cat_mouse_t.y,cat_mouse_t.leftButton,cat_mouse_t.midButton,cat_mouse_t.rightButton,cat_mouse_t.time,cat_mouse_t.clicked_name,test_trials.thisRepN,test_trials.thisTrialN,test_trials.thisN,test_trials.thisIndex,test_trials.ran,Bonus
59948cbdcf1d1700016efa45,TCR,2024-06-24_17h39.15.943,LearnStrategy,2023.2.3,MacIntel,60.24096386,,,,,,,,,,,,,,,,,,,,,,,,,,,,,,,,,,,,,,,,,,,
59948cbdcf1d1700016efa45,TCR,2024-06-24_17h39.15.943,LearnStrategy,2023.2.3,MacIntel,60.24096386,1,1,1,0.044033203,-0.001448568,1,0,0,3.5914,rock_grid_rect_2,8,08,-1,-1,3.591,0.316720145,-0.380378127,1,0,0,4.6994,Pumice_rect,8,4.699,1,0,0,0,0,1,,,,,,,,,,,,,
59948cbdcf1d1700016efa45,TCR,2024-06-24_17h39.15.943,LearnStrategy,2023.2.3,MacIntel,60.24096386,1,1,2,-0.006771182,-0.003230678,1,0,0,1.5974,rock_grid_rect_2,1,03,-1,-1,1.597,-0.103636882,-0.248010486,1,0,0,4.5141,Basalt_rect,2,4.514,0,1,0,1,0,1,,,,,,,,,,,,,
59948cbdcf1d1700016efa45,TCR,2024-06-24_17h39.15.943,LearnStrategy,2023.2.3,MacIntel,60.24096386,1,1,3,0.014508231,-0.003182896,1,0,0,1.4873,rock_grid_rect_2,8,03,-1,-1,1.487,0.160638195,-0.379894206,1,0,0,7.1219,Peridotite_rect,7,7.122,0,2,0,2,0,1,,,,,,,,,,,,,
59948cbdcf1d1700016efa45,TCR,2024-06-24_17h39.15.943,LearnStrategy,2023.2.3,MacIntel,60.24096386,1,1,4,0.053061465,-0.004775391,1,0,0,1.7965,rock_grid_rect_2,3,06,-1,-1,1.796,-0.116590344,-0.390930118,1,0,0,4.116,Pegmatite_rect,6,4.116,0,3,0,3,0,1,,,,,,,,,,,,,
59948cbdcf1d1700016efa45,TCR,2024-06-24_17h39.15.943,LearnStrategy,2023.2.3,MacIntel,60.24096386,1,1,5,-0.00127331,-0.003009382,1,0,0,1.3055,rock_grid_rect_2,2,10,-1,-1,1.305,-0.37384039,-0.398455869,1,0,0,3.1765,Obsidian_rect,5,3.176,0,4,0,4,0,1,,,,,,,,,,,,,
59948cbdcf1d1700016efa45,TCR,2024-06-24_17h39.15.943,LearnStrategy,2023.2.3,MacIntel,60.24096386,1,1,6,0.017202846,-0.001433105,1,0,0,2.055,rock_grid_rect_2,4,01,-1,-1,2.055,0.392451172,-0.251143973,1,0,0,8.4614,Gabbro_rect,4,8.461,1,5,0,5,0,1,,,,,,,,,,,,,
59948cbdcf1d1700016efa45,TCR,2024-06-24_17h39.15.943,LearnStrategy,2023.2.3,MacIntel,60.24096386,1,1,7,-0.001219715,0.004910249,1,0,0,8.5488,rock_grid_rect_2,2,06,-1,-1,8.549,-0.343808623,-0.402158203,1,0,0,3.4374,Obsidian_rect,5,3.437,0,6,0,6,0,1,,,,,,,,,,,,,
59948cbdcf1d1700016efa45,TCR,2024-06-24_17h39.15.943,LearnStrategy,2023.2.3,MacIntel,60.24096386,1,1,8,0.034171549,-0.004548689,1,0,0,1.2658,rock_grid_rect_2,6,13,-1,-1,1.266,0.103525914,-0.411574998,1,0,0,6.6084,Peridotite_rect,7,6.608,0,7,0,7,0,1,,,,,,,,,,,,,
59948cbdcf1d1700016efa45,TCR,2024-06-24_17h39.15.943,LearnStrategy,2023.2.3,MacIntel,60.24096386,1,1,9,0.04992577,-0.004290074,1,0,0,1.3045,rock_grid_rect_2,6,12,-1,-1,1.305,-0.136166178,-0.391237677,1,0,0,6.8459,Pegmatite_rect,6,6.846,1,8,0,8,0,1,,,,,,,,,,,,,
59948cbdcf1d1700016efa45,TCR,2024-06-24_17h39.15.943,LearnStrategy,2023.2.3,MacIntel,60.24096386,1,1,10,-0.030134801,-0.014208171,1,0,0,1.0978,rock_grid_rect_2,3,12,-1,-1,1.098,-0.356911098,-0.245292155,1,0,0,6.309,Andesite_rect,1,6.309,0,9,0,9,0,1,,,,,,,,,,,,,
59948cbdcf1d1700016efa45,TCR,2024-06-24_17h39.15.943,LearnStrategy,2023.2.3,MacIntel,60.24096386,1,1,11,-0.019975295,0.011428106,1,0,0,1.381,rock_grid_rect_2,5,12,-1,-1,1.381,-0.414348057,-0.399818173,1,0,0,1.4054,Obsidian_rect,5,1.405,1,10,0,10,0,1,,,,,,,,,,,,,
59948cbdcf1d1700016efa45,TCR,2024-06-24_17h39.15.943,LearnStrategy,2023.2.3,MacIntel,60.24096386,1,1,12,-0.095120559,-0.009868862,1,0,0,1.2816,rock_grid_rect_2,1,10,-1,-1,1.282,0.053000023,-0.399893159,1,0,0,9.2542,Peridotite_rect,7,9.254,0,11,0,11,0,1,,,,,,,,,,,,,
59948cbdcf1d1700016efa45,TCR,2024-06-24_17h39.15.943,LearnStrategy,2023.2.3,MacIntel,60.24096386,1,1,13,-0.128579218,-0.010180199,1,0,0,1.4651,rock_grid_rect_2,7,16,-1,-1,1.465,0.328042341,-0.230471133,1,0,0,6.026,Gabbro_rect,4,6.026,0,12,0,12,0,1,,,,,,,,,,,,,
59948cbdcf1d1700016efa45,TCR,2024-06-24_17h39.15.943,LearnStrategy,2023.2.3,MacIntel,60.24096386,1,1,14,-0.052287656,0.002086065,1,0,0,1.4321,rock_grid_rect_2,5,04,-1,-1,1.432,-0.36516773,-0.414589204,1,0,0,1.2454,Obsidian_rect,5,1.245,1,13,0,13,0,1,,,,,,,,,,,,,
59948cbdcf1d1700016efa45,TCR,2024-06-24_17h39.15.943,LearnStrategy,2023.2.3,MacIntel,60.24096386,1,1,15,-0.014534621,-0.005590878,1,0,0,1.0988,rock_grid_rect_2,4,15,-1,-1,1.099,0.06862886,-0.232253069,1,0,0,4.8949,Diorite_rect,3,4.895,0,14,0,14,0,1,,,,,,,,,,,,,
59948cbdcf1d1700016efa45,TCR,2024-06-24_17h39.15.943,LearnStrategy,2023.2.3,MacIntel,60.24096386,1,1,16,-0.067176688,-0.005110677,1,0,0,1.364,rock_grid_rect_2,7,07,-1,-1,1.364,-0.322704642,-0.254741211,1,0,0,6.426,Andesite_rect,1,6.426,0,15,0,15,0,1,,,,,,,,,,,,,
59948cbdcf1d1700016efa45,TCR,2024-06-24_17h39.15.943,LearnStrategy,2023.2.3,MacIntel,60.24096386,1,2,1,,,,,,,,7,13,,,,,,,,,,,7,5.817,1,,,,,,0.084164109,-0.394401332,1,0,0,5.8172,Peridotite_rect,0,0,0,0,1,
59948cbdcf1d1700016efa45,TCR,2024-06-24_17h39.15.943,LearnStrategy,2023.2.3,MacIntel,60.24096386,1,2,2,,,,,,,,8,05,,,,,,,,,,,8,1.224,1,,,,,,0.327520229,-0.405094634,1,0,0,1.2242,Pumice_rect,1,0,1,0,1,
59948cbdcf1d1700016efa45,TCR,2024-06-24_17h39.15.943,LearnStrategy,2023.2.3,MacIntel,60.24096386,1,2,3,,,,,,,,2,02,,,,,,,,,,,2,2.569,1,,,,,,-0.133644206,-0.245502697,1,0,0,2.5693,Basalt_rect,2,0,2,0,1,
59948cbdcf1d1700016efa45,TCR,2024-06-24_17h39.15.943,LearnStrategy,2023.2.3,MacIntel,60.24096386,1,2,4,,,,,,,,3,15,,,,,,,,,,,3,1.805,1,,,,,,0.051821173,-0.243945138,1,0,0,1.8047,Diorite_rect,3,0,3,0,1,
59948cbdcf1d1700016efa45,TCR,2024-06-24_17h39.15.943,LearnStrategy,2023.2.3,MacIntel,60.24096386,1,2,5,,,,,,,,4,14,,,,,,,,,,,4,4.699,1,,,,,,0.329102493,-0.241421596,1,0,0,4.6988,Gabbro_rect,4,0,4,0,1,
59948cbdcf1d1700016efa45,TCR,2024-06-24_17h39.15.943,LearnStrategy,2023.2.3,MacIntel,60.24096386,1,2,6,,,,,,,,6,06,,,,,,,,,,,1,4.09,0,,,,,,-0.361343268,-0.244654599,1,0,0,4.0898,Andesite_rect,5,0,5,0,1,
59948cbdcf1d1700016efa45,TCR,2024-06-24_17h39.15.943,LearnStrategy,2023.2.3,MacIntel,60.24096386,1,2,7,,,,,,,,8,06,,,,,,,,,,,8,1.509,1,,,,,,0.396257324,-0.409168294,1,0,0,1.5087,Pumice_rect,6,0,6,0,1,
59948cbdcf1d1700016efa45,TCR,2024-06-24_17h39.15.943,LearnStrategy,2023.2.3,MacIntel,60.24096386,1,2,8,,,,,,,,1,09,,,,,,,,,,,4,7.466,0,,,,,,0.332302479,-0.25357108,1,0,0,7.4658,Gabbro_rect,7,0,7,0,1,
59948cbdcf1d1700016efa45,TCR,2024-06-24_17h39.15.943,LearnStrategy,2023.2.3,MacIntel,60.24096386,1,2,9,,,,,,,,5,07,,,,,,,,,,,5,2.346,1,,,,,,-0.378547334,-0.400925002,1,0,0,2.3461,Obsidian_rect,8,0,8,0,1,
59948cbdcf1d1700016efa45,TCR,2024-06-24_17h39.15.943,LearnStrategy,2023.2.3,MacIntel,60.24096386,1,2,10,,,,,,,,7,14,,,,,,,,,,,6,2.669,0,,,,,,-0.115868966,-0.404768125,1,0,0,2.6693,Pegmatite_rect,9,0,9,0,1,
59948cbdcf1d1700016efa45,TCR,2024-06-24_17h39.15.943,LearnStrategy,2023.2.3,MacIntel,60.24096386,1,2,11,,,,,,,,4,16,,,,,,,,,,,5,5.126,0,,,,,,-0.343708845,-0.392394961,1,0,0,5.1259,Obsidian_rect,10,0,10,0,1,
59948cbdcf1d1700016efa45,TCR,2024-06-24_17h39.15.943,LearnStrategy,2023.2.3,MacIntel,60.24096386,1,2,12,,,,,,,,5,11,,,,,,,,,,,5,0.875,1,,,,,,-0.343708845,-0.392394961,1,0,0,0.8753,Obsidian_rect,11,0,11,0,1,
59948cbdcf1d1700016efa45,TCR,2024-06-24_17h39.15.943,LearnStrategy,2023.2.3,MacIntel,60.24096386,1,2,13,,,,,,,,1,06,,,,,,,,,,,1,4.341,1,,,,,,-0.33750744,-0.250771601,1,0,0,4.3411,Andesite_rect,12,0,12,0,1,
59948cbdcf1d1700016efa45,TCR,2024-06-24_17h39.15.943,LearnStrategy,2023.2.3,MacIntel,60.24096386,1,2,14,,,,,,,,2,08,,,,,,,,,,,2,1.663,1,,,,,,-0.168284098,-0.234128883,1,0,0,1.6631,Basalt_rect,13,0,13,0,1,
59948cbdcf1d1700016efa45,TCR,2024-06-24_17h39.15.943,LearnStrategy,2023.2.3,MacIntel,60.24096386,1,2,15,,,,,,,,6,10,,,,,,,,,,,7,2.467,0,,,,,,0.082699556,-0.393780053,1,0,0,2.4666,Peridotite_rect,14,0,14,0,1,
59948cbdcf1d1700016efa45,TCR,2024-06-24_17h39.15.943,LearnStrategy,2023.2.3,MacIntel,60.24096386,1,2,16,,,,,,,,3,11,,,,,,,,,,,3,1.564,1,,,,,,0.084560954,-0.26146496,1,0,0,1.5639,Diorite_rect,15,0,15,0,1,
59948cbdcf1d1700016efa45,TCR,2024-06-24_17h39.15.943,LearnStrategy,2023.2.3,MacIntel,60.24096386,2,1,1,-0.069739467,-0.012147042,1,0,0,1.747,rock_grid_rect_2,1,07,-1,-1,1.747,-0.087279053,-0.402168841,1,0,0,8.8761,Pegmatite_rect,6,8.876,0,0,0,0,0,1,,,,,,,,,,,,,
59948cbdcf1d1700016efa45,TCR,2024-06-24_17h39.15.943,LearnStrategy,2023.2.3,MacIntel,60.24096386,2,1,2,-0.081460833,0.004038609,1,0,0,1.2651,rock_grid_rect_2,7,07,-1,-1,1.265,0.369780157,-0.24350958,1,0,0,3.0065,Gabbro_rect,4,3.006,0,1,0,1,0,1,,,,,,,,,,,,,
59948cbdcf1d1700016efa45,TCR,2024-06-24_17h39.15.943,LearnStrategy,2023.2.3,MacIntel,60.24096386,2,1,3,-0.007785412,-0.002341425,1,0,0,1.1652,rock_grid_rect_2,1,07,-1,-1,1.165,-0.361583484,-0.233380708,1,0,0,3.0812,Andesite_rect,1,3.081,1,2,0,2,0,1,,,,,,,,,,,,,
59948cbdcf1d1700016efa45,TCR,2024-06-24_17h39.15.943,LearnStrategy,2023.2.3,MacIntel,60.24096386,2,1,4,-0.025714169,-0.016913481,1,0,0,1.0168,rock_grid_rect_2,4,05,-1,-1,1.017,0.053072277,-0.381338704,1,0,0,5.3265,Peridotite_rect,7,5.327,0,3,0,3,0,1,,,,,,,,,,,,,
59948cbdcf1d1700016efa45,TCR,2024-06-24_17h39.15.943,LearnStrategy,2023.2.3,MacIntel,60.24096386,2,1,5,-0.017205752,0.001250698,1,0,0,1.0655,rock_grid_rect_2,7,16,-1,-1,1.065,0.380922387,-0.238455869,1,0,0,2.2103,Gabbro_rect,4,2.21,0,4,0,4,0,1,,,,,,,,,,,,,
59948cbdcf1d1700016efa45,TCR,2024-06-24_17h39.15.943,LearnStrategy,2023.2.3,MacIntel,60.24096386,2,1,6,-0.062261847,-0.005023135,1,0,0,1.0646,rock_grid_rect_2,6,11,-1,-1,1.065,-0.368760143,-0.384004081,1,0,0,2.0904,Obsidian_rect,5,2.09,0,5,0,5,0,1,,,,,,,,,,,,,
59948cbdcf1d1700016efa45,TCR,2024-06-24_17h39.15.943,LearnStrategy,2023.2.3,MacIntel,60.24096386,2,1,7,-0.073882301,0.010949765,1,0,0,0.9478,rock_grid_rect_2,6,03,-1,-1,0.948,0.084776553,-0.397199358,1,0,0,4.6299,Peridotite_rect,7,4.63,0,6,0,6,0,1,,,,,,,,,,,,,
59948cbdcf1d1700016efa45,TCR,2024-06-24_17h39.15.943,LearnStrategy,2023.2.3,MacIntel,60.24096386,2,1,8,-0.0157741,0.009227586,1,0,0,1.3307,rock_grid_rect_2,4,03,-1,-1,1.331,-0.331435431,-0.258239688,1,0,0,6.8388,Andesite_rect,1,6.839,0,7,0,7,0,1,,,,,,,,,,,,,
59948cbdcf1d1700016efa45,TCR,2024-06-24_17h39.15.943,LearnStrategy,2023.2.3,MacIntel,60.24096386,2,1,9,-0.018876604,0.006979283,1,0,0,1.1481,rock_grid_rect_2,6,12,-1,-1,1.148,0.082792271,-0.387103388,1,0,0,9.3923,Peridotite_rect,7,9.392,0,8,0,8,0,1,,,,,,,,,,,,,
59948cbdcf1d1700016efa45,TCR,2024-06-24_17h39.15.943,LearnStrategy,2023.2.3,MacIntel,60.24096386,2,1,10,-0.109362619,-0.001320743,1,0,0,1.0295,rock_grid_rect_2,7,10,-1,-1,1.029,0.316805478,-0.235206822,1,0,0,3.8868,Gabbro_rect,4,3.887,0,9,0,9,0,1,,,,,,,,,,,,,
59948cbdcf1d1700016efa45,TCR,2024-06-24_17h39.15.943,LearnStrategy,2023.2.3,MacIntel,60.24096386,2,1,11,0.176255232,0.010817174,1,0,0,1.6485,rock_grid_rect_2,1,14,-1,-1,1.649,0.324765974,-0.250175549,1,0,0,4.8036,Gabbro_rect,4,4.804,0,10,0,10,0,1,,,,,,,,,,,,,
59948cbdcf1d1700016efa45,TCR,2024-06-24_17h39.15.943,LearnStrategy,2023.2.3,MacIntel,60.24096386,2,1,12,-0.019311756,-0.012656715,1,0,0,1.0478,rock_grid_rect_2,6,03,-1,-1,1.048,-0.116153913,-0.389106794,1,0,0,5.1929,Pegmatite_rect,6,5.193,1,11,0,11,0,1,,,,,,,,,,,,,
59948cbdcf1d1700016efa45,TCR,2024-06-24_17h39.15.943,LearnStrategy,2023.2.3,MacIntel,60.24096386,2,1,13,-0.048924735,-0.017576149,1,0,0,0.9979,rock_grid_rect_2,5,14,-1,-1,0.998,-0.427798549,-0.398297759,1,0,0,1.3266,Obsidian_rect,5,1.327,1,12,0,12,0,1,,,,,,,,,,,,,
59948cbdcf1d1700016efa45,TCR,2024-06-24_17h39.15.943,LearnStrategy,2023.2.3,MacIntel,60.24096386,2,1,14,-0.019452892,-0.002170643,1,0,0,1.1481,rock_grid_rect_2,6,16,-1,-1,1.148,0.356107236,-0.237043748,1,0,0,5.2069,Gabbro_rect,4,5.207,0,13,0,13,0,1,,,,,,,,,,,,,
59948cbdcf1d1700016efa45,TCR,2024-06-24_17h39.15.943,LearnStrategy,2023.2.3,MacIntel,60.24096386,2,1,15,-0.038039958,0.008892473,1,0,0,1.0816,rock_grid_rect_2,3,06,-1,-1,1.082,0.084031459,-0.238289853,1,0,0,2.2991,Diorite_rect,3,2.299,1,14,0,14,0,1,,,,,,,,,,,,,
59948cbdcf1d1700016efa45,TCR,2024-06-24_17h39.15.943,LearnStrategy,2023.2.3,MacIntel,60.24096386,2,1,16,-0.084381045,0.005936512,1,0,0,0.9663,rock_grid_rect_2,4,11,-1,-1,0.966,-0.099964832,-0.233486096,1,0,0,1.9534,Basalt_rect,2,1.953,0,15,0,15,0,1,,,,,,,,,,,,,
59948cbdcf1d1700016efa45,TCR,2024-06-24_17h39.15.943,LearnStrategy,2023.2.3,MacIntel,60.24096386,2,2,1,,,,,,,,5,09,,,,,,,,,,,5,1.772,1,,,,,,-0.383567301,-0.378909854,1,0,0,1.772,Obsidian_rect,0,0,0,0,1,
59948cbdcf1d1700016efa45,TCR,2024-06-24_17h39.15.943,LearnStrategy,2023.2.3,MacIntel,60.24096386,2,2,2,,,,,,,,3,14,,,,,,,,,,,3,1.709,1,,,,,,0.093762788,-0.251817278,1,0,0,1.7094,Diorite_rect,1,0,1,0,1,
59948cbdcf1d1700016efa45,TCR,2024-06-24_17h39.15.943,LearnStrategy,2023.2.3,MacIntel,60.24096386,2,2,3,,,,,,,,4,08,,,,,,,,,,,4,3.005,1,,,,,,0.3316004,-0.248119071,1,0,0,3.0049,Gabbro_rect,2,0,2,0,1,
59948cbdcf1d1700016efa45,TCR,2024-06-24_17h39.15.943,LearnStrategy,2023.2.3,MacIntel,60.24096386,2,2,4,,,,,,,,7,06,,,,,,,,,,,6,1.908,0,,,,,,-0.171418631,-0.398854283,1,0,0,1.9079,Pegmatite_rect,3,0,3,0,1,
59948cbdcf1d1700016efa45,TCR,2024-06-24_17h39.15.943,LearnStrategy,2023.2.3,MacIntel,60.24096386,2,2,5,,,,,,,,8,14,,,,,,,,,,,8,1.289,1,,,,,,0.327917597,-0.38997018,1,0,0,1.2895,Pumice_rect,4,0,4,0,1,
59948cbdcf1d1700016efa45,TCR,2024-06-24_17h39.15.943,LearnStrategy,2023.2.3,MacIntel,60.24096386,2,2,6,,,,,,,,6,15,,,,,,,,,,,6,4.611,1,,,,,,-0.094759812,-0.400332787,1,0,0,4.6113,Pegmatite_rect,5,0,5,0,1,
59948cbdcf1d1700016efa45,TCR,2024-06-24_17h39.15.943,LearnStrategy,2023.2.3,MacIntel,60.24096386,2,2,7,,,,,,,,6,07,,,,,,,,,,,6,1.963,1,,,,,,-0.094759812,-0.400332787,1,0,0,1.9634,Pegmatite_rect,6,0,6,0,1,
59948cbdcf1d1700016efa45,TCR,2024-06-24_17h39.15.943,LearnStrategy,2023.2.3,MacIntel,60.24096386,2,2,8,,,,,,,,1,11,,,,,,,,,,,4,3.255,0,,,,,,0.346883022,-0.261061314,1,0,0,3.255,Gabbro_rect,7,0,7,0,1,
59948cbdcf1d1700016efa45,TCR,2024-06-24_17h39.15.943,LearnStrategy,2023.2.3,MacIntel,60.24096386,2,2,9,,,,,,,,7,12,,,,,,,,,,,7,3.177,1,,,,,,0.196117467,-0.391190883,1,0,0,3.1773,Peridotite_rect,8,0,8,0,1,
59948cbdcf1d1700016efa45,TCR,2024-06-24_17h39.15.943,LearnStrategy,2023.2.3,MacIntel,60.24096386,2,2,10,,,,,,,,2,12,,,,,,,,,,,2,1.43,1,,,,,,-0.06558803,-0.262239467,1,0,0,1.4299,Basalt_rect,9,0,9,0,1,
59948cbdcf1d1700016efa45,TCR,2024-06-24_17h39.15.943,LearnStrategy,2023.2.3,MacIntel,60.24096386,2,2,11,,,,,,,,5,16,,,,,,,,,,,5,1.44,1,,,,,,-0.396437785,-0.398545503,1,0,0,1.4396,Obsidian_rect,10,0,10,0,1,
59948cbdcf1d1700016efa45,TCR,2024-06-24_17h39.15.943,LearnStrategy,2023.2.3,MacIntel,60.24096386,2,2,12,,,,,,,,1,04,,,,,,,,,,,8,3.574,0,,,,,,0.361945219,-0.381533552,1,0,0,3.5738,Pumice_rect,11,0,11,0,1,
59948cbdcf1d1700016efa45,TCR,2024-06-24_17h39.15.943,LearnStrategy,2023.2.3,MacIntel,60.24096386,2,2,13,,,,,,,,8,09,,,,,,,,,,,8,2.33,1,,,,,,0.361945219,-0.381533552,1,0,0,2.33,Pumice_rect,12,0,12,0,1,
59948cbdcf1d1700016efa45,TCR,2024-06-24_17h39.15.943,LearnStrategy,2023.2.3,MacIntel,60.24096386,2,2,14,,,,,,,,4,09,,,,,,,,,,,5,3.13,0,,,,,,-0.356315249,-0.38989345,1,0,0,3.1302,Obsidian_rect,13,0,13,0,1,
59948cbdcf1d1700016efa45,TCR,2024-06-24_17h39.15.943,LearnStrategy,2023.2.3,MacIntel,60.24096386,2,2,15,,,,,,,,2,09,,,,,,,,,,,2,1.353,1,,,,,,-0.176857678,-0.244147368,1,0,0,1.3525,Basalt_rect,14,0,14,0,1,
59948cbdcf1d1700016efa45,TCR,2024-06-24_17h39.15.943,LearnStrategy,2023.2.3,MacIntel,60.24096386,2,2,16,,,,,,,,3,10,,,,,,,,,,,3,2.116,1,,,,,,0.048530971,-0.263192487,1,0,0,2.1156,Diorite_rect,15,0,15,0,1,
59948cbdcf1d1700016efa45,TCR,2024-06-24_17h39.15.943,LearnStrategy,2023.2.3,MacIntel,60.24096386,3,1,1,-0.006449788,0.006268834,1,0,0,9.1315,rock_grid_rect_2,2,14,-1,-1,9.132,0.357948637,-0.404928676,1,0,0,4.0098,Pumice_rect,8,4.01,0,0,0,0,0,1,,,,,,,,,,,,,
59948cbdcf1d1700016efa45,TCR,2024-06-24_17h39.15.943,LearnStrategy,2023.2.3,MacIntel,60.24096386,3,1,2,-0.051713867,-0.013831729,1,0,0,1.3107,rock_grid_rect_2,4,05,-1,-1,1.311,0.36661656,-0.252833019,1,0,0,7.1869,Gabbro_rect,4,7.187,1,1,0,1,0,1,,,,,,,,,,,,,
59948cbdcf1d1700016efa45,TCR,2024-06-24_17h39.15.943,LearnStrategy,2023.2.3,MacIntel,60.24096386,3,1,3,-0.139647333,0.014636928,1,0,0,1.6638,rock_grid_rect_2,7,16,-1,-1,1.664,-0.074378371,-0.409561709,1,0,0,3.8403,Pegmatite_rect,6,3.84,0,2,0,2,0,1,,,,,,,,,,,,,
59948cbdcf1d1700016efa45,TCR,2024-06-24_17h39.15.943,LearnStrategy,2023.2.3,MacIntel,60.24096386,3,1,4,0.010901809,0.009391102,1,0,0,1.0642,rock_grid_rect_2,4,03,-1,-1,1.064,-0.351362072,-0.235721087,1,0,0,4.108,Andesite_rect,1,4.108,0,3,0,3,0,1,,,,,,,,,,,,,
59948cbdcf1d1700016efa45,TCR,2024-06-24_17h39.15.943,LearnStrategy,2023.2.3,MacIntel,60.24096386,3,1,5,0.049002744,0.005447475,1,0,0,1.2801,rock_grid_rect_2,1,07,-1,-1,1.28,-0.375929565,-0.242395891,1,0,0,4.1481,Andesite_rect,1,4.148,1,4,0,4,0,1,,,,,,,,,,,,,
59948cbdcf1d1700016efa45,TCR,2024-06-24_17h39.15.943,LearnStrategy,2023.2.3,MacIntel,60.24096386,3,1,6,-0.079967099,-0.01431257,1,0,0,1.131,rock_grid_rect_2,6,12,-1,-1,1.131,-0.340495286,-0.236853725,1,0,0,2.4256,Andesite_rect,1,2.426,0,5,0,5,0,1,,,,,,,,,,,,,
59948cbdcf1d1700016efa45,TCR,2024-06-24_17h39.15.943,LearnStrategy,2023.2.3,MacIntel,60.24096386,3,1,7,-0.045915237,-0.013203474,1,0,0,1.066,rock_grid_rect_2,5,06,-1,-1,1.066,-0.382238334,-0.410476539,1,0,0,2.2123,Obsidian_rect,5,2.212,1,6,0,6,0,1,,,,,,,,,,,,,
59948cbdcf1d1700016efa45,TCR,2024-06-24_17h39.15.943,LearnStrategy,2023.2.3,MacIntel,60.24096386,3,1,8,-0.123721517,0.001859247,1,0,0,1.2996,rock_grid_rect_2,7,08,-1,-1,1.3,0.324894787,-0.24974807,1,0,0,7.016,Gabbro_rect,4,7.016,0,7,0,7,0,1,,,,,,,,,,,,,
59948cbdcf1d1700016efa45,TCR,2024-06-24_17h39.15.943,LearnStrategy,2023.2.3,MacIntel,60.24096386,3,1,9,-0.022141636,0.019114845,1,0,0,0.9634,rock_grid_rect_2,6,16,-1,-1,0.963,-0.197126581,-0.406846052,1,0,0,3.6398,Pegmatite_rect,6,3.64,1,8,0,8,0,1,,,,,,,,,,,,,
59948cbdcf1d1700016efa45,TCR,2024-06-24_17h39.15.943,LearnStrategy,2023.2.3,MacIntel,60.24096386,3,1,10,-0.034422607,0.009586763,1,0,0,1.1971,rock_grid_rect_2,4,03,-1,-1,1.197,-0.378565645,-0.24411685,1,0,0,3.9492,Andesite_rect,1,3.949,0,9,0,9,0,1,,,,,,,,,,,,,
59948cbdcf1d1700016efa45,TCR,2024-06-24_17h39.15.943,LearnStrategy,2023.2.3,MacIntel,60.24096386,3,1,11,0.025840716,-0.004325591,1,0,0,0.849,rock_grid_rect_2,8,04,-1,-1,0.849,0.403562244,-0.40285476,1,0,0,1.2637,Pumice_rect,8,1.264,1,10,0,10,0,1,,,,,,,,,,,,,
59948cbdcf1d1700016efa45,TCR,2024-06-24_17h39.15.943,LearnStrategy,2023.2.3,MacIntel,60.24096386,3,1,12,-0.019105864,-0.021986026,1,0,0,0.8651,rock_grid_rect_2,7,10,-1,-1,0.865,0.096104969,-0.387407692,1,0,0,2.4529,Peridotite_rect,7,2.453,1,11,0,11,0,1,,,,,,,,,,,,,
59948cbdcf1d1700016efa45,TCR,2024-06-24_17h39.15.943,LearnStrategy,2023.2.3,MacIntel,60.24096386,3,1,13,-0.010892043,-0.004152716,1,0,0,0.8483,rock_grid_rect_2,1,14,-1,-1,0.848,-0.102020729,-0.239345064,1,0,0,4.3799,Basalt_rect,2,4.38,0,12,0,12,0,1,,,,,,,,,,,,,
59948cbdcf1d1700016efa45,TCR,2024-06-24_17h39.15.943,LearnStrategy,2023.2.3,MacIntel,60.24096386,3,1,14,-0.008021822,-0.007049735,1,0,0,1.0148,rock_grid_rect_2,1,07,-1,-1,1.015,-0.390697196,-0.240157878,1,0,0,2.4434,Andesite_rect,1,2.443,1,13,0,13,0,1,,,,,,,,,,,,,
59948cbdcf1d1700016efa45,TCR,2024-06-24_17h39.15.943,LearnStrategy,2023.2.3,MacIntel,60.24096386,3,1,15,-0.000396031,-0.007114781,1,0,0,1.0331,rock_grid_rect_2,6,12,-1,-1,1.033,-0.127776867,-0.407149658,1,0,0,1.9375,Pegmatite_rect,6,1.938,1,14,0,14,0,1,,,,,,,,,,,,,
59948cbdcf1d1700016efa45,TCR,2024-06-24_17h39.15.943,LearnStrategy,2023.2.3,MacIntel,60.24096386,3,1,16,-0.068031645,0.02200919,1,0,0,0.9985,rock_grid_rect_2,1,03,-1,-1,0.999,-0.127854353,-0.236481236,1,0,0,1.8928,Basalt_rect,2,1.893,0,15,0,15,0,1,,,,,,,,,,,,,
59948cbdcf1d1700016efa45,TCR,2024-06-24_17h39.15.943,LearnStrategy,2023.2.3,MacIntel,60.24096386,3,2,1,,,,,,,,6,05,,,,,,,,,,,5,17.099,0,,,,,,-0.333366176,-0.406607317,1,0,0,17.099,Obsidian_rect,0,0,0,0,1,
59948cbdcf1d1700016efa45,TCR,2024-06-24_17h39.15.943,LearnStrategy,2023.2.3,MacIntel,60.24096386,3,2,2,,,,,,,,2,16,,,,,,,,,,,8,15.3,0,,,,,,0.452865978,-0.396721308,1,0,0,15.2998,Pumice_rect,1,0,1,0,1,
59948cbdcf1d1700016efa45,TCR,2024-06-24_17h39.15.943,LearnStrategy,2023.2.3,MacIntel,60.24096386,3,2,3,,,,,,,,8,10,,,,,,,,,,,4,3.14,0,,,,,,0.39311849,-0.246005859,1,0,0,3.1402,Gabbro_rect,2,0,2,0,1,
59948cbdcf1d1700016efa45,TCR,2024-06-24_17h39.15.943,LearnStrategy,2023.2.3,MacIntel,60.24096386,3,2,4,,,,,,,,8,02,,,,,,,,,,,8,3.145,1,,,,,,0.386398693,-0.38755313,1,0,0,3.1448,Pumice_rect,3,0,3,0,1,
59948cbdcf1d1700016efa45,TCR,2024-06-24_17h39.15.943,LearnStrategy,2023.2.3,MacIntel,60.24096386,3,2,5,,,,,,,,1,02,,,,,,,,,,,1,2.884,1,,,,,,-0.31094,-0.24585612,1,0,0,2.884,Andesite_rect,4,0,4,0,1,
59948cbdcf1d1700016efa45,TCR,2024-06-24_17h39.15.943,LearnStrategy,2023.2.3,MacIntel,60.24096386,3,2,6,,,,,,,,4,12,,,,,,,,,,,4,4.782,1,,,,,,0.34746861,-0.266376779,1,0,0,4.782,Gabbro_rect,5,0,5,0,1,
59948cbdcf1d1700016efa45,TCR,2024-06-24_17h39.15.943,LearnStrategy,2023.2.3,MacIntel,60.24096386,3,2,7,,,,,,,,3,09,,,,,,,,,,,3,5.614,1,,,,,,0.203474121,-0.261774205,1,0,0,5.6136,Diorite_rect,6,0,6,0,1,
59948cbdcf1d1700016efa45,TCR,2024-06-24_17h39.15.943,LearnStrategy,2023.2.3,MacIntel,60.24096386,3,2,8,,,,,,,,4,10,,,,,,,,,,,2,7.637,0,,,,,,-0.082346133,-0.255499791,1,0,0,7.6371,Basalt_rect,7,0,7,0,1,
59948cbdcf1d1700016efa45,TCR,2024-06-24_17h39.15.943,LearnStrategy,2023.2.3,MacIntel,60.24096386,3,2,9,,,,,,,,7,05,,,,,,,,,,,7,1.442,1,,,,,,0.091633591,-0.406373698,1,0,0,1.4419,Peridotite_rect,8,0,8,0,1,
59948cbdcf1d1700016efa45,TCR,2024-06-24_17h39.15.943,LearnStrategy,2023.2.3,MacIntel,60.24096386,3,2,10,,,,,,,,5,02,,,,,,,,,,,5,1.173,1,,,,,,-0.418135521,-0.406244768,1,0,0,1.1732,Obsidian_rect,9,0,9,0,1,
59948cbdcf1d1700016efa45,TCR,2024-06-24_17h39.15.943,LearnStrategy,2023.2.3,MacIntel,60.24096386,3,2,11,,,,,,,,3,16,,,,,,,,,,,3,1.345,1,,,,,,0.104213693,-0.251978527,1,0,0,1.3448,Diorite_rect,10,0,10,0,1,
59948cbdcf1d1700016efa45,TCR,2024-06-24_17h39.15.943,LearnStrategy,2023.2.3,MacIntel,60.24096386,3,2,12,,,,,,,,1,16,,,,,,,,,,,1,2.158,1,,,,,,-0.342070516,-0.260566406,1,0,0,2.1578,Andesite_rect,11,0,11,0,1,
59948cbdcf1d1700016efa45,TCR,2024-06-24_17h39.15.943,LearnStrategy,2023.2.3,MacIntel,60.24096386,3,2,13,,,,,,,,2,05,,,,,,,,,,,2,1.515,1,,,,,,-0.142412342,-0.254426676,1,0,0,1.5151,Basalt_rect,12,0,12,0,1,
59948cbdcf1d1700016efa45,TCR,2024-06-24_17h39.15.943,LearnStrategy,2023.2.3,MacIntel,60.24096386,3,2,14,,,,,,,,7,04,,,,,,,,,,,6,2.058,0,,,,,,-0.125568499,-0.397905971,1,0,0,2.0577,Pegmatite_rect,13,0,13,0,1,
59948cbdcf1d1700016efa45,TCR,2024-06-24_17h39.15.943,LearnStrategy,2023.2.3,MacIntel,60.24096386,3,2,15,,,,,,,,6,08,,,,,,,,,,,5,3.508,0,,,,,,-0.350103353,-0.399326288,1,0,0,3.5081,Obsidian_rect,14,0,14,0,1,
59948cbdcf1d1700016efa45,TCR,2024-06-24_17h39.15.943,LearnStrategy,2023.2.3,MacIntel,60.24096386,3,2,16,,,,,,,,5,08,,,,,,,,,,,5,1.022,1,,,,,,-0.368985276,-0.394127314,1,0,0,1.0217,Obsidian_rect,15,0,15,0,1,
59948cbdcf1d1700016efa45,TCR,2024-06-24_17h39.15.943,LearnStrategy,2023.2.3,MacIntel,60.24096386,4,1,1,-0.03889974,-0.003701869,1,0,0,1.631,rock_grid_rect_2,7,10,-1,-1,1.631,0.110056327,-0.402467506,1,0,0,1.608,Peridotite_rect,7,1.608,1,0,0,0,0,1,,,,,,,,,,,,,
59948cbdcf1d1700016efa45,TCR,2024-06-24_17h39.15.943,LearnStrategy,2023.2.3,MacIntel,60.24096386,4,1,2,0.010571928,-0.000348598,1,0,0,0.8985,rock_grid_rect_2,6,09,-1,-1,0.899,-0.068211321,-0.392906436,1,0,0,4.8713,Pegmatite_rect,6,4.871,1,1,0,1,0,1,,,,,,,,,,,,,
59948cbdcf1d1700016efa45,TCR,2024-06-24_17h39.15.943,LearnStrategy,2023.2.3,MacIntel,60.24096386,4,1,3,-0.060637556,0.002444022,1,0,0,1.1806,rock_grid_rect_2,6,12,-1,-1,1.181,-0.178619152,-0.389604027,1,0,0,3.7288,Pegmatite_rect,6,3.729,1,2,0,2,0,1,,,,,,,,,,,,,
59948cbdcf1d1700016efa45,TCR,2024-06-24_17h39.15.943,LearnStrategy,2023.2.3,MacIntel,60.24096386,4,1,4,-0.061515241,0.003370536,1,0,0,1.2311,rock_grid_rect_2,6,11,-1,-1,1.231,-0.176418922,-0.389224388,1,0,0,2.5224,Pegmatite_rect,6,2.522,1,3,0,3,0,1,,,,,,,,,,,,,
59948cbdcf1d1700016efa45,TCR,2024-06-24_17h39.15.943,LearnStrategy,2023.2.3,MacIntel,60.24096386,4,1,5,-0.003797201,0.002599516,1,0,0,0.9483,rock_grid_rect_2,4,11,-1,-1,0.948,0.337974795,-0.228471738,1,0,0,3.2928,Gabbro_rect,4,3.293,1,4,0,4,0,1,,,,,,,,,,,,,
59948cbdcf1d1700016efa45,TCR,2024-06-24_17h39.15.943,LearnStrategy,2023.2.3,MacIntel,60.24096386,4,1,6,-0.019906355,0.013047805,1,0,0,0.9649,rock_grid_rect_2,1,07,-1,-1,0.965,-0.327395368,-0.238169934,1,0,0,4.9301,Andesite_rect,1,4.93,1,5,0,5,0,1,,,,,,,,,,,,,
59948cbdcf1d1700016efa45,TCR,2024-06-24_17h39.15.943,LearnStrategy,2023.2.3,MacIntel,60.24096386,4,1,7,0.011671201,-0.008880441,1,0,0,1.0299,rock_grid_rect_2,8,15,-1,-1,1.03,0.373775809,-0.392022414,1,0,0,1.3402,Pumice_rect,8,1.34,1,6,0,6,0,1,,,,,,,,,,,,,
59948cbdcf1d1700016efa45,TCR,2024-06-24_17h39.15.943,LearnStrategy,2023.2.3,MacIntel,60.24096386,4,1,8,-0.056246803,-0.014173235,1,0,0,0.9818,rock_grid_rect_2,2,04,-1,-1,0.982,-0.088450928,-0.251890927,1,0,0,1.3841,Basalt_rect,2,1.384,1,7,0,7,0,1,,,,,,,,,,,,,
59948cbdcf1d1700016efa45,TCR,2024-06-24_17h39.15.943,LearnStrategy,2023.2.3,MacIntel,60.24096386,4,1,9,-0.119361165,0.010123349,1,0,0,0.8485,rock_grid_rect_2,2,06,-1,-1,0.849,-0.099215785,-0.228312291,1,0,0,1.5093,Basalt_rect,2,1.509,1,8,0,8,0,1,,,,,,,,,,,,,
59948cbdcf1d1700016efa45,TCR,2024-06-24_17h39.15.943,LearnStrategy,2023.2.3,MacIntel,60.24096386,4,1,10,-0.081476586,-0.000977841,1,0,0,0.9986,rock_grid_rect_2,4,11,-1,-1,0.999,0.334944545,-0.243310547,1,0,0,3.0142,Gabbro_rect,4,3.014,1,9,0,9,0,1,,,,,,,,,,,,,
59948cbdcf1d1700016efa45,TCR,2024-06-24_17h39.15.943,LearnStrategy,2023.2.3,MacIntel,60.24096386,4,1,11,-0.007940441,0.004984422,1,0,0,0.6987,rock_grid_rect_2,6,11,-1,-1,0.699,-0.165741432,-0.396302781,1,0,0,1.5099,Pegmatite_rect,6,1.51,1,10,0,10,0,1,,,,,,,,,,,,,
59948cbdcf1d1700016efa45,TCR,2024-06-24_17h39.15.943,LearnStrategy,2023.2.3,MacIntel,60.24096386,4,1,12,-0.060055862,0.00082287,1,0,0,0.9653,rock_grid_rect_2,8,13,-1,-1,0.965,0.383072917,-0.394842297,1,0,0,1.2561,Pumice_rect,8,1.256,1,11,0,11,0,1,,,,,,,,,,,,,
59948cbdcf1d1700016efa45,TCR,2024-06-24_17h39.15.943,LearnStrategy,2023.2.3,MacIntel,60.24096386,4,1,13,-0.020866641,-0.020497349,1,0,0,0.7316,rock_grid_rect_2,1,10,-1,-1,0.732,-0.356716338,-0.251567034,1,0,0,5.1666,Andesite_rect,1,5.167,1,12,0,12,0,1,,,,,,,,,,,,,
59948cbdcf1d1700016efa45,TCR,2024-06-24_17h39.15.943,LearnStrategy,2023.2.3,MacIntel,60.24096386,4,1,14,-0.026720726,-0.008628976,1,0,0,1.0137,rock_grid_rect_2,5,12,-1,-1,1.014,-0.359952945,-0.387826742,1,0,0,1.3392,Obsidian_rect,5,1.339,1,13,0,13,0,1,,,,,,,,,,,,,
59948cbdcf1d1700016efa45,TCR,2024-06-24_17h39.15.943,LearnStrategy,2023.2.3,MacIntel,60.24096386,4,1,15,-0.060394985,0.015723179,1,0,0,0.9989,rock_grid_rect_2,4,05,-1,-1,0.999,-0.110036912,-0.39993571,1,0,0,6.9601,Pegmatite_rect,6,6.96,0,14,0,14,0,1,,,,,,,,,,,,,
59948cbdcf1d1700016efa45,TCR,2024-06-24_17h39.15.943,LearnStrategy,2023.2.3,MacIntel,60.24096386,4,1,16,-0.042994094,0.014613211,1,0,0,0.9314,rock_grid_rect_2,7,10,-1,-1,0.931,0.129547177,-0.396414446,1,0,0,1.5587,Peridotite_rect,7,1.559,1,15,0,15,0,1,,,,,,,,,,,,,
59948cbdcf1d1700016efa45,TCR,2024-06-24_17h39.15.943,LearnStrategy,2023.2.3,MacIntel,60.24096386,4,2,1,,,,,,,,4,12,,,,,,,,,,,4,2.307,1,,,,,,0.340402367,-0.228849807,1,0,0,2.307,Gabbro_rect,0,0,0,0,1,
59948cbdcf1d1700016efa45,TCR,2024-06-24_17h39.15.943,LearnStrategy,2023.2.3,MacIntel,60.24096386,4,2,2,,,,,,,,3,10,,,,,,,,,,,3,1.429,1,,,,,,0.118117094,-0.260085217,1,0,0,1.4295,Diorite_rect,1,0,1,0,1,
59948cbdcf1d1700016efa45,TCR,2024-06-24_17h39.15.943,LearnStrategy,2023.2.3,MacIntel,60.24096386,4,2,3,,,,,,,,2,09,,,,,,,,,,,2,2.925,1,,,,,,-0.11252081,-0.25957351,1,0,0,2.9248,Basalt_rect,2,0,2,0,1,
59948cbdcf1d1700016efa45,TCR,2024-06-24_17h39.15.943,LearnStrategy,2023.2.3,MacIntel,60.24096386,4,2,4,,,,,,,,7,13,,,,,,,,,,,7,1.23,1,,,,,,0.08172247,-0.39959804,1,0,0,1.2299,Peridotite_rect,3,0,3,0,1,
59948cbdcf1d1700016efa45,TCR,2024-06-24_17h39.15.943,LearnStrategy,2023.2.3,MacIntel,60.24096386,4,2,5,,,,,,,,4,08,,,,,,,,,,,4,6.456,1,,,,,,0.321653646,-0.264200381,1,0,0,6.4562,Gabbro_rect,4,0,4,0,1,
59948cbdcf1d1700016efa45,TCR,2024-06-24_17h39.15.943,LearnStrategy,2023.2.3,MacIntel,60.24096386,4,2,6,,,,,,,,3,16,,,,,,,,,,,3,1.061,1,,,,,,0.095450846,-0.255413702,1,0,0,1.0607,Diorite_rect,5,0,5,0,1,
59948cbdcf1d1700016efa45,TCR,2024-06-24_17h39.15.943,LearnStrategy,2023.2.3,MacIntel,60.24096386,4,2,7,,,,,,,,5,08,,,,,,,,,,,5,1.115,1,,,,,,-0.372720657,-0.389191895,1,0,0,1.115,Obsidian_rect,6,0,6,0,1,
59948cbdcf1d1700016efa45,TCR,2024-06-24_17h39.15.943,LearnStrategy,2023.2.3,MacIntel,60.24096386,4,2,8,,,,,,,,6,15,,,,,,,,,,,6,1.304,1,,,,,,-0.211291736,-0.399000012,1,0,0,1.3041,Pegmatite_rect,7,0,7,0,1,
59948cbdcf1d1700016efa45,TCR,2024-06-24_17h39.15.943,LearnStrategy,2023.2.3,MacIntel,60.24096386,4,2,9,,,,,,,,8,05,,,,,,,,,,,8,1.108,1,,,,,,0.371810942,-0.385589658,1,0,0,1.1084,Pumice_rect,8,0,8,0,1,
59948cbdcf1d1700016efa45,TCR,2024-06-24_17h39.15.943,LearnStrategy,2023.2.3,MacIntel,60.24096386,4,2,10,,,,,,,,1,09,,,,,,,,,,,4,4.558,0,,,,,,0.329715983,-0.263335077,1,0,0,4.5577,Gabbro_rect,9,0,9,0,1,
59948cbdcf1d1700016efa45,TCR,2024-06-24_17h39.15.943,LearnStrategy,2023.2.3,MacIntel,60.24096386,4,2,11,,,,,,,,7,14,,,,,,,,,,,7,1.526,1,,,,,,0.101775135,-0.408763951,1,0,0,1.5258,Peridotite_rect,10,0,10,0,1,
59948cbdcf1d1700016efa45,TCR,2024-06-24_17h39.15.943,LearnStrategy,2023.2.3,MacIntel,60.24096386,4,2,12,,,,,,,,2,16,,,,,,,,,,,8,1.858,0,,,,,,0.31804269,-0.401915981,1,0,0,1.8584,Pumice_rect,11,0,11,0,1,
59948cbdcf1d1700016efa45,TCR,2024-06-24_17h39.15.943,LearnStrategy,2023.2.3,MacIntel,60.24096386,4,2,13,,,,,,,,8,02,,,,,,,,,,,8,0.878,1,,,,,,0.31804269,-0.401915981,1,0,0,0.8776,Pumice_rect,12,0,12,0,1,
59948cbdcf1d1700016efa45,TCR,2024-06-24_17h39.15.943,LearnStrategy,2023.2.3,MacIntel,60.24096386,4,2,14,,,,,,,,5,07,,,,,,,,,,,5,1.243,1,,,,,,-0.321665475,-0.401792225,1,0,0,1.2427,Obsidian_rect,13,0,13,0,1,
59948cbdcf1d1700016efa45,TCR,2024-06-24_17h39.15.943,LearnStrategy,2023.2.3,MacIntel,60.24096386,4,2,15,,,,,,,,6,07,,,,,,,,,,,6,1.221,1,,,,,,-0.15548305,-0.390433698,1,0,0,1.2213,Pegmatite_rect,14,0,14,0,1,
59948cbdcf1d1700016efa45,TCR,2024-06-24_17h39.15.943,LearnStrategy,2023.2.3,MacIntel,60.24096386,4,2,16,,,,,,,,1,02,,,,,,,,,,,1,3.601,1,,,,,,-0.316141154,-0.257605911,1,0,0,3.6013,Andesite_rect,15,0,15,0,1,
59948cbdcf1d1700016efa45,TCR,2024-06-24_17h39.15.943,LearnStrategy,2023.2.3,MacIntel,60.24096386,5,1,1,-0.028560907,0.003898926,1,0,0,0.9655,rock_grid_rect_2,4,03,-1,-1,0.966,0.338821382,-0.235234259,1,0,0,5.9753,Gabbro_rect,4,5.975,1,0,0,0,0,1,,,,,,,,,,,,,
59948cbdcf1d1700016efa45,TCR,2024-06-24_17h39.15.943,LearnStrategy,2023.2.3,MacIntel,60.24096386,5,1,2,-0.117814651,-0.002724261,1,0,0,1.8816,rock_grid_rect_2,5,10,-1,-1,1.882,-0.312798113,-0.378136451,1,0,0,1.373,Obsidian_rect,5,1.373,1,1,0,1,0,1,,,,,,,,,,,,,
59948cbdcf1d1700016efa45,TCR,2024-06-24_17h39.15.943,LearnStrategy,2023.2.3,MacIntel,60.24096386,5,1,3,-0.063608515,-0.009439174,1,0,0,0.9989,rock_grid_rect_2,7,15,-1,-1,0.999,0.114469052,-0.384202241,1,0,0,1.3206,Peridotite_rect,7,1.321,1,2,0,2,0,1,,,,,,,,,,,,,
59948cbdcf1d1700016efa45,TCR,2024-06-24_17h39.15.943,LearnStrategy,2023.2.3,MacIntel,60.24096386,5,1,4,3.59817E-05,-0.015198219,1,0,0,0.7316,rock_grid_rect_2,6,16,-1,-1,0.732,-0.136459612,-0.389932513,1,0,0,1.4222,Pegmatite_rect,6,1.422,1,3,0,3,0,1,,,,,,,,,,,,,
59948cbdcf1d1700016efa45,TCR,2024-06-24_17h39.15.943,LearnStrategy,2023.2.3,MacIntel,60.24096386,5,1,5,-0.033992687,-0.017483433,1,0,0,0.9308,rock_grid_rect_2,4,01,-1,-1,0.931,0.357759022,-0.237648112,1,0,0,5.1621,Gabbro_rect,4,5.162,1,4,0,4,0,1,,,,,,,,,,,,,
59948cbdcf1d1700016efa45,TCR,2024-06-24_17h39.15.943,LearnStrategy,2023.2.3,MacIntel,60.24096386,5,1,6,-0.086244652,0.000883963,1,0,0,0.8639,rock_grid_rect_2,8,13,-1,-1,0.864,0.351644927,-0.38815482,1,0,0,1.0732,Pumice_rect,8,1.073,1,5,0,5,0,1,,,,,,,,,,,,,
59948cbdcf1d1700016efa45,TCR,2024-06-24_17h39.15.943,LearnStrategy,2023.2.3,MacIntel,60.24096386,5,1,7,-0.088988851,0.001042306,1,0,0,0.8154,rock_grid_rect_2,1,05,-1,-1,0.815,-0.3549065,-0.232606608,1,0,0,2.758,Andesite_rect,1,2.758,1,6,0,6,0,1,,,,,,,,,,,,,
59948cbdcf1d1700016efa45,TCR,2024-06-24_17h39.15.943,LearnStrategy,2023.2.3,MacIntel,60.24096386,5,1,8,-0.026599528,-0.011548782,1,0,0,1.0313,rock_grid_rect_2,6,11,-1,-1,1.031,-0.12648205,-0.383332345,1,0,0,1.1335,Pegmatite_rect,6,1.134,1,7,0,7,0,1,,,,,,,,,,,,,
59948cbdcf1d1700016efa45,TCR,2024-06-24_17h39.15.943,LearnStrategy,2023.2.3,MacIntel,60.24096386,5,1,9,-0.125931862,0.006956148,1,0,0,0.8645,rock_grid_rect_2,3,06,-1,-1,0.865,0.108061407,-0.231040446,1,0,0,1.71,Diorite_rect,3,1.71,1,8,0,8,0,1,,,,,,,,,,,,,
59948cbdcf1d1700016efa45,TCR,2024-06-24_17h39.15.943,LearnStrategy,2023.2.3,MacIntel,60.24096386,5,1,10,-0.108409249,-0.010031738,1,0,0,0.9153,rock_grid_rect_2,7,08,-1,-1,0.915,0.135316453,-0.389219506,1,0,0,2.1035,Peridotite_rect,7,2.104,1,9,0,9,0,1,,,,,,,,,,,,,
59948cbdcf1d1700016efa45,TCR,2024-06-24_17h39.15.943,LearnStrategy,2023.2.3,MacIntel,60.24096386,5,1,11,-0.153453718,-0.007186047,1,0,0,0.9822,rock_grid_rect_2,8,04,-1,-1,0.982,0.402616141,-0.409766613,1,0,0,1.3274,Pumice_rect,8,1.327,1,10,0,10,0,1,,,,,,,,,,,,,
59948cbdcf1d1700016efa45,TCR,2024-06-24_17h39.15.943,LearnStrategy,2023.2.3,MacIntel,60.24096386,5,1,12,-0.032360549,1.69736E-05,1,0,0,0.6817,rock_grid_rect_2,2,01,-1,-1,0.682,-0.107707578,-0.235938314,1,0,0,2.1917,Basalt_rect,2,2.192,1,11,0,11,0,1,,,,,,,,,,,,,
59948cbdcf1d1700016efa45,TCR,2024-06-24_17h39.15.943,LearnStrategy,2023.2.3,MacIntel,60.24096386,5,1,13,-0.087212786,0.006014927,1,0,0,0.8807,rock_grid_rect_2,1,03,-1,-1,0.881,-0.315690453,-0.235485724,1,0,0,4.6436,Andesite_rect,1,4.644,1,12,0,12,0,1,,,,,,,,,,,,,
59948cbdcf1d1700016efa45,TCR,2024-06-24_17h39.15.943,LearnStrategy,2023.2.3,MacIntel,60.24096386,5,1,14,-0.07382237,0.016234887,1,0,0,0.8479,rock_grid_rect_2,1,01,-1,-1,0.848,0.106883952,-0.23590954,1,0,0,2.3624,Diorite_rect,3,2.362,0,13,0,13,0,1,,,,,,,,,,,,,
59948cbdcf1d1700016efa45,TCR,2024-06-24_17h39.15.943,LearnStrategy,2023.2.3,MacIntel,60.24096386,5,1,15,-0.120016044,-0.00027367,1,0,0,0.9494,rock_grid_rect_2,2,11,-1,-1,0.949,0.351091657,-0.26521589,1,0,0,13.1511,Gabbro_rect,4,13.151,0,14,0,14,0,1,,,,,,,,,,,,,
59948cbdcf1d1700016efa45,TCR,2024-06-24_17h39.15.943,LearnStrategy,2023.2.3,MacIntel,60.24096386,5,1,16,-0.113748837,-0.004089355,1,0,0,1.1979,rock_grid_rect_2,6,13,-1,-1,1.198,-0.112201218,-0.403930257,1,0,0,5.4544,Pegmatite_rect,6,5.454,1,15,0,15,0,1,,,,,,,,,,,,,
59948cbdcf1d1700016efa45,TCR,2024-06-24_17h39.15.943,LearnStrategy,2023.2.3,MacIntel,60.24096386,5,2,1,,,,,,,,5,02,,,,,,,,,,,5,1.522,1,,,,,,-0.3612298,-0.3979119,1,0,0,1.522,Obsidian_rect,0,0,0,0,1,
59948cbdcf1d1700016efa45,TCR,2024-06-24_17h39.15.943,LearnStrategy,2023.2.3,MacIntel,60.24096386,5,2,2,,,,,,,,2,02,,,,,,,,,,,2,1.287,1,,,,,,-0.209195789,-0.257026367,1,0,0,1.2868,Basalt_rect,1,0,1,0,1,
59948cbdcf1d1700016efa45,TCR,2024-06-24_17h39.15.943,LearnStrategy,2023.2.3,MacIntel,60.24096386,5,2,3,,,,,,,,1,11,,,,,,,,,,,4,4.85,0,,,,,,0.302443034,-0.252902658,1,0,0,4.8499,Gabbro_rect,2,0,2,0,1,
59948cbdcf1d1700016efa45,TCR,2024-06-24_17h39.15.943,LearnStrategy,2023.2.3,MacIntel,60.24096386,5,2,4,,,,,,,,2,12,,,,,,,,,,,2,4.801,1,,,,,,-0.150667608,-0.246102353,1,0,0,4.8009,Basalt_rect,3,0,3,0,1,
59948cbdcf1d1700016efa45,TCR,2024-06-24_17h39.15.943,LearnStrategy,2023.2.3,MacIntel,60.24096386,5,2,5,,,,,,,,7,04,,,,,,,,,,,6,1.418,0,,,,,,-0.107777913,-0.411958008,1,0,0,1.4185,Pegmatite_rect,4,0,4,0,1,
59948cbdcf1d1700016efa45,TCR,2024-06-24_17h39.15.943,LearnStrategy,2023.2.3,MacIntel,60.24096386,5,2,6,,,,,,,,3,09,,,,,,,,,,,3,1.089,1,,,,,,0.084529215,-0.265487351,1,0,0,1.0891,Diorite_rect,5,0,5,0,1,
59948cbdcf1d1700016efa45,TCR,2024-06-24_17h39.15.943,LearnStrategy,2023.2.3,MacIntel,60.24096386,5,2,7,,,,,,,,1,04,,,,,,,,,,,1,3.246,1,,,,,,-0.312439662,-0.239415225,1,0,0,3.2464,Andesite_rect,6,0,6,0,1,
59948cbdcf1d1700016efa45,TCR,2024-06-24_17h39.15.943,LearnStrategy,2023.2.3,MacIntel,60.24096386,5,2,8,,,,,,,,4,14,,,,,,,,,,,8,5.058,0,,,,,,0.343279506,-0.386936733,1,0,0,5.0582,Pumice_rect,7,0,7,0,1,
59948cbdcf1d1700016efa45,TCR,2024-06-24_17h39.15.943,LearnStrategy,2023.2.3,MacIntel,60.24096386,5,2,9,,,,,,,,3,14,,,,,,,,,,,3,1.482,1,,,,,,0.093021996,-0.23197347,1,0,0,1.4817,Diorite_rect,8,0,8,0,1,
59948cbdcf1d1700016efa45,TCR,2024-06-24_17h39.15.943,LearnStrategy,2023.2.3,MacIntel,60.24096386,5,2,10,,,,,,,,4,10,,,,,,,,,,,4,2.926,1,,,,,,0.352256324,-0.242752569,1,0,0,2.9259,Gabbro_rect,9,0,9,0,1,
59948cbdcf1d1700016efa45,TCR,2024-06-24_17h39.15.943,LearnStrategy,2023.2.3,MacIntel,60.24096386,5,2,11,,,,,,,,5,16,,,,,,,,,,,5,1.983,1,,,,,,-0.364684884,-0.400467122,1,0,0,1.9833,Obsidian_rect,10,0,10,0,1,
59948cbdcf1d1700016efa45,TCR,2024-06-24_17h39.15.943,LearnStrategy,2023.2.3,MacIntel,60.24096386,5,2,12,,,,,,,,6,08,,,,,,,,,,,6,0.945,1,,,,,,-0.196763858,-0.388469238,1,0,0,0.9447,Pegmatite_rect,11,0,11,0,1,
59948cbdcf1d1700016efa45,TCR,2024-06-24_17h39.15.943,LearnStrategy,2023.2.3,MacIntel,60.24096386,5,2,13,,,,,,,,8,06,,,,,,,,,,,8,1.092,1,,,,,,0.34699521,-0.387713681,1,0,0,1.092,Pumice_rect,12,0,12,0,1,
59948cbdcf1d1700016efa45,TCR,2024-06-24_17h39.15.943,LearnStrategy,2023.2.3,MacIntel,60.24096386,5,2,14,,,,,,,,6,05,,,,,,,,,,,6,2.641,1,,,,,,-0.106583426,-0.390205253,1,0,0,2.6406,Pegmatite_rect,13,0,13,0,1,
59948cbdcf1d1700016efa45,TCR,2024-06-24_17h39.15.943,LearnStrategy,2023.2.3,MacIntel,60.24096386,5,2,15,,,,,,,,7,06,,,,,,,,,,,7,1.572,1,,,,,,0.107852667,-0.400751256,1,0,0,1.5716,Peridotite_rect,14,0,14,0,1,
59948cbdcf1d1700016efa45,TCR,2024-06-24_17h39.15.943,LearnStrategy,2023.2.3,MacIntel,60.24096386,5,2,16,,,,,,,,8,09,,,,,,,,,,,8,1.62,1,,,,,,0.316497047,-0.390815372,1,0,0,1.6199,Pumice_rect,15,0,15,0,1,
59948cbdcf1d1700016efa45,TCR,2024-06-24_17h39.15.943,LearnStrategy,2023.2.3,MacIntel,60.24096386,6,1,1,0.004219273,0.005422363,1,0,0,1.0649,rock_grid_rect_2,4,01,-1,-1,1.065,0.383789411,-0.23365246,1,0,0,3.0416,Gabbro_rect,4,3.042,1,0,0,0,0,1,,,,,,,,,,,,,
59948cbdcf1d1700016efa45,TCR,2024-06-24_17h39.15.943,LearnStrategy,2023.2.3,MacIntel,60.24096386,6,1,2,-0.139238281,-0.00365618,1,0,0,1.448,rock_grid_rect_2,2,11,-1,-1,1.448,-0.102268241,-0.245038539,1,0,0,2.532,Basalt_rect,2,2.532,1,1,0,1,0,1,,,,,,,,,,,,,
59948cbdcf1d1700016efa45,TCR,2024-06-24_17h39.15.943,LearnStrategy,2023.2.3,MacIntel,60.24096386,6,1,3,-0.074562233,-0.000978423,1,0,0,1.1327,rock_grid_rect_2,1,01,-1,-1,1.133,-0.383915115,-0.260004069,1,0,0,4.3408,Andesite_rect,1,4.341,1,2,0,2,0,1,,,,,,,,,,,,,
59948cbdcf1d1700016efa45,TCR,2024-06-24_17h39.15.943,LearnStrategy,2023.2.3,MacIntel,60.24096386,6,1,4,-0.060462995,-0.020315058,1,0,0,0.9825,rock_grid_rect_2,7,02,-1,-1,0.982,0.099121152,-0.39724371,1,0,0,1.5153,Peridotite_rect,7,1.515,1,3,0,3,0,1,,,,,,,,,,,,,
59948cbdcf1d1700016efa45,TCR,2024-06-24_17h39.15.943,LearnStrategy,2023.2.3,MacIntel,60.24096386,6,1,5,-0.087750477,0.00290661,1,0,0,0.9311,rock_grid_rect_2,2,06,-1,-1,0.931,-0.117757801,-0.238400298,1,0,0,2.1814,Basalt_rect,2,2.181,1,4,0,4,0,1,,,,,,,,,,,,,
59948cbdcf1d1700016efa45,TCR,2024-06-24_17h39.15.943,LearnStrategy,2023.2.3,MacIntel,60.24096386,6,1,6,-0.035181652,-0.002428502,1,0,0,0.8992,rock_grid_rect_2,8,15,-1,-1,0.899,0.382019857,-0.404524391,1,0,0,1.4548,Pumice_rect,8,1.455,1,5,0,5,0,1,,,,,,,,,,,,,
59948cbdcf1d1700016efa45,TCR,2024-06-24_17h39.15.943,LearnStrategy,2023.2.3,MacIntel,60.24096386,6,1,7,-0.122727109,0.01302002,1,0,0,0.8488,rock_grid_rect_2,7,08,-1,-1,0.849,0.137449544,-0.41556257,1,0,0,1.4136,Peridotite_rect,7,1.414,1,6,0,6,0,1,,,,,,,,,,,,,
59948cbdcf1d1700016efa45,TCR,2024-06-24_17h39.15.943,LearnStrategy,2023.2.3,MacIntel,60.24096386,6,1,8,-0.128441569,0.002473726,1,0,0,0.8827,rock_grid_rect_2,5,04,-1,-1,0.883,-0.398888492,-0.396732701,1,0,0,1.3447,Obsidian_rect,5,1.345,1,7,0,7,0,1,,,,,,,,,,,,,
59948cbdcf1d1700016efa45,TCR,2024-06-24_17h39.15.943,LearnStrategy,2023.2.3,MacIntel,60.24096386,6,1,9,-0.07930914,0.000107131,1,0,0,0.7329,rock_grid_rect_2,4,01,-1,-1,0.733,0.384022972,-0.25751616,1,0,0,1.5367,Gabbro_rect,4,1.537,1,8,0,8,0,1,,,,,,,,,,,,,
59948cbdcf1d1700016efa45,TCR,2024-06-24_17h39.15.943,LearnStrategy,2023.2.3,MacIntel,60.24096386,6,1,10,-0.03313587,-0.024002337,1,0,0,0.798,rock_grid_rect_2,3,07,-1,-1,0.798,0.120936337,-0.23500651,1,0,0,1.885,Diorite_rect,3,1.885,1,9,0,9,0,1,,,,,,,,,,,,,
59948cbdcf1d1700016efa45,TCR,2024-06-24_17h39.15.943,LearnStrategy,2023.2.3,MacIntel,60.24096386,6,1,11,-0.037124547,-0.005843855,1,0,0,0.8834,rock_grid_rect_2,1,10,-1,-1,0.883,-0.358809466,-0.234290248,1,0,0,4.2903,Andesite_rect,1,4.29,1,10,0,10,0,1,,,,,,,,,,,,,
59948cbdcf1d1700016efa45,TCR,2024-06-24_17h39.15.943,LearnStrategy,2023.2.3,MacIntel,60.24096386,6,1,12,-0.059004197,-0.018292062,1,0,0,0.9476,rock_grid_rect_2,7,10,-1,-1,0.948,0.116465251,-0.387714844,1,0,0,1.4734,Peridotite_rect,7,1.473,1,11,0,11,0,1,,,,,,,,,,,,,
59948cbdcf1d1700016efa45,TCR,2024-06-24_17h39.15.943,LearnStrategy,2023.2.3,MacIntel,60.24096386,6,1,13,-0.032312826,-0.010625465,1,0,0,0.9138,rock_grid_rect_2,1,14,-1,-1,0.914,-0.408375738,-0.253421805,1,0,0,7.5445,Andesite_rect,1,7.544,1,12,0,12,0,1,,,,,,,,,,,,,
59948cbdcf1d1700016efa45,TCR,2024-06-24_17h39.15.943,LearnStrategy,2023.2.3,MacIntel,60.24096386,6,1,14,-0.055513335,-0.003360189,1,0,0,0.9141,rock_grid_rect_2,6,16,-1,-1,0.914,-0.136040795,-0.406211926,1,0,0,1.4441,Pegmatite_rect,6,1.444,1,13,0,13,0,1,,,,,,,,,,,,,
59948cbdcf1d1700016efa45,TCR,2024-06-24_17h39.15.943,LearnStrategy,2023.2.3,MacIntel,60.24096386,6,1,15,-0.122500756,-0.016082996,1,0,0,0.8647,rock_grid_rect_2,4,05,-1,-1,0.865,0.346608887,-0.265746257,1,0,0,6.1232,Gabbro_rect,4,6.123,1,14,0,14,0,1,,,,,,,,,,,,,
59948cbdcf1d1700016efa45,TCR,2024-06-24_17h39.15.943,LearnStrategy,2023.2.3,MacIntel,60.24096386,6,1,16,-0.016153913,-0.011323649,1,0,0,0.815,rock_grid_rect_2,6,03,-1,-1,0.815,-0.102648286,-0.400598261,1,0,0,2.9599,Pegmatite_rect,6,2.96,1,15,0,15,0,1,,,,,,,,,,,,,
59948cbdcf1d1700016efa45,TCR,2024-06-24_17h39.15.943,LearnStrategy,2023.2.3,MacIntel,60.24096386,6,2,1,,,,,,,,7,05,,,,,,,,,,,7,3.316,1,,,,,,0.101345971,-0.391843436,1,0,0,3.3164,Peridotite_rect,0,0,0,0,1,
59948cbdcf1d1700016efa45,TCR,2024-06-24_17h39.15.943,LearnStrategy,2023.2.3,MacIntel,60.24096386,6,2,2,,,,,,,,3,15,,,,,,,,,,,3,2.598,1,,,,,,0.079655529,-0.244783761,1,0,0,2.5984,Diorite_rect,1,0,1,0,1,
59948cbdcf1d1700016efa45,TCR,2024-06-24_17h39.15.943,LearnStrategy,2023.2.3,MacIntel,60.24096386,6,2,3,,,,,,,,5,11,,,,,,,,,,,5,1.335,1,,,,,,-0.375164504,-0.393001418,1,0,0,1.335,Obsidian_rect,2,0,2,0,1,
59948cbdcf1d1700016efa45,TCR,2024-06-24_17h39.15.943,LearnStrategy,2023.2.3,MacIntel,60.24096386,6,2,4,,,,,,,,8,14,,,,,,,,,,,8,1.237,1,,,,,,0.415256813,-0.402932187,1,0,0,1.2374,Pumice_rect,3,0,3,0,1,
59948cbdcf1d1700016efa45,TCR,2024-06-24_17h39.15.943,LearnStrategy,2023.2.3,MacIntel,60.24096386,6,2,5,,,,,,,,5,09,,,,,,,,,,,5,1.243,1,,,,,,-0.358587094,-0.404846831,1,0,0,1.2431,Obsidian_rect,4,0,4,0,1,
59948cbdcf1d1700016efa45,TCR,2024-06-24_17h39.15.943,LearnStrategy,2023.2.3,MacIntel,60.24096386,6,2,6,,,,,,,,6,06,,,,,,,,,,,6,6.47,1,,,,,,-0.085595819,-0.410507754,1,0,0,6.4704,Pegmatite_rect,5,0,5,0,1,
59948cbdcf1d1700016efa45,TCR,2024-06-24_17h39.15.943,LearnStrategy,2023.2.3,MacIntel,60.24096386,6,2,7,,,,,,,,1,06,,,,,,,,,,,1,1.641,1,,,,,,-0.362942418,-0.228493885,1,0,0,1.6409,Andesite_rect,6,0,6,0,1,
59948cbdcf1d1700016efa45,TCR,2024-06-24_17h39.15.943,LearnStrategy,2023.2.3,MacIntel,60.24096386,6,2,8,,,,,,,,4,16,,,,,,,,,,,4,4.438,1,,,,,,0.368476679,-0.246261044,1,0,0,4.4376,Gabbro_rect,7,0,7,0,1,
59948cbdcf1d1700016efa45,TCR,2024-06-24_17h39.15.943,LearnStrategy,2023.2.3,MacIntel,60.24096386,6,2,9,,,,,,,,3,11,,,,,,,,,,,3,0.979,1,,,,,,0.09025844,-0.249839681,1,0,0,0.9791,Diorite_rect,8,0,8,0,1,
59948cbdcf1d1700016efa45,TCR,2024-06-24_17h39.15.943,LearnStrategy,2023.2.3,MacIntel,60.24096386,6,2,10,,,,,,,,2,08,,,,,,,,,,,2,1.077,1,,,,,,-0.113744013,-0.251004057,1,0,0,1.0771,Basalt_rect,9,0,9,0,1,
59948cbdcf1d1700016efa45,TCR,2024-06-24_17h39.15.943,LearnStrategy,2023.2.3,MacIntel,60.24096386,6,2,11,,,,,,,,1,16,,,,,,,,,,,1,1.156,1,,,,,,-0.340345488,-0.250389288,1,0,0,1.156,Andesite_rect,10,0,10,0,1,
59948cbdcf1d1700016efa45,TCR,2024-06-24_17h39.15.943,LearnStrategy,2023.2.3,MacIntel,60.24096386,6,2,12,,,,,,,,6,10,,,,,,,,,,,7,3.466,0,,,,,,0.100989351,-0.391174607,1,0,0,3.4659,Peridotite_rect,11,0,11,0,1,
59948cbdcf1d1700016efa45,TCR,2024-06-24_17h39.15.943,LearnStrategy,2023.2.3,MacIntel,60.24096386,6,2,13,,,,,,,,4,09,,,,,,,,,,,5,7.039,0,,,,,,-0.338602295,-0.383656645,1,0,0,7.0389,Obsidian_rect,12,0,12,0,1,
59948cbdcf1d1700016efa45,TCR,2024-06-24_17h39.15.943,LearnStrategy,2023.2.3,MacIntel,60.24096386,6,2,14,,,,,,,,2,05,,,,,,,,,,,2,1.079,1,,,,,,-0.150054757,-0.253317813,1,0,0,1.0787,Basalt_rect,13,0,13,0,1,
59948cbdcf1d1700016efa45,TCR,2024-06-24_17h39.15.943,LearnStrategy,2023.2.3,MacIntel,60.24096386,6,2,15,,,,,,,,8,10,,,,,,,,,,,8,1.28,1,,,,,,0.411563663,-0.400510777,1,0,0,1.2804,Pumice_rect,14,0,14,0,1,
59948cbdcf1d1700016efa45,TCR,2024-06-24_17h39.15.943,LearnStrategy,2023.2.3,MacIntel,60.24096386,6,2,16,,,,,,,,7,12,,,,,,,,,,,7,1.161,1,,,,,,0.163819871,-0.387174595,1,0,0,1.1613,Peridotite_rect,15,0,15,0,1,
59948cbdcf1d1700016efa45,TCR,2024-06-24_17h39.15.943,LearnStrategy,2023.2.3,MacIntel,60.24096386,7,1,1,-0.16860648,0.014359276,1,0,0,1.5649,rock_grid_rect_2,6,13,-1,-1,1.565,-0.1286363,-0.395598377,1,0,0,3.4397,Pegmatite_rect,6,3.44,1,0,0,0,0,1,,,,,,,,,,,,,
59948cbdcf1d1700016efa45,TCR,2024-06-24_17h39.15.943,LearnStrategy,2023.2.3,MacIntel,60.24096386,7,1,2,-0.050100563,-0.015010289,1,0,0,0.9321,rock_grid_rect_2,7,08,-1,-1,0.932,0.112365606,-0.402871268,1,0,0,1.3366,Peridotite_rect,7,1.337,1,1,0,1,0,1,,,,,,,,,,,,,
59948cbdcf1d1700016efa45,TCR,2024-06-24_17h39.15.943,LearnStrategy,2023.2.3,MacIntel,60.24096386,7,1,3,-0.006056955,-0.005081322,1,0,0,0.7819,rock_grid_rect_2,2,04,-1,-1,0.782,-0.126473272,-0.261379046,1,0,0,1.03,Basalt_rect,2,1.03,1,2,0,2,0,1,,,,,,,,,,,,,
59948cbdcf1d1700016efa45,TCR,2024-06-24_17h39.15.943,LearnStrategy,2023.2.3,MacIntel,60.24096386,7,1,4,-0.038944906,-0.003772786,1,0,0,0.6323,rock_grid_rect_2,3,07,-1,-1,0.632,0.11871925,-0.242506162,1,0,0,1.2921,Diorite_rect,3,1.292,1,3,0,3,0,1,,,,,,,,,,,,,
59948cbdcf1d1700016efa45,TCR,2024-06-24_17h39.15.943,LearnStrategy,2023.2.3,MacIntel,60.24096386,7,1,5,-0.085931862,-0.021880057,1,0,0,0.8992,rock_grid_rect_2,6,11,-1,-1,0.899,-0.108189697,-0.396719854,1,0,0,1.5967,Pegmatite_rect,6,1.597,1,4,0,4,0,1,,,,,,,,,,,,,
59948cbdcf1d1700016efa45,TCR,2024-06-24_17h39.15.943,LearnStrategy,2023.2.3,MacIntel,60.24096386,7,1,6,-0.050189441,-0.020439918,1,0,0,0.6316,rock_grid_rect_2,1,07,-1,-1,0.632,-0.421683524,-0.235035633,1,0,0,1.1129,Andesite_rect,1,1.113,1,5,0,5,0,1,,,,,,,,,,,,,
59948cbdcf1d1700016efa45,TCR,2024-06-24_17h39.15.943,LearnStrategy,2023.2.3,MacIntel,60.24096386,7,1,7,-0.05405628,-0.006864537,1,0,0,1.0995,rock_grid_rect_2,1,07,-1,-1,1.099,-0.396444034,-0.242052874,1,0,0,0.9953,Andesite_rect,1,0.995,1,6,0,6,0,1,,,,,,,,,,,,,
59948cbdcf1d1700016efa45,TCR,2024-06-24_17h39.15.943,LearnStrategy,2023.2.3,MacIntel,60.24096386,7,1,8,-0.011667248,0.005800084,1,0,0,1.0159,rock_grid_rect_2,4,01,-1,-1,1.016,0.37140811,-0.240601981,1,0,0,1.3596,Gabbro_rect,4,1.36,1,7,0,7,0,1,,,,,,,,,,,,,
59948cbdcf1d1700016efa45,TCR,2024-06-24_17h39.15.943,LearnStrategy,2023.2.3,MacIntel,60.24096386,7,1,9,-0.151280169,-0.003052165,1,0,0,0.8984,rock_grid_rect_2,6,16,-1,-1,0.898,-0.11994315,-0.399543573,1,0,0,1.1292,Pegmatite_rect,6,1.129,1,8,0,8,0,1,,,,,,,,,,,,,
59948cbdcf1d1700016efa45,TCR,2024-06-24_17h39.15.943,LearnStrategy,2023.2.3,MacIntel,60.24096386,7,1,10,-0.120797991,-0.016117583,1,0,0,0.9832,rock_grid_rect_2,5,12,-1,-1,0.983,-0.405653396,-0.385295875,1,0,0,1.3999,Obsidian_rect,5,1.4,1,9,0,9,0,1,,,,,,,,,,,,,
59948cbdcf1d1700016efa45,TCR,2024-06-24_17h39.15.943,LearnStrategy,2023.2.3,MacIntel,60.24096386,7,1,11,0.009771031,-0.018609387,1,0,0,0.699,rock_grid_rect_2,4,05,-1,-1,0.699,0.382883417,-0.259237874,1,0,0,5.5278,Gabbro_rect,4,5.528,1,10,0,10,0,1,,,,,,,,,,,,,
59948cbdcf1d1700016efa45,TCR,2024-06-24_17h39.15.943,LearnStrategy,2023.2.3,MacIntel,60.24096386,7,1,12,-0.023367397,-0.00219744,1,0,0,0.7637,rock_grid_rect_2,8,13,-1,-1,0.764,0.368472842,-0.404023612,1,0,0,1.013,Pumice_rect,8,1.013,1,11,0,11,0,1,,,,,,,,,,,,,
59948cbdcf1d1700016efa45,TCR,2024-06-24_17h39.15.943,LearnStrategy,2023.2.3,MacIntel,60.24096386,7,1,13,-0.094497942,-0.004419527,1,0,0,0.8658,rock_grid_rect_2,7,10,-1,-1,0.866,0.132822266,-0.401635742,1,0,0,1.3464,Peridotite_rect,7,1.346,1,12,0,12,0,1,,,,,,,,,,,,,
59948cbdcf1d1700016efa45,TCR,2024-06-24_17h39.15.943,LearnStrategy,2023.2.3,MacIntel,60.24096386,7,1,14,-0.104551944,-0.003869048,1,0,0,0.7995,rock_grid_rect_2,2,11,-1,-1,0.8,-0.128513358,-0.244884789,1,0,0,1.8334,Basalt_rect,2,1.833,1,13,0,13,0,1,,,,,,,,,,,,,
59948cbdcf1d1700016efa45,TCR,2024-06-24_17h39.15.943,LearnStrategy,2023.2.3,MacIntel,60.24096386,7,1,15,-0.070965692,0.002971482,1,0,0,1.0829,rock_grid_rect_2,4,13,-1,-1,1.083,-0.40705857,-0.260402483,1,0,0,8.0965,Andesite_rect,1,8.096,0,14,0,14,0,1,,,,,,,,,,,,,
59948cbdcf1d1700016efa45,TCR,2024-06-24_17h39.15.943,LearnStrategy,2023.2.3,MacIntel,60.24096386,7,1,16,-0.103612293,-0.011492397,1,0,0,0.9654,rock_grid_rect_2,4,15,-1,-1,0.965,0.383494815,-0.244199568,1,0,0,4.2918,Gabbro_rect,4,4.292,1,15,0,15,0,1,,,,,,,,,,,,,
59948cbdcf1d1700016efa45,TCR,2024-06-24_17h39.15.943,LearnStrategy,2023.2.3,MacIntel,60.24096386,7,2,1,,,,,,,,7,12,,,,,,,,,,,7,1.074,1,,,,,,0.158025193,-0.391715611,1,0,0,1.0741,Peridotite_rect,0,0,0,0,1,
59948cbdcf1d1700016efa45,TCR,2024-06-24_17h39.15.943,LearnStrategy,2023.2.3,MacIntel,60.24096386,7,2,2,,,,,,,,5,16,,,,,,,,,,,5,1.153,1,,,,,,-0.353032285,-0.381420375,1,0,0,1.1533,Obsidian_rect,1,0,1,0,1,
59948cbdcf1d1700016efa45,TCR,2024-06-24_17h39.15.943,LearnStrategy,2023.2.3,MacIntel,60.24096386,7,2,3,,,,,,,,2,12,,,,,,,,,,,2,0.909,1,,,,,,-0.168598749,-0.231162691,1,0,0,0.9094,Basalt_rect,2,0,2,0,1,
59948cbdcf1d1700016efa45,TCR,2024-06-24_17h39.15.943,LearnStrategy,2023.2.3,MacIntel,60.24096386,7,2,4,,,,,,,,1,16,,,,,,,,,,,1,1.523,1,,,,,,-0.352627912,-0.252843192,1,0,0,1.5233,Andesite_rect,3,0,3,0,1,
59948cbdcf1d1700016efa45,TCR,2024-06-24_17h39.15.943,LearnStrategy,2023.2.3,MacIntel,60.24096386,7,2,5,,,,,,,,4,10,,,,,,,,,,,4,5.243,1,,,,,,0.374443708,-0.252476749,1,0,0,5.2431,Gabbro_rect,4,0,4,0,1,
59948cbdcf1d1700016efa45,TCR,2024-06-24_17h39.15.943,LearnStrategy,2023.2.3,MacIntel,60.24096386,7,2,6,,,,,,,,3,16,,,,,,,,,,,3,1.53,1,,,,,,0.137301549,-0.26176223,1,0,0,1.5303,Diorite_rect,5,0,5,0,1,
59948cbdcf1d1700016efa45,TCR,2024-06-24_17h39.15.943,LearnStrategy,2023.2.3,MacIntel,60.24096386,7,2,7,,,,,,,,6,10,,,,,,,,,,,7,2.172,0,,,,,,0.093435,-0.400266113,1,0,0,2.1724,Peridotite_rect,6,0,6,0,1,
59948cbdcf1d1700016efa45,TCR,2024-06-24_17h39.15.943,LearnStrategy,2023.2.3,MacIntel,60.24096386,7,2,8,,,,,,,,7,13,,,,,,,,,,,7,1.016,1,,,,,,0.060192987,-0.401097586,1,0,0,1.016,Peridotite_rect,7,0,7,0,1,
59948cbdcf1d1700016efa45,TCR,2024-06-24_17h39.15.943,LearnStrategy,2023.2.3,MacIntel,60.24096386,7,2,9,,,,,,,,5,11,,,,,,,,,,,5,0.989,1,,,,,,-0.356547125,-0.388863584,1,0,0,0.9895,Obsidian_rect,8,0,8,0,1,
59948cbdcf1d1700016efa45,TCR,2024-06-24_17h39.15.943,LearnStrategy,2023.2.3,MacIntel,60.24096386,7,2,10,,,,,,,,3,10,,,,,,,,,,,3,1.548,1,,,,,,0.085671212,-0.250234142,1,0,0,1.5481,Diorite_rect,9,0,9,0,1,
59948cbdcf1d1700016efa45,TCR,2024-06-24_17h39.15.943,LearnStrategy,2023.2.3,MacIntel,60.24096386,7,2,11,,,,,,,,8,10,,,,,,,,,,,8,1.075,1,,,,,,0.368669782,-0.392244117,1,0,0,1.0749,Pumice_rect,10,0,10,0,1,
59948cbdcf1d1700016efa45,TCR,2024-06-24_17h39.15.943,LearnStrategy,2023.2.3,MacIntel,60.24096386,7,2,12,,,,,,,,8,09,,,,,,,,,,,8,0.71,1,,,,,,0.368669782,-0.392244117,1,0,0,0.7099,Pumice_rect,11,0,11,0,1,
59948cbdcf1d1700016efa45,TCR,2024-06-24_17h39.15.943,LearnStrategy,2023.2.3,MacIntel,60.24096386,7,2,13,,,,,,,,1,04,,,,,,,,,,,1,3.473,1,,,,,,-0.458815366,-0.244192069,1,0,0,3.473,Andesite_rect,12,0,12,0,1,
59948cbdcf1d1700016efa45,TCR,2024-06-24_17h39.15.943,LearnStrategy,2023.2.3,MacIntel,60.24096386,7,2,14,,,,,,,,6,07,,,,,,,,,,,6,1.864,1,,,,,,-0.179079939,-0.398784761,1,0,0,1.8635,Pegmatite_rect,13,0,13,0,1,
59948cbdcf1d1700016efa45,TCR,2024-06-24_17h39.15.943,LearnStrategy,2023.2.3,MacIntel,60.24096386,7,2,15,,,,,,,,4,16,,,,,,,,,,,4,3.344,1,,,,,,0.375670108,-0.253795573,1,0,0,3.344,Gabbro_rect,14,0,14,0,1,
59948cbdcf1d1700016efa45,TCR,2024-06-24_17h39.15.943,LearnStrategy,2023.2.3,MacIntel,60.24096386,7,2,16,,,,,,,,2,05,,,,,,,,,,,2,1.564,1,,,,,,-0.119726156,-0.260330055,1,0,0,1.5644,Basalt_rect,15,0,15,0,1,
59948cbdcf1d1700016efa45,TCR,2024-06-24_17h39.15.943,LearnStrategy,2023.2.3,MacIntel,60.24096386,8,1,1,-0.041920747,0.002562895,1,0,0,1.5148,rock_grid_rect_2,6,13,-1,-1,1.515,-0.094146263,-0.406825881,1,0,0,1.431,Pegmatite_rect,6,1.431,1,0,0,0,0,1,,,,,,,,,,,,,
59948cbdcf1d1700016efa45,TCR,2024-06-24_17h39.15.943,LearnStrategy,2023.2.3,MacIntel,60.24096386,8,1,2,-0.12251895,-0.014278855,1,0,0,1.2145,rock_grid_rect_2,8,13,-1,-1,1.215,0.342568243,-0.390062953,1,0,0,1.1414,Pumice_rect,8,1.141,1,1,0,1,0,1,,,,,,,,,,,,,
59948cbdcf1d1700016efa45,TCR,2024-06-24_17h39.15.943,LearnStrategy,2023.2.3,MacIntel,60.24096386,8,1,3,-0.13979312,0.011600109,1,0,0,0.9487,rock_grid_rect_2,4,05,-1,-1,0.949,0.352828427,-0.244147135,1,0,0,2.0876,Gabbro_rect,4,2.088,1,2,0,2,0,1,,,,,,,,,,,,,
59948cbdcf1d1700016efa45,TCR,2024-06-24_17h39.15.943,LearnStrategy,2023.2.3,MacIntel,60.24096386,8,1,4,-0.00810233,-0.011531052,1,0,0,0.9477,rock_grid_rect_2,2,11,-1,-1,0.948,-0.17879162,-0.252813663,1,0,0,1.1585,Basalt_rect,2,1.159,1,3,0,3,0,1,,,,,,,,,,,,,
59948cbdcf1d1700016efa45,TCR,2024-06-24_17h39.15.943,LearnStrategy,2023.2.3,MacIntel,60.24096386,8,1,5,-0.028667167,0.00903611,1,0,0,0.7151,rock_grid_rect_2,7,16,-1,-1,0.715,0.108517718,-0.387723854,1,0,0,3.7809,Peridotite_rect,7,3.781,1,4,0,4,0,1,,,,,,,,,,,,,
59948cbdcf1d1700016efa45,TCR,2024-06-24_17h39.15.943,LearnStrategy,2023.2.3,MacIntel,60.24096386,8,1,6,-0.113737793,-0.013660307,1,0,0,0.7646,rock_grid_rect_2,4,03,-1,-1,0.765,0.430499093,-0.236268485,1,0,0,1.9406,Gabbro_rect,4,1.941,1,5,0,5,0,1,,,,,,,,,,,,,
59948cbdcf1d1700016efa45,TCR,2024-06-24_17h39.15.943,LearnStrategy,2023.2.3,MacIntel,60.24096386,8,1,7,-0.106369571,0.002564697,1,0,0,0.8489,rock_grid_rect_2,7,08,-1,-1,0.849,0.108044375,-0.402629511,1,0,0,1.8326,Peridotite_rect,7,1.833,1,6,0,6,0,1,,,,,,,,,,,,,
59948cbdcf1d1700016efa45,TCR,2024-06-24_17h39.15.943,LearnStrategy,2023.2.3,MacIntel,60.24096386,8,1,8,-0.042699847,0.000686849,1,0,0,0.7314,rock_grid_rect_2,4,13,-1,-1,0.731,0.364185733,-0.245115444,1,0,0,1.8417,Gabbro_rect,4,1.842,1,7,0,7,0,1,,,,,,,,,,,,,
59948cbdcf1d1700016efa45,TCR,2024-06-24_17h39.15.943,LearnStrategy,2023.2.3,MacIntel,60.24096386,8,1,9,-0.113084077,-0.007168783,1,0,0,0.8654,rock_grid_rect_2,6,16,-1,-1,0.865,-0.099768183,-0.410935291,1,0,0,1.0129,Pegmatite_rect,6,1.013,1,8,0,8,0,1,,,,,,,,,,,,,
59948cbdcf1d1700016efa45,TCR,2024-06-24_17h39.15.943,LearnStrategy,2023.2.3,MacIntel,60.24096386,8,1,10,-0.042833949,-0.016571452,1,0,0,0.8811,rock_grid_rect_2,2,04,-1,-1,0.881,-0.097002069,-0.246386486,1,0,0,1.0709,Basalt_rect,2,1.071,1,9,0,9,0,1,,,,,,,,,,,,,
59948cbdcf1d1700016efa45,TCR,2024-06-24_17h39.15.943,LearnStrategy,2023.2.3,MacIntel,60.24096386,8,1,11,-0.079646752,-0.006350563,1,0,0,0.8991,rock_grid_rect_2,6,12,-1,-1,0.899,-0.153506383,-0.390232457,1,0,0,1.8814,Pegmatite_rect,6,1.881,1,10,0,10,0,1,,,,,,,,,,,,,
59948cbdcf1d1700016efa45,TCR,2024-06-24_17h39.15.943,LearnStrategy,2023.2.3,MacIntel,60.24096386,8,1,12,-0.084754813,-0.007841448,1,0,0,0.7315,rock_grid_rect_2,6,16,-1,-1,0.732,-0.110882626,-0.394474633,1,0,0,1.2989,Pegmatite_rect,6,1.299,1,11,0,11,0,1,,,,,,,,,,,,,
59948cbdcf1d1700016efa45,TCR,2024-06-24_17h39.15.943,LearnStrategy,2023.2.3,MacIntel,60.24096386,8,1,13,-0.069152948,-0.020655343,1,0,0,0.781,rock_grid_rect_2,5,12,-1,-1,0.781,-0.365631539,-0.400455497,1,0,0,1.1626,Obsidian_rect,5,1.163,1,12,0,12,0,1,,,,,,,,,,,,,
59948cbdcf1d1700016efa45,TCR,2024-06-24_17h39.15.943,LearnStrategy,2023.2.3,MacIntel,60.24096386,8,1,14,-0.080390044,0.012914894,1,0,0,0.8827,rock_grid_rect_2,1,14,-1,-1,0.883,-0.348567621,-0.241864072,1,0,0,5.1635,Andesite_rect,1,5.164,1,13,0,13,0,1,,,,,,,,,,,,,
59948cbdcf1d1700016efa45,TCR,2024-06-24_17h39.15.943,LearnStrategy,2023.2.3,MacIntel,60.24096386,8,1,15,-0.028057222,0.007556501,1,0,0,0.9333,rock_grid_rect_2,1,07,-1,-1,0.933,-0.339615159,-0.254473238,1,0,0,1.1299,Andesite_rect,1,1.13,1,14,0,14,0,1,,,,,,,,,,,,,
59948cbdcf1d1700016efa45,TCR,2024-06-24_17h39.15.943,LearnStrategy,2023.2.3,MacIntel,60.24096386,8,1,16,-0.034660819,-0.013546026,1,0,0,0.8821,rock_grid_rect_2,3,08,-1,-1,0.882,0.09568621,-0.243313511,1,0,0,3.8236,Diorite_rect,3,3.824,1,15,0,15,0,1,,,,,,,,,,,,,
59948cbdcf1d1700016efa45,TCR,2024-06-24_17h39.15.943,LearnStrategy,2023.2.3,MacIntel,60.24096386,8,2,1,,,,,,,,8,06,,,,,,,,,,,8,1.957,1,,,,,,0.394315011,-0.395805606,1,0,0,1.9571,Pumice_rect,0,0,0,0,1,
59948cbdcf1d1700016efa45,TCR,2024-06-24_17h39.15.943,LearnStrategy,2023.2.3,MacIntel,60.24096386,8,2,2,,,,,,,,4,12,,,,,,,,,,,4,1.805,1,,,,,,0.342676711,-0.254916295,1,0,0,1.8046,Gabbro_rect,1,0,1,0,1,
59948cbdcf1d1700016efa45,TCR,2024-06-24_17h39.15.943,LearnStrategy,2023.2.3,MacIntel,60.24096386,8,2,3,,,,,,,,7,06,,,,,,,,,,,7,1.089,1,,,,,,0.145191592,-0.40402896,1,0,0,1.0889,Peridotite_rect,2,0,2,0,1,
59948cbdcf1d1700016efa45,TCR,2024-06-24_17h39.15.943,LearnStrategy,2023.2.3,MacIntel,60.24096386,8,2,4,,,,,,,,7,14,,,,,,,,,,,7,1.453,1,,,,,,0.145191592,-0.40402896,1,0,0,1.4527,Peridotite_rect,3,0,3,0,1,
59948cbdcf1d1700016efa45,TCR,2024-06-24_17h39.15.943,LearnStrategy,2023.2.3,MacIntel,60.24096386,8,2,5,,,,,,,,4,09,,,,,,,,,,,4,4.842,1,,,,,,0.339587286,-0.259860782,1,0,0,4.8424,Gabbro_rect,4,0,4,0,1,
59948cbdcf1d1700016efa45,TCR,2024-06-24_17h39.15.943,LearnStrategy,2023.2.3,MacIntel,60.24096386,8,2,6,,,,,,,,6,15,,,,,,,,,,,6,1.178,1,,,,,,-0.132050374,-0.407482329,1,0,0,1.1779,Pegmatite_rect,5,0,5,0,1,
59948cbdcf1d1700016efa45,TCR,2024-06-24_17h39.15.943,LearnStrategy,2023.2.3,MacIntel,60.24096386,8,2,7,,,,,,,,5,08,,,,,,,,,,,5,1.587,1,,,,,,-0.378618658,-0.396435779,1,0,0,1.5869,Obsidian_rect,6,0,6,0,1,
59948cbdcf1d1700016efa45,TCR,2024-06-24_17h39.15.943,LearnStrategy,2023.2.3,MacIntel,60.24096386,8,2,8,,,,,,,,1,02,,,,,,,,,,,1,2.675,1,,,,,,-0.358372977,-0.253486677,1,0,0,2.6747,Andesite_rect,7,0,7,0,1,
59948cbdcf1d1700016efa45,TCR,2024-06-24_17h39.15.943,LearnStrategy,2023.2.3,MacIntel,60.24096386,8,2,9,,,,,,,,8,05,,,,,,,,,,,8,2.234,1,,,,,,0.370503511,-0.399631813,1,0,0,2.2343,Pumice_rect,8,0,8,0,1,
59948cbdcf1d1700016efa45,TCR,2024-06-24_17h39.15.943,LearnStrategy,2023.2.3,MacIntel,60.24096386,8,2,10,,,,,,,,2,02,,,,,,,,,,,2,1.146,1,,,,,,-0.074636114,-0.249560372,1,0,0,1.1459,Basalt_rect,9,0,9,0,1,
59948cbdcf1d1700016efa45,TCR,2024-06-24_17h39.15.943,LearnStrategy,2023.2.3,MacIntel,60.24096386,8,2,11,,,,,,,,5,07,,,,,,,,,,,5,1.228,1,,,,,,-0.351740083,-0.387343517,1,0,0,1.2276,Obsidian_rect,10,0,10,0,1,
59948cbdcf1d1700016efa45,TCR,2024-06-24_17h39.15.943,LearnStrategy,2023.2.3,MacIntel,60.24096386,8,2,12,,,,,,,,2,09,,,,,,,,,,,2,1.471,1,,,,,,-0.124240025,-0.243895554,1,0,0,1.4712,Basalt_rect,11,0,11,0,1,
59948cbdcf1d1700016efa45,TCR,2024-06-24_17h39.15.943,LearnStrategy,2023.2.3,MacIntel,60.24096386,8,2,13,,,,,,,,6,08,,,,,,,,,,,6,1.327,1,,,,,,-0.112279053,-0.39464245,1,0,0,1.3267,Pegmatite_rect,12,0,12,0,1,
59948cbdcf1d1700016efa45,TCR,2024-06-24_17h39.15.943,LearnStrategy,2023.2.3,MacIntel,60.24096386,8,2,14,,,,,,,,3,11,,,,,,,,,,,3,1.678,1,,,,,,0.067620733,-0.261663063,1,0,0,1.6775,Diorite_rect,13,0,13,0,1,
59948cbdcf1d1700016efa45,TCR,2024-06-24_17h39.15.943,LearnStrategy,2023.2.3,MacIntel,60.24096386,8,2,15,,,,,,,,1,11,,,,,,,,,,,1,3.043,1,,,,,,-0.375594076,-0.255167934,1,0,0,3.0429,Andesite_rect,14,0,14,0,1,
59948cbdcf1d1700016efa45,TCR,2024-06-24_17h39.15.943,LearnStrategy,2023.2.3,MacIntel,60.24096386,8,2,16,,,,,,,,3,09,,,,,,,,,,,3,1.175,1,,,,,,0.088339727,-0.234675642,1,0,0,1.1747,Diorite_rect,15,0,15,0,1,
59948cbdcf1d1700016efa45,TCR,2024-06-24_17h39.15.943,LearnStrategy,2023.2.3,MacIntel,60.24096386,9,1,1,-0.12302124,-0.006764381,1,0,0,1.6334,rock_grid_rect_2,8,04,-1,-1,1.633,0.368829985,-0.409199219,1,0,0,1.9557,Pumice_rect,8,1.956,1,0,0,0,0,1,,,,,,,,,,,,,
59948cbdcf1d1700016efa45,TCR,2024-06-24_17h39.15.943,LearnStrategy,2023.2.3,MacIntel,60.24096386,9,1,2,-0.024712205,-0.011791411,1,0,0,0.9984,rock_grid_rect_2,4,03,-1,-1,0.998,0.35648763,-0.232256906,1,0,0,2.3515,Gabbro_rect,4,2.351,1,1,0,1,0,1,,,,,,,,,,,,,
59948cbdcf1d1700016efa45,TCR,2024-06-24_17h39.15.943,LearnStrategy,2023.2.3,MacIntel,60.24096386,9,1,3,-0.072449137,-0.004182768,1,0,0,0.8316,rock_grid_rect_2,4,11,-1,-1,0.832,0.368347866,-0.2298248,1,0,0,1.2747,Gabbro_rect,4,1.275,1,2,0,2,0,1,,,,,,,,,,,,,
59948cbdcf1d1700016efa45,TCR,2024-06-24_17h39.15.943,LearnStrategy,2023.2.3,MacIntel,60.24096386,9,1,4,-0.087953985,0.006812628,1,0,0,0.8652,rock_grid_rect_2,5,10,-1,-1,0.865,-0.391971784,-0.391442987,1,0,0,1.2037,Obsidian_rect,5,1.204,1,3,0,3,0,1,,,,,,,,,,,,,
59948cbdcf1d1700016efa45,TCR,2024-06-24_17h39.15.943,LearnStrategy,2023.2.3,MacIntel,60.24096386,9,1,5,-0.056761068,0.006917201,1,0,0,0.6155,rock_grid_rect_2,6,11,-1,-1,0.615,-0.111775716,-0.396772403,1,0,0,1.0326,Pegmatite_rect,6,1.033,1,4,0,4,0,1,,,,,,,,,,,,,
59948cbdcf1d1700016efa45,TCR,2024-06-24_17h39.15.943,LearnStrategy,2023.2.3,MacIntel,60.24096386,9,1,6,-0.047209647,-0.005682489,1,0,0,0.6322,rock_grid_rect_2,7,15,-1,-1,0.632,0.143280785,-0.410937849,1,0,0,0.9937,Peridotite_rect,7,0.994,1,5,0,5,0,1,,,,,,,,,,,,,
59948cbdcf1d1700016efa45,TCR,2024-06-24_17h39.15.943,LearnStrategy,2023.2.3,MacIntel,60.24096386,9,1,7,-0.104585368,-0.001116885,1,0,0,0.8311,rock_grid_rect_2,3,12,-1,-1,0.831,0.091129732,-0.26040289,1,0,0,2.6105,Diorite_rect,3,2.611,1,6,0,6,0,1,,,,,,,,,,,,,
59948cbdcf1d1700016efa45,TCR,2024-06-24_17h39.15.943,LearnStrategy,2023.2.3,MacIntel,60.24096386,9,1,8,-0.070711844,0.018479353,1,0,0,0.7656,rock_grid_rect_2,7,08,-1,-1,0.766,0.125760149,-0.400268206,1,0,0,1.4638,Peridotite_rect,7,1.464,1,7,0,7,0,1,,,,,,,,,,,,,
59948cbdcf1d1700016efa45,TCR,2024-06-24_17h39.15.943,LearnStrategy,2023.2.3,MacIntel,60.24096386,9,1,9,-0.072776286,-0.006902553,1,0,0,1.2984,rock_grid_rect_2,1,01,-1,-1,1.298,-0.372205287,-0.230732364,1,0,0,4.7798,Andesite_rect,1,4.78,1,8,0,8,0,1,,,,,,,,,,,,,
59948cbdcf1d1700016efa45,TCR,2024-06-24_17h39.15.943,LearnStrategy,2023.2.3,MacIntel,60.24096386,9,1,10,-0.031109735,-0.005508219,1,0,0,0.8642,rock_grid_rect_2,6,13,-1,-1,0.864,-0.115115386,-0.394941232,1,0,0,1.1265,Pegmatite_rect,6,1.127,1,9,0,9,0,1,,,,,,,,,,,,,
59948cbdcf1d1700016efa45,TCR,2024-06-24_17h39.15.943,LearnStrategy,2023.2.3,MacIntel,60.24096386,9,1,11,-0.061548142,-0.000874837,1,0,0,0.7157,rock_grid_rect_2,6,16,-1,-1,0.716,-0.151913946,-0.39771403,1,0,0,1.0782,Pegmatite_rect,6,1.078,1,10,0,10,0,1,,,,,,,,,,,,,
59948cbdcf1d1700016efa45,TCR,2024-06-24_17h39.15.943,LearnStrategy,2023.2.3,MacIntel,60.24096386,9,1,12,-0.065404053,0.013034203,1,0,0,0.766,rock_grid_rect_2,4,03,-1,-1,0.766,0.343441104,-0.236836461,1,0,0,1.912,Gabbro_rect,4,1.912,1,11,0,11,0,1,,,,,,,,,,,,,
59948cbdcf1d1700016efa45,TCR,2024-06-24_17h39.15.943,LearnStrategy,2023.2.3,MacIntel,60.24096386,9,1,13,-0.055640811,0.001980911,1,0,0,0.898,rock_grid_rect_2,1,05,-1,-1,0.898,-0.376620977,-0.240242281,1,0,0,1.5374,Andesite_rect,1,1.537,1,12,0,12,0,1,,,,,,,,,,,,,
59948cbdcf1d1700016efa45,TCR,2024-06-24_17h39.15.943,LearnStrategy,2023.2.3,MacIntel,60.24096386,9,1,14,-0.013127383,0.019212937,1,0,0,1.2829,rock_grid_rect_2,2,11,-1,-1,1.283,-0.096028588,-0.261972424,1,0,0,2.2316,Basalt_rect,2,2.232,1,13,0,13,0,1,,,,,,,,,,,,,
59948cbdcf1d1700016efa45,TCR,2024-06-24_17h39.15.943,LearnStrategy,2023.2.3,MacIntel,60.24096386,9,1,15,-0.020166655,-0.015773868,1,0,0,0.9328,rock_grid_rect_2,6,09,-1,-1,0.933,0.065292562,-0.396617257,1,0,0,2.1586,Peridotite_rect,7,2.159,0,14,0,14,0,1,,,,,,,,,,,,,
59948cbdcf1d1700016efa45,TCR,2024-06-24_17h39.15.943,LearnStrategy,2023.2.3,MacIntel,60.24096386,9,1,16,0.025091204,-0.006180885,1,0,0,1.0385,rock_grid_rect_2,2,14,-1,-1,1.038,0.327398391,-0.234599144,1,0,0,3.8092,Gabbro_rect,4,3.809,0,15,0,15,0,1,,,,,,,,,,,,,
59948cbdcf1d1700016efa45,TCR,2024-06-24_17h39.15.943,LearnStrategy,2023.2.3,MacIntel,60.24096386,9,2,1,,,,,,,,8,14,,,,,,,,,,,8,1.488,1,,,,,,0.327377348,-0.3827771,1,0,0,1.4885,Pumice_rect,0,0,0,0,1,
59948cbdcf1d1700016efa45,TCR,2024-06-24_17h39.15.943,LearnStrategy,2023.2.3,MacIntel,60.24096386,9,2,2,,,,,,,,6,06,,,,,,,,,,,6,3.66,1,,,,,,-0.108706403,-0.395680804,1,0,0,3.6599,Pegmatite_rect,1,0,1,0,1,
59948cbdcf1d1700016efa45,TCR,2024-06-24_17h39.15.943,LearnStrategy,2023.2.3,MacIntel,60.24096386,9,2,3,,,,,,,,2,08,,,,,,,,,,,2,1.12,1,,,,,,-0.144894148,-0.2518371,1,0,0,1.1205,Basalt_rect,2,0,2,0,1,
59948cbdcf1d1700016efa45,TCR,2024-06-24_17h39.15.943,LearnStrategy,2023.2.3,MacIntel,60.24096386,9,2,4,,,,,,,,7,05,,,,,,,,,,,7,1.133,1,,,,,,0.090572335,-0.407968692,1,0,0,1.1327,Peridotite_rect,3,0,3,0,1,
59948cbdcf1d1700016efa45,TCR,2024-06-24_17h39.15.943,LearnStrategy,2023.2.3,MacIntel,60.24096386,9,2,5,,,,,,,,4,08,,,,,,,,,,,4,3.341,1,,,,,,0.32078683,-0.261562384,1,0,0,3.3411,Gabbro_rect,4,0,4,0,1,
59948cbdcf1d1700016efa45,TCR,2024-06-24_17h39.15.943,LearnStrategy,2023.2.3,MacIntel,60.24096386,9,2,6,,,,,,,,6,05,,,,,,,,,,,6,1.177,1,,,,,,-0.125594599,-0.393226842,1,0,0,1.1772,Pegmatite_rect,5,0,5,0,1,
59948cbdcf1d1700016efa45,TCR,2024-06-24_17h39.15.943,LearnStrategy,2023.2.3,MacIntel,60.24096386,9,2,7,,,,,,,,1,06,,,,,,,,,,,1,1.23,1,,,,,,-0.328001447,-0.234623384,1,0,0,1.2298,Andesite_rect,6,0,6,0,1,
59948cbdcf1d1700016efa45,TCR,2024-06-24_17h39.15.943,LearnStrategy,2023.2.3,MacIntel,60.24096386,9,2,8,,,,,,,,3,15,,,,,,,,,,,3,2.379,1,,,,,,0.086312547,-0.242214181,1,0,0,2.3794,Diorite_rect,7,0,7,0,1,
59948cbdcf1d1700016efa45,TCR,2024-06-24_17h39.15.943,LearnStrategy,2023.2.3,MacIntel,60.24096386,9,2,9,,,,,,,,1,09,,,,,,,,,,,2,3.929,0,,,,,,-0.115867106,-0.248901309,1,0,0,3.9293,Basalt_rect,8,0,8,0,1,
59948cbdcf1d1700016efa45,TCR,2024-06-24_17h39.15.943,LearnStrategy,2023.2.3,MacIntel,60.24096386,9,2,10,,,,,,,,5,09,,,,,,,,,,,5,1.048,1,,,,,,-0.360947498,-0.403791678,1,0,0,1.048,Obsidian_rect,9,0,9,0,1,
59948cbdcf1d1700016efa45,TCR,2024-06-24_17h39.15.943,LearnStrategy,2023.2.3,MacIntel,60.24096386,9,2,11,,,,,,,,8,02,,,,,,,,,,,8,1.077,1,,,,,,0.418181734,-0.403726865,1,0,0,1.0767,Pumice_rect,10,0,10,0,1,
59948cbdcf1d1700016efa45,TCR,2024-06-24_17h39.15.943,LearnStrategy,2023.2.3,MacIntel,60.24096386,9,2,12,,,,,,,,2,16,,,,,,,,,,,4,1.711,0,,,,,,0.383269508,-0.270509324,1,0,0,1.7112,Gabbro_rect,11,0,11,0,1,
59948cbdcf1d1700016efa45,TCR,2024-06-24_17h39.15.943,LearnStrategy,2023.2.3,MacIntel,60.24096386,9,2,13,,,,,,,,7,04,,,,,,,,,,,6,1.195,0,,,,,,-0.081212158,-0.384650879,1,0,0,1.1954,Pegmatite_rect,12,0,12,0,1,
59948cbdcf1d1700016efa45,TCR,2024-06-24_17h39.15.943,LearnStrategy,2023.2.3,MacIntel,60.24096386,9,2,14,,,,,,,,4,14,,,,,,,,,,,4,1.716,1,,,,,,0.348925898,-0.249812477,1,0,0,1.7155,Gabbro_rect,13,0,13,0,1,
59948cbdcf1d1700016efa45,TCR,2024-06-24_17h39.15.943,LearnStrategy,2023.2.3,MacIntel,60.24096386,9,2,15,,,,,,,,3,14,,,,,,,,,,,3,1.029,1,,,,,,0.181197917,-0.252958287,1,0,0,1.0288,Diorite_rect,14,0,14,0,1,
59948cbdcf1d1700016efa45,TCR,2024-06-24_17h39.15.943,LearnStrategy,2023.2.3,MacIntel,60.24096386,9,2,16,,,,,,,,5,02,,,,,,,,,,,5,1.743,1,,,,,,-0.431203439,-0.409025646,1,0,0,1.743,Obsidian_rect,15,0,15,0,1,
59948cbdcf1d1700016efa45,TCR,2024-06-24_17h39.15.943,LearnStrategy,2023.2.3,MacIntel,60.24096386,,,,,,,,,,,,,,,,,,,,,,,,,,,,,,,,,,,,,,,,,,,1
59948cbdcf1d1700016efa45,TCR,2024-06-24_17h39.15.943,LearnStrategy,2023.2.3,MacIntel,60.24096386,,,,,,,,,,,,,,,,,,,,,,,,,,,,,,,,,,,,,,,,,,,
59948cbdcf1d1700016efa45,TCR,2024-06-24_17h39.15.943,LearnStrategy,2023.2.3,MacIntel,60.24096386,,,,,,,,,,,6,16,1,1,,,,,,,,,,,,,,,,,,,,,,,,,,,,,
59948cbdcf1d1700016efa45,TCR,2024-06-24_17h39.15.943,LearnStrategy,2023.2.3,MacIntel,60.24096386,,,,,,,,,,,1,07,1,2,,,,,,,,,,,,,,,,,,,,,,,,,,,,,
59948cbdcf1d1700016efa45,TCR,2024-06-24_17h39.15.943,LearnStrategy,2023.2.3,MacIntel,60.24096386,,,,,,,,,,,2,11,1,3,,,,,,,,,,,,,,,,,,,,,,,,,,,,,
59948cbdcf1d1700016efa45,TCR,2024-06-24_17h39.15.943,LearnStrategy,2023.2.3,MacIntel,60.24096386,,,,,,,,,,,1,14,1,4,,,,,,,,,,,,,,,,,,,,,,,,,,,,,
59948cbdcf1d1700016efa45,TCR,2024-06-24_17h39.15.943,LearnStrategy,2023.2.3,MacIntel,60.24096386,,,,,,,,,,,8,16,1,5,,,,,,,,,,,,,,,,,,,,,,,,,,,,,
59948cbdcf1d1700016efa45,TCR,2024-06-24_17h39.15.943,LearnStrategy,2023.2.3,MacIntel,60.24096386,,,,,,,,,,,4,05,1,6,,,,,,,,,,,,,,,,,,,,,,,,,,,,,
59948cbdcf1d1700016efa45,TCR,2024-06-24_17h39.15.943,LearnStrategy,2023.2.3,MacIntel,60.24096386,,,,,,,,,,,2,06,1,7,,,,,,,,,,,,,,,,,,,,,,,,,,,,,
59948cbdcf1d1700016efa45,TCR,2024-06-24_17h39.15.943,LearnStrategy,2023.2.3,MacIntel,60.24096386,,,,,,,,,,,6,11,1,8,,,,,,,,,,,,,,,,,,,,,,,,,,,,,
59948cbdcf1d1700016efa45,TCR,2024-06-24_17h39.15.943,LearnStrategy,2023.2.3,MacIntel,60.24096386,,,,,,,,,,,7,07,2,1,,,,,,,,,,,,,,,,,,,,,,,,,,,,,
59948cbdcf1d1700016efa45,TCR,2024-06-24_17h39.15.943,LearnStrategy,2023.2.3,MacIntel,60.24096386,,,,,,,,,,,5,05,2,2,,,,,,,,,,,,,,,,,,,,,,,,,,,,,
59948cbdcf1d1700016efa45,TCR,2024-06-24_17h39.15.943,LearnStrategy,2023.2.3,MacIntel,60.24096386,,,,,,,,,,,3,08,2,3,,,,,,,,,,,,,,,,,,,,,,,,,,,,,
59948cbdcf1d1700016efa45,TCR,2024-06-24_17h39.15.943,LearnStrategy,2023.2.3,MacIntel,60.24096386,,,,,,,,,,,5,06,2,4,,,,,,,,,,,,,,,,,,,,,,,,,,,,,
59948cbdcf1d1700016efa45,TCR,2024-06-24_17h39.15.943,LearnStrategy,2023.2.3,MacIntel,60.24096386,,,,,,,,,,,5,14,2,5,,,,,,,,,,,,,,,,,,,,,,,,,,,,,
59948cbdcf1d1700016efa45,TCR,2024-06-24_17h39.15.943,LearnStrategy,2023.2.3,MacIntel,60.24096386,,,,,,,,,,,5,04,2,6,,,,,,,,,,,,,,,,,,,,,,,,,,,,,
59948cbdcf1d1700016efa45,TCR,2024-06-24_17h39.15.943,LearnStrategy,2023.2.3,MacIntel,60.24096386,,,,,,,,,,,2,14,2,7,,,,,,,,,,,,,,,,,,,,,,,,,,,,,
59948cbdcf1d1700016efa45,TCR,2024-06-24_17h39.15.943,LearnStrategy,2023.2.3,MacIntel,60.24096386,,,,,,,,,,,7,10,2,8,,,,,,,,,,,,,,,,,,,,,,,,,,,,,
59948cbdcf1d1700016efa45,TCR,2024-06-24_17h39.15.943,LearnStrategy,2023.2.3,MacIntel,60.24096386,,,,,,,,,,,3,06,3,1,,,,,,,,,,,,,,,,,,,,,,,,,,,,,
59948cbdcf1d1700016efa45,TCR,2024-06-24_17h39.15.943,LearnStrategy,2023.2.3,MacIntel,60.24096386,,,,,,,,,,,2,10,3,2,,,,,,,,,,,,,,,,,,,,,,,,,,,,,
59948cbdcf1d1700016efa45,TCR,2024-06-24_17h39.15.943,LearnStrategy,2023.2.3,MacIntel,60.24096386,,,,,,,,,,,4,13,3,3,,,,,,,,,,,,,,,,,,,,,,,,,,,,,
59948cbdcf1d1700016efa45,TCR,2024-06-24_17h39.15.943,LearnStrategy,2023.2.3,MacIntel,60.24096386,,,,,,,,,,,3,07,3,4,,,,,,,,,,,,,,,,,,,,,,,,,,,,,
59948cbdcf1d1700016efa45,TCR,2024-06-24_17h39.15.943,LearnStrategy,2023.2.3,MacIntel,60.24096386,,,,,,,,,,,7,16,3,5,,,,,,,,,,,,,,,,,,,,,,,,,,,,,
59948cbdcf1d1700016efa45,TCR,2024-06-24_17h39.15.943,LearnStrategy,2023.2.3,MacIntel,60.24096386,,,,,,,,,,,3,02,3,6,,,,,,,,,,,,,,,,,,,,,,,,,,,,,
59948cbdcf1d1700016efa45,TCR,2024-06-24_17h39.15.943,LearnStrategy,2023.2.3,MacIntel,60.24096386,,,,,,,,,,,1,01,3,7,,,,,,,,,,,,,,,,,,,,,,,,,,,,,
59948cbdcf1d1700016efa45,TCR,2024-06-24_17h39.15.943,LearnStrategy,2023.2.3,MacIntel,60.24096386,,,,,,,,,,,4,01,3,8,,,,,,,,,,,,,,,,,,,,,,,,,,,,,
59948cbdcf1d1700016efa45,TCR,2024-06-24_17h39.15.943,LearnStrategy,2023.2.3,MacIntel,60.24096386,,,,,,,,,,,8,13,4,1,,,,,,,,,,,,,,,,,,,,,,,,,,,,,
59948cbdcf1d1700016efa45,TCR,2024-06-24_17h39.15.943,LearnStrategy,2023.2.3,MacIntel,60.24096386,,,,,,,,,,,6,13,4,2,,,,,,,,,,,,,,,,,,,,,,,,,,,,,
59948cbdcf1d1700016efa45,TCR,2024-06-24_17h39.15.943,LearnStrategy,2023.2.3,MacIntel,60.24096386,,,,,,,,,,,1,10,4,3,,,,,,,,,,,,,,,,,,,,,,,,,,,,,
59948cbdcf1d1700016efa45,TCR,2024-06-24_17h39.15.943,LearnStrategy,2023.2.3,MacIntel,60.24096386,,,,,,,,,,,6,03,4,4,,,,,,,,,,,,,,,,,,,,,,,,,,,,,
59948cbdcf1d1700016efa45,TCR,2024-06-24_17h39.15.943,LearnStrategy,2023.2.3,MacIntel,60.24096386,,,,,,,,,,,3,12,4,5,,,,,,,,,,,,,,,,,,,,,,,,,,,,,
59948cbdcf1d1700016efa45,TCR,2024-06-24_17h39.15.943,LearnStrategy,2023.2.3,MacIntel,60.24096386,,,,,,,,,,,7,08,4,6,,,,,,,,,,,,,,,,,,,,,,,,,,,,,
59948cbdcf1d1700016efa45,TCR,2024-06-24_17h39.15.943,LearnStrategy,2023.2.3,MacIntel,60.24096386,,,,,,,,,,,6,09,4,7,,,,,,,,,,,,,,,,,,,,,,,,,,,,,
59948cbdcf1d1700016efa45,TCR,2024-06-24_17h39.15.943,LearnStrategy,2023.2.3,MacIntel,60.24096386,,,,,,,,,,,8,04,4,8,,,,,,,,,,,,,,,,,,,,,,,,,,,,,
59948cbdcf1d1700016efa45,TCR,2024-06-24_17h39.15.943,LearnStrategy,2023.2.3,MacIntel,60.24096386,,,,,,,,,,,4,03,5,1,,,,,,,,,,,,,,,,,,,,,,,,,,,,,
59948cbdcf1d1700016efa45,TCR,2024-06-24_17h39.15.943,LearnStrategy,2023.2.3,MacIntel,60.24096386,,,,,,,,,,,1,03,5,2,,,,,,,,,,,,,,,,,,,,,,,,,,,,,
59948cbdcf1d1700016efa45,TCR,2024-06-24_17h39.15.943,LearnStrategy,2023.2.3,MacIntel,60.24096386,,,,,,,,,,,5,10,5,3,,,,,,,,,,,,,,,,,,,,,,,,,,,,,
59948cbdcf1d1700016efa45,TCR,2024-06-24_17h39.15.943,LearnStrategy,2023.2.3,MacIntel,60.24096386,,,,,,,,,,,1,05,5,4,,,,,,,,,,,,,,,,,,,,,,,,,,,,,
59948cbdcf1d1700016efa45,TCR,2024-06-24_17h39.15.943,LearnStrategy,2023.2.3,MacIntel,60.24096386,,,,,,,,,,,8,08,5,5,,,,,,,,,,,,,,,,,,,,,,,,,,,,,
59948cbdcf1d1700016efa45,TCR,2024-06-24_17h39.15.943,LearnStrategy,2023.2.3,MacIntel,60.24096386,,,,,,,,,,,2,01,5,6,,,,,,,,,,,,,,,,,,,,,,,,,,,,,
59948cbdcf1d1700016efa45,TCR,2024-06-24_17h39.15.943,LearnStrategy,2023.2.3,MacIntel,60.24096386,,,,,,,,,,,3,13,5,7,,,,,,,,,,,,,,,,,,,,,,,,,,,,,
59948cbdcf1d1700016efa45,TCR,2024-06-24_17h39.15.943,LearnStrategy,2023.2.3,MacIntel,60.24096386,,,,,,,,,,,8,15,5,8,,,,,,,,,,,,,,,,,,,,,,,,,,,,,
59948cbdcf1d1700016efa45,TCR,2024-06-24_17h39.15.943,LearnStrategy,2023.2.3,MacIntel,60.24096386,,,,,,,,,,,4,11,6,1,,,,,,,,,,,,,,,,,,,,,,,,,,,,,
59948cbdcf1d1700016efa45,TCR,2024-06-24_17h39.15.943,LearnStrategy,2023.2.3,MacIntel,60.24096386,,,,,,,,,,,8,03,6,2,,,,,,,,,,,,,,,,,,,,,,,,,,,,,
59948cbdcf1d1700016efa45,TCR,2024-06-24_17h39.15.943,LearnStrategy,2023.2.3,MacIntel,60.24096386,,,,,,,,,,,7,15,6,3,,,,,,,,,,,,,,,,,,,,,,,,,,,,,
59948cbdcf1d1700016efa45,TCR,2024-06-24_17h39.15.943,LearnStrategy,2023.2.3,MacIntel,60.24096386,,,,,,,,,,,6,12,6,4,,,,,,,,,,,,,,,,,,,,,,,,,,,,,
59948cbdcf1d1700016efa45,TCR,2024-06-24_17h39.15.943,LearnStrategy,2023.2.3,MacIntel,60.24096386,,,,,,,,,,,5,12,6,5,,,,,,,,,,,,,,,,,,,,,,,,,,,,,
59948cbdcf1d1700016efa45,TCR,2024-06-24_17h39.15.943,LearnStrategy,2023.2.3,MacIntel,60.24096386,,,,,,,,,,,2,04,6,6,,,,,,,,,,,,,,,,,,,,,,,,,,,,,
59948cbdcf1d1700016efa45,TCR,2024-06-24_17h39.15.943,LearnStrategy,2023.2.3,MacIntel,60.24096386,,,,,,,,,,,7,02,6,7,,,,,,,,,,,,,,,,,,,,,,,,,,,,,
59948cbdcf1d1700016efa45,TCR,2024-06-24_17h39.15.943,LearnStrategy,2023.2.3,MacIntel,60.24096386,,,,,,,,,,,4,15,6,8,,,,,,,,,,,,,,,,,,,,,,,,,,,,,