participant,condition,date,expName,psychopyVersion,OS,frameRate,block,phase,trial,learn_mouse_2.x,learn_mouse_2.y,learn_mouse_2.leftButton,learn_mouse_2.midButton,learn_mouse_2.rightButton,learn_mouse_2.time,learn_mouse_2.clicked_name,cat,token,row,col,t_select,cat_mouse_l.x,cat_mouse_l.y,cat_mouse_l.leftButton,cat_mouse_l.midButton,cat_mouse_l.rightButton,cat_mouse_l.time,cat_mouse_l.clicked_name,resp,t_resp,corr,train_trials.thisRepN,train_trials.thisTrialN,train_trials.thisN,train_trials.thisIndex,train_trials.ran,cat_mouse_t.x,cat_mouse_t.y,cat_mouse_t.leftButton,cat_mouse_t.midButton,cat_mouse_t.rightButton,cat_mouse_t.time,cat_mouse_t.clicked_name,test_trials.thisRepN,test_trials.thisTrialN,test_trials.thisN,test_trials.thisIndex,test_trials.ran,Bonus
59bc26d53a9ab60001119700,TCR,2024-06-25_11h40.53.823,LearnStrategy,2023.2.3,Win32,18.72659176,,,,,,,,,,,,,,,,,,,,,,,,,,,,,,,,,,,,,,,,,,,
59bc26d53a9ab60001119700,TCR,2024-06-25_11h40.53.823,LearnStrategy,2023.2.3,Win32,18.72659176,1,1,1,0.006481481,-0.002777778,1,0,0,2.3243,rock_grid_rect_2,3,13,-1,-1,2.324,-0.340740741,-0.402777778,1,0,0,7.3687,Obsidian_rect,5,7.369,0,0,0,0,0,1,,,,,,,,,,,,,
59bc26d53a9ab60001119700,TCR,2024-06-25_11h40.53.823,LearnStrategy,2023.2.3,Win32,18.72659176,1,1,2,0.167592593,-0.000925926,1,0,0,1.177,rock_grid_rect_2,8,16,-1,-1,1.177,0.32962963,-0.40462963,1,0,0,5.8278,Pumice_rect,8,5.828,1,1,0,1,0,1,,,,,,,,,,,,,
59bc26d53a9ab60001119700,TCR,2024-06-25_11h40.53.823,LearnStrategy,2023.2.3,Win32,18.72659176,1,1,3,0.12962963,-0.009259259,1,0,0,1.3364,rock_grid_rect_2,4,09,-1,-1,1.336,-0.393518519,-0.400925926,1,0,0,3.0369,Obsidian_rect,5,3.037,0,2,0,2,0,1,,,,,,,,,,,,,
59bc26d53a9ab60001119700,TCR,2024-06-25_11h40.53.823,LearnStrategy,2023.2.3,Win32,18.72659176,1,1,4,0.087037037,0.005555556,1,0,0,1.254,rock_grid_rect_2,6,07,-1,-1,1.254,-0.19537037,-0.235185185,1,0,0,4.7626,Basalt_rect,2,4.763,0,3,0,3,0,1,,,,,,,,,,,,,
59bc26d53a9ab60001119700,TCR,2024-06-25_11h40.53.823,LearnStrategy,2023.2.3,Win32,18.72659176,1,1,5,0.093518519,-0.008333333,1,0,0,1.2984,rock_grid_rect_2,3,09,-1,-1,1.298,-0.402777778,-0.403703704,1,0,0,3.5979,Obsidian_rect,5,3.598,0,4,0,4,0,1,,,,,,,,,,,,,
59bc26d53a9ab60001119700,TCR,2024-06-25_11h40.53.823,LearnStrategy,2023.2.3,Win32,18.72659176,1,1,6,0.108333333,-0.003703704,1,0,0,1.1632,rock_grid_rect_2,5,11,-1,-1,1.163,-0.380555556,-0.4,1,0,0,1.516,Obsidian_rect,5,1.516,1,5,0,5,0,1,,,,,,,,,,,,,
59bc26d53a9ab60001119700,TCR,2024-06-25_11h40.53.823,LearnStrategy,2023.2.3,Win32,18.72659176,1,1,7,0.063888889,-0.001851852,1,0,0,1.1971,rock_grid_rect_2,4,10,-1,-1,1.197,-0.386111111,-0.235185185,1,0,0,6.0508,Andesite_rect,1,6.051,0,6,0,6,0,1,,,,,,,,,,,,,
59bc26d53a9ab60001119700,TCR,2024-06-25_11h40.53.823,LearnStrategy,2023.2.3,Win32,18.72659176,1,1,8,0.007407407,-0.002777778,1,0,0,0.9593,rock_grid_rect_2,2,08,-1,-1,0.959,0.359259259,-0.266666667,1,0,0,4.3332,Gabbro_rect,4,4.333,0,7,0,7,0,1,,,,,,,,,,,,,
59bc26d53a9ab60001119700,TCR,2024-06-25_11h40.53.823,LearnStrategy,2023.2.3,Win32,18.72659176,1,1,9,0.035185185,-0.009259259,1,0,0,1.0155,rock_grid_rect_2,5,12,-1,-1,1.016,-0.394444444,-0.392592593,1,0,0,1.5157,Obsidian_rect,5,1.516,1,8,0,8,0,1,,,,,,,,,,,,,
59bc26d53a9ab60001119700,TCR,2024-06-25_11h40.53.823,LearnStrategy,2023.2.3,Win32,18.72659176,1,1,10,-0.047222222,0.010185185,1,0,0,0.9594,rock_grid_rect_2,1,05,-1,-1,0.959,0.09537037,-0.413888889,1,0,0,4.3859,Peridotite_rect,7,4.386,0,9,0,9,0,1,,,,,,,,,,,,,
59bc26d53a9ab60001119700,TCR,2024-06-25_11h40.53.823,LearnStrategy,2023.2.3,Win32,18.72659176,1,1,11,0.012962963,-0.003703704,1,0,0,0.9666,rock_grid_rect_2,6,12,-1,-1,0.967,-0.102777778,-0.400925926,1,0,0,5.4196,Pegmatite_rect,6,5.42,1,10,0,10,0,1,,,,,,,,,,,,,
59bc26d53a9ab60001119700,TCR,2024-06-25_11h40.53.823,LearnStrategy,2023.2.3,Win32,18.72659176,1,1,12,0.011111111,-0.000925926,1,0,0,1.033,rock_grid_rect_2,7,07,-1,-1,1.033,0.09537037,-0.402777778,1,0,0,2.2942,Peridotite_rect,7,2.294,1,11,0,11,0,1,,,,,,,,,,,,,
59bc26d53a9ab60001119700,TCR,2024-06-25_11h40.53.823,LearnStrategy,2023.2.3,Win32,18.72659176,1,1,13,0.112037037,-0.010185185,1,0,0,1.1056,rock_grid_rect_2,7,05,-1,-1,1.106,0.14537037,-0.385185185,1,0,0,2.9422,Peridotite_rect,7,2.942,1,12,0,12,0,1,,,,,,,,,,,,,
59bc26d53a9ab60001119700,TCR,2024-06-25_11h40.53.823,LearnStrategy,2023.2.3,Win32,18.72659176,1,1,14,0.137962963,-0.000925926,1,0,0,0.9355,rock_grid_rect_2,1,06,-1,-1,0.935,-0.385185185,-0.248148148,1,0,0,4.8758,Andesite_rect,1,4.876,1,13,0,13,0,1,,,,,,,,,,,,,
59bc26d53a9ab60001119700,TCR,2024-06-25_11h40.53.823,LearnStrategy,2023.2.3,Win32,18.72659176,1,1,15,0.037962963,-0.009259259,1,0,0,0.8715,rock_grid_rect_2,8,03,-1,-1,0.871,0.378703704,-0.391666667,1,0,0,1.3881,Pumice_rect,8,1.388,1,14,0,14,0,1,,,,,,,,,,,,,
59bc26d53a9ab60001119700,TCR,2024-06-25_11h40.53.823,LearnStrategy,2023.2.3,Win32,18.72659176,1,1,16,0.092592593,0.009259259,1,0,0,0.8501,rock_grid_rect_2,2,06,-1,-1,0.85,-0.337037037,-0.389814815,1,0,0,1.4814,Obsidian_rect,5,1.481,0,15,0,15,0,1,,,,,,,,,,,,,
59bc26d53a9ab60001119700,TCR,2024-06-25_11h40.53.823,LearnStrategy,2023.2.3,Win32,18.72659176,1,2,1,,,,,,,,2,09,,,,,,,,,,,2,7.002,1,,,,,,-0.109259259,-0.235185185,1,0,0,7.0025,Basalt_rect,0,0,0,0,1,
59bc26d53a9ab60001119700,TCR,2024-06-25_11h40.53.823,LearnStrategy,2023.2.3,Win32,18.72659176,1,2,2,,,,,,,,5,06,,,,,,,,,,,5,2.752,1,,,,,,-0.368518519,-0.394444444,1,0,0,2.7522,Obsidian_rect,1,0,1,0,1,
59bc26d53a9ab60001119700,TCR,2024-06-25_11h40.53.823,LearnStrategy,2023.2.3,Win32,18.72659176,1,2,3,,,,,,,,1,01,,,,,,,,,,,4,6.143,0,,,,,,0.361111111,-0.235185185,1,0,0,6.1427,Gabbro_rect,2,0,2,0,1,
59bc26d53a9ab60001119700,TCR,2024-06-25_11h40.53.823,LearnStrategy,2023.2.3,Win32,18.72659176,1,2,4,,,,,,,,7,14,,,,,,,,,,,7,2.568,1,,,,,,0.186111111,-0.401851852,1,0,0,2.5676,Peridotite_rect,3,0,3,0,1,
59bc26d53a9ab60001119700,TCR,2024-06-25_11h40.53.823,LearnStrategy,2023.2.3,Win32,18.72659176,1,2,5,,,,,,,,4,16,,,,,,,,,,,2,4.004,0,,,,,,-0.126851852,-0.257407407,1,0,0,4.0037,Basalt_rect,4,0,4,0,1,
59bc26d53a9ab60001119700,TCR,2024-06-25_11h40.53.823,LearnStrategy,2023.2.3,Win32,18.72659176,1,2,6,,,,,,,,6,09,,,,,,,,,,,7,5.416,0,,,,,,0.07962963,-0.406481481,1,0,0,5.4162,Peridotite_rect,5,0,5,0,1,
59bc26d53a9ab60001119700,TCR,2024-06-25_11h40.53.823,LearnStrategy,2023.2.3,Win32,18.72659176,1,2,7,,,,,,,,6,06,,,,,,,,,,,1,3.864,0,,,,,,-0.34537037,-0.244444444,1,0,0,3.8642,Andesite_rect,6,0,6,0,1,
59bc26d53a9ab60001119700,TCR,2024-06-25_11h40.53.823,LearnStrategy,2023.2.3,Win32,18.72659176,1,2,8,,,,,,,,8,05,,,,,,,,,,,8,1.288,1,,,,,,0.419444444,-0.397222222,1,0,0,1.2878,Pumice_rect,7,0,7,0,1,
59bc26d53a9ab60001119700,TCR,2024-06-25_11h40.53.823,LearnStrategy,2023.2.3,Win32,18.72659176,1,2,9,,,,,,,,4,03,,,,,,,,,,,4,7.464,1,,,,,,0.344444444,-0.234259259,1,0,0,7.4642,Gabbro_rect,8,0,8,0,1,
59bc26d53a9ab60001119700,TCR,2024-06-25_11h40.53.823,LearnStrategy,2023.2.3,Win32,18.72659176,1,2,10,,,,,,,,2,14,,,,,,,,,,,8,2.219,0,,,,,,0.372222222,-0.402777778,1,0,0,2.2187,Pumice_rect,9,0,9,0,1,
59bc26d53a9ab60001119700,TCR,2024-06-25_11h40.53.823,LearnStrategy,2023.2.3,Win32,18.72659176,1,2,11,,,,,,,,1,03,,,,,,,,,,,3,4.683,0,,,,,,0.083333333,-0.271296296,1,0,0,4.6835,Diorite_rect,10,0,10,0,1,
59bc26d53a9ab60001119700,TCR,2024-06-25_11h40.53.823,LearnStrategy,2023.2.3,Win32,18.72659176,1,2,12,,,,,,,,5,10,,,,,,,,,,,5,2.166,1,,,,,,-0.414814815,-0.403703704,1,0,0,2.1663,Obsidian_rect,11,0,11,0,1,
59bc26d53a9ab60001119700,TCR,2024-06-25_11h40.53.823,LearnStrategy,2023.2.3,Win32,18.72659176,1,2,13,,,,,,,,8,02,,,,,,,,,,,8,1.794,1,,,,,,0.415740741,-0.408333333,1,0,0,1.7942,Pumice_rect,12,0,12,0,1,
59bc26d53a9ab60001119700,TCR,2024-06-25_11h40.53.823,LearnStrategy,2023.2.3,Win32,18.72659176,1,2,14,,,,,,,,3,02,,,,,,,,,,,4,7.096,0,,,,,,0.463888889,-0.246296296,1,0,0,7.0964,Gabbro_rect,13,0,13,0,1,
59bc26d53a9ab60001119700,TCR,2024-06-25_11h40.53.823,LearnStrategy,2023.2.3,Win32,18.72659176,1,2,15,,,,,,,,3,12,,,,,,,,,,,1,6.785,0,,,,,,-0.414814815,-0.238888889,1,0,0,6.7848,Andesite_rect,14,0,14,0,1,
59bc26d53a9ab60001119700,TCR,2024-06-25_11h40.53.823,LearnStrategy,2023.2.3,Win32,18.72659176,1,2,16,,,,,,,,7,16,,,,,,,,,,,7,2.405,1,,,,,,0.10462963,-0.403703704,1,0,0,2.4049,Peridotite_rect,15,0,15,0,1,
59bc26d53a9ab60001119700,TCR,2024-06-25_11h40.53.823,LearnStrategy,2023.2.3,Win32,18.72659176,2,1,1,0.147222222,0.00462963,1,0,0,1.3029,rock_grid_rect_2,3,14,-1,-1,1.303,0.333333333,-0.259259259,1,0,0,8.0608,Gabbro_rect,4,8.061,0,0,0,0,0,1,,,,,,,,,,,,,
59bc26d53a9ab60001119700,TCR,2024-06-25_11h40.53.823,LearnStrategy,2023.2.3,Win32,18.72659176,2,1,2,0.042592593,-0.001851852,1,0,0,1.1705,rock_grid_rect_2,6,12,-1,-1,1.171,0.359259259,-0.25462963,1,0,0,3.2085,Gabbro_rect,4,3.209,0,1,0,1,0,1,,,,,,,,,,,,,
59bc26d53a9ab60001119700,TCR,2024-06-25_11h40.53.823,LearnStrategy,2023.2.3,Win32,18.72659176,2,1,3,0.105555556,0.012962963,1,0,0,1.0159,rock_grid_rect_2,2,16,-1,-1,1.016,-0.40462963,-0.230555556,1,0,0,3.3673,Andesite_rect,1,3.367,0,2,0,2,0,1,,,,,,,,,,,,,
59bc26d53a9ab60001119700,TCR,2024-06-25_11h40.53.823,LearnStrategy,2023.2.3,Win32,18.72659176,2,1,4,0.05462963,-0.003703704,1,0,0,0.8725,rock_grid_rect_2,7,15,-1,-1,0.873,0.112037037,-0.411111111,1,0,0,1.399,Peridotite_rect,7,1.399,1,3,0,3,0,1,,,,,,,,,,,,,
59bc26d53a9ab60001119700,TCR,2024-06-25_11h40.53.823,LearnStrategy,2023.2.3,Win32,18.72659176,2,1,5,-0.035185185,-0.010185185,1,0,0,1.1677,rock_grid_rect_2,4,01,-1,-1,1.168,-0.117592593,-0.389814815,1,0,0,2.0952,Pegmatite_rect,6,2.095,0,4,0,4,0,1,,,,,,,,,,,,,
59bc26d53a9ab60001119700,TCR,2024-06-25_11h40.53.823,LearnStrategy,2023.2.3,Win32,18.72659176,2,1,6,0.093518519,0.024074074,1,0,0,0.8887,rock_grid_rect_2,1,04,-1,-1,0.889,-0.111111111,-0.387962963,1,0,0,7.0501,Pegmatite_rect,6,7.05,0,5,0,5,0,1,,,,,,,,,,,,,
59bc26d53a9ab60001119700,TCR,2024-06-25_11h40.53.823,LearnStrategy,2023.2.3,Win32,18.72659176,2,1,7,0.053703704,0.014814815,1,0,0,0.8654,rock_grid_rect_2,8,13,-1,-1,0.865,0.342592593,-0.386111111,1,0,0,1.6912,Pumice_rect,8,1.691,1,6,0,6,0,1,,,,,,,,,,,,,
59bc26d53a9ab60001119700,TCR,2024-06-25_11h40.53.823,LearnStrategy,2023.2.3,Win32,18.72659176,2,1,8,0.056481481,-0.012037037,1,0,0,0.8545,rock_grid_rect_2,4,09,-1,-1,0.855,-0.150925926,-0.240740741,1,0,0,3.644,Basalt_rect,2,3.644,0,7,0,7,0,1,,,,,,,,,,,,,
59bc26d53a9ab60001119700,TCR,2024-06-25_11h40.53.823,LearnStrategy,2023.2.3,Win32,18.72659176,2,1,9,0.055555556,0.011111111,1,0,0,0.8126,rock_grid_rect_2,6,10,-1,-1,0.813,0.097222222,-0.408333333,1,0,0,1.6178,Peridotite_rect,7,1.618,0,8,0,8,0,1,,,,,,,,,,,,,
59bc26d53a9ab60001119700,TCR,2024-06-25_11h40.53.823,LearnStrategy,2023.2.3,Win32,18.72659176,2,1,10,0.090740741,0.00462963,1,0,0,1.0199,rock_grid_rect_2,3,16,-1,-1,1.02,0.147222222,-0.247222222,1,0,0,1.7856,Diorite_rect,3,1.786,1,9,0,9,0,1,,,,,,,,,,,,,
59bc26d53a9ab60001119700,TCR,2024-06-25_11h40.53.823,LearnStrategy,2023.2.3,Win32,18.72659176,2,1,11,0.116666667,-0.001851852,1,0,0,0.9399,rock_grid_rect_2,3,07,-1,-1,0.94,-0.128703704,-0.398148148,1,0,0,5.1266,Pegmatite_rect,6,5.127,0,10,0,10,0,1,,,,,,,,,,,,,
59bc26d53a9ab60001119700,TCR,2024-06-25_11h40.53.823,LearnStrategy,2023.2.3,Win32,18.72659176,2,1,12,0.061111111,-0.017592593,1,0,0,1.1114,rock_grid_rect_2,6,03,-1,-1,1.111,-0.125,-0.409259259,1,0,0,2.4107,Pegmatite_rect,6,2.411,1,11,0,11,0,1,,,,,,,,,,,,,
59bc26d53a9ab60001119700,TCR,2024-06-25_11h40.53.823,LearnStrategy,2023.2.3,Win32,18.72659176,2,1,13,0.035185185,-0.00462963,1,0,0,0.89,rock_grid_rect_2,1,14,-1,-1,0.89,0.10462963,-0.256481481,1,0,0,3.6107,Diorite_rect,3,3.611,0,12,0,12,0,1,,,,,,,,,,,,,
59bc26d53a9ab60001119700,TCR,2024-06-25_11h40.53.823,LearnStrategy,2023.2.3,Win32,18.72659176,2,1,14,0.087037037,0.002777778,1,0,0,0.744,rock_grid_rect_2,2,08,-1,-1,0.744,-0.126851852,-0.243518519,1,0,0,1.5235,Basalt_rect,2,1.524,1,13,0,13,0,1,,,,,,,,,,,,,
59bc26d53a9ab60001119700,TCR,2024-06-25_11h40.53.823,LearnStrategy,2023.2.3,Win32,18.72659176,2,1,15,-0.013888889,-0.001851852,1,0,0,0.9024,rock_grid_rect_2,1,10,-1,-1,0.902,-0.416666667,-0.253703704,1,0,0,4.2487,Andesite_rect,1,4.249,1,14,0,14,0,1,,,,,,,,,,,,,
59bc26d53a9ab60001119700,TCR,2024-06-25_11h40.53.823,LearnStrategy,2023.2.3,Win32,18.72659176,2,1,16,0.036111111,-0.019444444,1,0,0,0.8527,rock_grid_rect_2,1,16,-1,-1,0.853,0.119444444,-0.251851852,1,0,0,4.6643,Diorite_rect,3,4.664,0,15,0,15,0,1,,,,,,,,,,,,,
59bc26d53a9ab60001119700,TCR,2024-06-25_11h40.53.823,LearnStrategy,2023.2.3,Win32,18.72659176,2,2,1,,,,,,,,4,08,,,,,,,,,,,1,3.549,0,,,,,,-0.356481481,-0.259259259,1,0,0,3.5489,Andesite_rect,0,0,0,0,1,
59bc26d53a9ab60001119700,TCR,2024-06-25_11h40.53.823,LearnStrategy,2023.2.3,Win32,18.72659176,2,2,2,,,,,,,,2,02,,,,,,,,,,,2,1.839,1,,,,,,-0.153703704,-0.25,1,0,0,1.8393,Basalt_rect,1,0,1,0,1,
59bc26d53a9ab60001119700,TCR,2024-06-25_11h40.53.823,LearnStrategy,2023.2.3,Win32,18.72659176,2,2,3,,,,,,,,8,14,,,,,,,,,,,8,1.316,1,,,,,,0.391666667,-0.390740741,1,0,0,1.3164,Pumice_rect,2,0,2,0,1,
59bc26d53a9ab60001119700,TCR,2024-06-25_11h40.53.823,LearnStrategy,2023.2.3,Win32,18.72659176,2,2,4,,,,,,,,5,07,,,,,,,,,,,5,1.262,1,,,,,,-0.377777778,-0.390740741,1,0,0,1.2618,Obsidian_rect,3,0,3,0,1,
59bc26d53a9ab60001119700,TCR,2024-06-25_11h40.53.823,LearnStrategy,2023.2.3,Win32,18.72659176,2,2,5,,,,,,,,7,02,,,,,,,,,,,7,1.318,1,,,,,,0.132407407,-0.4,1,0,0,1.3181,Peridotite_rect,4,0,4,0,1,
59bc26d53a9ab60001119700,TCR,2024-06-25_11h40.53.823,LearnStrategy,2023.2.3,Win32,18.72659176,2,2,6,,,,,,,,8,06,,,,,,,,,,,8,1.269,1,,,,,,0.365740741,-0.402777778,1,0,0,1.2692,Pumice_rect,5,0,5,0,1,
59bc26d53a9ab60001119700,TCR,2024-06-25_11h40.53.823,LearnStrategy,2023.2.3,Win32,18.72659176,2,2,7,,,,,,,,4,05,,,,,,,,,,,6,4.564,0,,,,,,-0.148148148,-0.399074074,1,0,0,4.5641,Pegmatite_rect,6,0,6,0,1,
59bc26d53a9ab60001119700,TCR,2024-06-25_11h40.53.823,LearnStrategy,2023.2.3,Win32,18.72659176,2,2,8,,,,,,,,6,13,,,,,,,,,,,6,5.615,1,,,,,,-0.188888889,-0.412962963,1,0,0,5.6146,Pegmatite_rect,7,0,7,0,1,
59bc26d53a9ab60001119700,TCR,2024-06-25_11h40.53.823,LearnStrategy,2023.2.3,Win32,18.72659176,2,2,9,,,,,,,,7,10,,,,,,,,,,,7,1.302,1,,,,,,0.105555556,-0.389814815,1,0,0,1.302,Peridotite_rect,8,0,8,0,1,
59bc26d53a9ab60001119700,TCR,2024-06-25_11h40.53.823,LearnStrategy,2023.2.3,Win32,18.72659176,2,2,10,,,,,,,,1,07,,,,,,,,,,,3,1.65,0,,,,,,0.09537037,-0.244444444,1,0,0,1.6501,Diorite_rect,9,0,9,0,1,
59bc26d53a9ab60001119700,TCR,2024-06-25_11h40.53.823,LearnStrategy,2023.2.3,Win32,18.72659176,2,2,11,,,,,,,,2,11,,,,,,,,,,,1,3.564,0,,,,,,-0.400925926,-0.259259259,1,0,0,3.5643,Andesite_rect,10,0,10,0,1,
59bc26d53a9ab60001119700,TCR,2024-06-25_11h40.53.823,LearnStrategy,2023.2.3,Win32,18.72659176,2,2,12,,,,,,,,5,16,,,,,,,,,,,5,1.858,1,,,,,,-0.373148148,-0.418518519,1,0,0,1.8585,Obsidian_rect,11,0,11,0,1,
59bc26d53a9ab60001119700,TCR,2024-06-25_11h40.53.823,LearnStrategy,2023.2.3,Win32,18.72659176,2,2,13,,,,,,,,6,08,,,,,,,,,,,6,4.522,1,,,,,,-0.12962963,-0.396296296,1,0,0,4.5215,Pegmatite_rect,12,0,12,0,1,
59bc26d53a9ab60001119700,TCR,2024-06-25_11h40.53.823,LearnStrategy,2023.2.3,Win32,18.72659176,2,2,14,,,,,,,,3,15,,,,,,,,,,,3,3.041,1,,,,,,0.112962963,-0.241666667,1,0,0,3.0414,Diorite_rect,13,0,13,0,1,
59bc26d53a9ab60001119700,TCR,2024-06-25_11h40.53.823,LearnStrategy,2023.2.3,Win32,18.72659176,2,2,15,,,,,,,,1,11,,,,,,,,,,,1,2.857,1,,,,,,-0.353703704,-0.239814815,1,0,0,2.8567,Andesite_rect,14,0,14,0,1,
59bc26d53a9ab60001119700,TCR,2024-06-25_11h40.53.823,LearnStrategy,2023.2.3,Win32,18.72659176,2,2,16,,,,,,,,3,11,,,,,,,,,,,6,3.737,0,,,,,,-0.093518519,-0.397222222,1,0,0,3.7371,Pegmatite_rect,15,0,15,0,1,
59bc26d53a9ab60001119700,TCR,2024-06-25_11h40.53.823,LearnStrategy,2023.2.3,Win32,18.72659176,3,1,1,0.157407407,-0.008333333,1,0,0,1.2682,rock_grid_rect_2,1,16,-1,-1,1.268,-0.427777778,-0.239814815,1,0,0,2.6895,Andesite_rect,1,2.69,1,0,0,0,0,1,,,,,,,,,,,,,
59bc26d53a9ab60001119700,TCR,2024-06-25_11h40.53.823,LearnStrategy,2023.2.3,Win32,18.72659176,3,1,2,-0.025,-0.002777778,1,0,0,1.0178,rock_grid_rect_2,2,10,-1,-1,1.018,-0.156481481,-0.244444444,1,0,0,2.2299,Basalt_rect,2,2.23,1,1,0,1,0,1,,,,,,,,,,,,,
59bc26d53a9ab60001119700,TCR,2024-06-25_11h40.53.823,LearnStrategy,2023.2.3,Win32,18.72659176,3,1,3,0.022222222,-0.002777778,1,0,0,1.0423,rock_grid_rect_2,4,09,-1,-1,1.042,0.34537037,-0.27037037,1,0,0,5.848,Gabbro_rect,4,5.848,1,2,0,2,0,1,,,,,,,,,,,,,
59bc26d53a9ab60001119700,TCR,2024-06-25_11h40.53.823,LearnStrategy,2023.2.3,Win32,18.72659176,3,1,4,0.072222222,-0.001851852,1,0,0,1.1737,rock_grid_rect_2,3,06,-1,-1,1.174,0.125925926,-0.249074074,1,0,0,2.8423,Diorite_rect,3,2.842,1,3,0,3,0,1,,,,,,,,,,,,,
59bc26d53a9ab60001119700,TCR,2024-06-25_11h40.53.823,LearnStrategy,2023.2.3,Win32,18.72659176,3,1,5,0.037962963,-0.009259259,1,0,0,0.8858,rock_grid_rect_2,8,15,-1,-1,0.886,0.360185185,-0.415740741,1,0,0,1.1182,Pumice_rect,8,1.118,1,4,0,4,0,1,,,,,,,,,,,,,
59bc26d53a9ab60001119700,TCR,2024-06-25_11h40.53.823,LearnStrategy,2023.2.3,Win32,18.72659176,3,1,6,0.132407407,-0.008333333,1,0,0,0.8726,rock_grid_rect_2,6,03,-1,-1,0.873,-0.116666667,-0.394444444,1,0,0,1.9581,Pegmatite_rect,6,1.958,1,5,0,5,0,1,,,,,,,,,,,,,
59bc26d53a9ab60001119700,TCR,2024-06-25_11h40.53.823,LearnStrategy,2023.2.3,Win32,18.72659176,3,1,7,0.088888889,-0.006481481,1,0,0,0.9291,rock_grid_rect_2,4,10,-1,-1,0.929,0.325925926,-0.240740741,1,0,0,4.7114,Gabbro_rect,4,4.711,1,6,0,6,0,1,,,,,,,,,,,,,
59bc26d53a9ab60001119700,TCR,2024-06-25_11h40.53.823,LearnStrategy,2023.2.3,Win32,18.72659176,3,1,8,0.047222222,-0.002777778,1,0,0,1.268,rock_grid_rect_2,1,10,-1,-1,1.268,-0.362962963,-0.237037037,1,0,0,1.4332,Andesite_rect,1,1.433,1,7,0,7,0,1,,,,,,,,,,,,,
59bc26d53a9ab60001119700,TCR,2024-06-25_11h40.53.823,LearnStrategy,2023.2.3,Win32,18.72659176,3,1,9,0.051851852,0.009259259,1,0,0,0.8542,rock_grid_rect_2,3,06,-1,-1,0.854,0.102777778,-0.241666667,1,0,0,1.5812,Diorite_rect,3,1.581,1,8,0,8,0,1,,,,,,,,,,,,,
59bc26d53a9ab60001119700,TCR,2024-06-25_11h40.53.823,LearnStrategy,2023.2.3,Win32,18.72659176,3,1,10,0.017592593,-0.000925926,1,0,0,0.9645,rock_grid_rect_2,6,03,-1,-1,0.965,-0.082407407,-0.390740741,1,0,0,3.4902,Pegmatite_rect,6,3.49,1,9,0,9,0,1,,,,,,,,,,,,,
59bc26d53a9ab60001119700,TCR,2024-06-25_11h40.53.823,LearnStrategy,2023.2.3,Win32,18.72659176,3,1,11,0.015740741,-0.018518519,1,0,0,1.0115,rock_grid_rect_2,7,12,-1,-1,1.011,0.109259259,-0.402777778,1,0,0,1.493,Peridotite_rect,7,1.493,1,10,0,10,0,1,,,,,,,,,,,,,
59bc26d53a9ab60001119700,TCR,2024-06-25_11h40.53.823,LearnStrategy,2023.2.3,Win32,18.72659176,3,1,12,0.038888889,0.005555556,1,0,0,0.948,rock_grid_rect_2,4,01,-1,-1,0.948,-0.427777778,-0.261111111,1,0,0,3.4802,Andesite_rect,1,3.48,0,11,0,11,0,1,,,,,,,,,,,,,
59bc26d53a9ab60001119700,TCR,2024-06-25_11h40.53.823,LearnStrategy,2023.2.3,Win32,18.72659176,3,1,13,0.087962963,-0.002777778,1,0,0,1.2313,rock_grid_rect_2,3,14,-1,-1,1.231,0.12962963,-0.240740741,1,0,0,1.3983,Diorite_rect,3,1.398,1,12,0,12,0,1,,,,,,,,,,,,,
59bc26d53a9ab60001119700,TCR,2024-06-25_11h40.53.823,LearnStrategy,2023.2.3,Win32,18.72659176,3,1,14,0.058333333,-0.018518519,1,0,0,1.0028,rock_grid_rect_2,4,13,-1,-1,1.003,-0.384259259,-0.262962963,1,0,0,2.7131,Andesite_rect,1,2.713,0,13,0,13,0,1,,,,,,,,,,,,,
59bc26d53a9ab60001119700,TCR,2024-06-25_11h40.53.823,LearnStrategy,2023.2.3,Win32,18.72659176,3,1,15,0.096296296,-0.005555556,1,0,0,1.4771,rock_grid_rect_2,1,10,-1,-1,1.477,-0.351851852,-0.246296296,1,0,0,1.3491,Andesite_rect,1,1.349,1,14,0,14,0,1,,,,,,,,,,,,,
59bc26d53a9ab60001119700,TCR,2024-06-25_11h40.53.823,LearnStrategy,2023.2.3,Win32,18.72659176,3,1,16,0.157407407,0.015740741,1,0,0,0.7383,rock_grid_rect_2,2,06,-1,-1,0.738,-0.124074074,-0.247222222,1,0,0,1.2062,Basalt_rect,2,1.206,1,15,0,15,0,1,,,,,,,,,,,,,
59bc26d53a9ab60001119700,TCR,2024-06-25_11h40.53.823,LearnStrategy,2023.2.3,Win32,18.72659176,3,2,1,,,,,,,,3,10,,,,,,,,,,,3,6.894,1,,,,,,0.14537037,-0.247222222,1,0,0,6.8939,Diorite_rect,0,0,0,0,1,
59bc26d53a9ab60001119700,TCR,2024-06-25_11h40.53.823,LearnStrategy,2023.2.3,Win32,18.72659176,3,2,2,,,,,,,,1,02,,,,,,,,,,,1,8.061,1,,,,,,-0.350925926,-0.237962963,1,0,0,8.0608,Andesite_rect,1,0,1,0,1,
59bc26d53a9ab60001119700,TCR,2024-06-25_11h40.53.823,LearnStrategy,2023.2.3,Win32,18.72659176,3,2,3,,,,,,,,8,04,,,,,,,,,,,8,1.234,1,,,,,,0.353703704,-0.391666667,1,0,0,1.2341,Pumice_rect,2,0,2,0,1,
59bc26d53a9ab60001119700,TCR,2024-06-25_11h40.53.823,LearnStrategy,2023.2.3,Win32,18.72659176,3,2,4,,,,,,,,6,16,,,,,,,,,,,6,3.892,1,,,,,,-0.081481481,-0.415740741,1,0,0,3.8924,Pegmatite_rect,3,0,3,0,1,
59bc26d53a9ab60001119700,TCR,2024-06-25_11h40.53.823,LearnStrategy,2023.2.3,Win32,18.72659176,3,2,5,,,,,,,,5,08,,,,,,,,,,,5,1.301,1,,,,,,-0.340740741,-0.409259259,1,0,0,1.3007,Obsidian_rect,4,0,4,0,1,
59bc26d53a9ab60001119700,TCR,2024-06-25_11h40.53.823,LearnStrategy,2023.2.3,Win32,18.72659176,3,2,6,,,,,,,,4,11,,,,,,,,,,,4,2.171,1,,,,,,0.359259259,-0.233333333,1,0,0,2.1709,Gabbro_rect,5,0,5,0,1,
59bc26d53a9ab60001119700,TCR,2024-06-25_11h40.53.823,LearnStrategy,2023.2.3,Win32,18.72659176,3,2,7,,,,,,,,2,01,,,,,,,,,,,2,1.616,1,,,,,,-0.178703704,-0.250925926,1,0,0,1.6162,Basalt_rect,6,0,6,0,1,
59bc26d53a9ab60001119700,TCR,2024-06-25_11h40.53.823,LearnStrategy,2023.2.3,Win32,18.72659176,3,2,8,,,,,,,,1,09,,,,,,,,,,,1,3.122,1,,,,,,-0.346296296,-0.230555556,1,0,0,3.1216,Andesite_rect,7,0,7,0,1,
59bc26d53a9ab60001119700,TCR,2024-06-25_11h40.53.823,LearnStrategy,2023.2.3,Win32,18.72659176,3,2,9,,,,,,,,8,08,,,,,,,,,,,8,1.387,1,,,,,,0.35,-0.402777778,1,0,0,1.3874,Pumice_rect,8,0,8,0,1,
59bc26d53a9ab60001119700,TCR,2024-06-25_11h40.53.823,LearnStrategy,2023.2.3,Win32,18.72659176,3,2,10,,,,,,,,2,04,,,,,,,,,,,2,2.188,1,,,,,,-0.1,-0.236111111,1,0,0,2.1876,Basalt_rect,9,0,9,0,1,
59bc26d53a9ab60001119700,TCR,2024-06-25_11h40.53.823,LearnStrategy,2023.2.3,Win32,18.72659176,3,2,11,,,,,,,,7,06,,,,,,,,,,,6,5.047,0,,,,,,-0.075,-0.392592593,1,0,0,5.0474,Pegmatite_rect,10,0,10,0,1,
59bc26d53a9ab60001119700,TCR,2024-06-25_11h40.53.823,LearnStrategy,2023.2.3,Win32,18.72659176,3,2,12,,,,,,,,6,05,,,,,,,,,,,6,1.841,1,,,,,,-0.102777778,-0.403703704,1,0,0,1.8405,Pegmatite_rect,11,0,11,0,1,
59bc26d53a9ab60001119700,TCR,2024-06-25_11h40.53.823,LearnStrategy,2023.2.3,Win32,18.72659176,3,2,13,,,,,,,,7,08,,,,,,,,,,,7,1.564,1,,,,,,0.098148148,-0.4,1,0,0,1.5642,Peridotite_rect,12,0,12,0,1,
59bc26d53a9ab60001119700,TCR,2024-06-25_11h40.53.823,LearnStrategy,2023.2.3,Win32,18.72659176,3,2,14,,,,,,,,3,08,,,,,,,,,,,3,1.765,1,,,,,,0.128703704,-0.249074074,1,0,0,1.7654,Diorite_rect,13,0,13,0,1,
59bc26d53a9ab60001119700,TCR,2024-06-25_11h40.53.823,LearnStrategy,2023.2.3,Win32,18.72659176,3,2,15,,,,,,,,5,09,,,,,,,,,,,5,1.193,1,,,,,,-0.377777778,-0.384259259,1,0,0,1.1933,Obsidian_rect,14,0,14,0,1,
59bc26d53a9ab60001119700,TCR,2024-06-25_11h40.53.823,LearnStrategy,2023.2.3,Win32,18.72659176,3,2,16,,,,,,,,4,15,,,,,,,,,,,4,2.114,1,,,,,,0.346296296,-0.255555556,1,0,0,2.1137,Gabbro_rect,15,0,15,0,1,
59bc26d53a9ab60001119700,TCR,2024-06-25_11h40.53.823,LearnStrategy,2023.2.3,Win32,18.72659176,4,1,1,0.15,0.006481481,1,0,0,1.2937,rock_grid_rect_2,3,13,-1,-1,1.294,0.167592593,-0.256481481,1,0,0,1.4079,Diorite_rect,3,1.408,1,0,0,0,0,1,,,,,,,,,,,,,
59bc26d53a9ab60001119700,TCR,2024-06-25_11h40.53.823,LearnStrategy,2023.2.3,Win32,18.72659176,4,1,2,0.12962963,0.001851852,1,0,0,0.8746,rock_grid_rect_2,6,11,-1,-1,0.875,-0.127777778,-0.397222222,1,0,0,3.3694,Pegmatite_rect,6,3.369,1,1,0,1,0,1,,,,,,,,,,,,,
59bc26d53a9ab60001119700,TCR,2024-06-25_11h40.53.823,LearnStrategy,2023.2.3,Win32,18.72659176,4,1,3,0.025,0.006481481,1,0,0,1.0208,rock_grid_rect_2,1,06,-1,-1,1.021,-0.328703704,-0.243518519,1,0,0,3.0958,Andesite_rect,1,3.096,1,2,0,2,0,1,,,,,,,,,,,,,
59bc26d53a9ab60001119700,TCR,2024-06-25_11h40.53.823,LearnStrategy,2023.2.3,Win32,18.72659176,4,1,4,0.064814815,-0.001851852,1,0,0,0.8766,rock_grid_rect_2,2,12,-1,-1,0.877,0.35462963,-0.235185185,1,0,0,3.5047,Gabbro_rect,4,3.505,0,3,0,3,0,1,,,,,,,,,,,,,
59bc26d53a9ab60001119700,TCR,2024-06-25_11h40.53.823,LearnStrategy,2023.2.3,Win32,18.72659176,4,1,5,0,-0.011111111,1,0,0,0.9428,rock_grid_rect_2,4,01,-1,-1,0.943,0.334259259,-0.268518519,1,0,0,1.5754,Gabbro_rect,4,1.575,1,4,0,4,0,1,,,,,,,,,,,,,
59bc26d53a9ab60001119700,TCR,2024-06-25_11h40.53.823,LearnStrategy,2023.2.3,Win32,18.72659176,4,1,6,0.04537037,-0.017592593,1,0,0,0.8716,rock_grid_rect_2,8,09,-1,-1,0.872,0.332407407,-0.39537037,1,0,0,1.195,Pumice_rect,8,1.195,1,5,0,5,0,1,,,,,,,,,,,,,
59bc26d53a9ab60001119700,TCR,2024-06-25_11h40.53.823,LearnStrategy,2023.2.3,Win32,18.72659176,4,1,7,0.124074074,0.007407407,1,0,0,0.8203,rock_grid_rect_2,6,12,-1,-1,0.82,-0.155555556,-0.4,1,0,0,2.4132,Pegmatite_rect,6,2.413,1,6,0,6,0,1,,,,,,,,,,,,,
59bc26d53a9ab60001119700,TCR,2024-06-25_11h40.53.823,LearnStrategy,2023.2.3,Win32,18.72659176,4,1,8,0.074074074,-0.016666667,1,0,0,0.7925,rock_grid_rect_2,4,13,-1,-1,0.793,0.368518519,-0.243518519,1,0,0,2.2491,Gabbro_rect,4,2.249,1,7,0,7,0,1,,,,,,,,,,,,,
59bc26d53a9ab60001119700,TCR,2024-06-25_11h40.53.823,LearnStrategy,2023.2.3,Win32,18.72659176,4,1,9,-0.026851852,0.012037037,1,0,0,0.7728,rock_grid_rect_2,4,10,-1,-1,0.773,-0.15462963,-0.25462963,1,0,0,3.995,Basalt_rect,2,3.995,0,8,0,8,0,1,,,,,,,,,,,,,
59bc26d53a9ab60001119700,TCR,2024-06-25_11h40.53.823,LearnStrategy,2023.2.3,Win32,18.72659176,4,1,10,0.07037037,-0.010185185,1,0,0,0.7671,rock_grid_rect_2,2,10,-1,-1,0.767,-0.118518519,-0.261111111,1,0,0,1.085,Basalt_rect,2,1.085,1,9,0,9,0,1,,,,,,,,,,,,,
59bc26d53a9ab60001119700,TCR,2024-06-25_11h40.53.823,LearnStrategy,2023.2.3,Win32,18.72659176,4,1,11,-0.028703704,0.002777778,1,0,0,0.7486,rock_grid_rect_2,7,07,-1,-1,0.749,0.09537037,-0.384259259,1,0,0,1.292,Peridotite_rect,7,1.292,1,10,0,10,0,1,,,,,,,,,,,,,
59bc26d53a9ab60001119700,TCR,2024-06-25_11h40.53.823,LearnStrategy,2023.2.3,Win32,18.72659176,4,1,12,0.061111111,-0.005555556,1,0,0,0.8618,rock_grid_rect_2,1,05,-1,-1,0.862,-0.125925926,-0.393518519,1,0,0,2.2176,Pegmatite_rect,6,2.218,0,11,0,11,0,1,,,,,,,,,,,,,
59bc26d53a9ab60001119700,TCR,2024-06-25_11h40.53.823,LearnStrategy,2023.2.3,Win32,18.72659176,4,1,13,0.000925926,0.007407407,1,0,0,1.2992,rock_grid_rect_2,1,14,-1,-1,1.299,-0.117592593,-0.407407407,1,0,0,2.2869,Pegmatite_rect,6,2.287,0,12,0,12,0,1,,,,,,,,,,,,,
59bc26d53a9ab60001119700,TCR,2024-06-25_11h40.53.823,LearnStrategy,2023.2.3,Win32,18.72659176,4,1,14,0.05462963,-0.000925926,1,0,0,0.8115,rock_grid_rect_2,7,15,-1,-1,0.811,0.115740741,-0.390740741,1,0,0,1.3575,Peridotite_rect,7,1.357,1,13,0,13,0,1,,,,,,,,,,,,,
59bc26d53a9ab60001119700,TCR,2024-06-25_11h40.53.823,LearnStrategy,2023.2.3,Win32,18.72659176,4,1,15,0.031481481,-0.003703704,1,0,0,1.6594,rock_grid_rect_2,3,07,-1,-1,1.659,0.087962963,-0.261111111,1,0,0,1.2699,Diorite_rect,3,1.27,1,14,0,14,0,1,,,,,,,,,,,,,
59bc26d53a9ab60001119700,TCR,2024-06-25_11h40.53.823,LearnStrategy,2023.2.3,Win32,18.72659176,4,1,16,0.012037037,-0.000925926,1,0,0,1.2013,rock_grid_rect_2,5,05,-1,-1,1.201,-0.375,-0.402777778,1,0,0,1.6632,Obsidian_rect,5,1.663,1,15,0,15,0,1,,,,,,,,,,,,,
59bc26d53a9ab60001119700,TCR,2024-06-25_11h40.53.823,LearnStrategy,2023.2.3,Win32,18.72659176,4,2,1,,,,,,,,5,10,,,,,,,,,,,5,3.13,1,,,,,,-0.416666667,-0.408333333,1,0,0,3.1301,Obsidian_rect,0,0,0,0,1,
59bc26d53a9ab60001119700,TCR,2024-06-25_11h40.53.823,LearnStrategy,2023.2.3,Win32,18.72659176,4,2,2,,,,,,,,2,02,,,,,,,,,,,4,9.1,0,,,,,,0.396296296,-0.248148148,1,0,0,9.0998,Gabbro_rect,1,0,1,0,1,
59bc26d53a9ab60001119700,TCR,2024-06-25_11h40.53.823,LearnStrategy,2023.2.3,Win32,18.72659176,4,2,3,,,,,,,,1,09,,,,,,,,,,,1,2.864,1,,,,,,-0.408333333,-0.258333333,1,0,0,2.8636,Andesite_rect,2,0,2,0,1,
59bc26d53a9ab60001119700,TCR,2024-06-25_11h40.53.823,LearnStrategy,2023.2.3,Win32,18.72659176,4,2,4,,,,,,,,3,12,,,,,,,,,,,3,2.644,1,,,,,,0.156481481,-0.239814815,1,0,0,2.644,Diorite_rect,3,0,3,0,1,
59bc26d53a9ab60001119700,TCR,2024-06-25_11h40.53.823,LearnStrategy,2023.2.3,Win32,18.72659176,4,2,5,,,,,,,,8,05,,,,,,,,,,,8,1.346,1,,,,,,0.396296296,-0.396296296,1,0,0,1.3461,Pumice_rect,4,0,4,0,1,
59bc26d53a9ab60001119700,TCR,2024-06-25_11h40.53.823,LearnStrategy,2023.2.3,Win32,18.72659176,4,2,6,,,,,,,,6,13,,,,,,,,,,,6,1.856,1,,,,,,-0.099074074,-0.405555556,1,0,0,1.8559,Pegmatite_rect,5,0,5,0,1,
59bc26d53a9ab60001119700,TCR,2024-06-25_11h40.53.823,LearnStrategy,2023.2.3,Win32,18.72659176,4,2,7,,,,,,,,7,14,,,,,,,,,,,7,2.581,1,,,,,,0.122222222,-0.416666667,1,0,0,2.5808,Peridotite_rect,6,0,6,0,1,
59bc26d53a9ab60001119700,TCR,2024-06-25_11h40.53.823,LearnStrategy,2023.2.3,Win32,18.72659176,4,2,8,,,,,,,,3,10,,,,,,,,,,,4,4.747,0,,,,,,0.334259259,-0.255555556,1,0,0,4.7467,Gabbro_rect,7,0,7,0,1,
59bc26d53a9ab60001119700,TCR,2024-06-25_11h40.53.823,LearnStrategy,2023.2.3,Win32,18.72659176,4,2,9,,,,,,,,4,16,,,,,,,,,,,4,3.665,1,,,,,,0.35,-0.25,1,0,0,3.6647,Gabbro_rect,8,0,8,0,1,
59bc26d53a9ab60001119700,TCR,2024-06-25_11h40.53.823,LearnStrategy,2023.2.3,Win32,18.72659176,4,2,10,,,,,,,,6,16,,,,,,,,,,,6,1.733,1,,,,,,-0.12962963,-0.390740741,1,0,0,1.7327,Pegmatite_rect,9,0,9,0,1,
59bc26d53a9ab60001119700,TCR,2024-06-25_11h40.53.823,LearnStrategy,2023.2.3,Win32,18.72659176,4,2,11,,,,,,,,8,14,,,,,,,,,,,8,1.306,1,,,,,,0.347222222,-0.396296296,1,0,0,1.3055,Pumice_rect,10,0,10,0,1,
59bc26d53a9ab60001119700,TCR,2024-06-25_11h40.53.823,LearnStrategy,2023.2.3,Win32,18.72659176,4,2,12,,,,,,,,5,06,,,,,,,,,,,5,1.223,1,,,,,,-0.328703704,-0.403703704,1,0,0,1.2225,Obsidian_rect,11,0,11,0,1,
59bc26d53a9ab60001119700,TCR,2024-06-25_11h40.53.823,LearnStrategy,2023.2.3,Win32,18.72659176,4,2,13,,,,,,,,7,02,,,,,,,,,,,7,1.393,1,,,,,,0.108333333,-0.387962963,1,0,0,1.393,Peridotite_rect,12,0,12,0,1,
59bc26d53a9ab60001119700,TCR,2024-06-25_11h40.53.823,LearnStrategy,2023.2.3,Win32,18.72659176,4,2,14,,,,,,,,4,05,,,,,,,,,,,4,3.617,1,,,,,,0.341666667,-0.262962963,1,0,0,3.6173,Gabbro_rect,13,0,13,0,1,
59bc26d53a9ab60001119700,TCR,2024-06-25_11h40.53.823,LearnStrategy,2023.2.3,Win32,18.72659176,4,2,15,,,,,,,,2,14,,,,,,,,,,,8,1.796,0,,,,,,0.388888889,-0.391666667,1,0,0,1.796,Pumice_rect,14,0,14,0,1,
59bc26d53a9ab60001119700,TCR,2024-06-25_11h40.53.823,LearnStrategy,2023.2.3,Win32,18.72659176,4,2,16,,,,,,,,1,02,,,,,,,,,,,1,4.34,1,,,,,,-0.372222222,-0.250925926,1,0,0,4.3397,Andesite_rect,15,0,15,0,1,
59bc26d53a9ab60001119700,TCR,2024-06-25_11h40.53.823,LearnStrategy,2023.2.3,Win32,18.72659176,5,1,1,0.057407407,-0.009259259,1,0,0,1.1197,rock_grid_rect_2,6,15,-1,-1,1.12,-0.101851852,-0.398148148,1,0,0,1.5981,Pegmatite_rect,6,1.598,1,0,0,0,0,1,,,,,,,,,,,,,
59bc26d53a9ab60001119700,TCR,2024-06-25_11h40.53.823,LearnStrategy,2023.2.3,Win32,18.72659176,5,1,2,-0.040740741,0.005555556,1,0,0,1.0028,rock_grid_rect_2,2,10,-1,-1,1.003,-0.135185185,-0.248148148,1,0,0,2.1067,Basalt_rect,2,2.107,1,1,0,1,0,1,,,,,,,,,,,,,
59bc26d53a9ab60001119700,TCR,2024-06-25_11h40.53.823,LearnStrategy,2023.2.3,Win32,18.72659176,5,1,3,0.026851852,-0.011111111,1,0,0,0.9512,rock_grid_rect_2,4,10,-1,-1,0.951,0.378703704,-0.248148148,1,0,0,1.9043,Gabbro_rect,4,1.904,1,2,0,2,0,1,,,,,,,,,,,,,
59bc26d53a9ab60001119700,TCR,2024-06-25_11h40.53.823,LearnStrategy,2023.2.3,Win32,18.72659176,5,1,4,0.049074074,0.005555556,1,0,0,0.7797,rock_grid_rect_2,3,06,-1,-1,0.78,0.101851852,-0.262037037,1,0,0,1.1321,Diorite_rect,3,1.132,1,3,0,3,0,1,,,,,,,,,,,,,
59bc26d53a9ab60001119700,TCR,2024-06-25_11h40.53.823,LearnStrategy,2023.2.3,Win32,18.72659176,5,1,5,0.009259259,-0.003703704,1,0,0,0.8777,rock_grid_rect_2,2,06,-1,-1,0.878,-0.093518519,-0.25462963,1,0,0,1.8771,Basalt_rect,2,1.877,1,4,0,4,0,1,,,,,,,,,,,,,
59bc26d53a9ab60001119700,TCR,2024-06-25_11h40.53.823,LearnStrategy,2023.2.3,Win32,18.72659176,5,1,6,0.035185185,0.003703704,1,0,0,0.8015,rock_grid_rect_2,4,09,-1,-1,0.802,0.373148148,-0.259259259,1,0,0,1.2881,Gabbro_rect,4,1.288,1,5,0,5,0,1,,,,,,,,,,,,,
59bc26d53a9ab60001119700,TCR,2024-06-25_11h40.53.823,LearnStrategy,2023.2.3,Win32,18.72659176,5,1,7,0.059259259,0.003703704,1,0,0,0.7985,rock_grid_rect_2,5,04,-1,-1,0.798,-0.383333333,-0.4,1,0,0,1.5114,Obsidian_rect,5,1.511,1,6,0,6,0,1,,,,,,,,,,,,,
59bc26d53a9ab60001119700,TCR,2024-06-25_11h40.53.823,LearnStrategy,2023.2.3,Win32,18.72659176,5,1,8,-0.028703704,-0.00462963,1,0,0,0.9468,rock_grid_rect_2,1,10,-1,-1,0.947,-0.344444444,-0.252777778,1,0,0,2.4101,Andesite_rect,1,2.41,1,7,0,7,0,1,,,,,,,,,,,,,
59bc26d53a9ab60001119700,TCR,2024-06-25_11h40.53.823,LearnStrategy,2023.2.3,Win32,18.72659176,5,1,9,0.122222222,-0.002777778,1,0,0,0.8807,rock_grid_rect_2,7,04,-1,-1,0.881,-0.125925926,-0.407407407,1,0,0,2.3494,Pegmatite_rect,6,2.349,0,8,0,8,0,1,,,,,,,,,,,,,
59bc26d53a9ab60001119700,TCR,2024-06-25_11h40.53.823,LearnStrategy,2023.2.3,Win32,18.72659176,5,1,10,0.100925926,-0.008333333,1,0,0,0.7366,rock_grid_rect_2,8,10,-1,-1,0.737,0.362037037,-0.397222222,1,0,0,1.3781,Pumice_rect,8,1.378,1,9,0,9,0,1,,,,,,,,,,,,,
59bc26d53a9ab60001119700,TCR,2024-06-25_11h40.53.823,LearnStrategy,2023.2.3,Win32,18.72659176,5,1,11,0.060185185,-0.025,1,0,0,0.8788,rock_grid_rect_2,1,14,-1,-1,0.879,-0.134259259,-0.385185185,1,0,0,1.4088,Pegmatite_rect,6,1.409,0,10,0,10,0,1,,,,,,,,,,,,,
59bc26d53a9ab60001119700,TCR,2024-06-25_11h40.53.823,LearnStrategy,2023.2.3,Win32,18.72659176,5,1,12,0.07037037,-0.00462963,1,0,0,1.3448,rock_grid_rect_2,2,08,-1,-1,1.345,-0.115740741,-0.237962963,1,0,0,1.191,Basalt_rect,2,1.191,1,11,0,11,0,1,,,,,,,,,,,,,
59bc26d53a9ab60001119700,TCR,2024-06-25_11h40.53.823,LearnStrategy,2023.2.3,Win32,18.72659176,5,1,13,0.077777778,-0.000925926,1,0,0,0.7462,rock_grid_rect_2,3,07,-1,-1,0.746,0.12037037,-0.263888889,1,0,0,1.9278,Diorite_rect,3,1.928,1,12,0,12,0,1,,,,,,,,,,,,,
59bc26d53a9ab60001119700,TCR,2024-06-25_11h40.53.823,LearnStrategy,2023.2.3,Win32,18.72659176,5,1,14,-0.025,0.002777778,1,0,0,0.7296,rock_grid_rect_2,7,15,-1,-1,0.73,0.115740741,-0.399074074,1,0,0,1.1544,Peridotite_rect,7,1.154,1,13,0,13,0,1,,,,,,,,,,,,,
59bc26d53a9ab60001119700,TCR,2024-06-25_11h40.53.823,LearnStrategy,2023.2.3,Win32,18.72659176,5,1,15,0.15,-0.012962963,1,0,0,0.8127,rock_grid_rect_2,3,14,-1,-1,0.813,0.14537037,-0.258333333,1,0,0,1.1685,Diorite_rect,3,1.168,1,14,0,14,0,1,,,,,,,,,,,,,
59bc26d53a9ab60001119700,TCR,2024-06-25_11h40.53.823,LearnStrategy,2023.2.3,Win32,18.72659176,5,1,16,0.07962963,-0.002777778,1,0,0,0.7285,rock_grid_rect_2,2,05,-1,-1,0.728,-0.130555556,-0.252777778,1,0,0,1.7165,Basalt_rect,2,1.716,1,15,0,15,0,1,,,,,,,,,,,,,
59bc26d53a9ab60001119700,TCR,2024-06-25_11h40.53.823,LearnStrategy,2023.2.3,Win32,18.72659176,5,2,1,,,,,,,,7,10,,,,,,,,,,,7,1.605,1,,,,,,0.083333333,-0.388888889,1,0,0,1.6053,Peridotite_rect,0,0,0,0,1,
59bc26d53a9ab60001119700,TCR,2024-06-25_11h40.53.823,LearnStrategy,2023.2.3,Win32,18.72659176,5,2,2,,,,,,,,2,01,,,,,,,,,,,2,1.784,1,,,,,,-0.088888889,-0.25,1,0,0,1.7842,Basalt_rect,1,0,1,0,1,
59bc26d53a9ab60001119700,TCR,2024-06-25_11h40.53.823,LearnStrategy,2023.2.3,Win32,18.72659176,5,2,3,,,,,,,,5,16,,,,,,,,,,,5,1.368,1,,,,,,-0.360185185,-0.409259259,1,0,0,1.3679,Obsidian_rect,2,0,2,0,1,
59bc26d53a9ab60001119700,TCR,2024-06-25_11h40.53.823,LearnStrategy,2023.2.3,Win32,18.72659176,5,2,4,,,,,,,,3,11,,,,,,,,,,,3,4.21,1,,,,,,0.097222222,-0.251851852,1,0,0,4.2104,Diorite_rect,3,0,3,0,1,
59bc26d53a9ab60001119700,TCR,2024-06-25_11h40.53.823,LearnStrategy,2023.2.3,Win32,18.72659176,5,2,5,,,,,,,,2,11,,,,,,,,,,,1,2.106,0,,,,,,-0.415740741,-0.228703704,1,0,0,2.1064,Andesite_rect,4,0,4,0,1,
59bc26d53a9ab60001119700,TCR,2024-06-25_11h40.53.823,LearnStrategy,2023.2.3,Win32,18.72659176,5,2,6,,,,,,,,5,08,,,,,,,,,,,5,1.245,1,,,,,,-0.359259259,-0.400925926,1,0,0,1.2445,Obsidian_rect,5,0,5,0,1,
59bc26d53a9ab60001119700,TCR,2024-06-25_11h40.53.823,LearnStrategy,2023.2.3,Win32,18.72659176,5,2,7,,,,,,,,7,16,,,,,,,,,,,7,1.704,1,,,,,,0.080555556,-0.400925926,1,0,0,1.7041,Peridotite_rect,6,0,6,0,1,
59bc26d53a9ab60001119700,TCR,2024-06-25_11h40.53.823,LearnStrategy,2023.2.3,Win32,18.72659176,5,2,8,,,,,,,,6,08,,,,,,,,,,,6,1.495,1,,,,,,-0.100925926,-0.386111111,1,0,0,1.4949,Pegmatite_rect,7,0,7,0,1,
59bc26d53a9ab60001119700,TCR,2024-06-25_11h40.53.823,LearnStrategy,2023.2.3,Win32,18.72659176,5,2,9,,,,,,,,1,01,,,,,,,,,,,4,3.651,0,,,,,,0.423148148,-0.244444444,1,0,0,3.6514,Gabbro_rect,8,0,8,0,1,
59bc26d53a9ab60001119700,TCR,2024-06-25_11h40.53.823,LearnStrategy,2023.2.3,Win32,18.72659176,5,2,10,,,,,,,,1,07,,,,,,,,,,,6,2.622,0,,,,,,-0.139814815,-0.4,1,0,0,2.6218,Pegmatite_rect,9,0,9,0,1,
59bc26d53a9ab60001119700,TCR,2024-06-25_11h40.53.823,LearnStrategy,2023.2.3,Win32,18.72659176,5,2,11,,,,,,,,4,03,,,,,,,,,,,3,1.536,0,,,,,,0.134259259,-0.251851852,1,0,0,1.5357,Diorite_rect,10,0,10,0,1,
59bc26d53a9ab60001119700,TCR,2024-06-25_11h40.53.823,LearnStrategy,2023.2.3,Win32,18.72659176,5,2,12,,,,,,,,3,15,,,,,,,,,,,3,1.698,1,,,,,,0.121296296,-0.258333333,1,0,0,1.6981,Diorite_rect,11,0,11,0,1,
59bc26d53a9ab60001119700,TCR,2024-06-25_11h40.53.823,LearnStrategy,2023.2.3,Win32,18.72659176,5,2,13,,,,,,,,6,09,,,,,,,,,,,6,2.388,1,,,,,,-0.040740741,-0.378703704,1,0,0,2.3879,Pegmatite_rect,12,0,12,0,1,
59bc26d53a9ab60001119700,TCR,2024-06-25_11h40.53.823,LearnStrategy,2023.2.3,Win32,18.72659176,5,2,14,,,,,,,,8,06,,,,,,,,,,,8,1.251,1,,,,,,0.369444444,-0.399074074,1,0,0,1.2511,Pumice_rect,13,0,13,0,1,
59bc26d53a9ab60001119700,TCR,2024-06-25_11h40.53.823,LearnStrategy,2023.2.3,Win32,18.72659176,5,2,15,,,,,,,,8,08,,,,,,,,,,,8,1.242,1,,,,,,0.371296296,-0.394444444,1,0,0,1.2419,Pumice_rect,14,0,14,0,1,
59bc26d53a9ab60001119700,TCR,2024-06-25_11h40.53.823,LearnStrategy,2023.2.3,Win32,18.72659176,5,2,16,,,,,,,,4,08,,,,,,,,,,,4,4.817,1,,,,,,0.397222222,-0.253703704,1,0,0,4.8168,Gabbro_rect,15,0,15,0,1,
59bc26d53a9ab60001119700,TCR,2024-06-25_11h40.53.823,LearnStrategy,2023.2.3,Win32,18.72659176,6,1,1,0.018518519,-0.007407407,1,0,0,0.7486,rock_grid_rect_2,2,16,-1,-1,0.749,0.372222222,-0.246296296,1,0,0,4.0669,Gabbro_rect,4,4.067,0,0,0,0,0,1,,,,,,,,,,,,,
59bc26d53a9ab60001119700,TCR,2024-06-25_11h40.53.823,LearnStrategy,2023.2.3,Win32,18.72659176,6,1,2,0.098148148,-0.001851852,1,0,0,0.8056,rock_grid_rect_2,3,14,-1,-1,0.806,0.132407407,-0.238888889,1,0,0,1.0774,Diorite_rect,3,1.077,1,1,0,1,0,1,,,,,,,,,,,,,
59bc26d53a9ab60001119700,TCR,2024-06-25_11h40.53.823,LearnStrategy,2023.2.3,Win32,18.72659176,6,1,3,0.057407407,-0.009259259,1,0,0,0.8068,rock_grid_rect_2,6,15,-1,-1,0.807,-0.132407407,-0.388888889,1,0,0,1.7682,Pegmatite_rect,6,1.768,1,2,0,2,0,1,,,,,,,,,,,,,
59bc26d53a9ab60001119700,TCR,2024-06-25_11h40.53.823,LearnStrategy,2023.2.3,Win32,18.72659176,6,1,4,0.075925926,-0.012962963,1,0,0,0.9525,rock_grid_rect_2,1,04,-1,-1,0.952,-0.364814815,-0.234259259,1,0,0,1.5926,Andesite_rect,1,1.593,1,3,0,3,0,1,,,,,,,,,,,,,
59bc26d53a9ab60001119700,TCR,2024-06-25_11h40.53.823,LearnStrategy,2023.2.3,Win32,18.72659176,6,1,5,0.182407407,0.018518519,1,0,0,0.7804,rock_grid_rect_2,3,07,-1,-1,0.78,0.112037037,-0.230555556,1,0,0,1.7163,Diorite_rect,3,1.716,1,4,0,4,0,1,,,,,,,,,,,,,
59bc26d53a9ab60001119700,TCR,2024-06-25_11h40.53.823,LearnStrategy,2023.2.3,Win32,18.72659176,6,1,6,0.017592593,-0.001851852,1,0,0,0.8673,rock_grid_rect_2,2,05,-1,-1,0.867,-0.09537037,-0.266666667,1,0,0,1.0476,Basalt_rect,2,1.048,1,5,0,5,0,1,,,,,,,,,,,,,
59bc26d53a9ab60001119700,TCR,2024-06-25_11h40.53.823,LearnStrategy,2023.2.3,Win32,18.72659176,6,1,7,0.123148148,-0.024074074,1,0,0,0.6665,rock_grid_rect_2,4,13,-1,-1,0.666,0.357407407,-0.240740741,1,0,0,4.6875,Gabbro_rect,4,4.688,1,6,0,6,0,1,,,,,,,,,,,,,
59bc26d53a9ab60001119700,TCR,2024-06-25_11h40.53.823,LearnStrategy,2023.2.3,Win32,18.72659176,6,1,8,-0.058333333,0.017592593,1,0,0,1.1202,rock_grid_rect_2,7,12,-1,-1,1.12,0.087962963,-0.416666667,1,0,0,1.3494,Peridotite_rect,7,1.349,1,7,0,7,0,1,,,,,,,,,,,,,
59bc26d53a9ab60001119700,TCR,2024-06-25_11h40.53.823,LearnStrategy,2023.2.3,Win32,18.72659176,6,1,9,0.057407407,-0.010185185,1,0,0,0.8073,rock_grid_rect_2,1,10,-1,-1,0.807,-0.325,-0.246296296,1,0,0,1.9746,Andesite_rect,1,1.975,1,8,0,8,0,1,,,,,,,,,,,,,
59bc26d53a9ab60001119700,TCR,2024-06-25_11h40.53.823,LearnStrategy,2023.2.3,Win32,18.72659176,6,1,10,0.032407407,-0.013888889,1,0,0,0.7993,rock_grid_rect_2,8,10,-1,-1,0.799,0.358333333,-0.415740741,1,0,0,1.0615,Pumice_rect,8,1.062,1,9,0,9,0,1,,,,,,,,,,,,,
59bc26d53a9ab60001119700,TCR,2024-06-25_11h40.53.823,LearnStrategy,2023.2.3,Win32,18.72659176,6,1,11,0.109259259,0.013888889,1,0,0,0.7577,rock_grid_rect_2,4,09,-1,-1,0.758,0.4,-0.256481481,1,0,0,2.3362,Gabbro_rect,4,2.336,1,10,0,10,0,1,,,,,,,,,,,,,
59bc26d53a9ab60001119700,TCR,2024-06-25_11h40.53.823,LearnStrategy,2023.2.3,Win32,18.72659176,6,1,12,0.063888889,-0.018518519,1,0,0,0.8725,rock_grid_rect_2,1,06,-1,-1,0.872,-0.339814815,-0.253703704,1,0,0,1.9052,Andesite_rect,1,1.905,1,11,0,11,0,1,,,,,,,,,,,,,
59bc26d53a9ab60001119700,TCR,2024-06-25_11h40.53.823,LearnStrategy,2023.2.3,Win32,18.72659176,6,1,13,0.103703704,0.002777778,1,0,0,1.3278,rock_grid_rect_2,4,12,-1,-1,1.328,-0.368518519,-0.24537037,1,0,0,4.4895,Andesite_rect,1,4.49,0,12,0,12,0,1,,,,,,,,,,,,,
59bc26d53a9ab60001119700,TCR,2024-06-25_11h40.53.823,LearnStrategy,2023.2.3,Win32,18.72659176,6,1,14,0.153703704,0.010185185,1,0,0,0.6588,rock_grid_rect_2,2,08,-1,-1,0.659,-0.123148148,-0.263888889,1,0,0,1.034,Basalt_rect,2,1.034,1,13,0,13,0,1,,,,,,,,,,,,,
59bc26d53a9ab60001119700,TCR,2024-06-25_11h40.53.823,LearnStrategy,2023.2.3,Win32,18.72659176,6,1,15,0.042592593,-0.013888889,1,0,0,0.9036,rock_grid_rect_2,5,11,-1,-1,0.904,-0.390740741,-0.417592593,1,0,0,1.1455,Obsidian_rect,5,1.145,1,14,0,14,0,1,,,,,,,,,,,,,
59bc26d53a9ab60001119700,TCR,2024-06-25_11h40.53.823,LearnStrategy,2023.2.3,Win32,18.72659176,6,1,16,0.038888889,-0.013888889,1,0,0,0.958,rock_grid_rect_2,1,16,-1,-1,0.958,-0.122222222,-0.396296296,1,0,0,2.0687,Pegmatite_rect,6,2.069,0,15,0,15,0,1,,,,,,,,,,,,,
59bc26d53a9ab60001119700,TCR,2024-06-25_11h40.53.823,LearnStrategy,2023.2.3,Win32,18.72659176,6,2,1,,,,,,,,6,06,,,,,,,,,,,6,3.581,1,,,,,,-0.099074074,-0.40462963,1,0,0,3.581,Pegmatite_rect,0,0,0,0,1,
59bc26d53a9ab60001119700,TCR,2024-06-25_11h40.53.823,LearnStrategy,2023.2.3,Win32,18.72659176,6,2,2,,,,,,,,2,09,,,,,,,,,,,2,3.572,1,,,,,,-0.127777778,-0.249074074,1,0,0,3.5724,Basalt_rect,1,0,1,0,1,
59bc26d53a9ab60001119700,TCR,2024-06-25_11h40.53.823,LearnStrategy,2023.2.3,Win32,18.72659176,6,2,3,,,,,,,,5,07,,,,,,,,,,,5,1.864,1,,,,,,-0.402777778,-0.398148148,1,0,0,1.8639,Obsidian_rect,2,0,2,0,1,
59bc26d53a9ab60001119700,TCR,2024-06-25_11h40.53.823,LearnStrategy,2023.2.3,Win32,18.72659176,6,2,4,,,,,,,,4,11,,,,,,,,,,,4,5.292,1,,,,,,0.373148148,-0.248148148,1,0,0,5.2916,Gabbro_rect,3,0,3,0,1,
59bc26d53a9ab60001119700,TCR,2024-06-25_11h40.53.823,LearnStrategy,2023.2.3,Win32,18.72659176,6,2,5,,,,,,,,4,15,,,,,,,,,,,4,2.754,1,,,,,,0.328703704,-0.259259259,1,0,0,2.7536,Gabbro_rect,4,0,4,0,1,
59bc26d53a9ab60001119700,TCR,2024-06-25_11h40.53.823,LearnStrategy,2023.2.3,Win32,18.72659176,6,2,6,,,,,,,,1,11,,,,,,,,,,,1,2.147,1,,,,,,-0.416666667,-0.24537037,1,0,0,2.1471,Andesite_rect,5,0,5,0,1,
59bc26d53a9ab60001119700,TCR,2024-06-25_11h40.53.823,LearnStrategy,2023.2.3,Win32,18.72659176,6,2,7,,,,,,,,1,03,,,,,,,,,,,1,2.914,1,,,,,,-0.398148148,-0.256481481,1,0,0,2.9141,Andesite_rect,6,0,6,0,1,
59bc26d53a9ab60001119700,TCR,2024-06-25_11h40.53.823,LearnStrategy,2023.2.3,Win32,18.72659176,6,2,8,,,,,,,,6,05,,,,,,,,,,,6,1.615,1,,,,,,-0.151851852,-0.392592593,1,0,0,1.6149,Pegmatite_rect,7,0,7,0,1,
59bc26d53a9ab60001119700,TCR,2024-06-25_11h40.53.823,LearnStrategy,2023.2.3,Win32,18.72659176,6,2,9,,,,,,,,7,06,,,,,,,,,,,7,1.423,1,,,,,,0.089814815,-0.398148148,1,0,0,1.4235,Peridotite_rect,8,0,8,0,1,
59bc26d53a9ab60001119700,TCR,2024-06-25_11h40.53.823,LearnStrategy,2023.2.3,Win32,18.72659176,6,2,10,,,,,,,,2,04,,,,,,,,,,,2,1.298,1,,,,,,-0.085185185,-0.25,1,0,0,1.2978,Basalt_rect,9,0,9,0,1,
59bc26d53a9ab60001119700,TCR,2024-06-25_11h40.53.823,LearnStrategy,2023.2.3,Win32,18.72659176,6,2,11,,,,,,,,8,02,,,,,,,,,,,8,1.239,1,,,,,,0.341666667,-0.396296296,1,0,0,1.239,Pumice_rect,10,0,10,0,1,
59bc26d53a9ab60001119700,TCR,2024-06-25_11h40.53.823,LearnStrategy,2023.2.3,Win32,18.72659176,6,2,12,,,,,,,,7,08,,,,,,,,,,,7,1.167,1,,,,,,0.169444444,-0.391666667,1,0,0,1.1671,Peridotite_rect,11,0,11,0,1,
59bc26d53a9ab60001119700,TCR,2024-06-25_11h40.53.823,LearnStrategy,2023.2.3,Win32,18.72659176,6,2,13,,,,,,,,8,04,,,,,,,,,,,8,1.015,1,,,,,,0.360185185,-0.402777778,1,0,0,1.0154,Pumice_rect,12,0,12,0,1,
59bc26d53a9ab60001119700,TCR,2024-06-25_11h40.53.823,LearnStrategy,2023.2.3,Win32,18.72659176,6,2,14,,,,,,,,5,09,,,,,,,,,,,5,1.294,1,,,,,,-0.361111111,-0.39537037,1,0,0,1.2937,Obsidian_rect,13,0,13,0,1,
59bc26d53a9ab60001119700,TCR,2024-06-25_11h40.53.823,LearnStrategy,2023.2.3,Win32,18.72659176,6,2,15,,,,,,,,3,02,,,,,,,,,,,3,2.084,1,,,,,,0.092592593,-0.251851852,1,0,0,2.0839,Diorite_rect,14,0,14,0,1,
59bc26d53a9ab60001119700,TCR,2024-06-25_11h40.53.823,LearnStrategy,2023.2.3,Win32,18.72659176,6,2,16,,,,,,,,3,08,,,,,,,,,,,3,1.312,1,,,,,,0.113888889,-0.24537037,1,0,0,1.3121,Diorite_rect,15,0,15,0,1,
59bc26d53a9ab60001119700,TCR,2024-06-25_11h40.53.823,LearnStrategy,2023.2.3,Win32,18.72659176,7,1,1,0.031481481,-0.006481481,1,0,0,0.7281,rock_grid_rect_2,1,14,-1,-1,0.728,-0.341666667,-0.239814815,1,0,0,2.5397,Andesite_rect,1,2.54,1,0,0,0,0,1,,,,,,,,,,,,,
59bc26d53a9ab60001119700,TCR,2024-06-25_11h40.53.823,LearnStrategy,2023.2.3,Win32,18.72659176,7,1,2,0.018518519,0,1,0,0,1.5096,rock_grid_rect_2,4,10,-1,-1,1.51,0.381481481,-0.238888889,1,0,0,2.4264,Gabbro_rect,4,2.426,1,1,0,1,0,1,,,,,,,,,,,,,
59bc26d53a9ab60001119700,TCR,2024-06-25_11h40.53.823,LearnStrategy,2023.2.3,Win32,18.72659176,7,1,3,0.099074074,0.00462963,1,0,0,0.7925,rock_grid_rect_2,1,10,-1,-1,0.793,-0.415740741,-0.261111111,1,0,0,1.4579,Andesite_rect,1,1.458,1,2,0,2,0,1,,,,,,,,,,,,,
59bc26d53a9ab60001119700,TCR,2024-06-25_11h40.53.823,LearnStrategy,2023.2.3,Win32,18.72659176,7,1,4,0.064814815,-0.009259259,1,0,0,0.8031,rock_grid_rect_2,5,14,-1,-1,0.803,-0.393518519,-0.402777778,1,0,0,1.5749,Obsidian_rect,5,1.575,1,3,0,3,0,1,,,,,,,,,,,,,
59bc26d53a9ab60001119700,TCR,2024-06-25_11h40.53.823,LearnStrategy,2023.2.3,Win32,18.72659176,7,1,5,0.018518519,0.000925926,1,0,0,0.8257,rock_grid_rect_2,7,04,-1,-1,0.826,0.111111111,-0.39537037,1,0,0,1.2247,Peridotite_rect,7,1.225,1,4,0,4,0,1,,,,,,,,,,,,,
59bc26d53a9ab60001119700,TCR,2024-06-25_11h40.53.823,LearnStrategy,2023.2.3,Win32,18.72659176,7,1,6,0.017592593,-0.017592593,1,0,0,0.8045,rock_grid_rect_2,2,16,-1,-1,0.805,-0.137962963,-0.249074074,1,0,0,1.8181,Basalt_rect,2,1.818,1,5,0,5,0,1,,,,,,,,,,,,,
59bc26d53a9ab60001119700,TCR,2024-06-25_11h40.53.823,LearnStrategy,2023.2.3,Win32,18.72659176,7,1,7,0.090740741,-0.003703704,1,0,0,0.9616,rock_grid_rect_2,8,16,-1,-1,0.962,0.355555556,-0.42037037,1,0,0,1.0714,Pumice_rect,8,1.071,1,6,0,6,0,1,,,,,,,,,,,,,
59bc26d53a9ab60001119700,TCR,2024-06-25_11h40.53.823,LearnStrategy,2023.2.3,Win32,18.72659176,7,1,8,0.025,-0.005555556,1,0,0,0.712,rock_grid_rect_2,1,16,-1,-1,0.712,-0.380555556,-0.241666667,1,0,0,3.0117,Andesite_rect,1,3.012,1,7,0,7,0,1,,,,,,,,,,,,,
59bc26d53a9ab60001119700,TCR,2024-06-25_11h40.53.823,LearnStrategy,2023.2.3,Win32,18.72659176,7,1,9,0.073148148,0.00462963,1,0,0,0.7489,rock_grid_rect_2,6,12,-1,-1,0.749,-0.101851852,-0.382407407,1,0,0,1.7403,Pegmatite_rect,6,1.74,1,8,0,8,0,1,,,,,,,,,,,,,
59bc26d53a9ab60001119700,TCR,2024-06-25_11h40.53.823,LearnStrategy,2023.2.3,Win32,18.72659176,7,1,10,0.073148148,-0.005555556,1,0,0,0.8673,rock_grid_rect_2,3,07,-1,-1,0.867,0.146296296,-0.246296296,1,0,0,1.2309,Diorite_rect,3,1.231,1,9,0,9,0,1,,,,,,,,,,,,,
59bc26d53a9ab60001119700,TCR,2024-06-25_11h40.53.823,LearnStrategy,2023.2.3,Win32,18.72659176,7,1,11,0.162037037,0.001851852,1,0,0,0.8668,rock_grid_rect_2,4,01,-1,-1,0.867,0.360185185,-0.250925926,1,0,0,1.631,Gabbro_rect,4,1.631,1,10,0,10,0,1,,,,,,,,,,,,,
59bc26d53a9ab60001119700,TCR,2024-06-25_11h40.53.823,LearnStrategy,2023.2.3,Win32,18.72659176,7,1,12,0.056481481,-0.018518519,1,0,0,0.7894,rock_grid_rect_2,2,05,-1,-1,0.789,-0.128703704,-0.255555556,1,0,0,1.128,Basalt_rect,2,1.128,1,11,0,11,0,1,,,,,,,,,,,,,
59bc26d53a9ab60001119700,TCR,2024-06-25_11h40.53.823,LearnStrategy,2023.2.3,Win32,18.72659176,7,1,13,0.060185185,-0.011111111,1,0,0,0.8605,rock_grid_rect_2,3,16,-1,-1,0.861,0.130555556,-0.244444444,1,0,0,1.1284,Diorite_rect,3,1.128,1,12,0,12,0,1,,,,,,,,,,,,,
59bc26d53a9ab60001119700,TCR,2024-06-25_11h40.53.823,LearnStrategy,2023.2.3,Win32,18.72659176,7,1,14,0.130555556,-0.007407407,1,0,0,0.7329,rock_grid_rect_2,1,05,-1,-1,0.733,-0.362037037,-0.239814815,1,0,0,1.1721,Andesite_rect,1,1.172,1,13,0,13,0,1,,,,,,,,,,,,,
59bc26d53a9ab60001119700,TCR,2024-06-25_11h40.53.823,LearnStrategy,2023.2.3,Win32,18.72659176,7,1,15,0.076851852,-0.006481481,1,0,0,0.8795,rock_grid_rect_2,2,16,-1,-1,0.88,-0.103703704,-0.240740741,1,0,0,1.1906,Basalt_rect,2,1.191,1,14,0,14,0,1,,,,,,,,,,,,,
59bc26d53a9ab60001119700,TCR,2024-06-25_11h40.53.823,LearnStrategy,2023.2.3,Win32,18.72659176,7,1,16,0.121296296,-0.010185185,1,0,0,0.802,rock_grid_rect_2,4,14,-1,-1,0.802,0.350925926,-0.266666667,1,0,0,1.5706,Gabbro_rect,4,1.571,1,15,0,15,0,1,,,,,,,,,,,,,
59bc26d53a9ab60001119700,TCR,2024-06-25_11h40.53.823,LearnStrategy,2023.2.3,Win32,18.72659176,7,2,1,,,,,,,,1,01,,,,,,,,,,,4,2.588,0,,,,,,0.360185185,-0.249074074,1,0,0,2.5882,Gabbro_rect,0,0,0,0,1,
59bc26d53a9ab60001119700,TCR,2024-06-25_11h40.53.823,LearnStrategy,2023.2.3,Win32,18.72659176,7,2,2,,,,,,,,4,08,,,,,,,,,,,4,2.545,1,,,,,,0.363888889,-0.244444444,1,0,0,2.5451,Gabbro_rect,1,0,1,0,1,
59bc26d53a9ab60001119700,TCR,2024-06-25_11h40.53.823,LearnStrategy,2023.2.3,Win32,18.72659176,7,2,3,,,,,,,,2,04,,,,,,,,,,,2,2.709,1,,,,,,-0.176851852,-0.261111111,1,0,0,2.7094,Basalt_rect,2,0,2,0,1,
59bc26d53a9ab60001119700,TCR,2024-06-25_11h40.53.823,LearnStrategy,2023.2.3,Win32,18.72659176,7,2,4,,,,,,,,5,10,,,,,,,,,,,5,1.231,1,,,,,,-0.347222222,-0.387962963,1,0,0,1.2309,Obsidian_rect,3,0,3,0,1,
59bc26d53a9ab60001119700,TCR,2024-06-25_11h40.53.823,LearnStrategy,2023.2.3,Win32,18.72659176,7,2,5,,,,,,,,7,08,,,,,,,,,,,7,1.363,1,,,,,,0.109259259,-0.40462963,1,0,0,1.3631,Peridotite_rect,4,0,4,0,1,
59bc26d53a9ab60001119700,TCR,2024-06-25_11h40.53.823,LearnStrategy,2023.2.3,Win32,18.72659176,7,2,6,,,,,,,,8,08,,,,,,,,,,,8,1.307,1,,,,,,0.35462963,-0.386111111,1,0,0,1.307,Pumice_rect,5,0,5,0,1,
59bc26d53a9ab60001119700,TCR,2024-06-25_11h40.53.823,LearnStrategy,2023.2.3,Win32,18.72659176,7,2,7,,,,,,,,2,02,,,,,,,,,,,2,1.404,1,,,,,,-0.110185185,-0.238888889,1,0,0,1.4039,Basalt_rect,6,0,6,0,1,
59bc26d53a9ab60001119700,TCR,2024-06-25_11h40.53.823,LearnStrategy,2023.2.3,Win32,18.72659176,7,2,8,,,,,,,,3,12,,,,,,,,,,,3,3.314,1,,,,,,0.167592593,-0.239814815,1,0,0,3.3139,Diorite_rect,7,0,7,0,1,
59bc26d53a9ab60001119700,TCR,2024-06-25_11h40.53.823,LearnStrategy,2023.2.3,Win32,18.72659176,7,2,9,,,,,,,,8,02,,,,,,,,,,,8,2.565,1,,,,,,0.398148148,-0.405555556,1,0,0,2.5653,Pumice_rect,8,0,8,0,1,
59bc26d53a9ab60001119700,TCR,2024-06-25_11h40.53.823,LearnStrategy,2023.2.3,Win32,18.72659176,7,2,10,,,,,,,,6,06,,,,,,,,,,,6,1.506,1,,,,,,-0.140740741,-0.403703704,1,0,0,1.5058,Pegmatite_rect,9,0,9,0,1,
59bc26d53a9ab60001119700,TCR,2024-06-25_11h40.53.823,LearnStrategy,2023.2.3,Win32,18.72659176,7,2,11,,,,,,,,3,02,,,,,,,,,,,3,1.239,1,,,,,,0.165740741,-0.248148148,1,0,0,1.2393,Diorite_rect,10,0,10,0,1,
59bc26d53a9ab60001119700,TCR,2024-06-25_11h40.53.823,LearnStrategy,2023.2.3,Win32,18.72659176,7,2,12,,,,,,,,6,08,,,,,,,,,,,6,1.216,1,,,,,,-0.109259259,-0.396296296,1,0,0,1.216,Pegmatite_rect,11,0,11,0,1,
59bc26d53a9ab60001119700,TCR,2024-06-25_11h40.53.823,LearnStrategy,2023.2.3,Win32,18.72659176,7,2,13,,,,,,,,4,15,,,,,,,,,,,4,4.153,1,,,,,,0.375925926,-0.256481481,1,0,0,4.1534,Gabbro_rect,12,0,12,0,1,
59bc26d53a9ab60001119700,TCR,2024-06-25_11h40.53.823,LearnStrategy,2023.2.3,Win32,18.72659176,7,2,14,,,,,,,,5,09,,,,,,,,,,,5,1.193,1,,,,,,-0.414814815,-0.410185185,1,0,0,1.1932,Obsidian_rect,13,0,13,0,1,
59bc26d53a9ab60001119700,TCR,2024-06-25_11h40.53.823,LearnStrategy,2023.2.3,Win32,18.72659176,7,2,15,,,,,,,,7,06,,,,,,,,,,,7,3.236,1,,,,,,0.138888889,-0.382407407,1,0,0,3.2362,Peridotite_rect,14,0,14,0,1,
59bc26d53a9ab60001119700,TCR,2024-06-25_11h40.53.823,LearnStrategy,2023.2.3,Win32,18.72659176,7,2,16,,,,,,,,1,11,,,,,,,,,,,1,1.564,1,,,,,,-0.348148148,-0.257407407,1,0,0,1.5642,Andesite_rect,15,0,15,0,1,
59bc26d53a9ab60001119700,TCR,2024-06-25_11h40.53.823,LearnStrategy,2023.2.3,Win32,18.72659176,8,1,1,0.065740741,0.000925926,1,0,0,1.3376,rock_grid_rect_2,7,07,-1,-1,1.338,0.112962963,-0.397222222,1,0,0,1.2858,Peridotite_rect,7,1.286,1,0,0,0,0,1,,,,,,,,,,,,,
59bc26d53a9ab60001119700,TCR,2024-06-25_11h40.53.823,LearnStrategy,2023.2.3,Win32,18.72659176,8,1,2,0.016666667,-0.00462963,1,0,0,0.9453,rock_grid_rect_2,2,05,-1,-1,0.945,-0.113888889,-0.24537037,1,0,0,0.9616,Basalt_rect,2,0.962,1,1,0,1,0,1,,,,,,,,,,,,,
59bc26d53a9ab60001119700,TCR,2024-06-25_11h40.53.823,LearnStrategy,2023.2.3,Win32,18.72659176,8,1,3,-0.09537037,0.007407407,1,0,0,0.8659,rock_grid_rect_2,4,13,-1,-1,0.866,0.414814815,-0.264814815,1,0,0,2.6414,Gabbro_rect,4,2.641,1,2,0,2,0,1,,,,,,,,,,,,,
59bc26d53a9ab60001119700,TCR,2024-06-25_11h40.53.823,LearnStrategy,2023.2.3,Win32,18.72659176,8,1,4,0.003703704,-0.006481481,1,0,0,0.8789,rock_grid_rect_2,8,13,-1,-1,0.879,0.386111111,-0.409259259,1,0,0,1.0426,Pumice_rect,8,1.043,1,3,0,3,0,1,,,,,,,,,,,,,
59bc26d53a9ab60001119700,TCR,2024-06-25_11h40.53.823,LearnStrategy,2023.2.3,Win32,18.72659176,8,1,5,0.089814815,0.001851852,1,0,0,0.853,rock_grid_rect_2,3,13,-1,-1,0.853,0.089814815,-0.251851852,1,0,0,1.1651,Diorite_rect,3,1.165,1,4,0,4,0,1,,,,,,,,,,,,,
59bc26d53a9ab60001119700,TCR,2024-06-25_11h40.53.823,LearnStrategy,2023.2.3,Win32,18.72659176,8,1,6,0.048148148,0.009259259,1,0,0,0.8155,rock_grid_rect_2,2,16,-1,-1,0.816,-0.148148148,-0.237962963,1,0,0,1.0612,Basalt_rect,2,1.061,1,5,0,5,0,1,,,,,,,,,,,,,
59bc26d53a9ab60001119700,TCR,2024-06-25_11h40.53.823,LearnStrategy,2023.2.3,Win32,18.72659176,8,1,7,0.021296296,-0.008333333,1,0,0,0.7291,rock_grid_rect_2,3,07,-1,-1,0.729,0.137037037,-0.22962963,1,0,0,1.3067,Diorite_rect,3,1.307,1,6,0,6,0,1,,,,,,,,,,,,,
59bc26d53a9ab60001119700,TCR,2024-06-25_11h40.53.823,LearnStrategy,2023.2.3,Win32,18.72659176,8,1,8,-0.016666667,0.019444444,1,0,0,0.6512,rock_grid_rect_2,4,12,-1,-1,0.651,-0.103703704,-0.24537037,1,0,0,1.5478,Basalt_rect,2,1.548,0,7,0,7,0,1,,,,,,,,,,,,,
59bc26d53a9ab60001119700,TCR,2024-06-25_11h40.53.823,LearnStrategy,2023.2.3,Win32,18.72659176,8,1,9,0.074074074,-0.012962963,1,0,0,0.7368,rock_grid_rect_2,2,12,-1,-1,0.737,-0.337962963,-0.231481481,1,0,0,3.1212,Andesite_rect,1,3.121,0,8,0,8,0,1,,,,,,,,,,,,,
59bc26d53a9ab60001119700,TCR,2024-06-25_11h40.53.823,LearnStrategy,2023.2.3,Win32,18.72659176,8,1,10,0.010185185,-0.014814815,1,0,0,0.8819,rock_grid_rect_2,1,10,-1,-1,0.882,-0.362962963,-0.237962963,1,0,0,1.2791,Andesite_rect,1,1.279,1,9,0,9,0,1,,,,,,,,,,,,,
59bc26d53a9ab60001119700,TCR,2024-06-25_11h40.53.823,LearnStrategy,2023.2.3,Win32,18.72659176,8,1,11,0.032407407,0.009259259,1,0,0,0.8144,rock_grid_rect_2,6,10,-1,-1,0.814,0.05,-0.4,1,0,0,1.9918,Peridotite_rect,7,1.992,0,10,0,10,0,1,,,,,,,,,,,,,
59bc26d53a9ab60001119700,TCR,2024-06-25_11h40.53.823,LearnStrategy,2023.2.3,Win32,18.72659176,8,1,12,0.036111111,-0.00462963,1,0,0,0.8723,rock_grid_rect_2,1,05,-1,-1,0.872,-0.367592593,-0.264814815,1,0,0,1.199,Andesite_rect,1,1.199,1,11,0,11,0,1,,,,,,,,,,,,,
59bc26d53a9ab60001119700,TCR,2024-06-25_11h40.53.823,LearnStrategy,2023.2.3,Win32,18.72659176,8,1,13,0.09537037,0.02037037,1,0,0,0.6621,rock_grid_rect_2,1,10,-1,-1,0.662,-0.380555556,-0.236111111,1,0,0,1.4217,Andesite_rect,1,1.422,1,12,0,12,0,1,,,,,,,,,,,,,
59bc26d53a9ab60001119700,TCR,2024-06-25_11h40.53.823,LearnStrategy,2023.2.3,Win32,18.72659176,8,1,14,0.053703704,-0.008333333,1,0,0,0.751,rock_grid_rect_2,4,14,-1,-1,0.751,0.428703704,-0.234259259,1,0,0,1.4028,Gabbro_rect,4,1.403,1,13,0,13,0,1,,,,,,,,,,,,,
59bc26d53a9ab60001119700,TCR,2024-06-25_11h40.53.823,LearnStrategy,2023.2.3,Win32,18.72659176,8,1,15,0.022222222,-0.001851852,1,0,0,1.0802,rock_grid_rect_2,1,16,-1,-1,1.08,-0.37037037,-0.247222222,1,0,0,1.219,Andesite_rect,1,1.219,1,14,0,14,0,1,,,,,,,,,,,,,
59bc26d53a9ab60001119700,TCR,2024-06-25_11h40.53.823,LearnStrategy,2023.2.3,Win32,18.72659176,8,1,16,0.099074074,-0.007407407,1,0,0,0.7987,rock_grid_rect_2,5,02,-1,-1,0.799,-0.380555556,-0.419444444,1,0,0,1.0033,Obsidian_rect,5,1.003,1,15,0,15,0,1,,,,,,,,,,,,,
59bc26d53a9ab60001119700,TCR,2024-06-25_11h40.53.823,LearnStrategy,2023.2.3,Win32,18.72659176,8,2,1,,,,,,,,7,16,,,,,,,,,,,7,1.587,1,,,,,,0.122222222,-0.389814815,1,0,0,1.5872,Peridotite_rect,0,0,0,0,1,
59bc26d53a9ab60001119700,TCR,2024-06-25_11h40.53.823,LearnStrategy,2023.2.3,Win32,18.72659176,8,2,2,,,,,,,,2,11,,,,,,,,,,,1,2.615,0,,,,,,-0.375925926,-0.246296296,1,0,0,2.6151,Andesite_rect,1,0,1,0,1,
59bc26d53a9ab60001119700,TCR,2024-06-25_11h40.53.823,LearnStrategy,2023.2.3,Win32,18.72659176,8,2,3,,,,,,,,6,09,,,,,,,,,,,6,3.358,1,,,,,,-0.130555556,-0.388888889,1,0,0,3.3576,Pegmatite_rect,2,0,2,0,1,
59bc26d53a9ab60001119700,TCR,2024-06-25_11h40.53.823,LearnStrategy,2023.2.3,Win32,18.72659176,8,2,4,,,,,,,,3,15,,,,,,,,,,,3,2.938,1,,,,,,0.130555556,-0.262962963,1,0,0,2.9379,Diorite_rect,3,0,3,0,1,
59bc26d53a9ab60001119700,TCR,2024-06-25_11h40.53.823,LearnStrategy,2023.2.3,Win32,18.72659176,8,2,5,,,,,,,,3,10,,,,,,,,,,,3,1.964,1,,,,,,0.127777778,-0.265740741,1,0,0,1.9638,Diorite_rect,4,0,4,0,1,
59bc26d53a9ab60001119700,TCR,2024-06-25_11h40.53.823,LearnStrategy,2023.2.3,Win32,18.72659176,8,2,6,,,,,,,,4,03,,,,,,,,,,,2,1.789,0,,,,,,-0.056481481,-0.249074074,1,0,0,1.7894,Basalt_rect,5,0,5,0,1,
59bc26d53a9ab60001119700,TCR,2024-06-25_11h40.53.823,LearnStrategy,2023.2.3,Win32,18.72659176,8,2,7,,,,,,,,1,09,,,,,,,,,,,2,4.156,0,,,,,,-0.116666667,-0.244444444,1,0,0,4.1564,Basalt_rect,6,0,6,0,1,
59bc26d53a9ab60001119700,TCR,2024-06-25_11h40.53.823,LearnStrategy,2023.2.3,Win32,18.72659176,8,2,8,,,,,,,,1,03,,,,,,,,,,,1,1.507,1,,,,,,-0.346296296,-0.252777778,1,0,0,1.5072,Andesite_rect,7,0,7,0,1,
59bc26d53a9ab60001119700,TCR,2024-06-25_11h40.53.823,LearnStrategy,2023.2.3,Win32,18.72659176,8,2,9,,,,,,,,5,16,,,,,,,,,,,5,1.288,1,,,,,,-0.327777778,-0.382407407,1,0,0,1.288,Obsidian_rect,8,0,8,0,1,
59bc26d53a9ab60001119700,TCR,2024-06-25_11h40.53.823,LearnStrategy,2023.2.3,Win32,18.72659176,8,2,10,,,,,,,,8,06,,,,,,,,,,,8,1.315,1,,,,,,0.400925926,-0.407407407,1,0,0,1.3155,Pumice_rect,9,0,9,0,1,
59bc26d53a9ab60001119700,TCR,2024-06-25_11h40.53.823,LearnStrategy,2023.2.3,Win32,18.72659176,8,2,11,,,,,,,,5,07,,,,,,,,,,,5,1.224,1,,,,,,-0.355555556,-0.389814815,1,0,0,1.2235,Obsidian_rect,10,0,10,0,1,
59bc26d53a9ab60001119700,TCR,2024-06-25_11h40.53.823,LearnStrategy,2023.2.3,Win32,18.72659176,8,2,12,,,,,,,,8,14,,,,,,,,,,,8,1.013,1,,,,,,0.373148148,-0.410185185,1,0,0,1.0125,Pumice_rect,11,0,11,0,1,
59bc26d53a9ab60001119700,TCR,2024-06-25_11h40.53.823,LearnStrategy,2023.2.3,Win32,18.72659176,8,2,13,,,,,,,,2,14,,,,,,,,,,,4,2.841,0,,,,,,0.386111111,-0.25462963,1,0,0,2.841,Gabbro_rect,12,0,12,0,1,
59bc26d53a9ab60001119700,TCR,2024-06-25_11h40.53.823,LearnStrategy,2023.2.3,Win32,18.72659176,8,2,14,,,,,,,,7,14,,,,,,,,,,,7,2.128,1,,,,,,0.119444444,-0.398148148,1,0,0,2.1282,Peridotite_rect,13,0,13,0,1,
59bc26d53a9ab60001119700,TCR,2024-06-25_11h40.53.823,LearnStrategy,2023.2.3,Win32,18.72659176,8,2,15,,,,,,,,4,16,,,,,,,,,,,2,2.941,0,,,,,,-0.112037037,-0.247222222,1,0,0,2.9414,Basalt_rect,14,0,14,0,1,
59bc26d53a9ab60001119700,TCR,2024-06-25_11h40.53.823,LearnStrategy,2023.2.3,Win32,18.72659176,8,2,16,,,,,,,,6,05,,,,,,,,,,,6,1.267,1,,,,,,-0.098148148,-0.403703704,1,0,0,1.2673,Pegmatite_rect,15,0,15,0,1,
59bc26d53a9ab60001119700,TCR,2024-06-25_11h40.53.823,LearnStrategy,2023.2.3,Win32,18.72659176,9,1,1,-0.021296296,-0.007407407,1,0,0,0.7293,rock_grid_rect_2,1,10,-1,-1,0.729,-0.387037037,-0.230555556,1,0,0,1.3583,Andesite_rect,1,1.358,1,0,0,0,0,1,,,,,,,,,,,,,
59bc26d53a9ab60001119700,TCR,2024-06-25_11h40.53.823,LearnStrategy,2023.2.3,Win32,18.72659176,9,1,2,0.003703704,0.00462963,1,0,0,0.794,rock_grid_rect_2,4,01,-1,-1,0.794,0.428703704,-0.266666667,1,0,0,2.1624,Gabbro_rect,4,2.162,1,1,0,1,0,1,,,,,,,,,,,,,
59bc26d53a9ab60001119700,TCR,2024-06-25_11h40.53.823,LearnStrategy,2023.2.3,Win32,18.72659176,9,1,3,0.053703704,-0.009259259,1,0,0,0.7418,rock_grid_rect_2,2,12,-1,-1,0.742,-0.125925926,-0.240740741,1,0,0,1.3312,Basalt_rect,2,1.331,1,2,0,2,0,1,,,,,,,,,,,,,
59bc26d53a9ab60001119700,TCR,2024-06-25_11h40.53.823,LearnStrategy,2023.2.3,Win32,18.72659176,9,1,4,0.130555556,-0.017592593,1,0,0,0.8804,rock_grid_rect_2,8,16,-1,-1,0.88,0.341666667,-0.392592593,1,0,0,1.9019,Pumice_rect,8,1.902,1,3,0,3,0,1,,,,,,,,,,,,,
59bc26d53a9ab60001119700,TCR,2024-06-25_11h40.53.823,LearnStrategy,2023.2.3,Win32,18.72659176,9,1,5,0.080555556,-0.001851852,1,0,0,0.7259,rock_grid_rect_2,2,12,-1,-1,0.726,-0.1,-0.250925926,1,0,0,1.9053,Basalt_rect,2,1.905,1,4,0,4,0,1,,,,,,,,,,,,,
59bc26d53a9ab60001119700,TCR,2024-06-25_11h40.53.823,LearnStrategy,2023.2.3,Win32,18.72659176,9,1,6,0.158333333,0.013888889,1,0,0,0.7824,rock_grid_rect_2,5,04,-1,-1,0.782,-0.383333333,-0.416666667,1,0,0,1.8163,Obsidian_rect,5,1.816,1,5,0,5,0,1,,,,,,,,,,,,,
59bc26d53a9ab60001119700,TCR,2024-06-25_11h40.53.823,LearnStrategy,2023.2.3,Win32,18.72659176,9,1,7,-0.02037037,-0.010185185,1,0,0,0.8235,rock_grid_rect_2,1,05,-1,-1,0.823,-0.386111111,-0.256481481,1,0,0,1.0524,Andesite_rect,1,1.052,1,6,0,6,0,1,,,,,,,,,,,,,
59bc26d53a9ab60001119700,TCR,2024-06-25_11h40.53.823,LearnStrategy,2023.2.3,Win32,18.72659176,9,1,8,0.037962963,-0.006481481,1,0,0,0.8071,rock_grid_rect_2,3,09,-1,-1,0.807,0.114814815,-0.250925926,1,0,0,1.1488,Diorite_rect,3,1.149,1,7,0,7,0,1,,,,,,,,,,,,,
59bc26d53a9ab60001119700,TCR,2024-06-25_11h40.53.823,LearnStrategy,2023.2.3,Win32,18.72659176,9,1,9,0.059259259,-0.016666667,1,0,0,0.6657,rock_grid_rect_2,4,13,-1,-1,0.666,0.347222222,-0.264814815,1,0,0,1.483,Gabbro_rect,4,1.483,1,8,0,8,0,1,,,,,,,,,,,,,
59bc26d53a9ab60001119700,TCR,2024-06-25_11h40.53.823,LearnStrategy,2023.2.3,Win32,18.72659176,9,1,10,0.062962963,-0.003703704,1,0,0,0.8695,rock_grid_rect_2,2,16,-1,-1,0.87,-0.096296296,-0.255555556,1,0,0,1.2806,Basalt_rect,2,1.281,1,9,0,9,0,1,,,,,,,,,,,,,
59bc26d53a9ab60001119700,TCR,2024-06-25_11h40.53.823,LearnStrategy,2023.2.3,Win32,18.72659176,9,1,11,0.155555556,0.007407407,1,0,0,0.6652,rock_grid_rect_2,4,10,-1,-1,0.665,0.427777778,-0.238888889,1,0,0,1.4805,Gabbro_rect,4,1.48,1,10,0,10,0,1,,,,,,,,,,,,,
59bc26d53a9ab60001119700,TCR,2024-06-25_11h40.53.823,LearnStrategy,2023.2.3,Win32,18.72659176,9,1,12,0.072222222,-0.012962963,1,0,0,0.7551,rock_grid_rect_2,4,14,-1,-1,0.755,0.388888889,-0.255555556,1,0,0,2.9865,Gabbro_rect,4,2.986,1,11,0,11,0,1,,,,,,,,,,,,,
59bc26d53a9ab60001119700,TCR,2024-06-25_11h40.53.823,LearnStrategy,2023.2.3,Win32,18.72659176,9,1,13,0.127777778,0.005555556,1,0,0,0.6725,rock_grid_rect_2,6,12,-1,-1,0.673,-0.114814815,-0.394444444,1,0,0,1.2627,Pegmatite_rect,6,1.263,1,12,0,12,0,1,,,,,,,,,,,,,
59bc26d53a9ab60001119700,TCR,2024-06-25_11h40.53.823,LearnStrategy,2023.2.3,Win32,18.72659176,9,1,14,0.073148148,-0.015740741,1,0,0,0.8175,rock_grid_rect_2,2,10,-1,-1,0.817,-0.128703704,-0.251851852,1,0,0,3.6874,Basalt_rect,2,3.687,1,13,0,13,0,1,,,,,,,,,,,,,
59bc26d53a9ab60001119700,TCR,2024-06-25_11h40.53.823,LearnStrategy,2023.2.3,Win32,18.72659176,9,1,15,0.022222222,0.002777778,1,0,0,0.8129,rock_grid_rect_2,7,15,-1,-1,0.813,0.190740741,-0.400925926,1,0,0,1.0517,Peridotite_rect,7,1.052,1,14,0,14,0,1,,,,,,,,,,,,,
59bc26d53a9ab60001119700,TCR,2024-06-25_11h40.53.823,LearnStrategy,2023.2.3,Win32,18.72659176,9,1,16,0.048148148,-0.016666667,1,0,0,0.8572,rock_grid_rect_2,1,06,-1,-1,0.857,-0.373148148,-0.237962963,1,0,0,1.0566,Andesite_rect,1,1.057,1,15,0,15,0,1,,,,,,,,,,,,,
59bc26d53a9ab60001119700,TCR,2024-06-25_11h40.53.823,LearnStrategy,2023.2.3,Win32,18.72659176,9,2,1,,,,,,,,2,01,,,,,,,,,,,2,1.278,1,,,,,,-0.103703704,-0.252777778,1,0,0,1.2781,Basalt_rect,0,0,0,0,1,
59bc26d53a9ab60001119700,TCR,2024-06-25_11h40.53.823,LearnStrategy,2023.2.3,Win32,18.72659176,9,2,2,,,,,,,,4,05,,,,,,,,,,,4,2.305,1,,,,,,0.437037037,-0.24537037,1,0,0,2.3051,Gabbro_rect,1,0,1,0,1,
59bc26d53a9ab60001119700,TCR,2024-06-25_11h40.53.823,LearnStrategy,2023.2.3,Win32,18.72659176,9,2,3,,,,,,,,7,02,,,,,,,,,,,7,1.329,1,,,,,,0.140740741,-0.403703704,1,0,0,1.3291,Peridotite_rect,2,0,2,0,1,
59bc26d53a9ab60001119700,TCR,2024-06-25_11h40.53.823,LearnStrategy,2023.2.3,Win32,18.72659176,9,2,4,,,,,,,,1,02,,,,,,,,,,,1,1.416,1,,,,,,-0.350925926,-0.252777778,1,0,0,1.4162,Andesite_rect,3,0,3,0,1,
59bc26d53a9ab60001119700,TCR,2024-06-25_11h40.53.823,LearnStrategy,2023.2.3,Win32,18.72659176,9,2,5,,,,,,,,5,08,,,,,,,,,,,5,1.227,1,,,,,,-0.412962963,-0.393518519,1,0,0,1.2272,Obsidian_rect,4,0,4,0,1,
59bc26d53a9ab60001119700,TCR,2024-06-25_11h40.53.823,LearnStrategy,2023.2.3,Win32,18.72659176,9,2,6,,,,,,,,8,04,,,,,,,,,,,8,1.149,1,,,,,,0.358333333,-0.412962963,1,0,0,1.1492,Pumice_rect,5,0,5,0,1,
59bc26d53a9ab60001119700,TCR,2024-06-25_11h40.53.823,LearnStrategy,2023.2.3,Win32,18.72659176,9,2,7,,,,,,,,5,06,,,,,,,,,,,5,1.244,1,,,,,,-0.357407407,-0.411111111,1,0,0,1.2443,Obsidian_rect,6,0,6,0,1,
59bc26d53a9ab60001119700,TCR,2024-06-25_11h40.53.823,LearnStrategy,2023.2.3,Win32,18.72659176,9,2,8,,,,,,,,4,11,,,,,,,,,,,2,2.586,0,,,,,,-0.087037037,-0.22962963,1,0,0,2.5859,Basalt_rect,7,0,7,0,1,
59bc26d53a9ab60001119700,TCR,2024-06-25_11h40.53.823,LearnStrategy,2023.2.3,Win32,18.72659176,9,2,9,,,,,,,,1,07,,,,,,,,,,,6,1.8,0,,,,,,-0.130555556,-0.408333333,1,0,0,1.8002,Pegmatite_rect,8,0,8,0,1,
59bc26d53a9ab60001119700,TCR,2024-06-25_11h40.53.823,LearnStrategy,2023.2.3,Win32,18.72659176,9,2,10,,,,,,,,3,11,,,,,,,,,,,3,1.284,1,,,,,,0.088888889,-0.247222222,1,0,0,1.284,Diorite_rect,9,0,9,0,1,
59bc26d53a9ab60001119700,TCR,2024-06-25_11h40.53.823,LearnStrategy,2023.2.3,Win32,18.72659176,9,2,11,,,,,,,,6,13,,,,,,,,,,,6,1.531,1,,,,,,-0.081481481,-0.39537037,1,0,0,1.531,Pegmatite_rect,10,0,10,0,1,
59bc26d53a9ab60001119700,TCR,2024-06-25_11h40.53.823,LearnStrategy,2023.2.3,Win32,18.72659176,9,2,12,,,,,,,,6,16,,,,,,,,,,,6,2.14,1,,,,,,-0.103703704,-0.401851852,1,0,0,2.1403,Pegmatite_rect,11,0,11,0,1,
59bc26d53a9ab60001119700,TCR,2024-06-25_11h40.53.823,LearnStrategy,2023.2.3,Win32,18.72659176,9,2,13,,,,,,,,7,10,,,,,,,,,,,7,1.11,1,,,,,,0.112962963,-0.408333333,1,0,0,1.1096,Peridotite_rect,12,0,12,0,1,
59bc26d53a9ab60001119700,TCR,2024-06-25_11h40.53.823,LearnStrategy,2023.2.3,Win32,18.72659176,9,2,14,,,,,,,,8,05,,,,,,,,,,,8,1.072,1,,,,,,0.438888889,-0.400925926,1,0,0,1.0722,Pumice_rect,13,0,13,0,1,
59bc26d53a9ab60001119700,TCR,2024-06-25_11h40.53.823,LearnStrategy,2023.2.3,Win32,18.72659176,9,2,15,,,,,,,,2,09,,,,,,,,,,,2,2.476,1,,,,,,-0.092592593,-0.25,1,0,0,2.4761,Basalt_rect,14,0,14,0,1,
59bc26d53a9ab60001119700,TCR,2024-06-25_11h40.53.823,LearnStrategy,2023.2.3,Win32,18.72659176,9,2,16,,,,,,,,3,08,,,,,,,,,,,3,1.147,1,,,,,,0.152777778,-0.246296296,1,0,0,1.1466,Diorite_rect,15,0,15,0,1,
59bc26d53a9ab60001119700,TCR,2024-06-25_11h40.53.823,LearnStrategy,2023.2.3,Win32,18.72659176,,,,,,,,,,,,,,,,,,,,,,,,,,,,,,,,,,,,,,,,,,,1
59bc26d53a9ab60001119700,TCR,2024-06-25_11h40.53.823,LearnStrategy,2023.2.3,Win32,18.72659176,,,,,,,,,,,,,,,,,,,,,,,,,,,,,,,,,,,,,,,,,,,
59bc26d53a9ab60001119700,TCR,2024-06-25_11h40.53.823,LearnStrategy,2023.2.3,Win32,18.72659176,,,,,,,,,,,6,10,1,1,,,,,,,,,,,,,,,,,,,,,,,,,,,,,
59bc26d53a9ab60001119700,TCR,2024-06-25_11h40.53.823,LearnStrategy,2023.2.3,Win32,18.72659176,,,,,,,,,,,3,06,1,2,,,,,,,,,,,,,,,,,,,,,,,,,,,,,
59bc26d53a9ab60001119700,TCR,2024-06-25_11h40.53.823,LearnStrategy,2023.2.3,Win32,18.72659176,,,,,,,,,,,1,05,1,3,,,,,,,,,,,,,,,,,,,,,,,,,,,,,
59bc26d53a9ab60001119700,TCR,2024-06-25_11h40.53.823,LearnStrategy,2023.2.3,Win32,18.72659176,,,,,,,,,,,8,03,1,4,,,,,,,,,,,,,,,,,,,,,,,,,,,,,
59bc26d53a9ab60001119700,TCR,2024-06-25_11h40.53.823,LearnStrategy,2023.2.3,Win32,18.72659176,,,,,,,,,,,3,16,1,5,,,,,,,,,,,,,,,,,,,,,,,,,,,,,
59bc26d53a9ab60001119700,TCR,2024-06-25_11h40.53.823,LearnStrategy,2023.2.3,Win32,18.72659176,,,,,,,,,,,5,11,1,6,,,,,,,,,,,,,,,,,,,,,,,,,,,,,
59bc26d53a9ab60001119700,TCR,2024-06-25_11h40.53.823,LearnStrategy,2023.2.3,Win32,18.72659176,,,,,,,,,,,3,09,1,7,,,,,,,,,,,,,,,,,,,,,,,,,,,,,
59bc26d53a9ab60001119700,TCR,2024-06-25_11h40.53.823,LearnStrategy,2023.2.3,Win32,18.72659176,,,,,,,,,,,4,13,1,8,,,,,,,,,,,,,,,,,,,,,,,,,,,,,
59bc26d53a9ab60001119700,TCR,2024-06-25_11h40.53.823,LearnStrategy,2023.2.3,Win32,18.72659176,,,,,,,,,,,7,12,2,1,,,,,,,,,,,,,,,,,,,,,,,,,,,,,
59bc26d53a9ab60001119700,TCR,2024-06-25_11h40.53.823,LearnStrategy,2023.2.3,Win32,18.72659176,,,,,,,,,,,5,04,2,2,,,,,,,,,,,,,,,,,,,,,,,,,,,,,
59bc26d53a9ab60001119700,TCR,2024-06-25_11h40.53.823,LearnStrategy,2023.2.3,Win32,18.72659176,,,,,,,,,,,1,06,2,3,,,,,,,,,,,,,,,,,,,,,,,,,,,,,
59bc26d53a9ab60001119700,TCR,2024-06-25_11h40.53.823,LearnStrategy,2023.2.3,Win32,18.72659176,,,,,,,,,,,6,03,2,4,,,,,,,,,,,,,,,,,,,,,,,,,,,,,
59bc26d53a9ab60001119700,TCR,2024-06-25_11h40.53.823,LearnStrategy,2023.2.3,Win32,18.72659176,,,,,,,,,,,6,07,2,5,,,,,,,,,,,,,,,,,,,,,,,,,,,,,
59bc26d53a9ab60001119700,TCR,2024-06-25_11h40.53.823,LearnStrategy,2023.2.3,Win32,18.72659176,,,,,,,,,,,7,05,2,6,,,,,,,,,,,,,,,,,,,,,,,,,,,,,
59bc26d53a9ab60001119700,TCR,2024-06-25_11h40.53.823,LearnStrategy,2023.2.3,Win32,18.72659176,,,,,,,,,,,8,13,2,7,,,,,,,,,,,,,,,,,,,,,,,,,,,,,
59bc26d53a9ab60001119700,TCR,2024-06-25_11h40.53.823,LearnStrategy,2023.2.3,Win32,18.72659176,,,,,,,,,,,2,12,2,8,,,,,,,,,,,,,,,,,,,,,,,,,,,,,
59bc26d53a9ab60001119700,TCR,2024-06-25_11h40.53.823,LearnStrategy,2023.2.3,Win32,18.72659176,,,,,,,,,,,8,15,3,1,,,,,,,,,,,,,,,,,,,,,,,,,,,,,
59bc26d53a9ab60001119700,TCR,2024-06-25_11h40.53.823,LearnStrategy,2023.2.3,Win32,18.72659176,,,,,,,,,,,1,10,3,2,,,,,,,,,,,,,,,,,,,,,,,,,,,,,
59bc26d53a9ab60001119700,TCR,2024-06-25_11h40.53.823,LearnStrategy,2023.2.3,Win32,18.72659176,,,,,,,,,,,7,13,3,3,,,,,,,,,,,,,,,,,,,,,,,,,,,,,
59bc26d53a9ab60001119700,TCR,2024-06-25_11h40.53.823,LearnStrategy,2023.2.3,Win32,18.72659176,,,,,,,,,,,5,14,3,4,,,,,,,,,,,,,,,,,,,,,,,,,,,,,
59bc26d53a9ab60001119700,TCR,2024-06-25_11h40.53.823,LearnStrategy,2023.2.3,Win32,18.72659176,,,,,,,,,,,3,13,3,5,,,,,,,,,,,,,,,,,,,,,,,,,,,,,
59bc26d53a9ab60001119700,TCR,2024-06-25_11h40.53.823,LearnStrategy,2023.2.3,Win32,18.72659176,,,,,,,,,,,1,16,3,6,,,,,,,,,,,,,,,,,,,,,,,,,,,,,
59bc26d53a9ab60001119700,TCR,2024-06-25_11h40.53.823,LearnStrategy,2023.2.3,Win32,18.72659176,,,,,,,,,,,6,12,3,7,,,,,,,,,,,,,,,,,,,,,,,,,,,,,
59bc26d53a9ab60001119700,TCR,2024-06-25_11h40.53.823,LearnStrategy,2023.2.3,Win32,18.72659176,,,,,,,,,,,4,14,3,8,,,,,,,,,,,,,,,,,,,,,,,,,,,,,
59bc26d53a9ab60001119700,TCR,2024-06-25_11h40.53.823,LearnStrategy,2023.2.3,Win32,18.72659176,,,,,,,,,,,6,11,4,1,,,,,,,,,,,,,,,,,,,,,,,,,,,,,
59bc26d53a9ab60001119700,TCR,2024-06-25_11h40.53.823,LearnStrategy,2023.2.3,Win32,18.72659176,,,,,,,,,,,2,10,4,2,,,,,,,,,,,,,,,,,,,,,,,,,,,,,
59bc26d53a9ab60001119700,TCR,2024-06-25_11h40.53.823,LearnStrategy,2023.2.3,Win32,18.72659176,,,,,,,,,,,2,06,4,3,,,,,,,,,,,,,,,,,,,,,,,,,,,,,
59bc26d53a9ab60001119700,TCR,2024-06-25_11h40.53.823,LearnStrategy,2023.2.3,Win32,18.72659176,,,,,,,,,,,2,08,4,4,,,,,,,,,,,,,,,,,,,,,,,,,,,,,
59bc26d53a9ab60001119700,TCR,2024-06-25_11h40.53.823,LearnStrategy,2023.2.3,Win32,18.72659176,,,,,,,,,,,6,15,4,5,,,,,,,,,,,,,,,,,,,,,,,,,,,,,
59bc26d53a9ab60001119700,TCR,2024-06-25_11h40.53.823,LearnStrategy,2023.2.3,Win32,18.72659176,,,,,,,,,,,5,12,4,6,,,,,,,,,,,,,,,,,,,,,,,,,,,,,
59bc26d53a9ab60001119700,TCR,2024-06-25_11h40.53.823,LearnStrategy,2023.2.3,Win32,18.72659176,,,,,,,,,,,4,01,4,7,,,,,,,,,,,,,,,,,,,,,,,,,,,,,
59bc26d53a9ab60001119700,TCR,2024-06-25_11h40.53.823,LearnStrategy,2023.2.3,Win32,18.72659176,,,,,,,,,,,7,15,4,8,,,,,,,,,,,,,,,,,,,,,,,,,,,,,
59bc26d53a9ab60001119700,TCR,2024-06-25_11h40.53.823,LearnStrategy,2023.2.3,Win32,18.72659176,,,,,,,,,,,5,02,5,1,,,,,,,,,,,,,,,,,,,,,,,,,,,,,
59bc26d53a9ab60001119700,TCR,2024-06-25_11h40.53.823,LearnStrategy,2023.2.3,Win32,18.72659176,,,,,,,,,,,7,07,5,2,,,,,,,,,,,,,,,,,,,,,,,,,,,,,
59bc26d53a9ab60001119700,TCR,2024-06-25_11h40.53.823,LearnStrategy,2023.2.3,Win32,18.72659176,,,,,,,,,,,1,04,5,3,,,,,,,,,,,,,,,,,,,,,,,,,,,,,
59bc26d53a9ab60001119700,TCR,2024-06-25_11h40.53.823,LearnStrategy,2023.2.3,Win32,18.72659176,,,,,,,,,,,7,04,5,4,,,,,,,,,,,,,,,,,,,,,,,,,,,,,
59bc26d53a9ab60001119700,TCR,2024-06-25_11h40.53.823,LearnStrategy,2023.2.3,Win32,18.72659176,,,,,,,,,,,8,16,5,5,,,,,,,,,,,,,,,,,,,,,,,,,,,,,
59bc26d53a9ab60001119700,TCR,2024-06-25_11h40.53.823,LearnStrategy,2023.2.3,Win32,18.72659176,,,,,,,,,,,2,05,5,6,,,,,,,,,,,,,,,,,,,,,,,,,,,,,
59bc26d53a9ab60001119700,TCR,2024-06-25_11h40.53.823,LearnStrategy,2023.2.3,Win32,18.72659176,,,,,,,,,,,4,10,5,7,,,,,,,,,,,,,,,,,,,,,,,,,,,,,
59bc26d53a9ab60001119700,TCR,2024-06-25_11h40.53.823,LearnStrategy,2023.2.3,Win32,18.72659176,,,,,,,,,,,3,14,5,8,,,,,,,,,,,,,,,,,,,,,,,,,,,,,
59bc26d53a9ab60001119700,TCR,2024-06-25_11h40.53.823,LearnStrategy,2023.2.3,Win32,18.72659176,,,,,,,,,,,1,14,6,1,,,,,,,,,,,,,,,,,,,,,,,,,,,,,
59bc26d53a9ab60001119700,TCR,2024-06-25_11h40.53.823,LearnStrategy,2023.2.3,Win32,18.72659176,,,,,,,,,,,2,16,6,2,,,,,,,,,,,,,,,,,,,,,,,,,,,,,
59bc26d53a9ab60001119700,TCR,2024-06-25_11h40.53.823,LearnStrategy,2023.2.3,Win32,18.72659176,,,,,,,,,,,8,10,6,3,,,,,,,,,,,,,,,,,,,,,,,,,,,,,
59bc26d53a9ab60001119700,TCR,2024-06-25_11h40.53.823,LearnStrategy,2023.2.3,Win32,18.72659176,,,,,,,,,,,4,09,6,4,,,,,,,,,,,,,,,,,,,,,,,,,,,,,
59bc26d53a9ab60001119700,TCR,2024-06-25_11h40.53.823,LearnStrategy,2023.2.3,Win32,18.72659176,,,,,,,,,,,3,07,6,5,,,,,,,,,,,,,,,,,,,,,,,,,,,,,
59bc26d53a9ab60001119700,TCR,2024-06-25_11h40.53.823,LearnStrategy,2023.2.3,Win32,18.72659176,,,,,,,,,,,4,12,6,6,,,,,,,,,,,,,,,,,,,,,,,,,,,,,
59bc26d53a9ab60001119700,TCR,2024-06-25_11h40.53.823,LearnStrategy,2023.2.3,Win32,18.72659176,,,,,,,,,,,8,09,6,7,,,,,,,,,,,,,,,,,,,,,,,,,,,,,
59bc26d53a9ab60001119700,TCR,2024-06-25_11h40.53.823,LearnStrategy,2023.2.3,Win32,18.72659176,,,,,,,,,,,5,05,6,8,,,,,,,,,,,,,,,,,,,,,,,,,,,,,