participant,condition,date,expName,psychopyVersion,OS,frameRate,block,phase,trial,learn_mouse.x,learn_mouse.y,learn_mouse.leftButton,learn_mouse.midButton,learn_mouse.rightButton,learn_mouse.time,learn_mouse.clicked_name,cat,token,row,col,t_select,cat_rec,token_rec,cat_mouse_l.x,cat_mouse_l.y,cat_mouse_l.leftButton,cat_mouse_l.midButton,cat_mouse_l.rightButton,cat_mouse_l.time,cat_mouse_l.clicked_name,resp,t_resp,corr,train_trials.thisRepN,train_trials.thisTrialN,train_trials.thisN,train_trials.thisIndex,train_trials.ran,cat_mouse_t.x,cat_mouse_t.y,cat_mouse_t.leftButton,cat_mouse_t.midButton,cat_mouse_t.rightButton,cat_mouse_t.time,cat_mouse_t.clicked_name,test_trials.thisRepN,test_trials.thisTrialN,test_trials.thisN,test_trials.thisIndex,test_trials.ran,Bonus
59d1e366faf42e00012b6c1c,SCR,2024-06-20_16h29.57.572,LearnStrategy,2023.2.3,Win32,60.24096386,,,,,,,,,,,,,,,,,,,,,,,,,,,,,,,,,,,,,,,,,,,,,
59d1e366faf42e00012b6c1c,SCR,2024-06-20_16h29.57.572,LearnStrategy,2023.2.3,Win32,60.24096386,1,1,1,-0.230208333,0.248697917,1,0,0,20.3711,Gabbro_05,4,05,5,3,20.371,4,05,0.168229167,-0.388020833,1,0,0,13.9903,Peridotite_rect,7,13.99,0,0,0,0,0,1,,,,,,,,,,,,,
59d1e366faf42e00012b6c1c,SCR,2024-06-20_16h29.57.572,LearnStrategy,2023.2.3,Win32,60.24096386,1,1,2,-0.109114583,-0.119791667,1,0,0,3.7236,Gabbro_01,4,01,3,4,3.724,4,01,-0.13125,-0.252604167,1,0,0,9.3421,Basalt_rect,2,9.342,0,1,0,1,0,1,,,,,,,,,,,,,
59d1e366faf42e00012b6c1c,SCR,2024-06-20_16h29.57.572,LearnStrategy,2023.2.3,Win32,60.24096386,1,1,3,-0.067447917,0.415364583,1,0,0,3.510900001,Andesite_07,1,07,6,4,3.511,1,07,-0.094791667,-0.40625,1,0,0,6.635099999,Pegmatite_rect,6,6.635,0,2,0,2,0,1,,,,,,,,,,,,,
59d1e366faf42e00012b6c1c,SCR,2024-06-20_16h29.57.572,LearnStrategy,2023.2.3,Win32,60.24096386,1,1,4,-0.58046875,0.381510417,1,0,0,4.7267,Basalt_10,2,10,6,1,4.727,2,10,0.437760417,-0.391927083,1,0,0,6.0938,Pumice_rect,8,6.094,0,3,0,3,0,1,,,,,,,,,,,,,
59d1e366faf42e00012b6c1c,SCR,2024-06-20_16h29.57.572,LearnStrategy,2023.2.3,Win32,60.24096386,1,1,5,-0.241927083,-0.251302083,1,0,0,2.0716,Diorite_08,3,08,2,3,2.072,3,08,-0.105208333,-0.3984375,1,0,0,6.6388,Pegmatite_rect,6,6.639,0,4,0,4,0,1,,,,,,,,,,,,,
59d1e366faf42e00012b6c1c,SCR,2024-06-20_16h29.57.572,LearnStrategy,2023.2.3,Win32,60.24096386,1,1,6,-0.409895833,-0.453125,1,0,0,3.6759,Andesite_04,1,04,1,2,3.676,1,04,-0.101302083,-0.389322917,1,0,0,5.2425,Pegmatite_rect,6,5.242,0,5,0,5,0,1,,,,,,,,,,,,,
59d1e366faf42e00012b6c1c,SCR,2024-06-20_16h29.57.572,LearnStrategy,2023.2.3,Win32,60.24096386,1,1,7,-0.254947917,-0.384114583,1,0,0,2.349,Basalt_02,2,02,1,3,2.349,2,02,0.151302083,-0.239583333,1,0,0,8.7297,Diorite_rect,3,8.73,0,6,0,6,0,1,,,,,,,,,,,,,
59d1e366faf42e00012b6c1c,SCR,2024-06-20_16h29.57.572,LearnStrategy,2023.2.3,Win32,60.24096386,1,1,8,-0.570052083,0.252604167,1,0,0,1.825900001,Pegmatite_03,6,03,5,1,1.826,6,03,0.1890625,-0.397135417,1,0,0,2.889900001,Peridotite_rect,7,2.89,0,7,0,7,0,1,,,,,,,,,,,,,
59d1e366faf42e00012b6c1c,SCR,2024-06-20_16h29.57.572,LearnStrategy,2023.2.3,Win32,60.24096386,1,1,9,0.242447917,0.055989583,1,0,0,2.09,Peridotite_16,7,16,4,6,2.09,7,16,0.140885417,-0.24609375,1,0,0,4.1469,Diorite_rect,3,4.147,0,8,0,8,0,1,,,,,,,,,,,,,
59d1e366faf42e00012b6c1c,SCR,2024-06-20_16h29.57.572,LearnStrategy,2023.2.3,Win32,60.24096386,1,1,10,-0.274479167,-0.1015625,1,0,0,1.687200001,Diorite_10,3,10,3,3,1.687,3,10,0.402604167,-0.247395833,1,0,0,3.783,Gabbro_rect,4,3.783,0,9,0,9,0,1,,,,,,,,,,,,,
59d1e366faf42e00012b6c1c,SCR,2024-06-20_16h29.57.572,LearnStrategy,2023.2.3,Win32,60.24096386,1,1,11,-0.398177083,0.401041667,1,0,0,1.599799999,Pegmatite_05,6,05,6,2,1.6,6,05,-0.094791667,-0.39453125,1,0,0,4.3495,Pegmatite_rect,6,4.35,1,10,0,10,0,1,,,,,,,,,,,,,
59d1e366faf42e00012b6c1c,SCR,2024-06-20_16h29.57.572,LearnStrategy,2023.2.3,Win32,60.24096386,1,1,12,0.26328125,-0.384114583,1,0,0,2.0415,Pumice_04,8,04,1,6,2.041,8,04,0.415625,-0.393229167,1,0,0,2.1602,Pumice_rect,8,2.16,1,11,0,11,0,1,,,,,,,,,,,,,
59d1e366faf42e00012b6c1c,SCR,2024-06-20_16h29.57.572,LearnStrategy,2023.2.3,Win32,60.24096386,1,1,13,0.101822917,0.122395833,1,0,0,1.4071,Pumice_08,8,08,4,5,1.407,8,08,0.415625,-0.385416667,1,0,0,1.4018,Pumice_rect,8,1.402,1,12,0,12,0,1,,,,,,,,,,,,,
59d1e366faf42e00012b6c1c,SCR,2024-06-20_16h29.57.572,LearnStrategy,2023.2.3,Win32,60.24096386,1,1,14,-0.075260417,0.104166667,1,0,0,1.362,Obsidian_11,5,11,4,4,1.362,5,11,-0.3578125,-0.397135417,1,0,0,4.4323,Obsidian_rect,5,4.432,1,13,0,13,0,1,,,,,,,,,,,,,
59d1e366faf42e00012b6c1c,SCR,2024-06-20_16h29.57.572,LearnStrategy,2023.2.3,Win32,60.24096386,1,1,15,-0.4046875,-0.264322917,1,0,0,1.7414,Peridotite_02,7,02,2,2,1.741,7,02,-0.12734375,-0.239583333,1,0,0,2.8228,Basalt_rect,2,2.823,0,14,0,14,0,1,,,,,,,,,,,,,
59d1e366faf42e00012b6c1c,SCR,2024-06-20_16h29.57.572,LearnStrategy,2023.2.3,Win32,60.24096386,1,1,16,0.394791667,0.411458333,1,0,0,1.7725,Obsidian_16,5,16,6,7,1.772,5,16,-0.398177083,-0.393229167,1,0,0,4.3431,Obsidian_rect,5,4.343,1,15,0,15,0,1,,,,,,,,,,,,,
59d1e366faf42e00012b6c1c,SCR,2024-06-20_16h29.57.572,LearnStrategy,2023.2.3,Win32,60.24096386,1,2,1,,,,,,,,8,03,,,,,,,,,,,,,8,2.855,1,,,,,,0.445572917,-0.3984375,1,0,0,2.8553,Pumice_rect,0,0,0,0,1,
59d1e366faf42e00012b6c1c,SCR,2024-06-20_16h29.57.572,LearnStrategy,2023.2.3,Win32,60.24096386,1,2,2,,,,,,,,4,09,,,,,,,,,,,,,4,8.565,1,,,,,,0.416927083,-0.235677083,1,0,0,8.5645,Gabbro_rect,1,0,1,0,1,
59d1e366faf42e00012b6c1c,SCR,2024-06-20_16h29.57.572,LearnStrategy,2023.2.3,Win32,60.24096386,1,2,3,,,,,,,,4,13,,,,,,,,,,,,,6,4.799,0,,,,,,-0.116927083,-0.416666667,1,0,0,4.7993,Pegmatite_rect,2,0,2,0,1,
59d1e366faf42e00012b6c1c,SCR,2024-06-20_16h29.57.572,LearnStrategy,2023.2.3,Win32,60.24096386,1,2,4,,,,,,,,2,04,,,,,,,,,,,,,5,4.779,0,,,,,,-0.390364583,-0.381510417,1,0,0,4.779099999,Obsidian_rect,3,0,3,0,1,
59d1e366faf42e00012b6c1c,SCR,2024-06-20_16h29.57.572,LearnStrategy,2023.2.3,Win32,60.24096386,1,2,5,,,,,,,,3,09,,,,,,,,,,,,,2,5.458,0,,,,,,-0.106510417,-0.24609375,1,0,0,5.4584,Basalt_rect,4,0,4,0,1,
59d1e366faf42e00012b6c1c,SCR,2024-06-20_16h29.57.572,LearnStrategy,2023.2.3,Win32,60.24096386,1,2,6,,,,,,,,1,03,,,,,,,,,,,,,6,5.552,0,,,,,,-0.1,-0.40234375,1,0,0,5.5517,Pegmatite_rect,5,0,5,0,1,
59d1e366faf42e00012b6c1c,SCR,2024-06-20_16h29.57.572,LearnStrategy,2023.2.3,Win32,60.24096386,1,2,7,,,,,,,,6,09,,,,,,,,,,,,,4,8.392,0,,,,,,0.410416667,-0.248697917,1,0,0,8.3917,Gabbro_rect,6,0,6,0,1,
59d1e366faf42e00012b6c1c,SCR,2024-06-20_16h29.57.572,LearnStrategy,2023.2.3,Win32,60.24096386,1,2,8,,,,,,,,7,10,,,,,,,,,,,,,6,3.778,0,,,,,,-0.093489583,-0.389322917,1,0,0,3.7781,Pegmatite_rect,7,0,7,0,1,
59d1e366faf42e00012b6c1c,SCR,2024-06-20_16h29.57.572,LearnStrategy,2023.2.3,Win32,60.24096386,1,2,9,,,,,,,,6,11,,,,,,,,,,,,,1,4.077,0,,,,,,-0.379947917,-0.235677083,1,0,0,4.077,Andesite_rect,8,0,8,0,1,
59d1e366faf42e00012b6c1c,SCR,2024-06-20_16h29.57.572,LearnStrategy,2023.2.3,Win32,60.24096386,1,2,10,,,,,,,,5,06,,,,,,,,,,,,,5,2.168,1,,,,,,-0.38125,-0.390625,1,0,0,2.168099999,Obsidian_rect,9,0,9,0,1,
59d1e366faf42e00012b6c1c,SCR,2024-06-20_16h29.57.572,LearnStrategy,2023.2.3,Win32,60.24096386,1,2,11,,,,,,,,5,12,,,,,,,,,,,,,5,1.73,1,,,,,,-0.359114583,-0.401041667,1,0,0,1.7297,Obsidian_rect,10,0,10,0,1,
59d1e366faf42e00012b6c1c,SCR,2024-06-20_16h29.57.572,LearnStrategy,2023.2.3,Win32,60.24096386,1,2,12,,,,,,,,8,15,,,,,,,,,,,,,8,1.698,1,,,,,,0.440364583,-0.393229167,1,0,0,1.6976,Pumice_rect,11,0,11,0,1,
59d1e366faf42e00012b6c1c,SCR,2024-06-20_16h29.57.572,LearnStrategy,2023.2.3,Win32,60.24096386,1,2,13,,,,,,,,1,10,,,,,,,,,,,,,8,2.171,0,,,,,,0.418229167,-0.421875,1,0,0,2.171299999,Pumice_rect,12,0,12,0,1,
59d1e366faf42e00012b6c1c,SCR,2024-06-20_16h29.57.572,LearnStrategy,2023.2.3,Win32,60.24096386,1,2,14,,,,,,,,7,06,,,,,,,,,,,,,6,7.323,0,,,,,,-0.08046875,-0.393229167,1,0,0,7.323099999,Pegmatite_rect,13,0,13,0,1,
59d1e366faf42e00012b6c1c,SCR,2024-06-20_16h29.57.572,LearnStrategy,2023.2.3,Win32,60.24096386,1,2,15,,,,,,,,2,08,,,,,,,,,,,,,5,4.027,0,,,,,,-0.407291667,-0.407552083,1,0,0,4.0269,Obsidian_rect,14,0,14,0,1,
59d1e366faf42e00012b6c1c,SCR,2024-06-20_16h29.57.572,LearnStrategy,2023.2.3,Win32,60.24096386,1,2,16,,,,,,,,3,11,,,,,,,,,,,,,7,6.049,0,,,,,,0.147395833,-0.389322917,1,0,0,6.0491,Peridotite_rect,15,0,15,0,1,
59d1e366faf42e00012b6c1c,SCR,2024-06-20_16h29.57.572,LearnStrategy,2023.2.3,Win32,60.24096386,2,1,1,0.43125,0.104166667,1,0,0,2.2671,Diorite_14,3,14,4,7,2.267,3,14,-0.09609375,-0.408854167,1,0,0,3.5855,Pegmatite_rect,6,3.586,0,0,0,0,0,1,,,,,,,,,,,,,
59d1e366faf42e00012b6c1c,SCR,2024-06-20_16h29.57.572,LearnStrategy,2023.2.3,Win32,60.24096386,2,1,2,0.422135417,-0.4140625,1,0,0,2.3133,Pegmatite_10,6,10,1,7,2.313,6,10,0.10703125,-0.411458333,1,0,0,4.097299999,Peridotite_rect,7,4.097,0,1,0,1,0,1,,,,,,,,,,,,,
59d1e366faf42e00012b6c1c,SCR,2024-06-20_16h29.57.572,LearnStrategy,2023.2.3,Win32,60.24096386,2,1,3,0.258072917,0.415364583,1,0,0,2.0045,Diorite_15,3,15,6,6,2.005,3,15,0.129166667,-0.25390625,1,0,0,4.4301,Diorite_rect,3,4.43,1,2,0,2,0,1,,,,,,,,,,,,,
59d1e366faf42e00012b6c1c,SCR,2024-06-20_16h29.57.572,LearnStrategy,2023.2.3,Win32,60.24096386,2,1,4,-0.536197917,0.084635417,1,0,0,1.5652,Peridotite_15,7,15,4,1,1.565,7,15,0.164322917,-0.23828125,1,0,0,4.1399,Diorite_rect,3,4.14,0,3,0,3,0,1,,,,,,,,,,,,,
59d1e366faf42e00012b6c1c,SCR,2024-06-20_16h29.57.572,LearnStrategy,2023.2.3,Win32,60.24096386,2,1,5,-0.570052083,-0.243489583,1,0,0,1.714799999,Obsidian_14,5,14,2,1,1.715,5,14,-0.35,-0.411458333,1,0,0,1.905099999,Obsidian_rect,5,1.905,1,4,0,4,0,1,,,,,,,,,,,,,
59d1e366faf42e00012b6c1c,SCR,2024-06-20_16h29.57.572,LearnStrategy,2023.2.3,Win32,60.24096386,2,1,6,0.36484375,-0.09375,1,0,0,1.2611,Andesite_01,1,01,3,7,1.261,1,01,0.112239583,-0.270833333,1,0,0,2.955799999,Diorite_rect,3,2.956,0,5,0,5,0,1,,,,,,,,,,,,,
59d1e366faf42e00012b6c1c,SCR,2024-06-20_16h29.57.572,LearnStrategy,2023.2.3,Win32,60.24096386,2,1,7,0.245052083,0.268229167,1,0,0,1.9546,Peridotite_08,7,08,5,6,1.955,7,08,0.393489583,-0.399739583,1,0,0,1.4757,Pumice_rect,8,1.476,0,6,0,6,0,1,,,,,,,,,,,,,
59d1e366faf42e00012b6c1c,SCR,2024-06-20_16h29.57.572,LearnStrategy,2023.2.3,Win32,60.24096386,2,1,8,0.414322917,-0.071614583,1,0,0,1.3279,Andesite_01,1,01,3,7,1.328,1,01,0.163020833,-0.380208333,1,0,0,4.2498,Peridotite_rect,7,4.25,0,7,0,7,0,1,,,,,,,,,,,,,
59d1e366faf42e00012b6c1c,SCR,2024-06-20_16h29.57.572,LearnStrategy,2023.2.3,Win32,60.24096386,2,1,9,-0.247135417,0.243489583,1,0,0,1.4038,Gabbro_05,4,05,5,3,1.404,4,05,0.144791667,-0.401041667,1,0,0,2.4487,Peridotite_rect,7,2.449,0,8,0,8,0,1,,,,,,,,,,,,,
59d1e366faf42e00012b6c1c,SCR,2024-06-20_16h29.57.572,LearnStrategy,2023.2.3,Win32,60.24096386,2,1,10,-0.54140625,-0.40625,1,0,0,1.7225,Pegmatite_16,6,16,1,1,1.722,6,16,-0.407291667,-0.399739583,1,0,0,4.861400001,Obsidian_rect,5,4.861,0,9,0,9,0,1,,,,,,,,,,,,,
59d1e366faf42e00012b6c1c,SCR,2024-06-20_16h29.57.572,LearnStrategy,2023.2.3,Win32,60.24096386,2,1,11,-0.55703125,0.286458333,1,0,0,2.499099999,Pegmatite_03,6,03,5,1,2.499,6,03,0.133072917,-0.39453125,1,0,0,6.1405,Peridotite_rect,7,6.14,0,10,0,10,0,1,,,,,,,,,,,,,
59d1e366faf42e00012b6c1c,SCR,2024-06-20_16h29.57.572,LearnStrategy,2023.2.3,Win32,60.24096386,2,1,12,-0.570052083,0.421875,1,0,0,1.5018,Basalt_10,2,10,6,1,1.502,2,10,-0.396875,-0.381510417,1,0,0,3.6273,Obsidian_rect,5,3.627,0,11,0,11,0,1,,,,,,,,,,,,,
59d1e366faf42e00012b6c1c,SCR,2024-06-20_16h29.57.572,LearnStrategy,2023.2.3,Win32,60.24096386,2,1,13,0.086197917,0.23828125,1,0,0,1.2978,Andesite_02,1,02,5,5,1.298,1,02,-0.110416667,-0.385416667,1,0,0,4.205,Pegmatite_rect,6,4.205,0,12,0,12,0,1,,,,,,,,,,,,,
59d1e366faf42e00012b6c1c,SCR,2024-06-20_16h29.57.572,LearnStrategy,2023.2.3,Win32,60.24096386,2,1,14,-0.382552083,0.072916667,1,0,0,1.256900001,Basalt_14,2,14,4,2,1.257,2,14,0.405208333,-0.4140625,1,0,0,2.867400001,Pumice_rect,8,2.867,0,13,0,13,0,1,,,,,,,,,,,,,
59d1e366faf42e00012b6c1c,SCR,2024-06-20_16h29.57.572,LearnStrategy,2023.2.3,Win32,60.24096386,2,1,15,-0.553125,0.1171875,1,0,0,1.2585,Peridotite_15,7,15,4,1,1.259,7,15,-0.09609375,-0.403645833,1,0,0,1.8389,Pegmatite_rect,6,1.839,0,14,0,14,0,1,,,,,,,,,,,,,
59d1e366faf42e00012b6c1c,SCR,2024-06-20_16h29.57.572,LearnStrategy,2023.2.3,Win32,60.24096386,2,1,16,0.527604167,0.08203125,1,0,0,1.3385,Basalt_05,2,05,4,8,1.338,2,05,-0.387760417,-0.39453125,1,0,0,1.8543,Obsidian_rect,5,1.854,0,15,0,15,0,1,,,,,,,,,,,,,
59d1e366faf42e00012b6c1c,SCR,2024-06-20_16h29.57.572,LearnStrategy,2023.2.3,Win32,60.24096386,2,2,1,,,,,,,,2,06,,,,,,,,,,,,,2,4.067,1,,,,,,-0.086979167,-0.231770833,1,0,0,4.0674,Basalt_rect,0,0,0,0,1,
59d1e366faf42e00012b6c1c,SCR,2024-06-20_16h29.57.572,LearnStrategy,2023.2.3,Win32,60.24096386,2,2,2,,,,,,,,1,14,,,,,,,,,,,,,7,5.557,0,,,,,,0.148697917,-0.397135417,1,0,0,5.5573,Peridotite_rect,1,0,1,0,1,
59d1e366faf42e00012b6c1c,SCR,2024-06-20_16h29.57.572,LearnStrategy,2023.2.3,Win32,60.24096386,2,2,3,,,,,,,,7,04,,,,,,,,,,,,,7,8.659,1,,,,,,0.196875,-0.3828125,1,0,0,8.6595,Peridotite_rect,2,0,2,0,1,
59d1e366faf42e00012b6c1c,SCR,2024-06-20_16h29.57.572,LearnStrategy,2023.2.3,Win32,60.24096386,2,2,4,,,,,,,,1,11,,,,,,,,,,,,,6,6.685,0,,,,,,-0.106510417,-0.384114583,1,0,0,6.6849,Pegmatite_rect,3,0,3,0,1,
59d1e366faf42e00012b6c1c,SCR,2024-06-20_16h29.57.572,LearnStrategy,2023.2.3,Win32,60.24096386,2,2,5,,,,,,,,3,06,,,,,,,,,,,,,2,6.387,0,,,,,,-0.13125,-0.239583333,1,0,0,6.386700001,Basalt_rect,4,0,4,0,1,
59d1e366faf42e00012b6c1c,SCR,2024-06-20_16h29.57.572,LearnStrategy,2023.2.3,Win32,60.24096386,2,2,6,,,,,,,,2,11,,,,,,,,,,,,,8,1.81,0,,,,,,0.410416667,-0.39453125,1,0,0,1.810099999,Pumice_rect,5,0,5,0,1,
59d1e366faf42e00012b6c1c,SCR,2024-06-20_16h29.57.572,LearnStrategy,2023.2.3,Win32,60.24096386,2,2,7,,,,,,,,8,10,,,,,,,,,,,,,8,1.53,1,,,,,,0.393489583,-0.3984375,1,0,0,1.5301,Pumice_rect,6,0,6,0,1,
59d1e366faf42e00012b6c1c,SCR,2024-06-20_16h29.57.572,LearnStrategy,2023.2.3,Win32,60.24096386,2,2,8,,,,,,,,3,16,,,,,,,,,,,,,1,4.922,0,,,,,,-0.363020833,-0.2578125,1,0,0,4.9221,Andesite_rect,7,0,7,0,1,
59d1e366faf42e00012b6c1c,SCR,2024-06-20_16h29.57.572,LearnStrategy,2023.2.3,Win32,60.24096386,2,2,9,,,,,,,,4,11,,,,,,,,,,,,,2,4.168,0,,,,,,-0.083072917,-0.251302083,1,0,0,4.1675,Basalt_rect,8,0,8,0,1,
59d1e366faf42e00012b6c1c,SCR,2024-06-20_16h29.57.572,LearnStrategy,2023.2.3,Win32,60.24096386,2,2,10,,,,,,,,4,12,,,,,,,,,,,,,2,1.792,0,,,,,,-0.098697917,-0.248697917,1,0,0,1.7918,Basalt_rect,9,0,9,0,1,
59d1e366faf42e00012b6c1c,SCR,2024-06-20_16h29.57.572,LearnStrategy,2023.2.3,Win32,60.24096386,2,2,11,,,,,,,,5,05,,,,,,,,,,,,,5,2.031,1,,,,,,-0.352604167,-0.389322917,1,0,0,2.031,Obsidian_rect,10,0,10,0,1,
59d1e366faf42e00012b6c1c,SCR,2024-06-20_16h29.57.572,LearnStrategy,2023.2.3,Win32,60.24096386,2,2,12,,,,,,,,8,05,,,,,,,,,,,,,8,1.384,1,,,,,,0.42734375,-0.407552083,1,0,0,1.383700001,Pumice_rect,11,0,11,0,1,
59d1e366faf42e00012b6c1c,SCR,2024-06-20_16h29.57.572,LearnStrategy,2023.2.3,Win32,60.24096386,2,2,13,,,,,,,,5,04,,,,,,,,,,,,,5,1.472,1,,,,,,-0.48671875,-0.3984375,1,0,0,1.4721,Obsidian_rect,12,0,12,0,1,
59d1e366faf42e00012b6c1c,SCR,2024-06-20_16h29.57.572,LearnStrategy,2023.2.3,Win32,60.24096386,2,2,14,,,,,,,,6,13,,,,,,,,,,,,,6,3.129,1,,,,,,-0.124739583,-0.38671875,1,0,0,3.1289,Pegmatite_rect,13,0,13,0,1,
59d1e366faf42e00012b6c1c,SCR,2024-06-20_16h29.57.572,LearnStrategy,2023.2.3,Win32,60.24096386,2,2,15,,,,,,,,7,13,,,,,,,,,,,,,1,5.678,0,,,,,,-0.3890625,-0.234375,1,0,0,5.6784,Andesite_rect,14,0,14,0,1,
59d1e366faf42e00012b6c1c,SCR,2024-06-20_16h29.57.572,LearnStrategy,2023.2.3,Win32,60.24096386,2,2,16,,,,,,,,6,12,,,,,,,,,,,,,7,8.114,0,,,,,,0.131770833,-0.3828125,1,0,0,8.1135,Peridotite_rect,15,0,15,0,1,
59d1e366faf42e00012b6c1c,SCR,2024-06-20_16h29.57.572,LearnStrategy,2023.2.3,Win32,60.24096386,3,1,1,-0.085677083,0.270833333,1,0,0,2.5396,Pumice_09,8,09,5,4,2.54,8,09,0.440364583,-0.393229167,1,0,0,1.576,Pumice_rect,8,1.576,1,0,0,0,0,1,,,,,,,,,,,,,
59d1e366faf42e00012b6c1c,SCR,2024-06-20_16h29.57.572,LearnStrategy,2023.2.3,Win32,60.24096386,3,1,2,-0.247135417,0.44140625,1,0,0,1.8728,Basalt_12,2,12,6,3,1.873,2,12,0.452083333,-0.389322917,1,0,0,1.883299999,Pumice_rect,8,1.883,0,1,0,1,0,1,,,,,,,,,,,,,
59d1e366faf42e00012b6c1c,SCR,2024-06-20_16h29.57.572,LearnStrategy,2023.2.3,Win32,60.24096386,3,1,3,-0.239322917,-0.256510417,1,0,0,1.5345,Diorite_08,3,08,2,3,1.534,3,08,0.127864583,-0.397135417,1,0,0,1.6312,Peridotite_rect,7,1.631,0,2,0,2,0,1,,,,,,,,,,,,,
59d1e366faf42e00012b6c1c,SCR,2024-06-20_16h29.57.572,LearnStrategy,2023.2.3,Win32,60.24096386,3,1,4,0.070572917,-0.298177083,1,0,0,2.667599999,Peridotite_12,7,12,2,5,2.668,7,12,0.125260417,-0.255208333,1,0,0,5.5794,Diorite_rect,3,5.579,0,3,0,3,0,1,,,,,,,,,,,,,
59d1e366faf42e00012b6c1c,SCR,2024-06-20_16h29.57.572,LearnStrategy,2023.2.3,Win32,60.24096386,3,1,5,0.415625,-0.140625,1,0,0,1.2509,Andesite_01,1,01,3,7,1.251,1,01,-0.122135417,-0.25,1,0,0,7.500099999,Basalt_rect,2,7.5,0,4,0,4,0,1,,,,,,,,,,,,,
59d1e366faf42e00012b6c1c,SCR,2024-06-20_16h29.57.572,LearnStrategy,2023.2.3,Win32,60.24096386,3,1,6,-0.581770833,0.282552083,1,0,0,1.5237,Pegmatite_03,6,03,5,1,1.524,6,03,0.151302083,-0.401041667,1,0,0,4.4106,Peridotite_rect,7,4.411,0,5,0,5,0,1,,,,,,,,,,,,,
59d1e366faf42e00012b6c1c,SCR,2024-06-20_16h29.57.572,LearnStrategy,2023.2.3,Win32,60.24096386,3,1,7,-0.19765625,0.388020833,1,0,0,1.8899,Basalt_12,2,12,6,3,1.89,2,12,0.426041667,-0.40234375,1,0,0,1.448799999,Pumice_rect,8,1.449,0,6,0,6,0,1,,,,,,,,,,,,,
59d1e366faf42e00012b6c1c,SCR,2024-06-20_16h29.57.572,LearnStrategy,2023.2.3,Win32,60.24096386,3,1,8,0.570572917,0.43359375,1,0,0,1.667900001,Pegmatite_06,6,06,6,8,1.668,6,06,-0.098697917,-0.404947917,1,0,0,2.8743,Pegmatite_rect,6,2.874,1,7,0,7,0,1,,,,,,,,,,,,,
59d1e366faf42e00012b6c1c,SCR,2024-06-20_16h29.57.572,LearnStrategy,2023.2.3,Win32,60.24096386,3,1,9,0.422135417,-0.244791667,1,0,0,2.387,Diorite_12,3,12,2,7,2.387,3,12,0.15,-0.264322917,1,0,0,4.5256,Diorite_rect,3,4.526,1,8,0,8,0,1,,,,,,,,,,,,,
59d1e366faf42e00012b6c1c,SCR,2024-06-20_16h29.57.572,LearnStrategy,2023.2.3,Win32,60.24096386,3,1,10,0.088802083,0.248697917,1,0,0,1.413,Andesite_02,1,02,5,5,1.413,1,02,-0.411197917,-0.23828125,1,0,0,3.470099999,Andesite_rect,1,3.47,1,9,0,9,0,1,,,,,,,,,,,,,
59d1e366faf42e00012b6c1c,SCR,2024-06-20_16h29.57.572,LearnStrategy,2023.2.3,Win32,60.24096386,3,1,11,0.082291667,0.423177083,1,0,0,1.6,Gabbro_08,4,08,6,5,1.6,4,08,-0.122135417,-0.24609375,1,0,0,4.314799999,Basalt_rect,2,4.315,0,10,0,10,0,1,,,,,,,,,,,,,
59d1e366faf42e00012b6c1c,SCR,2024-06-20_16h29.57.572,LearnStrategy,2023.2.3,Win32,60.24096386,3,1,12,-0.086979167,-0.088541667,1,0,0,1.1995,Gabbro_01,4,01,3,4,1.2,4,01,0.155208333,-0.397135417,1,0,0,2.186,Peridotite_rect,7,2.186,0,11,0,11,0,1,,,,,,,,,,,,,
59d1e366faf42e00012b6c1c,SCR,2024-06-20_16h29.57.572,LearnStrategy,2023.2.3,Win32,60.24096386,3,1,13,-0.398177083,-0.096354167,1,0,0,1.7673,Andesite_06,1,06,3,2,1.767,1,06,0.172135417,-0.397135417,1,0,0,2.6322,Peridotite_rect,7,2.632,0,12,0,12,0,1,,,,,,,,,,,,,
59d1e366faf42e00012b6c1c,SCR,2024-06-20_16h29.57.572,LearnStrategy,2023.2.3,Win32,60.24096386,3,1,14,0.584895833,-0.4140625,1,0,0,1.866700001,Obsidian_08,5,08,1,8,1.867,5,08,-0.39296875,-0.37890625,1,0,0,1.081299999,Obsidian_rect,5,1.081,1,13,0,13,0,1,,,,,,,,,,,,,
59d1e366faf42e00012b6c1c,SCR,2024-06-20_16h29.57.572,LearnStrategy,2023.2.3,Win32,60.24096386,3,1,15,-0.239322917,-0.108072917,1,0,0,1.4042,Diorite_10,3,10,3,3,1.404,3,10,-0.3421875,-0.23046875,1,0,0,4.4147,Andesite_rect,1,4.415,0,14,0,14,0,1,,,,,,,,,,,,,
59d1e366faf42e00012b6c1c,SCR,2024-06-20_16h29.57.572,LearnStrategy,2023.2.3,Win32,60.24096386,3,1,16,-0.3890625,-0.23828125,1,0,0,1.5451,Peridotite_02,7,02,2,2,1.545,7,02,0.196875,-0.404947917,1,0,0,5.8503,Peridotite_rect,7,5.85,1,15,0,15,0,1,,,,,,,,,,,,,
59d1e366faf42e00012b6c1c,SCR,2024-06-20_16h29.57.572,LearnStrategy,2023.2.3,Win32,60.24096386,3,2,1,,,,,,,,6,07,,,,,,,,,,,,,6,7.604,1,,,,,,-0.102604167,-0.3984375,1,0,0,7.6039,Pegmatite_rect,0,0,0,0,1,
59d1e366faf42e00012b6c1c,SCR,2024-06-20_16h29.57.572,LearnStrategy,2023.2.3,Win32,60.24096386,3,2,2,,,,,,,,6,15,,,,,,,,,,,,,7,4.004,0,,,,,,0.172135417,-0.380208333,1,0,0,4.004,Peridotite_rect,1,0,1,0,1,
59d1e366faf42e00012b6c1c,SCR,2024-06-20_16h29.57.572,LearnStrategy,2023.2.3,Win32,60.24096386,3,2,3,,,,,,,,2,09,,,,,,,,,,,,,2,2.621,1,,,,,,-0.132552083,-0.247395833,1,0,0,2.6207,Basalt_rect,2,0,2,0,1,
59d1e366faf42e00012b6c1c,SCR,2024-06-20_16h29.57.572,LearnStrategy,2023.2.3,Win32,60.24096386,3,2,4,,,,,,,,4,16,,,,,,,,,,,,,1,4.817,0,,,,,,-0.368229167,-0.236979167,1,0,0,4.816799999,Andesite_rect,3,0,3,0,1,
59d1e366faf42e00012b6c1c,SCR,2024-06-20_16h29.57.572,LearnStrategy,2023.2.3,Win32,60.24096386,3,2,5,,,,,,,,7,14,,,,,,,,,,,,,7,3.493,1,,,,,,0.166927083,-0.380208333,1,0,0,3.4926,Peridotite_rect,4,0,4,0,1,
59d1e366faf42e00012b6c1c,SCR,2024-06-20_16h29.57.572,LearnStrategy,2023.2.3,Win32,60.24096386,3,2,6,,,,,,,,4,14,,,,,,,,,,,,,4,4.276,1,,,,,,0.410416667,-0.23828125,1,0,0,4.2758,Gabbro_rect,5,0,5,0,1,
59d1e366faf42e00012b6c1c,SCR,2024-06-20_16h29.57.572,LearnStrategy,2023.2.3,Win32,60.24096386,3,2,7,,,,,,,,1,05,,,,,,,,,,,,,1,3.817,1,,,,,,-0.44375,-0.235677083,1,0,0,3.817,Andesite_rect,6,0,6,0,1,
59d1e366faf42e00012b6c1c,SCR,2024-06-20_16h29.57.572,LearnStrategy,2023.2.3,Win32,60.24096386,3,2,8,,,,,,,,2,16,,,,,,,,,,,,,2,7.054,1,,,,,,-0.055729167,-0.26171875,1,0,0,7.0544,Basalt_rect,7,0,7,0,1,
59d1e366faf42e00012b6c1c,SCR,2024-06-20_16h29.57.572,LearnStrategy,2023.2.3,Win32,60.24096386,3,2,9,,,,,,,,3,07,,,,,,,,,,,,,6,1.978,0,,,,,,-0.102604167,-0.397135417,1,0,0,1.977599999,Pegmatite_rect,8,0,8,0,1,
59d1e366faf42e00012b6c1c,SCR,2024-06-20_16h29.57.572,LearnStrategy,2023.2.3,Win32,60.24096386,3,2,10,,,,,,,,5,10,,,,,,,,,,,,,5,1.5,1,,,,,,-0.405989583,-0.407552083,1,0,0,1.4996,Obsidian_rect,9,0,9,0,1,
59d1e366faf42e00012b6c1c,SCR,2024-06-20_16h29.57.572,LearnStrategy,2023.2.3,Win32,60.24096386,3,2,11,,,,,,,,3,13,,,,,,,,,,,,,7,3.148,0,,,,,,0.187760417,-0.393229167,1,0,0,3.148299999,Peridotite_rect,10,0,10,0,1,
59d1e366faf42e00012b6c1c,SCR,2024-06-20_16h29.57.572,LearnStrategy,2023.2.3,Win32,60.24096386,3,2,12,,,,,,,,8,13,,,,,,,,,,,,,8,3.035,1,,,,,,0.433854167,-0.381510417,1,0,0,3.0348,Pumice_rect,11,0,11,0,1,
59d1e366faf42e00012b6c1c,SCR,2024-06-20_16h29.57.572,LearnStrategy,2023.2.3,Win32,60.24096386,3,2,13,,,,,,,,8,14,,,,,,,,,,,,,8,1.593,1,,,,,,0.426041667,-0.40234375,1,0,0,1.5931,Pumice_rect,12,0,12,0,1,
59d1e366faf42e00012b6c1c,SCR,2024-06-20_16h29.57.572,LearnStrategy,2023.2.3,Win32,60.24096386,3,2,14,,,,,,,,5,07,,,,,,,,,,,,,5,2.114,1,,,,,,-0.387760417,-0.38671875,1,0,0,2.1139,Obsidian_rect,13,0,13,0,1,
59d1e366faf42e00012b6c1c,SCR,2024-06-20_16h29.57.572,LearnStrategy,2023.2.3,Win32,60.24096386,3,2,15,,,,,,,,1,09,,,,,,,,,,,,,1,2.935,1,,,,,,-0.344791667,-0.236979167,1,0,0,2.9354,Andesite_rect,14,0,14,0,1,
59d1e366faf42e00012b6c1c,SCR,2024-06-20_16h29.57.572,LearnStrategy,2023.2.3,Win32,60.24096386,3,2,16,,,,,,,,7,05,,,,,,,,,,,,,6,2.262,0,,,,,,-0.10390625,-0.401041667,1,0,0,2.261900001,Pegmatite_rect,15,0,15,0,1,
59d1e366faf42e00012b6c1c,SCR,2024-06-20_16h29.57.572,LearnStrategy,2023.2.3,Win32,60.24096386,4,1,1,-0.363020833,0.260416667,1,0,0,2.0969,Pumice_06,8,06,5,2,2.097,8,06,0.452083333,-0.404947917,1,0,0,1.916799999,Pumice_rect,8,1.917,1,0,0,0,0,1,,,,,,,,,,,,,
59d1e366faf42e00012b6c1c,SCR,2024-06-20_16h29.57.572,LearnStrategy,2023.2.3,Win32,60.24096386,4,1,2,-0.511458333,-0.381510417,1,0,0,1.677,Pegmatite_16,6,16,1,1,1.677,6,16,-0.3890625,-0.235677083,1,0,0,2.52,Andesite_rect,1,2.52,0,1,0,1,0,1,,,,,,,,,,,,,
59d1e366faf42e00012b6c1c,SCR,2024-06-20_16h29.57.572,LearnStrategy,2023.2.3,Win32,60.24096386,4,1,3,-0.402083333,-0.24609375,1,0,0,1.417,Peridotite_02,7,02,2,2,1.417,7,02,0.133072917,-0.404947917,1,0,0,2.7491,Peridotite_rect,7,2.749,1,2,0,2,0,1,,,,,,,,,,,,,
59d1e366faf42e00012b6c1c,SCR,2024-06-20_16h29.57.572,LearnStrategy,2023.2.3,Win32,60.24096386,4,1,4,0.252864583,0.419270833,1,0,0,1.4349,Diorite_15,3,15,6,6,1.435,3,15,-0.450260417,-0.234375,1,0,0,1.645,Andesite_rect,1,1.645,0,3,0,3,0,1,,,,,,,,,,,,,
59d1e366faf42e00012b6c1c,SCR,2024-06-20_16h29.57.572,LearnStrategy,2023.2.3,Win32,60.24096386,4,1,5,0.256770833,-0.119791667,1,0,0,1.2366,Pegmatite_08,6,08,3,6,1.237,6,08,-0.118229167,-0.401041667,1,0,0,6.0165,Pegmatite_rect,6,6.016,1,4,0,4,0,1,,,,,,,,,,,,,
59d1e366faf42e00012b6c1c,SCR,2024-06-20_16h29.57.572,LearnStrategy,2023.2.3,Win32,60.24096386,4,1,6,0.246354167,0.279947917,1,0,0,1.8693,Peridotite_08,7,08,5,6,1.869,7,08,0.168229167,-0.239583333,1,0,0,9.041,Diorite_rect,3,9.041,0,5,0,5,0,1,,,,,,,,,,,,,
59d1e366faf42e00012b6c1c,SCR,2024-06-20_16h29.57.572,LearnStrategy,2023.2.3,Win32,60.24096386,4,1,7,-0.089583333,-0.268229167,1,0,0,1.1847,Andesite_16,1,16,2,4,1.185,1,16,-0.36171875,-0.234375,1,0,0,1.8547,Andesite_rect,1,1.855,1,6,0,6,0,1,,,,,,,,,,,,,
59d1e366faf42e00012b6c1c,SCR,2024-06-20_16h29.57.572,LearnStrategy,2023.2.3,Win32,60.24096386,4,1,8,-0.396875,0.108072917,1,0,0,1.437799999,Basalt_14,2,14,4,2,1.438,2,14,-0.1078125,-0.264322917,1,0,0,3.9461,Basalt_rect,2,3.946,1,7,0,7,0,1,,,,,,,,,,,,,
59d1e366faf42e00012b6c1c,SCR,2024-06-20_16h29.57.572,LearnStrategy,2023.2.3,Win32,60.24096386,4,1,9,0.49765625,0.372395833,1,0,0,2.1352,Pegmatite_06,6,06,6,8,2.135,6,06,-0.05703125,-0.40234375,1,0,0,1.7887,Pegmatite_rect,6,1.789,1,8,0,8,0,1,,,,,,,,,,,,,
59d1e366faf42e00012b6c1c,SCR,2024-06-20_16h29.57.572,LearnStrategy,2023.2.3,Win32,60.24096386,4,1,10,-0.225,-0.221354167,1,0,0,1.579900001,Diorite_08,3,08,2,3,1.58,3,08,-0.41640625,-0.25390625,1,0,0,2.523,Andesite_rect,1,2.523,0,9,0,9,0,1,,,,,,,,,,,,,
59d1e366faf42e00012b6c1c,SCR,2024-06-20_16h29.57.572,LearnStrategy,2023.2.3,Win32,60.24096386,4,1,11,0.078385417,-0.096354167,1,0,0,1.1356,Gabbro_03,4,03,3,5,1.136,4,03,0.159114583,-0.2421875,1,0,0,2.8849,Diorite_rect,3,2.885,0,10,0,10,0,1,,,,,,,,,,,,,
59d1e366faf42e00012b6c1c,SCR,2024-06-20_16h29.57.572,LearnStrategy,2023.2.3,Win32,60.24096386,4,1,12,0.080989583,-0.236979167,1,0,0,1.365900001,Peridotite_12,7,12,2,5,1.366,7,12,0.139583333,-0.239583333,1,0,0,5.2756,Diorite_rect,3,5.276,0,11,0,11,0,1,,,,,,,,,,,,,
59d1e366faf42e00012b6c1c,SCR,2024-06-20_16h29.57.572,LearnStrategy,2023.2.3,Win32,60.24096386,4,1,13,0.0796875,-0.0859375,1,0,0,1.0511,Gabbro_03,4,03,3,5,1.051,4,03,-0.1546875,-0.247395833,1,0,0,1.915900001,Basalt_rect,2,1.916,0,12,0,12,0,1,,,,,,,,,,,,,
59d1e366faf42e00012b6c1c,SCR,2024-06-20_16h29.57.572,LearnStrategy,2023.2.3,Win32,60.24096386,4,1,14,-0.238020833,-0.088541667,1,0,0,1.5784,Diorite_10,3,10,3,3,1.578,3,10,-0.390364583,-0.24609375,1,0,0,2.1972,Andesite_rect,1,2.197,0,13,0,13,0,1,,,,,,,,,,,,,
59d1e366faf42e00012b6c1c,SCR,2024-06-20_16h29.57.572,LearnStrategy,2023.2.3,Win32,60.24096386,4,1,15,-0.402083333,0.10546875,1,0,0,1.347700001,Basalt_14,2,14,4,2,1.348,2,14,-0.38125,-0.264322917,1,0,0,7.821299999,Andesite_rect,1,7.821,0,14,0,14,0,1,,,,,,,,,,,,,
59d1e366faf42e00012b6c1c,SCR,2024-06-20_16h29.57.572,LearnStrategy,2023.2.3,Win32,60.24096386,4,1,16,0.065364583,0.239583333,1,0,0,1.4526,Andesite_02,1,02,5,5,1.453,1,02,-0.106510417,-0.397135417,1,0,0,3.305799999,Pegmatite_rect,6,3.306,0,15,0,15,0,1,,,,,,,,,,,,,
59d1e366faf42e00012b6c1c,SCR,2024-06-20_16h29.57.572,LearnStrategy,2023.2.3,Win32,60.24096386,4,2,1,,,,,,,,7,10,,,,,,,,,,,,,7,4.477,1,,,,,,0.143489583,-0.3828125,1,0,0,4.4775,Peridotite_rect,0,0,0,0,1,
59d1e366faf42e00012b6c1c,SCR,2024-06-20_16h29.57.572,LearnStrategy,2023.2.3,Win32,60.24096386,4,2,2,,,,,,,,5,10,,,,,,,,,,,,,5,1.527,1,,,,,,-0.364322917,-0.381510417,1,0,0,1.526599999,Obsidian_rect,1,0,1,0,1,
59d1e366faf42e00012b6c1c,SCR,2024-06-20_16h29.57.572,LearnStrategy,2023.2.3,Win32,60.24096386,4,2,3,,,,,,,,4,13,,,,,,,,,,,,,6,2.682,0,,,,,,-0.086979167,-0.401041667,1,0,0,2.6818,Pegmatite_rect,2,0,2,0,1,
59d1e366faf42e00012b6c1c,SCR,2024-06-20_16h29.57.572,LearnStrategy,2023.2.3,Win32,60.24096386,4,2,4,,,,,,,,2,08,,,,,,,,,,,,,2,4.953,1,,,,,,-0.1,-0.248697917,1,0,0,4.9529,Basalt_rect,3,0,3,0,1,
59d1e366faf42e00012b6c1c,SCR,2024-06-20_16h29.57.572,LearnStrategy,2023.2.3,Win32,60.24096386,4,2,5,,,,,,,,7,14,,,,,,,,,,,,,7,2.609,1,,,,,,0.1578125,-0.401041667,1,0,0,2.609099999,Peridotite_rect,4,0,4,0,1,
59d1e366faf42e00012b6c1c,SCR,2024-06-20_16h29.57.572,LearnStrategy,2023.2.3,Win32,60.24096386,4,2,6,,,,,,,,3,07,,,,,,,,,,,,,1,3.377,0,,,,,,-0.360416667,-0.247395833,1,0,0,3.3773,Andesite_rect,5,0,5,0,1,
59d1e366faf42e00012b6c1c,SCR,2024-06-20_16h29.57.572,LearnStrategy,2023.2.3,Win32,60.24096386,4,2,7,,,,,,,,5,07,,,,,,,,,,,,,5,1.478,1,,,,,,-0.336979167,-0.390625,1,0,0,1.4778,Obsidian_rect,6,0,6,0,1,
59d1e366faf42e00012b6c1c,SCR,2024-06-20_16h29.57.572,LearnStrategy,2023.2.3,Win32,60.24096386,4,2,8,,,,,,,,2,11,,,,,,,,,,,,,2,2.94,1,,,,,,-0.132552083,-0.25,1,0,0,2.9402,Basalt_rect,7,0,7,0,1,
59d1e366faf42e00012b6c1c,SCR,2024-06-20_16h29.57.572,LearnStrategy,2023.2.3,Win32,60.24096386,4,2,9,,,,,,,,6,11,,,,,,,,,,,,,6,1.85,1,,,,,,-0.093489583,-0.388020833,1,0,0,1.850299999,Pegmatite_rect,8,0,8,0,1,
59d1e366faf42e00012b6c1c,SCR,2024-06-20_16h29.57.572,LearnStrategy,2023.2.3,Win32,60.24096386,4,2,10,,,,,,,,8,15,,,,,,,,,,,,,8,3.593,1,,,,,,0.444270833,-0.384114583,1,0,0,3.592799999,Pumice_rect,9,0,9,0,1,
59d1e366faf42e00012b6c1c,SCR,2024-06-20_16h29.57.572,LearnStrategy,2023.2.3,Win32,60.24096386,4,2,11,,,,,,,,4,12,,,,,,,,,,,,,3,3.693,0,,,,,,0.14609375,-0.25,1,0,0,3.693400001,Diorite_rect,10,0,10,0,1,
59d1e366faf42e00012b6c1c,SCR,2024-06-20_16h29.57.572,LearnStrategy,2023.2.3,Win32,60.24096386,4,2,12,,,,,,,,3,13,,,,,,,,,,,,,1,5.366,0,,,,,,-0.398177083,-0.2578125,1,0,0,5.3656,Andesite_rect,11,0,11,0,1,
59d1e366faf42e00012b6c1c,SCR,2024-06-20_16h29.57.572,LearnStrategy,2023.2.3,Win32,60.24096386,4,2,13,,,,,,,,1,05,,,,,,,,,,,,,7,8.748,0,,,,,,0.187760417,-0.393229167,1,0,0,8.748099999,Peridotite_rect,12,0,12,0,1,
59d1e366faf42e00012b6c1c,SCR,2024-06-20_16h29.57.572,LearnStrategy,2023.2.3,Win32,60.24096386,4,2,14,,,,,,,,8,05,,,,,,,,,,,,,8,2.149,1,,,,,,0.436458333,-0.420572917,1,0,0,2.1486,Pumice_rect,13,0,13,0,1,
59d1e366faf42e00012b6c1c,SCR,2024-06-20_16h29.57.572,LearnStrategy,2023.2.3,Win32,60.24096386,4,2,15,,,,,,,,6,09,,,,,,,,,,,,,6,1.685,1,,,,,,-0.128645833,-0.403645833,1,0,0,1.6853,Pegmatite_rect,14,0,14,0,1,
59d1e366faf42e00012b6c1c,SCR,2024-06-20_16h29.57.572,LearnStrategy,2023.2.3,Win32,60.24096386,4,2,16,,,,,,,,1,10,,,,,,,,,,,,,2,2.215,0,,,,,,-0.144270833,-0.251302083,1,0,0,2.2152,Basalt_rect,15,0,15,0,1,
59d1e366faf42e00012b6c1c,SCR,2024-06-20_16h29.57.572,LearnStrategy,2023.2.3,Win32,60.24096386,5,1,1,0.41171875,-0.078125,1,0,0,1.1528,Andesite_01,1,01,3,7,1.153,1,01,-0.08046875,-0.240885417,1,0,0,2.2123,Basalt_rect,2,2.212,0,0,0,0,0,1,,,,,,,,,,,,,
59d1e366faf42e00012b6c1c,SCR,2024-06-20_16h29.57.572,LearnStrategy,2023.2.3,Win32,60.24096386,5,1,2,0.393489583,0.252604167,1,0,0,1.9312,Diorite_02,3,02,5,7,1.931,3,02,-0.40078125,-0.2421875,1,0,0,7.3225,Andesite_rect,1,7.322,0,1,0,1,0,1,,,,,,,,,,,,,
59d1e366faf42e00012b6c1c,SCR,2024-06-20_16h29.57.572,LearnStrategy,2023.2.3,Win32,60.24096386,5,1,3,-0.566145833,-0.407552083,1,0,0,1.7522,Pegmatite_16,6,16,1,1,1.752,6,16,-0.081770833,-0.390625,1,0,0,1.566599999,Pegmatite_rect,6,1.567,1,2,0,2,0,1,,,,,,,,,,,,,
59d1e366faf42e00012b6c1c,SCR,2024-06-20_16h29.57.572,LearnStrategy,2023.2.3,Win32,60.24096386,5,1,4,0.384375,-0.401041667,1,0,0,1.1409,Pegmatite_10,6,10,1,7,1.141,6,10,-0.124739583,-0.39453125,1,0,0,1.8116,Pegmatite_rect,6,1.812,1,3,0,3,0,1,,,,,,,,,,,,,
59d1e366faf42e00012b6c1c,SCR,2024-06-20_16h29.57.572,LearnStrategy,2023.2.3,Win32,60.24096386,5,1,5,-0.085677083,-0.240885417,1,0,0,1.112,Andesite_16,1,16,2,4,1.112,1,16,0.18515625,-0.2421875,1,0,0,3.416,Diorite_rect,3,3.416,0,4,0,4,0,1,,,,,,,,,,,,,
59d1e366faf42e00012b6c1c,SCR,2024-06-20_16h29.57.572,LearnStrategy,2023.2.3,Win32,60.24096386,5,1,6,-0.394270833,-0.244791667,1,0,0,1.389400001,Peridotite_02,7,02,2,2,1.389,7,02,-0.0921875,-0.3984375,1,0,0,5.035900001,Pegmatite_rect,6,5.036,0,5,0,5,0,1,,,,,,,,,,,,,
59d1e366faf42e00012b6c1c,SCR,2024-06-20_16h29.57.572,LearnStrategy,2023.2.3,Win32,60.24096386,5,1,7,-0.240625,-0.248697917,1,0,0,1.3803,Diorite_08,3,08,2,3,1.38,3,08,-0.40078125,-0.255208333,1,0,0,4.119700001,Andesite_rect,1,4.12,0,6,0,6,0,1,,,,,,,,,,,,,
59d1e366faf42e00012b6c1c,SCR,2024-06-20_16h29.57.572,LearnStrategy,2023.2.3,Win32,60.24096386,5,1,8,-0.093489583,-0.111979167,1,0,0,1.157599999,Gabbro_01,4,01,3,4,1.158,4,01,0.13046875,-0.247395833,1,0,0,5.2217,Diorite_rect,3,5.222,0,7,0,7,0,1,,,,,,,,,,,,,
59d1e366faf42e00012b6c1c,SCR,2024-06-20_16h29.57.572,LearnStrategy,2023.2.3,Win32,60.24096386,5,1,9,0.366145833,0.078125,1,0,0,1.5436,Diorite_14,3,14,4,7,1.544,3,14,-0.327864583,-0.236979167,1,0,0,3.2998,Andesite_rect,1,3.3,0,8,0,8,0,1,,,,,,,,,,,,,
59d1e366faf42e00012b6c1c,SCR,2024-06-20_16h29.57.572,LearnStrategy,2023.2.3,Win32,60.24096386,5,1,10,-0.059635417,0.2578125,1,0,0,1.4028,Pumice_09,8,09,5,4,1.403,8,09,0.428645833,-0.415364583,1,0,0,1.412799999,Pumice_rect,8,1.413,1,9,0,9,0,1,,,,,,,,,,,,,
59d1e366faf42e00012b6c1c,SCR,2024-06-20_16h29.57.572,LearnStrategy,2023.2.3,Win32,60.24096386,5,1,11,-0.4046875,0.09375,1,0,0,1.345700001,Basalt_14,2,14,4,2,1.346,2,14,-0.11953125,-0.24609375,1,0,0,4.155900001,Basalt_rect,2,4.156,1,10,0,10,0,1,,,,,,,,,,,,,
59d1e366faf42e00012b6c1c,SCR,2024-06-20_16h29.57.572,LearnStrategy,2023.2.3,Win32,60.24096386,5,1,12,0.259375,0.239583333,1,0,0,1.1972,Peridotite_08,7,08,5,6,1.197,7,08,-0.331770833,-0.239583333,1,0,0,3.646,Andesite_rect,1,3.646,0,11,0,11,0,1,,,,,,,,,,,,,
59d1e366faf42e00012b6c1c,SCR,2024-06-20_16h29.57.572,LearnStrategy,2023.2.3,Win32,60.24096386,5,1,13,-0.094791667,-0.256510417,1,0,0,1.081,Andesite_16,1,16,2,4,1.081,1,16,0.103125,-0.236979167,1,0,0,4.3165,Diorite_rect,3,4.317,0,12,0,12,0,1,,,,,,,,,,,,,
59d1e366faf42e00012b6c1c,SCR,2024-06-20_16h29.57.572,LearnStrategy,2023.2.3,Win32,60.24096386,5,1,14,0.248958333,0.389322917,1,0,0,1.837599999,Diorite_15,3,15,6,6,1.838,3,15,-0.398177083,-0.24609375,1,0,0,1.8277,Andesite_rect,1,1.828,0,13,0,13,0,1,,,,,,,,,,,,,
59d1e366faf42e00012b6c1c,SCR,2024-06-20_16h29.57.572,LearnStrategy,2023.2.3,Win32,60.24096386,5,1,15,0.10703125,-0.110677083,1,0,0,1.0352,Gabbro_03,4,03,3,5,1.035,4,03,-0.448958333,-0.2578125,1,0,0,4.8155,Andesite_rect,1,4.815,0,14,0,14,0,1,,,,,,,,,,,,,
59d1e366faf42e00012b6c1c,SCR,2024-06-20_16h29.57.572,LearnStrategy,2023.2.3,Win32,60.24096386,5,1,16,-0.271875,0.260416667,1,0,0,1.2491,Gabbro_05,4,05,5,3,1.249,4,05,0.164322917,-0.233072917,1,0,0,4.9256,Diorite_rect,3,4.926,0,15,0,15,0,1,,,,,,,,,,,,,
59d1e366faf42e00012b6c1c,SCR,2024-06-20_16h29.57.572,LearnStrategy,2023.2.3,Win32,60.24096386,5,2,1,,,,,,,,6,13,,,,,,,,,,,,,6,1.896,1,,,,,,-0.152083333,-0.411458333,1,0,0,1.8961,Pegmatite_rect,0,0,0,0,1,
59d1e366faf42e00012b6c1c,SCR,2024-06-20_16h29.57.572,LearnStrategy,2023.2.3,Win32,60.24096386,5,2,2,,,,,,,,4,16,,,,,,,,,,,,,1,7.872,0,,,,,,-0.39296875,-0.25390625,1,0,0,7.8717,Andesite_rect,1,0,1,0,1,
59d1e366faf42e00012b6c1c,SCR,2024-06-20_16h29.57.572,LearnStrategy,2023.2.3,Win32,60.24096386,5,2,3,,,,,,,,7,06,,,,,,,,,,,,,6,1.91,0,,,,,,-0.122135417,-0.401041667,1,0,0,1.910400001,Pegmatite_rect,2,0,2,0,1,
59d1e366faf42e00012b6c1c,SCR,2024-06-20_16h29.57.572,LearnStrategy,2023.2.3,Win32,60.24096386,5,2,4,,,,,,,,7,13,,,,,,,,,,,,,7,2.459,1,,,,,,0.143489583,-0.421875,1,0,0,2.4593,Peridotite_rect,3,0,3,0,1,
59d1e366faf42e00012b6c1c,SCR,2024-06-20_16h29.57.572,LearnStrategy,2023.2.3,Win32,60.24096386,5,2,5,,,,,,,,3,09,,,,,,,,,,,,,3,2.802,1,,,,,,0.109635417,-0.236979167,1,0,0,2.802,Diorite_rect,4,0,4,0,1,
59d1e366faf42e00012b6c1c,SCR,2024-06-20_16h29.57.572,LearnStrategy,2023.2.3,Win32,60.24096386,5,2,6,,,,,,,,4,11,,,,,,,,,,,,,4,8.233,1,,,,,,0.3921875,-0.248697917,1,0,0,8.2329,Gabbro_rect,5,0,5,0,1,
59d1e366faf42e00012b6c1c,SCR,2024-06-20_16h29.57.572,LearnStrategy,2023.2.3,Win32,60.24096386,5,2,7,,,,,,,,8,13,,,,,,,,,,,,,8,1.797,1,,,,,,0.457291667,-0.391927083,1,0,0,1.797400001,Pumice_rect,6,0,6,0,1,
59d1e366faf42e00012b6c1c,SCR,2024-06-20_16h29.57.572,LearnStrategy,2023.2.3,Win32,60.24096386,5,2,8,,,,,,,,8,14,,,,,,,,,,,,,8,1.322,1,,,,,,0.394791667,-0.420572917,1,0,0,1.322200001,Pumice_rect,7,0,7,0,1,
59d1e366faf42e00012b6c1c,SCR,2024-06-20_16h29.57.572,LearnStrategy,2023.2.3,Win32,60.24096386,5,2,9,,,,,,,,5,12,,,,,,,,,,,,,5,1.532,1,,,,,,-0.411197917,-0.408854167,1,0,0,1.5324,Obsidian_rect,8,0,8,0,1,
59d1e366faf42e00012b6c1c,SCR,2024-06-20_16h29.57.572,LearnStrategy,2023.2.3,Win32,60.24096386,5,2,10,,,,,,,,1,03,,,,,,,,,,,,,1,3.15,1,,,,,,-0.356510417,-0.25,1,0,0,3.1504,Andesite_rect,9,0,9,0,1,
59d1e366faf42e00012b6c1c,SCR,2024-06-20_16h29.57.572,LearnStrategy,2023.2.3,Win32,60.24096386,5,2,11,,,,,,,,6,07,,,,,,,,,,,,,6,1.448,1,,,,,,-0.145572917,-0.408854167,1,0,0,1.4476,Pegmatite_rect,10,0,10,0,1,
59d1e366faf42e00012b6c1c,SCR,2024-06-20_16h29.57.572,LearnStrategy,2023.2.3,Win32,60.24096386,5,2,12,,,,,,,,2,06,,,,,,,,,,,,,2,4.096,1,,,,,,-0.085677083,-0.259114583,1,0,0,4.0962,Basalt_rect,11,0,11,0,1,
59d1e366faf42e00012b6c1c,SCR,2024-06-20_16h29.57.572,LearnStrategy,2023.2.3,Win32,60.24096386,5,2,13,,,,,,,,3,06,,,,,,,,,,,,,1,3.003,0,,,,,,-0.366927083,-0.2578125,1,0,0,3.0028,Andesite_rect,12,0,12,0,1,
59d1e366faf42e00012b6c1c,SCR,2024-06-20_16h29.57.572,LearnStrategy,2023.2.3,Win32,60.24096386,5,2,14,,,,,,,,5,05,,,,,,,,,,,,,5,1.542,1,,,,,,-0.363020833,-0.403645833,1,0,0,1.5416,Obsidian_rect,13,0,13,0,1,
59d1e366faf42e00012b6c1c,SCR,2024-06-20_16h29.57.572,LearnStrategy,2023.2.3,Win32,60.24096386,5,2,15,,,,,,,,2,16,,,,,,,,,,,,,2,4.113,1,,,,,,-0.1390625,-0.270833333,1,0,0,4.1127,Basalt_rect,14,0,14,0,1,
59d1e366faf42e00012b6c1c,SCR,2024-06-20_16h29.57.572,LearnStrategy,2023.2.3,Win32,60.24096386,5,2,16,,,,,,,,1,14,,,,,,,,,,,,,7,3.989,0,,,,,,0.086197917,-0.403645833,1,0,0,3.989400001,Peridotite_rect,15,0,15,0,1,
59d1e366faf42e00012b6c1c,SCR,2024-06-20_16h29.57.572,LearnStrategy,2023.2.3,Win32,60.24096386,6,1,1,-0.247135417,-0.256510417,1,0,0,1.660400001,Diorite_08,3,08,2,3,1.66,3,08,0.136979167,-0.2421875,1,0,0,6.0079,Diorite_rect,3,6.008,1,0,0,0,0,1,,,,,,,,,,,,,
59d1e366faf42e00012b6c1c,SCR,2024-06-20_16h29.57.572,LearnStrategy,2023.2.3,Win32,60.24096386,6,1,2,-0.411197917,0.09375,1,0,0,1.1953,Basalt_14,2,14,4,2,1.195,2,14,-0.085677083,-0.259114583,1,0,0,2.8256,Basalt_rect,2,2.826,1,1,0,1,0,1,,,,,,,,,,,,,
59d1e366faf42e00012b6c1c,SCR,2024-06-20_16h29.57.572,LearnStrategy,2023.2.3,Win32,60.24096386,6,1,3,-0.57265625,-0.427083333,1,0,0,1.151099999,Pegmatite_16,6,16,1,1,1.151,6,16,-0.085677083,-0.39453125,1,0,0,0.8273,Pegmatite_rect,6,0.827,1,2,0,2,0,1,,,,,,,,,,,,,
59d1e366faf42e00012b6c1c,SCR,2024-06-20_16h29.57.572,LearnStrategy,2023.2.3,Win32,60.24096386,6,1,4,0.238541667,-0.419270833,1,0,0,1.6097,Pumice_04,8,04,1,6,1.61,8,04,0.371354167,-0.389322917,1,0,0,1.8072,Pumice_rect,8,1.807,1,3,0,3,0,1,,,,,,,,,,,,,
59d1e366faf42e00012b6c1c,SCR,2024-06-20_16h29.57.572,LearnStrategy,2023.2.3,Win32,60.24096386,6,1,5,0.420833333,-0.234375,1,0,0,1.3135,Diorite_12,3,12,2,7,1.313,3,12,0.14609375,-0.248697917,1,0,0,2.4014,Diorite_rect,3,2.401,1,4,0,4,0,1,,,,,,,,,,,,,
59d1e366faf42e00012b6c1c,SCR,2024-06-20_16h29.57.572,LearnStrategy,2023.2.3,Win32,60.24096386,6,1,6,0.237239583,-0.26171875,1,0,0,1.3875,Gabbro_15,4,15,2,6,1.388,4,15,0.129166667,-0.270833333,1,0,0,10.1094,Diorite_rect,3,10.109,0,5,0,5,0,1,,,,,,,,,,,,,
59d1e366faf42e00012b6c1c,SCR,2024-06-20_16h29.57.572,LearnStrategy,2023.2.3,Win32,60.24096386,6,1,7,-0.102604167,-0.303385417,1,0,0,0.962900001,Andesite_16,1,16,2,4,0.963,1,16,-0.379947917,-0.243489583,1,0,0,1.867400001,Andesite_rect,1,1.867,1,6,0,6,0,1,,,,,,,,,,,,,
59d1e366faf42e00012b6c1c,SCR,2024-06-20_16h29.57.572,LearnStrategy,2023.2.3,Win32,60.24096386,6,1,8,-0.57265625,0.248697917,1,0,0,1.4947,Pegmatite_03,6,03,5,1,1.495,6,03,0.164322917,-0.391927083,1,0,0,2.0142,Peridotite_rect,7,2.014,0,7,0,7,0,1,,,,,,,,,,,,,
59d1e366faf42e00012b6c1c,SCR,2024-06-20_16h29.57.572,LearnStrategy,2023.2.3,Win32,60.24096386,6,1,9,-0.4125,-0.243489583,1,0,0,1.076299999,Peridotite_02,7,02,2,2,1.076,7,02,0.152604167,-0.40234375,1,0,0,1.8658,Peridotite_rect,7,1.866,1,8,0,8,0,1,,,,,,,,,,,,,
59d1e366faf42e00012b6c1c,SCR,2024-06-20_16h29.57.572,LearnStrategy,2023.2.3,Win32,60.24096386,6,1,10,0.07578125,0.259114583,1,0,0,1.535,Andesite_02,1,02,5,5,1.535,1,02,-0.368229167,-0.251302083,1,0,0,2.3957,Andesite_rect,1,2.396,1,9,0,9,0,1,,,,,,,,,,,,,
59d1e366faf42e00012b6c1c,SCR,2024-06-20_16h29.57.572,LearnStrategy,2023.2.3,Win32,60.24096386,6,1,11,0.410416667,0.127604167,1,0,0,1.0995,Diorite_14,3,14,4,7,1.1,3,14,0.100520833,-0.266927083,1,0,0,2.4738,Diorite_rect,3,2.474,1,10,0,10,0,1,,,,,,,,,,,,,
59d1e366faf42e00012b6c1c,SCR,2024-06-20_16h29.57.572,LearnStrategy,2023.2.3,Win32,60.24096386,6,1,12,0.398697917,-0.248697917,1,0,0,1.3953,Diorite_12,3,12,2,7,1.395,3,12,0.084895833,-0.248697917,1,0,0,1.5864,Diorite_rect,3,1.586,1,11,0,11,0,1,,,,,,,,,,,,,
59d1e366faf42e00012b6c1c,SCR,2024-06-20_16h29.57.572,LearnStrategy,2023.2.3,Win32,60.24096386,6,1,13,-0.36953125,-0.407552083,1,0,0,1.342,Andesite_04,1,04,1,2,1.342,1,04,0.140885417,-0.236979167,1,0,0,3.242,Diorite_rect,3,3.242,0,12,0,12,0,1,,,,,,,,,,,,,
59d1e366faf42e00012b6c1c,SCR,2024-06-20_16h29.57.572,LearnStrategy,2023.2.3,Win32,60.24096386,6,1,14,0.545833333,-0.102864583,1,0,0,1.2646,Peridotite_07,7,07,3,8,1.265,7,07,0.11875,-0.40625,1,0,0,5.7295,Peridotite_rect,7,5.729,1,13,0,13,0,1,,,,,,,,,,,,,
59d1e366faf42e00012b6c1c,SCR,2024-06-20_16h29.57.572,LearnStrategy,2023.2.3,Win32,60.24096386,6,1,15,0.088802083,0.403645833,1,0,0,1.8107,Gabbro_08,4,08,6,5,1.811,4,08,-0.32265625,-0.23046875,1,0,0,3.6195,Andesite_rect,1,3.62,0,14,0,14,0,1,,,,,,,,,,,,,
59d1e366faf42e00012b6c1c,SCR,2024-06-20_16h29.57.572,LearnStrategy,2023.2.3,Win32,60.24096386,6,1,16,-0.211979167,0.213541667,1,0,0,1.577,Gabbro_05,4,05,5,3,1.577,4,05,0.432552083,-0.264322917,1,0,0,2.4802,Gabbro_rect,4,2.48,1,15,0,15,0,1,,,,,,,,,,,,,
59d1e366faf42e00012b6c1c,SCR,2024-06-20_16h29.57.572,LearnStrategy,2023.2.3,Win32,60.24096386,6,2,1,,,,,,,,8,03,,,,,,,,,,,,,8,1.702,1,,,,,,0.37265625,-0.401041667,1,0,0,1.7015,Pumice_rect,0,0,0,0,1,
59d1e366faf42e00012b6c1c,SCR,2024-06-20_16h29.57.572,LearnStrategy,2023.2.3,Win32,60.24096386,6,2,2,,,,,,,,4,09,,,,,,,,,,,,,4,4.783,1,,,,,,0.386979167,-0.268229167,1,0,0,4.7829,Gabbro_rect,1,0,1,0,1,
59d1e366faf42e00012b6c1c,SCR,2024-06-20_16h29.57.572,LearnStrategy,2023.2.3,Win32,60.24096386,6,2,3,,,,,,,,2,04,,,,,,,,,,,,,5,1.498,0,,,,,,-0.391666667,-0.420572917,1,0,0,1.4985,Obsidian_rect,2,0,2,0,1,
59d1e366faf42e00012b6c1c,SCR,2024-06-20_16h29.57.572,LearnStrategy,2023.2.3,Win32,60.24096386,6,2,4,,,,,,,,7,04,,,,,,,,,,,,,6,2.134,0,,,,,,-0.09609375,-0.384114583,1,0,0,2.133700001,Pegmatite_rect,3,0,3,0,1,
59d1e366faf42e00012b6c1c,SCR,2024-06-20_16h29.57.572,LearnStrategy,2023.2.3,Win32,60.24096386,6,2,5,,,,,,,,3,11,,,,,,,,,,,,,1,4.079,0,,,,,,-0.411197917,-0.24609375,1,0,0,4.0788,Andesite_rect,4,0,4,0,1,
59d1e366faf42e00012b6c1c,SCR,2024-06-20_16h29.57.572,LearnStrategy,2023.2.3,Win32,60.24096386,6,2,6,,,,,,,,1,09,,,,,,,,,,,,,3,3.049,0,,,,,,0.127864583,-0.260416667,1,0,0,3.0492,Diorite_rect,5,0,5,0,1,
59d1e366faf42e00012b6c1c,SCR,2024-06-20_16h29.57.572,LearnStrategy,2023.2.3,Win32,60.24096386,6,2,7,,,,,,,,7,05,,,,,,,,,,,,,1,10.054,0,,,,,,-0.365625,-0.24609375,1,0,0,10.0537,Andesite_rect,6,0,6,0,1,
59d1e366faf42e00012b6c1c,SCR,2024-06-20_16h29.57.572,LearnStrategy,2023.2.3,Win32,60.24096386,6,2,8,,,,,,,,2,09,,,,,,,,,,,,,4,3.79,0,,,,,,0.373958333,-0.236979167,1,0,0,3.789900001,Gabbro_rect,7,0,7,0,1,
59d1e366faf42e00012b6c1c,SCR,2024-06-20_16h29.57.572,LearnStrategy,2023.2.3,Win32,60.24096386,6,2,9,,,,,,,,3,16,,,,,,,,,,,,,1,3.898,0,,,,,,-0.390364583,-0.236979167,1,0,0,3.898200001,Andesite_rect,8,0,8,0,1,
59d1e366faf42e00012b6c1c,SCR,2024-06-20_16h29.57.572,LearnStrategy,2023.2.3,Win32,60.24096386,6,2,10,,,,,,,,8,10,,,,,,,,,,,,,8,1.881,1,,,,,,0.429947917,-0.391927083,1,0,0,1.8808,Pumice_rect,9,0,9,0,1,
59d1e366faf42e00012b6c1c,SCR,2024-06-20_16h29.57.572,LearnStrategy,2023.2.3,Win32,60.24096386,6,2,11,,,,,,,,1,11,,,,,,,,,,,,,7,2.893,0,,,,,,0.144791667,-0.395833333,1,0,0,2.8933,Peridotite_rect,10,0,10,0,1,
59d1e366faf42e00012b6c1c,SCR,2024-06-20_16h29.57.572,LearnStrategy,2023.2.3,Win32,60.24096386,6,2,12,,,,,,,,5,06,,,,,,,,,,,,,5,1.516,1,,,,,,-0.348697917,-0.40234375,1,0,0,1.5163,Obsidian_rect,11,0,11,0,1,
59d1e366faf42e00012b6c1c,SCR,2024-06-20_16h29.57.572,LearnStrategy,2023.2.3,Win32,60.24096386,6,2,13,,,,,,,,6,12,,,,,,,,,,,,,6,2.073,1,,,,,,-0.116927083,-0.401041667,1,0,0,2.072599999,Pegmatite_rect,12,0,12,0,1,
59d1e366faf42e00012b6c1c,SCR,2024-06-20_16h29.57.572,LearnStrategy,2023.2.3,Win32,60.24096386,6,2,14,,,,,,,,5,04,,,,,,,,,,,,,5,1.292,1,,,,,,-0.3578125,-0.397135417,1,0,0,1.2923,Obsidian_rect,13,0,13,0,1,
59d1e366faf42e00012b6c1c,SCR,2024-06-20_16h29.57.572,LearnStrategy,2023.2.3,Win32,60.24096386,6,2,15,,,,,,,,6,15,,,,,,,,,,,,,6,1.757,1,,,,,,-0.110416667,-0.404947917,1,0,0,1.7573,Pegmatite_rect,14,0,14,0,1,
59d1e366faf42e00012b6c1c,SCR,2024-06-20_16h29.57.572,LearnStrategy,2023.2.3,Win32,60.24096386,6,2,16,,,,,,,,4,14,,,,,,,,,,,,,2,3.108,0,,,,,,-0.145572917,-0.265625,1,0,0,3.107900001,Basalt_rect,15,0,15,0,1,
59d1e366faf42e00012b6c1c,SCR,2024-06-20_16h29.57.572,LearnStrategy,2023.2.3,Win32,60.24096386,7,1,1,0.549739583,-0.088541667,1,0,0,1.7011,Peridotite_07,7,07,3,8,1.701,7,07,0.45078125,-0.259114583,1,0,0,2.502,Gabbro_rect,4,2.502,0,0,0,0,0,1,,,,,,,,,,,,,
59d1e366faf42e00012b6c1c,SCR,2024-06-20_16h29.57.572,LearnStrategy,2023.2.3,Win32,60.24096386,7,1,2,-0.129947917,-0.100260417,1,0,0,0.835,Gabbro_01,4,01,3,4,0.835,4,01,0.17734375,-0.39453125,1,0,0,6.3379,Peridotite_rect,7,6.338,0,1,0,1,0,1,,,,,,,,,,,,,
59d1e366faf42e00012b6c1c,SCR,2024-06-20_16h29.57.572,LearnStrategy,2023.2.3,Win32,60.24096386,7,1,3,-0.41640625,0.123697917,1,0,0,1.1542,Basalt_14,2,14,4,2,1.154,2,14,-0.097395833,-0.239583333,1,0,0,3.238,Basalt_rect,2,3.238,1,2,0,2,0,1,,,,,,,,,,,,,
59d1e366faf42e00012b6c1c,SCR,2024-06-20_16h29.57.572,LearnStrategy,2023.2.3,Win32,60.24096386,7,1,4,-0.0609375,-0.255208333,1,0,0,1.223400001,Andesite_16,1,16,2,4,1.223,1,16,0.134375,-0.38671875,1,0,0,2.5952,Peridotite_rect,7,2.595,0,3,0,3,0,1,,,,,,,,,,,,,
59d1e366faf42e00012b6c1c,SCR,2024-06-20_16h29.57.572,LearnStrategy,2023.2.3,Win32,60.24096386,7,1,5,-0.0765625,0.438802083,1,0,0,3.1191,Andesite_07,1,07,6,4,3.119,1,07,-0.419010417,-0.247395833,1,0,0,3.1632,Andesite_rect,1,3.163,1,4,0,4,0,1,,,,,,,,,,,,,
59d1e366faf42e00012b6c1c,SCR,2024-06-20_16h29.57.572,LearnStrategy,2023.2.3,Win32,60.24096386,7,1,6,-0.386458333,-0.41796875,1,0,0,1.4815,Andesite_04,1,04,1,2,1.482,1,04,0.15,-0.252604167,1,0,0,3.0291,Diorite_rect,3,3.029,0,5,0,5,0,1,,,,,,,,,,,,,
59d1e366faf42e00012b6c1c,SCR,2024-06-20_16h29.57.572,LearnStrategy,2023.2.3,Win32,60.24096386,7,1,7,0.418229167,-0.26953125,1,0,0,1.4042,Diorite_12,3,12,2,7,1.404,3,12,0.143489583,-0.235677083,1,0,0,6.793900001,Diorite_rect,3,6.794,1,6,0,6,0,1,,,,,,,,,,,,,
59d1e366faf42e00012b6c1c,SCR,2024-06-20_16h29.57.572,LearnStrategy,2023.2.3,Win32,60.24096386,7,1,8,0.386979167,0.25,1,0,0,1.8158,Diorite_02,3,02,5,7,1.816,3,02,-0.340885417,-0.259114583,1,0,0,1.7491,Andesite_rect,1,1.749,0,7,0,7,0,1,,,,,,,,,,,,,
59d1e366faf42e00012b6c1c,SCR,2024-06-20_16h29.57.572,LearnStrategy,2023.2.3,Win32,60.24096386,7,1,9,-0.58046875,-0.096354167,1,0,0,1.0563,Obsidian_02,5,02,3,1,1.056,5,02,-0.329166667,-0.4140625,1,0,0,0.7508,Obsidian_rect,5,0.751,1,8,0,8,0,1,,,,,,,,,,,,,
59d1e366faf42e00012b6c1c,SCR,2024-06-20_16h29.57.572,LearnStrategy,2023.2.3,Win32,60.24096386,7,1,10,0.238541667,-0.25,1,0,0,1.2801,Gabbro_15,4,15,2,6,1.28,4,15,0.40390625,-0.236979167,1,0,0,2.7525,Gabbro_rect,4,2.752,1,9,0,9,0,1,,,,,,,,,,,,,
59d1e366faf42e00012b6c1c,SCR,2024-06-20_16h29.57.572,LearnStrategy,2023.2.3,Win32,60.24096386,7,1,11,0.092708333,-0.264322917,1,0,0,1.101,Peridotite_12,7,12,2,5,1.101,7,12,0.148697917,-0.24609375,1,0,0,2.9953,Diorite_rect,3,2.995,0,10,0,10,0,1,,,,,,,,,,,,,
59d1e366faf42e00012b6c1c,SCR,2024-06-20_16h29.57.572,LearnStrategy,2023.2.3,Win32,60.24096386,7,1,12,0.38828125,-0.42578125,1,0,0,1.273200001,Pegmatite_10,6,10,1,7,1.273,6,10,-0.122135417,-0.385416667,1,0,0,1.4254,Pegmatite_rect,6,1.425,1,11,0,11,0,1,,,,,,,,,,,,,
59d1e366faf42e00012b6c1c,SCR,2024-06-20_16h29.57.572,LearnStrategy,2023.2.3,Win32,60.24096386,7,1,13,0.086197917,-0.389322917,1,0,0,1.0932,Gabbro_10,4,10,1,5,1.093,4,10,0.43515625,-0.23046875,1,0,0,2.529,Gabbro_rect,4,2.529,1,12,0,12,0,1,,,,,,,,,,,,,
59d1e366faf42e00012b6c1c,SCR,2024-06-20_16h29.57.572,LearnStrategy,2023.2.3,Win32,60.24096386,7,1,14,-0.253645833,-0.08203125,1,0,0,0.9456,Diorite_10,3,10,3,3,0.946,3,10,-0.343489583,-0.24609375,1,0,0,1.7476,Andesite_rect,1,1.748,0,13,0,13,0,1,,,,,,,,,,,,,
59d1e366faf42e00012b6c1c,SCR,2024-06-20_16h29.57.572,LearnStrategy,2023.2.3,Win32,60.24096386,7,1,15,0.570572917,-0.268229167,1,0,0,1.133400001,Basalt_01,2,01,2,8,1.133,2,01,0.441666667,-0.243489583,1,0,0,2.5375,Gabbro_rect,4,2.537,0,14,0,14,0,1,,,,,,,,,,,,,
59d1e366faf42e00012b6c1c,SCR,2024-06-20_16h29.57.572,LearnStrategy,2023.2.3,Win32,60.24096386,7,1,16,0.0796875,-0.244791667,1,0,0,1.1644,Peridotite_12,7,12,2,5,1.164,7,12,-0.40859375,-0.24609375,1,0,0,5.375900001,Andesite_rect,1,5.376,0,15,0,15,0,1,,,,,,,,,,,,,
59d1e366faf42e00012b6c1c,SCR,2024-06-20_16h29.57.572,LearnStrategy,2023.2.3,Win32,60.24096386,7,2,1,,,,,,,,4,11,,,,,,,,,,,,,4,1.945,1,,,,,,0.415625,-0.252604167,1,0,0,1.945,Gabbro_rect,0,0,0,0,1,
59d1e366faf42e00012b6c1c,SCR,2024-06-20_16h29.57.572,LearnStrategy,2023.2.3,Win32,60.24096386,7,2,2,,,,,,,,1,03,,,,,,,,,,,,,1,3.284,1,,,,,,-0.382552083,-0.243489583,1,0,0,3.2837,Andesite_rect,1,0,1,0,1,
59d1e366faf42e00012b6c1c,SCR,2024-06-20_16h29.57.572,LearnStrategy,2023.2.3,Win32,60.24096386,7,2,3,,,,,,,,4,14,,,,,,,,,,,,,3,5.611,0,,,,,,0.086197917,-0.25390625,1,0,0,5.611099999,Diorite_rect,2,0,2,0,1,
59d1e366faf42e00012b6c1c,SCR,2024-06-20_16h29.57.572,LearnStrategy,2023.2.3,Win32,60.24096386,7,2,4,,,,,,,,5,04,,,,,,,,,,,,,5,1.597,1,,,,,,-0.37734375,-0.395833333,1,0,0,1.5972,Obsidian_rect,3,0,3,0,1,
59d1e366faf42e00012b6c1c,SCR,2024-06-20_16h29.57.572,LearnStrategy,2023.2.3,Win32,60.24096386,7,2,5,,,,,,,,3,06,,,,,,,,,,,,,1,2.631,0,,,,,,-0.405989583,-0.2578125,1,0,0,2.6315,Andesite_rect,4,0,4,0,1,
59d1e366faf42e00012b6c1c,SCR,2024-06-20_16h29.57.572,LearnStrategy,2023.2.3,Win32,60.24096386,7,2,6,,,,,,,,5,06,,,,,,,,,,,,,5,2.953,1,,,,,,-0.390364583,-0.390625,1,0,0,2.9532,Obsidian_rect,5,0,5,0,1,
59d1e366faf42e00012b6c1c,SCR,2024-06-20_16h29.57.572,LearnStrategy,2023.2.3,Win32,60.24096386,7,2,7,,,,,,,,7,10,,,,,,,,,,,,,3,3.973,0,,,,,,0.160416667,-0.2421875,1,0,0,3.9727,Diorite_rect,6,0,6,0,1,
59d1e366faf42e00012b6c1c,SCR,2024-06-20_16h29.57.572,LearnStrategy,2023.2.3,Win32,60.24096386,7,2,8,,,,,,,,6,11,,,,,,,,,,,,,5,1.916,0,,,,,,-0.35,-0.393229167,1,0,0,1.9164,Obsidian_rect,7,0,7,0,1,
59d1e366faf42e00012b6c1c,SCR,2024-06-20_16h29.57.572,LearnStrategy,2023.2.3,Win32,60.24096386,7,2,9,,,,,,,,7,14,,,,,,,,,,,,,1,3.86,0,,,,,,-0.347395833,-0.25390625,1,0,0,3.8599,Andesite_rect,8,0,8,0,1,
59d1e366faf42e00012b6c1c,SCR,2024-06-20_16h29.57.572,LearnStrategy,2023.2.3,Win32,60.24096386,7,2,10,,,,,,,,6,07,,,,,,,,,,,,,6,1.567,1,,,,,,-0.106510417,-0.389322917,1,0,0,1.567299999,Pegmatite_rect,9,0,9,0,1,
59d1e366faf42e00012b6c1c,SCR,2024-06-20_16h29.57.572,LearnStrategy,2023.2.3,Win32,60.24096386,7,2,11,,,,,,,,3,13,,,,,,,,,,,,,3,4.223,1,,,,,,0.133072917,-0.265625,1,0,0,4.2231,Diorite_rect,10,0,10,0,1,
59d1e366faf42e00012b6c1c,SCR,2024-06-20_16h29.57.572,LearnStrategy,2023.2.3,Win32,60.24096386,7,2,12,,,,,,,,8,05,,,,,,,,,,,,,8,2.186,1,,,,,,0.385677083,-0.391927083,1,0,0,2.1864,Pumice_rect,11,0,11,0,1,
59d1e366faf42e00012b6c1c,SCR,2024-06-20_16h29.57.572,LearnStrategy,2023.2.3,Win32,60.24096386,7,2,13,,,,,,,,2,11,,,,,,,,,,,,,2,2.9,1,,,,,,-0.2015625,-0.243489583,1,0,0,2.8997,Basalt_rect,12,0,12,0,1,
59d1e366faf42e00012b6c1c,SCR,2024-06-20_16h29.57.572,LearnStrategy,2023.2.3,Win32,60.24096386,7,2,14,,,,,,,,1,09,,,,,,,,,,,,,1,3.181,1,,,,,,-0.395572917,-0.243489583,1,0,0,3.181299999,Andesite_rect,13,0,13,0,1,
59d1e366faf42e00012b6c1c,SCR,2024-06-20_16h29.57.572,LearnStrategy,2023.2.3,Win32,60.24096386,7,2,15,,,,,,,,8,14,,,,,,,,,,,,,8,2.032,1,,,,,,0.422135417,-0.40234375,1,0,0,2.0317,Pumice_rect,14,0,14,0,1,
59d1e366faf42e00012b6c1c,SCR,2024-06-20_16h29.57.572,LearnStrategy,2023.2.3,Win32,60.24096386,7,2,16,,,,,,,,2,04,,,,,,,,,,,,,2,1.866,1,,,,,,-0.124739583,-0.2578125,1,0,0,1.8657,Basalt_rect,15,0,15,0,1,
59d1e366faf42e00012b6c1c,SCR,2024-06-20_16h29.57.572,LearnStrategy,2023.2.3,Win32,60.24096386,8,1,1,0.073177083,0.423177083,1,0,0,2.103900001,Gabbro_08,4,08,6,5,2.104,4,08,-0.38125,-0.255208333,1,0,0,4.5497,Andesite_rect,1,4.55,0,0,0,0,0,1,,,,,,,,,,,,,
59d1e366faf42e00012b6c1c,SCR,2024-06-20_16h29.57.572,LearnStrategy,2023.2.3,Win32,60.24096386,8,1,2,0.23203125,0.092447917,1,0,0,1.0302,Peridotite_16,7,16,4,6,1.03,7,16,0.168229167,-0.244791667,1,0,0,3.270200001,Diorite_rect,3,3.27,0,1,0,1,0,1,,,,,,,,,,,,,
59d1e366faf42e00012b6c1c,SCR,2024-06-20_16h29.57.572,LearnStrategy,2023.2.3,Win32,60.24096386,8,1,3,-0.555729167,-0.3984375,1,0,0,1.2755,Pegmatite_16,6,16,1,1,1.275,6,16,-0.116927083,-0.393229167,1,0,0,1.098099999,Pegmatite_rect,6,1.098,1,2,0,2,0,1,,,,,,,,,,,,,
59d1e366faf42e00012b6c1c,SCR,2024-06-20_16h29.57.572,LearnStrategy,2023.2.3,Win32,60.24096386,8,1,4,0.582291667,-0.268229167,1,0,0,1.266299999,Basalt_01,2,01,2,8,1.266,2,01,-0.101302083,-0.229166667,1,0,0,1.717799999,Basalt_rect,2,1.718,1,3,0,3,0,1,,,,,,,,,,,,,
59d1e366faf42e00012b6c1c,SCR,2024-06-20_16h29.57.572,LearnStrategy,2023.2.3,Win32,60.24096386,8,1,5,0.23203125,0.372395833,1,0,0,1.8048,Diorite_15,3,15,6,6,1.805,3,15,0.165625,-0.259114583,1,0,0,2.330400001,Diorite_rect,3,2.33,1,4,0,4,0,1,,,,,,,,,,,,,
59d1e366faf42e00012b6c1c,SCR,2024-06-20_16h29.57.572,LearnStrategy,2023.2.3,Win32,60.24096386,8,1,6,-0.227604167,0.2421875,1,0,0,1.359,Gabbro_05,4,05,5,3,1.359,4,05,-0.42421875,-0.252604167,1,0,0,3.126,Andesite_rect,1,3.126,0,5,0,5,0,1,,,,,,,,,,,,,
59d1e366faf42e00012b6c1c,SCR,2024-06-20_16h29.57.572,LearnStrategy,2023.2.3,Win32,60.24096386,8,1,7,-0.372135417,0.092447917,1,0,0,1.3581,Basalt_14,2,14,4,2,1.358,2,14,-0.115625,-0.2578125,1,0,0,3.176799999,Basalt_rect,2,3.177,1,6,0,6,0,1,,,,,,,,,,,,,
59d1e366faf42e00012b6c1c,SCR,2024-06-20_16h29.57.572,LearnStrategy,2023.2.3,Win32,60.24096386,8,1,8,0.088802083,0.27734375,1,0,0,1.1979,Andesite_02,1,02,5,5,1.198,1,02,0.135677083,-0.248697917,1,0,0,2.8658,Diorite_rect,3,2.866,0,7,0,7,0,1,,,,,,,,,,,,,
59d1e366faf42e00012b6c1c,SCR,2024-06-20_16h29.57.572,LearnStrategy,2023.2.3,Win32,60.24096386,8,1,9,0.393489583,0.388020833,1,0,0,2.1074,Obsidian_16,5,16,6,7,2.107,5,16,-0.40859375,-0.40625,1,0,0,1.3138,Obsidian_rect,5,1.314,1,8,0,8,0,1,,,,,,,,,,,,,
59d1e366faf42e00012b6c1c,SCR,2024-06-20_16h29.57.572,LearnStrategy,2023.2.3,Win32,60.24096386,8,1,10,0.234635417,0.432291667,1,0,0,1.3539,Diorite_15,3,15,6,6,1.354,3,15,-0.396875,-0.244791667,1,0,0,2.967900001,Andesite_rect,1,2.968,0,9,0,9,0,1,,,,,,,,,,,,,
59d1e366faf42e00012b6c1c,SCR,2024-06-20_16h29.57.572,LearnStrategy,2023.2.3,Win32,60.24096386,8,1,11,0.56015625,-0.092447917,1,0,0,1.2392,Peridotite_07,7,07,3,8,1.239,7,07,0.108333333,-0.259114583,1,0,0,1.912400001,Diorite_rect,3,1.912,0,10,0,10,0,1,,,,,,,,,,,,,
59d1e366faf42e00012b6c1c,SCR,2024-06-20_16h29.57.572,LearnStrategy,2023.2.3,Win32,60.24096386,8,1,12,0.366145833,0.13671875,1,0,0,1.014,Diorite_14,3,14,4,7,1.014,3,14,0.116145833,-0.25,1,0,0,1.6519,Diorite_rect,3,1.652,1,11,0,11,0,1,,,,,,,,,,,,,
59d1e366faf42e00012b6c1c,SCR,2024-06-20_16h29.57.572,LearnStrategy,2023.2.3,Win32,60.24096386,8,1,13,-0.390364583,-0.412760417,1,0,0,1.6215,Andesite_04,1,04,1,2,1.621,1,04,-0.450260417,-0.2421875,1,0,0,1.5654,Andesite_rect,1,1.565,1,12,0,12,0,1,,,,,,,,,,,,,
59d1e366faf42e00012b6c1c,SCR,2024-06-20_16h29.57.572,LearnStrategy,2023.2.3,Win32,60.24096386,8,1,14,-0.540104167,0.251302083,1,0,0,1.4275,Pegmatite_03,6,03,5,1,1.428,6,03,-0.106510417,-0.389322917,1,0,0,2.0249,Pegmatite_rect,6,2.025,1,13,0,13,0,1,,,,,,,,,,,,,
59d1e366faf42e00012b6c1c,SCR,2024-06-20_16h29.57.572,LearnStrategy,2023.2.3,Win32,60.24096386,8,1,15,0.248958333,0.111979167,1,0,0,1.4127,Peridotite_16,7,16,4,6,1.413,7,16,0.4,-0.26171875,1,0,0,2.2133,Gabbro_rect,4,2.213,0,14,0,14,0,1,,,,,,,,,,,,,
59d1e366faf42e00012b6c1c,SCR,2024-06-20_16h29.57.572,LearnStrategy,2023.2.3,Win32,60.24096386,8,1,16,-0.445052083,-0.09765625,1,0,0,1.0173,Andesite_06,1,06,3,2,1.017,1,06,-0.394270833,-0.236979167,1,0,0,2.4908,Andesite_rect,1,2.491,1,15,0,15,0,1,,,,,,,,,,,,,
59d1e366faf42e00012b6c1c,SCR,2024-06-20_16h29.57.572,LearnStrategy,2023.2.3,Win32,60.24096386,8,2,1,,,,,,,,6,09,,,,,,,,,,,,,6,2.889,1,,,,,,-0.118229167,-0.401041667,1,0,0,2.8888,Pegmatite_rect,0,0,0,0,1,
59d1e366faf42e00012b6c1c,SCR,2024-06-20_16h29.57.572,LearnStrategy,2023.2.3,Win32,60.24096386,8,2,2,,,,,,,,5,10,,,,,,,,,,,,,5,1.359,1,,,,,,-0.391666667,-0.415364583,1,0,0,1.3593,Obsidian_rect,1,0,1,0,1,
59d1e366faf42e00012b6c1c,SCR,2024-06-20_16h29.57.572,LearnStrategy,2023.2.3,Win32,60.24096386,8,2,3,,,,,,,,8,03,,,,,,,,,,,,,8,1.772,1,,,,,,0.452083333,-0.380208333,1,0,0,1.772,Pumice_rect,2,0,2,0,1,
59d1e366faf42e00012b6c1c,SCR,2024-06-20_16h29.57.572,LearnStrategy,2023.2.3,Win32,60.24096386,8,2,4,,,,,,,,7,05,,,,,,,,,,,,,2,2.151,0,,,,,,-0.0765625,-0.235677083,1,0,0,2.1509,Basalt_rect,3,0,3,0,1,
59d1e366faf42e00012b6c1c,SCR,2024-06-20_16h29.57.572,LearnStrategy,2023.2.3,Win32,60.24096386,8,2,5,,,,,,,,8,15,,,,,,,,,,,,,8,2.707,1,,,,,,0.448177083,-0.416666667,1,0,0,2.7073,Pumice_rect,4,0,4,0,1,
59d1e366faf42e00012b6c1c,SCR,2024-06-20_16h29.57.572,LearnStrategy,2023.2.3,Win32,60.24096386,8,2,6,,,,,,,,2,16,,,,,,,,,,,,,2,2.984,1,,,,,,-0.079166667,-0.244791667,1,0,0,2.9839,Basalt_rect,5,0,5,0,1,
59d1e366faf42e00012b6c1c,SCR,2024-06-20_16h29.57.572,LearnStrategy,2023.2.3,Win32,60.24096386,8,2,7,,,,,,,,4,16,,,,,,,,,,,,,4,5.906,1,,,,,,0.38828125,-0.252604167,1,0,0,5.9057,Gabbro_rect,6,0,6,0,1,
59d1e366faf42e00012b6c1c,SCR,2024-06-20_16h29.57.572,LearnStrategy,2023.2.3,Win32,60.24096386,8,2,8,,,,,,,,3,07,,,,,,,,,,,,,3,3.346,1,,,,,,0.13828125,-0.234375,1,0,0,3.3463,Diorite_rect,7,0,7,0,1,
59d1e366faf42e00012b6c1c,SCR,2024-06-20_16h29.57.572,LearnStrategy,2023.2.3,Win32,60.24096386,8,2,9,,,,,,,,6,12,,,,,,,,,,,,,6,4.532,1,,,,,,-0.1078125,-0.39453125,1,0,0,4.5322,Pegmatite_rect,8,0,8,0,1,
59d1e366faf42e00012b6c1c,SCR,2024-06-20_16h29.57.572,LearnStrategy,2023.2.3,Win32,60.24096386,8,2,10,,,,,,,,7,13,,,,,,,,,,,,,1,3.542,0,,,,,,-0.433333333,-0.231770833,1,0,0,3.5423,Andesite_rect,9,0,9,0,1,
59d1e366faf42e00012b6c1c,SCR,2024-06-20_16h29.57.572,LearnStrategy,2023.2.3,Win32,60.24096386,8,2,11,,,,,,,,1,14,,,,,,,,,,,,,6,1.932,0,,,,,,-0.155989583,-0.389322917,1,0,0,1.9322,Pegmatite_rect,10,0,10,0,1,
59d1e366faf42e00012b6c1c,SCR,2024-06-20_16h29.57.572,LearnStrategy,2023.2.3,Win32,60.24096386,8,2,12,,,,,,,,2,08,,,,,,,,,,,,,2,2.695,1,,,,,,-0.085677083,-0.23046875,1,0,0,2.6945,Basalt_rect,11,0,11,0,1,
59d1e366faf42e00012b6c1c,SCR,2024-06-20_16h29.57.572,LearnStrategy,2023.2.3,Win32,60.24096386,8,2,13,,,,,,,,4,09,,,,,,,,,,,,,3,3.639,0,,,,,,0.16953125,-0.23046875,1,0,0,3.6391,Diorite_rect,12,0,12,0,1,
59d1e366faf42e00012b6c1c,SCR,2024-06-20_16h29.57.572,LearnStrategy,2023.2.3,Win32,60.24096386,8,2,14,,,,,,,,3,11,,,,,,,,,,,,,1,1.701,0,,,,,,-0.370833333,-0.23828125,1,0,0,1.700700001,Andesite_rect,13,0,13,0,1,
59d1e366faf42e00012b6c1c,SCR,2024-06-20_16h29.57.572,LearnStrategy,2023.2.3,Win32,60.24096386,8,2,15,,,,,,,,5,05,,,,,,,,,,,,,5,1.514,1,,,,,,-0.391666667,-0.415364583,1,0,0,1.513799999,Obsidian_rect,14,0,14,0,1,
59d1e366faf42e00012b6c1c,SCR,2024-06-20_16h29.57.572,LearnStrategy,2023.2.3,Win32,60.24096386,8,2,16,,,,,,,,1,11,,,,,,,,,,,,,6,2.687,0,,,,,,-0.11171875,-0.401041667,1,0,0,2.6866,Pegmatite_rect,15,0,15,0,1,
59d1e366faf42e00012b6c1c,SCR,2024-06-20_16h29.57.572,LearnStrategy,2023.2.3,Win32,60.24096386,9,1,1,-0.584375,0.1171875,1,0,0,1.3291,Peridotite_15,7,15,4,1,1.329,7,15,0.187760417,-0.235677083,1,0,0,1.703,Diorite_rect,3,1.703,0,0,0,0,0,1,,,,,,,,,,,,,
59d1e366faf42e00012b6c1c,SCR,2024-06-20_16h29.57.572,LearnStrategy,2023.2.3,Win32,60.24096386,9,1,2,-0.094791667,-0.100260417,1,0,0,0.8199,Gabbro_01,4,01,3,4,0.82,4,01,0.127864583,-0.263020833,1,0,0,3.6224,Diorite_rect,3,3.622,0,1,0,1,0,1,,,,,,,,,,,,,
59d1e366faf42e00012b6c1c,SCR,2024-06-20_16h29.57.572,LearnStrategy,2023.2.3,Win32,60.24096386,9,1,3,-0.430729167,-0.119791667,1,0,0,1.031,Andesite_06,1,06,3,2,1.031,1,06,-0.405989583,-0.24609375,1,0,0,1.437799999,Andesite_rect,1,1.438,1,2,0,2,0,1,,,,,,,,,,,,,
59d1e366faf42e00012b6c1c,SCR,2024-06-20_16h29.57.572,LearnStrategy,2023.2.3,Win32,60.24096386,9,1,4,0.4,0.127604167,1,0,0,1.4452,Diorite_14,3,14,4,7,1.445,3,14,0.1890625,-0.252604167,1,0,0,1.6778,Diorite_rect,3,1.678,1,3,0,3,0,1,,,,,,,,,,,,,
59d1e366faf42e00012b6c1c,SCR,2024-06-20_16h29.57.572,LearnStrategy,2023.2.3,Win32,60.24096386,9,1,5,0.540625,-0.0859375,1,0,0,1.232,Peridotite_07,7,07,3,8,1.232,7,07,0.10703125,-0.263020833,1,0,0,2.1211,Diorite_rect,3,2.121,0,4,0,4,0,1,,,,,,,,,,,,,
59d1e366faf42e00012b6c1c,SCR,2024-06-20_16h29.57.572,LearnStrategy,2023.2.3,Win32,60.24096386,9,1,6,0.56015625,-0.266927083,1,0,0,1.255400001,Basalt_01,2,01,2,8,1.255,2,01,-0.071354167,-0.252604167,1,0,0,1.527,Basalt_rect,2,1.527,1,5,0,5,0,1,,,,,,,,,,,,,
59d1e366faf42e00012b6c1c,SCR,2024-06-20_16h29.57.572,LearnStrategy,2023.2.3,Win32,60.24096386,9,1,7,-0.411197917,-0.26171875,1,0,0,1.158200001,Peridotite_02,7,02,2,2,1.158,7,02,0.1421875,-0.40234375,1,0,0,2.6731,Peridotite_rect,7,2.673,1,6,0,6,0,1,,,,,,,,,,,,,
59d1e366faf42e00012b6c1c,SCR,2024-06-20_16h29.57.572,LearnStrategy,2023.2.3,Win32,60.24096386,9,1,8,-0.379947917,-0.24609375,1,0,0,1.530900001,Peridotite_02,7,02,2,2,1.531,7,02,0.182552083,-0.37890625,1,0,0,2.6113,Peridotite_rect,7,2.611,1,7,0,7,0,1,,,,,,,,,,,,,
59d1e366faf42e00012b6c1c,SCR,2024-06-20_16h29.57.572,LearnStrategy,2023.2.3,Win32,60.24096386,9,1,9,0.363541667,0.247395833,1,0,0,1.700299999,Diorite_02,3,02,5,7,1.7,3,02,-0.464583333,-0.252604167,1,0,0,4.076099999,Andesite_rect,1,4.076,0,8,0,8,0,1,,,,,,,,,,,,,
59d1e366faf42e00012b6c1c,SCR,2024-06-20_16h29.57.572,LearnStrategy,2023.2.3,Win32,60.24096386,9,1,10,0.34140625,0.240885417,1,0,0,1.7046,Diorite_02,3,02,5,7,1.705,3,02,0.186458333,-0.251302083,1,0,0,1.0498,Diorite_rect,3,1.05,1,9,0,9,0,1,,,,,,,,,,,,,
59d1e366faf42e00012b6c1c,SCR,2024-06-20_16h29.57.572,LearnStrategy,2023.2.3,Win32,60.24096386,9,1,11,0.217708333,-0.427083333,1,0,0,1.493,Pumice_04,8,04,1,6,1.493,8,04,0.401302083,-0.38671875,1,0,0,3.0992,Pumice_rect,8,3.099,1,10,0,10,0,1,,,,,,,,,,,,,
59d1e366faf42e00012b6c1c,SCR,2024-06-20_16h29.57.572,LearnStrategy,2023.2.3,Win32,60.24096386,9,1,12,0.3765625,-0.083333333,1,0,0,1.089099999,Andesite_01,1,01,3,7,1.089,1,01,-0.376041667,-0.251302083,1,0,0,2.273799999,Andesite_rect,1,2.274,1,11,0,11,0,1,,,,,,,,,,,,,
59d1e366faf42e00012b6c1c,SCR,2024-06-20_16h29.57.572,LearnStrategy,2023.2.3,Win32,60.24096386,9,1,13,0.2515625,-0.255208333,1,0,0,1.0425,Gabbro_15,4,15,2,6,1.043,4,15,0.18515625,-0.255208333,1,0,0,8.669099999,Diorite_rect,3,8.669,0,12,0,12,0,1,,,,,,,,,,,,,
59d1e366faf42e00012b6c1c,SCR,2024-06-20_16h29.57.572,LearnStrategy,2023.2.3,Win32,60.24096386,9,1,14,0.405208333,-0.420572917,1,0,0,1.2645,Pegmatite_10,6,10,1,7,1.264,6,10,-0.114322917,-0.397135417,1,0,0,1.855700001,Pegmatite_rect,6,1.856,1,13,0,13,0,1,,,,,,,,,,,,,
59d1e366faf42e00012b6c1c,SCR,2024-06-20_16h29.57.572,LearnStrategy,2023.2.3,Win32,60.24096386,9,1,15,0.526302083,0.272135417,1,0,0,1.697599999,Obsidian_09,5,09,5,8,1.698,5,09,-0.352604167,-0.391927083,1,0,0,2.052,Obsidian_rect,5,2.052,1,14,0,14,0,1,,,,,,,,,,,,,
59d1e366faf42e00012b6c1c,SCR,2024-06-20_16h29.57.572,LearnStrategy,2023.2.3,Win32,60.24096386,9,1,16,-0.39296875,-0.397135417,1,0,0,1.22,Andesite_04,1,04,1,2,1.22,1,04,-0.379947917,-0.240885417,1,0,0,3.8256,Andesite_rect,1,3.826,1,15,0,15,0,1,,,,,,,,,,,,,
59d1e366faf42e00012b6c1c,SCR,2024-06-20_16h29.57.572,LearnStrategy,2023.2.3,Win32,60.24096386,9,2,1,,,,,,,,5,12,,,,,,,,,,,,,5,1.32,1,,,,,,-0.43984375,-0.4140625,1,0,0,1.3196,Obsidian_rect,0,0,0,0,1,
59d1e366faf42e00012b6c1c,SCR,2024-06-20_16h29.57.572,LearnStrategy,2023.2.3,Win32,60.24096386,9,2,2,,,,,,,,8,10,,,,,,,,,,,,,8,1.561,1,,,,,,0.406510417,-0.393229167,1,0,0,1.5612,Pumice_rect,1,0,1,0,1,
59d1e366faf42e00012b6c1c,SCR,2024-06-20_16h29.57.572,LearnStrategy,2023.2.3,Win32,60.24096386,9,2,3,,,,,,,,2,06,,,,,,,,,,,,,4,3.679,0,,,,,,0.373958333,-0.255208333,1,0,0,3.678700001,Gabbro_rect,2,0,2,0,1,
59d1e366faf42e00012b6c1c,SCR,2024-06-20_16h29.57.572,LearnStrategy,2023.2.3,Win32,60.24096386,9,2,4,,,,,,,,5,07,,,,,,,,,,,,,5,1.44,1,,,,,,-0.376041667,-0.388020833,1,0,0,1.4405,Obsidian_rect,3,0,3,0,1,
59d1e366faf42e00012b6c1c,SCR,2024-06-20_16h29.57.572,LearnStrategy,2023.2.3,Win32,60.24096386,9,2,5,,,,,,,,1,05,,,,,,,,,,,,,1,3.287,1,,,,,,-0.343489583,-0.240885417,1,0,0,3.2872,Andesite_rect,4,0,4,0,1,
59d1e366faf42e00012b6c1c,SCR,2024-06-20_16h29.57.572,LearnStrategy,2023.2.3,Win32,60.24096386,9,2,6,,,,,,,,3,09,,,,,,,,,,,,,1,3.657,0,,,,,,-0.428125,-0.243489583,1,0,0,3.6574,Andesite_rect,5,0,5,0,1,
59d1e366faf42e00012b6c1c,SCR,2024-06-20_16h29.57.572,LearnStrategy,2023.2.3,Win32,60.24096386,9,2,7,,,,,,,,7,06,,,,,,,,,,,,,7,1.655,1,,,,,,0.134375,-0.40234375,1,0,0,1.655,Peridotite_rect,6,0,6,0,1,
59d1e366faf42e00012b6c1c,SCR,2024-06-20_16h29.57.572,LearnStrategy,2023.2.3,Win32,60.24096386,9,2,8,,,,,,,,2,09,,,,,,,,,,,,,4,3.098,0,,,,,,0.449479167,-0.265625,1,0,0,3.097900001,Gabbro_rect,7,0,7,0,1,
59d1e366faf42e00012b6c1c,SCR,2024-06-20_16h29.57.572,LearnStrategy,2023.2.3,Win32,60.24096386,9,2,9,,,,,,,,6,13,,,,,,,,,,,,,6,2.183,1,,,,,,-0.102604167,-0.401041667,1,0,0,2.1828,Pegmatite_rect,8,0,8,0,1,
59d1e366faf42e00012b6c1c,SCR,2024-06-20_16h29.57.572,LearnStrategy,2023.2.3,Win32,60.24096386,9,2,10,,,,,,,,6,15,,,,,,,,,,,,,6,1.452,1,,,,,,-0.11171875,-0.407552083,1,0,0,1.4516,Pegmatite_rect,9,0,9,0,1,
59d1e366faf42e00012b6c1c,SCR,2024-06-20_16h29.57.572,LearnStrategy,2023.2.3,Win32,60.24096386,9,2,11,,,,,,,,8,13,,,,,,,,,,,,,8,1.764,1,,,,,,0.375260417,-0.401041667,1,0,0,1.7644,Pumice_rect,10,0,10,0,1,
59d1e366faf42e00012b6c1c,SCR,2024-06-20_16h29.57.572,LearnStrategy,2023.2.3,Win32,60.24096386,9,2,12,,,,,,,,1,10,,,,,,,,,,,,,3,1.686,0,,,,,,0.11484375,-0.24609375,1,0,0,1.686,Diorite_rect,11,0,11,0,1,
59d1e366faf42e00012b6c1c,SCR,2024-06-20_16h29.57.572,LearnStrategy,2023.2.3,Win32,60.24096386,9,2,13,,,,,,,,7,04,,,,,,,,,,,,,7,2.594,1,,,,,,0.080989583,-0.38671875,1,0,0,2.5942,Peridotite_rect,12,0,12,0,1,
59d1e366faf42e00012b6c1c,SCR,2024-06-20_16h29.57.572,LearnStrategy,2023.2.3,Win32,60.24096386,9,2,14,,,,,,,,4,13,,,,,,,,,,,,,1,3.415,0,,,,,,-0.386458333,-0.251302083,1,0,0,3.4154,Andesite_rect,13,0,13,0,1,
59d1e366faf42e00012b6c1c,SCR,2024-06-20_16h29.57.572,LearnStrategy,2023.2.3,Win32,60.24096386,9,2,15,,,,,,,,4,12,,,,,,,,,,,,,4,2.046,1,,,,,,0.377864583,-0.255208333,1,0,0,2.0457,Gabbro_rect,14,0,14,0,1,
59d1e366faf42e00012b6c1c,SCR,2024-06-20_16h29.57.572,LearnStrategy,2023.2.3,Win32,60.24096386,9,2,16,,,,,,,,3,16,,,,,,,,,,,,,3,4.007,1,,,,,,0.135677083,-0.229166667,1,0,0,4.007400001,Diorite_rect,15,0,15,0,1,
59d1e366faf42e00012b6c1c,SCR,2024-06-20_16h29.57.572,LearnStrategy,2023.2.3,Win32,60.24096386,,,,,,,,,,,,,,,,,,,,,,,,,,,,,,,,,,,,,,,,,,,,,1
59d1e366faf42e00012b6c1c,SCR,2024-06-20_16h29.57.572,LearnStrategy,2023.2.3,Win32,60.24096386,,,,,,,,,,,,,,,,,,,,,,,,,,,,,,,,,,,,,,,,,,,,,
59d1e366faf42e00012b6c1c,SCR,2024-06-20_16h29.57.572,LearnStrategy,2023.2.3,Win32,60.24096386,,,,,,,,,,,6,16,1,1,,,,,,,,,,,,,,,,,,,,,,,,,,,,,,,
59d1e366faf42e00012b6c1c,SCR,2024-06-20_16h29.57.572,LearnStrategy,2023.2.3,Win32,60.24096386,,,,,,,,,,,1,04,1,2,,,,,,,,,,,,,,,,,,,,,,,,,,,,,,,
59d1e366faf42e00012b6c1c,SCR,2024-06-20_16h29.57.572,LearnStrategy,2023.2.3,Win32,60.24096386,,,,,,,,,,,2,02,1,3,,,,,,,,,,,,,,,,,,,,,,,,,,,,,,,
59d1e366faf42e00012b6c1c,SCR,2024-06-20_16h29.57.572,LearnStrategy,2023.2.3,Win32,60.24096386,,,,,,,,,,,8,16,1,4,,,,,,,,,,,,,,,,,,,,,,,,,,,,,,,
59d1e366faf42e00012b6c1c,SCR,2024-06-20_16h29.57.572,LearnStrategy,2023.2.3,Win32,60.24096386,,,,,,,,,,,4,10,1,5,,,,,,,,,,,,,,,,,,,,,,,,,,,,,,,
59d1e366faf42e00012b6c1c,SCR,2024-06-20_16h29.57.572,LearnStrategy,2023.2.3,Win32,60.24096386,,,,,,,,,,,8,04,1,6,,,,,,,,,,,,,,,,,,,,,,,,,,,,,,,
59d1e366faf42e00012b6c1c,SCR,2024-06-20_16h29.57.572,LearnStrategy,2023.2.3,Win32,60.24096386,,,,,,,,,,,6,10,1,7,,,,,,,,,,,,,,,,,,,,,,,,,,,,,,,
59d1e366faf42e00012b6c1c,SCR,2024-06-20_16h29.57.572,LearnStrategy,2023.2.3,Win32,60.24096386,,,,,,,,,,,5,08,1,8,,,,,,,,,,,,,,,,,,,,,,,,,,,,,,,
59d1e366faf42e00012b6c1c,SCR,2024-06-20_16h29.57.572,LearnStrategy,2023.2.3,Win32,60.24096386,,,,,,,,,,,5,14,2,1,,,,,,,,,,,,,,,,,,,,,,,,,,,,,,,
59d1e366faf42e00012b6c1c,SCR,2024-06-20_16h29.57.572,LearnStrategy,2023.2.3,Win32,60.24096386,,,,,,,,,,,7,02,2,2,,,,,,,,,,,,,,,,,,,,,,,,,,,,,,,
59d1e366faf42e00012b6c1c,SCR,2024-06-20_16h29.57.572,LearnStrategy,2023.2.3,Win32,60.24096386,,,,,,,,,,,3,08,2,3,,,,,,,,,,,,,,,,,,,,,,,,,,,,,,,
59d1e366faf42e00012b6c1c,SCR,2024-06-20_16h29.57.572,LearnStrategy,2023.2.3,Win32,60.24096386,,,,,,,,,,,1,16,2,4,,,,,,,,,,,,,,,,,,,,,,,,,,,,,,,
59d1e366faf42e00012b6c1c,SCR,2024-06-20_16h29.57.572,LearnStrategy,2023.2.3,Win32,60.24096386,,,,,,,,,,,7,12,2,5,,,,,,,,,,,,,,,,,,,,,,,,,,,,,,,
59d1e366faf42e00012b6c1c,SCR,2024-06-20_16h29.57.572,LearnStrategy,2023.2.3,Win32,60.24096386,,,,,,,,,,,4,15,2,6,,,,,,,,,,,,,,,,,,,,,,,,,,,,,,,
59d1e366faf42e00012b6c1c,SCR,2024-06-20_16h29.57.572,LearnStrategy,2023.2.3,Win32,60.24096386,,,,,,,,,,,3,12,2,7,,,,,,,,,,,,,,,,,,,,,,,,,,,,,,,
59d1e366faf42e00012b6c1c,SCR,2024-06-20_16h29.57.572,LearnStrategy,2023.2.3,Win32,60.24096386,,,,,,,,,,,2,01,2,8,,,,,,,,,,,,,,,,,,,,,,,,,,,,,,,
59d1e366faf42e00012b6c1c,SCR,2024-06-20_16h29.57.572,LearnStrategy,2023.2.3,Win32,60.24096386,,,,,,,,,,,5,02,3,1,,,,,,,,,,,,,,,,,,,,,,,,,,,,,,,
59d1e366faf42e00012b6c1c,SCR,2024-06-20_16h29.57.572,LearnStrategy,2023.2.3,Win32,60.24096386,,,,,,,,,,,1,06,3,2,,,,,,,,,,,,,,,,,,,,,,,,,,,,,,,
59d1e366faf42e00012b6c1c,SCR,2024-06-20_16h29.57.572,LearnStrategy,2023.2.3,Win32,60.24096386,,,,,,,,,,,3,10,3,3,,,,,,,,,,,,,,,,,,,,,,,,,,,,,,,
59d1e366faf42e00012b6c1c,SCR,2024-06-20_16h29.57.572,LearnStrategy,2023.2.3,Win32,60.24096386,,,,,,,,,,,4,01,3,4,,,,,,,,,,,,,,,,,,,,,,,,,,,,,,,
59d1e366faf42e00012b6c1c,SCR,2024-06-20_16h29.57.572,LearnStrategy,2023.2.3,Win32,60.24096386,,,,,,,,,,,4,03,3,5,,,,,,,,,,,,,,,,,,,,,,,,,,,,,,,
59d1e366faf42e00012b6c1c,SCR,2024-06-20_16h29.57.572,LearnStrategy,2023.2.3,Win32,60.24096386,,,,,,,,,,,6,08,3,6,,,,,,,,,,,,,,,,,,,,,,,,,,,,,,,
59d1e366faf42e00012b6c1c,SCR,2024-06-20_16h29.57.572,LearnStrategy,2023.2.3,Win32,60.24096386,,,,,,,,,,,1,01,3,7,,,,,,,,,,,,,,,,,,,,,,,,,,,,,,,
59d1e366faf42e00012b6c1c,SCR,2024-06-20_16h29.57.572,LearnStrategy,2023.2.3,Win32,60.24096386,,,,,,,,,,,7,07,3,8,,,,,,,,,,,,,,,,,,,,,,,,,,,,,,,
59d1e366faf42e00012b6c1c,SCR,2024-06-20_16h29.57.572,LearnStrategy,2023.2.3,Win32,60.24096386,,,,,,,,,,,7,15,4,1,,,,,,,,,,,,,,,,,,,,,,,,,,,,,,,
59d1e366faf42e00012b6c1c,SCR,2024-06-20_16h29.57.572,LearnStrategy,2023.2.3,Win32,60.24096386,,,,,,,,,,,2,14,4,2,,,,,,,,,,,,,,,,,,,,,,,,,,,,,,,
59d1e366faf42e00012b6c1c,SCR,2024-06-20_16h29.57.572,LearnStrategy,2023.2.3,Win32,60.24096386,,,,,,,,,,,8,02,4,3,,,,,,,,,,,,,,,,,,,,,,,,,,,,,,,
59d1e366faf42e00012b6c1c,SCR,2024-06-20_16h29.57.572,LearnStrategy,2023.2.3,Win32,60.24096386,,,,,,,,,,,5,11,4,4,,,,,,,,,,,,,,,,,,,,,,,,,,,,,,,
59d1e366faf42e00012b6c1c,SCR,2024-06-20_16h29.57.572,LearnStrategy,2023.2.3,Win32,60.24096386,,,,,,,,,,,8,08,4,5,,,,,,,,,,,,,,,,,,,,,,,,,,,,,,,
59d1e366faf42e00012b6c1c,SCR,2024-06-20_16h29.57.572,LearnStrategy,2023.2.3,Win32,60.24096386,,,,,,,,,,,7,16,4,6,,,,,,,,,,,,,,,,,,,,,,,,,,,,,,,
59d1e366faf42e00012b6c1c,SCR,2024-06-20_16h29.57.572,LearnStrategy,2023.2.3,Win32,60.24096386,,,,,,,,,,,3,14,4,7,,,,,,,,,,,,,,,,,,,,,,,,,,,,,,,
59d1e366faf42e00012b6c1c,SCR,2024-06-20_16h29.57.572,LearnStrategy,2023.2.3,Win32,60.24096386,,,,,,,,,,,2,05,4,8,,,,,,,,,,,,,,,,,,,,,,,,,,,,,,,
59d1e366faf42e00012b6c1c,SCR,2024-06-20_16h29.57.572,LearnStrategy,2023.2.3,Win32,60.24096386,,,,,,,,,,,6,03,5,1,,,,,,,,,,,,,,,,,,,,,,,,,,,,,,,
59d1e366faf42e00012b6c1c,SCR,2024-06-20_16h29.57.572,LearnStrategy,2023.2.3,Win32,60.24096386,,,,,,,,,,,8,06,5,2,,,,,,,,,,,,,,,,,,,,,,,,,,,,,,,
59d1e366faf42e00012b6c1c,SCR,2024-06-20_16h29.57.572,LearnStrategy,2023.2.3,Win32,60.24096386,,,,,,,,,,,4,05,5,3,,,,,,,,,,,,,,,,,,,,,,,,,,,,,,,
59d1e366faf42e00012b6c1c,SCR,2024-06-20_16h29.57.572,LearnStrategy,2023.2.3,Win32,60.24096386,,,,,,,,,,,8,09,5,4,,,,,,,,,,,,,,,,,,,,,,,,,,,,,,,
59d1e366faf42e00012b6c1c,SCR,2024-06-20_16h29.57.572,LearnStrategy,2023.2.3,Win32,60.24096386,,,,,,,,,,,1,02,5,5,,,,,,,,,,,,,,,,,,,,,,,,,,,,,,,
59d1e366faf42e00012b6c1c,SCR,2024-06-20_16h29.57.572,LearnStrategy,2023.2.3,Win32,60.24096386,,,,,,,,,,,7,08,5,6,,,,,,,,,,,,,,,,,,,,,,,,,,,,,,,
59d1e366faf42e00012b6c1c,SCR,2024-06-20_16h29.57.572,LearnStrategy,2023.2.3,Win32,60.24096386,,,,,,,,,,,3,02,5,7,,,,,,,,,,,,,,,,,,,,,,,,,,,,,,,
59d1e366faf42e00012b6c1c,SCR,2024-06-20_16h29.57.572,LearnStrategy,2023.2.3,Win32,60.24096386,,,,,,,,,,,5,09,5,8,,,,,,,,,,,,,,,,,,,,,,,,,,,,,,,
59d1e366faf42e00012b6c1c,SCR,2024-06-20_16h29.57.572,LearnStrategy,2023.2.3,Win32,60.24096386,,,,,,,,,,,2,10,6,1,,,,,,,,,,,,,,,,,,,,,,,,,,,,,,,
59d1e366faf42e00012b6c1c,SCR,2024-06-20_16h29.57.572,LearnStrategy,2023.2.3,Win32,60.24096386,,,,,,,,,,,6,05,6,2,,,,,,,,,,,,,,,,,,,,,,,,,,,,,,,
59d1e366faf42e00012b6c1c,SCR,2024-06-20_16h29.57.572,LearnStrategy,2023.2.3,Win32,60.24096386,,,,,,,,,,,2,12,6,3,,,,,,,,,,,,,,,,,,,,,,,,,,,,,,,
59d1e366faf42e00012b6c1c,SCR,2024-06-20_16h29.57.572,LearnStrategy,2023.2.3,Win32,60.24096386,,,,,,,,,,,1,07,6,4,,,,,,,,,,,,,,,,,,,,,,,,,,,,,,,
59d1e366faf42e00012b6c1c,SCR,2024-06-20_16h29.57.572,LearnStrategy,2023.2.3,Win32,60.24096386,,,,,,,,,,,4,08,6,5,,,,,,,,,,,,,,,,,,,,,,,,,,,,,,,
59d1e366faf42e00012b6c1c,SCR,2024-06-20_16h29.57.572,LearnStrategy,2023.2.3,Win32,60.24096386,,,,,,,,,,,3,15,6,6,,,,,,,,,,,,,,,,,,,,,,,,,,,,,,,
59d1e366faf42e00012b6c1c,SCR,2024-06-20_16h29.57.572,LearnStrategy,2023.2.3,Win32,60.24096386,,,,,,,,,,,5,16,6,7,,,,,,,,,,,,,,,,,,,,,,,,,,,,,,,
59d1e366faf42e00012b6c1c,SCR,2024-06-20_16h29.57.572,LearnStrategy,2023.2.3,Win32,60.24096386,,,,,,,,,,,6,06,6,8,,,,,,,,,,,,,,,,,,,,,,,,,,,,,,,