participant,condition,date,expName,psychopyVersion,OS,frameRate,block,phase,trial,learn_mouse.x,learn_mouse.y,learn_mouse.leftButton,learn_mouse.midButton,learn_mouse.rightButton,learn_mouse.time,learn_mouse.clicked_name,cat,token,row,col,t_select,cat_rec,token_rec,cat_mouse_l.x,cat_mouse_l.y,cat_mouse_l.leftButton,cat_mouse_l.midButton,cat_mouse_l.rightButton,cat_mouse_l.time,cat_mouse_l.clicked_name,resp,t_resp,corr,train_trials.thisRepN,train_trials.thisTrialN,train_trials.thisN,train_trials.thisIndex,train_trials.ran,cat_mouse_t.x,cat_mouse_t.y,cat_mouse_t.leftButton,cat_mouse_t.midButton,cat_mouse_t.rightButton,cat_mouse_t.time,cat_mouse_t.clicked_name,test_trials.thisRepN,test_trials.thisTrialN,test_trials.thisN,test_trials.thisIndex,test_trials.ran,Bonus
5a3e5d407a3e3a0001dd3f7c,SCR,2024-06-21_13h47.24.790,LearnStrategy,2023.2.3,Win32,59.52380952,,,,,,,,,,,,,,,,,,,,,,,,,,,,,,,,,,,,,,,,,,,,,
5a3e5d407a3e3a0001dd3f7c,SCR,2024-06-21_13h47.24.790,LearnStrategy,2023.2.3,Win32,59.52380952,1,1,1,-0.252222222,-0.274444444,1,0,0,3.4825,Andesite_11,1,11,2,3,3.482,1,11,-0.14,-0.242222222,1,0,0,11.6126,Basalt_rect,2,11.613,0,0,0,0,0,1,,,,,,,,,,,,,
5a3e5d407a3e3a0001dd3f7c,SCR,2024-06-21_13h47.24.790,LearnStrategy,2023.2.3,Win32,59.52380952,1,1,2,0.198888889,0.281111111,1,0,0,1.6472,Pegmatite_12,6,12,5,6,1.647,6,12,0.1,-0.39,1,0,0,9.1344,Peridotite_rect,7,9.134,0,1,0,1,0,1,,,,,,,,,,,,,
5a3e5d407a3e3a0001dd3f7c,SCR,2024-06-21_13h47.24.790,LearnStrategy,2023.2.3,Win32,59.52380952,1,1,3,0.242222222,-0.063333333,1,0,0,1.8963,Basalt_12,2,12,3,6,1.896,2,12,0.413333333,-0.384444444,1,0,0,8.1229,Pumice_rect,8,8.123,0,2,0,2,0,1,,,,,,,,,,,,,
5a3e5d407a3e3a0001dd3f7c,SCR,2024-06-21_13h47.24.790,LearnStrategy,2023.2.3,Win32,59.52380952,1,1,4,-0.542222222,0.398888889,1,0,0,2.1074,Pegmatite_15,6,15,6,1,2.107,6,15,-0.432222222,-0.385555556,1,0,0,17.4486,Obsidian_rect,5,17.449,0,3,0,3,0,1,,,,,,,,,,,,,
5a3e5d407a3e3a0001dd3f7c,SCR,2024-06-21_13h47.24.790,LearnStrategy,2023.2.3,Win32,59.52380952,1,1,5,-0.368888889,0.377777778,1,0,0,1.9947,Peridotite_02,7,02,6,2,1.995,7,02,0.133333333,-0.23,1,0,0,19.2349,Diorite_rect,3,19.235,0,4,0,4,0,1,,,,,,,,,,,,,
5a3e5d407a3e3a0001dd3f7c,SCR,2024-06-21_13h47.24.790,LearnStrategy,2023.2.3,Win32,59.52380952,1,1,6,-0.382222222,-0.407777778,1,0,0,2.0598,Gabbro_09,4,09,1,2,2.06,4,09,-0.182222222,-0.242222222,1,0,0,3.7075,Basalt_rect,2,3.707,0,5,0,5,0,1,,,,,,,,,,,,,
5a3e5d407a3e3a0001dd3f7c,SCR,2024-06-21_13h47.24.790,LearnStrategy,2023.2.3,Win32,59.52380952,1,1,7,-0.078888889,-0.384444444,1,0,0,1.5952,Peridotite_10,7,10,1,4,1.595,7,10,0.114444444,-0.245555556,1,0,0,15.6354,Diorite_rect,3,15.635,0,6,0,6,0,1,,,,,,,,,,,,,
5a3e5d407a3e3a0001dd3f7c,SCR,2024-06-21_13h47.24.790,LearnStrategy,2023.2.3,Win32,59.52380952,1,1,8,0.09,0.103333333,1,0,0,1.0624,Gabbro_13,4,13,4,5,1.062,4,13,0.388888889,-0.247777778,1,0,0,6.923,Gabbro_rect,4,6.923,1,7,0,7,0,1,,,,,,,,,,,,,
5a3e5d407a3e3a0001dd3f7c,SCR,2024-06-21_13h47.24.790,LearnStrategy,2023.2.3,Win32,59.52380952,1,1,9,-0.228888889,0.233333333,1,0,0,1.5964,Obsidian_14,5,14,5,3,1.596,5,14,-0.105555556,-0.238888889,1,0,0,5.536,Basalt_rect,2,5.536,0,8,0,8,0,1,,,,,,,,,,,,,
5a3e5d407a3e3a0001dd3f7c,SCR,2024-06-21_13h47.24.790,LearnStrategy,2023.2.3,Win32,59.52380952,1,1,10,-0.055555556,-0.237777778,1,0,0,1.9102,Pumice_09,8,09,2,4,1.91,8,09,-0.383333333,-0.246666667,1,0,0,1.6224,Andesite_rect,1,1.622,0,9,0,9,0,1,,,,,,,,,,,,,
5a3e5d407a3e3a0001dd3f7c,SCR,2024-06-21_13h47.24.790,LearnStrategy,2023.2.3,Win32,59.52380952,1,1,11,-0.524444444,-0.26,1,0,0,1.926,Pumice_03,8,03,2,1,1.926,8,03,0.398888889,-0.39,1,0,0,9.9833,Pumice_rect,8,9.983,1,10,0,10,0,1,,,,,,,,,,,,,
5a3e5d407a3e3a0001dd3f7c,SCR,2024-06-21_13h47.24.790,LearnStrategy,2023.2.3,Win32,59.52380952,1,1,12,-0.07,0.065555556,1,0,0,1.3549,Diorite_15,3,15,4,4,1.355,3,15,0.382222222,-0.242222222,1,0,0,4.3158,Gabbro_rect,4,4.316,0,11,0,11,0,1,,,,,,,,,,,,,
5a3e5d407a3e3a0001dd3f7c,SCR,2024-06-21_13h47.24.790,LearnStrategy,2023.2.3,Win32,59.52380952,1,1,13,0.405555556,0.108888889,1,0,0,1.5123,Basalt_01,2,01,4,7,1.512,2,01,-0.133333333,-0.242222222,1,0,0,4.8008,Basalt_rect,2,4.801,1,12,0,12,0,1,,,,,,,,,,,,,
5a3e5d407a3e3a0001dd3f7c,SCR,2024-06-21_13h47.24.790,LearnStrategy,2023.2.3,Win32,59.52380952,1,1,14,0.375555556,-0.425555556,1,0,0,1.7271,Obsidian_12,5,12,1,7,1.727,5,12,-0.353333333,-0.4,1,0,0,7.4699,Obsidian_rect,5,7.47,1,13,0,13,0,1,,,,,,,,,,,,,
5a3e5d407a3e3a0001dd3f7c,SCR,2024-06-21_13h47.24.790,LearnStrategy,2023.2.3,Win32,59.52380952,1,1,15,0.566666667,-0.074444444,1,0,0,1.5114,Andesite_09,1,09,3,8,1.511,1,09,-0.355555556,-0.24,1,0,0,2.7586,Andesite_rect,1,2.759,1,14,0,14,0,1,,,,,,,,,,,,,
5a3e5d407a3e3a0001dd3f7c,SCR,2024-06-21_13h47.24.790,LearnStrategy,2023.2.3,Win32,59.52380952,1,1,16,0.065555556,-0.23,1,0,0,1.4465,Diorite_06,3,06,2,5,1.447,3,06,0.076666667,-0.395555556,1,0,0,6.8998,Peridotite_rect,7,6.9,0,15,0,15,0,1,,,,,,,,,,,,,
5a3e5d407a3e3a0001dd3f7c,SCR,2024-06-21_13h47.24.790,LearnStrategy,2023.2.3,Win32,59.52380952,1,2,1,,,,,,,,7,12,,,,,,,,,,,,,7,6.55,1,,,,,,0.128888889,-0.408888889,1,0,0,6.5502,Peridotite_rect,0,0,0,0,1,
5a3e5d407a3e3a0001dd3f7c,SCR,2024-06-21_13h47.24.790,LearnStrategy,2023.2.3,Win32,59.52380952,1,2,2,,,,,,,,3,13,,,,,,,,,,,,,4,5.865,0,,,,,,0.381111111,-0.25,1,0,0,5.865,Gabbro_rect,1,0,1,0,1,
5a3e5d407a3e3a0001dd3f7c,SCR,2024-06-21_13h47.24.790,LearnStrategy,2023.2.3,Win32,59.52380952,1,2,3,,,,,,,,8,04,,,,,,,,,,,,,8,2.036,1,,,,,,0.396666667,-0.395555556,1,0,0,2.0365,Pumice_rect,2,0,2,0,1,
5a3e5d407a3e3a0001dd3f7c,SCR,2024-06-21_13h47.24.790,LearnStrategy,2023.2.3,Win32,59.52380952,1,2,4,,,,,,,,6,16,,,,,,,,,,,,,7,6.542,0,,,,,,0.067777778,-0.397777778,1,0,0,6.5421,Peridotite_rect,3,0,3,0,1,
5a3e5d407a3e3a0001dd3f7c,SCR,2024-06-21_13h47.24.790,LearnStrategy,2023.2.3,Win32,59.52380952,1,2,5,,,,,,,,2,05,,,,,,,,,,,,,5,2.786,0,,,,,,-0.382222222,-0.4,1,0,0,2.7862,Obsidian_rect,4,0,4,0,1,
5a3e5d407a3e3a0001dd3f7c,SCR,2024-06-21_13h47.24.790,LearnStrategy,2023.2.3,Win32,59.52380952,1,2,6,,,,,,,,5,04,,,,,,,,,,,,,5,2.451,1,,,,,,-0.382222222,-0.4,1,0,0,2.4509,Obsidian_rect,5,0,5,0,1,
5a3e5d407a3e3a0001dd3f7c,SCR,2024-06-21_13h47.24.790,LearnStrategy,2023.2.3,Win32,59.52380952,1,2,7,,,,,,,,3,16,,,,,,,,,,,,,3,3.299,1,,,,,,0.097777778,-0.232222222,1,0,0,3.2991,Diorite_rect,6,0,6,0,1,
5a3e5d407a3e3a0001dd3f7c,SCR,2024-06-21_13h47.24.790,LearnStrategy,2023.2.3,Win32,59.52380952,1,2,8,,,,,,,,7,08,,,,,,,,,,,,,7,3.666,1,,,,,,0.107777778,-0.39,1,0,0,3.6663,Peridotite_rect,7,0,7,0,1,
5a3e5d407a3e3a0001dd3f7c,SCR,2024-06-21_13h47.24.790,LearnStrategy,2023.2.3,Win32,59.52380952,1,2,9,,,,,,,,5,05,,,,,,,,,,,,,6,5.112,0,,,,,,-0.136666667,-0.404444444,1,0,0,5.1123,Pegmatite_rect,8,0,8,0,1,
5a3e5d407a3e3a0001dd3f7c,SCR,2024-06-21_13h47.24.790,LearnStrategy,2023.2.3,Win32,59.52380952,1,2,10,,,,,,,,8,13,,,,,,,,,,,,,8,8.702,1,,,,,,0.37,-0.385555556,1,0,0,8.7016,Pumice_rect,9,0,9,0,1,
5a3e5d407a3e3a0001dd3f7c,SCR,2024-06-21_13h47.24.790,LearnStrategy,2023.2.3,Win32,59.52380952,1,2,11,,,,,,,,4,01,,,,,,,,,,,,,4,2.539,1,,,,,,0.373333333,-0.237777778,1,0,0,2.5386,Gabbro_rect,10,0,10,0,1,
5a3e5d407a3e3a0001dd3f7c,SCR,2024-06-21_13h47.24.790,LearnStrategy,2023.2.3,Win32,59.52380952,1,2,12,,,,,,,,1,01,,,,,,,,,,,,,3,2.568,0,,,,,,0.145555556,-0.26,1,0,0,2.568,Diorite_rect,11,0,11,0,1,
5a3e5d407a3e3a0001dd3f7c,SCR,2024-06-21_13h47.24.790,LearnStrategy,2023.2.3,Win32,59.52380952,1,2,13,,,,,,,,1,05,,,,,,,,,,,,,6,4.613,0,,,,,,-0.117777778,-0.418888889,1,0,0,4.6126,Pegmatite_rect,12,0,12,0,1,
5a3e5d407a3e3a0001dd3f7c,SCR,2024-06-21_13h47.24.790,LearnStrategy,2023.2.3,Win32,59.52380952,1,2,14,,,,,,,,2,11,,,,,,,,,,,,,8,2.855,0,,,,,,0.304444444,-0.387777778,1,0,0,2.8549,Pumice_rect,13,0,13,0,1,
5a3e5d407a3e3a0001dd3f7c,SCR,2024-06-21_13h47.24.790,LearnStrategy,2023.2.3,Win32,59.52380952,1,2,15,,,,,,,,4,05,,,,,,,,,,,,,5,3.153,0,,,,,,-0.356666667,-0.386666667,1,0,0,3.1526,Obsidian_rect,14,0,14,0,1,
5a3e5d407a3e3a0001dd3f7c,SCR,2024-06-21_13h47.24.790,LearnStrategy,2023.2.3,Win32,59.52380952,1,2,16,,,,,,,,6,11,,,,,,,,,,,,,2,4.471,0,,,,,,-0.166666667,-0.257777778,1,0,0,4.4709,Basalt_rect,15,0,15,0,1,
5a3e5d407a3e3a0001dd3f7c,SCR,2024-06-21_13h47.24.790,LearnStrategy,2023.2.3,Win32,59.52380952,2,1,1,-0.536666667,0.382222222,1,0,0,5.5276,Pegmatite_15,6,15,6,1,5.528,6,15,0.403333333,-0.237777778,1,0,0,4.9655,Gabbro_rect,4,4.966,0,0,0,0,0,1,,,,,,,,,,,,,
5a3e5d407a3e3a0001dd3f7c,SCR,2024-06-21_13h47.24.790,LearnStrategy,2023.2.3,Win32,59.52380952,2,1,2,0.565555556,-0.08,1,0,0,1.5485,Andesite_09,1,09,3,8,1.548,1,09,0.063333333,-0.264444444,1,0,0,5.8198,Diorite_rect,3,5.82,0,1,0,1,0,1,,,,,,,,,,,,,
5a3e5d407a3e3a0001dd3f7c,SCR,2024-06-21_13h47.24.790,LearnStrategy,2023.2.3,Win32,59.52380952,2,1,3,0.06,-0.113333333,1,0,0,3.8304,Basalt_10,2,10,3,5,3.83,2,10,-0.088888889,-0.242222222,1,0,0,5.3467,Basalt_rect,2,5.347,1,2,0,2,0,1,,,,,,,,,,,,,
5a3e5d407a3e3a0001dd3f7c,SCR,2024-06-21_13h47.24.790,LearnStrategy,2023.2.3,Win32,59.52380952,2,1,4,-0.248888889,-0.257777778,1,0,0,1.5142,Andesite_11,1,11,2,3,1.514,1,11,0.093333333,-0.237777778,1,0,0,4.5414,Diorite_rect,3,4.541,0,3,0,3,0,1,,,,,,,,,,,,,
5a3e5d407a3e3a0001dd3f7c,SCR,2024-06-21_13h47.24.790,LearnStrategy,2023.2.3,Win32,59.52380952,2,1,5,0.545555556,0.106666667,1,0,0,1.7292,Gabbro_08,4,08,4,8,1.729,4,08,-0.376666667,-0.247777778,1,0,0,3.3979,Andesite_rect,1,3.398,0,4,0,4,0,1,,,,,,,,,,,,,
5a3e5d407a3e3a0001dd3f7c,SCR,2024-06-21_13h47.24.790,LearnStrategy,2023.2.3,Win32,59.52380952,2,1,6,-0.081111111,0.387777778,1,0,0,2.3624,Basalt_09,2,09,6,4,2.362,2,09,-0.372222222,-0.255555556,1,0,0,3.8224,Andesite_rect,1,3.822,0,5,0,5,0,1,,,,,,,,,,,,,
5a3e5d407a3e3a0001dd3f7c,SCR,2024-06-21_13h47.24.790,LearnStrategy,2023.2.3,Win32,59.52380952,2,1,7,-0.412222222,-0.413333333,1,0,0,1.629,Gabbro_09,4,09,1,2,1.629,4,09,-0.412222222,-0.413333333,1,0,0,2.2807,Obsidian_rect,5,2.281,0,6,0,6,0,1,,,,,,,,,,,,,
5a3e5d407a3e3a0001dd3f7c,SCR,2024-06-21_13h47.24.790,LearnStrategy,2023.2.3,Win32,59.52380952,2,1,8,-0.515555556,0.22,1,0,0,1.8379,Obsidian_11,5,11,5,1,1.838,5,11,-0.364444444,-0.401111111,1,0,0,1.7026,Obsidian_rect,5,1.703,1,7,0,7,0,1,,,,,,,,,,,,,
5a3e5d407a3e3a0001dd3f7c,SCR,2024-06-21_13h47.24.790,LearnStrategy,2023.2.3,Win32,59.52380952,2,1,9,0.076666667,0.264444444,1,0,0,1.5128,Pegmatite_05,6,05,5,5,1.513,6,05,0.395555556,-0.235555556,1,0,0,2.7707,Gabbro_rect,4,2.771,0,8,0,8,0,1,,,,,,,,,,,,,
5a3e5d407a3e3a0001dd3f7c,SCR,2024-06-21_13h47.24.790,LearnStrategy,2023.2.3,Win32,59.52380952,2,1,10,-0.236666667,0.226666667,1,0,0,1.7901,Obsidian_14,5,14,5,3,1.79,5,14,-0.38,-0.398888889,1,0,0,4.6462,Obsidian_rect,5,4.646,1,9,0,9,0,1,,,,,,,,,,,,,
5a3e5d407a3e3a0001dd3f7c,SCR,2024-06-21_13h47.24.790,LearnStrategy,2023.2.3,Win32,59.52380952,2,1,11,-0.374444444,0.095555556,1,0,0,1.5129,Pumice_06,8,06,4,2,1.513,8,06,0.386666667,-0.39,1,0,0,2.4329,Pumice_rect,8,2.433,1,10,0,10,0,1,,,,,,,,,,,,,
5a3e5d407a3e3a0001dd3f7c,SCR,2024-06-21_13h47.24.790,LearnStrategy,2023.2.3,Win32,59.52380952,2,1,12,0.067777778,-0.105555556,1,0,0,1.1139,Basalt_10,2,10,3,5,1.114,2,10,-0.12,-0.251111111,1,0,0,3.4671,Basalt_rect,2,3.467,1,11,0,11,0,1,,,,,,,,,,,,,
5a3e5d407a3e3a0001dd3f7c,SCR,2024-06-21_13h47.24.790,LearnStrategy,2023.2.3,Win32,59.52380952,2,1,13,0.242222222,-0.406666667,1,0,0,1.4967,Pegmatite_10,6,10,1,6,1.497,6,10,0.152222222,-0.401111111,1,0,0,6.4073,Peridotite_rect,7,6.407,0,12,0,12,0,1,,,,,,,,,,,,,
5a3e5d407a3e3a0001dd3f7c,SCR,2024-06-21_13h47.24.790,LearnStrategy,2023.2.3,Win32,59.52380952,2,1,14,0.507777778,0.404444444,1,0,0,1.3961,Diorite_12,3,12,6,8,1.396,3,12,0.094444444,-0.404444444,1,0,0,4.0266,Peridotite_rect,7,4.027,0,13,0,13,0,1,,,,,,,,,,,,,
5a3e5d407a3e3a0001dd3f7c,SCR,2024-06-21_13h47.24.790,LearnStrategy,2023.2.3,Win32,59.52380952,2,1,15,0.408888889,-0.081111111,1,0,0,1.3633,Diorite_07,3,07,3,7,1.363,3,07,0.1,-0.252222222,1,0,0,1.7823,Diorite_rect,3,1.782,1,14,0,14,0,1,,,,,,,,,,,,,
5a3e5d407a3e3a0001dd3f7c,SCR,2024-06-21_13h47.24.790,LearnStrategy,2023.2.3,Win32,59.52380952,2,1,16,-0.22,-0.413333333,1,0,0,1.4955,Andesite_16,1,16,1,3,1.495,1,16,-0.103333333,-0.39,1,0,0,8.1725,Pegmatite_rect,6,8.173,0,15,0,15,0,1,,,,,,,,,,,,,
5a3e5d407a3e3a0001dd3f7c,SCR,2024-06-21_13h47.24.790,LearnStrategy,2023.2.3,Win32,59.52380952,2,2,1,,,,,,,,4,12,,,,,,,,,,,,,2,5.14,0,,,,,,-0.112222222,-0.248888889,1,0,0,5.1396,Basalt_rect,0,0,0,0,1,
5a3e5d407a3e3a0001dd3f7c,SCR,2024-06-21_13h47.24.790,LearnStrategy,2023.2.3,Win32,59.52380952,2,2,2,,,,,,,,3,08,,,,,,,,,,,,,3,5.054,1,,,,,,0.078888889,-0.245555556,1,0,0,5.0541,Diorite_rect,1,0,1,0,1,
5a3e5d407a3e3a0001dd3f7c,SCR,2024-06-21_13h47.24.790,LearnStrategy,2023.2.3,Win32,59.52380952,2,2,3,,,,,,,,7,04,,,,,,,,,,,,,7,4.638,1,,,,,,0.085555556,-0.388888889,1,0,0,4.6382,Peridotite_rect,2,0,2,0,1,
5a3e5d407a3e3a0001dd3f7c,SCR,2024-06-21_13h47.24.790,LearnStrategy,2023.2.3,Win32,59.52380952,2,2,4,,,,,,,,7,14,,,,,,,,,,,,,1,1.952,0,,,,,,-0.364444444,-0.248888889,1,0,0,1.9524,Andesite_rect,3,0,3,0,1,
5a3e5d407a3e3a0001dd3f7c,SCR,2024-06-21_13h47.24.790,LearnStrategy,2023.2.3,Win32,59.52380952,2,2,5,,,,,,,,6,03,,,,,,,,,,,,,2,2.664,0,,,,,,-0.161111111,-0.263333333,1,0,0,2.6645,Basalt_rect,4,0,4,0,1,
5a3e5d407a3e3a0001dd3f7c,SCR,2024-06-21_13h47.24.790,LearnStrategy,2023.2.3,Win32,59.52380952,2,2,6,,,,,,,,5,16,,,,,,,,,,,,,5,1.465,1,,,,,,-0.342222222,-0.388888889,1,0,0,1.4655,Obsidian_rect,5,0,5,0,1,
5a3e5d407a3e3a0001dd3f7c,SCR,2024-06-21_13h47.24.790,LearnStrategy,2023.2.3,Win32,59.52380952,2,2,7,,,,,,,,5,02,,,,,,,,,,,,,5,1.119,1,,,,,,-0.342222222,-0.388888889,1,0,0,1.1186,Obsidian_rect,6,0,6,0,1,
5a3e5d407a3e3a0001dd3f7c,SCR,2024-06-21_13h47.24.790,LearnStrategy,2023.2.3,Win32,59.52380952,2,2,8,,,,,,,,1,10,,,,,,,,,,,,,8,2.929,0,,,,,,0.385555556,-0.394444444,1,0,0,2.9295,Pumice_rect,7,0,7,0,1,
5a3e5d407a3e3a0001dd3f7c,SCR,2024-06-21_13h47.24.790,LearnStrategy,2023.2.3,Win32,59.52380952,2,2,9,,,,,,,,8,16,,,,,,,,,,,,,7,3.634,0,,,,,,0.165555556,-0.396666667,1,0,0,3.6339,Peridotite_rect,8,0,8,0,1,
5a3e5d407a3e3a0001dd3f7c,SCR,2024-06-21_13h47.24.790,LearnStrategy,2023.2.3,Win32,59.52380952,2,2,10,,,,,,,,6,06,,,,,,,,,,,,,3,2.601,0,,,,,,0.171111111,-0.245555556,1,0,0,2.6013,Diorite_rect,9,0,9,0,1,
5a3e5d407a3e3a0001dd3f7c,SCR,2024-06-21_13h47.24.790,LearnStrategy,2023.2.3,Win32,59.52380952,2,2,11,,,,,,,,3,02,,,,,,,,,,,,,2,5.425,0,,,,,,-0.085555556,-0.25,1,0,0,5.4254,Basalt_rect,10,0,10,0,1,
5a3e5d407a3e3a0001dd3f7c,SCR,2024-06-21_13h47.24.790,LearnStrategy,2023.2.3,Win32,59.52380952,2,2,12,,,,,,,,8,05,,,,,,,,,,,,,1,3.867,0,,,,,,-0.372222222,-0.244444444,1,0,0,3.867,Andesite_rect,11,0,11,0,1,
5a3e5d407a3e3a0001dd3f7c,SCR,2024-06-21_13h47.24.790,LearnStrategy,2023.2.3,Win32,59.52380952,2,2,13,,,,,,,,4,16,,,,,,,,,,,,,2,4.552,0,,,,,,-0.15,-0.236666667,1,0,0,4.5521,Basalt_rect,12,0,12,0,1,
5a3e5d407a3e3a0001dd3f7c,SCR,2024-06-21_13h47.24.790,LearnStrategy,2023.2.3,Win32,59.52380952,2,2,14,,,,,,,,1,06,,,,,,,,,,,,,1,2.235,1,,,,,,-0.33,-0.26,1,0,0,2.2352,Andesite_rect,13,0,13,0,1,
5a3e5d407a3e3a0001dd3f7c,SCR,2024-06-21_13h47.24.790,LearnStrategy,2023.2.3,Win32,59.52380952,2,2,15,,,,,,,,2,06,,,,,,,,,,,,,5,1.635,0,,,,,,-0.362222222,-0.381111111,1,0,0,1.635,Obsidian_rect,14,0,14,0,1,
5a3e5d407a3e3a0001dd3f7c,SCR,2024-06-21_13h47.24.790,LearnStrategy,2023.2.3,Win32,59.52380952,2,2,16,,,,,,,,2,02,,,,,,,,,,,,,4,4.258,0,,,,,,0.35,-0.231111111,1,0,0,4.2583,Gabbro_rect,15,0,15,0,1,
5a3e5d407a3e3a0001dd3f7c,SCR,2024-06-21_13h47.24.790,LearnStrategy,2023.2.3,Win32,59.52380952,3,1,1,-0.235555556,0.424444444,1,0,0,2.2778,Andesite_14,1,14,6,3,2.278,1,14,-0.425555556,-0.241111111,1,0,0,4.6584,Andesite_rect,1,4.658,1,0,0,0,0,1,,,,,,,,,,,,,
5a3e5d407a3e3a0001dd3f7c,SCR,2024-06-21_13h47.24.790,LearnStrategy,2023.2.3,Win32,59.52380952,3,1,2,-0.53,-0.425555556,1,0,0,1.6697,Basalt_14,2,14,1,1,1.67,2,14,-0.105555556,-0.242222222,1,0,0,2.5462,Basalt_rect,2,2.546,1,1,0,1,0,1,,,,,,,,,,,,,
5a3e5d407a3e3a0001dd3f7c,SCR,2024-06-21_13h47.24.790,LearnStrategy,2023.2.3,Win32,59.52380952,3,1,3,-0.416666667,-0.442222222,1,0,0,1.6975,Gabbro_09,4,09,1,2,1.697,4,09,0.118888889,-0.247777778,1,0,0,4.2238,Diorite_rect,3,4.224,0,2,0,2,0,1,,,,,,,,,,,,,
5a3e5d407a3e3a0001dd3f7c,SCR,2024-06-21_13h47.24.790,LearnStrategy,2023.2.3,Win32,59.52380952,3,1,4,-0.543333333,0.403333333,1,0,0,2.0793,Pegmatite_15,6,15,6,1,2.079,6,15,0.148888889,-0.238888889,1,0,0,2.2072,Diorite_rect,3,2.207,0,3,0,3,0,1,,,,,,,,,,,,,
5a3e5d407a3e3a0001dd3f7c,SCR,2024-06-21_13h47.24.790,LearnStrategy,2023.2.3,Win32,59.52380952,3,1,5,0.098888889,-0.43,1,0,0,1.4326,Pumice_10,8,10,1,5,1.433,8,10,-0.125555556,-0.247777778,1,0,0,6.4268,Basalt_rect,2,6.427,0,4,0,4,0,1,,,,,,,,,,,,,
5a3e5d407a3e3a0001dd3f7c,SCR,2024-06-21_13h47.24.790,LearnStrategy,2023.2.3,Win32,59.52380952,3,1,6,-0.557777778,0.401111111,1,0,0,2.3137,Pegmatite_15,6,15,6,1,2.314,6,15,0.136666667,-0.384444444,1,0,0,2.5699,Peridotite_rect,7,2.57,0,5,0,5,0,1,,,,,,,,,,,,,
5a3e5d407a3e3a0001dd3f7c,SCR,2024-06-21_13h47.24.790,LearnStrategy,2023.2.3,Win32,59.52380952,3,1,7,0.43,0.11,1,0,0,1.2616,Basalt_01,2,01,4,7,1.262,2,01,-0.108888889,-0.242222222,1,0,0,2.1916,Basalt_rect,2,2.192,1,6,0,6,0,1,,,,,,,,,,,,,
5a3e5d407a3e3a0001dd3f7c,SCR,2024-06-21_13h47.24.790,LearnStrategy,2023.2.3,Win32,59.52380952,3,1,8,-0.551111111,0.397777778,1,0,0,1.8238,Pegmatite_15,6,15,6,1,1.824,6,15,-0.108888889,-0.385555556,1,0,0,1.7535,Pegmatite_rect,6,1.753,1,7,0,7,0,1,,,,,,,,,,,,,
5a3e5d407a3e3a0001dd3f7c,SCR,2024-06-21_13h47.24.790,LearnStrategy,2023.2.3,Win32,59.52380952,3,1,9,-0.416666667,-0.262222222,1,0,0,1.4141,Gabbro_10,4,10,2,2,1.414,4,10,-0.177777778,-0.237777778,1,0,0,4.0361,Basalt_rect,2,4.036,0,8,0,8,0,1,,,,,,,,,,,,,
5a3e5d407a3e3a0001dd3f7c,SCR,2024-06-21_13h47.24.790,LearnStrategy,2023.2.3,Win32,59.52380952,3,1,10,-0.226666667,0.098888889,1,0,0,1.2804,Obsidian_07,5,07,4,3,1.28,5,07,-0.356666667,-0.381111111,1,0,0,2.9026,Obsidian_rect,5,2.903,1,9,0,9,0,1,,,,,,,,,,,,,
5a3e5d407a3e3a0001dd3f7c,SCR,2024-06-21_13h47.24.790,LearnStrategy,2023.2.3,Win32,59.52380952,3,1,11,0.531111111,-0.25,1,0,0,1.2608,Peridotite_13,7,13,2,8,1.261,7,13,0.401111111,-0.261111111,1,0,0,1.4389,Gabbro_rect,4,1.439,0,10,0,10,0,1,,,,,,,,,,,,,
5a3e5d407a3e3a0001dd3f7c,SCR,2024-06-21_13h47.24.790,LearnStrategy,2023.2.3,Win32,59.52380952,3,1,12,0.105555556,-0.28,1,0,0,1.0976,Diorite_06,3,06,2,5,1.098,3,06,0.105555556,-0.254444444,1,0,0,5.4236,Diorite_rect,3,5.424,1,11,0,11,0,1,,,,,,,,,,,,,
5a3e5d407a3e3a0001dd3f7c,SCR,2024-06-21_13h47.24.790,LearnStrategy,2023.2.3,Win32,59.52380952,3,1,13,0.246666667,-0.104444444,1,0,0,1.305,Basalt_12,2,12,3,6,1.305,2,12,0.407777778,-0.386666667,1,0,0,2.0271,Pumice_rect,8,2.027,0,12,0,12,0,1,,,,,,,,,,,,,
5a3e5d407a3e3a0001dd3f7c,SCR,2024-06-21_13h47.24.790,LearnStrategy,2023.2.3,Win32,59.52380952,3,1,14,-0.215555556,-0.108888889,1,0,0,1.2816,Pumice_08,8,08,3,3,1.282,8,08,0.394444444,-0.39,1,0,0,1.453,Pumice_rect,8,1.453,1,13,0,13,0,1,,,,,,,,,,,,,
5a3e5d407a3e3a0001dd3f7c,SCR,2024-06-21_13h47.24.790,LearnStrategy,2023.2.3,Win32,59.52380952,3,1,15,0.228888889,-0.255555556,1,0,0,1.3965,Diorite_14,3,14,2,6,1.397,3,14,0.367777778,-0.251111111,1,0,0,2.2378,Gabbro_rect,4,2.238,0,14,0,14,0,1,,,,,,,,,,,,,
5a3e5d407a3e3a0001dd3f7c,SCR,2024-06-21_13h47.24.790,LearnStrategy,2023.2.3,Win32,59.52380952,3,1,16,-0.221111111,-0.423333333,1,0,0,1.2459,Andesite_16,1,16,1,3,1.246,1,16,0.074444444,-0.386666667,1,0,0,4.8546,Peridotite_rect,7,4.855,0,15,0,15,0,1,,,,,,,,,,,,,
5a3e5d407a3e3a0001dd3f7c,SCR,2024-06-21_13h47.24.790,LearnStrategy,2023.2.3,Win32,59.52380952,3,2,1,,,,,,,,6,08,,,,,,,,,,,,,2,5.169,0,,,,,,-0.092222222,-0.251111111,1,0,0,5.1693,Basalt_rect,0,0,0,0,1,
5a3e5d407a3e3a0001dd3f7c,SCR,2024-06-21_13h47.24.790,LearnStrategy,2023.2.3,Win32,59.52380952,3,2,2,,,,,,,,1,03,,,,,,,,,,,,,1,3.055,1,,,,,,-0.354444444,-0.236666667,1,0,0,3.0546,Andesite_rect,1,0,1,0,1,
5a3e5d407a3e3a0001dd3f7c,SCR,2024-06-21_13h47.24.790,LearnStrategy,2023.2.3,Win32,59.52380952,3,2,3,,,,,,,,6,09,,,,,,,,,,,,,4,4.969,0,,,,,,0.35,-0.251111111,1,0,0,4.9685,Gabbro_rect,2,0,2,0,1,
5a3e5d407a3e3a0001dd3f7c,SCR,2024-06-21_13h47.24.790,LearnStrategy,2023.2.3,Win32,59.52380952,3,2,4,,,,,,,,5,09,,,,,,,,,,,,,5,1.39,1,,,,,,-0.38,-0.394444444,1,0,0,1.3904,Obsidian_rect,3,0,3,0,1,
5a3e5d407a3e3a0001dd3f7c,SCR,2024-06-21_13h47.24.790,LearnStrategy,2023.2.3,Win32,59.52380952,3,2,5,,,,,,,,5,10,,,,,,,,,,,,,5,1.534,1,,,,,,-0.38,-0.394444444,1,0,0,1.5343,Obsidian_rect,4,0,4,0,1,
5a3e5d407a3e3a0001dd3f7c,SCR,2024-06-21_13h47.24.790,LearnStrategy,2023.2.3,Win32,59.52380952,3,2,6,,,,,,,,2,16,,,,,,,,,,,,,2,3.646,1,,,,,,-0.158888889,-0.247777778,1,0,0,3.6463,Basalt_rect,5,0,5,0,1,
5a3e5d407a3e3a0001dd3f7c,SCR,2024-06-21_13h47.24.790,LearnStrategy,2023.2.3,Win32,59.52380952,3,2,7,,,,,,,,7,15,,,,,,,,,,,,,6,1.285,0,,,,,,-0.135555556,-0.405555556,1,0,0,1.2846,Pegmatite_rect,6,0,6,0,1,
5a3e5d407a3e3a0001dd3f7c,SCR,2024-06-21_13h47.24.790,LearnStrategy,2023.2.3,Win32,59.52380952,3,2,8,,,,,,,,3,11,,,,,,,,,,,,,7,1.465,0,,,,,,0.065555556,-0.392222222,1,0,0,1.4653,Peridotite_rect,7,0,7,0,1,
5a3e5d407a3e3a0001dd3f7c,SCR,2024-06-21_13h47.24.790,LearnStrategy,2023.2.3,Win32,59.52380952,3,2,9,,,,,,,,7,07,,,,,,,,,,,,,2,3.312,0,,,,,,-0.146666667,-0.251111111,1,0,0,3.312,Basalt_rect,8,0,8,0,1,
5a3e5d407a3e3a0001dd3f7c,SCR,2024-06-21_13h47.24.790,LearnStrategy,2023.2.3,Win32,59.52380952,3,2,10,,,,,,,,8,15,,,,,,,,,,,,,8,1.852,1,,,,,,0.346666667,-0.382222222,1,0,0,1.8517,Pumice_rect,9,0,9,0,1,
5a3e5d407a3e3a0001dd3f7c,SCR,2024-06-21_13h47.24.790,LearnStrategy,2023.2.3,Win32,59.52380952,3,2,11,,,,,,,,8,02,,,,,,,,,,,,,8,1.076,1,,,,,,0.346666667,-0.382222222,1,0,0,1.0764,Pumice_rect,10,0,10,0,1,
5a3e5d407a3e3a0001dd3f7c,SCR,2024-06-21_13h47.24.790,LearnStrategy,2023.2.3,Win32,59.52380952,3,2,12,,,,,,,,4,14,,,,,,,,,,,,,4,2.824,1,,,,,,0.355555556,-0.242222222,1,0,0,2.824,Gabbro_rect,11,0,11,0,1,
5a3e5d407a3e3a0001dd3f7c,SCR,2024-06-21_13h47.24.790,LearnStrategy,2023.2.3,Win32,59.52380952,3,2,13,,,,,,,,4,11,,,,,,,,,,,,,3,2.213,0,,,,,,0.18,-0.245555556,1,0,0,2.2132,Diorite_rect,12,0,12,0,1,
5a3e5d407a3e3a0001dd3f7c,SCR,2024-06-21_13h47.24.790,LearnStrategy,2023.2.3,Win32,59.52380952,3,2,14,,,,,,,,1,07,,,,,,,,,,,,,3,1.052,0,,,,,,0.144444444,-0.242222222,1,0,0,1.0516,Diorite_rect,13,0,13,0,1,
5a3e5d407a3e3a0001dd3f7c,SCR,2024-06-21_13h47.24.790,LearnStrategy,2023.2.3,Win32,59.52380952,3,2,15,,,,,,,,2,08,,,,,,,,,,,,,1,4.681,0,,,,,,-0.406666667,-0.243333333,1,0,0,4.6805,Andesite_rect,14,0,14,0,1,
5a3e5d407a3e3a0001dd3f7c,SCR,2024-06-21_13h47.24.790,LearnStrategy,2023.2.3,Win32,59.52380952,3,2,16,,,,,,,,3,10,,,,,,,,,,,,,6,5.933,0,,,,,,-0.128888889,-0.384444444,1,0,0,5.9332,Pegmatite_rect,15,0,15,0,1,
5a3e5d407a3e3a0001dd3f7c,SCR,2024-06-21_13h47.24.790,LearnStrategy,2023.2.3,Win32,59.52380952,4,1,1,-0.221111111,-0.241111111,1,0,0,1.8454,Andesite_11,1,11,2,3,1.845,1,11,-0.367777778,-0.232222222,1,0,0,3.0857,Andesite_rect,1,3.086,1,0,0,0,0,1,,,,,,,,,,,,,
5a3e5d407a3e3a0001dd3f7c,SCR,2024-06-21_13h47.24.790,LearnStrategy,2023.2.3,Win32,59.52380952,4,1,2,-0.226666667,0.086666667,1,0,0,1.4481,Obsidian_07,5,07,4,3,1.448,5,07,-0.387777778,-0.388888889,1,0,0,2.5665,Obsidian_rect,5,2.566,1,1,0,1,0,1,,,,,,,,,,,,,
5a3e5d407a3e3a0001dd3f7c,SCR,2024-06-21_13h47.24.790,LearnStrategy,2023.2.3,Win32,59.52380952,4,1,3,-0.548888889,-0.408888889,1,0,0,1.7658,Basalt_14,2,14,1,1,1.766,2,14,-0.133333333,-0.236666667,1,0,0,2.2008,Basalt_rect,2,2.201,1,2,0,2,0,1,,,,,,,,,,,,,
5a3e5d407a3e3a0001dd3f7c,SCR,2024-06-21_13h47.24.790,LearnStrategy,2023.2.3,Win32,59.52380952,4,1,4,-0.045555556,-0.068888889,1,0,0,0.8967,Pegmatite_13,6,13,3,4,0.897,6,13,0.121111111,-0.247777778,1,0,0,5.7675,Diorite_rect,3,5.768,0,3,0,3,0,1,,,,,,,,,,,,,
5a3e5d407a3e3a0001dd3f7c,SCR,2024-06-21_13h47.24.790,LearnStrategy,2023.2.3,Win32,59.52380952,4,1,5,-0.074444444,0.248888889,1,0,0,1.4124,Andesite_02,1,02,5,4,1.412,1,02,-0.13,-0.241111111,1,0,0,2.6328,Basalt_rect,2,2.633,0,4,0,4,0,1,,,,,,,,,,,,,
5a3e5d407a3e3a0001dd3f7c,SCR,2024-06-21_13h47.24.790,LearnStrategy,2023.2.3,Win32,59.52380952,4,1,6,0.548888889,-0.277777778,1,0,0,1.3818,Peridotite_13,7,13,2,8,1.382,7,13,0.388888889,-0.254444444,1,0,0,1.7943,Gabbro_rect,4,1.794,0,5,0,5,0,1,,,,,,,,,,,,,
5a3e5d407a3e3a0001dd3f7c,SCR,2024-06-21_13h47.24.790,LearnStrategy,2023.2.3,Win32,59.52380952,4,1,7,-0.391111111,-0.29,1,0,0,1.2796,Gabbro_10,4,10,2,2,1.28,4,10,-0.191111111,-0.242222222,1,0,0,3.2724,Basalt_rect,2,3.272,0,6,0,6,0,1,,,,,,,,,,,,,
5a3e5d407a3e3a0001dd3f7c,SCR,2024-06-21_13h47.24.790,LearnStrategy,2023.2.3,Win32,59.52380952,4,1,8,-0.542222222,-0.411111111,1,0,0,1.3279,Basalt_14,2,14,1,1,1.328,2,14,-0.352222222,-0.393333333,1,0,0,3.1416,Obsidian_rect,5,3.142,0,7,0,7,0,1,,,,,,,,,,,,,
5a3e5d407a3e3a0001dd3f7c,SCR,2024-06-21_13h47.24.790,LearnStrategy,2023.2.3,Win32,59.52380952,4,1,9,-0.047777778,-0.39,1,0,0,1.5306,Peridotite_10,7,10,1,4,1.531,7,10,-0.047777778,-0.39,1,0,0,2.5071,Pegmatite_rect,6,2.507,0,8,0,8,0,1,,,,,,,,,,,,,
5a3e5d407a3e3a0001dd3f7c,SCR,2024-06-21_13h47.24.790,LearnStrategy,2023.2.3,Win32,59.52380952,4,1,10,-0.054444444,0.074444444,1,0,0,1.1978,Diorite_15,3,15,4,4,1.198,3,15,0.101111111,-0.402222222,1,0,0,3.758,Peridotite_rect,7,3.758,0,9,0,9,0,1,,,,,,,,,,,,,
5a3e5d407a3e3a0001dd3f7c,SCR,2024-06-21_13h47.24.790,LearnStrategy,2023.2.3,Win32,59.52380952,4,1,11,-0.524444444,0.394444444,1,0,0,1.6648,Pegmatite_15,6,15,6,1,1.665,6,15,-0.152222222,-0.25,1,0,0,5.3642,Basalt_rect,2,5.364,0,10,0,10,0,1,,,,,,,,,,,,,
5a3e5d407a3e3a0001dd3f7c,SCR,2024-06-21_13h47.24.790,LearnStrategy,2023.2.3,Win32,59.52380952,4,1,12,-0.568888889,0.402222222,1,0,0,1.721,Pegmatite_15,6,15,6,1,1.721,4,15,-0.116666667,-0.397777778,1,0,0,2.8549,Pegmatite_rect,6,2.855,1,11,0,11,0,1,,,,,,,,,,,,,
5a3e5d407a3e3a0001dd3f7c,SCR,2024-06-21_13h47.24.790,LearnStrategy,2023.2.3,Win32,59.52380952,4,1,13,0.218888889,-0.246666667,1,0,0,7.8803,Diorite_14,3,14,2,6,7.88,3,06,0.136666667,-0.24,1,0,0,1.4681,Diorite_rect,3,1.468,1,12,0,12,0,1,,,,,,,,,,,,,
5a3e5d407a3e3a0001dd3f7c,SCR,2024-06-21_13h47.24.790,LearnStrategy,2023.2.3,Win32,59.52380952,4,1,14,-0.534444444,-0.406666667,1,0,0,2.0647,Basalt_14,2,14,1,1,2.065,2,14,-0.384444444,-0.236666667,1,0,0,3.283,Andesite_rect,1,3.283,0,13,0,13,0,1,,,,,,,,,,,,,
5a3e5d407a3e3a0001dd3f7c,SCR,2024-06-21_13h47.24.790,LearnStrategy,2023.2.3,Win32,59.52380952,4,1,15,-0.532222222,-0.395555556,1,0,0,2.1655,Basalt_14,2,14,1,1,2.166,6,15,-0.117777778,-0.252222222,1,0,0,2.1312,Basalt_rect,2,2.131,1,14,0,14,0,1,,,,,,,,,,,,,
5a3e5d407a3e3a0001dd3f7c,SCR,2024-06-21_13h47.24.790,LearnStrategy,2023.2.3,Win32,59.52380952,4,1,16,0.401111111,0.296666667,1,0,0,1.0803,Pumice_14,8,14,5,7,1.08,8,14,0.406666667,-0.391111111,1,0,0,2.2529,Pumice_rect,8,2.253,1,15,0,15,0,1,,,,,,,,,,,,,
5a3e5d407a3e3a0001dd3f7c,SCR,2024-06-21_13h47.24.790,LearnStrategy,2023.2.3,Win32,59.52380952,4,2,1,,,,,,,,4,11,,,,,,,,,,,,,3,3.853,0,,,,,,0.1,-0.238888889,1,0,0,3.8527,Diorite_rect,0,0,0,0,1,
5a3e5d407a3e3a0001dd3f7c,SCR,2024-06-21_13h47.24.790,LearnStrategy,2023.2.3,Win32,59.52380952,4,2,2,,,,,,,,8,16,,,,,,,,,,,,,8,6.623,1,,,,,,0.41,-0.397777778,1,0,0,6.6228,Pumice_rect,1,0,1,0,1,
5a3e5d407a3e3a0001dd3f7c,SCR,2024-06-21_13h47.24.790,LearnStrategy,2023.2.3,Win32,59.52380952,4,2,3,,,,,,,,1,06,,,,,,,,,,,,,2,5.22,0,,,,,,-0.088888889,-0.266666667,1,0,0,5.2197,Basalt_rect,2,0,2,0,1,
5a3e5d407a3e3a0001dd3f7c,SCR,2024-06-21_13h47.24.790,LearnStrategy,2023.2.3,Win32,59.52380952,4,2,4,,,,,,,,5,02,,,,,,,,,,,,,5,1.552,1,,,,,,-0.34,-0.39,1,0,0,1.5522,Obsidian_rect,3,0,3,0,1,
5a3e5d407a3e3a0001dd3f7c,SCR,2024-06-21_13h47.24.790,LearnStrategy,2023.2.3,Win32,59.52380952,4,2,5,,,,,,,,6,03,,,,,,,,,,,,,4,3.441,0,,,,,,0.384444444,-0.247777778,1,0,0,3.4412,Gabbro_rect,4,0,4,0,1,
5a3e5d407a3e3a0001dd3f7c,SCR,2024-06-21_13h47.24.790,LearnStrategy,2023.2.3,Win32,59.52380952,4,2,6,,,,,,,,2,02,,,,,,,,,,,,,1,3.146,0,,,,,,-0.426666667,-0.255555556,1,0,0,3.1461,Andesite_rect,5,0,5,0,1,
5a3e5d407a3e3a0001dd3f7c,SCR,2024-06-21_13h47.24.790,LearnStrategy,2023.2.3,Win32,59.52380952,4,2,7,,,,,,,,4,16,,,,,,,,,,,,,2,1.38,0,,,,,,-0.161111111,-0.242222222,1,0,0,1.3798,Basalt_rect,6,0,6,0,1,
5a3e5d407a3e3a0001dd3f7c,SCR,2024-06-21_13h47.24.790,LearnStrategy,2023.2.3,Win32,59.52380952,4,2,8,,,,,,,,3,11,,,,,,,,,,,,,3,2.738,1,,,,,,0.108888889,-0.243333333,1,0,0,2.7376,Diorite_rect,7,0,7,0,1,
5a3e5d407a3e3a0001dd3f7c,SCR,2024-06-21_13h47.24.790,LearnStrategy,2023.2.3,Win32,59.52380952,4,2,9,,,,,,,,2,11,,,,,,,,,,,,,8,2.881,0,,,,,,0.382222222,-0.404444444,1,0,0,2.8807,Pumice_rect,8,0,8,0,1,
5a3e5d407a3e3a0001dd3f7c,SCR,2024-06-21_13h47.24.790,LearnStrategy,2023.2.3,Win32,59.52380952,4,2,10,,,,,,,,7,07,,,,,,,,,,,,,6,2.938,0,,,,,,-0.08,-0.407777778,1,0,0,2.9383,Pegmatite_rect,9,0,9,0,1,
5a3e5d407a3e3a0001dd3f7c,SCR,2024-06-21_13h47.24.790,LearnStrategy,2023.2.3,Win32,59.52380952,4,2,11,,,,,,,,3,02,,,,,,,,,,,,,3,3.832,1,,,,,,0.122222222,-0.256666667,1,0,0,3.8315,Diorite_rect,10,0,10,0,1,
5a3e5d407a3e3a0001dd3f7c,SCR,2024-06-21_13h47.24.790,LearnStrategy,2023.2.3,Win32,59.52380952,4,2,12,,,,,,,,7,08,,,,,,,,,,,,,7,1.376,1,,,,,,0.127777778,-0.403333333,1,0,0,1.3757,Peridotite_rect,11,0,11,0,1,
5a3e5d407a3e3a0001dd3f7c,SCR,2024-06-21_13h47.24.790,LearnStrategy,2023.2.3,Win32,59.52380952,4,2,13,,,,,,,,1,10,,,,,,,,,,,,,2,6.596,0,,,,,,-0.135555556,-0.244444444,1,0,0,6.5961,Basalt_rect,12,0,12,0,1,
5a3e5d407a3e3a0001dd3f7c,SCR,2024-06-21_13h47.24.790,LearnStrategy,2023.2.3,Win32,59.52380952,4,2,14,,,,,,,,8,02,,,,,,,,,,,,,8,2.119,1,,,,,,0.387777778,-0.386666667,1,0,0,2.119,Pumice_rect,13,0,13,0,1,
5a3e5d407a3e3a0001dd3f7c,SCR,2024-06-21_13h47.24.790,LearnStrategy,2023.2.3,Win32,59.52380952,4,2,15,,,,,,,,6,06,,,,,,,,,,,,,2,2.894,0,,,,,,-0.075555556,-0.251111111,1,0,0,2.8936,Basalt_rect,14,0,14,0,1,
5a3e5d407a3e3a0001dd3f7c,SCR,2024-06-21_13h47.24.790,LearnStrategy,2023.2.3,Win32,59.52380952,4,2,16,,,,,,,,5,05,,,,,,,,,,,,,5,1.42,1,,,,,,-0.373333333,-0.397777778,1,0,0,1.4196,Obsidian_rect,15,0,15,0,1,
5a3e5d407a3e3a0001dd3f7c,SCR,2024-06-21_13h47.24.790,LearnStrategy,2023.2.3,Win32,59.52380952,5,1,1,0.538888889,0.095555556,1,0,0,1.6472,Gabbro_08,4,08,4,8,1.647,4,08,-0.362222222,-0.257777778,1,0,0,1.934,Andesite_rect,1,1.934,0,0,0,0,0,1,,,,,,,,,,,,,
5a3e5d407a3e3a0001dd3f7c,SCR,2024-06-21_13h47.24.790,LearnStrategy,2023.2.3,Win32,59.52380952,5,1,2,-0.378888889,0.401111111,1,0,0,2.2321,Peridotite_02,7,02,6,2,2.232,7,02,0.374444444,-0.25,1,0,0,2.8279,Gabbro_rect,4,2.828,0,1,0,1,0,1,,,,,,,,,,,,,
5a3e5d407a3e3a0001dd3f7c,SCR,2024-06-21_13h47.24.790,LearnStrategy,2023.2.3,Win32,59.52380952,5,1,3,-0.384444444,0.402222222,1,0,0,1.8122,Peridotite_02,7,02,6,2,1.812,7,05,0.157777778,-0.383333333,1,0,0,1.9772,Peridotite_rect,7,1.977,1,2,0,2,0,1,,,,,,,,,,,,,
5a3e5d407a3e3a0001dd3f7c,SCR,2024-06-21_13h47.24.790,LearnStrategy,2023.2.3,Win32,59.52380952,5,1,4,0.284444444,0.272222222,1,0,0,1.6964,Pegmatite_12,6,12,5,6,1.696,6,12,0.393333333,-0.247777778,1,0,0,2.453,Gabbro_rect,4,2.453,0,3,0,3,0,1,,,,,,,,,,,,,
5a3e5d407a3e3a0001dd3f7c,SCR,2024-06-21_13h47.24.790,LearnStrategy,2023.2.3,Win32,59.52380952,5,1,5,0.262222222,-0.235555556,1,0,0,2.1494,Diorite_14,3,14,2,6,2.149,3,14,0.146666667,-0.403333333,1,0,0,3.749,Peridotite_rect,7,3.749,0,4,0,4,0,1,,,,,,,,,,,,,
5a3e5d407a3e3a0001dd3f7c,SCR,2024-06-21_13h47.24.790,LearnStrategy,2023.2.3,Win32,59.52380952,5,1,6,-0.523333333,-0.106666667,1,0,0,4.9467,Obsidian_06,5,06,3,1,4.947,1,11,-0.401111111,-0.401111111,1,0,0,2.169,Obsidian_rect,5,2.169,1,5,0,5,0,1,,,,,,,,,,,,,
5a3e5d407a3e3a0001dd3f7c,SCR,2024-06-21_13h47.24.790,LearnStrategy,2023.2.3,Win32,59.52380952,5,1,7,0.56,-0.236666667,1,0,0,2.6307,Peridotite_13,7,13,2,8,2.631,6,13,0.405555556,-0.24,1,0,0,3.4418,Gabbro_rect,4,3.442,0,6,0,6,0,1,,,,,,,,,,,,,
5a3e5d407a3e3a0001dd3f7c,SCR,2024-06-21_13h47.24.790,LearnStrategy,2023.2.3,Win32,59.52380952,5,1,8,0.077777778,-0.416666667,1,0,0,1.3159,Pumice_10,8,10,1,5,1.316,8,10,0.386666667,-0.251111111,1,0,0,3.7373,Gabbro_rect,4,3.737,0,7,0,7,0,1,,,,,,,,,,,,,
5a3e5d407a3e3a0001dd3f7c,SCR,2024-06-21_13h47.24.790,LearnStrategy,2023.2.3,Win32,59.52380952,5,1,9,-0.533333333,-0.43,1,0,0,1.2969,Basalt_14,2,14,1,1,1.297,2,14,-0.396666667,-0.392222222,1,0,0,2.3904,Obsidian_rect,5,2.39,0,8,0,8,0,1,,,,,,,,,,,,,
5a3e5d407a3e3a0001dd3f7c,SCR,2024-06-21_13h47.24.790,LearnStrategy,2023.2.3,Win32,59.52380952,5,1,10,0.551111111,-0.377777778,1,0,0,1.6152,Gabbro_15,4,15,1,8,1.615,4,15,0.37,-0.248888889,1,0,0,2.2925,Gabbro_rect,4,2.293,1,9,0,9,0,1,,,,,,,,,,,,,
5a3e5d407a3e3a0001dd3f7c,SCR,2024-06-21_13h47.24.790,LearnStrategy,2023.2.3,Win32,59.52380952,5,1,11,-0.374444444,-0.097777778,1,0,0,1.1643,Basalt_04,2,04,3,2,1.164,2,04,-0.174444444,-0.236666667,1,0,0,2.4835,Basalt_rect,2,2.483,1,10,0,10,0,1,,,,,,,,,,,,,
5a3e5d407a3e3a0001dd3f7c,SCR,2024-06-21_13h47.24.790,LearnStrategy,2023.2.3,Win32,59.52380952,5,1,12,-0.405555556,-0.42,1,0,0,1.6151,Gabbro_09,4,09,1,2,1.615,4,09,-0.17,-0.25,1,0,0,3.0724,Basalt_rect,2,3.072,0,11,0,11,0,1,,,,,,,,,,,,,
5a3e5d407a3e3a0001dd3f7c,SCR,2024-06-21_13h47.24.790,LearnStrategy,2023.2.3,Win32,59.52380952,5,1,13,-0.066666667,0.085555556,1,0,0,1.4811,Diorite_15,3,15,4,4,1.481,3,15,0.384444444,-0.24,1,0,0,1.7085,Gabbro_rect,4,1.708,0,12,0,12,0,1,,,,,,,,,,,,,
5a3e5d407a3e3a0001dd3f7c,SCR,2024-06-21_13h47.24.790,LearnStrategy,2023.2.3,Win32,59.52380952,5,1,14,0.086666667,0.262222222,1,0,0,1.4975,Pegmatite_05,6,05,5,5,1.497,6,05,0.122222222,-0.231111111,1,0,0,1.9911,Diorite_rect,3,1.991,0,13,0,13,0,1,,,,,,,,,,,,,
5a3e5d407a3e3a0001dd3f7c,SCR,2024-06-21_13h47.24.790,LearnStrategy,2023.2.3,Win32,59.52380952,5,1,15,-0.221111111,0.38,1,0,0,1.3656,Andesite_14,1,14,6,3,1.366,1,14,0.123333333,-0.247777778,1,0,0,3.0092,Diorite_rect,3,3.009,0,14,0,14,0,1,,,,,,,,,,,,,
5a3e5d407a3e3a0001dd3f7c,SCR,2024-06-21_13h47.24.790,LearnStrategy,2023.2.3,Win32,59.52380952,5,1,16,0.398888889,-0.094444444,1,0,0,14.6111,Diorite_07,3,07,3,7,14.611,2,01,0.144444444,-0.257777778,1,0,0,1.6761,Diorite_rect,3,1.676,1,15,0,15,0,1,,,,,,,,,,,,,
5a3e5d407a3e3a0001dd3f7c,SCR,2024-06-21_13h47.24.790,LearnStrategy,2023.2.3,Win32,59.52380952,5,2,1,,,,,,,,7,15,,,,,,,,,,,,,7,3.899,1,,,,,,0.057777778,-0.383333333,1,0,0,3.8989,Peridotite_rect,0,0,0,0,1,
5a3e5d407a3e3a0001dd3f7c,SCR,2024-06-21_13h47.24.790,LearnStrategy,2023.2.3,Win32,59.52380952,5,2,2,,,,,,,,1,01,,,,,,,,,,,,,2,2.671,0,,,,,,-0.161111111,-0.256666667,1,0,0,2.6708,Basalt_rect,1,0,1,0,1,
5a3e5d407a3e3a0001dd3f7c,SCR,2024-06-21_13h47.24.790,LearnStrategy,2023.2.3,Win32,59.52380952,5,2,3,,,,,,,,4,05,,,,,,,,,,,,,6,2.885,0,,,,,,-0.113333333,-0.388888889,1,0,0,2.8852,Pegmatite_rect,2,0,2,0,1,
5a3e5d407a3e3a0001dd3f7c,SCR,2024-06-21_13h47.24.790,LearnStrategy,2023.2.3,Win32,59.52380952,5,2,4,,,,,,,,4,01,,,,,,,,,,,,,4,3.253,1,,,,,,0.377777778,-0.236666667,1,0,0,3.2533,Gabbro_rect,3,0,3,0,1,
5a3e5d407a3e3a0001dd3f7c,SCR,2024-06-21_13h47.24.790,LearnStrategy,2023.2.3,Win32,59.52380952,5,2,5,,,,,,,,2,05,,,,,,,,,,,,,2,1.713,1,,,,,,-0.115555556,-0.254444444,1,0,0,1.7135,Basalt_rect,4,0,4,0,1,
5a3e5d407a3e3a0001dd3f7c,SCR,2024-06-21_13h47.24.790,LearnStrategy,2023.2.3,Win32,59.52380952,5,2,6,,,,,,,,3,10,,,,,,,,,,,,,3,3.04,1,,,,,,0.105555556,-0.243333333,1,0,0,3.0396,Diorite_rect,5,0,5,0,1,
5a3e5d407a3e3a0001dd3f7c,SCR,2024-06-21_13h47.24.790,LearnStrategy,2023.2.3,Win32,59.52380952,5,2,7,,,,,,,,5,04,,,,,,,,,,,,,5,2.587,1,,,,,,-0.35,-0.397777778,1,0,0,2.587,Obsidian_rect,6,0,6,0,1,
5a3e5d407a3e3a0001dd3f7c,SCR,2024-06-21_13h47.24.790,LearnStrategy,2023.2.3,Win32,59.52380952,5,2,8,,,,,,,,2,16,,,,,,,,,,,,,1,2.812,0,,,,,,-0.348888889,-0.231111111,1,0,0,2.8121,Andesite_rect,7,0,7,0,1,
5a3e5d407a3e3a0001dd3f7c,SCR,2024-06-21_13h47.24.790,LearnStrategy,2023.2.3,Win32,59.52380952,5,2,9,,,,,,,,8,04,,,,,,,,,,,,,8,2.468,1,,,,,,0.407777778,-0.403333333,1,0,0,2.4679,Pumice_rect,8,0,8,0,1,
5a3e5d407a3e3a0001dd3f7c,SCR,2024-06-21_13h47.24.790,LearnStrategy,2023.2.3,Win32,59.52380952,5,2,10,,,,,,,,1,05,,,,,,,,,,,,,7,2.986,0,,,,,,0.113333333,-0.406666667,1,0,0,2.9856,Peridotite_rect,9,0,9,0,1,
5a3e5d407a3e3a0001dd3f7c,SCR,2024-06-21_13h47.24.790,LearnStrategy,2023.2.3,Win32,59.52380952,5,2,11,,,,,,,,3,16,,,,,,,,,,,,,3,2.309,1,,,,,,0.126666667,-0.255555556,1,0,0,2.3095,Diorite_rect,10,0,10,0,1,
5a3e5d407a3e3a0001dd3f7c,SCR,2024-06-21_13h47.24.790,LearnStrategy,2023.2.3,Win32,59.52380952,5,2,12,,,,,,,,8,13,,,,,,,,,,,,,1,3.493,0,,,,,,-0.376666667,-0.254444444,1,0,0,3.4926,Andesite_rect,11,0,11,0,1,
5a3e5d407a3e3a0001dd3f7c,SCR,2024-06-21_13h47.24.790,LearnStrategy,2023.2.3,Win32,59.52380952,5,2,13,,,,,,,,6,08,,,,,,,,,,,,,4,5.168,0,,,,,,0.394444444,-0.237777778,1,0,0,5.1684,Gabbro_rect,12,0,12,0,1,
5a3e5d407a3e3a0001dd3f7c,SCR,2024-06-21_13h47.24.790,LearnStrategy,2023.2.3,Win32,59.52380952,5,2,14,,,,,,,,7,12,,,,,,,,,,,,,4,2.798,0,,,,,,0.377777778,-0.242222222,1,0,0,2.7981,Gabbro_rect,13,0,13,0,1,
5a3e5d407a3e3a0001dd3f7c,SCR,2024-06-21_13h47.24.790,LearnStrategy,2023.2.3,Win32,59.52380952,5,2,15,,,,,,,,5,16,,,,,,,,,,,,,5,1.686,1,,,,,,-0.368888889,-0.386666667,1,0,0,1.6859,Obsidian_rect,14,0,14,0,1,
5a3e5d407a3e3a0001dd3f7c,SCR,2024-06-21_13h47.24.790,LearnStrategy,2023.2.3,Win32,59.52380952,5,2,16,,,,,,,,6,11,,,,,,,,,,,,,7,4.736,0,,,,,,0.095555556,-0.398888889,1,0,0,4.7356,Peridotite_rect,15,0,15,0,1,
5a3e5d407a3e3a0001dd3f7c,SCR,2024-06-21_13h47.24.790,LearnStrategy,2023.2.3,Win32,59.52380952,6,1,1,-0.257777778,-0.255555556,1,0,0,2.1915,Andesite_11,1,11,2,3,2.191,1,11,-0.394444444,-0.24,1,0,0,0.9569,Andesite_rect,1,0.957,1,0,0,0,0,1,,,,,,,,,,,,,
5a3e5d407a3e3a0001dd3f7c,SCR,2024-06-21_13h47.24.790,LearnStrategy,2023.2.3,Win32,59.52380952,6,1,2,0.363333333,0.054444444,1,0,0,1.1471,Basalt_01,2,01,4,7,1.147,2,01,-0.133333333,-0.241111111,1,0,0,1.7207,Basalt_rect,2,1.721,1,1,0,1,0,1,,,,,,,,,,,,,
5a3e5d407a3e3a0001dd3f7c,SCR,2024-06-21_13h47.24.790,LearnStrategy,2023.2.3,Win32,59.52380952,6,1,3,0.388888889,0.101111111,1,0,0,1.2137,Basalt_01,2,01,4,7,1.214,2,01,-0.136666667,-0.25,1,0,0,1.8903,Basalt_rect,2,1.89,1,2,0,2,0,1,,,,,,,,,,,,,
5a3e5d407a3e3a0001dd3f7c,SCR,2024-06-21_13h47.24.790,LearnStrategy,2023.2.3,Win32,59.52380952,6,1,4,0.541111111,-0.105555556,1,0,0,1.346,Andesite_09,1,09,3,8,1.346,1,09,-0.408888889,-0.24,1,0,0,4.3711,Andesite_rect,1,4.371,1,3,0,3,0,1,,,,,,,,,,,,,
5a3e5d407a3e3a0001dd3f7c,SCR,2024-06-21_13h47.24.790,LearnStrategy,2023.2.3,Win32,59.52380952,6,1,5,-0.364444444,0.23,1,0,0,1.5146,Peridotite_05,7,05,5,2,1.515,7,05,0.365555556,-0.25,1,0,0,2.0905,Gabbro_rect,4,2.091,0,4,0,4,0,1,,,,,,,,,,,,,
5a3e5d407a3e3a0001dd3f7c,SCR,2024-06-21_13h47.24.790,LearnStrategy,2023.2.3,Win32,59.52380952,6,1,6,0.388888889,-0.277777778,1,0,0,1.8125,Pegmatite_07,6,07,2,7,1.813,6,07,0.386666667,-0.243333333,1,0,0,1.5148,Gabbro_rect,4,1.515,0,5,0,5,0,1,,,,,,,,,,,,,
5a3e5d407a3e3a0001dd3f7c,SCR,2024-06-21_13h47.24.790,LearnStrategy,2023.2.3,Win32,59.52380952,6,1,7,-0.376666667,-0.104444444,1,0,0,1.2305,Basalt_04,2,04,3,2,1.23,2,04,-0.177777778,-0.253333333,1,0,0,1.7429,Basalt_rect,2,1.743,1,6,0,6,0,1,,,,,,,,,,,,,
5a3e5d407a3e3a0001dd3f7c,SCR,2024-06-21_13h47.24.790,LearnStrategy,2023.2.3,Win32,59.52380952,6,1,8,-0.364444444,0.093333333,1,0,0,1.3657,Pumice_06,8,06,4,2,1.366,8,06,0.426666667,-0.395555556,1,0,0,1.558,Pumice_rect,8,1.558,1,7,0,7,0,1,,,,,,,,,,,,,
5a3e5d407a3e3a0001dd3f7c,SCR,2024-06-21_13h47.24.790,LearnStrategy,2023.2.3,Win32,59.52380952,6,1,9,0.536666667,0.082222222,1,0,0,1.3318,Gabbro_08,4,08,4,8,1.332,4,08,0.1,-0.397777778,1,0,0,4.0073,Peridotite_rect,7,4.007,0,8,0,8,0,1,,,,,,,,,,,,,
5a3e5d407a3e3a0001dd3f7c,SCR,2024-06-21_13h47.24.790,LearnStrategy,2023.2.3,Win32,59.52380952,6,1,10,-0.361111111,0.237777778,1,0,0,1.5149,Peridotite_05,7,05,5,2,1.515,7,05,-0.133333333,-0.408888889,1,0,0,2.4637,Pegmatite_rect,6,2.464,0,9,0,9,0,1,,,,,,,,,,,,,
5a3e5d407a3e3a0001dd3f7c,SCR,2024-06-21_13h47.24.790,LearnStrategy,2023.2.3,Win32,59.52380952,6,1,11,0.218888889,0.228888889,1,0,0,1.4777,Pegmatite_12,6,12,5,6,1.478,6,12,0.14,-0.247777778,1,0,0,1.3092,Diorite_rect,3,1.309,0,10,0,10,0,1,,,,,,,,,,,,,
5a3e5d407a3e3a0001dd3f7c,SCR,2024-06-21_13h47.24.790,LearnStrategy,2023.2.3,Win32,59.52380952,6,1,12,0.238888889,0.232222222,1,0,0,2.214,Pegmatite_12,6,12,5,6,2.214,5,12,0.17,-0.393333333,1,0,0,1.2234,Peridotite_rect,7,1.223,0,11,0,11,0,1,,,,,,,,,,,,,
5a3e5d407a3e3a0001dd3f7c,SCR,2024-06-21_13h47.24.790,LearnStrategy,2023.2.3,Win32,59.52380952,6,1,13,0.508888889,-0.091111111,1,0,0,0.9459,Andesite_09,1,09,3,8,0.946,1,09,-0.098888889,-0.256666667,1,0,0,2.026,Basalt_rect,2,2.026,0,12,0,12,0,1,,,,,,,,,,,,,
5a3e5d407a3e3a0001dd3f7c,SCR,2024-06-21_13h47.24.790,LearnStrategy,2023.2.3,Win32,59.52380952,6,1,14,0.364444444,-0.113333333,1,0,0,1.1479,Diorite_07,3,07,3,7,1.148,3,07,0.105555556,-0.266666667,1,0,0,3.5582,Diorite_rect,3,3.558,1,13,0,13,0,1,,,,,,,,,,,,,
5a3e5d407a3e3a0001dd3f7c,SCR,2024-06-21_13h47.24.790,LearnStrategy,2023.2.3,Win32,59.52380952,6,1,15,0.543333333,-0.391111111,1,0,0,1.6458,Gabbro_15,4,15,1,8,1.646,4,15,0.444444444,-0.261111111,1,0,0,2.7273,Gabbro_rect,4,2.727,1,14,0,14,0,1,,,,,,,,,,,,,
5a3e5d407a3e3a0001dd3f7c,SCR,2024-06-21_13h47.24.790,LearnStrategy,2023.2.3,Win32,59.52380952,6,1,16,0.232222222,-0.387777778,1,0,0,1.3816,Pegmatite_10,6,10,1,6,1.382,6,10,0.395555556,-0.235555556,1,0,0,2.2394,Gabbro_rect,4,2.239,0,15,0,15,0,1,,,,,,,,,,,,,
5a3e5d407a3e3a0001dd3f7c,SCR,2024-06-21_13h47.24.790,LearnStrategy,2023.2.3,Win32,59.52380952,6,2,1,,,,,,,,2,08,,,,,,,,,,,,,2,3.359,1,,,,,,-0.156666667,-0.254444444,1,0,0,3.3591,Basalt_rect,0,0,0,0,1,
5a3e5d407a3e3a0001dd3f7c,SCR,2024-06-21_13h47.24.790,LearnStrategy,2023.2.3,Win32,59.52380952,6,2,2,,,,,,,,5,09,,,,,,,,,,,,,5,2.352,1,,,,,,-0.367777778,-0.386666667,1,0,0,2.3519,Obsidian_rect,1,0,1,0,1,
5a3e5d407a3e3a0001dd3f7c,SCR,2024-06-21_13h47.24.790,LearnStrategy,2023.2.3,Win32,59.52380952,6,2,3,,,,,,,,3,08,,,,,,,,,,,,,3,3.219,1,,,,,,0.107777778,-0.238888889,1,0,0,3.219,Diorite_rect,2,0,2,0,1,
5a3e5d407a3e3a0001dd3f7c,SCR,2024-06-21_13h47.24.790,LearnStrategy,2023.2.3,Win32,59.52380952,6,2,4,,,,,,,,8,15,,,,,,,,,,,,,8,1.785,1,,,,,,0.353333333,-0.387777778,1,0,0,1.7855,Pumice_rect,3,0,3,0,1,
5a3e5d407a3e3a0001dd3f7c,SCR,2024-06-21_13h47.24.790,LearnStrategy,2023.2.3,Win32,59.52380952,6,2,5,,,,,,,,7,14,,,,,,,,,,,,,7,2.812,1,,,,,,0.152222222,-0.4,1,0,0,2.8116,Peridotite_rect,4,0,4,0,1,
5a3e5d407a3e3a0001dd3f7c,SCR,2024-06-21_13h47.24.790,LearnStrategy,2023.2.3,Win32,59.52380952,6,2,6,,,,,,,,8,05,,,,,,,,,,,,,8,5.778,1,,,,,,0.362222222,-0.383333333,1,0,0,5.778,Pumice_rect,5,0,5,0,1,
5a3e5d407a3e3a0001dd3f7c,SCR,2024-06-21_13h47.24.790,LearnStrategy,2023.2.3,Win32,59.52380952,6,2,7,,,,,,,,4,12,,,,,,,,,,,,,6,2.019,0,,,,,,-0.1,-0.392222222,1,0,0,2.0194,Pegmatite_rect,6,0,6,0,1,
5a3e5d407a3e3a0001dd3f7c,SCR,2024-06-21_13h47.24.790,LearnStrategy,2023.2.3,Win32,59.52380952,6,2,8,,,,,,,,6,09,,,,,,,,,,,,,7,2.781,0,,,,,,0.076666667,-0.397777778,1,0,0,2.7806,Peridotite_rect,7,0,7,0,1,
5a3e5d407a3e3a0001dd3f7c,SCR,2024-06-21_13h47.24.790,LearnStrategy,2023.2.3,Win32,59.52380952,6,2,9,,,,,,,,3,13,,,,,,,,,,,,,7,1.795,0,,,,,,0.068888889,-0.396666667,1,0,0,1.7946,Peridotite_rect,8,0,8,0,1,
5a3e5d407a3e3a0001dd3f7c,SCR,2024-06-21_13h47.24.790,LearnStrategy,2023.2.3,Win32,59.52380952,6,2,10,,,,,,,,1,03,,,,,,,,,,,,,1,1.898,1,,,,,,-0.371111111,-0.24,1,0,0,1.8977,Andesite_rect,9,0,9,0,1,
5a3e5d407a3e3a0001dd3f7c,SCR,2024-06-21_13h47.24.790,LearnStrategy,2023.2.3,Win32,59.52380952,6,2,11,,,,,,,,4,14,,,,,,,,,,,,,2,2.458,0,,,,,,-0.188888889,-0.24,1,0,0,2.4577,Basalt_rect,10,0,10,0,1,
5a3e5d407a3e3a0001dd3f7c,SCR,2024-06-21_13h47.24.790,LearnStrategy,2023.2.3,Win32,59.52380952,6,2,12,,,,,,,,2,06,,,,,,,,,,,,,5,1.774,0,,,,,,-0.363333333,-0.384444444,1,0,0,1.7737,Obsidian_rect,11,0,11,0,1,
5a3e5d407a3e3a0001dd3f7c,SCR,2024-06-21_13h47.24.790,LearnStrategy,2023.2.3,Win32,59.52380952,6,2,13,,,,,,,,7,04,,,,,,,,,,,,,4,1.902,0,,,,,,0.373333333,-0.25,1,0,0,1.9024,Gabbro_rect,12,0,12,0,1,
5a3e5d407a3e3a0001dd3f7c,SCR,2024-06-21_13h47.24.790,LearnStrategy,2023.2.3,Win32,59.52380952,6,2,14,,,,,,,,6,16,,,,,,,,,,,,,4,1.191,0,,,,,,0.373333333,-0.25,1,0,0,1.1911,Gabbro_rect,13,0,13,0,1,
5a3e5d407a3e3a0001dd3f7c,SCR,2024-06-21_13h47.24.790,LearnStrategy,2023.2.3,Win32,59.52380952,6,2,15,,,,,,,,5,10,,,,,,,,,,,,,5,2.031,1,,,,,,-0.368888889,-0.403333333,1,0,0,2.0309,Obsidian_rect,14,0,14,0,1,
5a3e5d407a3e3a0001dd3f7c,SCR,2024-06-21_13h47.24.790,LearnStrategy,2023.2.3,Win32,59.52380952,6,2,16,,,,,,,,1,07,,,,,,,,,,,,,2,2.211,0,,,,,,-0.168888889,-0.235555556,1,0,0,2.2115,Basalt_rect,15,0,15,0,1,
5a3e5d407a3e3a0001dd3f7c,SCR,2024-06-21_13h47.24.790,LearnStrategy,2023.2.3,Win32,59.52380952,7,1,1,0.245555556,-0.097777778,1,0,0,1.3252,Basalt_12,2,12,3,6,1.325,2,12,-0.104444444,-0.242222222,1,0,0,4.2953,Basalt_rect,2,4.295,1,0,0,0,0,1,,,,,,,,,,,,,
5a3e5d407a3e3a0001dd3f7c,SCR,2024-06-21_13h47.24.790,LearnStrategy,2023.2.3,Win32,59.52380952,7,1,2,-0.228888889,0.396666667,1,0,0,1.5148,Andesite_14,1,14,6,3,1.515,1,14,-0.088888889,-0.395555556,1,0,0,5.2583,Pegmatite_rect,6,5.258,0,1,0,1,0,1,,,,,,,,,,,,,
5a3e5d407a3e3a0001dd3f7c,SCR,2024-06-21_13h47.24.790,LearnStrategy,2023.2.3,Win32,59.52380952,7,1,3,-0.383333333,0.242222222,1,0,0,1.43,Peridotite_05,7,05,5,2,1.43,7,05,-0.092222222,-0.403333333,1,0,0,4.0128,Pegmatite_rect,6,4.013,0,2,0,2,0,1,,,,,,,,,,,,,
5a3e5d407a3e3a0001dd3f7c,SCR,2024-06-21_13h47.24.790,LearnStrategy,2023.2.3,Win32,59.52380952,7,1,4,0.053333333,-0.131111111,1,0,0,0.9377,Basalt_10,2,10,3,5,0.938,2,10,-0.114444444,-0.246666667,1,0,0,2.8766,Basalt_rect,2,2.877,1,3,0,3,0,1,,,,,,,,,,,,,
5a3e5d407a3e3a0001dd3f7c,SCR,2024-06-21_13h47.24.790,LearnStrategy,2023.2.3,Win32,59.52380952,7,1,5,-0.217777778,-0.235555556,1,0,0,1.2643,Andesite_11,1,11,2,3,1.264,1,11,-0.382222222,-0.253333333,1,0,0,1.8419,Andesite_rect,1,1.842,1,4,0,4,0,1,,,,,,,,,,,,,
5a3e5d407a3e3a0001dd3f7c,SCR,2024-06-21_13h47.24.790,LearnStrategy,2023.2.3,Win32,59.52380952,7,1,6,-0.07,-0.106666667,1,0,0,0.9984,Pegmatite_13,6,13,3,4,0.998,6,13,0.096666667,-0.378888889,1,0,0,9.936,Peridotite_rect,7,9.936,0,5,0,5,0,1,,,,,,,,,,,,,
5a3e5d407a3e3a0001dd3f7c,SCR,2024-06-21_13h47.24.790,LearnStrategy,2023.2.3,Win32,59.52380952,7,1,7,0.043333333,0.095555556,1,0,0,1.2438,Gabbro_13,4,13,4,5,1.244,4,13,-0.08,-0.406666667,1,0,0,2.7019,Pegmatite_rect,6,2.702,0,6,0,6,0,1,,,,,,,,,,,,,
5a3e5d407a3e3a0001dd3f7c,SCR,2024-06-21_13h47.24.790,LearnStrategy,2023.2.3,Win32,59.52380952,7,1,8,0.216666667,0.248888889,1,0,0,1.6802,Pegmatite_12,6,12,5,6,1.68,6,12,0.153333333,-0.238888889,1,0,0,2.8416,Diorite_rect,3,2.842,0,7,0,7,0,1,,,,,,,,,,,,,
5a3e5d407a3e3a0001dd3f7c,SCR,2024-06-21_13h47.24.790,LearnStrategy,2023.2.3,Win32,59.52380952,7,1,9,-0.264444444,-0.275555556,1,0,0,1.0808,Andesite_11,1,11,2,3,1.081,1,11,-0.404444444,-0.244444444,1,0,0,0.9047,Andesite_rect,1,0.905,1,8,0,8,0,1,,,,,,,,,,,,,
5a3e5d407a3e3a0001dd3f7c,SCR,2024-06-21_13h47.24.790,LearnStrategy,2023.2.3,Win32,59.52380952,7,1,10,0.222222222,-0.401111111,1,0,0,1.4158,Pegmatite_10,6,10,1,6,1.416,6,10,-0.086666667,-0.388888889,1,0,0,4.821,Pegmatite_rect,6,4.821,1,9,0,9,0,1,,,,,,,,,,,,,
5a3e5d407a3e3a0001dd3f7c,SCR,2024-06-21_13h47.24.790,LearnStrategy,2023.2.3,Win32,59.52380952,7,1,11,0.401111111,-0.122222222,1,0,0,1.1999,Diorite_07,3,07,3,7,1.2,3,07,0.157777778,-0.39,1,0,0,1.9154,Peridotite_rect,7,1.915,0,10,0,10,0,1,,,,,,,,,,,,,
5a3e5d407a3e3a0001dd3f7c,SCR,2024-06-21_13h47.24.790,LearnStrategy,2023.2.3,Win32,59.52380952,7,1,12,0.558888889,-0.411111111,1,0,0,1.8147,Gabbro_15,4,15,1,8,1.815,4,15,0.342222222,-0.245555556,1,0,0,4.3411,Gabbro_rect,4,4.341,1,11,0,11,0,1,,,,,,,,,,,,,
5a3e5d407a3e3a0001dd3f7c,SCR,2024-06-21_13h47.24.790,LearnStrategy,2023.2.3,Win32,59.52380952,7,1,13,0.076666667,-0.408888889,1,0,0,1.1606,Pumice_10,8,10,1,5,1.161,8,10,0.076666667,-0.408888889,1,0,0,6.6902,Peridotite_rect,7,6.69,0,12,0,12,0,1,,,,,,,,,,,,,
5a3e5d407a3e3a0001dd3f7c,SCR,2024-06-21_13h47.24.790,LearnStrategy,2023.2.3,Win32,59.52380952,7,1,14,-0.395555556,-0.291111111,1,0,0,1.3317,Gabbro_10,4,10,2,2,1.332,4,10,-0.137777778,-0.242222222,1,0,0,3.0214,Basalt_rect,2,3.021,0,13,0,13,0,1,,,,,,,,,,,,,
5a3e5d407a3e3a0001dd3f7c,SCR,2024-06-21_13h47.24.790,LearnStrategy,2023.2.3,Win32,59.52380952,7,1,15,-0.523333333,0.254444444,1,0,0,2.3123,Obsidian_11,5,11,5,1,2.312,5,11,-0.39,-0.385555556,1,0,0,1.8036,Obsidian_rect,5,1.804,1,14,0,14,0,1,,,,,,,,,,,,,
5a3e5d407a3e3a0001dd3f7c,SCR,2024-06-21_13h47.24.790,LearnStrategy,2023.2.3,Win32,59.52380952,7,1,16,0.071111111,0.411111111,1,0,0,1.2462,Peridotite_06,7,06,6,5,1.246,7,06,0.401111111,-0.246666667,1,0,0,1.9822,Gabbro_rect,4,1.982,0,15,0,15,0,1,,,,,,,,,,,,,
5a3e5d407a3e3a0001dd3f7c,SCR,2024-06-21_13h47.24.790,LearnStrategy,2023.2.3,Win32,59.52380952,7,2,1,,,,,,,,6,06,,,,,,,,,,,,,4,4.36,0,,,,,,0.37,-0.23,1,0,0,4.3601,Gabbro_rect,0,0,0,0,1,
5a3e5d407a3e3a0001dd3f7c,SCR,2024-06-21_13h47.24.790,LearnStrategy,2023.2.3,Win32,59.52380952,7,2,2,,,,,,,,7,12,,,,,,,,,,,,,4,1.47,0,,,,,,0.34,-0.24,1,0,0,1.4697,Gabbro_rect,1,0,1,0,1,
5a3e5d407a3e3a0001dd3f7c,SCR,2024-06-21_13h47.24.790,LearnStrategy,2023.2.3,Win32,59.52380952,7,2,3,,,,,,,,1,07,,,,,,,,,,,,,1,2.409,1,,,,,,-0.337777778,-0.26,1,0,0,2.4087,Andesite_rect,2,0,2,0,1,
5a3e5d407a3e3a0001dd3f7c,SCR,2024-06-21_13h47.24.790,LearnStrategy,2023.2.3,Win32,59.52380952,7,2,4,,,,,,,,4,11,,,,,,,,,,,,,2,1.413,0,,,,,,-0.167777778,-0.256666667,1,0,0,1.4127,Basalt_rect,3,0,3,0,1,
5a3e5d407a3e3a0001dd3f7c,SCR,2024-06-21_13h47.24.790,LearnStrategy,2023.2.3,Win32,59.52380952,7,2,5,,,,,,,,3,13,,,,,,,,,,,,,7,4.065,0,,,,,,0.106666667,-0.398888889,1,0,0,4.0652,Peridotite_rect,4,0,4,0,1,
5a3e5d407a3e3a0001dd3f7c,SCR,2024-06-21_13h47.24.790,LearnStrategy,2023.2.3,Win32,59.52380952,7,2,6,,,,,,,,8,04,,,,,,,,,,,,,8,1.216,1,,,,,,0.374444444,-0.396666667,1,0,0,1.2163,Pumice_rect,5,0,5,0,1,
5a3e5d407a3e3a0001dd3f7c,SCR,2024-06-21_13h47.24.790,LearnStrategy,2023.2.3,Win32,59.52380952,7,2,7,,,,,,,,5,10,,,,,,,,,,,,,5,1.453,1,,,,,,-0.387777778,-0.387777778,1,0,0,1.4527,Obsidian_rect,6,0,6,0,1,
5a3e5d407a3e3a0001dd3f7c,SCR,2024-06-21_13h47.24.790,LearnStrategy,2023.2.3,Win32,59.52380952,7,2,8,,,,,,,,1,06,,,,,,,,,,,,,1,1.499,1,,,,,,-0.36,-0.252222222,1,0,0,1.4992,Andesite_rect,7,0,7,0,1,
5a3e5d407a3e3a0001dd3f7c,SCR,2024-06-21_13h47.24.790,LearnStrategy,2023.2.3,Win32,59.52380952,7,2,9,,,,,,,,2,05,,,,,,,,,,,,,2,1.515,1,,,,,,-0.192222222,-0.254444444,1,0,0,1.5154,Basalt_rect,8,0,8,0,1,
5a3e5d407a3e3a0001dd3f7c,SCR,2024-06-21_13h47.24.790,LearnStrategy,2023.2.3,Win32,59.52380952,7,2,10,,,,,,,,5,05,,,,,,,,,,,,,5,3.212,1,,,,,,-0.398888889,-0.381111111,1,0,0,3.2117,Obsidian_rect,9,0,9,0,1,
5a3e5d407a3e3a0001dd3f7c,SCR,2024-06-21_13h47.24.790,LearnStrategy,2023.2.3,Win32,59.52380952,7,2,11,,,,,,,,3,02,,,,,,,,,,,,,6,2.086,0,,,,,,-0.101111111,-0.385555556,1,0,0,2.0861,Pegmatite_rect,10,0,10,0,1,
5a3e5d407a3e3a0001dd3f7c,SCR,2024-06-21_13h47.24.790,LearnStrategy,2023.2.3,Win32,59.52380952,7,2,12,,,,,,,,8,16,,,,,,,,,,,,,8,4.22,1,,,,,,0.32,-0.387777778,1,0,0,4.2199,Pumice_rect,11,0,11,0,1,
5a3e5d407a3e3a0001dd3f7c,SCR,2024-06-21_13h47.24.790,LearnStrategy,2023.2.3,Win32,59.52380952,7,2,13,,,,,,,,6,09,,,,,,,,,,,,,7,5.411,0,,,,,,0.166666667,-0.4,1,0,0,5.4114,Peridotite_rect,12,0,12,0,1,
5a3e5d407a3e3a0001dd3f7c,SCR,2024-06-21_13h47.24.790,LearnStrategy,2023.2.3,Win32,59.52380952,7,2,14,,,,,,,,2,11,,,,,,,,,,,,,8,1.584,0,,,,,,0.317777778,-0.38,1,0,0,1.5842,Pumice_rect,13,0,13,0,1,
5a3e5d407a3e3a0001dd3f7c,SCR,2024-06-21_13h47.24.790,LearnStrategy,2023.2.3,Win32,59.52380952,7,2,15,,,,,,,,4,05,,,,,,,,,,,,,4,2.185,1,,,,,,0.35,-0.243333333,1,0,0,2.1851,Gabbro_rect,14,0,14,0,1,
5a3e5d407a3e3a0001dd3f7c,SCR,2024-06-21_13h47.24.790,LearnStrategy,2023.2.3,Win32,59.52380952,7,2,16,,,,,,,,7,04,,,,,,,,,,,,,4,1.164,0,,,,,,0.361111111,-0.237777778,1,0,0,1.1641,Gabbro_rect,15,0,15,0,1,
5a3e5d407a3e3a0001dd3f7c,SCR,2024-06-21_13h47.24.790,LearnStrategy,2023.2.3,Win32,59.52380952,8,1,1,-0.551111111,0.1,1,0,0,2.1958,Gabbro_03,4,03,4,1,2.196,4,03,-0.144444444,-0.411111111,1,0,0,3.4158,Pegmatite_rect,6,3.416,0,0,0,0,0,1,,,,,,,,,,,,,
5a3e5d407a3e3a0001dd3f7c,SCR,2024-06-21_13h47.24.790,LearnStrategy,2023.2.3,Win32,59.52380952,8,1,2,-0.546666667,0.104444444,1,0,0,2.0223,Gabbro_03,4,03,4,1,2.022,6,12,0.362222222,-0.228888889,1,0,0,2.4253,Gabbro_rect,4,2.425,1,1,0,1,0,1,,,,,,,,,,,,,
5a3e5d407a3e3a0001dd3f7c,SCR,2024-06-21_13h47.24.790,LearnStrategy,2023.2.3,Win32,59.52380952,8,1,3,0.064444444,0.26,1,0,0,1.1646,Pegmatite_05,6,05,5,5,1.165,6,05,0.373333333,-0.246666667,1,0,0,2.0737,Gabbro_rect,4,2.074,0,2,0,2,0,1,,,,,,,,,,,,,
5a3e5d407a3e3a0001dd3f7c,SCR,2024-06-21_13h47.24.790,LearnStrategy,2023.2.3,Win32,59.52380952,8,1,4,0.383333333,-0.098888889,1,0,0,2.4784,Diorite_07,3,07,3,7,2.478,1,11,0.036666667,-0.402222222,1,0,0,2.573,Peridotite_rect,7,2.573,0,3,0,3,0,1,,,,,,,,,,,,,
5a3e5d407a3e3a0001dd3f7c,SCR,2024-06-21_13h47.24.790,LearnStrategy,2023.2.3,Win32,59.52380952,8,1,5,-0.07,-0.091111111,1,0,0,2.7818,Pegmatite_13,6,13,3,4,2.782,4,03,0.357777778,-0.248888889,1,0,0,2.6689,Gabbro_rect,4,2.669,0,4,0,4,0,1,,,,,,,,,,,,,
5a3e5d407a3e3a0001dd3f7c,SCR,2024-06-21_13h47.24.790,LearnStrategy,2023.2.3,Win32,59.52380952,8,1,6,0.521111111,0.4,1,0,0,4.9466,Diorite_12,3,12,6,8,4.947,2,14,0.125555556,-0.243333333,1,0,0,2.2633,Diorite_rect,3,2.263,1,5,0,5,0,1,,,,,,,,,,,,,
5a3e5d407a3e3a0001dd3f7c,SCR,2024-06-21_13h47.24.790,LearnStrategy,2023.2.3,Win32,59.52380952,8,1,7,0.273333333,-0.228888889,1,0,0,1.8816,Diorite_14,3,14,2,6,1.882,1,11,0.142222222,-0.247777778,1,0,0,0.8686,Diorite_rect,3,0.869,1,6,0,6,0,1,,,,,,,,,,,,,
5a3e5d407a3e3a0001dd3f7c,SCR,2024-06-21_13h47.24.790,LearnStrategy,2023.2.3,Win32,59.52380952,8,1,8,0.533333333,-0.244444444,1,0,0,1.5302,Peridotite_13,7,13,2,8,1.53,4,09,0.427777778,-0.237777778,1,0,0,1.0137,Gabbro_rect,4,1.014,0,7,0,7,0,1,,,,,,,,,,,,,
5a3e5d407a3e3a0001dd3f7c,SCR,2024-06-21_13h47.24.790,LearnStrategy,2023.2.3,Win32,59.52380952,8,1,9,0.53,0.261111111,1,0,0,5.2459,Diorite_09,3,09,5,8,5.246,6,10,0.168888889,-0.236666667,1,0,0,1.8353,Diorite_rect,3,1.835,1,8,0,8,0,1,,,,,,,,,,,,,
5a3e5d407a3e3a0001dd3f7c,SCR,2024-06-21_13h47.24.790,LearnStrategy,2023.2.3,Win32,59.52380952,8,1,10,0.243333333,-0.41,1,0,0,3.859,Pegmatite_10,6,10,1,6,3.859,7,13,0.15,-0.402222222,1,0,0,2.2006,Peridotite_rect,7,2.201,0,9,0,9,0,1,,,,,,,,,,,,,
5a3e5d407a3e3a0001dd3f7c,SCR,2024-06-21_13h47.24.790,LearnStrategy,2023.2.3,Win32,59.52380952,8,1,11,0.217777778,-0.372222222,1,0,0,1.3489,Pegmatite_10,6,10,1,6,1.349,2,10,-0.137777778,-0.391111111,1,0,0,0.7593,Pegmatite_rect,6,0.759,1,10,0,10,0,1,,,,,,,,,,,,,
5a3e5d407a3e3a0001dd3f7c,SCR,2024-06-21_13h47.24.790,LearnStrategy,2023.2.3,Win32,59.52380952,8,1,12,0.1,-0.244444444,1,0,0,2.4644,Diorite_06,3,06,2,5,2.464,3,06,0.118888889,-0.393333333,1,0,0,4.8246,Peridotite_rect,7,4.825,0,11,0,11,0,1,,,,,,,,,,,,,
5a3e5d407a3e3a0001dd3f7c,SCR,2024-06-21_13h47.24.790,LearnStrategy,2023.2.3,Win32,59.52380952,8,1,13,0.364444444,0.392222222,1,0,0,1.7476,Peridotite_16,7,16,6,7,1.748,7,16,0.097777778,-0.393333333,1,0,0,4.4719,Peridotite_rect,7,4.472,1,12,0,12,0,1,,,,,,,,,,,,,
5a3e5d407a3e3a0001dd3f7c,SCR,2024-06-21_13h47.24.790,LearnStrategy,2023.2.3,Win32,59.52380952,8,1,14,-0.072222222,0.092222222,1,0,0,1.0815,Diorite_15,3,15,4,4,1.082,3,15,0.123333333,-0.247777778,1,0,0,3.6184,Diorite_rect,3,3.618,1,13,0,13,0,1,,,,,,,,,,,,,
5a3e5d407a3e3a0001dd3f7c,SCR,2024-06-21_13h47.24.790,LearnStrategy,2023.2.3,Win32,59.52380952,8,1,15,-0.385555556,0.118888889,1,0,0,1.3158,Pumice_06,8,06,4,2,1.316,8,06,0.427777778,-0.393333333,1,0,0,1.8523,Pumice_rect,8,1.852,1,14,0,14,0,1,,,,,,,,,,,,,
5a3e5d407a3e3a0001dd3f7c,SCR,2024-06-21_13h47.24.790,LearnStrategy,2023.2.3,Win32,59.52380952,8,1,16,0.372222222,0.397777778,1,0,0,1.2985,Peridotite_16,7,16,6,7,1.298,7,16,0.164444444,-0.238888889,1,0,0,3.7392,Diorite_rect,3,3.739,0,15,0,15,0,1,,,,,,,,,,,,,
5a3e5d407a3e3a0001dd3f7c,SCR,2024-06-21_13h47.24.790,LearnStrategy,2023.2.3,Win32,59.52380952,8,2,1,,,,,,,,5,02,,,,,,,,,,,,,5,1.448,1,,,,,,-0.384444444,-0.396666667,1,0,0,1.4479,Obsidian_rect,0,0,0,0,1,
5a3e5d407a3e3a0001dd3f7c,SCR,2024-06-21_13h47.24.790,LearnStrategy,2023.2.3,Win32,59.52380952,8,2,2,,,,,,,,7,07,,,,,,,,,,,,,7,4.447,1,,,,,,0.091111111,-0.391111111,1,0,0,4.4467,Peridotite_rect,1,0,1,0,1,
5a3e5d407a3e3a0001dd3f7c,SCR,2024-06-21_13h47.24.790,LearnStrategy,2023.2.3,Win32,59.52380952,8,2,3,,,,,,,,3,16,,,,,,,,,,,,,3,1.554,1,,,,,,0.128888889,-0.246666667,1,0,0,1.5541,Diorite_rect,2,0,2,0,1,
5a3e5d407a3e3a0001dd3f7c,SCR,2024-06-21_13h47.24.790,LearnStrategy,2023.2.3,Win32,59.52380952,8,2,4,,,,,,,,4,14,,,,,,,,,,,,,6,3.172,0,,,,,,-0.094444444,-0.387777778,1,0,0,3.1719,Pegmatite_rect,3,0,3,0,1,
5a3e5d407a3e3a0001dd3f7c,SCR,2024-06-21_13h47.24.790,LearnStrategy,2023.2.3,Win32,59.52380952,8,2,5,,,,,,,,4,01,,,,,,,,,,,,,7,3.104,0,,,,,,0.064444444,-0.397777778,1,0,0,3.1037,Peridotite_rect,4,0,4,0,1,
5a3e5d407a3e3a0001dd3f7c,SCR,2024-06-21_13h47.24.790,LearnStrategy,2023.2.3,Win32,59.52380952,8,2,6,,,,,,,,3,10,,,,,,,,,,,,,3,2.221,1,,,,,,0.074444444,-0.244444444,1,0,0,2.2212,Diorite_rect,5,0,5,0,1,
5a3e5d407a3e3a0001dd3f7c,SCR,2024-06-21_13h47.24.790,LearnStrategy,2023.2.3,Win32,59.52380952,8,2,7,,,,,,,,7,08,,,,,,,,,,,,,2,1.943,0,,,,,,-0.113333333,-0.258888889,1,0,0,1.9432,Basalt_rect,6,0,6,0,1,
5a3e5d407a3e3a0001dd3f7c,SCR,2024-06-21_13h47.24.790,LearnStrategy,2023.2.3,Win32,59.52380952,8,2,8,,,,,,,,2,08,,,,,,,,,,,,,2,2.809,1,,,,,,-0.171111111,-0.255555556,1,0,0,2.8085,Basalt_rect,7,0,7,0,1,
5a3e5d407a3e3a0001dd3f7c,SCR,2024-06-21_13h47.24.790,LearnStrategy,2023.2.3,Win32,59.52380952,8,2,9,,,,,,,,6,08,,,,,,,,,,,,,4,5.237,0,,,,,,0.406666667,-0.251111111,1,0,0,5.2368,Gabbro_rect,8,0,8,0,1,
5a3e5d407a3e3a0001dd3f7c,SCR,2024-06-21_13h47.24.790,LearnStrategy,2023.2.3,Win32,59.52380952,8,2,10,,,,,,,,1,01,,,,,,,,,,,,,1,1.988,1,,,,,,-0.356666667,-0.261111111,1,0,0,1.9876,Andesite_rect,9,0,9,0,1,
5a3e5d407a3e3a0001dd3f7c,SCR,2024-06-21_13h47.24.790,LearnStrategy,2023.2.3,Win32,59.52380952,8,2,11,,,,,,,,8,13,,,,,,,,,,,,,8,1.543,1,,,,,,0.371111111,-0.386666667,1,0,0,1.5428,Pumice_rect,10,0,10,0,1,
5a3e5d407a3e3a0001dd3f7c,SCR,2024-06-21_13h47.24.790,LearnStrategy,2023.2.3,Win32,59.52380952,8,2,12,,,,,,,,6,03,,,,,,,,,,,,,4,2.497,0,,,,,,0.355555556,-0.242222222,1,0,0,2.4975,Gabbro_rect,11,0,11,0,1,
5a3e5d407a3e3a0001dd3f7c,SCR,2024-06-21_13h47.24.790,LearnStrategy,2023.2.3,Win32,59.52380952,8,2,13,,,,,,,,2,02,,,,,,,,,,,,,8,1.619,0,,,,,,0.362222222,-0.388888889,1,0,0,1.6187,Pumice_rect,12,0,12,0,1,
5a3e5d407a3e3a0001dd3f7c,SCR,2024-06-21_13h47.24.790,LearnStrategy,2023.2.3,Win32,59.52380952,8,2,14,,,,,,,,8,05,,,,,,,,,,,,,8,1.156,1,,,,,,0.362222222,-0.388888889,1,0,0,1.1556,Pumice_rect,13,0,13,0,1,
5a3e5d407a3e3a0001dd3f7c,SCR,2024-06-21_13h47.24.790,LearnStrategy,2023.2.3,Win32,59.52380952,8,2,15,,,,,,,,1,10,,,,,,,,,,,,,8,5.995,0,,,,,,0.362222222,-0.388888889,1,0,0,5.9945,Pumice_rect,14,0,14,0,1,
5a3e5d407a3e3a0001dd3f7c,SCR,2024-06-21_13h47.24.790,LearnStrategy,2023.2.3,Win32,59.52380952,8,2,16,,,,,,,,5,04,,,,,,,,,,,,,5,1.769,1,,,,,,-0.361111111,-0.387777778,1,0,0,1.7694,Obsidian_rect,15,0,15,0,1,
5a3e5d407a3e3a0001dd3f7c,SCR,2024-06-21_13h47.24.790,LearnStrategy,2023.2.3,Win32,59.52380952,9,1,1,-0.552222222,0.117777778,1,0,0,3.7481,Gabbro_03,4,03,4,1,3.748,8,06,0.392222222,-0.242222222,1,0,0,2.5502,Gabbro_rect,4,2.55,1,0,0,0,0,1,,,,,,,,,,,,,
5a3e5d407a3e3a0001dd3f7c,SCR,2024-06-21_13h47.24.790,LearnStrategy,2023.2.3,Win32,59.52380952,9,1,2,-0.536666667,0.4,1,0,0,2.8149,Pegmatite_15,6,15,6,1,2.815,6,15,0.381111111,-0.253333333,1,0,0,2.6622,Gabbro_rect,4,2.662,0,1,0,1,0,1,,,,,,,,,,,,,
5a3e5d407a3e3a0001dd3f7c,SCR,2024-06-21_13h47.24.790,LearnStrategy,2023.2.3,Win32,59.52380952,9,1,3,-0.533333333,0.39,1,0,0,1.5654,Pegmatite_15,6,15,6,1,1.565,4,08,-0.137777778,-0.4,1,0,0,3.0338,Pegmatite_rect,6,3.034,1,2,0,2,0,1,,,,,,,,,,,,,
5a3e5d407a3e3a0001dd3f7c,SCR,2024-06-21_13h47.24.790,LearnStrategy,2023.2.3,Win32,59.52380952,9,1,4,0.063333333,0.26,1,0,0,3.0484,Pegmatite_05,6,05,5,5,3.048,2,12,0.141111111,-0.251111111,1,0,0,2.2331,Diorite_rect,3,2.233,0,3,0,3,0,1,,,,,,,,,,,,,
5a3e5d407a3e3a0001dd3f7c,SCR,2024-06-21_13h47.24.790,LearnStrategy,2023.2.3,Win32,59.52380952,9,1,5,0.058888889,0.265555556,1,0,0,1.1621,Pegmatite_05,6,05,5,5,1.162,7,05,0.157777778,-0.396666667,1,0,0,1.5748,Peridotite_rect,7,1.575,0,4,0,4,0,1,,,,,,,,,,,,,
5a3e5d407a3e3a0001dd3f7c,SCR,2024-06-21_13h47.24.790,LearnStrategy,2023.2.3,Win32,59.52380952,9,1,6,0.577777778,0.413333333,1,0,0,1.7472,Diorite_12,3,12,6,8,1.747,3,12,0.133333333,-0.255555556,1,0,0,2.5195,Diorite_rect,3,2.52,1,5,0,5,0,1,,,,,,,,,,,,,
5a3e5d407a3e3a0001dd3f7c,SCR,2024-06-21_13h47.24.790,LearnStrategy,2023.2.3,Win32,59.52380952,9,1,7,0.085555556,0.087777778,1,0,0,1.032,Gabbro_13,4,13,4,5,1.032,4,13,-0.135555556,-0.24,1,0,0,3.0527,Basalt_rect,2,3.053,0,6,0,6,0,1,,,,,,,,,,,,,
5a3e5d407a3e3a0001dd3f7c,SCR,2024-06-21_13h47.24.790,LearnStrategy,2023.2.3,Win32,59.52380952,9,1,8,0.385555556,-0.078888889,1,0,0,2.0325,Diorite_07,3,07,3,7,2.033,2,12,0.142222222,-0.254444444,1,0,0,2.9182,Diorite_rect,3,2.918,1,7,0,7,0,1,,,,,,,,,,,,,
5a3e5d407a3e3a0001dd3f7c,SCR,2024-06-21_13h47.24.790,LearnStrategy,2023.2.3,Win32,59.52380952,9,1,9,0.531111111,0.281111111,1,0,0,7.211,Diorite_09,3,09,5,8,7.211,7,02,0.372222222,-0.232222222,1,0,0,1.8989,Gabbro_rect,4,1.899,0,8,0,8,0,1,,,,,,,,,,,,,
5a3e5d407a3e3a0001dd3f7c,SCR,2024-06-21_13h47.24.790,LearnStrategy,2023.2.3,Win32,59.52380952,9,1,10,0.218888889,-0.402222222,1,0,0,1.3986,Pegmatite_10,6,10,1,6,1.399,6,10,-0.068888889,-0.393333333,1,0,0,2.5238,Pegmatite_rect,6,2.524,1,9,0,9,0,1,,,,,,,,,,,,,
5a3e5d407a3e3a0001dd3f7c,SCR,2024-06-21_13h47.24.790,LearnStrategy,2023.2.3,Win32,59.52380952,9,1,11,-0.521111111,-0.115555556,1,0,0,2.8951,Obsidian_06,5,06,3,1,2.895,1,11,-0.383333333,-0.392222222,1,0,0,2.3466,Obsidian_rect,5,2.347,1,10,0,10,0,1,,,,,,,,,,,,,
5a3e5d407a3e3a0001dd3f7c,SCR,2024-06-21_13h47.24.790,LearnStrategy,2023.2.3,Win32,59.52380952,9,1,12,0.346666667,0.274444444,1,0,0,3.9636,Pumice_14,8,14,5,7,3.964,6,13,0.406666667,-0.384444444,1,0,0,2.4177,Pumice_rect,8,2.418,1,11,0,11,0,1,,,,,,,,,,,,,
5a3e5d407a3e3a0001dd3f7c,SCR,2024-06-21_13h47.24.790,LearnStrategy,2023.2.3,Win32,59.52380952,9,1,13,-0.204444444,-0.433333333,1,0,0,1.2316,Andesite_16,1,16,1,3,1.232,1,16,-0.376666667,-0.238888889,1,0,0,3.4628,Andesite_rect,1,3.463,1,12,0,12,0,1,,,,,,,,,,,,,
5a3e5d407a3e3a0001dd3f7c,SCR,2024-06-21_13h47.24.790,LearnStrategy,2023.2.3,Win32,59.52380952,9,1,14,-0.075555556,-0.431111111,1,0,0,1.2984,Peridotite_10,7,10,1,4,1.298,7,10,0.373333333,-0.244444444,1,0,0,4.4908,Gabbro_rect,4,4.491,0,13,0,13,0,1,,,,,,,,,,,,,
5a3e5d407a3e3a0001dd3f7c,SCR,2024-06-21_13h47.24.790,LearnStrategy,2023.2.3,Win32,59.52380952,9,1,15,0.232222222,-0.398888889,1,0,0,1.8978,Pegmatite_10,6,10,1,6,1.898,6,10,-0.096666667,-0.406666667,1,0,0,0.7844,Pegmatite_rect,6,0.784,1,14,0,14,0,1,,,,,,,,,,,,,
5a3e5d407a3e3a0001dd3f7c,SCR,2024-06-21_13h47.24.790,LearnStrategy,2023.2.3,Win32,59.52380952,9,1,16,-0.376666667,-0.411111111,1,0,0,1.0969,Gabbro_09,4,09,1,2,1.097,4,09,-0.38,-0.393333333,1,0,0,1.5625,Obsidian_rect,5,1.563,0,15,0,15,0,1,,,,,,,,,,,,,
5a3e5d407a3e3a0001dd3f7c,SCR,2024-06-21_13h47.24.790,LearnStrategy,2023.2.3,Win32,59.52380952,9,2,1,,,,,,,,7,15,,,,,,,,,,,,,3,6.934,0,,,,,,0.102222222,-0.24,1,0,0,6.9343,Diorite_rect,0,0,0,0,1,
5a3e5d407a3e3a0001dd3f7c,SCR,2024-06-21_13h47.24.790,LearnStrategy,2023.2.3,Win32,59.52380952,9,2,2,,,,,,,,5,09,,,,,,,,,,,,,5,1.555,1,,,,,,-0.387777778,-0.387777778,1,0,0,1.555,Obsidian_rect,1,0,1,0,1,
5a3e5d407a3e3a0001dd3f7c,SCR,2024-06-21_13h47.24.790,LearnStrategy,2023.2.3,Win32,59.52380952,9,2,3,,,,,,,,6,11,,,,,,,,,,,,,5,2.864,0,,,,,,-0.387777778,-0.387777778,1,0,0,2.8636,Obsidian_rect,2,0,2,0,1,
5a3e5d407a3e3a0001dd3f7c,SCR,2024-06-21_13h47.24.790,LearnStrategy,2023.2.3,Win32,59.52380952,9,2,4,,,,,,,,6,16,,,,,,,,,,,,,3,2.036,0,,,,,,0.127777778,-0.256666667,1,0,0,2.0357,Diorite_rect,3,0,3,0,1,
5a3e5d407a3e3a0001dd3f7c,SCR,2024-06-21_13h47.24.790,LearnStrategy,2023.2.3,Win32,59.52380952,9,2,5,,,,,,,,4,16,,,,,,,,,,,,,2,1.721,0,,,,,,-0.105555556,-0.266666667,1,0,0,1.7208,Basalt_rect,4,0,4,0,1,
5a3e5d407a3e3a0001dd3f7c,SCR,2024-06-21_13h47.24.790,LearnStrategy,2023.2.3,Win32,59.52380952,9,2,6,,,,,,,,1,03,,,,,,,,,,,,,1,1.697,1,,,,,,-0.408888889,-0.253333333,1,0,0,1.6968,Andesite_rect,5,0,5,0,1,
5a3e5d407a3e3a0001dd3f7c,SCR,2024-06-21_13h47.24.790,LearnStrategy,2023.2.3,Win32,59.52380952,9,2,7,,,,,,,,8,02,,,,,,,,,,,,,8,1.667,1,,,,,,0.395555556,-0.382222222,1,0,0,1.6665,Pumice_rect,6,0,6,0,1,
5a3e5d407a3e3a0001dd3f7c,SCR,2024-06-21_13h47.24.790,LearnStrategy,2023.2.3,Win32,59.52380952,9,2,8,,,,,,,,4,12,,,,,,,,,,,,,4,2.818,1,,,,,,0.376666667,-0.243333333,1,0,0,2.8176,Gabbro_rect,7,0,7,0,1,
5a3e5d407a3e3a0001dd3f7c,SCR,2024-06-21_13h47.24.790,LearnStrategy,2023.2.3,Win32,59.52380952,9,2,9,,,,,,,,3,08,,,,,,,,,,,,,3,1.478,1,,,,,,0.14,-0.252222222,1,0,0,1.4779,Diorite_rect,8,0,8,0,1,
5a3e5d407a3e3a0001dd3f7c,SCR,2024-06-21_13h47.24.790,LearnStrategy,2023.2.3,Win32,59.52380952,9,2,10,,,,,,,,8,15,,,,,,,,,,,,,8,1.359,1,,,,,,0.34,-0.408888889,1,0,0,1.3594,Pumice_rect,9,0,9,0,1,
5a3e5d407a3e3a0001dd3f7c,SCR,2024-06-21_13h47.24.790,LearnStrategy,2023.2.3,Win32,59.52380952,9,2,11,,,,,,,,1,05,,,,,,,,,,,,,4,3.766,0,,,,,,0.376666667,-0.247777778,1,0,0,3.7658,Gabbro_rect,10,0,10,0,1,
5a3e5d407a3e3a0001dd3f7c,SCR,2024-06-21_13h47.24.790,LearnStrategy,2023.2.3,Win32,59.52380952,9,2,12,,,,,,,,5,16,,,,,,,,,,,,,5,1.933,1,,,,,,-0.383333333,-0.397777778,1,0,0,1.9332,Obsidian_rect,11,0,11,0,1,
5a3e5d407a3e3a0001dd3f7c,SCR,2024-06-21_13h47.24.790,LearnStrategy,2023.2.3,Win32,59.52380952,9,2,13,,,,,,,,7,14,,,,,,,,,,,,,7,3.291,1,,,,,,0.053333333,-0.392222222,1,0,0,3.2914,Peridotite_rect,12,0,12,0,1,
5a3e5d407a3e3a0001dd3f7c,SCR,2024-06-21_13h47.24.790,LearnStrategy,2023.2.3,Win32,59.52380952,9,2,14,,,,,,,,3,11,,,,,,,,,,,,,3,1.758,1,,,,,,0.055555556,-0.25,1,0,0,1.7584,Diorite_rect,13,0,13,0,1,
5a3e5d407a3e3a0001dd3f7c,SCR,2024-06-21_13h47.24.790,LearnStrategy,2023.2.3,Win32,59.52380952,9,2,15,,,,,,,,2,06,,,,,,,,,,,,,5,3.485,0,,,,,,-0.407777778,-0.378888889,1,0,0,3.4852,Obsidian_rect,14,0,14,0,1,
5a3e5d407a3e3a0001dd3f7c,SCR,2024-06-21_13h47.24.790,LearnStrategy,2023.2.3,Win32,59.52380952,9,2,16,,,,,,,,2,16,,,,,,,,,,,,,2,2.199,1,,,,,,-0.155555556,-0.241111111,1,0,0,2.1994,Basalt_rect,15,0,15,0,1,
5a3e5d407a3e3a0001dd3f7c,SCR,2024-06-21_13h47.24.790,LearnStrategy,2023.2.3,Win32,59.52380952,,,,,,,,,,,,,,,,,,,,,,,,,,,,,,,,,,,,,,,,,,,,,0
5a3e5d407a3e3a0001dd3f7c,SCR,2024-06-21_13h47.24.790,LearnStrategy,2023.2.3,Win32,59.52380952,,,,,,,,,,,,,,,,,,,,,,,,,,,,,,,,,,,,,,,,,,,,,
5a3e5d407a3e3a0001dd3f7c,SCR,2024-06-21_13h47.24.790,LearnStrategy,2023.2.3,Win32,59.52380952,,,,,,,,,,,2,14,1,1,,,,,,,,,,,,,,,,,,,,,,,,,,,,,,,
5a3e5d407a3e3a0001dd3f7c,SCR,2024-06-21_13h47.24.790,LearnStrategy,2023.2.3,Win32,59.52380952,,,,,,,,,,,4,09,1,2,,,,,,,,,,,,,,,,,,,,,,,,,,,,,,,
5a3e5d407a3e3a0001dd3f7c,SCR,2024-06-21_13h47.24.790,LearnStrategy,2023.2.3,Win32,59.52380952,,,,,,,,,,,1,16,1,3,,,,,,,,,,,,,,,,,,,,,,,,,,,,,,,
5a3e5d407a3e3a0001dd3f7c,SCR,2024-06-21_13h47.24.790,LearnStrategy,2023.2.3,Win32,59.52380952,,,,,,,,,,,7,10,1,4,,,,,,,,,,,,,,,,,,,,,,,,,,,,,,,
5a3e5d407a3e3a0001dd3f7c,SCR,2024-06-21_13h47.24.790,LearnStrategy,2023.2.3,Win32,59.52380952,,,,,,,,,,,8,10,1,5,,,,,,,,,,,,,,,,,,,,,,,,,,,,,,,
5a3e5d407a3e3a0001dd3f7c,SCR,2024-06-21_13h47.24.790,LearnStrategy,2023.2.3,Win32,59.52380952,,,,,,,,,,,6,10,1,6,,,,,,,,,,,,,,,,,,,,,,,,,,,,,,,
5a3e5d407a3e3a0001dd3f7c,SCR,2024-06-21_13h47.24.790,LearnStrategy,2023.2.3,Win32,59.52380952,,,,,,,,,,,5,12,1,7,,,,,,,,,,,,,,,,,,,,,,,,,,,,,,,
5a3e5d407a3e3a0001dd3f7c,SCR,2024-06-21_13h47.24.790,LearnStrategy,2023.2.3,Win32,59.52380952,,,,,,,,,,,4,15,1,8,,,,,,,,,,,,,,,,,,,,,,,,,,,,,,,
5a3e5d407a3e3a0001dd3f7c,SCR,2024-06-21_13h47.24.790,LearnStrategy,2023.2.3,Win32,59.52380952,,,,,,,,,,,8,03,2,1,,,,,,,,,,,,,,,,,,,,,,,,,,,,,,,
5a3e5d407a3e3a0001dd3f7c,SCR,2024-06-21_13h47.24.790,LearnStrategy,2023.2.3,Win32,59.52380952,,,,,,,,,,,4,10,2,2,,,,,,,,,,,,,,,,,,,,,,,,,,,,,,,
5a3e5d407a3e3a0001dd3f7c,SCR,2024-06-21_13h47.24.790,LearnStrategy,2023.2.3,Win32,59.52380952,,,,,,,,,,,1,11,2,3,,,,,,,,,,,,,,,,,,,,,,,,,,,,,,,
5a3e5d407a3e3a0001dd3f7c,SCR,2024-06-21_13h47.24.790,LearnStrategy,2023.2.3,Win32,59.52380952,,,,,,,,,,,8,09,2,4,,,,,,,,,,,,,,,,,,,,,,,,,,,,,,,
5a3e5d407a3e3a0001dd3f7c,SCR,2024-06-21_13h47.24.790,LearnStrategy,2023.2.3,Win32,59.52380952,,,,,,,,,,,3,06,2,5,,,,,,,,,,,,,,,,,,,,,,,,,,,,,,,
5a3e5d407a3e3a0001dd3f7c,SCR,2024-06-21_13h47.24.790,LearnStrategy,2023.2.3,Win32,59.52380952,,,,,,,,,,,3,14,2,6,,,,,,,,,,,,,,,,,,,,,,,,,,,,,,,
5a3e5d407a3e3a0001dd3f7c,SCR,2024-06-21_13h47.24.790,LearnStrategy,2023.2.3,Win32,59.52380952,,,,,,,,,,,6,07,2,7,,,,,,,,,,,,,,,,,,,,,,,,,,,,,,,
5a3e5d407a3e3a0001dd3f7c,SCR,2024-06-21_13h47.24.790,LearnStrategy,2023.2.3,Win32,59.52380952,,,,,,,,,,,7,13,2,8,,,,,,,,,,,,,,,,,,,,,,,,,,,,,,,
5a3e5d407a3e3a0001dd3f7c,SCR,2024-06-21_13h47.24.790,LearnStrategy,2023.2.3,Win32,59.52380952,,,,,,,,,,,5,06,3,1,,,,,,,,,,,,,,,,,,,,,,,,,,,,,,,
5a3e5d407a3e3a0001dd3f7c,SCR,2024-06-21_13h47.24.790,LearnStrategy,2023.2.3,Win32,59.52380952,,,,,,,,,,,2,04,3,2,,,,,,,,,,,,,,,,,,,,,,,,,,,,,,,
5a3e5d407a3e3a0001dd3f7c,SCR,2024-06-21_13h47.24.790,LearnStrategy,2023.2.3,Win32,59.52380952,,,,,,,,,,,8,08,3,3,,,,,,,,,,,,,,,,,,,,,,,,,,,,,,,
5a3e5d407a3e3a0001dd3f7c,SCR,2024-06-21_13h47.24.790,LearnStrategy,2023.2.3,Win32,59.52380952,,,,,,,,,,,6,13,3,4,,,,,,,,,,,,,,,,,,,,,,,,,,,,,,,
5a3e5d407a3e3a0001dd3f7c,SCR,2024-06-21_13h47.24.790,LearnStrategy,2023.2.3,Win32,59.52380952,,,,,,,,,,,2,10,3,5,,,,,,,,,,,,,,,,,,,,,,,,,,,,,,,
5a3e5d407a3e3a0001dd3f7c,SCR,2024-06-21_13h47.24.790,LearnStrategy,2023.2.3,Win32,59.52380952,,,,,,,,,,,2,12,3,6,,,,,,,,,,,,,,,,,,,,,,,,,,,,,,,
5a3e5d407a3e3a0001dd3f7c,SCR,2024-06-21_13h47.24.790,LearnStrategy,2023.2.3,Win32,59.52380952,,,,,,,,,,,3,07,3,7,,,,,,,,,,,,,,,,,,,,,,,,,,,,,,,
5a3e5d407a3e3a0001dd3f7c,SCR,2024-06-21_13h47.24.790,LearnStrategy,2023.2.3,Win32,59.52380952,,,,,,,,,,,1,09,3,8,,,,,,,,,,,,,,,,,,,,,,,,,,,,,,,
5a3e5d407a3e3a0001dd3f7c,SCR,2024-06-21_13h47.24.790,LearnStrategy,2023.2.3,Win32,59.52380952,,,,,,,,,,,4,03,4,1,,,,,,,,,,,,,,,,,,,,,,,,,,,,,,,
5a3e5d407a3e3a0001dd3f7c,SCR,2024-06-21_13h47.24.790,LearnStrategy,2023.2.3,Win32,59.52380952,,,,,,,,,,,8,06,4,2,,,,,,,,,,,,,,,,,,,,,,,,,,,,,,,
5a3e5d407a3e3a0001dd3f7c,SCR,2024-06-21_13h47.24.790,LearnStrategy,2023.2.3,Win32,59.52380952,,,,,,,,,,,5,07,4,3,,,,,,,,,,,,,,,,,,,,,,,,,,,,,,,
5a3e5d407a3e3a0001dd3f7c,SCR,2024-06-21_13h47.24.790,LearnStrategy,2023.2.3,Win32,59.52380952,,,,,,,,,,,3,15,4,4,,,,,,,,,,,,,,,,,,,,,,,,,,,,,,,
5a3e5d407a3e3a0001dd3f7c,SCR,2024-06-21_13h47.24.790,LearnStrategy,2023.2.3,Win32,59.52380952,,,,,,,,,,,4,13,4,5,,,,,,,,,,,,,,,,,,,,,,,,,,,,,,,
5a3e5d407a3e3a0001dd3f7c,SCR,2024-06-21_13h47.24.790,LearnStrategy,2023.2.3,Win32,59.52380952,,,,,,,,,,,1,04,4,6,,,,,,,,,,,,,,,,,,,,,,,,,,,,,,,
5a3e5d407a3e3a0001dd3f7c,SCR,2024-06-21_13h47.24.790,LearnStrategy,2023.2.3,Win32,59.52380952,,,,,,,,,,,2,01,4,7,,,,,,,,,,,,,,,,,,,,,,,,,,,,,,,
5a3e5d407a3e3a0001dd3f7c,SCR,2024-06-21_13h47.24.790,LearnStrategy,2023.2.3,Win32,59.52380952,,,,,,,,,,,4,08,4,8,,,,,,,,,,,,,,,,,,,,,,,,,,,,,,,
5a3e5d407a3e3a0001dd3f7c,SCR,2024-06-21_13h47.24.790,LearnStrategy,2023.2.3,Win32,59.52380952,,,,,,,,,,,5,11,5,1,,,,,,,,,,,,,,,,,,,,,,,,,,,,,,,
5a3e5d407a3e3a0001dd3f7c,SCR,2024-06-21_13h47.24.790,LearnStrategy,2023.2.3,Win32,59.52380952,,,,,,,,,,,7,05,5,2,,,,,,,,,,,,,,,,,,,,,,,,,,,,,,,
5a3e5d407a3e3a0001dd3f7c,SCR,2024-06-21_13h47.24.790,LearnStrategy,2023.2.3,Win32,59.52380952,,,,,,,,,,,5,14,5,3,,,,,,,,,,,,,,,,,,,,,,,,,,,,,,,
5a3e5d407a3e3a0001dd3f7c,SCR,2024-06-21_13h47.24.790,LearnStrategy,2023.2.3,Win32,59.52380952,,,,,,,,,,,1,02,5,4,,,,,,,,,,,,,,,,,,,,,,,,,,,,,,,
5a3e5d407a3e3a0001dd3f7c,SCR,2024-06-21_13h47.24.790,LearnStrategy,2023.2.3,Win32,59.52380952,,,,,,,,,,,6,05,5,5,,,,,,,,,,,,,,,,,,,,,,,,,,,,,,,
5a3e5d407a3e3a0001dd3f7c,SCR,2024-06-21_13h47.24.790,LearnStrategy,2023.2.3,Win32,59.52380952,,,,,,,,,,,6,12,5,6,,,,,,,,,,,,,,,,,,,,,,,,,,,,,,,
5a3e5d407a3e3a0001dd3f7c,SCR,2024-06-21_13h47.24.790,LearnStrategy,2023.2.3,Win32,59.52380952,,,,,,,,,,,8,14,5,7,,,,,,,,,,,,,,,,,,,,,,,,,,,,,,,
5a3e5d407a3e3a0001dd3f7c,SCR,2024-06-21_13h47.24.790,LearnStrategy,2023.2.3,Win32,59.52380952,,,,,,,,,,,3,09,5,8,,,,,,,,,,,,,,,,,,,,,,,,,,,,,,,
5a3e5d407a3e3a0001dd3f7c,SCR,2024-06-21_13h47.24.790,LearnStrategy,2023.2.3,Win32,59.52380952,,,,,,,,,,,6,15,6,1,,,,,,,,,,,,,,,,,,,,,,,,,,,,,,,
5a3e5d407a3e3a0001dd3f7c,SCR,2024-06-21_13h47.24.790,LearnStrategy,2023.2.3,Win32,59.52380952,,,,,,,,,,,7,02,6,2,,,,,,,,,,,,,,,,,,,,,,,,,,,,,,,
5a3e5d407a3e3a0001dd3f7c,SCR,2024-06-21_13h47.24.790,LearnStrategy,2023.2.3,Win32,59.52380952,,,,,,,,,,,1,14,6,3,,,,,,,,,,,,,,,,,,,,,,,,,,,,,,,
5a3e5d407a3e3a0001dd3f7c,SCR,2024-06-21_13h47.24.790,LearnStrategy,2023.2.3,Win32,59.52380952,,,,,,,,,,,2,09,6,4,,,,,,,,,,,,,,,,,,,,,,,,,,,,,,,
5a3e5d407a3e3a0001dd3f7c,SCR,2024-06-21_13h47.24.790,LearnStrategy,2023.2.3,Win32,59.52380952,,,,,,,,,,,7,06,6,5,,,,,,,,,,,,,,,,,,,,,,,,,,,,,,,
5a3e5d407a3e3a0001dd3f7c,SCR,2024-06-21_13h47.24.790,LearnStrategy,2023.2.3,Win32,59.52380952,,,,,,,,,,,5,08,6,6,,,,,,,,,,,,,,,,,,,,,,,,,,,,,,,
5a3e5d407a3e3a0001dd3f7c,SCR,2024-06-21_13h47.24.790,LearnStrategy,2023.2.3,Win32,59.52380952,,,,,,,,,,,7,16,6,7,,,,,,,,,,,,,,,,,,,,,,,,,,,,,,,
5a3e5d407a3e3a0001dd3f7c,SCR,2024-06-21_13h47.24.790,LearnStrategy,2023.2.3,Win32,59.52380952,,,,,,,,,,,3,12,6,8,,,,,,,,,,,,,,,,,,,,,,,,,,,,,,,