participant,condition,date,expName,psychopyVersion,OS,frameRate,block,phase,trial,learn_mouse_2.x,learn_mouse_2.y,learn_mouse_2.leftButton,learn_mouse_2.midButton,learn_mouse_2.rightButton,learn_mouse_2.time,learn_mouse_2.clicked_name,cat,token,row,col,t_select,cat_mouse_l.x,cat_mouse_l.y,cat_mouse_l.leftButton,cat_mouse_l.midButton,cat_mouse_l.rightButton,cat_mouse_l.time,cat_mouse_l.clicked_name,resp,t_resp,corr,train_trials.thisRepN,train_trials.thisTrialN,train_trials.thisN,train_trials.thisIndex,train_trials.ran,cat_mouse_t.x,cat_mouse_t.y,cat_mouse_t.leftButton,cat_mouse_t.midButton,cat_mouse_t.rightButton,cat_mouse_t.time,cat_mouse_t.clicked_name,test_trials.thisRepN,test_trials.thisTrialN,test_trials.thisN,test_trials.thisIndex,test_trials.ran,Bonus
5b9b422307c6960001614c35,TCN,2024-06-25_12h40.05.560,LearnStrategy,2023.2.3,MacIntel,58.82352941,,,,,,,,,,,,,,,,,,,,,,,,,,,,,,,,,,,,,,,,,,,
5b9b422307c6960001614c35,TCN,2024-06-25_12h40.05.560,LearnStrategy,2023.2.3,MacIntel,58.82352941,1,1,1,0.070811632,0.007798032,1,0,0,5.1215,rock_grid_rect_2,4,11,-1,-1,5.121,0.088353588,-0.237749566,1,0,0,5.4588,Diorite_rect,3,5.459,0,0,0,0,0,1,,,,,,,,,,,,,
5b9b422307c6960001614c35,TCN,2024-06-25_12h40.05.560,LearnStrategy,2023.2.3,MacIntel,58.82352941,1,1,2,0.060297309,0.000148293,1,0,0,1.4447,rock_grid_rect_2,4,16,-1,-1,1.445,-0.137264902,-0.392990451,1,0,0,7.2083,Pegmatite_rect,6,7.208,0,1,0,1,0,1,,,,,,,,,,,,,
5b9b422307c6960001614c35,TCN,2024-06-25_12h40.05.560,LearnStrategy,2023.2.3,MacIntel,58.82352941,1,1,3,-0.00339265,-0.000350839,1,0,0,1.4872,rock_grid_rect_2,1,16,-1,-1,1.487,-0.094469763,-0.254658565,1,0,0,2.4804,Basalt_rect,2,2.48,0,2,0,2,0,1,,,,,,,,,,,,,
5b9b422307c6960001614c35,TCN,2024-06-25_12h40.05.560,LearnStrategy,2023.2.3,MacIntel,58.82352941,1,1,4,-5.42535E-05,0.005613426,1,0,0,1.2309,rock_grid_rect_2,5,07,-1,-1,1.231,-0.371860532,-0.402832031,1,0,0,5.5939,Obsidian_rect,5,5.594,1,3,0,3,0,1,,,,,,,,,,,,,
5b9b422307c6960001614c35,TCN,2024-06-25_12h40.05.560,LearnStrategy,2023.2.3,MacIntel,58.82352941,1,1,5,0.083033131,-0.000766782,1,0,0,1.1629,rock_grid_rect_2,2,11,-1,-1,1.163,0.307924624,-0.403598814,1,0,0,9.114,Pumice_rect,8,9.114,0,4,0,4,0,1,,,,,,,,,,,,,
5b9b422307c6960001614c35,TCN,2024-06-25_12h40.05.560,LearnStrategy,2023.2.3,MacIntel,58.82352941,1,1,6,0.000245949,-0.006391059,1,0,0,0.881,rock_grid_rect_2,3,10,-1,-1,0.881,-0.086805556,-0.25094401,1,0,0,6.9957,Basalt_rect,2,6.996,0,5,0,5,0,1,,,,,,,,,,,,,
5b9b422307c6960001614c35,TCN,2024-06-25_12h40.05.560,LearnStrategy,2023.2.3,MacIntel,58.82352941,1,1,7,0.095912905,-0.000752315,1,0,0,1.2144,rock_grid_rect_2,2,04,-1,-1,1.214,0.408076534,-0.389449508,1,0,0,5.8639,Pumice_rect,8,5.864,0,6,0,6,0,1,,,,,,,,,,,,,
5b9b422307c6960001614c35,TCN,2024-06-25_12h40.05.560,LearnStrategy,2023.2.3,MacIntel,58.82352941,1,1,8,0.035677083,-0.004550058,1,0,0,0.8641,rock_grid_rect_2,8,09,-1,-1,0.864,0.397088397,-0.379314959,1,0,0,3.6428,Pumice_rect,8,3.643,1,7,0,7,0,1,,,,,,,,,,,,,
5b9b422307c6960001614c35,TCN,2024-06-25_12h40.05.560,LearnStrategy,2023.2.3,MacIntel,58.82352941,1,1,9,0.092918113,0.010590278,1,0,0,0.98,rock_grid_rect_2,7,10,-1,-1,0.98,0.091456887,-0.257002315,1,0,0,4.0302,Diorite_rect,3,4.03,0,8,0,8,0,1,,,,,,,,,,,,,
5b9b422307c6960001614c35,TCN,2024-06-25_12h40.05.560,LearnStrategy,2023.2.3,MacIntel,58.82352941,1,1,10,0.021137153,0.001913339,1,0,0,1.4451,rock_grid_rect_2,6,16,-1,-1,1.445,-0.0932364,-0.40973669,1,0,0,4.9258,Pegmatite_rect,6,4.926,1,9,0,9,0,1,,,,,,,,,,,,,
5b9b422307c6960001614c35,TCN,2024-06-25_12h40.05.560,LearnStrategy,2023.2.3,MacIntel,58.82352941,1,1,11,0.004600694,0.012160012,1,0,0,1.5119,rock_grid_rect_2,1,02,-1,-1,1.512,-0.099786603,-0.259667969,1,0,0,6.4139,Basalt_rect,2,6.414,0,10,0,10,0,1,,,,,,,,,,,,,
5b9b422307c6960001614c35,TCN,2024-06-25_12h40.05.560,LearnStrategy,2023.2.3,MacIntel,58.82352941,1,1,12,0.031383825,0.010188802,1,0,0,1.1636,rock_grid_rect_2,8,15,-1,-1,1.164,0.366370081,-0.411103877,1,0,0,4.4263,Pumice_rect,8,4.426,1,11,0,11,0,1,,,,,,,,,,,,,
5b9b422307c6960001614c35,TCN,2024-06-25_12h40.05.560,LearnStrategy,2023.2.3,MacIntel,58.82352941,1,1,13,-0.017028356,-0.017545573,1,0,0,0.9122,rock_grid_rect_2,6,06,-1,-1,0.912,-0.156409144,-0.41906467,1,0,0,2.9615,Pegmatite_rect,6,2.962,1,12,0,12,0,1,,,,,,,,,,,,,
5b9b422307c6960001614c35,TCN,2024-06-25_12h40.05.560,LearnStrategy,2023.2.3,MacIntel,58.82352941,1,1,14,-0.036414931,-0.003316696,1,0,0,0.7982,rock_grid_rect_2,5,04,-1,-1,0.798,-0.361324508,-0.391739005,1,0,0,3.2106,Obsidian_rect,5,3.211,1,13,0,13,0,1,,,,,,,,,,,,,
5b9b422307c6960001614c35,TCN,2024-06-25_12h40.05.560,LearnStrategy,2023.2.3,MacIntel,58.82352941,1,1,15,0.0533818,0.004676649,1,0,0,1.0131,rock_grid_rect_2,7,02,-1,-1,1.013,0.143413628,-0.409812645,1,0,0,2.1104,Peridotite_rect,7,2.11,1,14,0,14,0,1,,,,,,,,,,,,,
5b9b422307c6960001614c35,TCN,2024-06-25_12h40.05.560,LearnStrategy,2023.2.3,MacIntel,58.82352941,1,1,16,0.055609809,0.005645978,1,0,0,0.9814,rock_grid_rect_2,3,02,-1,-1,0.981,-0.357819734,-0.260854311,1,0,0,1.7271,Andesite_rect,1,1.727,0,15,0,15,0,1,,,,,,,,,,,,,
5b9b422307c6960001614c35,TCN,2024-06-25_12h40.05.560,LearnStrategy,2023.2.3,MacIntel,58.82352941,1,2,1,,,,,,,,2,09,,,,,,,,,,,2,5.77,1,,,,,,-0.091576244,-0.24837963,1,0,0,5.7704,Basalt_rect,0,0,0,0,1,
5b9b422307c6960001614c35,TCN,2024-06-25_12h40.05.560,LearnStrategy,2023.2.3,MacIntel,58.82352941,1,2,2,,,,,,,,8,10,,,,,,,,,,,8,1.43,1,,,,,,0.374150029,-0.414579716,1,0,0,1.43,Pumice_rect,1,0,1,0,1,
5b9b422307c6960001614c35,TCN,2024-06-25_12h40.05.560,LearnStrategy,2023.2.3,MacIntel,58.82352941,1,2,3,,,,,,,,4,03,,,,,,,,,,,3,2.491,0,,,,,,0.115386285,-0.240870949,1,0,0,2.4907,Diorite_rect,2,0,2,0,1,
5b9b422307c6960001614c35,TCN,2024-06-25_12h40.05.560,LearnStrategy,2023.2.3,MacIntel,58.82352941,1,2,4,,,,,,,,8,13,,,,,,,,,,,8,1.74,1,,,,,,0.383940972,-0.393768084,1,0,0,1.7397,Pumice_rect,3,0,3,0,1,
5b9b422307c6960001614c35,TCN,2024-06-25_12h40.05.560,LearnStrategy,2023.2.3,MacIntel,58.82352941,1,2,5,,,,,,,,7,04,,,,,,,,,,,7,2.892,1,,,,,,0.153794126,-0.393974248,1,0,0,2.8921,Peridotite_rect,4,0,4,0,1,
5b9b422307c6960001614c35,TCN,2024-06-25_12h40.05.560,LearnStrategy,2023.2.3,MacIntel,58.82352941,1,2,6,,,,,,,,5,10,,,,,,,,,,,5,1.489,1,,,,,,-0.435228588,-0.393127894,1,0,0,1.4887,Obsidian_rect,5,0,5,0,1,
5b9b422307c6960001614c35,TCN,2024-06-25_12h40.05.560,LearnStrategy,2023.2.3,MacIntel,58.82352941,1,2,7,,,,,,,,7,06,,,,,,,,,,,7,1.427,1,,,,,,0.075980179,-0.399844473,1,0,0,1.427,Peridotite_rect,6,0,6,0,1,
5b9b422307c6960001614c35,TCN,2024-06-25_12h40.05.560,LearnStrategy,2023.2.3,MacIntel,58.82352941,1,2,8,,,,,,,,6,12,,,,,,,,,,,6,4.409,1,,,,,,-0.138881655,-0.379282407,1,0,0,4.4094,Pegmatite_rect,7,0,7,0,1,
5b9b422307c6960001614c35,TCN,2024-06-25_12h40.05.560,LearnStrategy,2023.2.3,MacIntel,58.82352941,1,2,9,,,,,,,,1,07,,,,,,,,,,,3,2.49,0,,,,,,0.070757378,-0.252998409,1,0,0,2.4898,Diorite_rect,8,0,8,0,1,
5b9b422307c6960001614c35,TCN,2024-06-25_12h40.05.560,LearnStrategy,2023.2.3,MacIntel,58.82352941,1,2,10,,,,,,,,2,05,,,,,,,,,,,4,1.774,0,,,,,,0.330555556,-0.239355469,1,0,0,1.7739,Gabbro_rect,9,0,9,0,1,
5b9b422307c6960001614c35,TCN,2024-06-25_12h40.05.560,LearnStrategy,2023.2.3,MacIntel,58.82352941,1,2,11,,,,,,,,4,01,,,,,,,,,,,7,2.891,0,,,,,,0.127358218,-0.380248119,1,0,0,2.8906,Peridotite_rect,10,0,10,0,1,
5b9b422307c6960001614c35,TCN,2024-06-25_12h40.05.560,LearnStrategy,2023.2.3,MacIntel,58.82352941,1,2,12,,,,,,,,3,15,,,,,,,,,,,2,3.408,0,,,,,,-0.12827691,-0.252152054,1,0,0,3.4076,Basalt_rect,11,0,11,0,1,
5b9b422307c6960001614c35,TCN,2024-06-25_12h40.05.560,LearnStrategy,2023.2.3,MacIntel,58.82352941,1,2,13,,,,,,,,6,11,,,,,,,,,,,6,3.658,1,,,,,,-0.107895689,-0.399558738,1,0,0,3.6576,Pegmatite_rect,12,0,12,0,1,
5b9b422307c6960001614c35,TCN,2024-06-25_12h40.05.560,LearnStrategy,2023.2.3,MacIntel,58.82352941,1,2,14,,,,,,,,3,12,,,,,,,,,,,3,4.99,1,,,,,,0.116341146,-0.269527633,1,0,0,4.9898,Diorite_rect,13,0,13,0,1,
5b9b422307c6960001614c35,TCN,2024-06-25_12h40.05.560,LearnStrategy,2023.2.3,MacIntel,58.82352941,1,2,15,,,,,,,,5,12,,,,,,,,,,,5,1.841,1,,,,,,-0.458459925,-0.417274306,1,0,0,1.8409,Obsidian_rect,14,0,14,0,1,
5b9b422307c6960001614c35,TCN,2024-06-25_12h40.05.560,LearnStrategy,2023.2.3,MacIntel,58.82352941,1,2,16,,,,,,,,1,10,,,,,,,,,,,1,3.348,1,,,,,,-0.336140046,-0.263476563,1,0,0,3.3478,Andesite_rect,15,0,15,0,1,
5b9b422307c6960001614c35,TCN,2024-06-25_12h40.05.560,LearnStrategy,2023.2.3,MacIntel,58.82352941,2,1,1,-0.019708478,-0.024117477,1,0,0,2.0311,rock_grid_rect_2,2,02,-1,-1,2.031,-0.07880136,-0.238172743,1,0,0,8.4555,Basalt_rect,2,8.456,1,0,0,0,0,1,,,,,,,,,,,,,
5b9b422307c6960001614c35,TCN,2024-06-25_12h40.05.560,LearnStrategy,2023.2.3,MacIntel,58.82352941,2,1,2,0.02223669,-0.00500217,1,0,0,3.5307,rock_grid_rect_2,6,13,-1,-1,3.531,-0.128653067,-0.416659433,1,0,0,3.3595,Pegmatite_rect,6,3.359,1,1,0,1,0,1,,,,,,,,,,,,,
5b9b422307c6960001614c35,TCN,2024-06-25_12h40.05.560,LearnStrategy,2023.2.3,MacIntel,58.82352941,2,1,3,0.105645978,-0.008872251,1,0,0,0.8984,rock_grid_rect_2,6,07,-1,-1,0.898,-0.100108507,-0.386603009,1,0,0,1.3096,Pegmatite_rect,6,1.31,1,2,0,2,0,1,,,,,,,,,,,,,
5b9b422307c6960001614c35,TCN,2024-06-25_12h40.05.560,LearnStrategy,2023.2.3,MacIntel,58.82352941,2,1,4,0.101689091,0.012760417,1,0,0,0.7326,rock_grid_rect_2,2,14,-1,-1,0.733,0.428161169,-0.398795573,1,0,0,1.4935,Pumice_rect,8,1.493,0,3,0,3,0,1,,,,,,,,,,,,,
5b9b422307c6960001614c35,TCN,2024-06-25_12h40.05.560,LearnStrategy,2023.2.3,MacIntel,58.82352941,2,1,5,0.00787037,-0.000415943,1,0,0,1.2815,rock_grid_rect_2,7,13,-1,-1,1.281,0.150387008,-0.384483507,1,0,0,1.2767,Peridotite_rect,7,1.277,1,4,0,4,0,1,,,,,,,,,,,,,
5b9b422307c6960001614c35,TCN,2024-06-25_12h40.05.560,LearnStrategy,2023.2.3,MacIntel,58.82352941,2,1,6,0.014673756,-0.018117043,1,0,0,1.1827,rock_grid_rect_2,3,08,-1,-1,1.183,0.168489583,-0.241594329,1,0,0,2.2775,Diorite_rect,3,2.277,1,5,0,5,0,1,,,,,,,,,,,,,
5b9b422307c6960001614c35,TCN,2024-06-25_12h40.05.560,LearnStrategy,2023.2.3,MacIntel,58.82352941,2,1,7,0.05462963,-0.005855758,1,0,0,0.9627,rock_grid_rect_2,8,06,-1,-1,0.963,0.346480758,-0.411288339,1,0,0,1.6959,Pumice_rect,8,1.696,1,6,0,6,0,1,,,,,,,,,,,,,
5b9b422307c6960001614c35,TCN,2024-06-25_12h40.05.560,LearnStrategy,2023.2.3,MacIntel,58.82352941,2,1,8,0.038349971,-0.019860388,1,0,0,0.7833,rock_grid_rect_2,1,03,-1,-1,0.783,-0.337268519,-0.235257523,1,0,0,1.4754,Andesite_rect,1,1.475,1,7,0,7,0,1,,,,,,,,,,,,,
5b9b422307c6960001614c35,TCN,2024-06-25_12h40.05.560,LearnStrategy,2023.2.3,MacIntel,58.82352941,2,1,9,-0.027445023,0.015292245,1,0,0,0.698,rock_grid_rect_2,4,14,-1,-1,0.698,-0.121365017,-0.26932147,1,0,0,4.0612,Basalt_rect,2,4.061,0,8,0,8,0,1,,,,,,,,,,,,,
5b9b422307c6960001614c35,TCN,2024-06-25_12h40.05.560,LearnStrategy,2023.2.3,MacIntel,58.82352941,2,1,10,0.038049769,0.003497541,1,0,0,0.9971,rock_grid_rect_2,8,02,-1,-1,0.997,0.388635706,-0.390313947,1,0,0,1.6636,Pumice_rect,8,1.664,1,9,0,9,0,1,,,,,,,,,,,,,
5b9b422307c6960001614c35,TCN,2024-06-25_12h40.05.560,LearnStrategy,2023.2.3,MacIntel,58.82352941,2,1,11,0.041178385,0.010923032,1,0,0,0.7655,rock_grid_rect_2,1,14,-1,-1,0.765,-0.133217593,-0.410579427,1,0,0,3.4964,Pegmatite_rect,6,3.496,0,10,0,10,0,1,,,,,,,,,,,,,
5b9b422307c6960001614c35,TCN,2024-06-25_12h40.05.560,LearnStrategy,2023.2.3,MacIntel,58.82352941,2,1,12,-0.013364439,0.016688368,1,0,0,0.6477,rock_grid_rect_2,3,14,-1,-1,0.648,0.183004196,-0.256470631,1,0,0,1.2782,Diorite_rect,3,1.278,1,11,0,11,0,1,,,,,,,,,,,,,
5b9b422307c6960001614c35,TCN,2024-06-25_12h40.05.560,LearnStrategy,2023.2.3,MacIntel,58.82352941,2,1,13,0.005924479,-0.010355179,1,0,0,0.765,rock_grid_rect_2,5,16,-1,-1,0.765,-0.359903067,-0.4171875,1,0,0,1.1087,Obsidian_rect,5,1.109,1,12,0,12,0,1,,,,,,,,,,,,,
5b9b422307c6960001614c35,TCN,2024-06-25_12h40.05.560,LearnStrategy,2023.2.3,MacIntel,58.82352941,2,1,14,0.028342014,-0.014659288,1,0,0,0.8987,rock_grid_rect_2,7,05,-1,-1,0.899,0.130486834,-0.410015191,1,0,0,1.4969,Peridotite_rect,7,1.497,1,13,0,13,0,1,,,,,,,,,,,,,
5b9b422307c6960001614c35,TCN,2024-06-25_12h40.05.560,LearnStrategy,2023.2.3,MacIntel,58.82352941,2,1,15,0.073101128,-0.006940828,1,0,0,0.681,rock_grid_rect_2,5,08,-1,-1,0.681,-0.335521557,-0.388870804,1,0,0,1.2808,Obsidian_rect,5,1.281,1,14,0,14,0,1,,,,,,,,,,,,,
5b9b422307c6960001614c35,TCN,2024-06-25_12h40.05.560,LearnStrategy,2023.2.3,MacIntel,58.82352941,2,1,16,0.040646701,0.00218099,1,0,0,0.7151,rock_grid_rect_2,4,08,-1,-1,0.715,-0.106640625,-0.238715278,1,0,0,1.5776,Basalt_rect,2,1.578,0,15,0,15,0,1,,,,,,,,,,,,,
5b9b422307c6960001614c35,TCN,2024-06-25_12h40.05.560,LearnStrategy,2023.2.3,MacIntel,58.82352941,2,2,1,,,,,,,,3,06,,,,,,,,,,,3,3.241,1,,,,,,0.127148437,-0.23308015,1,0,0,3.2406,Diorite_rect,0,0,0,0,1,
5b9b422307c6960001614c35,TCN,2024-06-25_12h40.05.560,LearnStrategy,2023.2.3,MacIntel,58.82352941,2,2,2,,,,,,,,4,13,,,,,,,,,,,1,5.927,0,,,,,,-0.436559606,-0.266901765,1,0,0,5.9274,Andesite_rect,1,0,1,0,1,
5b9b422307c6960001614c35,TCN,2024-06-25_12h40.05.560,LearnStrategy,2023.2.3,MacIntel,58.82352941,2,2,3,,,,,,,,5,06,,,,,,,,,,,5,1.259,1,,,,,,-0.438982928,-0.411751302,1,0,0,1.2591,Obsidian_rect,2,0,2,0,1,
5b9b422307c6960001614c35,TCN,2024-06-25_12h40.05.560,LearnStrategy,2023.2.3,MacIntel,58.82352941,2,2,4,,,,,,,,1,11,,,,,,,,,,,3,4.624,0,,,,,,0.126356337,-0.235904948,1,0,0,4.6237,Diorite_rect,3,0,3,0,1,
5b9b422307c6960001614c35,TCN,2024-06-25_12h40.05.560,LearnStrategy,2023.2.3,MacIntel,58.82352941,2,2,5,,,,,,,,7,16,,,,,,,,,,,7,1.658,1,,,,,,0.120345052,-0.409447338,1,0,0,1.6582,Peridotite_rect,4,0,4,0,1,
5b9b422307c6960001614c35,TCN,2024-06-25_12h40.05.560,LearnStrategy,2023.2.3,MacIntel,58.82352941,2,2,6,,,,,,,,8,08,,,,,,,,,,,8,1.869,1,,,,,,0.340487558,-0.395225694,1,0,0,1.8685,Pumice_rect,5,0,5,0,1,
5b9b422307c6960001614c35,TCN,2024-06-25_12h40.05.560,LearnStrategy,2023.2.3,MacIntel,58.82352941,2,2,7,,,,,,,,1,05,,,,,,,,,,,1,2.814,1,,,,,,-0.314196325,-0.236892361,1,0,0,2.8142,Andesite_rect,6,0,6,0,1,
5b9b422307c6960001614c35,TCN,2024-06-25_12h40.05.560,LearnStrategy,2023.2.3,MacIntel,58.82352941,2,2,8,,,,,,,,7,08,,,,,,,,,,,7,1.513,1,,,,,,0.173271123,-0.409121817,1,0,0,1.5133,Peridotite_rect,7,0,7,0,1,
5b9b422307c6960001614c35,TCN,2024-06-25_12h40.05.560,LearnStrategy,2023.2.3,MacIntel,58.82352941,2,2,9,,,,,,,,4,05,,,,,,,,,,,4,3.007,1,,,,,,0.347316262,-0.254351128,1,0,0,3.0069,Gabbro_rect,8,0,8,0,1,
5b9b422307c6960001614c35,TCN,2024-06-25_12h40.05.560,LearnStrategy,2023.2.3,MacIntel,58.82352941,2,2,10,,,,,,,,8,04,,,,,,,,,,,8,1.093,1,,,,,,0.366471354,-0.405714699,1,0,0,1.093,Pumice_rect,9,0,9,0,1,
5b9b422307c6960001614c35,TCN,2024-06-25_12h40.05.560,LearnStrategy,2023.2.3,MacIntel,58.82352941,2,2,11,,,,,,,,5,11,,,,,,,,,,,5,1.345,1,,,,,,-0.425408709,-0.409566696,1,0,0,1.3453,Obsidian_rect,10,0,10,0,1,
5b9b422307c6960001614c35,TCN,2024-06-25_12h40.05.560,LearnStrategy,2023.2.3,MacIntel,58.82352941,2,2,12,,,,,,,,6,03,,,,,,,,,,,6,3.291,1,,,,,,-0.170775463,-0.394820602,1,0,0,3.2909,Pegmatite_rect,11,0,11,0,1,
5b9b422307c6960001614c35,TCN,2024-06-25_12h40.05.560,LearnStrategy,2023.2.3,MacIntel,58.82352941,2,2,13,,,,,,,,2,10,,,,,,,,,,,2,1.673,1,,,,,,-0.170978009,-0.239485677,1,0,0,1.6729,Basalt_rect,12,0,12,0,1,
5b9b422307c6960001614c35,TCN,2024-06-25_12h40.05.560,LearnStrategy,2023.2.3,MacIntel,58.82352941,2,2,14,,,,,,,,2,12,,,,,,,,,,,8,3.259,0,,,,,,0.390813079,-0.390693721,1,0,0,3.2589,Pumice_rect,13,0,13,0,1,
5b9b422307c6960001614c35,TCN,2024-06-25_12h40.05.560,LearnStrategy,2023.2.3,MacIntel,58.82352941,2,2,15,,,,,,,,3,16,,,,,,,,,,,3,1.458,1,,,,,,0.188657407,-0.251132089,1,0,0,1.4583,Diorite_rect,14,0,14,0,1,
5b9b422307c6960001614c35,TCN,2024-06-25_12h40.05.560,LearnStrategy,2023.2.3,MacIntel,58.82352941,2,2,16,,,,,,,,6,08,,,,,,,,,,,6,1.545,1,,,,,,-0.107805266,-0.395142506,1,0,0,1.5447,Pegmatite_rect,15,0,15,0,1,
5b9b422307c6960001614c35,TCN,2024-06-25_12h40.05.560,LearnStrategy,2023.2.3,MacIntel,58.82352941,3,1,1,-0.014746094,-0.003056279,1,0,0,3.0321,rock_grid_rect_2,7,07,-1,-1,3.032,0.111773003,-0.396972656,1,0,0,3.1902,Peridotite_rect,7,3.19,1,0,0,0,0,1,,,,,,,,,,,,,
5b9b422307c6960001614c35,TCN,2024-06-25_12h40.05.560,LearnStrategy,2023.2.3,MacIntel,58.82352941,3,1,2,-0.008467159,0.000499132,1,0,0,0.8977,rock_grid_rect_2,2,06,-1,-1,0.898,-0.095406539,-0.236469184,1,0,0,2.4108,Basalt_rect,2,2.411,1,1,0,1,0,1,,,,,,,,,,,,,
5b9b422307c6960001614c35,TCN,2024-06-25_12h40.05.560,LearnStrategy,2023.2.3,MacIntel,58.82352941,3,1,3,-0.0075557,-0.004741753,1,0,0,1.0474,rock_grid_rect_2,7,12,-1,-1,1.047,0.155660446,-0.390794994,1,0,0,2.1753,Peridotite_rect,7,2.175,1,2,0,2,0,1,,,,,,,,,,,,,
5b9b422307c6960001614c35,TCN,2024-06-25_12h40.05.560,LearnStrategy,2023.2.3,MacIntel,58.82352941,3,1,4,0.014930556,-0.006929977,1,0,0,0.8976,rock_grid_rect_2,1,04,-1,-1,0.898,0.344165943,-0.259989873,1,0,0,3.9962,Gabbro_rect,4,3.996,0,3,0,3,0,1,,,,,,,,,,,,,
5b9b422307c6960001614c35,TCN,2024-06-25_12h40.05.560,LearnStrategy,2023.2.3,MacIntel,58.82352941,3,1,5,0.018453414,0.00166739,1,0,0,0.8981,rock_grid_rect_2,2,01,-1,-1,0.898,-0.103580729,-0.245279948,1,0,0,1.6109,Basalt_rect,2,1.611,1,4,0,4,0,1,,,,,,,,,,,,,
5b9b422307c6960001614c35,TCN,2024-06-25_12h40.05.560,LearnStrategy,2023.2.3,MacIntel,58.82352941,3,1,6,0.115245226,-0.009639034,1,0,0,0.7821,rock_grid_rect_2,3,11,-1,-1,0.782,0.157787182,-0.257798032,1,0,0,2.1781,Diorite_rect,3,2.178,1,5,0,5,0,1,,,,,,,,,,,,,
5b9b422307c6960001614c35,TCN,2024-06-25_12h40.05.560,LearnStrategy,2023.2.3,MacIntel,58.82352941,3,1,7,0.014391638,-0.004257089,1,0,0,0.6824,rock_grid_rect_2,6,05,-1,-1,0.682,-0.07719184,-0.397070313,1,0,0,3.5807,Pegmatite_rect,6,3.581,1,6,0,6,0,1,,,,,,,,,,,,,
5b9b422307c6960001614c35,TCN,2024-06-25_12h40.05.560,LearnStrategy,2023.2.3,MacIntel,58.82352941,3,1,8,0.052936921,0.012655527,1,0,0,0.6791,rock_grid_rect_2,1,01,-1,-1,0.679,0.447826244,-0.262282986,1,0,0,3.4443,Gabbro_rect,4,3.444,0,7,0,7,0,1,,,,,,,,,,,,,
5b9b422307c6960001614c35,TCN,2024-06-25_12h40.05.560,LearnStrategy,2023.2.3,MacIntel,58.82352941,3,1,9,-0.028327546,0.016724537,1,0,0,0.7138,rock_grid_rect_2,4,09,-1,-1,0.714,0.367845775,-0.239322917,1,0,0,3.6468,Gabbro_rect,4,3.647,1,8,0,8,0,1,,,,,,,,,,,,,
5b9b422307c6960001614c35,TCN,2024-06-25_12h40.05.560,LearnStrategy,2023.2.3,MacIntel,58.82352941,3,1,10,-0.031210214,-0.01089048,1,0,0,0.7472,rock_grid_rect_2,8,14,-1,-1,0.747,0.374707031,-0.394961661,1,0,0,1.7101,Pumice_rect,8,1.71,1,9,0,9,0,1,,,,,,,,,,,,,
5b9b422307c6960001614c35,TCN,2024-06-25_12h40.05.560,LearnStrategy,2023.2.3,MacIntel,58.82352941,3,1,11,0.001775897,0.004416233,1,0,0,0.715,rock_grid_rect_2,4,12,-1,-1,0.715,-0.382939091,-0.261349826,1,0,0,2.927,Andesite_rect,1,2.927,0,10,0,10,0,1,,,,,,,,,,,,,
5b9b422307c6960001614c35,TCN,2024-06-25_12h40.05.560,LearnStrategy,2023.2.3,MacIntel,58.82352941,3,1,12,0.048238571,-0.0106807,1,0,0,0.8131,rock_grid_rect_2,5,14,-1,-1,0.813,-0.408311632,-0.419278067,1,0,0,1.2759,Obsidian_rect,5,1.276,1,11,0,11,0,1,,,,,,,,,,,,,
5b9b422307c6960001614c35,TCN,2024-06-25_12h40.05.560,LearnStrategy,2023.2.3,MacIntel,58.82352941,3,1,13,0.047120949,-0.000546152,1,0,0,0.6315,rock_grid_rect_2,8,16,-1,-1,0.632,0.428967737,-0.403938802,1,0,0,1.2617,Pumice_rect,8,1.262,1,12,0,12,0,1,,,,,,,,,,,,,
5b9b422307c6960001614c35,TCN,2024-06-25_12h40.05.560,LearnStrategy,2023.2.3,MacIntel,58.82352941,3,1,14,-0.011074942,-0.009809028,1,0,0,1.0315,rock_grid_rect_2,6,09,-1,-1,1.032,0.141171152,-0.410141782,1,0,0,1.5939,Peridotite_rect,7,1.594,0,13,0,13,0,1,,,,,,,,,,,,,
5b9b422307c6960001614c35,TCN,2024-06-25_12h40.05.560,LearnStrategy,2023.2.3,MacIntel,58.82352941,3,1,15,0.029904514,-0.00510706,1,0,0,0.732,rock_grid_rect_2,3,07,-1,-1,0.732,0.139601418,-0.250282118,1,0,0,1.6269,Diorite_rect,3,1.627,1,14,0,14,0,1,,,,,,,,,,,,,
5b9b422307c6960001614c35,TCN,2024-06-25_12h40.05.560,LearnStrategy,2023.2.3,MacIntel,58.82352941,3,1,16,0.066688368,-0.020388455,1,0,0,0.8656,rock_grid_rect_2,5,02,-1,-1,0.866,-0.376381655,-0.386367911,1,0,0,1.3446,Obsidian_rect,5,1.345,1,15,0,15,0,1,,,,,,,,,,,,,
5b9b422307c6960001614c35,TCN,2024-06-25_12h40.05.560,LearnStrategy,2023.2.3,MacIntel,58.82352941,3,2,1,,,,,,,,4,10,,,,,,,,,,,4,3.725,1,,,,,,0.349178964,-0.238064236,1,0,0,3.7248,Gabbro_rect,0,0,0,0,1,
5b9b422307c6960001614c35,TCN,2024-06-25_12h40.05.560,LearnStrategy,2023.2.3,MacIntel,58.82352941,3,2,2,,,,,,,,2,08,,,,,,,,,,,2,1.258,1,,,,,,-0.096006944,-0.242191117,1,0,0,1.2579,Basalt_rect,1,0,1,0,1,
5b9b422307c6960001614c35,TCN,2024-06-25_12h40.05.560,LearnStrategy,2023.2.3,MacIntel,58.82352941,3,2,3,,,,,,,,1,06,,,,,,,,,,,1,3.742,1,,,,,,-0.399761285,-0.233185041,1,0,0,3.7423,Andesite_rect,2,0,2,0,1,
5b9b422307c6960001614c35,TCN,2024-06-25_12h40.05.560,LearnStrategy,2023.2.3,MacIntel,58.82352941,3,2,4,,,,,,,,3,09,,,,,,,,,,,3,1.824,1,,,,,,0.117874711,-0.2283818,1,0,0,1.8241,Diorite_rect,3,0,3,0,1,
5b9b422307c6960001614c35,TCN,2024-06-25_12h40.05.560,LearnStrategy,2023.2.3,MacIntel,58.82352941,3,2,5,,,,,,,,7,14,,,,,,,,,,,7,2.65,1,,,,,,0.114926939,-0.421100984,1,0,0,2.6496,Peridotite_rect,4,0,4,0,1,
5b9b422307c6960001614c35,TCN,2024-06-25_12h40.05.560,LearnStrategy,2023.2.3,MacIntel,58.82352941,3,2,6,,,,,,,,3,13,,,,,,,,,,,3,2.714,1,,,,,,0.126587818,-0.23589048,1,0,0,2.7136,Diorite_rect,5,0,5,0,1,
5b9b422307c6960001614c35,TCN,2024-06-25_12h40.05.560,LearnStrategy,2023.2.3,MacIntel,58.82352941,3,2,7,,,,,,,,5,05,,,,,,,,,,,5,1.33,1,,,,,,-0.348506221,-0.417693866,1,0,0,1.3302,Obsidian_rect,6,0,6,0,1,
5b9b422307c6960001614c35,TCN,2024-06-25_12h40.05.560,LearnStrategy,2023.2.3,MacIntel,58.82352941,3,2,8,,,,,,,,8,03,,,,,,,,,,,8,1.34,1,,,,,,0.384092882,-0.40635489,1,0,0,1.3402,Pumice_rect,7,0,7,0,1,
5b9b422307c6960001614c35,TCN,2024-06-25_12h40.05.560,LearnStrategy,2023.2.3,MacIntel,58.82352941,3,2,9,,,,,,,,2,16,,,,,,,,,,,2,3.347,1,,,,,,-0.181199363,-0.250289352,1,0,0,3.3468,Basalt_rect,8,0,8,0,1,
5b9b422307c6960001614c35,TCN,2024-06-25_12h40.05.560,LearnStrategy,2023.2.3,MacIntel,58.82352941,3,2,10,,,,,,,,4,15,,,,,,,,,,,3,2.341,0,,,,,,0.143055556,-0.244599971,1,0,0,2.3412,Diorite_rect,9,0,9,0,1,
5b9b422307c6960001614c35,TCN,2024-06-25_12h40.05.560,LearnStrategy,2023.2.3,MacIntel,58.82352941,3,2,11,,,,,,,,7,15,,,,,,,,,,,7,1.197,1,,,,,,0.06916956,-0.403920718,1,0,0,1.1968,Peridotite_rect,10,0,10,0,1,
5b9b422307c6960001614c35,TCN,2024-06-25_12h40.05.560,LearnStrategy,2023.2.3,MacIntel,58.82352941,3,2,12,,,,,,,,5,09,,,,,,,,,,,5,1.111,1,,,,,,-0.383499711,-0.409233941,1,0,0,1.1108,Obsidian_rect,11,0,11,0,1,
5b9b422307c6960001614c35,TCN,2024-06-25_12h40.05.560,LearnStrategy,2023.2.3,MacIntel,58.82352941,3,2,13,,,,,,,,6,10,,,,,,,,,,,6,2.545,1,,,,,,-0.146846065,-0.401508247,1,0,0,2.5453,Pegmatite_rect,12,0,12,0,1,
5b9b422307c6960001614c35,TCN,2024-06-25_12h40.05.560,LearnStrategy,2023.2.3,MacIntel,58.82352941,3,2,14,,,,,,,,1,09,,,,,,,,,,,1,2.097,1,,,,,,-0.405685764,-0.247840712,1,0,0,2.097,Andesite_rect,13,0,13,0,1,
5b9b422307c6960001614c35,TCN,2024-06-25_12h40.05.560,LearnStrategy,2023.2.3,MacIntel,58.82352941,3,2,15,,,,,,,,6,15,,,,,,,,,,,6,1.773,1,,,,,,-0.190711806,-0.390140336,1,0,0,1.7734,Pegmatite_rect,14,0,14,0,1,
5b9b422307c6960001614c35,TCN,2024-06-25_12h40.05.560,LearnStrategy,2023.2.3,MacIntel,58.82352941,3,2,16,,,,,,,,8,05,,,,,,,,,,,8,1.299,1,,,,,,0.418731916,-0.405504919,1,0,0,1.2994,Pumice_rect,15,0,15,0,1,
5b9b422307c6960001614c35,TCN,2024-06-25_12h40.05.560,LearnStrategy,2023.2.3,MacIntel,58.82352941,4,1,1,-0.044697627,-0.018243634,1,0,0,1.3484,rock_grid_rect_2,7,12,-1,-1,1.348,0.13499349,-0.384606481,1,0,0,2.11,Peridotite_rect,7,2.11,1,0,0,0,0,1,,,,,,,,,,,,,
5b9b422307c6960001614c35,TCN,2024-06-25_12h40.05.560,LearnStrategy,2023.2.3,MacIntel,58.82352941,4,1,2,0.026482928,0.00474537,1,0,0,1.6813,rock_grid_rect_2,3,08,-1,-1,1.681,0.084364149,-0.234375,1,0,0,1.41,Diorite_rect,3,1.41,1,1,0,1,0,1,,,,,,,,,,,,,
5b9b422307c6960001614c35,TCN,2024-06-25_12h40.05.560,LearnStrategy,2023.2.3,MacIntel,58.82352941,4,1,3,0.024110243,-0.000969329,1,0,0,0.7987,rock_grid_rect_2,5,16,-1,-1,0.799,-0.38870081,-0.418608941,1,0,0,1.2265,Obsidian_rect,5,1.226,1,2,0,2,0,1,,,,,,,,,,,,,
5b9b422307c6960001614c35,TCN,2024-06-25_12h40.05.560,LearnStrategy,2023.2.3,MacIntel,58.82352941,4,1,4,0.013943142,-0.01391059,1,0,0,0.9664,rock_grid_rect_2,1,03,-1,-1,0.966,-0.339196325,-0.237579572,1,0,0,1.6922,Andesite_rect,1,1.692,1,3,0,3,0,1,,,,,,,,,,,,,
5b9b422307c6960001614c35,TCN,2024-06-25_12h40.05.560,LearnStrategy,2023.2.3,MacIntel,58.82352941,4,1,5,0.005168547,-0.022851562,1,0,0,0.8809,rock_grid_rect_2,8,09,-1,-1,0.881,0.373893229,-0.395073785,1,0,0,2.0264,Pumice_rect,8,2.026,1,4,0,4,0,1,,,,,,,,,,,,,
5b9b422307c6960001614c35,TCN,2024-06-25_12h40.05.560,LearnStrategy,2023.2.3,MacIntel,58.82352941,4,1,6,0.020319734,-0.019813368,1,0,0,0.9821,rock_grid_rect_2,2,01,-1,-1,0.982,-0.136197917,-0.251482928,1,0,0,1.0278,Basalt_rect,2,1.028,1,5,0,5,0,1,,,,,,,,,,,,,
5b9b422307c6960001614c35,TCN,2024-06-25_12h40.05.560,LearnStrategy,2023.2.3,MacIntel,58.82352941,4,1,7,0.02744864,-0.017617911,1,0,0,0.7326,rock_grid_rect_2,4,08,-1,-1,0.733,0.435141782,-0.235662616,1,0,0,1.1592,Gabbro_rect,4,1.159,1,6,0,6,0,1,,,,,,,,,,,,,
5b9b422307c6960001614c35,TCN,2024-06-25_12h40.05.560,LearnStrategy,2023.2.3,MacIntel,58.82352941,4,1,8,0.02223669,-0.001016348,1,0,0,0.7983,rock_grid_rect_2,3,02,-1,-1,0.798,0.129210069,-0.233445457,1,0,0,1.164,Diorite_rect,3,1.164,1,7,0,7,0,1,,,,,,,,,,,,,
5b9b422307c6960001614c35,TCN,2024-06-25_12h40.05.560,LearnStrategy,2023.2.3,MacIntel,58.82352941,4,1,9,0.017089844,0.008123553,1,0,0,0.8983,rock_grid_rect_2,6,06,-1,-1,0.898,-0.115433304,-0.40078125,1,0,0,1.2943,Pegmatite_rect,6,1.294,1,8,0,8,0,1,,,,,,,,,,,,,
5b9b422307c6960001614c35,TCN,2024-06-25_12h40.05.560,LearnStrategy,2023.2.3,MacIntel,58.82352941,4,1,10,0.007201244,-0.004286024,1,0,0,0.6325,rock_grid_rect_2,5,04,-1,-1,0.633,-0.465212674,-0.407881221,1,0,0,1.0775,Obsidian_rect,5,1.077,1,9,0,9,0,1,,,,,,,,,,,,,
5b9b422307c6960001614c35,TCN,2024-06-25_12h40.05.560,LearnStrategy,2023.2.3,MacIntel,58.82352941,4,1,11,-0.020645255,-0.005805122,1,0,0,0.8982,rock_grid_rect_2,1,04,-1,-1,0.898,-0.429061777,-0.251652922,1,0,0,2.2758,Andesite_rect,1,2.276,1,10,0,10,0,1,,,,,,,,,,,,,
5b9b422307c6960001614c35,TCN,2024-06-25_12h40.05.560,LearnStrategy,2023.2.3,MacIntel,58.82352941,4,1,12,0.01270978,-0.006257234,1,0,0,0.7132,rock_grid_rect_2,6,16,-1,-1,0.713,-0.114246962,-0.419487847,1,0,0,1.6257,Pegmatite_rect,6,1.626,1,11,0,11,0,1,,,,,,,,,,,,,
5b9b422307c6960001614c35,TCN,2024-06-25_12h40.05.560,LearnStrategy,2023.2.3,MacIntel,58.82352941,4,1,13,0.06932147,0.016214554,1,0,0,0.765,rock_grid_rect_2,2,02,-1,-1,0.765,-0.127213542,-0.236827257,1,0,0,1.1937,Basalt_rect,2,1.194,1,12,0,12,0,1,,,,,,,,,,,,,
5b9b422307c6960001614c35,TCN,2024-06-25_12h40.05.560,LearnStrategy,2023.2.3,MacIntel,58.82352941,4,1,14,-0.018500434,-0.002376302,1,0,0,0.8652,rock_grid_rect_2,4,09,-1,-1,0.865,0.380859375,-0.24469401,1,0,0,1.877,Gabbro_rect,4,1.877,1,13,0,13,0,1,,,,,,,,,,,,,
5b9b422307c6960001614c35,TCN,2024-06-25_12h40.05.560,LearnStrategy,2023.2.3,MacIntel,58.82352941,4,1,15,-0.022869647,-0.012127459,1,0,0,0.8318,rock_grid_rect_2,8,14,-1,-1,0.832,0.392462384,-0.397247541,1,0,0,1.1778,Pumice_rect,8,1.178,1,14,0,14,0,1,,,,,,,,,,,,,
5b9b422307c6960001614c35,TCN,2024-06-25_12h40.05.560,LearnStrategy,2023.2.3,MacIntel,58.82352941,4,1,16,-0.006579138,-0.008394821,1,0,0,0.6808,rock_grid_rect_2,7,13,-1,-1,0.681,0.157146991,-0.415733507,1,0,0,1.243,Peridotite_rect,7,1.243,1,15,0,15,0,1,,,,,,,,,,,,,
5b9b422307c6960001614c35,TCN,2024-06-25_12h40.05.560,LearnStrategy,2023.2.3,MacIntel,58.82352941,4,2,1,,,,,,,,5,12,,,,,,,,,,,5,1.045,1,,,,,,-0.361942998,-0.385199653,1,0,0,1.0455,Obsidian_rect,0,0,0,0,1,
5b9b422307c6960001614c35,TCN,2024-06-25_12h40.05.560,LearnStrategy,2023.2.3,MacIntel,58.82352941,4,2,2,,,,,,,,4,10,,,,,,,,,,,4,3.107,1,,,,,,0.385828993,-0.253457755,1,0,0,3.1075,Gabbro_rect,1,0,1,0,1,
5b9b422307c6960001614c35,TCN,2024-06-25_12h40.05.560,LearnStrategy,2023.2.3,MacIntel,58.82352941,4,2,3,,,,,,,,2,05,,,,,,,,,,,2,1.082,1,,,,,,-0.10931713,-0.243171296,1,0,0,1.0825,Basalt_rect,2,0,2,0,1,
5b9b422307c6960001614c35,TCN,2024-06-25_12h40.05.560,LearnStrategy,2023.2.3,MacIntel,58.82352941,4,2,4,,,,,,,,1,10,,,,,,,,,,,1,1.514,1,,,,,,-0.364091435,-0.247681568,1,0,0,1.5142,Andesite_rect,3,0,3,0,1,
5b9b422307c6960001614c35,TCN,2024-06-25_12h40.05.560,LearnStrategy,2023.2.3,MacIntel,58.82352941,4,2,5,,,,,,,,8,05,,,,,,,,,,,8,1.008,1,,,,,,0.361932147,-0.393098958,1,0,0,1.0077,Pumice_rect,4,0,4,0,1,
5b9b422307c6960001614c35,TCN,2024-06-25_12h40.05.560,LearnStrategy,2023.2.3,MacIntel,58.82352941,4,2,6,,,,,,,,7,04,,,,,,,,,,,7,6.231,1,,,,,,0.113946759,-0.408333333,1,0,0,6.2306,Peridotite_rect,5,0,5,0,1,
5b9b422307c6960001614c35,TCN,2024-06-25_12h40.05.560,LearnStrategy,2023.2.3,MacIntel,58.82352941,4,2,7,,,,,,,,4,03,,,,,,,,,,,1,4.51,0,,,,,,-0.397269242,-0.24156901,1,0,0,4.5099,Andesite_rect,6,0,6,0,1,
5b9b422307c6960001614c35,TCN,2024-06-25_12h40.05.560,LearnStrategy,2023.2.3,MacIntel,58.82352941,4,2,8,,,,,,,,5,11,,,,,,,,,,,5,1.998,1,,,,,,-0.388982928,-0.402155671,1,0,0,1.9981,Obsidian_rect,7,0,7,0,1,
5b9b422307c6960001614c35,TCN,2024-06-25_12h40.05.560,LearnStrategy,2023.2.3,MacIntel,58.82352941,4,2,9,,,,,,,,1,05,,,,,,,,,,,1,3.051,1,,,,,,-0.376099537,-0.259472656,1,0,0,3.0512,Andesite_rect,8,0,8,0,1,
5b9b422307c6960001614c35,TCN,2024-06-25_12h40.05.560,LearnStrategy,2023.2.3,MacIntel,58.82352941,4,2,10,,,,,,,,3,15,,,,,,,,,,,3,2.299,1,,,,,,0.126135706,-0.269162326,1,0,0,2.2987,Diorite_rect,9,0,9,0,1,
5b9b422307c6960001614c35,TCN,2024-06-25_12h40.05.560,LearnStrategy,2023.2.3,MacIntel,58.82352941,4,2,11,,,,,,,,6,08,,,,,,,,,,,6,1.029,1,,,,,,-0.149269387,-0.396357784,1,0,0,1.0285,Pegmatite_rect,10,0,10,0,1,
5b9b422307c6960001614c35,TCN,2024-06-25_12h40.05.560,LearnStrategy,2023.2.3,MacIntel,58.82352941,4,2,12,,,,,,,,8,13,,,,,,,,,,,8,2.106,1,,,,,,0.426544416,-0.382671441,1,0,0,2.1058,Pumice_rect,11,0,11,0,1,
5b9b422307c6960001614c35,TCN,2024-06-25_12h40.05.560,LearnStrategy,2023.2.3,MacIntel,58.82352941,4,2,13,,,,,,,,3,09,,,,,,,,,,,3,1.607,1,,,,,,0.1846318,-0.237377025,1,0,0,1.6067,Diorite_rect,12,0,12,0,1,
5b9b422307c6960001614c35,TCN,2024-06-25_12h40.05.560,LearnStrategy,2023.2.3,MacIntel,58.82352941,4,2,14,,,,,,,,2,12,,,,,,,,,,,8,3.814,0,,,,,,0.379329427,-0.385944734,1,0,0,3.814,Pumice_rect,13,0,13,0,1,
5b9b422307c6960001614c35,TCN,2024-06-25_12h40.05.560,LearnStrategy,2023.2.3,MacIntel,58.82352941,4,2,15,,,,,,,,6,11,,,,,,,,,,,6,2.532,1,,,,,,-0.083644387,-0.397645399,1,0,0,2.5317,Pegmatite_rect,14,0,14,0,1,
5b9b422307c6960001614c35,TCN,2024-06-25_12h40.05.560,LearnStrategy,2023.2.3,MacIntel,58.82352941,4,2,16,,,,,,,,7,06,,,,,,,,,,,7,1.348,1,,,,,,0.126009115,-0.414677373,1,0,0,1.3483,Peridotite_rect,15,0,15,0,1,
5b9b422307c6960001614c35,TCN,2024-06-25_12h40.05.560,LearnStrategy,2023.2.3,MacIntel,58.82352941,5,1,1,0.053562645,-0.002275029,1,0,0,1.0161,rock_grid_rect_2,7,10,-1,-1,1.016,0.142209201,-0.415371817,1,0,0,1.6087,Peridotite_rect,7,1.609,1,0,0,0,0,1,,,,,,,,,,,,,
5b9b422307c6960001614c35,TCN,2024-06-25_12h40.05.560,LearnStrategy,2023.2.3,MacIntel,58.82352941,5,1,2,0.114605035,-0.001692708,1,0,0,1.166,rock_grid_rect_2,1,02,-1,-1,1.166,-0.39457827,-0.24104456,1,0,0,2.4273,Andesite_rect,1,2.427,1,1,0,1,0,1,,,,,,,,,,,,,
5b9b422307c6960001614c35,TCN,2024-06-25_12h40.05.560,LearnStrategy,2023.2.3,MacIntel,58.82352941,5,1,3,-0.038646557,-0.005747251,1,0,0,0.7979,rock_grid_rect_2,4,14,-1,-1,0.798,0.360716869,-0.247840712,1,0,0,1.5274,Gabbro_rect,4,1.527,1,2,0,2,0,1,,,,,,,,,,,,,
5b9b422307c6960001614c35,TCN,2024-06-25_12h40.05.560,LearnStrategy,2023.2.3,MacIntel,58.82352941,5,1,4,-0.036389612,0.004716435,1,0,0,0.6324,rock_grid_rect_2,7,02,-1,-1,0.632,0.1479239,-0.408608218,1,0,0,1.0943,Peridotite_rect,7,1.094,1,3,0,3,0,1,,,,,,,,,,,,,
5b9b422307c6960001614c35,TCN,2024-06-25_12h40.05.560,LearnStrategy,2023.2.3,MacIntel,58.82352941,5,1,5,-0.009610098,-0.005486834,1,0,0,0.7648,rock_grid_rect_2,4,11,-1,-1,0.765,-0.098853443,-0.260933883,1,0,0,4.5283,Basalt_rect,2,4.528,0,4,0,4,0,1,,,,,,,,,,,,,
5b9b422307c6960001614c35,TCN,2024-06-25_12h40.05.560,LearnStrategy,2023.2.3,MacIntel,58.82352941,5,1,6,-0.012905093,0.017071759,1,0,0,0.665,rock_grid_rect_2,2,14,-1,-1,0.665,0.40947989,-0.420605469,1,0,0,1.4278,Pumice_rect,8,1.428,0,5,0,5,0,1,,,,,,,,,,,,,
5b9b422307c6960001614c35,TCN,2024-06-25_12h40.05.560,LearnStrategy,2023.2.3,MacIntel,58.82352941,5,1,7,0.013628472,0.002687355,1,0,0,0.7152,rock_grid_rect_2,5,07,-1,-1,0.715,-0.355902778,-0.402875434,1,0,0,1.927,Obsidian_rect,5,1.927,1,6,0,6,0,1,,,,,,,,,,,,,
5b9b422307c6960001614c35,TCN,2024-06-25_12h40.05.560,LearnStrategy,2023.2.3,MacIntel,58.82352941,5,1,8,0.055942564,0.000509983,1,0,0,0.6474,rock_grid_rect_2,8,06,-1,-1,0.647,0.404669416,-0.410489005,1,0,0,1.011,Pumice_rect,8,1.011,1,7,0,7,0,1,,,,,,,,,,,,,
5b9b422307c6960001614c35,TCN,2024-06-25_12h40.05.560,LearnStrategy,2023.2.3,MacIntel,58.82352941,5,1,9,0.03610026,-0.001030816,1,0,0,0.7488,rock_grid_rect_2,6,07,-1,-1,0.749,-0.108228443,-0.392031973,1,0,0,1.1934,Pegmatite_rect,6,1.193,1,8,0,8,0,1,,,,,,,,,,,,,
5b9b422307c6960001614c35,TCN,2024-06-25_12h40.05.560,LearnStrategy,2023.2.3,MacIntel,58.82352941,5,1,10,0.008561198,-0.018825955,1,0,0,0.8153,rock_grid_rect_2,5,14,-1,-1,0.815,-0.388751447,-0.401298466,1,0,0,1.1797,Obsidian_rect,5,1.18,1,9,0,9,0,1,,,,,,,,,,,,,
5b9b422307c6960001614c35,TCN,2024-06-25_12h40.05.560,LearnStrategy,2023.2.3,MacIntel,58.82352941,5,1,11,-0.019307002,-0.013462095,1,0,0,0.6151,rock_grid_rect_2,6,05,-1,-1,0.615,-0.115596065,-0.393739149,1,0,0,1.2941,Pegmatite_rect,6,1.294,1,10,0,10,0,1,,,,,,,,,,,,,
5b9b422307c6960001614c35,TCN,2024-06-25_12h40.05.560,LearnStrategy,2023.2.3,MacIntel,58.82352941,5,1,12,0.014431424,0.012829138,1,0,0,1.0148,rock_grid_rect_2,3,11,-1,-1,1.015,0.182689525,-0.242614294,1,0,0,2.0269,Diorite_rect,3,2.027,1,11,0,11,0,1,,,,,,,,,,,,,
5b9b422307c6960001614c35,TCN,2024-06-25_12h40.05.560,LearnStrategy,2023.2.3,MacIntel,58.82352941,5,1,13,0.041362847,-0.004615162,1,0,0,0.7652,rock_grid_rect_2,2,06,-1,-1,0.765,-0.107407407,-0.265035446,1,0,0,1.0111,Basalt_rect,2,1.011,1,12,0,12,0,1,,,,,,,,,,,,,
5b9b422307c6960001614c35,TCN,2024-06-25_12h40.05.560,LearnStrategy,2023.2.3,MacIntel,58.82352941,5,1,14,0.036501736,0.007957176,1,0,0,0.7161,rock_grid_rect_2,8,16,-1,-1,0.716,0.441283275,-0.406076389,1,0,0,1.2438,Pumice_rect,8,1.244,1,13,0,13,0,1,,,,,,,,,,,,,
5b9b422307c6960001614c35,TCN,2024-06-25_12h40.05.560,LearnStrategy,2023.2.3,MacIntel,58.82352941,5,1,15,-0.002651186,-0.023737703,1,0,0,0.5993,rock_grid_rect_2,1,01,-1,-1,0.599,0.177893519,-0.232530382,1,0,0,1.5644,Diorite_rect,3,1.564,0,14,0,14,0,1,,,,,,,,,,,,,
5b9b422307c6960001614c35,TCN,2024-06-25_12h40.05.560,LearnStrategy,2023.2.3,MacIntel,58.82352941,5,1,16,0.014048032,0.006499566,1,0,0,0.6818,rock_grid_rect_2,3,07,-1,-1,0.682,0.169487847,-0.249793837,1,0,0,1.1964,Diorite_rect,3,1.196,1,15,0,15,0,1,,,,,,,,,,,,,
5b9b422307c6960001614c35,TCN,2024-06-25_12h40.05.560,LearnStrategy,2023.2.3,MacIntel,58.82352941,5,2,1,,,,,,,,8,08,,,,,,,,,,,8,2.541,1,,,,,,0.389930556,-0.410188802,1,0,0,2.5408,Pumice_rect,0,0,0,0,1,
5b9b422307c6960001614c35,TCN,2024-06-25_12h40.05.560,LearnStrategy,2023.2.3,MacIntel,58.82352941,5,2,2,,,,,,,,3,13,,,,,,,,,,,3,1.442,1,,,,,,0.119809751,-0.246947338,1,0,0,1.4416,Diorite_rect,1,0,1,0,1,
5b9b422307c6960001614c35,TCN,2024-06-25_12h40.05.560,LearnStrategy,2023.2.3,MacIntel,58.82352941,5,2,3,,,,,,,,6,10,,,,,,,,,,,6,2.541,1,,,,,,-0.099858941,-0.386541522,1,0,0,2.5409,Pegmatite_rect,2,0,2,0,1,
5b9b422307c6960001614c35,TCN,2024-06-25_12h40.05.560,LearnStrategy,2023.2.3,MacIntel,58.82352941,5,2,4,,,,,,,,5,06,,,,,,,,,,,5,1.084,1,,,,,,-0.424623843,-0.3901114,1,0,0,1.0835,Obsidian_rect,3,0,3,0,1,
5b9b422307c6960001614c35,TCN,2024-06-25_12h40.05.560,LearnStrategy,2023.2.3,MacIntel,58.82352941,5,2,5,,,,,,,,2,08,,,,,,,,,,,2,1.157,1,,,,,,-0.087503617,-0.262011719,1,0,0,1.1571,Basalt_rect,4,0,4,0,1,
5b9b422307c6960001614c35,TCN,2024-06-25_12h40.05.560,LearnStrategy,2023.2.3,MacIntel,58.82352941,5,2,6,,,,,,,,4,05,,,,,,,,,,,4,1.579,1,,,,,,0.386082176,-0.233926505,1,0,0,1.5791,Gabbro_rect,5,0,5,0,1,
5b9b422307c6960001614c35,TCN,2024-06-25_12h40.05.560,LearnStrategy,2023.2.3,MacIntel,58.82352941,5,2,7,,,,,,,,2,16,,,,,,,,,,,2,2.425,1,,,,,,-0.159913918,-0.245728443,1,0,0,2.425,Basalt_rect,6,0,6,0,1,
5b9b422307c6960001614c35,TCN,2024-06-25_12h40.05.560,LearnStrategy,2023.2.3,MacIntel,58.82352941,5,2,8,,,,,,,,4,15,,,,,,,,,,,1,2.866,0,,,,,,-0.384371383,-0.261161748,1,0,0,2.8664,Andesite_rect,7,0,7,0,1,
5b9b422307c6960001614c35,TCN,2024-06-25_12h40.05.560,LearnStrategy,2023.2.3,MacIntel,58.82352941,5,2,9,,,,,,,,6,03,,,,,,,,,,,6,2.765,1,,,,,,-0.131987847,-0.403399884,1,0,0,2.7646,Pegmatite_rect,8,0,8,0,1,
5b9b422307c6960001614c35,TCN,2024-06-25_12h40.05.560,LearnStrategy,2023.2.3,MacIntel,58.82352941,5,2,10,,,,,,,,1,07,,,,,,,,,,,3,3.608,0,,,,,,0.108872251,-0.234335214,1,0,0,3.6083,Diorite_rect,9,0,9,0,1,
5b9b422307c6960001614c35,TCN,2024-06-25_12h40.05.560,LearnStrategy,2023.2.3,MacIntel,58.82352941,5,2,11,,,,,,,,8,04,,,,,,,,,,,8,1.064,1,,,,,,0.462178096,-0.415950521,1,0,0,1.0637,Pumice_rect,10,0,10,0,1,
5b9b422307c6960001614c35,TCN,2024-06-25_12h40.05.560,LearnStrategy,2023.2.3,MacIntel,58.82352941,5,2,12,,,,,,,,5,09,,,,,,,,,,,5,1.157,1,,,,,,-0.383836082,-0.411125579,1,0,0,1.1573,Obsidian_rect,11,0,11,0,1,
5b9b422307c6960001614c35,TCN,2024-06-25_12h40.05.560,LearnStrategy,2023.2.3,MacIntel,58.82352941,5,2,13,,,,,,,,1,06,,,,,,,,,,,1,1.856,1,,,,,,-0.423151765,-0.238545284,1,0,0,1.8565,Andesite_rect,12,0,12,0,1,
5b9b422307c6960001614c35,TCN,2024-06-25_12h40.05.560,LearnStrategy,2023.2.3,MacIntel,58.82352941,5,2,14,,,,,,,,7,08,,,,,,,,,,,7,1.524,1,,,,,,0.152983941,-0.392010272,1,0,0,1.5236,Peridotite_rect,13,0,13,0,1,
5b9b422307c6960001614c35,TCN,2024-06-25_12h40.05.560,LearnStrategy,2023.2.3,MacIntel,58.82352941,5,2,15,,,,,,,,7,16,,,,,,,,,,,4,4.664,0,,,,,,0.409563079,-0.235026042,1,0,0,4.6642,Gabbro_rect,14,0,14,0,1,
5b9b422307c6960001614c35,TCN,2024-06-25_12h40.05.560,LearnStrategy,2023.2.3,MacIntel,58.82352941,5,2,16,,,,,,,,3,16,,,,,,,,,,,1,2.948,0,,,,,,-0.365198206,-0.252340133,1,0,0,2.9476,Andesite_rect,15,0,15,0,1,
5b9b422307c6960001614c35,TCN,2024-06-25_12h40.05.560,LearnStrategy,2023.2.3,MacIntel,58.82352941,6,1,1,0.076707176,-0.017621528,1,0,0,1.3797,rock_grid_rect_2,4,16,-1,-1,1.38,-0.080689381,-0.246383102,1,0,0,4.8782,Basalt_rect,2,4.878,0,0,0,0,0,1,,,,,,,,,,,,,
5b9b422307c6960001614c35,TCN,2024-06-25_12h40.05.560,LearnStrategy,2023.2.3,MacIntel,58.82352941,6,1,2,0.007382089,-0.002531829,1,0,0,1.1979,rock_grid_rect_2,7,07,-1,-1,1.198,0.126110388,-0.385814525,1,0,0,1.2641,Peridotite_rect,7,1.264,1,1,0,1,0,1,,,,,,,,,,,,,
5b9b422307c6960001614c35,TCN,2024-06-25_12h40.05.560,LearnStrategy,2023.2.3,MacIntel,58.82352941,6,1,3,0.078327546,-0.002546296,1,0,0,1.0147,rock_grid_rect_2,3,14,-1,-1,1.015,0.126540799,-0.247732205,1,0,0,1.8641,Diorite_rect,3,1.864,1,2,0,2,0,1,,,,,,,,,,,,,
5b9b422307c6960001614c35,TCN,2024-06-25_12h40.05.560,LearnStrategy,2023.2.3,MacIntel,58.82352941,6,1,4,-0.008517795,0.003530093,1,0,0,0.7817,rock_grid_rect_2,5,08,-1,-1,0.782,-0.3682364,-0.407675058,1,0,0,1.0139,Obsidian_rect,5,1.014,1,3,0,3,0,1,,,,,,,,,,,,,
5b9b422307c6960001614c35,TCN,2024-06-25_12h40.05.560,LearnStrategy,2023.2.3,MacIntel,58.82352941,6,1,5,0.036801939,0.013292101,1,0,0,0.7148,rock_grid_rect_2,6,09,-1,-1,0.715,-0.103729022,-0.419842303,1,0,0,1.9093,Pegmatite_rect,6,1.909,1,4,0,4,0,1,,,,,,,,,,,,,
5b9b422307c6960001614c35,TCN,2024-06-25_12h40.05.560,LearnStrategy,2023.2.3,MacIntel,58.82352941,6,1,6,-0.039453125,-0.007599103,1,0,0,0.6652,rock_grid_rect_2,4,12,-1,-1,0.665,-0.348010706,-0.246603733,1,0,0,2.4442,Andesite_rect,1,2.444,0,5,0,5,0,1,,,,,,,,,,,,,
5b9b422307c6960001614c35,TCN,2024-06-25_12h40.05.560,LearnStrategy,2023.2.3,MacIntel,58.82352941,6,1,7,-0.040530961,-0.012481916,1,0,0,0.7152,rock_grid_rect_2,6,13,-1,-1,0.715,-0.140523727,-0.416380932,1,0,0,1.9778,Pegmatite_rect,6,1.978,1,6,0,6,0,1,,,,,,,,,,,,,
5b9b422307c6960001614c35,TCN,2024-06-25_12h40.05.560,LearnStrategy,2023.2.3,MacIntel,58.82352941,6,1,8,-0.06786386,0.002018229,1,0,0,0.6498,rock_grid_rect_2,1,14,-1,-1,0.65,-0.098578559,-0.384273727,1,0,0,1.8944,Pegmatite_rect,6,1.894,0,7,0,7,0,1,,,,,,,,,,,,,
5b9b422307c6960001614c35,TCN,2024-06-25_12h40.05.560,LearnStrategy,2023.2.3,MacIntel,58.82352941,6,1,9,-0.028316696,0.023394097,1,0,0,0.6816,rock_grid_rect_2,5,02,-1,-1,0.682,-0.31312934,-0.390458623,1,0,0,1.0276,Obsidian_rect,5,1.028,1,8,0,8,0,1,,,,,,,,,,,,,
5b9b422307c6960001614c35,TCN,2024-06-25_12h40.05.560,LearnStrategy,2023.2.3,MacIntel,58.82352941,6,1,10,-0.037995515,0.001743345,1,0,0,0.8473,rock_grid_rect_2,2,04,-1,-1,0.847,-0.118319589,-0.257002315,1,0,0,1.1778,Basalt_rect,2,1.178,1,9,0,9,0,1,,,,,,,,,,,,,
5b9b422307c6960001614c35,TCN,2024-06-25_12h40.05.560,LearnStrategy,2023.2.3,MacIntel,58.82352941,6,1,11,-0.064467593,-0.020641638,1,0,0,0.816,rock_grid_rect_2,8,15,-1,-1,0.816,0.344303385,-0.385977286,1,0,0,1.6287,Pumice_rect,8,1.629,1,10,0,10,0,1,,,,,,,,,,,,,
5b9b422307c6960001614c35,TCN,2024-06-25_12h40.05.560,LearnStrategy,2023.2.3,MacIntel,58.82352941,6,1,12,-0.046697772,-0.00343967,1,0,0,0.7651,rock_grid_rect_2,8,02,-1,-1,0.765,0.404669416,-0.414456742,1,0,0,1.3911,Pumice_rect,8,1.391,1,11,0,11,0,1,,,,,,,,,,,,,
5b9b422307c6960001614c35,TCN,2024-06-25_12h40.05.560,LearnStrategy,2023.2.3,MacIntel,58.82352941,6,1,13,-0.015650318,-0.005117911,1,0,0,0.7153,rock_grid_rect_2,7,05,-1,-1,0.715,0.164348235,-0.420797164,1,0,0,1.4789,Peridotite_rect,7,1.479,1,12,0,12,0,1,,,,,,,,,,,,,
5b9b422307c6960001614c35,TCN,2024-06-25_12h40.05.560,LearnStrategy,2023.2.3,MacIntel,58.82352941,6,1,14,-0.023249421,0.001157407,1,0,0,0.7984,rock_grid_rect_2,2,11,-1,-1,0.798,-0.39516059,-0.260420284,1,0,0,2.5119,Andesite_rect,1,2.512,0,13,0,13,0,1,,,,,,,,,,,,,
5b9b422307c6960001614c35,TCN,2024-06-25_12h40.05.560,LearnStrategy,2023.2.3,MacIntel,58.82352941,6,1,15,-0.076533565,0.000745081,1,0,0,0.6654,rock_grid_rect_2,1,16,-1,-1,0.665,0.106814236,-0.235561343,1,0,0,1.9777,Diorite_rect,3,1.978,0,14,0,14,0,1,,,,,,,,,,,,,
5b9b422307c6960001614c35,TCN,2024-06-25_12h40.05.560,LearnStrategy,2023.2.3,MacIntel,58.82352941,6,1,16,-0.04146412,0.004065394,1,0,0,0.6478,rock_grid_rect_2,3,10,-1,-1,0.648,-0.363935909,-0.245225694,1,0,0,3.3129,Andesite_rect,1,3.313,0,15,0,15,0,1,,,,,,,,,,,,,
5b9b422307c6960001614c35,TCN,2024-06-25_12h40.05.560,LearnStrategy,2023.2.3,MacIntel,58.82352941,6,2,1,,,,,,,,5,10,,,,,,,,,,,5,1.023,1,,,,,,-0.430953414,-0.392588976,1,0,0,1.0229,Obsidian_rect,0,0,0,0,1,
5b9b422307c6960001614c35,TCN,2024-06-25_12h40.05.560,LearnStrategy,2023.2.3,MacIntel,58.82352941,6,2,2,,,,,,,,1,09,,,,,,,,,,,1,2.314,1,,,,,,-0.406358507,-0.253841146,1,0,0,2.3141,Andesite_rect,1,0,1,0,1,
5b9b422307c6960001614c35,TCN,2024-06-25_12h40.05.560,LearnStrategy,2023.2.3,MacIntel,58.82352941,6,2,3,,,,,,,,5,05,,,,,,,,,,,5,1.061,1,,,,,,-0.378114149,-0.413519965,1,0,0,1.0605,Obsidian_rect,2,0,2,0,1,
5b9b422307c6960001614c35,TCN,2024-06-25_12h40.05.560,LearnStrategy,2023.2.3,MacIntel,58.82352941,6,2,4,,,,,,,,2,10,,,,,,,,,,,2,2.373,1,,,,,,-0.112221499,-0.242813223,1,0,0,2.3733,Basalt_rect,3,0,3,0,1,
5b9b422307c6960001614c35,TCN,2024-06-25_12h40.05.560,LearnStrategy,2023.2.3,MacIntel,58.82352941,6,2,5,,,,,,,,6,12,,,,,,,,,,,3,4.393,0,,,,,,0.140686487,-0.271925637,1,0,0,4.3929,Diorite_rect,4,0,4,0,1,
5b9b422307c6960001614c35,TCN,2024-06-25_12h40.05.560,LearnStrategy,2023.2.3,MacIntel,58.82352941,6,2,6,,,,,,,,4,13,,,,,,,,,,,4,2.633,1,,,,,,0.317737269,-0.262807436,1,0,0,2.6332,Gabbro_rect,5,0,5,0,1,
5b9b422307c6960001614c35,TCN,2024-06-25_12h40.05.560,LearnStrategy,2023.2.3,MacIntel,58.82352941,6,2,7,,,,,,,,2,09,,,,,,,,,,,2,1.235,1,,,,,,-0.155005787,-0.253045428,1,0,0,1.2352,Basalt_rect,6,0,6,0,1,
5b9b422307c6960001614c35,TCN,2024-06-25_12h40.05.560,LearnStrategy,2023.2.3,MacIntel,58.82352941,6,2,8,,,,,,,,3,12,,,,,,,,,,,3,2.847,1,,,,,,0.085796441,-0.236552373,1,0,0,2.8474,Diorite_rect,7,0,7,0,1,
5b9b422307c6960001614c35,TCN,2024-06-25_12h40.05.560,LearnStrategy,2023.2.3,MacIntel,58.82352941,6,2,9,,,,,,,,7,14,,,,,,,,,,,7,2.51,1,,,,,,0.112366175,-0.407570168,1,0,0,2.5096,Peridotite_rect,8,0,8,0,1,
5b9b422307c6960001614c35,TCN,2024-06-25_12h40.05.560,LearnStrategy,2023.2.3,MacIntel,58.82352941,6,2,10,,,,,,,,8,03,,,,,,,,,,,8,1.348,1,,,,,,0.427155671,-0.415737124,1,0,0,1.3477,Pumice_rect,9,0,9,0,1,
5b9b422307c6960001614c35,TCN,2024-06-25_12h40.05.560,LearnStrategy,2023.2.3,MacIntel,58.82352941,6,2,11,,,,,,,,6,15,,,,,,,,,,,6,1.342,1,,,,,,-0.177481192,-0.384606481,1,0,0,1.3424,Pegmatite_rect,10,0,10,0,1,
5b9b422307c6960001614c35,TCN,2024-06-25_12h40.05.560,LearnStrategy,2023.2.3,MacIntel,58.82352941,6,2,12,,,,,,,,3,06,,,,,,,,,,,1,3.215,0,,,,,,-0.374772135,-0.262322772,1,0,0,3.2153,Andesite_rect,11,0,11,0,1,
5b9b422307c6960001614c35,TCN,2024-06-25_12h40.05.560,LearnStrategy,2023.2.3,MacIntel,58.82352941,6,2,13,,,,,,,,4,01,,,,,,,,,,,4,2.648,1,,,,,,0.382714844,-0.239048032,1,0,0,2.6479,Gabbro_rect,12,0,12,0,1,
5b9b422307c6960001614c35,TCN,2024-06-25_12h40.05.560,LearnStrategy,2023.2.3,MacIntel,58.82352941,6,2,14,,,,,,,,8,10,,,,,,,,,,,8,1.959,1,,,,,,0.379908131,-0.402875434,1,0,0,1.9592,Pumice_rect,13,0,13,0,1,
5b9b422307c6960001614c35,TCN,2024-06-25_12h40.05.560,LearnStrategy,2023.2.3,MacIntel,58.82352941,6,2,15,,,,,,,,1,11,,,,,,,,,,,1,3.575,1,,,,,,-0.393413628,-0.271929253,1,0,0,3.5747,Andesite_rect,14,0,14,0,1,
5b9b422307c6960001614c35,TCN,2024-06-25_12h40.05.560,LearnStrategy,2023.2.3,MacIntel,58.82352941,6,2,16,,,,,,,,7,15,,,,,,,,,,,7,1.058,1,,,,,,0.141167535,-0.402741609,1,0,0,1.0581,Peridotite_rect,15,0,15,0,1,
5b9b422307c6960001614c35,TCN,2024-06-25_12h40.05.560,LearnStrategy,2023.2.3,MacIntel,58.82352941,7,1,1,0.085673466,-0.003598814,1,0,0,28.1799,rock_grid_rect_2,7,13,-1,-1,28.18,0.072645399,-0.41270978,1,0,0,1.3669,Peridotite_rect,7,1.367,1,0,0,0,0,1,,,,,,,,,,,,,
5b9b422307c6960001614c35,TCN,2024-06-25_12h40.05.560,LearnStrategy,2023.2.3,MacIntel,58.82352941,7,1,2,0.09938151,-0.001124855,1,0,0,0.9149,rock_grid_rect_2,4,08,-1,-1,0.915,0.418370226,-0.24307364,1,0,0,1.5434,Gabbro_rect,4,1.543,1,1,0,1,0,1,,,,,,,,,,,,,
5b9b422307c6960001614c35,TCN,2024-06-25_12h40.05.560,LearnStrategy,2023.2.3,MacIntel,58.82352941,7,1,3,-0.019802517,0.000249566,1,0,0,1.0816,rock_grid_rect_2,2,04,-1,-1,1.082,-0.098347078,-0.23323206,1,0,0,1.3107,Basalt_rect,2,1.311,1,2,0,2,0,1,,,,,,,,,,,,,
5b9b422307c6960001614c35,TCN,2024-06-25_12h40.05.560,LearnStrategy,2023.2.3,MacIntel,58.82352941,7,1,4,0.03182147,0.009194155,1,0,0,0.9815,rock_grid_rect_2,1,01,-1,-1,0.981,0.193319589,-0.251396123,1,0,0,2.6278,Diorite_rect,3,2.628,0,3,0,3,0,1,,,,,,,,,,,,,
5b9b422307c6960001614c35,TCN,2024-06-25_12h40.05.560,LearnStrategy,2023.2.3,MacIntel,58.82352941,7,1,5,-0.045652488,-0.002567998,1,0,0,0.6987,rock_grid_rect_2,6,06,-1,-1,0.699,-0.103294994,-0.388914207,1,0,0,1.2444,Pegmatite_rect,6,1.244,1,4,0,4,0,1,,,,,,,,,,,,,
5b9b422307c6960001614c35,TCN,2024-06-25_12h40.05.560,LearnStrategy,2023.2.3,MacIntel,58.82352941,7,1,6,-0.018518519,0.001508247,1,0,0,0.6973,rock_grid_rect_2,8,02,-1,-1,0.697,0.416399016,-0.4067636,1,0,0,1.662,Pumice_rect,8,1.662,1,5,0,5,0,1,,,,,,,,,,,,,
5b9b422307c6960001614c35,TCN,2024-06-25_12h40.05.560,LearnStrategy,2023.2.3,MacIntel,58.82352941,7,1,7,-0.01796875,-0.003244358,1,0,0,0.6986,rock_grid_rect_2,2,14,-1,-1,0.699,-0.083362269,-0.250643808,1,0,0,1.6278,Basalt_rect,2,1.628,1,6,0,6,0,1,,,,,,,,,,,,,
5b9b422307c6960001614c35,TCN,2024-06-25_12h40.05.560,LearnStrategy,2023.2.3,MacIntel,58.82352941,7,1,8,-0.006456163,-0.00270544,1,0,0,0.7819,rock_grid_rect_2,8,15,-1,-1,0.782,0.434848814,-0.384823495,1,0,0,2.0921,Pumice_rect,8,2.092,1,7,0,7,0,1,,,,,,,,,,,,,
5b9b422307c6960001614c35,TCN,2024-06-25_12h40.05.560,LearnStrategy,2023.2.3,MacIntel,58.82352941,7,1,9,-0.044831453,-0.002806713,1,0,0,0.9642,rock_grid_rect_2,3,07,-1,-1,0.964,0.162706163,-0.26187066,1,0,0,2.3432,Diorite_rect,3,2.343,1,8,0,8,0,1,,,,,,,,,,,,,
5b9b422307c6960001614c35,TCN,2024-06-25_12h40.05.560,LearnStrategy,2023.2.3,MacIntel,58.82352941,7,1,10,-0.029072627,0.002445023,1,0,0,0.8631,rock_grid_rect_2,7,07,-1,-1,0.863,0.138679109,-0.40718316,1,0,0,1.3442,Peridotite_rect,7,1.344,1,9,0,9,0,1,,,,,,,,,,,,,
5b9b422307c6960001614c35,TCN,2024-06-25_12h40.05.560,LearnStrategy,2023.2.3,MacIntel,58.82352941,7,1,11,-0.009440104,0.005432581,1,0,0,0.7985,rock_grid_rect_2,3,08,-1,-1,0.798,0.104528356,-0.251540799,1,0,0,2.0935,Diorite_rect,3,2.094,1,10,0,10,0,1,,,,,,,,,,,,,
5b9b422307c6960001614c35,TCN,2024-06-25_12h40.05.560,LearnStrategy,2023.2.3,MacIntel,58.82352941,7,1,12,-0.009266493,0.001960359,1,0,0,0.8651,rock_grid_rect_2,6,05,-1,-1,0.865,-0.107060185,-0.384845197,1,0,0,3.8625,Pegmatite_rect,6,3.862,1,11,0,11,0,1,,,,,,,,,,,,,
5b9b422307c6960001614c35,TCN,2024-06-25_12h40.05.560,LearnStrategy,2023.2.3,MacIntel,58.82352941,7,1,13,0.011921296,0.000600405,1,0,0,1.0329,rock_grid_rect_2,5,08,-1,-1,1.033,-0.393999566,-0.382609954,1,0,0,1.661,Obsidian_rect,5,1.661,1,12,0,12,0,1,,,,,,,,,,,,,
5b9b422307c6960001614c35,TCN,2024-06-25_12h40.05.560,LearnStrategy,2023.2.3,MacIntel,58.82352941,7,1,14,0.040856481,-0.014977575,1,0,0,0.8324,rock_grid_rect_2,4,14,-1,-1,0.832,-0.099851707,-0.236809172,1,0,0,1.7437,Basalt_rect,2,1.744,0,13,0,13,0,1,,,,,,,,,,,,,
5b9b422307c6960001614c35,TCN,2024-06-25_12h40.05.560,LearnStrategy,2023.2.3,MacIntel,58.82352941,7,1,15,0.027419705,0.019086372,1,0,0,0.666,rock_grid_rect_2,1,04,-1,-1,0.666,-0.414840133,-0.246426505,1,0,0,2.1269,Andesite_rect,1,2.127,1,14,0,14,0,1,,,,,,,,,,,,,
5b9b422307c6960001614c35,TCN,2024-06-25_12h40.05.560,LearnStrategy,2023.2.3,MacIntel,58.82352941,7,1,16,0.04176794,-0.017408131,1,0,0,0.6985,rock_grid_rect_2,5,16,-1,-1,0.698,-0.368721065,-0.417787905,1,0,0,1.0942,Obsidian_rect,5,1.094,1,15,0,15,0,1,,,,,,,,,,,,,
5b9b422307c6960001614c35,TCN,2024-06-25_12h40.05.560,LearnStrategy,2023.2.3,MacIntel,58.82352941,7,2,1,,,,,,,,1,10,,,,,,,,,,,1,1.793,1,,,,,,-0.366069878,-0.244053819,1,0,0,1.7935,Andesite_rect,0,0,0,0,1,
5b9b422307c6960001614c35,TCN,2024-06-25_12h40.05.560,LearnStrategy,2023.2.3,MacIntel,58.82352941,7,2,2,,,,,,,,6,03,,,,,,,,,,,6,2.68,1,,,,,,-0.170200376,-0.410246672,1,0,0,2.6801,Pegmatite_rect,1,0,1,0,1,
5b9b422307c6960001614c35,TCN,2024-06-25_12h40.05.560,LearnStrategy,2023.2.3,MacIntel,58.82352941,7,2,3,,,,,,,,6,10,,,,,,,,,,,6,1.998,1,,,,,,-0.146950955,-0.400021701,1,0,0,1.9983,Pegmatite_rect,2,0,2,0,1,
5b9b422307c6960001614c35,TCN,2024-06-25_12h40.05.560,LearnStrategy,2023.2.3,MacIntel,58.82352941,7,2,4,,,,,,,,4,03,,,,,,,,,,,4,6.941,1,,,,,,0.415885417,-0.256166811,1,0,0,6.9411,Gabbro_rect,3,0,3,0,1,
5b9b422307c6960001614c35,TCN,2024-06-25_12h40.05.560,LearnStrategy,2023.2.3,MacIntel,58.82352941,7,2,5,,,,,,,,5,06,,,,,,,,,,,5,1.363,1,,,,,,-0.400473814,-0.404969618,1,0,0,1.3628,Obsidian_rect,4,0,4,0,1,
5b9b422307c6960001614c35,TCN,2024-06-25_12h40.05.560,LearnStrategy,2023.2.3,MacIntel,58.82352941,7,2,6,,,,,,,,3,16,,,,,,,,,,,3,3.126,1,,,,,,0.095189525,-0.230703848,1,0,0,3.1256,Diorite_rect,5,0,5,0,1,
5b9b422307c6960001614c35,TCN,2024-06-25_12h40.05.560,LearnStrategy,2023.2.3,MacIntel,58.82352941,7,2,7,,,,,,,,8,05,,,,,,,,,,,8,1.257,1,,,,,,0.364775029,-0.402647569,1,0,0,1.2566,Pumice_rect,6,0,6,0,1,
5b9b422307c6960001614c35,TCN,2024-06-25_12h40.05.560,LearnStrategy,2023.2.3,MacIntel,58.82352941,7,2,8,,,,,,,,2,09,,,,,,,,,,,2,1.113,1,,,,,,-0.136867043,-0.239778646,1,0,0,1.1134,Basalt_rect,7,0,7,0,1,
5b9b422307c6960001614c35,TCN,2024-06-25_12h40.05.560,LearnStrategy,2023.2.3,MacIntel,58.82352941,7,2,9,,,,,,,,4,01,,,,,,,,,,,4,5.411,1,,,,,,0.401848235,-0.250538918,1,0,0,5.4113,Gabbro_rect,8,0,8,0,1,
5b9b422307c6960001614c35,TCN,2024-06-25_12h40.05.560,LearnStrategy,2023.2.3,MacIntel,58.82352941,7,2,10,,,,,,,,2,10,,,,,,,,,,,2,1.239,1,,,,,,-0.08365162,-0.254369213,1,0,0,1.2388,Basalt_rect,9,0,9,0,1,
5b9b422307c6960001614c35,TCN,2024-06-25_12h40.05.560,LearnStrategy,2023.2.3,MacIntel,58.82352941,7,2,11,,,,,,,,1,11,,,,,,,,,,,1,1.957,1,,,,,,-0.382946325,-0.264771412,1,0,0,1.9575,Andesite_rect,10,0,10,0,1,
5b9b422307c6960001614c35,TCN,2024-06-25_12h40.05.560,LearnStrategy,2023.2.3,MacIntel,58.82352941,7,2,12,,,,,,,,7,15,,,,,,,,,,,7,1.107,1,,,,,,0.109215856,-0.392404514,1,0,0,1.1065,Peridotite_rect,11,0,11,0,1,
5b9b422307c6960001614c35,TCN,2024-06-25_12h40.05.560,LearnStrategy,2023.2.3,MacIntel,58.82352941,7,2,13,,,,,,,,5,11,,,,,,,,,,,5,1.277,1,,,,,,-0.442878328,-0.403208189,1,0,0,1.2769,Obsidian_rect,12,0,12,0,1,
5b9b422307c6960001614c35,TCN,2024-06-25_12h40.05.560,LearnStrategy,2023.2.3,MacIntel,58.82352941,7,2,14,,,,,,,,8,04,,,,,,,,,,,8,1.04,1,,,,,,0.356864873,-0.406018519,1,0,0,1.04,Pumice_rect,13,0,13,0,1,
5b9b422307c6960001614c35,TCN,2024-06-25_12h40.05.560,LearnStrategy,2023.2.3,MacIntel,58.82352941,7,2,15,,,,,,,,7,04,,,,,,,,,,,4,9.426,0,,,,,,0.360814525,-0.246972656,1,0,0,9.4262,Gabbro_rect,14,0,14,0,1,
5b9b422307c6960001614c35,TCN,2024-06-25_12h40.05.560,LearnStrategy,2023.2.3,MacIntel,58.82352941,7,2,16,,,,,,,,3,13,,,,,,,,,,,3,1.631,1,,,,,,0.096372251,-0.246553096,1,0,0,1.6306,Diorite_rect,15,0,15,0,1,
5b9b422307c6960001614c35,TCN,2024-06-25_12h40.05.560,LearnStrategy,2023.2.3,MacIntel,58.82352941,8,1,1,0.058250145,0.016134983,1,0,0,0.863,rock_grid_rect_2,5,07,-1,-1,0.863,-0.404155816,-0.403352865,1,0,0,1.1592,Obsidian_rect,5,1.159,1,0,0,0,0,1,,,,,,,,,,,,,
5b9b422307c6960001614c35,TCN,2024-06-25_12h40.05.560,LearnStrategy,2023.2.3,MacIntel,58.82352941,8,1,2,0.049178964,0.007389323,1,0,0,1.6161,rock_grid_rect_2,4,12,-1,-1,1.616,-0.149030671,-0.254087095,1,0,0,1.2263,Basalt_rect,2,1.226,0,1,0,1,0,1,,,,,,,,,,,,,
5b9b422307c6960001614c35,TCN,2024-06-25_12h40.05.560,LearnStrategy,2023.2.3,MacIntel,58.82352941,8,1,3,0.084758391,-0.023119213,1,0,0,0.7987,rock_grid_rect_2,5,14,-1,-1,0.799,-0.382620804,-0.416894531,1,0,0,1.1267,Obsidian_rect,5,1.127,1,2,0,2,0,1,,,,,,,,,,,,,
5b9b422307c6960001614c35,TCN,2024-06-25_12h40.05.560,LearnStrategy,2023.2.3,MacIntel,58.82352941,8,1,4,-0.03468967,-0.0002568,1,0,0,0.816,rock_grid_rect_2,3,14,-1,-1,0.816,0.205971499,-0.255353009,1,0,0,1.0279,Diorite_rect,3,1.028,1,3,0,3,0,1,,,,,,,,,,,,,
5b9b422307c6960001614c35,TCN,2024-06-25_12h40.05.560,LearnStrategy,2023.2.3,MacIntel,58.82352941,8,1,5,-0.030186632,-0.013755064,1,0,0,0.7483,rock_grid_rect_2,6,16,-1,-1,0.748,-0.073166233,-0.39759838,1,0,0,1.1141,Pegmatite_rect,6,1.114,1,4,0,4,0,1,,,,,,,,,,,,,
5b9b422307c6960001614c35,TCN,2024-06-25_12h40.05.560,LearnStrategy,2023.2.3,MacIntel,58.82352941,8,1,6,0.006792535,-0.009682436,1,0,0,0.7995,rock_grid_rect_2,7,05,-1,-1,0.799,0.119603588,-0.41311849,1,0,0,1.3447,Peridotite_rect,7,1.345,1,5,0,5,0,1,,,,,,,,,,,,,
5b9b422307c6960001614c35,TCN,2024-06-25_12h40.05.560,LearnStrategy,2023.2.3,MacIntel,58.82352941,8,1,7,-0.023050492,-0.009472656,1,0,0,0.7806,rock_grid_rect_2,8,14,-1,-1,0.781,0.411877894,-0.396072049,1,0,0,1.0445,Pumice_rect,8,1.044,1,6,0,6,0,1,,,,,,,,,,,,,
5b9b422307c6960001614c35,TCN,2024-06-25_12h40.05.560,LearnStrategy,2023.2.3,MacIntel,58.82352941,8,1,8,0.007244647,0.002220775,1,0,0,0.7499,rock_grid_rect_2,7,02,-1,-1,0.75,0.179087095,-0.416077112,1,0,0,1.9597,Peridotite_rect,7,1.96,1,7,0,7,0,1,,,,,,,,,,,,,
5b9b422307c6960001614c35,TCN,2024-06-25_12h40.05.560,LearnStrategy,2023.2.3,MacIntel,58.82352941,8,1,9,-0.010011574,0.016634115,1,0,0,0.7831,rock_grid_rect_2,4,16,-1,-1,0.783,0.417201968,-0.238017216,1,0,0,1.6273,Gabbro_rect,4,1.627,1,8,0,8,0,1,,,,,,,,,,,,,
5b9b422307c6960001614c35,TCN,2024-06-25_12h40.05.560,LearnStrategy,2023.2.3,MacIntel,58.82352941,8,1,10,-0.008427373,-0.007667824,1,0,0,0.8486,rock_grid_rect_2,6,07,-1,-1,0.849,-0.103309462,-0.398451968,1,0,0,1.1926,Pegmatite_rect,6,1.193,1,9,0,9,0,1,,,,,,,,,,,,,
5b9b422307c6960001614c35,TCN,2024-06-25_12h40.05.560,LearnStrategy,2023.2.3,MacIntel,58.82352941,8,1,11,-0.015039063,0.009573929,1,0,0,0.7819,rock_grid_rect_2,3,11,-1,-1,0.782,0.157635272,-0.247833478,1,0,0,1.2635,Diorite_rect,3,1.264,1,10,0,10,0,1,,,,,,,,,,,,,
5b9b422307c6960001614c35,TCN,2024-06-25_12h40.05.560,LearnStrategy,2023.2.3,MacIntel,58.82352941,8,1,12,-0.050086806,-0.001544416,1,0,0,0.6824,rock_grid_rect_2,2,06,-1,-1,0.682,-0.071448206,-0.244607205,1,0,0,1.0426,Basalt_rect,2,1.043,1,11,0,11,0,1,,,,,,,,,,,,,
5b9b422307c6960001614c35,TCN,2024-06-25_12h40.05.560,LearnStrategy,2023.2.3,MacIntel,58.82352941,8,1,13,-0.02854456,0.000528067,1,0,0,0.6318,rock_grid_rect_2,1,03,-1,-1,0.632,-0.359505208,-0.236230469,1,0,0,0.8278,Andesite_rect,1,0.828,1,12,0,12,0,1,,,,,,,,,,,,,
5b9b422307c6960001614c35,TCN,2024-06-25_12h40.05.560,LearnStrategy,2023.2.3,MacIntel,58.82352941,8,1,14,0.005852141,-0.013472946,1,0,0,0.749,rock_grid_rect_2,8,16,-1,-1,0.749,0.38276548,-0.414699074,1,0,0,1.0964,Pumice_rect,8,1.096,1,13,0,13,0,1,,,,,,,,,,,,,
5b9b422307c6960001614c35,TCN,2024-06-25_12h40.05.560,LearnStrategy,2023.2.3,MacIntel,58.82352941,8,1,15,0.011393229,0.004976852,1,0,0,0.6987,rock_grid_rect_2,2,11,-1,-1,0.699,-0.352199074,-0.234411169,1,0,0,1.5278,Andesite_rect,1,1.528,0,14,0,14,0,1,,,,,,,,,,,,,
5b9b422307c6960001614c35,TCN,2024-06-25_12h40.05.560,LearnStrategy,2023.2.3,MacIntel,58.82352941,8,1,16,0.029824942,0.01323423,1,0,0,0.6645,rock_grid_rect_2,1,02,-1,-1,0.664,-0.371875,-0.261979167,1,0,0,1.5779,Andesite_rect,1,1.578,1,15,0,15,0,1,,,,,,,,,,,,,
5b9b422307c6960001614c35,TCN,2024-06-25_12h40.05.560,LearnStrategy,2023.2.3,MacIntel,58.82352941,8,2,1,,,,,,,,3,15,,,,,,,,,,,3,2.76,1,,,,,,0.144672309,-0.253663918,1,0,0,2.7602,Diorite_rect,0,0,0,0,1,
5b9b422307c6960001614c35,TCN,2024-06-25_12h40.05.560,LearnStrategy,2023.2.3,MacIntel,58.82352941,8,2,2,,,,,,,,8,03,,,,,,,,,,,8,1.223,1,,,,,,0.4057364,-0.402640336,1,0,0,1.2231,Pumice_rect,1,0,1,0,1,
5b9b422307c6960001614c35,TCN,2024-06-25_12h40.05.560,LearnStrategy,2023.2.3,MacIntel,58.82352941,8,2,3,,,,,,,,5,05,,,,,,,,,,,5,1.308,1,,,,,,-0.361537905,-0.401652922,1,0,0,1.3081,Obsidian_rect,2,0,2,0,1,
5b9b422307c6960001614c35,TCN,2024-06-25_12h40.05.560,LearnStrategy,2023.2.3,MacIntel,58.82352941,8,2,4,,,,,,,,1,07,,,,,,,,,,,1,3.508,1,,,,,,-0.412250434,-0.252560764,1,0,0,3.5085,Andesite_rect,3,0,3,0,1,
5b9b422307c6960001614c35,TCN,2024-06-25_12h40.05.560,LearnStrategy,2023.2.3,MacIntel,58.82352941,8,2,5,,,,,,,,6,08,,,,,,,,,,,6,1.276,1,,,,,,-0.148289207,-0.401783131,1,0,0,1.2763,Pegmatite_rect,4,0,4,0,1,
5b9b422307c6960001614c35,TCN,2024-06-25_12h40.05.560,LearnStrategy,2023.2.3,MacIntel,58.82352941,8,2,6,,,,,,,,5,10,,,,,,,,,,,5,1.857,1,,,,,,-0.392690249,-0.409671586,1,0,0,1.8567,Obsidian_rect,5,0,5,0,1,
5b9b422307c6960001614c35,TCN,2024-06-25_12h40.05.560,LearnStrategy,2023.2.3,MacIntel,58.82352941,8,2,7,,,,,,,,7,08,,,,,,,,,,,7,1.313,1,,,,,,0.085452836,-0.402000145,1,0,0,1.3131,Peridotite_rect,6,0,6,0,1,
5b9b422307c6960001614c35,TCN,2024-06-25_12h40.05.560,LearnStrategy,2023.2.3,MacIntel,58.82352941,8,2,8,,,,,,,,7,16,,,,,,,,,,,7,3.11,1,,,,,,0.113136574,-0.404586227,1,0,0,3.1096,Peridotite_rect,7,0,7,0,1,
5b9b422307c6960001614c35,TCN,2024-06-25_12h40.05.560,LearnStrategy,2023.2.3,MacIntel,58.82352941,8,2,9,,,,,,,,8,10,,,,,,,,,,,8,1.332,1,,,,,,0.373958333,-0.398759404,1,0,0,1.3323,Pumice_rect,8,0,8,0,1,
5b9b422307c6960001614c35,TCN,2024-06-25_12h40.05.560,LearnStrategy,2023.2.3,MacIntel,58.82352941,8,2,10,,,,,,,,3,09,,,,,,,,,,,3,1.464,1,,,,,,0.136216001,-0.242126013,1,0,0,1.4641,Diorite_rect,9,0,9,0,1,
5b9b422307c6960001614c35,TCN,2024-06-25_12h40.05.560,LearnStrategy,2023.2.3,MacIntel,58.82352941,8,2,11,,,,,,,,6,11,,,,,,,,,,,6,1.191,1,,,,,,-0.153765191,-0.409194155,1,0,0,1.1912,Pegmatite_rect,10,0,10,0,1,
5b9b422307c6960001614c35,TCN,2024-06-25_12h40.05.560,LearnStrategy,2023.2.3,MacIntel,58.82352941,8,2,12,,,,,,,,2,16,,,,,,,,,,,2,2.31,1,,,,,,-0.113360822,-0.256380208,1,0,0,2.3103,Basalt_rect,11,0,11,0,1,
5b9b422307c6960001614c35,TCN,2024-06-25_12h40.05.560,LearnStrategy,2023.2.3,MacIntel,58.82352941,8,2,13,,,,,,,,2,08,,,,,,,,,,,2,1.058,1,,,,,,-0.136548756,-0.228642216,1,0,0,1.0576,Basalt_rect,12,0,12,0,1,
5b9b422307c6960001614c35,TCN,2024-06-25_12h40.05.560,LearnStrategy,2023.2.3,MacIntel,58.82352941,8,2,14,,,,,,,,4,15,,,,,,,,,,,3,6.291,0,,,,,,0.148245804,-0.243804253,1,0,0,6.2914,Diorite_rect,13,0,13,0,1,
5b9b422307c6960001614c35,TCN,2024-06-25_12h40.05.560,LearnStrategy,2023.2.3,MacIntel,58.82352941,8,2,15,,,,,,,,4,13,,,,,,,,,,,3,1.648,0,,,,,,0.093731916,-0.246068432,1,0,0,1.6482,Diorite_rect,14,0,14,0,1,
5b9b422307c6960001614c35,TCN,2024-06-25_12h40.05.560,LearnStrategy,2023.2.3,MacIntel,58.82352941,8,2,16,,,,,,,,1,09,,,,,,,,,,,1,1.326,1,,,,,,-0.345052083,-0.233553964,1,0,0,1.3264,Andesite_rect,15,0,15,0,1,
5b9b422307c6960001614c35,TCN,2024-06-25_12h40.05.560,LearnStrategy,2023.2.3,MacIntel,58.82352941,9,1,1,0.029506655,-0.00609809,1,0,0,0.9652,rock_grid_rect_2,1,16,-1,-1,0.965,-0.396947338,-0.246260127,1,0,0,3.2593,Andesite_rect,1,3.259,1,0,0,0,0,1,,,,,,,,,,,,,
5b9b422307c6960001614c35,TCN,2024-06-25_12h40.05.560,LearnStrategy,2023.2.3,MacIntel,58.82352941,9,1,2,-0.044440828,-0.005570023,1,0,0,0.766,rock_grid_rect_2,6,13,-1,-1,0.766,-0.152517361,-0.414485677,1,0,0,2.7943,Pegmatite_rect,6,2.794,1,1,0,1,0,1,,,,,,,,,,,,,
5b9b422307c6960001614c35,TCN,2024-06-25_12h40.05.560,LearnStrategy,2023.2.3,MacIntel,58.82352941,9,1,3,-0.0393193,-0.008152488,1,0,0,0.5808,rock_grid_rect_2,4,11,-1,-1,0.581,0.378106916,-0.239510995,1,0,0,1.7108,Gabbro_rect,4,1.711,1,2,0,2,0,1,,,,,,,,,,,,,
5b9b422307c6960001614c35,TCN,2024-06-25_12h40.05.560,LearnStrategy,2023.2.3,MacIntel,58.82352941,9,1,4,0.013527199,-0.002821181,1,0,0,1.0642,rock_grid_rect_2,6,09,-1,-1,1.064,-0.139500145,-0.40827908,1,0,0,2.33,Pegmatite_rect,6,2.33,1,3,0,3,0,1,,,,,,,,,,,,,
5b9b422307c6960001614c35,TCN,2024-06-25_12h40.05.560,LearnStrategy,2023.2.3,MacIntel,58.82352941,9,1,5,0.004550058,0.013614005,1,0,0,0.7992,rock_grid_rect_2,5,04,-1,-1,0.799,-0.402470341,-0.402231626,1,0,0,1.0304,Obsidian_rect,5,1.03,1,4,0,4,0,1,,,,,,,,,,,,,
5b9b422307c6960001614c35,TCN,2024-06-25_12h40.05.560,LearnStrategy,2023.2.3,MacIntel,58.82352941,9,1,6,0.05139974,0.005125145,1,0,0,0.6479,rock_grid_rect_2,8,06,-1,-1,0.648,0.416290509,-0.388089554,1,0,0,0.9617,Pumice_rect,8,0.962,1,5,0,5,0,1,,,,,,,,,,,,,
5b9b422307c6960001614c35,TCN,2024-06-25_12h40.05.560,LearnStrategy,2023.2.3,MacIntel,58.82352941,9,1,7,0.037051505,0.011845341,1,0,0,0.6146,rock_grid_rect_2,2,01,-1,-1,0.615,-0.135720486,-0.258760127,1,0,0,0.9952,Basalt_rect,2,0.995,1,6,0,6,0,1,,,,,,,,,,,,,
5b9b422307c6960001614c35,TCN,2024-06-25_12h40.05.560,LearnStrategy,2023.2.3,MacIntel,58.82352941,9,1,8,0.001331019,0.00078125,1,0,0,0.6155,rock_grid_rect_2,3,02,-1,-1,0.616,0.168449797,-0.259939236,1,0,0,1.3629,Diorite_rect,3,1.363,1,7,0,7,0,1,,,,,,,,,,,,,
5b9b422307c6960001614c35,TCN,2024-06-25_12h40.05.560,LearnStrategy,2023.2.3,MacIntel,58.82352941,9,1,9,0.106904659,0.018883825,1,0,0,0.7485,rock_grid_rect_2,8,09,-1,-1,0.748,0.411165365,-0.412467448,1,0,0,1.0613,Pumice_rect,8,1.061,1,8,0,8,0,1,,,,,,,,,,,,,
5b9b422307c6960001614c35,TCN,2024-06-25_12h40.05.560,LearnStrategy,2023.2.3,MacIntel,58.82352941,9,1,10,0.000546152,-0.015024595,1,0,0,0.6485,rock_grid_rect_2,2,02,-1,-1,0.649,-0.117610677,-0.255334925,1,0,0,0.9444,Basalt_rect,2,0.944,1,9,0,9,0,1,,,,,,,,,,,,,
5b9b422307c6960001614c35,TCN,2024-06-25_12h40.05.560,LearnStrategy,2023.2.3,MacIntel,58.82352941,9,1,11,-0.027173756,0.013953993,1,0,0,0.8488,rock_grid_rect_2,7,10,-1,-1,0.849,0.123072193,-0.394759115,1,0,0,1.2641,Peridotite_rect,7,1.264,1,10,0,10,0,1,,,,,,,,,,,,,
5b9b422307c6960001614c35,TCN,2024-06-25_12h40.05.560,LearnStrategy,2023.2.3,MacIntel,58.82352941,9,1,12,-0.002806713,0.000983796,1,0,0,0.7809,rock_grid_rect_2,3,10,-1,-1,0.781,-0.352723524,-0.254879196,1,0,0,1.9304,Andesite_rect,1,1.93,0,11,0,11,0,1,,,,,,,,,,,,,
5b9b422307c6960001614c35,TCN,2024-06-25_12h40.05.560,LearnStrategy,2023.2.3,MacIntel,58.82352941,9,1,13,0.018974248,-0.001833767,1,0,0,0.7164,rock_grid_rect_2,5,02,-1,-1,0.716,-0.368728299,-0.410130932,1,0,0,1.8122,Obsidian_rect,5,1.812,1,12,0,12,0,1,,,,,,,,,,,,,
5b9b422307c6960001614c35,TCN,2024-06-25_12h40.05.560,LearnStrategy,2023.2.3,MacIntel,58.82352941,9,1,14,0.072276476,-0.00775463,1,0,0,0.6143,rock_grid_rect_2,4,09,-1,-1,0.614,0.384252025,-0.258828848,1,0,0,1.9303,Gabbro_rect,4,1.93,1,13,0,13,0,1,,,,,,,,,,,,,
5b9b422307c6960001614c35,TCN,2024-06-25_12h40.05.560,LearnStrategy,2023.2.3,MacIntel,58.82352941,9,1,15,0.006998698,0.007758247,1,0,0,0.615,rock_grid_rect_2,7,12,-1,-1,0.615,0.124269387,-0.395457176,1,0,0,1.6636,Peridotite_rect,7,1.664,1,14,0,14,0,1,,,,,,,,,,,,,
5b9b422307c6960001614c35,TCN,2024-06-25_12h40.05.560,LearnStrategy,2023.2.3,MacIntel,58.82352941,9,1,16,-0.028233507,-0.004365596,1,0,0,0.6767,rock_grid_rect_2,1,14,-1,-1,0.677,-0.362999132,-0.232895689,1,0,0,1.9803,Andesite_rect,1,1.98,1,15,0,15,0,1,,,,,,,,,,,,,
5b9b422307c6960001614c35,TCN,2024-06-25_12h40.05.560,LearnStrategy,2023.2.3,MacIntel,58.82352941,9,2,1,,,,,,,,2,12,,,,,,,,,,,8,2.547,0,,,,,,0.362561487,-0.40833695,1,0,0,2.547,Pumice_rect,0,0,0,0,1,
5b9b422307c6960001614c35,TCN,2024-06-25_12h40.05.560,LearnStrategy,2023.2.3,MacIntel,58.82352941,9,2,2,,,,,,,,7,14,,,,,,,,,,,7,1.215,1,,,,,,0.097019676,-0.388509115,1,0,0,1.2148,Peridotite_rect,1,0,1,0,1,
5b9b422307c6960001614c35,TCN,2024-06-25_12h40.05.560,LearnStrategy,2023.2.3,MacIntel,58.82352941,9,2,3,,,,,,,,1,05,,,,,,,,,,,1,2.408,1,,,,,,-0.396404803,-0.234577546,1,0,0,2.4077,Andesite_rect,2,0,2,0,1,
5b9b422307c6960001614c35,TCN,2024-06-25_12h40.05.560,LearnStrategy,2023.2.3,MacIntel,58.82352941,9,2,4,,,,,,,,4,05,,,,,,,,,,,4,1.599,1,,,,,,0.398184317,-0.249804688,1,0,0,1.5992,Gabbro_rect,3,0,3,0,1,
5b9b422307c6960001614c35,TCN,2024-06-25_12h40.05.560,LearnStrategy,2023.2.3,MacIntel,58.82352941,9,2,5,,,,,,,,2,05,,,,,,,,,,,2,0.925,1,,,,,,-0.094462529,-0.231586372,1,0,0,0.9248,Basalt_rect,4,0,4,0,1,
5b9b422307c6960001614c35,TCN,2024-06-25_12h40.05.560,LearnStrategy,2023.2.3,MacIntel,58.82352941,9,2,6,,,,,,,,6,15,,,,,,,,,,,6,1.057,1,,,,,,-0.157034867,-0.401526331,1,0,0,1.0566,Pegmatite_rect,5,0,5,0,1,
5b9b422307c6960001614c35,TCN,2024-06-25_12h40.05.560,LearnStrategy,2023.2.3,MacIntel,58.82352941,9,2,7,,,,,,,,3,12,,,,,,,,,,,3,2.441,1,,,,,,0.110586661,-0.240541811,1,0,0,2.4412,Diorite_rect,6,0,6,0,1,
5b9b422307c6960001614c35,TCN,2024-06-25_12h40.05.560,LearnStrategy,2023.2.3,MacIntel,58.82352941,9,2,8,,,,,,,,4,10,,,,,,,,,,,4,1.414,1,,,,,,0.407150608,-0.243051939,1,0,0,1.4143,Gabbro_rect,7,0,7,0,1,
5b9b422307c6960001614c35,TCN,2024-06-25_12h40.05.560,LearnStrategy,2023.2.3,MacIntel,58.82352941,9,2,9,,,,,,,,8,13,,,,,,,,,,,8,2.491,1,,,,,,0.390089699,-0.389033565,1,0,0,2.4914,Pumice_rect,8,0,8,0,1,
5b9b422307c6960001614c35,TCN,2024-06-25_12h40.05.560,LearnStrategy,2023.2.3,MacIntel,58.82352941,9,2,10,,,,,,,,8,08,,,,,,,,,,,8,1.114,1,,,,,,0.403548177,-0.390704572,1,0,0,1.1144,Pumice_rect,9,0,9,0,1,
5b9b422307c6960001614c35,TCN,2024-06-25_12h40.05.560,LearnStrategy,2023.2.3,MacIntel,58.82352941,9,2,11,,,,,,,,1,06,,,,,,,,,,,1,1.207,1,,,,,,-0.381629774,-0.237630208,1,0,0,1.2075,Andesite_rect,10,0,10,0,1,
5b9b422307c6960001614c35,TCN,2024-06-25_12h40.05.560,LearnStrategy,2023.2.3,MacIntel,58.82352941,9,2,12,,,,,,,,7,06,,,,,,,,,,,7,1.146,1,,,,,,0.173148148,-0.403555411,1,0,0,1.1464,Peridotite_rect,11,0,11,0,1,
5b9b422307c6960001614c35,TCN,2024-06-25_12h40.05.560,LearnStrategy,2023.2.3,MacIntel,58.82352941,9,2,13,,,,,,,,5,09,,,,,,,,,,,5,1.024,1,,,,,,-0.368844039,-0.419487847,1,0,0,1.0239,Obsidian_rect,12,0,12,0,1,
5b9b422307c6960001614c35,TCN,2024-06-25_12h40.05.560,LearnStrategy,2023.2.3,MacIntel,58.82352941,9,2,14,,,,,,,,3,06,,,,,,,,,,,3,3.447,1,,,,,,0.136635561,-0.238541667,1,0,0,3.447,Diorite_rect,13,0,13,0,1,
5b9b422307c6960001614c35,TCN,2024-06-25_12h40.05.560,LearnStrategy,2023.2.3,MacIntel,58.82352941,9,2,15,,,,,,,,6,12,,,,,,,,,,,1,6.076,0,,,,,,-0.437876157,-0.254893663,1,0,0,6.076,Andesite_rect,14,0,14,0,1,
5b9b422307c6960001614c35,TCN,2024-06-25_12h40.05.560,LearnStrategy,2023.2.3,MacIntel,58.82352941,9,2,16,,,,,,,,5,12,,,,,,,,,,,5,1.659,1,,,,,,-0.384259259,-0.417751736,1,0,0,1.6594,Obsidian_rect,15,0,15,0,1,
5b9b422307c6960001614c35,TCN,2024-06-25_12h40.05.560,LearnStrategy,2023.2.3,MacIntel,58.82352941,,,,,,,,,,,,,,,,,,,,,,,,,,,,,,,,,,,,,,,,,,,1
5b9b422307c6960001614c35,TCN,2024-06-25_12h40.05.560,LearnStrategy,2023.2.3,MacIntel,58.82352941,,,,,,,,,,,,,,,,,,,,,,,,,,,,,,,,,,,,,,,,,,,
5b9b422307c6960001614c35,TCN,2024-06-25_12h40.05.560,LearnStrategy,2023.2.3,MacIntel,58.82352941,,,,,,,,,,,6,13,1,1,,,,,,,,,,,,,,,,,,,,,,,,,,,,,
5b9b422307c6960001614c35,TCN,2024-06-25_12h40.05.560,LearnStrategy,2023.2.3,MacIntel,58.82352941,,,,,,,,,,,5,04,1,2,,,,,,,,,,,,,,,,,,,,,,,,,,,,,
5b9b422307c6960001614c35,TCN,2024-06-25_12h40.05.560,LearnStrategy,2023.2.3,MacIntel,58.82352941,,,,,,,,,,,8,16,1,3,,,,,,,,,,,,,,,,,,,,,,,,,,,,,
5b9b422307c6960001614c35,TCN,2024-06-25_12h40.05.560,LearnStrategy,2023.2.3,MacIntel,58.82352941,,,,,,,,,,,6,16,1,4,,,,,,,,,,,,,,,,,,,,,,,,,,,,,
5b9b422307c6960001614c35,TCN,2024-06-25_12h40.05.560,LearnStrategy,2023.2.3,MacIntel,58.82352941,,,,,,,,,,,4,14,1,5,,,,,,,,,,,,,,,,,,,,,,,,,,,,,
5b9b422307c6960001614c35,TCN,2024-06-25_12h40.05.560,LearnStrategy,2023.2.3,MacIntel,58.82352941,,,,,,,,,,,4,08,1,6,,,,,,,,,,,,,,,,,,,,,,,,,,,,,
5b9b422307c6960001614c35,TCN,2024-06-25_12h40.05.560,LearnStrategy,2023.2.3,MacIntel,58.82352941,,,,,,,,,,,4,16,1,7,,,,,,,,,,,,,,,,,,,,,,,,,,,,,
5b9b422307c6960001614c35,TCN,2024-06-25_12h40.05.560,LearnStrategy,2023.2.3,MacIntel,58.82352941,,,,,,,,,,,2,02,1,8,,,,,,,,,,,,,,,,,,,,,,,,,,,,,
5b9b422307c6960001614c35,TCN,2024-06-25_12h40.05.560,LearnStrategy,2023.2.3,MacIntel,58.82352941,,,,,,,,,,,6,05,2,1,,,,,,,,,,,,,,,,,,,,,,,,,,,,,
5b9b422307c6960001614c35,TCN,2024-06-25_12h40.05.560,LearnStrategy,2023.2.3,MacIntel,58.82352941,,,,,,,,,,,7,05,2,2,,,,,,,,,,,,,,,,,,,,,,,,,,,,,
5b9b422307c6960001614c35,TCN,2024-06-25_12h40.05.560,LearnStrategy,2023.2.3,MacIntel,58.82352941,,,,,,,,,,,8,09,2,3,,,,,,,,,,,,,,,,,,,,,,,,,,,,,
5b9b422307c6960001614c35,TCN,2024-06-25_12h40.05.560,LearnStrategy,2023.2.3,MacIntel,58.82352941,,,,,,,,,,,1,14,2,4,,,,,,,,,,,,,,,,,,,,,,,,,,,,,
5b9b422307c6960001614c35,TCN,2024-06-25_12h40.05.560,LearnStrategy,2023.2.3,MacIntel,58.82352941,,,,,,,,,,,5,02,2,5,,,,,,,,,,,,,,,,,,,,,,,,,,,,,
5b9b422307c6960001614c35,TCN,2024-06-25_12h40.05.560,LearnStrategy,2023.2.3,MacIntel,58.82352941,,,,,,,,,,,5,14,2,6,,,,,,,,,,,,,,,,,,,,,,,,,,,,,
5b9b422307c6960001614c35,TCN,2024-06-25_12h40.05.560,LearnStrategy,2023.2.3,MacIntel,58.82352941,,,,,,,,,,,2,14,2,7,,,,,,,,,,,,,,,,,,,,,,,,,,,,,
5b9b422307c6960001614c35,TCN,2024-06-25_12h40.05.560,LearnStrategy,2023.2.3,MacIntel,58.82352941,,,,,,,,,,,4,12,2,8,,,,,,,,,,,,,,,,,,,,,,,,,,,,,
5b9b422307c6960001614c35,TCN,2024-06-25_12h40.05.560,LearnStrategy,2023.2.3,MacIntel,58.82352941,,,,,,,,,,,3,07,3,1,,,,,,,,,,,,,,,,,,,,,,,,,,,,,
5b9b422307c6960001614c35,TCN,2024-06-25_12h40.05.560,LearnStrategy,2023.2.3,MacIntel,58.82352941,,,,,,,,,,,8,02,3,2,,,,,,,,,,,,,,,,,,,,,,,,,,,,,
5b9b422307c6960001614c35,TCN,2024-06-25_12h40.05.560,LearnStrategy,2023.2.3,MacIntel,58.82352941,,,,,,,,,,,1,02,3,3,,,,,,,,,,,,,,,,,,,,,,,,,,,,,
5b9b422307c6960001614c35,TCN,2024-06-25_12h40.05.560,LearnStrategy,2023.2.3,MacIntel,58.82352941,,,,,,,,,,,7,02,3,4,,,,,,,,,,,,,,,,,,,,,,,,,,,,,
5b9b422307c6960001614c35,TCN,2024-06-25_12h40.05.560,LearnStrategy,2023.2.3,MacIntel,58.82352941,,,,,,,,,,,1,04,3,5,,,,,,,,,,,,,,,,,,,,,,,,,,,,,
5b9b422307c6960001614c35,TCN,2024-06-25_12h40.05.560,LearnStrategy,2023.2.3,MacIntel,58.82352941,,,,,,,,,,,1,03,3,6,,,,,,,,,,,,,,,,,,,,,,,,,,,,,
5b9b422307c6960001614c35,TCN,2024-06-25_12h40.05.560,LearnStrategy,2023.2.3,MacIntel,58.82352941,,,,,,,,,,,5,08,3,7,,,,,,,,,,,,,,,,,,,,,,,,,,,,,
5b9b422307c6960001614c35,TCN,2024-06-25_12h40.05.560,LearnStrategy,2023.2.3,MacIntel,58.82352941,,,,,,,,,,,2,04,3,8,,,,,,,,,,,,,,,,,,,,,,,,,,,,,
5b9b422307c6960001614c35,TCN,2024-06-25_12h40.05.560,LearnStrategy,2023.2.3,MacIntel,58.82352941,,,,,,,,,,,3,08,4,1,,,,,,,,,,,,,,,,,,,,,,,,,,,,,
5b9b422307c6960001614c35,TCN,2024-06-25_12h40.05.560,LearnStrategy,2023.2.3,MacIntel,58.82352941,,,,,,,,,,,3,02,4,2,,,,,,,,,,,,,,,,,,,,,,,,,,,,,
5b9b422307c6960001614c35,TCN,2024-06-25_12h40.05.560,LearnStrategy,2023.2.3,MacIntel,58.82352941,,,,,,,,,,,8,15,4,3,,,,,,,,,,,,,,,,,,,,,,,,,,,,,
5b9b422307c6960001614c35,TCN,2024-06-25_12h40.05.560,LearnStrategy,2023.2.3,MacIntel,58.82352941,,,,,,,,,,,7,07,4,4,,,,,,,,,,,,,,,,,,,,,,,,,,,,,
5b9b422307c6960001614c35,TCN,2024-06-25_12h40.05.560,LearnStrategy,2023.2.3,MacIntel,58.82352941,,,,,,,,,,,6,09,4,5,,,,,,,,,,,,,,,,,,,,,,,,,,,,,
5b9b422307c6960001614c35,TCN,2024-06-25_12h40.05.560,LearnStrategy,2023.2.3,MacIntel,58.82352941,,,,,,,,,,,4,11,4,6,,,,,,,,,,,,,,,,,,,,,,,,,,,,,
5b9b422307c6960001614c35,TCN,2024-06-25_12h40.05.560,LearnStrategy,2023.2.3,MacIntel,58.82352941,,,,,,,,,,,7,13,4,7,,,,,,,,,,,,,,,,,,,,,,,,,,,,,
5b9b422307c6960001614c35,TCN,2024-06-25_12h40.05.560,LearnStrategy,2023.2.3,MacIntel,58.82352941,,,,,,,,,,,2,11,4,8,,,,,,,,,,,,,,,,,,,,,,,,,,,,,
5b9b422307c6960001614c35,TCN,2024-06-25_12h40.05.560,LearnStrategy,2023.2.3,MacIntel,58.82352941,,,,,,,,,,,2,06,5,1,,,,,,,,,,,,,,,,,,,,,,,,,,,,,
5b9b422307c6960001614c35,TCN,2024-06-25_12h40.05.560,LearnStrategy,2023.2.3,MacIntel,58.82352941,,,,,,,,,,,3,14,5,2,,,,,,,,,,,,,,,,,,,,,,,,,,,,,
5b9b422307c6960001614c35,TCN,2024-06-25_12h40.05.560,LearnStrategy,2023.2.3,MacIntel,58.82352941,,,,,,,,,,,8,06,5,3,,,,,,,,,,,,,,,,,,,,,,,,,,,,,
5b9b422307c6960001614c35,TCN,2024-06-25_12h40.05.560,LearnStrategy,2023.2.3,MacIntel,58.82352941,,,,,,,,,,,1,01,5,4,,,,,,,,,,,,,,,,,,,,,,,,,,,,,
5b9b422307c6960001614c35,TCN,2024-06-25_12h40.05.560,LearnStrategy,2023.2.3,MacIntel,58.82352941,,,,,,,,,,,7,12,5,5,,,,,,,,,,,,,,,,,,,,,,,,,,,,,
5b9b422307c6960001614c35,TCN,2024-06-25_12h40.05.560,LearnStrategy,2023.2.3,MacIntel,58.82352941,,,,,,,,,,,7,10,5,6,,,,,,,,,,,,,,,,,,,,,,,,,,,,,
5b9b422307c6960001614c35,TCN,2024-06-25_12h40.05.560,LearnStrategy,2023.2.3,MacIntel,58.82352941,,,,,,,,,,,5,07,5,7,,,,,,,,,,,,,,,,,,,,,,,,,,,,,
5b9b422307c6960001614c35,TCN,2024-06-25_12h40.05.560,LearnStrategy,2023.2.3,MacIntel,58.82352941,,,,,,,,,,,6,07,5,8,,,,,,,,,,,,,,,,,,,,,,,,,,,,,
5b9b422307c6960001614c35,TCN,2024-06-25_12h40.05.560,LearnStrategy,2023.2.3,MacIntel,58.82352941,,,,,,,,,,,1,16,6,1,,,,,,,,,,,,,,,,,,,,,,,,,,,,,
5b9b422307c6960001614c35,TCN,2024-06-25_12h40.05.560,LearnStrategy,2023.2.3,MacIntel,58.82352941,,,,,,,,,,,4,09,6,2,,,,,,,,,,,,,,,,,,,,,,,,,,,,,
5b9b422307c6960001614c35,TCN,2024-06-25_12h40.05.560,LearnStrategy,2023.2.3,MacIntel,58.82352941,,,,,,,,,,,3,10,6,3,,,,,,,,,,,,,,,,,,,,,,,,,,,,,
5b9b422307c6960001614c35,TCN,2024-06-25_12h40.05.560,LearnStrategy,2023.2.3,MacIntel,58.82352941,,,,,,,,,,,3,11,6,4,,,,,,,,,,,,,,,,,,,,,,,,,,,,,
5b9b422307c6960001614c35,TCN,2024-06-25_12h40.05.560,LearnStrategy,2023.2.3,MacIntel,58.82352941,,,,,,,,,,,8,14,6,5,,,,,,,,,,,,,,,,,,,,,,,,,,,,,
5b9b422307c6960001614c35,TCN,2024-06-25_12h40.05.560,LearnStrategy,2023.2.3,MacIntel,58.82352941,,,,,,,,,,,6,06,6,6,,,,,,,,,,,,,,,,,,,,,,,,,,,,,
5b9b422307c6960001614c35,TCN,2024-06-25_12h40.05.560,LearnStrategy,2023.2.3,MacIntel,58.82352941,,,,,,,,,,,5,16,6,7,,,,,,,,,,,,,,,,,,,,,,,,,,,,,
5b9b422307c6960001614c35,TCN,2024-06-25_12h40.05.560,LearnStrategy,2023.2.3,MacIntel,58.82352941,,,,,,,,,,,2,01,6,8,,,,,,,,,,,,,,,,,,,,,,,,,,,,,