participant,condition,date,expName,psychopyVersion,OS,frameRate,block,phase,trial,learn_mouse.x,learn_mouse.y,learn_mouse.leftButton,learn_mouse.midButton,learn_mouse.rightButton,learn_mouse.time,learn_mouse.clicked_name,cat,token,row,col,t_select,cat_rec,token_rec,cat_mouse_l.x,cat_mouse_l.y,cat_mouse_l.leftButton,cat_mouse_l.midButton,cat_mouse_l.rightButton,cat_mouse_l.time,cat_mouse_l.clicked_name,resp,t_resp,corr,train_trials.thisRepN,train_trials.thisTrialN,train_trials.thisN,train_trials.thisIndex,train_trials.ran,cat_mouse_t.x,cat_mouse_t.y,cat_mouse_t.leftButton,cat_mouse_t.midButton,cat_mouse_t.rightButton,cat_mouse_t.time,cat_mouse_t.clicked_name,test_trials.thisRepN,test_trials.thisTrialN,test_trials.thisN,test_trials.thisIndex,test_trials.ran,Bonus
5b9c2c816f92f30001ecce7a,SCR,2024-06-11_12h18.01.124,LearnStrategy,2023.2.3,Win32,60.60606061,,,,,,,,,,,,,,,,,,,,,,,,,,,,,,,,,,,,,,,,,,,,,
5b9c2c816f92f30001ecce7a,SCR,2024-06-11_12h18.01.124,LearnStrategy,2023.2.3,Win32,60.60606061,1,1,1,-0.384114583,-0.09765625,1,0,0,5.8234,Peridotite_05,7,05,3,2,5.823,7,05,0.145833333,-0.420572917,1,0,0,6.9698,Peridotite_rect,7,6.97,1,0,0,0,0,1,,,,,,,,,,,,,
5b9c2c816f92f30001ecce7a,SCR,2024-06-11_12h18.01.124,LearnStrategy,2023.2.3,Win32,60.60606061,1,1,2,-0.09375,-0.095052083,1,0,0,1.6431,Pumice_02,8,02,3,4,1.643,8,02,-0.326822917,-0.407552083,1,0,0,3.2436,Obsidian_rect,5,3.244,0,1,0,1,0,1,,,,,,,,,,,,,
5b9c2c816f92f30001ecce7a,SCR,2024-06-11_12h18.01.124,LearnStrategy,2023.2.3,Win32,60.60606061,1,1,3,-0.233072917,0.25,1,0,0,2.0113,Pumice_15,8,15,5,3,2.011,8,15,-0.079427083,-0.2421875,1,0,0,3.6019,Basalt_rect,2,3.602,0,2,0,2,0,1,,,,,,,,,,,,,
5b9c2c816f92f30001ecce7a,SCR,2024-06-11_12h18.01.124,LearnStrategy,2023.2.3,Win32,60.60606061,1,1,4,0.41015625,-0.30859375,1,0,0,1.4819,Gabbro_01,4,01,2,7,1.482,4,01,0.194010417,-0.412760417,1,0,0,2.3702,Peridotite_rect,7,2.37,0,3,0,3,0,1,,,,,,,,,,,,,
5b9c2c816f92f30001ecce7a,SCR,2024-06-11_12h18.01.124,LearnStrategy,2023.2.3,Win32,60.60606061,1,1,5,-0.229166667,-0.463541667,1,0,0,1.097,Basalt_16,2,16,1,3,1.097,2,16,-0.330729167,-0.239583333,1,0,0,2.3831,Andesite_rect,1,2.383,0,4,0,4,0,1,,,,,,,,,,,,,
5b9c2c816f92f30001ecce7a,SCR,2024-06-11_12h18.01.124,LearnStrategy,2023.2.3,Win32,60.60606061,1,1,6,0.532552083,-0.283854167,1,0,0,1.4157,Pegmatite_06,6,06,2,8,1.416,6,06,-0.063802083,-0.40234375,1,0,0,5.9566,Pegmatite_rect,6,5.957,1,5,0,5,0,1,,,,,,,,,,,,,
5b9c2c816f92f30001ecce7a,SCR,2024-06-11_12h18.01.124,LearnStrategy,2023.2.3,Win32,60.60606061,1,1,7,-0.095052083,0.1171875,1,0,0,0.9071,Basalt_12,2,12,4,4,0.907,2,12,0.41796875,-0.412760417,1,0,0,2.506,Pumice_rect,8,2.506,0,6,0,6,0,1,,,,,,,,,,,,,
5b9c2c816f92f30001ecce7a,SCR,2024-06-11_12h18.01.124,LearnStrategy,2023.2.3,Win32,60.60606061,1,1,8,-0.5390625,0.389322917,1,0,0,1.7812,Andesite_02,1,02,6,1,1.781,1,02,0.153645833,-0.23828125,1,0,0,4.0785,Diorite_rect,3,4.078,0,7,0,7,0,1,,,,,,,,,,,,,
5b9c2c816f92f30001ecce7a,SCR,2024-06-11_12h18.01.124,LearnStrategy,2023.2.3,Win32,60.60606061,1,1,9,-0.05859375,-0.209635417,1,0,0,0.8197,Diorite_09,3,09,2,4,0.82,3,09,0.158854167,-0.243489583,1,0,0,4.741,Diorite_rect,3,4.741,1,8,0,8,0,1,,,,,,,,,,,,,
5b9c2c816f92f30001ecce7a,SCR,2024-06-11_12h18.01.124,LearnStrategy,2023.2.3,Win32,60.60606061,1,1,10,-0.231770833,-0.123697917,1,0,0,1.1547,Obsidian_04,5,04,3,3,1.155,5,04,-0.3515625,-0.403645833,1,0,0,5.7747,Obsidian_rect,5,5.775,1,9,0,9,0,1,,,,,,,,,,,,,
5b9c2c816f92f30001ecce7a,SCR,2024-06-11_12h18.01.124,LearnStrategy,2023.2.3,Win32,60.60606061,1,1,11,-0.563802083,-0.088541667,1,0,0,1.1288,Pegmatite_13,6,13,3,1,1.129,6,13,0.205729167,-0.2578125,1,0,0,3.1647,Diorite_rect,3,3.165,0,10,0,10,0,1,,,,,,,,,,,,,
5b9c2c816f92f30001ecce7a,SCR,2024-06-11_12h18.01.124,LearnStrategy,2023.2.3,Win32,60.60606061,1,1,12,-0.5,-0.4140625,1,0,0,1.0312,Gabbro_10,4,10,1,1,1.031,4,10,0.47265625,-0.40234375,1,0,0,2.714,Pumice_rect,8,2.714,0,11,0,11,0,1,,,,,,,,,,,,,
5b9c2c816f92f30001ecce7a,SCR,2024-06-11_12h18.01.124,LearnStrategy,2023.2.3,Win32,60.60606061,1,1,13,0.270833333,0.239583333,1,0,0,15.6367,Obsidian_09,5,09,5,6,15.637,5,09,-0.369791667,-0.41015625,1,0,0,1.7159,Obsidian_rect,5,1.716,1,12,0,12,0,1,,,,,,,,,,,,,
5b9c2c816f92f30001ecce7a,SCR,2024-06-11_12h18.01.124,LearnStrategy,2023.2.3,Win32,60.60606061,1,1,14,0.553385417,0.057291667,1,0,0,1.0815,Andesite_14,1,14,4,8,1.082,1,14,0.0546875,-0.264322917,1,0,0,6.3672,Diorite_rect,3,6.367,0,13,0,13,0,1,,,,,,,,,,,,,
5b9c2c816f92f30001ecce7a,SCR,2024-06-11_12h18.01.124,LearnStrategy,2023.2.3,Win32,60.60606061,1,1,15,0.075520833,0.283854167,1,0,0,1.195,Peridotite_07,7,07,5,5,1.195,7,07,-0.079427083,-0.255208333,1,0,0,3.2428,Basalt_rect,2,3.243,0,14,0,14,0,1,,,,,,,,,,,,,
5b9c2c816f92f30001ecce7a,SCR,2024-06-11_12h18.01.124,LearnStrategy,2023.2.3,Win32,60.60606061,1,1,16,-0.217447917,0.381510417,1,0,0,1.2516,Diorite_13,3,13,6,3,1.252,3,13,0.104166667,-0.2578125,1,0,0,2.0093,Diorite_rect,3,2.009,1,15,0,15,0,1,,,,,,,,,,,,,
5b9c2c816f92f30001ecce7a,SCR,2024-06-11_12h18.01.124,LearnStrategy,2023.2.3,Win32,60.60606061,1,2,1,,,,,,,,4,16,,,,,,,,,,,,,2,2.877,0,,,,,,-0.087239583,-0.234375,1,0,0,2.8769,Basalt_rect,0,0,0,0,1,
5b9c2c816f92f30001ecce7a,SCR,2024-06-11_12h18.01.124,LearnStrategy,2023.2.3,Win32,60.60606061,1,2,2,,,,,,,,7,08,,,,,,,,,,,,,7,9.556,1,,,,,,0.049479167,-0.411458333,1,0,0,9.5557,Peridotite_rect,1,0,1,0,1,
5b9c2c816f92f30001ecce7a,SCR,2024-06-11_12h18.01.124,LearnStrategy,2023.2.3,Win32,60.60606061,1,2,3,,,,,,,,2,08,,,,,,,,,,,,,5,1.727,0,,,,,,-0.345052083,-0.4140625,1,0,0,1.7272,Obsidian_rect,2,0,2,0,1,
5b9c2c816f92f30001ecce7a,SCR,2024-06-11_12h18.01.124,LearnStrategy,2023.2.3,Win32,60.60606061,1,2,4,,,,,,,,6,15,,,,,,,,,,,,,3,6.144,0,,,,,,0.106770833,-0.270833333,1,0,0,6.1435,Diorite_rect,3,0,3,0,1,
5b9c2c816f92f30001ecce7a,SCR,2024-06-11_12h18.01.124,LearnStrategy,2023.2.3,Win32,60.60606061,1,2,5,,,,,,,,5,12,,,,,,,,,,,,,5,1.174,1,,,,,,-0.341145833,-0.40625,1,0,0,1.1743,Obsidian_rect,4,0,4,0,1,
5b9c2c816f92f30001ecce7a,SCR,2024-06-11_12h18.01.124,LearnStrategy,2023.2.3,Win32,60.60606061,1,2,6,,,,,,,,6,12,,,,,,,,,,,,,6,11.585,1,,,,,,-0.13671875,-0.391927083,1,0,0,11.5845,Pegmatite_rect,5,0,5,0,1,
5b9c2c816f92f30001ecce7a,SCR,2024-06-11_12h18.01.124,LearnStrategy,2023.2.3,Win32,60.60606061,1,2,7,,,,,,,,2,02,,,,,,,,,,,,,4,3.731,0,,,,,,0.348958333,-0.259114583,1,0,0,3.731,Gabbro_rect,6,0,6,0,1,
5b9c2c816f92f30001ecce7a,SCR,2024-06-11_12h18.01.124,LearnStrategy,2023.2.3,Win32,60.60606061,1,2,8,,,,,,,,1,11,,,,,,,,,,,,,3,3.673,0,,,,,,0.078125,-0.259114583,1,0,0,3.6734,Diorite_rect,7,0,7,0,1,
5b9c2c816f92f30001ecce7a,SCR,2024-06-11_12h18.01.124,LearnStrategy,2023.2.3,Win32,60.60606061,1,2,9,,,,,,,,4,03,,,,,,,,,,,,,2,2.155,0,,,,,,-0.0703125,-0.243489583,1,0,0,2.1545,Basalt_rect,8,0,8,0,1,
5b9c2c816f92f30001ecce7a,SCR,2024-06-11_12h18.01.124,LearnStrategy,2023.2.3,Win32,60.60606061,1,2,10,,,,,,,,7,10,,,,,,,,,,,,,6,4.24,0,,,,,,-0.100260417,-0.407552083,1,0,0,4.24,Pegmatite_rect,9,0,9,0,1,
5b9c2c816f92f30001ecce7a,SCR,2024-06-11_12h18.01.124,LearnStrategy,2023.2.3,Win32,60.60606061,1,2,11,,,,,,,,8,10,,,,,,,,,,,,,8,1.827,1,,,,,,0.380208333,-0.41015625,1,0,0,1.8269,Pumice_rect,10,0,10,0,1,
5b9c2c816f92f30001ecce7a,SCR,2024-06-11_12h18.01.124,LearnStrategy,2023.2.3,Win32,60.60606061,1,2,12,,,,,,,,3,10,,,,,,,,,,,,,3,2.107,1,,,,,,0.063802083,-0.2578125,1,0,0,2.1075,Diorite_rect,11,0,11,0,1,
5b9c2c816f92f30001ecce7a,SCR,2024-06-11_12h18.01.124,LearnStrategy,2023.2.3,Win32,60.60606061,1,2,13,,,,,,,,3,12,,,,,,,,,,,,,3,1.063,1,,,,,,0.063802083,-0.2578125,1,0,0,1.0625,Diorite_rect,12,0,12,0,1,
5b9c2c816f92f30001ecce7a,SCR,2024-06-11_12h18.01.124,LearnStrategy,2023.2.3,Win32,60.60606061,1,2,14,,,,,,,,8,04,,,,,,,,,,,,,8,4.998,1,,,,,,0.372395833,-0.411458333,1,0,0,4.9977,Pumice_rect,13,0,13,0,1,
5b9c2c816f92f30001ecce7a,SCR,2024-06-11_12h18.01.124,LearnStrategy,2023.2.3,Win32,60.60606061,1,2,15,,,,,,,,1,01,,,,,,,,,,,,,3,3.505,0,,,,,,0.083333333,-0.264322917,1,0,0,3.5054,Diorite_rect,14,0,14,0,1,
5b9c2c816f92f30001ecce7a,SCR,2024-06-11_12h18.01.124,LearnStrategy,2023.2.3,Win32,60.60606061,1,2,16,,,,,,,,5,08,,,,,,,,,,,,,5,2.008,1,,,,,,-0.380208333,-0.407552083,1,0,0,2.0079,Obsidian_rect,15,0,15,0,1,
5b9c2c816f92f30001ecce7a,SCR,2024-06-11_12h18.01.124,LearnStrategy,2023.2.3,Win32,60.60606061,2,1,1,-0.391927083,0.252604167,1,0,0,4.0372,Obsidian_14,5,14,5,2,4.037,5,14,-0.40234375,-0.385416667,1,0,0,2.2651,Obsidian_rect,5,2.265,1,0,0,0,0,1,,,,,,,,,,,,,
5b9c2c816f92f30001ecce7a,SCR,2024-06-11_12h18.01.124,LearnStrategy,2023.2.3,Win32,60.60606061,2,1,2,0.561197917,0.057291667,1,0,0,1.1256,Andesite_14,1,14,4,8,1.126,1,14,0.1171875,-0.229166667,1,0,0,3.2572,Diorite_rect,3,3.257,0,1,0,1,0,1,,,,,,,,,,,,,
5b9c2c816f92f30001ecce7a,SCR,2024-06-11_12h18.01.124,LearnStrategy,2023.2.3,Win32,60.60606061,2,1,3,-0.276041667,-0.45703125,1,0,0,1.3035,Basalt_16,2,16,1,3,1.303,2,16,-0.135416667,-0.25,1,0,0,0.9197,Basalt_rect,2,0.92,1,2,0,2,0,1,,,,,,,,,,,,,
5b9c2c816f92f30001ecce7a,SCR,2024-06-11_12h18.01.124,LearnStrategy,2023.2.3,Win32,60.60606061,2,1,4,-0.536458333,-0.375,1,0,0,1.3581,Gabbro_10,4,10,1,1,1.358,4,10,0.329427083,-0.239583333,1,0,0,1.9608,Gabbro_rect,4,1.961,1,3,0,3,0,1,,,,,,,,,,,,,
5b9c2c816f92f30001ecce7a,SCR,2024-06-11_12h18.01.124,LearnStrategy,2023.2.3,Win32,60.60606061,2,1,5,-0.540364583,0.368489583,1,0,0,1.5354,Andesite_02,1,02,6,1,1.535,1,02,-0.106770833,-0.415364583,1,0,0,2.8329,Pegmatite_rect,6,2.833,0,4,0,4,0,1,,,,,,,,,,,,,
5b9c2c816f92f30001ecce7a,SCR,2024-06-11_12h18.01.124,LearnStrategy,2023.2.3,Win32,60.60606061,2,1,6,-0.497395833,0.09765625,1,0,0,2.0542,Peridotite_02,7,02,4,1,2.054,7,02,0.135416667,-0.268229167,1,0,0,2.1771,Diorite_rect,3,2.177,0,5,0,5,0,1,,,,,,,,,,,,,
5b9c2c816f92f30001ecce7a,SCR,2024-06-11_12h18.01.124,LearnStrategy,2023.2.3,Win32,60.60606061,2,1,7,0.384114583,-0.259114583,1,0,0,1.2154,Gabbro_01,4,01,2,7,1.215,4,01,-0.162760417,-0.419270833,1,0,0,3.2471,Pegmatite_rect,6,3.247,0,6,0,6,0,1,,,,,,,,,,,,,
5b9c2c816f92f30001ecce7a,SCR,2024-06-11_12h18.01.124,LearnStrategy,2023.2.3,Win32,60.60606061,2,1,8,-0.109375,0.141927083,1,0,0,1.1198,Basalt_12,2,12,4,4,1.12,2,12,0.42578125,-0.259114583,1,0,0,2.7447,Gabbro_rect,4,2.745,0,7,0,7,0,1,,,,,,,,,,,,,
5b9c2c816f92f30001ecce7a,SCR,2024-06-11_12h18.01.124,LearnStrategy,2023.2.3,Win32,60.60606061,2,1,9,-0.06640625,0.264322917,1,0,0,1.1645,Basalt_10,2,10,5,4,1.165,2,10,-0.111979167,-0.256510417,1,0,0,0.9017,Basalt_rect,2,0.902,1,8,0,8,0,1,,,,,,,,,,,,,
5b9c2c816f92f30001ecce7a,SCR,2024-06-11_12h18.01.124,LearnStrategy,2023.2.3,Win32,60.60606061,2,1,10,-0.04296875,-0.3671875,1,0,0,1.0242,Diorite_11,3,11,1,4,1.024,3,11,0.1484375,-0.390625,1,0,0,2.6302,Peridotite_rect,7,2.63,0,9,0,9,0,1,,,,,,,,,,,,,
5b9c2c816f92f30001ecce7a,SCR,2024-06-11_12h18.01.124,LearnStrategy,2023.2.3,Win32,60.60606061,2,1,11,0.0859375,-0.411458333,1,0,0,1.0422,Basalt_11,2,11,1,5,1.042,2,11,0.403645833,-0.38671875,1,0,0,1.534,Pumice_rect,8,1.534,0,10,0,10,0,1,,,,,,,,,,,,,
5b9c2c816f92f30001ecce7a,SCR,2024-06-11_12h18.01.124,LearnStrategy,2023.2.3,Win32,60.60606061,2,1,12,0.248697917,0.4140625,1,0,0,84.5536,Gabbro_12,4,12,6,6,84.554,4,12,-0.337239583,-0.248697917,1,0,0,6.2644,Andesite_rect,1,6.264,0,11,0,11,0,1,,,,,,,,,,,,,
5b9c2c816f92f30001ecce7a,SCR,2024-06-11_12h18.01.124,LearnStrategy,2023.2.3,Win32,60.60606061,2,1,13,0.592447917,0.26953125,1,0,0,1.4251,Pegmatite_10,6,10,5,8,1.425,6,10,-0.352864583,-0.239583333,1,0,0,2.725,Andesite_rect,1,2.725,0,12,0,12,0,1,,,,,,,,,,,,,
5b9c2c816f92f30001ecce7a,SCR,2024-06-11_12h18.01.124,LearnStrategy,2023.2.3,Win32,60.60606061,2,1,14,-0.514322917,0.065104167,1,0,0,1.0813,Peridotite_02,7,02,4,1,1.081,7,02,0.07421875,-0.395833333,1,0,0,1.9194,Peridotite_rect,7,1.919,1,13,0,13,0,1,,,,,,,,,,,,,
5b9c2c816f92f30001ecce7a,SCR,2024-06-11_12h18.01.124,LearnStrategy,2023.2.3,Win32,60.60606061,2,1,15,0.053385417,-0.26953125,1,0,0,1.0523,Pegmatite_07,6,07,2,5,1.052,6,07,-0.395833333,-0.240885417,1,0,0,4.2451,Andesite_rect,1,4.245,0,14,0,14,0,1,,,,,,,,,,,,,
5b9c2c816f92f30001ecce7a,SCR,2024-06-11_12h18.01.124,LearnStrategy,2023.2.3,Win32,60.60606061,2,1,16,0.071614583,0.450520833,1,0,0,1.3855,Andesite_04,1,04,6,5,1.386,1,04,0.111979167,-0.243489583,1,0,0,2.253,Diorite_rect,3,2.253,0,15,0,15,0,1,,,,,,,,,,,,,
5b9c2c816f92f30001ecce7a,SCR,2024-06-11_12h18.01.124,LearnStrategy,2023.2.3,Win32,60.60606061,2,2,1,,,,,,,,5,16,,,,,,,,,,,,,5,1.418,1,,,,,,-0.427083333,-0.416666667,1,0,0,1.4178,Obsidian_rect,0,0,0,0,1,
5b9c2c816f92f30001ecce7a,SCR,2024-06-11_12h18.01.124,LearnStrategy,2023.2.3,Win32,60.60606061,2,2,2,,,,,,,,8,05,,,,,,,,,,,,,8,2.271,1,,,,,,0.395833333,-0.40625,1,0,0,2.2709,Pumice_rect,1,0,1,0,1,
5b9c2c816f92f30001ecce7a,SCR,2024-06-11_12h18.01.124,LearnStrategy,2023.2.3,Win32,60.60606061,2,2,3,,,,,,,,7,13,,,,,,,,,,,,,7,4.471,1,,,,,,0.12109375,-0.395833333,1,0,0,4.471,Peridotite_rect,2,0,2,0,1,
5b9c2c816f92f30001ecce7a,SCR,2024-06-11_12h18.01.124,LearnStrategy,2023.2.3,Win32,60.60606061,2,2,4,,,,,,,,1,09,,,,,,,,,,,,,4,5.258,0,,,,,,0.368489583,-0.25390625,1,0,0,5.2579,Gabbro_rect,3,0,3,0,1,
5b9c2c816f92f30001ecce7a,SCR,2024-06-11_12h18.01.124,LearnStrategy,2023.2.3,Win32,60.60606061,2,2,5,,,,,,,,3,16,,,,,,,,,,,,,3,6.362,1,,,,,,0.157552083,-0.25,1,0,0,6.3623,Diorite_rect,4,0,4,0,1,
5b9c2c816f92f30001ecce7a,SCR,2024-06-11_12h18.01.124,LearnStrategy,2023.2.3,Win32,60.60606061,2,2,6,,,,,,,,6,08,,,,,,,,,,,,,5,3.831,0,,,,,,-0.389322917,-0.4140625,1,0,0,3.8312,Obsidian_rect,5,0,5,0,1,
5b9c2c816f92f30001ecce7a,SCR,2024-06-11_12h18.01.124,LearnStrategy,2023.2.3,Win32,60.60606061,2,2,7,,,,,,,,8,03,,,,,,,,,,,,,8,2.263,1,,,,,,0.354166667,-0.41796875,1,0,0,2.2633,Pumice_rect,6,0,6,0,1,
5b9c2c816f92f30001ecce7a,SCR,2024-06-11_12h18.01.124,LearnStrategy,2023.2.3,Win32,60.60606061,2,2,8,,,,,,,,7,06,,,,,,,,,,,,,7,2.928,1,,,,,,0.032552083,-0.403645833,1,0,0,2.9283,Peridotite_rect,7,0,7,0,1,
5b9c2c816f92f30001ecce7a,SCR,2024-06-11_12h18.01.124,LearnStrategy,2023.2.3,Win32,60.60606061,2,2,9,,,,,,,,5,02,,,,,,,,,,,,,5,1.287,1,,,,,,-0.401041667,-0.412760417,1,0,0,1.2871,Obsidian_rect,8,0,8,0,1,
5b9c2c816f92f30001ecce7a,SCR,2024-06-11_12h18.01.124,LearnStrategy,2023.2.3,Win32,60.60606061,2,2,10,,,,,,,,2,14,,,,,,,,,,,,,2,1.577,1,,,,,,-0.2109375,-0.25390625,1,0,0,1.5773,Basalt_rect,9,0,9,0,1,
5b9c2c816f92f30001ecce7a,SCR,2024-06-11_12h18.01.124,LearnStrategy,2023.2.3,Win32,60.60606061,2,2,11,,,,,,,,2,01,,,,,,,,,,,,,4,2.87,0,,,,,,0.479166667,-0.25390625,1,0,0,2.87,Gabbro_rect,10,0,10,0,1,
5b9c2c816f92f30001ecce7a,SCR,2024-06-11_12h18.01.124,LearnStrategy,2023.2.3,Win32,60.60606061,2,2,12,,,,,,,,3,06,,,,,,,,,,,,,3,1.86,1,,,,,,0.1015625,-0.259114583,1,0,0,1.8604,Diorite_rect,11,0,11,0,1,
5b9c2c816f92f30001ecce7a,SCR,2024-06-11_12h18.01.124,LearnStrategy,2023.2.3,Win32,60.60606061,2,2,13,,,,,,,,4,14,,,,,,,,,,,,,2,1.268,0,,,,,,-0.06640625,-0.26953125,1,0,0,1.2681,Basalt_rect,12,0,12,0,1,
5b9c2c816f92f30001ecce7a,SCR,2024-06-11_12h18.01.124,LearnStrategy,2023.2.3,Win32,60.60606061,2,2,14,,,,,,,,1,16,,,,,,,,,,,,,1,1.646,1,,,,,,-0.373697917,-0.244791667,1,0,0,1.6464,Andesite_rect,13,0,13,0,1,
5b9c2c816f92f30001ecce7a,SCR,2024-06-11_12h18.01.124,LearnStrategy,2023.2.3,Win32,60.60606061,2,2,15,,,,,,,,6,11,,,,,,,,,,,,,5,1.31,0,,,,,,-0.352864583,-0.408854167,1,0,0,1.3095,Obsidian_rect,14,0,14,0,1,
5b9c2c816f92f30001ecce7a,SCR,2024-06-11_12h18.01.124,LearnStrategy,2023.2.3,Win32,60.60606061,2,2,16,,,,,,,,4,13,,,,,,,,,,,,,3,2.563,0,,,,,,0.069010417,-0.23828125,1,0,0,2.5634,Diorite_rect,15,0,15,0,1,
5b9c2c816f92f30001ecce7a,SCR,2024-06-11_12h18.01.124,LearnStrategy,2023.2.3,Win32,60.60606061,3,1,1,0.05859375,0.098958333,1,0,0,0.8277,Andesite_05,1,05,4,5,0.828,1,05,0.177083333,-0.251302083,1,0,0,1.9068,Diorite_rect,3,1.907,0,0,0,0,0,1,,,,,,,,,,,,,
5b9c2c816f92f30001ecce7a,SCR,2024-06-11_12h18.01.124,LearnStrategy,2023.2.3,Win32,60.60606061,3,1,2,-0.373697917,-0.404947917,1,0,0,1.3717,Gabbro_15,4,15,1,2,1.372,4,15,0.12109375,-0.256510417,1,0,0,3.5572,Diorite_rect,3,3.557,0,1,0,1,0,1,,,,,,,,,,,,,
5b9c2c816f92f30001ecce7a,SCR,2024-06-11_12h18.01.124,LearnStrategy,2023.2.3,Win32,60.60606061,3,1,3,0.095052083,-0.2421875,1,0,0,0.6765,Pegmatite_07,6,07,2,5,0.677,6,07,-0.328125,-0.397135417,1,0,0,2.8835,Obsidian_rect,5,2.883,0,2,0,2,0,1,,,,,,,,,,,,,
5b9c2c816f92f30001ecce7a,SCR,2024-06-11_12h18.01.124,LearnStrategy,2023.2.3,Win32,60.60606061,3,1,4,-0.1015625,0.143229167,1,0,0,0.7089,Basalt_12,2,12,4,4,0.709,2,12,0.442708333,-0.421875,1,0,0,0.9993,Pumice_rect,8,0.999,0,3,0,3,0,1,,,,,,,,,,,,,
5b9c2c816f92f30001ecce7a,SCR,2024-06-11_12h18.01.124,LearnStrategy,2023.2.3,Win32,60.60606061,3,1,5,-0.20703125,-0.376302083,1,0,0,1.0772,Basalt_16,2,16,1,3,1.077,2,16,-0.158854167,-0.266927083,1,0,0,0.9283,Basalt_rect,2,0.928,1,4,0,4,0,1,,,,,,,,,,,,,
5b9c2c816f92f30001ecce7a,SCR,2024-06-11_12h18.01.124,LearnStrategy,2023.2.3,Win32,60.60606061,3,1,6,0.05859375,0.080729167,1,0,0,1.3644,Andesite_05,1,05,4,5,1.364,1,05,-0.354166667,-0.240885417,1,0,0,3.15,Andesite_rect,1,3.15,1,5,0,5,0,1,,,,,,,,,,,,,
5b9c2c816f92f30001ecce7a,SCR,2024-06-11_12h18.01.124,LearnStrategy,2023.2.3,Win32,60.60606061,3,1,7,-0.356770833,0.264322917,1,0,0,0.9662,Obsidian_14,5,14,5,2,0.966,5,14,-0.35546875,-0.416666667,1,0,0,1.5106,Obsidian_rect,5,1.511,1,6,0,6,0,1,,,,,,,,,,,,,
5b9c2c816f92f30001ecce7a,SCR,2024-06-11_12h18.01.124,LearnStrategy,2023.2.3,Win32,60.60606061,3,1,8,-0.033854167,0.26171875,1,0,0,1.0662,Basalt_10,2,10,5,4,1.066,2,10,-0.114583333,-0.231770833,1,0,0,0.9658,Basalt_rect,2,0.966,1,7,0,7,0,1,,,,,,,,,,,,,
5b9c2c816f92f30001ecce7a,SCR,2024-06-11_12h18.01.124,LearnStrategy,2023.2.3,Win32,60.60606061,3,1,9,0.381510417,-0.27734375,1,0,0,1.0947,Gabbro_01,4,01,2,7,1.095,4,01,0.423177083,-0.263020833,1,0,0,4.5177,Gabbro_rect,4,4.518,1,8,0,8,0,1,,,,,,,,,,,,,
5b9c2c816f92f30001ecce7a,SCR,2024-06-11_12h18.01.124,LearnStrategy,2023.2.3,Win32,60.60606061,3,1,10,-0.072916667,0.412760417,1,0,0,1.1809,Gabbro_05,4,05,6,4,1.181,4,05,0.095052083,-0.390625,1,0,0,2.3268,Peridotite_rect,7,2.327,0,9,0,9,0,1,,,,,,,,,,,,,
5b9c2c816f92f30001ecce7a,SCR,2024-06-11_12h18.01.124,LearnStrategy,2023.2.3,Win32,60.60606061,3,1,11,-0.545572917,-0.393229167,1,0,0,1.3982,Gabbro_10,4,10,1,1,1.398,4,10,0.450520833,-0.23046875,1,0,0,14.8647,Gabbro_rect,4,14.865,1,10,0,10,0,1,,,,,,,,,,,,,
5b9c2c816f92f30001ecce7a,SCR,2024-06-11_12h18.01.124,LearnStrategy,2023.2.3,Win32,60.60606061,3,1,12,-0.420572917,-0.09375,1,0,0,0.7857,Peridotite_05,7,05,3,2,0.786,7,05,0.057291667,-0.407552083,1,0,0,2.1622,Peridotite_rect,7,2.162,1,11,0,11,0,1,,,,,,,,,,,,,
5b9c2c816f92f30001ecce7a,SCR,2024-06-11_12h18.01.124,LearnStrategy,2023.2.3,Win32,60.60606061,3,1,13,-0.53125,0.447916667,1,0,0,1.407,Andesite_02,1,02,6,1,1.407,1,02,-0.359375,-0.26953125,1,0,0,4.0472,Andesite_rect,1,4.047,1,12,0,12,0,1,,,,,,,,,,,,,
5b9c2c816f92f30001ecce7a,SCR,2024-06-11_12h18.01.124,LearnStrategy,2023.2.3,Win32,60.60606061,3,1,14,0.401041667,0.256510417,1,0,0,1.0589,Diorite_07,3,07,5,7,1.059,3,07,0.147135417,-0.229166667,1,0,0,2.4619,Diorite_rect,3,2.462,1,13,0,13,0,1,,,,,,,,,,,,,
5b9c2c816f92f30001ecce7a,SCR,2024-06-11_12h18.01.124,LearnStrategy,2023.2.3,Win32,60.60606061,3,1,15,-0.563802083,0.283854167,1,0,0,1.3183,Pegmatite_16,6,16,5,1,1.318,6,16,-0.3828125,-0.38671875,1,0,0,3.2075,Obsidian_rect,5,3.207,0,14,0,14,0,1,,,,,,,,,,,,,
5b9c2c816f92f30001ecce7a,SCR,2024-06-11_12h18.01.124,LearnStrategy,2023.2.3,Win32,60.60606061,3,1,16,-0.567708333,-0.08984375,1,0,0,4.2725,Pegmatite_13,6,13,3,1,4.273,6,13,-0.153645833,-0.40625,1,0,0,2.4498,Pegmatite_rect,6,2.45,1,15,0,15,0,1,,,,,,,,,,,,,
5b9c2c816f92f30001ecce7a,SCR,2024-06-11_12h18.01.124,LearnStrategy,2023.2.3,Win32,60.60606061,3,2,1,,,,,,,,6,09,,,,,,,,,,,,,5,2.196,0,,,,,,-0.45703125,-0.41796875,1,0,0,2.1963,Obsidian_rect,0,0,0,0,1,
5b9c2c816f92f30001ecce7a,SCR,2024-06-11_12h18.01.124,LearnStrategy,2023.2.3,Win32,60.60606061,3,2,2,,,,,,,,8,06,,,,,,,,,,,,,8,2.688,1,,,,,,0.34765625,-0.41796875,1,0,0,2.6878,Pumice_rect,1,0,1,0,1,
5b9c2c816f92f30001ecce7a,SCR,2024-06-11_12h18.01.124,LearnStrategy,2023.2.3,Win32,60.60606061,3,2,3,,,,,,,,3,08,,,,,,,,,,,,,3,6.719,1,,,,,,0.111979167,-0.26953125,1,0,0,6.7186,Diorite_rect,2,0,2,0,1,
5b9c2c816f92f30001ecce7a,SCR,2024-06-11_12h18.01.124,LearnStrategy,2023.2.3,Win32,60.60606061,3,2,4,,,,,,,,1,06,,,,,,,,,,,,,1,4.417,1,,,,,,-0.359375,-0.231770833,1,0,0,4.4172,Andesite_rect,3,0,3,0,1,
5b9c2c816f92f30001ecce7a,SCR,2024-06-11_12h18.01.124,LearnStrategy,2023.2.3,Win32,60.60606061,3,2,5,,,,,,,,5,11,,,,,,,,,,,,,5,0.992,1,,,,,,-0.341145833,-0.397135417,1,0,0,0.9918,Obsidian_rect,4,0,4,0,1,
5b9c2c816f92f30001ecce7a,SCR,2024-06-11_12h18.01.124,LearnStrategy,2023.2.3,Win32,60.60606061,3,2,6,,,,,,,,3,14,,,,,,,,,,,,,3,4.483,1,,,,,,0.098958333,-0.26171875,1,0,0,4.4829,Diorite_rect,5,0,5,0,1,
5b9c2c816f92f30001ecce7a,SCR,2024-06-11_12h18.01.124,LearnStrategy,2023.2.3,Win32,60.60606061,3,2,7,,,,,,,,7,16,,,,,,,,,,,,,7,1.318,1,,,,,,0.1171875,-0.391927083,1,0,0,1.3184,Peridotite_rect,6,0,6,0,1,
5b9c2c816f92f30001ecce7a,SCR,2024-06-11_12h18.01.124,LearnStrategy,2023.2.3,Win32,60.60606061,3,2,8,,,,,,,,2,04,,,,,,,,,,,,,2,1.567,1,,,,,,-0.106770833,-0.259114583,1,0,0,1.5671,Basalt_rect,7,0,7,0,1,
5b9c2c816f92f30001ecce7a,SCR,2024-06-11_12h18.01.124,LearnStrategy,2023.2.3,Win32,60.60606061,3,2,9,,,,,,,,4,09,,,,,,,,,,,,,4,1.847,1,,,,,,0.450520833,-0.255208333,1,0,0,1.8474,Gabbro_rect,8,0,8,0,1,
5b9c2c816f92f30001ecce7a,SCR,2024-06-11_12h18.01.124,LearnStrategy,2023.2.3,Win32,60.60606061,3,2,10,,,,,,,,7,15,,,,,,,,,,,,,7,1.232,1,,,,,,0.1484375,-0.388020833,1,0,0,1.2315,Peridotite_rect,9,0,9,0,1,
5b9c2c816f92f30001ecce7a,SCR,2024-06-11_12h18.01.124,LearnStrategy,2023.2.3,Win32,60.60606061,3,2,11,,,,,,,,5,06,,,,,,,,,,,,,5,1.162,1,,,,,,-0.397135417,-0.401041667,1,0,0,1.1622,Obsidian_rect,10,0,10,0,1,
5b9c2c816f92f30001ecce7a,SCR,2024-06-11_12h18.01.124,LearnStrategy,2023.2.3,Win32,60.60606061,3,2,12,,,,,,,,2,06,,,,,,,,,,,,,5,1.6,0,,,,,,-0.397135417,-0.401041667,1,0,0,1.6,Obsidian_rect,11,0,11,0,1,
5b9c2c816f92f30001ecce7a,SCR,2024-06-11_12h18.01.124,LearnStrategy,2023.2.3,Win32,60.60606061,3,2,13,,,,,,,,1,07,,,,,,,,,,,,,3,3.695,0,,,,,,0.127604167,-0.259114583,1,0,0,3.6945,Diorite_rect,12,0,12,0,1,
5b9c2c816f92f30001ecce7a,SCR,2024-06-11_12h18.01.124,LearnStrategy,2023.2.3,Win32,60.60606061,3,2,14,,,,,,,,4,11,,,,,,,,,,,,,4,2.093,1,,,,,,0.404947917,-0.25,1,0,0,2.0928,Gabbro_rect,13,0,13,0,1,
5b9c2c816f92f30001ecce7a,SCR,2024-06-11_12h18.01.124,LearnStrategy,2023.2.3,Win32,60.60606061,3,2,15,,,,,,,,8,16,,,,,,,,,,,,,8,1.793,1,,,,,,0.41015625,-0.37890625,1,0,0,1.7927,Pumice_rect,14,0,14,0,1,
5b9c2c816f92f30001ecce7a,SCR,2024-06-11_12h18.01.124,LearnStrategy,2023.2.3,Win32,60.60606061,3,2,16,,,,,,,,6,05,,,,,,,,,,,,,5,1.891,0,,,,,,-0.354166667,-0.397135417,1,0,0,1.8909,Obsidian_rect,15,0,15,0,1,
5b9c2c816f92f30001ecce7a,SCR,2024-06-11_12h18.01.124,LearnStrategy,2023.2.3,Win32,60.60606061,4,1,1,-0.54296875,-0.41015625,1,0,0,2.1948,Gabbro_10,4,10,1,1,2.195,4,10,0.356770833,-0.270833333,1,0,0,1.7904,Gabbro_rect,4,1.79,1,0,0,0,0,1,,,,,,,,,,,,,
5b9c2c816f92f30001ecce7a,SCR,2024-06-11_12h18.01.124,LearnStrategy,2023.2.3,Win32,60.60606061,4,1,2,0.25390625,-0.091145833,1,0,0,0.8778,Pegmatite_03,6,03,3,6,0.878,6,03,-0.33203125,-0.38671875,1,0,0,3.3775,Obsidian_rect,5,3.377,0,1,0,1,0,1,,,,,,,,,,,,,
5b9c2c816f92f30001ecce7a,SCR,2024-06-11_12h18.01.124,LearnStrategy,2023.2.3,Win32,60.60606061,4,1,3,0.037760417,0.092447917,1,0,0,0.8358,Andesite_05,1,05,4,5,0.836,1,05,-0.330729167,-0.229166667,1,0,0,1.4909,Andesite_rect,1,1.491,1,2,0,2,0,1,,,,,,,,,,,,,
5b9c2c816f92f30001ecce7a,SCR,2024-06-11_12h18.01.124,LearnStrategy,2023.2.3,Win32,60.60606061,4,1,4,-0.526041667,0.3984375,1,0,0,0.8988,Andesite_02,1,02,6,1,0.899,1,02,-0.391927083,-0.229166667,1,0,0,3.7804,Andesite_rect,1,3.78,1,3,0,3,0,1,,,,,,,,,,,,,
5b9c2c816f92f30001ecce7a,SCR,2024-06-11_12h18.01.124,LearnStrategy,2023.2.3,Win32,60.60606061,4,1,5,0.095052083,-0.25,1,0,0,0.7286,Pegmatite_07,6,07,2,5,0.729,6,07,-0.3203125,-0.390625,1,0,0,1.7077,Obsidian_rect,5,1.708,0,4,0,4,0,1,,,,,,,,,,,,,
5b9c2c816f92f30001ecce7a,SCR,2024-06-11_12h18.01.124,LearnStrategy,2023.2.3,Win32,60.60606061,4,1,6,-0.244791667,0.423177083,1,0,0,1.3127,Diorite_13,3,13,6,3,1.313,3,13,0.106770833,-0.256510417,1,0,0,1.0571,Diorite_rect,3,1.057,1,5,0,5,0,1,,,,,,,,,,,,,
5b9c2c816f92f30001ecce7a,SCR,2024-06-11_12h18.01.124,LearnStrategy,2023.2.3,Win32,60.60606061,4,1,7,0.216145833,0.079427083,1,0,0,1.1631,Gabbro_08,4,08,4,6,1.163,4,08,0.395833333,-0.229166667,1,0,0,1.5448,Gabbro_rect,4,1.545,1,6,0,6,0,1,,,,,,,,,,,,,
5b9c2c816f92f30001ecce7a,SCR,2024-06-11_12h18.01.124,LearnStrategy,2023.2.3,Win32,60.60606061,4,1,8,-0.37109375,-0.084635417,1,0,0,0.8317,Peridotite_05,7,05,3,2,0.832,7,05,0.12109375,-0.408854167,1,0,0,1.4879,Peridotite_rect,7,1.488,1,7,0,7,0,1,,,,,,,,,,,,,
5b9c2c816f92f30001ecce7a,SCR,2024-06-11_12h18.01.124,LearnStrategy,2023.2.3,Win32,60.60606061,4,1,9,0.588541667,-0.404947917,1,0,0,0.9883,Obsidian_05,5,05,1,8,0.988,5,05,-0.3515625,-0.40234375,1,0,0,1.1432,Obsidian_rect,5,1.143,1,8,0,8,0,1,,,,,,,,,,,,,
5b9c2c816f92f30001ecce7a,SCR,2024-06-11_12h18.01.124,LearnStrategy,2023.2.3,Win32,60.60606061,4,1,10,0.110677083,-0.209635417,1,0,0,0.6697,Pegmatite_07,6,07,2,5,0.67,6,07,-0.087239583,-0.404947917,1,0,0,1.5267,Pegmatite_rect,6,1.527,1,9,0,9,0,1,,,,,,,,,,,,,
5b9c2c816f92f30001ecce7a,SCR,2024-06-11_12h18.01.124,LearnStrategy,2023.2.3,Win32,60.60606061,4,1,11,0.080729167,0.416666667,1,0,0,1.1918,Andesite_04,1,04,6,5,1.192,1,04,-0.37109375,-0.244791667,1,0,0,4.6636,Andesite_rect,1,4.664,1,10,0,10,0,1,,,,,,,,,,,,,
5b9c2c816f92f30001ecce7a,SCR,2024-06-11_12h18.01.124,LearnStrategy,2023.2.3,Win32,60.60606061,4,1,12,-0.063802083,0.305989583,1,0,0,1.0051,Basalt_10,2,10,5,4,1.005,2,10,-0.09375,-0.260416667,1,0,0,0.9207,Basalt_rect,2,0.921,1,11,0,11,0,1,,,,,,,,,,,,,
5b9c2c816f92f30001ecce7a,SCR,2024-06-11_12h18.01.124,LearnStrategy,2023.2.3,Win32,60.60606061,4,1,13,-0.23046875,0.096354167,1,0,0,1.1117,Basalt_05,2,05,4,3,1.112,2,05,-0.111979167,-0.239583333,1,0,0,2.1332,Basalt_rect,2,2.133,1,12,0,12,0,1,,,,,,,,,,,,,
5b9c2c816f92f30001ecce7a,SCR,2024-06-11_12h18.01.124,LearnStrategy,2023.2.3,Win32,60.60606061,4,1,14,0.557291667,-0.302083333,1,0,0,1.0492,Pegmatite_06,6,06,2,8,1.049,6,06,-0.12109375,-0.399739583,1,0,0,5.2071,Pegmatite_rect,6,5.207,1,13,0,13,0,1,,,,,,,,,,,,,
5b9c2c816f92f30001ecce7a,SCR,2024-06-11_12h18.01.124,LearnStrategy,2023.2.3,Win32,60.60606061,4,1,15,0.25,0.0625,1,0,0,0.7358,Gabbro_08,4,08,4,6,0.736,4,08,0.44921875,-0.240885417,1,0,0,1.3598,Gabbro_rect,4,1.36,1,14,0,14,0,1,,,,,,,,,,,,,
5b9c2c816f92f30001ecce7a,SCR,2024-06-11_12h18.01.124,LearnStrategy,2023.2.3,Win32,60.60606061,4,1,16,-0.122395833,0.0859375,1,0,0,0.6173,Basalt_12,2,12,4,4,0.617,2,12,0.447916667,-0.259114583,1,0,0,2.3195,Gabbro_rect,4,2.32,0,15,0,15,0,1,,,,,,,,,,,,,
5b9c2c816f92f30001ecce7a,SCR,2024-06-11_12h18.01.124,LearnStrategy,2023.2.3,Win32,60.60606061,4,2,1,,,,,,,,7,13,,,,,,,,,,,,,7,14.749,1,,,,,,0.1875,-0.395833333,1,0,0,14.7486,Peridotite_rect,0,0,0,0,1,
5b9c2c816f92f30001ecce7a,SCR,2024-06-11_12h18.01.124,LearnStrategy,2023.2.3,Win32,60.60606061,4,2,2,,,,,,,,2,02,,,,,,,,,,,,,2,2.762,1,,,,,,-0.055989583,-0.235677083,1,0,0,2.7623,Basalt_rect,1,0,1,0,1,
5b9c2c816f92f30001ecce7a,SCR,2024-06-11_12h18.01.124,LearnStrategy,2023.2.3,Win32,60.60606061,4,2,3,,,,,,,,1,09,,,,,,,,,,,,,4,2.221,0,,,,,,0.337239583,-0.251302083,1,0,0,2.2209,Gabbro_rect,2,0,2,0,1,
5b9c2c816f92f30001ecce7a,SCR,2024-06-11_12h18.01.124,LearnStrategy,2023.2.3,Win32,60.60606061,4,2,4,,,,,,,,6,11,,,,,,,,,,,,,6,8.254,1,,,,,,-0.118489583,-0.41796875,1,0,0,8.2544,Pegmatite_rect,3,0,3,0,1,
5b9c2c816f92f30001ecce7a,SCR,2024-06-11_12h18.01.124,LearnStrategy,2023.2.3,Win32,60.60606061,4,2,5,,,,,,,,6,12,,,,,,,,,,,,,3,4.382,0,,,,,,0.1640625,-0.239583333,1,0,0,4.382,Diorite_rect,4,0,4,0,1,
5b9c2c816f92f30001ecce7a,SCR,2024-06-11_12h18.01.124,LearnStrategy,2023.2.3,Win32,60.60606061,4,2,6,,,,,,,,5,16,,,,,,,,,,,,,5,2.52,1,,,,,,-0.365885417,-0.395833333,1,0,0,2.5198,Obsidian_rect,5,0,5,0,1,
5b9c2c816f92f30001ecce7a,SCR,2024-06-11_12h18.01.124,LearnStrategy,2023.2.3,Win32,60.60606061,4,2,7,,,,,,,,8,10,,,,,,,,,,,,,8,2.099,1,,,,,,0.4375,-0.401041667,1,0,0,2.0988,Pumice_rect,6,0,6,0,1,
5b9c2c816f92f30001ecce7a,SCR,2024-06-11_12h18.01.124,LearnStrategy,2023.2.3,Win32,60.60606061,4,2,8,,,,,,,,8,04,,,,,,,,,,,,,8,1.302,1,,,,,,0.415364583,-0.4140625,1,0,0,1.3018,Pumice_rect,7,0,7,0,1,
5b9c2c816f92f30001ecce7a,SCR,2024-06-11_12h18.01.124,LearnStrategy,2023.2.3,Win32,60.60606061,4,2,9,,,,,,,,4,16,,,,,,,,,,,,,2,2.307,0,,,,,,-0.059895833,-0.243489583,1,0,0,2.3072,Basalt_rect,8,0,8,0,1,
5b9c2c816f92f30001ecce7a,SCR,2024-06-11_12h18.01.124,LearnStrategy,2023.2.3,Win32,60.60606061,4,2,10,,,,,,,,2,14,,,,,,,,,,,,,2,1.685,1,,,,,,-0.059895833,-0.252604167,1,0,0,1.6846,Basalt_rect,9,0,9,0,1,
5b9c2c816f92f30001ecce7a,SCR,2024-06-11_12h18.01.124,LearnStrategy,2023.2.3,Win32,60.60606061,4,2,11,,,,,,,,3,06,,,,,,,,,,,,,1,6.895,0,,,,,,-0.325520833,-0.26171875,1,0,0,6.8948,Andesite_rect,10,0,10,0,1,
5b9c2c816f92f30001ecce7a,SCR,2024-06-11_12h18.01.124,LearnStrategy,2023.2.3,Win32,60.60606061,4,2,12,,,,,,,,3,12,,,,,,,,,,,,,1,1.478,0,,,,,,-0.325520833,-0.26171875,1,0,0,1.4778,Andesite_rect,11,0,11,0,1,
5b9c2c816f92f30001ecce7a,SCR,2024-06-11_12h18.01.124,LearnStrategy,2023.2.3,Win32,60.60606061,4,2,13,,,,,,,,4,14,,,,,,,,,,,,,2,1.193,0,,,,,,-0.122395833,-0.26171875,1,0,0,1.1932,Basalt_rect,12,0,12,0,1,
5b9c2c816f92f30001ecce7a,SCR,2024-06-11_12h18.01.124,LearnStrategy,2023.2.3,Win32,60.60606061,4,2,14,,,,,,,,7,06,,,,,,,,,,,,,7,1.209,1,,,,,,0.162760417,-0.3984375,1,0,0,1.2087,Peridotite_rect,13,0,13,0,1,
5b9c2c816f92f30001ecce7a,SCR,2024-06-11_12h18.01.124,LearnStrategy,2023.2.3,Win32,60.60606061,4,2,15,,,,,,,,1,06,,,,,,,,,,,,,4,4.253,0,,,,,,0.356770833,-0.243489583,1,0,0,4.2526,Gabbro_rect,14,0,14,0,1,
5b9c2c816f92f30001ecce7a,SCR,2024-06-11_12h18.01.124,LearnStrategy,2023.2.3,Win32,60.60606061,4,2,16,,,,,,,,5,08,,,,,,,,,,,,,5,1.274,1,,,,,,-0.393229167,-0.3984375,1,0,0,1.2736,Obsidian_rect,15,0,15,0,1,
5b9c2c816f92f30001ecce7a,SCR,2024-06-11_12h18.01.124,LearnStrategy,2023.2.3,Win32,60.60606061,5,1,1,0.08203125,-0.423177083,1,0,0,1.6912,Basalt_11,2,11,1,5,1.691,2,11,0.408854167,-0.248697917,1,0,0,2.3414,Gabbro_rect,4,2.341,0,0,0,0,0,1,,,,,,,,,,,,,
5b9c2c816f92f30001ecce7a,SCR,2024-06-11_12h18.01.124,LearnStrategy,2023.2.3,Win32,60.60606061,5,1,2,0.401041667,-0.299479167,1,0,0,1.2866,Gabbro_01,4,01,2,7,1.287,4,01,0.401041667,-0.240885417,1,0,0,1.5637,Gabbro_rect,4,1.564,1,1,0,1,0,1,,,,,,,,,,,,,
5b9c2c816f92f30001ecce7a,SCR,2024-06-11_12h18.01.124,LearnStrategy,2023.2.3,Win32,60.60606061,5,1,3,0.388020833,-0.0859375,1,0,0,0.9484,Diorite_15,3,15,3,7,0.948,3,15,0.16796875,-0.26171875,1,0,0,1.0413,Diorite_rect,3,1.041,1,2,0,2,0,1,,,,,,,,,,,,,
5b9c2c816f92f30001ecce7a,SCR,2024-06-11_12h18.01.124,LearnStrategy,2023.2.3,Win32,60.60606061,5,1,4,-0.427083333,0.401041667,1,0,0,1.0881,Andesite_03,1,03,6,2,1.088,1,03,0.399739583,-0.244791667,1,0,0,2.0661,Gabbro_rect,4,2.066,0,3,0,3,0,1,,,,,,,,,,,,,
5b9c2c816f92f30001ecce7a,SCR,2024-06-11_12h18.01.124,LearnStrategy,2023.2.3,Win32,60.60606061,5,1,5,0.270833333,0.436197917,1,0,0,1.2166,Gabbro_12,4,12,6,6,1.217,4,12,0.384114583,-0.236979167,1,0,0,1.929,Gabbro_rect,4,1.929,1,4,0,4,0,1,,,,,,,,,,,,,
5b9c2c816f92f30001ecce7a,SCR,2024-06-11_12h18.01.124,LearnStrategy,2023.2.3,Win32,60.60606061,5,1,6,0.552083333,0.09765625,1,0,0,1.2256,Andesite_14,1,14,4,8,1.226,1,14,-0.057291667,-0.403645833,1,0,0,3.9756,Pegmatite_rect,6,3.976,0,5,0,5,0,1,,,,,,,,,,,,,
5b9c2c816f92f30001ecce7a,SCR,2024-06-11_12h18.01.124,LearnStrategy,2023.2.3,Win32,60.60606061,5,1,7,-0.3671875,-0.213541667,1,0,0,1.1463,Andesite_10,1,10,2,2,1.146,1,10,0.430989583,-0.26953125,1,0,0,1.7255,Gabbro_rect,4,1.726,0,6,0,6,0,1,,,,,,,,,,,,,
5b9c2c816f92f30001ecce7a,SCR,2024-06-11_12h18.01.124,LearnStrategy,2023.2.3,Win32,60.60606061,5,1,8,0.247395833,-0.104166667,1,0,0,1.8168,Pegmatite_03,6,03,3,6,1.817,6,03,-0.071614583,-0.403645833,1,0,0,1.8746,Pegmatite_rect,6,1.875,1,7,0,7,0,1,,,,,,,,,,,,,
5b9c2c816f92f30001ecce7a,SCR,2024-06-11_12h18.01.124,LearnStrategy,2023.2.3,Win32,60.60606061,5,1,9,-0.338541667,-0.091145833,1,0,0,1.0329,Peridotite_05,7,05,3,2,1.033,7,05,0.095052083,-0.390625,1,0,0,1.6835,Peridotite_rect,7,1.684,1,8,0,8,0,1,,,,,,,,,,,,,
5b9c2c816f92f30001ecce7a,SCR,2024-06-11_12h18.01.124,LearnStrategy,2023.2.3,Win32,60.60606061,5,1,10,-0.5078125,0.399739583,1,0,0,1.1171,Andesite_02,1,02,6,1,1.117,1,02,-0.454427083,-0.25390625,1,0,0,1.5151,Andesite_rect,1,1.515,1,9,0,9,0,1,,,,,,,,,,,,,
5b9c2c816f92f30001ecce7a,SCR,2024-06-11_12h18.01.124,LearnStrategy,2023.2.3,Win32,60.60606061,5,1,11,0.571614583,0.227864583,1,0,0,1.1173,Pegmatite_10,6,10,5,8,1.117,6,10,-0.067708333,-0.384114583,1,0,0,1.1932,Pegmatite_rect,6,1.193,1,10,0,10,0,1,,,,,,,,,,,,,
5b9c2c816f92f30001ecce7a,SCR,2024-06-11_12h18.01.124,LearnStrategy,2023.2.3,Win32,60.60606061,5,1,12,-0.234375,-0.2890625,1,0,0,0.8905,Obsidian_10,5,10,2,3,0.89,5,10,-0.395833333,-0.399739583,1,0,0,0.8027,Obsidian_rect,5,0.803,1,11,0,11,0,1,,,,,,,,,,,,,
5b9c2c816f92f30001ecce7a,SCR,2024-06-11_12h18.01.124,LearnStrategy,2023.2.3,Win32,60.60606061,5,1,13,-0.569010417,-0.091145833,1,0,0,1.0191,Pegmatite_13,6,13,3,1,1.019,6,13,-0.091145833,-0.393229167,1,0,0,1.1683,Pegmatite_rect,6,1.168,1,12,0,12,0,1,,,,,,,,,,,,,
5b9c2c816f92f30001ecce7a,SCR,2024-06-11_12h18.01.124,LearnStrategy,2023.2.3,Win32,60.60606061,5,1,14,-0.35546875,-0.430989583,1,0,0,0.8417,Gabbro_15,4,15,1,2,0.842,4,15,0.149739583,-0.265625,1,0,0,2.0133,Diorite_rect,3,2.013,0,13,0,13,0,1,,,,,,,,,,,,,
5b9c2c816f92f30001ecce7a,SCR,2024-06-11_12h18.01.124,LearnStrategy,2023.2.3,Win32,60.60606061,5,1,15,-0.23046875,0.114583333,1,0,0,0.6549,Basalt_05,2,05,4,3,0.655,2,05,-0.07421875,-0.263020833,1,0,0,0.7453,Basalt_rect,2,0.745,1,14,0,14,0,1,,,,,,,,,,,,,
5b9c2c816f92f30001ecce7a,SCR,2024-06-11_12h18.01.124,LearnStrategy,2023.2.3,Win32,60.60606061,5,1,16,0.416666667,0.283854167,1,0,0,1.2944,Diorite_07,3,07,5,7,1.294,3,07,0.1328125,-0.265625,1,0,0,1.4746,Diorite_rect,3,1.475,1,15,0,15,0,1,,,,,,,,,,,,,
5b9c2c816f92f30001ecce7a,SCR,2024-06-11_12h18.01.124,LearnStrategy,2023.2.3,Win32,60.60606061,5,2,1,,,,,,,,4,09,,,,,,,,,,,,,5,9.095,0,,,,,,-0.342447917,-0.391927083,1,0,0,9.0953,Obsidian_rect,0,0,0,0,1,
5b9c2c816f92f30001ecce7a,SCR,2024-06-11_12h18.01.124,LearnStrategy,2023.2.3,Win32,60.60606061,5,2,2,,,,,,,,7,10,,,,,,,,,,,,,7,1.869,1,,,,,,0.126302083,-0.412760417,1,0,0,1.8693,Peridotite_rect,1,0,1,0,1,
5b9c2c816f92f30001ecce7a,SCR,2024-06-11_12h18.01.124,LearnStrategy,2023.2.3,Win32,60.60606061,5,2,3,,,,,,,,6,09,,,,,,,,,,,,,6,1.16,1,,,,,,-0.134114583,-0.395833333,1,0,0,1.1596,Pegmatite_rect,2,0,2,0,1,
5b9c2c816f92f30001ecce7a,SCR,2024-06-11_12h18.01.124,LearnStrategy,2023.2.3,Win32,60.60606061,5,2,4,,,,,,,,4,11,,,,,,,,,,,,,4,2.306,1,,,,,,0.455729167,-0.248697917,1,0,0,2.306,Gabbro_rect,3,0,3,0,1,
5b9c2c816f92f30001ecce7a,SCR,2024-06-11_12h18.01.124,LearnStrategy,2023.2.3,Win32,60.60606061,5,2,5,,,,,,,,1,16,,,,,,,,,,,,,1,1.746,1,,,,,,-0.4375,-0.256510417,1,0,0,1.7463,Andesite_rect,4,0,4,0,1,
5b9c2c816f92f30001ecce7a,SCR,2024-06-11_12h18.01.124,LearnStrategy,2023.2.3,Win32,60.60606061,5,2,6,,,,,,,,3,10,,,,,,,,,,,,,3,1.181,1,,,,,,0.130208333,-0.25,1,0,0,1.1805,Diorite_rect,5,0,5,0,1,
5b9c2c816f92f30001ecce7a,SCR,2024-06-11_12h18.01.124,LearnStrategy,2023.2.3,Win32,60.60606061,5,2,7,,,,,,,,3,16,,,,,,,,,,,,,3,1.225,1,,,,,,0.127604167,-0.25,1,0,0,1.2247,Diorite_rect,6,0,6,0,1,
5b9c2c816f92f30001ecce7a,SCR,2024-06-11_12h18.01.124,LearnStrategy,2023.2.3,Win32,60.60606061,5,2,8,,,,,,,,2,06,,,,,,,,,,,,,2,3.069,1,,,,,,-0.158854167,-0.268229167,1,0,0,3.0692,Basalt_rect,7,0,7,0,1,
5b9c2c816f92f30001ecce7a,SCR,2024-06-11_12h18.01.124,LearnStrategy,2023.2.3,Win32,60.60606061,5,2,9,,,,,,,,6,08,,,,,,,,,,,,,6,1.083,1,,,,,,-0.12890625,-0.4140625,1,0,0,1.0834,Pegmatite_rect,8,0,8,0,1,
5b9c2c816f92f30001ecce7a,SCR,2024-06-11_12h18.01.124,LearnStrategy,2023.2.3,Win32,60.60606061,5,2,10,,,,,,,,8,16,,,,,,,,,,,,,8,1.818,1,,,,,,0.38671875,-0.411458333,1,0,0,1.8183,Pumice_rect,9,0,9,0,1,
5b9c2c816f92f30001ecce7a,SCR,2024-06-11_12h18.01.124,LearnStrategy,2023.2.3,Win32,60.60606061,5,2,11,,,,,,,,2,01,,,,,,,,,,,,,2,1.272,1,,,,,,-0.180989583,-0.2421875,1,0,0,1.2721,Basalt_rect,10,0,10,0,1,
5b9c2c816f92f30001ecce7a,SCR,2024-06-11_12h18.01.124,LearnStrategy,2023.2.3,Win32,60.60606061,5,2,12,,,,,,,,1,01,,,,,,,,,,,,,1,2.257,1,,,,,,-0.407552083,-0.268229167,1,0,0,2.2572,Andesite_rect,11,0,11,0,1,
5b9c2c816f92f30001ecce7a,SCR,2024-06-11_12h18.01.124,LearnStrategy,2023.2.3,Win32,60.60606061,5,2,13,,,,,,,,7,08,,,,,,,,,,,,,7,1.745,1,,,,,,0.145833333,-0.397135417,1,0,0,1.7448,Peridotite_rect,12,0,12,0,1,
5b9c2c816f92f30001ecce7a,SCR,2024-06-11_12h18.01.124,LearnStrategy,2023.2.3,Win32,60.60606061,5,2,14,,,,,,,,5,12,,,,,,,,,,,,,5,1.062,1,,,,,,-0.373697917,-0.41015625,1,0,0,1.0619,Obsidian_rect,13,0,13,0,1,
5b9c2c816f92f30001ecce7a,SCR,2024-06-11_12h18.01.124,LearnStrategy,2023.2.3,Win32,60.60606061,5,2,15,,,,,,,,8,06,,,,,,,,,,,,,8,1.223,1,,,,,,0.401041667,-0.412760417,1,0,0,1.2229,Pumice_rect,14,0,14,0,1,
5b9c2c816f92f30001ecce7a,SCR,2024-06-11_12h18.01.124,LearnStrategy,2023.2.3,Win32,60.60606061,5,2,16,,,,,,,,5,02,,,,,,,,,,,,,5,1.109,1,,,,,,-0.41796875,-0.401041667,1,0,0,1.1085,Obsidian_rect,15,0,15,0,1,
5b9c2c816f92f30001ecce7a,SCR,2024-06-11_12h18.01.124,LearnStrategy,2023.2.3,Win32,60.60606061,6,1,1,-0.403645833,-0.259114583,1,0,0,1.0281,Andesite_10,1,10,2,2,1.028,1,10,-0.348958333,-0.243489583,1,0,0,3.3756,Andesite_rect,1,3.376,1,0,0,0,0,1,,,,,,,,,,,,,
5b9c2c816f92f30001ecce7a,SCR,2024-06-11_12h18.01.124,LearnStrategy,2023.2.3,Win32,60.60606061,6,1,2,-0.3984375,0.303385417,1,0,0,1.0165,Obsidian_14,5,14,5,2,1.016,5,14,-0.360677083,-0.411458333,1,0,0,2.3461,Obsidian_rect,5,2.346,1,1,0,1,0,1,,,,,,,,,,,,,
5b9c2c816f92f30001ecce7a,SCR,2024-06-11_12h18.01.124,LearnStrategy,2023.2.3,Win32,60.60606061,6,1,3,0.061197917,-0.30078125,1,0,0,1.055,Pegmatite_07,6,07,2,5,1.055,6,07,-0.138020833,-0.419270833,1,0,0,0.8245,Pegmatite_rect,6,0.825,1,2,0,2,0,1,,,,,,,,,,,,,
5b9c2c816f92f30001ecce7a,SCR,2024-06-11_12h18.01.124,LearnStrategy,2023.2.3,Win32,60.60606061,6,1,4,-0.561197917,-0.381510417,1,0,0,1.0129,Gabbro_10,4,10,1,1,1.013,4,10,0.333333333,-0.25390625,1,0,0,1.5552,Gabbro_rect,4,1.555,1,3,0,3,0,1,,,,,,,,,,,,,
5b9c2c816f92f30001ecce7a,SCR,2024-06-11_12h18.01.124,LearnStrategy,2023.2.3,Win32,60.60606061,6,1,5,-0.3828125,-0.407552083,1,0,0,0.8292,Gabbro_15,4,15,1,2,0.829,4,15,0.087239583,-0.247395833,1,0,0,0.8973,Diorite_rect,3,0.897,0,4,0,4,0,1,,,,,,,,,,,,,
5b9c2c816f92f30001ecce7a,SCR,2024-06-11_12h18.01.124,LearnStrategy,2023.2.3,Win32,60.60606061,6,1,6,0.579427083,0.088541667,1,0,0,0.958,Andesite_14,1,14,4,8,0.958,1,14,-0.14453125,-0.399739583,1,0,0,6.695,Pegmatite_rect,6,6.695,0,5,0,5,0,1,,,,,,,,,,,,,
5b9c2c816f92f30001ecce7a,SCR,2024-06-11_12h18.01.124,LearnStrategy,2023.2.3,Win32,60.60606061,6,1,7,-0.555989583,-0.096354167,1,0,0,0.9711,Pegmatite_13,6,13,3,1,0.971,6,13,-0.102864583,-0.395833333,1,0,0,1.2076,Pegmatite_rect,6,1.208,1,6,0,6,0,1,,,,,,,,,,,,,
5b9c2c816f92f30001ecce7a,SCR,2024-06-11_12h18.01.124,LearnStrategy,2023.2.3,Win32,60.60606061,6,1,8,-0.25,0.4140625,1,0,0,0.9855,Diorite_13,3,13,6,3,0.986,3,13,0.173177083,-0.26953125,1,0,0,1.0432,Diorite_rect,3,1.043,1,7,0,7,0,1,,,,,,,,,,,,,
5b9c2c816f92f30001ecce7a,SCR,2024-06-11_12h18.01.124,LearnStrategy,2023.2.3,Win32,60.60606061,6,1,9,0.559895833,-0.1171875,1,0,0,0.9175,Diorite_02,3,02,3,8,0.917,3,02,0.134114583,-0.25,1,0,0,0.8683,Diorite_rect,3,0.868,1,8,0,8,0,1,,,,,,,,,,,,,
5b9c2c816f92f30001ecce7a,SCR,2024-06-11_12h18.01.124,LearnStrategy,2023.2.3,Win32,60.60606061,6,1,10,0.0703125,-0.243489583,1,0,0,0.6316,Pegmatite_07,6,07,2,5,0.632,6,07,-0.11328125,-0.390625,1,0,0,0.8389,Pegmatite_rect,6,0.839,1,9,0,9,0,1,,,,,,,,,,,,,
5b9c2c816f92f30001ecce7a,SCR,2024-06-11_12h18.01.124,LearnStrategy,2023.2.3,Win32,60.60606061,6,1,11,-0.0859375,0.130208333,1,0,0,0.6165,Basalt_12,2,12,4,4,0.617,2,12,-0.0625,-0.268229167,1,0,0,6.4756,Basalt_rect,2,6.476,1,10,0,10,0,1,,,,,,,,,,,,,
5b9c2c816f92f30001ecce7a,SCR,2024-06-11_12h18.01.124,LearnStrategy,2023.2.3,Win32,60.60606061,6,1,12,-0.045572917,0.096354167,1,0,0,0.5341,Basalt_12,2,12,4,4,0.534,2,12,-0.059895833,-0.251302083,1,0,0,0.9603,Basalt_rect,2,0.96,1,11,0,11,0,1,,,,,,,,,,,,,
5b9c2c816f92f30001ecce7a,SCR,2024-06-11_12h18.01.124,LearnStrategy,2023.2.3,Win32,60.60606061,6,1,13,0.3671875,-0.256510417,1,0,0,1.048,Gabbro_01,4,01,2,7,1.048,4,01,0.375,-0.25390625,1,0,0,1.7252,Gabbro_rect,4,1.725,1,12,0,12,0,1,,,,,,,,,,,,,
5b9c2c816f92f30001ecce7a,SCR,2024-06-11_12h18.01.124,LearnStrategy,2023.2.3,Win32,60.60606061,6,1,14,-0.576822917,0.075520833,1,0,0,1.3185,Peridotite_02,7,02,4,1,1.318,7,02,0.115885417,-0.397135417,1,0,0,0.8921,Peridotite_rect,7,0.892,1,13,0,13,0,1,,,,,,,,,,,,,
5b9c2c816f92f30001ecce7a,SCR,2024-06-11_12h18.01.124,LearnStrategy,2023.2.3,Win32,60.60606061,6,1,15,-0.05859375,0.40625,1,0,0,0.9805,Gabbro_05,4,05,6,4,0.98,4,05,0.16015625,-0.401041667,1,0,0,1.6183,Peridotite_rect,7,1.618,0,14,0,14,0,1,,,,,,,,,,,,,
5b9c2c816f92f30001ecce7a,SCR,2024-06-11_12h18.01.124,LearnStrategy,2023.2.3,Win32,60.60606061,6,1,16,0.3671875,0.1171875,1,0,0,0.8311,Pumice_09,8,09,4,7,0.831,8,09,0.447916667,-0.384114583,1,0,0,1.0445,Pumice_rect,8,1.044,1,15,0,15,0,1,,,,,,,,,,,,,
5b9c2c816f92f30001ecce7a,SCR,2024-06-11_12h18.01.124,LearnStrategy,2023.2.3,Win32,60.60606061,6,2,1,,,,,,,,8,03,,,,,,,,,,,,,8,1.455,1,,,,,,0.403645833,-0.397135417,1,0,0,1.4546,Pumice_rect,0,0,0,0,1,
5b9c2c816f92f30001ecce7a,SCR,2024-06-11_12h18.01.124,LearnStrategy,2023.2.3,Win32,60.60606061,6,2,2,,,,,,,,8,05,,,,,,,,,,,,,8,1.161,1,,,,,,0.3671875,-0.399739583,1,0,0,1.1608,Pumice_rect,1,0,1,0,1,
5b9c2c816f92f30001ecce7a,SCR,2024-06-11_12h18.01.124,LearnStrategy,2023.2.3,Win32,60.60606061,6,2,3,,,,,,,,5,06,,,,,,,,,,,,,5,1.072,1,,,,,,-0.39453125,-0.407552083,1,0,0,1.0725,Obsidian_rect,2,0,2,0,1,
5b9c2c816f92f30001ecce7a,SCR,2024-06-11_12h18.01.124,LearnStrategy,2023.2.3,Win32,60.60606061,6,2,4,,,,,,,,2,04,,,,,,,,,,,,,2,1.85,1,,,,,,-0.169270833,-0.24609375,1,0,0,1.85,Basalt_rect,3,0,3,0,1,
5b9c2c816f92f30001ecce7a,SCR,2024-06-11_12h18.01.124,LearnStrategy,2023.2.3,Win32,60.60606061,6,2,5,,,,,,,,1,07,,,,,,,,,,,,,3,1.32,0,,,,,,0.1328125,-0.243489583,1,0,0,1.3198,Diorite_rect,4,0,4,0,1,
5b9c2c816f92f30001ecce7a,SCR,2024-06-11_12h18.01.124,LearnStrategy,2023.2.3,Win32,60.60606061,6,2,6,,,,,,,,7,15,,,,,,,,,,,,,7,1.039,1,,,,,,0.119791667,-0.4140625,1,0,0,1.0391,Peridotite_rect,5,0,5,0,1,
5b9c2c816f92f30001ecce7a,SCR,2024-06-11_12h18.01.124,LearnStrategy,2023.2.3,Win32,60.60606061,6,2,7,,,,,,,,4,03,,,,,,,,,,,,,1,6.9,0,,,,,,-0.32421875,-0.235677083,1,0,0,6.9003,Andesite_rect,6,0,6,0,1,
5b9c2c816f92f30001ecce7a,SCR,2024-06-11_12h18.01.124,LearnStrategy,2023.2.3,Win32,60.60606061,6,2,8,,,,,,,,2,08,,,,,,,,,,,,,2,1.682,1,,,,,,-0.139322917,-0.255208333,1,0,0,1.682,Basalt_rect,7,0,7,0,1,
5b9c2c816f92f30001ecce7a,SCR,2024-06-11_12h18.01.124,LearnStrategy,2023.2.3,Win32,60.60606061,6,2,9,,,,,,,,3,14,,,,,,,,,,,,,3,3.107,1,,,,,,0.088541667,-0.244791667,1,0,0,3.1066,Diorite_rect,8,0,8,0,1,
5b9c2c816f92f30001ecce7a,SCR,2024-06-11_12h18.01.124,LearnStrategy,2023.2.3,Win32,60.60606061,6,2,10,,,,,,,,6,05,,,,,,,,,,,,,6,4.872,1,,,,,,-0.069010417,-0.399739583,1,0,0,4.8723,Pegmatite_rect,9,0,9,0,1,
5b9c2c816f92f30001ecce7a,SCR,2024-06-11_12h18.01.124,LearnStrategy,2023.2.3,Win32,60.60606061,6,2,11,,,,,,,,6,15,,,,,,,,,,,,,6,1.036,1,,,,,,-0.071614583,-0.404947917,1,0,0,1.0355,Pegmatite_rect,10,0,10,0,1,
5b9c2c816f92f30001ecce7a,SCR,2024-06-11_12h18.01.124,LearnStrategy,2023.2.3,Win32,60.60606061,6,2,12,,,,,,,,1,11,,,,,,,,,,,,,1,1.792,1,,,,,,-0.364583333,-0.251302083,1,0,0,1.7915,Andesite_rect,11,0,11,0,1,
5b9c2c816f92f30001ecce7a,SCR,2024-06-11_12h18.01.124,LearnStrategy,2023.2.3,Win32,60.60606061,6,2,13,,,,,,,,5,11,,,,,,,,,,,,,5,0.955,1,,,,,,-0.333333333,-0.401041667,1,0,0,0.9551,Obsidian_rect,12,0,12,0,1,
5b9c2c816f92f30001ecce7a,SCR,2024-06-11_12h18.01.124,LearnStrategy,2023.2.3,Win32,60.60606061,6,2,14,,,,,,,,7,16,,,,,,,,,,,,,7,1.085,1,,,,,,0.135416667,-0.407552083,1,0,0,1.0847,Peridotite_rect,13,0,13,0,1,
5b9c2c816f92f30001ecce7a,SCR,2024-06-11_12h18.01.124,LearnStrategy,2023.2.3,Win32,60.60606061,6,2,15,,,,,,,,3,08,,,,,,,,,,,,,3,1.107,1,,,,,,0.122395833,-0.248697917,1,0,0,1.1065,Diorite_rect,14,0,14,0,1,
5b9c2c816f92f30001ecce7a,SCR,2024-06-11_12h18.01.124,LearnStrategy,2023.2.3,Win32,60.60606061,6,2,16,,,,,,,,4,13,,,,,,,,,,,,,4,1.726,1,,,,,,0.346354167,-0.2578125,1,0,0,1.7262,Gabbro_rect,15,0,15,0,1,
5b9c2c816f92f30001ecce7a,SCR,2024-06-11_12h18.01.124,LearnStrategy,2023.2.3,Win32,60.60606061,7,1,1,0.217447917,0.39453125,1,0,0,0.9889,Gabbro_12,4,12,6,6,0.989,4,12,0.399739583,-0.248697917,1,0,0,1.9249,Gabbro_rect,4,1.925,1,0,0,0,0,1,,,,,,,,,,,,,
5b9c2c816f92f30001ecce7a,SCR,2024-06-11_12h18.01.124,LearnStrategy,2023.2.3,Win32,60.60606061,7,1,2,0.5234375,0.221354167,1,0,0,1.0324,Pegmatite_10,6,10,5,8,1.032,6,10,-0.059895833,-0.416666667,1,0,0,1.0633,Pegmatite_rect,6,1.063,1,1,0,1,0,1,,,,,,,,,,,,,
5b9c2c816f92f30001ecce7a,SCR,2024-06-11_12h18.01.124,LearnStrategy,2023.2.3,Win32,60.60606061,7,1,3,-0.397135417,-0.25390625,1,0,0,1.2162,Andesite_10,1,10,2,2,1.216,1,10,-0.397135417,-0.25390625,1,0,0,1.3822,Andesite_rect,1,1.382,1,2,0,2,0,1,,,,,,,,,,,,,
5b9c2c816f92f30001ecce7a,SCR,2024-06-11_12h18.01.124,LearnStrategy,2023.2.3,Win32,60.60606061,7,1,4,-0.0625,0.131510417,1,0,0,0.5195,Basalt_12,2,12,4,4,0.52,2,12,-0.35546875,-0.240885417,1,0,0,2.3404,Andesite_rect,1,2.34,0,3,0,3,0,1,,,,,,,,,,,,,
5b9c2c816f92f30001ecce7a,SCR,2024-06-11_12h18.01.124,LearnStrategy,2023.2.3,Win32,60.60606061,7,1,5,-0.546875,-0.440104167,1,0,0,0.9113,Gabbro_10,4,10,1,1,0.911,4,10,0.3359375,-0.252604167,1,0,0,2.7377,Gabbro_rect,4,2.738,1,4,0,4,0,1,,,,,,,,,,,,,
5b9c2c816f92f30001ecce7a,SCR,2024-06-11_12h18.01.124,LearnStrategy,2023.2.3,Win32,60.60606061,7,1,6,0.399739583,0.255208333,1,0,0,0.8545,Diorite_07,3,07,5,7,0.854,3,07,0.140625,-0.259114583,1,0,0,1.2486,Diorite_rect,3,1.249,1,5,0,5,0,1,,,,,,,,,,,,,
5b9c2c816f92f30001ecce7a,SCR,2024-06-11_12h18.01.124,LearnStrategy,2023.2.3,Win32,60.60606061,7,1,7,0.5859375,-0.256510417,1,0,0,0.9155,Pegmatite_06,6,06,2,8,0.915,6,06,-0.140625,-0.403645833,1,0,0,1.0849,Pegmatite_rect,6,1.085,1,6,0,6,0,1,,,,,,,,,,,,,
5b9c2c816f92f30001ecce7a,SCR,2024-06-11_12h18.01.124,LearnStrategy,2023.2.3,Win32,60.60606061,7,1,8,-0.361979167,-0.397135417,1,0,0,0.895,Gabbro_15,4,15,1,2,0.895,4,15,0.434895833,-0.239583333,1,0,0,1.2188,Gabbro_rect,4,1.219,1,7,0,7,0,1,,,,,,,,,,,,,
5b9c2c816f92f30001ecce7a,SCR,2024-06-11_12h18.01.124,LearnStrategy,2023.2.3,Win32,60.60606061,7,1,9,-0.2109375,0.37109375,1,0,0,0.7502,Diorite_13,3,13,6,3,0.75,3,13,0.140625,-0.255208333,1,0,0,0.9617,Diorite_rect,3,0.962,1,8,0,8,0,1,,,,,,,,,,,,,
5b9c2c816f92f30001ecce7a,SCR,2024-06-11_12h18.01.124,LearnStrategy,2023.2.3,Win32,60.60606061,7,1,10,-0.56640625,-0.4296875,1,0,0,1.0851,Gabbro_10,4,10,1,1,1.085,4,10,0.393229167,-0.270833333,1,0,0,1.9486,Gabbro_rect,4,1.949,1,9,0,9,0,1,,,,,,,,,,,,,
5b9c2c816f92f30001ecce7a,SCR,2024-06-11_12h18.01.124,LearnStrategy,2023.2.3,Win32,60.60606061,7,1,11,-0.2109375,0.234375,1,0,0,0.8013,Pumice_15,8,15,5,3,0.801,8,15,0.377604167,-0.41015625,1,0,0,1.3747,Pumice_rect,8,1.375,1,10,0,10,0,1,,,,,,,,,,,,,
5b9c2c816f92f30001ecce7a,SCR,2024-06-11_12h18.01.124,LearnStrategy,2023.2.3,Win32,60.60606061,7,1,12,-0.529947917,0.419270833,1,0,0,2.1337,Andesite_02,1,02,6,1,2.134,1,02,-0.407552083,-0.251302083,1,0,0,1.2409,Andesite_rect,1,1.241,1,11,0,11,0,1,,,,,,,,,,,,,
5b9c2c816f92f30001ecce7a,SCR,2024-06-11_12h18.01.124,LearnStrategy,2023.2.3,Win32,60.60606061,7,1,13,-0.412760417,-0.283854167,1,0,0,0.952,Andesite_10,1,10,2,2,0.952,1,10,-0.454427083,-0.263020833,1,0,0,1.559,Andesite_rect,1,1.559,1,12,0,12,0,1,,,,,,,,,,,,,
5b9c2c816f92f30001ecce7a,SCR,2024-06-11_12h18.01.124,LearnStrategy,2023.2.3,Win32,60.60606061,7,1,14,-0.526041667,0.114583333,1,0,0,0.9005,Peridotite_02,7,02,4,1,0.901,7,02,0.098958333,-0.411458333,1,0,0,1.1447,Peridotite_rect,7,1.145,1,13,0,13,0,1,,,,,,,,,,,,,
5b9c2c816f92f30001ecce7a,SCR,2024-06-11_12h18.01.124,LearnStrategy,2023.2.3,Win32,60.60606061,7,1,15,-0.391927083,0.255208333,1,0,0,0.7647,Obsidian_14,5,14,5,2,0.765,5,14,-0.35546875,-0.397135417,1,0,0,1.3804,Obsidian_rect,5,1.38,1,14,0,14,0,1,,,,,,,,,,,,,
5b9c2c816f92f30001ecce7a,SCR,2024-06-11_12h18.01.124,LearnStrategy,2023.2.3,Win32,60.60606061,7,1,16,-0.190104167,-0.447916667,1,0,0,1.1279,Basalt_16,2,16,1,3,1.128,2,16,-0.0859375,-0.263020833,1,0,0,1.1491,Basalt_rect,2,1.149,1,15,0,15,0,1,,,,,,,,,,,,,
5b9c2c816f92f30001ecce7a,SCR,2024-06-11_12h18.01.124,LearnStrategy,2023.2.3,Win32,60.60606061,7,2,1,,,,,,,,8,16,,,,,,,,,,,,,8,2.321,1,,,,,,0.399739583,-0.41015625,1,0,0,2.3206,Pumice_rect,0,0,0,0,1,
5b9c2c816f92f30001ecce7a,SCR,2024-06-11_12h18.01.124,LearnStrategy,2023.2.3,Win32,60.60606061,7,2,2,,,,,,,,6,05,,,,,,,,,,,,,6,5.689,1,,,,,,-0.134114583,-0.3984375,1,0,0,5.689,Pegmatite_rect,1,0,1,0,1,
5b9c2c816f92f30001ecce7a,SCR,2024-06-11_12h18.01.124,LearnStrategy,2023.2.3,Win32,60.60606061,7,2,3,,,,,,,,8,03,,,,,,,,,,,,,8,1.406,1,,,,,,0.388020833,-0.397135417,1,0,0,1.4062,Pumice_rect,2,0,2,0,1,
5b9c2c816f92f30001ecce7a,SCR,2024-06-11_12h18.01.124,LearnStrategy,2023.2.3,Win32,60.60606061,7,2,4,,,,,,,,4,11,,,,,,,,,,,,,2,6.834,0,,,,,,-0.12890625,-0.239583333,1,0,0,6.8344,Basalt_rect,3,0,3,0,1,
5b9c2c816f92f30001ecce7a,SCR,2024-06-11_12h18.01.124,LearnStrategy,2023.2.3,Win32,60.60606061,7,2,5,,,,,,,,5,02,,,,,,,,,,,,,5,0.943,1,,,,,,-0.3984375,-0.412760417,1,0,0,0.9435,Obsidian_rect,4,0,4,0,1,
5b9c2c816f92f30001ecce7a,SCR,2024-06-11_12h18.01.124,LearnStrategy,2023.2.3,Win32,60.60606061,7,2,6,,,,,,,,1,11,,,,,,,,,,,,,1,1.24,1,,,,,,-0.403645833,-0.264322917,1,0,0,1.2403,Andesite_rect,5,0,5,0,1,
5b9c2c816f92f30001ecce7a,SCR,2024-06-11_12h18.01.124,LearnStrategy,2023.2.3,Win32,60.60606061,7,2,7,,,,,,,,2,04,,,,,,,,,,,,,2,1.346,1,,,,,,-0.141927083,-0.270833333,1,0,0,1.3464,Basalt_rect,6,0,6,0,1,
5b9c2c816f92f30001ecce7a,SCR,2024-06-11_12h18.01.124,LearnStrategy,2023.2.3,Win32,60.60606061,7,2,8,,,,,,,,7,08,,,,,,,,,,,,,7,1.023,1,,,,,,0.110677083,-0.403645833,1,0,0,1.0227,Peridotite_rect,7,0,7,0,1,
5b9c2c816f92f30001ecce7a,SCR,2024-06-11_12h18.01.124,LearnStrategy,2023.2.3,Win32,60.60606061,7,2,9,,,,,,,,4,16,,,,,,,,,,,,,2,2.88,0,,,,,,-0.102864583,-0.25,1,0,0,2.8804,Basalt_rect,8,0,8,0,1,
5b9c2c816f92f30001ecce7a,SCR,2024-06-11_12h18.01.124,LearnStrategy,2023.2.3,Win32,60.60606061,7,2,10,,,,,,,,3,08,,,,,,,,,,,,,3,0.928,1,,,,,,0.118489583,-0.243489583,1,0,0,0.9281,Diorite_rect,9,0,9,0,1,
5b9c2c816f92f30001ecce7a,SCR,2024-06-11_12h18.01.124,LearnStrategy,2023.2.3,Win32,60.60606061,7,2,11,,,,,,,,5,08,,,,,,,,,,,,,5,1.115,1,,,,,,-0.38671875,-0.37890625,1,0,0,1.1147,Obsidian_rect,10,0,10,0,1,
5b9c2c816f92f30001ecce7a,SCR,2024-06-11_12h18.01.124,LearnStrategy,2023.2.3,Win32,60.60606061,7,2,12,,,,,,,,7,06,,,,,,,,,,,,,7,1.134,1,,,,,,0.157552083,-0.389322917,1,0,0,1.1336,Peridotite_rect,11,0,11,0,1,
5b9c2c816f92f30001ecce7a,SCR,2024-06-11_12h18.01.124,LearnStrategy,2023.2.3,Win32,60.60606061,7,2,13,,,,,,,,6,11,,,,,,,,,,,,,6,2.031,1,,,,,,-0.122395833,-0.388020833,1,0,0,2.0305,Pegmatite_rect,12,0,12,0,1,
5b9c2c816f92f30001ecce7a,SCR,2024-06-11_12h18.01.124,LearnStrategy,2023.2.3,Win32,60.60606061,7,2,14,,,,,,,,2,14,,,,,,,,,,,,,2,2.006,1,,,,,,-0.100260417,-0.259114583,1,0,0,2.006,Basalt_rect,13,0,13,0,1,
5b9c2c816f92f30001ecce7a,SCR,2024-06-11_12h18.01.124,LearnStrategy,2023.2.3,Win32,60.60606061,7,2,15,,,,,,,,3,16,,,,,,,,,,,,,3,1.466,1,,,,,,0.095052083,-0.259114583,1,0,0,1.4659,Diorite_rect,14,0,14,0,1,
5b9c2c816f92f30001ecce7a,SCR,2024-06-11_12h18.01.124,LearnStrategy,2023.2.3,Win32,60.60606061,7,2,16,,,,,,,,1,16,,,,,,,,,,,,,1,2.593,1,,,,,,-0.375,-0.252604167,1,0,0,2.5925,Andesite_rect,15,0,15,0,1,
5b9c2c816f92f30001ecce7a,SCR,2024-06-11_12h18.01.124,LearnStrategy,2023.2.3,Win32,60.60606061,8,1,1,-0.5390625,-0.239583333,1,0,0,1.0518,Peridotite_14,7,14,2,1,1.052,7,14,0.14453125,-0.399739583,1,0,0,3.2802,Peridotite_rect,7,3.28,1,0,0,0,0,1,,,,,,,,,,,,,
5b9c2c816f92f30001ecce7a,SCR,2024-06-11_12h18.01.124,LearnStrategy,2023.2.3,Win32,60.60606061,8,1,2,-0.583333333,0.416666667,1,0,0,0.9815,Andesite_02,1,02,6,1,0.981,1,02,-0.341145833,-0.235677083,1,0,0,1.131,Andesite_rect,1,1.131,1,1,0,1,0,1,,,,,,,,,,,,,
5b9c2c816f92f30001ecce7a,SCR,2024-06-11_12h18.01.124,LearnStrategy,2023.2.3,Win32,60.60606061,8,1,3,-0.532552083,-0.43359375,1,0,0,1.283,Gabbro_10,4,10,1,1,1.283,4,10,0.430989583,-0.256510417,1,0,0,2.8286,Gabbro_rect,4,2.829,1,2,0,2,0,1,,,,,,,,,,,,,
5b9c2c816f92f30001ecce7a,SCR,2024-06-11_12h18.01.124,LearnStrategy,2023.2.3,Win32,60.60606061,8,1,4,-0.252604167,0.419270833,1,0,0,0.7081,Diorite_13,3,13,6,3,0.708,3,13,0.111979167,-0.231770833,1,0,0,1.8557,Diorite_rect,3,1.856,1,3,0,3,0,1,,,,,,,,,,,,,
5b9c2c816f92f30001ecce7a,SCR,2024-06-11_12h18.01.124,LearnStrategy,2023.2.3,Win32,60.60606061,8,1,5,0.029947917,0.365885417,1,0,0,0.7219,Andesite_04,1,04,6,5,0.722,1,04,-0.434895833,-0.265625,1,0,0,1.799,Andesite_rect,1,1.799,1,4,0,4,0,1,,,,,,,,,,,,,
5b9c2c816f92f30001ecce7a,SCR,2024-06-11_12h18.01.124,LearnStrategy,2023.2.3,Win32,60.60606061,8,1,6,-0.247395833,0.08984375,1,0,0,0.7226,Basalt_05,2,05,4,3,0.723,2,05,-0.098958333,-0.26171875,1,0,0,0.6851,Basalt_rect,2,0.685,1,5,0,5,0,1,,,,,,,,,,,,,
5b9c2c816f92f30001ecce7a,SCR,2024-06-11_12h18.01.124,LearnStrategy,2023.2.3,Win32,60.60606061,8,1,7,0.2578125,0.416666667,1,0,0,1.3681,Gabbro_12,4,12,6,6,1.368,4,12,0.328125,-0.265625,1,0,0,2.0723,Gabbro_rect,4,2.072,1,6,0,6,0,1,,,,,,,,,,,,,
5b9c2c816f92f30001ecce7a,SCR,2024-06-11_12h18.01.124,LearnStrategy,2023.2.3,Win32,60.60606061,8,1,8,-0.51171875,-0.368489583,1,0,0,1.039,Gabbro_10,4,10,1,1,1.039,4,10,0.419270833,-0.248697917,1,0,0,1.5148,Gabbro_rect,4,1.515,1,7,0,7,0,1,,,,,,,,,,,,,
5b9c2c816f92f30001ecce7a,SCR,2024-06-11_12h18.01.124,LearnStrategy,2023.2.3,Win32,60.60606061,8,1,9,0.356770833,0.229166667,1,0,0,1.4467,Diorite_07,3,07,5,7,1.447,3,07,0.131510417,-0.248697917,1,0,0,1.6188,Diorite_rect,3,1.619,1,8,0,8,0,1,,,,,,,,,,,,,
5b9c2c816f92f30001ecce7a,SCR,2024-06-11_12h18.01.124,LearnStrategy,2023.2.3,Win32,60.60606061,8,1,10,-0.51171875,0.252604167,1,0,0,1.3584,Pegmatite_16,6,16,5,1,1.358,6,16,-0.12890625,-0.40625,1,0,0,0.9831,Pegmatite_rect,6,0.983,1,9,0,9,0,1,,,,,,,,,,,,,
5b9c2c816f92f30001ecce7a,SCR,2024-06-11_12h18.01.124,LearnStrategy,2023.2.3,Win32,60.60606061,8,1,11,0.06640625,-0.1015625,1,0,0,0.6366,Obsidian_07,5,07,3,5,0.637,5,07,-0.375,-0.407552083,1,0,0,1.3345,Obsidian_rect,5,1.334,1,10,0,10,0,1,,,,,,,,,,,,,
5b9c2c816f92f30001ecce7a,SCR,2024-06-11_12h18.01.124,LearnStrategy,2023.2.3,Win32,60.60606061,8,1,12,0.217447917,-0.106770833,1,0,0,0.7953,Pegmatite_03,6,03,3,6,0.795,6,03,-0.084635417,-0.393229167,1,0,0,0.941,Pegmatite_rect,6,0.941,1,11,0,11,0,1,,,,,,,,,,,,,
5b9c2c816f92f30001ecce7a,SCR,2024-06-11_12h18.01.124,LearnStrategy,2023.2.3,Win32,60.60606061,8,1,13,-0.49609375,-0.407552083,1,0,0,1.4118,Gabbro_10,4,10,1,1,1.412,4,10,0.451822917,-0.265625,1,0,0,1.2859,Gabbro_rect,4,1.286,1,12,0,12,0,1,,,,,,,,,,,,,
5b9c2c816f92f30001ecce7a,SCR,2024-06-11_12h18.01.124,LearnStrategy,2023.2.3,Win32,60.60606061,8,1,14,0.341145833,0.087239583,1,0,0,0.7349,Pumice_09,8,09,4,7,0.735,8,09,0.373697917,-0.408854167,1,0,0,0.8599,Pumice_rect,8,0.86,1,13,0,13,0,1,,,,,,,,,,,,,
5b9c2c816f92f30001ecce7a,SCR,2024-06-11_12h18.01.124,LearnStrategy,2023.2.3,Win32,60.60606061,8,1,15,0.390625,-0.27734375,1,0,0,1.1425,Gabbro_01,4,01,2,7,1.142,4,01,0.424479167,-0.255208333,1,0,0,0.9801,Gabbro_rect,4,0.98,1,14,0,14,0,1,,,,,,,,,,,,,
5b9c2c816f92f30001ecce7a,SCR,2024-06-11_12h18.01.124,LearnStrategy,2023.2.3,Win32,60.60606061,8,1,16,0.20703125,0.1015625,1,0,0,1.4416,Gabbro_08,4,08,4,6,1.442,4,08,0.420572917,-0.26171875,1,0,0,1.8944,Gabbro_rect,4,1.894,1,15,0,15,0,1,,,,,,,,,,,,,
5b9c2c816f92f30001ecce7a,SCR,2024-06-11_12h18.01.124,LearnStrategy,2023.2.3,Win32,60.60606061,8,2,1,,,,,,,,8,10,,,,,,,,,,,,,8,1.196,1,,,,,,0.377604167,-0.399739583,1,0,0,1.1961,Pumice_rect,0,0,0,0,1,
5b9c2c816f92f30001ecce7a,SCR,2024-06-11_12h18.01.124,LearnStrategy,2023.2.3,Win32,60.60606061,8,2,2,,,,,,,,6,15,,,,,,,,,,,,,6,1.13,1,,,,,,-0.092447917,-0.403645833,1,0,0,1.1301,Pegmatite_rect,1,0,1,0,1,
5b9c2c816f92f30001ecce7a,SCR,2024-06-11_12h18.01.124,LearnStrategy,2023.2.3,Win32,60.60606061,8,2,3,,,,,,,,1,07,,,,,,,,,,,,,3,1.6,0,,,,,,0.095052083,-0.2578125,1,0,0,1.5996,Diorite_rect,2,0,2,0,1,
5b9c2c816f92f30001ecce7a,SCR,2024-06-11_12h18.01.124,LearnStrategy,2023.2.3,Win32,60.60606061,8,2,4,,,,,,,,7,13,,,,,,,,,,,,,7,0.907,1,,,,,,0.125,-0.421875,1,0,0,0.9067,Peridotite_rect,3,0,3,0,1,
5b9c2c816f92f30001ecce7a,SCR,2024-06-11_12h18.01.124,LearnStrategy,2023.2.3,Win32,60.60606061,8,2,5,,,,,,,,5,11,,,,,,,,,,,,,5,1.799,1,,,,,,-0.389322917,-0.411458333,1,0,0,1.7991,Obsidian_rect,4,0,4,0,1,
5b9c2c816f92f30001ecce7a,SCR,2024-06-11_12h18.01.124,LearnStrategy,2023.2.3,Win32,60.60606061,8,2,6,,,,,,,,2,01,,,,,,,,,,,,,2,1.611,1,,,,,,-0.171875,-0.231770833,1,0,0,1.6108,Basalt_rect,5,0,5,0,1,
5b9c2c816f92f30001ecce7a,SCR,2024-06-11_12h18.01.124,LearnStrategy,2023.2.3,Win32,60.60606061,8,2,7,,,,,,,,4,09,,,,,,,,,,,,,2,12.222,0,,,,,,-0.158854167,-0.270833333,1,0,0,12.2215,Basalt_rect,6,0,6,0,1,
5b9c2c816f92f30001ecce7a,SCR,2024-06-11_12h18.01.124,LearnStrategy,2023.2.3,Win32,60.60606061,8,2,8,,,,,,,,8,04,,,,,,,,,,,,,8,1.065,1,,,,,,0.391927083,-0.391927083,1,0,0,1.0647,Pumice_rect,7,0,7,0,1,
5b9c2c816f92f30001ecce7a,SCR,2024-06-11_12h18.01.124,LearnStrategy,2023.2.3,Win32,60.60606061,8,2,9,,,,,,,,3,12,,,,,,,,,,,,,4,3.442,0,,,,,,0.34375,-0.234375,1,0,0,3.4416,Gabbro_rect,8,0,8,0,1,
5b9c2c816f92f30001ecce7a,SCR,2024-06-11_12h18.01.124,LearnStrategy,2023.2.3,Win32,60.60606061,8,2,10,,,,,,,,7,16,,,,,,,,,,,,,7,1.265,1,,,,,,0.173177083,-0.40234375,1,0,0,1.2654,Peridotite_rect,9,0,9,0,1,
5b9c2c816f92f30001ecce7a,SCR,2024-06-11_12h18.01.124,LearnStrategy,2023.2.3,Win32,60.60606061,8,2,11,,,,,,,,6,12,,,,,,,,,,,,,6,1.004,1,,,,,,-0.127604167,-0.381510417,1,0,0,1.004,Pegmatite_rect,10,0,10,0,1,
5b9c2c816f92f30001ecce7a,SCR,2024-06-11_12h18.01.124,LearnStrategy,2023.2.3,Win32,60.60606061,8,2,12,,,,,,,,4,13,,,,,,,,,,,,,4,2.73,1,,,,,,0.451822917,-0.244791667,1,0,0,2.7303,Gabbro_rect,11,0,11,0,1,
5b9c2c816f92f30001ecce7a,SCR,2024-06-11_12h18.01.124,LearnStrategy,2023.2.3,Win32,60.60606061,8,2,13,,,,,,,,5,16,,,,,,,,,,,,,5,1.166,1,,,,,,-0.359375,-0.40625,1,0,0,1.1657,Obsidian_rect,12,0,12,0,1,
5b9c2c816f92f30001ecce7a,SCR,2024-06-11_12h18.01.124,LearnStrategy,2023.2.3,Win32,60.60606061,8,2,14,,,,,,,,1,06,,,,,,,,,,,,,1,1.2,1,,,,,,-0.428385417,-0.229166667,1,0,0,1.2005,Andesite_rect,13,0,13,0,1,
5b9c2c816f92f30001ecce7a,SCR,2024-06-11_12h18.01.124,LearnStrategy,2023.2.3,Win32,60.60606061,8,2,15,,,,,,,,3,06,,,,,,,,,,,,,3,6.448,1,,,,,,0.1015625,-0.2578125,1,0,0,6.4475,Diorite_rect,14,0,14,0,1,
5b9c2c816f92f30001ecce7a,SCR,2024-06-11_12h18.01.124,LearnStrategy,2023.2.3,Win32,60.60606061,8,2,16,,,,,,,,2,08,,,,,,,,,,,,,2,1.331,1,,,,,,-0.1328125,-0.25390625,1,0,0,1.3308,Basalt_rect,15,0,15,0,1,
5b9c2c816f92f30001ecce7a,SCR,2024-06-11_12h18.01.124,LearnStrategy,2023.2.3,Win32,60.60606061,9,1,1,0.09375,0.087239583,1,0,0,0.6309,Andesite_05,1,05,4,5,0.631,1,05,-0.373697917,-0.244791667,1,0,0,1.5767,Andesite_rect,1,1.577,1,0,0,0,0,1,,,,,,,,,,,,,
5b9c2c816f92f30001ecce7a,SCR,2024-06-11_12h18.01.124,LearnStrategy,2023.2.3,Win32,60.60606061,9,1,2,0.09765625,0.438802083,1,0,0,0.9497,Andesite_04,1,04,6,5,0.95,1,04,-0.369791667,-0.244791667,1,0,0,1.6903,Andesite_rect,1,1.69,1,1,0,1,0,1,,,,,,,,,,,,,
5b9c2c816f92f30001ecce7a,SCR,2024-06-11_12h18.01.124,LearnStrategy,2023.2.3,Win32,60.60606061,9,1,3,0.208333333,0.442708333,1,0,0,0.8074,Gabbro_12,4,12,6,6,0.807,4,12,0.41796875,-0.247395833,1,0,0,0.9417,Gabbro_rect,4,0.942,1,2,0,2,0,1,,,,,,,,,,,,,
5b9c2c816f92f30001ecce7a,SCR,2024-06-11_12h18.01.124,LearnStrategy,2023.2.3,Win32,60.60606061,9,1,4,-0.2421875,0.44140625,1,0,0,0.932,Diorite_13,3,13,6,3,0.932,3,13,0.108072917,-0.23828125,1,0,0,1.5757,Diorite_rect,3,1.576,1,3,0,3,0,1,,,,,,,,,,,,,
5b9c2c816f92f30001ecce7a,SCR,2024-06-11_12h18.01.124,LearnStrategy,2023.2.3,Win32,60.60606061,9,1,5,-0.106770833,0.438802083,1,0,0,1.0129,Gabbro_05,4,05,6,4,1.013,4,05,0.119791667,-0.395833333,1,0,0,1.2317,Peridotite_rect,7,1.232,0,4,0,4,0,1,,,,,,,,,,,,,
5b9c2c816f92f30001ecce7a,SCR,2024-06-11_12h18.01.124,LearnStrategy,2023.2.3,Win32,60.60606061,9,1,6,-0.59375,-0.252604167,1,0,0,0.9278,Peridotite_14,7,14,2,1,0.928,7,14,0.09765625,-0.408854167,1,0,0,2.197,Peridotite_rect,7,2.197,1,5,0,5,0,1,,,,,,,,,,,,,
5b9c2c816f92f30001ecce7a,SCR,2024-06-11_12h18.01.124,LearnStrategy,2023.2.3,Win32,60.60606061,9,1,7,0.229166667,0.419270833,1,0,0,1.7152,Gabbro_12,4,12,6,6,1.715,4,12,0.424479167,-0.26171875,1,0,0,1.129,Gabbro_rect,4,1.129,1,6,0,6,0,1,,,,,,,,,,,,,
5b9c2c816f92f30001ecce7a,SCR,2024-06-11_12h18.01.124,LearnStrategy,2023.2.3,Win32,60.60606061,9,1,8,-0.08203125,-0.2734375,1,0,0,2.8648,Diorite_09,3,09,2,4,2.865,4,08,0.122395833,-0.24609375,1,0,0,1.3097,Diorite_rect,3,1.31,1,7,0,7,0,1,,,,,,,,,,,,,
5b9c2c816f92f30001ecce7a,SCR,2024-06-11_12h18.01.124,LearnStrategy,2023.2.3,Win32,60.60606061,9,1,9,0.111979167,-0.407552083,1,0,0,1.9844,Basalt_11,2,11,1,5,1.984,4,01,0.341145833,-0.39453125,1,0,0,2.0275,Pumice_rect,8,2.028,0,8,0,8,0,1,,,,,,,,,,,,,
5b9c2c816f92f30001ecce7a,SCR,2024-06-11_12h18.01.124,LearnStrategy,2023.2.3,Win32,60.60606061,9,1,10,-0.227864583,0.227864583,1,0,0,0.9041,Pumice_15,8,15,5,3,0.904,8,15,0.368489583,-0.38671875,1,0,0,1.0432,Pumice_rect,8,1.043,1,9,0,9,0,1,,,,,,,,,,,,,
5b9c2c816f92f30001ecce7a,SCR,2024-06-11_12h18.01.124,LearnStrategy,2023.2.3,Win32,60.60606061,9,1,11,-0.0703125,-0.09375,1,0,0,1.0485,Pumice_02,8,02,3,4,1.049,6,10,0.338541667,-0.390625,1,0,0,1.1896,Pumice_rect,8,1.19,1,10,0,10,0,1,,,,,,,,,,,,,
5b9c2c816f92f30001ecce7a,SCR,2024-06-11_12h18.01.124,LearnStrategy,2023.2.3,Win32,60.60606061,9,1,12,-0.384114583,-0.20703125,1,0,0,1.7435,Andesite_10,1,10,2,2,1.744,3,09,-0.411458333,-0.264322917,1,0,0,1.3686,Andesite_rect,1,1.369,1,11,0,11,0,1,,,,,,,,,,,,,
5b9c2c816f92f30001ecce7a,SCR,2024-06-11_12h18.01.124,LearnStrategy,2023.2.3,Win32,60.60606061,9,1,13,-0.436197917,0.106770833,1,0,0,1.8886,Pumice_08,8,08,4,2,1.889,3,13,0.359375,-0.3984375,1,0,0,1.8565,Pumice_rect,8,1.856,1,12,0,12,0,1,,,,,,,,,,,,,
5b9c2c816f92f30001ecce7a,SCR,2024-06-11_12h18.01.124,LearnStrategy,2023.2.3,Win32,60.60606061,9,1,14,0.552083333,-0.108072917,1,0,0,1.3472,Diorite_02,3,02,3,8,1.347,2,12,0.180989583,-0.235677083,1,0,0,0.6871,Diorite_rect,3,0.687,1,13,0,13,0,1,,,,,,,,,,,,,
5b9c2c816f92f30001ecce7a,SCR,2024-06-11_12h18.01.124,LearnStrategy,2023.2.3,Win32,60.60606061,9,1,15,0.424479167,-0.255208333,1,0,0,3.1003,Gabbro_01,4,01,2,7,3.1,1,10,0.403645833,-0.24609375,1,0,0,0.593,Gabbro_rect,4,0.593,1,14,0,14,0,1,,,,,,,,,,,,,
5b9c2c816f92f30001ecce7a,SCR,2024-06-11_12h18.01.124,LearnStrategy,2023.2.3,Win32,60.60606061,9,1,16,-0.3671875,0.065104167,1,0,0,2.525,Pumice_08,8,08,4,2,2.525,5,07,0.399739583,-0.39453125,1,0,0,0.9725,Pumice_rect,8,0.972,1,15,0,15,0,1,,,,,,,,,,,,,
5b9c2c816f92f30001ecce7a,SCR,2024-06-11_12h18.01.124,LearnStrategy,2023.2.3,Win32,60.60606061,9,2,1,,,,,,,,1,09,,,,,,,,,,,,,1,1.567,1,,,,,,-0.388020833,-0.266927083,1,0,0,1.5672,Andesite_rect,0,0,0,0,1,
5b9c2c816f92f30001ecce7a,SCR,2024-06-11_12h18.01.124,LearnStrategy,2023.2.3,Win32,60.60606061,9,2,2,,,,,,,,5,12,,,,,,,,,,,,,5,1.109,1,,,,,,-0.346354167,-0.421875,1,0,0,1.1091,Obsidian_rect,1,0,1,0,1,
5b9c2c816f92f30001ecce7a,SCR,2024-06-11_12h18.01.124,LearnStrategy,2023.2.3,Win32,60.60606061,9,2,3,,,,,,,,6,08,,,,,,,,,,,,,6,1.046,1,,,,,,-0.158854167,-0.416666667,1,0,0,1.046,Pegmatite_rect,2,0,2,0,1,
5b9c2c816f92f30001ecce7a,SCR,2024-06-11_12h18.01.124,LearnStrategy,2023.2.3,Win32,60.60606061,9,2,4,,,,,,,,2,06,,,,,,,,,,,,,2,1.498,1,,,,,,-0.15625,-0.23828125,1,0,0,1.4976,Basalt_rect,3,0,3,0,1,
5b9c2c816f92f30001ecce7a,SCR,2024-06-11_12h18.01.124,LearnStrategy,2023.2.3,Win32,60.60606061,9,2,5,,,,,,,,4,14,,,,,,,,,,,,,4,5.078,1,,,,,,0.440104167,-0.252604167,1,0,0,5.0777,Gabbro_rect,4,0,4,0,1,
5b9c2c816f92f30001ecce7a,SCR,2024-06-11_12h18.01.124,LearnStrategy,2023.2.3,Win32,60.60606061,9,2,6,,,,,,,,2,02,,,,,,,,,,,,,2,5.196,1,,,,,,-0.07421875,-0.23046875,1,0,0,5.1959,Basalt_rect,5,0,5,0,1,
5b9c2c816f92f30001ecce7a,SCR,2024-06-11_12h18.01.124,LearnStrategy,2023.2.3,Win32,60.60606061,9,2,7,,,,,,,,1,01,,,,,,,,,,,,,1,2.099,1,,,,,,-0.408854167,-0.26171875,1,0,0,2.0994,Andesite_rect,6,0,6,0,1,
5b9c2c816f92f30001ecce7a,SCR,2024-06-11_12h18.01.124,LearnStrategy,2023.2.3,Win32,60.60606061,9,2,8,,,,,,,,8,06,,,,,,,,,,,,,8,1.036,1,,,,,,0.3515625,-0.39453125,1,0,0,1.0364,Pumice_rect,7,0,7,0,1,
5b9c2c816f92f30001ecce7a,SCR,2024-06-11_12h18.01.124,LearnStrategy,2023.2.3,Win32,60.60606061,9,2,9,,,,,,,,7,15,,,,,,,,,,,,,7,1.007,1,,,,,,0.158854167,-0.3984375,1,0,0,1.0074,Peridotite_rect,8,0,8,0,1,
5b9c2c816f92f30001ecce7a,SCR,2024-06-11_12h18.01.124,LearnStrategy,2023.2.3,Win32,60.60606061,9,2,10,,,,,,,,7,10,,,,,,,,,,,,,7,0.754,1,,,,,,0.158854167,-0.3984375,1,0,0,0.7536,Peridotite_rect,9,0,9,0,1,
5b9c2c816f92f30001ecce7a,SCR,2024-06-11_12h18.01.124,LearnStrategy,2023.2.3,Win32,60.60606061,9,2,11,,,,,,,,3,14,,,,,,,,,,,,,3,5.157,1,,,,,,0.171875,-0.259114583,1,0,0,5.1568,Diorite_rect,10,0,10,0,1,
5b9c2c816f92f30001ecce7a,SCR,2024-06-11_12h18.01.124,LearnStrategy,2023.2.3,Win32,60.60606061,9,2,12,,,,,,,,4,03,,,,,,,,,,,,,4,1.947,1,,,,,,0.408854167,-0.255208333,1,0,0,1.9473,Gabbro_rect,11,0,11,0,1,
5b9c2c816f92f30001ecce7a,SCR,2024-06-11_12h18.01.124,LearnStrategy,2023.2.3,Win32,60.60606061,9,2,13,,,,,,,,8,05,,,,,,,,,,,,,8,1.048,1,,,,,,0.438802083,-0.407552083,1,0,0,1.0485,Pumice_rect,12,0,12,0,1,
5b9c2c816f92f30001ecce7a,SCR,2024-06-11_12h18.01.124,LearnStrategy,2023.2.3,Win32,60.60606061,9,2,14,,,,,,,,3,10,,,,,,,,,,,,,1,3.273,0,,,,,,-0.319010417,-0.23046875,1,0,0,3.2727,Andesite_rect,13,0,13,0,1,
5b9c2c816f92f30001ecce7a,SCR,2024-06-11_12h18.01.124,LearnStrategy,2023.2.3,Win32,60.60606061,9,2,15,,,,,,,,5,06,,,,,,,,,,,,,5,0.999,1,,,,,,-0.333333333,-0.37890625,1,0,0,0.999,Obsidian_rect,14,0,14,0,1,
5b9c2c816f92f30001ecce7a,SCR,2024-06-11_12h18.01.124,LearnStrategy,2023.2.3,Win32,60.60606061,9,2,16,,,,,,,,6,09,,,,,,,,,,,,,6,1.121,1,,,,,,-0.0859375,-0.4140625,1,0,0,1.1211,Pegmatite_rect,15,0,15,0,1,
5b9c2c816f92f30001ecce7a,SCR,2024-06-11_12h18.01.124,LearnStrategy,2023.2.3,Win32,60.60606061,,,,,,,,,,,,,,,,,,,,,,,,,,,,,,,,,,,,,,,,,,,,,1
5b9c2c816f92f30001ecce7a,SCR,2024-06-11_12h18.01.124,LearnStrategy,2023.2.3,Win32,60.60606061,,,,,,,,,,,,,,,,,,,,,,,,,,,,,,,,,,,,,,,,,,,,,
5b9c2c816f92f30001ecce7a,SCR,2024-06-11_12h18.01.124,LearnStrategy,2023.2.3,Win32,60.60606061,,,,,,,,,,,4,10,1,1,,,,,,,,,,,,,,,,,,,,,,,,,,,,,,,
5b9c2c816f92f30001ecce7a,SCR,2024-06-11_12h18.01.124,LearnStrategy,2023.2.3,Win32,60.60606061,,,,,,,,,,,4,15,1,2,,,,,,,,,,,,,,,,,,,,,,,,,,,,,,,
5b9c2c816f92f30001ecce7a,SCR,2024-06-11_12h18.01.124,LearnStrategy,2023.2.3,Win32,60.60606061,,,,,,,,,,,2,16,1,3,,,,,,,,,,,,,,,,,,,,,,,,,,,,,,,
5b9c2c816f92f30001ecce7a,SCR,2024-06-11_12h18.01.124,LearnStrategy,2023.2.3,Win32,60.60606061,,,,,,,,,,,3,11,1,4,,,,,,,,,,,,,,,,,,,,,,,,,,,,,,,
5b9c2c816f92f30001ecce7a,SCR,2024-06-11_12h18.01.124,LearnStrategy,2023.2.3,Win32,60.60606061,,,,,,,,,,,2,11,1,5,,,,,,,,,,,,,,,,,,,,,,,,,,,,,,,
5b9c2c816f92f30001ecce7a,SCR,2024-06-11_12h18.01.124,LearnStrategy,2023.2.3,Win32,60.60606061,,,,,,,,,,,2,09,1,6,,,,,,,,,,,,,,,,,,,,,,,,,,,,,,,
5b9c2c816f92f30001ecce7a,SCR,2024-06-11_12h18.01.124,LearnStrategy,2023.2.3,Win32,60.60606061,,,,,,,,,,,7,04,1,7,,,,,,,,,,,,,,,,,,,,,,,,,,,,,,,
5b9c2c816f92f30001ecce7a,SCR,2024-06-11_12h18.01.124,LearnStrategy,2023.2.3,Win32,60.60606061,,,,,,,,,,,5,05,1,8,,,,,,,,,,,,,,,,,,,,,,,,,,,,,,,
5b9c2c816f92f30001ecce7a,SCR,2024-06-11_12h18.01.124,LearnStrategy,2023.2.3,Win32,60.60606061,,,,,,,,,,,7,14,2,1,,,,,,,,,,,,,,,,,,,,,,,,,,,,,,,
5b9c2c816f92f30001ecce7a,SCR,2024-06-11_12h18.01.124,LearnStrategy,2023.2.3,Win32,60.60606061,,,,,,,,,,,1,10,2,2,,,,,,,,,,,,,,,,,,,,,,,,,,,,,,,
5b9c2c816f92f30001ecce7a,SCR,2024-06-11_12h18.01.124,LearnStrategy,2023.2.3,Win32,60.60606061,,,,,,,,,,,5,10,2,3,,,,,,,,,,,,,,,,,,,,,,,,,,,,,,,
5b9c2c816f92f30001ecce7a,SCR,2024-06-11_12h18.01.124,LearnStrategy,2023.2.3,Win32,60.60606061,,,,,,,,,,,3,09,2,4,,,,,,,,,,,,,,,,,,,,,,,,,,,,,,,
5b9c2c816f92f30001ecce7a,SCR,2024-06-11_12h18.01.124,LearnStrategy,2023.2.3,Win32,60.60606061,,,,,,,,,,,6,07,2,5,,,,,,,,,,,,,,,,,,,,,,,,,,,,,,,
5b9c2c816f92f30001ecce7a,SCR,2024-06-11_12h18.01.124,LearnStrategy,2023.2.3,Win32,60.60606061,,,,,,,,,,,8,14,2,6,,,,,,,,,,,,,,,,,,,,,,,,,,,,,,,
5b9c2c816f92f30001ecce7a,SCR,2024-06-11_12h18.01.124,LearnStrategy,2023.2.3,Win32,60.60606061,,,,,,,,,,,4,01,2,7,,,,,,,,,,,,,,,,,,,,,,,,,,,,,,,
5b9c2c816f92f30001ecce7a,SCR,2024-06-11_12h18.01.124,LearnStrategy,2023.2.3,Win32,60.60606061,,,,,,,,,,,6,06,2,8,,,,,,,,,,,,,,,,,,,,,,,,,,,,,,,
5b9c2c816f92f30001ecce7a,SCR,2024-06-11_12h18.01.124,LearnStrategy,2023.2.3,Win32,60.60606061,,,,,,,,,,,6,13,3,1,,,,,,,,,,,,,,,,,,,,,,,,,,,,,,,
5b9c2c816f92f30001ecce7a,SCR,2024-06-11_12h18.01.124,LearnStrategy,2023.2.3,Win32,60.60606061,,,,,,,,,,,7,05,3,2,,,,,,,,,,,,,,,,,,,,,,,,,,,,,,,
5b9c2c816f92f30001ecce7a,SCR,2024-06-11_12h18.01.124,LearnStrategy,2023.2.3,Win32,60.60606061,,,,,,,,,,,5,04,3,3,,,,,,,,,,,,,,,,,,,,,,,,,,,,,,,
5b9c2c816f92f30001ecce7a,SCR,2024-06-11_12h18.01.124,LearnStrategy,2023.2.3,Win32,60.60606061,,,,,,,,,,,8,02,3,4,,,,,,,,,,,,,,,,,,,,,,,,,,,,,,,
5b9c2c816f92f30001ecce7a,SCR,2024-06-11_12h18.01.124,LearnStrategy,2023.2.3,Win32,60.60606061,,,,,,,,,,,5,07,3,5,,,,,,,,,,,,,,,,,,,,,,,,,,,,,,,
5b9c2c816f92f30001ecce7a,SCR,2024-06-11_12h18.01.124,LearnStrategy,2023.2.3,Win32,60.60606061,,,,,,,,,,,6,03,3,6,,,,,,,,,,,,,,,,,,,,,,,,,,,,,,,
5b9c2c816f92f30001ecce7a,SCR,2024-06-11_12h18.01.124,LearnStrategy,2023.2.3,Win32,60.60606061,,,,,,,,,,,3,15,3,7,,,,,,,,,,,,,,,,,,,,,,,,,,,,,,,
5b9c2c816f92f30001ecce7a,SCR,2024-06-11_12h18.01.124,LearnStrategy,2023.2.3,Win32,60.60606061,,,,,,,,,,,3,02,3,8,,,,,,,,,,,,,,,,,,,,,,,,,,,,,,,
5b9c2c816f92f30001ecce7a,SCR,2024-06-11_12h18.01.124,LearnStrategy,2023.2.3,Win32,60.60606061,,,,,,,,,,,7,02,4,1,,,,,,,,,,,,,,,,,,,,,,,,,,,,,,,
5b9c2c816f92f30001ecce7a,SCR,2024-06-11_12h18.01.124,LearnStrategy,2023.2.3,Win32,60.60606061,,,,,,,,,,,8,08,4,2,,,,,,,,,,,,,,,,,,,,,,,,,,,,,,,
5b9c2c816f92f30001ecce7a,SCR,2024-06-11_12h18.01.124,LearnStrategy,2023.2.3,Win32,60.60606061,,,,,,,,,,,2,05,4,3,,,,,,,,,,,,,,,,,,,,,,,,,,,,,,,
5b9c2c816f92f30001ecce7a,SCR,2024-06-11_12h18.01.124,LearnStrategy,2023.2.3,Win32,60.60606061,,,,,,,,,,,2,12,4,4,,,,,,,,,,,,,,,,,,,,,,,,,,,,,,,
5b9c2c816f92f30001ecce7a,SCR,2024-06-11_12h18.01.124,LearnStrategy,2023.2.3,Win32,60.60606061,,,,,,,,,,,1,05,4,5,,,,,,,,,,,,,,,,,,,,,,,,,,,,,,,
5b9c2c816f92f30001ecce7a,SCR,2024-06-11_12h18.01.124,LearnStrategy,2023.2.3,Win32,60.60606061,,,,,,,,,,,4,08,4,6,,,,,,,,,,,,,,,,,,,,,,,,,,,,,,,
5b9c2c816f92f30001ecce7a,SCR,2024-06-11_12h18.01.124,LearnStrategy,2023.2.3,Win32,60.60606061,,,,,,,,,,,8,09,4,7,,,,,,,,,,,,,,,,,,,,,,,,,,,,,,,
5b9c2c816f92f30001ecce7a,SCR,2024-06-11_12h18.01.124,LearnStrategy,2023.2.3,Win32,60.60606061,,,,,,,,,,,1,14,4,8,,,,,,,,,,,,,,,,,,,,,,,,,,,,,,,
5b9c2c816f92f30001ecce7a,SCR,2024-06-11_12h18.01.124,LearnStrategy,2023.2.3,Win32,60.60606061,,,,,,,,,,,6,16,5,1,,,,,,,,,,,,,,,,,,,,,,,,,,,,,,,
5b9c2c816f92f30001ecce7a,SCR,2024-06-11_12h18.01.124,LearnStrategy,2023.2.3,Win32,60.60606061,,,,,,,,,,,5,14,5,2,,,,,,,,,,,,,,,,,,,,,,,,,,,,,,,
5b9c2c816f92f30001ecce7a,SCR,2024-06-11_12h18.01.124,LearnStrategy,2023.2.3,Win32,60.60606061,,,,,,,,,,,8,15,5,3,,,,,,,,,,,,,,,,,,,,,,,,,,,,,,,
5b9c2c816f92f30001ecce7a,SCR,2024-06-11_12h18.01.124,LearnStrategy,2023.2.3,Win32,60.60606061,,,,,,,,,,,2,10,5,4,,,,,,,,,,,,,,,,,,,,,,,,,,,,,,,
5b9c2c816f92f30001ecce7a,SCR,2024-06-11_12h18.01.124,LearnStrategy,2023.2.3,Win32,60.60606061,,,,,,,,,,,7,07,5,5,,,,,,,,,,,,,,,,,,,,,,,,,,,,,,,
5b9c2c816f92f30001ecce7a,SCR,2024-06-11_12h18.01.124,LearnStrategy,2023.2.3,Win32,60.60606061,,,,,,,,,,,5,09,5,6,,,,,,,,,,,,,,,,,,,,,,,,,,,,,,,
5b9c2c816f92f30001ecce7a,SCR,2024-06-11_12h18.01.124,LearnStrategy,2023.2.3,Win32,60.60606061,,,,,,,,,,,3,07,5,7,,,,,,,,,,,,,,,,,,,,,,,,,,,,,,,
5b9c2c816f92f30001ecce7a,SCR,2024-06-11_12h18.01.124,LearnStrategy,2023.2.3,Win32,60.60606061,,,,,,,,,,,6,10,5,8,,,,,,,,,,,,,,,,,,,,,,,,,,,,,,,
5b9c2c816f92f30001ecce7a,SCR,2024-06-11_12h18.01.124,LearnStrategy,2023.2.3,Win32,60.60606061,,,,,,,,,,,1,02,6,1,,,,,,,,,,,,,,,,,,,,,,,,,,,,,,,
5b9c2c816f92f30001ecce7a,SCR,2024-06-11_12h18.01.124,LearnStrategy,2023.2.3,Win32,60.60606061,,,,,,,,,,,1,03,6,2,,,,,,,,,,,,,,,,,,,,,,,,,,,,,,,
5b9c2c816f92f30001ecce7a,SCR,2024-06-11_12h18.01.124,LearnStrategy,2023.2.3,Win32,60.60606061,,,,,,,,,,,3,13,6,3,,,,,,,,,,,,,,,,,,,,,,,,,,,,,,,
5b9c2c816f92f30001ecce7a,SCR,2024-06-11_12h18.01.124,LearnStrategy,2023.2.3,Win32,60.60606061,,,,,,,,,,,4,05,6,4,,,,,,,,,,,,,,,,,,,,,,,,,,,,,,,
5b9c2c816f92f30001ecce7a,SCR,2024-06-11_12h18.01.124,LearnStrategy,2023.2.3,Win32,60.60606061,,,,,,,,,,,1,04,6,5,,,,,,,,,,,,,,,,,,,,,,,,,,,,,,,
5b9c2c816f92f30001ecce7a,SCR,2024-06-11_12h18.01.124,LearnStrategy,2023.2.3,Win32,60.60606061,,,,,,,,,,,4,12,6,6,,,,,,,,,,,,,,,,,,,,,,,,,,,,,,,
5b9c2c816f92f30001ecce7a,SCR,2024-06-11_12h18.01.124,LearnStrategy,2023.2.3,Win32,60.60606061,,,,,,,,,,,7,12,6,7,,,,,,,,,,,,,,,,,,,,,,,,,,,,,,,
5b9c2c816f92f30001ecce7a,SCR,2024-06-11_12h18.01.124,LearnStrategy,2023.2.3,Win32,60.60606061,,,,,,,,,,,8,13,6,8,,,,,,,,,,,,,,,,,,,,,,,,,,,,,,,