participant,condition,date,expName,psychopyVersion,OS,frameRate,block,phase,trial,learn_mouse_2.x,learn_mouse_2.y,learn_mouse_2.leftButton,learn_mouse_2.midButton,learn_mouse_2.rightButton,learn_mouse_2.time,learn_mouse_2.clicked_name,cat,token,row,col,t_select,cat_mouse_l.x,cat_mouse_l.y,cat_mouse_l.leftButton,cat_mouse_l.midButton,cat_mouse_l.rightButton,cat_mouse_l.time,cat_mouse_l.clicked_name,resp,t_resp,corr,train_trials.thisRepN,train_trials.thisTrialN,train_trials.thisN,train_trials.thisIndex,train_trials.ran,cat_mouse_t.x,cat_mouse_t.y,cat_mouse_t.leftButton,cat_mouse_t.midButton,cat_mouse_t.rightButton,cat_mouse_t.time,cat_mouse_t.clicked_name,test_trials.thisRepN,test_trials.thisTrialN,test_trials.thisN,test_trials.thisIndex,test_trials.ran,Bonus
5bdfb648484288000130dad0,TCR,2024-06-26_10h47.49.423,LearnStrategy,2023.2.3,MacIntel,60.24096386,,,,,,,,,,,,,,,,,,,,,,,,,,,,,,,,,,,,,,,,,,,
5bdfb648484288000130dad0,TCR,2024-06-26_10h47.49.423,LearnStrategy,2023.2.3,MacIntel,60.24096386,1,1,1,0.147002224,-0.011414252,1,0,0,2.6609,rock_grid_rect_2,3,15,-1,-1,2.661,-0.202865058,-0.23682251,1,0,0,2.5195,Basalt_rect,2,2.519,0,0,0,0,0,1,,,,,,,,,,,,,
5bdfb648484288000130dad0,TCR,2024-06-26_10h47.49.423,LearnStrategy,2023.2.3,MacIntel,60.24096386,1,1,2,0.040073785,-0.007176005,1,0,0,1.7643,rock_grid_rect_2,8,13,-1,-1,1.764,0.385436469,-0.235139431,1,0,0,2.3439,Gabbro_rect,4,2.344,0,1,0,1,0,1,,,,,,,,,,,,,
5bdfb648484288000130dad0,TCR,2024-06-26_10h47.49.423,LearnStrategy,2023.2.3,MacIntel,60.24096386,1,1,3,0.066187269,0.002048408,1,0,0,1.4233,rock_grid_rect_2,6,12,-1,-1,1.423,-0.202683987,-0.384252658,1,0,0,2.8921,Pegmatite_rect,6,2.892,1,2,0,2,0,1,,,,,,,,,,,,,
5bdfb648484288000130dad0,TCR,2024-06-26_10h47.49.423,LearnStrategy,2023.2.3,MacIntel,60.24096386,1,1,4,-0.059916653,0.00150394,1,0,0,1.3389,rock_grid_rect_2,8,08,-1,-1,1.339,0.32869222,-0.391746216,1,0,0,3.8279,Pumice_rect,8,3.828,1,3,0,3,0,1,,,,,,,,,,,,,
5bdfb648484288000130dad0,TCR,2024-06-26_10h47.49.423,LearnStrategy,2023.2.3,MacIntel,60.24096386,1,1,5,-0.023633219,-0.009985758,1,0,0,1.4233,rock_grid_rect_2,1,07,-1,-1,1.423,-0.347289124,-0.264412706,1,0,0,2.2207,Andesite_rect,1,2.221,1,4,0,4,0,1,,,,,,,,,,,,,
5bdfb648484288000130dad0,TCR,2024-06-26_10h47.49.423,LearnStrategy,2023.2.3,MacIntel,60.24096386,1,1,6,-0.052697144,0.013271891,1,0,0,1.8389,rock_grid_rect_2,7,14,-1,-1,1.839,-0.302870483,-0.404857924,1,0,0,2.0415,Obsidian_rect,5,2.042,0,5,0,5,0,1,,,,,,,,,,,,,
5bdfb648484288000130dad0,TCR,2024-06-26_10h47.49.423,LearnStrategy,2023.2.3,MacIntel,60.24096386,1,1,7,0.144169583,-0.006885579,1,0,0,1.2308,rock_grid_rect_2,4,15,-1,-1,1.231,-0.366671855,-0.248453098,1,0,0,4.4253,Andesite_rect,1,4.425,0,6,0,6,0,1,,,,,,,,,,,,,
5bdfb648484288000130dad0,TCR,2024-06-26_10h47.49.423,LearnStrategy,2023.2.3,MacIntel,60.24096386,1,1,8,0.033096924,-0.01197876,1,0,0,1.2641,rock_grid_rect_2,4,10,-1,-1,1.264,-0.099147814,-0.404302979,1,0,0,2.2038,Pegmatite_rect,6,2.204,0,7,0,7,0,1,,,,,,,,,,,,,
5bdfb648484288000130dad0,TCR,2024-06-26_10h47.49.423,LearnStrategy,2023.2.3,MacIntel,60.24096386,1,1,9,-0.031126709,-0.009795803,1,0,0,1.2318,rock_grid_rect_2,2,08,-1,-1,1.232,-0.135310872,-0.238715346,1,0,0,8.4186,Basalt_rect,2,8.419,1,8,0,8,0,1,,,,,,,,,,,,,
5bdfb648484288000130dad0,TCR,2024-06-26_10h47.49.423,LearnStrategy,2023.2.3,MacIntel,60.24096386,1,1,10,0.025668199,-0.019465739,1,0,0,1.2497,rock_grid_rect_2,5,11,-1,-1,1.25,0.124245877,-0.231679688,1,0,0,3.443,Diorite_rect,3,3.443,0,9,0,9,0,1,,,,,,,,,,,,,
5bdfb648484288000130dad0,TCR,2024-06-26_10h47.49.423,LearnStrategy,2023.2.3,MacIntel,60.24096386,1,1,11,0.013403388,0.007114665,1,0,0,1.3318,rock_grid_rect_2,3,10,-1,-1,1.332,0.153582696,-0.411402995,1,0,0,4.3426,Peridotite_rect,7,4.343,0,10,0,10,0,1,,,,,,,,,,,,,
5bdfb648484288000130dad0,TCR,2024-06-26_10h47.49.423,LearnStrategy,2023.2.3,MacIntel,60.24096386,1,1,12,-0.042683377,0.004030355,1,0,0,1.2477,rock_grid_rect_2,7,12,-1,-1,1.248,0.064094781,-0.410075277,1,0,0,4.8079,Peridotite_rect,7,4.808,1,11,0,11,0,1,,,,,,,,,,,,,
5bdfb648484288000130dad0,TCR,2024-06-26_10h47.49.423,LearnStrategy,2023.2.3,MacIntel,60.24096386,1,1,13,0.040693156,0.01808709,1,0,0,1.2329,rock_grid_rect_2,1,04,-1,-1,1.233,-0.132585992,-0.379536065,1,0,0,1.5972,Pegmatite_rect,6,1.597,0,12,0,12,0,1,,,,,,,,,,,,,
5bdfb648484288000130dad0,TCR,2024-06-26_10h47.49.423,LearnStrategy,2023.2.3,MacIntel,60.24096386,1,1,14,-0.021910536,-0.002568495,1,0,0,1.0882,rock_grid_rect_2,5,09,-1,-1,1.088,-0.348237237,-0.404124485,1,0,0,2.061,Obsidian_rect,5,2.061,1,13,0,13,0,1,,,,,,,,,,,,,
5bdfb648484288000130dad0,TCR,2024-06-26_10h47.49.423,LearnStrategy,2023.2.3,MacIntel,60.24096386,1,1,15,-0.040898844,0.00188151,1,0,0,2.2488,rock_grid_rect_2,6,15,-1,-1,2.249,-0.097532213,-0.236912231,1,0,0,3.8089,Basalt_rect,2,3.809,0,14,0,14,0,1,,,,,,,,,,,,,
5bdfb648484288000130dad0,TCR,2024-06-26_10h47.49.423,LearnStrategy,2023.2.3,MacIntel,60.24096386,1,1,16,0.004093967,-0.00215332,1,0,0,0.9327,rock_grid_rect_2,2,06,-1,-1,0.933,-0.20771993,-0.255925496,1,0,0,2.1406,Basalt_rect,2,2.141,1,15,0,15,0,1,,,,,,,,,,,,,
5bdfb648484288000130dad0,TCR,2024-06-26_10h47.49.423,LearnStrategy,2023.2.3,MacIntel,60.24096386,1,2,1,,,,,,,,6,16,,,,,,,,,,,2,2.542,0,,,,,,-0.057881266,-0.259492052,1,0,0,2.5419,Basalt_rect,0,0,0,0,1,
5bdfb648484288000130dad0,TCR,2024-06-26_10h47.49.423,LearnStrategy,2023.2.3,MacIntel,60.24096386,1,2,2,,,,,,,,2,16,,,,,,,,,,,4,3.774,0,,,,,,0.333968099,-0.228002116,1,0,0,3.774,Gabbro_rect,1,0,1,0,1,
5bdfb648484288000130dad0,TCR,2024-06-26_10h47.49.423,LearnStrategy,2023.2.3,MacIntel,60.24096386,1,2,3,,,,,,,,1,10,,,,,,,,,,,6,5.575,0,,,,,,-0.065696343,-0.392314046,1,0,0,5.5755,Pegmatite_rect,2,0,2,0,1,
5bdfb648484288000130dad0,TCR,2024-06-26_10h47.49.423,LearnStrategy,2023.2.3,MacIntel,60.24096386,1,2,4,,,,,,,,7,07,,,,,,,,,,,3,4.692,0,,,,,,0.098033108,-0.261600477,1,0,0,4.6918,Diorite_rect,3,0,3,0,1,
5bdfb648484288000130dad0,TCR,2024-06-26_10h47.49.423,LearnStrategy,2023.2.3,MacIntel,60.24096386,1,2,5,,,,,,,,3,11,,,,,,,,,,,1,5.915,0,,,,,,-0.391150852,-0.228532172,1,0,0,5.9145,Andesite_rect,4,0,4,0,1,
5bdfb648484288000130dad0,TCR,2024-06-26_10h47.49.423,LearnStrategy,2023.2.3,MacIntel,60.24096386,1,2,6,,,,,,,,5,06,,,,,,,,,,,5,2.038,1,,,,,,-0.376806878,-0.398008626,1,0,0,2.0377,Obsidian_rect,5,0,5,0,1,
5bdfb648484288000130dad0,TCR,2024-06-26_10h47.49.423,LearnStrategy,2023.2.3,MacIntel,60.24096386,1,2,7,,,,,,,,6,11,,,,,,,,,,,2,2.791,0,,,,,,-0.152317369,-0.248792521,1,0,0,2.7906,Basalt_rect,6,0,6,0,1,
5bdfb648484288000130dad0,TCR,2024-06-26_10h47.49.423,LearnStrategy,2023.2.3,MacIntel,60.24096386,1,2,8,,,,,,,,8,06,,,,,,,,,,,8,1.704,1,,,,,,0.403587104,-0.396574164,1,0,0,1.7041,Pumice_rect,7,0,7,0,1,
5bdfb648484288000130dad0,TCR,2024-06-26_10h47.49.423,LearnStrategy,2023.2.3,MacIntel,60.24096386,1,2,9,,,,,,,,8,05,,,,,,,,,,,8,1.036,1,,,,,,0.403587104,-0.396574164,1,0,0,1.0363,Pumice_rect,8,0,8,0,1,
5bdfb648484288000130dad0,TCR,2024-06-26_10h47.49.423,LearnStrategy,2023.2.3,MacIntel,60.24096386,1,2,10,,,,,,,,4,03,,,,,,,,,,,4,2.063,1,,,,,,0.354343804,-0.259262288,1,0,0,2.0625,Gabbro_rect,9,0,9,0,1,
5bdfb648484288000130dad0,TCR,2024-06-26_10h47.49.423,LearnStrategy,2023.2.3,MacIntel,60.24096386,1,2,11,,,,,,,,3,06,,,,,,,,,,,4,1.338,0,,,,,,0.354343804,-0.253683133,1,0,0,1.338,Gabbro_rect,10,0,10,0,1,
5bdfb648484288000130dad0,TCR,2024-06-26_10h47.49.423,LearnStrategy,2023.2.3,MacIntel,60.24096386,1,2,12,,,,,,,,1,01,,,,,,,,,,,2,1.605,0,,,,,,-0.185238919,-0.261433512,1,0,0,1.6053,Basalt_rect,11,0,11,0,1,
5bdfb648484288000130dad0,TCR,2024-06-26_10h47.49.423,LearnStrategy,2023.2.3,MacIntel,60.24096386,1,2,13,,,,,,,,4,14,,,,,,,,,,,3,2.576,0,,,,,,0.128152669,-0.254179687,1,0,0,2.5759,Diorite_rect,12,0,12,0,1,
5bdfb648484288000130dad0,TCR,2024-06-26_10h47.49.423,LearnStrategy,2023.2.3,MacIntel,60.24096386,1,2,14,,,,,,,,2,02,,,,,,,,,,,2,2.028,1,,,,,,-0.127496745,-0.252488336,1,0,0,2.028,Basalt_rect,13,0,13,0,1,
5bdfb648484288000130dad0,TCR,2024-06-26_10h47.49.423,LearnStrategy,2023.2.3,MacIntel,60.24096386,1,2,15,,,,,,,,5,02,,,,,,,,,,,5,2.152,1,,,,,,-0.329777256,-0.398621216,1,0,0,2.1525,Obsidian_rect,14,0,14,0,1,
5bdfb648484288000130dad0,TCR,2024-06-26_10h47.49.423,LearnStrategy,2023.2.3,MacIntel,60.24096386,1,2,16,,,,,,,,7,15,,,,,,,,,,,6,3.471,0,,,,,,-0.103217231,-0.391757134,1,0,0,3.4712,Pegmatite_rect,15,0,15,0,1,
5bdfb648484288000130dad0,TCR,2024-06-26_10h47.49.423,LearnStrategy,2023.2.3,MacIntel,60.24096386,2,1,1,-0.033570557,0.002493625,1,0,0,3.098,rock_grid_rect_2,1,11,-1,-1,3.098,-0.231606818,-0.407541504,1,0,0,6.665,Pegmatite_rect,6,6.665,0,0,0,0,0,1,,,,,,,,,,,,,
5bdfb648484288000130dad0,TCR,2024-06-26_10h47.49.423,LearnStrategy,2023.2.3,MacIntel,60.24096386,2,1,2,0.028831719,0.006108534,1,0,0,1.2485,rock_grid_rect_2,7,14,-1,-1,1.249,-0.335286018,-0.251005181,1,0,0,5.0076,Andesite_rect,1,5.008,0,1,0,1,0,1,,,,,,,,,,,,,
5bdfb648484288000130dad0,TCR,2024-06-26_10h47.49.423,LearnStrategy,2023.2.3,MacIntel,60.24096386,2,1,3,-0.021187609,-0.006279026,1,0,0,1.3139,rock_grid_rect_2,4,15,-1,-1,1.314,0.339139811,-0.23626336,1,0,0,2.7101,Gabbro_rect,4,2.71,1,2,0,2,0,1,,,,,,,,,,,,,
5bdfb648484288000130dad0,TCR,2024-06-26_10h47.49.423,LearnStrategy,2023.2.3,MacIntel,60.24096386,2,1,4,-0.025633341,-0.011871813,1,0,0,1.1318,rock_grid_rect_2,3,07,-1,-1,1.132,0.401464166,-0.241321615,1,0,0,2.0097,Gabbro_rect,4,2.01,0,3,0,3,0,1,,,,,,,,,,,,,
5bdfb648484288000130dad0,TCR,2024-06-26_10h47.49.423,LearnStrategy,2023.2.3,MacIntel,60.24096386,2,1,5,-0.080993517,-0.003700087,1,0,0,1.2315,rock_grid_rect_2,7,12,-1,-1,1.231,0.144553223,-0.231174045,1,0,0,1.8274,Diorite_rect,3,1.827,0,4,0,4,0,1,,,,,,,,,,,,,
5bdfb648484288000130dad0,TCR,2024-06-26_10h47.49.423,LearnStrategy,2023.2.3,MacIntel,60.24096386,2,1,6,-0.052112969,-0.002498915,1,0,0,1.1315,rock_grid_rect_2,6,12,-1,-1,1.132,-0.177353787,-0.261815186,1,0,0,1.8429,Basalt_rect,2,1.843,0,5,0,5,0,1,,,,,,,,,,,,,
5bdfb648484288000130dad0,TCR,2024-06-26_10h47.49.423,LearnStrategy,2023.2.3,MacIntel,60.24096386,2,1,7,-0.041363051,0.017882012,1,0,0,1.0481,rock_grid_rect_2,1,07,-1,-1,1.048,-0.13329149,-0.382300754,1,0,0,2.1247,Pegmatite_rect,6,2.125,0,6,0,6,0,1,,,,,,,,,,,,,
5bdfb648484288000130dad0,TCR,2024-06-26_10h47.49.423,LearnStrategy,2023.2.3,MacIntel,60.24096386,2,1,8,-0.022023519,-0.007907715,1,0,0,1.1815,rock_grid_rect_2,7,05,-1,-1,1.182,-0.372703891,-0.246706746,1,0,0,5.6437,Andesite_rect,1,5.644,0,7,0,7,0,1,,,,,,,,,,,,,
5bdfb648484288000130dad0,TCR,2024-06-26_10h47.49.423,LearnStrategy,2023.2.3,MacIntel,60.24096386,2,1,9,0.031845364,-0.009666951,1,0,0,1.5805,rock_grid_rect_2,1,03,-1,-1,1.58,0.161295844,-0.405297038,1,0,0,4.3248,Peridotite_rect,7,4.325,0,8,0,8,0,1,,,,,,,,,,,,,
5bdfb648484288000130dad0,TCR,2024-06-26_10h47.49.423,LearnStrategy,2023.2.3,MacIntel,60.24096386,2,1,10,-0.055699734,-0.024404738,1,0,0,1.1967,rock_grid_rect_2,6,10,-1,-1,1.197,-0.330316705,-0.40094401,1,0,0,2.261,Obsidian_rect,5,2.261,0,9,0,9,0,1,,,,,,,,,,,,,
5bdfb648484288000130dad0,TCR,2024-06-26_10h47.49.423,LearnStrategy,2023.2.3,MacIntel,60.24096386,2,1,11,-0.036854994,-0.012234497,1,0,0,1.4488,rock_grid_rect_2,2,08,-1,-1,1.449,-0.168992852,-0.235689223,1,0,0,1.2458,Basalt_rect,2,1.246,1,10,0,10,0,1,,,,,,,,,,,,,
5bdfb648484288000130dad0,TCR,2024-06-26_10h47.49.423,LearnStrategy,2023.2.3,MacIntel,60.24096386,2,1,12,-0.021397773,0.00120992,1,0,0,0.9988,rock_grid_rect_2,3,15,-1,-1,0.999,-0.133095228,-0.394781291,1,0,0,2.2396,Pegmatite_rect,6,2.24,0,11,0,11,0,1,,,,,,,,,,,,,
5bdfb648484288000130dad0,TCR,2024-06-26_10h47.49.423,LearnStrategy,2023.2.3,MacIntel,60.24096386,2,1,13,-0.006904704,-0.01790819,1,0,0,1.1987,rock_grid_rect_2,3,07,-1,-1,1.199,0.083241442,-0.39187656,1,0,0,1.6912,Peridotite_rect,7,1.691,0,12,0,12,0,1,,,,,,,,,,,,,
5bdfb648484288000130dad0,TCR,2024-06-26_10h47.49.423,LearnStrategy,2023.2.3,MacIntel,60.24096386,2,1,14,-0.018874783,-0.008172811,1,0,0,1.0828,rock_grid_rect_2,2,12,-1,-1,1.083,0.391726345,-0.39577908,1,0,0,2.6582,Pumice_rect,8,2.658,0,13,0,13,0,1,,,,,,,,,,,,,
5bdfb648484288000130dad0,TCR,2024-06-26_10h47.49.423,LearnStrategy,2023.2.3,MacIntel,60.24096386,2,1,15,-0.007798258,-0.020047438,1,0,0,1.2145,rock_grid_rect_2,6,10,-1,-1,1.214,-0.184991455,-0.385187649,1,0,0,3.7908,Pegmatite_rect,6,3.791,1,14,0,14,0,1,,,,,,,,,,,,,
5bdfb648484288000130dad0,TCR,2024-06-26_10h47.49.423,LearnStrategy,2023.2.3,MacIntel,60.24096386,2,1,16,0.003440077,0.008690491,1,0,0,1.2827,rock_grid_rect_2,4,15,-1,-1,1.283,0.420698107,-0.258505181,1,0,0,2.3426,Gabbro_rect,4,2.343,1,15,0,15,0,1,,,,,,,,,,,,,
5bdfb648484288000130dad0,TCR,2024-06-26_10h47.49.423,LearnStrategy,2023.2.3,MacIntel,60.24096386,2,2,1,,,,,,,,7,04,,,,,,,,,,,4,5.554,0,,,,,,0.38620619,-0.241647814,1,0,0,5.5544,Gabbro_rect,0,0,0,0,1,
5bdfb648484288000130dad0,TCR,2024-06-26_10h47.49.423,LearnStrategy,2023.2.3,MacIntel,60.24096386,2,2,2,,,,,,,,5,08,,,,,,,,,,,5,1.342,1,,,,,,-0.413462897,-0.397503662,1,0,0,1.342,Obsidian_rect,1,0,1,0,1,
5bdfb648484288000130dad0,TCR,2024-06-26_10h47.49.423,LearnStrategy,2023.2.3,MacIntel,60.24096386,2,2,3,,,,,,,,1,06,,,,,,,,,,,7,3.609,0,,,,,,0.068918186,-0.394533691,1,0,0,3.6089,Peridotite_rect,2,0,2,0,1,
5bdfb648484288000130dad0,TCR,2024-06-26_10h47.49.423,LearnStrategy,2023.2.3,MacIntel,60.24096386,2,2,4,,,,,,,,6,06,,,,,,,,,,,6,3.106,1,,,,,,-0.113421766,-0.384033746,1,0,0,3.1056,Pegmatite_rect,3,0,3,0,1,
5bdfb648484288000130dad0,TCR,2024-06-26_10h47.49.423,LearnStrategy,2023.2.3,MacIntel,60.24096386,2,2,5,,,,,,,,5,12,,,,,,,,,,,5,1.259,1,,,,,,-0.371559482,-0.400787014,1,0,0,1.2587,Obsidian_rect,4,0,4,0,1,
5bdfb648484288000130dad0,TCR,2024-06-26_10h47.49.423,LearnStrategy,2023.2.3,MacIntel,60.24096386,2,2,6,,,,,,,,3,08,,,,,,,,,,,3,3.007,1,,,,,,0.102798869,-0.254312676,1,0,0,3.0068,Diorite_rect,5,0,5,0,1,
5bdfb648484288000130dad0,TCR,2024-06-26_10h47.49.423,LearnStrategy,2023.2.3,MacIntel,60.24096386,2,2,7,,,,,,,,2,11,,,,,,,,,,,2,2.342,1,,,,,,-0.122952677,-0.260336982,1,0,0,2.3421,Basalt_rect,6,0,6,0,1,
5bdfb648484288000130dad0,TCR,2024-06-26_10h47.49.423,LearnStrategy,2023.2.3,MacIntel,60.24096386,2,2,8,,,,,,,,7,08,,,,,,,,,,,1,2.499,0,,,,,,-0.363657532,-0.232199843,1,0,0,2.4993,Andesite_rect,7,0,7,0,1,
5bdfb648484288000130dad0,TCR,2024-06-26_10h47.49.423,LearnStrategy,2023.2.3,MacIntel,60.24096386,2,2,9,,,,,,,,4,16,,,,,,,,,,,4,3.144,1,,,,,,0.416270209,-0.259425388,1,0,0,3.1444,Gabbro_rect,8,0,8,0,1,
5bdfb648484288000130dad0,TCR,2024-06-26_10h47.49.423,LearnStrategy,2023.2.3,MacIntel,60.24096386,2,2,10,,,,,,,,3,09,,,,,,,,,,,3,4.206,1,,,,,,0.143435737,-0.262057902,1,0,0,4.2064,Diorite_rect,9,0,9,0,1,
5bdfb648484288000130dad0,TCR,2024-06-26_10h47.49.423,LearnStrategy,2023.2.3,MacIntel,60.24096386,2,2,11,,,,,,,,1,14,,,,,,,,,,,7,2.406,0,,,,,,0.129232788,-0.413809475,1,0,0,2.4062,Peridotite_rect,10,0,10,0,1,
5bdfb648484288000130dad0,TCR,2024-06-26_10h47.49.423,LearnStrategy,2023.2.3,MacIntel,60.24096386,2,2,12,,,,,,,,2,05,,,,,,,,,,,2,1.304,1,,,,,,-0.167483521,-0.238594157,1,0,0,1.304,Basalt_rect,11,0,11,0,1,
5bdfb648484288000130dad0,TCR,2024-06-26_10h47.49.423,LearnStrategy,2023.2.3,MacIntel,60.24096386,2,2,13,,,,,,,,4,09,,,,,,,,,,,5,1.559,0,,,,,,-0.348742099,-0.39243198,1,0,0,1.5592,Obsidian_rect,12,0,12,0,1,
5bdfb648484288000130dad0,TCR,2024-06-26_10h47.49.423,LearnStrategy,2023.2.3,MacIntel,60.24096386,2,2,14,,,,,,,,8,04,,,,,,,,,,,8,1.306,1,,,,,,0.395757785,-0.393948568,1,0,0,1.3064,Pumice_rect,13,0,13,0,1,
5bdfb648484288000130dad0,TCR,2024-06-26_10h47.49.423,LearnStrategy,2023.2.3,MacIntel,60.24096386,2,2,15,,,,,,,,6,13,,,,,,,,,,,3,4.74,0,,,,,,0.08846327,-0.237299601,1,0,0,4.7396,Diorite_rect,14,0,14,0,1,
5bdfb648484288000130dad0,TCR,2024-06-26_10h47.49.423,LearnStrategy,2023.2.3,MacIntel,60.24096386,2,2,16,,,,,,,,8,15,,,,,,,,,,,8,1.172,1,,,,,,0.425185411,-0.419011027,1,0,0,1.1718,Pumice_rect,15,0,15,0,1,
5bdfb648484288000130dad0,TCR,2024-06-26_10h47.49.423,LearnStrategy,2023.2.3,MacIntel,60.24096386,3,1,1,-0.010215318,-0.007972751,1,0,0,1.9645,rock_grid_rect_2,3,14,-1,-1,1.964,0.108979763,-0.263555027,1,0,0,4.5231,Diorite_rect,3,4.523,1,0,0,0,0,1,,,,,,,,,,,,,
5bdfb648484288000130dad0,TCR,2024-06-26_10h47.49.423,LearnStrategy,2023.2.3,MacIntel,60.24096386,3,1,2,-0.007910699,0.001364475,1,0,0,1.3651,rock_grid_rect_2,6,03,-1,-1,1.365,0.087539469,-0.406258681,1,0,0,1.5038,Peridotite_rect,7,1.504,0,1,0,1,0,1,,,,,,,,,,,,,
5bdfb648484288000130dad0,TCR,2024-06-26_10h47.49.423,LearnStrategy,2023.2.3,MacIntel,60.24096386,3,1,3,-0.024964125,0.005312297,1,0,0,0.8974,rock_grid_rect_2,7,06,-1,-1,0.897,0.085373739,-0.401851739,1,0,0,4.3211,Peridotite_rect,7,4.321,1,2,0,2,0,1,,,,,,,,,,,,,
5bdfb648484288000130dad0,TCR,2024-06-26_10h47.49.423,LearnStrategy,2023.2.3,MacIntel,60.24096386,3,1,4,-0.041896837,0.007606913,1,0,0,1.0143,rock_grid_rect_2,4,01,-1,-1,1.014,0.119265815,-0.249859484,1,0,0,2.2578,Diorite_rect,3,2.258,0,3,0,3,0,1,,,,,,,,,,,,,
5bdfb648484288000130dad0,TCR,2024-06-26_10h47.49.423,LearnStrategy,2023.2.3,MacIntel,60.24096386,3,1,5,0.008563436,-0.018171522,1,0,0,1.0158,rock_grid_rect_2,6,10,-1,-1,1.016,-0.116853502,-0.40578654,1,0,0,2.141,Pegmatite_rect,6,2.141,1,4,0,4,0,1,,,,,,,,,,,,,
5bdfb648484288000130dad0,TCR,2024-06-26_10h47.49.423,LearnStrategy,2023.2.3,MacIntel,60.24096386,3,1,6,-0.034260322,-0.012721897,1,0,0,1.8321,rock_grid_rect_2,4,05,-1,-1,1.832,-0.351862861,-0.412980279,1,0,0,2.4925,Obsidian_rect,5,2.493,0,5,0,5,0,1,,,,,,,,,,,,,
5bdfb648484288000130dad0,TCR,2024-06-26_10h47.49.423,LearnStrategy,2023.2.3,MacIntel,60.24096386,3,1,7,-0.095653619,0.001014404,1,0,0,0.8984,rock_grid_rect_2,1,16,-1,-1,0.898,0.13800944,-0.241730957,1,0,0,3.0208,Diorite_rect,3,3.021,0,6,0,6,0,1,,,,,,,,,,,,,
5bdfb648484288000130dad0,TCR,2024-06-26_10h47.49.423,LearnStrategy,2023.2.3,MacIntel,60.24096386,3,1,8,-0.044075046,-0.002601657,1,0,0,1.1323,rock_grid_rect_2,7,05,-1,-1,1.132,0.102927653,-0.408267144,1,0,0,2.08,Peridotite_rect,7,2.08,1,7,0,7,0,1,,,,,,,,,,,,,
5bdfb648484288000130dad0,TCR,2024-06-26_10h47.49.423,LearnStrategy,2023.2.3,MacIntel,60.24096386,3,1,9,0.074038561,-0.015753377,1,0,0,1.3826,rock_grid_rect_2,7,12,-1,-1,1.383,0.149412096,-0.245323215,1,0,0,2.207,Diorite_rect,3,2.207,0,8,0,8,0,1,,,,,,,,,,,,,
5bdfb648484288000130dad0,TCR,2024-06-26_10h47.49.423,LearnStrategy,2023.2.3,MacIntel,60.24096386,3,1,10,-0.014101698,-0.002324422,1,0,0,1.0831,rock_grid_rect_2,7,06,-1,-1,1.083,0.163908285,-0.258901096,1,0,0,3.5774,Diorite_rect,3,3.577,0,9,0,9,0,1,,,,,,,,,,,,,
5bdfb648484288000130dad0,TCR,2024-06-26_10h47.49.423,LearnStrategy,2023.2.3,MacIntel,60.24096386,3,1,11,-0.055295071,0.004662001,1,0,0,0.8649,rock_grid_rect_2,2,14,-1,-1,0.865,0.31645969,-0.397764893,1,0,0,1.58,Pumice_rect,8,1.58,0,10,0,10,0,1,,,,,,,,,,,,,
5bdfb648484288000130dad0,TCR,2024-06-26_10h47.49.423,LearnStrategy,2023.2.3,MacIntel,60.24096386,3,1,12,-0.029974772,-0.024008077,1,0,0,1.0982,rock_grid_rect_2,6,07,-1,-1,1.098,-0.084674615,-0.401102159,1,0,0,2.0733,Pegmatite_rect,6,2.073,1,11,0,11,0,1,,,,,,,,,,,,,
5bdfb648484288000130dad0,TCR,2024-06-26_10h47.49.423,LearnStrategy,2023.2.3,MacIntel,60.24096386,3,1,13,-0.066144545,-0.005053575,1,0,0,1.2147,rock_grid_rect_2,3,10,-1,-1,1.215,0.158911811,-0.267861735,1,0,0,2.1926,Diorite_rect,3,2.193,1,12,0,12,0,1,,,,,,,,,,,,,
5bdfb648484288000130dad0,TCR,2024-06-26_10h47.49.423,LearnStrategy,2023.2.3,MacIntel,60.24096386,3,1,14,-0.106127794,-0.012327813,1,0,0,1.1479,rock_grid_rect_2,1,03,-1,-1,1.148,0.111258206,-0.418825412,1,0,0,5.6979,Peridotite_rect,7,5.698,0,13,0,13,0,1,,,,,,,,,,,,,
5bdfb648484288000130dad0,TCR,2024-06-26_10h47.49.423,LearnStrategy,2023.2.3,MacIntel,60.24096386,3,1,15,-0.05163954,-0.01681132,1,0,0,0.9976,rock_grid_rect_2,1,05,-1,-1,0.998,-0.43102651,-0.253320991,1,0,0,1.7927,Andesite_rect,1,1.793,1,14,0,14,0,1,,,,,,,,,,,,,
5bdfb648484288000130dad0,TCR,2024-06-26_10h47.49.423,LearnStrategy,2023.2.3,MacIntel,60.24096386,3,1,16,-0.098401286,-0.018994853,1,0,0,0.9987,rock_grid_rect_2,1,11,-1,-1,0.999,-0.401037462,-0.263525662,1,0,0,1.4213,Andesite_rect,1,1.421,1,15,0,15,0,1,,,,,,,,,,,,,
5bdfb648484288000130dad0,TCR,2024-06-26_10h47.49.423,LearnStrategy,2023.2.3,MacIntel,60.24096386,3,2,1,,,,,,,,8,03,,,,,,,,,,,8,3.14,1,,,,,,0.403148872,-0.415573188,1,0,0,3.1397,Pumice_rect,0,0,0,0,1,
5bdfb648484288000130dad0,TCR,2024-06-26_10h47.49.423,LearnStrategy,2023.2.3,MacIntel,60.24096386,3,2,2,,,,,,,,8,09,,,,,,,,,,,8,1.357,1,,,,,,0.399748264,-0.410010308,1,0,0,1.3569,Pumice_rect,1,0,1,0,1,
5bdfb648484288000130dad0,TCR,2024-06-26_10h47.49.423,LearnStrategy,2023.2.3,MacIntel,60.24096386,3,2,3,,,,,,,,5,16,,,,,,,,,,,5,1.31,1,,,,,,-0.379557224,-0.405668335,1,0,0,1.31,Obsidian_rect,2,0,2,0,1,
5bdfb648484288000130dad0,TCR,2024-06-26_10h47.49.423,LearnStrategy,2023.2.3,MacIntel,60.24096386,3,2,4,,,,,,,,2,01,,,,,,,,,,,2,1.286,1,,,,,,-0.171144884,-0.255955607,1,0,0,1.2857,Basalt_rect,3,0,3,0,1,
5bdfb648484288000130dad0,TCR,2024-06-26_10h47.49.423,LearnStrategy,2023.2.3,MacIntel,60.24096386,3,2,5,,,,,,,,6,05,,,,,,,,,,,6,1.956,1,,,,,,-0.136633233,-0.406523437,1,0,0,1.9563,Pegmatite_rect,4,0,4,0,1,
5bdfb648484288000130dad0,TCR,2024-06-26_10h47.49.423,LearnStrategy,2023.2.3,MacIntel,60.24096386,3,2,6,,,,,,,,6,09,,,,,,,,,,,6,1.225,1,,,,,,-0.107491048,-0.39609314,1,0,0,1.2254,Pegmatite_rect,5,0,5,0,1,
5bdfb648484288000130dad0,TCR,2024-06-26_10h47.49.423,LearnStrategy,2023.2.3,MacIntel,60.24096386,3,2,7,,,,,,,,4,11,,,,,,,,,,,2,3.443,0,,,,,,-0.103108453,-0.263972439,1,0,0,3.443,Basalt_rect,6,0,6,0,1,
5bdfb648484288000130dad0,TCR,2024-06-26_10h47.49.423,LearnStrategy,2023.2.3,MacIntel,60.24096386,3,2,8,,,,,,,,4,08,,,,,,,,,,,4,5.109,1,,,,,,0.354734022,-0.229924045,1,0,0,5.1094,Gabbro_rect,7,0,7,0,1,
5bdfb648484288000130dad0,TCR,2024-06-26_10h47.49.423,LearnStrategy,2023.2.3,MacIntel,60.24096386,3,2,9,,,,,,,,7,10,,,,,,,,,,,7,4.203,1,,,,,,0.106072727,-0.390726793,1,0,0,4.203,Peridotite_rect,8,0,8,0,1,
5bdfb648484288000130dad0,TCR,2024-06-26_10h47.49.423,LearnStrategy,2023.2.3,MacIntel,60.24096386,3,2,10,,,,,,,,1,09,,,,,,,,,,,1,4.257,1,,,,,,-0.395960456,-0.251897854,1,0,0,4.257,Andesite_rect,9,0,9,0,1,
5bdfb648484288000130dad0,TCR,2024-06-26_10h47.49.423,LearnStrategy,2023.2.3,MacIntel,60.24096386,3,2,11,,,,,,,,7,02,,,,,,,,,,,6,2.726,0,,,,,,-0.089351264,-0.408188137,1,0,0,2.726,Pegmatite_rect,10,0,10,0,1,
5bdfb648484288000130dad0,TCR,2024-06-26_10h47.49.423,LearnStrategy,2023.2.3,MacIntel,60.24096386,3,2,12,,,,,,,,1,02,,,,,,,,,,,3,5.574,0,,,,,,0.126134237,-0.250277439,1,0,0,5.5739,Diorite_rect,11,0,11,0,1,
5bdfb648484288000130dad0,TCR,2024-06-26_10h47.49.423,LearnStrategy,2023.2.3,MacIntel,60.24096386,3,2,13,,,,,,,,5,10,,,,,,,,,,,5,1.342,1,,,,,,-0.396779548,-0.402690294,1,0,0,1.3418,Obsidian_rect,12,0,12,0,1,
5bdfb648484288000130dad0,TCR,2024-06-26_10h47.49.423,LearnStrategy,2023.2.3,MacIntel,60.24096386,3,2,14,,,,,,,,3,16,,,,,,,,,,,3,4.768,1,,,,,,0.113772176,-0.247066243,1,0,0,4.7684,Diorite_rect,13,0,13,0,1,
5bdfb648484288000130dad0,TCR,2024-06-26_10h47.49.423,LearnStrategy,2023.2.3,MacIntel,60.24096386,3,2,15,,,,,,,,2,09,,,,,,,,,,,2,2.091,1,,,,,,-0.144197862,-0.269917806,1,0,0,2.0912,Basalt_rect,14,0,14,0,1,
5bdfb648484288000130dad0,TCR,2024-06-26_10h47.49.423,LearnStrategy,2023.2.3,MacIntel,60.24096386,3,2,16,,,,,,,,3,13,,,,,,,,,,,7,8.803,0,,,,,,0.125579698,-0.398947211,1,0,0,8.8034,Peridotite_rect,15,0,15,0,1,
5bdfb648484288000130dad0,TCR,2024-06-26_10h47.49.423,LearnStrategy,2023.2.3,MacIntel,60.24096386,4,1,1,-0.005861613,-0.007481011,1,0,0,1.166,rock_grid_rect_2,3,07,-1,-1,1.166,0.133047485,-0.252237549,1,0,0,5.7745,Diorite_rect,3,5.774,1,0,0,0,0,1,,,,,,,,,,,,,
5bdfb648484288000130dad0,TCR,2024-06-26_10h47.49.423,LearnStrategy,2023.2.3,MacIntel,60.24096386,4,1,2,0.003671265,-0.001622586,1,0,0,1.1142,rock_grid_rect_2,5,05,-1,-1,1.114,-0.352903375,-0.411195272,1,0,0,1.3286,Obsidian_rect,5,1.329,1,1,0,1,0,1,,,,,,,,,,,,,
5bdfb648484288000130dad0,TCR,2024-06-26_10h47.49.423,LearnStrategy,2023.2.3,MacIntel,60.24096386,4,1,3,-0.011527032,-0.009785597,1,0,0,1.0304,rock_grid_rect_2,6,15,-1,-1,1.03,-0.080991753,-0.39700019,1,0,0,1.8445,Pegmatite_rect,6,1.844,1,2,0,2,0,1,,,,,,,,,,,,,
5bdfb648484288000130dad0,TCR,2024-06-26_10h47.49.423,LearnStrategy,2023.2.3,MacIntel,60.24096386,4,1,4,-0.027719591,-0.007018161,1,0,0,1.5822,rock_grid_rect_2,3,15,-1,-1,1.582,-0.430238274,-0.259266425,1,0,0,2.3613,Andesite_rect,1,2.361,0,3,0,3,0,1,,,,,,,,,,,,,
5bdfb648484288000130dad0,TCR,2024-06-26_10h47.49.423,LearnStrategy,2023.2.3,MacIntel,60.24096386,4,1,5,-0.028541124,-0.004267103,1,0,0,0.8654,rock_grid_rect_2,4,12,-1,-1,0.865,-0.090511542,-0.243548652,1,0,0,1.509,Basalt_rect,2,1.509,0,4,0,4,0,1,,,,,,,,,,,,,
5bdfb648484288000130dad0,TCR,2024-06-26_10h47.49.423,LearnStrategy,2023.2.3,MacIntel,60.24096386,4,1,6,-0.03724155,-0.014358283,1,0,0,0.8495,rock_grid_rect_2,1,11,-1,-1,0.849,0.131924506,-0.261836955,1,0,0,3.2933,Diorite_rect,3,3.293,0,5,0,5,0,1,,,,,,,,,,,,,
5bdfb648484288000130dad0,TCR,2024-06-26_10h47.49.423,LearnStrategy,2023.2.3,MacIntel,60.24096386,4,1,7,-0.02824863,-0.021893853,1,0,0,0.865,rock_grid_rect_2,1,03,-1,-1,0.865,-0.388379279,-0.232704536,1,0,0,2.209,Andesite_rect,1,2.209,1,6,0,6,0,1,,,,,,,,,,,,,
5bdfb648484288000130dad0,TCR,2024-06-26_10h47.49.423,LearnStrategy,2023.2.3,MacIntel,60.24096386,4,1,8,0.051570977,-0.020002035,1,0,0,1.3469,rock_grid_rect_2,7,13,-1,-1,1.347,-0.080167033,-0.403876817,1,0,0,2.0421,Pegmatite_rect,6,2.042,0,7,0,7,0,1,,,,,,,,,,,,,
5bdfb648484288000130dad0,TCR,2024-06-26_10h47.49.423,LearnStrategy,2023.2.3,MacIntel,60.24096386,4,1,9,-0.017157728,-0.009761149,1,0,0,1.1823,rock_grid_rect_2,7,12,-1,-1,1.182,0.126510417,-0.252443034,1,0,0,2.1422,Diorite_rect,3,2.142,0,8,0,8,0,1,,,,,,,,,,,,,
5bdfb648484288000130dad0,TCR,2024-06-26_10h47.49.423,LearnStrategy,2023.2.3,MacIntel,60.24096386,4,1,10,0.008837416,-0.006329719,1,0,0,0.817,rock_grid_rect_2,2,14,-1,-1,0.817,-0.110275336,-0.255584988,1,0,0,1.9414,Basalt_rect,2,1.941,1,9,0,9,0,1,,,,,,,,,,,,,
5bdfb648484288000130dad0,TCR,2024-06-26_10h47.49.423,LearnStrategy,2023.2.3,MacIntel,60.24096386,4,1,11,0.018493856,0.000468275,1,0,0,0.8992,rock_grid_rect_2,6,07,-1,-1,0.899,0.052071058,-0.411441379,1,0,0,2.374,Peridotite_rect,7,2.374,0,10,0,10,0,1,,,,,,,,,,,,,
5bdfb648484288000130dad0,TCR,2024-06-26_10h47.49.423,LearnStrategy,2023.2.3,MacIntel,60.24096386,4,1,12,-0.108998617,-0.001005283,1,0,0,1.3819,rock_grid_rect_2,7,06,-1,-1,1.382,0.085527615,-0.244035305,1,0,0,2.5258,Diorite_rect,3,2.526,0,11,0,11,0,1,,,,,,,,,,,,,
5bdfb648484288000130dad0,TCR,2024-06-26_10h47.49.423,LearnStrategy,2023.2.3,MacIntel,60.24096386,4,1,13,-0.037411838,0.001111518,1,0,0,1.0478,rock_grid_rect_2,1,16,-1,-1,1.048,0.063795369,-0.249345364,1,0,0,1.6944,Diorite_rect,3,1.694,0,12,0,12,0,1,,,,,,,,,,,,,
5bdfb648484288000130dad0,TCR,2024-06-26_10h47.49.423,LearnStrategy,2023.2.3,MacIntel,60.24096386,4,1,14,-0.033860677,-0.0081368,1,0,0,0.7645,rock_grid_rect_2,4,15,-1,-1,0.764,0.375484484,-0.244816759,1,0,0,1.886,Gabbro_rect,4,1.886,1,13,0,13,0,1,,,,,,,,,,,,,
5bdfb648484288000130dad0,TCR,2024-06-26_10h47.49.423,LearnStrategy,2023.2.3,MacIntel,60.24096386,4,1,15,-0.052588365,-0.000317993,1,0,0,0.9814,rock_grid_rect_2,4,12,-1,-1,0.981,0.325382758,-0.233771566,1,0,0,2.7553,Gabbro_rect,4,2.755,1,14,0,14,0,1,,,,,,,,,,,,,
5bdfb648484288000130dad0,TCR,2024-06-26_10h47.49.423,LearnStrategy,2023.2.3,MacIntel,60.24096386,4,1,16,-0.049346585,-0.021041802,1,0,0,1.231,rock_grid_rect_2,7,05,-1,-1,1.231,0.1134198,-0.400389404,1,0,0,1.7603,Peridotite_rect,7,1.76,1,15,0,15,0,1,,,,,,,,,,,,,
5bdfb648484288000130dad0,TCR,2024-06-26_10h47.49.423,LearnStrategy,2023.2.3,MacIntel,60.24096386,4,2,1,,,,,,,,6,06,,,,,,,,,,,6,1.936,1,,,,,,-0.138516235,-0.384894952,1,0,0,1.936,Pegmatite_rect,0,0,0,0,1,
5bdfb648484288000130dad0,TCR,2024-06-26_10h47.49.423,LearnStrategy,2023.2.3,MacIntel,60.24096386,4,2,2,,,,,,,,1,14,,,,,,,,,,,1,2.102,1,,,,,,-0.391814914,-0.231649848,1,0,0,2.102,Andesite_rect,1,0,1,0,1,
5bdfb648484288000130dad0,TCR,2024-06-26_10h47.49.423,LearnStrategy,2023.2.3,MacIntel,60.24096386,4,2,3,,,,,,,,3,09,,,,,,,,,,,7,2.824,0,,,,,,0.150844998,-0.395023872,1,0,0,2.8236,Peridotite_rect,2,0,2,0,1,
5bdfb648484288000130dad0,TCR,2024-06-26_10h47.49.423,LearnStrategy,2023.2.3,MacIntel,60.24096386,4,2,4,,,,,,,,8,05,,,,,,,,,,,8,3.209,1,,,,,,0.457624376,-0.389874132,1,0,0,3.2091,Pumice_rect,3,0,3,0,1,
5bdfb648484288000130dad0,TCR,2024-06-26_10h47.49.423,LearnStrategy,2023.2.3,MacIntel,60.24096386,4,2,5,,,,,,,,4,11,,,,,,,,,,,4,6.507,1,,,,,,0.367389459,-0.245121731,1,0,0,6.5066,Gabbro_rect,4,0,4,0,1,
5bdfb648484288000130dad0,TCR,2024-06-26_10h47.49.423,LearnStrategy,2023.2.3,MacIntel,60.24096386,4,2,6,,,,,,,,3,16,,,,,,,,,,,7,2.345,0,,,,,,0.161496718,-0.403110826,1,0,0,2.3451,Peridotite_rect,5,0,5,0,1,
5bdfb648484288000130dad0,TCR,2024-06-26_10h47.49.423,LearnStrategy,2023.2.3,MacIntel,60.24096386,4,2,7,,,,,,,,5,12,,,,,,,,,,,5,1.257,1,,,,,,-0.457366062,-0.388628743,1,0,0,1.2566,Obsidian_rect,6,0,6,0,1,
5bdfb648484288000130dad0,TCR,2024-06-26_10h47.49.423,LearnStrategy,2023.2.3,MacIntel,60.24096386,4,2,8,,,,,,,,2,11,,,,,,,,,,,2,2.096,1,,,,,,-0.17313992,-0.25649943,1,0,0,2.0965,Basalt_rect,7,0,7,0,1,
5bdfb648484288000130dad0,TCR,2024-06-26_10h47.49.423,LearnStrategy,2023.2.3,MacIntel,60.24096386,4,2,9,,,,,,,,6,11,,,,,,,,,,,6,1.648,1,,,,,,-0.06740092,-0.419929267,1,0,0,1.6478,Pegmatite_rect,8,0,8,0,1,
5bdfb648484288000130dad0,TCR,2024-06-26_10h47.49.423,LearnStrategy,2023.2.3,MacIntel,60.24096386,4,2,10,,,,,,,,5,08,,,,,,,,,,,5,1.745,1,,,,,,-0.406320903,-0.415657281,1,0,0,1.7453,Obsidian_rect,9,0,9,0,1,
5bdfb648484288000130dad0,TCR,2024-06-26_10h47.49.423,LearnStrategy,2023.2.3,MacIntel,60.24096386,4,2,11,,,,,,,,8,04,,,,,,,,,,,8,1.311,1,,,,,,0.388743896,-0.410989448,1,0,0,1.3113,Pumice_rect,10,0,10,0,1,
5bdfb648484288000130dad0,TCR,2024-06-26_10h47.49.423,LearnStrategy,2023.2.3,MacIntel,60.24096386,4,2,12,,,,,,,,1,10,,,,,,,,,,,2,1.912,0,,,,,,-0.171048516,-0.248091838,1,0,0,1.9123,Basalt_rect,11,0,11,0,1,
5bdfb648484288000130dad0,TCR,2024-06-26_10h47.49.423,LearnStrategy,2023.2.3,MacIntel,60.24096386,4,2,13,,,,,,,,7,07,,,,,,,,,,,7,4.01,1,,,,,,0.110707669,-0.401060113,1,0,0,4.0103,Peridotite_rect,12,0,12,0,1,
5bdfb648484288000130dad0,TCR,2024-06-26_10h47.49.423,LearnStrategy,2023.2.3,MacIntel,60.24096386,4,2,14,,,,,,,,2,09,,,,,,,,,,,2,1.363,1,,,,,,-0.159039103,-0.242804837,1,0,0,1.3629,Basalt_rect,13,0,13,0,1,
5bdfb648484288000130dad0,TCR,2024-06-26_10h47.49.423,LearnStrategy,2023.2.3,MacIntel,60.24096386,4,2,15,,,,,,,,7,15,,,,,,,,,,,7,2.977,1,,,,,,0.151829834,-0.407471178,1,0,0,2.977,Peridotite_rect,14,0,14,0,1,
5bdfb648484288000130dad0,TCR,2024-06-26_10h47.49.423,LearnStrategy,2023.2.3,MacIntel,60.24096386,4,2,16,,,,,,,,4,03,,,,,,,,,,,4,1.502,1,,,,,,0.338549533,-0.249433051,1,0,0,1.5025,Gabbro_rect,15,0,15,0,1,
5bdfb648484288000130dad0,TCR,2024-06-26_10h47.49.423,LearnStrategy,2023.2.3,MacIntel,60.24096386,5,1,1,-0.033849894,-0.013847521,1,0,0,1.5982,rock_grid_rect_2,3,10,-1,-1,1.598,0.150539415,-0.410547011,1,0,0,5.0141,Peridotite_rect,7,5.014,0,0,0,0,0,1,,,,,,,,,,,,,
5bdfb648484288000130dad0,TCR,2024-06-26_10h47.49.423,LearnStrategy,2023.2.3,MacIntel,60.24096386,5,1,2,-0.119706828,0.012242466,1,0,0,1.7816,rock_grid_rect_2,7,16,-1,-1,1.782,-0.063592326,-0.389700521,1,0,0,3.6533,Pegmatite_rect,6,3.653,0,1,0,1,0,1,,,,,,,,,,,,,
5bdfb648484288000130dad0,TCR,2024-06-26_10h47.49.423,LearnStrategy,2023.2.3,MacIntel,60.24096386,5,1,3,0.009339125,0.020956692,1,0,0,0.8984,rock_grid_rect_2,3,15,-1,-1,0.898,0.140152384,-0.268373888,1,0,0,1.7151,Diorite_rect,3,1.715,1,2,0,2,0,1,,,,,,,,,,,,,
5bdfb648484288000130dad0,TCR,2024-06-26_10h47.49.423,LearnStrategy,2023.2.3,MacIntel,60.24096386,5,1,4,-0.002055122,0.00499193,1,0,0,0.8638,rock_grid_rect_2,4,12,-1,-1,0.864,0.377333713,-0.247124159,1,0,0,3.1632,Gabbro_rect,4,3.163,1,3,0,3,0,1,,,,,,,,,,,,,
5bdfb648484288000130dad0,TCR,2024-06-26_10h47.49.423,LearnStrategy,2023.2.3,MacIntel,60.24096386,5,1,5,-0.022273288,-0.004880846,1,0,0,1.314,rock_grid_rect_2,5,07,-1,-1,1.314,-0.371489258,-0.41013916,1,0,0,1.3927,Obsidian_rect,5,1.393,1,4,0,4,0,1,,,,,,,,,,,,,
5bdfb648484288000130dad0,TCR,2024-06-26_10h47.49.423,LearnStrategy,2023.2.3,MacIntel,60.24096386,5,1,6,-0.018361545,0.012893643,1,0,0,0.9663,rock_grid_rect_2,7,14,-1,-1,0.966,0.082864109,-0.237273966,1,0,0,5.6442,Diorite_rect,3,5.644,0,5,0,5,0,1,,,,,,,,,,,,,
5bdfb648484288000130dad0,TCR,2024-06-26_10h47.49.423,LearnStrategy,2023.2.3,MacIntel,60.24096386,5,1,7,-0.039932997,-0.004529215,1,0,0,0.9309,rock_grid_rect_2,1,07,-1,-1,0.931,-0.387659336,-0.263614502,1,0,0,1.6452,Andesite_rect,1,1.645,1,6,0,6,0,1,,,,,,,,,,,,,
5bdfb648484288000130dad0,TCR,2024-06-26_10h47.49.423,LearnStrategy,2023.2.3,MacIntel,60.24096386,5,1,8,-0.0154992,-0.008747491,1,0,0,0.9816,rock_grid_rect_2,4,10,-1,-1,0.982,-0.115279948,-0.24635966,1,0,0,1.7932,Basalt_rect,2,1.793,0,7,0,7,0,1,,,,,,,,,,,,,
5bdfb648484288000130dad0,TCR,2024-06-26_10h47.49.423,LearnStrategy,2023.2.3,MacIntel,60.24096386,5,1,9,-0.068832194,0.005703464,1,0,0,0.9975,rock_grid_rect_2,6,10,-1,-1,0.998,-0.069123739,-0.415711331,1,0,0,1.3537,Pegmatite_rect,6,1.354,1,8,0,8,0,1,,,,,,,,,,,,,
5bdfb648484288000130dad0,TCR,2024-06-26_10h47.49.423,LearnStrategy,2023.2.3,MacIntel,60.24096386,5,1,10,-0.027317573,-0.014533454,1,0,0,0.9655,rock_grid_rect_2,3,14,-1,-1,0.966,0.113355442,-0.244374186,1,0,0,1.7371,Diorite_rect,3,1.737,1,9,0,9,0,1,,,,,,,,,,,,,
5bdfb648484288000130dad0,TCR,2024-06-26_10h47.49.423,LearnStrategy,2023.2.3,MacIntel,60.24096386,5,1,11,0.032002496,0.011346063,1,0,0,0.899,rock_grid_rect_2,3,15,-1,-1,0.899,0.113030328,-0.243335639,1,0,0,1.8755,Diorite_rect,3,1.875,1,10,0,10,0,1,,,,,,,,,,,,,
5bdfb648484288000130dad0,TCR,2024-06-26_10h47.49.423,LearnStrategy,2023.2.3,MacIntel,60.24096386,5,1,12,0.010947808,0.005107388,1,0,0,0.8993,rock_grid_rect_2,7,12,-1,-1,0.899,0.115119765,-0.389835883,1,0,0,2.5423,Peridotite_rect,7,2.542,1,11,0,11,0,1,,,,,,,,,,,,,
5bdfb648484288000130dad0,TCR,2024-06-26_10h47.49.423,LearnStrategy,2023.2.3,MacIntel,60.24096386,5,1,13,0.017013821,-0.001756727,1,0,0,0.8816,rock_grid_rect_2,1,07,-1,-1,0.882,-0.353436584,-0.257588976,1,0,0,2.3547,Andesite_rect,1,2.355,1,12,0,12,0,1,,,,,,,,,,,,,
5bdfb648484288000130dad0,TCR,2024-06-26_10h47.49.423,LearnStrategy,2023.2.3,MacIntel,60.24096386,5,1,14,-0.043164063,0.017854546,1,0,0,1.6498,rock_grid_rect_2,8,02,-1,-1,1.65,0.360386149,-0.407831082,1,0,0,1.361,Pumice_rect,8,1.361,1,13,0,13,0,1,,,,,,,,,,,,,
5bdfb648484288000130dad0,TCR,2024-06-26_10h47.49.423,LearnStrategy,2023.2.3,MacIntel,60.24096386,5,1,15,0.022154677,-0.014401449,1,0,0,0.9496,rock_grid_rect_2,2,10,-1,-1,0.95,-0.141530151,-0.243496365,1,0,0,1.6328,Basalt_rect,2,1.633,1,14,0,14,0,1,,,,,,,,,,,,,
5bdfb648484288000130dad0,TCR,2024-06-26_10h47.49.423,LearnStrategy,2023.2.3,MacIntel,60.24096386,5,1,16,-0.045815158,0.012802531,1,0,0,1.1149,rock_grid_rect_2,1,03,-1,-1,1.115,-0.419718289,-0.23632392,1,0,0,1.2082,Andesite_rect,1,1.208,1,15,0,15,0,1,,,,,,,,,,,,,
5bdfb648484288000130dad0,TCR,2024-06-26_10h47.49.423,LearnStrategy,2023.2.3,MacIntel,60.24096386,5,2,1,,,,,,,,8,06,,,,,,,,,,,8,2.007,1,,,,,,0.386482069,-0.398020969,1,0,0,2.007,Pumice_rect,0,0,0,0,1,
5bdfb648484288000130dad0,TCR,2024-06-26_10h47.49.423,LearnStrategy,2023.2.3,MacIntel,60.24096386,5,2,2,,,,,,,,8,15,,,,,,,,,,,8,0.877,1,,,,,,0.386482069,-0.398020969,1,0,0,0.8772,Pumice_rect,1,0,1,0,1,
5bdfb648484288000130dad0,TCR,2024-06-26_10h47.49.423,LearnStrategy,2023.2.3,MacIntel,60.24096386,5,2,3,,,,,,,,2,16,,,,,,,,,,,2,1.244,1,,,,,,-0.159884983,-0.248336995,1,0,0,1.2439,Basalt_rect,2,0,2,0,1,
5bdfb648484288000130dad0,TCR,2024-06-26_10h47.49.423,LearnStrategy,2023.2.3,MacIntel,60.24096386,5,2,4,,,,,,,,1,02,,,,,,,,,,,1,2.044,1,,,,,,-0.399463569,-0.240624051,1,0,0,2.0445,Andesite_rect,3,0,3,0,1,
5bdfb648484288000130dad0,TCR,2024-06-26_10h47.49.423,LearnStrategy,2023.2.3,MacIntel,60.24096386,5,2,5,,,,,,,,3,11,,,,,,,,,,,7,2.679,0,,,,,,0.133809679,-0.41772583,1,0,0,2.679,Peridotite_rect,4,0,4,0,1,
5bdfb648484288000130dad0,TCR,2024-06-26_10h47.49.423,LearnStrategy,2023.2.3,MacIntel,60.24096386,5,2,6,,,,,,,,2,01,,,,,,,,,,,4,3.431,0,,,,,,0.464912381,-0.265230984,1,0,0,3.4313,Gabbro_rect,5,0,5,0,1,
5bdfb648484288000130dad0,TCR,2024-06-26_10h47.49.423,LearnStrategy,2023.2.3,MacIntel,60.24096386,5,2,7,,,,,,,,6,05,,,,,,,,,,,7,2.677,0,,,,,,0.162179769,-0.411263563,1,0,0,2.6767,Peridotite_rect,6,0,6,0,1,
5bdfb648484288000130dad0,TCR,2024-06-26_10h47.49.423,LearnStrategy,2023.2.3,MacIntel,60.24096386,5,2,8,,,,,,,,1,06,,,,,,,,,,,1,2.908,1,,,,,,-0.400564406,-0.2685102,1,0,0,2.9083,Andesite_rect,7,0,7,0,1,
5bdfb648484288000130dad0,TCR,2024-06-26_10h47.49.423,LearnStrategy,2023.2.3,MacIntel,60.24096386,5,2,9,,,,,,,,5,06,,,,,,,,,,,5,1.569,1,,,,,,-0.407009752,-0.402519938,1,0,0,1.5686,Obsidian_rect,8,0,8,0,1,
5bdfb648484288000130dad0,TCR,2024-06-26_10h47.49.423,LearnStrategy,2023.2.3,MacIntel,60.24096386,5,2,10,,,,,,,,4,14,,,,,,,,,,,4,1.829,1,,,,,,0.416852485,-0.264657254,1,0,0,1.8287,Gabbro_rect,9,0,9,0,1,
5bdfb648484288000130dad0,TCR,2024-06-26_10h47.49.423,LearnStrategy,2023.2.3,MacIntel,60.24096386,5,2,11,,,,,,,,7,08,,,,,,,,,,,7,1.229,1,,,,,,0.090535889,-0.4193632,1,0,0,1.2289,Peridotite_rect,10,0,10,0,1,
5bdfb648484288000130dad0,TCR,2024-06-26_10h47.49.423,LearnStrategy,2023.2.3,MacIntel,60.24096386,5,2,12,,,,,,,,5,10,,,,,,,,,,,5,1.489,1,,,,,,-0.37938775,-0.388863186,1,0,0,1.4889,Obsidian_rect,11,0,11,0,1,
5bdfb648484288000130dad0,TCR,2024-06-26_10h47.49.423,LearnStrategy,2023.2.3,MacIntel,60.24096386,5,2,13,,,,,,,,3,08,,,,,,,,,,,7,3.274,0,,,,,,0.084399278,-0.413236491,1,0,0,3.2739,Peridotite_rect,12,0,12,0,1,
5bdfb648484288000130dad0,TCR,2024-06-26_10h47.49.423,LearnStrategy,2023.2.3,MacIntel,60.24096386,5,2,14,,,,,,,,4,08,,,,,,,,,,,4,3.083,1,,,,,,0.383555908,-0.246246202,1,0,0,3.0826,Gabbro_rect,13,0,13,0,1,
5bdfb648484288000130dad0,TCR,2024-06-26_10h47.49.423,LearnStrategy,2023.2.3,MacIntel,60.24096386,5,2,15,,,,,,,,6,13,,,,,,,,,,,7,3.843,0,,,,,,0.081229519,-0.4056977,1,0,0,3.8432,Peridotite_rect,14,0,14,0,1,
5bdfb648484288000130dad0,TCR,2024-06-26_10h47.49.423,LearnStrategy,2023.2.3,MacIntel,60.24096386,5,2,16,,,,,,,,7,10,,,,,,,,,,,7,3.067,1,,,,,,0.07920383,-0.406438599,1,0,0,3.0672,Peridotite_rect,15,0,15,0,1,
5bdfb648484288000130dad0,TCR,2024-06-26_10h47.49.423,LearnStrategy,2023.2.3,MacIntel,60.24096386,6,1,1,-0.086922404,-0.016893548,1,0,0,1.1987,rock_grid_rect_2,8,02,-1,-1,1.199,0.35963935,-0.404912313,1,0,0,1.4372,Pumice_rect,8,1.437,1,0,0,0,0,1,,,,,,,,,,,,,
5bdfb648484288000130dad0,TCR,2024-06-26_10h47.49.423,LearnStrategy,2023.2.3,MacIntel,60.24096386,6,1,2,-0.066315579,-0.022369317,1,0,0,1.0976,rock_grid_rect_2,1,03,-1,-1,1.098,-0.34478987,-0.234507107,1,0,0,1.1375,Andesite_rect,1,1.138,1,1,0,1,0,1,,,,,,,,,,,,,
5bdfb648484288000130dad0,TCR,2024-06-26_10h47.49.423,LearnStrategy,2023.2.3,MacIntel,60.24096386,6,1,3,-0.097565036,0.000489977,1,0,0,0.7812,rock_grid_rect_2,3,10,-1,-1,0.781,0.132813246,-0.393064711,1,0,0,2.4106,Peridotite_rect,7,2.411,0,2,0,2,0,1,,,,,,,,,,,,,
5bdfb648484288000130dad0,TCR,2024-06-26_10h47.49.423,LearnStrategy,2023.2.3,MacIntel,60.24096386,6,1,4,-0.051030273,0.008264262,1,0,0,0.7823,rock_grid_rect_2,3,14,-1,-1,0.782,0.129546712,-0.414978977,1,0,0,2.2334,Peridotite_rect,7,2.233,0,3,0,3,0,1,,,,,,,,,,,,,
5bdfb648484288000130dad0,TCR,2024-06-26_10h47.49.423,LearnStrategy,2023.2.3,MacIntel,60.24096386,6,1,5,-0.03602634,0.006130608,1,0,0,0.7653,rock_grid_rect_2,6,12,-1,-1,0.765,0.103163859,-0.394279243,1,0,0,3.1437,Peridotite_rect,7,3.144,0,4,0,4,0,1,,,,,,,,,,,,,
5bdfb648484288000130dad0,TCR,2024-06-26_10h47.49.423,LearnStrategy,2023.2.3,MacIntel,60.24096386,6,1,6,-0.023322754,-0.00822937,1,0,0,0.917,rock_grid_rect_2,2,04,-1,-1,0.917,-0.141714749,-0.253166029,1,0,0,1.56,Basalt_rect,2,1.56,1,5,0,5,0,1,,,,,,,,,,,,,
5bdfb648484288000130dad0,TCR,2024-06-26_10h47.49.423,LearnStrategy,2023.2.3,MacIntel,60.24096386,6,1,7,-0.000645549,0.009896172,1,0,0,1.0318,rock_grid_rect_2,5,07,-1,-1,1.032,-0.356773919,-0.412687853,1,0,0,1.8433,Obsidian_rect,5,1.843,1,6,0,6,0,1,,,,,,,,,,,,,
5bdfb648484288000130dad0,TCR,2024-06-26_10h47.49.423,LearnStrategy,2023.2.3,MacIntel,60.24096386,6,1,8,0.088616876,0.004148356,1,0,0,1.5656,rock_grid_rect_2,6,03,-1,-1,1.566,-0.17510593,-0.412619765,1,0,0,1.5954,Pegmatite_rect,6,1.595,1,7,0,7,0,1,,,,,,,,,,,,,
5bdfb648484288000130dad0,TCR,2024-06-26_10h47.49.423,LearnStrategy,2023.2.3,MacIntel,60.24096386,6,1,9,0.01527771,-0.014375407,1,0,0,1.0646,rock_grid_rect_2,2,14,-1,-1,1.065,-0.11470086,-0.235055271,1,0,0,1.3933,Basalt_rect,2,1.393,1,8,0,8,0,1,,,,,,,,,,,,,
5bdfb648484288000130dad0,TCR,2024-06-26_10h47.49.423,LearnStrategy,2023.2.3,MacIntel,60.24096386,6,1,10,-0.03452474,0.018593241,1,0,0,1.0484,rock_grid_rect_2,3,02,-1,-1,1.048,0.101820272,-0.379433187,1,0,0,2.3556,Peridotite_rect,7,2.356,0,9,0,9,0,1,,,,,,,,,,,,,
5bdfb648484288000130dad0,TCR,2024-06-26_10h47.49.423,LearnStrategy,2023.2.3,MacIntel,60.24096386,6,1,11,-0.032889065,0.0052162,1,0,0,1.0138,rock_grid_rect_2,7,05,-1,-1,1.014,0.07734687,-0.3854324,1,0,0,2.0708,Peridotite_rect,7,2.071,1,10,0,10,0,1,,,,,,,,,,,,,
5bdfb648484288000130dad0,TCR,2024-06-26_10h47.49.423,LearnStrategy,2023.2.3,MacIntel,60.24096386,6,1,12,0.016765883,0.019565362,1,0,0,1.4819,rock_grid_rect_2,6,08,-1,-1,1.482,-0.07802219,-0.399077555,1,0,0,2.4555,Pegmatite_rect,6,2.456,1,11,0,11,0,1,,,,,,,,,,,,,
5bdfb648484288000130dad0,TCR,2024-06-26_10h47.49.423,LearnStrategy,2023.2.3,MacIntel,60.24096386,6,1,13,-0.023104248,0.001982863,1,0,0,1.0317,rock_grid_rect_2,3,10,-1,-1,1.032,0.131485596,-0.249522434,1,0,0,1.1899,Diorite_rect,3,1.19,1,12,0,12,0,1,,,,,,,,,,,,,
5bdfb648484288000130dad0,TCR,2024-06-26_10h47.49.423,LearnStrategy,2023.2.3,MacIntel,60.24096386,6,1,14,-0.034250014,-0.010648532,1,0,0,0.8994,rock_grid_rect_2,1,05,-1,-1,0.899,-0.328072679,-0.229738634,1,0,0,1.7279,Andesite_rect,1,1.728,1,13,0,13,0,1,,,,,,,,,,,,,
5bdfb648484288000130dad0,TCR,2024-06-26_10h47.49.423,LearnStrategy,2023.2.3,MacIntel,60.24096386,6,1,15,0.015970595,-0.008117642,1,0,0,0.998,rock_grid_rect_2,7,06,-1,-1,0.998,0.127953288,-0.390951199,1,0,0,1.9945,Peridotite_rect,7,1.994,1,14,0,14,0,1,,,,,,,,,,,,,
5bdfb648484288000130dad0,TCR,2024-06-26_10h47.49.423,LearnStrategy,2023.2.3,MacIntel,60.24096386,6,1,16,0.014967855,0.008028497,1,0,0,0.8816,rock_grid_rect_2,4,05,-1,-1,0.882,0.41737481,-0.270059475,1,0,0,2.5307,Gabbro_rect,4,2.531,1,15,0,15,0,1,,,,,,,,,,,,,
5bdfb648484288000130dad0,TCR,2024-06-26_10h47.49.423,LearnStrategy,2023.2.3,MacIntel,60.24096386,6,2,1,,,,,,,,2,02,,,,,,,,,,,2,5.494,1,,,,,,-0.109107259,-0.25239624,1,0,0,5.4939,Basalt_rect,0,0,0,0,1,
5bdfb648484288000130dad0,TCR,2024-06-26_10h47.49.423,LearnStrategy,2023.2.3,MacIntel,60.24096386,6,2,2,,,,,,,,7,02,,,,,,,,,,,7,4.852,1,,,,,,0.099905802,-0.421583998,1,0,0,4.8516,Peridotite_rect,1,0,1,0,1,
5bdfb648484288000130dad0,TCR,2024-06-26_10h47.49.423,LearnStrategy,2023.2.3,MacIntel,60.24096386,6,2,3,,,,,,,,1,09,,,,,,,,,,,1,2,1,,,,,,-0.431753031,-0.239106988,1,0,0,2,Andesite_rect,2,0,2,0,1,
5bdfb648484288000130dad0,TCR,2024-06-26_10h47.49.423,LearnStrategy,2023.2.3,MacIntel,60.24096386,6,2,4,,,,,,,,3,06,,,,,,,,,,,3,3.035,1,,,,,,0.1520499,-0.236555718,1,0,0,3.0348,Diorite_rect,3,0,3,0,1,
5bdfb648484288000130dad0,TCR,2024-06-26_10h47.49.423,LearnStrategy,2023.2.3,MacIntel,60.24096386,6,2,5,,,,,,,,6,09,,,,,,,,,,,6,1.442,1,,,,,,-0.072187229,-0.393327908,1,0,0,1.4421,Pegmatite_rect,4,0,4,0,1,
5bdfb648484288000130dad0,TCR,2024-06-26_10h47.49.423,LearnStrategy,2023.2.3,MacIntel,60.24096386,6,2,6,,,,,,,,2,05,,,,,,,,,,,2,2.194,1,,,,,,-0.07842631,-0.251904975,1,0,0,2.194,Basalt_rect,5,0,5,0,1,
5bdfb648484288000130dad0,TCR,2024-06-26_10h47.49.423,LearnStrategy,2023.2.3,MacIntel,60.24096386,6,2,7,,,,,,,,4,09,,,,,,,,,,,2,8.744,0,,,,,,-0.126879476,-0.237441678,1,0,0,8.7443,Basalt_rect,6,0,6,0,1,
5bdfb648484288000130dad0,TCR,2024-06-26_10h47.49.423,LearnStrategy,2023.2.3,MacIntel,60.24096386,6,2,8,,,,,,,,5,16,,,,,,,,,,,5,1.547,1,,,,,,-0.396667514,-0.409050022,1,0,0,1.547,Obsidian_rect,7,0,7,0,1,
5bdfb648484288000130dad0,TCR,2024-06-26_10h47.49.423,LearnStrategy,2023.2.3,MacIntel,60.24096386,6,2,9,,,,,,,,4,16,,,,,,,,,,,4,1.625,1,,,,,,0.357922906,-0.240499607,1,0,0,1.6246,Gabbro_rect,8,0,8,0,1,
5bdfb648484288000130dad0,TCR,2024-06-26_10h47.49.423,LearnStrategy,2023.2.3,MacIntel,60.24096386,6,2,10,,,,,,,,8,03,,,,,,,,,,,8,1.17,1,,,,,,0.410535753,-0.401514689,1,0,0,1.1701,Pumice_rect,9,0,9,0,1,
5bdfb648484288000130dad0,TCR,2024-06-26_10h47.49.423,LearnStrategy,2023.2.3,MacIntel,60.24096386,6,2,11,,,,,,,,7,04,,,,,,,,,,,6,2.041,0,,,,,,-0.095485229,-0.405849677,1,0,0,2.0412,Pegmatite_rect,10,0,10,0,1,
5bdfb648484288000130dad0,TCR,2024-06-26_10h47.49.423,LearnStrategy,2023.2.3,MacIntel,60.24096386,6,2,12,,,,,,,,8,09,,,,,,,,,,,8,2.231,1,,,,,,0.384981554,-0.409374186,1,0,0,2.2312,Pumice_rect,11,0,11,0,1,
5bdfb648484288000130dad0,TCR,2024-06-26_10h47.49.423,LearnStrategy,2023.2.3,MacIntel,60.24096386,6,2,13,,,,,,,,1,01,,,,,,,,,,,4,3.714,0,,,,,,0.361461046,-0.257087131,1,0,0,3.7143,Gabbro_rect,12,0,12,0,1,
5bdfb648484288000130dad0,TCR,2024-06-26_10h47.49.423,LearnStrategy,2023.2.3,MacIntel,60.24096386,6,2,14,,,,,,,,6,16,,,,,,,,,,,7,2.232,0,,,,,,0.13508667,-0.405653008,1,0,0,2.2319,Peridotite_rect,13,0,13,0,1,
5bdfb648484288000130dad0,TCR,2024-06-26_10h47.49.423,LearnStrategy,2023.2.3,MacIntel,60.24096386,6,2,15,,,,,,,,5,02,,,,,,,,,,,5,1.353,1,,,,,,-0.395314399,-0.404055718,1,0,0,1.3528,Obsidian_rect,14,0,14,0,1,
5bdfb648484288000130dad0,TCR,2024-06-26_10h47.49.423,LearnStrategy,2023.2.3,MacIntel,60.24096386,6,2,16,,,,,,,,3,13,,,,,,,,,,,3,2.037,1,,,,,,0.131015218,-0.243908895,1,0,0,2.0371,Diorite_rect,15,0,15,0,1,
5bdfb648484288000130dad0,TCR,2024-06-26_10h47.49.423,LearnStrategy,2023.2.3,MacIntel,60.24096386,7,1,1,-0.060531277,-0.009314846,1,0,0,1.2493,rock_grid_rect_2,2,12,-1,-1,1.249,-0.343673062,-0.253715346,1,0,0,2.3874,Andesite_rect,1,2.387,0,0,0,0,0,1,,,,,,,,,,,,,
5bdfb648484288000130dad0,TCR,2024-06-26_10h47.49.423,LearnStrategy,2023.2.3,MacIntel,60.24096386,7,1,2,-0.028986884,-0.013762478,1,0,0,1.0149,rock_grid_rect_2,3,10,-1,-1,1.015,0.1036478,-0.247217678,1,0,0,1.4636,Diorite_rect,3,1.464,1,1,0,1,0,1,,,,,,,,,,,,,
5bdfb648484288000130dad0,TCR,2024-06-26_10h47.49.423,LearnStrategy,2023.2.3,MacIntel,60.24096386,7,1,3,-0.065585734,-0.000433824,1,0,0,0.8826,rock_grid_rect_2,3,07,-1,-1,0.883,0.128114624,-0.236447347,1,0,0,1.5276,Diorite_rect,3,1.528,1,2,0,2,0,1,,,,,,,,,,,,,
5bdfb648484288000130dad0,TCR,2024-06-26_10h47.49.423,LearnStrategy,2023.2.3,MacIntel,60.24096386,7,1,4,0.00031684,-0.014604289,1,0,0,0.8484,rock_grid_rect_2,5,14,-1,-1,0.848,-0.396115757,-0.408385145,1,0,0,1.1846,Obsidian_rect,5,1.185,1,3,0,3,0,1,,,,,,,,,,,,,
5bdfb648484288000130dad0,TCR,2024-06-26_10h47.49.423,LearnStrategy,2023.2.3,MacIntel,60.24096386,7,1,5,-0.054850396,0.005740085,1,0,0,1.9821,rock_grid_rect_2,1,11,-1,-1,1.982,-0.385101522,-0.252318115,1,0,0,1.3075,Andesite_rect,1,1.307,1,4,0,4,0,1,,,,,,,,,,,,,
5bdfb648484288000130dad0,TCR,2024-06-26_10h47.49.423,LearnStrategy,2023.2.3,MacIntel,60.24096386,7,1,6,0.001931152,0.001639303,1,0,0,1.349,rock_grid_rect_2,1,03,-1,-1,1.349,-0.389714932,-0.239080268,0,0,1,2.6378,Andesite_rect,1,2.638,1,5,0,5,0,1,,,,,,,,,,,,,
5bdfb648484288000130dad0,TCR,2024-06-26_10h47.49.423,LearnStrategy,2023.2.3,MacIntel,60.24096386,7,1,7,-0.060980767,-0.006098362,1,0,0,0.8989,rock_grid_rect_2,8,16,-1,-1,0.899,-0.091763373,-0.23630561,1,0,0,4.2939,Basalt_rect,2,4.294,0,6,0,6,0,1,,,,,,,,,,,,,
5bdfb648484288000130dad0,TCR,2024-06-26_10h47.49.423,LearnStrategy,2023.2.3,MacIntel,60.24096386,7,1,8,0.006808743,0.018937107,1,0,0,0.9156,rock_grid_rect_2,4,15,-1,-1,0.916,0.364751519,-0.241839871,1,0,0,3.0587,Gabbro_rect,4,3.059,1,7,0,7,0,1,,,,,,,,,,,,,
5bdfb648484288000130dad0,TCR,2024-06-26_10h47.49.423,LearnStrategy,2023.2.3,MacIntel,60.24096386,7,1,9,0.042007718,-0.009392361,1,0,0,0.8145,rock_grid_rect_2,6,10,-1,-1,0.814,-0.100308228,-0.390678101,1,0,0,1.2977,Pegmatite_rect,6,1.298,1,8,0,8,0,1,,,,,,,,,,,,,
5bdfb648484288000130dad0,TCR,2024-06-26_10h47.49.423,LearnStrategy,2023.2.3,MacIntel,60.24096386,7,1,10,0.030798272,0.006226603,1,0,0,1.1144,rock_grid_rect_2,7,06,-1,-1,1.114,0.101462131,-0.397349786,1,0,0,1.9689,Peridotite_rect,7,1.969,1,9,0,9,0,1,,,,,,,,,,,,,
5bdfb648484288000130dad0,TCR,2024-06-26_10h47.49.423,LearnStrategy,2023.2.3,MacIntel,60.24096386,7,1,11,0.116705051,-0.008216654,1,0,0,0.8817,rock_grid_rect_2,6,07,-1,-1,0.882,0.077393121,-0.387051731,1,0,0,1.512,Peridotite_rect,7,1.512,0,10,0,10,0,1,,,,,,,,,,,,,
5bdfb648484288000130dad0,TCR,2024-06-26_10h47.49.423,LearnStrategy,2023.2.3,MacIntel,60.24096386,7,1,12,-0.003783366,0.006629706,1,0,0,0.8481,rock_grid_rect_2,6,15,-1,-1,0.848,-0.085107218,-0.394800483,1,0,0,1.0595,Pegmatite_rect,6,1.06,1,11,0,11,0,1,,,,,,,,,,,,,
5bdfb648484288000130dad0,TCR,2024-06-26_10h47.49.423,LearnStrategy,2023.2.3,MacIntel,60.24096386,7,1,13,0.023511488,-0.014898139,1,0,0,0.7984,rock_grid_rect_2,3,15,-1,-1,0.798,0.399355062,-0.262009142,1,0,0,2.0553,Gabbro_rect,4,2.055,0,12,0,12,0,1,,,,,,,,,,,,,
5bdfb648484288000130dad0,TCR,2024-06-26_10h47.49.423,LearnStrategy,2023.2.3,MacIntel,60.24096386,7,1,14,0.017573039,-0.008410577,1,0,0,0.8808,rock_grid_rect_2,7,05,-1,-1,0.881,0.184567803,-0.403685981,1,0,0,1.5743,Peridotite_rect,7,1.574,1,13,0,13,0,1,,,,,,,,,,,,,
5bdfb648484288000130dad0,TCR,2024-06-26_10h47.49.423,LearnStrategy,2023.2.3,MacIntel,60.24096386,7,1,15,-0.104453261,-0.003555162,1,0,0,1.7817,rock_grid_rect_2,7,12,-1,-1,1.782,0.099881117,-0.267402479,1,0,0,1.4289,Diorite_rect,3,1.429,0,14,0,14,0,1,,,,,,,,,,,,,
5bdfb648484288000130dad0,TCR,2024-06-26_10h47.49.423,LearnStrategy,2023.2.3,MacIntel,60.24096386,7,1,16,-0.004594523,-0.001767103,1,0,0,0.8154,rock_grid_rect_2,4,01,-1,-1,0.815,0.157771946,-0.386042887,1,0,0,3.5259,Peridotite_rect,7,3.526,0,15,0,15,0,1,,,,,,,,,,,,,
5bdfb648484288000130dad0,TCR,2024-06-26_10h47.49.423,LearnStrategy,2023.2.3,MacIntel,60.24096386,7,2,1,,,,,,,,2,09,,,,,,,,,,,2,2.307,1,,,,,,-0.167469686,-0.240605197,1,0,0,2.307,Basalt_rect,0,0,0,0,1,
5bdfb648484288000130dad0,TCR,2024-06-26_10h47.49.423,LearnStrategy,2023.2.3,MacIntel,60.24096386,7,2,2,,,,,,,,1,06,,,,,,,,,,,1,1.536,1,,,,,,-0.33609097,-0.24337599,1,0,0,1.5357,Andesite_rect,1,0,1,0,1,
5bdfb648484288000130dad0,TCR,2024-06-26_10h47.49.423,LearnStrategy,2023.2.3,MacIntel,60.24096386,7,2,3,,,,,,,,3,08,,,,,,,,,,,3,4.947,1,,,,,,0.168847588,-0.268561198,1,0,0,4.9466,Diorite_rect,2,0,2,0,1,
5bdfb648484288000130dad0,TCR,2024-06-26_10h47.49.423,LearnStrategy,2023.2.3,MacIntel,60.24096386,7,2,4,,,,,,,,8,06,,,,,,,,,,,8,1.27,1,,,,,,0.378314345,-0.38848938,1,0,0,1.2696,Pumice_rect,3,0,3,0,1,
5bdfb648484288000130dad0,TCR,2024-06-26_10h47.49.423,LearnStrategy,2023.2.3,MacIntel,60.24096386,7,2,5,,,,,,,,2,01,,,,,,,,,,,2,1.586,1,,,,,,-0.17536967,-0.252807753,1,0,0,1.5863,Basalt_rect,4,0,4,0,1,
5bdfb648484288000130dad0,TCR,2024-06-26_10h47.49.423,LearnStrategy,2023.2.3,MacIntel,60.24096386,7,2,6,,,,,,,,3,13,,,,,,,,,,,3,1.376,1,,,,,,0.115651991,-0.266966281,1,0,0,1.3759,Diorite_rect,5,0,5,0,1,
5bdfb648484288000130dad0,TCR,2024-06-26_10h47.49.423,LearnStrategy,2023.2.3,MacIntel,60.24096386,7,2,7,,,,,,,,1,09,,,,,,,,,,,1,1.57,1,,,,,,-0.381622348,-0.24951789,1,0,0,1.5702,Andesite_rect,6,0,6,0,1,
5bdfb648484288000130dad0,TCR,2024-06-26_10h47.49.423,LearnStrategy,2023.2.3,MacIntel,60.24096386,7,2,8,,,,,,,,7,08,,,,,,,,,,,7,2.259,1,,,,,,0.123661024,-0.40165351,1,0,0,2.259,Peridotite_rect,7,0,7,0,1,
5bdfb648484288000130dad0,TCR,2024-06-26_10h47.49.423,LearnStrategy,2023.2.3,MacIntel,60.24096386,7,2,9,,,,,,,,8,03,,,,,,,,,,,8,1.032,1,,,,,,0.369329291,-0.403960978,1,0,0,1.0324,Pumice_rect,8,0,8,0,1,
5bdfb648484288000130dad0,TCR,2024-06-26_10h47.49.423,LearnStrategy,2023.2.3,MacIntel,60.24096386,7,2,10,,,,,,,,5,10,,,,,,,,,,,5,1.21,1,,,,,,-0.447311469,-0.396580404,1,0,0,1.2103,Obsidian_rect,9,0,9,0,1,
5bdfb648484288000130dad0,TCR,2024-06-26_10h47.49.423,LearnStrategy,2023.2.3,MacIntel,60.24096386,7,2,11,,,,,,,,7,10,,,,,,,,,,,7,3.362,1,,,,,,0.10744439,-0.404039171,1,0,0,3.3617,Peridotite_rect,10,0,10,0,1,
5bdfb648484288000130dad0,TCR,2024-06-26_10h47.49.423,LearnStrategy,2023.2.3,MacIntel,60.24096386,7,2,12,,,,,,,,4,03,,,,,,,,,,,4,5.443,1,,,,,,0.420466444,-0.235689969,1,0,0,5.4435,Gabbro_rect,11,0,11,0,1,
5bdfb648484288000130dad0,TCR,2024-06-26_10h47.49.423,LearnStrategy,2023.2.3,MacIntel,60.24096386,7,2,13,,,,,,,,5,16,,,,,,,,,,,5,1.167,1,,,,,,-0.366664497,-0.410255805,1,0,0,1.1671,Obsidian_rect,12,0,12,0,1,
5bdfb648484288000130dad0,TCR,2024-06-26_10h47.49.423,LearnStrategy,2023.2.3,MacIntel,60.24096386,7,2,14,,,,,,,,6,16,,,,,,,,,,,7,2.97,0,,,,,,0.060626017,-0.400033298,1,0,0,2.9697,Peridotite_rect,13,0,13,0,1,
5bdfb648484288000130dad0,TCR,2024-06-26_10h47.49.423,LearnStrategy,2023.2.3,MacIntel,60.24096386,7,2,15,,,,,,,,6,06,,,,,,,,,,,6,2.522,1,,,,,,-0.14830858,-0.400331217,1,0,0,2.5222,Pegmatite_rect,14,0,14,0,1,
5bdfb648484288000130dad0,TCR,2024-06-26_10h47.49.423,LearnStrategy,2023.2.3,MacIntel,60.24096386,7,2,16,,,,,,,,4,08,,,,,,,,,,,2,4.161,0,,,,,,-0.112310859,-0.252517768,1,0,0,4.1612,Basalt_rect,15,0,15,0,1,
5bdfb648484288000130dad0,TCR,2024-06-26_10h47.49.423,LearnStrategy,2023.2.3,MacIntel,60.24096386,8,1,1,0.033629761,-0.002648722,1,0,0,0.7315,rock_grid_rect_2,4,05,-1,-1,0.731,0.373057319,-0.24958157,1,0,0,3.6961,Gabbro_rect,4,3.696,1,0,0,0,0,1,,,,,,,,,,,,,
5bdfb648484288000130dad0,TCR,2024-06-26_10h47.49.423,LearnStrategy,2023.2.3,MacIntel,60.24096386,8,1,2,-0.013697713,0.012058105,1,0,0,0.8649,rock_grid_rect_2,7,13,-1,-1,0.865,-0.085713162,-0.400035129,1,0,0,2.4227,Pegmatite_rect,6,2.423,0,1,0,1,0,1,,,,,,,,,,,,,
5bdfb648484288000130dad0,TCR,2024-06-26_10h47.49.423,LearnStrategy,2023.2.3,MacIntel,60.24096386,8,1,3,-0.065051337,0.014260932,1,0,0,0.8151,rock_grid_rect_2,6,12,-1,-1,0.815,0.08196818,-0.406802572,1,0,0,1.991,Peridotite_rect,7,1.991,0,2,0,2,0,1,,,,,,,,,,,,,
5bdfb648484288000130dad0,TCR,2024-06-26_10h47.49.423,LearnStrategy,2023.2.3,MacIntel,60.24096386,8,1,4,-0.067809787,0.024905565,1,0,0,0.7972,rock_grid_rect_2,2,10,-1,-1,0.797,0.326989136,-0.254315592,1,0,0,3.3509,Gabbro_rect,4,3.351,0,3,0,3,0,1,,,,,,,,,,,,,
5bdfb648484288000130dad0,TCR,2024-06-26_10h47.49.423,LearnStrategy,2023.2.3,MacIntel,60.24096386,8,1,5,-0.089265544,-0.01883667,1,0,0,0.7648,rock_grid_rect_2,3,12,-1,-1,0.765,0.071728448,-0.251137899,1,0,0,1.4911,Diorite_rect,3,1.491,1,4,0,4,0,1,,,,,,,,,,,,,
5bdfb648484288000130dad0,TCR,2024-06-26_10h47.49.423,LearnStrategy,2023.2.3,MacIntel,60.24096386,8,1,6,0.001697998,0.006028917,1,0,0,1.1318,rock_grid_rect_2,6,03,-1,-1,1.132,-0.116720378,-0.41840427,1,0,0,1.7785,Pegmatite_rect,6,1.778,1,5,0,5,0,1,,,,,,,,,,,,,
5bdfb648484288000130dad0,TCR,2024-06-26_10h47.49.423,LearnStrategy,2023.2.3,MacIntel,60.24096386,8,1,7,-0.019931708,-0.013441026,1,0,0,0.8821,rock_grid_rect_2,4,01,-1,-1,0.882,0.357726373,-0.24249315,1,0,0,2.8112,Gabbro_rect,4,2.811,1,6,0,6,0,1,,,,,,,,,,,,,
5bdfb648484288000130dad0,TCR,2024-06-26_10h47.49.423,LearnStrategy,2023.2.3,MacIntel,60.24096386,8,1,8,-0.051062893,-0.009769389,1,0,0,0.766,rock_grid_rect_2,1,03,-1,-1,0.766,-0.362000597,-0.255834825,1,0,0,2.0575,Andesite_rect,1,2.057,1,7,0,7,0,1,,,,,,,,,,,,,
5bdfb648484288000130dad0,TCR,2024-06-26_10h47.49.423,LearnStrategy,2023.2.3,MacIntel,60.24096386,8,1,9,-0.017678358,-0.005009427,1,0,0,0.8141,rock_grid_rect_2,7,06,-1,-1,0.814,0.08671224,-0.411493869,1,0,0,2.2194,Peridotite_rect,7,2.219,1,8,0,8,0,1,,,,,,,,,,,,,
5bdfb648484288000130dad0,TCR,2024-06-26_10h47.49.423,LearnStrategy,2023.2.3,MacIntel,60.24096386,8,1,10,-0.009145304,0.010756022,0,0,1,1.1991,rock_grid_rect_2,4,05,-1,-1,1.199,0.346200358,-0.236527303,1,0,0,2.5912,Gabbro_rect,4,2.591,1,9,0,9,0,1,,,,,,,,,,,,,
5bdfb648484288000130dad0,TCR,2024-06-26_10h47.49.423,LearnStrategy,2023.2.3,MacIntel,60.24096386,8,1,11,-0.0119418,0.005576104,1,0,0,1.4146,rock_grid_rect_2,5,05,-1,-1,1.415,-0.367627699,-0.396279704,1,0,0,2.2596,Obsidian_rect,5,2.26,1,10,0,10,0,1,,,,,,,,,,,,,
5bdfb648484288000130dad0,TCR,2024-06-26_10h47.49.423,LearnStrategy,2023.2.3,MacIntel,60.24096386,8,1,12,0.006205037,-0.024656101,1,0,0,1.0652,rock_grid_rect_2,1,05,-1,-1,1.065,-0.434053175,-0.235862562,1,0,0,1.4621,Andesite_rect,1,1.462,1,11,0,11,0,1,,,,,,,,,,,,,
5bdfb648484288000130dad0,TCR,2024-06-26_10h47.49.423,LearnStrategy,2023.2.3,MacIntel,60.24096386,8,1,13,-0.008219265,-0.013019613,1,0,0,0.9647,rock_grid_rect_2,3,10,-1,-1,0.965,0.12964369,-0.255379774,1,0,0,1.6799,Diorite_rect,3,1.68,1,12,0,12,0,1,,,,,,,,,,,,,
5bdfb648484288000130dad0,TCR,2024-06-26_10h47.49.423,LearnStrategy,2023.2.3,MacIntel,60.24096386,8,1,14,-0.014130724,0.003218452,1,0,0,1.0147,rock_grid_rect_2,6,10,-1,-1,1.015,-0.053909573,-0.393663398,1,0,0,1.3951,Pegmatite_rect,6,1.395,1,13,0,13,0,1,,,,,,,,,,,,,
5bdfb648484288000130dad0,TCR,2024-06-26_10h47.49.423,LearnStrategy,2023.2.3,MacIntel,60.24096386,8,1,15,-0.013082343,-0.011783006,1,0,0,0.8323,rock_grid_rect_2,6,12,-1,-1,0.832,-0.102207777,-0.388823107,1,0,0,1.8764,Pegmatite_rect,6,1.876,1,14,0,14,0,1,,,,,,,,,,,,,
5bdfb648484288000130dad0,TCR,2024-06-26_10h47.49.423,LearnStrategy,2023.2.3,MacIntel,60.24096386,8,1,16,-0.051589627,-0.014973416,1,0,0,0.8997,rock_grid_rect_2,8,14,-1,-1,0.9,0.365739746,-0.392321099,1,0,0,1.5591,Pumice_rect,8,1.559,1,15,0,15,0,1,,,,,,,,,,,,,
5bdfb648484288000130dad0,TCR,2024-06-26_10h47.49.423,LearnStrategy,2023.2.3,MacIntel,60.24096386,8,2,1,,,,,,,,3,09,,,,,,,,,,,3,1.27,1,,,,,,0.115006307,-0.235028483,1,0,0,1.2699,Diorite_rect,0,0,0,0,1,
5bdfb648484288000130dad0,TCR,2024-06-26_10h47.49.423,LearnStrategy,2023.2.3,MacIntel,60.24096386,8,2,2,,,,,,,,6,11,,,,,,,,,,,7,4.359,0,,,,,,0.0729619,-0.395323012,1,0,0,4.3591,Peridotite_rect,1,0,1,0,1,
5bdfb648484288000130dad0,TCR,2024-06-26_10h47.49.423,LearnStrategy,2023.2.3,MacIntel,60.24096386,8,2,3,,,,,,,,7,02,,,,,,,,,,,7,2.117,1,,,,,,0.087359755,-0.399315796,1,0,0,2.1171,Peridotite_rect,2,0,2,0,1,
5bdfb648484288000130dad0,TCR,2024-06-26_10h47.49.423,LearnStrategy,2023.2.3,MacIntel,60.24096386,8,2,4,,,,,,,,5,02,,,,,,,,,,,5,1.821,1,,,,,,-0.399326816,-0.390171577,1,0,0,1.8214,Obsidian_rect,3,0,3,0,1,
5bdfb648484288000130dad0,TCR,2024-06-26_10h47.49.423,LearnStrategy,2023.2.3,MacIntel,60.24096386,8,2,5,,,,,,,,5,12,,,,,,,,,,,5,0.809,1,,,,,,-0.399326816,-0.393387316,1,0,0,0.8086,Obsidian_rect,4,0,4,0,1,
5bdfb648484288000130dad0,TCR,2024-06-26_10h47.49.423,LearnStrategy,2023.2.3,MacIntel,60.24096386,8,2,6,,,,,,,,8,09,,,,,,,,,,,8,1.29,1,,,,,,0.326220432,-0.384687975,1,0,0,1.29,Pumice_rect,5,0,5,0,1,
5bdfb648484288000130dad0,TCR,2024-06-26_10h47.49.423,LearnStrategy,2023.2.3,MacIntel,60.24096386,8,2,7,,,,,,,,1,01,,,,,,,,,,,4,2.511,0,,,,,,0.36430108,-0.255775486,1,0,0,2.5107,Gabbro_rect,6,0,6,0,1,
5bdfb648484288000130dad0,TCR,2024-06-26_10h47.49.423,LearnStrategy,2023.2.3,MacIntel,60.24096386,8,2,8,,,,,,,,6,09,,,,,,,,,,,7,4.341,0,,,,,,0.056408013,-0.400703125,1,0,0,4.3412,Peridotite_rect,7,0,7,0,1,
5bdfb648484288000130dad0,TCR,2024-06-26_10h47.49.423,LearnStrategy,2023.2.3,MacIntel,60.24096386,8,2,9,,,,,,,,2,02,,,,,,,,,,,2,1.16,1,,,,,,-0.125113525,-0.231891547,1,0,0,1.1605,Basalt_rect,8,0,8,0,1,
5bdfb648484288000130dad0,TCR,2024-06-26_10h47.49.423,LearnStrategy,2023.2.3,MacIntel,60.24096386,8,2,10,,,,,,,,7,04,,,,,,,,,,,7,2.373,1,,,,,,0.081903415,-0.393248834,1,0,0,2.3732,Peridotite_rect,9,0,9,0,1,
5bdfb648484288000130dad0,TCR,2024-06-26_10h47.49.423,LearnStrategy,2023.2.3,MacIntel,60.24096386,8,2,11,,,,,,,,1,10,,,,,,,,,,,4,2.076,0,,,,,,0.352823758,-0.228773465,1,0,0,2.0762,Gabbro_rect,10,0,10,0,1,
5bdfb648484288000130dad0,TCR,2024-06-26_10h47.49.423,LearnStrategy,2023.2.3,MacIntel,60.24096386,8,2,12,,,,,,,,3,11,,,,,,,,,,,3,1.78,1,,,,,,0.150062324,-0.246463352,1,0,0,1.7799,Diorite_rect,11,0,11,0,1,
5bdfb648484288000130dad0,TCR,2024-06-26_10h47.49.423,LearnStrategy,2023.2.3,MacIntel,60.24096386,8,2,13,,,,,,,,2,11,,,,,,,,,,,2,2.753,1,,,,,,-0.07146715,-0.250962457,1,0,0,2.7531,Basalt_rect,12,0,12,0,1,
5bdfb648484288000130dad0,TCR,2024-06-26_10h47.49.423,LearnStrategy,2023.2.3,MacIntel,60.24096386,8,2,14,,,,,,,,4,16,,,,,,,,,,,4,2.191,1,,,,,,0.364639214,-0.247566325,1,0,0,2.1909,Gabbro_rect,13,0,13,0,1,
5bdfb648484288000130dad0,TCR,2024-06-26_10h47.49.423,LearnStrategy,2023.2.3,MacIntel,60.24096386,8,2,15,,,,,,,,8,15,,,,,,,,,,,8,1.259,1,,,,,,0.360684408,-0.383849691,1,0,0,1.2594,Pumice_rect,14,0,14,0,1,
5bdfb648484288000130dad0,TCR,2024-06-26_10h47.49.423,LearnStrategy,2023.2.3,MacIntel,60.24096386,8,2,16,,,,,,,,4,14,,,,,,,,,,,4,1.486,1,,,,,,0.388522271,-0.250552572,1,0,0,1.4862,Gabbro_rect,15,0,15,0,1,
5bdfb648484288000130dad0,TCR,2024-06-26_10h47.49.423,LearnStrategy,2023.2.3,MacIntel,60.24096386,9,1,1,0.058509386,-0.022885742,1,0,0,1.6991,rock_grid_rect_2,7,13,-1,-1,1.699,-0.133529867,-0.408918728,1,0,0,1.5415,Pegmatite_rect,6,1.542,0,0,0,0,0,1,,,,,,,,,,,,,
5bdfb648484288000130dad0,TCR,2024-06-26_10h47.49.423,LearnStrategy,2023.2.3,MacIntel,60.24096386,9,1,2,0.005967407,-0.007691786,1,0,0,0.9489,rock_grid_rect_2,7,12,-1,-1,0.949,0.121024509,-0.244696316,1,0,0,1.6926,Diorite_rect,3,1.693,0,1,0,1,0,1,,,,,,,,,,,,,
5bdfb648484288000130dad0,TCR,2024-06-26_10h47.49.423,LearnStrategy,2023.2.3,MacIntel,60.24096386,9,1,3,0.059820557,0.009520942,1,0,0,0.8328,rock_grid_rect_2,6,03,-1,-1,0.833,-0.097992961,-0.400417616,1,0,0,2.0104,Pegmatite_rect,6,2.01,1,2,0,2,0,1,,,,,,,,,,,,,
5bdfb648484288000130dad0,TCR,2024-06-26_10h47.49.423,LearnStrategy,2023.2.3,MacIntel,60.24096386,9,1,4,-0.027613797,0.011589288,1,0,0,0.8145,rock_grid_rect_2,1,04,-1,-1,0.814,-0.335950928,-0.263349948,1,0,0,1.5425,Andesite_rect,1,1.542,1,3,0,3,0,1,,,,,,,,,,,,,
5bdfb648484288000130dad0,TCR,2024-06-26_10h47.49.423,LearnStrategy,2023.2.3,MacIntel,60.24096386,9,1,5,-0.0331132,-0.004421794,1,0,0,1.1831,rock_grid_rect_2,3,15,-1,-1,1.183,0.349458008,-0.2537146,1,0,0,3.54,Gabbro_rect,4,3.54,0,4,0,4,0,1,,,,,,,,,,,,,
5bdfb648484288000130dad0,TCR,2024-06-26_10h47.49.423,LearnStrategy,2023.2.3,MacIntel,60.24096386,9,1,6,0.009840698,0.006611226,1,0,0,1.8317,rock_grid_rect_2,2,04,-1,-1,1.832,-0.096066081,-0.270497911,1,0,0,1.124,Basalt_rect,2,1.124,1,5,0,5,0,1,,,,,,,,,,,,,
5bdfb648484288000130dad0,TCR,2024-06-26_10h47.49.423,LearnStrategy,2023.2.3,MacIntel,60.24096386,9,1,7,-0.059068197,0.006240946,1,0,0,0.8995,rock_grid_rect_2,6,15,-1,-1,0.9,-0.074178399,-0.401977878,1,0,0,1.542,Pegmatite_rect,6,1.542,1,6,0,6,0,1,,,,,,,,,,,,,
5bdfb648484288000130dad0,TCR,2024-06-26_10h47.49.423,LearnStrategy,2023.2.3,MacIntel,60.24096386,9,1,8,-0.025631036,-0.006471592,1,0,0,0.8653,rock_grid_rect_2,6,08,-1,-1,0.865,-0.072737969,-0.40143948,1,0,0,1.2276,Pegmatite_rect,6,1.228,1,7,0,7,0,1,,,,,,,,,,,,,
5bdfb648484288000130dad0,TCR,2024-06-26_10h47.49.423,LearnStrategy,2023.2.3,MacIntel,60.24096386,9,1,9,-0.041173028,-0.000544128,1,0,0,0.9158,rock_grid_rect_2,4,12,-1,-1,0.916,0.350427517,-0.233500095,1,0,0,1.4207,Gabbro_rect,4,1.421,1,8,0,8,0,1,,,,,,,,,,,,,
5bdfb648484288000130dad0,TCR,2024-06-26_10h47.49.423,LearnStrategy,2023.2.3,MacIntel,60.24096386,9,1,10,-0.020480754,-0.013285963,1,0,0,0.8996,rock_grid_rect_2,1,11,-1,-1,0.9,-0.37070204,-0.235960897,1,0,0,1.0712,Andesite_rect,1,1.071,1,9,0,9,0,1,,,,,,,,,,,,,
5bdfb648484288000130dad0,TCR,2024-06-26_10h47.49.423,LearnStrategy,2023.2.3,MacIntel,60.24096386,9,1,11,-0.010284831,0.023110352,1,0,0,1.3485,rock_grid_rect_2,5,07,-1,-1,1.349,-0.372618951,-0.401903212,1,0,0,1.8317,Obsidian_rect,5,1.832,1,10,0,10,0,1,,,,,,,,,,,,,
5bdfb648484288000130dad0,TCR,2024-06-26_10h47.49.423,LearnStrategy,2023.2.3,MacIntel,60.24096386,9,1,12,-0.068016697,0.002147963,1,0,0,0.9315,rock_grid_rect_2,4,10,-1,-1,0.931,-0.087162001,-0.262771878,1,0,0,2.7815,Basalt_rect,2,2.781,0,11,0,11,0,1,,,,,,,,,,,,,
5bdfb648484288000130dad0,TCR,2024-06-26_10h47.49.423,LearnStrategy,2023.2.3,MacIntel,60.24096386,9,1,13,-0.020456882,0.006662259,1,0,0,0.6653,rock_grid_rect_2,6,07,-1,-1,0.665,-0.071566569,-0.408943685,1,0,0,1.686,Pegmatite_rect,6,1.686,1,12,0,12,0,1,,,,,,,,,,,,,
5bdfb648484288000130dad0,TCR,2024-06-26_10h47.49.423,LearnStrategy,2023.2.3,MacIntel,60.24096386,9,1,14,-0.080112983,0.00802141,1,0,0,1.0999,rock_grid_rect_2,3,15,-1,-1,1.1,0.143449164,-0.244250081,1,0,0,2.1146,Diorite_rect,3,2.115,1,13,0,13,0,1,,,,,,,,,,,,,
5bdfb648484288000130dad0,TCR,2024-06-26_10h47.49.423,LearnStrategy,2023.2.3,MacIntel,60.24096386,9,1,15,0.012435303,0.010830248,1,0,0,0.8322,rock_grid_rect_2,1,16,-1,-1,0.832,-0.345824619,-0.246533474,1,0,0,1.5534,Andesite_rect,1,1.553,1,14,0,14,0,1,,,,,,,,,,,,,
5bdfb648484288000130dad0,TCR,2024-06-26_10h47.49.423,LearnStrategy,2023.2.3,MacIntel,60.24096386,9,1,16,-0.008267958,0.001433987,1,0,0,1.3484,rock_grid_rect_2,8,13,-1,-1,1.348,0.350146213,-0.390597738,1,0,0,1.0847,Pumice_rect,8,1.085,1,15,0,15,0,1,,,,,,,,,,,,,
5bdfb648484288000130dad0,TCR,2024-06-26_10h47.49.423,LearnStrategy,2023.2.3,MacIntel,60.24096386,9,2,1,,,,,,,,5,08,,,,,,,,,,,5,1.178,1,,,,,,-0.380026177,-0.393364665,1,0,0,1.1783,Obsidian_rect,0,0,0,0,1,
5bdfb648484288000130dad0,TCR,2024-06-26_10h47.49.423,LearnStrategy,2023.2.3,MacIntel,60.24096386,9,2,2,,,,,,,,1,02,,,,,,,,,,,1,4.691,1,,,,,,-0.351932644,-0.235425347,1,0,0,4.6915,Andesite_rect,1,0,1,0,1,
5bdfb648484288000130dad0,TCR,2024-06-26_10h47.49.423,LearnStrategy,2023.2.3,MacIntel,60.24096386,9,2,3,,,,,,,,1,14,,,,,,,,,,,1,5.396,1,,,,,,-0.356325718,-0.240567017,1,0,0,5.3965,Andesite_rect,2,0,2,0,1,
5bdfb648484288000130dad0,TCR,2024-06-26_10h47.49.423,LearnStrategy,2023.2.3,MacIntel,60.24096386,9,2,4,,,,,,,,5,06,,,,,,,,,,,5,1.095,1,,,,,,-0.350145467,-0.411442871,1,0,0,1.095,Obsidian_rect,3,0,3,0,1,
5bdfb648484288000130dad0,TCR,2024-06-26_10h47.49.423,LearnStrategy,2023.2.3,MacIntel,60.24096386,9,2,5,,,,,,,,6,13,,,,,,,,,,,6,5.648,1,,,,,,-0.090505778,-0.421908637,1,0,0,5.6481,Pegmatite_rect,4,0,4,0,1,
5bdfb648484288000130dad0,TCR,2024-06-26_10h47.49.423,LearnStrategy,2023.2.3,MacIntel,60.24096386,9,2,6,,,,,,,,3,06,,,,,,,,,,,3,5.18,1,,,,,,0.110736966,-0.249420302,1,0,0,5.1804,Diorite_rect,5,0,5,0,1,
5bdfb648484288000130dad0,TCR,2024-06-26_10h47.49.423,LearnStrategy,2023.2.3,MacIntel,60.24096386,9,2,7,,,,,,,,4,11,,,,,,,,,,,4,4.79,1,,,,,,0.372166884,-0.239740329,1,0,0,4.79,Gabbro_rect,6,0,6,0,1,
5bdfb648484288000130dad0,TCR,2024-06-26_10h47.49.423,LearnStrategy,2023.2.3,MacIntel,60.24096386,9,2,8,,,,,,,,4,09,,,,,,,,,,,2,1.646,0,,,,,,-0.088768311,-0.239613715,1,0,0,1.6456,Basalt_rect,7,0,7,0,1,
5bdfb648484288000130dad0,TCR,2024-06-26_10h47.49.423,LearnStrategy,2023.2.3,MacIntel,60.24096386,9,2,9,,,,,,,,8,04,,,,,,,,,,,8,1.091,1,,,,,,0.333746202,-0.382686971,1,0,0,1.0912,Pumice_rect,8,0,8,0,1,
5bdfb648484288000130dad0,TCR,2024-06-26_10h47.49.423,LearnStrategy,2023.2.3,MacIntel,60.24096386,9,2,10,,,,,,,,3,16,,,,,,,,,,,3,2.508,1,,,,,,0.09462382,-0.259484117,1,0,0,2.508,Diorite_rect,9,0,9,0,1,
5bdfb648484288000130dad0,TCR,2024-06-26_10h47.49.423,LearnStrategy,2023.2.3,MacIntel,60.24096386,9,2,11,,,,,,,,7,15,,,,,,,,,,,7,1.574,1,,,,,,0.092775065,-0.379942356,1,0,0,1.5736,Peridotite_rect,10,0,10,0,1,
5bdfb648484288000130dad0,TCR,2024-06-26_10h47.49.423,LearnStrategy,2023.2.3,MacIntel,60.24096386,9,2,12,,,,,,,,7,07,,,,,,,,,,,7,3.554,1,,,,,,0.095981445,-0.382684733,1,0,0,3.5544,Peridotite_rect,11,0,11,0,1,
5bdfb648484288000130dad0,TCR,2024-06-26_10h47.49.423,LearnStrategy,2023.2.3,MacIntel,60.24096386,9,2,13,,,,,,,,2,05,,,,,,,,,,,2,1.797,1,,,,,,-0.143586494,-0.234849243,1,0,0,1.7965,Basalt_rect,12,0,12,0,1,
5bdfb648484288000130dad0,TCR,2024-06-26_10h47.49.423,LearnStrategy,2023.2.3,MacIntel,60.24096386,9,2,14,,,,,,,,8,05,,,,,,,,,,,8,1.161,1,,,,,,0.392511936,-0.407793104,1,0,0,1.1608,Pumice_rect,13,0,13,0,1,
5bdfb648484288000130dad0,TCR,2024-06-26_10h47.49.423,LearnStrategy,2023.2.3,MacIntel,60.24096386,9,2,15,,,,,,,,6,05,,,,,,,,,,,6,1.661,1,,,,,,-0.16961731,-0.382987807,1,0,0,1.6615,Pegmatite_rect,14,0,14,0,1,
5bdfb648484288000130dad0,TCR,2024-06-26_10h47.49.423,LearnStrategy,2023.2.3,MacIntel,60.24096386,9,2,16,,,,,,,,2,16,,,,,,,,,,,4,4.13,0,,,,,,0.378741048,-0.243748101,1,0,0,4.1301,Gabbro_rect,15,0,15,0,1,
5bdfb648484288000130dad0,TCR,2024-06-26_10h47.49.423,LearnStrategy,2023.2.3,MacIntel,60.24096386,,,,,,,,,,,,,,,,,,,,,,,,,,,,,,,,,,,,,,,,,,,1
5bdfb648484288000130dad0,TCR,2024-06-26_10h47.49.423,LearnStrategy,2023.2.3,MacIntel,60.24096386,,,,,,,,,,,,,,,,,,,,,,,,,,,,,,,,,,,,,,,,,,,
5bdfb648484288000130dad0,TCR,2024-06-26_10h47.49.423,LearnStrategy,2023.2.3,MacIntel,60.24096386,,,,,,,,,,,2,14,1,1,,,,,,,,,,,,,,,,,,,,,,,,,,,,,
5bdfb648484288000130dad0,TCR,2024-06-26_10h47.49.423,LearnStrategy,2023.2.3,MacIntel,60.24096386,,,,,,,,,,,6,12,1,2,,,,,,,,,,,,,,,,,,,,,,,,,,,,,
5bdfb648484288000130dad0,TCR,2024-06-26_10h47.49.423,LearnStrategy,2023.2.3,MacIntel,60.24096386,,,,,,,,,,,4,10,1,3,,,,,,,,,,,,,,,,,,,,,,,,,,,,,
5bdfb648484288000130dad0,TCR,2024-06-26_10h47.49.423,LearnStrategy,2023.2.3,MacIntel,60.24096386,,,,,,,,,,,4,15,1,4,,,,,,,,,,,,,,,,,,,,,,,,,,,,,
5bdfb648484288000130dad0,TCR,2024-06-26_10h47.49.423,LearnStrategy,2023.2.3,MacIntel,60.24096386,,,,,,,,,,,3,10,1,5,,,,,,,,,,,,,,,,,,,,,,,,,,,,,
5bdfb648484288000130dad0,TCR,2024-06-26_10h47.49.423,LearnStrategy,2023.2.3,MacIntel,60.24096386,,,,,,,,,,,4,01,1,6,,,,,,,,,,,,,,,,,,,,,,,,,,,,,
5bdfb648484288000130dad0,TCR,2024-06-26_10h47.49.423,LearnStrategy,2023.2.3,MacIntel,60.24096386,,,,,,,,,,,3,12,1,7,,,,,,,,,,,,,,,,,,,,,,,,,,,,,
5bdfb648484288000130dad0,TCR,2024-06-26_10h47.49.423,LearnStrategy,2023.2.3,MacIntel,60.24096386,,,,,,,,,,,7,06,1,8,,,,,,,,,,,,,,,,,,,,,,,,,,,,,
5bdfb648484288000130dad0,TCR,2024-06-26_10h47.49.423,LearnStrategy,2023.2.3,MacIntel,60.24096386,,,,,,,,,,,8,13,2,1,,,,,,,,,,,,,,,,,,,,,,,,,,,,,
5bdfb648484288000130dad0,TCR,2024-06-26_10h47.49.423,LearnStrategy,2023.2.3,MacIntel,60.24096386,,,,,,,,,,,8,14,2,2,,,,,,,,,,,,,,,,,,,,,,,,,,,,,
5bdfb648484288000130dad0,TCR,2024-06-26_10h47.49.423,LearnStrategy,2023.2.3,MacIntel,60.24096386,,,,,,,,,,,1,05,2,3,,,,,,,,,,,,,,,,,,,,,,,,,,,,,
5bdfb648484288000130dad0,TCR,2024-06-26_10h47.49.423,LearnStrategy,2023.2.3,MacIntel,60.24096386,,,,,,,,,,,3,14,2,4,,,,,,,,,,,,,,,,,,,,,,,,,,,,,
5bdfb648484288000130dad0,TCR,2024-06-26_10h47.49.423,LearnStrategy,2023.2.3,MacIntel,60.24096386,,,,,,,,,,,2,10,2,5,,,,,,,,,,,,,,,,,,,,,,,,,,,,,
5bdfb648484288000130dad0,TCR,2024-06-26_10h47.49.423,LearnStrategy,2023.2.3,MacIntel,60.24096386,,,,,,,,,,,3,02,2,6,,,,,,,,,,,,,,,,,,,,,,,,,,,,,
5bdfb648484288000130dad0,TCR,2024-06-26_10h47.49.423,LearnStrategy,2023.2.3,MacIntel,60.24096386,,,,,,,,,,,3,07,2,7,,,,,,,,,,,,,,,,,,,,,,,,,,,,,
5bdfb648484288000130dad0,TCR,2024-06-26_10h47.49.423,LearnStrategy,2023.2.3,MacIntel,60.24096386,,,,,,,,,,,5,04,2,8,,,,,,,,,,,,,,,,,,,,,,,,,,,,,
5bdfb648484288000130dad0,TCR,2024-06-26_10h47.49.423,LearnStrategy,2023.2.3,MacIntel,60.24096386,,,,,,,,,,,5,14,3,1,,,,,,,,,,,,,,,,,,,,,,,,,,,,,
5bdfb648484288000130dad0,TCR,2024-06-26_10h47.49.423,LearnStrategy,2023.2.3,MacIntel,60.24096386,,,,,,,,,,,8,10,3,2,,,,,,,,,,,,,,,,,,,,,,,,,,,,,
5bdfb648484288000130dad0,TCR,2024-06-26_10h47.49.423,LearnStrategy,2023.2.3,MacIntel,60.24096386,,,,,,,,,,,4,13,3,3,,,,,,,,,,,,,,,,,,,,,,,,,,,,,
5bdfb648484288000130dad0,TCR,2024-06-26_10h47.49.423,LearnStrategy,2023.2.3,MacIntel,60.24096386,,,,,,,,,,,7,12,3,4,,,,,,,,,,,,,,,,,,,,,,,,,,,,,
5bdfb648484288000130dad0,TCR,2024-06-26_10h47.49.423,LearnStrategy,2023.2.3,MacIntel,60.24096386,,,,,,,,,,,1,11,3,5,,,,,,,,,,,,,,,,,,,,,,,,,,,,,
5bdfb648484288000130dad0,TCR,2024-06-26_10h47.49.423,LearnStrategy,2023.2.3,MacIntel,60.24096386,,,,,,,,,,,6,08,3,6,,,,,,,,,,,,,,,,,,,,,,,,,,,,,
5bdfb648484288000130dad0,TCR,2024-06-26_10h47.49.423,LearnStrategy,2023.2.3,MacIntel,60.24096386,,,,,,,,,,,8,02,3,7,,,,,,,,,,,,,,,,,,,,,,,,,,,,,
5bdfb648484288000130dad0,TCR,2024-06-26_10h47.49.423,LearnStrategy,2023.2.3,MacIntel,60.24096386,,,,,,,,,,,7,05,3,8,,,,,,,,,,,,,,,,,,,,,,,,,,,,,
5bdfb648484288000130dad0,TCR,2024-06-26_10h47.49.423,LearnStrategy,2023.2.3,MacIntel,60.24096386,,,,,,,,,,,1,04,4,1,,,,,,,,,,,,,,,,,,,,,,,,,,,,,
5bdfb648484288000130dad0,TCR,2024-06-26_10h47.49.423,LearnStrategy,2023.2.3,MacIntel,60.24096386,,,,,,,,,,,1,03,4,2,,,,,,,,,,,,,,,,,,,,,,,,,,,,,
5bdfb648484288000130dad0,TCR,2024-06-26_10h47.49.423,LearnStrategy,2023.2.3,MacIntel,60.24096386,,,,,,,,,,,7,16,4,3,,,,,,,,,,,,,,,,,,,,,,,,,,,,,
5bdfb648484288000130dad0,TCR,2024-06-26_10h47.49.423,LearnStrategy,2023.2.3,MacIntel,60.24096386,,,,,,,,,,,6,07,4,4,,,,,,,,,,,,,,,,,,,,,,,,,,,,,
5bdfb648484288000130dad0,TCR,2024-06-26_10h47.49.423,LearnStrategy,2023.2.3,MacIntel,60.24096386,,,,,,,,,,,2,12,4,5,,,,,,,,,,,,,,,,,,,,,,,,,,,,,
5bdfb648484288000130dad0,TCR,2024-06-26_10h47.49.423,LearnStrategy,2023.2.3,MacIntel,60.24096386,,,,,,,,,,,5,07,4,6,,,,,,,,,,,,,,,,,,,,,,,,,,,,,
5bdfb648484288000130dad0,TCR,2024-06-26_10h47.49.423,LearnStrategy,2023.2.3,MacIntel,60.24096386,,,,,,,,,,,1,07,4,7,,,,,,,,,,,,,,,,,,,,,,,,,,,,,
5bdfb648484288000130dad0,TCR,2024-06-26_10h47.49.423,LearnStrategy,2023.2.3,MacIntel,60.24096386,,,,,,,,,,,2,08,4,8,,,,,,,,,,,,,,,,,,,,,,,,,,,,,
5bdfb648484288000130dad0,TCR,2024-06-26_10h47.49.423,LearnStrategy,2023.2.3,MacIntel,60.24096386,,,,,,,,,,,7,13,5,1,,,,,,,,,,,,,,,,,,,,,,,,,,,,,
5bdfb648484288000130dad0,TCR,2024-06-26_10h47.49.423,LearnStrategy,2023.2.3,MacIntel,60.24096386,,,,,,,,,,,6,15,5,2,,,,,,,,,,,,,,,,,,,,,,,,,,,,,
5bdfb648484288000130dad0,TCR,2024-06-26_10h47.49.423,LearnStrategy,2023.2.3,MacIntel,60.24096386,,,,,,,,,,,1,16,5,3,,,,,,,,,,,,,,,,,,,,,,,,,,,,,
5bdfb648484288000130dad0,TCR,2024-06-26_10h47.49.423,LearnStrategy,2023.2.3,MacIntel,60.24096386,,,,,,,,,,,3,15,5,4,,,,,,,,,,,,,,,,,,,,,,,,,,,,,
5bdfb648484288000130dad0,TCR,2024-06-26_10h47.49.423,LearnStrategy,2023.2.3,MacIntel,60.24096386,,,,,,,,,,,4,05,5,5,,,,,,,,,,,,,,,,,,,,,,,,,,,,,
5bdfb648484288000130dad0,TCR,2024-06-26_10h47.49.423,LearnStrategy,2023.2.3,MacIntel,60.24096386,,,,,,,,,,,6,03,5,6,,,,,,,,,,,,,,,,,,,,,,,,,,,,,
5bdfb648484288000130dad0,TCR,2024-06-26_10h47.49.423,LearnStrategy,2023.2.3,MacIntel,60.24096386,,,,,,,,,,,4,12,5,7,,,,,,,,,,,,,,,,,,,,,,,,,,,,,
5bdfb648484288000130dad0,TCR,2024-06-26_10h47.49.423,LearnStrategy,2023.2.3,MacIntel,60.24096386,,,,,,,,,,,8,08,5,8,,,,,,,,,,,,,,,,,,,,,,,,,,,,,
5bdfb648484288000130dad0,TCR,2024-06-26_10h47.49.423,LearnStrategy,2023.2.3,MacIntel,60.24096386,,,,,,,,,,,2,04,6,1,,,,,,,,,,,,,,,,,,,,,,,,,,,,,
5bdfb648484288000130dad0,TCR,2024-06-26_10h47.49.423,LearnStrategy,2023.2.3,MacIntel,60.24096386,,,,,,,,,,,7,14,6,2,,,,,,,,,,,,,,,,,,,,,,,,,,,,,
5bdfb648484288000130dad0,TCR,2024-06-26_10h47.49.423,LearnStrategy,2023.2.3,MacIntel,60.24096386,,,,,,,,,,,8,16,6,3,,,,,,,,,,,,,,,,,,,,,,,,,,,,,
5bdfb648484288000130dad0,TCR,2024-06-26_10h47.49.423,LearnStrategy,2023.2.3,MacIntel,60.24096386,,,,,,,,,,,2,06,6,4,,,,,,,,,,,,,,,,,,,,,,,,,,,,,
5bdfb648484288000130dad0,TCR,2024-06-26_10h47.49.423,LearnStrategy,2023.2.3,MacIntel,60.24096386,,,,,,,,,,,6,10,6,5,,,,,,,,,,,,,,,,,,,,,,,,,,,,,
5bdfb648484288000130dad0,TCR,2024-06-26_10h47.49.423,LearnStrategy,2023.2.3,MacIntel,60.24096386,,,,,,,,,,,5,05,6,6,,,,,,,,,,,,,,,,,,,,,,,,,,,,,
5bdfb648484288000130dad0,TCR,2024-06-26_10h47.49.423,LearnStrategy,2023.2.3,MacIntel,60.24096386,,,,,,,,,,,5,11,6,7,,,,,,,,,,,,,,,,,,,,,,,,,,,,,
5bdfb648484288000130dad0,TCR,2024-06-26_10h47.49.423,LearnStrategy,2023.2.3,MacIntel,60.24096386,,,,,,,,,,,5,09,6,8,,,,,,,,,,,,,,,,,,,,,,,,,,,,,