participant,condition,date,expName,psychopyVersion,OS,frameRate,block,phase,trial,learn_mouse_2.x,learn_mouse_2.y,learn_mouse_2.leftButton,learn_mouse_2.midButton,learn_mouse_2.rightButton,learn_mouse_2.time,learn_mouse_2.clicked_name,cat,token,row,col,t_select,cat_mouse_l.x,cat_mouse_l.y,cat_mouse_l.leftButton,cat_mouse_l.midButton,cat_mouse_l.rightButton,cat_mouse_l.time,cat_mouse_l.clicked_name,resp,t_resp,corr,train_trials.thisRepN,train_trials.thisTrialN,train_trials.thisN,train_trials.thisIndex,train_trials.ran,cat_mouse_t.x,cat_mouse_t.y,cat_mouse_t.leftButton,cat_mouse_t.midButton,cat_mouse_t.rightButton,cat_mouse_t.time,cat_mouse_t.clicked_name,test_trials.thisRepN,test_trials.thisTrialN,test_trials.thisN,test_trials.thisIndex,test_trials.ran,Bonus
5bf6fc936c445d0001aeba98,TCN,2024-06-21_10h46.46.167,LearnStrategy,2023.2.3,Win32,59.96641881,,,,,,,,,,,,,,,,,,,,,,,,,,,,,,,,,,,,,,,,,,,
5bf6fc936c445d0001aeba98,TCN,2024-06-21_10h46.46.167,LearnStrategy,2023.2.3,Win32,59.96641881,1,1,1,-0.031481481,0.003703704,1,0,0,2.0589,rock_grid_rect_2,7,06,-1,-1,2.059,0.103703704,-0.415740741,1,0,0,4.4907,Peridotite_rect,7,4.491,1,0,0,0,0,1,,,,,,,,,,,,,
5bf6fc936c445d0001aeba98,TCN,2024-06-21_10h46.46.167,LearnStrategy,2023.2.3,Win32,59.96641881,1,1,2,0.038888889,-0.012962963,1,0,0,1.3459,rock_grid_rect_2,4,01,-1,-1,1.346,0.113888889,-0.263888889,1,0,0,1.4261,Diorite_rect,3,1.426,0,1,0,1,0,1,,,,,,,,,,,,,
5bf6fc936c445d0001aeba98,TCN,2024-06-21_10h46.46.167,LearnStrategy,2023.2.3,Win32,59.96641881,1,1,3,0.042592593,0.012037037,1,0,0,0.9602,rock_grid_rect_2,8,16,-1,-1,0.96,0.434259259,-0.412037037,1,0,0,2.7854,Pumice_rect,8,2.785,1,2,0,2,0,1,,,,,,,,,,,,,
5bf6fc936c445d0001aeba98,TCN,2024-06-21_10h46.46.167,LearnStrategy,2023.2.3,Win32,59.96641881,1,1,4,0.05462963,0.001851852,1,0,0,0.9906,rock_grid_rect_2,6,15,-1,-1,0.991,-0.206481481,-0.389814815,1,0,0,3.9383,Pegmatite_rect,6,3.938,1,3,0,3,0,1,,,,,,,,,,,,,
5bf6fc936c445d0001aeba98,TCN,2024-06-21_10h46.46.167,LearnStrategy,2023.2.3,Win32,59.96641881,1,1,5,0.013888889,0.013888889,1,0,0,1.0496,rock_grid_rect_2,8,05,-1,-1,1.05,0.437962963,-0.412037037,1,0,0,8.1567,Pumice_rect,8,8.157,1,4,0,4,0,1,,,,,,,,,,,,,
5bf6fc936c445d0001aeba98,TCN,2024-06-21_10h46.46.167,LearnStrategy,2023.2.3,Win32,59.96641881,1,1,6,0.034259259,0.003703704,1,0,0,1.0223,rock_grid_rect_2,3,11,-1,-1,1.022,0.130555556,-0.240740741,1,0,0,5.4015,Diorite_rect,3,5.401,1,5,0,5,0,1,,,,,,,,,,,,,
5bf6fc936c445d0001aeba98,TCN,2024-06-21_10h46.46.167,LearnStrategy,2023.2.3,Win32,59.96641881,1,1,7,0.053703704,-0.008333333,1,0,0,1.3662,rock_grid_rect_2,2,12,-1,-1,1.366,-0.111111111,-0.401851852,1,0,0,2.3786,Pegmatite_rect,6,2.379,0,6,0,6,0,1,,,,,,,,,,,,,
5bf6fc936c445d0001aeba98,TCN,2024-06-21_10h46.46.167,LearnStrategy,2023.2.3,Win32,59.96641881,1,1,8,0.027777778,0.001851852,1,0,0,0.833,rock_grid_rect_2,7,16,-1,-1,0.833,-0.169444444,-0.378703704,1,0,0,4.4313,Pegmatite_rect,6,4.431,0,7,0,7,0,1,,,,,,,,,,,,,
5bf6fc936c445d0001aeba98,TCN,2024-06-21_10h46.46.167,LearnStrategy,2023.2.3,Win32,59.96641881,1,1,9,0.012037037,0.001851852,1,0,0,1.0501,rock_grid_rect_2,5,09,-1,-1,1.05,-0.344444444,-0.391666667,1,0,0,1.7022,Obsidian_rect,5,1.702,1,8,0,8,0,1,,,,,,,,,,,,,
5bf6fc936c445d0001aeba98,TCN,2024-06-21_10h46.46.167,LearnStrategy,2023.2.3,Win32,59.96641881,1,1,10,0.012962963,0.00462963,1,0,0,0.9161,rock_grid_rect_2,5,08,-1,-1,0.916,-0.412037037,-0.396296296,1,0,0,1.4074,Obsidian_rect,5,1.407,1,9,0,9,0,1,,,,,,,,,,,,,
5bf6fc936c445d0001aeba98,TCN,2024-06-21_10h46.46.167,LearnStrategy,2023.2.3,Win32,59.96641881,1,1,11,0,-0.000925926,1,0,0,0.8628,rock_grid_rect_2,2,05,-1,-1,0.863,0.391666667,-0.24537037,1,0,0,2.5711,Gabbro_rect,4,2.571,0,10,0,10,0,1,,,,,,,,,,,,,
5bf6fc936c445d0001aeba98,TCN,2024-06-21_10h46.46.167,LearnStrategy,2023.2.3,Win32,59.96641881,1,1,12,0.043518519,-0.011111111,1,0,0,0.883,rock_grid_rect_2,4,03,-1,-1,0.883,-0.364814815,-0.255555556,1,0,0,7.6024,Andesite_rect,1,7.602,0,11,0,11,0,1,,,,,,,,,,,,,
5bf6fc936c445d0001aeba98,TCN,2024-06-21_10h46.46.167,LearnStrategy,2023.2.3,Win32,59.96641881,1,1,13,0.068518519,-0.001851852,1,0,0,0.8488,rock_grid_rect_2,6,13,-1,-1,0.849,-0.094444444,-0.406481481,1,0,0,2.6723,Pegmatite_rect,6,2.672,1,12,0,12,0,1,,,,,,,,,,,,,
5bf6fc936c445d0001aeba98,TCN,2024-06-21_10h46.46.167,LearnStrategy,2023.2.3,Win32,59.96641881,1,1,14,0.036111111,0,1,0,0,1.1503,rock_grid_rect_2,1,05,-1,-1,1.15,0.398148148,-0.258333333,1,0,0,2.5446,Gabbro_rect,4,2.545,0,13,0,13,0,1,,,,,,,,,,,,,
5bf6fc936c445d0001aeba98,TCN,2024-06-21_10h46.46.167,LearnStrategy,2023.2.3,Win32,59.96641881,1,1,15,0.076851852,-0.002777778,1,0,0,1.0553,rock_grid_rect_2,3,02,-1,-1,1.055,-0.347222222,-0.247222222,1,0,0,5.4768,Andesite_rect,1,5.477,0,14,0,14,0,1,,,,,,,,,,,,,
5bf6fc936c445d0001aeba98,TCN,2024-06-21_10h46.46.167,LearnStrategy,2023.2.3,Win32,59.96641881,1,1,16,0.084259259,-0.005555556,1,0,0,0.882,rock_grid_rect_2,1,07,-1,-1,0.882,-0.335185185,-0.230555556,1,0,0,4.8157,Andesite_rect,1,4.816,1,15,0,15,0,1,,,,,,,,,,,,,
5bf6fc936c445d0001aeba98,TCN,2024-06-21_10h46.46.167,LearnStrategy,2023.2.3,Win32,59.96641881,1,2,1,,,,,,,,4,15,,,,,,,,,,,3,6.819,0,,,,,,0.172222222,-0.243518519,1,0,0,6.8185,Diorite_rect,0,0,0,0,1,
5bf6fc936c445d0001aeba98,TCN,2024-06-21_10h46.46.167,LearnStrategy,2023.2.3,Win32,59.96641881,1,2,2,,,,,,,,6,07,,,,,,,,,,,6,6.281,1,,,,,,-0.133333333,-0.4,1,0,0,6.2809,Pegmatite_rect,1,0,1,0,1,
5bf6fc936c445d0001aeba98,TCN,2024-06-21_10h46.46.167,LearnStrategy,2023.2.3,Win32,59.96641881,1,2,3,,,,,,,,4,09,,,,,,,,,,,4,6.679,1,,,,,,0.425,-0.260185185,1,0,0,6.6791,Gabbro_rect,2,0,2,0,1,
5bf6fc936c445d0001aeba98,TCN,2024-06-21_10h46.46.167,LearnStrategy,2023.2.3,Win32,59.96641881,1,2,4,,,,,,,,1,11,,,,,,,,,,,1,7.437,1,,,,,,-0.367592593,-0.250925926,1,0,0,7.4373,Andesite_rect,3,0,3,0,1,
5bf6fc936c445d0001aeba98,TCN,2024-06-21_10h46.46.167,LearnStrategy,2023.2.3,Win32,59.96641881,1,2,5,,,,,,,,5,07,,,,,,,,,,,5,1.435,1,,,,,,-0.323148148,-0.412962963,1,0,0,1.4351,Obsidian_rect,4,0,4,0,1,
5bf6fc936c445d0001aeba98,TCN,2024-06-21_10h46.46.167,LearnStrategy,2023.2.3,Win32,59.96641881,1,2,6,,,,,,,,2,01,,,,,,,,,,,2,1.304,1,,,,,,-0.125925926,-0.241666667,1,0,0,1.3038,Basalt_rect,5,0,5,0,1,
5bf6fc936c445d0001aeba98,TCN,2024-06-21_10h46.46.167,LearnStrategy,2023.2.3,Win32,59.96641881,1,2,7,,,,,,,,7,12,,,,,,,,,,,7,1.534,1,,,,,,0.108333333,-0.411111111,1,0,0,1.5339,Peridotite_rect,6,0,6,0,1,
5bf6fc936c445d0001aeba98,TCN,2024-06-21_10h46.46.167,LearnStrategy,2023.2.3,Win32,59.96641881,1,2,8,,,,,,,,6,09,,,,,,,,,,,3,1.55,0,,,,,,0.138888889,-0.228703704,1,0,0,1.5501,Diorite_rect,7,0,7,0,1,
5bf6fc936c445d0001aeba98,TCN,2024-06-21_10h46.46.167,LearnStrategy,2023.2.3,Win32,59.96641881,1,2,9,,,,,,,,8,13,,,,,,,,,,,8,3.424,1,,,,,,0.40462963,-0.412037037,1,0,0,3.424,Pumice_rect,8,0,8,0,1,
5bf6fc936c445d0001aeba98,TCN,2024-06-21_10h46.46.167,LearnStrategy,2023.2.3,Win32,59.96641881,1,2,10,,,,,,,,8,02,,,,,,,,,,,8,0.849,1,,,,,,0.4,-0.402777778,1,0,0,0.8491,Pumice_rect,9,0,9,0,1,
5bf6fc936c445d0001aeba98,TCN,2024-06-21_10h46.46.167,LearnStrategy,2023.2.3,Win32,59.96641881,1,2,11,,,,,,,,3,06,,,,,,,,,,,3,4.391,1,,,,,,0.109259259,-0.261111111,1,0,0,4.3907,Diorite_rect,10,0,10,0,1,
5bf6fc936c445d0001aeba98,TCN,2024-06-21_10h46.46.167,LearnStrategy,2023.2.3,Win32,59.96641881,1,2,12,,,,,,,,3,13,,,,,,,,,,,3,0.863,1,,,,,,0.105555556,-0.261111111,1,0,0,0.8632,Diorite_rect,11,0,11,0,1,
5bf6fc936c445d0001aeba98,TCN,2024-06-21_10h46.46.167,LearnStrategy,2023.2.3,Win32,59.96641881,1,2,13,,,,,,,,2,02,,,,,,,,,,,2,1.428,1,,,,,,-0.124074074,-0.25,1,0,0,1.4278,Basalt_rect,12,0,12,0,1,
5bf6fc936c445d0001aeba98,TCN,2024-06-21_10h46.46.167,LearnStrategy,2023.2.3,Win32,59.96641881,1,2,14,,,,,,,,7,15,,,,,,,,,,,6,2.547,0,,,,,,-0.136111111,-0.401851852,1,0,0,2.5474,Pegmatite_rect,13,0,13,0,1,
5bf6fc936c445d0001aeba98,TCN,2024-06-21_10h46.46.167,LearnStrategy,2023.2.3,Win32,59.96641881,1,2,15,,,,,,,,1,04,,,,,,,,,,,4,1.821,0,,,,,,0.477777778,-0.257407407,1,0,0,1.8207,Gabbro_rect,14,0,14,0,1,
5bf6fc936c445d0001aeba98,TCN,2024-06-21_10h46.46.167,LearnStrategy,2023.2.3,Win32,59.96641881,1,2,16,,,,,,,,5,16,,,,,,,,,,,5,1.219,1,,,,,,-0.416666667,-0.412037037,1,0,0,1.2185,Obsidian_rect,15,0,15,0,1,
5bf6fc936c445d0001aeba98,TCN,2024-06-21_10h46.46.167,LearnStrategy,2023.2.3,Win32,59.96641881,2,1,1,0.012037037,-0.000925926,1,0,0,2.251,rock_grid_rect_2,3,16,-1,-1,2.251,-0.125,-0.398148148,1,0,0,4.2658,Pegmatite_rect,6,4.266,0,0,0,0,0,1,,,,,,,,,,,,,
5bf6fc936c445d0001aeba98,TCN,2024-06-21_10h46.46.167,LearnStrategy,2023.2.3,Win32,59.96641881,2,1,2,0.037037037,0.00462963,1,0,0,1.2358,rock_grid_rect_2,5,02,-1,-1,1.236,-0.428703704,-0.410185185,1,0,0,1.1884,Obsidian_rect,5,1.188,1,1,0,1,0,1,,,,,,,,,,,,,
5bf6fc936c445d0001aeba98,TCN,2024-06-21_10h46.46.167,LearnStrategy,2023.2.3,Win32,59.96641881,2,1,3,0.034259259,-0.002777778,1,0,0,1.1635,rock_grid_rect_2,8,15,-1,-1,1.163,0.389814815,-0.406481481,1,0,0,1.4303,Pumice_rect,8,1.43,1,2,0,2,0,1,,,,,,,,,,,,,
5bf6fc936c445d0001aeba98,TCN,2024-06-21_10h46.46.167,LearnStrategy,2023.2.3,Win32,59.96641881,2,1,4,0.04537037,0.001851852,1,0,0,1.1335,rock_grid_rect_2,4,08,-1,-1,1.133,-0.153703704,-0.237962963,1,0,0,3.1138,Basalt_rect,2,3.114,0,3,0,3,0,1,,,,,,,,,,,,,
5bf6fc936c445d0001aeba98,TCN,2024-06-21_10h46.46.167,LearnStrategy,2023.2.3,Win32,59.96641881,2,1,5,0.042592593,0,1,0,0,1.2617,rock_grid_rect_2,7,07,-1,-1,1.262,-0.112037037,-0.4,1,0,0,2.0958,Pegmatite_rect,6,2.096,0,4,0,4,0,1,,,,,,,,,,,,,
5bf6fc936c445d0001aeba98,TCN,2024-06-21_10h46.46.167,LearnStrategy,2023.2.3,Win32,59.96641881,2,1,6,0.017592593,0.021296296,1,0,0,0.8876,rock_grid_rect_2,5,12,-1,-1,0.888,-0.371296296,-0.388888889,1,0,0,1.089,Obsidian_rect,5,1.089,1,5,0,5,0,1,,,,,,,,,,,,,
5bf6fc936c445d0001aeba98,TCN,2024-06-21_10h46.46.167,LearnStrategy,2023.2.3,Win32,59.96641881,2,1,7,0.013888889,-0.008333333,1,0,0,0.8301,rock_grid_rect_2,3,10,-1,-1,0.83,-0.39537037,-0.248148148,1,0,0,2.2126,Andesite_rect,1,2.213,0,6,0,6,0,1,,,,,,,,,,,,,
5bf6fc936c445d0001aeba98,TCN,2024-06-21_10h46.46.167,LearnStrategy,2023.2.3,Win32,59.96641881,2,1,8,0.035185185,0.014814815,1,0,0,0.8005,rock_grid_rect_2,1,01,-1,-1,0.8,-0.172222222,-0.393518519,1,0,0,3.7477,Pegmatite_rect,6,3.748,0,7,0,7,0,1,,,,,,,,,,,,,
5bf6fc936c445d0001aeba98,TCN,2024-06-21_10h46.46.167,LearnStrategy,2023.2.3,Win32,59.96641881,2,1,9,-0.018518519,0,1,0,0,0.9496,rock_grid_rect_2,7,14,-1,-1,0.95,-0.39537037,-0.237037037,1,0,0,3.4072,Andesite_rect,1,3.407,0,8,0,8,0,1,,,,,,,,,,,,,
5bf6fc936c445d0001aeba98,TCN,2024-06-21_10h46.46.167,LearnStrategy,2023.2.3,Win32,59.96641881,2,1,10,0.012037037,0,1,0,0,0.9182,rock_grid_rect_2,2,08,-1,-1,0.918,-0.115740741,-0.238888889,1,0,0,1.1314,Basalt_rect,2,1.131,1,9,0,9,0,1,,,,,,,,,,,,,
5bf6fc936c445d0001aeba98,TCN,2024-06-21_10h46.46.167,LearnStrategy,2023.2.3,Win32,59.96641881,2,1,11,-0.02037037,0.016666667,1,0,0,1.1723,rock_grid_rect_2,6,05,-1,-1,1.172,0.439814815,-0.265740741,1,0,0,2.0982,Gabbro_rect,4,2.098,0,10,0,10,0,1,,,,,,,,,,,,,
5bf6fc936c445d0001aeba98,TCN,2024-06-21_10h46.46.167,LearnStrategy,2023.2.3,Win32,59.96641881,2,1,12,0,0,1,0,0,0.7826,rock_grid_rect_2,8,08,-1,-1,0.783,0.4,-0.39537037,1,0,0,1.6173,Pumice_rect,8,1.617,1,11,0,11,0,1,,,,,,,,,,,,,
5bf6fc936c445d0001aeba98,TCN,2024-06-21_10h46.46.167,LearnStrategy,2023.2.3,Win32,59.96641881,2,1,13,-0.047222222,0.003703704,1,0,0,0.8,rock_grid_rect_2,6,03,-1,-1,0.8,-0.358333333,-0.252777778,1,0,0,1.7238,Andesite_rect,1,1.724,0,12,0,12,0,1,,,,,,,,,,,,,
5bf6fc936c445d0001aeba98,TCN,2024-06-21_10h46.46.167,LearnStrategy,2023.2.3,Win32,59.96641881,2,1,14,0,-0.017592593,1,0,0,0.8351,rock_grid_rect_2,4,13,-1,-1,0.835,0.421296296,-0.247222222,1,0,0,2.46,Gabbro_rect,4,2.46,1,13,0,13,0,1,,,,,,,,,,,,,
5bf6fc936c445d0001aeba98,TCN,2024-06-21_10h46.46.167,LearnStrategy,2023.2.3,Win32,59.96641881,2,1,15,-0.052777778,0.008333333,1,0,0,1.2711,rock_grid_rect_2,1,10,-1,-1,1.271,-0.383333333,-0.242592593,1,0,0,4.9617,Andesite_rect,1,4.962,1,14,0,14,0,1,,,,,,,,,,,,,
5bf6fc936c445d0001aeba98,TCN,2024-06-21_10h46.46.167,LearnStrategy,2023.2.3,Win32,59.96641881,2,1,16,0.027777778,0.00462963,1,0,0,0.9824,rock_grid_rect_2,2,06,-1,-1,0.982,-0.083333333,-0.25,1,0,0,1.4275,Basalt_rect,2,1.428,1,15,0,15,0,1,,,,,,,,,,,,,
5bf6fc936c445d0001aeba98,TCN,2024-06-21_10h46.46.167,LearnStrategy,2023.2.3,Win32,59.96641881,2,2,1,,,,,,,,2,09,,,,,,,,,,,2,1.148,1,,,,,,-0.114814815,-0.242592593,1,0,0,1.1484,Basalt_rect,0,0,0,0,1,
5bf6fc936c445d0001aeba98,TCN,2024-06-21_10h46.46.167,LearnStrategy,2023.2.3,Win32,59.96641881,2,2,2,,,,,,,,6,06,,,,,,,,,,,6,4.17,1,,,,,,-0.085185185,-0.387962963,1,0,0,4.1698,Pegmatite_rect,1,0,1,0,1,
5bf6fc936c445d0001aeba98,TCN,2024-06-21_10h46.46.167,LearnStrategy,2023.2.3,Win32,59.96641881,2,2,3,,,,,,,,8,03,,,,,,,,,,,8,1.031,1,,,,,,0.360185185,-0.40462963,1,0,0,1.0306,Pumice_rect,2,0,2,0,1,
5bf6fc936c445d0001aeba98,TCN,2024-06-21_10h46.46.167,LearnStrategy,2023.2.3,Win32,59.96641881,2,2,4,,,,,,,,4,12,,,,,,,,,,,2,1.779,0,,,,,,-0.164814815,-0.25,1,0,0,1.7786,Basalt_rect,3,0,3,0,1,
5bf6fc936c445d0001aeba98,TCN,2024-06-21_10h46.46.167,LearnStrategy,2023.2.3,Win32,59.96641881,2,2,5,,,,,,,,8,04,,,,,,,,,,,8,1.099,1,,,,,,0.375,-0.413888889,1,0,0,1.0993,Pumice_rect,4,0,4,0,1,
5bf6fc936c445d0001aeba98,TCN,2024-06-21_10h46.46.167,LearnStrategy,2023.2.3,Win32,59.96641881,2,2,6,,,,,,,,3,08,,,,,,,,,,,7,2.7,0,,,,,,0.107407407,-0.383333333,1,0,0,2.6998,Peridotite_rect,5,0,5,0,1,
5bf6fc936c445d0001aeba98,TCN,2024-06-21_10h46.46.167,LearnStrategy,2023.2.3,Win32,59.96641881,2,2,7,,,,,,,,3,15,,,,,,,,,,,3,4.387,1,,,,,,0.108333333,-0.256481481,1,0,0,4.3865,Diorite_rect,6,0,6,0,1,
5bf6fc936c445d0001aeba98,TCN,2024-06-21_10h46.46.167,LearnStrategy,2023.2.3,Win32,59.96641881,2,2,8,,,,,,,,4,16,,,,,,,,,,,2,2.212,0,,,,,,-0.090740741,-0.255555556,1,0,0,2.212,Basalt_rect,7,0,7,0,1,
5bf6fc936c445d0001aeba98,TCN,2024-06-21_10h46.46.167,LearnStrategy,2023.2.3,Win32,59.96641881,2,2,9,,,,,,,,5,04,,,,,,,,,,,5,1.097,1,,,,,,-0.325,-0.396296296,1,0,0,1.0972,Obsidian_rect,8,0,8,0,1,
5bf6fc936c445d0001aeba98,TCN,2024-06-21_10h46.46.167,LearnStrategy,2023.2.3,Win32,59.96641881,2,2,10,,,,,,,,2,04,,,,,,,,,,,2,1.472,1,,,,,,-0.162962963,-0.255555556,1,0,0,1.4717,Basalt_rect,9,0,9,0,1,
5bf6fc936c445d0001aeba98,TCN,2024-06-21_10h46.46.167,LearnStrategy,2023.2.3,Win32,59.96641881,2,2,11,,,,,,,,6,08,,,,,,,,,,,6,2.398,1,,,,,,-0.153703704,-0.402777778,1,0,0,2.3978,Pegmatite_rect,10,0,10,0,1,
5bf6fc936c445d0001aeba98,TCN,2024-06-21_10h46.46.167,LearnStrategy,2023.2.3,Win32,59.96641881,2,2,12,,,,,,,,1,03,,,,,,,,,,,1,3.046,1,,,,,,-0.341666667,-0.241666667,1,0,0,3.0456,Andesite_rect,11,0,11,0,1,
5bf6fc936c445d0001aeba98,TCN,2024-06-21_10h46.46.167,LearnStrategy,2023.2.3,Win32,59.96641881,2,2,13,,,,,,,,7,05,,,,,,,,,,,7,1.697,1,,,,,,0.068518519,-0.39537037,1,0,0,1.6972,Peridotite_rect,12,0,12,0,1,
5bf6fc936c445d0001aeba98,TCN,2024-06-21_10h46.46.167,LearnStrategy,2023.2.3,Win32,59.96641881,2,2,14,,,,,,,,5,06,,,,,,,,,,,5,2.655,1,,,,,,-0.349074074,-0.392592593,1,0,0,2.6554,Obsidian_rect,13,0,13,0,1,
5bf6fc936c445d0001aeba98,TCN,2024-06-21_10h46.46.167,LearnStrategy,2023.2.3,Win32,59.96641881,2,2,15,,,,,,,,7,02,,,,,,,,,,,6,3.156,0,,,,,,-0.091666667,-0.412962963,1,0,0,3.1561,Pegmatite_rect,14,0,14,0,1,
5bf6fc936c445d0001aeba98,TCN,2024-06-21_10h46.46.167,LearnStrategy,2023.2.3,Win32,59.96641881,2,2,16,,,,,,,,1,02,,,,,,,,,,,4,2.749,0,,,,,,0.357407407,-0.252777778,1,0,0,2.7493,Gabbro_rect,15,0,15,0,1,
5bf6fc936c445d0001aeba98,TCN,2024-06-21_10h46.46.167,LearnStrategy,2023.2.3,Win32,59.96641881,3,1,1,-0.015740741,0.002777778,1,0,0,10.9869,rock_grid_rect_2,7,08,-1,-1,10.987,-0.37962963,-0.262037037,1,0,0,71.5649,Andesite_rect,1,71.565,0,0,0,0,0,1,,,,,,,,,,,,,
5bf6fc936c445d0001aeba98,TCN,2024-06-21_10h46.46.167,LearnStrategy,2023.2.3,Win32,59.96641881,3,1,2,-0.025925926,-0.003703704,1,0,0,1.3388,rock_grid_rect_2,8,10,-1,-1,1.339,0.377777778,-0.401851852,1,0,0,3.4123,Pumice_rect,8,3.412,1,1,0,1,0,1,,,,,,,,,,,,,
5bf6fc936c445d0001aeba98,TCN,2024-06-21_10h46.46.167,LearnStrategy,2023.2.3,Win32,59.96641881,3,1,3,0.014814815,-0.00462963,1,0,0,1.0498,rock_grid_rect_2,8,09,-1,-1,1.05,0.385185185,-0.398148148,1,0,0,1.1801,Pumice_rect,8,1.18,1,2,0,2,0,1,,,,,,,,,,,,,
5bf6fc936c445d0001aeba98,TCN,2024-06-21_10h46.46.167,LearnStrategy,2023.2.3,Win32,59.96641881,3,1,4,0.023148148,-0.023148148,1,0,0,0.8493,rock_grid_rect_2,1,14,-1,-1,0.849,0.123148148,-0.400925926,1,0,0,2.1788,Peridotite_rect,7,2.179,0,3,0,3,0,1,,,,,,,,,,,,,
5bf6fc936c445d0001aeba98,TCN,2024-06-21_10h46.46.167,LearnStrategy,2023.2.3,Win32,59.96641881,3,1,5,0.04537037,-0.007407407,1,0,0,0.9834,rock_grid_rect_2,2,11,-1,-1,0.983,-0.086111111,-0.269444444,1,0,0,3.6243,Basalt_rect,2,3.624,1,4,0,4,0,1,,,,,,,,,,,,,
5bf6fc936c445d0001aeba98,TCN,2024-06-21_10h46.46.167,LearnStrategy,2023.2.3,Win32,59.96641881,3,1,6,0.019444444,0.000925926,1,0,0,0.9322,rock_grid_rect_2,5,14,-1,-1,0.932,-0.357407407,-0.387037037,1,0,0,1.7456,Obsidian_rect,5,1.746,1,5,0,5,0,1,,,,,,,,,,,,,
5bf6fc936c445d0001aeba98,TCN,2024-06-21_10h46.46.167,LearnStrategy,2023.2.3,Win32,59.96641881,3,1,7,0.053703704,0.015740741,1,0,0,0.8329,rock_grid_rect_2,5,10,-1,-1,0.833,-0.319444444,-0.37962963,1,0,0,1.3955,Obsidian_rect,5,1.396,1,6,0,6,0,1,,,,,,,,,,,,,
5bf6fc936c445d0001aeba98,TCN,2024-06-21_10h46.46.167,LearnStrategy,2023.2.3,Win32,59.96641881,3,1,8,0.011111111,-0.011111111,1,0,0,0.7666,rock_grid_rect_2,1,06,-1,-1,0.767,0.414814815,-0.249074074,1,0,0,3.1129,Gabbro_rect,4,3.113,0,7,0,7,0,1,,,,,,,,,,,,,
5bf6fc936c445d0001aeba98,TCN,2024-06-21_10h46.46.167,LearnStrategy,2023.2.3,Win32,59.96641881,3,1,9,0.001851852,0.012037037,1,0,0,0.8166,rock_grid_rect_2,7,04,-1,-1,0.817,-0.126851852,-0.403703704,1,0,0,2.3552,Pegmatite_rect,6,2.355,0,8,0,8,0,1,,,,,,,,,,,,,
5bf6fc936c445d0001aeba98,TCN,2024-06-21_10h46.46.167,LearnStrategy,2023.2.3,Win32,59.96641881,3,1,10,0.033333333,0.007407407,1,0,0,0.7162,rock_grid_rect_2,4,11,-1,-1,0.716,-0.111111111,-0.244444444,1,0,0,1.167,Basalt_rect,2,1.167,0,9,0,9,0,1,,,,,,,,,,,,,
5bf6fc936c445d0001aeba98,TCN,2024-06-21_10h46.46.167,LearnStrategy,2023.2.3,Win32,59.96641881,3,1,11,0.015740741,0.000925926,1,0,0,0.9721,rock_grid_rect_2,6,12,-1,-1,0.972,-0.413888889,-0.259259259,1,0,0,2.2207,Andesite_rect,1,2.221,0,10,0,10,0,1,,,,,,,,,,,,,
5bf6fc936c445d0001aeba98,TCN,2024-06-21_10h46.46.167,LearnStrategy,2023.2.3,Win32,59.96641881,3,1,12,0.014814815,0.007407407,1,0,0,0.7664,rock_grid_rect_2,4,14,-1,-1,0.766,-0.358333333,-0.249074074,1,0,0,2.4979,Andesite_rect,1,2.498,0,11,0,11,0,1,,,,,,,,,,,,,
5bf6fc936c445d0001aeba98,TCN,2024-06-21_10h46.46.167,LearnStrategy,2023.2.3,Win32,59.96641881,3,1,13,0.028703704,0.002777778,1,0,0,0.8995,rock_grid_rect_2,2,16,-1,-1,0.899,0.137037037,-0.239814815,1,0,0,2.7631,Diorite_rect,3,2.763,0,12,0,12,0,1,,,,,,,,,,,,,
5bf6fc936c445d0001aeba98,TCN,2024-06-21_10h46.46.167,LearnStrategy,2023.2.3,Win32,59.96641881,3,1,14,0.001851852,-0.006481481,1,0,0,0.8495,rock_grid_rect_2,6,10,-1,-1,0.85,-0.063888889,-0.415740741,1,0,0,2.7628,Pegmatite_rect,6,2.763,1,13,0,13,0,1,,,,,,,,,,,,,
5bf6fc936c445d0001aeba98,TCN,2024-06-21_10h46.46.167,LearnStrategy,2023.2.3,Win32,59.96641881,3,1,15,0.023148148,0.017592593,1,0,0,0.8039,rock_grid_rect_2,3,09,-1,-1,0.804,0.140740741,-0.260185185,1,0,0,3.0774,Diorite_rect,3,3.077,1,14,0,14,0,1,,,,,,,,,,,,,
5bf6fc936c445d0001aeba98,TCN,2024-06-21_10h46.46.167,LearnStrategy,2023.2.3,Win32,59.96641881,3,1,16,0.033333333,0.000925926,1,0,0,0.9167,rock_grid_rect_2,3,14,-1,-1,0.917,0.086111111,-0.249074074,1,0,0,1.1612,Diorite_rect,3,1.161,1,15,0,15,0,1,,,,,,,,,,,,,
5bf6fc936c445d0001aeba98,TCN,2024-06-21_10h46.46.167,LearnStrategy,2023.2.3,Win32,59.96641881,3,2,1,,,,,,,,5,11,,,,,,,,,,,5,1.102,1,,,,,,-0.32962963,-0.397222222,1,0,0,1.102,Obsidian_rect,0,0,0,0,1,
5bf6fc936c445d0001aeba98,TCN,2024-06-21_10h46.46.167,LearnStrategy,2023.2.3,Win32,59.96641881,3,2,2,,,,,,,,4,05,,,,,,,,,,,3,4.31,0,,,,,,0.126851852,-0.250925926,1,0,0,4.3103,Diorite_rect,1,0,1,0,1,
5bf6fc936c445d0001aeba98,TCN,2024-06-21_10h46.46.167,LearnStrategy,2023.2.3,Win32,59.96641881,3,2,3,,,,,,,,3,12,,,,,,,,,,,3,2.757,1,,,,,,0.141666667,-0.250925926,1,0,0,2.757,Diorite_rect,2,0,2,0,1,
5bf6fc936c445d0001aeba98,TCN,2024-06-21_10h46.46.167,LearnStrategy,2023.2.3,Win32,59.96641881,3,2,4,,,,,,,,2,10,,,,,,,,,,,2,1.831,1,,,,,,-0.073148148,-0.25462963,1,0,0,1.8312,Basalt_rect,3,0,3,0,1,
5bf6fc936c445d0001aeba98,TCN,2024-06-21_10h46.46.167,LearnStrategy,2023.2.3,Win32,59.96641881,3,2,5,,,,,,,,1,16,,,,,,,,,,,4,2.309,0,,,,,,0.365740741,-0.257407407,1,0,0,2.3092,Gabbro_rect,4,0,4,0,1,
5bf6fc936c445d0001aeba98,TCN,2024-06-21_10h46.46.167,LearnStrategy,2023.2.3,Win32,59.96641881,3,2,6,,,,,,,,5,05,,,,,,,,,,,5,1.591,1,,,,,,-0.369444444,-0.409259259,1,0,0,1.5911,Obsidian_rect,5,0,5,0,1,
5bf6fc936c445d0001aeba98,TCN,2024-06-21_10h46.46.167,LearnStrategy,2023.2.3,Win32,59.96641881,3,2,7,,,,,,,,8,14,,,,,,,,,,,8,1.143,1,,,,,,0.353703704,-0.393518519,1,0,0,1.1433,Pumice_rect,6,0,6,0,1,
5bf6fc936c445d0001aeba98,TCN,2024-06-21_10h46.46.167,LearnStrategy,2023.2.3,Win32,59.96641881,3,2,8,,,,,,,,4,10,,,,,,,,,,,7,4.3,0,,,,,,0.098148148,-0.412962963,1,0,0,4.2996,Peridotite_rect,7,0,7,0,1,
5bf6fc936c445d0001aeba98,TCN,2024-06-21_10h46.46.167,LearnStrategy,2023.2.3,Win32,59.96641881,3,2,9,,,,,,,,7,10,,,,,,,,,,,6,3.003,0,,,,,,-0.077777778,-0.4,1,0,0,3.0029,Pegmatite_rect,8,0,8,0,1,
5bf6fc936c445d0001aeba98,TCN,2024-06-21_10h46.46.167,LearnStrategy,2023.2.3,Win32,59.96641881,3,2,10,,,,,,,,2,14,,,,,,,,,,,8,3.727,0,,,,,,0.389814815,-0.398148148,1,0,0,3.7265,Pumice_rect,9,0,9,0,1,
5bf6fc936c445d0001aeba98,TCN,2024-06-21_10h46.46.167,LearnStrategy,2023.2.3,Win32,59.96641881,3,2,11,,,,,,,,1,09,,,,,,,,,,,4,3.611,0,,,,,,0.399074074,-0.261111111,1,0,0,3.6106,Gabbro_rect,10,0,10,0,1,
5bf6fc936c445d0001aeba98,TCN,2024-06-21_10h46.46.167,LearnStrategy,2023.2.3,Win32,59.96641881,3,2,12,,,,,,,,3,07,,,,,,,,,,,1,2.694,0,,,,,,-0.336111111,-0.24537037,1,0,0,2.6941,Andesite_rect,11,0,11,0,1,
5bf6fc936c445d0001aeba98,TCN,2024-06-21_10h46.46.167,LearnStrategy,2023.2.3,Win32,59.96641881,3,2,13,,,,,,,,6,11,,,,,,,,,,,7,1.898,0,,,,,,0.130555556,-0.421296296,1,0,0,1.8983,Peridotite_rect,12,0,12,0,1,
5bf6fc936c445d0001aeba98,TCN,2024-06-21_10h46.46.167,LearnStrategy,2023.2.3,Win32,59.96641881,3,2,14,,,,,,,,7,13,,,,,,,,,,,6,1.612,0,,,,,,-0.075,-0.401851852,1,0,0,1.6117,Pegmatite_rect,13,0,13,0,1,
5bf6fc936c445d0001aeba98,TCN,2024-06-21_10h46.46.167,LearnStrategy,2023.2.3,Win32,59.96641881,3,2,15,,,,,,,,8,06,,,,,,,,,,,8,1.058,1,,,,,,0.399074074,-0.402777778,1,0,0,1.0582,Pumice_rect,14,0,14,0,1,
5bf6fc936c445d0001aeba98,TCN,2024-06-21_10h46.46.167,LearnStrategy,2023.2.3,Win32,59.96641881,3,2,16,,,,,,,,6,16,,,,,,,,,,,3,3.619,0,,,,,,0.169444444,-0.262962963,1,0,0,3.6188,Diorite_rect,15,0,15,0,1,
5bf6fc936c445d0001aeba98,TCN,2024-06-21_10h46.46.167,LearnStrategy,2023.2.3,Win32,59.96641881,4,1,1,0.05462963,-0.023148148,1,0,0,1.2365,rock_grid_rect_2,4,11,-1,-1,1.236,-0.125,-0.260185185,1,0,0,1.0463,Basalt_rect,2,1.046,0,0,0,0,0,1,,,,,,,,,,,,,
5bf6fc936c445d0001aeba98,TCN,2024-06-21_10h46.46.167,LearnStrategy,2023.2.3,Win32,59.96641881,4,1,2,0.002777778,-0.014814815,1,0,0,0.8639,rock_grid_rect_2,7,08,-1,-1,0.864,0.123148148,-0.398148148,1,0,0,1.4479,Peridotite_rect,7,1.448,1,1,0,1,0,1,,,,,,,,,,,,,
5bf6fc936c445d0001aeba98,TCN,2024-06-21_10h46.46.167,LearnStrategy,2023.2.3,Win32,59.96641881,4,1,3,0.039814815,-0.024074074,1,0,0,0.7965,rock_grid_rect_2,3,14,-1,-1,0.797,0.175925926,-0.247222222,1,0,0,1.8781,Diorite_rect,3,1.878,1,2,0,2,0,1,,,,,,,,,,,,,
5bf6fc936c445d0001aeba98,TCN,2024-06-21_10h46.46.167,LearnStrategy,2023.2.3,Win32,59.96641881,4,1,4,0.050925926,0.012037037,1,0,0,0.8001,rock_grid_rect_2,1,05,-1,-1,0.8,0.110185185,-0.233333333,1,0,0,1.3225,Diorite_rect,3,1.322,0,3,0,3,0,1,,,,,,,,,,,,,
5bf6fc936c445d0001aeba98,TCN,2024-06-21_10h46.46.167,LearnStrategy,2023.2.3,Win32,59.96641881,4,1,5,0.016666667,-0.02037037,1,0,0,0.7832,rock_grid_rect_2,2,16,-1,-1,0.783,-0.1,-0.233333333,1,0,0,1.0876,Basalt_rect,2,1.088,1,4,0,4,0,1,,,,,,,,,,,,,
5bf6fc936c445d0001aeba98,TCN,2024-06-21_10h46.46.167,LearnStrategy,2023.2.3,Win32,59.96641881,4,1,6,0.030555556,0.002777778,1,0,0,0.7744,rock_grid_rect_2,4,03,-1,-1,0.774,0.423148148,-0.243518519,1,0,0,2.8049,Gabbro_rect,4,2.805,1,5,0,5,0,1,,,,,,,,,,,,,
5bf6fc936c445d0001aeba98,TCN,2024-06-21_10h46.46.167,LearnStrategy,2023.2.3,Win32,59.96641881,4,1,7,0.009259259,-0.003703704,1,0,0,0.7495,rock_grid_rect_2,8,15,-1,-1,0.75,0.378703704,-0.412962963,1,0,0,1.2641,Pumice_rect,8,1.264,1,6,0,6,0,1,,,,,,,,,,,,,
5bf6fc936c445d0001aeba98,TCN,2024-06-21_10h46.46.167,LearnStrategy,2023.2.3,Win32,59.96641881,4,1,8,0.014814815,-0.000925926,1,0,0,1.0152,rock_grid_rect_2,3,11,-1,-1,1.015,0.131481481,-0.240740741,1,0,0,5.7204,Diorite_rect,3,5.72,1,7,0,7,0,1,,,,,,,,,,,,,
5bf6fc936c445d0001aeba98,TCN,2024-06-21_10h46.46.167,LearnStrategy,2023.2.3,Win32,59.96641881,4,1,9,0.014814815,-0.002777778,1,0,0,0.8403,rock_grid_rect_2,1,14,-1,-1,0.84,-0.124074074,-0.396296296,1,0,0,1.904,Pegmatite_rect,6,1.904,0,8,0,8,0,1,,,,,,,,,,,,,
5bf6fc936c445d0001aeba98,TCN,2024-06-21_10h46.46.167,LearnStrategy,2023.2.3,Win32,59.96641881,4,1,10,0.009259259,-0.008333333,1,0,0,0.8332,rock_grid_rect_2,2,05,-1,-1,0.833,-0.085185185,-0.242592593,1,0,0,1.4288,Basalt_rect,2,1.429,1,9,0,9,0,1,,,,,,,,,,,,,
5bf6fc936c445d0001aeba98,TCN,2024-06-21_10h46.46.167,LearnStrategy,2023.2.3,Win32,59.96641881,4,1,11,0.050925926,-0.001851852,1,0,0,0.7147,rock_grid_rect_2,8,05,-1,-1,0.715,0.388888889,-0.391666667,1,0,0,1.2555,Pumice_rect,8,1.255,1,10,0,10,0,1,,,,,,,,,,,,,
5bf6fc936c445d0001aeba98,TCN,2024-06-21_10h46.46.167,LearnStrategy,2023.2.3,Win32,59.96641881,4,1,12,0.032407407,-0.007407407,1,0,0,0.8492,rock_grid_rect_2,6,10,-1,-1,0.849,-0.146296296,-0.411111111,1,0,0,1.8792,Pegmatite_rect,6,1.879,1,11,0,11,0,1,,,,,,,,,,,,,
5bf6fc936c445d0001aeba98,TCN,2024-06-21_10h46.46.167,LearnStrategy,2023.2.3,Win32,59.96641881,4,1,13,-0.002777778,-0.019444444,1,0,0,0.9639,rock_grid_rect_2,5,08,-1,-1,0.964,-0.340740741,-0.386111111,1,0,0,1.1011,Obsidian_rect,5,1.101,1,12,0,12,0,1,,,,,,,,,,,,,
5bf6fc936c445d0001aeba98,TCN,2024-06-21_10h46.46.167,LearnStrategy,2023.2.3,Win32,59.96641881,4,1,14,0.027777778,0.005555556,1,0,0,1.0999,rock_grid_rect_2,5,02,-1,-1,1.1,-0.449074074,-0.408333333,1,0,0,1.3373,Obsidian_rect,5,1.337,1,13,0,13,0,1,,,,,,,,,,,,,
5bf6fc936c445d0001aeba98,TCN,2024-06-21_10h46.46.167,LearnStrategy,2023.2.3,Win32,59.96641881,4,1,15,-0.005555556,-0.000925926,1,0,0,0.8726,rock_grid_rect_2,6,03,-1,-1,0.873,-0.144444444,-0.412962963,1,0,0,2.278,Pegmatite_rect,6,2.278,1,14,0,14,0,1,,,,,,,,,,,,,
5bf6fc936c445d0001aeba98,TCN,2024-06-21_10h46.46.167,LearnStrategy,2023.2.3,Win32,59.96641881,4,1,16,0.04537037,-0.002777778,1,0,0,0.8348,rock_grid_rect_2,7,07,-1,-1,0.835,-0.389814815,-0.24537037,1,0,0,1.9128,Andesite_rect,1,1.913,0,15,0,15,0,1,,,,,,,,,,,,,
5bf6fc936c445d0001aeba98,TCN,2024-06-21_10h46.46.167,LearnStrategy,2023.2.3,Win32,59.96641881,4,2,1,,,,,,,,7,10,,,,,,,,,,,7,2.232,1,,,,,,0.097222222,-0.411111111,1,0,0,2.2321,Peridotite_rect,0,0,0,0,1,
5bf6fc936c445d0001aeba98,TCN,2024-06-21_10h46.46.167,LearnStrategy,2023.2.3,Win32,59.96641881,4,2,2,,,,,,,,4,16,,,,,,,,,,,2,1.556,0,,,,,,-0.134259259,-0.25,1,0,0,1.5559,Basalt_rect,1,0,1,0,1,
5bf6fc936c445d0001aeba98,TCN,2024-06-21_10h46.46.167,LearnStrategy,2023.2.3,Win32,59.96641881,4,2,3,,,,,,,,3,13,,,,,,,,,,,7,1.754,0,,,,,,0.139814815,-0.415740741,1,0,0,1.7543,Peridotite_rect,2,0,2,0,1,
5bf6fc936c445d0001aeba98,TCN,2024-06-21_10h46.46.167,LearnStrategy,2023.2.3,Win32,59.96641881,4,2,4,,,,,,,,8,03,,,,,,,,,,,8,0.907,1,,,,,,0.413888889,-0.380555556,1,0,0,0.9072,Pumice_rect,3,0,3,0,1,
5bf6fc936c445d0001aeba98,TCN,2024-06-21_10h46.46.167,LearnStrategy,2023.2.3,Win32,59.96641881,4,2,5,,,,,,,,6,06,,,,,,,,,,,6,1.65,1,,,,,,-0.112962963,-0.417592593,1,0,0,1.6497,Pegmatite_rect,4,0,4,0,1,
5bf6fc936c445d0001aeba98,TCN,2024-06-21_10h46.46.167,LearnStrategy,2023.2.3,Win32,59.96641881,4,2,6,,,,,,,,4,09,,,,,,,,,,,1,3.752,0,,,,,,-0.34537037,-0.234259259,1,0,0,3.7516,Andesite_rect,5,0,5,0,1,
5bf6fc936c445d0001aeba98,TCN,2024-06-21_10h46.46.167,LearnStrategy,2023.2.3,Win32,59.96641881,4,2,7,,,,,,,,8,02,,,,,,,,,,,8,1.537,1,,,,,,0.362037037,-0.408333333,1,0,0,1.5367,Pumice_rect,6,0,6,0,1,
5bf6fc936c445d0001aeba98,TCN,2024-06-21_10h46.46.167,LearnStrategy,2023.2.3,Win32,59.96641881,4,2,8,,,,,,,,3,06,,,,,,,,,,,3,1.568,1,,,,,,0.137962963,-0.269444444,1,0,0,1.5682,Diorite_rect,7,0,7,0,1,
5bf6fc936c445d0001aeba98,TCN,2024-06-21_10h46.46.167,LearnStrategy,2023.2.3,Win32,59.96641881,4,2,9,,,,,,,,7,12,,,,,,,,,,,1,5.09,0,,,,,,-0.323148148,-0.25462963,1,0,0,5.0897,Andesite_rect,8,0,8,0,1,
5bf6fc936c445d0001aeba98,TCN,2024-06-21_10h46.46.167,LearnStrategy,2023.2.3,Win32,59.96641881,4,2,10,,,,,,,,2,09,,,,,,,,,,,2,0.827,1,,,,,,-0.162962963,-0.246296296,1,0,0,0.8273,Basalt_rect,9,0,9,0,1,
5bf6fc936c445d0001aeba98,TCN,2024-06-21_10h46.46.167,LearnStrategy,2023.2.3,Win32,59.96641881,4,2,11,,,,,,,,1,04,,,,,,,,,,,4,2.029,0,,,,,,0.371296296,-0.263888889,1,0,0,2.0291,Gabbro_rect,10,0,10,0,1,
5bf6fc936c445d0001aeba98,TCN,2024-06-21_10h46.46.167,LearnStrategy,2023.2.3,Win32,59.96641881,4,2,12,,,,,,,,2,14,,,,,,,,,,,8,1.78,0,,,,,,0.361111111,-0.396296296,1,0,0,1.7803,Pumice_rect,11,0,11,0,1,
5bf6fc936c445d0001aeba98,TCN,2024-06-21_10h46.46.167,LearnStrategy,2023.2.3,Win32,59.96641881,4,2,13,,,,,,,,5,04,,,,,,,,,,,5,0.85,1,,,,,,-0.339814815,-0.387962963,1,0,0,0.8504,Obsidian_rect,12,0,12,0,1,
5bf6fc936c445d0001aeba98,TCN,2024-06-21_10h46.46.167,LearnStrategy,2023.2.3,Win32,59.96641881,4,2,14,,,,,,,,6,16,,,,,,,,,,,6,1.209,1,,,,,,-0.160185185,-0.403703704,1,0,0,1.2089,Pegmatite_rect,13,0,13,0,1,
5bf6fc936c445d0001aeba98,TCN,2024-06-21_10h46.46.167,LearnStrategy,2023.2.3,Win32,59.96641881,4,2,15,,,,,,,,1,11,,,,,,,,,,,4,1.828,0,,,,,,0.385185185,-0.262037037,1,0,0,1.8283,Gabbro_rect,14,0,14,0,1,
5bf6fc936c445d0001aeba98,TCN,2024-06-21_10h46.46.167,LearnStrategy,2023.2.3,Win32,59.96641881,4,2,16,,,,,,,,5,06,,,,,,,,,,,5,1.077,1,,,,,,-0.359259259,-0.413888889,1,0,0,1.0772,Obsidian_rect,15,0,15,0,1,
5bf6fc936c445d0001aeba98,TCN,2024-06-21_10h46.46.167,LearnStrategy,2023.2.3,Win32,59.96641881,5,1,1,0.023148148,-0.012037037,1,0,0,0.9141,rock_grid_rect_2,2,06,-1,-1,0.914,-0.128703704,-0.248148148,1,0,0,14.9115,Basalt_rect,2,14.911,1,0,0,0,0,1,,,,,,,,,,,,,
5bf6fc936c445d0001aeba98,TCN,2024-06-21_10h46.46.167,LearnStrategy,2023.2.3,Win32,59.96641881,5,1,2,0.059259259,-0.006481481,1,0,0,0.9327,rock_grid_rect_2,8,16,-1,-1,0.933,0.40462963,-0.402777778,1,0,0,1.0116,Pumice_rect,8,1.012,1,1,0,1,0,1,,,,,,,,,,,,,
5bf6fc936c445d0001aeba98,TCN,2024-06-21_10h46.46.167,LearnStrategy,2023.2.3,Win32,59.96641881,5,1,3,0.001851852,0,1,0,0,0.6829,rock_grid_rect_2,3,02,-1,-1,0.683,0.116666667,-0.246296296,1,0,0,2.4808,Diorite_rect,3,2.481,1,2,0,2,0,1,,,,,,,,,,,,,
5bf6fc936c445d0001aeba98,TCN,2024-06-21_10h46.46.167,LearnStrategy,2023.2.3,Win32,59.96641881,5,1,4,0.000925926,-0.011111111,1,0,0,0.7833,rock_grid_rect_2,5,09,-1,-1,0.783,-0.35462963,-0.394444444,1,0,0,1.2149,Obsidian_rect,5,1.215,1,3,0,3,0,1,,,,,,,,,,,,,
5bf6fc936c445d0001aeba98,TCN,2024-06-21_10h46.46.167,LearnStrategy,2023.2.3,Win32,59.96641881,5,1,5,-0.002777778,-0.001851852,1,0,0,0.7662,rock_grid_rect_2,5,12,-1,-1,0.766,-0.328703704,-0.397222222,1,0,0,1.0284,Obsidian_rect,5,1.028,1,4,0,4,0,1,,,,,,,,,,,,,
5bf6fc936c445d0001aeba98,TCN,2024-06-21_10h46.46.167,LearnStrategy,2023.2.3,Win32,59.96641881,5,1,6,0.040740741,-0.013888889,1,0,0,0.8883,rock_grid_rect_2,6,12,-1,-1,0.888,0.109259259,-0.410185185,1,0,0,6.3451,Peridotite_rect,7,6.345,0,5,0,5,0,1,,,,,,,,,,,,,
5bf6fc936c445d0001aeba98,TCN,2024-06-21_10h46.46.167,LearnStrategy,2023.2.3,Win32,59.96641881,5,1,7,-0.007407407,0.010185185,1,0,0,1.0325,rock_grid_rect_2,3,16,-1,-1,1.033,0.077777778,-0.24537037,1,0,0,1.9955,Diorite_rect,3,1.995,1,6,0,6,0,1,,,,,,,,,,,,,
5bf6fc936c445d0001aeba98,TCN,2024-06-21_10h46.46.167,LearnStrategy,2023.2.3,Win32,59.96641881,5,1,8,0.018518519,-0.011111111,1,0,0,0.7995,rock_grid_rect_2,7,06,-1,-1,0.799,0.071296296,-0.414814815,1,0,0,3.5769,Peridotite_rect,7,3.577,1,7,0,7,0,1,,,,,,,,,,,,,
5bf6fc936c445d0001aeba98,TCN,2024-06-21_10h46.46.167,LearnStrategy,2023.2.3,Win32,59.96641881,5,1,9,0.036111111,-0.007407407,1,0,0,1.0325,rock_grid_rect_2,6,15,-1,-1,1.033,-0.075925926,-0.380555556,1,0,0,61.0091,Pegmatite_rect,6,61.009,1,8,0,8,0,1,,,,,,,,,,,,,
5bf6fc936c445d0001aeba98,TCN,2024-06-21_10h46.46.167,LearnStrategy,2023.2.3,Win32,59.96641881,5,1,10,0.057407407,-0.007407407,1,0,0,0.9056,rock_grid_rect_2,1,06,-1,-1,0.906,0.365740741,-0.258333333,1,0,0,2.0532,Gabbro_rect,4,2.053,0,9,0,9,0,1,,,,,,,,,,,,,
5bf6fc936c445d0001aeba98,TCN,2024-06-21_10h46.46.167,LearnStrategy,2023.2.3,Win32,59.96641881,5,1,11,-0.05462963,0.003703704,1,0,0,0.7831,rock_grid_rect_2,8,10,-1,-1,0.783,0.344444444,-0.394444444,1,0,0,1.1794,Pumice_rect,8,1.179,1,10,0,10,0,1,,,,,,,,,,,,,
5bf6fc936c445d0001aeba98,TCN,2024-06-21_10h46.46.167,LearnStrategy,2023.2.3,Win32,59.96641881,5,1,12,0.008333333,-0.016666667,1,0,0,0.8686,rock_grid_rect_2,7,14,-1,-1,0.869,0.372222222,-0.237962963,1,0,0,2.4476,Gabbro_rect,4,2.448,0,11,0,11,0,1,,,,,,,,,,,,,
5bf6fc936c445d0001aeba98,TCN,2024-06-21_10h46.46.167,LearnStrategy,2023.2.3,Win32,59.96641881,5,1,13,0.016666667,0,1,0,0,0.7162,rock_grid_rect_2,4,13,-1,-1,0.716,-0.359259259,-0.249074074,1,0,0,1.6374,Andesite_rect,1,1.637,0,12,0,12,0,1,,,,,,,,,,,,,
5bf6fc936c445d0001aeba98,TCN,2024-06-21_10h46.46.167,LearnStrategy,2023.2.3,Win32,59.96641881,5,1,14,0.033333333,-0.013888889,1,0,0,0.7159,rock_grid_rect_2,1,07,-1,-1,0.716,-0.353703704,-0.250925926,1,0,0,1.2286,Andesite_rect,1,1.229,1,13,0,13,0,1,,,,,,,,,,,,,
5bf6fc936c445d0001aeba98,TCN,2024-06-21_10h46.46.167,LearnStrategy,2023.2.3,Win32,59.96641881,5,1,15,0.027777778,0.001851852,1,0,0,0.8254,rock_grid_rect_2,2,11,-1,-1,0.825,0.346296296,-0.412962963,1,0,0,1.2141,Pumice_rect,8,1.214,0,14,0,14,0,1,,,,,,,,,,,,,
5bf6fc936c445d0001aeba98,TCN,2024-06-21_10h46.46.167,LearnStrategy,2023.2.3,Win32,59.96641881,5,1,16,0.007407407,0.00462963,1,0,0,0.822,rock_grid_rect_2,4,14,-1,-1,0.822,-0.090740741,-0.253703704,1,0,0,2.341,Basalt_rect,2,2.341,0,15,0,15,0,1,,,,,,,,,,,,,
5bf6fc936c445d0001aeba98,TCN,2024-06-21_10h46.46.167,LearnStrategy,2023.2.3,Win32,59.96641881,5,2,1,,,,,,,,6,11,,,,,,,,,,,6,42.183,1,,,,,,-0.132407407,-0.40462963,1,0,0,42.1831,Pegmatite_rect,0,0,0,0,1,
5bf6fc936c445d0001aeba98,TCN,2024-06-21_10h46.46.167,LearnStrategy,2023.2.3,Win32,59.96641881,5,2,2,,,,,,,,1,09,,,,,,,,,,,4,2.218,0,,,,,,0.393518519,-0.247222222,1,0,0,2.2176,Gabbro_rect,1,0,1,0,1,
5bf6fc936c445d0001aeba98,TCN,2024-06-21_10h46.46.167,LearnStrategy,2023.2.3,Win32,59.96641881,5,2,3,,,,,,,,1,03,,,,,,,,,,,4,4.52,0,,,,,,0.350925926,-0.262962963,1,0,0,4.5198,Gabbro_rect,2,0,2,0,1,
5bf6fc936c445d0001aeba98,TCN,2024-06-21_10h46.46.167,LearnStrategy,2023.2.3,Win32,59.96641881,5,2,4,,,,,,,,5,16,,,,,,,,,,,5,1.127,1,,,,,,-0.368518519,-0.393518519,1,0,0,1.1266,Obsidian_rect,3,0,3,0,1,
5bf6fc936c445d0001aeba98,TCN,2024-06-21_10h46.46.167,LearnStrategy,2023.2.3,Win32,59.96641881,5,2,5,,,,,,,,6,08,,,,,,,,,,,7,4.063,0,,,,,,0.113888889,-0.406481481,1,0,0,4.0633,Peridotite_rect,4,0,4,0,1,
5bf6fc936c445d0001aeba98,TCN,2024-06-21_10h46.46.167,LearnStrategy,2023.2.3,Win32,59.96641881,5,2,6,,,,,,,,5,07,,,,,,,,,,,5,3.366,1,,,,,,-0.428703704,-0.408333333,1,0,0,3.3656,Obsidian_rect,5,0,5,0,1,
5bf6fc936c445d0001aeba98,TCN,2024-06-21_10h46.46.167,LearnStrategy,2023.2.3,Win32,59.96641881,5,2,7,,,,,,,,2,01,,,,,,,,,,,2,1.627,1,,,,,,-0.110185185,-0.246296296,1,0,0,1.6269,Basalt_rect,6,0,6,0,1,
5bf6fc936c445d0001aeba98,TCN,2024-06-21_10h46.46.167,LearnStrategy,2023.2.3,Win32,59.96641881,5,2,8,,,,,,,,7,05,,,,,,,,,,,6,155.529,0,,,,,,-0.152777778,-0.387962963,1,0,0,155.5286,Pegmatite_rect,7,0,7,0,1,
5bf6fc936c445d0001aeba98,TCN,2024-06-21_10h46.46.167,LearnStrategy,2023.2.3,Win32,59.96641881,5,2,9,,,,,,,,2,10,,,,,,,,,,,2,1.51,1,,,,,,-0.119444444,-0.266666667,1,0,0,1.5101,Basalt_rect,8,0,8,0,1,
5bf6fc936c445d0001aeba98,TCN,2024-06-21_10h46.46.167,LearnStrategy,2023.2.3,Win32,59.96641881,5,2,10,,,,,,,,3,07,,,,,,,,,,,1,4.668,0,,,,,,-0.369444444,-0.251851852,1,0,0,4.6677,Andesite_rect,9,0,9,0,1,
5bf6fc936c445d0001aeba98,TCN,2024-06-21_10h46.46.167,LearnStrategy,2023.2.3,Win32,59.96641881,5,2,11,,,,,,,,7,13,,,,,,,,,,,7,2.533,1,,,,,,0.094444444,-0.414814815,1,0,0,2.533,Peridotite_rect,10,0,10,0,1,
5bf6fc936c445d0001aeba98,TCN,2024-06-21_10h46.46.167,LearnStrategy,2023.2.3,Win32,59.96641881,5,2,12,,,,,,,,8,06,,,,,,,,,,,8,1.07,1,,,,,,0.426851852,-0.397222222,1,0,0,1.0701,Pumice_rect,11,0,11,0,1,
5bf6fc936c445d0001aeba98,TCN,2024-06-21_10h46.46.167,LearnStrategy,2023.2.3,Win32,59.96641881,5,2,13,,,,,,,,4,12,,,,,,,,,,,2,1.121,0,,,,,,-0.12037037,-0.251851852,1,0,0,1.1206,Basalt_rect,12,0,12,0,1,
5bf6fc936c445d0001aeba98,TCN,2024-06-21_10h46.46.167,LearnStrategy,2023.2.3,Win32,59.96641881,5,2,14,,,,,,,,3,08,,,,,,,,,,,7,4,0,,,,,,0.112037037,-0.390740741,1,0,0,3.9996,Peridotite_rect,13,0,13,0,1,
5bf6fc936c445d0001aeba98,TCN,2024-06-21_10h46.46.167,LearnStrategy,2023.2.3,Win32,59.96641881,5,2,15,,,,,,,,8,13,,,,,,,,,,,8,6.603,1,,,,,,0.398148148,-0.387962963,1,0,0,6.6027,Pumice_rect,14,0,14,0,1,
5bf6fc936c445d0001aeba98,TCN,2024-06-21_10h46.46.167,LearnStrategy,2023.2.3,Win32,59.96641881,5,2,16,,,,,,,,4,15,,,,,,,,,,,1,1.782,0,,,,,,-0.37037037,-0.244444444,1,0,0,1.7817,Andesite_rect,15,0,15,0,1,
5bf6fc936c445d0001aeba98,TCN,2024-06-21_10h46.46.167,LearnStrategy,2023.2.3,Win32,59.96641881,6,1,1,0.060185185,-0.005555556,1,0,0,1.4489,rock_grid_rect_2,1,10,-1,-1,1.449,0.118518519,-0.388888889,1,0,0,5.05,Peridotite_rect,7,5.05,0,0,0,0,0,1,,,,,,,,,,,,,
5bf6fc936c445d0001aeba98,TCN,2024-06-21_10h46.46.167,LearnStrategy,2023.2.3,Win32,59.96641881,6,1,2,0.061111111,-0.008333333,1,0,0,0.9727,rock_grid_rect_2,2,12,-1,-1,0.973,0.447222222,-0.402777778,1,0,0,1.7375,Pumice_rect,8,1.737,0,1,0,1,0,1,,,,,,,,,,,,,
5bf6fc936c445d0001aeba98,TCN,2024-06-21_10h46.46.167,LearnStrategy,2023.2.3,Win32,59.96641881,6,1,3,0.011111111,-0.024074074,1,0,0,0.969,rock_grid_rect_2,4,01,-1,-1,0.969,-0.378703704,-0.242592593,1,0,0,1.8103,Andesite_rect,1,1.81,0,2,0,2,0,1,,,,,,,,,,,,,
5bf6fc936c445d0001aeba98,TCN,2024-06-21_10h46.46.167,LearnStrategy,2023.2.3,Win32,59.96641881,6,1,4,0.024074074,0.001851852,1,0,0,1.0669,rock_grid_rect_2,6,05,-1,-1,1.067,0.126851852,-0.409259259,1,0,0,2.7297,Peridotite_rect,7,2.73,0,3,0,3,0,1,,,,,,,,,,,,,
5bf6fc936c445d0001aeba98,TCN,2024-06-21_10h46.46.167,LearnStrategy,2023.2.3,Win32,59.96641881,6,1,5,0.05,0.008333333,1,0,0,0.7983,rock_grid_rect_2,2,08,-1,-1,0.798,-0.128703704,-0.238888889,1,0,0,1.1443,Basalt_rect,2,1.144,1,4,0,4,0,1,,,,,,,,,,,,,
5bf6fc936c445d0001aeba98,TCN,2024-06-21_10h46.46.167,LearnStrategy,2023.2.3,Win32,59.96641881,6,1,6,0.041666667,0.002777778,1,0,0,0.7832,rock_grid_rect_2,8,08,-1,-1,0.783,0.40462963,-0.403703704,1,0,0,1.495,Pumice_rect,8,1.495,1,5,0,5,0,1,,,,,,,,,,,,,
5bf6fc936c445d0001aeba98,TCN,2024-06-21_10h46.46.167,LearnStrategy,2023.2.3,Win32,59.96641881,6,1,7,-0.033333333,-0.006481481,1,0,0,0.857,rock_grid_rect_2,3,10,-1,-1,0.857,0.412962963,-0.246296296,1,0,0,3.9256,Gabbro_rect,4,3.926,0,6,0,6,0,1,,,,,,,,,,,,,
5bf6fc936c445d0001aeba98,TCN,2024-06-21_10h46.46.167,LearnStrategy,2023.2.3,Win32,59.96641881,6,1,8,0.046296296,-0.001851852,1,0,0,0.884,rock_grid_rect_2,4,08,-1,-1,0.884,-0.396296296,-0.269444444,1,0,0,3.7291,Andesite_rect,1,3.729,0,7,0,7,0,1,,,,,,,,,,,,,
5bf6fc936c445d0001aeba98,TCN,2024-06-21_10h46.46.167,LearnStrategy,2023.2.3,Win32,59.96641881,6,1,9,0.023148148,0,1,0,0,0.8323,rock_grid_rect_2,7,04,-1,-1,0.832,0.112962963,-0.4,1,0,0,1.6851,Peridotite_rect,7,1.685,1,8,0,8,0,1,,,,,,,,,,,,,
5bf6fc936c445d0001aeba98,TCN,2024-06-21_10h46.46.167,LearnStrategy,2023.2.3,Win32,59.96641881,6,1,10,0.067592593,-0.014814815,1,0,0,0.6828,rock_grid_rect_2,7,16,-1,-1,0.683,0.091666667,-0.37962963,1,0,0,1.0207,Peridotite_rect,7,1.021,1,9,0,9,0,1,,,,,,,,,,,,,
5bf6fc936c445d0001aeba98,TCN,2024-06-21_10h46.46.167,LearnStrategy,2023.2.3,Win32,59.96641881,6,1,11,0.040740741,0.00462963,1,0,0,0.7163,rock_grid_rect_2,8,09,-1,-1,0.716,0.359259259,-0.407407407,1,0,0,1.184,Pumice_rect,8,1.184,1,10,0,10,0,1,,,,,,,,,,,,,
5bf6fc936c445d0001aeba98,TCN,2024-06-21_10h46.46.167,LearnStrategy,2023.2.3,Win32,59.96641881,6,1,12,0.038888889,0.015740741,1,0,0,0.8558,rock_grid_rect_2,6,13,-1,-1,0.856,0.105555556,-0.4,1,0,0,4.6414,Peridotite_rect,7,4.641,0,11,0,11,0,1,,,,,,,,,,,,,
5bf6fc936c445d0001aeba98,TCN,2024-06-21_10h46.46.167,LearnStrategy,2023.2.3,Win32,59.96641881,6,1,13,0.030555556,0.011111111,1,0,0,0.7822,rock_grid_rect_2,5,14,-1,-1,0.782,-0.363888889,-0.412962963,1,0,0,1.1505,Obsidian_rect,5,1.15,1,12,0,12,0,1,,,,,,,,,,,,,
5bf6fc936c445d0001aeba98,TCN,2024-06-21_10h46.46.167,LearnStrategy,2023.2.3,Win32,59.96641881,6,1,14,-0.001851852,-0.012962963,1,0,0,1.1172,rock_grid_rect_2,5,10,-1,-1,1.117,-0.335185185,-0.410185185,1,0,0,1.1773,Obsidian_rect,5,1.177,1,13,0,13,0,1,,,,,,,,,,,,,
5bf6fc936c445d0001aeba98,TCN,2024-06-21_10h46.46.167,LearnStrategy,2023.2.3,Win32,59.96641881,6,1,15,0.042592593,-0.009259259,1,0,0,0.9743,rock_grid_rect_2,1,01,-1,-1,0.974,0.186111111,-0.251851852,1,0,0,2.4653,Diorite_rect,3,2.465,0,14,0,14,0,1,,,,,,,,,,,,,
5bf6fc936c445d0001aeba98,TCN,2024-06-21_10h46.46.167,LearnStrategy,2023.2.3,Win32,59.96641881,6,1,16,0.003703704,0.002777778,1,0,0,0.9191,rock_grid_rect_2,3,09,-1,-1,0.919,0.160185185,-0.233333333,1,0,0,1.2458,Diorite_rect,3,1.246,1,15,0,15,0,1,,,,,,,,,,,,,
5bf6fc936c445d0001aeba98,TCN,2024-06-21_10h46.46.167,LearnStrategy,2023.2.3,Win32,59.96641881,6,2,1,,,,,,,,4,10,,,,,,,,,,,4,4.369,1,,,,,,0.384259259,-0.252777778,1,0,0,4.3692,Gabbro_rect,0,0,0,0,1,
5bf6fc936c445d0001aeba98,TCN,2024-06-21_10h46.46.167,LearnStrategy,2023.2.3,Win32,59.96641881,6,2,2,,,,,,,,4,05,,,,,,,,,,,6,3.128,0,,,,,,-0.105555556,-0.402777778,1,0,0,3.1276,Pegmatite_rect,1,0,1,0,1,
5bf6fc936c445d0001aeba98,TCN,2024-06-21_10h46.46.167,LearnStrategy,2023.2.3,Win32,59.96641881,6,2,3,,,,,,,,5,11,,,,,,,,,,,5,1.094,1,,,,,,-0.350925926,-0.388888889,1,0,0,1.0936,Obsidian_rect,2,0,2,0,1,
5bf6fc936c445d0001aeba98,TCN,2024-06-21_10h46.46.167,LearnStrategy,2023.2.3,Win32,59.96641881,6,2,4,,,,,,,,8,04,,,,,,,,,,,8,1.342,1,,,,,,0.360185185,-0.415740741,1,0,0,1.3423,Pumice_rect,3,0,3,0,1,
5bf6fc936c445d0001aeba98,TCN,2024-06-21_10h46.46.167,LearnStrategy,2023.2.3,Win32,59.96641881,6,2,5,,,,,,,,1,02,,,,,,,,,,,1,3.766,1,,,,,,-0.407407407,-0.244444444,1,0,0,3.7657,Andesite_rect,4,0,4,0,1,
5bf6fc936c445d0001aeba98,TCN,2024-06-21_10h46.46.167,LearnStrategy,2023.2.3,Win32,59.96641881,6,2,6,,,,,,,,3,12,,,,,,,,,,,1,20.374,0,,,,,,-0.392592593,-0.248148148,1,0,0,20.3743,Andesite_rect,5,0,5,0,1,
5bf6fc936c445d0001aeba98,TCN,2024-06-21_10h46.46.167,LearnStrategy,2023.2.3,Win32,59.96641881,6,2,7,,,,,,,,3,15,,,,,,,,,,,3,4.103,1,,,,,,0.143518519,-0.261111111,1,0,0,4.1033,Diorite_rect,6,0,6,0,1,
5bf6fc936c445d0001aeba98,TCN,2024-06-21_10h46.46.167,LearnStrategy,2023.2.3,Win32,59.96641881,6,2,8,,,,,,,,7,15,,,,,,,,,,,7,1.388,1,,,,,,0.152777778,-0.406481481,1,0,0,1.3875,Peridotite_rect,7,0,7,0,1,
5bf6fc936c445d0001aeba98,TCN,2024-06-21_10h46.46.167,LearnStrategy,2023.2.3,Win32,59.96641881,6,2,9,,,,,,,,2,02,,,,,,,,,,,2,1.09,1,,,,,,-0.097222222,-0.247222222,1,0,0,1.0899,Basalt_rect,8,0,8,0,1,
5bf6fc936c445d0001aeba98,TCN,2024-06-21_10h46.46.167,LearnStrategy,2023.2.3,Win32,59.96641881,6,2,10,,,,,,,,1,16,,,,,,,,,,,1,3.427,1,,,,,,-0.369444444,-0.253703704,1,0,0,3.4271,Andesite_rect,9,0,9,0,1,
5bf6fc936c445d0001aeba98,TCN,2024-06-21_10h46.46.167,LearnStrategy,2023.2.3,Win32,59.96641881,6,2,11,,,,,,,,7,02,,,,,,,,,,,7,1.572,1,,,,,,0.142592593,-0.421296296,1,0,0,1.5715,Peridotite_rect,10,0,10,0,1,
5bf6fc936c445d0001aeba98,TCN,2024-06-21_10h46.46.167,LearnStrategy,2023.2.3,Win32,59.96641881,6,2,12,,,,,,,,5,05,,,,,,,,,,,5,1.356,1,,,,,,-0.401851852,-0.387037037,1,0,0,1.3559,Obsidian_rect,11,0,11,0,1,
5bf6fc936c445d0001aeba98,TCN,2024-06-21_10h46.46.167,LearnStrategy,2023.2.3,Win32,59.96641881,6,2,13,,,,,,,,6,07,,,,,,,,,,,6,3.213,1,,,,,,-0.122222222,-0.406481481,1,0,0,3.2128,Pegmatite_rect,12,0,12,0,1,
5bf6fc936c445d0001aeba98,TCN,2024-06-21_10h46.46.167,LearnStrategy,2023.2.3,Win32,59.96641881,6,2,14,,,,,,,,2,04,,,,,,,,,,,2,1.043,1,,,,,,-0.103703704,-0.252777778,1,0,0,1.0425,Basalt_rect,13,0,13,0,1,
5bf6fc936c445d0001aeba98,TCN,2024-06-21_10h46.46.167,LearnStrategy,2023.2.3,Win32,59.96641881,6,2,15,,,,,,,,8,14,,,,,,,,,,,8,1.127,1,,,,,,0.406481481,-0.414814815,1,0,0,1.1269,Pumice_rect,14,0,14,0,1,
5bf6fc936c445d0001aeba98,TCN,2024-06-21_10h46.46.167,LearnStrategy,2023.2.3,Win32,59.96641881,6,2,16,,,,,,,,6,09,,,,,,,,,,,7,3.85,0,,,,,,0.084259259,-0.411111111,1,0,0,3.8497,Peridotite_rect,15,0,15,0,1,
5bf6fc936c445d0001aeba98,TCN,2024-06-21_10h46.46.167,LearnStrategy,2023.2.3,Win32,59.96641881,7,1,1,0.00462963,0.002777778,1,0,0,32.5279,rock_grid_rect_2,5,09,-1,-1,32.528,-0.388888889,-0.39537037,1,0,0,1.5119,Obsidian_rect,5,1.512,1,0,0,0,0,1,,,,,,,,,,,,,
5bf6fc936c445d0001aeba98,TCN,2024-06-21_10h46.46.167,LearnStrategy,2023.2.3,Win32,59.96641881,7,1,2,0.034259259,0.008333333,1,0,0,1.1294,rock_grid_rect_2,5,08,-1,-1,1.129,-0.417592593,-0.410185185,1,0,0,2.0987,Obsidian_rect,5,2.099,1,1,0,1,0,1,,,,,,,,,,,,,
5bf6fc936c445d0001aeba98,TCN,2024-06-21_10h46.46.167,LearnStrategy,2023.2.3,Win32,59.96641881,7,1,3,-0.010185185,-0.015740741,1,0,0,2.705,rock_grid_rect_2,1,07,-1,-1,2.705,-0.342592593,-0.264814815,1,0,0,4.2281,Andesite_rect,1,4.228,1,2,0,2,0,1,,,,,,,,,,,,,
5bf6fc936c445d0001aeba98,TCN,2024-06-21_10h46.46.167,LearnStrategy,2023.2.3,Win32,59.96641881,7,1,4,0.009259259,0,1,0,0,1.1329,rock_grid_rect_2,8,10,-1,-1,1.133,0.362037037,-0.414814815,1,0,0,1.2409,Pumice_rect,8,1.241,1,3,0,3,0,1,,,,,,,,,,,,,
5bf6fc936c445d0001aeba98,TCN,2024-06-21_10h46.46.167,LearnStrategy,2023.2.3,Win32,59.96641881,7,1,5,-0.018518519,-0.000925926,1,0,0,0.8829,rock_grid_rect_2,7,16,-1,-1,0.883,0.150925926,-0.410185185,1,0,0,12.9064,Peridotite_rect,7,12.906,1,4,0,4,0,1,,,,,,,,,,,,,
5bf6fc936c445d0001aeba98,TCN,2024-06-21_10h46.46.167,LearnStrategy,2023.2.3,Win32,59.96641881,7,1,6,0.037962963,0.008333333,1,0,0,1.0987,rock_grid_rect_2,3,14,-1,-1,1.099,-0.362037037,-0.242592593,1,0,0,1.982,Andesite_rect,1,1.982,0,5,0,5,0,1,,,,,,,,,,,,,
5bf6fc936c445d0001aeba98,TCN,2024-06-21_10h46.46.167,LearnStrategy,2023.2.3,Win32,59.96641881,7,1,7,0.063888889,0.017592593,1,0,0,0.7327,rock_grid_rect_2,2,12,-1,-1,0.733,-0.092592593,-0.247222222,1,0,0,1.194,Basalt_rect,2,1.194,1,6,0,6,0,1,,,,,,,,,,,,,
5bf6fc936c445d0001aeba98,TCN,2024-06-21_10h46.46.167,LearnStrategy,2023.2.3,Win32,59.96641881,7,1,8,0.062037037,0.000925926,1,0,0,0.8998,rock_grid_rect_2,6,03,-1,-1,0.9,0.146296296,-0.40462963,1,0,0,1.2992,Peridotite_rect,7,1.299,0,7,0,7,0,1,,,,,,,,,,,,,
5bf6fc936c445d0001aeba98,TCN,2024-06-21_10h46.46.167,LearnStrategy,2023.2.3,Win32,59.96641881,7,1,9,0.05462963,0.016666667,1,0,0,0.8361,rock_grid_rect_2,8,15,-1,-1,0.836,0.37962963,-0.4,1,0,0,1.8765,Pumice_rect,8,1.876,1,8,0,8,0,1,,,,,,,,,,,,,
5bf6fc936c445d0001aeba98,TCN,2024-06-21_10h46.46.167,LearnStrategy,2023.2.3,Win32,59.96641881,7,1,10,0.043518519,-0.003703704,1,0,0,1.2169,rock_grid_rect_2,7,08,-1,-1,1.217,0.130555556,-0.40462963,1,0,0,4.7155,Peridotite_rect,7,4.716,1,9,0,9,0,1,,,,,,,,,,,,,
5bf6fc936c445d0001aeba98,TCN,2024-06-21_10h46.46.167,LearnStrategy,2023.2.3,Win32,59.96641881,7,1,11,0.061111111,-0.003703704,1,0,0,0.6814,rock_grid_rect_2,6,15,-1,-1,0.681,-0.092592593,-0.401851852,1,0,0,2.0311,Pegmatite_rect,6,2.031,1,10,0,10,0,1,,,,,,,,,,,,,
5bf6fc936c445d0001aeba98,TCN,2024-06-21_10h46.46.167,LearnStrategy,2023.2.3,Win32,59.96641881,7,1,12,0.031481481,-0.002777778,1,0,0,0.7489,rock_grid_rect_2,4,03,-1,-1,0.749,0.15,-0.258333333,1,0,0,3.9327,Diorite_rect,3,3.933,0,11,0,11,0,1,,,,,,,,,,,,,
5bf6fc936c445d0001aeba98,TCN,2024-06-21_10h46.46.167,LearnStrategy,2023.2.3,Win32,59.96641881,7,1,13,0.071296296,0.008333333,1,0,0,0.7647,rock_grid_rect_2,4,11,-1,-1,0.765,0.165740741,-0.246296296,1,0,0,2.0005,Diorite_rect,3,2,0,12,0,12,0,1,,,,,,,,,,,,,
5bf6fc936c445d0001aeba98,TCN,2024-06-21_10h46.46.167,LearnStrategy,2023.2.3,Win32,59.96641881,7,1,14,0.130555556,0.016666667,1,0,0,0.6828,rock_grid_rect_2,2,16,-1,-1,0.683,-0.087962963,-0.243518519,1,0,0,1.3635,Basalt_rect,2,1.363,1,13,0,13,0,1,,,,,,,,,,,,,
5bf6fc936c445d0001aeba98,TCN,2024-06-21_10h46.46.167,LearnStrategy,2023.2.3,Win32,59.96641881,7,1,15,0.056481481,0.00462963,1,0,0,1.6608,rock_grid_rect_2,3,09,-1,-1,1.661,-0.337962963,-0.243518519,1,0,0,1.9509,Andesite_rect,1,1.951,0,14,0,14,0,1,,,,,,,,,,,,,
5bf6fc936c445d0001aeba98,TCN,2024-06-21_10h46.46.167,LearnStrategy,2023.2.3,Win32,59.96641881,7,1,16,0.049074074,0.00462963,1,0,0,0.9235,rock_grid_rect_2,1,06,-1,-1,0.923,-0.376851852,-0.253703704,1,0,0,1.9782,Andesite_rect,1,1.978,1,15,0,15,0,1,,,,,,,,,,,,,
5bf6fc936c445d0001aeba98,TCN,2024-06-21_10h46.46.167,LearnStrategy,2023.2.3,Win32,59.96641881,7,2,1,,,,,,,,5,11,,,,,,,,,,,5,1.332,1,,,,,,-0.363888889,-0.390740741,1,0,0,1.3325,Obsidian_rect,0,0,0,0,1,
5bf6fc936c445d0001aeba98,TCN,2024-06-21_10h46.46.167,LearnStrategy,2023.2.3,Win32,59.96641881,7,2,2,,,,,,,,7,12,,,,,,,,,,,1,2.228,0,,,,,,-0.380555556,-0.252777778,1,0,0,2.228,Andesite_rect,1,0,1,0,1,
5bf6fc936c445d0001aeba98,TCN,2024-06-21_10h46.46.167,LearnStrategy,2023.2.3,Win32,59.96641881,7,2,3,,,,,,,,4,12,,,,,,,,,,,4,3.5,1,,,,,,0.387037037,-0.24537037,1,0,0,3.4999,Gabbro_rect,2,0,2,0,1,
5bf6fc936c445d0001aeba98,TCN,2024-06-21_10h46.46.167,LearnStrategy,2023.2.3,Win32,59.96641881,7,2,4,,,,,,,,8,06,,,,,,,,,,,8,0.893,1,,,,,,0.387962963,-0.40462963,1,0,0,0.8928,Pumice_rect,3,0,3,0,1,
5bf6fc936c445d0001aeba98,TCN,2024-06-21_10h46.46.167,LearnStrategy,2023.2.3,Win32,59.96641881,7,2,5,,,,,,,,3,15,,,,,,,,,,,3,2.149,1,,,,,,0.183333333,-0.238888889,1,0,0,2.1487,Diorite_rect,4,0,4,0,1,
5bf6fc936c445d0001aeba98,TCN,2024-06-21_10h46.46.167,LearnStrategy,2023.2.3,Win32,59.96641881,7,2,6,,,,,,,,7,15,,,,,,,,,,,7,1.303,1,,,,,,0.157407407,-0.410185185,1,0,0,1.3025,Peridotite_rect,5,0,5,0,1,
5bf6fc936c445d0001aeba98,TCN,2024-06-21_10h46.46.167,LearnStrategy,2023.2.3,Win32,59.96641881,7,2,7,,,,,,,,2,04,,,,,,,,,,,2,1.34,1,,,,,,-0.111111111,-0.248148148,1,0,0,1.3399,Basalt_rect,6,0,6,0,1,
5bf6fc936c445d0001aeba98,TCN,2024-06-21_10h46.46.167,LearnStrategy,2023.2.3,Win32,59.96641881,7,2,8,,,,,,,,6,11,,,,,,,,,,,6,1.541,1,,,,,,-0.116666667,-0.406481481,1,0,0,1.5409,Pegmatite_rect,7,0,7,0,1,
5bf6fc936c445d0001aeba98,TCN,2024-06-21_10h46.46.167,LearnStrategy,2023.2.3,Win32,59.96641881,7,2,9,,,,,,,,5,04,,,,,,,,,,,5,0.91,1,,,,,,-0.35,-0.386111111,1,0,0,0.9098,Obsidian_rect,8,0,8,0,1,
5bf6fc936c445d0001aeba98,TCN,2024-06-21_10h46.46.167,LearnStrategy,2023.2.3,Win32,59.96641881,7,2,10,,,,,,,,4,10,,,,,,,,,,,4,3.247,1,,,,,,0.364814815,-0.247222222,1,0,0,3.2467,Gabbro_rect,9,0,9,0,1,
5bf6fc936c445d0001aeba98,TCN,2024-06-21_10h46.46.167,LearnStrategy,2023.2.3,Win32,59.96641881,7,2,11,,,,,,,,2,14,,,,,,,,,,,4,3.506,0,,,,,,0.364814815,-0.247222222,1,0,0,3.5062,Gabbro_rect,10,0,10,0,1,
5bf6fc936c445d0001aeba98,TCN,2024-06-21_10h46.46.167,LearnStrategy,2023.2.3,Win32,59.96641881,7,2,12,,,,,,,,1,04,,,,,,,,,,,1,1.974,1,,,,,,-0.349074074,-0.242592593,1,0,0,1.9739,Andesite_rect,11,0,11,0,1,
5bf6fc936c445d0001aeba98,TCN,2024-06-21_10h46.46.167,LearnStrategy,2023.2.3,Win32,59.96641881,7,2,13,,,,,,,,3,08,,,,,,,,,,,3,1.656,1,,,,,,0.148148148,-0.257407407,1,0,0,1.6562,Diorite_rect,12,0,12,0,1,
5bf6fc936c445d0001aeba98,TCN,2024-06-21_10h46.46.167,LearnStrategy,2023.2.3,Win32,59.96641881,7,2,14,,,,,,,,1,03,,,,,,,,,,,1,2.704,1,,,,,,-0.388888889,-0.238888889,1,0,0,2.7038,Andesite_rect,13,0,13,0,1,
5bf6fc936c445d0001aeba98,TCN,2024-06-21_10h46.46.167,LearnStrategy,2023.2.3,Win32,59.96641881,7,2,15,,,,,,,,6,07,,,,,,,,,,,6,1.739,1,,,,,,-0.148148148,-0.412962963,1,0,0,1.7394,Pegmatite_rect,14,0,14,0,1,
5bf6fc936c445d0001aeba98,TCN,2024-06-21_10h46.46.167,LearnStrategy,2023.2.3,Win32,59.96641881,7,2,16,,,,,,,,8,03,,,,,,,,,,,8,1.199,1,,,,,,0.371296296,-0.410185185,1,0,0,1.1992,Pumice_rect,15,0,15,0,1,
5bf6fc936c445d0001aeba98,TCN,2024-06-21_10h46.46.167,LearnStrategy,2023.2.3,Win32,59.96641881,8,1,1,0.013888889,0.006481481,1,0,0,1.0351,rock_grid_rect_2,5,12,-1,-1,1.035,-0.366666667,-0.418518519,1,0,0,2.6985,Obsidian_rect,5,2.698,1,0,0,0,0,1,,,,,,,,,,,,,
5bf6fc936c445d0001aeba98,TCN,2024-06-21_10h46.46.167,LearnStrategy,2023.2.3,Win32,59.96641881,8,1,2,0.043518519,-0.009259259,1,0,0,1.2665,rock_grid_rect_2,1,05,-1,-1,1.267,-0.382407407,-0.262037037,1,0,0,4.1804,Andesite_rect,1,4.18,1,1,0,1,0,1,,,,,,,,,,,,,
5bf6fc936c445d0001aeba98,TCN,2024-06-21_10h46.46.167,LearnStrategy,2023.2.3,Win32,59.96641881,8,1,3,0.057407407,0.000925926,1,0,0,0.6826,rock_grid_rect_2,6,10,-1,-1,0.683,-0.099074074,-0.398148148,1,0,0,1.2878,Pegmatite_rect,6,1.288,1,2,0,2,0,1,,,,,,,,,,,,,
5bf6fc936c445d0001aeba98,TCN,2024-06-21_10h46.46.167,LearnStrategy,2023.2.3,Win32,59.96641881,8,1,4,0.046296296,0.008333333,1,0,0,0.8253,rock_grid_rect_2,4,14,-1,-1,0.825,0.408333333,-0.262962963,1,0,0,1.8167,Gabbro_rect,4,1.817,1,3,0,3,0,1,,,,,,,,,,,,,
5bf6fc936c445d0001aeba98,TCN,2024-06-21_10h46.46.167,LearnStrategy,2023.2.3,Win32,59.96641881,8,1,5,0.062037037,-0.010185185,1,0,0,0.8365,rock_grid_rect_2,5,14,-1,-1,0.837,-0.407407407,-0.412037037,1,0,0,1.1013,Obsidian_rect,5,1.101,1,4,0,4,0,1,,,,,,,,,,,,,
5bf6fc936c445d0001aeba98,TCN,2024-06-21_10h46.46.167,LearnStrategy,2023.2.3,Win32,59.96641881,8,1,6,0.04537037,-0.010185185,1,0,0,1.0663,rock_grid_rect_2,7,07,-1,-1,1.066,0.109259259,-0.401851852,1,0,0,3.2082,Peridotite_rect,7,3.208,1,5,0,5,0,1,,,,,,,,,,,,,
5bf6fc936c445d0001aeba98,TCN,2024-06-21_10h46.46.167,LearnStrategy,2023.2.3,Win32,59.96641881,8,1,7,0.065740741,-0.006481481,1,0,0,0.7653,rock_grid_rect_2,7,06,-1,-1,0.765,0.102777778,-0.37962963,1,0,0,1.4113,Peridotite_rect,7,1.411,1,6,0,6,0,1,,,,,,,,,,,,,
5bf6fc936c445d0001aeba98,TCN,2024-06-21_10h46.46.167,LearnStrategy,2023.2.3,Win32,59.96641881,8,1,8,0.097222222,-0.018518519,1,0,0,0.7334,rock_grid_rect_2,2,08,-1,-1,0.733,-0.09537037,-0.238888889,1,0,0,1.0541,Basalt_rect,2,1.054,1,7,0,7,0,1,,,,,,,,,,,,,
5bf6fc936c445d0001aeba98,TCN,2024-06-21_10h46.46.167,LearnStrategy,2023.2.3,Win32,59.96641881,8,1,9,0.067592593,0.005555556,1,0,0,0.7989,rock_grid_rect_2,3,02,-1,-1,0.799,0.121296296,-0.250925926,1,0,0,1.4348,Diorite_rect,3,1.435,1,8,0,8,0,1,,,,,,,,,,,,,
5bf6fc936c445d0001aeba98,TCN,2024-06-21_10h46.46.167,LearnStrategy,2023.2.3,Win32,59.96641881,8,1,10,0.059259259,-0.017592593,1,0,0,0.8192,rock_grid_rect_2,8,09,-1,-1,0.819,0.349074074,-0.396296296,1,0,0,1.36,Pumice_rect,8,1.36,1,9,0,9,0,1,,,,,,,,,,,,,
5bf6fc936c445d0001aeba98,TCN,2024-06-21_10h46.46.167,LearnStrategy,2023.2.3,Win32,59.96641881,8,1,11,0.018518519,0.007407407,1,0,0,0.8334,rock_grid_rect_2,6,13,-1,-1,0.833,-0.117592593,-0.392592593,1,0,0,3.4872,Pegmatite_rect,6,3.487,1,10,0,10,0,1,,,,,,,,,,,,,
5bf6fc936c445d0001aeba98,TCN,2024-06-21_10h46.46.167,LearnStrategy,2023.2.3,Win32,59.96641881,8,1,12,-0.05462963,0.005555556,1,0,0,0.8462,rock_grid_rect_2,3,11,-1,-1,0.846,0.137037037,-0.244444444,1,0,0,1.7119,Diorite_rect,3,1.712,1,11,0,11,0,1,,,,,,,,,,,,,
5bf6fc936c445d0001aeba98,TCN,2024-06-21_10h46.46.167,LearnStrategy,2023.2.3,Win32,59.96641881,8,1,13,0.025,-0.02037037,1,0,0,0.7332,rock_grid_rect_2,2,11,-1,-1,0.733,-0.141666667,-0.232407407,1,0,0,2.0648,Basalt_rect,2,2.065,1,12,0,12,0,1,,,,,,,,,,,,,
5bf6fc936c445d0001aeba98,TCN,2024-06-21_10h46.46.167,LearnStrategy,2023.2.3,Win32,59.96641881,8,1,14,0.001851852,-0.014814815,1,0,0,0.7366,rock_grid_rect_2,8,16,-1,-1,0.737,0.358333333,-0.413888889,1,0,0,1.5928,Pumice_rect,8,1.593,1,13,0,13,0,1,,,,,,,,,,,,,
5bf6fc936c445d0001aeba98,TCN,2024-06-21_10h46.46.167,LearnStrategy,2023.2.3,Win32,59.96641881,8,1,15,0.013888889,-0.013888889,1,0,0,0.7878,rock_grid_rect_2,4,08,-1,-1,0.788,0.392592593,-0.242592593,1,0,0,5.3698,Gabbro_rect,4,5.37,1,14,0,14,0,1,,,,,,,,,,,,,
5bf6fc936c445d0001aeba98,TCN,2024-06-21_10h46.46.167,LearnStrategy,2023.2.3,Win32,59.96641881,8,1,16,0.037962963,0.002777778,1,0,0,1.083,rock_grid_rect_2,1,01,-1,-1,1.083,-0.375925926,-0.256481481,1,0,0,4.2966,Andesite_rect,1,4.297,1,15,0,15,0,1,,,,,,,,,,,,,
5bf6fc936c445d0001aeba98,TCN,2024-06-21_10h46.46.167,LearnStrategy,2023.2.3,Win32,59.96641881,8,2,1,,,,,,,,3,07,,,,,,,,,,,3,3.433,1,,,,,,0.099074074,-0.262037037,1,0,0,3.4325,Diorite_rect,0,0,0,0,1,
5bf6fc936c445d0001aeba98,TCN,2024-06-21_10h46.46.167,LearnStrategy,2023.2.3,Win32,59.96641881,8,2,2,,,,,,,,2,02,,,,,,,,,,,2,0.914,1,,,,,,-0.144444444,-0.249074074,1,0,0,0.9137,Basalt_rect,1,0,1,0,1,
5bf6fc936c445d0001aeba98,TCN,2024-06-21_10h46.46.167,LearnStrategy,2023.2.3,Win32,59.96641881,8,2,3,,,,,,,,6,09,,,,,,,,,,,6,2.192,1,,,,,,-0.109259259,-0.408333333,1,0,0,2.1923,Pegmatite_rect,2,0,2,0,1,
5bf6fc936c445d0001aeba98,TCN,2024-06-21_10h46.46.167,LearnStrategy,2023.2.3,Win32,59.96641881,8,2,4,,,,,,,,4,09,,,,,,,,,,,4,6.215,1,,,,,,0.394444444,-0.260185185,1,0,0,6.2154,Gabbro_rect,3,0,3,0,1,
5bf6fc936c445d0001aeba98,TCN,2024-06-21_10h46.46.167,LearnStrategy,2023.2.3,Win32,59.96641881,8,2,5,,,,,,,,5,16,,,,,,,,,,,5,1.238,1,,,,,,-0.399074074,-0.415740741,1,0,0,1.2382,Obsidian_rect,4,0,4,0,1,
5bf6fc936c445d0001aeba98,TCN,2024-06-21_10h46.46.167,LearnStrategy,2023.2.3,Win32,59.96641881,8,2,6,,,,,,,,1,09,,,,,,,,,,,1,1.984,1,,,,,,-0.394444444,-0.251851852,1,0,0,1.984,Andesite_rect,5,0,5,0,1,
5bf6fc936c445d0001aeba98,TCN,2024-06-21_10h46.46.167,LearnStrategy,2023.2.3,Win32,59.96641881,8,2,7,,,,,,,,7,13,,,,,,,,,,,7,1.542,1,,,,,,0.099074074,-0.412962963,1,0,0,1.5423,Peridotite_rect,6,0,6,0,1,
5bf6fc936c445d0001aeba98,TCN,2024-06-21_10h46.46.167,LearnStrategy,2023.2.3,Win32,59.96641881,8,2,8,,,,,,,,4,15,,,,,,,,,,,1,4.765,0,,,,,,-0.381481481,-0.247222222,1,0,0,4.7648,Andesite_rect,7,0,7,0,1,
5bf6fc936c445d0001aeba98,TCN,2024-06-21_10h46.46.167,LearnStrategy,2023.2.3,Win32,59.96641881,8,2,9,,,,,,,,1,16,,,,,,,,,,,1,1.138,1,,,,,,-0.357407407,-0.250925926,1,0,0,1.1381,Andesite_rect,8,0,8,0,1,
5bf6fc936c445d0001aeba98,TCN,2024-06-21_10h46.46.167,LearnStrategy,2023.2.3,Win32,59.96641881,8,2,10,,,,,,,,8,14,,,,,,,,,,,8,1.312,1,,,,,,0.391666667,-0.405555556,1,0,0,1.3121,Pumice_rect,9,0,9,0,1,
5bf6fc936c445d0001aeba98,TCN,2024-06-21_10h46.46.167,LearnStrategy,2023.2.3,Win32,59.96641881,8,2,11,,,,,,,,7,02,,,,,,,,,,,7,2.115,1,,,,,,0.105555556,-0.4,1,0,0,2.1146,Peridotite_rect,10,0,10,0,1,
5bf6fc936c445d0001aeba98,TCN,2024-06-21_10h46.46.167,LearnStrategy,2023.2.3,Win32,59.96641881,8,2,12,,,,,,,,3,06,,,,,,,,,,,3,1.29,1,,,,,,0.142592593,-0.233333333,1,0,0,1.2898,Diorite_rect,11,0,11,0,1,
5bf6fc936c445d0001aeba98,TCN,2024-06-21_10h46.46.167,LearnStrategy,2023.2.3,Win32,59.96641881,8,2,13,,,,,,,,8,13,,,,,,,,,,,8,1.429,1,,,,,,0.407407407,-0.4,1,0,0,1.4288,Pumice_rect,12,0,12,0,1,
5bf6fc936c445d0001aeba98,TCN,2024-06-21_10h46.46.167,LearnStrategy,2023.2.3,Win32,59.96641881,8,2,14,,,,,,,,5,05,,,,,,,,,,,5,1.671,1,,,,,,-0.362037037,-0.405555556,1,0,0,1.6706,Obsidian_rect,13,0,13,0,1,
5bf6fc936c445d0001aeba98,TCN,2024-06-21_10h46.46.167,LearnStrategy,2023.2.3,Win32,59.96641881,8,2,15,,,,,,,,6,16,,,,,,,,,,,6,1.702,1,,,,,,-0.178703704,-0.392592593,1,0,0,1.7025,Pegmatite_rect,14,0,14,0,1,
5bf6fc936c445d0001aeba98,TCN,2024-06-21_10h46.46.167,LearnStrategy,2023.2.3,Win32,59.96641881,8,2,16,,,,,,,,2,09,,,,,,,,,,,2,1.028,1,,,,,,-0.148148148,-0.271296296,1,0,0,1.0276,Basalt_rect,15,0,15,0,1,
5bf6fc936c445d0001aeba98,TCN,2024-06-21_10h46.46.167,LearnStrategy,2023.2.3,Win32,59.96641881,9,1,1,0.037037037,-0.006481481,1,0,0,0.9703,rock_grid_rect_2,6,05,-1,-1,0.97,0.407407407,-0.255555556,1,0,0,3.3305,Gabbro_rect,4,3.331,0,0,0,0,0,1,,,,,,,,,,,,,
5bf6fc936c445d0001aeba98,TCN,2024-06-21_10h46.46.167,LearnStrategy,2023.2.3,Win32,59.96641881,9,1,2,-0.001851852,-0.009259259,1,0,0,0.8777,rock_grid_rect_2,1,10,-1,-1,0.878,-0.375925926,-0.250925926,1,0,0,5.4821,Andesite_rect,1,5.482,1,1,0,1,0,1,,,,,,,,,,,,,
5bf6fc936c445d0001aeba98,TCN,2024-06-21_10h46.46.167,LearnStrategy,2023.2.3,Win32,59.96641881,9,1,3,0.040740741,-0.015740741,1,0,0,0.8821,rock_grid_rect_2,7,14,-1,-1,0.882,0.130555556,-0.418518519,1,0,0,1.9622,Peridotite_rect,7,1.962,1,2,0,2,0,1,,,,,,,,,,,,,
5bf6fc936c445d0001aeba98,TCN,2024-06-21_10h46.46.167,LearnStrategy,2023.2.3,Win32,59.96641881,9,1,4,0.062037037,0.007407407,1,0,0,0.6661,rock_grid_rect_2,3,10,-1,-1,0.666,0.15,-0.248148148,1,0,0,1.4376,Diorite_rect,3,1.438,1,3,0,3,0,1,,,,,,,,,,,,,
5bf6fc936c445d0001aeba98,TCN,2024-06-21_10h46.46.167,LearnStrategy,2023.2.3,Win32,59.96641881,9,1,5,0.051851852,-0.000925926,1,0,0,0.987,rock_grid_rect_2,4,13,-1,-1,0.987,0.360185185,-0.237037037,1,0,0,3.4937,Gabbro_rect,4,3.494,1,4,0,4,0,1,,,,,,,,,,,,,
5bf6fc936c445d0001aeba98,TCN,2024-06-21_10h46.46.167,LearnStrategy,2023.2.3,Win32,59.96641881,9,1,6,0.028703704,0.012037037,1,0,0,0.6656,rock_grid_rect_2,6,12,-1,-1,0.666,-0.126851852,-0.394444444,1,0,0,2.6962,Pegmatite_rect,6,2.696,1,5,0,5,0,1,,,,,,,,,,,,,
5bf6fc936c445d0001aeba98,TCN,2024-06-21_10h46.46.167,LearnStrategy,2023.2.3,Win32,59.96641881,9,1,7,0.002777778,0.005555556,1,0,0,0.7324,rock_grid_rect_2,1,14,-1,-1,0.732,-0.371296296,-0.262037037,1,0,0,2.8465,Andesite_rect,1,2.846,1,6,0,6,0,1,,,,,,,,,,,,,
5bf6fc936c445d0001aeba98,TCN,2024-06-21_10h46.46.167,LearnStrategy,2023.2.3,Win32,59.96641881,9,1,8,0.033333333,-0.009259259,1,0,0,0.8654,rock_grid_rect_2,7,04,-1,-1,0.865,0.130555556,-0.37962963,1,0,0,1.6504,Peridotite_rect,7,1.65,1,7,0,7,0,1,,,,,,,,,,,,,
5bf6fc936c445d0001aeba98,TCN,2024-06-21_10h46.46.167,LearnStrategy,2023.2.3,Win32,59.96641881,9,1,9,-0.007407407,-0.011111111,1,0,0,0.7128,rock_grid_rect_2,4,01,-1,-1,0.713,0.393518519,-0.261111111,1,0,0,2.1232,Gabbro_rect,4,2.123,1,8,0,8,0,1,,,,,,,,,,,,,
5bf6fc936c445d0001aeba98,TCN,2024-06-21_10h46.46.167,LearnStrategy,2023.2.3,Win32,59.96641881,9,1,10,0,-0.012037037,1,0,0,0.6823,rock_grid_rect_2,5,10,-1,-1,0.682,-0.398148148,-0.402777778,1,0,0,1.2445,Obsidian_rect,5,1.245,1,9,0,9,0,1,,,,,,,,,,,,,
5bf6fc936c445d0001aeba98,TCN,2024-06-21_10h46.46.167,LearnStrategy,2023.2.3,Win32,59.96641881,9,1,11,0.012962963,0.002777778,1,0,0,0.8827,rock_grid_rect_2,2,05,-1,-1,0.883,-0.111111111,-0.252777778,1,0,0,1.1285,Basalt_rect,2,1.129,1,10,0,10,0,1,,,,,,,,,,,,,
5bf6fc936c445d0001aeba98,TCN,2024-06-21_10h46.46.167,LearnStrategy,2023.2.3,Win32,59.96641881,9,1,12,0.018518519,-0.000925926,1,0,0,0.7493,rock_grid_rect_2,5,02,-1,-1,0.749,-0.369444444,-0.397222222,1,0,0,1.0946,Obsidian_rect,5,1.095,1,11,0,11,0,1,,,,,,,,,,,,,
5bf6fc936c445d0001aeba98,TCN,2024-06-21_10h46.46.167,LearnStrategy,2023.2.3,Win32,59.96641881,9,1,13,-0.007407407,0.000925926,1,0,0,0.8717,rock_grid_rect_2,3,16,-1,-1,0.872,0.126851852,-0.24537037,1,0,0,1.9923,Diorite_rect,3,1.992,1,12,0,12,0,1,,,,,,,,,,,,,
5bf6fc936c445d0001aeba98,TCN,2024-06-21_10h46.46.167,LearnStrategy,2023.2.3,Win32,59.96641881,9,1,14,0.006481481,-0.007407407,1,0,0,0.7492,rock_grid_rect_2,2,06,-1,-1,0.749,-0.147222222,-0.237037037,1,0,0,1.032,Basalt_rect,2,1.032,1,13,0,13,0,1,,,,,,,,,,,,,
5bf6fc936c445d0001aeba98,TCN,2024-06-21_10h46.46.167,LearnStrategy,2023.2.3,Win32,59.96641881,9,1,15,-0.074074074,0.002777778,1,0,0,0.8028,rock_grid_rect_2,8,08,-1,-1,0.803,0.387037037,-0.406481481,1,0,0,1.2638,Pumice_rect,8,1.264,1,14,0,14,0,1,,,,,,,,,,,,,
5bf6fc936c445d0001aeba98,TCN,2024-06-21_10h46.46.167,LearnStrategy,2023.2.3,Win32,59.96641881,9,1,16,0.013888889,0.017592593,1,0,0,0.7163,rock_grid_rect_2,8,05,-1,-1,0.716,0.414814815,-0.42037037,1,0,0,1.529,Pumice_rect,8,1.529,1,15,0,15,0,1,,,,,,,,,,,,,
5bf6fc936c445d0001aeba98,TCN,2024-06-21_10h46.46.167,LearnStrategy,2023.2.3,Win32,59.96641881,9,2,1,,,,,,,,4,05,,,,,,,,,,,4,4.032,1,,,,,,0.365740741,-0.237037037,1,0,0,4.0318,Gabbro_rect,0,0,0,0,1,
5bf6fc936c445d0001aeba98,TCN,2024-06-21_10h46.46.167,LearnStrategy,2023.2.3,Win32,59.96641881,9,2,2,,,,,,,,3,13,,,,,,,,,,,3,1.055,1,,,,,,0.128703704,-0.253703704,1,0,0,1.0545,Diorite_rect,1,0,1,0,1,
5bf6fc936c445d0001aeba98,TCN,2024-06-21_10h46.46.167,LearnStrategy,2023.2.3,Win32,59.96641881,9,2,3,,,,,,,,1,02,,,,,,,,,,,1,6.53,1,,,,,,-0.367592593,-0.255555556,1,0,0,6.5301,Andesite_rect,2,0,2,0,1,
5bf6fc936c445d0001aeba98,TCN,2024-06-21_10h46.46.167,LearnStrategy,2023.2.3,Win32,59.96641881,9,2,4,,,,,,,,8,04,,,,,,,,,,,8,1.234,1,,,,,,0.392592593,-0.413888889,1,0,0,1.2343,Pumice_rect,3,0,3,0,1,
5bf6fc936c445d0001aeba98,TCN,2024-06-21_10h46.46.167,LearnStrategy,2023.2.3,Win32,59.96641881,9,2,5,,,,,,,,1,11,,,,,,,,,,,1,2.694,1,,,,,,-0.352777778,-0.235185185,1,0,0,2.694,Andesite_rect,4,0,4,0,1,
5bf6fc936c445d0001aeba98,TCN,2024-06-21_10h46.46.167,LearnStrategy,2023.2.3,Win32,59.96641881,9,2,6,,,,,,,,2,10,,,,,,,,,,,2,0.851,1,,,,,,-0.12037037,-0.255555556,1,0,0,0.8513,Basalt_rect,5,0,5,0,1,
5bf6fc936c445d0001aeba98,TCN,2024-06-21_10h46.46.167,LearnStrategy,2023.2.3,Win32,59.96641881,9,2,7,,,,,,,,3,12,,,,,,,,,,,3,2.198,1,,,,,,0.12962963,-0.265740741,1,0,0,2.1982,Diorite_rect,6,0,6,0,1,
5bf6fc936c445d0001aeba98,TCN,2024-06-21_10h46.46.167,LearnStrategy,2023.2.3,Win32,59.96641881,9,2,8,,,,,,,,8,02,,,,,,,,,,,8,2.355,1,,,,,,0.40462963,-0.400925926,1,0,0,2.3554,Pumice_rect,7,0,7,0,1,
5bf6fc936c445d0001aeba98,TCN,2024-06-21_10h46.46.167,LearnStrategy,2023.2.3,Win32,59.96641881,9,2,9,,,,,,,,4,16,,,,,,,,,,,4,1.723,1,,,,,,0.364814815,-0.237037037,1,0,0,1.7227,Gabbro_rect,8,0,8,0,1,
5bf6fc936c445d0001aeba98,TCN,2024-06-21_10h46.46.167,LearnStrategy,2023.2.3,Win32,59.96641881,9,2,10,,,,,,,,5,06,,,,,,,,,,,5,1.212,1,,,,,,-0.405555556,-0.407407407,1,0,0,1.2124,Obsidian_rect,9,0,9,0,1,
5bf6fc936c445d0001aeba98,TCN,2024-06-21_10h46.46.167,LearnStrategy,2023.2.3,Win32,59.96641881,9,2,11,,,,,,,,2,01,,,,,,,,,,,2,1.077,1,,,,,,-0.159259259,-0.246296296,1,0,0,1.0767,Basalt_rect,10,0,10,0,1,
5bf6fc936c445d0001aeba98,TCN,2024-06-21_10h46.46.167,LearnStrategy,2023.2.3,Win32,59.96641881,9,2,12,,,,,,,,6,06,,,,,,,,,,,7,2.132,0,,,,,,0.105555556,-0.412962963,1,0,0,2.1323,Peridotite_rect,11,0,11,0,1,
5bf6fc936c445d0001aeba98,TCN,2024-06-21_10h46.46.167,LearnStrategy,2023.2.3,Win32,59.96641881,9,2,13,,,,,,,,7,10,,,,,,,,,,,7,1.213,1,,,,,,0.099074074,-0.405555556,1,0,0,1.213,Peridotite_rect,12,0,12,0,1,
5bf6fc936c445d0001aeba98,TCN,2024-06-21_10h46.46.167,LearnStrategy,2023.2.3,Win32,59.96641881,9,2,14,,,,,,,,5,07,,,,,,,,,,,5,1.078,1,,,,,,-0.40462963,-0.406481481,1,0,0,1.0778,Obsidian_rect,13,0,13,0,1,
5bf6fc936c445d0001aeba98,TCN,2024-06-21_10h46.46.167,LearnStrategy,2023.2.3,Win32,59.96641881,9,2,15,,,,,,,,7,05,,,,,,,,,,,7,1.603,1,,,,,,0.119444444,-0.397222222,1,0,0,1.6026,Peridotite_rect,14,0,14,0,1,
5bf6fc936c445d0001aeba98,TCN,2024-06-21_10h46.46.167,LearnStrategy,2023.2.3,Win32,59.96641881,9,2,16,,,,,,,,6,08,,,,,,,,,,,6,1.054,1,,,,,,-0.1,-0.378703704,1,0,0,1.054,Pegmatite_rect,15,0,15,0,1,
5bf6fc936c445d0001aeba98,TCN,2024-06-21_10h46.46.167,LearnStrategy,2023.2.3,Win32,59.96641881,,,,,,,,,,,,,,,,,,,,,,,,,,,,,,,,,,,,,,,,,,,1
5bf6fc936c445d0001aeba98,TCN,2024-06-21_10h46.46.167,LearnStrategy,2023.2.3,Win32,59.96641881,,,,,,,,,,,,,,,,,,,,,,,,,,,,,,,,,,,,,,,,,,,
5bf6fc936c445d0001aeba98,TCN,2024-06-21_10h46.46.167,LearnStrategy,2023.2.3,Win32,59.96641881,,,,,,,,,,,1,07,1,1,,,,,,,,,,,,,,,,,,,,,,,,,,,,,
5bf6fc936c445d0001aeba98,TCN,2024-06-21_10h46.46.167,LearnStrategy,2023.2.3,Win32,59.96641881,,,,,,,,,,,7,07,1,2,,,,,,,,,,,,,,,,,,,,,,,,,,,,,
5bf6fc936c445d0001aeba98,TCN,2024-06-21_10h46.46.167,LearnStrategy,2023.2.3,Win32,59.96641881,,,,,,,,,,,7,16,1,3,,,,,,,,,,,,,,,,,,,,,,,,,,,,,
5bf6fc936c445d0001aeba98,TCN,2024-06-21_10h46.46.167,LearnStrategy,2023.2.3,Win32,59.96641881,,,,,,,,,,,8,10,1,4,,,,,,,,,,,,,,,,,,,,,,,,,,,,,
5bf6fc936c445d0001aeba98,TCN,2024-06-21_10h46.46.167,LearnStrategy,2023.2.3,Win32,59.96641881,,,,,,,,,,,3,11,1,5,,,,,,,,,,,,,,,,,,,,,,,,,,,,,
5bf6fc936c445d0001aeba98,TCN,2024-06-21_10h46.46.167,LearnStrategy,2023.2.3,Win32,59.96641881,,,,,,,,,,,6,12,1,6,,,,,,,,,,,,,,,,,,,,,,,,,,,,,
5bf6fc936c445d0001aeba98,TCN,2024-06-21_10h46.46.167,LearnStrategy,2023.2.3,Win32,59.96641881,,,,,,,,,,,7,06,1,7,,,,,,,,,,,,,,,,,,,,,,,,,,,,,
5bf6fc936c445d0001aeba98,TCN,2024-06-21_10h46.46.167,LearnStrategy,2023.2.3,Win32,59.96641881,,,,,,,,,,,6,15,1,8,,,,,,,,,,,,,,,,,,,,,,,,,,,,,
5bf6fc936c445d0001aeba98,TCN,2024-06-21_10h46.46.167,LearnStrategy,2023.2.3,Win32,59.96641881,,,,,,,,,,,7,04,2,1,,,,,,,,,,,,,,,,,,,,,,,,,,,,,
5bf6fc936c445d0001aeba98,TCN,2024-06-21_10h46.46.167,LearnStrategy,2023.2.3,Win32,59.96641881,,,,,,,,,,,6,03,2,2,,,,,,,,,,,,,,,,,,,,,,,,,,,,,
5bf6fc936c445d0001aeba98,TCN,2024-06-21_10h46.46.167,LearnStrategy,2023.2.3,Win32,59.96641881,,,,,,,,,,,5,09,2,3,,,,,,,,,,,,,,,,,,,,,,,,,,,,,
5bf6fc936c445d0001aeba98,TCN,2024-06-21_10h46.46.167,LearnStrategy,2023.2.3,Win32,59.96641881,,,,,,,,,,,1,01,2,4,,,,,,,,,,,,,,,,,,,,,,,,,,,,,
5bf6fc936c445d0001aeba98,TCN,2024-06-21_10h46.46.167,LearnStrategy,2023.2.3,Win32,59.96641881,,,,,,,,,,,1,14,2,5,,,,,,,,,,,,,,,,,,,,,,,,,,,,,
5bf6fc936c445d0001aeba98,TCN,2024-06-21_10h46.46.167,LearnStrategy,2023.2.3,Win32,59.96641881,,,,,,,,,,,4,01,2,6,,,,,,,,,,,,,,,,,,,,,,,,,,,,,
5bf6fc936c445d0001aeba98,TCN,2024-06-21_10h46.46.167,LearnStrategy,2023.2.3,Win32,59.96641881,,,,,,,,,,,2,08,2,7,,,,,,,,,,,,,,,,,,,,,,,,,,,,,
5bf6fc936c445d0001aeba98,TCN,2024-06-21_10h46.46.167,LearnStrategy,2023.2.3,Win32,59.96641881,,,,,,,,,,,1,10,2,8,,,,,,,,,,,,,,,,,,,,,,,,,,,,,
5bf6fc936c445d0001aeba98,TCN,2024-06-21_10h46.46.167,LearnStrategy,2023.2.3,Win32,59.96641881,,,,,,,,,,,4,08,3,1,,,,,,,,,,,,,,,,,,,,,,,,,,,,,
5bf6fc936c445d0001aeba98,TCN,2024-06-21_10h46.46.167,LearnStrategy,2023.2.3,Win32,59.96641881,,,,,,,,,,,5,02,3,2,,,,,,,,,,,,,,,,,,,,,,,,,,,,,
5bf6fc936c445d0001aeba98,TCN,2024-06-21_10h46.46.167,LearnStrategy,2023.2.3,Win32,59.96641881,,,,,,,,,,,3,02,3,3,,,,,,,,,,,,,,,,,,,,,,,,,,,,,
5bf6fc936c445d0001aeba98,TCN,2024-06-21_10h46.46.167,LearnStrategy,2023.2.3,Win32,59.96641881,,,,,,,,,,,8,05,3,4,,,,,,,,,,,,,,,,,,,,,,,,,,,,,
5bf6fc936c445d0001aeba98,TCN,2024-06-21_10h46.46.167,LearnStrategy,2023.2.3,Win32,59.96641881,,,,,,,,,,,4,13,3,5,,,,,,,,,,,,,,,,,,,,,,,,,,,,,
5bf6fc936c445d0001aeba98,TCN,2024-06-21_10h46.46.167,LearnStrategy,2023.2.3,Win32,59.96641881,,,,,,,,,,,4,03,3,6,,,,,,,,,,,,,,,,,,,,,,,,,,,,,
5bf6fc936c445d0001aeba98,TCN,2024-06-21_10h46.46.167,LearnStrategy,2023.2.3,Win32,59.96641881,,,,,,,,,,,1,06,3,7,,,,,,,,,,,,,,,,,,,,,,,,,,,,,
5bf6fc936c445d0001aeba98,TCN,2024-06-21_10h46.46.167,LearnStrategy,2023.2.3,Win32,59.96641881,,,,,,,,,,,2,12,3,8,,,,,,,,,,,,,,,,,,,,,,,,,,,,,
5bf6fc936c445d0001aeba98,TCN,2024-06-21_10h46.46.167,LearnStrategy,2023.2.3,Win32,59.96641881,,,,,,,,,,,1,05,4,1,,,,,,,,,,,,,,,,,,,,,,,,,,,,,
5bf6fc936c445d0001aeba98,TCN,2024-06-21_10h46.46.167,LearnStrategy,2023.2.3,Win32,59.96641881,,,,,,,,,,,2,11,4,2,,,,,,,,,,,,,,,,,,,,,,,,,,,,,
5bf6fc936c445d0001aeba98,TCN,2024-06-21_10h46.46.167,LearnStrategy,2023.2.3,Win32,59.96641881,,,,,,,,,,,8,08,4,3,,,,,,,,,,,,,,,,,,,,,,,,,,,,,
5bf6fc936c445d0001aeba98,TCN,2024-06-21_10h46.46.167,LearnStrategy,2023.2.3,Win32,59.96641881,,,,,,,,,,,8,09,4,4,,,,,,,,,,,,,,,,,,,,,,,,,,,,,
5bf6fc936c445d0001aeba98,TCN,2024-06-21_10h46.46.167,LearnStrategy,2023.2.3,Win32,59.96641881,,,,,,,,,,,5,12,4,5,,,,,,,,,,,,,,,,,,,,,,,,,,,,,
5bf6fc936c445d0001aeba98,TCN,2024-06-21_10h46.46.167,LearnStrategy,2023.2.3,Win32,59.96641881,,,,,,,,,,,3,10,4,6,,,,,,,,,,,,,,,,,,,,,,,,,,,,,
5bf6fc936c445d0001aeba98,TCN,2024-06-21_10h46.46.167,LearnStrategy,2023.2.3,Win32,59.96641881,,,,,,,,,,,2,06,4,7,,,,,,,,,,,,,,,,,,,,,,,,,,,,,
5bf6fc936c445d0001aeba98,TCN,2024-06-21_10h46.46.167,LearnStrategy,2023.2.3,Win32,59.96641881,,,,,,,,,,,5,08,4,8,,,,,,,,,,,,,,,,,,,,,,,,,,,,,
5bf6fc936c445d0001aeba98,TCN,2024-06-21_10h46.46.167,LearnStrategy,2023.2.3,Win32,59.96641881,,,,,,,,,,,6,05,5,1,,,,,,,,,,,,,,,,,,,,,,,,,,,,,
5bf6fc936c445d0001aeba98,TCN,2024-06-21_10h46.46.167,LearnStrategy,2023.2.3,Win32,59.96641881,,,,,,,,,,,5,10,5,2,,,,,,,,,,,,,,,,,,,,,,,,,,,,,
5bf6fc936c445d0001aeba98,TCN,2024-06-21_10h46.46.167,LearnStrategy,2023.2.3,Win32,59.96641881,,,,,,,,,,,8,15,5,3,,,,,,,,,,,,,,,,,,,,,,,,,,,,,
5bf6fc936c445d0001aeba98,TCN,2024-06-21_10h46.46.167,LearnStrategy,2023.2.3,Win32,59.96641881,,,,,,,,,,,3,14,5,4,,,,,,,,,,,,,,,,,,,,,,,,,,,,,
5bf6fc936c445d0001aeba98,TCN,2024-06-21_10h46.46.167,LearnStrategy,2023.2.3,Win32,59.96641881,,,,,,,,,,,4,14,5,5,,,,,,,,,,,,,,,,,,,,,,,,,,,,,
5bf6fc936c445d0001aeba98,TCN,2024-06-21_10h46.46.167,LearnStrategy,2023.2.3,Win32,59.96641881,,,,,,,,,,,7,08,5,6,,,,,,,,,,,,,,,,,,,,,,,,,,,,,
5bf6fc936c445d0001aeba98,TCN,2024-06-21_10h46.46.167,LearnStrategy,2023.2.3,Win32,59.96641881,,,,,,,,,,,6,13,5,7,,,,,,,,,,,,,,,,,,,,,,,,,,,,,
5bf6fc936c445d0001aeba98,TCN,2024-06-21_10h46.46.167,LearnStrategy,2023.2.3,Win32,59.96641881,,,,,,,,,,,4,11,5,8,,,,,,,,,,,,,,,,,,,,,,,,,,,,,
5bf6fc936c445d0001aeba98,TCN,2024-06-21_10h46.46.167,LearnStrategy,2023.2.3,Win32,59.96641881,,,,,,,,,,,8,16,6,1,,,,,,,,,,,,,,,,,,,,,,,,,,,,,
5bf6fc936c445d0001aeba98,TCN,2024-06-21_10h46.46.167,LearnStrategy,2023.2.3,Win32,59.96641881,,,,,,,,,,,7,14,6,2,,,,,,,,,,,,,,,,,,,,,,,,,,,,,
5bf6fc936c445d0001aeba98,TCN,2024-06-21_10h46.46.167,LearnStrategy,2023.2.3,Win32,59.96641881,,,,,,,,,,,3,09,6,3,,,,,,,,,,,,,,,,,,,,,,,,,,,,,
5bf6fc936c445d0001aeba98,TCN,2024-06-21_10h46.46.167,LearnStrategy,2023.2.3,Win32,59.96641881,,,,,,,,,,,3,16,6,4,,,,,,,,,,,,,,,,,,,,,,,,,,,,,
5bf6fc936c445d0001aeba98,TCN,2024-06-21_10h46.46.167,LearnStrategy,2023.2.3,Win32,59.96641881,,,,,,,,,,,6,10,6,5,,,,,,,,,,,,,,,,,,,,,,,,,,,,,
5bf6fc936c445d0001aeba98,TCN,2024-06-21_10h46.46.167,LearnStrategy,2023.2.3,Win32,59.96641881,,,,,,,,,,,2,16,6,6,,,,,,,,,,,,,,,,,,,,,,,,,,,,,
5bf6fc936c445d0001aeba98,TCN,2024-06-21_10h46.46.167,LearnStrategy,2023.2.3,Win32,59.96641881,,,,,,,,,,,2,05,6,7,,,,,,,,,,,,,,,,,,,,,,,,,,,,,
5bf6fc936c445d0001aeba98,TCN,2024-06-21_10h46.46.167,LearnStrategy,2023.2.3,Win32,59.96641881,,,,,,,,,,,5,14,6,8,,,,,,,,,,,,,,,,,,,,,,,,,,,,,