participant,condition,date,expName,psychopyVersion,OS,frameRate,block,phase,trial,learn_mouse.x,learn_mouse.y,learn_mouse.leftButton,learn_mouse.midButton,learn_mouse.rightButton,learn_mouse.time,learn_mouse.clicked_name,cat,token,row,col,t_select,cat_mouse_l.x,cat_mouse_l.y,cat_mouse_l.leftButton,cat_mouse_l.midButton,cat_mouse_l.rightButton,cat_mouse_l.time,cat_mouse_l.clicked_name,resp,t_resp,corr,train_trials.thisRepN,train_trials.thisTrialN,train_trials.thisN,train_trials.thisIndex,train_trials.ran,cat_mouse_t.x,cat_mouse_t.y,cat_mouse_t.leftButton,cat_mouse_t.midButton,cat_mouse_t.rightButton,cat_mouse_t.time,cat_mouse_t.clicked_name,test_trials.thisRepN,test_trials.thisTrialN,test_trials.thisN,test_trials.thisIndex,test_trials.ran,Bonus
5c01d3c509e9c70001500b10,SCN,2024-06-21_14h07.14.160,LearnStrategy,2023.2.3,Win32,60.0240096,,,,,,,,,,,,,,,,,,,,,,,,,,,,,,,,,,,,,,,,,,,
5c01d3c509e9c70001500b10,SCN,2024-06-21_14h07.14.160,LearnStrategy,2023.2.3,Win32,60.0240096,1,1,1,0.282222222,0.113333333,1,0,0,4.548,Diorite_14,3,14,4,6,4.548,-0.118888889,-0.25,1,0,0,4.096,Basalt_rect,2,4.096,0,0,0,0,0,1,,,,,,,,,,,,,
5c01d3c509e9c70001500b10,SCN,2024-06-21_14h07.14.160,LearnStrategy,2023.2.3,Win32,60.0240096,1,1,2,0.406666667,-0.407777778,1,0,0,4.696,Obsidian_04,5,04,1,7,4.696,-0.17,-0.243333333,1,0,0,4.17,Basalt_rect,2,4.17,0,1,0,1,0,1,,,,,,,,,,,,,
5c01d3c509e9c70001500b10,SCN,2024-06-21_14h07.14.160,LearnStrategy,2023.2.3,Win32,60.0240096,1,1,3,0.231111111,0.257777778,1,0,0,4.976,Pumice_09,8,09,5,6,4.976,0.41,-0.258888889,1,0,0,1.673,Gabbro_rect,4,1.673,0,2,0,2,0,1,,,,,,,,,,,,,
5c01d3c509e9c70001500b10,SCN,2024-06-21_14h07.14.160,LearnStrategy,2023.2.3,Win32,60.0240096,1,1,4,-0.524444444,-0.257777778,1,0,0,6.774,Pegmatite_16,6,16,2,1,6.774,-0.456666667,-0.245555556,1,0,0,0.854,Andesite_rect,1,0.854,0,3,0,3,0,1,,,,,,,,,,,,,
5c01d3c509e9c70001500b10,SCN,2024-06-21_14h07.14.160,LearnStrategy,2023.2.3,Win32,60.0240096,1,1,5,-0.381111111,-0.408888889,1,0,0,4.692,Pegmatite_15,6,15,1,2,4.692,0.463333333,-0.232222222,1,0,0,3.379,Gabbro_rect,4,3.379,0,4,0,4,0,1,,,,,,,,,,,,,
5c01d3c509e9c70001500b10,SCN,2024-06-21_14h07.14.160,LearnStrategy,2023.2.3,Win32,60.0240096,1,1,6,-0.238888889,-0.416666667,1,0,0,2.494,Obsidian_10,5,10,1,3,2.494,0.361111111,-0.245555556,1,0,0,2.981,Gabbro_rect,4,2.981,0,5,0,5,0,1,,,,,,,,,,,,,
5c01d3c509e9c70001500b10,SCN,2024-06-21_14h07.14.160,LearnStrategy,2023.2.3,Win32,60.0240096,1,1,7,0.117777778,-0.274444444,1,0,0,2.929,Pumice_03,8,03,2,5,2.929,0.386666667,-0.403333333,1,0,0,1.809,Pumice_rect,8,1.809,1,6,0,6,0,1,,,,,,,,,,,,,
5c01d3c509e9c70001500b10,SCN,2024-06-21_14h07.14.160,LearnStrategy,2023.2.3,Win32,60.0240096,1,1,8,0.405555556,0.254444444,1,0,0,4.659,Obsidian_02,5,02,5,7,4.659,-0.373333333,-0.408888889,1,0,0,3.84,Obsidian_rect,5,3.84,1,7,0,7,0,1,,,,,,,,,,,,,
5c01d3c509e9c70001500b10,SCN,2024-06-21_14h07.14.160,LearnStrategy,2023.2.3,Win32,60.0240096,1,1,9,0.577777778,0.296666667,1,0,0,1.213,Obsidian_09,5,09,5,8,1.213,-0.368888889,-0.412222222,1,0,0,1.024,Obsidian_rect,5,1.024,1,8,0,8,0,1,,,,,,,,,,,,,
5c01d3c509e9c70001500b10,SCN,2024-06-21_14h07.14.160,LearnStrategy,2023.2.3,Win32,60.0240096,1,1,10,0.063333333,0.272222222,1,0,0,4.329,Obsidian_05,5,05,5,5,4.329,0.025555556,-0.397777778,1,0,0,2.728,Peridotite_rect,7,2.728,0,9,0,9,0,1,,,,,,,,,,,,,
5c01d3c509e9c70001500b10,SCN,2024-06-21_14h07.14.160,LearnStrategy,2023.2.3,Win32,60.0240096,1,1,11,0.244444444,0.246666667,1,0,0,7.44,Pumice_09,8,09,5,6,7.44,0.387777778,-0.396666667,1,0,0,1.98,Pumice_rect,8,1.98,1,10,0,10,0,1,,,,,,,,,,,,,
5c01d3c509e9c70001500b10,SCN,2024-06-21_14h07.14.160,LearnStrategy,2023.2.3,Win32,60.0240096,1,1,12,0.065555556,0.113333333,1,0,0,1.364,Diorite_02,3,02,4,5,1.364,0.408888889,-0.255555556,1,0,0,1.441,Gabbro_rect,4,1.441,0,11,0,11,0,1,,,,,,,,,,,,,
5c01d3c509e9c70001500b10,SCN,2024-06-21_14h07.14.160,LearnStrategy,2023.2.3,Win32,60.0240096,1,1,13,0.247777778,0.096666667,1,0,0,1.159,Diorite_14,3,14,4,6,1.159,0.155555556,-0.234444444,1,0,0,0.772,Diorite_rect,3,0.772,1,12,0,12,0,1,,,,,,,,,,,,,
5c01d3c509e9c70001500b10,SCN,2024-06-21_14h07.14.160,LearnStrategy,2023.2.3,Win32,60.0240096,1,1,14,-0.048888889,-0.246666667,1,0,0,3.51,Pumice_04,8,04,2,4,3.51,0.392222222,-0.386666667,1,0,0,1.434,Pumice_rect,8,1.434,1,13,0,13,0,1,,,,,,,,,,,,,
5c01d3c509e9c70001500b10,SCN,2024-06-21_14h07.14.160,LearnStrategy,2023.2.3,Win32,60.0240096,1,1,15,0.085555556,-0.398888889,1,0,0,2.847,Basalt_08,2,08,1,5,2.847,-0.388888889,-0.385555556,1,0,0,1.264,Obsidian_rect,5,1.264,0,14,0,14,0,1,,,,,,,,,,,,,
5c01d3c509e9c70001500b10,SCN,2024-06-21_14h07.14.160,LearnStrategy,2023.2.3,Win32,60.0240096,1,1,16,-0.091111111,-0.427777778,1,0,0,1.98,Basalt_10,2,10,1,4,1.98,-0.113333333,-0.251111111,1,0,0,1.092,Basalt_rect,2,1.092,1,15,0,15,0,1,,,,,,,,,,,,,
5c01d3c509e9c70001500b10,SCN,2024-06-21_14h07.14.160,LearnStrategy,2023.2.3,Win32,60.0240096,1,2,1,,,,,,,,5,07,,,,,,,,,,,5,8.134,1,,,,,,-0.423333333,-0.408888889,1,0,0,8.134,Obsidian_rect,0,0,0,0,1,
5c01d3c509e9c70001500b10,SCN,2024-06-21_14h07.14.160,LearnStrategy,2023.2.3,Win32,60.0240096,1,2,2,,,,,,,,7,06,,,,,,,,,,,3,4.503,0,,,,,,0.158888889,-0.255555556,1,0,0,4.503,Diorite_rect,1,0,1,0,1,
5c01d3c509e9c70001500b10,SCN,2024-06-21_14h07.14.160,LearnStrategy,2023.2.3,Win32,60.0240096,1,2,3,,,,,,,,8,05,,,,,,,,,,,8,1.571,1,,,,,,0.391111111,-0.403333333,1,0,0,1.571,Pumice_rect,2,0,2,0,1,
5c01d3c509e9c70001500b10,SCN,2024-06-21_14h07.14.160,LearnStrategy,2023.2.3,Win32,60.0240096,1,2,4,,,,,,,,4,08,,,,,,,,,,,2,2.113,0,,,,,,-0.13,-0.253333333,1,0,0,2.113,Basalt_rect,3,0,3,0,1,
5c01d3c509e9c70001500b10,SCN,2024-06-21_14h07.14.160,LearnStrategy,2023.2.3,Win32,60.0240096,1,2,5,,,,,,,,1,16,,,,,,,,,,,3,1.202,0,,,,,,0.148888889,-0.254444444,1,0,0,1.202,Diorite_rect,4,0,4,0,1,
5c01d3c509e9c70001500b10,SCN,2024-06-21_14h07.14.160,LearnStrategy,2023.2.3,Win32,60.0240096,1,2,6,,,,,,,,6,11,,,,,,,,,,,5,1.388,0,,,,,,-0.364444444,-0.408888889,1,0,0,1.388,Obsidian_rect,5,0,5,0,1,
5c01d3c509e9c70001500b10,SCN,2024-06-21_14h07.14.160,LearnStrategy,2023.2.3,Win32,60.0240096,1,2,7,,,,,,,,7,13,,,,,,,,,,,2,4.498,0,,,,,,-0.11,-0.257777778,1,0,0,4.498,Basalt_rect,6,0,6,0,1,
5c01d3c509e9c70001500b10,SCN,2024-06-21_14h07.14.160,LearnStrategy,2023.2.3,Win32,60.0240096,1,2,8,,,,,,,,3,07,,,,,,,,,,,3,1.176,1,,,,,,0.142222222,-0.242222222,1,0,0,1.176,Diorite_rect,7,0,7,0,1,
5c01d3c509e9c70001500b10,SCN,2024-06-21_14h07.14.160,LearnStrategy,2023.2.3,Win32,60.0240096,1,2,9,,,,,,,,5,12,,,,,,,,,,,5,2.091,1,,,,,,-0.442222222,-0.411111111,1,0,0,2.091,Obsidian_rect,8,0,8,0,1,
5c01d3c509e9c70001500b10,SCN,2024-06-21_14h07.14.160,LearnStrategy,2023.2.3,Win32,60.0240096,1,2,10,,,,,,,,1,03,,,,,,,,,,,2,2.599,0,,,,,,-0.092222222,-0.247777778,1,0,0,2.599,Basalt_rect,9,0,9,0,1,
5c01d3c509e9c70001500b10,SCN,2024-06-21_14h07.14.160,LearnStrategy,2023.2.3,Win32,60.0240096,1,2,11,,,,,,,,2,02,,,,,,,,,,,7,4.684,0,,,,,,0.095555556,-0.385555556,1,0,0,4.684,Peridotite_rect,10,0,10,0,1,
5c01d3c509e9c70001500b10,SCN,2024-06-21_14h07.14.160,LearnStrategy,2023.2.3,Win32,60.0240096,1,2,12,,,,,,,,6,13,,,,,,,,,,,3,1.667,0,,,,,,0.103333333,-0.231111111,1,0,0,1.667,Diorite_rect,11,0,11,0,1,
5c01d3c509e9c70001500b10,SCN,2024-06-21_14h07.14.160,LearnStrategy,2023.2.3,Win32,60.0240096,1,2,13,,,,,,,,3,08,,,,,,,,,,,3,1.035,1,,,,,,0.111111111,-0.24,1,0,0,1.035,Diorite_rect,12,0,12,0,1,
5c01d3c509e9c70001500b10,SCN,2024-06-21_14h07.14.160,LearnStrategy,2023.2.3,Win32,60.0240096,1,2,14,,,,,,,,8,14,,,,,,,,,,,8,1.073,1,,,,,,0.408888889,-0.413333333,1,0,0,1.073,Pumice_rect,13,0,13,0,1,
5c01d3c509e9c70001500b10,SCN,2024-06-21_14h07.14.160,LearnStrategy,2023.2.3,Win32,60.0240096,1,2,15,,,,,,,,4,15,,,,,,,,,,,6,4.391,0,,,,,,-0.101111111,-0.402222222,1,0,0,4.391,Pegmatite_rect,14,0,14,0,1,
5c01d3c509e9c70001500b10,SCN,2024-06-21_14h07.14.160,LearnStrategy,2023.2.3,Win32,60.0240096,1,2,16,,,,,,,,2,11,,,,,,,,,,,2,2.65,1,,,,,,-0.12,-0.268888889,1,0,0,2.65,Basalt_rect,15,0,15,0,1,
5c01d3c509e9c70001500b10,SCN,2024-06-21_14h07.14.160,LearnStrategy,2023.2.3,Win32,60.0240096,2,1,1,-0.235555556,-0.246666667,1,0,0,3.199,Diorite_16,3,16,2,3,3.199,0.065555556,-0.248888889,1,0,0,1.312,Diorite_rect,3,1.312,1,0,0,0,0,1,,,,,,,,,,,,,
5c01d3c509e9c70001500b10,SCN,2024-06-21_14h07.14.160,LearnStrategy,2023.2.3,Win32,60.0240096,2,1,2,-0.222222222,0.096666667,1,0,0,3.095,Pegmatite_12,6,12,4,3,3.095,0.125555556,-0.251111111,1,0,0,1.152,Diorite_rect,3,1.152,0,1,0,1,0,1,,,,,,,,,,,,,
5c01d3c509e9c70001500b10,SCN,2024-06-21_14h07.14.160,LearnStrategy,2023.2.3,Win32,60.0240096,2,1,3,0.053333333,0.396666667,1,0,0,6.308,Peridotite_16,7,16,6,5,6.308,-0.192222222,-0.263333333,1,0,0,2.019,Basalt_rect,2,2.019,0,2,0,2,0,1,,,,,,,,,,,,,
5c01d3c509e9c70001500b10,SCN,2024-06-21_14h07.14.160,LearnStrategy,2023.2.3,Win32,60.0240096,2,1,4,-0.38,0.244444444,1,0,0,1.465,Gabbro_03,4,03,5,2,1.465,0.114444444,-0.271111111,1,0,0,0.982,Diorite_rect,3,0.982,0,3,0,3,0,1,,,,,,,,,,,,,
5c01d3c509e9c70001500b10,SCN,2024-06-21_14h07.14.160,LearnStrategy,2023.2.3,Win32,60.0240096,2,1,5,-0.557777778,0.298888889,1,0,0,1.428,Andesite_11,1,11,5,1,1.428,-0.084444444,-0.246666667,1,0,0,0.979,Basalt_rect,2,0.979,0,4,0,4,0,1,,,,,,,,,,,,,
5c01d3c509e9c70001500b10,SCN,2024-06-21_14h07.14.160,LearnStrategy,2023.2.3,Win32,60.0240096,2,1,6,-0.562222222,0.401111111,1,0,0,1.062,Andesite_04,1,04,6,1,1.062,0.157777778,-0.246666667,1,0,0,1.12,Diorite_rect,3,1.12,0,5,0,5,0,1,,,,,,,,,,,,,
5c01d3c509e9c70001500b10,SCN,2024-06-21_14h07.14.160,LearnStrategy,2023.2.3,Win32,60.0240096,2,1,7,-0.564444444,-0.4,1,0,0,1.744,Pegmatite_08,6,08,1,1,1.744,-0.396666667,-0.388888889,1,0,0,3.754,Obsidian_rect,5,3.754,0,6,0,6,0,1,,,,,,,,,,,,,
5c01d3c509e9c70001500b10,SCN,2024-06-21_14h07.14.160,LearnStrategy,2023.2.3,Win32,60.0240096,2,1,8,0.358888889,-0.094444444,1,0,0,1.997,Gabbro_09,4,09,3,7,1.997,-0.08,-0.403333333,1,0,0,2.418,Pegmatite_rect,6,2.418,0,7,0,7,0,1,,,,,,,,,,,,,
5c01d3c509e9c70001500b10,SCN,2024-06-21_14h07.14.160,LearnStrategy,2023.2.3,Win32,60.0240096,2,1,9,0.063333333,-0.081111111,1,0,0,0.947,Andesite_14,1,14,3,5,0.947,0.131111111,-0.393333333,1,0,0,3.403,Peridotite_rect,7,3.403,0,8,0,8,0,1,,,,,,,,,,,,,
5c01d3c509e9c70001500b10,SCN,2024-06-21_14h07.14.160,LearnStrategy,2023.2.3,Win32,60.0240096,2,1,10,-0.392222222,-0.094444444,1,0,0,1.28,Pumice_02,8,02,3,2,1.28,0.392222222,-0.398888889,1,0,0,1.122,Pumice_rect,8,1.122,1,9,0,9,0,1,,,,,,,,,,,,,
5c01d3c509e9c70001500b10,SCN,2024-06-21_14h07.14.160,LearnStrategy,2023.2.3,Win32,60.0240096,2,1,11,-0.09,-0.12,1,0,0,1.394,Gabbro_05,4,05,3,4,1.394,-0.313333333,-0.235555556,1,0,0,3.652,Andesite_rect,1,3.652,0,10,0,10,0,1,,,,,,,,,,,,,
5c01d3c509e9c70001500b10,SCN,2024-06-21_14h07.14.160,LearnStrategy,2023.2.3,Win32,60.0240096,2,1,12,-0.536666667,0.081111111,1,0,0,1.763,Basalt_06,2,06,4,1,1.763,-0.121111111,-0.26,1,0,0,1.823,Basalt_rect,2,1.823,1,11,0,11,0,1,,,,,,,,,,,,,
5c01d3c509e9c70001500b10,SCN,2024-06-21_14h07.14.160,LearnStrategy,2023.2.3,Win32,60.0240096,2,1,13,0.39,0.084444444,1,0,0,2.047,Pumice_16,8,16,4,7,2.047,0.392222222,-0.418888889,1,0,0,1.4,Pumice_rect,8,1.4,1,12,0,12,0,1,,,,,,,,,,,,,
5c01d3c509e9c70001500b10,SCN,2024-06-21_14h07.14.160,LearnStrategy,2023.2.3,Win32,60.0240096,2,1,14,0.428888889,0.417777778,1,0,0,1.779,Pumice_08,8,08,6,7,1.779,0.333333333,-0.417777778,1,0,0,1.557,Pumice_rect,8,1.557,1,13,0,13,0,1,,,,,,,,,,,,,
5c01d3c509e9c70001500b10,SCN,2024-06-21_14h07.14.160,LearnStrategy,2023.2.3,Win32,60.0240096,2,1,15,-0.072222222,0.393333333,1,0,0,1.312,Pegmatite_09,6,09,6,4,1.312,-0.157777778,-0.392222222,1,0,0,4.86,Pegmatite_rect,6,4.86,1,14,0,14,0,1,,,,,,,,,,,,,
5c01d3c509e9c70001500b10,SCN,2024-06-21_14h07.14.160,LearnStrategy,2023.2.3,Win32,60.0240096,2,1,16,-0.571111111,0.415555556,1,0,0,8.723,Andesite_04,1,04,6,1,8.723,0.098888889,-0.263333333,1,0,0,1.239,Diorite_rect,3,1.239,0,15,0,15,0,1,,,,,,,,,,,,,
5c01d3c509e9c70001500b10,SCN,2024-06-21_14h07.14.160,LearnStrategy,2023.2.3,Win32,60.0240096,2,2,1,,,,,,,,3,11,,,,,,,,,,,3,4.776,1,,,,,,0.153333333,-0.246666667,1,0,0,4.776,Diorite_rect,0,0,0,0,1,
5c01d3c509e9c70001500b10,SCN,2024-06-21_14h07.14.160,LearnStrategy,2023.2.3,Win32,60.0240096,2,2,2,,,,,,,,6,06,,,,,,,,,,,1,2.214,0,,,,,,-0.447777778,-0.257777778,1,0,0,2.214,Andesite_rect,1,0,1,0,1,
5c01d3c509e9c70001500b10,SCN,2024-06-21_14h07.14.160,LearnStrategy,2023.2.3,Win32,60.0240096,2,2,3,,,,,,,,8,06,,,,,,,,,,,8,1.176,1,,,,,,0.458888889,-0.42,1,0,0,1.176,Pumice_rect,2,0,2,0,1,
5c01d3c509e9c70001500b10,SCN,2024-06-21_14h07.14.160,LearnStrategy,2023.2.3,Win32,60.0240096,2,2,4,,,,,,,,2,04,,,,,,,,,,,2,1.251,1,,,,,,-0.096666667,-0.231111111,1,0,0,1.251,Basalt_rect,3,0,3,0,1,
5c01d3c509e9c70001500b10,SCN,2024-06-21_14h07.14.160,LearnStrategy,2023.2.3,Win32,60.0240096,2,2,5,,,,,,,,6,05,,,,,,,,,,,6,2.815,1,,,,,,-0.11,-0.392222222,1,0,0,2.815,Pegmatite_rect,4,0,4,0,1,
5c01d3c509e9c70001500b10,SCN,2024-06-21_14h07.14.160,LearnStrategy,2023.2.3,Win32,60.0240096,2,2,6,,,,,,,,2,09,,,,,,,,,,,2,2.179,1,,,,,,-0.107777778,-0.252222222,1,0,0,2.179,Basalt_rect,5,0,5,0,1,
5c01d3c509e9c70001500b10,SCN,2024-06-21_14h07.14.160,LearnStrategy,2023.2.3,Win32,60.0240096,2,2,7,,,,,,,,5,08,,,,,,,,,,,5,4.755,1,,,,,,-0.415555556,-0.403333333,1,0,0,4.755,Obsidian_rect,6,0,6,0,1,
5c01d3c509e9c70001500b10,SCN,2024-06-21_14h07.14.160,LearnStrategy,2023.2.3,Win32,60.0240096,2,2,8,,,,,,,,7,12,,,,,,,,,,,3,1.502,0,,,,,,0.057777778,-0.255555556,1,0,0,1.502,Diorite_rect,7,0,7,0,1,
5c01d3c509e9c70001500b10,SCN,2024-06-21_14h07.14.160,LearnStrategy,2023.2.3,Win32,60.0240096,2,2,9,,,,,,,,5,16,,,,,,,,,,,5,1.623,1,,,,,,-0.39,-0.398888889,1,0,0,1.623,Obsidian_rect,8,0,8,0,1,
5c01d3c509e9c70001500b10,SCN,2024-06-21_14h07.14.160,LearnStrategy,2023.2.3,Win32,60.0240096,2,2,10,,,,,,,,7,08,,,,,,,,,,,3,3.642,0,,,,,,0.11,-0.257777778,1,0,0,3.642,Diorite_rect,9,0,9,0,1,
5c01d3c509e9c70001500b10,SCN,2024-06-21_14h07.14.160,LearnStrategy,2023.2.3,Win32,60.0240096,2,2,11,,,,,,,,4,01,,,,,,,,,,,7,2.297,0,,,,,,0.043333333,-0.388888889,1,0,0,2.297,Peridotite_rect,10,0,10,0,1,
5c01d3c509e9c70001500b10,SCN,2024-06-21_14h07.14.160,LearnStrategy,2023.2.3,Win32,60.0240096,2,2,12,,,,,,,,8,10,,,,,,,,,,,8,1.102,1,,,,,,0.377777778,-0.397777778,1,0,0,1.102,Pumice_rect,11,0,11,0,1,
5c01d3c509e9c70001500b10,SCN,2024-06-21_14h07.14.160,LearnStrategy,2023.2.3,Win32,60.0240096,2,2,13,,,,,,,,3,12,,,,,,,,,,,4,2.012,0,,,,,,0.311111111,-0.26,1,0,0,2.012,Gabbro_rect,12,0,12,0,1,
5c01d3c509e9c70001500b10,SCN,2024-06-21_14h07.14.160,LearnStrategy,2023.2.3,Win32,60.0240096,2,2,14,,,,,,,,1,06,,,,,,,,,,,7,2.221,0,,,,,,0.097777778,-0.385555556,1,0,0,2.221,Peridotite_rect,13,0,13,0,1,
5c01d3c509e9c70001500b10,SCN,2024-06-21_14h07.14.160,LearnStrategy,2023.2.3,Win32,60.0240096,2,2,15,,,,,,,,4,16,,,,,,,,,,,7,0.97,0,,,,,,0.097777778,-0.385555556,1,0,0,0.97,Peridotite_rect,14,0,14,0,1,
5c01d3c509e9c70001500b10,SCN,2024-06-21_14h07.14.160,LearnStrategy,2023.2.3,Win32,60.0240096,2,2,16,,,,,,,,1,01,,,,,,,,,,,7,1.107,0,,,,,,0.097777778,-0.385555556,1,0,0,1.107,Peridotite_rect,15,0,15,0,1,
5c01d3c509e9c70001500b10,SCN,2024-06-21_14h07.14.160,LearnStrategy,2023.2.3,Win32,60.0240096,3,1,1,-0.57,-0.262222222,1,0,0,5.158,Pegmatite_16,6,16,2,1,5.158,0.162222222,-0.267777778,1,0,0,1.618,Diorite_rect,3,1.618,0,0,0,0,0,1,,,,,,,,,,,,,
5c01d3c509e9c70001500b10,SCN,2024-06-21_14h07.14.160,LearnStrategy,2023.2.3,Win32,60.0240096,3,1,2,-0.522222222,-0.4,1,0,0,1.364,Pegmatite_08,6,08,1,1,1.364,-0.125555556,-0.401111111,1,0,0,1.19,Pegmatite_rect,6,1.19,1,1,0,1,0,1,,,,,,,,,,,,,
5c01d3c509e9c70001500b10,SCN,2024-06-21_14h07.14.160,LearnStrategy,2023.2.3,Win32,60.0240096,3,1,3,-0.378888889,-0.404444444,1,0,0,1.081,Pegmatite_15,6,15,1,2,1.081,-0.146666667,-0.39,1,0,0,1.23,Pegmatite_rect,6,1.23,1,2,0,2,0,1,,,,,,,,,,,,,
5c01d3c509e9c70001500b10,SCN,2024-06-21_14h07.14.160,LearnStrategy,2023.2.3,Win32,60.0240096,3,1,4,-0.184444444,-0.245555556,1,0,0,3.463,Diorite_16,3,16,2,3,3.463,0.132222222,-0.247777778,1,0,0,1.287,Diorite_rect,3,1.287,1,3,0,3,0,1,,,,,,,,,,,,,
5c01d3c509e9c70001500b10,SCN,2024-06-21_14h07.14.160,LearnStrategy,2023.2.3,Win32,60.0240096,3,1,5,0.253333333,0.134444444,1,0,0,0.881,Diorite_14,3,14,4,6,0.881,0.112222222,-0.262222222,1,0,0,0.725,Diorite_rect,3,0.725,1,4,0,4,0,1,,,,,,,,,,,,,
5c01d3c509e9c70001500b10,SCN,2024-06-21_14h07.14.160,LearnStrategy,2023.2.3,Win32,60.0240096,3,1,6,0.081111111,0.268888889,1,0,0,1.379,Obsidian_05,5,05,5,5,1.379,0.134444444,-0.242222222,1,0,0,0.615,Diorite_rect,3,0.615,0,5,0,5,0,1,,,,,,,,,,,,,
5c01d3c509e9c70001500b10,SCN,2024-06-21_14h07.14.160,LearnStrategy,2023.2.3,Win32,60.0240096,3,1,7,-0.378888889,-0.11,1,0,0,3.31,Pumice_02,8,02,3,2,3.31,0.47,-0.402222222,1,0,0,1.061,Pumice_rect,8,1.061,1,6,0,6,0,1,,,,,,,,,,,,,
5c01d3c509e9c70001500b10,SCN,2024-06-21_14h07.14.160,LearnStrategy,2023.2.3,Win32,60.0240096,3,1,8,-0.097777778,-0.42,1,0,0,3.978,Basalt_10,2,10,1,4,3.978,-0.128888889,-0.251111111,1,0,0,1.482,Basalt_rect,2,1.482,1,7,0,7,0,1,,,,,,,,,,,,,
5c01d3c509e9c70001500b10,SCN,2024-06-21_14h07.14.160,LearnStrategy,2023.2.3,Win32,60.0240096,3,1,9,-0.566666667,0.118888889,1,0,0,1.446,Basalt_06,2,06,4,1,1.446,-0.081111111,-0.251111111,1,0,0,1.685,Basalt_rect,2,1.685,1,8,0,8,0,1,,,,,,,,,,,,,
5c01d3c509e9c70001500b10,SCN,2024-06-21_14h07.14.160,LearnStrategy,2023.2.3,Win32,60.0240096,3,1,10,0.521111111,0.104444444,1,0,0,1.73,Peridotite_15,7,15,4,8,1.73,0.102222222,-0.246666667,1,0,0,2.265,Diorite_rect,3,2.265,0,9,0,9,0,1,,,,,,,,,,,,,
5c01d3c509e9c70001500b10,SCN,2024-06-21_14h07.14.160,LearnStrategy,2023.2.3,Win32,60.0240096,3,1,11,0.087777778,0.405555556,1,0,0,2.597,Peridotite_16,7,16,6,5,2.597,0.13,-0.395555556,1,0,0,2.03,Peridotite_rect,7,2.03,1,10,0,10,0,1,,,,,,,,,,,,,
5c01d3c509e9c70001500b10,SCN,2024-06-21_14h07.14.160,LearnStrategy,2023.2.3,Win32,60.0240096,3,1,12,-0.09,0.446666667,1,0,0,0.726,Pegmatite_09,6,09,6,4,0.726,-0.185555556,-0.387777778,1,0,0,2.287,Pegmatite_rect,6,2.287,1,11,0,11,0,1,,,,,,,,,,,,,
5c01d3c509e9c70001500b10,SCN,2024-06-21_14h07.14.160,LearnStrategy,2023.2.3,Win32,60.0240096,3,1,13,-0.218888889,0.382222222,1,0,0,1.347,Diorite_06,3,06,6,3,1.347,0.158888889,-0.402222222,1,0,0,1.605,Peridotite_rect,7,1.605,0,12,0,12,0,1,,,,,,,,,,,,,
5c01d3c509e9c70001500b10,SCN,2024-06-21_14h07.14.160,LearnStrategy,2023.2.3,Win32,60.0240096,3,1,14,-0.424444444,0.402222222,1,0,0,1.046,Basalt_14,2,14,6,2,1.046,-0.097777778,-0.261111111,1,0,0,2.443,Basalt_rect,2,2.443,1,13,0,13,0,1,,,,,,,,,,,,,
5c01d3c509e9c70001500b10,SCN,2024-06-21_14h07.14.160,LearnStrategy,2023.2.3,Win32,60.0240096,3,1,15,0.562222222,-0.266666667,1,0,0,1.879,Gabbro_10,4,10,2,8,1.879,0.098888889,-0.413333333,1,0,0,2.552,Peridotite_rect,7,2.552,0,14,0,14,0,1,,,,,,,,,,,,,
5c01d3c509e9c70001500b10,SCN,2024-06-21_14h07.14.160,LearnStrategy,2023.2.3,Win32,60.0240096,3,1,16,0.577777778,0.397777778,1,0,0,2.029,Andesite_10,1,10,6,8,2.029,0.395555556,-0.27,1,0,0,1.571,Gabbro_rect,4,1.571,0,15,0,15,0,1,,,,,,,,,,,,,
5c01d3c509e9c70001500b10,SCN,2024-06-21_14h07.14.160,LearnStrategy,2023.2.3,Win32,60.0240096,3,2,1,,,,,,,,4,11,,,,,,,,,,,4,3.701,1,,,,,,0.434444444,-0.257777778,1,0,0,3.701,Gabbro_rect,0,0,0,0,1,
5c01d3c509e9c70001500b10,SCN,2024-06-21_14h07.14.160,LearnStrategy,2023.2.3,Win32,60.0240096,3,2,2,,,,,,,,5,06,,,,,,,,,,,5,1.649,1,,,,,,-0.4,-0.414444444,1,0,0,1.649,Obsidian_rect,1,0,1,0,1,
5c01d3c509e9c70001500b10,SCN,2024-06-21_14h07.14.160,LearnStrategy,2023.2.3,Win32,60.0240096,3,2,3,,,,,,,,8,15,,,,,,,,,,,8,1.485,1,,,,,,0.386666667,-0.42,1,0,0,1.485,Pumice_rect,2,0,2,0,1,
5c01d3c509e9c70001500b10,SCN,2024-06-21_14h07.14.160,LearnStrategy,2023.2.3,Win32,60.0240096,3,2,4,,,,,,,,1,07,,,,,,,,,,,3,1.258,0,,,,,,0.155555556,-0.258888889,1,0,0,1.258,Diorite_rect,3,0,3,0,1,
5c01d3c509e9c70001500b10,SCN,2024-06-21_14h07.14.160,LearnStrategy,2023.2.3,Win32,60.0240096,3,2,5,,,,,,,,3,10,,,,,,,,,,,7,3.334,0,,,,,,0.13,-0.406666667,1,0,0,3.334,Peridotite_rect,4,0,4,0,1,
5c01d3c509e9c70001500b10,SCN,2024-06-21_14h07.14.160,LearnStrategy,2023.2.3,Win32,60.0240096,3,2,6,,,,,,,,4,12,,,,,,,,,,,6,2.117,0,,,,,,-0.134444444,-0.408888889,1,0,0,2.117,Pegmatite_rect,5,0,5,0,1,
5c01d3c509e9c70001500b10,SCN,2024-06-21_14h07.14.160,LearnStrategy,2023.2.3,Win32,60.0240096,3,2,7,,,,,,,,8,13,,,,,,,,,,,8,1.192,1,,,,,,0.441111111,-0.39,1,0,0,1.192,Pumice_rect,6,0,6,0,1,
5c01d3c509e9c70001500b10,SCN,2024-06-21_14h07.14.160,LearnStrategy,2023.2.3,Win32,60.0240096,3,2,8,,,,,,,,1,05,,,,,,,,,,,3,3.202,0,,,,,,0.114444444,-0.258888889,1,0,0,3.202,Diorite_rect,7,0,7,0,1,
5c01d3c509e9c70001500b10,SCN,2024-06-21_14h07.14.160,LearnStrategy,2023.2.3,Win32,60.0240096,3,2,9,,,,,,,,6,07,,,,,,,,,,,5,1.17,0,,,,,,-0.438888889,-0.398888889,1,0,0,1.17,Obsidian_rect,8,0,8,0,1,
5c01d3c509e9c70001500b10,SCN,2024-06-21_14h07.14.160,LearnStrategy,2023.2.3,Win32,60.0240096,3,2,10,,,,,,,,3,09,,,,,,,,,,,3,1.377,1,,,,,,0.086666667,-0.26,1,0,0,1.377,Diorite_rect,9,0,9,0,1,
5c01d3c509e9c70001500b10,SCN,2024-06-21_14h07.14.160,LearnStrategy,2023.2.3,Win32,60.0240096,3,2,11,,,,,,,,5,11,,,,,,,,,,,5,1.134,1,,,,,,-0.363333333,-0.416666667,1,0,0,1.134,Obsidian_rect,10,0,10,0,1,
5c01d3c509e9c70001500b10,SCN,2024-06-21_14h07.14.160,LearnStrategy,2023.2.3,Win32,60.0240096,3,2,12,,,,,,,,2,05,,,,,,,,,,,2,1.086,1,,,,,,-0.161111111,-0.265555556,1,0,0,1.086,Basalt_rect,11,0,11,0,1,
5c01d3c509e9c70001500b10,SCN,2024-06-21_14h07.14.160,LearnStrategy,2023.2.3,Win32,60.0240096,3,2,13,,,,,,,,6,10,,,,,,,,,,,6,2.701,1,,,,,,-0.185555556,-0.396666667,1,0,0,2.701,Pegmatite_rect,12,0,12,0,1,
5c01d3c509e9c70001500b10,SCN,2024-06-21_14h07.14.160,LearnStrategy,2023.2.3,Win32,60.0240096,3,2,14,,,,,,,,2,16,,,,,,,,,,,2,2.102,1,,,,,,-0.128888889,-0.27,1,0,0,2.102,Basalt_rect,13,0,13,0,1,
5c01d3c509e9c70001500b10,SCN,2024-06-21_14h07.14.160,LearnStrategy,2023.2.3,Win32,60.0240096,3,2,15,,,,,,,,7,07,,,,,,,,,,,4,4.845,0,,,,,,0.393333333,-0.266666667,1,0,0,4.845,Gabbro_rect,14,0,14,0,1,
5c01d3c509e9c70001500b10,SCN,2024-06-21_14h07.14.160,LearnStrategy,2023.2.3,Win32,60.0240096,3,2,16,,,,,,,,7,04,,,,,,,,,,,4,1.944,0,,,,,,0.393333333,-0.266666667,1,0,0,1.944,Gabbro_rect,15,0,15,0,1,
5c01d3c509e9c70001500b10,SCN,2024-06-21_14h07.14.160,LearnStrategy,2023.2.3,Win32,60.0240096,4,1,1,-0.23,0.088888889,1,0,0,1.395,Pegmatite_12,6,12,4,3,1.395,-0.178888889,-0.401111111,1,0,0,1.297,Pegmatite_rect,6,1.297,1,0,0,0,0,1,,,,,,,,,,,,,
5c01d3c509e9c70001500b10,SCN,2024-06-21_14h07.14.160,LearnStrategy,2023.2.3,Win32,60.0240096,4,1,2,-0.555555556,0.253333333,1,0,0,2.478,Andesite_11,1,11,5,1,2.478,-0.362222222,-0.232222222,1,0,0,1.154,Andesite_rect,1,1.154,1,1,0,1,0,1,,,,,,,,,,,,,
5c01d3c509e9c70001500b10,SCN,2024-06-21_14h07.14.160,LearnStrategy,2023.2.3,Win32,60.0240096,4,1,3,-0.09,0.091111111,1,0,0,1.215,Basalt_12,2,12,4,4,1.215,-0.346666667,-0.265555556,1,0,0,0.972,Andesite_rect,1,0.972,0,2,0,2,0,1,,,,,,,,,,,,,
5c01d3c509e9c70001500b10,SCN,2024-06-21_14h07.14.160,LearnStrategy,2023.2.3,Win32,60.0240096,4,1,4,-0.416666667,0.263333333,1,0,0,1.645,Gabbro_03,4,03,5,2,1.645,-0.326666667,-0.267777778,1,0,0,1.289,Andesite_rect,1,1.289,0,3,0,3,0,1,,,,,,,,,,,,,
5c01d3c509e9c70001500b10,SCN,2024-06-21_14h07.14.160,LearnStrategy,2023.2.3,Win32,60.0240096,4,1,5,-0.251111111,0.246666667,1,0,0,1.28,Peridotite_02,7,02,5,3,1.28,0.446666667,-0.248888889,1,0,0,1.172,Gabbro_rect,4,1.172,0,4,0,4,0,1,,,,,,,,,,,,,
5c01d3c509e9c70001500b10,SCN,2024-06-21_14h07.14.160,LearnStrategy,2023.2.3,Win32,60.0240096,4,1,6,-0.064444444,0.414444444,1,0,0,1.663,Pegmatite_09,6,09,6,4,1.663,-0.148888889,-0.395555556,1,0,0,1.155,Pegmatite_rect,6,1.155,1,5,0,5,0,1,,,,,,,,,,,,,
5c01d3c509e9c70001500b10,SCN,2024-06-21_14h07.14.160,LearnStrategy,2023.2.3,Win32,60.0240096,4,1,7,-0.54,0.397777778,1,0,0,1.332,Andesite_04,1,04,6,1,1.332,0.4,-0.244444444,1,0,0,3.406,Gabbro_rect,4,3.406,0,6,0,6,0,1,,,,,,,,,,,,,
5c01d3c509e9c70001500b10,SCN,2024-06-21_14h07.14.160,LearnStrategy,2023.2.3,Win32,60.0240096,4,1,8,0.264444444,0.413333333,1,0,0,2.247,Basalt_01,2,01,6,6,2.247,-0.11,-0.242222222,1,0,0,1.595,Basalt_rect,2,1.595,1,7,0,7,0,1,,,,,,,,,,,,,
5c01d3c509e9c70001500b10,SCN,2024-06-21_14h07.14.160,LearnStrategy,2023.2.3,Win32,60.0240096,4,1,9,0.064444444,0.408888889,1,0,0,0.966,Peridotite_16,7,16,6,5,0.966,0.087777778,-0.402222222,1,0,0,2.852,Peridotite_rect,7,2.852,1,8,0,8,0,1,,,,,,,,,,,,,
5c01d3c509e9c70001500b10,SCN,2024-06-21_14h07.14.160,LearnStrategy,2023.2.3,Win32,60.0240096,4,1,10,0.538888889,-0.417777778,1,0,0,3.146,Peridotite_14,7,14,1,8,3.146,0.095555556,-0.405555556,1,0,0,1.378,Peridotite_rect,7,1.378,1,9,0,9,0,1,,,,,,,,,,,,,
5c01d3c509e9c70001500b10,SCN,2024-06-21_14h07.14.160,LearnStrategy,2023.2.3,Win32,60.0240096,4,1,11,0.557777778,0.086666667,1,0,0,1.43,Peridotite_15,7,15,4,8,1.43,0.442222222,-0.236666667,1,0,0,1.359,Gabbro_rect,4,1.359,0,10,0,10,0,1,,,,,,,,,,,,,
5c01d3c509e9c70001500b10,SCN,2024-06-21_14h07.14.160,LearnStrategy,2023.2.3,Win32,60.0240096,4,1,12,0.53,0.395555556,1,0,0,1.93,Andesite_10,1,10,6,8,1.93,-0.377777778,-0.253333333,1,0,0,3.106,Andesite_rect,1,3.106,1,11,0,11,0,1,,,,,,,,,,,,,
5c01d3c509e9c70001500b10,SCN,2024-06-21_14h07.14.160,LearnStrategy,2023.2.3,Win32,60.0240096,4,1,13,0.246666667,-0.104444444,1,0,0,1.219,Andesite_02,1,02,3,6,1.219,-0.401111111,-0.268888889,1,0,0,1.733,Andesite_rect,1,1.733,1,12,0,12,0,1,,,,,,,,,,,,,
5c01d3c509e9c70001500b10,SCN,2024-06-21_14h07.14.160,LearnStrategy,2023.2.3,Win32,60.0240096,4,1,14,-0.211111111,0.101111111,1,0,0,1.897,Pegmatite_12,6,12,4,3,1.897,-0.134444444,-0.417777778,1,0,0,1.994,Pegmatite_rect,6,1.994,1,13,0,13,0,1,,,,,,,,,,,,,
5c01d3c509e9c70001500b10,SCN,2024-06-21_14h07.14.160,LearnStrategy,2023.2.3,Win32,60.0240096,4,1,15,0.244444444,-0.245555556,1,0,0,1.692,Gabbro_14,4,14,2,6,1.692,-0.358888889,-0.258888889,1,0,0,3.687,Andesite_rect,1,3.687,0,14,0,14,0,1,,,,,,,,,,,,,
5c01d3c509e9c70001500b10,SCN,2024-06-21_14h07.14.160,LearnStrategy,2023.2.3,Win32,60.0240096,4,1,16,0.274444444,-0.101111111,1,0,0,1.628,Andesite_02,1,02,3,6,1.628,0.4,-0.258888889,1,0,0,1.335,Gabbro_rect,4,1.335,0,15,0,15,0,1,,,,,,,,,,,,,
5c01d3c509e9c70001500b10,SCN,2024-06-21_14h07.14.160,LearnStrategy,2023.2.3,Win32,60.0240096,4,2,1,,,,,,,,2,04,,,,,,,,,,,2,1.501,1,,,,,,-0.125555556,-0.247777778,1,0,0,1.501,Basalt_rect,0,0,0,0,1,
5c01d3c509e9c70001500b10,SCN,2024-06-21_14h07.14.160,LearnStrategy,2023.2.3,Win32,60.0240096,4,2,2,,,,,,,,3,07,,,,,,,,,,,3,3.455,1,,,,,,0.1,-0.251111111,1,0,0,3.455,Diorite_rect,1,0,1,0,1,
5c01d3c509e9c70001500b10,SCN,2024-06-21_14h07.14.160,LearnStrategy,2023.2.3,Win32,60.0240096,4,2,3,,,,,,,,4,11,,,,,,,,,,,7,2.543,0,,,,,,0.122222222,-0.42,1,0,0,2.543,Peridotite_rect,2,0,2,0,1,
5c01d3c509e9c70001500b10,SCN,2024-06-21_14h07.14.160,LearnStrategy,2023.2.3,Win32,60.0240096,4,2,4,,,,,,,,7,12,,,,,,,,,,,7,0.891,1,,,,,,0.122222222,-0.42,1,0,0,0.891,Peridotite_rect,3,0,3,0,1,
5c01d3c509e9c70001500b10,SCN,2024-06-21_14h07.14.160,LearnStrategy,2023.2.3,Win32,60.0240096,4,2,5,,,,,,,,1,06,,,,,,,,,,,1,2.147,1,,,,,,-0.355555556,-0.252222222,1,0,0,2.147,Andesite_rect,4,0,4,0,1,
5c01d3c509e9c70001500b10,SCN,2024-06-21_14h07.14.160,LearnStrategy,2023.2.3,Win32,60.0240096,4,2,6,,,,,,,,1,03,,,,,,,,,,,1,1.755,1,,,,,,-0.355555556,-0.25,1,0,0,1.755,Andesite_rect,5,0,5,0,1,
5c01d3c509e9c70001500b10,SCN,2024-06-21_14h07.14.160,LearnStrategy,2023.2.3,Win32,60.0240096,4,2,7,,,,,,,,4,08,,,,,,,,,,,7,3.417,0,,,,,,0.158888889,-0.413333333,1,0,0,3.417,Peridotite_rect,6,0,6,0,1,
5c01d3c509e9c70001500b10,SCN,2024-06-21_14h07.14.160,LearnStrategy,2023.2.3,Win32,60.0240096,4,2,8,,,,,,,,3,11,,,,,,,,,,,3,1.692,1,,,,,,0.172222222,-0.241111111,1,0,0,1.692,Diorite_rect,7,0,7,0,1,
5c01d3c509e9c70001500b10,SCN,2024-06-21_14h07.14.160,LearnStrategy,2023.2.3,Win32,60.0240096,4,2,9,,,,,,,,5,12,,,,,,,,,,,5,1.035,1,,,,,,-0.485555556,-0.407777778,1,0,0,1.035,Obsidian_rect,8,0,8,0,1,
5c01d3c509e9c70001500b10,SCN,2024-06-21_14h07.14.160,LearnStrategy,2023.2.3,Win32,60.0240096,4,2,10,,,,,,,,7,06,,,,,,,,,,,7,2.116,1,,,,,,0.084444444,-0.41,1,0,0,2.116,Peridotite_rect,9,0,9,0,1,
5c01d3c509e9c70001500b10,SCN,2024-06-21_14h07.14.160,LearnStrategy,2023.2.3,Win32,60.0240096,4,2,11,,,,,,,,2,16,,,,,,,,,,,2,1.042,1,,,,,,-0.141111111,-0.245555556,1,0,0,1.042,Basalt_rect,10,0,10,0,1,
5c01d3c509e9c70001500b10,SCN,2024-06-21_14h07.14.160,LearnStrategy,2023.2.3,Win32,60.0240096,4,2,12,,,,,,,,8,15,,,,,,,,,,,8,1.089,1,,,,,,0.366666667,-0.4,1,0,0,1.089,Pumice_rect,11,0,11,0,1,
5c01d3c509e9c70001500b10,SCN,2024-06-21_14h07.14.160,LearnStrategy,2023.2.3,Win32,60.0240096,4,2,13,,,,,,,,5,08,,,,,,,,,,,5,1.327,1,,,,,,-0.458888889,-0.413333333,1,0,0,1.327,Obsidian_rect,12,0,12,0,1,
5c01d3c509e9c70001500b10,SCN,2024-06-21_14h07.14.160,LearnStrategy,2023.2.3,Win32,60.0240096,4,2,14,,,,,,,,6,05,,,,,,,,,,,6,1.957,1,,,,,,-0.156666667,-0.4,1,0,0,1.957,Pegmatite_rect,13,0,13,0,1,
5c01d3c509e9c70001500b10,SCN,2024-06-21_14h07.14.160,LearnStrategy,2023.2.3,Win32,60.0240096,4,2,15,,,,,,,,6,10,,,,,,,,,,,6,0.981,1,,,,,,-0.156666667,-0.4,1,0,0,0.981,Pegmatite_rect,14,0,14,0,1,
5c01d3c509e9c70001500b10,SCN,2024-06-21_14h07.14.160,LearnStrategy,2023.2.3,Win32,60.0240096,4,2,16,,,,,,,,8,14,,,,,,,,,,,8,1.137,1,,,,,,0.47,-0.413333333,1,0,0,1.137,Pumice_rect,15,0,15,0,1,
5c01d3c509e9c70001500b10,SCN,2024-06-21_14h07.14.160,LearnStrategy,2023.2.3,Win32,60.0240096,5,1,1,-0.066666667,0.09,1,0,0,1.731,Basalt_12,2,12,4,4,1.731,-0.163333333,-0.242222222,1,0,0,1.011,Basalt_rect,2,1.011,1,0,0,0,0,1,,,,,,,,,,,,,
5c01d3c509e9c70001500b10,SCN,2024-06-21_14h07.14.160,LearnStrategy,2023.2.3,Win32,60.0240096,5,1,2,0.568888889,0.094444444,1,0,0,3.179,Peridotite_15,7,15,4,8,3.179,0.136666667,-0.39,1,0,0,2.125,Peridotite_rect,7,2.125,1,1,0,1,0,1,,,,,,,,,,,,,
5c01d3c509e9c70001500b10,SCN,2024-06-21_14h07.14.160,LearnStrategy,2023.2.3,Win32,60.0240096,5,1,3,0.203333333,0.421111111,1,0,0,3.559,Basalt_01,2,01,6,6,3.559,-0.134444444,-0.253333333,1,0,0,1.013,Basalt_rect,2,1.013,1,2,0,2,0,1,,,,,,,,,,,,,
5c01d3c509e9c70001500b10,SCN,2024-06-21_14h07.14.160,LearnStrategy,2023.2.3,Win32,60.0240096,5,1,4,-0.08,-0.266666667,1,0,0,4.361,Pumice_04,8,04,2,4,4.361,0.447777778,-0.391111111,1,0,0,1.039,Pumice_rect,8,1.039,1,3,0,3,0,1,,,,,,,,,,,,,
5c01d3c509e9c70001500b10,SCN,2024-06-21_14h07.14.160,LearnStrategy,2023.2.3,Win32,60.0240096,5,1,5,0.563333333,-0.425555556,1,0,0,1.383,Peridotite_14,7,14,1,8,1.383,0.142222222,-0.404444444,1,0,0,1.744,Peridotite_rect,7,1.744,1,4,0,4,0,1,,,,,,,,,,,,,
5c01d3c509e9c70001500b10,SCN,2024-06-21_14h07.14.160,LearnStrategy,2023.2.3,Win32,60.0240096,5,1,6,0.585555556,-0.114444444,1,0,0,1.231,Gabbro_13,4,13,3,8,1.231,0.127777778,-0.394444444,1,0,0,2.846,Peridotite_rect,7,2.846,0,5,0,5,0,1,,,,,,,,,,,,,
5c01d3c509e9c70001500b10,SCN,2024-06-21_14h07.14.160,LearnStrategy,2023.2.3,Win32,60.0240096,5,1,7,0.545555556,0.102222222,1,0,0,1.66,Peridotite_15,7,15,4,8,1.66,0.12,-0.42,1,0,0,1.316,Peridotite_rect,7,1.316,1,6,0,6,0,1,,,,,,,,,,,,,
5c01d3c509e9c70001500b10,SCN,2024-06-21_14h07.14.160,LearnStrategy,2023.2.3,Win32,60.0240096,5,1,8,-0.365555556,-0.228888889,1,0,0,1.144,Peridotite_05,7,05,2,2,1.144,0.403333333,-0.246666667,1,0,0,1.454,Gabbro_rect,4,1.454,0,7,0,7,0,1,,,,,,,,,,,,,
5c01d3c509e9c70001500b10,SCN,2024-06-21_14h07.14.160,LearnStrategy,2023.2.3,Win32,60.0240096,5,1,9,-0.107777778,-0.088888889,1,0,0,3.726,Gabbro_05,4,05,3,4,3.726,0.363333333,-0.251111111,1,0,0,4.289,Gabbro_rect,4,4.289,1,8,0,8,0,1,,,,,,,,,,,,,
5c01d3c509e9c70001500b10,SCN,2024-06-21_14h07.14.160,LearnStrategy,2023.2.3,Win32,60.0240096,5,1,10,-0.53,-0.102222222,1,0,0,2.013,Diorite_15,3,15,3,1,2.013,0.402222222,-0.248888889,1,0,0,1.505,Gabbro_rect,4,1.505,0,9,0,9,0,1,,,,,,,,,,,,,
5c01d3c509e9c70001500b10,SCN,2024-06-21_14h07.14.160,LearnStrategy,2023.2.3,Win32,60.0240096,5,1,11,-0.207777778,0.098888889,1,0,0,6.009,Pegmatite_12,6,12,4,3,6.009,-0.138888889,-0.406666667,1,0,0,1.24,Pegmatite_rect,6,1.24,1,10,0,10,0,1,,,,,,,,,,,,,
5c01d3c509e9c70001500b10,SCN,2024-06-21_14h07.14.160,LearnStrategy,2023.2.3,Win32,60.0240096,5,1,12,0.086666667,0.262222222,1,0,0,1.975,Obsidian_05,5,05,5,5,1.975,-0.354444444,-0.386666667,1,0,0,1.073,Obsidian_rect,5,1.073,1,11,0,11,0,1,,,,,,,,,,,,,
5c01d3c509e9c70001500b10,SCN,2024-06-21_14h07.14.160,LearnStrategy,2023.2.3,Win32,60.0240096,5,1,13,-0.086666667,0.425555556,1,0,0,3.061,Pegmatite_09,6,09,6,4,3.061,-0.118888889,-0.397777778,1,0,0,1.507,Pegmatite_rect,6,1.507,1,12,0,12,0,1,,,,,,,,,,,,,
5c01d3c509e9c70001500b10,SCN,2024-06-21_14h07.14.160,LearnStrategy,2023.2.3,Win32,60.0240096,5,1,14,-0.575555556,0.396666667,1,0,0,1.081,Andesite_04,1,04,6,1,1.081,-0.375555556,-0.252222222,1,0,0,2.588,Andesite_rect,1,2.588,1,13,0,13,0,1,,,,,,,,,,,,,
5c01d3c509e9c70001500b10,SCN,2024-06-21_14h07.14.160,LearnStrategy,2023.2.3,Win32,60.0240096,5,1,15,-0.572222222,0.098888889,1,0,0,3.029,Basalt_06,2,06,4,1,3.029,-0.147777778,-0.232222222,1,0,0,1.097,Basalt_rect,2,1.097,1,14,0,14,0,1,,,,,,,,,,,,,
5c01d3c509e9c70001500b10,SCN,2024-06-21_14h07.14.160,LearnStrategy,2023.2.3,Win32,60.0240096,5,1,16,-0.562222222,0.264444444,1,0,0,1.382,Andesite_11,1,11,5,1,1.382,-0.395555556,-0.257777778,1,0,0,0.802,Andesite_rect,1,0.802,1,15,0,15,0,1,,,,,,,,,,,,,
5c01d3c509e9c70001500b10,SCN,2024-06-21_14h07.14.160,LearnStrategy,2023.2.3,Win32,60.0240096,5,2,1,,,,,,,,8,05,,,,,,,,,,,8,2.537,1,,,,,,0.428888889,-0.415555556,1,0,0,2.537,Pumice_rect,0,0,0,0,1,
5c01d3c509e9c70001500b10,SCN,2024-06-21_14h07.14.160,LearnStrategy,2023.2.3,Win32,60.0240096,5,2,2,,,,,,,,4,01,,,,,,,,,,,7,2.688,0,,,,,,0.138888889,-0.4,1,0,0,2.688,Peridotite_rect,1,0,1,0,1,
5c01d3c509e9c70001500b10,SCN,2024-06-21_14h07.14.160,LearnStrategy,2023.2.3,Win32,60.0240096,5,2,3,,,,,,,,3,12,,,,,,,,,,,3,2.127,1,,,,,,0.141111111,-0.257777778,1,0,0,2.127,Diorite_rect,2,0,2,0,1,
5c01d3c509e9c70001500b10,SCN,2024-06-21_14h07.14.160,LearnStrategy,2023.2.3,Win32,60.0240096,5,2,4,,,,,,,,7,07,,,,,,,,,,,7,1.27,1,,,,,,0.138888889,-0.402222222,1,0,0,1.27,Peridotite_rect,3,0,3,0,1,
5c01d3c509e9c70001500b10,SCN,2024-06-21_14h07.14.160,LearnStrategy,2023.2.3,Win32,60.0240096,5,2,5,,,,,,,,5,16,,,,,,,,,,,5,1.012,1,,,,,,-0.424444444,-0.41,1,0,0,1.012,Obsidian_rect,4,0,4,0,1,
5c01d3c509e9c70001500b10,SCN,2024-06-21_14h07.14.160,LearnStrategy,2023.2.3,Win32,60.0240096,5,2,6,,,,,,,,7,04,,,,,,,,,,,7,2.129,1,,,,,,0.164444444,-0.397777778,1,0,0,2.129,Peridotite_rect,5,0,5,0,1,
5c01d3c509e9c70001500b10,SCN,2024-06-21_14h07.14.160,LearnStrategy,2023.2.3,Win32,60.0240096,5,2,7,,,,,,,,2,09,,,,,,,,,,,2,1.114,1,,,,,,-0.113333333,-0.264444444,1,0,0,1.114,Basalt_rect,6,0,6,0,1,
5c01d3c509e9c70001500b10,SCN,2024-06-21_14h07.14.160,LearnStrategy,2023.2.3,Win32,60.0240096,5,2,8,,,,,,,,6,11,,,,,,,,,,,6,1.007,1,,,,,,-0.174444444,-0.413333333,1,0,0,1.007,Pegmatite_rect,7,0,7,0,1,
5c01d3c509e9c70001500b10,SCN,2024-06-21_14h07.14.160,LearnStrategy,2023.2.3,Win32,60.0240096,5,2,9,,,,,,,,6,07,,,,,,,,,,,6,2.287,1,,,,,,-0.16,-0.406666667,1,0,0,2.287,Pegmatite_rect,8,0,8,0,1,
5c01d3c509e9c70001500b10,SCN,2024-06-21_14h07.14.160,LearnStrategy,2023.2.3,Win32,60.0240096,5,2,10,,,,,,,,1,07,,,,,,,,,,,3,2.991,0,,,,,,0.097777778,-0.244444444,1,0,0,2.991,Diorite_rect,9,0,9,0,1,
5c01d3c509e9c70001500b10,SCN,2024-06-21_14h07.14.160,LearnStrategy,2023.2.3,Win32,60.0240096,5,2,11,,,,,,,,4,15,,,,,,,,,,,7,5.406,0,,,,,,0.101111111,-0.4,1,0,0,5.406,Peridotite_rect,10,0,10,0,1,
5c01d3c509e9c70001500b10,SCN,2024-06-21_14h07.14.160,LearnStrategy,2023.2.3,Win32,60.0240096,5,2,12,,,,,,,,5,07,,,,,,,,,,,5,1.127,1,,,,,,-0.402222222,-0.382222222,1,0,0,1.127,Obsidian_rect,11,0,11,0,1,
5c01d3c509e9c70001500b10,SCN,2024-06-21_14h07.14.160,LearnStrategy,2023.2.3,Win32,60.0240096,5,2,13,,,,,,,,8,10,,,,,,,,,,,8,1.281,1,,,,,,0.364444444,-0.405555556,1,0,0,1.281,Pumice_rect,12,0,12,0,1,
5c01d3c509e9c70001500b10,SCN,2024-06-21_14h07.14.160,LearnStrategy,2023.2.3,Win32,60.0240096,5,2,14,,,,,,,,2,11,,,,,,,,,,,1,1.015,0,,,,,,-0.348888889,-0.265555556,1,0,0,1.015,Andesite_rect,13,0,13,0,1,
5c01d3c509e9c70001500b10,SCN,2024-06-21_14h07.14.160,LearnStrategy,2023.2.3,Win32,60.0240096,5,2,15,,,,,,,,1,01,,,,,,,,,,,7,3.279,0,,,,,,0.125555556,-0.401111111,1,0,0,3.279,Peridotite_rect,14,0,14,0,1,
5c01d3c509e9c70001500b10,SCN,2024-06-21_14h07.14.160,LearnStrategy,2023.2.3,Win32,60.0240096,5,2,16,,,,,,,,3,10,,,,,,,,,,,7,3.469,0,,,,,,0.108888889,-0.403333333,1,0,0,3.469,Peridotite_rect,15,0,15,0,1,
5c01d3c509e9c70001500b10,SCN,2024-06-21_14h07.14.160,LearnStrategy,2023.2.3,Win32,60.0240096,6,1,1,-0.354444444,0.254444444,1,0,0,1.678,Gabbro_03,4,03,5,2,1.678,0.153333333,-0.41,1,0,0,2.365,Peridotite_rect,7,2.365,0,0,0,0,0,1,,,,,,,,,,,,,
5c01d3c509e9c70001500b10,SCN,2024-06-21_14h07.14.160,LearnStrategy,2023.2.3,Win32,60.0240096,6,1,2,0.072222222,0.071111111,1,0,0,1.598,Diorite_02,3,02,4,5,1.598,0.42,-0.253333333,1,0,0,0.998,Gabbro_rect,4,0.998,0,1,0,1,0,1,,,,,,,,,,,,,
5c01d3c509e9c70001500b10,SCN,2024-06-21_14h07.14.160,LearnStrategy,2023.2.3,Win32,60.0240096,6,1,3,0.376666667,-0.252222222,1,0,0,1.961,Diorite_13,3,13,2,7,1.961,0.104444444,-0.391111111,1,0,0,1.87,Peridotite_rect,7,1.87,0,2,0,2,0,1,,,,,,,,,,,,,
5c01d3c509e9c70001500b10,SCN,2024-06-21_14h07.14.160,LearnStrategy,2023.2.3,Win32,60.0240096,6,1,4,0.4,-0.251111111,1,0,0,1.474,Diorite_13,3,13,2,7,1.474,0.37,-0.263333333,1,0,0,1.047,Gabbro_rect,4,1.047,0,3,0,3,0,1,,,,,,,,,,,,,
5c01d3c509e9c70001500b10,SCN,2024-06-21_14h07.14.160,LearnStrategy,2023.2.3,Win32,60.0240096,6,1,5,0.387777778,-0.252222222,1,0,0,0.778,Diorite_13,3,13,2,7,0.778,0.038888889,-0.244444444,1,0,0,0.441,Diorite_rect,3,0.441,1,4,0,4,0,1,,,,,,,,,,,,,
5c01d3c509e9c70001500b10,SCN,2024-06-21_14h07.14.160,LearnStrategy,2023.2.3,Win32,60.0240096,6,1,6,0.077777778,-0.092222222,1,0,0,1.247,Andesite_14,1,14,3,5,1.247,-0.132222222,-0.393333333,1,0,0,1.76,Pegmatite_rect,6,1.76,0,5,0,5,0,1,,,,,,,,,,,,,
5c01d3c509e9c70001500b10,SCN,2024-06-21_14h07.14.160,LearnStrategy,2023.2.3,Win32,60.0240096,6,1,7,-0.38,-0.254444444,1,0,0,2.279,Peridotite_05,7,05,2,2,2.279,0.085555556,-0.393333333,1,0,0,1.149,Peridotite_rect,7,1.149,1,6,0,6,0,1,,,,,,,,,,,,,
5c01d3c509e9c70001500b10,SCN,2024-06-21_14h07.14.160,LearnStrategy,2023.2.3,Win32,60.0240096,6,1,8,-0.024444444,-0.395555556,1,0,0,1.946,Basalt_10,2,10,1,4,1.946,-0.068888889,-0.411111111,1,0,0,0.239,Pegmatite_rect,6,0.239,0,7,0,7,0,1,,,,,,,,,,,,,
5c01d3c509e9c70001500b10,SCN,2024-06-21_14h07.14.160,LearnStrategy,2023.2.3,Win32,60.0240096,6,1,9,0.07,0.391111111,1,0,0,3.278,Peridotite_16,7,16,6,5,3.278,0.358888889,-0.254444444,1,0,0,5.063,Gabbro_rect,4,5.063,0,8,0,8,0,1,,,,,,,,,,,,,
5c01d3c509e9c70001500b10,SCN,2024-06-21_14h07.14.160,LearnStrategy,2023.2.3,Win32,60.0240096,6,1,10,-0.221111111,0.282222222,1,0,0,1.856,Peridotite_02,7,02,5,3,1.856,0.158888889,-0.396666667,1,0,0,1.239,Peridotite_rect,7,1.239,1,9,0,9,0,1,,,,,,,,,,,,,
5c01d3c509e9c70001500b10,SCN,2024-06-21_14h07.14.160,LearnStrategy,2023.2.3,Win32,60.0240096,6,1,11,-0.074444444,0.237777778,1,0,0,0.998,Peridotite_10,7,10,5,4,0.998,0.152222222,-0.403333333,1,0,0,1.088,Peridotite_rect,7,1.088,1,10,0,10,0,1,,,,,,,,,,,,,
5c01d3c509e9c70001500b10,SCN,2024-06-21_14h07.14.160,LearnStrategy,2023.2.3,Win32,60.0240096,6,1,12,-0.244444444,0.374444444,1,0,0,1.247,Diorite_06,3,06,6,3,1.247,0.156666667,-0.264444444,1,0,0,0.903,Diorite_rect,3,0.903,1,11,0,11,0,1,,,,,,,,,,,,,
5c01d3c509e9c70001500b10,SCN,2024-06-21_14h07.14.160,LearnStrategy,2023.2.3,Win32,60.0240096,6,1,13,-0.231111111,-0.274444444,1,0,0,4.294,Diorite_16,3,16,2,3,4.294,0.158888889,-0.265555556,1,0,0,1.884,Diorite_rect,3,1.884,1,12,0,12,0,1,,,,,,,,,,,,,
5c01d3c509e9c70001500b10,SCN,2024-06-21_14h07.14.160,LearnStrategy,2023.2.3,Win32,60.0240096,6,1,14,-0.401111111,-0.27,1,0,0,1.366,Peridotite_05,7,05,2,2,1.366,0.143333333,-0.391111111,1,0,0,1.149,Peridotite_rect,7,1.149,1,13,0,13,0,1,,,,,,,,,,,,,
5c01d3c509e9c70001500b10,SCN,2024-06-21_14h07.14.160,LearnStrategy,2023.2.3,Win32,60.0240096,6,1,15,-0.235555556,-0.402222222,1,0,0,1.512,Obsidian_10,5,10,1,3,1.512,-0.363333333,-0.403333333,1,0,0,1.52,Obsidian_rect,5,1.52,1,14,0,14,0,1,,,,,,,,,,,,,
5c01d3c509e9c70001500b10,SCN,2024-06-21_14h07.14.160,LearnStrategy,2023.2.3,Win32,60.0240096,6,1,16,-0.501111111,-0.23,1,0,0,1.364,Pegmatite_16,6,16,2,1,1.364,-0.126666667,-0.41,1,0,0,0.72,Pegmatite_rect,6,0.72,1,15,0,15,0,1,,,,,,,,,,,,,
5c01d3c509e9c70001500b10,SCN,2024-06-21_14h07.14.160,LearnStrategy,2023.2.3,Win32,60.0240096,6,2,1,,,,,,,,2,02,,,,,,,,,,,2,1.202,1,,,,,,-0.103333333,-0.24,1,0,0,1.202,Basalt_rect,0,0,0,0,1,
5c01d3c509e9c70001500b10,SCN,2024-06-21_14h07.14.160,LearnStrategy,2023.2.3,Win32,60.0240096,6,2,2,,,,,,,,7,08,,,,,,,,,,,7,4.598,1,,,,,,0.125555556,-0.403333333,1,0,0,4.598,Peridotite_rect,1,0,1,0,1,
5c01d3c509e9c70001500b10,SCN,2024-06-21_14h07.14.160,LearnStrategy,2023.2.3,Win32,60.0240096,6,2,3,,,,,,,,1,16,,,,,,,,,,,1,2.04,1,,,,,,-0.324444444,-0.234444444,1,0,0,2.04,Andesite_rect,2,0,2,0,1,
5c01d3c509e9c70001500b10,SCN,2024-06-21_14h07.14.160,LearnStrategy,2023.2.3,Win32,60.0240096,6,2,4,,,,,,,,7,13,,,,,,,,,,,4,2.421,0,,,,,,0.441111111,-0.263333333,1,0,0,2.421,Gabbro_rect,3,0,3,0,1,
5c01d3c509e9c70001500b10,SCN,2024-06-21_14h07.14.160,LearnStrategy,2023.2.3,Win32,60.0240096,6,2,5,,,,,,,,1,05,,,,,,,,,,,3,4.035,0,,,,,,0.131111111,-0.253333333,1,0,0,4.035,Diorite_rect,4,0,4,0,1,
5c01d3c509e9c70001500b10,SCN,2024-06-21_14h07.14.160,LearnStrategy,2023.2.3,Win32,60.0240096,6,2,6,,,,,,,,6,13,,,,,,,,,,,6,1.196,1,,,,,,-0.164444444,-0.394444444,1,0,0,1.196,Pegmatite_rect,5,0,5,0,1,
5c01d3c509e9c70001500b10,SCN,2024-06-21_14h07.14.160,LearnStrategy,2023.2.3,Win32,60.0240096,6,2,7,,,,,,,,4,16,,,,,,,,,,,5,4.427,0,,,,,,-0.401111111,-0.4,1,0,0,4.427,Obsidian_rect,6,0,6,0,1,
5c01d3c509e9c70001500b10,SCN,2024-06-21_14h07.14.160,LearnStrategy,2023.2.3,Win32,60.0240096,6,2,8,,,,,,,,8,13,,,,,,,,,,,8,1.1,1,,,,,,0.375555556,-0.386666667,1,0,0,1.1,Pumice_rect,7,0,7,0,1,
5c01d3c509e9c70001500b10,SCN,2024-06-21_14h07.14.160,LearnStrategy,2023.2.3,Win32,60.0240096,6,2,9,,,,,,,,4,12,,,,,,,,,,,1,4.603,0,,,,,,-0.37,-0.261111111,1,0,0,4.603,Andesite_rect,8,0,8,0,1,
5c01d3c509e9c70001500b10,SCN,2024-06-21_14h07.14.160,LearnStrategy,2023.2.3,Win32,60.0240096,6,2,10,,,,,,,,5,06,,,,,,,,,,,5,1.557,1,,,,,,-0.346666667,-0.383333333,1,0,0,1.557,Obsidian_rect,9,0,9,0,1,
5c01d3c509e9c70001500b10,SCN,2024-06-21_14h07.14.160,LearnStrategy,2023.2.3,Win32,60.0240096,6,2,11,,,,,,,,5,11,,,,,,,,,,,5,1.307,1,,,,,,-0.335555556,-0.39,1,0,0,1.307,Obsidian_rect,10,0,10,0,1,
5c01d3c509e9c70001500b10,SCN,2024-06-21_14h07.14.160,LearnStrategy,2023.2.3,Win32,60.0240096,6,2,12,,,,,,,,8,06,,,,,,,,,,,8,1.697,1,,,,,,0.418888889,-0.394444444,1,0,0,1.697,Pumice_rect,11,0,11,0,1,
5c01d3c509e9c70001500b10,SCN,2024-06-21_14h07.14.160,LearnStrategy,2023.2.3,Win32,60.0240096,6,2,13,,,,,,,,3,09,,,,,,,,,,,3,1.485,1,,,,,,0.163333333,-0.25,1,0,0,1.485,Diorite_rect,12,0,12,0,1,
5c01d3c509e9c70001500b10,SCN,2024-06-21_14h07.14.160,LearnStrategy,2023.2.3,Win32,60.0240096,6,2,14,,,,,,,,3,08,,,,,,,,,,,4,1.436,0,,,,,,0.403333333,-0.257777778,1,0,0,1.436,Gabbro_rect,13,0,13,0,1,
5c01d3c509e9c70001500b10,SCN,2024-06-21_14h07.14.160,LearnStrategy,2023.2.3,Win32,60.0240096,6,2,15,,,,,,,,6,06,,,,,,,,,,,6,1.126,1,,,,,,-0.102222222,-0.397777778,1,0,0,1.126,Pegmatite_rect,14,0,14,0,1,
5c01d3c509e9c70001500b10,SCN,2024-06-21_14h07.14.160,LearnStrategy,2023.2.3,Win32,60.0240096,6,2,16,,,,,,,,2,05,,,,,,,,,,,5,1.557,0,,,,,,-0.397777778,-0.393333333,1,0,0,1.557,Obsidian_rect,15,0,15,0,1,
5c01d3c509e9c70001500b10,SCN,2024-06-21_14h07.14.160,LearnStrategy,2023.2.3,Win32,60.0240096,7,1,1,0.547777778,-0.422222222,1,0,0,3.013,Peridotite_14,7,14,1,8,3.013,0.442222222,-0.244444444,1,0,0,1.317,Gabbro_rect,4,1.317,0,0,0,0,0,1,,,,,,,,,,,,,
5c01d3c509e9c70001500b10,SCN,2024-06-21_14h07.14.160,LearnStrategy,2023.2.3,Win32,60.0240096,7,1,2,-0.076666667,-0.115555556,1,0,0,2.896,Gabbro_05,4,05,3,4,2.896,-0.146666667,-0.237777778,1,0,0,1.201,Basalt_rect,2,1.201,0,1,0,1,0,1,,,,,,,,,,,,,
5c01d3c509e9c70001500b10,SCN,2024-06-21_14h07.14.160,LearnStrategy,2023.2.3,Win32,60.0240096,7,1,3,0.087777778,0.074444444,1,0,0,1.162,Diorite_02,3,02,4,5,1.162,0.156666667,-0.247777778,1,0,0,1.38,Diorite_rect,3,1.38,1,2,0,2,0,1,,,,,,,,,,,,,
5c01d3c509e9c70001500b10,SCN,2024-06-21_14h07.14.160,LearnStrategy,2023.2.3,Win32,60.0240096,7,1,4,-0.232222222,0.284444444,1,0,0,2.678,Peridotite_02,7,02,5,3,2.678,0.375555556,-0.248888889,1,0,0,0.989,Gabbro_rect,4,0.989,0,3,0,3,0,1,,,,,,,,,,,,,
5c01d3c509e9c70001500b10,SCN,2024-06-21_14h07.14.160,LearnStrategy,2023.2.3,Win32,60.0240096,7,1,5,-0.557777778,-0.085555556,1,0,0,2.079,Diorite_15,3,15,3,1,2.079,0.404444444,-0.241111111,1,0,0,4.082,Gabbro_rect,4,4.082,0,4,0,4,0,1,,,,,,,,,,,,,
5c01d3c509e9c70001500b10,SCN,2024-06-21_14h07.14.160,LearnStrategy,2023.2.3,Win32,60.0240096,7,1,6,-0.575555556,0.402222222,1,0,0,1.116,Andesite_04,1,04,6,1,1.116,-0.35,-0.246666667,1,0,0,1.628,Andesite_rect,1,1.628,1,5,0,5,0,1,,,,,,,,,,,,,
5c01d3c509e9c70001500b10,SCN,2024-06-21_14h07.14.160,LearnStrategy,2023.2.3,Win32,60.0240096,7,1,7,-0.531111111,-0.092222222,1,0,0,1.345,Diorite_15,3,15,3,1,1.345,0.175555556,-0.242222222,1,0,0,1.805,Diorite_rect,3,1.805,1,6,0,6,0,1,,,,,,,,,,,,,
5c01d3c509e9c70001500b10,SCN,2024-06-21_14h07.14.160,LearnStrategy,2023.2.3,Win32,60.0240096,7,1,8,0.224444444,0.091111111,1,0,0,0.997,Diorite_14,3,14,4,6,0.997,0.126666667,-0.255555556,1,0,0,0.923,Diorite_rect,3,0.923,1,7,0,7,0,1,,,,,,,,,,,,,
5c01d3c509e9c70001500b10,SCN,2024-06-21_14h07.14.160,LearnStrategy,2023.2.3,Win32,60.0240096,7,1,9,0.088888889,0.27,1,0,0,0.895,Obsidian_05,5,05,5,5,0.895,-0.406666667,-0.412222222,1,0,0,1.909,Obsidian_rect,5,1.909,1,8,0,8,0,1,,,,,,,,,,,,,
5c01d3c509e9c70001500b10,SCN,2024-06-21_14h07.14.160,LearnStrategy,2023.2.3,Win32,60.0240096,7,1,10,-0.237777778,-0.248888889,1,0,0,1.131,Diorite_16,3,16,2,3,1.131,0.47,-0.252222222,1,0,0,2.869,Gabbro_rect,4,2.869,0,9,0,9,0,1,,,,,,,,,,,,,
5c01d3c509e9c70001500b10,SCN,2024-06-21_14h07.14.160,LearnStrategy,2023.2.3,Win32,60.0240096,7,1,11,0.414444444,-0.246666667,1,0,0,2.714,Diorite_13,3,13,2,7,2.714,0.385555556,-0.241111111,1,0,0,1.629,Gabbro_rect,4,1.629,0,10,0,10,0,1,,,,,,,,,,,,,
5c01d3c509e9c70001500b10,SCN,2024-06-21_14h07.14.160,LearnStrategy,2023.2.3,Win32,60.0240096,7,1,12,0.447777778,-0.275555556,1,0,0,0.714,Diorite_13,3,13,2,7,0.714,0.085555556,-0.258888889,1,0,0,0.975,Diorite_rect,3,0.975,1,11,0,11,0,1,,,,,,,,,,,,,
5c01d3c509e9c70001500b10,SCN,2024-06-21_14h07.14.160,LearnStrategy,2023.2.3,Win32,60.0240096,7,1,13,-0.221111111,0.098888889,1,0,0,1.248,Pegmatite_12,6,12,4,3,1.248,-0.154444444,-0.41,1,0,0,1.109,Pegmatite_rect,6,1.109,1,12,0,12,0,1,,,,,,,,,,,,,
5c01d3c509e9c70001500b10,SCN,2024-06-21_14h07.14.160,LearnStrategy,2023.2.3,Win32,60.0240096,7,1,14,-0.093333333,-0.092222222,1,0,0,1.663,Gabbro_05,4,05,3,4,1.663,0.092222222,-0.405555556,1,0,0,1.402,Peridotite_rect,7,1.402,0,13,0,13,0,1,,,,,,,,,,,,,
5c01d3c509e9c70001500b10,SCN,2024-06-21_14h07.14.160,LearnStrategy,2023.2.3,Win32,60.0240096,7,1,15,-0.04,-0.09,1,0,0,0.928,Gabbro_05,4,05,3,4,0.928,0.475555556,-0.25,1,0,0,0.72,Gabbro_rect,4,0.72,1,14,0,14,0,1,,,,,,,,,,,,,
5c01d3c509e9c70001500b10,SCN,2024-06-21_14h07.14.160,LearnStrategy,2023.2.3,Win32,60.0240096,7,1,16,-0.254444444,-0.104444444,1,0,0,1.68,Pegmatite_03,6,03,3,3,1.68,-0.096666667,-0.401111111,1,0,0,1.511,Pegmatite_rect,6,1.511,1,15,0,15,0,1,,,,,,,,,,,,,
5c01d3c509e9c70001500b10,SCN,2024-06-21_14h07.14.160,LearnStrategy,2023.2.3,Win32,60.0240096,7,2,1,,,,,,,,4,15,,,,,,,,,,,4,4.334,1,,,,,,0.462222222,-0.246666667,1,0,0,4.334,Gabbro_rect,0,0,0,0,1,
5c01d3c509e9c70001500b10,SCN,2024-06-21_14h07.14.160,LearnStrategy,2023.2.3,Win32,60.0240096,7,2,2,,,,,,,,2,04,,,,,,,,,,,2,2.346,1,,,,,,-0.124444444,-0.266666667,1,0,0,2.346,Basalt_rect,1,0,1,0,1,
5c01d3c509e9c70001500b10,SCN,2024-06-21_14h07.14.160,LearnStrategy,2023.2.3,Win32,60.0240096,7,2,3,,,,,,,,1,06,,,,,,,,,,,1,3.296,1,,,,,,-0.393333333,-0.268888889,1,0,0,3.296,Andesite_rect,2,0,2,0,1,
5c01d3c509e9c70001500b10,SCN,2024-06-21_14h07.14.160,LearnStrategy,2023.2.3,Win32,60.0240096,7,2,4,,,,,,,,8,10,,,,,,,,,,,8,1.174,1,,,,,,0.425555556,-0.39,1,0,0,1.174,Pumice_rect,3,0,3,0,1,
5c01d3c509e9c70001500b10,SCN,2024-06-21_14h07.14.160,LearnStrategy,2023.2.3,Win32,60.0240096,7,2,5,,,,,,,,1,03,,,,,,,,,,,1,1.273,1,,,,,,-0.368888889,-0.251111111,1,0,0,1.273,Andesite_rect,4,0,4,0,1,
5c01d3c509e9c70001500b10,SCN,2024-06-21_14h07.14.160,LearnStrategy,2023.2.3,Win32,60.0240096,7,2,6,,,,,,,,2,16,,,,,,,,,,,2,1.575,1,,,,,,-0.152222222,-0.256666667,1,0,0,1.575,Basalt_rect,5,0,5,0,1,
5c01d3c509e9c70001500b10,SCN,2024-06-21_14h07.14.160,LearnStrategy,2023.2.3,Win32,60.0240096,7,2,7,,,,,,,,3,08,,,,,,,,,,,3,2.26,1,,,,,,0.154444444,-0.258888889,1,0,0,2.26,Diorite_rect,6,0,6,0,1,
5c01d3c509e9c70001500b10,SCN,2024-06-21_14h07.14.160,LearnStrategy,2023.2.3,Win32,60.0240096,7,2,8,,,,,,,,7,08,,,,,,,,,,,7,1.284,1,,,,,,0.128888889,-0.396666667,1,0,0,1.284,Peridotite_rect,7,0,7,0,1,
5c01d3c509e9c70001500b10,SCN,2024-06-21_14h07.14.160,LearnStrategy,2023.2.3,Win32,60.0240096,7,2,9,,,,,,,,4,08,,,,,,,,,,,7,2.582,0,,,,,,0.067777778,-0.414444444,1,0,0,2.582,Peridotite_rect,8,0,8,0,1,
5c01d3c509e9c70001500b10,SCN,2024-06-21_14h07.14.160,LearnStrategy,2023.2.3,Win32,60.0240096,7,2,10,,,,,,,,6,05,,,,,,,,,,,6,1.045,1,,,,,,-0.168888889,-0.394444444,1,0,0,1.045,Pegmatite_rect,9,0,9,0,1,
5c01d3c509e9c70001500b10,SCN,2024-06-21_14h07.14.160,LearnStrategy,2023.2.3,Win32,60.0240096,7,2,11,,,,,,,,5,11,,,,,,,,,,,5,0.928,1,,,,,,-0.37,-0.388888889,1,0,0,0.928,Obsidian_rect,10,0,10,0,1,
5c01d3c509e9c70001500b10,SCN,2024-06-21_14h07.14.160,LearnStrategy,2023.2.3,Win32,60.0240096,7,2,12,,,,,,,,7,06,,,,,,,,,,,6,3.15,0,,,,,,-0.192222222,-0.403333333,1,0,0,3.15,Pegmatite_rect,11,0,11,0,1,
5c01d3c509e9c70001500b10,SCN,2024-06-21_14h07.14.160,LearnStrategy,2023.2.3,Win32,60.0240096,7,2,13,,,,,,,,8,06,,,,,,,,,,,8,0.932,1,,,,,,0.403333333,-0.397777778,1,0,0,0.932,Pumice_rect,12,0,12,0,1,
5c01d3c509e9c70001500b10,SCN,2024-06-21_14h07.14.160,LearnStrategy,2023.2.3,Win32,60.0240096,7,2,14,,,,,,,,5,12,,,,,,,,,,,5,0.985,1,,,,,,-0.376666667,-0.396666667,1,0,0,0.985,Obsidian_rect,13,0,13,0,1,
5c01d3c509e9c70001500b10,SCN,2024-06-21_14h07.14.160,LearnStrategy,2023.2.3,Win32,60.0240096,7,2,15,,,,,,,,3,07,,,,,,,,,,,3,1.412,1,,,,,,0.142222222,-0.262222222,1,0,0,1.412,Diorite_rect,14,0,14,0,1,
5c01d3c509e9c70001500b10,SCN,2024-06-21_14h07.14.160,LearnStrategy,2023.2.3,Win32,60.0240096,7,2,16,,,,,,,,6,11,,,,,,,,,,,6,0.926,1,,,,,,-0.113333333,-0.397777778,1,0,0,0.926,Pegmatite_rect,15,0,15,0,1,
5c01d3c509e9c70001500b10,SCN,2024-06-21_14h07.14.160,LearnStrategy,2023.2.3,Win32,60.0240096,8,1,1,-0.357777778,-0.108888889,1,0,0,1.464,Pumice_02,8,02,3,2,1.464,0.397777778,-0.386666667,1,0,0,1.244,Pumice_rect,8,1.244,1,0,0,0,0,1,,,,,,,,,,,,,
5c01d3c509e9c70001500b10,SCN,2024-06-21_14h07.14.160,LearnStrategy,2023.2.3,Win32,60.0240096,8,1,2,-0.543333333,-0.12,1,0,0,1.113,Diorite_15,3,15,3,1,1.113,0.124444444,-0.253333333,1,0,0,1.263,Diorite_rect,3,1.263,1,1,0,1,0,1,,,,,,,,,,,,,
5c01d3c509e9c70001500b10,SCN,2024-06-21_14h07.14.160,LearnStrategy,2023.2.3,Win32,60.0240096,8,1,3,-0.244444444,-0.278888889,1,0,0,2.046,Diorite_16,3,16,2,3,2.046,0.105555556,-0.26,1,0,0,0.827,Diorite_rect,3,0.827,1,2,0,2,0,1,,,,,,,,,,,,,
5c01d3c509e9c70001500b10,SCN,2024-06-21_14h07.14.160,LearnStrategy,2023.2.3,Win32,60.0240096,8,1,4,0.236666667,0.087777778,1,0,0,0.714,Diorite_14,3,14,4,6,0.714,0.112222222,-0.257777778,1,0,0,0.721,Diorite_rect,3,0.721,1,3,0,3,0,1,,,,,,,,,,,,,
5c01d3c509e9c70001500b10,SCN,2024-06-21_14h07.14.160,LearnStrategy,2023.2.3,Win32,60.0240096,8,1,5,0.094444444,0.401111111,1,0,0,2.346,Peridotite_16,7,16,6,5,2.346,0.391111111,-0.242222222,1,0,0,2.172,Gabbro_rect,4,2.172,0,4,0,4,0,1,,,,,,,,,,,,,
5c01d3c509e9c70001500b10,SCN,2024-06-21_14h07.14.160,LearnStrategy,2023.2.3,Win32,60.0240096,8,1,6,0.228888889,-0.278888889,1,0,0,1.613,Gabbro_14,4,14,2,6,1.613,0.114444444,-0.397777778,1,0,0,1.269,Peridotite_rect,7,1.269,0,5,0,5,0,1,,,,,,,,,,,,,
5c01d3c509e9c70001500b10,SCN,2024-06-21_14h07.14.160,LearnStrategy,2023.2.3,Win32,60.0240096,8,1,7,0.397777778,-0.247777778,1,0,0,1.562,Diorite_13,3,13,2,7,1.562,0.107777778,-0.414444444,1,0,0,2.53,Peridotite_rect,7,2.53,0,6,0,6,0,1,,,,,,,,,,,,,
5c01d3c509e9c70001500b10,SCN,2024-06-21_14h07.14.160,LearnStrategy,2023.2.3,Win32,60.0240096,8,1,8,-0.545555556,-0.102222222,1,0,0,2.097,Diorite_15,3,15,3,1,2.097,0.126666667,-0.258888889,1,0,0,1.517,Diorite_rect,3,1.517,1,7,0,7,0,1,,,,,,,,,,,,,
5c01d3c509e9c70001500b10,SCN,2024-06-21_14h07.14.160,LearnStrategy,2023.2.3,Win32,60.0240096,8,1,9,0.562222222,-0.241111111,1,0,0,2.56,Gabbro_10,4,10,2,8,2.56,0.38,-0.253333333,1,0,0,3.36,Gabbro_rect,4,3.36,1,8,0,8,0,1,,,,,,,,,,,,,
5c01d3c509e9c70001500b10,SCN,2024-06-21_14h07.14.160,LearnStrategy,2023.2.3,Win32,60.0240096,8,1,10,0.581111111,0.081111111,1,0,0,1.896,Peridotite_15,7,15,4,8,1.896,0.128888889,-0.4,1,0,0,1.47,Peridotite_rect,7,1.47,1,9,0,9,0,1,,,,,,,,,,,,,
5c01d3c509e9c70001500b10,SCN,2024-06-21_14h07.14.160,LearnStrategy,2023.2.3,Win32,60.0240096,8,1,11,0.084444444,0.087777778,1,0,0,0.747,Diorite_02,3,02,4,5,0.747,0.147777778,-0.233333333,1,0,0,1.1,Diorite_rect,3,1.1,1,10,0,10,0,1,,,,,,,,,,,,,
5c01d3c509e9c70001500b10,SCN,2024-06-21_14h07.14.160,LearnStrategy,2023.2.3,Win32,60.0240096,8,1,12,-0.061111111,0.117777778,1,0,0,0.847,Basalt_12,2,12,4,4,0.847,-0.096666667,-0.231111111,1,0,0,2.375,Basalt_rect,2,2.375,1,11,0,11,0,1,,,,,,,,,,,,,
5c01d3c509e9c70001500b10,SCN,2024-06-21_14h07.14.160,LearnStrategy,2023.2.3,Win32,60.0240096,8,1,13,-0.074444444,0.246666667,1,0,0,1.398,Peridotite_10,7,10,5,4,1.398,0.136666667,-0.413333333,1,0,0,1.621,Peridotite_rect,7,1.621,1,12,0,12,0,1,,,,,,,,,,,,,
5c01d3c509e9c70001500b10,SCN,2024-06-21_14h07.14.160,LearnStrategy,2023.2.3,Win32,60.0240096,8,1,14,0.395555556,0.408888889,1,0,0,1.865,Pumice_08,8,08,6,7,1.865,0.351111111,-0.385555556,1,0,0,1.209,Pumice_rect,8,1.209,1,13,0,13,0,1,,,,,,,,,,,,,
5c01d3c509e9c70001500b10,SCN,2024-06-21_14h07.14.160,LearnStrategy,2023.2.3,Win32,60.0240096,8,1,15,0.55,0.404444444,1,0,0,0.992,Andesite_10,1,10,6,8,0.992,-0.357777778,-0.243333333,1,0,0,1.543,Andesite_rect,1,1.543,1,14,0,14,0,1,,,,,,,,,,,,,
5c01d3c509e9c70001500b10,SCN,2024-06-21_14h07.14.160,LearnStrategy,2023.2.3,Win32,60.0240096,8,1,16,-0.223333333,0.402222222,1,0,0,1.38,Diorite_06,3,06,6,3,1.38,0.147777778,-0.241111111,1,0,0,1.153,Diorite_rect,3,1.153,1,15,0,15,0,1,,,,,,,,,,,,,
5c01d3c509e9c70001500b10,SCN,2024-06-21_14h07.14.160,LearnStrategy,2023.2.3,Win32,60.0240096,8,2,1,,,,,,,,6,10,,,,,,,,,,,6,1.496,1,,,,,,-0.151111111,-0.408888889,1,0,0,1.496,Pegmatite_rect,0,0,0,0,1,
5c01d3c509e9c70001500b10,SCN,2024-06-21_14h07.14.160,LearnStrategy,2023.2.3,Win32,60.0240096,8,2,2,,,,,,,,2,09,,,,,,,,,,,2,1.016,1,,,,,,-0.164444444,-0.241111111,1,0,0,1.016,Basalt_rect,1,0,1,0,1,
5c01d3c509e9c70001500b10,SCN,2024-06-21_14h07.14.160,LearnStrategy,2023.2.3,Win32,60.0240096,8,2,3,,,,,,,,1,01,,,,,,,,,,,7,10.871,0,,,,,,0.163333333,-0.41,1,0,0,10.871,Peridotite_rect,2,0,2,0,1,
5c01d3c509e9c70001500b10,SCN,2024-06-21_14h07.14.160,LearnStrategy,2023.2.3,Win32,60.0240096,8,2,4,,,,,,,,3,11,,,,,,,,,,,3,1.079,1,,,,,,0.163333333,-0.254444444,1,0,0,1.079,Diorite_rect,3,0,3,0,1,
5c01d3c509e9c70001500b10,SCN,2024-06-21_14h07.14.160,LearnStrategy,2023.2.3,Win32,60.0240096,8,2,5,,,,,,,,1,05,,,,,,,,,,,1,2.313,1,,,,,,-0.351111111,-0.234444444,1,0,0,2.313,Andesite_rect,4,0,4,0,1,
5c01d3c509e9c70001500b10,SCN,2024-06-21_14h07.14.160,LearnStrategy,2023.2.3,Win32,60.0240096,8,2,6,,,,,,,,7,07,,,,,,,,,,,7,1.343,1,,,,,,0.122222222,-0.405555556,1,0,0,1.343,Peridotite_rect,5,0,5,0,1,
5c01d3c509e9c70001500b10,SCN,2024-06-21_14h07.14.160,LearnStrategy,2023.2.3,Win32,60.0240096,8,2,7,,,,,,,,8,14,,,,,,,,,,,8,4.813,1,,,,,,0.397777778,-0.392222222,1,0,0,4.813,Pumice_rect,6,0,6,0,1,
5c01d3c509e9c70001500b10,SCN,2024-06-21_14h07.14.160,LearnStrategy,2023.2.3,Win32,60.0240096,8,2,8,,,,,,,,7,12,,,,,,,,,,,7,2.319,1,,,,,,0.09,-0.414444444,1,0,0,2.319,Peridotite_rect,7,0,7,0,1,
5c01d3c509e9c70001500b10,SCN,2024-06-21_14h07.14.160,LearnStrategy,2023.2.3,Win32,60.0240096,8,2,9,,,,,,,,4,16,,,,,,,,,,,7,3.822,0,,,,,,0.088888889,-0.392222222,1,0,0,3.822,Peridotite_rect,8,0,8,0,1,
5c01d3c509e9c70001500b10,SCN,2024-06-21_14h07.14.160,LearnStrategy,2023.2.3,Win32,60.0240096,8,2,10,,,,,,,,3,10,,,,,,,,,,,3,2.303,1,,,,,,0.097777778,-0.262222222,1,0,0,2.303,Diorite_rect,9,0,9,0,1,
5c01d3c509e9c70001500b10,SCN,2024-06-21_14h07.14.160,LearnStrategy,2023.2.3,Win32,60.0240096,8,2,11,,,,,,,,5,08,,,,,,,,,,,5,1.025,1,,,,,,-0.426666667,-0.407777778,1,0,0,1.025,Obsidian_rect,10,0,10,0,1,
5c01d3c509e9c70001500b10,SCN,2024-06-21_14h07.14.160,LearnStrategy,2023.2.3,Win32,60.0240096,8,2,12,,,,,,,,4,01,,,,,,,,,,,4,2.826,1,,,,,,0.38,-0.245555556,1,0,0,2.826,Gabbro_rect,11,0,11,0,1,
5c01d3c509e9c70001500b10,SCN,2024-06-21_14h07.14.160,LearnStrategy,2023.2.3,Win32,60.0240096,8,2,13,,,,,,,,5,16,,,,,,,,,,,5,1.011,1,,,,,,-0.418888889,-0.411111111,1,0,0,1.011,Obsidian_rect,12,0,12,0,1,
5c01d3c509e9c70001500b10,SCN,2024-06-21_14h07.14.160,LearnStrategy,2023.2.3,Win32,60.0240096,8,2,14,,,,,,,,6,07,,,,,,,,,,,6,1.022,1,,,,,,-0.221111111,-0.388888889,1,0,0,1.022,Pegmatite_rect,13,0,13,0,1,
5c01d3c509e9c70001500b10,SCN,2024-06-21_14h07.14.160,LearnStrategy,2023.2.3,Win32,60.0240096,8,2,15,,,,,,,,2,11,,,,,,,,,,,2,1.135,1,,,,,,-0.168888889,-0.262222222,1,0,0,1.135,Basalt_rect,14,0,14,0,1,
5c01d3c509e9c70001500b10,SCN,2024-06-21_14h07.14.160,LearnStrategy,2023.2.3,Win32,60.0240096,8,2,16,,,,,,,,8,13,,,,,,,,,,,8,1.159,1,,,,,,0.387777778,-0.403333333,1,0,0,1.159,Pumice_rect,15,0,15,0,1,
5c01d3c509e9c70001500b10,SCN,2024-06-21_14h07.14.160,LearnStrategy,2023.2.3,Win32,60.0240096,9,1,1,0.091111111,0.092222222,1,0,0,1.16,Diorite_02,3,02,4,5,1.16,0.138888889,-0.253333333,1,0,0,1.012,Diorite_rect,3,1.012,1,0,0,0,0,1,,,,,,,,,,,,,
5c01d3c509e9c70001500b10,SCN,2024-06-21_14h07.14.160,LearnStrategy,2023.2.3,Win32,60.0240096,9,1,2,-0.22,-0.252222222,1,0,0,1.848,Diorite_16,3,16,2,3,1.848,0.16,-0.25,1,0,0,0.628,Diorite_rect,3,0.628,1,1,0,1,0,1,,,,,,,,,,,,,
5c01d3c509e9c70001500b10,SCN,2024-06-21_14h07.14.160,LearnStrategy,2023.2.3,Win32,60.0240096,9,1,3,0.547777778,0.112222222,1,0,0,4.194,Peridotite_15,7,15,4,8,4.194,0.166666667,-0.387777778,1,0,0,1.353,Peridotite_rect,7,1.353,1,2,0,2,0,1,,,,,,,,,,,,,
5c01d3c509e9c70001500b10,SCN,2024-06-21_14h07.14.160,LearnStrategy,2023.2.3,Win32,60.0240096,9,1,4,0.115555556,0.407777778,1,0,0,1.015,Peridotite_16,7,16,6,5,1.015,0.111111111,-0.394444444,1,0,0,1.46,Peridotite_rect,7,1.46,1,3,0,3,0,1,,,,,,,,,,,,,
5c01d3c509e9c70001500b10,SCN,2024-06-21_14h07.14.160,LearnStrategy,2023.2.3,Win32,60.0240096,9,1,5,-0.201111111,0.261111111,1,0,0,1.298,Peridotite_02,7,02,5,3,1.298,0.166666667,-0.393333333,1,0,0,1.198,Peridotite_rect,7,1.198,1,4,0,4,0,1,,,,,,,,,,,,,
5c01d3c509e9c70001500b10,SCN,2024-06-21_14h07.14.160,LearnStrategy,2023.2.3,Win32,60.0240096,9,1,6,-0.095555556,-0.1,1,0,0,2.747,Gabbro_05,4,05,3,4,2.747,0.397777778,-0.258888889,1,0,0,0.99,Gabbro_rect,4,0.99,1,5,0,5,0,1,,,,,,,,,,,,,
5c01d3c509e9c70001500b10,SCN,2024-06-21_14h07.14.160,LearnStrategy,2023.2.3,Win32,60.0240096,9,1,7,0.402222222,-0.117777778,1,0,0,1.345,Gabbro_09,4,09,3,7,1.345,0.378888889,-0.247777778,1,0,0,1.125,Gabbro_rect,4,1.125,1,6,0,6,0,1,,,,,,,,,,,,,
5c01d3c509e9c70001500b10,SCN,2024-06-21_14h07.14.160,LearnStrategy,2023.2.3,Win32,60.0240096,9,1,8,-0.241111111,0.113333333,1,0,0,1.231,Pegmatite_12,6,12,4,3,1.231,-0.152222222,-0.386666667,1,0,0,0.993,Pegmatite_rect,6,0.993,1,7,0,7,0,1,,,,,,,,,,,,,
5c01d3c509e9c70001500b10,SCN,2024-06-21_14h07.14.160,LearnStrategy,2023.2.3,Win32,60.0240096,9,1,9,0.271111111,0.257777778,1,0,0,1.726,Pumice_09,8,09,5,6,1.726,0.408888889,-0.394444444,1,0,0,1.265,Pumice_rect,8,1.265,1,8,0,8,0,1,,,,,,,,,,,,,
5c01d3c509e9c70001500b10,SCN,2024-06-21_14h07.14.160,LearnStrategy,2023.2.3,Win32,60.0240096,9,1,10,-0.231111111,0.403333333,1,0,0,1.631,Diorite_06,3,06,6,3,1.631,0.125555556,-0.264444444,1,0,0,0.816,Diorite_rect,3,0.816,1,9,0,9,0,1,,,,,,,,,,,,,
5c01d3c509e9c70001500b10,SCN,2024-06-21_14h07.14.160,LearnStrategy,2023.2.3,Win32,60.0240096,9,1,11,-0.373333333,0.43,1,0,0,0.831,Basalt_14,2,14,6,2,0.831,-0.123333333,-0.261111111,1,0,0,0.991,Basalt_rect,2,0.991,1,10,0,10,0,1,,,,,,,,,,,,,
5c01d3c509e9c70001500b10,SCN,2024-06-21_14h07.14.160,LearnStrategy,2023.2.3,Win32,60.0240096,9,1,12,-0.556666667,0.412222222,1,0,0,0.829,Andesite_04,1,04,6,1,0.829,-0.361111111,-0.248888889,1,0,0,0.976,Andesite_rect,1,0.976,1,11,0,11,0,1,,,,,,,,,,,,,
5c01d3c509e9c70001500b10,SCN,2024-06-21_14h07.14.160,LearnStrategy,2023.2.3,Win32,60.0240096,9,1,13,-0.553333333,0.228888889,1,0,0,1.564,Andesite_11,1,11,5,1,1.564,-0.354444444,-0.267777778,1,0,0,1.321,Andesite_rect,1,1.321,1,12,0,12,0,1,,,,,,,,,,,,,
5c01d3c509e9c70001500b10,SCN,2024-06-21_14h07.14.160,LearnStrategy,2023.2.3,Win32,60.0240096,9,1,14,-0.236666667,-0.106666667,1,0,0,1.697,Pegmatite_03,6,03,3,3,1.697,-0.154444444,-0.4,1,0,0,1.187,Pegmatite_rect,6,1.187,1,13,0,13,0,1,,,,,,,,,,,,,
5c01d3c509e9c70001500b10,SCN,2024-06-21_14h07.14.160,LearnStrategy,2023.2.3,Win32,60.0240096,9,1,15,0.075555556,-0.256666667,1,0,0,0.999,Pumice_03,8,03,2,5,0.999,0.39,-0.4,1,0,0,0.704,Pumice_rect,8,0.704,1,14,0,14,0,1,,,,,,,,,,,,,
5c01d3c509e9c70001500b10,SCN,2024-06-21_14h07.14.160,LearnStrategy,2023.2.3,Win32,60.0240096,9,1,16,-0.058888889,-0.256666667,1,0,0,1.481,Pumice_04,8,04,2,4,1.481,0.431111111,-0.406666667,1,0,0,0.694,Pumice_rect,8,0.694,1,15,0,15,0,1,,,,,,,,,,,,,
5c01d3c509e9c70001500b10,SCN,2024-06-21_14h07.14.160,LearnStrategy,2023.2.3,Win32,60.0240096,9,2,1,,,,,,,,5,06,,,,,,,,,,,5,1.286,1,,,,,,-0.404444444,-0.393333333,1,0,0,1.286,Obsidian_rect,0,0,0,0,1,
5c01d3c509e9c70001500b10,SCN,2024-06-21_14h07.14.160,LearnStrategy,2023.2.3,Win32,60.0240096,9,2,2,,,,,,,,5,07,,,,,,,,,,,5,0.749,1,,,,,,-0.402222222,-0.412222222,1,0,0,0.749,Obsidian_rect,1,0,1,0,1,
5c01d3c509e9c70001500b10,SCN,2024-06-21_14h07.14.160,LearnStrategy,2023.2.3,Win32,60.0240096,9,2,3,,,,,,,,2,02,,,,,,,,,,,2,2.312,1,,,,,,-0.143333333,-0.254444444,1,0,0,2.312,Basalt_rect,2,0,2,0,1,
5c01d3c509e9c70001500b10,SCN,2024-06-21_14h07.14.160,LearnStrategy,2023.2.3,Win32,60.0240096,9,2,4,,,,,,,,4,12,,,,,,,,,,,4,4.095,1,,,,,,0.418888889,-0.258888889,1,0,0,4.095,Gabbro_rect,3,0,3,0,1,
5c01d3c509e9c70001500b10,SCN,2024-06-21_14h07.14.160,LearnStrategy,2023.2.3,Win32,60.0240096,9,2,5,,,,,,,,8,05,,,,,,,,,,,8,1.401,1,,,,,,0.4,-0.401111111,1,0,0,1.401,Pumice_rect,4,0,4,0,1,
5c01d3c509e9c70001500b10,SCN,2024-06-21_14h07.14.160,LearnStrategy,2023.2.3,Win32,60.0240096,9,2,6,,,,,,,,7,13,,,,,,,,,,,7,1.09,1,,,,,,0.151111111,-0.398888889,1,0,0,1.09,Peridotite_rect,5,0,5,0,1,
5c01d3c509e9c70001500b10,SCN,2024-06-21_14h07.14.160,LearnStrategy,2023.2.3,Win32,60.0240096,9,2,7,,,,,,,,7,04,,,,,,,,,,,7,0.829,1,,,,,,0.151111111,-0.4,1,0,0,0.829,Peridotite_rect,6,0,6,0,1,
5c01d3c509e9c70001500b10,SCN,2024-06-21_14h07.14.160,LearnStrategy,2023.2.3,Win32,60.0240096,9,2,8,,,,,,,,6,06,,,,,,,,,,,6,0.99,1,,,,,,-0.132222222,-0.386666667,1,0,0,0.99,Pegmatite_rect,7,0,7,0,1,
5c01d3c509e9c70001500b10,SCN,2024-06-21_14h07.14.160,LearnStrategy,2023.2.3,Win32,60.0240096,9,2,9,,,,,,,,1,07,,,,,,,,,,,3,3.534,0,,,,,,0.13,-0.236666667,1,0,0,3.534,Diorite_rect,8,0,8,0,1,
5c01d3c509e9c70001500b10,SCN,2024-06-21_14h07.14.160,LearnStrategy,2023.2.3,Win32,60.0240096,9,2,10,,,,,,,,4,11,,,,,,,,,,,4,1.182,1,,,,,,0.331111111,-0.23,1,0,0,1.182,Gabbro_rect,9,0,9,0,1,
5c01d3c509e9c70001500b10,SCN,2024-06-21_14h07.14.160,LearnStrategy,2023.2.3,Win32,60.0240096,9,2,11,,,,,,,,6,13,,,,,,,,,,,6,0.955,1,,,,,,-0.141111111,-0.4,1,0,0,0.955,Pegmatite_rect,10,0,10,0,1,
5c01d3c509e9c70001500b10,SCN,2024-06-21_14h07.14.160,LearnStrategy,2023.2.3,Win32,60.0240096,9,2,12,,,,,,,,2,05,,,,,,,,,,,2,2.879,1,,,,,,-0.177777778,-0.26,1,0,0,2.879,Basalt_rect,11,0,11,0,1,
5c01d3c509e9c70001500b10,SCN,2024-06-21_14h07.14.160,LearnStrategy,2023.2.3,Win32,60.0240096,9,2,13,,,,,,,,8,15,,,,,,,,,,,8,1.096,1,,,,,,0.372222222,-0.41,1,0,0,1.096,Pumice_rect,12,0,12,0,1,
5c01d3c509e9c70001500b10,SCN,2024-06-21_14h07.14.160,LearnStrategy,2023.2.3,Win32,60.0240096,9,2,14,,,,,,,,1,16,,,,,,,,,,,6,4.48,0,,,,,,-0.122222222,-0.398888889,1,0,0,4.48,Pegmatite_rect,13,0,13,0,1,
5c01d3c509e9c70001500b10,SCN,2024-06-21_14h07.14.160,LearnStrategy,2023.2.3,Win32,60.0240096,9,2,15,,,,,,,,3,12,,,,,,,,,,,3,1.079,1,,,,,,0.121111111,-0.261111111,1,0,0,1.079,Diorite_rect,14,0,14,0,1,
5c01d3c509e9c70001500b10,SCN,2024-06-21_14h07.14.160,LearnStrategy,2023.2.3,Win32,60.0240096,9,2,16,,,,,,,,3,09,,,,,,,,,,,3,1.077,1,,,,,,0.113333333,-0.263333333,1,0,0,1.077,Diorite_rect,15,0,15,0,1,
5c01d3c509e9c70001500b10,SCN,2024-06-21_14h07.14.160,LearnStrategy,2023.2.3,Win32,60.0240096,,,,,,,,,,,,,,,,,,,,,,,,,,,,,,,,,,,,,,,,,,,1
5c01d3c509e9c70001500b10,SCN,2024-06-21_14h07.14.160,LearnStrategy,2023.2.3,Win32,60.0240096,,,,,,,,,,,,,,,,,,,,,,,,,,,,,,,,,,,,,,,,,,,
5c01d3c509e9c70001500b10,SCN,2024-06-21_14h07.14.160,LearnStrategy,2023.2.3,Win32,60.0240096,,,,,,,,,,,6,08,1,1,,,,,,,,,,,,,,,,,,,,,,,,,,,,,
5c01d3c509e9c70001500b10,SCN,2024-06-21_14h07.14.160,LearnStrategy,2023.2.3,Win32,60.0240096,,,,,,,,,,,6,15,1,2,,,,,,,,,,,,,,,,,,,,,,,,,,,,,
5c01d3c509e9c70001500b10,SCN,2024-06-21_14h07.14.160,LearnStrategy,2023.2.3,Win32,60.0240096,,,,,,,,,,,5,10,1,3,,,,,,,,,,,,,,,,,,,,,,,,,,,,,
5c01d3c509e9c70001500b10,SCN,2024-06-21_14h07.14.160,LearnStrategy,2023.2.3,Win32,60.0240096,,,,,,,,,,,2,10,1,4,,,,,,,,,,,,,,,,,,,,,,,,,,,,,
5c01d3c509e9c70001500b10,SCN,2024-06-21_14h07.14.160,LearnStrategy,2023.2.3,Win32,60.0240096,,,,,,,,,,,2,08,1,5,,,,,,,,,,,,,,,,,,,,,,,,,,,,,
5c01d3c509e9c70001500b10,SCN,2024-06-21_14h07.14.160,LearnStrategy,2023.2.3,Win32,60.0240096,,,,,,,,,,,5,14,1,6,,,,,,,,,,,,,,,,,,,,,,,,,,,,,
5c01d3c509e9c70001500b10,SCN,2024-06-21_14h07.14.160,LearnStrategy,2023.2.3,Win32,60.0240096,,,,,,,,,,,5,04,1,7,,,,,,,,,,,,,,,,,,,,,,,,,,,,,
5c01d3c509e9c70001500b10,SCN,2024-06-21_14h07.14.160,LearnStrategy,2023.2.3,Win32,60.0240096,,,,,,,,,,,7,14,1,8,,,,,,,,,,,,,,,,,,,,,,,,,,,,,
5c01d3c509e9c70001500b10,SCN,2024-06-21_14h07.14.160,LearnStrategy,2023.2.3,Win32,60.0240096,,,,,,,,,,,6,16,2,1,,,,,,,,,,,,,,,,,,,,,,,,,,,,,
5c01d3c509e9c70001500b10,SCN,2024-06-21_14h07.14.160,LearnStrategy,2023.2.3,Win32,60.0240096,,,,,,,,,,,7,05,2,2,,,,,,,,,,,,,,,,,,,,,,,,,,,,,
5c01d3c509e9c70001500b10,SCN,2024-06-21_14h07.14.160,LearnStrategy,2023.2.3,Win32,60.0240096,,,,,,,,,,,3,16,2,3,,,,,,,,,,,,,,,,,,,,,,,,,,,,,
5c01d3c509e9c70001500b10,SCN,2024-06-21_14h07.14.160,LearnStrategy,2023.2.3,Win32,60.0240096,,,,,,,,,,,8,04,2,4,,,,,,,,,,,,,,,,,,,,,,,,,,,,,
5c01d3c509e9c70001500b10,SCN,2024-06-21_14h07.14.160,LearnStrategy,2023.2.3,Win32,60.0240096,,,,,,,,,,,8,03,2,5,,,,,,,,,,,,,,,,,,,,,,,,,,,,,
5c01d3c509e9c70001500b10,SCN,2024-06-21_14h07.14.160,LearnStrategy,2023.2.3,Win32,60.0240096,,,,,,,,,,,4,14,2,6,,,,,,,,,,,,,,,,,,,,,,,,,,,,,
5c01d3c509e9c70001500b10,SCN,2024-06-21_14h07.14.160,LearnStrategy,2023.2.3,Win32,60.0240096,,,,,,,,,,,3,13,2,7,,,,,,,,,,,,,,,,,,,,,,,,,,,,,
5c01d3c509e9c70001500b10,SCN,2024-06-21_14h07.14.160,LearnStrategy,2023.2.3,Win32,60.0240096,,,,,,,,,,,4,10,2,8,,,,,,,,,,,,,,,,,,,,,,,,,,,,,
5c01d3c509e9c70001500b10,SCN,2024-06-21_14h07.14.160,LearnStrategy,2023.2.3,Win32,60.0240096,,,,,,,,,,,3,15,3,1,,,,,,,,,,,,,,,,,,,,,,,,,,,,,
5c01d3c509e9c70001500b10,SCN,2024-06-21_14h07.14.160,LearnStrategy,2023.2.3,Win32,60.0240096,,,,,,,,,,,8,02,3,2,,,,,,,,,,,,,,,,,,,,,,,,,,,,,
5c01d3c509e9c70001500b10,SCN,2024-06-21_14h07.14.160,LearnStrategy,2023.2.3,Win32,60.0240096,,,,,,,,,,,6,03,3,3,,,,,,,,,,,,,,,,,,,,,,,,,,,,,
5c01d3c509e9c70001500b10,SCN,2024-06-21_14h07.14.160,LearnStrategy,2023.2.3,Win32,60.0240096,,,,,,,,,,,4,05,3,4,,,,,,,,,,,,,,,,,,,,,,,,,,,,,
5c01d3c509e9c70001500b10,SCN,2024-06-21_14h07.14.160,LearnStrategy,2023.2.3,Win32,60.0240096,,,,,,,,,,,1,14,3,5,,,,,,,,,,,,,,,,,,,,,,,,,,,,,
5c01d3c509e9c70001500b10,SCN,2024-06-21_14h07.14.160,LearnStrategy,2023.2.3,Win32,60.0240096,,,,,,,,,,,1,02,3,6,,,,,,,,,,,,,,,,,,,,,,,,,,,,,
5c01d3c509e9c70001500b10,SCN,2024-06-21_14h07.14.160,LearnStrategy,2023.2.3,Win32,60.0240096,,,,,,,,,,,4,09,3,7,,,,,,,,,,,,,,,,,,,,,,,,,,,,,
5c01d3c509e9c70001500b10,SCN,2024-06-21_14h07.14.160,LearnStrategy,2023.2.3,Win32,60.0240096,,,,,,,,,,,4,13,3,8,,,,,,,,,,,,,,,,,,,,,,,,,,,,,
5c01d3c509e9c70001500b10,SCN,2024-06-21_14h07.14.160,LearnStrategy,2023.2.3,Win32,60.0240096,,,,,,,,,,,2,06,4,1,,,,,,,,,,,,,,,,,,,,,,,,,,,,,
5c01d3c509e9c70001500b10,SCN,2024-06-21_14h07.14.160,LearnStrategy,2023.2.3,Win32,60.0240096,,,,,,,,,,,1,09,4,2,,,,,,,,,,,,,,,,,,,,,,,,,,,,,
5c01d3c509e9c70001500b10,SCN,2024-06-21_14h07.14.160,LearnStrategy,2023.2.3,Win32,60.0240096,,,,,,,,,,,6,12,4,3,,,,,,,,,,,,,,,,,,,,,,,,,,,,,
5c01d3c509e9c70001500b10,SCN,2024-06-21_14h07.14.160,LearnStrategy,2023.2.3,Win32,60.0240096,,,,,,,,,,,2,12,4,4,,,,,,,,,,,,,,,,,,,,,,,,,,,,,
5c01d3c509e9c70001500b10,SCN,2024-06-21_14h07.14.160,LearnStrategy,2023.2.3,Win32,60.0240096,,,,,,,,,,,3,02,4,5,,,,,,,,,,,,,,,,,,,,,,,,,,,,,
5c01d3c509e9c70001500b10,SCN,2024-06-21_14h07.14.160,LearnStrategy,2023.2.3,Win32,60.0240096,,,,,,,,,,,3,14,4,6,,,,,,,,,,,,,,,,,,,,,,,,,,,,,
5c01d3c509e9c70001500b10,SCN,2024-06-21_14h07.14.160,LearnStrategy,2023.2.3,Win32,60.0240096,,,,,,,,,,,8,16,4,7,,,,,,,,,,,,,,,,,,,,,,,,,,,,,
5c01d3c509e9c70001500b10,SCN,2024-06-21_14h07.14.160,LearnStrategy,2023.2.3,Win32,60.0240096,,,,,,,,,,,7,15,4,8,,,,,,,,,,,,,,,,,,,,,,,,,,,,,
5c01d3c509e9c70001500b10,SCN,2024-06-21_14h07.14.160,LearnStrategy,2023.2.3,Win32,60.0240096,,,,,,,,,,,1,11,5,1,,,,,,,,,,,,,,,,,,,,,,,,,,,,,
5c01d3c509e9c70001500b10,SCN,2024-06-21_14h07.14.160,LearnStrategy,2023.2.3,Win32,60.0240096,,,,,,,,,,,4,03,5,2,,,,,,,,,,,,,,,,,,,,,,,,,,,,,
5c01d3c509e9c70001500b10,SCN,2024-06-21_14h07.14.160,LearnStrategy,2023.2.3,Win32,60.0240096,,,,,,,,,,,7,02,5,3,,,,,,,,,,,,,,,,,,,,,,,,,,,,,
5c01d3c509e9c70001500b10,SCN,2024-06-21_14h07.14.160,LearnStrategy,2023.2.3,Win32,60.0240096,,,,,,,,,,,7,10,5,4,,,,,,,,,,,,,,,,,,,,,,,,,,,,,
5c01d3c509e9c70001500b10,SCN,2024-06-21_14h07.14.160,LearnStrategy,2023.2.3,Win32,60.0240096,,,,,,,,,,,5,05,5,5,,,,,,,,,,,,,,,,,,,,,,,,,,,,,
5c01d3c509e9c70001500b10,SCN,2024-06-21_14h07.14.160,LearnStrategy,2023.2.3,Win32,60.0240096,,,,,,,,,,,8,09,5,6,,,,,,,,,,,,,,,,,,,,,,,,,,,,,
5c01d3c509e9c70001500b10,SCN,2024-06-21_14h07.14.160,LearnStrategy,2023.2.3,Win32,60.0240096,,,,,,,,,,,5,02,5,7,,,,,,,,,,,,,,,,,,,,,,,,,,,,,
5c01d3c509e9c70001500b10,SCN,2024-06-21_14h07.14.160,LearnStrategy,2023.2.3,Win32,60.0240096,,,,,,,,,,,5,09,5,8,,,,,,,,,,,,,,,,,,,,,,,,,,,,,
5c01d3c509e9c70001500b10,SCN,2024-06-21_14h07.14.160,LearnStrategy,2023.2.3,Win32,60.0240096,,,,,,,,,,,1,04,6,1,,,,,,,,,,,,,,,,,,,,,,,,,,,,,
5c01d3c509e9c70001500b10,SCN,2024-06-21_14h07.14.160,LearnStrategy,2023.2.3,Win32,60.0240096,,,,,,,,,,,2,14,6,2,,,,,,,,,,,,,,,,,,,,,,,,,,,,,
5c01d3c509e9c70001500b10,SCN,2024-06-21_14h07.14.160,LearnStrategy,2023.2.3,Win32,60.0240096,,,,,,,,,,,3,06,6,3,,,,,,,,,,,,,,,,,,,,,,,,,,,,,
5c01d3c509e9c70001500b10,SCN,2024-06-21_14h07.14.160,LearnStrategy,2023.2.3,Win32,60.0240096,,,,,,,,,,,6,09,6,4,,,,,,,,,,,,,,,,,,,,,,,,,,,,,
5c01d3c509e9c70001500b10,SCN,2024-06-21_14h07.14.160,LearnStrategy,2023.2.3,Win32,60.0240096,,,,,,,,,,,7,16,6,5,,,,,,,,,,,,,,,,,,,,,,,,,,,,,
5c01d3c509e9c70001500b10,SCN,2024-06-21_14h07.14.160,LearnStrategy,2023.2.3,Win32,60.0240096,,,,,,,,,,,2,01,6,6,,,,,,,,,,,,,,,,,,,,,,,,,,,,,
5c01d3c509e9c70001500b10,SCN,2024-06-21_14h07.14.160,LearnStrategy,2023.2.3,Win32,60.0240096,,,,,,,,,,,8,08,6,7,,,,,,,,,,,,,,,,,,,,,,,,,,,,,
5c01d3c509e9c70001500b10,SCN,2024-06-21_14h07.14.160,LearnStrategy,2023.2.3,Win32,60.0240096,,,,,,,,,,,1,10,6,8,,,,,,,,,,,,,,,,,,,,,,,,,,,,,