participant,condition,date,expName,psychopyVersion,OS,frameRate,block,phase,trial,learn_mouse_2.x,learn_mouse_2.y,learn_mouse_2.leftButton,learn_mouse_2.midButton,learn_mouse_2.rightButton,learn_mouse_2.time,learn_mouse_2.clicked_name,cat,token,row,col,t_select,cat_mouse_l.x,cat_mouse_l.y,cat_mouse_l.leftButton,cat_mouse_l.midButton,cat_mouse_l.rightButton,cat_mouse_l.time,cat_mouse_l.clicked_name,resp,t_resp,corr,train_trials.thisRepN,train_trials.thisTrialN,train_trials.thisN,train_trials.thisIndex,train_trials.ran,cat_mouse_t.x,cat_mouse_t.y,cat_mouse_t.leftButton,cat_mouse_t.midButton,cat_mouse_t.rightButton,cat_mouse_t.time,cat_mouse_t.clicked_name,test_trials.thisRepN,test_trials.thisTrialN,test_trials.thisN,test_trials.thisIndex,test_trials.ran,Bonus
5c3c1617f5ebd500018596cb,TCN,2024-06-21_13h47.10.018,LearnStrategy,2023.2.3,Win32,60.0240096,,,,,,,,,,,,,,,,,,,,,,,,,,,,,,,,,,,,,,,,,,,
5c3c1617f5ebd500018596cb,TCN,2024-06-21_13h47.10.018,LearnStrategy,2023.2.3,Win32,60.0240096,1,1,1,0.068888889,-0.001111111,1,0,0,1.52,rock_grid_rect_2,7,14,-1,-1,1.52,-0.338888889,-0.228888889,1,0,0,3.909,Andesite_rect,1,3.909,0,0,0,0,0,1,,,,,,,,,,,,,
5c3c1617f5ebd500018596cb,TCN,2024-06-21_13h47.10.018,LearnStrategy,2023.2.3,Win32,60.0240096,1,1,2,0.133333333,0.016666667,1,0,0,1.448,rock_grid_rect_2,8,03,-1,-1,1.448,0.365555556,-0.403333333,1,0,0,3.427,Pumice_rect,8,3.427,1,1,0,1,0,1,,,,,,,,,,,,,
5c3c1617f5ebd500018596cb,TCN,2024-06-21_13h47.10.018,LearnStrategy,2023.2.3,Win32,60.0240096,1,1,3,0.051111111,0,1,0,0,0.912,rock_grid_rect_2,3,07,-1,-1,0.912,0.096666667,-0.237777778,1,0,0,2.3,Diorite_rect,3,2.3,1,2,0,2,0,1,,,,,,,,,,,,,
5c3c1617f5ebd500018596cb,TCN,2024-06-21_13h47.10.018,LearnStrategy,2023.2.3,Win32,60.0240096,1,1,4,0.101111111,0.013333333,1,0,0,0.948,rock_grid_rect_2,5,11,-1,-1,0.948,-0.38,-0.405555556,1,0,0,2.707,Obsidian_rect,5,2.707,1,3,0,3,0,1,,,,,,,,,,,,,
5c3c1617f5ebd500018596cb,TCN,2024-06-21_13h47.10.018,LearnStrategy,2023.2.3,Win32,60.0240096,1,1,5,0.027777778,-0.001111111,1,0,0,0.864,rock_grid_rect_2,4,01,-1,-1,0.864,-0.114444444,-0.386666667,1,0,0,5.585,Pegmatite_rect,6,5.585,0,4,0,4,0,1,,,,,,,,,,,,,
5c3c1617f5ebd500018596cb,TCN,2024-06-21_13h47.10.018,LearnStrategy,2023.2.3,Win32,60.0240096,1,1,6,0.028888889,0.006666667,1,0,0,1.064,rock_grid_rect_2,6,13,-1,-1,1.064,-0.127777778,-0.403333333,1,0,0,4.784,Pegmatite_rect,6,4.784,1,5,0,5,0,1,,,,,,,,,,,,,
5c3c1617f5ebd500018596cb,TCN,2024-06-21_13h47.10.018,LearnStrategy,2023.2.3,Win32,60.0240096,1,1,7,0.09,-0.018888889,1,0,0,0.714,rock_grid_rect_2,8,10,-1,-1,0.714,0.105555556,-0.386666667,1,0,0,3.078,Peridotite_rect,7,3.078,0,6,0,6,0,1,,,,,,,,,,,,,
5c3c1617f5ebd500018596cb,TCN,2024-06-21_13h47.10.018,LearnStrategy,2023.2.3,Win32,60.0240096,1,1,8,0.021111111,0.013333333,1,0,0,0.757,rock_grid_rect_2,5,10,-1,-1,0.757,-0.455555556,-0.397777778,1,0,0,1.709,Obsidian_rect,5,1.709,1,7,0,7,0,1,,,,,,,,,,,,,
5c3c1617f5ebd500018596cb,TCN,2024-06-21_13h47.10.018,LearnStrategy,2023.2.3,Win32,60.0240096,1,1,9,0.058888889,-0.012222222,1,0,0,0.764,rock_grid_rect_2,3,09,-1,-1,0.764,0.038888889,-0.251111111,1,0,0,7.199,Diorite_rect,3,7.199,1,8,0,8,0,1,,,,,,,,,,,,,
5c3c1617f5ebd500018596cb,TCN,2024-06-21_13h47.10.018,LearnStrategy,2023.2.3,Win32,60.0240096,1,1,10,0.055555556,-0.002222222,1,0,0,0.68,rock_grid_rect_2,2,11,-1,-1,0.68,-0.158888889,-0.247777778,1,0,0,1.743,Basalt_rect,2,1.743,1,9,0,9,0,1,,,,,,,,,,,,,
5c3c1617f5ebd500018596cb,TCN,2024-06-21_13h47.10.018,LearnStrategy,2023.2.3,Win32,60.0240096,1,1,11,0.056666667,0.008888889,1,0,0,0.631,rock_grid_rect_2,7,02,-1,-1,0.631,0.147777778,-0.386666667,1,0,0,1.905,Peridotite_rect,7,1.905,1,10,0,10,0,1,,,,,,,,,,,,,
5c3c1617f5ebd500018596cb,TCN,2024-06-21_13h47.10.018,LearnStrategy,2023.2.3,Win32,60.0240096,1,1,12,-0.032222222,-0.001111111,1,0,0,0.566,rock_grid_rect_2,6,10,-1,-1,0.566,0.096666667,-0.393333333,1,0,0,2.835,Peridotite_rect,7,2.835,0,11,0,11,0,1,,,,,,,,,,,,,
5c3c1617f5ebd500018596cb,TCN,2024-06-21_13h47.10.018,LearnStrategy,2023.2.3,Win32,60.0240096,1,1,13,0.021111111,0.013333333,1,0,0,0.831,rock_grid_rect_2,1,01,-1,-1,0.831,-0.141111111,-0.241111111,1,0,0,5.625,Basalt_rect,2,5.625,0,12,0,12,0,1,,,,,,,,,,,,,
5c3c1617f5ebd500018596cb,TCN,2024-06-21_13h47.10.018,LearnStrategy,2023.2.3,Win32,60.0240096,1,1,14,0.121111111,-0.021111111,1,0,0,0.865,rock_grid_rect_2,2,14,-1,-1,0.865,-0.105555556,-0.263333333,1,0,0,3.224,Basalt_rect,2,3.224,1,13,0,13,0,1,,,,,,,,,,,,,
5c3c1617f5ebd500018596cb,TCN,2024-06-21_13h47.10.018,LearnStrategy,2023.2.3,Win32,60.0240096,1,1,15,0.044444444,-0.016666667,1,0,0,0.727,rock_grid_rect_2,4,15,-1,-1,0.727,-0.434444444,-0.25,1,0,0,1.945,Andesite_rect,1,1.945,0,14,0,14,0,1,,,,,,,,,,,,,
5c3c1617f5ebd500018596cb,TCN,2024-06-21_13h47.10.018,LearnStrategy,2023.2.3,Win32,60.0240096,1,1,16,0.071111111,-0.01,1,0,0,0.679,rock_grid_rect_2,1,14,-1,-1,0.679,0.368888889,-0.396666667,1,0,0,1.97,Pumice_rect,8,1.97,0,15,0,15,0,1,,,,,,,,,,,,,
5c3c1617f5ebd500018596cb,TCN,2024-06-21_13h47.10.018,LearnStrategy,2023.2.3,Win32,60.0240096,1,2,1,,,,,,,,7,12,,,,,,,,,,,1,7.2,0,,,,,,-0.376666667,-0.247777778,1,0,0,7.2,Andesite_rect,0,0,0,0,1,
5c3c1617f5ebd500018596cb,TCN,2024-06-21_13h47.10.018,LearnStrategy,2023.2.3,Win32,60.0240096,1,2,2,,,,,,,,6,06,,,,,,,,,,,6,6.739,1,,,,,,-0.133333333,-0.382222222,1,0,0,6.739,Pegmatite_rect,1,0,1,0,1,
5c3c1617f5ebd500018596cb,TCN,2024-06-21_13h47.10.018,LearnStrategy,2023.2.3,Win32,60.0240096,1,2,3,,,,,,,,5,12,,,,,,,,,,,5,1.18,1,,,,,,-0.377777778,-0.393333333,1,0,0,1.18,Obsidian_rect,2,0,2,0,1,
5c3c1617f5ebd500018596cb,TCN,2024-06-21_13h47.10.018,LearnStrategy,2023.2.3,Win32,60.0240096,1,2,4,,,,,,,,6,03,,,,,,,,,,,6,3.785,1,,,,,,-0.183333333,-0.394444444,1,0,0,3.785,Pegmatite_rect,3,0,3,0,1,
5c3c1617f5ebd500018596cb,TCN,2024-06-21_13h47.10.018,LearnStrategy,2023.2.3,Win32,60.0240096,1,2,5,,,,,,,,4,08,,,,,,,,,,,8,3.566,0,,,,,,0.455555556,-0.403333333,1,0,0,3.566,Pumice_rect,4,0,4,0,1,
5c3c1617f5ebd500018596cb,TCN,2024-06-21_13h47.10.018,LearnStrategy,2023.2.3,Win32,60.0240096,1,2,6,,,,,,,,5,02,,,,,,,,,,,5,2.595,1,,,,,,-0.443333333,-0.396666667,1,0,0,2.595,Obsidian_rect,5,0,5,0,1,
5c3c1617f5ebd500018596cb,TCN,2024-06-21_13h47.10.018,LearnStrategy,2023.2.3,Win32,60.0240096,1,2,7,,,,,,,,2,10,,,,,,,,,,,2,3.772,1,,,,,,-0.174444444,-0.263333333,1,0,0,3.772,Basalt_rect,6,0,6,0,1,
5c3c1617f5ebd500018596cb,TCN,2024-06-21_13h47.10.018,LearnStrategy,2023.2.3,Win32,60.0240096,1,2,8,,,,,,,,8,02,,,,,,,,,,,8,1.989,1,,,,,,0.363333333,-0.381111111,1,0,0,1.989,Pumice_rect,7,0,7,0,1,
5c3c1617f5ebd500018596cb,TCN,2024-06-21_13h47.10.018,LearnStrategy,2023.2.3,Win32,60.0240096,1,2,9,,,,,,,,1,10,,,,,,,,,,,1,5.53,1,,,,,,-0.405555556,-0.262222222,1,0,0,5.53,Andesite_rect,8,0,8,0,1,
5c3c1617f5ebd500018596cb,TCN,2024-06-21_13h47.10.018,LearnStrategy,2023.2.3,Win32,60.0240096,1,2,10,,,,,,,,3,08,,,,,,,,,,,3,3.392,1,,,,,,0.207777778,-0.26,1,0,0,3.392,Diorite_rect,9,0,9,0,1,
5c3c1617f5ebd500018596cb,TCN,2024-06-21_13h47.10.018,LearnStrategy,2023.2.3,Win32,60.0240096,1,2,11,,,,,,,,8,13,,,,,,,,,,,8,1.523,1,,,,,,0.354444444,-0.395555556,1,0,0,1.523,Pumice_rect,10,0,10,0,1,
5c3c1617f5ebd500018596cb,TCN,2024-06-21_13h47.10.018,LearnStrategy,2023.2.3,Win32,60.0240096,1,2,12,,,,,,,,4,12,,,,,,,,,,,2,2.946,0,,,,,,-0.101111111,-0.24,1,0,0,2.946,Basalt_rect,11,0,11,0,1,
5c3c1617f5ebd500018596cb,TCN,2024-06-21_13h47.10.018,LearnStrategy,2023.2.3,Win32,60.0240096,1,2,13,,,,,,,,3,15,,,,,,,,,,,4,2.554,0,,,,,,0.333333333,-0.244444444,1,0,0,2.554,Gabbro_rect,12,0,12,0,1,
5c3c1617f5ebd500018596cb,TCN,2024-06-21_13h47.10.018,LearnStrategy,2023.2.3,Win32,60.0240096,1,2,14,,,,,,,,2,16,,,,,,,,,,,2,3.091,1,,,,,,-0.125555556,-0.243333333,1,0,0,3.091,Basalt_rect,13,0,13,0,1,
5c3c1617f5ebd500018596cb,TCN,2024-06-21_13h47.10.018,LearnStrategy,2023.2.3,Win32,60.0240096,1,2,15,,,,,,,,7,04,,,,,,,,,,,1,9.436,0,,,,,,-0.351111111,-0.25,1,0,0,9.436,Andesite_rect,14,0,14,0,1,
5c3c1617f5ebd500018596cb,TCN,2024-06-21_13h47.10.018,LearnStrategy,2023.2.3,Win32,60.0240096,1,2,16,,,,,,,,1,06,,,,,,,,,,,2,9.698,0,,,,,,-0.093333333,-0.247777778,1,0,0,9.698,Basalt_rect,15,0,15,0,1,
5c3c1617f5ebd500018596cb,TCN,2024-06-21_13h47.10.018,LearnStrategy,2023.2.3,Win32,60.0240096,2,1,1,0.065555556,-0.007777778,1,0,0,1.147,rock_grid_rect_2,4,11,-1,-1,1.147,-0.148888889,-0.25,1,0,0,1.832,Basalt_rect,2,1.832,0,0,0,0,0,1,,,,,,,,,,,,,
5c3c1617f5ebd500018596cb,TCN,2024-06-21_13h47.10.018,LearnStrategy,2023.2.3,Win32,60.0240096,2,1,2,0.071111111,0.004444444,1,0,0,1.081,rock_grid_rect_2,7,07,-1,-1,1.081,0.097777778,-0.39,1,0,0,3.338,Peridotite_rect,7,3.338,1,1,0,1,0,1,,,,,,,,,,,,,
5c3c1617f5ebd500018596cb,TCN,2024-06-21_13h47.10.018,LearnStrategy,2023.2.3,Win32,60.0240096,2,1,3,0.045555556,0.007777778,1,0,0,0.731,rock_grid_rect_2,6,11,-1,-1,0.731,-0.131111111,-0.392222222,1,0,0,2.339,Pegmatite_rect,6,2.339,1,2,0,2,0,1,,,,,,,,,,,,,
5c3c1617f5ebd500018596cb,TCN,2024-06-21_13h47.10.018,LearnStrategy,2023.2.3,Win32,60.0240096,2,1,4,0.037777778,0.022222222,1,0,0,0.841,rock_grid_rect_2,5,16,-1,-1,0.841,-0.383333333,-0.415555556,1,0,0,1.41,Obsidian_rect,5,1.41,1,3,0,3,0,1,,,,,,,,,,,,,
5c3c1617f5ebd500018596cb,TCN,2024-06-21_13h47.10.018,LearnStrategy,2023.2.3,Win32,60.0240096,2,1,5,0.072222222,-0.013333333,1,0,0,0.814,rock_grid_rect_2,5,07,-1,-1,0.814,-0.377777778,-0.42,1,0,0,2.68,Obsidian_rect,5,2.68,1,4,0,4,0,1,,,,,,,,,,,,,
5c3c1617f5ebd500018596cb,TCN,2024-06-21_13h47.10.018,LearnStrategy,2023.2.3,Win32,60.0240096,2,1,6,0.02,-0.007777778,1,0,0,0.915,rock_grid_rect_2,8,08,-1,-1,0.915,0.373333333,-0.392222222,1,0,0,1.326,Pumice_rect,8,1.326,1,5,0,5,0,1,,,,,,,,,,,,,
5c3c1617f5ebd500018596cb,TCN,2024-06-21_13h47.10.018,LearnStrategy,2023.2.3,Win32,60.0240096,2,1,7,0.026666667,0.011111111,1,0,0,0.864,rock_grid_rect_2,8,15,-1,-1,0.864,-0.093333333,-0.254444444,1,0,0,2.021,Basalt_rect,2,2.021,0,6,0,6,0,1,,,,,,,,,,,,,
5c3c1617f5ebd500018596cb,TCN,2024-06-21_13h47.10.018,LearnStrategy,2023.2.3,Win32,60.0240096,2,1,8,0.043333333,0.01,1,0,0,0.565,rock_grid_rect_2,3,16,-1,-1,0.565,0.17,-0.245555556,1,0,0,2.705,Diorite_rect,3,2.705,1,7,0,7,0,1,,,,,,,,,,,,,
5c3c1617f5ebd500018596cb,TCN,2024-06-21_13h47.10.018,LearnStrategy,2023.2.3,Win32,60.0240096,2,1,9,0.1,0.017777778,1,0,0,0.598,rock_grid_rect_2,6,12,-1,-1,0.598,0.36,-0.242222222,1,0,0,3.339,Gabbro_rect,4,3.339,0,8,0,8,0,1,,,,,,,,,,,,,
5c3c1617f5ebd500018596cb,TCN,2024-06-21_13h47.10.018,LearnStrategy,2023.2.3,Win32,60.0240096,2,1,10,0.103333333,0.008888889,1,0,0,0.898,rock_grid_rect_2,4,03,-1,-1,0.898,-0.122222222,-0.233333333,1,0,0,1.672,Basalt_rect,2,1.672,0,9,0,9,0,1,,,,,,,,,,,,,
5c3c1617f5ebd500018596cb,TCN,2024-06-21_13h47.10.018,LearnStrategy,2023.2.3,Win32,60.0240096,2,1,11,0.105555556,0.011111111,1,0,0,0.915,rock_grid_rect_2,2,04,-1,-1,0.915,-0.137777778,-0.231111111,1,0,0,2.101,Basalt_rect,2,2.101,1,10,0,10,0,1,,,,,,,,,,,,,
5c3c1617f5ebd500018596cb,TCN,2024-06-21_13h47.10.018,LearnStrategy,2023.2.3,Win32,60.0240096,2,1,12,0.114444444,0.016666667,1,0,0,0.715,rock_grid_rect_2,1,02,-1,-1,0.715,0.32,-0.395555556,1,0,0,1.936,Pumice_rect,8,1.936,0,11,0,11,0,1,,,,,,,,,,,,,
5c3c1617f5ebd500018596cb,TCN,2024-06-21_13h47.10.018,LearnStrategy,2023.2.3,Win32,60.0240096,2,1,13,0.095555556,0.01,1,0,0,0.712,rock_grid_rect_2,1,03,-1,-1,0.712,-0.082222222,-0.254444444,1,0,0,3.824,Basalt_rect,2,3.824,0,12,0,12,0,1,,,,,,,,,,,,,
5c3c1617f5ebd500018596cb,TCN,2024-06-21_13h47.10.018,LearnStrategy,2023.2.3,Win32,60.0240096,2,1,14,0.116666667,-0.024444444,1,0,0,0.698,rock_grid_rect_2,7,13,-1,-1,0.698,0.126666667,-0.404444444,1,0,0,1.298,Peridotite_rect,7,1.298,1,13,0,13,0,1,,,,,,,,,,,,,
5c3c1617f5ebd500018596cb,TCN,2024-06-21_13h47.10.018,LearnStrategy,2023.2.3,Win32,60.0240096,2,1,15,0.036666667,0,1,0,0,1.182,rock_grid_rect_2,2,12,-1,-1,1.182,-0.415555556,-0.23,1,0,0,2.026,Andesite_rect,1,2.026,0,14,0,14,0,1,,,,,,,,,,,,,
5c3c1617f5ebd500018596cb,TCN,2024-06-21_13h47.10.018,LearnStrategy,2023.2.3,Win32,60.0240096,2,1,16,0.133333333,0.005555556,1,0,0,0.731,rock_grid_rect_2,3,10,-1,-1,0.731,0.377777778,-0.248888889,1,0,0,3.198,Gabbro_rect,4,3.198,0,15,0,15,0,1,,,,,,,,,,,,,
5c3c1617f5ebd500018596cb,TCN,2024-06-21_13h47.10.018,LearnStrategy,2023.2.3,Win32,60.0240096,2,2,1,,,,,,,,8,05,,,,,,,,,,,8,1.58,1,,,,,,0.348888889,-0.394444444,1,0,0,1.58,Pumice_rect,0,0,0,0,1,
5c3c1617f5ebd500018596cb,TCN,2024-06-21_13h47.10.018,LearnStrategy,2023.2.3,Win32,60.0240096,2,2,2,,,,,,,,7,06,,,,,,,,,,,6,1.999,0,,,,,,-0.123333333,-0.412222222,1,0,0,1.999,Pegmatite_rect,1,0,1,0,1,
5c3c1617f5ebd500018596cb,TCN,2024-06-21_13h47.10.018,LearnStrategy,2023.2.3,Win32,60.0240096,2,2,3,,,,,,,,5,14,,,,,,,,,,,5,1.38,1,,,,,,-0.384444444,-0.42,1,0,0,1.38,Obsidian_rect,2,0,2,0,1,
5c3c1617f5ebd500018596cb,TCN,2024-06-21_13h47.10.018,LearnStrategy,2023.2.3,Win32,60.0240096,2,2,4,,,,,,,,6,08,,,,,,,,,,,6,1.972,1,,,,,,-0.16,-0.405555556,1,0,0,1.972,Pegmatite_rect,3,0,3,0,1,
5c3c1617f5ebd500018596cb,TCN,2024-06-21_13h47.10.018,LearnStrategy,2023.2.3,Win32,60.0240096,2,2,5,,,,,,,,2,05,,,,,,,,,,,2,4.755,1,,,,,,-0.141111111,-0.237777778,1,0,0,4.755,Basalt_rect,4,0,4,0,1,
5c3c1617f5ebd500018596cb,TCN,2024-06-21_13h47.10.018,LearnStrategy,2023.2.3,Win32,60.0240096,2,2,6,,,,,,,,8,16,,,,,,,,,,,8,3.387,1,,,,,,0.446666667,-0.408888889,1,0,0,3.387,Pumice_rect,5,0,5,0,1,
5c3c1617f5ebd500018596cb,TCN,2024-06-21_13h47.10.018,LearnStrategy,2023.2.3,Win32,60.0240096,2,2,7,,,,,,,,3,12,,,,,,,,,,,3,1.873,1,,,,,,0.085555556,-0.233333333,1,0,0,1.873,Diorite_rect,6,0,6,0,1,
5c3c1617f5ebd500018596cb,TCN,2024-06-21_13h47.10.018,LearnStrategy,2023.2.3,Win32,60.0240096,2,2,8,,,,,,,,5,05,,,,,,,,,,,5,2.208,1,,,,,,-0.388888889,-0.391111111,1,0,0,2.208,Obsidian_rect,7,0,7,0,1,
5c3c1617f5ebd500018596cb,TCN,2024-06-21_13h47.10.018,LearnStrategy,2023.2.3,Win32,60.0240096,2,2,9,,,,,,,,7,08,,,,,,,,,,,7,1.674,1,,,,,,0.062222222,-0.39,1,0,0,1.674,Peridotite_rect,8,0,8,0,1,
5c3c1617f5ebd500018596cb,TCN,2024-06-21_13h47.10.018,LearnStrategy,2023.2.3,Win32,60.0240096,2,2,10,,,,,,,,2,09,,,,,,,,,,,2,4.084,1,,,,,,-0.146666667,-0.253333333,1,0,0,4.084,Basalt_rect,9,0,9,0,1,
5c3c1617f5ebd500018596cb,TCN,2024-06-21_13h47.10.018,LearnStrategy,2023.2.3,Win32,60.0240096,2,2,11,,,,,,,,6,07,,,,,,,,,,,6,2.913,1,,,,,,-0.156666667,-0.386666667,1,0,0,2.913,Pegmatite_rect,10,0,10,0,1,
5c3c1617f5ebd500018596cb,TCN,2024-06-21_13h47.10.018,LearnStrategy,2023.2.3,Win32,60.0240096,2,2,12,,,,,,,,4,14,,,,,,,,,,,1,3.333,0,,,,,,-0.391111111,-0.228888889,1,0,0,3.333,Andesite_rect,11,0,11,0,1,
5c3c1617f5ebd500018596cb,TCN,2024-06-21_13h47.10.018,LearnStrategy,2023.2.3,Win32,60.0240096,2,2,13,,,,,,,,1,11,,,,,,,,,,,4,4.007,0,,,,,,0.413333333,-0.246666667,1,0,0,4.007,Gabbro_rect,12,0,12,0,1,
5c3c1617f5ebd500018596cb,TCN,2024-06-21_13h47.10.018,LearnStrategy,2023.2.3,Win32,60.0240096,2,2,14,,,,,,,,1,09,,,,,,,,,,,4,2.902,0,,,,,,0.353333333,-0.228888889,1,0,0,2.902,Gabbro_rect,13,0,13,0,1,
5c3c1617f5ebd500018596cb,TCN,2024-06-21_13h47.10.018,LearnStrategy,2023.2.3,Win32,60.0240096,2,2,15,,,,,,,,3,14,,,,,,,,,,,3,1.404,1,,,,,,0.138888889,-0.256666667,1,0,0,1.404,Diorite_rect,14,0,14,0,1,
5c3c1617f5ebd500018596cb,TCN,2024-06-21_13h47.10.018,LearnStrategy,2023.2.3,Win32,60.0240096,2,2,16,,,,,,,,4,09,,,,,,,,,,,5,3.4,0,,,,,,-0.38,-0.401111111,1,0,0,3.4,Obsidian_rect,15,0,15,0,1,
5c3c1617f5ebd500018596cb,TCN,2024-06-21_13h47.10.018,LearnStrategy,2023.2.3,Win32,60.0240096,3,1,1,0.028888889,-0.017777778,1,0,0,0.681,rock_grid_rect_2,3,02,-1,-1,0.681,0.122222222,-0.241111111,1,0,0,1.718,Diorite_rect,3,1.718,1,0,0,0,0,1,,,,,,,,,,,,,
5c3c1617f5ebd500018596cb,TCN,2024-06-21_13h47.10.018,LearnStrategy,2023.2.3,Win32,60.0240096,3,1,2,0.09,-0.004444444,1,0,0,0.863,rock_grid_rect_2,6,05,-1,-1,0.863,-0.133333333,-0.385555556,1,0,0,1.792,Pegmatite_rect,6,1.792,1,1,0,1,0,1,,,,,,,,,,,,,
5c3c1617f5ebd500018596cb,TCN,2024-06-21_13h47.10.018,LearnStrategy,2023.2.3,Win32,60.0240096,3,1,3,0.068888889,0.011111111,1,0,0,0.681,rock_grid_rect_2,7,10,-1,-1,0.681,0.083333333,-0.381111111,1,0,0,1.902,Peridotite_rect,7,1.902,1,2,0,2,0,1,,,,,,,,,,,,,
5c3c1617f5ebd500018596cb,TCN,2024-06-21_13h47.10.018,LearnStrategy,2023.2.3,Win32,60.0240096,3,1,4,0.002222222,-0.023333333,1,0,0,0.648,rock_grid_rect_2,1,07,-1,-1,0.648,0.448888889,-0.238888889,1,0,0,1.908,Gabbro_rect,4,1.908,0,3,0,3,0,1,,,,,,,,,,,,,
5c3c1617f5ebd500018596cb,TCN,2024-06-21_13h47.10.018,LearnStrategy,2023.2.3,Win32,60.0240096,3,1,5,0.035555556,0.01,1,0,0,0.682,rock_grid_rect_2,2,06,-1,-1,0.682,-0.135555556,-0.264444444,1,0,0,1.429,Basalt_rect,2,1.429,1,4,0,4,0,1,,,,,,,,,,,,,
5c3c1617f5ebd500018596cb,TCN,2024-06-21_13h47.10.018,LearnStrategy,2023.2.3,Win32,60.0240096,3,1,6,0.061111111,-0.015555556,1,0,0,0.862,rock_grid_rect_2,5,06,-1,-1,0.862,-0.374444444,-0.401111111,1,0,0,2.177,Obsidian_rect,5,2.177,1,5,0,5,0,1,,,,,,,,,,,,,
5c3c1617f5ebd500018596cb,TCN,2024-06-21_13h47.10.018,LearnStrategy,2023.2.3,Win32,60.0240096,3,1,7,0.085555556,-0.006666667,1,0,0,1.081,rock_grid_rect_2,8,14,-1,-1,1.081,0.376666667,-0.395555556,1,0,0,1.275,Pumice_rect,8,1.275,1,6,0,6,0,1,,,,,,,,,,,,,
5c3c1617f5ebd500018596cb,TCN,2024-06-21_13h47.10.018,LearnStrategy,2023.2.3,Win32,60.0240096,3,1,8,0.017777778,-0.013333333,1,0,0,0.765,rock_grid_rect_2,6,15,-1,-1,0.765,-0.107777778,-0.406666667,1,0,0,1.414,Pegmatite_rect,6,1.414,1,7,0,7,0,1,,,,,,,,,,,,,
5c3c1617f5ebd500018596cb,TCN,2024-06-21_13h47.10.018,LearnStrategy,2023.2.3,Win32,60.0240096,3,1,9,0.041111111,0.015555556,1,0,0,0.815,rock_grid_rect_2,3,11,-1,-1,0.815,-0.365555556,-0.253333333,1,0,0,1.499,Andesite_rect,1,1.499,0,8,0,8,0,1,,,,,,,,,,,,,
5c3c1617f5ebd500018596cb,TCN,2024-06-21_13h47.10.018,LearnStrategy,2023.2.3,Win32,60.0240096,3,1,10,0.074444444,0.004444444,1,0,0,0.782,rock_grid_rect_2,8,06,-1,-1,0.782,0.376666667,-0.396666667,1,0,0,2.101,Pumice_rect,8,2.101,1,9,0,9,0,1,,,,,,,,,,,,,
5c3c1617f5ebd500018596cb,TCN,2024-06-21_13h47.10.018,LearnStrategy,2023.2.3,Win32,60.0240096,3,1,11,0.057777778,-0.013333333,1,0,0,0.746,rock_grid_rect_2,4,05,-1,-1,0.746,-0.128888889,-0.245555556,1,0,0,2.903,Basalt_rect,2,2.903,0,10,0,10,0,1,,,,,,,,,,,,,
5c3c1617f5ebd500018596cb,TCN,2024-06-21_13h47.10.018,LearnStrategy,2023.2.3,Win32,60.0240096,3,1,12,0.042222222,0.004444444,1,0,0,0.649,rock_grid_rect_2,4,16,-1,-1,0.649,0.383333333,-0.245555556,1,0,0,2.339,Gabbro_rect,4,2.339,1,11,0,11,0,1,,,,,,,,,,,,,
5c3c1617f5ebd500018596cb,TCN,2024-06-21_13h47.10.018,LearnStrategy,2023.2.3,Win32,60.0240096,3,1,13,0.132222222,-0.015555556,1,0,0,0.764,rock_grid_rect_2,5,04,-1,-1,0.764,-0.431111111,-0.41,1,0,0,1.421,Obsidian_rect,5,1.421,1,12,0,12,0,1,,,,,,,,,,,,,
5c3c1617f5ebd500018596cb,TCN,2024-06-21_13h47.10.018,LearnStrategy,2023.2.3,Win32,60.0240096,3,1,14,0.046666667,-0.003333333,1,0,0,0.982,rock_grid_rect_2,1,04,-1,-1,0.982,-0.396666667,-0.243333333,1,0,0,1.945,Andesite_rect,1,1.945,1,13,0,13,0,1,,,,,,,,,,,,,
5c3c1617f5ebd500018596cb,TCN,2024-06-21_13h47.10.018,LearnStrategy,2023.2.3,Win32,60.0240096,3,1,15,0.067777778,0.02,1,0,0,0.576,rock_grid_rect_2,7,05,-1,-1,0.576,0.175555556,-0.392222222,1,0,0,1.563,Peridotite_rect,7,1.563,1,14,0,14,0,1,,,,,,,,,,,,,
5c3c1617f5ebd500018596cb,TCN,2024-06-21_13h47.10.018,LearnStrategy,2023.2.3,Win32,60.0240096,3,1,16,0.077777778,0,1,0,0,0.713,rock_grid_rect_2,2,01,-1,-1,0.713,-0.13,-0.236666667,1,0,0,1.593,Basalt_rect,2,1.593,1,15,0,15,0,1,,,,,,,,,,,,,
5c3c1617f5ebd500018596cb,TCN,2024-06-21_13h47.10.018,LearnStrategy,2023.2.3,Win32,60.0240096,3,2,1,,,,,,,,2,02,,,,,,,,,,,1,2.268,0,,,,,,-0.401111111,-0.25,1,0,0,2.268,Andesite_rect,0,0,0,0,1,
5c3c1617f5ebd500018596cb,TCN,2024-06-21_13h47.10.018,LearnStrategy,2023.2.3,Win32,60.0240096,3,2,2,,,,,,,,4,13,,,,,,,,,,,4,6.044,1,,,,,,0.354444444,-0.237777778,1,0,0,6.044,Gabbro_rect,1,0,1,0,1,
5c3c1617f5ebd500018596cb,TCN,2024-06-21_13h47.10.018,LearnStrategy,2023.2.3,Win32,60.0240096,3,2,3,,,,,,,,1,05,,,,,,,,,,,1,2.788,1,,,,,,-0.401111111,-0.233333333,1,0,0,2.788,Andesite_rect,2,0,2,0,1,
5c3c1617f5ebd500018596cb,TCN,2024-06-21_13h47.10.018,LearnStrategy,2023.2.3,Win32,60.0240096,3,2,4,,,,,,,,5,09,,,,,,,,,,,5,1.203,1,,,,,,-0.348888889,-0.421111111,1,0,0,1.203,Obsidian_rect,3,0,3,0,1,
5c3c1617f5ebd500018596cb,TCN,2024-06-21_13h47.10.018,LearnStrategy,2023.2.3,Win32,60.0240096,3,2,5,,,,,,,,1,16,,,,,,,,,,,1,2.692,1,,,,,,-0.324444444,-0.237777778,1,0,0,2.692,Andesite_rect,4,0,4,0,1,
5c3c1617f5ebd500018596cb,TCN,2024-06-21_13h47.10.018,LearnStrategy,2023.2.3,Win32,60.0240096,3,2,6,,,,,,,,3,13,,,,,,,,,,,3,1.868,1,,,,,,0.118888889,-0.246666667,1,0,0,1.868,Diorite_rect,5,0,5,0,1,
5c3c1617f5ebd500018596cb,TCN,2024-06-21_13h47.10.018,LearnStrategy,2023.2.3,Win32,60.0240096,3,2,7,,,,,,,,6,09,,,,,,,,,,,6,1.331,1,,,,,,-0.162222222,-0.416666667,1,0,0,1.331,Pegmatite_rect,6,0,6,0,1,
5c3c1617f5ebd500018596cb,TCN,2024-06-21_13h47.10.018,LearnStrategy,2023.2.3,Win32,60.0240096,3,2,8,,,,,,,,8,04,,,,,,,,,,,8,1.246,1,,,,,,0.341111111,-0.386666667,1,0,0,1.246,Pumice_rect,7,0,7,0,1,
5c3c1617f5ebd500018596cb,TCN,2024-06-21_13h47.10.018,LearnStrategy,2023.2.3,Win32,60.0240096,3,2,9,,,,,,,,8,09,,,,,,,,,,,8,3.694,1,,,,,,0.354444444,-0.392222222,1,0,0,3.694,Pumice_rect,8,0,8,0,1,
5c3c1617f5ebd500018596cb,TCN,2024-06-21_13h47.10.018,LearnStrategy,2023.2.3,Win32,60.0240096,3,2,10,,,,,,,,7,15,,,,,,,,,,,7,2.477,1,,,,,,0.11,-0.401111111,1,0,0,2.477,Peridotite_rect,9,0,9,0,1,
5c3c1617f5ebd500018596cb,TCN,2024-06-21_13h47.10.018,LearnStrategy,2023.2.3,Win32,60.0240096,3,2,11,,,,,,,,7,16,,,,,,,,,,,7,1.794,1,,,,,,0.111111111,-0.42,1,0,0,1.794,Peridotite_rect,10,0,10,0,1,
5c3c1617f5ebd500018596cb,TCN,2024-06-21_13h47.10.018,LearnStrategy,2023.2.3,Win32,60.0240096,3,2,12,,,,,,,,2,08,,,,,,,,,,,2,2.227,1,,,,,,-0.155555556,-0.252222222,1,0,0,2.227,Basalt_rect,11,0,11,0,1,
5c3c1617f5ebd500018596cb,TCN,2024-06-21_13h47.10.018,LearnStrategy,2023.2.3,Win32,60.0240096,3,2,13,,,,,,,,3,06,,,,,,,,,,,1,3.351,0,,,,,,-0.498888889,-0.248888889,1,0,0,3.351,Andesite_rect,12,0,12,0,1,
5c3c1617f5ebd500018596cb,TCN,2024-06-21_13h47.10.018,LearnStrategy,2023.2.3,Win32,60.0240096,3,2,14,,,,,,,,5,08,,,,,,,,,,,5,1.232,1,,,,,,-0.376666667,-0.403333333,1,0,0,1.232,Obsidian_rect,13,0,13,0,1,
5c3c1617f5ebd500018596cb,TCN,2024-06-21_13h47.10.018,LearnStrategy,2023.2.3,Win32,60.0240096,3,2,15,,,,,,,,6,16,,,,,,,,,,,6,1.757,1,,,,,,-0.112222222,-0.404444444,1,0,0,1.757,Pegmatite_rect,14,0,14,0,1,
5c3c1617f5ebd500018596cb,TCN,2024-06-21_13h47.10.018,LearnStrategy,2023.2.3,Win32,60.0240096,3,2,16,,,,,,,,4,10,,,,,,,,,,,1,9.437,0,,,,,,-0.37,-0.24,1,0,0,9.437,Andesite_rect,15,0,15,0,1,
5c3c1617f5ebd500018596cb,TCN,2024-06-21_13h47.10.018,LearnStrategy,2023.2.3,Win32,60.0240096,4,1,1,0.106666667,-0.008888889,1,0,0,1.18,rock_grid_rect_2,6,10,-1,-1,1.18,-0.11,-0.421111111,1,0,0,1.277,Pegmatite_rect,6,1.277,1,0,0,0,0,1,,,,,,,,,,,,,
5c3c1617f5ebd500018596cb,TCN,2024-06-21_13h47.10.018,LearnStrategy,2023.2.3,Win32,60.0240096,4,1,2,-0.018888889,0.01,1,0,0,0.515,rock_grid_rect_2,2,06,-1,-1,0.515,-0.098888889,-0.271111111,1,0,0,1.504,Basalt_rect,2,1.504,1,1,0,1,0,1,,,,,,,,,,,,,
5c3c1617f5ebd500018596cb,TCN,2024-06-21_13h47.10.018,LearnStrategy,2023.2.3,Win32,60.0240096,4,1,3,-0.027777778,0.002222222,1,0,0,0.564,rock_grid_rect_2,5,10,-1,-1,0.564,-0.358888889,-0.414444444,1,0,0,1.166,Obsidian_rect,5,1.166,1,2,0,2,0,1,,,,,,,,,,,,,
5c3c1617f5ebd500018596cb,TCN,2024-06-21_13h47.10.018,LearnStrategy,2023.2.3,Win32,60.0240096,4,1,4,0.031111111,0.011111111,1,0,0,0.465,rock_grid_rect_2,7,13,-1,-1,0.465,0.096666667,-0.414444444,1,0,0,1.433,Peridotite_rect,7,1.433,1,3,0,3,0,1,,,,,,,,,,,,,
5c3c1617f5ebd500018596cb,TCN,2024-06-21_13h47.10.018,LearnStrategy,2023.2.3,Win32,60.0240096,4,1,5,0.032222222,-0.012222222,1,0,0,0.514,rock_grid_rect_2,2,04,-1,-1,0.514,-0.115555556,-0.251111111,1,0,0,2.079,Basalt_rect,2,2.079,1,4,0,4,0,1,,,,,,,,,,,,,
5c3c1617f5ebd500018596cb,TCN,2024-06-21_13h47.10.018,LearnStrategy,2023.2.3,Win32,60.0240096,4,1,6,0.038888889,-0.003333333,1,0,0,0.931,rock_grid_rect_2,4,05,-1,-1,0.931,0.342222222,-0.255555556,1,0,0,2.842,Gabbro_rect,4,2.842,1,5,0,5,0,1,,,,,,,,,,,,,
5c3c1617f5ebd500018596cb,TCN,2024-06-21_13h47.10.018,LearnStrategy,2023.2.3,Win32,60.0240096,4,1,7,0.058888889,-0.013333333,1,0,0,0.549,rock_grid_rect_2,5,07,-1,-1,0.549,-0.354444444,-0.414444444,1,0,0,1.114,Obsidian_rect,5,1.114,1,6,0,6,0,1,,,,,,,,,,,,,
5c3c1617f5ebd500018596cb,TCN,2024-06-21_13h47.10.018,LearnStrategy,2023.2.3,Win32,60.0240096,4,1,8,0.12,-0.008888889,1,0,0,0.814,rock_grid_rect_2,7,02,-1,-1,0.814,0.101111111,-0.395555556,1,0,0,1.84,Peridotite_rect,7,1.84,1,7,0,7,0,1,,,,,,,,,,,,,
5c3c1617f5ebd500018596cb,TCN,2024-06-21_13h47.10.018,LearnStrategy,2023.2.3,Win32,60.0240096,4,1,9,0.036666667,-0.021111111,1,0,0,0.909,rock_grid_rect_2,3,07,-1,-1,0.909,0.107777778,-0.243333333,1,0,0,1.649,Diorite_rect,3,1.649,1,8,0,8,0,1,,,,,,,,,,,,,
5c3c1617f5ebd500018596cb,TCN,2024-06-21_13h47.10.018,LearnStrategy,2023.2.3,Win32,60.0240096,4,1,10,0.073333333,0.01,1,0,0,0.565,rock_grid_rect_2,1,14,-1,-1,0.565,-0.361111111,-0.238888889,1,0,0,1.386,Andesite_rect,1,1.386,1,9,0,9,0,1,,,,,,,,,,,,,
5c3c1617f5ebd500018596cb,TCN,2024-06-21_13h47.10.018,LearnStrategy,2023.2.3,Win32,60.0240096,4,1,11,0.135555556,0.02,1,0,0,0.645,rock_grid_rect_2,6,12,-1,-1,0.645,-0.152222222,-0.385555556,1,0,0,1.9,Pegmatite_rect,6,1.9,1,10,0,10,0,1,,,,,,,,,,,,,
5c3c1617f5ebd500018596cb,TCN,2024-06-21_13h47.10.018,LearnStrategy,2023.2.3,Win32,60.0240096,4,1,12,0.084444444,0.011111111,1,0,0,0.464,rock_grid_rect_2,8,15,-1,-1,0.464,0.352222222,-0.39,1,0,0,1.609,Pumice_rect,8,1.609,1,11,0,11,0,1,,,,,,,,,,,,,
5c3c1617f5ebd500018596cb,TCN,2024-06-21_13h47.10.018,LearnStrategy,2023.2.3,Win32,60.0240096,4,1,13,0.06,-0.02,1,0,0,0.48,rock_grid_rect_2,4,03,-1,-1,0.48,-0.38,-0.235555556,1,0,0,2.06,Andesite_rect,1,2.06,0,12,0,12,0,1,,,,,,,,,,,,,
5c3c1617f5ebd500018596cb,TCN,2024-06-21_13h47.10.018,LearnStrategy,2023.2.3,Win32,60.0240096,4,1,14,0.106666667,-0.004444444,1,0,0,0.548,rock_grid_rect_2,1,01,-1,-1,0.548,-0.328888889,-0.238888889,1,0,0,1.357,Andesite_rect,1,1.357,1,13,0,13,0,1,,,,,,,,,,,,,
5c3c1617f5ebd500018596cb,TCN,2024-06-21_13h47.10.018,LearnStrategy,2023.2.3,Win32,60.0240096,4,1,15,0.137777778,-0.011111111,1,0,0,0.982,rock_grid_rect_2,3,02,-1,-1,0.982,0.067777778,-0.237777778,1,0,0,1.532,Diorite_rect,3,1.532,1,14,0,14,0,1,,,,,,,,,,,,,
5c3c1617f5ebd500018596cb,TCN,2024-06-21_13h47.10.018,LearnStrategy,2023.2.3,Win32,60.0240096,4,1,16,0.001111111,-0.018888889,1,0,0,0.982,rock_grid_rect_2,8,06,-1,-1,0.982,0.443333333,-0.387777778,1,0,0,1.531,Pumice_rect,8,1.531,1,15,0,15,0,1,,,,,,,,,,,,,
5c3c1617f5ebd500018596cb,TCN,2024-06-21_13h47.10.018,LearnStrategy,2023.2.3,Win32,60.0240096,4,2,1,,,,,,,,7,15,,,,,,,,,,,7,1.123,1,,,,,,0.086666667,-0.39,1,0,0,1.123,Peridotite_rect,0,0,0,0,1,
5c3c1617f5ebd500018596cb,TCN,2024-06-21_13h47.10.018,LearnStrategy,2023.2.3,Win32,60.0240096,4,2,2,,,,,,,,6,06,,,,,,,,,,,6,2.197,1,,,,,,-0.153333333,-0.396666667,1,0,0,2.197,Pegmatite_rect,1,0,1,0,1,
5c3c1617f5ebd500018596cb,TCN,2024-06-21_13h47.10.018,LearnStrategy,2023.2.3,Win32,60.0240096,4,2,3,,,,,,,,1,11,,,,,,,,,,,1,2.775,1,,,,,,-0.396666667,-0.246666667,1,0,0,2.775,Andesite_rect,2,0,2,0,1,
5c3c1617f5ebd500018596cb,TCN,2024-06-21_13h47.10.018,LearnStrategy,2023.2.3,Win32,60.0240096,4,2,4,,,,,,,,4,09,,,,,,,,,,,2,3.992,0,,,,,,-0.113333333,-0.258888889,1,0,0,3.992,Basalt_rect,3,0,3,0,1,
5c3c1617f5ebd500018596cb,TCN,2024-06-21_13h47.10.018,LearnStrategy,2023.2.3,Win32,60.0240096,4,2,5,,,,,,,,5,05,,,,,,,,,,,5,2.852,1,,,,,,-0.387777778,-0.381111111,1,0,0,2.852,Obsidian_rect,4,0,4,0,1,
5c3c1617f5ebd500018596cb,TCN,2024-06-21_13h47.10.018,LearnStrategy,2023.2.3,Win32,60.0240096,4,2,6,,,,,,,,5,09,,,,,,,,,,,5,1.73,1,,,,,,-0.38,-0.404444444,1,0,0,1.73,Obsidian_rect,5,0,5,0,1,
5c3c1617f5ebd500018596cb,TCN,2024-06-21_13h47.10.018,LearnStrategy,2023.2.3,Win32,60.0240096,4,2,7,,,,,,,,4,08,,,,,,,,,,,1,4.17,0,,,,,,-0.376666667,-0.241111111,1,0,0,4.17,Andesite_rect,6,0,6,0,1,
5c3c1617f5ebd500018596cb,TCN,2024-06-21_13h47.10.018,LearnStrategy,2023.2.3,Win32,60.0240096,4,2,8,,,,,,,,7,08,,,,,,,,,,,7,1.571,1,,,,,,0.161111111,-0.408888889,1,0,0,1.571,Peridotite_rect,7,0,7,0,1,
5c3c1617f5ebd500018596cb,TCN,2024-06-21_13h47.10.018,LearnStrategy,2023.2.3,Win32,60.0240096,4,2,9,,,,,,,,8,16,,,,,,,,,,,8,1.647,1,,,,,,0.366666667,-0.398888889,1,0,0,1.647,Pumice_rect,8,0,8,0,1,
5c3c1617f5ebd500018596cb,TCN,2024-06-21_13h47.10.018,LearnStrategy,2023.2.3,Win32,60.0240096,4,2,10,,,,,,,,3,14,,,,,,,,,,,3,1.142,1,,,,,,0.076666667,-0.233333333,1,0,0,1.142,Diorite_rect,9,0,9,0,1,
5c3c1617f5ebd500018596cb,TCN,2024-06-21_13h47.10.018,LearnStrategy,2023.2.3,Win32,60.0240096,4,2,11,,,,,,,,3,06,,,,,,,,,,,4,2.063,0,,,,,,0.36,-0.253333333,1,0,0,2.063,Gabbro_rect,10,0,10,0,1,
5c3c1617f5ebd500018596cb,TCN,2024-06-21_13h47.10.018,LearnStrategy,2023.2.3,Win32,60.0240096,4,2,12,,,,,,,,2,05,,,,,,,,,,,2,2.684,1,,,,,,-0.074444444,-0.251111111,1,0,0,2.684,Basalt_rect,11,0,11,0,1,
5c3c1617f5ebd500018596cb,TCN,2024-06-21_13h47.10.018,LearnStrategy,2023.2.3,Win32,60.0240096,4,2,13,,,,,,,,1,05,,,,,,,,,,,1,3.19,1,,,,,,-0.328888889,-0.251111111,1,0,0,3.19,Andesite_rect,12,0,12,0,1,
5c3c1617f5ebd500018596cb,TCN,2024-06-21_13h47.10.018,LearnStrategy,2023.2.3,Win32,60.0240096,4,2,14,,,,,,,,2,08,,,,,,,,,,,2,2.303,1,,,,,,-0.114444444,-0.243333333,1,0,0,2.303,Basalt_rect,13,0,13,0,1,
5c3c1617f5ebd500018596cb,TCN,2024-06-21_13h47.10.018,LearnStrategy,2023.2.3,Win32,60.0240096,4,2,15,,,,,,,,8,02,,,,,,,,,,,8,1.713,1,,,,,,0.336666667,-0.382222222,1,0,0,1.713,Pumice_rect,14,0,14,0,1,
5c3c1617f5ebd500018596cb,TCN,2024-06-21_13h47.10.018,LearnStrategy,2023.2.3,Win32,60.0240096,4,2,16,,,,,,,,6,16,,,,,,,,,,,6,1.304,1,,,,,,-0.145555556,-0.394444444,1,0,0,1.304,Pegmatite_rect,15,0,15,0,1,
5c3c1617f5ebd500018596cb,TCN,2024-06-21_13h47.10.018,LearnStrategy,2023.2.3,Win32,60.0240096,5,1,1,0.03,0.004444444,1,0,0,1.048,rock_grid_rect_2,2,14,-1,-1,1.048,-0.13,-0.261111111,1,0,0,3.867,Basalt_rect,2,3.867,1,0,0,0,0,1,,,,,,,,,,,,,
5c3c1617f5ebd500018596cb,TCN,2024-06-21_13h47.10.018,LearnStrategy,2023.2.3,Win32,60.0240096,5,1,2,-0.013333333,0.007777778,1,0,0,0.765,rock_grid_rect_2,6,15,-1,-1,0.765,-0.168888889,-0.406666667,1,0,0,1.293,Pegmatite_rect,6,1.293,1,1,0,1,0,1,,,,,,,,,,,,,
5c3c1617f5ebd500018596cb,TCN,2024-06-21_13h47.10.018,LearnStrategy,2023.2.3,Win32,60.0240096,5,1,3,-0.024444444,-0.001111111,1,0,0,0.849,rock_grid_rect_2,7,07,-1,-1,0.849,0.062222222,-0.421111111,1,0,0,1.408,Peridotite_rect,7,1.408,1,2,0,2,0,1,,,,,,,,,,,,,
5c3c1617f5ebd500018596cb,TCN,2024-06-21_13h47.10.018,LearnStrategy,2023.2.3,Win32,60.0240096,5,1,4,0.021111111,-0.016666667,1,0,0,0.661,rock_grid_rect_2,5,11,-1,-1,0.661,-0.391111111,-0.418888889,1,0,0,1.393,Obsidian_rect,5,1.393,1,3,0,3,0,1,,,,,,,,,,,,,
5c3c1617f5ebd500018596cb,TCN,2024-06-21_13h47.10.018,LearnStrategy,2023.2.3,Win32,60.0240096,5,1,5,0.1,0.01,1,0,0,0.579,rock_grid_rect_2,6,13,-1,-1,0.579,-0.122222222,-0.385555556,1,0,0,4.099,Pegmatite_rect,6,4.099,1,4,0,4,0,1,,,,,,,,,,,,,
5c3c1617f5ebd500018596cb,TCN,2024-06-21_13h47.10.018,LearnStrategy,2023.2.3,Win32,60.0240096,5,1,6,0.017777778,0.018888889,1,0,0,0.53,rock_grid_rect_2,8,03,-1,-1,0.53,0.363333333,-0.391111111,1,0,0,1.237,Pumice_rect,8,1.237,1,5,0,5,0,1,,,,,,,,,,,,,
5c3c1617f5ebd500018596cb,TCN,2024-06-21_13h47.10.018,LearnStrategy,2023.2.3,Win32,60.0240096,5,1,7,0.051111111,-0.024444444,1,0,0,0.547,rock_grid_rect_2,2,11,-1,-1,0.547,-0.387777778,-0.26,1,0,0,1.304,Andesite_rect,1,1.304,0,6,0,6,0,1,,,,,,,,,,,,,
5c3c1617f5ebd500018596cb,TCN,2024-06-21_13h47.10.018,LearnStrategy,2023.2.3,Win32,60.0240096,5,1,8,0.097777778,0.005555556,1,0,0,0.58,rock_grid_rect_2,3,09,-1,-1,0.58,0.122222222,-0.247777778,1,0,0,1.65,Diorite_rect,3,1.65,1,7,0,7,0,1,,,,,,,,,,,,,
5c3c1617f5ebd500018596cb,TCN,2024-06-21_13h47.10.018,LearnStrategy,2023.2.3,Win32,60.0240096,5,1,9,0.05,-0.023333333,1,0,0,0.548,rock_grid_rect_2,7,05,-1,-1,0.548,0.321111111,-0.237777778,1,0,0,3.91,Gabbro_rect,4,3.91,0,8,0,8,0,1,,,,,,,,,,,,,
5c3c1617f5ebd500018596cb,TCN,2024-06-21_13h47.10.018,LearnStrategy,2023.2.3,Win32,60.0240096,5,1,10,0.065555556,-0.012222222,1,0,0,0.548,rock_grid_rect_2,5,06,-1,-1,0.548,-0.318888889,-0.382222222,1,0,0,1.19,Obsidian_rect,5,1.19,1,9,0,9,0,1,,,,,,,,,,,,,
5c3c1617f5ebd500018596cb,TCN,2024-06-21_13h47.10.018,LearnStrategy,2023.2.3,Win32,60.0240096,5,1,11,0.075555556,0.014444444,1,0,0,0.499,rock_grid_rect_2,1,02,-1,-1,0.499,-0.44,-0.235555556,1,0,0,2.631,Andesite_rect,1,2.631,1,10,0,10,0,1,,,,,,,,,,,,,
5c3c1617f5ebd500018596cb,TCN,2024-06-21_13h47.10.018,LearnStrategy,2023.2.3,Win32,60.0240096,5,1,12,-0.011111111,-0.02,1,0,0,0.514,rock_grid_rect_2,1,04,-1,-1,0.514,-0.36,-0.243333333,1,0,0,1.167,Andesite_rect,1,1.167,1,11,0,11,0,1,,,,,,,,,,,,,
5c3c1617f5ebd500018596cb,TCN,2024-06-21_13h47.10.018,LearnStrategy,2023.2.3,Win32,60.0240096,5,1,13,0.087777778,0.008888889,1,0,0,0.834,rock_grid_rect_2,3,10,-1,-1,0.834,0.377777778,-0.23,1,0,0,1.592,Gabbro_rect,4,1.592,0,12,0,12,0,1,,,,,,,,,,,,,
5c3c1617f5ebd500018596cb,TCN,2024-06-21_13h47.10.018,LearnStrategy,2023.2.3,Win32,60.0240096,5,1,14,0.035555556,-0.007777778,1,0,0,0.527,rock_grid_rect_2,4,15,-1,-1,0.527,0.394444444,-0.248888889,1,0,0,1.769,Gabbro_rect,4,1.769,1,13,0,13,0,1,,,,,,,,,,,,,
5c3c1617f5ebd500018596cb,TCN,2024-06-21_13h47.10.018,LearnStrategy,2023.2.3,Win32,60.0240096,5,1,15,0.031111111,0.022222222,1,0,0,0.614,rock_grid_rect_2,4,16,-1,-1,0.614,0.394444444,-0.251111111,1,0,0,1.441,Gabbro_rect,4,1.441,1,14,0,14,0,1,,,,,,,,,,,,,
5c3c1617f5ebd500018596cb,TCN,2024-06-21_13h47.10.018,LearnStrategy,2023.2.3,Win32,60.0240096,5,1,16,0.117777778,-0.005555556,1,0,0,0.631,rock_grid_rect_2,8,10,-1,-1,0.631,-0.407777778,-0.238888889,1,0,0,2.592,Andesite_rect,1,2.592,0,15,0,15,0,1,,,,,,,,,,,,,
5c3c1617f5ebd500018596cb,TCN,2024-06-21_13h47.10.018,LearnStrategy,2023.2.3,Win32,60.0240096,5,2,1,,,,,,,,8,13,,,,,,,,,,,8,1.417,1,,,,,,0.354444444,-0.386666667,1,0,0,1.417,Pumice_rect,0,0,0,0,1,
5c3c1617f5ebd500018596cb,TCN,2024-06-21_13h47.10.018,LearnStrategy,2023.2.3,Win32,60.0240096,5,2,2,,,,,,,,8,09,,,,,,,,,,,8,2.719,1,,,,,,0.354444444,-0.391111111,1,0,0,2.719,Pumice_rect,1,0,1,0,1,
5c3c1617f5ebd500018596cb,TCN,2024-06-21_13h47.10.018,LearnStrategy,2023.2.3,Win32,60.0240096,5,2,3,,,,,,,,3,13,,,,,,,,,,,3,1.866,1,,,,,,0.131111111,-0.245555556,1,0,0,1.866,Diorite_rect,2,0,2,0,1,
5c3c1617f5ebd500018596cb,TCN,2024-06-21_13h47.10.018,LearnStrategy,2023.2.3,Win32,60.0240096,5,2,4,,,,,,,,5,14,,,,,,,,,,,5,2.237,1,,,,,,-0.382222222,-0.402222222,1,0,0,2.237,Obsidian_rect,3,0,3,0,1,
5c3c1617f5ebd500018596cb,TCN,2024-06-21_13h47.10.018,LearnStrategy,2023.2.3,Win32,60.0240096,5,2,5,,,,,,,,1,06,,,,,,,,,,,1,3.877,1,,,,,,-0.45,-0.251111111,1,0,0,3.877,Andesite_rect,4,0,4,0,1,
5c3c1617f5ebd500018596cb,TCN,2024-06-21_13h47.10.018,LearnStrategy,2023.2.3,Win32,60.0240096,5,2,6,,,,,,,,2,09,,,,,,,,,,,2,1.963,1,,,,,,-0.123333333,-0.237777778,1,0,0,1.963,Basalt_rect,5,0,5,0,1,
5c3c1617f5ebd500018596cb,TCN,2024-06-21_13h47.10.018,LearnStrategy,2023.2.3,Win32,60.0240096,5,2,7,,,,,,,,1,16,,,,,,,,,,,1,2.927,1,,,,,,-0.402222222,-0.23,1,0,0,2.927,Andesite_rect,6,0,6,0,1,
5c3c1617f5ebd500018596cb,TCN,2024-06-21_13h47.10.018,LearnStrategy,2023.2.3,Win32,60.0240096,5,2,8,,,,,,,,2,10,,,,,,,,,,,4,2.11,0,,,,,,0.422222222,-0.257777778,1,0,0,2.11,Gabbro_rect,7,0,7,0,1,
5c3c1617f5ebd500018596cb,TCN,2024-06-21_13h47.10.018,LearnStrategy,2023.2.3,Win32,60.0240096,5,2,9,,,,,,,,7,16,,,,,,,,,,,7,2.094,1,,,,,,0.135555556,-0.394444444,1,0,0,2.094,Peridotite_rect,8,0,8,0,1,
5c3c1617f5ebd500018596cb,TCN,2024-06-21_13h47.10.018,LearnStrategy,2023.2.3,Win32,60.0240096,5,2,10,,,,,,,,3,12,,,,,,,,,,,8,2.308,0,,,,,,0.436666667,-0.39,1,0,0,2.308,Pumice_rect,9,0,9,0,1,
5c3c1617f5ebd500018596cb,TCN,2024-06-21_13h47.10.018,LearnStrategy,2023.2.3,Win32,60.0240096,5,2,11,,,,,,,,4,12,,,,,,,,,,,4,2.5,1,,,,,,0.407777778,-0.232222222,1,0,0,2.5,Gabbro_rect,10,0,10,0,1,
5c3c1617f5ebd500018596cb,TCN,2024-06-21_13h47.10.018,LearnStrategy,2023.2.3,Win32,60.0240096,5,2,12,,,,,,,,5,12,,,,,,,,,,,5,1.356,1,,,,,,-0.41,-0.405555556,1,0,0,1.356,Obsidian_rect,11,0,11,0,1,
5c3c1617f5ebd500018596cb,TCN,2024-06-21_13h47.10.018,LearnStrategy,2023.2.3,Win32,60.0240096,5,2,13,,,,,,,,7,04,,,,,,,,,,,1,3.539,0,,,,,,-0.341111111,-0.246666667,1,0,0,3.539,Andesite_rect,12,0,12,0,1,
5c3c1617f5ebd500018596cb,TCN,2024-06-21_13h47.10.018,LearnStrategy,2023.2.3,Win32,60.0240096,5,2,14,,,,,,,,6,07,,,,,,,,,,,6,1.32,1,,,,,,-0.15,-0.388888889,1,0,0,1.32,Pegmatite_rect,13,0,13,0,1,
5c3c1617f5ebd500018596cb,TCN,2024-06-21_13h47.10.018,LearnStrategy,2023.2.3,Win32,60.0240096,5,2,15,,,,,,,,4,10,,,,,,,,,,,4,2.218,1,,,,,,0.325555556,-0.23,1,0,0,2.218,Gabbro_rect,14,0,14,0,1,
5c3c1617f5ebd500018596cb,TCN,2024-06-21_13h47.10.018,LearnStrategy,2023.2.3,Win32,60.0240096,5,2,16,,,,,,,,6,08,,,,,,,,,,,6,1.755,1,,,,,,-0.147777778,-0.395555556,1,0,0,1.755,Pegmatite_rect,15,0,15,0,1,
5c3c1617f5ebd500018596cb,TCN,2024-06-21_13h47.10.018,LearnStrategy,2023.2.3,Win32,60.0240096,6,1,1,0.056666667,0.011111111,1,0,0,0.813,rock_grid_rect_2,8,08,-1,-1,0.813,0.361111111,-0.393333333,1,0,0,1.279,Pumice_rect,8,1.279,1,0,0,0,0,1,,,,,,,,,,,,,
5c3c1617f5ebd500018596cb,TCN,2024-06-21_13h47.10.018,LearnStrategy,2023.2.3,Win32,60.0240096,6,1,2,0.04,0.02,1,0,0,0.781,rock_grid_rect_2,2,01,-1,-1,0.781,0.342222222,-0.247777778,1,0,0,1.906,Gabbro_rect,4,1.906,0,1,0,1,0,1,,,,,,,,,,,,,
5c3c1617f5ebd500018596cb,TCN,2024-06-21_13h47.10.018,LearnStrategy,2023.2.3,Win32,60.0240096,6,1,3,0.065555556,-0.02,1,0,0,0.815,rock_grid_rect_2,8,14,-1,-1,0.815,0.376666667,-0.383333333,1,0,0,1.264,Pumice_rect,8,1.264,1,2,0,2,0,1,,,,,,,,,,,,,
5c3c1617f5ebd500018596cb,TCN,2024-06-21_13h47.10.018,LearnStrategy,2023.2.3,Win32,60.0240096,6,1,4,0.038888889,0.014444444,1,0,0,0.749,rock_grid_rect_2,7,10,-1,-1,0.749,0.171111111,-0.392222222,1,0,0,1.745,Peridotite_rect,7,1.745,1,3,0,3,0,1,,,,,,,,,,,,,
5c3c1617f5ebd500018596cb,TCN,2024-06-21_13h47.10.018,LearnStrategy,2023.2.3,Win32,60.0240096,6,1,5,0.044444444,0,1,0,0,0.681,rock_grid_rect_2,3,16,-1,-1,0.681,0.086666667,-0.23,1,0,0,1.424,Diorite_rect,3,1.424,1,4,0,4,0,1,,,,,,,,,,,,,
5c3c1617f5ebd500018596cb,TCN,2024-06-21_13h47.10.018,LearnStrategy,2023.2.3,Win32,60.0240096,6,1,6,-0.01,0.006666667,1,0,0,0.648,rock_grid_rect_2,1,03,-1,-1,0.648,-0.348888889,-0.27,1,0,0,8.878,Andesite_rect,1,8.878,1,5,0,5,0,1,,,,,,,,,,,,,
5c3c1617f5ebd500018596cb,TCN,2024-06-21_13h47.10.018,LearnStrategy,2023.2.3,Win32,60.0240096,6,1,7,0.061111111,0.005555556,1,0,0,0.932,rock_grid_rect_2,2,12,-1,-1,0.932,-0.457777778,-0.265555556,1,0,0,1.133,Andesite_rect,1,1.133,0,6,0,6,0,1,,,,,,,,,,,,,
5c3c1617f5ebd500018596cb,TCN,2024-06-21_13h47.10.018,LearnStrategy,2023.2.3,Win32,60.0240096,6,1,8,0.076666667,0.011111111,1,0,0,4.116,rock_grid_rect_2,7,14,-1,-1,4.116,0.14,-0.397777778,1,0,0,1.641,Peridotite_rect,7,1.641,1,7,0,7,0,1,,,,,,,,,,,,,
5c3c1617f5ebd500018596cb,TCN,2024-06-21_13h47.10.018,LearnStrategy,2023.2.3,Win32,60.0240096,6,1,9,0.027777778,0.007777778,1,0,0,0.678,rock_grid_rect_2,4,11,-1,-1,0.678,0.408888889,-0.244444444,1,0,0,2.352,Gabbro_rect,4,2.352,1,8,0,8,0,1,,,,,,,,,,,,,
5c3c1617f5ebd500018596cb,TCN,2024-06-21_13h47.10.018,LearnStrategy,2023.2.3,Win32,60.0240096,6,1,10,0.097777778,0.012222222,1,0,0,0.597,rock_grid_rect_2,5,04,-1,-1,0.597,-0.357777778,-0.384444444,1,0,0,1.198,Obsidian_rect,5,1.198,1,9,0,9,0,1,,,,,,,,,,,,,
5c3c1617f5ebd500018596cb,TCN,2024-06-21_13h47.10.018,LearnStrategy,2023.2.3,Win32,60.0240096,6,1,11,0.058888889,0,1,0,0,0.465,rock_grid_rect_2,4,01,-1,-1,0.465,0.388888889,-0.248888889,1,0,0,1.946,Gabbro_rect,4,1.946,1,10,0,10,0,1,,,,,,,,,,,,,
5c3c1617f5ebd500018596cb,TCN,2024-06-21_13h47.10.018,LearnStrategy,2023.2.3,Win32,60.0240096,6,1,12,0.101111111,-0.011111111,1,0,0,0.698,rock_grid_rect_2,6,11,-1,-1,0.698,-0.114444444,-0.386666667,1,0,0,1.176,Pegmatite_rect,6,1.176,1,11,0,11,0,1,,,,,,,,,,,,,
5c3c1617f5ebd500018596cb,TCN,2024-06-21_13h47.10.018,LearnStrategy,2023.2.3,Win32,60.0240096,6,1,13,0.056666667,-0.005555556,1,0,0,0.764,rock_grid_rect_2,6,05,-1,-1,0.764,-0.135555556,-0.407777778,1,0,0,1.255,Pegmatite_rect,6,1.255,1,12,0,12,0,1,,,,,,,,,,,,,
5c3c1617f5ebd500018596cb,TCN,2024-06-21_13h47.10.018,LearnStrategy,2023.2.3,Win32,60.0240096,6,1,14,0.022222222,0.002222222,1,0,0,0.547,rock_grid_rect_2,1,07,-1,-1,0.547,-0.356666667,-0.242222222,1,0,0,1.501,Andesite_rect,1,1.501,1,13,0,13,0,1,,,,,,,,,,,,,
5c3c1617f5ebd500018596cb,TCN,2024-06-21_13h47.10.018,LearnStrategy,2023.2.3,Win32,60.0240096,6,1,15,0.085555556,-0.012222222,1,0,0,0.798,rock_grid_rect_2,5,16,-1,-1,0.798,-0.364444444,-0.396666667,1,0,0,1.728,Obsidian_rect,5,1.728,1,14,0,14,0,1,,,,,,,,,,,,,
5c3c1617f5ebd500018596cb,TCN,2024-06-21_13h47.10.018,LearnStrategy,2023.2.3,Win32,60.0240096,6,1,16,0.033333333,-0.01,1,0,0,0.782,rock_grid_rect_2,3,11,-1,-1,0.782,0.143333333,-0.266666667,1,0,0,2.292,Diorite_rect,3,2.292,1,15,0,15,0,1,,,,,,,,,,,,,
5c3c1617f5ebd500018596cb,TCN,2024-06-21_13h47.10.018,LearnStrategy,2023.2.3,Win32,60.0240096,6,2,1,,,,,,,,2,16,,,,,,,,,,,8,4.286,0,,,,,,0.321111111,-0.403333333,1,0,0,4.286,Pumice_rect,0,0,0,0,1,
5c3c1617f5ebd500018596cb,TCN,2024-06-21_13h47.10.018,LearnStrategy,2023.2.3,Win32,60.0240096,6,2,2,,,,,,,,5,08,,,,,,,,,,,5,1.279,1,,,,,,-0.401111111,-0.406666667,1,0,0,1.279,Obsidian_rect,1,0,1,0,1,
5c3c1617f5ebd500018596cb,TCN,2024-06-21_13h47.10.018,LearnStrategy,2023.2.3,Win32,60.0240096,6,2,3,,,,,,,,8,04,,,,,,,,,,,8,1.499,1,,,,,,0.447777778,-0.417777778,1,0,0,1.499,Pumice_rect,2,0,2,0,1,
5c3c1617f5ebd500018596cb,TCN,2024-06-21_13h47.10.018,LearnStrategy,2023.2.3,Win32,60.0240096,6,2,4,,,,,,,,6,03,,,,,,,,,,,6,1.973,1,,,,,,-0.175555556,-0.406666667,1,0,0,1.973,Pegmatite_rect,3,0,3,0,1,
5c3c1617f5ebd500018596cb,TCN,2024-06-21_13h47.10.018,LearnStrategy,2023.2.3,Win32,60.0240096,6,2,5,,,,,,,,7,06,,,,,,,,,,,6,2.839,0,,,,,,-0.122222222,-0.392222222,1,0,0,2.839,Pegmatite_rect,4,0,4,0,1,
5c3c1617f5ebd500018596cb,TCN,2024-06-21_13h47.10.018,LearnStrategy,2023.2.3,Win32,60.0240096,6,2,6,,,,,,,,3,15,,,,,,,,,,,3,3.868,1,,,,,,0.096666667,-0.255555556,1,0,0,3.868,Diorite_rect,5,0,5,0,1,
5c3c1617f5ebd500018596cb,TCN,2024-06-21_13h47.10.018,LearnStrategy,2023.2.3,Win32,60.0240096,6,2,7,,,,,,,,3,08,,,,,,,,,,,3,1.583,1,,,,,,0.096666667,-0.255555556,1,0,0,1.583,Diorite_rect,6,0,6,0,1,
5c3c1617f5ebd500018596cb,TCN,2024-06-21_13h47.10.018,LearnStrategy,2023.2.3,Win32,60.0240096,6,2,8,,,,,,,,7,12,,,,,,,,,,,7,2.437,1,,,,,,0.086666667,-0.418888889,1,0,0,2.437,Peridotite_rect,7,0,7,0,1,
5c3c1617f5ebd500018596cb,TCN,2024-06-21_13h47.10.018,LearnStrategy,2023.2.3,Win32,60.0240096,6,2,9,,,,,,,,1,09,,,,,,,,,,,1,2.304,1,,,,,,-0.384444444,-0.25,1,0,0,2.304,Andesite_rect,8,0,8,0,1,
5c3c1617f5ebd500018596cb,TCN,2024-06-21_13h47.10.018,LearnStrategy,2023.2.3,Win32,60.0240096,6,2,10,,,,,,,,4,14,,,,,,,,,,,4,2.626,1,,,,,,0.341111111,-0.231111111,1,0,0,2.626,Gabbro_rect,9,0,9,0,1,
5c3c1617f5ebd500018596cb,TCN,2024-06-21_13h47.10.018,LearnStrategy,2023.2.3,Win32,60.0240096,6,2,11,,,,,,,,8,05,,,,,,,,,,,8,1.282,1,,,,,,0.336666667,-0.407777778,1,0,0,1.282,Pumice_rect,10,0,10,0,1,
5c3c1617f5ebd500018596cb,TCN,2024-06-21_13h47.10.018,LearnStrategy,2023.2.3,Win32,60.0240096,6,2,12,,,,,,,,4,13,,,,,,,,,,,4,3.109,1,,,,,,0.332222222,-0.252222222,1,0,0,3.109,Gabbro_rect,11,0,11,0,1,
5c3c1617f5ebd500018596cb,TCN,2024-06-21_13h47.10.018,LearnStrategy,2023.2.3,Win32,60.0240096,6,2,13,,,,,,,,5,02,,,,,,,,,,,5,1.451,1,,,,,,-0.463333333,-0.381111111,1,0,0,1.451,Obsidian_rect,12,0,12,0,1,
5c3c1617f5ebd500018596cb,TCN,2024-06-21_13h47.10.018,LearnStrategy,2023.2.3,Win32,60.0240096,6,2,14,,,,,,,,2,02,,,,,,,,,,,2,2.214,1,,,,,,-0.148888889,-0.262222222,1,0,0,2.214,Basalt_rect,13,0,13,0,1,
5c3c1617f5ebd500018596cb,TCN,2024-06-21_13h47.10.018,LearnStrategy,2023.2.3,Win32,60.0240096,6,2,15,,,,,,,,1,10,,,,,,,,,,,2,3.565,0,,,,,,-0.214444444,-0.266666667,1,0,0,3.565,Basalt_rect,14,0,14,0,1,
5c3c1617f5ebd500018596cb,TCN,2024-06-21_13h47.10.018,LearnStrategy,2023.2.3,Win32,60.0240096,6,2,16,,,,,,,,6,09,,,,,,,,,,,6,1.41,1,,,,,,-0.172222222,-0.41,1,0,0,1.41,Pegmatite_rect,15,0,15,0,1,
5c3c1617f5ebd500018596cb,TCN,2024-06-21_13h47.10.018,LearnStrategy,2023.2.3,Win32,60.0240096,7,1,1,0.108888889,-0.011111111,1,0,0,0.647,rock_grid_rect_2,2,04,-1,-1,0.647,-0.092222222,-0.236666667,1,0,0,1.381,Basalt_rect,2,1.381,1,0,0,0,0,1,,,,,,,,,,,,,
5c3c1617f5ebd500018596cb,TCN,2024-06-21_13h47.10.018,LearnStrategy,2023.2.3,Win32,60.0240096,7,1,2,0.036666667,0.013333333,1,0,0,0.647,rock_grid_rect_2,3,11,-1,-1,0.647,0.13,-0.231111111,1,0,0,1.543,Diorite_rect,3,1.543,1,1,0,1,0,1,,,,,,,,,,,,,
5c3c1617f5ebd500018596cb,TCN,2024-06-21_13h47.10.018,LearnStrategy,2023.2.3,Win32,60.0240096,7,1,3,0.054444444,0.005555556,1,0,0,0.481,rock_grid_rect_2,5,07,-1,-1,0.481,-0.374444444,-0.405555556,1,0,0,1.251,Obsidian_rect,5,1.251,1,2,0,2,0,1,,,,,,,,,,,,,
5c3c1617f5ebd500018596cb,TCN,2024-06-21_13h47.10.018,LearnStrategy,2023.2.3,Win32,60.0240096,7,1,4,0.065555556,0,1,0,0,0.831,rock_grid_rect_2,2,14,-1,-1,0.831,0.363333333,-0.247777778,1,0,0,2.38,Gabbro_rect,4,2.38,0,3,0,3,0,1,,,,,,,,,,,,,
5c3c1617f5ebd500018596cb,TCN,2024-06-21_13h47.10.018,LearnStrategy,2023.2.3,Win32,60.0240096,7,1,5,0.141111111,0.014444444,1,0,0,0.748,rock_grid_rect_2,4,05,-1,-1,0.748,0.366666667,-0.256666667,1,0,0,2.542,Gabbro_rect,4,2.542,1,4,0,4,0,1,,,,,,,,,,,,,
5c3c1617f5ebd500018596cb,TCN,2024-06-21_13h47.10.018,LearnStrategy,2023.2.3,Win32,60.0240096,7,1,6,0.091111111,-0.01,1,0,0,0.598,rock_grid_rect_2,1,02,-1,-1,0.598,-0.412222222,-0.248888889,1,0,0,11.336,Andesite_rect,1,11.336,1,5,0,5,0,1,,,,,,,,,,,,,
5c3c1617f5ebd500018596cb,TCN,2024-06-21_13h47.10.018,LearnStrategy,2023.2.3,Win32,60.0240096,7,1,7,0.074444444,0.001111111,1,0,0,0.666,rock_grid_rect_2,6,11,-1,-1,0.666,-0.171111111,-0.405555556,1,0,0,1.967,Pegmatite_rect,6,1.967,1,6,0,6,0,1,,,,,,,,,,,,,
5c3c1617f5ebd500018596cb,TCN,2024-06-21_13h47.10.018,LearnStrategy,2023.2.3,Win32,60.0240096,7,1,8,-0.026666667,0.008888889,1,0,0,0.831,rock_grid_rect_2,8,15,-1,-1,0.831,0.402222222,-0.407777778,1,0,0,1.754,Pumice_rect,8,1.754,1,7,0,7,0,1,,,,,,,,,,,,,
5c3c1617f5ebd500018596cb,TCN,2024-06-21_13h47.10.018,LearnStrategy,2023.2.3,Win32,60.0240096,7,1,9,-0.004444444,0.004444444,1,0,0,1.263,rock_grid_rect_2,7,14,-1,-1,1.263,0.091111111,-0.4,1,0,0,1.592,Peridotite_rect,7,1.592,1,8,0,8,0,1,,,,,,,,,,,,,
5c3c1617f5ebd500018596cb,TCN,2024-06-21_13h47.10.018,LearnStrategy,2023.2.3,Win32,60.0240096,7,1,10,0.013333333,-0.024444444,1,0,0,0.781,rock_grid_rect_2,4,01,-1,-1,0.781,0.434444444,-0.25,1,0,0,4.833,Gabbro_rect,4,4.833,1,9,0,9,0,1,,,,,,,,,,,,,
5c3c1617f5ebd500018596cb,TCN,2024-06-21_13h47.10.018,LearnStrategy,2023.2.3,Win32,60.0240096,7,1,11,0.087777778,-0.014444444,1,0,0,0.947,rock_grid_rect_2,6,15,-1,-1,0.947,-0.156666667,-0.382222222,1,0,0,1.758,Pegmatite_rect,6,1.758,1,10,0,10,0,1,,,,,,,,,,,,,
5c3c1617f5ebd500018596cb,TCN,2024-06-21_13h47.10.018,LearnStrategy,2023.2.3,Win32,60.0240096,7,1,12,0.044444444,0.014444444,1,0,0,0.614,rock_grid_rect_2,8,14,-1,-1,0.614,0.356666667,-0.378888889,1,0,0,1.277,Pumice_rect,8,1.277,1,11,0,11,0,1,,,,,,,,,,,,,
5c3c1617f5ebd500018596cb,TCN,2024-06-21_13h47.10.018,LearnStrategy,2023.2.3,Win32,60.0240096,7,1,13,0.042222222,-0.011111111,1,0,0,0.598,rock_grid_rect_2,7,13,-1,-1,0.598,0.034444444,-0.38,1,0,0,1.143,Peridotite_rect,7,1.143,1,12,0,12,0,1,,,,,,,,,,,,,
5c3c1617f5ebd500018596cb,TCN,2024-06-21_13h47.10.018,LearnStrategy,2023.2.3,Win32,60.0240096,7,1,14,0.055555556,0.003333333,1,0,0,0.73,rock_grid_rect_2,3,10,-1,-1,0.73,0.122222222,-0.25,1,0,0,3.729,Diorite_rect,3,3.729,1,13,0,13,0,1,,,,,,,,,,,,,
5c3c1617f5ebd500018596cb,TCN,2024-06-21_13h47.10.018,LearnStrategy,2023.2.3,Win32,60.0240096,7,1,15,0.003333333,0.006666667,1,0,0,0.865,rock_grid_rect_2,5,11,-1,-1,0.865,-0.442222222,-0.402222222,1,0,0,1.233,Obsidian_rect,5,1.233,1,14,0,14,0,1,,,,,,,,,,,,,
5c3c1617f5ebd500018596cb,TCN,2024-06-21_13h47.10.018,LearnStrategy,2023.2.3,Win32,60.0240096,7,1,16,0.033333333,0.012222222,1,0,0,0.53,rock_grid_rect_2,1,14,-1,-1,0.53,-0.153333333,-0.241111111,1,0,0,2.403,Basalt_rect,2,2.403,0,15,0,15,0,1,,,,,,,,,,,,,
5c3c1617f5ebd500018596cb,TCN,2024-06-21_13h47.10.018,LearnStrategy,2023.2.3,Win32,60.0240096,7,2,1,,,,,,,,6,07,,,,,,,,,,,6,1.545,1,,,,,,-0.135555556,-0.402222222,1,0,0,1.545,Pegmatite_rect,0,0,0,0,1,
5c3c1617f5ebd500018596cb,TCN,2024-06-21_13h47.10.018,LearnStrategy,2023.2.3,Win32,60.0240096,7,2,2,,,,,,,,5,02,,,,,,,,,,,5,1.199,1,,,,,,-0.415555556,-0.382222222,1,0,0,1.199,Obsidian_rect,1,0,1,0,1,
5c3c1617f5ebd500018596cb,TCN,2024-06-21_13h47.10.018,LearnStrategy,2023.2.3,Win32,60.0240096,7,2,3,,,,,,,,4,08,,,,,,,,,,,4,4.37,1,,,,,,0.398888889,-0.252222222,1,0,0,4.37,Gabbro_rect,2,0,2,0,1,
5c3c1617f5ebd500018596cb,TCN,2024-06-21_13h47.10.018,LearnStrategy,2023.2.3,Win32,60.0240096,7,2,4,,,,,,,,1,10,,,,,,,,,,,1,2.503,1,,,,,,-0.394444444,-0.247777778,1,0,0,2.503,Andesite_rect,3,0,3,0,1,
5c3c1617f5ebd500018596cb,TCN,2024-06-21_13h47.10.018,LearnStrategy,2023.2.3,Win32,60.0240096,7,2,5,,,,,,,,7,04,,,,,,,,,,,1,3.638,0,,,,,,-0.415555556,-0.246666667,1,0,0,3.638,Andesite_rect,4,0,4,0,1,
5c3c1617f5ebd500018596cb,TCN,2024-06-21_13h47.10.018,LearnStrategy,2023.2.3,Win32,60.0240096,7,2,6,,,,,,,,6,08,,,,,,,,,,,6,1.353,1,,,,,,-0.171111111,-0.402222222,1,0,0,1.353,Pegmatite_rect,5,0,5,0,1,
5c3c1617f5ebd500018596cb,TCN,2024-06-21_13h47.10.018,LearnStrategy,2023.2.3,Win32,60.0240096,7,2,7,,,,,,,,7,12,,,,,,,,,,,7,2.807,1,,,,,,0.135555556,-0.387777778,1,0,0,2.807,Peridotite_rect,6,0,6,0,1,
5c3c1617f5ebd500018596cb,TCN,2024-06-21_13h47.10.018,LearnStrategy,2023.2.3,Win32,60.0240096,7,2,8,,,,,,,,8,09,,,,,,,,,,,8,1.42,1,,,,,,0.376666667,-0.392222222,1,0,0,1.42,Pumice_rect,7,0,7,0,1,
5c3c1617f5ebd500018596cb,TCN,2024-06-21_13h47.10.018,LearnStrategy,2023.2.3,Win32,60.0240096,7,2,9,,,,,,,,4,12,,,,,,,,,,,4,4.168,1,,,,,,0.355555556,-0.245555556,1,0,0,4.168,Gabbro_rect,8,0,8,0,1,
5c3c1617f5ebd500018596cb,TCN,2024-06-21_13h47.10.018,LearnStrategy,2023.2.3,Win32,60.0240096,7,2,10,,,,,,,,1,16,,,,,,,,,,,1,2.232,1,,,,,,-0.35,-0.248888889,1,0,0,2.232,Andesite_rect,9,0,9,0,1,
5c3c1617f5ebd500018596cb,TCN,2024-06-21_13h47.10.018,LearnStrategy,2023.2.3,Win32,60.0240096,7,2,11,,,,,,,,8,13,,,,,,,,,,,8,1.473,1,,,,,,0.317777778,-0.386666667,1,0,0,1.473,Pumice_rect,10,0,10,0,1,
5c3c1617f5ebd500018596cb,TCN,2024-06-21_13h47.10.018,LearnStrategy,2023.2.3,Win32,60.0240096,7,2,12,,,,,,,,3,06,,,,,,,,,,,3,3.611,1,,,,,,0.148888889,-0.245555556,1,0,0,3.611,Diorite_rect,11,0,11,0,1,
5c3c1617f5ebd500018596cb,TCN,2024-06-21_13h47.10.018,LearnStrategy,2023.2.3,Win32,60.0240096,7,2,13,,,,,,,,2,08,,,,,,,,,,,2,1.646,1,,,,,,-0.143333333,-0.248888889,1,0,0,1.646,Basalt_rect,12,0,12,0,1,
5c3c1617f5ebd500018596cb,TCN,2024-06-21_13h47.10.018,LearnStrategy,2023.2.3,Win32,60.0240096,7,2,14,,,,,,,,2,10,,,,,,,,,,,2,3.103,1,,,,,,-0.116666667,-0.27,1,0,0,3.103,Basalt_rect,13,0,13,0,1,
5c3c1617f5ebd500018596cb,TCN,2024-06-21_13h47.10.018,LearnStrategy,2023.2.3,Win32,60.0240096,7,2,15,,,,,,,,3,08,,,,,,,,,,,3,1.924,1,,,,,,0.152222222,-0.254444444,1,0,0,1.924,Diorite_rect,14,0,14,0,1,
5c3c1617f5ebd500018596cb,TCN,2024-06-21_13h47.10.018,LearnStrategy,2023.2.3,Win32,60.0240096,7,2,16,,,,,,,,5,12,,,,,,,,,,,5,1.281,1,,,,,,-0.385555556,-0.397777778,1,0,0,1.281,Obsidian_rect,15,0,15,0,1,
5c3c1617f5ebd500018596cb,TCN,2024-06-21_13h47.10.018,LearnStrategy,2023.2.3,Win32,60.0240096,8,1,1,0.027777778,-0.001111111,1,0,0,0.781,rock_grid_rect_2,7,07,-1,-1,0.781,0.072222222,-0.378888889,1,0,0,1.237,Peridotite_rect,7,1.237,1,0,0,0,0,1,,,,,,,,,,,,,
5c3c1617f5ebd500018596cb,TCN,2024-06-21_13h47.10.018,LearnStrategy,2023.2.3,Win32,60.0240096,8,1,2,0.044444444,0.016666667,1,0,0,0.514,rock_grid_rect_2,1,01,-1,-1,0.514,-0.377777778,-0.238888889,1,0,0,2.541,Andesite_rect,1,2.541,1,1,0,1,0,1,,,,,,,,,,,,,
5c3c1617f5ebd500018596cb,TCN,2024-06-21_13h47.10.018,LearnStrategy,2023.2.3,Win32,60.0240096,8,1,3,0.101111111,0.002222222,1,0,0,0.524,rock_grid_rect_2,7,05,-1,-1,0.524,0.09,-0.378888889,1,0,0,1.515,Peridotite_rect,7,1.515,1,2,0,2,0,1,,,,,,,,,,,,,
5c3c1617f5ebd500018596cb,TCN,2024-06-21_13h47.10.018,LearnStrategy,2023.2.3,Win32,60.0240096,8,1,4,-0.038888889,0.002222222,1,0,0,0.529,rock_grid_rect_2,5,16,-1,-1,0.529,-0.406666667,-0.397777778,1,0,0,1.161,Obsidian_rect,5,1.161,1,3,0,3,0,1,,,,,,,,,,,,,
5c3c1617f5ebd500018596cb,TCN,2024-06-21_13h47.10.018,LearnStrategy,2023.2.3,Win32,60.0240096,8,1,5,0.062222222,0.008888889,1,0,0,0.448,rock_grid_rect_2,8,08,-1,-1,0.448,0.375555556,-0.402222222,1,0,0,1.597,Pumice_rect,8,1.597,1,4,0,4,0,1,,,,,,,,,,,,,
5c3c1617f5ebd500018596cb,TCN,2024-06-21_13h47.10.018,LearnStrategy,2023.2.3,Win32,60.0240096,8,1,6,-0.002222222,0.007777778,1,0,0,0.465,rock_grid_rect_2,6,05,-1,-1,0.465,-0.155555556,-0.384444444,1,0,0,1.627,Pegmatite_rect,6,1.627,1,5,0,5,0,1,,,,,,,,,,,,,
5c3c1617f5ebd500018596cb,TCN,2024-06-21_13h47.10.018,LearnStrategy,2023.2.3,Win32,60.0240096,8,1,7,0.048888889,-0.013333333,1,0,0,0.697,rock_grid_rect_2,2,12,-1,-1,0.697,-0.362222222,-0.237777778,1,0,0,1.463,Andesite_rect,1,1.463,0,6,0,6,0,1,,,,,,,,,,,,,
5c3c1617f5ebd500018596cb,TCN,2024-06-21_13h47.10.018,LearnStrategy,2023.2.3,Win32,60.0240096,8,1,8,0.103333333,0.014444444,1,0,0,0.667,rock_grid_rect_2,3,07,-1,-1,0.667,0.17,-0.253333333,1,0,0,1.127,Diorite_rect,3,1.127,1,7,0,7,0,1,,,,,,,,,,,,,
5c3c1617f5ebd500018596cb,TCN,2024-06-21_13h47.10.018,LearnStrategy,2023.2.3,Win32,60.0240096,8,1,9,-0.002222222,-0.015555556,1,0,0,0.815,rock_grid_rect_2,5,04,-1,-1,0.815,-0.43,-0.4,1,0,0,1.306,Obsidian_rect,5,1.306,1,8,0,8,0,1,,,,,,,,,,,,,
5c3c1617f5ebd500018596cb,TCN,2024-06-21_13h47.10.018,LearnStrategy,2023.2.3,Win32,60.0240096,8,1,10,-0.052222222,0.016666667,1,0,0,0.515,rock_grid_rect_2,6,13,-1,-1,0.515,-0.154444444,-0.395555556,1,0,0,2.487,Pegmatite_rect,6,2.487,1,9,0,9,0,1,,,,,,,,,,,,,
5c3c1617f5ebd500018596cb,TCN,2024-06-21_13h47.10.018,LearnStrategy,2023.2.3,Win32,60.0240096,8,1,11,0.033333333,0.005555556,1,0,0,0.632,rock_grid_rect_2,8,10,-1,-1,0.632,0.371111111,-0.392222222,1,0,0,1.666,Pumice_rect,8,1.666,1,10,0,10,0,1,,,,,,,,,,,,,
5c3c1617f5ebd500018596cb,TCN,2024-06-21_13h47.10.018,LearnStrategy,2023.2.3,Win32,60.0240096,8,1,12,0.057777778,0.001111111,1,0,0,0.881,rock_grid_rect_2,3,09,-1,-1,0.881,0.121111111,-0.262222222,1,0,0,2.059,Diorite_rect,3,2.059,1,11,0,11,0,1,,,,,,,,,,,,,
5c3c1617f5ebd500018596cb,TCN,2024-06-21_13h47.10.018,LearnStrategy,2023.2.3,Win32,60.0240096,8,1,13,0.071111111,-0.002222222,1,0,0,0.665,rock_grid_rect_2,4,11,-1,-1,0.665,-0.141111111,-0.262222222,1,0,0,2.804,Basalt_rect,2,2.804,0,12,0,12,0,1,,,,,,,,,,,,,
5c3c1617f5ebd500018596cb,TCN,2024-06-21_13h47.10.018,LearnStrategy,2023.2.3,Win32,60.0240096,8,1,14,0.021111111,0.003333333,1,0,0,0.612,rock_grid_rect_2,2,01,-1,-1,0.612,-0.092222222,-0.24,1,0,0,1.477,Basalt_rect,2,1.477,1,13,0,13,0,1,,,,,,,,,,,,,
5c3c1617f5ebd500018596cb,TCN,2024-06-21_13h47.10.018,LearnStrategy,2023.2.3,Win32,60.0240096,8,1,15,0.051111111,-0.012222222,1,0,0,0.448,rock_grid_rect_2,1,04,-1,-1,0.448,-0.477777778,-0.233333333,1,0,0,1.894,Andesite_rect,1,1.894,1,14,0,14,0,1,,,,,,,,,,,,,
5c3c1617f5ebd500018596cb,TCN,2024-06-21_13h47.10.018,LearnStrategy,2023.2.3,Win32,60.0240096,8,1,16,0.014444444,0.001111111,1,0,0,0.397,rock_grid_rect_2,4,15,-1,-1,0.397,0.067777778,-0.235555556,1,0,0,1.534,Diorite_rect,3,1.534,0,15,0,15,0,1,,,,,,,,,,,,,
5c3c1617f5ebd500018596cb,TCN,2024-06-21_13h47.10.018,LearnStrategy,2023.2.3,Win32,60.0240096,8,2,1,,,,,,,,4,13,,,,,,,,,,,4,1.659,1,,,,,,0.387777778,-0.247777778,1,0,0,1.659,Gabbro_rect,0,0,0,0,1,
5c3c1617f5ebd500018596cb,TCN,2024-06-21_13h47.10.018,LearnStrategy,2023.2.3,Win32,60.0240096,8,2,2,,,,,,,,8,05,,,,,,,,,,,8,2.619,1,,,,,,0.38,-0.392222222,1,0,0,2.619,Pumice_rect,1,0,1,0,1,
5c3c1617f5ebd500018596cb,TCN,2024-06-21_13h47.10.018,LearnStrategy,2023.2.3,Win32,60.0240096,8,2,3,,,,,,,,1,11,,,,,,,,,,,1,1.516,1,,,,,,-0.398888889,-0.251111111,1,0,0,1.516,Andesite_rect,2,0,2,0,1,
5c3c1617f5ebd500018596cb,TCN,2024-06-21_13h47.10.018,LearnStrategy,2023.2.3,Win32,60.0240096,8,2,4,,,,,,,,6,06,,,,,,,,,,,6,1.484,1,,,,,,-0.157777778,-0.407777778,1,0,0,1.484,Pegmatite_rect,3,0,3,0,1,
5c3c1617f5ebd500018596cb,TCN,2024-06-21_13h47.10.018,LearnStrategy,2023.2.3,Win32,60.0240096,8,2,5,,,,,,,,4,09,,,,,,,,,,,2,3.005,0,,,,,,-0.14,-0.261111111,1,0,0,3.005,Basalt_rect,4,0,4,0,1,
5c3c1617f5ebd500018596cb,TCN,2024-06-21_13h47.10.018,LearnStrategy,2023.2.3,Win32,60.0240096,8,2,6,,,,,,,,3,12,,,,,,,,,,,3,4.617,1,,,,,,0.145555556,-0.256666667,1,0,0,4.617,Diorite_rect,5,0,5,0,1,
5c3c1617f5ebd500018596cb,TCN,2024-06-21_13h47.10.018,LearnStrategy,2023.2.3,Win32,60.0240096,8,2,7,,,,,,,,7,06,,,,,,,,,,,6,4.24,0,,,,,,-0.126666667,-0.393333333,1,0,0,4.24,Pegmatite_rect,6,0,6,0,1,
5c3c1617f5ebd500018596cb,TCN,2024-06-21_13h47.10.018,LearnStrategy,2023.2.3,Win32,60.0240096,8,2,8,,,,,,,,5,09,,,,,,,,,,,5,1.24,1,,,,,,-0.396666667,-0.405555556,1,0,0,1.24,Obsidian_rect,7,0,7,0,1,
5c3c1617f5ebd500018596cb,TCN,2024-06-21_13h47.10.018,LearnStrategy,2023.2.3,Win32,60.0240096,8,2,9,,,,,,,,1,09,,,,,,,,,,,1,2.679,1,,,,,,-0.39,-0.241111111,1,0,0,2.679,Andesite_rect,8,0,8,0,1,
5c3c1617f5ebd500018596cb,TCN,2024-06-21_13h47.10.018,LearnStrategy,2023.2.3,Win32,60.0240096,8,2,10,,,,,,,,7,15,,,,,,,,,,,7,1.283,1,,,,,,0.083333333,-0.417777778,1,0,0,1.283,Peridotite_rect,9,0,9,0,1,
5c3c1617f5ebd500018596cb,TCN,2024-06-21_13h47.10.018,LearnStrategy,2023.2.3,Win32,60.0240096,8,2,11,,,,,,,,6,16,,,,,,,,,,,6,1.286,1,,,,,,-0.213333333,-0.386666667,1,0,0,1.286,Pegmatite_rect,10,0,10,0,1,
5c3c1617f5ebd500018596cb,TCN,2024-06-21_13h47.10.018,LearnStrategy,2023.2.3,Win32,60.0240096,8,2,12,,,,,,,,3,13,,,,,,,,,,,3,1.465,1,,,,,,0.052222222,-0.244444444,1,0,0,1.465,Diorite_rect,11,0,11,0,1,
5c3c1617f5ebd500018596cb,TCN,2024-06-21_13h47.10.018,LearnStrategy,2023.2.3,Win32,60.0240096,8,2,13,,,,,,,,8,02,,,,,,,,,,,8,1.369,1,,,,,,0.37,-0.393333333,1,0,0,1.369,Pumice_rect,12,0,12,0,1,
5c3c1617f5ebd500018596cb,TCN,2024-06-21_13h47.10.018,LearnStrategy,2023.2.3,Win32,60.0240096,8,2,14,,,,,,,,5,08,,,,,,,,,,,5,1.514,1,,,,,,-0.443333333,-0.405555556,1,0,0,1.514,Obsidian_rect,13,0,13,0,1,
5c3c1617f5ebd500018596cb,TCN,2024-06-21_13h47.10.018,LearnStrategy,2023.2.3,Win32,60.0240096,8,2,15,,,,,,,,2,02,,,,,,,,,,,2,1.474,1,,,,,,-0.187777778,-0.242222222,1,0,0,1.474,Basalt_rect,14,0,14,0,1,
5c3c1617f5ebd500018596cb,TCN,2024-06-21_13h47.10.018,LearnStrategy,2023.2.3,Win32,60.0240096,8,2,16,,,,,,,,2,16,,,,,,,,,,,2,2.458,1,,,,,,-0.164444444,-0.242222222,1,0,0,2.458,Basalt_rect,15,0,15,0,1,
5c3c1617f5ebd500018596cb,TCN,2024-06-21_13h47.10.018,LearnStrategy,2023.2.3,Win32,60.0240096,9,1,1,0.077777778,-0.014444444,1,0,0,0.509,rock_grid_rect_2,6,12,-1,-1,0.509,-0.075555556,-0.414444444,1,0,0,1.558,Pegmatite_rect,6,1.558,1,0,0,0,0,1,,,,,,,,,,,,,
5c3c1617f5ebd500018596cb,TCN,2024-06-21_13h47.10.018,LearnStrategy,2023.2.3,Win32,60.0240096,9,1,2,0.021111111,-0.014444444,1,0,0,0.829,rock_grid_rect_2,1,07,-1,-1,0.829,-0.394444444,-0.255555556,1,0,0,1.766,Andesite_rect,1,1.766,1,1,0,1,0,1,,,,,,,,,,,,,
5c3c1617f5ebd500018596cb,TCN,2024-06-21_13h47.10.018,LearnStrategy,2023.2.3,Win32,60.0240096,9,1,3,-0.04,0.003333333,1,0,0,0.797,rock_grid_rect_2,7,10,-1,-1,0.797,0.103333333,-0.401111111,1,0,0,1.286,Peridotite_rect,7,1.286,1,2,0,2,0,1,,,,,,,,,,,,,
5c3c1617f5ebd500018596cb,TCN,2024-06-21_13h47.10.018,LearnStrategy,2023.2.3,Win32,60.0240096,9,1,4,-0.012222222,-0.002222222,1,0,0,0.665,rock_grid_rect_2,4,16,-1,-1,0.665,-0.121111111,-0.241111111,1,0,0,1.927,Basalt_rect,2,1.927,0,3,0,3,0,1,,,,,,,,,,,,,
5c3c1617f5ebd500018596cb,TCN,2024-06-21_13h47.10.018,LearnStrategy,2023.2.3,Win32,60.0240096,9,1,5,0.015555556,0.006666667,1,0,0,0.547,rock_grid_rect_2,3,16,-1,-1,0.547,0.098888889,-0.261111111,1,0,0,1.771,Diorite_rect,3,1.771,1,4,0,4,0,1,,,,,,,,,,,,,
5c3c1617f5ebd500018596cb,TCN,2024-06-21_13h47.10.018,LearnStrategy,2023.2.3,Win32,60.0240096,9,1,6,-0.033333333,-0.015555556,1,0,0,0.548,rock_grid_rect_2,5,06,-1,-1,0.548,-0.377777778,-0.39,1,0,0,1.097,Obsidian_rect,5,1.097,1,5,0,5,0,1,,,,,,,,,,,,,
5c3c1617f5ebd500018596cb,TCN,2024-06-21_13h47.10.018,LearnStrategy,2023.2.3,Win32,60.0240096,9,1,7,0.07,-0.001111111,1,0,0,0.581,rock_grid_rect_2,1,03,-1,-1,0.581,-0.398888889,-0.242222222,1,0,0,2.255,Andesite_rect,1,2.255,1,6,0,6,0,1,,,,,,,,,,,,,
5c3c1617f5ebd500018596cb,TCN,2024-06-21_13h47.10.018,LearnStrategy,2023.2.3,Win32,60.0240096,9,1,8,0.028888889,-0.011111111,1,0,0,0.864,rock_grid_rect_2,5,10,-1,-1,0.864,-0.368888889,-0.406666667,1,0,0,1.103,Obsidian_rect,5,1.103,1,7,0,7,0,1,,,,,,,,,,,,,
5c3c1617f5ebd500018596cb,TCN,2024-06-21_13h47.10.018,LearnStrategy,2023.2.3,Win32,60.0240096,9,1,9,0.055555556,0.011111111,1,0,0,0.865,rock_grid_rect_2,7,02,-1,-1,0.865,0.065555556,-0.397777778,1,0,0,1.315,Peridotite_rect,7,1.315,1,8,0,8,0,1,,,,,,,,,,,,,
5c3c1617f5ebd500018596cb,TCN,2024-06-21_13h47.10.018,LearnStrategy,2023.2.3,Win32,60.0240096,9,1,10,0.047777778,-0.022222222,1,0,0,0.781,rock_grid_rect_2,8,06,-1,-1,0.781,0.363333333,-0.393333333,1,0,0,1.414,Pumice_rect,8,1.414,1,9,0,9,0,1,,,,,,,,,,,,,
5c3c1617f5ebd500018596cb,TCN,2024-06-21_13h47.10.018,LearnStrategy,2023.2.3,Win32,60.0240096,9,1,11,0.012222222,-0.002222222,1,0,0,0.482,rock_grid_rect_2,8,03,-1,-1,0.482,0.405555556,-0.404444444,1,0,0,1.338,Pumice_rect,8,1.338,1,10,0,10,0,1,,,,,,,,,,,,,
5c3c1617f5ebd500018596cb,TCN,2024-06-21_13h47.10.018,LearnStrategy,2023.2.3,Win32,60.0240096,9,1,12,0.026666667,-0.023333333,1,0,0,0.508,rock_grid_rect_2,6,10,-1,-1,0.508,-0.106666667,-0.406666667,1,0,0,1.153,Pegmatite_rect,6,1.153,1,11,0,11,0,1,,,,,,,,,,,,,
5c3c1617f5ebd500018596cb,TCN,2024-06-21_13h47.10.018,LearnStrategy,2023.2.3,Win32,60.0240096,9,1,13,-0.007777778,0.014444444,1,0,0,0.814,rock_grid_rect_2,3,02,-1,-1,0.814,0.107777778,-0.232222222,1,0,0,1.6,Diorite_rect,3,1.6,1,12,0,12,0,1,,,,,,,,,,,,,
5c3c1617f5ebd500018596cb,TCN,2024-06-21_13h47.10.018,LearnStrategy,2023.2.3,Win32,60.0240096,9,1,14,0.081111111,0.012222222,1,0,0,0.498,rock_grid_rect_2,4,03,-1,-1,0.498,0.416666667,-0.245555556,1,0,0,1.509,Gabbro_rect,4,1.509,1,13,0,13,0,1,,,,,,,,,,,,,
5c3c1617f5ebd500018596cb,TCN,2024-06-21_13h47.10.018,LearnStrategy,2023.2.3,Win32,60.0240096,9,1,15,0.022222222,0.016666667,1,0,0,0.448,rock_grid_rect_2,2,06,-1,-1,0.448,-0.147777778,-0.238888889,1,0,0,1.288,Basalt_rect,2,1.288,1,14,0,14,0,1,,,,,,,,,,,,,
5c3c1617f5ebd500018596cb,TCN,2024-06-21_13h47.10.018,LearnStrategy,2023.2.3,Win32,60.0240096,9,1,16,0.01,0.003333333,1,0,0,0.58,rock_grid_rect_2,2,11,-1,-1,0.58,0.336666667,-0.236666667,1,0,0,2.932,Gabbro_rect,4,2.932,0,15,0,15,0,1,,,,,,,,,,,,,
5c3c1617f5ebd500018596cb,TCN,2024-06-21_13h47.10.018,LearnStrategy,2023.2.3,Win32,60.0240096,9,2,1,,,,,,,,4,14,,,,,,,,,,,4,2.256,1,,,,,,0.345555556,-0.241111111,1,0,0,2.256,Gabbro_rect,0,0,0,0,1,
5c3c1617f5ebd500018596cb,TCN,2024-06-21_13h47.10.018,LearnStrategy,2023.2.3,Win32,60.0240096,9,2,2,,,,,,,,7,08,,,,,,,,,,,7,1.216,1,,,,,,0.11,-0.416666667,1,0,0,1.216,Peridotite_rect,1,0,1,0,1,
5c3c1617f5ebd500018596cb,TCN,2024-06-21_13h47.10.018,LearnStrategy,2023.2.3,Win32,60.0240096,9,2,3,,,,,,,,1,05,,,,,,,,,,,1,1.681,1,,,,,,-0.375555556,-0.264444444,1,0,0,1.681,Andesite_rect,2,0,2,0,1,
5c3c1617f5ebd500018596cb,TCN,2024-06-21_13h47.10.018,LearnStrategy,2023.2.3,Win32,60.0240096,9,2,4,,,,,,,,6,09,,,,,,,,,,,6,1.136,1,,,,,,-0.126666667,-0.398888889,1,0,0,1.136,Pegmatite_rect,3,0,3,0,1,
5c3c1617f5ebd500018596cb,TCN,2024-06-21_13h47.10.018,LearnStrategy,2023.2.3,Win32,60.0240096,9,2,5,,,,,,,,2,05,,,,,,,,,,,2,2.304,1,,,,,,-0.097777778,-0.241111111,1,0,0,2.304,Basalt_rect,4,0,4,0,1,
5c3c1617f5ebd500018596cb,TCN,2024-06-21_13h47.10.018,LearnStrategy,2023.2.3,Win32,60.0240096,9,2,6,,,,,,,,1,06,,,,,,,,,,,1,1.279,1,,,,,,-0.433333333,-0.264444444,1,0,0,1.279,Andesite_rect,5,0,5,0,1,
5c3c1617f5ebd500018596cb,TCN,2024-06-21_13h47.10.018,LearnStrategy,2023.2.3,Win32,60.0240096,9,2,7,,,,,,,,7,16,,,,,,,,,,,7,1.199,1,,,,,,0.06,-0.402222222,1,0,0,1.199,Peridotite_rect,6,0,6,0,1,
5c3c1617f5ebd500018596cb,TCN,2024-06-21_13h47.10.018,LearnStrategy,2023.2.3,Win32,60.0240096,9,2,8,,,,,,,,5,05,,,,,,,,,,,5,4.293,1,,,,,,-0.412222222,-0.392222222,1,0,0,4.293,Obsidian_rect,7,0,7,0,1,
5c3c1617f5ebd500018596cb,TCN,2024-06-21_13h47.10.018,LearnStrategy,2023.2.3,Win32,60.0240096,9,2,9,,,,,,,,8,04,,,,,,,,,,,8,1.437,1,,,,,,0.354444444,-0.387777778,1,0,0,1.437,Pumice_rect,8,0,8,0,1,
5c3c1617f5ebd500018596cb,TCN,2024-06-21_13h47.10.018,LearnStrategy,2023.2.3,Win32,60.0240096,9,2,10,,,,,,,,3,15,,,,,,,,,,,4,2.839,0,,,,,,0.332222222,-0.246666667,1,0,0,2.839,Gabbro_rect,9,0,9,0,1,
5c3c1617f5ebd500018596cb,TCN,2024-06-21_13h47.10.018,LearnStrategy,2023.2.3,Win32,60.0240096,9,2,11,,,,,,,,2,09,,,,,,,,,,,2,1.476,1,,,,,,-0.145555556,-0.237777778,1,0,0,1.476,Basalt_rect,10,0,10,0,1,
5c3c1617f5ebd500018596cb,TCN,2024-06-21_13h47.10.018,LearnStrategy,2023.2.3,Win32,60.0240096,9,2,12,,,,,,,,5,14,,,,,,,,,,,5,1.419,1,,,,,,-0.375555556,-0.378888889,1,0,0,1.419,Obsidian_rect,11,0,11,0,1,
5c3c1617f5ebd500018596cb,TCN,2024-06-21_13h47.10.018,LearnStrategy,2023.2.3,Win32,60.0240096,9,2,13,,,,,,,,4,10,,,,,,,,,,,4,4.034,1,,,,,,0.343333333,-0.233333333,1,0,0,4.034,Gabbro_rect,12,0,12,0,1,
5c3c1617f5ebd500018596cb,TCN,2024-06-21_13h47.10.018,LearnStrategy,2023.2.3,Win32,60.0240096,9,2,14,,,,,,,,3,14,,,,,,,,,,,3,1.081,1,,,,,,0.105555556,-0.243333333,1,0,0,1.081,Diorite_rect,13,0,13,0,1,
5c3c1617f5ebd500018596cb,TCN,2024-06-21_13h47.10.018,LearnStrategy,2023.2.3,Win32,60.0240096,9,2,15,,,,,,,,8,16,,,,,,,,,,,8,3.538,1,,,,,,0.338888889,-0.405555556,1,0,0,3.538,Pumice_rect,14,0,14,0,1,
5c3c1617f5ebd500018596cb,TCN,2024-06-21_13h47.10.018,LearnStrategy,2023.2.3,Win32,60.0240096,9,2,16,,,,,,,,6,03,,,,,,,,,,,6,1.867,1,,,,,,-0.146666667,-0.391111111,1,0,0,1.867,Pegmatite_rect,15,0,15,0,1,
5c3c1617f5ebd500018596cb,TCN,2024-06-21_13h47.10.018,LearnStrategy,2023.2.3,Win32,60.0240096,,,,,,,,,,,,,,,,,,,,,,,,,,,,,,,,,,,,,,,,,,,1
5c3c1617f5ebd500018596cb,TCN,2024-06-21_13h47.10.018,LearnStrategy,2023.2.3,Win32,60.0240096,,,,,,,,,,,,,,,,,,,,,,,,,,,,,,,,,,,,,,,,,,,
5c3c1617f5ebd500018596cb,TCN,2024-06-21_13h47.10.018,LearnStrategy,2023.2.3,Win32,60.0240096,,,,,,,,,,,1,04,1,1,,,,,,,,,,,,,,,,,,,,,,,,,,,,,
5c3c1617f5ebd500018596cb,TCN,2024-06-21_13h47.10.018,LearnStrategy,2023.2.3,Win32,60.0240096,,,,,,,,,,,8,14,1,2,,,,,,,,,,,,,,,,,,,,,,,,,,,,,
5c3c1617f5ebd500018596cb,TCN,2024-06-21_13h47.10.018,LearnStrategy,2023.2.3,Win32,60.0240096,,,,,,,,,,,5,11,1,3,,,,,,,,,,,,,,,,,,,,,,,,,,,,,
5c3c1617f5ebd500018596cb,TCN,2024-06-21_13h47.10.018,LearnStrategy,2023.2.3,Win32,60.0240096,,,,,,,,,,,2,11,1,4,,,,,,,,,,,,,,,,,,,,,,,,,,,,,
5c3c1617f5ebd500018596cb,TCN,2024-06-21_13h47.10.018,LearnStrategy,2023.2.3,Win32,60.0240096,,,,,,,,,,,5,16,1,5,,,,,,,,,,,,,,,,,,,,,,,,,,,,,
5c3c1617f5ebd500018596cb,TCN,2024-06-21_13h47.10.018,LearnStrategy,2023.2.3,Win32,60.0240096,,,,,,,,,,,2,01,1,6,,,,,,,,,,,,,,,,,,,,,,,,,,,,,
5c3c1617f5ebd500018596cb,TCN,2024-06-21_13h47.10.018,LearnStrategy,2023.2.3,Win32,60.0240096,,,,,,,,,,,7,14,1,7,,,,,,,,,,,,,,,,,,,,,,,,,,,,,
5c3c1617f5ebd500018596cb,TCN,2024-06-21_13h47.10.018,LearnStrategy,2023.2.3,Win32,60.0240096,,,,,,,,,,,2,04,1,8,,,,,,,,,,,,,,,,,,,,,,,,,,,,,
5c3c1617f5ebd500018596cb,TCN,2024-06-21_13h47.10.018,LearnStrategy,2023.2.3,Win32,60.0240096,,,,,,,,,,,1,03,2,1,,,,,,,,,,,,,,,,,,,,,,,,,,,,,
5c3c1617f5ebd500018596cb,TCN,2024-06-21_13h47.10.018,LearnStrategy,2023.2.3,Win32,60.0240096,,,,,,,,,,,4,11,2,2,,,,,,,,,,,,,,,,,,,,,,,,,,,,,
5c3c1617f5ebd500018596cb,TCN,2024-06-21_13h47.10.018,LearnStrategy,2023.2.3,Win32,60.0240096,,,,,,,,,,,5,07,2,3,,,,,,,,,,,,,,,,,,,,,,,,,,,,,
5c3c1617f5ebd500018596cb,TCN,2024-06-21_13h47.10.018,LearnStrategy,2023.2.3,Win32,60.0240096,,,,,,,,,,,3,10,2,4,,,,,,,,,,,,,,,,,,,,,,,,,,,,,
5c3c1617f5ebd500018596cb,TCN,2024-06-21_13h47.10.018,LearnStrategy,2023.2.3,Win32,60.0240096,,,,,,,,,,,3,11,2,5,,,,,,,,,,,,,,,,,,,,,,,,,,,,,
5c3c1617f5ebd500018596cb,TCN,2024-06-21_13h47.10.018,LearnStrategy,2023.2.3,Win32,60.0240096,,,,,,,,,,,4,16,2,6,,,,,,,,,,,,,,,,,,,,,,,,,,,,,
5c3c1617f5ebd500018596cb,TCN,2024-06-21_13h47.10.018,LearnStrategy,2023.2.3,Win32,60.0240096,,,,,,,,,,,2,06,2,7,,,,,,,,,,,,,,,,,,,,,,,,,,,,,
5c3c1617f5ebd500018596cb,TCN,2024-06-21_13h47.10.018,LearnStrategy,2023.2.3,Win32,60.0240096,,,,,,,,,,,4,01,2,8,,,,,,,,,,,,,,,,,,,,,,,,,,,,,
5c3c1617f5ebd500018596cb,TCN,2024-06-21_13h47.10.018,LearnStrategy,2023.2.3,Win32,60.0240096,,,,,,,,,,,6,10,3,1,,,,,,,,,,,,,,,,,,,,,,,,,,,,,
5c3c1617f5ebd500018596cb,TCN,2024-06-21_13h47.10.018,LearnStrategy,2023.2.3,Win32,60.0240096,,,,,,,,,,,3,16,3,2,,,,,,,,,,,,,,,,,,,,,,,,,,,,,
5c3c1617f5ebd500018596cb,TCN,2024-06-21_13h47.10.018,LearnStrategy,2023.2.3,Win32,60.0240096,,,,,,,,,,,6,11,3,3,,,,,,,,,,,,,,,,,,,,,,,,,,,,,
5c3c1617f5ebd500018596cb,TCN,2024-06-21_13h47.10.018,LearnStrategy,2023.2.3,Win32,60.0240096,,,,,,,,,,,3,07,3,4,,,,,,,,,,,,,,,,,,,,,,,,,,,,,
5c3c1617f5ebd500018596cb,TCN,2024-06-21_13h47.10.018,LearnStrategy,2023.2.3,Win32,60.0240096,,,,,,,,,,,7,05,3,5,,,,,,,,,,,,,,,,,,,,,,,,,,,,,
5c3c1617f5ebd500018596cb,TCN,2024-06-21_13h47.10.018,LearnStrategy,2023.2.3,Win32,60.0240096,,,,,,,,,,,1,02,3,6,,,,,,,,,,,,,,,,,,,,,,,,,,,,,
5c3c1617f5ebd500018596cb,TCN,2024-06-21_13h47.10.018,LearnStrategy,2023.2.3,Win32,60.0240096,,,,,,,,,,,8,10,3,7,,,,,,,,,,,,,,,,,,,,,,,,,,,,,
5c3c1617f5ebd500018596cb,TCN,2024-06-21_13h47.10.018,LearnStrategy,2023.2.3,Win32,60.0240096,,,,,,,,,,,2,14,3,8,,,,,,,,,,,,,,,,,,,,,,,,,,,,,
5c3c1617f5ebd500018596cb,TCN,2024-06-21_13h47.10.018,LearnStrategy,2023.2.3,Win32,60.0240096,,,,,,,,,,,5,06,4,1,,,,,,,,,,,,,,,,,,,,,,,,,,,,,
5c3c1617f5ebd500018596cb,TCN,2024-06-21_13h47.10.018,LearnStrategy,2023.2.3,Win32,60.0240096,,,,,,,,,,,6,13,4,2,,,,,,,,,,,,,,,,,,,,,,,,,,,,,
5c3c1617f5ebd500018596cb,TCN,2024-06-21_13h47.10.018,LearnStrategy,2023.2.3,Win32,60.0240096,,,,,,,,,,,4,05,4,3,,,,,,,,,,,,,,,,,,,,,,,,,,,,,
5c3c1617f5ebd500018596cb,TCN,2024-06-21_13h47.10.018,LearnStrategy,2023.2.3,Win32,60.0240096,,,,,,,,,,,4,15,4,4,,,,,,,,,,,,,,,,,,,,,,,,,,,,,
5c3c1617f5ebd500018596cb,TCN,2024-06-21_13h47.10.018,LearnStrategy,2023.2.3,Win32,60.0240096,,,,,,,,,,,7,13,4,5,,,,,,,,,,,,,,,,,,,,,,,,,,,,,
5c3c1617f5ebd500018596cb,TCN,2024-06-21_13h47.10.018,LearnStrategy,2023.2.3,Win32,60.0240096,,,,,,,,,,,8,15,4,6,,,,,,,,,,,,,,,,,,,,,,,,,,,,,
5c3c1617f5ebd500018596cb,TCN,2024-06-21_13h47.10.018,LearnStrategy,2023.2.3,Win32,60.0240096,,,,,,,,,,,8,06,4,7,,,,,,,,,,,,,,,,,,,,,,,,,,,,,
5c3c1617f5ebd500018596cb,TCN,2024-06-21_13h47.10.018,LearnStrategy,2023.2.3,Win32,60.0240096,,,,,,,,,,,6,12,4,8,,,,,,,,,,,,,,,,,,,,,,,,,,,,,
5c3c1617f5ebd500018596cb,TCN,2024-06-21_13h47.10.018,LearnStrategy,2023.2.3,Win32,60.0240096,,,,,,,,,,,7,07,5,1,,,,,,,,,,,,,,,,,,,,,,,,,,,,,
5c3c1617f5ebd500018596cb,TCN,2024-06-21_13h47.10.018,LearnStrategy,2023.2.3,Win32,60.0240096,,,,,,,,,,,7,10,5,2,,,,,,,,,,,,,,,,,,,,,,,,,,,,,
5c3c1617f5ebd500018596cb,TCN,2024-06-21_13h47.10.018,LearnStrategy,2023.2.3,Win32,60.0240096,,,,,,,,,,,3,02,5,3,,,,,,,,,,,,,,,,,,,,,,,,,,,,,
5c3c1617f5ebd500018596cb,TCN,2024-06-21_13h47.10.018,LearnStrategy,2023.2.3,Win32,60.0240096,,,,,,,,,,,2,12,5,4,,,,,,,,,,,,,,,,,,,,,,,,,,,,,
5c3c1617f5ebd500018596cb,TCN,2024-06-21_13h47.10.018,LearnStrategy,2023.2.3,Win32,60.0240096,,,,,,,,,,,7,02,5,5,,,,,,,,,,,,,,,,,,,,,,,,,,,,,
5c3c1617f5ebd500018596cb,TCN,2024-06-21_13h47.10.018,LearnStrategy,2023.2.3,Win32,60.0240096,,,,,,,,,,,6,15,5,6,,,,,,,,,,,,,,,,,,,,,,,,,,,,,
5c3c1617f5ebd500018596cb,TCN,2024-06-21_13h47.10.018,LearnStrategy,2023.2.3,Win32,60.0240096,,,,,,,,,,,8,03,5,7,,,,,,,,,,,,,,,,,,,,,,,,,,,,,
5c3c1617f5ebd500018596cb,TCN,2024-06-21_13h47.10.018,LearnStrategy,2023.2.3,Win32,60.0240096,,,,,,,,,,,1,01,5,8,,,,,,,,,,,,,,,,,,,,,,,,,,,,,
5c3c1617f5ebd500018596cb,TCN,2024-06-21_13h47.10.018,LearnStrategy,2023.2.3,Win32,60.0240096,,,,,,,,,,,8,08,6,1,,,,,,,,,,,,,,,,,,,,,,,,,,,,,
5c3c1617f5ebd500018596cb,TCN,2024-06-21_13h47.10.018,LearnStrategy,2023.2.3,Win32,60.0240096,,,,,,,,,,,5,10,6,2,,,,,,,,,,,,,,,,,,,,,,,,,,,,,
5c3c1617f5ebd500018596cb,TCN,2024-06-21_13h47.10.018,LearnStrategy,2023.2.3,Win32,60.0240096,,,,,,,,,,,5,04,6,3,,,,,,,,,,,,,,,,,,,,,,,,,,,,,
5c3c1617f5ebd500018596cb,TCN,2024-06-21_13h47.10.018,LearnStrategy,2023.2.3,Win32,60.0240096,,,,,,,,,,,1,14,6,4,,,,,,,,,,,,,,,,,,,,,,,,,,,,,
5c3c1617f5ebd500018596cb,TCN,2024-06-21_13h47.10.018,LearnStrategy,2023.2.3,Win32,60.0240096,,,,,,,,,,,1,07,6,5,,,,,,,,,,,,,,,,,,,,,,,,,,,,,
5c3c1617f5ebd500018596cb,TCN,2024-06-21_13h47.10.018,LearnStrategy,2023.2.3,Win32,60.0240096,,,,,,,,,,,3,09,6,6,,,,,,,,,,,,,,,,,,,,,,,,,,,,,
5c3c1617f5ebd500018596cb,TCN,2024-06-21_13h47.10.018,LearnStrategy,2023.2.3,Win32,60.0240096,,,,,,,,,,,4,03,6,7,,,,,,,,,,,,,,,,,,,,,,,,,,,,,
5c3c1617f5ebd500018596cb,TCN,2024-06-21_13h47.10.018,LearnStrategy,2023.2.3,Win32,60.0240096,,,,,,,,,,,6,05,6,8,,,,,,,,,,,,,,,,,,,,,,,,,,,,,