participant,condition,date,expName,psychopyVersion,OS,frameRate,block,phase,trial,learn_mouse.x,learn_mouse.y,learn_mouse.leftButton,learn_mouse.midButton,learn_mouse.rightButton,learn_mouse.time,learn_mouse.clicked_name,cat,token,row,col,t_select,cat_rec,token_rec,cat_mouse_l.x,cat_mouse_l.y,cat_mouse_l.leftButton,cat_mouse_l.midButton,cat_mouse_l.rightButton,cat_mouse_l.time,cat_mouse_l.clicked_name,resp,t_resp,corr,train_trials.thisRepN,train_trials.thisTrialN,train_trials.thisN,train_trials.thisIndex,train_trials.ran,cat_mouse_t.x,cat_mouse_t.y,cat_mouse_t.leftButton,cat_mouse_t.midButton,cat_mouse_t.rightButton,cat_mouse_t.time,cat_mouse_t.clicked_name,test_trials.thisRepN,test_trials.thisTrialN,test_trials.thisN,test_trials.thisIndex,test_trials.ran
5c4353086ce36f0001205f65,SCR,2024-06-10_12h18.16.751,LearnStrategy,2023.2.3,Linux x86_64,59.88023952,,,,,,,,,,,,,,,,,,,,,,,,,,,,,,,,,,,,,,,,,,,,
5c4353086ce36f0001205f65,SCR,2024-06-10_12h18.16.751,LearnStrategy,2023.2.3,Linux x86_64,59.88023952,1,1,1,0.577651884,-0.246252056,1,0,0,3.7327,Basalt_14,2,14,2,8,3.733,2,14,0.484029921,-0.406818584,1,0,0,5.3969,Pumice_rect,8,5.397,0,0,0,0,0,1,,,,,,,,,,,,
5c4353086ce36f0001205f65,SCR,2024-06-10_12h18.16.751,LearnStrategy,2023.2.3,Linux x86_64,59.88023952,1,1,2,0.244392597,-0.428140054,1,0,0,1.9274,Pumice_10,8,10,1,6,1.927,8,10,0.393352066,-0.398165887,1,0,0,0.7506,Pumice_rect,8,0.751,1,1,0,1,0,1,,,,,,,,,,,,
5c4353086ce36f0001205f65,SCR,2024-06-10_12h18.16.751,LearnStrategy,2023.2.3,Linux x86_64,59.88023952,1,1,3,-0.073179971,-0.279764583,1,0,0,2.3349,Diorite_10,3,10,2,4,2.335,3,10,-0.143134589,-0.40249323,1,0,0,5.5787,Pegmatite_rect,6,5.579,0,2,0,2,0,1,,,,,,,,,,,,
5c4353086ce36f0001205f65,SCR,2024-06-10_12h18.16.751,LearnStrategy,2023.2.3,Linux x86_64,59.88023952,1,1,4,0.066760217,0.265824561,1,0,0,1.3404,Pegmatite_12,6,12,5,5,1.34,6,12,-0.350942452,-0.388864925,1,0,0,4.1704,Obsidian_rect,5,4.17,0,3,0,3,0,1,,,,,,,,,,,,
5c4353086ce36f0001205f65,SCR,2024-06-10_12h18.16.751,LearnStrategy,2023.2.3,Linux x86_64,59.88023952,1,1,5,-0.575187885,0.422883012,1,0,0,1.4114,Gabbro_03,4,03,6,1,1.411,4,03,0.161941932,-0.400485845,1,0,0,7.5268,Peridotite_rect,7,7.527,0,4,0,4,0,1,,,,,,,,,,,,
5c4353086ce36f0001205f65,SCR,2024-06-10_12h18.16.751,LearnStrategy,2023.2.3,Linux x86_64,59.88023952,1,1,6,-0.065978569,-0.109276113,1,0,0,1.0063,Obsidian_09,5,09,3,4,1.006,5,09,-0.426223289,-0.389770756,1,0,0,1.7136,Obsidian_rect,5,1.714,1,5,0,5,0,1,,,,,,,,,,,,
5c4353086ce36f0001205f65,SCR,2024-06-10_12h18.16.751,LearnStrategy,2023.2.3,Linux x86_64,59.88023952,1,1,7,-0.052489675,0.277190121,1,0,0,0.8534,Pegmatite_07,6,07,5,4,0.853,6,07,-0.345861866,-0.251029455,1,0,0,6.3531,Andesite_rect,1,6.353,0,6,0,6,0,1,,,,,,,,,,,,
5c4353086ce36f0001205f65,SCR,2024-06-10_12h18.16.751,LearnStrategy,2023.2.3,Linux x86_64,59.88023952,1,1,8,-0.269918904,-0.246462696,1,0,0,1.9081,Diorite_11,3,11,2,3,1.908,3,11,-0.130213223,-0.419430113,1,0,0,5.969,Pegmatite_rect,6,5.969,0,7,0,7,0,1,,,,,,,,,,,,
5c4353086ce36f0001205f65,SCR,2024-06-10_12h18.16.751,LearnStrategy,2023.2.3,Linux x86_64,59.88023952,1,1,9,0.577348449,-0.437600006,1,0,0,1.3421,Andesite_05,1,05,1,8,1.342,1,05,0.447783616,-0.233724435,1,0,0,2.5357,Gabbro_rect,4,2.536,0,8,0,8,0,1,,,,,,,,,,,,
5c4353086ce36f0001205f65,SCR,2024-06-10_12h18.16.751,LearnStrategy,2023.2.3,Linux x86_64,59.88023952,1,1,10,0.338228121,0.091441261,1,0,0,0.9549,Peridotite_05,7,05,4,7,0.955,7,05,-0.073980017,-0.268781114,1,0,0,12.5056,Basalt_rect,2,12.506,0,9,0,9,0,1,,,,,,,,,,,,
5c4353086ce36f0001205f65,SCR,2024-06-10_12h18.16.751,LearnStrategy,2023.2.3,Linux x86_64,59.88023952,1,1,11,-0.577118541,-0.442360437,1,0,0,1.4478,Obsidian_07,5,07,1,1,1.448,5,07,-0.419575087,-0.388694748,1,0,0,1.916,Obsidian_rect,5,1.916,1,10,0,10,0,1,,,,,,,,,,,,
5c4353086ce36f0001205f65,SCR,2024-06-10_12h18.16.751,LearnStrategy,2023.2.3,Linux x86_64,59.88023952,1,1,12,-0.240243512,-0.420914162,1,0,0,1.2764,Pumice_16,8,16,1,3,1.276,8,16,-0.118189608,-0.231599579,1,0,0,2.1894,Basalt_rect,2,2.189,0,11,0,11,0,1,,,,,,,,,,,,
5c4353086ce36f0001205f65,SCR,2024-06-10_12h18.16.751,LearnStrategy,2023.2.3,Linux x86_64,59.88023952,1,1,13,0.597981564,-0.097881309,1,0,0,1.135,Basalt_06,2,06,3,8,1.135,2,06,-0.434037001,-0.381413664,1,0,0,2.6909,Obsidian_rect,5,2.691,0,12,0,12,0,1,,,,,,,,,,,,
5c4353086ce36f0001205f65,SCR,2024-06-10_12h18.16.751,LearnStrategy,2023.2.3,Linux x86_64,59.88023952,1,1,14,-0.382632906,-0.113551557,1,0,0,0.9412,Gabbro_05,4,05,3,2,0.941,4,05,0.471766827,-0.238115796,1,0,0,7.269,Gabbro_rect,4,7.269,1,13,0,13,0,1,,,,,,,,,,,,
5c4353086ce36f0001205f65,SCR,2024-06-10_12h18.16.751,LearnStrategy,2023.2.3,Linux x86_64,59.88023952,1,1,15,0.243393038,0.096028221,1,0,0,1.008,Andesite_11,1,11,4,6,1.008,1,11,-0.347788016,-0.244304711,1,0,0,3.3187,Andesite_rect,1,3.319,1,14,0,14,0,1,,,,,,,,,,,,
5c4353086ce36f0001205f65,SCR,2024-06-10_12h18.16.751,LearnStrategy,2023.2.3,Linux x86_64,59.88023952,1,1,16,-0.418468312,-0.438264058,1,0,0,1.2798,Peridotite_16,7,16,1,2,1.28,7,16,-0.084704055,-0.235084549,1,0,0,4.5745,Basalt_rect,2,4.574,0,15,0,15,0,1,,,,,,,,,,,,
5c4353086ce36f0001205f65,SCR,2024-06-10_12h18.16.751,LearnStrategy,2023.2.3,Linux x86_64,59.88023952,1,2,1,,,,,,,,3,08,,,,,,,,,,,,,6,8.826,0,,,,,,-0.071441277,-0.401181036,1,0,0,8.8264,Pegmatite_rect,0,0,0,0,1
5c4353086ce36f0001205f65,SCR,2024-06-10_12h18.16.751,LearnStrategy,2023.2.3,Linux x86_64,59.88023952,1,2,2,,,,,,,,7,04,,,,,,,,,,,,,7,7.908,1,,,,,,0.133460268,-0.395849348,1,0,0,7.9077,Peridotite_rect,1,0,1,0,1
5c4353086ce36f0001205f65,SCR,2024-06-10_12h18.16.751,LearnStrategy,2023.2.3,Linux x86_64,59.88023952,1,2,3,,,,,,,,2,02,,,,,,,,,,,,,3,6.65,0,,,,,,0.176274752,-0.26235042,1,0,0,6.6497,Diorite_rect,2,0,2,0,1
5c4353086ce36f0001205f65,SCR,2024-06-10_12h18.16.751,LearnStrategy,2023.2.3,Linux x86_64,59.88023952,1,2,4,,,,,,,,1,02,,,,,,,,,,,,,8,3.899,0,,,,,,0.336326459,-0.382781982,1,0,0,3.8993,Pumice_rect,3,0,3,0,1
5c4353086ce36f0001205f65,SCR,2024-06-10_12h18.16.751,LearnStrategy,2023.2.3,Linux x86_64,59.88023952,1,2,5,,,,,,,,5,04,,,,,,,,,,,,,5,1.125,1,,,,,,-0.342168493,-0.407008713,1,0,0,1.125,Obsidian_rect,4,0,4,0,1
5c4353086ce36f0001205f65,SCR,2024-06-10_12h18.16.751,LearnStrategy,2023.2.3,Linux x86_64,59.88023952,1,2,6,,,,,,,,8,09,,,,,,,,,,,,,8,1.299,1,,,,,,0.404116877,-0.402697219,1,0,0,1.2986,Pumice_rect,5,0,5,0,1
5c4353086ce36f0001205f65,SCR,2024-06-10_12h18.16.751,LearnStrategy,2023.2.3,Linux x86_64,59.88023952,1,2,7,,,,,,,,4,10,,,,,,,,,,,,,2,2.716,0,,,,,,-0.079883894,-0.248507995,1,0,0,2.7157,Basalt_rect,6,0,6,0,1
5c4353086ce36f0001205f65,SCR,2024-06-10_12h18.16.751,LearnStrategy,2023.2.3,Linux x86_64,59.88023952,1,2,8,,,,,,,,6,03,,,,,,,,,,,,,1,1.284,0,,,,,,-0.379965602,-0.254645322,1,0,0,1.2841,Andesite_rect,7,0,7,0,1
5c4353086ce36f0001205f65,SCR,2024-06-10_12h18.16.751,LearnStrategy,2023.2.3,Linux x86_64,59.88023952,1,2,9,,,,,,,,2,04,,,,,,,,,,,,,7,3.984,0,,,,,,0.0969086,-0.399849948,1,0,0,3.9837,Peridotite_rect,8,0,8,0,1
5c4353086ce36f0001205f65,SCR,2024-06-10_12h18.16.751,LearnStrategy,2023.2.3,Linux x86_64,59.88023952,1,2,10,,,,,,,,3,09,,,,,,,,,,,,,4,4.334,0,,,,,,0.353759268,-0.265503986,1,0,0,4.3345,Gabbro_rect,9,0,9,0,1
5c4353086ce36f0001205f65,SCR,2024-06-10_12h18.16.751,LearnStrategy,2023.2.3,Linux x86_64,59.88023952,1,2,11,,,,,,,,8,13,,,,,,,,,,,,,8,1.483,1,,,,,,0.394290714,-0.399774245,1,0,0,1.4827,Pumice_rect,10,0,10,0,1
5c4353086ce36f0001205f65,SCR,2024-06-10_12h18.16.751,LearnStrategy,2023.2.3,Linux x86_64,59.88023952,1,2,12,,,,,,,,5,06,,,,,,,,,,,,,5,1.026,1,,,,,,-0.454836377,-0.400053875,1,0,0,1.0256,Obsidian_rect,11,0,11,0,1
5c4353086ce36f0001205f65,SCR,2024-06-10_12h18.16.751,LearnStrategy,2023.2.3,Linux x86_64,59.88023952,1,2,13,,,,,,,,6,10,,,,,,,,,,,,,1,1.837,0,,,,,,-0.382573301,-0.25566533,1,0,0,1.8374,Andesite_rect,12,0,12,0,1
5c4353086ce36f0001205f65,SCR,2024-06-10_12h18.16.751,LearnStrategy,2023.2.3,Linux x86_64,59.88023952,1,2,14,,,,,,,,1,14,,,,,,,,,,,,,4,3.203,0,,,,,,0.401882568,-0.270446031,1,0,0,3.2035,Gabbro_rect,13,0,13,0,1
5c4353086ce36f0001205f65,SCR,2024-06-10_12h18.16.751,LearnStrategy,2023.2.3,Linux x86_64,59.88023952,1,2,15,,,,,,,,4,09,,,,,,,,,,,,,7,5.883,0,,,,,,0.085336472,-0.389506975,1,0,0,5.8828,Peridotite_rect,14,0,14,0,1
5c4353086ce36f0001205f65,SCR,2024-06-10_12h18.16.751,LearnStrategy,2023.2.3,Linux x86_64,59.88023952,1,2,16,,,,,,,,7,13,,,,,,,,,,,,,3,2.839,0,,,,,,0.148856045,-0.23614185,1,0,0,2.8393,Diorite_rect,15,0,15,0,1
5c4353086ce36f0001205f65,SCR,2024-06-10_12h18.16.751,LearnStrategy,2023.2.3,Linux x86_64,59.88023952,2,1,1,0.397595314,0.118578785,1,0,0,1.6237,Peridotite_05,7,05,4,7,1.624,7,05,0.108543008,-0.404578743,1,0,0,6.6593,Peridotite_rect,7,6.659,1,0,0,0,0,1,,,,,,,,,,,,
5c4353086ce36f0001205f65,SCR,2024-06-10_12h18.16.751,LearnStrategy,2023.2.3,Linux x86_64,59.88023952,2,1,2,0.419642431,0.267807287,1,0,0,1.3063,Pegmatite_09,6,09,5,7,1.306,6,09,-0.451133122,-0.236337448,1,0,0,0.939,Andesite_rect,1,0.939,0,1,0,1,0,1,,,,,,,,,,,,
5c4353086ce36f0001205f65,SCR,2024-06-10_12h18.16.751,LearnStrategy,2023.2.3,Linux x86_64,59.88023952,2,1,3,0.419594448,-0.117089608,1,0,0,1.0121,Diorite_02,3,02,3,7,1.012,3,02,-0.079891352,-0.383509246,1,0,0,3.726,Pegmatite_rect,6,3.726,0,2,0,2,0,1,,,,,,,,,,,,
5c4353086ce36f0001205f65,SCR,2024-06-10_12h18.16.751,LearnStrategy,2023.2.3,Linux x86_64,59.88023952,2,1,4,0.566264042,-0.425702128,1,0,0,1.0697,Andesite_05,1,05,1,8,1.07,1,05,0.383457036,-0.230489261,1,0,0,1.6415,Gabbro_rect,4,1.641,0,3,0,3,0,1,,,,,,,,,,,,
5c4353086ce36f0001205f65,SCR,2024-06-10_12h18.16.751,LearnStrategy,2023.2.3,Linux x86_64,59.88023952,2,1,5,0.389798228,-0.275056175,1,0,0,1.0123,Gabbro_14,4,14,2,7,1.012,4,14,-0.088737224,-0.260351488,1,0,0,6.3691,Basalt_rect,2,6.369,0,4,0,4,0,1,,,,,,,,,,,,
5c4353086ce36f0001205f65,SCR,2024-06-10_12h18.16.751,LearnStrategy,2023.2.3,Linux x86_64,59.88023952,2,1,6,0.240071159,0.094760281,1,0,0,7.4873,Andesite_11,1,11,4,6,7.487,1,11,-0.369736961,-0.241254632,1,0,0,0.7723,Andesite_rect,1,0.772,1,5,0,5,0,1,,,,,,,,,,,,
5c4353086ce36f0001205f65,SCR,2024-06-10_12h18.16.751,LearnStrategy,2023.2.3,Linux x86_64,59.88023952,2,1,7,-0.415928547,0.246799088,1,0,0,1.1121,Peridotite_07,7,07,5,2,1.112,7,07,0.19508253,-0.239313875,1,0,0,3.6714,Diorite_rect,3,3.671,0,6,0,6,0,1,,,,,,,,,,,,
5c4353086ce36f0001205f65,SCR,2024-06-10_12h18.16.751,LearnStrategy,2023.2.3,Linux x86_64,59.88023952,2,1,8,-0.200729153,0.370289354,1,0,0,2.2955,Pegmatite_15,6,15,6,3,2.295,6,15,-0.430433503,-0.260815902,1,0,0,1.2872,Andesite_rect,1,1.287,0,7,0,7,0,1,,,,,,,,,,,,
5c4353086ce36f0001205f65,SCR,2024-06-10_12h18.16.751,LearnStrategy,2023.2.3,Linux x86_64,59.88023952,2,1,9,-0.406683244,0.424688102,1,0,0,1.5549,Diorite_13,3,13,6,2,1.555,3,13,0.226002493,-0.252337547,1,0,0,7.048,Diorite_rect,3,7.048,1,8,0,8,0,1,,,,,,,,,,,,
5c4353086ce36f0001205f65,SCR,2024-06-10_12h18.16.751,LearnStrategy,2023.2.3,Linux x86_64,59.88023952,2,1,10,0.574265117,-0.098891684,1,0,0,1.0467,Basalt_06,2,06,3,8,1.047,2,06,-0.132032157,-0.242377007,1,0,0,2.9273,Basalt_rect,2,2.927,1,9,0,9,0,1,,,,,,,,,,,,
5c4353086ce36f0001205f65,SCR,2024-06-10_12h18.16.751,LearnStrategy,2023.2.3,Linux x86_64,59.88023952,2,1,11,-0.027941857,0.277602792,1,0,0,1.1451,Pegmatite_07,6,07,5,4,1.145,6,07,-0.384334619,-0.231587645,1,0,0,1.3745,Andesite_rect,1,1.375,0,10,0,10,0,1,,,,,,,,,,,,
5c4353086ce36f0001205f65,SCR,2024-06-10_12h18.16.751,LearnStrategy,2023.2.3,Linux x86_64,59.88023952,2,1,12,0.589248564,-0.265665524,1,0,0,2.1791,Basalt_14,2,14,2,8,2.179,2,14,0.423760999,-0.402825319,1,0,0,1.4803,Pumice_rect,8,1.48,0,11,0,11,0,1,,,,,,,,,,,,
5c4353086ce36f0001205f65,SCR,2024-06-10_12h18.16.751,LearnStrategy,2023.2.3,Linux x86_64,59.88023952,2,1,13,0.391994624,-0.127151707,1,0,0,0.8243,Diorite_02,3,02,3,7,0.824,3,02,0.430007344,-0.251487219,1,0,0,3.6066,Gabbro_rect,4,3.607,0,12,0,12,0,1,,,,,,,,,,,,
5c4353086ce36f0001205f65,SCR,2024-06-10_12h18.16.751,LearnStrategy,2023.2.3,Linux x86_64,59.88023952,2,1,14,-0.56141156,-0.114134561,1,0,0,0.9605,Basalt_01,2,01,3,1,0.961,2,01,0.041661031,-0.265399692,1,0,0,5.7549,Diorite_rect,3,5.755,0,13,0,13,0,1,,,,,,,,,,,,
5c4353086ce36f0001205f65,SCR,2024-06-10_12h18.16.751,LearnStrategy,2023.2.3,Linux x86_64,59.88023952,2,1,15,-0.386086054,-0.099416449,1,0,0,2.6043,Gabbro_05,4,05,3,2,2.604,4,05,0.122724669,-0.250610849,1,0,0,3.1475,Diorite_rect,3,3.148,0,14,0,14,0,1,,,,,,,,,,,,
5c4353086ce36f0001205f65,SCR,2024-06-10_12h18.16.751,LearnStrategy,2023.2.3,Linux x86_64,59.88023952,2,1,16,0.05833146,0.443012331,1,0,0,1.115,Gabbro_08,4,08,6,5,1.115,4,08,0.106850618,-0.235394697,1,0,0,3.4019,Diorite_rect,3,3.402,0,15,0,15,0,1,,,,,,,,,,,,
5c4353086ce36f0001205f65,SCR,2024-06-10_12h18.16.751,LearnStrategy,2023.2.3,Linux x86_64,59.88023952,2,2,1,,,,,,,,7,10,,,,,,,,,,,,,4,4.745,0,,,,,,0.365489082,-0.256575699,1,0,0,4.7448,Gabbro_rect,0,0,0,0,1
5c4353086ce36f0001205f65,SCR,2024-06-10_12h18.16.751,LearnStrategy,2023.2.3,Linux x86_64,59.88023952,2,2,2,,,,,,,,5,10,,,,,,,,,,,,,5,2.782,1,,,,,,-0.447870569,-0.393983612,1,0,0,2.7823,Obsidian_rect,1,0,1,0,1
5c4353086ce36f0001205f65,SCR,2024-06-10_12h18.16.751,LearnStrategy,2023.2.3,Linux x86_64,59.88023952,2,2,3,,,,,,,,2,11,,,,,,,,,,,,,2,1.837,1,,,,,,-0.150944168,-0.259290645,1,0,0,1.8369,Basalt_rect,2,0,2,0,1
5c4353086ce36f0001205f65,SCR,2024-06-10_12h18.16.751,LearnStrategy,2023.2.3,Linux x86_64,59.88023952,2,2,4,,,,,,,,7,15,,,,,,,,,,,,,6,5.243,0,,,,,,-0.123159622,-0.40735634,1,0,0,5.243,Pegmatite_rect,3,0,3,0,1
5c4353086ce36f0001205f65,SCR,2024-06-10_12h18.16.751,LearnStrategy,2023.2.3,Linux x86_64,59.88023952,2,2,5,,,,,,,,8,14,,,,,,,,,,,,,8,1.374,1,,,,,,0.452320107,-0.399937647,1,0,0,1.374,Pumice_rect,4,0,4,0,1
5c4353086ce36f0001205f65,SCR,2024-06-10_12h18.16.751,LearnStrategy,2023.2.3,Linux x86_64,59.88023952,2,2,6,,,,,,,,5,05,,,,,,,,,,,,,5,2.114,1,,,,,,-0.376968073,-0.401756333,1,0,0,2.1139,Obsidian_rect,5,0,5,0,1
5c4353086ce36f0001205f65,SCR,2024-06-10_12h18.16.751,LearnStrategy,2023.2.3,Linux x86_64,59.88023952,2,2,7,,,,,,,,3,16,,,,,,,,,,,,,3,2.946,1,,,,,,0.228586605,-0.242841484,1,0,0,2.9458,Diorite_rect,6,0,6,0,1
5c4353086ce36f0001205f65,SCR,2024-06-10_12h18.16.751,LearnStrategy,2023.2.3,Linux x86_64,59.88023952,2,2,8,,,,,,,,1,09,,,,,,,,,,,,,7,3.418,0,,,,,,0.170658896,-0.402485026,1,0,0,3.4176,Peridotite_rect,7,0,7,0,1
5c4353086ce36f0001205f65,SCR,2024-06-10_12h18.16.751,LearnStrategy,2023.2.3,Linux x86_64,59.88023952,2,2,9,,,,,,,,3,14,,,,,,,,,,,,,6,4.623,0,,,,,,-0.112353292,-0.415256104,1,0,0,4.6231,Pegmatite_rect,8,0,8,0,1
5c4353086ce36f0001205f65,SCR,2024-06-10_12h18.16.751,LearnStrategy,2023.2.3,Linux x86_64,59.88023952,2,2,10,,,,,,,,8,15,,,,,,,,,,,,,2,2.789,0,,,,,,-0.104530723,-0.266793432,1,0,0,2.7891,Basalt_rect,9,0,9,0,1
5c4353086ce36f0001205f65,SCR,2024-06-10_12h18.16.751,LearnStrategy,2023.2.3,Linux x86_64,59.88023952,2,2,11,,,,,,,,4,01,,,,,,,,,,,,,4,6.601,1,,,,,,0.39257452,-0.259617636,1,0,0,6.6006,Gabbro_rect,10,0,10,0,1
5c4353086ce36f0001205f65,SCR,2024-06-10_12h18.16.751,LearnStrategy,2023.2.3,Linux x86_64,59.88023952,2,2,12,,,,,,,,2,12,,,,,,,,,,,,,3,4.017,0,,,,,,0.084909225,-0.257378293,1,0,0,4.0169,Diorite_rect,11,0,11,0,1
5c4353086ce36f0001205f65,SCR,2024-06-10_12h18.16.751,LearnStrategy,2023.2.3,Linux x86_64,59.88023952,2,2,13,,,,,,,,1,10,,,,,,,,,,,,,2,10.329,0,,,,,,-0.045276898,-0.26241649,1,0,0,10.3292,Basalt_rect,12,0,12,0,1
5c4353086ce36f0001205f65,SCR,2024-06-10_12h18.16.751,LearnStrategy,2023.2.3,Linux x86_64,59.88023952,2,2,14,,,,,,,,6,16,,,,,,,,,,,,,6,2.453,1,,,,,,-0.075929413,-0.413935706,1,0,0,2.4527,Pegmatite_rect,13,0,13,0,1
5c4353086ce36f0001205f65,SCR,2024-06-10_12h18.16.751,LearnStrategy,2023.2.3,Linux x86_64,59.88023952,2,2,15,,,,,,,,6,06,,,,,,,,,,,,,1,1.025,0,,,,,,-0.359938736,-0.267299738,1,0,0,1.0251,Andesite_rect,14,0,14,0,1
5c4353086ce36f0001205f65,SCR,2024-06-10_12h18.16.751,LearnStrategy,2023.2.3,Linux x86_64,59.88023952,2,2,16,,,,,,,,4,13,,,,,,,,,,,,,8,2.448,0,,,,,,0.327414954,-0.410486971,1,0,0,2.4478,Pumice_rect,15,0,15,0,1
5c4353086ce36f0001205f65,SCR,2024-06-10_12h18.16.751,LearnStrategy,2023.2.3,Linux x86_64,59.88023952,3,1,1,-0.220769505,0.095871189,1,0,0,1.4671,Andesite_07,1,07,4,3,1.467,1,07,-0.087737167,-0.404923635,1,0,0,3.7291,Pegmatite_rect,6,3.729,0,0,0,0,0,1,,,,,,,,,,,,
5c4353086ce36f0001205f65,SCR,2024-06-10_12h18.16.751,LearnStrategy,2023.2.3,Linux x86_64,59.88023952,3,1,2,0.068492633,-0.426534493,1,0,0,1.6021,Andesite_01,1,01,1,5,1.602,1,01,-0.06482667,-0.258724422,1,0,0,3.471,Basalt_rect,2,3.471,0,1,0,1,0,1,,,,,,,,,,,,
5c4353086ce36f0001205f65,SCR,2024-06-10_12h18.16.751,LearnStrategy,2023.2.3,Linux x86_64,59.88023952,3,1,3,-0.572508429,0.276671913,1,0,0,1.4945,Peridotite_12,7,12,5,1,1.495,7,12,-0.404501672,-0.241945348,1,0,0,1.4743,Andesite_rect,1,1.474,0,2,0,2,0,1,,,,,,,,,,,,
5c4353086ce36f0001205f65,SCR,2024-06-10_12h18.16.751,LearnStrategy,2023.2.3,Linux x86_64,59.88023952,3,1,4,-0.102779287,-0.451948488,1,0,0,1.0122,Basalt_08,2,08,1,4,1.012,2,08,0.165809025,-0.257719953,1,0,0,3.5309,Diorite_rect,3,3.531,0,3,0,3,0,1,,,,,,,,,,,,
5c4353086ce36f0001205f65,SCR,2024-06-10_12h18.16.751,LearnStrategy,2023.2.3,Linux x86_64,59.88023952,3,1,5,-0.538374114,0.090624372,1,0,0,1.0466,Diorite_06,3,06,4,1,1.047,3,06,-0.097100345,-0.411905386,1,0,0,3.353,Pegmatite_rect,6,3.353,0,4,0,4,0,1,,,,,,,,,,,,
5c4353086ce36f0001205f65,SCR,2024-06-10_12h18.16.751,LearnStrategy,2023.2.3,Linux x86_64,59.88023952,3,1,6,0.054434347,0.2308762,1,0,0,0.8946,Pegmatite_12,6,12,5,5,0.895,6,12,-0.057411396,-0.398913475,1,0,0,8.45,Pegmatite_rect,6,8.45,1,5,0,5,0,1,,,,,,,,,,,,
5c4353086ce36f0001205f65,SCR,2024-06-10_12h18.16.751,LearnStrategy,2023.2.3,Linux x86_64,59.88023952,3,1,7,-0.274599654,-0.297944669,1,0,0,1.0791,Diorite_11,3,11,2,3,1.079,3,11,0.122085789,-0.417940843,1,0,0,9.5756,Peridotite_rect,7,9.576,0,6,0,6,0,1,,,,,,,,,,,,
5c4353086ce36f0001205f65,SCR,2024-06-10_12h18.16.751,LearnStrategy,2023.2.3,Linux x86_64,59.88023952,3,1,8,0.37264735,0.256975426,1,0,0,1.1948,Pegmatite_09,6,09,5,7,1.195,6,09,-0.331028831,-0.243643767,1,0,0,1.4457,Andesite_rect,1,1.446,0,7,0,7,0,1,,,,,,,,,,,,
5c4353086ce36f0001205f65,SCR,2024-06-10_12h18.16.751,LearnStrategy,2023.2.3,Linux x86_64,59.88023952,3,1,9,0.198446674,0.442940473,1,0,0,0.8805,Basalt_10,2,10,6,6,0.88,2,10,-0.146241975,-0.260916094,1,0,0,4.4435,Basalt_rect,2,4.444,1,8,0,8,0,1,,,,,,,,,,,,
5c4353086ce36f0001205f65,SCR,2024-06-10_12h18.16.751,LearnStrategy,2023.2.3,Linux x86_64,59.88023952,3,1,10,-0.376443028,0.106630003,1,0,0,0.9871,Peridotite_02,7,02,4,2,0.987,7,02,-0.416840718,-0.265352766,1,0,0,4.8251,Andesite_rect,1,4.825,0,9,0,9,0,1,,,,,,,,,,,,
5c4353086ce36f0001205f65,SCR,2024-06-10_12h18.16.751,LearnStrategy,2023.2.3,Linux x86_64,59.88023952,3,1,11,0.188848119,0.109668087,1,0,0,0.9048,Andesite_11,1,11,4,6,0.905,1,11,-0.350504764,-0.249043513,1,0,0,1.198,Andesite_rect,1,1.198,1,10,0,10,0,1,,,,,,,,,,,,
5c4353086ce36f0001205f65,SCR,2024-06-10_12h18.16.751,LearnStrategy,2023.2.3,Linux x86_64,59.88023952,3,1,12,-0.571196515,0.399563659,1,0,0,1.1356,Gabbro_03,4,03,6,1,1.136,4,03,0.154055158,-0.229541911,1,0,0,3.8627,Diorite_rect,3,3.863,0,11,0,11,0,1,,,,,,,,,,,,
5c4353086ce36f0001205f65,SCR,2024-06-10_12h18.16.751,LearnStrategy,2023.2.3,Linux x86_64,59.88023952,3,1,13,0.262187266,0.434866196,1,0,0,0.9056,Basalt_10,2,10,6,6,0.906,2,10,-0.085715238,-0.25845629,1,0,0,1.3313,Basalt_rect,2,1.331,1,12,0,12,0,1,,,,,,,,,,,,
5c4353086ce36f0001205f65,SCR,2024-06-10_12h18.16.751,LearnStrategy,2023.2.3,Linux x86_64,59.88023952,3,1,14,0.425888776,0.398149766,1,0,0,0.8822,Pumice_04,8,04,6,7,0.882,8,04,0.400362904,-0.396269322,1,0,0,0.8889,Pumice_rect,8,0.889,1,13,0,13,0,1,,,,,,,,,,,,
5c4353086ce36f0001205f65,SCR,2024-06-10_12h18.16.751,LearnStrategy,2023.2.3,Linux x86_64,59.88023952,3,1,15,-0.203814474,0.072285172,1,0,0,2.2909,Andesite_07,1,07,4,3,2.291,7,07,-0.369620298,-0.261301635,1,0,0,1.2414,Andesite_rect,1,1.241,1,14,0,14,0,1,,,,,,,,,,,,
5c4353086ce36f0001205f65,SCR,2024-06-10_12h18.16.751,LearnStrategy,2023.2.3,Linux x86_64,59.88023952,3,1,16,0.128557442,0.396673432,1,0,0,1.1106,Gabbro_08,4,08,6,5,1.111,4,08,0.184431088,-0.250664363,1,0,0,4.9703,Diorite_rect,3,4.97,0,15,0,15,0,1,,,,,,,,,,,,
5c4353086ce36f0001205f65,SCR,2024-06-10_12h18.16.751,LearnStrategy,2023.2.3,Linux x86_64,59.88023952,3,2,1,,,,,,,,7,14,,,,,,,,,,,,,7,6.639,1,,,,,,0.175735256,-0.418992549,1,0,0,6.6391,Peridotite_rect,0,0,0,0,1
5c4353086ce36f0001205f65,SCR,2024-06-10_12h18.16.751,LearnStrategy,2023.2.3,Linux x86_64,59.88023952,3,2,2,,,,,,,,6,08,,,,,,,,,,,,,6,6.999,1,,,,,,-0.182444462,-0.399262407,1,0,0,6.9988,Pegmatite_rect,1,0,1,0,1
5c4353086ce36f0001205f65,SCR,2024-06-10_12h18.16.751,LearnStrategy,2023.2.3,Linux x86_64,59.88023952,3,2,3,,,,,,,,4,12,,,,,,,,,,,,,3,1.549,0,,,,,,0.212067583,-0.256177168,1,0,0,1.5491,Diorite_rect,2,0,2,0,1
5c4353086ce36f0001205f65,SCR,2024-06-10_12h18.16.751,LearnStrategy,2023.2.3,Linux x86_64,59.88023952,3,2,4,,,,,,,,3,15,,,,,,,,,,,,,3,2.562,1,,,,,,0.212067583,-0.256177168,1,0,0,2.5619,Diorite_rect,3,0,3,0,1
5c4353086ce36f0001205f65,SCR,2024-06-10_12h18.16.751,LearnStrategy,2023.2.3,Linux x86_64,59.88023952,3,2,5,,,,,,,,3,12,,,,,,,,,,,,,3,3.161,1,,,,,,0.212067583,-0.256177168,1,0,0,3.1612,Diorite_rect,4,0,4,0,1
5c4353086ce36f0001205f65,SCR,2024-06-10_12h18.16.751,LearnStrategy,2023.2.3,Linux x86_64,59.88023952,3,2,6,,,,,,,,5,02,,,,,,,,,,,,,5,1.065,1,,,,,,-0.382540763,-0.404648791,1,0,0,1.0647,Obsidian_rect,5,0,5,0,1
5c4353086ce36f0001205f65,SCR,2024-06-10_12h18.16.751,LearnStrategy,2023.2.3,Linux x86_64,59.88023952,3,2,7,,,,,,,,4,15,,,,,,,,,,,,,6,5.507,0,,,,,,-0.087787947,-0.414776338,1,0,0,5.5072,Pegmatite_rect,6,0,6,0,1
5c4353086ce36f0001205f65,SCR,2024-06-10_12h18.16.751,LearnStrategy,2023.2.3,Linux x86_64,59.88023952,3,2,8,,,,,,,,1,16,,,,,,,,,,,,,1,1.211,1,,,,,,-0.354740803,-0.256002205,1,0,0,1.2106,Andesite_rect,7,0,7,0,1
5c4353086ce36f0001205f65,SCR,2024-06-10_12h18.16.751,LearnStrategy,2023.2.3,Linux x86_64,59.88023952,3,2,9,,,,,,,,2,05,,,,,,,,,,,,,2,2.365,1,,,,,,-0.182408288,-0.252908307,1,0,0,2.3647,Basalt_rect,8,0,8,0,1
5c4353086ce36f0001205f65,SCR,2024-06-10_12h18.16.751,LearnStrategy,2023.2.3,Linux x86_64,59.88023952,3,2,10,,,,,,,,8,05,,,,,,,,,,,,,8,1.155,1,,,,,,0.400615995,-0.405577805,1,0,0,1.1552,Pumice_rect,9,0,9,0,1
5c4353086ce36f0001205f65,SCR,2024-06-10_12h18.16.751,LearnStrategy,2023.2.3,Linux x86_64,59.88023952,3,2,11,,,,,,,,1,06,,,,,,,,,,,,,1,1.879,1,,,,,,-0.364442472,-0.263801839,1,0,0,1.8788,Andesite_rect,10,0,10,0,1
5c4353086ce36f0001205f65,SCR,2024-06-10_12h18.16.751,LearnStrategy,2023.2.3,Linux x86_64,59.88023952,3,2,12,,,,,,,,6,05,,,,,,,,,,,,,4,6.183,0,,,,,,0.447844402,-0.250921929,1,0,0,6.1825,Gabbro_rect,11,0,11,0,1
5c4353086ce36f0001205f65,SCR,2024-06-10_12h18.16.751,LearnStrategy,2023.2.3,Linux x86_64,59.88023952,3,2,13,,,,,,,,7,08,,,,,,,,,,,,,6,3.442,0,,,,,,-0.130942164,-0.415312043,1,0,0,3.4417,Pegmatite_rect,12,0,12,0,1
5c4353086ce36f0001205f65,SCR,2024-06-10_12h18.16.751,LearnStrategy,2023.2.3,Linux x86_64,59.88023952,3,2,14,,,,,,,,8,02,,,,,,,,,,,,,8,1.017,1,,,,,,0.492306214,-0.407032394,1,0,0,1.0173,Pumice_rect,13,0,13,0,1
5c4353086ce36f0001205f65,SCR,2024-06-10_12h18.16.751,LearnStrategy,2023.2.3,Linux x86_64,59.88023952,3,2,15,,,,,,,,5,08,,,,,,,,,,,,,5,0.935,1,,,,,,-0.331999676,-0.394192014,1,0,0,0.9346,Obsidian_rect,14,0,14,0,1
5c4353086ce36f0001205f65,SCR,2024-06-10_12h18.16.751,LearnStrategy,2023.2.3,Linux x86_64,59.88023952,3,2,16,,,,,,,,2,16,,,,,,,,,,,,,4,2.963,0,,,,,,0.404359153,-0.256542198,1,0,0,2.9625,Gabbro_rect,15,0,15,0,1
5c4353086ce36f0001205f65,SCR,2024-06-10_12h18.16.751,LearnStrategy,2023.2.3,Linux x86_64,59.88023952,4,1,1,0.397230346,-0.430733675,1,0,0,1.2417,Basalt_09,2,09,1,7,1.242,2,09,0.406868183,-0.245305079,1,0,0,2.4631,Gabbro_rect,4,2.463,0,0,0,0,0,1,,,,,,,,,,,,
5c4353086ce36f0001205f65,SCR,2024-06-10_12h18.16.751,LearnStrategy,2023.2.3,Linux x86_64,59.88023952,4,1,2,0.048301806,0.232993909,1,0,0,0.8958,Pegmatite_12,6,12,5,5,0.896,6,12,-0.354941001,-0.234061558,1,0,0,1.2811,Andesite_rect,1,1.281,0,1,0,1,0,1,,,,,,,,,,,,
5c4353086ce36f0001205f65,SCR,2024-06-10_12h18.16.751,LearnStrategy,2023.2.3,Linux x86_64,59.88023952,4,1,3,-0.42551144,-0.256529208,1,0,0,0.8355,Andesite_03,1,03,2,2,0.836,1,03,-0.421083221,-0.253490627,1,0,0,1.0643,Andesite_rect,1,1.064,1,2,0,2,0,1,,,,,,,,,,,,
5c4353086ce36f0001205f65,SCR,2024-06-10_12h18.16.751,LearnStrategy,2023.2.3,Linux x86_64,59.88023952,4,1,4,0.586686828,-0.454716576,1,0,0,8.907,Andesite_05,1,05,1,8,8.907,1,05,-0.328622356,-0.256577812,1,0,0,1.3355,Andesite_rect,1,1.336,1,3,0,3,0,1,,,,,,,,,,,,
5c4353086ce36f0001205f65,SCR,2024-06-10_12h18.16.751,LearnStrategy,2023.2.3,Linux x86_64,59.88023952,4,1,5,0.417323592,0.083324735,1,0,0,0.7517,Peridotite_05,7,05,4,7,0.752,7,05,0.116231138,-0.397252535,1,0,0,4.2799,Peridotite_rect,7,4.28,1,4,0,4,0,1,,,,,,,,,,,,
5c4353086ce36f0001205f65,SCR,2024-06-10_12h18.16.751,LearnStrategy,2023.2.3,Linux x86_64,59.88023952,4,1,6,-0.510943131,0.255139368,1,0,0,1.0081,Peridotite_12,7,12,5,1,1.008,7,12,0.089153904,-0.412887791,1,0,0,2.855,Peridotite_rect,7,2.855,1,5,0,5,0,1,,,,,,,,,,,,
5c4353086ce36f0001205f65,SCR,2024-06-10_12h18.16.751,LearnStrategy,2023.2.3,Linux x86_64,59.88023952,4,1,7,-0.068193673,-0.402442699,1,0,0,0.9137,Basalt_08,2,08,1,4,0.914,2,08,-0.125329292,-0.231921598,1,0,0,1.5308,Basalt_rect,2,1.531,1,6,0,6,0,1,,,,,,,,,,,,
5c4353086ce36f0001205f65,SCR,2024-06-10_12h18.16.751,LearnStrategy,2023.2.3,Linux x86_64,59.88023952,4,1,8,-0.536682782,-0.260676429,1,0,0,1.056,Pegmatite_11,6,11,2,1,1.056,6,11,-0.402303008,-0.245724058,1,0,0,1.5992,Andesite_rect,1,1.599,0,7,0,7,0,1,,,,,,,,,,,,
5c4353086ce36f0001205f65,SCR,2024-06-10_12h18.16.751,LearnStrategy,2023.2.3,Linux x86_64,59.88023952,4,1,9,-0.204636397,-0.089186845,1,0,0,1.1961,Pumice_08,8,08,3,3,1.196,8,08,0.433473296,-0.415126327,1,0,0,0.6169,Pumice_rect,8,0.617,1,8,0,8,0,1,,,,,,,,,,,,
5c4353086ce36f0001205f65,SCR,2024-06-10_12h18.16.751,LearnStrategy,2023.2.3,Linux x86_64,59.88023952,4,1,10,0.230235176,0.286920629,1,0,0,0.8169,Diorite_07,3,07,5,6,0.817,3,07,-0.429215658,-0.252669511,1,0,0,3.2598,Andesite_rect,1,3.26,0,9,0,9,0,1,,,,,,,,,,,,
5c4353086ce36f0001205f65,SCR,2024-06-10_12h18.16.751,LearnStrategy,2023.2.3,Linux x86_64,59.88023952,4,1,11,0.247386303,-0.093964369,1,0,0,0.7419,Gabbro_11,4,11,3,6,0.742,4,11,0.202022389,-0.249224319,1,0,0,3.0058,Diorite_rect,3,3.006,0,10,0,10,0,1,,,,,,,,,,,,
5c4353086ce36f0001205f65,SCR,2024-06-10_12h18.16.751,LearnStrategy,2023.2.3,Linux x86_64,59.88023952,4,1,12,0.549305591,0.394425674,1,0,0,1.0606,Gabbro_16,4,16,6,8,1.061,4,16,-0.111756117,-0.256516839,1,0,0,2.4466,Basalt_rect,2,2.447,0,11,0,11,0,1,,,,,,,,,,,,
5c4353086ce36f0001205f65,SCR,2024-06-10_12h18.16.751,LearnStrategy,2023.2.3,Linux x86_64,59.88023952,4,1,13,-0.213730138,0.416031008,1,0,0,0.9915,Pegmatite_15,6,15,6,3,0.991,6,15,0.128717799,-0.418564185,1,0,0,3.2492,Peridotite_rect,7,3.249,0,12,0,12,0,1,,,,,,,,,,,,
5c4353086ce36f0001205f65,SCR,2024-06-10_12h18.16.751,LearnStrategy,2023.2.3,Linux x86_64,59.88023952,4,1,14,0.550444873,0.398974774,1,0,0,0.9908,Gabbro_16,4,16,6,8,0.991,4,16,-0.155770855,-0.236655676,1,0,0,2.1575,Basalt_rect,2,2.158,0,13,0,13,0,1,,,,,,,,,,,,
5c4353086ce36f0001205f65,SCR,2024-06-10_12h18.16.751,LearnStrategy,2023.2.3,Linux x86_64,59.88023952,4,1,15,-0.555069187,0.255067332,1,0,0,0.9339,Peridotite_12,7,12,5,1,0.934,7,12,-0.439695743,-0.249013928,1,0,0,2.3299,Andesite_rect,1,2.33,0,14,0,14,0,1,,,,,,,,,,,,
5c4353086ce36f0001205f65,SCR,2024-06-10_12h18.16.751,LearnStrategy,2023.2.3,Linux x86_64,59.88023952,4,1,16,-0.055185229,-0.291554127,1,0,0,0.8043,Diorite_10,3,10,2,4,0.804,3,10,-0.379320226,-0.240131262,1,0,0,1.2931,Andesite_rect,1,1.293,0,15,0,15,0,1,,,,,,,,,,,,
5c4353086ce36f0001205f65,SCR,2024-06-10_12h18.16.751,LearnStrategy,2023.2.3,Linux x86_64,59.88023952,4,2,1,,,,,,,,7,13,,,,,,,,,,,,,1,2.185,0,,,,,,-0.325820084,-0.243580121,1,0,0,2.1852,Andesite_rect,0,0,0,0,1
5c4353086ce36f0001205f65,SCR,2024-06-10_12h18.16.751,LearnStrategy,2023.2.3,Linux x86_64,59.88023952,4,2,2,,,,,,,,8,15,,,,,,,,,,,,,8,1.221,1,,,,,,0.406771471,-0.396389777,1,0,0,1.2215,Pumice_rect,1,0,1,0,1
5c4353086ce36f0001205f65,SCR,2024-06-10_12h18.16.751,LearnStrategy,2023.2.3,Linux x86_64,59.88023952,4,2,3,,,,,,,,4,01,,,,,,,,,,,,,3,1.853,0,,,,,,0.163345617,-0.267194511,1,0,0,1.8526,Diorite_rect,2,0,2,0,1
5c4353086ce36f0001205f65,SCR,2024-06-10_12h18.16.751,LearnStrategy,2023.2.3,Linux x86_64,59.88023952,4,2,4,,,,,,,,1,10,,,,,,,,,,,,,4,1.395,0,,,,,,0.387163026,-0.244218628,1,0,0,1.3946,Gabbro_rect,3,0,3,0,1
5c4353086ce36f0001205f65,SCR,2024-06-10_12h18.16.751,LearnStrategy,2023.2.3,Linux x86_64,59.88023952,4,2,5,,,,,,,,1,09,,,,,,,,,,,,,3,1.65,0,,,,,,0.163822959,-0.238856422,1,0,0,1.6503,Diorite_rect,4,0,4,0,1
5c4353086ce36f0001205f65,SCR,2024-06-10_12h18.16.751,LearnStrategy,2023.2.3,Linux x86_64,59.88023952,4,2,6,,,,,,,,7,15,,,,,,,,,,,,,6,2.115,0,,,,,,-0.076801184,-0.40666177,1,0,0,2.1154,Pegmatite_rect,5,0,5,0,1
5c4353086ce36f0001205f65,SCR,2024-06-10_12h18.16.751,LearnStrategy,2023.2.3,Linux x86_64,59.88023952,4,2,7,,,,,,,,4,09,,,,,,,,,,,,,5,1.102,0,,,,,,-0.334535867,-0.389341273,1,0,0,1.1025,Obsidian_rect,6,0,6,0,1
5c4353086ce36f0001205f65,SCR,2024-06-10_12h18.16.751,LearnStrategy,2023.2.3,Linux x86_64,59.88023952,4,2,8,,,,,,,,3,08,,,,,,,,,,,,,3,5.532,1,,,,,,0.175862423,-0.245226205,1,0,0,5.532,Diorite_rect,7,0,7,0,1
5c4353086ce36f0001205f65,SCR,2024-06-10_12h18.16.751,LearnStrategy,2023.2.3,Linux x86_64,59.88023952,4,2,9,,,,,,,,5,08,,,,,,,,,,,,,5,0.957,1,,,,,,-0.358317762,-0.395906716,1,0,0,0.9575,Obsidian_rect,8,0,8,0,1
5c4353086ce36f0001205f65,SCR,2024-06-10_12h18.16.751,LearnStrategy,2023.2.3,Linux x86_64,59.88023952,4,2,10,,,,,,,,8,02,,,,,,,,,,,,,8,0.995,1,,,,,,0.396104615,-0.400668391,1,0,0,0.9946,Pumice_rect,9,0,9,0,1
5c4353086ce36f0001205f65,SCR,2024-06-10_12h18.16.751,LearnStrategy,2023.2.3,Linux x86_64,59.88023952,4,2,11,,,,,,,,6,16,,,,,,,,,,,,,7,8.592,0,,,,,,0.074739165,-0.38175638,1,0,0,8.5924,Peridotite_rect,10,0,10,0,1
5c4353086ce36f0001205f65,SCR,2024-06-10_12h18.16.751,LearnStrategy,2023.2.3,Linux x86_64,59.88023952,4,2,12,,,,,,,,6,10,,,,,,,,,,,,,7,2.059,0,,,,,,0.08181713,-0.392130244,1,0,0,2.0587,Peridotite_rect,11,0,11,0,1
5c4353086ce36f0001205f65,SCR,2024-06-10_12h18.16.751,LearnStrategy,2023.2.3,Linux x86_64,59.88023952,4,2,13,,,,,,,,2,05,,,,,,,,,,,,,3,1.623,0,,,,,,0.180313141,-0.250124929,1,0,0,1.6231,Diorite_rect,12,0,12,0,1
5c4353086ce36f0001205f65,SCR,2024-06-10_12h18.16.751,LearnStrategy,2023.2.3,Linux x86_64,59.88023952,4,2,14,,,,,,,,3,15,,,,,,,,,,,,,4,5.875,0,,,,,,0.416600991,-0.244225652,1,0,0,5.8749,Gabbro_rect,13,0,13,0,1
5c4353086ce36f0001205f65,SCR,2024-06-10_12h18.16.751,LearnStrategy,2023.2.3,Linux x86_64,59.88023952,4,2,15,,,,,,,,2,02,,,,,,,,,,,,,2,0.972,1,,,,,,-0.092635518,-0.244296942,1,0,0,0.9718,Basalt_rect,14,0,14,0,1
5c4353086ce36f0001205f65,SCR,2024-06-10_12h18.16.751,LearnStrategy,2023.2.3,Linux x86_64,59.88023952,4,2,16,,,,,,,,5,10,,,,,,,,,,,,,5,2.147,1,,,,,,-0.429705898,-0.408569149,1,0,0,2.1471,Obsidian_rect,15,0,15,0,1
5c4353086ce36f0001205f65,SCR,2024-06-10_12h18.16.751,LearnStrategy,2023.2.3,Linux x86_64,59.88023952,5,1,1,-0.212577556,0.085756166,1,0,0,0.849,Andesite_07,1,07,4,3,0.849,1,07,-0.439082315,-0.256401544,1,0,0,1.5254,Andesite_rect,1,1.525,1,0,0,0,0,1,,,,,,,,,,,,
5c4353086ce36f0001205f65,SCR,2024-06-10_12h18.16.751,LearnStrategy,2023.2.3,Linux x86_64,59.88023952,5,1,2,0.214452056,0.244728601,1,0,0,0.9323,Diorite_07,3,07,5,6,0.932,3,07,0.152193089,-0.248046316,1,0,0,1.7227,Diorite_rect,3,1.723,1,1,0,1,0,1,,,,,,,,,,,,
5c4353086ce36f0001205f65,SCR,2024-06-10_12h18.16.751,LearnStrategy,2023.2.3,Linux x86_64,59.88023952,5,1,3,0.57020112,-0.114730182,1,0,0,0.8562,Basalt_06,2,06,3,8,0.856,2,06,-0.168780294,-0.263884131,1,0,0,0.9738,Basalt_rect,2,0.974,1,2,0,2,0,1,,,,,,,,,,,,
5c4353086ce36f0001205f65,SCR,2024-06-10_12h18.16.751,LearnStrategy,2023.2.3,Linux x86_64,59.88023952,5,1,4,0.221791937,-0.079151348,1,0,0,0.6853,Gabbro_11,4,11,3,6,0.685,4,11,0.41168101,-0.247129048,1,0,0,0.8656,Gabbro_rect,4,0.866,1,3,0,3,0,1,,,,,,,,,,,,
5c4353086ce36f0001205f65,SCR,2024-06-10_12h18.16.751,LearnStrategy,2023.2.3,Linux x86_64,59.88023952,5,1,5,-0.354919558,0.06587067,1,0,0,0.6972,Peridotite_02,7,02,4,2,0.697,7,02,0.172145618,-0.405145711,1,0,0,2.115,Peridotite_rect,7,2.115,1,4,0,4,0,1,,,,,,,,,,,,
5c4353086ce36f0001205f65,SCR,2024-06-10_12h18.16.751,LearnStrategy,2023.2.3,Linux x86_64,59.88023952,5,1,6,-0.5223903,0.443255706,1,0,0,0.933,Gabbro_03,4,03,6,1,0.933,4,03,0.207388884,-0.24971403,1,0,0,1.4697,Diorite_rect,3,1.47,0,5,0,5,0,1,,,,,,,,,,,,
5c4353086ce36f0001205f65,SCR,2024-06-10_12h18.16.751,LearnStrategy,2023.2.3,Linux x86_64,59.88023952,5,1,7,0.419455969,0.257393147,1,0,0,1.6002,Pegmatite_09,6,09,5,7,1.6,6,09,0.155360702,-0.393794477,1,0,0,4.9969,Peridotite_rect,7,4.997,0,6,0,6,0,1,,,,,,,,,,,,
5c4353086ce36f0001205f65,SCR,2024-06-10_12h18.16.751,LearnStrategy,2023.2.3,Linux x86_64,59.88023952,5,1,8,0.434581997,0.454826615,1,0,0,1.0539,Pumice_04,8,04,6,7,1.054,8,04,0.453656665,-0.384058375,1,0,0,2.1676,Pumice_rect,8,2.168,1,7,0,7,0,1,,,,,,,,,,,,
5c4353086ce36f0001205f65,SCR,2024-06-10_12h18.16.751,LearnStrategy,2023.2.3,Linux x86_64,59.88023952,5,1,9,-0.371815295,0.230116058,1,0,0,0.7694,Peridotite_07,7,07,5,2,0.769,7,07,-0.10147275,-0.379480179,1,0,0,1.6796,Pegmatite_rect,6,1.68,0,8,0,8,0,1,,,,,,,,,,,,
5c4353086ce36f0001205f65,SCR,2024-06-10_12h18.16.751,LearnStrategy,2023.2.3,Linux x86_64,59.88023952,5,1,10,-0.053636912,-0.405329003,1,0,0,0.9313,Basalt_08,2,08,1,4,0.931,2,08,0.37592771,-0.260034379,1,0,0,1.5945,Gabbro_rect,4,1.595,0,9,0,9,0,1,,,,,,,,,,,,
5c4353086ce36f0001205f65,SCR,2024-06-10_12h18.16.751,LearnStrategy,2023.2.3,Linux x86_64,59.88023952,5,1,11,-0.540122038,-0.238999252,1,0,0,0.9978,Pegmatite_11,6,11,2,1,0.998,6,11,-0.107651223,-0.41919629,1,0,0,1.5221,Pegmatite_rect,6,1.522,1,10,0,10,0,1,,,,,,,,,,,,
5c4353086ce36f0001205f65,SCR,2024-06-10_12h18.16.751,LearnStrategy,2023.2.3,Linux x86_64,59.88023952,5,1,12,-0.394437366,-0.232517219,1,0,0,0.8638,Andesite_03,1,03,2,2,0.864,1,03,-0.378981177,-0.26086345,1,0,0,1.3324,Andesite_rect,1,1.332,1,11,0,11,0,1,,,,,,,,,,,,
5c4353086ce36f0001205f65,SCR,2024-06-10_12h18.16.751,LearnStrategy,2023.2.3,Linux x86_64,59.88023952,5,1,13,0.401886546,-0.093782382,1,0,0,0.9365,Diorite_02,3,02,3,7,0.937,3,02,0.169576299,-0.256699323,1,0,0,1.4749,Diorite_rect,3,1.475,1,12,0,12,0,1,,,,,,,,,,,,
5c4353086ce36f0001205f65,SCR,2024-06-10_12h18.16.751,LearnStrategy,2023.2.3,Linux x86_64,59.88023952,5,1,14,-0.573350988,0.393248875,1,0,0,1.851,Gabbro_03,4,03,6,1,1.851,4,03,0.175100789,-0.259331542,1,0,0,2.9659,Diorite_rect,3,2.966,0,13,0,13,0,1,,,,,,,,,,,,
5c4353086ce36f0001205f65,SCR,2024-06-10_12h18.16.751,LearnStrategy,2023.2.3,Linux x86_64,59.88023952,5,1,15,-0.568766079,0.242136254,1,0,0,0.8997,Peridotite_12,7,12,5,1,0.9,7,12,-0.138799228,-0.405243106,1,0,0,2.0126,Pegmatite_rect,6,2.013,0,14,0,14,0,1,,,,,,,,,,,,
5c4353086ce36f0001205f65,SCR,2024-06-10_12h18.16.751,LearnStrategy,2023.2.3,Linux x86_64,59.88023952,5,1,16,-0.088404514,0.287756615,1,0,0,0.7266,Pegmatite_07,6,07,5,4,0.727,6,07,-0.057040026,-0.379443633,1,0,0,5.1333,Pegmatite_rect,6,5.133,1,15,0,15,0,1,,,,,,,,,,,,
5c4353086ce36f0001205f65,SCR,2024-06-10_12h18.16.751,LearnStrategy,2023.2.3,Linux x86_64,59.88023952,5,2,1,,,,,,,,1,16,,,,,,,,,,,,,1,8.402,1,,,,,,-0.414491549,-0.270091257,1,0,0,8.4016,Andesite_rect,0,0,0,0,1
5c4353086ce36f0001205f65,SCR,2024-06-10_12h18.16.751,LearnStrategy,2023.2.3,Linux x86_64,59.88023952,5,2,2,,,,,,,,4,15,,,,,,,,,,,,,4,2.166,1,,,,,,0.405742078,-0.253255996,1,0,0,2.1657,Gabbro_rect,1,0,1,0,1
5c4353086ce36f0001205f65,SCR,2024-06-10_12h18.16.751,LearnStrategy,2023.2.3,Linux x86_64,59.88023952,5,2,3,,,,,,,,6,06,,,,,,,,,,,,,6,10.517,1,,,,,,-0.143707835,-0.409507114,1,0,0,10.5167,Pegmatite_rect,2,0,2,0,1
5c4353086ce36f0001205f65,SCR,2024-06-10_12h18.16.751,LearnStrategy,2023.2.3,Linux x86_64,59.88023952,5,2,4,,,,,,,,8,13,,,,,,,,,,,,,8,1.01,1,,,,,,0.433734964,-0.39314385,1,0,0,1.0105,Pumice_rect,3,0,3,0,1
5c4353086ce36f0001205f65,SCR,2024-06-10_12h18.16.751,LearnStrategy,2023.2.3,Linux x86_64,59.88023952,5,2,5,,,,,,,,7,14,,,,,,,,,,,,,3,4.98,0,,,,,,0.160125049,-0.249125619,1,0,0,4.9801,Diorite_rect,4,0,4,0,1
5c4353086ce36f0001205f65,SCR,2024-06-10_12h18.16.751,LearnStrategy,2023.2.3,Linux x86_64,59.88023952,5,2,6,,,,,,,,3,14,,,,,,,,,,,,,7,18.907,0,,,,,,0.115306971,-0.412101419,1,0,0,18.9074,Peridotite_rect,5,0,5,0,1
5c4353086ce36f0001205f65,SCR,2024-06-10_12h18.16.751,LearnStrategy,2023.2.3,Linux x86_64,59.88023952,5,2,7,,,,,,,,3,12,,,,,,,,,,,,,3,3.265,1,,,,,,0.129012222,-0.260117043,1,0,0,3.2652,Diorite_rect,6,0,6,0,1
5c4353086ce36f0001205f65,SCR,2024-06-10_12h18.16.751,LearnStrategy,2023.2.3,Linux x86_64,59.88023952,5,2,8,,,,,,,,8,09,,,,,,,,,,,,,8,1.027,1,,,,,,0.339289088,-0.380205889,1,0,0,1.0275,Pumice_rect,7,0,7,0,1
5c4353086ce36f0001205f65,SCR,2024-06-10_12h18.16.751,LearnStrategy,2023.2.3,Linux x86_64,59.88023952,5,2,9,,,,,,,,7,10,,,,,,,,,,,,,7,3.111,1,,,,,,0.196715066,-0.411869709,1,0,0,3.1115,Peridotite_rect,8,0,8,0,1
5c4353086ce36f0001205f65,SCR,2024-06-10_12h18.16.751,LearnStrategy,2023.2.3,Linux x86_64,59.88023952,5,2,10,,,,,,,,1,02,,,,,,,,,,,,,6,5.417,0,,,,,,-0.110207738,-0.421649568,1,0,0,5.4174,Pegmatite_rect,9,0,9,0,1
5c4353086ce36f0001205f65,SCR,2024-06-10_12h18.16.751,LearnStrategy,2023.2.3,Linux x86_64,59.88023952,5,2,11,,,,,,,,6,08,,,,,,,,,,,,,6,0.839,1,,,,,,-0.118161328,-0.415392283,1,0,0,0.8386,Pegmatite_rect,10,0,10,0,1
5c4353086ce36f0001205f65,SCR,2024-06-10_12h18.16.751,LearnStrategy,2023.2.3,Linux x86_64,59.88023952,5,2,12,,,,,,,,2,12,,,,,,,,,,,,,2,7.284,1,,,,,,-0.100087587,-0.243054609,1,0,0,7.2839,Basalt_rect,11,0,11,0,1
5c4353086ce36f0001205f65,SCR,2024-06-10_12h18.16.751,LearnStrategy,2023.2.3,Linux x86_64,59.88023952,5,2,13,,,,,,,,5,05,,,,,,,,,,,,,5,1.165,1,,,,,,-0.355992521,-0.403616787,1,0,0,1.1654,Obsidian_rect,12,0,12,0,1
5c4353086ce36f0001205f65,SCR,2024-06-10_12h18.16.751,LearnStrategy,2023.2.3,Linux x86_64,59.88023952,5,2,14,,,,,,,,2,11,,,,,,,,,,,,,2,1.975,1,,,,,,-0.062374014,-0.238590404,1,0,0,1.9754,Basalt_rect,13,0,13,0,1
5c4353086ce36f0001205f65,SCR,2024-06-10_12h18.16.751,LearnStrategy,2023.2.3,Linux x86_64,59.88023952,5,2,15,,,,,,,,5,02,,,,,,,,,,,,,5,1.205,1,,,,,,-0.419168632,-0.389967163,1,0,0,1.205,Obsidian_rect,14,0,14,0,1
5c4353086ce36f0001205f65,SCR,2024-06-10_12h18.16.751,LearnStrategy,2023.2.3,Linux x86_64,59.88023952,5,2,16,,,,,,,,4,13,,,,,,,,,,,,,4,2.467,1,,,,,,0.393646178,-0.255381163,1,0,0,2.4673,Gabbro_rect,15,0,15,0,1
5c4353086ce36f0001205f65,SCR,2024-06-10_12h18.16.751,LearnStrategy,2023.2.3,Linux x86_64,59.88023952,6,1,1,-0.517004662,0.114612059,1,0,0,2.4187,Diorite_06,3,06,4,1,2.419,3,06,0.182316735,-0.265911219,1,0,0,2.5031,Diorite_rect,3,2.503,1,0,0,0,0,1,,,,,,,,,,,,
5c4353086ce36f0001205f65,SCR,2024-06-10_12h18.16.751,LearnStrategy,2023.2.3,Linux x86_64,59.88023952,6,1,2,0.225554861,-0.438530636,1,0,0,1.2642,Pumice_10,8,10,1,6,1.264,8,10,0.371511922,-0.393574452,1,0,0,1.0221,Pumice_rect,8,1.022,1,1,0,1,0,1,,,,,,,,,,,,
5c4353086ce36f0001205f65,SCR,2024-06-10_12h18.16.751,LearnStrategy,2023.2.3,Linux x86_64,59.88023952,6,1,3,0.576414027,-0.054298727,1,0,0,0.8519,Basalt_06,2,06,3,8,0.852,2,06,-0.155794722,-0.271465045,1,0,0,2.1874,Basalt_rect,2,2.187,1,2,0,2,0,1,,,,,,,,,,,,
5c4353086ce36f0001205f65,SCR,2024-06-10_12h18.16.751,LearnStrategy,2023.2.3,Linux x86_64,59.88023952,6,1,4,0.406124449,0.096149483,1,0,0,0.8966,Peridotite_05,7,05,4,7,0.897,7,05,0.190128241,-0.388300692,1,0,0,3.1901,Peridotite_rect,7,3.19,1,3,0,3,0,1,,,,,,,,,,,,
5c4353086ce36f0001205f65,SCR,2024-06-10_12h18.16.751,LearnStrategy,2023.2.3,Linux x86_64,59.88023952,6,1,5,-0.406514061,0.439585746,1,0,0,1.0975,Diorite_13,3,13,6,2,1.098,3,13,-0.352616196,-0.259818891,1,0,0,7.2941,Andesite_rect,1,7.294,0,4,0,4,0,1,,,,,,,,,,,,
5c4353086ce36f0001205f65,SCR,2024-06-10_12h18.16.751,LearnStrategy,2023.2.3,Linux x86_64,59.88023952,6,1,6,-0.415069984,-0.134275355,1,0,0,0.9241,Gabbro_05,4,05,3,2,0.924,4,05,0.40950786,-0.253328529,1,0,0,22.1933,Gabbro_rect,4,22.193,1,5,0,5,0,1,,,,,,,,,,,,
5c4353086ce36f0001205f65,SCR,2024-06-10_12h18.16.751,LearnStrategy,2023.2.3,Linux x86_64,59.88023952,6,1,7,-0.075861851,-0.099660466,1,0,0,0.7636,Obsidian_09,5,09,3,4,0.764,5,09,-0.414350708,-0.396983471,1,0,0,0.6975,Obsidian_rect,5,0.697,1,6,0,6,0,1,,,,,,,,,,,,
5c4353086ce36f0001205f65,SCR,2024-06-10_12h18.16.751,LearnStrategy,2023.2.3,Linux x86_64,59.88023952,6,1,8,0.264311812,0.122072643,1,0,0,0.7742,Andesite_11,1,11,4,6,0.774,1,11,-0.379445249,-0.266160332,1,0,0,0.7078,Andesite_rect,1,0.708,1,7,0,7,0,1,,,,,,,,,,,,
5c4353086ce36f0001205f65,SCR,2024-06-10_12h18.16.751,LearnStrategy,2023.2.3,Linux x86_64,59.88023952,6,1,9,0.393197302,-0.276829923,1,0,0,1.2298,Gabbro_14,4,14,2,7,1.23,4,14,0.388175638,-0.241333008,1,0,0,1.7784,Gabbro_rect,4,1.778,1,8,0,8,0,1,,,,,,,,,,,,
5c4353086ce36f0001205f65,SCR,2024-06-10_12h18.16.751,LearnStrategy,2023.2.3,Linux x86_64,59.88023952,6,1,10,0.247582088,-0.28499148,1,0,0,0.8955,Peridotite_06,7,06,2,6,0.896,7,06,0.152865284,-0.397954937,1,0,0,1.0538,Peridotite_rect,7,1.054,1,9,0,9,0,1,,,,,,,,,,,,
5c4353086ce36f0001205f65,SCR,2024-06-10_12h18.16.751,LearnStrategy,2023.2.3,Linux x86_64,59.88023952,6,1,11,0.045683882,0.298114101,1,0,0,0.78,Pegmatite_12,6,12,5,5,0.78,6,12,-0.111074848,-0.415855019,1,0,0,3.5675,Pegmatite_rect,6,3.568,1,10,0,10,0,1,,,,,,,,,,,,
5c4353086ce36f0001205f65,SCR,2024-06-10_12h18.16.751,LearnStrategy,2023.2.3,Linux x86_64,59.88023952,6,1,12,0.421033187,0.259562926,1,0,0,1.261,Pegmatite_09,6,09,5,7,1.261,6,09,-0.141665768,-0.401590693,1,0,0,0.8814,Pegmatite_rect,6,0.881,1,11,0,11,0,1,,,,,,,,,,,,
5c4353086ce36f0001205f65,SCR,2024-06-10_12h18.16.751,LearnStrategy,2023.2.3,Linux x86_64,59.88023952,6,1,13,-0.540066939,-0.116251338,1,0,0,1.2972,Basalt_01,2,01,3,1,1.297,2,01,-0.062978026,-0.25021151,1,0,0,0.7356,Basalt_rect,2,0.736,1,12,0,12,0,1,,,,,,,,,,,,
5c4353086ce36f0001205f65,SCR,2024-06-10_12h18.16.751,LearnStrategy,2023.2.3,Linux x86_64,59.88023952,6,1,14,-0.430891204,0.082357465,1,0,0,1.2774,Peridotite_02,7,02,4,2,1.277,7,02,-0.081991844,-0.40293502,1,0,0,2.8921,Pegmatite_rect,6,2.892,0,13,0,13,0,1,,,,,,,,,,,,
5c4353086ce36f0001205f65,SCR,2024-06-10_12h18.16.751,LearnStrategy,2023.2.3,Linux x86_64,59.88023952,6,1,15,-0.229686356,0.068465441,1,0,0,0.8455,Andesite_07,1,07,4,3,0.846,1,07,-0.440196144,-0.253891271,1,0,0,0.9567,Andesite_rect,1,0.957,1,14,0,14,0,1,,,,,,,,,,,,
5c4353086ce36f0001205f65,SCR,2024-06-10_12h18.16.751,LearnStrategy,2023.2.3,Linux x86_64,59.88023952,6,1,16,0.202415575,-0.115965181,1,0,0,0.7162,Gabbro_11,4,11,3,6,0.716,4,11,0.446905878,-0.268811694,1,0,0,2.053,Gabbro_rect,4,2.053,1,15,0,15,0,1,,,,,,,,,,,,
5c4353086ce36f0001205f65,SCR,2024-06-10_12h18.16.751,LearnStrategy,2023.2.3,Linux x86_64,59.88023952,6,2,1,,,,,,,,3,16,,,,,,,,,,,,,3,4.276,1,,,,,,0.145909513,-0.244501056,1,0,0,4.2756,Diorite_rect,0,0,0,0,1
5c4353086ce36f0001205f65,SCR,2024-06-10_12h18.16.751,LearnStrategy,2023.2.3,Linux x86_64,59.88023952,6,2,2,,,,,,,,4,12,,,,,,,,,,,,,2,1.305,0,,,,,,-0.122972352,-0.271248998,1,0,0,1.3046,Basalt_rect,1,0,1,0,1
5c4353086ce36f0001205f65,SCR,2024-06-10_12h18.16.751,LearnStrategy,2023.2.3,Linux x86_64,59.88023952,6,2,3,,,,,,,,3,09,,,,,,,,,,,,,4,3.502,0,,,,,,0.340268386,-0.257067585,1,0,0,3.5018,Gabbro_rect,2,0,2,0,1
5c4353086ce36f0001205f65,SCR,2024-06-10_12h18.16.751,LearnStrategy,2023.2.3,Linux x86_64,59.88023952,6,2,4,,,,,,,,1,06,,,,,,,,,,,,,1,1.573,1,,,,,,-0.470503766,-0.236620746,1,0,0,1.5729,Andesite_rect,3,0,3,0,1
5c4353086ce36f0001205f65,SCR,2024-06-10_12h18.16.751,LearnStrategy,2023.2.3,Linux x86_64,59.88023952,6,2,5,,,,,,,,7,08,,,,,,,,,,,,,7,1.209,1,,,,,,0.109610563,-0.384702166,1,0,0,1.2087,Peridotite_rect,4,0,4,0,1
5c4353086ce36f0001205f65,SCR,2024-06-10_12h18.16.751,LearnStrategy,2023.2.3,Linux x86_64,59.88023952,6,2,6,,,,,,,,4,10,,,,,,,,,,,,,3,3.024,0,,,,,,0.071433446,-0.229378384,1,0,0,3.0242,Diorite_rect,5,0,5,0,1
5c4353086ce36f0001205f65,SCR,2024-06-10_12h18.16.751,LearnStrategy,2023.2.3,Linux x86_64,59.88023952,6,2,7,,,,,,,,2,04,,,,,,,,,,,,,2,1.108,1,,,,,,-0.105965484,-0.253827439,1,0,0,1.1079,Basalt_rect,6,0,6,0,1
5c4353086ce36f0001205f65,SCR,2024-06-10_12h18.16.751,LearnStrategy,2023.2.3,Linux x86_64,59.88023952,6,2,8,,,,,,,,2,16,,,,,,,,,,,,,4,2.027,0,,,,,,0.477521784,-0.243016633,1,0,0,2.0274,Gabbro_rect,7,0,7,0,1
5c4353086ce36f0001205f65,SCR,2024-06-10_12h18.16.751,LearnStrategy,2023.2.3,Linux x86_64,59.88023952,6,2,9,,,,,,,,1,14,,,,,,,,,,,,,1,5.432,1,,,,,,-0.426454688,-0.262263964,1,0,0,5.4317,Andesite_rect,8,0,8,0,1
5c4353086ce36f0001205f65,SCR,2024-06-10_12h18.16.751,LearnStrategy,2023.2.3,Linux x86_64,59.88023952,6,2,10,,,,,,,,6,03,,,,,,,,,,,,,6,1.345,1,,,,,,-0.103941877,-0.399209514,1,0,0,1.3452,Pegmatite_rect,9,0,9,0,1
5c4353086ce36f0001205f65,SCR,2024-06-10_12h18.16.751,LearnStrategy,2023.2.3,Linux x86_64,59.88023952,6,2,11,,,,,,,,7,04,,,,,,,,,,,,,1,2.066,0,,,,,,-0.391266553,-0.228608669,1,0,0,2.0656,Andesite_rect,10,0,10,0,1
5c4353086ce36f0001205f65,SCR,2024-06-10_12h18.16.751,LearnStrategy,2023.2.3,Linux x86_64,59.88023952,6,2,12,,,,,,,,5,04,,,,,,,,,,,,,5,1.454,1,,,,,,-0.374501619,-0.390700331,1,0,0,1.4543,Obsidian_rect,11,0,11,0,1
5c4353086ce36f0001205f65,SCR,2024-06-10_12h18.16.751,LearnStrategy,2023.2.3,Linux x86_64,59.88023952,6,2,13,,,,,,,,5,06,,,,,,,,,,,,,5,0.668,1,,,,,,-0.374501619,-0.387827638,1,0,0,0.6679,Obsidian_rect,12,0,12,0,1
5c4353086ce36f0001205f65,SCR,2024-06-10_12h18.16.751,LearnStrategy,2023.2.3,Linux x86_64,59.88023952,6,2,14,,,,,,,,8,14,,,,,,,,,,,,,8,1.077,1,,,,,,0.453002184,-0.398467893,1,0,0,1.0773,Pumice_rect,13,0,13,0,1
5c4353086ce36f0001205f65,SCR,2024-06-10_12h18.16.751,LearnStrategy,2023.2.3,Linux x86_64,59.88023952,6,2,15,,,,,,,,6,05,,,,,,,,,,,,,3,2.051,0,,,,,,0.159686615,-0.261353223,1,0,0,2.0506,Diorite_rect,14,0,14,0,1
5c4353086ce36f0001205f65,SCR,2024-06-10_12h18.16.751,LearnStrategy,2023.2.3,Linux x86_64,59.88023952,6,2,16,,,,,,,,8,05,,,,,,,,,,,,,8,1.271,1,,,,,,0.39723681,-0.398254084,1,0,0,1.2705,Pumice_rect,15,0,15,0,1
5c4353086ce36f0001205f65,SCR,2024-06-10_12h18.16.751,LearnStrategy,2023.2.3,Linux x86_64,59.88023952,7,1,1,0.397757039,-0.108073683,1,0,0,1.1639,Diorite_02,3,02,3,7,1.164,3,02,0.179436398,-0.235610434,1,0,0,1.7536,Diorite_rect,3,1.754,1,0,0,0,0,1,,,,,,,,,,,,
5c4353086ce36f0001205f65,SCR,2024-06-10_12h18.16.751,LearnStrategy,2023.2.3,Linux x86_64,59.88023952,7,1,2,0.547333572,-0.06318071,1,0,0,0.8797,Basalt_06,2,06,3,8,0.88,2,06,0.427045212,-0.266448229,1,0,0,1.2963,Gabbro_rect,4,1.296,0,1,0,1,0,1,,,,,,,,,,,,
5c4353086ce36f0001205f65,SCR,2024-06-10_12h18.16.751,LearnStrategy,2023.2.3,Linux x86_64,59.88023952,7,1,3,-0.094636129,0.280531718,1,0,0,0.7124,Pegmatite_07,6,07,5,4,0.712,6,07,-0.142395765,-0.394759852,1,0,0,6.0901,Pegmatite_rect,6,6.09,1,2,0,2,0,1,,,,,,,,,,,,
5c4353086ce36f0001205f65,SCR,2024-06-10_12h18.16.751,LearnStrategy,2023.2.3,Linux x86_64,59.88023952,7,1,4,0.576213642,-0.398885319,1,0,0,1.0368,Andesite_05,1,05,1,8,1.037,1,05,-0.361033888,-0.235726972,1,0,0,2.1101,Andesite_rect,1,2.11,1,3,0,3,0,1,,,,,,,,,,,,
5c4353086ce36f0001205f65,SCR,2024-06-10_12h18.16.751,LearnStrategy,2023.2.3,Linux x86_64,59.88023952,7,1,5,0.078462247,0.44205988,1,0,0,0.875,Gabbro_08,4,08,6,5,0.875,4,08,0.425397885,-0.249627263,1,0,0,2.762,Gabbro_rect,4,2.762,1,4,0,4,0,1,,,,,,,,,,,,
5c4353086ce36f0001205f65,SCR,2024-06-10_12h18.16.751,LearnStrategy,2023.2.3,Linux x86_64,59.88023952,7,1,6,-0.380803281,-0.11469115,1,0,0,0.948,Gabbro_05,4,05,3,2,0.948,4,05,0.406104684,-0.253297328,1,0,0,1.3606,Gabbro_rect,4,1.361,1,5,0,5,0,1,,,,,,,,,,,,
5c4353086ce36f0001205f65,SCR,2024-06-10_12h18.16.751,LearnStrategy,2023.2.3,Linux x86_64,59.88023952,7,1,7,-0.269867503,0.421713672,1,0,0,1.2798,Pegmatite_15,6,15,6,3,1.28,6,15,-0.136612156,-0.38973912,1,0,0,0.7067,Pegmatite_rect,6,0.707,1,6,0,6,0,1,,,,,,,,,,,,
5c4353086ce36f0001205f65,SCR,2024-06-10_12h18.16.751,LearnStrategy,2023.2.3,Linux x86_64,59.88023952,7,1,8,0.396958237,-0.244905926,1,0,0,0.9344,Gabbro_14,4,14,2,7,0.934,4,14,0.122642439,-0.24546065,1,0,0,1.6529,Diorite_rect,3,1.653,0,7,0,7,0,1,,,,,,,,,,,,
5c4353086ce36f0001205f65,SCR,2024-06-10_12h18.16.751,LearnStrategy,2023.2.3,Linux x86_64,59.88023952,7,1,9,-0.277798841,-0.262453285,1,0,0,0.6832,Diorite_11,3,11,2,3,0.683,3,11,0.124334456,-0.242407711,1,0,0,1.1789,Diorite_rect,3,1.179,1,8,0,8,0,1,,,,,,,,,,,,
5c4353086ce36f0001205f65,SCR,2024-06-10_12h18.16.751,LearnStrategy,2023.2.3,Linux x86_64,59.88023952,7,1,10,-0.362511163,0.238874851,1,0,0,6.2429,Peridotite_07,7,07,5,2,6.243,3,11,0.09469387,-0.412174823,1,0,0,1.176,Peridotite_rect,7,1.176,1,9,0,9,0,1,,,,,,,,,,,,
5c4353086ce36f0001205f65,SCR,2024-06-10_12h18.16.751,LearnStrategy,2023.2.3,Linux x86_64,59.88023952,7,1,11,0.416874344,0.441541749,1,0,0,1.0298,Pumice_04,8,04,6,7,1.03,8,04,0.37397906,-0.410538248,1,0,0,0.92,Pumice_rect,8,0.92,1,10,0,10,0,1,,,,,,,,,,,,
5c4353086ce36f0001205f65,SCR,2024-06-10_12h18.16.751,LearnStrategy,2023.2.3,Linux x86_64,59.88023952,7,1,12,-0.436115987,0.115162152,1,0,0,0.8065,Peridotite_02,7,02,4,2,0.806,7,02,0.203971288,-0.410976558,1,0,0,1.346,Peridotite_rect,7,1.346,1,11,0,11,0,1,,,,,,,,,,,,
5c4353086ce36f0001205f65,SCR,2024-06-10_12h18.16.751,LearnStrategy,2023.2.3,Linux x86_64,59.88023952,7,1,13,-0.42510169,-0.267700755,1,0,0,1.181,Andesite_03,1,03,2,2,1.181,1,03,-0.329812976,-0.265441211,1,0,0,1.6522,Andesite_rect,1,1.652,1,12,0,12,0,1,,,,,,,,,,,,
5c4353086ce36f0001205f65,SCR,2024-06-10_12h18.16.751,LearnStrategy,2023.2.3,Linux x86_64,59.88023952,7,1,14,0.401916255,0.126208334,1,0,0,0.855,Peridotite_05,7,05,4,7,0.855,7,05,0.155976274,-0.392305021,1,0,0,1.3084,Peridotite_rect,7,1.308,1,13,0,13,0,1,,,,,,,,,,,,
5c4353086ce36f0001205f65,SCR,2024-06-10_12h18.16.751,LearnStrategy,2023.2.3,Linux x86_64,59.88023952,7,1,15,-0.097138819,-0.461828849,1,0,0,1.3606,Basalt_08,2,08,1,4,1.361,2,08,-0.040015755,-0.246810509,1,0,0,0.5998,Basalt_rect,2,0.6,1,14,0,14,0,1,,,,,,,,,,,,
5c4353086ce36f0001205f65,SCR,2024-06-10_12h18.16.751,LearnStrategy,2023.2.3,Linux x86_64,59.88023952,7,1,16,0.247795773,-0.220417652,1,0,0,0.9305,Peridotite_06,7,06,2,6,0.931,7,06,0.115443896,-0.401217583,1,0,0,1.3687,Peridotite_rect,7,1.369,1,15,0,15,0,1,,,,,,,,,,,,
5c4353086ce36f0001205f65,SCR,2024-06-10_12h18.16.751,LearnStrategy,2023.2.3,Linux x86_64,59.88023952,7,2,1,,,,,,,,8,09,,,,,,,,,,,,,8,3.812,1,,,,,,0.363581951,-0.385756545,1,0,0,3.8116,Pumice_rect,0,0,0,0,1
5c4353086ce36f0001205f65,SCR,2024-06-10_12h18.16.751,LearnStrategy,2023.2.3,Linux x86_64,59.88023952,7,2,2,,,,,,,,7,10,,,,,,,,,,,,,7,1.87,1,,,,,,0.185924895,-0.394505394,1,0,0,1.8701,Peridotite_rect,1,0,1,0,1
5c4353086ce36f0001205f65,SCR,2024-06-10_12h18.16.751,LearnStrategy,2023.2.3,Linux x86_64,59.88023952,7,2,3,,,,,,,,7,04,,,,,,,,,,,,,1,2.412,0,,,,,,-0.364417735,-0.266178729,1,0,0,2.4118,Andesite_rect,2,0,2,0,1
5c4353086ce36f0001205f65,SCR,2024-06-10_12h18.16.751,LearnStrategy,2023.2.3,Linux x86_64,59.88023952,7,2,4,,,,,,,,2,16,,,,,,,,,,,,,4,3.611,0,,,,,,0.325651398,-0.235802241,1,0,0,3.6115,Gabbro_rect,3,0,3,0,1
5c4353086ce36f0001205f65,SCR,2024-06-10_12h18.16.751,LearnStrategy,2023.2.3,Linux x86_64,59.88023952,7,2,5,,,,,,,,6,08,,,,,,,,,,,,,6,0.995,1,,,,,,-0.142795726,-0.402099672,1,0,0,0.9955,Pegmatite_rect,4,0,4,0,1
5c4353086ce36f0001205f65,SCR,2024-06-10_12h18.16.751,LearnStrategy,2023.2.3,Linux x86_64,59.88023952,7,2,6,,,,,,,,4,13,,,,,,,,,,,,,3,2.041,0,,,,,,0.186313606,-0.252997622,1,0,0,2.041,Diorite_rect,5,0,5,0,1
5c4353086ce36f0001205f65,SCR,2024-06-10_12h18.16.751,LearnStrategy,2023.2.3,Linux x86_64,59.88023952,7,2,7,,,,,,,,3,15,,,,,,,,,,,,,3,1.493,1,,,,,,0.113012186,-0.257973106,1,0,0,1.4926,Diorite_rect,6,0,6,0,1
5c4353086ce36f0001205f65,SCR,2024-06-10_12h18.16.751,LearnStrategy,2023.2.3,Linux x86_64,59.88023952,7,2,8,,,,,,,,1,02,,,,,,,,,,,,,4,5.954,0,,,,,,0.407522664,-0.244698332,1,0,0,5.9535,Gabbro_rect,7,0,7,0,1
5c4353086ce36f0001205f65,SCR,2024-06-10_12h18.16.751,LearnStrategy,2023.2.3,Linux x86_64,59.88023952,7,2,9,,,,,,,,4,12,,,,,,,,,,,,,3,4.163,0,,,,,,0.156763391,-0.261300578,1,0,0,4.1627,Diorite_rect,8,0,8,0,1
5c4353086ce36f0001205f65,SCR,2024-06-10_12h18.16.751,LearnStrategy,2023.2.3,Linux x86_64,59.88023952,7,2,10,,,,,,,,8,13,,,,,,,,,,,,,8,1.041,1,,,,,,0.364749574,-0.395167644,1,0,0,1.0408,Pumice_rect,9,0,9,0,1
5c4353086ce36f0001205f65,SCR,2024-06-10_12h18.16.751,LearnStrategy,2023.2.3,Linux x86_64,59.88023952,7,2,11,,,,,,,,6,03,,,,,,,,,,,,,6,1.166,1,,,,,,-0.204885261,-0.402915939,1,0,0,1.1657,Pegmatite_rect,10,0,10,0,1
5c4353086ce36f0001205f65,SCR,2024-06-10_12h18.16.751,LearnStrategy,2023.2.3,Linux x86_64,59.88023952,7,2,12,,,,,,,,1,10,,,,,,,,,,,,,3,2.21,0,,,,,,0.199212535,-0.262175892,1,0,0,2.2099,Diorite_rect,11,0,11,0,1
5c4353086ce36f0001205f65,SCR,2024-06-10_12h18.16.751,LearnStrategy,2023.2.3,Linux x86_64,59.88023952,7,2,13,,,,,,,,3,16,,,,,,,,,,,,,3,1.174,1,,,,,,0.199212535,-0.262175892,1,0,0,1.174,Diorite_rect,12,0,12,0,1
5c4353086ce36f0001205f65,SCR,2024-06-10_12h18.16.751,LearnStrategy,2023.2.3,Linux x86_64,59.88023952,7,2,14,,,,,,,,5,05,,,,,,,,,,,,,5,1.457,1,,,,,,-0.404755851,-0.398723532,1,0,0,1.4567,Obsidian_rect,13,0,13,0,1
5c4353086ce36f0001205f65,SCR,2024-06-10_12h18.16.751,LearnStrategy,2023.2.3,Linux x86_64,59.88023952,7,2,15,,,,,,,,2,12,,,,,,,,,,,,,3,3.93,0,,,,,,0.152734139,-0.242798722,1,0,0,3.9296,Diorite_rect,14,0,14,0,1
5c4353086ce36f0001205f65,SCR,2024-06-10_12h18.16.751,LearnStrategy,2023.2.3,Linux x86_64,59.88023952,7,2,16,,,,,,,,5,08,,,,,,,,,,,,,5,1.15,1,,,,,,-0.370580483,-0.417877259,1,0,0,1.1503,Obsidian_rect,15,0,15,0,1
5c4353086ce36f0001205f65,SCR,2024-06-10_12h18.16.751,LearnStrategy,2023.2.3,Linux x86_64,59.88023952,8,1,1,-0.122340185,-0.239482996,1,0,0,1.0741,Diorite_10,3,10,2,4,1.074,3,10,0.136155325,-0.24180805,1,0,0,3.2215,Diorite_rect,3,3.222,1,0,0,0,0,1,,,,,,,,,,,,
5c4353086ce36f0001205f65,SCR,2024-06-10_12h18.16.751,LearnStrategy,2023.2.3,Linux x86_64,59.88023952,8,1,2,0.072317275,0.397427001,1,0,0,0.9194,Gabbro_08,4,08,6,5,0.919,4,08,0.361013129,-0.252703758,1,0,0,1.5573,Gabbro_rect,4,1.557,1,1,0,1,0,1,,,,,,,,,,,,
5c4353086ce36f0001205f65,SCR,2024-06-10_12h18.16.751,LearnStrategy,2023.2.3,Linux x86_64,59.88023952,8,1,3,-0.417052974,-0.266679504,1,0,0,1.2647,Andesite_03,1,03,2,2,1.265,1,03,-0.41803771,-0.245912944,1,0,0,1.7675,Andesite_rect,1,1.767,1,2,0,2,0,1,,,,,,,,,,,,
5c4353086ce36f0001205f65,SCR,2024-06-10_12h18.16.751,LearnStrategy,2023.2.3,Linux x86_64,59.88023952,8,1,4,0.419115241,-0.431066882,1,0,0,1.3307,Basalt_09,2,09,1,7,1.331,2,09,0.348403465,-0.253428908,1,0,0,1.8117,Gabbro_rect,4,1.812,0,3,0,3,0,1,,,,,,,,,,,,
5c4353086ce36f0001205f65,SCR,2024-06-10_12h18.16.751,LearnStrategy,2023.2.3,Linux x86_64,59.88023952,8,1,5,-0.401156952,0.412689939,1,0,0,0.7539,Diorite_13,3,13,6,2,0.754,3,13,0.085666074,-0.24438719,1,0,0,1.5841,Diorite_rect,3,1.584,1,4,0,4,0,1,,,,,,,,,,,,
5c4353086ce36f0001205f65,SCR,2024-06-10_12h18.16.751,LearnStrategy,2023.2.3,Linux x86_64,59.88023952,8,1,6,0.54714624,0.426416082,1,0,0,0.9028,Gabbro_16,4,16,6,8,0.903,4,16,-0.11388433,-0.259585254,1,0,0,1.8083,Basalt_rect,2,1.808,0,5,0,5,0,1,,,,,,,,,,,,
5c4353086ce36f0001205f65,SCR,2024-06-10_12h18.16.751,LearnStrategy,2023.2.3,Linux x86_64,59.88023952,8,1,7,-0.220145729,0.112878772,1,0,0,1.0481,Andesite_07,1,07,4,3,1.048,1,07,-0.399264986,-0.24389636,1,0,0,0.8468,Andesite_rect,1,0.847,1,6,0,6,0,1,,,,,,,,,,,,
5c4353086ce36f0001205f65,SCR,2024-06-10_12h18.16.751,LearnStrategy,2023.2.3,Linux x86_64,59.88023952,8,1,8,0.576149748,-0.248678856,1,0,0,1.16,Basalt_14,2,14,2,8,1.16,2,14,-0.106224169,-0.248104243,1,0,0,1.5559,Basalt_rect,2,1.556,1,7,0,7,0,1,,,,,,,,,,,,
5c4353086ce36f0001205f65,SCR,2024-06-10_12h18.16.751,LearnStrategy,2023.2.3,Linux x86_64,59.88023952,8,1,9,-0.056429737,0.251656122,1,0,0,0.7806,Pegmatite_07,6,07,5,4,0.781,6,07,-0.151682681,-0.421919129,1,0,0,1.1641,Pegmatite_rect,6,1.164,1,8,0,8,0,1,,,,,,,,,,,,
5c4353086ce36f0001205f65,SCR,2024-06-10_12h18.16.751,LearnStrategy,2023.2.3,Linux x86_64,59.88023952,8,1,10,0.567768167,-0.245538653,1,0,0,0.8099,Basalt_14,2,14,2,8,0.81,2,14,0.422960953,-0.244887342,1,0,0,1.7344,Gabbro_rect,4,1.734,0,9,0,9,0,1,,,,,,,,,,,,
5c4353086ce36f0001205f65,SCR,2024-06-10_12h18.16.751,LearnStrategy,2023.2.3,Linux x86_64,59.88023952,8,1,11,-0.502429162,0.395062829,1,0,0,0.8644,Gabbro_03,4,03,6,1,0.864,4,03,0.127088621,-0.249375975,1,0,0,1.0483,Diorite_rect,3,1.048,0,10,0,10,0,1,,,,,,,,,,,,
5c4353086ce36f0001205f65,SCR,2024-06-10_12h18.16.751,LearnStrategy,2023.2.3,Linux x86_64,59.88023952,8,1,12,0.579288273,-0.42397947,1,0,0,0.9794,Andesite_05,1,05,1,8,0.979,1,05,-0.396648741,-0.263533583,1,0,0,1.5949,Andesite_rect,1,1.595,1,11,0,11,0,1,,,,,,,,,,,,
5c4353086ce36f0001205f65,SCR,2024-06-10_12h18.16.751,LearnStrategy,2023.2.3,Linux x86_64,59.88023952,8,1,13,-0.278855582,-0.261533904,1,0,0,1.5324,Diorite_11,3,11,2,3,1.532,3,11,0.465634224,-0.251120014,1,0,0,0.7695,Gabbro_rect,4,0.77,0,12,0,12,0,1,,,,,,,,,,,,
5c4353086ce36f0001205f65,SCR,2024-06-10_12h18.16.751,LearnStrategy,2023.2.3,Linux x86_64,59.88023952,8,1,14,0.196363399,-0.091395236,1,0,0,0.73,Gabbro_11,4,11,3,6,0.73,4,11,0.428417322,-0.230253511,1,0,0,0.6853,Gabbro_rect,4,0.685,1,13,0,13,0,1,,,,,,,,,,,,
5c4353086ce36f0001205f65,SCR,2024-06-10_12h18.16.751,LearnStrategy,2023.2.3,Linux x86_64,59.88023952,8,1,15,-0.355285147,0.267387219,1,0,0,1.5524,Peridotite_07,7,07,5,2,1.552,7,07,0.073313167,-0.39756548,1,0,0,1.0623,Peridotite_rect,7,1.062,1,14,0,14,0,1,,,,,,,,,,,,
5c4353086ce36f0001205f65,SCR,2024-06-10_12h18.16.751,LearnStrategy,2023.2.3,Linux x86_64,59.88023952,8,1,16,-0.410142172,0.077505481,1,0,0,0.9283,Peridotite_02,7,02,4,2,0.928,7,02,0.15266521,-0.399264272,1,0,0,1.4109,Peridotite_rect,7,1.411,1,15,0,15,0,1,,,,,,,,,,,,
5c4353086ce36f0001205f65,SCR,2024-06-10_12h18.16.751,LearnStrategy,2023.2.3,Linux x86_64,59.88023952,8,2,1,,,,,,,,5,10,,,,,,,,,,,,,5,1.313,1,,,,,,-0.369123999,-0.381269467,1,0,0,1.3126,Obsidian_rect,0,0,0,0,1
5c4353086ce36f0001205f65,SCR,2024-06-10_12h18.16.751,LearnStrategy,2023.2.3,Linux x86_64,59.88023952,8,2,2,,,,,,,,3,09,,,,,,,,,,,,,3,4.332,1,,,,,,0.113715022,-0.256198487,1,0,0,4.3323,Diorite_rect,1,0,1,0,1
5c4353086ce36f0001205f65,SCR,2024-06-10_12h18.16.751,LearnStrategy,2023.2.3,Linux x86_64,59.88023952,8,2,3,,,,,,,,1,06,,,,,,,,,,,,,4,3.031,0,,,,,,0.39356687,-0.25944317,1,0,0,3.0307,Gabbro_rect,2,0,2,0,1
5c4353086ce36f0001205f65,SCR,2024-06-10_12h18.16.751,LearnStrategy,2023.2.3,Linux x86_64,59.88023952,8,2,4,,,,,,,,8,02,,,,,,,,,,,,,8,0.851,1,,,,,,0.369037449,-0.401297451,1,0,0,0.8508,Pumice_rect,3,0,3,0,1
5c4353086ce36f0001205f65,SCR,2024-06-10_12h18.16.751,LearnStrategy,2023.2.3,Linux x86_64,59.88023952,8,2,5,,,,,,,,2,04,,,,,,,,,,,,,2,1.199,1,,,,,,-0.080547201,-0.23558147,1,0,0,1.1993,Basalt_rect,4,0,4,0,1
5c4353086ce36f0001205f65,SCR,2024-06-10_12h18.16.751,LearnStrategy,2023.2.3,Linux x86_64,59.88023952,8,2,6,,,,,,,,1,09,,,,,,,,,,,,,4,2.467,0,,,,,,0.448158653,-0.23814706,1,0,0,2.4671,Gabbro_rect,5,0,5,0,1
5c4353086ce36f0001205f65,SCR,2024-06-10_12h18.16.751,LearnStrategy,2023.2.3,Linux x86_64,59.88023952,8,2,7,,,,,,,,4,10,,,,,,,,,,,,,3,1.542,0,,,,,,0.134637588,-0.24913606,1,0,0,1.5417,Diorite_rect,6,0,6,0,1
5c4353086ce36f0001205f65,SCR,2024-06-10_12h18.16.751,LearnStrategy,2023.2.3,Linux x86_64,59.88023952,8,2,8,,,,,,,,6,05,,,,,,,,,,,,,5,3.716,0,,,,,,-0.373192315,-0.390470237,1,0,0,3.7156,Obsidian_rect,7,0,7,0,1
5c4353086ce36f0001205f65,SCR,2024-06-10_12h18.16.751,LearnStrategy,2023.2.3,Linux x86_64,59.88023952,8,2,9,,,,,,,,7,14,,,,,,,,,,,,,3,1.335,0,,,,,,0.165664828,-0.236042093,1,0,0,1.3352,Diorite_rect,8,0,8,0,1
5c4353086ce36f0001205f65,SCR,2024-06-10_12h18.16.751,LearnStrategy,2023.2.3,Linux x86_64,59.88023952,8,2,10,,,,,,,,6,16,,,,,,,,,,,,,6,1.891,1,,,,,,-0.053314706,-0.386215117,1,0,0,1.8906,Pegmatite_rect,9,0,9,0,1
5c4353086ce36f0001205f65,SCR,2024-06-10_12h18.16.751,LearnStrategy,2023.2.3,Linux x86_64,59.88023952,8,2,11,,,,,,,,4,15,,,,,,,,,,,,,4,2.56,1,,,,,,0.37883987,-0.241506231,1,0,0,2.5597,Gabbro_rect,10,0,10,0,1
5c4353086ce36f0001205f65,SCR,2024-06-10_12h18.16.751,LearnStrategy,2023.2.3,Linux x86_64,59.88023952,8,2,12,,,,,,,,2,11,,,,,,,,,,,,,3,3.221,0,,,,,,0.082324181,-0.25793774,1,0,0,3.2211,Diorite_rect,11,0,11,0,1
5c4353086ce36f0001205f65,SCR,2024-06-10_12h18.16.751,LearnStrategy,2023.2.3,Linux x86_64,59.88023952,8,2,13,,,,,,,,7,08,,,,,,,,,,,,,7,0.97,1,,,,,,0.093697977,-0.3843794,1,0,0,0.9697,Peridotite_rect,12,0,12,0,1
5c4353086ce36f0001205f65,SCR,2024-06-10_12h18.16.751,LearnStrategy,2023.2.3,Linux x86_64,59.88023952,8,2,14,,,,,,,,8,05,,,,,,,,,,,,,8,1.26,1,,,,,,0.43887037,-0.421703082,1,0,0,1.2595,Pumice_rect,13,0,13,0,1
5c4353086ce36f0001205f65,SCR,2024-06-10_12h18.16.751,LearnStrategy,2023.2.3,Linux x86_64,59.88023952,8,2,15,,,,,,,,3,12,,,,,,,,,,,,,3,1.383,1,,,,,,0.170821118,-0.229763862,1,0,0,1.3831,Diorite_rect,14,0,14,0,1
5c4353086ce36f0001205f65,SCR,2024-06-10_12h18.16.751,LearnStrategy,2023.2.3,Linux x86_64,59.88023952,8,2,16,,,,,,,,5,04,,,,,,,,,,,,,5,1.445,1,,,,,,-0.416410147,-0.413748996,1,0,0,1.4454,Obsidian_rect,15,0,15,0,1
5c4353086ce36f0001205f65,SCR,2024-06-10_12h18.16.751,LearnStrategy,2023.2.3,Linux x86_64,59.88023952,9,1,1,0.541000584,-0.273375222,1,0,0,1.1637,Basalt_14,2,14,2,8,1.164,2,14,0.427391783,-0.258031282,1,0,0,0.6755,Gabbro_rect,4,0.676,0,0,0,0,0,1,,,,,,,,,,,,
5c4353086ce36f0001205f65,SCR,2024-06-10_12h18.16.751,LearnStrategy,2023.2.3,Linux x86_64,59.88023952,9,1,2,0.363307479,-0.247297609,1,0,0,1.942,Gabbro_14,4,14,2,7,1.942,3,10,0.033868172,-0.238000749,1,0,0,1.2645,Diorite_rect,3,1.264,0,1,0,1,0,1,,,,,,,,,,,,
5c4353086ce36f0001205f65,SCR,2024-06-10_12h18.16.751,LearnStrategy,2023.2.3,Linux x86_64,59.88023952,9,1,3,-0.376466864,0.274524836,1,0,0,3.9238,Peridotite_07,7,07,5,2,3.924,6,09,0.120135772,-0.39127917,1,0,0,1.2583,Peridotite_rect,7,1.258,1,2,0,2,0,1,,,,,,,,,,,,
5c4353086ce36f0001205f65,SCR,2024-06-10_12h18.16.751,LearnStrategy,2023.2.3,Linux x86_64,59.88023952,9,1,4,-0.372913586,0.258717617,1,0,0,0.8398,Peridotite_07,7,07,5,2,0.84,7,07,0.064927297,-0.41773356,1,0,0,1.3953,Peridotite_rect,7,1.395,1,3,0,3,0,1,,,,,,,,,,,,
5c4353086ce36f0001205f65,SCR,2024-06-10_12h18.16.751,LearnStrategy,2023.2.3,Linux x86_64,59.88023952,9,1,5,0.252806125,0.433891794,1,0,0,0.8143,Basalt_10,2,10,6,6,0.814,2,10,-0.074140747,-0.259425767,1,0,0,1.1017,Basalt_rect,2,1.102,1,4,0,4,0,1,,,,,,,,,,,,
5c4353086ce36f0001205f65,SCR,2024-06-10_12h18.16.751,LearnStrategy,2023.2.3,Linux x86_64,59.88023952,9,1,6,0.05170436,-0.445690147,1,0,0,0.7985,Andesite_01,1,01,1,5,0.799,1,01,0.139814886,-0.256392469,1,0,0,1.125,Diorite_rect,3,1.125,0,5,0,5,0,1,,,,,,,,,,,,
5c4353086ce36f0001205f65,SCR,2024-06-10_12h18.16.751,LearnStrategy,2023.2.3,Linux x86_64,59.88023952,9,1,7,0.062159334,0.222052922,1,0,0,0.8446,Pegmatite_12,6,12,5,5,0.845,6,12,-0.166996787,-0.401619905,1,0,0,1.3063,Pegmatite_rect,6,1.306,1,6,0,6,0,1,,,,,,,,,,,,
5c4353086ce36f0001205f65,SCR,2024-06-10_12h18.16.751,LearnStrategy,2023.2.3,Linux x86_64,59.88023952,9,1,8,0.056114492,0.400288677,1,0,0,0.7973,Gabbro_08,4,08,6,5,0.797,4,08,0.104412071,-0.249185224,1,0,0,1.1434,Diorite_rect,3,1.143,0,7,0,7,0,1,,,,,,,,,,,,
5c4353086ce36f0001205f65,SCR,2024-06-10_12h18.16.751,LearnStrategy,2023.2.3,Linux x86_64,59.88023952,9,1,9,0.566631247,-0.10138791,1,0,0,1.0827,Basalt_06,2,06,3,8,1.083,2,06,0.464864385,-0.262994708,1,0,0,1.4869,Gabbro_rect,4,1.487,0,8,0,8,0,1,,,,,,,,,,,,
5c4353086ce36f0001205f65,SCR,2024-06-10_12h18.16.751,LearnStrategy,2023.2.3,Linux x86_64,59.88023952,9,1,10,-0.238977001,0.095582111,1,0,0,0.8792,Andesite_07,1,07,4,3,0.879,1,07,-0.418987142,-0.267075797,1,0,0,0.6649,Andesite_rect,1,0.665,1,9,0,9,0,1,,,,,,,,,,,,
5c4353086ce36f0001205f65,SCR,2024-06-10_12h18.16.751,LearnStrategy,2023.2.3,Linux x86_64,59.88023952,9,1,11,0.223875586,-0.135583384,1,0,0,0.7671,Gabbro_11,4,11,3,6,0.767,4,11,0.344926574,-0.264168174,1,0,0,1.4409,Gabbro_rect,4,1.441,1,10,0,10,0,1,,,,,,,,,,,,
5c4353086ce36f0001205f65,SCR,2024-06-10_12h18.16.751,LearnStrategy,2023.2.3,Linux x86_64,59.88023952,9,1,12,0.091244202,-0.133698939,1,0,0,1.0047,Obsidian_11,5,11,3,5,1.005,5,11,-0.3891972,-0.412358301,1,0,0,0.9562,Obsidian_rect,5,0.956,1,11,0,11,0,1,,,,,,,,,,,,
5c4353086ce36f0001205f65,SCR,2024-06-10_12h18.16.751,LearnStrategy,2023.2.3,Linux x86_64,59.88023952,9,1,13,0.110362439,-0.44693161,1,0,0,1.0284,Andesite_01,1,01,1,5,1.028,1,01,0.207426673,-0.234428079,1,0,0,1.6664,Diorite_rect,3,1.666,0,12,0,12,0,1,,,,,,,,,,,,
5c4353086ce36f0001205f65,SCR,2024-06-10_12h18.16.751,LearnStrategy,2023.2.3,Linux x86_64,59.88023952,9,1,14,0.39609293,-0.124600412,1,0,0,0.8543,Diorite_02,3,02,3,7,0.854,3,02,0.148987562,-0.24033637,1,0,0,1.1006,Diorite_rect,3,1.101,1,13,0,13,0,1,,,,,,,,,,,,
5c4353086ce36f0001205f65,SCR,2024-06-10_12h18.16.751,LearnStrategy,2023.2.3,Linux x86_64,59.88023952,9,1,15,-0.425273701,-0.082104592,1,0,0,0.8389,Gabbro_05,4,05,3,2,0.839,4,05,0.378322625,-0.250941508,1,0,0,2.271,Gabbro_rect,4,2.271,1,14,0,14,0,1,,,,,,,,,,,,
5c4353086ce36f0001205f65,SCR,2024-06-10_12h18.16.751,LearnStrategy,2023.2.3,Linux x86_64,59.88023952,9,1,16,-0.386884017,-0.432732483,1,0,0,1.1189,Peridotite_16,7,16,1,2,1.119,7,16,0.114570385,-0.390603619,1,0,0,1.1407,Peridotite_rect,7,1.141,1,15,0,15,0,1,,,,,,,,,,,,
5c4353086ce36f0001205f65,SCR,2024-06-10_12h18.16.751,LearnStrategy,2023.2.3,Linux x86_64,59.88023952,9,2,1,,,,,,,,4,01,,,,,,,,,,,,,7,2.701,0,,,,,,0.172363281,-0.41692935,1,0,0,2.7015,Peridotite_rect,0,0,0,0,1
5c4353086ce36f0001205f65,SCR,2024-06-10_12h18.16.751,LearnStrategy,2023.2.3,Linux x86_64,59.88023952,9,2,2,,,,,,,,1,16,,,,,,,,,,,,,1,2.339,1,,,,,,-0.390195361,-0.249369511,1,0,0,2.3386,Andesite_rect,1,0,1,0,1
5c4353086ce36f0001205f65,SCR,2024-06-10_12h18.16.751,LearnStrategy,2023.2.3,Linux x86_64,59.88023952,9,2,3,,,,,,,,8,14,,,,,,,,,,,,,8,1.265,1,,,,,,0.438481038,-0.419681029,1,0,0,1.2652,Pumice_rect,2,0,2,0,1
5c4353086ce36f0001205f65,SCR,2024-06-10_12h18.16.751,LearnStrategy,2023.2.3,Linux x86_64,59.88023952,9,2,4,,,,,,,,4,09,,,,,,,,,,,,,4,7.32,1,,,,,,0.409544282,-0.257621315,1,0,1,7.3204,Gabbro_rect,3,0,3,0,1
5c4353086ce36f0001205f65,SCR,2024-06-10_12h18.16.751,LearnStrategy,2023.2.3,Linux x86_64,59.88023952,9,2,5,,,,,,,,5,02,,,,,,,,,,,,,5,4.481,1,,,,,,-0.42168108,-0.383132779,1,0,1,4.4807,Obsidian_rect,4,0,4,0,1
5c4353086ce36f0001205f65,SCR,2024-06-10_12h18.16.751,LearnStrategy,2023.2.3,Linux x86_64,59.88023952,9,2,6,,,,,,,,6,06,,,,,,,,,,,,,7,6.479,0,,,,,,0.171210947,-0.41598057,1,0,1,6.4791,Peridotite_rect,5,0,5,0,1
5c4353086ce36f0001205f65,SCR,2024-06-10_12h18.16.751,LearnStrategy,2023.2.3,Linux x86_64,59.88023952,9,2,7,,,,,,,,2,02,,,,,,,,,,,,,2,1.321,1,,,,,,-0.143122904,-0.256408132,1,0,1,1.3209,Basalt_rect,6,0,6,0,1
5c4353086ce36f0001205f65,SCR,2024-06-10_12h18.16.751,LearnStrategy,2023.2.3,Linux x86_64,59.88023952,9,2,8,,,,,,,,3,14,,,,,,,,,,,,,3,1.032,1,,,,,,0.181256389,-0.261084656,1,0,1,1.032,Diorite_rect,7,0,7,0,1
5c4353086ce36f0001205f65,SCR,2024-06-10_12h18.16.751,LearnStrategy,2023.2.3,Linux x86_64,59.88023952,9,2,9,,,,,,,,2,05,,,,,,,,,,,,,4,1.886,0,,,,,,0.385559082,-0.252605803,1,0,1,1.8857,Gabbro_rect,8,0,8,0,1
5c4353086ce36f0001205f65,SCR,2024-06-10_12h18.16.751,LearnStrategy,2023.2.3,Linux x86_64,59.88023952,9,2,10,,,,,,,,5,06,,,,,,,,,,,,,5,1.104,1,,,,,,-0.331842924,-0.395698812,1,0,1,1.1042,Obsidian_rect,9,0,9,0,1
5c4353086ce36f0001205f65,SCR,2024-06-10_12h18.16.751,LearnStrategy,2023.2.3,Linux x86_64,59.88023952,9,2,11,,,,,,,,1,14,,,,,,,,,,,,,3,2.798,0,,,,,,0.17015259,-0.246611119,1,0,1,2.7979,Diorite_rect,10,0,10,0,1
5c4353086ce36f0001205f65,SCR,2024-06-10_12h18.16.751,LearnStrategy,2023.2.3,Linux x86_64,59.88023952,9,2,12,,,,,,,,7,13,,,,,,,,,,,,,7,1.114,1,,,,,,0.134301273,-0.40917341,1,0,1,1.1142,Peridotite_rect,11,0,11,0,1
5c4353086ce36f0001205f65,SCR,2024-06-10_12h18.16.751,LearnStrategy,2023.2.3,Linux x86_64,59.88023952,9,2,13,,,,,,,,8,15,,,,,,,,,,,,,8,1.023,1,,,,,,0.413664218,-0.393001207,1,0,1,1.023,Pumice_rect,12,0,12,0,1
5c4353086ce36f0001205f65,SCR,2024-06-10_12h18.16.751,LearnStrategy,2023.2.3,Linux x86_64,59.88023952,9,2,14,,,,,,,,3,08,,,,,,,,,,,,,3,1.569,1,,,,,,0.181152717,-0.250843615,1,0,1,1.5691,Diorite_rect,13,0,13,0,1
5c4353086ce36f0001205f65,SCR,2024-06-10_12h18.16.751,LearnStrategy,2023.2.3,Linux x86_64,59.88023952,9,2,15,,,,,,,,6,10,,,,,,,,,,,,,7,1,0,,,,,,0.120433365,-0.406034388,1,0,1,1.0005,Peridotite_rect,14,0,14,0,1
5c4353086ce36f0001205f65,SCR,2024-06-10_12h18.16.751,LearnStrategy,2023.2.3,Linux x86_64,59.88023952,9,2,16,,,,,,,,7,15,,,,,,,,,,,,,7,0.807,1,,,,,,0.118736189,-0.406034388,1,0,1,0.8072,Peridotite_rect,15,0,15,0,1
5c4353086ce36f0001205f65,SCR,2024-06-10_12h18.16.751,LearnStrategy,2023.2.3,Linux x86_64,59.88023952,,,,,,,,,,,,,,,,,,,,,,,,,,,,,,,,,,,,,,,,,,,,
5c4353086ce36f0001205f65,SCR,2024-06-10_12h18.16.751,LearnStrategy,2023.2.3,Linux x86_64,59.88023952,,,,,,,,,,,,,,,,,,,,,,,,,,,,,,,,,,,,,,,,,,,,
5c4353086ce36f0001205f65,SCR,2024-06-10_12h18.16.751,LearnStrategy,2023.2.3,Linux x86_64,59.88023952,,,,,,,,,,,5,07,1,1,,,,,,,,,,,,,,,,,,,,,,,,,,,,,,
5c4353086ce36f0001205f65,SCR,2024-06-10_12h18.16.751,LearnStrategy,2023.2.3,Linux x86_64,59.88023952,,,,,,,,,,,7,16,1,2,,,,,,,,,,,,,,,,,,,,,,,,,,,,,,
5c4353086ce36f0001205f65,SCR,2024-06-10_12h18.16.751,LearnStrategy,2023.2.3,Linux x86_64,59.88023952,,,,,,,,,,,8,16,1,3,,,,,,,,,,,,,,,,,,,,,,,,,,,,,,
5c4353086ce36f0001205f65,SCR,2024-06-10_12h18.16.751,LearnStrategy,2023.2.3,Linux x86_64,59.88023952,,,,,,,,,,,2,08,1,4,,,,,,,,,,,,,,,,,,,,,,,,,,,,,,
5c4353086ce36f0001205f65,SCR,2024-06-10_12h18.16.751,LearnStrategy,2023.2.3,Linux x86_64,59.88023952,,,,,,,,,,,1,01,1,5,,,,,,,,,,,,,,,,,,,,,,,,,,,,,,
5c4353086ce36f0001205f65,SCR,2024-06-10_12h18.16.751,LearnStrategy,2023.2.3,Linux x86_64,59.88023952,,,,,,,,,,,8,10,1,6,,,,,,,,,,,,,,,,,,,,,,,,,,,,,,
5c4353086ce36f0001205f65,SCR,2024-06-10_12h18.16.751,LearnStrategy,2023.2.3,Linux x86_64,59.88023952,,,,,,,,,,,2,09,1,7,,,,,,,,,,,,,,,,,,,,,,,,,,,,,,
5c4353086ce36f0001205f65,SCR,2024-06-10_12h18.16.751,LearnStrategy,2023.2.3,Linux x86_64,59.88023952,,,,,,,,,,,1,05,1,8,,,,,,,,,,,,,,,,,,,,,,,,,,,,,,
5c4353086ce36f0001205f65,SCR,2024-06-10_12h18.16.751,LearnStrategy,2023.2.3,Linux x86_64,59.88023952,,,,,,,,,,,6,11,2,1,,,,,,,,,,,,,,,,,,,,,,,,,,,,,,
5c4353086ce36f0001205f65,SCR,2024-06-10_12h18.16.751,LearnStrategy,2023.2.3,Linux x86_64,59.88023952,,,,,,,,,,,1,03,2,2,,,,,,,,,,,,,,,,,,,,,,,,,,,,,,
5c4353086ce36f0001205f65,SCR,2024-06-10_12h18.16.751,LearnStrategy,2023.2.3,Linux x86_64,59.88023952,,,,,,,,,,,3,11,2,3,,,,,,,,,,,,,,,,,,,,,,,,,,,,,,
5c4353086ce36f0001205f65,SCR,2024-06-10_12h18.16.751,LearnStrategy,2023.2.3,Linux x86_64,59.88023952,,,,,,,,,,,3,10,2,4,,,,,,,,,,,,,,,,,,,,,,,,,,,,,,
5c4353086ce36f0001205f65,SCR,2024-06-10_12h18.16.751,LearnStrategy,2023.2.3,Linux x86_64,59.88023952,,,,,,,,,,,8,03,2,5,,,,,,,,,,,,,,,,,,,,,,,,,,,,,,
5c4353086ce36f0001205f65,SCR,2024-06-10_12h18.16.751,LearnStrategy,2023.2.3,Linux x86_64,59.88023952,,,,,,,,,,,7,06,2,6,,,,,,,,,,,,,,,,,,,,,,,,,,,,,,
5c4353086ce36f0001205f65,SCR,2024-06-10_12h18.16.751,LearnStrategy,2023.2.3,Linux x86_64,59.88023952,,,,,,,,,,,4,14,2,7,,,,,,,,,,,,,,,,,,,,,,,,,,,,,,
5c4353086ce36f0001205f65,SCR,2024-06-10_12h18.16.751,LearnStrategy,2023.2.3,Linux x86_64,59.88023952,,,,,,,,,,,2,14,2,8,,,,,,,,,,,,,,,,,,,,,,,,,,,,,,
5c4353086ce36f0001205f65,SCR,2024-06-10_12h18.16.751,LearnStrategy,2023.2.3,Linux x86_64,59.88023952,,,,,,,,,,,2,01,3,1,,,,,,,,,,,,,,,,,,,,,,,,,,,,,,
5c4353086ce36f0001205f65,SCR,2024-06-10_12h18.16.751,LearnStrategy,2023.2.3,Linux x86_64,59.88023952,,,,,,,,,,,4,05,3,2,,,,,,,,,,,,,,,,,,,,,,,,,,,,,,
5c4353086ce36f0001205f65,SCR,2024-06-10_12h18.16.751,LearnStrategy,2023.2.3,Linux x86_64,59.88023952,,,,,,,,,,,8,08,3,3,,,,,,,,,,,,,,,,,,,,,,,,,,,,,,
5c4353086ce36f0001205f65,SCR,2024-06-10_12h18.16.751,LearnStrategy,2023.2.3,Linux x86_64,59.88023952,,,,,,,,,,,5,09,3,4,,,,,,,,,,,,,,,,,,,,,,,,,,,,,,
5c4353086ce36f0001205f65,SCR,2024-06-10_12h18.16.751,LearnStrategy,2023.2.3,Linux x86_64,59.88023952,,,,,,,,,,,5,11,3,5,,,,,,,,,,,,,,,,,,,,,,,,,,,,,,
5c4353086ce36f0001205f65,SCR,2024-06-10_12h18.16.751,LearnStrategy,2023.2.3,Linux x86_64,59.88023952,,,,,,,,,,,4,11,3,6,,,,,,,,,,,,,,,,,,,,,,,,,,,,,,
5c4353086ce36f0001205f65,SCR,2024-06-10_12h18.16.751,LearnStrategy,2023.2.3,Linux x86_64,59.88023952,,,,,,,,,,,3,02,3,7,,,,,,,,,,,,,,,,,,,,,,,,,,,,,,
5c4353086ce36f0001205f65,SCR,2024-06-10_12h18.16.751,LearnStrategy,2023.2.3,Linux x86_64,59.88023952,,,,,,,,,,,2,06,3,8,,,,,,,,,,,,,,,,,,,,,,,,,,,,,,
5c4353086ce36f0001205f65,SCR,2024-06-10_12h18.16.751,LearnStrategy,2023.2.3,Linux x86_64,59.88023952,,,,,,,,,,,3,06,4,1,,,,,,,,,,,,,,,,,,,,,,,,,,,,,,
5c4353086ce36f0001205f65,SCR,2024-06-10_12h18.16.751,LearnStrategy,2023.2.3,Linux x86_64,59.88023952,,,,,,,,,,,7,02,4,2,,,,,,,,,,,,,,,,,,,,,,,,,,,,,,
5c4353086ce36f0001205f65,SCR,2024-06-10_12h18.16.751,LearnStrategy,2023.2.3,Linux x86_64,59.88023952,,,,,,,,,,,1,07,4,3,,,,,,,,,,,,,,,,,,,,,,,,,,,,,,
5c4353086ce36f0001205f65,SCR,2024-06-10_12h18.16.751,LearnStrategy,2023.2.3,Linux x86_64,59.88023952,,,,,,,,,,,8,06,4,4,,,,,,,,,,,,,,,,,,,,,,,,,,,,,,
5c4353086ce36f0001205f65,SCR,2024-06-10_12h18.16.751,LearnStrategy,2023.2.3,Linux x86_64,59.88023952,,,,,,,,,,,5,14,4,5,,,,,,,,,,,,,,,,,,,,,,,,,,,,,,
5c4353086ce36f0001205f65,SCR,2024-06-10_12h18.16.751,LearnStrategy,2023.2.3,Linux x86_64,59.88023952,,,,,,,,,,,1,11,4,6,,,,,,,,,,,,,,,,,,,,,,,,,,,,,,
5c4353086ce36f0001205f65,SCR,2024-06-10_12h18.16.751,LearnStrategy,2023.2.3,Linux x86_64,59.88023952,,,,,,,,,,,7,05,4,7,,,,,,,,,,,,,,,,,,,,,,,,,,,,,,
5c4353086ce36f0001205f65,SCR,2024-06-10_12h18.16.751,LearnStrategy,2023.2.3,Linux x86_64,59.88023952,,,,,,,,,,,1,04,4,8,,,,,,,,,,,,,,,,,,,,,,,,,,,,,,
5c4353086ce36f0001205f65,SCR,2024-06-10_12h18.16.751,LearnStrategy,2023.2.3,Linux x86_64,59.88023952,,,,,,,,,,,7,12,5,1,,,,,,,,,,,,,,,,,,,,,,,,,,,,,,
5c4353086ce36f0001205f65,SCR,2024-06-10_12h18.16.751,LearnStrategy,2023.2.3,Linux x86_64,59.88023952,,,,,,,,,,,7,07,5,2,,,,,,,,,,,,,,,,,,,,,,,,,,,,,,
5c4353086ce36f0001205f65,SCR,2024-06-10_12h18.16.751,LearnStrategy,2023.2.3,Linux x86_64,59.88023952,,,,,,,,,,,5,16,5,3,,,,,,,,,,,,,,,,,,,,,,,,,,,,,,
5c4353086ce36f0001205f65,SCR,2024-06-10_12h18.16.751,LearnStrategy,2023.2.3,Linux x86_64,59.88023952,,,,,,,,,,,6,07,5,4,,,,,,,,,,,,,,,,,,,,,,,,,,,,,,
5c4353086ce36f0001205f65,SCR,2024-06-10_12h18.16.751,LearnStrategy,2023.2.3,Linux x86_64,59.88023952,,,,,,,,,,,6,12,5,5,,,,,,,,,,,,,,,,,,,,,,,,,,,,,,
5c4353086ce36f0001205f65,SCR,2024-06-10_12h18.16.751,LearnStrategy,2023.2.3,Linux x86_64,59.88023952,,,,,,,,,,,3,07,5,6,,,,,,,,,,,,,,,,,,,,,,,,,,,,,,
5c4353086ce36f0001205f65,SCR,2024-06-10_12h18.16.751,LearnStrategy,2023.2.3,Linux x86_64,59.88023952,,,,,,,,,,,6,09,5,7,,,,,,,,,,,,,,,,,,,,,,,,,,,,,,
5c4353086ce36f0001205f65,SCR,2024-06-10_12h18.16.751,LearnStrategy,2023.2.3,Linux x86_64,59.88023952,,,,,,,,,,,5,12,5,8,,,,,,,,,,,,,,,,,,,,,,,,,,,,,,
5c4353086ce36f0001205f65,SCR,2024-06-10_12h18.16.751,LearnStrategy,2023.2.3,Linux x86_64,59.88023952,,,,,,,,,,,4,03,6,1,,,,,,,,,,,,,,,,,,,,,,,,,,,,,,
5c4353086ce36f0001205f65,SCR,2024-06-10_12h18.16.751,LearnStrategy,2023.2.3,Linux x86_64,59.88023952,,,,,,,,,,,3,13,6,2,,,,,,,,,,,,,,,,,,,,,,,,,,,,,,
5c4353086ce36f0001205f65,SCR,2024-06-10_12h18.16.751,LearnStrategy,2023.2.3,Linux x86_64,59.88023952,,,,,,,,,,,6,15,6,3,,,,,,,,,,,,,,,,,,,,,,,,,,,,,,
5c4353086ce36f0001205f65,SCR,2024-06-10_12h18.16.751,LearnStrategy,2023.2.3,Linux x86_64,59.88023952,,,,,,,,,,,6,13,6,4,,,,,,,,,,,,,,,,,,,,,,,,,,,,,,
5c4353086ce36f0001205f65,SCR,2024-06-10_12h18.16.751,LearnStrategy,2023.2.3,Linux x86_64,59.88023952,,,,,,,,,,,4,08,6,5,,,,,,,,,,,,,,,,,,,,,,,,,,,,,,
5c4353086ce36f0001205f65,SCR,2024-06-10_12h18.16.751,LearnStrategy,2023.2.3,Linux x86_64,59.88023952,,,,,,,,,,,2,10,6,6,,,,,,,,,,,,,,,,,,,,,,,,,,,,,,
5c4353086ce36f0001205f65,SCR,2024-06-10_12h18.16.751,LearnStrategy,2023.2.3,Linux x86_64,59.88023952,,,,,,,,,,,8,04,6,7,,,,,,,,,,,,,,,,,,,,,,,,,,,,,,
5c4353086ce36f0001205f65,SCR,2024-06-10_12h18.16.751,LearnStrategy,2023.2.3,Linux x86_64,59.88023952,,,,,,,,,,,4,16,6,8,,,,,,,,,,,,,,,,,,,,,,,,,,,,,,