participant,condition,date,expName,psychopyVersion,OS,frameRate,block,phase,trial,learn_mouse_2.x,learn_mouse_2.y,learn_mouse_2.leftButton,learn_mouse_2.midButton,learn_mouse_2.rightButton,learn_mouse_2.time,learn_mouse_2.clicked_name,cat,token,row,col,t_select,cat_mouse_l.x,cat_mouse_l.y,cat_mouse_l.leftButton,cat_mouse_l.midButton,cat_mouse_l.rightButton,cat_mouse_l.time,cat_mouse_l.clicked_name,resp,t_resp,corr,train_trials.thisRepN,train_trials.thisTrialN,train_trials.thisN,train_trials.thisIndex,train_trials.ran,cat_mouse_t.x,cat_mouse_t.y,cat_mouse_t.leftButton,cat_mouse_t.midButton,cat_mouse_t.rightButton,cat_mouse_t.time,cat_mouse_t.clicked_name,test_trials.thisRepN,test_trials.thisTrialN,test_trials.thisN,test_trials.thisIndex,test_trials.ran,Bonus
5c525373e8fee700012f4c90,TCR,2024-06-25_12h40.48.685,LearnStrategy,2023.2.3,Win32,59.95203837,,,,,,,,,,,,,,,,,,,,,,,,,,,,,,,,,,,,,,,,,,,
5c525373e8fee700012f4c90,TCR,2024-06-25_12h40.48.685,LearnStrategy,2023.2.3,Win32,59.95203837,1,1,1,-0.085858586,0.002020202,1,0,0,3.638,rock_grid_rect_2,2,12,-1,-1,3.638,0.33030303,-0.417171717,1,0,0,4.346,Pumice_rect,8,4.346,0,0,0,0,0,1,,,,,,,,,,,,,
5c525373e8fee700012f4c90,TCR,2024-06-25_12h40.48.685,LearnStrategy,2023.2.3,Win32,59.95203837,1,1,2,-0.072727273,-0.004040404,1,0,0,3.546,rock_grid_rect_2,5,16,-1,-1,3.546,-0.387878788,-0.392929293,1,0,0,4.155,Obsidian_rect,5,4.155,1,1,0,1,0,1,,,,,,,,,,,,,
5c525373e8fee700012f4c90,TCR,2024-06-25_12h40.48.685,LearnStrategy,2023.2.3,Win32,59.95203837,1,1,3,-0.005050505,-0.009090909,1,0,0,2.531,rock_grid_rect_2,3,16,-1,-1,2.531,-0.312121212,-0.263636364,1,0,0,1.693,Andesite_rect,1,1.693,0,2,0,2,0,1,,,,,,,,,,,,,
5c525373e8fee700012f4c90,TCR,2024-06-25_12h40.48.685,LearnStrategy,2023.2.3,Win32,59.95203837,1,1,4,-0.077777778,-0.008080808,1,0,0,0.927,rock_grid_rect_2,8,04,-1,-1,0.927,0.337373737,-0.4,1,0,0,2.231,Pumice_rect,8,2.231,1,3,0,3,0,1,,,,,,,,,,,,,
5c525373e8fee700012f4c90,TCR,2024-06-25_12h40.48.685,LearnStrategy,2023.2.3,Win32,59.95203837,1,1,5,0.023232323,-0.018181818,1,0,0,0.947,rock_grid_rect_2,5,10,-1,-1,0.947,-0.346464646,-0.392929293,1,0,0,1.441,Obsidian_rect,5,1.441,1,4,0,4,0,1,,,,,,,,,,,,,
5c525373e8fee700012f4c90,TCR,2024-06-25_12h40.48.685,LearnStrategy,2023.2.3,Win32,59.95203837,1,1,6,0.011111111,-0.009090909,1,0,0,1.247,rock_grid_rect_2,4,03,-1,-1,1.247,-0.097979798,-0.250505051,1,0,0,3.146,Basalt_rect,2,3.146,0,5,0,5,0,1,,,,,,,,,,,,,
5c525373e8fee700012f4c90,TCR,2024-06-25_12h40.48.685,LearnStrategy,2023.2.3,Win32,59.95203837,1,1,7,-0.028282828,-0.008080808,1,0,0,1.864,rock_grid_rect_2,3,09,-1,-1,1.864,-0.43030303,-0.246464646,1,0,0,1.824,Andesite_rect,1,1.824,0,6,0,6,0,1,,,,,,,,,,,,,
5c525373e8fee700012f4c90,TCR,2024-06-25_12h40.48.685,LearnStrategy,2023.2.3,Win32,59.95203837,1,1,8,-0.082828283,-0.006060606,1,0,0,0.899,rock_grid_rect_2,7,02,-1,-1,0.899,0.126262626,-0.405050505,1,0,0,3.127,Peridotite_rect,7,3.127,1,7,0,7,0,1,,,,,,,,,,,,,
5c525373e8fee700012f4c90,TCR,2024-06-25_12h40.48.685,LearnStrategy,2023.2.3,Win32,59.95203837,1,1,9,0.033333333,-0.001010101,1,0,0,0.816,rock_grid_rect_2,6,11,-1,-1,0.816,-0.107070707,-0.414141414,1,0,0,2.971,Pegmatite_rect,6,2.971,1,8,0,8,0,1,,,,,,,,,,,,,
5c525373e8fee700012f4c90,TCR,2024-06-25_12h40.48.685,LearnStrategy,2023.2.3,Win32,59.95203837,1,1,10,0.025252525,-0.017171717,1,0,0,0.8,rock_grid_rect_2,6,06,-1,-1,0.8,-0.125252525,-0.250505051,1,0,0,2.413,Basalt_rect,2,2.413,0,9,0,9,0,1,,,,,,,,,,,,,
5c525373e8fee700012f4c90,TCR,2024-06-25_12h40.48.685,LearnStrategy,2023.2.3,Win32,59.95203837,1,1,11,-0.082828283,-0.006060606,1,0,0,0.994,rock_grid_rect_2,1,11,-1,-1,0.994,0.364646465,-0.249494949,1,0,0,3.628,Gabbro_rect,4,3.628,0,10,0,10,0,1,,,,,,,,,,,,,
5c525373e8fee700012f4c90,TCR,2024-06-25_12h40.48.685,LearnStrategy,2023.2.3,Win32,59.95203837,1,1,12,-0.062626263,-0.016161616,1,0,0,0.662,rock_grid_rect_2,7,06,-1,-1,0.662,0.122222222,-0.417171717,1,0,0,2.784,Peridotite_rect,7,2.784,1,11,0,11,0,1,,,,,,,,,,,,,
5c525373e8fee700012f4c90,TCR,2024-06-25_12h40.48.685,LearnStrategy,2023.2.3,Win32,59.95203837,1,1,13,-0.011111111,0.003030303,1,0,0,0.663,rock_grid_rect_2,1,05,-1,-1,0.663,-0.349494949,-0.252525253,1,0,0,2.032,Andesite_rect,1,2.032,1,12,0,12,0,1,,,,,,,,,,,,,
5c525373e8fee700012f4c90,TCR,2024-06-25_12h40.48.685,LearnStrategy,2023.2.3,Win32,59.95203837,1,1,14,-0.047474747,-0.002020202,1,0,0,0.748,rock_grid_rect_2,8,06,-1,-1,0.748,-0.087878788,-0.265656566,1,0,0,2.4,Basalt_rect,2,2.4,0,13,0,13,0,1,,,,,,,,,,,,,
5c525373e8fee700012f4c90,TCR,2024-06-25_12h40.48.685,LearnStrategy,2023.2.3,Win32,59.95203837,1,1,15,0.037373737,0.022222222,1,0,0,0.733,rock_grid_rect_2,2,08,-1,-1,0.733,-0.307070707,-0.386868687,1,0,0,1.189,Obsidian_rect,5,1.189,0,14,0,14,0,1,,,,,,,,,,,,,
5c525373e8fee700012f4c90,TCR,2024-06-25_12h40.48.685,LearnStrategy,2023.2.3,Win32,59.95203837,1,1,16,0.071717172,0.007070707,1,0,0,0.666,rock_grid_rect_2,4,01,-1,-1,0.666,-0.356565657,-0.255555556,1,0,0,1.555,Andesite_rect,1,1.555,0,15,0,15,0,1,,,,,,,,,,,,,
5c525373e8fee700012f4c90,TCR,2024-06-25_12h40.48.685,LearnStrategy,2023.2.3,Win32,59.95203837,1,2,1,,,,,,,,6,10,,,,,,,,,,,7,2.721,0,,,,,,0.109090909,-0.411111111,1,0,0,2.721,Peridotite_rect,0,0,0,0,1,
5c525373e8fee700012f4c90,TCR,2024-06-25_12h40.48.685,LearnStrategy,2023.2.3,Win32,59.95203837,1,2,2,,,,,,,,1,04,,,,,,,,,,,6,8.25,0,,,,,,-0.060606061,-0.386868687,1,0,0,8.25,Pegmatite_rect,1,0,1,0,1,
5c525373e8fee700012f4c90,TCR,2024-06-25_12h40.48.685,LearnStrategy,2023.2.3,Win32,59.95203837,1,2,3,,,,,,,,3,07,,,,,,,,,,,4,1.849,0,,,,,,0.339393939,-0.254545455,1,0,0,1.849,Gabbro_rect,2,0,2,0,1,
5c525373e8fee700012f4c90,TCR,2024-06-25_12h40.48.685,LearnStrategy,2023.2.3,Win32,59.95203837,1,2,4,,,,,,,,3,06,,,,,,,,,,,4,3.687,0,,,,,,0.390909091,-0.265656566,1,0,0,3.687,Gabbro_rect,3,0,3,0,1,
5c525373e8fee700012f4c90,TCR,2024-06-25_12h40.48.685,LearnStrategy,2023.2.3,Win32,59.95203837,1,2,5,,,,,,,,4,13,,,,,,,,,,,6,3.903,0,,,,,,-0.2,-0.384848485,1,0,0,3.903,Pegmatite_rect,4,0,4,0,1,
5c525373e8fee700012f4c90,TCR,2024-06-25_12h40.48.685,LearnStrategy,2023.2.3,Win32,59.95203837,1,2,6,,,,,,,,6,16,,,,,,,,,,,2,3.338,0,,,,,,-0.105050505,-0.270707071,1,0,0,3.338,Basalt_rect,5,0,5,0,1,
5c525373e8fee700012f4c90,TCR,2024-06-25_12h40.48.685,LearnStrategy,2023.2.3,Win32,59.95203837,1,2,7,,,,,,,,7,15,,,,,,,,,,,7,1.464,1,,,,,,0.207070707,-0.385858586,1,0,0,1.464,Peridotite_rect,6,0,6,0,1,
5c525373e8fee700012f4c90,TCR,2024-06-25_12h40.48.685,LearnStrategy,2023.2.3,Win32,59.95203837,1,2,8,,,,,,,,2,11,,,,,,,,,,,8,3.043,0,,,,,,0.405050505,-0.413131313,1,0,0,3.043,Pumice_rect,7,0,7,0,1,
5c525373e8fee700012f4c90,TCR,2024-06-25_12h40.48.685,LearnStrategy,2023.2.3,Win32,59.95203837,1,2,9,,,,,,,,5,11,,,,,,,,,,,5,1.139,1,,,,,,-0.326262626,-0.390909091,1,0,0,1.139,Obsidian_rect,8,0,8,0,1,
5c525373e8fee700012f4c90,TCR,2024-06-25_12h40.48.685,LearnStrategy,2023.2.3,Win32,59.95203837,1,2,10,,,,,,,,4,11,,,,,,,,,,,2,5.761,0,,,,,,-0.080808081,-0.268686869,1,0,0,5.761,Basalt_rect,9,0,9,0,1,
5c525373e8fee700012f4c90,TCR,2024-06-25_12h40.48.685,LearnStrategy,2023.2.3,Win32,59.95203837,1,2,11,,,,,,,,8,16,,,,,,,,,,,8,2.099,1,,,,,,0.327272727,-0.414141414,1,0,0,2.099,Pumice_rect,10,0,10,0,1,
5c525373e8fee700012f4c90,TCR,2024-06-25_12h40.48.685,LearnStrategy,2023.2.3,Win32,59.95203837,1,2,12,,,,,,,,7,05,,,,,,,,,,,7,1.594,1,,,,,,0.092929293,-0.391919192,1,0,0,1.594,Peridotite_rect,11,0,11,0,1,
5c525373e8fee700012f4c90,TCR,2024-06-25_12h40.48.685,LearnStrategy,2023.2.3,Win32,59.95203837,1,2,13,,,,,,,,2,02,,,,,,,,,,,2,2.363,1,,,,,,-0.071717172,-0.261616162,1,0,0,2.363,Basalt_rect,12,0,12,0,1,
5c525373e8fee700012f4c90,TCR,2024-06-25_12h40.48.685,LearnStrategy,2023.2.3,Win32,59.95203837,1,2,14,,,,,,,,1,07,,,,,,,,,,,1,2.65,1,,,,,,-0.5,-0.234343434,1,0,0,2.65,Andesite_rect,13,0,13,0,1,
5c525373e8fee700012f4c90,TCR,2024-06-25_12h40.48.685,LearnStrategy,2023.2.3,Win32,59.95203837,1,2,15,,,,,,,,5,09,,,,,,,,,,,5,2.517,1,,,,,,-0.386868687,-0.415151515,1,0,0,2.517,Obsidian_rect,14,0,14,0,1,
5c525373e8fee700012f4c90,TCR,2024-06-25_12h40.48.685,LearnStrategy,2023.2.3,Win32,59.95203837,1,2,16,,,,,,,,8,13,,,,,,,,,,,8,1.665,1,,,,,,0.364646465,-0.38989899,1,0,0,1.665,Pumice_rect,15,0,15,0,1,
5c525373e8fee700012f4c90,TCR,2024-06-25_12h40.48.685,LearnStrategy,2023.2.3,Win32,59.95203837,2,1,1,-0.021212121,0.001010101,1,0,0,1.245,rock_grid_rect_2,1,11,-1,-1,1.245,0.148484848,-0.257575758,1,0,0,3.549,Diorite_rect,3,3.549,0,0,0,0,0,1,,,,,,,,,,,,,
5c525373e8fee700012f4c90,TCR,2024-06-25_12h40.48.685,LearnStrategy,2023.2.3,Win32,59.95203837,2,1,2,-0.017171717,-0.006060606,1,0,0,0.984,rock_grid_rect_2,1,03,-1,-1,0.984,-0.138383838,-0.257575758,1,0,0,2.221,Basalt_rect,2,2.221,0,1,0,1,0,1,,,,,,,,,,,,,
5c525373e8fee700012f4c90,TCR,2024-06-25_12h40.48.685,LearnStrategy,2023.2.3,Win32,59.95203837,2,1,3,-0.052525253,-0.017171717,1,0,0,0.915,rock_grid_rect_2,3,14,-1,-1,0.915,0.092929293,-0.255555556,1,0,0,1.974,Diorite_rect,3,1.974,1,2,0,2,0,1,,,,,,,,,,,,,
5c525373e8fee700012f4c90,TCR,2024-06-25_12h40.48.685,LearnStrategy,2023.2.3,Win32,59.95203837,2,1,4,0.038383838,-0.017171717,1,0,0,0.831,rock_grid_rect_2,7,08,-1,-1,0.831,0.128282828,-0.390909091,1,0,0,1.007,Peridotite_rect,7,1.007,1,3,0,3,0,1,,,,,,,,,,,,,
5c525373e8fee700012f4c90,TCR,2024-06-25_12h40.48.685,LearnStrategy,2023.2.3,Win32,59.95203837,2,1,5,0.031313131,-0.007070707,1,0,0,0.732,rock_grid_rect_2,6,06,-1,-1,0.732,-0.342424242,-0.255555556,1,0,0,1.871,Andesite_rect,1,1.871,0,4,0,4,0,1,,,,,,,,,,,,,
5c525373e8fee700012f4c90,TCR,2024-06-25_12h40.48.685,LearnStrategy,2023.2.3,Win32,59.95203837,2,1,6,-0.106060606,-0.002020202,1,0,0,0.781,rock_grid_rect_2,2,05,-1,-1,0.781,-0.143434343,-0.261616162,1,0,0,1.123,Basalt_rect,2,1.123,1,5,0,5,0,1,,,,,,,,,,,,,
5c525373e8fee700012f4c90,TCR,2024-06-25_12h40.48.685,LearnStrategy,2023.2.3,Win32,59.95203837,2,1,7,0.006060606,-0.009090909,1,0,0,0.748,rock_grid_rect_2,4,16,-1,-1,0.748,-0.083838384,-0.271717172,1,0,0,3.034,Basalt_rect,2,3.034,0,6,0,6,0,1,,,,,,,,,,,,,
5c525373e8fee700012f4c90,TCR,2024-06-25_12h40.48.685,LearnStrategy,2023.2.3,Win32,59.95203837,2,1,8,-0.014141414,-0.011111111,1,0,0,0.715,rock_grid_rect_2,3,09,-1,-1,0.715,-0.154545455,-0.385858586,1,0,0,2.642,Pegmatite_rect,6,2.642,0,7,0,7,0,1,,,,,,,,,,,,,
5c525373e8fee700012f4c90,TCR,2024-06-25_12h40.48.685,LearnStrategy,2023.2.3,Win32,59.95203837,2,1,9,-0.05959596,-0.006060606,1,0,0,0.727,rock_grid_rect_2,4,16,-1,-1,0.727,-0.490909091,-0.246464646,1,0,0,2.605,Andesite_rect,1,2.605,0,8,0,8,0,1,,,,,,,,,,,,,
5c525373e8fee700012f4c90,TCR,2024-06-25_12h40.48.685,LearnStrategy,2023.2.3,Win32,59.95203837,2,1,10,0.070707071,-0.019191919,1,0,0,0.848,rock_grid_rect_2,6,13,-1,-1,0.848,-0.118181818,-0.237373737,1,0,0,2.525,Basalt_rect,2,2.525,0,9,0,9,0,1,,,,,,,,,,,,,
5c525373e8fee700012f4c90,TCR,2024-06-25_12h40.48.685,LearnStrategy,2023.2.3,Win32,59.95203837,2,1,11,-0.047474747,-0.011111111,1,0,0,0.615,rock_grid_rect_2,6,09,-1,-1,0.615,0.094949495,-0.390909091,1,0,0,1.24,Peridotite_rect,7,1.24,0,10,0,10,0,1,,,,,,,,,,,,,
5c525373e8fee700012f4c90,TCR,2024-06-25_12h40.48.685,LearnStrategy,2023.2.3,Win32,59.95203837,2,1,12,0.046464646,-0.012121212,1,0,0,0.848,rock_grid_rect_2,4,09,-1,-1,0.848,-0.137373737,-0.256565657,1,0,0,1.471,Basalt_rect,2,1.471,0,11,0,11,0,1,,,,,,,,,,,,,
5c525373e8fee700012f4c90,TCR,2024-06-25_12h40.48.685,LearnStrategy,2023.2.3,Win32,59.95203837,2,1,13,-0.005050505,-0.016161616,1,0,0,0.699,rock_grid_rect_2,6,07,-1,-1,0.699,-0.074747475,-0.398989899,1,0,0,2.679,Pegmatite_rect,6,2.679,1,12,0,12,0,1,,,,,,,,,,,,,
5c525373e8fee700012f4c90,TCR,2024-06-25_12h40.48.685,LearnStrategy,2023.2.3,Win32,59.95203837,2,1,14,0.061616162,-0.017171717,1,0,0,0.764,rock_grid_rect_2,2,12,-1,-1,0.764,-0.133333333,-0.248484848,1,0,0,1.14,Basalt_rect,2,1.14,1,13,0,13,0,1,,,,,,,,,,,,,
5c525373e8fee700012f4c90,TCR,2024-06-25_12h40.48.685,LearnStrategy,2023.2.3,Win32,59.95203837,2,1,15,0.052525253,-0.02020202,1,0,0,0.765,rock_grid_rect_2,3,10,-1,-1,0.765,0.382828283,-0.254545455,1,0,0,1.281,Gabbro_rect,4,1.281,0,14,0,14,0,1,,,,,,,,,,,,,
5c525373e8fee700012f4c90,TCR,2024-06-25_12h40.48.685,LearnStrategy,2023.2.3,Win32,59.95203837,2,1,16,0.1,-0.013131313,1,0,0,1.313,rock_grid_rect_2,4,01,-1,-1,1.313,0.127272727,-0.263636364,1,0,0,2.308,Diorite_rect,3,2.308,0,15,0,15,0,1,,,,,,,,,,,,,
5c525373e8fee700012f4c90,TCR,2024-06-25_12h40.48.685,LearnStrategy,2023.2.3,Win32,59.95203837,2,2,1,,,,,,,,3,02,,,,,,,,,,,4,2.42,0,,,,,,0.361616162,-0.254545455,1,0,0,2.42,Gabbro_rect,0,0,0,0,1,
5c525373e8fee700012f4c90,TCR,2024-06-25_12h40.48.685,LearnStrategy,2023.2.3,Win32,59.95203837,2,2,2,,,,,,,,6,05,,,,,,,,,,,2,2.742,0,,,,,,-0.137373737,-0.257575758,1,0,0,2.742,Basalt_rect,1,0,1,0,1,
5c525373e8fee700012f4c90,TCR,2024-06-25_12h40.48.685,LearnStrategy,2023.2.3,Win32,59.95203837,2,2,3,,,,,,,,1,16,,,,,,,,,,,6,2.547,0,,,,,,-0.084848485,-0.41010101,1,0,0,2.547,Pegmatite_rect,2,0,2,0,1,
5c525373e8fee700012f4c90,TCR,2024-06-25_12h40.48.685,LearnStrategy,2023.2.3,Win32,59.95203837,2,2,4,,,,,,,,3,11,,,,,,,,,,,6,2.772,0,,,,,,-0.132323232,-0.412121212,1,0,0,2.772,Pegmatite_rect,3,0,3,0,1,
5c525373e8fee700012f4c90,TCR,2024-06-25_12h40.48.685,LearnStrategy,2023.2.3,Win32,59.95203837,2,2,5,,,,,,,,4,15,,,,,,,,,,,3,2.329,0,,,,,,0.126262626,-0.252525253,1,0,0,2.329,Diorite_rect,4,0,4,0,1,
5c525373e8fee700012f4c90,TCR,2024-06-25_12h40.48.685,LearnStrategy,2023.2.3,Win32,59.95203837,2,2,6,,,,,,,,4,12,,,,,,,,,,,4,2.448,1,,,,,,0.364646465,-0.266666667,1,0,0,2.448,Gabbro_rect,5,0,5,0,1,
5c525373e8fee700012f4c90,TCR,2024-06-25_12h40.48.685,LearnStrategy,2023.2.3,Win32,59.95203837,2,2,7,,,,,,,,6,08,,,,,,,,,,,6,4.801,1,,,,,,-0.063636364,-0.393939394,1,0,0,4.801,Pegmatite_rect,6,0,6,0,1,
5c525373e8fee700012f4c90,TCR,2024-06-25_12h40.48.685,LearnStrategy,2023.2.3,Win32,59.95203837,2,2,8,,,,,,,,5,14,,,,,,,,,,,5,1.225,1,,,,,,-0.415151515,-0.383838384,1,0,0,1.225,Obsidian_rect,7,0,7,0,1,
5c525373e8fee700012f4c90,TCR,2024-06-25_12h40.48.685,LearnStrategy,2023.2.3,Win32,59.95203837,2,2,9,,,,,,,,1,09,,,,,,,,,,,2,2.672,0,,,,,,-0.082828283,-0.246464646,1,0,0,2.672,Basalt_rect,8,0,8,0,1,
5c525373e8fee700012f4c90,TCR,2024-06-25_12h40.48.685,LearnStrategy,2023.2.3,Win32,59.95203837,2,2,10,,,,,,,,2,14,,,,,,,,,,,3,2.23,0,,,,,,0.064646465,-0.253535354,1,0,0,2.23,Diorite_rect,9,0,9,0,1,
5c525373e8fee700012f4c90,TCR,2024-06-25_12h40.48.685,LearnStrategy,2023.2.3,Win32,59.95203837,2,2,11,,,,,,,,2,04,,,,,,,,,,,4,2.064,0,,,,,,0.374747475,-0.271717172,1,0,0,2.064,Gabbro_rect,10,0,10,0,1,
5c525373e8fee700012f4c90,TCR,2024-06-25_12h40.48.685,LearnStrategy,2023.2.3,Win32,59.95203837,2,2,12,,,,,,,,7,07,,,,,,,,,,,1,1.854,0,,,,,,-0.349494949,-0.266666667,1,0,0,1.854,Andesite_rect,11,0,11,0,1,
5c525373e8fee700012f4c90,TCR,2024-06-25_12h40.48.685,LearnStrategy,2023.2.3,Win32,59.95203837,2,2,13,,,,,,,,7,10,,,,,,,,,,,3,3.476,0,,,,,,0.134343434,-0.252525253,1,0,0,3.476,Diorite_rect,12,0,12,0,1,
5c525373e8fee700012f4c90,TCR,2024-06-25_12h40.48.685,LearnStrategy,2023.2.3,Win32,59.95203837,2,2,14,,,,,,,,8,08,,,,,,,,,,,8,1.519,1,,,,,,0.373737374,-0.402020202,1,0,0,1.519,Pumice_rect,13,0,13,0,1,
5c525373e8fee700012f4c90,TCR,2024-06-25_12h40.48.685,LearnStrategy,2023.2.3,Win32,59.95203837,2,2,15,,,,,,,,5,02,,,,,,,,,,,5,0.976,1,,,,,,-0.344444444,-0.378787879,1,0,0,0.976,Obsidian_rect,14,0,14,0,1,
5c525373e8fee700012f4c90,TCR,2024-06-25_12h40.48.685,LearnStrategy,2023.2.3,Win32,59.95203837,2,2,16,,,,,,,,8,10,,,,,,,,,,,8,1.391,1,,,,,,0.376767677,-0.38989899,1,0,0,1.391,Pumice_rect,15,0,15,0,1,
5c525373e8fee700012f4c90,TCR,2024-06-25_12h40.48.685,LearnStrategy,2023.2.3,Win32,59.95203837,3,1,1,0.039393939,-0.008080808,1,0,0,0.965,rock_grid_rect_2,6,07,-1,-1,0.965,-0.161616162,-0.381818182,1,0,0,2.564,Pegmatite_rect,6,2.564,1,0,0,0,0,1,,,,,,,,,,,,,
5c525373e8fee700012f4c90,TCR,2024-06-25_12h40.48.685,LearnStrategy,2023.2.3,Win32,59.95203837,3,1,2,-0.071717172,0.001010101,1,0,0,0.897,rock_grid_rect_2,4,08,-1,-1,0.897,-0.07979798,-0.241414141,1,0,0,1.272,Basalt_rect,2,1.272,0,1,0,1,0,1,,,,,,,,,,,,,
5c525373e8fee700012f4c90,TCR,2024-06-25_12h40.48.685,LearnStrategy,2023.2.3,Win32,59.95203837,3,1,3,0.031313131,-0.023232323,1,0,0,0.664,rock_grid_rect_2,1,05,-1,-1,0.664,0.122222222,-0.256565657,1,0,0,2.085,Diorite_rect,3,2.085,0,2,0,2,0,1,,,,,,,,,,,,,
5c525373e8fee700012f4c90,TCR,2024-06-25_12h40.48.685,LearnStrategy,2023.2.3,Win32,59.95203837,3,1,4,-0.052525253,-0.02020202,1,0,0,0.666,rock_grid_rect_2,7,08,-1,-1,0.666,-0.34040404,-0.257575758,1,0,0,2.171,Andesite_rect,1,2.171,0,3,0,3,0,1,,,,,,,,,,,,,
5c525373e8fee700012f4c90,TCR,2024-06-25_12h40.48.685,LearnStrategy,2023.2.3,Win32,59.95203837,3,1,5,-0.024242424,-0.017171717,1,0,0,0.798,rock_grid_rect_2,2,01,-1,-1,0.798,-0.106060606,-0.232323232,1,0,0,1.204,Basalt_rect,2,1.204,1,4,0,4,0,1,,,,,,,,,,,,,
5c525373e8fee700012f4c90,TCR,2024-06-25_12h40.48.685,LearnStrategy,2023.2.3,Win32,59.95203837,3,1,6,0.007070707,-0.015151515,1,0,0,0.873,rock_grid_rect_2,6,13,-1,-1,0.873,-0.063636364,-0.384848485,1,0,0,4.021,Pegmatite_rect,6,4.021,1,5,0,5,0,1,,,,,,,,,,,,,
5c525373e8fee700012f4c90,TCR,2024-06-25_12h40.48.685,LearnStrategy,2023.2.3,Win32,59.95203837,3,1,7,0.017171717,-0.014141414,1,0,0,0.747,rock_grid_rect_2,4,14,-1,-1,0.747,0.131313131,-0.24040404,1,0,0,2.052,Diorite_rect,3,2.052,0,6,0,6,0,1,,,,,,,,,,,,,
5c525373e8fee700012f4c90,TCR,2024-06-25_12h40.48.685,LearnStrategy,2023.2.3,Win32,59.95203837,3,1,8,0.082828283,-0.017171717,1,0,0,0.748,rock_grid_rect_2,7,02,-1,-1,0.748,0.170707071,-0.404040404,1,0,0,1.15,Peridotite_rect,7,1.15,1,7,0,7,0,1,,,,,,,,,,,,,
5c525373e8fee700012f4c90,TCR,2024-06-25_12h40.48.685,LearnStrategy,2023.2.3,Win32,59.95203837,3,1,9,0.054545455,-0.013131313,1,0,0,0.694,rock_grid_rect_2,3,09,-1,-1,0.694,-0.109090909,-0.398989899,1,0,0,3.691,Pegmatite_rect,6,3.691,0,8,0,8,0,1,,,,,,,,,,,,,
5c525373e8fee700012f4c90,TCR,2024-06-25_12h40.48.685,LearnStrategy,2023.2.3,Win32,59.95203837,3,1,10,-0.004040404,-0.022222222,1,0,0,0.98,rock_grid_rect_2,2,12,-1,-1,0.98,-0.135353535,-0.246464646,1,0,0,1.518,Basalt_rect,2,1.518,1,9,0,9,0,1,,,,,,,,,,,,,
5c525373e8fee700012f4c90,TCR,2024-06-25_12h40.48.685,LearnStrategy,2023.2.3,Win32,59.95203837,3,1,11,0.02020202,0.001010101,1,0,0,0.748,rock_grid_rect_2,1,11,-1,-1,0.748,0.346464646,-0.25959596,1,0,0,2.366,Gabbro_rect,4,2.366,0,10,0,10,0,1,,,,,,,,,,,,,
5c525373e8fee700012f4c90,TCR,2024-06-25_12h40.48.685,LearnStrategy,2023.2.3,Win32,59.95203837,3,1,12,-0.038383838,-0.015151515,1,0,0,0.698,rock_grid_rect_2,6,07,-1,-1,0.698,0.339393939,-0.266666667,1,0,0,1.981,Gabbro_rect,4,1.981,0,11,0,11,0,1,,,,,,,,,,,,,
5c525373e8fee700012f4c90,TCR,2024-06-25_12h40.48.685,LearnStrategy,2023.2.3,Win32,59.95203837,3,1,13,-0.038383838,-0.007070707,1,0,0,0.699,rock_grid_rect_2,3,16,-1,-1,0.699,-0.460606061,-0.239393939,1,0,0,1.592,Andesite_rect,1,1.592,0,12,0,12,0,1,,,,,,,,,,,,,
5c525373e8fee700012f4c90,TCR,2024-06-25_12h40.48.685,LearnStrategy,2023.2.3,Win32,59.95203837,3,1,14,0.037373737,-0.017171717,1,0,0,0.9,rock_grid_rect_2,1,06,-1,-1,0.9,0.111111111,-0.263636364,1,0,0,1.891,Diorite_rect,3,1.891,0,13,0,13,0,1,,,,,,,,,,,,,
5c525373e8fee700012f4c90,TCR,2024-06-25_12h40.48.685,LearnStrategy,2023.2.3,Win32,59.95203837,3,1,15,0.060606061,-0.02020202,1,0,0,0.964,rock_grid_rect_2,3,14,-1,-1,0.964,0.132323232,-0.268686869,1,0,0,1.894,Diorite_rect,3,1.894,1,14,0,14,0,1,,,,,,,,,,,,,
5c525373e8fee700012f4c90,TCR,2024-06-25_12h40.48.685,LearnStrategy,2023.2.3,Win32,59.95203837,3,1,16,-0.049494949,0.005050505,1,0,0,0.848,rock_grid_rect_2,2,10,-1,-1,0.848,-0.081818182,-0.253535354,1,0,0,1.867,Basalt_rect,2,1.867,1,15,0,15,0,1,,,,,,,,,,,,,
5c525373e8fee700012f4c90,TCR,2024-06-25_12h40.48.685,LearnStrategy,2023.2.3,Win32,59.95203837,3,2,1,,,,,,,,1,02,,,,,,,,,,,8,1.815,0,,,,,,0.350505051,-0.38989899,1,0,0,1.815,Pumice_rect,0,0,0,0,1,
5c525373e8fee700012f4c90,TCR,2024-06-25_12h40.48.685,LearnStrategy,2023.2.3,Win32,59.95203837,3,2,2,,,,,,,,6,15,,,,,,,,,,,3,4.328,0,,,,,,0.172727273,-0.241414141,1,0,0,4.328,Diorite_rect,1,0,1,0,1,
5c525373e8fee700012f4c90,TCR,2024-06-25_12h40.48.685,LearnStrategy,2023.2.3,Win32,59.95203837,3,2,3,,,,,,,,2,09,,,,,,,,,,,2,1.079,1,,,,,,-0.155555556,-0.250505051,1,0,0,1.079,Basalt_rect,2,0,2,0,1,
5c525373e8fee700012f4c90,TCR,2024-06-25_12h40.48.685,LearnStrategy,2023.2.3,Win32,59.95203837,3,2,4,,,,,,,,1,14,,,,,,,,,,,1,2.794,1,,,,,,-0.435353535,-0.234343434,1,0,0,2.794,Andesite_rect,3,0,3,0,1,
5c525373e8fee700012f4c90,TCR,2024-06-25_12h40.48.685,LearnStrategy,2023.2.3,Win32,59.95203837,3,2,5,,,,,,,,7,13,,,,,,,,,,,7,0.971,1,,,,,,0.115151515,-0.394949495,1,0,0,0.971,Peridotite_rect,4,0,4,0,1,
5c525373e8fee700012f4c90,TCR,2024-06-25_12h40.48.685,LearnStrategy,2023.2.3,Win32,59.95203837,3,2,6,,,,,,,,2,06,,,,,,,,,,,2,0.815,1,,,,,,-0.114141414,-0.24040404,1,0,0,0.815,Basalt_rect,5,0,5,0,1,
5c525373e8fee700012f4c90,TCR,2024-06-25_12h40.48.685,LearnStrategy,2023.2.3,Win32,59.95203837,3,2,7,,,,,,,,5,12,,,,,,,,,,,5,1.07,1,,,,,,-0.376767677,-0.394949495,1,0,0,1.07,Obsidian_rect,6,0,6,0,1,
5c525373e8fee700012f4c90,TCR,2024-06-25_12h40.48.685,LearnStrategy,2023.2.3,Win32,59.95203837,3,2,8,,,,,,,,4,10,,,,,,,,,,,4,2.752,1,,,,,,0.403030303,-0.250505051,1,0,0,2.752,Gabbro_rect,7,0,7,0,1,
5c525373e8fee700012f4c90,TCR,2024-06-25_12h40.48.685,LearnStrategy,2023.2.3,Win32,59.95203837,3,2,9,,,,,,,,3,08,,,,,,,,,,,3,2.777,1,,,,,,0.152525253,-0.249494949,1,0,0,2.777,Diorite_rect,8,0,8,0,1,
5c525373e8fee700012f4c90,TCR,2024-06-25_12h40.48.685,LearnStrategy,2023.2.3,Win32,59.95203837,3,2,10,,,,,,,,5,06,,,,,,,,,,,5,1.989,1,,,,,,-0.382828283,-0.391919192,1,0,0,1.989,Obsidian_rect,9,0,9,0,1,
5c525373e8fee700012f4c90,TCR,2024-06-25_12h40.48.685,LearnStrategy,2023.2.3,Win32,59.95203837,3,2,11,,,,,,,,3,15,,,,,,,,,,,8,3.208,0,,,,,,0.371717172,-0.390909091,1,0,0,3.208,Pumice_rect,10,0,10,0,1,
5c525373e8fee700012f4c90,TCR,2024-06-25_12h40.48.685,LearnStrategy,2023.2.3,Win32,59.95203837,3,2,12,,,,,,,,8,15,,,,,,,,,,,8,1.716,1,,,,,,0.347474747,-0.404040404,1,0,0,1.716,Pumice_rect,11,0,11,0,1,
5c525373e8fee700012f4c90,TCR,2024-06-25_12h40.48.685,LearnStrategy,2023.2.3,Win32,59.95203837,3,2,13,,,,,,,,7,12,,,,,,,,,,,1,1.83,0,,,,,,-0.343434343,-0.238383838,1,0,0,1.83,Andesite_rect,12,0,12,0,1,
5c525373e8fee700012f4c90,TCR,2024-06-25_12h40.48.685,LearnStrategy,2023.2.3,Win32,59.95203837,3,2,14,,,,,,,,8,03,,,,,,,,,,,8,1.484,1,,,,,,0.383838384,-0.395959596,1,0,0,1.484,Pumice_rect,13,0,13,0,1,
5c525373e8fee700012f4c90,TCR,2024-06-25_12h40.48.685,LearnStrategy,2023.2.3,Win32,59.95203837,3,2,15,,,,,,,,4,05,,,,,,,,,,,6,2.822,0,,,,,,-0.147474747,-0.388888889,1,0,0,2.822,Pegmatite_rect,14,0,14,0,1,
5c525373e8fee700012f4c90,TCR,2024-06-25_12h40.48.685,LearnStrategy,2023.2.3,Win32,59.95203837,3,2,16,,,,,,,,6,03,,,,,,,,,,,3,2.226,0,,,,,,0.135353535,-0.254545455,1,0,0,2.226,Diorite_rect,15,0,15,0,1,
5c525373e8fee700012f4c90,TCR,2024-06-25_12h40.48.685,LearnStrategy,2023.2.3,Win32,59.95203837,4,1,1,-0.01010101,-0.01010101,1,0,0,0.631,rock_grid_rect_2,6,07,-1,-1,0.631,-0.339393939,-0.258585859,1,0,0,2.03,Andesite_rect,1,2.03,0,0,0,0,0,1,,,,,,,,,,,,,
5c525373e8fee700012f4c90,TCR,2024-06-25_12h40.48.685,LearnStrategy,2023.2.3,Win32,59.95203837,4,1,2,-0.076767677,-0.011111111,1,0,0,0.947,rock_grid_rect_2,6,11,-1,-1,0.947,-0.058585859,-0.402020202,1,0,0,1.644,Pegmatite_rect,6,1.644,1,1,0,1,0,1,,,,,,,,,,,,,
5c525373e8fee700012f4c90,TCR,2024-06-25_12h40.48.685,LearnStrategy,2023.2.3,Win32,59.95203837,4,1,3,0.032323232,-0.014141414,1,0,0,0.766,rock_grid_rect_2,2,10,-1,-1,0.766,-0.096969697,-0.261616162,1,0,0,1.034,Basalt_rect,2,1.034,1,2,0,2,0,1,,,,,,,,,,,,,
5c525373e8fee700012f4c90,TCR,2024-06-25_12h40.48.685,LearnStrategy,2023.2.3,Win32,59.95203837,4,1,4,-0.017171717,-0.005050505,1,0,0,0.781,rock_grid_rect_2,4,16,-1,-1,0.781,-0.152525253,-0.258585859,1,0,0,0.989,Basalt_rect,2,0.989,0,3,0,3,0,1,,,,,,,,,,,,,
5c525373e8fee700012f4c90,TCR,2024-06-25_12h40.48.685,LearnStrategy,2023.2.3,Win32,59.95203837,4,1,5,0.039393939,0.002020202,1,0,0,0.697,rock_grid_rect_2,2,01,-1,-1,0.697,-0.117171717,-0.228282828,1,0,0,0.834,Basalt_rect,2,0.834,1,4,0,4,0,1,,,,,,,,,,,,,
5c525373e8fee700012f4c90,TCR,2024-06-25_12h40.48.685,LearnStrategy,2023.2.3,Win32,59.95203837,4,1,6,-0.041414141,-0.017171717,1,0,0,0.698,rock_grid_rect_2,7,06,-1,-1,0.698,0.13030303,-0.395959596,1,0,0,1.667,Peridotite_rect,7,1.667,1,5,0,5,0,1,,,,,,,,,,,,,
5c525373e8fee700012f4c90,TCR,2024-06-25_12h40.48.685,LearnStrategy,2023.2.3,Win32,59.95203837,4,1,7,0.077777778,-0.002020202,1,0,0,0.665,rock_grid_rect_2,3,13,-1,-1,0.665,0.109090909,-0.234343434,1,0,0,2.831,Diorite_rect,3,2.831,1,6,0,6,0,1,,,,,,,,,,,,,
5c525373e8fee700012f4c90,TCR,2024-06-25_12h40.48.685,LearnStrategy,2023.2.3,Win32,59.95203837,4,1,8,0.064646465,0.003030303,1,0,0,0.778,rock_grid_rect_2,8,02,-1,-1,0.778,0.394949495,-0.403030303,1,0,0,1.031,Pumice_rect,8,1.031,1,7,0,7,0,1,,,,,,,,,,,,,
5c525373e8fee700012f4c90,TCR,2024-06-25_12h40.48.685,LearnStrategy,2023.2.3,Win32,59.95203837,4,1,9,0.06969697,0.002020202,1,0,0,0.749,rock_grid_rect_2,6,06,-1,-1,0.749,-0.115151515,-0.408080808,1,0,0,2.368,Pegmatite_rect,6,2.368,1,8,0,8,0,1,,,,,,,,,,,,,
5c525373e8fee700012f4c90,TCR,2024-06-25_12h40.48.685,LearnStrategy,2023.2.3,Win32,59.95203837,4,1,10,0.028282828,-0.009090909,1,0,0,0.781,rock_grid_rect_2,4,03,-1,-1,0.781,0.392929293,-0.251515152,1,0,0,1.902,Gabbro_rect,4,1.902,1,9,0,9,0,1,,,,,,,,,,,,,
5c525373e8fee700012f4c90,TCR,2024-06-25_12h40.48.685,LearnStrategy,2023.2.3,Win32,59.95203837,4,1,11,0.074747475,-0.011111111,1,0,0,0.899,rock_grid_rect_2,1,03,-1,-1,0.899,-0.106060606,-0.263636364,1,0,0,1.001,Basalt_rect,2,1.001,0,10,0,10,0,1,,,,,,,,,,,,,
5c525373e8fee700012f4c90,TCR,2024-06-25_12h40.48.685,LearnStrategy,2023.2.3,Win32,59.95203837,4,1,12,0.150505051,-0.007070707,1,0,0,1.249,rock_grid_rect_2,3,10,-1,-1,1.249,-0.097979798,-0.41010101,1,0,0,2.363,Pegmatite_rect,6,2.363,0,11,0,11,0,1,,,,,,,,,,,,,
5c525373e8fee700012f4c90,TCR,2024-06-25_12h40.48.685,LearnStrategy,2023.2.3,Win32,59.95203837,4,1,13,0.01010101,-0.01010101,1,0,0,0.748,rock_grid_rect_2,1,11,-1,-1,0.748,-0.362626263,-0.263636364,1,0,0,1.766,Andesite_rect,1,1.766,1,12,0,12,0,1,,,,,,,,,,,,,
5c525373e8fee700012f4c90,TCR,2024-06-25_12h40.48.685,LearnStrategy,2023.2.3,Win32,59.95203837,4,1,14,-0.031313131,0.005050505,1,0,0,0.815,rock_grid_rect_2,1,10,-1,-1,0.815,0.306060606,-0.4,1,0,0,1.663,Pumice_rect,8,1.663,0,13,0,13,0,1,,,,,,,,,,,,,
5c525373e8fee700012f4c90,TCR,2024-06-25_12h40.48.685,LearnStrategy,2023.2.3,Win32,59.95203837,4,1,15,-0.061616162,0.019191919,1,0,0,0.981,rock_grid_rect_2,7,04,-1,-1,0.981,-0.125252525,-0.414141414,1,0,0,2.86,Pegmatite_rect,6,2.86,0,14,0,14,0,1,,,,,,,,,,,,,
5c525373e8fee700012f4c90,TCR,2024-06-25_12h40.48.685,LearnStrategy,2023.2.3,Win32,59.95203837,4,1,16,0.03030303,-0.013131313,1,0,0,0.749,rock_grid_rect_2,3,09,-1,-1,0.749,0.117171717,-0.264646465,1,0,0,2.293,Diorite_rect,3,2.293,1,15,0,15,0,1,,,,,,,,,,,,,
5c525373e8fee700012f4c90,TCR,2024-06-25_12h40.48.685,LearnStrategy,2023.2.3,Win32,59.95203837,4,2,1,,,,,,,,6,05,,,,,,,,,,,6,2.276,1,,,,,,-0.095959596,-0.394949495,1,0,0,2.276,Pegmatite_rect,0,0,0,0,1,
5c525373e8fee700012f4c90,TCR,2024-06-25_12h40.48.685,LearnStrategy,2023.2.3,Win32,59.95203837,4,2,2,,,,,,,,4,15,,,,,,,,,,,1,1.658,0,,,,,,-0.327272727,-0.243434343,1,0,0,1.658,Andesite_rect,1,0,1,0,1,
5c525373e8fee700012f4c90,TCR,2024-06-25_12h40.48.685,LearnStrategy,2023.2.3,Win32,59.95203837,4,2,3,,,,,,,,3,06,,,,,,,,,,,4,2.536,0,,,,,,0.415151515,-0.261616162,1,0,0,2.536,Gabbro_rect,2,0,2,0,1,
5c525373e8fee700012f4c90,TCR,2024-06-25_12h40.48.685,LearnStrategy,2023.2.3,Win32,59.95203837,4,2,4,,,,,,,,7,13,,,,,,,,,,,7,1.11,1,,,,,,0.105050505,-0.386868687,1,0,0,1.11,Peridotite_rect,3,0,3,0,1,
5c525373e8fee700012f4c90,TCR,2024-06-25_12h40.48.685,LearnStrategy,2023.2.3,Win32,59.95203837,4,2,5,,,,,,,,1,16,,,,,,,,,,,3,1.875,0,,,,,,0.072727273,-0.246464646,1,0,0,1.875,Diorite_rect,4,0,4,0,1,
5c525373e8fee700012f4c90,TCR,2024-06-25_12h40.48.685,LearnStrategy,2023.2.3,Win32,59.95203837,4,2,6,,,,,,,,8,16,,,,,,,,,,,8,1.132,1,,,,,,0.431313131,-0.417171717,1,0,0,1.132,Pumice_rect,5,0,5,0,1,
5c525373e8fee700012f4c90,TCR,2024-06-25_12h40.48.685,LearnStrategy,2023.2.3,Win32,59.95203837,4,2,7,,,,,,,,7,07,,,,,,,,,,,7,1.614,1,,,,,,0.164646465,-0.383838384,1,0,0,1.614,Peridotite_rect,6,0,6,0,1,
5c525373e8fee700012f4c90,TCR,2024-06-25_12h40.48.685,LearnStrategy,2023.2.3,Win32,59.95203837,4,2,8,,,,,,,,5,12,,,,,,,,,,,5,1.492,1,,,,,,-0.395959596,-0.387878788,1,0,0,1.492,Obsidian_rect,7,0,7,0,1,
5c525373e8fee700012f4c90,TCR,2024-06-25_12h40.48.685,LearnStrategy,2023.2.3,Win32,59.95203837,4,2,9,,,,,,,,8,13,,,,,,,,,,,8,1.418,1,,,,,,0.383838384,-0.407070707,1,0,0,1.418,Pumice_rect,8,0,8,0,1,
5c525373e8fee700012f4c90,TCR,2024-06-25_12h40.48.685,LearnStrategy,2023.2.3,Win32,59.95203837,4,2,10,,,,,,,,6,10,,,,,,,,,,,7,1.341,0,,,,,,0.132323232,-0.408080808,1,0,0,1.341,Peridotite_rect,9,0,9,0,1,
5c525373e8fee700012f4c90,TCR,2024-06-25_12h40.48.685,LearnStrategy,2023.2.3,Win32,59.95203837,4,2,11,,,,,,,,4,05,,,,,,,,,,,3,2.676,0,,,,,,0.138383838,-0.260606061,1,0,0,2.676,Diorite_rect,10,0,10,0,1,
5c525373e8fee700012f4c90,TCR,2024-06-25_12h40.48.685,LearnStrategy,2023.2.3,Win32,59.95203837,4,2,12,,,,,,,,1,07,,,,,,,,,,,3,2.194,0,,,,,,0.134343434,-0.264646465,1,0,0,2.194,Diorite_rect,11,0,11,0,1,
5c525373e8fee700012f4c90,TCR,2024-06-25_12h40.48.685,LearnStrategy,2023.2.3,Win32,59.95203837,4,2,13,,,,,,,,2,06,,,,,,,,,,,2,1.16,1,,,,,,-0.111111111,-0.251515152,1,0,0,1.16,Basalt_rect,12,0,12,0,1,
5c525373e8fee700012f4c90,TCR,2024-06-25_12h40.48.685,LearnStrategy,2023.2.3,Win32,59.95203837,4,2,14,,,,,,,,5,02,,,,,,,,,,,5,0.983,1,,,,,,-0.323232323,-0.383838384,1,0,0,0.983,Obsidian_rect,13,0,13,0,1,
5c525373e8fee700012f4c90,TCR,2024-06-25_12h40.48.685,LearnStrategy,2023.2.3,Win32,59.95203837,4,2,15,,,,,,,,2,14,,,,,,,,,,,8,3.245,0,,,,,,0.363636364,-0.397979798,1,0,0,3.245,Pumice_rect,14,0,14,0,1,
5c525373e8fee700012f4c90,TCR,2024-06-25_12h40.48.685,LearnStrategy,2023.2.3,Win32,59.95203837,4,2,16,,,,,,,,3,15,,,,,,,,,,,6,1.705,0,,,,,,-0.088888889,-0.401010101,1,0,0,1.705,Pegmatite_rect,15,0,15,0,1,
5c525373e8fee700012f4c90,TCR,2024-06-25_12h40.48.685,LearnStrategy,2023.2.3,Win32,59.95203837,5,1,1,0.134343434,0.015151515,1,0,0,0.531,rock_grid_rect_2,1,01,-1,-1,0.531,0.158585859,-0.261616162,1,0,0,2.032,Diorite_rect,3,2.032,0,0,0,0,0,1,,,,,,,,,,,,,
5c525373e8fee700012f4c90,TCR,2024-06-25_12h40.48.685,LearnStrategy,2023.2.3,Win32,59.95203837,5,1,2,0.001010101,-0.001010101,1,0,0,1.281,rock_grid_rect_2,4,03,-1,-1,1.281,-0.127272727,-0.249494949,1,0,0,1.565,Basalt_rect,2,1.565,0,1,0,1,0,1,,,,,,,,,,,,,
5c525373e8fee700012f4c90,TCR,2024-06-25_12h40.48.685,LearnStrategy,2023.2.3,Win32,59.95203837,5,1,3,0.085858586,0.005050505,1,0,0,0.749,rock_grid_rect_2,8,06,-1,-1,0.749,0.339393939,-0.381818182,1,0,0,0.992,Pumice_rect,8,0.992,1,2,0,2,0,1,,,,,,,,,,,,,
5c525373e8fee700012f4c90,TCR,2024-06-25_12h40.48.685,LearnStrategy,2023.2.3,Win32,59.95203837,5,1,4,0.066666667,-0.006060606,1,0,0,0.814,rock_grid_rect_2,6,11,-1,-1,0.814,0.365656566,-0.256565657,1,0,0,1.705,Gabbro_rect,4,1.705,0,3,0,3,0,1,,,,,,,,,,,,,
5c525373e8fee700012f4c90,TCR,2024-06-25_12h40.48.685,LearnStrategy,2023.2.3,Win32,59.95203837,5,1,5,0.012121212,0.002020202,1,0,0,0.881,rock_grid_rect_2,2,16,-1,-1,0.881,-0.349494949,-0.263636364,1,0,0,2.202,Andesite_rect,1,2.202,0,4,0,4,0,1,,,,,,,,,,,,,
5c525373e8fee700012f4c90,TCR,2024-06-25_12h40.48.685,LearnStrategy,2023.2.3,Win32,59.95203837,5,1,6,0,-0.013131313,1,0,0,0.699,rock_grid_rect_2,3,16,-1,-1,0.699,-0.105050505,-0.383838384,1,0,0,1.484,Pegmatite_rect,6,1.484,0,5,0,5,0,1,,,,,,,,,,,,,
5c525373e8fee700012f4c90,TCR,2024-06-25_12h40.48.685,LearnStrategy,2023.2.3,Win32,59.95203837,5,1,7,0.028282828,-0.009090909,1,0,0,0.747,rock_grid_rect_2,1,06,-1,-1,0.747,-0.113131313,-0.385858586,1,0,0,1.671,Pegmatite_rect,6,1.671,0,6,0,6,0,1,,,,,,,,,,,,,
5c525373e8fee700012f4c90,TCR,2024-06-25_12h40.48.685,LearnStrategy,2023.2.3,Win32,59.95203837,5,1,8,-0.003030303,-0.006060606,1,0,0,0.697,rock_grid_rect_2,6,07,-1,-1,0.697,0.413131313,-0.260606061,1,0,0,1.077,Gabbro_rect,4,1.077,0,7,0,7,0,1,,,,,,,,,,,,,
5c525373e8fee700012f4c90,TCR,2024-06-25_12h40.48.685,LearnStrategy,2023.2.3,Win32,59.95203837,5,1,9,-0.032323232,-0.015151515,1,0,0,0.647,rock_grid_rect_2,3,13,-1,-1,0.647,0.095959596,-0.261616162,1,0,0,1.25,Diorite_rect,3,1.25,1,8,0,8,0,1,,,,,,,,,,,,,
5c525373e8fee700012f4c90,TCR,2024-06-25_12h40.48.685,LearnStrategy,2023.2.3,Win32,59.95203837,5,1,10,0.01010101,-0.021212121,1,0,0,0.626,rock_grid_rect_2,3,09,-1,-1,0.626,0.085858586,-0.242424242,1,0,0,0.869,Diorite_rect,3,0.869,1,9,0,9,0,1,,,,,,,,,,,,,
5c525373e8fee700012f4c90,TCR,2024-06-25_12h40.48.685,LearnStrategy,2023.2.3,Win32,59.95203837,5,1,11,0.024242424,-0.002020202,1,0,0,0.549,rock_grid_rect_2,4,16,-1,-1,0.549,-0.115151515,-0.252525253,1,0,0,1.032,Basalt_rect,2,1.032,0,10,0,10,0,1,,,,,,,,,,,,,
5c525373e8fee700012f4c90,TCR,2024-06-25_12h40.48.685,LearnStrategy,2023.2.3,Win32,59.95203837,5,1,12,0.043434343,0.016161616,1,0,0,0.581,rock_grid_rect_2,7,06,-1,-1,0.581,0.087878788,-0.380808081,1,0,0,1.753,Peridotite_rect,7,1.753,1,11,0,11,0,1,,,,,,,,,,,,,
5c525373e8fee700012f4c90,TCR,2024-06-25_12h40.48.685,LearnStrategy,2023.2.3,Win32,59.95203837,5,1,13,0.014141414,0.001010101,1,0,0,0.681,rock_grid_rect_2,2,05,-1,-1,0.681,-0.12020202,-0.255555556,1,0,0,1.597,Basalt_rect,2,1.597,1,12,0,12,0,1,,,,,,,,,,,,,
5c525373e8fee700012f4c90,TCR,2024-06-25_12h40.48.685,LearnStrategy,2023.2.3,Win32,59.95203837,5,1,14,0.050505051,-0.014141414,1,0,0,0.715,rock_grid_rect_2,6,06,-1,-1,0.715,-0.133333333,-0.228282828,1,0,0,1.991,Basalt_rect,2,1.991,0,13,0,13,0,1,,,,,,,,,,,,,
5c525373e8fee700012f4c90,TCR,2024-06-25_12h40.48.685,LearnStrategy,2023.2.3,Win32,59.95203837,5,1,15,-0.027272727,-0.009090909,1,0,0,0.632,rock_grid_rect_2,4,16,-1,-1,0.632,-0.144444444,-0.251515152,1,0,0,1.093,Basalt_rect,2,1.093,0,14,0,14,0,1,,,,,,,,,,,,,
5c525373e8fee700012f4c90,TCR,2024-06-25_12h40.48.685,LearnStrategy,2023.2.3,Win32,59.95203837,5,1,16,0.02020202,-0.007070707,1,0,0,0.533,rock_grid_rect_2,1,10,-1,-1,0.533,0.4,-0.386868687,1,0,0,1.74,Pumice_rect,8,1.74,0,15,0,15,0,1,,,,,,,,,,,,,
5c525373e8fee700012f4c90,TCR,2024-06-25_12h40.48.685,LearnStrategy,2023.2.3,Win32,59.95203837,5,2,1,,,,,,,,1,04,,,,,,,,,,,3,2.293,0,,,,,,0.1,-0.268686869,1,0,0,2.293,Diorite_rect,0,0,0,0,1,
5c525373e8fee700012f4c90,TCR,2024-06-25_12h40.48.685,LearnStrategy,2023.2.3,Win32,59.95203837,5,2,2,,,,,,,,2,09,,,,,,,,,,,2,0.827,1,,,,,,-0.116161616,-0.256565657,1,0,0,0.827,Basalt_rect,1,0,1,0,1,
5c525373e8fee700012f4c90,TCR,2024-06-25_12h40.48.685,LearnStrategy,2023.2.3,Win32,59.95203837,5,2,3,,,,,,,,4,11,,,,,,,,,,,4,1.983,1,,,,,,0.436363636,-0.268686869,1,0,0,1.983,Gabbro_rect,2,0,2,0,1,
5c525373e8fee700012f4c90,TCR,2024-06-25_12h40.48.685,LearnStrategy,2023.2.3,Win32,59.95203837,5,2,4,,,,,,,,6,15,,,,,,,,,,,6,1.94,1,,,,,,-0.082828283,-0.406060606,1,0,0,1.94,Pegmatite_rect,3,0,3,0,1,
5c525373e8fee700012f4c90,TCR,2024-06-25_12h40.48.685,LearnStrategy,2023.2.3,Win32,59.95203837,5,2,5,,,,,,,,3,08,,,,,,,,,,,3,1.786,1,,,,,,0.102020202,-0.261616162,1,0,0,1.786,Diorite_rect,4,0,4,0,1,
5c525373e8fee700012f4c90,TCR,2024-06-25_12h40.48.685,LearnStrategy,2023.2.3,Win32,59.95203837,5,2,6,,,,,,,,5,09,,,,,,,,,,,5,0.975,1,,,,,,-0.351515152,-0.406060606,1,0,0,0.975,Obsidian_rect,5,0,5,0,1,
5c525373e8fee700012f4c90,TCR,2024-06-25_12h40.48.685,LearnStrategy,2023.2.3,Win32,59.95203837,5,2,7,,,,,,,,2,04,,,,,,,,,,,2,0.873,1,,,,,,-0.106060606,-0.234343434,1,0,0,0.873,Basalt_rect,6,0,6,0,1,
5c525373e8fee700012f4c90,TCR,2024-06-25_12h40.48.685,LearnStrategy,2023.2.3,Win32,59.95203837,5,2,8,,,,,,,,6,16,,,,,,,,,,,1,1.74,0,,,,,,-0.336363636,-0.260606061,1,0,0,1.74,Andesite_rect,7,0,7,0,1,
5c525373e8fee700012f4c90,TCR,2024-06-25_12h40.48.685,LearnStrategy,2023.2.3,Win32,59.95203837,5,2,9,,,,,,,,7,05,,,,,,,,,,,7,2.059,1,,,,,,0.067676768,-0.383838384,1,0,0,2.059,Peridotite_rect,8,0,8,0,1,
5c525373e8fee700012f4c90,TCR,2024-06-25_12h40.48.685,LearnStrategy,2023.2.3,Win32,59.95203837,5,2,10,,,,,,,,3,11,,,,,,,,,,,3,1.28,1,,,,,,0.144444444,-0.232323232,1,0,0,1.28,Diorite_rect,9,0,9,0,1,
5c525373e8fee700012f4c90,TCR,2024-06-25_12h40.48.685,LearnStrategy,2023.2.3,Win32,59.95203837,5,2,11,,,,,,,,5,06,,,,,,,,,,,5,1.09,1,,,,,,-0.375757576,-0.415151515,1,0,0,1.09,Obsidian_rect,10,0,10,0,1,
5c525373e8fee700012f4c90,TCR,2024-06-25_12h40.48.685,LearnStrategy,2023.2.3,Win32,59.95203837,5,2,12,,,,,,,,8,15,,,,,,,,,,,8,1.394,1,,,,,,0.387878788,-0.413131313,1,0,0,1.394,Pumice_rect,11,0,11,0,1,
5c525373e8fee700012f4c90,TCR,2024-06-25_12h40.48.685,LearnStrategy,2023.2.3,Win32,59.95203837,5,2,13,,,,,,,,4,12,,,,,,,,,,,2,1.012,0,,,,,,-0.115151515,-0.239393939,1,0,0,1.012,Basalt_rect,12,0,12,0,1,
5c525373e8fee700012f4c90,TCR,2024-06-25_12h40.48.685,LearnStrategy,2023.2.3,Win32,59.95203837,5,2,14,,,,,,,,8,03,,,,,,,,,,,8,1.043,1,,,,,,0.358585859,-0.380808081,1,0,0,1.043,Pumice_rect,13,0,13,0,1,
5c525373e8fee700012f4c90,TCR,2024-06-25_12h40.48.685,LearnStrategy,2023.2.3,Win32,59.95203837,5,2,15,,,,,,,,1,02,,,,,,,,,,,6,2.297,0,,,,,,-0.17979798,-0.392929293,1,0,0,2.297,Pegmatite_rect,14,0,14,0,1,
5c525373e8fee700012f4c90,TCR,2024-06-25_12h40.48.685,LearnStrategy,2023.2.3,Win32,59.95203837,5,2,16,,,,,,,,7,12,,,,,,,,,,,7,2.313,1,,,,,,0.13030303,-0.402020202,1,0,0,2.313,Peridotite_rect,15,0,15,0,1,
5c525373e8fee700012f4c90,TCR,2024-06-25_12h40.48.685,LearnStrategy,2023.2.3,Win32,59.95203837,6,1,1,0.050505051,0.005050505,1,0,0,0.647,rock_grid_rect_2,4,09,-1,-1,0.647,-0.15959596,-0.26969697,1,0,0,1.83,Basalt_rect,2,1.83,0,0,0,0,0,1,,,,,,,,,,,,,
5c525373e8fee700012f4c90,TCR,2024-06-25_12h40.48.685,LearnStrategy,2023.2.3,Win32,59.95203837,6,1,2,0.045454545,-0.02020202,1,0,0,0.647,rock_grid_rect_2,1,11,-1,-1,0.647,-0.364646465,-0.251515152,1,0,0,2.102,Andesite_rect,1,2.102,1,1,0,1,0,1,,,,,,,,,,,,,
5c525373e8fee700012f4c90,TCR,2024-06-25_12h40.48.685,LearnStrategy,2023.2.3,Win32,59.95203837,6,1,3,0.094949495,-0.002020202,1,0,0,0.582,rock_grid_rect_2,3,12,-1,-1,0.582,0.115151515,-0.237373737,1,0,0,1.297,Diorite_rect,3,1.297,1,2,0,2,0,1,,,,,,,,,,,,,
5c525373e8fee700012f4c90,TCR,2024-06-25_12h40.48.685,LearnStrategy,2023.2.3,Win32,59.95203837,6,1,4,0.01010101,-0.016161616,1,0,0,0.562,rock_grid_rect_2,2,12,-1,-1,0.562,0.352525253,-0.255555556,1,0,0,2.186,Gabbro_rect,4,2.186,0,3,0,3,0,1,,,,,,,,,,,,,
5c525373e8fee700012f4c90,TCR,2024-06-25_12h40.48.685,LearnStrategy,2023.2.3,Win32,59.95203837,6,1,5,-0.014141414,0.002020202,1,0,0,0.582,rock_grid_rect_2,6,12,-1,-1,0.582,-0.074747475,-0.401010101,1,0,0,0.976,Pegmatite_rect,6,0.976,1,4,0,4,0,1,,,,,,,,,,,,,
5c525373e8fee700012f4c90,TCR,2024-06-25_12h40.48.685,LearnStrategy,2023.2.3,Win32,59.95203837,6,1,6,-0.025252525,0.002020202,1,0,0,0.731,rock_grid_rect_2,6,11,-1,-1,0.731,-0.082828283,-0.398989899,1,0,0,1.184,Pegmatite_rect,6,1.184,1,5,0,5,0,1,,,,,,,,,,,,,
5c525373e8fee700012f4c90,TCR,2024-06-25_12h40.48.685,LearnStrategy,2023.2.3,Win32,59.95203837,6,1,7,-0.044444444,-0.015151515,1,0,0,0.716,rock_grid_rect_2,1,11,-1,-1,0.716,0.116161616,-0.250505051,1,0,0,1.356,Diorite_rect,3,1.356,0,6,0,6,0,1,,,,,,,,,,,,,
5c525373e8fee700012f4c90,TCR,2024-06-25_12h40.48.685,LearnStrategy,2023.2.3,Win32,59.95203837,6,1,8,-0.041414141,0.006060606,1,0,0,0.598,rock_grid_rect_2,7,06,-1,-1,0.598,0.127272727,-0.386868687,1,0,0,1.064,Peridotite_rect,7,1.064,1,7,0,7,0,1,,,,,,,,,,,,,
5c525373e8fee700012f4c90,TCR,2024-06-25_12h40.48.685,LearnStrategy,2023.2.3,Win32,59.95203837,6,1,9,-0.041414141,-0.012121212,1,0,0,0.648,rock_grid_rect_2,6,09,-1,-1,0.648,0.085858586,-0.415151515,1,0,0,1.052,Peridotite_rect,7,1.052,0,8,0,8,0,1,,,,,,,,,,,,,
5c525373e8fee700012f4c90,TCR,2024-06-25_12h40.48.685,LearnStrategy,2023.2.3,Win32,59.95203837,6,1,10,-0.050505051,-0.009090909,1,0,0,0.549,rock_grid_rect_2,3,09,-1,-1,0.549,0.152525253,-0.260606061,1,0,0,0.979,Diorite_rect,3,0.979,1,9,0,9,0,1,,,,,,,,,,,,,
5c525373e8fee700012f4c90,TCR,2024-06-25_12h40.48.685,LearnStrategy,2023.2.3,Win32,59.95203837,6,1,11,0.026262626,-0.016161616,1,0,0,0.55,rock_grid_rect_2,1,03,-1,-1,0.55,-0.093939394,-0.257575758,1,0,0,0.883,Basalt_rect,2,0.883,0,10,0,10,0,1,,,,,,,,,,,,,
5c525373e8fee700012f4c90,TCR,2024-06-25_12h40.48.685,LearnStrategy,2023.2.3,Win32,59.95203837,6,1,12,0,-0.001010101,1,0,0,0.482,rock_grid_rect_2,3,14,-1,-1,0.482,0.107070707,-0.232323232,1,0,0,0.802,Diorite_rect,3,0.802,1,11,0,11,0,1,,,,,,,,,,,,,
5c525373e8fee700012f4c90,TCR,2024-06-25_12h40.48.685,LearnStrategy,2023.2.3,Win32,59.95203837,6,1,13,0.035353535,0.004040404,1,0,0,0.699,rock_grid_rect_2,4,16,-1,-1,0.699,0.381818182,-0.231313131,1,0,0,1.849,Gabbro_rect,4,1.849,1,12,0,12,0,1,,,,,,,,,,,,,
5c525373e8fee700012f4c90,TCR,2024-06-25_12h40.48.685,LearnStrategy,2023.2.3,Win32,59.95203837,6,1,14,0.064646465,0,1,0,0,0.616,rock_grid_rect_2,4,14,-1,-1,0.616,0.41010101,-0.257575758,1,0,0,1.123,Gabbro_rect,4,1.123,1,13,0,13,0,1,,,,,,,,,,,,,
5c525373e8fee700012f4c90,TCR,2024-06-25_12h40.48.685,LearnStrategy,2023.2.3,Win32,59.95203837,6,1,15,0.121212121,-0.013131313,1,0,0,0.626,rock_grid_rect_2,1,05,-1,-1,0.626,-0.122222222,-0.391919192,1,0,0,1.699,Pegmatite_rect,6,1.699,0,14,0,14,0,1,,,,,,,,,,,,,
5c525373e8fee700012f4c90,TCR,2024-06-25_12h40.48.685,LearnStrategy,2023.2.3,Win32,59.95203837,6,1,16,0.043434343,0.005050505,1,0,0,0.66,rock_grid_rect_2,8,14,-1,-1,0.66,0.378787879,-0.419191919,1,0,0,0.901,Pumice_rect,8,0.901,1,15,0,15,0,1,,,,,,,,,,,,,
5c525373e8fee700012f4c90,TCR,2024-06-25_12h40.48.685,LearnStrategy,2023.2.3,Win32,59.95203837,6,2,1,,,,,,,,4,10,,,,,,,,,,,4,2.272,1,,,,,,0.390909091,-0.260606061,1,0,0,2.272,Gabbro_rect,0,0,0,0,1,
5c525373e8fee700012f4c90,TCR,2024-06-25_12h40.48.685,LearnStrategy,2023.2.3,Win32,59.95203837,6,2,2,,,,,,,,8,10,,,,,,,,,,,8,1.068,1,,,,,,0.353535354,-0.403030303,1,0,0,1.068,Pumice_rect,1,0,1,0,1,
5c525373e8fee700012f4c90,TCR,2024-06-25_12h40.48.685,LearnStrategy,2023.2.3,Win32,59.95203837,6,2,3,,,,,,,,3,07,,,,,,,,,,,1,2.582,0,,,,,,-0.423232323,-0.252525253,1,0,0,2.582,Andesite_rect,2,0,2,0,1,
5c525373e8fee700012f4c90,TCR,2024-06-25_12h40.48.685,LearnStrategy,2023.2.3,Win32,59.95203837,6,2,4,,,,,,,,7,15,,,,,,,,,,,7,0.836,1,,,,,,0.117171717,-0.397979798,1,0,0,0.836,Peridotite_rect,3,0,3,0,1,
5c525373e8fee700012f4c90,TCR,2024-06-25_12h40.48.685,LearnStrategy,2023.2.3,Win32,59.95203837,6,2,5,,,,,,,,5,14,,,,,,,,,,,5,0.997,1,,,,,,-0.418181818,-0.394949495,1,0,0,0.997,Obsidian_rect,4,0,4,0,1,
5c525373e8fee700012f4c90,TCR,2024-06-25_12h40.48.685,LearnStrategy,2023.2.3,Win32,59.95203837,6,2,6,,,,,,,,1,14,,,,,,,,,,,4,3.291,0,,,,,,0.412121212,-0.237373737,1,0,0,3.291,Gabbro_rect,5,0,5,0,1,
5c525373e8fee700012f4c90,TCR,2024-06-25_12h40.48.685,LearnStrategy,2023.2.3,Win32,59.95203837,6,2,7,,,,,,,,8,08,,,,,,,,,,,8,0.9,1,,,,,,0.321212121,-0.383838384,1,0,0,0.9,Pumice_rect,6,0,6,0,1,
5c525373e8fee700012f4c90,TCR,2024-06-25_12h40.48.685,LearnStrategy,2023.2.3,Win32,59.95203837,6,2,8,,,,,,,,3,02,,,,,,,,,,,6,2.297,0,,,,,,-0.070707071,-0.402020202,1,0,0,2.297,Pegmatite_rect,7,0,7,0,1,
5c525373e8fee700012f4c90,TCR,2024-06-25_12h40.48.685,LearnStrategy,2023.2.3,Win32,59.95203837,6,2,9,,,,,,,,6,03,,,,,,,,,,,6,1.75,1,,,,,,-0.137373737,-0.402020202,1,0,0,1.75,Pegmatite_rect,8,0,8,0,1,
5c525373e8fee700012f4c90,TCR,2024-06-25_12h40.48.685,LearnStrategy,2023.2.3,Win32,59.95203837,6,2,10,,,,,,,,7,10,,,,,,,,,,,7,1.178,1,,,,,,0.150505051,-0.390909091,1,0,0,1.178,Peridotite_rect,9,0,9,0,1,
5c525373e8fee700012f4c90,TCR,2024-06-25_12h40.48.685,LearnStrategy,2023.2.3,Win32,59.95203837,6,2,11,,,,,,,,5,11,,,,,,,,,,,5,0.964,1,,,,,,-0.361616162,-0.37979798,1,0,0,0.964,Obsidian_rect,10,0,10,0,1,
5c525373e8fee700012f4c90,TCR,2024-06-25_12h40.48.685,LearnStrategy,2023.2.3,Win32,59.95203837,6,2,12,,,,,,,,1,09,,,,,,,,,,,2,2.389,0,,,,,,-0.172727273,-0.237373737,1,0,0,2.389,Basalt_rect,11,0,11,0,1,
5c525373e8fee700012f4c90,TCR,2024-06-25_12h40.48.685,LearnStrategy,2023.2.3,Win32,59.95203837,6,2,13,,,,,,,,2,11,,,,,,,,,,,4,2.764,0,,,,,,0.346464646,-0.246464646,1,0,0,2.764,Gabbro_rect,12,0,12,0,1,
5c525373e8fee700012f4c90,TCR,2024-06-25_12h40.48.685,LearnStrategy,2023.2.3,Win32,59.95203837,6,2,14,,,,,,,,2,02,,,,,,,,,,,2,0.984,1,,,,,,-0.147474747,-0.25959596,1,0,0,0.984,Basalt_rect,13,0,13,0,1,
5c525373e8fee700012f4c90,TCR,2024-06-25_12h40.48.685,LearnStrategy,2023.2.3,Win32,59.95203837,6,2,15,,,,,,,,4,13,,,,,,,,,,,1,1.405,0,,,,,,-0.336363636,-0.270707071,1,0,0,1.405,Andesite_rect,14,0,14,0,1,
5c525373e8fee700012f4c90,TCR,2024-06-25_12h40.48.685,LearnStrategy,2023.2.3,Win32,59.95203837,6,2,16,,,,,,,,6,08,,,,,,,,,,,6,1.273,1,,,,,,-0.124242424,-0.393939394,1,0,0,1.273,Pegmatite_rect,15,0,15,0,1,
5c525373e8fee700012f4c90,TCR,2024-06-25_12h40.48.685,LearnStrategy,2023.2.3,Win32,59.95203837,7,1,1,0.012121212,-0.014141414,1,0,0,0.597,rock_grid_rect_2,7,16,-1,-1,0.597,0.111111111,-0.382828283,1,0,0,1.222,Peridotite_rect,7,1.222,1,0,0,0,0,1,,,,,,,,,,,,,
5c525373e8fee700012f4c90,TCR,2024-06-25_12h40.48.685,LearnStrategy,2023.2.3,Win32,59.95203837,7,1,2,0.005050505,0.002020202,1,0,0,0.816,rock_grid_rect_2,6,09,-1,-1,0.816,-0.181818182,-0.412121212,1,0,0,1.66,Pegmatite_rect,6,1.66,1,1,0,1,0,1,,,,,,,,,,,,,
5c525373e8fee700012f4c90,TCR,2024-06-25_12h40.48.685,LearnStrategy,2023.2.3,Win32,59.95203837,7,1,3,-0.088888889,-0.019191919,1,0,0,0.897,rock_grid_rect_2,4,14,-1,-1,0.897,-0.405050505,-0.247474747,1,0,0,2.161,Andesite_rect,1,2.161,0,2,0,2,0,1,,,,,,,,,,,,,
5c525373e8fee700012f4c90,TCR,2024-06-25_12h40.48.685,LearnStrategy,2023.2.3,Win32,59.95203837,7,1,4,-0.082828283,-0.003030303,1,0,0,0.698,rock_grid_rect_2,6,12,-1,-1,0.698,-0.083838384,-0.380808081,1,0,0,1.454,Pegmatite_rect,6,1.454,1,3,0,3,0,1,,,,,,,,,,,,,
5c525373e8fee700012f4c90,TCR,2024-06-25_12h40.48.685,LearnStrategy,2023.2.3,Win32,59.95203837,7,1,5,-0.037373737,-0.023232323,1,0,0,0.615,rock_grid_rect_2,1,03,-1,-1,0.615,0.418181818,-0.261616162,1,0,0,1.238,Gabbro_rect,4,1.238,0,4,0,4,0,1,,,,,,,,,,,,,
5c525373e8fee700012f4c90,TCR,2024-06-25_12h40.48.685,LearnStrategy,2023.2.3,Win32,59.95203837,7,1,6,0.003030303,-0.013131313,1,0,0,0.549,rock_grid_rect_2,1,05,-1,-1,0.549,-0.360606061,-0.267676768,1,0,0,1.038,Andesite_rect,1,1.038,1,5,0,5,0,1,,,,,,,,,,,,,
5c525373e8fee700012f4c90,TCR,2024-06-25_12h40.48.685,LearnStrategy,2023.2.3,Win32,59.95203837,7,1,7,0.074747475,-0.016161616,1,0,0,0.63,rock_grid_rect_2,3,13,-1,-1,0.63,0.11010101,-0.247474747,1,0,0,1.319,Diorite_rect,3,1.319,1,6,0,6,0,1,,,,,,,,,,,,,
5c525373e8fee700012f4c90,TCR,2024-06-25_12h40.48.685,LearnStrategy,2023.2.3,Win32,59.95203837,7,1,8,0.022222222,-0.006060606,1,0,0,0.699,rock_grid_rect_2,3,12,-1,-1,0.699,0.114141414,-0.253535354,1,0,0,1.182,Diorite_rect,3,1.182,1,7,0,7,0,1,,,,,,,,,,,,,
5c525373e8fee700012f4c90,TCR,2024-06-25_12h40.48.685,LearnStrategy,2023.2.3,Win32,59.95203837,7,1,9,-0.028282828,-0.011111111,1,0,0,0.648,rock_grid_rect_2,4,14,-1,-1,0.648,-0.097979798,-0.243434343,1,0,0,1.09,Basalt_rect,2,1.09,0,8,0,8,0,1,,,,,,,,,,,,,
5c525373e8fee700012f4c90,TCR,2024-06-25_12h40.48.685,LearnStrategy,2023.2.3,Win32,59.95203837,7,1,10,0.043434343,-0.012121212,1,0,0,0.666,rock_grid_rect_2,4,03,-1,-1,0.666,0.397979798,-0.250505051,1,0,0,0.892,Gabbro_rect,4,0.892,1,9,0,9,0,1,,,,,,,,,,,,,
5c525373e8fee700012f4c90,TCR,2024-06-25_12h40.48.685,LearnStrategy,2023.2.3,Win32,59.95203837,7,1,11,0.017171717,-0.015151515,1,0,0,0.577,rock_grid_rect_2,8,06,-1,-1,0.577,0.401010101,-0.421212121,1,0,0,1.001,Pumice_rect,8,1.001,1,10,0,10,0,1,,,,,,,,,,,,,
5c525373e8fee700012f4c90,TCR,2024-06-25_12h40.48.685,LearnStrategy,2023.2.3,Win32,59.95203837,7,1,12,0.063636364,0.006060606,1,0,0,0.698,rock_grid_rect_2,3,14,-1,-1,0.698,0.175757576,-0.232323232,1,0,0,0.911,Diorite_rect,3,0.911,1,11,0,11,0,1,,,,,,,,,,,,,
5c525373e8fee700012f4c90,TCR,2024-06-25_12h40.48.685,LearnStrategy,2023.2.3,Win32,59.95203837,7,1,13,0.016161616,-0.018181818,1,0,0,0.564,rock_grid_rect_2,1,06,-1,-1,0.564,-0.316161616,-0.268686869,1,0,0,1.392,Andesite_rect,1,1.392,1,12,0,12,0,1,,,,,,,,,,,,,
5c525373e8fee700012f4c90,TCR,2024-06-25_12h40.48.685,LearnStrategy,2023.2.3,Win32,59.95203837,7,1,14,0.055555556,0.001010101,1,0,0,0.548,rock_grid_rect_2,1,05,-1,-1,0.548,-0.34040404,-0.256565657,1,0,0,1.051,Andesite_rect,1,1.051,1,13,0,13,0,1,,,,,,,,,,,,,
5c525373e8fee700012f4c90,TCR,2024-06-25_12h40.48.685,LearnStrategy,2023.2.3,Win32,59.95203837,7,1,15,0.147474747,-0.011111111,1,0,0,0.565,rock_grid_rect_2,2,08,-1,-1,0.565,-0.07979798,-0.249494949,1,0,0,1.294,Basalt_rect,2,1.294,1,14,0,14,0,1,,,,,,,,,,,,,
5c525373e8fee700012f4c90,TCR,2024-06-25_12h40.48.685,LearnStrategy,2023.2.3,Win32,59.95203837,7,1,16,0.051515152,-0.018181818,1,0,0,0.749,rock_grid_rect_2,2,16,-1,-1,0.749,0.383838384,-0.236363636,1,0,0,1.506,Gabbro_rect,4,1.506,0,15,0,15,0,1,,,,,,,,,,,,,
5c525373e8fee700012f4c90,TCR,2024-06-25_12h40.48.685,LearnStrategy,2023.2.3,Win32,59.95203837,7,2,1,,,,,,,,3,07,,,,,,,,,,,3,0.893,1,,,,,,0.131313131,-0.243434343,1,0,0,0.893,Diorite_rect,0,0,0,0,1,
5c525373e8fee700012f4c90,TCR,2024-06-25_12h40.48.685,LearnStrategy,2023.2.3,Win32,59.95203837,7,2,2,,,,,,,,5,09,,,,,,,,,,,5,0.902,1,,,,,,-0.393939394,-0.380808081,1,0,0,0.902,Obsidian_rect,1,0,1,0,1,
5c525373e8fee700012f4c90,TCR,2024-06-25_12h40.48.685,LearnStrategy,2023.2.3,Win32,59.95203837,7,2,3,,,,,,,,8,08,,,,,,,,,,,8,0.834,1,,,,,,0.350505051,-0.411111111,1,0,0,0.834,Pumice_rect,2,0,2,0,1,
5c525373e8fee700012f4c90,TCR,2024-06-25_12h40.48.685,LearnStrategy,2023.2.3,Win32,59.95203837,7,2,4,,,,,,,,4,10,,,,,,,,,,,4,1.553,1,,,,,,0.405050505,-0.244444444,1,0,0,1.553,Gabbro_rect,3,0,3,0,1,
5c525373e8fee700012f4c90,TCR,2024-06-25_12h40.48.685,LearnStrategy,2023.2.3,Win32,59.95203837,7,2,5,,,,,,,,2,06,,,,,,,,,,,2,0.89,1,,,,,,-0.088888889,-0.25959596,1,0,0,0.89,Basalt_rect,4,0,4,0,1,
5c525373e8fee700012f4c90,TCR,2024-06-25_12h40.48.685,LearnStrategy,2023.2.3,Win32,59.95203837,7,2,6,,,,,,,,5,12,,,,,,,,,,,5,0.99,1,,,,,,-0.365656566,-0.409090909,1,0,0,0.99,Obsidian_rect,5,0,5,0,1,
5c525373e8fee700012f4c90,TCR,2024-06-25_12h40.48.685,LearnStrategy,2023.2.3,Win32,59.95203837,7,2,7,,,,,,,,4,12,,,,,,,,,,,4,1.412,1,,,,,,0.362626263,-0.255555556,1,0,0,1.412,Gabbro_rect,6,0,6,0,1,
5c525373e8fee700012f4c90,TCR,2024-06-25_12h40.48.685,LearnStrategy,2023.2.3,Win32,59.95203837,7,2,8,,,,,,,,8,15,,,,,,,,,,,8,1.01,1,,,,,,0.394949495,-0.391919192,1,0,0,1.01,Pumice_rect,7,0,7,0,1,
5c525373e8fee700012f4c90,TCR,2024-06-25_12h40.48.685,LearnStrategy,2023.2.3,Win32,59.95203837,7,2,9,,,,,,,,1,07,,,,,,,,,,,1,0.974,1,,,,,,-0.361616162,-0.243434343,1,0,0,0.974,Andesite_rect,8,0,8,0,1,
5c525373e8fee700012f4c90,TCR,2024-06-25_12h40.48.685,LearnStrategy,2023.2.3,Win32,59.95203837,7,2,10,,,,,,,,1,14,,,,,,,,,,,6,2.483,0,,,,,,-0.116161616,-0.401010101,1,0,0,2.483,Pegmatite_rect,9,0,9,0,1,
5c525373e8fee700012f4c90,TCR,2024-06-25_12h40.48.685,LearnStrategy,2023.2.3,Win32,59.95203837,7,2,11,,,,,,,,6,03,,,,,,,,,,,6,0.985,1,,,,,,-0.113131313,-0.394949495,1,0,0,0.985,Pegmatite_rect,10,0,10,0,1,
5c525373e8fee700012f4c90,TCR,2024-06-25_12h40.48.685,LearnStrategy,2023.2.3,Win32,59.95203837,7,2,12,,,,,,,,7,07,,,,,,,,,,,7,1.36,1,,,,,,0.131313131,-0.398989899,1,0,0,1.36,Peridotite_rect,11,0,11,0,1,
5c525373e8fee700012f4c90,TCR,2024-06-25_12h40.48.685,LearnStrategy,2023.2.3,Win32,59.95203837,7,2,13,,,,,,,,6,10,,,,,,,,,,,6,1.034,1,,,,,,-0.128282828,-0.411111111,1,0,0,1.034,Pegmatite_rect,12,0,12,0,1,
5c525373e8fee700012f4c90,TCR,2024-06-25_12h40.48.685,LearnStrategy,2023.2.3,Win32,59.95203837,7,2,14,,,,,,,,2,11,,,,,,,,,,,2,1.616,1,,,,,,-0.118181818,-0.255555556,1,0,0,1.616,Basalt_rect,13,0,13,0,1,
5c525373e8fee700012f4c90,TCR,2024-06-25_12h40.48.685,LearnStrategy,2023.2.3,Win32,59.95203837,7,2,15,,,,,,,,7,12,,,,,,,,,,,3,2.314,0,,,,,,0.149494949,-0.25959596,1,0,0,2.314,Diorite_rect,14,0,14,0,1,
5c525373e8fee700012f4c90,TCR,2024-06-25_12h40.48.685,LearnStrategy,2023.2.3,Win32,59.95203837,7,2,16,,,,,,,,3,11,,,,,,,,,,,3,0.68,1,,,,,,0.101010101,-0.265656566,1,0,0,0.68,Diorite_rect,15,0,15,0,1,
5c525373e8fee700012f4c90,TCR,2024-06-25_12h40.48.685,LearnStrategy,2023.2.3,Win32,59.95203837,8,1,1,0.050505051,-0.013131313,1,0,0,0.498,rock_grid_rect_2,1,01,-1,-1,0.498,-0.152525253,-0.244444444,1,0,0,2.657,Basalt_rect,2,2.657,0,0,0,0,0,1,,,,,,,,,,,,,
5c525373e8fee700012f4c90,TCR,2024-06-25_12h40.48.685,LearnStrategy,2023.2.3,Win32,59.95203837,8,1,2,-0.007070707,-0.016161616,1,0,0,0.898,rock_grid_rect_2,3,09,-1,-1,0.898,0.154545455,-0.262626263,1,0,0,1.044,Diorite_rect,3,1.044,1,1,0,1,0,1,,,,,,,,,,,,,
5c525373e8fee700012f4c90,TCR,2024-06-25_12h40.48.685,LearnStrategy,2023.2.3,Win32,59.95203837,8,1,3,0.036363636,-0.014141414,1,0,0,0.632,rock_grid_rect_2,2,08,-1,-1,0.632,-0.092929293,-0.237373737,1,0,0,0.877,Basalt_rect,2,0.877,1,2,0,2,0,1,,,,,,,,,,,,,
5c525373e8fee700012f4c90,TCR,2024-06-25_12h40.48.685,LearnStrategy,2023.2.3,Win32,59.95203837,8,1,4,0.03030303,-0.015151515,1,0,0,0.581,rock_grid_rect_2,4,14,-1,-1,0.581,-0.354545455,-0.251515152,1,0,0,1.71,Andesite_rect,1,1.71,0,3,0,3,0,1,,,,,,,,,,,,,
5c525373e8fee700012f4c90,TCR,2024-06-25_12h40.48.685,LearnStrategy,2023.2.3,Win32,59.95203837,8,1,5,0.003030303,-0.017171717,1,0,0,0.598,rock_grid_rect_2,3,12,-1,-1,0.598,0.087878788,-0.255555556,1,0,0,2.3,Diorite_rect,3,2.3,1,4,0,4,0,1,,,,,,,,,,,,,
5c525373e8fee700012f4c90,TCR,2024-06-25_12h40.48.685,LearnStrategy,2023.2.3,Win32,59.95203837,8,1,6,-0.003030303,0,1,0,0,0.549,rock_grid_rect_2,1,03,-1,-1,0.549,0.378787879,-0.256565657,1,0,0,1.872,Gabbro_rect,4,1.872,0,5,0,5,0,1,,,,,,,,,,,,,
5c525373e8fee700012f4c90,TCR,2024-06-25_12h40.48.685,LearnStrategy,2023.2.3,Win32,59.95203837,8,1,7,0.028282828,-0.008080808,1,0,0,0.581,rock_grid_rect_2,4,16,-1,-1,0.581,0.478787879,-0.236363636,1,0,0,0.849,Gabbro_rect,4,0.849,1,6,0,6,0,1,,,,,,,,,,,,,
5c525373e8fee700012f4c90,TCR,2024-06-25_12h40.48.685,LearnStrategy,2023.2.3,Win32,59.95203837,8,1,8,0.078787879,0.003030303,1,0,0,0.658,rock_grid_rect_2,1,05,-1,-1,0.658,-0.419191919,-0.24040404,1,0,0,0.901,Andesite_rect,1,0.901,1,7,0,7,0,1,,,,,,,,,,,,,
5c525373e8fee700012f4c90,TCR,2024-06-25_12h40.48.685,LearnStrategy,2023.2.3,Win32,59.95203837,8,1,9,0.083838384,-0.009090909,1,0,0,0.83,rock_grid_rect_2,6,11,-1,-1,0.83,-0.146464646,-0.393939394,1,0,0,1.521,Pegmatite_rect,6,1.521,1,8,0,8,0,1,,,,,,,,,,,,,
5c525373e8fee700012f4c90,TCR,2024-06-25_12h40.48.685,LearnStrategy,2023.2.3,Win32,59.95203837,8,1,10,0.013131313,-0.009090909,1,0,0,0.548,rock_grid_rect_2,8,05,-1,-1,0.548,0.407070707,-0.397979798,1,0,0,0.908,Pumice_rect,8,0.908,1,9,0,9,0,1,,,,,,,,,,,,,
5c525373e8fee700012f4c90,TCR,2024-06-25_12h40.48.685,LearnStrategy,2023.2.3,Win32,59.95203837,8,1,11,-0.036363636,-0.005050505,1,0,0,0.632,rock_grid_rect_2,7,02,-1,-1,0.632,0.117171717,-0.38989899,1,0,0,1.029,Peridotite_rect,7,1.029,1,10,0,10,0,1,,,,,,,,,,,,,
5c525373e8fee700012f4c90,TCR,2024-06-25_12h40.48.685,LearnStrategy,2023.2.3,Win32,59.95203837,8,1,12,-0.014141414,-0.001010101,1,0,0,0.664,rock_grid_rect_2,6,07,-1,-1,0.664,-0.077777778,-0.388888889,1,0,0,1.769,Pegmatite_rect,6,1.769,1,11,0,11,0,1,,,,,,,,,,,,,
5c525373e8fee700012f4c90,TCR,2024-06-25_12h40.48.685,LearnStrategy,2023.2.3,Win32,59.95203837,8,1,13,0.065656566,0.001010101,1,0,0,0.615,rock_grid_rect_2,1,06,-1,-1,0.615,-0.374747475,-0.245454545,1,0,0,2.08,Andesite_rect,1,2.08,1,12,0,12,0,1,,,,,,,,,,,,,
5c525373e8fee700012f4c90,TCR,2024-06-25_12h40.48.685,LearnStrategy,2023.2.3,Win32,59.95203837,8,1,14,0.004040404,0.003030303,1,0,0,0.531,rock_grid_rect_2,7,04,-1,-1,0.531,0.111111111,-0.25959596,1,0,0,1.972,Diorite_rect,3,1.972,0,13,0,13,0,1,,,,,,,,,,,,,
5c525373e8fee700012f4c90,TCR,2024-06-25_12h40.48.685,LearnStrategy,2023.2.3,Win32,59.95203837,8,1,15,0.021212121,-0.007070707,1,0,0,0.575,rock_grid_rect_2,2,01,-1,-1,0.575,-0.094949495,-0.238383838,1,0,0,1.545,Basalt_rect,2,1.545,1,14,0,14,0,1,,,,,,,,,,,,,
5c525373e8fee700012f4c90,TCR,2024-06-25_12h40.48.685,LearnStrategy,2023.2.3,Win32,59.95203837,8,1,16,0.076767677,0,1,0,0,0.699,rock_grid_rect_2,3,13,-1,-1,0.699,0.107070707,-0.250505051,1,0,0,0.968,Diorite_rect,3,0.968,1,15,0,15,0,1,,,,,,,,,,,,,
5c525373e8fee700012f4c90,TCR,2024-06-25_12h40.48.685,LearnStrategy,2023.2.3,Win32,59.95203837,8,2,1,,,,,,,,5,06,,,,,,,,,,,5,1.195,1,,,,,,-0.363636364,-0.398989899,1,0,0,1.195,Obsidian_rect,0,0,0,0,1,
5c525373e8fee700012f4c90,TCR,2024-06-25_12h40.48.685,LearnStrategy,2023.2.3,Win32,59.95203837,8,2,2,,,,,,,,1,16,,,,,,,,,,,1,1.308,1,,,,,,-0.346464646,-0.263636364,1,0,0,1.308,Andesite_rect,1,0,1,0,1,
5c525373e8fee700012f4c90,TCR,2024-06-25_12h40.48.685,LearnStrategy,2023.2.3,Win32,59.95203837,8,2,3,,,,,,,,3,06,,,,,,,,,,,3,1.122,1,,,,,,0.14040404,-0.248484848,1,0,0,1.122,Diorite_rect,2,0,2,0,1,
5c525373e8fee700012f4c90,TCR,2024-06-25_12h40.48.685,LearnStrategy,2023.2.3,Win32,59.95203837,8,2,4,,,,,,,,7,10,,,,,,,,,,,7,1.175,1,,,,,,0.115151515,-0.401010101,1,0,0,1.175,Peridotite_rect,3,0,3,0,1,
5c525373e8fee700012f4c90,TCR,2024-06-25_12h40.48.685,LearnStrategy,2023.2.3,Win32,59.95203837,8,2,5,,,,,,,,3,02,,,,,,,,,,,6,1.369,0,,,,,,-0.096969697,-0.401010101,1,0,0,1.369,Pegmatite_rect,4,0,4,0,1,
5c525373e8fee700012f4c90,TCR,2024-06-25_12h40.48.685,LearnStrategy,2023.2.3,Win32,59.95203837,8,2,6,,,,,,,,1,04,,,,,,,,,,,1,1.996,1,,,,,,-0.349494949,-0.247474747,1,0,0,1.996,Andesite_rect,5,0,5,0,1,
5c525373e8fee700012f4c90,TCR,2024-06-25_12h40.48.685,LearnStrategy,2023.2.3,Win32,59.95203837,8,2,7,,,,,,,,6,16,,,,,,,,,,,6,4.938,1,,,,,,-0.104040404,-0.385858586,1,0,0,4.938,Pegmatite_rect,6,0,6,0,1,
5c525373e8fee700012f4c90,TCR,2024-06-25_12h40.48.685,LearnStrategy,2023.2.3,Win32,59.95203837,8,2,8,,,,,,,,7,05,,,,,,,,,,,7,1.335,1,,,,,,0.111111111,-0.401010101,1,0,0,1.335,Peridotite_rect,7,0,7,0,1,
5c525373e8fee700012f4c90,TCR,2024-06-25_12h40.48.685,LearnStrategy,2023.2.3,Win32,59.95203837,8,2,9,,,,,,,,8,13,,,,,,,,,,,8,0.854,1,,,,,,0.335353535,-0.396969697,1,0,0,0.854,Pumice_rect,8,0,8,0,1,
5c525373e8fee700012f4c90,TCR,2024-06-25_12h40.48.685,LearnStrategy,2023.2.3,Win32,59.95203837,8,2,10,,,,,,,,5,11,,,,,,,,,,,5,0.918,1,,,,,,-0.377777778,-0.383838384,1,0,0,0.918,Obsidian_rect,9,0,9,0,1,
5c525373e8fee700012f4c90,TCR,2024-06-25_12h40.48.685,LearnStrategy,2023.2.3,Win32,59.95203837,8,2,11,,,,,,,,4,05,,,,,,,,,,,6,2.685,0,,,,,,-0.116161616,-0.386868687,1,0,0,2.685,Pegmatite_rect,10,0,10,0,1,
5c525373e8fee700012f4c90,TCR,2024-06-25_12h40.48.685,LearnStrategy,2023.2.3,Win32,59.95203837,8,2,12,,,,,,,,2,09,,,,,,,,,,,2,1.063,1,,,,,,-0.072727273,-0.263636364,1,0,0,1.063,Basalt_rect,11,0,11,0,1,
5c525373e8fee700012f4c90,TCR,2024-06-25_12h40.48.685,LearnStrategy,2023.2.3,Win32,59.95203837,8,2,13,,,,,,,,2,14,,,,,,,,,,,8,1.715,0,,,,,,0.362626263,-0.403030303,1,0,0,1.715,Pumice_rect,12,0,12,0,1,
5c525373e8fee700012f4c90,TCR,2024-06-25_12h40.48.685,LearnStrategy,2023.2.3,Win32,59.95203837,8,2,14,,,,,,,,8,16,,,,,,,,,,,8,1.069,1,,,,,,0.344444444,-0.405050505,1,0,0,1.069,Pumice_rect,13,0,13,0,1,
5c525373e8fee700012f4c90,TCR,2024-06-25_12h40.48.685,LearnStrategy,2023.2.3,Win32,59.95203837,8,2,15,,,,,,,,4,15,,,,,,,,,,,3,0.994,0,,,,,,0.117171717,-0.248484848,1,0,0,0.994,Diorite_rect,14,0,14,0,1,
5c525373e8fee700012f4c90,TCR,2024-06-25_12h40.48.685,LearnStrategy,2023.2.3,Win32,59.95203837,8,2,16,,,,,,,,6,08,,,,,,,,,,,6,1.662,1,,,,,,-0.113131313,-0.397979798,1,0,0,1.662,Pegmatite_rect,15,0,15,0,1,
5c525373e8fee700012f4c90,TCR,2024-06-25_12h40.48.685,LearnStrategy,2023.2.3,Win32,59.95203837,9,1,1,0.144444444,-0.001010101,1,0,0,0.43,rock_grid_rect_2,3,10,-1,-1,0.43,0.112121212,-0.255555556,1,0,0,0.99,Diorite_rect,3,0.99,1,0,0,0,0,1,,,,,,,,,,,,,
5c525373e8fee700012f4c90,TCR,2024-06-25_12h40.48.685,LearnStrategy,2023.2.3,Win32,59.95203837,9,1,2,0.051515152,0.003030303,1,0,0,1.164,rock_grid_rect_2,1,06,-1,-1,1.164,0.097979798,-0.261616162,1,0,0,1.101,Diorite_rect,3,1.101,0,1,0,1,0,1,,,,,,,,,,,,,
5c525373e8fee700012f4c90,TCR,2024-06-25_12h40.48.685,LearnStrategy,2023.2.3,Win32,59.95203837,9,1,3,-0.016161616,-0.008080808,1,0,0,0.98,rock_grid_rect_2,6,11,-1,-1,0.98,-0.093939394,-0.397979798,1,0,0,1.257,Pegmatite_rect,6,1.257,1,2,0,2,0,1,,,,,,,,,,,,,
5c525373e8fee700012f4c90,TCR,2024-06-25_12h40.48.685,LearnStrategy,2023.2.3,Win32,59.95203837,9,1,4,0.057575758,-0.002020202,1,0,0,0.848,rock_grid_rect_2,5,04,-1,-1,0.848,-0.397979798,-0.404040404,1,0,0,1.017,Obsidian_rect,5,1.017,1,3,0,3,0,1,,,,,,,,,,,,,
5c525373e8fee700012f4c90,TCR,2024-06-25_12h40.48.685,LearnStrategy,2023.2.3,Win32,59.95203837,9,1,5,0.071717172,0.001010101,1,0,0,0.914,rock_grid_rect_2,4,16,-1,-1,0.914,0.414141414,-0.257575758,1,0,0,1.661,Gabbro_rect,4,1.661,1,4,0,4,0,1,,,,,,,,,,,,,
5c525373e8fee700012f4c90,TCR,2024-06-25_12h40.48.685,LearnStrategy,2023.2.3,Win32,59.95203837,9,1,6,0.071717172,0.001010101,1,0,0,0.616,rock_grid_rect_2,1,01,-1,-1,0.616,0.142424242,-0.258585859,1,0,0,2.548,Diorite_rect,3,2.548,0,5,0,5,0,1,,,,,,,,,,,,,
5c525373e8fee700012f4c90,TCR,2024-06-25_12h40.48.685,LearnStrategy,2023.2.3,Win32,59.95203837,9,1,7,0.013131313,-0.009090909,1,0,0,0.582,rock_grid_rect_2,1,03,-1,-1,0.582,-0.338383838,-0.255555556,1,0,0,1.694,Andesite_rect,1,1.694,1,6,0,6,0,1,,,,,,,,,,,,,
5c525373e8fee700012f4c90,TCR,2024-06-25_12h40.48.685,LearnStrategy,2023.2.3,Win32,59.95203837,9,1,8,0.083838384,-0.007070707,1,0,0,0.601,rock_grid_rect_2,3,16,-1,-1,0.601,0.106060606,-0.242424242,1,0,0,1.162,Diorite_rect,3,1.162,1,7,0,7,0,1,,,,,,,,,,,,,
5c525373e8fee700012f4c90,TCR,2024-06-25_12h40.48.685,LearnStrategy,2023.2.3,Win32,59.95203837,9,1,9,0.111111111,0.016161616,1,0,0,0.898,rock_grid_rect_2,8,06,-1,-1,0.898,0.41010101,-0.417171717,1,0,0,1.079,Pumice_rect,8,1.079,1,8,0,8,0,1,,,,,,,,,,,,,
5c525373e8fee700012f4c90,TCR,2024-06-25_12h40.48.685,LearnStrategy,2023.2.3,Win32,59.95203837,9,1,10,0.105050505,-0.015151515,1,0,0,0.682,rock_grid_rect_2,3,12,-1,-1,0.682,0.128282828,-0.241414141,1,0,0,0.903,Diorite_rect,3,0.903,1,9,0,9,0,1,,,,,,,,,,,,,
5c525373e8fee700012f4c90,TCR,2024-06-25_12h40.48.685,LearnStrategy,2023.2.3,Win32,59.95203837,9,1,11,0.184848485,0.004040404,1,0,0,0.682,rock_grid_rect_2,6,11,-1,-1,0.682,-0.119191919,-0.386868687,1,0,0,1.016,Pegmatite_rect,6,1.016,1,10,0,10,0,1,,,,,,,,,,,,,
5c525373e8fee700012f4c90,TCR,2024-06-25_12h40.48.685,LearnStrategy,2023.2.3,Win32,59.95203837,9,1,12,0.14040404,-0.015151515,1,0,0,0.716,rock_grid_rect_2,7,16,-1,-1,0.716,0.070707071,-0.402020202,1,0,0,0.992,Peridotite_rect,7,0.992,1,11,0,11,0,1,,,,,,,,,,,,,
5c525373e8fee700012f4c90,TCR,2024-06-25_12h40.48.685,LearnStrategy,2023.2.3,Win32,59.95203837,9,1,13,0.088888889,-0.012121212,1,0,0,0.633,rock_grid_rect_2,4,09,-1,-1,0.633,0.361616162,-0.256565657,1,0,0,2.702,Gabbro_rect,4,2.702,1,12,0,12,0,1,,,,,,,,,,,,,
5c525373e8fee700012f4c90,TCR,2024-06-25_12h40.48.685,LearnStrategy,2023.2.3,Win32,59.95203837,9,1,14,0.118181818,0.005050505,1,0,0,0.593,rock_grid_rect_2,2,12,-1,-1,0.593,-0.109090909,-0.245454545,1,0,0,1.568,Basalt_rect,2,1.568,1,13,0,13,0,1,,,,,,,,,,,,,
5c525373e8fee700012f4c90,TCR,2024-06-25_12h40.48.685,LearnStrategy,2023.2.3,Win32,59.95203837,9,1,15,0.086868687,-0.017171717,1,0,0,0.981,rock_grid_rect_2,4,03,-1,-1,0.981,0.372727273,-0.260606061,1,0,0,2.918,Gabbro_rect,4,2.918,1,14,0,14,0,1,,,,,,,,,,,,,
5c525373e8fee700012f4c90,TCR,2024-06-25_12h40.48.685,LearnStrategy,2023.2.3,Win32,59.95203837,9,1,16,0.015151515,-0.019191919,1,0,0,0.712,rock_grid_rect_2,2,08,-1,-1,0.712,-0.147474747,-0.250505051,1,0,0,0.874,Basalt_rect,2,0.874,1,15,0,15,0,1,,,,,,,,,,,,,
5c525373e8fee700012f4c90,TCR,2024-06-25_12h40.48.685,LearnStrategy,2023.2.3,Win32,59.95203837,9,2,1,,,,,,,,1,09,,,,,,,,,,,1,1.081,1,,,,,,-0.360606061,-0.232323232,1,0,0,1.081,Andesite_rect,0,0,0,0,1,
5c525373e8fee700012f4c90,TCR,2024-06-25_12h40.48.685,LearnStrategy,2023.2.3,Win32,59.95203837,9,2,2,,,,,,,,4,13,,,,,,,,,,,1,3.492,0,,,,,,-0.377777778,-0.246464646,1,0,0,3.492,Andesite_rect,1,0,1,0,1,
5c525373e8fee700012f4c90,TCR,2024-06-25_12h40.48.685,LearnStrategy,2023.2.3,Win32,59.95203837,9,2,3,,,,,,,,4,11,,,,,,,,,,,4,2.558,1,,,,,,0.291919192,-0.258585859,1,0,0,2.558,Gabbro_rect,2,0,2,0,1,
5c525373e8fee700012f4c90,TCR,2024-06-25_12h40.48.685,LearnStrategy,2023.2.3,Win32,59.95203837,9,2,4,,,,,,,,8,10,,,,,,,,,,,8,0.845,1,,,,,,0.354545455,-0.407070707,1,0,0,0.845,Pumice_rect,3,0,3,0,1,
5c525373e8fee700012f4c90,TCR,2024-06-25_12h40.48.685,LearnStrategy,2023.2.3,Win32,59.95203837,9,2,5,,,,,,,,5,02,,,,,,,,,,,5,0.824,1,,,,,,-0.396969697,-0.388888889,1,0,0,0.824,Obsidian_rect,4,0,4,0,1,
5c525373e8fee700012f4c90,TCR,2024-06-25_12h40.48.685,LearnStrategy,2023.2.3,Win32,59.95203837,9,2,6,,,,,,,,8,03,,,,,,,,,,,8,1.172,1,,,,,,0.387878788,-0.401010101,1,0,0,1.172,Pumice_rect,5,0,5,0,1,
5c525373e8fee700012f4c90,TCR,2024-06-25_12h40.48.685,LearnStrategy,2023.2.3,Win32,59.95203837,9,2,7,,,,,,,,2,02,,,,,,,,,,,2,1.232,1,,,,,,-0.168686869,-0.242424242,1,0,0,1.232,Basalt_rect,6,0,6,0,1,
5c525373e8fee700012f4c90,TCR,2024-06-25_12h40.48.685,LearnStrategy,2023.2.3,Win32,59.95203837,9,2,8,,,,,,,,3,15,,,,,,,,,,,3,1.874,1,,,,,,0.161616162,-0.252525253,1,0,0,1.874,Diorite_rect,7,0,7,0,1,
5c525373e8fee700012f4c90,TCR,2024-06-25_12h40.48.685,LearnStrategy,2023.2.3,Win32,59.95203837,9,2,9,,,,,,,,6,15,,,,,,,,,,,6,1.196,1,,,,,,-0.149494949,-0.393939394,1,0,0,1.196,Pegmatite_rect,8,0,8,0,1,
5c525373e8fee700012f4c90,TCR,2024-06-25_12h40.48.685,LearnStrategy,2023.2.3,Win32,59.95203837,9,2,10,,,,,,,,7,15,,,,,,,,,,,7,1.091,1,,,,,,0.088888889,-0.397979798,1,0,0,1.091,Peridotite_rect,9,0,9,0,1,
5c525373e8fee700012f4c90,TCR,2024-06-25_12h40.48.685,LearnStrategy,2023.2.3,Win32,59.95203837,9,2,11,,,,,,,,2,04,,,,,,,,,,,2,0.89,1,,,,,,-0.093939394,-0.256565657,1,0,0,0.89,Basalt_rect,10,0,10,0,1,
5c525373e8fee700012f4c90,TCR,2024-06-25_12h40.48.685,LearnStrategy,2023.2.3,Win32,59.95203837,9,2,12,,,,,,,,3,08,,,,,,,,,,,3,1.917,1,,,,,,0.150505051,-0.254545455,1,0,0,1.917,Diorite_rect,11,0,11,0,1,
5c525373e8fee700012f4c90,TCR,2024-06-25_12h40.48.685,LearnStrategy,2023.2.3,Win32,59.95203837,9,2,13,,,,,,,,7,13,,,,,,,,,,,7,1.501,1,,,,,,0.137373737,-0.417171717,1,0,0,1.501,Peridotite_rect,12,0,12,0,1,
5c525373e8fee700012f4c90,TCR,2024-06-25_12h40.48.685,LearnStrategy,2023.2.3,Win32,59.95203837,9,2,14,,,,,,,,5,14,,,,,,,,,,,5,0.905,1,,,,,,-0.436363636,-0.393939394,1,0,0,0.905,Obsidian_rect,13,0,13,0,1,
5c525373e8fee700012f4c90,TCR,2024-06-25_12h40.48.685,LearnStrategy,2023.2.3,Win32,59.95203837,9,2,15,,,,,,,,1,02,,,,,,,,,,,6,1.37,0,,,,,,-0.116161616,-0.391919192,1,0,0,1.37,Pegmatite_rect,14,0,14,0,1,
5c525373e8fee700012f4c90,TCR,2024-06-25_12h40.48.685,LearnStrategy,2023.2.3,Win32,59.95203837,9,2,16,,,,,,,,6,05,,,,,,,,,,,6,1.484,1,,,,,,-0.084848485,-0.381818182,1,0,0,1.484,Pegmatite_rect,15,0,15,0,1,
5c525373e8fee700012f4c90,TCR,2024-06-25_12h40.48.685,LearnStrategy,2023.2.3,Win32,59.95203837,,,,,,,,,,,,,,,,,,,,,,,,,,,,,,,,,,,,,,,,,,,1
5c525373e8fee700012f4c90,TCR,2024-06-25_12h40.48.685,LearnStrategy,2023.2.3,Win32,59.95203837,,,,,,,,,,,,,,,,,,,,,,,,,,,,,,,,,,,,,,,,,,,
5c525373e8fee700012f4c90,TCR,2024-06-25_12h40.48.685,LearnStrategy,2023.2.3,Win32,59.95203837,,,,,,,,,,,5,05,1,1,,,,,,,,,,,,,,,,,,,,,,,,,,,,,
5c525373e8fee700012f4c90,TCR,2024-06-25_12h40.48.685,LearnStrategy,2023.2.3,Win32,59.95203837,,,,,,,,,,,5,10,1,2,,,,,,,,,,,,,,,,,,,,,,,,,,,,,
5c525373e8fee700012f4c90,TCR,2024-06-25_12h40.48.685,LearnStrategy,2023.2.3,Win32,59.95203837,,,,,,,,,,,8,05,1,3,,,,,,,,,,,,,,,,,,,,,,,,,,,,,
5c525373e8fee700012f4c90,TCR,2024-06-25_12h40.48.685,LearnStrategy,2023.2.3,Win32,59.95203837,,,,,,,,,,,3,12,1,4,,,,,,,,,,,,,,,,,,,,,,,,,,,,,
5c525373e8fee700012f4c90,TCR,2024-06-25_12h40.48.685,LearnStrategy,2023.2.3,Win32,59.95203837,,,,,,,,,,,1,03,1,5,,,,,,,,,,,,,,,,,,,,,,,,,,,,,
5c525373e8fee700012f4c90,TCR,2024-06-25_12h40.48.685,LearnStrategy,2023.2.3,Win32,59.95203837,,,,,,,,,,,8,09,1,6,,,,,,,,,,,,,,,,,,,,,,,,,,,,,
5c525373e8fee700012f4c90,TCR,2024-06-25_12h40.48.685,LearnStrategy,2023.2.3,Win32,59.95203837,,,,,,,,,,,5,07,1,7,,,,,,,,,,,,,,,,,,,,,,,,,,,,,
5c525373e8fee700012f4c90,TCR,2024-06-25_12h40.48.685,LearnStrategy,2023.2.3,Win32,59.95203837,,,,,,,,,,,4,14,1,8,,,,,,,,,,,,,,,,,,,,,,,,,,,,,
5c525373e8fee700012f4c90,TCR,2024-06-25_12h40.48.685,LearnStrategy,2023.2.3,Win32,59.95203837,,,,,,,,,,,8,14,2,1,,,,,,,,,,,,,,,,,,,,,,,,,,,,,
5c525373e8fee700012f4c90,TCR,2024-06-25_12h40.48.685,LearnStrategy,2023.2.3,Win32,59.95203837,,,,,,,,,,,8,02,2,2,,,,,,,,,,,,,,,,,,,,,,,,,,,,,
5c525373e8fee700012f4c90,TCR,2024-06-25_12h40.48.685,LearnStrategy,2023.2.3,Win32,59.95203837,,,,,,,,,,,1,10,2,3,,,,,,,,,,,,,,,,,,,,,,,,,,,,,
5c525373e8fee700012f4c90,TCR,2024-06-25_12h40.48.685,LearnStrategy,2023.2.3,Win32,59.95203837,,,,,,,,,,,1,05,2,4,,,,,,,,,,,,,,,,,,,,,,,,,,,,,
5c525373e8fee700012f4c90,TCR,2024-06-25_12h40.48.685,LearnStrategy,2023.2.3,Win32,59.95203837,,,,,,,,,,,1,06,2,5,,,,,,,,,,,,,,,,,,,,,,,,,,,,,
5c525373e8fee700012f4c90,TCR,2024-06-25_12h40.48.685,LearnStrategy,2023.2.3,Win32,59.95203837,,,,,,,,,,,6,06,2,6,,,,,,,,,,,,,,,,,,,,,,,,,,,,,
5c525373e8fee700012f4c90,TCR,2024-06-25_12h40.48.685,LearnStrategy,2023.2.3,Win32,59.95203837,,,,,,,,,,,6,07,2,7,,,,,,,,,,,,,,,,,,,,,,,,,,,,,
5c525373e8fee700012f4c90,TCR,2024-06-25_12h40.48.685,LearnStrategy,2023.2.3,Win32,59.95203837,,,,,,,,,,,2,10,2,8,,,,,,,,,,,,,,,,,,,,,,,,,,,,,
5c525373e8fee700012f4c90,TCR,2024-06-25_12h40.48.685,LearnStrategy,2023.2.3,Win32,59.95203837,,,,,,,,,,,6,09,3,1,,,,,,,,,,,,,,,,,,,,,,,,,,,,,
5c525373e8fee700012f4c90,TCR,2024-06-25_12h40.48.685,LearnStrategy,2023.2.3,Win32,59.95203837,,,,,,,,,,,7,04,3,2,,,,,,,,,,,,,,,,,,,,,,,,,,,,,
5c525373e8fee700012f4c90,TCR,2024-06-25_12h40.48.685,LearnStrategy,2023.2.3,Win32,59.95203837,,,,,,,,,,,2,05,3,3,,,,,,,,,,,,,,,,,,,,,,,,,,,,,
5c525373e8fee700012f4c90,TCR,2024-06-25_12h40.48.685,LearnStrategy,2023.2.3,Win32,59.95203837,,,,,,,,,,,7,14,3,4,,,,,,,,,,,,,,,,,,,,,,,,,,,,,
5c525373e8fee700012f4c90,TCR,2024-06-25_12h40.48.685,LearnStrategy,2023.2.3,Win32,59.95203837,,,,,,,,,,,1,11,3,5,,,,,,,,,,,,,,,,,,,,,,,,,,,,,
5c525373e8fee700012f4c90,TCR,2024-06-25_12h40.48.685,LearnStrategy,2023.2.3,Win32,59.95203837,,,,,,,,,,,8,04,3,6,,,,,,,,,,,,,,,,,,,,,,,,,,,,,
5c525373e8fee700012f4c90,TCR,2024-06-25_12h40.48.685,LearnStrategy,2023.2.3,Win32,59.95203837,,,,,,,,,,,3,16,3,7,,,,,,,,,,,,,,,,,,,,,,,,,,,,,
5c525373e8fee700012f4c90,TCR,2024-06-25_12h40.48.685,LearnStrategy,2023.2.3,Win32,59.95203837,,,,,,,,,,,7,02,3,8,,,,,,,,,,,,,,,,,,,,,,,,,,,,,
5c525373e8fee700012f4c90,TCR,2024-06-25_12h40.48.685,LearnStrategy,2023.2.3,Win32,59.95203837,,,,,,,,,,,2,01,4,1,,,,,,,,,,,,,,,,,,,,,,,,,,,,,
5c525373e8fee700012f4c90,TCR,2024-06-25_12h40.48.685,LearnStrategy,2023.2.3,Win32,59.95203837,,,,,,,,,,,4,08,4,2,,,,,,,,,,,,,,,,,,,,,,,,,,,,,
5c525373e8fee700012f4c90,TCR,2024-06-25_12h40.48.685,LearnStrategy,2023.2.3,Win32,59.95203837,,,,,,,,,,,7,08,4,3,,,,,,,,,,,,,,,,,,,,,,,,,,,,,
5c525373e8fee700012f4c90,TCR,2024-06-25_12h40.48.685,LearnStrategy,2023.2.3,Win32,59.95203837,,,,,,,,,,,6,12,4,4,,,,,,,,,,,,,,,,,,,,,,,,,,,,,
5c525373e8fee700012f4c90,TCR,2024-06-25_12h40.48.685,LearnStrategy,2023.2.3,Win32,59.95203837,,,,,,,,,,,8,06,4,5,,,,,,,,,,,,,,,,,,,,,,,,,,,,,
5c525373e8fee700012f4c90,TCR,2024-06-25_12h40.48.685,LearnStrategy,2023.2.3,Win32,59.95203837,,,,,,,,,,,6,11,4,6,,,,,,,,,,,,,,,,,,,,,,,,,,,,,
5c525373e8fee700012f4c90,TCR,2024-06-25_12h40.48.685,LearnStrategy,2023.2.3,Win32,59.95203837,,,,,,,,,,,7,16,4,7,,,,,,,,,,,,,,,,,,,,,,,,,,,,,
5c525373e8fee700012f4c90,TCR,2024-06-25_12h40.48.685,LearnStrategy,2023.2.3,Win32,59.95203837,,,,,,,,,,,5,04,4,8,,,,,,,,,,,,,,,,,,,,,,,,,,,,,
5c525373e8fee700012f4c90,TCR,2024-06-25_12h40.48.685,LearnStrategy,2023.2.3,Win32,59.95203837,,,,,,,,,,,2,16,5,1,,,,,,,,,,,,,,,,,,,,,,,,,,,,,
5c525373e8fee700012f4c90,TCR,2024-06-25_12h40.48.685,LearnStrategy,2023.2.3,Win32,59.95203837,,,,,,,,,,,3,13,5,2,,,,,,,,,,,,,,,,,,,,,,,,,,,,,
5c525373e8fee700012f4c90,TCR,2024-06-25_12h40.48.685,LearnStrategy,2023.2.3,Win32,59.95203837,,,,,,,,,,,7,06,5,3,,,,,,,,,,,,,,,,,,,,,,,,,,,,,
5c525373e8fee700012f4c90,TCR,2024-06-25_12h40.48.685,LearnStrategy,2023.2.3,Win32,59.95203837,,,,,,,,,,,3,10,5,4,,,,,,,,,,,,,,,,,,,,,,,,,,,,,
5c525373e8fee700012f4c90,TCR,2024-06-25_12h40.48.685,LearnStrategy,2023.2.3,Win32,59.95203837,,,,,,,,,,,5,16,5,5,,,,,,,,,,,,,,,,,,,,,,,,,,,,,
5c525373e8fee700012f4c90,TCR,2024-06-25_12h40.48.685,LearnStrategy,2023.2.3,Win32,59.95203837,,,,,,,,,,,2,12,5,6,,,,,,,,,,,,,,,,,,,,,,,,,,,,,
5c525373e8fee700012f4c90,TCR,2024-06-25_12h40.48.685,LearnStrategy,2023.2.3,Win32,59.95203837,,,,,,,,,,,2,08,5,7,,,,,,,,,,,,,,,,,,,,,,,,,,,,,
5c525373e8fee700012f4c90,TCR,2024-06-25_12h40.48.685,LearnStrategy,2023.2.3,Win32,59.95203837,,,,,,,,,,,4,16,5,8,,,,,,,,,,,,,,,,,,,,,,,,,,,,,
5c525373e8fee700012f4c90,TCR,2024-06-25_12h40.48.685,LearnStrategy,2023.2.3,Win32,59.95203837,,,,,,,,,,,1,01,6,1,,,,,,,,,,,,,,,,,,,,,,,,,,,,,
5c525373e8fee700012f4c90,TCR,2024-06-25_12h40.48.685,LearnStrategy,2023.2.3,Win32,59.95203837,,,,,,,,,,,6,13,6,2,,,,,,,,,,,,,,,,,,,,,,,,,,,,,
5c525373e8fee700012f4c90,TCR,2024-06-25_12h40.48.685,LearnStrategy,2023.2.3,Win32,59.95203837,,,,,,,,,,,3,09,6,3,,,,,,,,,,,,,,,,,,,,,,,,,,,,,
5c525373e8fee700012f4c90,TCR,2024-06-25_12h40.48.685,LearnStrategy,2023.2.3,Win32,59.95203837,,,,,,,,,,,4,03,6,4,,,,,,,,,,,,,,,,,,,,,,,,,,,,,
5c525373e8fee700012f4c90,TCR,2024-06-25_12h40.48.685,LearnStrategy,2023.2.3,Win32,59.95203837,,,,,,,,,,,5,08,6,5,,,,,,,,,,,,,,,,,,,,,,,,,,,,,
5c525373e8fee700012f4c90,TCR,2024-06-25_12h40.48.685,LearnStrategy,2023.2.3,Win32,59.95203837,,,,,,,,,,,4,01,6,6,,,,,,,,,,,,,,,,,,,,,,,,,,,,,
5c525373e8fee700012f4c90,TCR,2024-06-25_12h40.48.685,LearnStrategy,2023.2.3,Win32,59.95203837,,,,,,,,,,,3,14,6,7,,,,,,,,,,,,,,,,,,,,,,,,,,,,,
5c525373e8fee700012f4c90,TCR,2024-06-25_12h40.48.685,LearnStrategy,2023.2.3,Win32,59.95203837,,,,,,,,,,,4,09,6,8,,,,,,,,,,,,,,,,,,,,,,,,,,,,,