participant,condition,date,expName,psychopyVersion,OS,frameRate,block,phase,trial,learn_mouse_2.x,learn_mouse_2.y,learn_mouse_2.leftButton,learn_mouse_2.midButton,learn_mouse_2.rightButton,learn_mouse_2.time,learn_mouse_2.clicked_name,cat,token,row,col,t_select,cat_mouse_l.x,cat_mouse_l.y,cat_mouse_l.leftButton,cat_mouse_l.midButton,cat_mouse_l.rightButton,cat_mouse_l.time,cat_mouse_l.clicked_name,resp,t_resp,corr,train_trials.thisRepN,train_trials.thisTrialN,train_trials.thisN,train_trials.thisIndex,train_trials.ran,cat_mouse_t.x,cat_mouse_t.y,cat_mouse_t.leftButton,cat_mouse_t.midButton,cat_mouse_t.rightButton,cat_mouse_t.time,cat_mouse_t.clicked_name,test_trials.thisRepN,test_trials.thisTrialN,test_trials.thisN,test_trials.thisIndex,test_trials.ran,Bonus
5c560b6fccb08c0001e134a8,TCR,2024-06-21_12h46.45.142,LearnStrategy,2023.2.3,Win32,59.52380952,,,,,,,,,,,,,,,,,,,,,,,,,,,,,,,,,,,,,,,,,,,
5c560b6fccb08c0001e134a8,TCR,2024-06-21_12h46.45.142,LearnStrategy,2023.2.3,Win32,59.52380952,1,1,1,0.12037037,0.006481489,1,0,0,3.1584,rock_grid_rect_2,4,15,-1,-1,3.158,0.424074102,-0.395370413,1,0,0,6.4183,Pumice_rect,8,6.418,0,0,0,0,0,1,,,,,,,,,,,,,
5c560b6fccb08c0001e134a8,TCR,2024-06-21_12h46.45.142,LearnStrategy,2023.2.3,Win32,59.52380952,1,1,2,-0.14907406,0.001851859,1,0,0,1.6054,rock_grid_rect_2,6,06,-1,-1,1.605,-0.372222229,-0.265740783,1,0,0,6.9437,Andesite_rect,1,6.944,0,1,0,1,0,1,,,,,,,,,,,,,
5c560b6fccb08c0001e134a8,TCR,2024-06-21_12h46.45.142,LearnStrategy,2023.2.3,Win32,59.52380952,1,1,3,-0.116666653,-0.014814836,1,0,0,2.2894,rock_grid_rect_2,2,05,-1,-1,2.289,0.049074102,-0.262962977,1,0,0,3.9688,Diorite_rect,3,3.969,0,2,0,2,0,1,,,,,,,,,,,,,
5c560b6fccb08c0001e134a8,TCR,2024-06-21_12h46.45.142,LearnStrategy,2023.2.3,Win32,59.52380952,1,1,4,-0.166666667,-0.01666666,1,0,0,1.497,rock_grid_rect_2,8,08,-1,-1,1.497,0.345370399,-0.390740783,1,0,0,9.5617,Pumice_rect,8,9.562,1,3,0,3,0,1,,,,,,,,,,,,,
5c560b6fccb08c0001e134a8,TCR,2024-06-21_12h46.45.142,LearnStrategy,2023.2.3,Win32,59.52380952,1,1,5,-0.180555556,-0.006481489,1,0,0,1.0638,rock_grid_rect_2,7,10,-1,-1,1.064,-0.39444443,-0.404629672,1,0,0,5.9814,Obsidian_rect,5,5.981,0,4,0,4,0,1,,,,,,,,,,,,,
5c560b6fccb08c0001e134a8,TCR,2024-06-21_12h46.45.142,LearnStrategy,2023.2.3,Win32,59.52380952,1,1,6,-0.175000014,0.01666666,1,0,0,0.9987,rock_grid_rect_2,5,08,-1,-1,0.999,0.08148151,-0.250925912,1,0,0,1.8624,Diorite_rect,3,1.862,0,5,0,5,0,1,,,,,,,,,,,,,
5c560b6fccb08c0001e134a8,TCR,2024-06-21_12h46.45.142,LearnStrategy,2023.2.3,Win32,59.52380952,1,1,7,-0.17777775,0.01944443,1,0,0,0.9477,rock_grid_rect_2,7,04,-1,-1,0.948,-0.39444443,-0.237963005,1,0,0,2.7635,Andesite_rect,1,2.764,0,6,0,6,0,1,,,,,,,,,,,,,
5c560b6fccb08c0001e134a8,TCR,2024-06-21_12h46.45.142,LearnStrategy,2023.2.3,Win32,59.52380952,1,1,8,-0.179629644,0.00462963,1,0,0,1.0314,rock_grid_rect_2,8,10,-1,-1,1.031,0.305555556,-0.400000042,1,0,0,1.6676,Pumice_rect,8,1.668,1,7,0,7,0,1,,,,,,,,,,,,,
5c560b6fccb08c0001e134a8,TCR,2024-06-21_12h46.45.142,LearnStrategy,2023.2.3,Win32,59.52380952,1,1,9,-0.165740755,-0.011111118,1,0,0,1.1672,rock_grid_rect_2,4,10,-1,-1,1.167,-0.316666674,-0.406481496,1,0,0,38.9431,Obsidian_rect,5,38.943,0,8,0,8,0,1,,,,,,,,,,,,,
5c560b6fccb08c0001e134a8,TCR,2024-06-21_12h46.45.142,LearnStrategy,2023.2.3,Win32,59.52380952,1,1,10,-0.098148134,-0.011111118,1,0,0,0.9648,rock_grid_rect_2,3,10,-1,-1,0.965,-0.381481489,-0.25462963,1,0,0,2.4469,Andesite_rect,1,2.447,0,9,0,9,0,1,,,,,,,,,,,,,
5c560b6fccb08c0001e134a8,TCR,2024-06-21_12h46.45.142,LearnStrategy,2023.2.3,Win32,59.52380952,1,1,11,-0.091666681,-0.01666666,1,0,0,0.9982,rock_grid_rect_2,1,10,-1,-1,0.998,-0.388888889,-0.405555584,1,0,0,2.1415,Obsidian_rect,5,2.142,0,10,0,10,0,1,,,,,,,,,,,,,
5c560b6fccb08c0001e134a8,TCR,2024-06-21_12h46.45.142,LearnStrategy,2023.2.3,Win32,59.52380952,1,1,12,-0.125,-0.012962977,1,0,0,0.9813,rock_grid_rect_2,2,16,-1,-1,0.981,-0.206481439,-0.252777806,1,0,0,2.2626,Basalt_rect,2,2.263,1,11,0,11,0,1,,,,,,,,,,,,,
5c560b6fccb08c0001e134a8,TCR,2024-06-21_12h46.45.142,LearnStrategy,2023.2.3,Win32,59.52380952,1,1,13,-0.170370384,-0.006481489,1,0,0,1.64,rock_grid_rect_2,3,12,-1,-1,1.64,0.055555556,-0.415740755,1,0,0,2.1795,Peridotite_rect,7,2.18,0,12,0,12,0,1,,,,,,,,,,,,,
5c560b6fccb08c0001e134a8,TCR,2024-06-21_12h46.45.142,LearnStrategy,2023.2.3,Win32,59.52380952,1,1,14,-0.175925926,-0.005555577,1,0,0,0.9981,rock_grid_rect_2,6,08,-1,-1,0.998,-0.383333312,-0.388888889,1,0,0,1.5943,Obsidian_rect,5,1.594,0,13,0,13,0,1,,,,,,,,,,,,,
5c560b6fccb08c0001e134a8,TCR,2024-06-21_12h46.45.142,LearnStrategy,2023.2.3,Win32,59.52380952,1,1,15,-0.164814772,-0.01203703,1,0,0,11.4069,rock_grid_rect_2,5,05,-1,-1,11.407,-0.387962942,-0.411111125,1,0,0,1.5955,Obsidian_rect,5,1.596,1,14,0,14,0,1,,,,,,,,,,,,,
5c560b6fccb08c0001e134a8,TCR,2024-06-21_12h46.45.142,LearnStrategy,2023.2.3,Win32,59.52380952,1,1,16,-0.131481453,-0.014814836,1,0,0,1.6819,rock_grid_rect_2,1,04,-1,-1,1.682,-0.162037037,-0.239814829,1,0,0,2.9779,Basalt_rect,2,2.978,0,15,0,15,0,1,,,,,,,,,,,,,
5c560b6fccb08c0001e134a8,TCR,2024-06-21_12h46.45.142,LearnStrategy,2023.2.3,Win32,59.52380952,1,2,1,,,,,,,,5,02,,,,,,,,,,,5,1.805,1,,,,,,-0.384259259,-0.396296325,1,0,0,1.8046,Obsidian_rect,0,0,0,0,1,
5c560b6fccb08c0001e134a8,TCR,2024-06-21_12h46.45.142,LearnStrategy,2023.2.3,Win32,59.52380952,1,2,2,,,,,,,,6,13,,,,,,,,,,,6,8.008,1,,,,,,-0.176851838,-0.409259302,1,0,0,8.0077,Pegmatite_rect,1,0,1,0,1,
5c560b6fccb08c0001e134a8,TCR,2024-06-21_12h46.45.142,LearnStrategy,2023.2.3,Win32,59.52380952,1,2,3,,,,,,,,2,10,,,,,,,,,,,5,2.489,0,,,,,,-0.400925919,-0.417592578,1,0,0,2.4886,Obsidian_rect,2,0,2,0,1,
5c560b6fccb08c0001e134a8,TCR,2024-06-21_12h46.45.142,LearnStrategy,2023.2.3,Win32,59.52380952,1,2,4,,,,,,,,4,09,,,,,,,,,,,5,1.181,0,,,,,,-0.41574072,-0.40370369,1,0,0,1.181,Obsidian_rect,3,0,3,0,1,
5c560b6fccb08c0001e134a8,TCR,2024-06-21_12h46.45.142,LearnStrategy,2023.2.3,Win32,59.52380952,1,2,5,,,,,,,,7,02,,,,,,,,,,,3,1.923,0,,,,,,0.086111139,-0.250925912,1,0,0,1.9232,Diorite_rect,4,0,4,0,1,
5c560b6fccb08c0001e134a8,TCR,2024-06-21_12h46.45.142,LearnStrategy,2023.2.3,Win32,59.52380952,1,2,6,,,,,,,,3,08,,,,,,,,,,,7,6.922,0,,,,,,0.054629644,-0.398148148,1,0,0,6.9216,Peridotite_rect,5,0,5,0,1,
5c560b6fccb08c0001e134a8,TCR,2024-06-21_12h46.45.142,LearnStrategy,2023.2.3,Win32,59.52380952,1,2,7,,,,,,,,7,05,,,,,,,,,,,4,4.373,0,,,,,,0.321296268,-0.248148176,1,0,0,4.3734,Gabbro_rect,6,0,6,0,1,
5c560b6fccb08c0001e134a8,TCR,2024-06-21_12h46.45.142,LearnStrategy,2023.2.3,Win32,59.52380952,1,2,8,,,,,,,,8,02,,,,,,,,,,,8,1.188,1,,,,,,0.342592593,-0.391666695,1,0,0,1.1884,Pumice_rect,7,0,7,0,1,
5c560b6fccb08c0001e134a8,TCR,2024-06-21_12h46.45.142,LearnStrategy,2023.2.3,Win32,59.52380952,1,2,9,,,,,,,,6,05,,,,,,,,,,,1,4.214,0,,,,,,-0.408333319,-0.256481524,1,0,0,4.2138,Andesite_rect,8,0,8,0,1,
5c560b6fccb08c0001e134a8,TCR,2024-06-21_12h46.45.142,LearnStrategy,2023.2.3,Win32,59.52380952,1,2,10,,,,,,,,8,16,,,,,,,,,,,8,3.206,1,,,,,,0.350926011,-0.404629672,1,0,0,3.2059,Pumice_rect,9,0,9,0,1,
5c560b6fccb08c0001e134a8,TCR,2024-06-21_12h46.45.142,LearnStrategy,2023.2.3,Win32,59.52380952,1,2,11,,,,,,,,3,13,,,,,,,,,,,7,4.523,0,,,,,,0.075925968,-0.397222236,1,0,0,4.5227,Peridotite_rect,10,0,10,0,1,
5c560b6fccb08c0001e134a8,TCR,2024-06-21_12h46.45.142,LearnStrategy,2023.2.3,Win32,59.52380952,1,2,12,,,,,,,,4,16,,,,,,,,,,,2,2.515,0,,,,,,-0.202777792,-0.250925912,1,0,0,2.5153,Basalt_rect,11,0,11,0,1,
5c560b6fccb08c0001e134a8,TCR,2024-06-21_12h46.45.142,LearnStrategy,2023.2.3,Win32,59.52380952,1,2,13,,,,,,,,1,01,,,,,,,,,,,7,2.681,0,,,,,,0.068518533,-0.408333319,1,0,0,2.6809,Peridotite_rect,12,0,12,0,1,
5c560b6fccb08c0001e134a8,TCR,2024-06-21_12h46.45.142,LearnStrategy,2023.2.3,Win32,59.52380952,1,2,14,,,,,,,,2,01,,,,,,,,,,,2,2.972,1,,,,,,-0.183333291,-0.263888889,1,0,0,2.9722,Basalt_rect,13,0,13,0,1,
5c560b6fccb08c0001e134a8,TCR,2024-06-21_12h46.45.142,LearnStrategy,2023.2.3,Win32,59.52380952,1,2,15,,,,,,,,1,07,,,,,,,,,,,3,4.023,0,,,,,,0.074999986,-0.229629658,1,0,0,4.0225,Diorite_rect,14,0,14,0,1,
5c560b6fccb08c0001e134a8,TCR,2024-06-21_12h46.45.142,LearnStrategy,2023.2.3,Win32,59.52380952,1,2,16,,,,,,,,5,16,,,,,,,,,,,5,1.212,1,,,,,,-0.404629637,-0.402777778,1,0,0,1.2118,Obsidian_rect,15,0,15,0,1,
5c560b6fccb08c0001e134a8,TCR,2024-06-21_12h46.45.142,LearnStrategy,2023.2.3,Win32,59.52380952,2,1,1,-0.17314812,-0.003703718,1,0,0,1.397,rock_grid_rect_2,3,12,-1,-1,1.397,-0.419444437,-0.250925912,1,0,0,4.4646,Andesite_rect,1,4.465,0,0,0,0,0,1,,,,,,,,,,,,,
5c560b6fccb08c0001e134a8,TCR,2024-06-21_12h46.45.142,LearnStrategy,2023.2.3,Win32,59.52380952,2,1,2,-0.178703661,-0.000925947,1,0,0,1.1052,rock_grid_rect_2,4,01,-1,-1,1.105,-0.378703683,-0.268518519,1,0,0,9.0786,Andesite_rect,1,9.079,0,1,0,1,0,1,,,,,,,,,,,,,
5c560b6fccb08c0001e134a8,TCR,2024-06-21_12h46.45.142,LearnStrategy,2023.2.3,Win32,59.52380952,2,1,3,-0.196296268,-0.019444466,1,0,0,1.0898,rock_grid_rect_2,2,16,-1,-1,1.09,-0.214814787,-0.255555541,1,0,0,1.3284,Basalt_rect,2,1.328,1,2,0,2,0,1,,,,,,,,,,,,,
5c560b6fccb08c0001e134a8,TCR,2024-06-21_12h46.45.142,LearnStrategy,2023.2.3,Win32,59.52380952,2,1,4,-0.199999986,-0.006481489,1,0,0,0.8482,rock_grid_rect_2,4,01,-1,-1,0.848,0.378703788,-0.252777806,1,0,0,5.0542,Gabbro_rect,4,5.054,1,3,0,3,0,1,,,,,,,,,,,,,
5c560b6fccb08c0001e134a8,TCR,2024-06-21_12h46.45.142,LearnStrategy,2023.2.3,Win32,59.52380952,2,1,5,-0.155555513,-0.015740748,1,0,0,1.0311,rock_grid_rect_2,6,08,-1,-1,1.031,-0.156481496,-0.402777778,1,0,0,4.8369,Pegmatite_rect,6,4.837,1,4,0,4,0,1,,,,,,,,,,,,,
5c560b6fccb08c0001e134a8,TCR,2024-06-21_12h46.45.142,LearnStrategy,2023.2.3,Win32,59.52380952,2,1,6,-0.15370369,-0.005555577,1,0,0,0.8826,rock_grid_rect_2,2,16,-1,-1,0.883,-0.182407379,-0.253703718,1,0,0,1.4912,Basalt_rect,2,1.491,1,5,0,5,0,1,,,,,,,,,,,,,
5c560b6fccb08c0001e134a8,TCR,2024-06-21_12h46.45.142,LearnStrategy,2023.2.3,Win32,59.52380952,2,1,7,-0.176851838,-0.012962977,1,0,0,0.7811,rock_grid_rect_2,7,10,-1,-1,0.781,0.083333333,-0.402777778,1,0,0,1.5568,Peridotite_rect,7,1.557,1,6,0,6,0,1,,,,,,,,,,,,,
5c560b6fccb08c0001e134a8,TCR,2024-06-21_12h46.45.142,LearnStrategy,2023.2.3,Win32,59.52380952,2,1,8,-0.143518519,0.001851859,1,0,0,0.7985,rock_grid_rect_2,1,10,-1,-1,0.798,-0.375,-0.236111111,1,0,0,3.2109,Andesite_rect,1,3.211,1,7,0,7,0,1,,,,,,,,,,,,,
5c560b6fccb08c0001e134a8,TCR,2024-06-21_12h46.45.142,LearnStrategy,2023.2.3,Win32,59.52380952,2,1,9,-0.17777775,-0.001851859,1,0,0,1.5733,rock_grid_rect_2,3,02,-1,-1,1.573,0.070370356,-0.24537037,1,0,0,12.2614,Diorite_rect,3,12.261,1,8,0,8,0,1,,,,,,,,,,,,,
5c560b6fccb08c0001e134a8,TCR,2024-06-21_12h46.45.142,LearnStrategy,2023.2.3,Win32,59.52380952,2,1,10,0.049074102,-0.00462963,1,0,0,4.477,rock_grid_rect_2,7,07,-1,-1,4.477,-0.439814815,-0.242592635,1,0,0,2.7096,Andesite_rect,1,2.71,0,9,0,9,0,1,,,,,,,,,,,,,
5c560b6fccb08c0001e134a8,TCR,2024-06-21_12h46.45.142,LearnStrategy,2023.2.3,Win32,59.52380952,2,1,11,-0.118518476,-0.006481489,1,0,0,0.7067,rock_grid_rect_2,3,07,-1,-1,0.707,-0.404629637,-0.235185199,1,0,0,1.2111,Andesite_rect,1,1.211,0,10,0,10,0,1,,,,,,,,,,,,,
5c560b6fccb08c0001e134a8,TCR,2024-06-21_12h46.45.142,LearnStrategy,2023.2.3,Win32,59.52380952,2,1,12,-0.150925884,-0.012962977,1,0,0,0.8985,rock_grid_rect_2,4,13,-1,-1,0.899,-0.123148106,-0.262037065,1,0,0,1.495,Basalt_rect,2,1.495,0,11,0,11,0,1,,,,,,,,,,,,,
5c560b6fccb08c0001e134a8,TCR,2024-06-21_12h46.45.142,LearnStrategy,2023.2.3,Win32,59.52380952,2,1,13,-0.12037037,0.002777771,1,0,0,0.7484,rock_grid_rect_2,5,05,-1,-1,0.748,-0.377777771,-0.401851866,1,0,0,1.6118,Obsidian_rect,5,1.612,1,12,0,12,0,1,,,,,,,,,,,,,
5c560b6fccb08c0001e134a8,TCR,2024-06-21_12h46.45.142,LearnStrategy,2023.2.3,Win32,59.52380952,2,1,14,-0.156481496,-0.005555577,1,0,0,0.8478,rock_grid_rect_2,1,09,-1,-1,0.848,-0.06759255,-0.400925954,1,0,0,3.1949,Pegmatite_rect,6,3.195,0,13,0,13,0,1,,,,,,,,,,,,,
5c560b6fccb08c0001e134a8,TCR,2024-06-21_12h46.45.142,LearnStrategy,2023.2.3,Win32,59.52380952,2,1,15,-0.165740755,-0.005555577,1,0,0,1.4809,rock_grid_rect_2,1,02,-1,-1,1.481,0.074999986,-0.263888889,1,0,0,2.1453,Diorite_rect,3,2.145,0,14,0,14,0,1,,,,,,,,,,,,,
5c560b6fccb08c0001e134a8,TCR,2024-06-21_12h46.45.142,LearnStrategy,2023.2.3,Win32,59.52380952,2,1,16,-0.136111083,-0.017592607,1,0,0,1.0647,rock_grid_rect_2,7,06,-1,-1,1.065,0.086111139,-0.39907406,1,0,0,3.3765,Peridotite_rect,7,3.376,1,15,0,15,0,1,,,,,,,,,,,,,
5c560b6fccb08c0001e134a8,TCR,2024-06-21_12h46.45.142,LearnStrategy,2023.2.3,Win32,59.52380952,2,2,1,,,,,,,,1,03,,,,,,,,,,,1,64.06,1,,,,,,-0.449999986,-0.255555541,1,0,0,64.0599,Andesite_rect,0,0,0,0,1,
5c560b6fccb08c0001e134a8,TCR,2024-06-21_12h46.45.142,LearnStrategy,2023.2.3,Win32,59.52380952,2,2,2,,,,,,,,1,06,,,,,,,,,,,1,5.532,1,,,,,,-0.383333312,-0.228703746,1,0,0,5.532,Andesite_rect,1,0,1,0,1,
5c560b6fccb08c0001e134a8,TCR,2024-06-21_12h46.45.142,LearnStrategy,2023.2.3,Win32,59.52380952,2,2,3,,,,,,,,8,14,,,,,,,,,,,8,1.157,1,,,,,,0.338888945,-0.400000042,1,0,0,1.1569,Pumice_rect,2,0,2,0,1,
5c560b6fccb08c0001e134a8,TCR,2024-06-21_12h46.45.142,LearnStrategy,2023.2.3,Win32,59.52380952,2,2,4,,,,,,,,4,03,,,,,,,,,,,4,4.19,1,,,,,,0.337962963,-0.268518519,1,0,0,4.1895,Gabbro_rect,3,0,3,0,1,
5c560b6fccb08c0001e134a8,TCR,2024-06-21_12h46.45.142,LearnStrategy,2023.2.3,Win32,59.52380952,2,2,5,,,,,,,,6,10,,,,,,,,,,,7,3.451,0,,,,,,0.070370356,-0.407407407,1,0,0,3.4513,Peridotite_rect,4,0,4,0,1,
5c560b6fccb08c0001e134a8,TCR,2024-06-21_12h46.45.142,LearnStrategy,2023.2.3,Win32,59.52380952,2,2,6,,,,,,,,8,04,,,,,,,,,,,8,1.44,1,,,,,,0.356481481,-0.411111125,1,0,0,1.4399,Pumice_rect,5,0,5,0,1,
5c560b6fccb08c0001e134a8,TCR,2024-06-21_12h46.45.142,LearnStrategy,2023.2.3,Win32,59.52380952,2,2,7,,,,,,,,4,05,,,,,,,,,,,2,4.064,0,,,,,,-0.201851809,-0.244444459,1,0,0,4.0637,Basalt_rect,6,0,6,0,1,
5c560b6fccb08c0001e134a8,TCR,2024-06-21_12h46.45.142,LearnStrategy,2023.2.3,Win32,59.52380952,2,2,8,,,,,,,,3,09,,,,,,,,,,,6,2.473,0,,,,,,-0.160185143,-0.400925954,1,0,0,2.4732,Pegmatite_rect,7,0,7,0,1,
5c560b6fccb08c0001e134a8,TCR,2024-06-21_12h46.45.142,LearnStrategy,2023.2.3,Win32,59.52380952,2,2,9,,,,,,,,6,15,,,,,,,,,,,7,3.189,0,,,,,,0.088888875,-0.412037037,1,0,0,3.1892,Peridotite_rect,8,0,8,0,1,
5c560b6fccb08c0001e134a8,TCR,2024-06-21_12h46.45.142,LearnStrategy,2023.2.3,Win32,59.52380952,2,2,10,,,,,,,,5,14,,,,,,,,,,,5,1.129,1,,,,,,-0.366666653,-0.400000042,1,0,0,1.1292,Obsidian_rect,9,0,9,0,1,
5c560b6fccb08c0001e134a8,TCR,2024-06-21_12h46.45.142,LearnStrategy,2023.2.3,Win32,59.52380952,2,2,11,,,,,,,,3,16,,,,,,,,,,,1,16.708,0,,,,,,-0.387962942,-0.260185171,1,0,0,16.708,Andesite_rect,10,0,10,0,1,
5c560b6fccb08c0001e134a8,TCR,2024-06-21_12h46.45.142,LearnStrategy,2023.2.3,Win32,59.52380952,2,2,12,,,,,,,,2,09,,,,,,,,,,,1,4.322,0,,,,,,-0.39166666,-0.248148176,1,0,0,4.3222,Andesite_rect,11,0,11,0,1,
5c560b6fccb08c0001e134a8,TCR,2024-06-21_12h46.45.142,LearnStrategy,2023.2.3,Win32,59.52380952,2,2,13,,,,,,,,2,12,,,,,,,,,,,8,1.174,0,,,,,,0.347222222,-0.396296325,1,0,0,1.1742,Pumice_rect,12,0,12,0,1,
5c560b6fccb08c0001e134a8,TCR,2024-06-21_12h46.45.142,LearnStrategy,2023.2.3,Win32,59.52380952,2,2,14,,,,,,,,5,06,,,,,,,,,,,5,0.973,1,,,,,,-0.355555534,-0.405555584,1,0,0,0.9727,Obsidian_rect,13,0,13,0,1,
5c560b6fccb08c0001e134a8,TCR,2024-06-21_12h46.45.142,LearnStrategy,2023.2.3,Win32,59.52380952,2,2,15,,,,,,,,7,08,,,,,,,,,,,3,4.073,0,,,,,,0.075925968,-0.239814829,1,0,0,4.073,Diorite_rect,14,0,14,0,1,
5c560b6fccb08c0001e134a8,TCR,2024-06-21_12h46.45.142,LearnStrategy,2023.2.3,Win32,59.52380952,2,2,16,,,,,,,,7,14,,,,,,,,,,,1,1.343,0,,,,,,-0.368518511,-0.25462963,1,0,0,1.3434,Andesite_rect,15,0,15,0,1,
5c560b6fccb08c0001e134a8,TCR,2024-06-21_12h46.45.142,LearnStrategy,2023.2.3,Win32,59.52380952,3,1,1,0.018518519,-0.000925947,1,0,0,2.1633,rock_grid_rect_2,7,13,-1,-1,2.163,-0.132407365,-0.261111153,1,0,0,9.3976,Basalt_rect,2,9.398,0,0,0,0,0,1,,,,,,,,,,,,,
5c560b6fccb08c0001e134a8,TCR,2024-06-21_12h46.45.142,LearnStrategy,2023.2.3,Win32,59.52380952,3,1,2,-0.145370342,-0.009259259,1,0,0,0.8309,rock_grid_rect_2,6,16,-1,-1,0.831,0.066666709,-0.25462963,1,0,0,5.2109,Diorite_rect,3,5.211,0,1,0,1,0,1,,,,,,,,,,,,,
5c560b6fccb08c0001e134a8,TCR,2024-06-21_12h46.45.142,LearnStrategy,2023.2.3,Win32,59.52380952,3,1,3,-0.103703675,0.006481489,1,0,0,1.4811,rock_grid_rect_2,4,12,-1,-1,1.481,-0.130555541,-0.249074088,1,0,0,1.5622,Basalt_rect,2,1.562,0,2,0,2,0,1,,,,,,,,,,,,,
5c560b6fccb08c0001e134a8,TCR,2024-06-21_12h46.45.142,LearnStrategy,2023.2.3,Win32,59.52380952,3,1,4,-0.06759255,-0.005555577,1,0,0,0.7478,rock_grid_rect_2,4,13,-1,-1,0.748,-0.111111111,-0.253703718,1,0,0,2.0615,Basalt_rect,2,2.062,0,3,0,3,0,1,,,,,,,,,,,,,
5c560b6fccb08c0001e134a8,TCR,2024-06-21_12h46.45.142,LearnStrategy,2023.2.3,Win32,59.52380952,3,1,5,-0.084259245,-0.014814836,1,0,0,0.7982,rock_grid_rect_2,6,03,-1,-1,0.798,-0.396296289,-0.249074088,1,0,0,8.178,Andesite_rect,1,8.178,0,4,0,4,0,1,,,,,,,,,,,,,
5c560b6fccb08c0001e134a8,TCR,2024-06-21_12h46.45.142,LearnStrategy,2023.2.3,Win32,59.52380952,3,1,6,-0.078703704,-0.005555577,1,0,0,0.8482,rock_grid_rect_2,2,08,-1,-1,0.848,0.354629658,-0.251851894,1,0,0,8.8035,Gabbro_rect,4,8.804,0,5,0,5,0,1,,,,,,,,,,,,,
5c560b6fccb08c0001e134a8,TCR,2024-06-21_12h46.45.142,LearnStrategy,2023.2.3,Win32,59.52380952,3,1,7,-0.12962963,-0.000925947,1,0,0,0.8141,rock_grid_rect_2,2,06,-1,-1,0.814,-0.159259231,-0.261111153,1,0,0,1.1041,Basalt_rect,2,1.104,1,6,0,6,0,1,,,,,,,,,,,,,
5c560b6fccb08c0001e134a8,TCR,2024-06-21_12h46.45.142,LearnStrategy,2023.2.3,Win32,59.52380952,3,1,8,-0.135185171,-0.01203703,1,0,0,0.8488,rock_grid_rect_2,7,12,-1,-1,0.849,0.067592621,-0.39444443,1,0,0,2.9767,Peridotite_rect,7,2.977,1,7,0,7,0,1,,,,,,,,,,,,,
5c560b6fccb08c0001e134a8,TCR,2024-06-21_12h46.45.142,LearnStrategy,2023.2.3,Win32,59.52380952,3,1,9,-0.133333347,-0.0074074,1,0,0,1.5639,rock_grid_rect_2,7,07,-1,-1,1.564,-0.135185171,-0.400925954,1,0,0,4.1952,Pegmatite_rect,6,4.195,0,8,0,8,0,1,,,,,,,,,,,,,
5c560b6fccb08c0001e134a8,TCR,2024-06-21_12h46.45.142,LearnStrategy,2023.2.3,Win32,59.52380952,3,1,10,-0.091666681,-0.018518519,1,0,0,0.8477,rock_grid_rect_2,3,11,-1,-1,0.848,0.067592621,-0.264814801,1,0,0,4.1299,Diorite_rect,3,4.13,1,9,0,9,0,1,,,,,,,,,,,,,
5c560b6fccb08c0001e134a8,TCR,2024-06-21_12h46.45.142,LearnStrategy,2023.2.3,Win32,59.52380952,3,1,11,-0.06759255,0.009259259,1,0,0,0.8147,rock_grid_rect_2,1,14,-1,-1,0.815,-0.140740712,-0.253703718,1,0,0,1.861,Basalt_rect,2,1.861,0,10,0,10,0,1,,,,,,,,,,,,,
5c560b6fccb08c0001e134a8,TCR,2024-06-21_12h46.45.142,LearnStrategy,2023.2.3,Win32,59.52380952,3,1,12,-0.14907406,-0.011111118,1,0,0,0.7989,rock_grid_rect_2,6,06,-1,-1,0.799,0.051851838,-0.395370413,1,0,0,10.2356,Peridotite_rect,7,10.236,0,11,0,11,0,1,,,,,,,,,,,,,
5c560b6fccb08c0001e134a8,TCR,2024-06-21_12h46.45.142,LearnStrategy,2023.2.3,Win32,59.52380952,3,1,13,-0.109259217,0.010185171,1,0,0,0.7533,rock_grid_rect_2,3,10,-1,-1,0.753,0.08148151,-0.419444473,1,0,0,2.3002,Peridotite_rect,7,2.3,0,12,0,12,0,1,,,,,,,,,,,,,
5c560b6fccb08c0001e134a8,TCR,2024-06-21_12h46.45.142,LearnStrategy,2023.2.3,Win32,59.52380952,3,1,14,-0.113888847,-0.009259259,1,0,0,0.7978,rock_grid_rect_2,1,04,-1,-1,0.798,0.079629616,-0.261111153,1,0,0,1.3304,Diorite_rect,3,1.33,0,13,0,13,0,1,,,,,,,,,,,,,
5c560b6fccb08c0001e134a8,TCR,2024-06-21_12h46.45.142,LearnStrategy,2023.2.3,Win32,59.52380952,3,1,15,-0.146296254,0.0074074,1,0,0,1.5814,rock_grid_rect_2,3,11,-1,-1,1.581,0.080555598,-0.237037023,1,0,0,2.7621,Diorite_rect,3,2.762,1,14,0,14,0,1,,,,,,,,,,,,,
5c560b6fccb08c0001e134a8,TCR,2024-06-21_12h46.45.142,LearnStrategy,2023.2.3,Win32,59.52380952,3,1,16,-0.097222222,0.006481489,1,0,0,0.7309,rock_grid_rect_2,2,16,-1,-1,0.731,-0.159259231,-0.229629658,1,0,0,0.9969,Basalt_rect,2,0.997,1,15,0,15,0,1,,,,,,,,,,,,,
5c560b6fccb08c0001e134a8,TCR,2024-06-21_12h46.45.142,LearnStrategy,2023.2.3,Win32,59.52380952,3,2,1,,,,,,,,5,09,,,,,,,,,,,5,2.906,1,,,,,,-0.346296275,-0.40370369,1,0,0,2.9057,Obsidian_rect,0,0,0,0,1,
5c560b6fccb08c0001e134a8,TCR,2024-06-21_12h46.45.142,LearnStrategy,2023.2.3,Win32,59.52380952,3,2,2,,,,,,,,3,15,,,,,,,,,,,1,12.24,0,,,,,,-0.345370363,-0.261111153,1,0,0,12.2404,Andesite_rect,1,0,1,0,1,
5c560b6fccb08c0001e134a8,TCR,2024-06-21_12h46.45.142,LearnStrategy,2023.2.3,Win32,59.52380952,3,2,3,,,,,,,,2,04,,,,,,,,,,,2,3.531,1,,,,,,-0.181481467,-0.237037023,1,0,0,3.5312,Basalt_rect,2,0,2,0,1,
5c560b6fccb08c0001e134a8,TCR,2024-06-21_12h46.45.142,LearnStrategy,2023.2.3,Win32,59.52380952,3,2,4,,,,,,,,6,07,,,,,,,,,,,6,2.007,1,,,,,,-0.186111097,-0.40370369,1,0,0,2.0069,Pegmatite_rect,3,0,3,0,1,
5c560b6fccb08c0001e134a8,TCR,2024-06-21_12h46.45.142,LearnStrategy,2023.2.3,Win32,59.52380952,3,2,5,,,,,,,,8,15,,,,,,,,,,,8,1.504,1,,,,,,0.354629658,-0.397222236,1,0,0,1.5044,Pumice_rect,4,0,4,0,1,
5c560b6fccb08c0001e134a8,TCR,2024-06-21_12h46.45.142,LearnStrategy,2023.2.3,Win32,59.52380952,3,2,6,,,,,,,,7,15,,,,,,,,,,,7,1.339,1,,,,,,0.07222225,-0.396296325,1,0,0,1.339,Peridotite_rect,5,0,5,0,1,
5c560b6fccb08c0001e134a8,TCR,2024-06-21_12h46.45.142,LearnStrategy,2023.2.3,Win32,59.52380952,3,2,7,,,,,,,,7,16,,,,,,,,,,,7,2.807,1,,,,,,0.054629644,-0.407407407,1,0,0,2.8071,Peridotite_rect,6,0,6,0,1,
5c560b6fccb08c0001e134a8,TCR,2024-06-21_12h46.45.142,LearnStrategy,2023.2.3,Win32,59.52380952,3,2,8,,,,,,,,1,16,,,,,,,,,,,1,2.624,1,,,,,,-0.360185164,-0.256481524,1,0,0,2.6242,Andesite_rect,7,0,7,0,1,
5c560b6fccb08c0001e134a8,TCR,2024-06-21_12h46.45.142,LearnStrategy,2023.2.3,Win32,59.52380952,3,2,9,,,,,,,,1,05,,,,,,,,,,,1,1.089,1,,,,,,-0.345370363,-0.257407436,1,0,0,1.0887,Andesite_rect,8,0,8,0,1,
5c560b6fccb08c0001e134a8,TCR,2024-06-21_12h46.45.142,LearnStrategy,2023.2.3,Win32,59.52380952,3,2,10,,,,,,,,6,11,,,,,,,,,,,6,1.59,1,,,,,,-0.17314812,-0.397222236,1,0,0,1.59,Pegmatite_rect,9,0,9,0,1,
5c560b6fccb08c0001e134a8,TCR,2024-06-21_12h46.45.142,LearnStrategy,2023.2.3,Win32,59.52380952,3,2,11,,,,,,,,4,08,,,,,,,,,,,1,3.706,0,,,,,,-0.39166666,-0.244444459,1,0,0,3.7061,Andesite_rect,10,0,10,0,1,
5c560b6fccb08c0001e134a8,TCR,2024-06-21_12h46.45.142,LearnStrategy,2023.2.3,Win32,59.52380952,3,2,12,,,,,,,,4,14,,,,,,,,,,,2,1.289,0,,,,,,-0.164814772,-0.265740783,1,0,0,1.2893,Basalt_rect,11,0,11,0,1,
5c560b6fccb08c0001e134a8,TCR,2024-06-21_12h46.45.142,LearnStrategy,2023.2.3,Win32,59.52380952,3,2,13,,,,,,,,8,09,,,,,,,,,,,8,1.173,1,,,,,,0.35555564,-0.405555584,1,0,0,1.1732,Pumice_rect,12,0,12,0,1,
5c560b6fccb08c0001e134a8,TCR,2024-06-21_12h46.45.142,LearnStrategy,2023.2.3,Win32,59.52380952,3,2,14,,,,,,,,5,10,,,,,,,,,,,6,2.056,0,,,,,,-0.175000014,-0.391666695,1,0,0,2.0561,Pegmatite_rect,13,0,13,0,1,
5c560b6fccb08c0001e134a8,TCR,2024-06-21_12h46.45.142,LearnStrategy,2023.2.3,Win32,59.52380952,3,2,15,,,,,,,,3,06,,,,,,,,,,,3,6.123,1,,,,,,0.066666709,-0.246296282,1,0,0,6.123,Diorite_rect,14,0,14,0,1,
5c560b6fccb08c0001e134a8,TCR,2024-06-21_12h46.45.142,LearnStrategy,2023.2.3,Win32,59.52380952,3,2,16,,,,,,,,2,14,,,,,,,,,,,8,1.432,0,,,,,,0.358333305,-0.397222236,1,0,0,1.4321,Pumice_rect,15,0,15,0,1,
5c560b6fccb08c0001e134a8,TCR,2024-06-21_12h46.45.142,LearnStrategy,2023.2.3,Win32,59.52380952,4,1,1,-0.138888889,-0.019444466,1,0,0,1.0135,rock_grid_rect_2,2,16,-1,-1,1.014,-0.150925884,-0.255555541,1,0,0,1.4951,Basalt_rect,2,1.495,1,0,0,0,0,1,,,,,,,,,,,,,
5c560b6fccb08c0001e134a8,TCR,2024-06-21_12h46.45.142,LearnStrategy,2023.2.3,Win32,59.52380952,4,1,2,-0.125,0.01203703,1,0,0,1.3479,rock_grid_rect_2,3,10,-1,-1,1.348,0.111111111,-0.251851894,1,0,0,1.4142,Diorite_rect,3,1.414,1,1,0,1,0,1,,,,,,,,,,,,,
5c560b6fccb08c0001e134a8,TCR,2024-06-21_12h46.45.142,LearnStrategy,2023.2.3,Win32,59.52380952,4,1,3,-0.06759255,-0.006481489,1,0,0,0.7809,rock_grid_rect_2,7,12,-1,-1,0.781,0.098148134,-0.260185171,1,0,0,1.2954,Diorite_rect,3,1.295,0,2,0,2,0,1,,,,,,,,,,,,,
5c560b6fccb08c0001e134a8,TCR,2024-06-21_12h46.45.142,LearnStrategy,2023.2.3,Win32,59.52380952,4,1,4,-0.051851838,0.021296289,1,0,0,0.8234,rock_grid_rect_2,4,13,-1,-1,0.823,-0.112962935,-0.242592635,1,0,0,1.1782,Basalt_rect,2,1.178,0,3,0,3,0,1,,,,,,,,,,,,,
5c560b6fccb08c0001e134a8,TCR,2024-06-21_12h46.45.142,LearnStrategy,2023.2.3,Win32,59.52380952,4,1,5,-0.044444402,0.003703683,1,0,0,0.765,rock_grid_rect_2,8,05,-1,-1,0.765,0.335185157,-0.389814801,1,0,0,1.7871,Pumice_rect,8,1.787,1,4,0,4,0,1,,,,,,,,,,,,,
5c560b6fccb08c0001e134a8,TCR,2024-06-21_12h46.45.142,LearnStrategy,2023.2.3,Win32,59.52380952,4,1,6,-0.021296254,0.000925912,1,0,0,0.6814,rock_grid_rect_2,2,02,-1,-1,0.681,-0.091666681,-0.246296282,1,0,0,0.9716,Basalt_rect,2,0.972,1,5,0,5,0,1,,,,,,,,,,,,,
5c560b6fccb08c0001e134a8,TCR,2024-06-21_12h46.45.142,LearnStrategy,2023.2.3,Win32,59.52380952,4,1,7,-0.021296254,0.006481489,1,0,0,0.7645,rock_grid_rect_2,3,02,-1,-1,0.764,-0.098148134,-0.407407407,1,0,0,1.62,Pegmatite_rect,6,1.62,0,6,0,6,0,1,,,,,,,,,,,,,
5c560b6fccb08c0001e134a8,TCR,2024-06-21_12h46.45.142,LearnStrategy,2023.2.3,Win32,59.52380952,4,1,8,-0.037962949,-0.006481489,1,0,0,0.8308,rock_grid_rect_2,3,11,-1,-1,0.831,0.074074074,-0.251851894,1,0,0,1.2787,Diorite_rect,3,1.279,1,7,0,7,0,1,,,,,,,,,,,,,
5c560b6fccb08c0001e134a8,TCR,2024-06-21_12h46.45.142,LearnStrategy,2023.2.3,Win32,59.52380952,4,1,9,-0.045370384,-0.024074095,1,0,0,0.7816,rock_grid_rect_2,4,12,-1,-1,0.782,-0.101851852,-0.244444459,1,0,0,1.378,Basalt_rect,2,1.378,0,8,0,8,0,1,,,,,,,,,,,,,
5c560b6fccb08c0001e134a8,TCR,2024-06-21_12h46.45.142,LearnStrategy,2023.2.3,Win32,59.52380952,4,1,10,0.044444473,-0.001851859,1,0,0,0.7983,rock_grid_rect_2,7,13,-1,-1,0.798,-0.086111069,-0.392592607,1,0,0,1.8369,Pegmatite_rect,6,1.837,0,9,0,9,0,1,,,,,,,,,,,,,
5c560b6fccb08c0001e134a8,TCR,2024-06-21_12h46.45.142,LearnStrategy,2023.2.3,Win32,59.52380952,4,1,11,0.002777806,-0.0074074,1,0,0,0.7825,rock_grid_rect_2,6,08,-1,-1,0.783,-0.174074032,-0.395370413,1,0,0,3.3082,Pegmatite_rect,6,3.308,1,10,0,10,0,1,,,,,,,,,,,,,
5c560b6fccb08c0001e134a8,TCR,2024-06-21_12h46.45.142,LearnStrategy,2023.2.3,Win32,59.52380952,4,1,12,-0.04814812,-0.003703718,1,0,0,0.7638,rock_grid_rect_2,1,11,-1,-1,0.764,0.33148151,-0.266666695,1,0,0,2.8786,Gabbro_rect,4,2.879,0,11,0,11,0,1,,,,,,,,,,,,,
5c560b6fccb08c0001e134a8,TCR,2024-06-21_12h46.45.142,LearnStrategy,2023.2.3,Win32,59.52380952,4,1,13,-0.143518519,0.003703683,1,0,0,0.7647,rock_grid_rect_2,2,06,-1,-1,0.765,-0.364814794,-0.40370369,1,0,0,1.8618,Obsidian_rect,5,1.862,0,12,0,12,0,1,,,,,,,,,,,,,
5c560b6fccb08c0001e134a8,TCR,2024-06-21_12h46.45.142,LearnStrategy,2023.2.3,Win32,59.52380952,4,1,14,-0.134259259,-0.022222236,1,0,0,0.7481,rock_grid_rect_2,6,08,-1,-1,0.748,-0.183333291,-0.393518519,1,0,0,4.7784,Pegmatite_rect,6,4.778,1,13,0,13,0,1,,,,,,,,,,,,,
5c560b6fccb08c0001e134a8,TCR,2024-06-21_12h46.45.142,LearnStrategy,2023.2.3,Win32,59.52380952,4,1,15,-0.134259259,0.01944443,1,0,0,0.6981,rock_grid_rect_2,5,08,-1,-1,0.698,-0.35833334,-0.384259259,1,0,0,2.2554,Obsidian_rect,5,2.255,1,14,0,14,0,1,,,,,,,,,,,,,
5c560b6fccb08c0001e134a8,TCR,2024-06-21_12h46.45.142,LearnStrategy,2023.2.3,Win32,59.52380952,4,1,16,-0.109259217,-0.01666666,1,0,0,0.7473,rock_grid_rect_2,4,01,-1,-1,0.747,-0.374074053,-0.242592635,1,0,0,12.3452,Andesite_rect,1,12.345,0,15,0,15,0,1,,,,,,,,,,,,,
5c560b6fccb08c0001e134a8,TCR,2024-06-21_12h46.45.142,LearnStrategy,2023.2.3,Win32,59.52380952,4,2,1,,,,,,,,5,02,,,,,,,,,,,5,1.073,1,,,,,,-0.372222229,-0.412962949,1,0,0,1.0733,Obsidian_rect,0,0,0,0,1,
5c560b6fccb08c0001e134a8,TCR,2024-06-21_12h46.45.142,LearnStrategy,2023.2.3,Win32,59.52380952,4,2,2,,,,,,,,1,01,,,,,,,,,,,1,5.605,1,,,,,,-0.357407393,-0.262037065,1,0,0,5.6051,Andesite_rect,1,0,1,0,1,
5c560b6fccb08c0001e134a8,TCR,2024-06-21_12h46.45.142,LearnStrategy,2023.2.3,Win32,59.52380952,4,2,3,,,,,,,,6,10,,,,,,,,,,,7,2.832,0,,,,,,0.094444487,-0.39444443,1,0,0,2.8325,Peridotite_rect,2,0,2,0,1,
5c560b6fccb08c0001e134a8,TCR,2024-06-21_12h46.45.142,LearnStrategy,2023.2.3,Win32,59.52380952,4,2,4,,,,,,,,3,06,,,,,,,,,,,3,2.806,1,,,,,,0.098148134,-0.246296282,1,0,0,2.8061,Diorite_rect,3,0,3,0,1,
5c560b6fccb08c0001e134a8,TCR,2024-06-21_12h46.45.142,LearnStrategy,2023.2.3,Win32,59.52380952,4,2,5,,,,,,,,8,02,,,,,,,,,,,8,1.197,1,,,,,,0.342592593,-0.395370413,1,0,0,1.1971,Pumice_rect,4,0,4,0,1,
5c560b6fccb08c0001e134a8,TCR,2024-06-21_12h46.45.142,LearnStrategy,2023.2.3,Win32,59.52380952,4,2,6,,,,,,,,1,06,,,,,,,,,,,4,8.217,0,,,,,,0.334259316,-0.231481481,1,0,0,8.2175,Gabbro_rect,5,0,5,0,1,
5c560b6fccb08c0001e134a8,TCR,2024-06-21_12h46.45.142,LearnStrategy,2023.2.3,Win32,59.52380952,4,2,7,,,,,,,,3,16,,,,,,,,,,,3,2.289,1,,,,,,0.162037037,-0.237037023,1,0,0,2.2887,Diorite_rect,6,0,6,0,1,
5c560b6fccb08c0001e134a8,TCR,2024-06-21_12h46.45.142,LearnStrategy,2023.2.3,Win32,59.52380952,4,2,8,,,,,,,,2,01,,,,,,,,,,,2,1.089,1,,,,,,-0.152777778,-0.259259259,1,0,0,1.0889,Basalt_rect,7,0,7,0,1,
5c560b6fccb08c0001e134a8,TCR,2024-06-21_12h46.45.142,LearnStrategy,2023.2.3,Win32,59.52380952,4,2,9,,,,,,,,6,15,,,,,,,,,,,6,1.251,1,,,,,,-0.184259273,-0.388888889,1,0,0,1.2506,Pegmatite_rect,8,0,8,0,1,
5c560b6fccb08c0001e134a8,TCR,2024-06-21_12h46.45.142,LearnStrategy,2023.2.3,Win32,59.52380952,4,2,10,,,,,,,,8,04,,,,,,,,,,,8,1.155,1,,,,,,0.350000028,-0.392592607,1,0,0,1.1552,Pumice_rect,9,0,9,0,1,
5c560b6fccb08c0001e134a8,TCR,2024-06-21_12h46.45.142,LearnStrategy,2023.2.3,Win32,59.52380952,4,2,11,,,,,,,,7,02,,,,,,,,,,,6,1.106,0,,,,,,-0.19259255,-0.402777778,1,0,0,1.1061,Pegmatite_rect,10,0,10,0,1,
5c560b6fccb08c0001e134a8,TCR,2024-06-21_12h46.45.142,LearnStrategy,2023.2.3,Win32,59.52380952,4,2,12,,,,,,,,2,09,,,,,,,,,,,2,1.39,1,,,,,,-0.176851838,-0.249074088,1,0,0,1.3897,Basalt_rect,11,0,11,0,1,
5c560b6fccb08c0001e134a8,TCR,2024-06-21_12h46.45.142,LearnStrategy,2023.2.3,Win32,59.52380952,4,2,13,,,,,,,,4,08,,,,,,,,,,,1,2.023,0,,,,,,-0.341666645,-0.255555541,1,0,0,2.0228,Andesite_rect,12,0,12,0,1,
5c560b6fccb08c0001e134a8,TCR,2024-06-21_12h46.45.142,LearnStrategy,2023.2.3,Win32,59.52380952,4,2,14,,,,,,,,5,10,,,,,,,,,,,5,1.059,1,,,,,,-0.355555534,-0.383333347,1,0,0,1.0587,Obsidian_rect,13,0,13,0,1,
5c560b6fccb08c0001e134a8,TCR,2024-06-21_12h46.45.142,LearnStrategy,2023.2.3,Win32,59.52380952,4,2,15,,,,,,,,7,05,,,,,,,,,,,4,3.766,0,,,,,,0.339814787,-0.270370413,1,0,0,3.7659,Gabbro_rect,14,0,14,0,1,
5c560b6fccb08c0001e134a8,TCR,2024-06-21_12h46.45.142,LearnStrategy,2023.2.3,Win32,59.52380952,4,2,16,,,,,,,,4,09,,,,,,,,,,,2,1.54,0,,,,,,-0.191666638,-0.263888889,1,0,0,1.5396,Basalt_rect,15,0,15,0,1,
5c560b6fccb08c0001e134a8,TCR,2024-06-21_12h46.45.142,LearnStrategy,2023.2.3,Win32,59.52380952,5,1,1,-0.123148106,0.009259259,1,0,0,1.0287,rock_grid_rect_2,2,05,-1,-1,1.029,-0.386111118,-0.255555541,1,0,0,11.0974,Andesite_rect,1,11.097,0,0,0,0,0,1,,,,,,,,,,,,,
5c560b6fccb08c0001e134a8,TCR,2024-06-21_12h46.45.142,LearnStrategy,2023.2.3,Win32,59.52380952,5,1,2,-0.162037037,-0.014814836,1,0,0,1.514,rock_grid_rect_2,4,01,-1,-1,1.514,-0.347222222,-0.263888889,1,0,0,9.5943,Andesite_rect,1,9.594,0,1,0,1,0,1,,,,,,,,,,,,,
5c560b6fccb08c0001e134a8,TCR,2024-06-21_12h46.45.142,LearnStrategy,2023.2.3,Win32,59.52380952,5,1,3,-0.062037009,0.001851859,1,0,0,0.7975,rock_grid_rect_2,7,12,-1,-1,0.798,-0.385185171,-0.261111153,1,0,0,1.9279,Andesite_rect,1,1.928,0,2,0,2,0,1,,,,,,,,,,,,,
5c560b6fccb08c0001e134a8,TCR,2024-06-21_12h46.45.142,LearnStrategy,2023.2.3,Win32,59.52380952,5,1,4,-0.123148106,0.001851859,1,0,0,0.8654,rock_grid_rect_2,4,11,-1,-1,0.865,-0.377777771,-0.249074088,1,0,0,2.9462,Andesite_rect,1,2.946,0,3,0,3,0,1,,,,,,,,,,,,,
5c560b6fccb08c0001e134a8,TCR,2024-06-21_12h46.45.142,LearnStrategy,2023.2.3,Win32,59.52380952,5,1,5,-0.037962949,0.0074074,1,0,0,1.3147,rock_grid_rect_2,6,08,-1,-1,1.315,-0.126851824,-0.397222236,1,0,0,2.028,Pegmatite_rect,6,2.028,1,4,0,4,0,1,,,,,,,,,,,,,
5c560b6fccb08c0001e134a8,TCR,2024-06-21_12h46.45.142,LearnStrategy,2023.2.3,Win32,59.52380952,5,1,6,-0.050000014,-0.00462963,1,0,0,0.6981,rock_grid_rect_2,6,03,-1,-1,0.698,-0.351851852,-0.239814829,1,0,0,2.8204,Andesite_rect,1,2.82,0,5,0,5,0,1,,,,,,,,,,,,,
5c560b6fccb08c0001e134a8,TCR,2024-06-21_12h46.45.142,LearnStrategy,2023.2.3,Win32,59.52380952,5,1,7,-0.107407393,0.015740748,1,0,0,0.7975,rock_grid_rect_2,4,01,-1,-1,0.798,0.348148205,-0.255555541,1,0,0,2.6126,Gabbro_rect,4,2.613,1,6,0,6,0,1,,,,,,,,,,,,,
5c560b6fccb08c0001e134a8,TCR,2024-06-21_12h46.45.142,LearnStrategy,2023.2.3,Win32,59.52380952,5,1,8,-0.102777764,0.006481489,1,0,0,0.748,rock_grid_rect_2,3,02,-1,-1,0.748,0.087962963,-0.248148176,1,0,0,1.972,Diorite_rect,3,1.972,1,7,0,7,0,1,,,,,,,,,,,,,
5c560b6fccb08c0001e134a8,TCR,2024-06-21_12h46.45.142,LearnStrategy,2023.2.3,Win32,59.52380952,5,1,9,-0.098148134,-0.009259259,1,0,0,0.765,rock_grid_rect_2,3,07,-1,-1,0.765,0.062037079,-0.268518519,1,0,0,1.2117,Diorite_rect,3,1.212,1,8,0,8,0,1,,,,,,,,,,,,,
5c560b6fccb08c0001e134a8,TCR,2024-06-21_12h46.45.142,LearnStrategy,2023.2.3,Win32,59.52380952,5,1,10,-0.06759255,0.003703683,1,0,0,1.5149,rock_grid_rect_2,1,09,-1,-1,1.515,-0.178703661,-0.257407436,1,0,0,1.9546,Basalt_rect,2,1.955,0,9,0,9,0,1,,,,,,,,,,,,,
5c560b6fccb08c0001e134a8,TCR,2024-06-21_12h46.45.142,LearnStrategy,2023.2.3,Win32,59.52380952,5,1,11,-0.131481453,-0.008333347,1,0,0,3.1704,rock_grid_rect_2,1,02,-1,-1,3.17,0.090740769,-0.237037023,1,0,0,3.657,Diorite_rect,3,3.657,0,10,0,10,0,1,,,,,,,,,,,,,
5c560b6fccb08c0001e134a8,TCR,2024-06-21_12h46.45.142,LearnStrategy,2023.2.3,Win32,59.52380952,5,1,12,-0.131481453,0.010185171,1,0,0,0.9145,rock_grid_rect_2,4,10,-1,-1,0.914,-0.175000014,-0.267592607,1,0,0,3.1127,Basalt_rect,2,3.113,0,11,0,11,0,1,,,,,,,,,,,,,
5c560b6fccb08c0001e134a8,TCR,2024-06-21_12h46.45.142,LearnStrategy,2023.2.3,Win32,59.52380952,5,1,13,-0.078703704,-0.001851859,1,0,0,0.8642,rock_grid_rect_2,7,07,-1,-1,0.864,-0.3675926,-0.256481524,1,0,0,4.15,Andesite_rect,1,4.15,0,12,0,12,0,1,,,,,,,,,,,,,
5c560b6fccb08c0001e134a8,TCR,2024-06-21_12h46.45.142,LearnStrategy,2023.2.3,Win32,59.52380952,5,1,14,-0.091666681,0.010185171,1,0,0,1.4976,rock_grid_rect_2,5,05,-1,-1,1.498,0.062037079,-0.248148176,1,0,0,3.5387,Diorite_rect,3,3.539,0,13,0,13,0,1,,,,,,,,,,,,,
5c560b6fccb08c0001e134a8,TCR,2024-06-21_12h46.45.142,LearnStrategy,2023.2.3,Win32,59.52380952,5,1,15,-0.119444459,0.00462963,1,0,0,1.5485,rock_grid_rect_2,2,08,-1,-1,1.549,0.330555527,-0.240740741,1,0,0,2.2451,Gabbro_rect,4,2.245,0,14,0,14,0,1,,,,,,,,,,,,,
5c560b6fccb08c0001e134a8,TCR,2024-06-21_12h46.45.142,LearnStrategy,2023.2.3,Win32,59.52380952,5,1,16,-0.159259231,-0.000925947,1,0,0,0.7654,rock_grid_rect_2,7,07,-1,-1,0.765,-0.326851845,-0.259259259,1,0,0,3.1785,Andesite_rect,1,3.178,0,15,0,15,0,1,,,,,,,,,,,,,
5c560b6fccb08c0001e134a8,TCR,2024-06-21_12h46.45.142,LearnStrategy,2023.2.3,Win32,59.52380952,5,2,1,,,,,,,,1,05,,,,,,,,,,,1,10.007,1,,,,,,-0.389814801,-0.243518547,1,0,0,10.0073,Andesite_rect,0,0,0,0,1,
5c560b6fccb08c0001e134a8,TCR,2024-06-21_12h46.45.142,LearnStrategy,2023.2.3,Win32,59.52380952,5,2,2,,,,,,,,8,16,,,,,,,,,,,8,2.574,1,,,,,,0.347222222,-0.383333347,1,0,0,2.5744,Pumice_rect,1,0,1,0,1,
5c560b6fccb08c0001e134a8,TCR,2024-06-21_12h46.45.142,LearnStrategy,2023.2.3,Win32,59.52380952,5,2,3,,,,,,,,7,16,,,,,,,,,,,7,3.182,1,,,,,,0.100000028,-0.404629672,1,0,0,3.1823,Peridotite_rect,2,0,2,0,1,
5c560b6fccb08c0001e134a8,TCR,2024-06-21_12h46.45.142,LearnStrategy,2023.2.3,Win32,59.52380952,5,2,4,,,,,,,,3,09,,,,,,,,,,,3,3.231,1,,,,,,0.062037079,-0.257407436,1,0,0,3.231,Diorite_rect,3,0,3,0,1,
5c560b6fccb08c0001e134a8,TCR,2024-06-21_12h46.45.142,LearnStrategy,2023.2.3,Win32,59.52380952,5,2,5,,,,,,,,5,06,,,,,,,,,,,5,1.432,1,,,,,,-0.375,-0.408333319,1,0,0,1.4323,Obsidian_rect,4,0,4,0,1,
5c560b6fccb08c0001e134a8,TCR,2024-06-21_12h46.45.142,LearnStrategy,2023.2.3,Win32,59.52380952,5,2,6,,,,,,,,2,14,,,,,,,,,,,8,1.458,0,,,,,,0.357407464,-0.405555584,1,0,0,1.4576,Pumice_rect,5,0,5,0,1,
5c560b6fccb08c0001e134a8,TCR,2024-06-21_12h46.45.142,LearnStrategy,2023.2.3,Win32,59.52380952,5,2,7,,,,,,,,4,16,,,,,,,,,,,7,3.573,0,,,,,,0.086111139,-0.404629672,1,0,0,3.5726,Peridotite_rect,6,0,6,0,1,
5c560b6fccb08c0001e134a8,TCR,2024-06-21_12h46.45.142,LearnStrategy,2023.2.3,Win32,59.52380952,5,2,8,,,,,,,,3,15,,,,,,,,,,,3,2.579,1,,,,,,0.074074074,-0.259259259,1,0,0,2.5792,Diorite_rect,7,0,7,0,1,
5c560b6fccb08c0001e134a8,TCR,2024-06-21_12h46.45.142,LearnStrategy,2023.2.3,Win32,59.52380952,5,2,9,,,,,,,,8,09,,,,,,,,,,,8,1.223,1,,,,,,0.365740741,-0.410185213,1,0,0,1.2227,Pumice_rect,8,0,8,0,1,
5c560b6fccb08c0001e134a8,TCR,2024-06-21_12h46.45.142,LearnStrategy,2023.2.3,Win32,59.52380952,5,2,10,,,,,,,,4,05,,,,,,,,,,,4,5.824,1,,,,,,0.353703675,-0.251851894,1,0,0,5.8236,Gabbro_rect,9,0,9,0,1,
5c560b6fccb08c0001e134a8,TCR,2024-06-21_12h46.45.142,LearnStrategy,2023.2.3,Win32,59.52380952,5,2,11,,,,,,,,2,12,,,,,,,,,,,8,1.341,0,,,,,,0.353703675,-0.402777778,1,0,0,1.3412,Pumice_rect,10,0,10,0,1,
5c560b6fccb08c0001e134a8,TCR,2024-06-21_12h46.45.142,LearnStrategy,2023.2.3,Win32,59.52380952,5,2,12,,,,,,,,6,05,,,,,,,,,,,5,1.172,0,,,,,,-0.363888882,-0.397222236,1,0,0,1.1725,Obsidian_rect,11,0,11,0,1,
5c560b6fccb08c0001e134a8,TCR,2024-06-21_12h46.45.142,LearnStrategy,2023.2.3,Win32,59.52380952,5,2,13,,,,,,,,5,09,,,,,,,,,,,5,1.913,1,,,,,,-0.340740734,-0.398148148,1,0,0,1.9134,Obsidian_rect,12,0,12,0,1,
5c560b6fccb08c0001e134a8,TCR,2024-06-21_12h46.45.142,LearnStrategy,2023.2.3,Win32,59.52380952,5,2,14,,,,,,,,1,07,,,,,,,,,,,3,3.981,0,,,,,,0.068518533,-0.25,1,0,0,3.9812,Diorite_rect,13,0,13,0,1,
5c560b6fccb08c0001e134a8,TCR,2024-06-21_12h46.45.142,LearnStrategy,2023.2.3,Win32,59.52380952,5,2,15,,,,,,,,6,07,,,,,,,,,,,1,5.175,0,,,,,,-0.347222222,-0.251851894,1,0,0,5.1745,Andesite_rect,14,0,14,0,1,
5c560b6fccb08c0001e134a8,TCR,2024-06-21_12h46.45.142,LearnStrategy,2023.2.3,Win32,59.52380952,5,2,16,,,,,,,,7,15,,,,,,,,,,,7,1.542,1,,,,,,0.089814857,-0.392592607,1,0,0,1.5416,Peridotite_rect,15,0,15,0,1,
5c560b6fccb08c0001e134a8,TCR,2024-06-21_12h46.45.142,LearnStrategy,2023.2.3,Win32,59.52380952,6,1,1,-0.117592564,0.020370377,1,0,0,1.0967,rock_grid_rect_2,4,10,-1,-1,1.097,-0.19259255,-0.263888889,1,0,0,7.6088,Basalt_rect,2,7.609,0,0,0,0,0,1,,,,,,,,,,,,,
5c560b6fccb08c0001e134a8,TCR,2024-06-21_12h46.45.142,LearnStrategy,2023.2.3,Win32,59.52380952,6,1,2,-0.089814787,-0.0074074,1,0,0,0.8066,rock_grid_rect_2,4,13,-1,-1,0.807,0.333333333,-0.244444459,1,0,0,1.439,Gabbro_rect,4,1.439,1,1,0,1,0,1,,,,,,,,,,,,,
5c560b6fccb08c0001e134a8,TCR,2024-06-21_12h46.45.142,LearnStrategy,2023.2.3,Win32,59.52380952,6,1,3,-0.041666667,-0.000925947,1,0,0,0.8531,rock_grid_rect_2,8,03,-1,-1,0.853,0.36018527,-0.410185213,1,0,0,2.317,Pumice_rect,8,2.317,1,2,0,2,0,1,,,,,,,,,,,,,
5c560b6fccb08c0001e134a8,TCR,2024-06-21_12h46.45.142,LearnStrategy,2023.2.3,Win32,59.52380952,6,1,4,-0.136111083,-0.003703718,1,0,0,0.664,rock_grid_rect_2,1,10,-1,-1,0.664,-0.186111097,-0.39907406,1,0,0,4.9456,Pegmatite_rect,6,4.946,0,3,0,3,0,1,,,,,,,,,,,,,
5c560b6fccb08c0001e134a8,TCR,2024-06-21_12h46.45.142,LearnStrategy,2023.2.3,Win32,59.52380952,6,1,5,-0.138888889,-0.01666666,1,0,0,0.7977,rock_grid_rect_2,6,03,-1,-1,0.798,-0.386111118,-0.257407436,1,0,0,1.5376,Andesite_rect,1,1.538,0,4,0,4,0,1,,,,,,,,,,,,,
5c560b6fccb08c0001e134a8,TCR,2024-06-21_12h46.45.142,LearnStrategy,2023.2.3,Win32,59.52380952,6,1,6,-0.099074046,-0.023148148,1,0,0,0.7666,rock_grid_rect_2,5,12,-1,-1,0.767,-0.331481474,-0.393518519,1,0,0,3.1074,Obsidian_rect,5,3.107,1,5,0,5,0,1,,,,,,,,,,,,,
5c560b6fccb08c0001e134a8,TCR,2024-06-21_12h46.45.142,LearnStrategy,2023.2.3,Win32,59.52380952,6,1,7,-0.131481453,-0.001851859,1,0,0,0.6815,rock_grid_rect_2,7,06,-1,-1,0.681,0.055555556,-0.266666695,1,0,0,2.9952,Diorite_rect,3,2.995,0,6,0,6,0,1,,,,,,,,,,,,,
5c560b6fccb08c0001e134a8,TCR,2024-06-21_12h46.45.142,LearnStrategy,2023.2.3,Win32,59.52380952,6,1,8,-0.097222222,-0.00462963,1,0,0,0.8479,rock_grid_rect_2,6,09,-1,-1,0.848,0.066666709,-0.411111125,1,0,0,1.6796,Peridotite_rect,7,1.68,0,7,0,7,0,1,,,,,,,,,,,,,
5c560b6fccb08c0001e134a8,TCR,2024-06-21_12h46.45.142,LearnStrategy,2023.2.3,Win32,59.52380952,6,1,9,-0.094444416,-0.011111118,1,0,0,0.8319,rock_grid_rect_2,3,02,-1,-1,0.832,0.066666709,-0.262962977,1,0,0,2.2446,Diorite_rect,3,2.245,1,8,0,8,0,1,,,,,,,,,,,,,
5c560b6fccb08c0001e134a8,TCR,2024-06-21_12h46.45.142,LearnStrategy,2023.2.3,Win32,59.52380952,6,1,10,-0.097222222,0.021296289,1,0,0,0.6964,rock_grid_rect_2,2,05,-1,-1,0.696,0.321296268,-0.250925912,1,0,0,2.2289,Gabbro_rect,4,2.229,0,9,0,9,0,1,,,,,,,,,,,,,
5c560b6fccb08c0001e134a8,TCR,2024-06-21_12h46.45.142,LearnStrategy,2023.2.3,Win32,59.52380952,6,1,11,-0.156481496,0.003703683,1,0,0,0.6811,rock_grid_rect_2,7,07,-1,-1,0.681,0.346296381,-0.25462963,1,0,0,1.3965,Gabbro_rect,4,1.396,0,10,0,10,0,1,,,,,,,,,,,,,
5c560b6fccb08c0001e134a8,TCR,2024-06-21_12h46.45.142,LearnStrategy,2023.2.3,Win32,59.52380952,6,1,12,-0.115740741,-0.019444466,1,0,0,0.8311,rock_grid_rect_2,4,11,-1,-1,0.831,-0.196296268,-0.251851894,1,0,0,1.7952,Basalt_rect,2,1.795,0,11,0,11,0,1,,,,,,,,,,,,,
5c560b6fccb08c0001e134a8,TCR,2024-06-21_12h46.45.142,LearnStrategy,2023.2.3,Win32,59.52380952,6,1,13,-0.068518533,0,1,0,0,0.7482,rock_grid_rect_2,6,03,-1,-1,0.748,-0.097222222,-0.408333319,1,0,0,2.0114,Pegmatite_rect,6,2.011,1,12,0,12,0,1,,,,,,,,,,,,,
5c560b6fccb08c0001e134a8,TCR,2024-06-21_12h46.45.142,LearnStrategy,2023.2.3,Win32,59.52380952,6,1,14,-0.038888861,0.011111118,1,0,0,0.7156,rock_grid_rect_2,2,16,-1,-1,0.716,-0.104629587,-0.252777806,1,0,0,1.9445,Basalt_rect,2,1.945,1,13,0,13,0,1,,,,,,,,,,,,,
5c560b6fccb08c0001e134a8,TCR,2024-06-21_12h46.45.142,LearnStrategy,2023.2.3,Win32,59.52380952,6,1,15,-0.060185185,0.003703683,1,0,0,0.7979,rock_grid_rect_2,2,06,-1,-1,0.798,-0.362037023,-0.263888889,1,0,0,2.6281,Andesite_rect,1,2.628,0,14,0,14,0,1,,,,,,,,,,,,,
5c560b6fccb08c0001e134a8,TCR,2024-06-21_12h46.45.142,LearnStrategy,2023.2.3,Win32,59.52380952,6,1,16,-0.132407365,-0.011111118,1,0,0,0.6971,rock_grid_rect_2,1,11,-1,-1,0.697,0.333333333,-0.250925912,1,0,0,3.4619,Gabbro_rect,4,3.462,0,15,0,15,0,1,,,,,,,,,,,,,
5c560b6fccb08c0001e134a8,TCR,2024-06-21_12h46.45.142,LearnStrategy,2023.2.3,Win32,59.52380952,6,2,1,,,,,,,,6,11,,,,,,,,,,,6,3.641,1,,,,,,-0.125,-0.408333319,1,0,0,3.6407,Pegmatite_rect,0,0,0,0,1,
5c560b6fccb08c0001e134a8,TCR,2024-06-21_12h46.45.142,LearnStrategy,2023.2.3,Win32,59.52380952,6,2,2,,,,,,,,5,14,,,,,,,,,,,5,1.675,1,,,,,,-0.378703683,-0.409259302,1,0,0,1.6748,Obsidian_rect,1,0,1,0,1,
5c560b6fccb08c0001e134a8,TCR,2024-06-21_12h46.45.142,LearnStrategy,2023.2.3,Win32,59.52380952,6,2,3,,,,,,,,1,16,,,,,,,,,,,1,8.912,1,,,,,,-0.393518519,-0.256481524,1,0,0,8.9115,Andesite_rect,2,0,2,0,1,
5c560b6fccb08c0001e134a8,TCR,2024-06-21_12h46.45.142,LearnStrategy,2023.2.3,Win32,59.52380952,6,2,4,,,,,,,,4,14,,,,,,,,,,,2,1.099,0,,,,,,-0.179629644,-0.228703746,1,0,0,1.0985,Basalt_rect,3,0,3,0,1,
5c560b6fccb08c0001e134a8,TCR,2024-06-21_12h46.45.142,LearnStrategy,2023.2.3,Win32,59.52380952,6,2,5,,,,,,,,1,03,,,,,,,,,,,4,3.914,0,,,,,,0.383333418,-0.250925912,1,0,0,3.914,Gabbro_rect,4,0,4,0,1,
5c560b6fccb08c0001e134a8,TCR,2024-06-21_12h46.45.142,LearnStrategy,2023.2.3,Win32,59.52380952,6,2,6,,,,,,,,5,16,,,,,,,,,,,5,1.221,1,,,,,,-0.39166666,-0.400925954,1,0,0,1.221,Obsidian_rect,5,0,5,0,1,
5c560b6fccb08c0001e134a8,TCR,2024-06-21_12h46.45.142,LearnStrategy,2023.2.3,Win32,59.52380952,6,2,7,,,,,,,,8,15,,,,,,,,,,,8,1.158,1,,,,,,0.365740741,-0.383333347,1,0,0,1.1579,Pumice_rect,6,0,6,0,1,
5c560b6fccb08c0001e134a8,TCR,2024-06-21_12h46.45.142,LearnStrategy,2023.2.3,Win32,59.52380952,6,2,8,,,,,,,,3,08,,,,,,,,,,,3,3.925,1,,,,,,0.106481481,-0.244444459,1,0,0,3.9253,Diorite_rect,7,0,7,0,1,
5c560b6fccb08c0001e134a8,TCR,2024-06-21_12h46.45.142,LearnStrategy,2023.2.3,Win32,59.52380952,6,2,9,,,,,,,,7,08,,,,,,,,,,,7,1.627,1,,,,,,0.085185228,-0.417592578,1,0,0,1.6267,Peridotite_rect,8,0,8,0,1,
5c560b6fccb08c0001e134a8,TCR,2024-06-21_12h46.45.142,LearnStrategy,2023.2.3,Win32,59.52380952,6,2,10,,,,,,,,2,04,,,,,,,,,,,1,2.977,0,,,,,,-0.3675926,-0.258333347,1,0,0,2.9768,Andesite_rect,9,0,9,0,1,
5c560b6fccb08c0001e134a8,TCR,2024-06-21_12h46.45.142,LearnStrategy,2023.2.3,Win32,59.52380952,6,2,11,,,,,,,,7,14,,,,,,,,,,,4,5.148,0,,,,,,0.353703675,-0.25,1,0,0,5.1481,Gabbro_rect,10,0,10,0,1,
5c560b6fccb08c0001e134a8,TCR,2024-06-21_12h46.45.142,LearnStrategy,2023.2.3,Win32,59.52380952,6,2,12,,,,,,,,6,13,,,,,,,,,,,1,4.807,0,,,,,,-0.348148134,-0.251851894,1,0,0,4.8067,Andesite_rect,11,0,11,0,1,
5c560b6fccb08c0001e134a8,TCR,2024-06-21_12h46.45.142,LearnStrategy,2023.2.3,Win32,59.52380952,6,2,13,,,,,,,,2,10,,,,,,,,,,,2,1.326,1,,,,,,-0.142592607,-0.259259259,1,0,0,1.3261,Basalt_rect,12,0,12,0,1,
5c560b6fccb08c0001e134a8,TCR,2024-06-21_12h46.45.142,LearnStrategy,2023.2.3,Win32,59.52380952,6,2,14,,,,,,,,3,13,,,,,,,,,,,3,3.133,1,,,,,,0.090740769,-0.247222265,1,0,0,3.1332,Diorite_rect,13,0,13,0,1,
5c560b6fccb08c0001e134a8,TCR,2024-06-21_12h46.45.142,LearnStrategy,2023.2.3,Win32,59.52380952,6,2,15,,,,,,,,8,14,,,,,,,,,,,8,1.087,1,,,,,,0.35555564,-0.404629672,1,0,0,1.0866,Pumice_rect,14,0,14,0,1,
5c560b6fccb08c0001e134a8,TCR,2024-06-21_12h46.45.142,LearnStrategy,2023.2.3,Win32,59.52380952,6,2,16,,,,,,,,4,03,,,,,,,,,,,4,2.166,1,,,,,,0.369444529,-0.242592635,1,0,0,2.1655,Gabbro_rect,15,0,15,0,1,
5c560b6fccb08c0001e134a8,TCR,2024-06-21_12h46.45.142,LearnStrategy,2023.2.3,Win32,59.52380952,7,1,1,-0.062037009,-0.008333347,1,0,0,1.1124,rock_grid_rect_2,6,12,-1,-1,1.112,0.050925926,-0.239814829,1,0,0,3.2699,Diorite_rect,3,3.27,0,0,0,0,0,1,,,,,,,,,,,,,
5c560b6fccb08c0001e134a8,TCR,2024-06-21_12h46.45.142,LearnStrategy,2023.2.3,Win32,59.52380952,7,1,2,-0.121296282,-0.000925947,1,0,0,1.2654,rock_grid_rect_2,2,05,-1,-1,1.265,-0.348148134,-0.256481524,1,0,0,1.4943,Andesite_rect,1,1.494,0,1,0,1,0,1,,,,,,,,,,,,,
5c560b6fccb08c0001e134a8,TCR,2024-06-21_12h46.45.142,LearnStrategy,2023.2.3,Win32,59.52380952,7,1,3,-0.134259259,-0.00462963,1,0,0,0.798,rock_grid_rect_2,5,11,-1,-1,0.798,-0.375,-0.387037065,1,0,0,1.0122,Obsidian_rect,5,1.012,1,2,0,2,0,1,,,,,,,,,,,,,
5c560b6fccb08c0001e134a8,TCR,2024-06-21_12h46.45.142,LearnStrategy,2023.2.3,Win32,59.52380952,7,1,4,-0.159259231,0.000925912,1,0,0,0.815,rock_grid_rect_2,1,11,-1,-1,0.815,0.327777863,-0.261111153,1,0,0,1.3286,Gabbro_rect,4,1.329,0,3,0,3,0,1,,,,,,,,,,,,,
5c560b6fccb08c0001e134a8,TCR,2024-06-21_12h46.45.142,LearnStrategy,2023.2.3,Win32,59.52380952,7,1,5,-0.083333333,-0.002777771,1,0,0,1.0562,rock_grid_rect_2,2,08,-1,-1,1.056,-0.16851849,-0.242592635,1,0,0,2.9445,Basalt_rect,2,2.944,1,4,0,4,0,1,,,,,,,,,,,,,
5c560b6fccb08c0001e134a8,TCR,2024-06-21_12h46.45.142,LearnStrategy,2023.2.3,Win32,59.52380952,7,1,6,-0.162037037,-0.006481489,1,0,0,0.648,rock_grid_rect_2,4,10,-1,-1,0.648,0.341666751,-0.255555541,1,0,0,9.6948,Gabbro_rect,4,9.695,1,5,0,5,0,1,,,,,,,,,,,,,
5c560b6fccb08c0001e134a8,TCR,2024-06-21_12h46.45.142,LearnStrategy,2023.2.3,Win32,59.52380952,7,1,7,-0.073148162,0,1,0,0,1.2976,rock_grid_rect_2,7,06,-1,-1,1.298,0.07685188,-0.252777806,1,0,0,1.361,Diorite_rect,3,1.361,0,6,0,6,0,1,,,,,,,,,,,,,
5c560b6fccb08c0001e134a8,TCR,2024-06-21_12h46.45.142,LearnStrategy,2023.2.3,Win32,59.52380952,7,1,8,-0.088888875,0.003703683,1,0,0,0.8647,rock_grid_rect_2,7,10,-1,-1,0.865,-0.062962921,-0.402777778,1,0,0,4.7873,Pegmatite_rect,6,4.787,0,7,0,7,0,1,,,,,,,,,,,,,
5c560b6fccb08c0001e134a8,TCR,2024-06-21_12h46.45.142,LearnStrategy,2023.2.3,Win32,59.52380952,7,1,9,-0.04351849,0,1,0,0,0.6986,rock_grid_rect_2,2,11,-1,-1,0.699,-0.357407393,-0.250925912,1,0,0,2.4569,Andesite_rect,1,2.457,0,8,0,8,0,1,,,,,,,,,,,,,
5c560b6fccb08c0001e134a8,TCR,2024-06-21_12h46.45.142,LearnStrategy,2023.2.3,Win32,59.52380952,7,1,10,-0.10092594,-0.005555577,1,0,0,0.631,rock_grid_rect_2,8,10,-1,-1,0.631,0.324074074,-0.39444443,1,0,0,1.1759,Pumice_rect,8,1.176,1,9,0,9,0,1,,,,,,,,,,,,,
5c560b6fccb08c0001e134a8,TCR,2024-06-21_12h46.45.142,LearnStrategy,2023.2.3,Win32,59.52380952,7,1,11,-0.091666681,0.008333312,1,0,0,0.6292,rock_grid_rect_2,4,01,-1,-1,0.629,0.071296339,-0.415740755,1,0,0,2.5127,Peridotite_rect,7,2.513,0,10,0,10,0,1,,,,,,,,,,,,,
5c560b6fccb08c0001e134a8,TCR,2024-06-21_12h46.45.142,LearnStrategy,2023.2.3,Win32,59.52380952,7,1,12,-0.022222236,0.005555541,1,0,0,0.7151,rock_grid_rect_2,1,09,-1,-1,0.715,-0.350925905,-0.262962977,1,0,0,5.2108,Andesite_rect,1,5.211,1,11,0,11,0,1,,,,,,,,,,,,,
5c560b6fccb08c0001e134a8,TCR,2024-06-21_12h46.45.142,LearnStrategy,2023.2.3,Win32,59.52380952,7,1,13,-0.075925898,0.001851859,1,0,0,0.7809,rock_grid_rect_2,6,06,-1,-1,0.781,-0.065740727,-0.404629672,1,0,0,7.579,Pegmatite_rect,6,7.579,1,12,0,12,0,1,,,,,,,,,,,,,
5c560b6fccb08c0001e134a8,TCR,2024-06-21_12h46.45.142,LearnStrategy,2023.2.3,Win32,59.52380952,7,1,14,-0.083333333,0.003703683,1,0,0,0.8316,rock_grid_rect_2,3,02,-1,-1,0.832,0.069444444,-0.251851894,1,0,0,1.2205,Diorite_rect,3,1.221,1,13,0,13,0,1,,,,,,,,,,,,,
5c560b6fccb08c0001e134a8,TCR,2024-06-21_12h46.45.142,LearnStrategy,2023.2.3,Win32,59.52380952,7,1,15,-0.099074046,-0.0074074,1,0,0,0.6985,rock_grid_rect_2,4,12,-1,-1,0.698,-0.337037016,-0.263888889,1,0,0,3.4479,Andesite_rect,1,3.448,0,14,0,14,0,1,,,,,,,,,,,,,
5c560b6fccb08c0001e134a8,TCR,2024-06-21_12h46.45.142,LearnStrategy,2023.2.3,Win32,59.52380952,7,1,16,-0.044444402,-0.0074074,1,0,0,0.7412,rock_grid_rect_2,6,08,-1,-1,0.741,-0.137036995,-0.404629672,1,0,0,2.7943,Pegmatite_rect,6,2.794,1,15,0,15,0,1,,,,,,,,,,,,,
5c560b6fccb08c0001e134a8,TCR,2024-06-21_12h46.45.142,LearnStrategy,2023.2.3,Win32,59.52380952,7,2,1,,,,,,,,8,02,,,,,,,,,,,8,1.592,1,,,,,,0.354629658,-0.411111125,1,0,0,1.5923,Pumice_rect,0,0,0,0,1,
5c560b6fccb08c0001e134a8,TCR,2024-06-21_12h46.45.142,LearnStrategy,2023.2.3,Win32,59.52380952,7,2,2,,,,,,,,6,10,,,,,,,,,,,7,2.923,0,,,,,,0.088888875,-0.412962949,1,0,0,2.9226,Peridotite_rect,1,0,1,0,1,
5c560b6fccb08c0001e134a8,TCR,2024-06-21_12h46.45.142,LearnStrategy,2023.2.3,Win32,59.52380952,7,2,3,,,,,,,,1,16,,,,,,,,,,,4,6.084,0,,,,,,0.333333333,-0.264814801,1,0,0,6.084,Gabbro_rect,2,0,2,0,1,
5c560b6fccb08c0001e134a8,TCR,2024-06-21_12h46.45.142,LearnStrategy,2023.2.3,Win32,59.52380952,7,2,4,,,,,,,,7,15,,,,,,,,,,,7,1.308,1,,,,,,0.079629616,-0.401851866,1,0,0,1.3076,Peridotite_rect,3,0,3,0,1,
5c560b6fccb08c0001e134a8,TCR,2024-06-21_12h46.45.142,LearnStrategy,2023.2.3,Win32,59.52380952,7,2,5,,,,,,,,4,16,,,,,,,,,,,2,1.361,0,,,,,,-0.187037009,-0.242592635,1,0,0,1.3612,Basalt_rect,4,0,4,0,1,
5c560b6fccb08c0001e134a8,TCR,2024-06-21_12h46.45.142,LearnStrategy,2023.2.3,Win32,59.52380952,7,2,6,,,,,,,,5,16,,,,,,,,,,,5,0.906,1,,,,,,-0.39166666,-0.390740783,1,0,0,0.9058,Obsidian_rect,5,0,5,0,1,
5c560b6fccb08c0001e134a8,TCR,2024-06-21_12h46.45.142,LearnStrategy,2023.2.3,Win32,59.52380952,7,2,7,,,,,,,,8,09,,,,,,,,,,,8,1.143,1,,,,,,0.354629658,-0.407407407,1,0,0,1.1432,Pumice_rect,6,0,6,0,1,
5c560b6fccb08c0001e134a8,TCR,2024-06-21_12h46.45.142,LearnStrategy,2023.2.3,Win32,59.52380952,7,2,8,,,,,,,,3,16,,,,,,,,,,,3,1.373,1,,,,,,0.094444487,-0.247222265,1,0,0,1.3727,Diorite_rect,7,0,7,0,1,
5c560b6fccb08c0001e134a8,TCR,2024-06-21_12h46.45.142,LearnStrategy,2023.2.3,Win32,59.52380952,7,2,9,,,,,,,,1,05,,,,,,,,,,,4,6.467,0,,,,,,0.35555564,-0.268518519,1,0,0,6.4671,Gabbro_rect,8,0,8,0,1,
5c560b6fccb08c0001e134a8,TCR,2024-06-21_12h46.45.142,LearnStrategy,2023.2.3,Win32,59.52380952,7,2,10,,,,,,,,4,08,,,,,,,,,,,4,3.131,1,,,,,,0.358333305,-0.24537037,1,0,0,3.1315,Gabbro_rect,9,0,9,0,1,
5c560b6fccb08c0001e134a8,TCR,2024-06-21_12h46.45.142,LearnStrategy,2023.2.3,Win32,59.52380952,7,2,11,,,,,,,,2,14,,,,,,,,,,,2,1.558,1,,,,,,-0.140740712,-0.253703718,1,0,0,1.5582,Basalt_rect,10,0,10,0,1,
5c560b6fccb08c0001e134a8,TCR,2024-06-21_12h46.45.142,LearnStrategy,2023.2.3,Win32,59.52380952,7,2,12,,,,,,,,7,02,,,,,,,,,,,7,1.457,1,,,,,,0.074074074,-0.412037037,1,0,0,1.4567,Peridotite_rect,11,0,11,0,1,
5c560b6fccb08c0001e134a8,TCR,2024-06-21_12h46.45.142,LearnStrategy,2023.2.3,Win32,59.52380952,7,2,13,,,,,,,,6,13,,,,,,,,,,,3,1.157,0,,,,,,0.087037051,-0.250925912,1,0,0,1.1567,Diorite_rect,12,0,12,0,1,
5c560b6fccb08c0001e134a8,TCR,2024-06-21_12h46.45.142,LearnStrategy,2023.2.3,Win32,59.52380952,7,2,14,,,,,,,,3,15,,,,,,,,,,,1,3.474,0,,,,,,-0.361111111,-0.25,1,0,0,3.474,Andesite_rect,13,0,13,0,1,
5c560b6fccb08c0001e134a8,TCR,2024-06-21_12h46.45.142,LearnStrategy,2023.2.3,Win32,59.52380952,7,2,15,,,,,,,,2,04,,,,,,,,,,,1,1.31,0,,,,,,-0.348148134,-0.242592635,1,0,0,1.3096,Andesite_rect,14,0,14,0,1,
5c560b6fccb08c0001e134a8,TCR,2024-06-21_12h46.45.142,LearnStrategy,2023.2.3,Win32,59.52380952,7,2,16,,,,,,,,5,09,,,,,,,,,,,5,0.873,1,,,,,,-0.357407393,-0.400925954,1,0,0,0.8729,Obsidian_rect,15,0,15,0,1,
5c560b6fccb08c0001e134a8,TCR,2024-06-21_12h46.45.142,LearnStrategy,2023.2.3,Win32,59.52380952,8,1,1,-0.125,-0.011111118,1,0,0,1.2129,rock_grid_rect_2,2,05,-1,-1,1.213,-0.162962949,-0.237963005,1,0,0,2.1289,Basalt_rect,2,2.129,1,0,0,0,0,1,,,,,,,,,,,,,
5c560b6fccb08c0001e134a8,TCR,2024-06-21_12h46.45.142,LearnStrategy,2023.2.3,Win32,59.52380952,8,1,2,-0.164814772,-0.002777771,1,0,0,0.7817,rock_grid_rect_2,5,07,-1,-1,0.782,-0.118518476,-0.419444473,1,0,0,5.312,Pegmatite_rect,6,5.312,0,1,0,1,0,1,,,,,,,,,,,,,
5c560b6fccb08c0001e134a8,TCR,2024-06-21_12h46.45.142,LearnStrategy,2023.2.3,Win32,59.52380952,8,1,3,-0.142592607,-0.012962977,1,0,0,0.8147,rock_grid_rect_2,6,03,-1,-1,0.815,-0.171296296,-0.400925954,1,0,0,3.3609,Pegmatite_rect,6,3.361,1,2,0,2,0,1,,,,,,,,,,,,,
5c560b6fccb08c0001e134a8,TCR,2024-06-21_12h46.45.142,LearnStrategy,2023.2.3,Win32,59.52380952,8,1,4,-0.159259231,-0.000925947,1,0,0,1.2477,rock_grid_rect_2,7,12,-1,-1,1.248,0.038888931,-0.257407436,1,0,0,1.7954,Diorite_rect,3,1.795,0,3,0,3,0,1,,,,,,,,,,,,,
5c560b6fccb08c0001e134a8,TCR,2024-06-21_12h46.45.142,LearnStrategy,2023.2.3,Win32,59.52380952,8,1,5,-0.104629587,-0.0074074,1,0,0,0.6905,rock_grid_rect_2,6,06,-1,-1,0.69,-0.350925905,-0.263888889,1,0,0,5.2449,Andesite_rect,1,5.245,0,4,0,4,0,1,,,,,,,,,,,,,
5c560b6fccb08c0001e134a8,TCR,2024-06-21_12h46.45.142,LearnStrategy,2023.2.3,Win32,59.52380952,8,1,6,-0.137962977,-0.009259259,1,0,0,0.7307,rock_grid_rect_2,1,10,-1,-1,0.731,0.363888917,-0.25462963,1,0,0,5.7021,Gabbro_rect,4,5.702,0,5,0,5,0,1,,,,,,,,,,,,,
5c560b6fccb08c0001e134a8,TCR,2024-06-21_12h46.45.142,LearnStrategy,2023.2.3,Win32,59.52380952,8,1,7,-0.161111125,-0.00462963,1,0,0,0.8826,rock_grid_rect_2,4,12,-1,-1,0.883,0.327777863,-0.264814801,1,0,0,1.2767,Gabbro_rect,4,1.277,1,6,0,6,0,1,,,,,,,,,,,,,
5c560b6fccb08c0001e134a8,TCR,2024-06-21_12h46.45.142,LearnStrategy,2023.2.3,Win32,59.52380952,8,1,8,-0.136111083,0.00462963,1,0,0,0.8146,rock_grid_rect_2,2,05,-1,-1,0.815,-0.158333319,-0.263888889,1,0,0,1.6871,Basalt_rect,2,1.687,1,7,0,7,0,1,,,,,,,,,,,,,
5c560b6fccb08c0001e134a8,TCR,2024-06-21_12h46.45.142,LearnStrategy,2023.2.3,Win32,59.52380952,8,1,9,-0.179629644,-0.0074074,1,0,0,0.6817,rock_grid_rect_2,6,09,-1,-1,0.682,-0.078703704,-0.400925954,1,0,0,6.7861,Pegmatite_rect,6,6.786,1,8,0,8,0,1,,,,,,,,,,,,,
5c560b6fccb08c0001e134a8,TCR,2024-06-21_12h46.45.142,LearnStrategy,2023.2.3,Win32,59.52380952,8,1,10,-0.107407393,0.0074074,1,0,0,0.7573,rock_grid_rect_2,3,11,-1,-1,0.757,0.088888875,-0.25462963,1,0,0,13.7615,Diorite_rect,3,13.761,1,9,0,9,0,1,,,,,,,,,,,,,
5c560b6fccb08c0001e134a8,TCR,2024-06-21_12h46.45.142,LearnStrategy,2023.2.3,Win32,59.52380952,8,1,11,-0.035185143,0.002777771,1,0,0,0.6976,rock_grid_rect_2,4,15,-1,-1,0.698,-0.320370356,-0.249074088,1,0,0,7.3121,Andesite_rect,1,7.312,0,10,0,10,0,1,,,,,,,,,,,,,
5c560b6fccb08c0001e134a8,TCR,2024-06-21_12h46.45.142,LearnStrategy,2023.2.3,Win32,59.52380952,8,1,12,-0.110185199,0.0074074,1,0,0,1.3479,rock_grid_rect_2,4,01,-1,-1,1.348,0.356481481,-0.257407436,1,0,0,3.6011,Gabbro_rect,4,3.601,1,11,0,11,0,1,,,,,,,,,,,,,
5c560b6fccb08c0001e134a8,TCR,2024-06-21_12h46.45.142,LearnStrategy,2023.2.3,Win32,59.52380952,8,1,13,-0.014814801,0.017592571,1,0,0,0.8343,rock_grid_rect_2,7,07,-1,-1,0.834,-0.325925933,-0.262962977,1,0,0,4.4144,Andesite_rect,1,4.414,0,12,0,12,0,1,,,,,,,,,,,,,
5c560b6fccb08c0001e134a8,TCR,2024-06-21_12h46.45.142,LearnStrategy,2023.2.3,Win32,59.52380952,8,1,14,-0.093518504,-0.021296289,1,0,0,0.8642,rock_grid_rect_2,1,02,-1,-1,0.864,-0.118518476,-0.400000042,1,0,0,3.845,Pegmatite_rect,6,3.845,0,13,0,13,0,1,,,,,,,,,,,,,
5c560b6fccb08c0001e134a8,TCR,2024-06-21_12h46.45.142,LearnStrategy,2023.2.3,Win32,59.52380952,8,1,15,-0.102777764,-0.005555577,1,0,0,0.7979,rock_grid_rect_2,1,04,-1,-1,0.798,-0.364814794,-0.255555541,1,0,0,1.3606,Andesite_rect,1,1.361,1,14,0,14,0,1,,,,,,,,,,,,,
5c560b6fccb08c0001e134a8,TCR,2024-06-21_12h46.45.142,LearnStrategy,2023.2.3,Win32,59.52380952,8,1,16,-0.093518504,0.001851859,1,0,0,0.7069,rock_grid_rect_2,3,10,-1,-1,0.707,0.087962963,-0.270370413,1,0,0,2.22,Diorite_rect,3,2.22,1,15,0,15,0,1,,,,,,,,,,,,,
5c560b6fccb08c0001e134a8,TCR,2024-06-21_12h46.45.142,LearnStrategy,2023.2.3,Win32,59.52380952,8,2,1,,,,,,,,7,14,,,,,,,,,,,7,2.687,1,,,,,,0.065740727,-0.413888931,1,0,0,2.6868,Peridotite_rect,0,0,0,0,1,
5c560b6fccb08c0001e134a8,TCR,2024-06-21_12h46.45.142,LearnStrategy,2023.2.3,Win32,59.52380952,8,2,2,,,,,,,,8,04,,,,,,,,,,,8,1.073,1,,,,,,0.354629658,-0.393518519,1,0,0,1.0735,Pumice_rect,1,0,1,0,1,
5c560b6fccb08c0001e134a8,TCR,2024-06-21_12h46.45.142,LearnStrategy,2023.2.3,Win32,59.52380952,8,2,3,,,,,,,,1,07,,,,,,,,,,,1,1.256,1,,,,,,-0.353703711,-0.251851894,1,0,0,1.2561,Andesite_rect,2,0,2,0,1,
5c560b6fccb08c0001e134a8,TCR,2024-06-21_12h46.45.142,LearnStrategy,2023.2.3,Win32,59.52380952,8,2,4,,,,,,,,2,12,,,,,,,,,,,4,4.089,0,,,,,,0.365740741,-0.251851894,1,0,0,4.0892,Gabbro_rect,3,0,3,0,1,
5c560b6fccb08c0001e134a8,TCR,2024-06-21_12h46.45.142,LearnStrategy,2023.2.3,Win32,59.52380952,8,2,5,,,,,,,,7,16,,,,,,,,,,,5,1.583,0,,,,,,-0.340740734,-0.400000042,1,0,0,1.5834,Obsidian_rect,4,0,4,0,1,
5c560b6fccb08c0001e134a8,TCR,2024-06-21_12h46.45.142,LearnStrategy,2023.2.3,Win32,59.52380952,8,2,6,,,,,,,,4,14,,,,,,,,,,,2,4.309,0,,,,,,-0.150925884,-0.241666653,1,0,0,4.3087,Basalt_rect,5,0,5,0,1,
5c560b6fccb08c0001e134a8,TCR,2024-06-21_12h46.45.142,LearnStrategy,2023.2.3,Win32,59.52380952,8,2,7,,,,,,,,6,07,,,,,,,,,,,6,9.274,1,,,,,,-0.069444444,-0.415740755,1,0,0,9.2745,Pegmatite_rect,6,0,6,0,1,
5c560b6fccb08c0001e134a8,TCR,2024-06-21_12h46.45.142,LearnStrategy,2023.2.3,Win32,59.52380952,8,2,8,,,,,,,,4,09,,,,,,,,,,,4,5.64,1,,,,,,0.372222194,-0.255555541,1,0,0,5.6403,Gabbro_rect,7,0,7,0,1,
5c560b6fccb08c0001e134a8,TCR,2024-06-21_12h46.45.142,LearnStrategy,2023.2.3,Win32,59.52380952,8,2,9,,,,,,,,1,06,,,,,,,,,,,1,1.124,1,,,,,,-0.349074081,-0.232407393,1,0,0,1.1245,Andesite_rect,8,0,8,0,1,
5c560b6fccb08c0001e134a8,TCR,2024-06-21_12h46.45.142,LearnStrategy,2023.2.3,Win32,59.52380952,8,2,10,,,,,,,,5,10,,,,,,,,,,,3,1.34,0,,,,,,0.108333376,-0.252777806,1,0,0,1.3395,Diorite_rect,9,0,9,0,1,
5c560b6fccb08c0001e134a8,TCR,2024-06-21_12h46.45.142,LearnStrategy,2023.2.3,Win32,59.52380952,8,2,11,,,,,,,,5,14,,,,,,,,,,,5,2.04,1,,,,,,-0.372222229,-0.390740783,1,0,0,2.0397,Obsidian_rect,10,0,10,0,1,
5c560b6fccb08c0001e134a8,TCR,2024-06-21_12h46.45.142,LearnStrategy,2023.2.3,Win32,59.52380952,8,2,12,,,,,,,,3,08,,,,,,,,,,,3,1.207,1,,,,,,0.071296339,-0.252777806,1,0,0,1.207,Diorite_rect,11,0,11,0,1,
5c560b6fccb08c0001e134a8,TCR,2024-06-21_12h46.45.142,LearnStrategy,2023.2.3,Win32,59.52380952,8,2,13,,,,,,,,2,01,,,,,,,,,,,4,1.84,0,,,,,,0.343518575,-0.235185199,1,0,0,1.8396,Gabbro_rect,12,0,12,0,1,
5c560b6fccb08c0001e134a8,TCR,2024-06-21_12h46.45.142,LearnStrategy,2023.2.3,Win32,59.52380952,8,2,14,,,,,,,,6,05,,,,,,,,,,,3,1.412,0,,,,,,0.082407422,-0.253703718,1,0,0,1.412,Diorite_rect,13,0,13,0,1,
5c560b6fccb08c0001e134a8,TCR,2024-06-21_12h46.45.142,LearnStrategy,2023.2.3,Win32,59.52380952,8,2,15,,,,,,,,3,09,,,,,,,,,,,6,8.196,0,,,,,,-0.062037009,-0.393518519,1,0,0,8.1963,Pegmatite_rect,14,0,14,0,1,
5c560b6fccb08c0001e134a8,TCR,2024-06-21_12h46.45.142,LearnStrategy,2023.2.3,Win32,59.52380952,8,2,16,,,,,,,,8,16,,,,,,,,,,,8,1.823,1,,,,,,0.384259259,-0.418518561,1,0,0,1.8228,Pumice_rect,15,0,15,0,1,
5c560b6fccb08c0001e134a8,TCR,2024-06-21_12h46.45.142,LearnStrategy,2023.2.3,Win32,59.52380952,9,1,1,-0.090740698,0.008333312,1,0,0,1.4968,rock_grid_rect_2,2,06,-1,-1,1.497,-0.387962942,-0.237963005,1,0,0,17.2452,Andesite_rect,1,17.245,0,0,0,0,0,1,,,,,,,,,,,,,
5c560b6fccb08c0001e134a8,TCR,2024-06-21_12h46.45.142,LearnStrategy,2023.2.3,Win32,59.52380952,9,1,2,-0.154629601,0.003703683,1,0,0,0.7981,rock_grid_rect_2,5,04,-1,-1,0.798,-0.348148134,-0.389814801,1,0,0,1.1752,Obsidian_rect,5,1.175,1,1,0,1,0,1,,,,,,,,,,,,,
5c560b6fccb08c0001e134a8,TCR,2024-06-21_12h46.45.142,LearnStrategy,2023.2.3,Win32,59.52380952,9,1,3,-0.155555513,-0.003703718,1,0,0,0.665,rock_grid_rect_2,3,10,-1,-1,0.665,0.348148205,-0.261111153,1,0,0,1.5623,Gabbro_rect,4,1.562,0,2,0,2,0,1,,,,,,,,,,,,,
5c560b6fccb08c0001e134a8,TCR,2024-06-21_12h46.45.142,LearnStrategy,2023.2.3,Win32,59.52380952,9,1,4,-0.106481481,-0.009259259,1,0,0,2.2809,rock_grid_rect_2,1,11,-1,-1,2.281,-0.353703711,-0.260185171,1,0,0,2.0124,Andesite_rect,1,2.012,1,3,0,3,0,1,,,,,,,,,,,,,
5c560b6fccb08c0001e134a8,TCR,2024-06-21_12h46.45.142,LearnStrategy,2023.2.3,Win32,59.52380952,9,1,5,-0.137962977,-0.014814836,1,0,0,0.6198,rock_grid_rect_2,4,12,-1,-1,0.62,0.367592564,-0.25,1,0,0,2.8567,Gabbro_rect,4,2.857,1,4,0,4,0,1,,,,,,,,,,,,,
5c560b6fccb08c0001e134a8,TCR,2024-06-21_12h46.45.142,LearnStrategy,2023.2.3,Win32,59.52380952,9,1,6,-0.134259259,-0.023148148,1,0,0,0.6658,rock_grid_rect_2,6,06,-1,-1,0.666,-0.090740698,-0.405555584,1,0,0,3.3684,Pegmatite_rect,6,3.368,1,5,0,5,0,1,,,,,,,,,,,,,
5c560b6fccb08c0001e134a8,TCR,2024-06-21_12h46.45.142,LearnStrategy,2023.2.3,Win32,59.52380952,9,1,7,-0.097222222,-0.017592607,1,0,0,0.7147,rock_grid_rect_2,7,06,-1,-1,0.715,0.074074074,-0.406481496,1,0,0,1.5776,Peridotite_rect,7,1.578,1,6,0,6,0,1,,,,,,,,,,,,,
5c560b6fccb08c0001e134a8,TCR,2024-06-21_12h46.45.142,LearnStrategy,2023.2.3,Win32,59.52380952,9,1,8,-0.093518504,-0.010185206,1,0,0,0.6644,rock_grid_rect_2,4,12,-1,-1,0.664,-0.335185192,-0.25,1,0,0,1.7039,Andesite_rect,1,1.704,0,7,0,7,0,1,,,,,,,,,,,,,
5c560b6fccb08c0001e134a8,TCR,2024-06-21_12h46.45.142,LearnStrategy,2023.2.3,Win32,59.52380952,9,1,9,-0.080555527,0.005555541,1,0,0,1.2481,rock_grid_rect_2,1,10,-1,-1,1.248,0.347222222,-0.253703718,1,0,0,1.4089,Gabbro_rect,4,1.409,0,8,0,8,0,1,,,,,,,,,,,,,
5c560b6fccb08c0001e134a8,TCR,2024-06-21_12h46.45.142,LearnStrategy,2023.2.3,Win32,59.52380952,9,1,10,-0.074999986,0.017592571,1,0,0,0.6576,rock_grid_rect_2,3,07,-1,-1,0.658,0.091666681,-0.251851894,1,0,0,1.0945,Diorite_rect,3,1.094,1,9,0,9,0,1,,,,,,,,,,,,,
5c560b6fccb08c0001e134a8,TCR,2024-06-21_12h46.45.142,LearnStrategy,2023.2.3,Win32,59.52380952,9,1,11,-0.156481496,-0.014814836,1,0,0,0.681,rock_grid_rect_2,2,08,-1,-1,0.681,-0.147222236,-0.25462963,1,0,0,1.6953,Basalt_rect,2,1.695,1,10,0,10,0,1,,,,,,,,,,,,,
5c560b6fccb08c0001e134a8,TCR,2024-06-21_12h46.45.142,LearnStrategy,2023.2.3,Win32,59.52380952,9,1,12,-0.146296254,-0.001851859,1,0,0,0.5813,rock_grid_rect_2,6,08,-1,-1,0.581,0.060185185,-0.404629672,1,0,0,2.0945,Peridotite_rect,7,2.094,0,11,0,11,0,1,,,,,,,,,,,,,
5c560b6fccb08c0001e134a8,TCR,2024-06-21_12h46.45.142,LearnStrategy,2023.2.3,Win32,59.52380952,9,1,13,-0.158333319,0.010185171,1,0,0,0.8314,rock_grid_rect_2,2,16,-1,-1,0.831,-0.119444459,-0.244444459,1,0,0,4.8843,Basalt_rect,2,4.884,1,12,0,12,0,1,,,,,,,,,,,,,
5c560b6fccb08c0001e134a8,TCR,2024-06-21_12h46.45.142,LearnStrategy,2023.2.3,Win32,59.52380952,9,1,14,-0.133333347,-0.000925947,1,0,0,0.5315,rock_grid_rect_2,7,07,-1,-1,0.532,0.086111139,-0.389814801,1,0,0,3.608,Peridotite_rect,7,3.608,1,13,0,13,0,1,,,,,,,,,,,,,
5c560b6fccb08c0001e134a8,TCR,2024-06-21_12h46.45.142,LearnStrategy,2023.2.3,Win32,59.52380952,9,1,15,-0.132407365,0.017592571,1,0,0,0.5651,rock_grid_rect_2,6,03,-1,-1,0.565,-0.150925884,-0.387962977,1,0,0,1.4278,Pegmatite_rect,6,1.428,1,14,0,14,0,1,,,,,,,,,,,,,
5c560b6fccb08c0001e134a8,TCR,2024-06-21_12h46.45.142,LearnStrategy,2023.2.3,Win32,59.52380952,9,1,16,-0.095370328,0.002777771,1,0,0,0.6147,rock_grid_rect_2,4,10,-1,-1,0.615,0.346296381,-0.235185199,1,0,0,7.245,Gabbro_rect,4,7.245,1,15,0,15,0,1,,,,,,,,,,,,,
5c560b6fccb08c0001e134a8,TCR,2024-06-21_12h46.45.142,LearnStrategy,2023.2.3,Win32,59.52380952,9,2,1,,,,,,,,6,15,,,,,,,,,,,6,2.275,1,,,,,,-0.112037023,-0.405555584,1,0,0,2.2751,Pegmatite_rect,0,0,0,0,1,
5c560b6fccb08c0001e134a8,TCR,2024-06-21_12h46.45.142,LearnStrategy,2023.2.3,Win32,59.52380952,9,2,2,,,,,,,,2,10,,,,,,,,,,,5,1.341,0,,,,,,-0.354629623,-0.390740783,1,0,0,1.3413,Obsidian_rect,1,0,1,0,1,
5c560b6fccb08c0001e134a8,TCR,2024-06-21_12h46.45.142,LearnStrategy,2023.2.3,Win32,59.52380952,9,2,3,,,,,,,,2,09,,,,,,,,,,,4,1.739,0,,,,,,0.376851824,-0.251851894,1,0,0,1.7389,Gabbro_rect,2,0,2,0,1,
5c560b6fccb08c0001e134a8,TCR,2024-06-21_12h46.45.142,LearnStrategy,2023.2.3,Win32,59.52380952,9,2,4,,,,,,,,8,15,,,,,,,,,,,8,1.106,1,,,,,,0.358333305,-0.387962977,1,0,0,1.1064,Pumice_rect,3,0,3,0,1,
5c560b6fccb08c0001e134a8,TCR,2024-06-21_12h46.45.142,LearnStrategy,2023.2.3,Win32,59.52380952,9,2,5,,,,,,,,5,02,,,,,,,,,,,5,0.94,1,,,,,,-0.357407393,-0.390740783,1,0,0,0.9399,Obsidian_rect,4,0,4,0,1,
5c560b6fccb08c0001e134a8,TCR,2024-06-21_12h46.45.142,LearnStrategy,2023.2.3,Win32,59.52380952,9,2,6,,,,,,,,4,03,,,,,,,,,,,4,5.673,1,,,,,,0.377777806,-0.229629658,1,0,0,5.6727,Gabbro_rect,5,0,5,0,1,
5c560b6fccb08c0001e134a8,TCR,2024-06-21_12h46.45.142,LearnStrategy,2023.2.3,Win32,59.52380952,9,2,7,,,,,,,,5,06,,,,,,,,,,,5,1.541,1,,,,,,-0.397222201,-0.380555541,1,0,0,1.5409,Obsidian_rect,6,0,6,0,1,
5c560b6fccb08c0001e134a8,TCR,2024-06-21_12h46.45.142,LearnStrategy,2023.2.3,Win32,59.52380952,9,2,8,,,,,,,,7,05,,,,,,,,,,,7,1.913,1,,,,,,0.091666681,-0.398148148,1,0,0,1.9135,Peridotite_rect,7,0,7,0,1,
5c560b6fccb08c0001e134a8,TCR,2024-06-21_12h46.45.142,LearnStrategy,2023.2.3,Win32,59.52380952,9,2,9,,,,,,,,6,11,,,,,,,,,,,3,2.041,0,,,,,,0.074074074,-0.249074088,1,0,0,2.0408,Diorite_rect,8,0,8,0,1,
5c560b6fccb08c0001e134a8,TCR,2024-06-21_12h46.45.142,LearnStrategy,2023.2.3,Win32,59.52380952,9,2,10,,,,,,,,3,06,,,,,,,,,,,6,3.127,0,,,,,,-0.171296296,-0.389814801,1,0,0,3.1269,Pegmatite_rect,9,0,9,0,1,
5c560b6fccb08c0001e134a8,TCR,2024-06-21_12h46.45.142,LearnStrategy,2023.2.3,Win32,59.52380952,9,2,11,,,,,,,,3,13,,,,,,,,,,,1,1.507,0,,,,,,-0.354629623,-0.244444459,1,0,0,1.5069,Andesite_rect,10,0,10,0,1,
5c560b6fccb08c0001e134a8,TCR,2024-06-21_12h46.45.142,LearnStrategy,2023.2.3,Win32,59.52380952,9,2,12,,,,,,,,1,03,,,,,,,,,,,1,1.19,1,,,,,,-0.35833334,-0.241666653,1,0,0,1.1898,Andesite_rect,11,0,11,0,1,
5c560b6fccb08c0001e134a8,TCR,2024-06-21_12h46.45.142,LearnStrategy,2023.2.3,Win32,59.52380952,9,2,13,,,,,,,,7,08,,,,,,,,,,,7,1.723,1,,,,,,0.079629616,-0.388888889,1,0,0,1.7229,Peridotite_rect,12,0,12,0,1,
5c560b6fccb08c0001e134a8,TCR,2024-06-21_12h46.45.142,LearnStrategy,2023.2.3,Win32,59.52380952,9,2,14,,,,,,,,8,14,,,,,,,,,,,8,1.192,1,,,,,,0.339814787,-0.397222236,1,0,0,1.1918,Pumice_rect,13,0,13,0,1,
5c560b6fccb08c0001e134a8,TCR,2024-06-21_12h46.45.142,LearnStrategy,2023.2.3,Win32,59.52380952,9,2,15,,,,,,,,1,01,,,,,,,,,,,3,8.238,0,,,,,,0.087962963,-0.248148176,1,0,0,8.238,Diorite_rect,14,0,14,0,1,
5c560b6fccb08c0001e134a8,TCR,2024-06-21_12h46.45.142,LearnStrategy,2023.2.3,Win32,59.52380952,9,2,16,,,,,,,,4,05,,,,,,,,,,,4,6.89,1,,,,,,0.332407492,-0.252777806,1,0,0,6.8904,Gabbro_rect,15,0,15,0,1,
5c560b6fccb08c0001e134a8,TCR,2024-06-21_12h46.45.142,LearnStrategy,2023.2.3,Win32,59.52380952,,,,,,,,,,,,,,,,,,,,,,,,,,,,,,,,,,,,,,,,,,,0
5c560b6fccb08c0001e134a8,TCR,2024-06-21_12h46.45.142,LearnStrategy,2023.2.3,Win32,59.52380952,,,,,,,,,,,,,,,,,,,,,,,,,,,,,,,,,,,,,,,,,,,
5c560b6fccb08c0001e134a8,TCR,2024-06-21_12h46.45.142,LearnStrategy,2023.2.3,Win32,59.52380952,,,,,,,,,,,7,06,1,1,,,,,,,,,,,,,,,,,,,,,,,,,,,,,
5c560b6fccb08c0001e134a8,TCR,2024-06-21_12h46.45.142,LearnStrategy,2023.2.3,Win32,59.52380952,,,,,,,,,,,2,08,1,2,,,,,,,,,,,,,,,,,,,,,,,,,,,,,
5c560b6fccb08c0001e134a8,TCR,2024-06-21_12h46.45.142,LearnStrategy,2023.2.3,Win32,59.52380952,,,,,,,,,,,7,04,1,3,,,,,,,,,,,,,,,,,,,,,,,,,,,,,
5c560b6fccb08c0001e134a8,TCR,2024-06-21_12h46.45.142,LearnStrategy,2023.2.3,Win32,59.52380952,,,,,,,,,,,6,12,1,4,,,,,,,,,,,,,,,,,,,,,,,,,,,,,
5c560b6fccb08c0001e134a8,TCR,2024-06-21_12h46.45.142,LearnStrategy,2023.2.3,Win32,59.52380952,,,,,,,,,,,4,15,1,5,,,,,,,,,,,,,,,,,,,,,,,,,,,,,
5c560b6fccb08c0001e134a8,TCR,2024-06-21_12h46.45.142,LearnStrategy,2023.2.3,Win32,59.52380952,,,,,,,,,,,1,09,1,6,,,,,,,,,,,,,,,,,,,,,,,,,,,,,
5c560b6fccb08c0001e134a8,TCR,2024-06-21_12h46.45.142,LearnStrategy,2023.2.3,Win32,59.52380952,,,,,,,,,,,3,02,1,7,,,,,,,,,,,,,,,,,,,,,,,,,,,,,
5c560b6fccb08c0001e134a8,TCR,2024-06-21_12h46.45.142,LearnStrategy,2023.2.3,Win32,59.52380952,,,,,,,,,,,7,13,1,8,,,,,,,,,,,,,,,,,,,,,,,,,,,,,
5c560b6fccb08c0001e134a8,TCR,2024-06-21_12h46.45.142,LearnStrategy,2023.2.3,Win32,59.52380952,,,,,,,,,,,5,04,2,1,,,,,,,,,,,,,,,,,,,,,,,,,,,,,
5c560b6fccb08c0001e134a8,TCR,2024-06-21_12h46.45.142,LearnStrategy,2023.2.3,Win32,59.52380952,,,,,,,,,,,4,01,2,2,,,,,,,,,,,,,,,,,,,,,,,,,,,,,
5c560b6fccb08c0001e134a8,TCR,2024-06-21_12h46.45.142,LearnStrategy,2023.2.3,Win32,59.52380952,,,,,,,,,,,5,07,2,3,,,,,,,,,,,,,,,,,,,,,,,,,,,,,
5c560b6fccb08c0001e134a8,TCR,2024-06-21_12h46.45.142,LearnStrategy,2023.2.3,Win32,59.52380952,,,,,,,,,,,1,11,2,4,,,,,,,,,,,,,,,,,,,,,,,,,,,,,
5c560b6fccb08c0001e134a8,TCR,2024-06-21_12h46.45.142,LearnStrategy,2023.2.3,Win32,59.52380952,,,,,,,,,,,2,06,2,5,,,,,,,,,,,,,,,,,,,,,,,,,,,,,
5c560b6fccb08c0001e134a8,TCR,2024-06-21_12h46.45.142,LearnStrategy,2023.2.3,Win32,59.52380952,,,,,,,,,,,8,10,2,6,,,,,,,,,,,,,,,,,,,,,,,,,,,,,
5c560b6fccb08c0001e134a8,TCR,2024-06-21_12h46.45.142,LearnStrategy,2023.2.3,Win32,59.52380952,,,,,,,,,,,2,16,2,7,,,,,,,,,,,,,,,,,,,,,,,,,,,,,
5c560b6fccb08c0001e134a8,TCR,2024-06-21_12h46.45.142,LearnStrategy,2023.2.3,Win32,59.52380952,,,,,,,,,,,1,04,2,8,,,,,,,,,,,,,,,,,,,,,,,,,,,,,
5c560b6fccb08c0001e134a8,TCR,2024-06-21_12h46.45.142,LearnStrategy,2023.2.3,Win32,59.52380952,,,,,,,,,,,2,11,3,1,,,,,,,,,,,,,,,,,,,,,,,,,,,,,
5c560b6fccb08c0001e134a8,TCR,2024-06-21_12h46.45.142,LearnStrategy,2023.2.3,Win32,59.52380952,,,,,,,,,,,6,08,3,2,,,,,,,,,,,,,,,,,,,,,,,,,,,,,
5c560b6fccb08c0001e134a8,TCR,2024-06-21_12h46.45.142,LearnStrategy,2023.2.3,Win32,59.52380952,,,,,,,,,,,1,02,3,3,,,,,,,,,,,,,,,,,,,,,,,,,,,,,
5c560b6fccb08c0001e134a8,TCR,2024-06-21_12h46.45.142,LearnStrategy,2023.2.3,Win32,59.52380952,,,,,,,,,,,4,12,3,4,,,,,,,,,,,,,,,,,,,,,,,,,,,,,
5c560b6fccb08c0001e134a8,TCR,2024-06-21_12h46.45.142,LearnStrategy,2023.2.3,Win32,59.52380952,,,,,,,,,,,1,14,3,5,,,,,,,,,,,,,,,,,,,,,,,,,,,,,
5c560b6fccb08c0001e134a8,TCR,2024-06-21_12h46.45.142,LearnStrategy,2023.2.3,Win32,59.52380952,,,,,,,,,,,7,07,3,6,,,,,,,,,,,,,,,,,,,,,,,,,,,,,
5c560b6fccb08c0001e134a8,TCR,2024-06-21_12h46.45.142,LearnStrategy,2023.2.3,Win32,59.52380952,,,,,,,,,,,1,10,3,7,,,,,,,,,,,,,,,,,,,,,,,,,,,,,
5c560b6fccb08c0001e134a8,TCR,2024-06-21_12h46.45.142,LearnStrategy,2023.2.3,Win32,59.52380952,,,,,,,,,,,6,16,3,8,,,,,,,,,,,,,,,,,,,,,,,,,,,,,
5c560b6fccb08c0001e134a8,TCR,2024-06-21_12h46.45.142,LearnStrategy,2023.2.3,Win32,59.52380952,,,,,,,,,,,5,05,4,1,,,,,,,,,,,,,,,,,,,,,,,,,,,,,
5c560b6fccb08c0001e134a8,TCR,2024-06-21_12h46.45.142,LearnStrategy,2023.2.3,Win32,59.52380952,,,,,,,,,,,8,08,4,2,,,,,,,,,,,,,,,,,,,,,,,,,,,,,
5c560b6fccb08c0001e134a8,TCR,2024-06-21_12h46.45.142,LearnStrategy,2023.2.3,Win32,59.52380952,,,,,,,,,,,3,12,4,3,,,,,,,,,,,,,,,,,,,,,,,,,,,,,
5c560b6fccb08c0001e134a8,TCR,2024-06-21_12h46.45.142,LearnStrategy,2023.2.3,Win32,59.52380952,,,,,,,,,,,8,06,4,4,,,,,,,,,,,,,,,,,,,,,,,,,,,,,
5c560b6fccb08c0001e134a8,TCR,2024-06-21_12h46.45.142,LearnStrategy,2023.2.3,Win32,59.52380952,,,,,,,,,,,4,10,4,5,,,,,,,,,,,,,,,,,,,,,,,,,,,,,
5c560b6fccb08c0001e134a8,TCR,2024-06-21_12h46.45.142,LearnStrategy,2023.2.3,Win32,59.52380952,,,,,,,,,,,3,14,4,6,,,,,,,,,,,,,,,,,,,,,,,,,,,,,
5c560b6fccb08c0001e134a8,TCR,2024-06-21_12h46.45.142,LearnStrategy,2023.2.3,Win32,59.52380952,,,,,,,,,,,8,05,4,7,,,,,,,,,,,,,,,,,,,,,,,,,,,,,
5c560b6fccb08c0001e134a8,TCR,2024-06-21_12h46.45.142,LearnStrategy,2023.2.3,Win32,59.52380952,,,,,,,,,,,7,10,4,8,,,,,,,,,,,,,,,,,,,,,,,,,,,,,
5c560b6fccb08c0001e134a8,TCR,2024-06-21_12h46.45.142,LearnStrategy,2023.2.3,Win32,59.52380952,,,,,,,,,,,3,07,5,1,,,,,,,,,,,,,,,,,,,,,,,,,,,,,
5c560b6fccb08c0001e134a8,TCR,2024-06-21_12h46.45.142,LearnStrategy,2023.2.3,Win32,59.52380952,,,,,,,,,,,3,10,5,2,,,,,,,,,,,,,,,,,,,,,,,,,,,,,
5c560b6fccb08c0001e134a8,TCR,2024-06-21_12h46.45.142,LearnStrategy,2023.2.3,Win32,59.52380952,,,,,,,,,,,2,05,5,3,,,,,,,,,,,,,,,,,,,,,,,,,,,,,
5c560b6fccb08c0001e134a8,TCR,2024-06-21_12h46.45.142,LearnStrategy,2023.2.3,Win32,59.52380952,,,,,,,,,,,3,11,5,4,,,,,,,,,,,,,,,,,,,,,,,,,,,,,
5c560b6fccb08c0001e134a8,TCR,2024-06-21_12h46.45.142,LearnStrategy,2023.2.3,Win32,59.52380952,,,,,,,,,,,7,12,5,5,,,,,,,,,,,,,,,,,,,,,,,,,,,,,
5c560b6fccb08c0001e134a8,TCR,2024-06-21_12h46.45.142,LearnStrategy,2023.2.3,Win32,59.52380952,,,,,,,,,,,8,13,5,6,,,,,,,,,,,,,,,,,,,,,,,,,,,,,
5c560b6fccb08c0001e134a8,TCR,2024-06-21_12h46.45.142,LearnStrategy,2023.2.3,Win32,59.52380952,,,,,,,,,,,4,13,5,7,,,,,,,,,,,,,,,,,,,,,,,,,,,,,
5c560b6fccb08c0001e134a8,TCR,2024-06-21_12h46.45.142,LearnStrategy,2023.2.3,Win32,59.52380952,,,,,,,,,,,5,11,5,8,,,,,,,,,,,,,,,,,,,,,,,,,,,,,
5c560b6fccb08c0001e134a8,TCR,2024-06-21_12h46.45.142,LearnStrategy,2023.2.3,Win32,59.52380952,,,,,,,,,,,2,02,6,1,,,,,,,,,,,,,,,,,,,,,,,,,,,,,
5c560b6fccb08c0001e134a8,TCR,2024-06-21_12h46.45.142,LearnStrategy,2023.2.3,Win32,59.52380952,,,,,,,,,,,5,12,6,2,,,,,,,,,,,,,,,,,,,,,,,,,,,,,
5c560b6fccb08c0001e134a8,TCR,2024-06-21_12h46.45.142,LearnStrategy,2023.2.3,Win32,59.52380952,,,,,,,,,,,6,03,6,3,,,,,,,,,,,,,,,,,,,,,,,,,,,,,
5c560b6fccb08c0001e134a8,TCR,2024-06-21_12h46.45.142,LearnStrategy,2023.2.3,Win32,59.52380952,,,,,,,,,,,4,11,6,4,,,,,,,,,,,,,,,,,,,,,,,,,,,,,
5c560b6fccb08c0001e134a8,TCR,2024-06-21_12h46.45.142,LearnStrategy,2023.2.3,Win32,59.52380952,,,,,,,,,,,8,03,6,5,,,,,,,,,,,,,,,,,,,,,,,,,,,,,
5c560b6fccb08c0001e134a8,TCR,2024-06-21_12h46.45.142,LearnStrategy,2023.2.3,Win32,59.52380952,,,,,,,,,,,6,09,6,6,,,,,,,,,,,,,,,,,,,,,,,,,,,,,
5c560b6fccb08c0001e134a8,TCR,2024-06-21_12h46.45.142,LearnStrategy,2023.2.3,Win32,59.52380952,,,,,,,,,,,6,06,6,7,,,,,,,,,,,,,,,,,,,,,,,,,,,,,
5c560b6fccb08c0001e134a8,TCR,2024-06-21_12h46.45.142,LearnStrategy,2023.2.3,Win32,59.52380952,,,,,,,,,,,5,08,6,8,,,,,,,,,,,,,,,,,,,,,,,,,,,,,