participant,condition,date,expName,psychopyVersion,OS,frameRate,block,phase,trial,learn_mouse.x,learn_mouse.y,learn_mouse.leftButton,learn_mouse.midButton,learn_mouse.rightButton,learn_mouse.time,learn_mouse.clicked_name,cat,token,row,col,t_select,cat_rec,token_rec,cat_mouse_l.x,cat_mouse_l.y,cat_mouse_l.leftButton,cat_mouse_l.midButton,cat_mouse_l.rightButton,cat_mouse_l.time,cat_mouse_l.clicked_name,resp,t_resp,corr,train_trials.thisRepN,train_trials.thisTrialN,train_trials.thisN,train_trials.thisIndex,train_trials.ran,cat_mouse_t.x,cat_mouse_t.y,cat_mouse_t.leftButton,cat_mouse_t.midButton,cat_mouse_t.rightButton,cat_mouse_t.time,cat_mouse_t.clicked_name,test_trials.thisRepN,test_trials.thisTrialN,test_trials.thisN,test_trials.thisIndex,test_trials.ran
5c61a77464fd2100010e09f7,SCR,2024-06-10_15h13.18.054,LearnStrategy,2023.2.3,Win32,5.458515284,,,,,,,,,,,,,,,,,,,,,,,,,,,,,,,,,,,,,,,,,,,,
5c61a77464fd2100010e09f7,SCR,2024-06-10_15h13.18.054,LearnStrategy,2023.2.3,Win32,5.458515284,1,1,1,0.572496235,-0.10329634,1,0,0,9.1455,Basalt_10,2,10,3,8,9.145,2,10,-0.137209679,-0.248568542,1,0,0,11.124,Basalt_rect,2,11.124,1,0,0,0,0,1,,,,,,,,,,,,
5c61a77464fd2100010e09f7,SCR,2024-06-10_15h13.18.054,LearnStrategy,2023.2.3,Win32,5.458515284,1,1,2,-0.070588041,0.100269952,1,0,0,1.6645,Peridotite_05,7,05,4,4,1.665,7,05,0.380958943,-0.237464923,1,0,0,5.2778,Gabbro_rect,4,5.278,0,1,0,1,0,1,,,,,,,,,,,,
5c61a77464fd2100010e09f7,SCR,2024-06-10_15h13.18.054,LearnStrategy,2023.2.3,Win32,5.458515284,1,1,3,0.404091414,0.279778336,1,0,0,1.4789,Pegmatite_13,6,13,5,7,1.479,6,13,-0.145537374,-0.386438503,1,0,0,7.974,Pegmatite_rect,6,7.974,1,2,0,2,0,1,,,,,,,,,,,,
5c61a77464fd2100010e09f7,SCR,2024-06-10_15h13.18.054,LearnStrategy,2023.2.3,Win32,5.458515284,1,1,4,0.536409603,0.103045801,1,0,0,2.1569,Andesite_03,1,03,4,8,2.157,1,03,0.430925264,-0.261522849,1,0,0,5.9464,Gabbro_rect,4,5.946,0,3,0,3,0,1,,,,,,,,,,,,
5c61a77464fd2100010e09f7,SCR,2024-06-10_15h13.18.054,LearnStrategy,2023.2.3,Win32,5.458515284,1,1,5,-0.540641031,-0.270775852,1,0,0,3.5763,Gabbro_14,4,14,2,1,3.576,4,14,0.111696321,-0.253195154,1,0,0,6.4419,Diorite_rect,3,6.442,0,4,0,4,0,1,,,,,,,,,,,,
5c61a77464fd2100010e09f7,SCR,2024-06-10_15h13.18.054,LearnStrategy,2023.2.3,Win32,5.458515284,1,1,6,0.2662216,0.078988022,1,0,0,3.1132,Andesite_06,1,06,4,6,3.113,1,06,0.111696321,-0.267074622,1,0,0,6.2387,Diorite_rect,3,6.239,0,5,0,5,0,1,,,,,,,,,,,,
5c61a77464fd2100010e09f7,SCR,2024-06-10_15h13.18.054,LearnStrategy,2023.2.3,Win32,5.458515284,1,1,7,0.565093921,0.435228927,1,0,0,1.4381,Diorite_08,3,08,6,8,1.438,3,08,0.144081869,-0.245792692,1,0,0,7.8731,Diorite_rect,3,7.873,1,6,0,6,0,1,,,,,,,,,,,,
5c61a77464fd2100010e09f7,SCR,2024-06-10_15h13.18.054,LearnStrategy,2023.2.3,Win32,5.458515284,1,1,8,-0.537865071,0.103971109,1,0,0,3.166,Peridotite_10,7,10,4,1,3.166,7,10,0.087638469,-0.416973289,1,0,0,5.1915,Peridotite_rect,7,5.192,1,7,0,7,0,1,,,,,,,,,,,,
5c61a77464fd2100010e09f7,SCR,2024-06-10_15h13.18.054,LearnStrategy,2023.2.3,Win32,5.458515284,1,1,9,-0.06040973,0.40469398,1,0,0,1.3894,Pegmatite_16,6,16,6,4,1.389,6,16,-0.123330137,-0.417898743,1,0,0,2.4867,Pegmatite_rect,6,2.487,1,8,0,8,0,1,,,,,,,,,,,,
5c61a77464fd2100010e09f7,SCR,2024-06-10_15h13.18.054,LearnStrategy,2023.2.3,Win32,5.458515284,1,1,10,-0.372236174,0.096568684,1,0,0,2.2326,Basalt_08,2,08,4,2,2.233,2,08,-0.159416916,-0.25967216,1,0,0,1.2485,Basalt_rect,2,1.248,1,9,0,9,0,1,,,,,,,,,,,,
5c61a77464fd2100010e09f7,SCR,2024-06-10_15h13.18.054,LearnStrategy,2023.2.3,Win32,5.458515284,1,1,11,0.043224068,0.106747032,1,0,0,1.7295,Obsidian_10,5,10,4,5,1.73,5,10,-0.350954244,-0.382737199,1,0,0,1.2757,Obsidian_rect,5,1.276,1,10,0,10,0,1,,,,,,,,,,,,
5c61a77464fd2100010e09f7,SCR,2024-06-10_15h13.18.054,LearnStrategy,2023.2.3,Win32,5.458515284,1,1,12,-0.087243505,0.268674736,1,0,0,0.987,Pumice_10,8,10,5,4,0.987,8,10,0.409643113,-0.404944436,1,0,0,4.3354,Pumice_rect,8,4.335,1,11,0,11,0,1,,,,,,,,,,,,
5c61a77464fd2100010e09f7,SCR,2024-06-10_15h13.18.054,LearnStrategy,2023.2.3,Win32,5.458515284,1,1,13,0.077460158,0.234438572,1,0,0,1.9844,Pumice_05,8,05,5,5,1.984,8,05,0.3966891,-0.413272205,1,0,0,2.2728,Pumice_rect,8,2.273,1,12,0,12,0,1,,,,,,,,,,,,
5c61a77464fd2100010e09f7,SCR,2024-06-10_15h13.18.054,LearnStrategy,2023.2.3,Win32,5.458515284,1,1,14,-0.221412089,-0.119026497,1,0,0,5.4423,Andesite_05,1,05,3,3,5.442,4,11,-0.345402435,-0.26522408,1,0,0,1.3392,Andesite_rect,1,1.339,1,13,0,13,0,1,,,,,,,,,,,,
5c61a77464fd2100010e09f7,SCR,2024-06-10_15h13.18.054,LearnStrategy,2023.2.3,Win32,5.458515284,1,1,15,0.514202366,0.249243385,1,0,0,5.9042,Andesite_14,1,14,5,8,5.904,5,05,0.120024017,-0.269850471,1,0,0,6.3137,Diorite_rect,3,6.314,0,14,0,14,0,1,,,,,,,,,,,,
5c61a77464fd2100010e09f7,SCR,2024-06-10_15h13.18.054,LearnStrategy,2023.2.3,Win32,5.458515284,1,1,16,-0.371310866,-0.260597542,1,0,0,8.4622,Diorite_02,3,02,2,2,8.462,3,02,0.352274626,-0.241166227,1,0,0,2.8379,Gabbro_rect,4,2.838,0,15,0,15,0,1,,,,,,,,,,,,
5c61a77464fd2100010e09f7,SCR,2024-06-10_15h13.18.054,LearnStrategy,2023.2.3,Win32,5.458515284,1,2,1,,,,,,,,7,02,,,,,,,,,,,,,7,2.38,1,,,,,,0.093190315,-0.396616814,1,0,0,2.3797,Peridotite_rect,0,0,0,0,1
5c61a77464fd2100010e09f7,SCR,2024-06-10_15h13.18.054,LearnStrategy,2023.2.3,Win32,5.458515284,1,2,2,,,,,,,,8,03,,,,,,,,,,,,,8,1.824,1,,,,,,0.342096315,-0.40864574,1,0,0,1.8241,Pumice_rect,1,0,1,0,1
5c61a77464fd2100010e09f7,SCR,2024-06-10_15h13.18.054,LearnStrategy,2023.2.3,Win32,5.458515284,1,2,3,,,,,,,,3,07,,,,,,,,,,,,,6,1.856,0,,,,,,-0.125180752,-0.389214426,1,0,0,1.8564,Pegmatite_rect,2,0,2,0,1
5c61a77464fd2100010e09f7,SCR,2024-06-10_15h13.18.054,LearnStrategy,2023.2.3,Win32,5.458515284,1,2,4,,,,,,,,2,09,,,,,,,,,,,,,2,3.063,1,,,,,,-0.128882057,-0.246718,1,0,0,3.0633,Basalt_rect,3,0,3,0,1
5c61a77464fd2100010e09f7,SCR,2024-06-10_15h13.18.054,LearnStrategy,2023.2.3,Win32,5.458515284,1,2,5,,,,,,,,5,09,,,,,,,,,,,,,5,4.437,1,,,,,,-0.346327743,-0.399392737,1,0,0,4.4368,Obsidian_rect,4,0,4,0,1
5c61a77464fd2100010e09f7,SCR,2024-06-10_15h13.18.054,LearnStrategy,2023.2.3,Win32,5.458515284,1,2,6,,,,,,,,2,05,,,,,,,,,,,,,2,2.113,1,,,,,,-0.131657906,-0.263373465,1,0,0,2.1128,Basalt_rect,5,0,5,0,1
5c61a77464fd2100010e09f7,SCR,2024-06-10_15h13.18.054,LearnStrategy,2023.2.3,Win32,5.458515284,1,2,7,,,,,,,,8,02,,,,,,,,,,,,,8,2.097,1,,,,,,0.414269725,-0.396616814,1,0,0,2.0968,Pumice_rect,6,0,6,0,1
5c61a77464fd2100010e09f7,SCR,2024-06-10_15h13.18.054,LearnStrategy,2023.2.3,Win32,5.458515284,1,2,8,,,,,,,,4,09,,,,,,,,,,,,,4,5.617,1,,,,,,0.372631248,-0.238390231,1,0,0,5.6166,Gabbro_rect,7,0,7,0,1
5c61a77464fd2100010e09f7,SCR,2024-06-10_15h13.18.054,LearnStrategy,2023.2.3,Win32,5.458515284,1,2,9,,,,,,,,5,11,,,,,,,,,,,,,5,5.724,1,,,,,,-0.364833823,-0.404944436,1,0,0,5.7239,Obsidian_rect,8,0,8,0,1
5c61a77464fd2100010e09f7,SCR,2024-06-10_15h13.18.054,LearnStrategy,2023.2.3,Win32,5.458515284,1,2,10,,,,,,,,1,07,,,,,,,,,,,,,1,8.165,1,,,,,,-0.39999522,-0.251344538,1,0,0,8.1646,Andesite_rect,9,0,9,0,1
5c61a77464fd2100010e09f7,SCR,2024-06-10_15h13.18.054,LearnStrategy,2023.2.3,Win32,5.458515284,1,2,11,,,,,,,,6,06,,,,,,,,,,,,,3,6.023,0,,,,,,0.15055895,-0.261522849,1,0,0,6.0228,Diorite_rect,10,0,10,0,1
5c61a77464fd2100010e09f7,SCR,2024-06-10_15h13.18.054,LearnStrategy,2023.2.3,Win32,5.458515284,1,2,12,,,,,,,,6,12,,,,,,,,,,,,,1,5.177,0,,,,,,-0.374086789,-0.269850471,1,0,0,5.1773,Andesite_rect,11,0,11,0,1
5c61a77464fd2100010e09f7,SCR,2024-06-10_15h13.18.054,LearnStrategy,2023.2.3,Win32,5.458515284,1,2,13,,,,,,,,3,12,,,,,,,,,,,,,7,7.628,0,,,,,,0.052477071,-0.406795125,1,0,0,7.6283,Peridotite_rect,12,0,12,0,1
5c61a77464fd2100010e09f7,SCR,2024-06-10_15h13.18.054,LearnStrategy,2023.2.3,Win32,5.458515284,1,2,14,,,,,,,,1,01,,,,,,,,,,,,,4,5.979,0,,,,,,0.358751559,-0.258746853,1,0,0,5.979,Gabbro_rect,13,0,13,0,1
5c61a77464fd2100010e09f7,SCR,2024-06-10_15h13.18.054,LearnStrategy,2023.2.3,Win32,5.458515284,1,2,15,,,,,,,,7,14,,,,,,,,,,,,,7,3.645,1,,,,,,0.128351639,-0.407720433,1,0,0,3.6448,Peridotite_rect,14,0,14,0,1
5c61a77464fd2100010e09f7,SCR,2024-06-10_15h13.18.054,LearnStrategy,2023.2.3,Win32,5.458515284,1,2,16,,,,,,,,4,16,,,,,,,,,,,,,2,2.802,0,,,,,,-0.104824131,-0.243016843,1,0,0,2.8019,Basalt_rect,15,0,15,0,1
5c61a77464fd2100010e09f7,SCR,2024-06-10_15h13.18.054,LearnStrategy,2023.2.3,Win32,5.458515284,2,1,1,-0.554520499,0.102120494,1,0,0,2.4499,Peridotite_10,7,10,4,1,2.45,7,10,0.112621629,-0.387363811,1,0,0,1.5491,Peridotite_rect,7,1.549,1,0,0,0,0,1,,,,,,,,,,,,
5c61a77464fd2100010e09f7,SCR,2024-06-10_15h13.18.054,LearnStrategy,2023.2.3,Win32,5.458515284,2,1,2,0.261595135,-0.236539615,1,0,0,1.4888,Diorite_14,3,14,2,6,1.489,3,14,-0.160342297,-0.386438503,1,0,0,2.0003,Pegmatite_rect,6,2,0,1,0,1,0,1,,,,,,,,,,,,
5c61a77464fd2100010e09f7,SCR,2024-06-10_15h13.18.054,LearnStrategy,2023.2.3,Win32,5.458515284,2,1,3,0.241238367,-0.267074622,1,0,0,5.2447,Diorite_14,3,14,2,6,5.245,3,14,0.160737187,-0.264298772,1,0,0,1.2477,Diorite_rect,3,1.248,1,2,0,2,0,1,,,,,,,,,,,,
5c61a77464fd2100010e09f7,SCR,2024-06-10_15h13.18.054,LearnStrategy,2023.2.3,Win32,5.458515284,2,1,4,0.52160468,0.405619288,1,0,0,1.6938,Diorite_08,3,08,6,8,1.694,3,08,0.094115623,-0.258746853,1,0,0,5.2759,Diorite_rect,3,5.276,1,3,0,3,0,1,,,,,,,,,,,,
5c61a77464fd2100010e09f7,SCR,2024-06-10_15h13.18.054,LearnStrategy,2023.2.3,Win32,5.458515284,2,1,5,-0.390742254,-0.254120461,1,0,0,1.2342,Diorite_02,3,02,2,2,1.234,3,02,0.10706971,-0.248568542,1,0,0,2.8866,Diorite_rect,3,2.887,1,4,0,4,0,1,,,,,,,,,,,,
5c61a77464fd2100010e09f7,SCR,2024-06-10_15h13.18.054,LearnStrategy,2023.2.3,Win32,5.458515284,2,1,6,0.57064562,-0.229137301,1,0,0,1.6595,Gabbro_05,4,05,2,8,1.659,4,05,0.389286492,-0.256896311,1,0,0,3.7872,Gabbro_rect,4,3.787,1,5,0,5,0,1,,,,,,,,,,,,
5c61a77464fd2100010e09f7,SCR,2024-06-10_15h13.18.054,LearnStrategy,2023.2.3,Win32,5.458515284,2,1,7,0.564168392,0.247392788,1,0,0,4.7973,Andesite_14,1,14,5,8,4.797,1,14,-0.169595227,-0.385513048,1,0,0,2.1144,Pegmatite_rect,6,2.114,0,6,0,6,0,1,,,,,,,,,,,,
5c61a77464fd2100010e09f7,SCR,2024-06-10_15h13.18.054,LearnStrategy,2023.2.3,Win32,5.458515284,2,1,8,0.378183094,0.253869923,1,0,0,1.2127,Pegmatite_13,6,13,5,7,1.213,6,13,-0.11037605,-0.402168586,1,0,0,4.6829,Pegmatite_rect,6,4.683,1,7,0,7,0,1,,,,,,,,,,,,
5c61a77464fd2100010e09f7,SCR,2024-06-10_15h13.18.054,LearnStrategy,2023.2.3,Win32,5.458515284,2,1,9,0.370780632,0.407469885,1,0,0,1.2077,Gabbro_12,4,12,6,7,1.208,4,12,-0.1575663,-0.255971003,1,0,0,4.9618,Basalt_rect,2,4.962,0,8,0,8,0,1,,,,,,,,,,,,
5c61a77464fd2100010e09f7,SCR,2024-06-10_15h13.18.054,LearnStrategy,2023.2.3,Win32,5.458515284,2,1,10,0.544737299,-0.407720433,1,0,0,2.4223,Gabbro_08,4,08,1,8,2.422,4,08,-0.07891581,-0.263373465,1,0,0,4.0862,Basalt_rect,2,4.086,0,9,0,9,0,1,,,,,,,,,,,,
5c61a77464fd2100010e09f7,SCR,2024-06-10_15h13.18.054,LearnStrategy,2023.2.3,Win32,5.458515284,2,1,11,-0.248245791,0.091942183,1,0,0,3.3268,Andesite_16,1,16,4,3,3.327,1,16,-0.402771106,-0.237464923,1,0,0,3.3102,Andesite_rect,1,3.31,1,10,0,10,0,1,,,,,,,,,,,,
5c61a77464fd2100010e09f7,SCR,2024-06-10_15h13.18.054,LearnStrategy,2023.2.3,Win32,5.458515284,2,1,12,-0.220486781,-0.106997497,1,0,0,1.2229,Andesite_05,1,05,3,3,1.223,1,05,-0.346327743,-0.232838532,1,0,0,2.1733,Andesite_rect,1,2.173,1,11,0,11,0,1,,,,,,,,,,,,
5c61a77464fd2100010e09f7,SCR,2024-06-10_15h13.18.054,LearnStrategy,2023.2.3,Win32,5.458515284,2,1,13,0.098742087,-0.247643234,1,0,0,2.115,Pegmatite_09,6,09,2,5,2.115,6,09,0.088563777,-0.398467429,1,0,0,4.2704,Peridotite_rect,7,4.27,0,12,0,12,0,1,,,,,,,,,,,,
5c61a77464fd2100010e09f7,SCR,2024-06-10_15h13.18.054,LearnStrategy,2023.2.3,Win32,5.458515284,2,1,14,-0.244544707,0.263122945,1,0,0,2.2138,Pegmatite_07,6,07,5,3,2.214,6,07,-0.185325384,-0.414197439,1,0,0,3.3029,Pegmatite_rect,6,3.303,1,13,0,13,0,1,,,,,,,,,,,,
5c61a77464fd2100010e09f7,SCR,2024-06-10_15h13.18.054,LearnStrategy,2023.2.3,Win32,5.458515284,2,1,15,-0.539715686,-0.106997497,1,0,0,1.2472,Basalt_11,2,11,3,1,1.247,2,11,0.35319986,-0.40586967,1,0,0,5.1391,Pumice_rect,8,5.139,0,14,0,14,0,1,,,,,,,,,,,,
5c61a77464fd2100010e09f7,SCR,2024-06-10_15h13.18.054,LearnStrategy,2023.2.3,Win32,5.458515284,2,1,16,0.402240946,0.213156643,1,0,0,2.104,Pegmatite_13,6,13,5,7,2.104,6,13,-0.130732672,-0.409571048,1,0,0,2.1365,Pegmatite_rect,6,2.137,1,15,0,15,0,1,,,,,,,,,,,,
5c61a77464fd2100010e09f7,SCR,2024-06-10_15h13.18.054,LearnStrategy,2023.2.3,Win32,5.458515284,2,2,1,,,,,,,,4,15,,,,,,,,,,,,,4,7.207,1,,,,,,0.395763719,-0.23376384,1,0,0,7.2072,Gabbro_rect,0,0,0,0,1
5c61a77464fd2100010e09f7,SCR,2024-06-10_15h13.18.054,LearnStrategy,2023.2.3,Win32,5.458515284,2,2,2,,,,,,,,3,09,,,,,,,,,,,,,3,3.514,1,,,,,,0.094115623,-0.235614381,1,0,0,3.5142,Diorite_rect,1,0,1,0,1
5c61a77464fd2100010e09f7,SCR,2024-06-10_15h13.18.054,LearnStrategy,2023.2.3,Win32,5.458515284,2,2,3,,,,,,,,6,08,,,,,,,,,,,,,6,4.672,1,,,,,,-0.130732672,-0.401243279,1,0,0,4.6721,Pegmatite_rect,2,0,2,0,1
5c61a77464fd2100010e09f7,SCR,2024-06-10_15h13.18.054,LearnStrategy,2023.2.3,Win32,5.458515284,2,2,4,,,,,,,,6,03,,,,,,,,,,,,,6,6.291,1,,,,,,-0.074289198,-0.39291551,1,0,0,6.2911,Pegmatite_rect,3,0,3,0,1
5c61a77464fd2100010e09f7,SCR,2024-06-10_15h13.18.054,LearnStrategy,2023.2.3,Win32,5.458515284,2,2,5,,,,,,,,4,13,,,,,,,,,,,,,4,4.445,1,,,,,,0.383734793,-0.239315612,1,0,0,4.4454,Gabbro_rect,4,0,4,0,1
5c61a77464fd2100010e09f7,SCR,2024-06-10_15h13.18.054,LearnStrategy,2023.2.3,Win32,5.458515284,2,2,6,,,,,,,,5,06,,,,,,,,,,,,,5,2.314,1,,,,,,-0.325971121,-0.391064968,1,0,0,2.314,Obsidian_rect,5,0,5,0,1
5c61a77464fd2100010e09f7,SCR,2024-06-10_15h13.18.054,LearnStrategy,2023.2.3,Win32,5.458515284,2,2,7,,,,,,,,2,16,,,,,,,,,,,,,2,2.337,1,,,,,,-0.115927749,-0.258746853,1,0,0,2.3375,Basalt_rect,6,0,6,0,1
5c61a77464fd2100010e09f7,SCR,2024-06-10_15h13.18.054,LearnStrategy,2023.2.3,Win32,5.458515284,2,2,8,,,,,,,,8,09,,,,,,,,,,,,,8,2.342,1,,,,,,0.39021202,-0.404944436,1,0,0,2.3422,Pumice_rect,7,0,7,0,1
5c61a77464fd2100010e09f7,SCR,2024-06-10_15h13.18.054,LearnStrategy,2023.2.3,Win32,5.458515284,2,2,9,,,,,,,,7,08,,,,,,,,,,,,,7,1.536,1,,,,,,0.148708261,-0.390139734,1,0,0,1.5365,Peridotite_rect,8,0,8,0,1
5c61a77464fd2100010e09f7,SCR,2024-06-10_15h13.18.054,LearnStrategy,2023.2.3,Win32,5.458515284,2,2,10,,,,,,,,8,15,,,,,,,,,,,,,8,2.037,1,,,,,,0.402240946,-0.382737199,1,0,0,2.037,Pumice_rect,9,0,9,0,1
5c61a77464fd2100010e09f7,SCR,2024-06-10_15h13.18.054,LearnStrategy,2023.2.3,Win32,5.458515284,2,2,11,,,,,,,,3,13,,,,,,,,,,,,,3,4.386,1,,,,,,0.137604642,-0.261522849,1,0,0,4.3856,Diorite_rect,10,0,10,0,1
5c61a77464fd2100010e09f7,SCR,2024-06-10_15h13.18.054,LearnStrategy,2023.2.3,Win32,5.458515284,2,2,12,,,,,,,,1,11,,,,,,,,,,,,,1,2.594,1,,,,,,-0.34725305,-0.258746853,1,0,0,2.5939,Andesite_rect,11,0,11,0,1
5c61a77464fd2100010e09f7,SCR,2024-06-10_15h13.18.054,LearnStrategy,2023.2.3,Win32,5.458515284,2,2,13,,,,,,,,5,04,,,,,,,,,,,,,1,0.27,0,,,,,,-0.34725305,-0.258746853,1,0,0,0.2704,Andesite_rect,12,0,12,0,1
5c61a77464fd2100010e09f7,SCR,2024-06-10_15h13.18.054,LearnStrategy,2023.2.3,Win32,5.458515284,2,2,14,,,,,,,,1,04,,,,,,,,,,,,,1,2.746,1,,,,,,-0.34725305,-0.258746853,1,0,0,2.7464,Andesite_rect,13,0,13,0,1
5c61a77464fd2100010e09f7,SCR,2024-06-10_15h13.18.054,LearnStrategy,2023.2.3,Win32,5.458515284,2,2,15,,,,,,,,7,07,,,,,,,,,,,,,7,3.479,1,,,,,,0.179243193,-0.39291551,1,0,0,3.4793,Peridotite_rect,14,0,14,0,1
5c61a77464fd2100010e09f7,SCR,2024-06-10_15h13.18.054,LearnStrategy,2023.2.3,Win32,5.458515284,2,2,16,,,,,,,,2,02,,,,,,,,,,,,,2,3.209,1,,,,,,-0.145537374,-0.24024092,1,0,0,3.2092,Basalt_rect,15,0,15,0,1
5c61a77464fd2100010e09f7,SCR,2024-06-10_15h13.18.054,LearnStrategy,2023.2.3,Win32,5.458515284,3,1,1,0.412419257,-0.242091535,1,0,0,1.4479,Pegmatite_15,6,15,2,7,1.448,6,15,-0.162192912,-0.393840817,1,0,0,1.8105,Pegmatite_rect,6,1.811,1,0,0,0,0,1,,,,,,,,,,,,
5c61a77464fd2100010e09f7,SCR,2024-06-10_15h13.18.054,LearnStrategy,2023.2.3,Win32,5.458515284,3,1,2,-0.379638635,0.382486752,1,0,0,2.9525,Obsidian_16,5,16,6,2,2.952,5,16,-0.382414485,-0.39291551,1,0,0,1.2679,Obsidian_rect,5,1.268,1,1,0,1,0,1,,,,,,,,,,,,
5c61a77464fd2100010e09f7,SCR,2024-06-10_15h13.18.054,LearnStrategy,2023.2.3,Win32,5.458515284,3,1,3,0.40594203,-0.425301058,1,0,0,1.4777,Basalt_06,2,06,1,7,1.478,2,06,-0.107600201,-0.237464923,1,0,0,1.2553,Basalt_rect,2,1.255,1,2,0,2,0,1,,,,,,,,,,,,
5c61a77464fd2100010e09f7,SCR,2024-06-10_15h13.18.054,LearnStrategy,2023.2.3,Win32,5.458515284,3,1,4,0.537334543,0.251094018,1,0,0,1.4622,Andesite_14,1,14,5,8,1.462,1,14,-0.065961649,-0.39291551,1,0,0,6.7509,Pegmatite_rect,6,6.751,0,3,0,3,0,1,,,,,,,,,,,,
5c61a77464fd2100010e09f7,SCR,2024-06-10_15h13.18.054,LearnStrategy,2023.2.3,Win32,5.458515284,3,1,5,0.585450542,-0.263373465,1,0,0,1.4926,Gabbro_05,4,05,2,8,1.493,4,05,0.417045722,-0.262448157,1,0,0,1.8059,Gabbro_rect,4,1.806,1,4,0,4,0,1,,,,,,,,,,,,
5c61a77464fd2100010e09f7,SCR,2024-06-10_15h13.18.054,LearnStrategy,2023.2.3,Win32,5.458515284,3,1,6,-0.537865071,0.379710848,1,0,0,3.2033,Obsidian_02,5,02,6,1,3.203,5,02,-0.366684364,-0.381811965,1,0,0,1.2852,Obsidian_rect,5,1.285,1,5,0,5,0,1,,,,,,,,,,,,
5c61a77464fd2100010e09f7,SCR,2024-06-10_15h13.18.054,LearnStrategy,2023.2.3,Win32,5.458515284,3,1,7,0.210703434,-0.24024092,1,0,0,2.1616,Diorite_14,3,14,2,6,2.162,3,14,0.111696321,-0.236539615,1,0,0,3.2984,Diorite_rect,3,3.298,1,6,0,6,0,1,,,,,,,,,,,,
5c61a77464fd2100010e09f7,SCR,2024-06-10_15h13.18.054,LearnStrategy,2023.2.3,Win32,5.458515284,3,1,8,0.571571001,-0.252269846,1,0,0,4.5456,Gabbro_05,4,05,2,8,4.546,4,05,0.389286492,-0.241166227,1,0,0,1.5096,Gabbro_rect,4,1.51,1,7,0,7,0,1,,,,,,,,,,,,
5c61a77464fd2100010e09f7,SCR,2024-06-10_15h13.18.054,LearnStrategy,2023.2.3,Win32,5.458515284,3,1,9,-0.241768711,-0.361455269,1,0,0,1.2206,Diorite_16,3,16,1,3,1.221,3,16,0.124650555,-0.252269846,1,0,0,1.0441,Diorite_rect,3,1.044,1,8,0,8,0,1,,,,,,,,,,,,
5c61a77464fd2100010e09f7,SCR,2024-06-10_15h13.18.054,LearnStrategy,2023.2.3,Win32,5.458515284,3,1,10,-0.568400004,0.126178383,1,0,0,1.2197,Peridotite_10,7,10,4,1,1.22,7,10,0.09504093,-0.416973289,1,0,0,3.0713,Peridotite_rect,7,3.071,1,9,0,9,0,1,,,,,,,,,,,,
5c61a77464fd2100010e09f7,SCR,2024-06-10_15h13.18.054,LearnStrategy,2023.2.3,Win32,5.458515284,3,1,11,0.072833693,0.28718076,1,0,0,1.2071,Pumice_05,8,05,5,5,1.207,8,05,0.345797546,-0.380886657,1,0,0,6.1723,Pumice_rect,8,6.172,1,10,0,10,0,1,,,,,,,,,,,,
5c61a77464fd2100010e09f7,SCR,2024-06-10_15h13.18.054,LearnStrategy,2023.2.3,Win32,5.458515284,3,1,12,-0.378713291,-0.131980657,1,0,0,1.2271,Obsidian_12,5,12,3,2,1.227,5,12,-0.383339792,-0.409571048,1,0,0,1.1004,Obsidian_rect,5,1.1,1,11,0,11,0,1,,,,,,,,,,,,
5c61a77464fd2100010e09f7,SCR,2024-06-10_15h13.18.054,LearnStrategy,2023.2.3,Win32,5.458515284,3,1,13,-0.375012133,-0.266149314,1,0,0,2.4596,Diorite_02,3,02,2,2,2.46,3,02,0.125575863,-0.267999856,1,0,0,3.0399,Diorite_rect,3,3.04,1,12,0,12,0,1,,,,,,,,,,,,
5c61a77464fd2100010e09f7,SCR,2024-06-10_15h13.18.054,LearnStrategy,2023.2.3,Win32,5.458515284,3,1,14,-0.233441089,0.075286792,1,0,0,1.9602,Andesite_16,1,16,4,3,1.96,1,16,0.172766187,-0.24024092,1,0,0,1.0245,Diorite_rect,3,1.024,0,13,0,13,0,1,,,,,,,,,,,,
5c61a77464fd2100010e09f7,SCR,2024-06-10_15h13.18.054,LearnStrategy,2023.2.3,Win32,5.458515284,3,1,15,-0.369460324,-0.384587814,1,0,0,1.2235,Pegmatite_11,6,11,1,2,1.223,6,11,-0.127956675,-0.39291551,1,0,0,1.479,Pegmatite_rect,6,1.479,1,14,0,14,0,1,,,,,,,,,,,,
5c61a77464fd2100010e09f7,SCR,2024-06-10_15h13.18.054,LearnStrategy,2023.2.3,Win32,5.458515284,3,1,16,-0.383339792,-0.40586967,1,0,0,1.2561,Pegmatite_11,6,11,1,2,1.256,6,11,-0.100197666,-0.395691359,1,0,0,4.8107,Pegmatite_rect,6,4.811,1,15,0,15,0,1,,,,,,,,,,,,
5c61a77464fd2100010e09f7,SCR,2024-06-10_15h13.18.054,LearnStrategy,2023.2.3,Win32,5.458515284,3,2,1,,,,,,,,7,15,,,,,,,,,,,,,7,3.363,1,,,,,,0.156110796,-0.404019128,1,0,0,3.363,Peridotite_rect,0,0,0,0,1
5c61a77464fd2100010e09f7,SCR,2024-06-10_15h13.18.054,LearnStrategy,2023.2.3,Win32,5.458515284,3,2,2,,,,,,,,8,16,,,,,,,,,,,,,8,5.901,1,,,,,,0.385585408,-0.415122747,1,0,0,5.9009,Pumice_rect,1,0,1,0,1
5c61a77464fd2100010e09f7,SCR,2024-06-10_15h13.18.054,LearnStrategy,2023.2.3,Win32,5.458515284,3,2,3,,,,,,,,2,12,,,,,,,,,,,,,2,3.471,1,,,,,,-0.093720512,-0.260597542,1,0,0,3.471,Basalt_rect,2,0,2,0,1
5c61a77464fd2100010e09f7,SCR,2024-06-10_15h13.18.054,LearnStrategy,2023.2.3,Win32,5.458515284,3,2,4,,,,,,,,4,10,,,,,,,,,,,,,4,4.772,1,,,,,,0.44295419,-0.242091535,1,0,0,4.7721,Gabbro_rect,3,0,3,0,1
5c61a77464fd2100010e09f7,SCR,2024-06-10_15h13.18.054,LearnStrategy,2023.2.3,Win32,5.458515284,3,2,5,,,,,,,,6,10,,,,,,,,,,,,,7,12.822,0,,,,,,0.164438491,-0.389214426,1,0,0,12.8217,Peridotite_rect,4,0,4,0,1
5c61a77464fd2100010e09f7,SCR,2024-06-10_15h13.18.054,LearnStrategy,2023.2.3,Win32,5.458515284,3,2,6,,,,,,,,1,02,,,,,,,,,,,,,1,2.315,1,,,,,,-0.360207247,-0.253195154,1,0,0,2.3147,Andesite_rect,5,0,5,0,1
5c61a77464fd2100010e09f7,SCR,2024-06-10_15h13.18.054,LearnStrategy,2023.2.3,Win32,5.458515284,3,2,7,,,,,,,,4,03,,,,,,,,,,,,,1,6.295,0,,,,,,-0.356506054,-0.246718,1,0,0,6.2947,Andesite_rect,6,0,6,0,1
5c61a77464fd2100010e09f7,SCR,2024-06-10_15h13.18.054,LearnStrategy,2023.2.3,Win32,5.458515284,3,2,8,,,,,,,,1,10,,,,,,,,,,,,,2,4.014,0,,,,,,-0.112226592,-0.249493776,1,0,0,4.0139,Basalt_rect,7,0,7,0,1
5c61a77464fd2100010e09f7,SCR,2024-06-10_15h13.18.054,LearnStrategy,2023.2.3,Win32,5.458515284,3,2,9,,,,,,,,5,07,,,,,,,,,,,,,5,1.346,1,,,,,,-0.387040986,-0.414197439,1,0,0,1.346,Obsidian_rect,8,0,8,0,1
5c61a77464fd2100010e09f7,SCR,2024-06-10_15h13.18.054,LearnStrategy,2023.2.3,Win32,5.458515284,3,2,10,,,,,,,,8,04,,,,,,,,,,,,,8,1.592,1,,,,,,0.405016796,-0.412346897,1,0,0,1.5919,Pumice_rect,9,0,9,0,1
5c61a77464fd2100010e09f7,SCR,2024-06-10_15h13.18.054,LearnStrategy,2023.2.3,Win32,5.458515284,3,2,11,,,,,,,,5,08,,,,,,,,,,,,,5,2.502,1,,,,,,-0.373161481,-0.404944436,1,0,0,2.5019,Obsidian_rect,10,0,10,0,1
5c61a77464fd2100010e09f7,SCR,2024-06-10_15h13.18.054,LearnStrategy,2023.2.3,Win32,5.458515284,3,2,12,,,,,,,,2,04,,,,,,,,,,,,,2,1.618,1,,,,,,-0.090944662,-0.238390231,1,0,0,1.6176,Basalt_rect,11,0,11,0,1
5c61a77464fd2100010e09f7,SCR,2024-06-10_15h13.18.054,LearnStrategy,2023.2.3,Win32,5.458515284,3,2,13,,,,,,,,3,06,,,,,,,,,,,,,3,1.282,1,,,,,,0.104293934,-0.245792692,1,0,0,1.2818,Diorite_rect,12,0,12,0,1
5c61a77464fd2100010e09f7,SCR,2024-06-10_15h13.18.054,LearnStrategy,2023.2.3,Win32,5.458515284,3,2,14,,,,,,,,6,05,,,,,,,,,,,,,6,2.339,1,,,,,,-0.148313297,-0.416047981,1,0,0,2.3387,Pegmatite_rect,13,0,13,0,1
5c61a77464fd2100010e09f7,SCR,2024-06-10_15h13.18.054,LearnStrategy,2023.2.3,Win32,5.458515284,3,2,15,,,,,,,,7,13,,,,,,,,,,,,,7,1.269,1,,,,,,0.111696321,-0.39291551,1,0,0,1.2692,Peridotite_rect,14,0,14,0,1
5c61a77464fd2100010e09f7,SCR,2024-06-10_15h13.18.054,LearnStrategy,2023.2.3,Win32,5.458515284,3,2,16,,,,,,,,3,10,,,,,,,,,,,,,3,2.365,1,,,,,,0.074684161,-0.249493776,1,0,0,2.3649,Diorite_rect,15,0,15,0,1
5c61a77464fd2100010e09f7,SCR,2024-06-10_15h13.18.054,LearnStrategy,2023.2.3,Win32,5.458515284,4,1,1,-0.242694018,0.078062751,1,0,0,1.2309,Andesite_16,1,16,4,3,1.231,1,16,-0.392592795,-0.250419231,1,0,0,3.1028,Andesite_rect,1,3.103,1,0,0,0,0,1,,,,,,,,,,,,
5c61a77464fd2100010e09f7,SCR,2024-06-10_15h13.18.054,LearnStrategy,2023.2.3,Win32,5.458515284,4,1,2,-0.216785624,-0.254120461,1,0,0,1.2516,Andesite_09,1,09,2,3,1.252,1,09,-0.363908515,-0.267999856,1,0,0,3.0924,Andesite_rect,1,3.092,1,1,0,1,0,1,,,,,,,,,,,,
5c61a77464fd2100010e09f7,SCR,2024-06-10_15h13.18.054,LearnStrategy,2023.2.3,Win32,5.458515284,4,1,3,0.106144402,-0.091267377,1,0,0,1.2549,Peridotite_16,7,16,3,5,1.255,7,16,0.145007177,-0.395691359,1,0,0,3.352,Peridotite_rect,7,3.352,1,2,0,2,0,1,,,,,,,,,,,,
5c61a77464fd2100010e09f7,SCR,2024-06-10_15h13.18.054,LearnStrategy,2023.2.3,Win32,5.458515284,4,1,4,-0.375937368,-0.242091535,1,0,0,1.2244,Diorite_02,3,02,2,2,1.224,3,02,0.135754174,-0.230987917,1,0,0,1.5624,Diorite_rect,3,1.562,1,3,0,3,0,1,,,,,,,,,,,,
5c61a77464fd2100010e09f7,SCR,2024-06-10_15h13.18.054,LearnStrategy,2023.2.3,Win32,5.458515284,4,1,5,-0.375937368,-0.106072263,1,0,0,1.5015,Obsidian_12,5,12,3,2,1.502,5,12,-0.398144605,-0.383662506,1,0,0,1.2928,Obsidian_rect,5,1.293,1,4,0,4,0,1,,,,,,,,,,,,
5c61a77464fd2100010e09f7,SCR,2024-06-10_15h13.18.054,LearnStrategy,2023.2.3,Win32,5.458515284,4,1,6,0.548438382,-0.095893952,1,0,0,2.6688,Basalt_10,2,10,3,8,2.669,2,10,-0.092795204,-0.237464923,1,0,0,1.5303,Basalt_rect,2,1.53,1,5,0,5,0,1,,,,,,,,,,,,
5c61a77464fd2100010e09f7,SCR,2024-06-10_15h13.18.054,LearnStrategy,2023.2.3,Win32,5.458515284,4,1,7,0.263445604,-0.111624072,1,0,0,3.4274,Gabbro_01,4,01,3,6,3.427,4,01,-0.364833823,-0.236539615,1,0,0,4.9662,Andesite_rect,1,4.966,0,6,0,6,0,1,,,,,,,,,,,,
5c61a77464fd2100010e09f7,SCR,2024-06-10_15h13.18.054,LearnStrategy,2023.2.3,Win32,5.458515284,4,1,8,-0.554520499,0.104896453,1,0,0,4.5164,Peridotite_10,7,10,4,1,4.516,5,10,0.111696321,-0.379036115,1,0,0,1.9036,Peridotite_rect,7,1.904,1,7,0,7,0,1,,,,,,,,,,,,
5c61a77464fd2100010e09f7,SCR,2024-06-10_15h13.18.054,LearnStrategy,2023.2.3,Win32,5.458515284,4,1,9,0.081161389,-0.414197439,1,0,0,2.9784,Peridotite_04,7,04,1,5,2.978,6,15,0.352274626,-0.260597542,1,0,0,7.8758,Gabbro_rect,4,7.876,0,8,0,8,0,1,,,,,,,,,,,,
5c61a77464fd2100010e09f7,SCR,2024-06-10_15h13.18.054,LearnStrategy,2023.2.3,Win32,5.458515284,4,1,10,-0.544342188,-0.270775852,1,0,0,3.186,Gabbro_14,4,14,2,1,3.186,6,07,0.363378171,-0.23376384,1,0,0,1.7749,Gabbro_rect,4,1.775,1,9,0,9,0,1,,,,,,,,,,,,
5c61a77464fd2100010e09f7,SCR,2024-06-10_15h13.18.054,LearnStrategy,2023.2.3,Win32,5.458515284,4,1,11,0.529932376,0.240915708,1,0,0,1.4563,Andesite_14,1,14,5,8,1.456,1,14,-0.140910983,-0.401243279,1,0,0,2.0888,Pegmatite_rect,6,2.089,0,10,0,10,0,1,,,,,,,,,,,,
5c61a77464fd2100010e09f7,SCR,2024-06-10_15h13.18.054,LearnStrategy,2023.2.3,Win32,5.458515284,4,1,12,-0.215860316,0.09286749,1,0,0,5.6492,Andesite_16,1,16,4,3,5.649,3,08,-0.380563943,-0.245792692,1,0,0,1.6051,Andesite_rect,1,1.605,1,11,0,11,0,1,,,,,,,,,,,,
5c61a77464fd2100010e09f7,SCR,2024-06-10_15h13.18.054,LearnStrategy,2023.2.3,Win32,5.458515284,4,1,13,-0.059484422,-0.251344538,1,0,0,1.516,Obsidian_05,5,05,2,4,1.516,6,13,-0.363908515,-0.41142159,1,0,0,1.9559,Obsidian_rect,5,1.956,1,12,0,12,0,1,,,,,,,,,,,,
5c61a77464fd2100010e09f7,SCR,2024-06-10_15h13.18.054,LearnStrategy,2023.2.3,Win32,5.458515284,4,1,14,-0.53046272,-0.417898743,1,0,0,4.9677,Basalt_14,2,14,1,1,4.968,4,12,0.400390331,-0.249493776,1,0,0,4.8912,Gabbro_rect,4,4.891,0,13,0,13,0,1,,,,,,,,,,,,
5c61a77464fd2100010e09f7,SCR,2024-06-10_15h13.18.054,LearnStrategy,2023.2.3,Win32,5.458515284,4,1,15,-0.084467509,-0.145860199,1,0,0,6.2879,Obsidian_14,5,14,3,4,6.288,4,11,-0.387966294,-0.407720433,1,0,0,3.8122,Obsidian_rect,5,3.812,1,14,0,14,0,1,,,,,,,,,,,,
5c61a77464fd2100010e09f7,SCR,2024-06-10_15h13.18.054,LearnStrategy,2023.2.3,Win32,5.458515284,4,1,16,0.097816706,0.399142171,1,0,0,7.5098,Peridotite_06,7,06,6,5,7.51,8,06,0.132052943,-0.398467429,1,0,0,1.5876,Peridotite_rect,7,1.588,1,15,0,15,0,1,,,,,,,,,,,,
5c61a77464fd2100010e09f7,SCR,2024-06-10_15h13.18.054,LearnStrategy,2023.2.3,Win32,5.458515284,4,2,1,,,,,,,,1,10,,,,,,,,,,,,,1,3.787,1,,,,,,-0.348178358,-0.239315612,1,0,0,3.7867,Andesite_rect,0,0,0,0,1
5c61a77464fd2100010e09f7,SCR,2024-06-10_15h13.18.054,LearnStrategy,2023.2.3,Win32,5.458515284,4,2,2,,,,,,,,4,16,,,,,,,,,,,,,4,4.196,1,,,,,,0.444804658,-0.256896311,1,0,0,4.1961,Gabbro_rect,1,0,1,0,1
5c61a77464fd2100010e09f7,SCR,2024-06-10_15h13.18.054,LearnStrategy,2023.2.3,Win32,5.458515284,4,2,3,,,,,,,,2,16,,,,,,,,,,,,,4,2.013,0,,,,,,0.444804658,-0.256896311,1,0,0,2.0127,Gabbro_rect,2,0,2,0,1
5c61a77464fd2100010e09f7,SCR,2024-06-10_15h13.18.054,LearnStrategy,2023.2.3,Win32,5.458515284,4,2,4,,,,,,,,3,12,,,,,,,,,,,,,3,1.576,1,,,,,,0.103368626,-0.255971003,1,0,0,1.5755,Diorite_rect,3,0,3,0,1
5c61a77464fd2100010e09f7,SCR,2024-06-10_15h13.18.054,LearnStrategy,2023.2.3,Win32,5.458515284,4,2,5,,,,,,,,4,13,,,,,,,,,,,,,4,3.391,1,,,,,,0.384660174,-0.263373465,1,0,0,3.391,Gabbro_rect,4,0,4,0,1
5c61a77464fd2100010e09f7,SCR,2024-06-10_15h13.18.054,LearnStrategy,2023.2.3,Win32,5.458515284,4,2,6,,,,,,,,5,09,,,,,,,,,,,,,5,1.565,1,,,,,,-0.356506054,-0.40864574,1,0,0,1.5649,Obsidian_rect,5,0,5,0,1
5c61a77464fd2100010e09f7,SCR,2024-06-10_15h13.18.054,LearnStrategy,2023.2.3,Win32,5.458515284,4,2,7,,,,,,,,8,04,,,,,,,,,,,,,8,2.567,1,,,,,,0.373556482,-0.40586967,1,0,0,2.5668,Pumice_rect,6,0,6,0,1
5c61a77464fd2100010e09f7,SCR,2024-06-10_15h13.18.054,LearnStrategy,2023.2.3,Win32,5.458515284,4,2,8,,,,,,,,5,11,,,,,,,,,,,,,5,1.557,1,,,,,,-0.381489177,-0.384587814,1,0,0,1.5568,Obsidian_rect,7,0,7,0,1
5c61a77464fd2100010e09f7,SCR,2024-06-10_15h13.18.054,LearnStrategy,2023.2.3,Win32,5.458515284,4,2,9,,,,,,,,6,06,,,,,,,,,,,,,6,4.186,1,,,,,,-0.128882057,-0.384587814,1,0,0,4.1861,Pegmatite_rect,8,0,8,0,1
5c61a77464fd2100010e09f7,SCR,2024-06-10_15h13.18.054,LearnStrategy,2023.2.3,Win32,5.458515284,4,2,10,,,,,,,,8,03,,,,,,,,,,,,,8,2.122,1,,,,,,0.386510789,-0.39291551,1,0,0,2.1216,Pumice_rect,9,0,9,0,1
5c61a77464fd2100010e09f7,SCR,2024-06-10_15h13.18.054,LearnStrategy,2023.2.3,Win32,5.458515284,4,2,11,,,,,,,,1,02,,,,,,,,,,,,,1,3.868,1,,,,,,-0.333373582,-0.253195154,1,0,0,3.8678,Andesite_rect,10,0,10,0,1
5c61a77464fd2100010e09f7,SCR,2024-06-10_15h13.18.054,LearnStrategy,2023.2.3,Win32,5.458515284,4,2,12,,,,,,,,7,07,,,,,,,,,,,,,7,2.953,1,,,,,,0.219031276,-0.395691359,1,0,0,2.9529,Peridotite_rect,11,0,11,0,1
5c61a77464fd2100010e09f7,SCR,2024-06-10_15h13.18.054,LearnStrategy,2023.2.3,Win32,5.458515284,4,2,13,,,,,,,,2,04,,,,,,,,,,,,,2,1.588,1,,,,,,-0.163118146,-0.242091535,1,0,0,1.588,Basalt_rect,12,0,12,0,1
5c61a77464fd2100010e09f7,SCR,2024-06-10_15h13.18.054,LearnStrategy,2023.2.3,Win32,5.458515284,4,2,14,,,,,,,,7,14,,,,,,,,,,,,,7,1.668,1,,,,,,0.070983078,-0.412346897,1,0,0,1.6682,Peridotite_rect,13,0,13,0,1
5c61a77464fd2100010e09f7,SCR,2024-06-10_15h13.18.054,LearnStrategy,2023.2.3,Win32,5.458515284,4,2,15,,,,,,,,6,08,,,,,,,,,,,,,6,2.804,1,,,,,,-0.127031368,-0.403093821,1,0,0,2.8039,Pegmatite_rect,14,0,14,0,1
5c61a77464fd2100010e09f7,SCR,2024-06-10_15h13.18.054,LearnStrategy,2023.2.3,Win32,5.458515284,4,2,16,,,,,,,,3,07,,,,,,,,,,,,,3,3.202,1,,,,,,0.139455258,-0.241166227,1,0,0,3.2022,Diorite_rect,15,0,15,0,1
5c61a77464fd2100010e09f7,SCR,2024-06-10_15h13.18.054,LearnStrategy,2023.2.3,Win32,5.458515284,5,1,1,0.56139269,0.203903658,1,0,0,1.5384,Andesite_14,1,14,5,8,1.538,1,14,-0.360207247,-0.266149314,1,0,0,3.1631,Andesite_rect,1,3.163,1,0,0,0,0,1,,,,,,,,,,,,
5c61a77464fd2100010e09f7,SCR,2024-06-10_15h13.18.054,LearnStrategy,2023.2.3,Win32,5.458515284,5,1,2,-0.264901329,0.277002431,1,0,0,2.0513,Pegmatite_07,6,07,5,3,2.051,5,02,-0.109450742,-0.384587814,1,0,0,2.5887,Pegmatite_rect,6,2.589,1,1,0,1,0,1,,,,,,,,,,,,
5c61a77464fd2100010e09f7,SCR,2024-06-10_15h13.18.054,LearnStrategy,2023.2.3,Win32,5.458515284,5,1,3,-0.534163877,-0.275402391,1,0,0,3.9394,Gabbro_14,4,14,2,1,3.939,4,11,0.370780632,-0.261522849,1,0,0,3.0343,Gabbro_rect,4,3.034,1,2,0,2,0,1,,,,,,,,,,,,
5c61a77464fd2100010e09f7,SCR,2024-06-10_15h13.18.054,LearnStrategy,2023.2.3,Win32,5.458515284,5,1,4,-0.386115752,0.081763872,1,0,0,3.0096,Basalt_08,2,08,4,2,3.01,3,14,-0.085392816,-0.239315612,1,0,0,2.2568,Basalt_rect,2,2.257,1,3,0,3,0,1,,,,,,,,,,,,
5c61a77464fd2100010e09f7,SCR,2024-06-10_15h13.18.054,LearnStrategy,2023.2.3,Win32,5.458515284,5,1,5,0.51790345,-0.14400951,1,0,0,2.7959,Basalt_10,2,10,3,8,2.796,6,16,-0.109450742,-0.263373465,1,0,0,2.0343,Basalt_rect,2,2.034,1,4,0,4,0,1,,,,,,,,,,,,
5c61a77464fd2100010e09f7,SCR,2024-06-10_15h13.18.054,LearnStrategy,2023.2.3,Win32,5.458515284,5,1,6,-0.536014493,-0.397542122,1,0,0,4.8998,Basalt_14,2,14,1,1,4.9,3,11,0.429074648,-0.239315612,1,0,0,2.3897,Gabbro_rect,4,2.39,0,5,0,5,0,1,,,,,,,,,,,,
5c61a77464fd2100010e09f7,SCR,2024-06-10_15h13.18.054,LearnStrategy,2023.2.3,Win32,5.458515284,5,1,7,0.542886683,0.241840978,1,0,0,6.5918,Andesite_14,1,14,5,8,6.592,1,14,-0.344477201,-0.267999856,1,0,0,2.1067,Andesite_rect,1,2.107,1,6,0,6,0,1,,,,,,,,,,,,
5c61a77464fd2100010e09f7,SCR,2024-06-10_15h13.18.054,LearnStrategy,2023.2.3,Win32,5.458515284,5,1,8,-0.574877121,-0.104221647,1,0,0,1.5073,Basalt_11,2,11,3,1,1.507,6,09,-0.144612066,-0.248568542,1,0,0,3.1705,Basalt_rect,2,3.17,1,7,0,7,0,1,,,,,,,,,,,,
5c61a77464fd2100010e09f7,SCR,2024-06-10_15h13.18.054,LearnStrategy,2023.2.3,Win32,5.458515284,5,1,9,0.385585408,-0.12272758,1,0,0,3.4411,Basalt_01,2,01,3,7,3.441,6,13,-0.09186997,-0.251344538,1,0,0,1.308,Basalt_rect,2,1.308,1,8,0,8,0,1,,,,,,,,,,,,
5c61a77464fd2100010e09f7,SCR,2024-06-10_15h13.18.054,LearnStrategy,2023.2.3,Win32,5.458515284,5,1,10,0.541036068,-0.42437575,1,0,0,1.7553,Gabbro_08,4,08,1,8,1.755,7,05,0.317113081,-0.250419231,1,0,0,3.4662,Gabbro_rect,4,3.466,1,9,0,9,0,1,,,,,,,,,,,,
5c61a77464fd2100010e09f7,SCR,2024-06-10_15h13.18.054,LearnStrategy,2023.2.3,Win32,5.458515284,5,1,11,-0.100197666,0.086390374,1,0,0,4.5955,Peridotite_05,7,05,4,4,4.595,4,01,0.155185488,-0.399392737,1,0,0,1.5339,Peridotite_rect,7,1.534,1,10,0,10,0,1,,,,,,,,,,,,
5c61a77464fd2100010e09f7,SCR,2024-06-10_15h13.18.054,LearnStrategy,2023.2.3,Win32,5.458515284,5,1,12,-0.512881948,-0.412346897,1,0,0,2.7042,Basalt_14,2,14,1,1,2.704,2,14,-0.054857884,-0.267074622,1,0,0,5.9186,Basalt_rect,2,5.919,1,11,0,11,0,1,,,,,,,,,,,,
5c61a77464fd2100010e09f7,SCR,2024-06-10_15h13.18.054,LearnStrategy,2023.2.3,Win32,5.458515284,5,1,13,-0.515657871,-0.249493776,1,0,0,2.5467,Gabbro_14,4,14,2,1,2.547,8,06,0.334693927,-0.235614381,1,0,0,3.413,Gabbro_rect,4,3.413,1,12,0,12,0,1,,,,,,,,,,,,
5c61a77464fd2100010e09f7,SCR,2024-06-10_15h13.18.054,LearnStrategy,2023.2.3,Win32,5.458515284,5,1,14,0.565093921,-0.110698764,1,0,0,7.0345,Basalt_10,2,10,3,8,7.034,4,08,-0.09742189,-0.255971003,1,0,0,1.6031,Basalt_rect,2,1.603,1,13,0,13,0,1,,,,,,,,,,,,
5c61a77464fd2100010e09f7,SCR,2024-06-10_15h13.18.054,LearnStrategy,2023.2.3,Win32,5.458515284,5,1,15,0.40594203,0.406544596,1,0,0,2.906,Gabbro_12,4,12,6,7,2.906,2,01,0.40594203,-0.247643234,1,0,0,3.5895,Gabbro_rect,4,3.59,1,14,0,14,0,1,,,,,,,,,,,,
5c61a77464fd2100010e09f7,SCR,2024-06-10_15h13.18.054,LearnStrategy,2023.2.3,Win32,5.458515284,5,1,16,-0.542491573,0.084539832,1,0,0,1.4908,Peridotite_10,7,10,4,1,1.491,5,10,0.088563777,-0.39291551,1,0,0,2.0867,Peridotite_rect,7,2.087,1,15,0,15,0,1,,,,,,,,,,,,
5c61a77464fd2100010e09f7,SCR,2024-06-10_15h13.18.054,LearnStrategy,2023.2.3,Win32,5.458515284,5,2,1,,,,,,,,6,05,,,,,,,,,,,,,6,4.998,1,,,,,,-0.146462682,-0.396616814,1,0,0,4.9977,Pegmatite_rect,0,0,0,0,1
5c61a77464fd2100010e09f7,SCR,2024-06-10_15h13.18.054,LearnStrategy,2023.2.3,Win32,5.458515284,5,2,2,,,,,,,,3,10,,,,,,,,,,,,,3,3.138,1,,,,,,0.126501171,-0.24394215,1,0,0,3.138,Diorite_rect,1,0,1,0,1
5c61a77464fd2100010e09f7,SCR,2024-06-10_15h13.18.054,LearnStrategy,2023.2.3,Win32,5.458515284,5,2,3,,,,,,,,4,10,,,,,,,,,,,,,4,2.356,1,,,,,,0.346722633,-0.243016843,1,0,0,2.3556,Gabbro_rect,2,0,2,0,1
5c61a77464fd2100010e09f7,SCR,2024-06-10_15h13.18.054,LearnStrategy,2023.2.3,Win32,5.458515284,5,2,4,,,,,,,,7,08,,,,,,,,,,,,,7,1.557,1,,,,,,0.165363799,-0.391990276,1,0,0,1.557,Peridotite_rect,3,0,3,0,1
5c61a77464fd2100010e09f7,SCR,2024-06-10_15h13.18.054,LearnStrategy,2023.2.3,Win32,5.458515284,5,2,5,,,,,,,,6,12,,,,,,,,,,,,,6,2.686,1,,,,,,-0.150163986,-0.396616814,1,0,0,2.6856,Pegmatite_rect,4,0,4,0,1
5c61a77464fd2100010e09f7,SCR,2024-06-10_15h13.18.054,LearnStrategy,2023.2.3,Win32,5.458515284,5,2,6,,,,,,,,8,16,,,,,,,,,,,,,8,5.253,1,,,,,,0.365228786,-0.394766125,1,0,0,5.2525,Pumice_rect,5,0,5,0,1
5c61a77464fd2100010e09f7,SCR,2024-06-10_15h13.18.054,LearnStrategy,2023.2.3,Win32,5.458515284,5,2,7,,,,,,,,5,04,,,,,,,,,,,,,5,1.576,1,,,,,,-0.378713291,-0.387363811,1,0,0,1.5761,Obsidian_rect,6,0,6,0,1
5c61a77464fd2100010e09f7,SCR,2024-06-10_15h13.18.054,LearnStrategy,2023.2.3,Win32,5.458515284,5,2,8,,,,,,,,2,12,,,,,,,,,,,,,2,1.946,1,,,,,,-0.177922922,-0.235614381,1,0,0,1.9463,Basalt_rect,7,0,7,0,1
5c61a77464fd2100010e09f7,SCR,2024-06-10_15h13.18.054,LearnStrategy,2023.2.3,Win32,5.458515284,5,2,9,,,,,,,,3,09,,,,,,,,,,,,,3,1.6,1,,,,,,0.118173328,-0.261522849,1,0,0,1.5997,Diorite_rect,8,0,8,0,1
5c61a77464fd2100010e09f7,SCR,2024-06-10_15h13.18.054,LearnStrategy,2023.2.3,Win32,5.458515284,5,2,10,,,,,,,,5,07,,,,,,,,,,,,,5,1.609,1,,,,,,-0.396294063,-0.379961349,1,0,0,1.6089,Obsidian_rect,9,0,9,0,1
5c61a77464fd2100010e09f7,SCR,2024-06-10_15h13.18.054,LearnStrategy,2023.2.3,Win32,5.458515284,5,2,11,,,,,,,,1,04,,,,,,,,,,,,,1,2.351,1,,,,,,-0.408322916,-0.245792692,1,0,0,2.3508,Andesite_rect,10,0,10,0,1
5c61a77464fd2100010e09f7,SCR,2024-06-10_15h13.18.054,LearnStrategy,2023.2.3,Win32,5.458515284,5,2,12,,,,,,,,1,07,,,,,,,,,,,,,1,3.172,1,,,,,,-0.399069912,-0.248568542,1,0,0,3.1719,Andesite_rect,11,0,11,0,1
5c61a77464fd2100010e09f7,SCR,2024-06-10_15h13.18.054,LearnStrategy,2023.2.3,Win32,5.458515284,5,2,13,,,,,,,,8,09,,,,,,,,,,,,,8,1.876,1,,,,,,0.352274626,-0.386438503,1,0,0,1.8757,Pumice_rect,12,0,12,0,1
5c61a77464fd2100010e09f7,SCR,2024-06-10_15h13.18.054,LearnStrategy,2023.2.3,Win32,5.458515284,5,2,14,,,,,,,,7,15,,,,,,,,,,,,,7,1.566,1,,,,,,0.151484257,-0.409571048,1,0,0,1.5663,Peridotite_rect,13,0,13,0,1
5c61a77464fd2100010e09f7,SCR,2024-06-10_15h13.18.054,LearnStrategy,2023.2.3,Win32,5.458515284,5,2,15,,,,,,,,4,09,,,,,,,,,,,,,4,3.693,1,,,,,,0.35319986,-0.262448157,1,0,0,3.6926,Gabbro_rect,14,0,14,0,1
5c61a77464fd2100010e09f7,SCR,2024-06-10_15h13.18.054,LearnStrategy,2023.2.3,Win32,5.458515284,5,2,16,,,,,,,,2,05,,,,,,,,,,,,,2,2.61,1,,,,,,-0.134433756,-0.254120461,1,0,0,2.6096,Basalt_rect,15,0,15,0,1
5c61a77464fd2100010e09f7,SCR,2024-06-10_15h13.18.054,LearnStrategy,2023.2.3,Win32,5.458515284,6,1,1,0.216255353,0.250168692,1,0,0,5.7277,Peridotite_12,7,12,5,6,5.728,1,14,0.099667395,-0.414197439,1,0,0,1.8965,Peridotite_rect,7,1.896,1,0,0,0,0,1,,,,,,,,,,,,
5c61a77464fd2100010e09f7,SCR,2024-06-10_15h13.18.054,LearnStrategy,2023.2.3,Win32,5.458515284,6,1,2,0.064505851,0.445407238,1,0,0,2.4856,Peridotite_06,7,06,6,5,2.486,7,12,0.133903559,-0.382737199,1,0,0,1.5367,Peridotite_rect,7,1.537,1,1,0,1,0,1,,,,,,,,,,,,
5c61a77464fd2100010e09f7,SCR,2024-06-10_15h13.18.054,LearnStrategy,2023.2.3,Win32,5.458515284,6,1,3,-0.244544707,0.249243385,1,0,0,1.9556,Pegmatite_07,6,07,5,3,1.956,2,08,-0.127956675,-0.39291551,1,0,0,2.5616,Pegmatite_rect,6,2.562,1,2,0,2,0,1,,,,,,,,,,,,
5c61a77464fd2100010e09f7,SCR,2024-06-10_15h13.18.054,LearnStrategy,2023.2.3,Win32,5.458515284,6,1,4,-0.569325311,0.088240989,1,0,0,3.1357,Peridotite_10,7,10,4,1,3.136,5,10,0.125575863,-0.391990276,1,0,0,1.5965,Peridotite_rect,7,1.596,1,3,0,3,0,1,,,,,,,,,,,,
5c61a77464fd2100010e09f7,SCR,2024-06-10_15h13.18.054,LearnStrategy,2023.2.3,Win32,5.458515284,6,1,5,0.562317924,-0.420674666,1,0,0,1.2348,Gabbro_08,4,08,1,8,1.235,4,14,0.326366084,-0.24024092,1,0,0,1.8617,Gabbro_rect,4,1.862,1,4,0,4,0,1,,,,,,,,,,,,
5c61a77464fd2100010e09f7,SCR,2024-06-10_15h13.18.054,LearnStrategy,2023.2.3,Win32,5.458515284,6,1,6,0.245864978,-0.403093821,1,0,0,1.4955,Diorite_15,3,15,1,6,1.495,3,11,0.104293934,-0.252269846,1,0,0,5.2317,Diorite_rect,3,5.232,1,5,0,5,0,1,,,,,,,,,,,,
5c61a77464fd2100010e09f7,SCR,2024-06-10_15h13.18.054,LearnStrategy,2023.2.3,Win32,5.458515284,6,1,7,-0.208457855,-0.431778285,1,0,0,2.2871,Diorite_16,3,16,1,3,2.287,3,16,0.101518011,-0.24394215,1,0,0,2.3647,Diorite_rect,3,2.365,1,6,0,6,0,1,,,,,,,,,,,,
5c61a77464fd2100010e09f7,SCR,2024-06-10_15h13.18.054,LearnStrategy,2023.2.3,Win32,5.458515284,6,1,8,-0.222337396,0.407469885,1,0,0,4.7221,Gabbro_11,4,11,6,3,4.722,2,11,0.410568642,-0.250419231,1,0,0,2.1083,Gabbro_rect,4,2.108,1,7,0,7,0,1,,,,,,,,,,,,
5c61a77464fd2100010e09f7,SCR,2024-06-10_15h13.18.054,LearnStrategy,2023.2.3,Win32,5.458515284,6,1,9,0.397614187,0.251094018,1,0,0,1.992,Pegmatite_13,6,13,5,7,1.992,5,05,-0.089094121,-0.394766125,1,0,0,1.6315,Pegmatite_rect,6,1.631,1,8,0,8,0,1,,,,,,,,,,,,
5c61a77464fd2100010e09f7,SCR,2024-06-10_15h13.18.054,LearnStrategy,2023.2.3,Win32,5.458515284,6,1,10,-0.519359101,-0.129204808,1,0,0,2.6947,Basalt_11,2,11,3,1,2.695,4,05,-0.071513275,-0.255971003,1,0,0,6.0052,Basalt_rect,2,6.005,1,9,0,9,0,1,,,,,,,,,,,,
5c61a77464fd2100010e09f7,SCR,2024-06-10_15h13.18.054,LearnStrategy,2023.2.3,Win32,5.458515284,6,1,11,-0.535089222,-0.25967216,1,0,0,1.4818,Gabbro_14,4,14,2,1,1.482,6,07,0.368004783,-0.238390231,1,0,0,2.5571,Gabbro_rect,4,2.557,1,10,0,10,0,1,,,,,,,,,,,,
5c61a77464fd2100010e09f7,SCR,2024-06-10_15h13.18.054,LearnStrategy,2023.2.3,Win32,5.458515284,6,1,12,-0.550819342,-0.42437575,1,0,0,1.3308,Basalt_14,2,14,1,1,1.331,2,10,-0.114077134,-0.241166227,1,0,0,3.7416,Basalt_rect,2,3.742,1,11,0,11,0,1,,,,,,,,,,,,
5c61a77464fd2100010e09f7,SCR,2024-06-10_15h13.18.054,LearnStrategy,2023.2.3,Win32,5.458515284,6,1,13,0.566944536,0.21408195,1,0,0,4.4908,Andesite_14,1,14,5,8,4.491,8,05,-0.336149432,-0.24024092,1,0,0,1.5672,Andesite_rect,1,1.567,1,12,0,12,0,1,,,,,,,,,,,,
5c61a77464fd2100010e09f7,SCR,2024-06-10_15h13.18.054,LearnStrategy,2023.2.3,Win32,5.458515284,6,1,14,0.399464803,-0.252269846,1,0,0,1.4754,Pegmatite_15,6,15,2,7,1.475,6,16,-0.107600201,-0.388289118,1,0,0,1.3041,Pegmatite_rect,6,1.304,1,13,0,13,0,1,,,,,,,,,,,,
5c61a77464fd2100010e09f7,SCR,2024-06-10_15h13.18.054,LearnStrategy,2023.2.3,Win32,5.458515284,6,1,15,0.542886683,-0.413272205,1,0,0,1.2168,Gabbro_08,4,08,1,8,1.217,1,09,0.364303552,-0.238390231,1,0,0,4.9599,Gabbro_rect,4,4.96,1,14,0,14,0,1,,,,,,,,,,,,
5c61a77464fd2100010e09f7,SCR,2024-06-10_15h13.18.054,LearnStrategy,2023.2.3,Win32,5.458515284,6,1,16,0.585450542,0.104896453,1,0,0,1.9164,Andesite_03,1,03,4,8,1.916,6,15,-0.324120505,-0.241166227,1,0,0,2.33,Andesite_rect,1,2.33,1,15,0,15,0,1,,,,,,,,,,,,
5c61a77464fd2100010e09f7,SCR,2024-06-10_15h13.18.054,LearnStrategy,2023.2.3,Win32,5.458515284,6,2,1,,,,,,,,3,13,,,,,,,,,,,,,3,6.234,1,,,,,,0.13852995,-0.246718,1,0,0,6.234,Diorite_rect,0,0,0,0,1
5c61a77464fd2100010e09f7,SCR,2024-06-10_15h13.18.054,LearnStrategy,2023.2.3,Win32,5.458515284,6,2,2,,,,,,,,6,03,,,,,,,,,,,,,6,4.476,1,,,,,,-0.139060441,-0.404019128,1,0,0,4.476,Pegmatite_rect,1,0,1,0,1
5c61a77464fd2100010e09f7,SCR,2024-06-10_15h13.18.054,LearnStrategy,2023.2.3,Win32,5.458515284,6,2,3,,,,,,,,3,06,,,,,,,,,,,,,3,2.387,1,,,,,,0.107995017,-0.262448157,1,0,0,2.3874,Diorite_rect,2,0,2,0,1
5c61a77464fd2100010e09f7,SCR,2024-06-10_15h13.18.054,LearnStrategy,2023.2.3,Win32,5.458515284,6,2,4,,,,,,,,1,11,,,,,,,,,,,,,1,1.899,1,,,,,,-0.36298317,-0.267999856,1,0,0,1.8988,Andesite_rect,3,0,3,0,1
5c61a77464fd2100010e09f7,SCR,2024-06-10_15h13.18.054,LearnStrategy,2023.2.3,Win32,5.458515284,6,2,5,,,,,,,,5,06,,,,,,,,,,,,,5,1.57,1,,,,,,-0.370385632,-0.384587814,1,0,0,1.5696,Obsidian_rect,4,0,4,0,1
5c61a77464fd2100010e09f7,SCR,2024-06-10_15h13.18.054,LearnStrategy,2023.2.3,Win32,5.458515284,6,2,6,,,,,,,,2,02,,,,,,,,,,,,,2,1.597,1,,,,,,-0.125180752,-0.253195154,1,0,0,1.5966,Basalt_rect,5,0,5,0,1
5c61a77464fd2100010e09f7,SCR,2024-06-10_15h13.18.054,LearnStrategy,2023.2.3,Win32,5.458515284,6,2,7,,,,,,,,8,15,,,,,,,,,,,,,8,1.579,1,,,,,,0.398539716,-0.394766125,1,0,0,1.5789,Pumice_rect,6,0,6,0,1
5c61a77464fd2100010e09f7,SCR,2024-06-10_15h13.18.054,LearnStrategy,2023.2.3,Win32,5.458515284,6,2,8,,,,,,,,1,01,,,,,,,,,,,,,1,6.506,1,,,,,,-0.362057863,-0.252269846,1,0,0,6.5063,Andesite_rect,7,0,7,0,1
5c61a77464fd2100010e09f7,SCR,2024-06-10_15h13.18.054,LearnStrategy,2023.2.3,Win32,5.458515284,6,2,9,,,,,,,,4,03,,,,,,,,,,,,,3,4.637,0,,,,,,0.136679482,-0.24394215,1,0,0,4.6371,Diorite_rect,8,0,8,0,1
5c61a77464fd2100010e09f7,SCR,2024-06-10_15h13.18.054,LearnStrategy,2023.2.3,Win32,5.458515284,6,2,10,,,,,,,,2,09,,,,,,,,,,,,,2,6.717,1,,,,,,-0.115927749,-0.255971003,1,0,0,6.7174,Basalt_rect,9,0,9,0,1
5c61a77464fd2100010e09f7,SCR,2024-06-10_15h13.18.054,LearnStrategy,2023.2.3,Win32,5.458515284,6,2,11,,,,,,,,8,02,,,,,,,,,,,,,8,1.552,1,,,,,,0.391137254,-0.403093821,1,0,0,1.5523,Pumice_rect,10,0,10,0,1
5c61a77464fd2100010e09f7,SCR,2024-06-10_15h13.18.054,LearnStrategy,2023.2.3,Win32,5.458515284,6,2,12,,,,,,,,6,10,,,,,,,,,,,,,7,3.001,0,,,,,,0.129276947,-0.404019128,1,0,0,3.0012,Peridotite_rect,11,0,11,0,1
5c61a77464fd2100010e09f7,SCR,2024-06-10_15h13.18.054,LearnStrategy,2023.2.3,Win32,5.458515284,6,2,13,,,,,,,,4,15,,,,,,,,,,,,,4,1.839,1,,,,,,0.361527556,-0.249493776,1,0,0,1.8387,Gabbro_rect,12,0,12,0,1
5c61a77464fd2100010e09f7,SCR,2024-06-10_15h13.18.054,LearnStrategy,2023.2.3,Win32,5.458515284,6,2,14,,,,,,,,7,13,,,,,,,,,,,,,7,1.602,1,,,,,,0.148708261,-0.391064968,1,0,0,1.6016,Peridotite_rect,13,0,13,0,1
5c61a77464fd2100010e09f7,SCR,2024-06-10_15h13.18.054,LearnStrategy,2023.2.3,Win32,5.458515284,6,2,15,,,,,,,,5,08,,,,,,,,,,,,,5,1.586,1,,,,,,-0.397219297,-0.421599901,1,0,0,1.5861,Obsidian_rect,14,0,14,0,1
5c61a77464fd2100010e09f7,SCR,2024-06-10_15h13.18.054,LearnStrategy,2023.2.3,Win32,5.458515284,6,2,16,,,,,,,,7,02,,,,,,,,,,,,,7,1.599,1,,,,,,0.134828866,-0.413272205,1,0,0,1.5989,Peridotite_rect,15,0,15,0,1
5c61a77464fd2100010e09f7,SCR,2024-06-10_15h13.18.054,LearnStrategy,2023.2.3,Win32,5.458515284,7,1,1,0.404091414,-0.250419231,1,0,0,1.7041,Pegmatite_15,6,15,2,7,1.704,6,15,-0.101122973,-0.382737199,1,0,0,2.7795,Pegmatite_rect,6,2.78,1,0,0,0,0,1,,,,,,,,,,,,
5c61a77464fd2100010e09f7,SCR,2024-06-10_15h13.18.054,LearnStrategy,2023.2.3,Win32,5.458515284,7,1,2,-0.069662733,0.237214477,1,0,0,1.0759,Pumice_10,8,10,5,4,1.076,4,01,0.409643113,-0.394766125,1,0,0,1.334,Pumice_rect,8,1.334,1,1,0,1,0,1,,,,,,,,,,,,
5c61a77464fd2100010e09f7,SCR,2024-06-10_15h13.18.054,LearnStrategy,2023.2.3,Win32,5.458515284,7,1,3,-0.351879552,-0.118101189,1,0,0,1.2418,Obsidian_12,5,12,3,2,1.242,4,05,-0.332448238,-0.396616814,1,0,0,1.8284,Obsidian_rect,5,1.828,1,2,0,2,0,1,,,,,,,,,,,,
5c61a77464fd2100010e09f7,SCR,2024-06-10_15h13.18.054,LearnStrategy,2023.2.3,Win32,5.458515284,7,1,4,-0.227889169,-0.25967216,1,0,0,1.2052,Andesite_09,1,09,2,3,1.205,3,08,-0.359282013,-0.253195154,1,0,0,1.6556,Andesite_rect,1,1.656,1,3,0,3,0,1,,,,,,,,,,,,
5c61a77464fd2100010e09f7,SCR,2024-06-10_15h13.18.054,LearnStrategy,2023.2.3,Win32,5.458515284,7,1,5,0.231985363,0.263122945,1,0,0,1.4818,Peridotite_12,7,12,5,6,1.482,5,02,0.15055895,-0.388289118,1,0,0,1.5614,Peridotite_rect,7,1.561,1,4,0,4,0,1,,,,,,,,,,,,
5c61a77464fd2100010e09f7,SCR,2024-06-10_15h13.18.054,LearnStrategy,2023.2.3,Win32,5.458515284,7,1,6,-0.087243505,-0.089416835,1,0,0,1.2178,Obsidian_14,5,14,3,4,1.218,3,14,-0.382414485,-0.407720433,1,0,0,1.0194,Obsidian_rect,5,1.019,1,5,0,5,0,1,,,,,,,,,,,,
5c61a77464fd2100010e09f7,SCR,2024-06-10_15h13.18.054,LearnStrategy,2023.2.3,Win32,5.458515284,7,1,7,0.500322825,0.400992777,1,0,0,0.9816,Diorite_08,3,08,6,8,0.982,8,14,0.099667395,-0.260597542,1,0,0,2.3398,Diorite_rect,3,2.34,1,6,0,6,0,1,,,,,,,,,,,,
5c61a77464fd2100010e09f7,SCR,2024-06-10_15h13.18.054,LearnStrategy,2023.2.3,Win32,5.458515284,7,1,8,-0.245470015,0.413021704,1,0,0,1.4668,Gabbro_11,4,11,6,3,1.467,2,11,0.40594203,-0.243016843,1,0,0,3.577,Gabbro_rect,4,3.577,1,7,0,7,0,1,,,,,,,,,,,,
5c61a77464fd2100010e09f7,SCR,2024-06-10_15h13.18.054,LearnStrategy,2023.2.3,Win32,5.458515284,7,1,9,-0.515657871,-0.409571048,1,0,0,1.4661,Basalt_14,2,14,1,1,1.466,4,08,-0.098347124,-0.237464923,1,0,0,1.5953,Basalt_rect,2,1.595,1,8,0,8,0,1,,,,,,,,,,,,
5c61a77464fd2100010e09f7,SCR,2024-06-10_15h13.18.054,LearnStrategy,2023.2.3,Win32,5.458515284,7,1,10,-0.576727773,-0.104221647,1,0,0,1.454,Basalt_11,2,11,3,1,1.454,7,05,-0.086318124,-0.264298772,1,0,0,2.2544,Basalt_rect,2,2.254,1,9,0,9,0,1,,,,,,,,,,,,
5c61a77464fd2100010e09f7,SCR,2024-06-10_15h13.18.054,LearnStrategy,2023.2.3,Win32,5.458515284,7,1,11,-0.560072308,-0.260597542,1,0,0,1.4909,Gabbro_14,4,14,2,1,1.491,1,03,0.349498776,-0.22821192,1,0,0,1.3085,Gabbro_rect,4,1.309,1,10,0,10,0,1,,,,,,,,,,,,
5c61a77464fd2100010e09f7,SCR,2024-06-10_15h13.18.054,LearnStrategy,2023.2.3,Win32,5.458515284,7,1,12,0.238462591,-0.088491527,1,0,0,1.0273,Gabbro_01,4,01,3,6,1.027,4,14,0.392062635,-0.247643234,1,0,0,6.5401,Gabbro_rect,4,6.54,1,11,0,11,0,1,,,,,,,,,,,,
5c61a77464fd2100010e09f7,SCR,2024-06-10_15h13.18.054,LearnStrategy,2023.2.3,Win32,5.458515284,7,1,13,0.261595135,0.085465103,1,0,0,1.7278,Andesite_06,1,06,4,6,1.728,2,06,-0.3842651,-0.234689074,1,0,0,2.6194,Andesite_rect,1,2.619,1,12,0,12,0,1,,,,,,,,,,,,
5c61a77464fd2100010e09f7,SCR,2024-06-10_15h13.18.054,LearnStrategy,2023.2.3,Win32,5.458515284,7,1,14,0.224583049,0.213156643,1,0,0,1.046,Peridotite_12,7,12,5,6,1.046,6,13,0.129276947,-0.419749359,1,0,0,1.6648,Peridotite_rect,7,1.665,1,13,0,13,0,1,,,,,,,,,,,,
5c61a77464fd2100010e09f7,SCR,2024-06-10_15h13.18.054,LearnStrategy,2023.2.3,Win32,5.458515284,7,1,15,0.56139269,-0.394766125,1,0,0,1.2215,Gabbro_08,4,08,1,8,1.221,6,15,0.355050475,-0.251344538,1,0,0,2.3784,Gabbro_rect,4,2.378,1,14,0,14,0,1,,,,,,,,,,,,
5c61a77464fd2100010e09f7,SCR,2024-06-10_15h13.18.054,LearnStrategy,2023.2.3,Win32,5.458515284,7,1,16,-0.243619399,-0.109773457,1,0,0,0.9881,Andesite_05,1,05,3,3,0.988,6,11,-0.370385632,-0.243016843,1,0,0,1.8649,Andesite_rect,1,1.865,1,15,0,15,0,1,,,,,,,,,,,,
5c61a77464fd2100010e09f7,SCR,2024-06-10_15h13.18.054,LearnStrategy,2023.2.3,Win32,5.458515284,7,2,1,,,,,,,,1,04,,,,,,,,,,,,,1,4.22,1,,,,,,-0.372236174,-0.253195154,1,0,0,4.2204,Andesite_rect,0,0,0,0,1
5c61a77464fd2100010e09f7,SCR,2024-06-10_15h13.18.054,LearnStrategy,2023.2.3,Win32,5.458515284,7,2,2,,,,,,,,3,13,,,,,,,,,,,,,3,1.53,1,,,,,,0.165363799,-0.247643234,1,0,0,1.5299,Diorite_rect,1,0,1,0,1
5c61a77464fd2100010e09f7,SCR,2024-06-10_15h13.18.054,LearnStrategy,2023.2.3,Win32,5.458515284,7,2,3,,,,,,,,8,16,,,,,,,,,,,,,2,3.355,0,,,,,,-0.147387989,-0.258746853,1,0,0,3.3545,Basalt_rect,2,0,2,0,1
5c61a77464fd2100010e09f7,SCR,2024-06-10_15h13.18.054,LearnStrategy,2023.2.3,Win32,5.458515284,7,2,4,,,,,,,,6,12,,,,,,,,,,,,,6,3.621,1,,,,,,-0.150163986,-0.404019128,1,0,0,3.6214,Pegmatite_rect,3,0,3,0,1
5c61a77464fd2100010e09f7,SCR,2024-06-10_15h13.18.054,LearnStrategy,2023.2.3,Win32,5.458515284,7,2,5,,,,,,,,7,13,,,,,,,,,,,,,7,1.565,1,,,,,,0.081161389,-0.397542122,1,0,0,1.5651,Peridotite_rect,4,0,4,0,1
5c61a77464fd2100010e09f7,SCR,2024-06-10_15h13.18.054,LearnStrategy,2023.2.3,Win32,5.458515284,7,2,6,,,,,,,,5,11,,,,,,,,,,,,,5,1.577,1,,,,,,-0.397219297,-0.385513048,1,0,0,1.5771,Obsidian_rect,5,0,5,0,1
5c61a77464fd2100010e09f7,SCR,2024-06-10_15h13.18.054,LearnStrategy,2023.2.3,Win32,5.458515284,7,2,7,,,,,,,,6,05,,,,,,,,,,,,,6,1.335,1,,,,,,-0.159416916,-0.379036115,1,0,0,1.3355,Pegmatite_rect,6,0,6,0,1
5c61a77464fd2100010e09f7,SCR,2024-06-10_15h13.18.054,LearnStrategy,2023.2.3,Win32,5.458515284,7,2,8,,,,,,,,1,11,,,,,,,,,,,,,1,1.359,1,,,,,,-0.374086789,-0.246718,1,0,0,1.3589,Andesite_rect,7,0,7,0,1
5c61a77464fd2100010e09f7,SCR,2024-06-10_15h13.18.054,LearnStrategy,2023.2.3,Win32,5.458515284,7,2,9,,,,,,,,7,14,,,,,,,,,,,,,7,3.075,1,,,,,,0.143156562,-0.380886657,1,0,0,3.0752,Peridotite_rect,8,0,8,0,1
5c61a77464fd2100010e09f7,SCR,2024-06-10_15h13.18.054,LearnStrategy,2023.2.3,Win32,5.458515284,7,2,10,,,,,,,,8,15,,,,,,,,,,,,,8,1.634,1,,,,,,0.371705866,-0.378110807,1,0,0,1.6344,Pumice_rect,9,0,9,0,1
5c61a77464fd2100010e09f7,SCR,2024-06-10_15h13.18.054,LearnStrategy,2023.2.3,Win32,5.458515284,7,2,11,,,,,,,,4,09,,,,,,,,,,,,,4,2.669,1,,,,,,0.365228786,-0.231913224,1,0,0,2.669,Gabbro_rect,10,0,10,0,1
5c61a77464fd2100010e09f7,SCR,2024-06-10_15h13.18.054,LearnStrategy,2023.2.3,Win32,5.458515284,7,2,12,,,,,,,,4,15,,,,,,,,,,,,,4,1.53,1,,,,,,0.365228786,-0.231913224,1,0,0,1.5302,Gabbro_rect,11,0,11,0,1
5c61a77464fd2100010e09f7,SCR,2024-06-10_15h13.18.054,LearnStrategy,2023.2.3,Win32,5.458515284,7,2,13,,,,,,,,2,02,,,,,,,,,,,,,2,1.59,1,,,,,,-0.113151826,-0.255045695,1,0,0,1.59,Basalt_rect,12,0,12,0,1
5c61a77464fd2100010e09f7,SCR,2024-06-10_15h13.18.054,LearnStrategy,2023.2.3,Win32,5.458515284,7,2,14,,,,,,,,5,06,,,,,,,,,,,,,5,1.313,1,,,,,,-0.359282013,-0.399392737,1,0,0,1.3133,Obsidian_rect,13,0,13,0,1
5c61a77464fd2100010e09f7,SCR,2024-06-10_15h13.18.054,LearnStrategy,2023.2.3,Win32,5.458515284,7,2,15,,,,,,,,2,09,,,,,,,,,,,,,2,1.55,1,,,,,,-0.07336389,-0.253195154,1,0,0,1.5497,Basalt_rect,14,0,14,0,1
5c61a77464fd2100010e09f7,SCR,2024-06-10_15h13.18.054,LearnStrategy,2023.2.3,Win32,5.458515284,7,2,16,,,,,,,,3,12,,,,,,,,,,,,,3,2.683,1,,,,,,0.160737187,-0.263373465,1,0,0,2.6834,Diorite_rect,15,0,15,0,1
5c61a77464fd2100010e09f7,SCR,2024-06-10_15h13.18.054,LearnStrategy,2023.2.3,Win32,5.458515284,8,1,1,-0.069662733,0.38341206,1,0,0,2.726,Pegmatite_16,6,16,6,4,2.726,8,14,-0.124255445,-0.386438503,1,0,0,1.8115,Pegmatite_rect,6,1.811,1,0,0,0,0,1,,,,,,,,,,,,
5c61a77464fd2100010e09f7,SCR,2024-06-10_15h13.18.054,LearnStrategy,2023.2.3,Win32,5.458515284,8,1,2,-0.25657356,0.095643413,1,0,0,0.9858,Andesite_16,1,16,4,3,0.986,4,05,-0.365759057,-0.262448157,1,0,0,2.0965,Andesite_rect,1,2.096,1,1,0,1,0,1,,,,,,,,,,,,
5c61a77464fd2100010e09f7,SCR,2024-06-10_15h13.18.054,LearnStrategy,2023.2.3,Win32,5.458515284,8,1,3,-0.405547029,0.250168692,1,0,0,0.9754,Pumice_06,8,06,5,2,0.975,1,09,0.397614187,-0.379961349,1,0,0,1.7634,Pumice_rect,8,1.763,1,2,0,2,0,1,,,,,,,,,,,,
5c61a77464fd2100010e09f7,SCR,2024-06-10_15h13.18.054,LearnStrategy,2023.2.3,Win32,5.458515284,8,1,4,0.084862619,-0.081089066,1,0,0,1.7044,Peridotite_16,7,16,3,5,1.704,2,11,0.146857792,-0.396616814,1,0,0,3.5437,Peridotite_rect,7,3.544,1,3,0,3,0,1,,,,,,,,,,,,
5c61a77464fd2100010e09f7,SCR,2024-06-10_15h13.18.054,LearnStrategy,2023.2.3,Win32,5.458515284,8,1,5,0.553064994,0.06140725,1,0,0,1.9487,Andesite_03,1,03,4,8,1.949,4,11,-0.349103702,-0.247643234,1,0,0,2.849,Andesite_rect,1,2.849,1,4,0,4,0,1,,,,,,,,,,,,
5c61a77464fd2100010e09f7,SCR,2024-06-10_15h13.18.054,LearnStrategy,2023.2.3,Win32,5.458515284,8,1,6,0.571571001,-0.132905891,1,0,0,1.2407,Basalt_10,2,10,3,8,1.241,3,02,-0.081691586,-0.24394215,1,0,0,1.6086,Basalt_rect,2,1.609,1,5,0,5,0,1,,,,,,,,,,,,
5c61a77464fd2100010e09f7,SCR,2024-06-10_15h13.18.054,LearnStrategy,2023.2.3,Win32,5.458515284,8,1,7,-0.340775933,0.091942183,1,0,0,1.2348,Basalt_08,2,08,4,2,1.235,8,06,-0.118703746,-0.253195154,1,0,0,1.5357,Basalt_rect,2,1.536,1,6,0,6,0,1,,,,,,,,,,,,
5c61a77464fd2100010e09f7,SCR,2024-06-10_15h13.18.054,LearnStrategy,2023.2.3,Win32,5.458515284,8,1,8,0.239387898,-0.267074622,1,0,0,1.2374,Diorite_14,3,14,2,6,1.237,2,14,0.096891399,-0.253195154,1,0,0,2.0677,Diorite_rect,3,2.068,1,7,0,7,0,1,,,,,,,,,,,,
5c61a77464fd2100010e09f7,SCR,2024-06-10_15h13.18.054,LearnStrategy,2023.2.3,Win32,5.458515284,8,1,9,-0.065036195,-0.290207093,1,0,0,1.4663,Obsidian_05,5,05,2,4,1.466,6,07,-0.350028937,-0.418824051,1,0,0,2.0971,Obsidian_rect,5,2.097,1,8,0,8,0,1,,,,,,,,,,,,
5c61a77464fd2100010e09f7,SCR,2024-06-10_15h13.18.054,LearnStrategy,2023.2.3,Win32,5.458515284,8,1,10,-0.401845799,-0.289281785,1,0,0,1.2635,Diorite_02,3,02,2,2,1.264,4,05,0.146857792,-0.241166227,1,0,0,1.5172,Diorite_rect,3,1.517,1,9,0,9,0,1,,,,,,,,,,,,
5c61a77464fd2100010e09f7,SCR,2024-06-10_15h13.18.054,LearnStrategy,2023.2.3,Win32,5.458515284,8,1,11,0.594703472,-0.425301058,1,0,0,2.2338,Gabbro_08,4,08,1,8,2.234,8,14,0.39021202,-0.247643234,1,0,0,1.3076,Gabbro_rect,4,1.308,1,10,0,10,0,1,,,,,,,,,,,,
5c61a77464fd2100010e09f7,SCR,2024-06-10_15h13.18.054,LearnStrategy,2023.2.3,Win32,5.458515284,8,1,12,0.251416825,0.04567713,1,0,0,1.2222,Andesite_06,1,06,4,6,1.222,6,07,-0.367609672,-0.264298772,1,0,0,1.5801,Andesite_rect,1,1.58,1,11,0,11,0,1,,,,,,,,,,,,
5c61a77464fd2100010e09f7,SCR,2024-06-10_15h13.18.054,LearnStrategy,2023.2.3,Win32,5.458515284,8,1,13,0.057103463,0.084539832,1,0,0,1.4971,Obsidian_10,5,10,4,5,1.497,5,02,-0.357431361,-0.382737199,1,0,0,1.0767,Obsidian_rect,5,1.077,1,12,0,12,0,1,,,,,,,,,,,,
5c61a77464fd2100010e09f7,SCR,2024-06-10_15h13.18.054,LearnStrategy,2023.2.3,Win32,5.458515284,8,1,14,-0.532313262,0.127103654,1,0,0,1.0211,Peridotite_10,7,10,4,1,1.021,6,09,0.157961264,-0.378110807,1,0,0,1.5248,Peridotite_rect,7,1.525,1,13,0,13,0,1,,,,,,,,,,,,
5c61a77464fd2100010e09f7,SCR,2024-06-10_15h13.18.054,LearnStrategy,2023.2.3,Win32,5.458515284,8,1,15,0.047850459,0.38803858,1,0,0,0.9886,Peridotite_06,7,06,6,5,0.989,3,16,0.157036103,-0.40864574,1,0,0,1.2667,Peridotite_rect,7,1.267,1,14,0,14,0,1,,,,,,,,,,,,
5c61a77464fd2100010e09f7,SCR,2024-06-10_15h13.18.054,LearnStrategy,2023.2.3,Win32,5.458515284,8,1,16,-0.216785624,0.411171088,1,0,0,1.2434,Gabbro_11,4,11,6,3,1.243,7,10,0.3966891,-0.238390231,1,0,0,1.6004,Gabbro_rect,4,1.6,1,15,0,15,0,1,,,,,,,,,,,,
5c61a77464fd2100010e09f7,SCR,2024-06-10_15h13.18.054,LearnStrategy,2023.2.3,Win32,5.458515284,8,2,1,,,,,,,,3,10,,,,,,,,,,,,,3,7.072,1,,,,,,0.12279994,-0.237464923,1,0,0,7.0716,Diorite_rect,0,0,0,0,1
5c61a77464fd2100010e09f7,SCR,2024-06-10_15h13.18.054,LearnStrategy,2023.2.3,Win32,5.458515284,8,2,2,,,,,,,,8,04,,,,,,,,,,,,,8,1.299,1,,,,,,0.404091414,-0.413272205,1,0,0,1.2989,Pumice_rect,1,0,1,0,1
5c61a77464fd2100010e09f7,SCR,2024-06-10_15h13.18.054,LearnStrategy,2023.2.3,Win32,5.458515284,8,2,3,,,,,,,,7,07,,,,,,,,,,,,,7,2.671,1,,,,,,0.089489084,-0.399392737,1,0,0,2.6709,Peridotite_rect,2,0,2,0,1
5c61a77464fd2100010e09f7,SCR,2024-06-10_15h13.18.054,LearnStrategy,2023.2.3,Win32,5.458515284,8,2,4,,,,,,,,8,03,,,,,,,,,,,,,8,1.559,1,,,,,,0.393913104,-0.41142159,1,0,0,1.559,Pumice_rect,3,0,3,0,1
5c61a77464fd2100010e09f7,SCR,2024-06-10_15h13.18.054,LearnStrategy,2023.2.3,Win32,5.458515284,8,2,5,,,,,,,,4,16,,,,,,,,,,,,,4,2.321,1,,,,,,0.388361405,-0.261522849,1,0,0,2.3206,Gabbro_rect,4,0,4,0,1
5c61a77464fd2100010e09f7,SCR,2024-06-10_15h13.18.054,LearnStrategy,2023.2.3,Win32,5.458515284,8,2,6,,,,,,,,5,07,,,,,,,,,,,,,5,1.589,1,,,,,,-0.36298317,-0.384587814,1,0,0,1.5892,Obsidian_rect,5,0,5,0,1
5c61a77464fd2100010e09f7,SCR,2024-06-10_15h13.18.054,LearnStrategy,2023.2.3,Win32,5.458515284,8,2,7,,,,,,,,1,01,,,,,,,,,,,,,1,2.479,1,,,,,,-0.351879552,-0.237464923,1,0,0,2.479,Andesite_rect,6,0,6,0,1
5c61a77464fd2100010e09f7,SCR,2024-06-10_15h13.18.054,LearnStrategy,2023.2.3,Win32,5.458515284,8,2,8,,,,,,,,3,09,,,,,,,,,,,,,3,1.387,1,,,,,,0.105219241,-0.253195154,1,0,0,1.3867,Diorite_rect,7,0,7,0,1
5c61a77464fd2100010e09f7,SCR,2024-06-10_15h13.18.054,LearnStrategy,2023.2.3,Win32,5.458515284,8,2,9,,,,,,,,7,02,,,,,,,,,,,,,7,1.609,1,,,,,,0.128351639,-0.404944436,1,0,0,1.6094,Peridotite_rect,8,0,8,0,1
5c61a77464fd2100010e09f7,SCR,2024-06-10_15h13.18.054,LearnStrategy,2023.2.3,Win32,5.458515284,8,2,10,,,,,,,,6,08,,,,,,,,,,,,,6,1.566,1,,,,,,-0.166819304,-0.382737199,1,0,0,1.5662,Pegmatite_rect,9,0,9,0,1
5c61a77464fd2100010e09f7,SCR,2024-06-10_15h13.18.054,LearnStrategy,2023.2.3,Win32,5.458515284,8,2,11,,,,,,,,2,16,,,,,,,,,,,,,2,2.066,1,,,,,,-0.156640993,-0.232838532,1,0,0,2.066,Basalt_rect,10,0,10,0,1
5c61a77464fd2100010e09f7,SCR,2024-06-10_15h13.18.054,LearnStrategy,2023.2.3,Win32,5.458515284,8,2,12,,,,,,,,5,08,,,,,,,,,,,,,5,1.279,1,,,,,,-0.36853498,-0.418824051,1,0,0,1.2792,Obsidian_rect,11,0,11,0,1
5c61a77464fd2100010e09f7,SCR,2024-06-10_15h13.18.054,LearnStrategy,2023.2.3,Win32,5.458515284,8,2,13,,,,,,,,1,10,,,,,,,,,,,,,1,3.587,1,,,,,,-0.412024183,-0.237464923,1,0,0,3.5875,Andesite_rect,12,0,12,0,1
5c61a77464fd2100010e09f7,SCR,2024-06-10_15h13.18.054,LearnStrategy,2023.2.3,Win32,5.458515284,8,2,14,,,,,,,,2,05,,,,,,,,,,,,,2,1.56,1,,,,,,-0.162192912,-0.258746853,1,0,0,1.5598,Basalt_rect,13,0,13,0,1
5c61a77464fd2100010e09f7,SCR,2024-06-10_15h13.18.054,LearnStrategy,2023.2.3,Win32,5.458515284,8,2,15,,,,,,,,4,13,,,,,,,,,,,,,4,1.895,1,,,,,,0.400390331,-0.255971003,1,0,0,1.8947,Gabbro_rect,14,0,14,0,1
5c61a77464fd2100010e09f7,SCR,2024-06-10_15h13.18.054,LearnStrategy,2023.2.3,Win32,5.458515284,8,2,16,,,,,,,,6,06,,,,,,,,,,,,,6,1.878,1,,,,,,-0.145537374,-0.394766125,1,0,0,1.8777,Pegmatite_rect,15,0,15,0,1
5c61a77464fd2100010e09f7,SCR,2024-06-10_15h13.18.054,LearnStrategy,2023.2.3,Win32,5.458515284,9,1,1,-0.53046272,-0.067209598,1,0,0,2.5543,Basalt_11,2,11,3,1,2.554,2,11,-0.151089294,-0.247643234,1,0,0,3.7261,Basalt_rect,2,3.726,1,0,0,0,0,1,,,,,,,,,,,,
5c61a77464fd2100010e09f7,SCR,2024-06-10_15h13.18.054,LearnStrategy,2023.2.3,Win32,5.458515284,9,1,2,-0.551744613,-0.253195154,1,0,0,1.4522,Gabbro_14,4,14,2,1,1.452,6,16,0.467937276,-0.239315612,1,0,0,2.0372,Gabbro_rect,4,2.037,1,1,0,1,0,1,,,,,,,,,,,,
5c61a77464fd2100010e09f7,SCR,2024-06-10_15h13.18.054,LearnStrategy,2023.2.3,Win32,5.458515284,9,1,3,0.416120341,0.255720502,1,0,0,1.2039,Pegmatite_13,6,13,5,7,1.204,6,13,-0.163118146,-0.401243279,1,0,0,2.3338,Pegmatite_rect,6,2.334,1,2,0,2,0,1,,,,,,,,,,,,
5c61a77464fd2100010e09f7,SCR,2024-06-10_15h13.18.054,LearnStrategy,2023.2.3,Win32,5.458515284,9,1,4,0.237537283,-0.110698764,1,0,0,1.4235,Gabbro_01,4,01,3,6,1.423,4,01,0.351349245,-0.241166227,1,0,0,2.3765,Gabbro_rect,4,2.377,1,3,0,3,0,1,,,,,,,,,,,,
5c61a77464fd2100010e09f7,SCR,2024-06-10_15h13.18.054,LearnStrategy,2023.2.3,Win32,5.458515284,9,1,5,0.566944536,-0.416973289,1,0,0,1.6493,Gabbro_08,4,08,1,8,1.649,4,08,0.387435876,-0.263373465,1,0,0,2.2138,Gabbro_rect,4,2.214,1,4,0,4,0,1,,,,,,,,,,,,
5c61a77464fd2100010e09f7,SCR,2024-06-10_15h13.18.054,LearnStrategy,2023.2.3,Win32,5.458515284,9,1,6,0.065431158,0.290881936,1,0,0,1.3392,Pumice_05,8,05,5,5,1.339,8,05,0.397614187,-0.40586967,1,0,0,2.7064,Pumice_rect,8,2.706,1,5,0,5,0,1,,,,,,,,,,,,
5c61a77464fd2100010e09f7,SCR,2024-06-10_15h13.18.054,LearnStrategy,2023.2.3,Win32,5.458515284,9,1,7,-0.052081961,0.398216873,1,0,0,1.1644,Pegmatite_16,6,16,6,4,1.164,6,16,-0.158491608,-0.390139734,1,0,0,1.2761,Pegmatite_rect,6,1.276,1,6,0,6,0,1,,,,,,,,,,,,
5c61a77464fd2100010e09f7,SCR,2024-06-10_15h13.18.054,LearnStrategy,2023.2.3,Win32,5.458515284,9,1,8,0.076534777,-0.40586967,1,0,0,1.418,Peridotite_04,7,04,1,5,1.418,7,04,0.132978251,-0.400318045,1,0,0,1.7959,Peridotite_rect,7,1.796,1,7,0,7,0,1,,,,,,,,,,,,
5c61a77464fd2100010e09f7,SCR,2024-06-10_15h13.18.054,LearnStrategy,2023.2.3,Win32,5.458515284,9,1,9,0.568795151,-0.095893952,1,0,0,1.6176,Basalt_10,2,10,3,8,1.618,2,10,-0.179773538,-0.247643234,1,0,0,1.6468,Basalt_rect,2,1.647,1,8,0,8,0,1,,,,,,,,,,,,
5c61a77464fd2100010e09f7,SCR,2024-06-10_15h13.18.054,LearnStrategy,2023.2.3,Win32,5.458515284,9,1,10,0.229209587,0.409320491,1,0,0,1.3858,Pumice_14,8,14,6,6,1.386,8,14,0.373556482,-0.404019128,1,0,0,1.1664,Pumice_rect,8,1.166,1,9,0,9,0,1,,,,,,,,,,,,
5c61a77464fd2100010e09f7,SCR,2024-06-10_15h13.18.054,LearnStrategy,2023.2.3,Win32,5.458515284,9,1,11,-0.062260272,-0.391064968,1,0,0,1.2197,Pumice_08,8,08,1,4,1.22,8,08,0.402240946,-0.400318045,1,0,0,1.5573,Pumice_rect,8,1.557,1,10,0,10,0,1,,,,,,,,,,,,
5c61a77464fd2100010e09f7,SCR,2024-06-10_15h13.18.054,LearnStrategy,2023.2.3,Win32,5.458515284,9,1,12,-0.282481954,0.134506042,1,0,0,1.2244,Andesite_16,1,16,4,3,1.224,1,16,-0.381489177,-0.257821545,1,0,0,1.7769,Andesite_rect,1,1.777,1,11,0,11,0,1,,,,,,,,,,,,
5c61a77464fd2100010e09f7,SCR,2024-06-10_15h13.18.054,LearnStrategy,2023.2.3,Win32,5.458515284,9,1,13,0.229209587,0.253869923,1,0,0,1.2162,Peridotite_12,7,12,5,6,1.216,7,12,0.112621629,-0.386438503,1,0,0,1.3445,Peridotite_rect,7,1.345,1,12,0,12,0,1,,,,,,,,,,,,
5c61a77464fd2100010e09f7,SCR,2024-06-10_15h13.18.054,LearnStrategy,2023.2.3,Win32,5.458515284,9,1,14,0.541961302,0.419498811,1,0,0,1.2081,Diorite_08,3,08,6,8,1.208,3,08,0.116322713,-0.232838532,1,0,0,2.7108,Diorite_rect,3,2.711,1,13,0,13,0,1,,,,,,,,,,,,
5c61a77464fd2100010e09f7,SCR,2024-06-10_15h13.18.054,LearnStrategy,2023.2.3,Win32,5.458515284,9,1,15,-0.06040973,-0.237464923,1,0,0,2.1117,Obsidian_05,5,05,2,4,2.112,5,05,-0.372236174,-0.394766125,1,0,0,0.8532,Obsidian_rect,5,0.853,1,14,0,14,0,1,,,,,,,,,,,,
5c61a77464fd2100010e09f7,SCR,2024-06-10_15h13.18.054,LearnStrategy,2023.2.3,Win32,5.458515284,9,1,16,-0.215860316,-0.390139734,1,0,0,1.4633,Diorite_16,3,16,1,3,1.463,3,16,0.119098709,-0.243016843,1,0,0,1.0396,Diorite_rect,3,1.04,1,15,0,15,0,1,,,,,,,,,,,,
5c61a77464fd2100010e09f7,SCR,2024-06-10_15h13.18.054,LearnStrategy,2023.2.3,Win32,5.458515284,9,2,1,,,,,,,,2,12,,,,,,,,,,,,,2,1.971,1,,,,,,-0.124255445,-0.245792692,1,0,0,1.9706,Basalt_rect,0,0,0,0,1
5c61a77464fd2100010e09f7,SCR,2024-06-10_15h13.18.054,LearnStrategy,2023.2.3,Win32,5.458515284,9,2,2,,,,,,,,4,10,,,,,,,,,,,,,4,1.857,1,,,,,,0.453132501,-0.244867385,1,0,0,1.8569,Gabbro_rect,1,0,1,0,1
5c61a77464fd2100010e09f7,SCR,2024-06-10_15h13.18.054,LearnStrategy,2023.2.3,Win32,5.458515284,9,2,3,,,,,,,,8,09,,,,,,,,,,,,,8,1.466,1,,,,,,0.379108181,-0.389214426,1,0,0,1.4655,Pumice_rect,2,0,2,0,1
5c61a77464fd2100010e09f7,SCR,2024-06-10_15h13.18.054,LearnStrategy,2023.2.3,Win32,5.458515284,9,2,4,,,,,,,,6,03,,,,,,,,,,,,,6,8.031,1,,,,,,-0.108525435,-0.391990276,1,0,0,8.0312,Pegmatite_rect,3,0,3,0,1
5c61a77464fd2100010e09f7,SCR,2024-06-10_15h13.18.054,LearnStrategy,2023.2.3,Win32,5.458515284,9,2,5,,,,,,,,6,10,,,,,,,,,,,,,7,1.368,0,,,,,,0.151484257,-0.381811965,1,0,0,1.3684,Peridotite_rect,4,0,4,0,1
5c61a77464fd2100010e09f7,SCR,2024-06-10_15h13.18.054,LearnStrategy,2023.2.3,Win32,5.458515284,9,2,6,,,,,,,,3,07,,,,,,,,,,,,,3,1.339,1,,,,,,0.12279994,-0.24394215,1,0,0,1.3388,Diorite_rect,5,0,5,0,1
5c61a77464fd2100010e09f7,SCR,2024-06-10_15h13.18.054,LearnStrategy,2023.2.3,Win32,5.458515284,9,2,7,,,,,,,,4,03,,,,,,,,,,,,,3,4.999,0,,,,,,0.116322713,-0.245792692,1,0,0,4.9994,Diorite_rect,6,0,6,0,1
5c61a77464fd2100010e09f7,SCR,2024-06-10_15h13.18.054,LearnStrategy,2023.2.3,Win32,5.458515284,9,2,8,,,,,,,,7,15,,,,,,,,,,,,,7,1.359,1,,,,,,0.119098709,-0.381811965,1,0,0,1.3594,Peridotite_rect,7,0,7,0,1
5c61a77464fd2100010e09f7,SCR,2024-06-10_15h13.18.054,LearnStrategy,2023.2.3,Win32,5.458515284,9,2,9,,,,,,,,5,04,,,,,,,,,,,,,5,1.416,1,,,,,,-0.336149432,-0.409571048,1,0,0,1.4162,Obsidian_rect,8,0,8,0,1
5c61a77464fd2100010e09f7,SCR,2024-06-10_15h13.18.054,LearnStrategy,2023.2.3,Win32,5.458515284,9,2,10,,,,,,,,7,08,,,,,,,,,,,,,7,1.568,1,,,,,,0.187571036,-0.39291551,1,0,0,1.5682,Peridotite_rect,9,0,9,0,1
5c61a77464fd2100010e09f7,SCR,2024-06-10_15h13.18.054,LearnStrategy,2023.2.3,Win32,5.458515284,9,2,11,,,,,,,,3,06,,,,,,,,,,,,,3,3.129,1,,,,,,0.096891399,-0.242091535,1,0,0,3.129,Diorite_rect,10,0,10,0,1
5c61a77464fd2100010e09f7,SCR,2024-06-10_15h13.18.054,LearnStrategy,2023.2.3,Win32,5.458515284,9,2,12,,,,,,,,1,07,,,,,,,,,,,,,1,3.154,1,,,,,,-0.379638635,-0.252269846,1,0,0,3.1541,Andesite_rect,11,0,11,0,1
5c61a77464fd2100010e09f7,SCR,2024-06-10_15h13.18.054,LearnStrategy,2023.2.3,Win32,5.458515284,9,2,13,,,,,,,,1,02,,,,,,,,,,,,,1,2.564,1,,,,,,-0.355580746,-0.245792692,1,0,0,2.5641,Andesite_rect,12,0,12,0,1
5c61a77464fd2100010e09f7,SCR,2024-06-10_15h13.18.054,LearnStrategy,2023.2.3,Win32,5.458515284,9,2,14,,,,,,,,2,04,,,,,,,,,,,,,2,2.633,1,,,,,,-0.120554361,-0.264298772,1,0,0,2.633,Basalt_rect,13,0,13,0,1
5c61a77464fd2100010e09f7,SCR,2024-06-10_15h13.18.054,LearnStrategy,2023.2.3,Win32,5.458515284,9,2,15,,,,,,,,8,02,,,,,,,,,,,,,8,1.623,1,,,,,,0.423522802,-0.379961349,1,0,0,1.6235,Pumice_rect,14,0,14,0,1
5c61a77464fd2100010e09f7,SCR,2024-06-10_15h13.18.054,LearnStrategy,2023.2.3,Win32,5.458515284,9,2,16,,,,,,,,5,09,,,,,,,,,,,,,5,1.338,1,,,,,,-0.385190444,-0.385513048,1,0,0,1.3377,Obsidian_rect,15,0,15,0,1
5c61a77464fd2100010e09f7,SCR,2024-06-10_15h13.18.054,LearnStrategy,2023.2.3,Win32,5.458515284,,,,,,,,,,,,,,,,,,,,,,,,,,,,,,,,,,,,,,,,,,,,
5c61a77464fd2100010e09f7,SCR,2024-06-10_15h13.18.054,LearnStrategy,2023.2.3,Win32,5.458515284,,,,,,,,,,,,,,,,,,,,,,,,,,,,,,,,,,,,,,,,,,,,
5c61a77464fd2100010e09f7,SCR,2024-06-10_15h13.18.054,LearnStrategy,2023.2.3,Win32,5.458515284,,,,,,,,,,,2,14,1,1,,,,,,,,,,,,,,,,,,,,,,,,,,,,,,
5c61a77464fd2100010e09f7,SCR,2024-06-10_15h13.18.054,LearnStrategy,2023.2.3,Win32,5.458515284,,,,,,,,,,,6,11,1,2,,,,,,,,,,,,,,,,,,,,,,,,,,,,,,
5c61a77464fd2100010e09f7,SCR,2024-06-10_15h13.18.054,LearnStrategy,2023.2.3,Win32,5.458515284,,,,,,,,,,,3,16,1,3,,,,,,,,,,,,,,,,,,,,,,,,,,,,,,
5c61a77464fd2100010e09f7,SCR,2024-06-10_15h13.18.054,LearnStrategy,2023.2.3,Win32,5.458515284,,,,,,,,,,,8,08,1,4,,,,,,,,,,,,,,,,,,,,,,,,,,,,,,
5c61a77464fd2100010e09f7,SCR,2024-06-10_15h13.18.054,LearnStrategy,2023.2.3,Win32,5.458515284,,,,,,,,,,,7,04,1,5,,,,,,,,,,,,,,,,,,,,,,,,,,,,,,
5c61a77464fd2100010e09f7,SCR,2024-06-10_15h13.18.054,LearnStrategy,2023.2.3,Win32,5.458515284,,,,,,,,,,,3,15,1,6,,,,,,,,,,,,,,,,,,,,,,,,,,,,,,
5c61a77464fd2100010e09f7,SCR,2024-06-10_15h13.18.054,LearnStrategy,2023.2.3,Win32,5.458515284,,,,,,,,,,,2,06,1,7,,,,,,,,,,,,,,,,,,,,,,,,,,,,,,
5c61a77464fd2100010e09f7,SCR,2024-06-10_15h13.18.054,LearnStrategy,2023.2.3,Win32,5.458515284,,,,,,,,,,,4,08,1,8,,,,,,,,,,,,,,,,,,,,,,,,,,,,,,
5c61a77464fd2100010e09f7,SCR,2024-06-10_15h13.18.054,LearnStrategy,2023.2.3,Win32,5.458515284,,,,,,,,,,,4,14,2,1,,,,,,,,,,,,,,,,,,,,,,,,,,,,,,
5c61a77464fd2100010e09f7,SCR,2024-06-10_15h13.18.054,LearnStrategy,2023.2.3,Win32,5.458515284,,,,,,,,,,,3,02,2,2,,,,,,,,,,,,,,,,,,,,,,,,,,,,,,
5c61a77464fd2100010e09f7,SCR,2024-06-10_15h13.18.054,LearnStrategy,2023.2.3,Win32,5.458515284,,,,,,,,,,,1,09,2,3,,,,,,,,,,,,,,,,,,,,,,,,,,,,,,
5c61a77464fd2100010e09f7,SCR,2024-06-10_15h13.18.054,LearnStrategy,2023.2.3,Win32,5.458515284,,,,,,,,,,,5,05,2,4,,,,,,,,,,,,,,,,,,,,,,,,,,,,,,
5c61a77464fd2100010e09f7,SCR,2024-06-10_15h13.18.054,LearnStrategy,2023.2.3,Win32,5.458515284,,,,,,,,,,,6,09,2,5,,,,,,,,,,,,,,,,,,,,,,,,,,,,,,
5c61a77464fd2100010e09f7,SCR,2024-06-10_15h13.18.054,LearnStrategy,2023.2.3,Win32,5.458515284,,,,,,,,,,,3,14,2,6,,,,,,,,,,,,,,,,,,,,,,,,,,,,,,
5c61a77464fd2100010e09f7,SCR,2024-06-10_15h13.18.054,LearnStrategy,2023.2.3,Win32,5.458515284,,,,,,,,,,,6,15,2,7,,,,,,,,,,,,,,,,,,,,,,,,,,,,,,
5c61a77464fd2100010e09f7,SCR,2024-06-10_15h13.18.054,LearnStrategy,2023.2.3,Win32,5.458515284,,,,,,,,,,,4,05,2,8,,,,,,,,,,,,,,,,,,,,,,,,,,,,,,
5c61a77464fd2100010e09f7,SCR,2024-06-10_15h13.18.054,LearnStrategy,2023.2.3,Win32,5.458515284,,,,,,,,,,,2,11,3,1,,,,,,,,,,,,,,,,,,,,,,,,,,,,,,
5c61a77464fd2100010e09f7,SCR,2024-06-10_15h13.18.054,LearnStrategy,2023.2.3,Win32,5.458515284,,,,,,,,,,,5,12,3,2,,,,,,,,,,,,,,,,,,,,,,,,,,,,,,
5c61a77464fd2100010e09f7,SCR,2024-06-10_15h13.18.054,LearnStrategy,2023.2.3,Win32,5.458515284,,,,,,,,,,,1,05,3,3,,,,,,,,,,,,,,,,,,,,,,,,,,,,,,
5c61a77464fd2100010e09f7,SCR,2024-06-10_15h13.18.054,LearnStrategy,2023.2.3,Win32,5.458515284,,,,,,,,,,,5,14,3,4,,,,,,,,,,,,,,,,,,,,,,,,,,,,,,
5c61a77464fd2100010e09f7,SCR,2024-06-10_15h13.18.054,LearnStrategy,2023.2.3,Win32,5.458515284,,,,,,,,,,,7,16,3,5,,,,,,,,,,,,,,,,,,,,,,,,,,,,,,
5c61a77464fd2100010e09f7,SCR,2024-06-10_15h13.18.054,LearnStrategy,2023.2.3,Win32,5.458515284,,,,,,,,,,,4,01,3,6,,,,,,,,,,,,,,,,,,,,,,,,,,,,,,
5c61a77464fd2100010e09f7,SCR,2024-06-10_15h13.18.054,LearnStrategy,2023.2.3,Win32,5.458515284,,,,,,,,,,,2,01,3,7,,,,,,,,,,,,,,,,,,,,,,,,,,,,,,
5c61a77464fd2100010e09f7,SCR,2024-06-10_15h13.18.054,LearnStrategy,2023.2.3,Win32,5.458515284,,,,,,,,,,,2,10,3,8,,,,,,,,,,,,,,,,,,,,,,,,,,,,,,
5c61a77464fd2100010e09f7,SCR,2024-06-10_15h13.18.054,LearnStrategy,2023.2.3,Win32,5.458515284,,,,,,,,,,,7,10,4,1,,,,,,,,,,,,,,,,,,,,,,,,,,,,,,
5c61a77464fd2100010e09f7,SCR,2024-06-10_15h13.18.054,LearnStrategy,2023.2.3,Win32,5.458515284,,,,,,,,,,,2,08,4,2,,,,,,,,,,,,,,,,,,,,,,,,,,,,,,
5c61a77464fd2100010e09f7,SCR,2024-06-10_15h13.18.054,LearnStrategy,2023.2.3,Win32,5.458515284,,,,,,,,,,,1,16,4,3,,,,,,,,,,,,,,,,,,,,,,,,,,,,,,
5c61a77464fd2100010e09f7,SCR,2024-06-10_15h13.18.054,LearnStrategy,2023.2.3,Win32,5.458515284,,,,,,,,,,,7,05,4,4,,,,,,,,,,,,,,,,,,,,,,,,,,,,,,
5c61a77464fd2100010e09f7,SCR,2024-06-10_15h13.18.054,LearnStrategy,2023.2.3,Win32,5.458515284,,,,,,,,,,,5,10,4,5,,,,,,,,,,,,,,,,,,,,,,,,,,,,,,
5c61a77464fd2100010e09f7,SCR,2024-06-10_15h13.18.054,LearnStrategy,2023.2.3,Win32,5.458515284,,,,,,,,,,,1,06,4,6,,,,,,,,,,,,,,,,,,,,,,,,,,,,,,
5c61a77464fd2100010e09f7,SCR,2024-06-10_15h13.18.054,LearnStrategy,2023.2.3,Win32,5.458515284,,,,,,,,,,,3,11,4,7,,,,,,,,,,,,,,,,,,,,,,,,,,,,,,
5c61a77464fd2100010e09f7,SCR,2024-06-10_15h13.18.054,LearnStrategy,2023.2.3,Win32,5.458515284,,,,,,,,,,,1,03,4,8,,,,,,,,,,,,,,,,,,,,,,,,,,,,,,
5c61a77464fd2100010e09f7,SCR,2024-06-10_15h13.18.054,LearnStrategy,2023.2.3,Win32,5.458515284,,,,,,,,,,,8,13,5,1,,,,,,,,,,,,,,,,,,,,,,,,,,,,,,
5c61a77464fd2100010e09f7,SCR,2024-06-10_15h13.18.054,LearnStrategy,2023.2.3,Win32,5.458515284,,,,,,,,,,,8,06,5,2,,,,,,,,,,,,,,,,,,,,,,,,,,,,,,
5c61a77464fd2100010e09f7,SCR,2024-06-10_15h13.18.054,LearnStrategy,2023.2.3,Win32,5.458515284,,,,,,,,,,,6,07,5,3,,,,,,,,,,,,,,,,,,,,,,,,,,,,,,
5c61a77464fd2100010e09f7,SCR,2024-06-10_15h13.18.054,LearnStrategy,2023.2.3,Win32,5.458515284,,,,,,,,,,,8,10,5,4,,,,,,,,,,,,,,,,,,,,,,,,,,,,,,
5c61a77464fd2100010e09f7,SCR,2024-06-10_15h13.18.054,LearnStrategy,2023.2.3,Win32,5.458515284,,,,,,,,,,,8,05,5,5,,,,,,,,,,,,,,,,,,,,,,,,,,,,,,
5c61a77464fd2100010e09f7,SCR,2024-06-10_15h13.18.054,LearnStrategy,2023.2.3,Win32,5.458515284,,,,,,,,,,,7,12,5,6,,,,,,,,,,,,,,,,,,,,,,,,,,,,,,
5c61a77464fd2100010e09f7,SCR,2024-06-10_15h13.18.054,LearnStrategy,2023.2.3,Win32,5.458515284,,,,,,,,,,,6,13,5,7,,,,,,,,,,,,,,,,,,,,,,,,,,,,,,
5c61a77464fd2100010e09f7,SCR,2024-06-10_15h13.18.054,LearnStrategy,2023.2.3,Win32,5.458515284,,,,,,,,,,,1,14,5,8,,,,,,,,,,,,,,,,,,,,,,,,,,,,,,
5c61a77464fd2100010e09f7,SCR,2024-06-10_15h13.18.054,LearnStrategy,2023.2.3,Win32,5.458515284,,,,,,,,,,,5,02,6,1,,,,,,,,,,,,,,,,,,,,,,,,,,,,,,
5c61a77464fd2100010e09f7,SCR,2024-06-10_15h13.18.054,LearnStrategy,2023.2.3,Win32,5.458515284,,,,,,,,,,,5,16,6,2,,,,,,,,,,,,,,,,,,,,,,,,,,,,,,
5c61a77464fd2100010e09f7,SCR,2024-06-10_15h13.18.054,LearnStrategy,2023.2.3,Win32,5.458515284,,,,,,,,,,,4,11,6,3,,,,,,,,,,,,,,,,,,,,,,,,,,,,,,
5c61a77464fd2100010e09f7,SCR,2024-06-10_15h13.18.054,LearnStrategy,2023.2.3,Win32,5.458515284,,,,,,,,,,,6,16,6,4,,,,,,,,,,,,,,,,,,,,,,,,,,,,,,
5c61a77464fd2100010e09f7,SCR,2024-06-10_15h13.18.054,LearnStrategy,2023.2.3,Win32,5.458515284,,,,,,,,,,,7,06,6,5,,,,,,,,,,,,,,,,,,,,,,,,,,,,,,
5c61a77464fd2100010e09f7,SCR,2024-06-10_15h13.18.054,LearnStrategy,2023.2.3,Win32,5.458515284,,,,,,,,,,,8,14,6,6,,,,,,,,,,,,,,,,,,,,,,,,,,,,,,
5c61a77464fd2100010e09f7,SCR,2024-06-10_15h13.18.054,LearnStrategy,2023.2.3,Win32,5.458515284,,,,,,,,,,,4,12,6,7,,,,,,,,,,,,,,,,,,,,,,,,,,,,,,
5c61a77464fd2100010e09f7,SCR,2024-06-10_15h13.18.054,LearnStrategy,2023.2.3,Win32,5.458515284,,,,,,,,,,,3,08,6,8,,,,,,,,,,,,,,,,,,,,,,,,,,,,,,