participant,condition,date,expName,psychopyVersion,OS,frameRate,block,phase,trial,learn_mouse_2.x,learn_mouse_2.y,learn_mouse_2.leftButton,learn_mouse_2.midButton,learn_mouse_2.rightButton,learn_mouse_2.time,learn_mouse_2.clicked_name,cat,token,row,col,t_select,cat_mouse_l.x,cat_mouse_l.y,cat_mouse_l.leftButton,cat_mouse_l.midButton,cat_mouse_l.rightButton,cat_mouse_l.time,cat_mouse_l.clicked_name,resp,t_resp,corr,train_trials.thisRepN,train_trials.thisTrialN,train_trials.thisN,train_trials.thisIndex,train_trials.ran,cat_mouse_t.x,cat_mouse_t.y,cat_mouse_t.leftButton,cat_mouse_t.midButton,cat_mouse_t.rightButton,cat_mouse_t.time,cat_mouse_t.clicked_name,test_trials.thisRepN,test_trials.thisTrialN,test_trials.thisN,test_trials.thisIndex,test_trials.ran
5c8974ef34daa70015e92daf,TCN,2024-06-10_12h19.41.001,LearnStrategy,2023.2.3,Win32,100,,,,,,,,,,,,,,,,,,,,,,,,,,,,,,,,,,,,,,,,,,
5c8974ef34daa70015e92daf,TCN,2024-06-10_12h19.41.001,LearnStrategy,2023.2.3,Win32,100,1,1,1,-0.038888889,0,1,0,0,1.374,rock_grid_rect_2,2,05,-1,-1,1.374,-0.424074074,-0.240740741,1,0,0,2.263,Andesite_rect,1,2.263,0,0,0,0,0,1,,,,,,,,,,,,
5c8974ef34daa70015e92daf,TCN,2024-06-10_12h19.41.001,LearnStrategy,2023.2.3,Win32,100,1,1,2,0.008333333,-0.000925926,1,0,0,1.629,rock_grid_rect_2,5,14,-1,-1,1.629,0.10462963,-0.262962963,1,0,0,2.303,Diorite_rect,3,2.303,0,1,0,1,0,1,,,,,,,,,,,,
5c8974ef34daa70015e92daf,TCN,2024-06-10_12h19.41.001,LearnStrategy,2023.2.3,Win32,100,1,1,3,0.162037037,0.024074074,1,0,0,1.089,rock_grid_rect_2,3,15,-1,-1,1.089,0.340740741,-0.238888889,1,0,0,0.907,Gabbro_rect,4,0.907,0,2,0,2,0,1,,,,,,,,,,,,
5c8974ef34daa70015e92daf,TCN,2024-06-10_12h19.41.001,LearnStrategy,2023.2.3,Win32,100,1,1,4,0.011111111,-0.021296296,1,0,0,1.008,rock_grid_rect_2,4,03,-1,-1,1.008,-0.4,-0.385185185,1,0,0,1.425,Obsidian_rect,5,1.425,0,3,0,3,0,1,,,,,,,,,,,,
5c8974ef34daa70015e92daf,TCN,2024-06-10_12h19.41.001,LearnStrategy,2023.2.3,Win32,100,1,1,5,-0.005555556,-0.014814815,1,0,0,0.858,rock_grid_rect_2,4,15,-1,-1,0.858,-0.074074074,-0.40462963,1,0,0,1.782,Pegmatite_rect,6,1.782,0,4,0,4,0,1,,,,,,,,,,,,
5c8974ef34daa70015e92daf,TCN,2024-06-10_12h19.41.001,LearnStrategy,2023.2.3,Win32,100,1,1,6,0.009259259,-0.019444444,1,0,0,1.088,rock_grid_rect_2,5,16,-1,-1,1.088,-0.157407407,-0.255555556,1,0,0,2.369,Basalt_rect,2,2.369,0,5,0,5,0,1,,,,,,,,,,,,
5c8974ef34daa70015e92daf,TCN,2024-06-10_12h19.41.001,LearnStrategy,2023.2.3,Win32,100,1,1,7,-0.000925926,0.011111111,1,0,0,0.88,rock_grid_rect_2,6,12,-1,-1,0.88,0.076851852,-0.386111111,1,0,0,1.376,Peridotite_rect,7,1.376,0,6,0,6,0,1,,,,,,,,,,,,
5c8974ef34daa70015e92daf,TCN,2024-06-10_12h19.41.001,LearnStrategy,2023.2.3,Win32,100,1,1,8,-0.002777778,-0.001851852,1,0,0,0.959,rock_grid_rect_2,8,16,-1,-1,0.959,0.363888889,-0.392592593,1,0,0,2.032,Pumice_rect,8,2.032,1,7,0,7,0,1,,,,,,,,,,,,
5c8974ef34daa70015e92daf,TCN,2024-06-10_12h19.41.001,LearnStrategy,2023.2.3,Win32,100,1,1,9,-0.008333333,-0.017592593,1,0,0,0.889,rock_grid_rect_2,1,04,-1,-1,0.889,0.114814815,-0.24537037,1,0,0,1.645,Diorite_rect,3,1.645,0,8,0,8,0,1,,,,,,,,,,,,
5c8974ef34daa70015e92daf,TCN,2024-06-10_12h19.41.001,LearnStrategy,2023.2.3,Win32,100,1,1,10,0.008333333,-0.012037037,1,0,0,0.798,rock_grid_rect_2,6,06,-1,-1,0.798,-0.337037037,-0.250925926,1,0,0,2.648,Andesite_rect,1,2.648,0,9,0,9,0,1,,,,,,,,,,,,
5c8974ef34daa70015e92daf,TCN,2024-06-10_12h19.41.001,LearnStrategy,2023.2.3,Win32,100,1,1,11,0.056481481,0.007407407,1,0,0,0.948,rock_grid_rect_2,7,13,-1,-1,0.948,0.094444444,-0.42037037,1,0,0,3.877,Peridotite_rect,7,3.877,1,10,0,10,0,1,,,,,,,,,,,,
5c8974ef34daa70015e92daf,TCN,2024-06-10_12h19.41.001,LearnStrategy,2023.2.3,Win32,100,1,1,12,-0.032407407,-0.002777778,1,0,0,0.748,rock_grid_rect_2,3,06,-1,-1,0.748,0.383333333,-0.268518519,1,0,0,2.634,Gabbro_rect,4,2.634,0,11,0,11,0,1,,,,,,,,,,,,
5c8974ef34daa70015e92daf,TCN,2024-06-10_12h19.41.001,LearnStrategy,2023.2.3,Win32,100,1,1,13,0,-0.017592593,1,0,0,0.77,rock_grid_rect_2,2,09,-1,-1,0.77,-0.431481481,-0.248148148,1,0,0,5.905,Andesite_rect,1,5.905,0,12,0,12,0,1,,,,,,,,,,,,
5c8974ef34daa70015e92daf,TCN,2024-06-10_12h19.41.001,LearnStrategy,2023.2.3,Win32,100,1,1,14,-0.002777778,-0.007407407,1,0,0,0.896,rock_grid_rect_2,1,16,-1,-1,0.896,0.083333333,-0.256481481,1,0,0,2.699,Diorite_rect,3,2.699,0,13,0,13,0,1,,,,,,,,,,,,
5c8974ef34daa70015e92daf,TCN,2024-06-10_12h19.41.001,LearnStrategy,2023.2.3,Win32,100,1,1,15,0.003703704,-0.025,1,0,0,0.859,rock_grid_rect_2,7,07,-1,-1,0.859,0.089814815,-0.256481481,1,0,0,2.908,Diorite_rect,3,2.908,0,14,0,14,0,1,,,,,,,,,,,,
5c8974ef34daa70015e92daf,TCN,2024-06-10_12h19.41.001,LearnStrategy,2023.2.3,Win32,100,1,1,16,0.001851852,-0.012962963,1,0,0,1.16,rock_grid_rect_2,8,10,-1,-1,1.16,0.428703704,-0.407407407,1,0,0,1.532,Pumice_rect,8,1.532,1,15,0,15,0,1,,,,,,,,,,,,
5c8974ef34daa70015e92daf,TCN,2024-06-10_12h19.41.001,LearnStrategy,2023.2.3,Win32,100,1,2,1,,,,,,,,2,14,,,,,,,,,,,5,3.416,0,,,,,,-0.400925926,-0.416666667,1,0,0,3.416,Obsidian_rect,0,0,0,0,1
5c8974ef34daa70015e92daf,TCN,2024-06-10_12h19.41.001,LearnStrategy,2023.2.3,Win32,100,1,2,2,,,,,,,,3,02,,,,,,,,,,,1,2.726,0,,,,,,-0.447222222,-0.240740741,1,0,0,2.726,Andesite_rect,1,0,1,0,1
5c8974ef34daa70015e92daf,TCN,2024-06-10_12h19.41.001,LearnStrategy,2023.2.3,Win32,100,1,2,3,,,,,,,,6,11,,,,,,,,,,,6,2.795,1,,,,,,-0.144444444,-0.39537037,1,0,0,2.795,Pegmatite_rect,2,0,2,0,1
5c8974ef34daa70015e92daf,TCN,2024-06-10_12h19.41.001,LearnStrategy,2023.2.3,Win32,100,1,2,4,,,,,,,,8,05,,,,,,,,,,,8,1.53,1,,,,,,0.325,-0.391666667,1,0,0,1.53,Pumice_rect,3,0,3,0,1
5c8974ef34daa70015e92daf,TCN,2024-06-10_12h19.41.001,LearnStrategy,2023.2.3,Win32,100,1,2,5,,,,,,,,6,07,,,,,,,,,,,7,2.364,0,,,,,,0.094444444,-0.393518519,1,0,0,2.364,Peridotite_rect,4,0,4,0,1
5c8974ef34daa70015e92daf,TCN,2024-06-10_12h19.41.001,LearnStrategy,2023.2.3,Win32,100,1,2,6,,,,,,,,4,16,,,,,,,,,,,5,3.11,0,,,,,,-0.353703704,-0.409259259,1,0,0,3.11,Obsidian_rect,5,0,5,0,1
5c8974ef34daa70015e92daf,TCN,2024-06-10_12h19.41.001,LearnStrategy,2023.2.3,Win32,100,1,2,7,,,,,,,,1,10,,,,,,,,,,,3,1.864,0,,,,,,0.126851852,-0.264814815,1,0,0,1.864,Diorite_rect,6,0,6,0,1
5c8974ef34daa70015e92daf,TCN,2024-06-10_12h19.41.001,LearnStrategy,2023.2.3,Win32,100,1,2,8,,,,,,,,8,02,,,,,,,,,,,8,1.691,1,,,,,,0.308333333,-0.387962963,1,0,0,1.691,Pumice_rect,7,0,7,0,1
5c8974ef34daa70015e92daf,TCN,2024-06-10_12h19.41.001,LearnStrategy,2023.2.3,Win32,100,1,2,9,,,,,,,,1,03,,,,,,,,,,,2,3.187,0,,,,,,-0.202777778,-0.228703704,1,0,0,3.187,Basalt_rect,8,0,8,0,1
5c8974ef34daa70015e92daf,TCN,2024-06-10_12h19.41.001,LearnStrategy,2023.2.3,Win32,100,1,2,10,,,,,,,,5,02,,,,,,,,,,,5,3.325,1,,,,,,-0.377777778,-0.396296296,1,0,0,3.325,Obsidian_rect,9,0,9,0,1
5c8974ef34daa70015e92daf,TCN,2024-06-10_12h19.41.001,LearnStrategy,2023.2.3,Win32,100,1,2,11,,,,,,,,4,12,,,,,,,,,,,2,1.668,0,,,,,,-0.134259259,-0.259259259,1,0,0,1.668,Basalt_rect,10,0,10,0,1
5c8974ef34daa70015e92daf,TCN,2024-06-10_12h19.41.001,LearnStrategy,2023.2.3,Win32,100,1,2,12,,,,,,,,7,05,,,,,,,,,,,2,1.464,0,,,,,,-0.086111111,-0.266666667,1,0,0,1.464,Basalt_rect,11,0,11,0,1
5c8974ef34daa70015e92daf,TCN,2024-06-10_12h19.41.001,LearnStrategy,2023.2.3,Win32,100,1,2,13,,,,,,,,3,10,,,,,,,,,,,3,1.714,1,,,,,,0.096296296,-0.244444444,1,0,0,1.714,Diorite_rect,12,0,12,0,1
5c8974ef34daa70015e92daf,TCN,2024-06-10_12h19.41.001,LearnStrategy,2023.2.3,Win32,100,1,2,14,,,,,,,,7,16,,,,,,,,,,,7,2.309,1,,,,,,0.080555556,-0.401851852,1,0,0,2.309,Peridotite_rect,13,0,13,0,1
5c8974ef34daa70015e92daf,TCN,2024-06-10_12h19.41.001,LearnStrategy,2023.2.3,Win32,100,1,2,15,,,,,,,,2,06,,,,,,,,,,,2,1.231,1,,,,,,-0.074074074,-0.269444444,1,0,0,1.231,Basalt_rect,14,0,14,0,1
5c8974ef34daa70015e92daf,TCN,2024-06-10_12h19.41.001,LearnStrategy,2023.2.3,Win32,100,1,2,16,,,,,,,,5,09,,,,,,,,,,,4,2.26,0,,,,,,0.425925926,-0.230555556,1,0,0,2.26,Gabbro_rect,15,0,15,0,1
5c8974ef34daa70015e92daf,TCN,2024-06-10_12h19.41.001,LearnStrategy,2023.2.3,Win32,100,2,1,1,0.028703704,-0.013888889,1,0,0,1.319,rock_grid_rect_2,8,08,-1,-1,1.319,0.357407407,-0.414814815,1,0,0,4.807,Pumice_rect,8,4.807,1,0,0,0,0,1,,,,,,,,,,,,
5c8974ef34daa70015e92daf,TCN,2024-06-10_12h19.41.001,LearnStrategy,2023.2.3,Win32,100,2,1,2,-0.071296296,0.021296296,1,0,0,1.4,rock_grid_rect_2,4,11,-1,-1,1.4,-0.101851852,-0.265740741,1,0,0,1.711,Basalt_rect,2,1.711,0,1,0,1,0,1,,,,,,,,,,,,
5c8974ef34daa70015e92daf,TCN,2024-06-10_12h19.41.001,LearnStrategy,2023.2.3,Win32,100,2,1,3,0.011111111,0.014814815,1,0,0,1.109,rock_grid_rect_2,6,09,-1,-1,1.109,-0.078703704,-0.414814815,1,0,0,2.314,Pegmatite_rect,6,2.314,1,2,0,2,0,1,,,,,,,,,,,,
5c8974ef34daa70015e92daf,TCN,2024-06-10_12h19.41.001,LearnStrategy,2023.2.3,Win32,100,2,1,4,-0.008333333,-0.014814815,1,0,0,0.69,rock_grid_rect_2,1,11,-1,-1,0.69,0.059259259,-0.242592593,1,0,0,2.046,Diorite_rect,3,2.046,0,3,0,3,0,1,,,,,,,,,,,,
5c8974ef34daa70015e92daf,TCN,2024-06-10_12h19.41.001,LearnStrategy,2023.2.3,Win32,100,2,1,5,-0.028703704,-0.005555556,1,0,0,0.785,rock_grid_rect_2,5,07,-1,-1,0.785,-0.425,-0.397222222,1,0,0,3.327,Obsidian_rect,5,3.327,1,4,0,4,0,1,,,,,,,,,,,,
5c8974ef34daa70015e92daf,TCN,2024-06-10_12h19.41.001,LearnStrategy,2023.2.3,Win32,100,2,1,6,0.024074074,0.009259259,1,0,0,0.99,rock_grid_rect_2,4,05,-1,-1,0.99,0.062962963,-0.265740741,1,0,0,1.455,Diorite_rect,3,1.455,0,5,0,5,0,1,,,,,,,,,,,,
5c8974ef34daa70015e92daf,TCN,2024-06-10_12h19.41.001,LearnStrategy,2023.2.3,Win32,100,2,1,7,-0.009259259,0.009259259,1,0,0,0.759,rock_grid_rect_2,1,05,-1,-1,0.759,-0.327777778,-0.240740741,1,0,0,2.999,Andesite_rect,1,2.999,1,6,0,6,0,1,,,,,,,,,,,,
5c8974ef34daa70015e92daf,TCN,2024-06-10_12h19.41.001,LearnStrategy,2023.2.3,Win32,100,2,1,8,0.007407407,-0.023148148,1,0,0,0.789,rock_grid_rect_2,6,16,-1,-1,0.789,0.102777778,-0.412962963,1,0,0,2.315,Peridotite_rect,7,2.315,0,7,0,7,0,1,,,,,,,,,,,,
5c8974ef34daa70015e92daf,TCN,2024-06-10_12h19.41.001,LearnStrategy,2023.2.3,Win32,100,2,1,9,0.019444444,-0.018518519,1,0,0,0.849,rock_grid_rect_2,7,06,-1,-1,0.849,0.076851852,-0.405555556,1,0,0,1.822,Peridotite_rect,7,1.822,1,8,0,8,0,1,,,,,,,,,,,,
5c8974ef34daa70015e92daf,TCN,2024-06-10_12h19.41.001,LearnStrategy,2023.2.3,Win32,100,2,1,10,0.008333333,-0.006481481,1,0,0,0.709,rock_grid_rect_2,7,10,-1,-1,0.709,0.099074074,-0.259259259,1,0,0,4.022,Diorite_rect,3,4.022,0,9,0,9,0,1,,,,,,,,,,,,
5c8974ef34daa70015e92daf,TCN,2024-06-10_12h19.41.001,LearnStrategy,2023.2.3,Win32,100,2,1,11,-0.008333333,0.010185185,1,0,0,0.769,rock_grid_rect_2,2,08,-1,-1,0.769,-0.117592593,-0.242592593,1,0,0,1.36,Basalt_rect,2,1.36,1,10,0,10,0,1,,,,,,,,,,,,
5c8974ef34daa70015e92daf,TCN,2024-06-10_12h19.41.001,LearnStrategy,2023.2.3,Win32,100,2,1,12,0.001851852,-0.002777778,1,0,0,0.731,rock_grid_rect_2,3,08,-1,-1,0.731,0.205555556,-0.236111111,1,0,0,2.901,Diorite_rect,3,2.901,1,11,0,11,0,1,,,,,,,,,,,,
5c8974ef34daa70015e92daf,TCN,2024-06-10_12h19.41.001,LearnStrategy,2023.2.3,Win32,100,2,1,13,-0.013888889,0.010185185,1,0,0,0.758,rock_grid_rect_2,2,01,-1,-1,0.758,-0.134259259,-0.242592593,1,0,0,1.25,Basalt_rect,2,1.25,1,12,0,12,0,1,,,,,,,,,,,,
5c8974ef34daa70015e92daf,TCN,2024-06-10_12h19.41.001,LearnStrategy,2023.2.3,Win32,100,2,1,14,-0.023148148,0.000925926,1,0,0,0.659,rock_grid_rect_2,3,07,-1,-1,0.659,-0.118518519,-0.387962963,1,0,0,1.547,Pegmatite_rect,6,1.547,0,13,0,13,0,1,,,,,,,,,,,,
5c8974ef34daa70015e92daf,TCN,2024-06-10_12h19.41.001,LearnStrategy,2023.2.3,Win32,100,2,1,15,0.016666667,0.005555556,1,0,0,0.679,rock_grid_rect_2,8,14,-1,-1,0.679,0.347222222,-0.412962963,1,0,0,1.481,Pumice_rect,8,1.481,1,14,0,14,0,1,,,,,,,,,,,,
5c8974ef34daa70015e92daf,TCN,2024-06-10_12h19.41.001,LearnStrategy,2023.2.3,Win32,100,2,1,16,-0.008333333,0.007407407,1,0,0,0.64,rock_grid_rect_2,5,11,-1,-1,0.64,-0.371296296,-0.380555556,1,0,0,1.487,Obsidian_rect,5,1.487,1,15,0,15,0,1,,,,,,,,,,,,
5c8974ef34daa70015e92daf,TCN,2024-06-10_12h19.41.001,LearnStrategy,2023.2.3,Win32,100,2,2,1,,,,,,,,3,11,,,,,,,,,,,3,8.138,1,,,,,,0.062962963,-0.255555556,1,0,0,8.138,Diorite_rect,0,0,0,0,1
5c8974ef34daa70015e92daf,TCN,2024-06-10_12h19.41.001,LearnStrategy,2023.2.3,Win32,100,2,2,2,,,,,,,,3,16,,,,,,,,,,,3,2.001,1,,,,,,0.139814815,-0.239814815,1,0,0,2.001,Diorite_rect,1,0,1,0,1
5c8974ef34daa70015e92daf,TCN,2024-06-10_12h19.41.001,LearnStrategy,2023.2.3,Win32,100,2,2,3,,,,,,,,6,10,,,,,,,,,,,6,2.082,1,,,,,,-0.085185185,-0.414814815,1,0,0,2.082,Pegmatite_rect,2,0,2,0,1
5c8974ef34daa70015e92daf,TCN,2024-06-10_12h19.41.001,LearnStrategy,2023.2.3,Win32,100,2,2,4,,,,,,,,4,01,,,,,,,,,,,4,2.661,1,,,,,,0.347222222,-0.255555556,1,0,0,2.661,Gabbro_rect,3,0,3,0,1
5c8974ef34daa70015e92daf,TCN,2024-06-10_12h19.41.001,LearnStrategy,2023.2.3,Win32,100,2,2,5,,,,,,,,5,04,,,,,,,,,,,5,1.168,1,,,,,,-0.369444444,-0.39537037,1,0,0,1.168,Obsidian_rect,4,0,4,0,1
5c8974ef34daa70015e92daf,TCN,2024-06-10_12h19.41.001,LearnStrategy,2023.2.3,Win32,100,2,2,6,,,,,,,,8,09,,,,,,,,,,,8,1.092,1,,,,,,0.366666667,-0.383333333,1,0,0,1.092,Pumice_rect,5,0,5,0,1
5c8974ef34daa70015e92daf,TCN,2024-06-10_12h19.41.001,LearnStrategy,2023.2.3,Win32,100,2,2,7,,,,,,,,5,06,,,,,,,,,,,5,1.155,1,,,,,,-0.492592593,-0.389814815,1,0,0,1.155,Obsidian_rect,6,0,6,0,1
5c8974ef34daa70015e92daf,TCN,2024-06-10_12h19.41.001,LearnStrategy,2023.2.3,Win32,100,2,2,8,,,,,,,,7,04,,,,,,,,,,,7,2.807,1,,,,,,0.060185185,-0.388888889,1,0,0,2.807,Peridotite_rect,7,0,7,0,1
5c8974ef34daa70015e92daf,TCN,2024-06-10_12h19.41.001,LearnStrategy,2023.2.3,Win32,100,2,2,9,,,,,,,,1,02,,,,,,,,,,,4,2.815,0,,,,,,0.337962963,-0.25462963,1,0,0,2.815,Gabbro_rect,8,0,8,0,1
5c8974ef34daa70015e92daf,TCN,2024-06-10_12h19.41.001,LearnStrategy,2023.2.3,Win32,100,2,2,10,,,,,,,,1,14,,,,,,,,,,,1,2.119,1,,,,,,-0.412962963,-0.263888889,1,0,0,2.119,Andesite_rect,9,0,9,0,1
5c8974ef34daa70015e92daf,TCN,2024-06-10_12h19.41.001,LearnStrategy,2023.2.3,Win32,100,2,2,11,,,,,,,,4,14,,,,,,,,,,,4,3.013,1,,,,,,0.308333333,-0.234259259,1,0,0,3.013,Gabbro_rect,10,0,10,0,1
5c8974ef34daa70015e92daf,TCN,2024-06-10_12h19.41.001,LearnStrategy,2023.2.3,Win32,100,2,2,12,,,,,,,,7,14,,,,,,,,,,,6,4.901,0,,,,,,-0.178703704,-0.42037037,1,0,0,4.901,Pegmatite_rect,11,0,11,0,1
5c8974ef34daa70015e92daf,TCN,2024-06-10_12h19.41.001,LearnStrategy,2023.2.3,Win32,100,2,2,13,,,,,,,,8,04,,,,,,,,,,,8,1.304,1,,,,,,0.303703704,-0.392592593,1,0,0,1.304,Pumice_rect,12,0,12,0,1
5c8974ef34daa70015e92daf,TCN,2024-06-10_12h19.41.001,LearnStrategy,2023.2.3,Win32,100,2,2,14,,,,,,,,2,10,,,,,,,,,,,5,1.7,0,,,,,,-0.375,-0.37962963,1,0,0,1.7,Obsidian_rect,13,0,13,0,1
5c8974ef34daa70015e92daf,TCN,2024-06-10_12h19.41.001,LearnStrategy,2023.2.3,Win32,100,2,2,15,,,,,,,,6,15,,,,,,,,,,,7,3.507,0,,,,,,0.058333333,-0.408333333,1,0,0,3.507,Peridotite_rect,14,0,14,0,1
5c8974ef34daa70015e92daf,TCN,2024-06-10_12h19.41.001,LearnStrategy,2023.2.3,Win32,100,2,2,16,,,,,,,,2,12,,,,,,,,,,,1,3.764,0,,,,,,-0.337037037,-0.247222222,1,0,0,3.764,Andesite_rect,15,0,15,0,1
5c8974ef34daa70015e92daf,TCN,2024-06-10_12h19.41.001,LearnStrategy,2023.2.3,Win32,100,3,1,1,-0.023148148,-0.003703704,1,0,0,1.139,rock_grid_rect_2,1,06,-1,-1,1.139,-0.407407407,-0.269444444,1,0,0,1.569,Andesite_rect,1,1.569,1,0,0,0,0,1,,,,,,,,,,,,
5c8974ef34daa70015e92daf,TCN,2024-06-10_12h19.41.001,LearnStrategy,2023.2.3,Win32,100,3,1,2,0.002777778,0.006481481,1,0,0,0.909,rock_grid_rect_2,7,02,-1,-1,0.909,-0.096296296,-0.419444444,1,0,0,3.844,Pegmatite_rect,6,3.844,0,1,0,1,0,1,,,,,,,,,,,,
5c8974ef34daa70015e92daf,TCN,2024-06-10_12h19.41.001,LearnStrategy,2023.2.3,Win32,100,3,1,3,0.015740741,-0.005555556,1,0,0,0.769,rock_grid_rect_2,4,10,-1,-1,0.769,0.322222222,-0.248148148,1,0,0,3.517,Gabbro_rect,4,3.517,1,2,0,2,0,1,,,,,,,,,,,,
5c8974ef34daa70015e92daf,TCN,2024-06-10_12h19.41.001,LearnStrategy,2023.2.3,Win32,100,3,1,4,-0.000925926,-0.007407407,1,0,0,0.76,rock_grid_rect_2,3,13,-1,-1,0.76,0.073148148,-0.238888889,1,0,0,1.637,Diorite_rect,3,1.637,1,3,0,3,0,1,,,,,,,,,,,,
5c8974ef34daa70015e92daf,TCN,2024-06-10_12h19.41.001,LearnStrategy,2023.2.3,Win32,100,3,1,5,-0.010185185,-0.003703704,1,0,0,0.698,rock_grid_rect_2,5,08,-1,-1,0.698,-0.35462963,-0.401851852,1,0,0,1.624,Obsidian_rect,5,1.624,1,4,0,4,0,1,,,,,,,,,,,,
5c8974ef34daa70015e92daf,TCN,2024-06-10_12h19.41.001,LearnStrategy,2023.2.3,Win32,100,3,1,6,0.012962963,-0.023148148,1,0,0,0.669,rock_grid_rect_2,5,05,-1,-1,0.669,-0.369444444,-0.388888889,1,0,0,5.02,Obsidian_rect,5,5.02,1,5,0,5,0,1,,,,,,,,,,,,
5c8974ef34daa70015e92daf,TCN,2024-06-10_12h19.41.001,LearnStrategy,2023.2.3,Win32,100,3,1,7,0.016666667,-0.002777778,1,0,0,0.76,rock_grid_rect_2,1,01,-1,-1,0.76,-0.147222222,-0.385185185,1,0,0,4.921,Pegmatite_rect,6,4.921,0,6,0,6,0,1,,,,,,,,,,,,
5c8974ef34daa70015e92daf,TCN,2024-06-10_12h19.41.001,LearnStrategy,2023.2.3,Win32,100,3,1,8,0.023148148,0,1,0,0,0.64,rock_grid_rect_2,2,11,-1,-1,0.64,-0.12962963,-0.250925926,1,0,0,1.602,Basalt_rect,2,1.602,1,7,0,7,0,1,,,,,,,,,,,,
5c8974ef34daa70015e92daf,TCN,2024-06-10_12h19.41.001,LearnStrategy,2023.2.3,Win32,100,3,1,9,-0.002777778,0.016666667,1,0,0,0.599,rock_grid_rect_2,7,12,-1,-1,0.599,0.042592593,-0.389814815,1,0,0,2.799,Peridotite_rect,7,2.799,1,8,0,8,0,1,,,,,,,,,,,,
5c8974ef34daa70015e92daf,TCN,2024-06-10_12h19.41.001,LearnStrategy,2023.2.3,Win32,100,3,1,10,-0.009259259,-0.005555556,1,0,0,0.579,rock_grid_rect_2,6,13,-1,-1,0.579,-0.123148148,-0.393518519,1,0,0,2.139,Pegmatite_rect,6,2.139,1,9,0,9,0,1,,,,,,,,,,,,
5c8974ef34daa70015e92daf,TCN,2024-06-10_12h19.41.001,LearnStrategy,2023.2.3,Win32,100,3,1,11,0.003703704,0.012037037,1,0,0,0.578,rock_grid_rect_2,4,08,-1,-1,0.578,-0.407407407,-0.24537037,1,0,0,2.228,Andesite_rect,1,2.228,0,10,0,10,0,1,,,,,,,,,,,,
5c8974ef34daa70015e92daf,TCN,2024-06-10_12h19.41.001,LearnStrategy,2023.2.3,Win32,100,3,1,12,0.005555556,-0.012962963,1,0,0,0.679,rock_grid_rect_2,3,14,-1,-1,0.679,0.059259259,-0.251851852,1,0,0,2.112,Diorite_rect,3,2.112,1,11,0,11,0,1,,,,,,,,,,,,
5c8974ef34daa70015e92daf,TCN,2024-06-10_12h19.41.001,LearnStrategy,2023.2.3,Win32,100,3,1,13,0.00462963,-0.013888889,1,0,0,0.719,rock_grid_rect_2,8,15,-1,-1,0.719,0.312037037,-0.393518519,1,0,0,1.793,Pumice_rect,8,1.793,1,12,0,12,0,1,,,,,,,,,,,,
5c8974ef34daa70015e92daf,TCN,2024-06-10_12h19.41.001,LearnStrategy,2023.2.3,Win32,100,3,1,14,-0.022222222,-0.007407407,1,0,0,0.698,rock_grid_rect_2,6,08,-1,-1,0.698,-0.074074074,-0.400925926,1,0,0,1.428,Pegmatite_rect,6,1.428,1,13,0,13,0,1,,,,,,,,,,,,
5c8974ef34daa70015e92daf,TCN,2024-06-10_12h19.41.001,LearnStrategy,2023.2.3,Win32,100,3,1,15,0.012962963,-0.012962963,1,0,0,0.929,rock_grid_rect_2,8,03,-1,-1,0.929,0.40462963,-0.411111111,1,0,0,1.986,Pumice_rect,8,1.986,1,14,0,14,0,1,,,,,,,,,,,,
5c8974ef34daa70015e92daf,TCN,2024-06-10_12h19.41.001,LearnStrategy,2023.2.3,Win32,100,3,1,16,-0.005555556,-0.002777778,1,0,0,0.854,rock_grid_rect_2,2,16,-1,-1,0.854,-0.091666667,-0.251851852,1,0,0,2.63,Basalt_rect,2,2.63,1,15,0,15,0,1,,,,,,,,,,,,
5c8974ef34daa70015e92daf,TCN,2024-06-10_12h19.41.001,LearnStrategy,2023.2.3,Win32,100,3,2,1,,,,,,,,4,13,,,,,,,,,,,6,5.527,0,,,,,,-0.10462963,-0.415740741,1,0,0,5.527,Pegmatite_rect,0,0,0,0,1
5c8974ef34daa70015e92daf,TCN,2024-06-10_12h19.41.001,LearnStrategy,2023.2.3,Win32,100,3,2,2,,,,,,,,2,02,,,,,,,,,,,2,1.185,1,,,,,,-0.125,-0.258333333,1,0,0,1.185,Basalt_rect,1,0,1,0,1
5c8974ef34daa70015e92daf,TCN,2024-06-10_12h19.41.001,LearnStrategy,2023.2.3,Win32,100,3,2,3,,,,,,,,1,09,,,,,,,,,,,2,0.797,0,,,,,,-0.125,-0.258333333,1,0,0,0.797,Basalt_rect,2,0,2,0,1
5c8974ef34daa70015e92daf,TCN,2024-06-10_12h19.41.001,LearnStrategy,2023.2.3,Win32,100,3,2,4,,,,,,,,2,04,,,,,,,,,,,2,1.416,1,,,,,,-0.125,-0.258333333,1,0,0,1.416,Basalt_rect,3,0,3,0,1
5c8974ef34daa70015e92daf,TCN,2024-06-10_12h19.41.001,LearnStrategy,2023.2.3,Win32,100,3,2,5,,,,,,,,8,06,,,,,,,,,,,8,1.142,1,,,,,,0.311111111,-0.416666667,1,0,0,1.142,Pumice_rect,4,0,4,0,1
5c8974ef34daa70015e92daf,TCN,2024-06-10_12h19.41.001,LearnStrategy,2023.2.3,Win32,100,3,2,6,,,,,,,,7,15,,,,,,,,,,,7,1.181,1,,,,,,0.164814815,-0.407407407,1,0,0,1.181,Peridotite_rect,5,0,5,0,1
5c8974ef34daa70015e92daf,TCN,2024-06-10_12h19.41.001,LearnStrategy,2023.2.3,Win32,100,3,2,7,,,,,,,,6,03,,,,,,,,,,,6,1.99,1,,,,,,-0.100925926,-0.398148148,1,0,0,1.99,Pegmatite_rect,6,0,6,0,1
5c8974ef34daa70015e92daf,TCN,2024-06-10_12h19.41.001,LearnStrategy,2023.2.3,Win32,100,3,2,8,,,,,,,,1,07,,,,,,,,,,,3,1.263,0,,,,,,0.088888889,-0.252777778,1,0,0,1.263,Diorite_rect,7,0,7,0,1
5c8974ef34daa70015e92daf,TCN,2024-06-10_12h19.41.001,LearnStrategy,2023.2.3,Win32,100,3,2,9,,,,,,,,4,09,,,,,,,,,,,3,1.653,0,,,,,,0.065740741,-0.256481481,1,0,0,1.653,Diorite_rect,8,0,8,0,1
5c8974ef34daa70015e92daf,TCN,2024-06-10_12h19.41.001,LearnStrategy,2023.2.3,Win32,100,3,2,10,,,,,,,,6,05,,,,,,,,,,,6,2.012,1,,,,,,-0.110185185,-0.382407407,1,0,0,2.012,Pegmatite_rect,9,0,9,0,1
5c8974ef34daa70015e92daf,TCN,2024-06-10_12h19.41.001,LearnStrategy,2023.2.3,Win32,100,3,2,11,,,,,,,,7,08,,,,,,,,,,,3,3.822,0,,,,,,0.177777778,-0.25,1,0,0,3.822,Diorite_rect,10,0,10,0,1
5c8974ef34daa70015e92daf,TCN,2024-06-10_12h19.41.001,LearnStrategy,2023.2.3,Win32,100,3,2,12,,,,,,,,5,12,,,,,,,,,,,5,1.113,1,,,,,,-0.400925926,-0.380555556,1,0,0,1.113,Obsidian_rect,11,0,11,0,1
5c8974ef34daa70015e92daf,TCN,2024-06-10_12h19.41.001,LearnStrategy,2023.2.3,Win32,100,3,2,13,,,,,,,,3,12,,,,,,,,,,,6,4.331,0,,,,,,-0.050925926,-0.406481481,1,0,0,4.331,Pegmatite_rect,12,0,12,0,1
5c8974ef34daa70015e92daf,TCN,2024-06-10_12h19.41.001,LearnStrategy,2023.2.3,Win32,100,3,2,14,,,,,,,,5,10,,,,,,,,,,,5,1.085,1,,,,,,-0.322222222,-0.42037037,1,0,0,1.085,Obsidian_rect,13,0,13,0,1
5c8974ef34daa70015e92daf,TCN,2024-06-10_12h19.41.001,LearnStrategy,2023.2.3,Win32,100,3,2,15,,,,,,,,3,09,,,,,,,,,,,4,2.023,0,,,,,,0.318518519,-0.240740741,1,0,0,2.023,Gabbro_rect,14,0,14,0,1
5c8974ef34daa70015e92daf,TCN,2024-06-10_12h19.41.001,LearnStrategy,2023.2.3,Win32,100,3,2,16,,,,,,,,8,13,,,,,,,,,,,8,1.296,1,,,,,,0.3,-0.391666667,1,0,0,1.296,Pumice_rect,15,0,15,0,1
5c8974ef34daa70015e92daf,TCN,2024-06-10_12h19.41.001,LearnStrategy,2023.2.3,Win32,100,4,1,1,-0.009259259,-0.006481481,1,0,0,1.479,rock_grid_rect_2,1,16,-1,-1,1.479,-0.390740741,-0.240740741,1,0,0,4.171,Andesite_rect,1,4.171,1,0,0,0,0,1,,,,,,,,,,,,
5c8974ef34daa70015e92daf,TCN,2024-06-10_12h19.41.001,LearnStrategy,2023.2.3,Win32,100,4,1,2,-0.006481481,-0.000925926,1,0,0,0.999,rock_grid_rect_2,5,07,-1,-1,0.999,-0.362962963,-0.390740741,1,0,0,1.033,Obsidian_rect,5,1.033,1,1,0,1,0,1,,,,,,,,,,,,
5c8974ef34daa70015e92daf,TCN,2024-06-10_12h19.41.001,LearnStrategy,2023.2.3,Win32,100,4,1,3,-0.012962963,-0.018518519,1,0,0,1.34,rock_grid_rect_2,3,08,-1,-1,1.34,0.094444444,-0.259259259,1,0,0,1.374,Diorite_rect,3,1.374,1,2,0,2,0,1,,,,,,,,,,,,
5c8974ef34daa70015e92daf,TCN,2024-06-10_12h19.41.001,LearnStrategy,2023.2.3,Win32,100,4,1,4,0.000925926,0.00462963,1,0,0,0.769,rock_grid_rect_2,1,11,-1,-1,0.769,-0.09537037,-0.265740741,1,0,0,1.382,Basalt_rect,2,1.382,0,3,0,3,0,1,,,,,,,,,,,,
5c8974ef34daa70015e92daf,TCN,2024-06-10_12h19.41.001,LearnStrategy,2023.2.3,Win32,100,4,1,5,-0.000925926,0.011111111,1,0,0,0.809,rock_grid_rect_2,3,15,-1,-1,0.809,0.4,-0.261111111,1,0,0,2.462,Gabbro_rect,4,2.462,0,4,0,4,0,1,,,,,,,,,,,,
5c8974ef34daa70015e92daf,TCN,2024-06-10_12h19.41.001,LearnStrategy,2023.2.3,Win32,100,4,1,6,-0.011111111,0.000925926,1,0,0,0.85,rock_grid_rect_2,2,11,-1,-1,0.85,-0.125925926,-0.261111111,1,0,0,1.16,Basalt_rect,2,1.16,1,5,0,5,0,1,,,,,,,,,,,,
5c8974ef34daa70015e92daf,TCN,2024-06-10_12h19.41.001,LearnStrategy,2023.2.3,Win32,100,4,1,7,-0.00462963,-0.007407407,1,0,0,0.789,rock_grid_rect_2,7,10,-1,-1,0.789,-0.086111111,-0.4,1,0,0,1.822,Pegmatite_rect,6,1.822,0,6,0,6,0,1,,,,,,,,,,,,
5c8974ef34daa70015e92daf,TCN,2024-06-10_12h19.41.001,LearnStrategy,2023.2.3,Win32,100,4,1,8,0.002777778,-0.002777778,1,0,0,0.596,rock_grid_rect_2,5,14,-1,-1,0.596,-0.390740741,-0.407407407,1,0,0,1.137,Obsidian_rect,5,1.137,1,7,0,7,0,1,,,,,,,,,,,,
5c8974ef34daa70015e92daf,TCN,2024-06-10_12h19.41.001,LearnStrategy,2023.2.3,Win32,100,4,1,9,0.026851852,0.005555556,1,0,0,0.549,rock_grid_rect_2,7,13,-1,-1,0.549,-0.1,-0.397222222,1,0,0,2.495,Pegmatite_rect,6,2.495,0,8,0,8,0,1,,,,,,,,,,,,
5c8974ef34daa70015e92daf,TCN,2024-06-10_12h19.41.001,LearnStrategy,2023.2.3,Win32,100,4,1,10,-0.012962963,-0.001851852,1,0,0,0.828,rock_grid_rect_2,4,15,-1,-1,0.828,0.15,-0.251851852,1,0,0,3.128,Diorite_rect,3,3.128,0,9,0,9,0,1,,,,,,,,,,,,
5c8974ef34daa70015e92daf,TCN,2024-06-10_12h19.41.001,LearnStrategy,2023.2.3,Win32,100,4,1,11,0.00462963,-0.010185185,1,0,0,0.659,rock_grid_rect_2,8,08,-1,-1,0.659,0.353703704,-0.402777778,1,0,0,1.053,Pumice_rect,8,1.053,1,10,0,10,0,1,,,,,,,,,,,,
5c8974ef34daa70015e92daf,TCN,2024-06-10_12h19.41.001,LearnStrategy,2023.2.3,Win32,100,4,1,12,-0.019444444,-0.001851852,1,0,0,0.628,rock_grid_rect_2,6,16,-1,-1,0.628,0.096296296,-0.410185185,1,0,0,6.562,Peridotite_rect,7,6.562,0,11,0,11,0,1,,,,,,,,,,,,
5c8974ef34daa70015e92daf,TCN,2024-06-10_12h19.41.001,LearnStrategy,2023.2.3,Win32,100,4,1,13,0.014814815,-0.007407407,1,0,0,0.608,rock_grid_rect_2,2,09,-1,-1,0.608,-0.133333333,-0.239814815,1,0,0,1.108,Basalt_rect,2,1.108,1,12,0,12,0,1,,,,,,,,,,,,
5c8974ef34daa70015e92daf,TCN,2024-06-10_12h19.41.001,LearnStrategy,2023.2.3,Win32,100,4,1,14,0.037962963,0.006481481,1,0,0,0.69,rock_grid_rect_2,6,06,-1,-1,0.69,0.053703704,-0.40462963,1,0,0,5.136,Peridotite_rect,7,5.136,0,13,0,13,0,1,,,,,,,,,,,,
5c8974ef34daa70015e92daf,TCN,2024-06-10_12h19.41.001,LearnStrategy,2023.2.3,Win32,100,4,1,15,0.044444444,-0.001851852,1,0,0,0.719,rock_grid_rect_2,4,03,-1,-1,0.719,0.066666667,-0.271296296,1,0,0,2.944,Diorite_rect,3,2.944,0,14,0,14,0,1,,,,,,,,,,,,
5c8974ef34daa70015e92daf,TCN,2024-06-10_12h19.41.001,LearnStrategy,2023.2.3,Win32,100,4,1,16,-0.016666667,0.008333333,1,0,0,0.619,rock_grid_rect_2,8,15,-1,-1,0.619,0.309259259,-0.400925926,1,0,0,1.184,Pumice_rect,8,1.184,1,15,0,15,0,1,,,,,,,,,,,,
5c8974ef34daa70015e92daf,TCN,2024-06-10_12h19.41.001,LearnStrategy,2023.2.3,Win32,100,4,2,1,,,,,,,,4,12,,,,,,,,,,,2,2.537,0,,,,,,-0.121296296,-0.231481481,1,0,0,2.537,Basalt_rect,0,0,0,0,1
5c8974ef34daa70015e92daf,TCN,2024-06-10_12h19.41.001,LearnStrategy,2023.2.3,Win32,100,4,2,2,,,,,,,,8,04,,,,,,,,,,,8,1.264,1,,,,,,0.34537037,-0.386111111,1,0,0,1.264,Pumice_rect,1,0,1,0,1
5c8974ef34daa70015e92daf,TCN,2024-06-10_12h19.41.001,LearnStrategy,2023.2.3,Win32,100,4,2,3,,,,,,,,8,05,,,,,,,,,,,8,0.985,1,,,,,,0.344444444,-0.385185185,1,0,0,0.985,Pumice_rect,2,0,2,0,1
5c8974ef34daa70015e92daf,TCN,2024-06-10_12h19.41.001,LearnStrategy,2023.2.3,Win32,100,4,2,4,,,,,,,,4,01,,,,,,,,,,,1,1.881,0,,,,,,-0.449074074,-0.22962963,1,0,0,1.881,Andesite_rect,3,0,3,0,1
5c8974ef34daa70015e92daf,TCN,2024-06-10_12h19.41.001,LearnStrategy,2023.2.3,Win32,100,4,2,5,,,,,,,,1,02,,,,,,,,,,,3,3.573,0,,,,,,0.077777778,-0.25,1,0,0,3.573,Diorite_rect,4,0,4,0,1
5c8974ef34daa70015e92daf,TCN,2024-06-10_12h19.41.001,LearnStrategy,2023.2.3,Win32,100,4,2,6,,,,,,,,6,10,,,,,,,,,,,6,1.228,1,,,,,,-0.12962963,-0.413888889,1,0,0,1.228,Pegmatite_rect,5,0,5,0,1
5c8974ef34daa70015e92daf,TCN,2024-06-10_12h19.41.001,LearnStrategy,2023.2.3,Win32,100,4,2,7,,,,,,,,5,02,,,,,,,,,,,5,1.161,1,,,,,,-0.337037037,-0.415740741,1,0,0,1.161,Obsidian_rect,6,0,6,0,1
5c8974ef34daa70015e92daf,TCN,2024-06-10_12h19.41.001,LearnStrategy,2023.2.3,Win32,100,4,2,8,,,,,,,,2,06,,,,,,,,,,,2,1.033,1,,,,,,-0.102777778,-0.253703704,1,0,0,1.033,Basalt_rect,7,0,7,0,1
5c8974ef34daa70015e92daf,TCN,2024-06-10_12h19.41.001,LearnStrategy,2023.2.3,Win32,100,4,2,9,,,,,,,,5,06,,,,,,,,,,,5,1.05,1,,,,,,-0.328703704,-0.401851852,1,0,0,1.05,Obsidian_rect,8,0,8,0,1
5c8974ef34daa70015e92daf,TCN,2024-06-10_12h19.41.001,LearnStrategy,2023.2.3,Win32,100,4,2,10,,,,,,,,6,15,,,,,,,,,,,7,2.912,0,,,,,,0.058333333,-0.412037037,1,0,0,2.912,Peridotite_rect,9,0,9,0,1
5c8974ef34daa70015e92daf,TCN,2024-06-10_12h19.41.001,LearnStrategy,2023.2.3,Win32,100,4,2,11,,,,,,,,1,14,,,,,,,,,,,1,1.162,1,,,,,,-0.349074074,-0.258333333,1,0,0,1.162,Andesite_rect,10,0,10,0,1
5c8974ef34daa70015e92daf,TCN,2024-06-10_12h19.41.001,LearnStrategy,2023.2.3,Win32,100,4,2,12,,,,,,,,7,14,,,,,,,,,,,6,2.756,0,,,,,,-0.085185185,-0.407407407,1,0,0,2.756,Pegmatite_rect,11,0,11,0,1
5c8974ef34daa70015e92daf,TCN,2024-06-10_12h19.41.001,LearnStrategy,2023.2.3,Win32,100,4,2,13,,,,,,,,7,04,,,,,,,,,,,7,2.659,1,,,,,,0.037962963,-0.388888889,1,0,0,2.659,Peridotite_rect,12,0,12,0,1
5c8974ef34daa70015e92daf,TCN,2024-06-10_12h19.41.001,LearnStrategy,2023.2.3,Win32,100,4,2,14,,,,,,,,3,02,,,,,,,,,,,3,1.68,1,,,,,,0.087037037,-0.240740741,1,0,0,1.68,Diorite_rect,13,0,13,0,1
5c8974ef34daa70015e92daf,TCN,2024-06-10_12h19.41.001,LearnStrategy,2023.2.3,Win32,100,4,2,15,,,,,,,,3,11,,,,,,,,,,,4,2.484,0,,,,,,0.346296296,-0.237037037,1,0,0,2.484,Gabbro_rect,14,0,14,0,1
5c8974ef34daa70015e92daf,TCN,2024-06-10_12h19.41.001,LearnStrategy,2023.2.3,Win32,100,4,2,16,,,,,,,,2,04,,,,,,,,,,,2,0.979,1,,,,,,-0.108333333,-0.257407407,1,0,0,0.979,Basalt_rect,15,0,15,0,1
5c8974ef34daa70015e92daf,TCN,2024-06-10_12h19.41.001,LearnStrategy,2023.2.3,Win32,100,5,1,1,0.00462963,0.023148148,1,0,0,1.12,rock_grid_rect_2,3,06,-1,-1,1.12,0.173148148,-0.27037037,1,0,0,2.749,Diorite_rect,3,2.749,1,0,0,0,0,1,,,,,,,,,,,,
5c8974ef34daa70015e92daf,TCN,2024-06-10_12h19.41.001,LearnStrategy,2023.2.3,Win32,100,5,1,2,0.025,-0.02037037,1,0,0,1.038,rock_grid_rect_2,6,08,-1,-1,1.038,-0.133333333,-0.403703704,1,0,0,4.095,Pegmatite_rect,6,4.095,1,1,0,1,0,1,,,,,,,,,,,,
5c8974ef34daa70015e92daf,TCN,2024-06-10_12h19.41.001,LearnStrategy,2023.2.3,Win32,100,5,1,3,0.021296296,-0.016666667,1,0,0,0.72,rock_grid_rect_2,4,11,-1,-1,0.72,-0.15,-0.237962963,1,0,0,1.117,Basalt_rect,2,1.117,0,2,0,2,0,1,,,,,,,,,,,,
5c8974ef34daa70015e92daf,TCN,2024-06-10_12h19.41.001,LearnStrategy,2023.2.3,Win32,100,5,1,4,0.010185185,-0.021296296,1,0,0,0.759,rock_grid_rect_2,6,13,-1,-1,0.759,0.09537037,-0.400925926,1,0,0,1.536,Peridotite_rect,7,1.536,0,3,0,3,0,1,,,,,,,,,,,,
5c8974ef34daa70015e92daf,TCN,2024-06-10_12h19.41.001,LearnStrategy,2023.2.3,Win32,100,5,1,5,-0.00462963,-0.011111111,1,0,0,0.681,rock_grid_rect_2,8,14,-1,-1,0.681,0.321296296,-0.396296296,1,0,0,1.12,Pumice_rect,8,1.12,1,4,0,4,0,1,,,,,,,,,,,,
5c8974ef34daa70015e92daf,TCN,2024-06-10_12h19.41.001,LearnStrategy,2023.2.3,Win32,100,5,1,6,0.006481481,-0.001851852,1,0,0,1.069,rock_grid_rect_2,5,08,-1,-1,1.069,-0.364814815,-0.394444444,1,0,0,1.094,Obsidian_rect,5,1.094,1,5,0,5,0,1,,,,,,,,,,,,
5c8974ef34daa70015e92daf,TCN,2024-06-10_12h19.41.001,LearnStrategy,2023.2.3,Win32,100,5,1,7,0.015740741,-0.005555556,1,0,0,0.999,rock_grid_rect_2,3,14,-1,-1,0.999,0.07962963,-0.391666667,1,0,0,3.189,Peridotite_rect,7,3.189,0,6,0,6,0,1,,,,,,,,,,,,
5c8974ef34daa70015e92daf,TCN,2024-06-10_12h19.41.001,LearnStrategy,2023.2.3,Win32,100,5,1,8,0.052777778,-0.005555556,1,0,0,1.469,rock_grid_rect_2,1,01,-1,-1,1.469,0.316666667,-0.253703704,1,0,0,3.198,Gabbro_rect,4,3.198,0,7,0,7,0,1,,,,,,,,,,,,
5c8974ef34daa70015e92daf,TCN,2024-06-10_12h19.41.001,LearnStrategy,2023.2.3,Win32,100,5,1,9,0.008333333,-0.003703704,1,0,0,0.649,rock_grid_rect_2,7,02,-1,-1,0.649,0.096296296,-0.261111111,1,0,0,1.131,Diorite_rect,3,1.131,0,8,0,8,0,1,,,,,,,,,,,,
5c8974ef34daa70015e92daf,TCN,2024-06-10_12h19.41.001,LearnStrategy,2023.2.3,Win32,100,5,1,10,0.036111111,-0.000925926,1,0,0,0.729,rock_grid_rect_2,5,11,-1,-1,0.729,-0.406481481,-0.37962963,1,0,0,1.313,Obsidian_rect,5,1.313,1,9,0,9,0,1,,,,,,,,,,,,
5c8974ef34daa70015e92daf,TCN,2024-06-10_12h19.41.001,LearnStrategy,2023.2.3,Win32,100,5,1,11,0.043518519,-0.010185185,1,0,0,1.049,rock_grid_rect_2,2,01,-1,-1,1.049,-0.182407407,-0.24537037,1,0,0,2.589,Basalt_rect,2,2.589,1,10,0,10,0,1,,,,,,,,,,,,
5c8974ef34daa70015e92daf,TCN,2024-06-10_12h19.41.001,LearnStrategy,2023.2.3,Win32,100,5,1,12,0.058333333,-0.011111111,1,0,0,0.616,rock_grid_rect_2,1,04,-1,-1,0.616,0.32037037,-0.240740741,1,0,0,2.424,Gabbro_rect,4,2.424,0,11,0,11,0,1,,,,,,,,,,,,
5c8974ef34daa70015e92daf,TCN,2024-06-10_12h19.41.001,LearnStrategy,2023.2.3,Win32,100,5,1,13,-0.009259259,0.000925926,1,0,0,0.669,rock_grid_rect_2,8,03,-1,-1,0.669,0.334259259,-0.388888889,1,0,0,1.1,Pumice_rect,8,1.1,1,12,0,12,0,1,,,,,,,,,,,,
5c8974ef34daa70015e92daf,TCN,2024-06-10_12h19.41.001,LearnStrategy,2023.2.3,Win32,100,5,1,14,0.005555556,-0.009259259,1,0,0,0.709,rock_grid_rect_2,4,08,-1,-1,0.709,0.372222222,-0.255555556,1,0,0,1.824,Gabbro_rect,4,1.824,1,13,0,13,0,1,,,,,,,,,,,,
5c8974ef34daa70015e92daf,TCN,2024-06-10_12h19.41.001,LearnStrategy,2023.2.3,Win32,100,5,1,15,0.002777778,-0.013888889,1,0,0,0.649,rock_grid_rect_2,2,08,-1,-1,0.649,-0.158333333,-0.241666667,1,0,0,1.033,Basalt_rect,2,1.033,1,14,0,14,0,1,,,,,,,,,,,,
5c8974ef34daa70015e92daf,TCN,2024-06-10_12h19.41.001,LearnStrategy,2023.2.3,Win32,100,5,1,16,0.013888889,-0.00462963,1,0,0,0.679,rock_grid_rect_2,7,06,-1,-1,0.679,0.071296296,-0.407407407,1,0,0,1.827,Peridotite_rect,7,1.827,1,15,0,15,0,1,,,,,,,,,,,,
5c8974ef34daa70015e92daf,TCN,2024-06-10_12h19.41.001,LearnStrategy,2023.2.3,Win32,100,5,2,1,,,,,,,,1,10,,,,,,,,,,,1,2.203,1,,,,,,-0.403703704,-0.238888889,1,0,0,2.203,Andesite_rect,0,0,0,0,1
5c8974ef34daa70015e92daf,TCN,2024-06-10_12h19.41.001,LearnStrategy,2023.2.3,Win32,100,5,2,2,,,,,,,,7,16,,,,,,,,,,,6,3.748,0,,,,,,-0.073148148,-0.396296296,1,0,0,3.748,Pegmatite_rect,1,0,1,0,1
5c8974ef34daa70015e92daf,TCN,2024-06-10_12h19.41.001,LearnStrategy,2023.2.3,Win32,100,5,2,3,,,,,,,,6,05,,,,,,,,,,,7,1.638,0,,,,,,0.099074074,-0.378703704,1,0,0,1.638,Peridotite_rect,2,0,2,0,1
5c8974ef34daa70015e92daf,TCN,2024-06-10_12h19.41.001,LearnStrategy,2023.2.3,Win32,100,5,2,4,,,,,,,,5,10,,,,,,,,,,,5,1.114,1,,,,,,-0.373148148,-0.393518519,1,0,0,1.114,Obsidian_rect,3,0,3,0,1
5c8974ef34daa70015e92daf,TCN,2024-06-10_12h19.41.001,LearnStrategy,2023.2.3,Win32,100,5,2,5,,,,,,,,7,08,,,,,,,,,,,7,3.979,1,,,,,,0.056481481,-0.382407407,1,0,0,3.979,Peridotite_rect,4,0,4,0,1
5c8974ef34daa70015e92daf,TCN,2024-06-10_12h19.41.001,LearnStrategy,2023.2.3,Win32,100,5,2,6,,,,,,,,2,02,,,,,,,,,,,2,5.132,1,,,,,,-0.133333333,-0.260185185,1,0,0,5.132,Basalt_rect,5,0,5,0,1
5c8974ef34daa70015e92daf,TCN,2024-06-10_12h19.41.001,LearnStrategy,2023.2.3,Win32,100,5,2,7,,,,,,,,4,13,,,,,,,,,,,4,7.837,1,,,,,,0.363888889,-0.247222222,1,0,0,7.837,Gabbro_rect,6,0,6,0,1
5c8974ef34daa70015e92daf,TCN,2024-06-10_12h19.41.001,LearnStrategy,2023.2.3,Win32,100,5,2,8,,,,,,,,3,16,,,,,,,,,,,3,1.584,1,,,,,,0.091666667,-0.237962963,1,0,0,1.584,Diorite_rect,7,0,7,0,1
5c8974ef34daa70015e92daf,TCN,2024-06-10_12h19.41.001,LearnStrategy,2023.2.3,Win32,100,5,2,9,,,,,,,,3,12,,,,,,,,,,,7,2.142,0,,,,,,0.160185185,-0.39537037,1,0,0,2.142,Peridotite_rect,8,0,8,0,1
5c8974ef34daa70015e92daf,TCN,2024-06-10_12h19.41.001,LearnStrategy,2023.2.3,Win32,100,5,2,10,,,,,,,,8,13,,,,,,,,,,,8,1.521,1,,,,,,0.321296296,-0.39537037,1,0,0,1.521,Pumice_rect,9,0,9,0,1
5c8974ef34daa70015e92daf,TCN,2024-06-10_12h19.41.001,LearnStrategy,2023.2.3,Win32,100,5,2,11,,,,,,,,1,03,,,,,,,,,,,2,16.74,0,,,,,,-0.126851852,-0.237037037,1,0,0,16.74,Basalt_rect,10,0,10,0,1
5c8974ef34daa70015e92daf,TCN,2024-06-10_12h19.41.001,LearnStrategy,2023.2.3,Win32,100,5,2,12,,,,,,,,2,10,,,,,,,,,,,4,4.8,0,,,,,,0.367592593,-0.238888889,1,0,0,4.8,Gabbro_rect,11,0,11,0,1
5c8974ef34daa70015e92daf,TCN,2024-06-10_12h19.41.001,LearnStrategy,2023.2.3,Win32,100,5,2,13,,,,,,,,6,11,,,,,,,,,,,7,1.85,0,,,,,,0.068518519,-0.403703704,1,0,0,1.85,Peridotite_rect,12,0,12,0,1
5c8974ef34daa70015e92daf,TCN,2024-06-10_12h19.41.001,LearnStrategy,2023.2.3,Win32,100,5,2,14,,,,,,,,8,02,,,,,,,,,,,8,4.493,1,,,,,,0.333333333,-0.389814815,1,0,0,4.493,Pumice_rect,13,0,13,0,1
5c8974ef34daa70015e92daf,TCN,2024-06-10_12h19.41.001,LearnStrategy,2023.2.3,Win32,100,5,2,15,,,,,,,,4,09,,,,,,,,,,,4,1.429,1,,,,,,0.380555556,-0.259259259,1,0,0,1.429,Gabbro_rect,14,0,14,0,1
5c8974ef34daa70015e92daf,TCN,2024-06-10_12h19.41.001,LearnStrategy,2023.2.3,Win32,100,5,2,16,,,,,,,,5,12,,,,,,,,,,,5,1.571,1,,,,,,-0.337037037,-0.383333333,1,0,0,1.571,Obsidian_rect,15,0,15,0,1
5c8974ef34daa70015e92daf,TCN,2024-06-10_12h19.41.001,LearnStrategy,2023.2.3,Win32,100,6,1,1,0.010185185,-0.011111111,1,0,0,1.439,rock_grid_rect_2,4,10,-1,-1,1.439,0.431481481,-0.271296296,1,0,0,2.041,Gabbro_rect,4,2.041,1,0,0,0,0,1,,,,,,,,,,,,
5c8974ef34daa70015e92daf,TCN,2024-06-10_12h19.41.001,LearnStrategy,2023.2.3,Win32,100,6,1,2,0.013888889,0.001851852,1,0,0,0.839,rock_grid_rect_2,4,05,-1,-1,0.839,0.137962963,-0.237962963,1,0,0,2.301,Diorite_rect,3,2.301,0,1,0,1,0,1,,,,,,,,,,,,
5c8974ef34daa70015e92daf,TCN,2024-06-10_12h19.41.001,LearnStrategy,2023.2.3,Win32,100,6,1,3,0.018518519,0.010185185,1,0,0,0.589,rock_grid_rect_2,6,09,-1,-1,0.589,-0.109259259,-0.39537037,1,0,0,1.084,Pegmatite_rect,6,1.084,1,2,0,2,0,1,,,,,,,,,,,,
5c8974ef34daa70015e92daf,TCN,2024-06-10_12h19.41.001,LearnStrategy,2023.2.3,Win32,100,6,1,4,0.013888889,-0.000925926,1,0,0,0.889,rock_grid_rect_2,1,05,-1,-1,0.889,-0.402777778,-0.256481481,1,0,0,1.858,Andesite_rect,1,1.858,1,3,0,3,0,1,,,,,,,,,,,,
5c8974ef34daa70015e92daf,TCN,2024-06-10_12h19.41.001,LearnStrategy,2023.2.3,Win32,100,6,1,5,0.009259259,-0.003703704,1,0,0,1.772,rock_grid_rect_2,6,12,-1,-1,1.772,-0.090740741,-0.42037037,1,0,0,1.624,Pegmatite_rect,6,1.624,1,4,0,4,0,1,,,,,,,,,,,,
5c8974ef34daa70015e92daf,TCN,2024-06-10_12h19.41.001,LearnStrategy,2023.2.3,Win32,100,6,1,6,0.005555556,-0.016666667,1,0,0,0.648,rock_grid_rect_2,8,10,-1,-1,0.648,0.337037037,-0.396296296,1,0,0,1.214,Pumice_rect,8,1.214,1,5,0,5,0,1,,,,,,,,,,,,
5c8974ef34daa70015e92daf,TCN,2024-06-10_12h19.41.001,LearnStrategy,2023.2.3,Win32,100,6,1,7,-0.000925926,0.00462963,1,0,0,0.709,rock_grid_rect_2,7,07,-1,-1,0.709,0.135185185,-0.411111111,1,0,0,2.028,Peridotite_rect,7,2.028,1,6,0,6,0,1,,,,,,,,,,,,
5c8974ef34daa70015e92daf,TCN,2024-06-10_12h19.41.001,LearnStrategy,2023.2.3,Win32,100,6,1,8,-0.025925926,0.003703704,1,0,0,0.589,rock_grid_rect_2,7,12,-1,-1,0.589,0.150925926,-0.397222222,1,0,0,1.541,Peridotite_rect,7,1.541,1,7,0,7,0,1,,,,,,,,,,,,
5c8974ef34daa70015e92daf,TCN,2024-06-10_12h19.41.001,LearnStrategy,2023.2.3,Win32,100,6,1,9,-0.025925926,-0.005555556,1,0,0,0.596,rock_grid_rect_2,3,07,-1,-1,0.596,0.323148148,-0.235185185,1,0,0,2.002,Gabbro_rect,4,2.002,0,8,0,8,0,1,,,,,,,,,,,,
5c8974ef34daa70015e92daf,TCN,2024-06-10_12h19.41.001,LearnStrategy,2023.2.3,Win32,100,6,1,10,-0.02962963,-0.011111111,1,0,0,0.669,rock_grid_rect_2,2,05,-1,-1,0.669,-0.142592593,-0.241666667,1,0,0,1.21,Basalt_rect,2,1.21,1,9,0,9,0,1,,,,,,,,,,,,
5c8974ef34daa70015e92daf,TCN,2024-06-10_12h19.41.001,LearnStrategy,2023.2.3,Win32,100,6,1,11,0.001851852,-0.018518519,1,0,0,1.1,rock_grid_rect_2,8,16,-1,-1,1.1,0.326851852,-0.388888889,1,0,0,2.78,Pumice_rect,8,2.78,1,10,0,10,0,1,,,,,,,,,,,,
5c8974ef34daa70015e92daf,TCN,2024-06-10_12h19.41.001,LearnStrategy,2023.2.3,Win32,100,6,1,12,0.005555556,-0.007407407,1,0,0,5.139,rock_grid_rect_2,3,13,-1,-1,5.139,-0.091666667,-0.264814815,1,0,0,3.067,Basalt_rect,2,3.067,0,11,0,11,0,1,,,,,,,,,,,,
5c8974ef34daa70015e92daf,TCN,2024-06-10_12h19.41.001,LearnStrategy,2023.2.3,Win32,100,6,1,13,0.011111111,-0.022222222,1,0,0,1.728,rock_grid_rect_2,1,06,-1,-1,1.728,-0.386111111,-0.263888889,1,0,0,5.004,Andesite_rect,1,5.004,1,12,0,12,0,1,,,,,,,,,,,,
5c8974ef34daa70015e92daf,TCN,2024-06-10_12h19.41.001,LearnStrategy,2023.2.3,Win32,100,6,1,14,0.021296296,0,1,0,0,0.537,rock_grid_rect_2,2,16,-1,-1,0.537,-0.132407407,-0.246296296,1,0,0,1.244,Basalt_rect,2,1.244,1,13,0,13,0,1,,,,,,,,,,,,
5c8974ef34daa70015e92daf,TCN,2024-06-10_12h19.41.001,LearnStrategy,2023.2.3,Win32,100,6,1,15,-0.014814815,0.00462963,1,0,0,0.638,rock_grid_rect_2,5,05,-1,-1,0.638,-0.360185185,-0.380555556,1,0,0,1.289,Obsidian_rect,5,1.289,1,14,0,14,0,1,,,,,,,,,,,,
5c8974ef34daa70015e92daf,TCN,2024-06-10_12h19.41.001,LearnStrategy,2023.2.3,Win32,100,6,1,16,-0.006481481,-0.016666667,1,0,0,0.839,rock_grid_rect_2,5,16,-1,-1,0.839,-0.339814815,-0.398148148,1,0,0,28.608,Obsidian_rect,5,28.608,1,15,0,15,0,1,,,,,,,,,,,,
5c8974ef34daa70015e92daf,TCN,2024-06-10_12h19.41.001,LearnStrategy,2023.2.3,Win32,100,6,2,1,,,,,,,,1,09,,,,,,,,,,,1,1.312,1,,,,,,-0.343518519,-0.230555556,1,0,0,1.312,Andesite_rect,0,0,0,0,1
5c8974ef34daa70015e92daf,TCN,2024-06-10_12h19.41.001,LearnStrategy,2023.2.3,Win32,100,6,2,2,,,,,,,,8,09,,,,,,,,,,,8,1.23,1,,,,,,0.32037037,-0.385185185,1,0,0,1.23,Pumice_rect,1,0,1,0,1
5c8974ef34daa70015e92daf,TCN,2024-06-10_12h19.41.001,LearnStrategy,2023.2.3,Win32,100,6,2,3,,,,,,,,3,09,,,,,,,,,,,3,1.853,1,,,,,,0.186111111,-0.251851852,1,0,0,1.853,Diorite_rect,2,0,2,0,1
5c8974ef34daa70015e92daf,TCN,2024-06-10_12h19.41.001,LearnStrategy,2023.2.3,Win32,100,6,2,4,,,,,,,,1,07,,,,,,,,,,,4,3.721,0,,,,,,0.430555556,-0.246296296,1,0,0,3.721,Gabbro_rect,3,0,3,0,1
5c8974ef34daa70015e92daf,TCN,2024-06-10_12h19.41.001,LearnStrategy,2023.2.3,Win32,100,6,2,5,,,,,,,,2,12,,,,,,,,,,,2,1.978,1,,,,,,-0.168518519,-0.234259259,1,0,0,1.978,Basalt_rect,4,0,4,0,1
5c8974ef34daa70015e92daf,TCN,2024-06-10_12h19.41.001,LearnStrategy,2023.2.3,Win32,100,6,2,6,,,,,,,,4,16,,,,,,,,,,,2,1.237,0,,,,,,-0.168518519,-0.234259259,1,0,0,1.237,Basalt_rect,5,0,5,0,1
5c8974ef34daa70015e92daf,TCN,2024-06-10_12h19.41.001,LearnStrategy,2023.2.3,Win32,100,6,2,7,,,,,,,,5,04,,,,,,,,,,,5,1.01,1,,,,,,-0.387962963,-0.4,1,0,0,1.01,Obsidian_rect,6,0,6,0,1
5c8974ef34daa70015e92daf,TCN,2024-06-10_12h19.41.001,LearnStrategy,2023.2.3,Win32,100,6,2,8,,,,,,,,4,14,,,,,,,,,,,2,5.043,0,,,,,,-0.092592593,-0.269444444,1,0,0,5.043,Basalt_rect,7,0,7,0,1
5c8974ef34daa70015e92daf,TCN,2024-06-10_12h19.41.001,LearnStrategy,2023.2.3,Win32,100,6,2,9,,,,,,,,2,14,,,,,,,,,,,2,1.565,1,,,,,,-0.097222222,-0.250925926,1,0,0,1.565,Basalt_rect,8,0,8,0,1
5c8974ef34daa70015e92daf,TCN,2024-06-10_12h19.41.001,LearnStrategy,2023.2.3,Win32,100,6,2,10,,,,,,,,7,05,,,,,,,,,,,1,8.59,0,,,,,,-0.338888889,-0.237962963,1,0,0,8.59,Andesite_rect,9,0,9,0,1
5c8974ef34daa70015e92daf,TCN,2024-06-10_12h19.41.001,LearnStrategy,2023.2.3,Win32,100,6,2,11,,,,,,,,3,10,,,,,,,,,,,1,2.726,0,,,,,,-0.303703704,-0.243518519,1,0,0,2.726,Andesite_rect,10,0,10,0,1
5c8974ef34daa70015e92daf,TCN,2024-06-10_12h19.41.001,LearnStrategy,2023.2.3,Win32,100,6,2,12,,,,,,,,6,07,,,,,,,,,,,6,15.82,1,,,,,,-0.110185185,-0.390740741,1,0,0,15.82,Pegmatite_rect,11,0,11,0,1
5c8974ef34daa70015e92daf,TCN,2024-06-10_12h19.41.001,LearnStrategy,2023.2.3,Win32,100,6,2,13,,,,,,,,8,06,,,,,,,,,,,8,2.806,1,,,,,,0.376851852,-0.387037037,1,0,0,2.806,Pumice_rect,12,0,12,0,1
5c8974ef34daa70015e92daf,TCN,2024-06-10_12h19.41.001,LearnStrategy,2023.2.3,Win32,100,6,2,14,,,,,,,,6,03,,,,,,,,,,,7,1.7,0,,,,,,0.075925926,-0.382407407,1,0,0,1.7,Peridotite_rect,13,0,13,0,1
5c8974ef34daa70015e92daf,TCN,2024-06-10_12h19.41.001,LearnStrategy,2023.2.3,Win32,100,6,2,15,,,,,,,,7,15,,,,,,,,,,,7,0.988,1,,,,,,0.075925926,-0.382407407,1,0,0,0.988,Peridotite_rect,14,0,14,0,1
5c8974ef34daa70015e92daf,TCN,2024-06-10_12h19.41.001,LearnStrategy,2023.2.3,Win32,100,6,2,16,,,,,,,,5,09,,,,,,,,,,,5,1.921,1,,,,,,-0.402777778,-0.386111111,1,0,0,1.921,Obsidian_rect,15,0,15,0,1
5c8974ef34daa70015e92daf,TCN,2024-06-10_12h19.41.001,LearnStrategy,2023.2.3,Win32,100,7,1,1,0.17037037,-0.014814815,1,0,0,705.243,rock_grid_rect_2,3,15,-1,-1,705.243,0.103703704,-0.236111111,1,0,0,1.273,Diorite_rect,3,1.273,1,0,0,0,0,1,,,,,,,,,,,,
5c8974ef34daa70015e92daf,TCN,2024-06-10_12h19.41.001,LearnStrategy,2023.2.3,Win32,100,7,1,2,0.011111111,0.00462963,1,0,0,3.79,rock_grid_rect_2,1,06,-1,-1,3.79,-0.338888889,-0.241666667,1,0,0,1.585,Andesite_rect,1,1.585,1,1,0,1,0,1,,,,,,,,,,,,
5c8974ef34daa70015e92daf,TCN,2024-06-10_12h19.41.001,LearnStrategy,2023.2.3,Win32,100,7,1,3,0.012962963,0.002777778,1,0,0,0.849,rock_grid_rect_2,5,05,-1,-1,0.849,-0.343518519,-0.418518519,1,0,0,1.163,Obsidian_rect,5,1.163,1,2,0,2,0,1,,,,,,,,,,,,
5c8974ef34daa70015e92daf,TCN,2024-06-10_12h19.41.001,LearnStrategy,2023.2.3,Win32,100,7,1,4,-0.010185185,0.003703704,1,0,0,1.17,rock_grid_rect_2,2,11,-1,-1,1.17,-0.146296296,-0.240740741,1,0,0,0.961,Basalt_rect,2,0.961,1,3,0,3,0,1,,,,,,,,,,,,
5c8974ef34daa70015e92daf,TCN,2024-06-10_12h19.41.001,LearnStrategy,2023.2.3,Win32,100,7,1,5,0,0,1,0,0,0.739,rock_grid_rect_2,2,01,-1,-1,0.739,-0.112962963,-0.237037037,1,0,0,1.237,Basalt_rect,2,1.237,1,4,0,4,0,1,,,,,,,,,,,,
5c8974ef34daa70015e92daf,TCN,2024-06-10_12h19.41.001,LearnStrategy,2023.2.3,Win32,100,7,1,6,0.008333333,-0.012962963,1,0,0,0.831,rock_grid_rect_2,1,05,-1,-1,0.831,0.330555556,-0.263888889,1,0,0,4.042,Gabbro_rect,4,4.042,0,5,0,5,0,1,,,,,,,,,,,,
5c8974ef34daa70015e92daf,TCN,2024-06-10_12h19.41.001,LearnStrategy,2023.2.3,Win32,100,7,1,7,-0.059259259,-0.00462963,1,0,0,0.63,rock_grid_rect_2,8,15,-1,-1,0.63,0.333333333,-0.396296296,1,0,0,1.721,Pumice_rect,8,1.721,1,6,0,6,0,1,,,,,,,,,,,,
5c8974ef34daa70015e92daf,TCN,2024-06-10_12h19.41.001,LearnStrategy,2023.2.3,Win32,100,7,1,8,0.001851852,-0.003703704,1,0,0,0.729,rock_grid_rect_2,4,05,-1,-1,0.729,0.087962963,-0.412037037,1,0,0,1.637,Peridotite_rect,7,1.637,0,7,0,7,0,1,,,,,,,,,,,,
5c8974ef34daa70015e92daf,TCN,2024-06-10_12h19.41.001,LearnStrategy,2023.2.3,Win32,100,7,1,9,-0.027777778,-0.02037037,1,0,0,0.98,rock_grid_rect_2,3,08,-1,-1,0.98,0.35462963,-0.228703704,1,0,0,1.322,Gabbro_rect,4,1.322,0,8,0,8,0,1,,,,,,,,,,,,
5c8974ef34daa70015e92daf,TCN,2024-06-10_12h19.41.001,LearnStrategy,2023.2.3,Win32,100,7,1,10,-0.02037037,0.019444444,1,0,0,0.692,rock_grid_rect_2,7,10,-1,-1,0.692,0.043518519,-0.387962963,1,0,0,2.243,Peridotite_rect,7,2.243,1,9,0,9,0,1,,,,,,,,,,,,
5c8974ef34daa70015e92daf,TCN,2024-06-10_12h19.41.001,LearnStrategy,2023.2.3,Win32,100,7,1,11,-0.014814815,0.00462963,1,0,0,0.76,rock_grid_rect_2,6,16,-1,-1,0.76,-0.100925926,-0.403703704,1,0,0,1.226,Pegmatite_rect,6,1.226,1,10,0,10,0,1,,,,,,,,,,,,
5c8974ef34daa70015e92daf,TCN,2024-06-10_12h19.41.001,LearnStrategy,2023.2.3,Win32,100,7,1,12,0.006481481,0.02037037,1,0,0,0.749,rock_grid_rect_2,5,14,-1,-1,0.749,-0.357407407,-0.391666667,1,0,0,1.158,Obsidian_rect,5,1.158,1,11,0,11,0,1,,,,,,,,,,,,
5c8974ef34daa70015e92daf,TCN,2024-06-10_12h19.41.001,LearnStrategy,2023.2.3,Win32,100,7,1,13,0.00462963,-0.010185185,1,0,0,1.109,rock_grid_rect_2,4,10,-1,-1,1.109,0.34537037,-0.230555556,1,0,0,1.223,Gabbro_rect,4,1.223,1,12,0,12,0,1,,,,,,,,,,,,
5c8974ef34daa70015e92daf,TCN,2024-06-10_12h19.41.001,LearnStrategy,2023.2.3,Win32,100,7,1,14,-0.00462963,-0.000925926,1,0,0,0.712,rock_grid_rect_2,8,03,-1,-1,0.712,0.3,-0.387962963,1,0,0,1.011,Pumice_rect,8,1.011,1,13,0,13,0,1,,,,,,,,,,,,
5c8974ef34daa70015e92daf,TCN,2024-06-10_12h19.41.001,LearnStrategy,2023.2.3,Win32,100,7,1,15,-0.013888889,-0.023148148,1,0,0,0.789,rock_grid_rect_2,7,02,-1,-1,0.789,0.050925926,-0.409259259,1,0,0,1.449,Peridotite_rect,7,1.449,1,14,0,14,0,1,,,,,,,,,,,,
5c8974ef34daa70015e92daf,TCN,2024-06-10_12h19.41.001,LearnStrategy,2023.2.3,Win32,100,7,1,16,-0.030555556,0.000925926,1,0,0,0.679,rock_grid_rect_2,6,08,-1,-1,0.679,-0.075,-0.409259259,1,0,0,1.235,Pegmatite_rect,6,1.235,1,15,0,15,0,1,,,,,,,,,,,,
5c8974ef34daa70015e92daf,TCN,2024-06-10_12h19.41.001,LearnStrategy,2023.2.3,Win32,100,7,2,1,,,,,,,,7,04,,,,,,,,,,,6,5.908,0,,,,,,-0.071296296,-0.40462963,1,0,0,5.908,Pegmatite_rect,0,0,0,0,1
5c8974ef34daa70015e92daf,TCN,2024-06-10_12h19.41.001,LearnStrategy,2023.2.3,Win32,100,7,2,2,,,,,,,,4,09,,,,,,,,,,,4,1.053,1,,,,,,0.376851852,-0.268518519,1,0,0,1.053,Gabbro_rect,1,0,1,0,1
5c8974ef34daa70015e92daf,TCN,2024-06-10_12h19.41.001,LearnStrategy,2023.2.3,Win32,100,7,2,3,,,,,,,,6,10,,,,,,,,,,,7,1.281,0,,,,,,0.076851852,-0.391666667,1,0,0,1.281,Peridotite_rect,2,0,2,0,1
5c8974ef34daa70015e92daf,TCN,2024-06-10_12h19.41.001,LearnStrategy,2023.2.3,Win32,100,7,2,4,,,,,,,,3,09,,,,,,,,,,,3,0.912,1,,,,,,0.061111111,-0.241666667,1,0,0,0.912,Diorite_rect,3,0,3,0,1
5c8974ef34daa70015e92daf,TCN,2024-06-10_12h19.41.001,LearnStrategy,2023.2.3,Win32,100,7,2,5,,,,,,,,7,08,,,,,,,,,,,7,1.603,1,,,,,,0.068518519,-0.400925926,1,0,0,1.603,Peridotite_rect,4,0,4,0,1
5c8974ef34daa70015e92daf,TCN,2024-06-10_12h19.41.001,LearnStrategy,2023.2.3,Win32,100,7,2,6,,,,,,,,6,05,,,,,,,,,,,6,2.285,1,,,,,,-0.085185185,-0.388888889,1,0,0,2.285,Pegmatite_rect,5,0,5,0,1
5c8974ef34daa70015e92daf,TCN,2024-06-10_12h19.41.001,LearnStrategy,2023.2.3,Win32,100,7,2,7,,,,,,,,8,05,,,,,,,,,,,8,1.056,1,,,,,,0.326851852,-0.389814815,1,0,0,1.056,Pumice_rect,6,0,6,0,1
5c8974ef34daa70015e92daf,TCN,2024-06-10_12h19.41.001,LearnStrategy,2023.2.3,Win32,100,7,2,8,,,,,,,,8,09,,,,,,,,,,,8,1.41,1,,,,,,0.290740741,-0.384259259,1,0,0,1.41,Pumice_rect,7,0,7,0,1
5c8974ef34daa70015e92daf,TCN,2024-06-10_12h19.41.001,LearnStrategy,2023.2.3,Win32,100,7,2,9,,,,,,,,2,14,,,,,,,,,,,2,1.226,1,,,,,,-0.111111111,-0.247222222,1,0,0,1.226,Basalt_rect,8,0,8,0,1
5c8974ef34daa70015e92daf,TCN,2024-06-10_12h19.41.001,LearnStrategy,2023.2.3,Win32,100,7,2,10,,,,,,,,1,09,,,,,,,,,,,2,0.746,0,,,,,,-0.111111111,-0.250925926,1,0,0,0.746,Basalt_rect,9,0,9,0,1
5c8974ef34daa70015e92daf,TCN,2024-06-10_12h19.41.001,LearnStrategy,2023.2.3,Win32,100,7,2,11,,,,,,,,5,09,,,,,,,,,,,5,1.093,1,,,,,,-0.337962963,-0.393518519,1,0,0,1.093,Obsidian_rect,10,0,10,0,1
5c8974ef34daa70015e92daf,TCN,2024-06-10_12h19.41.001,LearnStrategy,2023.2.3,Win32,100,7,2,12,,,,,,,,1,02,,,,,,,,,,,3,3.912,0,,,,,,0.127777778,-0.251851852,1,0,0,3.912,Diorite_rect,11,0,11,0,1
5c8974ef34daa70015e92daf,TCN,2024-06-10_12h19.41.001,LearnStrategy,2023.2.3,Win32,100,7,2,13,,,,,,,,5,04,,,,,,,,,,,5,0.943,1,,,,,,-0.385185185,-0.401851852,1,0,0,0.943,Obsidian_rect,12,0,12,0,1
5c8974ef34daa70015e92daf,TCN,2024-06-10_12h19.41.001,LearnStrategy,2023.2.3,Win32,100,7,2,14,,,,,,,,4,13,,,,,,,,,,,4,1.676,1,,,,,,0.39537037,-0.251851852,1,0,0,1.676,Gabbro_rect,13,0,13,0,1
5c8974ef34daa70015e92daf,TCN,2024-06-10_12h19.41.001,LearnStrategy,2023.2.3,Win32,100,7,2,15,,,,,,,,3,11,,,,,,,,,,,6,3.183,0,,,,,,-0.080555556,-0.413888889,1,0,0,3.183,Pegmatite_rect,14,0,14,0,1
5c8974ef34daa70015e92daf,TCN,2024-06-10_12h19.41.001,LearnStrategy,2023.2.3,Win32,100,7,2,16,,,,,,,,2,10,,,,,,,,,,,2,1,1,,,,,,-0.159259259,-0.233333333,1,0,0,1,Basalt_rect,15,0,15,0,1
5c8974ef34daa70015e92daf,TCN,2024-06-10_12h19.41.001,LearnStrategy,2023.2.3,Win32,100,8,1,1,-0.003703704,-0.000925926,1,0,0,1.089,rock_grid_rect_2,4,08,-1,-1,1.089,0.325,-0.246296296,1,0,0,1.549,Gabbro_rect,4,1.549,1,0,0,0,0,1,,,,,,,,,,,,
5c8974ef34daa70015e92daf,TCN,2024-06-10_12h19.41.001,LearnStrategy,2023.2.3,Win32,100,8,1,2,0.017592593,-0.024074074,1,0,0,1.558,rock_grid_rect_2,1,04,-1,-1,1.558,0.162962963,-0.239814815,1,0,0,3.393,Diorite_rect,3,3.393,0,1,0,1,0,1,,,,,,,,,,,,
5c8974ef34daa70015e92daf,TCN,2024-06-10_12h19.41.001,LearnStrategy,2023.2.3,Win32,100,8,1,3,0.019444444,0.007407407,1,0,0,0.879,rock_grid_rect_2,5,16,-1,-1,0.879,-0.341666667,-0.383333333,1,0,0,1.135,Obsidian_rect,5,1.135,1,2,0,2,0,1,,,,,,,,,,,,
5c8974ef34daa70015e92daf,TCN,2024-06-10_12h19.41.001,LearnStrategy,2023.2.3,Win32,100,8,1,4,0.006481481,0.009259259,1,0,0,0.83,rock_grid_rect_2,3,14,-1,-1,0.83,0.103703704,-0.265740741,1,0,0,1.208,Diorite_rect,3,1.208,1,3,0,3,0,1,,,,,,,,,,,,
5c8974ef34daa70015e92daf,TCN,2024-06-10_12h19.41.001,LearnStrategy,2023.2.3,Win32,100,8,1,5,0.013888889,-0.002777778,1,0,0,0.76,rock_grid_rect_2,7,07,-1,-1,0.76,0.063888889,-0.396296296,1,0,0,1.795,Peridotite_rect,7,1.795,1,4,0,4,0,1,,,,,,,,,,,,
5c8974ef34daa70015e92daf,TCN,2024-06-10_12h19.41.001,LearnStrategy,2023.2.3,Win32,100,8,1,6,0.037037037,0.003703704,1,0,0,1.479,rock_grid_rect_2,8,08,-1,-1,1.479,0.331481481,-0.402777778,1,0,0,0.959,Pumice_rect,8,0.959,1,5,0,5,0,1,,,,,,,,,,,,
5c8974ef34daa70015e92daf,TCN,2024-06-10_12h19.41.001,LearnStrategy,2023.2.3,Win32,100,8,1,7,-0.025,-0.00462963,1,0,0,0.628,rock_grid_rect_2,6,13,-1,-1,0.628,-0.088888889,-0.40462963,1,0,0,3.117,Pegmatite_rect,6,3.117,1,6,0,6,0,1,,,,,,,,,,,,
5c8974ef34daa70015e92daf,TCN,2024-06-10_12h19.41.001,LearnStrategy,2023.2.3,Win32,100,8,1,8,-0.017592593,-0.005555556,1,0,0,0.559,rock_grid_rect_2,2,16,-1,-1,0.559,-0.108333333,-0.231481481,1,0,0,1.161,Basalt_rect,2,1.161,1,7,0,7,0,1,,,,,,,,,,,,
5c8974ef34daa70015e92daf,TCN,2024-06-10_12h19.41.001,LearnStrategy,2023.2.3,Win32,100,8,1,9,-0.002777778,-0.000925926,1,0,0,0.649,rock_grid_rect_2,6,12,-1,-1,0.649,-0.057407407,-0.409259259,1,0,0,2.373,Pegmatite_rect,6,2.373,1,8,0,8,0,1,,,,,,,,,,,,
5c8974ef34daa70015e92daf,TCN,2024-06-10_12h19.41.001,LearnStrategy,2023.2.3,Win32,100,8,1,10,-0.023148148,0.000925926,1,0,0,0.829,rock_grid_rect_2,7,12,-1,-1,0.829,0.101851852,-0.411111111,1,0,0,0.829,Peridotite_rect,7,0.829,1,9,0,9,0,1,,,,,,,,,,,,
5c8974ef34daa70015e92daf,TCN,2024-06-10_12h19.41.001,LearnStrategy,2023.2.3,Win32,100,8,1,11,0.00462963,-0.012037037,1,0,0,0.57,rock_grid_rect_2,4,03,-1,-1,0.57,0.307407407,-0.240740741,1,0,0,3.287,Gabbro_rect,4,3.287,1,10,0,10,0,1,,,,,,,,,,,,
5c8974ef34daa70015e92daf,TCN,2024-06-10_12h19.41.001,LearnStrategy,2023.2.3,Win32,100,8,1,12,-0.013888889,0.009259259,1,0,0,0.64,rock_grid_rect_2,5,11,-1,-1,0.64,-0.32037037,-0.401851852,1,0,0,0.97,Obsidian_rect,5,0.97,1,11,0,11,0,1,,,,,,,,,,,,
5c8974ef34daa70015e92daf,TCN,2024-06-10_12h19.41.001,LearnStrategy,2023.2.3,Win32,100,8,1,13,0.006481481,-0.010185185,1,0,0,0.709,rock_grid_rect_2,1,11,-1,-1,0.709,-0.355555556,-0.238888889,1,0,0,1.397,Andesite_rect,1,1.397,1,12,0,12,0,1,,,,,,,,,,,,
5c8974ef34daa70015e92daf,TCN,2024-06-10_12h19.41.001,LearnStrategy,2023.2.3,Win32,100,8,1,14,0.043518519,-0.009259259,1,0,0,0.648,rock_grid_rect_2,2,09,-1,-1,0.648,-0.106481481,-0.244444444,1,0,0,1.123,Basalt_rect,2,1.123,1,13,0,13,0,1,,,,,,,,,,,,
5c8974ef34daa70015e92daf,TCN,2024-06-10_12h19.41.001,LearnStrategy,2023.2.3,Win32,100,8,1,15,-0.012037037,-0.014814815,1,0,0,0.548,rock_grid_rect_2,8,10,-1,-1,0.548,0.312962963,-0.387962963,1,0,0,1.065,Pumice_rect,8,1.065,1,14,0,14,0,1,,,,,,,,,,,,
5c8974ef34daa70015e92daf,TCN,2024-06-10_12h19.41.001,LearnStrategy,2023.2.3,Win32,100,8,1,16,0.006481481,-0.022222222,1,0,0,0.71,rock_grid_rect_2,3,07,-1,-1,0.71,0.087962963,-0.262962963,1,0,0,2.825,Diorite_rect,3,2.825,1,15,0,15,0,1,,,,,,,,,,,,
5c8974ef34daa70015e92daf,TCN,2024-06-10_12h19.41.001,LearnStrategy,2023.2.3,Win32,100,8,2,1,,,,,,,,8,04,,,,,,,,,,,8,1.336,1,,,,,,0.44537037,-0.411111111,1,0,0,1.336,Pumice_rect,0,0,0,0,1
5c8974ef34daa70015e92daf,TCN,2024-06-10_12h19.41.001,LearnStrategy,2023.2.3,Win32,100,8,2,2,,,,,,,,6,11,,,,,,,,,,,6,1.518,1,,,,,,-0.112962963,-0.40462963,1,0,0,1.518,Pegmatite_rect,1,0,1,0,1
5c8974ef34daa70015e92daf,TCN,2024-06-10_12h19.41.001,LearnStrategy,2023.2.3,Win32,100,8,2,3,,,,,,,,5,12,,,,,,,,,,,5,0.938,1,,,,,,-0.334259259,-0.398148148,1,0,0,0.938,Obsidian_rect,2,0,2,0,1
5c8974ef34daa70015e92daf,TCN,2024-06-10_12h19.41.001,LearnStrategy,2023.2.3,Win32,100,8,2,4,,,,,,,,1,10,,,,,,,,,,,1,1.875,1,,,,,,-0.346296296,-0.230555556,1,0,0,1.875,Andesite_rect,3,0,3,0,1
5c8974ef34daa70015e92daf,TCN,2024-06-10_12h19.41.001,LearnStrategy,2023.2.3,Win32,100,8,2,5,,,,,,,,7,16,,,,,,,,,,,7,1.611,1,,,,,,0.114814815,-0.4,1,0,0,1.611,Peridotite_rect,4,0,4,0,1
5c8974ef34daa70015e92daf,TCN,2024-06-10_12h19.41.001,LearnStrategy,2023.2.3,Win32,100,8,2,6,,,,,,,,8,02,,,,,,,,,,,8,1.132,1,,,,,,0.319444444,-0.393518519,1,0,0,1.132,Pumice_rect,5,0,5,0,1
5c8974ef34daa70015e92daf,TCN,2024-06-10_12h19.41.001,LearnStrategy,2023.2.3,Win32,100,8,2,7,,,,,,,,6,03,,,,,,,,,,,6,1.473,1,,,,,,-0.109259259,-0.383333333,1,0,0,1.473,Pegmatite_rect,6,0,6,0,1
5c8974ef34daa70015e92daf,TCN,2024-06-10_12h19.41.001,LearnStrategy,2023.2.3,Win32,100,8,2,8,,,,,,,,3,10,,,,,,,,,,,3,1.547,1,,,,,,0.106481481,-0.260185185,1,0,0,1.547,Diorite_rect,7,0,7,0,1
5c8974ef34daa70015e92daf,TCN,2024-06-10_12h19.41.001,LearnStrategy,2023.2.3,Win32,100,8,2,9,,,,,,,,4,14,,,,,,,,,,,4,2.082,1,,,,,,0.389814815,-0.238888889,1,0,0,2.082,Gabbro_rect,8,0,8,0,1
5c8974ef34daa70015e92daf,TCN,2024-06-10_12h19.41.001,LearnStrategy,2023.2.3,Win32,100,8,2,10,,,,,,,,5,06,,,,,,,,,,,5,1.125,1,,,,,,-0.356481481,-0.386111111,1,0,0,1.125,Obsidian_rect,9,0,9,0,1
5c8974ef34daa70015e92daf,TCN,2024-06-10_12h19.41.001,LearnStrategy,2023.2.3,Win32,100,8,2,11,,,,,,,,2,02,,,,,,,,,,,2,0.816,1,,,,,,-0.039814815,-0.271296296,1,0,0,0.816,Basalt_rect,10,0,10,0,1
5c8974ef34daa70015e92daf,TCN,2024-06-10_12h19.41.001,LearnStrategy,2023.2.3,Win32,100,8,2,12,,,,,,,,3,02,,,,,,,,,,,3,1.216,1,,,,,,0.156481481,-0.25,1,0,0,1.216,Diorite_rect,11,0,11,0,1
5c8974ef34daa70015e92daf,TCN,2024-06-10_12h19.41.001,LearnStrategy,2023.2.3,Win32,100,8,2,13,,,,,,,,2,12,,,,,,,,,,,1,0.879,0,,,,,,-0.336111111,-0.237962963,1,0,0,0.879,Andesite_rect,12,0,12,0,1
5c8974ef34daa70015e92daf,TCN,2024-06-10_12h19.41.001,LearnStrategy,2023.2.3,Win32,100,8,2,14,,,,,,,,7,05,,,,,,,,,,,4,2.884,0,,,,,,0.339814815,-0.25462963,1,0,0,2.884,Gabbro_rect,13,0,13,0,1
5c8974ef34daa70015e92daf,TCN,2024-06-10_12h19.41.001,LearnStrategy,2023.2.3,Win32,100,8,2,15,,,,,,,,4,12,,,,,,,,,,,2,1.178,0,,,,,,-0.109259259,-0.262037037,1,0,0,1.178,Basalt_rect,14,0,14,0,1
5c8974ef34daa70015e92daf,TCN,2024-06-10_12h19.41.001,LearnStrategy,2023.2.3,Win32,100,8,2,16,,,,,,,,1,14,,,,,,,,,,,1,1.077,1,,,,,,-0.380555556,-0.243518519,1,0,0,1.077,Andesite_rect,15,0,15,0,1
5c8974ef34daa70015e92daf,TCN,2024-06-10_12h19.41.001,LearnStrategy,2023.2.3,Win32,100,9,1,1,-0.036111111,-0.008333333,1,0,0,0.925,rock_grid_rect_2,1,16,-1,-1,0.925,-0.369444444,-0.258333333,1,0,0,1.065,Andesite_rect,1,1.065,1,0,0,0,0,1,,,,,,,,,,,,
5c8974ef34daa70015e92daf,TCN,2024-06-10_12h19.41.001,LearnStrategy,2023.2.3,Win32,100,9,1,2,-0.017592593,-0.014814815,1,0,0,0.589,rock_grid_rect_2,5,07,-1,-1,0.589,-0.333333333,-0.386111111,1,0,0,1.027,Obsidian_rect,5,1.027,1,1,0,1,0,1,,,,,,,,,,,,
5c8974ef34daa70015e92daf,TCN,2024-06-10_12h19.41.001,LearnStrategy,2023.2.3,Win32,100,9,1,3,-0.011111111,0.024074074,1,0,0,0.449,rock_grid_rect_2,8,16,-1,-1,0.449,0.306481481,-0.382407407,1,0,0,2.672,Pumice_rect,8,2.672,1,2,0,2,0,1,,,,,,,,,,,,
5c8974ef34daa70015e92daf,TCN,2024-06-10_12h19.41.001,LearnStrategy,2023.2.3,Win32,100,9,1,4,-0.05462963,-0.016666667,1,0,0,0.519,rock_grid_rect_2,2,05,-1,-1,0.519,-0.214814815,-0.263888889,1,0,0,0.992,Basalt_rect,2,0.992,1,3,0,3,0,1,,,,,,,,,,,,
5c8974ef34daa70015e92daf,TCN,2024-06-10_12h19.41.001,LearnStrategy,2023.2.3,Win32,100,9,1,5,0.047222222,-0.016666667,1,0,0,0.569,rock_grid_rect_2,7,06,-1,-1,0.569,0.076851852,-0.391666667,1,0,0,1.52,Peridotite_rect,7,1.52,1,4,0,4,0,1,,,,,,,,,,,,
5c8974ef34daa70015e92daf,TCN,2024-06-10_12h19.41.001,LearnStrategy,2023.2.3,Win32,100,9,1,6,-0.007407407,-0.00462963,1,0,0,0.819,rock_grid_rect_2,6,06,-1,-1,0.819,-0.102777778,-0.412037037,1,0,0,0.957,Pegmatite_rect,6,0.957,1,5,0,5,0,1,,,,,,,,,,,,
5c8974ef34daa70015e92daf,TCN,2024-06-10_12h19.41.001,LearnStrategy,2023.2.3,Win32,100,9,1,7,-0.011111111,0.003703704,1,0,0,0.599,rock_grid_rect_2,2,08,-1,-1,0.599,-0.091666667,-0.261111111,1,0,0,0.86,Basalt_rect,2,0.86,1,6,0,6,0,1,,,,,,,,,,,,
5c8974ef34daa70015e92daf,TCN,2024-06-10_12h19.41.001,LearnStrategy,2023.2.3,Win32,100,9,1,8,0.003703704,-0.009259259,1,0,0,0.589,rock_grid_rect_2,4,15,-1,-1,0.589,0.359259259,-0.266666667,1,0,0,1.056,Gabbro_rect,4,1.056,1,7,0,7,0,1,,,,,,,,,,,,
5c8974ef34daa70015e92daf,TCN,2024-06-10_12h19.41.001,LearnStrategy,2023.2.3,Win32,100,9,1,9,0,-0.00462963,1,0,0,0.549,rock_grid_rect_2,6,09,-1,-1,0.549,-0.097222222,-0.396296296,1,0,0,1.375,Pegmatite_rect,6,1.375,1,8,0,8,0,1,,,,,,,,,,,,
5c8974ef34daa70015e92daf,TCN,2024-06-10_12h19.41.001,LearnStrategy,2023.2.3,Win32,100,9,1,10,-0.013888889,-0.007407407,1,0,0,0.509,rock_grid_rect_2,4,11,-1,-1,0.509,-0.136111111,-0.236111111,1,0,0,0.999,Basalt_rect,2,0.999,0,9,0,9,0,1,,,,,,,,,,,,
5c8974ef34daa70015e92daf,TCN,2024-06-10_12h19.41.001,LearnStrategy,2023.2.3,Win32,100,9,1,11,-0.024074074,0.006481481,1,0,0,0.569,rock_grid_rect_2,1,01,-1,-1,0.569,0.406481481,-0.237962963,1,0,0,1.686,Gabbro_rect,4,1.686,0,10,0,10,0,1,,,,,,,,,,,,
5c8974ef34daa70015e92daf,TCN,2024-06-10_12h19.41.001,LearnStrategy,2023.2.3,Win32,100,9,1,12,-0.037037037,-0.013888889,1,0,0,0.559,rock_grid_rect_2,7,13,-1,-1,0.559,0.094444444,-0.403703704,1,0,0,0.942,Peridotite_rect,7,0.942,1,11,0,11,0,1,,,,,,,,,,,,
5c8974ef34daa70015e92daf,TCN,2024-06-10_12h19.41.001,LearnStrategy,2023.2.3,Win32,100,9,1,13,-0.039814815,-0.016666667,1,0,0,0.669,rock_grid_rect_2,8,14,-1,-1,0.669,0.373148148,-0.406481481,1,0,0,1.126,Pumice_rect,8,1.126,1,12,0,12,0,1,,,,,,,,,,,,
5c8974ef34daa70015e92daf,TCN,2024-06-10_12h19.41.001,LearnStrategy,2023.2.3,Win32,100,9,1,14,-0.023148148,0.001851852,1,0,0,0.649,rock_grid_rect_2,3,13,-1,-1,0.649,0.09537037,-0.262962963,1,0,0,1.49,Diorite_rect,3,1.49,1,13,0,13,0,1,,,,,,,,,,,,
5c8974ef34daa70015e92daf,TCN,2024-06-10_12h19.41.001,LearnStrategy,2023.2.3,Win32,100,9,1,15,-0.028703704,-0.017592593,1,0,0,0.619,rock_grid_rect_2,5,08,-1,-1,0.619,-0.358333333,-0.402777778,1,0,0,1.07,Obsidian_rect,5,1.07,1,14,0,14,0,1,,,,,,,,,,,,
5c8974ef34daa70015e92daf,TCN,2024-06-10_12h19.41.001,LearnStrategy,2023.2.3,Win32,100,9,1,16,0.00462963,-0.000925926,1,0,0,0.609,rock_grid_rect_2,3,06,-1,-1,0.609,0.124074074,-0.260185185,1,0,0,1.646,Diorite_rect,3,1.646,1,15,0,15,0,1,,,,,,,,,,,,
5c8974ef34daa70015e92daf,TCN,2024-06-10_12h19.41.001,LearnStrategy,2023.2.3,Win32,100,9,2,1,,,,,,,,7,15,,,,,,,,,,,7,2.488,1,,,,,,0.068518519,-0.400925926,1,0,0,2.488,Peridotite_rect,0,0,0,0,1
5c8974ef34daa70015e92daf,TCN,2024-06-10_12h19.41.001,LearnStrategy,2023.2.3,Win32,100,9,2,2,,,,,,,,3,16,,,,,,,,,,,3,1.892,1,,,,,,0.113888889,-0.237962963,1,0,0,1.892,Diorite_rect,1,0,1,0,1
5c8974ef34daa70015e92daf,TCN,2024-06-10_12h19.41.001,LearnStrategy,2023.2.3,Win32,100,9,2,3,,,,,,,,1,03,,,,,,,,,,,1,1.345,1,,,,,,-0.319444444,-0.24537037,1,0,0,1.345,Andesite_rect,2,0,2,0,1
5c8974ef34daa70015e92daf,TCN,2024-06-10_12h19.41.001,LearnStrategy,2023.2.3,Win32,100,9,2,4,,,,,,,,6,07,,,,,,,,,,,6,1.353,1,,,,,,-0.143518519,-0.419444444,1,0,0,1.353,Pegmatite_rect,3,0,3,0,1
5c8974ef34daa70015e92daf,TCN,2024-06-10_12h19.41.001,LearnStrategy,2023.2.3,Win32,100,9,2,5,,,,,,,,6,15,,,,,,,,,,,6,0.987,1,,,,,,-0.143518519,-0.419444444,1,0,0,0.987,Pegmatite_rect,4,0,4,0,1
5c8974ef34daa70015e92daf,TCN,2024-06-10_12h19.41.001,LearnStrategy,2023.2.3,Win32,100,9,2,6,,,,,,,,5,10,,,,,,,,,,,5,0.965,1,,,,,,-0.340740741,-0.390740741,1,0,0,0.965,Obsidian_rect,5,0,5,0,1
5c8974ef34daa70015e92daf,TCN,2024-06-10_12h19.41.001,LearnStrategy,2023.2.3,Win32,100,9,2,7,,,,,,,,7,14,,,,,,,,,,,4,2.339,0,,,,,,0.337962963,-0.256481481,1,0,0,2.339,Gabbro_rect,6,0,6,0,1
5c8974ef34daa70015e92daf,TCN,2024-06-10_12h19.41.001,LearnStrategy,2023.2.3,Win32,100,9,2,8,,,,,,,,4,16,,,,,,,,,,,2,1.061,0,,,,,,-0.138888889,-0.244444444,1,0,0,1.061,Basalt_rect,7,0,7,0,1
5c8974ef34daa70015e92daf,TCN,2024-06-10_12h19.41.001,LearnStrategy,2023.2.3,Win32,100,9,2,9,,,,,,,,5,02,,,,,,,,,,,5,1.002,1,,,,,,-0.359259259,-0.400925926,1,0,0,1.002,Obsidian_rect,8,0,8,0,1
5c8974ef34daa70015e92daf,TCN,2024-06-10_12h19.41.001,LearnStrategy,2023.2.3,Win32,100,9,2,10,,,,,,,,8,06,,,,,,,,,,,8,1.071,1,,,,,,0.367592593,-0.396296296,1,0,0,1.071,Pumice_rect,9,0,9,0,1
5c8974ef34daa70015e92daf,TCN,2024-06-10_12h19.41.001,LearnStrategy,2023.2.3,Win32,100,9,2,11,,,,,,,,4,01,,,,,,,,,,,1,3.248,0,,,,,,-0.362037037,-0.244444444,1,0,0,3.248,Andesite_rect,10,0,10,0,1
5c8974ef34daa70015e92daf,TCN,2024-06-10_12h19.41.001,LearnStrategy,2023.2.3,Win32,100,9,2,12,,,,,,,,3,12,,,,,,,,,,,3,2.113,1,,,,,,0.147222222,-0.233333333,1,0,0,2.113,Diorite_rect,11,0,11,0,1
5c8974ef34daa70015e92daf,TCN,2024-06-10_12h19.41.001,LearnStrategy,2023.2.3,Win32,100,9,2,13,,,,,,,,8,13,,,,,,,,,,,8,1.159,1,,,,,,0.35462963,-0.409259259,1,0,0,1.159,Pumice_rect,12,0,12,0,1
5c8974ef34daa70015e92daf,TCN,2024-06-10_12h19.41.001,LearnStrategy,2023.2.3,Win32,100,9,2,14,,,,,,,,1,07,,,,,,,,,,,3,1.854,0,,,,,,0.052777778,-0.250925926,1,0,0,1.854,Diorite_rect,13,0,13,0,1
5c8974ef34daa70015e92daf,TCN,2024-06-10_12h19.41.001,LearnStrategy,2023.2.3,Win32,100,9,2,15,,,,,,,,2,06,,,,,,,,,,,2,0.958,1,,,,,,-0.152777778,-0.248148148,1,0,0,0.958,Basalt_rect,14,0,14,0,1
5c8974ef34daa70015e92daf,TCN,2024-06-10_12h19.41.001,LearnStrategy,2023.2.3,Win32,100,9,2,16,,,,,,,,2,04,,,,,,,,,,,2,0.673,1,,,,,,-0.152777778,-0.248148148,1,0,0,0.673,Basalt_rect,15,0,15,0,1
5c8974ef34daa70015e92daf,TCN,2024-06-10_12h19.41.001,LearnStrategy,2023.2.3,Win32,100,,,,,,,,,,,,,,,,,,,,,,,,,,,,,,,,,,,,,,,,,,
5c8974ef34daa70015e92daf,TCN,2024-06-10_12h19.41.001,LearnStrategy,2023.2.3,Win32,100,,,,,,,,,,,,,,,,,,,,,,,,,,,,,,,,,,,,,,,,,,
5c8974ef34daa70015e92daf,TCN,2024-06-10_12h19.41.001,LearnStrategy,2023.2.3,Win32,100,,,,,,,,,,,7,07,1,1,,,,,,,,,,,,,,,,,,,,,,,,,,,,
5c8974ef34daa70015e92daf,TCN,2024-06-10_12h19.41.001,LearnStrategy,2023.2.3,Win32,100,,,,,,,,,,,1,05,1,2,,,,,,,,,,,,,,,,,,,,,,,,,,,,
5c8974ef34daa70015e92daf,TCN,2024-06-10_12h19.41.001,LearnStrategy,2023.2.3,Win32,100,,,,,,,,,,,7,02,1,3,,,,,,,,,,,,,,,,,,,,,,,,,,,,
5c8974ef34daa70015e92daf,TCN,2024-06-10_12h19.41.001,LearnStrategy,2023.2.3,Win32,100,,,,,,,,,,,6,12,1,4,,,,,,,,,,,,,,,,,,,,,,,,,,,,
5c8974ef34daa70015e92daf,TCN,2024-06-10_12h19.41.001,LearnStrategy,2023.2.3,Win32,100,,,,,,,,,,,8,03,1,5,,,,,,,,,,,,,,,,,,,,,,,,,,,,
5c8974ef34daa70015e92daf,TCN,2024-06-10_12h19.41.001,LearnStrategy,2023.2.3,Win32,100,,,,,,,,,,,5,05,1,6,,,,,,,,,,,,,,,,,,,,,,,,,,,,
5c8974ef34daa70015e92daf,TCN,2024-06-10_12h19.41.001,LearnStrategy,2023.2.3,Win32,100,,,,,,,,,,,5,11,1,7,,,,,,,,,,,,,,,,,,,,,,,,,,,,
5c8974ef34daa70015e92daf,TCN,2024-06-10_12h19.41.001,LearnStrategy,2023.2.3,Win32,100,,,,,,,,,,,3,15,1,8,,,,,,,,,,,,,,,,,,,,,,,,,,,,
5c8974ef34daa70015e92daf,TCN,2024-06-10_12h19.41.001,LearnStrategy,2023.2.3,Win32,100,,,,,,,,,,,8,15,2,1,,,,,,,,,,,,,,,,,,,,,,,,,,,,
5c8974ef34daa70015e92daf,TCN,2024-06-10_12h19.41.001,LearnStrategy,2023.2.3,Win32,100,,,,,,,,,,,3,07,2,2,,,,,,,,,,,,,,,,,,,,,,,,,,,,
5c8974ef34daa70015e92daf,TCN,2024-06-10_12h19.41.001,LearnStrategy,2023.2.3,Win32,100,,,,,,,,,,,8,16,2,3,,,,,,,,,,,,,,,,,,,,,,,,,,,,
5c8974ef34daa70015e92daf,TCN,2024-06-10_12h19.41.001,LearnStrategy,2023.2.3,Win32,100,,,,,,,,,,,1,01,2,4,,,,,,,,,,,,,,,,,,,,,,,,,,,,
5c8974ef34daa70015e92daf,TCN,2024-06-10_12h19.41.001,LearnStrategy,2023.2.3,Win32,100,,,,,,,,,,,1,06,2,5,,,,,,,,,,,,,,,,,,,,,,,,,,,,
5c8974ef34daa70015e92daf,TCN,2024-06-10_12h19.41.001,LearnStrategy,2023.2.3,Win32,100,,,,,,,,,,,2,08,2,6,,,,,,,,,,,,,,,,,,,,,,,,,,,,
5c8974ef34daa70015e92daf,TCN,2024-06-10_12h19.41.001,LearnStrategy,2023.2.3,Win32,100,,,,,,,,,,,7,12,2,7,,,,,,,,,,,,,,,,,,,,,,,,,,,,
5c8974ef34daa70015e92daf,TCN,2024-06-10_12h19.41.001,LearnStrategy,2023.2.3,Win32,100,,,,,,,,,,,6,08,2,8,,,,,,,,,,,,,,,,,,,,,,,,,,,,
5c8974ef34daa70015e92daf,TCN,2024-06-10_12h19.41.001,LearnStrategy,2023.2.3,Win32,100,,,,,,,,,,,2,11,3,1,,,,,,,,,,,,,,,,,,,,,,,,,,,,
5c8974ef34daa70015e92daf,TCN,2024-06-10_12h19.41.001,LearnStrategy,2023.2.3,Win32,100,,,,,,,,,,,6,09,3,2,,,,,,,,,,,,,,,,,,,,,,,,,,,,
5c8974ef34daa70015e92daf,TCN,2024-06-10_12h19.41.001,LearnStrategy,2023.2.3,Win32,100,,,,,,,,,,,3,14,3,3,,,,,,,,,,,,,,,,,,,,,,,,,,,,
5c8974ef34daa70015e92daf,TCN,2024-06-10_12h19.41.001,LearnStrategy,2023.2.3,Win32,100,,,,,,,,,,,6,16,3,4,,,,,,,,,,,,,,,,,,,,,,,,,,,,
5c8974ef34daa70015e92daf,TCN,2024-06-10_12h19.41.001,LearnStrategy,2023.2.3,Win32,100,,,,,,,,,,,2,16,3,5,,,,,,,,,,,,,,,,,,,,,,,,,,,,
5c8974ef34daa70015e92daf,TCN,2024-06-10_12h19.41.001,LearnStrategy,2023.2.3,Win32,100,,,,,,,,,,,4,03,3,6,,,,,,,,,,,,,,,,,,,,,,,,,,,,
5c8974ef34daa70015e92daf,TCN,2024-06-10_12h19.41.001,LearnStrategy,2023.2.3,Win32,100,,,,,,,,,,,7,10,3,7,,,,,,,,,,,,,,,,,,,,,,,,,,,,
5c8974ef34daa70015e92daf,TCN,2024-06-10_12h19.41.001,LearnStrategy,2023.2.3,Win32,100,,,,,,,,,,,8,08,3,8,,,,,,,,,,,,,,,,,,,,,,,,,,,,
5c8974ef34daa70015e92daf,TCN,2024-06-10_12h19.41.001,LearnStrategy,2023.2.3,Win32,100,,,,,,,,,,,1,04,4,1,,,,,,,,,,,,,,,,,,,,,,,,,,,,
5c8974ef34daa70015e92daf,TCN,2024-06-10_12h19.41.001,LearnStrategy,2023.2.3,Win32,100,,,,,,,,,,,3,06,4,2,,,,,,,,,,,,,,,,,,,,,,,,,,,,
5c8974ef34daa70015e92daf,TCN,2024-06-10_12h19.41.001,LearnStrategy,2023.2.3,Win32,100,,,,,,,,,,,5,14,4,3,,,,,,,,,,,,,,,,,,,,,,,,,,,,
5c8974ef34daa70015e92daf,TCN,2024-06-10_12h19.41.001,LearnStrategy,2023.2.3,Win32,100,,,,,,,,,,,2,05,4,4,,,,,,,,,,,,,,,,,,,,,,,,,,,,
5c8974ef34daa70015e92daf,TCN,2024-06-10_12h19.41.001,LearnStrategy,2023.2.3,Win32,100,,,,,,,,,,,2,09,4,5,,,,,,,,,,,,,,,,,,,,,,,,,,,,
5c8974ef34daa70015e92daf,TCN,2024-06-10_12h19.41.001,LearnStrategy,2023.2.3,Win32,100,,,,,,,,,,,6,13,4,6,,,,,,,,,,,,,,,,,,,,,,,,,,,,
5c8974ef34daa70015e92daf,TCN,2024-06-10_12h19.41.001,LearnStrategy,2023.2.3,Win32,100,,,,,,,,,,,3,13,4,7,,,,,,,,,,,,,,,,,,,,,,,,,,,,
5c8974ef34daa70015e92daf,TCN,2024-06-10_12h19.41.001,LearnStrategy,2023.2.3,Win32,100,,,,,,,,,,,1,16,4,8,,,,,,,,,,,,,,,,,,,,,,,,,,,,
5c8974ef34daa70015e92daf,TCN,2024-06-10_12h19.41.001,LearnStrategy,2023.2.3,Win32,100,,,,,,,,,,,8,14,5,1,,,,,,,,,,,,,,,,,,,,,,,,,,,,
5c8974ef34daa70015e92daf,TCN,2024-06-10_12h19.41.001,LearnStrategy,2023.2.3,Win32,100,,,,,,,,,,,4,11,5,2,,,,,,,,,,,,,,,,,,,,,,,,,,,,
5c8974ef34daa70015e92daf,TCN,2024-06-10_12h19.41.001,LearnStrategy,2023.2.3,Win32,100,,,,,,,,,,,2,01,5,3,,,,,,,,,,,,,,,,,,,,,,,,,,,,
5c8974ef34daa70015e92daf,TCN,2024-06-10_12h19.41.001,LearnStrategy,2023.2.3,Win32,100,,,,,,,,,,,7,06,5,4,,,,,,,,,,,,,,,,,,,,,,,,,,,,
5c8974ef34daa70015e92daf,TCN,2024-06-10_12h19.41.001,LearnStrategy,2023.2.3,Win32,100,,,,,,,,,,,4,08,5,5,,,,,,,,,,,,,,,,,,,,,,,,,,,,
5c8974ef34daa70015e92daf,TCN,2024-06-10_12h19.41.001,LearnStrategy,2023.2.3,Win32,100,,,,,,,,,,,5,16,5,6,,,,,,,,,,,,,,,,,,,,,,,,,,,,
5c8974ef34daa70015e92daf,TCN,2024-06-10_12h19.41.001,LearnStrategy,2023.2.3,Win32,100,,,,,,,,,,,1,11,5,7,,,,,,,,,,,,,,,,,,,,,,,,,,,,
5c8974ef34daa70015e92daf,TCN,2024-06-10_12h19.41.001,LearnStrategy,2023.2.3,Win32,100,,,,,,,,,,,7,13,5,8,,,,,,,,,,,,,,,,,,,,,,,,,,,,
5c8974ef34daa70015e92daf,TCN,2024-06-10_12h19.41.001,LearnStrategy,2023.2.3,Win32,100,,,,,,,,,,,8,10,6,1,,,,,,,,,,,,,,,,,,,,,,,,,,,,
5c8974ef34daa70015e92daf,TCN,2024-06-10_12h19.41.001,LearnStrategy,2023.2.3,Win32,100,,,,,,,,,,,3,08,6,2,,,,,,,,,,,,,,,,,,,,,,,,,,,,
5c8974ef34daa70015e92daf,TCN,2024-06-10_12h19.41.001,LearnStrategy,2023.2.3,Win32,100,,,,,,,,,,,4,05,6,3,,,,,,,,,,,,,,,,,,,,,,,,,,,,
5c8974ef34daa70015e92daf,TCN,2024-06-10_12h19.41.001,LearnStrategy,2023.2.3,Win32,100,,,,,,,,,,,6,06,6,4,,,,,,,,,,,,,,,,,,,,,,,,,,,,
5c8974ef34daa70015e92daf,TCN,2024-06-10_12h19.41.001,LearnStrategy,2023.2.3,Win32,100,,,,,,,,,,,4,15,6,5,,,,,,,,,,,,,,,,,,,,,,,,,,,,
5c8974ef34daa70015e92daf,TCN,2024-06-10_12h19.41.001,LearnStrategy,2023.2.3,Win32,100,,,,,,,,,,,5,07,6,6,,,,,,,,,,,,,,,,,,,,,,,,,,,,
5c8974ef34daa70015e92daf,TCN,2024-06-10_12h19.41.001,LearnStrategy,2023.2.3,Win32,100,,,,,,,,,,,5,08,6,7,,,,,,,,,,,,,,,,,,,,,,,,,,,,
5c8974ef34daa70015e92daf,TCN,2024-06-10_12h19.41.001,LearnStrategy,2023.2.3,Win32,100,,,,,,,,,,,4,10,6,8,,,,,,,,,,,,,,,,,,,,,,,,,,,,