participant,condition,date,expName,psychopyVersion,OS,frameRate,block,phase,trial,learn_mouse.x,learn_mouse.y,learn_mouse.leftButton,learn_mouse.midButton,learn_mouse.rightButton,learn_mouse.time,learn_mouse.clicked_name,cat,token,row,col,t_select,cat_mouse_l.x,cat_mouse_l.y,cat_mouse_l.leftButton,cat_mouse_l.midButton,cat_mouse_l.rightButton,cat_mouse_l.time,cat_mouse_l.clicked_name,resp,t_resp,corr,train_trials.thisRepN,train_trials.thisTrialN,train_trials.thisN,train_trials.thisIndex,train_trials.ran,cat_mouse_t.x,cat_mouse_t.y,cat_mouse_t.leftButton,cat_mouse_t.midButton,cat_mouse_t.rightButton,cat_mouse_t.time,cat_mouse_t.clicked_name,test_trials.thisRepN,test_trials.thisTrialN,test_trials.thisN,test_trials.thisIndex,test_trials.ran,Bonus
5c8db07eb1f89a0016777fe0,SCN,2024-06-21_12h46.02.572,LearnStrategy,2023.2.3,Win32,59.88023952,,,,,,,,,,,,,,,,,,,,,,,,,,,,,,,,,,,,,,,,,,,
5c8db07eb1f89a0016777fe0,SCN,2024-06-21_12h46.02.572,LearnStrategy,2023.2.3,Win32,59.88023952,1,1,1,-0.063125897,0.089696109,1,0,0,2.6415,Diorite_08,3,08,4,4,2.641,0.148972507,-0.250217024,1,0,0,2.4138,Diorite_rect,3,2.414,1,0,0,0,0,1,,,,,,,,,,,,,
5c8db07eb1f89a0016777fe0,SCN,2024-06-21_12h46.02.572,LearnStrategy,2023.2.3,Win32,59.88023952,1,1,2,0.08228652,0.089696109,1,0,0,3.2307,Gabbro_12,4,12,4,5,3.231,-0.152040517,-0.252069542,1,0,0,1.6736,Basalt_rect,2,1.674,0,1,0,1,0,1,,,,,,,,,,,,,
5c8db07eb1f89a0016777fe0,SCN,2024-06-21_12h46.02.572,LearnStrategy,2023.2.3,Win32,59.88023952,1,1,3,0.434240316,0.086917507,1,0,0,1.5488,Pegmatite_16,6,16,4,7,1.549,0.19250347,-0.408596188,1,0,0,3.0665,Peridotite_rect,7,3.067,0,2,0,2,0,1,,,,,,,,,,,,,
5c8db07eb1f89a0016777fe0,SCN,2024-06-21_12h46.02.572,LearnStrategy,2023.2.3,Win32,59.88023952,1,1,4,-0.373400897,-0.098321277,1,0,0,1.4431,Pegmatite_06,6,06,3,2,1.443,-0.350246049,-0.258552783,1,0,0,1.3232,Andesite_rect,1,1.323,0,3,0,3,0,1,,,,,,,,,,,,,
5c8db07eb1f89a0016777fe0,SCN,2024-06-21_12h46.02.572,LearnStrategy,2023.2.3,Win32,59.88023952,1,1,5,-0.207612232,-0.089059258,1,0,0,1.6809,Pumice_06,8,06,3,3,1.681,-0.378958055,-0.390998631,1,0,0,1.9082,Obsidian_rect,5,1.908,0,4,0,4,0,1,,,,,,,,,,,,,
5c8db07eb1f89a0016777fe0,SCN,2024-06-21_12h46.02.572,LearnStrategy,2023.2.3,Win32,59.88023952,1,1,6,0.592619392,0.067467431,1,0,0,1.8802,Peridotite_14,7,14,4,8,1.88,0.469435608,-0.418784378,1,0,0,1.4415,Pumice_rect,8,1.441,0,5,0,5,0,1,,,,,,,,,,,,,
5c8db07eb1f89a0016777fe0,SCN,2024-06-21_12h46.02.572,LearnStrategy,2023.2.3,Win32,59.88023952,1,1,7,-0.229840777,-0.252995669,1,0,0,2.0318,Diorite_11,3,11,2,3,2.032,0.150824849,-0.252069542,1,0,0,1.8667,Diorite_rect,3,1.867,1,6,0,6,0,1,,,,,,,,,,,,,
5c8db07eb1f89a0016777fe0,SCN,2024-06-21_12h46.02.572,LearnStrategy,2023.2.3,Win32,59.88023952,1,1,8,0.068393647,-0.082575973,1,0,0,1.7821,Basalt_02,2,02,3,5,1.782,-0.073314087,-0.251143239,1,0,0,1.8746,Basalt_rect,2,1.875,1,7,0,7,0,1,,,,,,,,,,,,,
5c8db07eb1f89a0016777fe0,SCN,2024-06-21_12h46.02.572,LearnStrategy,2023.2.3,Win32,59.88023952,1,1,9,0.397192595,-0.079797372,1,0,0,1.7643,Peridotite_13,7,13,3,7,1.764,-0.081649758,-0.410448618,1,0,0,2.1009,Pegmatite_rect,6,2.101,0,8,0,8,0,1,,,,,,,,,,,,,
5c8db07eb1f89a0016777fe0,SCN,2024-06-21_12h46.02.572,LearnStrategy,2023.2.3,Win32,59.88023952,1,1,10,0.253632431,-0.282633846,1,0,0,1.9811,Obsidian_10,5,10,2,6,1.981,-0.362286536,-0.255774226,1,0,0,3.2792,Andesite_rect,1,3.279,0,9,0,9,0,1,,,,,,,,,,,,,
5c8db07eb1f89a0016777fe0,SCN,2024-06-21_12h46.02.572,LearnStrategy,2023.2.3,Win32,59.88023952,1,1,11,-0.509551384,-0.428046352,1,0,0,1.4963,Obsidian_02,5,02,1,1,1.496,-0.365991308,-0.390998631,1,0,0,1.8037,Obsidian_rect,5,1.804,1,10,0,10,0,1,,,,,,,,,,,,,
5c8db07eb1f89a0016777fe0,SCN,2024-06-21_12h46.02.572,LearnStrategy,2023.2.3,Win32,59.88023952,1,1,12,0.064688874,-0.400260428,1,0,0,1.3821,Obsidian_12,5,12,1,5,1.382,-0.325238859,-0.392850884,1,0,0,0.8479,Obsidian_rect,5,0.848,1,11,0,11,0,1,,,,,,,,,,,,,
5c8db07eb1f89a0016777fe0,SCN,2024-06-21_12h46.02.572,LearnStrategy,2023.2.3,Win32,59.88023952,1,1,13,0.531490696,-0.241881353,1,0,0,1.1307,Andesite_16,1,16,2,8,1.131,0.163791596,-0.406743846,1,0,0,2.3109,Peridotite_rect,7,2.311,0,12,0,12,0,1,,,,,,,,,,,,,
5c8db07eb1f89a0016777fe0,SCN,2024-06-21_12h46.02.572,LearnStrategy,2023.2.3,Win32,59.88023952,1,1,14,-0.553082501,0.219363244,1,0,0,1.8812,Gabbro_13,4,13,5,1,1.881,-0.337279302,-0.250217024,1,0,0,1.4457,Andesite_rect,1,1.446,0,13,0,13,0,1,,,,,,,,,,,,,
5c8db07eb1f89a0016777fe0,SCN,2024-06-21_12h46.02.572,LearnStrategy,2023.2.3,Win32,59.88023952,1,1,15,-0.374327068,0.247149058,1,0,0,1.3309,Pumice_15,8,15,5,2,1.331,0.092474621,-0.417858162,1,0,0,2.6302,Peridotite_rect,7,2.63,0,14,0,14,0,1,,,,,,,,,,,,,
5c8db07eb1f89a0016777fe0,SCN,2024-06-21_12h46.02.572,LearnStrategy,2023.2.3,Win32,59.88023952,1,1,16,-0.092764163,0.257337203,1,0,0,2.3322,Obsidian_14,5,14,5,4,2.332,-0.341910289,-0.403039074,1,0,0,1.3745,Obsidian_rect,5,1.375,1,15,0,15,0,1,,,,,,,,,,,,,
5c8db07eb1f89a0016777fe0,SCN,2024-06-21_12h46.02.572,LearnStrategy,2023.2.3,Win32,59.88023952,1,2,1,,,,,,,,3,06,,,,,,,,,,,2,4.963,0,,,,,,-0.107583252,-0.261331428,1,0,0,4.9632,Basalt_rect,0,0,0,0,1,
5c8db07eb1f89a0016777fe0,SCN,2024-06-21_12h46.02.572,LearnStrategy,2023.2.3,Win32,59.88023952,1,2,2,,,,,,,,2,04,,,,,,,,,,,5,1.419,0,,,,,,-0.334500745,-0.380810441,1,0,0,1.4187,Obsidian_rect,1,0,1,0,1,
5c8db07eb1f89a0016777fe0,SCN,2024-06-21_12h46.02.572,LearnStrategy,2023.2.3,Win32,59.88023952,1,2,3,,,,,,,,4,15,,,,,,,,,,,4,2.261,1,,,,,,0.402749621,-0.230766992,1,0,0,2.2613,Gabbro_rect,2,0,2,0,1,
5c8db07eb1f89a0016777fe0,SCN,2024-06-21_12h46.02.572,LearnStrategy,2023.2.3,Win32,59.88023952,1,2,4,,,,,,,,5,04,,,,,,,,,,,5,1.266,1,,,,,,-0.445643998,-0.379884226,1,0,0,1.2662,Obsidian_rect,3,0,3,0,1,
5c8db07eb1f89a0016777fe0,SCN,2024-06-21_12h46.02.572,LearnStrategy,2023.2.3,Win32,59.88023952,1,2,5,,,,,,,,6,03,,,,,,,,,,,6,4.044,1,,,,,,-0.14926196,-0.410448618,1,0,0,4.0441,Pegmatite_rect,4,0,4,0,1,
5c8db07eb1f89a0016777fe0,SCN,2024-06-21_12h46.02.572,LearnStrategy,2023.2.3,Win32,59.88023952,1,2,6,,,,,,,,1,01,,,,,,,,,,,5,3.322,0,,,,,,-0.372474681,-0.404891504,1,0,0,3.322,Obsidian_rect,5,0,5,0,1,
5c8db07eb1f89a0016777fe0,SCN,2024-06-21_12h46.02.572,LearnStrategy,2023.2.3,Win32,59.88023952,1,2,7,,,,,,,,7,15,,,,,,,,,,,7,2.314,1,,,,,,0.073950761,-0.409522491,1,0,0,2.3137,Peridotite_rect,6,0,6,0,1,
5c8db07eb1f89a0016777fe0,SCN,2024-06-21_12h46.02.572,LearnStrategy,2023.2.3,Win32,59.88023952,1,2,8,,,,,,,,6,05,,,,,,,,,,,5,2.803,0,,,,,,-0.324312599,-0.409522491,1,0,0,2.8033,Obsidian_rect,7,0,7,0,1,
5c8db07eb1f89a0016777fe0,SCN,2024-06-21_12h46.02.572,LearnStrategy,2023.2.3,Win32,59.88023952,1,2,9,,,,,,,,4,03,,,,,,,,,,,3,2.795,0,,,,,,0.095253267,-0.248364682,1,0,0,2.7951,Diorite_rect,8,0,8,0,1,
5c8db07eb1f89a0016777fe0,SCN,2024-06-21_12h46.02.572,LearnStrategy,2023.2.3,Win32,59.88023952,1,2,10,,,,,,,,3,12,,,,,,,,,,,2,2.237,0,,,,,,-0.056642568,-0.261331428,1,0,0,2.2369,Basalt_rect,9,0,9,0,1,
5c8db07eb1f89a0016777fe0,SCN,2024-06-21_12h46.02.572,LearnStrategy,2023.2.3,Win32,59.88023952,1,2,11,,,,,,,,2,10,,,,,,,,,,,5,1.478,0,,,,,,-0.3270912,-0.395629529,1,0,0,1.478,Obsidian_rect,10,0,10,0,1,
5c8db07eb1f89a0016777fe0,SCN,2024-06-21_12h46.02.572,LearnStrategy,2023.2.3,Win32,59.88023952,1,2,12,,,,,,,,8,05,,,,,,,,,,,8,1.964,1,,,,,,0.324023102,-0.404891504,1,0,0,1.964,Pumice_rect,11,0,11,0,1,
5c8db07eb1f89a0016777fe0,SCN,2024-06-21_12h46.02.572,LearnStrategy,2023.2.3,Win32,59.88023952,1,2,13,,,,,,,,5,08,,,,,,,,,,,5,1.258,1,,,,,,-0.362286536,-0.404891504,1,0,0,1.2583,Obsidian_rect,12,0,12,0,1,
5c8db07eb1f89a0016777fe0,SCN,2024-06-21_12h46.02.572,LearnStrategy,2023.2.3,Win32,59.88023952,1,2,14,,,,,,,,7,05,,,,,,,,,,,6,2.807,0,,,,,,-0.045528252,-0.394703314,1,0,0,2.8069,Pegmatite_rect,13,0,13,0,1,
5c8db07eb1f89a0016777fe0,SCN,2024-06-21_12h46.02.572,LearnStrategy,2023.2.3,Win32,59.88023952,1,2,15,,,,,,,,8,14,,,,,,,,,,,8,1.269,1,,,,,,0.432387798,-0.419710504,1,0,0,1.2689,Pumice_rect,14,0,14,0,1,
5c8db07eb1f89a0016777fe0,SCN,2024-06-21_12h46.02.572,LearnStrategy,2023.2.3,Win32,59.88023952,1,2,16,,,,,,,,1,10,,,,,,,,,,,3,3.049,0,,,,,,0.159160608,-0.230766992,1,0,0,3.0487,Diorite_rect,15,0,15,0,1,
5c8db07eb1f89a0016777fe0,SCN,2024-06-21_12h46.02.572,LearnStrategy,2023.2.3,Win32,59.88023952,2,1,1,0.523154848,-0.392850884,1,0,0,1.7813,Andesite_05,1,05,1,8,1.781,-0.090911644,-0.265036201,1,0,0,1.4426,Basalt_rect,2,1.443,0,0,0,0,0,1,,,,,,,,,,,,,
5c8db07eb1f89a0016777fe0,SCN,2024-06-21_12h46.02.572,LearnStrategy,2023.2.3,Win32,59.88023952,2,1,2,0.404601874,-0.443791568,1,0,0,1.0469,Gabbro_08,4,08,1,7,1.047,0.199913014,-0.27151953,1,0,0,2.1247,Diorite_rect,3,2.125,0,1,0,1,0,1,,,,,,,,,,,,,
5c8db07eb1f89a0016777fe0,SCN,2024-06-21_12h46.02.572,LearnStrategy,2023.2.3,Win32,59.88023952,2,1,3,-0.079797416,-0.44101301,1,0,0,1.164,Andesite_07,1,07,1,4,1.164,0.127670001,-0.396555656,1,0,0,1.9145,Peridotite_rect,7,1.914,0,2,0,2,0,1,,,,,,,,,,,,,
5c8db07eb1f89a0016777fe0,SCN,2024-06-21_12h46.02.572,LearnStrategy,2023.2.3,Win32,59.88023952,2,1,4,-0.396555745,-0.401186644,1,0,0,1.1657,Andesite_02,1,02,1,2,1.166,0.455542646,-0.388219985,1,0,0,0.9956,Pumice_rect,8,0.996,0,3,0,3,0,1,,,,,,,,,,,,,
5c8db07eb1f89a0016777fe0,SCN,2024-06-21_12h46.02.572,LearnStrategy,2023.2.3,Win32,59.88023952,2,1,5,-0.394703403,-0.127033327,1,0,0,1.0312,Pegmatite_06,6,06,3,2,1.031,-0.094616505,-0.390998631,1,0,0,2.1266,Pegmatite_rect,6,2.127,1,4,0,4,0,1,,,,,,,,,,,,,
5c8db07eb1f89a0016777fe0,SCN,2024-06-21_12h46.02.572,LearnStrategy,2023.2.3,Win32,59.88023952,2,1,6,-0.221505062,-0.109435594,1,0,0,1.2461,Pumice_06,8,06,3,3,1.246,0.417568709,-0.402112859,1,0,0,0.8503,Pumice_rect,8,0.85,1,5,0,5,0,1,,,,,,,,,,,,,
5c8db07eb1f89a0016777fe0,SCN,2024-06-21_12h46.02.572,LearnStrategy,2023.2.3,Win32,59.88023952,2,1,7,-0.535484811,0.093400881,1,0,0,1.0979,Obsidian_05,5,05,4,1,1.098,-0.365991308,-0.389146112,1,0,0,1.2714,Obsidian_rect,5,1.271,1,6,0,6,0,1,,,,,,,,,,,,,
5c8db07eb1f89a0016777fe0,SCN,2024-06-21_12h46.02.572,LearnStrategy,2023.2.3,Win32,59.88023952,2,1,8,-0.050159239,0.098031868,1,0,0,0.9984,Diorite_08,3,08,4,4,0.998,0.173053394,-0.253921796,1,0,0,1.3211,Diorite_rect,3,1.321,1,7,0,7,0,1,,,,,,,,,,,,,
5c8db07eb1f89a0016777fe0,SCN,2024-06-21_12h46.02.572,LearnStrategy,2023.2.3,Win32,59.88023952,2,1,9,-0.212243131,0.429609263,1,0,0,1.7815,Diorite_14,3,14,6,3,1.781,0.150824849,-0.264109986,1,0,0,1.3986,Diorite_rect,3,1.399,1,8,0,8,0,1,,,,,,,,,,,,,
5c8db07eb1f89a0016777fe0,SCN,2024-06-21_12h46.02.572,LearnStrategy,2023.2.3,Win32,59.88023952,2,1,10,0.064688874,0.098031868,1,0,0,1.1149,Gabbro_12,4,12,4,5,1.115,-0.121476125,-0.265036201,1,0,0,2.0066,Basalt_rect,2,2.007,0,9,0,9,0,1,,,,,,,,,,,,,
5c8db07eb1f89a0016777fe0,SCN,2024-06-21_12h46.02.572,LearnStrategy,2023.2.3,Win32,59.88023952,2,1,11,0.383299633,0.099884254,1,0,0,1.2477,Pegmatite_16,6,16,4,7,1.248,0.161013039,-0.240028922,1,0,0,1.5292,Diorite_rect,3,1.529,0,10,0,10,0,1,,,,,,,,,,,,,
5c8db07eb1f89a0016777fe0,SCN,2024-06-21_12h46.02.572,LearnStrategy,2023.2.3,Win32,59.88023952,2,1,12,0.072098419,-0.248364682,1,0,0,1.4312,Pegmatite_13,6,13,2,5,1.431,-0.094616505,-0.417858162,1,0,0,0.9292,Pegmatite_rect,6,0.929,1,11,0,11,0,1,,,,,,,,,,,,,
5c8db07eb1f89a0016777fe0,SCN,2024-06-21_12h46.02.572,LearnStrategy,2023.2.3,Win32,59.88023952,2,1,13,-0.243733739,-0.272445745,1,0,0,1.1487,Diorite_11,3,11,2,3,1.149,0.35736614,-0.267814758,1,0,0,1.8514,Gabbro_rect,4,1.851,0,12,0,12,0,1,,,,,,,,,,,,,
5c8db07eb1f89a0016777fe0,SCN,2024-06-21_12h46.02.572,LearnStrategy,2023.2.3,Win32,59.88023952,2,1,14,-0.217800289,0.387930543,1,0,0,1.7314,Diorite_14,3,14,6,3,1.731,0.148972507,-0.245586125,1,0,0,0.9054,Diorite_rect,3,0.905,1,13,0,13,0,1,,,,,,,,,,,,,
5c8db07eb1f89a0016777fe0,SCN,2024-06-21_12h46.02.572,LearnStrategy,2023.2.3,Win32,59.88023952,2,1,15,0.376816215,0.438871204,1,0,0,0.9646,Diorite_02,3,02,6,7,0.965,0.107293798,-0.251143239,1,0,0,0.8077,Diorite_rect,3,0.808,1,14,0,14,0,1,,,,,,,,,,,,,
5c8db07eb1f89a0016777fe0,SCN,2024-06-21_12h46.02.572,LearnStrategy,2023.2.3,Win32,59.88023952,2,1,16,0.093400837,0.276787279,1,0,0,1.2804,Basalt_14,2,14,5,5,1.28,0.371259013,-0.251143239,1,0,0,2.4788,Gabbro_rect,4,2.479,0,15,0,15,0,1,,,,,,,,,,,,,
5c8db07eb1f89a0016777fe0,SCN,2024-06-21_12h46.02.572,LearnStrategy,2023.2.3,Win32,59.88023952,2,2,1,,,,,,,,5,09,,,,,,,,,,,5,1.54,1,,,,,,-0.363212751,-0.411374833,1,0,0,1.5399,Obsidian_rect,0,0,0,0,1,
5c8db07eb1f89a0016777fe0,SCN,2024-06-21_12h46.02.572,LearnStrategy,2023.2.3,Win32,59.88023952,2,2,2,,,,,,,,6,15,,,,,,,,,,,6,4.699,1,,,,,,-0.151114346,-0.401186644,1,0,0,4.699,Pegmatite_rect,1,0,1,0,1,
5c8db07eb1f89a0016777fe0,SCN,2024-06-21_12h46.02.572,LearnStrategy,2023.2.3,Win32,59.88023952,2,2,3,,,,,,,,7,08,,,,,,,,,,,7,7.168,1,,,,,,0.213806064,-0.408596188,1,0,0,7.1683,Peridotite_rect,2,0,2,0,1,
5c8db07eb1f89a0016777fe0,SCN,2024-06-21_12h46.02.572,LearnStrategy,2023.2.3,Win32,59.88023952,2,2,4,,,,,,,,5,16,,,,,,,,,,,5,1.239,1,,,,,,-0.341910289,-0.416005732,1,0,0,1.2389,Obsidian_rect,3,0,3,0,1,
5c8db07eb1f89a0016777fe0,SCN,2024-06-21_12h46.02.572,LearnStrategy,2023.2.3,Win32,59.88023952,2,2,5,,,,,,,,1,09,,,,,,,,,,,2,2.814,0,,,,,,-0.131664315,-0.262257555,1,0,0,2.8136,Basalt_rect,4,0,4,0,1,
5c8db07eb1f89a0016777fe0,SCN,2024-06-21_12h46.02.572,LearnStrategy,2023.2.3,Win32,59.88023952,2,2,6,,,,,,,,8,03,,,,,,,,,,,8,1.322,1,,,,,,0.317539773,-0.418784378,1,0,0,1.3216,Pumice_rect,5,0,5,0,1,
5c8db07eb1f89a0016777fe0,SCN,2024-06-21_12h46.02.572,LearnStrategy,2023.2.3,Win32,59.88023952,2,2,7,,,,,,,,7,12,,,,,,,,,,,7,4.216,1,,,,,,0.083212735,-0.400260428,1,0,0,4.2165,Peridotite_rect,6,0,6,0,1,
5c8db07eb1f89a0016777fe0,SCN,2024-06-21_12h46.02.572,LearnStrategy,2023.2.3,Win32,59.88023952,2,2,8,,,,,,,,2,09,,,,,,,,,,,2,3.19,1,,,,,,-0.1307381,-0.249290897,1,0,0,3.1904,Basalt_rect,7,0,7,0,1,
5c8db07eb1f89a0016777fe0,SCN,2024-06-21_12h46.02.572,LearnStrategy,2023.2.3,Win32,59.88023952,2,2,9,,,,,,,,8,16,,,,,,,,,,,8,2.911,1,,,,,,0.390709089,-0.416005732,1,0,0,2.9109,Pumice_rect,8,0,8,0,1,
5c8db07eb1f89a0016777fe0,SCN,2024-06-21_12h46.02.572,LearnStrategy,2023.2.3,Win32,59.88023952,2,2,10,,,,,,,,3,07,,,,,,,,,,,6,7.71,0,,,,,,-0.064052113,-0.402112859,1,0,0,7.7102,Pegmatite_rect,9,0,9,0,1,
5c8db07eb1f89a0016777fe0,SCN,2024-06-21_12h46.02.572,LearnStrategy,2023.2.3,Win32,59.88023952,2,2,11,,,,,,,,4,01,,,,,,,,,,,4,3.279,1,,,,,,0.391635304,-0.264109986,1,0,0,3.2786,Gabbro_rect,10,0,10,0,1,
5c8db07eb1f89a0016777fe0,SCN,2024-06-21_12h46.02.572,LearnStrategy,2023.2.3,Win32,59.88023952,2,2,12,,,,,,,,4,11,,,,,,,,,,,4,1.838,1,,,,,,0.403675836,-0.254848011,1,0,0,1.8377,Gabbro_rect,11,0,11,0,1,
5c8db07eb1f89a0016777fe0,SCN,2024-06-21_12h46.02.572,LearnStrategy,2023.2.3,Win32,59.88023952,2,2,13,,,,,,,,2,11,,,,,,,,,,,2,2.09,1,,,,,,-0.133516657,-0.262257555,1,0,0,2.0897,Basalt_rect,12,0,12,0,1,
5c8db07eb1f89a0016777fe0,SCN,2024-06-21_12h46.02.572,LearnStrategy,2023.2.3,Win32,59.88023952,2,2,14,,,,,,,,6,09,,,,,,,,,,,6,2.625,1,,,,,,-0.064052113,-0.390072239,1,0,0,2.6251,Pegmatite_rect,13,0,13,0,1,
5c8db07eb1f89a0016777fe0,SCN,2024-06-21_12h46.02.572,LearnStrategy,2023.2.3,Win32,59.88023952,2,2,15,,,,,,,,3,09,,,,,,,,,,,3,1.72,1,,,,,,0.10914614,-0.254848011,1,0,0,1.7202,Diorite_rect,14,0,14,0,1,
5c8db07eb1f89a0016777fe0,SCN,2024-06-21_12h46.02.572,LearnStrategy,2023.2.3,Win32,59.88023952,2,2,16,,,,,,,,1,14,,,,,,,,,,,6,5.555,0,,,,,,-0.102952264,-0.416931947,1,0,0,5.555,Pegmatite_rect,15,0,15,0,1,
5c8db07eb1f89a0016777fe0,SCN,2024-06-21_12h46.02.572,LearnStrategy,2023.2.3,Win32,59.88023952,3,1,1,0.073950761,-0.104804606,1,0,0,1.5702,Basalt_02,2,02,3,5,1.57,0.314761216,-0.252069542,1,0,0,5.1198,Gabbro_rect,4,5.12,0,0,0,0,0,1,,,,,,,,,,,,,
5c8db07eb1f89a0016777fe0,SCN,2024-06-21_12h46.02.572,LearnStrategy,2023.2.3,Win32,59.88023952,3,1,2,-0.248364638,0.085991336,1,0,0,1.0481,Pumice_04,8,04,4,3,1.048,0.397192595,-0.41230096,1,0,0,1.5871,Pumice_rect,8,1.587,1,1,0,1,0,1,,,,,,,,,,,,,
5c8db07eb1f89a0016777fe0,SCN,2024-06-21_12h46.02.572,LearnStrategy,2023.2.3,Win32,59.88023952,3,1,3,-0.556787273,0.427756877,1,0,0,0.8805,Peridotite_04,7,04,6,1,0.88,0.104515153,-0.234471764,1,0,0,1.3269,Diorite_rect,3,1.327,0,2,0,2,0,1,,,,,,,,,,,,,
5c8db07eb1f89a0016777fe0,SCN,2024-06-21_12h46.02.572,LearnStrategy,2023.2.3,Win32,59.88023952,3,1,4,-0.340984074,0.39626628,1,0,0,0.8811,Obsidian_11,5,11,6,2,0.881,-0.377105669,-0.416931947,1,0,0,0.9316,Obsidian_rect,5,0.932,1,3,0,3,0,1,,,,,,,,,,,,,
5c8db07eb1f89a0016777fe0,SCN,2024-06-21_12h46.02.572,LearnStrategy,2023.2.3,Win32,59.88023952,3,1,5,-0.206685929,0.397192473,1,0,0,0.761,Diorite_14,3,14,6,3,0.761,0.139710533,-0.258552783,1,0,0,1.2905,Diorite_rect,3,1.291,1,4,0,4,0,1,,,,,,,,,,,,,
5c8db07eb1f89a0016777fe0,SCN,2024-06-21_12h46.02.572,LearnStrategy,2023.2.3,Win32,59.88023952,3,1,6,-0.044601948,0.408306795,1,0,0,0.9804,Peridotite_10,7,10,6,4,0.98,0.046164925,-0.403965289,1,0,0,1.954,Peridotite_rect,7,1.954,1,5,0,5,0,1,,,,,,,,,,,,,
5c8db07eb1f89a0016777fe0,SCN,2024-06-21_12h46.02.572,LearnStrategy,2023.2.3,Win32,59.88023952,3,1,7,0.070245988,0.415716356,1,0,0,1.4152,Peridotite_02,7,02,6,5,1.415,0.087843722,-0.392850884,1,0,0,1.3594,Peridotite_rect,7,1.359,1,6,0,6,0,1,,,,,,,,,,,,,
5c8db07eb1f89a0016777fe0,SCN,2024-06-21_12h46.02.572,LearnStrategy,2023.2.3,Win32,59.88023952,3,1,8,0.261968014,0.386078146,1,0,0,0.7817,Basalt_06,2,06,6,6,0.782,-0.31597684,-0.390998631,1,0,0,1.0053,Obsidian_rect,5,1.005,0,7,0,7,0,1,,,,,,,,,,,,,
5c8db07eb1f89a0016777fe0,SCN,2024-06-21_12h46.02.572,LearnStrategy,2023.2.3,Win32,59.88023952,3,1,9,0.387004317,0.402749643,1,0,0,0.9145,Diorite_02,3,02,6,7,0.915,0.123965229,-0.257626568,1,0,0,0.9233,Diorite_rect,3,0.923,1,8,0,8,0,1,,,,,,,,,,,,,
5c8db07eb1f89a0016777fe0,SCN,2024-06-21_12h46.02.572,LearnStrategy,2023.2.3,Win32,59.88023952,3,1,10,0.579652645,0.399044859,1,0,0,0.8295,Basalt_01,2,01,6,8,0.83,-0.075166429,-0.26318377,1,0,0,1.1128,Basalt_rect,2,1.113,1,9,0,9,0,1,,,,,,,,,,,,,
5c8db07eb1f89a0016777fe0,SCN,2024-06-21_12h46.02.572,LearnStrategy,2023.2.3,Win32,59.88023952,3,1,11,-0.553082501,0.232329969,1,0,0,1.0158,Gabbro_13,4,13,5,1,1.016,-0.190940669,-0.232619378,1,0,0,2.1812,Basalt_rect,2,2.181,0,10,0,10,0,1,,,,,,,,,,,,,
5c8db07eb1f89a0016777fe0,SCN,2024-06-21_12h46.02.572,LearnStrategy,2023.2.3,Win32,59.88023952,3,1,12,-0.507698998,0.092474666,1,0,0,1.6301,Obsidian_05,5,05,4,1,1.63,0.102662811,-0.403965289,1,0,0,1.0145,Peridotite_rect,7,1.014,0,11,0,11,0,1,,,,,,,,,,,,,
5c8db07eb1f89a0016777fe0,SCN,2024-06-21_12h46.02.572,LearnStrategy,2023.2.3,Win32,59.88023952,3,1,13,-0.364138922,0.071172204,1,0,0,0.9668,Pegmatite_10,6,10,4,2,0.967,0.10914614,-0.403965289,1,0,0,0.9697,Peridotite_rect,7,0.97,0,12,0,12,0,1,,,,,,,,,,,,,
5c8db07eb1f89a0016777fe0,SCN,2024-06-21_12h46.02.572,LearnStrategy,2023.2.3,Win32,59.88023952,3,1,14,0.392561608,-0.11036172,1,0,0,1.3817,Peridotite_13,7,13,3,7,1.382,-0.027930518,-0.399334302,1,0,0,1.3468,Pegmatite_rect,6,1.347,0,13,0,13,0,1,,,,,,,,,,,,,
5c8db07eb1f89a0016777fe0,SCN,2024-06-21_12h46.02.572,LearnStrategy,2023.2.3,Win32,59.88023952,3,1,15,-0.237250365,-0.440086795,1,0,0,1.2645,Peridotite_16,7,16,1,3,1.264,-0.064978328,-0.251143239,1,0,0,2.0206,Basalt_rect,2,2.021,0,14,0,14,0,1,,,,,,,,,,,,,
5c8db07eb1f89a0016777fe0,SCN,2024-06-21_12h46.02.572,LearnStrategy,2023.2.3,Win32,59.88023952,3,1,16,-0.381736612,-0.23632415,1,0,0,1.9806,Gabbro_09,4,09,2,2,1.981,-0.391924757,-0.395629529,1,0,0,1.8977,Obsidian_rect,5,1.898,0,15,0,15,0,1,,,,,,,,,,,,,
5c8db07eb1f89a0016777fe0,SCN,2024-06-21_12h46.02.572,LearnStrategy,2023.2.3,Win32,59.88023952,3,2,1,,,,,,,,4,16,,,,,,,,,,,4,5.541,1,,,,,,0.408306646,-0.256700441,1,0,0,5.5411,Gabbro_rect,0,0,0,0,1,
5c8db07eb1f89a0016777fe0,SCN,2024-06-21_12h46.02.572,LearnStrategy,2023.2.3,Win32,59.88023952,3,2,2,,,,,,,,2,16,,,,,,,,,,,2,5.273,1,,,,,,-0.199276429,-0.247438555,1,0,0,5.2727,Basalt_rect,1,0,1,0,1,
5c8db07eb1f89a0016777fe0,SCN,2024-06-21_12h46.02.572,LearnStrategy,2023.2.3,Win32,59.88023952,3,2,3,,,,,,,,4,05,,,,,,,,,,,6,1.767,0,,,,,,-0.081649758,-0.417858162,1,0,0,1.7666,Pegmatite_rect,2,0,2,0,1,
5c8db07eb1f89a0016777fe0,SCN,2024-06-21_12h46.02.572,LearnStrategy,2023.2.3,Win32,59.88023952,3,2,4,,,,,,,,1,03,,,,,,,,,,,4,2.573,0,,,,,,0.390709089,-0.261331428,1,0,0,2.573,Gabbro_rect,3,0,3,0,1,
5c8db07eb1f89a0016777fe0,SCN,2024-06-21_12h46.02.572,LearnStrategy,2023.2.3,Win32,59.88023952,3,2,5,,,,,,,,8,09,,,,,,,,,,,8,1.31,1,,,,,,0.444428329,-0.416005732,1,0,0,1.3096,Pumice_rect,4,0,4,0,1,
5c8db07eb1f89a0016777fe0,SCN,2024-06-21_12h46.02.572,LearnStrategy,2023.2.3,Win32,59.88023952,3,2,6,,,,,,,,6,08,,,,,,,,,,,6,3.898,1,,,,,,-0.049232936,-0.414153479,1,0,0,3.8979,Pegmatite_rect,5,0,5,0,1,
5c8db07eb1f89a0016777fe0,SCN,2024-06-21_12h46.02.572,LearnStrategy,2023.2.3,Win32,59.88023952,3,2,7,,,,,,,,7,07,,,,,,,,,,,6,1.489,0,,,,,,-0.054790138,-0.399334302,1,0,0,1.4891,Pegmatite_rect,6,0,6,0,1,
5c8db07eb1f89a0016777fe0,SCN,2024-06-21_12h46.02.572,LearnStrategy,2023.2.3,Win32,59.88023952,3,2,8,,,,,,,,7,06,,,,,,,,,,,6,1.372,0,,,,,,-0.06683067,-0.403039074,1,0,0,1.3717,Pegmatite_rect,7,0,7,0,1,
5c8db07eb1f89a0016777fe0,SCN,2024-06-21_12h46.02.572,LearnStrategy,2023.2.3,Win32,59.88023952,3,2,9,,,,,,,,5,07,,,,,,,,,,,5,1.791,1,,,,,,-0.326164985,-0.38729377,1,0,0,1.7911,Obsidian_rect,8,0,8,0,1,
5c8db07eb1f89a0016777fe0,SCN,2024-06-21_12h46.02.572,LearnStrategy,2023.2.3,Win32,59.88023952,3,2,10,,,,,,,,3,13,,,,,,,,,,,3,1.893,1,,,,,,0.05357447,-0.251143239,1,0,0,1.8934,Diorite_rect,9,0,9,0,1,
5c8db07eb1f89a0016777fe0,SCN,2024-06-21_12h46.02.572,LearnStrategy,2023.2.3,Win32,59.88023952,3,2,11,,,,,,,,3,16,,,,,,,,,,,2,2.155,0,,,,,,-0.062199771,-0.262257555,1,0,0,2.1549,Basalt_rect,10,0,10,0,1,
5c8db07eb1f89a0016777fe0,SCN,2024-06-21_12h46.02.572,LearnStrategy,2023.2.3,Win32,59.88023952,3,2,12,,,,,,,,5,06,,,,,,,,,,,5,1.326,1,,,,,,-0.336353131,-0.397481871,1,0,0,1.3257,Obsidian_rect,11,0,11,0,1,
5c8db07eb1f89a0016777fe0,SCN,2024-06-21_12h46.02.572,LearnStrategy,2023.2.3,Win32,59.88023952,3,2,13,,,,,,,,1,04,,,,,,,,,,,1,2.843,1,,,,,,-0.375253283,-0.250217024,1,0,0,2.8426,Andesite_rect,12,0,12,0,1,
5c8db07eb1f89a0016777fe0,SCN,2024-06-21_12h46.02.572,LearnStrategy,2023.2.3,Win32,59.88023952,3,2,14,,,,,,,,8,10,,,,,,,,,,,8,1.734,1,,,,,,0.373111443,-0.415079605,1,0,0,1.7337,Pumice_rect,13,0,13,0,1,
5c8db07eb1f89a0016777fe0,SCN,2024-06-21_12h46.02.572,LearnStrategy,2023.2.3,Win32,59.88023952,3,2,15,,,,,,,,6,12,,,,,,,,,,,7,2.622,0,,,,,,0.075803191,-0.391924757,1,0,0,2.6225,Peridotite_rect,14,0,14,0,1,
5c8db07eb1f89a0016777fe0,SCN,2024-06-21_12h46.02.572,LearnStrategy,2023.2.3,Win32,59.88023952,3,2,16,,,,,,,,2,05,,,,,,,,,,,2,4.513,1,,,,,,-0.142778631,-0.257626568,1,0,0,4.513,Basalt_rect,15,0,15,0,1,
5c8db07eb1f89a0016777fe0,SCN,2024-06-21_12h46.02.572,LearnStrategy,2023.2.3,Win32,59.88023952,4,1,1,-0.553082501,0.379594795,1,0,0,1.3483,Peridotite_04,7,04,6,1,1.348,0.060984102,-0.22891465,1,0,0,2,Diorite_rect,3,2,0,0,0,0,0,1,,,,,,,,,,,,,
5c8db07eb1f89a0016777fe0,SCN,2024-06-21_12h46.02.572,LearnStrategy,2023.2.3,Win32,59.88023952,4,1,2,-0.365065137,0.418494935,1,0,0,2.0479,Obsidian_11,5,11,6,2,2.048,-0.393777143,-0.410448618,1,0,0,1.3537,Obsidian_rect,5,1.354,1,1,0,1,0,1,,,,,,,,,,,,,
5c8db07eb1f89a0016777fe0,SCN,2024-06-21_12h46.02.572,LearnStrategy,2023.2.3,Win32,59.88023952,4,1,3,0.397192595,0.086917507,1,0,0,1.1308,Pegmatite_16,6,16,4,7,1.131,-0.082575973,-0.38544134,1,0,0,1.1689,Pegmatite_rect,6,1.169,1,2,0,2,0,1,,,,,,,,,,,,,
5c8db07eb1f89a0016777fe0,SCN,2024-06-21_12h46.02.572,LearnStrategy,2023.2.3,Win32,59.88023952,4,1,4,-0.251143283,-0.270593403,1,0,0,1.9346,Diorite_11,3,11,2,3,1.935,0.097105609,-0.250217024,1,0,0,1.7407,Diorite_rect,3,1.741,1,3,0,3,0,1,,,,,,,,,,,,,
5c8db07eb1f89a0016777fe0,SCN,2024-06-21_12h46.02.572,LearnStrategy,2023.2.3,Win32,59.88023952,4,1,5,-0.06034734,-0.09276403,1,0,0,1.048,Pumice_13,8,13,3,4,1.048,0.403675836,-0.397481871,1,0,0,0.9359,Pumice_rect,8,0.936,1,4,0,4,0,1,,,,,,,,,,,,,
5c8db07eb1f89a0016777fe0,SCN,2024-06-21_12h46.02.572,LearnStrategy,2023.2.3,Win32,59.88023952,4,1,6,-0.383588998,-0.088133132,1,0,0,1.1154,Pegmatite_06,6,06,3,2,1.115,-0.071461657,-0.403039074,1,0,0,0.8772,Pegmatite_rect,6,0.877,1,5,0,5,0,1,,,,,,,,,,,,,
5c8db07eb1f89a0016777fe0,SCN,2024-06-21_12h46.02.572,LearnStrategy,2023.2.3,Win32,59.88023952,4,1,7,-0.399334302,0.113777128,1,0,0,1.1143,Pegmatite_10,6,10,4,2,1.114,-0.117771353,-0.395629529,1,0,0,0.7541,Pegmatite_rect,6,0.754,1,6,0,6,0,1,,,,,,,,,,,,,
5c8db07eb1f89a0016777fe0,SCN,2024-06-21_12h46.02.572,LearnStrategy,2023.2.3,Win32,59.88023952,4,1,8,0.073950761,0.241591899,1,0,0,3.0807,Basalt_14,2,14,5,5,3.081,0.340694621,-0.245586125,1,0,0,1.5057,Gabbro_rect,4,1.506,0,7,0,7,0,1,,,,,,,,,,,,,
5c8db07eb1f89a0016777fe0,SCN,2024-06-21_12h46.02.572,LearnStrategy,2023.2.3,Win32,59.88023952,4,1,9,0.530564392,0.399971064,1,0,0,1.7637,Basalt_01,2,01,6,8,1.764,-0.128885669,-0.252069542,1,0,0,1.3393,Basalt_rect,2,1.339,1,8,0,8,0,1,,,,,,,,,,,,,
5c8db07eb1f89a0016777fe0,SCN,2024-06-21_12h46.02.572,LearnStrategy,2023.2.3,Win32,59.88023952,4,1,10,-0.523444323,-0.245586125,1,0,0,1.9211,Basalt_08,2,08,2,1,1.921,-0.070535442,-0.260405213,1,0,0,0.8616,Basalt_rect,2,0.862,1,9,0,9,0,1,,,,,,,,,,,,,
5c8db07eb1f89a0016777fe0,SCN,2024-06-21_12h46.02.572,LearnStrategy,2023.2.3,Win32,59.88023952,4,1,11,0.256410988,-0.268740973,1,0,0,0.9814,Obsidian_10,5,10,2,6,0.981,-0.357655593,-0.396555656,1,0,0,0.7829,Obsidian_rect,5,0.783,1,10,0,10,0,1,,,,,,,,,,,,,
5c8db07eb1f89a0016777fe0,SCN,2024-06-21_12h46.02.572,LearnStrategy,2023.2.3,Win32,59.88023952,4,1,12,0.527785659,-0.257626568,1,0,0,0.9169,Andesite_16,1,16,2,8,0.917,0.17120114,-0.22891465,1,0,0,0.7819,Diorite_rect,3,0.782,0,11,0,11,0,1,,,,,,,,,,,,,
5c8db07eb1f89a0016777fe0,SCN,2024-06-21_12h46.02.572,LearnStrategy,2023.2.3,Win32,59.88023952,4,1,13,0.565759772,-0.430824909,1,0,0,0.9814,Andesite_05,1,05,1,8,0.981,-0.36043415,-0.256700441,1,0,0,0.9069,Andesite_rect,1,0.907,1,12,0,12,0,1,,,,,,,,,,,,,
5c8db07eb1f89a0016777fe0,SCN,2024-06-21_12h46.02.572,LearnStrategy,2023.2.3,Win32,59.88023952,4,1,14,0.415716456,-0.415079605,1,0,0,0.8475,Gabbro_08,4,08,1,7,0.847,-0.382662827,-0.265962416,1,0,0,1.2338,Andesite_rect,1,1.234,0,13,0,13,0,1,,,,,,,,,,,,,
5c8db07eb1f89a0016777fe0,SCN,2024-06-21_12h46.02.572,LearnStrategy,2023.2.3,Win32,59.88023952,4,1,15,-0.05849491,-0.42248915,1,0,0,1.0657,Andesite_07,1,07,1,4,1.066,0.190651216,-0.267814758,1,0,0,4.3785,Diorite_rect,3,4.379,0,14,0,14,0,1,,,,,,,,,,,,,
5c8db07eb1f89a0016777fe0,SCN,2024-06-21_12h46.02.572,LearnStrategy,2023.2.3,Win32,59.88023952,4,1,16,-0.209464618,-0.23632415,1,0,0,1.5663,Diorite_11,3,11,2,3,1.566,-0.383588998,-0.249290897,1,0,0,0.6493,Andesite_rect,1,0.649,0,15,0,15,0,1,,,,,,,,,,,,,
5c8db07eb1f89a0016777fe0,SCN,2024-06-21_12h46.02.572,LearnStrategy,2023.2.3,Win32,59.88023952,4,2,1,,,,,,,,1,01,,,,,,,,,,,1,5.785,1,,,,,,-0.335426916,-0.257626568,1,0,0,5.7854,Andesite_rect,0,0,0,0,1,
5c8db07eb1f89a0016777fe0,SCN,2024-06-21_12h46.02.572,LearnStrategy,2023.2.3,Win32,59.88023952,4,2,2,,,,,,,,6,05,,,,,,,,,,,6,2.373,1,,,,,,-0.067756796,-0.395629529,1,0,0,2.3734,Pegmatite_rect,1,0,1,0,1,
5c8db07eb1f89a0016777fe0,SCN,2024-06-21_12h46.02.572,LearnStrategy,2023.2.3,Win32,59.88023952,4,2,3,,,,,,,,5,06,,,,,,,,,,,5,1.3,1,,,,,,-0.354876992,-0.382662783,1,0,0,1.3001,Obsidian_rect,2,0,2,0,1,
5c8db07eb1f89a0016777fe0,SCN,2024-06-21_12h46.02.572,LearnStrategy,2023.2.3,Win32,59.88023952,4,2,4,,,,,,,,6,15,,,,,,,,,,,6,1.274,1,,,,,,-0.132590442,-0.382662783,1,0,0,1.2735,Pegmatite_rect,3,0,3,0,1,
5c8db07eb1f89a0016777fe0,SCN,2024-06-21_12h46.02.572,LearnStrategy,2023.2.3,Win32,59.88023952,4,2,5,,,,,,,,8,09,,,,,,,,,,,8,1.293,1,,,,,,0.45091157,-0.397481871,1,0,0,1.2931,Pumice_rect,4,0,4,0,1,
5c8db07eb1f89a0016777fe0,SCN,2024-06-21_12h46.02.572,LearnStrategy,2023.2.3,Win32,59.88023952,4,2,6,,,,,,,,8,03,,,,,,,,,,,8,1.105,1,,,,,,0.381447026,-0.383588998,1,0,0,1.1046,Pumice_rect,5,0,5,0,1,
5c8db07eb1f89a0016777fe0,SCN,2024-06-21_12h46.02.572,LearnStrategy,2023.2.3,Win32,59.88023952,4,2,7,,,,,,,,2,10,,,,,,,,,,,2,5.407,1,,,,,,-0.114992796,-0.267814758,1,0,0,5.4065,Basalt_rect,6,0,6,0,1,
5c8db07eb1f89a0016777fe0,SCN,2024-06-21_12h46.02.572,LearnStrategy,2023.2.3,Win32,59.88023952,4,2,8,,,,,,,,7,06,,,,,,,,,,,6,1.106,0,,,,,,-0.11869748,-0.415079605,1,0,0,1.1062,Pegmatite_rect,7,0,7,0,1,
5c8db07eb1f89a0016777fe0,SCN,2024-06-21_12h46.02.572,LearnStrategy,2023.2.3,Win32,59.88023952,4,2,9,,,,,,,,1,14,,,,,,,,,,,3,2.029,0,,,,,,0.137858191,-0.260405213,1,0,0,2.0285,Diorite_rect,8,0,8,0,1,
5c8db07eb1f89a0016777fe0,SCN,2024-06-21_12h46.02.572,LearnStrategy,2023.2.3,Win32,59.88023952,4,2,10,,,,,,,,5,07,,,,,,,,,,,5,1.238,1,,,,,,-0.420636719,-0.413227087,1,0,0,1.2379,Obsidian_rect,9,0,9,0,1,
5c8db07eb1f89a0016777fe0,SCN,2024-06-21_12h46.02.572,LearnStrategy,2023.2.3,Win32,59.88023952,4,2,11,,,,,,,,4,15,,,,,,,,,,,2,2.605,0,,,,,,-0.061273556,-0.259478998,1,0,0,2.605,Basalt_rect,10,0,10,0,1,
5c8db07eb1f89a0016777fe0,SCN,2024-06-21_12h46.02.572,LearnStrategy,2023.2.3,Win32,59.88023952,4,2,12,,,,,,,,3,12,,,,,,,,,,,1,2.608,0,,,,,,-0.383588998,-0.258552783,1,0,0,2.6081,Andesite_rect,11,0,11,0,1,
5c8db07eb1f89a0016777fe0,SCN,2024-06-21_12h46.02.572,LearnStrategy,2023.2.3,Win32,59.88023952,4,2,13,,,,,,,,2,04,,,,,,,,,,,5,1.205,0,,,,,,-0.421562979,-0.390072239,1,0,0,1.2045,Obsidian_rect,12,0,12,0,1,
5c8db07eb1f89a0016777fe0,SCN,2024-06-21_12h46.02.572,LearnStrategy,2023.2.3,Win32,59.88023952,4,2,14,,,,,,,,7,08,,,,,,,,,,,6,2.331,0,,,,,,-0.128885669,-0.418784378,1,0,0,2.3314,Pegmatite_rect,13,0,13,0,1,
5c8db07eb1f89a0016777fe0,SCN,2024-06-21_12h46.02.572,LearnStrategy,2023.2.3,Win32,59.88023952,4,2,15,,,,,,,,3,13,,,,,,,,,,,3,2.308,1,,,,,,0.1174819,-0.254848011,1,0,0,2.308,Diorite_rect,14,0,14,0,1,
5c8db07eb1f89a0016777fe0,SCN,2024-06-21_12h46.02.572,LearnStrategy,2023.2.3,Win32,59.88023952,4,2,16,,,,,,,,4,03,,,,,,,,,,,4,1.624,1,,,,,,0.302720684,-0.254848011,1,0,0,1.6238,Gabbro_rect,15,0,15,0,1,
5c8db07eb1f89a0016777fe0,SCN,2024-06-21_12h46.02.572,LearnStrategy,2023.2.3,Win32,59.88023952,5,1,1,-0.523444323,-0.096468891,1,0,0,2.5237,Pumice_08,8,08,3,1,2.524,-0.428046308,-0.260405213,1,0,0,2.203,Andesite_rect,1,2.203,0,0,0,0,0,1,,,,,,,,,,,,,
5c8db07eb1f89a0016777fe0,SCN,2024-06-21_12h46.02.572,LearnStrategy,2023.2.3,Win32,59.88023952,5,1,2,-0.394703403,-0.104804606,1,0,0,1.1442,Pegmatite_06,6,06,3,2,1.144,-0.146483315,-0.391924757,1,0,0,1.0062,Pegmatite_rect,6,1.006,1,1,0,1,0,1,,,,,,,,,,,,,
5c8db07eb1f89a0016777fe0,SCN,2024-06-21_12h46.02.572,LearnStrategy,2023.2.3,Win32,59.88023952,5,1,3,-0.084428404,-0.279855289,1,0,0,0.9153,Gabbro_14,4,14,2,4,0.915,0.102662811,-0.238176536,1,0,0,1.3368,Diorite_rect,3,1.337,0,2,0,2,0,1,,,,,,,,,,,,,
5c8db07eb1f89a0016777fe0,SCN,2024-06-21_12h46.02.572,LearnStrategy,2023.2.3,Win32,59.88023952,5,1,4,0.08413895,-0.252069542,1,0,0,1.6651,Pegmatite_13,6,13,2,5,1.665,-0.071461657,-0.388219985,1,0,0,1.5958,Pegmatite_rect,6,1.596,1,3,0,3,0,1,,,,,,,,,,,,,
5c8db07eb1f89a0016777fe0,SCN,2024-06-21_12h46.02.572,LearnStrategy,2023.2.3,Win32,59.88023952,5,1,5,0.374037747,-0.23632415,1,0,0,1.2811,Gabbro_10,4,10,2,7,1.281,0.356439924,-0.255774226,1,0,0,1.2035,Gabbro_rect,4,1.203,1,4,0,4,0,1,,,,,,,,,,,,,
5c8db07eb1f89a0016777fe0,SCN,2024-06-21_12h46.02.572,LearnStrategy,2023.2.3,Win32,59.88023952,5,1,6,0.252706216,-0.426193922,1,0,0,1.1325,Pegmatite_11,6,11,1,6,1.133,-0.0686831,-0.379884226,1,0,0,1.2743,Pegmatite_rect,6,1.274,1,5,0,5,0,1,,,,,,,,,,,,,
5c8db07eb1f89a0016777fe0,SCN,2024-06-21_12h46.02.572,LearnStrategy,2023.2.3,Win32,59.88023952,5,1,7,-0.215021732,-0.401186644,1,0,0,1.2311,Peridotite_16,7,16,1,3,1.231,0.10358885,-0.397481871,1,0,0,1.0955,Peridotite_rect,7,1.096,1,6,0,6,0,1,,,,,,,,,,,,,
5c8db07eb1f89a0016777fe0,SCN,2024-06-21_12h46.02.572,LearnStrategy,2023.2.3,Win32,59.88023952,5,1,8,-0.396555745,-0.382662783,1,0,0,0.9379,Andesite_02,1,02,1,2,0.938,0.087843722,-0.254848011,1,0,0,2.0914,Diorite_rect,3,2.091,0,7,0,7,0,1,,,,,,,,,,,,,
5c8db07eb1f89a0016777fe0,SCN,2024-06-21_12h46.02.572,LearnStrategy,2023.2.3,Win32,59.88023952,5,1,9,-0.537337197,-0.273371872,1,0,0,1.1341,Basalt_08,2,08,2,1,1.134,-0.075166429,-0.24465991,1,0,0,1.3042,Basalt_rect,2,1.304,1,8,0,8,0,1,,,,,,,,,,,,,
5c8db07eb1f89a0016777fe0,SCN,2024-06-21_12h46.02.572,LearnStrategy,2023.2.3,Win32,59.88023952,5,1,10,-0.543820548,-0.409522491,1,0,0,0.9648,Obsidian_02,5,02,1,1,0.965,-0.389146156,-0.396555656,1,0,0,1.1285,Obsidian_rect,5,1.129,1,9,0,9,0,1,,,,,,,,,,,,,
5c8db07eb1f89a0016777fe0,SCN,2024-06-21_12h46.02.572,LearnStrategy,2023.2.3,Win32,59.88023952,5,1,11,-0.059421125,0.104515197,1,0,0,0.8646,Diorite_08,3,08,4,4,0.865,0.195282203,-0.24465991,1,0,0,0.7085,Diorite_rect,3,0.709,1,10,0,10,0,1,,,,,,,,,,,,,
5c8db07eb1f89a0016777fe0,SCN,2024-06-21_12h46.02.572,LearnStrategy,2023.2.3,Win32,59.88023952,5,1,12,0.391635304,0.10173664,1,0,0,0.9313,Pegmatite_16,6,16,4,7,0.931,-0.062199771,-0.391924757,1,0,0,0.8423,Pegmatite_rect,6,0.842,1,11,0,11,0,1,,,,,,,,,,,,,
5c8db07eb1f89a0016777fe0,SCN,2024-06-21_12h46.02.572,LearnStrategy,2023.2.3,Win32,59.88023952,5,1,13,0.513892873,0.083212735,1,0,0,0.8298,Peridotite_14,7,14,4,8,0.83,0.173053394,-0.404891504,1,0,0,1.0397,Peridotite_rect,7,1.04,1,12,0,12,0,1,,,,,,,,,,,,,
5c8db07eb1f89a0016777fe0,SCN,2024-06-21_12h46.02.572,LearnStrategy,2023.2.3,Win32,59.88023952,5,1,14,0.083212735,0.389782918,1,0,0,1.0312,Peridotite_02,7,02,6,5,1.031,0.132300988,-0.391924757,1,0,0,1.0265,Peridotite_rect,7,1.027,1,13,0,13,0,1,,,,,,,,,,,,,
5c8db07eb1f89a0016777fe0,SCN,2024-06-21_12h46.02.572,LearnStrategy,2023.2.3,Win32,59.88023952,5,1,15,-0.255774314,0.247149058,1,0,0,1.2471,Diorite_15,3,15,5,3,1.247,-0.080723631,-0.253921796,1,0,0,1.484,Basalt_rect,2,1.484,0,14,0,14,0,1,,,,,,,,,,,,,
5c8db07eb1f89a0016777fe0,SCN,2024-06-21_12h46.02.572,LearnStrategy,2023.2.3,Win32,59.88023952,5,1,16,-0.204833587,0.413863965,1,0,0,1.7479,Diorite_14,3,14,6,3,1.748,0.162865381,-0.266888543,1,0,0,1.0123,Diorite_rect,3,1.012,1,15,0,15,0,1,,,,,,,,,,,,,
5c8db07eb1f89a0016777fe0,SCN,2024-06-21_12h46.02.572,LearnStrategy,2023.2.3,Win32,59.88023952,5,2,1,,,,,,,,2,09,,,,,,,,,,,4,2.022,0,,,,,,0.391635304,-0.245586125,1,0,0,2.0218,Gabbro_rect,0,0,0,0,1,
5c8db07eb1f89a0016777fe0,SCN,2024-06-21_12h46.02.572,LearnStrategy,2023.2.3,Win32,59.88023952,5,2,2,,,,,,,,4,01,,,,,,,,,,,3,4.462,0,,,,,,0.140636748,-0.251143239,1,0,0,4.4618,Diorite_rect,1,0,1,0,1,
5c8db07eb1f89a0016777fe0,SCN,2024-06-21_12h46.02.572,LearnStrategy,2023.2.3,Win32,59.88023952,5,2,3,,,,,,,,2,11,,,,,,,,,,,4,1.621,0,,,,,,0.377742254,-0.256700441,1,0,0,1.6214,Gabbro_rect,2,0,2,0,1,
5c8db07eb1f89a0016777fe0,SCN,2024-06-21_12h46.02.572,LearnStrategy,2023.2.3,Win32,59.88023952,5,2,4,,,,,,,,1,04,,,,,,,,,,,1,2.581,1,,,,,,-0.341910289,-0.258552783,1,0,0,2.5812,Andesite_rect,3,0,3,0,1,
5c8db07eb1f89a0016777fe0,SCN,2024-06-21_12h46.02.572,LearnStrategy,2023.2.3,Win32,59.88023952,5,2,5,,,,,,,,7,15,,,,,,,,,,,7,2.645,1,,,,,,0.11099857,-0.418784378,1,0,0,2.6454,Peridotite_rect,4,0,4,0,1,
5c8db07eb1f89a0016777fe0,SCN,2024-06-21_12h46.02.572,LearnStrategy,2023.2.3,Win32,59.88023952,5,2,6,,,,,,,,6,03,,,,,,,,,,,6,1.149,1,,,,,,-0.06683067,-0.379884226,1,0,0,1.1488,Pegmatite_rect,5,0,5,0,1,
5c8db07eb1f89a0016777fe0,SCN,2024-06-21_12h46.02.572,LearnStrategy,2023.2.3,Win32,59.88023952,5,2,7,,,,,,,,6,08,,,,,,,,,,,6,1.09,1,,,,,,-0.067756796,-0.389146112,1,0,0,1.0902,Pegmatite_rect,6,0,6,0,1,
5c8db07eb1f89a0016777fe0,SCN,2024-06-21_12h46.02.572,LearnStrategy,2023.2.3,Win32,59.88023952,5,2,8,,,,,,,,5,16,,,,,,,,,,,5,1.077,1,,,,,,-0.313198283,-0.388219985,1,0,0,1.0774,Obsidian_rect,7,0,7,0,1,
5c8db07eb1f89a0016777fe0,SCN,2024-06-21_12h46.02.572,LearnStrategy,2023.2.3,Win32,59.88023952,5,2,9,,,,,,,,3,09,,,,,,,,,,,3,2.795,1,,,,,,0.145267735,-0.262257555,1,0,0,2.7948,Diorite_rect,8,0,8,0,1,
5c8db07eb1f89a0016777fe0,SCN,2024-06-21_12h46.02.572,LearnStrategy,2023.2.3,Win32,59.88023952,5,2,10,,,,,,,,1,09,,,,,,,,,,,4,1.243,0,,,,,,0.399044848,-0.251143239,1,0,0,1.2431,Gabbro_rect,9,0,9,0,1,
5c8db07eb1f89a0016777fe0,SCN,2024-06-21_12h46.02.572,LearnStrategy,2023.2.3,Win32,59.88023952,5,2,11,,,,,,,,3,06,,,,,,,,,,,2,1.863,0,,,,,,-0.115919011,-0.268740973,1,0,0,1.8631,Basalt_rect,10,0,10,0,1,
5c8db07eb1f89a0016777fe0,SCN,2024-06-21_12h46.02.572,LearnStrategy,2023.2.3,Win32,59.88023952,5,2,12,,,,,,,,8,10,,,,,,,,,,,8,1.1,1,,,,,,0.404601874,-0.403965289,1,0,0,1.1003,Pumice_rect,11,0,11,0,1,
5c8db07eb1f89a0016777fe0,SCN,2024-06-21_12h46.02.572,LearnStrategy,2023.2.3,Win32,59.88023952,5,2,13,,,,,,,,7,07,,,,,,,,,,,7,1.305,1,,,,,,0.186946444,-0.403039074,1,0,0,1.3048,Peridotite_rect,12,0,12,0,1,
5c8db07eb1f89a0016777fe0,SCN,2024-06-21_12h46.02.572,LearnStrategy,2023.2.3,Win32,59.88023952,5,2,14,,,,,,,,8,05,,,,,,,,,,,8,1.618,1,,,,,,0.321244545,-0.403965289,1,0,0,1.6184,Pumice_rect,13,0,13,0,1,
5c8db07eb1f89a0016777fe0,SCN,2024-06-21_12h46.02.572,LearnStrategy,2023.2.3,Win32,59.88023952,5,2,15,,,,,,,,4,16,,,,,,,,,,,5,1.658,0,,,,,,-0.318755441,-0.393777099,1,0,0,1.6575,Obsidian_rect,14,0,14,0,1,
5c8db07eb1f89a0016777fe0,SCN,2024-06-21_12h46.02.572,LearnStrategy,2023.2.3,Win32,59.88023952,5,2,16,,,,,,,,5,04,,,,,,,,,,,5,6.383,1,,,,,,-0.312272068,-0.414153479,1,0,0,6.3829,Obsidian_rect,15,0,15,0,1,
5c8db07eb1f89a0016777fe0,SCN,2024-06-21_12h46.02.572,LearnStrategy,2023.2.3,Win32,59.88023952,6,1,1,0.059131672,-0.421562935,1,0,0,1.4535,Obsidian_12,5,12,1,5,1.453,-0.381736612,-0.399334302,1,0,0,0.7692,Obsidian_rect,5,0.769,1,0,0,0,0,1,,,,,,,,,,,,,
5c8db07eb1f89a0016777fe0,SCN,2024-06-21_12h46.02.572,LearnStrategy,2023.2.3,Win32,59.88023952,6,1,2,0.11099857,-0.10295222,1,0,0,1.3147,Basalt_02,2,02,3,5,1.315,0.36199695,-0.243733695,1,0,0,1.3332,Gabbro_rect,4,1.333,0,1,0,1,0,1,,,,,,,,,,,,,
5c8db07eb1f89a0016777fe0,SCN,2024-06-21_12h46.02.572,LearnStrategy,2023.2.3,Win32,59.88023952,6,1,3,-0.205759846,-0.102026049,1,0,0,1.0807,Pumice_06,8,06,3,3,1.081,0.369406759,-0.399334302,1,0,0,0.7245,Pumice_rect,8,0.724,1,2,0,2,0,1,,,,,,,,,,,,,
5c8db07eb1f89a0016777fe0,SCN,2024-06-21_12h46.02.572,LearnStrategy,2023.2.3,Win32,59.88023952,6,1,4,-0.039971049,0.1174819,1,0,0,1.0643,Diorite_08,3,08,4,4,1.064,0.132300988,-0.243733695,1,0,0,1.2632,Diorite_rect,3,1.263,1,3,0,3,0,1,,,,,,,,,,,,,
5c8db07eb1f89a0016777fe0,SCN,2024-06-21_12h46.02.572,LearnStrategy,2023.2.3,Win32,59.88023952,6,1,5,0.276787279,0.271230099,1,0,0,0.8338,Basalt_12,2,12,5,6,0.834,0.416642494,-0.231693119,1,0,0,1.4424,Gabbro_rect,4,1.442,0,4,0,4,0,1,,,,,,,,,,,,,
5c8db07eb1f89a0016777fe0,SCN,2024-06-21_12h46.02.572,LearnStrategy,2023.2.3,Win32,59.88023952,6,1,6,-0.2002026,0.425904496,1,0,0,1.4163,Diorite_14,3,14,6,3,1.416,0.164717811,-0.246512252,1,0,0,0.9058,Diorite_rect,3,0.906,1,5,0,5,0,1,,,,,,,,,,,,,
5c8db07eb1f89a0016777fe0,SCN,2024-06-21_12h46.02.572,LearnStrategy,2023.2.3,Win32,59.88023952,6,1,7,-0.512329985,0.437018813,1,0,0,1.8314,Peridotite_04,7,04,6,1,1.831,0.180463115,-0.238176536,1,0,0,0.9625,Diorite_rect,3,0.962,0,6,0,6,0,1,,,,,,,,,,,,,
5c8db07eb1f89a0016777fe0,SCN,2024-06-21_12h46.02.572,LearnStrategy,2023.2.3,Win32,59.88023952,6,1,8,-0.0686831,-0.23632415,1,0,0,1.0313,Gabbro_14,4,14,2,4,1.031,0.074876976,-0.2696671,1,0,0,2.1672,Diorite_rect,3,2.167,0,7,0,7,0,1,,,,,,,,,,,,,
5c8db07eb1f89a0016777fe0,SCN,2024-06-21_12h46.02.572,LearnStrategy,2023.2.3,Win32,59.88023952,6,1,9,-0.375253283,-0.104804606,1,0,0,1.5826,Pegmatite_06,6,06,3,2,1.583,-0.12054991,-0.411374833,1,0,0,0.9423,Pegmatite_rect,6,0.942,1,8,0,8,0,1,,,,,,,,,,,,,
5c8db07eb1f89a0016777fe0,SCN,2024-06-21_12h46.02.572,LearnStrategy,2023.2.3,Win32,59.88023952,6,1,10,-0.216874118,-0.277076644,1,0,0,1.2332,Diorite_11,3,11,2,3,1.233,-0.089985518,-0.250217024,1,0,0,1.3686,Basalt_rect,2,1.369,0,9,0,9,0,1,,,,,,,,,,,,,
5c8db07eb1f89a0016777fe0,SCN,2024-06-21_12h46.02.572,LearnStrategy,2023.2.3,Win32,59.88023952,6,1,11,0.585209848,-0.112214106,1,0,0,1.03,Diorite_10,3,10,3,8,1.03,0.135079545,-0.259478998,1,0,0,1.1064,Diorite_rect,3,1.106,1,10,0,10,0,1,,,,,,,,,,,,,
5c8db07eb1f89a0016777fe0,SCN,2024-06-21_12h46.02.572,LearnStrategy,2023.2.3,Win32,59.88023952,6,1,12,0.370332798,-0.264109986,1,0,0,0.9815,Gabbro_10,4,10,2,7,0.982,0.374037747,-0.24465991,1,0,0,1.0771,Gabbro_rect,4,1.077,1,11,0,11,0,1,,,,,,,,,,,,,
5c8db07eb1f89a0016777fe0,SCN,2024-06-21_12h46.02.572,LearnStrategy,2023.2.3,Win32,59.88023952,6,1,13,0.089696064,-0.270593403,1,0,0,1.0649,Pegmatite_13,6,13,2,5,1.065,-0.098321277,-0.404891504,1,0,0,0.7109,Pegmatite_rect,6,0.711,1,12,0,12,0,1,,,,,,,,,,,,,
5c8db07eb1f89a0016777fe0,SCN,2024-06-21_12h46.02.572,LearnStrategy,2023.2.3,Win32,59.88023952,6,1,14,-0.232619466,-0.445643998,1,0,0,1.0653,Peridotite_16,7,16,1,3,1.065,0.088769849,-0.393777099,1,0,0,0.5716,Peridotite_rect,7,0.572,1,13,0,13,0,1,,,,,,,,,,,,,
5c8db07eb1f89a0016777fe0,SCN,2024-06-21_12h46.02.572,LearnStrategy,2023.2.3,Win32,59.88023952,6,1,15,-0.365065137,-0.395629529,1,0,0,1.2978,Andesite_02,1,02,1,2,1.298,-0.112214239,-0.264109986,1,0,0,1.375,Basalt_rect,2,1.375,0,14,0,14,0,1,,,,,,,,,,,,,
5c8db07eb1f89a0016777fe0,SCN,2024-06-21_12h46.02.572,LearnStrategy,2023.2.3,Win32,59.88023952,6,1,16,-0.236324194,-0.261331428,1,0,0,2.0976,Diorite_11,3,11,2,3,2.098,0.085991292,-0.234471764,1,0,0,0.7891,Diorite_rect,3,0.789,1,15,0,15,0,1,,,,,,,,,,,,,
5c8db07eb1f89a0016777fe0,SCN,2024-06-21_12h46.02.572,LearnStrategy,2023.2.3,Win32,59.88023952,6,2,1,,,,,,,,2,16,,,,,,,,,,,1,3.846,0,,,,,,-0.362286536,-0.26318377,1,0,0,3.8458,Andesite_rect,0,0,0,0,1,
5c8db07eb1f89a0016777fe0,SCN,2024-06-21_12h46.02.572,LearnStrategy,2023.2.3,Win32,59.88023952,6,2,2,,,,,,,,6,12,,,,,,,,,,,7,3.854,0,,,,,,0.097105609,-0.418784378,1,0,0,3.8538,Peridotite_rect,1,0,1,0,1,
5c8db07eb1f89a0016777fe0,SCN,2024-06-21_12h46.02.572,LearnStrategy,2023.2.3,Win32,59.88023952,6,2,3,,,,,,,,5,08,,,,,,,,,,,5,1.062,1,,,,,,-0.338205517,-0.41230096,1,0,0,1.0616,Obsidian_rect,2,0,2,0,1,
5c8db07eb1f89a0016777fe0,SCN,2024-06-21_12h46.02.572,LearnStrategy,2023.2.3,Win32,59.88023952,6,2,4,,,,,,,,1,10,,,,,,,,,,,2,2.316,0,,,,,,-0.109435594,-0.250217024,1,0,0,2.3163,Basalt_rect,3,0,3,0,1,
5c8db07eb1f89a0016777fe0,SCN,2024-06-21_12h46.02.572,LearnStrategy,2023.2.3,Win32,59.88023952,6,2,5,,,,,,,,1,03,,,,,,,,,,,4,1.655,0,,,,,,0.379594772,-0.243733695,1,0,0,1.6546,Gabbro_rect,4,0,4,0,1,
5c8db07eb1f89a0016777fe0,SCN,2024-06-21_12h46.02.572,LearnStrategy,2023.2.3,Win32,59.88023952,6,2,6,,,,,,,,3,16,,,,,,,,,,,3,1.178,1,,,,,,0.195282203,-0.26318377,1,0,0,1.1783,Diorite_rect,5,0,5,0,1,
5c8db07eb1f89a0016777fe0,SCN,2024-06-21_12h46.02.572,LearnStrategy,2023.2.3,Win32,59.88023952,6,2,7,,,,,,,,8,16,,,,,,,,,,,8,1.122,1,,,,,,0.34903038,-0.393777099,1,0,0,1.1216,Pumice_rect,6,0,6,0,1,
5c8db07eb1f89a0016777fe0,SCN,2024-06-21_12h46.02.572,LearnStrategy,2023.2.3,Win32,59.88023952,6,2,8,,,,,,,,6,09,,,,,,,,,,,6,1.156,1,,,,,,-0.065904543,-0.397481871,1,0,0,1.1559,Pegmatite_rect,7,0,7,0,1,
5c8db07eb1f89a0016777fe0,SCN,2024-06-21_12h46.02.572,LearnStrategy,2023.2.3,Win32,59.88023952,6,2,9,,,,,,,,7,05,,,,,,,,,,,7,1.05,1,,,,,,0.035976824,-0.402112859,1,0,0,1.0501,Peridotite_rect,8,0,8,0,1,
5c8db07eb1f89a0016777fe0,SCN,2024-06-21_12h46.02.572,LearnStrategy,2023.2.3,Win32,59.88023952,6,2,10,,,,,,,,3,07,,,,,,,,,,,3,1.244,1,,,,,,0.085065077,-0.259478998,1,0,0,1.2443,Diorite_rect,9,0,9,0,1,
5c8db07eb1f89a0016777fe0,SCN,2024-06-21_12h46.02.572,LearnStrategy,2023.2.3,Win32,59.88023952,6,2,11,,,,,,,,2,05,,,,,,,,,,,5,1.034,0,,,,,,-0.354876992,-0.406743846,1,0,0,1.0337,Obsidian_rect,10,0,10,0,1,
5c8db07eb1f89a0016777fe0,SCN,2024-06-21_12h46.02.572,LearnStrategy,2023.2.3,Win32,59.88023952,6,2,12,,,,,,,,5,09,,,,,,,,,,,5,0.782,1,,,,,,-0.354876992,-0.406743846,1,0,0,0.7818,Obsidian_rect,11,0,11,0,1,
5c8db07eb1f89a0016777fe0,SCN,2024-06-21_12h46.02.572,LearnStrategy,2023.2.3,Win32,59.88023952,6,2,13,,,,,,,,8,14,,,,,,,,,,,8,1.765,1,,,,,,0.400897102,-0.405817631,1,0,0,1.7648,Pumice_rect,12,0,12,0,1,
5c8db07eb1f89a0016777fe0,SCN,2024-06-21_12h46.02.572,LearnStrategy,2023.2.3,Win32,59.88023952,6,2,14,,,,,,,,4,11,,,,,,,,,,,4,1.605,1,,,,,,0.399971064,-0.26318377,1,0,0,1.6049,Gabbro_rect,13,0,13,0,1,
5c8db07eb1f89a0016777fe0,SCN,2024-06-21_12h46.02.572,LearnStrategy,2023.2.3,Win32,59.88023952,6,2,15,,,,,,,,7,12,,,,,,,,,,,7,1.893,1,,,,,,0.08228652,-0.404891504,1,0,0,1.8925,Peridotite_rect,14,0,14,0,1,
5c8db07eb1f89a0016777fe0,SCN,2024-06-21_12h46.02.572,LearnStrategy,2023.2.3,Win32,59.88023952,6,2,16,,,,,,,,4,05,,,,,,,,,,,7,1.663,0,,,,,,0.067467431,-0.391924757,1,0,0,1.6628,Peridotite_rect,15,0,15,0,1,
5c8db07eb1f89a0016777fe0,SCN,2024-06-21_12h46.02.572,LearnStrategy,2023.2.3,Win32,59.88023952,7,1,1,-0.246512296,0.098958039,1,0,0,1.8711,Pumice_04,8,04,4,3,1.871,0.449985532,-0.418784378,1,0,0,0.9818,Pumice_rect,8,0.982,1,0,0,0,0,1,,,,,,,,,,,,,
5c8db07eb1f89a0016777fe0,SCN,2024-06-21_12h46.02.572,LearnStrategy,2023.2.3,Win32,59.88023952,7,1,2,0.368480456,0.067467431,1,0,0,0.9146,Pegmatite_16,6,16,4,7,0.915,-0.150188131,-0.411374833,1,0,0,0.8378,Pegmatite_rect,6,0.838,1,1,0,1,0,1,,,,,,,,,,,,,
5c8db07eb1f89a0016777fe0,SCN,2024-06-21_12h46.02.572,LearnStrategy,2023.2.3,Win32,59.88023952,7,1,3,0.392561608,-0.394703314,1,0,0,1.0977,Gabbro_08,4,08,1,7,1.098,-0.11869748,-0.256700441,1,0,0,1.7107,Basalt_rect,2,1.711,0,2,0,2,0,1,,,,,,,,,,,,,
5c8db07eb1f89a0016777fe0,SCN,2024-06-21_12h46.02.572,LearnStrategy,2023.2.3,Win32,59.88023952,7,1,4,0.565759772,-0.255774226,1,0,0,0.9313,Andesite_16,1,16,2,8,0.931,0.465730835,-0.250217024,1,0,0,1.2827,Gabbro_rect,4,1.283,0,3,0,3,0,1,,,,,,,,,,,,,
5c8db07eb1f89a0016777fe0,SCN,2024-06-21_12h46.02.572,LearnStrategy,2023.2.3,Win32,59.88023952,7,1,5,0.405528178,-0.257626568,1,0,0,1.0302,Gabbro_10,4,10,2,7,1.03,0.342546874,-0.257626568,1,0,0,1.8354,Gabbro_rect,4,1.835,1,4,0,4,0,1,,,,,,,,,,,,,
5c8db07eb1f89a0016777fe0,SCN,2024-06-21_12h46.02.572,LearnStrategy,2023.2.3,Win32,59.88023952,7,1,6,0.579652645,-0.27151953,1,0,0,0.8806,Andesite_16,1,16,2,8,0.881,0.14434152,-0.261331428,1,0,0,1.797,Diorite_rect,3,1.797,0,5,0,5,0,1,,,,,,,,,,,,,
5c8db07eb1f89a0016777fe0,SCN,2024-06-21_12h46.02.572,LearnStrategy,2023.2.3,Win32,59.88023952,7,1,7,0.412937722,-0.441939226,1,0,0,1.0292,Gabbro_08,4,08,1,7,1.029,-0.330795973,-0.26318377,1,0,0,1.3459,Andesite_rect,1,1.346,0,6,0,6,0,1,,,,,,,,,,,,,
5c8db07eb1f89a0016777fe0,SCN,2024-06-21_12h46.02.572,LearnStrategy,2023.2.3,Win32,59.88023952,7,1,8,0.432387798,-0.424341492,1,0,0,1.1309,Gabbro_08,4,08,1,7,1.131,0.364775772,-0.235397979,1,0,0,1.0004,Gabbro_rect,4,1,1,7,0,7,0,1,,,,,,,,,,,,,
5c8db07eb1f89a0016777fe0,SCN,2024-06-21_12h46.02.572,LearnStrategy,2023.2.3,Win32,59.88023952,7,1,9,-0.054790138,-0.41230096,1,0,0,1.2648,Andesite_07,1,07,1,4,1.265,0.118408115,-0.265962416,1,0,0,0.7313,Diorite_rect,3,0.731,0,8,0,8,0,1,,,,,,,,,,,,,
5c8db07eb1f89a0016777fe0,SCN,2024-06-21_12h46.02.572,LearnStrategy,2023.2.3,Win32,59.88023952,7,1,10,-0.372474681,-0.254848011,1,0,0,1.02,Gabbro_09,4,09,2,2,1.02,0.38237333,-0.257626568,1,0,0,6.2286,Gabbro_rect,4,6.229,1,9,0,9,0,1,,,,,,,,,,,,,
5c8db07eb1f89a0016777fe0,SCN,2024-06-21_12h46.02.572,LearnStrategy,2023.2.3,Win32,59.88023952,7,1,11,-0.519739507,-0.101099834,1,0,0,1.4663,Pumice_08,8,08,3,1,1.466,0.349956595,-0.408596188,1,0,0,1.3435,Pumice_rect,8,1.343,1,10,0,10,0,1,,,,,,,,,,,,,
5c8db07eb1f89a0016777fe0,SCN,2024-06-21_12h46.02.572,LearnStrategy,2023.2.3,Win32,59.88023952,7,1,12,-0.397481916,-0.096468891,1,0,0,2.3824,Pegmatite_06,6,06,3,2,2.382,-0.072387784,-0.408596188,1,0,0,0.7899,Pegmatite_rect,6,0.79,1,11,0,11,0,1,,,,,,,,,,,,,
5c8db07eb1f89a0016777fe0,SCN,2024-06-21_12h46.02.572,LearnStrategy,2023.2.3,Win32,59.88023952,7,1,13,-0.373400897,0.08413895,1,0,0,1.6646,Pegmatite_10,6,10,4,2,1.665,-0.074240214,-0.408596188,1,0,0,1.3398,Pegmatite_rect,6,1.34,1,12,0,12,0,1,,,,,,,,,,,,,
5c8db07eb1f89a0016777fe0,SCN,2024-06-21_12h46.02.572,LearnStrategy,2023.2.3,Win32,59.88023952,7,1,14,0.086917507,0.248075251,1,0,0,1.2647,Basalt_14,2,14,5,5,1.265,-0.161302536,-0.251143239,1,0,0,3.8548,Basalt_rect,2,3.855,1,13,0,13,0,1,,,,,,,,,,,,,
5c8db07eb1f89a0016777fe0,SCN,2024-06-21_12h46.02.572,LearnStrategy,2023.2.3,Win32,59.88023952,7,1,15,-0.250217156,0.420347332,1,0,0,1.6482,Diorite_14,3,14,6,3,1.648,0.123965229,-0.234471764,1,0,0,0.7957,Diorite_rect,3,0.796,1,14,0,14,0,1,,,,,,,,,,,,,
5c8db07eb1f89a0016777fe0,SCN,2024-06-21_12h46.02.572,LearnStrategy,2023.2.3,Win32,59.88023952,7,1,16,0.581505076,0.224920403,1,0,0,1.3476,Pumice_02,8,02,5,8,1.348,0.417568709,-0.410448618,1,0,0,1.1751,Pumice_rect,8,1.175,1,15,0,15,0,1,,,,,,,,,,,,,
5c8db07eb1f89a0016777fe0,SCN,2024-06-21_12h46.02.572,LearnStrategy,2023.2.3,Win32,59.88023952,7,2,1,,,,,,,,8,10,,,,,,,,,,,8,2.089,1,,,,,,0.36199695,-0.405817631,1,0,0,2.0885,Pumice_rect,0,0,0,0,1,
5c8db07eb1f89a0016777fe0,SCN,2024-06-21_12h46.02.572,LearnStrategy,2023.2.3,Win32,59.88023952,7,2,2,,,,,,,,3,07,,,,,,,,,,,1,4.853,0,,,,,,-0.374327068,-0.260405213,1,0,0,4.8527,Andesite_rect,1,0,1,0,1,
5c8db07eb1f89a0016777fe0,SCN,2024-06-21_12h46.02.572,LearnStrategy,2023.2.3,Win32,59.88023952,7,2,3,,,,,,,,4,01,,,,,,,,,,,4,1.965,1,,,,,,0.310130228,-0.252995669,1,0,0,1.9648,Gabbro_rect,2,0,2,0,1,
5c8db07eb1f89a0016777fe0,SCN,2024-06-21_12h46.02.572,LearnStrategy,2023.2.3,Win32,59.88023952,7,2,4,,,,,,,,6,05,,,,,,,,,,,6,1.711,1,,,,,,-0.086280745,-0.404891504,1,0,0,1.7106,Pegmatite_rect,3,0,3,0,1,
5c8db07eb1f89a0016777fe0,SCN,2024-06-21_12h46.02.572,LearnStrategy,2023.2.3,Win32,59.88023952,7,2,5,,,,,,,,7,15,,,,,,,,,,,7,1.038,1,,,,,,0.147120077,-0.403965289,1,0,0,1.0384,Peridotite_rect,4,0,4,0,1,
5c8db07eb1f89a0016777fe0,SCN,2024-06-21_12h46.02.572,LearnStrategy,2023.2.3,Win32,59.88023952,7,2,6,,,,,,,,7,08,,,,,,,,,,,7,0.786,1,,,,,,0.147120077,-0.403965289,1,0,0,0.7856,Peridotite_rect,5,0,5,0,1,
5c8db07eb1f89a0016777fe0,SCN,2024-06-21_12h46.02.572,LearnStrategy,2023.2.3,Win32,59.88023952,7,2,7,,,,,,,,4,03,,,,,,,,,,,2,3.366,0,,,,,,-0.12054991,-0.259478998,1,0,0,3.3657,Basalt_rect,6,0,6,0,1,
5c8db07eb1f89a0016777fe0,SCN,2024-06-21_12h46.02.572,LearnStrategy,2023.2.3,Win32,59.88023952,7,2,8,,,,,,,,3,09,,,,,,,,,,,3,5.667,1,,,,,,0.198986975,-0.268740973,1,0,0,5.6668,Diorite_rect,7,0,7,0,1,
5c8db07eb1f89a0016777fe0,SCN,2024-06-21_12h46.02.572,LearnStrategy,2023.2.3,Win32,59.88023952,7,2,9,,,,,,,,6,08,,,,,,,,,,,6,1.408,1,,,,,,-0.094616505,-0.378958011,1,0,0,1.4082,Pegmatite_rect,8,0,8,0,1,
5c8db07eb1f89a0016777fe0,SCN,2024-06-21_12h46.02.572,LearnStrategy,2023.2.3,Win32,59.88023952,7,2,10,,,,,,,,2,09,,,,,,,,,,,4,1.507,0,,,,,,0.362923254,-0.251143239,1,0,0,1.5067,Gabbro_rect,9,0,9,0,1,
5c8db07eb1f89a0016777fe0,SCN,2024-06-21_12h46.02.572,LearnStrategy,2023.2.3,Win32,59.88023952,7,2,11,,,,,,,,1,09,,,,,,,,,,,4,1.351,0,,,,,,0.362923254,-0.251143239,1,0,0,1.351,Gabbro_rect,10,0,10,0,1,
5c8db07eb1f89a0016777fe0,SCN,2024-06-21_12h46.02.572,LearnStrategy,2023.2.3,Win32,59.88023952,7,2,12,,,,,,,,8,09,,,,,,,,,,,8,0.965,1,,,,,,0.351808937,-0.403039074,1,0,0,0.965,Pumice_rect,11,0,11,0,1,
5c8db07eb1f89a0016777fe0,SCN,2024-06-21_12h46.02.572,LearnStrategy,2023.2.3,Win32,59.88023952,7,2,13,,,,,,,,5,09,,,,,,,,,,,5,1.129,1,,,,,,-0.408596232,-0.393777099,1,0,0,1.1285,Obsidian_rect,12,0,12,0,1,
5c8db07eb1f89a0016777fe0,SCN,2024-06-21_12h46.02.572,LearnStrategy,2023.2.3,Win32,59.88023952,7,2,14,,,,,,,,5,08,,,,,,,,,,,5,0.688,1,,,,,,-0.408596232,-0.393777099,1,0,0,0.6876,Obsidian_rect,13,0,13,0,1,
5c8db07eb1f89a0016777fe0,SCN,2024-06-21_12h46.02.572,LearnStrategy,2023.2.3,Win32,59.88023952,7,2,15,,,,,,,,1,01,,,,,,,,,,,4,1.666,0,,,,,,0.374963785,-0.252995669,1,0,0,1.6657,Gabbro_rect,14,0,14,0,1,
5c8db07eb1f89a0016777fe0,SCN,2024-06-21_12h46.02.572,LearnStrategy,2023.2.3,Win32,59.88023952,7,2,16,,,,,,,,2,05,,,,,,,,,,,4,1.47,0,,,,,,0.370332798,-0.253921796,1,0,0,1.4701,Gabbro_rect,15,0,15,0,1,
5c8db07eb1f89a0016777fe0,SCN,2024-06-21_12h46.02.572,LearnStrategy,2023.2.3,Win32,59.88023952,8,1,1,-0.392851017,0.062836488,1,0,0,1.2008,Pegmatite_10,6,10,4,2,1.201,-0.115919011,-0.416931947,1,0,0,1.3227,Pegmatite_rect,6,1.323,1,0,0,0,0,1,,,,,,,,,,,,,
5c8db07eb1f89a0016777fe0,SCN,2024-06-21_12h46.02.572,LearnStrategy,2023.2.3,Win32,59.88023952,8,1,2,0.558350228,0.073950805,1,0,0,0.8639,Peridotite_14,7,14,4,8,0.864,0.128596216,-0.400260428,1,0,0,1.7779,Peridotite_rect,7,1.778,1,1,0,1,0,1,,,,,,,,,,,,,
5c8db07eb1f89a0016777fe0,SCN,2024-06-21_12h46.02.572,LearnStrategy,2023.2.3,Win32,59.88023952,8,1,3,0.571316886,0.249001444,1,0,0,0.9483,Pumice_02,8,02,5,8,0.948,0.429609329,-0.399334302,1,0,0,0.8162,Pumice_rect,8,0.816,1,2,0,2,0,1,,,,,,,,,,,,,
5c8db07eb1f89a0016777fe0,SCN,2024-06-21_12h46.02.572,LearnStrategy,2023.2.3,Win32,59.88023952,8,1,4,0.217510836,0.260115782,1,0,0,0.8336,Basalt_12,2,12,5,6,0.834,0.361070912,-0.229840733,1,0,0,0.9975,Gabbro_rect,4,0.997,0,3,0,3,0,1,,,,,,,,,,,,,
5c8db07eb1f89a0016777fe0,SCN,2024-06-21_12h46.02.572,LearnStrategy,2023.2.3,Win32,59.88023952,8,1,5,0.130448646,0.260115782,1,0,0,0.8148,Basalt_14,2,14,5,5,0.815,0.133227203,-0.241881353,1,0,0,1.4357,Diorite_rect,3,1.436,0,4,0,4,0,1,,,,,,,,,,,,,
5c8db07eb1f89a0016777fe0,SCN,2024-06-21_12h46.02.572,LearnStrategy,2023.2.3,Win32,59.88023952,8,1,6,-0.205759846,0.239739513,1,0,0,0.9004,Diorite_15,3,15,5,3,0.9,0.173053394,-0.239102751,1,0,0,1.1284,Diorite_rect,3,1.128,1,5,0,5,0,1,,,,,,,,,,,,,
5c8db07eb1f89a0016777fe0,SCN,2024-06-21_12h46.02.572,LearnStrategy,2023.2.3,Win32,59.88023952,8,1,7,-0.382662827,0.215658472,1,0,0,0.9481,Pumice_15,8,15,5,2,0.948,0.404601874,-0.403039074,1,0,0,1.0728,Pumice_rect,8,1.073,1,6,0,6,0,1,,,,,,,,,,,,,
5c8db07eb1f89a0016777fe0,SCN,2024-06-21_12h46.02.572,LearnStrategy,2023.2.3,Win32,59.88023952,8,1,8,-0.219652676,-0.257626568,1,0,0,1.6294,Diorite_11,3,11,2,3,1.629,0.136931976,-0.267814758,1,0,0,0.8871,Diorite_rect,3,0.887,1,7,0,7,0,1,,,,,,,,,,,,,
5c8db07eb1f89a0016777fe0,SCN,2024-06-21_12h46.02.572,LearnStrategy,2023.2.3,Win32,59.88023952,8,1,9,-0.052011581,-0.405817631,1,0,0,0.9193,Andesite_07,1,07,1,4,0.919,-0.328943587,-0.240955137,1,0,0,1.1331,Andesite_rect,1,1.133,1,8,0,8,0,1,,,,,,,,,,,,,
5c8db07eb1f89a0016777fe0,SCN,2024-06-21_12h46.02.572,LearnStrategy,2023.2.3,Win32,59.88023952,8,1,10,0.227698938,-0.427120137,1,0,0,1.5142,Pegmatite_11,6,11,1,6,1.514,-0.086280745,-0.416005732,1,0,0,0.8914,Pegmatite_rect,6,0.891,1,9,0,9,0,1,,,,,,,,,,,,,
5c8db07eb1f89a0016777fe0,SCN,2024-06-21_12h46.02.572,LearnStrategy,2023.2.3,Win32,59.88023952,8,1,11,0.249927659,-0.121476125,1,0,0,1.2308,Andesite_06,1,06,3,6,1.231,-0.214095517,-0.242807568,1,0,0,2.4221,Basalt_rect,2,2.422,0,10,0,10,0,1,,,,,,,,,,,,,
5c8db07eb1f89a0016777fe0,SCN,2024-06-21_12h46.02.572,LearnStrategy,2023.2.3,Win32,59.88023952,8,1,12,-0.539189583,-0.247438555,1,0,0,2.7146,Basalt_08,2,08,2,1,2.715,0.371259013,-0.247438555,1,0,0,1.487,Gabbro_rect,4,1.487,0,11,0,11,0,1,,,,,,,,,,,,,
5c8db07eb1f89a0016777fe0,SCN,2024-06-21_12h46.02.572,LearnStrategy,2023.2.3,Win32,59.88023952,8,1,13,0.250853786,0.42127352,1,0,0,3.1317,Basalt_06,2,06,6,6,3.132,0.418494924,-0.248364682,1,0,0,0.7737,Gabbro_rect,4,0.774,0,12,0,12,0,1,,,,,,,,,,,,,
5c8db07eb1f89a0016777fe0,SCN,2024-06-21_12h46.02.572,LearnStrategy,2023.2.3,Win32,59.88023952,8,1,14,-0.035340062,0.26845152,1,0,0,1.565,Obsidian_14,5,14,5,4,1.565,-0.418784378,-0.395629529,1,0,0,1.1778,Obsidian_rect,5,1.178,1,13,0,13,0,1,,,,,,,,,,,,,
5c8db07eb1f89a0016777fe0,SCN,2024-06-21_12h46.02.572,LearnStrategy,2023.2.3,Win32,59.88023952,8,1,15,0.574095355,-0.10295222,1,0,0,0.9828,Diorite_10,3,10,3,8,0.983,0.195282203,-0.252069542,1,0,0,1.3061,Diorite_rect,3,1.306,1,14,0,14,0,1,,,,,,,,,,,,,
5c8db07eb1f89a0016777fe0,SCN,2024-06-21_12h46.02.572,LearnStrategy,2023.2.3,Win32,59.88023952,8,1,16,0.371259013,-0.290043391,1,0,0,0.9317,Gabbro_10,4,10,2,7,0.932,-0.179826353,-0.24465991,1,0,0,2.108,Basalt_rect,2,2.108,0,15,0,15,0,1,,,,,,,,,,,,,
5c8db07eb1f89a0016777fe0,SCN,2024-06-21_12h46.02.572,LearnStrategy,2023.2.3,Win32,59.88023952,8,2,1,,,,,,,,1,14,,,,,,,,,,,1,6.611,1,,,,,,-0.367843783,-0.254848011,1,0,0,6.6105,Andesite_rect,0,0,0,0,1,
5c8db07eb1f89a0016777fe0,SCN,2024-06-21_12h46.02.572,LearnStrategy,2023.2.3,Win32,59.88023952,8,2,2,,,,,,,,6,15,,,,,,,,,,,6,0.966,1,,,,,,-0.09369029,-0.403039074,1,0,0,0.966,Pegmatite_rect,1,0,1,0,1,
5c8db07eb1f89a0016777fe0,SCN,2024-06-21_12h46.02.572,LearnStrategy,2023.2.3,Win32,59.88023952,8,2,3,,,,,,,,6,03,,,,,,,,,,,6,1.075,1,,,,,,-0.083502188,-0.401186644,1,0,0,1.0746,Pegmatite_rect,2,0,2,0,1,
5c8db07eb1f89a0016777fe0,SCN,2024-06-21_12h46.02.572,LearnStrategy,2023.2.3,Win32,59.88023952,8,2,4,,,,,,,,5,16,,,,,,,,,,,5,0.897,1,,,,,,-0.310419682,-0.383588998,1,0,0,0.8969,Obsidian_rect,3,0,3,0,1,
5c8db07eb1f89a0016777fe0,SCN,2024-06-21_12h46.02.572,LearnStrategy,2023.2.3,Win32,59.88023952,8,2,5,,,,,,,,3,06,,,,,,,,,,,1,3.832,0,,,,,,-0.324312599,-0.261331428,1,0,0,3.832,Andesite_rect,4,0,4,0,1,
5c8db07eb1f89a0016777fe0,SCN,2024-06-21_12h46.02.572,LearnStrategy,2023.2.3,Win32,59.88023952,8,2,6,,,,,,,,1,03,,,,,,,,,,,2,1.948,0,,,,,,-0.105730821,-0.252995669,1,0,0,1.9478,Basalt_rect,5,0,5,0,1,
5c8db07eb1f89a0016777fe0,SCN,2024-06-21_12h46.02.572,LearnStrategy,2023.2.3,Win32,59.88023952,8,2,7,,,,,,,,4,16,,,,,,,,,,,4,1.565,1,,,,,,0.376816215,-0.246512252,1,0,0,1.5653,Gabbro_rect,6,0,6,0,1,
5c8db07eb1f89a0016777fe0,SCN,2024-06-21_12h46.02.572,LearnStrategy,2023.2.3,Win32,59.88023952,8,2,8,,,,,,,,7,06,,,,,,,,,,,6,1.092,0,,,,,,-0.05849491,-0.411374833,1,0,0,1.0919,Pegmatite_rect,7,0,7,0,1,
5c8db07eb1f89a0016777fe0,SCN,2024-06-21_12h46.02.572,LearnStrategy,2023.2.3,Win32,59.88023952,8,2,9,,,,,,,,2,04,,,,,,,,,,,4,2.624,0,,,,,,0.421273481,-0.230766992,1,0,0,2.6242,Gabbro_rect,8,0,8,0,1,
5c8db07eb1f89a0016777fe0,SCN,2024-06-21_12h46.02.572,LearnStrategy,2023.2.3,Win32,59.88023952,8,2,10,,,,,,,,8,05,,,,,,,,,,,8,1.313,1,,,,,,0.359218481,-0.390998631,1,0,0,1.3126,Pumice_rect,9,0,9,0,1,
5c8db07eb1f89a0016777fe0,SCN,2024-06-21_12h46.02.572,LearnStrategy,2023.2.3,Win32,59.88023952,8,2,11,,,,,,,,8,16,,,,,,,,,,,8,0.828,1,,,,,,0.359218481,-0.392850884,1,0,0,0.8285,Pumice_rect,10,0,10,0,1,
5c8db07eb1f89a0016777fe0,SCN,2024-06-21_12h46.02.572,LearnStrategy,2023.2.3,Win32,59.88023952,8,2,12,,,,,,,,2,16,,,,,,,,,,,2,3.83,1,,,,,,-0.083502188,-0.264109986,1,0,0,3.8304,Basalt_rect,11,0,11,0,1,
5c8db07eb1f89a0016777fe0,SCN,2024-06-21_12h46.02.572,LearnStrategy,2023.2.3,Win32,59.88023952,8,2,13,,,,,,,,3,13,,,,,,,,,,,1,3.016,0,,,,,,-0.395629529,-0.270593403,1,0,0,3.0164,Andesite_rect,12,0,12,0,1,
5c8db07eb1f89a0016777fe0,SCN,2024-06-21_12h46.02.572,LearnStrategy,2023.2.3,Win32,59.88023952,8,2,14,,,,,,,,5,04,,,,,,,,,,,5,1.049,1,,,,,,-0.37803184,-0.403965289,1,0,0,1.0488,Obsidian_rect,13,0,13,0,1,
5c8db07eb1f89a0016777fe0,SCN,2024-06-21_12h46.02.572,LearnStrategy,2023.2.3,Win32,59.88023952,8,2,15,,,,,,,,4,15,,,,,,,,,,,3,6.818,0,,,,,,0.088769849,-0.265962416,1,0,0,6.8177,Diorite_rect,14,0,14,0,1,
5c8db07eb1f89a0016777fe0,SCN,2024-06-21_12h46.02.572,LearnStrategy,2023.2.3,Win32,59.88023952,8,2,16,,,,,,,,7,12,,,,,,,,,,,7,0.996,1,,,,,,0.088769849,-0.393777099,1,0,0,0.9964,Peridotite_rect,15,0,15,0,1,
5c8db07eb1f89a0016777fe0,SCN,2024-06-21_12h46.02.572,LearnStrategy,2023.2.3,Win32,59.88023952,9,1,1,-0.383588998,0.070246033,1,0,0,0.955,Pegmatite_10,6,10,4,2,0.955,-0.065904543,-0.399334302,1,0,0,0.8278,Pegmatite_rect,6,0.828,1,0,0,0,0,1,,,,,,,,,,,,,
5c8db07eb1f89a0016777fe0,SCN,2024-06-21_12h46.02.572,LearnStrategy,2023.2.3,Win32,59.88023952,9,1,2,-0.220578891,-0.071461657,1,0,0,0.7609,Pumice_06,8,06,3,3,0.761,0.455542646,-0.417858162,1,0,0,0.8479,Pumice_rect,8,0.848,1,1,0,1,0,1,,,,,,,,,,,,,
5c8db07eb1f89a0016777fe0,SCN,2024-06-21_12h46.02.572,LearnStrategy,2023.2.3,Win32,59.88023952,9,1,3,0.104515153,-0.083502144,1,0,0,0.8692,Basalt_02,2,02,3,5,0.869,-0.106657036,-0.238176536,1,0,0,1.6523,Basalt_rect,2,1.652,1,2,0,2,0,1,,,,,,,,,,,,,
5c8db07eb1f89a0016777fe0,SCN,2024-06-21_12h46.02.572,LearnStrategy,2023.2.3,Win32,59.88023952,9,1,4,-0.087206961,-0.404891504,1,0,0,4.5165,Andesite_07,1,07,1,4,4.516,-0.323386472,-0.265036201,1,0,0,1.3122,Andesite_rect,1,1.312,1,3,0,3,0,1,,,,,,,,,,,,,
5c8db07eb1f89a0016777fe0,SCN,2024-06-21_12h46.02.572,LearnStrategy,2023.2.3,Win32,59.88023952,9,1,5,-0.508625169,0.10173664,1,0,0,2.0476,Obsidian_05,5,05,4,1,2.048,-0.319681612,-0.390998631,1,0,0,2.7715,Obsidian_rect,5,2.772,1,4,0,4,0,1,,,,,,,,,,,,,
5c8db07eb1f89a0016777fe0,SCN,2024-06-21_12h46.02.572,LearnStrategy,2023.2.3,Win32,59.88023952,9,1,6,0.111924697,0.083212735,1,0,0,0.9484,Gabbro_12,4,12,4,5,0.948,0.34717795,-0.247438555,1,0,0,0.9463,Gabbro_rect,4,0.946,1,5,0,5,0,1,,,,,,,,,,,,,
5c8db07eb1f89a0016777fe0,SCN,2024-06-21_12h46.02.572,LearnStrategy,2023.2.3,Win32,59.88023952,9,1,7,0.249001444,0.286049209,1,0,0,1.5144,Basalt_12,2,12,5,6,1.514,-0.073314087,-0.264109986,1,0,0,1.8274,Basalt_rect,2,1.827,1,6,0,6,0,1,,,,,,,,,,,,,
5c8db07eb1f89a0016777fe0,SCN,2024-06-21_12h46.02.572,LearnStrategy,2023.2.3,Win32,59.88023952,9,1,8,0.422199696,0.124891488,1,0,0,0.9647,Pegmatite_16,6,16,4,7,0.965,-0.150188131,-0.396555656,1,0,0,0.6588,Pegmatite_rect,6,0.659,1,7,0,7,0,1,,,,,,,,,,,,,
5c8db07eb1f89a0016777fe0,SCN,2024-06-21_12h46.02.572,LearnStrategy,2023.2.3,Win32,59.88023952,9,1,9,-0.061273556,0.085991336,1,0,0,1.5307,Diorite_08,3,08,4,4,1.531,0.10914614,-0.259478998,1,0,0,0.862,Diorite_rect,3,0.862,1,8,0,8,0,1,,,,,,,,,,,,,
5c8db07eb1f89a0016777fe0,SCN,2024-06-21_12h46.02.572,LearnStrategy,2023.2.3,Win32,59.88023952,9,1,10,-0.201128815,0.224920403,1,0,0,1.1808,Diorite_15,3,15,5,3,1.181,0.08228652,-0.246512252,1,0,0,1.4715,Diorite_rect,3,1.472,1,9,0,9,0,1,,,,,,,,,,,,,
5c8db07eb1f89a0016777fe0,SCN,2024-06-21_12h46.02.572,LearnStrategy,2023.2.3,Win32,59.88023952,9,1,11,-0.373400897,-0.134442828,1,0,0,1.8151,Pegmatite_06,6,06,3,2,1.815,-0.088133176,-0.398408087,1,0,0,1.5751,Pegmatite_rect,6,1.575,1,10,0,10,0,1,,,,,,,,,,,,,
5c8db07eb1f89a0016777fe0,SCN,2024-06-21_12h46.02.572,LearnStrategy,2023.2.3,Win32,59.88023952,9,1,12,0.083212735,-0.242807568,1,0,0,1.0142,Pegmatite_13,6,13,2,5,1.014,-0.062199771,-0.407670061,1,0,0,1.2785,Pegmatite_rect,6,1.279,1,11,0,11,0,1,,,,,,,,,,,,,
5c8db07eb1f89a0016777fe0,SCN,2024-06-21_12h46.02.572,LearnStrategy,2023.2.3,Win32,59.88023952,9,1,13,-0.073314087,-0.226135961,1,0,0,0.9316,Gabbro_14,4,14,2,4,0.932,-0.084428404,-0.258552783,1,0,0,1.7916,Basalt_rect,2,1.792,0,12,0,12,0,1,,,,,,,,,,,,,
5c8db07eb1f89a0016777fe0,SCN,2024-06-21_12h46.02.572,LearnStrategy,2023.2.3,Win32,59.88023952,9,1,14,-0.075166429,-0.247438555,1,0,0,0.7975,Gabbro_14,4,14,2,4,0.797,0.333285076,-0.231693119,1,0,0,0.7967,Gabbro_rect,4,0.797,1,13,0,13,0,1,,,,,,,,,,,,,
5c8db07eb1f89a0016777fe0,SCN,2024-06-21_12h46.02.572,LearnStrategy,2023.2.3,Win32,59.88023952,9,1,15,0.403675836,-0.096468891,1,0,0,0.8314,Peridotite_13,7,13,3,7,0.831,0.134153419,-0.401186644,1,0,0,0.9611,Peridotite_rect,7,0.961,1,14,0,14,0,1,,,,,,,,,,,,,
5c8db07eb1f89a0016777fe0,SCN,2024-06-21_12h46.02.572,LearnStrategy,2023.2.3,Win32,59.88023952,9,1,16,0.572243101,-0.268740973,1,0,0,0.9472,Andesite_16,1,16,2,8,0.947,-0.352098435,-0.247438555,1,0,0,1.5208,Andesite_rect,1,1.521,1,15,0,15,0,1,,,,,,,,,,,,,
5c8db07eb1f89a0016777fe0,SCN,2024-06-21_12h46.02.572,LearnStrategy,2023.2.3,Win32,59.88023952,9,2,1,,,,,,,,1,10,,,,,,,,,,,1,2.192,1,,,,,,-0.373400897,-0.252995669,1,0,0,2.1919,Andesite_rect,0,0,0,0,1,
5c8db07eb1f89a0016777fe0,SCN,2024-06-21_12h46.02.572,LearnStrategy,2023.2.3,Win32,59.88023952,9,2,2,,,,,,,,7,07,,,,,,,,,,,7,1.092,1,,,,,,0.184167887,-0.389146112,1,0,0,1.0921,Peridotite_rect,1,0,1,0,1,
5c8db07eb1f89a0016777fe0,SCN,2024-06-21_12h46.02.572,LearnStrategy,2023.2.3,Win32,59.88023952,9,2,3,,,,,,,,2,10,,,,,,,,,,,5,1.219,0,,,,,,-0.359507979,-0.421562935,1,0,0,1.2189,Obsidian_rect,2,0,2,0,1,
5c8db07eb1f89a0016777fe0,SCN,2024-06-21_12h46.02.572,LearnStrategy,2023.2.3,Win32,59.88023952,9,2,4,,,,,,,,8,03,,,,,,,,,,,8,1.288,1,,,,,,0.336063633,-0.391924757,1,0,0,1.2884,Pumice_rect,3,0,3,0,1,
5c8db07eb1f89a0016777fe0,SCN,2024-06-21_12h46.02.572,LearnStrategy,2023.2.3,Win32,59.88023952,9,2,5,,,,,,,,8,14,,,,,,,,,,,8,0.985,1,,,,,,0.342546874,-0.391924757,1,0,0,0.9849,Pumice_rect,4,0,4,0,1,
5c8db07eb1f89a0016777fe0,SCN,2024-06-21_12h46.02.572,LearnStrategy,2023.2.3,Win32,59.88023952,9,2,6,,,,,,,,3,12,,,,,,,,,,,1,1.907,0,,,,,,-0.391924757,-0.238176536,1,0,0,1.9072,Andesite_rect,5,0,5,0,1,
5c8db07eb1f89a0016777fe0,SCN,2024-06-21_12h46.02.572,LearnStrategy,2023.2.3,Win32,59.88023952,9,2,7,,,,,,,,3,16,,,,,,,,,,,3,4.039,1,,,,,,0.154529621,-0.240028922,1,0,0,4.0388,Diorite_rect,6,0,6,0,1,
5c8db07eb1f89a0016777fe0,SCN,2024-06-21_12h46.02.572,LearnStrategy,2023.2.3,Win32,59.88023952,9,2,8,,,,,,,,5,07,,,,,,,,,,,5,1.242,1,,,,,,-0.391924757,-0.395629529,1,0,0,1.2421,Obsidian_rect,7,0,7,0,1,
5c8db07eb1f89a0016777fe0,SCN,2024-06-21_12h46.02.572,LearnStrategy,2023.2.3,Win32,59.88023952,9,2,9,,,,,,,,2,11,,,,,,,,,,,2,2.33,1,,,,,,-0.052011581,-0.270593403,1,0,0,2.3301,Basalt_rect,8,0,8,0,1,
5c8db07eb1f89a0016777fe0,SCN,2024-06-21_12h46.02.572,LearnStrategy,2023.2.3,Win32,59.88023952,9,2,10,,,,,,,,6,09,,,,,,,,,,,6,0.992,1,,,,,,-0.052937796,-0.416005732,1,0,0,0.9922,Pegmatite_rect,9,0,9,0,1,
5c8db07eb1f89a0016777fe0,SCN,2024-06-21_12h46.02.572,LearnStrategy,2023.2.3,Win32,59.88023952,9,2,11,,,,,,,,1,04,,,,,,,,,,,1,2.377,1,,,,,,-0.335426916,-0.270593403,1,0,0,2.3772,Andesite_rect,10,0,10,0,1,
5c8db07eb1f89a0016777fe0,SCN,2024-06-21_12h46.02.572,LearnStrategy,2023.2.3,Win32,59.88023952,9,2,12,,,,,,,,7,05,,,,,,,,,,,7,1.557,1,,,,,,0.118408115,-0.407670061,1,0,0,1.5566,Peridotite_rect,11,0,11,0,1,
5c8db07eb1f89a0016777fe0,SCN,2024-06-21_12h46.02.572,LearnStrategy,2023.2.3,Win32,59.88023952,9,2,13,,,,,,,,5,06,,,,,,,,,,,5,1.043,1,,,,,,-0.365065137,-0.384515213,1,0,0,1.0426,Obsidian_rect,12,0,12,0,1,
5c8db07eb1f89a0016777fe0,SCN,2024-06-21_12h46.02.572,LearnStrategy,2023.2.3,Win32,59.88023952,9,2,14,,,,,,,,4,11,,,,,,,,,,,4,1.431,1,,,,,,0.429609329,-0.22891465,1,0,0,1.4309,Gabbro_rect,13,0,13,0,1,
5c8db07eb1f89a0016777fe0,SCN,2024-06-21_12h46.02.572,LearnStrategy,2023.2.3,Win32,59.88023952,9,2,15,,,,,,,,6,12,,,,,,,,,,,6,3.517,1,,,,,,-0.083502188,-0.41230096,1,0,0,3.5168,Pegmatite_rect,14,0,14,0,1,
5c8db07eb1f89a0016777fe0,SCN,2024-06-21_12h46.02.572,LearnStrategy,2023.2.3,Win32,59.88023952,9,2,16,,,,,,,,4,05,,,,,,,,,,,7,1.263,0,,,,,,0.050795913,-0.416005732,1,0,0,1.2625,Peridotite_rect,15,0,15,0,1,
5c8db07eb1f89a0016777fe0,SCN,2024-06-21_12h46.02.572,LearnStrategy,2023.2.3,Win32,59.88023952,,,,,,,,,,,,,,,,,,,,,,,,,,,,,,,,,,,,,,,,,,,1
5c8db07eb1f89a0016777fe0,SCN,2024-06-21_12h46.02.572,LearnStrategy,2023.2.3,Win32,59.88023952,,,,,,,,,,,,,,,,,,,,,,,,,,,,,,,,,,,,,,,,,,,
5c8db07eb1f89a0016777fe0,SCN,2024-06-21_12h46.02.572,LearnStrategy,2023.2.3,Win32,59.88023952,,,,,,,,,,,5,02,1,1,,,,,,,,,,,,,,,,,,,,,,,,,,,,,
5c8db07eb1f89a0016777fe0,SCN,2024-06-21_12h46.02.572,LearnStrategy,2023.2.3,Win32,59.88023952,,,,,,,,,,,1,02,1,2,,,,,,,,,,,,,,,,,,,,,,,,,,,,,
5c8db07eb1f89a0016777fe0,SCN,2024-06-21_12h46.02.572,LearnStrategy,2023.2.3,Win32,59.88023952,,,,,,,,,,,7,16,1,3,,,,,,,,,,,,,,,,,,,,,,,,,,,,,
5c8db07eb1f89a0016777fe0,SCN,2024-06-21_12h46.02.572,LearnStrategy,2023.2.3,Win32,59.88023952,,,,,,,,,,,1,07,1,4,,,,,,,,,,,,,,,,,,,,,,,,,,,,,
5c8db07eb1f89a0016777fe0,SCN,2024-06-21_12h46.02.572,LearnStrategy,2023.2.3,Win32,59.88023952,,,,,,,,,,,5,12,1,5,,,,,,,,,,,,,,,,,,,,,,,,,,,,,
5c8db07eb1f89a0016777fe0,SCN,2024-06-21_12h46.02.572,LearnStrategy,2023.2.3,Win32,59.88023952,,,,,,,,,,,6,11,1,6,,,,,,,,,,,,,,,,,,,,,,,,,,,,,
5c8db07eb1f89a0016777fe0,SCN,2024-06-21_12h46.02.572,LearnStrategy,2023.2.3,Win32,59.88023952,,,,,,,,,,,4,08,1,7,,,,,,,,,,,,,,,,,,,,,,,,,,,,,
5c8db07eb1f89a0016777fe0,SCN,2024-06-21_12h46.02.572,LearnStrategy,2023.2.3,Win32,59.88023952,,,,,,,,,,,1,05,1,8,,,,,,,,,,,,,,,,,,,,,,,,,,,,,
5c8db07eb1f89a0016777fe0,SCN,2024-06-21_12h46.02.572,LearnStrategy,2023.2.3,Win32,59.88023952,,,,,,,,,,,2,08,2,1,,,,,,,,,,,,,,,,,,,,,,,,,,,,,
5c8db07eb1f89a0016777fe0,SCN,2024-06-21_12h46.02.572,LearnStrategy,2023.2.3,Win32,59.88023952,,,,,,,,,,,4,09,2,2,,,,,,,,,,,,,,,,,,,,,,,,,,,,,
5c8db07eb1f89a0016777fe0,SCN,2024-06-21_12h46.02.572,LearnStrategy,2023.2.3,Win32,59.88023952,,,,,,,,,,,3,11,2,3,,,,,,,,,,,,,,,,,,,,,,,,,,,,,
5c8db07eb1f89a0016777fe0,SCN,2024-06-21_12h46.02.572,LearnStrategy,2023.2.3,Win32,59.88023952,,,,,,,,,,,4,14,2,4,,,,,,,,,,,,,,,,,,,,,,,,,,,,,
5c8db07eb1f89a0016777fe0,SCN,2024-06-21_12h46.02.572,LearnStrategy,2023.2.3,Win32,59.88023952,,,,,,,,,,,6,13,2,5,,,,,,,,,,,,,,,,,,,,,,,,,,,,,
5c8db07eb1f89a0016777fe0,SCN,2024-06-21_12h46.02.572,LearnStrategy,2023.2.3,Win32,59.88023952,,,,,,,,,,,5,10,2,6,,,,,,,,,,,,,,,,,,,,,,,,,,,,,
5c8db07eb1f89a0016777fe0,SCN,2024-06-21_12h46.02.572,LearnStrategy,2023.2.3,Win32,59.88023952,,,,,,,,,,,4,10,2,7,,,,,,,,,,,,,,,,,,,,,,,,,,,,,
5c8db07eb1f89a0016777fe0,SCN,2024-06-21_12h46.02.572,LearnStrategy,2023.2.3,Win32,59.88023952,,,,,,,,,,,1,16,2,8,,,,,,,,,,,,,,,,,,,,,,,,,,,,,
5c8db07eb1f89a0016777fe0,SCN,2024-06-21_12h46.02.572,LearnStrategy,2023.2.3,Win32,59.88023952,,,,,,,,,,,8,08,3,1,,,,,,,,,,,,,,,,,,,,,,,,,,,,,
5c8db07eb1f89a0016777fe0,SCN,2024-06-21_12h46.02.572,LearnStrategy,2023.2.3,Win32,59.88023952,,,,,,,,,,,6,06,3,2,,,,,,,,,,,,,,,,,,,,,,,,,,,,,
5c8db07eb1f89a0016777fe0,SCN,2024-06-21_12h46.02.572,LearnStrategy,2023.2.3,Win32,59.88023952,,,,,,,,,,,8,06,3,3,,,,,,,,,,,,,,,,,,,,,,,,,,,,,
5c8db07eb1f89a0016777fe0,SCN,2024-06-21_12h46.02.572,LearnStrategy,2023.2.3,Win32,59.88023952,,,,,,,,,,,8,13,3,4,,,,,,,,,,,,,,,,,,,,,,,,,,,,,
5c8db07eb1f89a0016777fe0,SCN,2024-06-21_12h46.02.572,LearnStrategy,2023.2.3,Win32,59.88023952,,,,,,,,,,,2,02,3,5,,,,,,,,,,,,,,,,,,,,,,,,,,,,,
5c8db07eb1f89a0016777fe0,SCN,2024-06-21_12h46.02.572,LearnStrategy,2023.2.3,Win32,59.88023952,,,,,,,,,,,1,06,3,6,,,,,,,,,,,,,,,,,,,,,,,,,,,,,
5c8db07eb1f89a0016777fe0,SCN,2024-06-21_12h46.02.572,LearnStrategy,2023.2.3,Win32,59.88023952,,,,,,,,,,,7,13,3,7,,,,,,,,,,,,,,,,,,,,,,,,,,,,,
5c8db07eb1f89a0016777fe0,SCN,2024-06-21_12h46.02.572,LearnStrategy,2023.2.3,Win32,59.88023952,,,,,,,,,,,3,10,3,8,,,,,,,,,,,,,,,,,,,,,,,,,,,,,
5c8db07eb1f89a0016777fe0,SCN,2024-06-21_12h46.02.572,LearnStrategy,2023.2.3,Win32,59.88023952,,,,,,,,,,,5,05,4,1,,,,,,,,,,,,,,,,,,,,,,,,,,,,,
5c8db07eb1f89a0016777fe0,SCN,2024-06-21_12h46.02.572,LearnStrategy,2023.2.3,Win32,59.88023952,,,,,,,,,,,6,10,4,2,,,,,,,,,,,,,,,,,,,,,,,,,,,,,
5c8db07eb1f89a0016777fe0,SCN,2024-06-21_12h46.02.572,LearnStrategy,2023.2.3,Win32,59.88023952,,,,,,,,,,,8,04,4,3,,,,,,,,,,,,,,,,,,,,,,,,,,,,,
5c8db07eb1f89a0016777fe0,SCN,2024-06-21_12h46.02.572,LearnStrategy,2023.2.3,Win32,59.88023952,,,,,,,,,,,3,08,4,4,,,,,,,,,,,,,,,,,,,,,,,,,,,,,
5c8db07eb1f89a0016777fe0,SCN,2024-06-21_12h46.02.572,LearnStrategy,2023.2.3,Win32,59.88023952,,,,,,,,,,,4,12,4,5,,,,,,,,,,,,,,,,,,,,,,,,,,,,,
5c8db07eb1f89a0016777fe0,SCN,2024-06-21_12h46.02.572,LearnStrategy,2023.2.3,Win32,59.88023952,,,,,,,,,,,6,07,4,6,,,,,,,,,,,,,,,,,,,,,,,,,,,,,
5c8db07eb1f89a0016777fe0,SCN,2024-06-21_12h46.02.572,LearnStrategy,2023.2.3,Win32,59.88023952,,,,,,,,,,,6,16,4,7,,,,,,,,,,,,,,,,,,,,,,,,,,,,,
5c8db07eb1f89a0016777fe0,SCN,2024-06-21_12h46.02.572,LearnStrategy,2023.2.3,Win32,59.88023952,,,,,,,,,,,7,14,4,8,,,,,,,,,,,,,,,,,,,,,,,,,,,,,
5c8db07eb1f89a0016777fe0,SCN,2024-06-21_12h46.02.572,LearnStrategy,2023.2.3,Win32,59.88023952,,,,,,,,,,,4,13,5,1,,,,,,,,,,,,,,,,,,,,,,,,,,,,,
5c8db07eb1f89a0016777fe0,SCN,2024-06-21_12h46.02.572,LearnStrategy,2023.2.3,Win32,59.88023952,,,,,,,,,,,8,15,5,2,,,,,,,,,,,,,,,,,,,,,,,,,,,,,
5c8db07eb1f89a0016777fe0,SCN,2024-06-21_12h46.02.572,LearnStrategy,2023.2.3,Win32,59.88023952,,,,,,,,,,,3,15,5,3,,,,,,,,,,,,,,,,,,,,,,,,,,,,,
5c8db07eb1f89a0016777fe0,SCN,2024-06-21_12h46.02.572,LearnStrategy,2023.2.3,Win32,59.88023952,,,,,,,,,,,5,14,5,4,,,,,,,,,,,,,,,,,,,,,,,,,,,,,
5c8db07eb1f89a0016777fe0,SCN,2024-06-21_12h46.02.572,LearnStrategy,2023.2.3,Win32,59.88023952,,,,,,,,,,,2,14,5,5,,,,,,,,,,,,,,,,,,,,,,,,,,,,,
5c8db07eb1f89a0016777fe0,SCN,2024-06-21_12h46.02.572,LearnStrategy,2023.2.3,Win32,59.88023952,,,,,,,,,,,2,12,5,6,,,,,,,,,,,,,,,,,,,,,,,,,,,,,
5c8db07eb1f89a0016777fe0,SCN,2024-06-21_12h46.02.572,LearnStrategy,2023.2.3,Win32,59.88023952,,,,,,,,,,,1,11,5,7,,,,,,,,,,,,,,,,,,,,,,,,,,,,,
5c8db07eb1f89a0016777fe0,SCN,2024-06-21_12h46.02.572,LearnStrategy,2023.2.3,Win32,59.88023952,,,,,,,,,,,8,02,5,8,,,,,,,,,,,,,,,,,,,,,,,,,,,,,
5c8db07eb1f89a0016777fe0,SCN,2024-06-21_12h46.02.572,LearnStrategy,2023.2.3,Win32,59.88023952,,,,,,,,,,,7,04,6,1,,,,,,,,,,,,,,,,,,,,,,,,,,,,,
5c8db07eb1f89a0016777fe0,SCN,2024-06-21_12h46.02.572,LearnStrategy,2023.2.3,Win32,59.88023952,,,,,,,,,,,5,11,6,2,,,,,,,,,,,,,,,,,,,,,,,,,,,,,
5c8db07eb1f89a0016777fe0,SCN,2024-06-21_12h46.02.572,LearnStrategy,2023.2.3,Win32,59.88023952,,,,,,,,,,,3,14,6,3,,,,,,,,,,,,,,,,,,,,,,,,,,,,,
5c8db07eb1f89a0016777fe0,SCN,2024-06-21_12h46.02.572,LearnStrategy,2023.2.3,Win32,59.88023952,,,,,,,,,,,7,10,6,4,,,,,,,,,,,,,,,,,,,,,,,,,,,,,
5c8db07eb1f89a0016777fe0,SCN,2024-06-21_12h46.02.572,LearnStrategy,2023.2.3,Win32,59.88023952,,,,,,,,,,,7,02,6,5,,,,,,,,,,,,,,,,,,,,,,,,,,,,,
5c8db07eb1f89a0016777fe0,SCN,2024-06-21_12h46.02.572,LearnStrategy,2023.2.3,Win32,59.88023952,,,,,,,,,,,2,06,6,6,,,,,,,,,,,,,,,,,,,,,,,,,,,,,
5c8db07eb1f89a0016777fe0,SCN,2024-06-21_12h46.02.572,LearnStrategy,2023.2.3,Win32,59.88023952,,,,,,,,,,,3,02,6,7,,,,,,,,,,,,,,,,,,,,,,,,,,,,,
5c8db07eb1f89a0016777fe0,SCN,2024-06-21_12h46.02.572,LearnStrategy,2023.2.3,Win32,59.88023952,,,,,,,,,,,2,01,6,8,,,,,,,,,,,,,,,,,,,,,,,,,,,,,