participant,condition,date,expName,psychopyVersion,OS,frameRate,block,phase,trial,learn_mouse_2.x,learn_mouse_2.y,learn_mouse_2.leftButton,learn_mouse_2.midButton,learn_mouse_2.rightButton,learn_mouse_2.time,learn_mouse_2.clicked_name,cat,token,row,col,t_select,cat_mouse_l.x,cat_mouse_l.y,cat_mouse_l.leftButton,cat_mouse_l.midButton,cat_mouse_l.rightButton,cat_mouse_l.time,cat_mouse_l.clicked_name,resp,t_resp,corr,train_trials.thisRepN,train_trials.thisTrialN,train_trials.thisN,train_trials.thisIndex,train_trials.ran,cat_mouse_t.x,cat_mouse_t.y,cat_mouse_t.leftButton,cat_mouse_t.midButton,cat_mouse_t.rightButton,cat_mouse_t.time,cat_mouse_t.clicked_name,test_trials.thisRepN,test_trials.thisTrialN,test_trials.thisN,test_trials.thisIndex,test_trials.ran,Bonus
5c95493ddd325800166f838a,TCR,2024-06-25_12h39.32.866,LearnStrategy,2023.2.3,MacIntel,57.80346821,,,,,,,,,,,,,,,,,,,,,,,,,,,,,,,,,,,,,,,,,,,
5c95493ddd325800166f838a,TCR,2024-06-25_12h39.32.866,LearnStrategy,2023.2.3,MacIntel,57.80346821,1,1,1,0.022767741,-0.013497213,1,0,0,2.521,rock_grid_rect_2,8,14,-1,-1,2.521,0.367211236,-0.250052829,1,0,0,6.7336,Gabbro_rect,4,6.734,0,0,0,0,0,1,,,,,,,,,,,,,
5c95493ddd325800166f838a,TCR,2024-06-25_12h39.32.866,LearnStrategy,2023.2.3,MacIntel,57.80346821,1,1,2,0.037479926,-0.005552233,1,0,0,4.7521,rock_grid_rect_2,7,05,-1,-1,4.752,-0.126517673,-0.241984389,1,0,0,2.8846,Basalt_rect,2,2.885,0,1,0,1,0,1,,,,,,,,,,,,,
5c95493ddd325800166f838a,TCR,2024-06-25_12h39.32.866,LearnStrategy,2023.2.3,MacIntel,57.80346821,1,1,3,0.003930732,-0.007087199,1,0,0,1.5706,rock_grid_rect_2,1,04,-1,-1,1.571,-0.162206082,-0.265483059,1,0,0,7.7955,Basalt_rect,2,7.796,0,2,0,2,0,1,,,,,,,,,,,,,
5c95493ddd325800166f838a,TCR,2024-06-25_12h39.32.866,LearnStrategy,2023.2.3,MacIntel,57.80346821,1,1,4,0.002767605,-0.000647956,1,0,0,1.9996,rock_grid_rect_2,3,09,-1,-1,2,0.35940606,-0.258818631,1,0,0,3.8002,Gabbro_rect,4,3.8,0,3,0,3,0,1,,,,,,,,,,,,,
5c95493ddd325800166f838a,TCR,2024-06-25_12h39.32.866,LearnStrategy,2023.2.3,MacIntel,57.80346821,1,1,5,-0.004256049,-0.001281399,1,0,0,1.4046,rock_grid_rect_2,7,04,-1,-1,1.405,-0.10652832,-0.270621474,1,0,0,1.8135,Basalt_rect,2,1.814,0,4,0,4,0,1,,,,,,,,,,,,,
5c95493ddd325800166f838a,TCR,2024-06-25_12h39.32.866,LearnStrategy,2023.2.3,MacIntel,57.80346821,1,1,6,-0.030275743,-0.001901415,1,0,0,1.2699,rock_grid_rect_2,2,09,-1,-1,1.27,-0.104404636,-0.385217353,1,0,0,2.4317,Pegmatite_rect,6,2.432,0,5,0,5,0,1,,,,,,,,,,,,,
5c95493ddd325800166f838a,TCR,2024-06-25_12h39.32.866,LearnStrategy,2023.2.3,MacIntel,57.80346821,1,1,7,-0.016433919,-0.006506144,1,0,0,1.2226,rock_grid_rect_2,2,14,-1,-1,1.223,0.334941542,-0.383389147,1,0,0,9.6803,Pumice_rect,8,9.68,0,6,0,6,0,1,,,,,,,,,,,,,
5c95493ddd325800166f838a,TCR,2024-06-25_12h39.32.866,LearnStrategy,2023.2.3,MacIntel,57.80346821,1,1,8,-0.015619642,-5.47621E-05,1,0,0,1.2,rock_grid_rect_2,8,06,-1,-1,1.2,0.387226562,-0.379023709,1,0,0,1.8482,Pumice_rect,8,1.848,1,7,0,7,0,1,,,,,,,,,,,,,
5c95493ddd325800166f838a,TCR,2024-06-25_12h39.32.866,LearnStrategy,2023.2.3,MacIntel,57.80346821,1,1,9,-0.079644979,-0.004967719,1,0,0,1.3809,rock_grid_rect_2,3,06,-1,-1,1.381,0.128715074,-0.239243842,1,0,0,8.5996,Diorite_rect,3,8.6,1,8,0,8,0,1,,,,,,,,,,,,,
5c95493ddd325800166f838a,TCR,2024-06-25_12h39.32.866,LearnStrategy,2023.2.3,MacIntel,57.80346821,1,1,10,-0.033499891,-0.00856113,1,0,0,1.3291,rock_grid_rect_2,5,06,-1,-1,1.329,-0.372069668,-0.407796495,1,0,0,2.4269,Obsidian_rect,5,2.427,1,9,0,9,0,1,,,,,,,,,,,,,
5c95493ddd325800166f838a,TCR,2024-06-25_12h39.32.866,LearnStrategy,2023.2.3,MacIntel,57.80346821,1,1,11,-0.02868103,-0.004350586,1,0,0,1.7001,rock_grid_rect_2,5,11,-1,-1,1.7,-0.364382968,-0.40693712,1,0,0,1.5215,Obsidian_rect,5,1.522,1,10,0,10,0,1,,,,,,,,,,,,,
5c95493ddd325800166f838a,TCR,2024-06-25_12h39.32.866,LearnStrategy,2023.2.3,MacIntel,57.80346821,1,1,12,-0.032376166,0.007061937,1,0,0,1.1136,rock_grid_rect_2,6,08,-1,-1,1.114,-0.092709622,-0.403116794,1,0,0,3.1001,Pegmatite_rect,6,3.1,1,11,0,11,0,1,,,,,,,,,,,,,
5c95493ddd325800166f838a,TCR,2024-06-25_12h39.32.866,LearnStrategy,2023.2.3,MacIntel,57.80346821,1,1,13,0.003354357,0.006847127,1,0,0,1.1021,rock_grid_rect_2,4,12,-1,-1,1.102,-0.113248223,-0.239387207,1,0,0,6.0822,Basalt_rect,2,6.082,0,12,0,12,0,1,,,,,,,,,,,,,
5c95493ddd325800166f838a,TCR,2024-06-25_12h39.32.866,LearnStrategy,2023.2.3,MacIntel,57.80346821,1,1,14,-0.071929118,-0.004742906,1,0,0,12.0193,rock_grid_rect_2,6,09,-1,-1,12.019,-0.153661092,-0.387921414,1,0,0,22.5047,Pegmatite_rect,6,22.505,1,13,0,13,0,1,,,,,,,,,,,,,
5c95493ddd325800166f838a,TCR,2024-06-25_12h39.32.866,LearnStrategy,2023.2.3,MacIntel,57.80346821,1,1,15,-0.014377848,-0.016588609,1,0,0,1.0791,rock_grid_rect_2,1,03,-1,-1,1.079,0.335944417,-0.247079129,1,0,0,7.7454,Gabbro_rect,4,7.745,0,14,0,14,0,1,,,,,,,,,,,,,
5c95493ddd325800166f838a,TCR,2024-06-25_12h39.32.866,LearnStrategy,2023.2.3,MacIntel,57.80346821,1,1,16,0.0231132,-0.019632263,1,0,0,1.8876,rock_grid_rect_2,4,08,-1,-1,1.888,0.369320882,-0.25816664,1,0,0,25.4669,Gabbro_rect,4,25.467,1,15,0,15,0,1,,,,,,,,,,,,,
5c95493ddd325800166f838a,TCR,2024-06-25_12h39.32.866,LearnStrategy,2023.2.3,MacIntel,57.80346821,1,2,1,,,,,,,,3,07,,,,,,,,,,,3,16.63,1,,,,,,0.119934896,-0.235768636,1,0,0,16.63,Diorite_rect,0,0,0,0,1,
5c95493ddd325800166f838a,TCR,2024-06-25_12h39.32.866,LearnStrategy,2023.2.3,MacIntel,57.80346821,1,2,2,,,,,,,,4,05,,,,,,,,,,,7,24.429,0,,,,,,0.103472493,-0.389152222,1,0,0,24.4292,Peridotite_rect,1,0,1,0,1,
5c95493ddd325800166f838a,TCR,2024-06-25_12h39.32.866,LearnStrategy,2023.2.3,MacIntel,57.80346821,1,2,3,,,,,,,,8,09,,,,,,,,,,,8,2.3,1,,,,,,0.438928765,-0.408856744,1,0,0,2.3003,Pumice_rect,2,0,2,0,1,
5c95493ddd325800166f838a,TCR,2024-06-25_12h39.32.866,LearnStrategy,2023.2.3,MacIntel,57.80346821,1,2,4,,,,,,,,3,14,,,,,,,,,,,3,7.595,1,,,,,,0.179741482,-0.241213515,1,0,0,7.5951,Diorite_rect,3,0,3,0,1,
5c95493ddd325800166f838a,TCR,2024-06-25_12h39.32.866,LearnStrategy,2023.2.3,MacIntel,57.80346821,1,2,5,,,,,,,,6,06,,,,,,,,,,,6,8.612,1,,,,,,-0.091384549,-0.38632175,1,0,0,8.6125,Pegmatite_rect,4,0,4,0,1,
5c95493ddd325800166f838a,TCR,2024-06-25_12h39.32.866,LearnStrategy,2023.2.3,MacIntel,57.80346821,1,2,6,,,,,,,,1,11,,,,,,,,,,,1,5.062,1,,,,,,-0.436348402,-0.243717719,1,0,0,5.0623,Andesite_rect,5,0,5,0,1,
5c95493ddd325800166f838a,TCR,2024-06-25_12h39.32.866,LearnStrategy,2023.2.3,MacIntel,57.80346821,1,2,7,,,,,,,,8,13,,,,,,,,,,,1,18.052,0,,,,,,-0.371949768,-0.247802734,1,0,0,18.0521,Andesite_rect,6,0,6,0,1,
5c95493ddd325800166f838a,TCR,2024-06-25_12h39.32.866,LearnStrategy,2023.2.3,MacIntel,57.80346821,1,2,8,,,,,,,,7,10,,,,,,,,,,,7,6.861,1,,,,,,0.05463874,-0.412106662,1,0,0,6.8608,Peridotite_rect,7,0,7,0,1,
5c95493ddd325800166f838a,TCR,2024-06-25_12h39.32.866,LearnStrategy,2023.2.3,MacIntel,57.80346821,1,2,9,,,,,,,,2,05,,,,,,,,,,,2,7.581,1,,,,,,-0.235811869,-0.253050537,1,0,0,7.5805,Basalt_rect,8,0,8,0,1,
5c95493ddd325800166f838a,TCR,2024-06-25_12h39.32.866,LearnStrategy,2023.2.3,MacIntel,57.80346821,1,2,10,,,,,,,,5,02,,,,,,,,,,,5,5.966,1,,,,,,-0.422489454,-0.41398485,1,0,0,5.9662,Obsidian_rect,9,0,9,0,1,
5c95493ddd325800166f838a,TCR,2024-06-25_12h39.32.866,LearnStrategy,2023.2.3,MacIntel,57.80346821,1,2,11,,,,,,,,5,16,,,,,,,,,,,5,1.413,1,,,,,,-0.406914605,-0.407477553,1,0,0,1.413,Obsidian_rect,10,0,10,0,1,
5c95493ddd325800166f838a,TCR,2024-06-25_12h39.32.866,LearnStrategy,2023.2.3,MacIntel,57.80346821,1,2,12,,,,,,,,1,05,,,,,,,,,,,4,3.94,0,,,,,,0.363879666,-0.229621718,1,0,0,3.9403,Gabbro_rect,11,0,11,0,1,
5c95493ddd325800166f838a,TCR,2024-06-25_12h39.32.866,LearnStrategy,2023.2.3,MacIntel,57.80346821,1,2,13,,,,,,,,7,02,,,,,,,,,,,6,12.382,0,,,,,,-0.057239041,-0.415497097,1,0,0,12.3818,Pegmatite_rect,12,0,12,0,1,
5c95493ddd325800166f838a,TCR,2024-06-25_12h39.32.866,LearnStrategy,2023.2.3,MacIntel,57.80346821,1,2,14,,,,,,,,4,09,,,,,,,,,,,4,7.078,1,,,,,,0.359503309,-0.24563897,1,0,0,7.078,Gabbro_rect,13,0,13,0,1,
5c95493ddd325800166f838a,TCR,2024-06-25_12h39.32.866,LearnStrategy,2023.2.3,MacIntel,57.80346821,1,2,15,,,,,,,,2,16,,,,,,,,,,,2,7.245,1,,,,,,-0.046353895,-0.248642578,1,0,0,7.2452,Basalt_rect,14,0,14,0,1,
5c95493ddd325800166f838a,TCR,2024-06-25_12h39.32.866,LearnStrategy,2023.2.3,MacIntel,57.80346821,1,2,16,,,,,,,,6,13,,,,,,,,,,,7,7.078,0,,,,,,0.114600966,-0.393634847,1,0,0,7.0783,Peridotite_rect,15,0,15,0,1,
5c95493ddd325800166f838a,TCR,2024-06-25_12h39.32.866,LearnStrategy,2023.2.3,MacIntel,57.80346821,2,1,1,-0.036555108,-0.012370809,1,0,0,2.381,rock_grid_rect_2,4,01,-1,-1,2.381,-0.154826796,-0.250505032,1,0,0,12.9723,Basalt_rect,2,12.972,0,0,0,0,0,1,,,,,,,,,,,,,
5c95493ddd325800166f838a,TCR,2024-06-25_12h39.32.866,LearnStrategy,2023.2.3,MacIntel,57.80346821,2,1,2,-0.074160292,0.000510661,1,0,0,1.7836,rock_grid_rect_2,4,12,-1,-1,1.784,0.375250651,-0.251580743,1,0,0,6.5927,Gabbro_rect,4,6.593,1,1,0,1,0,1,,,,,,,,,,,,,
5c95493ddd325800166f838a,TCR,2024-06-25_12h39.32.866,LearnStrategy,2023.2.3,MacIntel,57.80346821,2,1,3,-0.086093547,-0.005561083,1,0,0,1.1624,rock_grid_rect_2,8,16,-1,-1,1.162,0.410320909,-0.39633138,1,0,0,9.7166,Pumice_rect,8,9.717,1,2,0,2,0,1,,,,,,,,,,,,,
5c95493ddd325800166f838a,TCR,2024-06-25_12h39.32.866,LearnStrategy,2023.2.3,MacIntel,57.80346821,2,1,4,-0.012696126,0.004800958,1,0,0,0.966,rock_grid_rect_2,5,04,-1,-1,0.966,-0.395834045,-0.406189507,1,0,0,8.9339,Obsidian_rect,5,8.934,1,3,0,3,0,1,,,,,,,,,,,,,
5c95493ddd325800166f838a,TCR,2024-06-25_12h39.32.866,LearnStrategy,2023.2.3,MacIntel,57.80346821,2,1,5,0.009803738,0.010646532,1,0,0,1.0468,rock_grid_rect_2,7,08,-1,-1,1.047,0.183135512,-0.392412448,1,0,0,8.5999,Peridotite_rect,7,8.6,1,4,0,4,0,1,,,,,,,,,,,,,
5c95493ddd325800166f838a,TCR,2024-06-25_12h39.32.866,LearnStrategy,2023.2.3,MacIntel,57.80346821,2,1,6,-0.019759793,-0.008735657,1,0,0,1.5832,rock_grid_rect_2,1,14,-1,-1,1.583,-0.120640937,-0.387098321,1,0,0,18.9842,Pegmatite_rect,6,18.984,0,5,0,5,0,1,,,,,,,,,,,,,
5c95493ddd325800166f838a,TCR,2024-06-25_12h39.32.866,LearnStrategy,2023.2.3,MacIntel,57.80346821,2,1,7,0.008876614,0.006243252,1,0,0,1.2182,rock_grid_rect_2,7,04,-1,-1,1.218,0.077009277,-0.40309455,1,0,0,13.4842,Peridotite_rect,7,13.484,1,6,0,6,0,1,,,,,,,,,,,,,
5c95493ddd325800166f838a,TCR,2024-06-25_12h39.32.866,LearnStrategy,2023.2.3,MacIntel,57.80346821,2,1,8,-0.02068339,-0.004574687,1,0,0,1.0801,rock_grid_rect_2,6,11,-1,-1,1.08,-0.101114705,-0.387713284,1,0,0,10.6547,Pegmatite_rect,6,10.655,1,7,0,7,0,1,,,,,,,,,,,,,
5c95493ddd325800166f838a,TCR,2024-06-25_12h39.32.866,LearnStrategy,2023.2.3,MacIntel,57.80346821,2,1,9,-0.04757982,-0.002616001,1,0,0,1.2131,rock_grid_rect_2,6,09,-1,-1,1.213,-0.12867608,-0.391294217,1,0,0,2.2137,Pegmatite_rect,6,2.214,1,8,0,8,0,1,,,,,,,,,,,,,
5c95493ddd325800166f838a,TCR,2024-06-25_12h39.32.866,LearnStrategy,2023.2.3,MacIntel,57.80346821,2,1,10,-0.02819397,-0.01114129,1,0,0,1.0977,rock_grid_rect_2,6,15,-1,-1,1.098,-0.071934136,-0.4034788,1,0,0,3.7177,Pegmatite_rect,6,3.718,1,9,0,9,0,1,,,,,,,,,,,,,
5c95493ddd325800166f838a,TCR,2024-06-25_12h39.32.866,LearnStrategy,2023.2.3,MacIntel,57.80346821,2,1,11,-0.038584459,-0.01953481,1,0,0,1.7453,rock_grid_rect_2,8,14,-1,-1,1.745,0.400661892,-0.397515598,1,0,0,3.0475,Pumice_rect,8,3.048,1,10,0,10,0,1,,,,,,,,,,,,,
5c95493ddd325800166f838a,TCR,2024-06-25_12h39.32.866,LearnStrategy,2023.2.3,MacIntel,57.80346821,2,1,12,0.049459364,-0.014788852,1,0,0,1.1128,rock_grid_rect_2,4,12,-1,-1,1.113,0.343608263,-0.250260824,1,0,0,15.4642,Gabbro_rect,4,15.464,1,11,0,11,0,1,,,,,,,,,,,,,
5c95493ddd325800166f838a,TCR,2024-06-25_12h39.32.866,LearnStrategy,2023.2.3,MacIntel,57.80346821,2,1,13,-0.011901991,-0.007467211,1,0,0,1.2635,rock_grid_rect_2,8,06,-1,-1,1.264,0.379188639,-0.398742744,1,0,0,2.0486,Pumice_rect,8,2.049,1,12,0,12,0,1,,,,,,,,,,,,,
5c95493ddd325800166f838a,TCR,2024-06-25_12h39.32.866,LearnStrategy,2023.2.3,MacIntel,57.80346821,2,1,14,-0.025067003,0.00802636,1,0,0,1.3148,rock_grid_rect_2,7,05,-1,-1,1.315,0.371731771,-0.24619873,1,0,0,4.1003,Gabbro_rect,4,4.1,0,13,0,13,0,1,,,,,,,,,,,,,
5c95493ddd325800166f838a,TCR,2024-06-25_12h39.32.866,LearnStrategy,2023.2.3,MacIntel,57.80346821,2,1,15,0.082885674,0.00781762,1,0,0,1.8534,rock_grid_rect_2,1,03,-1,-1,1.853,-0.385994229,-0.262369317,1,0,0,8.1839,Andesite_rect,1,8.184,1,14,0,14,0,1,,,,,,,,,,,,,
5c95493ddd325800166f838a,TCR,2024-06-25_12h39.32.866,LearnStrategy,2023.2.3,MacIntel,57.80346821,2,1,16,-0.034831814,-0.00725786,1,0,0,1.2963,rock_grid_rect_2,1,16,-1,-1,1.296,-0.434622464,-0.23245775,1,0,0,8.3493,Andesite_rect,1,8.349,1,15,0,15,0,1,,,,,,,,,,,,,
5c95493ddd325800166f838a,TCR,2024-06-25_12h39.32.866,LearnStrategy,2023.2.3,MacIntel,57.80346821,2,2,1,,,,,,,,4,14,,,,,,,,,,,7,8.963,0,,,,,,0.062795885,-0.398861762,1,0,0,8.9634,Peridotite_rect,0,0,0,0,1,
5c95493ddd325800166f838a,TCR,2024-06-25_12h39.32.866,LearnStrategy,2023.2.3,MacIntel,57.80346821,2,2,2,,,,,,,,6,05,,,,,,,,,,,6,13.258,1,,,,,,-0.061141968,-0.393346219,1,0,0,13.2585,Pegmatite_rect,1,0,1,0,1,
5c95493ddd325800166f838a,TCR,2024-06-25_12h39.32.866,LearnStrategy,2023.2.3,MacIntel,57.80346821,2,2,3,,,,,,,,4,13,,,,,,,,,,,2,8.528,0,,,,,,-0.166277601,-0.238139852,1,0,0,8.5284,Basalt_rect,2,0,2,0,1,
5c95493ddd325800166f838a,TCR,2024-06-25_12h39.32.866,LearnStrategy,2023.2.3,MacIntel,57.80346821,2,2,4,,,,,,,,8,03,,,,,,,,,,,8,1.678,1,,,,,,0.418125543,-0.381443753,1,0,0,1.6783,Pumice_rect,3,0,3,0,1,
5c95493ddd325800166f838a,TCR,2024-06-25_12h39.32.866,LearnStrategy,2023.2.3,MacIntel,57.80346821,2,2,5,,,,,,,,3,10,,,,,,,,,,,3,6.176,1,,,,,,0.1093927,-0.251149835,1,0,0,6.1764,Diorite_rect,4,0,4,0,1,
5c95493ddd325800166f838a,TCR,2024-06-25_12h39.32.866,LearnStrategy,2023.2.3,MacIntel,57.80346821,2,2,6,,,,,,,,3,12,,,,,,,,,,,3,0.978,1,,,,,,0.104572211,-0.249156019,1,0,0,0.9781,Diorite_rect,5,0,5,0,1,
5c95493ddd325800166f838a,TCR,2024-06-25_12h39.32.866,LearnStrategy,2023.2.3,MacIntel,57.80346821,2,2,7,,,,,,,,5,08,,,,,,,,,,,5,1.73,1,,,,,,-0.423041348,-0.415326945,1,0,0,1.7295,Obsidian_rect,6,0,6,0,1,
5c95493ddd325800166f838a,TCR,2024-06-25_12h39.32.866,LearnStrategy,2023.2.3,MacIntel,57.80346821,2,2,8,,,,,,,,8,05,,,,,,,,,,,1,9.997,0,,,,,,-0.417353482,-0.24480089,1,0,0,9.9967,Andesite_rect,7,0,7,0,1,
5c95493ddd325800166f838a,TCR,2024-06-25_12h39.32.866,LearnStrategy,2023.2.3,MacIntel,57.80346821,2,2,9,,,,,,,,5,10,,,,,,,,,,,5,2.381,1,,,,,,-0.411373461,-0.393426107,1,0,0,2.3813,Obsidian_rect,8,0,8,0,1,
5c95493ddd325800166f838a,TCR,2024-06-25_12h39.32.866,LearnStrategy,2023.2.3,MacIntel,57.80346821,2,2,10,,,,,,,,7,15,,,,,,,,,,,4,20.649,0,,,,,,0.393865424,-0.238450928,1,0,0,20.649,Gabbro_rect,9,0,9,0,1,
5c95493ddd325800166f838a,TCR,2024-06-25_12h39.32.866,LearnStrategy,2023.2.3,MacIntel,57.80346821,2,2,11,,,,,,,,1,01,,,,,,,,,,,1,14.866,1,,,,,,-0.348972236,-0.269717678,1,0,0,14.8665,Andesite_rect,10,0,10,0,1,
5c95493ddd325800166f838a,TCR,2024-06-25_12h39.32.866,LearnStrategy,2023.2.3,MacIntel,57.80346821,2,2,12,,,,,,,,2,12,,,,,,,,,,,8,2.412,0,,,,,,0.357996962,-0.379756131,1,0,0,2.4123,Pumice_rect,11,0,11,0,1,
5c95493ddd325800166f838a,TCR,2024-06-25_12h39.32.866,LearnStrategy,2023.2.3,MacIntel,57.80346821,2,2,13,,,,,,,,1,06,,,,,,,,,,,1,3.963,1,,,,,,-0.393408034,-0.236661919,1,0,0,3.9627,Andesite_rect,12,0,12,0,1,
5c95493ddd325800166f838a,TCR,2024-06-25_12h39.32.866,LearnStrategy,2023.2.3,MacIntel,57.80346821,2,2,14,,,,,,,,6,10,,,,,,,,,,,6,3.881,1,,,,,,-0.160444268,-0.402328966,1,0,0,3.8807,Pegmatite_rect,13,0,13,0,1,
5c95493ddd325800166f838a,TCR,2024-06-25_12h39.32.866,LearnStrategy,2023.2.3,MacIntel,57.80346821,2,2,15,,,,,,,,7,06,,,,,,,,,,,6,2.512,0,,,,,,-0.141288113,-0.398570489,1,0,0,2.5116,Pegmatite_rect,14,0,14,0,1,
5c95493ddd325800166f838a,TCR,2024-06-25_12h39.32.866,LearnStrategy,2023.2.3,MacIntel,57.80346821,2,2,16,,,,,,,,2,08,,,,,,,,,,,2,19.02,1,,,,,,-0.147116835,-0.252144436,1,0,0,19.0205,Basalt_rect,15,0,15,0,1,
5c95493ddd325800166f838a,TCR,2024-06-25_12h39.32.866,LearnStrategy,2023.2.3,MacIntel,57.80346821,3,1,1,-0.023205227,0.010146281,1,0,0,2.6638,rock_grid_rect_2,6,09,-1,-1,2.664,-0.101463691,-0.393651326,1,0,0,2.4447,Pegmatite_rect,6,2.445,1,0,0,0,0,1,,,,,,,,,,,,,
5c95493ddd325800166f838a,TCR,2024-06-25_12h39.32.866,LearnStrategy,2023.2.3,MacIntel,57.80346821,3,1,2,-0.071635742,0.001568875,1,0,0,1.5304,rock_grid_rect_2,1,04,-1,-1,1.53,0.373946804,-0.241127048,1,0,0,11.1845,Gabbro_rect,4,11.184,0,1,0,1,0,1,,,,,,,,,,,,,
5c95493ddd325800166f838a,TCR,2024-06-25_12h39.32.866,LearnStrategy,2023.2.3,MacIntel,57.80346821,3,1,3,-0.0360456,-0.002792562,1,0,0,2.3042,rock_grid_rect_2,7,08,-1,-1,2.304,0.161347385,-0.396790568,1,0,0,7.7017,Peridotite_rect,7,7.702,1,2,0,2,0,1,,,,,,,,,,,,,
5c95493ddd325800166f838a,TCR,2024-06-25_12h39.32.866,LearnStrategy,2023.2.3,MacIntel,57.80346821,3,1,4,-0.043582357,-0.015186327,1,0,0,1.35,rock_grid_rect_2,8,08,-1,-1,1.35,0.396954346,-0.399628703,1,0,0,1.926,Pumice_rect,8,1.926,1,3,0,3,0,1,,,,,,,,,,,,,
5c95493ddd325800166f838a,TCR,2024-06-25_12h39.32.866,LearnStrategy,2023.2.3,MacIntel,57.80346821,3,1,5,-0.020320909,0.007850172,1,0,0,1.6963,rock_grid_rect_2,7,05,-1,-1,1.696,0.110334947,-0.411102498,1,0,0,3.7503,Peridotite_rect,7,3.75,1,4,0,4,0,1,,,,,,,,,,,,,
5c95493ddd325800166f838a,TCR,2024-06-25_12h39.32.866,LearnStrategy,2023.2.3,MacIntel,57.80346821,3,1,6,-0.011266208,-0.006534288,1,0,0,1.162,rock_grid_rect_2,8,10,-1,-1,1.162,0.393132053,-0.386984253,1,0,0,1.5869,Pumice_rect,8,1.587,1,5,0,5,0,1,,,,,,,,,,,,,
5c95493ddd325800166f838a,TCR,2024-06-25_12h39.32.866,LearnStrategy,2023.2.3,MacIntel,57.80346821,3,1,7,0.004296061,-0.009501377,1,0,0,1.1306,rock_grid_rect_2,8,06,-1,-1,1.131,0.40662462,-0.419310574,1,0,0,1.3972,Pumice_rect,8,1.397,1,6,0,6,0,1,,,,,,,,,,,,,
5c95493ddd325800166f838a,TCR,2024-06-25_12h39.32.866,LearnStrategy,2023.2.3,MacIntel,57.80346821,3,1,8,-0.021268921,0.001581896,1,0,0,1.3474,rock_grid_rect_2,7,05,-1,-1,1.347,0.128283895,-0.403099162,1,0,0,3.518,Peridotite_rect,7,3.518,1,7,0,7,0,1,,,,,,,,,,,,,
5c95493ddd325800166f838a,TCR,2024-06-25_12h39.32.866,LearnStrategy,2023.2.3,MacIntel,57.80346821,3,1,9,0.001241726,0.011991577,1,0,0,1.0135,rock_grid_rect_2,2,04,-1,-1,1.014,-0.161087782,-0.262283596,1,0,0,14.2975,Basalt_rect,2,14.297,1,8,0,8,0,1,,,,,,,,,,,,,
5c95493ddd325800166f838a,TCR,2024-06-25_12h39.32.866,LearnStrategy,2023.2.3,MacIntel,57.80346821,3,1,10,-0.085246853,-0.001270074,1,0,0,1.3009,rock_grid_rect_2,4,11,-1,-1,1.301,-0.112182007,-0.267225071,1,0,0,2.3056,Basalt_rect,2,2.306,0,9,0,9,0,1,,,,,,,,,,,,,
5c95493ddd325800166f838a,TCR,2024-06-25_12h39.32.866,LearnStrategy,2023.2.3,MacIntel,57.80346821,3,1,11,-0.040845337,0.013101942,1,0,0,1.0885,rock_grid_rect_2,4,08,-1,-1,1.089,-0.122735664,-0.253347643,1,0,0,1.866,Basalt_rect,2,1.866,0,10,0,10,0,1,,,,,,,,,,,,,
5c95493ddd325800166f838a,TCR,2024-06-25_12h39.32.866,LearnStrategy,2023.2.3,MacIntel,57.80346821,3,1,12,-0.01013387,-0.020329115,1,0,0,1.1685,rock_grid_rect_2,4,12,-1,-1,1.168,0.344828016,-0.237510986,1,0,0,11.8335,Gabbro_rect,4,11.833,1,11,0,11,0,1,,,,,,,,,,,,,
5c95493ddd325800166f838a,TCR,2024-06-25_12h39.32.866,LearnStrategy,2023.2.3,MacIntel,57.80346821,3,1,13,0.000137872,0.008550449,1,0,0,1.8613,rock_grid_rect_2,4,10,-1,-1,1.861,0.377688124,-0.236425849,1,0,0,11.5514,Gabbro_rect,4,11.551,1,12,0,12,0,1,,,,,,,,,,,,,
5c95493ddd325800166f838a,TCR,2024-06-25_12h39.32.866,LearnStrategy,2023.2.3,MacIntel,57.80346821,3,1,14,-0.012437744,0.001227587,1,0,0,1.3122,rock_grid_rect_2,2,06,-1,-1,1.312,-0.097921956,-0.248471205,1,0,0,18.0007,Basalt_rect,2,18.001,1,13,0,13,0,1,,,,,,,,,,,,,
5c95493ddd325800166f838a,TCR,2024-06-25_12h39.32.866,LearnStrategy,2023.2.3,MacIntel,57.80346821,3,1,15,-0.021604886,-0.00480662,1,0,0,0.9711,rock_grid_rect_2,5,04,-1,-1,0.971,-0.448113539,-0.405300768,1,0,0,8.6594,Obsidian_rect,5,8.659,1,14,0,14,0,1,,,,,,,,,,,,,
5c95493ddd325800166f838a,TCR,2024-06-25_12h39.32.866,LearnStrategy,2023.2.3,MacIntel,57.80346821,3,1,16,0.081447618,0.002489115,1,0,0,2.1955,rock_grid_rect_2,7,12,-1,-1,2.196,-0.392317844,-0.243658176,1,0,0,9.8712,Andesite_rect,1,9.871,0,15,0,15,0,1,,,,,,,,,,,,,
5c95493ddd325800166f838a,TCR,2024-06-25_12h39.32.866,LearnStrategy,2023.2.3,MacIntel,57.80346821,3,2,1,,,,,,,,2,02,,,,,,,,,,,2,12.811,1,,,,,,-0.140425686,-0.261806641,1,0,0,12.811,Basalt_rect,0,0,0,0,1,
5c95493ddd325800166f838a,TCR,2024-06-25_12h39.32.866,LearnStrategy,2023.2.3,MacIntel,57.80346821,3,2,2,,,,,,,,6,12,,,,,,,,,,,1,9.337,0,,,,,,-0.428479614,-0.241394043,1,0,0,9.3365,Andesite_rect,1,0,1,0,1,
5c95493ddd325800166f838a,TCR,2024-06-25_12h39.32.866,LearnStrategy,2023.2.3,MacIntel,57.80346821,3,2,3,,,,,,,,1,07,,,,,,,,,,,1,10.031,1,,,,,,-0.386453891,-0.247029826,1,0,0,10.0314,Andesite_rect,2,0,2,0,1,
5c95493ddd325800166f838a,TCR,2024-06-25_12h39.32.866,LearnStrategy,2023.2.3,MacIntel,57.80346821,3,2,4,,,,,,,,7,13,,,,,,,,,,,2,16.73,0,,,,,,-0.157439575,-0.267401259,1,0,0,16.7305,Basalt_rect,3,0,3,0,1,
5c95493ddd325800166f838a,TCR,2024-06-25_12h39.32.866,LearnStrategy,2023.2.3,MacIntel,57.80346821,3,2,5,,,,,,,,1,09,,,,,,,,,,,4,5.887,0,,,,,,0.422583143,-0.253094415,1,0,0,5.8868,Gabbro_rect,4,0,4,0,1,
5c95493ddd325800166f838a,TCR,2024-06-25_12h39.32.866,LearnStrategy,2023.2.3,MacIntel,57.80346821,3,2,6,,,,,,,,2,10,,,,,,,,,,,2,23.581,1,,,,,,-0.062843018,-0.243741455,1,0,0,23.5811,Basalt_rect,5,0,5,0,1,
5c95493ddd325800166f838a,TCR,2024-06-25_12h39.32.866,LearnStrategy,2023.2.3,MacIntel,57.80346821,3,2,7,,,,,,,,3,08,,,,,,,,,,,3,7.669,1,,,,,,0.109101902,-0.268067288,1,0,0,7.6688,Diorite_rect,6,0,6,0,1,
5c95493ddd325800166f838a,TCR,2024-06-25_12h39.32.866,LearnStrategy,2023.2.3,MacIntel,57.80346821,3,2,8,,,,,,,,7,16,,,,,,,,,,,4,14.115,0,,,,,,0.458582221,-0.252711724,1,0,0,14.1152,Gabbro_rect,7,0,7,0,1,
5c95493ddd325800166f838a,TCR,2024-06-25_12h39.32.866,LearnStrategy,2023.2.3,MacIntel,57.80346821,3,2,9,,,,,,,,6,16,,,,,,,,,,,6,2.147,1,,,,,,-0.128946669,-0.399647692,1,0,0,2.1473,Pegmatite_rect,8,0,8,0,1,
5c95493ddd325800166f838a,TCR,2024-06-25_12h39.32.866,LearnStrategy,2023.2.3,MacIntel,57.80346821,3,2,10,,,,,,,,4,03,,,,,,,,,,,4,3.164,1,,,,,,0.402597114,-0.259542711,1,0,0,3.1638,Gabbro_rect,9,0,9,0,1,
5c95493ddd325800166f838a,TCR,2024-06-25_12h39.32.866,LearnStrategy,2023.2.3,MacIntel,57.80346821,3,2,11,,,,,,,,8,15,,,,,,,,,,,2,7.347,0,,,,,,-0.134980943,-0.24945855,1,0,0,7.3466,Basalt_rect,10,0,10,0,1,
5c95493ddd325800166f838a,TCR,2024-06-25_12h39.32.866,LearnStrategy,2023.2.3,MacIntel,57.80346821,3,2,12,,,,,,,,3,15,,,,,,,,,,,3,6.598,1,,,,,,0.140897352,-0.240516629,1,0,0,6.5977,Diorite_rect,11,0,11,0,1,
5c95493ddd325800166f838a,TCR,2024-06-25_12h39.32.866,LearnStrategy,2023.2.3,MacIntel,57.80346821,3,2,13,,,,,,,,8,02,,,,,,,,,,,8,1.569,1,,,,,,0.368948703,-0.398176676,1,0,0,1.5686,Pumice_rect,12,0,12,0,1,
5c95493ddd325800166f838a,TCR,2024-06-25_12h39.32.866,LearnStrategy,2023.2.3,MacIntel,57.80346821,3,2,14,,,,,,,,5,05,,,,,,,,,,,5,2.947,1,,,,,,-0.381168281,-0.406002943,1,0,0,2.9468,Obsidian_rect,13,0,13,0,1,
5c95493ddd325800166f838a,TCR,2024-06-25_12h39.32.866,LearnStrategy,2023.2.3,MacIntel,57.80346821,3,2,15,,,,,,,,5,14,,,,,,,,,,,5,1.122,1,,,,,,-0.399901632,-0.42165785,1,0,0,1.1223,Obsidian_rect,14,0,14,0,1,
5c95493ddd325800166f838a,TCR,2024-06-25_12h39.32.866,LearnStrategy,2023.2.3,MacIntel,57.80346821,3,2,16,,,,,,,,4,16,,,,,,,,,,,7,8.748,0,,,,,,0.099339735,-0.400077922,1,0,0,8.7483,Peridotite_rect,15,0,15,0,1,
5c95493ddd325800166f838a,TCR,2024-06-25_12h39.32.866,LearnStrategy,2023.2.3,MacIntel,57.80346821,4,1,1,-0.029179077,0.000178358,1,0,0,1.8796,rock_grid_rect_2,6,09,-1,-1,1.88,-0.112144708,-0.387667508,1,0,0,2.5524,Pegmatite_rect,6,2.552,1,0,0,0,0,1,,,,,,,,,,,,,
5c95493ddd325800166f838a,TCR,2024-06-25_12h39.32.866,LearnStrategy,2023.2.3,MacIntel,57.80346821,4,1,2,-0.027494032,0.006213786,1,0,0,1.1356,rock_grid_rect_2,3,06,-1,-1,1.136,0.087621392,-0.241269396,1,0,0,8.4387,Diorite_rect,3,8.439,1,1,0,1,0,1,,,,,,,,,,,,,
5c95493ddd325800166f838a,TCR,2024-06-25_12h39.32.866,LearnStrategy,2023.2.3,MacIntel,57.80346821,4,1,3,-0.042168918,-0.014070028,1,0,0,1.7355,rock_grid_rect_2,2,01,-1,-1,1.736,-0.080053236,-0.2393396,1,0,0,4.361,Basalt_rect,2,4.361,1,2,0,2,0,1,,,,,,,,,,,,,
5c95493ddd325800166f838a,TCR,2024-06-25_12h39.32.866,LearnStrategy,2023.2.3,MacIntel,57.80346821,4,1,4,0.034416707,0.002201775,1,0,0,1.8447,rock_grid_rect_2,7,05,-1,-1,1.845,0.136046414,-0.415143975,1,0,0,10.5763,Peridotite_rect,7,10.576,1,3,0,3,0,1,,,,,,,,,,,,,
5c95493ddd325800166f838a,TCR,2024-06-25_12h39.32.866,LearnStrategy,2023.2.3,MacIntel,57.80346821,4,1,5,-0.04916999,-0.012345039,1,0,0,1.1297,rock_grid_rect_2,4,01,-1,-1,1.13,0.372909478,-0.262623427,1,0,0,9.0518,Gabbro_rect,4,9.052,1,4,0,4,0,1,,,,,,,,,,,,,
5c95493ddd325800166f838a,TCR,2024-06-25_12h39.32.866,LearnStrategy,2023.2.3,MacIntel,57.80346821,4,1,6,-0.0602398,0.011308594,1,0,0,1.9457,rock_grid_rect_2,7,04,-1,-1,1.946,0.10730245,-0.404446886,1,0,0,13.6461,Peridotite_rect,7,13.646,1,5,0,5,0,1,,,,,,,,,,,,,
5c95493ddd325800166f838a,TCR,2024-06-25_12h39.32.866,LearnStrategy,2023.2.3,MacIntel,57.80346821,4,1,7,0.023983493,0.008363749,1,0,0,2.362,rock_grid_rect_2,7,04,-1,-1,2.362,0.127915582,-0.39179952,1,0,0,3.0694,Peridotite_rect,7,3.069,1,6,0,6,0,1,,,,,,,,,,,,,
5c95493ddd325800166f838a,TCR,2024-06-25_12h39.32.866,LearnStrategy,2023.2.3,MacIntel,57.80346821,4,1,8,-0.031248372,0.002790595,1,0,0,1.1957,rock_grid_rect_2,1,03,-1,-1,1.196,-0.358029005,-0.229986979,1,0,0,3.9655,Andesite_rect,1,3.966,1,7,0,7,0,1,,,,,,,,,,,,,
5c95493ddd325800166f838a,TCR,2024-06-25_12h39.32.866,LearnStrategy,2023.2.3,MacIntel,57.80346821,4,1,9,-0.005360921,0.002189331,1,0,0,1.1448,rock_grid_rect_2,5,06,-1,-1,1.145,-0.350716281,-0.38337972,1,0,0,1.4004,Obsidian_rect,5,1.4,1,8,0,8,0,1,,,,,,,,,,,,,
5c95493ddd325800166f838a,TCR,2024-06-25_12h39.32.866,LearnStrategy,2023.2.3,MacIntel,57.80346821,4,1,10,-0.038105197,-0.002723829,1,0,0,1.1292,rock_grid_rect_2,8,16,-1,-1,1.129,-0.119992269,-0.261099786,1,0,0,8.8646,Basalt_rect,2,8.865,0,9,0,9,0,1,,,,,,,,,,,,,
5c95493ddd325800166f838a,TCR,2024-06-25_12h39.32.866,LearnStrategy,2023.2.3,MacIntel,57.80346821,4,1,11,-0.032340088,0.012003445,1,0,0,1.1991,rock_grid_rect_2,4,08,-1,-1,1.199,0.33921441,-0.270255398,1,0,0,5.1835,Gabbro_rect,4,5.184,1,10,0,10,0,1,,,,,,,,,,,,,
5c95493ddd325800166f838a,TCR,2024-06-25_12h39.32.866,LearnStrategy,2023.2.3,MacIntel,57.80346821,4,1,12,-0.032533298,0.011761271,1,0,0,1.0458,rock_grid_rect_2,7,04,-1,-1,1.046,0.129375068,-0.38998759,1,0,0,23.3026,Peridotite_rect,7,23.303,1,11,0,11,0,1,,,,,,,,,,,,,
5c95493ddd325800166f838a,TCR,2024-06-25_12h39.32.866,LearnStrategy,2023.2.3,MacIntel,57.80346821,4,1,13,-0.060593397,0.008031718,1,0,0,1.6626,rock_grid_rect_2,4,11,-1,-1,1.663,0.336520996,-0.262617323,1,0,0,8.9658,Gabbro_rect,4,8.966,1,12,0,12,0,1,,,,,,,,,,,,,
5c95493ddd325800166f838a,TCR,2024-06-25_12h39.32.866,LearnStrategy,2023.2.3,MacIntel,57.80346821,4,1,14,-0.047755534,0.000573086,1,0,0,1.3448,rock_grid_rect_2,1,16,-1,-1,1.345,-0.407359992,-0.238773668,1,0,0,26.1679,Andesite_rect,1,26.168,1,13,0,13,0,1,,,,,,,,,,,,,
5c95493ddd325800166f838a,TCR,2024-06-25_12h39.32.866,LearnStrategy,2023.2.3,MacIntel,57.80346821,4,1,15,0.118431736,-0.019523655,1,0,0,2.0639,rock_grid_rect_2,8,08,-1,-1,2.064,0.339850532,-0.408440009,1,0,0,3.3684,Pumice_rect,8,3.368,1,14,0,14,0,1,,,,,,,,,,,,,
5c95493ddd325800166f838a,TCR,2024-06-25_12h39.32.866,LearnStrategy,2023.2.3,MacIntel,57.80346821,4,1,16,0.003018934,-0.008905233,1,0,0,1.0288,rock_grid_rect_2,6,11,-1,-1,1.029,-0.175762668,-0.411310221,1,0,0,2.7837,Pegmatite_rect,6,2.784,1,15,0,15,0,1,,,,,,,,,,,,,
5c95493ddd325800166f838a,TCR,2024-06-25_12h39.32.866,LearnStrategy,2023.2.3,MacIntel,57.80346821,4,2,1,,,,,,,,3,14,,,,,,,,,,,3,20.836,1,,,,,,0.126839667,-0.246104465,1,0,0,20.8359,Diorite_rect,0,0,0,0,1,
5c95493ddd325800166f838a,TCR,2024-06-25_12h39.32.866,LearnStrategy,2023.2.3,MacIntel,57.80346821,4,2,2,,,,,,,,1,11,,,,,,,,,,,1,3.58,1,,,,,,-0.409661764,-0.253154772,1,0,0,3.5801,Andesite_rect,1,0,1,0,1,
5c95493ddd325800166f838a,TCR,2024-06-25_12h39.32.866,LearnStrategy,2023.2.3,MacIntel,57.80346821,4,2,3,,,,,,,,1,01,,,,,,,,,,,4,9.699,0,,,,,,0.374756673,-0.25034512,1,0,0,9.6994,Gabbro_rect,2,0,2,0,1,
5c95493ddd325800166f838a,TCR,2024-06-25_12h39.32.866,LearnStrategy,2023.2.3,MacIntel,57.80346821,4,2,4,,,,,,,,2,16,,,,,,,,,,,2,12.977,1,,,,,,-0.106089613,-0.262700738,1,0,0,12.9775,Basalt_rect,3,0,3,0,1,
5c95493ddd325800166f838a,TCR,2024-06-25_12h39.32.866,LearnStrategy,2023.2.3,MacIntel,57.80346821,4,2,5,,,,,,,,2,02,,,,,,,,,,,2,9.998,1,,,,,,-0.138013848,-0.246671549,1,0,0,9.9979,Basalt_rect,4,0,4,0,1,
5c95493ddd325800166f838a,TCR,2024-06-25_12h39.32.866,LearnStrategy,2023.2.3,MacIntel,57.80346821,4,2,6,,,,,,,,4,03,,,,,,,,,,,4,6.154,1,,,,,,0.401828071,-0.263035617,1,0,0,6.1538,Gabbro_rect,5,0,5,0,1,
5c95493ddd325800166f838a,TCR,2024-06-25_12h39.32.866,LearnStrategy,2023.2.3,MacIntel,57.80346821,4,2,7,,,,,,,,5,08,,,,,,,,,,,5,1.463,1,,,,,,-0.430836792,-0.400689494,1,0,0,1.4626,Obsidian_rect,6,0,6,0,1,
5c95493ddd325800166f838a,TCR,2024-06-25_12h39.32.866,LearnStrategy,2023.2.3,MacIntel,57.80346821,4,2,8,,,,,,,,7,13,,,,,,,,,,,8,2.231,0,,,,,,0.403029378,-0.414334852,1,0,0,2.2309,Pumice_rect,7,0,7,0,1,
5c95493ddd325800166f838a,TCR,2024-06-25_12h39.32.866,LearnStrategy,2023.2.3,MacIntel,57.80346821,4,2,9,,,,,,,,5,02,,,,,,,,,,,5,2.031,1,,,,,,-0.438061896,-0.395787828,1,0,0,2.0312,Obsidian_rect,8,0,8,0,1,
5c95493ddd325800166f838a,TCR,2024-06-25_12h39.32.866,LearnStrategy,2023.2.3,MacIntel,57.80346821,4,2,10,,,,,,,,6,16,,,,,,,,,,,6,6.888,1,,,,,,-0.174014553,-0.39583313,1,0,0,6.8875,Pegmatite_rect,9,0,9,0,1,
5c95493ddd325800166f838a,TCR,2024-06-25_12h39.32.866,LearnStrategy,2023.2.3,MacIntel,57.80346821,4,2,11,,,,,,,,7,06,,,,,,,,,,,6,2.395,0,,,,,,-0.138803507,-0.386200833,1,0,0,2.3951,Pegmatite_rect,10,0,10,0,1,
5c95493ddd325800166f838a,TCR,2024-06-25_12h39.32.866,LearnStrategy,2023.2.3,MacIntel,57.80346821,4,2,12,,,,,,,,6,10,,,,,,,,,,,6,1.08,1,,,,,,-0.138803507,-0.386200833,1,0,0,1.0803,Pegmatite_rect,11,0,11,0,1,
5c95493ddd325800166f838a,TCR,2024-06-25_12h39.32.866,LearnStrategy,2023.2.3,MacIntel,57.80346821,4,2,13,,,,,,,,4,13,,,,,,,,,,,2,17.666,0,,,,,,-0.119768405,-0.236859402,1,0,0,17.6661,Basalt_rect,12,0,12,0,1,
5c95493ddd325800166f838a,TCR,2024-06-25_12h39.32.866,LearnStrategy,2023.2.3,MacIntel,57.80346821,4,2,14,,,,,,,,8,09,,,,,,,,,,,8,1.346,1,,,,,,0.421434462,-0.421325955,1,0,0,1.3456,Pumice_rect,13,0,13,0,1,
5c95493ddd325800166f838a,TCR,2024-06-25_12h39.32.866,LearnStrategy,2023.2.3,MacIntel,57.80346821,4,2,15,,,,,,,,3,07,,,,,,,,,,,7,18.881,0,,,,,,0.114433458,-0.403463067,1,0,0,18.8811,Peridotite_rect,14,0,14,0,1,
5c95493ddd325800166f838a,TCR,2024-06-25_12h39.32.866,LearnStrategy,2023.2.3,MacIntel,57.80346821,4,2,16,,,,,,,,8,03,,,,,,,,,,,8,1.349,1,,,,,,0.37558119,-0.405260959,1,0,0,1.3488,Pumice_rect,15,0,15,0,1,
5c95493ddd325800166f838a,TCR,2024-06-25_12h39.32.866,LearnStrategy,2023.2.3,MacIntel,57.80346821,5,1,1,0.029416368,0.001662733,1,0,0,1.8811,rock_grid_rect_2,4,11,-1,-1,1.881,0.366104329,-0.238205363,1,0,0,6.3204,Gabbro_rect,4,6.32,1,0,0,0,0,1,,,,,,,,,,,,,
5c95493ddd325800166f838a,TCR,2024-06-25_12h39.32.866,LearnStrategy,2023.2.3,MacIntel,57.80346821,5,1,2,-0.074206746,0.010167033,1,0,0,0.9959,rock_grid_rect_2,1,04,-1,-1,0.996,-0.451744317,-0.271816745,1,0,0,4.284,Andesite_rect,1,4.284,1,1,0,1,0,1,,,,,,,,,,,,,
5c95493ddd325800166f838a,TCR,2024-06-25_12h39.32.866,LearnStrategy,2023.2.3,MacIntel,57.80346821,5,1,3,-0.006732246,-0.009957479,1,0,0,1.1968,rock_grid_rect_2,4,08,-1,-1,1.197,0.360397949,-0.251947157,1,0,0,5.9633,Gabbro_rect,4,5.963,1,2,0,2,0,1,,,,,,,,,,,,,
5c95493ddd325800166f838a,TCR,2024-06-25_12h39.32.866,LearnStrategy,2023.2.3,MacIntel,57.80346821,5,1,4,-0.028735148,0.010100335,1,0,0,1.3621,rock_grid_rect_2,7,07,-1,-1,1.362,0.094210137,-0.403192003,1,0,0,6.6004,Peridotite_rect,7,6.6,1,3,0,3,0,1,,,,,,,,,,,,,
5c95493ddd325800166f838a,TCR,2024-06-25_12h39.32.866,LearnStrategy,2023.2.3,MacIntel,57.80346821,5,1,5,-0.054834188,0.006893039,1,0,0,2.4827,rock_grid_rect_2,3,11,-1,-1,2.483,-0.152206557,-0.390318943,1,0,0,6.9344,Pegmatite_rect,6,6.934,0,4,0,4,0,1,,,,,,,,,,,,,
5c95493ddd325800166f838a,TCR,2024-06-25_12h39.32.866,LearnStrategy,2023.2.3,MacIntel,57.80346821,5,1,6,-0.037971598,-0.008009372,1,0,0,1.1217,rock_grid_rect_2,5,11,-1,-1,1.122,-0.355293172,-0.400686781,1,0,0,1.9504,Obsidian_rect,5,1.95,1,5,0,5,0,1,,,,,,,,,,,,,
5c95493ddd325800166f838a,TCR,2024-06-25_12h39.32.866,LearnStrategy,2023.2.3,MacIntel,57.80346821,5,1,7,-0.033181966,-0.00613834,1,0,0,1.0465,rock_grid_rect_2,8,16,-1,-1,1.047,0.35579522,-0.39971578,1,0,0,1.3336,Pumice_rect,8,1.334,1,6,0,6,0,1,,,,,,,,,,,,,
5c95493ddd325800166f838a,TCR,2024-06-25_12h39.32.866,LearnStrategy,2023.2.3,MacIntel,57.80346821,5,1,8,0.019323798,-0.006232469,1,0,0,0.9464,rock_grid_rect_2,7,04,-1,-1,0.946,0.100128445,-0.414381443,1,0,0,6.7251,Peridotite_rect,7,6.725,1,7,0,7,0,1,,,,,,,,,,,,,
5c95493ddd325800166f838a,TCR,2024-06-25_12h39.32.866,LearnStrategy,2023.2.3,MacIntel,57.80346821,5,1,9,-0.034147135,0.00725847,1,0,0,1.6619,rock_grid_rect_2,6,08,-1,-1,1.662,-0.12200175,-0.407616102,1,0,0,2.0687,Pegmatite_rect,6,2.069,1,8,0,8,0,1,,,,,,,,,,,,,
5c95493ddd325800166f838a,TCR,2024-06-25_12h39.32.866,LearnStrategy,2023.2.3,MacIntel,57.80346821,5,1,10,-0.018726739,-0.003558248,1,0,0,1.047,rock_grid_rect_2,8,16,-1,-1,1.047,0.353202311,-0.387872518,1,0,0,1.2292,Pumice_rect,8,1.229,1,9,0,9,0,1,,,,,,,,,,,,,
5c95493ddd325800166f838a,TCR,2024-06-25_12h39.32.866,LearnStrategy,2023.2.3,MacIntel,57.80346821,5,1,11,-0.002599826,0.00816959,1,0,0,0.8816,rock_grid_rect_2,1,16,-1,-1,0.882,0.10604994,-0.385141805,1,0,0,15.7343,Peridotite_rect,7,15.734,0,10,0,10,0,1,,,,,,,,,,,,,
5c95493ddd325800166f838a,TCR,2024-06-25_12h39.32.866,LearnStrategy,2023.2.3,MacIntel,57.80346821,5,1,12,0.025628459,-0.008055149,1,0,0,4.332,rock_grid_rect_2,4,12,-1,-1,4.332,0.392475179,-0.256710883,1,0,0,5.069,Gabbro_rect,4,5.069,1,11,0,11,0,1,,,,,,,,,,,,,
5c95493ddd325800166f838a,TCR,2024-06-25_12h39.32.866,LearnStrategy,2023.2.3,MacIntel,57.80346821,5,1,13,-0.01802124,0.001451145,1,0,0,1.0129,rock_grid_rect_2,7,07,-1,-1,1.013,0.098006727,-0.381335992,1,0,0,7.2838,Peridotite_rect,7,7.284,1,12,0,12,0,1,,,,,,,,,,,,,
5c95493ddd325800166f838a,TCR,2024-06-25_12h39.32.866,LearnStrategy,2023.2.3,MacIntel,57.80346821,5,1,14,0.000991686,-0.011887037,1,0,0,1.0287,rock_grid_rect_2,7,07,-1,-1,1.029,0.116655002,-0.413247342,1,0,0,1.221,Peridotite_rect,7,1.221,1,13,0,13,0,1,,,,,,,,,,,,,
5c95493ddd325800166f838a,TCR,2024-06-25_12h39.32.866,LearnStrategy,2023.2.3,MacIntel,57.80346821,5,1,15,0.033059218,-0.000156216,1,0,0,1.0796,rock_grid_rect_2,2,04,-1,-1,1.08,-0.118747762,-0.25153673,1,0,0,8.5514,Basalt_rect,2,8.551,1,14,0,14,0,1,,,,,,,,,,,,,
5c95493ddd325800166f838a,TCR,2024-06-25_12h39.32.866,LearnStrategy,2023.2.3,MacIntel,57.80346821,5,1,16,-0.0331309,-0.010828857,1,0,0,0.9811,rock_grid_rect_2,7,12,-1,-1,0.981,0.139107191,-0.391783312,1,0,0,6.4515,Peridotite_rect,7,6.451,1,15,0,15,0,1,,,,,,,,,,,,,
5c95493ddd325800166f838a,TCR,2024-06-25_12h39.32.866,LearnStrategy,2023.2.3,MacIntel,57.80346821,5,2,1,,,,,,,,6,06,,,,,,,,,,,6,24.502,1,,,,,,-0.105104777,-0.391002129,1,0,0,24.5023,Pegmatite_rect,0,0,0,0,1,
5c95493ddd325800166f838a,TCR,2024-06-25_12h39.32.866,LearnStrategy,2023.2.3,MacIntel,57.80346821,5,2,2,,,,,,,,2,10,,,,,,,,,,,2,2.765,1,,,,,,-0.117144775,-0.265645616,1,0,0,2.7655,Basalt_rect,1,0,1,0,1,
5c95493ddd325800166f838a,TCR,2024-06-25_12h39.32.866,LearnStrategy,2023.2.3,MacIntel,57.80346821,5,2,3,,,,,,,,8,05,,,,,,,,,,,8,1.352,1,,,,,,0.449013943,-0.385733914,1,0,0,1.3519,Pumice_rect,2,0,2,0,1,
5c95493ddd325800166f838a,TCR,2024-06-25_12h39.32.866,LearnStrategy,2023.2.3,MacIntel,57.80346821,5,2,4,,,,,,,,5,10,,,,,,,,,,,5,1.948,1,,,,,,-0.378568997,-0.407364841,1,0,0,1.9477,Obsidian_rect,3,0,3,0,1,
5c95493ddd325800166f838a,TCR,2024-06-25_12h39.32.866,LearnStrategy,2023.2.3,MacIntel,57.80346821,5,2,5,,,,,,,,2,12,,,,,,,,,,,8,1.323,0,,,,,,0.398809543,-0.41448093,1,0,0,1.323,Pumice_rect,4,0,4,0,1,
5c95493ddd325800166f838a,TCR,2024-06-25_12h39.32.866,LearnStrategy,2023.2.3,MacIntel,57.80346821,5,2,6,,,,,,,,8,13,,,,,,,,,,,8,1.042,1,,,,,,0.398809543,-0.413510946,1,0,0,1.0418,Pumice_rect,5,0,5,0,1,
5c95493ddd325800166f838a,TCR,2024-06-25_12h39.32.866,LearnStrategy,2023.2.3,MacIntel,57.80346821,5,2,7,,,,,,,,4,09,,,,,,,,,,,2,15.917,0,,,,,,-0.146781955,-0.250253567,1,0,0,15.9174,Basalt_rect,6,0,6,0,1,
5c95493ddd325800166f838a,TCR,2024-06-25_12h39.32.866,LearnStrategy,2023.2.3,MacIntel,57.80346821,5,2,8,,,,,,,,7,16,,,,,,,,,,,4,23.38,0,,,,,,0.358643528,-0.241580065,1,0,0,23.3803,Gabbro_rect,7,0,7,0,1,
5c95493ddd325800166f838a,TCR,2024-06-25_12h39.32.866,LearnStrategy,2023.2.3,MacIntel,57.80346821,5,2,9,,,,,,,,5,14,,,,,,,,,,,5,1.613,1,,,,,,-0.457839762,-0.392750651,1,0,0,1.6129,Obsidian_rect,8,0,8,0,1,
5c95493ddd325800166f838a,TCR,2024-06-25_12h39.32.866,LearnStrategy,2023.2.3,MacIntel,57.80346821,5,2,10,,,,,,,,6,12,,,,,,,,,,,6,1.896,1,,,,,,-0.168460829,-0.410185004,1,0,0,1.896,Pegmatite_rect,9,0,9,0,1,
5c95493ddd325800166f838a,TCR,2024-06-25_12h39.32.866,LearnStrategy,2023.2.3,MacIntel,57.80346821,5,2,11,,,,,,,,3,15,,,,,,,,,,,3,6.353,1,,,,,,0.139471842,-0.255603841,1,0,0,6.3533,Diorite_rect,10,0,10,0,1,
5c95493ddd325800166f838a,TCR,2024-06-25_12h39.32.866,LearnStrategy,2023.2.3,MacIntel,57.80346821,5,2,12,,,,,,,,3,10,,,,,,,,,,,3,0.797,1,,,,,,0.139471842,-0.255603841,1,0,0,0.7969,Diorite_rect,11,0,11,0,1,
5c95493ddd325800166f838a,TCR,2024-06-25_12h39.32.866,LearnStrategy,2023.2.3,MacIntel,57.80346821,5,2,13,,,,,,,,1,06,,,,,,,,,,,4,4.495,0,,,,,,0.391316189,-0.24156623,1,0,0,4.4947,Gabbro_rect,12,0,12,0,1,
5c95493ddd325800166f838a,TCR,2024-06-25_12h39.32.866,LearnStrategy,2023.2.3,MacIntel,57.80346821,5,2,14,,,,,,,,1,09,,,,,,,,,,,4,0.732,0,,,,,,0.391316189,-0.24156623,1,0,0,0.7324,Gabbro_rect,13,0,13,0,1,
5c95493ddd325800166f838a,TCR,2024-06-25_12h39.32.866,LearnStrategy,2023.2.3,MacIntel,57.80346821,5,2,15,,,,,,,,4,16,,,,,,,,,,,2,6.247,0,,,,,,-0.07529697,-0.261631063,1,0,0,6.2467,Basalt_rect,14,0,14,0,1,
5c95493ddd325800166f838a,TCR,2024-06-25_12h39.32.866,LearnStrategy,2023.2.3,MacIntel,57.80346821,5,2,16,,,,,,,,7,15,,,,,,,,,,,7,19.218,1,,,,,,0.159999729,-0.412940131,1,0,0,19.2182,Peridotite_rect,15,0,15,0,1,
5c95493ddd325800166f838a,TCR,2024-06-25_12h39.32.866,LearnStrategy,2023.2.3,MacIntel,57.80346821,6,1,1,0.017619425,0.012757467,1,0,0,13.298,rock_grid_rect_2,4,10,-1,-1,13.298,0.405657552,-0.247686835,1,0,0,24.1572,Gabbro_rect,4,24.157,1,0,0,0,0,1,,,,,,,,,,,,,
5c95493ddd325800166f838a,TCR,2024-06-25_12h39.32.866,LearnStrategy,2023.2.3,MacIntel,57.80346821,6,1,2,-0.00518792,0.003552077,1,0,0,1.015,rock_grid_rect_2,1,02,-1,-1,1.015,-0.413885939,-0.261963637,1,0,0,15.3841,Andesite_rect,1,15.384,1,1,0,1,0,1,,,,,,,,,,,,,
5c95493ddd325800166f838a,TCR,2024-06-25_12h39.32.866,LearnStrategy,2023.2.3,MacIntel,57.80346821,6,1,3,-0.040178765,0.000695801,1,0,0,1.0842,rock_grid_rect_2,1,10,-1,-1,1.084,-0.410283983,-0.251237386,1,0,0,3.0697,Andesite_rect,1,3.07,1,2,0,2,0,1,,,,,,,,,,,,,
5c95493ddd325800166f838a,TCR,2024-06-25_12h39.32.866,LearnStrategy,2023.2.3,MacIntel,57.80346821,6,1,4,-0.013426242,0.002006293,1,0,0,2.3712,rock_grid_rect_2,1,14,-1,-1,2.371,-0.384522196,-0.23705363,1,0,0,13.45,Andesite_rect,1,13.45,1,3,0,3,0,1,,,,,,,,,,,,,
5c95493ddd325800166f838a,TCR,2024-06-25_12h39.32.866,LearnStrategy,2023.2.3,MacIntel,57.80346821,6,1,5,-0.005777317,-0.016851569,1,0,0,1.0288,rock_grid_rect_2,7,07,-1,-1,1.029,0.112396376,-0.390343492,1,0,0,17.5169,Peridotite_rect,7,17.517,1,4,0,4,0,1,,,,,,,,,,,,,
5c95493ddd325800166f838a,TCR,2024-06-25_12h39.32.866,LearnStrategy,2023.2.3,MacIntel,57.80346821,6,1,6,-0.061622247,0.003412645,1,0,0,1.4128,rock_grid_rect_2,2,11,-1,-1,1.413,0.405423313,-0.243737725,1,0,0,7.1169,Gabbro_rect,4,7.117,0,5,0,5,0,1,,,,,,,,,,,,,
5c95493ddd325800166f838a,TCR,2024-06-25_12h39.32.866,LearnStrategy,2023.2.3,MacIntel,57.80346821,6,1,7,-0.048112725,-0.010887519,1,0,0,1.2709,rock_grid_rect_2,8,10,-1,-1,1.271,0.365224067,-0.37943278,1,0,0,1.6,Pumice_rect,8,1.6,1,6,0,6,0,1,,,,,,,,,,,,,
5c95493ddd325800166f838a,TCR,2024-06-25_12h39.32.866,LearnStrategy,2023.2.3,MacIntel,57.80346821,6,1,8,-0.055255263,-0.013102926,1,0,0,0.9799,rock_grid_rect_2,2,06,-1,-1,0.98,-0.116046482,-0.254098036,1,0,0,5.8996,Basalt_rect,2,5.9,1,7,0,7,0,1,,,,,,,,,,,,,
5c95493ddd325800166f838a,TCR,2024-06-25_12h39.32.866,LearnStrategy,2023.2.3,MacIntel,57.80346821,6,1,9,-0.04654168,-0.00505622,1,0,0,1.0441,rock_grid_rect_2,6,09,-1,-1,1.044,-0.11492235,-0.41616984,1,0,0,4.4688,Pegmatite_rect,6,4.469,1,8,0,8,0,1,,,,,,,,,,,,,
5c95493ddd325800166f838a,TCR,2024-06-25_12h39.32.866,LearnStrategy,2023.2.3,MacIntel,57.80346821,6,1,10,0.07399882,0.002301059,1,0,0,1.4119,rock_grid_rect_2,4,08,-1,-1,1.412,0.400882568,-0.268830024,1,0,0,7.6295,Gabbro_rect,4,7.63,1,9,0,9,0,1,,,,,,,,,,,,,
5c95493ddd325800166f838a,TCR,2024-06-25_12h39.32.866,LearnStrategy,2023.2.3,MacIntel,57.80346821,6,1,11,0.035076769,-0.002002733,1,0,0,3.3937,rock_grid_rect_2,4,10,-1,-1,3.394,0.354584554,-0.248341336,1,0,0,4.0343,Gabbro_rect,4,4.034,1,10,0,10,0,1,,,,,,,,,,,,,
5c95493ddd325800166f838a,TCR,2024-06-25_12h39.32.866,LearnStrategy,2023.2.3,MacIntel,57.80346821,6,1,12,0.014966634,-0.002328356,1,0,0,1.3188,rock_grid_rect_2,7,14,-1,-1,1.319,-0.45009196,-0.263616604,1,0,0,13.4996,Andesite_rect,1,13.5,0,11,0,11,0,1,,,,,,,,,,,,,
5c95493ddd325800166f838a,TCR,2024-06-25_12h39.32.866,LearnStrategy,2023.2.3,MacIntel,57.80346821,6,1,13,-0.057485623,0.004669393,1,0,0,1.2855,rock_grid_rect_2,3,06,-1,-1,1.285,0.1365625,-0.26249844,1,0,0,5.053,Diorite_rect,3,5.053,1,12,0,12,0,1,,,,,,,,,,,,,
5c95493ddd325800166f838a,TCR,2024-06-25_12h39.32.866,LearnStrategy,2023.2.3,MacIntel,57.80346821,6,1,14,-0.05083096,0.003053894,1,0,0,1.0204,rock_grid_rect_2,7,08,-1,-1,1.02,0.159378323,-0.396603665,1,0,0,10.7112,Peridotite_rect,7,10.711,1,13,0,13,0,1,,,,,,,,,,,,,
5c95493ddd325800166f838a,TCR,2024-06-25_12h39.32.866,LearnStrategy,2023.2.3,MacIntel,57.80346821,6,1,15,-0.013600803,-0.000134277,1,0,0,3.4271,rock_grid_rect_2,7,14,-1,-1,3.427,0.113089871,-0.413903402,1,0,0,5.762,Peridotite_rect,7,5.762,1,14,0,14,0,1,,,,,,,,,,,,,
5c95493ddd325800166f838a,TCR,2024-06-25_12h39.32.866,LearnStrategy,2023.2.3,MacIntel,57.80346821,6,1,16,-0.087757568,-0.008173455,1,0,0,1.7948,rock_grid_rect_2,4,11,-1,-1,1.795,0.415230713,-0.258054064,1,0,0,9.5219,Gabbro_rect,4,9.522,1,15,0,15,0,1,,,,,,,,,,,,,
5c95493ddd325800166f838a,TCR,2024-06-25_12h39.32.866,LearnStrategy,2023.2.3,MacIntel,57.80346821,6,2,1,,,,,,,,2,08,,,,,,,,,,,4,5.747,0,,,,,,0.343437771,-0.268208279,1,0,0,5.7468,Gabbro_rect,0,0,0,0,1,
5c95493ddd325800166f838a,TCR,2024-06-25_12h39.32.866,LearnStrategy,2023.2.3,MacIntel,57.80346821,6,2,2,,,,,,,,7,02,,,,,,,,,,,3,34.313,0,,,,,,0.170338135,-0.236141086,1,0,0,34.3129,Diorite_rect,1,0,1,0,1,
5c95493ddd325800166f838a,TCR,2024-06-25_12h39.32.866,LearnStrategy,2023.2.3,MacIntel,57.80346821,6,2,3,,,,,,,,1,05,,,,,,,,,,,1,25.969,1,,,,,,-0.396454468,-0.252291667,1,0,0,25.9693,Andesite_rect,2,0,2,0,1,
5c95493ddd325800166f838a,TCR,2024-06-25_12h39.32.866,LearnStrategy,2023.2.3,MacIntel,57.80346821,6,2,4,,,,,,,,5,16,,,,,,,,,,,5,1.644,1,,,,,,-0.407858344,-0.388466729,1,0,0,1.6443,Obsidian_rect,3,0,3,0,1,
5c95493ddd325800166f838a,TCR,2024-06-25_12h39.32.866,LearnStrategy,2023.2.3,MacIntel,57.80346821,6,2,5,,,,,,,,1,07,,,,,,,,,,,1,11.617,1,,,,,,-0.415889384,-0.247278917,1,0,0,11.617,Andesite_rect,4,0,4,0,1,
5c95493ddd325800166f838a,TCR,2024-06-25_12h39.32.866,LearnStrategy,2023.2.3,MacIntel,57.80346821,6,2,6,,,,,,,,4,14,,,,,,,,,,,2,34.767,0,,,,,,-0.079749756,-0.267989977,1,0,0,34.7672,Basalt_rect,5,0,5,0,1,
5c95493ddd325800166f838a,TCR,2024-06-25_12h39.32.866,LearnStrategy,2023.2.3,MacIntel,57.80346821,6,2,7,,,,,,,,3,08,,,,,,,,,,,3,6.852,1,,,,,,0.089042562,-0.248758274,1,0,0,6.8516,Diorite_rect,6,0,6,0,1,
5c95493ddd325800166f838a,TCR,2024-06-25_12h39.32.866,LearnStrategy,2023.2.3,MacIntel,57.80346821,6,2,8,,,,,,,,5,05,,,,,,,,,,,5,2.932,1,,,,,,-0.468429972,-0.413905843,1,0,0,2.9321,Obsidian_rect,7,0,7,0,1,
5c95493ddd325800166f838a,TCR,2024-06-25_12h39.32.866,LearnStrategy,2023.2.3,MacIntel,57.80346821,6,2,9,,,,,,,,6,13,,,,,,,,,,,7,13.086,0,,,,,,0.149102512,-0.381183133,1,0,0,13.0861,Peridotite_rect,8,0,8,0,1,
5c95493ddd325800166f838a,TCR,2024-06-25_12h39.32.866,LearnStrategy,2023.2.3,MacIntel,57.80346821,6,2,10,,,,,,,,4,05,,,,,,,,,,,4,5.113,1,,,,,,0.43168769,-0.241356269,1,0,0,5.1132,Gabbro_rect,9,0,9,0,1,
5c95493ddd325800166f838a,TCR,2024-06-25_12h39.32.866,LearnStrategy,2023.2.3,MacIntel,57.80346821,6,2,11,,,,,,,,6,05,,,,,,,,,,,6,6.081,1,,,,,,-0.132461548,-0.404885864,1,0,0,6.0805,Pegmatite_rect,10,0,10,0,1,
5c95493ddd325800166f838a,TCR,2024-06-25_12h39.32.866,LearnStrategy,2023.2.3,MacIntel,57.80346821,6,2,12,,,,,,,,2,05,,,,,,,,,,,2,8.165,1,,,,,,-0.147824368,-0.251325684,1,0,0,8.1652,Basalt_rect,11,0,11,0,1,
5c95493ddd325800166f838a,TCR,2024-06-25_12h39.32.866,LearnStrategy,2023.2.3,MacIntel,57.80346821,6,2,13,,,,,,,,8,15,,,,,,,,,,,8,7.854,1,,,,,,0.449114448,-0.402806193,1,0,0,7.8543,Pumice_rect,12,0,12,0,1,
5c95493ddd325800166f838a,TCR,2024-06-25_12h39.32.866,LearnStrategy,2023.2.3,MacIntel,57.80346821,6,2,14,,,,,,,,7,10,,,,,,,,,,,7,28.432,1,,,,,,0.14104777,-0.405721571,1,0,0,28.4318,Peridotite_rect,13,0,13,0,1,
5c95493ddd325800166f838a,TCR,2024-06-25_12h39.32.866,LearnStrategy,2023.2.3,MacIntel,57.80346821,6,2,15,,,,,,,,3,12,,,,,,,,,,,3,15.284,1,,,,,,0.178259549,-0.228550076,1,0,0,15.2843,Diorite_rect,14,0,14,0,1,
5c95493ddd325800166f838a,TCR,2024-06-25_12h39.32.866,LearnStrategy,2023.2.3,MacIntel,57.80346821,6,2,16,,,,,,,,8,02,,,,,,,,,,,8,2.316,1,,,,,,0.372003174,-0.40729499,1,0,0,2.3158,Pumice_rect,15,0,15,0,1,
5c95493ddd325800166f838a,TCR,2024-06-25_12h39.32.866,LearnStrategy,2023.2.3,MacIntel,57.80346821,7,1,1,-0.042196655,-0.010653483,1,0,0,2.68,rock_grid_rect_2,6,09,-1,-1,2.68,-0.135693495,-0.397236328,1,0,0,2.52,Pegmatite_rect,6,2.52,1,0,0,0,0,1,,,,,,,,,,,,,
5c95493ddd325800166f838a,TCR,2024-06-25_12h39.32.866,LearnStrategy,2023.2.3,MacIntel,57.80346821,7,1,2,-0.030983073,-0.006123522,1,0,0,1.0792,rock_grid_rect_2,4,01,-1,-1,1.079,0.377601725,-0.247227715,1,0,0,6.7057,Gabbro_rect,4,6.706,1,1,0,1,0,1,,,,,,,,,,,,,
5c95493ddd325800166f838a,TCR,2024-06-25_12h39.32.866,LearnStrategy,2023.2.3,MacIntel,57.80346821,7,1,3,-0.078227064,0.008184713,1,0,0,2.2783,rock_grid_rect_2,7,05,-1,-1,2.278,0.149792277,-0.394721612,1,0,0,7.5439,Peridotite_rect,7,7.544,1,2,0,2,0,1,,,,,,,,,,,,,
5c95493ddd325800166f838a,TCR,2024-06-25_12h39.32.866,LearnStrategy,2023.2.3,MacIntel,57.80346821,7,1,4,0.007145318,-0.004222649,1,0,0,1.0488,rock_grid_rect_2,2,09,-1,-1,1.049,-0.072495253,-0.233928019,1,0,0,4.1977,Basalt_rect,2,4.198,1,3,0,3,0,1,,,,,,,,,,,,,
5c95493ddd325800166f838a,TCR,2024-06-25_12h39.32.866,LearnStrategy,2023.2.3,MacIntel,57.80346821,7,1,5,0.011419135,0.005955675,1,0,0,3.0957,rock_grid_rect_2,4,10,-1,-1,3.096,0.429328749,-0.24470893,1,0,0,3.5879,Gabbro_rect,4,3.588,1,4,0,4,0,1,,,,,,,,,,,,,
5c95493ddd325800166f838a,TCR,2024-06-25_12h39.32.866,LearnStrategy,2023.2.3,MacIntel,57.80346821,7,1,6,-0.047291667,-0.018330858,1,0,0,2.2452,rock_grid_rect_2,5,04,-1,-1,2.245,-0.409861416,-0.415538873,1,0,0,2.512,Obsidian_rect,5,2.512,1,5,0,5,0,1,,,,,,,,,,,,,
5c95493ddd325800166f838a,TCR,2024-06-25_12h39.32.866,LearnStrategy,2023.2.3,MacIntel,57.80346821,7,1,7,-0.013460422,-0.004370388,1,0,0,0.998,rock_grid_rect_2,6,15,-1,-1,0.998,-0.128392877,-0.410062798,1,0,0,2.0685,Pegmatite_rect,6,2.068,1,6,0,6,0,1,,,,,,,,,,,,,
5c95493ddd325800166f838a,TCR,2024-06-25_12h39.32.866,LearnStrategy,2023.2.3,MacIntel,57.80346821,7,1,8,-0.018157077,-0.007690667,1,0,0,0.9464,rock_grid_rect_2,4,11,-1,-1,0.946,0.415410021,-0.253243001,1,0,0,4.9796,Gabbro_rect,4,4.98,1,7,0,7,0,1,,,,,,,,,,,,,
5c95493ddd325800166f838a,TCR,2024-06-25_12h39.32.866,LearnStrategy,2023.2.3,MacIntel,57.80346821,7,1,9,0.002434014,-0.000780504,1,0,0,3.9625,rock_grid_rect_2,1,16,-1,-1,3.963,0.126006334,-0.395572578,1,0,0,4.7007,Peridotite_rect,7,4.701,0,8,0,8,0,1,,,,,,,,,,,,,
5c95493ddd325800166f838a,TCR,2024-06-25_12h39.32.866,LearnStrategy,2023.2.3,MacIntel,57.80346821,7,1,10,-0.050582886,-0.005290934,1,0,0,1.7204,rock_grid_rect_2,7,12,-1,-1,1.72,0.133074137,-0.27006307,1,0,0,2.3328,Diorite_rect,3,2.333,0,9,0,9,0,1,,,,,,,,,,,,,
5c95493ddd325800166f838a,TCR,2024-06-25_12h39.32.866,LearnStrategy,2023.2.3,MacIntel,57.80346821,7,1,11,0.012362196,-0.006756999,1,0,0,1.8046,rock_grid_rect_2,2,06,-1,-1,1.805,-0.067722507,-0.235701972,1,0,0,2.385,Basalt_rect,2,2.385,1,10,0,10,0,1,,,,,,,,,,,,,
5c95493ddd325800166f838a,TCR,2024-06-25_12h39.32.866,LearnStrategy,2023.2.3,MacIntel,57.80346821,7,1,12,0.025537109,-0.011946343,1,0,0,1.1133,rock_grid_rect_2,7,04,-1,-1,1.113,-0.425314636,-0.2569713,1,0,0,8.7497,Andesite_rect,1,8.75,0,11,0,11,0,1,,,,,,,,,,,,,
5c95493ddd325800166f838a,TCR,2024-06-25_12h39.32.866,LearnStrategy,2023.2.3,MacIntel,57.80346821,7,1,13,0.004219767,0.005806241,1,0,0,2.0704,rock_grid_rect_2,4,15,-1,-1,2.07,0.142462836,-0.241907756,1,0,0,13.8037,Diorite_rect,3,13.804,0,12,0,12,0,1,,,,,,,,,,,,,
5c95493ddd325800166f838a,TCR,2024-06-25_12h39.32.866,LearnStrategy,2023.2.3,MacIntel,57.80346821,7,1,14,-0.017244466,2.11928E-05,1,0,0,2.7119,rock_grid_rect_2,8,04,-1,-1,2.712,0.397725288,-0.412481689,1,0,0,5.4971,Pumice_rect,8,5.497,1,13,0,13,0,1,,,,,,,,,,,,,
5c95493ddd325800166f838a,TCR,2024-06-25_12h39.32.866,LearnStrategy,2023.2.3,MacIntel,57.80346821,7,1,15,-0.022307807,-0.01622328,1,0,0,1.1109,rock_grid_rect_2,3,13,-1,-1,1.111,0.39437934,-0.242602946,1,0,0,18.1188,Gabbro_rect,4,18.119,0,14,0,14,0,1,,,,,,,,,,,,,
5c95493ddd325800166f838a,TCR,2024-06-25_12h39.32.866,LearnStrategy,2023.2.3,MacIntel,57.80346821,7,1,16,0.001393704,0.008533834,1,0,0,1.2375,rock_grid_rect_2,1,10,-1,-1,1.238,-0.156092801,-0.248493517,1,0,0,6.5504,Basalt_rect,2,6.55,0,15,0,15,0,1,,,,,,,,,,,,,
5c95493ddd325800166f838a,TCR,2024-06-25_12h39.32.866,LearnStrategy,2023.2.3,MacIntel,57.80346821,7,2,1,,,,,,,,2,12,,,,,,,,,,,1,33.901,0,,,,,,-0.361423136,-0.251398044,1,0,0,33.9007,Andesite_rect,0,0,0,0,1,
5c95493ddd325800166f838a,TCR,2024-06-25_12h39.32.866,LearnStrategy,2023.2.3,MacIntel,57.80346821,7,2,2,,,,,,,,7,16,,,,,,,,,,,4,12.531,0,,,,,,0.4542433,-0.26585178,1,0,0,12.5307,Gabbro_rect,1,0,1,0,1,
5c95493ddd325800166f838a,TCR,2024-06-25_12h39.32.866,LearnStrategy,2023.2.3,MacIntel,57.80346821,7,2,3,,,,,,,,2,02,,,,,,,,,,,2,2.946,1,,,,,,-0.089612291,-0.234938558,1,0,0,2.9464,Basalt_rect,2,0,2,0,1,
5c95493ddd325800166f838a,TCR,2024-06-25_12h39.32.866,LearnStrategy,2023.2.3,MacIntel,57.80346821,7,2,4,,,,,,,,4,13,,,,,,,,,,,4,4.317,1,,,,,,0.388456353,-0.248264499,1,0,0,4.3174,Gabbro_rect,3,0,3,0,1,
5c95493ddd325800166f838a,TCR,2024-06-25_12h39.32.866,LearnStrategy,2023.2.3,MacIntel,57.80346821,7,2,5,,,,,,,,7,06,,,,,,,,,,,6,3.546,0,,,,,,-0.162760959,-0.407362807,1,0,0,3.546,Pegmatite_rect,4,0,4,0,1,
5c95493ddd325800166f838a,TCR,2024-06-25_12h39.32.866,LearnStrategy,2023.2.3,MacIntel,57.80346821,7,2,6,,,,,,,,8,03,,,,,,,,,,,8,1.213,1,,,,,,0.477497694,-0.407580092,1,0,0,1.2127,Pumice_rect,5,0,5,0,1,
5c95493ddd325800166f838a,TCR,2024-06-25_12h39.32.866,LearnStrategy,2023.2.3,MacIntel,57.80346821,7,2,7,,,,,,,,3,08,,,,,,,,,,,3,2.08,1,,,,,,0.154633586,-0.248524984,1,0,0,2.0798,Diorite_rect,6,0,6,0,1,
5c95493ddd325800166f838a,TCR,2024-06-25_12h39.32.866,LearnStrategy,2023.2.3,MacIntel,57.80346821,7,2,8,,,,,,,,4,16,,,,,,,,,,,2,12.747,0,,,,,,-0.114075521,-0.253331095,1,0,0,12.7469,Basalt_rect,7,0,7,0,1,
5c95493ddd325800166f838a,TCR,2024-06-25_12h39.32.866,LearnStrategy,2023.2.3,MacIntel,57.80346821,7,2,9,,,,,,,,6,05,,,,,,,,,,,6,6.034,1,,,,,,-0.150128852,-0.417270983,1,0,0,6.034,Pegmatite_rect,8,0,8,0,1,
5c95493ddd325800166f838a,TCR,2024-06-25_12h39.32.866,LearnStrategy,2023.2.3,MacIntel,57.80346821,7,2,10,,,,,,,,3,14,,,,,,,,,,,7,15.947,0,,,,,,0.177095676,-0.390170288,1,0,0,15.9472,Peridotite_rect,9,0,9,0,1,
5c95493ddd325800166f838a,TCR,2024-06-25_12h39.32.866,LearnStrategy,2023.2.3,MacIntel,57.80346821,7,2,11,,,,,,,,5,05,,,,,,,,,,,5,2.413,1,,,,,,-0.418587375,-0.400236342,1,0,0,2.4133,Obsidian_rect,10,0,10,0,1,
5c95493ddd325800166f838a,TCR,2024-06-25_12h39.32.866,LearnStrategy,2023.2.3,MacIntel,57.80346821,7,2,12,,,,,,,,1,05,,,,,,,,,,,1,7.22,1,,,,,,-0.419903327,-0.256426595,1,0,0,7.2204,Andesite_rect,11,0,11,0,1,
5c95493ddd325800166f838a,TCR,2024-06-25_12h39.32.866,LearnStrategy,2023.2.3,MacIntel,57.80346821,7,2,13,,,,,,,,8,02,,,,,,,,,,,8,2.029,1,,,,,,0.336380751,-0.390381266,1,0,0,2.0287,Pumice_rect,12,0,12,0,1,
5c95493ddd325800166f838a,TCR,2024-06-25_12h39.32.866,LearnStrategy,2023.2.3,MacIntel,57.80346821,7,2,14,,,,,,,,6,12,,,,,,,,,,,6,2.402,1,,,,,,-0.107911648,-0.397411363,1,0,0,2.4024,Pegmatite_rect,13,0,13,0,1,
5c95493ddd325800166f838a,TCR,2024-06-25_12h39.32.866,LearnStrategy,2023.2.3,MacIntel,57.80346821,7,2,15,,,,,,,,5,08,,,,,,,,,,,5,1.172,1,,,,,,-0.385302022,-0.407192383,1,0,0,1.1721,Obsidian_rect,14,0,14,0,1,
5c95493ddd325800166f838a,TCR,2024-06-25_12h39.32.866,LearnStrategy,2023.2.3,MacIntel,57.80346821,7,2,16,,,,,,,,1,11,,,,,,,,,,,1,17.231,1,,,,,,-0.369030117,-0.25285692,1,0,0,17.2313,Andesite_rect,15,0,15,0,1,
5c95493ddd325800166f838a,TCR,2024-06-25_12h39.32.866,LearnStrategy,2023.2.3,MacIntel,57.80346821,8,1,1,0.020020481,-0.010453796,1,0,0,2.8619,rock_grid_rect_2,8,14,-1,-1,2.862,0.434274089,-0.404252726,1,0,0,1.2996,Pumice_rect,8,1.3,1,0,0,0,0,1,,,,,,,,,,,,,
5c95493ddd325800166f838a,TCR,2024-06-25_12h39.32.866,LearnStrategy,2023.2.3,MacIntel,57.80346821,8,1,2,-0.012014703,-0.015543111,1,0,0,1.2127,rock_grid_rect_2,2,11,-1,-1,1.213,-0.111909044,-0.263631592,1,0,0,3.3971,Basalt_rect,2,3.397,1,1,0,1,0,1,,,,,,,,,,,,,
5c95493ddd325800166f838a,TCR,2024-06-25_12h39.32.866,LearnStrategy,2023.2.3,MacIntel,57.80346821,8,1,3,-0.057306993,-0.010890571,1,0,0,1.1117,rock_grid_rect_2,1,04,-1,-1,1.112,-0.342183058,-0.239473809,1,0,0,3.5518,Andesite_rect,1,3.552,1,2,0,2,0,1,,,,,,,,,,,,,
5c95493ddd325800166f838a,TCR,2024-06-25_12h39.32.866,LearnStrategy,2023.2.3,MacIntel,57.80346821,8,1,4,-0.005244751,0.0089603,1,0,0,1.3108,rock_grid_rect_2,6,07,-1,-1,1.311,-0.156146376,-0.39698093,1,0,0,1.2981,Pegmatite_rect,6,1.298,1,3,0,3,0,1,,,,,,,,,,,,,
5c95493ddd325800166f838a,TCR,2024-06-25_12h39.32.866,LearnStrategy,2023.2.3,MacIntel,57.80346821,8,1,5,0.007383423,0.00269026,1,0,0,1.1127,rock_grid_rect_2,4,08,-1,-1,1.113,-0.081734958,-0.2494595,1,0,0,1.7326,Basalt_rect,2,1.733,0,4,0,4,0,1,,,,,,,,,,,,,
5c95493ddd325800166f838a,TCR,2024-06-25_12h39.32.866,LearnStrategy,2023.2.3,MacIntel,57.80346821,8,1,6,-0.011305135,-0.00459927,1,0,0,1.032,rock_grid_rect_2,1,16,-1,-1,1.032,0.127035048,-0.263960029,1,0,0,2.4649,Diorite_rect,3,2.465,0,5,0,5,0,1,,,,,,,,,,,,,
5c95493ddd325800166f838a,TCR,2024-06-25_12h39.32.866,LearnStrategy,2023.2.3,MacIntel,57.80346821,8,1,7,-0.09075175,-0.013125339,1,0,0,3.8125,rock_grid_rect_2,2,01,-1,-1,3.813,-0.191215142,-0.237324422,1,0,0,1.3502,Basalt_rect,2,1.35,1,6,0,6,0,1,,,,,,,,,,,,,
5c95493ddd325800166f838a,TCR,2024-06-25_12h39.32.866,LearnStrategy,2023.2.3,MacIntel,57.80346821,8,1,8,0.018665229,0.012289768,1,0,0,0.9279,rock_grid_rect_2,4,01,-1,-1,0.928,0.431242405,-0.271887614,1,0,0,3.7009,Gabbro_rect,4,3.701,1,7,0,7,0,1,,,,,,,,,,,,,
5c95493ddd325800166f838a,TCR,2024-06-25_12h39.32.866,LearnStrategy,2023.2.3,MacIntel,57.80346821,8,1,9,-0.07952474,-0.007839796,1,0,0,1.945,rock_grid_rect_2,7,12,-1,-1,1.945,0.056047092,-0.25098409,1,0,0,2.2476,Diorite_rect,3,2.248,0,8,0,8,0,1,,,,,,,,,,,,,
5c95493ddd325800166f838a,TCR,2024-06-25_12h39.32.866,LearnStrategy,2023.2.3,MacIntel,57.80346821,8,1,10,0.018901503,0.005312432,1,0,0,1.6377,rock_grid_rect_2,7,14,-1,-1,1.638,0.079699571,-0.381834039,1,0,0,11.3522,Peridotite_rect,7,11.352,1,9,0,9,0,1,,,,,,,,,,,,,
5c95493ddd325800166f838a,TCR,2024-06-25_12h39.32.866,LearnStrategy,2023.2.3,MacIntel,57.80346821,8,1,11,-0.000215793,-0.008377991,1,0,0,1.0617,rock_grid_rect_2,4,11,-1,-1,1.062,-0.099513685,-0.25578871,1,0,0,6.779,Basalt_rect,2,6.779,0,10,0,10,0,1,,,,,,,,,,,,,
5c95493ddd325800166f838a,TCR,2024-06-25_12h39.32.866,LearnStrategy,2023.2.3,MacIntel,57.80346821,8,1,12,-0.064414334,0.005775384,1,0,0,1.2318,rock_grid_rect_2,2,01,-1,-1,1.232,-0.181860894,-0.263828871,1,0,0,1.6514,Basalt_rect,2,1.651,1,11,0,11,0,1,,,,,,,,,,,,,
5c95493ddd325800166f838a,TCR,2024-06-25_12h39.32.866,LearnStrategy,2023.2.3,MacIntel,57.80346821,8,1,13,-0.043187866,0.000357293,1,0,0,1.3787,rock_grid_rect_2,3,11,-1,-1,1.379,0.143782213,-0.2527516,1,0,0,2.565,Diorite_rect,3,2.565,1,12,0,12,0,1,,,,,,,,,,,,,
5c95493ddd325800166f838a,TCR,2024-06-25_12h39.32.866,LearnStrategy,2023.2.3,MacIntel,57.80346821,8,1,14,-0.002566528,-0.009007195,1,0,0,1.1536,rock_grid_rect_2,7,08,-1,-1,1.154,0.220564507,-0.421542155,1,0,0,5.0368,Peridotite_rect,7,5.037,1,13,0,13,0,1,,,,,,,,,,,,,
5c95493ddd325800166f838a,TCR,2024-06-25_12h39.32.866,LearnStrategy,2023.2.3,MacIntel,57.80346821,8,1,15,0.029255371,0.006147902,1,0,0,1.1463,rock_grid_rect_2,3,16,-1,-1,1.146,0.165994873,-0.257731188,1,0,0,1.6144,Diorite_rect,3,1.614,1,14,0,14,0,1,,,,,,,,,,,,,
5c95493ddd325800166f838a,TCR,2024-06-25_12h39.32.866,LearnStrategy,2023.2.3,MacIntel,57.80346821,8,1,16,-0.006895549,-0.001442634,1,0,0,1.0469,rock_grid_rect_2,7,05,-1,-1,1.047,0.165433689,-0.41282864,1,0,0,7.8659,Peridotite_rect,7,7.866,1,15,0,15,0,1,,,,,,,,,,,,,
5c95493ddd325800166f838a,TCR,2024-06-25_12h39.32.866,LearnStrategy,2023.2.3,MacIntel,57.80346821,8,2,1,,,,,,,,2,08,,,,,,,,,,,2,2.247,1,,,,,,-0.143607517,-0.263062676,1,0,0,2.2475,Basalt_rect,0,0,0,0,1,
5c95493ddd325800166f838a,TCR,2024-06-25_12h39.32.866,LearnStrategy,2023.2.3,MacIntel,57.80346821,8,2,2,,,,,,,,8,13,,,,,,,,,,,8,4.815,1,,,,,,0.380848117,-0.386805895,1,0,0,4.8147,Pumice_rect,1,0,1,0,1,
5c95493ddd325800166f838a,TCR,2024-06-25_12h39.32.866,LearnStrategy,2023.2.3,MacIntel,57.80346821,8,2,3,,,,,,,,7,13,,,,,,,,,,,7,8.492,1,,,,,,0.150371026,-0.405565525,1,0,0,8.4921,Peridotite_rect,2,0,2,0,1,
5c95493ddd325800166f838a,TCR,2024-06-25_12h39.32.866,LearnStrategy,2023.2.3,MacIntel,57.80346821,8,2,4,,,,,,,,6,10,,,,,,,,,,,6,1.363,1,,,,,,-0.145355767,-0.413623047,1,0,0,1.3631,Pegmatite_rect,3,0,3,0,1,
5c95493ddd325800166f838a,TCR,2024-06-25_12h39.32.866,LearnStrategy,2023.2.3,MacIntel,57.80346821,8,2,5,,,,,,,,5,02,,,,,,,,,,,5,0.963,1,,,,,,-0.348909709,-0.407489827,1,0,0,0.9626,Obsidian_rect,4,0,4,0,1,
5c95493ddd325800166f838a,TCR,2024-06-25_12h39.32.866,LearnStrategy,2023.2.3,MacIntel,57.80346821,8,2,6,,,,,,,,1,09,,,,,,,,,,,4,21.715,0,,,,,,0.340165066,-0.250000407,1,0,0,21.7145,Gabbro_rect,5,0,5,0,1,
5c95493ddd325800166f838a,TCR,2024-06-25_12h39.32.866,LearnStrategy,2023.2.3,MacIntel,57.80346821,8,2,7,,,,,,,,3,15,,,,,,,,,,,3,5.548,1,,,,,,0.174841648,-0.254507446,1,0,0,5.5475,Diorite_rect,6,0,6,0,1,
5c95493ddd325800166f838a,TCR,2024-06-25_12h39.32.866,LearnStrategy,2023.2.3,MacIntel,57.80346821,8,2,8,,,,,,,,1,07,,,,,,,,,,,1,4.846,1,,,,,,-0.361979506,-0.242898288,1,0,0,4.8462,Andesite_rect,7,0,7,0,1,
5c95493ddd325800166f838a,TCR,2024-06-25_12h39.32.866,LearnStrategy,2023.2.3,MacIntel,57.80346821,8,2,9,,,,,,,,4,05,,,,,,,,,,,1,2.028,0,,,,,,-0.360563456,-0.271176351,1,0,0,2.0277,Andesite_rect,8,0,8,0,1,
5c95493ddd325800166f838a,TCR,2024-06-25_12h39.32.866,LearnStrategy,2023.2.3,MacIntel,57.80346821,8,2,10,,,,,,,,5,16,,,,,,,,,,,5,1.152,1,,,,,,-0.370636902,-0.40805759,1,0,0,1.152,Obsidian_rect,9,0,9,0,1,
5c95493ddd325800166f838a,TCR,2024-06-25_12h39.32.866,LearnStrategy,2023.2.3,MacIntel,57.80346821,8,2,11,,,,,,,,3,07,,,,,,,,,,,3,3.583,1,,,,,,0.058365072,-0.237398478,1,0,0,3.5832,Diorite_rect,10,0,10,0,1,
5c95493ddd325800166f838a,TCR,2024-06-25_12h39.32.866,LearnStrategy,2023.2.3,MacIntel,57.80346821,8,2,12,,,,,,,,8,09,,,,,,,,,,,8,1.523,1,,,,,,0.40411282,-0.384549832,1,0,0,1.5229,Pumice_rect,11,0,11,0,1,
5c95493ddd325800166f838a,TCR,2024-06-25_12h39.32.866,LearnStrategy,2023.2.3,MacIntel,57.80346821,8,2,13,,,,,,,,7,02,,,,,,,,,,,1,5.047,0,,,,,,-0.336340264,-0.249344076,1,0,0,5.0471,Andesite_rect,12,0,12,0,1,
5c95493ddd325800166f838a,TCR,2024-06-25_12h39.32.866,LearnStrategy,2023.2.3,MacIntel,57.80346821,8,2,14,,,,,,,,4,03,,,,,,,,,,,1,7.398,0,,,,,,-0.452847765,-0.264146457,1,0,0,7.3983,Andesite_rect,13,0,13,0,1,
5c95493ddd325800166f838a,TCR,2024-06-25_12h39.32.866,LearnStrategy,2023.2.3,MacIntel,57.80346821,8,2,15,,,,,,,,2,05,,,,,,,,,,,2,1.16,1,,,,,,-0.13995185,-0.270081584,1,0,0,1.1599,Basalt_rect,14,0,14,0,1,
5c95493ddd325800166f838a,TCR,2024-06-25_12h39.32.866,LearnStrategy,2023.2.3,MacIntel,57.80346821,8,2,16,,,,,,,,6,13,,,,,,,,,,,6,1.986,1,,,,,,-0.069319051,-0.411010674,1,0,0,1.9855,Pegmatite_rect,15,0,15,0,1,
5c95493ddd325800166f838a,TCR,2024-06-25_12h39.32.866,LearnStrategy,2023.2.3,MacIntel,57.80346821,9,1,1,0.049481947,-0.012417263,1,0,0,4.2977,rock_grid_rect_2,7,12,-1,-1,4.298,-0.427387424,-0.244025743,1,0,0,2.6679,Andesite_rect,1,2.668,0,0,0,0,0,1,,,,,,,,,,,,,
5c95493ddd325800166f838a,TCR,2024-06-25_12h39.32.866,LearnStrategy,2023.2.3,MacIntel,57.80346821,9,1,2,0.053692356,0.015115492,1,0,0,2.2316,rock_grid_rect_2,1,14,-1,-1,2.232,-0.398428582,-0.267726508,1,0,0,5.9842,Andesite_rect,1,5.984,1,1,0,1,0,1,,,,,,,,,,,,,
5c95493ddd325800166f838a,TCR,2024-06-25_12h39.32.866,LearnStrategy,2023.2.3,MacIntel,57.80346821,9,1,3,0.034638604,0.001514079,1,0,0,2.0114,rock_grid_rect_2,4,08,-1,-1,2.011,-0.373986986,-0.253890313,1,0,0,4.0327,Andesite_rect,1,4.033,0,2,0,2,0,1,,,,,,,,,,,,,
5c95493ddd325800166f838a,TCR,2024-06-25_12h39.32.866,LearnStrategy,2023.2.3,MacIntel,57.80346821,9,1,4,0.044384969,7.76842E-05,1,0,0,2.2036,rock_grid_rect_2,7,05,-1,-1,2.204,0.043083971,-0.415302395,1,0,0,9.6982,Peridotite_rect,7,9.698,1,3,0,3,0,1,,,,,,,,,,,,,
5c95493ddd325800166f838a,TCR,2024-06-25_12h39.32.866,LearnStrategy,2023.2.3,MacIntel,57.80346821,9,1,5,-0.010788778,-0.006403775,1,0,0,1.1608,rock_grid_rect_2,4,10,-1,-1,1.161,0.320616794,-0.253245375,1,0,0,3.7523,Gabbro_rect,4,3.752,1,4,0,4,0,1,,,,,,,,,,,,,
5c95493ddd325800166f838a,TCR,2024-06-25_12h39.32.866,LearnStrategy,2023.2.3,MacIntel,57.80346821,9,1,6,0.006628621,0.003267721,1,0,0,1.4458,rock_grid_rect_2,4,10,-1,-1,1.446,0.392477078,-0.266441447,1,0,0,4.8336,Gabbro_rect,4,4.834,1,5,0,5,0,1,,,,,,,,,,,,,
5c95493ddd325800166f838a,TCR,2024-06-25_12h39.32.866,LearnStrategy,2023.2.3,MacIntel,57.80346821,9,1,7,0.006914537,-0.015504998,1,0,0,1.1105,rock_grid_rect_2,1,03,-1,-1,1.111,-0.348445028,-0.248100722,1,0,0,5.5194,Andesite_rect,1,5.519,1,6,0,6,0,1,,,,,,,,,,,,,
5c95493ddd325800166f838a,TCR,2024-06-25_12h39.32.866,LearnStrategy,2023.2.3,MacIntel,57.80346821,9,1,8,-0.069227634,-0.010605197,1,0,0,1.0475,rock_grid_rect_2,2,06,-1,-1,1.048,-0.101200087,-0.271370443,1,0,0,1.7831,Basalt_rect,2,1.783,1,7,0,7,0,1,,,,,,,,,,,,,
5c95493ddd325800166f838a,TCR,2024-06-25_12h39.32.866,LearnStrategy,2023.2.3,MacIntel,57.80346821,9,1,9,-0.039378391,-0.016269667,1,0,0,0.9442,rock_grid_rect_2,2,09,-1,-1,0.944,0.358308512,-0.263526476,1,0,0,1.8291,Gabbro_rect,4,1.829,0,8,0,8,0,1,,,,,,,,,,,,,
5c95493ddd325800166f838a,TCR,2024-06-25_12h39.32.866,LearnStrategy,2023.2.3,MacIntel,57.80346821,9,1,10,0.052708266,-0.010666538,1,0,0,1.2127,rock_grid_rect_2,6,03,-1,-1,1.213,-0.176234945,-0.41104031,1,0,0,1.8849,Pegmatite_rect,6,1.885,1,9,0,9,0,1,,,,,,,,,,,,,
5c95493ddd325800166f838a,TCR,2024-06-25_12h39.32.866,LearnStrategy,2023.2.3,MacIntel,57.80346821,9,1,11,-0.029582723,-0.009541456,1,0,0,0.9471,rock_grid_rect_2,5,04,-1,-1,0.947,-0.380664842,-0.401687012,1,0,0,0.9815,Obsidian_rect,5,0.981,1,10,0,10,0,1,,,,,,,,,,,,,
5c95493ddd325800166f838a,TCR,2024-06-25_12h39.32.866,LearnStrategy,2023.2.3,MacIntel,57.80346821,9,1,12,-0.021486545,-0.009118754,1,0,0,1.1472,rock_grid_rect_2,8,08,-1,-1,1.147,0.364042019,-0.403289795,1,0,0,1.8471,Pumice_rect,8,1.847,1,11,0,11,0,1,,,,,,,,,,,,,
5c95493ddd325800166f838a,TCR,2024-06-25_12h39.32.866,LearnStrategy,2023.2.3,MacIntel,57.80346821,9,1,13,-0.030947198,-0.015150621,1,0,0,0.9297,rock_grid_rect_2,3,06,-1,-1,0.93,0.124094916,-0.270170966,1,0,0,1.7299,Diorite_rect,3,1.73,1,12,0,12,0,1,,,,,,,,,,,,,
5c95493ddd325800166f838a,TCR,2024-06-25_12h39.32.866,LearnStrategy,2023.2.3,MacIntel,57.80346821,9,1,14,0.018395793,-0.007526279,1,0,0,0.8978,rock_grid_rect_2,7,08,-1,-1,0.898,0.131914876,-0.397948337,1,0,0,11.8678,Peridotite_rect,7,11.868,1,13,0,13,0,1,,,,,,,,,,,,,
5c95493ddd325800166f838a,TCR,2024-06-25_12h39.32.866,LearnStrategy,2023.2.3,MacIntel,57.80346821,9,1,15,0.017945557,0.005354919,1,0,0,1.3127,rock_grid_rect_2,7,12,-1,-1,1.313,0.121990967,-0.41463128,1,0,0,4.7798,Peridotite_rect,7,4.78,1,14,0,14,0,1,,,,,,,,,,,,,
5c95493ddd325800166f838a,TCR,2024-06-25_12h39.32.866,LearnStrategy,2023.2.3,MacIntel,57.80346821,9,1,16,-0.144512058,-0.006109755,1,0,0,2.2284,rock_grid_rect_2,4,10,-1,-1,2.228,0.425258653,-0.260001356,1,0,0,6.84,Gabbro_rect,4,6.84,1,15,0,15,0,1,,,,,,,,,,,,,
5c95493ddd325800166f838a,TCR,2024-06-25_12h39.32.866,LearnStrategy,2023.2.3,MacIntel,57.80346821,9,2,1,,,,,,,,3,12,,,,,,,,,,,7,21.162,0,,,,,,0.141568536,-0.392164103,1,0,0,21.1619,Peridotite_rect,0,0,0,0,1,
5c95493ddd325800166f838a,TCR,2024-06-25_12h39.32.866,LearnStrategy,2023.2.3,MacIntel,57.80346821,9,2,2,,,,,,,,8,15,,,,,,,,,,,8,1.181,1,,,,,,0.395644667,-0.419424167,1,0,0,1.1805,Pumice_rect,1,0,1,0,1,
5c95493ddd325800166f838a,TCR,2024-06-25_12h39.32.866,LearnStrategy,2023.2.3,MacIntel,57.80346821,9,2,3,,,,,,,,6,16,,,,,,,,,,,6,1.213,1,,,,,,-0.112448391,-0.403580254,1,0,0,1.2135,Pegmatite_rect,2,0,2,0,1,
5c95493ddd325800166f838a,TCR,2024-06-25_12h39.32.866,LearnStrategy,2023.2.3,MacIntel,57.80346821,9,2,4,,,,,,,,1,01,,,,,,,,,,,4,12.81,0,,,,,,0.42755032,-0.239490424,1,0,0,12.8096,Gabbro_rect,3,0,3,0,1,
5c95493ddd325800166f838a,TCR,2024-06-25_12h39.32.866,LearnStrategy,2023.2.3,MacIntel,57.80346821,9,2,5,,,,,,,,5,14,,,,,,,,,,,5,1.597,1,,,,,,-0.420006748,-0.413119303,1,0,0,1.5968,Obsidian_rect,4,0,4,0,1,
5c95493ddd325800166f838a,TCR,2024-06-25_12h39.32.866,LearnStrategy,2023.2.3,MacIntel,57.80346821,9,2,6,,,,,,,,7,15,,,,,,,,,,,4,24.993,0,,,,,,0.349279785,-0.260927192,1,0,0,24.9933,Gabbro_rect,5,0,5,0,1,
5c95493ddd325800166f838a,TCR,2024-06-25_12h39.32.866,LearnStrategy,2023.2.3,MacIntel,57.80346821,9,2,7,,,,,,,,6,06,,,,,,,,,,,6,2.881,1,,,,,,-0.147024943,-0.391635335,1,0,0,2.8806,Pegmatite_rect,6,0,6,0,1,
5c95493ddd325800166f838a,TCR,2024-06-25_12h39.32.866,LearnStrategy,2023.2.3,MacIntel,57.80346821,9,2,8,,,,,,,,4,09,,,,,,,,,,,2,1.395,0,,,,,,-0.144685059,-0.266013862,1,0,0,1.3952,Basalt_rect,7,0,7,0,1,
5c95493ddd325800166f838a,TCR,2024-06-25_12h39.32.866,LearnStrategy,2023.2.3,MacIntel,57.80346821,9,2,9,,,,,,,,8,05,,,,,,,,,,,8,1.263,1,,,,,,0.412113308,-0.409325426,1,0,0,1.263,Pumice_rect,8,0,8,0,1,
5c95493ddd325800166f838a,TCR,2024-06-25_12h39.32.866,LearnStrategy,2023.2.3,MacIntel,57.80346821,9,2,10,,,,,,,,3,10,,,,,,,,,,,7,16.665,0,,,,,,0.201522827,-0.398358154,1,0,0,16.665,Peridotite_rect,9,0,9,0,1,
5c95493ddd325800166f838a,TCR,2024-06-25_12h39.32.866,LearnStrategy,2023.2.3,MacIntel,57.80346821,9,2,11,,,,,,,,7,10,,,,,,,,,,,7,6.463,1,,,,,,0.166957397,-0.398448961,1,0,0,6.4633,Peridotite_rect,10,0,10,0,1,
5c95493ddd325800166f838a,TCR,2024-06-25_12h39.32.866,LearnStrategy,2023.2.3,MacIntel,57.80346821,9,2,12,,,,,,,,4,14,,,,,,,,,,,4,2.947,1,,,,,,0.42123725,-0.238254191,1,0,0,2.9473,Gabbro_rect,11,0,11,0,1,
5c95493ddd325800166f838a,TCR,2024-06-25_12h39.32.866,LearnStrategy,2023.2.3,MacIntel,57.80346821,9,2,13,,,,,,,,5,10,,,,,,,,,,,5,2.101,1,,,,,,-0.346989271,-0.40865743,1,0,0,2.1013,Obsidian_rect,12,0,12,0,1,
5c95493ddd325800166f838a,TCR,2024-06-25_12h39.32.866,LearnStrategy,2023.2.3,MacIntel,57.80346821,9,2,14,,,,,,,,2,10,,,,,,,,,,,2,1.636,1,,,,,,-0.148675198,-0.262622002,1,0,0,1.6356,Basalt_rect,13,0,13,0,1,
5c95493ddd325800166f838a,TCR,2024-06-25_12h39.32.866,LearnStrategy,2023.2.3,MacIntel,57.80346821,9,2,15,,,,,,,,2,16,,,,,,,,,,,8,1.685,0,,,,,,0.413570285,-0.38574334,1,0,0,1.6854,Pumice_rect,14,0,14,0,1,
5c95493ddd325800166f838a,TCR,2024-06-25_12h39.32.866,LearnStrategy,2023.2.3,MacIntel,57.80346821,9,2,16,,,,,,,,1,06,,,,,,,,,,,4,8.058,0,,,,,,0.40922187,-0.245701972,1,0,0,8.0581,Gabbro_rect,15,0,15,0,1,
5c95493ddd325800166f838a,TCR,2024-06-25_12h39.32.866,LearnStrategy,2023.2.3,MacIntel,57.80346821,,,,,,,,,,,,,,,,,,,,,,,,,,,,,,,,,,,,,,,,,,,1
5c95493ddd325800166f838a,TCR,2024-06-25_12h39.32.866,LearnStrategy,2023.2.3,MacIntel,57.80346821,,,,,,,,,,,,,,,,,,,,,,,,,,,,,,,,,,,,,,,,,,,
5c95493ddd325800166f838a,TCR,2024-06-25_12h39.32.866,LearnStrategy,2023.2.3,MacIntel,57.80346821,,,,,,,,,,,6,07,1,1,,,,,,,,,,,,,,,,,,,,,,,,,,,,,
5c95493ddd325800166f838a,TCR,2024-06-25_12h39.32.866,LearnStrategy,2023.2.3,MacIntel,57.80346821,,,,,,,,,,,7,04,1,2,,,,,,,,,,,,,,,,,,,,,,,,,,,,,
5c95493ddd325800166f838a,TCR,2024-06-25_12h39.32.866,LearnStrategy,2023.2.3,MacIntel,57.80346821,,,,,,,,,,,2,09,1,3,,,,,,,,,,,,,,,,,,,,,,,,,,,,,
5c95493ddd325800166f838a,TCR,2024-06-25_12h39.32.866,LearnStrategy,2023.2.3,MacIntel,57.80346821,,,,,,,,,,,3,11,1,4,,,,,,,,,,,,,,,,,,,,,,,,,,,,,
5c95493ddd325800166f838a,TCR,2024-06-25_12h39.32.866,LearnStrategy,2023.2.3,MacIntel,57.80346821,,,,,,,,,,,2,01,1,5,,,,,,,,,,,,,,,,,,,,,,,,,,,,,
5c95493ddd325800166f838a,TCR,2024-06-25_12h39.32.866,LearnStrategy,2023.2.3,MacIntel,57.80346821,,,,,,,,,,,6,08,1,6,,,,,,,,,,,,,,,,,,,,,,,,,,,,,
5c95493ddd325800166f838a,TCR,2024-06-25_12h39.32.866,LearnStrategy,2023.2.3,MacIntel,57.80346821,,,,,,,,,,,4,11,1,7,,,,,,,,,,,,,,,,,,,,,,,,,,,,,
5c95493ddd325800166f838a,TCR,2024-06-25_12h39.32.866,LearnStrategy,2023.2.3,MacIntel,57.80346821,,,,,,,,,,,4,12,1,8,,,,,,,,,,,,,,,,,,,,,,,,,,,,,
5c95493ddd325800166f838a,TCR,2024-06-25_12h39.32.866,LearnStrategy,2023.2.3,MacIntel,57.80346821,,,,,,,,,,,5,11,2,1,,,,,,,,,,,,,,,,,,,,,,,,,,,,,
5c95493ddd325800166f838a,TCR,2024-06-25_12h39.32.866,LearnStrategy,2023.2.3,MacIntel,57.80346821,,,,,,,,,,,1,02,2,2,,,,,,,,,,,,,,,,,,,,,,,,,,,,,
5c95493ddd325800166f838a,TCR,2024-06-25_12h39.32.866,LearnStrategy,2023.2.3,MacIntel,57.80346821,,,,,,,,,,,7,05,2,3,,,,,,,,,,,,,,,,,,,,,,,,,,,,,
5c95493ddd325800166f838a,TCR,2024-06-25_12h39.32.866,LearnStrategy,2023.2.3,MacIntel,57.80346821,,,,,,,,,,,3,16,2,4,,,,,,,,,,,,,,,,,,,,,,,,,,,,,
5c95493ddd325800166f838a,TCR,2024-06-25_12h39.32.866,LearnStrategy,2023.2.3,MacIntel,57.80346821,,,,,,,,,,,1,03,2,5,,,,,,,,,,,,,,,,,,,,,,,,,,,,,
5c95493ddd325800166f838a,TCR,2024-06-25_12h39.32.866,LearnStrategy,2023.2.3,MacIntel,57.80346821,,,,,,,,,,,5,04,2,6,,,,,,,,,,,,,,,,,,,,,,,,,,,,,
5c95493ddd325800166f838a,TCR,2024-06-25_12h39.32.866,LearnStrategy,2023.2.3,MacIntel,57.80346821,,,,,,,,,,,2,04,2,7,,,,,,,,,,,,,,,,,,,,,,,,,,,,,
5c95493ddd325800166f838a,TCR,2024-06-25_12h39.32.866,LearnStrategy,2023.2.3,MacIntel,57.80346821,,,,,,,,,,,6,15,2,8,,,,,,,,,,,,,,,,,,,,,,,,,,,,,
5c95493ddd325800166f838a,TCR,2024-06-25_12h39.32.866,LearnStrategy,2023.2.3,MacIntel,57.80346821,,,,,,,,,,,1,16,3,1,,,,,,,,,,,,,,,,,,,,,,,,,,,,,
5c95493ddd325800166f838a,TCR,2024-06-25_12h39.32.866,LearnStrategy,2023.2.3,MacIntel,57.80346821,,,,,,,,,,,2,06,3,2,,,,,,,,,,,,,,,,,,,,,,,,,,,,,
5c95493ddd325800166f838a,TCR,2024-06-25_12h39.32.866,LearnStrategy,2023.2.3,MacIntel,57.80346821,,,,,,,,,,,8,10,3,3,,,,,,,,,,,,,,,,,,,,,,,,,,,,,
5c95493ddd325800166f838a,TCR,2024-06-25_12h39.32.866,LearnStrategy,2023.2.3,MacIntel,57.80346821,,,,,,,,,,,1,10,3,4,,,,,,,,,,,,,,,,,,,,,,,,,,,,,
5c95493ddd325800166f838a,TCR,2024-06-25_12h39.32.866,LearnStrategy,2023.2.3,MacIntel,57.80346821,,,,,,,,,,,4,01,3,5,,,,,,,,,,,,,,,,,,,,,,,,,,,,,
5c95493ddd325800166f838a,TCR,2024-06-25_12h39.32.866,LearnStrategy,2023.2.3,MacIntel,57.80346821,,,,,,,,,,,4,15,3,6,,,,,,,,,,,,,,,,,,,,,,,,,,,,,
5c95493ddd325800166f838a,TCR,2024-06-25_12h39.32.866,LearnStrategy,2023.2.3,MacIntel,57.80346821,,,,,,,,,,,8,06,3,7,,,,,,,,,,,,,,,,,,,,,,,,,,,,,
5c95493ddd325800166f838a,TCR,2024-06-25_12h39.32.866,LearnStrategy,2023.2.3,MacIntel,57.80346821,,,,,,,,,,,3,09,3,8,,,,,,,,,,,,,,,,,,,,,,,,,,,,,
5c95493ddd325800166f838a,TCR,2024-06-25_12h39.32.866,LearnStrategy,2023.2.3,MacIntel,57.80346821,,,,,,,,,,,6,11,4,1,,,,,,,,,,,,,,,,,,,,,,,,,,,,,
5c95493ddd325800166f838a,TCR,2024-06-25_12h39.32.866,LearnStrategy,2023.2.3,MacIntel,57.80346821,,,,,,,,,,,3,13,4,2,,,,,,,,,,,,,,,,,,,,,,,,,,,,,
5c95493ddd325800166f838a,TCR,2024-06-25_12h39.32.866,LearnStrategy,2023.2.3,MacIntel,57.80346821,,,,,,,,,,,5,07,4,3,,,,,,,,,,,,,,,,,,,,,,,,,,,,,
5c95493ddd325800166f838a,TCR,2024-06-25_12h39.32.866,LearnStrategy,2023.2.3,MacIntel,57.80346821,,,,,,,,,,,7,07,4,4,,,,,,,,,,,,,,,,,,,,,,,,,,,,,
5c95493ddd325800166f838a,TCR,2024-06-25_12h39.32.866,LearnStrategy,2023.2.3,MacIntel,57.80346821,,,,,,,,,,,8,14,4,5,,,,,,,,,,,,,,,,,,,,,,,,,,,,,
5c95493ddd325800166f838a,TCR,2024-06-25_12h39.32.866,LearnStrategy,2023.2.3,MacIntel,57.80346821,,,,,,,,,,,7,08,4,6,,,,,,,,,,,,,,,,,,,,,,,,,,,,,
5c95493ddd325800166f838a,TCR,2024-06-25_12h39.32.866,LearnStrategy,2023.2.3,MacIntel,57.80346821,,,,,,,,,,,3,02,4,7,,,,,,,,,,,,,,,,,,,,,,,,,,,,,
5c95493ddd325800166f838a,TCR,2024-06-25_12h39.32.866,LearnStrategy,2023.2.3,MacIntel,57.80346821,,,,,,,,,,,3,06,4,8,,,,,,,,,,,,,,,,,,,,,,,,,,,,,
5c95493ddd325800166f838a,TCR,2024-06-25_12h39.32.866,LearnStrategy,2023.2.3,MacIntel,57.80346821,,,,,,,,,,,1,04,5,1,,,,,,,,,,,,,,,,,,,,,,,,,,,,,
5c95493ddd325800166f838a,TCR,2024-06-25_12h39.32.866,LearnStrategy,2023.2.3,MacIntel,57.80346821,,,,,,,,,,,4,08,5,2,,,,,,,,,,,,,,,,,,,,,,,,,,,,,
5c95493ddd325800166f838a,TCR,2024-06-25_12h39.32.866,LearnStrategy,2023.2.3,MacIntel,57.80346821,,,,,,,,,,,8,16,5,3,,,,,,,,,,,,,,,,,,,,,,,,,,,,,
5c95493ddd325800166f838a,TCR,2024-06-25_12h39.32.866,LearnStrategy,2023.2.3,MacIntel,57.80346821,,,,,,,,,,,6,03,5,4,,,,,,,,,,,,,,,,,,,,,,,,,,,,,
5c95493ddd325800166f838a,TCR,2024-06-25_12h39.32.866,LearnStrategy,2023.2.3,MacIntel,57.80346821,,,,,,,,,,,4,10,5,5,,,,,,,,,,,,,,,,,,,,,,,,,,,,,
5c95493ddd325800166f838a,TCR,2024-06-25_12h39.32.866,LearnStrategy,2023.2.3,MacIntel,57.80346821,,,,,,,,,,,6,09,5,6,,,,,,,,,,,,,,,,,,,,,,,,,,,,,
5c95493ddd325800166f838a,TCR,2024-06-25_12h39.32.866,LearnStrategy,2023.2.3,MacIntel,57.80346821,,,,,,,,,,,7,14,5,7,,,,,,,,,,,,,,,,,,,,,,,,,,,,,
5c95493ddd325800166f838a,TCR,2024-06-25_12h39.32.866,LearnStrategy,2023.2.3,MacIntel,57.80346821,,,,,,,,,,,8,08,5,8,,,,,,,,,,,,,,,,,,,,,,,,,,,,,
5c95493ddd325800166f838a,TCR,2024-06-25_12h39.32.866,LearnStrategy,2023.2.3,MacIntel,57.80346821,,,,,,,,,,,8,04,6,1,,,,,,,,,,,,,,,,,,,,,,,,,,,,,
5c95493ddd325800166f838a,TCR,2024-06-25_12h39.32.866,LearnStrategy,2023.2.3,MacIntel,57.80346821,,,,,,,,,,,7,12,6,2,,,,,,,,,,,,,,,,,,,,,,,,,,,,,
5c95493ddd325800166f838a,TCR,2024-06-25_12h39.32.866,LearnStrategy,2023.2.3,MacIntel,57.80346821,,,,,,,,,,,2,11,6,3,,,,,,,,,,,,,,,,,,,,,,,,,,,,,
5c95493ddd325800166f838a,TCR,2024-06-25_12h39.32.866,LearnStrategy,2023.2.3,MacIntel,57.80346821,,,,,,,,,,,5,09,6,4,,,,,,,,,,,,,,,,,,,,,,,,,,,,,
5c95493ddd325800166f838a,TCR,2024-06-25_12h39.32.866,LearnStrategy,2023.2.3,MacIntel,57.80346821,,,,,,,,,,,2,14,6,5,,,,,,,,,,,,,,,,,,,,,,,,,,,,,
5c95493ddd325800166f838a,TCR,2024-06-25_12h39.32.866,LearnStrategy,2023.2.3,MacIntel,57.80346821,,,,,,,,,,,5,12,6,6,,,,,,,,,,,,,,,,,,,,,,,,,,,,,
5c95493ddd325800166f838a,TCR,2024-06-25_12h39.32.866,LearnStrategy,2023.2.3,MacIntel,57.80346821,,,,,,,,,,,5,06,6,7,,,,,,,,,,,,,,,,,,,,,,,,,,,,,
5c95493ddd325800166f838a,TCR,2024-06-25_12h39.32.866,LearnStrategy,2023.2.3,MacIntel,57.80346821,,,,,,,,,,,1,14,6,8,,,,,,,,,,,,,,,,,,,,,,,,,,,,,