participant,condition,date,expName,psychopyVersion,OS,frameRate,block,phase,trial,learn_mouse.x,learn_mouse.y,learn_mouse.leftButton,learn_mouse.midButton,learn_mouse.rightButton,learn_mouse.time,learn_mouse.clicked_name,cat,token,row,col,t_select,cat_mouse_l.x,cat_mouse_l.y,cat_mouse_l.leftButton,cat_mouse_l.midButton,cat_mouse_l.rightButton,cat_mouse_l.time,cat_mouse_l.clicked_name,resp,t_resp,corr,train_trials.thisRepN,train_trials.thisTrialN,train_trials.thisN,train_trials.thisIndex,train_trials.ran,cat_mouse_t.x,cat_mouse_t.y,cat_mouse_t.leftButton,cat_mouse_t.midButton,cat_mouse_t.rightButton,cat_mouse_t.time,cat_mouse_t.clicked_name,test_trials.thisRepN,test_trials.thisTrialN,test_trials.thisN,test_trials.thisIndex,test_trials.ran,Bonus
5cdee86590d2dc0001f86b3a,SCN,2024-06-21_12h57.13.337,LearnStrategy,2023.2.3,Win32,144.9275362,,,,,,,,,,,,,,,,,,,,,,,,,,,,,,,,,,,,,,,,,,,
5cdee86590d2dc0001f86b3a,SCN,2024-06-21_12h57.13.337,LearnStrategy,2023.2.3,Win32,144.9275362,1,1,1,-0.517592593,0.411111111,1,0,0,2.1347,Peridotite_08,7,08,6,1,2.135,-0.400925926,-0.228703704,1,0,0,3.3172,Andesite_rect,1,3.317,0,0,0,0,0,1,,,,,,,,,,,,,
5cdee86590d2dc0001f86b3a,SCN,2024-06-21_12h57.13.337,LearnStrategy,2023.2.3,Win32,144.9275362,1,1,2,-0.401851852,0.405555556,1,0,0,1.3466,Gabbro_10,4,10,6,2,1.347,-0.105555556,-0.263888889,1,0,0,1.5728,Basalt_rect,2,1.573,0,1,0,1,0,1,,,,,,,,,,,,,
5cdee86590d2dc0001f86b3a,SCN,2024-06-21_12h57.13.337,LearnStrategy,2023.2.3,Win32,144.9275362,1,1,3,-0.25,0.405555556,1,0,0,0.9297,Gabbro_14,4,14,6,3,0.93,-0.150925926,-0.246296296,1,0,0,2.066,Basalt_rect,2,2.066,0,2,0,2,0,1,,,,,,,,,,,,,
5cdee86590d2dc0001f86b3a,SCN,2024-06-21_12h57.13.337,LearnStrategy,2023.2.3,Win32,144.9275362,1,1,4,-0.083333333,0.383333333,1,0,0,3.1108,Andesite_06,1,06,6,4,3.111,-0.130555556,-0.239814815,1,0,0,0.9091,Basalt_rect,2,0.909,0,3,0,3,0,1,,,,,,,,,,,,,
5cdee86590d2dc0001f86b3a,SCN,2024-06-21_12h57.13.337,LearnStrategy,2023.2.3,Win32,144.9275362,1,1,5,0.358333333,0.103703704,1,0,0,7.1594,Obsidian_02,5,02,4,7,7.159,-0.386111111,-0.385185185,1,0,0,1.3462,Obsidian_rect,5,1.346,1,4,0,4,0,1,,,,,,,,,,,,,
5cdee86590d2dc0001f86b3a,SCN,2024-06-21_12h57.13.337,LearnStrategy,2023.2.3,Win32,144.9275362,1,1,6,-0.263888889,-0.097222222,1,0,0,6.7705,Obsidian_07,5,07,3,3,6.77,-0.131481481,-0.244444444,1,0,0,0.9717,Basalt_rect,2,0.972,0,5,0,5,0,1,,,,,,,,,,,,,
5cdee86590d2dc0001f86b3a,SCN,2024-06-21_12h57.13.337,LearnStrategy,2023.2.3,Win32,144.9275362,1,1,7,-0.075,-0.089814815,1,0,0,1.791,Basalt_05,2,05,3,4,1.791,-0.12037037,-0.240740741,1,0,0,0.9896,Basalt_rect,2,0.99,1,6,0,6,0,1,,,,,,,,,,,,,
5cdee86590d2dc0001f86b3a,SCN,2024-06-21_12h57.13.337,LearnStrategy,2023.2.3,Win32,144.9275362,1,1,8,0.075,-0.09537037,1,0,0,2.1521,Diorite_10,3,10,3,5,2.152,-0.390740741,-0.25,1,0,0,1.3647,Andesite_rect,1,1.365,0,7,0,7,0,1,,,,,,,,,,,,,
5cdee86590d2dc0001f86b3a,SCN,2024-06-21_12h57.13.337,LearnStrategy,2023.2.3,Win32,144.9275362,1,1,9,0.361111111,-0.246296296,1,0,0,1.9786,Pegmatite_16,6,16,2,7,1.979,-0.122222222,-0.387962963,1,0,0,4.469,Pegmatite_rect,6,4.469,1,8,0,8,0,1,,,,,,,,,,,,,
5cdee86590d2dc0001f86b3a,SCN,2024-06-21_12h57.13.337,LearnStrategy,2023.2.3,Win32,144.9275362,1,1,10,-0.521296296,-0.396296296,1,0,0,5.8885,Pumice_06,8,06,1,1,5.889,-0.162037037,-0.396296296,1,0,0,2.8606,Pegmatite_rect,6,2.861,0,9,0,9,0,1,,,,,,,,,,,,,
5cdee86590d2dc0001f86b3a,SCN,2024-06-21_12h57.13.337,LearnStrategy,2023.2.3,Win32,144.9275362,1,1,11,0.207407407,0.083333333,1,0,0,0.9229,Pumice_13,8,13,4,6,0.923,0.364814815,-0.251851852,1,0,0,4.1426,Gabbro_rect,4,4.143,0,10,0,10,0,1,,,,,,,,,,,,,
5cdee86590d2dc0001f86b3a,SCN,2024-06-21_12h57.13.337,LearnStrategy,2023.2.3,Win32,144.9275362,1,1,12,0.371296296,0.217592593,1,0,0,2.1242,Pegmatite_09,6,09,5,7,2.124,-0.062037037,-0.401851852,1,0,0,3.5733,Pegmatite_rect,6,3.573,1,11,0,11,0,1,,,,,,,,,,,,,
5cdee86590d2dc0001f86b3a,SCN,2024-06-21_12h57.13.337,LearnStrategy,2023.2.3,Win32,144.9275362,1,1,13,0.258333333,0.225925926,1,0,0,3.0134,Peridotite_02,7,02,5,6,3.013,0.057407407,-0.4,1,0,0,2.4274,Peridotite_rect,7,2.427,1,12,0,12,0,1,,,,,,,,,,,,,
5cdee86590d2dc0001f86b3a,SCN,2024-06-21_12h57.13.337,LearnStrategy,2023.2.3,Win32,144.9275362,1,1,14,0.410185185,0.244444444,1,0,0,3.3398,Pegmatite_09,6,09,5,7,3.34,0.09537037,-0.383333333,1,0,0,2.1454,Peridotite_rect,7,2.145,0,13,0,13,0,1,,,,,,,,,,,,,
5cdee86590d2dc0001f86b3a,SCN,2024-06-21_12h57.13.337,LearnStrategy,2023.2.3,Win32,144.9275362,1,1,15,0.399074074,0.39537037,1,0,0,1.7564,Pumice_10,8,10,6,7,1.756,-0.371296296,-0.253703704,1,0,0,1.2882,Andesite_rect,1,1.288,0,14,0,14,0,1,,,,,,,,,,,,,
5cdee86590d2dc0001f86b3a,SCN,2024-06-21_12h57.13.337,LearnStrategy,2023.2.3,Win32,144.9275362,1,1,16,0.086111111,0.409259259,1,0,0,3.2286,Diorite_14,3,14,6,5,3.229,0.047222222,-0.394444444,1,0,0,3.4414,Peridotite_rect,7,3.441,0,15,0,15,0,1,,,,,,,,,,,,,
5cdee86590d2dc0001f86b3a,SCN,2024-06-21_12h57.13.337,LearnStrategy,2023.2.3,Win32,144.9275362,1,2,1,,,,,,,,3,16,,,,,,,,,,,7,4.101,0,,,,,,0.126851852,-0.415740741,1,0,0,4.101,Peridotite_rect,0,0,0,0,1,
5cdee86590d2dc0001f86b3a,SCN,2024-06-21_12h57.13.337,LearnStrategy,2023.2.3,Win32,144.9275362,1,2,2,,,,,,,,8,16,,,,,,,,,,,8,2.907,1,,,,,,0.351851852,-0.410185185,1,0,0,2.9068,Pumice_rect,1,0,1,0,1,
5cdee86590d2dc0001f86b3a,SCN,2024-06-21_12h57.13.337,LearnStrategy,2023.2.3,Win32,144.9275362,1,2,3,,,,,,,,1,09,,,,,,,,,,,4,3.699,0,,,,,,0.386111111,-0.238888889,1,0,0,3.6994,Gabbro_rect,2,0,2,0,1,
5cdee86590d2dc0001f86b3a,SCN,2024-06-21_12h57.13.337,LearnStrategy,2023.2.3,Win32,144.9275362,1,2,4,,,,,,,,2,01,,,,,,,,,,,2,1.812,1,,,,,,-0.161111111,-0.247222222,1,0,0,1.8118,Basalt_rect,3,0,3,0,1,
5cdee86590d2dc0001f86b3a,SCN,2024-06-21_12h57.13.337,LearnStrategy,2023.2.3,Win32,144.9275362,1,2,5,,,,,,,,5,09,,,,,,,,,,,5,1.541,1,,,,,,-0.377777778,-0.382407407,1,0,0,1.5406,Obsidian_rect,4,0,4,0,1,
5cdee86590d2dc0001f86b3a,SCN,2024-06-21_12h57.13.337,LearnStrategy,2023.2.3,Win32,144.9275362,1,2,6,,,,,,,,7,07,,,,,,,,,,,1,2.388,0,,,,,,-0.4,-0.231481481,1,0,0,2.3879,Andesite_rect,5,0,5,0,1,
5cdee86590d2dc0001f86b3a,SCN,2024-06-21_12h57.13.337,LearnStrategy,2023.2.3,Win32,144.9275362,1,2,7,,,,,,,,7,15,,,,,,,,,,,1,1.444,0,,,,,,-0.367592593,-0.253703704,1,0,0,1.4438,Andesite_rect,6,0,6,0,1,
5cdee86590d2dc0001f86b3a,SCN,2024-06-21_12h57.13.337,LearnStrategy,2023.2.3,Win32,144.9275362,1,2,8,,,,,,,,5,04,,,,,,,,,,,5,1.101,1,,,,,,-0.360185185,-0.39537037,1,0,0,1.1009,Obsidian_rect,7,0,7,0,1,
5cdee86590d2dc0001f86b3a,SCN,2024-06-21_12h57.13.337,LearnStrategy,2023.2.3,Win32,144.9275362,1,2,9,,,,,,,,6,12,,,,,,,,,,,6,1.955,1,,,,,,-0.106481481,-0.39537037,1,0,0,1.9548,Pegmatite_rect,8,0,8,0,1,
5cdee86590d2dc0001f86b3a,SCN,2024-06-21_12h57.13.337,LearnStrategy,2023.2.3,Win32,144.9275362,1,2,10,,,,,,,,4,13,,,,,,,,,,,3,3.032,0,,,,,,0.121296296,-0.261111111,1,0,0,3.0317,Diorite_rect,9,0,9,0,1,
5cdee86590d2dc0001f86b3a,SCN,2024-06-21_12h57.13.337,LearnStrategy,2023.2.3,Win32,144.9275362,1,2,11,,,,,,,,4,12,,,,,,,,,,,2,2.055,0,,,,,,-0.116666667,-0.246296296,1,0,0,2.0551,Basalt_rect,10,0,10,0,1,
5cdee86590d2dc0001f86b3a,SCN,2024-06-21_12h57.13.337,LearnStrategy,2023.2.3,Win32,144.9275362,1,2,12,,,,,,,,6,13,,,,,,,,,,,6,2.757,1,,,,,,-0.087962963,-0.400925926,1,0,0,2.7567,Pegmatite_rect,11,0,11,0,1,
5cdee86590d2dc0001f86b3a,SCN,2024-06-21_12h57.13.337,LearnStrategy,2023.2.3,Win32,144.9275362,1,2,13,,,,,,,,1,01,,,,,,,,,,,4,4.604,0,,,,,,0.35462963,-0.237962963,1,0,0,4.6037,Gabbro_rect,12,0,12,0,1,
5cdee86590d2dc0001f86b3a,SCN,2024-06-21_12h57.13.337,LearnStrategy,2023.2.3,Win32,144.9275362,1,2,14,,,,,,,,2,16,,,,,,,,,,,4,9.173,0,,,,,,0.418518519,-0.262037037,1,0,0,9.1731,Gabbro_rect,13,0,13,0,1,
5cdee86590d2dc0001f86b3a,SCN,2024-06-21_12h57.13.337,LearnStrategy,2023.2.3,Win32,144.9275362,1,2,15,,,,,,,,3,09,,,,,,,,,,,6,1.277,0,,,,,,-0.149074074,-0.388888889,1,0,0,1.2773,Pegmatite_rect,14,0,14,0,1,
5cdee86590d2dc0001f86b3a,SCN,2024-06-21_12h57.13.337,LearnStrategy,2023.2.3,Win32,144.9275362,1,2,16,,,,,,,,8,05,,,,,,,,,,,8,1.916,1,,,,,,0.39537037,-0.412037037,1,0,0,1.9163,Pumice_rect,15,0,15,0,1,
5cdee86590d2dc0001f86b3a,SCN,2024-06-21_12h57.13.337,LearnStrategy,2023.2.3,Win32,144.9275362,2,1,1,-0.528703704,-0.375925926,1,0,0,3.0272,Pumice_06,8,06,1,1,3.027,-0.098148148,-0.393518519,1,0,0,1.8576,Pegmatite_rect,6,1.858,0,0,0,0,0,1,,,,,,,,,,,,,
5cdee86590d2dc0001f86b3a,SCN,2024-06-21_12h57.13.337,LearnStrategy,2023.2.3,Win32,144.9275362,2,1,2,0.046296296,-0.09537037,1,0,0,2.8468,Diorite_10,3,10,3,5,2.847,0.049074074,-0.235185185,1,0,0,1.8994,Diorite_rect,3,1.899,1,1,0,1,0,1,,,,,,,,,,,,,
5cdee86590d2dc0001f86b3a,SCN,2024-06-21_12h57.13.337,LearnStrategy,2023.2.3,Win32,144.9275362,2,1,3,0.392592593,-0.078703704,1,0,0,1.1103,Gabbro_03,4,03,3,7,1.11,0.087962963,-0.242592593,1,0,0,1.4272,Diorite_rect,3,1.427,0,2,0,2,0,1,,,,,,,,,,,,,
5cdee86590d2dc0001f86b3a,SCN,2024-06-21_12h57.13.337,LearnStrategy,2023.2.3,Win32,144.9275362,2,1,4,-0.232407407,0.088888889,1,0,0,3.2843,Andesite_04,1,04,4,3,3.284,0.042592593,-0.399074074,1,0,0,1.7632,Peridotite_rect,7,1.763,0,3,0,3,0,1,,,,,,,,,,,,,
5cdee86590d2dc0001f86b3a,SCN,2024-06-21_12h57.13.337,LearnStrategy,2023.2.3,Win32,144.9275362,2,1,5,-0.413888889,-0.092592593,1,0,0,3.1175,Pegmatite_08,6,08,3,2,3.118,-0.101851852,-0.406481481,1,0,0,1.7121,Pegmatite_rect,6,1.712,1,4,0,4,0,1,,,,,,,,,,,,,
5cdee86590d2dc0001f86b3a,SCN,2024-06-21_12h57.13.337,LearnStrategy,2023.2.3,Win32,144.9275362,2,1,6,0.099074074,-0.421296296,1,0,0,1.5758,Diorite_11,3,11,1,5,1.576,-0.364814815,-0.251851852,1,0,0,2.1565,Andesite_rect,1,2.156,0,5,0,5,0,1,,,,,,,,,,,,,
5cdee86590d2dc0001f86b3a,SCN,2024-06-21_12h57.13.337,LearnStrategy,2023.2.3,Win32,144.9275362,2,1,7,0.388888889,-0.077777778,1,0,0,3.1314,Gabbro_03,4,03,3,7,3.131,-0.321296296,-0.260185185,1,0,0,1.7076,Andesite_rect,1,1.708,0,6,0,6,0,1,,,,,,,,,,,,,
5cdee86590d2dc0001f86b3a,SCN,2024-06-21_12h57.13.337,LearnStrategy,2023.2.3,Win32,144.9275362,2,1,8,0.551851852,-0.105555556,1,0,0,4.1942,Basalt_04,2,04,3,8,4.194,-0.166666667,-0.246296296,1,0,0,1.0063,Basalt_rect,2,1.006,1,7,0,7,0,1,,,,,,,,,,,,,
5cdee86590d2dc0001f86b3a,SCN,2024-06-21_12h57.13.337,LearnStrategy,2023.2.3,Win32,144.9275362,2,1,9,0.075925926,0.253703704,1,0,0,3.319,Basalt_14,2,14,5,5,3.319,0.325925926,-0.385185185,1,0,0,1.5065,Pumice_rect,8,1.507,0,8,0,8,0,1,,,,,,,,,,,,,
5cdee86590d2dc0001f86b3a,SCN,2024-06-21_12h57.13.337,LearnStrategy,2023.2.3,Win32,144.9275362,2,1,10,-0.381481481,0.102777778,1,0,0,2.2494,Diorite_15,3,15,4,2,2.249,-0.338888889,-0.258333333,1,0,0,2.1246,Andesite_rect,1,2.125,0,9,0,9,0,1,,,,,,,,,,,,,
5cdee86590d2dc0001f86b3a,SCN,2024-06-21_12h57.13.337,LearnStrategy,2023.2.3,Win32,144.9275362,2,1,11,-0.519444444,0.121296296,1,0,0,1.6313,Gabbro_08,4,08,4,1,1.631,0.110185185,-0.40462963,1,0,0,1.969,Peridotite_rect,7,1.969,0,10,0,10,0,1,,,,,,,,,,,,,
5cdee86590d2dc0001f86b3a,SCN,2024-06-21_12h57.13.337,LearnStrategy,2023.2.3,Win32,144.9275362,2,1,12,-0.365740741,-0.253703704,1,0,0,2.2215,Andesite_10,1,10,2,2,2.221,0.34537037,-0.252777778,1,0,0,2.7608,Gabbro_rect,4,2.761,0,11,0,11,0,1,,,,,,,,,,,,,
5cdee86590d2dc0001f86b3a,SCN,2024-06-21_12h57.13.337,LearnStrategy,2023.2.3,Win32,144.9275362,2,1,13,0.358333333,-0.39537037,1,0,0,2.6385,Gabbro_16,4,16,1,7,2.639,0.097222222,-0.402777778,1,0,0,5.604,Peridotite_rect,7,5.604,0,12,0,12,0,1,,,,,,,,,,,,,
5cdee86590d2dc0001f86b3a,SCN,2024-06-21_12h57.13.337,LearnStrategy,2023.2.3,Win32,144.9275362,2,1,14,-0.074074074,0.114814815,1,0,0,3.4578,Diorite_07,3,07,4,4,3.458,-0.340740741,-0.251851852,1,0,0,1.4618,Andesite_rect,1,1.462,0,13,0,13,0,1,,,,,,,,,,,,,
5cdee86590d2dc0001f86b3a,SCN,2024-06-21_12h57.13.337,LearnStrategy,2023.2.3,Win32,144.9275362,2,1,15,-0.087037037,0.24537037,1,0,0,1.6799,Pegmatite_03,6,03,5,4,1.68,-0.112962963,-0.387037037,1,0,0,1.4898,Pegmatite_rect,6,1.49,1,14,0,14,0,1,,,,,,,,,,,,,
5cdee86590d2dc0001f86b3a,SCN,2024-06-21_12h57.13.337,LearnStrategy,2023.2.3,Win32,144.9275362,2,1,16,0.537962963,0.383333333,1,0,0,1.1591,Andesite_02,1,02,6,8,1.159,-0.380555556,-0.252777778,1,0,0,2.4274,Andesite_rect,1,2.427,1,15,0,15,0,1,,,,,,,,,,,,,
5cdee86590d2dc0001f86b3a,SCN,2024-06-21_12h57.13.337,LearnStrategy,2023.2.3,Win32,144.9275362,2,2,1,,,,,,,,3,08,,,,,,,,,,,3,1.67,1,,,,,,0.125,-0.261111111,1,0,0,1.6701,Diorite_rect,0,0,0,0,1,
5cdee86590d2dc0001f86b3a,SCN,2024-06-21_12h57.13.337,LearnStrategy,2023.2.3,Win32,144.9275362,2,2,2,,,,,,,,7,04,,,,,,,,,,,1,5.483,0,,,,,,-0.383333333,-0.237037037,1,0,0,5.4829,Andesite_rect,1,0,1,0,1,
5cdee86590d2dc0001f86b3a,SCN,2024-06-21_12h57.13.337,LearnStrategy,2023.2.3,Win32,144.9275362,2,2,3,,,,,,,,5,11,,,,,,,,,,,5,1.99,1,,,,,,-0.365740741,-0.394444444,1,0,0,1.9898,Obsidian_rect,2,0,2,0,1,
5cdee86590d2dc0001f86b3a,SCN,2024-06-21_12h57.13.337,LearnStrategy,2023.2.3,Win32,144.9275362,2,2,4,,,,,,,,4,09,,,,,,,,,,,4,4.164,1,,,,,,0.361111111,-0.233333333,1,0,0,4.1638,Gabbro_rect,3,0,3,0,1,
5cdee86590d2dc0001f86b3a,SCN,2024-06-21_12h57.13.337,LearnStrategy,2023.2.3,Win32,144.9275362,2,2,5,,,,,,,,1,11,,,,,,,,,,,4,2.941,0,,,,,,0.399074074,-0.246296296,1,0,0,2.9411,Gabbro_rect,4,0,4,0,1,
5cdee86590d2dc0001f86b3a,SCN,2024-06-21_12h57.13.337,LearnStrategy,2023.2.3,Win32,144.9275362,2,2,6,,,,,,,,6,10,,,,,,,,,,,6,1.49,1,,,,,,-0.112037037,-0.399074074,1,0,0,1.4897,Pegmatite_rect,5,0,5,0,1,
5cdee86590d2dc0001f86b3a,SCN,2024-06-21_12h57.13.337,LearnStrategy,2023.2.3,Win32,144.9275362,2,2,7,,,,,,,,2,06,,,,,,,,,,,2,1.754,1,,,,,,-0.142592593,-0.234259259,1,0,0,1.7538,Basalt_rect,6,0,6,0,1,
5cdee86590d2dc0001f86b3a,SCN,2024-06-21_12h57.13.337,LearnStrategy,2023.2.3,Win32,144.9275362,2,2,8,,,,,,,,7,13,,,,,,,,,,,2,6.361,0,,,,,,-0.087962963,-0.233333333,1,0,0,6.3611,Basalt_rect,7,0,7,0,1,
5cdee86590d2dc0001f86b3a,SCN,2024-06-21_12h57.13.337,LearnStrategy,2023.2.3,Win32,144.9275362,2,2,9,,,,,,,,4,11,,,,,,,,,,,4,2.479,1,,,,,,0.358333333,-0.240740741,1,0,0,2.4788,Gabbro_rect,8,0,8,0,1,
5cdee86590d2dc0001f86b3a,SCN,2024-06-21_12h57.13.337,LearnStrategy,2023.2.3,Win32,144.9275362,2,2,10,,,,,,,,5,12,,,,,,,,,,,5,1.083,1,,,,,,-0.349074074,-0.403703704,1,0,0,1.0829,Obsidian_rect,9,0,9,0,1,
5cdee86590d2dc0001f86b3a,SCN,2024-06-21_12h57.13.337,LearnStrategy,2023.2.3,Win32,144.9275362,2,2,11,,,,,,,,1,03,,,,,,,,,,,7,4.403,0,,,,,,0.126851852,-0.406481481,1,0,0,4.4025,Peridotite_rect,10,0,10,0,1,
5cdee86590d2dc0001f86b3a,SCN,2024-06-21_12h57.13.337,LearnStrategy,2023.2.3,Win32,144.9275362,2,2,12,,,,,,,,8,09,,,,,,,,,,,8,1.222,1,,,,,,0.352777778,-0.394444444,1,0,0,1.2216,Pumice_rect,11,0,11,0,1,
5cdee86590d2dc0001f86b3a,SCN,2024-06-21_12h57.13.337,LearnStrategy,2023.2.3,Win32,144.9275362,2,2,13,,,,,,,,8,14,,,,,,,,,,,8,0.909,1,,,,,,0.365740741,-0.413888889,1,0,0,0.9088,Pumice_rect,12,0,12,0,1,
5cdee86590d2dc0001f86b3a,SCN,2024-06-21_12h57.13.337,LearnStrategy,2023.2.3,Win32,144.9275362,2,2,14,,,,,,,,6,05,,,,,,,,,,,6,2.056,1,,,,,,-0.096296296,-0.406481481,1,0,0,2.0558,Pegmatite_rect,13,0,13,0,1,
5cdee86590d2dc0001f86b3a,SCN,2024-06-21_12h57.13.337,LearnStrategy,2023.2.3,Win32,144.9275362,2,2,15,,,,,,,,2,12,,,,,,,,,,,4,5.534,0,,,,,,0.478703704,-0.233333333,1,0,0,5.5341,Gabbro_rect,14,0,14,0,1,
5cdee86590d2dc0001f86b3a,SCN,2024-06-21_12h57.13.337,LearnStrategy,2023.2.3,Win32,144.9275362,2,2,16,,,,,,,,3,06,,,,,,,,,,,3,1.639,1,,,,,,0.125925926,-0.249074074,1,0,0,1.6387,Diorite_rect,15,0,15,0,1,
5cdee86590d2dc0001f86b3a,SCN,2024-06-21_12h57.13.337,LearnStrategy,2023.2.3,Win32,144.9275362,3,1,1,-0.249074074,0.082407407,1,0,0,1.7284,Andesite_04,1,04,4,3,1.728,0.087037037,-0.264814815,1,0,0,2.3024,Diorite_rect,3,2.302,0,0,0,0,0,1,,,,,,,,,,,,,
5cdee86590d2dc0001f86b3a,SCN,2024-06-21_12h57.13.337,LearnStrategy,2023.2.3,Win32,144.9275362,3,1,2,-0.07962963,0.103703704,1,0,0,1.5689,Diorite_07,3,07,4,4,1.569,-0.134259259,-0.37962963,1,0,0,0.9205,Pegmatite_rect,6,0.921,0,1,0,1,0,1,,,,,,,,,,,,,
5cdee86590d2dc0001f86b3a,SCN,2024-06-21_12h57.13.337,LearnStrategy,2023.2.3,Win32,144.9275362,3,1,3,0.078703704,-0.12037037,1,0,0,4.2704,Diorite_10,3,10,3,5,4.27,0.110185185,-0.268518519,1,0,0,0.8674,Diorite_rect,3,0.867,1,2,0,2,0,1,,,,,,,,,,,,,
5cdee86590d2dc0001f86b3a,SCN,2024-06-21_12h57.13.337,LearnStrategy,2023.2.3,Win32,144.9275362,3,1,4,0.214814815,-0.108333333,1,0,0,0.5688,Peridotite_10,7,10,3,6,0.569,0.072222222,-0.396296296,1,0,0,1.212,Peridotite_rect,7,1.212,1,3,0,3,0,1,,,,,,,,,,,,,
5cdee86590d2dc0001f86b3a,SCN,2024-06-21_12h57.13.337,LearnStrategy,2023.2.3,Win32,144.9275362,3,1,5,0.374074074,-0.122222222,1,0,0,3.319,Gabbro_03,4,03,3,7,3.319,0.072222222,-0.410185185,1,0,0,3.1729,Peridotite_rect,7,3.173,0,4,0,4,0,1,,,,,,,,,,,,,
5cdee86590d2dc0001f86b3a,SCN,2024-06-21_12h57.13.337,LearnStrategy,2023.2.3,Win32,144.9275362,3,1,6,0.538888889,-0.106481481,1,0,0,1.3815,Basalt_04,2,04,3,8,1.381,-0.142592593,-0.27037037,1,0,0,0.7606,Basalt_rect,2,0.761,1,5,0,5,0,1,,,,,,,,,,,,,
5cdee86590d2dc0001f86b3a,SCN,2024-06-21_12h57.13.337,LearnStrategy,2023.2.3,Win32,144.9275362,3,1,7,-0.366666667,-0.25,1,0,0,1.3328,Andesite_10,1,10,2,2,1.333,0.418518519,-0.256481481,1,0,0,1.8368,Gabbro_rect,4,1.837,0,6,0,6,0,1,,,,,,,,,,,,,
5cdee86590d2dc0001f86b3a,SCN,2024-06-21_12h57.13.337,LearnStrategy,2023.2.3,Win32,144.9275362,3,1,8,0.52037037,-0.257407407,1,0,0,3.5968,Peridotite_16,7,16,2,8,3.597,0.411111111,-0.247222222,1,0,0,2.9232,Gabbro_rect,4,2.923,0,7,0,7,0,1,,,,,,,,,,,,,
5cdee86590d2dc0001f86b3a,SCN,2024-06-21_12h57.13.337,LearnStrategy,2023.2.3,Win32,144.9275362,3,1,9,-0.04537037,-0.401851852,1,0,0,2.4092,Andesite_05,1,05,1,4,2.409,-0.127777778,-0.388888889,1,0,0,1.7327,Pegmatite_rect,6,1.733,0,8,0,8,0,1,,,,,,,,,,,,,
5cdee86590d2dc0001f86b3a,SCN,2024-06-21_12h57.13.337,LearnStrategy,2023.2.3,Win32,144.9275362,3,1,10,0.240740741,-0.411111111,1,0,0,3.1314,Gabbro_05,4,05,1,6,3.131,0.376851852,-0.237037037,1,0,0,2.1382,Gabbro_rect,4,2.138,1,9,0,9,0,1,,,,,,,,,,,,,
5cdee86590d2dc0001f86b3a,SCN,2024-06-21_12h57.13.337,LearnStrategy,2023.2.3,Win32,144.9275362,3,1,11,0.39537037,-0.418518519,1,0,0,1.645,Gabbro_16,4,16,1,7,1.645,-0.10462963,-0.22962963,1,0,0,1.2884,Basalt_rect,2,1.288,0,10,0,10,0,1,,,,,,,,,,,,,
5cdee86590d2dc0001f86b3a,SCN,2024-06-21_12h57.13.337,LearnStrategy,2023.2.3,Win32,144.9275362,3,1,12,0.532407407,-0.412037037,1,0,0,0.9161,Basalt_09,2,09,1,8,0.916,-0.05462963,-0.24537037,1,0,0,1.5246,Basalt_rect,2,1.525,1,11,0,11,0,1,,,,,,,,,,,,,
5cdee86590d2dc0001f86b3a,SCN,2024-06-21_12h57.13.337,LearnStrategy,2023.2.3,Win32,144.9275362,3,1,13,-0.556481481,0.098148148,1,0,0,1.2773,Gabbro_08,4,08,4,1,1.277,0.462962963,-0.242592593,1,0,0,2.5245,Gabbro_rect,4,2.524,1,12,0,12,0,1,,,,,,,,,,,,,
5cdee86590d2dc0001f86b3a,SCN,2024-06-21_12h57.13.337,LearnStrategy,2023.2.3,Win32,144.9275362,3,1,14,0.052777778,0.252777778,1,0,0,2.2216,Basalt_14,2,14,5,5,2.222,-0.083333333,-0.253703704,1,0,0,1.5899,Basalt_rect,2,1.59,1,13,0,13,0,1,,,,,,,,,,,,,
5cdee86590d2dc0001f86b3a,SCN,2024-06-21_12h57.13.337,LearnStrategy,2023.2.3,Win32,144.9275362,3,1,15,-0.371296296,0.242592593,1,0,0,1.5131,Basalt_10,2,10,5,2,1.513,-0.125925926,-0.249074074,1,0,0,2.0525,Basalt_rect,2,2.053,1,14,0,14,0,1,,,,,,,,,,,,,
5cdee86590d2dc0001f86b3a,SCN,2024-06-21_12h57.13.337,LearnStrategy,2023.2.3,Win32,144.9275362,3,1,16,0.55,0.37962963,1,0,0,0.798,Andesite_02,1,02,6,8,0.798,-0.360185185,-0.238888889,1,0,0,1.58,Andesite_rect,1,1.58,1,15,0,15,0,1,,,,,,,,,,,,,
5cdee86590d2dc0001f86b3a,SCN,2024-06-21_12h57.13.337,LearnStrategy,2023.2.3,Win32,144.9275362,3,2,1,,,,,,,,3,02,,,,,,,,,,,3,2.177,1,,,,,,0.112037037,-0.25,1,0,0,2.1774,Diorite_rect,0,0,0,0,1,
5cdee86590d2dc0001f86b3a,SCN,2024-06-21_12h57.13.337,LearnStrategy,2023.2.3,Win32,144.9275362,3,2,2,,,,,,,,3,12,,,,,,,,,,,3,2.893,1,,,,,,0.094444444,-0.237037037,1,0,0,2.8928,Diorite_rect,1,0,1,0,1,
5cdee86590d2dc0001f86b3a,SCN,2024-06-21_12h57.13.337,LearnStrategy,2023.2.3,Win32,144.9275362,3,2,3,,,,,,,,2,08,,,,,,,,,,,2,1.191,1,,,,,,-0.177777778,-0.262037037,1,0,0,1.1912,Basalt_rect,2,0,2,0,1,
5cdee86590d2dc0001f86b3a,SCN,2024-06-21_12h57.13.337,LearnStrategy,2023.2.3,Win32,144.9275362,3,2,4,,,,,,,,7,12,,,,,,,,,,,3,2.643,0,,,,,,0.101851852,-0.237962963,1,0,0,2.6425,Diorite_rect,3,0,3,0,1,
5cdee86590d2dc0001f86b3a,SCN,2024-06-21_12h57.13.337,LearnStrategy,2023.2.3,Win32,144.9275362,3,2,5,,,,,,,,1,16,,,,,,,,,,,7,4.205,0,,,,,,0.115740741,-0.407407407,1,0,0,4.2054,Peridotite_rect,4,0,4,0,1,
5cdee86590d2dc0001f86b3a,SCN,2024-06-21_12h57.13.337,LearnStrategy,2023.2.3,Win32,144.9275362,3,2,6,,,,,,,,8,08,,,,,,,,,,,8,1.434,1,,,,,,0.364814815,-0.401851852,1,0,0,1.4342,Pumice_rect,5,0,5,0,1,
5cdee86590d2dc0001f86b3a,SCN,2024-06-21_12h57.13.337,LearnStrategy,2023.2.3,Win32,144.9275362,3,2,7,,,,,,,,4,01,,,,,,,,,,,7,4.316,0,,,,,,0.087962963,-0.386111111,1,0,0,4.3163,Peridotite_rect,6,0,6,0,1,
5cdee86590d2dc0001f86b3a,SCN,2024-06-21_12h57.13.337,LearnStrategy,2023.2.3,Win32,144.9275362,3,2,8,,,,,,,,6,15,,,,,,,,,,,6,1.76,1,,,,,,-0.124074074,-0.381481481,1,0,0,1.7605,Pegmatite_rect,7,0,7,0,1,
5cdee86590d2dc0001f86b3a,SCN,2024-06-21_12h57.13.337,LearnStrategy,2023.2.3,Win32,144.9275362,3,2,9,,,,,,,,4,15,,,,,,,,,,,1,4.448,0,,,,,,-0.351851852,-0.231481481,1,0,0,4.4484,Andesite_rect,8,0,8,0,1,
5cdee86590d2dc0001f86b3a,SCN,2024-06-21_12h57.13.337,LearnStrategy,2023.2.3,Win32,144.9275362,3,2,10,,,,,,,,6,11,,,,,,,,,,,5,4.055,0,,,,,,-0.364814815,-0.393518519,1,0,0,4.0551,Obsidian_rect,9,0,9,0,1,
5cdee86590d2dc0001f86b3a,SCN,2024-06-21_12h57.13.337,LearnStrategy,2023.2.3,Win32,144.9275362,3,2,11,,,,,,,,7,14,,,,,,,,,,,6,5.403,0,,,,,,-0.116666667,-0.39537037,1,0,0,5.4026,Pegmatite_rect,10,0,10,0,1,
5cdee86590d2dc0001f86b3a,SCN,2024-06-21_12h57.13.337,LearnStrategy,2023.2.3,Win32,144.9275362,3,2,12,,,,,,,,5,06,,,,,,,,,,,5,0.958,1,,,,,,-0.363888889,-0.406481481,1,0,0,0.9581,Obsidian_rect,11,0,11,0,1,
5cdee86590d2dc0001f86b3a,SCN,2024-06-21_12h57.13.337,LearnStrategy,2023.2.3,Win32,144.9275362,3,2,13,,,,,,,,1,07,,,,,,,,,,,3,1.604,0,,,,,,0.084259259,-0.255555556,1,0,0,1.6037,Diorite_rect,12,0,12,0,1,
5cdee86590d2dc0001f86b3a,SCN,2024-06-21_12h57.13.337,LearnStrategy,2023.2.3,Win32,144.9275362,3,2,14,,,,,,,,5,05,,,,,,,,,,,5,1.117,1,,,,,,-0.369444444,-0.387962963,1,0,0,1.1173,Obsidian_rect,13,0,13,0,1,
5cdee86590d2dc0001f86b3a,SCN,2024-06-21_12h57.13.337,LearnStrategy,2023.2.3,Win32,144.9275362,3,2,15,,,,,,,,8,03,,,,,,,,,,,8,1.205,1,,,,,,0.391666667,-0.392592593,1,0,0,1.2049,Pumice_rect,14,0,14,0,1,
5cdee86590d2dc0001f86b3a,SCN,2024-06-21_12h57.13.337,LearnStrategy,2023.2.3,Win32,144.9275362,3,2,16,,,,,,,,2,02,,,,,,,,,,,2,2.108,1,,,,,,-0.12037037,-0.247222222,1,0,0,2.108,Basalt_rect,15,0,15,0,1,
5cdee86590d2dc0001f86b3a,SCN,2024-06-21_12h57.13.337,LearnStrategy,2023.2.3,Win32,144.9275362,4,1,1,-0.07962963,0.409259259,1,0,0,2.4511,Andesite_06,1,06,6,4,2.451,0.094444444,-0.250925926,1,0,0,1.4853,Diorite_rect,3,1.485,0,0,0,0,0,1,,,,,,,,,,,,,
5cdee86590d2dc0001f86b3a,SCN,2024-06-21_12h57.13.337,LearnStrategy,2023.2.3,Win32,144.9275362,4,1,2,-0.40462963,-0.282407407,1,0,0,4.2844,Andesite_10,1,10,2,2,4.284,-0.388888889,-0.264814815,1,0,0,1.1592,Andesite_rect,1,1.159,1,1,0,1,0,1,,,,,,,,,,,,,
5cdee86590d2dc0001f86b3a,SCN,2024-06-21_12h57.13.337,LearnStrategy,2023.2.3,Win32,144.9275362,4,1,3,-0.237962963,-0.249074074,1,0,0,1.9924,Diorite_13,3,13,2,3,1.992,-0.134259259,-0.387962963,1,0,0,1.2536,Pegmatite_rect,6,1.254,0,2,0,2,0,1,,,,,,,,,,,,,
5cdee86590d2dc0001f86b3a,SCN,2024-06-21_12h57.13.337,LearnStrategy,2023.2.3,Win32,144.9275362,4,1,4,0.07037037,-0.394444444,1,0,0,0.7841,Diorite_11,3,11,1,5,0.784,0.106481481,-0.252777778,1,0,0,1.0105,Diorite_rect,3,1.011,1,3,0,3,0,1,,,,,,,,,,,,,
5cdee86590d2dc0001f86b3a,SCN,2024-06-21_12h57.13.337,LearnStrategy,2023.2.3,Win32,144.9275362,4,1,5,-0.069444444,-0.392592593,1,0,0,0.9785,Andesite_05,1,05,1,4,0.978,-0.375,-0.243518519,1,0,0,0.9412,Andesite_rect,1,0.941,1,4,0,4,0,1,,,,,,,,,,,,,
5cdee86590d2dc0001f86b3a,SCN,2024-06-21_12h57.13.337,LearnStrategy,2023.2.3,Win32,144.9275362,4,1,6,0.356481481,-0.117592593,1,0,0,1.1451,Gabbro_03,4,03,3,7,1.145,0.088888889,-0.241666667,1,0,0,1.6706,Diorite_rect,3,1.671,0,5,0,5,0,1,,,,,,,,,,,,,
5cdee86590d2dc0001f86b3a,SCN,2024-06-21_12h57.13.337,LearnStrategy,2023.2.3,Win32,144.9275362,4,1,7,0.557407407,0.376851852,1,0,0,2.8676,Andesite_02,1,02,6,8,2.868,-0.408333333,-0.263888889,1,0,0,2.0831,Andesite_rect,1,2.083,1,6,0,6,0,1,,,,,,,,,,,,,
5cdee86590d2dc0001f86b3a,SCN,2024-06-21_12h57.13.337,LearnStrategy,2023.2.3,Win32,144.9275362,4,1,8,0.410185185,0.4,1,0,0,0.7351,Pumice_10,8,10,6,7,0.735,0.397222222,-0.412037037,1,0,0,1.6701,Pumice_rect,8,1.67,1,7,0,7,0,1,,,,,,,,,,,,,
5cdee86590d2dc0001f86b3a,SCN,2024-06-21_12h57.13.337,LearnStrategy,2023.2.3,Win32,144.9275362,4,1,9,0.223148148,0.413888889,1,0,0,1.1035,Andesite_14,1,14,6,6,1.104,-0.37962963,-0.260185185,1,0,0,1.3303,Andesite_rect,1,1.33,1,8,0,8,0,1,,,,,,,,,,,,,
5cdee86590d2dc0001f86b3a,SCN,2024-06-21_12h57.13.337,LearnStrategy,2023.2.3,Win32,144.9275362,4,1,10,-0.093518519,0.391666667,1,0,0,1.2771,Andesite_06,1,06,6,4,1.277,0.09537037,-0.248148148,1,0,0,1.4689,Diorite_rect,3,1.469,0,9,0,9,0,1,,,,,,,,,,,,,
5cdee86590d2dc0001f86b3a,SCN,2024-06-21_12h57.13.337,LearnStrategy,2023.2.3,Win32,144.9275362,4,1,11,0.080555556,0.391666667,1,0,0,1.8257,Diorite_14,3,14,6,5,1.826,0.109259259,-0.234259259,1,0,0,0.8994,Diorite_rect,3,0.899,1,10,0,10,0,1,,,,,,,,,,,,,
5cdee86590d2dc0001f86b3a,SCN,2024-06-21_12h57.13.337,LearnStrategy,2023.2.3,Win32,144.9275362,4,1,12,-0.233333333,0.085185185,1,0,0,1.0062,Andesite_04,1,04,4,3,1.006,-0.333333333,-0.237037037,1,0,0,1.4134,Andesite_rect,1,1.413,1,11,0,11,0,1,,,,,,,,,,,,,
5cdee86590d2dc0001f86b3a,SCN,2024-06-21_12h57.13.337,LearnStrategy,2023.2.3,Win32,144.9275362,4,1,13,0.225,-0.269444444,1,0,0,5.076,Pumice_02,8,02,2,6,5.076,0.373148148,-0.387037037,1,0,0,1.5897,Pumice_rect,8,1.59,1,12,0,12,0,1,,,,,,,,,,,,,
5cdee86590d2dc0001f86b3a,SCN,2024-06-21_12h57.13.337,LearnStrategy,2023.2.3,Win32,144.9275362,4,1,14,0.076851852,-0.425925926,1,0,0,1.6382,Diorite_11,3,11,1,5,1.638,0.133333333,-0.260185185,1,0,0,1.4758,Diorite_rect,3,1.476,1,13,0,13,0,1,,,,,,,,,,,,,
5cdee86590d2dc0001f86b3a,SCN,2024-06-21_12h57.13.337,LearnStrategy,2023.2.3,Win32,144.9275362,4,1,15,-0.102777778,-0.400925926,1,0,0,0.8328,Andesite_05,1,05,1,4,0.833,-0.368518519,-0.27037037,1,0,0,0.9134,Andesite_rect,1,0.913,1,14,0,14,0,1,,,,,,,,,,,,,
5cdee86590d2dc0001f86b3a,SCN,2024-06-21_12h57.13.337,LearnStrategy,2023.2.3,Win32,144.9275362,4,1,16,0.065740741,-0.428703704,1,0,0,0.7078,Diorite_11,3,11,1,5,0.708,0.101851852,-0.235185185,1,0,0,1.059,Diorite_rect,3,1.059,1,15,0,15,0,1,,,,,,,,,,,,,
5cdee86590d2dc0001f86b3a,SCN,2024-06-21_12h57.13.337,LearnStrategy,2023.2.3,Win32,144.9275362,4,2,1,,,,,,,,1,03,,,,,,,,,,,1,2.837,1,,,,,,-0.383333333,-0.250925926,1,0,0,2.8368,Andesite_rect,0,0,0,0,1,
5cdee86590d2dc0001f86b3a,SCN,2024-06-21_12h57.13.337,LearnStrategy,2023.2.3,Win32,144.9275362,4,2,2,,,,,,,,1,09,,,,,,,,,,,4,3.83,0,,,,,,0.415740741,-0.240740741,1,0,0,3.8302,Gabbro_rect,1,0,1,0,1,
5cdee86590d2dc0001f86b3a,SCN,2024-06-21_12h57.13.337,LearnStrategy,2023.2.3,Win32,144.9275362,4,2,3,,,,,,,,8,05,,,,,,,,,,,8,1.101,1,,,,,,0.366666667,-0.384259259,1,0,0,1.1009,Pumice_rect,2,0,2,0,1,
5cdee86590d2dc0001f86b3a,SCN,2024-06-21_12h57.13.337,LearnStrategy,2023.2.3,Win32,144.9275362,4,2,4,,,,,,,,5,06,,,,,,,,,,,5,1.046,1,,,,,,-0.387962963,-0.397222222,1,0,0,1.0455,Obsidian_rect,3,0,3,0,1,
5cdee86590d2dc0001f86b3a,SCN,2024-06-21_12h57.13.337,LearnStrategy,2023.2.3,Win32,144.9275362,4,2,5,,,,,,,,6,12,,,,,,,,,,,6,1.372,1,,,,,,-0.137037037,-0.390740741,1,0,0,1.3718,Pegmatite_rect,4,0,4,0,1,
5cdee86590d2dc0001f86b3a,SCN,2024-06-21_12h57.13.337,LearnStrategy,2023.2.3,Win32,144.9275362,4,2,6,,,,,,,,2,16,,,,,,,,,,,4,1.205,0,,,,,,0.40462963,-0.253703704,1,0,0,1.2051,Gabbro_rect,5,0,5,0,1,
5cdee86590d2dc0001f86b3a,SCN,2024-06-21_12h57.13.337,LearnStrategy,2023.2.3,Win32,144.9275362,4,2,7,,,,,,,,3,08,,,,,,,,,,,6,1.775,0,,,,,,-0.127777778,-0.390740741,1,0,0,1.7747,Pegmatite_rect,6,0,6,0,1,
5cdee86590d2dc0001f86b3a,SCN,2024-06-21_12h57.13.337,LearnStrategy,2023.2.3,Win32,144.9275362,4,2,8,,,,,,,,2,06,,,,,,,,,,,2,1.4,1,,,,,,-0.166666667,-0.248148148,1,0,0,1.3996,Basalt_rect,7,0,7,0,1,
5cdee86590d2dc0001f86b3a,SCN,2024-06-21_12h57.13.337,LearnStrategy,2023.2.3,Win32,144.9275362,4,2,9,,,,,,,,4,13,,,,,,,,,,,7,3.761,0,,,,,,0.111111111,-0.39537037,1,0,0,3.761,Peridotite_rect,8,0,8,0,1,
5cdee86590d2dc0001f86b3a,SCN,2024-06-21_12h57.13.337,LearnStrategy,2023.2.3,Win32,144.9275362,4,2,10,,,,,,,,3,12,,,,,,,,,,,7,1.685,0,,,,,,0.097222222,-0.388888889,1,0,0,1.6846,Peridotite_rect,9,0,9,0,1,
5cdee86590d2dc0001f86b3a,SCN,2024-06-21_12h57.13.337,LearnStrategy,2023.2.3,Win32,144.9275362,4,2,11,,,,,,,,4,15,,,,,,,,,,,3,2.358,0,,,,,,0.105555556,-0.267592593,1,0,0,2.3578,Diorite_rect,10,0,10,0,1,
5cdee86590d2dc0001f86b3a,SCN,2024-06-21_12h57.13.337,LearnStrategy,2023.2.3,Win32,144.9275362,4,2,12,,,,,,,,6,05,,,,,,,,,,,6,1.656,1,,,,,,-0.140740741,-0.381481481,1,0,0,1.6563,Pegmatite_rect,11,0,11,0,1,
5cdee86590d2dc0001f86b3a,SCN,2024-06-21_12h57.13.337,LearnStrategy,2023.2.3,Win32,144.9275362,4,2,13,,,,,,,,5,11,,,,,,,,,,,5,1.233,1,,,,,,-0.409259259,-0.383333333,1,0,0,1.233,Obsidian_rect,12,0,12,0,1,
5cdee86590d2dc0001f86b3a,SCN,2024-06-21_12h57.13.337,LearnStrategy,2023.2.3,Win32,144.9275362,4,2,14,,,,,,,,7,13,,,,,,,,,,,2,4.775,0,,,,,,-0.139814815,-0.262962963,1,0,0,4.7748,Basalt_rect,13,0,13,0,1,
5cdee86590d2dc0001f86b3a,SCN,2024-06-21_12h57.13.337,LearnStrategy,2023.2.3,Win32,144.9275362,4,2,15,,,,,,,,8,09,,,,,,,,,,,8,1.004,1,,,,,,0.364814815,-0.394444444,1,0,0,1.0036,Pumice_rect,14,0,14,0,1,
5cdee86590d2dc0001f86b3a,SCN,2024-06-21_12h57.13.337,LearnStrategy,2023.2.3,Win32,144.9275362,4,2,16,,,,,,,,7,12,,,,,,,,,,,6,3.546,0,,,,,,-0.166666667,-0.401851852,1,0,0,3.5456,Pegmatite_rect,15,0,15,0,1,
5cdee86590d2dc0001f86b3a,SCN,2024-06-21_12h57.13.337,LearnStrategy,2023.2.3,Win32,144.9275362,5,1,1,-0.366666667,-0.251851852,1,0,0,3.8129,Andesite_10,1,10,2,2,3.813,-0.368518519,-0.261111111,1,0,0,1.6029,Andesite_rect,1,1.603,1,0,0,0,0,1,,,,,,,,,,,,,
5cdee86590d2dc0001f86b3a,SCN,2024-06-21_12h57.13.337,LearnStrategy,2023.2.3,Win32,144.9275362,5,1,2,-0.234259259,-0.289814815,1,0,0,0.6799,Diorite_13,3,13,2,3,0.68,-0.15462963,-0.382407407,1,0,0,1.0871,Pegmatite_rect,6,1.087,0,1,0,1,0,1,,,,,,,,,,,,,
5cdee86590d2dc0001f86b3a,SCN,2024-06-21_12h57.13.337,LearnStrategy,2023.2.3,Win32,144.9275362,5,1,3,-0.067592593,-0.288888889,1,0,0,0.9438,Peridotite_06,7,06,2,4,0.944,0.113888889,-0.382407407,1,0,0,1.6148,Peridotite_rect,7,1.615,1,2,0,2,0,1,,,,,,,,,,,,,
5cdee86590d2dc0001f86b3a,SCN,2024-06-21_12h57.13.337,LearnStrategy,2023.2.3,Win32,144.9275362,5,1,4,0.412962963,0.240740741,1,0,0,4.2147,Pegmatite_09,6,09,5,7,4.215,0.147222222,-0.384259259,1,0,0,0.9718,Peridotite_rect,7,0.972,0,3,0,3,0,1,,,,,,,,,,,,,
5cdee86590d2dc0001f86b3a,SCN,2024-06-21_12h57.13.337,LearnStrategy,2023.2.3,Win32,144.9275362,5,1,5,0.568518519,0.24537037,1,0,0,0.9023,Pegmatite_06,6,06,5,8,0.902,0.115740741,-0.4,1,0,0,0.9897,Peridotite_rect,7,0.99,0,4,0,4,0,1,,,,,,,,,,,,,
5cdee86590d2dc0001f86b3a,SCN,2024-06-21_12h57.13.337,LearnStrategy,2023.2.3,Win32,144.9275362,5,1,6,-0.087962963,0.214814815,1,0,0,0.8535,Pegmatite_03,6,03,5,4,0.854,0.096296296,-0.398148148,1,0,0,1.1287,Peridotite_rect,7,1.129,0,5,0,5,0,1,,,,,,,,,,,,,
5cdee86590d2dc0001f86b3a,SCN,2024-06-21_12h57.13.337,LearnStrategy,2023.2.3,Win32,144.9275362,5,1,7,-0.044444444,-0.265740741,1,0,0,3.5205,Peridotite_06,7,06,2,4,3.52,0.123148148,-0.391666667,1,0,0,1.0412,Peridotite_rect,7,1.041,1,6,0,6,0,1,,,,,,,,,,,,,
5cdee86590d2dc0001f86b3a,SCN,2024-06-21_12h57.13.337,LearnStrategy,2023.2.3,Win32,144.9275362,5,1,8,-0.258333333,-0.261111111,1,0,0,1.1383,Diorite_13,3,13,2,3,1.138,0.15462963,-0.397222222,1,0,0,0.5592,Peridotite_rect,7,0.559,0,7,0,7,0,1,,,,,,,,,,,,,
5cdee86590d2dc0001f86b3a,SCN,2024-06-21_12h57.13.337,LearnStrategy,2023.2.3,Win32,144.9275362,5,1,9,0.519444444,-0.280555556,1,0,0,1.9439,Peridotite_16,7,16,2,8,1.944,0.143518519,-0.396296296,1,0,0,1.0942,Peridotite_rect,7,1.094,1,8,0,8,0,1,,,,,,,,,,,,,
5cdee86590d2dc0001f86b3a,SCN,2024-06-21_12h57.13.337,LearnStrategy,2023.2.3,Win32,144.9275362,5,1,10,-0.239814815,-0.427777778,1,0,0,3.2358,Basalt_11,2,11,1,3,3.236,0.133333333,-0.391666667,1,0,0,1.2287,Peridotite_rect,7,1.229,0,9,0,9,0,1,,,,,,,,,,,,,
5cdee86590d2dc0001f86b3a,SCN,2024-06-21_12h57.13.337,LearnStrategy,2023.2.3,Win32,144.9275362,5,1,11,-0.228703704,0.119444444,1,0,0,9.9444,Andesite_04,1,04,4,3,9.944,-0.39537037,-0.236111111,1,0,0,1.2073,Andesite_rect,1,1.207,1,10,0,10,0,1,,,,,,,,,,,,,
5cdee86590d2dc0001f86b3a,SCN,2024-06-21_12h57.13.337,LearnStrategy,2023.2.3,Win32,144.9275362,5,1,12,-0.090740741,0.109259259,1,0,0,0.7147,Diorite_07,3,07,4,4,0.715,0.107407407,-0.261111111,1,0,0,1.4967,Diorite_rect,3,1.497,1,11,0,11,0,1,,,,,,,,,,,,,
5cdee86590d2dc0001f86b3a,SCN,2024-06-21_12h57.13.337,LearnStrategy,2023.2.3,Win32,144.9275362,5,1,13,-0.25462963,0.272222222,1,0,0,1.5756,Pegmatite_07,6,07,5,3,1.576,0.107407407,-0.401851852,1,0,0,1.4135,Peridotite_rect,7,1.413,0,12,0,12,0,1,,,,,,,,,,,,,
5cdee86590d2dc0001f86b3a,SCN,2024-06-21_12h57.13.337,LearnStrategy,2023.2.3,Win32,144.9275362,5,1,14,0.242592593,0.412962963,1,0,0,2.7007,Andesite_14,1,14,6,6,2.701,-0.372222222,-0.247222222,1,0,0,1.8508,Andesite_rect,1,1.851,1,13,0,13,0,1,,,,,,,,,,,,,
5cdee86590d2dc0001f86b3a,SCN,2024-06-21_12h57.13.337,LearnStrategy,2023.2.3,Win32,144.9275362,5,1,15,0.080555556,-0.417592593,1,0,0,6.0691,Diorite_11,3,11,1,5,6.069,0.127777778,-0.250925926,1,0,0,1.208,Diorite_rect,3,1.208,1,14,0,14,0,1,,,,,,,,,,,,,
5cdee86590d2dc0001f86b3a,SCN,2024-06-21_12h57.13.337,LearnStrategy,2023.2.3,Win32,144.9275362,5,1,16,0.256481481,-0.389814815,1,0,0,0.5341,Gabbro_05,4,05,1,6,0.534,0.376851852,-0.255555556,1,0,0,2.0315,Gabbro_rect,4,2.031,1,15,0,15,0,1,,,,,,,,,,,,,
5cdee86590d2dc0001f86b3a,SCN,2024-06-21_12h57.13.337,LearnStrategy,2023.2.3,Win32,144.9275362,5,2,1,,,,,,,,4,09,,,,,,,,,,,4,2.052,1,,,,,,0.365740741,-0.242592593,1,0,0,2.0524,Gabbro_rect,0,0,0,0,1,
5cdee86590d2dc0001f86b3a,SCN,2024-06-21_12h57.13.337,LearnStrategy,2023.2.3,Win32,144.9275362,5,2,2,,,,,,,,7,15,,,,,,,,,,,7,4.448,1,,,,,,0.112037037,-0.381481481,1,0,0,4.4485,Peridotite_rect,1,0,1,0,1,
5cdee86590d2dc0001f86b3a,SCN,2024-06-21_12h57.13.337,LearnStrategy,2023.2.3,Win32,144.9275362,5,2,3,,,,,,,,6,10,,,,,,,,,,,6,1.788,1,,,,,,-0.165740741,-0.398148148,1,0,0,1.7885,Pegmatite_rect,2,0,2,0,1,
5cdee86590d2dc0001f86b3a,SCN,2024-06-21_12h57.13.337,LearnStrategy,2023.2.3,Win32,144.9275362,5,2,4,,,,,,,,8,08,,,,,,,,,,,8,1.094,1,,,,,,0.361111111,-0.378703704,1,0,0,1.094,Pumice_rect,3,0,3,0,1,
5cdee86590d2dc0001f86b3a,SCN,2024-06-21_12h57.13.337,LearnStrategy,2023.2.3,Win32,144.9275362,5,2,5,,,,,,,,5,05,,,,,,,,,,,5,1.018,1,,,,,,-0.410185185,-0.411111111,1,0,0,1.0176,Obsidian_rect,4,0,4,0,1,
5cdee86590d2dc0001f86b3a,SCN,2024-06-21_12h57.13.337,LearnStrategy,2023.2.3,Win32,144.9275362,5,2,6,,,,,,,,4,11,,,,,,,,,,,4,9.421,1,,,,,,0.40462963,-0.241666667,1,0,0,9.4207,Gabbro_rect,5,0,5,0,1,
5cdee86590d2dc0001f86b3a,SCN,2024-06-21_12h57.13.337,LearnStrategy,2023.2.3,Win32,144.9275362,5,2,7,,,,,,,,3,06,,,,,,,,,,,6,8.206,0,,,,,,-0.141666667,-0.387037037,1,0,0,8.2056,Pegmatite_rect,6,0,6,0,1,
5cdee86590d2dc0001f86b3a,SCN,2024-06-21_12h57.13.337,LearnStrategy,2023.2.3,Win32,144.9275362,5,2,8,,,,,,,,6,15,,,,,,,,,,,6,2.476,1,,,,,,-0.165740741,-0.409259259,1,0,0,2.4759,Pegmatite_rect,7,0,7,0,1,
5cdee86590d2dc0001f86b3a,SCN,2024-06-21_12h57.13.337,LearnStrategy,2023.2.3,Win32,144.9275362,5,2,9,,,,,,,,2,08,,,,,,,,,,,2,1.066,1,,,,,,-0.159259259,-0.239814815,1,0,0,1.0661,Basalt_rect,8,0,8,0,1,
5cdee86590d2dc0001f86b3a,SCN,2024-06-21_12h57.13.337,LearnStrategy,2023.2.3,Win32,144.9275362,5,2,10,,,,,,,,7,14,,,,,,,,,,,7,3.816,1,,,,,,0.092592593,-0.40462963,1,0,0,3.8163,Peridotite_rect,9,0,9,0,1,
5cdee86590d2dc0001f86b3a,SCN,2024-06-21_12h57.13.337,LearnStrategy,2023.2.3,Win32,144.9275362,5,2,11,,,,,,,,1,11,,,,,,,,,,,1,2.476,1,,,,,,-0.373148148,-0.268518519,1,0,0,2.4759,Andesite_rect,10,0,10,0,1,
5cdee86590d2dc0001f86b3a,SCN,2024-06-21_12h57.13.337,LearnStrategy,2023.2.3,Win32,144.9275362,5,2,12,,,,,,,,8,14,,,,,,,,,,,8,1.865,1,,,,,,0.369444444,-0.399074074,1,0,0,1.8648,Pumice_rect,11,0,11,0,1,
5cdee86590d2dc0001f86b3a,SCN,2024-06-21_12h57.13.337,LearnStrategy,2023.2.3,Win32,144.9275362,5,2,13,,,,,,,,5,04,,,,,,,,,,,5,0.983,1,,,,,,-0.371296296,-0.403703704,1,0,0,0.9828,Obsidian_rect,12,0,12,0,1,
5cdee86590d2dc0001f86b3a,SCN,2024-06-21_12h57.13.337,LearnStrategy,2023.2.3,Win32,144.9275362,5,2,14,,,,,,,,2,12,,,,,,,,,,,2,6.573,1,,,,,,-0.137962963,-0.232407407,1,0,0,6.5733,Basalt_rect,13,0,13,0,1,
5cdee86590d2dc0001f86b3a,SCN,2024-06-21_12h57.13.337,LearnStrategy,2023.2.3,Win32,144.9275362,5,2,15,,,,,,,,3,02,,,,,,,,,,,3,2.025,1,,,,,,0.12037037,-0.248148148,1,0,0,2.0246,Diorite_rect,14,0,14,0,1,
5cdee86590d2dc0001f86b3a,SCN,2024-06-21_12h57.13.337,LearnStrategy,2023.2.3,Win32,144.9275362,5,2,16,,,,,,,,1,07,,,,,,,,,,,1,4.469,1,,,,,,-0.391666667,-0.237037037,1,0,0,4.4692,Andesite_rect,15,0,15,0,1,
5cdee86590d2dc0001f86b3a,SCN,2024-06-21_12h57.13.337,LearnStrategy,2023.2.3,Win32,144.9275362,6,1,1,-0.548148148,0.410185185,1,0,0,1.5689,Peridotite_08,7,08,6,1,1.569,0.107407407,-0.382407407,1,0,0,1.6839,Peridotite_rect,7,1.684,1,0,0,0,0,1,,,,,,,,,,,,,
5cdee86590d2dc0001f86b3a,SCN,2024-06-21_12h57.13.337,LearnStrategy,2023.2.3,Win32,144.9275362,6,1,2,-0.393518519,0.416666667,1,0,0,1.0896,Gabbro_10,4,10,6,2,1.09,0.491666667,-0.233333333,1,0,0,1.8648,Gabbro_rect,4,1.865,1,1,0,1,0,1,,,,,,,,,,,,,
5cdee86590d2dc0001f86b3a,SCN,2024-06-21_12h57.13.337,LearnStrategy,2023.2.3,Win32,144.9275362,6,1,3,-0.237962963,0.419444444,1,0,0,0.5549,Gabbro_14,4,14,6,3,0.555,0.409259259,-0.264814815,1,0,0,2.0386,Gabbro_rect,4,2.039,1,2,0,2,0,1,,,,,,,,,,,,,
5cdee86590d2dc0001f86b3a,SCN,2024-06-21_12h57.13.337,LearnStrategy,2023.2.3,Win32,144.9275362,6,1,4,-0.07037037,0.432407407,1,0,0,0.541,Andesite_06,1,06,6,4,0.541,-0.455555556,-0.251851852,1,0,0,0.8649,Andesite_rect,1,0.865,1,3,0,3,0,1,,,,,,,,,,,,,
5cdee86590d2dc0001f86b3a,SCN,2024-06-21_12h57.13.337,LearnStrategy,2023.2.3,Win32,144.9275362,6,1,5,0.065740741,0.411111111,1,0,0,1.2841,Diorite_14,3,14,6,5,1.284,0.109259259,-0.238888889,1,0,0,0.8996,Diorite_rect,3,0.9,1,4,0,4,0,1,,,,,,,,,,,,,
5cdee86590d2dc0001f86b3a,SCN,2024-06-21_12h57.13.337,LearnStrategy,2023.2.3,Win32,144.9275362,6,1,6,0.263888889,0.398148148,1,0,0,0.7354,Andesite_14,1,14,6,6,0.735,-0.350925926,-0.257407407,1,0,0,1.3233,Andesite_rect,1,1.323,1,5,0,5,0,1,,,,,,,,,,,,,
5cdee86590d2dc0001f86b3a,SCN,2024-06-21_12h57.13.337,LearnStrategy,2023.2.3,Win32,144.9275362,6,1,7,0.417592593,0.394444444,1,0,0,0.5897,Pumice_10,8,10,6,7,0.59,0.385185185,-0.400925926,1,0,0,0.8648,Pumice_rect,8,0.865,1,6,0,6,0,1,,,,,,,,,,,,,
5cdee86590d2dc0001f86b3a,SCN,2024-06-21_12h57.13.337,LearnStrategy,2023.2.3,Win32,144.9275362,6,1,8,0.573148148,0.409259259,1,0,0,0.5412,Andesite_02,1,02,6,8,0.541,-0.292592593,-0.238888889,1,0,0,1.157,Andesite_rect,1,1.157,1,7,0,7,0,1,,,,,,,,,,,,,
5cdee86590d2dc0001f86b3a,SCN,2024-06-21_12h57.13.337,LearnStrategy,2023.2.3,Win32,144.9275362,6,1,9,-0.584259259,0.284259259,1,0,0,0.555,Peridotite_05,7,05,5,1,0.555,0.208333333,-0.399074074,1,0,0,1.7259,Peridotite_rect,7,1.726,1,8,0,8,0,1,,,,,,,,,,,,,
5cdee86590d2dc0001f86b3a,SCN,2024-06-21_12h57.13.337,LearnStrategy,2023.2.3,Win32,144.9275362,6,1,10,-0.375925926,0.250925926,1,0,0,0.8118,Basalt_10,2,10,5,2,0.812,-0.148148148,-0.242592593,1,0,0,1.6982,Basalt_rect,2,1.698,1,9,0,9,0,1,,,,,,,,,,,,,
5cdee86590d2dc0001f86b3a,SCN,2024-06-21_12h57.13.337,LearnStrategy,2023.2.3,Win32,144.9275362,6,1,11,-0.256481481,0.269444444,1,0,0,0.659,Pegmatite_07,6,07,5,3,0.659,0.130555556,-0.396296296,1,0,0,1.2745,Peridotite_rect,7,1.274,0,10,0,10,0,1,,,,,,,,,,,,,
5cdee86590d2dc0001f86b3a,SCN,2024-06-21_12h57.13.337,LearnStrategy,2023.2.3,Win32,144.9275362,6,1,12,-0.050925926,0.257407407,1,0,0,0.6313,Pegmatite_03,6,03,5,4,0.631,0.123148148,-0.403703704,1,0,0,1.0455,Peridotite_rect,7,1.046,0,11,0,11,0,1,,,,,,,,,,,,,
5cdee86590d2dc0001f86b3a,SCN,2024-06-21_12h57.13.337,LearnStrategy,2023.2.3,Win32,144.9275362,6,1,13,0.09537037,0.260185185,1,0,0,0.7981,Basalt_14,2,14,5,5,0.798,-0.087962963,-0.262037037,1,0,0,1.2882,Basalt_rect,2,1.288,1,12,0,12,0,1,,,,,,,,,,,,,
5cdee86590d2dc0001f86b3a,SCN,2024-06-21_12h57.13.337,LearnStrategy,2023.2.3,Win32,144.9275362,6,1,14,0.261111111,0.274074074,1,0,0,0.6938,Peridotite_02,7,02,5,6,0.694,0.128703704,-0.381481481,1,0,0,1.5247,Peridotite_rect,7,1.525,1,13,0,13,0,1,,,,,,,,,,,,,
5cdee86590d2dc0001f86b3a,SCN,2024-06-21_12h57.13.337,LearnStrategy,2023.2.3,Win32,144.9275362,6,1,15,0.393518519,0.272222222,1,0,0,0.5481,Pegmatite_09,6,09,5,7,0.548,-0.118518519,-0.403703704,1,0,0,1.441,Pegmatite_rect,6,1.441,1,14,0,14,0,1,,,,,,,,,,,,,
5cdee86590d2dc0001f86b3a,SCN,2024-06-21_12h57.13.337,LearnStrategy,2023.2.3,Win32,144.9275362,6,1,16,0.527777778,0.264814815,1,0,0,0.7008,Pegmatite_06,6,06,5,8,0.701,-0.113888889,-0.40462963,1,0,0,1.6563,Pegmatite_rect,6,1.656,1,15,0,15,0,1,,,,,,,,,,,,,
5cdee86590d2dc0001f86b3a,SCN,2024-06-21_12h57.13.337,LearnStrategy,2023.2.3,Win32,144.9275362,6,2,1,,,,,,,,5,09,,,,,,,,,,,5,1.018,1,,,,,,-0.381481481,-0.389814815,1,0,0,1.0175,Obsidian_rect,0,0,0,0,1,
5cdee86590d2dc0001f86b3a,SCN,2024-06-21_12h57.13.337,LearnStrategy,2023.2.3,Win32,144.9275362,6,2,2,,,,,,,,2,02,,,,,,,,,,,2,1.4,1,,,,,,-0.116666667,-0.258333333,1,0,0,1.3997,Basalt_rect,1,0,1,0,1,
5cdee86590d2dc0001f86b3a,SCN,2024-06-21_12h57.13.337,LearnStrategy,2023.2.3,Win32,144.9275362,6,2,3,,,,,,,,2,01,,,,,,,,,,,2,1.268,1,,,,,,-0.157407407,-0.268518519,1,0,0,1.2676,Basalt_rect,2,0,2,0,1,
5cdee86590d2dc0001f86b3a,SCN,2024-06-21_12h57.13.337,LearnStrategy,2023.2.3,Win32,144.9275362,6,2,4,,,,,,,,6,11,,,,,,,,,,,6,3.15,1,,,,,,-0.15,-0.396296296,1,0,0,3.1499,Pegmatite_rect,3,0,3,0,1,
5cdee86590d2dc0001f86b3a,SCN,2024-06-21_12h57.13.337,LearnStrategy,2023.2.3,Win32,144.9275362,6,2,5,,,,,,,,3,16,,,,,,,,,,,3,2.004,1,,,,,,0.107407407,-0.242592593,1,0,0,2.0039,Diorite_rect,4,0,4,0,1,
5cdee86590d2dc0001f86b3a,SCN,2024-06-21_12h57.13.337,LearnStrategy,2023.2.3,Win32,144.9275362,6,2,6,,,,,,,,1,01,,,,,,,,,,,4,5.692,0,,,,,,0.353703704,-0.235185185,1,0,0,5.6915,Gabbro_rect,5,0,5,0,1,
5cdee86590d2dc0001f86b3a,SCN,2024-06-21_12h57.13.337,LearnStrategy,2023.2.3,Win32,144.9275362,6,2,7,,,,,,,,4,12,,,,,,,,,,,4,1.823,1,,,,,,0.40462963,-0.244444444,1,0,0,1.823,Gabbro_rect,6,0,6,0,1,
5cdee86590d2dc0001f86b3a,SCN,2024-06-21_12h57.13.337,LearnStrategy,2023.2.3,Win32,144.9275362,6,2,8,,,,,,,,6,13,,,,,,,,,,,6,5.323,1,,,,,,-0.171296296,-0.411111111,1,0,0,5.3233,Pegmatite_rect,7,0,7,0,1,
5cdee86590d2dc0001f86b3a,SCN,2024-06-21_12h57.13.337,LearnStrategy,2023.2.3,Win32,144.9275362,6,2,9,,,,,,,,5,12,,,,,,,,,,,5,1.726,1,,,,,,-0.355555556,-0.405555556,1,0,0,1.7259,Obsidian_rect,8,0,8,0,1,
5cdee86590d2dc0001f86b3a,SCN,2024-06-21_12h57.13.337,LearnStrategy,2023.2.3,Win32,144.9275362,6,2,10,,,,,,,,8,03,,,,,,,,,,,8,1.032,1,,,,,,0.403703704,-0.408333333,1,0,0,1.0321,Pumice_rect,9,0,9,0,1,
5cdee86590d2dc0001f86b3a,SCN,2024-06-21_12h57.13.337,LearnStrategy,2023.2.3,Win32,144.9275362,6,2,11,,,,,,,,4,01,,,,,,,,,,,3,1.448,0,,,,,,0.121296296,-0.244444444,1,0,0,1.4481,Diorite_rect,10,0,10,0,1,
5cdee86590d2dc0001f86b3a,SCN,2024-06-21_12h57.13.337,LearnStrategy,2023.2.3,Win32,144.9275362,6,2,12,,,,,,,,3,09,,,,,,,,,,,3,1.722,1,,,,,,0.117592593,-0.252777778,1,0,0,1.7219,Diorite_rect,11,0,11,0,1,
5cdee86590d2dc0001f86b3a,SCN,2024-06-21_12h57.13.337,LearnStrategy,2023.2.3,Win32,144.9275362,6,2,13,,,,,,,,8,16,,,,,,,,,,,8,1.076,1,,,,,,0.376851852,-0.397222222,1,0,0,1.0759,Pumice_rect,12,0,12,0,1,
5cdee86590d2dc0001f86b3a,SCN,2024-06-21_12h57.13.337,LearnStrategy,2023.2.3,Win32,144.9275362,6,2,14,,,,,,,,7,07,,,,,,,,,,,7,1.235,1,,,,,,0.128703704,-0.403703704,1,0,0,1.2353,Peridotite_rect,13,0,13,0,1,
5cdee86590d2dc0001f86b3a,SCN,2024-06-21_12h57.13.337,LearnStrategy,2023.2.3,Win32,144.9275362,6,2,15,,,,,,,,7,04,,,,,,,,,,,1,2.013,0,,,,,,-0.433333333,-0.259259259,1,0,0,2.0131,Andesite_rect,14,0,14,0,1,
5cdee86590d2dc0001f86b3a,SCN,2024-06-21_12h57.13.337,LearnStrategy,2023.2.3,Win32,144.9275362,6,2,16,,,,,,,,1,16,,,,,,,,,,,1,2.083,1,,,,,,-0.372222222,-0.251851852,1,0,0,2.0826,Andesite_rect,15,0,15,0,1,
5cdee86590d2dc0001f86b3a,SCN,2024-06-21_12h57.13.337,LearnStrategy,2023.2.3,Win32,144.9275362,7,1,1,-0.575,0.109259259,1,0,0,3.7456,Gabbro_08,4,08,4,1,3.746,0.407407407,-0.247222222,1,0,0,1.5551,Gabbro_rect,4,1.555,1,0,0,0,0,1,,,,,,,,,,,,,
5cdee86590d2dc0001f86b3a,SCN,2024-06-21_12h57.13.337,LearnStrategy,2023.2.3,Win32,144.9275362,7,1,2,-0.425925926,0.109259259,1,0,0,0.6173,Diorite_15,3,15,4,2,0.617,0.10462963,-0.228703704,1,0,0,1.0659,Diorite_rect,3,1.066,1,1,0,1,0,1,,,,,,,,,,,,,
5cdee86590d2dc0001f86b3a,SCN,2024-06-21_12h57.13.337,LearnStrategy,2023.2.3,Win32,144.9275362,7,1,3,-0.224074074,0.107407407,1,0,0,0.937,Andesite_04,1,04,4,3,0.937,-0.365740741,-0.253703704,1,0,0,0.9781,Andesite_rect,1,0.978,1,2,0,2,0,1,,,,,,,,,,,,,
5cdee86590d2dc0001f86b3a,SCN,2024-06-21_12h57.13.337,LearnStrategy,2023.2.3,Win32,144.9275362,7,1,4,-0.412037037,-0.081481481,1,0,0,1.7979,Pegmatite_08,6,08,3,2,1.798,-0.157407407,-0.391666667,1,0,0,1.0939,Pegmatite_rect,6,1.094,1,3,0,3,0,1,,,,,,,,,,,,,
5cdee86590d2dc0001f86b3a,SCN,2024-06-21_12h57.13.337,LearnStrategy,2023.2.3,Win32,144.9275362,7,1,5,-0.217592593,-0.274074074,1,0,0,0.8605,Diorite_13,3,13,2,3,0.861,0.072222222,-0.263888889,1,0,0,1.2813,Diorite_rect,3,1.281,1,4,0,4,0,1,,,,,,,,,,,,,
5cdee86590d2dc0001f86b3a,SCN,2024-06-21_12h57.13.337,LearnStrategy,2023.2.3,Win32,144.9275362,7,1,6,-0.374074074,-0.283333333,1,0,0,0.6174,Andesite_10,1,10,2,2,0.617,-0.375925926,-0.262037037,1,0,0,1.6356,Andesite_rect,1,1.636,1,5,0,5,0,1,,,,,,,,,,,,,
5cdee86590d2dc0001f86b3a,SCN,2024-06-21_12h57.13.337,LearnStrategy,2023.2.3,Win32,144.9275362,7,1,7,0.52962963,-0.263888889,1,0,0,2.0967,Peridotite_16,7,16,2,8,2.097,0.15,-0.407407407,1,0,0,1.9689,Peridotite_rect,7,1.969,1,6,0,6,0,1,,,,,,,,,,,,,
5cdee86590d2dc0001f86b3a,SCN,2024-06-21_12h57.13.337,LearnStrategy,2023.2.3,Win32,144.9275362,7,1,8,-0.027777778,-0.405555556,1,0,0,0.8953,Andesite_05,1,05,1,4,0.895,-0.332407407,-0.268518519,1,0,0,1.4897,Andesite_rect,1,1.49,1,7,0,7,0,1,,,,,,,,,,,,,
5cdee86590d2dc0001f86b3a,SCN,2024-06-21_12h57.13.337,LearnStrategy,2023.2.3,Win32,144.9275362,7,1,9,0.052777778,-0.388888889,1,0,0,0.6521,Diorite_11,3,11,1,5,0.652,0.115740741,-0.257407407,1,0,0,1.0245,Diorite_rect,3,1.024,1,8,0,8,0,1,,,,,,,,,,,,,
5cdee86590d2dc0001f86b3a,SCN,2024-06-21_12h57.13.337,LearnStrategy,2023.2.3,Win32,144.9275362,7,1,10,0.228703704,-0.387037037,1,0,0,0.7841,Gabbro_05,4,05,1,6,0.784,0.365740741,-0.231481481,1,0,0,1.4412,Gabbro_rect,4,1.441,1,9,0,9,0,1,,,,,,,,,,,,,
5cdee86590d2dc0001f86b3a,SCN,2024-06-21_12h57.13.337,LearnStrategy,2023.2.3,Win32,144.9275362,7,1,11,0.403703704,-0.390740741,1,0,0,0.6312,Gabbro_16,4,16,1,7,0.631,0.389814815,-0.22962963,1,0,0,2.0316,Gabbro_rect,4,2.032,1,10,0,10,0,1,,,,,,,,,,,,,
5cdee86590d2dc0001f86b3a,SCN,2024-06-21_12h57.13.337,LearnStrategy,2023.2.3,Win32,144.9275362,7,1,12,0.544444444,-0.392592593,1,0,0,0.6175,Basalt_09,2,09,1,8,0.617,-0.1,-0.236111111,1,0,0,0.8577,Basalt_rect,2,0.858,1,11,0,11,0,1,,,,,,,,,,,,,
5cdee86590d2dc0001f86b3a,SCN,2024-06-21_12h57.13.337,LearnStrategy,2023.2.3,Win32,144.9275362,7,1,13,-0.282407407,-0.414814815,1,0,0,1.3744,Basalt_11,2,11,1,3,1.374,0.368518519,-0.253703704,1,0,0,1.2884,Gabbro_rect,4,1.288,0,12,0,12,0,1,,,,,,,,,,,,,
5cdee86590d2dc0001f86b3a,SCN,2024-06-21_12h57.13.337,LearnStrategy,2023.2.3,Win32,144.9275362,7,1,14,0.52962963,-0.108333333,1,0,0,2.0896,Basalt_04,2,04,3,8,2.09,-0.197222222,-0.242592593,1,0,0,0.7673,Basalt_rect,2,0.767,1,13,0,13,0,1,,,,,,,,,,,,,
5cdee86590d2dc0001f86b3a,SCN,2024-06-21_12h57.13.337,LearnStrategy,2023.2.3,Win32,144.9275362,7,1,15,0.366666667,-0.05,1,0,0,0.5826,Gabbro_03,4,03,3,7,0.583,0.1,-0.262962963,1,0,0,2.0733,Diorite_rect,3,2.073,0,14,0,14,0,1,,,,,,,,,,,,,
5cdee86590d2dc0001f86b3a,SCN,2024-06-21_12h57.13.337,LearnStrategy,2023.2.3,Win32,144.9275362,7,1,16,0.190740741,-0.102777778,1,0,0,0.7494,Peridotite_10,7,10,3,6,0.749,0.116666667,-0.397222222,1,0,0,2.219,Peridotite_rect,7,2.219,1,15,0,15,0,1,,,,,,,,,,,,,
5cdee86590d2dc0001f86b3a,SCN,2024-06-21_12h57.13.337,LearnStrategy,2023.2.3,Win32,144.9275362,7,2,1,,,,,,,,4,15,,,,,,,,,,,3,4.58,0,,,,,,0.102777778,-0.237037037,1,0,0,4.5803,Diorite_rect,0,0,0,0,1,
5cdee86590d2dc0001f86b3a,SCN,2024-06-21_12h57.13.337,LearnStrategy,2023.2.3,Win32,144.9275362,7,2,2,,,,,,,,7,13,,,,,,,,,,,7,1.504,1,,,,,,0.089814815,-0.40462963,1,0,0,1.5037,Peridotite_rect,1,0,1,0,1,
5cdee86590d2dc0001f86b3a,SCN,2024-06-21_12h57.13.337,LearnStrategy,2023.2.3,Win32,144.9275362,7,2,3,,,,,,,,2,06,,,,,,,,,,,2,1.156,1,,,,,,-0.111111111,-0.24537037,1,0,0,1.1564,Basalt_rect,2,0,2,0,1,
5cdee86590d2dc0001f86b3a,SCN,2024-06-21_12h57.13.337,LearnStrategy,2023.2.3,Win32,144.9275362,7,2,4,,,,,,,,6,12,,,,,,,,,,,6,1.622,1,,,,,,-0.15,-0.397222222,1,0,0,1.6218,Pegmatite_rect,3,0,3,0,1,
5cdee86590d2dc0001f86b3a,SCN,2024-06-21_12h57.13.337,LearnStrategy,2023.2.3,Win32,144.9275362,7,2,5,,,,,,,,3,08,,,,,,,,,,,3,1.004,1,,,,,,0.09537037,-0.256481481,1,0,0,1.0036,Diorite_rect,4,0,4,0,1,
5cdee86590d2dc0001f86b3a,SCN,2024-06-21_12h57.13.337,LearnStrategy,2023.2.3,Win32,144.9275362,7,2,6,,,,,,,,1,07,,,,,,,,,,,1,0.997,1,,,,,,-0.4,-0.22962963,1,0,0,0.9966,Andesite_rect,5,0,5,0,1,
5cdee86590d2dc0001f86b3a,SCN,2024-06-21_12h57.13.337,LearnStrategy,2023.2.3,Win32,144.9275362,7,2,7,,,,,,,,5,06,,,,,,,,,,,5,0.976,1,,,,,,-0.400925926,-0.412037037,1,0,0,0.9759,Obsidian_rect,6,0,6,0,1,
5cdee86590d2dc0001f86b3a,SCN,2024-06-21_12h57.13.337,LearnStrategy,2023.2.3,Win32,144.9275362,7,2,8,,,,,,,,4,11,,,,,,,,,,,2,3.191,0,,,,,,-0.159259259,-0.241666667,1,0,0,3.1913,Basalt_rect,7,0,7,0,1,
5cdee86590d2dc0001f86b3a,SCN,2024-06-21_12h57.13.337,LearnStrategy,2023.2.3,Win32,144.9275362,7,2,9,,,,,,,,2,08,,,,,,,,,,,2,0.809,1,,,,,,-0.153703704,-0.240740741,1,0,0,0.8092,Basalt_rect,8,0,8,0,1,
5cdee86590d2dc0001f86b3a,SCN,2024-06-21_12h57.13.337,LearnStrategy,2023.2.3,Win32,144.9275362,7,2,10,,,,,,,,3,06,,,,,,,,,,,3,1.337,1,,,,,,0.103703704,-0.25,1,0,0,1.3374,Diorite_rect,9,0,9,0,1,
5cdee86590d2dc0001f86b3a,SCN,2024-06-21_12h57.13.337,LearnStrategy,2023.2.3,Win32,144.9275362,7,2,11,,,,,,,,8,14,,,,,,,,,,,8,0.997,1,,,,,,0.387037037,-0.390740741,1,0,0,0.9968,Pumice_rect,10,0,10,0,1,
5cdee86590d2dc0001f86b3a,SCN,2024-06-21_12h57.13.337,LearnStrategy,2023.2.3,Win32,144.9275362,7,2,12,,,,,,,,1,09,,,,,,,,,,,1,1.136,1,,,,,,-0.32962963,-0.247222222,1,0,0,1.1358,Andesite_rect,11,0,11,0,1,
5cdee86590d2dc0001f86b3a,SCN,2024-06-21_12h57.13.337,LearnStrategy,2023.2.3,Win32,144.9275362,7,2,13,,,,,,,,5,12,,,,,,,,,,,5,1.212,1,,,,,,-0.383333333,-0.389814815,1,0,0,1.2121,Obsidian_rect,12,0,12,0,1,
5cdee86590d2dc0001f86b3a,SCN,2024-06-21_12h57.13.337,LearnStrategy,2023.2.3,Win32,144.9275362,7,2,14,,,,,,,,7,07,,,,,,,,,,,7,1.504,1,,,,,,0.115740741,-0.403703704,1,0,0,1.5038,Peridotite_rect,13,0,13,0,1,
5cdee86590d2dc0001f86b3a,SCN,2024-06-21_12h57.13.337,LearnStrategy,2023.2.3,Win32,144.9275362,7,2,15,,,,,,,,6,11,,,,,,,,,,,6,1.15,1,,,,,,-0.146296296,-0.386111111,1,0,0,1.1496,Pegmatite_rect,14,0,14,0,1,
5cdee86590d2dc0001f86b3a,SCN,2024-06-21_12h57.13.337,LearnStrategy,2023.2.3,Win32,144.9275362,7,2,16,,,,,,,,8,03,,,,,,,,,,,8,0.941,1,,,,,,0.375925926,-0.391666667,1,0,0,0.9412,Pumice_rect,15,0,15,0,1,
5cdee86590d2dc0001f86b3a,SCN,2024-06-21_12h57.13.337,LearnStrategy,2023.2.3,Win32,144.9275362,8,1,1,-0.092592593,0.099074074,1,0,0,1.6869,Diorite_07,3,07,4,4,1.687,0.119444444,-0.25462963,1,0,0,0.8091,Diorite_rect,3,0.809,1,0,0,0,0,1,,,,,,,,,,,,,
5cdee86590d2dc0001f86b3a,SCN,2024-06-21_12h57.13.337,LearnStrategy,2023.2.3,Win32,144.9275362,8,1,2,-0.25,0.1,1,0,0,0.6662,Andesite_04,1,04,4,3,0.666,-0.382407407,-0.246296296,1,0,0,0.6703,Andesite_rect,1,0.67,1,1,0,1,0,1,,,,,,,,,,,,,
5cdee86590d2dc0001f86b3a,SCN,2024-06-21_12h57.13.337,LearnStrategy,2023.2.3,Win32,144.9275362,8,1,3,0.082407407,0.07962963,1,0,0,0.6594,Pumice_15,8,15,4,5,0.659,0.37962963,-0.393518519,1,0,0,0.6841,Pumice_rect,8,0.684,1,2,0,2,0,1,,,,,,,,,,,,,
5cdee86590d2dc0001f86b3a,SCN,2024-06-21_12h57.13.337,LearnStrategy,2023.2.3,Win32,144.9275362,8,1,4,-0.580555556,0.112037037,1,0,0,3.4995,Gabbro_08,4,08,4,1,3.5,0.399074074,-0.228703704,1,0,0,0.9202,Gabbro_rect,4,0.92,1,3,0,3,0,1,,,,,,,,,,,,,
5cdee86590d2dc0001f86b3a,SCN,2024-06-21_12h57.13.337,LearnStrategy,2023.2.3,Win32,144.9275362,8,1,5,0.52962963,0.256481481,1,0,0,1.7286,Pegmatite_06,6,06,5,8,1.729,-0.158333333,-0.409259259,1,0,0,1.2466,Pegmatite_rect,6,1.247,1,4,0,4,0,1,,,,,,,,,,,,,
5cdee86590d2dc0001f86b3a,SCN,2024-06-21_12h57.13.337,LearnStrategy,2023.2.3,Win32,144.9275362,8,1,6,-0.066666667,-0.418518519,1,0,0,3.6593,Andesite_05,1,05,1,4,3.659,-0.353703704,-0.246296296,1,0,0,0.5065,Andesite_rect,1,0.506,1,5,0,5,0,1,,,,,,,,,,,,,
5cdee86590d2dc0001f86b3a,SCN,2024-06-21_12h57.13.337,LearnStrategy,2023.2.3,Win32,144.9275362,8,1,7,0.032407407,-0.389814815,1,0,0,0.4788,Diorite_11,3,11,1,5,0.479,0.10462963,-0.265740741,1,0,0,0.6844,Diorite_rect,3,0.684,1,6,0,6,0,1,,,,,,,,,,,,,
5cdee86590d2dc0001f86b3a,SCN,2024-06-21_12h57.13.337,LearnStrategy,2023.2.3,Win32,144.9275362,8,1,8,0.24537037,-0.402777778,1,0,0,0.7079,Gabbro_05,4,05,1,6,0.708,0.371296296,-0.242592593,1,0,0,1.5463,Gabbro_rect,4,1.546,1,7,0,7,0,1,,,,,,,,,,,,,
5cdee86590d2dc0001f86b3a,SCN,2024-06-21_12h57.13.337,LearnStrategy,2023.2.3,Win32,144.9275362,8,1,9,0.396296296,-0.388888889,1,0,0,0.805,Gabbro_16,4,16,1,7,0.805,0.388888889,-0.228703704,1,0,0,0.6565,Gabbro_rect,4,0.656,1,8,0,8,0,1,,,,,,,,,,,,,
5cdee86590d2dc0001f86b3a,SCN,2024-06-21_12h57.13.337,LearnStrategy,2023.2.3,Win32,144.9275362,8,1,10,0.507407407,-0.385185185,1,0,0,0.7843,Basalt_09,2,09,1,8,0.784,0.376851852,-0.241666667,1,0,0,0.6635,Gabbro_rect,4,0.663,0,9,0,9,0,1,,,,,,,,,,,,,
5cdee86590d2dc0001f86b3a,SCN,2024-06-21_12h57.13.337,LearnStrategy,2023.2.3,Win32,144.9275362,8,1,11,0.42037037,-0.235185185,1,0,0,1.5691,Pegmatite_16,6,16,2,7,1.569,-0.106481481,-0.399074074,1,0,0,1.0106,Pegmatite_rect,6,1.011,1,10,0,10,0,1,,,,,,,,,,,,,
5cdee86590d2dc0001f86b3a,SCN,2024-06-21_12h57.13.337,LearnStrategy,2023.2.3,Win32,144.9275362,8,1,12,-0.221296296,0.243518519,1,0,0,3.6592,Pegmatite_07,6,07,5,3,3.659,-0.159259259,-0.387037037,1,0,0,0.7217,Pegmatite_rect,6,0.722,1,11,0,11,0,1,,,,,,,,,,,,,
5cdee86590d2dc0001f86b3a,SCN,2024-06-21_12h57.13.337,LearnStrategy,2023.2.3,Win32,144.9275362,8,1,13,-0.083333333,0.231481481,1,0,0,0.7078,Pegmatite_03,6,03,5,4,0.708,-0.136111111,-0.411111111,1,0,0,0.8025,Pegmatite_rect,6,0.803,1,12,0,12,0,1,,,,,,,,,,,,,
5cdee86590d2dc0001f86b3a,SCN,2024-06-21_12h57.13.337,LearnStrategy,2023.2.3,Win32,144.9275362,8,1,14,-0.257407407,0.233333333,1,0,0,0.6174,Pegmatite_07,6,07,5,3,0.617,-0.138888889,-0.394444444,1,0,0,0.6705,Pegmatite_rect,6,0.671,1,13,0,13,0,1,,,,,,,,,,,,,
5cdee86590d2dc0001f86b3a,SCN,2024-06-21_12h57.13.337,LearnStrategy,2023.2.3,Win32,144.9275362,8,1,15,0.247222222,0.252777778,1,0,0,1.8884,Peridotite_02,7,02,5,6,1.888,0.09537037,-0.402777778,1,0,0,0.7815,Peridotite_rect,7,0.781,1,14,0,14,0,1,,,,,,,,,,,,,
5cdee86590d2dc0001f86b3a,SCN,2024-06-21_12h57.13.337,LearnStrategy,2023.2.3,Win32,144.9275362,8,1,16,0.37962963,0.226851852,1,0,0,1.1525,Pegmatite_09,6,09,5,7,1.152,-0.130555556,-0.416666667,1,0,0,1.4617,Pegmatite_rect,6,1.462,1,15,0,15,0,1,,,,,,,,,,,,,
5cdee86590d2dc0001f86b3a,SCN,2024-06-21_12h57.13.337,LearnStrategy,2023.2.3,Win32,144.9275362,8,2,1,,,,,,,,4,09,,,,,,,,,,,4,3.935,1,,,,,,0.375925926,-0.237962963,1,0,0,3.9345,Gabbro_rect,0,0,0,0,1,
5cdee86590d2dc0001f86b3a,SCN,2024-06-21_12h57.13.337,LearnStrategy,2023.2.3,Win32,144.9275362,8,2,2,,,,,,,,1,16,,,,,,,,,,,1,3.191,1,,,,,,-0.423148148,-0.241666667,1,0,0,3.1913,Andesite_rect,1,0,1,0,1,
5cdee86590d2dc0001f86b3a,SCN,2024-06-21_12h57.13.337,LearnStrategy,2023.2.3,Win32,144.9275362,8,2,3,,,,,,,,5,05,,,,,,,,,,,5,1.011,1,,,,,,-0.385185185,-0.409259259,1,0,0,1.0107,Obsidian_rect,2,0,2,0,1,
5cdee86590d2dc0001f86b3a,SCN,2024-06-21_12h57.13.337,LearnStrategy,2023.2.3,Win32,144.9275362,8,2,4,,,,,,,,7,15,,,,,,,,,,,7,0.969,1,,,,,,0.091666667,-0.406481481,1,0,0,0.9691,Peridotite_rect,3,0,3,0,1,
5cdee86590d2dc0001f86b3a,SCN,2024-06-21_12h57.13.337,LearnStrategy,2023.2.3,Win32,144.9275362,8,2,5,,,,,,,,4,01,,,,,,,,,,,3,2.622,0,,,,,,0.108333333,-0.267592593,1,0,0,2.622,Diorite_rect,4,0,4,0,1,
5cdee86590d2dc0001f86b3a,SCN,2024-06-21_12h57.13.337,LearnStrategy,2023.2.3,Win32,144.9275362,8,2,6,,,,,,,,8,09,,,,,,,,,,,8,1.275,1,,,,,,0.389814815,-0.42037037,1,0,0,1.275,Pumice_rect,5,0,5,0,1,
5cdee86590d2dc0001f86b3a,SCN,2024-06-21_12h57.13.337,LearnStrategy,2023.2.3,Win32,144.9275362,8,2,7,,,,,,,,5,11,,,,,,,,,,,5,1.726,1,,,,,,-0.377777778,-0.389814815,1,0,0,1.7259,Obsidian_rect,6,0,6,0,1,
5cdee86590d2dc0001f86b3a,SCN,2024-06-21_12h57.13.337,LearnStrategy,2023.2.3,Win32,144.9275362,8,2,8,,,,,,,,1,01,,,,,,,,,,,4,5.233,0,,,,,,0.381481481,-0.241666667,1,0,0,5.2333,Gabbro_rect,7,0,7,0,1,
5cdee86590d2dc0001f86b3a,SCN,2024-06-21_12h57.13.337,LearnStrategy,2023.2.3,Win32,144.9275362,8,2,9,,,,,,,,6,15,,,,,,,,,,,6,3.483,1,,,,,,-0.088888889,-0.391666667,1,0,0,3.4831,Pegmatite_rect,8,0,8,0,1,
5cdee86590d2dc0001f86b3a,SCN,2024-06-21_12h57.13.337,LearnStrategy,2023.2.3,Win32,144.9275362,8,2,10,,,,,,,,3,02,,,,,,,,,,,3,1.081,1,,,,,,0.121296296,-0.260185185,1,0,0,1.0806,Diorite_rect,9,0,9,0,1,
5cdee86590d2dc0001f86b3a,SCN,2024-06-21_12h57.13.337,LearnStrategy,2023.2.3,Win32,144.9275362,8,2,11,,,,,,,,3,12,,,,,,,,,,,3,1.601,1,,,,,,0.122222222,-0.231481481,1,0,0,1.601,Diorite_rect,10,0,10,0,1,
5cdee86590d2dc0001f86b3a,SCN,2024-06-21_12h57.13.337,LearnStrategy,2023.2.3,Win32,144.9275362,8,2,12,,,,,,,,8,08,,,,,,,,,,,8,1.004,1,,,,,,0.390740741,-0.386111111,1,0,0,1.004,Pumice_rect,11,0,11,0,1,
5cdee86590d2dc0001f86b3a,SCN,2024-06-21_12h57.13.337,LearnStrategy,2023.2.3,Win32,144.9275362,8,2,13,,,,,,,,7,04,,,,,,,,,,,1,1.15,0,,,,,,-0.376851852,-0.249074074,1,0,0,1.1496,Andesite_rect,12,0,12,0,1,
5cdee86590d2dc0001f86b3a,SCN,2024-06-21_12h57.13.337,LearnStrategy,2023.2.3,Win32,144.9275362,8,2,14,,,,,,,,2,01,,,,,,,,,,,2,1.032,1,,,,,,-0.126851852,-0.247222222,1,0,0,1.0316,Basalt_rect,13,0,13,0,1,
5cdee86590d2dc0001f86b3a,SCN,2024-06-21_12h57.13.337,LearnStrategy,2023.2.3,Win32,144.9275362,8,2,15,,,,,,,,6,05,,,,,,,,,,,6,1.476,1,,,,,,-0.146296296,-0.4,1,0,0,1.4759,Pegmatite_rect,14,0,14,0,1,
5cdee86590d2dc0001f86b3a,SCN,2024-06-21_12h57.13.337,LearnStrategy,2023.2.3,Win32,144.9275362,8,2,16,,,,,,,,2,16,,,,,,,,,,,4,1.295,0,,,,,,0.376851852,-0.230555556,1,0,0,1.2953,Gabbro_rect,15,0,15,0,1,
5cdee86590d2dc0001f86b3a,SCN,2024-06-21_12h57.13.337,LearnStrategy,2023.2.3,Win32,144.9275362,9,1,1,-0.569444444,0.259259259,1,0,0,2.9161,Peridotite_05,7,05,5,1,2.916,0.126851852,-0.398148148,1,0,0,1.2744,Peridotite_rect,7,1.274,1,0,0,0,0,1,,,,,,,,,,,,,
5cdee86590d2dc0001f86b3a,SCN,2024-06-21_12h57.13.337,LearnStrategy,2023.2.3,Win32,144.9275362,9,1,2,-0.430555556,0.234259259,1,0,0,0.7979,Basalt_10,2,10,5,2,0.798,-0.135185185,-0.257407407,1,0,0,0.8579,Basalt_rect,2,0.858,1,1,0,1,0,1,,,,,,,,,,,,,
5cdee86590d2dc0001f86b3a,SCN,2024-06-21_12h57.13.337,LearnStrategy,2023.2.3,Win32,144.9275362,9,1,3,-0.564814815,0.386111111,1,0,0,0.9579,Peridotite_08,7,08,6,1,0.958,0.115740741,-0.40462963,1,0,0,1.3439,Peridotite_rect,7,1.344,1,2,0,2,0,1,,,,,,,,,,,,,
5cdee86590d2dc0001f86b3a,SCN,2024-06-21_12h57.13.337,LearnStrategy,2023.2.3,Win32,144.9275362,9,1,4,-0.387962963,0.411111111,1,0,0,1.0757,Gabbro_10,4,10,6,2,1.076,0.359259259,-0.237962963,1,0,0,1.1636,Gabbro_rect,4,1.164,1,3,0,3,0,1,,,,,,,,,,,,,
5cdee86590d2dc0001f86b3a,SCN,2024-06-21_12h57.13.337,LearnStrategy,2023.2.3,Win32,144.9275362,9,1,5,-0.284259259,0.374074074,1,0,0,0.5549,Gabbro_14,4,14,6,3,0.555,0.368518519,-0.24537037,1,0,0,1.2188,Gabbro_rect,4,1.219,1,4,0,4,0,1,,,,,,,,,,,,,
5cdee86590d2dc0001f86b3a,SCN,2024-06-21_12h57.13.337,LearnStrategy,2023.2.3,Win32,144.9275362,9,1,6,-0.074074074,0.403703704,1,0,0,0.534,Andesite_06,1,06,6,4,0.534,-0.366666667,-0.22962963,1,0,0,0.9968,Andesite_rect,1,0.997,1,5,0,5,0,1,,,,,,,,,,,,,
5cdee86590d2dc0001f86b3a,SCN,2024-06-21_12h57.13.337,LearnStrategy,2023.2.3,Win32,144.9275362,9,1,7,0.072222222,0.402777778,1,0,0,0.5062,Diorite_14,3,14,6,5,0.506,0.133333333,-0.256481481,1,0,0,0.7676,Diorite_rect,3,0.768,1,6,0,6,0,1,,,,,,,,,,,,,
5cdee86590d2dc0001f86b3a,SCN,2024-06-21_12h57.13.337,LearnStrategy,2023.2.3,Win32,144.9275362,9,1,8,0.237037037,0.375925926,1,0,0,0.9926,Andesite_14,1,14,6,6,0.993,-0.311111111,-0.243518519,1,0,0,2.8024,Andesite_rect,1,2.802,1,7,0,7,0,1,,,,,,,,,,,,,
5cdee86590d2dc0001f86b3a,SCN,2024-06-21_12h57.13.337,LearnStrategy,2023.2.3,Win32,144.9275362,9,1,9,0.368518519,0.433333333,1,0,0,0.6452,Pumice_10,8,10,6,7,0.645,0.374074074,-0.398148148,1,0,0,0.8856,Pumice_rect,8,0.886,1,8,0,8,0,1,,,,,,,,,,,,,
5cdee86590d2dc0001f86b3a,SCN,2024-06-21_12h57.13.337,LearnStrategy,2023.2.3,Win32,144.9275362,9,1,10,0.574074074,0.407407407,1,0,0,0.5688,Andesite_02,1,02,6,8,0.569,-0.362962963,-0.240740741,1,0,0,1.6846,Andesite_rect,1,1.685,1,9,0,9,0,1,,,,,,,,,,,,,
5cdee86590d2dc0001f86b3a,SCN,2024-06-21_12h57.13.337,LearnStrategy,2023.2.3,Win32,144.9275362,9,1,11,-0.522222222,0.25462963,1,0,0,1.0617,Peridotite_05,7,05,5,1,1.062,0.102777778,-0.412962963,1,0,0,1.5247,Peridotite_rect,7,1.525,1,10,0,10,0,1,,,,,,,,,,,,,
5cdee86590d2dc0001f86b3a,SCN,2024-06-21_12h57.13.337,LearnStrategy,2023.2.3,Win32,144.9275362,9,1,12,-0.419444444,0.262037037,1,0,0,0.4994,Basalt_10,2,10,5,2,0.499,-0.138888889,-0.24537037,1,0,0,2.0316,Basalt_rect,2,2.032,1,11,0,11,0,1,,,,,,,,,,,,,
5cdee86590d2dc0001f86b3a,SCN,2024-06-21_12h57.13.337,LearnStrategy,2023.2.3,Win32,144.9275362,9,1,13,-0.252777778,0.262962963,1,0,0,0.5897,Pegmatite_07,6,07,5,3,0.59,-0.115740741,-0.391666667,1,0,0,1.1703,Pegmatite_rect,6,1.17,1,12,0,12,0,1,,,,,,,,,,,,,
5cdee86590d2dc0001f86b3a,SCN,2024-06-21_12h57.13.337,LearnStrategy,2023.2.3,Win32,144.9275362,9,1,14,-0.098148148,0.260185185,1,0,0,0.548,Pegmatite_03,6,03,5,4,0.548,-0.096296296,-0.399074074,1,0,0,0.7051,Pegmatite_rect,6,0.705,1,13,0,13,0,1,,,,,,,,,,,,,
5cdee86590d2dc0001f86b3a,SCN,2024-06-21_12h57.13.337,LearnStrategy,2023.2.3,Win32,144.9275362,9,1,15,0.034259259,0.283333333,1,0,0,0.562,Basalt_14,2,14,5,5,0.562,-0.137962963,-0.228703704,1,0,0,3.372,Basalt_rect,2,3.372,1,14,0,14,0,1,,,,,,,,,,,,,
5cdee86590d2dc0001f86b3a,SCN,2024-06-21_12h57.13.337,LearnStrategy,2023.2.3,Win32,144.9275362,9,1,16,0.22037037,0.240740741,1,0,0,0.9785,Peridotite_02,7,02,5,6,0.978,0.112037037,-0.409259259,1,0,0,1.476,Peridotite_rect,7,1.476,1,15,0,15,0,1,,,,,,,,,,,,,
5cdee86590d2dc0001f86b3a,SCN,2024-06-21_12h57.13.337,LearnStrategy,2023.2.3,Win32,144.9275362,9,2,1,,,,,,,,7,14,,,,,,,,,,,6,7.983,0,,,,,,-0.171296296,-0.378703704,1,0,0,7.9834,Pegmatite_rect,0,0,0,0,1,
5cdee86590d2dc0001f86b3a,SCN,2024-06-21_12h57.13.337,LearnStrategy,2023.2.3,Win32,144.9275362,9,2,2,,,,,,,,2,02,,,,,,,,,,,2,0.997,1,,,,,,-0.19537037,-0.24537037,1,0,0,0.9967,Basalt_rect,1,0,1,0,1,
5cdee86590d2dc0001f86b3a,SCN,2024-06-21_12h57.13.337,LearnStrategy,2023.2.3,Win32,144.9275362,9,2,3,,,,,,,,4,13,,,,,,,,,,,3,17.053,0,,,,,,0.098148148,-0.236111111,1,0,0,17.053,Diorite_rect,2,0,2,0,1,
5cdee86590d2dc0001f86b3a,SCN,2024-06-21_12h57.13.337,LearnStrategy,2023.2.3,Win32,144.9275362,9,2,4,,,,,,,,8,16,,,,,,,,,,,4,1.191,0,,,,,,0.363888889,-0.241666667,1,0,0,1.1912,Gabbro_rect,3,0,3,0,1,
5cdee86590d2dc0001f86b3a,SCN,2024-06-21_12h57.13.337,LearnStrategy,2023.2.3,Win32,144.9275362,9,2,5,,,,,,,,1,03,,,,,,,,,,,1,2.295,1,,,,,,-0.364814815,-0.232407407,1,0,0,2.2954,Andesite_rect,4,0,4,0,1,
5cdee86590d2dc0001f86b3a,SCN,2024-06-21_12h57.13.337,LearnStrategy,2023.2.3,Win32,144.9275362,9,2,6,,,,,,,,3,09,,,,,,,,,,,3,1.212,1,,,,,,0.096296296,-0.264814815,1,0,0,1.2121,Diorite_rect,5,0,5,0,1,
5cdee86590d2dc0001f86b3a,SCN,2024-06-21_12h57.13.337,LearnStrategy,2023.2.3,Win32,144.9275362,9,2,7,,,,,,,,6,10,,,,,,,,,,,6,1.365,1,,,,,,-0.156481481,-0.384259259,1,0,0,1.365,Pegmatite_rect,6,0,6,0,1,
5cdee86590d2dc0001f86b3a,SCN,2024-06-21_12h57.13.337,LearnStrategy,2023.2.3,Win32,144.9275362,9,2,8,,,,,,,,5,04,,,,,,,,,,,5,0.885,1,,,,,,-0.391666667,-0.4,1,0,0,0.8854,Obsidian_rect,7,0,7,0,1,
5cdee86590d2dc0001f86b3a,SCN,2024-06-21_12h57.13.337,LearnStrategy,2023.2.3,Win32,144.9275362,9,2,9,,,,,,,,4,12,,,,,,,,,,,2,2.74,0,,,,,,-0.164814815,-0.260185185,1,0,0,2.7402,Basalt_rect,8,0,8,0,1,
5cdee86590d2dc0001f86b3a,SCN,2024-06-21_12h57.13.337,LearnStrategy,2023.2.3,Win32,144.9275362,9,2,10,,,,,,,,1,11,,,,,,,,,,,1,1.087,1,,,,,,-0.400925926,-0.251851852,1,0,0,1.0869,Andesite_rect,9,0,9,0,1,
5cdee86590d2dc0001f86b3a,SCN,2024-06-21_12h57.13.337,LearnStrategy,2023.2.3,Win32,144.9275362,9,2,11,,,,,,,,6,13,,,,,,,,,,,6,1.997,1,,,,,,-0.12037037,-0.394444444,1,0,0,1.9969,Pegmatite_rect,10,0,10,0,1,
5cdee86590d2dc0001f86b3a,SCN,2024-06-21_12h57.13.337,LearnStrategy,2023.2.3,Win32,144.9275362,9,2,12,,,,,,,,2,12,,,,,,,,,,,2,3.164,1,,,,,,-0.107407407,-0.258333333,1,0,0,3.1637,Basalt_rect,11,0,11,0,1,
5cdee86590d2dc0001f86b3a,SCN,2024-06-21_12h57.13.337,LearnStrategy,2023.2.3,Win32,144.9275362,9,2,13,,,,,,,,7,12,,,,,,,,,,,7,1.163,1,,,,,,0.10462963,-0.406481481,1,0,0,1.1633,Peridotite_rect,12,0,12,0,1,
5cdee86590d2dc0001f86b3a,SCN,2024-06-21_12h57.13.337,LearnStrategy,2023.2.3,Win32,144.9275362,9,2,14,,,,,,,,8,05,,,,,,,,,,,8,1.24,1,,,,,,0.410185185,-0.396296296,1,0,0,1.2399,Pumice_rect,13,0,13,0,1,
5cdee86590d2dc0001f86b3a,SCN,2024-06-21_12h57.13.337,LearnStrategy,2023.2.3,Win32,144.9275362,9,2,15,,,,,,,,5,09,,,,,,,,,,,5,1.045,1,,,,,,-0.353703704,-0.402777778,1,0,0,1.0454,Obsidian_rect,14,0,14,0,1,
5cdee86590d2dc0001f86b3a,SCN,2024-06-21_12h57.13.337,LearnStrategy,2023.2.3,Win32,144.9275362,9,2,16,,,,,,,,3,16,,,,,,,,,,,3,1.205,1,,,,,,0.094444444,-0.27037037,1,0,0,1.2052,Diorite_rect,15,0,15,0,1,
5cdee86590d2dc0001f86b3a,SCN,2024-06-21_12h57.13.337,LearnStrategy,2023.2.3,Win32,144.9275362,,,,,,,,,,,,,,,,,,,,,,,,,,,,,,,,,,,,,,,,,,,1
5cdee86590d2dc0001f86b3a,SCN,2024-06-21_12h57.13.337,LearnStrategy,2023.2.3,Win32,144.9275362,,,,,,,,,,,,,,,,,,,,,,,,,,,,,,,,,,,,,,,,,,,
5cdee86590d2dc0001f86b3a,SCN,2024-06-21_12h57.13.337,LearnStrategy,2023.2.3,Win32,144.9275362,,,,,,,,,,,8,06,1,1,,,,,,,,,,,,,,,,,,,,,,,,,,,,,
5cdee86590d2dc0001f86b3a,SCN,2024-06-21_12h57.13.337,LearnStrategy,2023.2.3,Win32,144.9275362,,,,,,,,,,,5,16,1,2,,,,,,,,,,,,,,,,,,,,,,,,,,,,,
5cdee86590d2dc0001f86b3a,SCN,2024-06-21_12h57.13.337,LearnStrategy,2023.2.3,Win32,144.9275362,,,,,,,,,,,2,11,1,3,,,,,,,,,,,,,,,,,,,,,,,,,,,,,
5cdee86590d2dc0001f86b3a,SCN,2024-06-21_12h57.13.337,LearnStrategy,2023.2.3,Win32,144.9275362,,,,,,,,,,,1,05,1,4,,,,,,,,,,,,,,,,,,,,,,,,,,,,,
5cdee86590d2dc0001f86b3a,SCN,2024-06-21_12h57.13.337,LearnStrategy,2023.2.3,Win32,144.9275362,,,,,,,,,,,3,11,1,5,,,,,,,,,,,,,,,,,,,,,,,,,,,,,
5cdee86590d2dc0001f86b3a,SCN,2024-06-21_12h57.13.337,LearnStrategy,2023.2.3,Win32,144.9275362,,,,,,,,,,,4,05,1,6,,,,,,,,,,,,,,,,,,,,,,,,,,,,,
5cdee86590d2dc0001f86b3a,SCN,2024-06-21_12h57.13.337,LearnStrategy,2023.2.3,Win32,144.9275362,,,,,,,,,,,4,16,1,7,,,,,,,,,,,,,,,,,,,,,,,,,,,,,
5cdee86590d2dc0001f86b3a,SCN,2024-06-21_12h57.13.337,LearnStrategy,2023.2.3,Win32,144.9275362,,,,,,,,,,,2,09,1,8,,,,,,,,,,,,,,,,,,,,,,,,,,,,,
5cdee86590d2dc0001f86b3a,SCN,2024-06-21_12h57.13.337,LearnStrategy,2023.2.3,Win32,144.9275362,,,,,,,,,,,5,14,2,1,,,,,,,,,,,,,,,,,,,,,,,,,,,,,
5cdee86590d2dc0001f86b3a,SCN,2024-06-21_12h57.13.337,LearnStrategy,2023.2.3,Win32,144.9275362,,,,,,,,,,,1,10,2,2,,,,,,,,,,,,,,,,,,,,,,,,,,,,,
5cdee86590d2dc0001f86b3a,SCN,2024-06-21_12h57.13.337,LearnStrategy,2023.2.3,Win32,144.9275362,,,,,,,,,,,3,13,2,3,,,,,,,,,,,,,,,,,,,,,,,,,,,,,
5cdee86590d2dc0001f86b3a,SCN,2024-06-21_12h57.13.337,LearnStrategy,2023.2.3,Win32,144.9275362,,,,,,,,,,,7,06,2,4,,,,,,,,,,,,,,,,,,,,,,,,,,,,,
5cdee86590d2dc0001f86b3a,SCN,2024-06-21_12h57.13.337,LearnStrategy,2023.2.3,Win32,144.9275362,,,,,,,,,,,8,04,2,5,,,,,,,,,,,,,,,,,,,,,,,,,,,,,
5cdee86590d2dc0001f86b3a,SCN,2024-06-21_12h57.13.337,LearnStrategy,2023.2.3,Win32,144.9275362,,,,,,,,,,,8,02,2,6,,,,,,,,,,,,,,,,,,,,,,,,,,,,,
5cdee86590d2dc0001f86b3a,SCN,2024-06-21_12h57.13.337,LearnStrategy,2023.2.3,Win32,144.9275362,,,,,,,,,,,6,16,2,7,,,,,,,,,,,,,,,,,,,,,,,,,,,,,
5cdee86590d2dc0001f86b3a,SCN,2024-06-21_12h57.13.337,LearnStrategy,2023.2.3,Win32,144.9275362,,,,,,,,,,,7,16,2,8,,,,,,,,,,,,,,,,,,,,,,,,,,,,,
5cdee86590d2dc0001f86b3a,SCN,2024-06-21_12h57.13.337,LearnStrategy,2023.2.3,Win32,144.9275362,,,,,,,,,,,5,10,3,1,,,,,,,,,,,,,,,,,,,,,,,,,,,,,
5cdee86590d2dc0001f86b3a,SCN,2024-06-21_12h57.13.337,LearnStrategy,2023.2.3,Win32,144.9275362,,,,,,,,,,,6,08,3,2,,,,,,,,,,,,,,,,,,,,,,,,,,,,,
5cdee86590d2dc0001f86b3a,SCN,2024-06-21_12h57.13.337,LearnStrategy,2023.2.3,Win32,144.9275362,,,,,,,,,,,5,07,3,3,,,,,,,,,,,,,,,,,,,,,,,,,,,,,
5cdee86590d2dc0001f86b3a,SCN,2024-06-21_12h57.13.337,LearnStrategy,2023.2.3,Win32,144.9275362,,,,,,,,,,,2,05,3,4,,,,,,,,,,,,,,,,,,,,,,,,,,,,,
5cdee86590d2dc0001f86b3a,SCN,2024-06-21_12h57.13.337,LearnStrategy,2023.2.3,Win32,144.9275362,,,,,,,,,,,3,10,3,5,,,,,,,,,,,,,,,,,,,,,,,,,,,,,
5cdee86590d2dc0001f86b3a,SCN,2024-06-21_12h57.13.337,LearnStrategy,2023.2.3,Win32,144.9275362,,,,,,,,,,,7,10,3,6,,,,,,,,,,,,,,,,,,,,,,,,,,,,,
5cdee86590d2dc0001f86b3a,SCN,2024-06-21_12h57.13.337,LearnStrategy,2023.2.3,Win32,144.9275362,,,,,,,,,,,4,03,3,7,,,,,,,,,,,,,,,,,,,,,,,,,,,,,
5cdee86590d2dc0001f86b3a,SCN,2024-06-21_12h57.13.337,LearnStrategy,2023.2.3,Win32,144.9275362,,,,,,,,,,,2,04,3,8,,,,,,,,,,,,,,,,,,,,,,,,,,,,,
5cdee86590d2dc0001f86b3a,SCN,2024-06-21_12h57.13.337,LearnStrategy,2023.2.3,Win32,144.9275362,,,,,,,,,,,4,08,4,1,,,,,,,,,,,,,,,,,,,,,,,,,,,,,
5cdee86590d2dc0001f86b3a,SCN,2024-06-21_12h57.13.337,LearnStrategy,2023.2.3,Win32,144.9275362,,,,,,,,,,,3,15,4,2,,,,,,,,,,,,,,,,,,,,,,,,,,,,,
5cdee86590d2dc0001f86b3a,SCN,2024-06-21_12h57.13.337,LearnStrategy,2023.2.3,Win32,144.9275362,,,,,,,,,,,1,04,4,3,,,,,,,,,,,,,,,,,,,,,,,,,,,,,
5cdee86590d2dc0001f86b3a,SCN,2024-06-21_12h57.13.337,LearnStrategy,2023.2.3,Win32,144.9275362,,,,,,,,,,,3,07,4,4,,,,,,,,,,,,,,,,,,,,,,,,,,,,,
5cdee86590d2dc0001f86b3a,SCN,2024-06-21_12h57.13.337,LearnStrategy,2023.2.3,Win32,144.9275362,,,,,,,,,,,8,15,4,5,,,,,,,,,,,,,,,,,,,,,,,,,,,,,
5cdee86590d2dc0001f86b3a,SCN,2024-06-21_12h57.13.337,LearnStrategy,2023.2.3,Win32,144.9275362,,,,,,,,,,,8,13,4,6,,,,,,,,,,,,,,,,,,,,,,,,,,,,,
5cdee86590d2dc0001f86b3a,SCN,2024-06-21_12h57.13.337,LearnStrategy,2023.2.3,Win32,144.9275362,,,,,,,,,,,5,02,4,7,,,,,,,,,,,,,,,,,,,,,,,,,,,,,
5cdee86590d2dc0001f86b3a,SCN,2024-06-21_12h57.13.337,LearnStrategy,2023.2.3,Win32,144.9275362,,,,,,,,,,,5,08,4,8,,,,,,,,,,,,,,,,,,,,,,,,,,,,,
5cdee86590d2dc0001f86b3a,SCN,2024-06-21_12h57.13.337,LearnStrategy,2023.2.3,Win32,144.9275362,,,,,,,,,,,7,05,5,1,,,,,,,,,,,,,,,,,,,,,,,,,,,,,
5cdee86590d2dc0001f86b3a,SCN,2024-06-21_12h57.13.337,LearnStrategy,2023.2.3,Win32,144.9275362,,,,,,,,,,,2,10,5,2,,,,,,,,,,,,,,,,,,,,,,,,,,,,,
5cdee86590d2dc0001f86b3a,SCN,2024-06-21_12h57.13.337,LearnStrategy,2023.2.3,Win32,144.9275362,,,,,,,,,,,6,07,5,3,,,,,,,,,,,,,,,,,,,,,,,,,,,,,
5cdee86590d2dc0001f86b3a,SCN,2024-06-21_12h57.13.337,LearnStrategy,2023.2.3,Win32,144.9275362,,,,,,,,,,,6,03,5,4,,,,,,,,,,,,,,,,,,,,,,,,,,,,,
5cdee86590d2dc0001f86b3a,SCN,2024-06-21_12h57.13.337,LearnStrategy,2023.2.3,Win32,144.9275362,,,,,,,,,,,2,14,5,5,,,,,,,,,,,,,,,,,,,,,,,,,,,,,
5cdee86590d2dc0001f86b3a,SCN,2024-06-21_12h57.13.337,LearnStrategy,2023.2.3,Win32,144.9275362,,,,,,,,,,,7,02,5,6,,,,,,,,,,,,,,,,,,,,,,,,,,,,,
5cdee86590d2dc0001f86b3a,SCN,2024-06-21_12h57.13.337,LearnStrategy,2023.2.3,Win32,144.9275362,,,,,,,,,,,6,09,5,7,,,,,,,,,,,,,,,,,,,,,,,,,,,,,
5cdee86590d2dc0001f86b3a,SCN,2024-06-21_12h57.13.337,LearnStrategy,2023.2.3,Win32,144.9275362,,,,,,,,,,,6,06,5,8,,,,,,,,,,,,,,,,,,,,,,,,,,,,,
5cdee86590d2dc0001f86b3a,SCN,2024-06-21_12h57.13.337,LearnStrategy,2023.2.3,Win32,144.9275362,,,,,,,,,,,7,08,6,1,,,,,,,,,,,,,,,,,,,,,,,,,,,,,
5cdee86590d2dc0001f86b3a,SCN,2024-06-21_12h57.13.337,LearnStrategy,2023.2.3,Win32,144.9275362,,,,,,,,,,,4,10,6,2,,,,,,,,,,,,,,,,,,,,,,,,,,,,,
5cdee86590d2dc0001f86b3a,SCN,2024-06-21_12h57.13.337,LearnStrategy,2023.2.3,Win32,144.9275362,,,,,,,,,,,4,14,6,3,,,,,,,,,,,,,,,,,,,,,,,,,,,,,
5cdee86590d2dc0001f86b3a,SCN,2024-06-21_12h57.13.337,LearnStrategy,2023.2.3,Win32,144.9275362,,,,,,,,,,,1,06,6,4,,,,,,,,,,,,,,,,,,,,,,,,,,,,,
5cdee86590d2dc0001f86b3a,SCN,2024-06-21_12h57.13.337,LearnStrategy,2023.2.3,Win32,144.9275362,,,,,,,,,,,3,14,6,5,,,,,,,,,,,,,,,,,,,,,,,,,,,,,
5cdee86590d2dc0001f86b3a,SCN,2024-06-21_12h57.13.337,LearnStrategy,2023.2.3,Win32,144.9275362,,,,,,,,,,,1,14,6,6,,,,,,,,,,,,,,,,,,,,,,,,,,,,,
5cdee86590d2dc0001f86b3a,SCN,2024-06-21_12h57.13.337,LearnStrategy,2023.2.3,Win32,144.9275362,,,,,,,,,,,8,10,6,7,,,,,,,,,,,,,,,,,,,,,,,,,,,,,
5cdee86590d2dc0001f86b3a,SCN,2024-06-21_12h57.13.337,LearnStrategy,2023.2.3,Win32,144.9275362,,,,,,,,,,,1,02,6,8,,,,,,,,,,,,,,,,,,,,,,,,,,,,,