participant,condition,date,expName,psychopyVersion,OS,frameRate,block,phase,trial,learn_mouse.x,learn_mouse.y,learn_mouse.leftButton,learn_mouse.midButton,learn_mouse.rightButton,learn_mouse.time,learn_mouse.clicked_name,cat,token,row,col,t_select,cat_mouse_l.x,cat_mouse_l.y,cat_mouse_l.leftButton,cat_mouse_l.midButton,cat_mouse_l.rightButton,cat_mouse_l.time,cat_mouse_l.clicked_name,resp,t_resp,corr,train_trials.thisRepN,train_trials.thisTrialN,train_trials.thisN,train_trials.thisIndex,train_trials.ran,cat_mouse_t.x,cat_mouse_t.y,cat_mouse_t.leftButton,cat_mouse_t.midButton,cat_mouse_t.rightButton,cat_mouse_t.time,cat_mouse_t.clicked_name,test_trials.thisRepN,test_trials.thisTrialN,test_trials.thisN,test_trials.thisIndex,test_trials.ran,Bonus
5d01b9d4c9281200151c7c6b,SCN,2024-06-20_16h32.13.183,LearnStrategy,2023.2.3,Win32,60.24096386,,,,,,,,,,,,,,,,,,,,,,,,,,,,,,,,,,,,,,,,,,,
5d01b9d4c9281200151c7c6b,SCN,2024-06-20_16h32.13.183,LearnStrategy,2023.2.3,Win32,60.24096386,1,1,1,0.074305556,-0.095138889,1,0,0,2.2924,Obsidian_10,5,10,3,5,2.292,-0.350694444,-0.397222222,1,0,0,2.0898,Obsidian_rect,5,2.09,1,0,0,0,0,1,,,,,,,,,,,,,
5d01b9d4c9281200151c7c6b,SCN,2024-06-20_16h32.13.183,LearnStrategy,2023.2.3,Win32,60.24096386,1,1,2,0.23125,-0.239583333,1,0,0,3.97,Obsidian_07,5,07,2,6,3.97,-0.365972222,-0.396527778,1,0,0,5.3936,Obsidian_rect,5,5.394,1,1,0,1,0,1,,,,,,,,,,,,,
5d01b9d4c9281200151c7c6b,SCN,2024-06-20_16h32.13.183,LearnStrategy,2023.2.3,Win32,60.24096386,1,1,3,-0.5625,0.4,1,0,0,1.2493,Andesite_16,1,16,6,1,1.249,-0.092361111,-0.411805556,1,0,0,6.5022,Pegmatite_rect,6,6.502,0,2,0,2,0,1,,,,,,,,,,,,,
5d01b9d4c9281200151c7c6b,SCN,2024-06-20_16h32.13.183,LearnStrategy,2023.2.3,Win32,60.24096386,1,1,4,0.263888889,-0.097222222,1,0,0,6.9723,Andesite_05,1,05,3,6,6.972,-0.402777778,-0.249305556,1,0,0,2.375,Andesite_rect,1,2.375,1,3,0,3,0,1,,,,,,,,,,,,,
5d01b9d4c9281200151c7c6b,SCN,2024-06-20_16h32.13.183,LearnStrategy,2023.2.3,Win32,60.24096386,1,1,5,-0.386111111,0.405555556,1,0,0,1.5503,Basalt_12,2,12,6,2,1.55,-0.090277778,-0.250694444,1,0,0,3.2309,Basalt_rect,2,3.231,1,4,0,4,0,1,,,,,,,,,,,,,
5d01b9d4c9281200151c7c6b,SCN,2024-06-20_16h32.13.183,LearnStrategy,2023.2.3,Win32,60.24096386,1,1,6,-0.209722222,0.384027778,1,0,0,5.6874,Gabbro_08,4,08,6,3,5.687,0.423611111,-0.241666667,1,0,0,2.4575,Gabbro_rect,4,2.458,1,5,0,5,0,1,,,,,,,,,,,,,
5d01b9d4c9281200151c7c6b,SCN,2024-06-20_16h32.13.183,LearnStrategy,2023.2.3,Win32,60.24096386,1,1,7,0.239583333,-0.413194444,1,0,0,8.5065,Andesite_10,1,10,1,6,8.506,0.391666667,-0.247916667,1,0,0,1.4745,Gabbro_rect,4,1.475,0,6,0,6,0,1,,,,,,,,,,,,,
5d01b9d4c9281200151c7c6b,SCN,2024-06-20_16h32.13.183,LearnStrategy,2023.2.3,Win32,60.24096386,1,1,8,-0.065972222,0.407638889,1,0,0,5.0206,Obsidian_16,5,16,6,4,5.021,-0.416666667,-0.413888889,1,0,0,1.3576,Obsidian_rect,5,1.358,1,7,0,7,0,1,,,,,,,,,,,,,
5d01b9d4c9281200151c7c6b,SCN,2024-06-20_16h32.13.183,LearnStrategy,2023.2.3,Win32,60.24096386,1,1,9,0.077777778,0.44375,1,0,0,0.8334,Andesite_14,1,14,6,5,0.833,-0.352083333,-0.256944444,1,0,0,1.9466,Andesite_rect,1,1.947,1,8,0,8,0,1,,,,,,,,,,,,,
5d01b9d4c9281200151c7c6b,SCN,2024-06-20_16h32.13.183,LearnStrategy,2023.2.3,Win32,60.24096386,1,1,10,0.246527778,0.413194444,1,0,0,2.467,Pegmatite_09,6,09,6,6,2.467,0.158333333,-0.404861111,1,0,0,3.7596,Peridotite_rect,7,3.76,0,9,0,9,0,1,,,,,,,,,,,,,
5d01b9d4c9281200151c7c6b,SCN,2024-06-20_16h32.13.183,LearnStrategy,2023.2.3,Win32,60.24096386,1,1,11,-0.370138889,0.097916667,1,0,0,3.3685,Pegmatite_03,6,03,4,2,3.369,-0.070833333,-0.396527778,1,0,0,3.7648,Pegmatite_rect,6,3.765,1,10,0,10,0,1,,,,,,,,,,,,,
5d01b9d4c9281200151c7c6b,SCN,2024-06-20_16h32.13.183,LearnStrategy,2023.2.3,Win32,60.24096386,1,1,12,0.398611111,-0.09375,1,0,0,2.7541,Peridotite_06,7,06,3,7,2.754,-0.064583333,-0.407638889,1,0,0,2.2761,Pegmatite_rect,6,2.276,0,11,0,11,0,1,,,,,,,,,,,,,
5d01b9d4c9281200151c7c6b,SCN,2024-06-20_16h32.13.183,LearnStrategy,2023.2.3,Win32,60.24096386,1,1,13,0.547222222,0.40625,1,0,0,1.9343,Andesite_04,1,04,6,8,1.934,0.410416667,-0.394444444,1,0,0,6.6713,Pumice_rect,8,6.671,0,12,0,12,0,1,,,,,,,,,,,,,
5d01b9d4c9281200151c7c6b,SCN,2024-06-20_16h32.13.183,LearnStrategy,2023.2.3,Win32,60.24096386,1,1,14,-0.540972222,0.251388889,1,0,0,3.6029,Diorite_02,3,02,5,1,3.603,0.105555556,-0.270833333,1,0,0,3.7788,Diorite_rect,3,3.779,1,13,0,13,0,1,,,,,,,,,,,,,
5d01b9d4c9281200151c7c6b,SCN,2024-06-20_16h32.13.183,LearnStrategy,2023.2.3,Win32,60.24096386,1,1,15,-0.391666667,0.257638889,1,0,0,6.7551,Diorite_14,3,14,5,2,6.755,-0.361805556,-0.234027778,1,0,0,2.6621,Andesite_rect,1,2.662,0,14,0,14,0,1,,,,,,,,,,,,,
5d01b9d4c9281200151c7c6b,SCN,2024-06-20_16h32.13.183,LearnStrategy,2023.2.3,Win32,60.24096386,1,1,16,-0.227777778,0.240972222,1,0,0,1.7843,Basalt_08,2,08,5,3,1.784,-0.078472222,-0.230555556,1,0,0,5.6365,Basalt_rect,2,5.637,1,15,0,15,0,1,,,,,,,,,,,,,
5d01b9d4c9281200151c7c6b,SCN,2024-06-20_16h32.13.183,LearnStrategy,2023.2.3,Win32,60.24096386,1,2,1,,,,,,,,4,15,,,,,,,,,,,1,4.031,0,,,,,,-0.347222222,-0.245138889,1,0,0,4.0311,Andesite_rect,0,0,0,0,1,
5d01b9d4c9281200151c7c6b,SCN,2024-06-20_16h32.13.183,LearnStrategy,2023.2.3,Win32,60.24096386,1,2,2,,,,,,,,7,08,,,,,,,,,,,7,2.598,1,,,,,,0.113194444,-0.395833333,1,0,0,2.598,Peridotite_rect,1,0,1,0,1,
5d01b9d4c9281200151c7c6b,SCN,2024-06-20_16h32.13.183,LearnStrategy,2023.2.3,Win32,60.24096386,1,2,3,,,,,,,,2,01,,,,,,,,,,,2,1.413,1,,,,,,-0.098611111,-0.263194444,1,0,0,1.4132,Basalt_rect,2,0,2,0,1,
5d01b9d4c9281200151c7c6b,SCN,2024-06-20_16h32.13.183,LearnStrategy,2023.2.3,Win32,60.24096386,1,2,4,,,,,,,,1,03,,,,,,,,,,,8,4.153,0,,,,,,0.3625,-0.397916667,1,0,0,4.1527,Pumice_rect,3,0,3,0,1,
5d01b9d4c9281200151c7c6b,SCN,2024-06-20_16h32.13.183,LearnStrategy,2023.2.3,Win32,60.24096386,1,2,5,,,,,,,,4,12,,,,,,,,,,,4,3.264,1,,,,,,0.326388889,-0.263194444,1,0,0,3.2643,Gabbro_rect,4,0,4,0,1,
5d01b9d4c9281200151c7c6b,SCN,2024-06-20_16h32.13.183,LearnStrategy,2023.2.3,Win32,60.24096386,1,2,6,,,,,,,,3,07,,,,,,,,,,,3,2.03,1,,,,,,0.176388889,-0.265972222,1,0,0,2.0302,Diorite_rect,5,0,5,0,1,
5d01b9d4c9281200151c7c6b,SCN,2024-06-20_16h32.13.183,LearnStrategy,2023.2.3,Win32,60.24096386,1,2,7,,,,,,,,7,15,,,,,,,,,,,7,4.4,1,,,,,,0.122222222,-0.391666667,1,0,0,4.3997,Peridotite_rect,6,0,6,0,1,
5d01b9d4c9281200151c7c6b,SCN,2024-06-20_16h32.13.183,LearnStrategy,2023.2.3,Win32,60.24096386,1,2,8,,,,,,,,2,10,,,,,,,,,,,2,5.5,1,,,,,,-0.088194444,-0.268055556,1,0,0,5.5004,Basalt_rect,7,0,7,0,1,
5d01b9d4c9281200151c7c6b,SCN,2024-06-20_16h32.13.183,LearnStrategy,2023.2.3,Win32,60.24096386,1,2,9,,,,,,,,8,15,,,,,,,,,,,8,2.075,1,,,,,,0.401388889,-0.408333333,1,0,0,2.0755,Pumice_rect,8,0,8,0,1,
5d01b9d4c9281200151c7c6b,SCN,2024-06-20_16h32.13.183,LearnStrategy,2023.2.3,Win32,60.24096386,1,2,10,,,,,,,,5,11,,,,,,,,,,,5,1.284,1,,,,,,-0.361111111,-0.393055556,1,0,0,1.2843,Obsidian_rect,9,0,9,0,1,
5d01b9d4c9281200151c7c6b,SCN,2024-06-20_16h32.13.183,LearnStrategy,2023.2.3,Win32,60.24096386,1,2,11,,,,,,,,5,05,,,,,,,,,,,5,1.712,1,,,,,,-0.3625,-0.401388889,1,0,0,1.7115,Obsidian_rect,10,0,10,0,1,
5d01b9d4c9281200151c7c6b,SCN,2024-06-20_16h32.13.183,LearnStrategy,2023.2.3,Win32,60.24096386,1,2,12,,,,,,,,1,09,,,,,,,,,,,1,1.885,1,,,,,,-0.364583333,-0.258333333,1,0,0,1.8847,Andesite_rect,11,0,11,0,1,
5d01b9d4c9281200151c7c6b,SCN,2024-06-20_16h32.13.183,LearnStrategy,2023.2.3,Win32,60.24096386,1,2,13,,,,,,,,3,10,,,,,,,,,,,6,7.04,0,,,,,,-0.071527778,-0.4,1,0,0,7.0398,Pegmatite_rect,12,0,12,0,1,
5d01b9d4c9281200151c7c6b,SCN,2024-06-20_16h32.13.183,LearnStrategy,2023.2.3,Win32,60.24096386,1,2,14,,,,,,,,6,05,,,,,,,,,,,5,1.401,0,,,,,,-0.325694444,-0.384722222,1,0,0,1.4005,Obsidian_rect,13,0,13,0,1,
5d01b9d4c9281200151c7c6b,SCN,2024-06-20_16h32.13.183,LearnStrategy,2023.2.3,Win32,60.24096386,1,2,15,,,,,,,,6,07,,,,,,,,,,,1,5.64,0,,,,,,-0.438194444,-0.235416667,1,0,0,5.6397,Andesite_rect,14,0,14,0,1,
5d01b9d4c9281200151c7c6b,SCN,2024-06-20_16h32.13.183,LearnStrategy,2023.2.3,Win32,60.24096386,1,2,16,,,,,,,,8,05,,,,,,,,,,,8,1.931,1,,,,,,0.438194444,-0.404861111,1,0,0,1.9309,Pumice_rect,15,0,15,0,1,
5d01b9d4c9281200151c7c6b,SCN,2024-06-20_16h32.13.183,LearnStrategy,2023.2.3,Win32,60.24096386,2,1,1,-0.071527778,0.241666667,1,0,0,9.9907,Gabbro_10,4,10,5,4,9.991,-0.370138889,-0.4,1,0,0,1.5067,Obsidian_rect,5,1.507,0,0,0,0,0,1,,,,,,,,,,,,,
5d01b9d4c9281200151c7c6b,SCN,2024-06-20_16h32.13.183,LearnStrategy,2023.2.3,Win32,60.24096386,2,1,2,0.053472222,0.239583333,1,0,0,7.6731,Diorite_06,3,06,5,5,7.673,-0.320833333,-0.261111111,1,0,0,5.3273,Andesite_rect,1,5.327,0,1,0,1,0,1,,,,,,,,,,,,,
5d01b9d4c9281200151c7c6b,SCN,2024-06-20_16h32.13.183,LearnStrategy,2023.2.3,Win32,60.24096386,2,1,3,0.261805556,0.234027778,1,0,0,3.6353,Pegmatite_13,6,13,5,6,3.635,-0.059027778,-0.397916667,1,0,0,5.1778,Pegmatite_rect,6,5.178,1,2,0,2,0,1,,,,,,,,,,,,,
5d01b9d4c9281200151c7c6b,SCN,2024-06-20_16h32.13.183,LearnStrategy,2023.2.3,Win32,60.24096386,2,1,4,0.259722222,0.395833333,1,0,0,3.736,Pegmatite_09,6,09,6,6,3.736,-0.121527778,-0.405555556,1,0,0,1.1236,Pegmatite_rect,6,1.124,1,3,0,3,0,1,,,,,,,,,,,,,
5d01b9d4c9281200151c7c6b,SCN,2024-06-20_16h32.13.183,LearnStrategy,2023.2.3,Win32,60.24096386,2,1,5,0.3875,0.245833333,1,0,0,1.8177,Peridotite_05,7,05,5,7,1.818,0.185416667,-0.40625,1,0,0,1.7632,Peridotite_rect,7,1.763,1,4,0,4,0,1,,,,,,,,,,,,,
5d01b9d4c9281200151c7c6b,SCN,2024-06-20_16h32.13.183,LearnStrategy,2023.2.3,Win32,60.24096386,2,1,6,0.565277778,0.229166667,1,0,0,0.8329,Andesite_07,1,07,5,8,0.833,-0.352083333,-0.255555556,1,0,0,1.43,Andesite_rect,1,1.43,1,5,0,5,0,1,,,,,,,,,,,,,
5d01b9d4c9281200151c7c6b,SCN,2024-06-20_16h32.13.183,LearnStrategy,2023.2.3,Win32,60.24096386,2,1,7,-0.383333333,0.083333333,1,0,0,3.7355,Pegmatite_03,6,03,4,2,3.736,-0.095833333,-0.395833333,1,0,0,2.1632,Pegmatite_rect,6,2.163,1,6,0,6,0,1,,,,,,,,,,,,,
5d01b9d4c9281200151c7c6b,SCN,2024-06-20_16h32.13.183,LearnStrategy,2023.2.3,Win32,60.24096386,2,1,8,-0.199305556,0.090277778,1,0,0,0.9498,Diorite_13,3,13,4,3,0.95,-0.389583333,-0.242361111,1,0,0,1.5633,Andesite_rect,1,1.563,0,7,0,7,0,1,,,,,,,,,,,,,
5d01b9d4c9281200151c7c6b,SCN,2024-06-20_16h32.13.183,LearnStrategy,2023.2.3,Win32,60.24096386,2,1,9,-0.102083333,0.086805556,1,0,0,0.8673,Basalt_11,2,11,4,4,0.867,0.36875,-0.390277778,1,0,0,2.2474,Pumice_rect,8,2.247,0,8,0,8,0,1,,,,,,,,,,,,,
5d01b9d4c9281200151c7c6b,SCN,2024-06-20_16h32.13.183,LearnStrategy,2023.2.3,Win32,60.24096386,2,1,10,0.090972222,0.092361111,1,0,0,0.7661,Pumice_02,8,02,4,5,0.766,0.370833333,-0.421527778,1,0,0,0.8625,Pumice_rect,8,0.863,1,9,0,9,0,1,,,,,,,,,,,,,
5d01b9d4c9281200151c7c6b,SCN,2024-06-20_16h32.13.183,LearnStrategy,2023.2.3,Win32,60.24096386,2,1,11,0.256944444,0.114583333,1,0,0,0.7002,Peridotite_02,7,02,4,6,0.7,0.134722222,-0.404861111,1,0,0,3.4975,Peridotite_rect,7,3.498,1,10,0,10,0,1,,,,,,,,,,,,,
5d01b9d4c9281200151c7c6b,SCN,2024-06-20_16h32.13.183,LearnStrategy,2023.2.3,Win32,60.24096386,2,1,12,0.424305556,0.1,1,0,0,0.7827,Basalt_16,2,16,4,7,0.783,-0.1125,-0.239583333,1,0,0,1.6135,Basalt_rect,2,1.614,1,11,0,11,0,1,,,,,,,,,,,,,
5d01b9d4c9281200151c7c6b,SCN,2024-06-20_16h32.13.183,LearnStrategy,2023.2.3,Win32,60.24096386,2,1,13,0.583333333,0.104166667,1,0,0,0.784,Diorite_09,3,09,4,8,0.784,0.172222222,-0.259027778,1,0,0,1.8293,Diorite_rect,3,1.829,1,12,0,12,0,1,,,,,,,,,,,,,
5d01b9d4c9281200151c7c6b,SCN,2024-06-20_16h32.13.183,LearnStrategy,2023.2.3,Win32,60.24096386,2,1,14,-0.536111111,-0.120138889,1,0,0,1.0516,Diorite_16,3,16,3,1,1.052,0.095138889,-0.270833333,1,0,0,1.4331,Diorite_rect,3,1.433,1,13,0,13,0,1,,,,,,,,,,,,,
5d01b9d4c9281200151c7c6b,SCN,2024-06-20_16h32.13.183,LearnStrategy,2023.2.3,Win32,60.24096386,2,1,15,-0.40625,-0.110416667,1,0,0,0.817,Pumice_14,8,14,3,2,0.817,0.367361111,-0.379166667,1,0,0,1.0326,Pumice_rect,8,1.033,1,14,0,14,0,1,,,,,,,,,,,,,
5d01b9d4c9281200151c7c6b,SCN,2024-06-20_16h32.13.183,LearnStrategy,2023.2.3,Win32,60.24096386,2,1,16,-0.240277778,-0.09375,1,0,0,1.6344,Pegmatite_08,6,08,3,3,1.634,0.138888889,-0.267361111,1,0,0,4.0855,Diorite_rect,3,4.085,0,15,0,15,0,1,,,,,,,,,,,,,
5d01b9d4c9281200151c7c6b,SCN,2024-06-20_16h32.13.183,LearnStrategy,2023.2.3,Win32,60.24096386,2,2,1,,,,,,,,2,05,,,,,,,,,,,2,2.118,1,,,,,,-0.129166667,-0.2625,1,0,0,2.1177,Basalt_rect,0,0,0,0,1,
5d01b9d4c9281200151c7c6b,SCN,2024-06-20_16h32.13.183,LearnStrategy,2023.2.3,Win32,60.24096386,2,2,2,,,,,,,,4,13,,,,,,,,,,,1,3.02,0,,,,,,-0.365972222,-0.259027778,1,0,0,3.0201,Andesite_rect,1,0,1,0,1,
5d01b9d4c9281200151c7c6b,SCN,2024-06-20_16h32.13.183,LearnStrategy,2023.2.3,Win32,60.24096386,2,2,3,,,,,,,,1,01,,,,,,,,,,,1,3.135,1,,,,,,-0.346527778,-0.264583333,1,0,0,3.1349,Andesite_rect,2,0,2,0,1,
5d01b9d4c9281200151c7c6b,SCN,2024-06-20_16h32.13.183,LearnStrategy,2023.2.3,Win32,60.24096386,2,2,4,,,,,,,,8,08,,,,,,,,,,,8,1.284,1,,,,,,0.415972222,-0.395833333,1,0,0,1.2838,Pumice_rect,3,0,3,0,1,
5d01b9d4c9281200151c7c6b,SCN,2024-06-20_16h32.13.183,LearnStrategy,2023.2.3,Win32,60.24096386,2,2,5,,,,,,,,5,02,,,,,,,,,,,5,1.117,1,,,,,,-0.336111111,-0.394444444,1,0,0,1.1165,Obsidian_rect,4,0,4,0,1,
5d01b9d4c9281200151c7c6b,SCN,2024-06-20_16h32.13.183,LearnStrategy,2023.2.3,Win32,60.24096386,2,2,6,,,,,,,,3,11,,,,,,,,,,,3,3.402,1,,,,,,0.124305556,-0.251388889,1,0,0,3.402,Diorite_rect,5,0,5,0,1,
5d01b9d4c9281200151c7c6b,SCN,2024-06-20_16h32.13.183,LearnStrategy,2023.2.3,Win32,60.24096386,2,2,7,,,,,,,,3,12,,,,,,,,,,,3,3.552,1,,,,,,0.147916667,-0.263888889,1,0,0,3.5522,Diorite_rect,6,0,6,0,1,
5d01b9d4c9281200151c7c6b,SCN,2024-06-20_16h32.13.183,LearnStrategy,2023.2.3,Win32,60.24096386,2,2,8,,,,,,,,6,10,,,,,,,,,,,6,2.719,1,,,,,,-0.083333333,-0.413194444,1,0,0,2.7191,Pegmatite_rect,7,0,7,0,1,
5d01b9d4c9281200151c7c6b,SCN,2024-06-20_16h32.13.183,LearnStrategy,2023.2.3,Win32,60.24096386,2,2,9,,,,,,,,7,13,,,,,,,,,,,7,0.905,1,,,,,,0.094444444,-0.404861111,1,0,0,0.9047,Peridotite_rect,8,0,8,0,1,
5d01b9d4c9281200151c7c6b,SCN,2024-06-20_16h32.13.183,LearnStrategy,2023.2.3,Win32,60.24096386,2,2,10,,,,,,,,1,02,,,,,,,,,,,4,2.671,0,,,,,,0.355555556,-0.231944444,1,0,0,2.6712,Gabbro_rect,9,0,9,0,1,
5d01b9d4c9281200151c7c6b,SCN,2024-06-20_16h32.13.183,LearnStrategy,2023.2.3,Win32,60.24096386,2,2,11,,,,,,,,7,16,,,,,,,,,,,6,3.536,0,,,,,,-0.113888889,-0.399305556,1,0,0,3.5364,Pegmatite_rect,10,0,10,0,1,
5d01b9d4c9281200151c7c6b,SCN,2024-06-20_16h32.13.183,LearnStrategy,2023.2.3,Win32,60.24096386,2,2,12,,,,,,,,2,14,,,,,,,,,,,2,4.685,1,,,,,,-0.073611111,-0.248611111,1,0,0,4.6854,Basalt_rect,11,0,11,0,1,
5d01b9d4c9281200151c7c6b,SCN,2024-06-20_16h32.13.183,LearnStrategy,2023.2.3,Win32,60.24096386,2,2,13,,,,,,,,8,10,,,,,,,,,,,8,1.972,1,,,,,,0.347916667,-0.390277778,1,0,0,1.9716,Pumice_rect,12,0,12,0,1,
5d01b9d4c9281200151c7c6b,SCN,2024-06-20_16h32.13.183,LearnStrategy,2023.2.3,Win32,60.24096386,2,2,14,,,,,,,,5,14,,,,,,,,,,,5,1.012,1,,,,,,-0.363888889,-0.403472222,1,0,0,1.0117,Obsidian_rect,13,0,13,0,1,
5d01b9d4c9281200151c7c6b,SCN,2024-06-20_16h32.13.183,LearnStrategy,2023.2.3,Win32,60.24096386,2,2,15,,,,,,,,6,11,,,,,,,,,,,6,3.765,1,,,,,,-0.136111111,-0.40625,1,0,0,3.765,Pegmatite_rect,14,0,14,0,1,
5d01b9d4c9281200151c7c6b,SCN,2024-06-20_16h32.13.183,LearnStrategy,2023.2.3,Win32,60.24096386,2,2,16,,,,,,,,4,01,,,,,,,,,,,4,3.677,1,,,,,,0.395833333,-0.269444444,1,0,0,3.6768,Gabbro_rect,15,0,15,0,1,
5d01b9d4c9281200151c7c6b,SCN,2024-06-20_16h32.13.183,LearnStrategy,2023.2.3,Win32,60.24096386,3,1,1,-0.236111111,0.091666667,1,0,0,9.5418,Diorite_13,3,13,4,3,9.542,0.189583333,-0.264583333,1,0,0,1.7245,Diorite_rect,3,1.725,1,0,0,0,0,1,,,,,,,,,,,,,
5d01b9d4c9281200151c7c6b,SCN,2024-06-20_16h32.13.183,LearnStrategy,2023.2.3,Win32,60.24096386,3,1,2,-0.08125,0.075694444,1,0,0,0.6496,Basalt_11,2,11,4,4,0.65,-0.141666667,-0.261805556,1,0,0,0.9793,Basalt_rect,2,0.979,1,1,0,1,0,1,,,,,,,,,,,,,
5d01b9d4c9281200151c7c6b,SCN,2024-06-20_16h32.13.183,LearnStrategy,2023.2.3,Win32,60.24096386,3,1,3,0.079166667,0.1,1,0,0,0.9,Pumice_02,8,02,4,5,0.9,0.4125,-0.404861111,1,0,0,1.2628,Pumice_rect,8,1.263,1,2,0,2,0,1,,,,,,,,,,,,,
5d01b9d4c9281200151c7c6b,SCN,2024-06-20_16h32.13.183,LearnStrategy,2023.2.3,Win32,60.24096386,3,1,4,0.243055556,0.095833333,1,0,0,2.0344,Peridotite_02,7,02,4,6,2.034,0.085416667,-0.402083333,1,0,0,2.0804,Peridotite_rect,7,2.08,1,3,0,3,0,1,,,,,,,,,,,,,
5d01b9d4c9281200151c7c6b,SCN,2024-06-20_16h32.13.183,LearnStrategy,2023.2.3,Win32,60.24096386,3,1,5,0.39375,0.093055556,1,0,0,0.783,Basalt_16,2,16,4,7,0.783,-0.098611111,-0.247222222,1,0,0,0.9454,Basalt_rect,2,0.945,1,4,0,4,0,1,,,,,,,,,,,,,
5d01b9d4c9281200151c7c6b,SCN,2024-06-20_16h32.13.183,LearnStrategy,2023.2.3,Win32,60.24096386,3,1,6,0.586111111,0.086805556,1,0,0,0.75,Diorite_09,3,09,4,8,0.75,0.114583333,-0.240972222,1,0,0,1.2128,Diorite_rect,3,1.213,1,5,0,5,0,1,,,,,,,,,,,,,
5d01b9d4c9281200151c7c6b,SCN,2024-06-20_16h32.13.183,LearnStrategy,2023.2.3,Win32,60.24096386,3,1,7,-0.538888889,-0.117361111,1,0,0,3.8881,Diorite_16,3,16,3,1,3.888,0.155555556,-0.243055556,1,0,0,1.6755,Diorite_rect,3,1.676,1,6,0,6,0,1,,,,,,,,,,,,,
5d01b9d4c9281200151c7c6b,SCN,2024-06-20_16h32.13.183,LearnStrategy,2023.2.3,Win32,60.24096386,3,1,8,-0.38125,-0.113194444,1,0,0,0.7994,Pumice_14,8,14,3,2,0.799,0.444444444,-0.402777778,1,0,0,0.7626,Pumice_rect,8,0.763,1,7,0,7,0,1,,,,,,,,,,,,,
5d01b9d4c9281200151c7c6b,SCN,2024-06-20_16h32.13.183,LearnStrategy,2023.2.3,Win32,60.24096386,3,1,9,-0.24375,-0.115277778,1,0,0,1.1182,Pegmatite_08,6,08,3,3,1.118,-0.101388889,-0.397222222,1,0,0,1.7985,Pegmatite_rect,6,1.798,1,8,0,8,0,1,,,,,,,,,,,,,
5d01b9d4c9281200151c7c6b,SCN,2024-06-20_16h32.13.183,LearnStrategy,2023.2.3,Win32,60.24096386,3,1,10,-0.070138889,-0.120833333,1,0,0,0.7151,Pumice_04,8,04,3,4,0.715,0.406944444,-0.397916667,1,0,0,0.663,Pumice_rect,8,0.663,1,9,0,9,0,1,,,,,,,,,,,,,
5d01b9d4c9281200151c7c6b,SCN,2024-06-20_16h32.13.183,LearnStrategy,2023.2.3,Win32,60.24096386,3,1,11,0.223611111,-0.103472222,1,0,0,1.5505,Andesite_05,1,05,3,6,1.55,-0.354166667,-0.263194444,1,0,0,4.4988,Andesite_rect,1,4.499,1,10,0,10,0,1,,,,,,,,,,,,,
5d01b9d4c9281200151c7c6b,SCN,2024-06-20_16h32.13.183,LearnStrategy,2023.2.3,Win32,60.24096386,3,1,12,0.379861111,-0.113888889,1,0,0,1.1669,Peridotite_06,7,06,3,7,1.167,-0.09375,-0.411111111,1,0,0,1.2125,Pegmatite_rect,6,1.212,0,11,0,11,0,1,,,,,,,,,,,,,
5d01b9d4c9281200151c7c6b,SCN,2024-06-20_16h32.13.183,LearnStrategy,2023.2.3,Win32,60.24096386,3,1,13,0.558333333,-0.125,1,0,0,0.95,Pumice_09,8,09,3,8,0.95,0.427083333,-0.405555556,1,0,0,0.8295,Pumice_rect,8,0.83,1,12,0,12,0,1,,,,,,,,,,,,,
5d01b9d4c9281200151c7c6b,SCN,2024-06-20_16h32.13.183,LearnStrategy,2023.2.3,Win32,60.24096386,3,1,14,-0.511805556,-0.267361111,1,0,0,1.4843,Peridotite_14,7,14,2,1,1.484,0.119444444,-0.386111111,1,0,0,1.1799,Peridotite_rect,7,1.18,1,13,0,13,0,1,,,,,,,,,,,,,
5d01b9d4c9281200151c7c6b,SCN,2024-06-20_16h32.13.183,LearnStrategy,2023.2.3,Win32,60.24096386,3,1,15,-0.391666667,-0.279166667,1,0,0,0.8506,Gabbro_03,4,03,2,2,0.851,0.3875,-0.258333333,1,0,0,2.8974,Gabbro_rect,4,2.897,1,14,0,14,0,1,,,,,,,,,,,,,
5d01b9d4c9281200151c7c6b,SCN,2024-06-20_16h32.13.183,LearnStrategy,2023.2.3,Win32,60.24096386,3,1,16,-0.218055556,-0.273611111,1,0,0,0.9831,Pegmatite_06,6,06,2,3,0.983,-0.125,-0.409027778,1,0,0,2.9305,Pegmatite_rect,6,2.93,1,15,0,15,0,1,,,,,,,,,,,,,
5d01b9d4c9281200151c7c6b,SCN,2024-06-20_16h32.13.183,LearnStrategy,2023.2.3,Win32,60.24096386,3,2,1,,,,,,,,3,08,,,,,,,,,,,3,1.312,1,,,,,,0.108333333,-0.25625,1,0,0,1.3124,Diorite_rect,0,0,0,0,1,
5d01b9d4c9281200151c7c6b,SCN,2024-06-20_16h32.13.183,LearnStrategy,2023.2.3,Win32,60.24096386,3,2,2,,,,,,,,1,11,,,,,,,,,,,4,2.232,0,,,,,,0.402777778,-0.269444444,1,0,0,2.2319,Gabbro_rect,1,0,1,0,1,
5d01b9d4c9281200151c7c6b,SCN,2024-06-20_16h32.13.183,LearnStrategy,2023.2.3,Win32,60.24096386,3,2,3,,,,,,,,4,05,,,,,,,,,,,4,4.082,1,,,,,,0.386111111,-0.254861111,1,0,0,4.0822,Gabbro_rect,2,0,2,0,1,
5d01b9d4c9281200151c7c6b,SCN,2024-06-20_16h32.13.183,LearnStrategy,2023.2.3,Win32,60.24096386,3,2,4,,,,,,,,6,16,,,,,,,,,,,6,2.501,1,,,,,,-0.094444444,-0.402083333,1,0,0,2.5009,Pegmatite_rect,3,0,3,0,1,
5d01b9d4c9281200151c7c6b,SCN,2024-06-20_16h32.13.183,LearnStrategy,2023.2.3,Win32,60.24096386,3,2,5,,,,,,,,5,06,,,,,,,,,,,5,1.43,1,,,,,,-0.36875,-0.406944444,1,0,0,1.4298,Obsidian_rect,4,0,4,0,1,
5d01b9d4c9281200151c7c6b,SCN,2024-06-20_16h32.13.183,LearnStrategy,2023.2.3,Win32,60.24096386,3,2,6,,,,,,,,6,12,,,,,,,,,,,6,4.032,1,,,,,,-0.136805556,-0.420138889,1,0,0,4.0321,Pegmatite_rect,5,0,5,0,1,
5d01b9d4c9281200151c7c6b,SCN,2024-06-20_16h32.13.183,LearnStrategy,2023.2.3,Win32,60.24096386,3,2,7,,,,,,,,7,07,,,,,,,,,,,7,1.262,1,,,,,,0.152083333,-0.402777778,1,0,0,1.2625,Peridotite_rect,6,0,6,0,1,
5d01b9d4c9281200151c7c6b,SCN,2024-06-20_16h32.13.183,LearnStrategy,2023.2.3,Win32,60.24096386,3,2,8,,,,,,,,8,03,,,,,,,,,,,8,0.913,1,,,,,,0.406944444,-0.410416667,1,0,0,0.9133,Pumice_rect,7,0,7,0,1,
5d01b9d4c9281200151c7c6b,SCN,2024-06-20_16h32.13.183,LearnStrategy,2023.2.3,Win32,60.24096386,3,2,9,,,,,,,,4,09,,,,,,,,,,,2,2.181,0,,,,,,-0.158333333,-0.263194444,1,0,0,2.1806,Basalt_rect,8,0,8,0,1,
5d01b9d4c9281200151c7c6b,SCN,2024-06-20_16h32.13.183,LearnStrategy,2023.2.3,Win32,60.24096386,3,2,10,,,,,,,,1,06,,,,,,,,,,,1,4.016,1,,,,,,-0.353472222,-0.247222222,1,0,0,4.016,Andesite_rect,9,0,9,0,1,
5d01b9d4c9281200151c7c6b,SCN,2024-06-20_16h32.13.183,LearnStrategy,2023.2.3,Win32,60.24096386,3,2,11,,,,,,,,7,10,,,,,,,,,,,7,1.029,1,,,,,,0.118055556,-0.397916667,1,0,0,1.029,Peridotite_rect,10,0,10,0,1,
5d01b9d4c9281200151c7c6b,SCN,2024-06-20_16h32.13.183,LearnStrategy,2023.2.3,Win32,60.24096386,3,2,12,,,,,,,,8,06,,,,,,,,,,,8,0.913,1,,,,,,0.397916667,-0.411111111,1,0,0,0.9126,Pumice_rect,11,0,11,0,1,
5d01b9d4c9281200151c7c6b,SCN,2024-06-20_16h32.13.183,LearnStrategy,2023.2.3,Win32,60.24096386,3,2,13,,,,,,,,3,15,,,,,,,,,,,3,2.669,1,,,,,,0.143055556,-0.255555556,1,0,0,2.6691,Diorite_rect,12,0,12,0,1,
5d01b9d4c9281200151c7c6b,SCN,2024-06-20_16h32.13.183,LearnStrategy,2023.2.3,Win32,60.24096386,3,2,14,,,,,,,,2,06,,,,,,,,,,,2,1.452,1,,,,,,-0.133333333,-0.259722222,1,0,0,1.4519,Basalt_rect,13,0,13,0,1,
5d01b9d4c9281200151c7c6b,SCN,2024-06-20_16h32.13.183,LearnStrategy,2023.2.3,Win32,60.24096386,3,2,15,,,,,,,,5,04,,,,,,,,,,,5,0.952,1,,,,,,-0.397222222,-0.409722222,1,0,0,0.9518,Obsidian_rect,14,0,14,0,1,
5d01b9d4c9281200151c7c6b,SCN,2024-06-20_16h32.13.183,LearnStrategy,2023.2.3,Win32,60.24096386,3,2,16,,,,,,,,2,02,,,,,,,,,,,2,1.686,1,,,,,,-0.086805556,-0.258333333,1,0,0,1.6863,Basalt_rect,15,0,15,0,1,
5d01b9d4c9281200151c7c6b,SCN,2024-06-20_16h32.13.183,LearnStrategy,2023.2.3,Win32,60.24096386,4,1,1,0.236805556,-0.120138889,1,0,0,2.6021,Andesite_05,1,05,3,6,2.602,0.372916667,-0.250694444,1,0,0,2.2517,Gabbro_rect,4,2.252,0,0,0,0,0,1,,,,,,,,,,,,,
5d01b9d4c9281200151c7c6b,SCN,2024-06-20_16h32.13.183,LearnStrategy,2023.2.3,Win32,60.24096386,4,1,2,-0.538194444,-0.290277778,1,0,0,9.8583,Peridotite_14,7,14,2,1,9.858,0.113888889,-0.415277778,1,0,0,1.1105,Peridotite_rect,7,1.111,1,1,0,1,0,1,,,,,,,,,,,,,
5d01b9d4c9281200151c7c6b,SCN,2024-06-20_16h32.13.183,LearnStrategy,2023.2.3,Win32,60.24096386,4,1,3,-0.384027778,-0.264583333,1,0,0,0.7838,Gabbro_03,4,03,2,2,0.784,0.372222222,-0.242361111,1,0,0,2.3004,Gabbro_rect,4,2.3,1,2,0,2,0,1,,,,,,,,,,,,,
5d01b9d4c9281200151c7c6b,SCN,2024-06-20_16h32.13.183,LearnStrategy,2023.2.3,Win32,60.24096386,4,1,4,-0.204166667,-0.275694444,1,0,0,5.2373,Pegmatite_06,6,06,2,3,5.237,-0.100694444,-0.39375,1,0,0,0.9447,Pegmatite_rect,6,0.945,1,3,0,3,0,1,,,,,,,,,,,,,
5d01b9d4c9281200151c7c6b,SCN,2024-06-20_16h32.13.183,LearnStrategy,2023.2.3,Win32,60.24096386,4,1,5,-0.058333333,-0.270833333,1,0,0,0.8172,Gabbro_11,4,11,2,4,0.817,0.418055556,-0.240277778,1,0,0,1.9501,Gabbro_rect,4,1.95,1,4,0,4,0,1,,,,,,,,,,,,,
5d01b9d4c9281200151c7c6b,SCN,2024-06-20_16h32.13.183,LearnStrategy,2023.2.3,Win32,60.24096386,4,1,6,0.080555556,-0.281944444,1,0,0,1.1666,Peridotite_12,7,12,2,5,1.167,0.118055556,-0.405555556,1,0,0,1.7338,Peridotite_rect,7,1.734,1,5,0,5,0,1,,,,,,,,,,,,,
5d01b9d4c9281200151c7c6b,SCN,2024-06-20_16h32.13.183,LearnStrategy,2023.2.3,Win32,60.24096386,4,1,7,0.234027778,-0.275,1,0,0,0.9,Obsidian_07,5,07,2,6,0.9,-0.385416667,-0.407638889,1,0,0,0.7654,Obsidian_rect,5,0.765,1,6,0,6,0,1,,,,,,,,,,,,,
5d01b9d4c9281200151c7c6b,SCN,2024-06-20_16h32.13.183,LearnStrategy,2023.2.3,Win32,60.24096386,4,1,8,0.425,-0.297916667,1,0,0,0.7837,Basalt_09,2,09,2,7,0.784,-0.151388889,-0.251388889,1,0,0,1.0999,Basalt_rect,2,1.1,1,7,0,7,0,1,,,,,,,,,,,,,
5d01b9d4c9281200151c7c6b,SCN,2024-06-20_16h32.13.183,LearnStrategy,2023.2.3,Win32,60.24096386,4,1,9,0.557638889,-0.270138889,1,0,0,0.7677,Gabbro_16,4,16,2,8,0.768,-0.136111111,-0.260416667,1,0,0,4.6031,Basalt_rect,2,4.603,0,8,0,8,0,1,,,,,,,,,,,,,
5d01b9d4c9281200151c7c6b,SCN,2024-06-20_16h32.13.183,LearnStrategy,2023.2.3,Win32,60.24096386,4,1,10,-0.548611111,-0.425694444,1,0,0,1.9011,Gabbro_14,4,14,1,1,1.901,0.347916667,-0.263194444,1,0,0,1.7988,Gabbro_rect,4,1.799,1,9,0,9,0,1,,,,,,,,,,,,,
5d01b9d4c9281200151c7c6b,SCN,2024-06-20_16h32.13.183,LearnStrategy,2023.2.3,Win32,60.24096386,4,1,11,-0.385416667,-0.409027778,1,0,0,1.2174,Obsidian_08,5,08,1,2,1.217,-0.345138889,-0.402083333,1,0,0,1.7995,Obsidian_rect,5,1.8,1,10,0,10,0,1,,,,,,,,,,,,,
5d01b9d4c9281200151c7c6b,SCN,2024-06-20_16h32.13.183,LearnStrategy,2023.2.3,Win32,60.24096386,4,1,12,-0.241666667,-0.427777778,1,0,0,0.8343,Pegmatite_15,6,15,1,3,0.834,-0.130555556,-0.398611111,1,0,0,1.0498,Pegmatite_rect,6,1.05,1,11,0,11,0,1,,,,,,,,,,,,,
5d01b9d4c9281200151c7c6b,SCN,2024-06-20_16h32.13.183,LearnStrategy,2023.2.3,Win32,60.24096386,4,1,13,-0.075,-0.434722222,1,0,0,0.8339,Peridotite_04,7,04,1,4,0.834,-0.083333333,-0.400694444,1,0,0,5.0707,Pegmatite_rect,6,5.071,0,12,0,12,0,1,,,,,,,,,,,,,
5d01b9d4c9281200151c7c6b,SCN,2024-06-20_16h32.13.183,LearnStrategy,2023.2.3,Win32,60.24096386,4,1,14,0.064583333,-0.427083333,1,0,0,0.9504,Basalt_04,2,04,1,5,0.95,-0.1375,-0.2625,1,0,0,1.9177,Basalt_rect,2,1.918,1,13,0,13,0,1,,,,,,,,,,,,,
5d01b9d4c9281200151c7c6b,SCN,2024-06-20_16h32.13.183,LearnStrategy,2023.2.3,Win32,60.24096386,4,1,15,0.261805556,-0.433333333,1,0,0,1.0006,Andesite_10,1,10,1,6,1.001,-0.356944444,-0.254861111,1,0,0,2.0007,Andesite_rect,1,2.001,1,14,0,14,0,1,,,,,,,,,,,,,
5d01b9d4c9281200151c7c6b,SCN,2024-06-20_16h32.13.183,LearnStrategy,2023.2.3,Win32,60.24096386,4,1,16,0.409027778,-0.438194444,1,0,0,2.8854,Pumice_16,8,16,1,7,2.885,0.390972222,-0.413194444,1,0,0,0.8275,Pumice_rect,8,0.828,1,15,0,15,0,1,,,,,,,,,,,,,
5d01b9d4c9281200151c7c6b,SCN,2024-06-20_16h32.13.183,LearnStrategy,2023.2.3,Win32,60.24096386,4,2,1,,,,,,,,3,15,,,,,,,,,,,3,3.237,1,,,,,,0.179166667,-0.245833333,1,0,0,3.2368,Diorite_rect,0,0,0,0,1,
5d01b9d4c9281200151c7c6b,SCN,2024-06-20_16h32.13.183,LearnStrategy,2023.2.3,Win32,60.24096386,4,2,2,,,,,,,,7,08,,,,,,,,,,,7,1.084,1,,,,,,0.146527778,-0.411111111,1,0,0,1.0836,Peridotite_rect,1,0,1,0,1,
5d01b9d4c9281200151c7c6b,SCN,2024-06-20_16h32.13.183,LearnStrategy,2023.2.3,Win32,60.24096386,4,2,3,,,,,,,,3,08,,,,,,,,,,,3,1.135,1,,,,,,0.170138889,-0.254166667,1,0,0,1.1351,Diorite_rect,2,0,2,0,1,
5d01b9d4c9281200151c7c6b,SCN,2024-06-20_16h32.13.183,LearnStrategy,2023.2.3,Win32,60.24096386,4,2,4,,,,,,,,8,03,,,,,,,,,,,8,0.935,1,,,,,,0.378472222,-0.386805556,1,0,0,0.9346,Pumice_rect,3,0,3,0,1,
5d01b9d4c9281200151c7c6b,SCN,2024-06-20_16h32.13.183,LearnStrategy,2023.2.3,Win32,60.24096386,4,2,5,,,,,,,,7,07,,,,,,,,,,,7,1.118,1,,,,,,0.193055556,-0.421527778,1,0,0,1.1183,Peridotite_rect,4,0,4,0,1,
5d01b9d4c9281200151c7c6b,SCN,2024-06-20_16h32.13.183,LearnStrategy,2023.2.3,Win32,60.24096386,4,2,6,,,,,,,,2,06,,,,,,,,,,,2,1.15,1,,,,,,-0.109027778,-0.251388889,1,0,0,1.1496,Basalt_rect,5,0,5,0,1,
5d01b9d4c9281200151c7c6b,SCN,2024-06-20_16h32.13.183,LearnStrategy,2023.2.3,Win32,60.24096386,4,2,7,,,,,,,,4,13,,,,,,,,,,,3,4.722,0,,,,,,0.109027778,-0.246527778,1,0,0,4.7222,Diorite_rect,6,0,6,0,1,
5d01b9d4c9281200151c7c6b,SCN,2024-06-20_16h32.13.183,LearnStrategy,2023.2.3,Win32,60.24096386,4,2,8,,,,,,,,2,10,,,,,,,,,,,2,5.055,1,,,,,,-0.126388889,-0.253472222,1,0,0,5.0546,Basalt_rect,7,0,7,0,1,
5d01b9d4c9281200151c7c6b,SCN,2024-06-20_16h32.13.183,LearnStrategy,2023.2.3,Win32,60.24096386,4,2,9,,,,,,,,6,11,,,,,,,,,,,6,1.918,1,,,,,,-0.109027778,-0.40625,1,0,0,1.9185,Pegmatite_rect,8,0,8,0,1,
5d01b9d4c9281200151c7c6b,SCN,2024-06-20_16h32.13.183,LearnStrategy,2023.2.3,Win32,60.24096386,4,2,10,,,,,,,,5,14,,,,,,,,,,,5,0.968,1,,,,,,-0.411805556,-0.402777778,1,0,0,0.9679,Obsidian_rect,9,0,9,0,1,
5d01b9d4c9281200151c7c6b,SCN,2024-06-20_16h32.13.183,LearnStrategy,2023.2.3,Win32,60.24096386,4,2,11,,,,,,,,5,05,,,,,,,,,,,5,0.929,1,,,,,,-0.370138889,-0.394444444,1,0,0,0.9291,Obsidian_rect,10,0,10,0,1,
5d01b9d4c9281200151c7c6b,SCN,2024-06-20_16h32.13.183,LearnStrategy,2023.2.3,Win32,60.24096386,4,2,12,,,,,,,,4,12,,,,,,,,,,,4,1.668,1,,,,,,0.429166667,-0.245138889,1,0,0,1.6675,Gabbro_rect,11,0,11,0,1,
5d01b9d4c9281200151c7c6b,SCN,2024-06-20_16h32.13.183,LearnStrategy,2023.2.3,Win32,60.24096386,4,2,13,,,,,,,,8,06,,,,,,,,,,,8,0.916,1,,,,,,0.352777778,-0.404166667,1,0,0,0.9163,Pumice_rect,12,0,12,0,1,
5d01b9d4c9281200151c7c6b,SCN,2024-06-20_16h32.13.183,LearnStrategy,2023.2.3,Win32,60.24096386,4,2,14,,,,,,,,1,02,,,,,,,,,,,1,2.664,1,,,,,,-0.390277778,-0.245138889,1,0,0,2.6637,Andesite_rect,13,0,13,0,1,
5d01b9d4c9281200151c7c6b,SCN,2024-06-20_16h32.13.183,LearnStrategy,2023.2.3,Win32,60.24096386,4,2,15,,,,,,,,6,07,,,,,,,,,,,6,1.265,1,,,,,,-0.126388889,-0.402083333,1,0,0,1.265,Pegmatite_rect,14,0,14,0,1,
5d01b9d4c9281200151c7c6b,SCN,2024-06-20_16h32.13.183,LearnStrategy,2023.2.3,Win32,60.24096386,4,2,16,,,,,,,,1,06,,,,,,,,,,,1,1.665,1,,,,,,-0.372916667,-0.261111111,1,0,0,1.6648,Andesite_rect,15,0,15,0,1,
5d01b9d4c9281200151c7c6b,SCN,2024-06-20_16h32.13.183,LearnStrategy,2023.2.3,Win32,60.24096386,5,1,1,0.523611111,-0.421527778,1,0,0,1.584,Pumice_13,8,13,1,8,1.584,0.375694444,-0.386111111,1,0,0,1.4665,Pumice_rect,8,1.466,1,0,0,0,0,1,,,,,,,,,,,,,
5d01b9d4c9281200151c7c6b,SCN,2024-06-20_16h32.13.183,LearnStrategy,2023.2.3,Win32,60.24096386,5,1,2,-0.079861111,-0.440972222,1,0,0,0.8839,Peridotite_04,7,04,1,4,0.884,0.092361111,-0.411111111,1,0,0,0.6824,Peridotite_rect,7,0.682,1,1,0,1,0,1,,,,,,,,,,,,,
5d01b9d4c9281200151c7c6b,SCN,2024-06-20_16h32.13.183,LearnStrategy,2023.2.3,Win32,60.24096386,5,1,3,0.550694444,0.397222222,1,0,0,3.3528,Andesite_04,1,04,6,8,3.353,-0.445833333,-0.230555556,1,0,0,2.3281,Andesite_rect,1,2.328,1,2,0,2,0,1,,,,,,,,,,,,,
5d01b9d4c9281200151c7c6b,SCN,2024-06-20_16h32.13.183,LearnStrategy,2023.2.3,Win32,60.24096386,5,1,4,-0.081944444,0.115277778,1,0,0,1.4511,Basalt_11,2,11,4,4,1.451,0.35,-0.254166667,1,0,0,2.6344,Gabbro_rect,4,2.634,0,3,0,3,0,1,,,,,,,,,,,,,
5d01b9d4c9281200151c7c6b,SCN,2024-06-20_16h32.13.183,LearnStrategy,2023.2.3,Win32,60.24096386,5,1,5,-0.088888889,0.2375,1,0,0,2.0177,Gabbro_10,4,10,5,4,2.018,0.415277778,-0.263888889,1,0,0,3.1186,Gabbro_rect,4,3.119,1,4,0,4,0,1,,,,,,,,,,,,,
5d01b9d4c9281200151c7c6b,SCN,2024-06-20_16h32.13.183,LearnStrategy,2023.2.3,Win32,60.24096386,5,1,6,0.038888889,0.220138889,1,0,0,1.2833,Diorite_06,3,06,5,5,1.283,0.13125,-0.268055556,1,0,0,1.3671,Diorite_rect,3,1.367,1,5,0,5,0,1,,,,,,,,,,,,,
5d01b9d4c9281200151c7c6b,SCN,2024-06-20_16h32.13.183,LearnStrategy,2023.2.3,Win32,60.24096386,5,1,7,0.064583333,-0.088194444,1,0,0,1.868,Obsidian_10,5,10,3,5,1.868,-0.377777778,-0.400694444,1,0,0,0.7673,Obsidian_rect,5,0.767,1,6,0,6,0,1,,,,,,,,,,,,,
5d01b9d4c9281200151c7c6b,SCN,2024-06-20_16h32.13.183,LearnStrategy,2023.2.3,Win32,60.24096386,5,1,8,0.075694444,0.088194444,1,0,0,0.7339,Pumice_02,8,02,4,5,0.734,0.35625,-0.405555556,1,0,0,1.4881,Pumice_rect,8,1.488,1,7,0,7,0,1,,,,,,,,,,,,,
5d01b9d4c9281200151c7c6b,SCN,2024-06-20_16h32.13.183,LearnStrategy,2023.2.3,Win32,60.24096386,5,1,9,-0.245138889,0.119444444,1,0,0,0.8343,Diorite_13,3,13,4,3,0.834,0.118055556,-0.236111111,1,0,0,1.3161,Diorite_rect,3,1.316,1,8,0,8,0,1,,,,,,,,,,,,,
5d01b9d4c9281200151c7c6b,SCN,2024-06-20_16h32.13.183,LearnStrategy,2023.2.3,Win32,60.24096386,5,1,10,0.433333333,-0.064583333,1,0,0,0.7678,Peridotite_06,7,06,3,7,0.768,-0.097222222,-0.388888889,1,0,0,1.2325,Pegmatite_rect,6,1.232,0,9,0,9,0,1,,,,,,,,,,,,,
5d01b9d4c9281200151c7c6b,SCN,2024-06-20_16h32.13.183,LearnStrategy,2023.2.3,Win32,60.24096386,5,1,11,-0.200694444,0.20625,1,0,0,1.0343,Basalt_08,2,08,5,3,1.034,-0.168055556,-0.245138889,1,0,0,2.0502,Basalt_rect,2,2.05,1,10,0,10,0,1,,,,,,,,,,,,,
5d01b9d4c9281200151c7c6b,SCN,2024-06-20_16h32.13.183,LearnStrategy,2023.2.3,Win32,60.24096386,5,1,12,-0.046527778,0.25,1,0,0,1.368,Gabbro_10,4,10,5,4,1.368,0.4375,-0.263194444,1,0,0,1.8657,Gabbro_rect,4,1.866,1,11,0,11,0,1,,,,,,,,,,,,,
5d01b9d4c9281200151c7c6b,SCN,2024-06-20_16h32.13.183,LearnStrategy,2023.2.3,Win32,60.24096386,5,1,13,-0.132638889,-0.138194444,1,0,0,1.351,Pumice_04,8,04,3,4,1.351,0.484027778,-0.386805556,1,0,0,0.9155,Pumice_rect,8,0.916,1,12,0,12,0,1,,,,,,,,,,,,,
5d01b9d4c9281200151c7c6b,SCN,2024-06-20_16h32.13.183,LearnStrategy,2023.2.3,Win32,60.24096386,5,1,14,-0.190277778,0.293055556,1,0,0,0.8509,Basalt_08,2,08,5,3,0.851,-0.111111111,-0.261111111,1,0,0,2.7,Basalt_rect,2,2.7,1,13,0,13,0,1,,,,,,,,,,,,,
5d01b9d4c9281200151c7c6b,SCN,2024-06-20_16h32.13.183,LearnStrategy,2023.2.3,Win32,60.24096386,5,1,15,-0.524305556,-0.25,1,0,0,1.584,Peridotite_14,7,14,2,1,1.584,0.159722222,-0.408333333,1,0,0,0.7332,Peridotite_rect,7,0.733,1,14,0,14,0,1,,,,,,,,,,,,,
5d01b9d4c9281200151c7c6b,SCN,2024-06-20_16h32.13.183,LearnStrategy,2023.2.3,Win32,60.24096386,5,1,16,-0.551388889,-0.424305556,1,0,0,1.3849,Gabbro_14,4,14,1,1,1.385,0.344444444,-0.236111111,1,0,0,1.3003,Gabbro_rect,4,1.3,1,15,0,15,0,1,,,,,,,,,,,,,
5d01b9d4c9281200151c7c6b,SCN,2024-06-20_16h32.13.183,LearnStrategy,2023.2.3,Win32,60.24096386,5,2,1,,,,,,,,4,05,,,,,,,,,,,4,3.152,1,,,,,,0.363194444,-0.240972222,1,0,0,3.1522,Gabbro_rect,0,0,0,0,1,
5d01b9d4c9281200151c7c6b,SCN,2024-06-20_16h32.13.183,LearnStrategy,2023.2.3,Win32,60.24096386,5,2,2,,,,,,,,3,12,,,,,,,,,,,3,2.669,1,,,,,,0.095833333,-0.244444444,1,0,0,2.6694,Diorite_rect,1,0,1,0,1,
5d01b9d4c9281200151c7c6b,SCN,2024-06-20_16h32.13.183,LearnStrategy,2023.2.3,Win32,60.24096386,5,2,3,,,,,,,,1,01,,,,,,,,,,,4,6.189,0,,,,,,0.374305556,-0.252777778,1,0,0,6.1893,Gabbro_rect,2,0,2,0,1,
5d01b9d4c9281200151c7c6b,SCN,2024-06-20_16h32.13.183,LearnStrategy,2023.2.3,Win32,60.24096386,5,2,4,,,,,,,,7,15,,,,,,,,,,,7,0.933,1,,,,,,0.131944444,-0.420138889,1,0,0,0.933,Peridotite_rect,3,0,3,0,1,
5d01b9d4c9281200151c7c6b,SCN,2024-06-20_16h32.13.183,LearnStrategy,2023.2.3,Win32,60.24096386,5,2,5,,,,,,,,7,16,,,,,,,,,,,7,2.602,1,,,,,,0.125,-0.389583333,1,0,0,2.6018,Peridotite_rect,4,0,4,0,1,
5d01b9d4c9281200151c7c6b,SCN,2024-06-20_16h32.13.183,LearnStrategy,2023.2.3,Win32,60.24096386,5,2,6,,,,,,,,2,05,,,,,,,,,,,2,1.117,1,,,,,,-0.069444444,-0.256944444,1,0,0,1.1173,Basalt_rect,5,0,5,0,1,
5d01b9d4c9281200151c7c6b,SCN,2024-06-20_16h32.13.183,LearnStrategy,2023.2.3,Win32,60.24096386,5,2,7,,,,,,,,8,15,,,,,,,,,,,8,1.801,1,,,,,,0.399305556,-0.407638889,1,0,0,1.8013,Pumice_rect,6,0,6,0,1,
5d01b9d4c9281200151c7c6b,SCN,2024-06-20_16h32.13.183,LearnStrategy,2023.2.3,Win32,60.24096386,5,2,8,,,,,,,,1,03,,,,,,,,,,,4,4.771,0,,,,,,0.398611111,-0.261111111,1,0,0,4.7708,Gabbro_rect,7,0,7,0,1,
5d01b9d4c9281200151c7c6b,SCN,2024-06-20_16h32.13.183,LearnStrategy,2023.2.3,Win32,60.24096386,5,2,9,,,,,,,,6,10,,,,,,,,,,,6,1.017,1,,,,,,-0.146527778,-0.411111111,1,0,0,1.0171,Pegmatite_rect,8,0,8,0,1,
5d01b9d4c9281200151c7c6b,SCN,2024-06-20_16h32.13.183,LearnStrategy,2023.2.3,Win32,60.24096386,5,2,10,,,,,,,,6,05,,,,,,,,,,,6,2.786,1,,,,,,-0.11875,-0.410416667,1,0,0,2.7862,Pegmatite_rect,9,0,9,0,1,
5d01b9d4c9281200151c7c6b,SCN,2024-06-20_16h32.13.183,LearnStrategy,2023.2.3,Win32,60.24096386,5,2,11,,,,,,,,4,15,,,,,,,,,,,1,5.755,0,,,,,,-0.377083333,-0.2375,1,0,0,5.7545,Andesite_rect,10,0,10,0,1,
5d01b9d4c9281200151c7c6b,SCN,2024-06-20_16h32.13.183,LearnStrategy,2023.2.3,Win32,60.24096386,5,2,12,,,,,,,,3,07,,,,,,,,,,,3,1.785,1,,,,,,0.13125,-0.241666667,1,0,0,1.785,Diorite_rect,11,0,11,0,1,
5d01b9d4c9281200151c7c6b,SCN,2024-06-20_16h32.13.183,LearnStrategy,2023.2.3,Win32,60.24096386,5,2,13,,,,,,,,2,01,,,,,,,,,,,2,0.883,1,,,,,,-0.135416667,-0.250694444,1,0,0,0.8829,Basalt_rect,12,0,12,0,1,
5d01b9d4c9281200151c7c6b,SCN,2024-06-20_16h32.13.183,LearnStrategy,2023.2.3,Win32,60.24096386,5,2,14,,,,,,,,5,06,,,,,,,,,,,5,1.919,1,,,,,,-0.349305556,-0.39375,1,0,0,1.9187,Obsidian_rect,13,0,13,0,1,
5d01b9d4c9281200151c7c6b,SCN,2024-06-20_16h32.13.183,LearnStrategy,2023.2.3,Win32,60.24096386,5,2,15,,,,,,,,5,04,,,,,,,,,,,5,0.55,1,,,,,,-0.346527778,-0.395138889,1,0,0,0.5504,Obsidian_rect,14,0,14,0,1,
5d01b9d4c9281200151c7c6b,SCN,2024-06-20_16h32.13.183,LearnStrategy,2023.2.3,Win32,60.24096386,5,2,16,,,,,,,,8,05,,,,,,,,,,,8,0.923,1,,,,,,0.482638889,-0.414583333,1,0,0,0.9231,Pumice_rect,15,0,15,0,1,
5d01b9d4c9281200151c7c6b,SCN,2024-06-20_16h32.13.183,LearnStrategy,2023.2.3,Win32,60.24096386,6,1,1,-0.088888889,0.244444444,1,0,0,1.0009,Gabbro_10,4,10,5,4,1.001,0.357638889,-0.248611111,1,0,0,0.9993,Gabbro_rect,4,0.999,1,0,0,0,0,1,,,,,,,,,,,,,
5d01b9d4c9281200151c7c6b,SCN,2024-06-20_16h32.13.183,LearnStrategy,2023.2.3,Win32,60.24096386,6,1,2,-0.515277778,0.408333333,1,0,0,0.7009,Andesite_16,1,16,6,1,0.701,-0.385416667,-0.248611111,1,0,0,1.4835,Andesite_rect,1,1.484,1,1,0,1,0,1,,,,,,,,,,,,,
5d01b9d4c9281200151c7c6b,SCN,2024-06-20_16h32.13.183,LearnStrategy,2023.2.3,Win32,60.24096386,6,1,3,-0.436111111,0.415972222,1,0,0,0.7019,Basalt_12,2,12,6,2,0.702,-0.113194444,-0.247916667,1,0,0,1.7768,Basalt_rect,2,1.777,1,2,0,2,0,1,,,,,,,,,,,,,
5d01b9d4c9281200151c7c6b,SCN,2024-06-20_16h32.13.183,LearnStrategy,2023.2.3,Win32,60.24096386,6,1,4,-0.225,0.402777778,1,0,0,0.5708,Gabbro_08,4,08,6,3,0.571,0.338194444,-0.238194444,1,0,0,0.8991,Gabbro_rect,4,0.899,1,3,0,3,0,1,,,,,,,,,,,,,
5d01b9d4c9281200151c7c6b,SCN,2024-06-20_16h32.13.183,LearnStrategy,2023.2.3,Win32,60.24096386,6,1,5,0.063888889,0.397222222,1,0,0,1.0836,Andesite_14,1,14,6,5,1.084,-0.340277778,-0.233333333,1,0,0,1.4468,Andesite_rect,1,1.447,1,4,0,4,0,1,,,,,,,,,,,,,
5d01b9d4c9281200151c7c6b,SCN,2024-06-20_16h32.13.183,LearnStrategy,2023.2.3,Win32,60.24096386,6,1,6,0.277777778,0.416666667,1,0,0,0.8502,Pegmatite_09,6,09,6,6,0.85,-0.071527778,-0.378472222,1,0,0,1.0961,Pegmatite_rect,6,1.096,1,5,0,5,0,1,,,,,,,,,,,,,
5d01b9d4c9281200151c7c6b,SCN,2024-06-20_16h32.13.183,LearnStrategy,2023.2.3,Win32,60.24096386,6,1,7,0.544444444,0.402777778,1,0,0,1.0505,Andesite_04,1,04,6,8,1.051,-0.363888889,-0.247916667,1,0,0,2.2266,Andesite_rect,1,2.227,1,6,0,6,0,1,,,,,,,,,,,,,
5d01b9d4c9281200151c7c6b,SCN,2024-06-20_16h32.13.183,LearnStrategy,2023.2.3,Win32,60.24096386,6,1,8,-0.518055556,0.234722222,1,0,0,0.9329,Diorite_02,3,02,5,1,0.933,0.094444444,-0.231944444,1,0,0,0.9955,Diorite_rect,3,0.995,1,7,0,7,0,1,,,,,,,,,,,,,
5d01b9d4c9281200151c7c6b,SCN,2024-06-20_16h32.13.183,LearnStrategy,2023.2.3,Win32,60.24096386,6,1,9,-0.236111111,0.257638889,1,0,0,1.6843,Basalt_08,2,08,5,3,1.684,-0.108333333,-0.250694444,1,0,0,0.8959,Basalt_rect,2,0.896,1,8,0,8,0,1,,,,,,,,,,,,,
5d01b9d4c9281200151c7c6b,SCN,2024-06-20_16h32.13.183,LearnStrategy,2023.2.3,Win32,60.24096386,6,1,10,-0.071527778,0.238194444,1,0,0,0.7837,Gabbro_10,4,10,5,4,0.784,0.390277778,-0.238194444,1,0,0,1.4296,Gabbro_rect,4,1.43,1,9,0,9,0,1,,,,,,,,,,,,,
5d01b9d4c9281200151c7c6b,SCN,2024-06-20_16h32.13.183,LearnStrategy,2023.2.3,Win32,60.24096386,6,1,11,0.083333333,0.234027778,1,0,0,0.7832,Diorite_06,3,06,5,5,0.783,0.141666667,-0.233333333,1,0,0,1.2598,Diorite_rect,3,1.26,1,10,0,10,0,1,,,,,,,,,,,,,
5d01b9d4c9281200151c7c6b,SCN,2024-06-20_16h32.13.183,LearnStrategy,2023.2.3,Win32,60.24096386,6,1,12,0.234722222,0.255555556,1,0,0,0.7834,Pegmatite_13,6,13,5,6,0.783,-0.085416667,-0.411111111,1,0,0,1.5968,Pegmatite_rect,6,1.597,1,11,0,11,0,1,,,,,,,,,,,,,
5d01b9d4c9281200151c7c6b,SCN,2024-06-20_16h32.13.183,LearnStrategy,2023.2.3,Win32,60.24096386,6,1,13,0.390277778,0.25,1,0,0,0.7168,Peridotite_05,7,05,5,7,0.717,0.161111111,-0.396527778,1,0,0,1.4798,Peridotite_rect,7,1.48,1,12,0,12,0,1,,,,,,,,,,,,,
5d01b9d4c9281200151c7c6b,SCN,2024-06-20_16h32.13.183,LearnStrategy,2023.2.3,Win32,60.24096386,6,1,14,0.552777778,0.263194444,1,0,0,0.7504,Andesite_07,1,07,5,8,0.75,-0.331944444,-0.242361111,1,0,0,1.8797,Andesite_rect,1,1.88,1,13,0,13,0,1,,,,,,,,,,,,,
5d01b9d4c9281200151c7c6b,SCN,2024-06-20_16h32.13.183,LearnStrategy,2023.2.3,Win32,60.24096386,6,1,15,-0.402777778,0.085416667,1,0,0,2.1844,Pegmatite_03,6,03,4,2,2.184,-0.102777778,-0.419444444,1,0,0,1.4461,Pegmatite_rect,6,1.446,1,14,0,14,0,1,,,,,,,,,,,,,
5d01b9d4c9281200151c7c6b,SCN,2024-06-20_16h32.13.183,LearnStrategy,2023.2.3,Win32,60.24096386,6,1,16,-0.243055556,0.098611111,1,0,0,1.0002,Diorite_13,3,13,4,3,1,0.155555556,-0.252777778,1,0,0,1.8635,Diorite_rect,3,1.863,1,15,0,15,0,1,,,,,,,,,,,,,
5d01b9d4c9281200151c7c6b,SCN,2024-06-20_16h32.13.183,LearnStrategy,2023.2.3,Win32,60.24096386,6,2,1,,,,,,,,8,10,,,,,,,,,,,8,1.748,1,,,,,,0.403472222,-0.403472222,1,0,0,1.7478,Pumice_rect,0,0,0,0,1,
5d01b9d4c9281200151c7c6b,SCN,2024-06-20_16h32.13.183,LearnStrategy,2023.2.3,Win32,60.24096386,6,2,2,,,,,,,,5,02,,,,,,,,,,,5,0.962,1,,,,,,-0.379861111,-0.409722222,1,0,0,0.9624,Obsidian_rect,1,0,1,0,1,
5d01b9d4c9281200151c7c6b,SCN,2024-06-20_16h32.13.183,LearnStrategy,2023.2.3,Win32,60.24096386,6,2,3,,,,,,,,6,16,,,,,,,,,,,6,1.23,1,,,,,,-0.200694444,-0.410416667,1,0,0,1.2295,Pegmatite_rect,2,0,2,0,1,
5d01b9d4c9281200151c7c6b,SCN,2024-06-20_16h32.13.183,LearnStrategy,2023.2.3,Win32,60.24096386,6,2,4,,,,,,,,7,10,,,,,,,,,,,7,1.146,1,,,,,,0.118055556,-0.40625,1,0,0,1.1458,Peridotite_rect,3,0,3,0,1,
5d01b9d4c9281200151c7c6b,SCN,2024-06-20_16h32.13.183,LearnStrategy,2023.2.3,Win32,60.24096386,6,2,5,,,,,,,,2,02,,,,,,,,,,,2,1.113,1,,,,,,-0.085416667,-0.265277778,1,0,0,1.1133,Basalt_rect,4,0,4,0,1,
5d01b9d4c9281200151c7c6b,SCN,2024-06-20_16h32.13.183,LearnStrategy,2023.2.3,Win32,60.24096386,6,2,6,,,,,,,,6,12,,,,,,,,,,,6,2.581,1,,,,,,-0.102777778,-0.398611111,1,0,0,2.5808,Pegmatite_rect,5,0,5,0,1,
5d01b9d4c9281200151c7c6b,SCN,2024-06-20_16h32.13.183,LearnStrategy,2023.2.3,Win32,60.24096386,6,2,7,,,,,,,,2,14,,,,,,,,,,,4,9.387,0,,,,,,0.428472222,-0.258333333,1,0,0,9.3867,Gabbro_rect,6,0,6,0,1,
5d01b9d4c9281200151c7c6b,SCN,2024-06-20_16h32.13.183,LearnStrategy,2023.2.3,Win32,60.24096386,6,2,8,,,,,,,,7,13,,,,,,,,,,,7,1.474,1,,,,,,0.144444444,-0.415277778,1,0,0,1.4737,Peridotite_rect,7,0,7,0,1,
5d01b9d4c9281200151c7c6b,SCN,2024-06-20_16h32.13.183,LearnStrategy,2023.2.3,Win32,60.24096386,6,2,9,,,,,,,,4,01,,,,,,,,,,,4,4.482,1,,,,,,0.379861111,-0.238888889,1,0,0,4.4825,Gabbro_rect,8,0,8,0,1,
5d01b9d4c9281200151c7c6b,SCN,2024-06-20_16h32.13.183,LearnStrategy,2023.2.3,Win32,60.24096386,6,2,10,,,,,,,,8,08,,,,,,,,,,,8,0.973,1,,,,,,0.386805556,-0.394444444,1,0,0,0.9727,Pumice_rect,9,0,9,0,1,
5d01b9d4c9281200151c7c6b,SCN,2024-06-20_16h32.13.183,LearnStrategy,2023.2.3,Win32,60.24096386,6,2,11,,,,,,,,5,11,,,,,,,,,,,5,1.012,1,,,,,,-0.404861111,-0.379861111,1,0,0,1.0125,Obsidian_rect,10,0,10,0,1,
5d01b9d4c9281200151c7c6b,SCN,2024-06-20_16h32.13.183,LearnStrategy,2023.2.3,Win32,60.24096386,6,2,12,,,,,,,,1,09,,,,,,,,,,,4,3.398,0,,,,,,0.36875,-0.24375,1,0,0,3.3981,Gabbro_rect,11,0,11,0,1,
5d01b9d4c9281200151c7c6b,SCN,2024-06-20_16h32.13.183,LearnStrategy,2023.2.3,Win32,60.24096386,6,2,13,,,,,,,,3,10,,,,,,,,,,,3,1.824,1,,,,,,0.082638889,-0.264583333,1,0,0,1.8244,Diorite_rect,12,0,12,0,1,
5d01b9d4c9281200151c7c6b,SCN,2024-06-20_16h32.13.183,LearnStrategy,2023.2.3,Win32,60.24096386,6,2,14,,,,,,,,3,11,,,,,,,,,,,3,1.292,1,,,,,,0.120833333,-0.252777778,1,0,0,1.2918,Diorite_rect,13,0,13,0,1,
5d01b9d4c9281200151c7c6b,SCN,2024-06-20_16h32.13.183,LearnStrategy,2023.2.3,Win32,60.24096386,6,2,15,,,,,,,,1,11,,,,,,,,,,,1,2.214,1,,,,,,-0.340277778,-0.25,1,0,0,2.2135,Andesite_rect,14,0,14,0,1,
5d01b9d4c9281200151c7c6b,SCN,2024-06-20_16h32.13.183,LearnStrategy,2023.2.3,Win32,60.24096386,6,2,16,,,,,,,,4,09,,,,,,,,,,,2,2.862,0,,,,,,-0.129861111,-0.261805556,1,0,0,2.8621,Basalt_rect,15,0,15,0,1,
5d01b9d4c9281200151c7c6b,SCN,2024-06-20_16h32.13.183,LearnStrategy,2023.2.3,Win32,60.24096386,7,1,1,-0.227083333,0.093055556,1,0,0,4.7704,Diorite_13,3,13,4,3,4.77,0.065277778,-0.254861111,1,0,0,0.6909,Diorite_rect,3,0.691,1,0,0,0,0,1,,,,,,,,,,,,,
5d01b9d4c9281200151c7c6b,SCN,2024-06-20_16h32.13.183,LearnStrategy,2023.2.3,Win32,60.24096386,7,1,2,-0.067361111,0.117361111,1,0,0,0.5499,Basalt_11,2,11,4,4,0.55,0.419444444,-0.257638889,1,0,0,2.6972,Gabbro_rect,4,2.697,0,1,0,1,0,1,,,,,,,,,,,,,
5d01b9d4c9281200151c7c6b,SCN,2024-06-20_16h32.13.183,LearnStrategy,2023.2.3,Win32,60.24096386,7,1,3,0.063888889,0.095833333,1,0,0,0.5662,Pumice_02,8,02,4,5,0.566,0.329861111,-0.411111111,1,0,0,1.1296,Pumice_rect,8,1.13,1,2,0,2,0,1,,,,,,,,,,,,,
5d01b9d4c9281200151c7c6b,SCN,2024-06-20_16h32.13.183,LearnStrategy,2023.2.3,Win32,60.24096386,7,1,4,0.259027778,0.113194444,1,0,0,0.5165,Peridotite_02,7,02,4,6,0.516,0.139583333,-0.394444444,1,0,0,0.8959,Peridotite_rect,7,0.896,1,3,0,3,0,1,,,,,,,,,,,,,
5d01b9d4c9281200151c7c6b,SCN,2024-06-20_16h32.13.183,LearnStrategy,2023.2.3,Win32,60.24096386,7,1,5,0.425,0.119444444,1,0,0,0.6998,Basalt_16,2,16,4,7,0.7,0.408333333,-0.236111111,1,0,0,1.1635,Gabbro_rect,4,1.163,0,4,0,4,0,1,,,,,,,,,,,,,
5d01b9d4c9281200151c7c6b,SCN,2024-06-20_16h32.13.183,LearnStrategy,2023.2.3,Win32,60.24096386,7,1,6,0.575694444,0.090972222,1,0,0,0.6834,Diorite_09,3,09,4,8,0.683,0.082638889,-0.268055556,1,0,0,0.896,Diorite_rect,3,0.896,1,5,0,5,0,1,,,,,,,,,,,,,
5d01b9d4c9281200151c7c6b,SCN,2024-06-20_16h32.13.183,LearnStrategy,2023.2.3,Win32,60.24096386,7,1,7,-0.521527778,-0.123611111,1,0,0,0.7,Diorite_16,3,16,3,1,0.7,0.088194444,-0.234027778,1,0,0,0.8294,Diorite_rect,3,0.829,1,6,0,6,0,1,,,,,,,,,,,,,
5d01b9d4c9281200151c7c6b,SCN,2024-06-20_16h32.13.183,LearnStrategy,2023.2.3,Win32,60.24096386,7,1,8,-0.390972222,-0.117361111,1,0,0,0.7835,Pumice_14,8,14,3,2,0.784,0.443055556,-0.408333333,1,0,0,0.8627,Pumice_rect,8,0.863,1,7,0,7,0,1,,,,,,,,,,,,,
5d01b9d4c9281200151c7c6b,SCN,2024-06-20_16h32.13.183,LearnStrategy,2023.2.3,Win32,60.24096386,7,1,9,-0.225694444,-0.102083333,1,0,0,0.8002,Pegmatite_08,6,08,3,3,0.8,-0.090972222,-0.39375,1,0,0,0.629,Pegmatite_rect,6,0.629,1,8,0,8,0,1,,,,,,,,,,,,,
5d01b9d4c9281200151c7c6b,SCN,2024-06-20_16h32.13.183,LearnStrategy,2023.2.3,Win32,60.24096386,7,1,10,-0.105555556,-0.104166667,1,0,0,0.5188,Pumice_04,8,04,3,4,0.519,0.353472222,-0.379861111,1,0,0,0.9441,Pumice_rect,8,0.944,1,9,0,9,0,1,,,,,,,,,,,,,
5d01b9d4c9281200151c7c6b,SCN,2024-06-20_16h32.13.183,LearnStrategy,2023.2.3,Win32,60.24096386,7,1,11,0.283333333,-0.113888889,1,0,0,0.9501,Andesite_05,1,05,3,6,0.95,-0.375,-0.254861111,1,0,0,1.3798,Andesite_rect,1,1.38,1,10,0,10,0,1,,,,,,,,,,,,,
5d01b9d4c9281200151c7c6b,SCN,2024-06-20_16h32.13.183,LearnStrategy,2023.2.3,Win32,60.24096386,7,1,12,0.434722222,-0.120833333,1,0,0,0.6689,Peridotite_06,7,06,3,7,0.669,-0.104166667,-0.413194444,1,0,0,0.7304,Pegmatite_rect,6,0.73,0,11,0,11,0,1,,,,,,,,,,,,,
5d01b9d4c9281200151c7c6b,SCN,2024-06-20_16h32.13.183,LearnStrategy,2023.2.3,Win32,60.24096386,7,1,13,0.564583333,-0.122222222,1,0,0,0.6501,Pumice_09,8,09,3,8,0.65,0.418055556,-0.402083333,1,0,0,0.6285,Pumice_rect,8,0.629,1,12,0,12,0,1,,,,,,,,,,,,,
5d01b9d4c9281200151c7c6b,SCN,2024-06-20_16h32.13.183,LearnStrategy,2023.2.3,Win32,60.24096386,7,1,14,-0.534722222,-0.279166667,1,0,0,0.7836,Peridotite_14,7,14,2,1,0.784,0.075,-0.396527778,1,0,0,0.7462,Peridotite_rect,7,0.746,1,13,0,13,0,1,,,,,,,,,,,,,
5d01b9d4c9281200151c7c6b,SCN,2024-06-20_16h32.13.183,LearnStrategy,2023.2.3,Win32,60.24096386,7,1,15,-0.355555556,-0.247222222,1,0,0,0.8005,Gabbro_03,4,03,2,2,0.801,0.329861111,-0.255555556,1,0,0,1.7461,Gabbro_rect,4,1.746,1,14,0,14,0,1,,,,,,,,,,,,,
5d01b9d4c9281200151c7c6b,SCN,2024-06-20_16h32.13.183,LearnStrategy,2023.2.3,Win32,60.24096386,7,1,16,-0.247916667,-0.278472222,1,0,0,0.8335,Pegmatite_06,6,06,2,3,0.834,-0.08125,-0.419444444,1,0,0,0.9466,Pegmatite_rect,6,0.947,1,15,0,15,0,1,,,,,,,,,,,,,
5d01b9d4c9281200151c7c6b,SCN,2024-06-20_16h32.13.183,LearnStrategy,2023.2.3,Win32,60.24096386,7,2,1,,,,,,,,6,16,,,,,,,,,,,6,1.636,1,,,,,,-0.079861111,-0.388194444,1,0,0,1.6357,Pegmatite_rect,0,0,0,0,1,
5d01b9d4c9281200151c7c6b,SCN,2024-06-20_16h32.13.183,LearnStrategy,2023.2.3,Win32,60.24096386,7,2,2,,,,,,,,5,04,,,,,,,,,,,5,1.151,1,,,,,,-0.379166667,-0.413888889,1,0,0,1.151,Obsidian_rect,1,0,1,0,1,
5d01b9d4c9281200151c7c6b,SCN,2024-06-20_16h32.13.183,LearnStrategy,2023.2.3,Win32,60.24096386,7,2,3,,,,,,,,1,11,,,,,,,,,,,1,9.674,1,,,,,,-0.393055556,-0.254861111,1,0,0,9.6735,Andesite_rect,2,0,2,0,1,
5d01b9d4c9281200151c7c6b,SCN,2024-06-20_16h32.13.183,LearnStrategy,2023.2.3,Win32,60.24096386,7,2,4,,,,,,,,8,06,,,,,,,,,,,8,0.927,1,,,,,,0.3625,-0.411111111,1,0,0,0.9273,Pumice_rect,3,0,3,0,1,
5d01b9d4c9281200151c7c6b,SCN,2024-06-20_16h32.13.183,LearnStrategy,2023.2.3,Win32,60.24096386,7,2,5,,,,,,,,5,11,,,,,,,,,,,5,0.934,1,,,,,,-0.348611111,-0.406944444,1,0,0,0.9343,Obsidian_rect,4,0,4,0,1,
5d01b9d4c9281200151c7c6b,SCN,2024-06-20_16h32.13.183,LearnStrategy,2023.2.3,Win32,60.24096386,7,2,6,,,,,,,,8,03,,,,,,,,,,,8,1.735,1,,,,,,0.388194444,-0.408333333,1,0,0,1.7345,Pumice_rect,5,0,5,0,1,
5d01b9d4c9281200151c7c6b,SCN,2024-06-20_16h32.13.183,LearnStrategy,2023.2.3,Win32,60.24096386,7,2,7,,,,,,,,4,09,,,,,,,,,,,2,3.519,0,,,,,,-0.106944444,-0.258333333,1,0,0,3.519,Basalt_rect,6,0,6,0,1,
5d01b9d4c9281200151c7c6b,SCN,2024-06-20_16h32.13.183,LearnStrategy,2023.2.3,Win32,60.24096386,7,2,8,,,,,,,,7,10,,,,,,,,,,,7,1.178,1,,,,,,0.134722222,-0.404166667,1,0,0,1.1775,Peridotite_rect,7,0,7,0,1,
5d01b9d4c9281200151c7c6b,SCN,2024-06-20_16h32.13.183,LearnStrategy,2023.2.3,Win32,60.24096386,7,2,9,,,,,,,,7,07,,,,,,,,,,,7,0.866,1,,,,,,0.108333333,-0.404166667,1,0,0,0.8658,Peridotite_rect,8,0,8,0,1,
5d01b9d4c9281200151c7c6b,SCN,2024-06-20_16h32.13.183,LearnStrategy,2023.2.3,Win32,60.24096386,7,2,10,,,,,,,,3,11,,,,,,,,,,,3,1.051,1,,,,,,0.132638889,-0.270833333,1,0,0,1.0511,Diorite_rect,9,0,9,0,1,
5d01b9d4c9281200151c7c6b,SCN,2024-06-20_16h32.13.183,LearnStrategy,2023.2.3,Win32,60.24096386,7,2,11,,,,,,,,3,10,,,,,,,,,,,3,0.667,1,,,,,,0.133333333,-0.260416667,1,0,0,0.6674,Diorite_rect,10,0,10,0,1,
5d01b9d4c9281200151c7c6b,SCN,2024-06-20_16h32.13.183,LearnStrategy,2023.2.3,Win32,60.24096386,7,2,12,,,,,,,,2,05,,,,,,,,,,,2,1.068,1,,,,,,-0.15625,-0.265277778,1,0,0,1.0676,Basalt_rect,11,0,11,0,1,
5d01b9d4c9281200151c7c6b,SCN,2024-06-20_16h32.13.183,LearnStrategy,2023.2.3,Win32,60.24096386,7,2,13,,,,,,,,1,06,,,,,,,,,,,1,5.154,1,,,,,,-0.36875,-0.247916667,1,0,0,5.1544,Andesite_rect,12,0,12,0,1,
5d01b9d4c9281200151c7c6b,SCN,2024-06-20_16h32.13.183,LearnStrategy,2023.2.3,Win32,60.24096386,7,2,14,,,,,,,,4,05,,,,,,,,,,,4,1.478,1,,,,,,0.4125,-0.254166667,1,0,0,1.4778,Gabbro_rect,13,0,13,0,1,
5d01b9d4c9281200151c7c6b,SCN,2024-06-20_16h32.13.183,LearnStrategy,2023.2.3,Win32,60.24096386,7,2,15,,,,,,,,6,05,,,,,,,,,,,6,2.035,1,,,,,,-0.1,-0.400694444,1,0,0,2.0354,Pegmatite_rect,14,0,14,0,1,
5d01b9d4c9281200151c7c6b,SCN,2024-06-20_16h32.13.183,LearnStrategy,2023.2.3,Win32,60.24096386,7,2,16,,,,,,,,2,06,,,,,,,,,,,2,1.247,1,,,,,,-0.090972222,-0.259027778,1,0,0,1.2471,Basalt_rect,15,0,15,0,1,
5d01b9d4c9281200151c7c6b,SCN,2024-06-20_16h32.13.183,LearnStrategy,2023.2.3,Win32,60.24096386,8,1,1,0.236111111,-0.249305556,1,0,0,1.6182,Obsidian_07,5,07,2,6,1.618,-0.389583333,-0.384027778,1,0,0,0.7325,Obsidian_rect,5,0.733,1,0,0,0,0,1,,,,,,,,,,,,,
5d01b9d4c9281200151c7c6b,SCN,2024-06-20_16h32.13.183,LearnStrategy,2023.2.3,Win32,60.24096386,8,1,2,-0.404166667,-0.241666667,1,0,0,3.2693,Gabbro_03,4,03,2,2,3.269,0.456944444,-0.250694444,1,0,0,1.6118,Gabbro_rect,4,1.612,1,1,0,1,0,1,,,,,,,,,,,,,
5d01b9d4c9281200151c7c6b,SCN,2024-06-20_16h32.13.183,LearnStrategy,2023.2.3,Win32,60.24096386,8,1,3,-0.069444444,-0.275,1,0,0,0.9508,Gabbro_11,4,11,2,4,0.951,0.403472222,-0.252083333,1,0,0,1.3165,Gabbro_rect,4,1.316,1,2,0,2,0,1,,,,,,,,,,,,,
5d01b9d4c9281200151c7c6b,SCN,2024-06-20_16h32.13.183,LearnStrategy,2023.2.3,Win32,60.24096386,8,1,4,0.436111111,-0.26875,1,0,0,0.9171,Basalt_09,2,09,2,7,0.917,-0.104861111,-0.25625,1,0,0,1.7171,Basalt_rect,2,1.717,1,3,0,3,0,1,,,,,,,,,,,,,
5d01b9d4c9281200151c7c6b,SCN,2024-06-20_16h32.13.183,LearnStrategy,2023.2.3,Win32,60.24096386,8,1,5,0.070833333,-0.4,1,0,0,1.3014,Basalt_04,2,04,1,5,1.301,0.338194444,-0.247222222,1,0,0,1.4499,Gabbro_rect,4,1.45,0,4,0,4,0,1,,,,,,,,,,,,,
5d01b9d4c9281200151c7c6b,SCN,2024-06-20_16h32.13.183,LearnStrategy,2023.2.3,Win32,60.24096386,8,1,6,0.254861111,-0.417361111,1,0,0,4.2201,Andesite_10,1,10,1,6,4.22,0.324305556,-0.257638889,1,0,0,0.7937,Gabbro_rect,4,0.794,0,5,0,5,0,1,,,,,,,,,,,,,
5d01b9d4c9281200151c7c6b,SCN,2024-06-20_16h32.13.183,LearnStrategy,2023.2.3,Win32,60.24096386,8,1,7,0.532638889,-0.246527778,1,0,0,4.2205,Gabbro_16,4,16,2,8,4.221,0.48125,-0.259722222,1,0,0,1.094,Gabbro_rect,4,1.094,1,6,0,6,0,1,,,,,,,,,,,,,
5d01b9d4c9281200151c7c6b,SCN,2024-06-20_16h32.13.183,LearnStrategy,2023.2.3,Win32,60.24096386,8,1,8,-0.077777778,-0.428472222,1,0,0,2.7019,Peridotite_04,7,04,1,4,2.702,0.095138889,-0.386805556,1,0,0,0.8931,Peridotite_rect,7,0.893,1,7,0,7,0,1,,,,,,,,,,,,,
5d01b9d4c9281200151c7c6b,SCN,2024-06-20_16h32.13.183,LearnStrategy,2023.2.3,Win32,60.24096386,8,1,9,-0.223611111,-0.413194444,1,0,0,0.833,Pegmatite_15,6,15,1,3,0.833,-0.140972222,-0.403472222,1,0,0,1.0162,Pegmatite_rect,6,1.016,1,8,0,8,0,1,,,,,,,,,,,,,
5d01b9d4c9281200151c7c6b,SCN,2024-06-20_16h32.13.183,LearnStrategy,2023.2.3,Win32,60.24096386,8,1,10,-0.542361111,-0.427777778,1,0,0,1.0504,Gabbro_14,4,14,1,1,1.05,0.368055556,-0.245833333,1,0,0,2.234,Gabbro_rect,4,2.234,1,9,0,9,0,1,,,,,,,,,,,,,
5d01b9d4c9281200151c7c6b,SCN,2024-06-20_16h32.13.183,LearnStrategy,2023.2.3,Win32,60.24096386,8,1,11,-0.568055556,-0.129166667,1,0,0,0.8013,Diorite_16,3,16,3,1,0.801,0.083333333,-0.25,1,0,0,1.3664,Diorite_rect,3,1.366,1,10,0,10,0,1,,,,,,,,,,,,,
5d01b9d4c9281200151c7c6b,SCN,2024-06-20_16h32.13.183,LearnStrategy,2023.2.3,Win32,60.24096386,8,1,12,-0.039583333,0.254166667,1,0,0,1.7843,Gabbro_10,4,10,5,4,1.784,0.375,-0.256944444,1,0,0,0.8838,Gabbro_rect,4,0.884,1,11,0,11,0,1,,,,,,,,,,,,,
5d01b9d4c9281200151c7c6b,SCN,2024-06-20_16h32.13.183,LearnStrategy,2023.2.3,Win32,60.24096386,8,1,13,0.095138889,0.086111111,1,0,0,1.5845,Pumice_02,8,02,4,5,1.585,0.400694444,-0.399305556,1,0,0,0.9502,Pumice_rect,8,0.95,1,12,0,12,0,1,,,,,,,,,,,,,
5d01b9d4c9281200151c7c6b,SCN,2024-06-20_16h32.13.183,LearnStrategy,2023.2.3,Win32,60.24096386,8,1,14,0.242361111,0.095138889,1,0,0,1.3013,Peridotite_02,7,02,4,6,1.301,0.189583333,-0.379166667,1,0,0,1.3164,Peridotite_rect,7,1.316,1,13,0,13,0,1,,,,,,,,,,,,,
5d01b9d4c9281200151c7c6b,SCN,2024-06-20_16h32.13.183,LearnStrategy,2023.2.3,Win32,60.24096386,8,1,15,0.404166667,0.261805556,1,0,0,0.8335,Peridotite_05,7,05,5,7,0.833,0.144444444,-0.393055556,1,0,0,1.4161,Peridotite_rect,7,1.416,1,14,0,14,0,1,,,,,,,,,,,,,
5d01b9d4c9281200151c7c6b,SCN,2024-06-20_16h32.13.183,LearnStrategy,2023.2.3,Win32,60.24096386,8,1,16,-0.384027778,-0.258333333,1,0,0,2.6024,Gabbro_03,4,03,2,2,2.602,0.359027778,-0.240277778,1,0,0,2.351,Gabbro_rect,4,2.351,1,15,0,15,0,1,,,,,,,,,,,,,
5d01b9d4c9281200151c7c6b,SCN,2024-06-20_16h32.13.183,LearnStrategy,2023.2.3,Win32,60.24096386,8,2,1,,,,,,,,1,03,,,,,,,,,,,1,3.119,1,,,,,,-0.360416667,-0.245833333,1,0,0,3.1186,Andesite_rect,0,0,0,0,1,
5d01b9d4c9281200151c7c6b,SCN,2024-06-20_16h32.13.183,LearnStrategy,2023.2.3,Win32,60.24096386,8,2,2,,,,,,,,8,10,,,,,,,,,,,8,1.078,1,,,,,,0.389583333,-0.409027778,1,0,0,1.0781,Pumice_rect,1,0,1,0,1,
5d01b9d4c9281200151c7c6b,SCN,2024-06-20_16h32.13.183,LearnStrategy,2023.2.3,Win32,60.24096386,8,2,3,,,,,,,,8,05,,,,,,,,,,,8,0.899,1,,,,,,0.339583333,-0.4125,1,0,0,0.8988,Pumice_rect,2,0,2,0,1,
5d01b9d4c9281200151c7c6b,SCN,2024-06-20_16h32.13.183,LearnStrategy,2023.2.3,Win32,60.24096386,8,2,4,,,,,,,,4,13,,,,,,,,,,,3,5.921,0,,,,,,0.1125,-0.252777778,1,0,0,5.9213,Diorite_rect,3,0,3,0,1,
5d01b9d4c9281200151c7c6b,SCN,2024-06-20_16h32.13.183,LearnStrategy,2023.2.3,Win32,60.24096386,8,2,5,,,,,,,,4,01,,,,,,,,,,,7,7.819,0,,,,,,0.163888889,-0.395138889,1,0,0,7.8186,Peridotite_rect,4,0,4,0,1,
5d01b9d4c9281200151c7c6b,SCN,2024-06-20_16h32.13.183,LearnStrategy,2023.2.3,Win32,60.24096386,8,2,6,,,,,,,,7,16,,,,,,,,,,,7,5.181,1,,,,,,0.113888889,-0.397916667,1,0,0,5.1808,Peridotite_rect,5,0,5,0,1,
5d01b9d4c9281200151c7c6b,SCN,2024-06-20_16h32.13.183,LearnStrategy,2023.2.3,Win32,60.24096386,8,2,7,,,,,,,,3,07,,,,,,,,,,,3,2.812,1,,,,,,0.13125,-0.252083333,1,0,0,2.8122,Diorite_rect,6,0,6,0,1,
5d01b9d4c9281200151c7c6b,SCN,2024-06-20_16h32.13.183,LearnStrategy,2023.2.3,Win32,60.24096386,8,2,8,,,,,,,,6,12,,,,,,,,,,,6,1.429,1,,,,,,-0.100694444,-0.40625,1,0,0,1.4291,Pegmatite_rect,7,0,7,0,1,
5d01b9d4c9281200151c7c6b,SCN,2024-06-20_16h32.13.183,LearnStrategy,2023.2.3,Win32,60.24096386,8,2,9,,,,,,,,7,15,,,,,,,,,,,7,1.618,1,,,,,,0.165972222,-0.40625,1,0,0,1.6181,Peridotite_rect,8,0,8,0,1,
5d01b9d4c9281200151c7c6b,SCN,2024-06-20_16h32.13.183,LearnStrategy,2023.2.3,Win32,60.24096386,8,2,10,,,,,,,,6,10,,,,,,,,,,,6,1.05,1,,,,,,-0.117361111,-0.404166667,1,0,0,1.0503,Pegmatite_rect,9,0,9,0,1,
5d01b9d4c9281200151c7c6b,SCN,2024-06-20_16h32.13.183,LearnStrategy,2023.2.3,Win32,60.24096386,8,2,11,,,,,,,,2,10,,,,,,,,,,,2,5.137,1,,,,,,-0.104861111,-0.252083333,1,0,0,5.1367,Basalt_rect,10,0,10,0,1,
5d01b9d4c9281200151c7c6b,SCN,2024-06-20_16h32.13.183,LearnStrategy,2023.2.3,Win32,60.24096386,8,2,12,,,,,,,,5,02,,,,,,,,,,,5,0.977,1,,,,,,-0.357638889,-0.39375,1,0,0,0.9768,Obsidian_rect,11,0,11,0,1,
5d01b9d4c9281200151c7c6b,SCN,2024-06-20_16h32.13.183,LearnStrategy,2023.2.3,Win32,60.24096386,8,2,13,,,,,,,,5,05,,,,,,,,,,,5,0.832,1,,,,,,-0.323611111,-0.415277778,1,0,0,0.8322,Obsidian_rect,12,0,12,0,1,
5d01b9d4c9281200151c7c6b,SCN,2024-06-20_16h32.13.183,LearnStrategy,2023.2.3,Win32,60.24096386,8,2,14,,,,,,,,1,02,,,,,,,,,,,1,3.904,1,,,,,,-0.345833333,-0.253472222,1,0,0,3.9035,Andesite_rect,13,0,13,0,1,
5d01b9d4c9281200151c7c6b,SCN,2024-06-20_16h32.13.183,LearnStrategy,2023.2.3,Win32,60.24096386,8,2,15,,,,,,,,2,02,,,,,,,,,,,2,1.396,1,,,,,,-0.130555556,-0.265972222,1,0,0,1.3961,Basalt_rect,14,0,14,0,1,
5d01b9d4c9281200151c7c6b,SCN,2024-06-20_16h32.13.183,LearnStrategy,2023.2.3,Win32,60.24096386,8,2,16,,,,,,,,3,15,,,,,,,,,,,3,2.014,1,,,,,,0.123611111,-0.264583333,1,0,0,2.0138,Diorite_rect,15,0,15,0,1,
5d01b9d4c9281200151c7c6b,SCN,2024-06-20_16h32.13.183,LearnStrategy,2023.2.3,Win32,60.24096386,9,1,1,0.080555556,0.088888889,1,0,0,0.5165,Pumice_02,8,02,4,5,0.516,0.096527778,-0.259722222,1,0,0,0.5126,Diorite_rect,3,0.513,0,0,0,0,0,1,,,,,,,,,,,,,
5d01b9d4c9281200151c7c6b,SCN,2024-06-20_16h32.13.183,LearnStrategy,2023.2.3,Win32,60.24096386,9,1,2,-0.058333333,0.080555556,1,0,0,0.6848,Basalt_11,2,11,4,4,0.685,0.102083333,-0.259722222,1,0,0,0.6756,Diorite_rect,3,0.676,0,1,0,1,0,1,,,,,,,,,,,,,
5d01b9d4c9281200151c7c6b,SCN,2024-06-20_16h32.13.183,LearnStrategy,2023.2.3,Win32,60.24096386,9,1,3,-0.059722222,0.096527778,1,0,0,0.5165,Basalt_11,2,11,4,4,0.516,0.15,-0.261111111,1,0,0,0.529,Diorite_rect,3,0.529,0,2,0,2,0,1,,,,,,,,,,,,,
5d01b9d4c9281200151c7c6b,SCN,2024-06-20_16h32.13.183,LearnStrategy,2023.2.3,Win32,60.24096386,9,1,4,-0.070138889,0.09375,1,0,0,0.4666,Basalt_11,2,11,4,4,0.467,0.075694444,-0.270833333,1,0,0,0.6958,Diorite_rect,3,0.696,0,3,0,3,0,1,,,,,,,,,,,,,
5d01b9d4c9281200151c7c6b,SCN,2024-06-20_16h32.13.183,LearnStrategy,2023.2.3,Win32,60.24096386,9,1,5,0.086111111,0.092361111,1,0,0,0.4356,Pumice_02,8,02,4,5,0.436,0.115277778,-0.25625,1,0,0,0.45,Diorite_rect,3,0.45,0,4,0,4,0,1,,,,,,,,,,,,,
5d01b9d4c9281200151c7c6b,SCN,2024-06-20_16h32.13.183,LearnStrategy,2023.2.3,Win32,60.24096386,9,1,6,-0.056944444,0.102083333,1,0,0,0.3663,Basalt_11,2,11,4,4,0.366,0.075,-0.395138889,1,0,0,0.5458,Peridotite_rect,7,0.546,0,5,0,5,0,1,,,,,,,,,,,,,
5d01b9d4c9281200151c7c6b,SCN,2024-06-20_16h32.13.183,LearnStrategy,2023.2.3,Win32,60.24096386,9,1,7,-0.075694444,0.096527778,1,0,0,0.3832,Basalt_11,2,11,4,4,0.383,0.113194444,-0.249305556,1,0,0,0.6282,Diorite_rect,3,0.628,0,6,0,6,0,1,,,,,,,,,,,,,
5d01b9d4c9281200151c7c6b,SCN,2024-06-20_16h32.13.183,LearnStrategy,2023.2.3,Win32,60.24096386,9,1,8,0.06875,0.065972222,1,0,0,0.4667,Pumice_02,8,02,4,5,0.467,0.122916667,-0.397916667,1,0,0,0.8959,Peridotite_rect,7,0.896,0,7,0,7,0,1,,,,,,,,,,,,,
5d01b9d4c9281200151c7c6b,SCN,2024-06-20_16h32.13.183,LearnStrategy,2023.2.3,Win32,60.24096386,9,1,9,0.065972222,0.0625,1,0,0,0.4997,Pumice_02,8,02,4,5,0.5,0.148611111,-0.251388889,1,0,0,0.9129,Diorite_rect,3,0.913,0,8,0,8,0,1,,,,,,,,,,,,,
5d01b9d4c9281200151c7c6b,SCN,2024-06-20_16h32.13.183,LearnStrategy,2023.2.3,Win32,60.24096386,9,1,10,-0.045138889,0.069444444,1,0,0,0.6999,Basalt_11,2,11,4,4,0.7,0.122916667,-0.245138889,1,0,0,0.6959,Diorite_rect,3,0.696,0,9,0,9,0,1,,,,,,,,,,,,,
5d01b9d4c9281200151c7c6b,SCN,2024-06-20_16h32.13.183,LearnStrategy,2023.2.3,Win32,60.24096386,9,1,11,-0.052777778,0.061111111,1,0,0,0.5995,Basalt_11,2,11,4,4,0.6,0.118055556,-0.240972222,1,0,0,0.6962,Diorite_rect,3,0.696,0,10,0,10,0,1,,,,,,,,,,,,,
5d01b9d4c9281200151c7c6b,SCN,2024-06-20_16h32.13.183,LearnStrategy,2023.2.3,Win32,60.24096386,9,1,12,-0.088194444,-0.104166667,1,0,0,0.6164,Pumice_04,8,04,3,4,0.616,0.138194444,-0.258333333,1,0,0,0.5789,Diorite_rect,3,0.579,0,11,0,11,0,1,,,,,,,,,,,,,
5d01b9d4c9281200151c7c6b,SCN,2024-06-20_16h32.13.183,LearnStrategy,2023.2.3,Win32,60.24096386,9,1,13,-0.247916667,0.089583333,1,0,0,0.4661,Diorite_13,3,13,4,3,0.466,0.094444444,-0.247222222,1,0,0,0.7297,Diorite_rect,3,0.73,1,12,0,12,0,1,,,,,,,,,,,,,
5d01b9d4c9281200151c7c6b,SCN,2024-06-20_16h32.13.183,LearnStrategy,2023.2.3,Win32,60.24096386,9,1,14,0.090972222,0.1,1,0,0,0.3834,Pumice_02,8,02,4,5,0.383,0.160416667,-0.265277778,1,0,0,0.579,Diorite_rect,3,0.579,0,13,0,13,0,1,,,,,,,,,,,,,
5d01b9d4c9281200151c7c6b,SCN,2024-06-20_16h32.13.183,LearnStrategy,2023.2.3,Win32,60.24096386,9,1,15,0.0875,0.075694444,1,0,0,0.4663,Pumice_02,8,02,4,5,0.466,0.11875,-0.267361111,1,0,0,0.4626,Diorite_rect,3,0.463,0,14,0,14,0,1,,,,,,,,,,,,,
5d01b9d4c9281200151c7c6b,SCN,2024-06-20_16h32.13.183,LearnStrategy,2023.2.3,Win32,60.24096386,9,1,16,0.109027778,-0.120138889,1,0,0,0.45,Obsidian_10,5,10,3,5,0.45,0.082638889,-0.241666667,1,0,0,1.0792,Diorite_rect,3,1.079,0,15,0,15,0,1,,,,,,,,,,,,,
5d01b9d4c9281200151c7c6b,SCN,2024-06-20_16h32.13.183,LearnStrategy,2023.2.3,Win32,60.24096386,9,2,1,,,,,,,,1,01,,,,,,,,,,,4,8.357,0,,,,,,0.434027778,-0.243055556,1,0,0,8.3567,Gabbro_rect,0,0,0,0,1,
5d01b9d4c9281200151c7c6b,SCN,2024-06-20_16h32.13.183,LearnStrategy,2023.2.3,Win32,60.24096386,9,2,2,,,,,,,,8,15,,,,,,,,,,,8,1.095,1,,,,,,0.379166667,-0.407638889,1,0,0,1.0949,Pumice_rect,1,0,1,0,1,
5d01b9d4c9281200151c7c6b,SCN,2024-06-20_16h32.13.183,LearnStrategy,2023.2.3,Win32,60.24096386,9,2,3,,,,,,,,8,08,,,,,,,,,,,8,1,1,,,,,,0.381944444,-0.420138889,1,0,0,1.0003,Pumice_rect,2,0,2,0,1,
5d01b9d4c9281200151c7c6b,SCN,2024-06-20_16h32.13.183,LearnStrategy,2023.2.3,Win32,60.24096386,9,2,4,,,,,,,,5,06,,,,,,,,,,,5,1.134,1,,,,,,-0.436805556,-0.402083333,1,0,0,1.1337,Obsidian_rect,3,0,3,0,1,
5d01b9d4c9281200151c7c6b,SCN,2024-06-20_16h32.13.183,LearnStrategy,2023.2.3,Win32,60.24096386,9,2,5,,,,,,,,6,11,,,,,,,,,,,6,0.95,1,,,,,,-0.168055556,-0.405555556,1,0,0,0.9505,Pegmatite_rect,4,0,4,0,1,
5d01b9d4c9281200151c7c6b,SCN,2024-06-20_16h32.13.183,LearnStrategy,2023.2.3,Win32,60.24096386,9,2,6,,,,,,,,1,09,,,,,,,,,,,4,7.474,0,,,,,,0.45,-0.264583333,1,0,0,7.4745,Gabbro_rect,5,0,5,0,1,
5d01b9d4c9281200151c7c6b,SCN,2024-06-20_16h32.13.183,LearnStrategy,2023.2.3,Win32,60.24096386,9,2,7,,,,,,,,7,13,,,,,,,,,,,7,0.911,1,,,,,,0.177083333,-0.397916667,1,0,0,0.9111,Peridotite_rect,6,0,6,0,1,
5d01b9d4c9281200151c7c6b,SCN,2024-06-20_16h32.13.183,LearnStrategy,2023.2.3,Win32,60.24096386,9,2,8,,,,,,,,5,14,,,,,,,,,,,5,0.985,1,,,,,,-0.359027778,-0.383333333,1,0,0,0.9846,Obsidian_rect,7,0,7,0,1,
5d01b9d4c9281200151c7c6b,SCN,2024-06-20_16h32.13.183,LearnStrategy,2023.2.3,Win32,60.24096386,9,2,9,,,,,,,,2,14,,,,,,,,,,,2,3.151,1,,,,,,-0.138194444,-0.252777778,1,0,0,3.151,Basalt_rect,8,0,8,0,1,
5d01b9d4c9281200151c7c6b,SCN,2024-06-20_16h32.13.183,LearnStrategy,2023.2.3,Win32,60.24096386,9,2,10,,,,,,,,4,15,,,,,,,,,,,3,3.664,0,,,,,,0.140972222,-0.264583333,1,0,0,3.6641,Diorite_rect,9,0,9,0,1,
5d01b9d4c9281200151c7c6b,SCN,2024-06-20_16h32.13.183,LearnStrategy,2023.2.3,Win32,60.24096386,9,2,11,,,,,,,,4,12,,,,,,,,,,,4,1.296,1,,,,,,0.397916667,-0.265972222,1,0,0,1.2961,Gabbro_rect,10,0,10,0,1,
5d01b9d4c9281200151c7c6b,SCN,2024-06-20_16h32.13.183,LearnStrategy,2023.2.3,Win32,60.24096386,9,2,12,,,,,,,,3,08,,,,,,,,,,,3,0.917,1,,,,,,0.151388889,-0.269444444,1,0,0,0.9166,Diorite_rect,11,0,11,0,1,
5d01b9d4c9281200151c7c6b,SCN,2024-06-20_16h32.13.183,LearnStrategy,2023.2.3,Win32,60.24096386,9,2,13,,,,,,,,3,12,,,,,,,,,,,3,2.852,1,,,,,,0.098611111,-0.257638889,1,0,0,2.8518,Diorite_rect,12,0,12,0,1,
5d01b9d4c9281200151c7c6b,SCN,2024-06-20_16h32.13.183,LearnStrategy,2023.2.3,Win32,60.24096386,9,2,14,,,,,,,,7,08,,,,,,,,,,,7,2.146,1,,,,,,0.140277778,-0.406944444,1,0,0,2.1464,Peridotite_rect,13,0,13,0,1,
5d01b9d4c9281200151c7c6b,SCN,2024-06-20_16h32.13.183,LearnStrategy,2023.2.3,Win32,60.24096386,9,2,15,,,,,,,,6,07,,,,,,,,,,,6,1.101,1,,,,,,-0.111111111,-0.410416667,1,0,0,1.1008,Pegmatite_rect,14,0,14,0,1,
5d01b9d4c9281200151c7c6b,SCN,2024-06-20_16h32.13.183,LearnStrategy,2023.2.3,Win32,60.24096386,9,2,16,,,,,,,,2,01,,,,,,,,,,,2,2.067,1,,,,,,-0.095138889,-0.256944444,1,0,0,2.0668,Basalt_rect,15,0,15,0,1,
5d01b9d4c9281200151c7c6b,SCN,2024-06-20_16h32.13.183,LearnStrategy,2023.2.3,Win32,60.24096386,,,,,,,,,,,,,,,,,,,,,,,,,,,,,,,,,,,,,,,,,,,1
5d01b9d4c9281200151c7c6b,SCN,2024-06-20_16h32.13.183,LearnStrategy,2023.2.3,Win32,60.24096386,,,,,,,,,,,,,,,,,,,,,,,,,,,,,,,,,,,,,,,,,,,
5d01b9d4c9281200151c7c6b,SCN,2024-06-20_16h32.13.183,LearnStrategy,2023.2.3,Win32,60.24096386,,,,,,,,,,,4,14,1,1,,,,,,,,,,,,,,,,,,,,,,,,,,,,,
5d01b9d4c9281200151c7c6b,SCN,2024-06-20_16h32.13.183,LearnStrategy,2023.2.3,Win32,60.24096386,,,,,,,,,,,5,08,1,2,,,,,,,,,,,,,,,,,,,,,,,,,,,,,
5d01b9d4c9281200151c7c6b,SCN,2024-06-20_16h32.13.183,LearnStrategy,2023.2.3,Win32,60.24096386,,,,,,,,,,,6,15,1,3,,,,,,,,,,,,,,,,,,,,,,,,,,,,,
5d01b9d4c9281200151c7c6b,SCN,2024-06-20_16h32.13.183,LearnStrategy,2023.2.3,Win32,60.24096386,,,,,,,,,,,7,04,1,4,,,,,,,,,,,,,,,,,,,,,,,,,,,,,
5d01b9d4c9281200151c7c6b,SCN,2024-06-20_16h32.13.183,LearnStrategy,2023.2.3,Win32,60.24096386,,,,,,,,,,,2,04,1,5,,,,,,,,,,,,,,,,,,,,,,,,,,,,,
5d01b9d4c9281200151c7c6b,SCN,2024-06-20_16h32.13.183,LearnStrategy,2023.2.3,Win32,60.24096386,,,,,,,,,,,1,10,1,6,,,,,,,,,,,,,,,,,,,,,,,,,,,,,
5d01b9d4c9281200151c7c6b,SCN,2024-06-20_16h32.13.183,LearnStrategy,2023.2.3,Win32,60.24096386,,,,,,,,,,,8,16,1,7,,,,,,,,,,,,,,,,,,,,,,,,,,,,,
5d01b9d4c9281200151c7c6b,SCN,2024-06-20_16h32.13.183,LearnStrategy,2023.2.3,Win32,60.24096386,,,,,,,,,,,8,13,1,8,,,,,,,,,,,,,,,,,,,,,,,,,,,,,
5d01b9d4c9281200151c7c6b,SCN,2024-06-20_16h32.13.183,LearnStrategy,2023.2.3,Win32,60.24096386,,,,,,,,,,,7,14,2,1,,,,,,,,,,,,,,,,,,,,,,,,,,,,,
5d01b9d4c9281200151c7c6b,SCN,2024-06-20_16h32.13.183,LearnStrategy,2023.2.3,Win32,60.24096386,,,,,,,,,,,4,03,2,2,,,,,,,,,,,,,,,,,,,,,,,,,,,,,
5d01b9d4c9281200151c7c6b,SCN,2024-06-20_16h32.13.183,LearnStrategy,2023.2.3,Win32,60.24096386,,,,,,,,,,,6,06,2,3,,,,,,,,,,,,,,,,,,,,,,,,,,,,,
5d01b9d4c9281200151c7c6b,SCN,2024-06-20_16h32.13.183,LearnStrategy,2023.2.3,Win32,60.24096386,,,,,,,,,,,4,11,2,4,,,,,,,,,,,,,,,,,,,,,,,,,,,,,
5d01b9d4c9281200151c7c6b,SCN,2024-06-20_16h32.13.183,LearnStrategy,2023.2.3,Win32,60.24096386,,,,,,,,,,,7,12,2,5,,,,,,,,,,,,,,,,,,,,,,,,,,,,,
5d01b9d4c9281200151c7c6b,SCN,2024-06-20_16h32.13.183,LearnStrategy,2023.2.3,Win32,60.24096386,,,,,,,,,,,5,07,2,6,,,,,,,,,,,,,,,,,,,,,,,,,,,,,
5d01b9d4c9281200151c7c6b,SCN,2024-06-20_16h32.13.183,LearnStrategy,2023.2.3,Win32,60.24096386,,,,,,,,,,,2,09,2,7,,,,,,,,,,,,,,,,,,,,,,,,,,,,,
5d01b9d4c9281200151c7c6b,SCN,2024-06-20_16h32.13.183,LearnStrategy,2023.2.3,Win32,60.24096386,,,,,,,,,,,4,16,2,8,,,,,,,,,,,,,,,,,,,,,,,,,,,,,
5d01b9d4c9281200151c7c6b,SCN,2024-06-20_16h32.13.183,LearnStrategy,2023.2.3,Win32,60.24096386,,,,,,,,,,,3,16,3,1,,,,,,,,,,,,,,,,,,,,,,,,,,,,,
5d01b9d4c9281200151c7c6b,SCN,2024-06-20_16h32.13.183,LearnStrategy,2023.2.3,Win32,60.24096386,,,,,,,,,,,8,14,3,2,,,,,,,,,,,,,,,,,,,,,,,,,,,,,
5d01b9d4c9281200151c7c6b,SCN,2024-06-20_16h32.13.183,LearnStrategy,2023.2.3,Win32,60.24096386,,,,,,,,,,,6,08,3,3,,,,,,,,,,,,,,,,,,,,,,,,,,,,,
5d01b9d4c9281200151c7c6b,SCN,2024-06-20_16h32.13.183,LearnStrategy,2023.2.3,Win32,60.24096386,,,,,,,,,,,8,04,3,4,,,,,,,,,,,,,,,,,,,,,,,,,,,,,
5d01b9d4c9281200151c7c6b,SCN,2024-06-20_16h32.13.183,LearnStrategy,2023.2.3,Win32,60.24096386,,,,,,,,,,,5,10,3,5,,,,,,,,,,,,,,,,,,,,,,,,,,,,,
5d01b9d4c9281200151c7c6b,SCN,2024-06-20_16h32.13.183,LearnStrategy,2023.2.3,Win32,60.24096386,,,,,,,,,,,1,05,3,6,,,,,,,,,,,,,,,,,,,,,,,,,,,,,
5d01b9d4c9281200151c7c6b,SCN,2024-06-20_16h32.13.183,LearnStrategy,2023.2.3,Win32,60.24096386,,,,,,,,,,,7,06,3,7,,,,,,,,,,,,,,,,,,,,,,,,,,,,,
5d01b9d4c9281200151c7c6b,SCN,2024-06-20_16h32.13.183,LearnStrategy,2023.2.3,Win32,60.24096386,,,,,,,,,,,8,09,3,8,,,,,,,,,,,,,,,,,,,,,,,,,,,,,
5d01b9d4c9281200151c7c6b,SCN,2024-06-20_16h32.13.183,LearnStrategy,2023.2.3,Win32,60.24096386,,,,,,,,,,,5,12,4,1,,,,,,,,,,,,,,,,,,,,,,,,,,,,,
5d01b9d4c9281200151c7c6b,SCN,2024-06-20_16h32.13.183,LearnStrategy,2023.2.3,Win32,60.24096386,,,,,,,,,,,6,03,4,2,,,,,,,,,,,,,,,,,,,,,,,,,,,,,
5d01b9d4c9281200151c7c6b,SCN,2024-06-20_16h32.13.183,LearnStrategy,2023.2.3,Win32,60.24096386,,,,,,,,,,,3,13,4,3,,,,,,,,,,,,,,,,,,,,,,,,,,,,,
5d01b9d4c9281200151c7c6b,SCN,2024-06-20_16h32.13.183,LearnStrategy,2023.2.3,Win32,60.24096386,,,,,,,,,,,2,11,4,4,,,,,,,,,,,,,,,,,,,,,,,,,,,,,
5d01b9d4c9281200151c7c6b,SCN,2024-06-20_16h32.13.183,LearnStrategy,2023.2.3,Win32,60.24096386,,,,,,,,,,,8,02,4,5,,,,,,,,,,,,,,,,,,,,,,,,,,,,,
5d01b9d4c9281200151c7c6b,SCN,2024-06-20_16h32.13.183,LearnStrategy,2023.2.3,Win32,60.24096386,,,,,,,,,,,7,02,4,6,,,,,,,,,,,,,,,,,,,,,,,,,,,,,
5d01b9d4c9281200151c7c6b,SCN,2024-06-20_16h32.13.183,LearnStrategy,2023.2.3,Win32,60.24096386,,,,,,,,,,,2,16,4,7,,,,,,,,,,,,,,,,,,,,,,,,,,,,,
5d01b9d4c9281200151c7c6b,SCN,2024-06-20_16h32.13.183,LearnStrategy,2023.2.3,Win32,60.24096386,,,,,,,,,,,3,09,4,8,,,,,,,,,,,,,,,,,,,,,,,,,,,,,
5d01b9d4c9281200151c7c6b,SCN,2024-06-20_16h32.13.183,LearnStrategy,2023.2.3,Win32,60.24096386,,,,,,,,,,,3,02,5,1,,,,,,,,,,,,,,,,,,,,,,,,,,,,,
5d01b9d4c9281200151c7c6b,SCN,2024-06-20_16h32.13.183,LearnStrategy,2023.2.3,Win32,60.24096386,,,,,,,,,,,3,14,5,2,,,,,,,,,,,,,,,,,,,,,,,,,,,,,
5d01b9d4c9281200151c7c6b,SCN,2024-06-20_16h32.13.183,LearnStrategy,2023.2.3,Win32,60.24096386,,,,,,,,,,,2,08,5,3,,,,,,,,,,,,,,,,,,,,,,,,,,,,,
5d01b9d4c9281200151c7c6b,SCN,2024-06-20_16h32.13.183,LearnStrategy,2023.2.3,Win32,60.24096386,,,,,,,,,,,4,10,5,4,,,,,,,,,,,,,,,,,,,,,,,,,,,,,
5d01b9d4c9281200151c7c6b,SCN,2024-06-20_16h32.13.183,LearnStrategy,2023.2.3,Win32,60.24096386,,,,,,,,,,,3,06,5,5,,,,,,,,,,,,,,,,,,,,,,,,,,,,,
5d01b9d4c9281200151c7c6b,SCN,2024-06-20_16h32.13.183,LearnStrategy,2023.2.3,Win32,60.24096386,,,,,,,,,,,6,13,5,6,,,,,,,,,,,,,,,,,,,,,,,,,,,,,
5d01b9d4c9281200151c7c6b,SCN,2024-06-20_16h32.13.183,LearnStrategy,2023.2.3,Win32,60.24096386,,,,,,,,,,,7,05,5,7,,,,,,,,,,,,,,,,,,,,,,,,,,,,,
5d01b9d4c9281200151c7c6b,SCN,2024-06-20_16h32.13.183,LearnStrategy,2023.2.3,Win32,60.24096386,,,,,,,,,,,1,07,5,8,,,,,,,,,,,,,,,,,,,,,,,,,,,,,
5d01b9d4c9281200151c7c6b,SCN,2024-06-20_16h32.13.183,LearnStrategy,2023.2.3,Win32,60.24096386,,,,,,,,,,,1,16,6,1,,,,,,,,,,,,,,,,,,,,,,,,,,,,,
5d01b9d4c9281200151c7c6b,SCN,2024-06-20_16h32.13.183,LearnStrategy,2023.2.3,Win32,60.24096386,,,,,,,,,,,2,12,6,2,,,,,,,,,,,,,,,,,,,,,,,,,,,,,
5d01b9d4c9281200151c7c6b,SCN,2024-06-20_16h32.13.183,LearnStrategy,2023.2.3,Win32,60.24096386,,,,,,,,,,,4,08,6,3,,,,,,,,,,,,,,,,,,,,,,,,,,,,,
5d01b9d4c9281200151c7c6b,SCN,2024-06-20_16h32.13.183,LearnStrategy,2023.2.3,Win32,60.24096386,,,,,,,,,,,5,16,6,4,,,,,,,,,,,,,,,,,,,,,,,,,,,,,
5d01b9d4c9281200151c7c6b,SCN,2024-06-20_16h32.13.183,LearnStrategy,2023.2.3,Win32,60.24096386,,,,,,,,,,,1,14,6,5,,,,,,,,,,,,,,,,,,,,,,,,,,,,,
5d01b9d4c9281200151c7c6b,SCN,2024-06-20_16h32.13.183,LearnStrategy,2023.2.3,Win32,60.24096386,,,,,,,,,,,6,09,6,6,,,,,,,,,,,,,,,,,,,,,,,,,,,,,
5d01b9d4c9281200151c7c6b,SCN,2024-06-20_16h32.13.183,LearnStrategy,2023.2.3,Win32,60.24096386,,,,,,,,,,,5,09,6,7,,,,,,,,,,,,,,,,,,,,,,,,,,,,,
5d01b9d4c9281200151c7c6b,SCN,2024-06-20_16h32.13.183,LearnStrategy,2023.2.3,Win32,60.24096386,,,,,,,,,,,1,04,6,8,,,,,,,,,,,,,,,,,,,,,,,,,,,,,