participant,condition,date,expName,psychopyVersion,OS,frameRate,block,phase,trial,learn_mouse.x,learn_mouse.y,learn_mouse.leftButton,learn_mouse.midButton,learn_mouse.rightButton,learn_mouse.time,learn_mouse.clicked_name,cat,token,row,col,t_select,cat_mouse_l.x,cat_mouse_l.y,cat_mouse_l.leftButton,cat_mouse_l.midButton,cat_mouse_l.rightButton,cat_mouse_l.time,cat_mouse_l.clicked_name,resp,t_resp,corr,train_trials.thisRepN,train_trials.thisTrialN,train_trials.thisN,train_trials.thisIndex,train_trials.ran,cat_mouse_t.x,cat_mouse_t.y,cat_mouse_t.leftButton,cat_mouse_t.midButton,cat_mouse_t.rightButton,cat_mouse_t.time,cat_mouse_t.clicked_name,test_trials.thisRepN,test_trials.thisTrialN,test_trials.thisN,test_trials.thisIndex,test_trials.ran,Bonus
5d42486206811e001ada5b4b,SCN,2024-06-20_13h31.09.024,LearnStrategy,2023.2.3,Win32,59.88023952,,,,,,,,,,,,,,,,,,,,,,,,,,,,,,,,,,,,,,,,,,,
5d42486206811e001ada5b4b,SCN,2024-06-20_13h31.09.024,LearnStrategy,2023.2.3,Win32,59.88023952,1,1,1,-0.091666681,0.25,1,0,0,4.7222,Basalt_02,2,02,5,4,4.722,0.125925912,-0.244444459,1,0,0,5.127,Diorite_rect,3,5.127,0,0,0,0,0,1,,,,,,,,,,,,,
5d42486206811e001ada5b4b,SCN,2024-06-20_13h31.09.024,LearnStrategy,2023.2.3,Win32,59.88023952,1,1,2,-0.383333312,-0.09629631,1,0,0,2.4976,Diorite_14,3,14,3,2,2.498,-0.104629587,-0.264814801,1,0,0,1.4386,Basalt_rect,2,1.439,0,1,0,1,0,1,,,,,,,,,,,,,
5d42486206811e001ada5b4b,SCN,2024-06-20_13h31.09.024,LearnStrategy,2023.2.3,Win32,59.88023952,1,1,3,0.383333418,0.080555563,1,0,0,1.765,Obsidian_06,5,06,4,7,1.765,0.335185157,-0.395370413,1,0,0,2.3597,Pumice_rect,8,2.36,0,2,0,2,0,1,,,,,,,,,,,,,
5d42486206811e001ada5b4b,SCN,2024-06-20_13h31.09.024,LearnStrategy,2023.2.3,Win32,59.88023952,1,1,4,-0.566666674,0.26574073,1,0,0,1.7978,Diorite_11,3,11,5,1,1.798,-0.418518526,-0.405555584,1,0,0,2.7095,Obsidian_rect,5,2.71,0,3,0,3,0,1,,,,,,,,,,,,,
5d42486206811e001ada5b4b,SCN,2024-06-20_13h31.09.024,LearnStrategy,2023.2.3,Win32,59.88023952,1,1,5,-0.062962921,0.407407407,1,0,0,2.5139,Obsidian_04,5,04,6,4,2.514,-0.133333347,-0.396296325,1,0,0,2.526,Pegmatite_rect,6,2.526,0,4,0,4,0,1,,,,,,,,,,,,,
5d42486206811e001ada5b4b,SCN,2024-06-20_13h31.09.024,LearnStrategy,2023.2.3,Win32,59.88023952,1,1,6,0.080555598,-0.238888917,1,0,0,8.8974,Pegmatite_03,6,03,2,5,8.897,-0.384259259,-0.271296325,1,0,0,1.2356,Andesite_rect,1,1.236,0,5,0,5,0,1,,,,,,,,,,,,,
5d42486206811e001ada5b4b,SCN,2024-06-20_13h31.09.024,LearnStrategy,2023.2.3,Win32,59.88023952,1,1,7,0.55277775,0.076851845,1,0,0,2.4323,Pumice_02,8,02,4,8,2.432,0.156481496,-0.229629658,1,0,0,1.4246,Diorite_rect,3,1.425,0,6,0,6,0,1,,,,,,,,,,,,,
5d42486206811e001ada5b4b,SCN,2024-06-20_13h31.09.024,LearnStrategy,2023.2.3,Win32,59.88023952,1,1,8,0.530555584,0.424074076,1,0,0,2.2149,Pumice_05,8,05,6,8,2.215,0.376851824,-0.260185171,1,0,0,1.7426,Gabbro_rect,4,1.743,0,7,0,7,0,1,,,,,,,,,,,,,
5d42486206811e001ada5b4b,SCN,2024-06-20_13h31.09.024,LearnStrategy,2023.2.3,Win32,59.88023952,1,1,9,-0.537037037,-0.40370369,1,0,0,2.2978,Gabbro_11,4,11,1,1,2.298,0.422222279,-0.39907406,1,0,0,2.8593,Pumice_rect,8,2.859,0,8,0,8,0,1,,,,,,,,,,,,,
5d42486206811e001ada5b4b,SCN,2024-06-20_13h31.09.024,LearnStrategy,2023.2.3,Win32,59.88023952,1,1,10,-0.227777764,0.106481481,1,0,0,2.2311,Pegmatite_09,6,09,4,3,2.231,0.36018527,-0.408333319,1,0,0,1.7201,Pumice_rect,8,1.72,0,9,0,9,0,1,,,,,,,,,,,,,
5d42486206811e001ada5b4b,SCN,2024-06-20_13h31.09.024,LearnStrategy,2023.2.3,Win32,59.88023952,1,1,11,-0.078703704,-0.252777806,1,0,0,2.1644,Diorite_02,3,02,2,4,2.164,-0.335185192,-0.263888889,1,0,0,2.2096,Andesite_rect,1,2.21,0,10,0,10,0,1,,,,,,,,,,,,,
5d42486206811e001ada5b4b,SCN,2024-06-20_13h31.09.024,LearnStrategy,2023.2.3,Win32,59.88023952,1,1,12,0.575925898,-0.411111125,1,0,0,2.8982,Peridotite_13,7,13,1,8,2.898,-0.099999958,-0.25462963,1,0,0,1.4032,Basalt_rect,2,1.403,0,11,0,11,0,1,,,,,,,,,,,,,
5d42486206811e001ada5b4b,SCN,2024-06-20_13h31.09.024,LearnStrategy,2023.2.3,Win32,59.88023952,1,1,13,-0.239814829,-0.10092594,1,0,0,3.6481,Pumice_13,8,13,3,3,3.648,-0.41111109,-0.236111111,1,0,0,3.3694,Andesite_rect,1,3.369,0,12,0,12,0,1,,,,,,,,,,,,,
5d42486206811e001ada5b4b,SCN,2024-06-20_13h31.09.024,LearnStrategy,2023.2.3,Win32,59.88023952,1,1,14,0.237037023,0.084259245,1,0,0,2.4309,Pegmatite_12,6,12,4,6,2.431,-0.075925898,-0.246296282,1,0,0,1.2767,Basalt_rect,2,1.277,0,13,0,13,0,1,,,,,,,,,,,,,
5d42486206811e001ada5b4b,SCN,2024-06-20_13h31.09.024,LearnStrategy,2023.2.3,Win32,59.88023952,1,1,15,0.089814857,0.410185187,1,0,0,2.7136,Obsidian_09,5,09,6,5,2.714,0.386111083,-0.236111111,1,0,0,1.9533,Gabbro_rect,4,1.953,0,14,0,14,0,1,,,,,,,,,,,,,
5d42486206811e001ada5b4b,SCN,2024-06-20_13h31.09.024,LearnStrategy,2023.2.3,Win32,59.88023952,1,1,16,-0.246296282,-0.425925926,1,0,0,4.3809,Andesite_04,1,04,1,3,4.381,0.088888875,-0.250925912,1,0,0,2.1697,Diorite_rect,3,2.17,0,15,0,15,0,1,,,,,,,,,,,,,
5d42486206811e001ada5b4b,SCN,2024-06-20_13h31.09.024,LearnStrategy,2023.2.3,Win32,59.88023952,1,2,1,,,,,,,,8,08,,,,,,,,,,,7,6.109,0,,,,,,0.128703718,-0.400925954,1,0,0,6.1086,Peridotite_rect,0,0,0,0,1,
5d42486206811e001ada5b4b,SCN,2024-06-20_13h31.09.024,LearnStrategy,2023.2.3,Win32,59.88023952,1,2,2,,,,,,,,4,16,,,,,,,,,,,3,4.377,0,,,,,,0.140740783,-0.238888917,1,0,0,4.3768,Diorite_rect,1,0,1,0,1,
5d42486206811e001ada5b4b,SCN,2024-06-20_13h31.09.024,LearnStrategy,2023.2.3,Win32,59.88023952,1,2,3,,,,,,,,6,10,,,,,,,,,,,5,3.627,0,,,,,,-0.373148141,-0.400925954,1,0,0,3.6268,Obsidian_rect,2,0,2,0,1,
5d42486206811e001ada5b4b,SCN,2024-06-20_13h31.09.024,LearnStrategy,2023.2.3,Win32,59.88023952,1,2,4,,,,,,,,7,10,,,,,,,,,,,8,8.06,0,,,,,,0.402777778,-0.409259302,1,0,0,8.0599,Pumice_rect,3,0,3,0,1,
5d42486206811e001ada5b4b,SCN,2024-06-20_13h31.09.024,LearnStrategy,2023.2.3,Win32,59.88023952,1,2,5,,,,,,,,1,14,,,,,,,,,,,3,7.176,0,,,,,,0.150000042,-0.244444459,1,0,0,7.1765,Diorite_rect,4,0,4,0,1,
5d42486206811e001ada5b4b,SCN,2024-06-20_13h31.09.024,LearnStrategy,2023.2.3,Win32,59.88023952,1,2,6,,,,,,,,3,06,,,,,,,,,,,6,7.843,0,,,,,,-0.141666624,-0.405555584,1,0,0,7.8427,Pegmatite_rect,5,0,5,0,1,
5d42486206811e001ada5b4b,SCN,2024-06-20_13h31.09.024,LearnStrategy,2023.2.3,Win32,59.88023952,1,2,7,,,,,,,,6,06,,,,,,,,,,,7,3.794,0,,,,,,0.099074116,-0.400925954,1,0,0,3.7937,Peridotite_rect,6,0,6,0,1,
5d42486206811e001ada5b4b,SCN,2024-06-20_13h31.09.024,LearnStrategy,2023.2.3,Win32,59.88023952,1,2,8,,,,,,,,3,13,,,,,,,,,,,1,5.527,0,,,,,,-0.408333319,-0.25462963,1,0,0,5.527,Andesite_rect,7,0,7,0,1,
5d42486206811e001ada5b4b,SCN,2024-06-20_13h31.09.024,LearnStrategy,2023.2.3,Win32,59.88023952,1,2,9,,,,,,,,8,04,,,,,,,,,,,6,7.209,0,,,,,,-0.158333319,-0.397222236,1,0,0,7.2085,Pegmatite_rect,8,0,8,0,1,
5d42486206811e001ada5b4b,SCN,2024-06-20_13h31.09.024,LearnStrategy,2023.2.3,Win32,59.88023952,1,2,10,,,,,,,,7,14,,,,,,,,,,,1,3.594,0,,,,,,-0.378703683,-0.244444459,1,0,0,3.5937,Andesite_rect,9,0,9,0,1,
5d42486206811e001ada5b4b,SCN,2024-06-20_13h31.09.024,LearnStrategy,2023.2.3,Win32,59.88023952,1,2,11,,,,,,,,2,10,,,,,,,,,,,7,2.01,0,,,,,,0.143518519,-0.402777778,1,0,0,2.0101,Peridotite_rect,10,0,10,0,1,
5d42486206811e001ada5b4b,SCN,2024-06-20_13h31.09.024,LearnStrategy,2023.2.3,Win32,59.88023952,1,2,12,,,,,,,,2,04,,,,,,,,,,,4,3.76,0,,,,,,0.405555584,-0.248148176,1,0,0,3.7605,Gabbro_rect,11,0,11,0,1,
5d42486206811e001ada5b4b,SCN,2024-06-20_13h31.09.024,LearnStrategy,2023.2.3,Win32,59.88023952,1,2,13,,,,,,,,5,10,,,,,,,,,,,8,5.693,0,,,,,,0.41851849,-0.40370369,1,0,0,5.6932,Pumice_rect,12,0,12,0,1,
5d42486206811e001ada5b4b,SCN,2024-06-20_13h31.09.024,LearnStrategy,2023.2.3,Win32,59.88023952,1,2,14,,,,,,,,1,10,,,,,,,,,,,5,3.477,0,,,,,,-0.392592571,-0.408333319,1,0,0,3.4771,Obsidian_rect,13,0,13,0,1,
5d42486206811e001ada5b4b,SCN,2024-06-20_13h31.09.024,LearnStrategy,2023.2.3,Win32,59.88023952,1,2,15,,,,,,,,4,05,,,,,,,,,,,1,6.41,0,,,,,,-0.360185164,-0.253703718,1,0,0,6.41,Andesite_rect,14,0,14,0,1,
5d42486206811e001ada5b4b,SCN,2024-06-20_13h31.09.024,LearnStrategy,2023.2.3,Win32,59.88023952,1,2,16,,,,,,,,5,07,,,,,,,,,,,3,1.994,0,,,,,,0.147222236,-0.255555541,1,0,0,1.9935,Diorite_rect,15,0,15,0,1,
5d42486206811e001ada5b4b,SCN,2024-06-20_13h31.09.024,LearnStrategy,2023.2.3,Win32,59.88023952,2,1,1,0.383333418,0.097222222,1,0,0,1.965,Obsidian_06,5,06,4,7,1.965,0.147222236,-0.242592635,1,0,0,1.2935,Diorite_rect,3,1.293,0,0,0,0,0,1,,,,,,,,,,,,,
5d42486206811e001ada5b4b,SCN,2024-06-20_13h31.09.024,LearnStrategy,2023.2.3,Win32,59.88023952,2,1,2,-0.390740748,0.077777757,1,0,0,1.2315,Peridotite_16,7,16,4,2,1.232,-0.407407407,-0.253703718,1,0,0,1.4934,Andesite_rect,1,1.493,0,1,0,1,0,1,,,,,,,,,,,,,
5d42486206811e001ada5b4b,SCN,2024-06-20_13h31.09.024,LearnStrategy,2023.2.3,Win32,59.88023952,2,1,3,0.563888974,0.096296275,1,0,0,1.9926,Pumice_02,8,02,4,8,1.993,0.159259302,-0.241666653,1,0,0,1.1935,Diorite_rect,3,1.193,0,2,0,2,0,1,,,,,,,,,,,,,
5d42486206811e001ada5b4b,SCN,2024-06-20_13h31.09.024,LearnStrategy,2023.2.3,Win32,59.88023952,2,1,4,-0.567592586,0.419444446,1,0,0,1.6477,Basalt_11,2,11,6,1,1.648,-0.380555541,-0.256481524,1,0,0,1.1441,Andesite_rect,1,1.144,0,3,0,3,0,1,,,,,,,,,,,,,
5d42486206811e001ada5b4b,SCN,2024-06-20_13h31.09.024,LearnStrategy,2023.2.3,Win32,59.88023952,2,1,5,-0.412962949,-0.244444459,1,0,0,3.0141,Andesite_02,1,02,2,2,3.014,-0.125925912,-0.407407407,1,0,0,1.3049,Pegmatite_rect,6,1.305,0,4,0,4,0,1,,,,,,,,,,,,,
5d42486206811e001ada5b4b,SCN,2024-06-20_13h31.09.024,LearnStrategy,2023.2.3,Win32,59.88023952,2,1,6,-0.410185178,-0.106481481,1,0,0,2.6484,Diorite_14,3,14,3,2,2.648,-0.400000007,-0.400925954,1,0,0,1.5697,Obsidian_rect,5,1.57,0,5,0,5,0,1,,,,,,,,,,,,,
5d42486206811e001ada5b4b,SCN,2024-06-20_13h31.09.024,LearnStrategy,2023.2.3,Win32,59.88023952,2,1,7,0.563888974,0.090740734,1,0,0,7.0479,Pumice_02,8,02,4,8,7.048,0.363888917,-0.250925912,1,0,0,1.0534,Gabbro_rect,4,1.053,0,6,0,6,0,1,,,,,,,,,,,,,
5d42486206811e001ada5b4b,SCN,2024-06-20_13h31.09.024,LearnStrategy,2023.2.3,Win32,59.88023952,2,1,8,-0.233333305,-0.415740755,1,0,0,3.8141,Andesite_04,1,04,1,3,3.814,-0.114814829,-0.26944443,1,0,0,1.3543,Basalt_rect,2,1.354,0,7,0,7,0,1,,,,,,,,,,,,,
5d42486206811e001ada5b4b,SCN,2024-06-20_13h31.09.024,LearnStrategy,2023.2.3,Win32,59.88023952,2,1,9,0.550000085,-0.39907406,1,0,0,2.5981,Peridotite_13,7,13,1,8,2.598,-0.108333305,-0.409259302,1,0,0,3.8031,Pegmatite_rect,6,3.803,0,8,0,8,0,1,,,,,,,,,,,,,
5d42486206811e001ada5b4b,SCN,2024-06-20_13h31.09.024,LearnStrategy,2023.2.3,Win32,59.88023952,2,1,10,-0.06759255,0.2574074,1,0,0,7.2972,Basalt_02,2,02,5,4,7.297,-0.3824074,-0.244444459,1,0,0,2.7692,Andesite_rect,1,2.769,0,9,0,9,0,1,,,,,,,,,,,,,
5d42486206811e001ada5b4b,SCN,2024-06-20_13h31.09.024,LearnStrategy,2023.2.3,Win32,59.88023952,2,1,11,0.207407422,0.413888887,1,0,0,10.6137,Obsidian_08,5,08,6,6,10.614,-0.210185157,-0.251851894,1,0,0,1.6867,Basalt_rect,2,1.687,0,10,0,10,0,1,,,,,,,,,,,,,
5d42486206811e001ada5b4b,SCN,2024-06-20_13h31.09.024,LearnStrategy,2023.2.3,Win32,59.88023952,2,1,12,0.091666681,0.407407407,1,0,0,1.2814,Obsidian_09,5,09,6,5,1.281,-0.126851824,-0.258333347,1,0,0,3.2267,Basalt_rect,2,3.227,0,11,0,11,0,1,,,,,,,,,,,,,
5d42486206811e001ada5b4b,SCN,2024-06-20_13h31.09.024,LearnStrategy,2023.2.3,Win32,59.88023952,2,1,13,0.265740783,0.402777778,1,0,0,1.1815,Obsidian_08,5,08,6,6,1.181,-0.109259217,-0.251851894,1,0,0,2.6099,Basalt_rect,2,2.61,0,12,0,12,0,1,,,,,,,,,,,,,
5d42486206811e001ada5b4b,SCN,2024-06-20_13h31.09.024,LearnStrategy,2023.2.3,Win32,59.88023952,2,1,14,0.107407393,0.25462963,1,0,0,9.114,Diorite_15,3,15,5,5,9.114,-0.405555548,-0.239814829,1,0,0,1.6368,Andesite_rect,1,1.637,0,13,0,13,0,1,,,,,,,,,,,,,
5d42486206811e001ada5b4b,SCN,2024-06-20_13h31.09.024,LearnStrategy,2023.2.3,Win32,59.88023952,2,1,15,0.244444459,-0.42777782,1,0,0,2.5481,Diorite_12,3,12,1,6,2.548,-0.125925912,-0.251851894,1,0,0,3.2928,Basalt_rect,2,3.293,0,14,0,14,0,1,,,,,,,,,,,,,
5d42486206811e001ada5b4b,SCN,2024-06-20_13h31.09.024,LearnStrategy,2023.2.3,Win32,59.88023952,2,1,16,0.522222307,-0.241666653,1,0,0,2.3147,Andesite_03,1,03,2,8,2.315,0.383333418,-0.414814843,1,0,0,2.2933,Pumice_rect,8,2.293,0,15,0,15,0,1,,,,,,,,,,,,,
5d42486206811e001ada5b4b,SCN,2024-06-20_13h31.09.024,LearnStrategy,2023.2.3,Win32,59.88023952,2,2,1,,,,,,,,4,13,,,,,,,,,,,5,5.11,0,,,,,,-0.375925912,-0.418518561,1,0,0,5.1098,Obsidian_rect,0,0,0,0,1,
5d42486206811e001ada5b4b,SCN,2024-06-20_13h31.09.024,LearnStrategy,2023.2.3,Win32,59.88023952,2,2,2,,,,,,,,8,15,,,,,,,,,,,8,4.262,1,,,,,,0.386111083,-0.400000042,1,0,0,4.2622,Pumice_rect,1,0,1,0,1,
5d42486206811e001ada5b4b,SCN,2024-06-20_13h31.09.024,LearnStrategy,2023.2.3,Win32,59.88023952,2,2,3,,,,,,,,2,09,,,,,,,,,,,2,5.505,1,,,,,,-0.112037023,-0.251851894,1,0,0,5.5045,Basalt_rect,2,0,2,0,1,
5d42486206811e001ada5b4b,SCN,2024-06-20_13h31.09.024,LearnStrategy,2023.2.3,Win32,59.88023952,2,2,4,,,,,,,,4,14,,,,,,,,,,,5,3.846,0,,,,,,-0.364814794,-0.385185171,1,0,0,3.846,Obsidian_rect,3,0,3,0,1,
5d42486206811e001ada5b4b,SCN,2024-06-20_13h31.09.024,LearnStrategy,2023.2.3,Win32,59.88023952,2,2,5,,,,,,,,3,16,,,,,,,,,,,4,5.529,0,,,,,,0.413888861,-0.240740741,1,0,0,5.5292,Gabbro_rect,4,0,4,0,1,
5d42486206811e001ada5b4b,SCN,2024-06-20_13h31.09.024,LearnStrategy,2023.2.3,Win32,59.88023952,2,2,6,,,,,,,,5,16,,,,,,,,,,,3,2.468,0,,,,,,0.137037065,-0.251851894,1,0,0,2.4679,Diorite_rect,5,0,5,0,1,
5d42486206811e001ada5b4b,SCN,2024-06-20_13h31.09.024,LearnStrategy,2023.2.3,Win32,59.88023952,2,2,7,,,,,,,,8,16,,,,,,,,,,,6,8.034,0,,,,,,-0.142592607,-0.396296325,1,0,0,8.0343,Pegmatite_rect,6,0,6,0,1,
5d42486206811e001ada5b4b,SCN,2024-06-20_13h31.09.024,LearnStrategy,2023.2.3,Win32,59.88023952,2,2,8,,,,,,,,6,16,,,,,,,,,,,7,5.701,0,,,,,,0.187962991,-0.392592607,1,0,0,5.701,Peridotite_rect,7,0,7,0,1,
5d42486206811e001ada5b4b,SCN,2024-06-20_13h31.09.024,LearnStrategy,2023.2.3,Win32,59.88023952,2,2,9,,,,,,,,1,01,,,,,,,,,,,4,5.711,0,,,,,,0.40370376,-0.246296282,1,0,0,5.7112,Gabbro_rect,8,0,8,0,1,
5d42486206811e001ada5b4b,SCN,2024-06-20_13h31.09.024,LearnStrategy,2023.2.3,Win32,59.88023952,2,2,10,,,,,,,,7,07,,,,,,,,,,,5,3.112,0,,,,,,-0.387962942,-0.419444473,1,0,0,3.1117,Obsidian_rect,9,0,9,0,1,
5d42486206811e001ada5b4b,SCN,2024-06-20_13h31.09.024,LearnStrategy,2023.2.3,Win32,59.88023952,2,2,11,,,,,,,,2,06,,,,,,,,,,,2,2.978,1,,,,,,-0.127777735,-0.259259259,1,0,0,2.9783,Basalt_rect,10,0,10,0,1,
5d42486206811e001ada5b4b,SCN,2024-06-20_13h31.09.024,LearnStrategy,2023.2.3,Win32,59.88023952,2,2,12,,,,,,,,1,07,,,,,,,,,,,8,8.212,0,,,,,,0.358333305,-0.39444443,1,0,0,8.2116,Pumice_rect,11,0,11,0,1,
5d42486206811e001ada5b4b,SCN,2024-06-20_13h31.09.024,LearnStrategy,2023.2.3,Win32,59.88023952,2,2,13,,,,,,,,6,11,,,,,,,,,,,2,5.701,0,,,,,,-0.194444444,-0.237037023,1,0,0,5.7009,Basalt_rect,12,0,12,0,1,
5d42486206811e001ada5b4b,SCN,2024-06-20_13h31.09.024,LearnStrategy,2023.2.3,Win32,59.88023952,2,2,14,,,,,,,,7,05,,,,,,,,,,,5,4.335,0,,,,,,-0.437037044,-0.405555584,1,0,0,4.3349,Obsidian_rect,13,0,13,0,1,
5d42486206811e001ada5b4b,SCN,2024-06-20_13h31.09.024,LearnStrategy,2023.2.3,Win32,59.88023952,2,2,15,,,,,,,,3,07,,,,,,,,,,,4,11.617,0,,,,,,0.339814787,-0.234259288,1,0,0,11.617,Gabbro_rect,14,0,14,0,1,
5d42486206811e001ada5b4b,SCN,2024-06-20_13h31.09.024,LearnStrategy,2023.2.3,Win32,59.88023952,2,2,16,,,,,,,,5,12,,,,,,,,,,,3,2.401,0,,,,,,0.107407393,-0.251851894,1,0,0,2.4012,Diorite_rect,15,0,15,0,1,
5d42486206811e001ada5b4b,SCN,2024-06-20_13h31.09.024,LearnStrategy,2023.2.3,Win32,59.88023952,3,1,1,-0.231481481,0.088888875,1,0,0,1.4991,Pegmatite_09,6,09,4,3,1.499,-0.121296282,-0.246296282,1,0,0,1.0268,Basalt_rect,2,1.027,0,0,0,0,0,1,,,,,,,,,,,,,
5d42486206811e001ada5b4b,SCN,2024-06-20_13h31.09.024,LearnStrategy,2023.2.3,Win32,59.88023952,3,1,2,-0.212962963,0.085185192,1,0,0,0.9319,Pegmatite_09,6,09,4,3,0.932,0.132407436,-0.408333319,1,0,0,1.6765,Peridotite_rect,7,1.677,0,1,0,1,0,1,,,,,,,,,,,,,
5d42486206811e001ada5b4b,SCN,2024-06-20_13h31.09.024,LearnStrategy,2023.2.3,Win32,59.88023952,3,1,3,-0.217592593,0.086111104,1,0,0,0.8651,Pegmatite_09,6,09,4,3,0.865,-0.09629631,-0.39444443,1,0,0,1.8934,Pegmatite_rect,6,1.893,1,2,0,2,0,1,,,,,,,,,,,,,
5d42486206811e001ada5b4b,SCN,2024-06-20_13h31.09.024,LearnStrategy,2023.2.3,Win32,59.88023952,3,1,4,0.080555598,0.099999993,1,0,0,0.9316,Gabbro_12,4,12,4,5,0.932,-0.375925912,-0.255555541,1,0,0,1.1102,Andesite_rect,1,1.11,0,3,0,3,0,1,,,,,,,,,,,,,
5d42486206811e001ada5b4b,SCN,2024-06-20_13h31.09.024,LearnStrategy,2023.2.3,Win32,59.88023952,3,1,5,0.349074046,0.101851852,1,0,0,1.6144,Obsidian_06,5,06,4,7,1.614,0.389814871,-0.257407436,1,0,0,1.06,Gabbro_rect,4,1.06,0,4,0,4,0,1,,,,,,,,,,,,,
5d42486206811e001ada5b4b,SCN,2024-06-20_13h31.09.024,LearnStrategy,2023.2.3,Win32,59.88023952,3,1,6,-0.395370377,0.406481478,1,0,0,1.1316,Basalt_01,2,01,6,2,1.132,-0.390740748,-0.413888931,1,0,0,1.7433,Obsidian_rect,5,1.743,0,5,0,5,0,1,,,,,,,,,,,,,
5d42486206811e001ada5b4b,SCN,2024-06-20_13h31.09.024,LearnStrategy,2023.2.3,Win32,59.88023952,3,1,7,-0.393518519,-0.419444473,1,0,0,1.5318,Pumice_14,8,14,1,2,1.532,0.147222236,-0.250925912,1,0,0,2.16,Diorite_rect,3,2.16,0,6,0,6,0,1,,,,,,,,,,,,,
5d42486206811e001ada5b4b,SCN,2024-06-20_13h31.09.024,LearnStrategy,2023.2.3,Win32,59.88023952,3,1,8,0.087962963,-0.259259259,1,0,0,2.1309,Pegmatite_03,6,03,2,5,2.131,0.134259259,-0.408333319,1,0,0,2.7436,Peridotite_rect,7,2.744,0,7,0,7,0,1,,,,,,,,,,,,,
5d42486206811e001ada5b4b,SCN,2024-06-20_13h31.09.024,LearnStrategy,2023.2.3,Win32,59.88023952,3,1,9,-0.05277775,0.404629628,1,0,0,2.4983,Obsidian_04,5,04,6,4,2.498,-0.123148106,-0.406481496,1,0,0,1.7334,Pegmatite_rect,6,1.733,0,8,0,8,0,1,,,,,,,,,,,,,
5d42486206811e001ada5b4b,SCN,2024-06-20_13h31.09.024,LearnStrategy,2023.2.3,Win32,59.88023952,3,1,10,-0.061111097,0.432407406,1,0,0,1.0517,Obsidian_04,5,04,6,4,1.052,-0.397222201,-0.389814801,1,0,0,1.2455,Obsidian_rect,5,1.245,1,9,0,9,0,1,,,,,,,,,,,,,
5d42486206811e001ada5b4b,SCN,2024-06-20_13h31.09.024,LearnStrategy,2023.2.3,Win32,59.88023952,3,1,11,0.224074116,0.242592582,1,0,0,1.4518,Gabbro_09,4,09,5,6,1.452,0.36018527,-0.416666667,1,0,0,1.1967,Pumice_rect,8,1.197,0,10,0,10,0,1,,,,,,,,,,,,,
5d42486206811e001ada5b4b,SCN,2024-06-20_13h31.09.024,LearnStrategy,2023.2.3,Win32,59.88023952,3,1,12,-0.3824074,-0.264814801,1,0,0,2.501,Andesite_02,1,02,2,2,2.501,-0.366666653,-0.397222236,1,0,0,2.1134,Obsidian_rect,5,2.113,0,11,0,11,0,1,,,,,,,,,,,,,
5d42486206811e001ada5b4b,SCN,2024-06-20_13h31.09.024,LearnStrategy,2023.2.3,Win32,59.88023952,3,1,13,0.263888889,0.087037016,1,0,0,1.2357,Pegmatite_12,6,12,4,6,1.236,0.142592607,-0.268518519,1,0,0,0.8625,Diorite_rect,3,0.862,0,12,0,12,0,1,,,,,,,,,,,,,
5d42486206811e001ada5b4b,SCN,2024-06-20_13h31.09.024,LearnStrategy,2023.2.3,Win32,59.88023952,3,1,14,0.545370455,0.411111108,1,0,0,2.6019,Pumice_05,8,05,6,8,2.602,0.353703675,-0.260185171,1,0,0,2.9298,Gabbro_rect,4,2.93,0,13,0,13,0,1,,,,,,,,,,,,,
5d42486206811e001ada5b4b,SCN,2024-06-20_13h31.09.024,LearnStrategy,2023.2.3,Win32,59.88023952,3,1,15,-0.372222229,-0.236111111,1,0,0,2.2456,Andesite_02,1,02,2,2,2.246,-0.141666624,-0.243518547,1,0,0,2.4963,Basalt_rect,2,2.496,0,14,0,14,0,1,,,,,,,,,,,,,
5d42486206811e001ada5b4b,SCN,2024-06-20_13h31.09.024,LearnStrategy,2023.2.3,Win32,59.88023952,3,1,16,-0.255555541,0.262962959,1,0,0,2.2955,Gabbro_15,4,15,5,3,2.295,0.111111111,-0.40370369,1,0,0,1.6794,Peridotite_rect,7,1.679,0,15,0,15,0,1,,,,,,,,,,,,,
5d42486206811e001ada5b4b,SCN,2024-06-20_13h31.09.024,LearnStrategy,2023.2.3,Win32,59.88023952,3,2,1,,,,,,,,1,06,,,,,,,,,,,4,4.451,0,,,,,,0.387037065,-0.234259288,1,0,0,4.4514,Gabbro_rect,0,0,0,0,1,
5d42486206811e001ada5b4b,SCN,2024-06-20_13h31.09.024,LearnStrategy,2023.2.3,Win32,59.88023952,3,2,2,,,,,,,,6,13,,,,,,,,,,,2,4.763,0,,,,,,-0.163888861,-0.253703718,1,0,0,4.7625,Basalt_rect,1,0,1,0,1,
5d42486206811e001ada5b4b,SCN,2024-06-20_13h31.09.024,LearnStrategy,2023.2.3,Win32,59.88023952,3,2,3,,,,,,,,3,08,,,,,,,,,,,7,3.412,0,,,,,,0.141666695,-0.405555584,1,0,0,3.4118,Peridotite_rect,2,0,2,0,1,
5d42486206811e001ada5b4b,SCN,2024-06-20_13h31.09.024,LearnStrategy,2023.2.3,Win32,59.88023952,3,2,4,,,,,,,,7,06,,,,,,,,,,,1,4.029,0,,,,,,-0.39444443,-0.241666653,1,0,0,4.029,Andesite_rect,3,0,3,0,1,
5d42486206811e001ada5b4b,SCN,2024-06-20_13h31.09.024,LearnStrategy,2023.2.3,Win32,59.88023952,3,2,5,,,,,,,,5,02,,,,,,,,,,,3,1.779,0,,,,,,0.132407436,-0.236111111,1,0,0,1.7794,Diorite_rect,4,0,4,0,1,
5d42486206811e001ada5b4b,SCN,2024-06-20_13h31.09.024,LearnStrategy,2023.2.3,Win32,59.88023952,3,2,6,,,,,,,,8,09,,,,,,,,,,,8,2.452,1,,,,,,0.369444529,-0.386111153,1,0,0,2.4518,Pumice_rect,5,0,5,0,1,
5d42486206811e001ada5b4b,SCN,2024-06-20_13h31.09.024,LearnStrategy,2023.2.3,Win32,59.88023952,3,2,7,,,,,,,,2,16,,,,,,,,,,,6,2.718,0,,,,,,-0.116666653,-0.387037065,1,0,0,2.7178,Pegmatite_rect,6,0,6,0,1,
5d42486206811e001ada5b4b,SCN,2024-06-20_13h31.09.024,LearnStrategy,2023.2.3,Win32,59.88023952,3,2,8,,,,,,,,4,08,,,,,,,,,,,2,2.845,0,,,,,,-0.085185157,-0.24537037,1,0,0,2.845,Basalt_rect,7,0,7,0,1,
5d42486206811e001ada5b4b,SCN,2024-06-20_13h31.09.024,LearnStrategy,2023.2.3,Win32,59.88023952,3,2,9,,,,,,,,5,05,,,,,,,,,,,3,2.402,0,,,,,,0.12037037,-0.237963005,1,0,0,2.4017,Diorite_rect,8,0,8,0,1,
5d42486206811e001ada5b4b,SCN,2024-06-20_13h31.09.024,LearnStrategy,2023.2.3,Win32,59.88023952,3,2,10,,,,,,,,2,12,,,,,,,,,,,8,3.744,0,,,,,,0.445370427,-0.400925954,1,0,0,3.7441,Pumice_rect,9,0,9,0,1,
5d42486206811e001ada5b4b,SCN,2024-06-20_13h31.09.024,LearnStrategy,2023.2.3,Win32,59.88023952,3,2,11,,,,,,,,6,15,,,,,,,,,,,5,3.113,0,,,,,,-0.41111109,-0.406481496,1,0,0,3.1129,Obsidian_rect,10,0,10,0,1,
5d42486206811e001ada5b4b,SCN,2024-06-20_13h31.09.024,LearnStrategy,2023.2.3,Win32,59.88023952,3,2,12,,,,,,,,7,15,,,,,,,,,,,4,2.728,0,,,,,,0.332407492,-0.238888917,1,0,0,2.7284,Gabbro_rect,11,0,11,0,1,
5d42486206811e001ada5b4b,SCN,2024-06-20_13h31.09.024,LearnStrategy,2023.2.3,Win32,59.88023952,3,2,13,,,,,,,,1,11,,,,,,,,,,,4,1.718,0,,,,,,0.330555527,-0.242592635,1,0,0,1.718,Gabbro_rect,12,0,12,0,1,
5d42486206811e001ada5b4b,SCN,2024-06-20_13h31.09.024,LearnStrategy,2023.2.3,Win32,59.88023952,3,2,14,,,,,,,,3,10,,,,,,,,,,,7,2.751,0,,,,,,0.094444487,-0.39907406,1,0,0,2.7513,Peridotite_rect,13,0,13,0,1,
5d42486206811e001ada5b4b,SCN,2024-06-20_13h31.09.024,LearnStrategy,2023.2.3,Win32,59.88023952,3,2,15,,,,,,,,8,10,,,,,,,,,,,6,1.761,0,,,,,,-0.114814829,-0.404629672,1,0,0,1.7611,Pegmatite_rect,14,0,14,0,1,
5d42486206811e001ada5b4b,SCN,2024-06-20_13h31.09.024,LearnStrategy,2023.2.3,Win32,59.88023952,3,2,16,,,,,,,,4,03,,,,,,,,,,,4,1.769,1,,,,,,0.382407436,-0.250925912,1,0,0,1.7685,Gabbro_rect,15,0,15,0,1,
5d42486206811e001ada5b4b,SCN,2024-06-20_13h31.09.024,LearnStrategy,2023.2.3,Win32,59.88023952,4,1,1,0.224074116,0.435185185,1,0,0,0.9593,Obsidian_08,5,08,6,6,0.959,0.424074102,-0.401851866,1,0,0,1.4603,Pumice_rect,8,1.46,0,0,0,0,0,1,,,,,,,,,,,,,
5d42486206811e001ada5b4b,SCN,2024-06-20_13h31.09.024,LearnStrategy,2023.2.3,Win32,59.88023952,4,1,2,0.567592621,0.087962963,1,0,0,4.0469,Pumice_02,8,02,4,8,4.047,0.393518519,-0.240740741,1,0,0,3.487,Gabbro_rect,4,3.487,0,1,0,1,0,1,,,,,,,,,,,,,
5d42486206811e001ada5b4b,SCN,2024-06-20_13h31.09.024,LearnStrategy,2023.2.3,Win32,59.88023952,4,1,3,-0.350925905,0.255555559,1,0,0,1.2141,Peridotite_12,7,12,5,2,1.214,-0.412962949,-0.249074088,1,0,0,1.2266,Andesite_rect,1,1.227,0,2,0,2,0,1,,,,,,,,,,,,,
5d42486206811e001ada5b4b,SCN,2024-06-20_13h31.09.024,LearnStrategy,2023.2.3,Win32,59.88023952,4,1,4,0.404629601,0.26574073,1,0,0,1.4641,Obsidian_14,5,14,5,7,1.464,0.405555584,-0.242592635,1,0,0,1.1771,Gabbro_rect,4,1.177,0,3,0,3,0,1,,,,,,,,,,,,,
5d42486206811e001ada5b4b,SCN,2024-06-20_13h31.09.024,LearnStrategy,2023.2.3,Win32,59.88023952,4,1,5,-0.266666624,-0.392592607,1,0,0,1.2481,Andesite_04,1,04,1,3,1.248,-0.132407365,-0.389814801,1,0,0,1.4432,Pegmatite_rect,6,1.443,0,4,0,4,0,1,,,,,,,,,,,,,
5d42486206811e001ada5b4b,SCN,2024-06-20_13h31.09.024,LearnStrategy,2023.2.3,Win32,59.88023952,4,1,6,-0.250925912,0.119444423,1,0,0,1.5815,Pegmatite_09,6,09,4,3,1.582,0.411111196,-0.241666653,1,0,0,2.1936,Gabbro_rect,4,2.194,0,5,0,5,0,1,,,,,,,,,,,,,
5d42486206811e001ada5b4b,SCN,2024-06-20_13h31.09.024,LearnStrategy,2023.2.3,Win32,59.88023952,4,1,7,-0.388888889,0.401851848,1,0,0,1.6141,Basalt_01,2,01,6,2,1.614,-0.430555556,-0.408333319,1,0,0,1.3267,Obsidian_rect,5,1.327,0,6,0,6,0,1,,,,,,,,,,,,,
5d42486206811e001ada5b4b,SCN,2024-06-20_13h31.09.024,LearnStrategy,2023.2.3,Win32,59.88023952,4,1,8,0.229629658,-0.390740783,1,0,0,2.2983,Diorite_12,3,12,1,6,2.298,0.108333376,-0.244444459,1,0,0,0.7931,Diorite_rect,3,0.793,1,7,0,7,0,1,,,,,,,,,,,,,
5d42486206811e001ada5b4b,SCN,2024-06-20_13h31.09.024,LearnStrategy,2023.2.3,Win32,59.88023952,4,1,9,0.549074102,0.080555563,1,0,0,1.4311,Pumice_02,8,02,4,8,1.431,0.401851937,-0.417592578,1,0,0,0.9273,Pumice_rect,8,0.927,1,8,0,8,0,1,,,,,,,,,,,,,
5d42486206811e001ada5b4b,SCN,2024-06-20_13h31.09.024,LearnStrategy,2023.2.3,Win32,59.88023952,4,1,10,-0.400000007,0.244444441,1,0,0,1.5813,Peridotite_12,7,12,5,2,1.581,-0.418518526,-0.256481524,1,0,0,2.7429,Andesite_rect,1,2.743,0,9,0,9,0,1,,,,,,,,,,,,,
5d42486206811e001ada5b4b,SCN,2024-06-20_13h31.09.024,LearnStrategy,2023.2.3,Win32,59.88023952,4,1,11,-0.564814815,-0.387037065,1,0,0,2.1828,Gabbro_11,4,11,1,1,2.183,0.104629658,-0.255555541,1,0,0,1.9259,Diorite_rect,3,1.926,0,10,0,10,0,1,,,,,,,,,,,,,
5d42486206811e001ada5b4b,SCN,2024-06-20_13h31.09.024,LearnStrategy,2023.2.3,Win32,59.88023952,4,1,12,-0.068518533,-0.24537037,1,0,0,1.5318,Diorite_02,3,02,2,4,1.532,0.112963005,-0.250925912,1,0,0,1.1597,Diorite_rect,3,1.16,1,11,0,11,0,1,,,,,,,,,,,,,
5d42486206811e001ada5b4b,SCN,2024-06-20_13h31.09.024,LearnStrategy,2023.2.3,Win32,59.88023952,4,1,13,-0.521296289,0.1175926,1,0,0,2.5649,Pegmatite_05,6,05,4,1,2.565,-0.10555557,-0.390740783,1,0,0,1.5927,Pegmatite_rect,6,1.593,1,12,0,12,0,1,,,,,,,,,,,,,
5d42486206811e001ada5b4b,SCN,2024-06-20_13h31.09.024,LearnStrategy,2023.2.3,Win32,59.88023952,4,1,14,0.401851937,-0.27870369,1,0,0,6.0976,Pumice_03,8,03,2,7,6.098,-0.149999972,-0.401851866,1,0,0,1.8205,Pegmatite_rect,6,1.821,0,13,0,13,0,1,,,,,,,,,,,,,
5d42486206811e001ada5b4b,SCN,2024-06-20_13h31.09.024,LearnStrategy,2023.2.3,Win32,59.88023952,4,1,15,0.211111139,-0.259259259,1,0,0,2.0146,Peridotite_04,7,04,2,6,2.015,-0.398148148,-0.233333376,1,0,0,2.0273,Andesite_rect,1,2.027,0,14,0,14,0,1,,,,,,,,,,,,,
5d42486206811e001ada5b4b,SCN,2024-06-20_13h31.09.024,LearnStrategy,2023.2.3,Win32,59.88023952,4,1,16,0.196296339,0.268518519,1,0,0,2.1813,Gabbro_09,4,09,5,6,2.181,-0.400925919,-0.252777806,1,0,0,1.8603,Andesite_rect,1,1.86,0,15,0,15,0,1,,,,,,,,,,,,,
5d42486206811e001ada5b4b,SCN,2024-06-20_13h31.09.024,LearnStrategy,2023.2.3,Win32,59.88023952,4,2,1,,,,,,,,1,06,,,,,,,,,,,4,2.86,0,,,,,,0.385185242,-0.256481524,1,0,0,2.8603,Gabbro_rect,0,0,0,0,1,
5d42486206811e001ada5b4b,SCN,2024-06-20_13h31.09.024,LearnStrategy,2023.2.3,Win32,59.88023952,4,2,2,,,,,,,,4,13,,,,,,,,,,,7,4.088,0,,,,,,0.101851852,-0.391666695,1,0,0,4.0882,Peridotite_rect,1,0,1,0,1,
5d42486206811e001ada5b4b,SCN,2024-06-20_13h31.09.024,LearnStrategy,2023.2.3,Win32,59.88023952,4,2,3,,,,,,,,7,05,,,,,,,,,,,1,2.338,0,,,,,,-0.389814801,-0.256481524,1,0,0,2.3378,Andesite_rect,2,0,2,0,1,
5d42486206811e001ada5b4b,SCN,2024-06-20_13h31.09.024,LearnStrategy,2023.2.3,Win32,59.88023952,4,2,4,,,,,,,,4,05,,,,,,,,,,,5,2.388,0,,,,,,-0.392592571,-0.389814801,1,0,0,2.3883,Obsidian_rect,3,0,3,0,1,
5d42486206811e001ada5b4b,SCN,2024-06-20_13h31.09.024,LearnStrategy,2023.2.3,Win32,59.88023952,4,2,5,,,,,,,,5,02,,,,,,,,,,,6,6.377,0,,,,,,-0.080555527,-0.408333319,1,0,0,6.3768,Pegmatite_rect,4,0,4,0,1,
5d42486206811e001ada5b4b,SCN,2024-06-20_13h31.09.024,LearnStrategy,2023.2.3,Win32,59.88023952,4,2,6,,,,,,,,6,16,,,,,,,,,,,3,2.339,0,,,,,,0.131481524,-0.262037065,1,0,0,2.3385,Diorite_rect,5,0,5,0,1,
5d42486206811e001ada5b4b,SCN,2024-06-20_13h31.09.024,LearnStrategy,2023.2.3,Win32,59.88023952,4,2,7,,,,,,,,2,12,,,,,,,,,,,8,2.588,0,,,,,,0.310185185,-0.408333319,1,0,0,2.5879,Pumice_rect,6,0,6,0,1,
5d42486206811e001ada5b4b,SCN,2024-06-20_13h31.09.024,LearnStrategy,2023.2.3,Win32,59.88023952,4,2,8,,,,,,,,6,11,,,,,,,,,,,6,2.777,1,,,,,,-0.140740712,-0.406481496,1,0,0,2.7772,Pegmatite_rect,7,0,7,0,1,
5d42486206811e001ada5b4b,SCN,2024-06-20_13h31.09.024,LearnStrategy,2023.2.3,Win32,59.88023952,4,2,9,,,,,,,,8,04,,,,,,,,,,,4,2.321,0,,,,,,0.35555564,-0.258333347,1,0,0,2.3213,Gabbro_rect,8,0,8,0,1,
5d42486206811e001ada5b4b,SCN,2024-06-20_13h31.09.024,LearnStrategy,2023.2.3,Win32,59.88023952,4,2,10,,,,,,,,3,16,,,,,,,,,,,6,2.525,0,,,,,,-0.17314812,-0.392592607,1,0,0,2.5248,Pegmatite_rect,9,0,9,0,1,
5d42486206811e001ada5b4b,SCN,2024-06-20_13h31.09.024,LearnStrategy,2023.2.3,Win32,59.88023952,4,2,11,,,,,,,,5,05,,,,,,,,,,,1,2.771,0,,,,,,-0.445370356,-0.246296282,1,0,0,2.7714,Andesite_rect,10,0,10,0,1,
5d42486206811e001ada5b4b,SCN,2024-06-20_13h31.09.024,LearnStrategy,2023.2.3,Win32,59.88023952,4,2,12,,,,,,,,2,04,,,,,,,,,,,6,2.472,0,,,,,,-0.141666624,-0.40370369,1,0,0,2.4719,Pegmatite_rect,11,0,11,0,1,
5d42486206811e001ada5b4b,SCN,2024-06-20_13h31.09.024,LearnStrategy,2023.2.3,Win32,59.88023952,4,2,13,,,,,,,,1,11,,,,,,,,,,,6,2.327,0,,,,,,-0.140740712,-0.388888889,1,0,0,2.3269,Pegmatite_rect,12,0,12,0,1,
5d42486206811e001ada5b4b,SCN,2024-06-20_13h31.09.024,LearnStrategy,2023.2.3,Win32,59.88023952,4,2,14,,,,,,,,3,08,,,,,,,,,,,8,1.761,0,,,,,,0.386111083,-0.397222236,1,0,0,1.7607,Pumice_rect,13,0,13,0,1,
5d42486206811e001ada5b4b,SCN,2024-06-20_13h31.09.024,LearnStrategy,2023.2.3,Win32,59.88023952,4,2,15,,,,,,,,7,07,,,,,,,,,,,2,2.555,0,,,,,,-0.140740712,-0.246296282,1,0,0,2.5553,Basalt_rect,14,0,14,0,1,
5d42486206811e001ada5b4b,SCN,2024-06-20_13h31.09.024,LearnStrategy,2023.2.3,Win32,59.88023952,4,2,16,,,,,,,,8,08,,,,,,,,,,,5,1.943,0,,,,,,-0.417592578,-0.407407407,1,0,0,1.9431,Obsidian_rect,15,0,15,0,1,
5d42486206811e001ada5b4b,SCN,2024-06-20_13h31.09.024,LearnStrategy,2023.2.3,Win32,59.88023952,5,1,1,-0.078703704,0.263888889,1,0,0,1.8817,Basalt_02,2,02,5,4,1.882,0.381481453,-0.405555584,1,0,0,4.2595,Pumice_rect,8,4.26,0,0,0,0,0,1,,,,,,,,,,,,,
5d42486206811e001ada5b4b,SCN,2024-06-20_13h31.09.024,LearnStrategy,2023.2.3,Win32,59.88023952,5,1,2,-0.550925926,0.088888875,1,0,0,1.8422,Pegmatite_05,6,05,4,1,1.842,-0.428703697,-0.418518561,1,0,0,6.2928,Obsidian_rect,5,6.293,0,1,0,1,0,1,,,,,,,,,,,,,
5d42486206811e001ada5b4b,SCN,2024-06-20_13h31.09.024,LearnStrategy,2023.2.3,Win32,59.88023952,5,1,3,0.540740826,0.087962963,1,0,0,2.6309,Pumice_02,8,02,4,8,2.631,0.09629631,-0.402777778,1,0,0,12.5927,Peridotite_rect,7,12.593,0,2,0,2,0,1,,,,,,,,,,,,,
5d42486206811e001ada5b4b,SCN,2024-06-20_13h31.09.024,LearnStrategy,2023.2.3,Win32,59.88023952,5,1,4,-0.218518504,0.078703704,1,0,0,1.5816,Pegmatite_09,6,09,4,3,1.582,0.123148176,-0.267592607,1,0,0,1.1601,Diorite_rect,3,1.16,0,3,0,3,0,1,,,,,,,,,,,,,
5d42486206811e001ada5b4b,SCN,2024-06-20_13h31.09.024,LearnStrategy,2023.2.3,Win32,59.88023952,5,1,5,-0.525000007,-0.412962949,1,0,0,2.4488,Gabbro_11,4,11,1,1,2.449,-0.404629637,-0.388888889,1,0,0,2.2768,Obsidian_rect,5,2.277,0,4,0,4,0,1,,,,,,,,,,,,,
5d42486206811e001ada5b4b,SCN,2024-06-20_13h31.09.024,LearnStrategy,2023.2.3,Win32,59.88023952,5,1,6,-0.110185199,-0.262962977,1,0,0,2.3149,Diorite_02,3,02,2,4,2.315,0.420370455,-0.255555541,1,0,0,1.4432,Gabbro_rect,4,1.443,0,5,0,5,0,1,,,,,,,,,,,,,
5d42486206811e001ada5b4b,SCN,2024-06-20_13h31.09.024,LearnStrategy,2023.2.3,Win32,59.88023952,5,1,7,-0.084259245,0.413888887,1,0,0,1.1986,Obsidian_04,5,04,6,4,1.199,-0.094444416,-0.25,1,0,0,2.0932,Basalt_rect,2,2.093,0,6,0,6,0,1,,,,,,,,,,,,,
5d42486206811e001ada5b4b,SCN,2024-06-20_13h31.09.024,LearnStrategy,2023.2.3,Win32,59.88023952,5,1,8,0.556481538,0.393518519,1,0,0,1.2984,Pumice_05,8,05,6,8,1.298,-0.418518526,-0.252777806,1,0,0,1.5436,Andesite_rect,1,1.544,0,7,0,7,0,1,,,,,,,,,,,,,
5d42486206811e001ada5b4b,SCN,2024-06-20_13h31.09.024,LearnStrategy,2023.2.3,Win32,59.88023952,5,1,9,0.20648151,0.397222219,1,0,0,4.4974,Obsidian_08,5,08,6,6,4.497,0.358333305,-0.262962977,1,0,0,4.9198,Gabbro_rect,4,4.92,0,8,0,8,0,1,,,,,,,,,,,,,
5d42486206811e001ada5b4b,SCN,2024-06-20_13h31.09.024,LearnStrategy,2023.2.3,Win32,59.88023952,5,1,10,0.229629658,-0.395370413,1,0,0,2.6147,Diorite_12,3,12,1,6,2.615,-0.349999993,-0.247222265,1,0,0,1.8536,Andesite_rect,1,1.854,0,9,0,9,0,1,,,,,,,,,,,,,
5d42486206811e001ada5b4b,SCN,2024-06-20_13h31.09.024,LearnStrategy,2023.2.3,Win32,59.88023952,5,1,11,0.240740741,-0.079629651,1,0,0,1.1143,Pumice_06,8,06,3,6,1.114,0.161111125,-0.251851894,1,0,0,0.8605,Diorite_rect,3,0.861,0,10,0,10,0,1,,,,,,,,,,,,,
5d42486206811e001ada5b4b,SCN,2024-06-20_13h31.09.024,LearnStrategy,2023.2.3,Win32,59.88023952,5,1,12,-0.51666666,-0.094444487,1,0,0,1.465,Peridotite_02,7,02,3,1,1.465,-0.397222201,-0.251851894,1,0,0,1.144,Andesite_rect,1,1.144,0,11,0,11,0,1,,,,,,,,,,,,,
5d42486206811e001ada5b4b,SCN,2024-06-20_13h31.09.024,LearnStrategy,2023.2.3,Win32,59.88023952,5,1,13,0.385185242,-0.240740741,1,0,0,1.465,Pumice_03,8,03,2,7,1.465,0.415740826,-0.412962949,1,0,0,0.9938,Pumice_rect,8,0.994,1,12,0,12,0,1,,,,,,,,,,,,,
5d42486206811e001ada5b4b,SCN,2024-06-20_13h31.09.024,LearnStrategy,2023.2.3,Win32,59.88023952,5,1,14,-0.113888847,0.252777771,1,0,0,1.9311,Basalt_02,2,02,5,4,1.931,0.083333333,-0.252777806,1,0,0,1.2604,Diorite_rect,3,1.26,0,13,0,13,0,1,,,,,,,,,,,,,
5d42486206811e001ada5b4b,SCN,2024-06-20_13h31.09.024,LearnStrategy,2023.2.3,Win32,59.88023952,5,1,15,0.214814857,0.074999986,1,0,0,1.2822,Pegmatite_12,6,12,4,6,1.282,-0.374074053,-0.398148148,1,0,0,1.6768,Obsidian_rect,5,1.677,0,14,0,14,0,1,,,,,,,,,,,,,
5d42486206811e001ada5b4b,SCN,2024-06-20_13h31.09.024,LearnStrategy,2023.2.3,Win32,59.88023952,5,1,16,0.40370376,0.089814822,1,0,0,1.3643,Obsidian_06,5,06,4,7,1.364,0.160185213,-0.260185171,1,0,0,1.1939,Diorite_rect,3,1.194,0,15,0,15,0,1,,,,,,,,,,,,,
5d42486206811e001ada5b4b,SCN,2024-06-20_13h31.09.024,LearnStrategy,2023.2.3,Win32,59.88023952,5,2,1,,,,,,,,2,10,,,,,,,,,,,5,3.277,0,,,,,,-0.38703703,-0.407407407,1,0,0,3.2772,Obsidian_rect,0,0,0,0,1,
5d42486206811e001ada5b4b,SCN,2024-06-20_13h31.09.024,LearnStrategy,2023.2.3,Win32,59.88023952,5,2,2,,,,,,,,7,14,,,,,,,,,,,3,3.338,0,,,,,,0.14444443,-0.264814801,1,0,0,3.3381,Diorite_rect,1,0,1,0,1,
5d42486206811e001ada5b4b,SCN,2024-06-20_13h31.09.024,LearnStrategy,2023.2.3,Win32,59.88023952,5,2,3,,,,,,,,2,06,,,,,,,,,,,8,3.405,0,,,,,,0.411111196,-0.393518519,1,0,0,3.4046,Pumice_rect,2,0,2,0,1,
5d42486206811e001ada5b4b,SCN,2024-06-20_13h31.09.024,LearnStrategy,2023.2.3,Win32,59.88023952,5,2,4,,,,,,,,8,10,,,,,,,,,,,8,2.888,1,,,,,,0.402777778,-0.400925954,1,0,0,2.8877,Pumice_rect,3,0,3,0,1,
5d42486206811e001ada5b4b,SCN,2024-06-20_13h31.09.024,LearnStrategy,2023.2.3,Win32,59.88023952,5,2,5,,,,,,,,4,16,,,,,,,,,,,2,1.805,0,,,,,,-0.097222222,-0.249074088,1,0,0,1.8048,Basalt_rect,4,0,4,0,1,
5d42486206811e001ada5b4b,SCN,2024-06-20_13h31.09.024,LearnStrategy,2023.2.3,Win32,59.88023952,5,2,6,,,,,,,,6,10,,,,,,,,,,,7,2.11,0,,,,,,0.123148176,-0.400925954,1,0,0,2.1103,Peridotite_rect,5,0,5,0,1,
5d42486206811e001ada5b4b,SCN,2024-06-20_13h31.09.024,LearnStrategy,2023.2.3,Win32,59.88023952,5,2,7,,,,,,,,8,15,,,,,,,,,,,6,2.06,0,,,,,,-0.089814787,-0.398148148,1,0,0,2.0603,Pegmatite_rect,6,0,6,0,1,
5d42486206811e001ada5b4b,SCN,2024-06-20_13h31.09.024,LearnStrategy,2023.2.3,Win32,59.88023952,5,2,8,,,,,,,,5,10,,,,,,,,,,,4,2.305,0,,,,,,0.37037037,-0.251851894,1,0,0,2.3051,Gabbro_rect,7,0,7,0,1,
5d42486206811e001ada5b4b,SCN,2024-06-20_13h31.09.024,LearnStrategy,2023.2.3,Win32,59.88023952,5,2,9,,,,,,,,7,10,,,,,,,,,,,1,1.86,0,,,,,,-0.359259252,-0.251851894,1,0,0,1.8602,Andesite_rect,8,0,8,0,1,
5d42486206811e001ada5b4b,SCN,2024-06-20_13h31.09.024,LearnStrategy,2023.2.3,Win32,59.88023952,5,2,10,,,,,,,,6,06,,,,,,,,,,,5,1.86,0,,,,,,-0.377777771,-0.395370413,1,0,0,1.8604,Obsidian_rect,9,0,9,0,1,
5d42486206811e001ada5b4b,SCN,2024-06-20_13h31.09.024,LearnStrategy,2023.2.3,Win32,59.88023952,5,2,11,,,,,,,,1,14,,,,,,,,,,,3,4.826,0,,,,,,0.135185171,-0.260185171,1,0,0,4.8264,Diorite_rect,10,0,10,0,1,
5d42486206811e001ada5b4b,SCN,2024-06-20_13h31.09.024,LearnStrategy,2023.2.3,Win32,59.88023952,5,2,12,,,,,,,,3,13,,,,,,,,,,,7,7.655,0,,,,,,0.141666695,-0.404629672,1,0,0,7.6545,Peridotite_rect,11,0,11,0,1,
5d42486206811e001ada5b4b,SCN,2024-06-20_13h31.09.024,LearnStrategy,2023.2.3,Win32,59.88023952,5,2,13,,,,,,,,1,01,,,,,,,,,,,8,9.869,0,,,,,,0.463888945,-0.387962977,1,0,0,9.8691,Pumice_rect,12,0,12,0,1,
5d42486206811e001ada5b4b,SCN,2024-06-20_13h31.09.024,LearnStrategy,2023.2.3,Win32,59.88023952,5,2,14,,,,,,,,4,14,,,,,,,,,,,7,2.354,0,,,,,,0.137037065,-0.391666695,1,0,0,2.3537,Peridotite_rect,13,0,13,0,1,
5d42486206811e001ada5b4b,SCN,2024-06-20_13h31.09.024,LearnStrategy,2023.2.3,Win32,59.88023952,5,2,15,,,,,,,,5,07,,,,,,,,,,,2,4.359,0,,,,,,-0.157407407,-0.24537037,1,0,0,4.3594,Basalt_rect,14,0,14,0,1,
5d42486206811e001ada5b4b,SCN,2024-06-20_13h31.09.024,LearnStrategy,2023.2.3,Win32,59.88023952,5,2,16,,,,,,,,3,06,,,,,,,,,,,3,3.454,1,,,,,,0.154629672,-0.246296282,1,0,0,3.4543,Diorite_rect,15,0,15,0,1,
5d42486206811e001ada5b4b,SCN,2024-06-20_13h31.09.024,LearnStrategy,2023.2.3,Win32,59.88023952,6,1,1,-0.07222218,0.103703711,1,0,0,1.2739,Gabbro_10,4,10,4,4,1.274,0.402777778,-0.400925954,1,0,0,1.3434,Pumice_rect,8,1.343,0,0,0,0,0,1,,,,,,,,,,,,,
5d42486206811e001ada5b4b,SCN,2024-06-20_13h31.09.024,LearnStrategy,2023.2.3,Win32,59.88023952,6,1,2,-0.523148148,0.25,1,0,0,1.8481,Diorite_11,3,11,5,1,1.848,-0.36296297,-0.40370369,1,0,0,1.5768,Obsidian_rect,5,1.577,0,1,0,1,0,1,,,,,,,,,,,,,
5d42486206811e001ada5b4b,SCN,2024-06-20_13h31.09.024,LearnStrategy,2023.2.3,Win32,59.88023952,6,1,3,0.551851908,0.382407409,1,0,0,7.8303,Pumice_05,8,05,6,8,7.83,0.12962963,-0.249074088,1,0,0,2.0366,Diorite_rect,3,2.037,0,2,0,2,0,1,,,,,,,,,,,,,
5d42486206811e001ada5b4b,SCN,2024-06-20_13h31.09.024,LearnStrategy,2023.2.3,Win32,59.88023952,6,1,4,0.411111196,0.112037023,1,0,0,1.7482,Obsidian_06,5,06,4,7,1.748,0.126851894,-0.40370369,1,0,0,1.6102,Peridotite_rect,7,1.61,0,3,0,3,0,1,,,,,,,,,,,,,
5d42486206811e001ada5b4b,SCN,2024-06-20_13h31.09.024,LearnStrategy,2023.2.3,Win32,59.88023952,6,1,5,-0.537962949,0.095370363,1,0,0,1.5982,Pegmatite_05,6,05,4,1,1.598,-0.374074053,-0.406481496,1,0,0,2.3766,Obsidian_rect,5,2.377,0,4,0,4,0,1,,,,,,,,,,,,,
5d42486206811e001ada5b4b,SCN,2024-06-20_13h31.09.024,LearnStrategy,2023.2.3,Win32,59.88023952,6,1,6,0.220370399,-0.257407436,1,0,0,2.1252,Peridotite_04,7,04,2,6,2.125,-0.090740698,-0.244444459,1,0,0,1.2602,Basalt_rect,2,1.26,0,5,0,5,0,1,,,,,,,,,,,,,
5d42486206811e001ada5b4b,SCN,2024-06-20_13h31.09.024,LearnStrategy,2023.2.3,Win32,59.88023952,6,1,7,0.412963019,-0.423148191,1,0,0,1.5982,Basalt_14,2,14,1,7,1.598,0.130555541,-0.246296282,1,0,0,1.5601,Diorite_rect,3,1.56,0,6,0,6,0,1,,,,,,,,,,,,,
5d42486206811e001ada5b4b,SCN,2024-06-20_13h31.09.024,LearnStrategy,2023.2.3,Win32,59.88023952,6,1,8,-0.377777771,-0.247222265,1,0,0,1.4979,Andesite_02,1,02,2,2,1.498,-0.39444443,-0.39907406,1,0,0,1.3935,Obsidian_rect,5,1.394,0,7,0,7,0,1,,,,,,,,,,,,,
5d42486206811e001ada5b4b,SCN,2024-06-20_13h31.09.024,LearnStrategy,2023.2.3,Win32,59.88023952,6,1,9,-0.077777792,0.26203703,1,0,0,2.0648,Basalt_02,2,02,5,4,2.065,-0.123148106,-0.247222265,1,0,0,2.1268,Basalt_rect,2,2.127,1,8,0,8,0,1,,,,,,,,,,,,,
5d42486206811e001ada5b4b,SCN,2024-06-20_13h31.09.024,LearnStrategy,2023.2.3,Win32,59.88023952,6,1,10,0.097222222,0.393518519,1,0,0,1.7313,Obsidian_09,5,09,6,5,1.731,-0.336111104,-0.395370413,1,0,0,1.4768,Obsidian_rect,5,1.477,1,9,0,9,0,1,,,,,,,,,,,,,
5d42486206811e001ada5b4b,SCN,2024-06-20_13h31.09.024,LearnStrategy,2023.2.3,Win32,59.88023952,6,1,11,0.391666695,0.119444423,1,0,0,1.2981,Obsidian_06,5,06,4,7,1.298,0.378703788,-0.392592607,1,0,0,1.3768,Pumice_rect,8,1.377,0,10,0,10,0,1,,,,,,,,,,,,,
5d42486206811e001ada5b4b,SCN,2024-06-20_13h31.09.024,LearnStrategy,2023.2.3,Win32,59.88023952,6,1,12,-0.101851852,0.390740739,1,0,0,2.0815,Obsidian_04,5,04,6,4,2.082,-0.427777785,-0.40370369,1,0,0,0.9935,Obsidian_rect,5,0.994,1,11,0,11,0,1,,,,,,,,,,,,,
5d42486206811e001ada5b4b,SCN,2024-06-20_13h31.09.024,LearnStrategy,2023.2.3,Win32,59.88023952,6,1,13,0.365740741,0.077777757,1,0,0,1.5981,Obsidian_06,5,06,4,7,1.598,-0.374074053,-0.410185213,1,0,0,1.0932,Obsidian_rect,5,1.093,1,12,0,12,0,1,,,,,,,,,,,,,
5d42486206811e001ada5b4b,SCN,2024-06-20_13h31.09.024,LearnStrategy,2023.2.3,Win32,59.88023952,6,1,14,0.574074074,0.099074081,1,0,0,1.3311,Pumice_02,8,02,4,8,1.331,0.145370413,-0.260185171,1,0,0,1.2937,Diorite_rect,3,1.294,0,13,0,13,0,1,,,,,,,,,,,,,
5d42486206811e001ada5b4b,SCN,2024-06-20_13h31.09.024,LearnStrategy,2023.2.3,Win32,59.88023952,6,1,15,-0.236111111,0.113888882,1,0,0,1.5483,Pegmatite_09,6,09,4,3,1.548,-0.41574072,-0.406481496,1,0,0,1.0434,Obsidian_rect,5,1.043,0,14,0,14,0,1,,,,,,,,,,,,,
5d42486206811e001ada5b4b,SCN,2024-06-20_13h31.09.024,LearnStrategy,2023.2.3,Win32,59.88023952,6,1,16,0.101851852,0.404629628,1,0,0,1.9471,Obsidian_09,5,09,6,5,1.947,-0.324074074,-0.393518519,1,0,0,1.2103,Obsidian_rect,5,1.21,1,15,0,15,0,1,,,,,,,,,,,,,
5d42486206811e001ada5b4b,SCN,2024-06-20_13h31.09.024,LearnStrategy,2023.2.3,Win32,59.88023952,6,2,1,,,,,,,,5,16,,,,,,,,,,,5,1.71,1,,,,,,-0.346296275,-0.420370384,1,0,0,1.7103,Obsidian_rect,0,0,0,0,1,
5d42486206811e001ada5b4b,SCN,2024-06-20_13h31.09.024,LearnStrategy,2023.2.3,Win32,59.88023952,6,2,2,,,,,,,,5,12,,,,,,,,,,,5,1.444,1,,,,,,-0.38703703,-0.397222236,1,0,0,1.4437,Obsidian_rect,1,0,1,0,1,
5d42486206811e001ada5b4b,SCN,2024-06-20_13h31.09.024,LearnStrategy,2023.2.3,Win32,59.88023952,6,2,3,,,,,,,,6,15,,,,,,,,,,,7,3.127,0,,,,,,0.147222236,-0.402777778,1,0,0,3.127,Peridotite_rect,2,0,2,0,1,
5d42486206811e001ada5b4b,SCN,2024-06-20_13h31.09.024,LearnStrategy,2023.2.3,Win32,59.88023952,6,2,4,,,,,,,,7,06,,,,,,,,,,,8,2.304,0,,,,,,0.350926011,-0.404629672,1,0,0,2.3044,Pumice_rect,3,0,3,0,1,
5d42486206811e001ada5b4b,SCN,2024-06-20_13h31.09.024,LearnStrategy,2023.2.3,Win32,59.88023952,6,2,5,,,,,,,,4,08,,,,,,,,,,,3,1.56,0,,,,,,0.167592578,-0.258333347,1,0,0,1.5603,Diorite_rect,4,0,4,0,1,
5d42486206811e001ada5b4b,SCN,2024-06-20_13h31.09.024,LearnStrategy,2023.2.3,Win32,59.88023952,6,2,6,,,,,,,,3,10,,,,,,,,,,,6,3.16,0,,,,,,-0.059259273,-0.413888931,1,0,0,3.16,Pegmatite_rect,5,0,5,0,1,
5d42486206811e001ada5b4b,SCN,2024-06-20_13h31.09.024,LearnStrategy,2023.2.3,Win32,59.88023952,6,2,7,,,,,,,,7,15,,,,,,,,,,,4,5.903,0,,,,,,0.362962935,-0.260185171,1,0,0,5.9033,Gabbro_rect,6,0,6,0,1,
5d42486206811e001ada5b4b,SCN,2024-06-20_13h31.09.024,LearnStrategy,2023.2.3,Win32,59.88023952,6,2,8,,,,,,,,6,13,,,,,,,,,,,8,2.521,0,,,,,,0.407407407,-0.387962977,1,0,0,2.5209,Pumice_rect,7,0,7,0,1,
5d42486206811e001ada5b4b,SCN,2024-06-20_13h31.09.024,LearnStrategy,2023.2.3,Win32,59.88023952,6,2,9,,,,,,,,3,07,,,,,,,,,,,2,2.171,0,,,,,,-0.083333333,-0.262037065,1,0,0,2.1709,Basalt_rect,8,0,8,0,1,
5d42486206811e001ada5b4b,SCN,2024-06-20_13h31.09.024,LearnStrategy,2023.2.3,Win32,59.88023952,6,2,10,,,,,,,,8,09,,,,,,,,,,,8,1.71,1,,,,,,0.396296325,-0.418518561,1,0,0,1.71,Pumice_rect,9,0,9,0,1,
5d42486206811e001ada5b4b,SCN,2024-06-20_13h31.09.024,LearnStrategy,2023.2.3,Win32,59.88023952,6,2,11,,,,,,,,1,10,,,,,,,,,,,8,1.21,0,,,,,,0.391666695,-0.397222236,1,0,0,1.2105,Pumice_rect,10,0,10,0,1,
5d42486206811e001ada5b4b,SCN,2024-06-20_13h31.09.024,LearnStrategy,2023.2.3,Win32,59.88023952,6,2,12,,,,,,,,2,16,,,,,,,,,,,4,1.293,0,,,,,,0.383333418,-0.249074088,1,0,0,1.2935,Gabbro_rect,11,0,11,0,1,
5d42486206811e001ada5b4b,SCN,2024-06-20_13h31.09.024,LearnStrategy,2023.2.3,Win32,59.88023952,6,2,13,,,,,,,,4,03,,,,,,,,,,,6,2.111,0,,,,,,-0.116666653,-0.395370413,1,0,0,2.1107,Pegmatite_rect,12,0,12,0,1,
5d42486206811e001ada5b4b,SCN,2024-06-20_13h31.09.024,LearnStrategy,2023.2.3,Win32,59.88023952,6,2,14,,,,,,,,2,09,,,,,,,,,,,7,1.277,0,,,,,,0.126851894,-0.397222236,1,0,0,1.2769,Peridotite_rect,13,0,13,0,1,
5d42486206811e001ada5b4b,SCN,2024-06-20_13h31.09.024,LearnStrategy,2023.2.3,Win32,59.88023952,6,2,15,,,,,,,,1,07,,,,,,,,,,,7,0.96,0,,,,,,0.127777806,-0.396296325,1,0,0,0.96,Peridotite_rect,14,0,14,0,1,
5d42486206811e001ada5b4b,SCN,2024-06-20_13h31.09.024,LearnStrategy,2023.2.3,Win32,59.88023952,6,2,16,,,,,,,,8,16,,,,,,,,,,,6,1.594,0,,,,,,-0.140740712,-0.400925954,1,0,0,1.5935,Pegmatite_rect,15,0,15,0,1,
5d42486206811e001ada5b4b,SCN,2024-06-20_13h31.09.024,LearnStrategy,2023.2.3,Win32,59.88023952,7,1,1,-0.216666681,-0.081481474,1,0,0,0.9314,Pumice_13,8,13,3,3,0.931,0.141666695,-0.400000042,1,0,0,1.1771,Peridotite_rect,7,1.177,0,0,0,0,0,1,,,,,,,,,,,,,
5d42486206811e001ada5b4b,SCN,2024-06-20_13h31.09.024,LearnStrategy,2023.2.3,Win32,59.88023952,7,1,2,0.390740712,-0.257407436,1,0,0,0.932,Pumice_03,8,03,2,7,0.932,0.396296325,-0.409259302,1,0,0,0.8437,Pumice_rect,8,0.844,1,1,0,1,0,1,,,,,,,,,,,,,
5d42486206811e001ada5b4b,SCN,2024-06-20_13h31.09.024,LearnStrategy,2023.2.3,Win32,59.88023952,7,1,3,0.537963019,0.094444452,1,0,0,1.9315,Pumice_02,8,02,4,8,1.931,0.404629601,-0.414814843,1,0,0,1.2437,Pumice_rect,8,1.244,1,2,0,2,0,1,,,,,,,,,,,,,
5d42486206811e001ada5b4b,SCN,2024-06-20_13h31.09.024,LearnStrategy,2023.2.3,Win32,59.88023952,7,1,4,-0.383333312,0.100925905,1,0,0,1.4983,Peridotite_16,7,16,4,2,1.498,-0.111111111,-0.398148148,1,0,0,1.2437,Pegmatite_rect,6,1.244,0,3,0,3,0,1,,,,,,,,,,,,,
5d42486206811e001ada5b4b,SCN,2024-06-20_13h31.09.024,LearnStrategy,2023.2.3,Win32,59.88023952,7,1,5,-0.208333333,0.122222229,1,0,0,1.3979,Pegmatite_09,6,09,4,3,1.398,0.114814829,-0.405555584,1,0,0,1.3936,Peridotite_rect,7,1.394,0,4,0,4,0,1,,,,,,,,,,,,,
5d42486206811e001ada5b4b,SCN,2024-06-20_13h31.09.024,LearnStrategy,2023.2.3,Win32,59.88023952,7,1,6,-0.090740698,0.407407407,1,0,0,1.2481,Obsidian_04,5,04,6,4,1.248,-0.425925926,-0.417592578,1,0,0,1.0435,Obsidian_rect,5,1.043,1,5,0,5,0,1,,,,,,,,,,,,,
5d42486206811e001ada5b4b,SCN,2024-06-20_13h31.09.024,LearnStrategy,2023.2.3,Win32,59.88023952,7,1,7,-0.543518526,0.2574074,1,0,0,1.5983,Diorite_11,3,11,5,1,1.598,0.138888889,-0.421296296,1,0,0,1.4103,Peridotite_rect,7,1.41,0,6,0,6,0,1,,,,,,,,,,,,,
5d42486206811e001ada5b4b,SCN,2024-06-20_13h31.09.024,LearnStrategy,2023.2.3,Win32,59.88023952,7,1,8,-0.27407406,0.399999998,1,0,0,1.565,Basalt_08,2,08,6,3,1.565,-0.111111111,-0.264814801,1,0,0,1.6101,Basalt_rect,2,1.61,1,7,0,7,0,1,,,,,,,,,,,,,
5d42486206811e001ada5b4b,SCN,2024-06-20_13h31.09.024,LearnStrategy,2023.2.3,Win32,59.88023952,7,1,9,0.534259231,0.097222222,1,0,0,1.3649,Pumice_02,8,02,4,8,1.365,0.387037065,-0.404629672,1,0,0,1.4768,Pumice_rect,8,1.477,1,8,0,8,0,1,,,,,,,,,,,,,
5d42486206811e001ada5b4b,SCN,2024-06-20_13h31.09.024,LearnStrategy,2023.2.3,Win32,59.88023952,7,1,10,-0.3824074,-0.262037065,1,0,0,1.115,Andesite_02,1,02,2,2,1.115,0.382407436,-0.398148148,1,0,0,1.1603,Pumice_rect,8,1.16,0,9,0,9,0,1,,,,,,,,,,,,,
5d42486206811e001ada5b4b,SCN,2024-06-20_13h31.09.024,LearnStrategy,2023.2.3,Win32,59.88023952,7,1,11,-0.558333326,0.2574074,1,0,0,2.2816,Diorite_11,3,11,5,1,2.282,0.104629658,-0.408333319,1,0,0,1.6933,Peridotite_rect,7,1.693,0,10,0,10,0,1,,,,,,,,,,,,,
5d42486206811e001ada5b4b,SCN,2024-06-20_13h31.09.024,LearnStrategy,2023.2.3,Win32,59.88023952,7,1,12,0.231481481,0.25,1,0,0,1.2814,Gabbro_09,4,09,5,6,1.281,0.406481566,-0.25,1,0,0,1.8269,Gabbro_rect,4,1.827,1,11,0,11,0,1,,,,,,,,,,,,,
5d42486206811e001ada5b4b,SCN,2024-06-20_13h31.09.024,LearnStrategy,2023.2.3,Win32,59.88023952,7,1,13,-0.027777778,0.228703693,1,0,0,0.8984,Basalt_02,2,02,5,4,0.898,0.401851937,-0.411111125,1,0,0,1.5933,Pumice_rect,8,1.593,0,12,0,12,0,1,,,,,,,,,,,,,
5d42486206811e001ada5b4b,SCN,2024-06-20_13h31.09.024,LearnStrategy,2023.2.3,Win32,59.88023952,7,1,14,0.419444473,0.124074053,1,0,0,0.9815,Obsidian_06,5,06,4,7,0.982,-0.341666645,-0.391666695,1,0,0,1.4796,Obsidian_rect,5,1.48,1,13,0,13,0,1,,,,,,,,,,,,,
5d42486206811e001ada5b4b,SCN,2024-06-20_13h31.09.024,LearnStrategy,2023.2.3,Win32,59.88023952,7,1,15,0.100000028,-0.425000014,1,0,0,1.065,Andesite_16,1,16,1,5,1.065,0.394444501,-0.406481496,1,0,0,0.9934,Pumice_rect,8,0.993,0,14,0,14,0,1,,,,,,,,,,,,,
5d42486206811e001ada5b4b,SCN,2024-06-20_13h31.09.024,LearnStrategy,2023.2.3,Win32,59.88023952,7,1,16,-0.53611109,-0.086111104,1,0,0,1.5803,Peridotite_02,7,02,3,1,1.58,-0.380555541,-0.238888917,1,0,0,1.8433,Andesite_rect,1,1.843,0,15,0,15,0,1,,,,,,,,,,,,,
5d42486206811e001ada5b4b,SCN,2024-06-20_13h31.09.024,LearnStrategy,2023.2.3,Win32,59.88023952,7,2,1,,,,,,,,3,13,,,,,,,,,,,8,2.277,0,,,,,,0.372222194,-0.383333347,1,0,0,2.2768,Pumice_rect,0,0,0,0,1,
5d42486206811e001ada5b4b,SCN,2024-06-20_13h31.09.024,LearnStrategy,2023.2.3,Win32,59.88023952,7,2,2,,,,,,,,4,14,,,,,,,,,,,6,2.31,0,,,,,,-0.104629587,-0.389814801,1,0,0,2.3103,Pegmatite_rect,1,0,1,0,1,
5d42486206811e001ada5b4b,SCN,2024-06-20_13h31.09.024,LearnStrategy,2023.2.3,Win32,59.88023952,7,2,3,,,,,,,,5,10,,,,,,,,,,,5,1.527,1,,,,,,-0.368518511,-0.400925954,1,0,0,1.5267,Obsidian_rect,2,0,2,0,1,
5d42486206811e001ada5b4b,SCN,2024-06-20_13h31.09.024,LearnStrategy,2023.2.3,Win32,59.88023952,7,2,4,,,,,,,,7,10,,,,,,,,,,,8,1.66,0,,,,,,0.37962963,-0.414814843,1,0,0,1.6601,Pumice_rect,3,0,3,0,1,
5d42486206811e001ada5b4b,SCN,2024-06-20_13h31.09.024,LearnStrategy,2023.2.3,Win32,59.88023952,7,2,5,,,,,,,,4,08,,,,,,,,,,,8,1.21,0,,,,,,0.376851824,-0.407407407,1,0,0,1.2102,Pumice_rect,4,0,4,0,1,
5d42486206811e001ada5b4b,SCN,2024-06-20_13h31.09.024,LearnStrategy,2023.2.3,Win32,59.88023952,7,2,6,,,,,,,,6,16,,,,,,,,,,,6,2.143,1,,,,,,-0.112037023,-0.392592607,1,0,0,2.1434,Pegmatite_rect,5,0,5,0,1,
5d42486206811e001ada5b4b,SCN,2024-06-20_13h31.09.024,LearnStrategy,2023.2.3,Win32,59.88023952,7,2,7,,,,,,,,6,06,,,,,,,,,,,1,2.055,0,,,,,,-0.338888875,-0.246296282,1,0,0,2.0548,Andesite_rect,6,0,6,0,1,
5d42486206811e001ada5b4b,SCN,2024-06-20_13h31.09.024,LearnStrategy,2023.2.3,Win32,59.88023952,7,2,8,,,,,,,,3,10,,,,,,,,,,,8,1.593,0,,,,,,0.443518603,-0.385185171,1,0,0,1.5934,Pumice_rect,7,0,7,0,1,
5d42486206811e001ada5b4b,SCN,2024-06-20_13h31.09.024,LearnStrategy,2023.2.3,Win32,59.88023952,7,2,9,,,,,,,,1,01,,,,,,,,,,,8,1.227,0,,,,,,0.45185188,-0.384259259,1,0,0,1.2268,Pumice_rect,8,0,8,0,1,
5d42486206811e001ada5b4b,SCN,2024-06-20_13h31.09.024,LearnStrategy,2023.2.3,Win32,59.88023952,7,2,10,,,,,,,,8,08,,,,,,,,,,,4,1.177,0,,,,,,0.416666667,-0.257407436,1,0,0,1.1767,Gabbro_rect,9,0,9,0,1,
5d42486206811e001ada5b4b,SCN,2024-06-20_13h31.09.024,LearnStrategy,2023.2.3,Win32,59.88023952,7,2,11,,,,,,,,5,16,,,,,,,,,,,5,1.343,1,,,,,,-0.383333312,-0.406481496,1,0,0,1.3432,Obsidian_rect,10,0,10,0,1,
5d42486206811e001ada5b4b,SCN,2024-06-20_13h31.09.024,LearnStrategy,2023.2.3,Win32,59.88023952,7,2,12,,,,,,,,7,05,,,,,,,,,,,6,1.46,0,,,,,,-0.154629601,-0.406481496,1,0,0,1.4602,Pegmatite_rect,11,0,11,0,1,
5d42486206811e001ada5b4b,SCN,2024-06-20_13h31.09.024,LearnStrategy,2023.2.3,Win32,59.88023952,7,2,13,,,,,,,,2,10,,,,,,,,,,,2,1.793,1,,,,,,-0.114814829,-0.249074088,1,0,0,1.7934,Basalt_rect,12,0,12,0,1,
5d42486206811e001ada5b4b,SCN,2024-06-20_13h31.09.024,LearnStrategy,2023.2.3,Win32,59.88023952,7,2,14,,,,,,,,8,10,,,,,,,,,,,8,1.393,1,,,,,,0.468518575,-0.415740755,1,0,0,1.3934,Pumice_rect,13,0,13,0,1,
5d42486206811e001ada5b4b,SCN,2024-06-20_13h31.09.024,LearnStrategy,2023.2.3,Win32,59.88023952,7,2,15,,,,,,,,1,14,,,,,,,,,,,7,1.711,0,,,,,,0.145370413,-0.40370369,1,0,0,1.7112,Peridotite_rect,14,0,14,0,1,
5d42486206811e001ada5b4b,SCN,2024-06-20_13h31.09.024,LearnStrategy,2023.2.3,Win32,59.88023952,7,2,16,,,,,,,,2,04,,,,,,,,,,,1,1.593,0,,,,,,-0.376851859,-0.249074088,1,0,0,1.5932,Andesite_rect,15,0,15,0,1,
5d42486206811e001ada5b4b,SCN,2024-06-20_13h31.09.024,LearnStrategy,2023.2.3,Win32,59.88023952,8,1,1,0.074999986,0.096296275,1,0,0,0.865,Gabbro_12,4,12,4,5,0.865,0.116666653,-0.396296325,1,0,0,1.31,Peridotite_rect,7,1.31,0,0,0,0,0,1,,,,,,,,,,,,,
5d42486206811e001ada5b4b,SCN,2024-06-20_13h31.09.024,LearnStrategy,2023.2.3,Win32,59.88023952,8,1,2,-0.237962935,0.103703711,1,0,0,1.0316,Pegmatite_09,6,09,4,3,1.032,-0.412037037,-0.248148176,1,0,0,1.7434,Andesite_rect,1,1.743,0,1,0,1,0,1,,,,,,,,,,,,,
5d42486206811e001ada5b4b,SCN,2024-06-20_13h31.09.024,LearnStrategy,2023.2.3,Win32,59.88023952,8,1,3,0.54351849,0.27037036,1,0,0,1.6483,Pegmatite_08,6,08,5,8,1.648,0.420370455,-0.400925954,1,0,0,1.6937,Pumice_rect,8,1.694,0,2,0,2,0,1,,,,,,,,,,,,,
5d42486206811e001ada5b4b,SCN,2024-06-20_13h31.09.024,LearnStrategy,2023.2.3,Win32,59.88023952,8,1,4,-0.077777792,0.083333333,1,0,0,0.8984,Gabbro_10,4,10,4,4,0.898,0.166666667,-0.237037023,1,0,0,2.3428,Diorite_rect,3,2.343,0,3,0,3,0,1,,,,,,,,,,,,,
5d42486206811e001ada5b4b,SCN,2024-06-20_13h31.09.024,LearnStrategy,2023.2.3,Win32,59.88023952,8,1,5,0.060185185,0.239814811,1,0,0,1.0982,Diorite_15,3,15,5,5,1.098,0.414814843,-0.251851894,1,0,0,1.0439,Gabbro_rect,4,1.044,0,4,0,4,0,1,,,,,,,,,,,,,
5d42486206811e001ada5b4b,SCN,2024-06-20_13h31.09.024,LearnStrategy,2023.2.3,Win32,59.88023952,8,1,6,-0.565740727,0.086111104,1,0,0,1.4816,Pegmatite_05,6,05,4,1,1.482,-0.40648146,-0.247222265,1,0,0,1.4105,Andesite_rect,1,1.411,0,5,0,5,0,1,,,,,,,,,,,,,
5d42486206811e001ada5b4b,SCN,2024-06-20_13h31.09.024,LearnStrategy,2023.2.3,Win32,59.88023952,8,1,7,-0.082407422,0.098148134,1,0,0,1.1144,Gabbro_10,4,10,4,4,1.114,0.150000042,-0.257407436,1,0,0,1.977,Diorite_rect,3,1.977,0,6,0,6,0,1,,,,,,,,,,,,,
5d42486206811e001ada5b4b,SCN,2024-06-20_13h31.09.024,LearnStrategy,2023.2.3,Win32,59.88023952,8,1,8,0.350000028,0.094444452,1,0,0,1.215,Obsidian_06,5,06,4,7,1.215,-0.37037037,-0.401851866,1,0,0,0.9937,Obsidian_rect,5,0.994,1,7,0,7,0,1,,,,,,,,,,,,,
5d42486206811e001ada5b4b,SCN,2024-06-20_13h31.09.024,LearnStrategy,2023.2.3,Win32,59.88023952,8,1,9,-0.353703711,0.416666667,1,0,0,1.3982,Basalt_01,2,01,6,2,1.398,-0.143518519,-0.257407436,1,0,0,1.3104,Basalt_rect,2,1.31,1,8,0,8,0,1,,,,,,,,,,,,,
5d42486206811e001ada5b4b,SCN,2024-06-20_13h31.09.024,LearnStrategy,2023.2.3,Win32,59.88023952,8,1,10,0.400925954,0.260185189,1,0,0,0.9982,Obsidian_14,5,14,5,7,0.998,-0.333333333,-0.387037065,1,0,0,1.2952,Obsidian_rect,5,1.295,1,9,0,9,0,1,,,,,,,,,,,,,
5d42486206811e001ada5b4b,SCN,2024-06-20_13h31.09.024,LearnStrategy,2023.2.3,Win32,59.88023952,8,1,11,-0.087962963,-0.252777806,1,0,0,1.5146,Diorite_02,3,02,2,4,1.515,0.15370369,-0.259259259,1,0,0,1.0934,Diorite_rect,3,1.093,1,10,0,10,0,1,,,,,,,,,,,,,
5d42486206811e001ada5b4b,SCN,2024-06-20_13h31.09.024,LearnStrategy,2023.2.3,Win32,59.88023952,8,1,12,0.557407379,-0.097222222,1,0,0,1.0141,Andesite_05,1,05,3,8,1.014,0.132407436,-0.251851894,1,0,0,1.1107,Diorite_rect,3,1.111,0,11,0,11,0,1,,,,,,,,,,,,,
5d42486206811e001ada5b4b,SCN,2024-06-20_13h31.09.024,LearnStrategy,2023.2.3,Win32,59.88023952,8,1,13,-0.200925898,-0.093518504,1,0,0,1.0985,Pumice_13,8,13,3,3,1.099,-0.371296282,-0.239814829,1,0,0,1.1266,Andesite_rect,1,1.127,0,12,0,12,0,1,,,,,,,,,,,,,
5d42486206811e001ada5b4b,SCN,2024-06-20_13h31.09.024,LearnStrategy,2023.2.3,Win32,59.88023952,8,1,14,-0.058333291,0.098148134,1,0,0,0.9814,Gabbro_10,4,10,4,4,0.981,-0.430555556,-0.262962977,1,0,0,1.7936,Andesite_rect,1,1.794,0,13,0,13,0,1,,,,,,,,,,,,,
5d42486206811e001ada5b4b,SCN,2024-06-20_13h31.09.024,LearnStrategy,2023.2.3,Win32,59.88023952,8,1,15,-0.22129631,-0.112963005,1,0,0,1.1817,Pumice_13,8,13,3,3,1.182,0.367592564,-0.25462963,1,0,0,0.9605,Gabbro_rect,4,0.96,0,14,0,14,0,1,,,,,,,,,,,,,
5d42486206811e001ada5b4b,SCN,2024-06-20_13h31.09.024,LearnStrategy,2023.2.3,Win32,59.88023952,8,1,16,0.089814857,-0.089814822,1,0,0,0.9984,Gabbro_01,4,01,3,5,0.998,0.410185213,-0.396296325,1,0,0,0.7937,Pumice_rect,8,0.794,0,15,0,15,0,1,,,,,,,,,,,,,
5d42486206811e001ada5b4b,SCN,2024-06-20_13h31.09.024,LearnStrategy,2023.2.3,Win32,59.88023952,8,2,1,,,,,,,,8,15,,,,,,,,,,,3,2.243,0,,,,,,0.127777806,-0.247222265,1,0,0,2.2433,Diorite_rect,0,0,0,0,1,
5d42486206811e001ada5b4b,SCN,2024-06-20_13h31.09.024,LearnStrategy,2023.2.3,Win32,59.88023952,8,2,2,,,,,,,,1,07,,,,,,,,,,,4,2.227,0,,,,,,0.338888945,-0.24537037,1,0,0,2.2271,Gabbro_rect,1,0,1,0,1,
5d42486206811e001ada5b4b,SCN,2024-06-20_13h31.09.024,LearnStrategy,2023.2.3,Win32,59.88023952,8,2,3,,,,,,,,3,08,,,,,,,,,,,8,1.921,0,,,,,,0.3648149,-0.418518561,1,0,0,1.9214,Pumice_rect,2,0,2,0,1,
5d42486206811e001ada5b4b,SCN,2024-06-20_13h31.09.024,LearnStrategy,2023.2.3,Win32,59.88023952,8,2,4,,,,,,,,8,04,,,,,,,,,,,3,1.343,0,,,,,,0.160185213,-0.242592635,1,0,0,1.3434,Diorite_rect,3,0,3,0,1,
5d42486206811e001ada5b4b,SCN,2024-06-20_13h31.09.024,LearnStrategy,2023.2.3,Win32,59.88023952,8,2,5,,,,,,,,4,05,,,,,,,,,,,6,1.927,0,,,,,,-0.110185199,-0.416666667,1,0,0,1.9267,Pegmatite_rect,4,0,4,0,1,
5d42486206811e001ada5b4b,SCN,2024-06-20_13h31.09.024,LearnStrategy,2023.2.3,Win32,59.88023952,8,2,6,,,,,,,,6,13,,,,,,,,,,,3,1.81,0,,,,,,0.088888875,-0.265740783,1,0,0,1.8103,Diorite_rect,5,0,5,0,1,
5d42486206811e001ada5b4b,SCN,2024-06-20_13h31.09.024,LearnStrategy,2023.2.3,Win32,59.88023952,8,2,7,,,,,,,,7,06,,,,,,,,,,,8,2.927,0,,,,,,0.354629658,-0.402777778,1,0,0,2.9267,Pumice_rect,6,0,6,0,1,
5d42486206811e001ada5b4b,SCN,2024-06-20_13h31.09.024,LearnStrategy,2023.2.3,Win32,59.88023952,8,2,8,,,,,,,,2,12,,,,,,,,,,,4,2.737,0,,,,,,0.393518519,-0.249074088,1,0,0,2.737,Gabbro_rect,7,0,7,0,1,
5d42486206811e001ada5b4b,SCN,2024-06-20_13h31.09.024,LearnStrategy,2023.2.3,Win32,59.88023952,8,2,9,,,,,,,,6,15,,,,,,,,,,,1,1.744,0,,,,,,-0.365740741,-0.271296325,1,0,0,1.7435,Andesite_rect,8,0,8,0,1,
5d42486206811e001ada5b4b,SCN,2024-06-20_13h31.09.024,LearnStrategy,2023.2.3,Win32,59.88023952,8,2,10,,,,,,,,1,10,,,,,,,,,,,6,1.304,0,,,,,,-0.133333347,-0.408333319,1,0,0,1.3043,Pegmatite_rect,9,0,9,0,1,
5d42486206811e001ada5b4b,SCN,2024-06-20_13h31.09.024,LearnStrategy,2023.2.3,Win32,59.88023952,8,2,11,,,,,,,,5,12,,,,,,,,,,,5,1.327,1,,,,,,-0.342592593,-0.40370369,1,0,0,1.3268,Obsidian_rect,10,0,10,0,1,
5d42486206811e001ada5b4b,SCN,2024-06-20_13h31.09.024,LearnStrategy,2023.2.3,Win32,59.88023952,8,2,12,,,,,,,,5,05,,,,,,,,,,,5,1.146,1,,,,,,-0.346296275,-0.400000042,1,0,0,1.146,Obsidian_rect,11,0,11,0,1,
5d42486206811e001ada5b4b,SCN,2024-06-20_13h31.09.024,LearnStrategy,2023.2.3,Win32,59.88023952,8,2,13,,,,,,,,2,06,,,,,,,,,,,2,2.91,1,,,,,,-0.064814815,-0.255555541,1,0,0,2.9101,Basalt_rect,12,0,12,0,1,
5d42486206811e001ada5b4b,SCN,2024-06-20_13h31.09.024,LearnStrategy,2023.2.3,Win32,59.88023952,8,2,14,,,,,,,,3,16,,,,,,,,,,,7,1.89,0,,,,,,0.123148176,-0.40370369,1,0,0,1.8896,Peridotite_rect,13,0,13,0,1,
5d42486206811e001ada5b4b,SCN,2024-06-20_13h31.09.024,LearnStrategy,2023.2.3,Win32,59.88023952,8,2,15,,,,,,,,4,03,,,,,,,,,,,4,3.61,1,,,,,,0.416666667,-0.250925912,1,0,0,3.6098,Gabbro_rect,14,0,14,0,1,
5d42486206811e001ada5b4b,SCN,2024-06-20_13h31.09.024,LearnStrategy,2023.2.3,Win32,59.88023952,8,2,16,,,,,,,,7,07,,,,,,,,,,,6,1.938,0,,,,,,-0.091666681,-0.390740783,1,0,0,1.9378,Pegmatite_rect,15,0,15,0,1,
5d42486206811e001ada5b4b,SCN,2024-06-20_13h31.09.024,LearnStrategy,2023.2.3,Win32,59.88023952,9,1,1,-0.236111111,0.095370363,1,0,0,1.0313,Pegmatite_09,6,09,4,3,1.031,-0.3675926,-0.238888917,1,0,0,1.7927,Andesite_rect,1,1.793,0,0,0,0,0,1,,,,,,,,,,,,,
5d42486206811e001ada5b4b,SCN,2024-06-20_13h31.09.024,LearnStrategy,2023.2.3,Win32,59.88023952,9,1,2,0.056481467,0.069444444,1,0,0,0.7649,Gabbro_12,4,12,4,5,0.765,0.161111125,-0.235185199,1,0,0,0.8434,Diorite_rect,3,0.843,0,1,0,1,0,1,,,,,,,,,,,,,
5d42486206811e001ada5b4b,SCN,2024-06-20_13h31.09.024,LearnStrategy,2023.2.3,Win32,59.88023952,9,1,3,0.399074131,0.230555552,1,0,0,1.0985,Obsidian_14,5,14,5,7,1.098,-0.377777771,-0.39444443,1,0,0,1.5934,Obsidian_rect,5,1.593,1,2,0,2,0,1,,,,,,,,,,,,,
5d42486206811e001ada5b4b,SCN,2024-06-20_13h31.09.024,LearnStrategy,2023.2.3,Win32,59.88023952,9,1,4,0.545370455,0.096296275,1,0,0,1.1317,Pumice_02,8,02,4,8,1.132,0.440740797,-0.412037037,1,0,0,1.0933,Pumice_rect,8,1.093,1,3,0,3,0,1,,,,,,,,,,,,,
5d42486206811e001ada5b4b,SCN,2024-06-20_13h31.09.024,LearnStrategy,2023.2.3,Win32,59.88023952,9,1,5,0.402777778,0.090740734,1,0,0,0.9819,Obsidian_06,5,06,4,7,0.982,-0.422222208,-0.419444473,1,0,0,1.5098,Obsidian_rect,5,1.51,1,4,0,4,0,1,,,,,,,,,,,,,
5d42486206811e001ada5b4b,SCN,2024-06-20_13h31.09.024,LearnStrategy,2023.2.3,Win32,59.88023952,9,1,6,-0.045370384,0.261111101,1,0,0,1.0816,Basalt_02,2,02,5,4,1.082,0.145370413,-0.248148176,1,0,0,1.2103,Diorite_rect,3,1.21,0,5,0,5,0,1,,,,,,,,,,,,,
5d42486206811e001ada5b4b,SCN,2024-06-20_13h31.09.024,LearnStrategy,2023.2.3,Win32,59.88023952,9,1,7,-0.54074072,0.394444439,1,0,0,1.4816,Basalt_11,2,11,6,1,1.482,-0.402777778,-0.412962949,1,0,0,2.1132,Obsidian_rect,5,2.113,0,6,0,6,0,1,,,,,,,,,,,,,
5d42486206811e001ada5b4b,SCN,2024-06-20_13h31.09.024,LearnStrategy,2023.2.3,Win32,59.88023952,9,1,8,0.532407407,0.406481478,1,0,0,1.4312,Pumice_05,8,05,6,8,1.431,0.126851894,-0.262962977,1,0,0,1.8101,Diorite_rect,3,1.81,0,7,0,7,0,1,,,,,,,,,,,,,
5d42486206811e001ada5b4b,SCN,2024-06-20_13h31.09.024,LearnStrategy,2023.2.3,Win32,59.88023952,9,1,9,0.233333376,-0.077777792,1,0,0,1.215,Pumice_06,8,06,3,6,1.215,0.402777778,-0.232407393,1,0,0,1.2268,Gabbro_rect,4,1.227,0,8,0,8,0,1,,,,,,,,,,,,,
5d42486206811e001ada5b4b,SCN,2024-06-20_13h31.09.024,LearnStrategy,2023.2.3,Win32,59.88023952,9,1,10,-0.376851859,-0.095370399,1,0,0,1.2149,Diorite_14,3,14,3,2,1.215,-0.112962935,-0.389814801,1,0,0,4.2933,Pegmatite_rect,6,4.293,0,9,0,9,0,1,,,,,,,,,,,,,
5d42486206811e001ada5b4b,SCN,2024-06-20_13h31.09.024,LearnStrategy,2023.2.3,Win32,59.88023952,9,1,11,0.132407436,-0.292592578,1,0,0,2.2483,Pegmatite_03,6,03,2,5,2.248,0.147222236,-0.270370413,1,0,0,0.9762,Diorite_rect,3,0.976,0,10,0,10,0,1,,,,,,,,,,,,,
5d42486206811e001ada5b4b,SCN,2024-06-20_13h31.09.024,LearnStrategy,2023.2.3,Win32,59.88023952,9,1,12,-0.065740727,-0.08888891,1,0,0,5.4306,Pegmatite_07,6,07,3,4,5.431,-0.103703675,-0.256481524,1,0,0,2.0871,Basalt_rect,2,2.087,0,11,0,11,0,1,,,,,,,,,,,,,
5d42486206811e001ada5b4b,SCN,2024-06-20_13h31.09.024,LearnStrategy,2023.2.3,Win32,59.88023952,9,1,13,0.279629672,0.114814794,1,0,0,1.1817,Pegmatite_12,6,12,4,6,1.182,0.138888889,-0.250925912,1,0,0,1.4097,Diorite_rect,3,1.41,0,12,0,12,0,1,,,,,,,,,,,,,
5d42486206811e001ada5b4b,SCN,2024-06-20_13h31.09.024,LearnStrategy,2023.2.3,Win32,59.88023952,9,1,14,0.559259344,-0.237963005,1,0,0,1.1484,Andesite_03,1,03,2,8,1.148,0.449074074,-0.393518519,1,0,0,0.7603,Pumice_rect,8,0.76,0,13,0,13,0,1,,,,,,,,,,,,,
5d42486206811e001ada5b4b,SCN,2024-06-20_13h31.09.024,LearnStrategy,2023.2.3,Win32,59.88023952,9,1,15,0.205555598,-0.091666681,1,0,0,1.6984,Pumice_06,8,06,3,6,1.698,0.121296282,-0.256481524,1,0,0,1.145,Diorite_rect,3,1.145,0,14,0,14,0,1,,,,,,,,,,,,,
5d42486206811e001ada5b4b,SCN,2024-06-20_13h31.09.024,LearnStrategy,2023.2.3,Win32,59.88023952,9,1,16,-0.537962949,0.093518504,1,0,0,1.8648,Pegmatite_05,6,05,4,1,1.865,-0.372222229,-0.401851866,1,0,0,1.4267,Obsidian_rect,5,1.427,0,15,0,15,0,1,,,,,,,,,,,,,
5d42486206811e001ada5b4b,SCN,2024-06-20_13h31.09.024,LearnStrategy,2023.2.3,Win32,59.88023952,9,2,1,,,,,,,,5,07,,,,,,,,,,,5,2.194,1,,,,,,-0.421296296,-0.39907406,1,0,0,2.1936,Obsidian_rect,0,0,0,0,1,
5d42486206811e001ada5b4b,SCN,2024-06-20_13h31.09.024,LearnStrategy,2023.2.3,Win32,59.88023952,9,2,2,,,,,,,,7,15,,,,,,,,,,,3,1.827,0,,,,,,0.112037023,-0.253703718,1,0,0,1.8269,Diorite_rect,1,0,1,0,1,
5d42486206811e001ada5b4b,SCN,2024-06-20_13h31.09.024,LearnStrategy,2023.2.3,Win32,59.88023952,9,2,3,,,,,,,,8,16,,,,,,,,,,,8,1.527,1,,,,,,0.386111083,-0.401851866,1,0,0,1.5267,Pumice_rect,2,0,2,0,1,
5d42486206811e001ada5b4b,SCN,2024-06-20_13h31.09.024,LearnStrategy,2023.2.3,Win32,59.88023952,9,2,4,,,,,,,,5,02,,,,,,,,,,,5,1.477,1,,,,,,-0.424999979,-0.400000042,1,0,0,1.477,Obsidian_rect,3,0,3,0,1,
5d42486206811e001ada5b4b,SCN,2024-06-20_13h31.09.024,LearnStrategy,2023.2.3,Win32,59.88023952,9,2,5,,,,,,,,2,09,,,,,,,,,,,1,1.66,0,,,,,,-0.37037037,-0.260185171,1,0,0,1.6601,Andesite_rect,4,0,4,0,1,
5d42486206811e001ada5b4b,SCN,2024-06-20_13h31.09.024,LearnStrategy,2023.2.3,Win32,59.88023952,9,2,6,,,,,,,,6,10,,,,,,,,,,,3,3.193,0,,,,,,0.078703704,-0.251851894,1,0,0,3.1929,Diorite_rect,5,0,5,0,1,
5d42486206811e001ada5b4b,SCN,2024-06-20_13h31.09.024,LearnStrategy,2023.2.3,Win32,59.88023952,9,2,7,,,,,,,,3,07,,,,,,,,,,,4,2.237,0,,,,,,0.367592564,-0.242592635,1,0,0,2.2374,Gabbro_rect,6,0,6,0,1,
5d42486206811e001ada5b4b,SCN,2024-06-20_13h31.09.024,LearnStrategy,2023.2.3,Win32,59.88023952,9,2,8,,,,,,,,2,16,,,,,,,,,,,6,2.026,0,,,,,,-0.154629601,-0.402777778,1,0,0,2.0259,Pegmatite_rect,7,0,7,0,1,
5d42486206811e001ada5b4b,SCN,2024-06-20_13h31.09.024,LearnStrategy,2023.2.3,Win32,59.88023952,9,2,9,,,,,,,,4,16,,,,,,,,,,,7,1.345,0,,,,,,0.110185199,-0.393518519,1,0,0,1.3447,Peridotite_rect,8,0,8,0,1,
5d42486206811e001ada5b4b,SCN,2024-06-20_13h31.09.024,LearnStrategy,2023.2.3,Win32,59.88023952,9,2,10,,,,,,,,3,06,,,,,,,,,,,2,1.831,0,,,,,,-0.097222222,-0.26944443,1,0,0,1.8309,Basalt_rect,9,0,9,0,1,
5d42486206811e001ada5b4b,SCN,2024-06-20_13h31.09.024,LearnStrategy,2023.2.3,Win32,59.88023952,9,2,11,,,,,,,,7,14,,,,,,,,,,,6,1.668,0,,,,,,-0.115740741,-0.395370413,1,0,0,1.668,Pegmatite_rect,10,0,10,0,1,
5d42486206811e001ada5b4b,SCN,2024-06-20_13h31.09.024,LearnStrategy,2023.2.3,Win32,59.88023952,9,2,12,,,,,,,,6,11,,,,,,,,,,,1,1.734,0,,,,,,-0.374074053,-0.242592635,1,0,0,1.7344,Andesite_rect,11,0,11,0,1,
5d42486206811e001ada5b4b,SCN,2024-06-20_13h31.09.024,LearnStrategy,2023.2.3,Win32,59.88023952,9,2,13,,,,,,,,4,13,,,,,,,,,,,4,1.518,1,,,,,,0.347222222,-0.26944443,1,0,0,1.5183,Gabbro_rect,12,0,12,0,1,
5d42486206811e001ada5b4b,SCN,2024-06-20_13h31.09.024,LearnStrategy,2023.2.3,Win32,59.88023952,9,2,14,,,,,,,,1,06,,,,,,,,,,,7,1.468,0,,,,,,0.135185171,-0.415740755,1,0,0,1.4683,Peridotite_rect,13,0,13,0,1,
5d42486206811e001ada5b4b,SCN,2024-06-20_13h31.09.024,LearnStrategy,2023.2.3,Win32,59.88023952,9,2,15,,,,,,,,8,09,,,,,,,,,,,8,1.903,1,,,,,,0.409259231,-0.404629672,1,0,0,1.9027,Pumice_rect,14,0,14,0,1,
5d42486206811e001ada5b4b,SCN,2024-06-20_13h31.09.024,LearnStrategy,2023.2.3,Win32,59.88023952,9,2,16,,,,,,,,1,11,,,,,,,,,,,6,1.568,0,,,,,,-0.069444444,-0.400000042,1,0,0,1.5677,Pegmatite_rect,15,0,15,0,1,
5d42486206811e001ada5b4b,SCN,2024-06-20_13h31.09.024,LearnStrategy,2023.2.3,Win32,59.88023952,,,,,,,,,,,,,,,,,,,,,,,,,,,,,,,,,,,,,,,,,,,0
5d42486206811e001ada5b4b,SCN,2024-06-20_13h31.09.024,LearnStrategy,2023.2.3,Win32,59.88023952,,,,,,,,,,,,,,,,,,,,,,,,,,,,,,,,,,,,,,,,,,,
5d42486206811e001ada5b4b,SCN,2024-06-20_13h31.09.024,LearnStrategy,2023.2.3,Win32,59.88023952,,,,,,,,,,,4,11,1,1,,,,,,,,,,,,,,,,,,,,,,,,,,,,,
5d42486206811e001ada5b4b,SCN,2024-06-20_13h31.09.024,LearnStrategy,2023.2.3,Win32,59.88023952,,,,,,,,,,,8,14,1,2,,,,,,,,,,,,,,,,,,,,,,,,,,,,,
5d42486206811e001ada5b4b,SCN,2024-06-20_13h31.09.024,LearnStrategy,2023.2.3,Win32,59.88023952,,,,,,,,,,,1,04,1,3,,,,,,,,,,,,,,,,,,,,,,,,,,,,,
5d42486206811e001ada5b4b,SCN,2024-06-20_13h31.09.024,LearnStrategy,2023.2.3,Win32,59.88023952,,,,,,,,,,,2,05,1,4,,,,,,,,,,,,,,,,,,,,,,,,,,,,,
5d42486206811e001ada5b4b,SCN,2024-06-20_13h31.09.024,LearnStrategy,2023.2.3,Win32,59.88023952,,,,,,,,,,,1,16,1,5,,,,,,,,,,,,,,,,,,,,,,,,,,,,,
5d42486206811e001ada5b4b,SCN,2024-06-20_13h31.09.024,LearnStrategy,2023.2.3,Win32,59.88023952,,,,,,,,,,,3,12,1,6,,,,,,,,,,,,,,,,,,,,,,,,,,,,,
5d42486206811e001ada5b4b,SCN,2024-06-20_13h31.09.024,LearnStrategy,2023.2.3,Win32,59.88023952,,,,,,,,,,,2,14,1,7,,,,,,,,,,,,,,,,,,,,,,,,,,,,,
5d42486206811e001ada5b4b,SCN,2024-06-20_13h31.09.024,LearnStrategy,2023.2.3,Win32,59.88023952,,,,,,,,,,,7,13,1,8,,,,,,,,,,,,,,,,,,,,,,,,,,,,,
5d42486206811e001ada5b4b,SCN,2024-06-20_13h31.09.024,LearnStrategy,2023.2.3,Win32,59.88023952,,,,,,,,,,,7,08,2,1,,,,,,,,,,,,,,,,,,,,,,,,,,,,,
5d42486206811e001ada5b4b,SCN,2024-06-20_13h31.09.024,LearnStrategy,2023.2.3,Win32,59.88023952,,,,,,,,,,,1,02,2,2,,,,,,,,,,,,,,,,,,,,,,,,,,,,,
5d42486206811e001ada5b4b,SCN,2024-06-20_13h31.09.024,LearnStrategy,2023.2.3,Win32,59.88023952,,,,,,,,,,,1,09,2,3,,,,,,,,,,,,,,,,,,,,,,,,,,,,,
5d42486206811e001ada5b4b,SCN,2024-06-20_13h31.09.024,LearnStrategy,2023.2.3,Win32,59.88023952,,,,,,,,,,,3,02,2,4,,,,,,,,,,,,,,,,,,,,,,,,,,,,,
5d42486206811e001ada5b4b,SCN,2024-06-20_13h31.09.024,LearnStrategy,2023.2.3,Win32,59.88023952,,,,,,,,,,,6,03,2,5,,,,,,,,,,,,,,,,,,,,,,,,,,,,,
5d42486206811e001ada5b4b,SCN,2024-06-20_13h31.09.024,LearnStrategy,2023.2.3,Win32,59.88023952,,,,,,,,,,,7,04,2,6,,,,,,,,,,,,,,,,,,,,,,,,,,,,,
5d42486206811e001ada5b4b,SCN,2024-06-20_13h31.09.024,LearnStrategy,2023.2.3,Win32,59.88023952,,,,,,,,,,,8,03,2,7,,,,,,,,,,,,,,,,,,,,,,,,,,,,,
5d42486206811e001ada5b4b,SCN,2024-06-20_13h31.09.024,LearnStrategy,2023.2.3,Win32,59.88023952,,,,,,,,,,,1,03,2,8,,,,,,,,,,,,,,,,,,,,,,,,,,,,,
5d42486206811e001ada5b4b,SCN,2024-06-20_13h31.09.024,LearnStrategy,2023.2.3,Win32,59.88023952,,,,,,,,,,,7,02,3,1,,,,,,,,,,,,,,,,,,,,,,,,,,,,,
5d42486206811e001ada5b4b,SCN,2024-06-20_13h31.09.024,LearnStrategy,2023.2.3,Win32,59.88023952,,,,,,,,,,,3,14,3,2,,,,,,,,,,,,,,,,,,,,,,,,,,,,,
5d42486206811e001ada5b4b,SCN,2024-06-20_13h31.09.024,LearnStrategy,2023.2.3,Win32,59.88023952,,,,,,,,,,,8,13,3,3,,,,,,,,,,,,,,,,,,,,,,,,,,,,,
5d42486206811e001ada5b4b,SCN,2024-06-20_13h31.09.024,LearnStrategy,2023.2.3,Win32,59.88023952,,,,,,,,,,,6,07,3,4,,,,,,,,,,,,,,,,,,,,,,,,,,,,,
5d42486206811e001ada5b4b,SCN,2024-06-20_13h31.09.024,LearnStrategy,2023.2.3,Win32,59.88023952,,,,,,,,,,,4,01,3,5,,,,,,,,,,,,,,,,,,,,,,,,,,,,,
5d42486206811e001ada5b4b,SCN,2024-06-20_13h31.09.024,LearnStrategy,2023.2.3,Win32,59.88023952,,,,,,,,,,,8,06,3,6,,,,,,,,,,,,,,,,,,,,,,,,,,,,,
5d42486206811e001ada5b4b,SCN,2024-06-20_13h31.09.024,LearnStrategy,2023.2.3,Win32,59.88023952,,,,,,,,,,,3,09,3,7,,,,,,,,,,,,,,,,,,,,,,,,,,,,,
5d42486206811e001ada5b4b,SCN,2024-06-20_13h31.09.024,LearnStrategy,2023.2.3,Win32,59.88023952,,,,,,,,,,,1,05,3,8,,,,,,,,,,,,,,,,,,,,,,,,,,,,,
5d42486206811e001ada5b4b,SCN,2024-06-20_13h31.09.024,LearnStrategy,2023.2.3,Win32,59.88023952,,,,,,,,,,,6,05,4,1,,,,,,,,,,,,,,,,,,,,,,,,,,,,,
5d42486206811e001ada5b4b,SCN,2024-06-20_13h31.09.024,LearnStrategy,2023.2.3,Win32,59.88023952,,,,,,,,,,,7,16,4,2,,,,,,,,,,,,,,,,,,,,,,,,,,,,,
5d42486206811e001ada5b4b,SCN,2024-06-20_13h31.09.024,LearnStrategy,2023.2.3,Win32,59.88023952,,,,,,,,,,,6,09,4,3,,,,,,,,,,,,,,,,,,,,,,,,,,,,,
5d42486206811e001ada5b4b,SCN,2024-06-20_13h31.09.024,LearnStrategy,2023.2.3,Win32,59.88023952,,,,,,,,,,,4,10,4,4,,,,,,,,,,,,,,,,,,,,,,,,,,,,,
5d42486206811e001ada5b4b,SCN,2024-06-20_13h31.09.024,LearnStrategy,2023.2.3,Win32,59.88023952,,,,,,,,,,,4,12,4,5,,,,,,,,,,,,,,,,,,,,,,,,,,,,,
5d42486206811e001ada5b4b,SCN,2024-06-20_13h31.09.024,LearnStrategy,2023.2.3,Win32,59.88023952,,,,,,,,,,,6,12,4,6,,,,,,,,,,,,,,,,,,,,,,,,,,,,,
5d42486206811e001ada5b4b,SCN,2024-06-20_13h31.09.024,LearnStrategy,2023.2.3,Win32,59.88023952,,,,,,,,,,,5,06,4,7,,,,,,,,,,,,,,,,,,,,,,,,,,,,,
5d42486206811e001ada5b4b,SCN,2024-06-20_13h31.09.024,LearnStrategy,2023.2.3,Win32,59.88023952,,,,,,,,,,,8,02,4,8,,,,,,,,,,,,,,,,,,,,,,,,,,,,,
5d42486206811e001ada5b4b,SCN,2024-06-20_13h31.09.024,LearnStrategy,2023.2.3,Win32,59.88023952,,,,,,,,,,,3,11,5,1,,,,,,,,,,,,,,,,,,,,,,,,,,,,,
5d42486206811e001ada5b4b,SCN,2024-06-20_13h31.09.024,LearnStrategy,2023.2.3,Win32,59.88023952,,,,,,,,,,,7,12,5,2,,,,,,,,,,,,,,,,,,,,,,,,,,,,,
5d42486206811e001ada5b4b,SCN,2024-06-20_13h31.09.024,LearnStrategy,2023.2.3,Win32,59.88023952,,,,,,,,,,,4,15,5,3,,,,,,,,,,,,,,,,,,,,,,,,,,,,,
5d42486206811e001ada5b4b,SCN,2024-06-20_13h31.09.024,LearnStrategy,2023.2.3,Win32,59.88023952,,,,,,,,,,,2,02,5,4,,,,,,,,,,,,,,,,,,,,,,,,,,,,,
5d42486206811e001ada5b4b,SCN,2024-06-20_13h31.09.024,LearnStrategy,2023.2.3,Win32,59.88023952,,,,,,,,,,,3,15,5,5,,,,,,,,,,,,,,,,,,,,,,,,,,,,,
5d42486206811e001ada5b4b,SCN,2024-06-20_13h31.09.024,LearnStrategy,2023.2.3,Win32,59.88023952,,,,,,,,,,,4,09,5,6,,,,,,,,,,,,,,,,,,,,,,,,,,,,,
5d42486206811e001ada5b4b,SCN,2024-06-20_13h31.09.024,LearnStrategy,2023.2.3,Win32,59.88023952,,,,,,,,,,,5,14,5,7,,,,,,,,,,,,,,,,,,,,,,,,,,,,,
5d42486206811e001ada5b4b,SCN,2024-06-20_13h31.09.024,LearnStrategy,2023.2.3,Win32,59.88023952,,,,,,,,,,,6,08,5,8,,,,,,,,,,,,,,,,,,,,,,,,,,,,,
5d42486206811e001ada5b4b,SCN,2024-06-20_13h31.09.024,LearnStrategy,2023.2.3,Win32,59.88023952,,,,,,,,,,,2,11,6,1,,,,,,,,,,,,,,,,,,,,,,,,,,,,,
5d42486206811e001ada5b4b,SCN,2024-06-20_13h31.09.024,LearnStrategy,2023.2.3,Win32,59.88023952,,,,,,,,,,,2,01,6,2,,,,,,,,,,,,,,,,,,,,,,,,,,,,,
5d42486206811e001ada5b4b,SCN,2024-06-20_13h31.09.024,LearnStrategy,2023.2.3,Win32,59.88023952,,,,,,,,,,,2,08,6,3,,,,,,,,,,,,,,,,,,,,,,,,,,,,,
5d42486206811e001ada5b4b,SCN,2024-06-20_13h31.09.024,LearnStrategy,2023.2.3,Win32,59.88023952,,,,,,,,,,,5,04,6,4,,,,,,,,,,,,,,,,,,,,,,,,,,,,,
5d42486206811e001ada5b4b,SCN,2024-06-20_13h31.09.024,LearnStrategy,2023.2.3,Win32,59.88023952,,,,,,,,,,,5,09,6,5,,,,,,,,,,,,,,,,,,,,,,,,,,,,,
5d42486206811e001ada5b4b,SCN,2024-06-20_13h31.09.024,LearnStrategy,2023.2.3,Win32,59.88023952,,,,,,,,,,,5,08,6,6,,,,,,,,,,,,,,,,,,,,,,,,,,,,,
5d42486206811e001ada5b4b,SCN,2024-06-20_13h31.09.024,LearnStrategy,2023.2.3,Win32,59.88023952,,,,,,,,,,,5,11,6,7,,,,,,,,,,,,,,,,,,,,,,,,,,,,,
5d42486206811e001ada5b4b,SCN,2024-06-20_13h31.09.024,LearnStrategy,2023.2.3,Win32,59.88023952,,,,,,,,,,,8,05,6,8,,,,,,,,,,,,,,,,,,,,,,,,,,,,,