participant,condition,date,expName,psychopyVersion,OS,frameRate,block,phase,trial,learn_mouse.x,learn_mouse.y,learn_mouse.leftButton,learn_mouse.midButton,learn_mouse.rightButton,learn_mouse.time,learn_mouse.clicked_name,cat,token,row,col,t_select,cat_rec,token_rec,cat_mouse_l.x,cat_mouse_l.y,cat_mouse_l.leftButton,cat_mouse_l.midButton,cat_mouse_l.rightButton,cat_mouse_l.time,cat_mouse_l.clicked_name,resp,t_resp,corr,train_trials.thisRepN,train_trials.thisTrialN,train_trials.thisN,train_trials.thisIndex,train_trials.ran,cat_mouse_t.x,cat_mouse_t.y,cat_mouse_t.leftButton,cat_mouse_t.midButton,cat_mouse_t.rightButton,cat_mouse_t.time,cat_mouse_t.clicked_name,test_trials.thisRepN,test_trials.thisTrialN,test_trials.thisN,test_trials.thisIndex,test_trials.ran,Bonus
5d4869cc692e5400197a980c,SCR,2024-06-21_12h46.42.157,LearnStrategy,2023.2.3,Win32,59.88023952,,,,,,,,,,,,,,,,,,,,,,,,,,,,,,,,,,,,,,,,,,,,,
5d4869cc692e5400197a980c,SCR,2024-06-21_12h46.42.157,LearnStrategy,2023.2.3,Win32,59.88023952,1,1,1,0.517592593,-0.408333333,1,0,0,3.1431,Pumice_16,8,16,1,8,3.143,8,16,-0.164814815,-0.238888889,1,0,0,3.8247,Basalt_rect,2,3.825,0,0,0,0,0,1,,,,,,,,,,,,,
5d4869cc692e5400197a980c,SCR,2024-06-21_12h46.42.157,LearnStrategy,2023.2.3,Win32,59.88023952,1,1,2,-0.066666667,0.396296296,1,0,0,1.2834,Basalt_08,2,08,6,4,1.283,2,08,0.096296296,-0.251851852,1,0,0,4.6091,Diorite_rect,3,4.609,0,1,0,1,0,1,,,,,,,,,,,,,
5d4869cc692e5400197a980c,SCR,2024-06-21_12h46.42.157,LearnStrategy,2023.2.3,Win32,59.88023952,1,1,3,-0.222222222,-0.088888889,1,0,0,1.1,Diorite_12,3,12,3,3,1.1,3,12,-0.148148148,-0.42037037,1,0,0,2.9513,Pegmatite_rect,6,2.951,0,2,0,2,0,1,,,,,,,,,,,,,
5d4869cc692e5400197a980c,SCR,2024-06-21_12h46.42.157,LearnStrategy,2023.2.3,Win32,59.88023952,1,1,4,0.061111111,0.422222222,1,0,0,1.2263,Pumice_09,8,09,6,5,1.226,8,09,-0.163888889,-0.402777778,1,0,0,3.275,Pegmatite_rect,6,3.275,0,3,0,3,0,1,,,,,,,,,,,,,
5d4869cc692e5400197a980c,SCR,2024-06-21_12h46.42.157,LearnStrategy,2023.2.3,Win32,59.88023952,1,1,5,0.519444444,-0.088888889,1,0,0,1.5754,Andesite_14,1,14,3,8,1.575,1,14,0.425,-0.258333333,1,0,0,3.6498,Gabbro_rect,4,3.65,0,4,0,4,0,1,,,,,,,,,,,,,
5d4869cc692e5400197a980c,SCR,2024-06-21_12h46.42.157,LearnStrategy,2023.2.3,Win32,59.88023952,1,1,6,0.084259259,0.235185185,1,0,0,1.3217,Obsidian_14,5,14,5,5,1.322,5,14,-0.381481481,-0.417592593,1,0,0,1.3807,Obsidian_rect,5,1.381,1,5,0,5,0,1,,,,,,,,,,,,,
5d4869cc692e5400197a980c,SCR,2024-06-21_12h46.42.157,LearnStrategy,2023.2.3,Win32,59.88023952,1,1,7,-0.238888889,0.402777778,1,0,0,0.9675,Diorite_02,3,02,6,3,0.968,3,02,0.182407407,-0.256481481,1,0,0,3.1769,Diorite_rect,3,3.177,1,6,0,6,0,1,,,,,,,,,,,,,
5d4869cc692e5400197a980c,SCR,2024-06-21_12h46.42.157,LearnStrategy,2023.2.3,Win32,59.88023952,1,1,8,-0.209259259,-0.20462963,1,0,0,1.186,Pegmatite_05,6,05,2,3,1.186,6,05,-0.381481481,-0.25462963,1,0,0,1.8053,Andesite_rect,1,1.805,0,7,0,7,0,1,,,,,,,,,,,,,
5d4869cc692e5400197a980c,SCR,2024-06-21_12h46.42.157,LearnStrategy,2023.2.3,Win32,59.88023952,1,1,9,0.42037037,0.076851852,1,0,0,1.0644,Peridotite_13,7,13,4,7,1.064,7,13,0.172222222,-0.264814815,1,0,0,2.3197,Diorite_rect,3,2.32,0,8,0,8,0,1,,,,,,,,,,,,,
5d4869cc692e5400197a980c,SCR,2024-06-21_12h46.42.157,LearnStrategy,2023.2.3,Win32,59.88023952,1,1,10,-0.257407407,-0.405555556,1,0,0,1.1078,Peridotite_15,7,15,1,3,1.108,7,15,0.094444444,-0.4,1,0,0,1.4242,Peridotite_rect,7,1.424,1,9,0,9,0,1,,,,,,,,,,,,,
5d4869cc692e5400197a980c,SCR,2024-06-21_12h46.42.157,LearnStrategy,2023.2.3,Win32,59.88023952,1,1,11,-0.525,0.264814815,1,0,0,1.2968,Gabbro_01,4,01,5,1,1.297,4,01,0.315740741,-0.240740741,1,0,0,1.6192,Gabbro_rect,4,1.619,1,10,0,10,0,1,,,,,,,,,,,,,
5d4869cc692e5400197a980c,SCR,2024-06-21_12h46.42.157,LearnStrategy,2023.2.3,Win32,59.88023952,1,1,12,-0.57037037,0.449074074,1,0,0,1.1303,Obsidian_07,5,07,6,1,1.13,5,07,-0.442592593,-0.39537037,1,0,0,1.6037,Obsidian_rect,5,1.604,1,11,0,11,0,1,,,,,,,,,,,,,
5d4869cc692e5400197a980c,SCR,2024-06-21_12h46.42.157,LearnStrategy,2023.2.3,Win32,59.88023952,1,1,13,0.363888889,-0.250925926,1,0,0,1.1018,Basalt_04,2,04,2,7,1.102,2,04,0.402777778,-0.412962963,1,0,0,1.0601,Pumice_rect,8,1.06,0,12,0,12,0,1,,,,,,,,,,,,,
5d4869cc692e5400197a980c,SCR,2024-06-21_12h46.42.157,LearnStrategy,2023.2.3,Win32,59.88023952,1,1,14,0.222222222,0.272222222,1,0,0,1.0071,Gabbro_09,4,09,5,6,1.007,4,09,-0.424074074,-0.412962963,1,0,0,3.0159,Obsidian_rect,5,3.016,0,13,0,13,0,1,,,,,,,,,,,,,
5d4869cc692e5400197a980c,SCR,2024-06-21_12h46.42.157,LearnStrategy,2023.2.3,Win32,59.88023952,1,1,15,-0.394444444,-0.101851852,1,0,0,1.0459,Andesite_01,1,01,3,2,1.046,1,01,0.349074074,-0.265740741,1,0,0,1.6983,Gabbro_rect,4,1.698,0,14,0,14,0,1,,,,,,,,,,,,,
5d4869cc692e5400197a980c,SCR,2024-06-21_12h46.42.157,LearnStrategy,2023.2.3,Win32,59.88023952,1,1,16,0.058333333,0.103703704,1,0,0,0.9069,Pegmatite_16,6,16,4,5,0.907,6,16,-0.055555556,-0.421296296,1,0,0,3.5717,Pegmatite_rect,6,3.572,1,15,0,15,0,1,,,,,,,,,,,,,
5d4869cc692e5400197a980c,SCR,2024-06-21_12h46.42.157,LearnStrategy,2023.2.3,Win32,59.88023952,1,2,1,,,,,,,,1,11,,,,,,,,,,,,,1,4.306,1,,,,,,-0.362962963,-0.253703704,1,0,0,4.3062,Andesite_rect,0,0,0,0,1,
5d4869cc692e5400197a980c,SCR,2024-06-21_12h46.42.157,LearnStrategy,2023.2.3,Win32,59.88023952,1,2,2,,,,,,,,5,11,,,,,,,,,,,,,5,1.591,1,,,,,,-0.333333333,-0.405555556,1,0,0,1.591,Obsidian_rect,1,0,1,0,1,
5d4869cc692e5400197a980c,SCR,2024-06-21_12h46.42.157,LearnStrategy,2023.2.3,Win32,59.88023952,1,2,3,,,,,,,,7,12,,,,,,,,,,,,,4,2.874,0,,,,,,0.366666667,-0.265740741,1,0,0,2.8737,Gabbro_rect,2,0,2,0,1,
5d4869cc692e5400197a980c,SCR,2024-06-21_12h46.42.157,LearnStrategy,2023.2.3,Win32,59.88023952,1,2,4,,,,,,,,3,07,,,,,,,,,,,,,6,2.48,0,,,,,,-0.112037037,-0.402777778,1,0,0,2.4796,Pegmatite_rect,3,0,3,0,1,
5d4869cc692e5400197a980c,SCR,2024-06-21_12h46.42.157,LearnStrategy,2023.2.3,Win32,59.88023952,1,2,5,,,,,,,,4,14,,,,,,,,,,,,,8,2.328,0,,,,,,0.340740741,-0.392592593,1,0,0,2.3279,Pumice_rect,4,0,4,0,1,
5d4869cc692e5400197a980c,SCR,2024-06-21_12h46.42.157,LearnStrategy,2023.2.3,Win32,59.88023952,1,2,6,,,,,,,,2,01,,,,,,,,,,,,,2,2.82,1,,,,,,-0.201851852,-0.249074074,1,0,0,2.8204,Basalt_rect,5,0,5,0,1,
5d4869cc692e5400197a980c,SCR,2024-06-21_12h46.42.157,LearnStrategy,2023.2.3,Win32,59.88023952,1,2,7,,,,,,,,8,08,,,,,,,,,,,,,1,2.784,0,,,,,,-0.358333333,-0.247222222,1,0,0,2.7844,Andesite_rect,6,0,6,0,1,
5d4869cc692e5400197a980c,SCR,2024-06-21_12h46.42.157,LearnStrategy,2023.2.3,Win32,59.88023952,1,2,8,,,,,,,,6,11,,,,,,,,,,,,,6,2.058,1,,,,,,-0.138888889,-0.399074074,1,0,0,2.0576,Pegmatite_rect,7,0,7,0,1,
5d4869cc692e5400197a980c,SCR,2024-06-21_12h46.42.157,LearnStrategy,2023.2.3,Win32,59.88023952,1,2,9,,,,,,,,2,10,,,,,,,,,,,,,5,1.487,0,,,,,,-0.362037037,-0.402777778,1,0,0,1.4866,Obsidian_rect,8,0,8,0,1,
5d4869cc692e5400197a980c,SCR,2024-06-21_12h46.42.157,LearnStrategy,2023.2.3,Win32,59.88023952,1,2,10,,,,,,,,6,06,,,,,,,,,,,,,7,1.783,0,,,,,,0.077777778,-0.398148148,1,0,0,1.7832,Peridotite_rect,9,0,9,0,1,
5d4869cc692e5400197a980c,SCR,2024-06-21_12h46.42.157,LearnStrategy,2023.2.3,Win32,59.88023952,1,2,11,,,,,,,,1,10,,,,,,,,,,,,,7,2.555,0,,,,,,0.068518519,-0.396296296,1,0,0,2.5554,Peridotite_rect,10,0,10,0,1,
5d4869cc692e5400197a980c,SCR,2024-06-21_12h46.42.157,LearnStrategy,2023.2.3,Win32,59.88023952,1,2,12,,,,,,,,8,02,,,,,,,,,,,,,6,3.056,0,,,,,,-0.146296296,-0.415740741,1,0,0,3.0562,Pegmatite_rect,11,0,11,0,1,
5d4869cc692e5400197a980c,SCR,2024-06-21_12h46.42.157,LearnStrategy,2023.2.3,Win32,59.88023952,1,2,13,,,,,,,,7,14,,,,,,,,,,,,,2,1.58,0,,,,,,-0.081481481,-0.264814815,1,0,0,1.5805,Basalt_rect,12,0,12,0,1,
5d4869cc692e5400197a980c,SCR,2024-06-21_12h46.42.157,LearnStrategy,2023.2.3,Win32,59.88023952,1,2,14,,,,,,,,4,10,,,,,,,,,,,,,5,2.315,0,,,,,,-0.374074074,-0.394444444,1,0,0,2.3154,Obsidian_rect,13,0,13,0,1,
5d4869cc692e5400197a980c,SCR,2024-06-21_12h46.42.157,LearnStrategy,2023.2.3,Win32,59.88023952,1,2,15,,,,,,,,3,15,,,,,,,,,,,,,4,2.086,0,,,,,,0.431481481,-0.24537037,1,0,0,2.0864,Gabbro_rect,14,0,14,0,1,
5d4869cc692e5400197a980c,SCR,2024-06-21_12h46.42.157,LearnStrategy,2023.2.3,Win32,59.88023952,1,2,16,,,,,,,,5,10,,,,,,,,,,,,,5,1.388,1,,,,,,-0.388888889,-0.390740741,1,0,0,1.388,Obsidian_rect,15,0,15,0,1,
5d4869cc692e5400197a980c,SCR,2024-06-21_12h46.42.157,LearnStrategy,2023.2.3,Win32,59.88023952,2,1,1,-0.544444444,-0.264814815,1,0,0,1.3329,Diorite_16,3,16,2,1,1.333,3,16,-0.089814815,-0.408333333,1,0,0,2.9124,Pegmatite_rect,6,2.912,0,0,0,0,0,1,,,,,,,,,,,,,
5d4869cc692e5400197a980c,SCR,2024-06-21_12h46.42.157,LearnStrategy,2023.2.3,Win32,59.88023952,2,1,2,-0.246296296,-0.244444444,1,0,0,0.9646,Pegmatite_05,6,05,2,3,0.965,6,05,-0.375925926,-0.257407407,1,0,0,1.8836,Andesite_rect,1,1.884,0,1,0,1,0,1,,,,,,,,,,,,,
5d4869cc692e5400197a980c,SCR,2024-06-21_12h46.42.157,LearnStrategy,2023.2.3,Win32,59.88023952,2,1,3,0.363888889,0.369444444,1,0,0,1.2027,Pegmatite_13,6,13,6,7,1.203,6,13,0.102777778,-0.258333333,1,0,0,1.7388,Diorite_rect,3,1.739,0,2,0,2,0,1,,,,,,,,,,,,,
5d4869cc692e5400197a980c,SCR,2024-06-21_12h46.42.157,LearnStrategy,2023.2.3,Win32,59.88023952,2,1,4,0.562962963,0.40462963,1,0,0,1.0176,Obsidian_06,5,06,6,8,1.018,5,06,-0.380555556,-0.42037037,1,0,0,1.2571,Obsidian_rect,5,1.257,1,3,0,3,0,1,,,,,,,,,,,,,
5d4869cc692e5400197a980c,SCR,2024-06-21_12h46.42.157,LearnStrategy,2023.2.3,Win32,59.88023952,2,1,5,-0.34537037,-0.205555556,1,0,0,0.8323,Pumice_14,8,14,2,2,0.832,8,14,0.353703704,-0.417592593,1,0,0,1.2137,Pumice_rect,8,1.214,1,4,0,4,0,1,,,,,,,,,,,,,
5d4869cc692e5400197a980c,SCR,2024-06-21_12h46.42.157,LearnStrategy,2023.2.3,Win32,59.88023952,2,1,6,-0.557407407,-0.25462963,1,0,0,1.0503,Diorite_16,3,16,2,1,1.05,3,16,-0.12037037,-0.403703704,1,0,0,1.1963,Pegmatite_rect,6,1.196,0,5,0,5,0,1,,,,,,,,,,,,,
5d4869cc692e5400197a980c,SCR,2024-06-21_12h46.42.157,LearnStrategy,2023.2.3,Win32,59.88023952,2,1,7,0.372222222,-0.083333333,1,0,0,1.3391,Peridotite_10,7,10,3,7,1.339,7,10,0.091666667,-0.396296296,1,0,0,3.9677,Peridotite_rect,7,3.968,1,6,0,6,0,1,,,,,,,,,,,,,
5d4869cc692e5400197a980c,SCR,2024-06-21_12h46.42.157,LearnStrategy,2023.2.3,Win32,59.88023952,2,1,8,-0.411111111,0.406481481,1,0,0,1.1886,Peridotite_07,7,07,6,2,1.189,7,07,0.103703704,-0.398148148,1,0,0,1.8401,Peridotite_rect,7,1.84,1,7,0,7,0,1,,,,,,,,,,,,,
5d4869cc692e5400197a980c,SCR,2024-06-21_12h46.42.157,LearnStrategy,2023.2.3,Win32,59.88023952,2,1,9,-0.403703704,-0.264814815,1,0,0,1.0015,Pumice_14,8,14,2,2,1.001,8,14,0.349074074,-0.403703704,1,0,0,1.4166,Pumice_rect,8,1.417,1,8,0,8,0,1,,,,,,,,,,,,,
5d4869cc692e5400197a980c,SCR,2024-06-21_12h46.42.157,LearnStrategy,2023.2.3,Win32,59.88023952,2,1,10,0.444444444,0.122222222,1,0,0,0.9388,Peridotite_13,7,13,4,7,0.939,7,13,-0.112962963,-0.390740741,1,0,0,1.5747,Pegmatite_rect,6,1.575,0,9,0,9,0,1,,,,,,,,,,,,,
5d4869cc692e5400197a980c,SCR,2024-06-21_12h46.42.157,LearnStrategy,2023.2.3,Win32,59.88023952,2,1,11,0.249074074,-0.423148148,1,0,0,1.0162,Gabbro_08,4,08,1,6,1.016,4,08,-0.393518519,-0.262962963,1,0,0,1.9351,Andesite_rect,1,1.935,0,10,0,10,0,1,,,,,,,,,,,,,
5d4869cc692e5400197a980c,SCR,2024-06-21_12h46.42.157,LearnStrategy,2023.2.3,Win32,59.88023952,2,1,12,0.556481481,-0.399074074,1,0,0,1.1636,Pumice_16,8,16,1,8,1.164,8,16,0.328703704,-0.402777778,1,0,0,0.4932,Pumice_rect,8,0.493,1,11,0,11,0,1,,,,,,,,,,,,,
5d4869cc692e5400197a980c,SCR,2024-06-21_12h46.42.157,LearnStrategy,2023.2.3,Win32,59.88023952,2,1,13,-0.385185185,-0.090740741,1,0,0,1.0886,Andesite_01,1,01,3,2,1.089,1,01,0.081481481,-0.25462963,1,0,0,7.4843,Diorite_rect,3,7.484,0,12,0,12,0,1,,,,,,,,,,,,,
5d4869cc692e5400197a980c,SCR,2024-06-21_12h46.42.157,LearnStrategy,2023.2.3,Win32,59.88023952,2,1,14,-0.07962963,0.410185185,1,0,0,1.0056,Basalt_08,2,08,6,4,1.006,2,08,-0.425925926,-0.268518519,1,0,0,0.8192,Andesite_rect,1,0.819,0,13,0,13,0,1,,,,,,,,,,,,,
5d4869cc692e5400197a980c,SCR,2024-06-21_12h46.42.157,LearnStrategy,2023.2.3,Win32,59.88023952,2,1,15,-0.541666667,0.249074074,1,0,0,0.9245,Gabbro_01,4,01,5,1,0.925,4,01,0.168518519,-0.408333333,1,0,0,1.979,Peridotite_rect,7,1.979,0,14,0,14,0,1,,,,,,,,,,,,,
5d4869cc692e5400197a980c,SCR,2024-06-21_12h46.42.157,LearnStrategy,2023.2.3,Win32,59.88023952,2,1,16,-0.548148148,0.243518519,1,0,0,1.0084,Gabbro_01,4,01,5,1,1.008,4,01,0.341666667,-0.267592593,1,0,0,1.1315,Gabbro_rect,4,1.132,1,15,0,15,0,1,,,,,,,,,,,,,
5d4869cc692e5400197a980c,SCR,2024-06-21_12h46.42.157,LearnStrategy,2023.2.3,Win32,59.88023952,2,2,1,,,,,,,,4,11,,,,,,,,,,,,,7,2.152,0,,,,,,0.142592593,-0.40462963,1,0,0,2.1522,Peridotite_rect,0,0,0,0,1,
5d4869cc692e5400197a980c,SCR,2024-06-21_12h46.42.157,LearnStrategy,2023.2.3,Win32,59.88023952,2,2,2,,,,,,,,2,09,,,,,,,,,,,,,2,1.963,1,,,,,,-0.176851852,-0.263888889,1,0,0,1.9634,Basalt_rect,1,0,1,0,1,
5d4869cc692e5400197a980c,SCR,2024-06-21_12h46.42.157,LearnStrategy,2023.2.3,Win32,59.88023952,2,2,3,,,,,,,,5,05,,,,,,,,,,,,,5,1.286,1,,,,,,-0.377777778,-0.400925926,1,0,0,1.2855,Obsidian_rect,2,0,2,0,1,
5d4869cc692e5400197a980c,SCR,2024-06-21_12h46.42.157,LearnStrategy,2023.2.3,Win32,59.88023952,2,2,4,,,,,,,,3,13,,,,,,,,,,,,,1,6.752,0,,,,,,-0.405555556,-0.246296296,1,0,0,6.7522,Andesite_rect,3,0,3,0,1,
5d4869cc692e5400197a980c,SCR,2024-06-21_12h46.42.157,LearnStrategy,2023.2.3,Win32,59.88023952,2,2,5,,,,,,,,1,04,,,,,,,,,,,,,1,3.046,1,,,,,,-0.352777778,-0.265740741,1,0,0,3.0462,Andesite_rect,4,0,4,0,1,
5d4869cc692e5400197a980c,SCR,2024-06-21_12h46.42.157,LearnStrategy,2023.2.3,Win32,59.88023952,2,2,6,,,,,,,,3,10,,,,,,,,,,,,,4,3.113,0,,,,,,0.400925926,-0.263888889,1,0,0,3.1133,Gabbro_rect,5,0,5,0,1,
5d4869cc692e5400197a980c,SCR,2024-06-21_12h46.42.157,LearnStrategy,2023.2.3,Win32,59.88023952,2,2,7,,,,,,,,1,05,,,,,,,,,,,,,6,1.767,0,,,,,,-0.125,-0.408333333,1,0,0,1.7673,Pegmatite_rect,6,0,6,0,1,
5d4869cc692e5400197a980c,SCR,2024-06-21_12h46.42.157,LearnStrategy,2023.2.3,Win32,59.88023952,2,2,8,,,,,,,,7,02,,,,,,,,,,,,,7,1,1,,,,,,0.155555556,-0.389814815,1,0,0,1.0004,Peridotite_rect,7,0,7,0,1,
5d4869cc692e5400197a980c,SCR,2024-06-21_12h46.42.157,LearnStrategy,2023.2.3,Win32,59.88023952,2,2,9,,,,,,,,8,04,,,,,,,,,,,,,8,1.432,1,,,,,,0.37037037,-0.393518519,1,0,0,1.4318,Pumice_rect,8,0,8,0,1,
5d4869cc692e5400197a980c,SCR,2024-06-21_12h46.42.157,LearnStrategy,2023.2.3,Win32,59.88023952,2,2,10,,,,,,,,8,06,,,,,,,,,,,,,8,1.266,1,,,,,,0.334259259,-0.400925926,1,0,0,1.2659,Pumice_rect,9,0,9,0,1,
5d4869cc692e5400197a980c,SCR,2024-06-21_12h46.42.157,LearnStrategy,2023.2.3,Win32,59.88023952,2,2,11,,,,,,,,6,10,,,,,,,,,,,,,1,2.527,0,,,,,,-0.369444444,-0.253703704,1,0,0,2.5266,Andesite_rect,10,0,10,0,1,
5d4869cc692e5400197a980c,SCR,2024-06-21_12h46.42.157,LearnStrategy,2023.2.3,Win32,59.88023952,2,2,12,,,,,,,,6,08,,,,,,,,,,,,,6,3.304,1,,,,,,-0.112962963,-0.419444444,1,0,0,3.3042,Pegmatite_rect,11,0,11,0,1,
5d4869cc692e5400197a980c,SCR,2024-06-21_12h46.42.157,LearnStrategy,2023.2.3,Win32,59.88023952,2,2,13,,,,,,,,4,05,,,,,,,,,,,,,1,1.664,0,,,,,,-0.353703704,-0.249074074,1,0,0,1.6642,Andesite_rect,12,0,12,0,1,
5d4869cc692e5400197a980c,SCR,2024-06-21_12h46.42.157,LearnStrategy,2023.2.3,Win32,59.88023952,2,2,14,,,,,,,,5,02,,,,,,,,,,,,,5,1.08,1,,,,,,-0.383333333,-0.414814815,1,0,0,1.0796,Obsidian_rect,13,0,13,0,1,
5d4869cc692e5400197a980c,SCR,2024-06-21_12h46.42.157,LearnStrategy,2023.2.3,Win32,59.88023952,2,2,15,,,,,,,,7,16,,,,,,,,,,,,,6,1.796,0,,,,,,-0.137037037,-0.401851852,1,0,0,1.7957,Pegmatite_rect,14,0,14,0,1,
5d4869cc692e5400197a980c,SCR,2024-06-21_12h46.42.157,LearnStrategy,2023.2.3,Win32,59.88023952,2,2,16,,,,,,,,2,11,,,,,,,,,,,,,8,1.193,0,,,,,,0.39537037,-0.409259259,1,0,0,1.1926,Pumice_rect,15,0,15,0,1,
5d4869cc692e5400197a980c,SCR,2024-06-21_12h46.42.157,LearnStrategy,2023.2.3,Win32,59.88023952,3,1,1,-0.239814815,-0.135185185,1,0,0,1.7077,Diorite_12,3,12,3,3,1.708,3,12,0.168518519,-0.244444444,1,0,0,1.6034,Diorite_rect,3,1.603,1,0,0,0,0,1,,,,,,,,,,,,,
5d4869cc692e5400197a980c,SCR,2024-06-21_12h46.42.157,LearnStrategy,2023.2.3,Win32,59.88023952,3,1,2,0.261111111,-0.262962963,1,0,0,1.3572,Gabbro_16,4,16,2,6,1.357,4,16,-0.34537037,-0.264814815,1,0,0,2.334,Andesite_rect,1,2.334,0,1,0,1,0,1,,,,,,,,,,,,,
5d4869cc692e5400197a980c,SCR,2024-06-21_12h46.42.157,LearnStrategy,2023.2.3,Win32,59.88023952,3,1,3,-0.562037037,0.226851852,1,0,0,1.0852,Gabbro_01,4,01,5,1,1.085,4,01,0.113888889,-0.39537037,1,0,0,1.2853,Peridotite_rect,7,1.285,0,2,0,2,0,1,,,,,,,,,,,,,
5d4869cc692e5400197a980c,SCR,2024-06-21_12h46.42.157,LearnStrategy,2023.2.3,Win32,59.88023952,3,1,4,-0.277777778,-0.409259259,1,0,0,1.0571,Peridotite_15,7,15,1,3,1.057,7,15,0.128703704,-0.401851852,1,0,0,3.5088,Peridotite_rect,7,3.509,1,3,0,3,0,1,,,,,,,,,,,,,
5d4869cc692e5400197a980c,SCR,2024-06-21_12h46.42.157,LearnStrategy,2023.2.3,Win32,59.88023952,3,1,5,0.588888889,0.078703704,1,0,0,1.0435,Pegmatite_03,6,03,4,8,1.043,6,03,0.071296296,-0.260185185,1,0,0,3.6413,Diorite_rect,3,3.641,0,4,0,4,0,1,,,,,,,,,,,,,
5d4869cc692e5400197a980c,SCR,2024-06-21_12h46.42.157,LearnStrategy,2023.2.3,Win32,59.88023952,3,1,6,-0.07962963,0.418518519,1,0,0,1.0895,Basalt_08,2,08,6,4,1.089,2,08,-0.085185185,-0.256481481,1,0,0,10.6558,Basalt_rect,2,10.656,1,5,0,5,0,1,,,,,,,,,,,,,
5d4869cc692e5400197a980c,SCR,2024-06-21_12h46.42.157,LearnStrategy,2023.2.3,Win32,59.88023952,3,1,7,0.543518519,-0.39537037,1,0,0,1.2216,Pumice_16,8,16,1,8,1.222,8,16,0.387962963,-0.396296296,1,0,0,0.4437,Pumice_rect,8,0.444,1,6,0,6,0,1,,,,,,,,,,,,,
5d4869cc692e5400197a980c,SCR,2024-06-21_12h46.42.157,LearnStrategy,2023.2.3,Win32,59.88023952,3,1,8,0.073148148,-0.255555556,1,0,0,0.8728,Peridotite_05,7,05,2,5,0.873,7,05,0.099074074,-0.408333333,1,0,0,1.5594,Peridotite_rect,7,1.559,1,7,0,7,0,1,,,,,,,,,,,,,
5d4869cc692e5400197a980c,SCR,2024-06-21_12h46.42.157,LearnStrategy,2023.2.3,Win32,59.88023952,3,1,9,-0.232407407,-0.266666667,1,0,0,0.9433,Pegmatite_05,6,05,2,3,0.943,6,05,-0.401851852,-0.246296296,1,0,0,0.783,Andesite_rect,1,0.783,0,8,0,8,0,1,,,,,,,,,,,,,
5d4869cc692e5400197a980c,SCR,2024-06-21_12h46.42.157,LearnStrategy,2023.2.3,Win32,59.88023952,3,1,10,0.227777778,0.109259259,1,0,0,1.4185,Pumice_05,8,05,4,6,1.418,8,05,0.331481481,-0.407407407,1,0,0,3.2888,Pumice_rect,8,3.289,1,9,0,9,0,1,,,,,,,,,,,,,
5d4869cc692e5400197a980c,SCR,2024-06-21_12h46.42.157,LearnStrategy,2023.2.3,Win32,59.88023952,3,1,11,-0.37962963,-0.417592593,1,0,0,2.2603,Gabbro_12,4,12,1,2,2.26,4,12,0.122222222,-0.42037037,1,0,0,2.6875,Peridotite_rect,7,2.688,0,10,0,10,0,1,,,,,,,,,,,,,
5d4869cc692e5400197a980c,SCR,2024-06-21_12h46.42.157,LearnStrategy,2023.2.3,Win32,59.88023952,3,1,12,0.241666667,-0.098148148,1,0,0,1.228,Diorite_06,3,06,3,6,1.228,3,06,-0.139814815,-0.381481481,1,0,0,2.1355,Pegmatite_rect,6,2.135,0,11,0,11,0,1,,,,,,,,,,,,,
5d4869cc692e5400197a980c,SCR,2024-06-21_12h46.42.157,LearnStrategy,2023.2.3,Win32,59.88023952,3,1,13,-0.394444444,-0.115740741,1,0,0,0.876,Andesite_01,1,01,3,2,0.876,1,01,-0.343518519,-0.262037037,1,0,0,0.8324,Andesite_rect,1,0.832,1,12,0,12,0,1,,,,,,,,,,,,,
5d4869cc692e5400197a980c,SCR,2024-06-21_12h46.42.157,LearnStrategy,2023.2.3,Win32,59.88023952,3,1,14,-0.550925926,-0.302777778,1,0,0,0.9494,Diorite_16,3,16,2,1,0.949,3,16,0.111111111,-0.251851852,1,0,0,2.0527,Diorite_rect,3,2.053,1,13,0,13,0,1,,,,,,,,,,,,,
5d4869cc692e5400197a980c,SCR,2024-06-21_12h46.42.157,LearnStrategy,2023.2.3,Win32,59.88023952,3,1,15,-0.085185185,-0.438888889,1,0,0,0.7734,Basalt_02,2,02,1,4,0.773,2,02,-0.15462963,-0.247222222,1,0,0,1.2629,Basalt_rect,2,1.263,1,14,0,14,0,1,,,,,,,,,,,,,
5d4869cc692e5400197a980c,SCR,2024-06-21_12h46.42.157,LearnStrategy,2023.2.3,Win32,59.88023952,3,1,16,-0.222222222,0.255555556,1,0,0,0.9406,Andesite_06,1,06,5,3,0.941,1,06,-0.15462963,-0.400925926,1,0,0,1.0891,Pegmatite_rect,6,1.089,0,15,0,15,0,1,,,,,,,,,,,,,
5d4869cc692e5400197a980c,SCR,2024-06-21_12h46.42.157,LearnStrategy,2023.2.3,Win32,59.88023952,3,2,1,,,,,,,,8,03,,,,,,,,,,,,,8,1.319,1,,,,,,0.400925926,-0.415740741,1,0,0,1.3193,Pumice_rect,0,0,0,0,1,
5d4869cc692e5400197a980c,SCR,2024-06-21_12h46.42.157,LearnStrategy,2023.2.3,Win32,59.88023952,3,2,2,,,,,,,,7,04,,,,,,,,,,,,,7,2.635,1,,,,,,0.133333333,-0.408333333,1,0,0,2.6345,Peridotite_rect,1,0,1,0,1,
5d4869cc692e5400197a980c,SCR,2024-06-21_12h46.42.157,LearnStrategy,2023.2.3,Win32,59.88023952,3,2,3,,,,,,,,3,08,,,,,,,,,,,,,3,2.332,1,,,,,,0.075925926,-0.242592593,1,0,0,2.3317,Diorite_rect,2,0,2,0,1,
5d4869cc692e5400197a980c,SCR,2024-06-21_12h46.42.157,LearnStrategy,2023.2.3,Win32,59.88023952,3,2,4,,,,,,,,2,05,,,,,,,,,,,,,2,1.399,1,,,,,,-0.151851852,-0.258333333,1,0,0,1.3992,Basalt_rect,3,0,3,0,1,
5d4869cc692e5400197a980c,SCR,2024-06-21_12h46.42.157,LearnStrategy,2023.2.3,Win32,59.88023952,3,2,5,,,,,,,,4,13,,,,,,,,,,,,,1,3.063,0,,,,,,-0.417592593,-0.244444444,1,0,0,3.063,Andesite_rect,4,0,4,0,1,
5d4869cc692e5400197a980c,SCR,2024-06-21_12h46.42.157,LearnStrategy,2023.2.3,Win32,59.88023952,3,2,6,,,,,,,,2,16,,,,,,,,,,,,,8,1.474,0,,,,,,0.334259259,-0.4,1,0,0,1.4737,Pumice_rect,5,0,5,0,1,
5d4869cc692e5400197a980c,SCR,2024-06-21_12h46.42.157,LearnStrategy,2023.2.3,Win32,59.88023952,3,2,7,,,,,,,,1,09,,,,,,,,,,,,,6,2.227,0,,,,,,-0.137037037,-0.42037037,1,0,0,2.2266,Pegmatite_rect,6,0,6,0,1,
5d4869cc692e5400197a980c,SCR,2024-06-21_12h46.42.157,LearnStrategy,2023.2.3,Win32,59.88023952,3,2,8,,,,,,,,6,15,,,,,,,,,,,,,1,2.771,0,,,,,,-0.335185185,-0.242592593,1,0,0,2.7711,Andesite_rect,7,0,7,0,1,
5d4869cc692e5400197a980c,SCR,2024-06-21_12h46.42.157,LearnStrategy,2023.2.3,Win32,59.88023952,3,2,9,,,,,,,,3,09,,,,,,,,,,,,,3,1.783,1,,,,,,0.109259259,-0.262037037,1,0,0,1.7828,Diorite_rect,8,0,8,0,1,
5d4869cc692e5400197a980c,SCR,2024-06-21_12h46.42.157,LearnStrategy,2023.2.3,Win32,59.88023952,3,2,10,,,,,,,,6,07,,,,,,,,,,,,,3,2.998,0,,,,,,0.193518519,-0.255555556,1,0,0,2.9976,Diorite_rect,9,0,9,0,1,
5d4869cc692e5400197a980c,SCR,2024-06-21_12h46.42.157,LearnStrategy,2023.2.3,Win32,59.88023952,3,2,11,,,,,,,,1,03,,,,,,,,,,,,,2,4.833,0,,,,,,-0.133333333,-0.255555556,1,0,0,4.8333,Basalt_rect,10,0,10,0,1,
5d4869cc692e5400197a980c,SCR,2024-06-21_12h46.42.157,LearnStrategy,2023.2.3,Win32,59.88023952,3,2,12,,,,,,,,7,08,,,,,,,,,,,,,7,1.2,1,,,,,,0.127777778,-0.392592593,1,0,0,1.2004,Peridotite_rect,11,0,11,0,1,
5d4869cc692e5400197a980c,SCR,2024-06-21_12h46.42.157,LearnStrategy,2023.2.3,Win32,59.88023952,3,2,13,,,,,,,,5,16,,,,,,,,,,,,,5,1.01,1,,,,,,-0.380555556,-0.417592593,1,0,0,1.0099,Obsidian_rect,12,0,12,0,1,
5d4869cc692e5400197a980c,SCR,2024-06-21_12h46.42.157,LearnStrategy,2023.2.3,Win32,59.88023952,3,2,14,,,,,,,,4,03,,,,,,,,,,,,,4,2.285,1,,,,,,0.439814815,-0.249074074,1,0,0,2.2846,Gabbro_rect,13,0,13,0,1,
5d4869cc692e5400197a980c,SCR,2024-06-21_12h46.42.157,LearnStrategy,2023.2.3,Win32,59.88023952,3,2,15,,,,,,,,8,13,,,,,,,,,,,,,8,1.008,1,,,,,,0.390740741,-0.385185185,1,0,0,1.0079,Pumice_rect,14,0,14,0,1,
5d4869cc692e5400197a980c,SCR,2024-06-21_12h46.42.157,LearnStrategy,2023.2.3,Win32,59.88023952,3,2,16,,,,,,,,5,12,,,,,,,,,,,,,5,0.954,1,,,,,,-0.437962963,-0.406481481,1,0,0,0.9545,Obsidian_rect,15,0,15,0,1,
5d4869cc692e5400197a980c,SCR,2024-06-21_12h46.42.157,LearnStrategy,2023.2.3,Win32,59.88023952,4,1,1,0.216666667,0.237037037,1,0,0,1.3327,Gabbro_09,4,09,5,6,1.333,4,09,-0.371296296,-0.390740741,1,0,0,1.4204,Obsidian_rect,5,1.42,0,0,0,0,0,1,,,,,,,,,,,,,
5d4869cc692e5400197a980c,SCR,2024-06-21_12h46.42.157,LearnStrategy,2023.2.3,Win32,59.88023952,4,1,2,-0.402777778,-0.122222222,1,0,0,1.0049,Andesite_01,1,01,3,2,1.005,1,01,-0.384259259,-0.266666667,1,0,0,1.9312,Andesite_rect,1,1.931,1,1,0,1,0,1,,,,,,,,,,,,,
5d4869cc692e5400197a980c,SCR,2024-06-21_12h46.42.157,LearnStrategy,2023.2.3,Win32,59.88023952,4,1,3,0.387962963,0.226851852,1,0,0,1.1077,Pegmatite_12,6,12,5,7,1.108,6,12,0.134259259,-0.239814815,1,0,0,1.8147,Diorite_rect,3,1.815,0,2,0,2,0,1,,,,,,,,,,,,,
5d4869cc692e5400197a980c,SCR,2024-06-21_12h46.42.157,LearnStrategy,2023.2.3,Win32,59.88023952,4,1,4,-0.125925926,-0.275925926,1,0,0,0.8428,Pegmatite_09,6,09,2,4,0.843,6,09,-0.114814815,-0.402777778,1,0,0,0.8002,Pegmatite_rect,6,0.8,1,3,0,3,0,1,,,,,,,,,,,,,
5d4869cc692e5400197a980c,SCR,2024-06-21_12h46.42.157,LearnStrategy,2023.2.3,Win32,59.88023952,4,1,5,0.094444444,-0.237037037,1,0,0,0.8607,Peridotite_05,7,05,2,5,0.861,7,05,0.137962963,-0.402777778,1,0,0,1.3814,Peridotite_rect,7,1.381,1,4,0,4,0,1,,,,,,,,,,,,,
5d4869cc692e5400197a980c,SCR,2024-06-21_12h46.42.157,LearnStrategy,2023.2.3,Win32,59.88023952,4,1,6,-0.267592593,-0.446296296,1,0,0,1.0396,Peridotite_15,7,15,1,3,1.04,7,15,0.155555556,-0.388888889,1,0,0,0.7406,Peridotite_rect,7,0.741,1,5,0,5,0,1,,,,,,,,,,,,,
5d4869cc692e5400197a980c,SCR,2024-06-21_12h46.42.157,LearnStrategy,2023.2.3,Win32,59.88023952,4,1,7,-0.400925926,0.221296296,1,0,0,0.8521,Pumice_15,8,15,5,2,0.852,8,15,0.37037037,-0.418518519,1,0,0,0.791,Pumice_rect,8,0.791,1,6,0,6,0,1,,,,,,,,,,,,,
5d4869cc692e5400197a980c,SCR,2024-06-21_12h46.42.157,LearnStrategy,2023.2.3,Win32,59.88023952,4,1,8,0.253703704,0.388888889,1,0,0,0.9805,Gabbro_15,4,15,6,6,0.981,4,15,-0.094444444,-0.412962963,1,0,0,1.6547,Pegmatite_rect,6,1.655,0,7,0,7,0,1,,,,,,,,,,,,,
5d4869cc692e5400197a980c,SCR,2024-06-21_12h46.42.157,LearnStrategy,2023.2.3,Win32,59.88023952,4,1,9,-0.121296296,-0.094444444,1,0,0,0.645,Andesite_07,1,07,3,4,0.645,1,07,-0.334259259,-0.246296296,1,0,0,1.9604,Andesite_rect,1,1.96,1,8,0,8,0,1,,,,,,,,,,,,,
5d4869cc692e5400197a980c,SCR,2024-06-21_12h46.42.157,LearnStrategy,2023.2.3,Win32,59.88023952,4,1,10,0.380555556,-0.283333333,1,0,0,1.0271,Basalt_04,2,04,2,7,1.027,2,04,-0.117592593,-0.25462963,1,0,0,1.5435,Basalt_rect,2,1.543,1,9,0,9,0,1,,,,,,,,,,,,,
5d4869cc692e5400197a980c,SCR,2024-06-21_12h46.42.157,LearnStrategy,2023.2.3,Win32,59.88023952,4,1,11,-0.397222222,0.083333333,1,0,0,0.927,Diorite_11,3,11,4,2,0.927,3,11,0.350925926,-0.261111111,1,0,0,3.5424,Gabbro_rect,4,3.542,0,10,0,10,0,1,,,,,,,,,,,,,
5d4869cc692e5400197a980c,SCR,2024-06-21_12h46.42.157,LearnStrategy,2023.2.3,Win32,59.88023952,4,1,12,-0.087962963,0.096296296,1,0,0,0.8999,Basalt_14,2,14,4,4,0.9,2,14,0.373148148,-0.419444444,1,0,0,1.4566,Pumice_rect,8,1.457,0,11,0,11,0,1,,,,,,,,,,,,,
5d4869cc692e5400197a980c,SCR,2024-06-21_12h46.42.157,LearnStrategy,2023.2.3,Win32,59.88023952,4,1,13,-0.387037037,-0.405555556,1,0,0,1.0093,Gabbro_12,4,12,1,2,1.009,4,12,-0.130555556,-0.411111111,1,0,0,1.341,Pegmatite_rect,6,1.341,0,12,0,12,0,1,,,,,,,,,,,,,
5d4869cc692e5400197a980c,SCR,2024-06-21_12h46.42.157,LearnStrategy,2023.2.3,Win32,59.88023952,4,1,14,0.586111111,0.101851852,1,0,0,1.0381,Pegmatite_03,6,03,4,8,1.038,6,03,-0.040740741,-0.408333333,1,0,0,0.966,Pegmatite_rect,6,0.966,1,13,0,13,0,1,,,,,,,,,,,,,
5d4869cc692e5400197a980c,SCR,2024-06-21_12h46.42.157,LearnStrategy,2023.2.3,Win32,59.88023952,4,1,15,-0.249074074,0.390740741,1,0,0,0.9891,Diorite_02,3,02,6,3,0.989,3,02,0.126851852,-0.242592593,1,0,0,1.2951,Diorite_rect,3,1.295,1,14,0,14,0,1,,,,,,,,,,,,,
5d4869cc692e5400197a980c,SCR,2024-06-21_12h46.42.157,LearnStrategy,2023.2.3,Win32,59.88023952,4,1,16,-0.422222222,-0.096296296,1,0,0,0.9415,Andesite_01,1,01,3,2,0.942,1,01,-0.37962963,-0.251851852,1,0,0,3.4814,Andesite_rect,1,3.481,1,15,0,15,0,1,,,,,,,,,,,,,
5d4869cc692e5400197a980c,SCR,2024-06-21_12h46.42.157,LearnStrategy,2023.2.3,Win32,59.88023952,4,2,1,,,,,,,,2,01,,,,,,,,,,,,,2,3.781,1,,,,,,-0.133333333,-0.259259259,1,0,0,3.7813,Basalt_rect,0,0,0,0,1,
5d4869cc692e5400197a980c,SCR,2024-06-21_12h46.42.157,LearnStrategy,2023.2.3,Win32,59.88023952,4,2,2,,,,,,,,1,05,,,,,,,,,,,,,3,3.12,0,,,,,,0.093518519,-0.264814815,1,0,0,3.12,Diorite_rect,1,0,1,0,1,
5d4869cc692e5400197a980c,SCR,2024-06-21_12h46.42.157,LearnStrategy,2023.2.3,Win32,59.88023952,4,2,3,,,,,,,,1,11,,,,,,,,,,,,,4,3.937,0,,,,,,0.400925926,-0.239814815,1,0,0,3.9372,Gabbro_rect,2,0,2,0,1,
5d4869cc692e5400197a980c,SCR,2024-06-21_12h46.42.157,LearnStrategy,2023.2.3,Win32,59.88023952,4,2,4,,,,,,,,7,12,,,,,,,,,,,,,7,1.392,1,,,,,,0.130555556,-0.391666667,1,0,0,1.3924,Peridotite_rect,3,0,3,0,1,
5d4869cc692e5400197a980c,SCR,2024-06-21_12h46.42.157,LearnStrategy,2023.2.3,Win32,59.88023952,4,2,5,,,,,,,,2,11,,,,,,,,,,,,,8,8.089,0,,,,,,0.391666667,-0.417592593,1,0,0,8.0893,Pumice_rect,4,0,4,0,1,
5d4869cc692e5400197a980c,SCR,2024-06-21_12h46.42.157,LearnStrategy,2023.2.3,Win32,59.88023952,4,2,6,,,,,,,,6,15,,,,,,,,,,,,,6,1.175,1,,,,,,-0.111111111,-0.383333333,1,0,0,1.1748,Pegmatite_rect,5,0,5,0,1,
5d4869cc692e5400197a980c,SCR,2024-06-21_12h46.42.157,LearnStrategy,2023.2.3,Win32,59.88023952,4,2,7,,,,,,,,3,07,,,,,,,,,,,,,3,2.387,1,,,,,,0.12037037,-0.268518519,1,0,0,2.3874,Diorite_rect,6,0,6,0,1,
5d4869cc692e5400197a980c,SCR,2024-06-21_12h46.42.157,LearnStrategy,2023.2.3,Win32,59.88023952,4,2,8,,,,,,,,6,11,,,,,,,,,,,,,6,1.467,1,,,,,,-0.089814815,-0.415740741,1,0,0,1.4673,Pegmatite_rect,7,0,7,0,1,
5d4869cc692e5400197a980c,SCR,2024-06-21_12h46.42.157,LearnStrategy,2023.2.3,Win32,59.88023952,4,2,9,,,,,,,,8,13,,,,,,,,,,,,,8,1.15,1,,,,,,0.378703704,-0.405555556,1,0,0,1.1501,Pumice_rect,8,0,8,0,1,
5d4869cc692e5400197a980c,SCR,2024-06-21_12h46.42.157,LearnStrategy,2023.2.3,Win32,59.88023952,4,2,10,,,,,,,,5,05,,,,,,,,,,,,,5,1.358,1,,,,,,-0.407407407,-0.4,1,0,0,1.3584,Obsidian_rect,9,0,9,0,1,
5d4869cc692e5400197a980c,SCR,2024-06-21_12h46.42.157,LearnStrategy,2023.2.3,Win32,59.88023952,4,2,11,,,,,,,,8,06,,,,,,,,,,,,,8,3.391,1,,,,,,0.398148148,-0.409259259,1,0,0,3.3908,Pumice_rect,10,0,10,0,1,
5d4869cc692e5400197a980c,SCR,2024-06-21_12h46.42.157,LearnStrategy,2023.2.3,Win32,59.88023952,4,2,12,,,,,,,,3,10,,,,,,,,,,,,,6,1.619,0,,,,,,-0.101851852,-0.393518519,1,0,0,1.6192,Pegmatite_rect,11,0,11,0,1,
5d4869cc692e5400197a980c,SCR,2024-06-21_12h46.42.157,LearnStrategy,2023.2.3,Win32,59.88023952,4,2,13,,,,,,,,5,10,,,,,,,,,,,,,5,1.281,1,,,,,,-0.381481481,-0.406481481,1,0,0,1.2809,Obsidian_rect,12,0,12,0,1,
5d4869cc692e5400197a980c,SCR,2024-06-21_12h46.42.157,LearnStrategy,2023.2.3,Win32,59.88023952,4,2,14,,,,,,,,7,16,,,,,,,,,,,,,1,7.041,0,,,,,,-0.446296296,-0.237962963,1,0,0,7.0411,Andesite_rect,13,0,13,0,1,
5d4869cc692e5400197a980c,SCR,2024-06-21_12h46.42.157,LearnStrategy,2023.2.3,Win32,59.88023952,4,2,15,,,,,,,,4,10,,,,,,,,,,,,,4,3.906,1,,,,,,0.367592593,-0.267592593,1,0,0,3.9057,Gabbro_rect,14,0,14,0,1,
5d4869cc692e5400197a980c,SCR,2024-06-21_12h46.42.157,LearnStrategy,2023.2.3,Win32,59.88023952,4,2,16,,,,,,,,4,03,,,,,,,,,,,,,8,5.445,0,,,,,,0.378703704,-0.414814815,1,0,0,5.4446,Pumice_rect,15,0,15,0,1,
5d4869cc692e5400197a980c,SCR,2024-06-21_12h46.42.157,LearnStrategy,2023.2.3,Win32,59.88023952,5,1,1,0.40462963,-0.258333333,1,0,0,1.9459,Basalt_04,2,04,2,7,1.946,2,04,-0.084259259,-0.262962963,1,0,0,9.5807,Basalt_rect,2,9.581,1,0,0,0,0,1,,,,,,,,,,,,,
5d4869cc692e5400197a980c,SCR,2024-06-21_12h46.42.157,LearnStrategy,2023.2.3,Win32,59.88023952,5,1,2,-0.060185185,0.413888889,1,0,0,1.1941,Basalt_08,2,08,6,4,1.194,2,08,-0.10462963,-0.238888889,1,0,0,1.8232,Basalt_rect,2,1.823,1,1,0,1,0,1,,,,,,,,,,,,,
5d4869cc692e5400197a980c,SCR,2024-06-21_12h46.42.157,LearnStrategy,2023.2.3,Win32,59.88023952,5,1,3,0.537962963,0.085185185,1,0,0,1.0236,Pegmatite_03,6,03,4,8,1.024,6,03,-0.102777778,-0.407407407,1,0,0,0.8628,Pegmatite_rect,6,0.863,1,2,0,2,0,1,,,,,,,,,,,,,
5d4869cc692e5400197a980c,SCR,2024-06-21_12h46.42.157,LearnStrategy,2023.2.3,Win32,59.88023952,5,1,4,0.216666667,0.251851852,1,0,0,0.9943,Gabbro_09,4,09,5,6,0.994,4,09,-0.143518519,-0.259259259,1,0,0,2.6611,Basalt_rect,2,2.661,0,3,0,3,0,1,,,,,,,,,,,,,
5d4869cc692e5400197a980c,SCR,2024-06-21_12h46.42.157,LearnStrategy,2023.2.3,Win32,59.88023952,5,1,5,-0.408333333,-0.430555556,1,0,0,0.9719,Gabbro_12,4,12,1,2,0.972,4,12,0.331481481,-0.255555556,1,0,0,2.1478,Gabbro_rect,4,2.148,1,4,0,4,0,1,,,,,,,,,,,,,
5d4869cc692e5400197a980c,SCR,2024-06-21_12h46.42.157,LearnStrategy,2023.2.3,Win32,59.88023952,5,1,6,0.089814815,-0.290740741,1,0,0,0.9141,Peridotite_05,7,05,2,5,0.914,7,05,0.068518519,-0.405555556,1,0,0,1.4631,Peridotite_rect,7,1.463,1,5,0,5,0,1,,,,,,,,,,,,,
5d4869cc692e5400197a980c,SCR,2024-06-21_12h46.42.157,LearnStrategy,2023.2.3,Win32,59.88023952,5,1,7,-0.207407407,0.218518519,1,0,0,0.9121,Andesite_06,1,06,5,3,0.912,1,06,-0.388888889,-0.253703704,1,0,0,1.3179,Andesite_rect,1,1.318,1,6,0,6,0,1,,,,,,,,,,,,,
5d4869cc692e5400197a980c,SCR,2024-06-21_12h46.42.157,LearnStrategy,2023.2.3,Win32,59.88023952,5,1,8,-0.374074074,0.284259259,1,0,0,1.1211,Pumice_15,8,15,5,2,1.121,8,15,0.424074074,-0.400925926,1,0,0,0.8362,Pumice_rect,8,0.836,1,7,0,7,0,1,,,,,,,,,,,,,
5d4869cc692e5400197a980c,SCR,2024-06-21_12h46.42.157,LearnStrategy,2023.2.3,Win32,59.88023952,5,1,9,-0.089814815,-0.25,1,0,0,0.8964,Pegmatite_09,6,09,2,4,0.896,6,09,-0.122222222,-0.393518519,1,0,0,1.236,Pegmatite_rect,6,1.236,1,8,0,8,0,1,,,,,,,,,,,,,
5d4869cc692e5400197a980c,SCR,2024-06-21_12h46.42.157,LearnStrategy,2023.2.3,Win32,59.88023952,5,1,10,0.389814815,0.077777778,1,0,0,2.0902,Peridotite_13,7,13,4,7,2.09,7,13,0.122222222,-0.387962963,1,0,0,0.8453,Peridotite_rect,7,0.845,1,9,0,9,0,1,,,,,,,,,,,,,
5d4869cc692e5400197a980c,SCR,2024-06-21_12h46.42.157,LearnStrategy,2023.2.3,Win32,59.88023952,5,1,11,-0.257407407,-0.128703704,1,0,0,0.7865,Diorite_12,3,12,3,3,0.786,3,12,-0.344444444,-0.267592593,1,0,0,1.5622,Andesite_rect,1,1.562,0,10,0,10,0,1,,,,,,,,,,,,,
5d4869cc692e5400197a980c,SCR,2024-06-21_12h46.42.157,LearnStrategy,2023.2.3,Win32,59.88023952,5,1,12,-0.538888889,0.210185185,1,0,0,0.9871,Gabbro_01,4,01,5,1,0.987,4,01,0.068518519,-0.251851852,1,0,0,2.2615,Diorite_rect,3,2.261,0,11,0,11,0,1,,,,,,,,,,,,,
5d4869cc692e5400197a980c,SCR,2024-06-21_12h46.42.157,LearnStrategy,2023.2.3,Win32,59.88023952,5,1,13,-0.068518519,-0.098148148,1,0,0,0.7018,Andesite_07,1,07,3,4,0.702,1,07,-0.368518519,-0.252777778,1,0,0,2.1395,Andesite_rect,1,2.139,1,12,0,12,0,1,,,,,,,,,,,,,
5d4869cc692e5400197a980c,SCR,2024-06-21_12h46.42.157,LearnStrategy,2023.2.3,Win32,59.88023952,5,1,14,-0.212962963,0.4,1,0,0,0.9994,Diorite_02,3,02,6,3,0.999,3,02,0.115740741,-0.241666667,1,0,0,1.8128,Diorite_rect,3,1.813,1,13,0,13,0,1,,,,,,,,,,,,,
5d4869cc692e5400197a980c,SCR,2024-06-21_12h46.42.157,LearnStrategy,2023.2.3,Win32,59.88023952,5,1,15,-0.080555556,-0.125,1,0,0,0.777,Andesite_07,1,07,3,4,0.777,1,07,-0.348148148,-0.252777778,1,0,0,0.7557,Andesite_rect,1,0.756,1,14,0,14,0,1,,,,,,,,,,,,,
5d4869cc692e5400197a980c,SCR,2024-06-21_12h46.42.157,LearnStrategy,2023.2.3,Win32,59.88023952,5,1,16,0.37962963,-0.403703704,1,0,0,1.1536,Andesite_02,1,02,1,7,1.154,1,02,-0.378703704,-0.247222222,1,0,0,1.4045,Andesite_rect,1,1.404,1,15,0,15,0,1,,,,,,,,,,,,,
5d4869cc692e5400197a980c,SCR,2024-06-21_12h46.42.157,LearnStrategy,2023.2.3,Win32,59.88023952,5,2,1,,,,,,,,8,04,,,,,,,,,,,,,8,1.238,1,,,,,,0.385185185,-0.387037037,1,0,0,1.2382,Pumice_rect,0,0,0,0,1,
5d4869cc692e5400197a980c,SCR,2024-06-21_12h46.42.157,LearnStrategy,2023.2.3,Win32,59.88023952,5,2,2,,,,,,,,5,11,,,,,,,,,,,,,5,1.035,1,,,,,,-0.353703704,-0.412037037,1,0,0,1.0352,Obsidian_rect,1,0,1,0,1,
5d4869cc692e5400197a980c,SCR,2024-06-21_12h46.42.157,LearnStrategy,2023.2.3,Win32,59.88023952,5,2,3,,,,,,,,1,04,,,,,,,,,,,,,1,1.043,1,,,,,,-0.398148148,-0.25,1,0,0,1.0427,Andesite_rect,2,0,2,0,1,
5d4869cc692e5400197a980c,SCR,2024-06-21_12h46.42.157,LearnStrategy,2023.2.3,Win32,59.88023952,5,2,4,,,,,,,,1,03,,,,,,,,,,,,,1,1.044,1,,,,,,-0.363888889,-0.235185185,1,0,0,1.0443,Andesite_rect,3,0,3,0,1,
5d4869cc692e5400197a980c,SCR,2024-06-21_12h46.42.157,LearnStrategy,2023.2.3,Win32,59.88023952,5,2,5,,,,,,,,2,05,,,,,,,,,,,,,2,1.001,1,,,,,,-0.127777778,-0.241666667,1,0,0,1.0009,Basalt_rect,4,0,4,0,1,
5d4869cc692e5400197a980c,SCR,2024-06-21_12h46.42.157,LearnStrategy,2023.2.3,Win32,59.88023952,5,2,6,,,,,,,,5,02,,,,,,,,,,,,,5,0.989,1,,,,,,-0.378703704,-0.39537037,1,0,0,0.9891,Obsidian_rect,5,0,5,0,1,
5d4869cc692e5400197a980c,SCR,2024-06-21_12h46.42.157,LearnStrategy,2023.2.3,Win32,59.88023952,5,2,7,,,,,,,,4,11,,,,,,,,,,,,,4,2.079,1,,,,,,0.324074074,-0.259259259,1,0,0,2.0794,Gabbro_rect,6,0,6,0,1,
5d4869cc692e5400197a980c,SCR,2024-06-21_12h46.42.157,LearnStrategy,2023.2.3,Win32,59.88023952,5,2,8,,,,,,,,6,08,,,,,,,,,,,,,6,0.944,1,,,,,,-0.103703704,-0.403703704,1,0,0,0.9439,Pegmatite_rect,7,0,7,0,1,
5d4869cc692e5400197a980c,SCR,2024-06-21_12h46.42.157,LearnStrategy,2023.2.3,Win32,59.88023952,5,2,9,,,,,,,,6,10,,,,,,,,,,,,,7,2.034,0,,,,,,0.110185185,-0.412962963,1,0,0,2.0338,Peridotite_rect,8,0,8,0,1,
5d4869cc692e5400197a980c,SCR,2024-06-21_12h46.42.157,LearnStrategy,2023.2.3,Win32,59.88023952,5,2,10,,,,,,,,7,04,,,,,,,,,,,,,4,3.704,0,,,,,,0.343518519,-0.243518519,1,0,0,3.7039,Gabbro_rect,9,0,9,0,1,
5d4869cc692e5400197a980c,SCR,2024-06-21_12h46.42.157,LearnStrategy,2023.2.3,Win32,59.88023952,5,2,11,,,,,,,,3,09,,,,,,,,,,,,,3,2.179,1,,,,,,0.050925926,-0.238888889,1,0,0,2.1786,Diorite_rect,10,0,10,0,1,
5d4869cc692e5400197a980c,SCR,2024-06-21_12h46.42.157,LearnStrategy,2023.2.3,Win32,59.88023952,5,2,12,,,,,,,,3,15,,,,,,,,,,,,,3,1.048,1,,,,,,0.050925926,-0.238888889,1,0,0,1.0476,Diorite_rect,11,0,11,0,1,
5d4869cc692e5400197a980c,SCR,2024-06-21_12h46.42.157,LearnStrategy,2023.2.3,Win32,59.88023952,5,2,13,,,,,,,,8,02,,,,,,,,,,,,,8,1.098,1,,,,,,0.312962963,-0.387037037,1,0,0,1.0981,Pumice_rect,12,0,12,0,1,
5d4869cc692e5400197a980c,SCR,2024-06-21_12h46.42.157,LearnStrategy,2023.2.3,Win32,59.88023952,5,2,14,,,,,,,,2,10,,,,,,,,,,,,,2,1.349,1,,,,,,-0.175,-0.260185185,1,0,0,1.3489,Basalt_rect,13,0,13,0,1,
5d4869cc692e5400197a980c,SCR,2024-06-21_12h46.42.157,LearnStrategy,2023.2.3,Win32,59.88023952,5,2,15,,,,,,,,4,13,,,,,,,,,,,,,4,2.768,1,,,,,,0.321296296,-0.263888889,1,0,0,2.7684,Gabbro_rect,14,0,14,0,1,
5d4869cc692e5400197a980c,SCR,2024-06-21_12h46.42.157,LearnStrategy,2023.2.3,Win32,59.88023952,5,2,16,,,,,,,,7,02,,,,,,,,,,,,,7,1.108,1,,,,,,0.071296296,-0.37962963,1,0,0,1.1077,Peridotite_rect,15,0,15,0,1,
5d4869cc692e5400197a980c,SCR,2024-06-21_12h46.42.157,LearnStrategy,2023.2.3,Win32,59.88023952,6,1,1,-0.421296296,-0.415740741,1,0,0,1.1004,Gabbro_12,4,12,1,2,1.1,4,12,-0.130555556,-0.406481481,1,0,0,1.7023,Pegmatite_rect,6,1.702,0,0,0,0,0,1,,,,,,,,,,,,,
5d4869cc692e5400197a980c,SCR,2024-06-21_12h46.42.157,LearnStrategy,2023.2.3,Win32,59.88023952,6,1,2,-0.240740741,-0.390740741,1,0,0,1.0011,Peridotite_15,7,15,1,3,1.001,7,15,0.141666667,-0.396296296,1,0,0,0.6607,Peridotite_rect,7,0.661,1,1,0,1,0,1,,,,,,,,,,,,,
5d4869cc692e5400197a980c,SCR,2024-06-21_12h46.42.157,LearnStrategy,2023.2.3,Win32,59.88023952,6,1,3,0.059259259,-0.098148148,1,0,0,0.6545,Basalt_12,2,12,3,5,0.654,2,12,0.371296296,-0.396296296,1,0,0,1.473,Pumice_rect,8,1.473,0,2,0,2,0,1,,,,,,,,,,,,,
5d4869cc692e5400197a980c,SCR,2024-06-21_12h46.42.157,LearnStrategy,2023.2.3,Win32,59.88023952,6,1,4,-0.182407407,-0.094444444,1,0,0,0.7155,Diorite_12,3,12,3,3,0.715,3,12,-0.394444444,-0.237037037,1,0,0,1.3074,Andesite_rect,1,1.307,0,3,0,3,0,1,,,,,,,,,,,,,
5d4869cc692e5400197a980c,SCR,2024-06-21_12h46.42.157,LearnStrategy,2023.2.3,Win32,59.88023952,6,1,5,0.375,0.281481481,1,0,0,0.9225,Pegmatite_12,6,12,5,7,0.923,6,12,-0.15,-0.417592593,1,0,0,1.0279,Pegmatite_rect,6,1.028,1,4,0,4,0,1,,,,,,,,,,,,,
5d4869cc692e5400197a980c,SCR,2024-06-21_12h46.42.157,LearnStrategy,2023.2.3,Win32,59.88023952,6,1,6,0.251851852,0.410185185,1,0,0,0.9678,Gabbro_15,4,15,6,6,0.968,4,15,0.058333333,-0.262962963,1,0,0,1.5189,Diorite_rect,3,1.519,0,5,0,5,0,1,,,,,,,,,,,,,
5d4869cc692e5400197a980c,SCR,2024-06-21_12h46.42.157,LearnStrategy,2023.2.3,Win32,59.88023952,6,1,7,-0.065740741,-0.103703704,1,0,0,0.733,Andesite_07,1,07,3,4,0.733,1,07,-0.336111111,-0.247222222,1,0,0,0.9289,Andesite_rect,1,0.929,1,6,0,6,0,1,,,,,,,,,,,,,
5d4869cc692e5400197a980c,SCR,2024-06-21_12h46.42.157,LearnStrategy,2023.2.3,Win32,59.88023952,6,1,8,-0.349074074,0.440740741,1,0,0,0.9624,Peridotite_07,7,07,6,2,0.962,7,07,0.131481481,-0.384259259,1,0,0,1.2367,Peridotite_rect,7,1.237,1,7,0,7,0,1,,,,,,,,,,,,,
5d4869cc692e5400197a980c,SCR,2024-06-21_12h46.42.157,LearnStrategy,2023.2.3,Win32,59.88023952,6,1,9,0.37962963,-0.1,1,0,0,0.9301,Peridotite_10,7,10,3,7,0.93,7,10,0.07962963,-0.406481481,1,0,0,1.4012,Peridotite_rect,7,1.401,1,8,0,8,0,1,,,,,,,,,,,,,
5d4869cc692e5400197a980c,SCR,2024-06-21_12h46.42.157,LearnStrategy,2023.2.3,Win32,59.88023952,6,1,10,0.39537037,-0.408333333,1,0,0,1.211,Andesite_02,1,02,1,7,1.211,1,02,-0.362962963,-0.256481481,1,0,0,1.6763,Andesite_rect,1,1.676,1,9,0,9,0,1,,,,,,,,,,,,,
5d4869cc692e5400197a980c,SCR,2024-06-21_12h46.42.157,LearnStrategy,2023.2.3,Win32,59.88023952,6,1,11,-0.364814815,0.071296296,1,0,0,0.8035,Diorite_11,3,11,4,2,0.803,3,11,0.071296296,-0.250925926,1,0,0,1.6427,Diorite_rect,3,1.643,1,10,0,10,0,1,,,,,,,,,,,,,
5d4869cc692e5400197a980c,SCR,2024-06-21_12h46.42.157,LearnStrategy,2023.2.3,Win32,59.88023952,6,1,12,-0.226851852,-0.25462963,1,0,0,0.8491,Pegmatite_05,6,05,2,3,0.849,6,05,-0.075925926,-0.412037037,1,0,0,0.7067,Pegmatite_rect,6,0.707,1,11,0,11,0,1,,,,,,,,,,,,,
5d4869cc692e5400197a980c,SCR,2024-06-21_12h46.42.157,LearnStrategy,2023.2.3,Win32,59.88023952,6,1,13,0.552777778,0.057407407,1,0,0,1.2497,Pegmatite_03,6,03,4,8,1.25,6,03,-0.082407407,-0.42037037,1,0,0,1.293,Pegmatite_rect,6,1.293,1,12,0,12,0,1,,,,,,,,,,,,,
5d4869cc692e5400197a980c,SCR,2024-06-21_12h46.42.157,LearnStrategy,2023.2.3,Win32,59.88023952,6,1,14,0.442592593,-0.407407407,1,0,0,1.2417,Andesite_02,1,02,1,7,1.242,1,02,-0.443518519,-0.263888889,1,0,0,1.2283,Andesite_rect,1,1.228,1,13,0,13,0,1,,,,,,,,,,,,,
5d4869cc692e5400197a980c,SCR,2024-06-21_12h46.42.157,LearnStrategy,2023.2.3,Win32,59.88023952,6,1,15,-0.401851852,0.212962963,1,0,0,0.9235,Pumice_15,8,15,5,2,0.923,8,15,0.342592593,-0.400925926,1,0,0,0.8076,Pumice_rect,8,0.808,1,14,0,14,0,1,,,,,,,,,,,,,
5d4869cc692e5400197a980c,SCR,2024-06-21_12h46.42.157,LearnStrategy,2023.2.3,Win32,59.88023952,6,1,16,-0.101851852,0.403703704,1,0,0,0.8713,Basalt_08,2,08,6,4,0.871,2,08,-0.153703704,-0.261111111,1,0,0,0.6858,Basalt_rect,2,0.686,1,15,0,15,0,1,,,,,,,,,,,,,
5d4869cc692e5400197a980c,SCR,2024-06-21_12h46.42.157,LearnStrategy,2023.2.3,Win32,59.88023952,6,2,1,,,,,,,,8,03,,,,,,,,,,,,,8,1.243,1,,,,,,0.375925926,-0.392592593,1,0,0,1.2428,Pumice_rect,0,0,0,0,1,
5d4869cc692e5400197a980c,SCR,2024-06-21_12h46.42.157,LearnStrategy,2023.2.3,Win32,59.88023952,6,2,2,,,,,,,,4,05,,,,,,,,,,,,,4,2.072,1,,,,,,0.340740741,-0.237962963,1,0,0,2.0723,Gabbro_rect,1,0,1,0,1,
5d4869cc692e5400197a980c,SCR,2024-06-21_12h46.42.157,LearnStrategy,2023.2.3,Win32,59.88023952,6,2,3,,,,,,,,5,12,,,,,,,,,,,,,5,1.671,1,,,,,,-0.401851852,-0.40462963,1,0,0,1.6711,Obsidian_rect,2,0,2,0,1,
5d4869cc692e5400197a980c,SCR,2024-06-21_12h46.42.157,LearnStrategy,2023.2.3,Win32,59.88023952,6,2,4,,,,,,,,3,13,,,,,,,,,,,,,3,3.701,1,,,,,,0.142592593,-0.243518519,1,0,0,3.7011,Diorite_rect,3,0,3,0,1,
5d4869cc692e5400197a980c,SCR,2024-06-21_12h46.42.157,LearnStrategy,2023.2.3,Win32,59.88023952,6,2,5,,,,,,,,8,08,,,,,,,,,,,,,8,1.096,1,,,,,,0.424074074,-0.407407407,1,0,0,1.0964,Pumice_rect,4,0,4,0,1,
5d4869cc692e5400197a980c,SCR,2024-06-21_12h46.42.157,LearnStrategy,2023.2.3,Win32,59.88023952,6,2,6,,,,,,,,2,16,,,,,,,,,,,,,2,0.976,1,,,,,,-0.178703704,-0.248148148,1,0,0,0.9757,Basalt_rect,5,0,5,0,1,
5d4869cc692e5400197a980c,SCR,2024-06-21_12h46.42.157,LearnStrategy,2023.2.3,Win32,59.88023952,6,2,7,,,,,,,,1,09,,,,,,,,,,,,,1,3.507,1,,,,,,-0.368518519,-0.251851852,1,0,0,3.507,Andesite_rect,6,0,6,0,1,
5d4869cc692e5400197a980c,SCR,2024-06-21_12h46.42.157,LearnStrategy,2023.2.3,Win32,59.88023952,6,2,8,,,,,,,,3,08,,,,,,,,,,,,,3,1.851,1,,,,,,0.113888889,-0.257407407,1,0,0,1.851,Diorite_rect,7,0,7,0,1,
5d4869cc692e5400197a980c,SCR,2024-06-21_12h46.42.157,LearnStrategy,2023.2.3,Win32,59.88023952,6,2,9,,,,,,,,6,06,,,,,,,,,,,,,7,2.841,0,,,,,,0.121296296,-0.406481481,1,0,0,2.841,Peridotite_rect,8,0,8,0,1,
5d4869cc692e5400197a980c,SCR,2024-06-21_12h46.42.157,LearnStrategy,2023.2.3,Win32,59.88023952,6,2,10,,,,,,,,1,10,,,,,,,,,,,,,1,3.423,1,,,,,,-0.388888889,-0.267592593,1,0,0,3.4227,Andesite_rect,9,0,9,0,1,
5d4869cc692e5400197a980c,SCR,2024-06-21_12h46.42.157,LearnStrategy,2023.2.3,Win32,59.88023952,6,2,11,,,,,,,,5,16,,,,,,,,,,,,,5,0.995,1,,,,,,-0.393518519,-0.392592593,1,0,0,0.9951,Obsidian_rect,10,0,10,0,1,
5d4869cc692e5400197a980c,SCR,2024-06-21_12h46.42.157,LearnStrategy,2023.2.3,Win32,59.88023952,6,2,12,,,,,,,,6,07,,,,,,,,,,,,,6,1.897,1,,,,,,-0.103703704,-0.417592593,1,0,0,1.8973,Pegmatite_rect,11,0,11,0,1,
5d4869cc692e5400197a980c,SCR,2024-06-21_12h46.42.157,LearnStrategy,2023.2.3,Win32,59.88023952,6,2,13,,,,,,,,2,09,,,,,,,,,,,,,2,1.371,1,,,,,,-0.108333333,-0.249074074,1,0,0,1.3712,Basalt_rect,12,0,12,0,1,
5d4869cc692e5400197a980c,SCR,2024-06-21_12h46.42.157,LearnStrategy,2023.2.3,Win32,59.88023952,6,2,14,,,,,,,,7,08,,,,,,,,,,,,,7,1.131,1,,,,,,0.142592593,-0.400925926,1,0,0,1.131,Peridotite_rect,13,0,13,0,1,
5d4869cc692e5400197a980c,SCR,2024-06-21_12h46.42.157,LearnStrategy,2023.2.3,Win32,59.88023952,6,2,15,,,,,,,,7,14,,,,,,,,,,,,,4,1.664,0,,,,,,0.342592593,-0.247222222,1,0,0,1.6636,Gabbro_rect,14,0,14,0,1,
5d4869cc692e5400197a980c,SCR,2024-06-21_12h46.42.157,LearnStrategy,2023.2.3,Win32,59.88023952,6,2,16,,,,,,,,4,14,,,,,,,,,,,,,4,1.618,1,,,,,,0.389814815,-0.237037037,1,0,0,1.6184,Gabbro_rect,15,0,15,0,1,
5d4869cc692e5400197a980c,SCR,2024-06-21_12h46.42.157,LearnStrategy,2023.2.3,Win32,59.88023952,7,1,1,0.375,0.239814815,1,0,0,1.2404,Pegmatite_12,6,12,5,7,1.24,6,12,-0.109259259,-0.411111111,1,0,0,0.8295,Pegmatite_rect,6,0.829,1,0,0,0,0,1,,,,,,,,,,,,,
5d4869cc692e5400197a980c,SCR,2024-06-21_12h46.42.157,LearnStrategy,2023.2.3,Win32,59.88023952,7,1,2,-0.57962963,-0.099074074,1,0,0,1.0151,Obsidian_04,5,04,3,1,1.015,5,04,-0.364814815,-0.391666667,1,0,0,0.9566,Obsidian_rect,5,0.957,1,1,0,1,0,1,,,,,,,,,,,,,
5d4869cc692e5400197a980c,SCR,2024-06-21_12h46.42.157,LearnStrategy,2023.2.3,Win32,59.88023952,7,1,3,-0.07962963,-0.074074074,1,0,0,0.6215,Andesite_07,1,07,3,4,0.621,1,07,-0.330555556,-0.240740741,1,0,0,1.0929,Andesite_rect,1,1.093,1,2,0,2,0,1,,,,,,,,,,,,,
5d4869cc692e5400197a980c,SCR,2024-06-21_12h46.42.157,LearnStrategy,2023.2.3,Win32,59.88023952,7,1,4,-0.537037037,0.249074074,1,0,0,0.999,Gabbro_01,4,01,5,1,0.999,4,01,0.392592593,-0.256481481,1,0,0,1.7513,Gabbro_rect,4,1.751,1,3,0,3,0,1,,,,,,,,,,,,,
5d4869cc692e5400197a980c,SCR,2024-06-21_12h46.42.157,LearnStrategy,2023.2.3,Win32,59.88023952,7,1,5,-0.080555556,0.1,1,0,0,0.595,Basalt_14,2,14,4,4,0.595,2,14,0.373148148,-0.417592593,1,0,0,1.4161,Pumice_rect,8,1.416,0,4,0,4,0,1,,,,,,,,,,,,,
5d4869cc692e5400197a980c,SCR,2024-06-21_12h46.42.157,LearnStrategy,2023.2.3,Win32,59.88023952,7,1,6,0.583333333,-0.100925926,1,0,0,1.0401,Andesite_14,1,14,3,8,1.04,1,14,-0.401851852,-0.251851852,1,0,0,1.9562,Andesite_rect,1,1.956,1,5,0,5,0,1,,,,,,,,,,,,,
5d4869cc692e5400197a980c,SCR,2024-06-21_12h46.42.157,LearnStrategy,2023.2.3,Win32,59.88023952,7,1,7,0.366666667,0.087037037,1,0,0,0.9401,Peridotite_13,7,13,4,7,0.94,7,13,0.125925926,-0.401851852,1,0,0,0.9339,Peridotite_rect,7,0.934,1,6,0,6,0,1,,,,,,,,,,,,,
5d4869cc692e5400197a980c,SCR,2024-06-21_12h46.42.157,LearnStrategy,2023.2.3,Win32,59.88023952,7,1,8,-0.225925926,0.432407407,1,0,0,0.9284,Diorite_02,3,02,6,3,0.928,3,02,0.12962963,-0.262037037,1,0,0,1.0421,Diorite_rect,3,1.042,1,7,0,7,0,1,,,,,,,,,,,,,
5d4869cc692e5400197a980c,SCR,2024-06-21_12h46.42.157,LearnStrategy,2023.2.3,Win32,59.88023952,7,1,9,0.411111111,-0.096296296,1,0,0,1.012,Peridotite_10,7,10,3,7,1.012,7,10,0.049074074,-0.394444444,1,0,0,1.3796,Peridotite_rect,7,1.38,1,8,0,8,0,1,,,,,,,,,,,,,
5d4869cc692e5400197a980c,SCR,2024-06-21_12h46.42.157,LearnStrategy,2023.2.3,Win32,59.88023952,7,1,10,0.216666667,-0.252777778,1,0,0,0.8114,Gabbro_16,4,16,2,6,0.811,4,16,-0.181481481,-0.231481481,1,0,0,1.6455,Basalt_rect,2,1.645,0,9,0,9,0,1,,,,,,,,,,,,,
5d4869cc692e5400197a980c,SCR,2024-06-21_12h46.42.157,LearnStrategy,2023.2.3,Win32,59.88023952,7,1,11,0.549074074,0.057407407,1,0,0,0.952,Pegmatite_03,6,03,4,8,0.952,6,03,-0.059259259,-0.403703704,1,0,0,1.2903,Pegmatite_rect,6,1.29,1,10,0,10,0,1,,,,,,,,,,,,,
5d4869cc692e5400197a980c,SCR,2024-06-21_12h46.42.157,LearnStrategy,2023.2.3,Win32,59.88023952,7,1,12,-0.09537037,-0.413888889,1,0,0,1.1177,Basalt_02,2,02,1,4,1.118,2,02,-0.093518519,-0.233333333,1,0,0,0.8181,Basalt_rect,2,0.818,1,11,0,11,0,1,,,,,,,,,,,,,
5d4869cc692e5400197a980c,SCR,2024-06-21_12h46.42.157,LearnStrategy,2023.2.3,Win32,59.88023952,7,1,13,0.377777778,0.219444444,1,0,0,1.6223,Pegmatite_12,6,12,5,7,1.622,6,12,-0.123148148,-0.390740741,1,0,0,0.8361,Pegmatite_rect,6,0.836,1,12,0,12,0,1,,,,,,,,,,,,,
5d4869cc692e5400197a980c,SCR,2024-06-21_12h46.42.157,LearnStrategy,2023.2.3,Win32,59.88023952,7,1,14,0.355555556,0.084259259,1,0,0,0.7267,Peridotite_13,7,13,4,7,0.727,7,13,0.115740741,-0.415740741,1,0,0,0.5799,Peridotite_rect,7,0.58,1,13,0,13,0,1,,,,,,,,,,,,,
5d4869cc692e5400197a980c,SCR,2024-06-21_12h46.42.157,LearnStrategy,2023.2.3,Win32,59.88023952,7,1,15,-0.241666667,-0.093518519,1,0,0,0.8598,Diorite_12,3,12,3,3,0.86,3,12,0.126851852,-0.25,1,0,0,1.5166,Diorite_rect,3,1.517,1,14,0,14,0,1,,,,,,,,,,,,,
5d4869cc692e5400197a980c,SCR,2024-06-21_12h46.42.157,LearnStrategy,2023.2.3,Win32,59.88023952,7,1,16,0.077777778,0.425,1,0,0,1.0899,Pumice_09,8,09,6,5,1.09,8,09,0.402777778,-0.39537037,1,0,0,0.8789,Pumice_rect,8,0.879,1,15,0,15,0,1,,,,,,,,,,,,,
5d4869cc692e5400197a980c,SCR,2024-06-21_12h46.42.157,LearnStrategy,2023.2.3,Win32,59.88023952,7,2,1,,,,,,,,8,13,,,,,,,,,,,,,8,1.062,1,,,,,,0.418518519,-0.387037037,1,0,0,1.0622,Pumice_rect,0,0,0,0,1,
5d4869cc692e5400197a980c,SCR,2024-06-21_12h46.42.157,LearnStrategy,2023.2.3,Win32,59.88023952,7,2,2,,,,,,,,5,16,,,,,,,,,,,,,5,0.997,1,,,,,,-0.35462963,-0.381481481,1,0,0,0.997,Obsidian_rect,1,0,1,0,1,
5d4869cc692e5400197a980c,SCR,2024-06-21_12h46.42.157,LearnStrategy,2023.2.3,Win32,59.88023952,7,2,3,,,,,,,,2,16,,,,,,,,,,,,,2,1.397,1,,,,,,-0.101851852,-0.24537037,1,0,0,1.3968,Basalt_rect,2,0,2,0,1,
5d4869cc692e5400197a980c,SCR,2024-06-21_12h46.42.157,LearnStrategy,2023.2.3,Win32,59.88023952,7,2,4,,,,,,,,4,11,,,,,,,,,,,,,4,1.737,1,,,,,,0.388888889,-0.237962963,1,0,0,1.7368,Gabbro_rect,3,0,3,0,1,
5d4869cc692e5400197a980c,SCR,2024-06-21_12h46.42.157,LearnStrategy,2023.2.3,Win32,59.88023952,7,2,5,,,,,,,,3,13,,,,,,,,,,,,,3,1.437,1,,,,,,0.089814815,-0.246296296,1,0,0,1.4372,Diorite_rect,4,0,4,0,1,
5d4869cc692e5400197a980c,SCR,2024-06-21_12h46.42.157,LearnStrategy,2023.2.3,Win32,59.88023952,7,2,6,,,,,,,,6,11,,,,,,,,,,,,,6,1.023,1,,,,,,-0.141666667,-0.410185185,1,0,0,1.0231,Pegmatite_rect,5,0,5,0,1,
5d4869cc692e5400197a980c,SCR,2024-06-21_12h46.42.157,LearnStrategy,2023.2.3,Win32,59.88023952,7,2,7,,,,,,,,1,03,,,,,,,,,,,,,1,1.505,1,,,,,,-0.386111111,-0.248148148,1,0,0,1.5045,Andesite_rect,6,0,6,0,1,
5d4869cc692e5400197a980c,SCR,2024-06-21_12h46.42.157,LearnStrategy,2023.2.3,Win32,59.88023952,7,2,8,,,,,,,,6,15,,,,,,,,,,,,,6,1.423,1,,,,,,-0.101851852,-0.394444444,1,0,0,1.4234,Pegmatite_rect,7,0,7,0,1,
5d4869cc692e5400197a980c,SCR,2024-06-21_12h46.42.157,LearnStrategy,2023.2.3,Win32,59.88023952,7,2,9,,,,,,,,2,11,,,,,,,,,,,,,8,1.088,0,,,,,,0.362962963,-0.402777778,1,0,0,1.0884,Pumice_rect,8,0,8,0,1,
5d4869cc692e5400197a980c,SCR,2024-06-21_12h46.42.157,LearnStrategy,2023.2.3,Win32,59.88023952,7,2,10,,,,,,,,7,12,,,,,,,,,,,,,7,1.806,1,,,,,,0.119444444,-0.387962963,1,0,0,1.8057,Peridotite_rect,9,0,9,0,1,
5d4869cc692e5400197a980c,SCR,2024-06-21_12h46.42.157,LearnStrategy,2023.2.3,Win32,59.88023952,7,2,11,,,,,,,,8,02,,,,,,,,,,,,,8,1.221,1,,,,,,0.356481481,-0.407407407,1,0,0,1.2214,Pumice_rect,10,0,10,0,1,
5d4869cc692e5400197a980c,SCR,2024-06-21_12h46.42.157,LearnStrategy,2023.2.3,Win32,59.88023952,7,2,12,,,,,,,,5,05,,,,,,,,,,,,,5,1.369,1,,,,,,-0.391666667,-0.389814815,1,0,0,1.3694,Obsidian_rect,11,0,11,0,1,
5d4869cc692e5400197a980c,SCR,2024-06-21_12h46.42.157,LearnStrategy,2023.2.3,Win32,59.88023952,7,2,13,,,,,,,,7,08,,,,,,,,,,,,,7,1.293,1,,,,,,0.114814815,-0.400925926,1,0,0,1.2925,Peridotite_rect,12,0,12,0,1,
5d4869cc692e5400197a980c,SCR,2024-06-21_12h46.42.157,LearnStrategy,2023.2.3,Win32,59.88023952,7,2,14,,,,,,,,3,10,,,,,,,,,,,,,3,1.132,1,,,,,,0.096296296,-0.244444444,1,0,0,1.1321,Diorite_rect,13,0,13,0,1,
5d4869cc692e5400197a980c,SCR,2024-06-21_12h46.42.157,LearnStrategy,2023.2.3,Win32,59.88023952,7,2,15,,,,,,,,1,09,,,,,,,,,,,,,1,1.396,1,,,,,,-0.4,-0.248148148,1,0,0,1.3958,Andesite_rect,14,0,14,0,1,
5d4869cc692e5400197a980c,SCR,2024-06-21_12h46.42.157,LearnStrategy,2023.2.3,Win32,59.88023952,7,2,16,,,,,,,,4,05,,,,,,,,,,,,,4,1.412,1,,,,,,0.388888889,-0.239814815,1,0,0,1.412,Gabbro_rect,15,0,15,0,1,
5d4869cc692e5400197a980c,SCR,2024-06-21_12h46.42.157,LearnStrategy,2023.2.3,Win32,59.88023952,8,1,1,0.217592593,0.24537037,1,0,0,0.9447,Gabbro_09,4,09,5,6,0.945,4,09,-0.168518519,-0.27037037,1,0,0,5.5358,Basalt_rect,2,5.536,0,0,0,0,0,1,,,,,,,,,,,,,
5d4869cc692e5400197a980c,SCR,2024-06-21_12h46.42.157,LearnStrategy,2023.2.3,Win32,59.88023952,8,1,2,0.052777778,-0.248148148,1,0,0,0.8519,Peridotite_05,7,05,2,5,0.852,7,05,0.122222222,-0.413888889,1,0,0,1.0215,Peridotite_rect,7,1.022,1,1,0,1,0,1,,,,,,,,,,,,,
5d4869cc692e5400197a980c,SCR,2024-06-21_12h46.42.157,LearnStrategy,2023.2.3,Win32,59.88023952,8,1,3,0.516666667,-0.098148148,1,0,0,0.9541,Andesite_14,1,14,3,8,0.954,1,14,-0.366666667,-0.260185185,1,0,0,1.012,Andesite_rect,1,1.012,1,2,0,2,0,1,,,,,,,,,,,,,
5d4869cc692e5400197a980c,SCR,2024-06-21_12h46.42.157,LearnStrategy,2023.2.3,Win32,59.88023952,8,1,4,-0.078703704,0.085185185,1,0,0,0.677,Basalt_14,2,14,4,4,0.677,2,14,-0.09537037,-0.241666667,1,0,0,1.446,Basalt_rect,2,1.446,1,3,0,3,0,1,,,,,,,,,,,,,
5d4869cc692e5400197a980c,SCR,2024-06-21_12h46.42.157,LearnStrategy,2023.2.3,Win32,59.88023952,8,1,5,0.248148148,0.380555556,1,0,0,1.0246,Gabbro_15,4,15,6,6,1.025,4,15,0.139814815,-0.25,1,0,0,1.8354,Diorite_rect,3,1.835,0,4,0,4,0,1,,,,,,,,,,,,,
5d4869cc692e5400197a980c,SCR,2024-06-21_12h46.42.157,LearnStrategy,2023.2.3,Win32,59.88023952,8,1,6,0.539814815,-0.246296296,1,0,0,1.13,Peridotite_06,7,06,2,8,1.13,7,06,0.141666667,-0.392592593,1,0,0,0.7298,Peridotite_rect,7,0.73,1,5,0,5,0,1,,,,,,,,,,,,,
5d4869cc692e5400197a980c,SCR,2024-06-21_12h46.42.157,LearnStrategy,2023.2.3,Win32,59.88023952,8,1,7,0.54537037,0.071296296,1,0,0,0.9524,Pegmatite_03,6,03,4,8,0.952,6,03,-0.132407407,-0.4,1,0,0,1.0069,Pegmatite_rect,6,1.007,1,6,0,6,0,1,,,,,,,,,,,,,
5d4869cc692e5400197a980c,SCR,2024-06-21_12h46.42.157,LearnStrategy,2023.2.3,Win32,59.88023952,8,1,8,0.498148148,0.068518519,1,0,0,0.7584,Pegmatite_03,6,03,4,8,0.758,6,03,-0.124074074,-0.397222222,1,0,0,0.8149,Pegmatite_rect,6,0.815,1,7,0,7,0,1,,,,,,,,,,,,,
5d4869cc692e5400197a980c,SCR,2024-06-21_12h46.42.157,LearnStrategy,2023.2.3,Win32,59.88023952,8,1,9,-0.112962963,-0.393518519,1,0,0,0.8195,Basalt_02,2,02,1,4,0.82,2,02,-0.138888889,-0.232407407,1,0,0,0.642,Basalt_rect,2,0.642,1,8,0,8,0,1,,,,,,,,,,,,,
5d4869cc692e5400197a980c,SCR,2024-06-21_12h46.42.157,LearnStrategy,2023.2.3,Win32,59.88023952,8,1,10,0.535185185,0.377777778,1,0,0,1.0469,Obsidian_06,5,06,6,8,1.047,5,06,-0.37037037,-0.378703704,1,0,0,0.8638,Obsidian_rect,5,0.864,1,9,0,9,0,1,,,,,,,,,,,,,
5d4869cc692e5400197a980c,SCR,2024-06-21_12h46.42.157,LearnStrategy,2023.2.3,Win32,59.88023952,8,1,11,-0.247222222,-0.234259259,1,0,0,0.726,Pegmatite_05,6,05,2,3,0.726,6,05,-0.123148148,-0.410185185,1,0,0,0.7523,Pegmatite_rect,6,0.752,1,10,0,10,0,1,,,,,,,,,,,,,
5d4869cc692e5400197a980c,SCR,2024-06-21_12h46.42.157,LearnStrategy,2023.2.3,Win32,59.88023952,8,1,12,-0.063888889,0.086111111,1,0,0,0.6401,Basalt_14,2,14,4,4,0.64,2,14,-0.142592593,-0.252777778,1,0,0,0.6308,Basalt_rect,2,0.631,1,11,0,11,0,1,,,,,,,,,,,,,
5d4869cc692e5400197a980c,SCR,2024-06-21_12h46.42.157,LearnStrategy,2023.2.3,Win32,59.88023952,8,1,13,0.353703704,0.076851852,1,0,0,0.7466,Peridotite_13,7,13,4,7,0.747,7,13,0.07962963,-0.387962963,1,0,0,0.7087,Peridotite_rect,7,0.709,1,12,0,12,0,1,,,,,,,,,,,,,
5d4869cc692e5400197a980c,SCR,2024-06-21_12h46.42.157,LearnStrategy,2023.2.3,Win32,59.88023952,8,1,14,-0.39537037,-0.105555556,1,0,0,0.9597,Andesite_01,1,01,3,2,0.96,1,01,0.137037037,-0.263888889,1,0,0,0.7167,Diorite_rect,3,0.717,0,13,0,13,0,1,,,,,,,,,,,,,
5d4869cc692e5400197a980c,SCR,2024-06-21_12h46.42.157,LearnStrategy,2023.2.3,Win32,59.88023952,8,1,15,0.083333333,0.415740741,1,0,0,1.0178,Pumice_09,8,09,6,5,1.018,8,09,0.371296296,-0.388888889,1,0,0,0.7345,Pumice_rect,8,0.735,1,14,0,14,0,1,,,,,,,,,,,,,
5d4869cc692e5400197a980c,SCR,2024-06-21_12h46.42.157,LearnStrategy,2023.2.3,Win32,59.88023952,8,1,16,-0.386111111,0.091666667,1,0,0,1.0699,Diorite_11,3,11,4,2,1.07,3,11,0.082407407,-0.238888889,1,0,0,0.5585,Diorite_rect,3,0.558,1,15,0,15,0,1,,,,,,,,,,,,,
5d4869cc692e5400197a980c,SCR,2024-06-21_12h46.42.157,LearnStrategy,2023.2.3,Win32,59.88023952,8,2,1,,,,,,,,8,04,,,,,,,,,,,,,8,1.053,1,,,,,,0.410185185,-0.410185185,1,0,0,1.0527,Pumice_rect,0,0,0,0,1,
5d4869cc692e5400197a980c,SCR,2024-06-21_12h46.42.157,LearnStrategy,2023.2.3,Win32,59.88023952,8,2,2,,,,,,,,8,08,,,,,,,,,,,,,8,1.265,1,,,,,,0.352777778,-0.403703704,1,0,0,1.2652,Pumice_rect,1,0,1,0,1,
5d4869cc692e5400197a980c,SCR,2024-06-21_12h46.42.157,LearnStrategy,2023.2.3,Win32,59.88023952,8,2,3,,,,,,,,1,10,,,,,,,,,,,,,1,2.354,1,,,,,,-0.394444444,-0.248148148,1,0,0,2.3541,Andesite_rect,2,0,2,0,1,
5d4869cc692e5400197a980c,SCR,2024-06-21_12h46.42.157,LearnStrategy,2023.2.3,Win32,59.88023952,8,2,4,,,,,,,,2,10,,,,,,,,,,,,,2,1.095,1,,,,,,-0.139814815,-0.255555556,1,0,0,1.0952,Basalt_rect,3,0,3,0,1,
5d4869cc692e5400197a980c,SCR,2024-06-21_12h46.42.157,LearnStrategy,2023.2.3,Win32,59.88023952,8,2,5,,,,,,,,4,10,,,,,,,,,,,,,4,1.352,1,,,,,,0.324074074,-0.241666667,1,0,0,1.3524,Gabbro_rect,4,0,4,0,1,
5d4869cc692e5400197a980c,SCR,2024-06-21_12h46.42.157,LearnStrategy,2023.2.3,Win32,59.88023952,8,2,6,,,,,,,,6,07,,,,,,,,,,,,,6,0.946,1,,,,,,-0.125925926,-0.398148148,1,0,0,0.9463,Pegmatite_rect,5,0,5,0,1,
5d4869cc692e5400197a980c,SCR,2024-06-21_12h46.42.157,LearnStrategy,2023.2.3,Win32,59.88023952,8,2,7,,,,,,,,6,08,,,,,,,,,,,,,6,0.908,1,,,,,,-0.116666667,-0.37962963,1,0,0,0.9075,Pegmatite_rect,6,0,6,0,1,
5d4869cc692e5400197a980c,SCR,2024-06-21_12h46.42.157,LearnStrategy,2023.2.3,Win32,59.88023952,8,2,8,,,,,,,,4,13,,,,,,,,,,,,,3,1.711,0,,,,,,0.113888889,-0.248148148,1,0,0,1.711,Diorite_rect,7,0,7,0,1,
5d4869cc692e5400197a980c,SCR,2024-06-21_12h46.42.157,LearnStrategy,2023.2.3,Win32,59.88023952,8,2,9,,,,,,,,7,14,,,,,,,,,,,,,3,1.88,0,,,,,,0.113888889,-0.248148148,1,0,0,1.8796,Diorite_rect,8,0,8,0,1,
5d4869cc692e5400197a980c,SCR,2024-06-21_12h46.42.157,LearnStrategy,2023.2.3,Win32,59.88023952,8,2,10,,,,,,,,2,05,,,,,,,,,,,,,2,1.001,1,,,,,,-0.092592593,-0.262962963,1,0,0,1.001,Basalt_rect,9,0,9,0,1,
5d4869cc692e5400197a980c,SCR,2024-06-21_12h46.42.157,LearnStrategy,2023.2.3,Win32,59.88023952,8,2,11,,,,,,,,5,12,,,,,,,,,,,,,5,0.941,1,,,,,,-0.460185185,-0.401851852,1,0,0,0.9407,Obsidian_rect,10,0,10,0,1,
5d4869cc692e5400197a980c,SCR,2024-06-21_12h46.42.157,LearnStrategy,2023.2.3,Win32,59.88023952,8,2,12,,,,,,,,1,11,,,,,,,,,,,,,1,1.383,1,,,,,,-0.400925926,-0.24537037,1,0,0,1.3831,Andesite_rect,11,0,11,0,1,
5d4869cc692e5400197a980c,SCR,2024-06-21_12h46.42.157,LearnStrategy,2023.2.3,Win32,59.88023952,8,2,13,,,,,,,,7,02,,,,,,,,,,,,,7,0.958,1,,,,,,0.147222222,-0.405555556,1,0,0,0.9581,Peridotite_rect,12,0,12,0,1,
5d4869cc692e5400197a980c,SCR,2024-06-21_12h46.42.157,LearnStrategy,2023.2.3,Win32,59.88023952,8,2,14,,,,,,,,3,09,,,,,,,,,,,,,3,1.089,1,,,,,,0.056481481,-0.238888889,1,0,0,1.0888,Diorite_rect,13,0,13,0,1,
5d4869cc692e5400197a980c,SCR,2024-06-21_12h46.42.157,LearnStrategy,2023.2.3,Win32,59.88023952,8,2,15,,,,,,,,5,02,,,,,,,,,,,,,5,1.186,1,,,,,,-0.375,-0.393518519,1,0,0,1.186,Obsidian_rect,14,0,14,0,1,
5d4869cc692e5400197a980c,SCR,2024-06-21_12h46.42.157,LearnStrategy,2023.2.3,Win32,59.88023952,8,2,16,,,,,,,,3,15,,,,,,,,,,,,,3,1.047,1,,,,,,0.127777778,-0.248148148,1,0,0,1.0467,Diorite_rect,15,0,15,0,1,
5d4869cc692e5400197a980c,SCR,2024-06-21_12h46.42.157,LearnStrategy,2023.2.3,Win32,59.88023952,9,1,1,0.506481481,-0.256481481,1,0,0,1.0834,Peridotite_06,7,06,2,8,1.083,7,06,0.15,-0.390740741,1,0,0,0.9606,Peridotite_rect,7,0.961,1,0,0,0,0,1,,,,,,,,,,,,,
5d4869cc692e5400197a980c,SCR,2024-06-21_12h46.42.157,LearnStrategy,2023.2.3,Win32,59.88023952,9,1,2,-0.535185185,0.407407407,1,0,0,1.1365,Obsidian_07,5,07,6,1,1.136,5,07,-0.416666667,-0.394444444,1,0,0,0.9644,Obsidian_rect,5,0.964,1,1,0,1,0,1,,,,,,,,,,,,,
5d4869cc692e5400197a980c,SCR,2024-06-21_12h46.42.157,LearnStrategy,2023.2.3,Win32,59.88023952,9,1,3,0.525,0.075925926,1,0,0,1.0807,Pegmatite_03,6,03,4,8,1.081,6,03,-0.126851852,-0.406481481,1,0,0,3.8304,Pegmatite_rect,6,3.83,1,2,0,2,0,1,,,,,,,,,,,,,
5d4869cc692e5400197a980c,SCR,2024-06-21_12h46.42.157,LearnStrategy,2023.2.3,Win32,59.88023952,9,1,4,0.065740741,-0.099074074,1,0,0,0.9899,Basalt_12,2,12,3,5,0.99,2,12,0.399074074,-0.409259259,1,0,0,1.4134,Pumice_rect,8,1.413,0,3,0,3,0,1,,,,,,,,,,,,,
5d4869cc692e5400197a980c,SCR,2024-06-21_12h46.42.157,LearnStrategy,2023.2.3,Win32,59.88023952,9,1,5,-0.393518519,0.281481481,1,0,0,1.0919,Pumice_15,8,15,5,2,1.092,8,15,0.452777778,-0.414814815,1,0,0,1.4513,Pumice_rect,8,1.451,1,4,0,4,0,1,,,,,,,,,,,,,
5d4869cc692e5400197a980c,SCR,2024-06-21_12h46.42.157,LearnStrategy,2023.2.3,Win32,59.88023952,9,1,6,-0.398148148,-0.099074074,1,0,0,0.9277,Andesite_01,1,01,3,2,0.928,1,01,-0.409259259,-0.246296296,1,0,0,1.1216,Andesite_rect,1,1.122,1,5,0,5,0,1,,,,,,,,,,,,,
5d4869cc692e5400197a980c,SCR,2024-06-21_12h46.42.157,LearnStrategy,2023.2.3,Win32,59.88023952,9,1,7,-0.074074074,-0.365740741,1,0,0,0.955,Basalt_02,2,02,1,4,0.955,2,02,-0.122222222,-0.251851852,1,0,0,0.7542,Basalt_rect,2,0.754,1,6,0,6,0,1,,,,,,,,,,,,,
5d4869cc692e5400197a980c,SCR,2024-06-21_12h46.42.157,LearnStrategy,2023.2.3,Win32,59.88023952,9,1,8,-0.094444444,-0.083333333,1,0,0,0.6946,Andesite_07,1,07,3,4,0.695,1,07,-0.392592593,-0.237037037,1,0,0,1.3516,Andesite_rect,1,1.352,1,7,0,7,0,1,,,,,,,,,,,,,
5d4869cc692e5400197a980c,SCR,2024-06-21_12h46.42.157,LearnStrategy,2023.2.3,Win32,59.88023952,9,1,9,0.277777778,0.262962963,1,0,0,3.8712,Gabbro_09,4,09,5,6,3.871,4,09,0.407407407,-0.244444444,1,0,0,1.34,Gabbro_rect,4,1.34,1,8,0,8,0,1,,,,,,,,,,,,,
5d4869cc692e5400197a980c,SCR,2024-06-21_12h46.42.157,LearnStrategy,2023.2.3,Win32,59.88023952,9,1,10,-0.214814815,0.110185185,1,0,0,0.7239,Diorite_14,3,14,4,3,0.724,3,14,0.074074074,-0.250925926,1,0,0,0.6804,Diorite_rect,3,0.68,1,9,0,9,0,1,,,,,,,,,,,,,
5d4869cc692e5400197a980c,SCR,2024-06-21_12h46.42.157,LearnStrategy,2023.2.3,Win32,59.88023952,9,1,11,-0.519444444,-0.227777778,1,0,0,0.992,Diorite_16,3,16,2,1,0.992,3,16,0.091666667,-0.247222222,1,0,0,0.7187,Diorite_rect,3,0.719,1,10,0,10,0,1,,,,,,,,,,,,,
5d4869cc692e5400197a980c,SCR,2024-06-21_12h46.42.157,LearnStrategy,2023.2.3,Win32,59.88023952,9,1,12,0.522222222,-0.241666667,1,0,0,1.132,Peridotite_06,7,06,2,8,1.132,7,06,0.124074074,-0.387962963,1,0,0,1.0434,Peridotite_rect,7,1.043,1,11,0,11,0,1,,,,,,,,,,,,,
5d4869cc692e5400197a980c,SCR,2024-06-21_12h46.42.157,LearnStrategy,2023.2.3,Win32,59.88023952,9,1,13,-0.196296296,-0.244444444,1,0,0,0.7729,Pegmatite_05,6,05,2,3,0.773,6,05,-0.137037037,-0.407407407,1,0,0,1.5752,Pegmatite_rect,6,1.575,1,12,0,12,0,1,,,,,,,,,,,,,
5d4869cc692e5400197a980c,SCR,2024-06-21_12h46.42.157,LearnStrategy,2023.2.3,Win32,59.88023952,9,1,14,0.224074074,-0.415740741,1,0,0,0.9844,Gabbro_08,4,08,1,6,0.984,4,08,0.356481481,-0.264814815,1,0,0,1.3927,Gabbro_rect,4,1.393,1,13,0,13,0,1,,,,,,,,,,,,,
5d4869cc692e5400197a980c,SCR,2024-06-21_12h46.42.157,LearnStrategy,2023.2.3,Win32,59.88023952,9,1,15,-0.235185185,-0.411111111,1,0,0,0.9384,Peridotite_15,7,15,1,3,0.938,7,15,0.087962963,-0.410185185,1,0,0,1.057,Peridotite_rect,7,1.057,1,14,0,14,0,1,,,,,,,,,,,,,
5d4869cc692e5400197a980c,SCR,2024-06-21_12h46.42.157,LearnStrategy,2023.2.3,Win32,59.88023952,9,1,16,0.228703704,-0.253703704,1,0,0,0.7328,Gabbro_16,4,16,2,6,0.733,4,16,-0.106481481,-0.242592593,1,0,0,0.6353,Basalt_rect,2,0.635,0,15,0,15,0,1,,,,,,,,,,,,,
5d4869cc692e5400197a980c,SCR,2024-06-21_12h46.42.157,LearnStrategy,2023.2.3,Win32,59.88023952,9,2,1,,,,,,,,4,03,,,,,,,,,,,,,3,1.559,0,,,,,,0.137037037,-0.246296296,1,0,0,1.5593,Diorite_rect,0,0,0,0,1,
5d4869cc692e5400197a980c,SCR,2024-06-21_12h46.42.157,LearnStrategy,2023.2.3,Win32,59.88023952,9,2,2,,,,,,,,1,05,,,,,,,,,,,,,1,1.359,1,,,,,,-0.356481481,-0.251851852,1,0,0,1.3593,Andesite_rect,1,0,1,0,1,
5d4869cc692e5400197a980c,SCR,2024-06-21_12h46.42.157,LearnStrategy,2023.2.3,Win32,59.88023952,9,2,3,,,,,,,,5,11,,,,,,,,,,,,,5,1.916,1,,,,,,-0.373148148,-0.393518519,1,0,0,1.9158,Obsidian_rect,2,0,2,0,1,
5d4869cc692e5400197a980c,SCR,2024-06-21_12h46.42.157,LearnStrategy,2023.2.3,Win32,59.88023952,9,2,4,,,,,,,,6,06,,,,,,,,,,,,,7,1.968,0,,,,,,0.124074074,-0.399074074,1,0,0,1.9685,Peridotite_rect,3,0,3,0,1,
5d4869cc692e5400197a980c,SCR,2024-06-21_12h46.42.157,LearnStrategy,2023.2.3,Win32,59.88023952,9,2,5,,,,,,,,7,04,,,,,,,,,,,,,4,3.221,0,,,,,,0.363888889,-0.252777778,1,0,0,3.221,Gabbro_rect,4,0,4,0,1,
5d4869cc692e5400197a980c,SCR,2024-06-21_12h46.42.157,LearnStrategy,2023.2.3,Win32,59.88023952,9,2,6,,,,,,,,8,03,,,,,,,,,,,,,8,1.235,1,,,,,,0.334259259,-0.415740741,1,0,0,1.2347,Pumice_rect,5,0,5,0,1,
5d4869cc692e5400197a980c,SCR,2024-06-21_12h46.42.157,LearnStrategy,2023.2.3,Win32,59.88023952,9,2,7,,,,,,,,6,10,,,,,,,,,,,,,7,1.35,0,,,,,,0.09537037,-0.396296296,1,0,0,1.3499,Peridotite_rect,6,0,6,0,1,
5d4869cc692e5400197a980c,SCR,2024-06-21_12h46.42.157,LearnStrategy,2023.2.3,Win32,59.88023952,9,2,8,,,,,,,,7,16,,,,,,,,,,,,,4,1.622,0,,,,,,0.375925926,-0.269444444,1,0,0,1.6222,Gabbro_rect,7,0,7,0,1,
5d4869cc692e5400197a980c,SCR,2024-06-21_12h46.42.157,LearnStrategy,2023.2.3,Win32,59.88023952,9,2,9,,,,,,,,4,14,,,,,,,,,,,,,3,1.805,0,,,,,,0.131481481,-0.246296296,1,0,0,1.8045,Diorite_rect,8,0,8,0,1,
5d4869cc692e5400197a980c,SCR,2024-06-21_12h46.42.157,LearnStrategy,2023.2.3,Win32,59.88023952,9,2,10,,,,,,,,3,08,,,,,,,,,,,,,3,1.032,1,,,,,,0.122222222,-0.24537037,1,0,0,1.0318,Diorite_rect,9,0,9,0,1,
5d4869cc692e5400197a980c,SCR,2024-06-21_12h46.42.157,LearnStrategy,2023.2.3,Win32,59.88023952,9,2,11,,,,,,,,2,09,,,,,,,,,,,,,2,0.908,1,,,,,,-0.136111111,-0.255555556,1,0,0,0.9084,Basalt_rect,10,0,10,0,1,
5d4869cc692e5400197a980c,SCR,2024-06-21_12h46.42.157,LearnStrategy,2023.2.3,Win32,59.88023952,9,2,12,,,,,,,,3,07,,,,,,,,,,,,,1,2.945,0,,,,,,-0.402777778,-0.241666667,1,0,0,2.9454,Andesite_rect,11,0,11,0,1,
5d4869cc692e5400197a980c,SCR,2024-06-21_12h46.42.157,LearnStrategy,2023.2.3,Win32,59.88023952,9,2,13,,,,,,,,5,10,,,,,,,,,,,,,5,1.362,1,,,,,,-0.348148148,-0.385185185,1,0,0,1.3623,Obsidian_rect,12,0,12,0,1,
5d4869cc692e5400197a980c,SCR,2024-06-21_12h46.42.157,LearnStrategy,2023.2.3,Win32,59.88023952,9,2,14,,,,,,,,2,01,,,,,,,,,,,,,2,1.102,1,,,,,,-0.112962963,-0.259259259,1,0,0,1.1022,Basalt_rect,13,0,13,0,1,
5d4869cc692e5400197a980c,SCR,2024-06-21_12h46.42.157,LearnStrategy,2023.2.3,Win32,59.88023952,9,2,15,,,,,,,,1,04,,,,,,,,,,,,,1,1.567,1,,,,,,-0.390740741,-0.264814815,1,0,0,1.567,Andesite_rect,14,0,14,0,1,
5d4869cc692e5400197a980c,SCR,2024-06-21_12h46.42.157,LearnStrategy,2023.2.3,Win32,59.88023952,9,2,16,,,,,,,,8,06,,,,,,,,,,,,,8,1.322,1,,,,,,0.410185185,-0.391666667,1,0,0,1.3222,Pumice_rect,15,0,15,0,1,
5d4869cc692e5400197a980c,SCR,2024-06-21_12h46.42.157,LearnStrategy,2023.2.3,Win32,59.88023952,,,,,,,,,,,,,,,,,,,,,,,,,,,,,,,,,,,,,,,,,,,,,1
5d4869cc692e5400197a980c,SCR,2024-06-21_12h46.42.157,LearnStrategy,2023.2.3,Win32,59.88023952,,,,,,,,,,,,,,,,,,,,,,,,,,,,,,,,,,,,,,,,,,,,,
5d4869cc692e5400197a980c,SCR,2024-06-21_12h46.42.157,LearnStrategy,2023.2.3,Win32,59.88023952,,,,,,,,,,,5,08,1,1,,,,,,,,,,,,,,,,,,,,,,,,,,,,,,,
5d4869cc692e5400197a980c,SCR,2024-06-21_12h46.42.157,LearnStrategy,2023.2.3,Win32,59.88023952,,,,,,,,,,,4,12,1,2,,,,,,,,,,,,,,,,,,,,,,,,,,,,,,,
5d4869cc692e5400197a980c,SCR,2024-06-21_12h46.42.157,LearnStrategy,2023.2.3,Win32,59.88023952,,,,,,,,,,,7,15,1,3,,,,,,,,,,,,,,,,,,,,,,,,,,,,,,,
5d4869cc692e5400197a980c,SCR,2024-06-21_12h46.42.157,LearnStrategy,2023.2.3,Win32,59.88023952,,,,,,,,,,,2,02,1,4,,,,,,,,,,,,,,,,,,,,,,,,,,,,,,,
5d4869cc692e5400197a980c,SCR,2024-06-21_12h46.42.157,LearnStrategy,2023.2.3,Win32,59.88023952,,,,,,,,,,,2,06,1,5,,,,,,,,,,,,,,,,,,,,,,,,,,,,,,,
5d4869cc692e5400197a980c,SCR,2024-06-21_12h46.42.157,LearnStrategy,2023.2.3,Win32,59.88023952,,,,,,,,,,,4,08,1,6,,,,,,,,,,,,,,,,,,,,,,,,,,,,,,,
5d4869cc692e5400197a980c,SCR,2024-06-21_12h46.42.157,LearnStrategy,2023.2.3,Win32,59.88023952,,,,,,,,,,,1,02,1,7,,,,,,,,,,,,,,,,,,,,,,,,,,,,,,,
5d4869cc692e5400197a980c,SCR,2024-06-21_12h46.42.157,LearnStrategy,2023.2.3,Win32,59.88023952,,,,,,,,,,,8,16,1,8,,,,,,,,,,,,,,,,,,,,,,,,,,,,,,,
5d4869cc692e5400197a980c,SCR,2024-06-21_12h46.42.157,LearnStrategy,2023.2.3,Win32,59.88023952,,,,,,,,,,,3,16,2,1,,,,,,,,,,,,,,,,,,,,,,,,,,,,,,,
5d4869cc692e5400197a980c,SCR,2024-06-21_12h46.42.157,LearnStrategy,2023.2.3,Win32,59.88023952,,,,,,,,,,,8,14,2,2,,,,,,,,,,,,,,,,,,,,,,,,,,,,,,,
5d4869cc692e5400197a980c,SCR,2024-06-21_12h46.42.157,LearnStrategy,2023.2.3,Win32,59.88023952,,,,,,,,,,,6,05,2,3,,,,,,,,,,,,,,,,,,,,,,,,,,,,,,,
5d4869cc692e5400197a980c,SCR,2024-06-21_12h46.42.157,LearnStrategy,2023.2.3,Win32,59.88023952,,,,,,,,,,,6,09,2,4,,,,,,,,,,,,,,,,,,,,,,,,,,,,,,,
5d4869cc692e5400197a980c,SCR,2024-06-21_12h46.42.157,LearnStrategy,2023.2.3,Win32,59.88023952,,,,,,,,,,,7,05,2,5,,,,,,,,,,,,,,,,,,,,,,,,,,,,,,,
5d4869cc692e5400197a980c,SCR,2024-06-21_12h46.42.157,LearnStrategy,2023.2.3,Win32,59.88023952,,,,,,,,,,,4,16,2,6,,,,,,,,,,,,,,,,,,,,,,,,,,,,,,,
5d4869cc692e5400197a980c,SCR,2024-06-21_12h46.42.157,LearnStrategy,2023.2.3,Win32,59.88023952,,,,,,,,,,,2,04,2,7,,,,,,,,,,,,,,,,,,,,,,,,,,,,,,,
5d4869cc692e5400197a980c,SCR,2024-06-21_12h46.42.157,LearnStrategy,2023.2.3,Win32,59.88023952,,,,,,,,,,,7,06,2,8,,,,,,,,,,,,,,,,,,,,,,,,,,,,,,,
5d4869cc692e5400197a980c,SCR,2024-06-21_12h46.42.157,LearnStrategy,2023.2.3,Win32,59.88023952,,,,,,,,,,,5,04,3,1,,,,,,,,,,,,,,,,,,,,,,,,,,,,,,,
5d4869cc692e5400197a980c,SCR,2024-06-21_12h46.42.157,LearnStrategy,2023.2.3,Win32,59.88023952,,,,,,,,,,,1,01,3,2,,,,,,,,,,,,,,,,,,,,,,,,,,,,,,,
5d4869cc692e5400197a980c,SCR,2024-06-21_12h46.42.157,LearnStrategy,2023.2.3,Win32,59.88023952,,,,,,,,,,,3,12,3,3,,,,,,,,,,,,,,,,,,,,,,,,,,,,,,,
5d4869cc692e5400197a980c,SCR,2024-06-21_12h46.42.157,LearnStrategy,2023.2.3,Win32,59.88023952,,,,,,,,,,,1,07,3,4,,,,,,,,,,,,,,,,,,,,,,,,,,,,,,,
5d4869cc692e5400197a980c,SCR,2024-06-21_12h46.42.157,LearnStrategy,2023.2.3,Win32,59.88023952,,,,,,,,,,,2,12,3,5,,,,,,,,,,,,,,,,,,,,,,,,,,,,,,,
5d4869cc692e5400197a980c,SCR,2024-06-21_12h46.42.157,LearnStrategy,2023.2.3,Win32,59.88023952,,,,,,,,,,,3,06,3,6,,,,,,,,,,,,,,,,,,,,,,,,,,,,,,,
5d4869cc692e5400197a980c,SCR,2024-06-21_12h46.42.157,LearnStrategy,2023.2.3,Win32,59.88023952,,,,,,,,,,,7,10,3,7,,,,,,,,,,,,,,,,,,,,,,,,,,,,,,,
5d4869cc692e5400197a980c,SCR,2024-06-21_12h46.42.157,LearnStrategy,2023.2.3,Win32,59.88023952,,,,,,,,,,,1,14,3,8,,,,,,,,,,,,,,,,,,,,,,,,,,,,,,,
5d4869cc692e5400197a980c,SCR,2024-06-21_12h46.42.157,LearnStrategy,2023.2.3,Win32,59.88023952,,,,,,,,,,,8,10,4,1,,,,,,,,,,,,,,,,,,,,,,,,,,,,,,,
5d4869cc692e5400197a980c,SCR,2024-06-21_12h46.42.157,LearnStrategy,2023.2.3,Win32,59.88023952,,,,,,,,,,,3,11,4,2,,,,,,,,,,,,,,,,,,,,,,,,,,,,,,,
5d4869cc692e5400197a980c,SCR,2024-06-21_12h46.42.157,LearnStrategy,2023.2.3,Win32,59.88023952,,,,,,,,,,,3,14,4,3,,,,,,,,,,,,,,,,,,,,,,,,,,,,,,,
5d4869cc692e5400197a980c,SCR,2024-06-21_12h46.42.157,LearnStrategy,2023.2.3,Win32,59.88023952,,,,,,,,,,,2,14,4,4,,,,,,,,,,,,,,,,,,,,,,,,,,,,,,,
5d4869cc692e5400197a980c,SCR,2024-06-21_12h46.42.157,LearnStrategy,2023.2.3,Win32,59.88023952,,,,,,,,,,,6,16,4,5,,,,,,,,,,,,,,,,,,,,,,,,,,,,,,,
5d4869cc692e5400197a980c,SCR,2024-06-21_12h46.42.157,LearnStrategy,2023.2.3,Win32,59.88023952,,,,,,,,,,,8,05,4,6,,,,,,,,,,,,,,,,,,,,,,,,,,,,,,,
5d4869cc692e5400197a980c,SCR,2024-06-21_12h46.42.157,LearnStrategy,2023.2.3,Win32,59.88023952,,,,,,,,,,,7,13,4,7,,,,,,,,,,,,,,,,,,,,,,,,,,,,,,,
5d4869cc692e5400197a980c,SCR,2024-06-21_12h46.42.157,LearnStrategy,2023.2.3,Win32,59.88023952,,,,,,,,,,,6,03,4,8,,,,,,,,,,,,,,,,,,,,,,,,,,,,,,,
5d4869cc692e5400197a980c,SCR,2024-06-21_12h46.42.157,LearnStrategy,2023.2.3,Win32,59.88023952,,,,,,,,,,,4,01,5,1,,,,,,,,,,,,,,,,,,,,,,,,,,,,,,,
5d4869cc692e5400197a980c,SCR,2024-06-21_12h46.42.157,LearnStrategy,2023.2.3,Win32,59.88023952,,,,,,,,,,,8,15,5,2,,,,,,,,,,,,,,,,,,,,,,,,,,,,,,,
5d4869cc692e5400197a980c,SCR,2024-06-21_12h46.42.157,LearnStrategy,2023.2.3,Win32,59.88023952,,,,,,,,,,,1,06,5,3,,,,,,,,,,,,,,,,,,,,,,,,,,,,,,,
5d4869cc692e5400197a980c,SCR,2024-06-21_12h46.42.157,LearnStrategy,2023.2.3,Win32,59.88023952,,,,,,,,,,,5,09,5,4,,,,,,,,,,,,,,,,,,,,,,,,,,,,,,,
5d4869cc692e5400197a980c,SCR,2024-06-21_12h46.42.157,LearnStrategy,2023.2.3,Win32,59.88023952,,,,,,,,,,,5,14,5,5,,,,,,,,,,,,,,,,,,,,,,,,,,,,,,,
5d4869cc692e5400197a980c,SCR,2024-06-21_12h46.42.157,LearnStrategy,2023.2.3,Win32,59.88023952,,,,,,,,,,,4,09,5,6,,,,,,,,,,,,,,,,,,,,,,,,,,,,,,,
5d4869cc692e5400197a980c,SCR,2024-06-21_12h46.42.157,LearnStrategy,2023.2.3,Win32,59.88023952,,,,,,,,,,,6,12,5,7,,,,,,,,,,,,,,,,,,,,,,,,,,,,,,,
5d4869cc692e5400197a980c,SCR,2024-06-21_12h46.42.157,LearnStrategy,2023.2.3,Win32,59.88023952,,,,,,,,,,,1,16,5,8,,,,,,,,,,,,,,,,,,,,,,,,,,,,,,,
5d4869cc692e5400197a980c,SCR,2024-06-21_12h46.42.157,LearnStrategy,2023.2.3,Win32,59.88023952,,,,,,,,,,,5,07,6,1,,,,,,,,,,,,,,,,,,,,,,,,,,,,,,,
5d4869cc692e5400197a980c,SCR,2024-06-21_12h46.42.157,LearnStrategy,2023.2.3,Win32,59.88023952,,,,,,,,,,,7,07,6,2,,,,,,,,,,,,,,,,,,,,,,,,,,,,,,,
5d4869cc692e5400197a980c,SCR,2024-06-21_12h46.42.157,LearnStrategy,2023.2.3,Win32,59.88023952,,,,,,,,,,,3,02,6,3,,,,,,,,,,,,,,,,,,,,,,,,,,,,,,,
5d4869cc692e5400197a980c,SCR,2024-06-21_12h46.42.157,LearnStrategy,2023.2.3,Win32,59.88023952,,,,,,,,,,,2,08,6,4,,,,,,,,,,,,,,,,,,,,,,,,,,,,,,,
5d4869cc692e5400197a980c,SCR,2024-06-21_12h46.42.157,LearnStrategy,2023.2.3,Win32,59.88023952,,,,,,,,,,,8,09,6,5,,,,,,,,,,,,,,,,,,,,,,,,,,,,,,,
5d4869cc692e5400197a980c,SCR,2024-06-21_12h46.42.157,LearnStrategy,2023.2.3,Win32,59.88023952,,,,,,,,,,,4,15,6,6,,,,,,,,,,,,,,,,,,,,,,,,,,,,,,,
5d4869cc692e5400197a980c,SCR,2024-06-21_12h46.42.157,LearnStrategy,2023.2.3,Win32,59.88023952,,,,,,,,,,,6,13,6,7,,,,,,,,,,,,,,,,,,,,,,,,,,,,,,,
5d4869cc692e5400197a980c,SCR,2024-06-21_12h46.42.157,LearnStrategy,2023.2.3,Win32,59.88023952,,,,,,,,,,,5,06,6,8,,,,,,,,,,,,,,,,,,,,,,,,,,,,,,,