participant,condition,date,expName,psychopyVersion,OS,frameRate,block,phase,trial,learn_mouse_2.x,learn_mouse_2.y,learn_mouse_2.leftButton,learn_mouse_2.midButton,learn_mouse_2.rightButton,learn_mouse_2.time,learn_mouse_2.clicked_name,cat,token,row,col,t_select,cat_mouse_l.x,cat_mouse_l.y,cat_mouse_l.leftButton,cat_mouse_l.midButton,cat_mouse_l.rightButton,cat_mouse_l.time,cat_mouse_l.clicked_name,resp,t_resp,corr,train_trials.thisRepN,train_trials.thisTrialN,train_trials.thisN,train_trials.thisIndex,train_trials.ran,cat_mouse_t.x,cat_mouse_t.y,cat_mouse_t.leftButton,cat_mouse_t.midButton,cat_mouse_t.rightButton,cat_mouse_t.time,cat_mouse_t.clicked_name,test_trials.thisRepN,test_trials.thisTrialN,test_trials.thisN,test_trials.thisIndex,test_trials.ran,Bonus
5d4b265b72db9d0015e8aac6,TCR,2024-06-11_13h26.17.905,LearnStrategy,2023.2.3,Linux x86_64,75.18796992,,,,,,,,,,,,,,,,,,,,,,,,,,,,,,,,,,,,,,,,,,,
5d4b265b72db9d0015e8aac6,TCR,2024-06-11_13h26.17.905,LearnStrategy,2023.2.3,Linux x86_64,75.18796992,1,1,1,0.112037037,-0.013888889,1,0,0,1.3087,rock_grid_rect_2,4,10,-1,-1,1.309,0.117592593,-0.246296296,1,0,0,0.9811,Diorite_rect,3,0.981,0,0,0,0,0,1,,,,,,,,,,,,,
5d4b265b72db9d0015e8aac6,TCR,2024-06-11_13h26.17.905,LearnStrategy,2023.2.3,Linux x86_64,75.18796992,1,1,2,0.061111111,-0.011111111,1,0,0,1.066,rock_grid_rect_2,2,02,-1,-1,1.066,-0.065740741,-0.236111111,1,0,0,0.6509,Basalt_rect,2,0.651,1,1,0,1,0,1,,,,,,,,,,,,,
5d4b265b72db9d0015e8aac6,TCR,2024-06-11_13h26.17.905,LearnStrategy,2023.2.3,Linux x86_64,75.18796992,1,1,3,0.042592593,-0.012962963,1,0,0,0.6932,rock_grid_rect_2,5,12,-1,-1,0.693,-0.393518519,-0.393518519,1,0,0,1.626,Obsidian_rect,5,1.626,1,2,0,2,0,1,,,,,,,,,,,,,
5d4b265b72db9d0015e8aac6,TCR,2024-06-11_13h26.17.905,LearnStrategy,2023.2.3,Linux x86_64,75.18796992,1,1,4,0.05,-0.012962963,1,0,0,0.7351,rock_grid_rect_2,5,10,-1,-1,0.735,-0.428703704,-0.419444444,1,0,0,0.8121,Obsidian_rect,5,0.812,1,3,0,3,0,1,,,,,,,,,,,,,
5d4b265b72db9d0015e8aac6,TCR,2024-06-11_13h26.17.905,LearnStrategy,2023.2.3,Linux x86_64,75.18796992,1,1,5,0.077777778,-0.007407407,1,0,0,0.6809,rock_grid_rect_2,2,16,-1,-1,0.681,0.406481481,-0.37962963,1,0,0,1.5853,Pumice_rect,8,1.585,0,4,0,4,0,1,,,,,,,,,,,,,
5d4b265b72db9d0015e8aac6,TCR,2024-06-11_13h26.17.905,LearnStrategy,2023.2.3,Linux x86_64,75.18796992,1,1,6,0.085185185,-0.016666667,1,0,0,0.7848,rock_grid_rect_2,3,14,-1,-1,0.785,0.436111111,-0.412037037,1,0,0,1.3209,Pumice_rect,8,1.321,0,5,0,5,0,1,,,,,,,,,,,,,
5d4b265b72db9d0015e8aac6,TCR,2024-06-11_13h26.17.905,LearnStrategy,2023.2.3,Linux x86_64,75.18796992,1,1,7,0.09537037,-0.011111111,1,0,0,0.7743,rock_grid_rect_2,1,03,-1,-1,0.774,0.386111111,-0.399074074,1,0,0,1.5047,Pumice_rect,8,1.505,0,6,0,6,0,1,,,,,,,,,,,,,
5d4b265b72db9d0015e8aac6,TCR,2024-06-11_13h26.17.905,LearnStrategy,2023.2.3,Linux x86_64,75.18796992,1,1,8,0.047222222,0,1,0,0,0.4951,rock_grid_rect_2,7,15,-1,-1,0.495,0.199074074,-0.262962963,1,0,0,1.2386,Diorite_rect,3,1.239,0,7,0,7,0,1,,,,,,,,,,,,,
5d4b265b72db9d0015e8aac6,TCR,2024-06-11_13h26.17.905,LearnStrategy,2023.2.3,Linux x86_64,75.18796992,1,1,9,0.066666667,0.018518519,1,0,0,0.4676,rock_grid_rect_2,8,09,-1,-1,0.468,0.39537037,-0.403703704,1,0,0,0.9183,Pumice_rect,8,0.918,1,8,0,8,0,1,,,,,,,,,,,,,
5d4b265b72db9d0015e8aac6,TCR,2024-06-11_13h26.17.905,LearnStrategy,2023.2.3,Linux x86_64,75.18796992,1,1,10,0.075925926,0.009259259,1,0,0,0.4287,rock_grid_rect_2,6,05,-1,-1,0.429,-0.389814815,-0.416666667,1,0,0,0.865,Obsidian_rect,5,0.865,0,9,0,9,0,1,,,,,,,,,,,,,
5d4b265b72db9d0015e8aac6,TCR,2024-06-11_13h26.17.905,LearnStrategy,2023.2.3,Linux x86_64,75.18796992,1,1,11,0.02962963,-0.016666667,1,0,0,0.7887,rock_grid_rect_2,6,13,-1,-1,0.789,-0.19537037,-0.256481481,1,0,0,1.0653,Basalt_rect,2,1.065,0,10,0,10,0,1,,,,,,,,,,,,,
5d4b265b72db9d0015e8aac6,TCR,2024-06-11_13h26.17.905,LearnStrategy,2023.2.3,Linux x86_64,75.18796992,1,1,12,0.035185185,-0.021296296,1,0,0,0.5219,rock_grid_rect_2,4,15,-1,-1,0.522,0.172222222,-0.25,1,0,0,1.1587,Diorite_rect,3,1.159,0,11,0,11,0,1,,,,,,,,,,,,,
5d4b265b72db9d0015e8aac6,TCR,2024-06-11_13h26.17.905,LearnStrategy,2023.2.3,Linux x86_64,75.18796992,1,1,13,0.098148148,0.002777778,1,0,0,0.4561,rock_grid_rect_2,8,13,-1,-1,0.456,-0.155555556,-0.243518519,1,0,0,1.492,Basalt_rect,2,1.492,0,12,0,12,0,1,,,,,,,,,,,,,
5d4b265b72db9d0015e8aac6,TCR,2024-06-11_13h26.17.905,LearnStrategy,2023.2.3,Linux x86_64,75.18796992,1,1,14,0.074074074,-0.007407407,1,0,0,0.6286,rock_grid_rect_2,3,12,-1,-1,0.629,0.408333333,-0.412962963,1,0,0,1.2254,Pumice_rect,8,1.225,0,13,0,13,0,1,,,,,,,,,,,,,
5d4b265b72db9d0015e8aac6,TCR,2024-06-11_13h26.17.905,LearnStrategy,2023.2.3,Linux x86_64,75.18796992,1,1,15,0.105555556,0.014814815,1,0,0,0.4427,rock_grid_rect_2,1,09,-1,-1,0.443,-0.10462963,-0.24537037,1,0,0,1.2119,Basalt_rect,2,1.212,0,14,0,14,0,1,,,,,,,,,,,,,
5d4b265b72db9d0015e8aac6,TCR,2024-06-11_13h26.17.905,LearnStrategy,2023.2.3,Linux x86_64,75.18796992,1,1,16,0,-0.012962963,1,0,0,0.5081,rock_grid_rect_2,7,04,-1,-1,0.508,0.465740741,-0.230555556,1,0,0,1.3711,Gabbro_rect,4,1.371,0,15,0,15,0,1,,,,,,,,,,,,,
5d4b265b72db9d0015e8aac6,TCR,2024-06-11_13h26.17.905,LearnStrategy,2023.2.3,Linux x86_64,75.18796992,1,2,1,,,,,,,,2,12,,,,,,,,,,,1,2.346,0,,,,,,-0.332407407,-0.25,1,0,0,2.3464,Andesite_rect,0,0,0,0,1,
5d4b265b72db9d0015e8aac6,TCR,2024-06-11_13h26.17.905,LearnStrategy,2023.2.3,Linux x86_64,75.18796992,1,2,2,,,,,,,,3,08,,,,,,,,,,,7,2.321,0,,,,,,0.191666667,-0.400925926,1,0,0,2.3209,Peridotite_rect,1,0,1,0,1,
5d4b265b72db9d0015e8aac6,TCR,2024-06-11_13h26.17.905,LearnStrategy,2023.2.3,Linux x86_64,75.18796992,1,2,3,,,,,,,,4,13,,,,,,,,,,,6,2.569,0,,,,,,-0.140740741,-0.416666667,1,0,0,2.5691,Pegmatite_rect,2,0,2,0,1,
5d4b265b72db9d0015e8aac6,TCR,2024-06-11_13h26.17.905,LearnStrategy,2023.2.3,Linux x86_64,75.18796992,1,2,4,,,,,,,,5,09,,,,,,,,,,,5,0.867,1,,,,,,-0.362037037,-0.405555556,1,0,0,0.8668,Obsidian_rect,3,0,3,0,1,
5d4b265b72db9d0015e8aac6,TCR,2024-06-11_13h26.17.905,LearnStrategy,2023.2.3,Linux x86_64,75.18796992,1,2,5,,,,,,,,7,12,,,,,,,,,,,7,2.948,1,,,,,,0.122222222,-0.391666667,1,0,0,2.9484,Peridotite_rect,4,0,4,0,1,
5d4b265b72db9d0015e8aac6,TCR,2024-06-11_13h26.17.905,LearnStrategy,2023.2.3,Linux x86_64,75.18796992,1,2,6,,,,,,,,1,07,,,,,,,,,,,2,2.041,0,,,,,,-0.098148148,-0.255555556,1,0,0,2.0413,Basalt_rect,5,0,5,0,1,
5d4b265b72db9d0015e8aac6,TCR,2024-06-11_13h26.17.905,LearnStrategy,2023.2.3,Linux x86_64,75.18796992,1,2,7,,,,,,,,6,12,,,,,,,,,,,1,3.944,0,,,,,,-0.356481481,-0.253703704,1,0,0,3.9435,Andesite_rect,6,0,6,0,1,
5d4b265b72db9d0015e8aac6,TCR,2024-06-11_13h26.17.905,LearnStrategy,2023.2.3,Linux x86_64,75.18796992,1,2,8,,,,,,,,2,01,,,,,,,,,,,4,5.037,0,,,,,,0.35,-0.240740741,1,0,0,5.0374,Gabbro_rect,7,0,7,0,1,
5d4b265b72db9d0015e8aac6,TCR,2024-06-11_13h26.17.905,LearnStrategy,2023.2.3,Linux x86_64,75.18796992,1,2,9,,,,,,,,7,16,,,,,,,,,,,2,2.29,0,,,,,,-0.125,-0.25462963,1,0,0,2.29,Basalt_rect,8,0,8,0,1,
5d4b265b72db9d0015e8aac6,TCR,2024-06-11_13h26.17.905,LearnStrategy,2023.2.3,Linux x86_64,75.18796992,1,2,10,,,,,,,,1,16,,,,,,,,,,,6,2.735,0,,,,,,-0.061111111,-0.394444444,1,0,0,2.7346,Pegmatite_rect,9,0,9,0,1,
5d4b265b72db9d0015e8aac6,TCR,2024-06-11_13h26.17.905,LearnStrategy,2023.2.3,Linux x86_64,75.18796992,1,2,11,,,,,,,,4,16,,,,,,,,,,,7,2.13,0,,,,,,0.212037037,-0.394444444,1,0,0,2.1299,Peridotite_rect,10,0,10,0,1,
5d4b265b72db9d0015e8aac6,TCR,2024-06-11_13h26.17.905,LearnStrategy,2023.2.3,Linux x86_64,75.18796992,1,2,12,,,,,,,,3,02,,,,,,,,,,,8,1.361,0,,,,,,0.430555556,-0.380555556,1,0,0,1.3609,Pumice_rect,11,0,11,0,1,
5d4b265b72db9d0015e8aac6,TCR,2024-06-11_13h26.17.905,LearnStrategy,2023.2.3,Linux x86_64,75.18796992,1,2,13,,,,,,,,5,02,,,,,,,,,,,5,0.987,1,,,,,,-0.34537037,-0.383333333,1,0,0,0.9865,Obsidian_rect,12,0,12,0,1,
5d4b265b72db9d0015e8aac6,TCR,2024-06-11_13h26.17.905,LearnStrategy,2023.2.3,Linux x86_64,75.18796992,1,2,14,,,,,,,,8,06,,,,,,,,,,,8,0.974,1,,,,,,0.447222222,-0.402777778,1,0,0,0.9738,Pumice_rect,13,0,13,0,1,
5d4b265b72db9d0015e8aac6,TCR,2024-06-11_13h26.17.905,LearnStrategy,2023.2.3,Linux x86_64,75.18796992,1,2,15,,,,,,,,8,14,,,,,,,,,,,8,0.934,1,,,,,,0.434259259,-0.39537037,1,0,0,0.9344,Pumice_rect,14,0,14,0,1,
5d4b265b72db9d0015e8aac6,TCR,2024-06-11_13h26.17.905,LearnStrategy,2023.2.3,Linux x86_64,75.18796992,1,2,16,,,,,,,,6,11,,,,,,,,,,,7,4.028,0,,,,,,0.165740741,-0.389814815,1,0,0,4.0281,Peridotite_rect,15,0,15,0,1,
5d4b265b72db9d0015e8aac6,TCR,2024-06-11_13h26.17.905,LearnStrategy,2023.2.3,Linux x86_64,75.18796992,2,1,1,0.039814815,0.012962963,1,0,0,2.3222,rock_grid_rect_2,2,08,-1,-1,2.322,-0.062962963,-0.266666667,1,0,0,6.1746,Basalt_rect,2,6.175,1,0,0,0,0,1,,,,,,,,,,,,,
5d4b265b72db9d0015e8aac6,TCR,2024-06-11_13h26.17.905,LearnStrategy,2023.2.3,Linux x86_64,75.18796992,2,1,2,-0.027777778,-0.002777778,1,0,0,0.573,rock_grid_rect_2,7,15,-1,-1,0.573,0.15462963,-0.241666667,1,0,0,3.069,Diorite_rect,3,3.069,0,1,0,1,0,1,,,,,,,,,,,,,
5d4b265b72db9d0015e8aac6,TCR,2024-06-11_13h26.17.905,LearnStrategy,2023.2.3,Linux x86_64,75.18796992,2,1,3,0.02037037,-0.002777778,1,0,0,0.5478,rock_grid_rect_2,2,04,-1,-1,0.548,-0.100925926,-0.394444444,1,0,0,1.8521,Pegmatite_rect,6,1.852,0,2,0,2,0,1,,,,,,,,,,,,,
5d4b265b72db9d0015e8aac6,TCR,2024-06-11_13h26.17.905,LearnStrategy,2023.2.3,Linux x86_64,75.18796992,2,1,4,0.040740741,0.006481481,1,0,0,0.6127,rock_grid_rect_2,4,15,-1,-1,0.613,0.407407407,-0.240740741,1,0,0,2.0687,Gabbro_rect,4,2.069,1,3,0,3,0,1,,,,,,,,,,,,,
5d4b265b72db9d0015e8aac6,TCR,2024-06-11_13h26.17.905,LearnStrategy,2023.2.3,Linux x86_64,75.18796992,2,1,5,0.093518519,-0.018518519,1,0,0,0.5488,rock_grid_rect_2,6,15,-1,-1,0.549,0.112037037,-0.416666667,1,0,0,2.279,Peridotite_rect,7,2.279,0,4,0,4,0,1,,,,,,,,,,,,,
5d4b265b72db9d0015e8aac6,TCR,2024-06-11_13h26.17.905,LearnStrategy,2023.2.3,Linux x86_64,75.18796992,2,1,6,0.097222222,-0.003703704,1,0,0,0.5074,rock_grid_rect_2,7,05,-1,-1,0.507,0.158333333,-0.247222222,1,0,0,1.9984,Diorite_rect,3,1.998,0,5,0,5,0,1,,,,,,,,,,,,,
5d4b265b72db9d0015e8aac6,TCR,2024-06-11_13h26.17.905,LearnStrategy,2023.2.3,Linux x86_64,75.18796992,2,1,7,0.064814815,0.005555556,1,0,0,0.4561,rock_grid_rect_2,1,05,-1,-1,0.456,-0.346296296,-0.260185185,1,0,0,1.5864,Andesite_rect,1,1.586,1,6,0,6,0,1,,,,,,,,,,,,,
5d4b265b72db9d0015e8aac6,TCR,2024-06-11_13h26.17.905,LearnStrategy,2023.2.3,Linux x86_64,75.18796992,2,1,8,0.039814815,-0.02037037,1,0,0,0.5344,rock_grid_rect_2,1,01,-1,-1,0.534,-0.12037037,-0.253703704,1,0,0,1.6245,Basalt_rect,2,1.624,0,7,0,7,0,1,,,,,,,,,,,,,
5d4b265b72db9d0015e8aac6,TCR,2024-06-11_13h26.17.905,LearnStrategy,2023.2.3,Linux x86_64,75.18796992,2,1,9,-0.047222222,0.011111111,1,0,0,0.5332,rock_grid_rect_2,4,15,-1,-1,0.533,-0.331481481,-0.24537037,1,0,0,1.602,Andesite_rect,1,1.602,0,8,0,8,0,1,,,,,,,,,,,,,
5d4b265b72db9d0015e8aac6,TCR,2024-06-11_13h26.17.905,LearnStrategy,2023.2.3,Linux x86_64,75.18796992,2,1,10,0.023148148,-0.012962963,1,0,0,0.7574,rock_grid_rect_2,4,09,-1,-1,0.757,0.113888889,-0.261111111,1,0,0,1.7483,Diorite_rect,3,1.748,0,9,0,9,0,1,,,,,,,,,,,,,
5d4b265b72db9d0015e8aac6,TCR,2024-06-11_13h26.17.905,LearnStrategy,2023.2.3,Linux x86_64,75.18796992,2,1,11,0.028703704,-0.019444444,1,0,0,0.8143,rock_grid_rect_2,3,12,-1,-1,0.814,0.130555556,-0.391666667,1,0,0,1.7989,Peridotite_rect,7,1.799,0,10,0,10,0,1,,,,,,,,,,,,,
5d4b265b72db9d0015e8aac6,TCR,2024-06-11_13h26.17.905,LearnStrategy,2023.2.3,Linux x86_64,75.18796992,2,1,12,0.066666667,0.000925926,1,0,0,1.0412,rock_grid_rect_2,1,14,-1,-1,1.041,0.046296296,-0.412037037,1,0,0,2.146,Peridotite_rect,7,2.146,0,11,0,11,0,1,,,,,,,,,,,,,
5d4b265b72db9d0015e8aac6,TCR,2024-06-11_13h26.17.905,LearnStrategy,2023.2.3,Linux x86_64,75.18796992,2,1,13,0.027777778,-0.001851852,1,0,0,0.4562,rock_grid_rect_2,3,11,-1,-1,0.456,-0.07037037,-0.405555556,1,0,0,2.0526,Pegmatite_rect,6,2.053,0,12,0,12,0,1,,,,,,,,,,,,,
5d4b265b72db9d0015e8aac6,TCR,2024-06-11_13h26.17.905,LearnStrategy,2023.2.3,Linux x86_64,75.18796992,2,1,14,0.047222222,0.013888889,1,0,0,0.4676,rock_grid_rect_2,6,05,-1,-1,0.468,-0.114814815,-0.231481481,1,0,0,2.0785,Basalt_rect,2,2.079,0,13,0,13,0,1,,,,,,,,,,,,,
5d4b265b72db9d0015e8aac6,TCR,2024-06-11_13h26.17.905,LearnStrategy,2023.2.3,Linux x86_64,75.18796992,2,1,15,0.021296296,-0.018518519,1,0,0,0.5235,rock_grid_rect_2,6,07,-1,-1,0.524,-0.087962963,-0.414814815,1,0,0,1.7161,Pegmatite_rect,6,1.716,1,14,0,14,0,1,,,,,,,,,,,,,
5d4b265b72db9d0015e8aac6,TCR,2024-06-11_13h26.17.905,LearnStrategy,2023.2.3,Linux x86_64,75.18796992,2,1,16,0.018518519,0.00462963,1,0,0,0.4676,rock_grid_rect_2,2,16,-1,-1,0.468,-0.103703704,-0.244444444,1,0,0,2.2409,Basalt_rect,2,2.241,1,15,0,15,0,1,,,,,,,,,,,,,
5d4b265b72db9d0015e8aac6,TCR,2024-06-11_13h26.17.905,LearnStrategy,2023.2.3,Linux x86_64,75.18796992,2,2,1,,,,,,,,4,12,,,,,,,,,,,2,2.912,0,,,,,,-0.062037037,-0.24537037,1,0,0,2.9123,Basalt_rect,0,0,0,0,1,
5d4b265b72db9d0015e8aac6,TCR,2024-06-11_13h26.17.905,LearnStrategy,2023.2.3,Linux x86_64,75.18796992,2,2,2,,,,,,,,7,14,,,,,,,,,,,3,5.6,0,,,,,,0.135185185,-0.243518519,1,0,0,5.5995,Diorite_rect,1,0,1,0,1,
5d4b265b72db9d0015e8aac6,TCR,2024-06-11_13h26.17.905,LearnStrategy,2023.2.3,Linux x86_64,75.18796992,2,2,3,,,,,,,,5,05,,,,,,,,,,,5,4.116,1,,,,,,-0.378703704,-0.388888889,1,0,0,4.1159,Obsidian_rect,2,0,2,0,1,
5d4b265b72db9d0015e8aac6,TCR,2024-06-11_13h26.17.905,LearnStrategy,2023.2.3,Linux x86_64,75.18796992,2,2,4,,,,,,,,8,10,,,,,,,,,,,8,3.428,1,,,,,,0.412962963,-0.401851852,1,0,0,3.4279,Pumice_rect,3,0,3,0,1,
5d4b265b72db9d0015e8aac6,TCR,2024-06-11_13h26.17.905,LearnStrategy,2023.2.3,Linux x86_64,75.18796992,2,2,5,,,,,,,,1,11,,,,,,,,,,,1,1.811,1,,,,,,-0.393518519,-0.247222222,1,0,0,1.811,Andesite_rect,4,0,4,0,1,
5d4b265b72db9d0015e8aac6,TCR,2024-06-11_13h26.17.905,LearnStrategy,2023.2.3,Linux x86_64,75.18796992,2,2,6,,,,,,,,2,10,,,,,,,,,,,3,1.738,0,,,,,,0.084259259,-0.261111111,1,0,0,1.7384,Diorite_rect,5,0,5,0,1,
5d4b265b72db9d0015e8aac6,TCR,2024-06-11_13h26.17.905,LearnStrategy,2023.2.3,Linux x86_64,75.18796992,2,2,7,,,,,,,,3,06,,,,,,,,,,,8,1.097,0,,,,,,0.388888889,-0.40462963,1,0,0,1.0969,Pumice_rect,6,0,6,0,1,
5d4b265b72db9d0015e8aac6,TCR,2024-06-11_13h26.17.905,LearnStrategy,2023.2.3,Linux x86_64,75.18796992,2,2,8,,,,,,,,4,08,,,,,,,,,,,8,2.403,0,,,,,,0.367592593,-0.396296296,1,0,0,2.4032,Pumice_rect,7,0,7,0,1,
5d4b265b72db9d0015e8aac6,TCR,2024-06-11_13h26.17.905,LearnStrategy,2023.2.3,Linux x86_64,75.18796992,2,2,9,,,,,,,,5,16,,,,,,,,,,,5,0.926,1,,,,,,-0.414814815,-0.384259259,1,0,0,0.9258,Obsidian_rect,8,0,8,0,1,
5d4b265b72db9d0015e8aac6,TCR,2024-06-11_13h26.17.905,LearnStrategy,2023.2.3,Linux x86_64,75.18796992,2,2,10,,,,,,,,7,08,,,,,,,,,,,3,1.766,0,,,,,,0.144444444,-0.239814815,1,0,0,1.7659,Diorite_rect,9,0,9,0,1,
5d4b265b72db9d0015e8aac6,TCR,2024-06-11_13h26.17.905,LearnStrategy,2023.2.3,Linux x86_64,75.18796992,2,2,11,,,,,,,,2,14,,,,,,,,,,,6,2.643,0,,,,,,-0.096296296,-0.405555556,1,0,0,2.6432,Pegmatite_rect,10,0,10,0,1,
5d4b265b72db9d0015e8aac6,TCR,2024-06-11_13h26.17.905,LearnStrategy,2023.2.3,Linux x86_64,75.18796992,2,2,12,,,,,,,,6,08,,,,,,,,,,,3,1.521,0,,,,,,0.151851852,-0.241666667,1,0,0,1.5207,Diorite_rect,11,0,11,0,1,
5d4b265b72db9d0015e8aac6,TCR,2024-06-11_13h26.17.905,LearnStrategy,2023.2.3,Linux x86_64,75.18796992,2,2,13,,,,,,,,8,05,,,,,,,,,,,8,0.817,1,,,,,,0.411111111,-0.397222222,1,0,0,0.8166,Pumice_rect,12,0,12,0,1,
5d4b265b72db9d0015e8aac6,TCR,2024-06-11_13h26.17.905,LearnStrategy,2023.2.3,Linux x86_64,75.18796992,2,2,14,,,,,,,,1,04,,,,,,,,,,,4,1.164,0,,,,,,0.418518519,-0.267592593,1,0,0,1.1642,Gabbro_rect,13,0,13,0,1,
5d4b265b72db9d0015e8aac6,TCR,2024-06-11_13h26.17.905,LearnStrategy,2023.2.3,Linux x86_64,75.18796992,2,2,15,,,,,,,,6,16,,,,,,,,,,,2,1.713,0,,,,,,-0.100925926,-0.25462963,1,0,0,1.7128,Basalt_rect,14,0,14,0,1,
5d4b265b72db9d0015e8aac6,TCR,2024-06-11_13h26.17.905,LearnStrategy,2023.2.3,Linux x86_64,75.18796992,2,2,16,,,,,,,,3,09,,,,,,,,,,,6,2.231,0,,,,,,-0.096296296,-0.418518519,1,0,0,2.2311,Pegmatite_rect,15,0,15,0,1,
5d4b265b72db9d0015e8aac6,TCR,2024-06-11_13h26.17.905,LearnStrategy,2023.2.3,Linux x86_64,75.18796992,3,1,1,0.011111111,0.002777778,1,0,0,1.7783,rock_grid_rect_2,3,16,-1,-1,1.778,0.136111111,-0.244444444,1,0,0,1.8931,Diorite_rect,3,1.893,1,0,0,0,0,1,,,,,,,,,,,,,
5d4b265b72db9d0015e8aac6,TCR,2024-06-11_13h26.17.905,LearnStrategy,2023.2.3,Linux x86_64,75.18796992,3,1,2,0.059259259,-0.001851852,1,0,0,0.5077,rock_grid_rect_2,2,05,-1,-1,0.508,-0.337962963,-0.258333333,1,0,0,1.9351,Andesite_rect,1,1.935,0,1,0,1,0,1,,,,,,,,,,,,,
5d4b265b72db9d0015e8aac6,TCR,2024-06-11_13h26.17.905,LearnStrategy,2023.2.3,Linux x86_64,75.18796992,3,1,3,0.001851852,0,1,0,0,1.0842,rock_grid_rect_2,1,09,-1,-1,1.084,-0.056481481,-0.240740741,1,0,0,2.9621,Basalt_rect,2,2.962,0,2,0,2,0,1,,,,,,,,,,,,,
5d4b265b72db9d0015e8aac6,TCR,2024-06-11_13h26.17.905,LearnStrategy,2023.2.3,Linux x86_64,75.18796992,3,1,4,0.072222222,-0.009259259,1,0,0,0.4676,rock_grid_rect_2,4,01,-1,-1,0.468,-0.350925926,-0.237962963,1,0,0,0.9726,Andesite_rect,1,0.973,0,3,0,3,0,1,,,,,,,,,,,,,
5d4b265b72db9d0015e8aac6,TCR,2024-06-11_13h26.17.905,LearnStrategy,2023.2.3,Linux x86_64,75.18796992,3,1,5,0.056481481,-0.009259259,1,0,0,0.4863,rock_grid_rect_2,2,11,-1,-1,0.486,-0.071296296,-0.405555556,1,0,0,1.7043,Pegmatite_rect,6,1.704,0,4,0,4,0,1,,,,,,,,,,,,,
5d4b265b72db9d0015e8aac6,TCR,2024-06-11_13h26.17.905,LearnStrategy,2023.2.3,Linux x86_64,75.18796992,3,1,6,0.056481481,-0.001851852,1,0,0,0.7627,rock_grid_rect_2,4,03,-1,-1,0.763,-0.083333333,-0.239814815,1,0,0,2.3196,Basalt_rect,2,2.32,0,5,0,5,0,1,,,,,,,,,,,,,
5d4b265b72db9d0015e8aac6,TCR,2024-06-11_13h26.17.905,LearnStrategy,2023.2.3,Linux x86_64,75.18796992,3,1,7,0.087962963,-0.007407407,1,0,0,0.7066,rock_grid_rect_2,6,05,-1,-1,0.707,0.117592593,-0.405555556,1,0,0,1.9797,Peridotite_rect,7,1.98,0,6,0,6,0,1,,,,,,,,,,,,,
5d4b265b72db9d0015e8aac6,TCR,2024-06-11_13h26.17.905,LearnStrategy,2023.2.3,Linux x86_64,75.18796992,3,1,8,0.081481481,-0.008333333,1,0,0,0.8692,rock_grid_rect_2,2,04,-1,-1,0.869,-0.027777778,-0.262962963,1,0,0,1.5593,Basalt_rect,2,1.559,1,7,0,7,0,1,,,,,,,,,,,,,
5d4b265b72db9d0015e8aac6,TCR,2024-06-11_13h26.17.905,LearnStrategy,2023.2.3,Linux x86_64,75.18796992,3,1,9,0.061111111,-0.010185185,1,0,0,0.5263,rock_grid_rect_2,6,05,-1,-1,0.526,-0.062962963,-0.415740741,1,0,0,1.5328,Pegmatite_rect,6,1.533,1,8,0,8,0,1,,,,,,,,,,,,,
5d4b265b72db9d0015e8aac6,TCR,2024-06-11_13h26.17.905,LearnStrategy,2023.2.3,Linux x86_64,75.18796992,3,1,10,0.1,-0.007407407,1,0,0,0.6593,rock_grid_rect_2,8,15,-1,-1,0.659,0.130555556,-0.252777778,1,0,0,2.7334,Diorite_rect,3,2.733,0,9,0,9,0,1,,,,,,,,,,,,,
5d4b265b72db9d0015e8aac6,TCR,2024-06-11_13h26.17.905,LearnStrategy,2023.2.3,Linux x86_64,75.18796992,3,1,11,0.081481481,0.011111111,1,0,0,0.7127,rock_grid_rect_2,3,11,-1,-1,0.713,0.336111111,-0.40462963,1,0,0,1.2662,Pumice_rect,8,1.266,0,10,0,10,0,1,,,,,,,,,,,,,
5d4b265b72db9d0015e8aac6,TCR,2024-06-11_13h26.17.905,LearnStrategy,2023.2.3,Linux x86_64,75.18796992,3,1,12,0.05462963,-0.000925926,1,0,0,0.5534,rock_grid_rect_2,7,04,-1,-1,0.553,0.146296296,-0.255555556,1,0,0,1.8533,Diorite_rect,3,1.853,0,11,0,11,0,1,,,,,,,,,,,,,
5d4b265b72db9d0015e8aac6,TCR,2024-06-11_13h26.17.905,LearnStrategy,2023.2.3,Linux x86_64,75.18796992,3,1,13,0.025925926,-0.008333333,1,0,0,0.4789,rock_grid_rect_2,6,13,-1,-1,0.479,0.155555556,-0.40462963,1,0,0,1.7116,Peridotite_rect,7,1.712,0,12,0,12,0,1,,,,,,,,,,,,,
5d4b265b72db9d0015e8aac6,TCR,2024-06-11_13h26.17.905,LearnStrategy,2023.2.3,Linux x86_64,75.18796992,3,1,14,0.039814815,-0.014814815,1,0,0,0.4997,rock_grid_rect_2,4,15,-1,-1,0.5,0.413888889,-0.265740741,1,0,0,2.6667,Gabbro_rect,4,2.667,1,13,0,13,0,1,,,,,,,,,,,,,
5d4b265b72db9d0015e8aac6,TCR,2024-06-11_13h26.17.905,LearnStrategy,2023.2.3,Linux x86_64,75.18796992,3,1,15,0.032407407,0.011111111,1,0,0,0.5805,rock_grid_rect_2,3,10,-1,-1,0.581,-0.052777778,-0.263888889,1,0,0,2.3466,Basalt_rect,2,2.347,0,14,0,14,0,1,,,,,,,,,,,,,
5d4b265b72db9d0015e8aac6,TCR,2024-06-11_13h26.17.905,LearnStrategy,2023.2.3,Linux x86_64,75.18796992,3,1,16,0.100925926,-0.006481481,1,0,0,0.6871,rock_grid_rect_2,7,06,-1,-1,0.687,0.152777778,-0.412037037,1,0,0,2.1177,Peridotite_rect,7,2.118,1,15,0,15,0,1,,,,,,,,,,,,,
5d4b265b72db9d0015e8aac6,TCR,2024-06-11_13h26.17.905,LearnStrategy,2023.2.3,Linux x86_64,75.18796992,3,2,1,,,,,,,,7,02,,,,,,,,,,,7,1.446,1,,,,,,0.161111111,-0.400925926,1,0,0,1.4461,Peridotite_rect,0,0,0,0,1,
5d4b265b72db9d0015e8aac6,TCR,2024-06-11_13h26.17.905,LearnStrategy,2023.2.3,Linux x86_64,75.18796992,3,2,2,,,,,,,,7,13,,,,,,,,,,,7,2.674,1,,,,,,0.147222222,-0.414814815,1,0,0,2.6741,Peridotite_rect,1,0,1,0,1,
5d4b265b72db9d0015e8aac6,TCR,2024-06-11_13h26.17.905,LearnStrategy,2023.2.3,Linux x86_64,75.18796992,3,2,3,,,,,,,,5,08,,,,,,,,,,,5,0.923,1,,,,,,-0.340740741,-0.392592593,1,0,0,0.9226,Obsidian_rect,2,0,2,0,1,
5d4b265b72db9d0015e8aac6,TCR,2024-06-11_13h26.17.905,LearnStrategy,2023.2.3,Linux x86_64,75.18796992,3,2,4,,,,,,,,4,14,,,,,,,,,,,2,4.421,0,,,,,,-0.101851852,-0.266666667,1,0,0,4.4208,Basalt_rect,3,0,3,0,1,
5d4b265b72db9d0015e8aac6,TCR,2024-06-11_13h26.17.905,LearnStrategy,2023.2.3,Linux x86_64,75.18796992,3,2,5,,,,,,,,6,10,,,,,,,,,,,3,2.642,0,,,,,,0.149074074,-0.246296296,1,0,0,2.6416,Diorite_rect,4,0,4,0,1,
5d4b265b72db9d0015e8aac6,TCR,2024-06-11_13h26.17.905,LearnStrategy,2023.2.3,Linux x86_64,75.18796992,3,2,6,,,,,,,,8,02,,,,,,,,,,,8,1.181,1,,,,,,0.39537037,-0.393518519,1,0,0,1.1807,Pumice_rect,5,0,5,0,1,
5d4b265b72db9d0015e8aac6,TCR,2024-06-11_13h26.17.905,LearnStrategy,2023.2.3,Linux x86_64,75.18796992,3,2,7,,,,,,,,5,14,,,,,,,,,,,5,0.955,1,,,,,,-0.434259259,-0.412962963,1,0,0,0.9547,Obsidian_rect,6,0,6,0,1,
5d4b265b72db9d0015e8aac6,TCR,2024-06-11_13h26.17.905,LearnStrategy,2023.2.3,Linux x86_64,75.18796992,3,2,8,,,,,,,,3,07,,,,,,,,,,,7,3.288,0,,,,,,0.125,-0.402777778,1,0,0,3.2882,Peridotite_rect,7,0,7,0,1,
5d4b265b72db9d0015e8aac6,TCR,2024-06-11_13h26.17.905,LearnStrategy,2023.2.3,Linux x86_64,75.18796992,3,2,9,,,,,,,,4,05,,,,,,,,,,,4,1.036,1,,,,,,0.448148148,-0.238888889,1,0,0,1.036,Gabbro_rect,8,0,8,0,1,
5d4b265b72db9d0015e8aac6,TCR,2024-06-11_13h26.17.905,LearnStrategy,2023.2.3,Linux x86_64,75.18796992,3,2,10,,,,,,,,2,06,,,,,,,,,,,2,0.868,1,,,,,,-0.14537037,-0.237962963,1,0,0,0.8675,Basalt_rect,9,0,9,0,1,
5d4b265b72db9d0015e8aac6,TCR,2024-06-11_13h26.17.905,LearnStrategy,2023.2.3,Linux x86_64,75.18796992,3,2,11,,,,,,,,8,03,,,,,,,,,,,8,1.246,1,,,,,,0.401851852,-0.4,1,0,0,1.2463,Pumice_rect,10,0,10,0,1,
5d4b265b72db9d0015e8aac6,TCR,2024-06-11_13h26.17.905,LearnStrategy,2023.2.3,Linux x86_64,75.18796992,3,2,12,,,,,,,,2,09,,,,,,,,,,,2,1.06,1,,,,,,-0.041666667,-0.261111111,1,0,0,1.0601,Basalt_rect,11,0,11,0,1,
5d4b265b72db9d0015e8aac6,TCR,2024-06-11_13h26.17.905,LearnStrategy,2023.2.3,Linux x86_64,75.18796992,3,2,13,,,,,,,,1,06,,,,,,,,,,,1,1.16,1,,,,,,-0.386111111,-0.259259259,1,0,0,1.1605,Andesite_rect,12,0,12,0,1,
5d4b265b72db9d0015e8aac6,TCR,2024-06-11_13h26.17.905,LearnStrategy,2023.2.3,Linux x86_64,75.18796992,3,2,14,,,,,,,,1,02,,,,,,,,,,,1,1.888,1,,,,,,-0.339814815,-0.234259259,1,0,0,1.8881,Andesite_rect,13,0,13,0,1,
5d4b265b72db9d0015e8aac6,TCR,2024-06-11_13h26.17.905,LearnStrategy,2023.2.3,Linux x86_64,75.18796992,3,2,15,,,,,,,,6,03,,,,,,,,,,,7,0.954,0,,,,,,0.160185185,-0.407407407,1,0,0,0.9538,Peridotite_rect,14,0,14,0,1,
5d4b265b72db9d0015e8aac6,TCR,2024-06-11_13h26.17.905,LearnStrategy,2023.2.3,Linux x86_64,75.18796992,3,2,16,,,,,,,,3,13,,,,,,,,,,,3,1.154,1,,,,,,0.163888889,-0.237962963,1,0,0,1.154,Diorite_rect,15,0,15,0,1,
5d4b265b72db9d0015e8aac6,TCR,2024-06-11_13h26.17.905,LearnStrategy,2023.2.3,Linux x86_64,75.18796992,4,1,1,0.025,-0.000925926,1,0,0,0.7681,rock_grid_rect_2,2,16,-1,-1,0.768,-0.122222222,-0.251851852,1,0,0,1.1857,Basalt_rect,2,1.186,1,0,0,0,0,1,,,,,,,,,,,,,
5d4b265b72db9d0015e8aac6,TCR,2024-06-11_13h26.17.905,LearnStrategy,2023.2.3,Linux x86_64,75.18796992,4,1,2,0.017592593,-0.007407407,1,0,0,0.6941,rock_grid_rect_2,6,09,-1,-1,0.694,0.116666667,-0.396296296,1,0,0,1.3063,Peridotite_rect,7,1.306,0,1,0,1,0,1,,,,,,,,,,,,,
5d4b265b72db9d0015e8aac6,TCR,2024-06-11_13h26.17.905,LearnStrategy,2023.2.3,Linux x86_64,75.18796992,4,1,3,0.037962963,0.005555556,1,0,0,0.4478,rock_grid_rect_2,3,12,-1,-1,0.448,0.144444444,-0.256481481,1,0,0,1.7326,Diorite_rect,3,1.733,1,2,0,2,0,1,,,,,,,,,,,,,
5d4b265b72db9d0015e8aac6,TCR,2024-06-11_13h26.17.905,LearnStrategy,2023.2.3,Linux x86_64,75.18796992,4,1,4,0.099074074,-0.008333333,1,0,0,0.4942,rock_grid_rect_2,7,05,-1,-1,0.494,0.127777778,-0.391666667,1,0,0,1.0391,Peridotite_rect,7,1.039,1,3,0,3,0,1,,,,,,,,,,,,,
5d4b265b72db9d0015e8aac6,TCR,2024-06-11_13h26.17.905,LearnStrategy,2023.2.3,Linux x86_64,75.18796992,4,1,5,0.071296296,-0.00462963,1,0,0,0.708,rock_grid_rect_2,3,10,-1,-1,0.708,-0.110185185,-0.418518519,1,0,0,1.9462,Pegmatite_rect,6,1.946,0,4,0,4,0,1,,,,,,,,,,,,,
5d4b265b72db9d0015e8aac6,TCR,2024-06-11_13h26.17.905,LearnStrategy,2023.2.3,Linux x86_64,75.18796992,4,1,6,0.074074074,-0.015740741,1,0,0,0.401,rock_grid_rect_2,7,07,-1,-1,0.401,0.1,-0.4,1,0,0,1.1069,Peridotite_rect,7,1.107,1,5,0,5,0,1,,,,,,,,,,,,,
5d4b265b72db9d0015e8aac6,TCR,2024-06-11_13h26.17.905,LearnStrategy,2023.2.3,Linux x86_64,75.18796992,4,1,7,0.097222222,0.021296296,1,0,0,0.4743,rock_grid_rect_2,4,10,-1,-1,0.474,-0.048148148,-0.4,1,0,0,2.1328,Pegmatite_rect,6,2.133,0,6,0,6,0,1,,,,,,,,,,,,,
5d4b265b72db9d0015e8aac6,TCR,2024-06-11_13h26.17.905,LearnStrategy,2023.2.3,Linux x86_64,75.18796992,4,1,8,0.17037037,-0.014814815,1,0,0,0.4343,rock_grid_rect_2,4,11,-1,-1,0.434,-0.105555556,-0.237037037,1,0,0,1.1585,Basalt_rect,2,1.159,0,7,0,7,0,1,,,,,,,,,,,,,
5d4b265b72db9d0015e8aac6,TCR,2024-06-11_13h26.17.905,LearnStrategy,2023.2.3,Linux x86_64,75.18796992,4,1,9,0.016666667,0.009259259,1,0,0,0.4345,rock_grid_rect_2,6,05,-1,-1,0.435,0.128703704,-0.394444444,1,0,0,1.5994,Peridotite_rect,7,1.599,0,8,0,8,0,1,,,,,,,,,,,,,
5d4b265b72db9d0015e8aac6,TCR,2024-06-11_13h26.17.905,LearnStrategy,2023.2.3,Linux x86_64,75.18796992,4,1,10,0.068518519,-0.012962963,1,0,0,0.4413,rock_grid_rect_2,2,08,-1,-1,0.441,-0.092592593,-0.244444444,1,0,0,0.8923,Basalt_rect,2,0.892,1,9,0,9,0,1,,,,,,,,,,,,,
5d4b265b72db9d0015e8aac6,TCR,2024-06-11_13h26.17.905,LearnStrategy,2023.2.3,Linux x86_64,75.18796992,4,1,11,0.032407407,-0.009259259,1,0,0,0.7011,rock_grid_rect_2,8,04,-1,-1,0.701,0.387962963,-0.421296296,1,0,0,0.9099,Pumice_rect,8,0.91,1,10,0,10,0,1,,,,,,,,,,,,,
5d4b265b72db9d0015e8aac6,TCR,2024-06-11_13h26.17.905,LearnStrategy,2023.2.3,Linux x86_64,75.18796992,4,1,12,0.07037037,-0.003703704,1,0,0,0.8193,rock_grid_rect_2,1,09,-1,-1,0.819,-0.344444444,-0.27037037,1,0,0,2.7202,Andesite_rect,1,2.72,1,11,0,11,0,1,,,,,,,,,,,,,
5d4b265b72db9d0015e8aac6,TCR,2024-06-11_13h26.17.905,LearnStrategy,2023.2.3,Linux x86_64,75.18796992,4,1,13,0.099074074,-0.006481481,1,0,0,1.049,rock_grid_rect_2,6,09,-1,-1,1.049,0.126851852,-0.390740741,1,0,0,1.3324,Peridotite_rect,7,1.332,0,12,0,12,0,1,,,,,,,,,,,,,
5d4b265b72db9d0015e8aac6,TCR,2024-06-11_13h26.17.905,LearnStrategy,2023.2.3,Linux x86_64,75.18796992,4,1,14,0.07962963,0.019444444,1,0,0,0.4753,rock_grid_rect_2,4,03,-1,-1,0.475,0.131481481,-0.269444444,1,0,0,2.8934,Diorite_rect,3,2.893,0,13,0,13,0,1,,,,,,,,,,,,,
5d4b265b72db9d0015e8aac6,TCR,2024-06-11_13h26.17.905,LearnStrategy,2023.2.3,Linux x86_64,75.18796992,4,1,15,0.07962963,0,1,0,0,0.6048,rock_grid_rect_2,6,09,-1,-1,0.605,-0.099074074,-0.40462963,1,0,0,1.7677,Pegmatite_rect,6,1.768,1,14,0,14,0,1,,,,,,,,,,,,,
5d4b265b72db9d0015e8aac6,TCR,2024-06-11_13h26.17.905,LearnStrategy,2023.2.3,Linux x86_64,75.18796992,4,1,16,0.049074074,-0.009259259,1,0,0,0.5209,rock_grid_rect_2,3,12,-1,-1,0.521,0.405555556,-0.413888889,1,0,0,2.8262,Pumice_rect,8,2.826,0,15,0,15,0,1,,,,,,,,,,,,,
5d4b265b72db9d0015e8aac6,TCR,2024-06-11_13h26.17.905,LearnStrategy,2023.2.3,Linux x86_64,75.18796992,4,2,1,,,,,,,,3,08,,,,,,,,,,,3,1.827,1,,,,,,0.168518519,-0.248148148,1,0,0,1.8268,Diorite_rect,0,0,0,0,1,
5d4b265b72db9d0015e8aac6,TCR,2024-06-11_13h26.17.905,LearnStrategy,2023.2.3,Linux x86_64,75.18796992,4,2,2,,,,,,,,3,09,,,,,,,,,,,3,1.421,1,,,,,,0.158333333,-0.262037037,1,0,0,1.4211,Diorite_rect,1,0,1,0,1,
5d4b265b72db9d0015e8aac6,TCR,2024-06-11_13h26.17.905,LearnStrategy,2023.2.3,Linux x86_64,75.18796992,4,2,3,,,,,,,,1,07,,,,,,,,,,,1,1.341,1,,,,,,-0.337037037,-0.261111111,1,0,0,1.3406,Andesite_rect,2,0,2,0,1,
5d4b265b72db9d0015e8aac6,TCR,2024-06-11_13h26.17.905,LearnStrategy,2023.2.3,Linux x86_64,75.18796992,4,2,4,,,,,,,,1,16,,,,,,,,,,,1,1.133,1,,,,,,-0.383333333,-0.247222222,1,0,0,1.1334,Andesite_rect,3,0,3,0,1,
5d4b265b72db9d0015e8aac6,TCR,2024-06-11_13h26.17.905,LearnStrategy,2023.2.3,Linux x86_64,75.18796992,4,2,5,,,,,,,,7,16,,,,,,,,,,,7,2.009,1,,,,,,0.123148148,-0.386111111,1,0,0,2.0086,Peridotite_rect,4,0,4,0,1,
5d4b265b72db9d0015e8aac6,TCR,2024-06-11_13h26.17.905,LearnStrategy,2023.2.3,Linux x86_64,75.18796992,4,2,6,,,,,,,,2,06,,,,,,,,,,,2,1.003,1,,,,,,-0.065740741,-0.235185185,1,0,0,1.0029,Basalt_rect,5,0,5,0,1,
5d4b265b72db9d0015e8aac6,TCR,2024-06-11_13h26.17.905,LearnStrategy,2023.2.3,Linux x86_64,75.18796992,4,2,7,,,,,,,,5,02,,,,,,,,,,,5,0.867,1,,,,,,-0.34537037,-0.407407407,1,0,0,0.8669,Obsidian_rect,6,0,6,0,1,
5d4b265b72db9d0015e8aac6,TCR,2024-06-11_13h26.17.905,LearnStrategy,2023.2.3,Linux x86_64,75.18796992,4,2,8,,,,,,,,2,12,,,,,,,,,,,3,2.026,0,,,,,,0.097222222,-0.253703704,1,0,0,2.026,Diorite_rect,7,0,7,0,1,
5d4b265b72db9d0015e8aac6,TCR,2024-06-11_13h26.17.905,LearnStrategy,2023.2.3,Linux x86_64,75.18796992,4,2,9,,,,,,,,5,09,,,,,,,,,,,5,0.901,1,,,,,,-0.384259259,-0.396296296,1,0,0,0.9015,Obsidian_rect,8,0,8,0,1,
5d4b265b72db9d0015e8aac6,TCR,2024-06-11_13h26.17.905,LearnStrategy,2023.2.3,Linux x86_64,75.18796992,4,2,10,,,,,,,,4,16,,,,,,,,,,,2,1.52,0,,,,,,-0.115740741,-0.249074074,1,0,0,1.5202,Basalt_rect,9,0,9,0,1,
5d4b265b72db9d0015e8aac6,TCR,2024-06-11_13h26.17.905,LearnStrategy,2023.2.3,Linux x86_64,75.18796992,4,2,11,,,,,,,,7,14,,,,,,,,,,,3,2.596,0,,,,,,0.109259259,-0.256481481,1,0,0,2.5955,Diorite_rect,10,0,10,0,1,
5d4b265b72db9d0015e8aac6,TCR,2024-06-11_13h26.17.905,LearnStrategy,2023.2.3,Linux x86_64,75.18796992,4,2,12,,,,,,,,8,03,,,,,,,,,,,8,1.316,1,,,,,,0.376851852,-0.409259259,1,0,0,1.316,Pumice_rect,11,0,11,0,1,
5d4b265b72db9d0015e8aac6,TCR,2024-06-11_13h26.17.905,LearnStrategy,2023.2.3,Linux x86_64,75.18796992,4,2,13,,,,,,,,8,02,,,,,,,,,,,8,1.328,1,,,,,,0.371296296,-0.405555556,1,0,0,1.3284,Pumice_rect,12,0,12,0,1,
5d4b265b72db9d0015e8aac6,TCR,2024-06-11_13h26.17.905,LearnStrategy,2023.2.3,Linux x86_64,75.18796992,4,2,14,,,,,,,,6,10,,,,,,,,,,,6,2.908,1,,,,,,-0.072222222,-0.405555556,1,0,0,2.9079,Pegmatite_rect,13,0,13,0,1,
5d4b265b72db9d0015e8aac6,TCR,2024-06-11_13h26.17.905,LearnStrategy,2023.2.3,Linux x86_64,75.18796992,4,2,15,,,,,,,,6,11,,,,,,,,,,,7,1.555,0,,,,,,0.096296296,-0.396296296,1,0,0,1.5551,Peridotite_rect,14,0,14,0,1,
5d4b265b72db9d0015e8aac6,TCR,2024-06-11_13h26.17.905,LearnStrategy,2023.2.3,Linux x86_64,75.18796992,4,2,16,,,,,,,,4,14,,,,,,,,,,,4,1.893,1,,,,,,0.47037037,-0.271296296,1,0,0,1.8929,Gabbro_rect,15,0,15,0,1,
5d4b265b72db9d0015e8aac6,TCR,2024-06-11_13h26.17.905,LearnStrategy,2023.2.3,Linux x86_64,75.18796992,5,1,1,0.118518519,-0.014814815,1,0,0,0.7323,rock_grid_rect_2,6,06,-1,-1,0.732,0.144444444,-0.258333333,1,0,0,4.4904,Diorite_rect,3,4.49,0,0,0,0,0,1,,,,,,,,,,,,,
5d4b265b72db9d0015e8aac6,TCR,2024-06-11_13h26.17.905,LearnStrategy,2023.2.3,Linux x86_64,75.18796992,5,1,2,0.052777778,-0.015740741,1,0,0,0.503,rock_grid_rect_2,2,16,-1,-1,0.503,-0.075,-0.267592593,1,0,0,0.8019,Basalt_rect,2,0.802,1,1,0,1,0,1,,,,,,,,,,,,,
5d4b265b72db9d0015e8aac6,TCR,2024-06-11_13h26.17.905,LearnStrategy,2023.2.3,Linux x86_64,75.18796992,5,1,3,0.107407407,-0.018518519,1,0,0,0.5191,rock_grid_rect_2,6,15,-1,-1,0.519,-0.087037037,-0.407407407,1,0,0,2.3575,Pegmatite_rect,6,2.358,1,2,0,2,0,1,,,,,,,,,,,,,
5d4b265b72db9d0015e8aac6,TCR,2024-06-11_13h26.17.905,LearnStrategy,2023.2.3,Linux x86_64,75.18796992,5,1,4,0.047222222,-0.017592593,1,0,0,0.4275,rock_grid_rect_2,1,14,-1,-1,0.428,-0.358333333,-0.237962963,1,0,0,2.8413,Andesite_rect,1,2.841,1,3,0,3,0,1,,,,,,,,,,,,,
5d4b265b72db9d0015e8aac6,TCR,2024-06-11_13h26.17.905,LearnStrategy,2023.2.3,Linux x86_64,75.18796992,5,1,5,-0.005555556,-0.02037037,1,0,0,0.6498,rock_grid_rect_2,2,04,-1,-1,0.65,-0.106481481,-0.258333333,1,0,0,1.1329,Basalt_rect,2,1.133,1,4,0,4,0,1,,,,,,,,,,,,,
5d4b265b72db9d0015e8aac6,TCR,2024-06-11_13h26.17.905,LearnStrategy,2023.2.3,Linux x86_64,75.18796992,5,1,6,0.040740741,0.003703704,1,0,0,0.6898,rock_grid_rect_2,2,11,-1,-1,0.69,-0.308333333,-0.237037037,1,0,0,1.6536,Andesite_rect,1,1.654,0,5,0,5,0,1,,,,,,,,,,,,,
5d4b265b72db9d0015e8aac6,TCR,2024-06-11_13h26.17.905,LearnStrategy,2023.2.3,Linux x86_64,75.18796992,5,1,7,0.016666667,-0.009259259,1,0,0,0.4098,rock_grid_rect_2,4,10,-1,-1,0.41,0.17037037,-0.247222222,1,0,0,1.7322,Diorite_rect,3,1.732,0,6,0,6,0,1,,,,,,,,,,,,,
5d4b265b72db9d0015e8aac6,TCR,2024-06-11_13h26.17.905,LearnStrategy,2023.2.3,Linux x86_64,75.18796992,5,1,8,0.038888889,-0.023148148,1,0,0,0.4232,rock_grid_rect_2,6,15,-1,-1,0.423,-0.069444444,-0.399074074,1,0,0,1.2392,Pegmatite_rect,6,1.239,1,7,0,7,0,1,,,,,,,,,,,,,
5d4b265b72db9d0015e8aac6,TCR,2024-06-11_13h26.17.905,LearnStrategy,2023.2.3,Linux x86_64,75.18796992,5,1,9,0.062962963,-0.013888889,1,0,0,0.6809,rock_grid_rect_2,4,11,-1,-1,0.681,-0.039814815,-0.256481481,1,0,0,2.9867,Basalt_rect,2,2.987,0,8,0,8,0,1,,,,,,,,,,,,,
5d4b265b72db9d0015e8aac6,TCR,2024-06-11_13h26.17.905,LearnStrategy,2023.2.3,Linux x86_64,75.18796992,5,1,10,0.100925926,-0.018518519,1,0,0,0.6676,rock_grid_rect_2,4,10,-1,-1,0.668,0.47037037,-0.265740741,1,0,0,1.3435,Gabbro_rect,4,1.344,1,9,0,9,0,1,,,,,,,,,,,,,
5d4b265b72db9d0015e8aac6,TCR,2024-06-11_13h26.17.905,LearnStrategy,2023.2.3,Linux x86_64,75.18796992,5,1,11,0.094444444,-0.025,1,0,0,0.5074,rock_grid_rect_2,1,09,-1,-1,0.507,-0.367592593,-0.259259259,1,0,0,1.3864,Andesite_rect,1,1.386,1,10,0,10,0,1,,,,,,,,,,,,,
5d4b265b72db9d0015e8aac6,TCR,2024-06-11_13h26.17.905,LearnStrategy,2023.2.3,Linux x86_64,75.18796992,5,1,12,0.018518519,-0.007407407,1,0,0,0.5075,rock_grid_rect_2,3,11,-1,-1,0.507,0.140740741,-0.253703704,1,0,0,2.6955,Diorite_rect,3,2.696,1,11,0,11,0,1,,,,,,,,,,,,,
5d4b265b72db9d0015e8aac6,TCR,2024-06-11_13h26.17.905,LearnStrategy,2023.2.3,Linux x86_64,75.18796992,5,1,13,0.084259259,0.003703704,1,0,0,0.8401,rock_grid_rect_2,7,05,-1,-1,0.84,0.124074074,-0.419444444,1,0,0,1.038,Peridotite_rect,7,1.038,1,12,0,12,0,1,,,,,,,,,,,,,
5d4b265b72db9d0015e8aac6,TCR,2024-06-11_13h26.17.905,LearnStrategy,2023.2.3,Linux x86_64,75.18796992,5,1,14,0.094444444,0.00462963,1,0,0,0.4664,rock_grid_rect_2,3,12,-1,-1,0.466,0.144444444,-0.239814815,1,0,0,3.1587,Diorite_rect,3,3.159,1,13,0,13,0,1,,,,,,,,,,,,,
5d4b265b72db9d0015e8aac6,TCR,2024-06-11_13h26.17.905,LearnStrategy,2023.2.3,Linux x86_64,75.18796992,5,1,15,0.112962963,-0.016666667,1,0,0,0.6127,rock_grid_rect_2,7,06,-1,-1,0.613,0.123148148,-0.42037037,1,0,0,1.0916,Peridotite_rect,7,1.092,1,14,0,14,0,1,,,,,,,,,,,,,
5d4b265b72db9d0015e8aac6,TCR,2024-06-11_13h26.17.905,LearnStrategy,2023.2.3,Linux x86_64,75.18796992,5,1,16,0.112962963,0.011111111,1,0,0,0.4925,rock_grid_rect_2,8,15,-1,-1,0.492,0.434259259,-0.381481481,1,0,0,0.7578,Pumice_rect,8,0.758,1,15,0,15,0,1,,,,,,,,,,,,,
5d4b265b72db9d0015e8aac6,TCR,2024-06-11_13h26.17.905,LearnStrategy,2023.2.3,Linux x86_64,75.18796992,5,2,1,,,,,,,,5,14,,,,,,,,,,,5,1.981,1,,,,,,-0.343518519,-0.407407407,1,0,0,1.9805,Obsidian_rect,0,0,0,0,1,
5d4b265b72db9d0015e8aac6,TCR,2024-06-11_13h26.17.905,LearnStrategy,2023.2.3,Linux x86_64,75.18796992,5,2,2,,,,,,,,8,05,,,,,,,,,,,8,1.289,1,,,,,,0.371296296,-0.398148148,1,0,0,1.2894,Pumice_rect,1,0,1,0,1,
5d4b265b72db9d0015e8aac6,TCR,2024-06-11_13h26.17.905,LearnStrategy,2023.2.3,Linux x86_64,75.18796992,5,2,3,,,,,,,,1,02,,,,,,,,,,,1,1.263,1,,,,,,-0.39537037,-0.268518519,1,0,0,1.2628,Andesite_rect,2,0,2,0,1,
5d4b265b72db9d0015e8aac6,TCR,2024-06-11_13h26.17.905,LearnStrategy,2023.2.3,Linux x86_64,75.18796992,5,2,4,,,,,,,,6,12,,,,,,,,,,,7,2.503,0,,,,,,0.125925926,-0.401851852,1,0,0,2.5033,Peridotite_rect,3,0,3,0,1,
5d4b265b72db9d0015e8aac6,TCR,2024-06-11_13h26.17.905,LearnStrategy,2023.2.3,Linux x86_64,75.18796992,5,2,5,,,,,,,,7,12,,,,,,,,,,,7,0.928,1,,,,,,0.176851852,-0.382407407,1,0,0,0.9279,Peridotite_rect,4,0,4,0,1,
5d4b265b72db9d0015e8aac6,TCR,2024-06-11_13h26.17.905,LearnStrategy,2023.2.3,Linux x86_64,75.18796992,5,2,6,,,,,,,,7,02,,,,,,,,,,,7,0.998,1,,,,,,0.150925926,-0.415740741,1,0,0,0.9978,Peridotite_rect,5,0,5,0,1,
5d4b265b72db9d0015e8aac6,TCR,2024-06-11_13h26.17.905,LearnStrategy,2023.2.3,Linux x86_64,75.18796992,5,2,7,,,,,,,,2,10,,,,,,,,,,,6,10.304,0,,,,,,-0.108333333,-0.414814815,1,0,0,10.3038,Pegmatite_rect,6,0,6,0,1,
5d4b265b72db9d0015e8aac6,TCR,2024-06-11_13h26.17.905,LearnStrategy,2023.2.3,Linux x86_64,75.18796992,5,2,8,,,,,,,,4,05,,,,,,,,,,,4,2.515,1,,,,,,0.500925926,-0.263888889,1,0,0,2.5153,Gabbro_rect,7,0,7,0,1,
5d4b265b72db9d0015e8aac6,TCR,2024-06-11_13h26.17.905,LearnStrategy,2023.2.3,Linux x86_64,75.18796992,5,2,9,,,,,,,,2,09,,,,,,,,,,,4,1.494,0,,,,,,0.423148148,-0.260185185,1,0,0,1.4941,Gabbro_rect,8,0,8,0,1,
5d4b265b72db9d0015e8aac6,TCR,2024-06-11_13h26.17.905,LearnStrategy,2023.2.3,Linux x86_64,75.18796992,5,2,10,,,,,,,,3,02,,,,,,,,,,,3,4.795,1,,,,,,0.164814815,-0.235185185,1,0,0,4.7955,Diorite_rect,9,0,9,0,1,
5d4b265b72db9d0015e8aac6,TCR,2024-06-11_13h26.17.905,LearnStrategy,2023.2.3,Linux x86_64,75.18796992,5,2,11,,,,,,,,5,05,,,,,,,,,,,5,0.965,1,,,,,,-0.376851852,-0.391666667,1,0,0,0.9653,Obsidian_rect,10,0,10,0,1,
5d4b265b72db9d0015e8aac6,TCR,2024-06-11_13h26.17.905,LearnStrategy,2023.2.3,Linux x86_64,75.18796992,5,2,12,,,,,,,,1,06,,,,,,,,,,,1,1.811,1,,,,,,-0.408333333,-0.262037037,1,0,0,1.8115,Andesite_rect,11,0,11,0,1,
5d4b265b72db9d0015e8aac6,TCR,2024-06-11_13h26.17.905,LearnStrategy,2023.2.3,Linux x86_64,75.18796992,5,2,13,,,,,,,,8,14,,,,,,,,,,,8,0.864,1,,,,,,0.400925926,-0.397222222,1,0,0,0.8644,Pumice_rect,12,0,12,0,1,
5d4b265b72db9d0015e8aac6,TCR,2024-06-11_13h26.17.905,LearnStrategy,2023.2.3,Linux x86_64,75.18796992,5,2,14,,,,,,,,6,16,,,,,,,,,,,6,2.478,1,,,,,,-0.122222222,-0.407407407,1,0,0,2.4783,Pegmatite_rect,13,0,13,0,1,
5d4b265b72db9d0015e8aac6,TCR,2024-06-11_13h26.17.905,LearnStrategy,2023.2.3,Linux x86_64,75.18796992,5,2,15,,,,,,,,3,07,,,,,,,,,,,3,1.46,1,,,,,,0.124074074,-0.239814815,1,0,0,1.4601,Diorite_rect,14,0,14,0,1,
5d4b265b72db9d0015e8aac6,TCR,2024-06-11_13h26.17.905,LearnStrategy,2023.2.3,Linux x86_64,75.18796992,5,2,16,,,,,,,,4,12,,,,,,,,,,,2,2.292,0,,,,,,-0.069444444,-0.25462963,1,0,0,2.2924,Basalt_rect,15,0,15,0,1,
5d4b265b72db9d0015e8aac6,TCR,2024-06-11_13h26.17.905,LearnStrategy,2023.2.3,Linux x86_64,75.18796992,6,1,1,0.132407407,0.005555556,1,0,0,0.8088,rock_grid_rect_2,6,15,-1,-1,0.809,0.135185185,-0.249074074,1,0,0,4.2269,Diorite_rect,3,4.227,0,0,0,0,0,1,,,,,,,,,,,,,
5d4b265b72db9d0015e8aac6,TCR,2024-06-11_13h26.17.905,LearnStrategy,2023.2.3,Linux x86_64,75.18796992,6,1,2,0.034259259,-0.018518519,1,0,0,0.7699,rock_grid_rect_2,8,08,-1,-1,0.77,0.384259259,-0.391666667,1,0,0,1.1985,Pumice_rect,8,1.198,1,1,0,1,0,1,,,,,,,,,,,,,
5d4b265b72db9d0015e8aac6,TCR,2024-06-11_13h26.17.905,LearnStrategy,2023.2.3,Linux x86_64,75.18796992,6,1,3,0.066666667,-0.017592593,1,0,0,0.5073,rock_grid_rect_2,5,07,-1,-1,0.507,-0.372222222,-0.390740741,1,0,0,1.1892,Obsidian_rect,5,1.189,1,2,0,2,0,1,,,,,,,,,,,,,
5d4b265b72db9d0015e8aac6,TCR,2024-06-11_13h26.17.905,LearnStrategy,2023.2.3,Linux x86_64,75.18796992,6,1,4,0.086111111,-0.002777778,1,0,0,0.5068,rock_grid_rect_2,3,12,-1,-1,0.507,0.131481481,-0.263888889,1,0,0,2.945,Diorite_rect,3,2.945,1,3,0,3,0,1,,,,,,,,,,,,,
5d4b265b72db9d0015e8aac6,TCR,2024-06-11_13h26.17.905,LearnStrategy,2023.2.3,Linux x86_64,75.18796992,6,1,5,0.078703704,-0.010185185,1,0,0,0.4529,rock_grid_rect_2,6,13,-1,-1,0.453,0.076851852,-0.4,1,0,0,1.4923,Peridotite_rect,7,1.492,0,4,0,4,0,1,,,,,,,,,,,,,
5d4b265b72db9d0015e8aac6,TCR,2024-06-11_13h26.17.905,LearnStrategy,2023.2.3,Linux x86_64,75.18796992,6,1,6,0.071296296,-0.016666667,1,0,0,0.4531,rock_grid_rect_2,2,08,-1,-1,0.453,0.381481481,-0.255555556,1,0,0,4.1999,Gabbro_rect,4,4.2,0,5,0,5,0,1,,,,,,,,,,,,,
5d4b265b72db9d0015e8aac6,TCR,2024-06-11_13h26.17.905,LearnStrategy,2023.2.3,Linux x86_64,75.18796992,6,1,7,0.048148148,-0.024074074,1,0,0,0.426,rock_grid_rect_2,4,09,-1,-1,0.426,0.440740741,-0.261111111,1,0,0,2.7724,Gabbro_rect,4,2.772,1,6,0,6,0,1,,,,,,,,,,,,,
5d4b265b72db9d0015e8aac6,TCR,2024-06-11_13h26.17.905,LearnStrategy,2023.2.3,Linux x86_64,75.18796992,6,1,8,0.115740741,-0.021296296,1,0,0,0.6254,rock_grid_rect_2,7,05,-1,-1,0.625,0.151851852,-0.387037037,1,0,0,0.892,Peridotite_rect,7,0.892,1,7,0,7,0,1,,,,,,,,,,,,,
5d4b265b72db9d0015e8aac6,TCR,2024-06-11_13h26.17.905,LearnStrategy,2023.2.3,Linux x86_64,75.18796992,6,1,9,0.109259259,-0.002777778,1,0,0,0.4659,rock_grid_rect_2,2,11,-1,-1,0.466,0.407407407,-0.237962963,1,0,0,4.936,Gabbro_rect,4,4.936,0,8,0,8,0,1,,,,,,,,,,,,,
5d4b265b72db9d0015e8aac6,TCR,2024-06-11_13h26.17.905,LearnStrategy,2023.2.3,Linux x86_64,75.18796992,6,1,10,0.008333333,0.013888889,1,0,0,0.4522,rock_grid_rect_2,2,16,-1,-1,0.452,-0.115740741,-0.25462963,1,0,0,0.918,Basalt_rect,2,0.918,1,9,0,9,0,1,,,,,,,,,,,,,
5d4b265b72db9d0015e8aac6,TCR,2024-06-11_13h26.17.905,LearnStrategy,2023.2.3,Linux x86_64,75.18796992,6,1,11,0.05462963,-0.003703704,1,0,0,0.4926,rock_grid_rect_2,6,15,-1,-1,0.493,-0.098148148,-0.411111111,1,0,0,1.9984,Pegmatite_rect,6,1.998,1,10,0,10,0,1,,,,,,,,,,,,,
5d4b265b72db9d0015e8aac6,TCR,2024-06-11_13h26.17.905,LearnStrategy,2023.2.3,Linux x86_64,75.18796992,6,1,12,0.103703704,-0.007407407,1,0,0,0.7062,rock_grid_rect_2,4,03,-1,-1,0.706,0.464814815,-0.25,1,0,0,4.1197,Gabbro_rect,4,4.12,1,11,0,11,0,1,,,,,,,,,,,,,
5d4b265b72db9d0015e8aac6,TCR,2024-06-11_13h26.17.905,LearnStrategy,2023.2.3,Linux x86_64,75.18796992,6,1,13,0.052777778,-0.015740741,1,0,0,0.4796,rock_grid_rect_2,4,01,-1,-1,0.48,0.144444444,-0.264814815,1,0,0,6.64,Diorite_rect,3,6.64,0,12,0,12,0,1,,,,,,,,,,,,,
5d4b265b72db9d0015e8aac6,TCR,2024-06-11_13h26.17.905,LearnStrategy,2023.2.3,Linux x86_64,75.18796992,6,1,14,0.018518519,-0.007407407,1,0,0,0.4792,rock_grid_rect_2,7,15,-1,-1,0.479,0.203703704,-0.393518519,1,0,0,1.2228,Peridotite_rect,7,1.223,1,13,0,13,0,1,,,,,,,,,,,,,
5d4b265b72db9d0015e8aac6,TCR,2024-06-11_13h26.17.905,LearnStrategy,2023.2.3,Linux x86_64,75.18796992,6,1,15,0.069444444,0.010185185,1,0,0,0.4901,rock_grid_rect_2,2,11,-1,-1,0.49,0.398148148,-0.262962963,1,0,0,3.255,Gabbro_rect,4,3.255,0,14,0,14,0,1,,,,,,,,,,,,,
5d4b265b72db9d0015e8aac6,TCR,2024-06-11_13h26.17.905,LearnStrategy,2023.2.3,Linux x86_64,75.18796992,6,1,16,0.084259259,-0.001851852,1,0,0,0.4927,rock_grid_rect_2,3,14,-1,-1,0.493,0.096296296,-0.421296296,1,0,0,3.6636,Peridotite_rect,7,3.664,0,15,0,15,0,1,,,,,,,,,,,,,
5d4b265b72db9d0015e8aac6,TCR,2024-06-11_13h26.17.905,LearnStrategy,2023.2.3,Linux x86_64,75.18796992,6,2,1,,,,,,,,5,16,,,,,,,,,,,5,0.945,1,,,,,,-0.362037037,-0.401851852,1,0,0,0.9447,Obsidian_rect,0,0,0,0,1,
5d4b265b72db9d0015e8aac6,TCR,2024-06-11_13h26.17.905,LearnStrategy,2023.2.3,Linux x86_64,75.18796992,6,2,2,,,,,,,,8,06,,,,,,,,,,,8,0.864,1,,,,,,0.37962963,-0.388888889,1,0,0,0.8644,Pumice_rect,1,0,1,0,1,
5d4b265b72db9d0015e8aac6,TCR,2024-06-11_13h26.17.905,LearnStrategy,2023.2.3,Linux x86_64,75.18796992,6,2,3,,,,,,,,7,08,,,,,,,,,,,7,1.024,1,,,,,,0.137037037,-0.388888889,1,0,0,1.0241,Peridotite_rect,2,0,2,0,1,
5d4b265b72db9d0015e8aac6,TCR,2024-06-11_13h26.17.905,LearnStrategy,2023.2.3,Linux x86_64,75.18796992,6,2,4,,,,,,,,2,14,,,,,,,,,,,2,4.306,1,,,,,,-0.027777778,-0.255555556,1,0,0,4.3061,Basalt_rect,3,0,3,0,1,
5d4b265b72db9d0015e8aac6,TCR,2024-06-11_13h26.17.905,LearnStrategy,2023.2.3,Linux x86_64,75.18796992,6,2,5,,,,,,,,2,01,,,,,,,,,,,2,1.684,1,,,,,,-0.094444444,-0.259259259,1,0,0,1.6836,Basalt_rect,4,0,4,0,1,
5d4b265b72db9d0015e8aac6,TCR,2024-06-11_13h26.17.905,LearnStrategy,2023.2.3,Linux x86_64,75.18796992,6,2,6,,,,,,,,1,04,,,,,,,,,,,1,2.732,1,,,,,,-0.325925926,-0.22962963,1,0,0,2.7317,Andesite_rect,5,0,5,0,1,
5d4b265b72db9d0015e8aac6,TCR,2024-06-11_13h26.17.905,LearnStrategy,2023.2.3,Linux x86_64,75.18796992,6,2,7,,,,,,,,3,06,,,,,,,,,,,3,2.822,1,,,,,,0.186111111,-0.251851852,1,0,0,2.8225,Diorite_rect,6,0,6,0,1,
5d4b265b72db9d0015e8aac6,TCR,2024-06-11_13h26.17.905,LearnStrategy,2023.2.3,Linux x86_64,75.18796992,6,2,8,,,,,,,,3,13,,,,,,,,,,,3,1.325,1,,,,,,0.131481481,-0.24537037,1,0,0,1.3247,Diorite_rect,7,0,7,0,1,
5d4b265b72db9d0015e8aac6,TCR,2024-06-11_13h26.17.905,LearnStrategy,2023.2.3,Linux x86_64,75.18796992,6,2,9,,,,,,,,6,08,,,,,,,,,,,6,1.158,1,,,,,,-0.140740741,-0.408333333,1,0,0,1.1581,Pegmatite_rect,8,0,8,0,1,
5d4b265b72db9d0015e8aac6,TCR,2024-06-11_13h26.17.905,LearnStrategy,2023.2.3,Linux x86_64,75.18796992,6,2,10,,,,,,,,4,08,,,,,,,,,,,2,3.332,0,,,,,,-0.071296296,-0.25462963,1,0,0,3.3316,Basalt_rect,9,0,9,0,1,
5d4b265b72db9d0015e8aac6,TCR,2024-06-11_13h26.17.905,LearnStrategy,2023.2.3,Linux x86_64,75.18796992,6,2,11,,,,,,,,8,10,,,,,,,,,,,3,2.927,0,,,,,,0.169444444,-0.247222222,1,0,0,2.9265,Diorite_rect,10,0,10,0,1,
5d4b265b72db9d0015e8aac6,TCR,2024-06-11_13h26.17.905,LearnStrategy,2023.2.3,Linux x86_64,75.18796992,6,2,12,,,,,,,,5,08,,,,,,,,,,,5,1.491,1,,,,,,-0.390740741,-0.410185185,1,0,0,1.4914,Obsidian_rect,11,0,11,0,1,
5d4b265b72db9d0015e8aac6,TCR,2024-06-11_13h26.17.905,LearnStrategy,2023.2.3,Linux x86_64,75.18796992,6,2,13,,,,,,,,4,13,,,,,,,,,,,4,4.146,1,,,,,,0.469444444,-0.259259259,1,0,0,4.1461,Gabbro_rect,12,0,12,0,1,
5d4b265b72db9d0015e8aac6,TCR,2024-06-11_13h26.17.905,LearnStrategy,2023.2.3,Linux x86_64,75.18796992,6,2,14,,,,,,,,1,11,,,,,,,,,,,1,1.593,1,,,,,,-0.386111111,-0.248148148,1,0,0,1.5935,Andesite_rect,13,0,13,0,1,
5d4b265b72db9d0015e8aac6,TCR,2024-06-11_13h26.17.905,LearnStrategy,2023.2.3,Linux x86_64,75.18796992,6,2,15,,,,,,,,7,13,,,,,,,,,,,7,1.518,1,,,,,,0.158333333,-0.387962963,1,0,0,1.5182,Peridotite_rect,14,0,14,0,1,
5d4b265b72db9d0015e8aac6,TCR,2024-06-11_13h26.17.905,LearnStrategy,2023.2.3,Linux x86_64,75.18796992,6,2,16,,,,,,,,6,03,,,,,,,,,,,6,2.199,1,,,,,,-0.114814815,-0.405555556,1,0,0,2.1993,Pegmatite_rect,15,0,15,0,1,
5d4b265b72db9d0015e8aac6,TCR,2024-06-11_13h26.17.905,LearnStrategy,2023.2.3,Linux x86_64,75.18796992,7,1,1,0.075925926,0.015740741,1,0,0,0.6911,rock_grid_rect_2,8,09,-1,-1,0.691,0.351851852,-0.384259259,1,0,0,1.0797,Pumice_rect,8,1.08,1,0,0,0,0,1,,,,,,,,,,,,,
5d4b265b72db9d0015e8aac6,TCR,2024-06-11_13h26.17.905,LearnStrategy,2023.2.3,Linux x86_64,75.18796992,7,1,2,0.118518519,0,1,0,0,1.0405,rock_grid_rect_2,6,15,-1,-1,1.04,-0.065740741,-0.405555556,1,0,0,1.1451,Pegmatite_rect,6,1.145,1,1,0,1,0,1,,,,,,,,,,,,,
5d4b265b72db9d0015e8aac6,TCR,2024-06-11_13h26.17.905,LearnStrategy,2023.2.3,Linux x86_64,75.18796992,7,1,3,0.033333333,0.009259259,1,0,0,0.733,rock_grid_rect_2,6,15,-1,-1,0.733,-0.07962963,-0.397222222,1,0,0,1.1059,Pegmatite_rect,6,1.106,1,2,0,2,0,1,,,,,,,,,,,,,
5d4b265b72db9d0015e8aac6,TCR,2024-06-11_13h26.17.905,LearnStrategy,2023.2.3,Linux x86_64,75.18796992,7,1,4,0.025,0.000925926,1,0,0,0.5204,rock_grid_rect_2,3,16,-1,-1,0.52,0.128703704,-0.265740741,1,0,0,2.2922,Diorite_rect,3,2.292,1,3,0,3,0,1,,,,,,,,,,,,,
5d4b265b72db9d0015e8aac6,TCR,2024-06-11_13h26.17.905,LearnStrategy,2023.2.3,Linux x86_64,75.18796992,7,1,5,0.050925926,-0.001851852,1,0,0,0.6672,rock_grid_rect_2,4,03,-1,-1,0.667,0.323148148,-0.258333333,1,0,0,3.319,Gabbro_rect,4,3.319,1,4,0,4,0,1,,,,,,,,,,,,,
5d4b265b72db9d0015e8aac6,TCR,2024-06-11_13h26.17.905,LearnStrategy,2023.2.3,Linux x86_64,75.18796992,7,1,6,0.017592593,-0.006481481,1,0,0,0.547,rock_grid_rect_2,7,05,-1,-1,0.547,0.152777778,-0.391666667,1,0,0,1.0391,Peridotite_rect,7,1.039,1,5,0,5,0,1,,,,,,,,,,,,,
5d4b265b72db9d0015e8aac6,TCR,2024-06-11_13h26.17.905,LearnStrategy,2023.2.3,Linux x86_64,75.18796992,7,1,7,0.062962963,0.002777778,1,0,0,0.7069,rock_grid_rect_2,3,10,-1,-1,0.707,0.417592593,-0.271296296,1,0,0,3.2525,Gabbro_rect,4,3.252,0,6,0,6,0,1,,,,,,,,,,,,,
5d4b265b72db9d0015e8aac6,TCR,2024-06-11_13h26.17.905,LearnStrategy,2023.2.3,Linux x86_64,75.18796992,7,1,8,0.136111111,0.002777778,1,0,0,0.614,rock_grid_rect_2,8,13,-1,-1,0.614,0.366666667,-0.393518519,1,0,0,1.1586,Pumice_rect,8,1.159,1,7,0,7,0,1,,,,,,,,,,,,,
5d4b265b72db9d0015e8aac6,TCR,2024-06-11_13h26.17.905,LearnStrategy,2023.2.3,Linux x86_64,75.18796992,7,1,9,0.112037037,0.012037037,1,0,0,0.4666,rock_grid_rect_2,4,01,-1,-1,0.467,0.390740741,-0.240740741,1,0,0,1.1846,Gabbro_rect,4,1.185,1,8,0,8,0,1,,,,,,,,,,,,,
5d4b265b72db9d0015e8aac6,TCR,2024-06-11_13h26.17.905,LearnStrategy,2023.2.3,Linux x86_64,75.18796992,7,1,10,0.089814815,0,1,0,0,0.64,rock_grid_rect_2,6,06,-1,-1,0.64,-0.113888889,-0.408333333,1,0,0,1.546,Pegmatite_rect,6,1.546,1,9,0,9,0,1,,,,,,,,,,,,,
5d4b265b72db9d0015e8aac6,TCR,2024-06-11_13h26.17.905,LearnStrategy,2023.2.3,Linux x86_64,75.18796992,7,1,11,0.061111111,0.014814815,1,0,0,0.6667,rock_grid_rect_2,2,04,-1,-1,0.667,-0.081481481,-0.249074074,1,0,0,1.132,Basalt_rect,2,1.132,1,10,0,10,0,1,,,,,,,,,,,,,
5d4b265b72db9d0015e8aac6,TCR,2024-06-11_13h26.17.905,LearnStrategy,2023.2.3,Linux x86_64,75.18796992,7,1,12,0.052777778,-0.021296296,1,0,0,0.506,rock_grid_rect_2,4,10,-1,-1,0.506,-0.101851852,-0.251851852,1,0,0,1.7066,Basalt_rect,2,1.707,0,11,0,11,0,1,,,,,,,,,,,,,
5d4b265b72db9d0015e8aac6,TCR,2024-06-11_13h26.17.905,LearnStrategy,2023.2.3,Linux x86_64,75.18796992,7,1,13,0.093518519,0.006481481,1,0,0,0.4122,rock_grid_rect_2,2,16,-1,-1,0.412,-0.123148148,-0.261111111,1,0,0,0.8514,Basalt_rect,2,0.851,1,12,0,12,0,1,,,,,,,,,,,,,
5d4b265b72db9d0015e8aac6,TCR,2024-06-11_13h26.17.905,LearnStrategy,2023.2.3,Linux x86_64,75.18796992,7,1,14,0.058333333,-0.006481481,1,0,0,0.4933,rock_grid_rect_2,7,05,-1,-1,0.493,0.141666667,-0.398148148,1,0,0,1.2114,Peridotite_rect,7,1.211,1,13,0,13,0,1,,,,,,,,,,,,,
5d4b265b72db9d0015e8aac6,TCR,2024-06-11_13h26.17.905,LearnStrategy,2023.2.3,Linux x86_64,75.18796992,7,1,15,0.082407407,-0.02037037,1,0,0,0.4789,rock_grid_rect_2,5,12,-1,-1,0.479,-0.359259259,-0.409259259,1,0,0,0.9867,Obsidian_rect,5,0.987,1,14,0,14,0,1,,,,,,,,,,,,,
5d4b265b72db9d0015e8aac6,TCR,2024-06-11_13h26.17.905,LearnStrategy,2023.2.3,Linux x86_64,75.18796992,7,1,16,0.115740741,0.010185185,1,0,0,0.6402,rock_grid_rect_2,4,10,-1,-1,0.64,0.387037037,-0.255555556,1,0,0,1.879,Gabbro_rect,4,1.879,1,15,0,15,0,1,,,,,,,,,,,,,
5d4b265b72db9d0015e8aac6,TCR,2024-06-11_13h26.17.905,LearnStrategy,2023.2.3,Linux x86_64,75.18796992,7,2,1,,,,,,,,1,07,,,,,,,,,,,1,2.373,1,,,,,,-0.412962963,-0.250925926,1,0,0,2.3727,Andesite_rect,0,0,0,0,1,
5d4b265b72db9d0015e8aac6,TCR,2024-06-11_13h26.17.905,LearnStrategy,2023.2.3,Linux x86_64,75.18796992,7,2,2,,,,,,,,6,11,,,,,,,,,,,6,1.128,1,,,,,,-0.111111111,-0.411111111,1,0,0,1.1276,Pegmatite_rect,1,0,1,0,1,
5d4b265b72db9d0015e8aac6,TCR,2024-06-11_13h26.17.905,LearnStrategy,2023.2.3,Linux x86_64,75.18796992,7,2,3,,,,,,,,3,06,,,,,,,,,,,3,1.8,1,,,,,,0.135185185,-0.262037037,1,0,0,1.7995,Diorite_rect,2,0,2,0,1,
5d4b265b72db9d0015e8aac6,TCR,2024-06-11_13h26.17.905,LearnStrategy,2023.2.3,Linux x86_64,75.18796992,7,2,4,,,,,,,,1,06,,,,,,,,,,,1,2.261,1,,,,,,-0.340740741,-0.255555556,1,0,0,2.2612,Andesite_rect,3,0,3,0,1,
5d4b265b72db9d0015e8aac6,TCR,2024-06-11_13h26.17.905,LearnStrategy,2023.2.3,Linux x86_64,75.18796992,7,2,5,,,,,,,,4,05,,,,,,,,,,,4,2.253,1,,,,,,0.393518519,-0.25462963,1,0,0,2.2531,Gabbro_rect,4,0,4,0,1,
5d4b265b72db9d0015e8aac6,TCR,2024-06-11_13h26.17.905,LearnStrategy,2023.2.3,Linux x86_64,75.18796992,7,2,6,,,,,,,,3,08,,,,,,,,,,,3,1.56,1,,,,,,0.150925926,-0.248148148,1,0,0,1.5597,Diorite_rect,5,0,5,0,1,
5d4b265b72db9d0015e8aac6,TCR,2024-06-11_13h26.17.905,LearnStrategy,2023.2.3,Linux x86_64,75.18796992,7,2,7,,,,,,,,5,05,,,,,,,,,,,5,0.92,1,,,,,,-0.374074074,-0.399074074,1,0,0,0.9203,Obsidian_rect,6,0,6,0,1,
5d4b265b72db9d0015e8aac6,TCR,2024-06-11_13h26.17.905,LearnStrategy,2023.2.3,Linux x86_64,75.18796992,7,2,8,,,,,,,,8,06,,,,,,,,,,,8,0.852,1,,,,,,0.37962963,-0.39537037,1,0,0,0.8516,Pumice_rect,7,0,7,0,1,
5d4b265b72db9d0015e8aac6,TCR,2024-06-11_13h26.17.905,LearnStrategy,2023.2.3,Linux x86_64,75.18796992,7,2,9,,,,,,,,8,14,,,,,,,,,,,8,0.972,1,,,,,,0.380555556,-0.392592593,1,0,0,0.9716,Pumice_rect,8,0,8,0,1,
5d4b265b72db9d0015e8aac6,TCR,2024-06-11_13h26.17.905,LearnStrategy,2023.2.3,Linux x86_64,75.18796992,7,2,10,,,,,,,,7,13,,,,,,,,,,,7,1.454,1,,,,,,0.098148148,-0.397222222,1,0,0,1.4537,Peridotite_rect,9,0,9,0,1,
5d4b265b72db9d0015e8aac6,TCR,2024-06-11_13h26.17.905,LearnStrategy,2023.2.3,Linux x86_64,75.18796992,7,2,11,,,,,,,,2,01,,,,,,,,,,,2,0.906,1,,,,,,-0.026851852,-0.232407407,1,0,0,0.9061,Basalt_rect,10,0,10,0,1,
5d4b265b72db9d0015e8aac6,TCR,2024-06-11_13h26.17.905,LearnStrategy,2023.2.3,Linux x86_64,75.18796992,7,2,12,,,,,,,,7,14,,,,,,,,,,,3,3.691,0,,,,,,0.144444444,-0.258333333,1,0,0,3.6911,Diorite_rect,11,0,11,0,1,
5d4b265b72db9d0015e8aac6,TCR,2024-06-11_13h26.17.905,LearnStrategy,2023.2.3,Linux x86_64,75.18796992,7,2,13,,,,,,,,2,06,,,,,,,,,,,2,0.793,1,,,,,,-0.064814815,-0.246296296,1,0,0,0.7932,Basalt_rect,12,0,12,0,1,
5d4b265b72db9d0015e8aac6,TCR,2024-06-11_13h26.17.905,LearnStrategy,2023.2.3,Linux x86_64,75.18796992,7,2,14,,,,,,,,6,03,,,,,,,,,,,6,1.918,1,,,,,,-0.121296296,-0.396296296,1,0,0,1.9183,Pegmatite_rect,13,0,13,0,1,
5d4b265b72db9d0015e8aac6,TCR,2024-06-11_13h26.17.905,LearnStrategy,2023.2.3,Linux x86_64,75.18796992,7,2,15,,,,,,,,4,16,,,,,,,,,,,4,1.854,1,,,,,,0.393518519,-0.247222222,1,0,0,1.8539,Gabbro_rect,14,0,14,0,1,
5d4b265b72db9d0015e8aac6,TCR,2024-06-11_13h26.17.905,LearnStrategy,2023.2.3,Linux x86_64,75.18796992,7,2,16,,,,,,,,5,16,,,,,,,,,,,5,0.974,1,,,,,,-0.376851852,-0.40462963,1,0,0,0.9736,Obsidian_rect,15,0,15,0,1,
5d4b265b72db9d0015e8aac6,TCR,2024-06-11_13h26.17.905,LearnStrategy,2023.2.3,Linux x86_64,75.18796992,8,1,1,0.082407407,-0.002777778,1,0,0,0.5746,rock_grid_rect_2,7,06,-1,-1,0.575,0.143518519,-0.402777778,1,0,0,2.679,Peridotite_rect,7,2.679,1,0,0,0,0,1,,,,,,,,,,,,,
5d4b265b72db9d0015e8aac6,TCR,2024-06-11_13h26.17.905,LearnStrategy,2023.2.3,Linux x86_64,75.18796992,8,1,2,0.102777778,-0.008333333,1,0,0,0.5214,rock_grid_rect_2,8,15,-1,-1,0.521,0.384259259,-0.387962963,1,0,0,0.9741,Pumice_rect,8,0.974,1,1,0,1,0,1,,,,,,,,,,,,,
5d4b265b72db9d0015e8aac6,TCR,2024-06-11_13h26.17.905,LearnStrategy,2023.2.3,Linux x86_64,75.18796992,8,1,3,0.109259259,-0.000925926,1,0,0,0.5876,rock_grid_rect_2,4,11,-1,-1,0.588,-0.09537037,-0.241666667,1,0,0,3.8647,Basalt_rect,2,3.865,0,2,0,2,0,1,,,,,,,,,,,,,
5d4b265b72db9d0015e8aac6,TCR,2024-06-11_13h26.17.905,LearnStrategy,2023.2.3,Linux x86_64,75.18796992,8,1,4,0.07962963,-0.022222222,1,0,0,0.6259,rock_grid_rect_2,4,09,-1,-1,0.626,0.428703704,-0.232407407,1,0,0,1.2132,Gabbro_rect,4,1.213,1,3,0,3,0,1,,,,,,,,,,,,,
5d4b265b72db9d0015e8aac6,TCR,2024-06-11_13h26.17.905,LearnStrategy,2023.2.3,Linux x86_64,75.18796992,8,1,5,0.07962963,-0.017592593,1,0,0,0.3997,rock_grid_rect_2,6,07,-1,-1,0.4,-0.067592593,-0.419444444,1,0,0,1.0923,Pegmatite_rect,6,1.092,1,4,0,4,0,1,,,,,,,,,,,,,
5d4b265b72db9d0015e8aac6,TCR,2024-06-11_13h26.17.905,LearnStrategy,2023.2.3,Linux x86_64,75.18796992,8,1,6,0.036111111,-0.006481481,1,0,0,0.4796,rock_grid_rect_2,7,04,-1,-1,0.48,-0.091666667,-0.419444444,1,0,0,3.8539,Pegmatite_rect,6,3.854,0,5,0,5,0,1,,,,,,,,,,,,,
5d4b265b72db9d0015e8aac6,TCR,2024-06-11_13h26.17.905,LearnStrategy,2023.2.3,Linux x86_64,75.18796992,8,1,7,0.071296296,-0.02037037,1,0,0,0.4659,rock_grid_rect_2,4,10,-1,-1,0.466,0.360185185,-0.256481481,1,0,0,2.1593,Gabbro_rect,4,2.159,1,6,0,6,0,1,,,,,,,,,,,,,
5d4b265b72db9d0015e8aac6,TCR,2024-06-11_13h26.17.905,LearnStrategy,2023.2.3,Linux x86_64,75.18796992,8,1,8,0.049074074,-0.014814815,1,0,0,0.6396,rock_grid_rect_2,6,09,-1,-1,0.64,-0.111111111,-0.394444444,1,0,0,1.6414,Pegmatite_rect,6,1.641,1,7,0,7,0,1,,,,,,,,,,,,,
5d4b265b72db9d0015e8aac6,TCR,2024-06-11_13h26.17.905,LearnStrategy,2023.2.3,Linux x86_64,75.18796992,8,1,9,0.046296296,-0.012037037,1,0,0,0.3744,rock_grid_rect_2,2,11,-1,-1,0.374,0.408333333,-0.252777778,1,0,0,3.3191,Gabbro_rect,4,3.319,0,8,0,8,0,1,,,,,,,,,,,,,
5d4b265b72db9d0015e8aac6,TCR,2024-06-11_13h26.17.905,LearnStrategy,2023.2.3,Linux x86_64,75.18796992,8,1,10,0.123148148,-0.009259259,1,0,0,0.678,rock_grid_rect_2,3,16,-1,-1,0.678,0.149074074,-0.262962963,1,0,0,2.4687,Diorite_rect,3,2.469,1,9,0,9,0,1,,,,,,,,,,,,,
5d4b265b72db9d0015e8aac6,TCR,2024-06-11_13h26.17.905,LearnStrategy,2023.2.3,Linux x86_64,75.18796992,8,1,11,0.097222222,-0.022222222,1,0,0,0.6556,rock_grid_rect_2,2,16,-1,-1,0.656,-0.088888889,-0.268518519,1,0,0,1.1176,Basalt_rect,2,1.118,1,10,0,10,0,1,,,,,,,,,,,,,
5d4b265b72db9d0015e8aac6,TCR,2024-06-11_13h26.17.905,LearnStrategy,2023.2.3,Linux x86_64,75.18796992,8,1,12,0.057407407,-0.006481481,1,0,0,0.6916,rock_grid_rect_2,5,07,-1,-1,0.692,-0.323148148,-0.401851852,1,0,0,0.9742,Obsidian_rect,5,0.974,1,11,0,11,0,1,,,,,,,,,,,,,
5d4b265b72db9d0015e8aac6,TCR,2024-06-11_13h26.17.905,LearnStrategy,2023.2.3,Linux x86_64,75.18796992,8,1,13,0.082407407,-0.008333333,1,0,0,0.4677,rock_grid_rect_2,2,04,-1,-1,0.468,-0.036111111,-0.237037037,1,0,0,1.0914,Basalt_rect,2,1.091,1,12,0,12,0,1,,,,,,,,,,,,,
5d4b265b72db9d0015e8aac6,TCR,2024-06-11_13h26.17.905,LearnStrategy,2023.2.3,Linux x86_64,75.18796992,8,1,14,0.103703704,-0.00462963,1,0,0,0.5053,rock_grid_rect_2,8,04,-1,-1,0.505,0.446296296,-0.414814815,1,0,0,0.9476,Pumice_rect,8,0.948,1,13,0,13,0,1,,,,,,,,,,,,,
5d4b265b72db9d0015e8aac6,TCR,2024-06-11_13h26.17.905,LearnStrategy,2023.2.3,Linux x86_64,75.18796992,8,1,15,0.127777778,0.018518519,1,0,0,0.4944,rock_grid_rect_2,3,14,-1,-1,0.494,0.148148148,-0.262962963,1,0,0,1.2519,Diorite_rect,3,1.252,1,14,0,14,0,1,,,,,,,,,,,,,
5d4b265b72db9d0015e8aac6,TCR,2024-06-11_13h26.17.905,LearnStrategy,2023.2.3,Linux x86_64,75.18796992,8,1,16,0.140740741,-0.025,1,0,0,0.4558,rock_grid_rect_2,7,04,-1,-1,0.456,0.109259259,-0.412962963,1,0,0,1.6503,Peridotite_rect,7,1.65,1,15,0,15,0,1,,,,,,,,,,,,,
5d4b265b72db9d0015e8aac6,TCR,2024-06-11_13h26.17.905,LearnStrategy,2023.2.3,Linux x86_64,75.18796992,8,2,1,,,,,,,,5,02,,,,,,,,,,,5,0.948,1,,,,,,-0.368518519,-0.390740741,1,0,0,0.9482,Obsidian_rect,0,0,0,0,1,
5d4b265b72db9d0015e8aac6,TCR,2024-06-11_13h26.17.905,LearnStrategy,2023.2.3,Linux x86_64,75.18796992,8,2,2,,,,,,,,2,09,,,,,,,,,,,2,1.68,1,,,,,,-0.091666667,-0.259259259,1,0,0,1.6803,Basalt_rect,1,0,1,0,1,
5d4b265b72db9d0015e8aac6,TCR,2024-06-11_13h26.17.905,LearnStrategy,2023.2.3,Linux x86_64,75.18796992,8,2,3,,,,,,,,1,02,,,,,,,,,,,1,2.027,1,,,,,,-0.424074074,-0.261111111,1,0,0,2.0265,Andesite_rect,2,0,2,0,1,
5d4b265b72db9d0015e8aac6,TCR,2024-06-11_13h26.17.905,LearnStrategy,2023.2.3,Linux x86_64,75.18796992,8,2,4,,,,,,,,5,08,,,,,,,,,,,5,0.915,1,,,,,,-0.377777778,-0.384259259,1,0,0,0.915,Obsidian_rect,3,0,3,0,1,
5d4b265b72db9d0015e8aac6,TCR,2024-06-11_13h26.17.905,LearnStrategy,2023.2.3,Linux x86_64,75.18796992,8,2,5,,,,,,,,8,02,,,,,,,,,,,8,0.909,1,,,,,,0.415740741,-0.412037037,1,0,0,0.909,Pumice_rect,4,0,4,0,1,
5d4b265b72db9d0015e8aac6,TCR,2024-06-11_13h26.17.905,LearnStrategy,2023.2.3,Linux x86_64,75.18796992,8,2,6,,,,,,,,3,07,,,,,,,,,,,3,1.162,1,,,,,,0.17037037,-0.228703704,1,0,0,1.1618,Diorite_rect,5,0,5,0,1,
5d4b265b72db9d0015e8aac6,TCR,2024-06-11_13h26.17.905,LearnStrategy,2023.2.3,Linux x86_64,75.18796992,8,2,7,,,,,,,,4,08,,,,,,,,,,,4,1.842,1,,,,,,0.402777778,-0.247222222,1,0,0,1.8416,Gabbro_rect,6,0,6,0,1,
5d4b265b72db9d0015e8aac6,TCR,2024-06-11_13h26.17.905,LearnStrategy,2023.2.3,Linux x86_64,75.18796992,8,2,8,,,,,,,,2,12,,,,,,,,,,,4,3.934,0,,,,,,0.44537037,-0.264814815,1,0,0,3.9343,Gabbro_rect,7,0,7,0,1,
5d4b265b72db9d0015e8aac6,TCR,2024-06-11_13h26.17.905,LearnStrategy,2023.2.3,Linux x86_64,75.18796992,8,2,9,,,,,,,,7,16,,,,,,,,,,,7,3.275,1,,,,,,0.174074074,-0.388888889,1,0,0,3.2754,Peridotite_rect,8,0,8,0,1,
5d4b265b72db9d0015e8aac6,TCR,2024-06-11_13h26.17.905,LearnStrategy,2023.2.3,Linux x86_64,75.18796992,8,2,10,,,,,,,,4,13,,,,,,,,,,,4,4.316,1,,,,,,0.374074074,-0.243518519,1,0,0,4.3157,Gabbro_rect,9,0,9,0,1,
5d4b265b72db9d0015e8aac6,TCR,2024-06-11_13h26.17.905,LearnStrategy,2023.2.3,Linux x86_64,75.18796992,8,2,11,,,,,,,,8,03,,,,,,,,,,,8,1.142,1,,,,,,0.39537037,-0.399074074,1,0,0,1.1417,Pumice_rect,10,0,10,0,1,
5d4b265b72db9d0015e8aac6,TCR,2024-06-11_13h26.17.905,LearnStrategy,2023.2.3,Linux x86_64,75.18796992,8,2,12,,,,,,,,6,16,,,,,,,,,,,6,4.454,1,,,,,,-0.084259259,-0.408333333,1,0,0,4.4541,Pegmatite_rect,11,0,11,0,1,
5d4b265b72db9d0015e8aac6,TCR,2024-06-11_13h26.17.905,LearnStrategy,2023.2.3,Linux x86_64,75.18796992,8,2,13,,,,,,,,7,08,,,,,,,,,,,7,0.982,1,,,,,,0.155555556,-0.40462963,1,0,0,0.9817,Peridotite_rect,12,0,12,0,1,
5d4b265b72db9d0015e8aac6,TCR,2024-06-11_13h26.17.905,LearnStrategy,2023.2.3,Linux x86_64,75.18796992,8,2,14,,,,,,,,1,11,,,,,,,,,,,1,1.16,1,,,,,,-0.386111111,-0.262962963,1,0,0,1.1602,Andesite_rect,13,0,13,0,1,
5d4b265b72db9d0015e8aac6,TCR,2024-06-11_13h26.17.905,LearnStrategy,2023.2.3,Linux x86_64,75.18796992,8,2,15,,,,,,,,6,12,,,,,,,,,,,6,1.841,1,,,,,,-0.094444444,-0.407407407,1,0,0,1.841,Pegmatite_rect,14,0,14,0,1,
5d4b265b72db9d0015e8aac6,TCR,2024-06-11_13h26.17.905,LearnStrategy,2023.2.3,Linux x86_64,75.18796992,8,2,16,,,,,,,,3,13,,,,,,,,,,,3,1.081,1,,,,,,0.162037037,-0.264814815,1,0,0,1.0807,Diorite_rect,15,0,15,0,1,
5d4b265b72db9d0015e8aac6,TCR,2024-06-11_13h26.17.905,LearnStrategy,2023.2.3,Linux x86_64,75.18796992,9,1,1,0.002777778,-0.005555556,1,0,0,0.7348,rock_grid_rect_2,4,01,-1,-1,0.735,0.384259259,-0.251851852,1,0,0,1.6133,Gabbro_rect,4,1.613,1,0,0,0,0,1,,,,,,,,,,,,,
5d4b265b72db9d0015e8aac6,TCR,2024-06-11_13h26.17.905,LearnStrategy,2023.2.3,Linux x86_64,75.18796992,9,1,2,0.12962963,0.012037037,1,0,0,0.5063,rock_grid_rect_2,2,05,-1,-1,0.506,-0.117592593,-0.27037037,1,0,0,0.7752,Basalt_rect,2,0.775,1,1,0,1,0,1,,,,,,,,,,,,,
5d4b265b72db9d0015e8aac6,TCR,2024-06-11_13h26.17.905,LearnStrategy,2023.2.3,Linux x86_64,75.18796992,9,1,3,0.086111111,0.00462963,1,0,0,0.494,rock_grid_rect_2,5,06,-1,-1,0.494,-0.362037037,-0.403703704,1,0,0,0.8387,Obsidian_rect,5,0.839,1,2,0,2,0,1,,,,,,,,,,,,,
5d4b265b72db9d0015e8aac6,TCR,2024-06-11_13h26.17.905,LearnStrategy,2023.2.3,Linux x86_64,75.18796992,9,1,4,0.057407407,0,1,0,0,0.6805,rock_grid_rect_2,2,08,-1,-1,0.681,-0.065740741,-0.260185185,1,0,0,1.7592,Basalt_rect,2,1.759,1,3,0,3,0,1,,,,,,,,,,,,,
5d4b265b72db9d0015e8aac6,TCR,2024-06-11_13h26.17.905,LearnStrategy,2023.2.3,Linux x86_64,75.18796992,9,1,5,0.090740741,0.00462963,1,0,0,0.7206,rock_grid_rect_2,6,13,-1,-1,0.721,-0.073148148,-0.418518519,1,0,0,1.1328,Pegmatite_rect,6,1.133,1,4,0,4,0,1,,,,,,,,,,,,,
5d4b265b72db9d0015e8aac6,TCR,2024-06-11_13h26.17.905,LearnStrategy,2023.2.3,Linux x86_64,75.18796992,9,1,6,0.035185185,0.024074074,1,0,0,0.6808,rock_grid_rect_2,2,16,-1,-1,0.681,-0.066666667,-0.247222222,1,0,0,1.026,Basalt_rect,2,1.026,1,5,0,5,0,1,,,,,,,,,,,,,
5d4b265b72db9d0015e8aac6,TCR,2024-06-11_13h26.17.905,LearnStrategy,2023.2.3,Linux x86_64,75.18796992,9,1,7,0.05462963,-0.025,1,0,0,0.3987,rock_grid_rect_2,2,05,-1,-1,0.399,-0.100925926,-0.25462963,1,0,0,1.0015,Basalt_rect,2,1.001,1,6,0,6,0,1,,,,,,,,,,,,,
5d4b265b72db9d0015e8aac6,TCR,2024-06-11_13h26.17.905,LearnStrategy,2023.2.3,Linux x86_64,75.18796992,9,1,8,0.065740741,-0.010185185,1,0,0,0.5072,rock_grid_rect_2,4,03,-1,-1,0.507,0.349074074,-0.261111111,1,0,0,1.8395,Gabbro_rect,4,1.84,1,7,0,7,0,1,,,,,,,,,,,,,
5d4b265b72db9d0015e8aac6,TCR,2024-06-11_13h26.17.905,LearnStrategy,2023.2.3,Linux x86_64,75.18796992,9,1,9,0.083333333,-0.00462963,1,0,0,0.7205,rock_grid_rect_2,3,15,-1,-1,0.72,0.174074074,-0.233333333,1,0,0,0.7986,Diorite_rect,3,0.799,1,8,0,8,0,1,,,,,,,,,,,,,
5d4b265b72db9d0015e8aac6,TCR,2024-06-11_13h26.17.905,LearnStrategy,2023.2.3,Linux x86_64,75.18796992,9,1,10,0.086111111,-0.003703704,1,0,0,0.5073,rock_grid_rect_2,3,14,-1,-1,0.507,0.173148148,-0.244444444,1,0,0,0.7991,Diorite_rect,3,0.799,1,9,0,9,0,1,,,,,,,,,,,,,
5d4b265b72db9d0015e8aac6,TCR,2024-06-11_13h26.17.905,LearnStrategy,2023.2.3,Linux x86_64,75.18796992,9,1,11,0.114814815,-0.018518519,1,0,0,0.6386,rock_grid_rect_2,4,09,-1,-1,0.639,-0.157407407,-0.27037037,1,0,0,2.0683,Basalt_rect,2,2.068,0,10,0,10,0,1,,,,,,,,,,,,,
5d4b265b72db9d0015e8aac6,TCR,2024-06-11_13h26.17.905,LearnStrategy,2023.2.3,Linux x86_64,75.18796992,9,1,12,0.074074074,0.012037037,1,0,0,0.7193,rock_grid_rect_2,8,09,-1,-1,0.719,0.378703704,-0.400925926,1,0,0,0.8802,Pumice_rect,8,0.88,1,11,0,11,0,1,,,,,,,,,,,,,
5d4b265b72db9d0015e8aac6,TCR,2024-06-11_13h26.17.905,LearnStrategy,2023.2.3,Linux x86_64,75.18796992,9,1,13,0.108333333,0.013888889,1,0,0,0.52,rock_grid_rect_2,6,06,-1,-1,0.52,-0.102777778,-0.413888889,1,0,0,1.3737,Pegmatite_rect,6,1.374,1,12,0,12,0,1,,,,,,,,,,,,,
5d4b265b72db9d0015e8aac6,TCR,2024-06-11_13h26.17.905,LearnStrategy,2023.2.3,Linux x86_64,75.18796992,9,1,14,0.068518519,0.006481481,1,0,0,0.4526,rock_grid_rect_2,7,15,-1,-1,0.453,0.1,-0.40462963,1,0,0,0.8409,Peridotite_rect,7,0.841,1,13,0,13,0,1,,,,,,,,,,,,,
5d4b265b72db9d0015e8aac6,TCR,2024-06-11_13h26.17.905,LearnStrategy,2023.2.3,Linux x86_64,75.18796992,9,1,15,0.1,0,1,0,0,0.4937,rock_grid_rect_2,8,15,-1,-1,0.494,0.382407407,-0.421296296,1,0,0,1.8266,Pumice_rect,8,1.827,1,14,0,14,0,1,,,,,,,,,,,,,
5d4b265b72db9d0015e8aac6,TCR,2024-06-11_13h26.17.905,LearnStrategy,2023.2.3,Linux x86_64,75.18796992,9,1,16,0.112962963,0.008333333,1,0,0,0.4926,rock_grid_rect_2,7,05,-1,-1,0.493,0.12037037,-0.387037037,1,0,0,1.1472,Peridotite_rect,7,1.147,1,15,0,15,0,1,,,,,,,,,,,,,
5d4b265b72db9d0015e8aac6,TCR,2024-06-11_13h26.17.905,LearnStrategy,2023.2.3,Linux x86_64,75.18796992,9,2,1,,,,,,,,2,10,,,,,,,,,,,2,1.828,1,,,,,,-0.112037037,-0.251851852,1,0,0,1.8285,Basalt_rect,0,0,0,0,1,
5d4b265b72db9d0015e8aac6,TCR,2024-06-11_13h26.17.905,LearnStrategy,2023.2.3,Linux x86_64,75.18796992,9,2,2,,,,,,,,1,16,,,,,,,,,,,1,3.398,1,,,,,,-0.374074074,-0.260185185,1,0,0,3.3975,Andesite_rect,1,0,1,0,1,
5d4b265b72db9d0015e8aac6,TCR,2024-06-11_13h26.17.905,LearnStrategy,2023.2.3,Linux x86_64,75.18796992,9,2,3,,,,,,,,8,05,,,,,,,,,,,8,0.853,1,,,,,,0.398148148,-0.418518519,1,0,0,0.8532,Pumice_rect,2,0,2,0,1,
5d4b265b72db9d0015e8aac6,TCR,2024-06-11_13h26.17.905,LearnStrategy,2023.2.3,Linux x86_64,75.18796992,9,2,4,,,,,,,,8,10,,,,,,,,,,,8,2.361,1,,,,,,0.376851852,-0.416666667,1,0,0,2.3612,Pumice_rect,3,0,3,0,1,
5d4b265b72db9d0015e8aac6,TCR,2024-06-11_13h26.17.905,LearnStrategy,2023.2.3,Linux x86_64,75.18796992,9,2,5,,,,,,,,7,02,,,,,,,,,,,7,0.969,1,,,,,,0.160185185,-0.407407407,1,0,0,0.9685,Peridotite_rect,4,0,4,0,1,
5d4b265b72db9d0015e8aac6,TCR,2024-06-11_13h26.17.905,LearnStrategy,2023.2.3,Linux x86_64,75.18796992,9,2,6,,,,,,,,3,09,,,,,,,,,,,3,1.308,1,,,,,,0.165740741,-0.267592593,1,0,0,1.3081,Diorite_rect,5,0,5,0,1,
5d4b265b72db9d0015e8aac6,TCR,2024-06-11_13h26.17.905,LearnStrategy,2023.2.3,Linux x86_64,75.18796992,9,2,7,,,,,,,,3,02,,,,,,,,,,,3,2.575,1,,,,,,0.161111111,-0.252777778,1,0,0,2.5748,Diorite_rect,6,0,6,0,1,
5d4b265b72db9d0015e8aac6,TCR,2024-06-11_13h26.17.905,LearnStrategy,2023.2.3,Linux x86_64,75.18796992,9,2,8,,,,,,,,7,12,,,,,,,,,,,7,1.517,1,,,,,,0.102777778,-0.406481481,1,0,0,1.5166,Peridotite_rect,7,0,7,0,1,
5d4b265b72db9d0015e8aac6,TCR,2024-06-11_13h26.17.905,LearnStrategy,2023.2.3,Linux x86_64,75.18796992,9,2,9,,,,,,,,1,04,,,,,,,,,,,1,1.56,1,,,,,,-0.362962963,-0.271296296,1,0,0,1.5601,Andesite_rect,8,0,8,0,1,
5d4b265b72db9d0015e8aac6,TCR,2024-06-11_13h26.17.905,LearnStrategy,2023.2.3,Linux x86_64,75.18796992,9,2,10,,,,,,,,2,14,,,,,,,,,,,4,1.735,0,,,,,,0.414814815,-0.231481481,1,0,0,1.7351,Gabbro_rect,9,0,9,0,1,
5d4b265b72db9d0015e8aac6,TCR,2024-06-11_13h26.17.905,LearnStrategy,2023.2.3,Linux x86_64,75.18796992,9,2,11,,,,,,,,5,14,,,,,,,,,,,5,1.001,1,,,,,,-0.32962963,-0.393518519,1,0,0,1.0012,Obsidian_rect,10,0,10,0,1,
5d4b265b72db9d0015e8aac6,TCR,2024-06-11_13h26.17.905,LearnStrategy,2023.2.3,Linux x86_64,75.18796992,9,2,12,,,,,,,,5,09,,,,,,,,,,,5,0.88,1,,,,,,-0.344444444,-0.416666667,1,0,0,0.8799,Obsidian_rect,11,0,11,0,1,
5d4b265b72db9d0015e8aac6,TCR,2024-06-11_13h26.17.905,LearnStrategy,2023.2.3,Linux x86_64,75.18796992,9,2,13,,,,,,,,6,08,,,,,,,,,,,6,0.949,1,,,,,,-0.100925926,-0.415740741,1,0,0,0.9489,Pegmatite_rect,12,0,12,0,1,
5d4b265b72db9d0015e8aac6,TCR,2024-06-11_13h26.17.905,LearnStrategy,2023.2.3,Linux x86_64,75.18796992,9,2,14,,,,,,,,6,10,,,,,,,,,,,6,0.934,1,,,,,,-0.060185185,-0.403703704,1,0,0,0.9341,Pegmatite_rect,13,0,13,0,1,
5d4b265b72db9d0015e8aac6,TCR,2024-06-11_13h26.17.905,LearnStrategy,2023.2.3,Linux x86_64,75.18796992,9,2,15,,,,,,,,4,12,,,,,,,,,,,4,1.973,1,,,,,,0.399074074,-0.250925926,1,0,0,1.9732,Gabbro_rect,14,0,14,0,1,
5d4b265b72db9d0015e8aac6,TCR,2024-06-11_13h26.17.905,LearnStrategy,2023.2.3,Linux x86_64,75.18796992,9,2,16,,,,,,,,4,14,,,,,,,,,,,2,2.375,0,,,,,,-0.1,-0.265740741,1,0,0,2.375,Basalt_rect,15,0,15,0,1,
5d4b265b72db9d0015e8aac6,TCR,2024-06-11_13h26.17.905,LearnStrategy,2023.2.3,Linux x86_64,75.18796992,,,,,,,,,,,,,,,,,,,,,,,,,,,,,,,,,,,,,,,,,,,1
5d4b265b72db9d0015e8aac6,TCR,2024-06-11_13h26.17.905,LearnStrategy,2023.2.3,Linux x86_64,75.18796992,,,,,,,,,,,,,,,,,,,,,,,,,,,,,,,,,,,,,,,,,,,
5d4b265b72db9d0015e8aac6,TCR,2024-06-11_13h26.17.905,LearnStrategy,2023.2.3,Linux x86_64,75.18796992,,,,,,,,,,,1,09,1,1,,,,,,,,,,,,,,,,,,,,,,,,,,,,,
5d4b265b72db9d0015e8aac6,TCR,2024-06-11_13h26.17.905,LearnStrategy,2023.2.3,Linux x86_64,75.18796992,,,,,,,,,,,1,05,1,2,,,,,,,,,,,,,,,,,,,,,,,,,,,,,
5d4b265b72db9d0015e8aac6,TCR,2024-06-11_13h26.17.905,LearnStrategy,2023.2.3,Linux x86_64,75.18796992,,,,,,,,,,,8,04,1,3,,,,,,,,,,,,,,,,,,,,,,,,,,,,,
5d4b265b72db9d0015e8aac6,TCR,2024-06-11_13h26.17.905,LearnStrategy,2023.2.3,Linux x86_64,75.18796992,,,,,,,,,,,1,10,1,4,,,,,,,,,,,,,,,,,,,,,,,,,,,,,
5d4b265b72db9d0015e8aac6,TCR,2024-06-11_13h26.17.905,LearnStrategy,2023.2.3,Linux x86_64,75.18796992,,,,,,,,,,,3,16,1,5,,,,,,,,,,,,,,,,,,,,,,,,,,,,,
5d4b265b72db9d0015e8aac6,TCR,2024-06-11_13h26.17.905,LearnStrategy,2023.2.3,Linux x86_64,75.18796992,,,,,,,,,,,4,10,1,6,,,,,,,,,,,,,,,,,,,,,,,,,,,,,
5d4b265b72db9d0015e8aac6,TCR,2024-06-11_13h26.17.905,LearnStrategy,2023.2.3,Linux x86_64,75.18796992,,,,,,,,,,,8,13,1,7,,,,,,,,,,,,,,,,,,,,,,,,,,,,,
5d4b265b72db9d0015e8aac6,TCR,2024-06-11_13h26.17.905,LearnStrategy,2023.2.3,Linux x86_64,75.18796992,,,,,,,,,,,4,01,1,8,,,,,,,,,,,,,,,,,,,,,,,,,,,,,
5d4b265b72db9d0015e8aac6,TCR,2024-06-11_13h26.17.905,LearnStrategy,2023.2.3,Linux x86_64,75.18796992,,,,,,,,,,,6,06,2,1,,,,,,,,,,,,,,,,,,,,,,,,,,,,,
5d4b265b72db9d0015e8aac6,TCR,2024-06-11_13h26.17.905,LearnStrategy,2023.2.3,Linux x86_64,75.18796992,,,,,,,,,,,7,15,2,2,,,,,,,,,,,,,,,,,,,,,,,,,,,,,
5d4b265b72db9d0015e8aac6,TCR,2024-06-11_13h26.17.905,LearnStrategy,2023.2.3,Linux x86_64,75.18796992,,,,,,,,,,,8,15,2,3,,,,,,,,,,,,,,,,,,,,,,,,,,,,,
5d4b265b72db9d0015e8aac6,TCR,2024-06-11_13h26.17.905,LearnStrategy,2023.2.3,Linux x86_64,75.18796992,,,,,,,,,,,5,07,2,4,,,,,,,,,,,,,,,,,,,,,,,,,,,,,
5d4b265b72db9d0015e8aac6,TCR,2024-06-11_13h26.17.905,LearnStrategy,2023.2.3,Linux x86_64,75.18796992,,,,,,,,,,,2,04,2,5,,,,,,,,,,,,,,,,,,,,,,,,,,,,,
5d4b265b72db9d0015e8aac6,TCR,2024-06-11_13h26.17.905,LearnStrategy,2023.2.3,Linux x86_64,75.18796992,,,,,,,,,,,3,15,2,6,,,,,,,,,,,,,,,,,,,,,,,,,,,,,
5d4b265b72db9d0015e8aac6,TCR,2024-06-11_13h26.17.905,LearnStrategy,2023.2.3,Linux x86_64,75.18796992,,,,,,,,,,,1,01,2,7,,,,,,,,,,,,,,,,,,,,,,,,,,,,,
5d4b265b72db9d0015e8aac6,TCR,2024-06-11_13h26.17.905,LearnStrategy,2023.2.3,Linux x86_64,75.18796992,,,,,,,,,,,3,12,2,8,,,,,,,,,,,,,,,,,,,,,,,,,,,,,
5d4b265b72db9d0015e8aac6,TCR,2024-06-11_13h26.17.905,LearnStrategy,2023.2.3,Linux x86_64,75.18796992,,,,,,,,,,,4,11,3,1,,,,,,,,,,,,,,,,,,,,,,,,,,,,,
5d4b265b72db9d0015e8aac6,TCR,2024-06-11_13h26.17.905,LearnStrategy,2023.2.3,Linux x86_64,75.18796992,,,,,,,,,,,7,06,3,2,,,,,,,,,,,,,,,,,,,,,,,,,,,,,
5d4b265b72db9d0015e8aac6,TCR,2024-06-11_13h26.17.905,LearnStrategy,2023.2.3,Linux x86_64,75.18796992,,,,,,,,,,,4,09,3,3,,,,,,,,,,,,,,,,,,,,,,,,,,,,,
5d4b265b72db9d0015e8aac6,TCR,2024-06-11_13h26.17.905,LearnStrategy,2023.2.3,Linux x86_64,75.18796992,,,,,,,,,,,5,10,3,4,,,,,,,,,,,,,,,,,,,,,,,,,,,,,
5d4b265b72db9d0015e8aac6,TCR,2024-06-11_13h26.17.905,LearnStrategy,2023.2.3,Linux x86_64,75.18796992,,,,,,,,,,,8,09,3,5,,,,,,,,,,,,,,,,,,,,,,,,,,,,,
5d4b265b72db9d0015e8aac6,TCR,2024-06-11_13h26.17.905,LearnStrategy,2023.2.3,Linux x86_64,75.18796992,,,,,,,,,,,3,10,3,6,,,,,,,,,,,,,,,,,,,,,,,,,,,,,
5d4b265b72db9d0015e8aac6,TCR,2024-06-11_13h26.17.905,LearnStrategy,2023.2.3,Linux x86_64,75.18796992,,,,,,,,,,,7,07,3,7,,,,,,,,,,,,,,,,,,,,,,,,,,,,,
5d4b265b72db9d0015e8aac6,TCR,2024-06-11_13h26.17.905,LearnStrategy,2023.2.3,Linux x86_64,75.18796992,,,,,,,,,,,6,07,3,8,,,,,,,,,,,,,,,,,,,,,,,,,,,,,
5d4b265b72db9d0015e8aac6,TCR,2024-06-11_13h26.17.905,LearnStrategy,2023.2.3,Linux x86_64,75.18796992,,,,,,,,,,,2,05,4,1,,,,,,,,,,,,,,,,,,,,,,,,,,,,,
5d4b265b72db9d0015e8aac6,TCR,2024-06-11_13h26.17.905,LearnStrategy,2023.2.3,Linux x86_64,75.18796992,,,,,,,,,,,1,03,4,2,,,,,,,,,,,,,,,,,,,,,,,,,,,,,
5d4b265b72db9d0015e8aac6,TCR,2024-06-11_13h26.17.905,LearnStrategy,2023.2.3,Linux x86_64,75.18796992,,,,,,,,,,,7,04,4,3,,,,,,,,,,,,,,,,,,,,,,,,,,,,,
5d4b265b72db9d0015e8aac6,TCR,2024-06-11_13h26.17.905,LearnStrategy,2023.2.3,Linux x86_64,75.18796992,,,,,,,,,,,7,05,4,4,,,,,,,,,,,,,,,,,,,,,,,,,,,,,
5d4b265b72db9d0015e8aac6,TCR,2024-06-11_13h26.17.905,LearnStrategy,2023.2.3,Linux x86_64,75.18796992,,,,,,,,,,,3,11,4,5,,,,,,,,,,,,,,,,,,,,,,,,,,,,,
5d4b265b72db9d0015e8aac6,TCR,2024-06-11_13h26.17.905,LearnStrategy,2023.2.3,Linux x86_64,75.18796992,,,,,,,,,,,6,13,4,6,,,,,,,,,,,,,,,,,,,,,,,,,,,,,
5d4b265b72db9d0015e8aac6,TCR,2024-06-11_13h26.17.905,LearnStrategy,2023.2.3,Linux x86_64,75.18796992,,,,,,,,,,,3,14,4,7,,,,,,,,,,,,,,,,,,,,,,,,,,,,,
5d4b265b72db9d0015e8aac6,TCR,2024-06-11_13h26.17.905,LearnStrategy,2023.2.3,Linux x86_64,75.18796992,,,,,,,,,,,2,08,4,8,,,,,,,,,,,,,,,,,,,,,,,,,,,,,
5d4b265b72db9d0015e8aac6,TCR,2024-06-11_13h26.17.905,LearnStrategy,2023.2.3,Linux x86_64,75.18796992,,,,,,,,,,,2,02,5,1,,,,,,,,,,,,,,,,,,,,,,,,,,,,,
5d4b265b72db9d0015e8aac6,TCR,2024-06-11_13h26.17.905,LearnStrategy,2023.2.3,Linux x86_64,75.18796992,,,,,,,,,,,5,11,5,2,,,,,,,,,,,,,,,,,,,,,,,,,,,,,
5d4b265b72db9d0015e8aac6,TCR,2024-06-11_13h26.17.905,LearnStrategy,2023.2.3,Linux x86_64,75.18796992,,,,,,,,,,,1,14,5,3,,,,,,,,,,,,,,,,,,,,,,,,,,,,,
5d4b265b72db9d0015e8aac6,TCR,2024-06-11_13h26.17.905,LearnStrategy,2023.2.3,Linux x86_64,75.18796992,,,,,,,,,,,6,09,5,4,,,,,,,,,,,,,,,,,,,,,,,,,,,,,
5d4b265b72db9d0015e8aac6,TCR,2024-06-11_13h26.17.905,LearnStrategy,2023.2.3,Linux x86_64,75.18796992,,,,,,,,,,,5,12,5,5,,,,,,,,,,,,,,,,,,,,,,,,,,,,,
5d4b265b72db9d0015e8aac6,TCR,2024-06-11_13h26.17.905,LearnStrategy,2023.2.3,Linux x86_64,75.18796992,,,,,,,,,,,5,04,5,6,,,,,,,,,,,,,,,,,,,,,,,,,,,,,
5d4b265b72db9d0015e8aac6,TCR,2024-06-11_13h26.17.905,LearnStrategy,2023.2.3,Linux x86_64,75.18796992,,,,,,,,,,,4,03,5,7,,,,,,,,,,,,,,,,,,,,,,,,,,,,,
5d4b265b72db9d0015e8aac6,TCR,2024-06-11_13h26.17.905,LearnStrategy,2023.2.3,Linux x86_64,75.18796992,,,,,,,,,,,6,05,5,8,,,,,,,,,,,,,,,,,,,,,,,,,,,,,
5d4b265b72db9d0015e8aac6,TCR,2024-06-11_13h26.17.905,LearnStrategy,2023.2.3,Linux x86_64,75.18796992,,,,,,,,,,,8,16,6,1,,,,,,,,,,,,,,,,,,,,,,,,,,,,,
5d4b265b72db9d0015e8aac6,TCR,2024-06-11_13h26.17.905,LearnStrategy,2023.2.3,Linux x86_64,75.18796992,,,,,,,,,,,6,15,6,2,,,,,,,,,,,,,,,,,,,,,,,,,,,,,
5d4b265b72db9d0015e8aac6,TCR,2024-06-11_13h26.17.905,LearnStrategy,2023.2.3,Linux x86_64,75.18796992,,,,,,,,,,,7,10,6,3,,,,,,,,,,,,,,,,,,,,,,,,,,,,,
5d4b265b72db9d0015e8aac6,TCR,2024-06-11_13h26.17.905,LearnStrategy,2023.2.3,Linux x86_64,75.18796992,,,,,,,,,,,8,08,6,4,,,,,,,,,,,,,,,,,,,,,,,,,,,,,
5d4b265b72db9d0015e8aac6,TCR,2024-06-11_13h26.17.905,LearnStrategy,2023.2.3,Linux x86_64,75.18796992,,,,,,,,,,,5,06,6,5,,,,,,,,,,,,,,,,,,,,,,,,,,,,,
5d4b265b72db9d0015e8aac6,TCR,2024-06-11_13h26.17.905,LearnStrategy,2023.2.3,Linux x86_64,75.18796992,,,,,,,,,,,2,16,6,6,,,,,,,,,,,,,,,,,,,,,,,,,,,,,
5d4b265b72db9d0015e8aac6,TCR,2024-06-11_13h26.17.905,LearnStrategy,2023.2.3,Linux x86_64,75.18796992,,,,,,,,,,,4,15,6,7,,,,,,,,,,,,,,,,,,,,,,,,,,,,,
5d4b265b72db9d0015e8aac6,TCR,2024-06-11_13h26.17.905,LearnStrategy,2023.2.3,Linux x86_64,75.18796992,,,,,,,,,,,2,11,6,8,,,,,,,,,,,,,,,,,,,,,,,,,,,,,