participant,condition,date,expName,psychopyVersion,OS,frameRate,block,phase,trial,learn_mouse_2.x,learn_mouse_2.y,learn_mouse_2.leftButton,learn_mouse_2.midButton,learn_mouse_2.rightButton,learn_mouse_2.time,learn_mouse_2.clicked_name,cat,token,row,col,t_select,cat_mouse_l.x,cat_mouse_l.y,cat_mouse_l.leftButton,cat_mouse_l.midButton,cat_mouse_l.rightButton,cat_mouse_l.time,cat_mouse_l.clicked_name,resp,t_resp,corr,train_trials.thisRepN,train_trials.thisTrialN,train_trials.thisN,train_trials.thisIndex,train_trials.ran,cat_mouse_t.x,cat_mouse_t.y,cat_mouse_t.leftButton,cat_mouse_t.midButton,cat_mouse_t.rightButton,cat_mouse_t.time,cat_mouse_t.clicked_name,test_trials.thisRepN,test_trials.thisTrialN,test_trials.thisN,test_trials.thisIndex,test_trials.ran,Bonus
5d654282986878001c2a5db7,TCR,2024-06-20_13h50.59.838,LearnStrategy,2023.2.3,MacIntel,62.89308176,,,,,,,,,,,,,,,,,,,,,,,,,,,,,,,,,,,,,,,,,,,
5d654282986878001c2a5db7,TCR,2024-06-20_13h50.59.838,LearnStrategy,2023.2.3,MacIntel,62.89308176,1,1,1,-0.046302083,-0.01515625,1,0,0,1.4258,rock_grid_rect_2,3,07,-1,-1,1.426,0.198702257,-0.242643229,1,0,0,1.0551,Diorite_rect,3,1.055,1,0,0,0,0,1,,,,,,,,,,,,,
5d654282986878001c2a5db7,TCR,2024-06-20_13h50.59.838,LearnStrategy,2023.2.3,MacIntel,62.89308176,1,1,2,0.05641059,-0.018637153,1,0,0,1.3487,rock_grid_rect_2,8,05,-1,-1,1.349,0.419335937,-0.416345486,1,0,0,0.8375,Pumice_rect,8,0.837,1,1,0,1,0,1,,,,,,,,,,,,,
5d654282986878001c2a5db7,TCR,2024-06-20_13h50.59.838,LearnStrategy,2023.2.3,MacIntel,62.89308176,1,1,3,0.058914931,-0.002252604,1,0,0,0.916,rock_grid_rect_2,5,11,-1,-1,0.916,-0.400169271,-0.410247396,1,0,0,1.5048,Obsidian_rect,5,1.505,1,2,0,2,0,1,,,,,,,,,,,,,
5d654282986878001c2a5db7,TCR,2024-06-20_13h50.59.838,LearnStrategy,2023.2.3,MacIntel,62.89308176,1,1,4,0.204769965,0.001584201,1,0,0,1.0824,rock_grid_rect_2,8,08,-1,-1,1.082,0.362256944,-0.421953125,1,0,0,1.1237,Pumice_rect,8,1.124,1,3,0,3,0,1,,,,,,,,,,,,,
5d654282986878001c2a5db7,TCR,2024-06-20_13h50.59.838,LearnStrategy,2023.2.3,MacIntel,62.89308176,1,1,5,0.007829861,0.002395833,1,0,0,0.5979,rock_grid_rect_2,3,15,-1,-1,0.598,0.476866319,-0.261922743,1,0,0,1.0313,Gabbro_rect,4,1.031,0,4,0,4,0,1,,,,,,,,,,,,,
5d654282986878001c2a5db7,TCR,2024-06-20_13h50.59.838,LearnStrategy,2023.2.3,MacIntel,62.89308176,1,1,6,0.095269097,-0.001710069,1,0,0,0.6824,rock_grid_rect_2,2,05,-1,-1,0.682,-0.118559028,-0.249908854,1,0,0,1.3613,Basalt_rect,2,1.361,1,5,0,5,0,1,,,,,,,,,,,,,
5d654282986878001c2a5db7,TCR,2024-06-20_13h50.59.838,LearnStrategy,2023.2.3,MacIntel,62.89308176,1,1,7,0.009301215,0.001536458,1,0,0,0.5491,rock_grid_rect_2,4,08,-1,-1,0.549,-0.368563368,-0.254605035,1,0,0,1.2433,Andesite_rect,1,1.243,0,6,0,6,0,1,,,,,,,,,,,,,
5d654282986878001c2a5db7,TCR,2024-06-20_13h50.59.838,LearnStrategy,2023.2.3,MacIntel,62.89308176,1,1,8,0.040082465,-0.014496528,1,0,0,0.4987,rock_grid_rect_2,4,13,-1,-1,0.499,0.455815972,-0.250512153,1,0,0,1.5933,Gabbro_rect,4,1.593,1,7,0,7,0,1,,,,,,,,,,,,,
5d654282986878001c2a5db7,TCR,2024-06-20_13h50.59.838,LearnStrategy,2023.2.3,MacIntel,62.89308176,1,1,9,0.008993056,-0.018511285,1,0,0,1.1305,rock_grid_rect_2,2,09,-1,-1,1.131,-0.129618056,-0.262460937,1,0,0,0.7942,Basalt_rect,2,0.794,1,8,0,8,0,1,,,,,,,,,,,,,
5d654282986878001c2a5db7,TCR,2024-06-20_13h50.59.838,LearnStrategy,2023.2.3,MacIntel,62.89308176,1,1,10,-0.010651042,0.011319444,1,0,0,0.7827,rock_grid_rect_2,7,05,-1,-1,0.783,0.112243924,-0.421579861,1,0,0,0.8743,Peridotite_rect,7,0.874,1,9,0,9,0,1,,,,,,,,,,,,,
5d654282986878001c2a5db7,TCR,2024-06-20_13h50.59.838,LearnStrategy,2023.2.3,MacIntel,62.89308176,1,1,11,-0.008676215,-0.019735243,1,0,0,1.5477,rock_grid_rect_2,1,11,-1,-1,1.548,-0.11874566,-0.404756944,1,0,0,1.6725,Pegmatite_rect,6,1.672,0,10,0,10,0,1,,,,,,,,,,,,,
5d654282986878001c2a5db7,TCR,2024-06-20_13h50.59.838,LearnStrategy,2023.2.3,MacIntel,62.89308176,1,1,12,-0.011106771,0.001475694,1,0,0,0.7306,rock_grid_rect_2,7,06,-1,-1,0.731,0.067400174,-0.39609809,1,0,0,1.3789,Peridotite_rect,7,1.379,1,11,0,11,0,1,,,,,,,,,,,,,
5d654282986878001c2a5db7,TCR,2024-06-20_13h50.59.838,LearnStrategy,2023.2.3,MacIntel,62.89308176,1,1,13,0.025516493,-0.007421875,1,0,0,0.6482,rock_grid_rect_2,1,07,-1,-1,0.648,0.346271701,-0.232057292,1,0,0,1.6681,Gabbro_rect,4,1.668,0,12,0,12,0,1,,,,,,,,,,,,,
5d654282986878001c2a5db7,TCR,2024-06-20_13h50.59.838,LearnStrategy,2023.2.3,MacIntel,62.89308176,1,1,14,0.042690972,-0.009596354,1,0,0,0.9645,rock_grid_rect_2,5,02,-1,-1,0.965,-0.313806424,-0.413229167,1,0,0,1.1066,Obsidian_rect,5,1.107,1,13,0,13,0,1,,,,,,,,,,,,,
5d654282986878001c2a5db7,TCR,2024-06-20_13h50.59.838,LearnStrategy,2023.2.3,MacIntel,62.89308176,1,1,15,0.026575521,-0.019605035,1,0,0,0.5314,rock_grid_rect_2,6,10,-1,-1,0.531,0.129487847,-0.418320313,1,0,0,0.9467,Peridotite_rect,7,0.947,0,14,0,14,0,1,,,,,,,,,,,,,
5d654282986878001c2a5db7,TCR,2024-06-20_13h50.59.838,LearnStrategy,2023.2.3,MacIntel,62.89308176,1,1,16,0.002834201,-0.000442708,1,0,0,0.615,rock_grid_rect_2,6,03,-1,-1,0.615,0.087612847,-0.415885417,1,0,0,0.945,Peridotite_rect,7,0.945,0,15,0,15,0,1,,,,,,,,,,,,,
5d654282986878001c2a5db7,TCR,2024-06-20_13h50.59.838,LearnStrategy,2023.2.3,MacIntel,62.89308176,1,2,1,,,,,,,,6,13,,,,,,,,,,,6,1.011,1,,,,,,-0.088897569,-0.402100694,1,0,0,1.0105,Pegmatite_rect,0,0,0,0,1,
5d654282986878001c2a5db7,TCR,2024-06-20_13h50.59.838,LearnStrategy,2023.2.3,MacIntel,62.89308176,1,2,2,,,,,,,,2,10,,,,,,,,,,,2,2.011,1,,,,,,-0.120928819,-0.262000868,1,0,0,2.0105,Basalt_rect,1,0,1,0,1,
5d654282986878001c2a5db7,TCR,2024-06-20_13h50.59.838,LearnStrategy,2023.2.3,MacIntel,62.89308176,1,2,3,,,,,,,,3,10,,,,,,,,,,,4,0.861,0,,,,,,0.325238715,-0.251319444,1,0,0,0.8606,Gabbro_rect,2,0,2,0,1,
5d654282986878001c2a5db7,TCR,2024-06-20_13h50.59.838,LearnStrategy,2023.2.3,MacIntel,62.89308176,1,2,4,,,,,,,,1,09,,,,,,,,,,,1,0.809,1,,,,,,-0.35687066,-0.258389757,1,0,0,0.8093,Andesite_rect,3,0,3,0,1,
5d654282986878001c2a5db7,TCR,2024-06-20_13h50.59.838,LearnStrategy,2023.2.3,MacIntel,62.89308176,1,2,5,,,,,,,,2,02,,,,,,,,,,,2,1.115,1,,,,,,-0.153541667,-0.265572917,1,0,0,1.115,Basalt_rect,4,0,4,0,1,
5d654282986878001c2a5db7,TCR,2024-06-20_13h50.59.838,LearnStrategy,2023.2.3,MacIntel,62.89308176,1,2,6,,,,,,,,5,08,,,,,,,,,,,5,0.816,1,,,,,,-0.456944444,-0.411076389,1,0,0,0.8156,Obsidian_rect,5,0,5,0,1,
5d654282986878001c2a5db7,TCR,2024-06-20_13h50.59.838,LearnStrategy,2023.2.3,MacIntel,62.89308176,1,2,7,,,,,,,,4,14,,,,,,,,,,,6,1.56,0,,,,,,-0.152877604,-0.414678819,1,0,0,1.56,Pegmatite_rect,6,0,6,0,1,
5d654282986878001c2a5db7,TCR,2024-06-20_13h50.59.838,LearnStrategy,2023.2.3,MacIntel,62.89308176,1,2,8,,,,,,,,1,06,,,,,,,,,,,1,1.42,1,,,,,,-0.40671441,-0.259596354,1,0,0,1.4202,Andesite_rect,7,0,7,0,1,
5d654282986878001c2a5db7,TCR,2024-06-20_13h50.59.838,LearnStrategy,2023.2.3,MacIntel,62.89308176,1,2,9,,,,,,,,6,08,,,,,,,,,,,6,0.808,1,,,,,,-0.193007812,-0.387912326,1,0,0,0.8076,Pegmatite_rect,8,0,8,0,1,
5d654282986878001c2a5db7,TCR,2024-06-20_13h50.59.838,LearnStrategy,2023.2.3,MacIntel,62.89308176,1,2,10,,,,,,,,7,07,,,,,,,,,,,7,1.47,1,,,,,,0.163880208,-0.384210069,1,0,0,1.4698,Peridotite_rect,9,0,9,0,1,
5d654282986878001c2a5db7,TCR,2024-06-20_13h50.59.838,LearnStrategy,2023.2.3,MacIntel,62.89308176,1,2,11,,,,,,,,8,03,,,,,,,,,,,8,0.748,1,,,,,,0.447821181,-0.41093316,1,0,0,0.7479,Pumice_rect,10,0,10,0,1,
5d654282986878001c2a5db7,TCR,2024-06-20_13h50.59.838,LearnStrategy,2023.2.3,MacIntel,62.89308176,1,2,12,,,,,,,,7,15,,,,,,,,,,,7,0.779,1,,,,,,0.15015625,-0.405998264,1,0,0,0.7786,Peridotite_rect,11,0,11,0,1,
5d654282986878001c2a5db7,TCR,2024-06-20_13h50.59.838,LearnStrategy,2023.2.3,MacIntel,62.89308176,1,2,13,,,,,,,,3,09,,,,,,,,,,,3,0.876,1,,,,,,0.136354167,-0.251940104,1,0,0,0.8761,Diorite_rect,12,0,12,0,1,
5d654282986878001c2a5db7,TCR,2024-06-20_13h50.59.838,LearnStrategy,2023.2.3,MacIntel,62.89308176,1,2,14,,,,,,,,5,12,,,,,,,,,,,5,1.016,1,,,,,,-0.372907986,-0.378250868,1,0,0,1.0163,Obsidian_rect,13,0,13,0,1,
5d654282986878001c2a5db7,TCR,2024-06-20_13h50.59.838,LearnStrategy,2023.2.3,MacIntel,62.89308176,1,2,15,,,,,,,,4,10,,,,,,,,,,,1,0.875,0,,,,,,-0.371744792,-0.253359375,1,0,0,0.8751,Andesite_rect,14,0,14,0,1,
5d654282986878001c2a5db7,TCR,2024-06-20_13h50.59.838,LearnStrategy,2023.2.3,MacIntel,62.89308176,1,2,16,,,,,,,,8,09,,,,,,,,,,,8,0.861,1,,,,,,0.386067708,-0.417747396,1,0,0,0.8605,Pumice_rect,15,0,15,0,1,
5d654282986878001c2a5db7,TCR,2024-06-20_13h50.59.838,LearnStrategy,2023.2.3,MacIntel,62.89308176,2,1,1,-0.02468316,-0.015963542,1,0,0,1.0153,rock_grid_rect_2,3,14,-1,-1,1.015,0.361484375,-0.25921875,1,0,0,1.0588,Gabbro_rect,4,1.059,0,0,0,0,0,1,,,,,,,,,,,,,
5d654282986878001c2a5db7,TCR,2024-06-20_13h50.59.838,LearnStrategy,2023.2.3,MacIntel,62.89308176,2,1,2,-0.03422309,0.008719618,1,0,0,0.8482,rock_grid_rect_2,6,11,-1,-1,0.848,-0.136375868,-0.417018229,1,0,0,0.8872,Pegmatite_rect,6,0.887,1,1,0,1,0,1,,,,,,,,,,,,,
5d654282986878001c2a5db7,TCR,2024-06-20_13h50.59.838,LearnStrategy,2023.2.3,MacIntel,62.89308176,2,1,3,-0.114279514,-0.005855035,1,0,0,1.2653,rock_grid_rect_2,4,15,-1,-1,1.265,0.133476563,-0.22953125,1,0,0,1.0033,Diorite_rect,3,1.003,0,2,0,2,0,1,,,,,,,,,,,,,
5d654282986878001c2a5db7,TCR,2024-06-20_13h50.59.838,LearnStrategy,2023.2.3,MacIntel,62.89308176,2,1,4,-0.001432292,-0.007682292,1,0,0,0.7986,rock_grid_rect_2,4,08,-1,-1,0.799,-0.366575521,-0.241484375,1,0,0,0.9095,Andesite_rect,1,0.91,0,3,0,3,0,1,,,,,,,,,,,,,
5d654282986878001c2a5db7,TCR,2024-06-20_13h50.59.838,LearnStrategy,2023.2.3,MacIntel,62.89308176,2,1,5,0.001475694,0.013376736,1,0,0,0.7157,rock_grid_rect_2,2,11,-1,-1,0.716,-0.086423611,-0.236649306,1,0,0,0.9469,Basalt_rect,2,0.947,1,4,0,4,0,1,,,,,,,,,,,,,
5d654282986878001c2a5db7,TCR,2024-06-20_13h50.59.838,LearnStrategy,2023.2.3,MacIntel,62.89308176,2,1,6,-0.018085937,-0.004322917,1,0,0,0.7653,rock_grid_rect_2,3,11,-1,-1,0.765,0.166653646,-0.239340278,1,0,0,1.7299,Diorite_rect,3,1.73,1,5,0,5,0,1,,,,,,,,,,,,,
5d654282986878001c2a5db7,TCR,2024-06-20_13h50.59.838,LearnStrategy,2023.2.3,MacIntel,62.89308176,2,1,7,-0.087907986,0.002404514,1,0,0,0.9319,rock_grid_rect_2,4,05,-1,-1,0.932,-0.347894965,-0.258385417,1,0,0,1.4218,Andesite_rect,1,1.422,0,6,0,6,0,1,,,,,,,,,,,,,
5d654282986878001c2a5db7,TCR,2024-06-20_13h50.59.838,LearnStrategy,2023.2.3,MacIntel,62.89308176,2,1,8,-0.013602431,0.009509549,1,0,0,1.6647,rock_grid_rect_2,4,08,-1,-1,1.665,-0.368862847,-0.251857639,1,0,0,1.2774,Andesite_rect,1,1.277,0,7,0,7,0,1,,,,,,,,,,,,,
5d654282986878001c2a5db7,TCR,2024-06-20_13h50.59.838,LearnStrategy,2023.2.3,MacIntel,62.89308176,2,1,9,-0.046471354,0.001779514,1,0,0,0.6982,rock_grid_rect_2,7,05,-1,-1,0.698,0.11547309,-0.389192708,1,0,0,1.0106,Peridotite_rect,7,1.011,1,8,0,8,0,1,,,,,,,,,,,,,
5d654282986878001c2a5db7,TCR,2024-06-20_13h50.59.838,LearnStrategy,2023.2.3,MacIntel,62.89308176,2,1,10,-0.047217882,-0.004605035,1,0,0,0.7152,rock_grid_rect_2,5,04,-1,-1,0.715,-0.340967882,-0.391987847,1,0,0,0.9939,Obsidian_rect,5,0.994,1,9,0,9,0,1,,,,,,,,,,,,,
5d654282986878001c2a5db7,TCR,2024-06-20_13h50.59.838,LearnStrategy,2023.2.3,MacIntel,62.89308176,2,1,11,-0.033537326,-0.009422743,1,0,0,0.7321,rock_grid_rect_2,4,12,-1,-1,0.732,-0.356345486,-0.248702257,1,0,0,2.278,Andesite_rect,1,2.278,0,10,0,10,0,1,,,,,,,,,,,,,
5d654282986878001c2a5db7,TCR,2024-06-20_13h50.59.838,LearnStrategy,2023.2.3,MacIntel,62.89308176,2,1,12,-0.012730035,0.009822049,1,0,0,0.6816,rock_grid_rect_2,1,16,-1,-1,0.682,0.389652778,-0.255568576,1,0,0,0.9643,Gabbro_rect,4,0.964,0,11,0,11,0,1,,,,,,,,,,,,,
5d654282986878001c2a5db7,TCR,2024-06-20_13h50.59.838,LearnStrategy,2023.2.3,MacIntel,62.89308176,2,1,13,0.065329861,-0.012899306,1,0,0,0.5478,rock_grid_rect_2,8,04,-1,-1,0.548,0.448376736,-0.415876736,1,0,0,1.7631,Pumice_rect,8,1.763,1,12,0,12,0,1,,,,,,,,,,,,,
5d654282986878001c2a5db7,TCR,2024-06-20_13h50.59.838,LearnStrategy,2023.2.3,MacIntel,62.89308176,2,1,14,-0.045282118,-0.016779514,1,0,0,0.715,rock_grid_rect_2,4,11,-1,-1,0.715,-0.435494792,-0.253211806,1,0,0,1.5955,Andesite_rect,1,1.596,0,13,0,13,0,1,,,,,,,,,,,,,
5d654282986878001c2a5db7,TCR,2024-06-20_13h50.59.838,LearnStrategy,2023.2.3,MacIntel,62.89308176,2,1,15,-0.052578125,-0.020225694,1,0,0,0.7981,rock_grid_rect_2,3,16,-1,-1,0.798,0.371801215,-0.240065104,1,0,0,1.1354,Gabbro_rect,4,1.135,0,14,0,14,0,1,,,,,,,,,,,,,
5d654282986878001c2a5db7,TCR,2024-06-20_13h50.59.838,LearnStrategy,2023.2.3,MacIntel,62.89308176,2,1,16,-0.003537326,0.011657986,1,0,0,0.5642,rock_grid_rect_2,4,11,-1,-1,0.564,-0.373624132,-0.261241319,1,0,0,1.102,Andesite_rect,1,1.102,0,15,0,15,0,1,,,,,,,,,,,,,
5d654282986878001c2a5db7,TCR,2024-06-20_13h50.59.838,LearnStrategy,2023.2.3,MacIntel,62.89308176,2,2,1,,,,,,,,8,15,,,,,,,,,,,8,1.008,1,,,,,,0.406601563,-0.403971354,1,0,0,1.008,Pumice_rect,0,0,0,0,1,
5d654282986878001c2a5db7,TCR,2024-06-20_13h50.59.838,LearnStrategy,2023.2.3,MacIntel,62.89308176,2,2,2,,,,,,,,1,01,,,,,,,,,,,4,2.146,0,,,,,,0.468763021,-0.246679687,1,0,0,2.1462,Gabbro_rect,1,0,1,0,1,
5d654282986878001c2a5db7,TCR,2024-06-20_13h50.59.838,LearnStrategy,2023.2.3,MacIntel,62.89308176,2,2,3,,,,,,,,7,14,,,,,,,,,,,7,1.077,1,,,,,,0.067395833,-0.409917535,1,0,0,1.0769,Peridotite_rect,2,0,2,0,1,
5d654282986878001c2a5db7,TCR,2024-06-20_13h50.59.838,LearnStrategy,2023.2.3,MacIntel,62.89308176,2,2,4,,,,,,,,2,08,,,,,,,,,,,2,1.196,1,,,,,,-0.156987847,-0.252200521,1,0,0,1.1964,Basalt_rect,3,0,3,0,1,
5d654282986878001c2a5db7,TCR,2024-06-20_13h50.59.838,LearnStrategy,2023.2.3,MacIntel,62.89308176,2,2,5,,,,,,,,4,03,,,,,,,,,,,1,0.839,0,,,,,,-0.367864583,-0.267868924,1,0,0,0.8391,Andesite_rect,4,0,4,0,1,
5d654282986878001c2a5db7,TCR,2024-06-20_13h50.59.838,LearnStrategy,2023.2.3,MacIntel,62.89308176,2,2,6,,,,,,,,7,02,,,,,,,,,,,7,0.887,1,,,,,,0.104609375,-0.394023438,1,0,0,0.8865,Peridotite_rect,5,0,5,0,1,
5d654282986878001c2a5db7,TCR,2024-06-20_13h50.59.838,LearnStrategy,2023.2.3,MacIntel,62.89308176,2,2,7,,,,,,,,6,12,,,,,,,,,,,6,0.927,1,,,,,,-0.147074653,-0.413958333,1,0,0,0.9271,Pegmatite_rect,6,0,6,0,1,
5d654282986878001c2a5db7,TCR,2024-06-20_13h50.59.838,LearnStrategy,2023.2.3,MacIntel,62.89308176,2,2,8,,,,,,,,5,07,,,,,,,,,,,5,0.859,1,,,,,,-0.361215278,-0.400190972,1,0,0,0.8592,Obsidian_rect,7,0,7,0,1,
5d654282986878001c2a5db7,TCR,2024-06-20_13h50.59.838,LearnStrategy,2023.2.3,MacIntel,62.89308176,2,2,9,,,,,,,,1,05,,,,,,,,,,,3,1.452,0,,,,,,0.122434896,-0.244874132,1,0,0,1.4519,Diorite_rect,8,0,8,0,1,
5d654282986878001c2a5db7,TCR,2024-06-20_13h50.59.838,LearnStrategy,2023.2.3,MacIntel,62.89308176,2,2,10,,,,,,,,2,14,,,,,,,,,,,8,1.994,0,,,,,,0.435750868,-0.413142361,1,0,0,1.9942,Pumice_rect,9,0,9,0,1,
5d654282986878001c2a5db7,TCR,2024-06-20_13h50.59.838,LearnStrategy,2023.2.3,MacIntel,62.89308176,2,2,11,,,,,,,,8,14,,,,,,,,,,,8,1.675,1,,,,,,0.416145833,-0.399470486,1,0,0,1.6748,Pumice_rect,10,0,10,0,1,
5d654282986878001c2a5db7,TCR,2024-06-20_13h50.59.838,LearnStrategy,2023.2.3,MacIntel,62.89308176,2,2,12,,,,,,,,5,14,,,,,,,,,,,5,1.024,1,,,,,,-0.393168403,-0.414956597,1,0,0,1.0243,Obsidian_rect,11,0,11,0,1,
5d654282986878001c2a5db7,TCR,2024-06-20_13h50.59.838,LearnStrategy,2023.2.3,MacIntel,62.89308176,2,2,13,,,,,,,,3,12,,,,,,,,,,,3,0.993,1,,,,,,0.179648438,-0.270694444,1,0,0,0.9933,Diorite_rect,12,0,12,0,1,
5d654282986878001c2a5db7,TCR,2024-06-20_13h50.59.838,LearnStrategy,2023.2.3,MacIntel,62.89308176,2,2,14,,,,,,,,3,13,,,,,,,,,,,3,1.656,1,,,,,,0.139205729,-0.26171875,1,0,0,1.656,Diorite_rect,13,0,13,0,1,
5d654282986878001c2a5db7,TCR,2024-06-20_13h50.59.838,LearnStrategy,2023.2.3,MacIntel,62.89308176,2,2,15,,,,,,,,6,16,,,,,,,,,,,6,1.371,1,,,,,,-0.148532986,-0.418480903,1,0,0,1.3709,Pegmatite_rect,14,0,14,0,1,
5d654282986878001c2a5db7,TCR,2024-06-20_13h50.59.838,LearnStrategy,2023.2.3,MacIntel,62.89308176,2,2,16,,,,,,,,4,09,,,,,,,,,,,1,1.239,0,,,,,,-0.407395833,-0.240217014,1,0,0,1.2394,Andesite_rect,15,0,15,0,1,
5d654282986878001c2a5db7,TCR,2024-06-20_13h50.59.838,LearnStrategy,2023.2.3,MacIntel,62.89308176,3,1,1,0.141276042,0.012890625,1,0,0,0.9145,rock_grid_rect_2,2,16,-1,-1,0.915,-0.338888889,-0.243268229,1,0,0,1.4416,Andesite_rect,1,1.442,0,0,0,0,0,1,,,,,,,,,,,,,
5d654282986878001c2a5db7,TCR,2024-06-20_13h50.59.838,LearnStrategy,2023.2.3,MacIntel,62.89308176,3,1,2,-0.052447917,-0.010355903,1,0,0,0.865,rock_grid_rect_2,1,16,-1,-1,0.865,-0.052434896,-0.403454861,1,0,0,2.5777,Pegmatite_rect,6,2.578,0,1,0,1,0,1,,,,,,,,,,,,,
5d654282986878001c2a5db7,TCR,2024-06-20_13h50.59.838,LearnStrategy,2023.2.3,MacIntel,62.89308176,3,1,3,-0.001914062,0.009717882,1,0,0,0.7482,rock_grid_rect_2,4,08,-1,-1,0.748,-0.354453125,-0.239774306,1,0,0,1.375,Andesite_rect,1,1.375,0,2,0,2,0,1,,,,,,,,,,,,,
5d654282986878001c2a5db7,TCR,2024-06-20_13h50.59.838,LearnStrategy,2023.2.3,MacIntel,62.89308176,3,1,4,-0.088402778,-0.008333333,1,0,0,0.8157,rock_grid_rect_2,6,05,-1,-1,0.816,-0.129505208,-0.403858507,1,0,0,1.7804,Pegmatite_rect,6,1.78,1,3,0,3,0,1,,,,,,,,,,,,,
5d654282986878001c2a5db7,TCR,2024-06-20_13h50.59.838,LearnStrategy,2023.2.3,MacIntel,62.89308176,3,1,5,-0.02671875,-0.001462674,1,0,0,0.9156,rock_grid_rect_2,4,08,-1,-1,0.916,-0.372013889,-0.261662326,1,0,0,1.2028,Andesite_rect,1,1.203,0,4,0,4,0,1,,,,,,,,,,,,,
5d654282986878001c2a5db7,TCR,2024-06-20_13h50.59.838,LearnStrategy,2023.2.3,MacIntel,62.89308176,3,1,6,-0.053450521,0.017864583,1,0,0,0.7304,rock_grid_rect_2,1,02,-1,-1,0.73,0.333376736,-0.249644097,1,0,0,2.2447,Gabbro_rect,4,2.245,0,5,0,5,0,1,,,,,,,,,,,,,
5d654282986878001c2a5db7,TCR,2024-06-20_13h50.59.838,LearnStrategy,2023.2.3,MacIntel,62.89308176,3,1,7,-0.025481771,-0.012604167,1,0,0,0.749,rock_grid_rect_2,3,15,-1,-1,0.749,0.160824653,-0.255065104,1,0,0,1.0317,Diorite_rect,3,1.032,1,6,0,6,0,1,,,,,,,,,,,,,
5d654282986878001c2a5db7,TCR,2024-06-20_13h50.59.838,LearnStrategy,2023.2.3,MacIntel,62.89308176,3,1,8,-0.057543403,-0.013090278,1,0,0,0.6818,rock_grid_rect_2,4,13,-1,-1,0.682,0.143763021,-0.245998264,1,0,0,0.9428,Diorite_rect,3,0.943,0,7,0,7,0,1,,,,,,,,,,,,,
5d654282986878001c2a5db7,TCR,2024-06-20_13h50.59.838,LearnStrategy,2023.2.3,MacIntel,62.89308176,3,1,9,0.010768229,-0.01047309,1,0,0,0.4984,rock_grid_rect_2,8,05,-1,-1,0.498,0.452699653,-0.404661458,1,0,0,1.7502,Pumice_rect,8,1.75,1,8,0,8,0,1,,,,,,,,,,,,,
5d654282986878001c2a5db7,TCR,2024-06-20_13h50.59.838,LearnStrategy,2023.2.3,MacIntel,62.89308176,3,1,10,0.005590278,-0.016445312,1,0,0,0.5155,rock_grid_rect_2,2,11,-1,-1,0.516,0.453398437,-0.410833333,1,0,0,1.9009,Pumice_rect,8,1.901,0,9,0,9,0,1,,,,,,,,,,,,,
5d654282986878001c2a5db7,TCR,2024-06-20_13h50.59.838,LearnStrategy,2023.2.3,MacIntel,62.89308176,3,1,11,-0.087196181,-0.017074653,1,0,0,0.8649,rock_grid_rect_2,4,15,-1,-1,0.865,0.187369792,-0.244435764,1,0,0,1.1577,Diorite_rect,3,1.158,0,10,0,10,0,1,,,,,,,,,,,,,
5d654282986878001c2a5db7,TCR,2024-06-20_13h50.59.838,LearnStrategy,2023.2.3,MacIntel,62.89308176,3,1,12,-0.06890191,0.011631944,1,0,0,0.7479,rock_grid_rect_2,4,05,-1,-1,0.748,-0.10546875,-0.38749566,1,0,0,1.0652,Pegmatite_rect,6,1.065,0,11,0,11,0,1,,,,,,,,,,,,,
5d654282986878001c2a5db7,TCR,2024-06-20_13h50.59.838,LearnStrategy,2023.2.3,MacIntel,62.89308176,3,1,13,-0.026948785,-3.03819E-05,1,0,0,0.6819,rock_grid_rect_2,1,07,-1,-1,0.682,0.332296007,-0.247795139,1,0,0,2.0641,Gabbro_rect,4,2.064,0,12,0,12,0,1,,,,,,,,,,,,,
5d654282986878001c2a5db7,TCR,2024-06-20_13h50.59.838,LearnStrategy,2023.2.3,MacIntel,62.89308176,3,1,14,-0.000616319,-0.00406684,1,0,0,0.8148,rock_grid_rect_2,4,11,-1,-1,0.815,-0.377999132,-0.230481771,1,0,0,1.3113,Andesite_rect,1,1.311,0,13,0,13,0,1,,,,,,,,,,,,,
5d654282986878001c2a5db7,TCR,2024-06-20_13h50.59.838,LearnStrategy,2023.2.3,MacIntel,62.89308176,3,1,15,-0.023875868,0.006115451,1,0,0,0.799,rock_grid_rect_2,3,16,-1,-1,0.799,0.163637153,-0.243107639,1,0,0,0.9523,Diorite_rect,3,0.952,1,14,0,14,0,1,,,,,,,,,,,,,
5d654282986878001c2a5db7,TCR,2024-06-20_13h50.59.838,LearnStrategy,2023.2.3,MacIntel,62.89308176,3,1,16,0.021909722,0.009973958,1,0,0,0.6151,rock_grid_rect_2,1,03,-1,-1,0.615,-0.371888021,-0.259014757,1,0,0,1.2669,Andesite_rect,1,1.267,1,15,0,15,0,1,,,,,,,,,,,,,
5d654282986878001c2a5db7,TCR,2024-06-20_13h50.59.838,LearnStrategy,2023.2.3,MacIntel,62.89308176,3,2,1,,,,,,,,8,02,,,,,,,,,,,8,1.043,1,,,,,,0.437491319,-0.383485243,1,0,0,1.0435,Pumice_rect,0,0,0,0,1,
5d654282986878001c2a5db7,TCR,2024-06-20_13h50.59.838,LearnStrategy,2023.2.3,MacIntel,62.89308176,3,2,2,,,,,,,,6,09,,,,,,,,,,,7,3.1,0,,,,,,0.130269097,-0.39780816,1,0,0,3.0995,Peridotite_rect,1,0,1,0,1,
5d654282986878001c2a5db7,TCR,2024-06-20_13h50.59.838,LearnStrategy,2023.2.3,MacIntel,62.89308176,3,2,3,,,,,,,,1,10,,,,,,,,,,,1,1.571,1,,,,,,-0.360494792,-0.252604167,1,0,0,1.5707,Andesite_rect,2,0,2,0,1,
5d654282986878001c2a5db7,TCR,2024-06-20_13h50.59.838,LearnStrategy,2023.2.3,MacIntel,62.89308176,3,2,4,,,,,,,,5,16,,,,,,,,,,,5,1.162,1,,,,,,-0.303138021,-0.39531684,1,0,0,1.1623,Obsidian_rect,3,0,3,0,1,
5d654282986878001c2a5db7,TCR,2024-06-20_13h50.59.838,LearnStrategy,2023.2.3,MacIntel,62.89308176,3,2,5,,,,,,,,2,06,,,,,,,,,,,2,0.88,1,,,,,,-0.130707465,-0.260347222,1,0,0,0.8802,Basalt_rect,4,0,4,0,1,
5d654282986878001c2a5db7,TCR,2024-06-20_13h50.59.838,LearnStrategy,2023.2.3,MacIntel,62.89308176,3,2,6,,,,,,,,3,08,,,,,,,,,,,3,2.594,1,,,,,,0.129583333,-0.251037326,1,0,0,2.5937,Diorite_rect,5,0,5,0,1,
5d654282986878001c2a5db7,TCR,2024-06-20_13h50.59.838,LearnStrategy,2023.2.3,MacIntel,62.89308176,3,2,7,,,,,,,,7,13,,,,,,,,,,,7,0.936,1,,,,,,0.114943576,-0.397743056,1,0,0,0.9358,Peridotite_rect,6,0,6,0,1,
5d654282986878001c2a5db7,TCR,2024-06-20_13h50.59.838,LearnStrategy,2023.2.3,MacIntel,62.89308176,3,2,8,,,,,,,,8,06,,,,,,,,,,,8,1.305,1,,,,,,0.347074653,-0.397478299,1,0,0,1.3047,Pumice_rect,7,0,7,0,1,
5d654282986878001c2a5db7,TCR,2024-06-20_13h50.59.838,LearnStrategy,2023.2.3,MacIntel,62.89308176,3,2,9,,,,,,,,6,07,,,,,,,,,,,6,1.337,1,,,,,,-0.070898437,-0.414149306,1,0,0,1.337,Pegmatite_rect,8,0,8,0,1,
5d654282986878001c2a5db7,TCR,2024-06-20_13h50.59.838,LearnStrategy,2023.2.3,MacIntel,62.89308176,3,2,10,,,,,,,,5,09,,,,,,,,,,,5,0.893,1,,,,,,-0.366219618,-0.398467882,1,0,0,0.8931,Obsidian_rect,9,0,9,0,1,
5d654282986878001c2a5db7,TCR,2024-06-20_13h50.59.838,LearnStrategy,2023.2.3,MacIntel,62.89308176,3,2,11,,,,,,,,7,04,,,,,,,,,,,6,1.278,0,,,,,,-0.124900174,-0.392990451,1,0,0,1.2779,Pegmatite_rect,10,0,10,0,1,
5d654282986878001c2a5db7,TCR,2024-06-20_13h50.59.838,LearnStrategy,2023.2.3,MacIntel,62.89308176,3,2,12,,,,,,,,4,01,,,,,,,,,,,6,1.786,0,,,,,,-0.082717014,-0.398164063,1,0,0,1.7856,Pegmatite_rect,11,0,11,0,1,
5d654282986878001c2a5db7,TCR,2024-06-20_13h50.59.838,LearnStrategy,2023.2.3,MacIntel,62.89308176,3,2,13,,,,,,,,1,14,,,,,,,,,,,6,0.806,0,,,,,,-0.082717014,-0.398164063,1,0,0,0.8056,Pegmatite_rect,12,0,12,0,1,
5d654282986878001c2a5db7,TCR,2024-06-20_13h50.59.838,LearnStrategy,2023.2.3,MacIntel,62.89308176,3,2,14,,,,,,,,2,01,,,,,,,,,,,2,0.909,1,,,,,,-0.134418403,-0.265789931,1,0,0,0.9089,Basalt_rect,13,0,13,0,1,
5d654282986878001c2a5db7,TCR,2024-06-20_13h50.59.838,LearnStrategy,2023.2.3,MacIntel,62.89308176,3,2,15,,,,,,,,4,16,,,,,,,,,,,1,2.201,0,,,,,,-0.385711806,-0.235086806,1,0,0,2.2008,Andesite_rect,14,0,14,0,1,
5d654282986878001c2a5db7,TCR,2024-06-20_13h50.59.838,LearnStrategy,2023.2.3,MacIntel,62.89308176,3,2,16,,,,,,,,3,06,,,,,,,,,,,3,1.012,1,,,,,,0.132408854,-0.236688368,1,0,0,1.0125,Diorite_rect,15,0,15,0,1,
5d654282986878001c2a5db7,TCR,2024-06-20_13h50.59.838,LearnStrategy,2023.2.3,MacIntel,62.89308176,4,1,1,-0.041323785,-0.007951389,1,0,0,0.865,rock_grid_rect_2,4,11,-1,-1,0.865,-0.388489583,-0.259092882,1,0,0,1.9621,Andesite_rect,1,1.962,0,0,0,0,0,1,,,,,,,,,,,,,
5d654282986878001c2a5db7,TCR,2024-06-20_13h50.59.838,LearnStrategy,2023.2.3,MacIntel,62.89308176,4,1,2,-0.084835069,-0.012565104,1,0,0,1.2485,rock_grid_rect_2,4,05,-1,-1,1.249,0.125633681,-0.249470486,1,0,0,1.2685,Diorite_rect,3,1.269,0,1,0,1,0,1,,,,,,,,,,,,,
5d654282986878001c2a5db7,TCR,2024-06-20_13h50.59.838,LearnStrategy,2023.2.3,MacIntel,62.89308176,4,1,3,-0.033710938,0.000355903,1,0,0,2.5814,rock_grid_rect_2,7,10,-1,-1,2.581,0.083563368,-0.402213542,1,0,0,2.3393,Peridotite_rect,7,2.339,1,2,0,2,0,1,,,,,,,,,,,,,
5d654282986878001c2a5db7,TCR,2024-06-20_13h50.59.838,LearnStrategy,2023.2.3,MacIntel,62.89308176,4,1,4,-0.042595486,0.006640625,1,0,0,1.1319,rock_grid_rect_2,4,11,-1,-1,1.132,-0.33734375,-0.253155382,1,0,0,1.0816,Andesite_rect,1,1.082,0,3,0,3,0,1,,,,,,,,,,,,,
5d654282986878001c2a5db7,TCR,2024-06-20_13h50.59.838,LearnStrategy,2023.2.3,MacIntel,62.89308176,4,1,5,0.151935764,-0.012886285,1,0,0,0.782,rock_grid_rect_2,6,03,-1,-1,0.782,0.056345486,-0.391640625,1,0,0,1.7747,Peridotite_rect,7,1.775,0,4,0,4,0,1,,,,,,,,,,,,,
5d654282986878001c2a5db7,TCR,2024-06-20_13h50.59.838,LearnStrategy,2023.2.3,MacIntel,62.89308176,4,1,6,-0.013641493,0.011197917,1,0,0,0.866,rock_grid_rect_2,6,15,-1,-1,0.866,-0.094340278,-0.395581597,1,0,0,0.9612,Pegmatite_rect,6,0.961,1,5,0,5,0,1,,,,,,,,,,,,,
5d654282986878001c2a5db7,TCR,2024-06-20_13h50.59.838,LearnStrategy,2023.2.3,MacIntel,62.89308176,4,1,7,-0.002899306,-0.005920139,1,0,0,0.7648,rock_grid_rect_2,8,04,-1,-1,0.765,0.371740451,-0.403085937,1,0,0,1.4639,Pumice_rect,8,1.464,1,6,0,6,0,1,,,,,,,,,,,,,
5d654282986878001c2a5db7,TCR,2024-06-20_13h50.59.838,LearnStrategy,2023.2.3,MacIntel,62.89308176,4,1,8,-0.065013021,-0.014175347,1,0,0,0.7308,rock_grid_rect_2,4,05,-1,-1,0.731,-0.326349826,-0.265907118,1,0,0,1.8972,Andesite_rect,1,1.897,0,7,0,7,0,1,,,,,,,,,,,,,
5d654282986878001c2a5db7,TCR,2024-06-20_13h50.59.838,LearnStrategy,2023.2.3,MacIntel,62.89308176,4,1,9,-0.054153646,-0.007903646,1,0,0,0.7479,rock_grid_rect_2,4,12,-1,-1,0.748,-0.373958333,-0.26391059,1,0,0,1.1764,Andesite_rect,1,1.176,0,8,0,8,0,1,,,,,,,,,,,,,
5d654282986878001c2a5db7,TCR,2024-06-20_13h50.59.838,LearnStrategy,2023.2.3,MacIntel,62.89308176,4,1,10,-0.009665799,0.000611979,1,0,0,0.5158,rock_grid_rect_2,7,16,-1,-1,0.516,0.114800347,-0.397213542,1,0,0,1.4212,Peridotite_rect,7,1.421,1,9,0,9,0,1,,,,,,,,,,,,,
5d654282986878001c2a5db7,TCR,2024-06-20_13h50.59.838,LearnStrategy,2023.2.3,MacIntel,62.89308176,4,1,11,-0.058133681,-0.010143229,1,0,0,0.7984,rock_grid_rect_2,2,16,-1,-1,0.798,-0.345794271,-0.254965278,1,0,0,5.2458,Andesite_rect,1,5.246,0,10,0,10,0,1,,,,,,,,,,,,,
5d654282986878001c2a5db7,TCR,2024-06-20_13h50.59.838,LearnStrategy,2023.2.3,MacIntel,62.89308176,4,1,12,-0.060060764,0.018706597,1,0,0,0.9151,rock_grid_rect_2,1,04,-1,-1,0.915,0.097378472,-0.242387153,1,0,0,1.2611,Diorite_rect,3,1.261,0,11,0,11,0,1,,,,,,,,,,,,,
5d654282986878001c2a5db7,TCR,2024-06-20_13h50.59.838,LearnStrategy,2023.2.3,MacIntel,62.89308176,4,1,13,-0.013502604,-0.002178819,1,0,0,0.698,rock_grid_rect_2,1,02,-1,-1,0.698,0.412374132,-0.240954861,1,0,0,1.4457,Gabbro_rect,4,1.446,0,12,0,12,0,1,,,,,,,,,,,,,
5d654282986878001c2a5db7,TCR,2024-06-20_13h50.59.838,LearnStrategy,2023.2.3,MacIntel,62.89308176,4,1,14,-0.022291667,-0.005859375,1,0,0,3.5993,rock_grid_rect_2,5,11,-1,-1,3.599,-0.348350694,-0.405490451,1,0,0,0.9843,Obsidian_rect,5,0.984,1,13,0,13,0,1,,,,,,,,,,,,,
5d654282986878001c2a5db7,TCR,2024-06-20_13h50.59.838,LearnStrategy,2023.2.3,MacIntel,62.89308176,4,1,15,-0.013637153,-0.0159375,1,0,0,4.0161,rock_grid_rect_2,3,07,-1,-1,4.016,0.095329861,-0.254817708,1,0,0,1.6208,Diorite_rect,3,1.621,1,14,0,14,0,1,,,,,,,,,,,,,
5d654282986878001c2a5db7,TCR,2024-06-20_13h50.59.838,LearnStrategy,2023.2.3,MacIntel,62.89308176,4,1,16,-0.080425347,0.016128472,1,0,0,0.6821,rock_grid_rect_2,1,16,-1,-1,0.682,-0.091202257,-0.404427083,1,0,0,21.3011,Pegmatite_rect,6,21.301,0,15,0,15,0,1,,,,,,,,,,,,,
5d654282986878001c2a5db7,TCR,2024-06-20_13h50.59.838,LearnStrategy,2023.2.3,MacIntel,62.89308176,4,2,1,,,,,,,,6,13,,,,,,,,,,,6,1.01,1,,,,,,-0.113333333,-0.407100694,1,0,0,1.0097,Pegmatite_rect,0,0,0,0,1,
5d654282986878001c2a5db7,TCR,2024-06-20_13h50.59.838,LearnStrategy,2023.2.3,MacIntel,62.89308176,4,2,2,,,,,,,,5,12,,,,,,,,,,,5,2.195,1,,,,,,-0.387387153,-0.419105903,1,0,0,2.1952,Obsidian_rect,1,0,1,0,1,
5d654282986878001c2a5db7,TCR,2024-06-20_13h50.59.838,LearnStrategy,2023.2.3,MacIntel,62.89308176,4,2,3,,,,,,,,1,01,,,,,,,,,,,1,2.23,1,,,,,,-0.348723958,-0.244049479,1,0,0,2.2296,Andesite_rect,2,0,2,0,1,
5d654282986878001c2a5db7,TCR,2024-06-20_13h50.59.838,LearnStrategy,2023.2.3,MacIntel,62.89308176,4,2,4,,,,,,,,1,10,,,,,,,,,,,1,1.105,1,,,,,,-0.365299479,-0.264518229,1,0,0,1.1052,Andesite_rect,3,0,3,0,1,
5d654282986878001c2a5db7,TCR,2024-06-20_13h50.59.838,LearnStrategy,2023.2.3,MacIntel,62.89308176,4,2,5,,,,,,,,8,09,,,,,,,,,,,8,0.944,1,,,,,,0.420668403,-0.407934028,1,0,0,0.944,Pumice_rect,4,0,4,0,1,
5d654282986878001c2a5db7,TCR,2024-06-20_13h50.59.838,LearnStrategy,2023.2.3,MacIntel,62.89308176,4,2,6,,,,,,,,7,13,,,,,,,,,,,7,0.963,1,,,,,,0.130746528,-0.410820313,1,0,0,0.9627,Peridotite_rect,5,0,5,0,1,
5d654282986878001c2a5db7,TCR,2024-06-20_13h50.59.838,LearnStrategy,2023.2.3,MacIntel,62.89308176,4,2,7,,,,,,,,3,10,,,,,,,,,,,3,1.86,1,,,,,,0.116657986,-0.244887153,1,0,0,1.8604,Diorite_rect,6,0,6,0,1,
5d654282986878001c2a5db7,TCR,2024-06-20_13h50.59.838,LearnStrategy,2023.2.3,MacIntel,62.89308176,4,2,8,,,,,,,,4,09,,,,,,,,,,,1,4.2,0,,,,,,-0.387821181,-0.267795139,1,0,0,4.2003,Andesite_rect,7,0,7,0,1,
5d654282986878001c2a5db7,TCR,2024-06-20_13h50.59.838,LearnStrategy,2023.2.3,MacIntel,62.89308176,4,2,9,,,,,,,,5,14,,,,,,,,,,,5,0.967,1,,,,,,-0.363758681,-0.400828993,1,0,0,0.9669,Obsidian_rect,8,0,8,0,1,
5d654282986878001c2a5db7,TCR,2024-06-20_13h50.59.838,LearnStrategy,2023.2.3,MacIntel,62.89308176,4,2,10,,,,,,,,7,15,,,,,,,,,,,7,0.912,1,,,,,,0.118272569,-0.420842014,1,0,0,0.9122,Peridotite_rect,9,0,9,0,1,
5d654282986878001c2a5db7,TCR,2024-06-20_13h50.59.838,LearnStrategy,2023.2.3,MacIntel,62.89308176,4,2,11,,,,,,,,6,09,,,,,,,,,,,7,2.672,0,,,,,,0.212065972,-0.419327257,1,0,0,2.6721,Peridotite_rect,10,0,10,0,1,
5d654282986878001c2a5db7,TCR,2024-06-20_13h50.59.838,LearnStrategy,2023.2.3,MacIntel,62.89308176,4,2,12,,,,,,,,2,10,,,,,,,,,,,2,4.158,1,,,,,,-0.127078993,-0.243203125,1,0,0,4.1576,Basalt_rect,11,0,11,0,1,
5d654282986878001c2a5db7,TCR,2024-06-20_13h50.59.838,LearnStrategy,2023.2.3,MacIntel,62.89308176,4,2,13,,,,,,,,8,14,,,,,,,,,,,8,1.113,1,,,,,,0.322977431,-0.419956597,1,0,0,1.1125,Pumice_rect,12,0,12,0,1,
5d654282986878001c2a5db7,TCR,2024-06-20_13h50.59.838,LearnStrategy,2023.2.3,MacIntel,62.89308176,4,2,14,,,,,,,,4,16,,,,,,,,,,,1,1.922,0,,,,,,-0.351210937,-0.259375,1,0,0,1.9217,Andesite_rect,13,0,13,0,1,
5d654282986878001c2a5db7,TCR,2024-06-20_13h50.59.838,LearnStrategy,2023.2.3,MacIntel,62.89308176,4,2,15,,,,,,,,2,14,,,,,,,,,,,8,2.309,0,,,,,,0.439340278,-0.412699653,1,0,0,2.3091,Pumice_rect,14,0,14,0,1,
5d654282986878001c2a5db7,TCR,2024-06-20_13h50.59.838,LearnStrategy,2023.2.3,MacIntel,62.89308176,4,2,16,,,,,,,,3,08,,,,,,,,,,,3,1.278,1,,,,,,0.127955729,-0.24250434,1,0,0,1.278,Diorite_rect,15,0,15,0,1,
5d654282986878001c2a5db7,TCR,2024-06-20_13h50.59.838,LearnStrategy,2023.2.3,MacIntel,62.89308176,5,1,1,-0.016037326,-0.017530382,1,0,0,1.1149,rock_grid_rect_2,1,04,-1,-1,1.115,-0.335503472,-0.258242187,1,0,0,2.845,Andesite_rect,1,2.845,1,0,0,0,0,1,,,,,,,,,,,,,
5d654282986878001c2a5db7,TCR,2024-06-20_13h50.59.838,LearnStrategy,2023.2.3,MacIntel,62.89308176,5,1,2,-0.015421007,-0.004648437,1,0,0,0.8472,rock_grid_rect_2,4,11,-1,-1,0.847,-0.340117187,-0.256085069,1,0,0,1.0093,Andesite_rect,1,1.009,0,1,0,1,0,1,,,,,,,,,,,,,
5d654282986878001c2a5db7,TCR,2024-06-20_13h50.59.838,LearnStrategy,2023.2.3,MacIntel,62.89308176,5,1,3,-0.028763021,0.004895833,1,0,0,0.6654,rock_grid_rect_2,6,03,-1,-1,0.665,0.16062066,-0.415008681,1,0,0,1.3693,Peridotite_rect,7,1.369,0,2,0,2,0,1,,,,,,,,,,,,,
5d654282986878001c2a5db7,TCR,2024-06-20_13h50.59.838,LearnStrategy,2023.2.3,MacIntel,62.89308176,5,1,4,-0.031124132,0.003450521,1,0,0,0.7662,rock_grid_rect_2,3,02,-1,-1,0.766,0.159305556,-0.229110243,1,0,0,0.8359,Diorite_rect,3,0.836,1,3,0,3,0,1,,,,,,,,,,,,,
5d654282986878001c2a5db7,TCR,2024-06-20_13h50.59.838,LearnStrategy,2023.2.3,MacIntel,62.89308176,5,1,5,0.049405382,0.008580729,1,0,0,0.5979,rock_grid_rect_2,4,11,-1,-1,0.598,-0.356388889,-0.247048611,1,0,0,1.4865,Andesite_rect,1,1.486,0,4,0,4,0,1,,,,,,,,,,,,,
5d654282986878001c2a5db7,TCR,2024-06-20_13h50.59.838,LearnStrategy,2023.2.3,MacIntel,62.89308176,5,1,6,-0.037513021,0.004548611,1,0,0,0.5653,rock_grid_rect_2,1,16,-1,-1,0.565,-0.111063368,-0.393376736,1,0,0,2.2149,Pegmatite_rect,6,2.215,0,5,0,5,0,1,,,,,,,,,,,,,
5d654282986878001c2a5db7,TCR,2024-06-20_13h50.59.838,LearnStrategy,2023.2.3,MacIntel,62.89308176,5,1,7,-0.011653646,0.014596354,1,0,0,0.5984,rock_grid_rect_2,4,08,-1,-1,0.598,-0.364023437,-0.260043403,1,0,0,1.2875,Andesite_rect,1,1.288,0,6,0,6,0,1,,,,,,,,,,,,,
5d654282986878001c2a5db7,TCR,2024-06-20_13h50.59.838,LearnStrategy,2023.2.3,MacIntel,62.89308176,5,1,8,0.045377604,0.009353299,1,0,0,0.5811,rock_grid_rect_2,5,11,-1,-1,0.581,-0.386436632,-0.387170139,1,0,0,1.7508,Obsidian_rect,5,1.751,1,7,0,7,0,1,,,,,,,,,,,,,
5d654282986878001c2a5db7,TCR,2024-06-20_13h50.59.838,LearnStrategy,2023.2.3,MacIntel,62.89308176,5,1,9,-0.021197917,0.014027778,1,0,0,0.7653,rock_grid_rect_2,6,06,-1,-1,0.765,-0.142013889,-0.413723958,1,0,0,4.5152,Pegmatite_rect,6,4.515,1,8,0,8,0,1,,,,,,,,,,,,,
5d654282986878001c2a5db7,TCR,2024-06-20_13h50.59.838,LearnStrategy,2023.2.3,MacIntel,62.89308176,5,1,10,0.00202691,-0.01797309,1,0,0,0.6159,rock_grid_rect_2,2,05,-1,-1,0.616,-0.08218316,-0.271909722,1,0,0,0.8586,Basalt_rect,2,0.859,1,9,0,9,0,1,,,,,,,,,,,,,
5d654282986878001c2a5db7,TCR,2024-06-20_13h50.59.838,LearnStrategy,2023.2.3,MacIntel,62.89308176,5,1,11,0.000416667,0.001414931,1,0,0,0.6155,rock_grid_rect_2,4,15,-1,-1,0.615,0.134118924,-0.262721354,1,0,0,4.3793,Diorite_rect,3,4.379,0,10,0,10,0,1,,,,,,,,,,,,,
5d654282986878001c2a5db7,TCR,2024-06-20_13h50.59.838,LearnStrategy,2023.2.3,MacIntel,62.89308176,5,1,12,0.013693576,-0.002756076,1,0,0,1.0822,rock_grid_rect_2,7,06,-1,-1,1.082,0.102821181,-0.416966146,1,0,0,0.9381,Peridotite_rect,7,0.938,1,11,0,11,0,1,,,,,,,,,,,,,
5d654282986878001c2a5db7,TCR,2024-06-20_13h50.59.838,LearnStrategy,2023.2.3,MacIntel,62.89308176,5,1,13,-0.004244792,-0.020733507,1,0,0,0.996,rock_grid_rect_2,8,04,-1,-1,0.996,0.425434028,-0.401354167,1,0,0,2.0233,Pumice_rect,8,2.023,1,12,0,12,0,1,,,,,,,,,,,,,
5d654282986878001c2a5db7,TCR,2024-06-20_13h50.59.838,LearnStrategy,2023.2.3,MacIntel,62.89308176,5,1,14,0.008033854,-0.001427951,1,0,0,0.7154,rock_grid_rect_2,4,05,-1,-1,0.715,-0.377300347,-0.271948785,1,0,0,2.418,Andesite_rect,1,2.418,0,13,0,13,0,1,,,,,,,,,,,,,
5d654282986878001c2a5db7,TCR,2024-06-20_13h50.59.838,LearnStrategy,2023.2.3,MacIntel,62.89308176,5,1,15,0.141284722,0.00984809,1,0,0,0.6327,rock_grid_rect_2,2,12,-1,-1,0.633,0.367625868,-0.384631076,1,0,0,1.0931,Pumice_rect,8,1.093,0,14,0,14,0,1,,,,,,,,,,,,,
5d654282986878001c2a5db7,TCR,2024-06-20_13h50.59.838,LearnStrategy,2023.2.3,MacIntel,62.89308176,5,1,16,0.020208333,-0.010056424,1,0,0,0.6814,rock_grid_rect_2,6,10,-1,-1,0.681,0.154192708,-0.391067708,1,0,0,1.0663,Peridotite_rect,7,1.066,0,15,0,15,0,1,,,,,,,,,,,,,
5d654282986878001c2a5db7,TCR,2024-06-20_13h50.59.838,LearnStrategy,2023.2.3,MacIntel,62.89308176,5,2,1,,,,,,,,1,14,,,,,,,,,,,6,1.31,0,,,,,,-0.085915799,-0.401024306,1,0,0,1.3098,Pegmatite_rect,0,0,0,0,1,
5d654282986878001c2a5db7,TCR,2024-06-20_13h50.59.838,LearnStrategy,2023.2.3,MacIntel,62.89308176,5,2,2,,,,,,,,6,07,,,,,,,,,,,6,0.774,1,,,,,,-0.11359375,-0.406896701,1,0,0,0.7737,Pegmatite_rect,1,0,1,0,1,
5d654282986878001c2a5db7,TCR,2024-06-20_13h50.59.838,LearnStrategy,2023.2.3,MacIntel,62.89308176,5,2,3,,,,,,,,2,08,,,,,,,,,,,2,0.794,1,,,,,,-0.126440972,-0.259800347,1,0,0,0.7944,Basalt_rect,2,0,2,0,1,
5d654282986878001c2a5db7,TCR,2024-06-20_13h50.59.838,LearnStrategy,2023.2.3,MacIntel,62.89308176,5,2,4,,,,,,,,7,14,,,,,,,,,,,1,3.845,0,,,,,,-0.370711806,-0.253637153,1,0,0,3.8452,Andesite_rect,3,0,3,0,1,
5d654282986878001c2a5db7,TCR,2024-06-20_13h50.59.838,LearnStrategy,2023.2.3,MacIntel,62.89308176,5,2,5,,,,,,,,2,01,,,,,,,,,,,2,0.829,1,,,,,,-0.185681424,-0.244774306,1,0,0,0.8293,Basalt_rect,4,0,4,0,1,
5d654282986878001c2a5db7,TCR,2024-06-20_13h50.59.838,LearnStrategy,2023.2.3,MacIntel,62.89308176,5,2,6,,,,,,,,4,10,,,,,,,,,,,1,1.034,0,,,,,,-0.360486111,-0.255195312,1,0,0,1.0335,Andesite_rect,5,0,5,0,1,
5d654282986878001c2a5db7,TCR,2024-06-20_13h50.59.838,LearnStrategy,2023.2.3,MacIntel,62.89308176,5,2,7,,,,,,,,8,15,,,,,,,,,,,8,0.911,1,,,,,,0.432287326,-0.421445313,1,0,0,0.9107,Pumice_rect,6,0,6,0,1,
5d654282986878001c2a5db7,TCR,2024-06-20_13h50.59.838,LearnStrategy,2023.2.3,MacIntel,62.89308176,5,2,8,,,,,,,,3,12,,,,,,,,,,,3,1.387,1,,,,,,0.148541667,-0.263719618,1,0,0,1.3866,Diorite_rect,7,0,7,0,1,
5d654282986878001c2a5db7,TCR,2024-06-20_13h50.59.838,LearnStrategy,2023.2.3,MacIntel,62.89308176,5,2,9,,,,,,,,3,13,,,,,,,,,,,3,0.696,1,,,,,,0.153289931,-0.249752604,1,0,0,0.6962,Diorite_rect,8,0,8,0,1,
5d654282986878001c2a5db7,TCR,2024-06-20_13h50.59.838,LearnStrategy,2023.2.3,MacIntel,62.89308176,5,2,10,,,,,,,,8,06,,,,,,,,,,,8,1.139,1,,,,,,0.402382813,-0.411835938,1,0,0,1.1389,Pumice_rect,9,0,9,0,1,
5d654282986878001c2a5db7,TCR,2024-06-20_13h50.59.838,LearnStrategy,2023.2.3,MacIntel,62.89308176,5,2,11,,,,,,,,5,16,,,,,,,,,,,5,0.955,1,,,,,,-0.374748264,-0.412452257,1,0,0,0.9548,Obsidian_rect,10,0,10,0,1,
5d654282986878001c2a5db7,TCR,2024-06-20_13h50.59.838,LearnStrategy,2023.2.3,MacIntel,62.89308176,5,2,12,,,,,,,,4,03,,,,,,,,,,,4,2.014,1,,,,,,0.432018229,-0.246987847,1,0,0,2.014,Gabbro_rect,11,0,11,0,1,
5d654282986878001c2a5db7,TCR,2024-06-20_13h50.59.838,LearnStrategy,2023.2.3,MacIntel,62.89308176,5,2,13,,,,,,,,1,09,,,,,,,,,,,1,2.245,1,,,,,,-0.378797743,-0.241727431,1,0,0,2.2448,Andesite_rect,12,0,12,0,1,
5d654282986878001c2a5db7,TCR,2024-06-20_13h50.59.838,LearnStrategy,2023.2.3,MacIntel,62.89308176,5,2,14,,,,,,,,5,09,,,,,,,,,,,5,0.813,1,,,,,,-0.375086806,-0.405503472,1,0,0,0.8134,Obsidian_rect,13,0,13,0,1,
5d654282986878001c2a5db7,TCR,2024-06-20_13h50.59.838,LearnStrategy,2023.2.3,MacIntel,62.89308176,5,2,15,,,,,,,,7,02,,,,,,,,,,,7,1.175,1,,,,,,0.139804687,-0.393519965,1,0,0,1.1753,Peridotite_rect,14,0,14,0,1,
5d654282986878001c2a5db7,TCR,2024-06-20_13h50.59.838,LearnStrategy,2023.2.3,MacIntel,62.89308176,5,2,16,,,,,,,,6,12,,,,,,,,,,,6,0.86,1,,,,,,-0.101202257,-0.398328993,1,0,0,0.8597,Pegmatite_rect,15,0,15,0,1,
5d654282986878001c2a5db7,TCR,2024-06-20_13h50.59.838,LearnStrategy,2023.2.3,MacIntel,62.89308176,6,1,1,-0.011996528,0.013741319,1,0,0,0.9319,rock_grid_rect_2,7,10,-1,-1,0.932,0.174097222,-0.408428819,1,0,0,0.9535,Peridotite_rect,7,0.953,1,0,0,0,0,1,,,,,,,,,,,,,
5d654282986878001c2a5db7,TCR,2024-06-20_13h50.59.838,LearnStrategy,2023.2.3,MacIntel,62.89308176,6,1,2,0.031861979,0.01233941,1,0,0,1.1312,rock_grid_rect_2,4,11,-1,-1,1.131,-0.363650174,-0.247122396,1,0,0,0.9984,Andesite_rect,1,0.998,0,1,0,1,0,1,,,,,,,,,,,,,
5d654282986878001c2a5db7,TCR,2024-06-20_13h50.59.838,LearnStrategy,2023.2.3,MacIntel,62.89308176,6,1,3,0.044231771,0.011371528,1,0,0,0.5815,rock_grid_rect_2,4,15,-1,-1,0.581,-0.318233507,-0.256510417,1,0,0,1.6441,Andesite_rect,1,1.644,0,2,0,2,0,1,,,,,,,,,,,,,
5d654282986878001c2a5db7,TCR,2024-06-20_13h50.59.838,LearnStrategy,2023.2.3,MacIntel,62.89308176,6,1,4,0.036675347,0.003519965,1,0,0,0.5986,rock_grid_rect_2,4,11,-1,-1,0.599,-0.340434028,-0.233337674,1,0,0,0.9919,Andesite_rect,1,0.992,0,3,0,3,0,1,,,,,,,,,,,,,
5d654282986878001c2a5db7,TCR,2024-06-20_13h50.59.838,LearnStrategy,2023.2.3,MacIntel,62.89308176,6,1,5,0.037617188,0.012139757,1,0,0,0.5487,rock_grid_rect_2,2,09,-1,-1,0.549,-0.109483507,-0.257100694,1,0,0,1.2889,Basalt_rect,2,1.289,1,4,0,4,0,1,,,,,,,,,,,,,
5d654282986878001c2a5db7,TCR,2024-06-20_13h50.59.838,LearnStrategy,2023.2.3,MacIntel,62.89308176,6,1,6,0.016835937,0.010238715,1,0,0,0.6817,rock_grid_rect_2,4,13,-1,-1,0.682,-0.389392361,-0.250581597,1,0,0,1.0855,Andesite_rect,1,1.086,0,5,0,5,0,1,,,,,,,,,,,,,
5d654282986878001c2a5db7,TCR,2024-06-20_13h50.59.838,LearnStrategy,2023.2.3,MacIntel,62.89308176,6,1,7,0.050876736,0.017491319,1,0,0,0.8483,rock_grid_rect_2,6,05,-1,-1,0.848,-0.104335938,-0.406440972,1,0,0,1.3788,Pegmatite_rect,6,1.379,1,6,0,6,0,1,,,,,,,,,,,,,
5d654282986878001c2a5db7,TCR,2024-06-20_13h50.59.838,LearnStrategy,2023.2.3,MacIntel,62.89308176,6,1,8,-0.037925347,-0.003450521,1,0,0,0.7146,rock_grid_rect_2,1,16,-1,-1,0.715,0.365095486,-0.256501736,1,0,0,1.4709,Gabbro_rect,4,1.471,0,7,0,7,0,1,,,,,,,,,,,,,
5d654282986878001c2a5db7,TCR,2024-06-20_13h50.59.838,LearnStrategy,2023.2.3,MacIntel,62.89308176,6,1,9,0.021497396,0.013446181,1,0,0,0.6315,rock_grid_rect_2,1,02,-1,-1,0.632,0.370434028,-0.268532986,1,0,0,1.1966,Gabbro_rect,4,1.197,0,8,0,8,0,1,,,,,,,,,,,,,
5d654282986878001c2a5db7,TCR,2024-06-20_13h50.59.838,LearnStrategy,2023.2.3,MacIntel,62.89308176,6,1,10,0.006940104,-0.007269965,1,0,0,1.1812,rock_grid_rect_2,6,03,-1,-1,1.181,0.129079861,-0.388394097,1,0,0,0.8937,Peridotite_rect,7,0.894,0,9,0,9,0,1,,,,,,,,,,,,,
5d654282986878001c2a5db7,TCR,2024-06-20_13h50.59.838,LearnStrategy,2023.2.3,MacIntel,62.89308176,6,1,11,0.025603299,0.001145833,1,0,0,0.8482,rock_grid_rect_2,3,02,-1,-1,0.848,0.422769097,-0.256584201,1,0,0,1.1378,Gabbro_rect,4,1.138,0,10,0,10,0,1,,,,,,,,,,,,,
5d654282986878001c2a5db7,TCR,2024-06-20_13h50.59.838,LearnStrategy,2023.2.3,MacIntel,62.89308176,6,1,12,0.042751736,0.012217882,1,0,0,0.615,rock_grid_rect_2,5,02,-1,-1,0.615,-0.369383681,-0.416158854,1,0,0,1.0545,Obsidian_rect,5,1.055,1,11,0,11,0,1,,,,,,,,,,,,,
5d654282986878001c2a5db7,TCR,2024-06-20_13h50.59.838,LearnStrategy,2023.2.3,MacIntel,62.89308176,6,1,13,-0.005186632,0.015516493,1,0,0,0.5979,rock_grid_rect_2,7,08,-1,-1,0.598,0.123502604,-0.39672309,1,0,0,1.2319,Peridotite_rect,7,1.232,1,12,0,12,0,1,,,,,,,,,,,,,
5d654282986878001c2a5db7,TCR,2024-06-20_13h50.59.838,LearnStrategy,2023.2.3,MacIntel,62.89308176,6,1,14,-0.012092014,-0.014960938,1,0,0,0.6641,rock_grid_rect_2,4,08,-1,-1,0.664,0.40203125,-0.245724826,1,0,0,2.5764,Gabbro_rect,4,2.576,1,13,0,13,0,1,,,,,,,,,,,,,
5d654282986878001c2a5db7,TCR,2024-06-20_13h50.59.838,LearnStrategy,2023.2.3,MacIntel,62.89308176,6,1,15,0.040390625,0.004331597,1,0,0,0.5145,rock_grid_rect_2,1,04,-1,-1,0.514,-0.344548611,-0.265225694,1,0,0,1.8338,Andesite_rect,1,1.834,1,14,0,14,0,1,,,,,,,,,,,,,
5d654282986878001c2a5db7,TCR,2024-06-20_13h50.59.838,LearnStrategy,2023.2.3,MacIntel,62.89308176,6,1,16,-0.000416667,0.005429687,1,0,0,0.6983,rock_grid_rect_2,8,10,-1,-1,0.698,0.397947049,-0.418480903,1,0,0,1.163,Pumice_rect,8,1.163,1,15,0,15,0,1,,,,,,,,,,,,,
5d654282986878001c2a5db7,TCR,2024-06-20_13h50.59.838,LearnStrategy,2023.2.3,MacIntel,62.89308176,6,2,1,,,,,,,,2,02,,,,,,,,,,,2,1.249,1,,,,,,-0.13483941,-0.232556424,1,0,0,1.249,Basalt_rect,0,0,0,0,1,
5d654282986878001c2a5db7,TCR,2024-06-20_13h50.59.838,LearnStrategy,2023.2.3,MacIntel,62.89308176,6,2,2,,,,,,,,8,02,,,,,,,,,,,8,0.868,1,,,,,,0.413346354,-0.392782118,1,0,0,0.8684,Pumice_rect,1,0,1,0,1,
5d654282986878001c2a5db7,TCR,2024-06-20_13h50.59.838,LearnStrategy,2023.2.3,MacIntel,62.89308176,6,2,3,,,,,,,,4,01,,,,,,,,,,,4,2.228,1,,,,,,0.335412326,-0.248958333,1,0,0,2.2278,Gabbro_rect,2,0,2,0,1,
5d654282986878001c2a5db7,TCR,2024-06-20_13h50.59.838,LearnStrategy,2023.2.3,MacIntel,62.89308176,6,2,4,,,,,,,,3,06,,,,,,,,,,,3,1.368,1,,,,,,0.151354167,-0.249166667,1,0,0,1.3683,Diorite_rect,3,0,3,0,1,
5d654282986878001c2a5db7,TCR,2024-06-20_13h50.59.838,LearnStrategy,2023.2.3,MacIntel,62.89308176,6,2,5,,,,,,,,4,14,,,,,,,,,,,4,1.424,1,,,,,,0.384787326,-0.262382813,1,0,0,1.4236,Gabbro_rect,4,0,4,0,1,
5d654282986878001c2a5db7,TCR,2024-06-20_13h50.59.838,LearnStrategy,2023.2.3,MacIntel,62.89308176,6,2,6,,,,,,,,7,07,,,,,,,,,,,7,1.007,1,,,,,,0.146054688,-0.419874132,1,0,0,1.0075,Peridotite_rect,5,0,5,0,1,
5d654282986878001c2a5db7,TCR,2024-06-20_13h50.59.838,LearnStrategy,2023.2.3,MacIntel,62.89308176,6,2,7,,,,,,,,5,07,,,,,,,,,,,5,1.207,1,,,,,,-0.364743924,-0.407773438,1,0,0,1.2074,Obsidian_rect,6,0,6,0,1,
5d654282986878001c2a5db7,TCR,2024-06-20_13h50.59.838,LearnStrategy,2023.2.3,MacIntel,62.89308176,6,2,8,,,,,,,,3,09,,,,,,,,,,,3,1.772,1,,,,,,0.166419271,-0.246080729,1,0,0,1.7718,Diorite_rect,7,0,7,0,1,
5d654282986878001c2a5db7,TCR,2024-06-20_13h50.59.838,LearnStrategy,2023.2.3,MacIntel,62.89308176,6,2,9,,,,,,,,7,04,,,,,,,,,,,6,1.761,0,,,,,,-0.128216146,-0.390685764,1,0,0,1.7605,Pegmatite_rect,8,0,8,0,1,
5d654282986878001c2a5db7,TCR,2024-06-20_13h50.59.838,LearnStrategy,2023.2.3,MacIntel,62.89308176,6,2,10,,,,,,,,1,06,,,,,,,,,,,1,1.156,1,,,,,,-0.378372396,-0.243680556,1,0,0,1.1558,Andesite_rect,9,0,9,0,1,
5d654282986878001c2a5db7,TCR,2024-06-20_13h50.59.838,LearnStrategy,2023.2.3,MacIntel,62.89308176,6,2,11,,,,,,,,6,16,,,,,,,,,,,6,0.877,1,,,,,,-0.174900174,-0.388893229,1,0,0,0.8772,Pegmatite_rect,10,0,10,0,1,
5d654282986878001c2a5db7,TCR,2024-06-20_13h50.59.838,LearnStrategy,2023.2.3,MacIntel,62.89308176,6,2,12,,,,,,,,8,03,,,,,,,,,,,8,0.899,1,,,,,,0.421349826,-0.415039063,1,0,0,0.8989,Pumice_rect,11,0,11,0,1,
5d654282986878001c2a5db7,TCR,2024-06-20_13h50.59.838,LearnStrategy,2023.2.3,MacIntel,62.89308176,6,2,13,,,,,,,,5,08,,,,,,,,,,,5,0.935,1,,,,,,-0.370885417,-0.404926215,1,0,0,0.9346,Obsidian_rect,12,0,12,0,1,
5d654282986878001c2a5db7,TCR,2024-06-20_13h50.59.838,LearnStrategy,2023.2.3,MacIntel,62.89308176,6,2,14,,,,,,,,1,05,,,,,,,,,,,4,2.29,0,,,,,,0.337799479,-0.246996528,1,0,0,2.2901,Gabbro_rect,13,0,13,0,1,
5d654282986878001c2a5db7,TCR,2024-06-20_13h50.59.838,LearnStrategy,2023.2.3,MacIntel,62.89308176,6,2,15,,,,,,,,6,08,,,,,,,,,,,6,0.838,1,,,,,,-0.072513021,-0.384461806,1,0,0,0.8381,Pegmatite_rect,14,0,14,0,1,
5d654282986878001c2a5db7,TCR,2024-06-20_13h50.59.838,LearnStrategy,2023.2.3,MacIntel,62.89308176,6,2,16,,,,,,,,2,06,,,,,,,,,,,2,0.874,1,,,,,,-0.096597222,-0.245368924,1,0,0,0.8739,Basalt_rect,15,0,15,0,1,
5d654282986878001c2a5db7,TCR,2024-06-20_13h50.59.838,LearnStrategy,2023.2.3,MacIntel,62.89308176,7,1,1,0.011276042,0.011710069,1,0,0,1.2495,rock_grid_rect_2,4,05,-1,-1,1.249,0.421488715,-0.257712674,1,0,0,1.5654,Gabbro_rect,4,1.565,1,0,0,0,0,1,,,,,,,,,,,,,
5d654282986878001c2a5db7,TCR,2024-06-20_13h50.59.838,LearnStrategy,2023.2.3,MacIntel,62.89308176,7,1,2,0.126111111,0.002239583,1,0,0,1.4142,rock_grid_rect_2,4,12,-1,-1,1.414,0.397478299,-0.240729167,1,0,0,0.7523,Gabbro_rect,4,0.752,1,1,0,1,0,1,,,,,,,,,,,,,
5d654282986878001c2a5db7,TCR,2024-06-20_13h50.59.838,LearnStrategy,2023.2.3,MacIntel,62.89308176,7,1,3,0.045208333,0.0015625,1,0,0,0.4813,rock_grid_rect_2,1,02,-1,-1,0.481,-0.392821181,-0.238819444,1,0,0,1.4374,Andesite_rect,1,1.437,1,2,0,2,0,1,,,,,,,,,,,,,
5d654282986878001c2a5db7,TCR,2024-06-20_13h50.59.838,LearnStrategy,2023.2.3,MacIntel,62.89308176,7,1,4,0.006176215,0.021375868,1,0,0,0.5973,rock_grid_rect_2,6,03,-1,-1,0.597,0.12812066,-0.403958333,1,0,0,1.1253,Peridotite_rect,7,1.125,0,3,0,3,0,1,,,,,,,,,,,,,
5d654282986878001c2a5db7,TCR,2024-06-20_13h50.59.838,LearnStrategy,2023.2.3,MacIntel,62.89308176,7,1,5,0.025039063,0.005264757,1,0,0,0.7979,rock_grid_rect_2,1,04,-1,-1,0.798,0.427669271,-0.233216146,1,0,0,0.9904,Gabbro_rect,4,0.99,0,4,0,4,0,1,,,,,,,,,,,,,
5d654282986878001c2a5db7,TCR,2024-06-20_13h50.59.838,LearnStrategy,2023.2.3,MacIntel,62.89308176,7,1,6,-0.019544271,-0.001571181,1,0,0,1.1141,rock_grid_rect_2,5,04,-1,-1,1.114,-0.374249132,-0.413155382,1,0,0,0.917,Obsidian_rect,5,0.917,1,5,0,5,0,1,,,,,,,,,,,,,
5d654282986878001c2a5db7,TCR,2024-06-20_13h50.59.838,LearnStrategy,2023.2.3,MacIntel,62.89308176,7,1,7,-0.005863715,-0.011853299,1,0,0,0.6148,rock_grid_rect_2,7,10,-1,-1,0.615,0.124348958,-0.412560764,1,0,0,1.5378,Peridotite_rect,7,1.538,1,6,0,6,0,1,,,,,,,,,,,,,
5d654282986878001c2a5db7,TCR,2024-06-20_13h50.59.838,LearnStrategy,2023.2.3,MacIntel,62.89308176,7,1,8,0.022009549,-0.013090278,1,0,0,0.6319,rock_grid_rect_2,1,02,-1,-1,0.632,-0.36312066,-0.249743924,1,0,0,1.2733,Andesite_rect,1,1.273,1,7,0,7,0,1,,,,,,,,,,,,,
5d654282986878001c2a5db7,TCR,2024-06-20_13h50.59.838,LearnStrategy,2023.2.3,MacIntel,62.89308176,7,1,9,0.001011285,-0.013077257,1,0,0,0.4973,rock_grid_rect_2,6,05,-1,-1,0.497,-0.078359375,-0.380668403,1,0,0,1.7555,Pegmatite_rect,6,1.755,1,8,0,8,0,1,,,,,,,,,,,,,
5d654282986878001c2a5db7,TCR,2024-06-20_13h50.59.838,LearnStrategy,2023.2.3,MacIntel,62.89308176,7,1,10,0.008667535,-0.002074653,1,0,0,0.7325,rock_grid_rect_2,1,16,-1,-1,0.732,0.36093316,-0.250616319,1,0,0,1.1555,Gabbro_rect,4,1.155,0,9,0,9,0,1,,,,,,,,,,,,,
5d654282986878001c2a5db7,TCR,2024-06-20_13h50.59.838,LearnStrategy,2023.2.3,MacIntel,62.89308176,7,1,11,0.033012153,-0.008198785,1,0,0,1.1156,rock_grid_rect_2,8,05,-1,-1,1.116,0.350985243,-0.405321181,1,0,0,1.0281,Pumice_rect,8,1.028,1,10,0,10,0,1,,,,,,,,,,,,,
5d654282986878001c2a5db7,TCR,2024-06-20_13h50.59.838,LearnStrategy,2023.2.3,MacIntel,62.89308176,7,1,12,0.0678125,0.009661458,1,0,0,0.5651,rock_grid_rect_2,7,05,-1,-1,0.565,0.08406684,-0.399791667,1,0,0,1.5338,Peridotite_rect,7,1.534,1,11,0,11,0,1,,,,,,,,,,,,,
5d654282986878001c2a5db7,TCR,2024-06-20_13h50.59.838,LearnStrategy,2023.2.3,MacIntel,62.89308176,7,1,13,0.024921875,0.005039063,1,0,0,0.4819,rock_grid_rect_2,2,11,-1,-1,0.482,0.412404514,-0.399331597,1,0,0,1.4897,Pumice_rect,8,1.49,0,12,0,12,0,1,,,,,,,,,,,,,
5d654282986878001c2a5db7,TCR,2024-06-20_13h50.59.838,LearnStrategy,2023.2.3,MacIntel,62.89308176,7,1,14,0.021896701,-0.000507813,1,0,0,0.665,rock_grid_rect_2,4,15,-1,-1,0.665,0.457165799,-0.251497396,1,0,0,1.1377,Gabbro_rect,4,1.138,1,13,0,13,0,1,,,,,,,,,,,,,
5d654282986878001c2a5db7,TCR,2024-06-20_13h50.59.838,LearnStrategy,2023.2.3,MacIntel,62.89308176,7,1,15,0.028463542,0.020342882,1,0,0,0.5156,rock_grid_rect_2,7,10,-1,-1,0.516,0.174149306,-0.419075521,1,0,0,0.9007,Peridotite_rect,7,0.901,1,14,0,14,0,1,,,,,,,,,,,,,
5d654282986878001c2a5db7,TCR,2024-06-20_13h50.59.838,LearnStrategy,2023.2.3,MacIntel,62.89308176,7,1,16,0.026345486,0.010759549,1,0,0,0.8656,rock_grid_rect_2,3,07,-1,-1,0.866,0.175898438,-0.261263021,1,0,0,1.4514,Diorite_rect,3,1.451,1,15,0,15,0,1,,,,,,,,,,,,,
5d654282986878001c2a5db7,TCR,2024-06-20_13h50.59.838,LearnStrategy,2023.2.3,MacIntel,62.89308176,7,2,1,,,,,,,,8,03,,,,,,,,,,,8,0.924,1,,,,,,0.398719618,-0.397790799,1,0,0,0.9241,Pumice_rect,0,0,0,0,1,
5d654282986878001c2a5db7,TCR,2024-06-20_13h50.59.838,LearnStrategy,2023.2.3,MacIntel,62.89308176,7,2,2,,,,,,,,7,02,,,,,,,,,,,7,0.813,1,,,,,,0.108094618,-0.407673611,1,0,0,0.8132,Peridotite_rect,1,0,1,0,1,
5d654282986878001c2a5db7,TCR,2024-06-20_13h50.59.838,LearnStrategy,2023.2.3,MacIntel,62.89308176,7,2,3,,,,,,,,2,08,,,,,,,,,,,2,0.833,1,,,,,,-0.103580729,-0.268407118,1,0,0,0.8327,Basalt_rect,2,0,2,0,1,
5d654282986878001c2a5db7,TCR,2024-06-20_13h50.59.838,LearnStrategy,2023.2.3,MacIntel,62.89308176,7,2,4,,,,,,,,2,01,,,,,,,,,,,2,1.037,1,,,,,,-0.140737847,-0.263355035,1,0,0,1.0367,Basalt_rect,3,0,3,0,1,
5d654282986878001c2a5db7,TCR,2024-06-20_13h50.59.838,LearnStrategy,2023.2.3,MacIntel,62.89308176,7,2,5,,,,,,,,6,16,,,,,,,,,,,6,0.918,1,,,,,,-0.124822049,-0.407725694,1,0,0,0.9176,Pegmatite_rect,4,0,4,0,1,
5d654282986878001c2a5db7,TCR,2024-06-20_13h50.59.838,LearnStrategy,2023.2.3,MacIntel,62.89308176,7,2,6,,,,,,,,7,07,,,,,,,,,,,7,0.978,1,,,,,,0.180920139,-0.412769097,1,0,0,0.9777,Peridotite_rect,5,0,5,0,1,
5d654282986878001c2a5db7,TCR,2024-06-20_13h50.59.838,LearnStrategy,2023.2.3,MacIntel,62.89308176,7,2,7,,,,,,,,3,09,,,,,,,,,,,3,1.272,1,,,,,,0.140403646,-0.231427951,1,0,0,1.2717,Diorite_rect,6,0,6,0,1,
5d654282986878001c2a5db7,TCR,2024-06-20_13h50.59.838,LearnStrategy,2023.2.3,MacIntel,62.89308176,7,2,8,,,,,,,,5,16,,,,,,,,,,,5,1.23,1,,,,,,-0.38187066,-0.410802951,1,0,0,1.2299,Obsidian_rect,7,0,7,0,1,
5d654282986878001c2a5db7,TCR,2024-06-20_13h50.59.838,LearnStrategy,2023.2.3,MacIntel,62.89308176,7,2,9,,,,,,,,4,03,,,,,,,,,,,4,1.194,1,,,,,,0.354314236,-0.23593316,1,0,0,1.1936,Gabbro_rect,8,0,8,0,1,
5d654282986878001c2a5db7,TCR,2024-06-20_13h50.59.838,LearnStrategy,2023.2.3,MacIntel,62.89308176,7,2,10,,,,,,,,5,09,,,,,,,,,,,5,1.541,1,,,,,,-0.395112847,-0.395642361,1,0,0,1.5414,Obsidian_rect,9,0,9,0,1,
5d654282986878001c2a5db7,TCR,2024-06-20_13h50.59.838,LearnStrategy,2023.2.3,MacIntel,62.89308176,7,2,11,,,,,,,,8,06,,,,,,,,,,,8,3.23,1,,,,,,0.429105903,-0.405091146,1,0,0,3.2298,Pumice_rect,10,0,10,0,1,
5d654282986878001c2a5db7,TCR,2024-06-20_13h50.59.838,LearnStrategy,2023.2.3,MacIntel,62.89308176,7,2,12,,,,,,,,4,01,,,,,,,,,,,4,1.182,1,,,,,,0.387565104,-0.242773437,1,0,0,1.1815,Gabbro_rect,11,0,11,0,1,
5d654282986878001c2a5db7,TCR,2024-06-20_13h50.59.838,LearnStrategy,2023.2.3,MacIntel,62.89308176,7,2,13,,,,,,,,1,01,,,,,,,,,,,3,0.993,0,,,,,,0.162712674,-0.267638889,1,0,0,0.9927,Diorite_rect,12,0,12,0,1,
5d654282986878001c2a5db7,TCR,2024-06-20_13h50.59.838,LearnStrategy,2023.2.3,MacIntel,62.89308176,7,2,14,,,,,,,,3,06,,,,,,,,,,,3,0.801,1,,,,,,0.122821181,-0.268519965,1,0,0,0.8013,Diorite_rect,13,0,13,0,1,
5d654282986878001c2a5db7,TCR,2024-06-20_13h50.59.838,LearnStrategy,2023.2.3,MacIntel,62.89308176,7,2,15,,,,,,,,1,10,,,,,,,,,,,1,1.421,1,,,,,,-0.314509549,-0.259496528,1,0,0,1.4209,Andesite_rect,14,0,14,0,1,
5d654282986878001c2a5db7,TCR,2024-06-20_13h50.59.838,LearnStrategy,2023.2.3,MacIntel,62.89308176,7,2,16,,,,,,,,6,12,,,,,,,,,,,6,0.759,1,,,,,,-0.057530382,-0.39625434,1,0,0,0.7588,Pegmatite_rect,15,0,15,0,1,
5d654282986878001c2a5db7,TCR,2024-06-20_13h50.59.838,LearnStrategy,2023.2.3,MacIntel,62.89308176,8,1,1,-0.027877604,-0.001076389,1,0,0,1.2493,rock_grid_rect_2,3,14,-1,-1,1.249,0.179006076,-0.258190104,1,0,0,0.8251,Diorite_rect,3,0.825,1,0,0,0,0,1,,,,,,,,,,,,,
5d654282986878001c2a5db7,TCR,2024-06-20_13h50.59.838,LearnStrategy,2023.2.3,MacIntel,62.89308176,8,1,2,0.008181424,-0.013624132,1,0,0,0.999,rock_grid_rect_2,1,07,-1,-1,0.999,0.334644097,-0.258350694,1,0,0,1.091,Gabbro_rect,4,1.091,0,1,0,1,0,1,,,,,,,,,,,,,
5d654282986878001c2a5db7,TCR,2024-06-20_13h50.59.838,LearnStrategy,2023.2.3,MacIntel,62.89308176,8,1,3,-0.026827257,0.007065972,1,0,0,0.7648,rock_grid_rect_2,7,10,-1,-1,0.765,0.122261285,-0.385824653,1,0,0,1.007,Peridotite_rect,7,1.007,1,2,0,2,0,1,,,,,,,,,,,,,
5d654282986878001c2a5db7,TCR,2024-06-20_13h50.59.838,LearnStrategy,2023.2.3,MacIntel,62.89308176,8,1,4,-0.034110243,-0.005334201,1,0,0,1.2817,rock_grid_rect_2,4,13,-1,-1,1.282,0.389826389,-0.245360243,1,0,0,1.9222,Gabbro_rect,4,1.922,1,3,0,3,0,1,,,,,,,,,,,,,
5d654282986878001c2a5db7,TCR,2024-06-20_13h50.59.838,LearnStrategy,2023.2.3,MacIntel,62.89308176,8,1,5,-0.016184896,0.014913194,1,0,0,0.7813,rock_grid_rect_2,4,05,-1,-1,0.781,0.140455729,-0.243190104,1,0,0,1.2312,Diorite_rect,3,1.231,0,4,0,4,0,1,,,,,,,,,,,,,
5d654282986878001c2a5db7,TCR,2024-06-20_13h50.59.838,LearnStrategy,2023.2.3,MacIntel,62.89308176,8,1,6,0.008619792,-0.008311632,1,0,0,0.4487,rock_grid_rect_2,6,10,-1,-1,0.449,0.110043403,-0.409939236,1,0,0,0.8728,Peridotite_rect,7,0.873,0,5,0,5,0,1,,,,,,,,,,,,,
5d654282986878001c2a5db7,TCR,2024-06-20_13h50.59.838,LearnStrategy,2023.2.3,MacIntel,62.89308176,8,1,7,0.006749132,-0.022309028,1,0,0,0.5808,rock_grid_rect_2,2,12,-1,-1,0.581,0.338172743,-0.393294271,1,0,0,2.5562,Pumice_rect,8,2.556,0,6,0,6,0,1,,,,,,,,,,,,,
5d654282986878001c2a5db7,TCR,2024-06-20_13h50.59.838,LearnStrategy,2023.2.3,MacIntel,62.89308176,8,1,8,-0.010972222,-0.011736111,1,0,0,0.6818,rock_grid_rect_2,1,03,-1,-1,0.682,-0.375355903,-0.260416667,1,0,0,1.0656,Andesite_rect,1,1.066,1,7,0,7,0,1,,,,,,,,,,,,,
5d654282986878001c2a5db7,TCR,2024-06-20_13h50.59.838,LearnStrategy,2023.2.3,MacIntel,62.89308176,8,1,9,0.000807292,0.014366319,1,0,0,0.6312,rock_grid_rect_2,4,11,-1,-1,0.631,0.41328559,-0.268559028,1,0,0,1.0434,Gabbro_rect,4,1.043,1,8,0,8,0,1,,,,,,,,,,,,,
5d654282986878001c2a5db7,TCR,2024-06-20_13h50.59.838,LearnStrategy,2023.2.3,MacIntel,62.89308176,8,1,10,0.033307292,-0.010247396,1,0,0,0.7149,rock_grid_rect_2,8,08,-1,-1,0.715,0.459418403,-0.406853299,1,0,0,1.1326,Pumice_rect,8,1.133,1,9,0,9,0,1,,,,,,,,,,,,,
5d654282986878001c2a5db7,TCR,2024-06-20_13h50.59.838,LearnStrategy,2023.2.3,MacIntel,62.89308176,8,1,11,-0.024079861,-0.006128472,1,0,0,0.7153,rock_grid_rect_2,6,05,-1,-1,0.715,-0.108077257,-0.408159722,1,0,0,0.9203,Pegmatite_rect,6,0.92,1,10,0,10,0,1,,,,,,,,,,,,,
5d654282986878001c2a5db7,TCR,2024-06-20_13h50.59.838,LearnStrategy,2023.2.3,MacIntel,62.89308176,8,1,12,-0.027873264,0.011501736,1,0,0,0.7654,rock_grid_rect_2,5,02,-1,-1,0.765,-0.440039063,-0.400850694,1,0,0,0.9907,Obsidian_rect,5,0.991,1,11,0,11,0,1,,,,,,,,,,,,,
5d654282986878001c2a5db7,TCR,2024-06-20_13h50.59.838,LearnStrategy,2023.2.3,MacIntel,62.89308176,8,1,13,0.011992187,0.013854167,1,0,0,1.0154,rock_grid_rect_2,7,12,-1,-1,1.015,0.166436632,-0.399123264,1,0,0,2.6501,Peridotite_rect,7,2.65,1,12,0,12,0,1,,,,,,,,,,,,,
5d654282986878001c2a5db7,TCR,2024-06-20_13h50.59.838,LearnStrategy,2023.2.3,MacIntel,62.89308176,8,1,14,-0.008736979,0.018302951,1,0,0,1.065,rock_grid_rect_2,7,16,-1,-1,1.065,0.162751736,-0.420260417,1,0,0,0.8871,Peridotite_rect,7,0.887,1,13,0,13,0,1,,,,,,,,,,,,,
5d654282986878001c2a5db7,TCR,2024-06-20_13h50.59.838,LearnStrategy,2023.2.3,MacIntel,62.89308176,8,1,15,-0.04234375,-0.016046007,1,0,0,0.7143,rock_grid_rect_2,1,02,-1,-1,0.714,-0.345820313,-0.229123264,1,0,0,1.1351,Andesite_rect,1,1.135,1,14,0,14,0,1,,,,,,,,,,,,,
5d654282986878001c2a5db7,TCR,2024-06-20_13h50.59.838,LearnStrategy,2023.2.3,MacIntel,62.89308176,8,1,16,-0.019791667,-0.007929687,1,0,0,0.6981,rock_grid_rect_2,1,02,-1,-1,0.698,-0.317686632,-0.243867187,1,0,0,1.189,Andesite_rect,1,1.189,1,15,0,15,0,1,,,,,,,,,,,,,
5d654282986878001c2a5db7,TCR,2024-06-20_13h50.59.838,LearnStrategy,2023.2.3,MacIntel,62.89308176,8,2,1,,,,,,,,6,13,,,,,,,,,,,6,1.022,1,,,,,,-0.082864583,-0.414513889,1,0,0,1.0223,Pegmatite_rect,0,0,0,0,1,
5d654282986878001c2a5db7,TCR,2024-06-20_13h50.59.838,LearnStrategy,2023.2.3,MacIntel,62.89308176,8,2,2,,,,,,,,7,04,,,,,,,,,,,6,1.032,0,,,,,,-0.092209201,-0.410052083,1,0,0,1.0319,Pegmatite_rect,1,0,1,0,1,
5d654282986878001c2a5db7,TCR,2024-06-20_13h50.59.838,LearnStrategy,2023.2.3,MacIntel,62.89308176,8,2,3,,,,,,,,3,13,,,,,,,,,,,3,0.957,1,,,,,,0.154665799,-0.242977431,1,0,0,0.9565,Diorite_rect,2,0,2,0,1,
5d654282986878001c2a5db7,TCR,2024-06-20_13h50.59.838,LearnStrategy,2023.2.3,MacIntel,62.89308176,8,2,4,,,,,,,,2,14,,,,,,,,,,,8,2.242,0,,,,,,0.411341146,-0.388407118,1,0,0,2.2418,Pumice_rect,3,0,3,0,1,
5d654282986878001c2a5db7,TCR,2024-06-20_13h50.59.838,LearnStrategy,2023.2.3,MacIntel,62.89308176,8,2,5,,,,,,,,8,02,,,,,,,,,,,8,1.147,1,,,,,,0.30359375,-0.380177951,1,0,0,1.1474,Pumice_rect,4,0,4,0,1,
5d654282986878001c2a5db7,TCR,2024-06-20_13h50.59.838,LearnStrategy,2023.2.3,MacIntel,62.89308176,8,2,6,,,,,,,,5,08,,,,,,,,,,,5,1.275,1,,,,,,-0.373237847,-0.407699653,1,0,0,1.2749,Obsidian_rect,5,0,5,0,1,
5d654282986878001c2a5db7,TCR,2024-06-20_13h50.59.838,LearnStrategy,2023.2.3,MacIntel,62.89308176,8,2,7,,,,,,,,3,08,,,,,,,,,,,3,0.986,1,,,,,,0.151736111,-0.233645833,1,0,0,0.9857,Diorite_rect,6,0,6,0,1,
5d654282986878001c2a5db7,TCR,2024-06-20_13h50.59.838,LearnStrategy,2023.2.3,MacIntel,62.89308176,8,2,8,,,,,,,,4,10,,,,,,,,,,,4,2.308,1,,,,,,0.387829861,-0.257248264,1,0,0,2.3077,Gabbro_rect,7,0,7,0,1,
5d654282986878001c2a5db7,TCR,2024-06-20_13h50.59.838,LearnStrategy,2023.2.3,MacIntel,62.89308176,8,2,9,,,,,,,,5,14,,,,,,,,,,,5,1.057,1,,,,,,-0.390130208,-0.402556424,1,0,0,1.0573,Obsidian_rect,8,0,8,0,1,
5d654282986878001c2a5db7,TCR,2024-06-20_13h50.59.838,LearnStrategy,2023.2.3,MacIntel,62.89308176,8,2,10,,,,,,,,6,09,,,,,,,,,,,7,1.403,0,,,,,,0.107738715,-0.393927951,1,0,0,1.403,Peridotite_rect,9,0,9,0,1,
5d654282986878001c2a5db7,TCR,2024-06-20_13h50.59.838,LearnStrategy,2023.2.3,MacIntel,62.89308176,8,2,11,,,,,,,,8,14,,,,,,,,,,,8,0.911,1,,,,,,0.417256944,-0.403784722,1,0,0,0.9111,Pumice_rect,10,0,10,0,1,
5d654282986878001c2a5db7,TCR,2024-06-20_13h50.59.838,LearnStrategy,2023.2.3,MacIntel,62.89308176,8,2,12,,,,,,,,1,14,,,,,,,,,,,4,1.401,0,,,,,,0.375381944,-0.271306424,1,0,0,1.401,Gabbro_rect,11,0,11,0,1,
5d654282986878001c2a5db7,TCR,2024-06-20_13h50.59.838,LearnStrategy,2023.2.3,MacIntel,62.89308176,8,2,13,,,,,,,,2,02,,,,,,,,,,,2,0.84,1,,,,,,-0.102534722,-0.258055556,1,0,0,0.8402,Basalt_rect,12,0,12,0,1,
5d654282986878001c2a5db7,TCR,2024-06-20_13h50.59.838,LearnStrategy,2023.2.3,MacIntel,62.89308176,8,2,14,,,,,,,,7,14,,,,,,,,,,,3,2.335,0,,,,,,0.089418403,-0.248919271,1,0,0,2.3346,Diorite_rect,13,0,13,0,1,
5d654282986878001c2a5db7,TCR,2024-06-20_13h50.59.838,LearnStrategy,2023.2.3,MacIntel,62.89308176,8,2,15,,,,,,,,4,14,,,,,,,,,,,4,1.272,1,,,,,,0.38578559,-0.228585069,1,0,0,1.2723,Gabbro_rect,14,0,14,0,1,
5d654282986878001c2a5db7,TCR,2024-06-20_13h50.59.838,LearnStrategy,2023.2.3,MacIntel,62.89308176,8,2,16,,,,,,,,1,06,,,,,,,,,,,1,1.423,1,,,,,,-0.393780382,-0.246888021,1,0,0,1.4233,Andesite_rect,15,0,15,0,1,
5d654282986878001c2a5db7,TCR,2024-06-20_13h50.59.838,LearnStrategy,2023.2.3,MacIntel,62.89308176,9,1,1,0.007087674,-0.003172743,1,0,0,1.1823,rock_grid_rect_2,7,06,-1,-1,1.182,0.12016059,-0.415876736,1,0,0,1.9035,Peridotite_rect,7,1.904,1,0,0,0,0,1,,,,,,,,,,,,,
5d654282986878001c2a5db7,TCR,2024-06-20_13h50.59.838,LearnStrategy,2023.2.3,MacIntel,62.89308176,9,1,2,-0.034296875,-0.014092882,1,0,0,0.8809,rock_grid_rect_2,2,05,-1,-1,0.881,-0.124917535,-0.251037326,1,0,0,0.8914,Basalt_rect,2,0.891,1,1,0,1,0,1,,,,,,,,,,,,,
5d654282986878001c2a5db7,TCR,2024-06-20_13h50.59.838,LearnStrategy,2023.2.3,MacIntel,62.89308176,9,1,3,-0.011766493,0.011992187,1,0,0,0.5807,rock_grid_rect_2,7,05,-1,-1,0.581,0.140690104,-0.421150174,1,0,0,0.9454,Peridotite_rect,7,0.945,1,2,0,2,0,1,,,,,,,,,,,,,
5d654282986878001c2a5db7,TCR,2024-06-20_13h50.59.838,LearnStrategy,2023.2.3,MacIntel,62.89308176,9,1,4,-0.058164063,-0.005533854,1,0,0,0.6485,rock_grid_rect_2,3,11,-1,-1,0.649,0.145260417,-0.271480035,1,0,0,1.192,Diorite_rect,3,1.192,1,3,0,3,0,1,,,,,,,,,,,,,
5d654282986878001c2a5db7,TCR,2024-06-20_13h50.59.838,LearnStrategy,2023.2.3,MacIntel,62.89308176,9,1,5,0.042374132,0.023702257,1,0,0,0.6974,rock_grid_rect_2,2,16,-1,-1,0.697,-0.100104167,-0.263554687,1,0,0,1.0889,Basalt_rect,2,1.089,1,4,0,4,0,1,,,,,,,,,,,,,
5d654282986878001c2a5db7,TCR,2024-06-20_13h50.59.838,LearnStrategy,2023.2.3,MacIntel,62.89308176,9,1,6,0.018893229,0.005147569,1,0,0,0.6817,rock_grid_rect_2,7,12,-1,-1,0.682,0.170989583,-0.253190104,1,0,0,0.874,Diorite_rect,3,0.874,0,5,0,5,0,1,,,,,,,,,,,,,
5d654282986878001c2a5db7,TCR,2024-06-20_13h50.59.838,LearnStrategy,2023.2.3,MacIntel,62.89308176,9,1,7,0.03641059,-0.004123264,1,0,0,0.7816,rock_grid_rect_2,5,04,-1,-1,0.782,-0.369739583,-0.411384549,1,0,0,1.0076,Obsidian_rect,5,1.008,1,6,0,6,0,1,,,,,,,,,,,,,
5d654282986878001c2a5db7,TCR,2024-06-20_13h50.59.838,LearnStrategy,2023.2.3,MacIntel,62.89308176,9,1,8,0.028146701,-0.022174479,1,0,0,0.5483,rock_grid_rect_2,6,10,-1,-1,0.548,0.187738715,-0.393854167,1,0,0,1.0269,Peridotite_rect,7,1.027,0,7,0,7,0,1,,,,,,,,,,,,,
5d654282986878001c2a5db7,TCR,2024-06-20_13h50.59.838,LearnStrategy,2023.2.3,MacIntel,62.89308176,9,1,9,0.018038194,-0.012304687,1,0,0,0.6314,rock_grid_rect_2,1,03,-1,-1,0.631,-0.418407118,-0.244539931,1,0,0,1.125,Andesite_rect,1,1.125,1,8,0,8,0,1,,,,,,,,,,,,,
5d654282986878001c2a5db7,TCR,2024-06-20_13h50.59.838,LearnStrategy,2023.2.3,MacIntel,62.89308176,9,1,10,0.031948785,-2.17014E-05,1,0,0,0.8316,rock_grid_rect_2,7,08,-1,-1,0.832,0.134279514,-0.415173611,1,0,0,1.2715,Peridotite_rect,7,1.271,1,9,0,9,0,1,,,,,,,,,,,,,
5d654282986878001c2a5db7,TCR,2024-06-20_13h50.59.838,LearnStrategy,2023.2.3,MacIntel,62.89308176,9,1,11,-0.011983507,0.015967882,1,0,0,0.6478,rock_grid_rect_2,6,05,-1,-1,0.648,-0.079552951,-0.412274306,1,0,0,1.3282,Pegmatite_rect,6,1.328,1,10,0,10,0,1,,,,,,,,,,,,,
5d654282986878001c2a5db7,TCR,2024-06-20_13h50.59.838,LearnStrategy,2023.2.3,MacIntel,62.89308176,9,1,12,0.042135417,-0.015798611,1,0,0,0.565,rock_grid_rect_2,4,11,-1,-1,0.565,0.468628472,-0.257313368,1,0,0,1.3057,Gabbro_rect,4,1.306,1,11,0,11,0,1,,,,,,,,,,,,,
5d654282986878001c2a5db7,TCR,2024-06-20_13h50.59.838,LearnStrategy,2023.2.3,MacIntel,62.89308176,9,1,13,-0.001137153,-0.011475694,1,0,0,0.649,rock_grid_rect_2,4,15,-1,-1,0.649,0.136323785,-0.245486111,1,0,0,1.0869,Diorite_rect,3,1.087,0,12,0,12,0,1,,,,,,,,,,,,,
5d654282986878001c2a5db7,TCR,2024-06-20_13h50.59.838,LearnStrategy,2023.2.3,MacIntel,62.89308176,9,1,14,-0.009939236,0.000577257,1,0,0,0.5153,rock_grid_rect_2,8,16,-1,-1,0.515,0.436766493,-0.409804687,1,0,0,1.7655,Pumice_rect,8,1.766,1,13,0,13,0,1,,,,,,,,,,,,,
5d654282986878001c2a5db7,TCR,2024-06-20_13h50.59.838,LearnStrategy,2023.2.3,MacIntel,62.89308176,9,1,15,0.006844618,-0.002955729,1,0,0,1.0492,rock_grid_rect_2,1,04,-1,-1,1.049,-0.391857639,-0.256788194,1,0,0,1.4789,Andesite_rect,1,1.479,1,14,0,14,0,1,,,,,,,,,,,,,
5d654282986878001c2a5db7,TCR,2024-06-20_13h50.59.838,LearnStrategy,2023.2.3,MacIntel,62.89308176,9,1,16,0.021553819,-0.003511285,1,0,0,0.4816,rock_grid_rect_2,1,07,-1,-1,0.482,0.168090278,-0.261176215,1,0,0,0.8982,Diorite_rect,3,0.898,0,15,0,15,0,1,,,,,,,,,,,,,
5d654282986878001c2a5db7,TCR,2024-06-20_13h50.59.838,LearnStrategy,2023.2.3,MacIntel,62.89308176,9,2,1,,,,,,,,4,16,,,,,,,,,,,2,1.175,0,,,,,,-0.125438368,-0.251171875,1,0,0,1.1749,Basalt_rect,0,0,0,0,1,
5d654282986878001c2a5db7,TCR,2024-06-20_13h50.59.838,LearnStrategy,2023.2.3,MacIntel,62.89308176,9,2,2,,,,,,,,7,15,,,,,,,,,,,7,0.77,1,,,,,,0.127235243,-0.399626736,1,0,0,0.7697,Peridotite_rect,1,0,1,0,1,
5d654282986878001c2a5db7,TCR,2024-06-20_13h50.59.838,LearnStrategy,2023.2.3,MacIntel,62.89308176,9,2,3,,,,,,,,4,09,,,,,,,,,,,2,1.252,0,,,,,,-0.088207465,-0.259674479,1,0,0,1.2521,Basalt_rect,2,0,2,0,1,
5d654282986878001c2a5db7,TCR,2024-06-20_13h50.59.838,LearnStrategy,2023.2.3,MacIntel,62.89308176,9,2,4,,,,,,,,2,10,,,,,,,,,,,2,0.775,1,,,,,,-0.12593316,-0.251510417,1,0,0,0.7753,Basalt_rect,3,0,3,0,1,
5d654282986878001c2a5db7,TCR,2024-06-20_13h50.59.838,LearnStrategy,2023.2.3,MacIntel,62.89308176,9,2,5,,,,,,,,7,13,,,,,,,,,,,7,1.091,1,,,,,,0.19827691,-0.381132812,1,0,0,1.0914,Peridotite_rect,4,0,4,0,1,
5d654282986878001c2a5db7,TCR,2024-06-20_13h50.59.838,LearnStrategy,2023.2.3,MacIntel,62.89308176,9,2,6,,,,,,,,3,12,,,,,,,,,,,3,0.951,1,,,,,,0.18766059,-0.25109375,1,0,0,0.9507,Diorite_rect,5,0,5,0,1,
5d654282986878001c2a5db7,TCR,2024-06-20_13h50.59.838,LearnStrategy,2023.2.3,MacIntel,62.89308176,9,2,7,,,,,,,,3,10,,,,,,,,,,,3,1.474,1,,,,,,0.140533854,-0.230585938,1,0,0,1.4744,Diorite_rect,6,0,6,0,1,
5d654282986878001c2a5db7,TCR,2024-06-20_13h50.59.838,LearnStrategy,2023.2.3,MacIntel,62.89308176,9,2,8,,,,,,,,8,15,,,,,,,,,,,8,1.876,1,,,,,,0.378211806,-0.383220486,1,0,0,1.8757,Pumice_rect,7,0,7,0,1,
5d654282986878001c2a5db7,TCR,2024-06-20_13h50.59.838,LearnStrategy,2023.2.3,MacIntel,62.89308176,9,2,9,,,,,,,,1,09,,,,,,,,,,,1,2.109,1,,,,,,-0.370030382,-0.260208333,1,0,0,2.1091,Andesite_rect,8,0,8,0,1,
5d654282986878001c2a5db7,TCR,2024-06-20_13h50.59.838,LearnStrategy,2023.2.3,MacIntel,62.89308176,9,2,10,,,,,,,,5,07,,,,,,,,,,,5,0.839,1,,,,,,-0.400086806,-0.409626736,1,0,0,0.8387,Obsidian_rect,9,0,9,0,1,
5d654282986878001c2a5db7,TCR,2024-06-20_13h50.59.838,LearnStrategy,2023.2.3,MacIntel,62.89308176,9,2,11,,,,,,,,2,06,,,,,,,,,,,2,0.925,1,,,,,,-0.16140191,-0.230334201,1,0,0,0.9249,Basalt_rect,10,0,10,0,1,
5d654282986878001c2a5db7,TCR,2024-06-20_13h50.59.838,LearnStrategy,2023.2.3,MacIntel,62.89308176,9,2,12,,,,,,,,6,08,,,,,,,,,,,6,1.111,1,,,,,,-0.132760417,-0.40625434,1,0,0,1.111,Pegmatite_rect,11,0,11,0,1,
5d654282986878001c2a5db7,TCR,2024-06-20_13h50.59.838,LearnStrategy,2023.2.3,MacIntel,62.89308176,9,2,13,,,,,,,,6,07,,,,,,,,,,,6,0.655,1,,,,,,-0.132760417,-0.40625434,1,0,0,0.6552,Pegmatite_rect,12,0,12,0,1,
5d654282986878001c2a5db7,TCR,2024-06-20_13h50.59.838,LearnStrategy,2023.2.3,MacIntel,62.89308176,9,2,14,,,,,,,,8,09,,,,,,,,,,,8,0.889,1,,,,,,0.337986111,-0.384926215,1,0,0,0.8891,Pumice_rect,13,0,13,0,1,
5d654282986878001c2a5db7,TCR,2024-06-20_13h50.59.838,LearnStrategy,2023.2.3,MacIntel,62.89308176,9,2,15,,,,,,,,5,12,,,,,,,,,,,5,0.982,1,,,,,,-0.345069444,-0.418164062,1,0,0,0.9822,Obsidian_rect,14,0,14,0,1,
5d654282986878001c2a5db7,TCR,2024-06-20_13h50.59.838,LearnStrategy,2023.2.3,MacIntel,62.89308176,9,2,16,,,,,,,,1,05,,,,,,,,,,,1,2.03,1,,,,,,-0.435394965,-0.25281684,1,0,0,2.0303,Andesite_rect,15,0,15,0,1,
5d654282986878001c2a5db7,TCR,2024-06-20_13h50.59.838,LearnStrategy,2023.2.3,MacIntel,62.89308176,,,,,,,,,,,,,,,,,,,,,,,,,,,,,,,,,,,,,,,,,,,1
5d654282986878001c2a5db7,TCR,2024-06-20_13h50.59.838,LearnStrategy,2023.2.3,MacIntel,62.89308176,,,,,,,,,,,,,,,,,,,,,,,,,,,,,,,,,,,,,,,,,,,
5d654282986878001c2a5db7,TCR,2024-06-20_13h50.59.838,LearnStrategy,2023.2.3,MacIntel,62.89308176,,,,,,,,,,,5,04,1,1,,,,,,,,,,,,,,,,,,,,,,,,,,,,,
5d654282986878001c2a5db7,TCR,2024-06-20_13h50.59.838,LearnStrategy,2023.2.3,MacIntel,62.89308176,,,,,,,,,,,3,14,1,2,,,,,,,,,,,,,,,,,,,,,,,,,,,,,
5d654282986878001c2a5db7,TCR,2024-06-20_13h50.59.838,LearnStrategy,2023.2.3,MacIntel,62.89308176,,,,,,,,,,,5,05,1,3,,,,,,,,,,,,,,,,,,,,,,,,,,,,,
5d654282986878001c2a5db7,TCR,2024-06-20_13h50.59.838,LearnStrategy,2023.2.3,MacIntel,62.89308176,,,,,,,,,,,1,16,1,4,,,,,,,,,,,,,,,,,,,,,,,,,,,,,
5d654282986878001c2a5db7,TCR,2024-06-20_13h50.59.838,LearnStrategy,2023.2.3,MacIntel,62.89308176,,,,,,,,,,,1,11,1,5,,,,,,,,,,,,,,,,,,,,,,,,,,,,,
5d654282986878001c2a5db7,TCR,2024-06-20_13h50.59.838,LearnStrategy,2023.2.3,MacIntel,62.89308176,,,,,,,,,,,5,02,1,6,,,,,,,,,,,,,,,,,,,,,,,,,,,,,
5d654282986878001c2a5db7,TCR,2024-06-20_13h50.59.838,LearnStrategy,2023.2.3,MacIntel,62.89308176,,,,,,,,,,,2,16,1,7,,,,,,,,,,,,,,,,,,,,,,,,,,,,,
5d654282986878001c2a5db7,TCR,2024-06-20_13h50.59.838,LearnStrategy,2023.2.3,MacIntel,62.89308176,,,,,,,,,,,4,08,1,8,,,,,,,,,,,,,,,,,,,,,,,,,,,,,
5d654282986878001c2a5db7,TCR,2024-06-20_13h50.59.838,LearnStrategy,2023.2.3,MacIntel,62.89308176,,,,,,,,,,,2,09,2,1,,,,,,,,,,,,,,,,,,,,,,,,,,,,,
5d654282986878001c2a5db7,TCR,2024-06-20_13h50.59.838,LearnStrategy,2023.2.3,MacIntel,62.89308176,,,,,,,,,,,8,16,2,2,,,,,,,,,,,,,,,,,,,,,,,,,,,,,
5d654282986878001c2a5db7,TCR,2024-06-20_13h50.59.838,LearnStrategy,2023.2.3,MacIntel,62.89308176,,,,,,,,,,,4,11,2,3,,,,,,,,,,,,,,,,,,,,,,,,,,,,,
5d654282986878001c2a5db7,TCR,2024-06-20_13h50.59.838,LearnStrategy,2023.2.3,MacIntel,62.89308176,,,,,,,,,,,6,10,2,4,,,,,,,,,,,,,,,,,,,,,,,,,,,,,
5d654282986878001c2a5db7,TCR,2024-06-20_13h50.59.838,LearnStrategy,2023.2.3,MacIntel,62.89308176,,,,,,,,,,,5,06,2,5,,,,,,,,,,,,,,,,,,,,,,,,,,,,,
5d654282986878001c2a5db7,TCR,2024-06-20_13h50.59.838,LearnStrategy,2023.2.3,MacIntel,62.89308176,,,,,,,,,,,7,08,2,6,,,,,,,,,,,,,,,,,,,,,,,,,,,,,
5d654282986878001c2a5db7,TCR,2024-06-20_13h50.59.838,LearnStrategy,2023.2.3,MacIntel,62.89308176,,,,,,,,,,,3,16,2,7,,,,,,,,,,,,,,,,,,,,,,,,,,,,,
5d654282986878001c2a5db7,TCR,2024-06-20_13h50.59.838,LearnStrategy,2023.2.3,MacIntel,62.89308176,,,,,,,,,,,1,07,2,8,,,,,,,,,,,,,,,,,,,,,,,,,,,,,
5d654282986878001c2a5db7,TCR,2024-06-20_13h50.59.838,LearnStrategy,2023.2.3,MacIntel,62.89308176,,,,,,,,,,,2,05,3,1,,,,,,,,,,,,,,,,,,,,,,,,,,,,,
5d654282986878001c2a5db7,TCR,2024-06-20_13h50.59.838,LearnStrategy,2023.2.3,MacIntel,62.89308176,,,,,,,,,,,3,02,3,2,,,,,,,,,,,,,,,,,,,,,,,,,,,,,
5d654282986878001c2a5db7,TCR,2024-06-20_13h50.59.838,LearnStrategy,2023.2.3,MacIntel,62.89308176,,,,,,,,,,,2,11,3,3,,,,,,,,,,,,,,,,,,,,,,,,,,,,,
5d654282986878001c2a5db7,TCR,2024-06-20_13h50.59.838,LearnStrategy,2023.2.3,MacIntel,62.89308176,,,,,,,,,,,4,13,3,4,,,,,,,,,,,,,,,,,,,,,,,,,,,,,
5d654282986878001c2a5db7,TCR,2024-06-20_13h50.59.838,LearnStrategy,2023.2.3,MacIntel,62.89308176,,,,,,,,,,,7,10,3,5,,,,,,,,,,,,,,,,,,,,,,,,,,,,,
5d654282986878001c2a5db7,TCR,2024-06-20_13h50.59.838,LearnStrategy,2023.2.3,MacIntel,62.89308176,,,,,,,,,,,7,06,3,6,,,,,,,,,,,,,,,,,,,,,,,,,,,,,
5d654282986878001c2a5db7,TCR,2024-06-20_13h50.59.838,LearnStrategy,2023.2.3,MacIntel,62.89308176,,,,,,,,,,,7,05,3,7,,,,,,,,,,,,,,,,,,,,,,,,,,,,,
5d654282986878001c2a5db7,TCR,2024-06-20_13h50.59.838,LearnStrategy,2023.2.3,MacIntel,62.89308176,,,,,,,,,,,6,03,3,8,,,,,,,,,,,,,,,,,,,,,,,,,,,,,
5d654282986878001c2a5db7,TCR,2024-06-20_13h50.59.838,LearnStrategy,2023.2.3,MacIntel,62.89308176,,,,,,,,,,,5,10,4,1,,,,,,,,,,,,,,,,,,,,,,,,,,,,,
5d654282986878001c2a5db7,TCR,2024-06-20_13h50.59.838,LearnStrategy,2023.2.3,MacIntel,62.89308176,,,,,,,,,,,7,12,4,2,,,,,,,,,,,,,,,,,,,,,,,,,,,,,
5d654282986878001c2a5db7,TCR,2024-06-20_13h50.59.838,LearnStrategy,2023.2.3,MacIntel,62.89308176,,,,,,,,,,,8,10,4,3,,,,,,,,,,,,,,,,,,,,,,,,,,,,,
5d654282986878001c2a5db7,TCR,2024-06-20_13h50.59.838,LearnStrategy,2023.2.3,MacIntel,62.89308176,,,,,,,,,,,5,11,4,4,,,,,,,,,,,,,,,,,,,,,,,,,,,,,
5d654282986878001c2a5db7,TCR,2024-06-20_13h50.59.838,LearnStrategy,2023.2.3,MacIntel,62.89308176,,,,,,,,,,,2,12,4,5,,,,,,,,,,,,,,,,,,,,,,,,,,,,,
5d654282986878001c2a5db7,TCR,2024-06-20_13h50.59.838,LearnStrategy,2023.2.3,MacIntel,62.89308176,,,,,,,,,,,8,13,4,6,,,,,,,,,,,,,,,,,,,,,,,,,,,,,
5d654282986878001c2a5db7,TCR,2024-06-20_13h50.59.838,LearnStrategy,2023.2.3,MacIntel,62.89308176,,,,,,,,,,,6,15,4,7,,,,,,,,,,,,,,,,,,,,,,,,,,,,,
5d654282986878001c2a5db7,TCR,2024-06-20_13h50.59.838,LearnStrategy,2023.2.3,MacIntel,62.89308176,,,,,,,,,,,3,07,4,8,,,,,,,,,,,,,,,,,,,,,,,,,,,,,
5d654282986878001c2a5db7,TCR,2024-06-20_13h50.59.838,LearnStrategy,2023.2.3,MacIntel,62.89308176,,,,,,,,,,,4,15,5,1,,,,,,,,,,,,,,,,,,,,,,,,,,,,,
5d654282986878001c2a5db7,TCR,2024-06-20_13h50.59.838,LearnStrategy,2023.2.3,MacIntel,62.89308176,,,,,,,,,,,8,05,5,2,,,,,,,,,,,,,,,,,,,,,,,,,,,,,
5d654282986878001c2a5db7,TCR,2024-06-20_13h50.59.838,LearnStrategy,2023.2.3,MacIntel,62.89308176,,,,,,,,,,,8,04,5,3,,,,,,,,,,,,,,,,,,,,,,,,,,,,,
5d654282986878001c2a5db7,TCR,2024-06-20_13h50.59.838,LearnStrategy,2023.2.3,MacIntel,62.89308176,,,,,,,,,,,6,06,5,4,,,,,,,,,,,,,,,,,,,,,,,,,,,,,
5d654282986878001c2a5db7,TCR,2024-06-20_13h50.59.838,LearnStrategy,2023.2.3,MacIntel,62.89308176,,,,,,,,,,,1,03,5,5,,,,,,,,,,,,,,,,,,,,,,,,,,,,,
5d654282986878001c2a5db7,TCR,2024-06-20_13h50.59.838,LearnStrategy,2023.2.3,MacIntel,62.89308176,,,,,,,,,,,6,11,5,6,,,,,,,,,,,,,,,,,,,,,,,,,,,,,
5d654282986878001c2a5db7,TCR,2024-06-20_13h50.59.838,LearnStrategy,2023.2.3,MacIntel,62.89308176,,,,,,,,,,,1,04,5,7,,,,,,,,,,,,,,,,,,,,,,,,,,,,,
5d654282986878001c2a5db7,TCR,2024-06-20_13h50.59.838,LearnStrategy,2023.2.3,MacIntel,62.89308176,,,,,,,,,,,6,05,5,8,,,,,,,,,,,,,,,,,,,,,,,,,,,,,
5d654282986878001c2a5db7,TCR,2024-06-20_13h50.59.838,LearnStrategy,2023.2.3,MacIntel,62.89308176,,,,,,,,,,,7,16,6,1,,,,,,,,,,,,,,,,,,,,,,,,,,,,,
5d654282986878001c2a5db7,TCR,2024-06-20_13h50.59.838,LearnStrategy,2023.2.3,MacIntel,62.89308176,,,,,,,,,,,4,05,6,2,,,,,,,,,,,,,,,,,,,,,,,,,,,,,
5d654282986878001c2a5db7,TCR,2024-06-20_13h50.59.838,LearnStrategy,2023.2.3,MacIntel,62.89308176,,,,,,,,,,,3,11,6,3,,,,,,,,,,,,,,,,,,,,,,,,,,,,,
5d654282986878001c2a5db7,TCR,2024-06-20_13h50.59.838,LearnStrategy,2023.2.3,MacIntel,62.89308176,,,,,,,,,,,8,08,6,4,,,,,,,,,,,,,,,,,,,,,,,,,,,,,
5d654282986878001c2a5db7,TCR,2024-06-20_13h50.59.838,LearnStrategy,2023.2.3,MacIntel,62.89308176,,,,,,,,,,,4,12,6,5,,,,,,,,,,,,,,,,,,,,,,,,,,,,,
5d654282986878001c2a5db7,TCR,2024-06-20_13h50.59.838,LearnStrategy,2023.2.3,MacIntel,62.89308176,,,,,,,,,,,3,15,6,6,,,,,,,,,,,,,,,,,,,,,,,,,,,,,
5d654282986878001c2a5db7,TCR,2024-06-20_13h50.59.838,LearnStrategy,2023.2.3,MacIntel,62.89308176,,,,,,,,,,,1,02,6,7,,,,,,,,,,,,,,,,,,,,,,,,,,,,,
5d654282986878001c2a5db7,TCR,2024-06-20_13h50.59.838,LearnStrategy,2023.2.3,MacIntel,62.89308176,,,,,,,,,,,2,04,6,8,,,,,,,,,,,,,,,,,,,,,,,,,,,,,