participant,condition,date,expName,psychopyVersion,OS,frameRate,block,phase,trial,learn_mouse.x,learn_mouse.y,learn_mouse.leftButton,learn_mouse.midButton,learn_mouse.rightButton,learn_mouse.time,learn_mouse.clicked_name,cat,token,row,col,t_select,cat_rec,token_rec,cat_mouse_l.x,cat_mouse_l.y,cat_mouse_l.leftButton,cat_mouse_l.midButton,cat_mouse_l.rightButton,cat_mouse_l.time,cat_mouse_l.clicked_name,resp,t_resp,corr,train_trials.thisRepN,train_trials.thisTrialN,train_trials.thisN,train_trials.thisIndex,train_trials.ran,cat_mouse_t.x,cat_mouse_t.y,cat_mouse_t.leftButton,cat_mouse_t.midButton,cat_mouse_t.rightButton,cat_mouse_t.time,cat_mouse_t.clicked_name,test_trials.thisRepN,test_trials.thisTrialN,test_trials.thisN,test_trials.thisIndex,test_trials.ran,Bonus
5da35e177f1f7d001405f60b,SCR,2024-06-20_16h31.10.139,LearnStrategy,2023.2.3,Win32,59.88023952,,,,,,,,,,,,,,,,,,,,,,,,,,,,,,,,,,,,,,,,,,,,,
5da35e177f1f7d001405f60b,SCR,2024-06-20_16h31.10.139,LearnStrategy,2023.2.3,Win32,59.88023952,1,1,1,-0.546296296,-0.08425928,1,0,0,8.0801,Andesite_16,1,16,3,1,8.08,1,16,-0.110185199,-0.244444459,1,0,0,19.2145,Basalt_rect,2,19.214,0,0,0,0,0,1,,,,,,,,,,,,,
5da35e177f1f7d001405f60b,SCR,2024-06-20_16h31.10.139,LearnStrategy,2023.2.3,Win32,59.88023952,1,1,2,-0.384259259,-0.246296282,1,0,0,3.8604,Obsidian_04,5,04,2,2,3.86,2,05,-0.351851852,-0.383333347,1,0,0,5.6018,Obsidian_rect,5,5.602,1,1,0,1,0,1,,,,,,,,,,,,,
5da35e177f1f7d001405f60b,SCR,2024-06-20_16h31.10.139,LearnStrategy,2023.2.3,Win32,59.88023952,1,1,3,-0.372222229,-0.109259288,1,0,0,3.636,Pegmatite_03,6,03,3,2,3.636,7,14,0.160185213,-0.249074088,1,0,0,2.3176,Diorite_rect,3,2.318,0,2,0,2,0,1,,,,,,,,,,,,,
5da35e177f1f7d001405f60b,SCR,2024-06-20_16h31.10.139,LearnStrategy,2023.2.3,Win32,59.88023952,1,1,4,0.083333333,-0.40370369,1,0,0,5.0994,Diorite_08,3,08,1,5,5.099,5,08,-0.371296282,-0.385185171,1,0,0,4.0219,Obsidian_rect,5,4.022,0,3,0,3,0,1,,,,,,,,,,,,,
5da35e177f1f7d001405f60b,SCR,2024-06-20_16h31.10.139,LearnStrategy,2023.2.3,Win32,59.88023952,1,1,5,-0.062037009,-0.410185213,1,0,0,9.0426,Pegmatite_11,6,11,1,4,9.043,3,11,0.146296325,-0.405555584,1,0,0,9.9602,Peridotite_rect,7,9.96,0,4,0,4,0,1,,,,,,,,,,,,,
5da35e177f1f7d001405f60b,SCR,2024-06-20_16h31.10.139,LearnStrategy,2023.2.3,Win32,59.88023952,1,1,6,-0.569444444,-0.244444459,1,0,0,3.7488,Diorite_06,3,06,2,1,3.749,4,11,-0.137962977,-0.233333376,1,0,0,3.4645,Basalt_rect,2,3.464,0,5,0,5,0,1,,,,,,,,,,,,,
5da35e177f1f7d001405f60b,SCR,2024-06-20_16h31.10.139,LearnStrategy,2023.2.3,Win32,59.88023952,1,1,7,-0.22129631,0.249074071,1,0,0,2.2865,Peridotite_13,7,13,5,3,2.286,8,03,-0.361111111,-0.239814829,1,0,0,6.1512,Andesite_rect,1,6.151,0,6,0,6,0,1,,,,,,,,,,,,,
5da35e177f1f7d001405f60b,SCR,2024-06-20_16h31.10.139,LearnStrategy,2023.2.3,Win32,59.88023952,1,1,8,-0.533333319,0.080555563,1,0,0,5.4262,Pumice_03,8,03,4,1,5.426,8,16,0.377777806,-0.24537037,1,0,0,2.7943,Gabbro_rect,4,2.794,0,7,0,7,0,1,,,,,,,,,,,,,
5da35e177f1f7d001405f60b,SCR,2024-06-20_16h31.10.139,LearnStrategy,2023.2.3,Win32,59.88023952,1,1,9,-0.082407422,-0.260185171,1,0,0,5.7113,Pumice_16,8,16,2,4,5.711,6,16,0.435185185,-0.391666695,1,0,0,1.6439,Pumice_rect,8,1.644,1,8,0,8,0,1,,,,,,,,,,,,,
5da35e177f1f7d001405f60b,SCR,2024-06-20_16h31.10.139,LearnStrategy,2023.2.3,Win32,59.88023952,1,1,10,-0.550925926,0.397222219,1,0,0,8.0055,Basalt_10,2,10,6,1,8.005,5,04,-0.125,-0.259259259,1,0,0,3.4378,Basalt_rect,2,3.438,1,9,0,9,0,1,,,,,,,,,,,,,
5da35e177f1f7d001405f60b,SCR,2024-06-20_16h31.10.139,LearnStrategy,2023.2.3,Win32,59.88023952,1,1,11,-0.260185171,0.415740737,1,0,0,2.5434,Pegmatite_06,6,06,6,3,2.543,3,15,0.164814843,-0.250925912,1,0,0,5.2747,Diorite_rect,3,5.275,0,10,0,10,0,1,,,,,,,,,,,,,
5da35e177f1f7d001405f60b,SCR,2024-06-20_16h31.10.139,LearnStrategy,2023.2.3,Win32,59.88023952,1,1,12,-0.080555527,0.387962959,1,0,0,1.9652,Pumice_04,8,04,6,4,1.965,7,04,0.414814843,-0.415740755,1,0,0,1.263,Pumice_rect,8,1.263,1,11,0,11,0,1,,,,,,,,,,,,,
5da35e177f1f7d001405f60b,SCR,2024-06-20_16h31.10.139,LearnStrategy,2023.2.3,Win32,59.88023952,1,1,13,-0.062037009,-0.109259288,1,0,0,3.061,Basalt_08,2,08,3,4,3.061,6,13,-0.075925898,-0.252777806,1,0,0,2.0795,Basalt_rect,2,2.079,1,12,0,12,0,1,,,,,,,,,,,,,
5da35e177f1f7d001405f60b,SCR,2024-06-20_16h31.10.139,LearnStrategy,2023.2.3,Win32,59.88023952,1,1,14,0.086111139,-0.252777806,1,0,0,6.3621,Peridotite_04,7,04,2,5,6.362,4,12,-0.117592564,-0.402777778,1,0,0,6.6634,Pegmatite_rect,6,6.663,0,13,0,13,0,1,,,,,,,,,,,,,
5da35e177f1f7d001405f60b,SCR,2024-06-20_16h31.10.139,LearnStrategy,2023.2.3,Win32,59.88023952,1,1,15,-0.234259217,0.079629616,1,0,0,1.7292,Gabbro_15,4,15,4,3,1.729,1,03,-0.374074053,-0.239814829,1,0,0,6.9064,Andesite_rect,1,6.906,0,14,0,14,0,1,,,,,,,,,,,,,
5da35e177f1f7d001405f60b,SCR,2024-06-20_16h31.10.139,LearnStrategy,2023.2.3,Win32,59.88023952,1,1,16,-0.371296282,0.080555563,1,0,0,2.299,Obsidian_14,5,14,4,2,2.299,2,04,-0.414814808,-0.387037065,1,0,0,2.0781,Obsidian_rect,5,2.078,1,15,0,15,0,1,,,,,,,,,,,,,
5da35e177f1f7d001405f60b,SCR,2024-06-20_16h31.10.139,LearnStrategy,2023.2.3,Win32,59.88023952,1,2,1,,,,,,,,8,14,,,,,,,,,,,,,2,1.779,0,,,,,,-0.139814801,-0.253703718,1,0,0,1.7786,Basalt_rect,0,0,0,0,1,
5da35e177f1f7d001405f60b,SCR,2024-06-20_16h31.10.139,LearnStrategy,2023.2.3,Win32,59.88023952,1,2,2,,,,,,,,7,08,,,,,,,,,,,,,7,2.764,1,,,,,,0.150000042,-0.400925954,1,0,0,2.7644,Peridotite_rect,1,0,1,0,1,
5da35e177f1f7d001405f60b,SCR,2024-06-20_16h31.10.139,LearnStrategy,2023.2.3,Win32,59.88023952,1,2,3,,,,,,,,4,10,,,,,,,,,,,,,3,12.718,0,,,,,,0.109259288,-0.247222265,1,0,0,12.7178,Diorite_rect,2,0,2,0,1,
5da35e177f1f7d001405f60b,SCR,2024-06-20_16h31.10.139,LearnStrategy,2023.2.3,Win32,59.88023952,1,2,4,,,,,,,,1,10,,,,,,,,,,,,,1,6.211,1,,,,,,-0.331481474,-0.25,1,0,0,6.2113,Andesite_rect,3,0,3,0,1,
5da35e177f1f7d001405f60b,SCR,2024-06-20_16h31.10.139,LearnStrategy,2023.2.3,Win32,59.88023952,1,2,5,,,,,,,,5,16,,,,,,,,,,,,,5,1.372,1,,,,,,-0.324999986,-0.39444443,1,0,0,1.3721,Obsidian_rect,4,0,4,0,1,
5da35e177f1f7d001405f60b,SCR,2024-06-20_16h31.10.139,LearnStrategy,2023.2.3,Win32,59.88023952,1,2,6,,,,,,,,5,02,,,,,,,,,,,,,5,1.249,1,,,,,,-0.324999986,-0.39444443,1,0,0,1.249,Obsidian_rect,5,0,5,0,1,
5da35e177f1f7d001405f60b,SCR,2024-06-20_16h31.10.139,LearnStrategy,2023.2.3,Win32,59.88023952,1,2,7,,,,,,,,4,08,,,,,,,,,,,,,6,4.53,0,,,,,,-0.04351849,-0.396296325,1,0,0,4.5296,Pegmatite_rect,6,0,6,0,1,
5da35e177f1f7d001405f60b,SCR,2024-06-20_16h31.10.139,LearnStrategy,2023.2.3,Win32,59.88023952,1,2,8,,,,,,,,8,09,,,,,,,,,,,,,8,1.798,1,,,,,,0.41851849,-0.404629672,1,0,0,1.7977,Pumice_rect,7,0,7,0,1,
5da35e177f1f7d001405f60b,SCR,2024-06-20_16h31.10.139,LearnStrategy,2023.2.3,Win32,59.88023952,1,2,9,,,,,,,,3,16,,,,,,,,,,,,,4,4.769,0,,,,,,0.416666667,-0.247222265,1,0,0,4.7692,Gabbro_rect,8,0,8,0,1,
5da35e177f1f7d001405f60b,SCR,2024-06-20_16h31.10.139,LearnStrategy,2023.2.3,Win32,59.88023952,1,2,10,,,,,,,,3,02,,,,,,,,,,,,,3,5.337,1,,,,,,0.113888917,-0.24537037,1,0,0,5.3365,Diorite_rect,9,0,9,0,1,
5da35e177f1f7d001405f60b,SCR,2024-06-20_16h31.10.139,LearnStrategy,2023.2.3,Win32,59.88023952,1,2,11,,,,,,,,6,05,,,,,,,,,,,,,1,6.726,0,,,,,,-0.362037023,-0.260185171,1,0,0,6.726,Andesite_rect,10,0,10,0,1,
5da35e177f1f7d001405f60b,SCR,2024-06-20_16h31.10.139,LearnStrategy,2023.2.3,Win32,59.88023952,1,2,12,,,,,,,,6,15,,,,,,,,,,,,,4,3.748,0,,,,,,0.350000028,-0.231481481,1,0,0,3.7475,Gabbro_rect,11,0,11,0,1,
5da35e177f1f7d001405f60b,SCR,2024-06-20_16h31.10.139,LearnStrategy,2023.2.3,Win32,59.88023952,1,2,13,,,,,,,,2,06,,,,,,,,,,,,,2,1.848,1,,,,,,-0.106481481,-0.247222265,1,0,0,1.8475,Basalt_rect,12,0,12,0,1,
5da35e177f1f7d001405f60b,SCR,2024-06-20_16h31.10.139,LearnStrategy,2023.2.3,Win32,59.88023952,1,2,14,,,,,,,,2,16,,,,,,,,,,,,,8,3.723,0,,,,,,0.363888917,-0.389814801,1,0,0,3.7225,Pumice_rect,13,0,13,0,1,
5da35e177f1f7d001405f60b,SCR,2024-06-20_16h31.10.139,LearnStrategy,2023.2.3,Win32,59.88023952,1,2,15,,,,,,,,1,02,,,,,,,,,,,,,7,3.643,0,,,,,,0.167592578,-0.387037065,1,0,0,3.6432,Peridotite_rect,14,0,14,0,1,
5da35e177f1f7d001405f60b,SCR,2024-06-20_16h31.10.139,LearnStrategy,2023.2.3,Win32,59.88023952,1,2,16,,,,,,,,7,06,,,,,,,,,,,,,7,0.961,1,,,,,,0.167592578,-0.387037065,1,0,0,0.9606,Peridotite_rect,15,0,15,0,1,
5da35e177f1f7d001405f60b,SCR,2024-06-20_16h31.10.139,LearnStrategy,2023.2.3,Win32,59.88023952,2,1,1,0.235185199,0.412037037,1,0,0,8.6777,Andesite_03,1,03,6,6,8.678,2,04,0.430555556,-0.236111111,1,0,0,2.5276,Gabbro_rect,4,2.528,0,0,0,0,0,1,,,,,,,,,,,,,
5da35e177f1f7d001405f60b,SCR,2024-06-20_16h31.10.139,LearnStrategy,2023.2.3,Win32,59.88023952,2,1,2,0.534259231,-0.417592578,1,0,0,4.4698,Basalt_04,2,04,1,8,4.47,4,12,-0.110185199,-0.249074088,1,0,0,2.0149,Basalt_rect,2,2.015,1,1,0,1,0,1,,,,,,,,,,,,,
5da35e177f1f7d001405f60b,SCR,2024-06-20_16h31.10.139,LearnStrategy,2023.2.3,Win32,59.88023952,2,1,3,-0.537037037,-0.423148191,1,0,0,3.9442,Diorite_14,3,14,1,1,3.944,1,04,-0.360185164,-0.243518547,1,0,0,3.0872,Andesite_rect,1,3.087,0,2,0,2,0,1,,,,,,,,,,,,,
5da35e177f1f7d001405f60b,SCR,2024-06-20_16h31.10.139,LearnStrategy,2023.2.3,Win32,59.88023952,2,1,4,-0.217592593,0.068518497,1,0,0,2.719,Gabbro_15,4,15,4,3,2.719,3,14,0.117592635,-0.256481524,1,0,0,4.8512,Diorite_rect,3,4.851,0,3,0,3,0,1,,,,,,,,,,,,,
5da35e177f1f7d001405f60b,SCR,2024-06-20_16h31.10.139,LearnStrategy,2023.2.3,Win32,59.88023952,2,1,5,-0.075925898,0.247222212,1,0,0,2.8547,Pegmatite_13,6,13,5,4,2.855,1,07,0.419444473,-0.244444459,1,0,0,1.7166,Gabbro_rect,4,1.717,0,4,0,4,0,1,,,,,,,,,,,,,
5da35e177f1f7d001405f60b,SCR,2024-06-20_16h31.10.139,LearnStrategy,2023.2.3,Win32,59.88023952,2,1,6,0.062037079,0.075925933,1,0,0,2.182,Diorite_09,3,09,4,5,2.182,8,05,-0.468518504,-0.237037023,1,0,0,3.9074,Andesite_rect,1,3.907,0,5,0,5,0,1,,,,,,,,,,,,,
5da35e177f1f7d001405f60b,SCR,2024-06-20_16h31.10.139,LearnStrategy,2023.2.3,Win32,59.88023952,2,1,7,-0.229629587,-0.243518547,1,0,0,2.2436,Andesite_04,1,04,2,3,2.244,6,13,0.35555564,-0.248148176,1,0,0,2.3905,Gabbro_rect,4,2.39,0,6,0,6,0,1,,,,,,,,,,,,,
5da35e177f1f7d001405f60b,SCR,2024-06-20_16h31.10.139,LearnStrategy,2023.2.3,Win32,59.88023952,2,1,8,-0.534259266,-0.240740741,1,0,0,3.8336,Diorite_06,3,06,2,1,3.834,3,08,-0.464814822,-0.244444459,1,0,0,1.1966,Andesite_rect,1,1.197,0,7,0,7,0,1,,,,,,,,,,,,,
5da35e177f1f7d001405f60b,SCR,2024-06-20_16h31.10.139,LearnStrategy,2023.2.3,Win32,59.88023952,2,1,9,-0.212037051,0.390740739,1,0,0,2.8769,Pegmatite_06,6,06,6,3,2.877,6,16,0.385185242,-0.262962977,1,0,0,3.5612,Gabbro_rect,4,3.561,0,8,0,8,0,1,,,,,,,,,,,,,
5da35e177f1f7d001405f60b,SCR,2024-06-20_16h31.10.139,LearnStrategy,2023.2.3,Win32,59.88023952,2,1,10,0.375,0.397222219,1,0,0,3.3138,Peridotite_15,7,15,6,7,3.314,6,06,0.104629658,-0.395370413,1,0,0,1.6246,Peridotite_rect,7,1.625,1,9,0,9,0,1,,,,,,,,,,,,,
5da35e177f1f7d001405f60b,SCR,2024-06-20_16h31.10.139,LearnStrategy,2023.2.3,Win32,59.88023952,2,1,11,-0.065740727,0.2574074,1,0,0,4.0469,Pegmatite_13,6,13,5,4,4.047,4,13,-0.398148148,-0.247222265,1,0,0,1.3919,Andesite_rect,1,1.392,0,10,0,10,0,1,,,,,,,,,,,,,
5da35e177f1f7d001405f60b,SCR,2024-06-20_16h31.10.139,LearnStrategy,2023.2.3,Win32,59.88023952,2,1,12,-0.268518519,-0.250925912,1,0,0,4.0154,Andesite_04,1,04,2,3,4.015,2,10,-0.380555541,-0.249074088,1,0,0,2.237,Andesite_rect,1,2.237,1,11,0,11,0,1,,,,,,,,,,,,,
5da35e177f1f7d001405f60b,SCR,2024-06-20_16h31.10.139,LearnStrategy,2023.2.3,Win32,59.88023952,2,1,13,-0.369444423,-0.404629672,1,0,0,3.0811,Diorite_11,3,11,1,2,3.081,7,10,-0.376851859,-0.25462963,1,0,0,1.8735,Andesite_rect,1,1.873,0,12,0,12,0,1,,,,,,,,,,,,,
5da35e177f1f7d001405f60b,SCR,2024-06-20_16h31.10.139,LearnStrategy,2023.2.3,Win32,59.88023952,2,1,14,0.091666681,-0.087037051,1,0,0,2.1312,Andesite_14,1,14,3,5,2.131,4,15,0.12037037,-0.235185199,1,0,0,3.2208,Diorite_rect,3,3.221,0,13,0,13,0,1,,,,,,,,,,,,,
5da35e177f1f7d001405f60b,SCR,2024-06-20_16h31.10.139,LearnStrategy,2023.2.3,Win32,59.88023952,2,1,15,0.537963019,0.11296297,1,0,0,3.8394,Andesite_07,1,07,4,8,3.839,8,03,0.108333376,-0.235185199,1,0,0,2.9552,Diorite_rect,3,2.955,0,14,0,14,0,1,,,,,,,,,,,,,
5da35e177f1f7d001405f60b,SCR,2024-06-20_16h31.10.139,LearnStrategy,2023.2.3,Win32,59.88023952,2,1,16,-0.224074046,-0.098148134,1,0,0,1.7805,Peridotite_12,7,12,3,3,1.781,4,15,0.158333319,-0.400000042,1,0,0,2.0982,Peridotite_rect,7,2.098,1,15,0,15,0,1,,,,,,,,,,,,,
5da35e177f1f7d001405f60b,SCR,2024-06-20_16h31.10.139,LearnStrategy,2023.2.3,Win32,59.88023952,2,2,1,,,,,,,,4,16,,,,,,,,,,,,,2,11.709,0,,,,,,-0.122222194,-0.23055557,1,0,0,11.7093,Basalt_rect,0,0,0,0,1,
5da35e177f1f7d001405f60b,SCR,2024-06-20_16h31.10.139,LearnStrategy,2023.2.3,Win32,59.88023952,2,2,2,,,,,,,,1,06,,,,,,,,,,,,,1,3.647,1,,,,,,-0.362037023,-0.243518547,1,0,0,3.647,Andesite_rect,1,0,1,0,1,
5da35e177f1f7d001405f60b,SCR,2024-06-20_16h31.10.139,LearnStrategy,2023.2.3,Win32,59.88023952,2,2,3,,,,,,,,6,12,,,,,,,,,,,,,3,4.178,0,,,,,,0.142592607,-0.253703718,1,0,0,4.1776,Diorite_rect,2,0,2,0,1,
5da35e177f1f7d001405f60b,SCR,2024-06-20_16h31.10.139,LearnStrategy,2023.2.3,Win32,59.88023952,2,2,4,,,,,,,,4,03,,,,,,,,,,,,,1,3.043,0,,,,,,-0.349074081,-0.261111153,1,0,0,3.0431,Andesite_rect,3,0,3,0,1,
5da35e177f1f7d001405f60b,SCR,2024-06-20_16h31.10.139,LearnStrategy,2023.2.3,Win32,59.88023952,2,2,5,,,,,,,,2,01,,,,,,,,,,,,,2,2.062,1,,,,,,-0.121296282,-0.261111153,1,0,0,2.0623,Basalt_rect,4,0,4,0,1,
5da35e177f1f7d001405f60b,SCR,2024-06-20_16h31.10.139,LearnStrategy,2023.2.3,Win32,59.88023952,2,2,6,,,,,,,,2,09,,,,,,,,,,,,,2,1.582,1,,,,,,-0.121296282,-0.261111153,1,0,0,1.5819,Basalt_rect,5,0,5,0,1,
5da35e177f1f7d001405f60b,SCR,2024-06-20_16h31.10.139,LearnStrategy,2023.2.3,Win32,59.88023952,2,2,7,,,,,,,,5,10,,,,,,,,,,,,,5,2.053,1,,,,,,-0.360185164,-0.402777778,1,0,0,2.0535,Obsidian_rect,6,0,6,0,1,
5da35e177f1f7d001405f60b,SCR,2024-06-20_16h31.10.139,LearnStrategy,2023.2.3,Win32,59.88023952,2,2,8,,,,,,,,6,07,,,,,,,,,,,,,7,5.048,0,,,,,,0.094444487,-0.397222236,1,0,0,5.0483,Peridotite_rect,7,0,7,0,1,
5da35e177f1f7d001405f60b,SCR,2024-06-20_16h31.10.139,LearnStrategy,2023.2.3,Win32,59.88023952,2,2,9,,,,,,,,1,11,,,,,,,,,,,,,1,2.875,1,,,,,,-0.308333326,-0.256481524,1,0,0,2.8753,Andesite_rect,8,0,8,0,1,
5da35e177f1f7d001405f60b,SCR,2024-06-20_16h31.10.139,LearnStrategy,2023.2.3,Win32,59.88023952,2,2,10,,,,,,,,8,06,,,,,,,,,,,,,8,1.465,1,,,,,,0.454629686,-0.378703718,1,0,0,1.4651,Pumice_rect,9,0,9,0,1,
5da35e177f1f7d001405f60b,SCR,2024-06-20_16h31.10.139,LearnStrategy,2023.2.3,Win32,59.88023952,2,2,11,,,,,,,,5,06,,,,,,,,,,,,,5,2.065,1,,,,,,-0.473148134,-0.37962963,1,0,0,2.0649,Obsidian_rect,10,0,10,0,1,
5da35e177f1f7d001405f60b,SCR,2024-06-20_16h31.10.139,LearnStrategy,2023.2.3,Win32,59.88023952,2,2,12,,,,,,,,8,10,,,,,,,,,,,,,8,2.348,1,,,,,,0.398148148,-0.388888889,1,0,0,2.3484,Pumice_rect,11,0,11,0,1,
5da35e177f1f7d001405f60b,SCR,2024-06-20_16h31.10.139,LearnStrategy,2023.2.3,Win32,59.88023952,2,2,13,,,,,,,,3,12,,,,,,,,,,,,,6,2.79,0,,,,,,-0.145370342,-0.412037037,1,0,0,2.7895,Pegmatite_rect,12,0,12,0,1,
5da35e177f1f7d001405f60b,SCR,2024-06-20_16h31.10.139,LearnStrategy,2023.2.3,Win32,59.88023952,2,2,14,,,,,,,,7,16,,,,,,,,,,,,,7,2.965,1,,,,,,0.166666667,-0.37962963,1,0,0,2.9653,Peridotite_rect,13,0,13,0,1,
5da35e177f1f7d001405f60b,SCR,2024-06-20_16h31.10.139,LearnStrategy,2023.2.3,Win32,59.88023952,2,2,15,,,,,,,,7,05,,,,,,,,,,,,,7,1.865,1,,,,,,0.166666667,-0.37962963,1,0,0,1.8645,Peridotite_rect,14,0,14,0,1,
5da35e177f1f7d001405f60b,SCR,2024-06-20_16h31.10.139,LearnStrategy,2023.2.3,Win32,59.88023952,2,2,16,,,,,,,,3,13,,,,,,,,,,,,,3,3.569,1,,,,,,0.14444443,-0.25462963,1,0,0,3.569,Diorite_rect,15,0,15,0,1,
5da35e177f1f7d001405f60b,SCR,2024-06-20_16h31.10.139,LearnStrategy,2023.2.3,Win32,59.88023952,3,1,1,0.54351849,0.112037023,1,0,0,5.9576,Andesite_07,1,07,4,8,5.958,4,05,-0.440740727,-0.248148176,1,0,0,2.6857,Andesite_rect,1,2.686,1,0,0,0,0,1,,,,,,,,,,,,,
5da35e177f1f7d001405f60b,SCR,2024-06-20_16h31.10.139,LearnStrategy,2023.2.3,Win32,59.88023952,3,1,2,-0.080555527,-0.406481496,1,0,0,5.4109,Pegmatite_11,6,11,1,4,5.411,2,05,0.136111153,-0.413888931,1,0,0,1.3113,Peridotite_rect,7,1.311,0,1,0,1,0,1,,,,,,,,,,,,,
5da35e177f1f7d001405f60b,SCR,2024-06-20_16h31.10.139,LearnStrategy,2023.2.3,Win32,59.88023952,3,1,3,-0.073148162,0.249074071,1,0,0,6.1309,Pegmatite_13,6,13,5,4,6.131,3,09,-0.087037051,-0.387037065,1,0,0,1.4739,Pegmatite_rect,6,1.474,1,2,0,2,0,1,,,,,,,,,,,,,
5da35e177f1f7d001405f60b,SCR,2024-06-20_16h31.10.139,LearnStrategy,2023.2.3,Win32,59.88023952,3,1,4,0.387037065,-0.24537037,1,0,0,5.7459,Pegmatite_16,6,16,2,7,5.746,6,11,-0.122222194,-0.382407436,1,0,0,2.5771,Pegmatite_rect,6,2.577,1,3,0,3,0,1,,,,,,,,,,,,,
5da35e177f1f7d001405f60b,SCR,2024-06-20_16h31.10.139,LearnStrategy,2023.2.3,Win32,59.88023952,3,1,5,-0.400925919,-0.421296296,1,0,0,6.5608,Diorite_11,3,11,1,2,6.561,6,11,-0.380555541,-0.260185171,1,0,0,2.7228,Andesite_rect,1,2.723,0,4,0,4,0,1,,,,,,,,,,,,,
5da35e177f1f7d001405f60b,SCR,2024-06-20_16h31.10.139,LearnStrategy,2023.2.3,Win32,59.88023952,3,1,6,0.079629616,0.093518504,1,0,0,1.9277,Diorite_09,3,09,4,5,1.928,6,16,0.137037065,-0.240740741,1,0,0,1.2213,Diorite_rect,3,1.221,1,5,0,5,0,1,,,,,,,,,,,,,
5da35e177f1f7d001405f60b,SCR,2024-06-20_16h31.10.139,LearnStrategy,2023.2.3,Win32,59.88023952,3,1,7,0.375,0.250925929,1,0,0,3.2277,Gabbro_13,4,13,5,7,3.228,5,04,-0.098148134,-0.387037065,1,0,0,2.9181,Pegmatite_rect,6,2.918,0,6,0,6,0,1,,,,,,,,,,,,,
5da35e177f1f7d001405f60b,SCR,2024-06-20_16h31.10.139,LearnStrategy,2023.2.3,Win32,59.88023952,3,1,8,0.575000057,-0.097222222,1,0,0,7.7022,Andesite_01,1,01,3,8,7.702,4,09,0.155555584,-0.250925912,1,0,0,2.5041,Diorite_rect,3,2.504,0,7,0,7,0,1,,,,,,,,,,,,,
5da35e177f1f7d001405f60b,SCR,2024-06-20_16h31.10.139,LearnStrategy,2023.2.3,Win32,59.88023952,3,1,9,0.09629631,0.280555548,1,0,0,4.561,Gabbro_05,4,05,5,5,4.561,3,15,-0.128703718,-0.39907406,1,0,0,3.6009,Pegmatite_rect,6,3.601,0,8,0,8,0,1,,,,,,,,,,,,,
5da35e177f1f7d001405f60b,SCR,2024-06-20_16h31.10.139,LearnStrategy,2023.2.3,Win32,59.88023952,3,1,10,0.239814829,-0.117592635,1,0,0,3.0584,Peridotite_14,7,14,3,6,3.058,7,12,0.165740755,-0.388888889,1,0,0,2.0399,Peridotite_rect,7,2.04,1,9,0,9,0,1,,,,,,,,,,,,,
5da35e177f1f7d001405f60b,SCR,2024-06-20_16h31.10.139,LearnStrategy,2023.2.3,Win32,59.88023952,3,1,11,0.417592649,0.404629628,1,0,0,5.779,Peridotite_15,7,15,6,7,5.779,4,13,0.114814829,-0.396296325,1,0,0,2.2297,Peridotite_rect,7,2.23,1,10,0,10,0,1,,,,,,,,,,,,,
5da35e177f1f7d001405f60b,SCR,2024-06-20_16h31.10.139,LearnStrategy,2023.2.3,Win32,59.88023952,3,1,12,-0.272222236,0.082407386,1,0,0,5.9571,Gabbro_15,4,15,4,3,5.957,8,04,0.421296296,-0.239814829,1,0,0,1.2366,Gabbro_rect,4,1.237,1,11,0,11,0,1,,,,,,,,,,,,,
5da35e177f1f7d001405f60b,SCR,2024-06-20_16h31.10.139,LearnStrategy,2023.2.3,Win32,59.88023952,3,1,13,-0.250925912,-0.26944443,1,0,0,1.9753,Andesite_04,1,04,2,3,1.975,3,06,-0.35833334,-0.262037065,1,0,0,1.9591,Andesite_rect,1,1.959,1,12,0,12,0,1,,,,,,,,,,,,,
5da35e177f1f7d001405f60b,SCR,2024-06-20_16h31.10.139,LearnStrategy,2023.2.3,Win32,59.88023952,3,1,14,0.098148134,-0.426851838,1,0,0,5.9567,Diorite_08,3,08,1,5,5.957,4,12,-0.110185199,-0.410185213,1,0,0,1.8135,Pegmatite_rect,6,1.814,0,13,0,13,0,1,,,,,,,,,,,,,
5da35e177f1f7d001405f60b,SCR,2024-06-20_16h31.10.139,LearnStrategy,2023.2.3,Win32,59.88023952,3,1,15,-0.547222208,-0.08425928,1,0,0,11.3551,Andesite_16,1,16,3,1,11.355,1,14,-0.434259238,-0.239814829,1,0,0,1.2957,Andesite_rect,1,1.296,1,14,0,14,0,1,,,,,,,,,,,,,
5da35e177f1f7d001405f60b,SCR,2024-06-20_16h31.10.139,LearnStrategy,2023.2.3,Win32,59.88023952,3,1,16,-0.567592586,-0.275000042,1,0,0,2.841,Diorite_06,3,06,2,1,2.841,6,03,-0.455555563,-0.248148176,1,0,0,2.1327,Andesite_rect,1,2.133,0,15,0,15,0,1,,,,,,,,,,,,,
5da35e177f1f7d001405f60b,SCR,2024-06-20_16h31.10.139,LearnStrategy,2023.2.3,Win32,59.88023952,3,2,1,,,,,,,,6,10,,,,,,,,,,,,,7,2.063,0,,,,,,0.109259288,-0.405555584,1,0,0,2.0629,Peridotite_rect,0,0,0,0,1,
5da35e177f1f7d001405f60b,SCR,2024-06-20_16h31.10.139,LearnStrategy,2023.2.3,Win32,59.88023952,3,2,2,,,,,,,,5,05,,,,,,,,,,,,,5,2.066,1,,,,,,-0.342592593,-0.39907406,1,0,0,2.0659,Obsidian_rect,1,0,1,0,1,
5da35e177f1f7d001405f60b,SCR,2024-06-20_16h31.10.139,LearnStrategy,2023.2.3,Win32,59.88023952,3,2,3,,,,,,,,8,13,,,,,,,,,,,,,8,1.442,1,,,,,,0.416666667,-0.400000042,1,0,0,1.4425,Pumice_rect,2,0,2,0,1,
5da35e177f1f7d001405f60b,SCR,2024-06-20_16h31.10.139,LearnStrategy,2023.2.3,Win32,59.88023952,3,2,4,,,,,,,,2,11,,,,,,,,,,,,,8,4.111,0,,,,,,0.416666667,-0.400000042,1,0,0,4.1105,Pumice_rect,3,0,3,0,1,
5da35e177f1f7d001405f60b,SCR,2024-06-20_16h31.10.139,LearnStrategy,2023.2.3,Win32,59.88023952,3,2,5,,,,,,,,7,02,,,,,,,,,,,,,7,1.432,1,,,,,,0.183333362,-0.401851866,1,0,0,1.4317,Peridotite_rect,4,0,4,0,1,
5da35e177f1f7d001405f60b,SCR,2024-06-20_16h31.10.139,LearnStrategy,2023.2.3,Win32,59.88023952,3,2,6,,,,,,,,8,08,,,,,,,,,,,,,8,1.699,1,,,,,,0.347222222,-0.395370413,1,0,0,1.6991,Pumice_rect,5,0,5,0,1,
5da35e177f1f7d001405f60b,SCR,2024-06-20_16h31.10.139,LearnStrategy,2023.2.3,Win32,59.88023952,3,2,7,,,,,,,,4,14,,,,,,,,,,,,,4,2.082,1,,,,,,0.358333305,-0.258333347,1,0,0,2.0817,Gabbro_rect,6,0,6,0,1,
5da35e177f1f7d001405f60b,SCR,2024-06-20_16h31.10.139,LearnStrategy,2023.2.3,Win32,59.88023952,3,2,8,,,,,,,,3,10,,,,,,,,,,,,,3,4.749,1,,,,,,0.175000014,-0.255555541,1,0,0,4.7494,Diorite_rect,7,0,7,0,1,
5da35e177f1f7d001405f60b,SCR,2024-06-20_16h31.10.139,LearnStrategy,2023.2.3,Win32,59.88023952,3,2,9,,,,,,,,7,07,,,,,,,,,,,,,7,1.616,1,,,,,,0.168518561,-0.411111125,1,0,0,1.6159,Peridotite_rect,8,0,8,0,1,
5da35e177f1f7d001405f60b,SCR,2024-06-20_16h31.10.139,LearnStrategy,2023.2.3,Win32,59.88023952,3,2,10,,,,,,,,2,02,,,,,,,,,,,,,2,3.999,1,,,,,,-0.125925912,-0.243518547,1,0,0,3.9988,Basalt_rect,9,0,9,0,1,
5da35e177f1f7d001405f60b,SCR,2024-06-20_16h31.10.139,LearnStrategy,2023.2.3,Win32,59.88023952,3,2,11,,,,,,,,1,05,,,,,,,,,,,,,1,5.615,1,,,,,,-0.366666653,-0.244444459,1,0,0,5.6149,Andesite_rect,10,0,10,0,1,
5da35e177f1f7d001405f60b,SCR,2024-06-20_16h31.10.139,LearnStrategy,2023.2.3,Win32,59.88023952,3,2,12,,,,,,,,1,09,,,,,,,,,,,,,8,3.33,0,,,,,,0.425925926,-0.385185171,1,0,0,3.3301,Pumice_rect,11,0,11,0,1,
5da35e177f1f7d001405f60b,SCR,2024-06-20_16h31.10.139,LearnStrategy,2023.2.3,Win32,59.88023952,3,2,13,,,,,,,,3,07,,,,,,,,,,,,,6,2.416,0,,,,,,-0.058333291,-0.388888889,1,0,0,2.4156,Pegmatite_rect,12,0,12,0,1,
5da35e177f1f7d001405f60b,SCR,2024-06-20_16h31.10.139,LearnStrategy,2023.2.3,Win32,59.88023952,3,2,14,,,,,,,,5,07,,,,,,,,,,,,,5,1.437,1,,,,,,-0.333333333,-0.398148148,1,0,0,1.4367,Obsidian_rect,13,0,13,0,1,
5da35e177f1f7d001405f60b,SCR,2024-06-20_16h31.10.139,LearnStrategy,2023.2.3,Win32,59.88023952,3,2,15,,,,,,,,6,08,,,,,,,,,,,,,6,3.299,1,,,,,,-0.158333319,-0.402777778,1,0,0,3.2988,Pegmatite_rect,14,0,14,0,1,
5da35e177f1f7d001405f60b,SCR,2024-06-20_16h31.10.139,LearnStrategy,2023.2.3,Win32,59.88023952,3,2,16,,,,,,,,4,01,,,,,,,,,,,,,1,3.244,0,,,,,,-0.357407393,-0.25,1,0,0,3.2435,Andesite_rect,15,0,15,0,1,
5da35e177f1f7d001405f60b,SCR,2024-06-20_16h31.10.139,LearnStrategy,2023.2.3,Win32,59.88023952,4,1,1,-0.54074072,0.37685185,1,0,0,9.4277,Basalt_10,2,10,6,1,9.428,6,16,-0.119444459,-0.253703718,1,0,0,1.4158,Basalt_rect,2,1.416,1,0,0,0,0,1,,,,,,,,,,,,,
5da35e177f1f7d001405f60b,SCR,2024-06-20_16h31.10.139,LearnStrategy,2023.2.3,Win32,59.88023952,4,1,2,-0.231481481,0.38981481,1,0,0,1.411,Pegmatite_06,6,06,6,3,1.411,6,13,-0.104629587,-0.415740755,1,0,0,3.0931,Pegmatite_rect,6,3.093,1,1,0,1,0,1,,,,,,,,,,,,,
5da35e177f1f7d001405f60b,SCR,2024-06-20_16h31.10.139,LearnStrategy,2023.2.3,Win32,59.88023952,4,1,3,-0.056481467,0.407407407,1,0,0,2.1117,Pumice_04,8,04,6,4,2.112,3,14,0.429629714,-0.400000042,1,0,0,1.1087,Pumice_rect,8,1.109,1,2,0,2,0,1,,,,,,,,,,,,,
5da35e177f1f7d001405f60b,SCR,2024-06-20_16h31.10.139,LearnStrategy,2023.2.3,Win32,59.88023952,4,1,4,0.055555556,0.417592587,1,0,0,2.9812,Basalt_14,2,14,6,5,2.981,2,14,0.390740712,-0.237037023,1,0,0,2.9204,Gabbro_rect,4,2.92,0,3,0,3,0,1,,,,,,,,,,,,,
5da35e177f1f7d001405f60b,SCR,2024-06-20_16h31.10.139,LearnStrategy,2023.2.3,Win32,59.88023952,4,1,5,0.243518547,0.413888887,1,0,0,1.5789,Andesite_03,1,03,6,6,1.579,6,13,-0.384259259,-0.25,1,0,0,2.7791,Andesite_rect,1,2.779,1,4,0,4,0,1,,,,,,,,,,,,,
5da35e177f1f7d001405f60b,SCR,2024-06-20_16h31.10.139,LearnStrategy,2023.2.3,Win32,59.88023952,4,1,6,0.392592677,0.420370367,1,0,0,1.4786,Peridotite_15,7,15,6,7,1.479,1,04,0.12037037,-0.401851866,1,0,0,1.3735,Peridotite_rect,7,1.373,1,5,0,5,0,1,,,,,,,,,,,,,
5da35e177f1f7d001405f60b,SCR,2024-06-20_16h31.10.139,LearnStrategy,2023.2.3,Win32,59.88023952,4,1,7,0.57685188,0.435185185,1,0,0,1.0797,Basalt_12,2,12,6,8,1.08,3,15,0.388888889,-0.389814801,1,0,0,2.2297,Pumice_rect,8,2.23,0,6,0,6,0,1,,,,,,,,,,,,,
5da35e177f1f7d001405f60b,SCR,2024-06-20_16h31.10.139,LearnStrategy,2023.2.3,Win32,59.88023952,4,1,8,-0.574999986,0.232407411,1,0,0,1.7326,Gabbro_11,4,11,5,1,1.733,2,08,-0.349074081,-0.237037023,1,0,0,2.6771,Andesite_rect,1,2.677,0,7,0,7,0,1,,,,,,,,,,,,,
5da35e177f1f7d001405f60b,SCR,2024-06-20_16h31.10.139,LearnStrategy,2023.2.3,Win32,59.88023952,4,1,9,-0.404629637,0.248148141,1,0,0,1.4665,Pumice_02,8,02,5,2,1.466,3,06,0.426851908,-0.413888931,1,0,0,1.4164,Pumice_rect,8,1.416,1,8,0,8,0,1,,,,,,,,,,,,,
5da35e177f1f7d001405f60b,SCR,2024-06-20_16h31.10.139,LearnStrategy,2023.2.3,Win32,59.88023952,4,1,10,-0.069444444,0.26203703,1,0,0,2.9552,Pegmatite_13,6,13,5,4,2.955,7,10,-0.092592593,-0.390740783,1,0,0,1.3569,Pegmatite_rect,6,1.357,1,9,0,9,0,1,,,,,,,,,,,,,
5da35e177f1f7d001405f60b,SCR,2024-06-20_16h31.10.139,LearnStrategy,2023.2.3,Win32,59.88023952,4,1,11,0.093518504,0.259259259,1,0,0,1.5802,Gabbro_05,4,05,5,5,1.58,6,03,0.416666667,-0.239814829,1,0,0,2.1973,Gabbro_rect,4,2.197,1,10,0,10,0,1,,,,,,,,,,,,,
5da35e177f1f7d001405f60b,SCR,2024-06-20_16h31.10.139,LearnStrategy,2023.2.3,Win32,59.88023952,4,1,12,0.397222307,0.249074071,1,0,0,1.9139,Gabbro_13,4,13,5,7,1.914,8,15,0.398148148,-0.25462963,1,0,0,2.28,Gabbro_rect,4,2.28,1,11,0,11,0,1,,,,,,,,,,,,,
5da35e177f1f7d001405f60b,SCR,2024-06-20_16h31.10.139,LearnStrategy,2023.2.3,Win32,59.88023952,4,1,13,0.551851908,0.099999993,1,0,0,2.6017,Andesite_07,1,07,4,8,2.602,1,03,-0.137036995,-0.398148148,1,0,0,1.7189,Pegmatite_rect,6,1.719,0,12,0,12,0,1,,,,,,,,,,,,,
5da35e177f1f7d001405f60b,SCR,2024-06-20_16h31.10.139,LearnStrategy,2023.2.3,Win32,59.88023952,4,1,14,0.215740769,0.094444452,1,0,0,3.1794,Peridotite_10,7,10,4,6,3.179,4,13,0.125925912,-0.405555584,1,0,0,1.4931,Peridotite_rect,7,1.493,1,13,0,13,0,1,,,,,,,,,,,,,
5da35e177f1f7d001405f60b,SCR,2024-06-20_16h31.10.139,LearnStrategy,2023.2.3,Win32,59.88023952,4,1,15,0.079629616,0.086111104,1,0,0,2.7983,Diorite_09,3,09,4,5,2.798,4,15,-0.165740755,-0.397222236,1,0,0,1.9149,Pegmatite_rect,6,1.915,0,14,0,14,0,1,,,,,,,,,,,,,
5da35e177f1f7d001405f60b,SCR,2024-06-20_16h31.10.139,LearnStrategy,2023.2.3,Win32,59.88023952,4,1,16,-0.071296268,0.090740734,1,0,0,1.2826,Diorite_15,3,15,4,4,1.283,4,15,-0.362037023,-0.255555541,1,0,0,6.479,Andesite_rect,1,6.479,0,15,0,15,0,1,,,,,,,,,,,,,
5da35e177f1f7d001405f60b,SCR,2024-06-20_16h31.10.139,LearnStrategy,2023.2.3,Win32,59.88023952,4,2,1,,,,,,,,8,13,,,,,,,,,,,,,8,2.148,1,,,,,,0.436111168,-0.407407407,1,0,0,2.1484,Pumice_rect,0,0,0,0,1,
5da35e177f1f7d001405f60b,SCR,2024-06-20_16h31.10.139,LearnStrategy,2023.2.3,Win32,59.88023952,4,2,2,,,,,,,,4,01,,,,,,,,,,,,,7,8.476,0,,,,,,0.165740755,-0.378703718,1,0,0,8.476,Peridotite_rect,1,0,1,0,1,
5da35e177f1f7d001405f60b,SCR,2024-06-20_16h31.10.139,LearnStrategy,2023.2.3,Win32,59.88023952,4,2,3,,,,,,,,6,15,,,,,,,,,,,,,6,4.959,1,,,,,,-0.098148134,-0.398148148,1,0,0,4.959,Pegmatite_rect,2,0,2,0,1,
5da35e177f1f7d001405f60b,SCR,2024-06-20_16h31.10.139,LearnStrategy,2023.2.3,Win32,59.88023952,4,2,4,,,,,,,,1,11,,,,,,,,,,,,,1,2.977,1,,,,,,-0.378703683,-0.261111153,1,0,0,2.977,Andesite_rect,3,0,3,0,1,
5da35e177f1f7d001405f60b,SCR,2024-06-20_16h31.10.139,LearnStrategy,2023.2.3,Win32,59.88023952,4,2,5,,,,,,,,7,08,,,,,,,,,,,,,7,1.396,1,,,,,,0.125,-0.395370413,1,0,0,1.3958,Peridotite_rect,4,0,4,0,1,
5da35e177f1f7d001405f60b,SCR,2024-06-20_16h31.10.139,LearnStrategy,2023.2.3,Win32,59.88023952,4,2,6,,,,,,,,7,06,,,,,,,,,,,,,7,0.96,1,,,,,,0.125,-0.395370413,1,0,0,0.9602,Peridotite_rect,5,0,5,0,1,
5da35e177f1f7d001405f60b,SCR,2024-06-20_16h31.10.139,LearnStrategy,2023.2.3,Win32,59.88023952,4,2,7,,,,,,,,8,09,,,,,,,,,,,,,8,1.315,1,,,,,,0.398148148,-0.392592607,1,0,0,1.3149,Pumice_rect,6,0,6,0,1,
5da35e177f1f7d001405f60b,SCR,2024-06-20_16h31.10.139,LearnStrategy,2023.2.3,Win32,59.88023952,4,2,8,,,,,,,,4,10,,,,,,,,,,,,,2,4.906,0,,,,,,-0.127777735,-0.244444459,1,0,0,4.9057,Basalt_rect,7,0,7,0,1,
5da35e177f1f7d001405f60b,SCR,2024-06-20_16h31.10.139,LearnStrategy,2023.2.3,Win32,59.88023952,4,2,9,,,,,,,,3,13,,,,,,,,,,,,,3,3.832,1,,,,,,0.137037065,-0.246296282,1,0,0,3.8315,Diorite_rect,8,0,8,0,1,
5da35e177f1f7d001405f60b,SCR,2024-06-20_16h31.10.139,LearnStrategy,2023.2.3,Win32,59.88023952,4,2,10,,,,,,,,1,02,,,,,,,,,,,,,1,4.593,1,,,,,,-0.414814808,-0.262037065,1,0,0,4.5932,Andesite_rect,9,0,9,0,1,
5da35e177f1f7d001405f60b,SCR,2024-06-20_16h31.10.139,LearnStrategy,2023.2.3,Win32,59.88023952,4,2,11,,,,,,,,5,07,,,,,,,,,,,,,5,1.143,1,,,,,,-0.380555541,-0.404629672,1,0,0,1.1433,Obsidian_rect,10,0,10,0,1,
5da35e177f1f7d001405f60b,SCR,2024-06-20_16h31.10.139,LearnStrategy,2023.2.3,Win32,59.88023952,4,2,12,,,,,,,,6,07,,,,,,,,,,,,,6,3.627,1,,,,,,-0.087962963,-0.396296325,1,0,0,3.6268,Pegmatite_rect,11,0,11,0,1,
5da35e177f1f7d001405f60b,SCR,2024-06-20_16h31.10.139,LearnStrategy,2023.2.3,Win32,59.88023952,4,2,13,,,,,,,,2,02,,,,,,,,,,,,,2,2.065,1,,,,,,-0.112962935,-0.258333347,1,0,0,2.0651,Basalt_rect,12,0,12,0,1,
5da35e177f1f7d001405f60b,SCR,2024-06-20_16h31.10.139,LearnStrategy,2023.2.3,Win32,59.88023952,4,2,14,,,,,,,,5,05,,,,,,,,,,,,,5,1.808,1,,,,,,-0.389814801,-0.400000042,1,0,0,1.8077,Obsidian_rect,13,0,13,0,1,
5da35e177f1f7d001405f60b,SCR,2024-06-20_16h31.10.139,LearnStrategy,2023.2.3,Win32,59.88023952,4,2,15,,,,,,,,3,16,,,,,,,,,,,,,3,2.282,1,,,,,,0.104629658,-0.251851894,1,0,0,2.2821,Diorite_rect,14,0,14,0,1,
5da35e177f1f7d001405f60b,SCR,2024-06-20_16h31.10.139,LearnStrategy,2023.2.3,Win32,59.88023952,4,2,16,,,,,,,,2,09,,,,,,,,,,,,,2,1.367,1,,,,,,-0.087962963,-0.255555541,1,0,0,1.3672,Basalt_rect,15,0,15,0,1,
5da35e177f1f7d001405f60b,SCR,2024-06-20_16h31.10.139,LearnStrategy,2023.2.3,Win32,59.88023952,5,1,1,-0.209259245,0.086111104,1,0,0,6.4145,Gabbro_15,4,15,4,3,6.415,4,09,0.434259344,-0.249074088,1,0,0,4.3292,Gabbro_rect,4,4.329,1,0,0,0,0,1,,,,,,,,,,,,,
5da35e177f1f7d001405f60b,SCR,2024-06-20_16h31.10.139,LearnStrategy,2023.2.3,Win32,59.88023952,5,1,2,-0.047222208,0.087037016,1,0,0,1.8879,Diorite_15,3,15,4,4,1.888,3,15,0.112963005,-0.247222265,1,0,0,7.2196,Diorite_rect,3,7.22,1,1,0,1,0,1,,,,,,,,,,,,,
5da35e177f1f7d001405f60b,SCR,2024-06-20_16h31.10.139,LearnStrategy,2023.2.3,Win32,59.88023952,5,1,3,0.065740727,0.097222222,1,0,0,2.1446,Diorite_09,3,09,4,5,2.145,7,10,0.121296282,-0.26944443,1,0,0,1.1774,Diorite_rect,3,1.177,1,2,0,2,0,1,,,,,,,,,,,,,
5da35e177f1f7d001405f60b,SCR,2024-06-20_16h31.10.139,LearnStrategy,2023.2.3,Win32,59.88023952,5,1,4,-0.255555541,0.390740739,1,0,0,5.2109,Pegmatite_06,6,06,6,3,5.211,6,06,-0.146296254,-0.389814801,1,0,0,3.1235,Pegmatite_rect,6,3.124,1,3,0,3,0,1,,,,,,,,,,,,,
5da35e177f1f7d001405f60b,SCR,2024-06-20_16h31.10.139,LearnStrategy,2023.2.3,Win32,59.88023952,5,1,5,0.207407422,0.099074081,1,0,0,3.5975,Peridotite_10,7,10,4,6,3.597,8,15,0.181481467,-0.401851866,1,0,0,1.2963,Peridotite_rect,7,1.296,1,4,0,4,0,1,,,,,,,,,,,,,
5da35e177f1f7d001405f60b,SCR,2024-06-20_16h31.10.139,LearnStrategy,2023.2.3,Win32,59.88023952,5,1,6,0.534259231,0.084259245,1,0,0,2.2141,Andesite_07,1,07,4,8,2.214,4,05,0.10092594,-0.26944443,1,0,0,1.7884,Diorite_rect,3,1.788,0,5,0,5,0,1,,,,,,,,,,,,,
5da35e177f1f7d001405f60b,SCR,2024-06-20_16h31.10.139,LearnStrategy,2023.2.3,Win32,59.88023952,5,1,7,0.569444444,-0.118518547,1,0,0,1.7966,Andesite_01,1,01,3,8,1.797,6,16,-0.099074046,-0.246296282,1,0,0,2.3308,Basalt_rect,2,2.331,0,6,0,6,0,1,,,,,,,,,,,,,
5da35e177f1f7d001405f60b,SCR,2024-06-20_16h31.10.139,LearnStrategy,2023.2.3,Win32,59.88023952,5,1,8,0.062962991,-0.114814829,1,0,0,4.112,Andesite_14,1,14,3,5,4.112,6,11,0.099074116,-0.24537037,1,0,0,1.4231,Diorite_rect,3,1.423,0,7,0,7,0,1,,,,,,,,,,,,,
5da35e177f1f7d001405f60b,SCR,2024-06-20_16h31.10.139,LearnStrategy,2023.2.3,Win32,59.88023952,5,1,9,-0.530555548,-0.112963005,1,0,0,4.0481,Andesite_16,1,16,3,1,4.048,2,14,-0.407407407,-0.271296325,1,0,0,3.3859,Andesite_rect,1,3.386,1,8,0,8,0,1,,,,,,,,,,,,,
5da35e177f1f7d001405f60b,SCR,2024-06-20_16h31.10.139,LearnStrategy,2023.2.3,Win32,59.88023952,5,1,10,-0.566666674,-0.261111153,1,0,0,1.5313,Diorite_06,3,06,2,1,1.531,4,11,0.097222222,-0.259259259,1,0,0,2.1375,Diorite_rect,3,2.138,1,9,0,9,0,1,,,,,,,,,,,,,
5da35e177f1f7d001405f60b,SCR,2024-06-20_16h31.10.139,LearnStrategy,2023.2.3,Win32,59.88023952,5,1,11,-0.22592594,-0.275000042,1,0,0,1.8779,Andesite_04,1,04,2,3,1.878,4,15,0.410185213,-0.263888889,1,0,0,2.0561,Gabbro_rect,4,2.056,0,10,0,10,0,1,,,,,,,,,,,,,
5da35e177f1f7d001405f60b,SCR,2024-06-20_16h31.10.139,LearnStrategy,2023.2.3,Win32,59.88023952,5,1,12,0.400925954,-0.252777806,1,0,0,4.199,Pegmatite_16,6,16,2,7,4.199,1,07,-0.137036995,-0.389814801,1,0,0,2.6202,Pegmatite_rect,6,2.62,1,11,0,11,0,1,,,,,,,,,,,,,
5da35e177f1f7d001405f60b,SCR,2024-06-20_16h31.10.139,LearnStrategy,2023.2.3,Win32,59.88023952,5,1,13,0.584259316,-0.246296282,1,0,0,1.465,Gabbro_12,4,12,2,8,1.465,3,09,0.148148148,-0.250925912,1,0,0,5.166,Diorite_rect,3,5.166,0,12,0,12,0,1,,,,,,,,,,,,,
5da35e177f1f7d001405f60b,SCR,2024-06-20_16h31.10.139,LearnStrategy,2023.2.3,Win32,59.88023952,5,1,14,-0.25,-0.275000042,1,0,0,3.3242,Andesite_04,1,04,2,3,3.324,4,05,0.425000085,-0.249074088,1,0,0,1.9362,Gabbro_rect,4,1.936,0,13,0,13,0,1,,,,,,,,,,,,,
5da35e177f1f7d001405f60b,SCR,2024-06-20_16h31.10.139,LearnStrategy,2023.2.3,Win32,59.88023952,5,1,15,-0.539814808,-0.273148148,1,0,0,1.69,Diorite_06,3,06,2,1,1.69,1,16,0.185185185,-0.252777806,1,0,0,2.5516,Diorite_rect,3,2.552,1,14,0,14,0,1,,,,,,,,,,,,,
5da35e177f1f7d001405f60b,SCR,2024-06-20_16h31.10.139,LearnStrategy,2023.2.3,Win32,59.88023952,5,1,16,-0.553703697,-0.416666667,1,0,0,1.3154,Diorite_14,3,14,1,1,1.315,2,10,0.12037037,-0.257407436,1,0,0,1.1489,Diorite_rect,3,1.149,1,15,0,15,0,1,,,,,,,,,,,,,
5da35e177f1f7d001405f60b,SCR,2024-06-20_16h31.10.139,LearnStrategy,2023.2.3,Win32,59.88023952,5,2,1,,,,,,,,3,02,,,,,,,,,,,,,3,2.443,1,,,,,,0.121296282,-0.239814829,1,0,0,2.443,Diorite_rect,0,0,0,0,1,
5da35e177f1f7d001405f60b,SCR,2024-06-20_16h31.10.139,LearnStrategy,2023.2.3,Win32,59.88023952,5,2,2,,,,,,,,1,10,,,,,,,,,,,,,1,3.716,1,,,,,,-0.347222222,-0.260185171,1,0,0,3.7159,Andesite_rect,1,0,1,0,1,
5da35e177f1f7d001405f60b,SCR,2024-06-20_16h31.10.139,LearnStrategy,2023.2.3,Win32,59.88023952,5,2,3,,,,,,,,6,10,,,,,,,,,,,,,7,1.256,0,,,,,,0.108333376,-0.391666695,1,0,0,1.2561,Peridotite_rect,2,0,2,0,1,
5da35e177f1f7d001405f60b,SCR,2024-06-20_16h31.10.139,LearnStrategy,2023.2.3,Win32,59.88023952,5,2,4,,,,,,,,8,06,,,,,,,,,,,,,8,1.227,1,,,,,,0.383333418,-0.388888889,1,0,0,1.2273,Pumice_rect,3,0,3,0,1,
5da35e177f1f7d001405f60b,SCR,2024-06-20_16h31.10.139,LearnStrategy,2023.2.3,Win32,59.88023952,5,2,5,,,,,,,,1,06,,,,,,,,,,,,,1,3.213,1,,,,,,-0.365740741,-0.240740741,1,0,0,3.2132,Andesite_rect,4,0,4,0,1,
5da35e177f1f7d001405f60b,SCR,2024-06-20_16h31.10.139,LearnStrategy,2023.2.3,Win32,59.88023952,5,2,6,,,,,,,,6,12,,,,,,,,,,,,,6,3.66,1,,,,,,-0.094444416,-0.414814843,1,0,0,3.66,Pegmatite_rect,5,0,5,0,1,
5da35e177f1f7d001405f60b,SCR,2024-06-20_16h31.10.139,LearnStrategy,2023.2.3,Win32,59.88023952,5,2,7,,,,,,,,7,05,,,,,,,,,,,,,7,1.287,1,,,,,,0.154629672,-0.388888889,1,0,0,1.2872,Peridotite_rect,6,0,6,0,1,
5da35e177f1f7d001405f60b,SCR,2024-06-20_16h31.10.139,LearnStrategy,2023.2.3,Win32,59.88023952,5,2,8,,,,,,,,2,06,,,,,,,,,,,,,2,1.551,1,,,,,,-0.093518504,-0.247222265,1,0,0,1.5513,Basalt_rect,7,0,7,0,1,
5da35e177f1f7d001405f60b,SCR,2024-06-20_16h31.10.139,LearnStrategy,2023.2.3,Win32,59.88023952,5,2,9,,,,,,,,5,06,,,,,,,,,,,,,5,1.353,1,,,,,,-0.3675926,-0.387037065,1,0,0,1.3531,Obsidian_rect,8,0,8,0,1,
5da35e177f1f7d001405f60b,SCR,2024-06-20_16h31.10.139,LearnStrategy,2023.2.3,Win32,59.88023952,5,2,10,,,,,,,,7,16,,,,,,,,,,,,,7,1.269,1,,,,,,0.104629658,-0.384259259,1,0,0,1.2689,Peridotite_rect,9,0,9,0,1,
5da35e177f1f7d001405f60b,SCR,2024-06-20_16h31.10.139,LearnStrategy,2023.2.3,Win32,59.88023952,5,2,11,,,,,,,,5,02,,,,,,,,,,,,,5,1.277,1,,,,,,-0.362037023,-0.392592607,1,0,0,1.2769,Obsidian_rect,10,0,10,0,1,
5da35e177f1f7d001405f60b,SCR,2024-06-20_16h31.10.139,LearnStrategy,2023.2.3,Win32,59.88023952,5,2,12,,,,,,,,8,14,,,,,,,,,,,,,8,2.233,1,,,,,,0.361111111,-0.385185171,1,0,0,2.2325,Pumice_rect,11,0,11,0,1,
5da35e177f1f7d001405f60b,SCR,2024-06-20_16h31.10.139,LearnStrategy,2023.2.3,Win32,59.88023952,5,2,13,,,,,,,,2,16,,,,,,,,,,,,,4,5.309,0,,,,,,0.366666723,-0.255555541,1,0,0,5.3093,Gabbro_rect,12,0,12,0,1,
5da35e177f1f7d001405f60b,SCR,2024-06-20_16h31.10.139,LearnStrategy,2023.2.3,Win32,59.88023952,5,2,14,,,,,,,,3,12,,,,,,,,,,,,,3,1.998,1,,,,,,0.142592607,-0.265740783,1,0,0,1.9977,Diorite_rect,13,0,13,0,1,
5da35e177f1f7d001405f60b,SCR,2024-06-20_16h31.10.139,LearnStrategy,2023.2.3,Win32,59.88023952,5,2,15,,,,,,,,4,14,,,,,,,,,,,,,4,1.932,1,,,,,,0.373148176,-0.263888889,1,0,0,1.9317,Gabbro_rect,14,0,14,0,1,
5da35e177f1f7d001405f60b,SCR,2024-06-20_16h31.10.139,LearnStrategy,2023.2.3,Win32,59.88023952,5,2,16,,,,,,,,4,08,,,,,,,,,,,,,1,2.749,0,,,,,,-0.380555541,-0.263888889,1,0,0,2.7489,Andesite_rect,15,0,15,0,1,
5da35e177f1f7d001405f60b,SCR,2024-06-20_16h31.10.139,LearnStrategy,2023.2.3,Win32,59.88023952,6,1,1,-0.541666667,0.404629628,1,0,0,2.1957,Basalt_10,2,10,6,1,2.196,4,11,-0.095370328,-0.249074088,1,0,0,1.4291,Basalt_rect,2,1.429,1,0,0,0,0,1,,,,,,,,,,,,,
5da35e177f1f7d001405f60b,SCR,2024-06-20_16h31.10.139,LearnStrategy,2023.2.3,Win32,59.88023952,6,1,2,0.236111111,0.093518504,1,0,0,1.2479,Peridotite_10,7,10,4,6,1.248,7,10,0.15370369,-0.391666695,1,0,0,1.7629,Peridotite_rect,7,1.763,1,1,0,1,0,1,,,,,,,,,,,,,
5da35e177f1f7d001405f60b,SCR,2024-06-20_16h31.10.139,LearnStrategy,2023.2.3,Win32,59.88023952,6,1,3,-0.235185199,0.062037044,1,0,0,1.0158,Gabbro_15,4,15,4,3,1.016,4,15,-0.371296282,-0.237963005,1,0,0,3.3291,Andesite_rect,1,3.329,0,2,0,2,0,1,,,,,,,,,,,,,
5da35e177f1f7d001405f60b,SCR,2024-06-20_16h31.10.139,LearnStrategy,2023.2.3,Win32,59.88023952,6,1,4,0.056481467,0.255555559,1,0,0,1.9049,Gabbro_05,4,05,5,5,1.905,4,05,-0.397222201,-0.258333347,1,0,0,3.5189,Andesite_rect,1,3.519,0,3,0,3,0,1,,,,,,,,,,,,,
5da35e177f1f7d001405f60b,SCR,2024-06-20_16h31.10.139,LearnStrategy,2023.2.3,Win32,59.88023952,6,1,5,0.07685188,0.103703711,1,0,0,1.3252,Diorite_09,3,09,4,5,1.325,3,09,0.131481524,-0.246296282,1,0,0,1.1033,Diorite_rect,3,1.103,1,4,0,4,0,1,,,,,,,,,,,,,
5da35e177f1f7d001405f60b,SCR,2024-06-20_16h31.10.139,LearnStrategy,2023.2.3,Win32,59.88023952,6,1,6,0.530555584,0.227777781,1,0,0,2.0058,Basalt_05,2,05,5,8,2.006,2,05,-0.208333333,-0.255555541,1,0,0,1.2981,Basalt_rect,2,1.298,1,5,0,5,0,1,,,,,,,,,,,,,
5da35e177f1f7d001405f60b,SCR,2024-06-20_16h31.10.139,LearnStrategy,2023.2.3,Win32,59.88023952,6,1,7,0.211111139,-0.374074088,1,0,0,1.8232,Pegmatite_09,6,09,1,6,1.823,6,09,0.164814843,-0.389814801,1,0,0,0.789,Peridotite_rect,7,0.789,0,6,0,6,0,1,,,,,,,,,,,,,
5da35e177f1f7d001405f60b,SCR,2024-06-20_16h31.10.139,LearnStrategy,2023.2.3,Win32,59.88023952,6,1,8,0.378703788,-0.243518547,1,0,0,1.863,Pegmatite_16,6,16,2,7,1.863,6,16,-0.141666624,-0.421296296,1,0,0,1.2001,Pegmatite_rect,6,1.2,1,7,0,7,0,1,,,,,,,,,,,,,
5da35e177f1f7d001405f60b,SCR,2024-06-20_16h31.10.139,LearnStrategy,2023.2.3,Win32,59.88023952,6,1,9,0.069444444,0.104629623,1,0,0,1.9286,Diorite_09,3,09,4,5,1.929,3,09,0.115740741,-0.250925912,1,0,0,1.421,Diorite_rect,3,1.421,1,8,0,8,0,1,,,,,,,,,,,,,
5da35e177f1f7d001405f60b,SCR,2024-06-20_16h31.10.139,LearnStrategy,2023.2.3,Win32,59.88023952,6,1,10,-0.060185185,-0.410185213,1,0,0,1.6323,Pegmatite_11,6,11,1,4,1.632,6,11,0.373148176,-0.237963005,1,0,0,2.0498,Gabbro_rect,4,2.05,0,9,0,9,0,1,,,,,,,,,,,,,
5da35e177f1f7d001405f60b,SCR,2024-06-20_16h31.10.139,LearnStrategy,2023.2.3,Win32,59.88023952,6,1,11,-0.553703697,0.393518519,1,0,0,1.7486,Basalt_10,2,10,6,1,1.749,2,10,-0.111111111,-0.244444459,1,0,0,1.4402,Basalt_rect,2,1.44,1,10,0,10,0,1,,,,,,,,,,,,,
5da35e177f1f7d001405f60b,SCR,2024-06-20_16h31.10.139,LearnStrategy,2023.2.3,Win32,59.88023952,6,1,12,0.066666709,-0.085185192,1,0,0,1.3299,Andesite_14,1,14,3,5,1.33,1,14,-0.132407365,-0.398148148,1,0,0,3.031,Pegmatite_rect,6,3.031,0,11,0,11,0,1,,,,,,,,,,,,,
5da35e177f1f7d001405f60b,SCR,2024-06-20_16h31.10.139,LearnStrategy,2023.2.3,Win32,59.88023952,6,1,13,0.231481481,-0.250925912,1,0,0,1.6902,Pumice_15,8,15,2,6,1.69,8,15,0.385185242,-0.392592607,1,0,0,1.0471,Pumice_rect,8,1.047,1,12,0,12,0,1,,,,,,,,,,,,,
5da35e177f1f7d001405f60b,SCR,2024-06-20_16h31.10.139,LearnStrategy,2023.2.3,Win32,59.88023952,6,1,14,0.391666695,0.252777771,1,0,0,1.9316,Gabbro_13,4,13,5,7,1.932,4,13,0.393518519,-0.236111111,1,0,0,1.1382,Gabbro_rect,4,1.138,1,13,0,13,0,1,,,,,,,,,,,,,
5da35e177f1f7d001405f60b,SCR,2024-06-20_16h31.10.139,LearnStrategy,2023.2.3,Win32,59.88023952,6,1,15,0.063888903,0.24166667,1,0,0,2.1117,Gabbro_05,4,05,5,5,2.112,4,05,-0.41111109,-0.240740741,1,0,0,5.9796,Andesite_rect,1,5.98,0,14,0,14,0,1,,,,,,,,,,,,,
5da35e177f1f7d001405f60b,SCR,2024-06-20_16h31.10.139,LearnStrategy,2023.2.3,Win32,59.88023952,6,1,16,-0.361111111,0.394444439,1,0,0,1.3329,Obsidian_08,5,08,6,2,1.333,5,08,-0.36296297,-0.391666695,1,0,0,1.7131,Obsidian_rect,5,1.713,1,15,0,15,0,1,,,,,,,,,,,,,
5da35e177f1f7d001405f60b,SCR,2024-06-20_16h31.10.139,LearnStrategy,2023.2.3,Win32,59.88023952,6,2,1,,,,,,,,2,01,,,,,,,,,,,,,2,1.693,1,,,,,,-0.110185199,-0.258333347,1,0,0,1.6933,Basalt_rect,0,0,0,0,1,
5da35e177f1f7d001405f60b,SCR,2024-06-20_16h31.10.139,LearnStrategy,2023.2.3,Win32,59.88023952,6,2,2,,,,,,,,6,08,,,,,,,,,,,,,6,2.581,1,,,,,,-0.10555557,-0.405555584,1,0,0,2.5813,Pegmatite_rect,1,0,1,0,1,
5da35e177f1f7d001405f60b,SCR,2024-06-20_16h31.10.139,LearnStrategy,2023.2.3,Win32,59.88023952,6,2,3,,,,,,,,1,09,,,,,,,,,,,,,1,5.281,1,,,,,,-0.37962963,-0.244444459,1,0,0,5.2813,Andesite_rect,2,0,2,0,1,
5da35e177f1f7d001405f60b,SCR,2024-06-20_16h31.10.139,LearnStrategy,2023.2.3,Win32,59.88023952,6,2,4,,,,,,,,4,16,,,,,,,,,,,,,4,1.933,1,,,,,,0.442592621,-0.247222265,1,0,0,1.9332,Gabbro_rect,3,0,3,0,1,
5da35e177f1f7d001405f60b,SCR,2024-06-20_16h31.10.139,LearnStrategy,2023.2.3,Win32,59.88023952,6,2,5,,,,,,,,5,16,,,,,,,,,,,,,5,1.432,1,,,,,,-0.408333319,-0.390740783,1,0,0,1.4316,Obsidian_rect,4,0,4,0,1,
5da35e177f1f7d001405f60b,SCR,2024-06-20_16h31.10.139,LearnStrategy,2023.2.3,Win32,59.88023952,6,2,6,,,,,,,,7,07,,,,,,,,,,,,,7,1.366,1,,,,,,0.166666667,-0.411111125,1,0,0,1.3657,Peridotite_rect,5,0,5,0,1,
5da35e177f1f7d001405f60b,SCR,2024-06-20_16h31.10.139,LearnStrategy,2023.2.3,Win32,59.88023952,6,2,7,,,,,,,,1,05,,,,,,,,,,,,,1,3.264,1,,,,,,-0.357407393,-0.262037065,1,0,0,3.2642,Andesite_rect,6,0,6,0,1,
5da35e177f1f7d001405f60b,SCR,2024-06-20_16h31.10.139,LearnStrategy,2023.2.3,Win32,59.88023952,6,2,8,,,,,,,,3,07,,,,,,,,,,,,,3,2.983,1,,,,,,0.154629672,-0.250925912,1,0,0,2.9825,Diorite_rect,7,0,7,0,1,
5da35e177f1f7d001405f60b,SCR,2024-06-20_16h31.10.139,LearnStrategy,2023.2.3,Win32,59.88023952,6,2,9,,,,,,,,7,02,,,,,,,,,,,,,7,1.165,1,,,,,,0.15370369,-0.392592607,1,0,0,1.165,Peridotite_rect,8,0,8,0,1,
5da35e177f1f7d001405f60b,SCR,2024-06-20_16h31.10.139,LearnStrategy,2023.2.3,Win32,59.88023952,6,2,10,,,,,,,,2,11,,,,,,,,,,,,,8,3.732,0,,,,,,0.419444473,-0.391666695,1,0,0,3.7319,Pumice_rect,9,0,9,0,1,
5da35e177f1f7d001405f60b,SCR,2024-06-20_16h31.10.139,LearnStrategy,2023.2.3,Win32,59.88023952,6,2,11,,,,,,,,8,10,,,,,,,,,,,,,8,1.131,1,,,,,,0.419444473,-0.391666695,1,0,0,1.1313,Pumice_rect,10,0,10,0,1,
5da35e177f1f7d001405f60b,SCR,2024-06-20_16h31.10.139,LearnStrategy,2023.2.3,Win32,59.88023952,6,2,12,,,,,,,,4,03,,,,,,,,,,,,,1,5.165,0,,,,,,-0.351851852,-0.236111111,1,0,0,5.1648,Andesite_rect,11,0,11,0,1,
5da35e177f1f7d001405f60b,SCR,2024-06-20_16h31.10.139,LearnStrategy,2023.2.3,Win32,59.88023952,6,2,13,,,,,,,,3,10,,,,,,,,,,,,,3,4.647,1,,,,,,0.102777764,-0.233333376,1,0,0,4.6467,Diorite_rect,12,0,12,0,1,
5da35e177f1f7d001405f60b,SCR,2024-06-20_16h31.10.139,LearnStrategy,2023.2.3,Win32,59.88023952,6,2,14,,,,,,,,5,10,,,,,,,,,,,,,5,1.327,1,,,,,,-0.40648146,-0.400000042,1,0,0,1.3269,Obsidian_rect,13,0,13,0,1,
5da35e177f1f7d001405f60b,SCR,2024-06-20_16h31.10.139,LearnStrategy,2023.2.3,Win32,59.88023952,6,2,15,,,,,,,,6,05,,,,,,,,,,,,,6,1.581,1,,,,,,-0.123148106,-0.40370369,1,0,0,1.5805,Pegmatite_rect,14,0,14,0,1,
5da35e177f1f7d001405f60b,SCR,2024-06-20_16h31.10.139,LearnStrategy,2023.2.3,Win32,59.88023952,6,2,16,,,,,,,,8,08,,,,,,,,,,,,,8,1.468,1,,,,,,0.341666751,-0.388888889,1,0,0,1.4684,Pumice_rect,15,0,15,0,1,
5da35e177f1f7d001405f60b,SCR,2024-06-20_16h31.10.139,LearnStrategy,2023.2.3,Win32,59.88023952,7,1,1,0.521296325,-0.266666695,1,0,0,4.5294,Gabbro_12,4,12,2,8,4.529,4,12,-0.366666653,-0.260185171,1,0,0,1.9369,Andesite_rect,1,1.937,0,0,0,0,0,1,,,,,,,,,,,,,
5da35e177f1f7d001405f60b,SCR,2024-06-20_16h31.10.139,LearnStrategy,2023.2.3,Win32,59.88023952,7,1,2,0.538888861,0.390740739,1,0,0,1.5609,Basalt_12,2,12,6,8,1.561,2,12,0.386111083,-0.400000042,1,0,0,1.5474,Pumice_rect,8,1.547,0,1,0,1,0,1,,,,,,,,,,,,,
5da35e177f1f7d001405f60b,SCR,2024-06-20_16h31.10.139,LearnStrategy,2023.2.3,Win32,59.88023952,7,1,3,-0.241666653,-0.398148148,1,0,0,1.6482,Gabbro_09,4,09,1,3,1.648,4,09,-0.150925884,-0.258333347,1,0,0,7.6206,Basalt_rect,2,7.621,0,2,0,2,0,1,,,,,,,,,,,,,
5da35e177f1f7d001405f60b,SCR,2024-06-20_16h31.10.139,LearnStrategy,2023.2.3,Win32,59.88023952,7,1,4,-0.240740741,-0.083333333,1,0,0,0.9946,Peridotite_12,7,12,3,3,0.995,7,12,0.147222236,-0.40370369,1,0,0,1.3992,Peridotite_rect,7,1.399,1,3,0,3,0,1,,,,,,,,,,,,,
5da35e177f1f7d001405f60b,SCR,2024-06-20_16h31.10.139,LearnStrategy,2023.2.3,Win32,59.88023952,7,1,5,-0.369444423,-0.39444443,1,0,0,2.363,Diorite_11,3,11,1,2,2.363,5,08,0.117592635,-0.250925912,1,0,0,2.3473,Diorite_rect,3,2.347,1,4,0,4,0,1,,,,,,,,,,,,,
5da35e177f1f7d001405f60b,SCR,2024-06-20_16h31.10.139,LearnStrategy,2023.2.3,Win32,59.88023952,7,1,6,0.375925982,0.249074071,1,0,0,1.5168,Gabbro_13,4,13,5,7,1.517,4,13,0.366666723,-0.246296282,1,0,0,0.9806,Gabbro_rect,4,0.981,1,5,0,5,0,1,,,,,,,,,,,,,
5da35e177f1f7d001405f60b,SCR,2024-06-20_16h31.10.139,LearnStrategy,2023.2.3,Win32,59.88023952,7,1,7,-0.070370356,0.256481471,1,0,0,1.3967,Pegmatite_13,6,13,5,4,1.397,6,13,-0.138888889,-0.404629672,1,0,0,1.6556,Pegmatite_rect,6,1.656,1,6,0,6,0,1,,,,,,,,,,,,,
5da35e177f1f7d001405f60b,SCR,2024-06-20_16h31.10.139,LearnStrategy,2023.2.3,Win32,59.88023952,7,1,8,0.07222225,0.235185182,1,0,0,1.4302,Gabbro_05,4,05,5,5,1.43,4,05,0.398148148,-0.256481524,1,0,0,4.1362,Gabbro_rect,4,4.136,1,7,0,7,0,1,,,,,,,,,,,,,
5da35e177f1f7d001405f60b,SCR,2024-06-20_16h31.10.139,LearnStrategy,2023.2.3,Win32,59.88023952,7,1,9,0.053703732,0.087962963,1,0,0,1.1829,Diorite_09,3,09,4,5,1.183,3,09,0.106481481,-0.250925912,1,0,0,1.0505,Diorite_rect,3,1.051,1,8,0,8,0,1,,,,,,,,,,,,,
5da35e177f1f7d001405f60b,SCR,2024-06-20_16h31.10.139,LearnStrategy,2023.2.3,Win32,59.88023952,7,1,10,-0.226851852,-0.406481496,1,0,0,1.681,Gabbro_09,4,09,1,3,1.681,4,09,0.321296268,-0.252777806,1,0,0,6.1124,Gabbro_rect,4,6.112,1,9,0,9,0,1,,,,,,,,,,,,,
5da35e177f1f7d001405f60b,SCR,2024-06-20_16h31.10.139,LearnStrategy,2023.2.3,Win32,59.88023952,7,1,11,-0.541666667,0.084259245,1,0,0,1.2828,Pumice_03,8,03,4,1,1.283,8,03,0.405555584,-0.402777778,1,0,0,1.3446,Pumice_rect,8,1.345,1,10,0,10,0,1,,,,,,,,,,,,,
5da35e177f1f7d001405f60b,SCR,2024-06-20_16h31.10.139,LearnStrategy,2023.2.3,Win32,59.88023952,7,1,12,-0.224074046,-0.242592635,1,0,0,1.16,Andesite_04,1,04,2,3,1.16,1,04,-0.381481489,-0.249074088,1,0,0,2.5427,Andesite_rect,1,2.543,1,11,0,11,0,1,,,,,,,,,,,,,
5da35e177f1f7d001405f60b,SCR,2024-06-20_16h31.10.139,LearnStrategy,2023.2.3,Win32,59.88023952,7,1,13,-0.061111097,-0.08888891,1,0,0,0.9491,Basalt_08,2,08,3,4,0.949,2,08,-0.115740741,-0.240740741,1,0,0,1.1333,Basalt_rect,2,1.133,1,12,0,12,0,1,,,,,,,,,,,,,
5da35e177f1f7d001405f60b,SCR,2024-06-20_16h31.10.139,LearnStrategy,2023.2.3,Win32,59.88023952,7,1,14,-0.054629644,-0.390740783,1,0,0,1.7088,Pegmatite_11,6,11,1,4,1.709,6,11,-0.111111111,-0.39444443,1,0,0,0.7279,Pegmatite_rect,6,0.728,1,13,0,13,0,1,,,,,,,,,,,,,
5da35e177f1f7d001405f60b,SCR,2024-06-20_16h31.10.139,LearnStrategy,2023.2.3,Win32,59.88023952,7,1,15,-0.542592578,0.421296296,1,0,0,1.7645,Basalt_10,2,10,6,1,1.764,2,10,-0.139814801,-0.250925912,1,0,0,1.3718,Basalt_rect,2,1.372,1,14,0,14,0,1,,,,,,,,,,,,,
5da35e177f1f7d001405f60b,SCR,2024-06-20_16h31.10.139,LearnStrategy,2023.2.3,Win32,59.88023952,7,1,16,0.214814857,0.391666668,1,0,0,1.4474,Andesite_03,1,03,6,6,1.447,1,03,0.421296296,-0.265740783,1,0,0,3.6059,Gabbro_rect,4,3.606,0,15,0,15,0,1,,,,,,,,,,,,,
5da35e177f1f7d001405f60b,SCR,2024-06-20_16h31.10.139,LearnStrategy,2023.2.3,Win32,59.88023952,7,2,1,,,,,,,,4,08,,,,,,,,,,,,,4,5.263,1,,,,,,0.419444473,-0.237037023,1,0,0,5.2634,Gabbro_rect,0,0,0,0,1,
5da35e177f1f7d001405f60b,SCR,2024-06-20_16h31.10.139,LearnStrategy,2023.2.3,Win32,59.88023952,7,2,2,,,,,,,,2,01,,,,,,,,,,,,,2,1.332,1,,,,,,-0.12037037,-0.258333347,1,0,0,1.3323,Basalt_rect,1,0,1,0,1,
5da35e177f1f7d001405f60b,SCR,2024-06-20_16h31.10.139,LearnStrategy,2023.2.3,Win32,59.88023952,7,2,3,,,,,,,,5,02,,,,,,,,,,,,,5,1.285,1,,,,,,-0.368518511,-0.396296325,1,0,0,1.2855,Obsidian_rect,2,0,2,0,1,
5da35e177f1f7d001405f60b,SCR,2024-06-20_16h31.10.139,LearnStrategy,2023.2.3,Win32,59.88023952,7,2,4,,,,,,,,8,06,,,,,,,,,,,,,8,1.281,1,,,,,,0.399074131,-0.402777778,1,0,0,1.2814,Pumice_rect,3,0,3,0,1,
5da35e177f1f7d001405f60b,SCR,2024-06-20_16h31.10.139,LearnStrategy,2023.2.3,Win32,59.88023952,7,2,5,,,,,,,,6,08,,,,,,,,,,,,,6,1.248,1,,,,,,-0.106481481,-0.407407407,1,0,0,1.248,Pegmatite_rect,4,0,4,0,1,
5da35e177f1f7d001405f60b,SCR,2024-06-20_16h31.10.139,LearnStrategy,2023.2.3,Win32,59.88023952,7,2,6,,,,,,,,5,16,,,,,,,,,,,,,5,1.066,1,,,,,,-0.323148127,-0.392592607,1,0,0,1.0656,Obsidian_rect,5,0,5,0,1,
5da35e177f1f7d001405f60b,SCR,2024-06-20_16h31.10.139,LearnStrategy,2023.2.3,Win32,59.88023952,7,2,7,,,,,,,,6,10,,,,,,,,,,,,,7,1.149,0,,,,,,0.087037051,-0.388888889,1,0,0,1.1493,Peridotite_rect,6,0,6,0,1,
5da35e177f1f7d001405f60b,SCR,2024-06-20_16h31.10.139,LearnStrategy,2023.2.3,Win32,59.88023952,7,2,8,,,,,,,,7,06,,,,,,,,,,,,,7,2.41,1,,,,,,0.087037051,-0.388888889,1,0,0,2.4097,Peridotite_rect,7,0,7,0,1,
5da35e177f1f7d001405f60b,SCR,2024-06-20_16h31.10.139,LearnStrategy,2023.2.3,Win32,59.88023952,7,2,9,,,,,,,,2,06,,,,,,,,,,,,,2,1.348,1,,,,,,-0.099074046,-0.241666653,1,0,0,1.3478,Basalt_rect,8,0,8,0,1,
5da35e177f1f7d001405f60b,SCR,2024-06-20_16h31.10.139,LearnStrategy,2023.2.3,Win32,59.88023952,7,2,10,,,,,,,,3,13,,,,,,,,,,,,,3,1.583,1,,,,,,0.150000042,-0.246296282,1,0,0,1.5831,Diorite_rect,9,0,9,0,1,
5da35e177f1f7d001405f60b,SCR,2024-06-20_16h31.10.139,LearnStrategy,2023.2.3,Win32,59.88023952,7,2,11,,,,,,,,1,06,,,,,,,,,,,,,1,2.731,1,,,,,,-0.393518519,-0.256481524,1,0,0,2.7314,Andesite_rect,10,0,10,0,1,
5da35e177f1f7d001405f60b,SCR,2024-06-20_16h31.10.139,LearnStrategy,2023.2.3,Win32,59.88023952,7,2,12,,,,,,,,7,07,,,,,,,,,,,,,7,1.532,1,,,,,,0.136111153,-0.385185171,1,0,0,1.5317,Peridotite_rect,11,0,11,0,1,
5da35e177f1f7d001405f60b,SCR,2024-06-20_16h31.10.139,LearnStrategy,2023.2.3,Win32,59.88023952,7,2,13,,,,,,,,4,14,,,,,,,,,,,,,4,1.194,1,,,,,,0.399074131,-0.247222265,1,0,0,1.1936,Gabbro_rect,12,0,12,0,1,
5da35e177f1f7d001405f60b,SCR,2024-06-20_16h31.10.139,LearnStrategy,2023.2.3,Win32,59.88023952,7,2,14,,,,,,,,1,10,,,,,,,,,,,,,1,4.715,1,,,,,,-0.39907406,-0.260185171,1,0,0,4.715,Andesite_rect,13,0,13,0,1,
5da35e177f1f7d001405f60b,SCR,2024-06-20_16h31.10.139,LearnStrategy,2023.2.3,Win32,59.88023952,7,2,15,,,,,,,,8,14,,,,,,,,,,,,,8,1.332,1,,,,,,0.366666723,-0.407407407,1,0,0,1.3321,Pumice_rect,14,0,14,0,1,
5da35e177f1f7d001405f60b,SCR,2024-06-20_16h31.10.139,LearnStrategy,2023.2.3,Win32,59.88023952,7,2,16,,,,,,,,3,10,,,,,,,,,,,,,3,2.11,1,,,,,,0.128703718,-0.248148176,1,0,0,2.1103,Diorite_rect,15,0,15,0,1,
5da35e177f1f7d001405f60b,SCR,2024-06-20_16h31.10.139,LearnStrategy,2023.2.3,Win32,59.88023952,8,1,1,-0.381481489,-0.08425928,1,0,0,1.1782,Pegmatite_03,6,03,3,2,1.178,6,03,-0.118518476,-0.389814801,1,0,0,2.9767,Pegmatite_rect,6,2.977,1,0,0,0,0,1,,,,,,,,,,,,,
5da35e177f1f7d001405f60b,SCR,2024-06-20_16h31.10.139,LearnStrategy,2023.2.3,Win32,59.88023952,8,1,2,-0.223148134,0.086111104,1,0,0,1.0616,Gabbro_15,4,15,4,3,1.062,4,15,0.411111196,-0.246296282,1,0,0,1.1657,Gabbro_rect,4,1.166,1,1,0,1,0,1,,,,,,,,,,,,,
5da35e177f1f7d001405f60b,SCR,2024-06-20_16h31.10.139,LearnStrategy,2023.2.3,Win32,59.88023952,8,1,3,-0.241666653,0.417592587,1,0,0,1.2984,Pegmatite_06,6,06,6,3,1.298,6,06,-0.12037037,-0.40370369,1,0,0,2.906,Pegmatite_rect,6,2.906,1,2,0,2,0,1,,,,,,,,,,,,,
5da35e177f1f7d001405f60b,SCR,2024-06-20_16h31.10.139,LearnStrategy,2023.2.3,Win32,59.88023952,8,1,4,0.211111139,0.425925926,1,0,0,0.9545,Andesite_03,1,03,6,6,0.955,1,03,0.428703732,-0.249074088,1,0,0,1.5677,Gabbro_rect,4,1.568,0,3,0,3,0,1,,,,,,,,,,,,,
5da35e177f1f7d001405f60b,SCR,2024-06-20_16h31.10.139,LearnStrategy,2023.2.3,Win32,59.88023952,8,1,5,-0.062962921,-0.223148134,1,0,0,1.167,Pumice_16,8,16,2,4,1.167,8,16,0.387963048,-0.391666695,1,0,0,0.78,Pumice_rect,8,0.78,1,4,0,4,0,1,,,,,,,,,,,,,
5da35e177f1f7d001405f60b,SCR,2024-06-20_16h31.10.139,LearnStrategy,2023.2.3,Win32,59.88023952,8,1,6,0.530555584,-0.229629658,1,0,0,1.6632,Gabbro_12,4,12,2,8,1.663,4,12,0.392592677,-0.258333347,1,0,0,1.3075,Gabbro_rect,4,1.307,1,5,0,5,0,1,,,,,,,,,,,,,
5da35e177f1f7d001405f60b,SCR,2024-06-20_16h31.10.139,LearnStrategy,2023.2.3,Win32,59.88023952,8,1,7,-0.389814801,0.099999993,1,0,0,1.06,Obsidian_14,5,14,4,2,1.06,5,14,-0.398148148,-0.405555584,1,0,0,0.8926,Obsidian_rect,5,0.893,1,6,0,6,0,1,,,,,,,,,,,,,
5da35e177f1f7d001405f60b,SCR,2024-06-20_16h31.10.139,LearnStrategy,2023.2.3,Win32,59.88023952,8,1,8,-0.268518519,-0.437037079,1,0,0,1.4982,Gabbro_09,4,09,1,3,1.498,4,09,-0.102777764,-0.237963005,1,0,0,4.6593,Basalt_rect,2,4.659,0,7,0,7,0,1,,,,,,,,,,,,,
5da35e177f1f7d001405f60b,SCR,2024-06-20_16h31.10.139,LearnStrategy,2023.2.3,Win32,59.88023952,8,1,9,-0.215740698,-0.071296303,1,0,0,1.0149,Peridotite_12,7,12,3,3,1.015,7,12,0.102777764,-0.40370369,1,0,0,1.1972,Peridotite_rect,7,1.197,1,8,0,8,0,1,,,,,,,,,,,,,
5da35e177f1f7d001405f60b,SCR,2024-06-20_16h31.10.139,LearnStrategy,2023.2.3,Win32,59.88023952,8,1,10,0.574074074,0.240740741,1,0,0,1.3138,Basalt_05,2,05,5,8,1.314,2,05,-0.10555557,-0.237037023,1,0,0,1.2044,Basalt_rect,2,1.204,1,9,0,9,0,1,,,,,,,,,,,,,
5da35e177f1f7d001405f60b,SCR,2024-06-20_16h31.10.139,LearnStrategy,2023.2.3,Win32,59.88023952,8,1,11,0.385185242,-0.242592635,1,0,0,1.3653,Pegmatite_16,6,16,2,7,1.365,6,16,-0.178703661,-0.405555584,1,0,0,0.7873,Pegmatite_rect,6,0.787,1,10,0,10,0,1,,,,,,,,,,,,,
5da35e177f1f7d001405f60b,SCR,2024-06-20_16h31.10.139,LearnStrategy,2023.2.3,Win32,59.88023952,8,1,12,0.211111139,-0.40370369,1,0,0,1.317,Pegmatite_09,6,09,1,6,1.317,6,09,-0.097222222,-0.385185171,1,0,0,1.6134,Pegmatite_rect,6,1.613,1,11,0,11,0,1,,,,,,,,,,,,,
5da35e177f1f7d001405f60b,SCR,2024-06-20_16h31.10.139,LearnStrategy,2023.2.3,Win32,59.88023952,8,1,13,-0.545370349,0.415740737,1,0,0,1.4633,Basalt_10,2,10,6,1,1.463,2,10,-0.104629587,-0.231481481,1,0,0,1.2992,Basalt_rect,2,1.299,1,12,0,12,0,1,,,,,,,,,,,,,
5da35e177f1f7d001405f60b,SCR,2024-06-20_16h31.10.139,LearnStrategy,2023.2.3,Win32,59.88023952,8,1,14,-0.571296303,0.399074069,1,0,0,1.2327,Basalt_10,2,10,6,1,1.233,2,10,-0.081481439,-0.264814801,1,0,0,1.7854,Basalt_rect,2,1.785,1,13,0,13,0,1,,,,,,,,,,,,,
5da35e177f1f7d001405f60b,SCR,2024-06-20_16h31.10.139,LearnStrategy,2023.2.3,Win32,59.88023952,8,1,15,-0.560185185,-0.244444459,1,0,0,2.1289,Diorite_06,3,06,2,1,2.129,3,06,0.14907406,-0.251851894,1,0,0,1.5204,Diorite_rect,3,1.52,1,14,0,14,0,1,,,,,,,,,,,,,
5da35e177f1f7d001405f60b,SCR,2024-06-20_16h31.10.139,LearnStrategy,2023.2.3,Win32,59.88023952,8,1,16,0.390740712,0.259259259,1,0,0,1.3804,Gabbro_13,4,13,5,7,1.38,4,13,0.399999972,-0.258333347,1,0,0,0.7897,Gabbro_rect,4,0.79,1,15,0,15,0,1,,,,,,,,,,,,,
5da35e177f1f7d001405f60b,SCR,2024-06-20_16h31.10.139,LearnStrategy,2023.2.3,Win32,59.88023952,8,2,1,,,,,,,,7,16,,,,,,,,,,,,,7,3.081,1,,,,,,0.161111125,-0.40370369,1,0,0,3.0805,Peridotite_rect,0,0,0,0,1,
5da35e177f1f7d001405f60b,SCR,2024-06-20_16h31.10.139,LearnStrategy,2023.2.3,Win32,59.88023952,8,2,2,,,,,,,,8,10,,,,,,,,,,,,,8,1.257,1,,,,,,0.334259316,-0.389814801,1,0,0,1.2573,Pumice_rect,1,0,1,0,1,
5da35e177f1f7d001405f60b,SCR,2024-06-20_16h31.10.139,LearnStrategy,2023.2.3,Win32,59.88023952,8,2,3,,,,,,,,1,05,,,,,,,,,,,,,1,2.249,1,,,,,,-0.39907406,-0.249074088,1,0,0,2.2493,Andesite_rect,2,0,2,0,1,
5da35e177f1f7d001405f60b,SCR,2024-06-20_16h31.10.139,LearnStrategy,2023.2.3,Win32,59.88023952,8,2,4,,,,,,,,3,07,,,,,,,,,,,,,3,4.115,1,,,,,,0.109259288,-0.249074088,1,0,0,4.1154,Diorite_rect,3,0,3,0,1,
5da35e177f1f7d001405f60b,SCR,2024-06-20_16h31.10.139,LearnStrategy,2023.2.3,Win32,59.88023952,8,2,5,,,,,,,,7,08,,,,,,,,,,,,,7,1.332,1,,,,,,0.138888889,-0.39907406,1,0,0,1.3315,Peridotite_rect,4,0,4,0,1,
5da35e177f1f7d001405f60b,SCR,2024-06-20_16h31.10.139,LearnStrategy,2023.2.3,Win32,59.88023952,8,2,6,,,,,,,,3,02,,,,,,,,,,,,,3,3.226,1,,,,,,0.123148176,-0.251851894,1,0,0,3.2265,Diorite_rect,5,0,5,0,1,
5da35e177f1f7d001405f60b,SCR,2024-06-20_16h31.10.139,LearnStrategy,2023.2.3,Win32,59.88023952,8,2,7,,,,,,,,8,09,,,,,,,,,,,,,8,1.175,1,,,,,,0.384259259,-0.400000042,1,0,0,1.1752,Pumice_rect,6,0,6,0,1,
5da35e177f1f7d001405f60b,SCR,2024-06-20_16h31.10.139,LearnStrategy,2023.2.3,Win32,59.88023952,8,2,8,,,,,,,,2,02,,,,,,,,,,,,,2,1.239,1,,,,,,-0.146296254,-0.251851894,1,0,0,1.239,Basalt_rect,7,0,7,0,1,
5da35e177f1f7d001405f60b,SCR,2024-06-20_16h31.10.139,LearnStrategy,2023.2.3,Win32,59.88023952,8,2,9,,,,,,,,5,06,,,,,,,,,,,,,5,1.518,1,,,,,,-0.336111104,-0.388888889,1,0,0,1.5177,Obsidian_rect,8,0,8,0,1,
5da35e177f1f7d001405f60b,SCR,2024-06-20_16h31.10.139,LearnStrategy,2023.2.3,Win32,59.88023952,8,2,10,,,,,,,,4,10,,,,,,,,,,,,,4,3.479,1,,,,,,0.344444416,-0.247222265,1,0,0,3.4787,Gabbro_rect,9,0,9,0,1,
5da35e177f1f7d001405f60b,SCR,2024-06-20_16h31.10.139,LearnStrategy,2023.2.3,Win32,59.88023952,8,2,11,,,,,,,,5,10,,,,,,,,,,,,,5,1.279,1,,,,,,-0.387962942,-0.402777778,1,0,0,1.2787,Obsidian_rect,10,0,10,0,1,
5da35e177f1f7d001405f60b,SCR,2024-06-20_16h31.10.139,LearnStrategy,2023.2.3,Win32,59.88023952,8,2,12,,,,,,,,6,12,,,,,,,,,,,,,6,2.994,1,,,,,,-0.170370384,-0.411111125,1,0,0,2.9938,Pegmatite_rect,11,0,11,0,1,
5da35e177f1f7d001405f60b,SCR,2024-06-20_16h31.10.139,LearnStrategy,2023.2.3,Win32,59.88023952,8,2,13,,,,,,,,1,02,,,,,,,,,,,,,1,3.132,1,,,,,,-0.317592586,-0.264814801,1,0,0,3.1317,Andesite_rect,12,0,12,0,1,
5da35e177f1f7d001405f60b,SCR,2024-06-20_16h31.10.139,LearnStrategy,2023.2.3,Win32,59.88023952,8,2,14,,,,,,,,6,15,,,,,,,,,,,,,6,1.511,1,,,,,,-0.135185171,-0.395370413,1,0,0,1.5111,Pegmatite_rect,13,0,13,0,1,
5da35e177f1f7d001405f60b,SCR,2024-06-20_16h31.10.139,LearnStrategy,2023.2.3,Win32,59.88023952,8,2,15,,,,,,,,2,11,,,,,,,,,,,,,2,1.574,1,,,,,,-0.134259259,-0.251851894,1,0,0,1.5743,Basalt_rect,14,0,14,0,1,
5da35e177f1f7d001405f60b,SCR,2024-06-20_16h31.10.139,LearnStrategy,2023.2.3,Win32,59.88023952,8,2,16,,,,,,,,4,16,,,,,,,,,,,,,4,1.566,1,,,,,,0.376851824,-0.240740741,1,0,0,1.5659,Gabbro_rect,15,0,15,0,1,
5da35e177f1f7d001405f60b,SCR,2024-06-20_16h31.10.139,LearnStrategy,2023.2.3,Win32,59.88023952,9,1,1,-0.556481467,0.262962959,1,0,0,1.1642,Gabbro_11,4,11,5,1,1.164,4,11,0.499074159,-0.258333347,1,0,0,1.8672,Gabbro_rect,4,1.867,1,0,0,0,0,1,,,,,,,,,,,,,
5da35e177f1f7d001405f60b,SCR,2024-06-20_16h31.10.139,LearnStrategy,2023.2.3,Win32,59.88023952,9,1,2,-0.385185171,-0.070370392,1,0,0,0.8784,Pegmatite_03,6,03,3,2,0.878,6,03,-0.109259217,-0.404629672,1,0,0,1.44,Pegmatite_rect,6,1.44,1,1,0,1,0,1,,,,,,,,,,,,,
5da35e177f1f7d001405f60b,SCR,2024-06-20_16h31.10.139,LearnStrategy,2023.2.3,Win32,59.88023952,9,1,3,-0.083333333,-0.099074116,1,0,0,0.7072,Basalt_08,2,08,3,4,0.707,2,08,-0.133333347,-0.257407436,1,0,0,1.0893,Basalt_rect,2,1.089,1,2,0,2,0,1,,,,,,,,,,,,,
5da35e177f1f7d001405f60b,SCR,2024-06-20_16h31.10.139,LearnStrategy,2023.2.3,Win32,59.88023952,9,1,4,0.575925898,-0.257407436,1,0,0,0.9968,Gabbro_12,4,12,2,8,0.997,4,12,0.387037065,-0.247222265,1,0,0,1.4994,Gabbro_rect,4,1.499,1,3,0,3,0,1,,,,,,,,,,,,,
5da35e177f1f7d001405f60b,SCR,2024-06-20_16h31.10.139,LearnStrategy,2023.2.3,Win32,59.88023952,9,1,5,-0.098148134,-0.085185192,1,0,0,0.7496,Basalt_08,2,08,3,4,0.75,2,08,-0.112037023,-0.251851894,1,0,0,1.1486,Basalt_rect,2,1.149,1,4,0,4,0,1,,,,,,,,,,,,,
5da35e177f1f7d001405f60b,SCR,2024-06-20_16h31.10.139,LearnStrategy,2023.2.3,Win32,59.88023952,9,1,6,0.571296268,-0.386111153,1,0,0,1.1611,Basalt_04,2,04,1,8,1.161,2,04,-0.121296282,-0.252777806,1,0,0,1.427,Basalt_rect,2,1.427,1,5,0,5,0,1,,,,,,,,,,,,,
5da35e177f1f7d001405f60b,SCR,2024-06-20_16h31.10.139,LearnStrategy,2023.2.3,Win32,59.88023952,9,1,7,0.075925968,-0.081481474,1,0,0,0.8964,Andesite_14,1,14,3,5,0.896,1,14,0.088888875,-0.257407436,1,0,0,2.755,Diorite_rect,3,2.755,0,6,0,6,0,1,,,,,,,,,,,,,
5da35e177f1f7d001405f60b,SCR,2024-06-20_16h31.10.139,LearnStrategy,2023.2.3,Win32,59.88023952,9,1,8,-0.554629608,-0.222222222,1,0,0,1.5169,Diorite_06,3,06,2,1,1.517,3,06,0.133333347,-0.241666653,1,0,0,2.0222,Diorite_rect,3,2.022,1,7,0,7,0,1,,,,,,,,,,,,,
5da35e177f1f7d001405f60b,SCR,2024-06-20_16h31.10.139,LearnStrategy,2023.2.3,Win32,59.88023952,9,1,9,-0.23055557,-0.369444459,1,0,0,1.1161,Gabbro_09,4,09,1,3,1.116,4,09,0.380555612,-0.249074088,1,0,0,1.5953,Gabbro_rect,4,1.595,1,8,0,8,0,1,,,,,,,,,,,,,
5da35e177f1f7d001405f60b,SCR,2024-06-20_16h31.10.139,LearnStrategy,2023.2.3,Win32,59.88023952,9,1,10,0.371296353,-0.067592586,1,0,0,1.2629,Obsidian_12,5,12,3,7,1.263,5,12,-0.470370363,-0.416666667,1,0,0,0.9025,Obsidian_rect,5,0.902,1,9,0,9,0,1,,,,,,,,,,,,,
5da35e177f1f7d001405f60b,SCR,2024-06-20_16h31.10.139,LearnStrategy,2023.2.3,Win32,59.88023952,9,1,11,-0.062962921,-0.25,1,0,0,1.1834,Pumice_16,8,16,2,4,1.183,8,16,0.417592649,-0.418518561,1,0,0,0.7151,Pumice_rect,8,0.715,1,10,0,10,0,1,,,,,,,,,,,,,
5da35e177f1f7d001405f60b,SCR,2024-06-20_16h31.10.139,LearnStrategy,2023.2.3,Win32,59.88023952,9,1,12,0.211111139,0.079629616,1,0,0,1.4139,Peridotite_10,7,10,4,6,1.414,7,10,0.155555584,-0.389814801,1,0,0,1.3129,Peridotite_rect,7,1.313,1,11,0,11,0,1,,,,,,,,,,,,,
5da35e177f1f7d001405f60b,SCR,2024-06-20_16h31.10.139,LearnStrategy,2023.2.3,Win32,59.88023952,9,1,13,-0.355555534,-0.075000021,1,0,0,1.212,Pegmatite_03,6,03,3,2,1.212,6,03,-0.172222208,-0.387037065,1,0,0,1.5783,Pegmatite_rect,6,1.578,1,12,0,12,0,1,,,,,,,,,,,,,
5da35e177f1f7d001405f60b,SCR,2024-06-20_16h31.10.139,LearnStrategy,2023.2.3,Win32,59.88023952,9,1,14,0.518518519,0.099999993,1,0,0,1.9169,Andesite_07,1,07,4,8,1.917,1,07,-0.419444437,-0.25,1,0,0,3.162,Andesite_rect,1,3.162,1,13,0,13,0,1,,,,,,,,,,,,,
5da35e177f1f7d001405f60b,SCR,2024-06-20_16h31.10.139,LearnStrategy,2023.2.3,Win32,59.88023952,9,1,15,0.222222222,-0.402777778,1,0,0,1.1469,Pegmatite_09,6,09,1,6,1.147,6,09,-0.074074074,-0.415740755,1,0,0,1.2897,Pegmatite_rect,6,1.29,1,14,0,14,0,1,,,,,,,,,,,,,
5da35e177f1f7d001405f60b,SCR,2024-06-20_16h31.10.139,LearnStrategy,2023.2.3,Win32,59.88023952,9,1,16,0.062962991,-0.398148148,1,0,0,1.9798,Diorite_08,3,08,1,5,1.98,3,08,0.104629658,-0.261111153,1,0,0,0.9901,Diorite_rect,3,0.99,1,15,0,15,0,1,,,,,,,,,,,,,
5da35e177f1f7d001405f60b,SCR,2024-06-20_16h31.10.139,LearnStrategy,2023.2.3,Win32,59.88023952,9,2,1,,,,,,,,2,16,,,,,,,,,,,,,4,2.409,0,,,,,,0.413888861,-0.238888917,1,0,0,2.4086,Gabbro_rect,0,0,0,0,1,
5da35e177f1f7d001405f60b,SCR,2024-06-20_16h31.10.139,LearnStrategy,2023.2.3,Win32,59.88023952,9,2,2,,,,,,,,1,09,,,,,,,,,,,,,1,3.848,1,,,,,,-0.369444423,-0.26944443,1,0,0,3.8484,Andesite_rect,1,0,1,0,1,
5da35e177f1f7d001405f60b,SCR,2024-06-20_16h31.10.139,LearnStrategy,2023.2.3,Win32,59.88023952,9,2,3,,,,,,,,2,09,,,,,,,,,,,,,2,1.357,1,,,,,,-0.14444443,-0.247222265,1,0,0,1.3568,Basalt_rect,2,0,2,0,1,
5da35e177f1f7d001405f60b,SCR,2024-06-20_16h31.10.139,LearnStrategy,2023.2.3,Win32,59.88023952,9,2,4,,,,,,,,8,08,,,,,,,,,,,,,8,1.311,1,,,,,,0.392592677,-0.387962977,1,0,0,1.3109,Pumice_rect,3,0,3,0,1,
5da35e177f1f7d001405f60b,SCR,2024-06-20_16h31.10.139,LearnStrategy,2023.2.3,Win32,59.88023952,9,2,5,,,,,,,,7,05,,,,,,,,,,,,,7,1.188,1,,,,,,0.179629644,-0.400925954,1,0,0,1.1878,Peridotite_rect,4,0,4,0,1,
5da35e177f1f7d001405f60b,SCR,2024-06-20_16h31.10.139,LearnStrategy,2023.2.3,Win32,59.88023952,9,2,6,,,,,,,,7,02,,,,,,,,,,,,,7,0.812,1,,,,,,0.179629644,-0.400925954,1,0,0,0.8118,Peridotite_rect,5,0,5,0,1,
5da35e177f1f7d001405f60b,SCR,2024-06-20_16h31.10.139,LearnStrategy,2023.2.3,Win32,59.88023952,9,2,7,,,,,,,,1,11,,,,,,,,,,,,,1,1.982,1,,,,,,-0.369444423,-0.247222265,1,0,0,1.9818,Andesite_rect,6,0,6,0,1,
5da35e177f1f7d001405f60b,SCR,2024-06-20_16h31.10.139,LearnStrategy,2023.2.3,Win32,59.88023952,9,2,8,,,,,,,,5,05,,,,,,,,,,,,,5,1.682,1,,,,,,-0.342592593,-0.397222236,1,0,0,1.6815,Obsidian_rect,7,0,7,0,1,
5da35e177f1f7d001405f60b,SCR,2024-06-20_16h31.10.139,LearnStrategy,2023.2.3,Win32,59.88023952,9,2,9,,,,,,,,5,07,,,,,,,,,,,,,5,0.927,1,,,,,,-0.342592593,-0.397222236,1,0,0,0.9267,Obsidian_rect,8,0,8,0,1,
5da35e177f1f7d001405f60b,SCR,2024-06-20_16h31.10.139,LearnStrategy,2023.2.3,Win32,59.88023952,9,2,10,,,,,,,,8,13,,,,,,,,,,,,,8,2.132,1,,,,,,0.399074131,-0.406481496,1,0,0,2.1322,Pumice_rect,9,0,9,0,1,
5da35e177f1f7d001405f60b,SCR,2024-06-20_16h31.10.139,LearnStrategy,2023.2.3,Win32,59.88023952,9,2,11,,,,,,,,6,05,,,,,,,,,,,,,6,1.366,1,,,,,,-0.142592607,-0.405555584,1,0,0,1.3657,Pegmatite_rect,10,0,10,0,1,
5da35e177f1f7d001405f60b,SCR,2024-06-20_16h31.10.139,LearnStrategy,2023.2.3,Win32,59.88023952,9,2,12,,,,,,,,4,01,,,,,,,,,,,,,7,7.492,0,,,,,,0.062962991,-0.404629672,1,0,0,7.4925,Peridotite_rect,11,0,11,0,1,
5da35e177f1f7d001405f60b,SCR,2024-06-20_16h31.10.139,LearnStrategy,2023.2.3,Win32,59.88023952,9,2,13,,,,,,,,3,16,,,,,,,,,,,,,3,1.519,1,,,,,,0.092592593,-0.24537037,1,0,0,1.5189,Diorite_rect,12,0,12,0,1,
5da35e177f1f7d001405f60b,SCR,2024-06-20_16h31.10.139,LearnStrategy,2023.2.3,Win32,59.88023952,9,2,14,,,,,,,,4,03,,,,,,,,,,,,,4,2.406,1,,,,,,0.397222307,-0.247222265,1,0,0,2.4063,Gabbro_rect,13,0,13,0,1,
5da35e177f1f7d001405f60b,SCR,2024-06-20_16h31.10.139,LearnStrategy,2023.2.3,Win32,59.88023952,9,2,15,,,,,,,,3,12,,,,,,,,,,,,,1,3.158,0,,,,,,-0.362037023,-0.263888889,1,0,0,3.1579,Andesite_rect,14,0,14,0,1,
5da35e177f1f7d001405f60b,SCR,2024-06-20_16h31.10.139,LearnStrategy,2023.2.3,Win32,59.88023952,9,2,16,,,,,,,,6,07,,,,,,,,,,,,,6,1.252,1,,,,,,-0.088888875,-0.412037037,1,0,0,1.2523,Pegmatite_rect,15,0,15,0,1,
5da35e177f1f7d001405f60b,SCR,2024-06-20_16h31.10.139,LearnStrategy,2023.2.3,Win32,59.88023952,,,,,,,,,,,,,,,,,,,,,,,,,,,,,,,,,,,,,,,,,,,,,1
5da35e177f1f7d001405f60b,SCR,2024-06-20_16h31.10.139,LearnStrategy,2023.2.3,Win32,59.88023952,,,,,,,,,,,,,,,,,,,,,,,,,,,,,,,,,,,,,,,,,,,,,
5da35e177f1f7d001405f60b,SCR,2024-06-20_16h31.10.139,LearnStrategy,2023.2.3,Win32,59.88023952,,,,,,,,,,,3,14,1,1,,,,,,,,,,,,,,,,,,,,,,,,,,,,,,,
5da35e177f1f7d001405f60b,SCR,2024-06-20_16h31.10.139,LearnStrategy,2023.2.3,Win32,59.88023952,,,,,,,,,,,3,11,1,2,,,,,,,,,,,,,,,,,,,,,,,,,,,,,,,
5da35e177f1f7d001405f60b,SCR,2024-06-20_16h31.10.139,LearnStrategy,2023.2.3,Win32,59.88023952,,,,,,,,,,,4,09,1,3,,,,,,,,,,,,,,,,,,,,,,,,,,,,,,,
5da35e177f1f7d001405f60b,SCR,2024-06-20_16h31.10.139,LearnStrategy,2023.2.3,Win32,59.88023952,,,,,,,,,,,6,11,1,4,,,,,,,,,,,,,,,,,,,,,,,,,,,,,,,
5da35e177f1f7d001405f60b,SCR,2024-06-20_16h31.10.139,LearnStrategy,2023.2.3,Win32,59.88023952,,,,,,,,,,,3,08,1,5,,,,,,,,,,,,,,,,,,,,,,,,,,,,,,,
5da35e177f1f7d001405f60b,SCR,2024-06-20_16h31.10.139,LearnStrategy,2023.2.3,Win32,59.88023952,,,,,,,,,,,6,09,1,6,,,,,,,,,,,,,,,,,,,,,,,,,,,,,,,
5da35e177f1f7d001405f60b,SCR,2024-06-20_16h31.10.139,LearnStrategy,2023.2.3,Win32,59.88023952,,,,,,,,,,,5,09,1,7,,,,,,,,,,,,,,,,,,,,,,,,,,,,,,,
5da35e177f1f7d001405f60b,SCR,2024-06-20_16h31.10.139,LearnStrategy,2023.2.3,Win32,59.88023952,,,,,,,,,,,2,04,1,8,,,,,,,,,,,,,,,,,,,,,,,,,,,,,,,
5da35e177f1f7d001405f60b,SCR,2024-06-20_16h31.10.139,LearnStrategy,2023.2.3,Win32,59.88023952,,,,,,,,,,,3,06,2,1,,,,,,,,,,,,,,,,,,,,,,,,,,,,,,,
5da35e177f1f7d001405f60b,SCR,2024-06-20_16h31.10.139,LearnStrategy,2023.2.3,Win32,59.88023952,,,,,,,,,,,5,04,2,2,,,,,,,,,,,,,,,,,,,,,,,,,,,,,,,
5da35e177f1f7d001405f60b,SCR,2024-06-20_16h31.10.139,LearnStrategy,2023.2.3,Win32,59.88023952,,,,,,,,,,,1,04,2,3,,,,,,,,,,,,,,,,,,,,,,,,,,,,,,,
5da35e177f1f7d001405f60b,SCR,2024-06-20_16h31.10.139,LearnStrategy,2023.2.3,Win32,59.88023952,,,,,,,,,,,8,16,2,4,,,,,,,,,,,,,,,,,,,,,,,,,,,,,,,
5da35e177f1f7d001405f60b,SCR,2024-06-20_16h31.10.139,LearnStrategy,2023.2.3,Win32,59.88023952,,,,,,,,,,,7,04,2,5,,,,,,,,,,,,,,,,,,,,,,,,,,,,,,,
5da35e177f1f7d001405f60b,SCR,2024-06-20_16h31.10.139,LearnStrategy,2023.2.3,Win32,59.88023952,,,,,,,,,,,8,15,2,6,,,,,,,,,,,,,,,,,,,,,,,,,,,,,,,
5da35e177f1f7d001405f60b,SCR,2024-06-20_16h31.10.139,LearnStrategy,2023.2.3,Win32,59.88023952,,,,,,,,,,,6,16,2,7,,,,,,,,,,,,,,,,,,,,,,,,,,,,,,,
5da35e177f1f7d001405f60b,SCR,2024-06-20_16h31.10.139,LearnStrategy,2023.2.3,Win32,59.88023952,,,,,,,,,,,4,12,2,8,,,,,,,,,,,,,,,,,,,,,,,,,,,,,,,
5da35e177f1f7d001405f60b,SCR,2024-06-20_16h31.10.139,LearnStrategy,2023.2.3,Win32,59.88023952,,,,,,,,,,,1,16,3,1,,,,,,,,,,,,,,,,,,,,,,,,,,,,,,,
5da35e177f1f7d001405f60b,SCR,2024-06-20_16h31.10.139,LearnStrategy,2023.2.3,Win32,59.88023952,,,,,,,,,,,6,03,3,2,,,,,,,,,,,,,,,,,,,,,,,,,,,,,,,
5da35e177f1f7d001405f60b,SCR,2024-06-20_16h31.10.139,LearnStrategy,2023.2.3,Win32,59.88023952,,,,,,,,,,,7,12,3,3,,,,,,,,,,,,,,,,,,,,,,,,,,,,,,,
5da35e177f1f7d001405f60b,SCR,2024-06-20_16h31.10.139,LearnStrategy,2023.2.3,Win32,59.88023952,,,,,,,,,,,2,08,3,4,,,,,,,,,,,,,,,,,,,,,,,,,,,,,,,
5da35e177f1f7d001405f60b,SCR,2024-06-20_16h31.10.139,LearnStrategy,2023.2.3,Win32,59.88023952,,,,,,,,,,,1,14,3,5,,,,,,,,,,,,,,,,,,,,,,,,,,,,,,,
5da35e177f1f7d001405f60b,SCR,2024-06-20_16h31.10.139,LearnStrategy,2023.2.3,Win32,59.88023952,,,,,,,,,,,7,14,3,6,,,,,,,,,,,,,,,,,,,,,,,,,,,,,,,
5da35e177f1f7d001405f60b,SCR,2024-06-20_16h31.10.139,LearnStrategy,2023.2.3,Win32,59.88023952,,,,,,,,,,,5,12,3,7,,,,,,,,,,,,,,,,,,,,,,,,,,,,,,,
5da35e177f1f7d001405f60b,SCR,2024-06-20_16h31.10.139,LearnStrategy,2023.2.3,Win32,59.88023952,,,,,,,,,,,1,01,3,8,,,,,,,,,,,,,,,,,,,,,,,,,,,,,,,
5da35e177f1f7d001405f60b,SCR,2024-06-20_16h31.10.139,LearnStrategy,2023.2.3,Win32,59.88023952,,,,,,,,,,,8,03,4,1,,,,,,,,,,,,,,,,,,,,,,,,,,,,,,,
5da35e177f1f7d001405f60b,SCR,2024-06-20_16h31.10.139,LearnStrategy,2023.2.3,Win32,59.88023952,,,,,,,,,,,5,14,4,2,,,,,,,,,,,,,,,,,,,,,,,,,,,,,,,
5da35e177f1f7d001405f60b,SCR,2024-06-20_16h31.10.139,LearnStrategy,2023.2.3,Win32,59.88023952,,,,,,,,,,,4,15,4,3,,,,,,,,,,,,,,,,,,,,,,,,,,,,,,,
5da35e177f1f7d001405f60b,SCR,2024-06-20_16h31.10.139,LearnStrategy,2023.2.3,Win32,59.88023952,,,,,,,,,,,3,15,4,4,,,,,,,,,,,,,,,,,,,,,,,,,,,,,,,
5da35e177f1f7d001405f60b,SCR,2024-06-20_16h31.10.139,LearnStrategy,2023.2.3,Win32,59.88023952,,,,,,,,,,,3,09,4,5,,,,,,,,,,,,,,,,,,,,,,,,,,,,,,,
5da35e177f1f7d001405f60b,SCR,2024-06-20_16h31.10.139,LearnStrategy,2023.2.3,Win32,59.88023952,,,,,,,,,,,7,10,4,6,,,,,,,,,,,,,,,,,,,,,,,,,,,,,,,
5da35e177f1f7d001405f60b,SCR,2024-06-20_16h31.10.139,LearnStrategy,2023.2.3,Win32,59.88023952,,,,,,,,,,,8,05,4,7,,,,,,,,,,,,,,,,,,,,,,,,,,,,,,,
5da35e177f1f7d001405f60b,SCR,2024-06-20_16h31.10.139,LearnStrategy,2023.2.3,Win32,59.88023952,,,,,,,,,,,1,07,4,8,,,,,,,,,,,,,,,,,,,,,,,,,,,,,,,
5da35e177f1f7d001405f60b,SCR,2024-06-20_16h31.10.139,LearnStrategy,2023.2.3,Win32,59.88023952,,,,,,,,,,,4,11,5,1,,,,,,,,,,,,,,,,,,,,,,,,,,,,,,,
5da35e177f1f7d001405f60b,SCR,2024-06-20_16h31.10.139,LearnStrategy,2023.2.3,Win32,59.88023952,,,,,,,,,,,8,02,5,2,,,,,,,,,,,,,,,,,,,,,,,,,,,,,,,
5da35e177f1f7d001405f60b,SCR,2024-06-20_16h31.10.139,LearnStrategy,2023.2.3,Win32,59.88023952,,,,,,,,,,,7,13,5,3,,,,,,,,,,,,,,,,,,,,,,,,,,,,,,,
5da35e177f1f7d001405f60b,SCR,2024-06-20_16h31.10.139,LearnStrategy,2023.2.3,Win32,59.88023952,,,,,,,,,,,6,13,5,4,,,,,,,,,,,,,,,,,,,,,,,,,,,,,,,
5da35e177f1f7d001405f60b,SCR,2024-06-20_16h31.10.139,LearnStrategy,2023.2.3,Win32,59.88023952,,,,,,,,,,,4,05,5,5,,,,,,,,,,,,,,,,,,,,,,,,,,,,,,,
5da35e177f1f7d001405f60b,SCR,2024-06-20_16h31.10.139,LearnStrategy,2023.2.3,Win32,59.88023952,,,,,,,,,,,5,11,5,6,,,,,,,,,,,,,,,,,,,,,,,,,,,,,,,
5da35e177f1f7d001405f60b,SCR,2024-06-20_16h31.10.139,LearnStrategy,2023.2.3,Win32,59.88023952,,,,,,,,,,,4,13,5,7,,,,,,,,,,,,,,,,,,,,,,,,,,,,,,,
5da35e177f1f7d001405f60b,SCR,2024-06-20_16h31.10.139,LearnStrategy,2023.2.3,Win32,59.88023952,,,,,,,,,,,2,05,5,8,,,,,,,,,,,,,,,,,,,,,,,,,,,,,,,
5da35e177f1f7d001405f60b,SCR,2024-06-20_16h31.10.139,LearnStrategy,2023.2.3,Win32,59.88023952,,,,,,,,,,,2,10,6,1,,,,,,,,,,,,,,,,,,,,,,,,,,,,,,,
5da35e177f1f7d001405f60b,SCR,2024-06-20_16h31.10.139,LearnStrategy,2023.2.3,Win32,59.88023952,,,,,,,,,,,5,08,6,2,,,,,,,,,,,,,,,,,,,,,,,,,,,,,,,
5da35e177f1f7d001405f60b,SCR,2024-06-20_16h31.10.139,LearnStrategy,2023.2.3,Win32,59.88023952,,,,,,,,,,,6,06,6,3,,,,,,,,,,,,,,,,,,,,,,,,,,,,,,,
5da35e177f1f7d001405f60b,SCR,2024-06-20_16h31.10.139,LearnStrategy,2023.2.3,Win32,59.88023952,,,,,,,,,,,8,04,6,4,,,,,,,,,,,,,,,,,,,,,,,,,,,,,,,
5da35e177f1f7d001405f60b,SCR,2024-06-20_16h31.10.139,LearnStrategy,2023.2.3,Win32,59.88023952,,,,,,,,,,,2,14,6,5,,,,,,,,,,,,,,,,,,,,,,,,,,,,,,,
5da35e177f1f7d001405f60b,SCR,2024-06-20_16h31.10.139,LearnStrategy,2023.2.3,Win32,59.88023952,,,,,,,,,,,1,03,6,6,,,,,,,,,,,,,,,,,,,,,,,,,,,,,,,
5da35e177f1f7d001405f60b,SCR,2024-06-20_16h31.10.139,LearnStrategy,2023.2.3,Win32,59.88023952,,,,,,,,,,,7,15,6,7,,,,,,,,,,,,,,,,,,,,,,,,,,,,,,,
5da35e177f1f7d001405f60b,SCR,2024-06-20_16h31.10.139,LearnStrategy,2023.2.3,Win32,59.88023952,,,,,,,,,,,2,12,6,8,,,,,,,,,,,,,,,,,,,,,,,,,,,,,,,