participant,condition,date,expName,psychopyVersion,OS,frameRate,block,phase,trial,learn_mouse_2.x,learn_mouse_2.y,learn_mouse_2.leftButton,learn_mouse_2.midButton,learn_mouse_2.rightButton,learn_mouse_2.time,learn_mouse_2.clicked_name,cat,token,row,col,t_select,cat_mouse_l.x,cat_mouse_l.y,cat_mouse_l.leftButton,cat_mouse_l.midButton,cat_mouse_l.rightButton,cat_mouse_l.time,cat_mouse_l.clicked_name,resp,t_resp,corr,train_trials.thisRepN,train_trials.thisTrialN,train_trials.thisN,train_trials.thisIndex,train_trials.ran,cat_mouse_t.x,cat_mouse_t.y,cat_mouse_t.leftButton,cat_mouse_t.midButton,cat_mouse_t.rightButton,cat_mouse_t.time,cat_mouse_t.clicked_name,test_trials.thisRepN,test_trials.thisTrialN,test_trials.thisN,test_trials.thisIndex,test_trials.ran,Bonus
5dad4c34b3446a0015e3de93,TCN,2024-06-21_13h46.01.408,LearnStrategy,2023.2.3,Win32,144.9275362,,,,,,,,,,,,,,,,,,,,,,,,,,,,,,,,,,,,,,,,,,,
5dad4c34b3446a0015e3de93,TCN,2024-06-21_13h46.01.408,LearnStrategy,2023.2.3,Win32,144.9275362,1,1,1,-0.054861111,0.002083333,1,0,0,3.4629,rock_grid_rect_2,6,15,-1,-1,3.463,-0.129166667,-0.245833333,1,0,0,4.37,Basalt_rect,2,4.37,0,0,0,0,0,1,,,,,,,,,,,,,
5dad4c34b3446a0015e3de93,TCN,2024-06-21_13h46.01.408,LearnStrategy,2023.2.3,Win32,144.9275362,1,1,2,-0.034722222,-0.001388889,1,0,0,1.7379,rock_grid_rect_2,7,13,-1,-1,1.738,0.302083333,-0.415277778,1,0,0,4.2944,Pumice_rect,8,4.294,0,1,0,1,0,1,,,,,,,,,,,,,
5dad4c34b3446a0015e3de93,TCN,2024-06-21_13h46.01.408,LearnStrategy,2023.2.3,Win32,144.9275362,1,1,3,0.1375,0.002777778,1,0,0,1.2079,rock_grid_rect_2,6,03,-1,-1,1.208,0.177083333,-0.239583333,1,0,0,3.2248,Diorite_rect,3,3.225,0,2,0,2,0,1,,,,,,,,,,,,,
5dad4c34b3446a0015e3de93,TCN,2024-06-21_13h46.01.408,LearnStrategy,2023.2.3,Win32,144.9275362,1,1,4,0.116666667,-0.002083333,1,0,0,0.9405,rock_grid_rect_2,8,03,-1,-1,0.941,-0.205555556,-0.260416667,1,0,0,24.9634,Basalt_rect,2,24.963,0,3,0,3,0,1,,,,,,,,,,,,,
5dad4c34b3446a0015e3de93,TCN,2024-06-21_13h46.01.408,LearnStrategy,2023.2.3,Win32,144.9275362,1,1,5,0.006944444,0.009027778,1,0,0,1.1319,rock_grid_rect_2,4,16,-1,-1,1.132,-0.34375,-0.397916667,1,0,0,2.3082,Obsidian_rect,5,2.308,0,4,0,4,0,1,,,,,,,,,,,,,
5dad4c34b3446a0015e3de93,TCN,2024-06-21_13h46.01.408,LearnStrategy,2023.2.3,Win32,144.9275362,1,1,6,0.1,-0.002083333,1,0,0,0.6339,rock_grid_rect_2,5,12,-1,-1,0.634,-0.407638889,-0.384027778,1,0,0,2.223,Obsidian_rect,5,2.223,1,5,0,5,0,1,,,,,,,,,,,,,
5dad4c34b3446a0015e3de93,TCN,2024-06-21_13h46.01.408,LearnStrategy,2023.2.3,Win32,144.9275362,1,1,7,0.0875,0,1,0,0,0.6822,rock_grid_rect_2,3,02,-1,-1,0.682,-0.159027778,-0.258333333,1,0,0,3.3719,Basalt_rect,2,3.372,0,6,0,6,0,1,,,,,,,,,,,,,
5dad4c34b3446a0015e3de93,TCN,2024-06-21_13h46.01.408,LearnStrategy,2023.2.3,Win32,144.9275362,1,1,8,0.1125,0.004861111,1,0,0,0.7869,rock_grid_rect_2,8,05,-1,-1,0.787,0.344444444,-0.399305556,1,0,0,3.6496,Pumice_rect,8,3.65,1,7,0,7,0,1,,,,,,,,,,,,,
5dad4c34b3446a0015e3de93,TCN,2024-06-21_13h46.01.408,LearnStrategy,2023.2.3,Win32,144.9275362,1,1,9,0.127777778,-0.002777778,1,0,0,0.6761,rock_grid_rect_2,4,13,-1,-1,0.676,-0.419444444,-0.253472222,1,0,0,3.1184,Andesite_rect,1,3.118,0,8,0,8,0,1,,,,,,,,,,,,,
5dad4c34b3446a0015e3de93,TCN,2024-06-21_13h46.01.408,LearnStrategy,2023.2.3,Win32,144.9275362,1,1,10,-0.122916667,-0.011111111,1,0,0,0.9261,rock_grid_rect_2,5,04,-1,-1,0.926,-0.3625,-0.401388889,1,0,0,1.8792,Obsidian_rect,5,1.879,1,9,0,9,0,1,,,,,,,,,,,,,
5dad4c34b3446a0015e3de93,TCN,2024-06-21_13h46.01.408,LearnStrategy,2023.2.3,Win32,144.9275362,1,1,11,0.033333333,-0.005555556,1,0,0,1.2237,rock_grid_rect_2,1,07,-1,-1,1.224,-0.107638889,-0.261805556,1,0,0,1.3438,Basalt_rect,2,1.344,0,10,0,10,0,1,,,,,,,,,,,,,
5dad4c34b3446a0015e3de93,TCN,2024-06-21_13h46.01.408,LearnStrategy,2023.2.3,Win32,144.9275362,1,1,12,0.092361111,0.009722222,1,0,0,1.0848,rock_grid_rect_2,7,16,-1,-1,1.085,0.140277778,-0.255555556,1,0,0,3.803,Diorite_rect,3,3.803,0,11,0,11,0,1,,,,,,,,,,,,,
5dad4c34b3446a0015e3de93,TCN,2024-06-21_13h46.01.408,LearnStrategy,2023.2.3,Win32,144.9275362,1,1,13,0.080555556,0.020138889,1,0,0,0.7793,rock_grid_rect_2,2,10,-1,-1,0.779,0.357638889,-0.25625,1,0,0,3.7527,Gabbro_rect,4,3.753,0,12,0,12,0,1,,,,,,,,,,,,,
5dad4c34b3446a0015e3de93,TCN,2024-06-21_13h46.01.408,LearnStrategy,2023.2.3,Win32,144.9275362,1,1,14,0.007638889,-0.011805556,1,0,0,0.9312,rock_grid_rect_2,1,06,-1,-1,0.931,-0.327777778,-0.246527778,1,0,0,3.887,Andesite_rect,1,3.887,1,13,0,13,0,1,,,,,,,,,,,,,
5dad4c34b3446a0015e3de93,TCN,2024-06-21_13h46.01.408,LearnStrategy,2023.2.3,Win32,144.9275362,1,1,15,0.050694444,-0.011805556,1,0,0,0.607,rock_grid_rect_2,3,07,-1,-1,0.607,-0.1625,-0.394444444,1,0,0,8.4258,Pegmatite_rect,6,8.426,0,14,0,14,0,1,,,,,,,,,,,,,
5dad4c34b3446a0015e3de93,TCN,2024-06-21_13h46.01.408,LearnStrategy,2023.2.3,Win32,144.9275362,1,1,16,0.035416667,-0.00625,1,0,0,0.73,rock_grid_rect_2,2,08,-1,-1,0.73,-0.219444444,-0.245138889,1,0,0,8.1218,Basalt_rect,2,8.122,1,15,0,15,0,1,,,,,,,,,,,,,
5dad4c34b3446a0015e3de93,TCN,2024-06-21_13h46.01.408,LearnStrategy,2023.2.3,Win32,144.9275362,1,2,1,,,,,,,,6,11,,,,,,,,,,,6,15.121,1,,,,,,-0.189583333,-0.405555556,1,0,0,15.121,Pegmatite_rect,0,0,0,0,1,
5dad4c34b3446a0015e3de93,TCN,2024-06-21_13h46.01.408,LearnStrategy,2023.2.3,Win32,144.9275362,1,2,2,,,,,,,,4,05,,,,,,,,,,,4,11.312,1,,,,,,0.324305556,-0.250694444,1,0,0,11.3116,Gabbro_rect,1,0,1,0,1,
5dad4c34b3446a0015e3de93,TCN,2024-06-21_13h46.01.408,LearnStrategy,2023.2.3,Win32,144.9275362,1,2,3,,,,,,,,1,04,,,,,,,,,,,3,5.833,0,,,,,,0.091666667,-0.248611111,1,0,0,5.8333,Diorite_rect,2,0,2,0,1,
5dad4c34b3446a0015e3de93,TCN,2024-06-21_13h46.01.408,LearnStrategy,2023.2.3,Win32,144.9275362,1,2,4,,,,,,,,2,01,,,,,,,,,,,2,9.922,1,,,,,,-0.195833333,-0.240277778,1,0,0,9.9218,Basalt_rect,3,0,3,0,1,
5dad4c34b3446a0015e3de93,TCN,2024-06-21_13h46.01.408,LearnStrategy,2023.2.3,Win32,144.9275362,1,2,5,,,,,,,,4,15,,,,,,,,,,,4,4.211,1,,,,,,0.347222222,-0.24375,1,0,0,4.2109,Gabbro_rect,4,0,4,0,1,
5dad4c34b3446a0015e3de93,TCN,2024-06-21_13h46.01.408,LearnStrategy,2023.2.3,Win32,144.9275362,1,2,6,,,,,,,,7,15,,,,,,,,,,,7,6.156,1,,,,,,0.088194444,-0.409722222,1,0,0,6.1558,Peridotite_rect,5,0,5,0,1,
5dad4c34b3446a0015e3de93,TCN,2024-06-21_13h46.01.408,LearnStrategy,2023.2.3,Win32,144.9275362,1,2,7,,,,,,,,1,09,,,,,,,,,,,1,4.797,1,,,,,,-0.305555556,-0.25625,1,0,0,4.7966,Andesite_rect,6,0,6,0,1,
5dad4c34b3446a0015e3de93,TCN,2024-06-21_13h46.01.408,LearnStrategy,2023.2.3,Win32,144.9275362,1,2,8,,,,,,,,6,12,,,,,,,,,,,3,11.558,0,,,,,,0.077777778,-0.247222222,1,0,0,11.5582,Diorite_rect,7,0,7,0,1,
5dad4c34b3446a0015e3de93,TCN,2024-06-21_13h46.01.408,LearnStrategy,2023.2.3,Win32,144.9275362,1,2,9,,,,,,,,3,15,,,,,,,,,,,3,15.841,1,,,,,,0.128472222,-0.25625,1,0,0,15.8409,Diorite_rect,8,0,8,0,1,
5dad4c34b3446a0015e3de93,TCN,2024-06-21_13h46.01.408,LearnStrategy,2023.2.3,Win32,144.9275362,1,2,10,,,,,,,,5,09,,,,,,,,,,,5,2.246,1,,,,,,-0.390277778,-0.411805556,1,0,0,2.2457,Obsidian_rect,9,0,9,0,1,
5dad4c34b3446a0015e3de93,TCN,2024-06-21_13h46.01.408,LearnStrategy,2023.2.3,Win32,144.9275362,1,2,11,,,,,,,,3,16,,,,,,,,,,,3,3.972,1,,,,,,0.138888889,-0.246527778,1,0,0,3.9719,Diorite_rect,10,0,10,0,1,
5dad4c34b3446a0015e3de93,TCN,2024-06-21_13h46.01.408,LearnStrategy,2023.2.3,Win32,144.9275362,1,2,12,,,,,,,,7,12,,,,,,,,,,,7,11.957,1,,,,,,0.134027778,-0.4125,1,0,0,11.9574,Peridotite_rect,11,0,11,0,1,
5dad4c34b3446a0015e3de93,TCN,2024-06-21_13h46.01.408,LearnStrategy,2023.2.3,Win32,144.9275362,1,2,13,,,,,,,,2,09,,,,,,,,,,,2,4.844,1,,,,,,-0.115277778,-0.247916667,1,0,0,4.8437,Basalt_rect,12,0,12,0,1,
5dad4c34b3446a0015e3de93,TCN,2024-06-21_13h46.01.408,LearnStrategy,2023.2.3,Win32,144.9275362,1,2,14,,,,,,,,8,04,,,,,,,,,,,8,3.996,1,,,,,,0.424305556,-0.393055556,1,0,0,3.996,Pumice_rect,13,0,13,0,1,
5dad4c34b3446a0015e3de93,TCN,2024-06-21_13h46.01.408,LearnStrategy,2023.2.3,Win32,144.9275362,1,2,15,,,,,,,,5,06,,,,,,,,,,,5,1.542,1,,,,,,-0.395138889,-0.391666667,1,0,0,1.5422,Obsidian_rect,14,0,14,0,1,
5dad4c34b3446a0015e3de93,TCN,2024-06-21_13h46.01.408,LearnStrategy,2023.2.3,Win32,144.9275362,1,2,16,,,,,,,,8,14,,,,,,,,,,,8,1.731,1,,,,,,0.440972222,-0.415972222,1,0,0,1.7315,Pumice_rect,15,0,15,0,1,
5dad4c34b3446a0015e3de93,TCN,2024-06-21_13h46.01.408,LearnStrategy,2023.2.3,Win32,144.9275362,2,1,1,0.104166667,-0.000694444,1,0,0,0.9161,rock_grid_rect_2,3,13,-1,-1,0.916,-0.380555556,-0.263194444,1,0,0,12.081,Andesite_rect,1,12.081,0,0,0,0,0,1,,,,,,,,,,,,,
5dad4c34b3446a0015e3de93,TCN,2024-06-21_13h46.01.408,LearnStrategy,2023.2.3,Win32,144.9275362,2,1,2,0.079861111,0.01875,1,0,0,11.9677,rock_grid_rect_2,5,05,-1,-1,11.968,-0.410416667,-0.409722222,1,0,0,1.2899,Obsidian_rect,5,1.29,1,1,0,1,0,1,,,,,,,,,,,,,
5dad4c34b3446a0015e3de93,TCN,2024-06-21_13h46.01.408,LearnStrategy,2023.2.3,Win32,144.9275362,2,1,3,0.158333333,-0.017361111,1,0,0,0.777,rock_grid_rect_2,3,10,-1,-1,0.777,0.141666667,-0.270138889,1,0,0,6.7446,Diorite_rect,3,6.745,1,2,0,2,0,1,,,,,,,,,,,,,
5dad4c34b3446a0015e3de93,TCN,2024-06-21_13h46.01.408,LearnStrategy,2023.2.3,Win32,144.9275362,2,1,4,0.154166667,0.008333333,1,0,0,0.9678,rock_grid_rect_2,7,02,-1,-1,0.968,0.127777778,-0.415277778,1,0,0,9.0536,Peridotite_rect,7,9.054,1,3,0,3,0,1,,,,,,,,,,,,,
5dad4c34b3446a0015e3de93,TCN,2024-06-21_13h46.01.408,LearnStrategy,2023.2.3,Win32,144.9275362,2,1,5,0.175,-0.001388889,1,0,0,1.0069,rock_grid_rect_2,8,13,-1,-1,1.007,0.361111111,-0.393055556,1,0,0,1.6081,Pumice_rect,8,1.608,1,4,0,4,0,1,,,,,,,,,,,,,
5dad4c34b3446a0015e3de93,TCN,2024-06-21_13h46.01.408,LearnStrategy,2023.2.3,Win32,144.9275362,2,1,6,0.00625,0.004861111,1,0,0,1.4926,rock_grid_rect_2,6,08,-1,-1,1.493,-0.4,-0.411805556,1,0,0,1.9075,Obsidian_rect,5,1.908,0,5,0,5,0,1,,,,,,,,,,,,,
5dad4c34b3446a0015e3de93,TCN,2024-06-21_13h46.01.408,LearnStrategy,2023.2.3,Win32,144.9275362,2,1,7,0.149305556,0.005555556,1,0,0,1.3909,rock_grid_rect_2,4,10,-1,-1,1.391,0.347222222,-0.254166667,1,0,0,13.3624,Gabbro_rect,4,13.362,1,6,0,6,0,1,,,,,,,,,,,,,
5dad4c34b3446a0015e3de93,TCN,2024-06-21_13h46.01.408,LearnStrategy,2023.2.3,Win32,144.9275362,2,1,8,0.045138889,-0.0125,1,0,0,0.5777,rock_grid_rect_2,7,08,-1,-1,0.578,-0.115972222,-0.384722222,1,0,0,5.6006,Pegmatite_rect,6,5.601,0,7,0,7,0,1,,,,,,,,,,,,,
5dad4c34b3446a0015e3de93,TCN,2024-06-21_13h46.01.408,LearnStrategy,2023.2.3,Win32,144.9275362,2,1,9,0.069444444,0.00625,1,0,0,0.7871,rock_grid_rect_2,1,10,-1,-1,0.787,0.143055556,-0.254166667,1,0,0,16.957,Diorite_rect,3,16.957,0,8,0,8,0,1,,,,,,,,,,,,,
5dad4c34b3446a0015e3de93,TCN,2024-06-21_13h46.01.408,LearnStrategy,2023.2.3,Win32,144.9275362,2,1,10,0.085416667,-0.021527778,1,0,0,0.7307,rock_grid_rect_2,5,08,-1,-1,0.731,-0.347916667,-0.381944444,1,0,0,1.5873,Obsidian_rect,5,1.587,1,9,0,9,0,1,,,,,,,,,,,,,
5dad4c34b3446a0015e3de93,TCN,2024-06-21_13h46.01.408,LearnStrategy,2023.2.3,Win32,144.9275362,2,1,11,0.090972222,0.008333333,1,0,0,0.8251,rock_grid_rect_2,4,03,-1,-1,0.825,0.184722222,-0.248611111,1,0,0,8.1909,Diorite_rect,3,8.191,0,10,0,10,0,1,,,,,,,,,,,,,
5dad4c34b3446a0015e3de93,TCN,2024-06-21_13h46.01.408,LearnStrategy,2023.2.3,Win32,144.9275362,2,1,12,0.130555556,-0.0125,1,0,0,0.7261,rock_grid_rect_2,2,12,-1,-1,0.726,0.431944444,-0.399305556,1,0,0,3.1138,Pumice_rect,8,3.114,0,11,0,11,0,1,,,,,,,,,,,,,
5dad4c34b3446a0015e3de93,TCN,2024-06-21_13h46.01.408,LearnStrategy,2023.2.3,Win32,144.9275362,2,1,13,0.140972222,0.014583333,1,0,0,0.5769,rock_grid_rect_2,2,14,-1,-1,0.577,-0.071527778,-0.245138889,1,0,0,6.0003,Basalt_rect,2,6,1,12,0,12,0,1,,,,,,,,,,,,,
5dad4c34b3446a0015e3de93,TCN,2024-06-21_13h46.01.408,LearnStrategy,2023.2.3,Win32,144.9275362,2,1,14,0.011805556,0.0125,1,0,0,1.9263,rock_grid_rect_2,1,02,-1,-1,1.926,-0.365277778,-0.236111111,1,0,0,7.241,Andesite_rect,1,7.241,1,13,0,13,0,1,,,,,,,,,,,,,
5dad4c34b3446a0015e3de93,TCN,2024-06-21_13h46.01.408,LearnStrategy,2023.2.3,Win32,144.9275362,2,1,15,0.1375,-0.009027778,1,0,0,0.6128,rock_grid_rect_2,6,05,-1,-1,0.613,-0.432638889,-0.414583333,1,0,0,2.1438,Obsidian_rect,5,2.144,0,14,0,14,0,1,,,,,,,,,,,,,
5dad4c34b3446a0015e3de93,TCN,2024-06-21_13h46.01.408,LearnStrategy,2023.2.3,Win32,144.9275362,2,1,16,0.095138889,-0.017361111,1,0,0,0.9377,rock_grid_rect_2,8,08,-1,-1,0.938,0.365972222,-0.384722222,1,0,0,1.4964,Pumice_rect,8,1.496,1,15,0,15,0,1,,,,,,,,,,,,,
5dad4c34b3446a0015e3de93,TCN,2024-06-21_13h46.01.408,LearnStrategy,2023.2.3,Win32,144.9275362,2,2,1,,,,,,,,8,10,,,,,,,,,,,1,11.635,0,,,,,,-0.357638889,-0.252083333,1,0,0,11.6353,Andesite_rect,0,0,0,0,1,
5dad4c34b3446a0015e3de93,TCN,2024-06-21_13h46.01.408,LearnStrategy,2023.2.3,Win32,144.9275362,2,2,2,,,,,,,,6,06,,,,,,,,,,,6,18.464,1,,,,,,-0.085416667,-0.396527778,1,0,0,18.4639,Pegmatite_rect,1,0,1,0,1,
5dad4c34b3446a0015e3de93,TCN,2024-06-21_13h46.01.408,LearnStrategy,2023.2.3,Win32,144.9275362,2,2,3,,,,,,,,8,02,,,,,,,,,,,8,7.111,1,,,,,,0.475694444,-0.390972222,1,0,0,7.1112,Pumice_rect,2,0,2,0,1,
5dad4c34b3446a0015e3de93,TCN,2024-06-21_13h46.01.408,LearnStrategy,2023.2.3,Win32,144.9275362,2,2,4,,,,,,,,3,09,,,,,,,,,,,3,7.044,1,,,,,,0.065972222,-0.247916667,1,0,0,7.0443,Diorite_rect,3,0,3,0,1,
5dad4c34b3446a0015e3de93,TCN,2024-06-21_13h46.01.408,LearnStrategy,2023.2.3,Win32,144.9275362,2,2,5,,,,,,,,7,04,,,,,,,,,,,3,13.465,0,,,,,,0.179861111,-0.234027778,1,0,0,13.4651,Diorite_rect,4,0,4,0,1,
5dad4c34b3446a0015e3de93,TCN,2024-06-21_13h46.01.408,LearnStrategy,2023.2.3,Win32,144.9275362,2,2,6,,,,,,,,1,14,,,,,,,,,,,1,12.135,1,,,,,,-0.365277778,-0.243055556,1,0,0,12.1354,Andesite_rect,5,0,5,0,1,
5dad4c34b3446a0015e3de93,TCN,2024-06-21_13h46.01.408,LearnStrategy,2023.2.3,Win32,144.9275362,2,2,7,,,,,,,,1,05,,,,,,,,,,,1,4.247,1,,,,,,-0.420833333,-0.267361111,1,0,0,4.2475,Andesite_rect,6,0,6,0,1,
5dad4c34b3446a0015e3de93,TCN,2024-06-21_13h46.01.408,LearnStrategy,2023.2.3,Win32,144.9275362,2,2,8,,,,,,,,5,10,,,,,,,,,,,5,2.524,1,,,,,,-0.446527778,-0.41875,1,0,0,2.524,Obsidian_rect,7,0,7,0,1,
5dad4c34b3446a0015e3de93,TCN,2024-06-21_13h46.01.408,LearnStrategy,2023.2.3,Win32,144.9275362,2,2,9,,,,,,,,6,07,,,,,,,,,,,6,9.758,1,,,,,,-0.114583333,-0.410416667,1,0,0,9.7582,Pegmatite_rect,8,0,8,0,1,
5dad4c34b3446a0015e3de93,TCN,2024-06-21_13h46.01.408,LearnStrategy,2023.2.3,Win32,144.9275362,2,2,10,,,,,,,,3,14,,,,,,,,,,,3,7.269,1,,,,,,0.148611111,-0.249305556,1,0,0,7.2686,Diorite_rect,9,0,9,0,1,
5dad4c34b3446a0015e3de93,TCN,2024-06-21_13h46.01.408,LearnStrategy,2023.2.3,Win32,144.9275362,2,2,11,,,,,,,,4,09,,,,,,,,,,,4,14.203,1,,,,,,0.365972222,-0.238194444,1,0,0,14.203,Gabbro_rect,10,0,10,0,1,
5dad4c34b3446a0015e3de93,TCN,2024-06-21_13h46.01.408,LearnStrategy,2023.2.3,Win32,144.9275362,2,2,12,,,,,,,,7,10,,,,,,,,,,,7,4.29,1,,,,,,0.105555556,-0.388194444,1,0,0,4.2897,Peridotite_rect,11,0,11,0,1,
5dad4c34b3446a0015e3de93,TCN,2024-06-21_13h46.01.408,LearnStrategy,2023.2.3,Win32,144.9275362,2,2,13,,,,,,,,5,11,,,,,,,,,,,5,1.065,1,,,,,,-0.413888889,-0.416666667,1,0,0,1.0653,Obsidian_rect,12,0,12,0,1,
5dad4c34b3446a0015e3de93,TCN,2024-06-21_13h46.01.408,LearnStrategy,2023.2.3,Win32,144.9275362,2,2,14,,,,,,,,2,02,,,,,,,,,,,2,10.721,1,,,,,,-0.155555556,-0.248611111,1,0,0,10.7208,Basalt_rect,13,0,13,0,1,
5dad4c34b3446a0015e3de93,TCN,2024-06-21_13h46.01.408,LearnStrategy,2023.2.3,Win32,144.9275362,2,2,15,,,,,,,,4,01,,,,,,,,,,,3,13.464,0,,,,,,0.142361111,-0.250694444,1,0,0,13.4637,Diorite_rect,14,0,14,0,1,
5dad4c34b3446a0015e3de93,TCN,2024-06-21_13h46.01.408,LearnStrategy,2023.2.3,Win32,144.9275362,2,2,16,,,,,,,,2,05,,,,,,,,,,,2,7.741,1,,,,,,-0.079166667,-0.267361111,1,0,0,7.7414,Basalt_rect,15,0,15,0,1,
5dad4c34b3446a0015e3de93,TCN,2024-06-21_13h46.01.408,LearnStrategy,2023.2.3,Win32,144.9275362,3,1,1,0.1,-0.003472222,1,0,0,0.9096,rock_grid_rect_2,2,04,-1,-1,0.91,-0.165972222,-0.232638889,1,0,0,1.2218,Basalt_rect,2,1.222,1,0,0,0,0,1,,,,,,,,,,,,,
5dad4c34b3446a0015e3de93,TCN,2024-06-21_13h46.01.408,LearnStrategy,2023.2.3,Win32,144.9275362,3,1,2,0.079861111,-0.025,1,0,0,0.6427,rock_grid_rect_2,4,14,-1,-1,0.643,0.383333333,-0.255555556,1,0,0,3.6833,Gabbro_rect,4,3.683,1,1,0,1,0,1,,,,,,,,,,,,,
5dad4c34b3446a0015e3de93,TCN,2024-06-21_13h46.01.408,LearnStrategy,2023.2.3,Win32,144.9275362,3,1,3,0.059027778,-0.017361111,1,0,0,0.7391,rock_grid_rect_2,2,06,-1,-1,0.739,-0.179861111,-0.228472222,1,0,0,10.083,Basalt_rect,2,10.083,1,2,0,2,0,1,,,,,,,,,,,,,
5dad4c34b3446a0015e3de93,TCN,2024-06-21_13h46.01.408,LearnStrategy,2023.2.3,Win32,144.9275362,3,1,4,0.054861111,-0.022916667,1,0,0,1.0514,rock_grid_rect_2,5,07,-1,-1,1.051,-0.368055556,-0.392361111,1,0,0,3.0182,Obsidian_rect,5,3.018,1,3,0,3,0,1,,,,,,,,,,,,,
5dad4c34b3446a0015e3de93,TCN,2024-06-21_13h46.01.408,LearnStrategy,2023.2.3,Win32,144.9275362,3,1,5,0.073611111,0.017361111,1,0,0,0.5529,rock_grid_rect_2,8,16,-1,-1,0.553,0.354166667,-0.410416667,1,0,0,1.9524,Pumice_rect,8,1.952,1,4,0,4,0,1,,,,,,,,,,,,,
5dad4c34b3446a0015e3de93,TCN,2024-06-21_13h46.01.408,LearnStrategy,2023.2.3,Win32,144.9275362,3,1,6,-0.002083333,0.003472222,1,0,0,0.6313,rock_grid_rect_2,1,11,-1,-1,0.631,-0.378472222,-0.247222222,1,0,0,9.8737,Andesite_rect,1,9.874,1,5,0,5,0,1,,,,,,,,,,,,,
5dad4c34b3446a0015e3de93,TCN,2024-06-21_13h46.01.408,LearnStrategy,2023.2.3,Win32,144.9275362,3,1,7,0.0625,-0.009027778,1,0,0,0.8853,rock_grid_rect_2,7,06,-1,-1,0.885,0.159722222,-0.410416667,1,0,0,4.2463,Peridotite_rect,7,4.246,1,6,0,6,0,1,,,,,,,,,,,,,
5dad4c34b3446a0015e3de93,TCN,2024-06-21_13h46.01.408,LearnStrategy,2023.2.3,Win32,144.9275362,3,1,8,0.010416667,0.023611111,1,0,0,0.6266,rock_grid_rect_2,6,16,-1,-1,0.627,-0.114583333,-0.418055556,1,0,0,10.756,Pegmatite_rect,6,10.756,1,7,0,7,0,1,,,,,,,,,,,,,
5dad4c34b3446a0015e3de93,TCN,2024-06-21_13h46.01.408,LearnStrategy,2023.2.3,Win32,144.9275362,3,1,9,0.134027778,0.004166667,1,0,0,1.169,rock_grid_rect_2,5,02,-1,-1,1.169,-0.444444444,-0.414583333,1,0,0,1.1905,Obsidian_rect,5,1.191,1,8,0,8,0,1,,,,,,,,,,,,,
5dad4c34b3446a0015e3de93,TCN,2024-06-21_13h46.01.408,LearnStrategy,2023.2.3,Win32,144.9275362,3,1,10,0.015972222,-0.018055556,1,0,0,0.5757,rock_grid_rect_2,8,09,-1,-1,0.576,0.375,-0.395138889,1,0,0,1.2191,Pumice_rect,8,1.219,1,9,0,9,0,1,,,,,,,,,,,,,
5dad4c34b3446a0015e3de93,TCN,2024-06-21_13h46.01.408,LearnStrategy,2023.2.3,Win32,144.9275362,3,1,11,0.084027778,-0.0125,1,0,0,0.5812,rock_grid_rect_2,4,11,-1,-1,0.581,0.384027778,-0.24375,1,0,0,3.2479,Gabbro_rect,4,3.248,1,10,0,10,0,1,,,,,,,,,,,,,
5dad4c34b3446a0015e3de93,TCN,2024-06-21_13h46.01.408,LearnStrategy,2023.2.3,Win32,144.9275362,3,1,12,0.071527778,-0.0125,1,0,0,0.8377,rock_grid_rect_2,3,12,-1,-1,0.838,0.123611111,-0.258333333,1,0,0,5.4885,Diorite_rect,3,5.488,1,11,0,11,0,1,,,,,,,,,,,,,
5dad4c34b3446a0015e3de93,TCN,2024-06-21_13h46.01.408,LearnStrategy,2023.2.3,Win32,144.9275362,3,1,13,0.154861111,-0.007638889,1,0,0,0.523,rock_grid_rect_2,1,16,-1,-1,0.523,-0.438888889,-0.256944444,1,0,0,3.2476,Andesite_rect,1,3.248,1,12,0,12,0,1,,,,,,,,,,,,,
5dad4c34b3446a0015e3de93,TCN,2024-06-21_13h46.01.408,LearnStrategy,2023.2.3,Win32,144.9275362,3,1,14,0.097222222,0.013194444,1,0,0,0.412,rock_grid_rect_2,6,10,-1,-1,0.412,0.063194444,-0.386111111,1,0,0,8.5383,Peridotite_rect,7,8.538,0,13,0,13,0,1,,,,,,,,,,,,,
5dad4c34b3446a0015e3de93,TCN,2024-06-21_13h46.01.408,LearnStrategy,2023.2.3,Win32,144.9275362,3,1,15,0.125694444,0.008333333,1,0,0,0.8925,rock_grid_rect_2,3,06,-1,-1,0.892,0.086111111,-0.229861111,1,0,0,4.5243,Diorite_rect,3,4.524,1,14,0,14,0,1,,,,,,,,,,,,,
5dad4c34b3446a0015e3de93,TCN,2024-06-21_13h46.01.408,LearnStrategy,2023.2.3,Win32,144.9275362,3,1,16,0.092361111,0.018055556,1,0,0,2.1038,rock_grid_rect_2,7,05,-1,-1,2.104,0.161111111,-0.390277778,1,0,0,13.5458,Peridotite_rect,7,13.546,1,15,0,15,0,1,,,,,,,,,,,,,
5dad4c34b3446a0015e3de93,TCN,2024-06-21_13h46.01.408,LearnStrategy,2023.2.3,Win32,144.9275362,3,2,1,,,,,,,,8,15,,,,,,,,,,,8,10.791,1,,,,,,0.464583333,-0.418055556,1,0,0,10.791,Pumice_rect,0,0,0,0,1,
5dad4c34b3446a0015e3de93,TCN,2024-06-21_13h46.01.408,LearnStrategy,2023.2.3,Win32,144.9275362,3,2,2,,,,,,,,7,14,,,,,,,,,,,6,13.853,0,,,,,,-0.046527778,-0.409722222,1,0,0,13.8531,Pegmatite_rect,1,0,1,0,1,
5dad4c34b3446a0015e3de93,TCN,2024-06-21_13h46.01.408,LearnStrategy,2023.2.3,Win32,144.9275362,3,2,3,,,,,,,,2,16,,,,,,,,,,,2,3.262,1,,,,,,-0.16875,-0.240277778,1,0,0,3.2616,Basalt_rect,2,0,2,0,1,
5dad4c34b3446a0015e3de93,TCN,2024-06-21_13h46.01.408,LearnStrategy,2023.2.3,Win32,144.9275362,3,2,4,,,,,,,,6,13,,,,,,,,,,,6,11.688,1,,,,,,-0.140277778,-0.415277778,1,0,0,11.6878,Pegmatite_rect,3,0,3,0,1,
5dad4c34b3446a0015e3de93,TCN,2024-06-21_13h46.01.408,LearnStrategy,2023.2.3,Win32,144.9275362,3,2,5,,,,,,,,3,08,,,,,,,,,,,3,13.547,1,,,,,,0.168055556,-0.271527778,1,0,0,13.5474,Diorite_rect,4,0,4,0,1,
5dad4c34b3446a0015e3de93,TCN,2024-06-21_13h46.01.408,LearnStrategy,2023.2.3,Win32,144.9275362,3,2,6,,,,,,,,1,01,,,,,,,,,,,1,11.339,1,,,,,,-0.353472222,-0.244444444,1,0,0,11.3391,Andesite_rect,5,0,5,0,1,
5dad4c34b3446a0015e3de93,TCN,2024-06-21_13h46.01.408,LearnStrategy,2023.2.3,Win32,144.9275362,3,2,7,,,,,,,,3,11,,,,,,,,,,,3,3.135,1,,,,,,0.100694444,-0.245833333,1,0,0,3.1346,Diorite_rect,6,0,6,0,1,
5dad4c34b3446a0015e3de93,TCN,2024-06-21_13h46.01.408,LearnStrategy,2023.2.3,Win32,144.9275362,3,2,8,,,,,,,,4,08,,,,,,,,,,,4,12.024,1,,,,,,0.343055556,-0.250694444,1,0,0,12.0241,Gabbro_rect,7,0,7,0,1,
5dad4c34b3446a0015e3de93,TCN,2024-06-21_13h46.01.408,LearnStrategy,2023.2.3,Win32,144.9275362,3,2,9,,,,,,,,5,16,,,,,,,,,,,5,1.268,1,,,,,,-0.341666667,-0.406944444,1,0,0,1.2678,Obsidian_rect,8,0,8,0,1,
5dad4c34b3446a0015e3de93,TCN,2024-06-21_13h46.01.408,LearnStrategy,2023.2.3,Win32,144.9275362,3,2,10,,,,,,,,7,07,,,,,,,,,,,7,4.588,1,,,,,,0.124305556,-0.399305556,1,0,0,4.5881,Peridotite_rect,9,0,9,0,1,
5dad4c34b3446a0015e3de93,TCN,2024-06-21_13h46.01.408,LearnStrategy,2023.2.3,Win32,144.9275362,3,2,11,,,,,,,,8,06,,,,,,,,,,,8,1.377,1,,,,,,0.368055556,-0.401388889,1,0,0,1.3768,Pumice_rect,10,0,10,0,1,
5dad4c34b3446a0015e3de93,TCN,2024-06-21_13h46.01.408,LearnStrategy,2023.2.3,Win32,144.9275362,3,2,12,,,,,,,,2,11,,,,,,,,,,,1,12.735,0,,,,,,-0.354861111,-0.246527778,1,0,0,12.7351,Andesite_rect,11,0,11,0,1,
5dad4c34b3446a0015e3de93,TCN,2024-06-21_13h46.01.408,LearnStrategy,2023.2.3,Win32,144.9275362,3,2,13,,,,,,,,1,03,,,,,,,,,,,1,4.179,1,,,,,,-0.414583333,-0.234722222,1,0,0,4.1793,Andesite_rect,12,0,12,0,1,
5dad4c34b3446a0015e3de93,TCN,2024-06-21_13h46.01.408,LearnStrategy,2023.2.3,Win32,144.9275362,3,2,14,,,,,,,,6,09,,,,,,,,,,,6,5.205,1,,,,,,-0.102083333,-0.409027778,1,0,0,5.2052,Pegmatite_rect,13,0,13,0,1,
5dad4c34b3446a0015e3de93,TCN,2024-06-21_13h46.01.408,LearnStrategy,2023.2.3,Win32,144.9275362,3,2,15,,,,,,,,4,12,,,,,,,,,,,4,17.602,1,,,,,,0.369444444,-0.25,1,0,0,17.6022,Gabbro_rect,14,0,14,0,1,
5dad4c34b3446a0015e3de93,TCN,2024-06-21_13h46.01.408,LearnStrategy,2023.2.3,Win32,144.9275362,3,2,16,,,,,,,,5,14,,,,,,,,,,,5,1.031,1,,,,,,-0.329861111,-0.389583333,1,0,0,1.031,Obsidian_rect,15,0,15,0,1,
5dad4c34b3446a0015e3de93,TCN,2024-06-21_13h46.01.408,LearnStrategy,2023.2.3,Win32,144.9275362,4,1,1,0.145138889,-0.014583333,1,0,0,0.8321,rock_grid_rect_2,8,16,-1,-1,0.832,0.39375,-0.397916667,1,0,0,1.0452,Pumice_rect,8,1.045,1,0,0,0,0,1,,,,,,,,,,,,,
5dad4c34b3446a0015e3de93,TCN,2024-06-21_13h46.01.408,LearnStrategy,2023.2.3,Win32,144.9275362,4,1,2,0.081944444,-0.009722222,1,0,0,0.974,rock_grid_rect_2,1,02,-1,-1,0.974,-0.340277778,-0.256944444,1,0,0,3.0295,Andesite_rect,1,3.03,1,1,0,1,0,1,,,,,,,,,,,,,
5dad4c34b3446a0015e3de93,TCN,2024-06-21_13h46.01.408,LearnStrategy,2023.2.3,Win32,144.9275362,4,1,3,0.069444444,0.00625,1,0,0,0.8537,rock_grid_rect_2,8,08,-1,-1,0.854,0.348611111,-0.397222222,1,0,0,1.6719,Pumice_rect,8,1.672,1,2,0,2,0,1,,,,,,,,,,,,,
5dad4c34b3446a0015e3de93,TCN,2024-06-21_13h46.01.408,LearnStrategy,2023.2.3,Win32,144.9275362,4,1,4,0.093055556,-0.003472222,1,0,0,1.1244,rock_grid_rect_2,6,05,-1,-1,1.124,-0.402777778,-0.409722222,1,0,0,3.0726,Obsidian_rect,5,3.073,0,3,0,3,0,1,,,,,,,,,,,,,
5dad4c34b3446a0015e3de93,TCN,2024-06-21_13h46.01.408,LearnStrategy,2023.2.3,Win32,144.9275362,4,1,5,0.057638889,-0.006944444,1,0,0,0.6261,rock_grid_rect_2,3,13,-1,-1,0.626,0.116666667,-0.248611111,1,0,0,4.1955,Diorite_rect,3,4.196,1,4,0,4,0,1,,,,,,,,,,,,,
5dad4c34b3446a0015e3de93,TCN,2024-06-21_13h46.01.408,LearnStrategy,2023.2.3,Win32,144.9275362,4,1,6,0.040277778,-0.011805556,1,0,0,0.6838,rock_grid_rect_2,7,06,-1,-1,0.684,0.074305556,-0.394444444,1,0,0,7.6891,Peridotite_rect,7,7.689,1,5,0,5,0,1,,,,,,,,,,,,,
5dad4c34b3446a0015e3de93,TCN,2024-06-21_13h46.01.408,LearnStrategy,2023.2.3,Win32,144.9275362,4,1,7,0.127083333,0.009722222,1,0,0,0.569,rock_grid_rect_2,5,08,-1,-1,0.569,-0.420138889,-0.400694444,1,0,0,1.24,Obsidian_rect,5,1.24,1,6,0,6,0,1,,,,,,,,,,,,,
5dad4c34b3446a0015e3de93,TCN,2024-06-21_13h46.01.408,LearnStrategy,2023.2.3,Win32,144.9275362,4,1,8,0.01875,-0.002777778,1,0,0,0.5058,rock_grid_rect_2,2,10,-1,-1,0.506,-0.155555556,-0.231944444,1,0,0,1.9773,Basalt_rect,2,1.977,1,7,0,7,0,1,,,,,,,,,,,,,
5dad4c34b3446a0015e3de93,TCN,2024-06-21_13h46.01.408,LearnStrategy,2023.2.3,Win32,144.9275362,4,1,9,0.0125,-0.014583333,1,0,0,0.5067,rock_grid_rect_2,4,03,-1,-1,0.507,0.430555556,-0.257638889,1,0,0,15.9764,Gabbro_rect,4,15.976,1,8,0,8,0,1,,,,,,,,,,,,,
5dad4c34b3446a0015e3de93,TCN,2024-06-21_13h46.01.408,LearnStrategy,2023.2.3,Win32,144.9275362,4,1,10,0.091666667,0.0125,1,0,0,0.541,rock_grid_rect_2,4,16,-1,-1,0.541,-0.190972222,-0.233333333,1,0,0,4.1992,Basalt_rect,2,4.199,0,9,0,9,0,1,,,,,,,,,,,,,
5dad4c34b3446a0015e3de93,TCN,2024-06-21_13h46.01.408,LearnStrategy,2023.2.3,Win32,144.9275362,4,1,11,0.002777778,0.001388889,1,0,0,10.6322,rock_grid_rect_2,1,06,-1,-1,10.632,-0.371527778,-0.238194444,1,0,0,2.969,Andesite_rect,1,2.969,1,10,0,10,0,1,,,,,,,,,,,,,
5dad4c34b3446a0015e3de93,TCN,2024-06-21_13h46.01.408,LearnStrategy,2023.2.3,Win32,144.9275362,4,1,12,0.180555556,-0.015277778,1,0,0,0.728,rock_grid_rect_2,3,02,-1,-1,0.728,0.1375,-0.250694444,1,0,0,3.7192,Diorite_rect,3,3.719,1,11,0,11,0,1,,,,,,,,,,,,,
5dad4c34b3446a0015e3de93,TCN,2024-06-21_13h46.01.408,LearnStrategy,2023.2.3,Win32,144.9275362,4,1,13,0.126388889,0,1,0,0,0.5118,rock_grid_rect_2,6,03,-1,-1,0.512,-0.175694444,-0.41875,1,0,0,5.1357,Pegmatite_rect,6,5.136,1,12,0,12,0,1,,,,,,,,,,,,,
5dad4c34b3446a0015e3de93,TCN,2024-06-21_13h46.01.408,LearnStrategy,2023.2.3,Win32,144.9275362,4,1,14,0.077083333,-0.001388889,1,0,0,0.4365,rock_grid_rect_2,2,08,-1,-1,0.437,-0.1625,-0.257638889,1,0,0,1.4624,Basalt_rect,2,1.462,1,13,0,13,0,1,,,,,,,,,,,,,
5dad4c34b3446a0015e3de93,TCN,2024-06-21_13h46.01.408,LearnStrategy,2023.2.3,Win32,144.9275362,4,1,15,0.048611111,-0.000694444,1,0,0,0.6236,rock_grid_rect_2,5,07,-1,-1,0.624,-0.401388889,-0.406944444,1,0,0,1.0387,Obsidian_rect,5,1.039,1,14,0,14,0,1,,,,,,,,,,,,,
5dad4c34b3446a0015e3de93,TCN,2024-06-21_13h46.01.408,LearnStrategy,2023.2.3,Win32,144.9275362,4,1,16,0.045833333,0.013194444,1,0,0,0.4507,rock_grid_rect_2,7,16,-1,-1,0.451,0.116666667,-0.401388889,1,0,0,3.0931,Peridotite_rect,7,3.093,1,15,0,15,0,1,,,,,,,,,,,,,
5dad4c34b3446a0015e3de93,TCN,2024-06-21_13h46.01.408,LearnStrategy,2023.2.3,Win32,144.9275362,4,2,1,,,,,,,,5,11,,,,,,,,,,,5,6.204,1,,,,,,-0.420833333,-0.405555556,1,0,0,6.2037,Obsidian_rect,0,0,0,0,1,
5dad4c34b3446a0015e3de93,TCN,2024-06-21_13h46.01.408,LearnStrategy,2023.2.3,Win32,144.9275362,4,2,2,,,,,,,,7,14,,,,,,,,,,,6,10.706,0,,,,,,-0.098611111,-0.402777778,1,0,0,10.7062,Pegmatite_rect,1,0,1,0,1,
5dad4c34b3446a0015e3de93,TCN,2024-06-21_13h46.01.408,LearnStrategy,2023.2.3,Win32,144.9275362,4,2,3,,,,,,,,8,15,,,,,,,,,,,8,1.135,1,,,,,,0.411111111,-0.403472222,1,0,0,1.1353,Pumice_rect,2,0,2,0,1,
5dad4c34b3446a0015e3de93,TCN,2024-06-21_13h46.01.408,LearnStrategy,2023.2.3,Win32,144.9275362,4,2,4,,,,,,,,4,15,,,,,,,,,,,4,9.362,1,,,,,,0.404166667,-0.238888889,1,0,0,9.3623,Gabbro_rect,3,0,3,0,1,
5dad4c34b3446a0015e3de93,TCN,2024-06-21_13h46.01.408,LearnStrategy,2023.2.3,Win32,144.9275362,4,2,5,,,,,,,,5,06,,,,,,,,,,,5,1.032,1,,,,,,-0.381944444,-0.410416667,1,0,0,1.0316,Obsidian_rect,4,0,4,0,1,
5dad4c34b3446a0015e3de93,TCN,2024-06-21_13h46.01.408,LearnStrategy,2023.2.3,Win32,144.9275362,4,2,6,,,,,,,,1,03,,,,,,,,,,,1,8.635,1,,,,,,-0.389583333,-0.245833333,1,0,0,8.6354,Andesite_rect,5,0,5,0,1,
5dad4c34b3446a0015e3de93,TCN,2024-06-21_13h46.01.408,LearnStrategy,2023.2.3,Win32,144.9275362,4,2,7,,,,,,,,2,02,,,,,,,,,,,4,6.553,0,,,,,,0.381944444,-0.234027778,1,0,0,6.5534,Gabbro_rect,6,0,6,0,1,
5dad4c34b3446a0015e3de93,TCN,2024-06-21_13h46.01.408,LearnStrategy,2023.2.3,Win32,144.9275362,4,2,8,,,,,,,,2,11,,,,,,,,,,,1,14.52,0,,,,,,-0.348611111,-0.252777778,1,0,0,14.5196,Andesite_rect,7,0,7,0,1,
5dad4c34b3446a0015e3de93,TCN,2024-06-21_13h46.01.408,LearnStrategy,2023.2.3,Win32,144.9275362,4,2,9,,,,,,,,8,02,,,,,,,,,,,8,0.947,1,,,,,,0.43125,-0.416666667,1,0,0,0.9473,Pumice_rect,8,0,8,0,1,
5dad4c34b3446a0015e3de93,TCN,2024-06-21_13h46.01.408,LearnStrategy,2023.2.3,Win32,144.9275362,4,2,10,,,,,,,,7,10,,,,,,,,,,,7,3.712,1,,,,,,0.118055556,-0.389583333,1,0,0,3.7116,Peridotite_rect,9,0,9,0,1,
5dad4c34b3446a0015e3de93,TCN,2024-06-21_13h46.01.408,LearnStrategy,2023.2.3,Win32,144.9275362,4,2,11,,,,,,,,3,14,,,,,,,,,,,3,6.822,1,,,,,,0.175,-0.228472222,1,0,0,6.822,Diorite_rect,10,0,10,0,1,
5dad4c34b3446a0015e3de93,TCN,2024-06-21_13h46.01.408,LearnStrategy,2023.2.3,Win32,144.9275362,4,2,12,,,,,,,,6,07,,,,,,,,,,,6,6.156,1,,,,,,-0.070833333,-0.406944444,1,0,0,6.1556,Pegmatite_rect,11,0,11,0,1,
5dad4c34b3446a0015e3de93,TCN,2024-06-21_13h46.01.408,LearnStrategy,2023.2.3,Win32,144.9275362,4,2,13,,,,,,,,4,12,,,,,,,,,,,4,9.337,1,,,,,,0.409027778,-0.238194444,1,0,0,9.3367,Gabbro_rect,12,0,12,0,1,
5dad4c34b3446a0015e3de93,TCN,2024-06-21_13h46.01.408,LearnStrategy,2023.2.3,Win32,144.9275362,4,2,14,,,,,,,,6,13,,,,,,,,,,,6,5.032,1,,,,,,-0.108333333,-0.398611111,1,0,0,5.032,Pegmatite_rect,13,0,13,0,1,
5dad4c34b3446a0015e3de93,TCN,2024-06-21_13h46.01.408,LearnStrategy,2023.2.3,Win32,144.9275362,4,2,15,,,,,,,,3,16,,,,,,,,,,,3,5.185,1,,,,,,0.10625,-0.241666667,1,0,0,5.1847,Diorite_rect,14,0,14,0,1,
5dad4c34b3446a0015e3de93,TCN,2024-06-21_13h46.01.408,LearnStrategy,2023.2.3,Win32,144.9275362,4,2,16,,,,,,,,1,09,,,,,,,,,,,1,4.537,1,,,,,,-0.348611111,-0.245833333,1,0,0,4.537,Andesite_rect,15,0,15,0,1,
5dad4c34b3446a0015e3de93,TCN,2024-06-21_13h46.01.408,LearnStrategy,2023.2.3,Win32,144.9275362,5,1,1,0.113888889,-0.006944444,1,0,0,2.9027,rock_grid_rect_2,2,04,-1,-1,2.903,-0.115277778,-0.240277778,1,0,0,1.6846,Basalt_rect,2,1.685,1,0,0,0,0,1,,,,,,,,,,,,,
5dad4c34b3446a0015e3de93,TCN,2024-06-21_13h46.01.408,LearnStrategy,2023.2.3,Win32,144.9275362,5,1,2,0.08125,-0.00625,1,0,0,0.791,rock_grid_rect_2,2,14,-1,-1,0.791,-0.132638889,-0.255555556,1,0,0,6.0821,Basalt_rect,2,6.082,1,1,0,1,0,1,,,,,,,,,,,,,
5dad4c34b3446a0015e3de93,TCN,2024-06-21_13h46.01.408,LearnStrategy,2023.2.3,Win32,144.9275362,5,1,3,0.040972222,-0.014583333,1,0,0,0.4866,rock_grid_rect_2,8,13,-1,-1,0.487,0.428472222,-0.415277778,1,0,0,0.9196,Pumice_rect,8,0.92,1,2,0,2,0,1,,,,,,,,,,,,,
5dad4c34b3446a0015e3de93,TCN,2024-06-21_13h46.01.408,LearnStrategy,2023.2.3,Win32,144.9275362,5,1,4,0.038194444,-0.013194444,1,0,0,0.7148,rock_grid_rect_2,4,10,-1,-1,0.715,0.358333333,-0.244444444,1,0,0,6.1007,Gabbro_rect,4,6.101,1,3,0,3,0,1,,,,,,,,,,,,,
5dad4c34b3446a0015e3de93,TCN,2024-06-21_13h46.01.408,LearnStrategy,2023.2.3,Win32,144.9275362,5,1,5,0.109027778,0.010416667,1,0,0,0.4438,rock_grid_rect_2,8,05,-1,-1,0.444,0.347222222,-0.3875,1,0,0,1.3448,Pumice_rect,8,1.345,1,4,0,4,0,1,,,,,,,,,,,,,
5dad4c34b3446a0015e3de93,TCN,2024-06-21_13h46.01.408,LearnStrategy,2023.2.3,Win32,144.9275362,5,1,6,0.065277778,0.019444444,1,0,0,0.4156,rock_grid_rect_2,7,05,-1,-1,0.416,0.116666667,-0.379861111,1,0,0,6.2628,Peridotite_rect,7,6.263,1,5,0,5,0,1,,,,,,,,,,,,,
5dad4c34b3446a0015e3de93,TCN,2024-06-21_13h46.01.408,LearnStrategy,2023.2.3,Win32,144.9275362,5,1,7,0.031944444,-0.011805556,1,0,0,0.4161,rock_grid_rect_2,1,11,-1,-1,0.416,-0.406944444,-0.261111111,1,0,0,2.5196,Andesite_rect,1,2.52,1,6,0,6,0,1,,,,,,,,,,,,,
5dad4c34b3446a0015e3de93,TCN,2024-06-21_13h46.01.408,LearnStrategy,2023.2.3,Win32,144.9275362,5,1,8,0.015972222,-0.000694444,1,0,0,0.6928,rock_grid_rect_2,4,13,-1,-1,0.693,0.384722222,-0.240972222,1,0,0,5.2965,Gabbro_rect,4,5.297,1,7,0,7,0,1,,,,,,,,,,,,,
5dad4c34b3446a0015e3de93,TCN,2024-06-21_13h46.01.408,LearnStrategy,2023.2.3,Win32,144.9275362,5,1,9,-0.001388889,0.009722222,1,0,0,0.423,rock_grid_rect_2,7,13,-1,-1,0.423,0.101388889,-0.386805556,1,0,0,7.0677,Peridotite_rect,7,7.068,1,8,0,8,0,1,,,,,,,,,,,,,
5dad4c34b3446a0015e3de93,TCN,2024-06-21_13h46.01.408,LearnStrategy,2023.2.3,Win32,144.9275362,5,1,10,0.047916667,0.007638889,1,0,0,0.6934,rock_grid_rect_2,1,07,-1,-1,0.693,0.030555556,-0.2625,1,0,0,4.3561,Diorite_rect,3,4.356,0,9,0,9,0,1,,,,,,,,,,,,,
5dad4c34b3446a0015e3de93,TCN,2024-06-21_13h46.01.408,LearnStrategy,2023.2.3,Win32,144.9275362,5,1,11,0.079861111,-0.009722222,1,0,0,0.6522,rock_grid_rect_2,3,06,-1,-1,0.652,0.122916667,-0.246527778,1,0,0,4.3996,Diorite_rect,3,4.4,1,10,0,10,0,1,,,,,,,,,,,,,
5dad4c34b3446a0015e3de93,TCN,2024-06-21_13h46.01.408,LearnStrategy,2023.2.3,Win32,144.9275362,5,1,12,0.097916667,-0.021527778,1,0,0,0.6223,rock_grid_rect_2,6,10,-1,-1,0.622,-0.175,-0.4,1,0,0,3.0041,Pegmatite_rect,6,3.004,1,11,0,11,0,1,,,,,,,,,,,,,
5dad4c34b3446a0015e3de93,TCN,2024-06-21_13h46.01.408,LearnStrategy,2023.2.3,Win32,144.9275362,5,1,13,0.094444444,0.020833333,1,0,0,0.9158,rock_grid_rect_2,6,15,-1,-1,0.916,-0.113194444,-0.411111111,1,0,0,2.2333,Pegmatite_rect,6,2.233,1,12,0,12,0,1,,,,,,,,,,,,,
5dad4c34b3446a0015e3de93,TCN,2024-06-21_13h46.01.408,LearnStrategy,2023.2.3,Win32,144.9275362,5,1,14,-0.001388889,-0.001388889,1,0,0,0.416,rock_grid_rect_2,3,07,-1,-1,0.416,0.127777778,-0.268055556,1,0,0,4.3931,Diorite_rect,3,4.393,1,13,0,13,0,1,,,,,,,,,,,,,
5dad4c34b3446a0015e3de93,TCN,2024-06-21_13h46.01.408,LearnStrategy,2023.2.3,Win32,144.9275362,5,1,15,0.126388889,-0.024305556,1,0,0,0.6661,rock_grid_rect_2,5,05,-1,-1,0.666,-0.361805556,-0.407638889,1,0,0,1.3926,Obsidian_rect,5,1.393,1,14,0,14,0,1,,,,,,,,,,,,,
5dad4c34b3446a0015e3de93,TCN,2024-06-21_13h46.01.408,LearnStrategy,2023.2.3,Win32,144.9275362,5,1,16,0.000694444,0.009722222,1,0,0,0.4345,rock_grid_rect_2,5,12,-1,-1,0.435,-0.405555556,-0.411805556,1,0,0,1.1011,Obsidian_rect,5,1.101,1,15,0,15,0,1,,,,,,,,,,,,,
5dad4c34b3446a0015e3de93,TCN,2024-06-21_13h46.01.408,LearnStrategy,2023.2.3,Win32,144.9275362,5,2,1,,,,,,,,3,11,,,,,,,,,,,3,3.616,1,,,,,,0.156944444,-0.244444444,1,0,0,3.6159,Diorite_rect,0,0,0,0,1,
5dad4c34b3446a0015e3de93,TCN,2024-06-21_13h46.01.408,LearnStrategy,2023.2.3,Win32,144.9275362,5,2,2,,,,,,,,1,14,,,,,,,,,,,1,10.01,1,,,,,,-0.375,-0.267361111,1,0,0,10.0101,Andesite_rect,1,0,1,0,1,
5dad4c34b3446a0015e3de93,TCN,2024-06-21_13h46.01.408,LearnStrategy,2023.2.3,Win32,144.9275362,5,2,3,,,,,,,,7,07,,,,,,,,,,,7,3.552,1,,,,,,0.150694444,-0.403472222,1,0,0,3.5524,Peridotite_rect,2,0,2,0,1,
5dad4c34b3446a0015e3de93,TCN,2024-06-21_13h46.01.408,LearnStrategy,2023.2.3,Win32,144.9275362,5,2,4,,,,,,,,2,01,,,,,,,,,,,2,2.677,1,,,,,,-0.138194444,-0.249305556,1,0,0,2.6773,Basalt_rect,3,0,3,0,1,
5dad4c34b3446a0015e3de93,TCN,2024-06-21_13h46.01.408,LearnStrategy,2023.2.3,Win32,144.9275362,5,2,5,,,,,,,,1,05,,,,,,,,,,,1,17.339,1,,,,,,-0.345833333,-0.245833333,1,0,0,17.3392,Andesite_rect,4,0,4,0,1,
5dad4c34b3446a0015e3de93,TCN,2024-06-21_13h46.01.408,LearnStrategy,2023.2.3,Win32,144.9275362,5,2,6,,,,,,,,5,16,,,,,,,,,,,5,1.004,1,,,,,,-0.4125,-0.413888889,1,0,0,1.0037,Obsidian_rect,5,0,5,0,1,
5dad4c34b3446a0015e3de93,TCN,2024-06-21_13h46.01.408,LearnStrategy,2023.2.3,Win32,144.9275362,5,2,7,,,,,,,,4,09,,,,,,,,,,,4,7.367,1,,,,,,0.405555556,-0.250694444,1,0,0,7.3665,Gabbro_rect,6,0,6,0,1,
5dad4c34b3446a0015e3de93,TCN,2024-06-21_13h46.01.408,LearnStrategy,2023.2.3,Win32,144.9275362,5,2,8,,,,,,,,6,11,,,,,,,,,,,6,4.366,1,,,,,,-0.207638889,-0.407638889,1,0,0,4.3656,Pegmatite_rect,7,0,7,0,1,
5dad4c34b3446a0015e3de93,TCN,2024-06-21_13h46.01.408,LearnStrategy,2023.2.3,Win32,144.9275362,5,2,9,,,,,,,,2,16,,,,,,,,,,,2,6.152,1,,,,,,-0.2125,-0.253472222,1,0,0,6.1517,Basalt_rect,8,0,8,0,1,
5dad4c34b3446a0015e3de93,TCN,2024-06-21_13h46.01.408,LearnStrategy,2023.2.3,Win32,144.9275362,5,2,10,,,,,,,,6,09,,,,,,,,,,,6,3.205,1,,,,,,-0.109722222,-0.41875,1,0,0,3.2051,Pegmatite_rect,9,0,9,0,1,
5dad4c34b3446a0015e3de93,TCN,2024-06-21_13h46.01.408,LearnStrategy,2023.2.3,Win32,144.9275362,5,2,11,,,,,,,,8,10,,,,,,,,,,,8,1.386,1,,,,,,0.41875,-0.391666667,1,0,0,1.3859,Pumice_rect,10,0,10,0,1,
5dad4c34b3446a0015e3de93,TCN,2024-06-21_13h46.01.408,LearnStrategy,2023.2.3,Win32,144.9275362,5,2,12,,,,,,,,7,04,,,,,,,,,,,3,8.512,0,,,,,,0.124305556,-0.252777778,1,0,0,8.512,Diorite_rect,11,0,11,0,1,
5dad4c34b3446a0015e3de93,TCN,2024-06-21_13h46.01.408,LearnStrategy,2023.2.3,Win32,144.9275362,5,2,13,,,,,,,,3,09,,,,,,,,,,,3,2.608,1,,,,,,0.08125,-0.236111111,1,0,0,2.6083,Diorite_rect,12,0,12,0,1,
5dad4c34b3446a0015e3de93,TCN,2024-06-21_13h46.01.408,LearnStrategy,2023.2.3,Win32,144.9275362,5,2,14,,,,,,,,4,05,,,,,,,,,,,4,17.948,1,,,,,,0.4,-0.25,1,0,0,17.9485,Gabbro_rect,13,0,13,0,1,
5dad4c34b3446a0015e3de93,TCN,2024-06-21_13h46.01.408,LearnStrategy,2023.2.3,Win32,144.9275362,5,2,15,,,,,,,,8,06,,,,,,,,,,,8,0.987,1,,,,,,0.388888889,-0.402083333,1,0,0,0.9873,Pumice_rect,14,0,14,0,1,
5dad4c34b3446a0015e3de93,TCN,2024-06-21_13h46.01.408,LearnStrategy,2023.2.3,Win32,144.9275362,5,2,16,,,,,,,,5,09,,,,,,,,,,,5,1.02,1,,,,,,-0.347916667,-0.419444444,1,0,0,1.0199,Obsidian_rect,15,0,15,0,1,
5dad4c34b3446a0015e3de93,TCN,2024-06-21_13h46.01.408,LearnStrategy,2023.2.3,Win32,144.9275362,6,1,1,0.106944444,-0.003472222,1,0,0,0.6454,rock_grid_rect_2,8,03,-1,-1,0.645,0.373611111,-0.396527778,1,0,0,0.9131,Pumice_rect,8,0.913,1,0,0,0,0,1,,,,,,,,,,,,,
5dad4c34b3446a0015e3de93,TCN,2024-06-21_13h46.01.408,LearnStrategy,2023.2.3,Win32,144.9275362,6,1,2,0.088194444,-0.007638889,1,0,0,0.3739,rock_grid_rect_2,4,11,-1,-1,0.374,0.397222222,-0.233333333,1,0,0,2.9905,Gabbro_rect,4,2.991,1,1,0,1,0,1,,,,,,,,,,,,,
5dad4c34b3446a0015e3de93,TCN,2024-06-21_13h46.01.408,LearnStrategy,2023.2.3,Win32,144.9275362,6,1,3,0.135416667,-0.015277778,1,0,0,0.4438,rock_grid_rect_2,7,08,-1,-1,0.444,0.105555556,-0.414583333,1,0,0,3.2479,Peridotite_rect,7,3.248,1,2,0,2,0,1,,,,,,,,,,,,,
5dad4c34b3446a0015e3de93,TCN,2024-06-21_13h46.01.408,LearnStrategy,2023.2.3,Win32,144.9275362,6,1,4,0.145138889,0.010416667,1,0,0,0.3745,rock_grid_rect_2,6,08,-1,-1,0.375,-0.171527778,-0.416666667,1,0,0,1.5293,Pegmatite_rect,6,1.529,1,3,0,3,0,1,,,,,,,,,,,,,
5dad4c34b3446a0015e3de93,TCN,2024-06-21_13h46.01.408,LearnStrategy,2023.2.3,Win32,144.9275362,6,1,5,-0.002083333,0.006944444,1,0,0,0.6034,rock_grid_rect_2,1,16,-1,-1,0.603,0.120138889,-0.229166667,1,0,0,2.2428,Diorite_rect,3,2.243,0,4,0,4,0,1,,,,,,,,,,,,,
5dad4c34b3446a0015e3de93,TCN,2024-06-21_13h46.01.408,LearnStrategy,2023.2.3,Win32,144.9275362,6,1,6,0.097222222,-0.01875,1,0,0,0.4514,rock_grid_rect_2,2,12,-1,-1,0.451,-0.119444444,-0.240277778,1,0,0,5.6147,Basalt_rect,2,5.615,1,5,0,5,0,1,,,,,,,,,,,,,
5dad4c34b3446a0015e3de93,TCN,2024-06-21_13h46.01.408,LearnStrategy,2023.2.3,Win32,144.9275362,6,1,7,-0.002083333,-0.018055556,1,0,0,0.9284,rock_grid_rect_2,3,12,-1,-1,0.928,0.120138889,-0.244444444,1,0,0,2.2888,Diorite_rect,3,2.289,1,6,0,6,0,1,,,,,,,,,,,,,
5dad4c34b3446a0015e3de93,TCN,2024-06-21_13h46.01.408,LearnStrategy,2023.2.3,Win32,144.9275362,6,1,8,0.072916667,-0.019444444,1,0,0,0.5623,rock_grid_rect_2,5,02,-1,-1,0.562,-0.396527778,-0.41875,1,0,0,0.8465,Obsidian_rect,5,0.847,1,7,0,7,0,1,,,,,,,,,,,,,
5dad4c34b3446a0015e3de93,TCN,2024-06-21_13h46.01.408,LearnStrategy,2023.2.3,Win32,144.9275362,6,1,9,0.0375,-0.018055556,1,0,0,0.5689,rock_grid_rect_2,4,14,-1,-1,0.569,0.4625,-0.236805556,1,0,0,2.2613,Gabbro_rect,4,2.261,1,8,0,8,0,1,,,,,,,,,,,,,
5dad4c34b3446a0015e3de93,TCN,2024-06-21_13h46.01.408,LearnStrategy,2023.2.3,Win32,144.9275362,6,1,10,0.149305556,0.020833333,1,0,0,0.3753,rock_grid_rect_2,6,16,-1,-1,0.375,-0.136805556,-0.40625,1,0,0,3.573,Pegmatite_rect,6,3.573,1,9,0,9,0,1,,,,,,,,,,,,,
5dad4c34b3446a0015e3de93,TCN,2024-06-21_13h46.01.408,LearnStrategy,2023.2.3,Win32,144.9275362,6,1,11,0.074305556,-0.020138889,1,0,0,0.688,rock_grid_rect_2,5,04,-1,-1,0.688,-0.41875,-0.411805556,1,0,0,0.8017,Obsidian_rect,5,0.802,1,10,0,10,0,1,,,,,,,,,,,,,
5dad4c34b3446a0015e3de93,TCN,2024-06-21_13h46.01.408,LearnStrategy,2023.2.3,Win32,144.9275362,6,1,12,0.020833333,0.008333333,1,0,0,0.4092,rock_grid_rect_2,7,02,-1,-1,0.409,0.107638889,-0.397916667,1,0,0,2.4419,Peridotite_rect,7,2.442,1,11,0,11,0,1,,,,,,,,,,,,,
5dad4c34b3446a0015e3de93,TCN,2024-06-21_13h46.01.408,LearnStrategy,2023.2.3,Win32,144.9275362,6,1,13,0.0375,0.009722222,1,0,0,0.4001,rock_grid_rect_2,8,09,-1,-1,0.4,0.384722222,-0.385416667,1,0,0,1.1486,Pumice_rect,8,1.149,1,12,0,12,0,1,,,,,,,,,,,,,
5dad4c34b3446a0015e3de93,TCN,2024-06-21_13h46.01.408,LearnStrategy,2023.2.3,Win32,144.9275362,6,1,14,0.077083333,-0.016666667,1,0,0,0.6573,rock_grid_rect_2,2,06,-1,-1,0.657,-0.147222222,-0.244444444,1,0,0,1.8364,Basalt_rect,2,1.836,1,13,0,13,0,1,,,,,,,,,,,,,
5dad4c34b3446a0015e3de93,TCN,2024-06-21_13h46.01.408,LearnStrategy,2023.2.3,Win32,144.9275362,6,1,15,0.056944444,0.004166667,1,0,0,0.5756,rock_grid_rect_2,3,10,-1,-1,0.576,0.041666667,-0.269444444,1,0,0,2.2562,Diorite_rect,3,2.256,1,14,0,14,0,1,,,,,,,,,,,,,
5dad4c34b3446a0015e3de93,TCN,2024-06-21_13h46.01.408,LearnStrategy,2023.2.3,Win32,144.9275362,6,1,16,0.147222222,-0.001388889,1,0,0,0.3692,rock_grid_rect_2,1,10,-1,-1,0.369,-0.367361111,-0.258333333,1,0,0,5.4831,Andesite_rect,1,5.483,1,15,0,15,0,1,,,,,,,,,,,,,
5dad4c34b3446a0015e3de93,TCN,2024-06-21_13h46.01.408,LearnStrategy,2023.2.3,Win32,144.9275362,6,2,1,,,,,,,,1,04,,,,,,,,,,,1,7.534,1,,,,,,-0.402777778,-0.265972222,1,0,0,7.5337,Andesite_rect,0,0,0,0,1,
5dad4c34b3446a0015e3de93,TCN,2024-06-21_13h46.01.408,LearnStrategy,2023.2.3,Win32,144.9275362,6,2,2,,,,,,,,1,01,,,,,,,,,,,1,17.58,1,,,,,,-0.393055556,-0.265972222,1,0,0,17.5798,Andesite_rect,1,0,1,0,1,
5dad4c34b3446a0015e3de93,TCN,2024-06-21_13h46.01.408,LearnStrategy,2023.2.3,Win32,144.9275362,6,2,3,,,,,,,,5,10,,,,,,,,,,,5,0.92,1,,,,,,-0.378472222,-0.405555556,1,0,0,0.92,Obsidian_rect,2,0,2,0,1,
5dad4c34b3446a0015e3de93,TCN,2024-06-21_13h46.01.408,LearnStrategy,2023.2.3,Win32,144.9275362,6,2,4,,,,,,,,2,09,,,,,,,,,,,2,1.961,1,,,,,,-0.127083333,-0.258333333,1,0,0,1.9611,Basalt_rect,3,0,3,0,1,
5dad4c34b3446a0015e3de93,TCN,2024-06-21_13h46.01.408,LearnStrategy,2023.2.3,Win32,144.9275362,6,2,5,,,,,,,,6,12,,,,,,,,,,,4,15.448,0,,,,,,0.446527778,-0.255555556,1,0,0,15.4485,Gabbro_rect,4,0,4,0,1,
5dad4c34b3446a0015e3de93,TCN,2024-06-21_13h46.01.408,LearnStrategy,2023.2.3,Win32,144.9275362,6,2,6,,,,,,,,3,08,,,,,,,,,,,3,14.79,1,,,,,,0.114583333,-0.24375,1,0,0,14.7902,Diorite_rect,5,0,5,0,1,
5dad4c34b3446a0015e3de93,TCN,2024-06-21_13h46.01.408,LearnStrategy,2023.2.3,Win32,144.9275362,6,2,7,,,,,,,,3,15,,,,,,,,,,,3,2.921,1,,,,,,0.057638889,-0.259722222,1,0,0,2.9207,Diorite_rect,6,0,6,0,1,
5dad4c34b3446a0015e3de93,TCN,2024-06-21_13h46.01.408,LearnStrategy,2023.2.3,Win32,144.9275362,6,2,8,,,,,,,,7,12,,,,,,,,,,,7,2.698,1,,,,,,0.108333333,-0.397222222,1,0,0,2.6982,Peridotite_rect,7,0,7,0,1,
5dad4c34b3446a0015e3de93,TCN,2024-06-21_13h46.01.408,LearnStrategy,2023.2.3,Win32,144.9275362,6,2,9,,,,,,,,8,04,,,,,,,,,,,8,0.942,1,,,,,,0.400694444,-0.404861111,1,0,0,0.9416,Pumice_rect,8,0,8,0,1,
5dad4c34b3446a0015e3de93,TCN,2024-06-21_13h46.01.408,LearnStrategy,2023.2.3,Win32,144.9275362,6,2,10,,,,,,,,4,08,,,,,,,,,,,4,12.233,1,,,,,,0.331944444,-0.255555556,1,0,0,12.2326,Gabbro_rect,9,0,9,0,1,
5dad4c34b3446a0015e3de93,TCN,2024-06-21_13h46.01.408,LearnStrategy,2023.2.3,Win32,144.9275362,6,2,11,,,,,,,,8,14,,,,,,,,,,,8,1.171,1,,,,,,0.439583333,-0.415972222,1,0,0,1.1707,Pumice_rect,10,0,10,0,1,
5dad4c34b3446a0015e3de93,TCN,2024-06-21_13h46.01.408,LearnStrategy,2023.2.3,Win32,144.9275362,6,2,12,,,,,,,,7,15,,,,,,,,,,,7,3.358,1,,,,,,0.077083333,-0.415277778,1,0,0,3.3575,Peridotite_rect,11,0,11,0,1,
5dad4c34b3446a0015e3de93,TCN,2024-06-21_13h46.01.408,LearnStrategy,2023.2.3,Win32,144.9275362,6,2,13,,,,,,,,5,14,,,,,,,,,,,5,1.633,1,,,,,,-0.385416667,-0.417361111,1,0,0,1.6332,Obsidian_rect,12,0,12,0,1,
5dad4c34b3446a0015e3de93,TCN,2024-06-21_13h46.01.408,LearnStrategy,2023.2.3,Win32,144.9275362,6,2,14,,,,,,,,6,06,,,,,,,,,,,6,2.665,1,,,,,,-0.145138889,-0.404861111,1,0,0,2.6648,Pegmatite_rect,13,0,13,0,1,
5dad4c34b3446a0015e3de93,TCN,2024-06-21_13h46.01.408,LearnStrategy,2023.2.3,Win32,144.9275362,6,2,15,,,,,,,,2,05,,,,,,,,,,,2,1.893,1,,,,,,-0.050694444,-0.238194444,1,0,0,1.8934,Basalt_rect,14,0,14,0,1,
5dad4c34b3446a0015e3de93,TCN,2024-06-21_13h46.01.408,LearnStrategy,2023.2.3,Win32,144.9275362,6,2,16,,,,,,,,4,01,,,,,,,,,,,4,8.893,1,,,,,,0.413888889,-0.252777778,1,0,0,8.893,Gabbro_rect,15,0,15,0,1,
5dad4c34b3446a0015e3de93,TCN,2024-06-21_13h46.01.408,LearnStrategy,2023.2.3,Win32,144.9275362,7,1,1,0.065277778,-0.009027778,1,0,0,0.5411,rock_grid_rect_2,4,16,-1,-1,0.541,0.313194444,-0.236805556,1,0,0,4.0115,Gabbro_rect,4,4.012,1,0,0,0,0,1,,,,,,,,,,,,,
5dad4c34b3446a0015e3de93,TCN,2024-06-21_13h46.01.408,LearnStrategy,2023.2.3,Win32,144.9275362,7,1,2,0.125694444,-0.015972222,1,0,0,0.7006,rock_grid_rect_2,7,16,-1,-1,0.701,0.115277778,-0.40625,1,0,0,1.7126,Peridotite_rect,7,1.713,1,1,0,1,0,1,,,,,,,,,,,,,
5dad4c34b3446a0015e3de93,TCN,2024-06-21_13h46.01.408,LearnStrategy,2023.2.3,Win32,144.9275362,7,1,3,0.088888889,-0.013888889,1,0,0,0.6667,rock_grid_rect_2,3,12,-1,-1,0.667,0.115277778,-0.265972222,1,0,0,5.2097,Diorite_rect,3,5.21,1,2,0,2,0,1,,,,,,,,,,,,,
5dad4c34b3446a0015e3de93,TCN,2024-06-21_13h46.01.408,LearnStrategy,2023.2.3,Win32,144.9275362,7,1,4,0.127777778,0.014583333,1,0,0,0.4219,rock_grid_rect_2,8,16,-1,-1,0.422,0.31875,-0.411111111,1,0,0,1.0387,Pumice_rect,8,1.039,1,3,0,3,0,1,,,,,,,,,,,,,
5dad4c34b3446a0015e3de93,TCN,2024-06-21_13h46.01.408,LearnStrategy,2023.2.3,Win32,144.9275362,7,1,5,0.086805556,-0.014583333,1,0,0,0.6672,rock_grid_rect_2,4,14,-1,-1,0.667,0.417361111,-0.247222222,1,0,0,2.2736,Gabbro_rect,4,2.274,1,4,0,4,0,1,,,,,,,,,,,,,
5dad4c34b3446a0015e3de93,TCN,2024-06-21_13h46.01.408,LearnStrategy,2023.2.3,Win32,144.9275362,7,1,6,0.066666667,0.001388889,1,0,0,0.391,rock_grid_rect_2,2,12,-1,-1,0.391,-0.360416667,-0.254861111,1,0,0,5.9017,Andesite_rect,1,5.902,0,5,0,5,0,1,,,,,,,,,,,,,
5dad4c34b3446a0015e3de93,TCN,2024-06-21_13h46.01.408,LearnStrategy,2023.2.3,Win32,144.9275362,7,1,7,-0.014583333,-0.024305556,1,0,0,0.6285,rock_grid_rect_2,5,05,-1,-1,0.629,-0.390277778,-0.413888889,1,0,0,1.3573,Obsidian_rect,5,1.357,1,6,0,6,0,1,,,,,,,,,,,,,
5dad4c34b3446a0015e3de93,TCN,2024-06-21_13h46.01.408,LearnStrategy,2023.2.3,Win32,144.9275362,7,1,8,-0.0375,-0.013194444,1,0,0,0.467,rock_grid_rect_2,1,06,-1,-1,0.467,-0.459027778,-0.263194444,1,0,0,3.5346,Andesite_rect,1,3.535,1,7,0,7,0,1,,,,,,,,,,,,,
5dad4c34b3446a0015e3de93,TCN,2024-06-21_13h46.01.408,LearnStrategy,2023.2.3,Win32,144.9275362,7,1,9,0.013888889,-0.018055556,1,0,0,0.3821,rock_grid_rect_2,3,06,-1,-1,0.382,0.149305556,-0.234027778,1,0,0,2.7392,Diorite_rect,3,2.739,1,8,0,8,0,1,,,,,,,,,,,,,
5dad4c34b3446a0015e3de93,TCN,2024-06-21_13h46.01.408,LearnStrategy,2023.2.3,Win32,144.9275362,7,1,10,0.063194444,-0.000694444,1,0,0,0.3961,rock_grid_rect_2,6,15,-1,-1,0.396,-0.108333333,-0.420833333,1,0,0,2.7501,Pegmatite_rect,6,2.75,1,9,0,9,0,1,,,,,,,,,,,,,
5dad4c34b3446a0015e3de93,TCN,2024-06-21_13h46.01.408,LearnStrategy,2023.2.3,Win32,144.9275362,7,1,11,0.061805556,-0.004861111,1,0,0,0.666,rock_grid_rect_2,6,05,-1,-1,0.666,-0.368055556,-0.420833333,1,0,0,1.3091,Obsidian_rect,5,1.309,0,10,0,10,0,1,,,,,,,,,,,,,
5dad4c34b3446a0015e3de93,TCN,2024-06-21_13h46.01.408,LearnStrategy,2023.2.3,Win32,144.9275362,7,1,12,-0.008333333,0.006944444,1,0,0,0.645,rock_grid_rect_2,7,05,-1,-1,0.645,0.154861111,-0.395833333,1,0,0,1.3215,Peridotite_rect,7,1.322,1,11,0,11,0,1,,,,,,,,,,,,,
5dad4c34b3446a0015e3de93,TCN,2024-06-21_13h46.01.408,LearnStrategy,2023.2.3,Win32,144.9275362,7,1,13,0.093055556,0.011111111,1,0,0,0.7692,rock_grid_rect_2,5,07,-1,-1,0.769,-0.404861111,-0.39375,1,0,0,0.8862,Obsidian_rect,5,0.886,1,12,0,12,0,1,,,,,,,,,,,,,
5dad4c34b3446a0015e3de93,TCN,2024-06-21_13h46.01.408,LearnStrategy,2023.2.3,Win32,144.9275362,7,1,14,0.097916667,0.009722222,1,0,0,0.5758,rock_grid_rect_2,1,10,-1,-1,0.576,-0.304166667,-0.236805556,1,0,0,2.7199,Andesite_rect,1,2.72,1,13,0,13,0,1,,,,,,,,,,,,,
5dad4c34b3446a0015e3de93,TCN,2024-06-21_13h46.01.408,LearnStrategy,2023.2.3,Win32,144.9275362,7,1,15,0.104166667,0.00625,1,0,0,0.5986,rock_grid_rect_2,2,10,-1,-1,0.599,-0.043055556,-0.249305556,1,0,0,3.3022,Basalt_rect,2,3.302,1,14,0,14,0,1,,,,,,,,,,,,,
5dad4c34b3446a0015e3de93,TCN,2024-06-21_13h46.01.408,LearnStrategy,2023.2.3,Win32,144.9275362,7,1,16,0.070833333,-0.007638889,1,0,0,0.3396,rock_grid_rect_2,8,03,-1,-1,0.34,0.4125,-0.384027778,1,0,0,0.9203,Pumice_rect,8,0.92,1,15,0,15,0,1,,,,,,,,,,,,,
5dad4c34b3446a0015e3de93,TCN,2024-06-21_13h46.01.408,LearnStrategy,2023.2.3,Win32,144.9275362,7,2,1,,,,,,,,6,09,,,,,,,,,,,7,13.43,0,,,,,,0.119444444,-0.403472222,1,0,0,13.4296,Peridotite_rect,0,0,0,0,1,
5dad4c34b3446a0015e3de93,TCN,2024-06-21_13h46.01.408,LearnStrategy,2023.2.3,Win32,144.9275362,7,2,2,,,,,,,,3,11,,,,,,,,,,,3,3.573,1,,,,,,0.166666667,-0.247916667,1,0,0,3.5727,Diorite_rect,1,0,1,0,1,
5dad4c34b3446a0015e3de93,TCN,2024-06-21_13h46.01.408,LearnStrategy,2023.2.3,Win32,144.9275362,7,2,3,,,,,,,,2,11,,,,,,,,,,,2,5.323,1,,,,,,-0.140972222,-0.248611111,1,0,0,5.3228,Basalt_rect,2,0,2,0,1,
5dad4c34b3446a0015e3de93,TCN,2024-06-21_13h46.01.408,LearnStrategy,2023.2.3,Win32,144.9275362,7,2,4,,,,,,,,4,01,,,,,,,,,,,3,10.638,0,,,,,,0.167361111,-0.234722222,1,0,0,10.638,Diorite_rect,3,0,3,0,1,
5dad4c34b3446a0015e3de93,TCN,2024-06-21_13h46.01.408,LearnStrategy,2023.2.3,Win32,144.9275362,7,2,5,,,,,,,,7,14,,,,,,,,,,,7,4.231,1,,,,,,0.121527778,-0.393055556,1,0,0,4.2312,Peridotite_rect,4,0,4,0,1,
5dad4c34b3446a0015e3de93,TCN,2024-06-21_13h46.01.408,LearnStrategy,2023.2.3,Win32,144.9275362,7,2,6,,,,,,,,1,09,,,,,,,,,,,1,4.719,1,,,,,,-0.415972222,-0.250694444,1,0,0,4.7193,Andesite_rect,5,0,5,0,1,
5dad4c34b3446a0015e3de93,TCN,2024-06-21_13h46.01.408,LearnStrategy,2023.2.3,Win32,144.9275362,7,2,7,,,,,,,,2,05,,,,,,,,,,,2,3.629,1,,,,,,-0.122916667,-0.253472222,1,0,0,3.6292,Basalt_rect,6,0,6,0,1,
5dad4c34b3446a0015e3de93,TCN,2024-06-21_13h46.01.408,LearnStrategy,2023.2.3,Win32,144.9275362,7,2,8,,,,,,,,3,14,,,,,,,,,,,3,5.629,1,,,,,,0.113888889,-0.254166667,1,0,0,5.6286,Diorite_rect,7,0,7,0,1,
5dad4c34b3446a0015e3de93,TCN,2024-06-21_13h46.01.408,LearnStrategy,2023.2.3,Win32,144.9275362,7,2,9,,,,,,,,8,02,,,,,,,,,,,8,1.135,1,,,,,,0.379166667,-0.400694444,1,0,0,1.1346,Pumice_rect,8,0,8,0,1,
5dad4c34b3446a0015e3de93,TCN,2024-06-21_13h46.01.408,LearnStrategy,2023.2.3,Win32,144.9275362,7,2,10,,,,,,,,5,09,,,,,,,,,,,5,0.897,1,,,,,,-0.426388889,-0.409027778,1,0,0,0.8972,Obsidian_rect,9,0,9,0,1,
5dad4c34b3446a0015e3de93,TCN,2024-06-21_13h46.01.408,LearnStrategy,2023.2.3,Win32,144.9275362,7,2,11,,,,,,,,4,05,,,,,,,,,,,4,15.611,1,,,,,,0.432638889,-0.248611111,1,0,0,15.6109,Gabbro_rect,10,0,10,0,1,
5dad4c34b3446a0015e3de93,TCN,2024-06-21_13h46.01.408,LearnStrategy,2023.2.3,Win32,144.9275362,7,2,12,,,,,,,,1,14,,,,,,,,,,,3,7.615,0,,,,,,0.084027778,-0.256944444,1,0,0,7.6149,Diorite_rect,11,0,11,0,1,
5dad4c34b3446a0015e3de93,TCN,2024-06-21_13h46.01.408,LearnStrategy,2023.2.3,Win32,144.9275362,7,2,13,,,,,,,,7,10,,,,,,,,,,,7,1.446,1,,,,,,0.147222222,-0.395138889,1,0,0,1.4461,Peridotite_rect,12,0,12,0,1,
5dad4c34b3446a0015e3de93,TCN,2024-06-21_13h46.01.408,LearnStrategy,2023.2.3,Win32,144.9275362,7,2,14,,,,,,,,5,14,,,,,,,,,,,5,1.358,1,,,,,,-0.456944444,-0.39375,1,0,0,1.3582,Obsidian_rect,13,0,13,0,1,
5dad4c34b3446a0015e3de93,TCN,2024-06-21_13h46.01.408,LearnStrategy,2023.2.3,Win32,144.9275362,7,2,15,,,,,,,,8,06,,,,,,,,,,,8,1.157,1,,,,,,0.382638889,-0.408333333,1,0,0,1.1571,Pumice_rect,14,0,14,0,1,
5dad4c34b3446a0015e3de93,TCN,2024-06-21_13h46.01.408,LearnStrategy,2023.2.3,Win32,144.9275362,7,2,16,,,,,,,,6,11,,,,,,,,,,,6,1.99,1,,,,,,-0.104861111,-0.407638889,1,0,0,1.99,Pegmatite_rect,15,0,15,0,1,
5dad4c34b3446a0015e3de93,TCN,2024-06-21_13h46.01.408,LearnStrategy,2023.2.3,Win32,144.9275362,8,1,1,0.027777778,-0.007638889,1,0,0,0.8887,rock_grid_rect_2,8,09,-1,-1,0.889,0.391666667,-0.395138889,1,0,0,0.9684,Pumice_rect,8,0.968,1,0,0,0,0,1,,,,,,,,,,,,,
5dad4c34b3446a0015e3de93,TCN,2024-06-21_13h46.01.408,LearnStrategy,2023.2.3,Win32,144.9275362,8,1,2,0.161805556,0.013194444,1,0,0,0.7001,rock_grid_rect_2,5,04,-1,-1,0.7,-0.331944444,-0.409722222,1,0,0,0.8861,Obsidian_rect,5,0.886,1,1,0,1,0,1,,,,,,,,,,,,,
5dad4c34b3446a0015e3de93,TCN,2024-06-21_13h46.01.408,LearnStrategy,2023.2.3,Win32,144.9275362,8,1,3,0.140972222,0.001388889,1,0,0,0.3811,rock_grid_rect_2,2,06,-1,-1,0.381,-0.178472222,-0.234722222,1,0,0,1.0676,Basalt_rect,2,1.068,1,2,0,2,0,1,,,,,,,,,,,,,
5dad4c34b3446a0015e3de93,TCN,2024-06-21_13h46.01.408,LearnStrategy,2023.2.3,Win32,144.9275362,8,1,4,0.066666667,0.020138889,1,0,0,0.3605,rock_grid_rect_2,3,02,-1,-1,0.36,0.16875,-0.244444444,1,0,0,2.6336,Diorite_rect,3,2.634,1,3,0,3,0,1,,,,,,,,,,,,,
5dad4c34b3446a0015e3de93,TCN,2024-06-21_13h46.01.408,LearnStrategy,2023.2.3,Win32,144.9275362,8,1,5,0.181944444,0.00625,1,0,0,0.4232,rock_grid_rect_2,5,02,-1,-1,0.423,-0.358333333,-0.401388889,1,0,0,0.8291,Obsidian_rect,5,0.829,1,4,0,4,0,1,,,,,,,,,,,,,
5dad4c34b3446a0015e3de93,TCN,2024-06-21_13h46.01.408,LearnStrategy,2023.2.3,Win32,144.9275362,8,1,6,0.103472222,-0.019444444,1,0,0,0.489,rock_grid_rect_2,3,13,-1,-1,0.489,0.133333333,-0.239583333,1,0,0,1.8795,Diorite_rect,3,1.88,1,5,0,5,0,1,,,,,,,,,,,,,
5dad4c34b3446a0015e3de93,TCN,2024-06-21_13h46.01.408,LearnStrategy,2023.2.3,Win32,144.9275362,8,1,7,0.075694444,-0.018055556,1,0,0,0.6312,rock_grid_rect_2,6,16,-1,-1,0.631,-0.092361111,-0.416666667,1,0,0,1.5087,Pegmatite_rect,6,1.509,1,6,0,6,0,1,,,,,,,,,,,,,
5dad4c34b3446a0015e3de93,TCN,2024-06-21_13h46.01.408,LearnStrategy,2023.2.3,Win32,144.9275362,8,1,8,0.088194444,0.020138889,1,0,0,0.7987,rock_grid_rect_2,2,04,-1,-1,0.799,-0.14375,-0.25625,1,0,0,1.1324,Basalt_rect,2,1.132,1,7,0,7,0,1,,,,,,,,,,,,,
5dad4c34b3446a0015e3de93,TCN,2024-06-21_13h46.01.408,LearnStrategy,2023.2.3,Win32,144.9275362,8,1,9,-0.011805556,-0.005555556,1,0,0,0.3179,rock_grid_rect_2,4,03,-1,-1,0.318,0.059027778,-0.259027778,1,0,0,1.2114,Diorite_rect,3,1.211,0,8,0,8,0,1,,,,,,,,,,,,,
5dad4c34b3446a0015e3de93,TCN,2024-06-21_13h46.01.408,LearnStrategy,2023.2.3,Win32,144.9275362,8,1,10,0.028472222,-0.016666667,1,0,0,0.9995,rock_grid_rect_2,8,05,-1,-1,0.999,0.377777778,-0.379861111,1,0,0,0.9627,Pumice_rect,8,0.963,1,9,0,9,0,1,,,,,,,,,,,,,
5dad4c34b3446a0015e3de93,TCN,2024-06-21_13h46.01.408,LearnStrategy,2023.2.3,Win32,144.9275362,8,1,11,0.124305556,0.005555556,1,0,0,0.5411,rock_grid_rect_2,7,08,-1,-1,0.541,0.070833333,-0.40625,1,0,0,1.2391,Peridotite_rect,7,1.239,1,10,0,10,0,1,,,,,,,,,,,,,
5dad4c34b3446a0015e3de93,TCN,2024-06-21_13h46.01.408,LearnStrategy,2023.2.3,Win32,144.9275362,8,1,12,0.114583333,-0.018055556,1,0,0,0.9988,rock_grid_rect_2,1,07,-1,-1,0.999,-0.318055556,-0.264583333,1,0,0,2.7236,Andesite_rect,1,2.724,1,11,0,11,0,1,,,,,,,,,,,,,
5dad4c34b3446a0015e3de93,TCN,2024-06-21_13h46.01.408,LearnStrategy,2023.2.3,Win32,144.9275362,8,1,13,0.094444444,-0.020833333,1,0,0,0.4015,rock_grid_rect_2,6,10,-1,-1,0.401,-0.129861111,-0.404166667,1,0,0,1.4345,Pegmatite_rect,6,1.435,1,12,0,12,0,1,,,,,,,,,,,,,
5dad4c34b3446a0015e3de93,TCN,2024-06-21_13h46.01.408,LearnStrategy,2023.2.3,Win32,144.9275362,8,1,14,-0.003472222,-0.018055556,1,0,0,1.0761,rock_grid_rect_2,7,06,-1,-1,1.076,0.122222222,-0.390277778,1,0,0,0.9589,Peridotite_rect,7,0.959,1,13,0,13,0,1,,,,,,,,,,,,,
5dad4c34b3446a0015e3de93,TCN,2024-06-21_13h46.01.408,LearnStrategy,2023.2.3,Win32,144.9275362,8,1,15,0.092361111,-0.008333333,1,0,0,0.3668,rock_grid_rect_2,4,11,-1,-1,0.367,0.382638889,-0.242361111,1,0,0,2.6575,Gabbro_rect,4,2.658,1,14,0,14,0,1,,,,,,,,,,,,,
5dad4c34b3446a0015e3de93,TCN,2024-06-21_13h46.01.408,LearnStrategy,2023.2.3,Win32,144.9275362,8,1,16,0.19375,-0.014583333,1,0,0,0.7428,rock_grid_rect_2,1,02,-1,-1,0.743,-0.341666667,-0.250694444,1,0,0,5.2836,Andesite_rect,1,5.284,1,15,0,15,0,1,,,,,,,,,,,,,
5dad4c34b3446a0015e3de93,TCN,2024-06-21_13h46.01.408,LearnStrategy,2023.2.3,Win32,144.9275362,8,2,1,,,,,,,,8,10,,,,,,,,,,,8,1.483,1,,,,,,0.356944444,-0.399305556,1,0,0,1.4833,Pumice_rect,0,0,0,0,1,
5dad4c34b3446a0015e3de93,TCN,2024-06-21_13h46.01.408,LearnStrategy,2023.2.3,Win32,144.9275362,8,2,2,,,,,,,,6,06,,,,,,,,,,,6,8.52,1,,,,,,-0.151388889,-0.406944444,1,0,0,8.5196,Pegmatite_rect,1,0,1,0,1,
5dad4c34b3446a0015e3de93,TCN,2024-06-21_13h46.01.408,LearnStrategy,2023.2.3,Win32,144.9275362,8,2,3,,,,,,,,8,15,,,,,,,,,,,8,7.774,1,,,,,,0.366666667,-0.400694444,1,0,0,7.7738,Pumice_rect,2,0,2,0,1,
5dad4c34b3446a0015e3de93,TCN,2024-06-21_13h46.01.408,LearnStrategy,2023.2.3,Win32,144.9275362,8,2,4,,,,,,,,4,12,,,,,,,,,,,4,3.295,1,,,,,,0.384027778,-0.247222222,1,0,0,3.2951,Gabbro_rect,3,0,3,0,1,
5dad4c34b3446a0015e3de93,TCN,2024-06-21_13h46.01.408,LearnStrategy,2023.2.3,Win32,144.9275362,8,2,5,,,,,,,,5,10,,,,,,,,,,,5,1.369,1,,,,,,-0.359027778,-0.402083333,1,0,0,1.3688,Obsidian_rect,4,0,4,0,1,
5dad4c34b3446a0015e3de93,TCN,2024-06-21_13h46.01.408,LearnStrategy,2023.2.3,Win32,144.9275362,8,2,6,,,,,,,,7,15,,,,,,,,,,,7,1.622,1,,,,,,0.15,-0.415972222,1,0,0,1.6219,Peridotite_rect,5,0,5,0,1,
5dad4c34b3446a0015e3de93,TCN,2024-06-21_13h46.01.408,LearnStrategy,2023.2.3,Win32,144.9275362,8,2,7,,,,,,,,2,16,,,,,,,,,,,2,9.505,1,,,,,,-0.143055556,-0.250694444,1,0,0,9.5053,Basalt_rect,6,0,6,0,1,
5dad4c34b3446a0015e3de93,TCN,2024-06-21_13h46.01.408,LearnStrategy,2023.2.3,Win32,144.9275362,8,2,8,,,,,,,,3,16,,,,,,,,,,,3,5.35,1,,,,,,0.131944444,-0.254166667,1,0,0,5.3498,Diorite_rect,7,0,7,0,1,
5dad4c34b3446a0015e3de93,TCN,2024-06-21_13h46.01.408,LearnStrategy,2023.2.3,Win32,144.9275362,8,2,9,,,,,,,,7,12,,,,,,,,,,,7,1.802,1,,,,,,0.095833333,-0.4,1,0,0,1.8023,Peridotite_rect,8,0,8,0,1,
5dad4c34b3446a0015e3de93,TCN,2024-06-21_13h46.01.408,LearnStrategy,2023.2.3,Win32,144.9275362,8,2,10,,,,,,,,6,12,,,,,,,,,,,3,22.778,0,,,,,,0.045138889,-0.25,1,0,0,22.778,Diorite_rect,9,0,9,0,1,
5dad4c34b3446a0015e3de93,TCN,2024-06-21_13h46.01.408,LearnStrategy,2023.2.3,Win32,144.9275362,8,2,11,,,,,,,,1,05,,,,,,,,,,,1,2.962,1,,,,,,-0.454166667,-0.252083333,1,0,0,2.9621,Andesite_rect,10,0,10,0,1,
5dad4c34b3446a0015e3de93,TCN,2024-06-21_13h46.01.408,LearnStrategy,2023.2.3,Win32,144.9275362,8,2,12,,,,,,,,2,01,,,,,,,,,,,2,1.383,1,,,,,,-0.141666667,-0.259722222,1,0,0,1.3835,Basalt_rect,11,0,11,0,1,
5dad4c34b3446a0015e3de93,TCN,2024-06-21_13h46.01.408,LearnStrategy,2023.2.3,Win32,144.9275362,8,2,13,,,,,,,,1,01,,,,,,,,,,,1,8.561,1,,,,,,-0.375,-0.245833333,1,0,0,8.5609,Andesite_rect,12,0,12,0,1,
5dad4c34b3446a0015e3de93,TCN,2024-06-21_13h46.01.408,LearnStrategy,2023.2.3,Win32,144.9275362,8,2,14,,,,,,,,4,08,,,,,,,,,,,4,3.755,1,,,,,,0.409722222,-0.252777778,1,0,0,3.7546,Gabbro_rect,13,0,13,0,1,
5dad4c34b3446a0015e3de93,TCN,2024-06-21_13h46.01.408,LearnStrategy,2023.2.3,Win32,144.9275362,8,2,15,,,,,,,,5,11,,,,,,,,,,,5,0.832,1,,,,,,-0.371527778,-0.383333333,1,0,0,0.8321,Obsidian_rect,14,0,14,0,1,
5dad4c34b3446a0015e3de93,TCN,2024-06-21_13h46.01.408,LearnStrategy,2023.2.3,Win32,144.9275362,8,2,16,,,,,,,,3,08,,,,,,,,,,,3,11.262,1,,,,,,0.157638889,-0.239583333,1,0,0,11.2623,Diorite_rect,15,0,15,0,1,
5dad4c34b3446a0015e3de93,TCN,2024-06-21_13h46.01.408,LearnStrategy,2023.2.3,Win32,144.9275362,9,1,1,0.054861111,0.003472222,1,0,0,0.7421,rock_grid_rect_2,4,13,-1,-1,0.742,0.352083333,-0.247916667,1,0,0,2.811,Gabbro_rect,4,2.811,1,0,0,0,0,1,,,,,,,,,,,,,
5dad4c34b3446a0015e3de93,TCN,2024-06-21_13h46.01.408,LearnStrategy,2023.2.3,Win32,144.9275362,9,1,2,0.0875,-0.010416667,1,0,0,0.6379,rock_grid_rect_2,8,13,-1,-1,0.638,0.379861111,-0.4,1,0,0,0.9403,Pumice_rect,8,0.94,1,1,0,1,0,1,,,,,,,,,,,,,
5dad4c34b3446a0015e3de93,TCN,2024-06-21_13h46.01.408,LearnStrategy,2023.2.3,Win32,144.9275362,9,1,3,0.136805556,-0.004861111,1,0,0,0.624,rock_grid_rect_2,1,16,-1,-1,0.624,-0.356944444,-0.249305556,1,0,0,3.1912,Andesite_rect,1,3.191,1,2,0,2,0,1,,,,,,,,,,,,,
5dad4c34b3446a0015e3de93,TCN,2024-06-21_13h46.01.408,LearnStrategy,2023.2.3,Win32,144.9275362,9,1,4,0.078472222,-0.014583333,1,0,0,0.673,rock_grid_rect_2,6,08,-1,-1,0.673,-0.09375,-0.420833333,1,0,0,2.97,Pegmatite_rect,6,2.97,1,3,0,3,0,1,,,,,,,,,,,,,
5dad4c34b3446a0015e3de93,TCN,2024-06-21_13h46.01.408,LearnStrategy,2023.2.3,Win32,144.9275362,9,1,5,0.002083333,-0.008333333,1,0,0,0.5479,rock_grid_rect_2,6,03,-1,-1,0.548,0.105555556,-0.416666667,1,0,0,1.0303,Peridotite_rect,7,1.03,0,4,0,4,0,1,,,,,,,,,,,,,
5dad4c34b3446a0015e3de93,TCN,2024-06-21_13h46.01.408,LearnStrategy,2023.2.3,Win32,144.9275362,9,1,6,0.040277778,-0.010416667,1,0,0,0.5966,rock_grid_rect_2,2,14,-1,-1,0.597,0.348611111,-0.399305556,1,0,0,4.6989,Pumice_rect,8,4.699,0,5,0,5,0,1,,,,,,,,,,,,,
5dad4c34b3446a0015e3de93,TCN,2024-06-21_13h46.01.408,LearnStrategy,2023.2.3,Win32,144.9275362,9,1,7,0.036805556,0.002083333,1,0,0,0.4721,rock_grid_rect_2,5,12,-1,-1,0.472,-0.363194444,-0.414583333,1,0,0,1.3524,Obsidian_rect,5,1.352,1,6,0,6,0,1,,,,,,,,,,,,,
5dad4c34b3446a0015e3de93,TCN,2024-06-21_13h46.01.408,LearnStrategy,2023.2.3,Win32,144.9275362,9,1,8,-0.004166667,-0.010416667,1,0,0,0.6591,rock_grid_rect_2,5,08,-1,-1,0.659,-0.380555556,-0.390972222,1,0,0,0.8447,Obsidian_rect,5,0.845,1,7,0,7,0,1,,,,,,,,,,,,,
5dad4c34b3446a0015e3de93,TCN,2024-06-21_13h46.01.408,LearnStrategy,2023.2.3,Win32,144.9275362,9,1,9,-0.052777778,-0.017361111,1,0,0,0.4851,rock_grid_rect_2,2,08,-1,-1,0.485,-0.161805556,-0.255555556,1,0,0,1.0068,Basalt_rect,2,1.007,1,8,0,8,0,1,,,,,,,,,,,,,
5dad4c34b3446a0015e3de93,TCN,2024-06-21_13h46.01.408,LearnStrategy,2023.2.3,Win32,144.9275362,9,1,10,-0.049305556,-0.014583333,1,0,0,0.3815,rock_grid_rect_2,7,13,-1,-1,0.381,0.1125,-0.399305556,1,0,0,3.0719,Peridotite_rect,7,3.072,1,9,0,9,0,1,,,,,,,,,,,,,
5dad4c34b3446a0015e3de93,TCN,2024-06-21_13h46.01.408,LearnStrategy,2023.2.3,Win32,144.9275362,9,1,11,0.052777778,0.009722222,1,0,0,0.5614,rock_grid_rect_2,1,11,-1,-1,0.561,-0.347916667,-0.239583333,1,0,0,2.7383,Andesite_rect,1,2.738,1,10,0,10,0,1,,,,,,,,,,,,,
5dad4c34b3446a0015e3de93,TCN,2024-06-21_13h46.01.408,LearnStrategy,2023.2.3,Win32,144.9275362,9,1,12,0.009027778,-0.016666667,1,0,0,0.5239,rock_grid_rect_2,3,10,-1,-1,0.524,0.0375,-0.245138889,1,0,0,2.0717,Diorite_rect,3,2.072,1,11,0,11,0,1,,,,,,,,,,,,,
5dad4c34b3446a0015e3de93,TCN,2024-06-21_13h46.01.408,LearnStrategy,2023.2.3,Win32,144.9275362,9,1,13,0.052083333,-0.008333333,1,0,0,0.4993,rock_grid_rect_2,3,07,-1,-1,0.499,0.084027778,-0.250694444,1,0,0,5.5525,Diorite_rect,3,5.552,1,12,0,12,0,1,,,,,,,,,,,,,
5dad4c34b3446a0015e3de93,TCN,2024-06-21_13h46.01.408,LearnStrategy,2023.2.3,Win32,144.9275362,9,1,14,0.054166667,-0.0125,1,0,0,0.3743,rock_grid_rect_2,7,02,-1,-1,0.374,0.097916667,-0.39375,1,0,0,1.0526,Peridotite_rect,7,1.053,1,13,0,13,0,1,,,,,,,,,,,,,
5dad4c34b3446a0015e3de93,TCN,2024-06-21_13h46.01.408,LearnStrategy,2023.2.3,Win32,144.9275362,9,1,15,0.040277778,-0.010416667,1,0,0,0.3688,rock_grid_rect_2,4,10,-1,-1,0.369,0.40625,-0.240277778,1,0,0,3.7962,Gabbro_rect,4,3.796,1,14,0,14,0,1,,,,,,,,,,,,,
5dad4c34b3446a0015e3de93,TCN,2024-06-21_13h46.01.408,LearnStrategy,2023.2.3,Win32,144.9275362,9,1,16,0.089583333,-0.022916667,1,0,0,0.4786,rock_grid_rect_2,8,08,-1,-1,0.479,0.365277778,-0.403472222,1,0,0,0.8855,Pumice_rect,8,0.886,1,15,0,15,0,1,,,,,,,,,,,,,
5dad4c34b3446a0015e3de93,TCN,2024-06-21_13h46.01.408,LearnStrategy,2023.2.3,Win32,144.9275362,9,2,1,,,,,,,,3,15,,,,,,,,,,,3,3.463,1,,,,,,0.127777778,-0.250694444,1,0,0,3.4627,Diorite_rect,0,0,0,0,1,
5dad4c34b3446a0015e3de93,TCN,2024-06-21_13h46.01.408,LearnStrategy,2023.2.3,Win32,144.9275362,9,2,2,,,,,,,,5,06,,,,,,,,,,,5,1.253,1,,,,,,-0.4125,-0.402777778,1,0,0,1.2532,Obsidian_rect,1,0,1,0,1,
5dad4c34b3446a0015e3de93,TCN,2024-06-21_13h46.01.408,LearnStrategy,2023.2.3,Win32,144.9275362,9,2,3,,,,,,,,6,13,,,,,,,,,,,6,4.177,1,,,,,,-0.092361111,-0.397222222,1,0,0,4.1771,Pegmatite_rect,2,0,2,0,1,
5dad4c34b3446a0015e3de93,TCN,2024-06-21_13h46.01.408,LearnStrategy,2023.2.3,Win32,144.9275362,9,2,4,,,,,,,,1,04,,,,,,,,,,,1,3.859,1,,,,,,-0.393055556,-0.249305556,1,0,0,3.8585,Andesite_rect,3,0,3,0,1,
5dad4c34b3446a0015e3de93,TCN,2024-06-21_13h46.01.408,LearnStrategy,2023.2.3,Win32,144.9275362,9,2,5,,,,,,,,8,14,,,,,,,,,,,8,0.908,1,,,,,,0.359027778,-0.410416667,1,0,0,0.9084,Pumice_rect,4,0,4,0,1,
5dad4c34b3446a0015e3de93,TCN,2024-06-21_13h46.01.408,LearnStrategy,2023.2.3,Win32,144.9275362,9,2,6,,,,,,,,2,02,,,,,,,,,,,4,4.942,0,,,,,,0.373611111,-0.259722222,1,0,0,4.9424,Gabbro_rect,5,0,5,0,1,
5dad4c34b3446a0015e3de93,TCN,2024-06-21_13h46.01.408,LearnStrategy,2023.2.3,Win32,144.9275362,9,2,7,,,,,,,,7,04,,,,,,,,,,,3,8.101,0,,,,,,0.082638889,-0.261111111,1,0,0,8.1013,Diorite_rect,6,0,6,0,1,
5dad4c34b3446a0015e3de93,TCN,2024-06-21_13h46.01.408,LearnStrategy,2023.2.3,Win32,144.9275362,9,2,8,,,,,,,,6,07,,,,,,,,,,,6,1.761,1,,,,,,-0.186111111,-0.398611111,1,0,0,1.7613,Pegmatite_rect,7,0,7,0,1,
5dad4c34b3446a0015e3de93,TCN,2024-06-21_13h46.01.408,LearnStrategy,2023.2.3,Win32,144.9275362,9,2,9,,,,,,,,7,07,,,,,,,,,,,7,1.42,1,,,,,,0.167361111,-0.402083333,1,0,0,1.4202,Peridotite_rect,8,0,8,0,1,
5dad4c34b3446a0015e3de93,TCN,2024-06-21_13h46.01.408,LearnStrategy,2023.2.3,Win32,144.9275362,9,2,10,,,,,,,,4,09,,,,,,,,,,,4,3.817,1,,,,,,0.371527778,-0.256944444,1,0,0,3.817,Gabbro_rect,9,0,9,0,1,
5dad4c34b3446a0015e3de93,TCN,2024-06-21_13h46.01.408,LearnStrategy,2023.2.3,Win32,144.9275362,9,2,11,,,,,,,,3,09,,,,,,,,,,,3,2.052,1,,,,,,0.165972222,-0.23125,1,0,0,2.0516,Diorite_rect,10,0,10,0,1,
5dad4c34b3446a0015e3de93,TCN,2024-06-21_13h46.01.408,LearnStrategy,2023.2.3,Win32,144.9275362,9,2,12,,,,,,,,1,03,,,,,,,,,,,1,5.863,1,,,,,,-0.384027778,-0.243055556,1,0,0,5.863,Andesite_rect,11,0,11,0,1,
5dad4c34b3446a0015e3de93,TCN,2024-06-21_13h46.01.408,LearnStrategy,2023.2.3,Win32,144.9275362,9,2,13,,,,,,,,5,16,,,,,,,,,,,5,1.264,1,,,,,,-0.369444444,-0.413194444,1,0,0,1.2641,Obsidian_rect,12,0,12,0,1,
5dad4c34b3446a0015e3de93,TCN,2024-06-21_13h46.01.408,LearnStrategy,2023.2.3,Win32,144.9275362,9,2,14,,,,,,,,4,15,,,,,,,,,,,3,3.411,0,,,,,,0.077083333,-0.243055556,1,0,0,3.4108,Diorite_rect,13,0,13,0,1,
5dad4c34b3446a0015e3de93,TCN,2024-06-21_13h46.01.408,LearnStrategy,2023.2.3,Win32,144.9275362,9,2,15,,,,,,,,2,09,,,,,,,,,,,2,6.644,1,,,,,,-0.176388889,-0.270833333,1,0,0,6.6437,Basalt_rect,14,0,14,0,1,
5dad4c34b3446a0015e3de93,TCN,2024-06-21_13h46.01.408,LearnStrategy,2023.2.3,Win32,144.9275362,9,2,16,,,,,,,,8,04,,,,,,,,,,,8,1.052,1,,,,,,0.459027778,-0.386111111,1,0,0,1.052,Pumice_rect,15,0,15,0,1,
5dad4c34b3446a0015e3de93,TCN,2024-06-21_13h46.01.408,LearnStrategy,2023.2.3,Win32,144.9275362,,,,,,,,,,,,,,,,,,,,,,,,,,,,,,,,,,,,,,,,,,,1
5dad4c34b3446a0015e3de93,TCN,2024-06-21_13h46.01.408,LearnStrategy,2023.2.3,Win32,144.9275362,,,,,,,,,,,,,,,,,,,,,,,,,,,,,,,,,,,,,,,,,,,
5dad4c34b3446a0015e3de93,TCN,2024-06-21_13h46.01.408,LearnStrategy,2023.2.3,Win32,144.9275362,,,,,,,,,,,4,16,1,1,,,,,,,,,,,,,,,,,,,,,,,,,,,,,
5dad4c34b3446a0015e3de93,TCN,2024-06-21_13h46.01.408,LearnStrategy,2023.2.3,Win32,144.9275362,,,,,,,,,,,6,10,1,2,,,,,,,,,,,,,,,,,,,,,,,,,,,,,
5dad4c34b3446a0015e3de93,TCN,2024-06-21_13h46.01.408,LearnStrategy,2023.2.3,Win32,144.9275362,,,,,,,,,,,4,14,1,3,,,,,,,,,,,,,,,,,,,,,,,,,,,,,
5dad4c34b3446a0015e3de93,TCN,2024-06-21_13h46.01.408,LearnStrategy,2023.2.3,Win32,144.9275362,,,,,,,,,,,5,05,1,4,,,,,,,,,,,,,,,,,,,,,,,,,,,,,
5dad4c34b3446a0015e3de93,TCN,2024-06-21_13h46.01.408,LearnStrategy,2023.2.3,Win32,144.9275362,,,,,,,,,,,3,12,1,5,,,,,,,,,,,,,,,,,,,,,,,,,,,,,
5dad4c34b3446a0015e3de93,TCN,2024-06-21_13h46.01.408,LearnStrategy,2023.2.3,Win32,144.9275362,,,,,,,,,,,1,11,1,6,,,,,,,,,,,,,,,,,,,,,,,,,,,,,
5dad4c34b3446a0015e3de93,TCN,2024-06-21_13h46.01.408,LearnStrategy,2023.2.3,Win32,144.9275362,,,,,,,,,,,8,05,1,7,,,,,,,,,,,,,,,,,,,,,,,,,,,,,
5dad4c34b3446a0015e3de93,TCN,2024-06-21_13h46.01.408,LearnStrategy,2023.2.3,Win32,144.9275362,,,,,,,,,,,2,06,1,8,,,,,,,,,,,,,,,,,,,,,,,,,,,,,
5dad4c34b3446a0015e3de93,TCN,2024-06-21_13h46.01.408,LearnStrategy,2023.2.3,Win32,144.9275362,,,,,,,,,,,6,03,2,1,,,,,,,,,,,,,,,,,,,,,,,,,,,,,
5dad4c34b3446a0015e3de93,TCN,2024-06-21_13h46.01.408,LearnStrategy,2023.2.3,Win32,144.9275362,,,,,,,,,,,3,07,2,2,,,,,,,,,,,,,,,,,,,,,,,,,,,,,
5dad4c34b3446a0015e3de93,TCN,2024-06-21_13h46.01.408,LearnStrategy,2023.2.3,Win32,144.9275362,,,,,,,,,,,2,12,2,3,,,,,,,,,,,,,,,,,,,,,,,,,,,,,
5dad4c34b3446a0015e3de93,TCN,2024-06-21_13h46.01.408,LearnStrategy,2023.2.3,Win32,144.9275362,,,,,,,,,,,8,08,2,4,,,,,,,,,,,,,,,,,,,,,,,,,,,,,
5dad4c34b3446a0015e3de93,TCN,2024-06-21_13h46.01.408,LearnStrategy,2023.2.3,Win32,144.9275362,,,,,,,,,,,7,13,2,5,,,,,,,,,,,,,,,,,,,,,,,,,,,,,
5dad4c34b3446a0015e3de93,TCN,2024-06-21_13h46.01.408,LearnStrategy,2023.2.3,Win32,144.9275362,,,,,,,,,,,7,16,2,6,,,,,,,,,,,,,,,,,,,,,,,,,,,,,
5dad4c34b3446a0015e3de93,TCN,2024-06-21_13h46.01.408,LearnStrategy,2023.2.3,Win32,144.9275362,,,,,,,,,,,5,12,2,7,,,,,,,,,,,,,,,,,,,,,,,,,,,,,
5dad4c34b3446a0015e3de93,TCN,2024-06-21_13h46.01.408,LearnStrategy,2023.2.3,Win32,144.9275362,,,,,,,,,,,3,10,2,8,,,,,,,,,,,,,,,,,,,,,,,,,,,,,
5dad4c34b3446a0015e3de93,TCN,2024-06-21_13h46.01.408,LearnStrategy,2023.2.3,Win32,144.9275362,,,,,,,,,,,2,14,3,1,,,,,,,,,,,,,,,,,,,,,,,,,,,,,
5dad4c34b3446a0015e3de93,TCN,2024-06-21_13h46.01.408,LearnStrategy,2023.2.3,Win32,144.9275362,,,,,,,,,,,3,06,3,2,,,,,,,,,,,,,,,,,,,,,,,,,,,,,
5dad4c34b3446a0015e3de93,TCN,2024-06-21_13h46.01.408,LearnStrategy,2023.2.3,Win32,144.9275362,,,,,,,,,,,1,07,3,3,,,,,,,,,,,,,,,,,,,,,,,,,,,,,
5dad4c34b3446a0015e3de93,TCN,2024-06-21_13h46.01.408,LearnStrategy,2023.2.3,Win32,144.9275362,,,,,,,,,,,1,02,3,4,,,,,,,,,,,,,,,,,,,,,,,,,,,,,
5dad4c34b3446a0015e3de93,TCN,2024-06-21_13h46.01.408,LearnStrategy,2023.2.3,Win32,144.9275362,,,,,,,,,,,3,02,3,5,,,,,,,,,,,,,,,,,,,,,,,,,,,,,
5dad4c34b3446a0015e3de93,TCN,2024-06-21_13h46.01.408,LearnStrategy,2023.2.3,Win32,144.9275362,,,,,,,,,,,7,06,3,6,,,,,,,,,,,,,,,,,,,,,,,,,,,,,
5dad4c34b3446a0015e3de93,TCN,2024-06-21_13h46.01.408,LearnStrategy,2023.2.3,Win32,144.9275362,,,,,,,,,,,2,04,3,7,,,,,,,,,,,,,,,,,,,,,,,,,,,,,
5dad4c34b3446a0015e3de93,TCN,2024-06-21_13h46.01.408,LearnStrategy,2023.2.3,Win32,144.9275362,,,,,,,,,,,8,09,3,8,,,,,,,,,,,,,,,,,,,,,,,,,,,,,
5dad4c34b3446a0015e3de93,TCN,2024-06-21_13h46.01.408,LearnStrategy,2023.2.3,Win32,144.9275362,,,,,,,,,,,2,08,4,1,,,,,,,,,,,,,,,,,,,,,,,,,,,,,
5dad4c34b3446a0015e3de93,TCN,2024-06-21_13h46.01.408,LearnStrategy,2023.2.3,Win32,144.9275362,,,,,,,,,,,4,10,4,2,,,,,,,,,,,,,,,,,,,,,,,,,,,,,
5dad4c34b3446a0015e3de93,TCN,2024-06-21_13h46.01.408,LearnStrategy,2023.2.3,Win32,144.9275362,,,,,,,,,,,5,08,4,3,,,,,,,,,,,,,,,,,,,,,,,,,,,,,
5dad4c34b3446a0015e3de93,TCN,2024-06-21_13h46.01.408,LearnStrategy,2023.2.3,Win32,144.9275362,,,,,,,,,,,8,13,4,4,,,,,,,,,,,,,,,,,,,,,,,,,,,,,
5dad4c34b3446a0015e3de93,TCN,2024-06-21_13h46.01.408,LearnStrategy,2023.2.3,Win32,144.9275362,,,,,,,,,,,5,02,4,5,,,,,,,,,,,,,,,,,,,,,,,,,,,,,
5dad4c34b3446a0015e3de93,TCN,2024-06-21_13h46.01.408,LearnStrategy,2023.2.3,Win32,144.9275362,,,,,,,,,,,6,15,4,6,,,,,,,,,,,,,,,,,,,,,,,,,,,,,
5dad4c34b3446a0015e3de93,TCN,2024-06-21_13h46.01.408,LearnStrategy,2023.2.3,Win32,144.9275362,,,,,,,,,,,8,16,4,7,,,,,,,,,,,,,,,,,,,,,,,,,,,,,
5dad4c34b3446a0015e3de93,TCN,2024-06-21_13h46.01.408,LearnStrategy,2023.2.3,Win32,144.9275362,,,,,,,,,,,1,06,4,8,,,,,,,,,,,,,,,,,,,,,,,,,,,,,
5dad4c34b3446a0015e3de93,TCN,2024-06-21_13h46.01.408,LearnStrategy,2023.2.3,Win32,144.9275362,,,,,,,,,,,4,13,5,1,,,,,,,,,,,,,,,,,,,,,,,,,,,,,
5dad4c34b3446a0015e3de93,TCN,2024-06-21_13h46.01.408,LearnStrategy,2023.2.3,Win32,144.9275362,,,,,,,,,,,8,03,5,2,,,,,,,,,,,,,,,,,,,,,,,,,,,,,
5dad4c34b3446a0015e3de93,TCN,2024-06-21_13h46.01.408,LearnStrategy,2023.2.3,Win32,144.9275362,,,,,,,,,,,5,04,5,3,,,,,,,,,,,,,,,,,,,,,,,,,,,,,
5dad4c34b3446a0015e3de93,TCN,2024-06-21_13h46.01.408,LearnStrategy,2023.2.3,Win32,144.9275362,,,,,,,,,,,6,16,5,4,,,,,,,,,,,,,,,,,,,,,,,,,,,,,
5dad4c34b3446a0015e3de93,TCN,2024-06-21_13h46.01.408,LearnStrategy,2023.2.3,Win32,144.9275362,,,,,,,,,,,7,02,5,5,,,,,,,,,,,,,,,,,,,,,,,,,,,,,
5dad4c34b3446a0015e3de93,TCN,2024-06-21_13h46.01.408,LearnStrategy,2023.2.3,Win32,144.9275362,,,,,,,,,,,4,03,5,6,,,,,,,,,,,,,,,,,,,,,,,,,,,,,
5dad4c34b3446a0015e3de93,TCN,2024-06-21_13h46.01.408,LearnStrategy,2023.2.3,Win32,144.9275362,,,,,,,,,,,4,11,5,7,,,,,,,,,,,,,,,,,,,,,,,,,,,,,
5dad4c34b3446a0015e3de93,TCN,2024-06-21_13h46.01.408,LearnStrategy,2023.2.3,Win32,144.9275362,,,,,,,,,,,6,08,5,8,,,,,,,,,,,,,,,,,,,,,,,,,,,,,
5dad4c34b3446a0015e3de93,TCN,2024-06-21_13h46.01.408,LearnStrategy,2023.2.3,Win32,144.9275362,,,,,,,,,,,3,13,6,1,,,,,,,,,,,,,,,,,,,,,,,,,,,,,
5dad4c34b3446a0015e3de93,TCN,2024-06-21_13h46.01.408,LearnStrategy,2023.2.3,Win32,144.9275362,,,,,,,,,,,1,16,6,2,,,,,,,,,,,,,,,,,,,,,,,,,,,,,
5dad4c34b3446a0015e3de93,TCN,2024-06-21_13h46.01.408,LearnStrategy,2023.2.3,Win32,144.9275362,,,,,,,,,,,7,08,6,3,,,,,,,,,,,,,,,,,,,,,,,,,,,,,
5dad4c34b3446a0015e3de93,TCN,2024-06-21_13h46.01.408,LearnStrategy,2023.2.3,Win32,144.9275362,,,,,,,,,,,6,05,6,4,,,,,,,,,,,,,,,,,,,,,,,,,,,,,
5dad4c34b3446a0015e3de93,TCN,2024-06-21_13h46.01.408,LearnStrategy,2023.2.3,Win32,144.9275362,,,,,,,,,,,1,10,6,5,,,,,,,,,,,,,,,,,,,,,,,,,,,,,
5dad4c34b3446a0015e3de93,TCN,2024-06-21_13h46.01.408,LearnStrategy,2023.2.3,Win32,144.9275362,,,,,,,,,,,2,10,6,6,,,,,,,,,,,,,,,,,,,,,,,,,,,,,
5dad4c34b3446a0015e3de93,TCN,2024-06-21_13h46.01.408,LearnStrategy,2023.2.3,Win32,144.9275362,,,,,,,,,,,5,07,6,7,,,,,,,,,,,,,,,,,,,,,,,,,,,,,
5dad4c34b3446a0015e3de93,TCN,2024-06-21_13h46.01.408,LearnStrategy,2023.2.3,Win32,144.9275362,,,,,,,,,,,7,05,6,8,,,,,,,,,,,,,,,,,,,,,,,,,,,,,