participant,condition,date,expName,psychopyVersion,OS,frameRate,block,phase,trial,learn_mouse.x,learn_mouse.y,learn_mouse.leftButton,learn_mouse.midButton,learn_mouse.rightButton,learn_mouse.time,learn_mouse.clicked_name,cat,token,row,col,t_select,cat_mouse_l.x,cat_mouse_l.y,cat_mouse_l.leftButton,cat_mouse_l.midButton,cat_mouse_l.rightButton,cat_mouse_l.time,cat_mouse_l.clicked_name,resp,t_resp,corr,train_trials.thisRepN,train_trials.thisTrialN,train_trials.thisN,train_trials.thisIndex,train_trials.ran,cat_mouse_t.x,cat_mouse_t.y,cat_mouse_t.leftButton,cat_mouse_t.midButton,cat_mouse_t.rightButton,cat_mouse_t.time,cat_mouse_t.clicked_name,test_trials.thisRepN,test_trials.thisTrialN,test_trials.thisN,test_trials.thisIndex,test_trials.ran,Bonus
5dcc3ec7db13278d75c8622f,SCN,2024-06-21_10h46.08.147,LearnStrategy,2023.2.3,Win32,60.24096386,,,,,,,,,,,,,,,,,,,,,,,,,,,,,,,,,,,,,,,,,,,
5dcc3ec7db13278d75c8622f,SCN,2024-06-21_10h46.08.147,LearnStrategy,2023.2.3,Win32,60.24096386,1,1,1,-0.251851852,0.407407407,1,0,0,3.5815,Obsidian_08,5,08,6,3,3.582,-0.361111111,-0.246296296,1,0,0,3.8225,Andesite_rect,1,3.823,0,0,0,0,0,1,,,,,,,,,,,,,
5dcc3ec7db13278d75c8622f,SCN,2024-06-21_10h46.08.147,LearnStrategy,2023.2.3,Win32,60.24096386,1,1,2,0.050925926,-0.399074074,1,0,0,2.166,Obsidian_16,5,16,1,5,2.166,-0.42962963,-0.418518519,1,0,0,5.7927,Obsidian_rect,5,5.793,1,1,0,1,0,1,,,,,,,,,,,,,
5dcc3ec7db13278d75c8622f,SCN,2024-06-21_10h46.08.147,LearnStrategy,2023.2.3,Win32,60.24096386,1,1,3,0.432407407,0.253703704,1,0,0,3.0645,Obsidian_09,5,09,5,7,3.064,-0.368518519,-0.415740741,1,0,0,1.637,Obsidian_rect,5,1.637,1,2,0,2,0,1,,,,,,,,,,,,,
5dcc3ec7db13278d75c8622f,SCN,2024-06-21_10h46.08.147,LearnStrategy,2023.2.3,Win32,60.24096386,1,1,4,-0.413888889,0.233333333,1,0,0,3.1326,Obsidian_12,5,12,5,2,3.133,-0.35462963,-0.390740741,1,0,0,1.5702,Obsidian_rect,5,1.57,1,3,0,3,0,1,,,,,,,,,,,,,
5dcc3ec7db13278d75c8622f,SCN,2024-06-21_10h46.08.147,LearnStrategy,2023.2.3,Win32,60.24096386,1,1,5,-0.216666667,-0.110185185,1,0,0,6.4855,Pumice_05,8,05,3,3,6.486,0.337037037,-0.412037037,1,0,0,1.1313,Pumice_rect,8,1.131,1,4,0,4,0,1,,,,,,,,,,,,,
5dcc3ec7db13278d75c8622f,SCN,2024-06-21_10h46.08.147,LearnStrategy,2023.2.3,Win32,60.24096386,1,1,6,-0.562962963,-0.271296296,1,0,0,2.8327,Pumice_15,8,15,2,1,2.833,0.327777778,-0.411111111,1,0,0,2.4377,Pumice_rect,8,2.438,1,5,0,5,0,1,,,,,,,,,,,,,
5dcc3ec7db13278d75c8622f,SCN,2024-06-21_10h46.08.147,LearnStrategy,2023.2.3,Win32,60.24096386,1,1,7,0.210185185,-0.440740741,1,0,0,4.3312,Peridotite_14,7,14,1,6,4.331,0.448148148,-0.410185185,1,0,0,0.9212,Pumice_rect,8,0.921,0,6,0,6,0,1,,,,,,,,,,,,,
5dcc3ec7db13278d75c8622f,SCN,2024-06-21_10h46.08.147,LearnStrategy,2023.2.3,Win32,60.24096386,1,1,8,-0.383333333,-0.271296296,1,0,0,2.5989,Diorite_11,3,11,2,2,2.599,-0.106481481,-0.252777778,1,0,0,1.9942,Basalt_rect,2,1.994,0,7,0,7,0,1,,,,,,,,,,,,,
5dcc3ec7db13278d75c8622f,SCN,2024-06-21_10h46.08.147,LearnStrategy,2023.2.3,Win32,60.24096386,1,1,9,0.108333333,0.067592593,1,0,0,3.4488,Diorite_10,3,10,4,5,3.449,0.121296296,-0.264814815,1,0,0,2.6542,Diorite_rect,3,2.654,1,8,0,8,0,1,,,,,,,,,,,,,
5dcc3ec7db13278d75c8622f,SCN,2024-06-21_10h46.08.147,LearnStrategy,2023.2.3,Win32,60.24096386,1,1,10,-0.390740741,0.424074074,1,0,0,6.588,Diorite_12,3,12,6,2,6.588,0.138888889,-0.22962963,1,0,0,0.9309,Diorite_rect,3,0.931,1,9,0,9,0,1,,,,,,,,,,,,,
5dcc3ec7db13278d75c8622f,SCN,2024-06-21_10h46.08.147,LearnStrategy,2023.2.3,Win32,60.24096386,1,1,11,0.085185185,0.074074074,1,0,0,46.2176,Diorite_10,3,10,4,5,46.218,0.068518519,-0.237962963,1,0,0,1.0604,Diorite_rect,3,1.06,1,10,0,10,0,1,,,,,,,,,,,,,
5dcc3ec7db13278d75c8622f,SCN,2024-06-21_10h46.08.147,LearnStrategy,2023.2.3,Win32,60.24096386,1,1,12,-0.566666667,-0.419444444,1,0,0,11.7151,Pumice_08,8,08,1,1,11.715,-0.411111111,-0.243518519,1,0,0,1.8712,Andesite_rect,1,1.871,0,11,0,11,0,1,,,,,,,,,,,,,
5dcc3ec7db13278d75c8622f,SCN,2024-06-21_10h46.08.147,LearnStrategy,2023.2.3,Win32,60.24096386,1,1,13,0.381481481,0.081481481,1,0,0,6.2321,Obsidian_07,5,07,4,7,6.232,-0.423148148,-0.410185185,1,0,0,1.6907,Obsidian_rect,5,1.691,1,12,0,12,0,1,,,,,,,,,,,,,
5dcc3ec7db13278d75c8622f,SCN,2024-06-21_10h46.08.147,LearnStrategy,2023.2.3,Win32,60.24096386,1,1,14,-0.063888889,-0.096296296,1,0,0,30.5484,Gabbro_09,4,09,3,4,30.548,-0.073148148,-0.396296296,1,0,0,1.6714,Pegmatite_rect,6,1.671,0,13,0,13,0,1,,,,,,,,,,,,,
5dcc3ec7db13278d75c8622f,SCN,2024-06-21_10h46.08.147,LearnStrategy,2023.2.3,Win32,60.24096386,1,1,15,-0.413888889,0.077777778,1,0,0,3.2283,Diorite_08,3,08,4,2,3.228,-0.348148148,-0.408333333,1,0,0,1.7954,Obsidian_rect,5,1.795,0,14,0,14,0,1,,,,,,,,,,,,,
5dcc3ec7db13278d75c8622f,SCN,2024-06-21_10h46.08.147,LearnStrategy,2023.2.3,Win32,60.24096386,1,1,16,0.394444444,-0.123148148,1,0,0,1.1343,Diorite_02,3,02,3,7,1.134,0.172222222,-0.25462963,1,0,0,0.8482,Diorite_rect,3,0.848,1,15,0,15,0,1,,,,,,,,,,,,,
5dcc3ec7db13278d75c8622f,SCN,2024-06-21_10h46.08.147,LearnStrategy,2023.2.3,Win32,60.24096386,1,2,1,,,,,,,,3,13,,,,,,,,,,,8,5.544,0,,,,,,0.417592593,-0.393518519,1,0,0,5.5442,Pumice_rect,0,0,0,0,1,
5dcc3ec7db13278d75c8622f,SCN,2024-06-21_10h46.08.147,LearnStrategy,2023.2.3,Win32,60.24096386,1,2,2,,,,,,,,5,05,,,,,,,,,,,5,3.762,1,,,,,,-0.415740741,-0.414814815,1,0,0,3.7618,Obsidian_rect,1,0,1,0,1,
5dcc3ec7db13278d75c8622f,SCN,2024-06-21_10h46.08.147,LearnStrategy,2023.2.3,Win32,60.24096386,1,2,3,,,,,,,,7,13,,,,,,,,,,,1,1.695,0,,,,,,-0.339814815,-0.255555556,1,0,0,1.6954,Andesite_rect,2,0,2,0,1,
5dcc3ec7db13278d75c8622f,SCN,2024-06-21_10h46.08.147,LearnStrategy,2023.2.3,Win32,60.24096386,1,2,4,,,,,,,,7,15,,,,,,,,,,,2,1.651,0,,,,,,-0.097222222,-0.263888889,1,0,0,1.6511,Basalt_rect,3,0,3,0,1,
5dcc3ec7db13278d75c8622f,SCN,2024-06-21_10h46.08.147,LearnStrategy,2023.2.3,Win32,60.24096386,1,2,5,,,,,,,,8,14,,,,,,,,,,,8,2.133,1,,,,,,0.359259259,-0.402777778,1,0,0,2.1331,Pumice_rect,4,0,4,0,1,
5dcc3ec7db13278d75c8622f,SCN,2024-06-21_10h46.08.147,LearnStrategy,2023.2.3,Win32,60.24096386,1,2,6,,,,,,,,6,15,,,,,,,,,,,4,1.585,0,,,,,,0.332407407,-0.240740741,1,0,0,1.5846,Gabbro_rect,5,0,5,0,1,
5dcc3ec7db13278d75c8622f,SCN,2024-06-21_10h46.08.147,LearnStrategy,2023.2.3,Win32,60.24096386,1,2,7,,,,,,,,8,09,,,,,,,,,,,7,1.848,0,,,,,,0.081481481,-0.383333333,1,0,0,1.8483,Peridotite_rect,6,0,6,0,1,
5dcc3ec7db13278d75c8622f,SCN,2024-06-21_10h46.08.147,LearnStrategy,2023.2.3,Win32,60.24096386,1,2,8,,,,,,,,5,14,,,,,,,,,,,5,1.645,1,,,,,,-0.406481481,-0.408333333,1,0,0,1.645,Obsidian_rect,7,0,7,0,1,
5dcc3ec7db13278d75c8622f,SCN,2024-06-21_10h46.08.147,LearnStrategy,2023.2.3,Win32,60.24096386,1,2,9,,,,,,,,4,11,,,,,,,,,,,6,2.752,0,,,,,,-0.125,-0.397222222,1,0,0,2.7524,Pegmatite_rect,8,0,8,0,1,
5dcc3ec7db13278d75c8622f,SCN,2024-06-21_10h46.08.147,LearnStrategy,2023.2.3,Win32,60.24096386,1,2,10,,,,,,,,4,08,,,,,,,,,,,6,0.737,0,,,,,,-0.125925926,-0.398148148,1,0,0,0.7372,Pegmatite_rect,9,0,9,0,1,
5dcc3ec7db13278d75c8622f,SCN,2024-06-21_10h46.08.147,LearnStrategy,2023.2.3,Win32,60.24096386,1,2,11,,,,,,,,3,07,,,,,,,,,,,3,3.136,1,,,,,,0.081481481,-0.264814815,1,0,0,3.1357,Diorite_rect,10,0,10,0,1,
5dcc3ec7db13278d75c8622f,SCN,2024-06-21_10h46.08.147,LearnStrategy,2023.2.3,Win32,60.24096386,1,2,12,,,,,,,,1,01,,,,,,,,,,,8,1.95,0,,,,,,0.390740741,-0.391666667,1,0,0,1.9503,Pumice_rect,11,0,11,0,1,
5dcc3ec7db13278d75c8622f,SCN,2024-06-21_10h46.08.147,LearnStrategy,2023.2.3,Win32,60.24096386,1,2,13,,,,,,,,2,16,,,,,,,,,,,8,1.082,0,,,,,,0.384259259,-0.385185185,1,0,0,1.082,Pumice_rect,12,0,12,0,1,
5dcc3ec7db13278d75c8622f,SCN,2024-06-21_10h46.08.147,LearnStrategy,2023.2.3,Win32,60.24096386,1,2,14,,,,,,,,6,10,,,,,,,,,,,4,2.167,0,,,,,,0.407407407,-0.234259259,1,0,0,2.1672,Gabbro_rect,13,0,13,0,1,
5dcc3ec7db13278d75c8622f,SCN,2024-06-21_10h46.08.147,LearnStrategy,2023.2.3,Win32,60.24096386,1,2,15,,,,,,,,2,11,,,,,,,,,,,8,1.232,0,,,,,,0.399074074,-0.411111111,1,0,0,1.232,Pumice_rect,14,0,14,0,1,
5dcc3ec7db13278d75c8622f,SCN,2024-06-21_10h46.08.147,LearnStrategy,2023.2.3,Win32,60.24096386,1,2,16,,,,,,,,1,16,,,,,,,,,,,3,2.034,0,,,,,,0.07037037,-0.251851852,1,0,0,2.0344,Diorite_rect,15,0,15,0,1,
5dcc3ec7db13278d75c8622f,SCN,2024-06-21_10h46.08.147,LearnStrategy,2023.2.3,Win32,60.24096386,2,1,1,-0.525,0.124074074,1,0,0,6.8956,Andesite_07,1,07,4,1,6.896,-0.082407407,-0.235185185,1,0,0,1.1875,Basalt_rect,2,1.188,0,0,0,0,0,1,,,,,,,,,,,,,
5dcc3ec7db13278d75c8622f,SCN,2024-06-21_10h46.08.147,LearnStrategy,2023.2.3,Win32,60.24096386,2,1,2,0.54537037,0.399074074,1,0,0,3.6152,Basalt_10,2,10,6,8,3.615,0.168518519,-0.244444444,1,0,0,1.5195,Diorite_rect,3,1.519,0,1,0,1,0,1,,,,,,,,,,,,,
5dcc3ec7db13278d75c8622f,SCN,2024-06-21_10h46.08.147,LearnStrategy,2023.2.3,Win32,60.24096386,2,1,3,0.225925926,0.07962963,1,0,0,1.1823,Diorite_06,3,06,4,6,1.182,0.183333333,-0.401851852,1,0,0,1.6781,Peridotite_rect,7,1.678,0,2,0,2,0,1,,,,,,,,,,,,,
5dcc3ec7db13278d75c8622f,SCN,2024-06-21_10h46.08.147,LearnStrategy,2023.2.3,Win32,60.24096386,2,1,4,-0.355555556,-0.085185185,1,0,0,1.3657,Basalt_05,2,05,3,2,1.366,-0.073148148,-0.25,1,0,0,0.8949,Basalt_rect,2,0.895,1,3,0,3,0,1,,,,,,,,,,,,,
5dcc3ec7db13278d75c8622f,SCN,2024-06-21_10h46.08.147,LearnStrategy,2023.2.3,Win32,60.24096386,2,1,5,-0.560185185,-0.1,1,0,0,1.6492,Pegmatite_03,6,03,3,1,1.649,0.192592593,-0.247222222,1,0,0,1.595,Diorite_rect,3,1.595,0,4,0,4,0,1,,,,,,,,,,,,,
5dcc3ec7db13278d75c8622f,SCN,2024-06-21_10h46.08.147,LearnStrategy,2023.2.3,Win32,60.24096386,2,1,6,0.544444444,-0.109259259,1,0,0,1.8656,Pegmatite_09,6,09,3,8,1.866,-0.091666667,-0.42037037,1,0,0,1.5278,Pegmatite_rect,6,1.528,1,5,0,5,0,1,,,,,,,,,,,,,
5dcc3ec7db13278d75c8622f,SCN,2024-06-21_10h46.08.147,LearnStrategy,2023.2.3,Win32,60.24096386,2,1,7,-0.547222222,0.376851852,1,0,0,3.0656,Gabbro_05,4,05,6,1,3.066,0.14537037,-0.398148148,1,0,0,1.8774,Peridotite_rect,7,1.877,0,6,0,6,0,1,,,,,,,,,,,,,
5dcc3ec7db13278d75c8622f,SCN,2024-06-21_10h46.08.147,LearnStrategy,2023.2.3,Win32,60.24096386,2,1,8,-0.539814815,0.080555556,1,0,0,3.116,Andesite_07,1,07,4,1,3.116,0.381481481,-0.237037037,1,0,0,0.9447,Gabbro_rect,4,0.945,0,7,0,7,0,1,,,,,,,,,,,,,
5dcc3ec7db13278d75c8622f,SCN,2024-06-21_10h46.08.147,LearnStrategy,2023.2.3,Win32,60.24096386,2,1,9,0.437037037,-0.107407407,1,0,0,1.6163,Diorite_02,3,02,3,7,1.616,-0.360185185,-0.25,1,0,0,1.5444,Andesite_rect,1,1.544,0,8,0,8,0,1,,,,,,,,,,,,,
5dcc3ec7db13278d75c8622f,SCN,2024-06-21_10h46.08.147,LearnStrategy,2023.2.3,Win32,60.24096386,2,1,10,0.240740741,-0.113888889,1,0,0,1.2826,Pegmatite_16,6,16,3,6,1.283,-0.094444444,-0.409259259,1,0,0,1.9944,Pegmatite_rect,6,1.994,1,9,0,9,0,1,,,,,,,,,,,,,
5dcc3ec7db13278d75c8622f,SCN,2024-06-21_10h46.08.147,LearnStrategy,2023.2.3,Win32,60.24096386,2,1,11,-0.063888889,0.417592593,1,0,0,2.983,Pegmatite_05,6,05,6,4,2.983,0.392592593,-0.257407407,1,0,0,2.1779,Gabbro_rect,4,2.178,0,10,0,10,0,1,,,,,,,,,,,,,
5dcc3ec7db13278d75c8622f,SCN,2024-06-21_10h46.08.147,LearnStrategy,2023.2.3,Win32,60.24096386,2,1,12,0.42962963,0.385185185,1,0,0,1.7162,Pegmatite_06,6,06,6,7,1.716,-0.107407407,-0.411111111,1,0,0,1.0446,Pegmatite_rect,6,1.045,1,11,0,11,0,1,,,,,,,,,,,,,
5dcc3ec7db13278d75c8622f,SCN,2024-06-21_10h46.08.147,LearnStrategy,2023.2.3,Win32,60.24096386,2,1,13,0.067592593,-0.130555556,1,0,0,1.6327,Basalt_01,2,01,3,5,1.633,-0.07962963,-0.258333333,1,0,0,1.661,Basalt_rect,2,1.661,1,12,0,12,0,1,,,,,,,,,,,,,
5dcc3ec7db13278d75c8622f,SCN,2024-06-21_10h46.08.147,LearnStrategy,2023.2.3,Win32,60.24096386,2,1,14,-0.241666667,-0.25462963,1,0,0,1.5652,Gabbro_16,4,16,2,3,1.565,0.437962963,-0.269444444,1,0,0,2.1282,Gabbro_rect,4,2.128,1,13,0,13,0,1,,,,,,,,,,,,,
5dcc3ec7db13278d75c8622f,SCN,2024-06-21_10h46.08.147,LearnStrategy,2023.2.3,Win32,60.24096386,2,1,15,-0.443518519,-0.423148148,1,0,0,1.5996,Peridotite_12,7,12,1,2,1.6,0.153703704,-0.405555556,1,0,0,3.528,Peridotite_rect,7,3.528,1,14,0,14,0,1,,,,,,,,,,,,,
5dcc3ec7db13278d75c8622f,SCN,2024-06-21_10h46.08.147,LearnStrategy,2023.2.3,Win32,60.24096386,2,1,16,-0.041666667,-0.278703704,1,0,0,1.9161,Gabbro_15,4,15,2,4,1.916,0.098148148,-0.419444444,1,0,0,1.9446,Peridotite_rect,7,1.945,0,15,0,15,0,1,,,,,,,,,,,,,
5dcc3ec7db13278d75c8622f,SCN,2024-06-21_10h46.08.147,LearnStrategy,2023.2.3,Win32,60.24096386,2,2,1,,,,,,,,1,02,,,,,,,,,,,1,8.678,1,,,,,,-0.376851852,-0.252777778,1,0,0,8.678,Andesite_rect,0,0,0,0,1,
5dcc3ec7db13278d75c8622f,SCN,2024-06-21_10h46.08.147,LearnStrategy,2023.2.3,Win32,60.24096386,2,2,2,,,,,,,,8,04,,,,,,,,,,,8,1.405,1,,,,,,0.406481481,-0.392592593,1,0,0,1.4054,Pumice_rect,1,0,1,0,1,
5dcc3ec7db13278d75c8622f,SCN,2024-06-21_10h46.08.147,LearnStrategy,2023.2.3,Win32,60.24096386,2,2,3,,,,,,,,7,08,,,,,,,,,,,6,2.945,0,,,,,,-0.082407407,-0.388888889,1,0,0,2.945,Pegmatite_rect,2,0,2,0,1,
5dcc3ec7db13278d75c8622f,SCN,2024-06-21_10h46.08.147,LearnStrategy,2023.2.3,Win32,60.24096386,2,2,4,,,,,,,,2,06,,,,,,,,,,,5,1.737,0,,,,,,-0.347222222,-0.393518519,1,0,0,1.7373,Obsidian_rect,3,0,3,0,1,
5dcc3ec7db13278d75c8622f,SCN,2024-06-21_10h46.08.147,LearnStrategy,2023.2.3,Win32,60.24096386,2,2,5,,,,,,,,2,08,,,,,,,,,,,7,5.978,0,,,,,,0.133333333,-0.412962963,1,0,0,5.978,Peridotite_rect,4,0,4,0,1,
5dcc3ec7db13278d75c8622f,SCN,2024-06-21_10h46.08.147,LearnStrategy,2023.2.3,Win32,60.24096386,2,2,6,,,,,,,,4,10,,,,,,,,,,,6,2.355,0,,,,,,-0.174074074,-0.421296296,1,0,0,2.3551,Pegmatite_rect,5,0,5,0,1,
5dcc3ec7db13278d75c8622f,SCN,2024-06-21_10h46.08.147,LearnStrategy,2023.2.3,Win32,60.24096386,2,2,7,,,,,,,,3,16,,,,,,,,,,,3,3.921,1,,,,,,0.09537037,-0.241666667,1,0,0,3.9214,Diorite_rect,6,0,6,0,1,
5dcc3ec7db13278d75c8622f,SCN,2024-06-21_10h46.08.147,LearnStrategy,2023.2.3,Win32,60.24096386,2,2,8,,,,,,,,4,14,,,,,,,,,,,3,1.922,0,,,,,,0.096296296,-0.239814815,1,0,0,1.9224,Diorite_rect,7,0,7,0,1,
5dcc3ec7db13278d75c8622f,SCN,2024-06-21_10h46.08.147,LearnStrategy,2023.2.3,Win32,60.24096386,2,2,9,,,,,,,,6,12,,,,,,,,,,,6,3.445,1,,,,,,-0.118518519,-0.412037037,1,0,0,3.4447,Pegmatite_rect,8,0,8,0,1,
5dcc3ec7db13278d75c8622f,SCN,2024-06-21_10h46.08.147,LearnStrategy,2023.2.3,Win32,60.24096386,2,2,10,,,,,,,,8,06,,,,,,,,,,,8,1.239,1,,,,,,0.349074074,-0.4,1,0,0,1.2387,Pumice_rect,9,0,9,0,1,
5dcc3ec7db13278d75c8622f,SCN,2024-06-21_10h46.08.147,LearnStrategy,2023.2.3,Win32,60.24096386,2,2,11,,,,,,,,5,11,,,,,,,,,,,5,0.979,1,,,,,,-0.374074074,-0.419444444,1,0,0,0.9786,Obsidian_rect,10,0,10,0,1,
5dcc3ec7db13278d75c8622f,SCN,2024-06-21_10h46.08.147,LearnStrategy,2023.2.3,Win32,60.24096386,2,2,12,,,,,,,,7,06,,,,,,,,,,,6,3.496,0,,,,,,-0.103703704,-0.39537037,1,0,0,3.4958,Pegmatite_rect,11,0,11,0,1,
5dcc3ec7db13278d75c8622f,SCN,2024-06-21_10h46.08.147,LearnStrategy,2023.2.3,Win32,60.24096386,2,2,13,,,,,,,,1,14,,,,,,,,,,,6,1.756,0,,,,,,-0.103703704,-0.39537037,1,0,0,1.7556,Pegmatite_rect,12,0,12,0,1,
5dcc3ec7db13278d75c8622f,SCN,2024-06-21_10h46.08.147,LearnStrategy,2023.2.3,Win32,60.24096386,2,2,14,,,,,,,,3,09,,,,,,,,,,,2,2.929,0,,,,,,-0.090740741,-0.25,1,0,0,2.9291,Basalt_rect,13,0,13,0,1,
5dcc3ec7db13278d75c8622f,SCN,2024-06-21_10h46.08.147,LearnStrategy,2023.2.3,Win32,60.24096386,2,2,15,,,,,,,,6,11,,,,,,,,,,,4,2.972,0,,,,,,0.353703704,-0.255555556,1,0,0,2.9718,Gabbro_rect,14,0,14,0,1,
5dcc3ec7db13278d75c8622f,SCN,2024-06-21_10h46.08.147,LearnStrategy,2023.2.3,Win32,60.24096386,2,2,16,,,,,,,,5,04,,,,,,,,,,,5,1.062,1,,,,,,-0.476851852,-0.418518519,1,0,0,1.0619,Obsidian_rect,15,0,15,0,1,
5dcc3ec7db13278d75c8622f,SCN,2024-06-21_10h46.08.147,LearnStrategy,2023.2.3,Win32,60.24096386,3,1,1,0.258333333,-0.096296296,1,0,0,1.9496,Pegmatite_16,6,16,3,6,1.95,-0.137037037,-0.392592593,1,0,0,1.2109,Pegmatite_rect,6,1.211,1,0,0,0,0,1,,,,,,,,,,,,,
5dcc3ec7db13278d75c8622f,SCN,2024-06-21_10h46.08.147,LearnStrategy,2023.2.3,Win32,60.24096386,3,1,2,0.094444444,0.078703704,1,0,0,0.6655,Diorite_10,3,10,4,5,0.665,-0.183333333,-0.252777778,1,0,0,3.1952,Basalt_rect,2,3.195,0,1,0,1,0,1,,,,,,,,,,,,,
5dcc3ec7db13278d75c8622f,SCN,2024-06-21_10h46.08.147,LearnStrategy,2023.2.3,Win32,60.24096386,3,1,3,-0.428703704,0.119444444,1,0,0,1.4326,Diorite_08,3,08,4,2,1.433,0.047222222,-0.242592593,1,0,0,3.5942,Diorite_rect,3,3.594,1,2,0,2,0,1,,,,,,,,,,,,,
5dcc3ec7db13278d75c8622f,SCN,2024-06-21_10h46.08.147,LearnStrategy,2023.2.3,Win32,60.24096386,3,1,4,-0.222222222,0.237962963,1,0,0,1.4989,Andesite_04,1,04,5,3,1.499,-0.15462963,-0.264814815,1,0,0,3.8618,Basalt_rect,2,3.862,0,3,0,3,0,1,,,,,,,,,,,,,
5dcc3ec7db13278d75c8622f,SCN,2024-06-21_10h46.08.147,LearnStrategy,2023.2.3,Win32,60.24096386,3,1,5,0.234259259,0.083333333,1,0,0,1.3827,Diorite_06,3,06,4,6,1.383,-0.033333333,-0.228703704,1,0,0,2.5452,Basalt_rect,2,2.545,0,4,0,4,0,1,,,,,,,,,,,,,
5dcc3ec7db13278d75c8622f,SCN,2024-06-21_10h46.08.147,LearnStrategy,2023.2.3,Win32,60.24096386,3,1,6,0.558333333,0.067592593,1,0,0,1.6826,Andesite_06,1,06,4,8,1.683,0.131481481,-0.259259259,1,0,0,1.2111,Diorite_rect,3,1.211,0,5,0,5,0,1,,,,,,,,,,,,,
5dcc3ec7db13278d75c8622f,SCN,2024-06-21_10h46.08.147,LearnStrategy,2023.2.3,Win32,60.24096386,3,1,7,0.528703704,0.242592593,1,0,0,1.366,Gabbro_01,4,01,5,8,1.366,-0.410185185,-0.265740741,1,0,0,0.9614,Andesite_rect,1,0.961,0,6,0,6,0,1,,,,,,,,,,,,,
5dcc3ec7db13278d75c8622f,SCN,2024-06-21_10h46.08.147,LearnStrategy,2023.2.3,Win32,60.24096386,3,1,8,0.258333333,0.381481481,1,0,0,1.9995,Pumice_10,8,10,6,6,1.999,0.392592593,-0.417592593,1,0,0,1.0778,Pumice_rect,8,1.078,1,7,0,7,0,1,,,,,,,,,,,,,
5dcc3ec7db13278d75c8622f,SCN,2024-06-21_10h46.08.147,LearnStrategy,2023.2.3,Win32,60.24096386,3,1,9,-0.510185185,0.413888889,1,0,0,1.5489,Gabbro_05,4,05,6,1,1.549,-0.347222222,-0.257407407,1,0,0,3.9281,Andesite_rect,1,3.928,0,8,0,8,0,1,,,,,,,,,,,,,
5dcc3ec7db13278d75c8622f,SCN,2024-06-21_10h46.08.147,LearnStrategy,2023.2.3,Win32,60.24096386,3,1,10,-0.213888889,0.223148148,1,0,0,2.0989,Andesite_04,1,04,5,3,2.099,-0.351851852,-0.243518519,1,0,0,2.178,Andesite_rect,1,2.178,1,9,0,9,0,1,,,,,,,,,,,,,
5dcc3ec7db13278d75c8622f,SCN,2024-06-21_10h46.08.147,LearnStrategy,2023.2.3,Win32,60.24096386,3,1,11,0.387037037,-0.257407407,1,0,0,3.2826,Peridotite_05,7,05,2,7,3.283,-0.355555556,-0.261111111,1,0,0,1.5778,Andesite_rect,1,1.578,0,10,0,10,0,1,,,,,,,,,,,,,
5dcc3ec7db13278d75c8622f,SCN,2024-06-21_10h46.08.147,LearnStrategy,2023.2.3,Win32,60.24096386,3,1,12,0.413888889,-0.243518519,1,0,0,1.316,Peridotite_05,7,05,2,7,1.316,0.165740741,-0.40462963,1,0,0,1.1612,Peridotite_rect,7,1.161,1,11,0,11,0,1,,,,,,,,,,,,,
5dcc3ec7db13278d75c8622f,SCN,2024-06-21_10h46.08.147,LearnStrategy,2023.2.3,Win32,60.24096386,3,1,13,0.066666667,-0.249074074,1,0,0,1.6499,Gabbro_12,4,12,2,5,1.65,0.087962963,-0.415740741,1,0,0,3.1612,Peridotite_rect,7,3.161,0,12,0,12,0,1,,,,,,,,,,,,,
5dcc3ec7db13278d75c8622f,SCN,2024-06-21_10h46.08.147,LearnStrategy,2023.2.3,Win32,60.24096386,3,1,14,-0.244444444,-0.258333333,1,0,0,1.2831,Gabbro_16,4,16,2,3,1.283,-0.087962963,-0.262037037,1,0,0,1.6616,Basalt_rect,2,1.662,0,13,0,13,0,1,,,,,,,,,,,,,
5dcc3ec7db13278d75c8622f,SCN,2024-06-21_10h46.08.147,LearnStrategy,2023.2.3,Win32,60.24096386,3,1,15,-0.361111111,-0.106481481,1,0,0,0.9492,Basalt_05,2,05,3,2,0.949,-0.206481481,-0.25,1,0,0,1.4784,Basalt_rect,2,1.478,1,14,0,14,0,1,,,,,,,,,,,,,
5dcc3ec7db13278d75c8622f,SCN,2024-06-21_10h46.08.147,LearnStrategy,2023.2.3,Win32,60.24096386,3,1,16,0.071296296,-0.113888889,1,0,0,1.5158,Basalt_01,2,01,3,5,1.516,-0.12037037,-0.246296296,1,0,0,1.711,Basalt_rect,2,1.711,1,15,0,15,0,1,,,,,,,,,,,,,
5dcc3ec7db13278d75c8622f,SCN,2024-06-21_10h46.08.147,LearnStrategy,2023.2.3,Win32,60.24096386,3,2,1,,,,,,,,8,02,,,,,,,,,,,8,2.378,1,,,,,,0.355555556,-0.4,1,0,0,2.3775,Pumice_rect,0,0,0,0,1,
5dcc3ec7db13278d75c8622f,SCN,2024-06-21_10h46.08.147,LearnStrategy,2023.2.3,Win32,60.24096386,3,2,2,,,,,,,,8,13,,,,,,,,,,,8,1.606,1,,,,,,0.350925926,-0.409259259,1,0,0,1.6056,Pumice_rect,1,0,1,0,1,
5dcc3ec7db13278d75c8622f,SCN,2024-06-21_10h46.08.147,LearnStrategy,2023.2.3,Win32,60.24096386,3,2,3,,,,,,,,6,07,,,,,,,,,,,6,2.728,1,,,,,,-0.103703704,-0.403703704,1,0,0,2.728,Pegmatite_rect,2,0,2,0,1,
5dcc3ec7db13278d75c8622f,SCN,2024-06-21_10h46.08.147,LearnStrategy,2023.2.3,Win32,60.24096386,3,2,4,,,,,,,,4,03,,,,,,,,,,,4,5.878,1,,,,,,0.353703704,-0.239814815,1,0,0,5.8783,Gabbro_rect,3,0,3,0,1,
5dcc3ec7db13278d75c8622f,SCN,2024-06-21_10h46.08.147,LearnStrategy,2023.2.3,Win32,60.24096386,3,2,5,,,,,,,,3,15,,,,,,,,,,,4,2.322,0,,,,,,0.361111111,-0.250925926,1,0,0,2.3218,Gabbro_rect,4,0,4,0,1,
5dcc3ec7db13278d75c8622f,SCN,2024-06-21_10h46.08.147,LearnStrategy,2023.2.3,Win32,60.24096386,3,2,6,,,,,,,,3,14,,,,,,,,,,,6,4.538,0,,,,,,-0.072222222,-0.407407407,1,0,0,4.5385,Pegmatite_rect,5,0,5,0,1,
5dcc3ec7db13278d75c8622f,SCN,2024-06-21_10h46.08.147,LearnStrategy,2023.2.3,Win32,60.24096386,3,2,7,,,,,,,,5,02,,,,,,,,,,,5,1.472,1,,,,,,-0.406481481,-0.413888889,1,0,0,1.4722,Obsidian_rect,6,0,6,0,1,
5dcc3ec7db13278d75c8622f,SCN,2024-06-21_10h46.08.147,LearnStrategy,2023.2.3,Win32,60.24096386,3,2,8,,,,,,,,7,10,,,,,,,,,,,6,2.112,0,,,,,,-0.142592593,-0.40462963,1,0,0,2.1118,Pegmatite_rect,7,0,7,0,1,
5dcc3ec7db13278d75c8622f,SCN,2024-06-21_10h46.08.147,LearnStrategy,2023.2.3,Win32,60.24096386,3,2,9,,,,,,,,1,05,,,,,,,,,,,7,1.388,0,,,,,,0.062962963,-0.393518519,1,0,0,1.3878,Peridotite_rect,8,0,8,0,1,
5dcc3ec7db13278d75c8622f,SCN,2024-06-21_10h46.08.147,LearnStrategy,2023.2.3,Win32,60.24096386,3,2,10,,,,,,,,2,04,,,,,,,,,,,2,1.461,1,,,,,,-0.173148148,-0.266666667,1,0,0,1.4611,Basalt_rect,9,0,9,0,1,
5dcc3ec7db13278d75c8622f,SCN,2024-06-21_10h46.08.147,LearnStrategy,2023.2.3,Win32,60.24096386,3,2,11,,,,,,,,5,10,,,,,,,,,,,5,1.079,1,,,,,,-0.39537037,-0.417592593,1,0,0,1.0788,Obsidian_rect,10,0,10,0,1,
5dcc3ec7db13278d75c8622f,SCN,2024-06-21_10h46.08.147,LearnStrategy,2023.2.3,Win32,60.24096386,3,2,12,,,,,,,,2,09,,,,,,,,,,,2,1.545,1,,,,,,-0.122222222,-0.243518519,1,0,0,1.545,Basalt_rect,11,0,11,0,1,
5dcc3ec7db13278d75c8622f,SCN,2024-06-21_10h46.08.147,LearnStrategy,2023.2.3,Win32,60.24096386,3,2,13,,,,,,,,7,04,,,,,,,,,,,4,2.978,0,,,,,,0.351851852,-0.262962963,1,0,0,2.9782,Gabbro_rect,12,0,12,0,1,
5dcc3ec7db13278d75c8622f,SCN,2024-06-21_10h46.08.147,LearnStrategy,2023.2.3,Win32,60.24096386,3,2,14,,,,,,,,4,13,,,,,,,,,,,4,2.255,1,,,,,,0.438888889,-0.255555556,1,0,0,2.2546,Gabbro_rect,13,0,13,0,1,
5dcc3ec7db13278d75c8622f,SCN,2024-06-21_10h46.08.147,LearnStrategy,2023.2.3,Win32,60.24096386,3,2,15,,,,,,,,1,11,,,,,,,,,,,4,1.222,0,,,,,,0.388888889,-0.239814815,1,0,0,1.2217,Gabbro_rect,14,0,14,0,1,
5dcc3ec7db13278d75c8622f,SCN,2024-06-21_10h46.08.147,LearnStrategy,2023.2.3,Win32,60.24096386,3,2,16,,,,,,,,6,08,,,,,,,,,,,6,2.894,1,,,,,,-0.150925926,-0.403703704,1,0,0,2.8944,Pegmatite_rect,15,0,15,0,1,
5dcc3ec7db13278d75c8622f,SCN,2024-06-21_10h46.08.147,LearnStrategy,2023.2.3,Win32,60.24096386,4,1,1,-0.575925926,-0.080555556,1,0,0,1.2664,Pegmatite_03,6,03,3,1,1.266,-0.144444444,-0.405555556,1,0,0,2.7948,Pegmatite_rect,6,2.795,1,0,0,0,0,1,,,,,,,,,,,,,
5dcc3ec7db13278d75c8622f,SCN,2024-06-21_10h46.08.147,LearnStrategy,2023.2.3,Win32,60.24096386,4,1,2,-0.089814815,0.236111111,1,0,0,1.0664,Peridotite_02,7,02,5,4,1.066,0.473148148,-0.242592593,1,0,0,2.3109,Gabbro_rect,4,2.311,0,1,0,1,0,1,,,,,,,,,,,,,
5dcc3ec7db13278d75c8622f,SCN,2024-06-21_10h46.08.147,LearnStrategy,2023.2.3,Win32,60.24096386,4,1,3,-0.085185185,0.235185185,1,0,0,1.3829,Peridotite_02,7,02,5,4,1.383,0.099074074,-0.397222222,1,0,0,1.6786,Peridotite_rect,7,1.679,1,2,0,2,0,1,,,,,,,,,,,,,
5dcc3ec7db13278d75c8622f,SCN,2024-06-21_10h46.08.147,LearnStrategy,2023.2.3,Win32,60.24096386,4,1,4,-0.217592593,-0.261111111,1,0,0,3.1658,Gabbro_16,4,16,2,3,3.166,-0.209259259,-0.266666667,1,0,0,1.6543,Basalt_rect,2,1.654,0,3,0,3,0,1,,,,,,,,,,,,,
5dcc3ec7db13278d75c8622f,SCN,2024-06-21_10h46.08.147,LearnStrategy,2023.2.3,Win32,60.24096386,4,1,5,0.369444444,-0.432407407,1,0,0,2.5998,Peridotite_16,7,16,1,7,2.6,0.376851852,-0.246296296,1,0,0,2.0779,Gabbro_rect,4,2.078,0,4,0,4,0,1,,,,,,,,,,,,,
5dcc3ec7db13278d75c8622f,SCN,2024-06-21_10h46.08.147,LearnStrategy,2023.2.3,Win32,60.24096386,4,1,6,-0.211111111,-0.417592593,1,0,0,2.1826,Pegmatite_13,6,13,1,3,2.183,0.183333333,-0.409259259,1,0,0,1.4278,Peridotite_rect,7,1.428,0,5,0,5,0,1,,,,,,,,,,,,,
5dcc3ec7db13278d75c8622f,SCN,2024-06-21_10h46.08.147,LearnStrategy,2023.2.3,Win32,60.24096386,4,1,7,0.590740741,-0.430555556,1,0,0,0.7991,Basalt_14,2,14,1,8,0.799,0.413888889,-0.401851852,1,0,0,0.8616,Pumice_rect,8,0.862,0,6,0,6,0,1,,,,,,,,,,,,,
5dcc3ec7db13278d75c8622f,SCN,2024-06-21_10h46.08.147,LearnStrategy,2023.2.3,Win32,60.24096386,4,1,8,0.522222222,-0.068518519,1,0,0,1.1159,Pegmatite_09,6,09,3,8,1.116,-0.394444444,-0.402777778,1,0,0,1.7786,Obsidian_rect,5,1.779,0,7,0,7,0,1,,,,,,,,,,,,,
5dcc3ec7db13278d75c8622f,SCN,2024-06-21_10h46.08.147,LearnStrategy,2023.2.3,Win32,60.24096386,4,1,9,0.583333333,-0.091666667,1,0,0,1.6827,Pegmatite_09,6,09,3,8,1.683,-0.138888889,-0.402777778,1,0,0,0.9279,Pegmatite_rect,6,0.928,1,8,0,8,0,1,,,,,,,,,,,,,
5dcc3ec7db13278d75c8622f,SCN,2024-06-21_10h46.08.147,LearnStrategy,2023.2.3,Win32,60.24096386,4,1,10,0.565740741,0.103703704,1,0,0,1.3153,Andesite_06,1,06,4,8,1.315,0.392592593,-0.241666667,1,0,0,1.145,Gabbro_rect,4,1.145,0,9,0,9,0,1,,,,,,,,,,,,,
5dcc3ec7db13278d75c8622f,SCN,2024-06-21_10h46.08.147,LearnStrategy,2023.2.3,Win32,60.24096386,4,1,11,0.419444444,-0.116666667,1,0,0,1.1662,Diorite_02,3,02,3,7,1.166,-0.436111111,-0.241666667,1,0,0,0.9282,Andesite_rect,1,0.928,0,10,0,10,0,1,,,,,,,,,,,,,
5dcc3ec7db13278d75c8622f,SCN,2024-06-21_10h46.08.147,LearnStrategy,2023.2.3,Win32,60.24096386,4,1,12,0.560185185,0.233333333,1,0,0,1.1324,Gabbro_01,4,01,5,8,1.132,-0.358333333,-0.242592593,1,0,0,1.6621,Andesite_rect,1,1.662,0,11,0,11,0,1,,,,,,,,,,,,,
5dcc3ec7db13278d75c8622f,SCN,2024-06-21_10h46.08.147,LearnStrategy,2023.2.3,Win32,60.24096386,4,1,13,0.212962963,0.077777778,1,0,0,1.6498,Diorite_06,3,06,4,6,1.65,0.418518519,-0.243518519,1,0,0,0.8282,Gabbro_rect,4,0.828,0,12,0,12,0,1,,,,,,,,,,,,,
5dcc3ec7db13278d75c8622f,SCN,2024-06-21_10h46.08.147,LearnStrategy,2023.2.3,Win32,60.24096386,4,1,14,0.076851852,0.123148148,1,0,0,0.7331,Diorite_10,3,10,4,5,0.733,0.162962963,-0.259259259,1,0,0,1.3772,Diorite_rect,3,1.377,1,13,0,13,0,1,,,,,,,,,,,,,
5dcc3ec7db13278d75c8622f,SCN,2024-06-21_10h46.08.147,LearnStrategy,2023.2.3,Win32,60.24096386,4,1,15,0.076851852,0.237037037,1,0,0,1.0485,Peridotite_07,7,07,5,5,1.048,0.137037037,-0.256481481,1,0,0,1.0277,Diorite_rect,3,1.028,0,14,0,14,0,1,,,,,,,,,,,,,
5dcc3ec7db13278d75c8622f,SCN,2024-06-21_10h46.08.147,LearnStrategy,2023.2.3,Win32,60.24096386,4,1,16,-0.217592593,0.234259259,1,0,0,2.6665,Andesite_04,1,04,5,3,2.667,-0.372222222,-0.263888889,1,0,0,1.8548,Andesite_rect,1,1.855,1,15,0,15,0,1,,,,,,,,,,,,,
5dcc3ec7db13278d75c8622f,SCN,2024-06-21_10h46.08.147,LearnStrategy,2023.2.3,Win32,60.24096386,4,2,1,,,,,,,,4,14,,,,,,,,,,,3,4.561,0,,,,,,0.169444444,-0.255555556,1,0,0,4.5614,Diorite_rect,0,0,0,0,1,
5dcc3ec7db13278d75c8622f,SCN,2024-06-21_10h46.08.147,LearnStrategy,2023.2.3,Win32,60.24096386,4,2,2,,,,,,,,2,04,,,,,,,,,,,2,2.172,1,,,,,,-0.110185185,-0.243518519,1,0,0,2.1716,Basalt_rect,1,0,1,0,1,
5dcc3ec7db13278d75c8622f,SCN,2024-06-21_10h46.08.147,LearnStrategy,2023.2.3,Win32,60.24096386,4,2,3,,,,,,,,6,15,,,,,,,,,,,6,8.105,1,,,,,,-0.099074074,-0.407407407,1,0,0,8.1048,Pegmatite_rect,2,0,2,0,1,
5dcc3ec7db13278d75c8622f,SCN,2024-06-21_10h46.08.147,LearnStrategy,2023.2.3,Win32,60.24096386,4,2,4,,,,,,,,5,10,,,,,,,,,,,5,1.306,1,,,,,,-0.390740741,-0.412962963,1,0,0,1.3056,Obsidian_rect,3,0,3,0,1,
5dcc3ec7db13278d75c8622f,SCN,2024-06-21_10h46.08.147,LearnStrategy,2023.2.3,Win32,60.24096386,4,2,5,,,,,,,,1,05,,,,,,,,,,,4,6.929,0,,,,,,0.400925926,-0.252777778,1,0,0,6.9288,Gabbro_rect,4,0,4,0,1,
5dcc3ec7db13278d75c8622f,SCN,2024-06-21_10h46.08.147,LearnStrategy,2023.2.3,Win32,60.24096386,4,2,6,,,,,,,,7,13,,,,,,,,,,,7,3.338,1,,,,,,0.087962963,-0.411111111,1,0,0,3.3382,Peridotite_rect,5,0,5,0,1,
5dcc3ec7db13278d75c8622f,SCN,2024-06-21_10h46.08.147,LearnStrategy,2023.2.3,Win32,60.24096386,4,2,7,,,,,,,,6,10,,,,,,,,,,,6,1.178,1,,,,,,-0.096296296,-0.410185185,1,0,0,1.1782,Pegmatite_rect,6,0,6,0,1,
5dcc3ec7db13278d75c8622f,SCN,2024-06-21_10h46.08.147,LearnStrategy,2023.2.3,Win32,60.24096386,4,2,8,,,,,,,,4,11,,,,,,,,,,,4,3.245,1,,,,,,0.318518519,-0.24537037,1,0,0,3.2453,Gabbro_rect,7,0,7,0,1,
5dcc3ec7db13278d75c8622f,SCN,2024-06-21_10h46.08.147,LearnStrategy,2023.2.3,Win32,60.24096386,4,2,9,,,,,,,,8,09,,,,,,,,,,,8,0.989,1,,,,,,0.448148148,-0.393518519,1,0,0,0.9886,Pumice_rect,8,0,8,0,1,
5dcc3ec7db13278d75c8622f,SCN,2024-06-21_10h46.08.147,LearnStrategy,2023.2.3,Win32,60.24096386,4,2,10,,,,,,,,1,11,,,,,,,,,,,4,3.313,0,,,,,,0.362037037,-0.256481481,1,0,0,3.3125,Gabbro_rect,9,0,9,0,1,
5dcc3ec7db13278d75c8622f,SCN,2024-06-21_10h46.08.147,LearnStrategy,2023.2.3,Win32,60.24096386,4,2,11,,,,,,,,8,13,,,,,,,,,,,7,3.872,0,,,,,,0.139814815,-0.394444444,1,0,0,3.8721,Peridotite_rect,10,0,10,0,1,
5dcc3ec7db13278d75c8622f,SCN,2024-06-21_10h46.08.147,LearnStrategy,2023.2.3,Win32,60.24096386,4,2,12,,,,,,,,2,08,,,,,,,,,,,5,1.638,0,,,,,,-0.406481481,-0.392592593,1,0,0,1.6381,Obsidian_rect,11,0,11,0,1,
5dcc3ec7db13278d75c8622f,SCN,2024-06-21_10h46.08.147,LearnStrategy,2023.2.3,Win32,60.24096386,4,2,13,,,,,,,,7,04,,,,,,,,,,,6,2.279,0,,,,,,-0.142592593,-0.386111111,1,0,0,2.2786,Pegmatite_rect,12,0,12,0,1,
5dcc3ec7db13278d75c8622f,SCN,2024-06-21_10h46.08.147,LearnStrategy,2023.2.3,Win32,60.24096386,4,2,14,,,,,,,,3,07,,,,,,,,,,,3,1.379,1,,,,,,0.12037037,-0.260185185,1,0,0,1.379,Diorite_rect,13,0,13,0,1,
5dcc3ec7db13278d75c8622f,SCN,2024-06-21_10h46.08.147,LearnStrategy,2023.2.3,Win32,60.24096386,4,2,15,,,,,,,,5,14,,,,,,,,,,,5,1.495,1,,,,,,-0.400925926,-0.384259259,1,0,0,1.4952,Obsidian_rect,14,0,14,0,1,
5dcc3ec7db13278d75c8622f,SCN,2024-06-21_10h46.08.147,LearnStrategy,2023.2.3,Win32,60.24096386,4,2,16,,,,,,,,3,14,,,,,,,,,,,6,9.962,0,,,,,,-0.141666667,-0.408333333,1,0,0,9.962,Pegmatite_rect,15,0,15,0,1,
5dcc3ec7db13278d75c8622f,SCN,2024-06-21_10h46.08.147,LearnStrategy,2023.2.3,Win32,60.24096386,5,1,1,-0.552777778,0.1,1,0,0,1.5621,Andesite_07,1,07,4,1,1.562,0.111111111,-0.401851852,1,0,0,4.2278,Peridotite_rect,7,4.228,0,0,0,0,0,1,,,,,,,,,,,,,
5dcc3ec7db13278d75c8622f,SCN,2024-06-21_10h46.08.147,LearnStrategy,2023.2.3,Win32,60.24096386,5,1,2,-0.372222222,-0.082407407,1,0,0,0.9657,Basalt_05,2,05,3,2,0.966,-0.383333333,-0.397222222,1,0,0,0.9121,Obsidian_rect,5,0.912,0,1,0,1,0,1,,,,,,,,,,,,,
5dcc3ec7db13278d75c8622f,SCN,2024-06-21_10h46.08.147,LearnStrategy,2023.2.3,Win32,60.24096386,5,1,3,0.061111111,-0.119444444,1,0,0,0.7994,Basalt_01,2,01,3,5,0.799,-0.190740741,-0.244444444,1,0,0,0.7119,Basalt_rect,2,0.712,1,2,0,2,0,1,,,,,,,,,,,,,
5dcc3ec7db13278d75c8622f,SCN,2024-06-21_10h46.08.147,LearnStrategy,2023.2.3,Win32,60.24096386,5,1,4,-0.213888889,-0.282407407,1,0,0,1.3829,Gabbro_16,4,16,2,3,1.383,-0.175925926,-0.407407407,1,0,0,1.0608,Pegmatite_rect,6,1.061,0,3,0,3,0,1,,,,,,,,,,,,,
5dcc3ec7db13278d75c8622f,SCN,2024-06-21_10h46.08.147,LearnStrategy,2023.2.3,Win32,60.24096386,5,1,5,-0.587962963,-0.062037037,1,0,0,0.7494,Pegmatite_03,6,03,3,1,0.749,-0.376851852,-0.411111111,1,0,0,1.111,Obsidian_rect,5,1.111,0,4,0,4,0,1,,,,,,,,,,,,,
5dcc3ec7db13278d75c8622f,SCN,2024-06-21_10h46.08.147,LearnStrategy,2023.2.3,Win32,60.24096386,5,1,6,0.084259259,-0.141666667,1,0,0,0.8989,Basalt_01,2,01,3,5,0.899,-0.148148148,-0.260185185,1,0,0,0.7115,Basalt_rect,2,0.712,1,5,0,5,0,1,,,,,,,,,,,,,
5dcc3ec7db13278d75c8622f,SCN,2024-06-21_10h46.08.147,LearnStrategy,2023.2.3,Win32,60.24096386,5,1,7,0.39537037,-0.128703704,1,0,0,0.7326,Diorite_02,3,02,3,7,0.733,0.143518519,-0.400925926,1,0,0,2.2613,Peridotite_rect,7,2.261,0,6,0,6,0,1,,,,,,,,,,,,,
5dcc3ec7db13278d75c8622f,SCN,2024-06-21_10h46.08.147,LearnStrategy,2023.2.3,Win32,60.24096386,5,1,8,-0.084259259,-0.098148148,1,0,0,0.6663,Gabbro_09,4,09,3,4,0.666,-0.100925926,-0.399074074,1,0,0,1.1446,Pegmatite_rect,6,1.145,0,7,0,7,0,1,,,,,,,,,,,,,
5dcc3ec7db13278d75c8622f,SCN,2024-06-21_10h46.08.147,LearnStrategy,2023.2.3,Win32,60.24096386,5,1,9,0.372222222,-0.087962963,1,0,0,1.0821,Diorite_02,3,02,3,7,1.082,0.412962963,-0.266666667,1,0,0,0.4614,Gabbro_rect,4,0.461,0,8,0,8,0,1,,,,,,,,,,,,,
5dcc3ec7db13278d75c8622f,SCN,2024-06-21_10h46.08.147,LearnStrategy,2023.2.3,Win32,60.24096386,5,1,10,0.364814815,-0.105555556,1,0,0,0.7825,Diorite_02,3,02,3,7,0.783,0.15462963,-0.255555556,1,0,0,0.6446,Diorite_rect,3,0.645,1,9,0,9,0,1,,,,,,,,,,,,,
5dcc3ec7db13278d75c8622f,SCN,2024-06-21_10h46.08.147,LearnStrategy,2023.2.3,Win32,60.24096386,5,1,11,-0.112037037,-0.084259259,1,0,0,1.0159,Gabbro_09,4,09,3,4,1.016,-0.169444444,-0.247222222,1,0,0,2.2108,Basalt_rect,2,2.211,0,10,0,10,0,1,,,,,,,,,,,,,
5dcc3ec7db13278d75c8622f,SCN,2024-06-21_10h46.08.147,LearnStrategy,2023.2.3,Win32,60.24096386,5,1,12,0.255555556,-0.131481481,1,0,0,1.0992,Pegmatite_16,6,16,3,6,1.099,-0.135185185,-0.416666667,1,0,0,3.0781,Pegmatite_rect,6,3.078,1,11,0,11,0,1,,,,,,,,,,,,,
5dcc3ec7db13278d75c8622f,SCN,2024-06-21_10h46.08.147,LearnStrategy,2023.2.3,Win32,60.24096386,5,1,13,0.387037037,-0.416666667,1,0,0,0.8657,Peridotite_16,7,16,1,7,0.866,-0.130555556,-0.400925926,1,0,0,1.2945,Pegmatite_rect,6,1.294,0,12,0,12,0,1,,,,,,,,,,,,,
5dcc3ec7db13278d75c8622f,SCN,2024-06-21_10h46.08.147,LearnStrategy,2023.2.3,Win32,60.24096386,5,1,14,-0.364814815,-0.094444444,1,0,0,1.1499,Basalt_05,2,05,3,2,1.15,-0.206481481,-0.238888889,1,0,0,0.5776,Basalt_rect,2,0.578,1,13,0,13,0,1,,,,,,,,,,,,,
5dcc3ec7db13278d75c8622f,SCN,2024-06-21_10h46.08.147,LearnStrategy,2023.2.3,Win32,60.24096386,5,1,15,0.234259259,-0.248148148,1,0,0,1.0489,Basalt_02,2,02,2,6,1.049,-0.169444444,-0.251851852,1,0,0,0.6283,Basalt_rect,2,0.628,1,14,0,14,0,1,,,,,,,,,,,,,
5dcc3ec7db13278d75c8622f,SCN,2024-06-21_10h46.08.147,LearnStrategy,2023.2.3,Win32,60.24096386,5,1,16,0.402777778,-0.389814815,1,0,0,2.1992,Peridotite_16,7,16,1,7,2.199,0.151851852,-0.384259259,1,0,0,1.2283,Peridotite_rect,7,1.228,1,15,0,15,0,1,,,,,,,,,,,,,
5dcc3ec7db13278d75c8622f,SCN,2024-06-21_10h46.08.147,LearnStrategy,2023.2.3,Win32,60.24096386,5,2,1,,,,,,,,2,11,,,,,,,,,,,2,5.945,1,,,,,,-0.139814815,-0.236111111,1,0,0,5.9447,Basalt_rect,0,0,0,0,1,
5dcc3ec7db13278d75c8622f,SCN,2024-06-21_10h46.08.147,LearnStrategy,2023.2.3,Win32,60.24096386,5,2,2,,,,,,,,4,13,,,,,,,,,,,7,2.705,0,,,,,,0.112962963,-0.384259259,1,0,0,2.7053,Peridotite_rect,1,0,1,0,1,
5dcc3ec7db13278d75c8622f,SCN,2024-06-21_10h46.08.147,LearnStrategy,2023.2.3,Win32,60.24096386,5,2,3,,,,,,,,2,09,,,,,,,,,,,2,1.179,1,,,,,,-0.225925926,-0.260185185,1,0,0,1.179,Basalt_rect,2,0,2,0,1,
5dcc3ec7db13278d75c8622f,SCN,2024-06-21_10h46.08.147,LearnStrategy,2023.2.3,Win32,60.24096386,5,2,4,,,,,,,,4,10,,,,,,,,,,,4,1.595,1,,,,,,0.29537037,-0.262962963,1,0,0,1.5951,Gabbro_rect,3,0,3,0,1,
5dcc3ec7db13278d75c8622f,SCN,2024-06-21_10h46.08.147,LearnStrategy,2023.2.3,Win32,60.24096386,5,2,5,,,,,,,,6,11,,,,,,,,,,,5,2.978,0,,,,,,-0.456481481,-0.419444444,1,0,0,2.9778,Obsidian_rect,4,0,4,0,1,
5dcc3ec7db13278d75c8622f,SCN,2024-06-21_10h46.08.147,LearnStrategy,2023.2.3,Win32,60.24096386,5,2,6,,,,,,,,5,11,,,,,,,,,,,5,0.605,1,,,,,,-0.456481481,-0.419444444,1,0,0,0.6051,Obsidian_rect,5,0,5,0,1,
5dcc3ec7db13278d75c8622f,SCN,2024-06-21_10h46.08.147,LearnStrategy,2023.2.3,Win32,60.24096386,5,2,7,,,,,,,,5,02,,,,,,,,,,,5,0.595,1,,,,,,-0.456481481,-0.419444444,1,0,0,0.5948,Obsidian_rect,6,0,6,0,1,
5dcc3ec7db13278d75c8622f,SCN,2024-06-21_10h46.08.147,LearnStrategy,2023.2.3,Win32,60.24096386,5,2,8,,,,,,,,3,16,,,,,,,,,,,3,2.928,1,,,,,,0.167592593,-0.257407407,1,0,0,2.9284,Diorite_rect,7,0,7,0,1,
5dcc3ec7db13278d75c8622f,SCN,2024-06-21_10h46.08.147,LearnStrategy,2023.2.3,Win32,60.24096386,5,2,9,,,,,,,,6,07,,,,,,,,,,,5,1.055,0,,,,,,-0.469444444,-0.411111111,1,0,0,1.0552,Obsidian_rect,8,0,8,0,1,
5dcc3ec7db13278d75c8622f,SCN,2024-06-21_10h46.08.147,LearnStrategy,2023.2.3,Win32,60.24096386,5,2,10,,,,,,,,3,13,,,,,,,,,,,6,1.745,0,,,,,,-0.101851852,-0.42037037,1,0,0,1.7448,Pegmatite_rect,9,0,9,0,1,
5dcc3ec7db13278d75c8622f,SCN,2024-06-21_10h46.08.147,LearnStrategy,2023.2.3,Win32,60.24096386,5,2,11,,,,,,,,8,02,,,,,,,,,,,8,1.228,1,,,,,,0.42962963,-0.412962963,1,0,0,1.2279,Pumice_rect,10,0,10,0,1,
5dcc3ec7db13278d75c8622f,SCN,2024-06-21_10h46.08.147,LearnStrategy,2023.2.3,Win32,60.24096386,5,2,12,,,,,,,,8,04,,,,,,,,,,,8,0.712,1,,,,,,0.362962963,-0.408333333,1,0,0,0.7119,Pumice_rect,11,0,11,0,1,
5dcc3ec7db13278d75c8622f,SCN,2024-06-21_10h46.08.147,LearnStrategy,2023.2.3,Win32,60.24096386,5,2,13,,,,,,,,1,16,,,,,,,,,,,3,3.811,0,,,,,,0.112037037,-0.260185185,1,0,0,3.8112,Diorite_rect,12,0,12,0,1,
5dcc3ec7db13278d75c8622f,SCN,2024-06-21_10h46.08.147,LearnStrategy,2023.2.3,Win32,60.24096386,5,2,14,,,,,,,,1,02,,,,,,,,,,,6,1.379,0,,,,,,-0.103703704,-0.405555556,1,0,0,1.3789,Pegmatite_rect,13,0,13,0,1,
5dcc3ec7db13278d75c8622f,SCN,2024-06-21_10h46.08.147,LearnStrategy,2023.2.3,Win32,60.24096386,5,2,15,,,,,,,,7,15,,,,,,,,,,,7,1.119,1,,,,,,0.066666667,-0.387037037,1,0,0,1.119,Peridotite_rect,14,0,14,0,1,
5dcc3ec7db13278d75c8622f,SCN,2024-06-21_10h46.08.147,LearnStrategy,2023.2.3,Win32,60.24096386,5,2,16,,,,,,,,7,06,,,,,,,,,,,7,0.999,1,,,,,,0.085185185,-0.406481481,1,0,0,0.9991,Peridotite_rect,15,0,15,0,1,
5dcc3ec7db13278d75c8622f,SCN,2024-06-21_10h46.08.147,LearnStrategy,2023.2.3,Win32,60.24096386,6,1,1,-0.360185185,-0.112962963,1,0,0,1.246,Basalt_05,2,05,3,2,1.246,-0.134259259,-0.251851852,1,0,0,0.628,Basalt_rect,2,0.628,1,0,0,0,0,1,,,,,,,,,,,,,
5dcc3ec7db13278d75c8622f,SCN,2024-06-21_10h46.08.147,LearnStrategy,2023.2.3,Win32,60.24096386,6,1,2,-0.242592593,0.107407407,1,0,0,0.8992,Obsidian_06,5,06,4,3,0.899,-0.437037037,-0.400925926,1,0,0,0.7117,Obsidian_rect,5,0.712,1,1,0,1,0,1,,,,,,,,,,,,,
5dcc3ec7db13278d75c8622f,SCN,2024-06-21_10h46.08.147,LearnStrategy,2023.2.3,Win32,60.24096386,6,1,3,0.043518519,0.067592593,1,0,0,0.7485,Diorite_10,3,10,4,5,0.748,0.169444444,-0.263888889,1,0,0,0.9115,Diorite_rect,3,0.912,1,2,0,2,0,1,,,,,,,,,,,,,
5dcc3ec7db13278d75c8622f,SCN,2024-06-21_10h46.08.147,LearnStrategy,2023.2.3,Win32,60.24096386,6,1,4,0.236111111,0.085185185,1,0,0,1.2656,Diorite_06,3,06,4,6,1.266,0.149074074,-0.25,1,0,0,0.7785,Diorite_rect,3,0.778,1,3,0,3,0,1,,,,,,,,,,,,,
5dcc3ec7db13278d75c8622f,SCN,2024-06-21_10h46.08.147,LearnStrategy,2023.2.3,Win32,60.24096386,6,1,5,0.077777778,0.243518519,1,0,0,0.9654,Peridotite_07,7,07,5,5,0.965,0.148148148,-0.389814815,1,0,0,1.1115,Peridotite_rect,7,1.111,1,4,0,4,0,1,,,,,,,,,,,,,
5dcc3ec7db13278d75c8622f,SCN,2024-06-21_10h46.08.147,LearnStrategy,2023.2.3,Win32,60.24096386,6,1,6,-0.107407407,0.230555556,1,0,0,0.9827,Peridotite_02,7,02,5,4,0.983,0.058333333,-0.414814815,1,0,0,1.1619,Peridotite_rect,7,1.162,1,5,0,5,0,1,,,,,,,,,,,,,
5dcc3ec7db13278d75c8622f,SCN,2024-06-21_10h46.08.147,LearnStrategy,2023.2.3,Win32,60.24096386,6,1,7,0.557407407,0.255555556,1,0,0,1.0494,Gabbro_01,4,01,5,8,1.049,0.39537037,-0.238888889,1,0,0,1.8445,Gabbro_rect,4,1.844,1,6,0,6,0,1,,,,,,,,,,,,,
5dcc3ec7db13278d75c8622f,SCN,2024-06-21_10h46.08.147,LearnStrategy,2023.2.3,Win32,60.24096386,6,1,8,0.075,0.087962963,1,0,0,0.9489,Diorite_10,3,10,4,5,0.949,0.141666667,-0.262037037,1,0,0,1.6777,Diorite_rect,3,1.678,1,7,0,7,0,1,,,,,,,,,,,,,
5dcc3ec7db13278d75c8622f,SCN,2024-06-21_10h46.08.147,LearnStrategy,2023.2.3,Win32,60.24096386,6,1,9,-0.366666667,0.089814815,1,0,0,1.3322,Diorite_08,3,08,4,2,1.332,0.173148148,-0.261111111,1,0,0,2.2945,Diorite_rect,3,2.294,1,8,0,8,0,1,,,,,,,,,,,,,
5dcc3ec7db13278d75c8622f,SCN,2024-06-21_10h46.08.147,LearnStrategy,2023.2.3,Win32,60.24096386,6,1,10,-0.537962963,0.09537037,1,0,0,1.399,Andesite_07,1,07,4,1,1.399,0.139814815,-0.242592593,1,0,0,0.7279,Diorite_rect,3,0.728,0,9,0,9,0,1,,,,,,,,,,,,,
5dcc3ec7db13278d75c8622f,SCN,2024-06-21_10h46.08.147,LearnStrategy,2023.2.3,Win32,60.24096386,6,1,11,-0.086111111,0.225925926,1,0,0,1.5496,Peridotite_02,7,02,5,4,1.55,0.074074074,-0.400925926,1,0,0,1.2946,Peridotite_rect,7,1.295,1,10,0,10,0,1,,,,,,,,,,,,,
5dcc3ec7db13278d75c8622f,SCN,2024-06-21_10h46.08.147,LearnStrategy,2023.2.3,Win32,60.24096386,6,1,12,0.571296296,0.260185185,1,0,0,1.6162,Gabbro_01,4,01,5,8,1.616,-0.371296296,-0.244444444,1,0,0,1.3274,Andesite_rect,1,1.327,0,11,0,11,0,1,,,,,,,,,,,,,
5dcc3ec7db13278d75c8622f,SCN,2024-06-21_10h46.08.147,LearnStrategy,2023.2.3,Win32,60.24096386,6,1,13,0.383333333,-0.42962963,1,0,0,2.5329,Peridotite_16,7,16,1,7,2.533,0.139814815,-0.406481481,1,0,0,1.6211,Peridotite_rect,7,1.621,1,12,0,12,0,1,,,,,,,,,,,,,
5dcc3ec7db13278d75c8622f,SCN,2024-06-21_10h46.08.147,LearnStrategy,2023.2.3,Win32,60.24096386,6,1,14,0.55462963,0.076851852,1,0,0,1.5655,Andesite_06,1,06,4,8,1.565,-0.390740741,-0.244444444,1,0,0,3.7451,Andesite_rect,1,3.745,1,13,0,13,0,1,,,,,,,,,,,,,
5dcc3ec7db13278d75c8622f,SCN,2024-06-21_10h46.08.147,LearnStrategy,2023.2.3,Win32,60.24096386,6,1,15,0.055555556,0.116666667,1,0,0,1.3827,Diorite_10,3,10,4,5,1.383,-0.439814815,-0.260185185,1,0,0,1.6112,Andesite_rect,1,1.611,0,14,0,14,0,1,,,,,,,,,,,,,
5dcc3ec7db13278d75c8622f,SCN,2024-06-21_10h46.08.147,LearnStrategy,2023.2.3,Win32,60.24096386,6,1,16,0.249074074,0.087962963,1,0,0,0.8156,Diorite_06,3,06,4,6,0.816,0.402777778,-0.261111111,1,0,0,0.5779,Gabbro_rect,4,0.578,0,15,0,15,0,1,,,,,,,,,,,,,
5dcc3ec7db13278d75c8622f,SCN,2024-06-21_10h46.08.147,LearnStrategy,2023.2.3,Win32,60.24096386,6,2,1,,,,,,,,6,12,,,,,,,,,,,4,8.212,0,,,,,,0.414814815,-0.235185185,1,0,0,8.2116,Gabbro_rect,0,0,0,0,1,
5dcc3ec7db13278d75c8622f,SCN,2024-06-21_10h46.08.147,LearnStrategy,2023.2.3,Win32,60.24096386,6,2,2,,,,,,,,1,14,,,,,,,,,,,3,1.938,0,,,,,,0.101851852,-0.244444444,1,0,0,1.9379,Diorite_rect,1,0,1,0,1,
5dcc3ec7db13278d75c8622f,SCN,2024-06-21_10h46.08.147,LearnStrategy,2023.2.3,Win32,60.24096386,6,2,3,,,,,,,,6,08,,,,,,,,,,,5,1.212,0,,,,,,-0.431481481,-0.40462963,1,0,0,1.2119,Obsidian_rect,2,0,2,0,1,
5dcc3ec7db13278d75c8622f,SCN,2024-06-21_10h46.08.147,LearnStrategy,2023.2.3,Win32,60.24096386,6,2,4,,,,,,,,7,10,,,,,,,,,,,7,1.528,1,,,,,,0.151851852,-0.391666667,1,0,0,1.5277,Peridotite_rect,3,0,3,0,1,
5dcc3ec7db13278d75c8622f,SCN,2024-06-21_10h46.08.147,LearnStrategy,2023.2.3,Win32,60.24096386,6,2,5,,,,,,,,5,05,,,,,,,,,,,5,1.695,1,,,,,,-0.427777778,-0.397222222,1,0,0,1.6948,Obsidian_rect,4,0,4,0,1,
5dcc3ec7db13278d75c8622f,SCN,2024-06-21_10h46.08.147,LearnStrategy,2023.2.3,Win32,60.24096386,6,2,6,,,,,,,,5,04,,,,,,,,,,,5,0.878,1,,,,,,-0.344444444,-0.403703704,1,0,0,0.8777,Obsidian_rect,5,0,5,0,1,
5dcc3ec7db13278d75c8622f,SCN,2024-06-21_10h46.08.147,LearnStrategy,2023.2.3,Win32,60.24096386,6,2,7,,,,,,,,4,03,,,,,,,,,,,1,3.495,0,,,,,,-0.360185185,-0.252777778,1,0,0,3.4945,Andesite_rect,6,0,6,0,1,
5dcc3ec7db13278d75c8622f,SCN,2024-06-21_10h46.08.147,LearnStrategy,2023.2.3,Win32,60.24096386,6,2,8,,,,,,,,8,06,,,,,,,,,,,8,0.955,1,,,,,,0.430555556,-0.393518519,1,0,0,0.9554,Pumice_rect,7,0,7,0,1,
5dcc3ec7db13278d75c8622f,SCN,2024-06-21_10h46.08.147,LearnStrategy,2023.2.3,Win32,60.24096386,6,2,9,,,,,,,,8,14,,,,,,,,,,,8,1.778,1,,,,,,0.426851852,-0.393518519,1,0,0,1.7783,Pumice_rect,8,0,8,0,1,
5dcc3ec7db13278d75c8622f,SCN,2024-06-21_10h46.08.147,LearnStrategy,2023.2.3,Win32,60.24096386,6,2,10,,,,,,,,2,06,,,,,,,,,,,2,1.912,1,,,,,,-0.152777778,-0.261111111,1,0,0,1.9117,Basalt_rect,9,0,9,0,1,
5dcc3ec7db13278d75c8622f,SCN,2024-06-21_10h46.08.147,LearnStrategy,2023.2.3,Win32,60.24096386,6,2,11,,,,,,,,4,08,,,,,,,,,,,1,4.295,0,,,,,,-0.373148148,-0.264814815,1,0,0,4.2948,Andesite_rect,10,0,10,0,1,
5dcc3ec7db13278d75c8622f,SCN,2024-06-21_10h46.08.147,LearnStrategy,2023.2.3,Win32,60.24096386,6,2,12,,,,,,,,7,08,,,,,,,,,,,7,1.179,1,,,,,,0.097222222,-0.399074074,1,0,0,1.1787,Peridotite_rect,11,0,11,0,1,
5dcc3ec7db13278d75c8622f,SCN,2024-06-21_10h46.08.147,LearnStrategy,2023.2.3,Win32,60.24096386,6,2,13,,,,,,,,1,01,,,,,,,,,,,4,1.716,0,,,,,,0.405555556,-0.252777778,1,0,0,1.716,Gabbro_rect,12,0,12,0,1,
5dcc3ec7db13278d75c8622f,SCN,2024-06-21_10h46.08.147,LearnStrategy,2023.2.3,Win32,60.24096386,6,2,14,,,,,,,,2,16,,,,,,,,,,,2,2.133,1,,,,,,-0.113888889,-0.257407407,1,0,0,2.133,Basalt_rect,13,0,13,0,1,
5dcc3ec7db13278d75c8622f,SCN,2024-06-21_10h46.08.147,LearnStrategy,2023.2.3,Win32,60.24096386,6,2,15,,,,,,,,3,09,,,,,,,,,,,3,1.085,1,,,,,,0.125,-0.256481481,1,0,0,1.0851,Diorite_rect,14,0,14,0,1,
5dcc3ec7db13278d75c8622f,SCN,2024-06-21_10h46.08.147,LearnStrategy,2023.2.3,Win32,60.24096386,6,2,16,,,,,,,,3,15,,,,,,,,,,,4,2.202,0,,,,,,0.371296296,-0.233333333,1,0,0,2.2021,Gabbro_rect,15,0,15,0,1,
5dcc3ec7db13278d75c8622f,SCN,2024-06-21_10h46.08.147,LearnStrategy,2023.2.3,Win32,60.24096386,7,1,1,0.239814815,-0.092592593,1,0,0,1.6665,Pegmatite_16,6,16,3,6,1.667,-0.375,-0.264814815,1,0,0,1.2912,Andesite_rect,1,1.291,0,0,0,0,0,1,,,,,,,,,,,,,
5dcc3ec7db13278d75c8622f,SCN,2024-06-21_10h46.08.147,LearnStrategy,2023.2.3,Win32,60.24096386,7,1,2,0.423148148,0.393518519,1,0,0,2.6492,Pegmatite_06,6,06,6,7,2.649,0.09537037,-0.392592593,1,0,0,1.7547,Peridotite_rect,7,1.755,0,1,0,1,0,1,,,,,,,,,,,,,
5dcc3ec7db13278d75c8622f,SCN,2024-06-21_10h46.08.147,LearnStrategy,2023.2.3,Win32,60.24096386,7,1,3,0.422222222,0.435185185,1,0,0,0.916,Pegmatite_06,6,06,6,7,0.916,0.159259259,-0.271296296,1,0,0,0.7654,Diorite_rect,3,0.765,0,2,0,2,0,1,,,,,,,,,,,,,
5dcc3ec7db13278d75c8622f,SCN,2024-06-21_10h46.08.147,LearnStrategy,2023.2.3,Win32,60.24096386,7,1,4,0.241666667,0.403703704,1,0,0,1.1331,Pumice_10,8,10,6,6,1.133,0.418518519,-0.400925926,1,0,0,0.998,Pumice_rect,8,0.998,1,3,0,3,0,1,,,,,,,,,,,,,
5dcc3ec7db13278d75c8622f,SCN,2024-06-21_10h46.08.147,LearnStrategy,2023.2.3,Win32,60.24096386,7,1,5,-0.524074074,0.4,1,0,0,1.2016,Gabbro_05,4,05,6,1,1.202,0.099074074,-0.267592593,1,0,0,2.0304,Diorite_rect,3,2.03,0,4,0,4,0,1,,,,,,,,,,,,,
5dcc3ec7db13278d75c8622f,SCN,2024-06-21_10h46.08.147,LearnStrategy,2023.2.3,Win32,60.24096386,7,1,6,-0.386111111,0.439814815,1,0,0,0.7848,Diorite_12,3,12,6,2,0.785,0.431481481,-0.255555556,1,0,0,0.7793,Gabbro_rect,4,0.779,0,5,0,5,0,1,,,,,,,,,,,,,
5dcc3ec7db13278d75c8622f,SCN,2024-06-21_10h46.08.147,LearnStrategy,2023.2.3,Win32,60.24096386,7,1,7,-0.047222222,0.39537037,1,0,0,1.5688,Pegmatite_05,6,05,6,4,1.569,0.15,-0.25,1,0,0,0.7953,Diorite_rect,3,0.795,0,6,0,6,0,1,,,,,,,,,,,,,
5dcc3ec7db13278d75c8622f,SCN,2024-06-21_10h46.08.147,LearnStrategy,2023.2.3,Win32,60.24096386,7,1,8,0.431481481,0.435185185,1,0,0,1.8986,Pegmatite_06,6,06,6,7,1.899,0.172222222,-0.412037037,1,0,0,1.242,Peridotite_rect,7,1.242,0,7,0,7,0,1,,,,,,,,,,,,,
5dcc3ec7db13278d75c8622f,SCN,2024-06-21_10h46.08.147,LearnStrategy,2023.2.3,Win32,60.24096386,7,1,9,-0.414814815,0.10462963,1,0,0,2.4087,Diorite_08,3,08,4,2,2.409,0.183333333,-0.242592593,1,0,0,1.4936,Diorite_rect,3,1.494,1,8,0,8,0,1,,,,,,,,,,,,,
5dcc3ec7db13278d75c8622f,SCN,2024-06-21_10h46.08.147,LearnStrategy,2023.2.3,Win32,60.24096386,7,1,10,0.426851852,-0.093518519,1,0,0,0.766,Diorite_02,3,02,3,7,0.766,0.12962963,-0.25462963,1,0,0,0.6274,Diorite_rect,3,0.627,1,9,0,9,0,1,,,,,,,,,,,,,
5dcc3ec7db13278d75c8622f,SCN,2024-06-21_10h46.08.147,LearnStrategy,2023.2.3,Win32,60.24096386,7,1,11,0.57037037,-0.107407407,1,0,0,1.0063,Pegmatite_09,6,09,3,8,1.006,-0.401851852,-0.397222222,1,0,0,1.5874,Obsidian_rect,5,1.587,0,10,0,10,0,1,,,,,,,,,,,,,
5dcc3ec7db13278d75c8622f,SCN,2024-06-21_10h46.08.147,LearnStrategy,2023.2.3,Win32,60.24096386,7,1,12,0.262962963,-0.106481481,1,0,0,1.3022,Pegmatite_16,6,16,3,6,1.302,-0.09537037,-0.419444444,1,0,0,1.004,Pegmatite_rect,6,1.004,1,11,0,11,0,1,,,,,,,,,,,,,
5dcc3ec7db13278d75c8622f,SCN,2024-06-21_10h46.08.147,LearnStrategy,2023.2.3,Win32,60.24096386,7,1,13,-0.077777778,-0.112037037,1,0,0,1.2815,Gabbro_09,4,09,3,4,1.282,0.175925926,-0.42037037,1,0,0,0.7692,Peridotite_rect,7,0.769,0,12,0,12,0,1,,,,,,,,,,,,,
5dcc3ec7db13278d75c8622f,SCN,2024-06-21_10h46.08.147,LearnStrategy,2023.2.3,Win32,60.24096386,7,1,14,-0.538888889,-0.111111111,1,0,0,1.7516,Pegmatite_03,6,03,3,1,1.752,-0.125925926,-0.417592593,1,0,0,1.1718,Pegmatite_rect,6,1.172,1,13,0,13,0,1,,,,,,,,,,,,,
5dcc3ec7db13278d75c8622f,SCN,2024-06-21_10h46.08.147,LearnStrategy,2023.2.3,Win32,60.24096386,7,1,15,0.54537037,-0.409259259,1,0,0,1.5983,Basalt_14,2,14,1,8,1.598,0.397222222,-0.400925926,1,0,0,0.6599,Pumice_rect,8,0.66,0,14,0,14,0,1,,,,,,,,,,,,,
5dcc3ec7db13278d75c8622f,SCN,2024-06-21_10h46.08.147,LearnStrategy,2023.2.3,Win32,60.24096386,7,1,16,0.373148148,-0.446296296,1,0,0,1.6651,Peridotite_16,7,16,1,7,1.665,0.391666667,-0.22962963,1,0,0,2.1443,Gabbro_rect,4,2.144,0,15,0,15,0,1,,,,,,,,,,,,,
5dcc3ec7db13278d75c8622f,SCN,2024-06-21_10h46.08.147,LearnStrategy,2023.2.3,Win32,60.24096386,7,2,1,,,,,,,,5,10,,,,,,,,,,,5,1.261,1,,,,,,-0.343518519,-0.401851852,1,0,0,1.2613,Obsidian_rect,0,0,0,0,1,
5dcc3ec7db13278d75c8622f,SCN,2024-06-21_10h46.08.147,LearnStrategy,2023.2.3,Win32,60.24096386,7,2,2,,,,,,,,6,07,,,,,,,,,,,7,2.028,0,,,,,,0.137962963,-0.401851852,1,0,0,2.0282,Peridotite_rect,1,0,1,0,1,
5dcc3ec7db13278d75c8622f,SCN,2024-06-21_10h46.08.147,LearnStrategy,2023.2.3,Win32,60.24096386,7,2,3,,,,,,,,8,02,,,,,,,,,,,8,1.178,1,,,,,,0.393518519,-0.400925926,1,0,0,1.1778,Pumice_rect,2,0,2,0,1,
5dcc3ec7db13278d75c8622f,SCN,2024-06-21_10h46.08.147,LearnStrategy,2023.2.3,Win32,60.24096386,7,2,4,,,,,,,,8,06,,,,,,,,,,,8,0.779,1,,,,,,0.388888889,-0.398148148,1,0,0,0.7786,Pumice_rect,3,0,3,0,1,
5dcc3ec7db13278d75c8622f,SCN,2024-06-21_10h46.08.147,LearnStrategy,2023.2.3,Win32,60.24096386,7,2,5,,,,,,,,2,16,,,,,,,,,,,2,1.712,1,,,,,,-0.125,-0.243518519,1,0,0,1.7116,Basalt_rect,4,0,4,0,1,
5dcc3ec7db13278d75c8622f,SCN,2024-06-21_10h46.08.147,LearnStrategy,2023.2.3,Win32,60.24096386,7,2,6,,,,,,,,4,03,,,,,,,,,,,3,1.345,0,,,,,,0.180555556,-0.263888889,1,0,0,1.3451,Diorite_rect,5,0,5,0,1,
5dcc3ec7db13278d75c8622f,SCN,2024-06-21_10h46.08.147,LearnStrategy,2023.2.3,Win32,60.24096386,7,2,7,,,,,,,,3,15,,,,,,,,,,,4,1.995,0,,,,,,0.353703704,-0.251851852,1,0,0,1.995,Gabbro_rect,6,0,6,0,1,
5dcc3ec7db13278d75c8622f,SCN,2024-06-21_10h46.08.147,LearnStrategy,2023.2.3,Win32,60.24096386,7,2,8,,,,,,,,1,01,,,,,,,,,,,4,2.044,0,,,,,,0.365740741,-0.25462963,1,0,0,2.0443,Gabbro_rect,7,0,7,0,1,
5dcc3ec7db13278d75c8622f,SCN,2024-06-21_10h46.08.147,LearnStrategy,2023.2.3,Win32,60.24096386,7,2,9,,,,,,,,1,16,,,,,,,,,,,3,1.581,0,,,,,,0.116666667,-0.24537037,1,0,0,1.5808,Diorite_rect,8,0,8,0,1,
5dcc3ec7db13278d75c8622f,SCN,2024-06-21_10h46.08.147,LearnStrategy,2023.2.3,Win32,60.24096386,7,2,10,,,,,,,,5,11,,,,,,,,,,,5,0.894,1,,,,,,-0.437037037,-0.412962963,1,0,0,0.8941,Obsidian_rect,9,0,9,0,1,
5dcc3ec7db13278d75c8622f,SCN,2024-06-21_10h46.08.147,LearnStrategy,2023.2.3,Win32,60.24096386,7,2,11,,,,,,,,6,11,,,,,,,,,,,6,1.795,1,,,,,,-0.090740741,-0.415740741,1,0,0,1.7949,Pegmatite_rect,10,0,10,0,1,
5dcc3ec7db13278d75c8622f,SCN,2024-06-21_10h46.08.147,LearnStrategy,2023.2.3,Win32,60.24096386,7,2,12,,,,,,,,2,08,,,,,,,,,,,2,1.228,1,,,,,,-0.122222222,-0.250925926,1,0,0,1.2279,Basalt_rect,11,0,11,0,1,
5dcc3ec7db13278d75c8622f,SCN,2024-06-21_10h46.08.147,LearnStrategy,2023.2.3,Win32,60.24096386,7,2,13,,,,,,,,3,13,,,,,,,,,,,3,1.129,1,,,,,,0.17037037,-0.265740741,1,0,0,1.1289,Diorite_rect,12,0,12,0,1,
5dcc3ec7db13278d75c8622f,SCN,2024-06-21_10h46.08.147,LearnStrategy,2023.2.3,Win32,60.24096386,7,2,14,,,,,,,,7,06,,,,,,,,,,,7,2.445,1,,,,,,0.165740741,-0.392592593,1,0,0,2.445,Peridotite_rect,13,0,13,0,1,
5dcc3ec7db13278d75c8622f,SCN,2024-06-21_10h46.08.147,LearnStrategy,2023.2.3,Win32,60.24096386,7,2,15,,,,,,,,4,08,,,,,,,,,,,4,1.745,1,,,,,,0.361111111,-0.259259259,1,0,0,1.7454,Gabbro_rect,14,0,14,0,1,
5dcc3ec7db13278d75c8622f,SCN,2024-06-21_10h46.08.147,LearnStrategy,2023.2.3,Win32,60.24096386,7,2,16,,,,,,,,7,13,,,,,,,,,,,6,1.895,0,,,,,,-0.083333333,-0.409259259,1,0,0,1.8948,Pegmatite_rect,15,0,15,0,1,
5dcc3ec7db13278d75c8622f,SCN,2024-06-21_10h46.08.147,LearnStrategy,2023.2.3,Win32,60.24096386,8,1,1,0.219444444,-0.091666667,1,0,0,1.568,Pegmatite_16,6,16,3,6,1.568,-0.05,-0.396296296,1,0,0,1.6716,Pegmatite_rect,6,1.672,1,0,0,0,0,1,,,,,,,,,,,,,
5dcc3ec7db13278d75c8622f,SCN,2024-06-21_10h46.08.147,LearnStrategy,2023.2.3,Win32,60.24096386,8,1,2,-0.227777778,-0.422222222,1,0,0,2.2487,Pegmatite_13,6,13,1,3,2.249,-0.139814815,-0.403703704,1,0,0,0.7116,Pegmatite_rect,6,0.712,1,1,0,1,0,1,,,,,,,,,,,,,
5dcc3ec7db13278d75c8622f,SCN,2024-06-21_10h46.08.147,LearnStrategy,2023.2.3,Win32,60.24096386,8,1,3,-0.534259259,-0.084259259,1,0,0,1.4325,Pegmatite_03,6,03,3,1,1.432,-0.082407407,-0.39537037,1,0,0,0.7284,Pegmatite_rect,6,0.728,1,2,0,2,0,1,,,,,,,,,,,,,
5dcc3ec7db13278d75c8622f,SCN,2024-06-21_10h46.08.147,LearnStrategy,2023.2.3,Win32,60.24096386,8,1,4,0.084259259,0.224074074,1,0,0,0.6825,Peridotite_07,7,07,5,5,0.682,0.051851852,-0.401851852,1,0,0,1.2774,Peridotite_rect,7,1.277,1,3,0,3,0,1,,,,,,,,,,,,,
5dcc3ec7db13278d75c8622f,SCN,2024-06-21_10h46.08.147,LearnStrategy,2023.2.3,Win32,60.24096386,8,1,5,0.238888889,0.244444444,1,0,0,0.7825,Pumice_16,8,16,5,6,0.783,0.338888889,-0.400925926,1,0,0,1.3946,Pumice_rect,8,1.395,1,4,0,4,0,1,,,,,,,,,,,,,
5dcc3ec7db13278d75c8622f,SCN,2024-06-21_10h46.08.147,LearnStrategy,2023.2.3,Win32,60.24096386,8,1,6,0.255555556,0.081481481,1,0,0,1.2661,Diorite_06,3,06,4,6,1.266,0.389814815,-0.240740741,1,0,0,1.044,Gabbro_rect,4,1.044,0,5,0,5,0,1,,,,,,,,,,,,,
5dcc3ec7db13278d75c8622f,SCN,2024-06-21_10h46.08.147,LearnStrategy,2023.2.3,Win32,60.24096386,8,1,7,-0.388888889,0.107407407,1,0,0,1.0664,Diorite_08,3,08,4,2,1.066,0.105555556,-0.259259259,1,0,0,1.2611,Diorite_rect,3,1.261,1,6,0,6,0,1,,,,,,,,,,,,,
5dcc3ec7db13278d75c8622f,SCN,2024-06-21_10h46.08.147,LearnStrategy,2023.2.3,Win32,60.24096386,8,1,8,0.532407407,0.078703704,1,0,0,0.8828,Andesite_06,1,06,4,8,0.883,0.124074074,-0.239814815,1,0,0,0.8276,Diorite_rect,3,0.828,0,7,0,7,0,1,,,,,,,,,,,,,
5dcc3ec7db13278d75c8622f,SCN,2024-06-21_10h46.08.147,LearnStrategy,2023.2.3,Win32,60.24096386,8,1,9,0.402777778,-0.1,1,0,0,0.7822,Diorite_02,3,02,3,7,0.782,-0.343518519,-0.246296296,1,0,0,1.0618,Andesite_rect,1,1.062,0,8,0,8,0,1,,,,,,,,,,,,,
5dcc3ec7db13278d75c8622f,SCN,2024-06-21_10h46.08.147,LearnStrategy,2023.2.3,Win32,60.24096386,8,1,10,0.577777778,0.075925926,1,0,0,0.6991,Andesite_06,1,06,4,8,0.699,0.141666667,-0.248148148,1,0,0,0.7281,Diorite_rect,3,0.728,0,9,0,9,0,1,,,,,,,,,,,,,
5dcc3ec7db13278d75c8622f,SCN,2024-06-21_10h46.08.147,LearnStrategy,2023.2.3,Win32,60.24096386,8,1,11,0.550925926,-0.224074074,1,0,0,0.8162,Andesite_09,1,09,2,8,0.816,-0.332407407,-0.253703704,1,0,0,0.7944,Andesite_rect,1,0.794,1,10,0,10,0,1,,,,,,,,,,,,,
5dcc3ec7db13278d75c8622f,SCN,2024-06-21_10h46.08.147,LearnStrategy,2023.2.3,Win32,60.24096386,8,1,12,-0.568518519,0.105555556,1,0,0,0.8321,Andesite_07,1,07,4,1,0.832,-0.384259259,-0.247222222,1,0,0,1.7617,Andesite_rect,1,1.762,1,11,0,11,0,1,,,,,,,,,,,,,
5dcc3ec7db13278d75c8622f,SCN,2024-06-21_10h46.08.147,LearnStrategy,2023.2.3,Win32,60.24096386,8,1,13,0.557407407,-0.244444444,1,0,0,1.3496,Andesite_09,1,09,2,8,1.35,-0.414814815,-0.233333333,1,0,0,1.0114,Andesite_rect,1,1.011,1,12,0,12,0,1,,,,,,,,,,,,,
5dcc3ec7db13278d75c8622f,SCN,2024-06-21_10h46.08.147,LearnStrategy,2023.2.3,Win32,60.24096386,8,1,14,-0.058333333,0.088888889,1,0,0,1.0322,Basalt_12,2,12,4,4,1.032,-0.369444444,-0.237962963,1,0,0,0.9114,Andesite_rect,1,0.911,0,13,0,13,0,1,,,,,,,,,,,,,
5dcc3ec7db13278d75c8622f,SCN,2024-06-21_10h46.08.147,LearnStrategy,2023.2.3,Win32,60.24096386,8,1,15,0.083333333,0.246296296,1,0,0,1.1161,Peridotite_07,7,07,5,5,1.116,0.152777778,-0.401851852,1,0,0,1.8938,Peridotite_rect,7,1.894,1,14,0,14,0,1,,,,,,,,,,,,,
5dcc3ec7db13278d75c8622f,SCN,2024-06-21_10h46.08.147,LearnStrategy,2023.2.3,Win32,60.24096386,8,1,16,-0.113888889,0.240740741,1,0,0,1.4993,Peridotite_02,7,02,5,4,1.499,-0.111111111,-0.39537037,1,0,0,1.2616,Pegmatite_rect,6,1.262,0,15,0,15,0,1,,,,,,,,,,,,,
5dcc3ec7db13278d75c8622f,SCN,2024-06-21_10h46.08.147,LearnStrategy,2023.2.3,Win32,60.24096386,8,2,1,,,,,,,,1,02,,,,,,,,,,,1,2.444,1,,,,,,-0.337037037,-0.234259259,1,0,0,2.4441,Andesite_rect,0,0,0,0,1,
5dcc3ec7db13278d75c8622f,SCN,2024-06-21_10h46.08.147,LearnStrategy,2023.2.3,Win32,60.24096386,8,2,2,,,,,,,,3,07,,,,,,,,,,,1,3.178,0,,,,,,-0.384259259,-0.253703704,1,0,0,3.178,Andesite_rect,1,0,1,0,1,
5dcc3ec7db13278d75c8622f,SCN,2024-06-21_10h46.08.147,LearnStrategy,2023.2.3,Win32,60.24096386,8,2,3,,,,,,,,3,09,,,,,,,,,,,3,2.928,1,,,,,,0.097222222,-0.266666667,1,0,0,2.9284,Diorite_rect,2,0,2,0,1,
5dcc3ec7db13278d75c8622f,SCN,2024-06-21_10h46.08.147,LearnStrategy,2023.2.3,Win32,60.24096386,8,2,4,,,,,,,,2,09,,,,,,,,,,,2,1.158,1,,,,,,-0.113888889,-0.260185185,1,0,0,1.1578,Basalt_rect,3,0,3,0,1,
5dcc3ec7db13278d75c8622f,SCN,2024-06-21_10h46.08.147,LearnStrategy,2023.2.3,Win32,60.24096386,8,2,5,,,,,,,,6,08,,,,,,,,,,,5,0.952,0,,,,,,-0.375,-0.414814815,1,0,0,0.952,Obsidian_rect,4,0,4,0,1,
5dcc3ec7db13278d75c8622f,SCN,2024-06-21_10h46.08.147,LearnStrategy,2023.2.3,Win32,60.24096386,8,2,6,,,,,,,,7,08,,,,,,,,,,,6,1.668,0,,,,,,-0.148148148,-0.399074074,1,0,0,1.6685,Pegmatite_rect,5,0,5,0,1,
5dcc3ec7db13278d75c8622f,SCN,2024-06-21_10h46.08.147,LearnStrategy,2023.2.3,Win32,60.24096386,8,2,7,,,,,,,,4,13,,,,,,,,,,,7,3.612,0,,,,,,0.133333333,-0.399074074,1,0,0,3.612,Peridotite_rect,6,0,6,0,1,
5dcc3ec7db13278d75c8622f,SCN,2024-06-21_10h46.08.147,LearnStrategy,2023.2.3,Win32,60.24096386,8,2,8,,,,,,,,5,02,,,,,,,,,,,5,1.178,1,,,,,,-0.387037037,-0.414814815,1,0,0,1.1785,Obsidian_rect,7,0,7,0,1,
5dcc3ec7db13278d75c8622f,SCN,2024-06-21_10h46.08.147,LearnStrategy,2023.2.3,Win32,60.24096386,8,2,9,,,,,,,,1,14,,,,,,,,,,,1,1.515,1,,,,,,-0.415740741,-0.262037037,1,0,0,1.5149,Andesite_rect,8,0,8,0,1,
5dcc3ec7db13278d75c8622f,SCN,2024-06-21_10h46.08.147,LearnStrategy,2023.2.3,Win32,60.24096386,8,2,10,,,,,,,,7,10,,,,,,,,,,,6,1.478,0,,,,,,-0.100925926,-0.421296296,1,0,0,1.4782,Pegmatite_rect,9,0,9,0,1,
5dcc3ec7db13278d75c8622f,SCN,2024-06-21_10h46.08.147,LearnStrategy,2023.2.3,Win32,60.24096386,8,2,11,,,,,,,,8,04,,,,,,,,,,,8,0.929,1,,,,,,0.353703704,-0.405555556,1,0,0,0.9289,Pumice_rect,10,0,10,0,1,
5dcc3ec7db13278d75c8622f,SCN,2024-06-21_10h46.08.147,LearnStrategy,2023.2.3,Win32,60.24096386,8,2,12,,,,,,,,5,14,,,,,,,,,,,5,0.995,1,,,,,,-0.432407407,-0.421296296,1,0,0,0.9945,Obsidian_rect,11,0,11,0,1,
5dcc3ec7db13278d75c8622f,SCN,2024-06-21_10h46.08.147,LearnStrategy,2023.2.3,Win32,60.24096386,8,2,13,,,,,,,,6,15,,,,,,,,,,,6,1.411,1,,,,,,-0.128703704,-0.388888889,1,0,0,1.411,Pegmatite_rect,12,0,12,0,1,
5dcc3ec7db13278d75c8622f,SCN,2024-06-21_10h46.08.147,LearnStrategy,2023.2.3,Win32,60.24096386,8,2,14,,,,,,,,8,14,,,,,,,,,,,8,1.045,1,,,,,,0.389814815,-0.397222222,1,0,0,1.0451,Pumice_rect,13,0,13,0,1,
5dcc3ec7db13278d75c8622f,SCN,2024-06-21_10h46.08.147,LearnStrategy,2023.2.3,Win32,60.24096386,8,2,15,,,,,,,,2,04,,,,,,,,,,,2,0.979,1,,,,,,-0.160185185,-0.250925926,1,0,0,0.9788,Basalt_rect,14,0,14,0,1,
5dcc3ec7db13278d75c8622f,SCN,2024-06-21_10h46.08.147,LearnStrategy,2023.2.3,Win32,60.24096386,8,2,16,,,,,,,,4,14,,,,,,,,,,,4,1.912,1,,,,,,0.412962963,-0.242592593,1,0,0,1.9117,Gabbro_rect,15,0,15,0,1,
5dcc3ec7db13278d75c8622f,SCN,2024-06-21_10h46.08.147,LearnStrategy,2023.2.3,Win32,60.24096386,9,1,1,0.056481481,-0.112037037,1,0,0,0.9994,Basalt_01,2,01,3,5,0.999,-0.089814815,-0.231481481,1,0,0,0.7617,Basalt_rect,2,0.762,1,0,0,0,0,1,,,,,,,,,,,,,
5dcc3ec7db13278d75c8622f,SCN,2024-06-21_10h46.08.147,LearnStrategy,2023.2.3,Win32,60.24096386,9,1,2,-0.091666667,-0.100925926,1,0,0,0.5159,Gabbro_09,4,09,3,4,0.516,-0.4,-0.243518519,1,0,0,1.4945,Andesite_rect,1,1.495,0,1,0,1,0,1,,,,,,,,,,,,,
5dcc3ec7db13278d75c8622f,SCN,2024-06-21_10h46.08.147,LearnStrategy,2023.2.3,Win32,60.24096386,9,1,3,0.033333333,0.075925926,1,0,0,1.174,Diorite_10,3,10,4,5,1.174,-0.488888889,-0.251851852,1,0,0,0.7612,Andesite_rect,1,0.761,0,2,0,2,0,1,,,,,,,,,,,,,
5dcc3ec7db13278d75c8622f,SCN,2024-06-21_10h46.08.147,LearnStrategy,2023.2.3,Win32,60.24096386,9,1,4,0.236111111,0.077777778,1,0,0,0.6821,Diorite_06,3,06,4,6,0.682,-0.400925926,-0.24537037,1,0,0,0.8606,Andesite_rect,1,0.861,0,3,0,3,0,1,,,,,,,,,,,,,
5dcc3ec7db13278d75c8622f,SCN,2024-06-21_10h46.08.147,LearnStrategy,2023.2.3,Win32,60.24096386,9,1,5,0.237037037,0.076851852,1,0,0,0.5821,Diorite_06,3,06,4,6,0.582,0.485185185,-0.261111111,1,0,0,0.5446,Gabbro_rect,4,0.545,0,4,0,4,0,1,,,,,,,,,,,,,
5dcc3ec7db13278d75c8622f,SCN,2024-06-21_10h46.08.147,LearnStrategy,2023.2.3,Win32,60.24096386,9,1,6,0.412037037,-0.080555556,1,0,0,0.7491,Diorite_02,3,02,3,7,0.749,-0.405555556,-0.258333333,1,0,0,0.6946,Andesite_rect,1,0.695,0,5,0,5,0,1,,,,,,,,,,,,,
5dcc3ec7db13278d75c8622f,SCN,2024-06-21_10h46.08.147,LearnStrategy,2023.2.3,Win32,60.24096386,9,1,7,0.084259259,-0.244444444,1,0,0,1.2655,Gabbro_12,4,12,2,5,1.266,-0.391666667,-0.242592593,1,0,0,0.7615,Andesite_rect,1,0.762,0,6,0,6,0,1,,,,,,,,,,,,,
5dcc3ec7db13278d75c8622f,SCN,2024-06-21_10h46.08.147,LearnStrategy,2023.2.3,Win32,60.24096386,9,1,8,-0.412962963,0.07037037,1,0,0,2.2661,Diorite_08,3,08,4,2,2.266,-0.339814815,-0.266666667,1,0,0,1.1114,Andesite_rect,1,1.111,0,7,0,7,0,1,,,,,,,,,,,,,
5dcc3ec7db13278d75c8622f,SCN,2024-06-21_10h46.08.147,LearnStrategy,2023.2.3,Win32,60.24096386,9,1,9,-0.521296296,0.071296296,1,0,0,0.8654,Andesite_07,1,07,4,1,0.865,-0.37962963,-0.235185185,1,0,0,0.7452,Andesite_rect,1,0.745,1,8,0,8,0,1,,,,,,,,,,,,,
5dcc3ec7db13278d75c8622f,SCN,2024-06-21_10h46.08.147,LearnStrategy,2023.2.3,Win32,60.24096386,9,1,10,-0.360185185,0.093518519,1,0,0,0.6885,Diorite_08,3,08,4,2,0.689,0.159259259,-0.253703704,1,0,0,2.0791,Diorite_rect,3,2.079,1,9,0,9,0,1,,,,,,,,,,,,,
5dcc3ec7db13278d75c8622f,SCN,2024-06-21_10h46.08.147,LearnStrategy,2023.2.3,Win32,60.24096386,9,1,11,0.372222222,-0.097222222,1,0,0,0.902,Diorite_02,3,02,3,7,0.902,0.178703704,-0.261111111,1,0,0,0.5619,Diorite_rect,3,0.562,1,10,0,10,0,1,,,,,,,,,,,,,
5dcc3ec7db13278d75c8622f,SCN,2024-06-21_10h46.08.147,LearnStrategy,2023.2.3,Win32,60.24096386,9,1,12,0.412037037,-0.406481481,1,0,0,1.9852,Peridotite_16,7,16,1,7,1.985,0.15,-0.25462963,1,0,0,1.3628,Diorite_rect,3,1.363,0,11,0,11,0,1,,,,,,,,,,,,,
5dcc3ec7db13278d75c8622f,SCN,2024-06-21_10h46.08.147,LearnStrategy,2023.2.3,Win32,60.24096386,9,1,13,-0.364814815,-0.265740741,1,0,0,0.9692,Diorite_11,3,11,2,2,0.969,-0.362962963,-0.265740741,1,0,0,1.1789,Andesite_rect,1,1.179,0,12,0,12,0,1,,,,,,,,,,,,,
5dcc3ec7db13278d75c8622f,SCN,2024-06-21_10h46.08.147,LearnStrategy,2023.2.3,Win32,60.24096386,9,1,14,-0.512962963,0.075925926,1,0,0,2.0021,Andesite_07,1,07,4,1,2.002,-0.336111111,-0.250925926,1,0,0,0.7786,Andesite_rect,1,0.779,1,13,0,13,0,1,,,,,,,,,,,,,
5dcc3ec7db13278d75c8622f,SCN,2024-06-21_10h46.08.147,LearnStrategy,2023.2.3,Win32,60.24096386,9,1,15,-0.349074074,0.099074074,1,0,0,0.6688,Diorite_08,3,08,4,2,0.669,-0.37037037,-0.25462963,1,0,0,0.8467,Andesite_rect,1,0.847,0,14,0,14,0,1,,,,,,,,,,,,,
5dcc3ec7db13278d75c8622f,SCN,2024-06-21_10h46.08.147,LearnStrategy,2023.2.3,Win32,60.24096386,9,1,16,-0.581481481,0.103703704,1,0,0,1.8522,Andesite_07,1,07,4,1,1.852,-0.375925926,-0.233333333,1,0,0,1.0293,Andesite_rect,1,1.029,1,15,0,15,0,1,,,,,,,,,,,,,
5dcc3ec7db13278d75c8622f,SCN,2024-06-21_10h46.08.147,LearnStrategy,2023.2.3,Win32,60.24096386,9,2,1,,,,,,,,8,13,,,,,,,,,,,8,4.248,1,,,,,,0.447222222,-0.42037037,1,0,0,4.2482,Pumice_rect,0,0,0,0,1,
5dcc3ec7db13278d75c8622f,SCN,2024-06-21_10h46.08.147,LearnStrategy,2023.2.3,Win32,60.24096386,9,2,2,,,,,,,,3,14,,,,,,,,,,,3,5.432,1,,,,,,0.162962963,-0.255555556,1,0,0,5.4317,Diorite_rect,1,0,1,0,1,
5dcc3ec7db13278d75c8622f,SCN,2024-06-21_10h46.08.147,LearnStrategy,2023.2.3,Win32,60.24096386,9,2,3,,,,,,,,7,15,,,,,,,,,,,7,1.792,1,,,,,,0.038888889,-0.414814815,1,0,0,1.792,Peridotite_rect,2,0,2,0,1,
5dcc3ec7db13278d75c8622f,SCN,2024-06-21_10h46.08.147,LearnStrategy,2023.2.3,Win32,60.24096386,9,2,4,,,,,,,,7,04,,,,,,,,,,,6,0.885,0,,,,,,-0.114814815,-0.410185185,1,0,0,0.8855,Pegmatite_rect,3,0,3,0,1,
5dcc3ec7db13278d75c8622f,SCN,2024-06-21_10h46.08.147,LearnStrategy,2023.2.3,Win32,60.24096386,9,2,5,,,,,,,,1,11,,,,,,,,,,,1,1.952,1,,,,,,-0.366666667,-0.244444444,1,0,0,1.9525,Andesite_rect,4,0,4,0,1,
5dcc3ec7db13278d75c8622f,SCN,2024-06-21_10h46.08.147,LearnStrategy,2023.2.3,Win32,60.24096386,9,2,6,,,,,,,,3,16,,,,,,,,,,,1,1.518,0,,,,,,-0.35462963,-0.251851852,1,0,0,1.5183,Andesite_rect,5,0,5,0,1,
5dcc3ec7db13278d75c8622f,SCN,2024-06-21_10h46.08.147,LearnStrategy,2023.2.3,Win32,60.24096386,9,2,7,,,,,,,,1,05,,,,,,,,,,,3,0.895,0,,,,,,0.166666667,-0.268518519,1,0,0,0.895,Diorite_rect,6,0,6,0,1,
5dcc3ec7db13278d75c8622f,SCN,2024-06-21_10h46.08.147,LearnStrategy,2023.2.3,Win32,60.24096386,9,2,8,,,,,,,,4,10,,,,,,,,,,,4,2.945,1,,,,,,0.414814815,-0.267592593,1,0,0,2.9449,Gabbro_rect,7,0,7,0,1,
5dcc3ec7db13278d75c8622f,SCN,2024-06-21_10h46.08.147,LearnStrategy,2023.2.3,Win32,60.24096386,9,2,9,,,,,,,,2,11,,,,,,,,,,,4,4.822,0,,,,,,0.373148148,-0.251851852,1,0,0,4.8217,Gabbro_rect,8,0,8,0,1,
5dcc3ec7db13278d75c8622f,SCN,2024-06-21_10h46.08.147,LearnStrategy,2023.2.3,Win32,60.24096386,9,2,10,,,,,,,,6,12,,,,,,,,,,,1,1.155,0,,,,,,-0.391666667,-0.264814815,1,0,0,1.1547,Andesite_rect,9,0,9,0,1,
5dcc3ec7db13278d75c8622f,SCN,2024-06-21_10h46.08.147,LearnStrategy,2023.2.3,Win32,60.24096386,9,2,11,,,,,,,,5,04,,,,,,,,,,,5,0.844,1,,,,,,-0.382407407,-0.4,1,0,0,0.8437,Obsidian_rect,10,0,10,0,1,
5dcc3ec7db13278d75c8622f,SCN,2024-06-21_10h46.08.147,LearnStrategy,2023.2.3,Win32,60.24096386,9,2,12,,,,,,,,2,06,,,,,,,,,,,2,1.428,1,,,,,,-0.122222222,-0.25462963,1,0,0,1.4279,Basalt_rect,11,0,11,0,1,
5dcc3ec7db13278d75c8622f,SCN,2024-06-21_10h46.08.147,LearnStrategy,2023.2.3,Win32,60.24096386,9,2,13,,,,,,,,5,05,,,,,,,,,,,5,0.878,1,,,,,,-0.391666667,-0.419444444,1,0,0,0.8784,Obsidian_rect,12,0,12,0,1,
5dcc3ec7db13278d75c8622f,SCN,2024-06-21_10h46.08.147,LearnStrategy,2023.2.3,Win32,60.24096386,9,2,14,,,,,,,,6,10,,,,,,,,,,,6,1.112,1,,,,,,-0.110185185,-0.413888889,1,0,0,1.1118,Pegmatite_rect,13,0,13,0,1,
5dcc3ec7db13278d75c8622f,SCN,2024-06-21_10h46.08.147,LearnStrategy,2023.2.3,Win32,60.24096386,9,2,15,,,,,,,,8,09,,,,,,,,,,,8,1.128,1,,,,,,0.442592593,-0.398148148,1,0,0,1.1284,Pumice_rect,14,0,14,0,1,
5dcc3ec7db13278d75c8622f,SCN,2024-06-21_10h46.08.147,LearnStrategy,2023.2.3,Win32,60.24096386,9,2,16,,,,,,,,4,11,,,,,,,,,,,2,2.595,0,,,,,,-0.139814815,-0.259259259,1,0,0,2.5953,Basalt_rect,15,0,15,0,1,
5dcc3ec7db13278d75c8622f,SCN,2024-06-21_10h46.08.147,LearnStrategy,2023.2.3,Win32,60.24096386,,,,,,,,,,,,,,,,,,,,,,,,,,,,,,,,,,,,,,,,,,,1
5dcc3ec7db13278d75c8622f,SCN,2024-06-21_10h46.08.147,LearnStrategy,2023.2.3,Win32,60.24096386,,,,,,,,,,,,,,,,,,,,,,,,,,,,,,,,,,,,,,,,,,,
5dcc3ec7db13278d75c8622f,SCN,2024-06-21_10h46.08.147,LearnStrategy,2023.2.3,Win32,60.24096386,,,,,,,,,,,8,08,1,1,,,,,,,,,,,,,,,,,,,,,,,,,,,,,
5dcc3ec7db13278d75c8622f,SCN,2024-06-21_10h46.08.147,LearnStrategy,2023.2.3,Win32,60.24096386,,,,,,,,,,,7,12,1,2,,,,,,,,,,,,,,,,,,,,,,,,,,,,,
5dcc3ec7db13278d75c8622f,SCN,2024-06-21_10h46.08.147,LearnStrategy,2023.2.3,Win32,60.24096386,,,,,,,,,,,6,13,1,3,,,,,,,,,,,,,,,,,,,,,,,,,,,,,
5dcc3ec7db13278d75c8622f,SCN,2024-06-21_10h46.08.147,LearnStrategy,2023.2.3,Win32,60.24096386,,,,,,,,,,,1,03,1,4,,,,,,,,,,,,,,,,,,,,,,,,,,,,,
5dcc3ec7db13278d75c8622f,SCN,2024-06-21_10h46.08.147,LearnStrategy,2023.2.3,Win32,60.24096386,,,,,,,,,,,5,16,1,5,,,,,,,,,,,,,,,,,,,,,,,,,,,,,
5dcc3ec7db13278d75c8622f,SCN,2024-06-21_10h46.08.147,LearnStrategy,2023.2.3,Win32,60.24096386,,,,,,,,,,,7,14,1,6,,,,,,,,,,,,,,,,,,,,,,,,,,,,,
5dcc3ec7db13278d75c8622f,SCN,2024-06-21_10h46.08.147,LearnStrategy,2023.2.3,Win32,60.24096386,,,,,,,,,,,7,16,1,7,,,,,,,,,,,,,,,,,,,,,,,,,,,,,
5dcc3ec7db13278d75c8622f,SCN,2024-06-21_10h46.08.147,LearnStrategy,2023.2.3,Win32,60.24096386,,,,,,,,,,,2,14,1,8,,,,,,,,,,,,,,,,,,,,,,,,,,,,,
5dcc3ec7db13278d75c8622f,SCN,2024-06-21_10h46.08.147,LearnStrategy,2023.2.3,Win32,60.24096386,,,,,,,,,,,8,15,2,1,,,,,,,,,,,,,,,,,,,,,,,,,,,,,
5dcc3ec7db13278d75c8622f,SCN,2024-06-21_10h46.08.147,LearnStrategy,2023.2.3,Win32,60.24096386,,,,,,,,,,,3,11,2,2,,,,,,,,,,,,,,,,,,,,,,,,,,,,,
5dcc3ec7db13278d75c8622f,SCN,2024-06-21_10h46.08.147,LearnStrategy,2023.2.3,Win32,60.24096386,,,,,,,,,,,4,16,2,3,,,,,,,,,,,,,,,,,,,,,,,,,,,,,
5dcc3ec7db13278d75c8622f,SCN,2024-06-21_10h46.08.147,LearnStrategy,2023.2.3,Win32,60.24096386,,,,,,,,,,,4,15,2,4,,,,,,,,,,,,,,,,,,,,,,,,,,,,,
5dcc3ec7db13278d75c8622f,SCN,2024-06-21_10h46.08.147,LearnStrategy,2023.2.3,Win32,60.24096386,,,,,,,,,,,4,12,2,5,,,,,,,,,,,,,,,,,,,,,,,,,,,,,
5dcc3ec7db13278d75c8622f,SCN,2024-06-21_10h46.08.147,LearnStrategy,2023.2.3,Win32,60.24096386,,,,,,,,,,,2,02,2,6,,,,,,,,,,,,,,,,,,,,,,,,,,,,,
5dcc3ec7db13278d75c8622f,SCN,2024-06-21_10h46.08.147,LearnStrategy,2023.2.3,Win32,60.24096386,,,,,,,,,,,7,05,2,7,,,,,,,,,,,,,,,,,,,,,,,,,,,,,
5dcc3ec7db13278d75c8622f,SCN,2024-06-21_10h46.08.147,LearnStrategy,2023.2.3,Win32,60.24096386,,,,,,,,,,,1,09,2,8,,,,,,,,,,,,,,,,,,,,,,,,,,,,,
5dcc3ec7db13278d75c8622f,SCN,2024-06-21_10h46.08.147,LearnStrategy,2023.2.3,Win32,60.24096386,,,,,,,,,,,6,03,3,1,,,,,,,,,,,,,,,,,,,,,,,,,,,,,
5dcc3ec7db13278d75c8622f,SCN,2024-06-21_10h46.08.147,LearnStrategy,2023.2.3,Win32,60.24096386,,,,,,,,,,,2,05,3,2,,,,,,,,,,,,,,,,,,,,,,,,,,,,,
5dcc3ec7db13278d75c8622f,SCN,2024-06-21_10h46.08.147,LearnStrategy,2023.2.3,Win32,60.24096386,,,,,,,,,,,8,05,3,3,,,,,,,,,,,,,,,,,,,,,,,,,,,,,
5dcc3ec7db13278d75c8622f,SCN,2024-06-21_10h46.08.147,LearnStrategy,2023.2.3,Win32,60.24096386,,,,,,,,,,,4,09,3,4,,,,,,,,,,,,,,,,,,,,,,,,,,,,,
5dcc3ec7db13278d75c8622f,SCN,2024-06-21_10h46.08.147,LearnStrategy,2023.2.3,Win32,60.24096386,,,,,,,,,,,2,01,3,5,,,,,,,,,,,,,,,,,,,,,,,,,,,,,
5dcc3ec7db13278d75c8622f,SCN,2024-06-21_10h46.08.147,LearnStrategy,2023.2.3,Win32,60.24096386,,,,,,,,,,,6,16,3,6,,,,,,,,,,,,,,,,,,,,,,,,,,,,,
5dcc3ec7db13278d75c8622f,SCN,2024-06-21_10h46.08.147,LearnStrategy,2023.2.3,Win32,60.24096386,,,,,,,,,,,3,02,3,7,,,,,,,,,,,,,,,,,,,,,,,,,,,,,
5dcc3ec7db13278d75c8622f,SCN,2024-06-21_10h46.08.147,LearnStrategy,2023.2.3,Win32,60.24096386,,,,,,,,,,,6,09,3,8,,,,,,,,,,,,,,,,,,,,,,,,,,,,,
5dcc3ec7db13278d75c8622f,SCN,2024-06-21_10h46.08.147,LearnStrategy,2023.2.3,Win32,60.24096386,,,,,,,,,,,1,07,4,1,,,,,,,,,,,,,,,,,,,,,,,,,,,,,
5dcc3ec7db13278d75c8622f,SCN,2024-06-21_10h46.08.147,LearnStrategy,2023.2.3,Win32,60.24096386,,,,,,,,,,,3,08,4,2,,,,,,,,,,,,,,,,,,,,,,,,,,,,,
5dcc3ec7db13278d75c8622f,SCN,2024-06-21_10h46.08.147,LearnStrategy,2023.2.3,Win32,60.24096386,,,,,,,,,,,5,06,4,3,,,,,,,,,,,,,,,,,,,,,,,,,,,,,
5dcc3ec7db13278d75c8622f,SCN,2024-06-21_10h46.08.147,LearnStrategy,2023.2.3,Win32,60.24096386,,,,,,,,,,,2,12,4,4,,,,,,,,,,,,,,,,,,,,,,,,,,,,,
5dcc3ec7db13278d75c8622f,SCN,2024-06-21_10h46.08.147,LearnStrategy,2023.2.3,Win32,60.24096386,,,,,,,,,,,3,10,4,5,,,,,,,,,,,,,,,,,,,,,,,,,,,,,
5dcc3ec7db13278d75c8622f,SCN,2024-06-21_10h46.08.147,LearnStrategy,2023.2.3,Win32,60.24096386,,,,,,,,,,,3,06,4,6,,,,,,,,,,,,,,,,,,,,,,,,,,,,,
5dcc3ec7db13278d75c8622f,SCN,2024-06-21_10h46.08.147,LearnStrategy,2023.2.3,Win32,60.24096386,,,,,,,,,,,5,07,4,7,,,,,,,,,,,,,,,,,,,,,,,,,,,,,
5dcc3ec7db13278d75c8622f,SCN,2024-06-21_10h46.08.147,LearnStrategy,2023.2.3,Win32,60.24096386,,,,,,,,,,,1,06,4,8,,,,,,,,,,,,,,,,,,,,,,,,,,,,,
5dcc3ec7db13278d75c8622f,SCN,2024-06-21_10h46.08.147,LearnStrategy,2023.2.3,Win32,60.24096386,,,,,,,,,,,8,03,5,1,,,,,,,,,,,,,,,,,,,,,,,,,,,,,
5dcc3ec7db13278d75c8622f,SCN,2024-06-21_10h46.08.147,LearnStrategy,2023.2.3,Win32,60.24096386,,,,,,,,,,,5,12,5,2,,,,,,,,,,,,,,,,,,,,,,,,,,,,,
5dcc3ec7db13278d75c8622f,SCN,2024-06-21_10h46.08.147,LearnStrategy,2023.2.3,Win32,60.24096386,,,,,,,,,,,1,04,5,3,,,,,,,,,,,,,,,,,,,,,,,,,,,,,
5dcc3ec7db13278d75c8622f,SCN,2024-06-21_10h46.08.147,LearnStrategy,2023.2.3,Win32,60.24096386,,,,,,,,,,,7,02,5,4,,,,,,,,,,,,,,,,,,,,,,,,,,,,,
5dcc3ec7db13278d75c8622f,SCN,2024-06-21_10h46.08.147,LearnStrategy,2023.2.3,Win32,60.24096386,,,,,,,,,,,7,07,5,5,,,,,,,,,,,,,,,,,,,,,,,,,,,,,
5dcc3ec7db13278d75c8622f,SCN,2024-06-21_10h46.08.147,LearnStrategy,2023.2.3,Win32,60.24096386,,,,,,,,,,,8,16,5,6,,,,,,,,,,,,,,,,,,,,,,,,,,,,,
5dcc3ec7db13278d75c8622f,SCN,2024-06-21_10h46.08.147,LearnStrategy,2023.2.3,Win32,60.24096386,,,,,,,,,,,5,09,5,7,,,,,,,,,,,,,,,,,,,,,,,,,,,,,
5dcc3ec7db13278d75c8622f,SCN,2024-06-21_10h46.08.147,LearnStrategy,2023.2.3,Win32,60.24096386,,,,,,,,,,,4,01,5,8,,,,,,,,,,,,,,,,,,,,,,,,,,,,,
5dcc3ec7db13278d75c8622f,SCN,2024-06-21_10h46.08.147,LearnStrategy,2023.2.3,Win32,60.24096386,,,,,,,,,,,4,05,6,1,,,,,,,,,,,,,,,,,,,,,,,,,,,,,
5dcc3ec7db13278d75c8622f,SCN,2024-06-21_10h46.08.147,LearnStrategy,2023.2.3,Win32,60.24096386,,,,,,,,,,,3,12,6,2,,,,,,,,,,,,,,,,,,,,,,,,,,,,,
5dcc3ec7db13278d75c8622f,SCN,2024-06-21_10h46.08.147,LearnStrategy,2023.2.3,Win32,60.24096386,,,,,,,,,,,5,08,6,3,,,,,,,,,,,,,,,,,,,,,,,,,,,,,
5dcc3ec7db13278d75c8622f,SCN,2024-06-21_10h46.08.147,LearnStrategy,2023.2.3,Win32,60.24096386,,,,,,,,,,,6,05,6,4,,,,,,,,,,,,,,,,,,,,,,,,,,,,,
5dcc3ec7db13278d75c8622f,SCN,2024-06-21_10h46.08.147,LearnStrategy,2023.2.3,Win32,60.24096386,,,,,,,,,,,1,10,6,5,,,,,,,,,,,,,,,,,,,,,,,,,,,,,
5dcc3ec7db13278d75c8622f,SCN,2024-06-21_10h46.08.147,LearnStrategy,2023.2.3,Win32,60.24096386,,,,,,,,,,,8,10,6,6,,,,,,,,,,,,,,,,,,,,,,,,,,,,,
5dcc3ec7db13278d75c8622f,SCN,2024-06-21_10h46.08.147,LearnStrategy,2023.2.3,Win32,60.24096386,,,,,,,,,,,6,06,6,7,,,,,,,,,,,,,,,,,,,,,,,,,,,,,
5dcc3ec7db13278d75c8622f,SCN,2024-06-21_10h46.08.147,LearnStrategy,2023.2.3,Win32,60.24096386,,,,,,,,,,,2,10,6,8,,,,,,,,,,,,,,,,,,,,,,,,,,,,,