participant,condition,date,expName,psychopyVersion,OS,frameRate,block,phase,trial,learn_mouse_2.x,learn_mouse_2.y,learn_mouse_2.leftButton,learn_mouse_2.midButton,learn_mouse_2.rightButton,learn_mouse_2.time,learn_mouse_2.clicked_name,cat,token,row,col,t_select,cat_mouse_l.x,cat_mouse_l.y,cat_mouse_l.leftButton,cat_mouse_l.midButton,cat_mouse_l.rightButton,cat_mouse_l.time,cat_mouse_l.clicked_name,resp,t_resp,corr,train_trials.thisRepN,train_trials.thisTrialN,train_trials.thisN,train_trials.thisIndex,train_trials.ran,cat_mouse_t.x,cat_mouse_t.y,cat_mouse_t.leftButton,cat_mouse_t.midButton,cat_mouse_t.rightButton,cat_mouse_t.time,cat_mouse_t.clicked_name,test_trials.thisRepN,test_trials.thisTrialN,test_trials.thisN,test_trials.thisIndex,test_trials.ran,Bonus
5dd4074feab0423daf012f92,TCR,2024-06-20_16h34.11.715,LearnStrategy,2023.2.3,MacIntel,57.47126437,,,,,,,,,,,,,,,,,,,,,,,,,,,,,,,,,,,,,,,,,,,
5dd4074feab0423daf012f92,TCR,2024-06-20_16h34.11.715,LearnStrategy,2023.2.3,MacIntel,57.47126437,1,1,1,-0.011888021,0.00125,1,0,0,4.6358,rock_grid_rect_2,2,2,-1,-1,4.636,0.478949653,-0.39500434,1,0,0,17.7034,Pumice_rect,8,17.703,0,0,0,0,0,1,,,,,,,,,,,,,
5dd4074feab0423daf012f92,TCR,2024-06-20_16h34.11.715,LearnStrategy,2023.2.3,MacIntel,57.47126437,1,1,2,-0.116818576,-0.007486979,1,0,0,3.4358,rock_grid_rect_2,4,14,-1,-1,3.436,0.114561632,-0.400520833,1,0,0,15.2748,Peridotite_rect,7,15.275,0,1,0,1,0,1,,,,,,,,,,,,,
5dd4074feab0423daf012f92,TCR,2024-06-20_16h34.11.715,LearnStrategy,2023.2.3,MacIntel,57.47126437,1,1,3,-0.011684028,0.002803819,1,0,0,3.7021,rock_grid_rect_2,1,4,-1,-1,3.702,-0.140438368,-0.398363715,1,0,0,10.9432,Pegmatite_rect,6,10.943,0,2,0,2,0,1,,,,,,,,,,,,,
5dd4074feab0423daf012f92,TCR,2024-06-20_16h34.11.715,LearnStrategy,2023.2.3,MacIntel,57.47126437,1,1,4,0.024926215,0.014266493,1,0,0,1.0477,rock_grid_rect_2,1,16,-1,-1,1.048,0.064722222,-0.38515191,1,0,0,3.8763,Peridotite_rect,7,3.876,0,3,0,3,0,1,,,,,,,,,,,,,
5dd4074feab0423daf012f92,TCR,2024-06-20_16h34.11.715,LearnStrategy,2023.2.3,MacIntel,57.47126437,1,1,5,0.007196181,-0.015347222,1,0,0,1.3138,rock_grid_rect_2,7,12,-1,-1,1.314,-0.35969184,-0.260360243,1,0,0,1.4758,Andesite_rect,1,1.476,0,4,0,4,0,1,,,,,,,,,,,,,
5dd4074feab0423daf012f92,TCR,2024-06-20_16h34.11.715,LearnStrategy,2023.2.3,MacIntel,57.47126437,1,1,6,-0.002061632,-0.010351562,1,0,0,0.9316,rock_grid_rect_2,2,9,-1,-1,0.932,-0.049079861,-0.249474826,1,0,0,1.2761,Basalt_rect,2,1.276,1,5,0,5,0,1,,,,,,,,,,,,,
5dd4074feab0423daf012f92,TCR,2024-06-20_16h34.11.715,LearnStrategy,2023.2.3,MacIntel,57.47126437,1,1,7,0.111532118,-0.015993924,1,0,0,0.8148,rock_grid_rect_2,7,14,-1,-1,0.815,-0.330303819,-0.252994792,1,0,0,5.0111,Andesite_rect,1,5.011,0,6,0,6,0,1,,,,,,,,,,,,,
5dd4074feab0423daf012f92,TCR,2024-06-20_16h34.11.715,LearnStrategy,2023.2.3,MacIntel,57.47126437,1,1,8,-0.147621528,-0.006796875,1,0,0,1.0301,rock_grid_rect_2,8,10,-1,-1,1.03,0.346861979,-0.40359809,1,0,0,3.3754,Pumice_rect,8,3.375,1,7,0,7,0,1,,,,,,,,,,,,,
5dd4074feab0423daf012f92,TCR,2024-06-20_16h34.11.715,LearnStrategy,2023.2.3,MacIntel,57.47126437,1,1,9,-0.080069444,0.002734375,1,0,0,1.0694,rock_grid_rect_2,5,5,-1,-1,1.069,-0.358389757,-0.385034722,1,0,0,1.5755,Obsidian_rect,5,1.576,1,8,0,8,0,1,,,,,,,,,,,,,
5dd4074feab0423daf012f92,TCR,2024-06-20_16h34.11.715,LearnStrategy,2023.2.3,MacIntel,57.47126437,1,1,10,-0.054084201,0.004930556,1,0,0,1.3377,rock_grid_rect_2,4,13,-1,-1,1.338,-0.114383681,-0.40937066,1,0,0,3.9763,Pegmatite_rect,6,3.976,0,9,0,9,0,1,,,,,,,,,,,,,
5dd4074feab0423daf012f92,TCR,2024-06-20_16h34.11.715,LearnStrategy,2023.2.3,MacIntel,57.47126437,1,1,11,-0.106644965,0.01030816,1,0,0,1.0613,rock_grid_rect_2,8,4,-1,-1,1.061,0.322013889,-0.415833333,1,0,0,1.361,Pumice_rect,8,1.361,1,10,0,10,0,1,,,,,,,,,,,,,
5dd4074feab0423daf012f92,TCR,2024-06-20_16h34.11.715,LearnStrategy,2023.2.3,MacIntel,57.47126437,1,1,12,0.05703559,-0.020143229,1,0,0,0.8647,rock_grid_rect_2,6,3,-1,-1,0.865,0.084605035,-0.244804688,1,0,0,10.1113,Diorite_rect,3,10.111,0,11,0,11,0,1,,,,,,,,,,,,,
5dd4074feab0423daf012f92,TCR,2024-06-20_16h34.11.715,LearnStrategy,2023.2.3,MacIntel,57.47126437,1,1,13,-0.012573785,-0.008823785,1,0,0,0.8471,rock_grid_rect_2,3,13,-1,-1,0.847,0.225368924,-0.402274306,1,0,0,8.392,Peridotite_rect,7,8.392,0,12,0,12,0,1,,,,,,,,,,,,,
5dd4074feab0423daf012f92,TCR,2024-06-20_16h34.11.715,LearnStrategy,2023.2.3,MacIntel,57.47126437,1,1,14,-0.008927951,0.015872396,1,0,0,0.7802,rock_grid_rect_2,3,2,-1,-1,0.78,-0.353949653,-0.239787326,1,0,0,4.0448,Andesite_rect,1,4.045,0,13,0,13,0,1,,,,,,,,,,,,,
5dd4074feab0423daf012f92,TCR,2024-06-20_16h34.11.715,LearnStrategy,2023.2.3,MacIntel,57.47126437,1,1,15,-0.071536458,-0.000516493,1,0,0,0.7979,rock_grid_rect_2,6,16,-1,-1,0.798,-0.078528646,-0.404075521,1,0,0,6.9265,Pegmatite_rect,6,6.927,1,14,0,14,0,1,,,,,,,,,,,,,
5dd4074feab0423daf012f92,TCR,2024-06-20_16h34.11.715,LearnStrategy,2023.2.3,MacIntel,57.47126437,1,1,16,0.002165799,0.017282986,1,0,0,0.9637,rock_grid_rect_2,5,10,-1,-1,0.964,-0.386158854,-0.378541667,1,0,0,1.3441,Obsidian_rect,5,1.344,1,15,0,15,0,1,,,,,,,,,,,,,
5dd4074feab0423daf012f92,TCR,2024-06-20_16h34.11.715,LearnStrategy,2023.2.3,MacIntel,57.47126437,1,2,1,,,,,,,,3,9,,,,,,,,,,,7,7.506,0,,,,,,0.121380208,-0.387621528,1,0,0,7.5056,Peridotite_rect,0,0,0,0,1,
5dd4074feab0423daf012f92,TCR,2024-06-20_16h34.11.715,LearnStrategy,2023.2.3,MacIntel,57.47126437,1,2,2,,,,,,,,5,16,,,,,,,,,,,5,1.31,1,,,,,,-0.374006076,-0.391549479,1,0,0,1.3104,Obsidian_rect,1,0,1,0,1,
5dd4074feab0423daf012f92,TCR,2024-06-20_16h34.11.715,LearnStrategy,2023.2.3,MacIntel,57.47126437,1,2,3,,,,,,,,1,1,,,,,,,,,,,3,3.778,0,,,,,,0.097335069,-0.231367187,1,0,0,3.7778,Diorite_rect,2,0,2,0,1,
5dd4074feab0423daf012f92,TCR,2024-06-20_16h34.11.715,LearnStrategy,2023.2.3,MacIntel,57.47126437,1,2,4,,,,,,,,7,15,,,,,,,,,,,6,2.024,0,,,,,,-0.134904514,-0.398684896,1,0,0,2.0244,Pegmatite_rect,3,0,3,0,1,
5dd4074feab0423daf012f92,TCR,2024-06-20_16h34.11.715,LearnStrategy,2023.2.3,MacIntel,57.47126437,1,2,5,,,,,,,,6,7,,,,,,,,,,,7,4.109,0,,,,,,0.13890191,-0.421935764,1,0,0,4.1093,Peridotite_rect,4,0,4,0,1,
5dd4074feab0423daf012f92,TCR,2024-06-20_16h34.11.715,LearnStrategy,2023.2.3,MacIntel,57.47126437,1,2,6,,,,,,,,2,1,,,,,,,,,,,2,1.29,1,,,,,,-0.066384549,-0.256662326,1,0,0,1.29,Basalt_rect,5,0,5,0,1,
5dd4074feab0423daf012f92,TCR,2024-06-20_16h34.11.715,LearnStrategy,2023.2.3,MacIntel,57.47126437,1,2,7,,,,,,,,3,6,,,,,,,,,,,1,4.71,0,,,,,,-0.374123264,-0.266241319,1,0,0,4.7104,Andesite_rect,6,0,6,0,1,
5dd4074feab0423daf012f92,TCR,2024-06-20_16h34.11.715,LearnStrategy,2023.2.3,MacIntel,57.47126437,1,2,8,,,,,,,,7,13,,,,,,,,,,,7,2.341,1,,,,,,0.056002604,-0.418763021,1,0,0,2.3408,Peridotite_rect,7,0,7,0,1,
5dd4074feab0423daf012f92,TCR,2024-06-20_16h34.11.715,LearnStrategy,2023.2.3,MacIntel,57.47126437,1,2,9,,,,,,,,8,8,,,,,,,,,,,8,1.259,1,,,,,,0.390104167,-0.404071181,1,0,0,1.2588,Pumice_rect,8,0,8,0,1,
5dd4074feab0423daf012f92,TCR,2024-06-20_16h34.11.715,LearnStrategy,2023.2.3,MacIntel,57.47126437,1,2,10,,,,,,,,5,2,,,,,,,,,,,5,1.075,1,,,,,,-0.39328125,-0.411848958,1,0,0,1.0751,Obsidian_rect,9,0,9,0,1,
5dd4074feab0423daf012f92,TCR,2024-06-20_16h34.11.715,LearnStrategy,2023.2.3,MacIntel,57.47126437,1,2,11,,,,,,,,4,9,,,,,,,,,,,2,2.525,0,,,,,,-0.155789931,-0.25483941,1,0,0,2.5254,Basalt_rect,10,0,10,0,1,
5dd4074feab0423daf012f92,TCR,2024-06-20_16h34.11.715,LearnStrategy,2023.2.3,MacIntel,57.47126437,1,2,12,,,,,,,,2,16,,,,,,,,,,,4,1.359,0,,,,,,0.388702257,-0.269153646,1,0,0,1.3591,Gabbro_rect,11,0,11,0,1,
5dd4074feab0423daf012f92,TCR,2024-06-20_16h34.11.715,LearnStrategy,2023.2.3,MacIntel,57.47126437,1,2,13,,,,,,,,8,2,,,,,,,,,,,8,1.042,1,,,,,,0.345451389,-0.396063368,1,0,0,1.0416,Pumice_rect,12,0,12,0,1,
5dd4074feab0423daf012f92,TCR,2024-06-20_16h34.11.715,LearnStrategy,2023.2.3,MacIntel,57.47126437,1,2,14,,,,,,,,6,11,,,,,,,,,,,7,4.058,0,,,,,,0.157751736,-0.408697917,1,0,0,4.0579,Peridotite_rect,13,0,13,0,1,
5dd4074feab0423daf012f92,TCR,2024-06-20_16h34.11.715,LearnStrategy,2023.2.3,MacIntel,57.47126437,1,2,15,,,,,,,,4,12,,,,,,,,,,,2,1.391,0,,,,,,-0.083480903,-0.231388889,1,0,0,1.3914,Basalt_rect,14,0,14,0,1,
5dd4074feab0423daf012f92,TCR,2024-06-20_16h34.11.715,LearnStrategy,2023.2.3,MacIntel,57.47126437,1,2,16,,,,,,,,1,3,,,,,,,,,,,1,2.525,1,,,,,,-0.317521701,-0.24687066,1,0,0,2.5253,Andesite_rect,15,0,15,0,1,
5dd4074feab0423daf012f92,TCR,2024-06-20_16h34.11.715,LearnStrategy,2023.2.3,MacIntel,57.47126437,2,1,1,-0.047725694,-0.008085937,1,0,0,1.081,rock_grid_rect_2,7,10,-1,-1,1.081,0.138033854,-0.389335938,1,0,0,1.3773,Peridotite_rect,7,1.377,1,0,0,0,0,1,,,,,,,,,,,,,
5dd4074feab0423daf012f92,TCR,2024-06-20_16h34.11.715,LearnStrategy,2023.2.3,MacIntel,57.47126437,2,1,2,0.04453559,0.010546875,1,0,0,0.8652,rock_grid_rect_2,8,6,-1,-1,0.865,0.403962674,-0.395698785,1,0,0,1.8601,Pumice_rect,8,1.86,1,1,0,1,0,1,,,,,,,,,,,,,
5dd4074feab0423daf012f92,TCR,2024-06-20_16h34.11.715,LearnStrategy,2023.2.3,MacIntel,57.47126437,2,1,3,-0.053676215,-0.021319444,1,0,0,0.9658,rock_grid_rect_2,4,10,-1,-1,0.966,-0.33390191,-0.414236111,1,0,0,5.7597,Obsidian_rect,5,5.76,0,2,0,2,0,1,,,,,,,,,,,,,
5dd4074feab0423daf012f92,TCR,2024-06-20_16h34.11.715,LearnStrategy,2023.2.3,MacIntel,57.47126437,2,1,4,-0.082261285,-0.003559028,1,0,0,1.0141,rock_grid_rect_2,5,14,-1,-1,1.014,-0.403029514,-0.394678819,1,0,0,1.9438,Obsidian_rect,5,1.944,1,3,0,3,0,1,,,,,,,,,,,,,
5dd4074feab0423daf012f92,TCR,2024-06-20_16h34.11.715,LearnStrategy,2023.2.3,MacIntel,57.47126437,2,1,5,-0.129197049,-0.021362847,1,0,0,0.7472,rock_grid_rect_2,6,6,-1,-1,0.747,0.148502604,-0.390690104,1,0,0,2.9437,Peridotite_rect,7,2.944,0,4,0,4,0,1,,,,,,,,,,,,,
5dd4074feab0423daf012f92,TCR,2024-06-20_16h34.11.715,LearnStrategy,2023.2.3,MacIntel,57.47126437,2,1,6,-0.02641059,-0.00452691,1,0,0,0.8307,rock_grid_rect_2,3,12,-1,-1,0.831,-0.307842882,-0.247300347,1,0,0,2.6265,Andesite_rect,1,2.626,0,5,0,5,0,1,,,,,,,,,,,,,
5dd4074feab0423daf012f92,TCR,2024-06-20_16h34.11.715,LearnStrategy,2023.2.3,MacIntel,57.47126437,2,1,7,-0.050251736,-0.019969618,1,0,0,0.8476,rock_grid_rect_2,5,7,-1,-1,0.848,-0.422664931,-0.408914931,1,0,0,1.8104,Obsidian_rect,5,1.81,1,6,0,6,0,1,,,,,,,,,,,,,
5dd4074feab0423daf012f92,TCR,2024-06-20_16h34.11.715,LearnStrategy,2023.2.3,MacIntel,57.47126437,2,1,8,-0.129570313,0.005164931,1,0,0,0.815,rock_grid_rect_2,8,3,-1,-1,0.815,0.408302951,-0.382730035,1,0,0,1.2597,Pumice_rect,8,1.26,1,7,0,7,0,1,,,,,,,,,,,,,
5dd4074feab0423daf012f92,TCR,2024-06-20_16h34.11.715,LearnStrategy,2023.2.3,MacIntel,57.47126437,2,1,9,0.030559896,0.003580729,1,0,0,0.8647,rock_grid_rect_2,3,14,-1,-1,0.865,0.190711806,-0.244796007,1,0,0,3.7136,Diorite_rect,3,3.714,1,8,0,8,0,1,,,,,,,,,,,,,
5dd4074feab0423daf012f92,TCR,2024-06-20_16h34.11.715,LearnStrategy,2023.2.3,MacIntel,57.47126437,2,1,10,0.006601562,0.005273438,1,0,0,0.8468,rock_grid_rect_2,2,11,-1,-1,0.847,-0.128229167,-0.242999132,1,0,0,1.1419,Basalt_rect,2,1.142,1,9,0,9,0,1,,,,,,,,,,,,,
5dd4074feab0423daf012f92,TCR,2024-06-20_16h34.11.715,LearnStrategy,2023.2.3,MacIntel,57.47126437,2,1,11,-0.052534722,-0.007638889,1,0,0,0.6981,rock_grid_rect_2,6,9,-1,-1,0.698,-0.124787326,-0.396184896,1,0,0,1.4119,Pegmatite_rect,6,1.412,1,10,0,10,0,1,,,,,,,,,,,,,
5dd4074feab0423daf012f92,TCR,2024-06-20_16h34.11.715,LearnStrategy,2023.2.3,MacIntel,57.47126437,2,1,12,-0.087686632,-0.003407118,1,0,0,0.7149,rock_grid_rect_2,4,3,-1,-1,0.715,-0.100338542,-0.263480903,1,0,0,1.8946,Basalt_rect,2,1.895,0,11,0,11,0,1,,,,,,,,,,,,,
5dd4074feab0423daf012f92,TCR,2024-06-20_16h34.11.715,LearnStrategy,2023.2.3,MacIntel,57.47126437,2,1,13,0.026796875,0.007434896,1,0,0,0.6817,rock_grid_rect_2,2,14,-1,-1,0.682,0.353802083,-0.245963542,1,0,0,2.3093,Gabbro_rect,4,2.309,0,12,0,12,0,1,,,,,,,,,,,,,
5dd4074feab0423daf012f92,TCR,2024-06-20_16h34.11.715,LearnStrategy,2023.2.3,MacIntel,57.47126437,2,1,14,-0.00796441,-0.011853299,1,0,0,0.7137,rock_grid_rect_2,7,2,-1,-1,0.714,0.138815104,-0.414926215,1,0,0,1.1112,Peridotite_rect,7,1.111,1,13,0,13,0,1,,,,,,,,,,,,,
5dd4074feab0423daf012f92,TCR,2024-06-20_16h34.11.715,LearnStrategy,2023.2.3,MacIntel,57.47126437,2,1,15,-0.042795139,-0.015164931,1,0,0,0.7314,rock_grid_rect_2,1,5,-1,-1,0.731,-0.320598958,-0.261896701,1,0,0,3.1274,Andesite_rect,1,3.127,1,14,0,14,0,1,,,,,,,,,,,,,
5dd4074feab0423daf012f92,TCR,2024-06-20_16h34.11.715,LearnStrategy,2023.2.3,MacIntel,57.47126437,2,1,16,0.047569444,0.01594184,1,0,0,1.9313,rock_grid_rect_2,1,2,-1,-1,1.931,0.135529514,-0.251336806,1,0,0,1.6926,Diorite_rect,3,1.693,0,15,0,15,0,1,,,,,,,,,,,,,
5dd4074feab0423daf012f92,TCR,2024-06-20_16h34.11.715,LearnStrategy,2023.2.3,MacIntel,57.47126437,2,2,1,,,,,,,,6,8,,,,,,,,,,,6,1.741,1,,,,,,-0.077070313,-0.404835069,1,0,0,1.7407,Pegmatite_rect,0,0,0,0,1,
5dd4074feab0423daf012f92,TCR,2024-06-20_16h34.11.715,LearnStrategy,2023.2.3,MacIntel,57.47126437,2,2,2,,,,,,,,8,13,,,,,,,,,,,8,1.408,1,,,,,,0.368715278,-0.41624566,1,0,0,1.4078,Pumice_rect,1,0,1,0,1,
5dd4074feab0423daf012f92,TCR,2024-06-20_16h34.11.715,LearnStrategy,2023.2.3,MacIntel,57.47126437,2,2,3,,,,,,,,6,10,,,,,,,,,,,7,1.042,0,,,,,,0.15828125,-0.407361111,1,0,0,1.0424,Peridotite_rect,2,0,2,0,1,
5dd4074feab0423daf012f92,TCR,2024-06-20_16h34.11.715,LearnStrategy,2023.2.3,MacIntel,57.47126437,2,2,4,,,,,,,,7,16,,,,,,,,,,,4,3.141,0,,,,,,0.338090278,-0.253146701,1,0,0,3.1412,Gabbro_rect,3,0,3,0,1,
5dd4074feab0423daf012f92,TCR,2024-06-20_16h34.11.715,LearnStrategy,2023.2.3,MacIntel,57.47126437,2,2,5,,,,,,,,5,4,,,,,,,,,,,5,1.193,1,,,,,,-0.410720486,-0.415928819,1,0,0,1.1932,Obsidian_rect,4,0,4,0,1,
5dd4074feab0423daf012f92,TCR,2024-06-20_16h34.11.715,LearnStrategy,2023.2.3,MacIntel,57.47126437,2,2,6,,,,,,,,3,15,,,,,,,,,,,1,2.758,0,,,,,,-0.335338542,-0.254292535,1,0,0,2.7581,Andesite_rect,5,0,5,0,1,
5dd4074feab0423daf012f92,TCR,2024-06-20_16h34.11.715,LearnStrategy,2023.2.3,MacIntel,57.47126437,2,2,7,,,,,,,,2,6,,,,,,,,,,,2,0.976,1,,,,,,-0.117508681,-0.241171875,1,0,0,0.9755,Basalt_rect,6,0,6,0,1,
5dd4074feab0423daf012f92,TCR,2024-06-20_16h34.11.715,LearnStrategy,2023.2.3,MacIntel,57.47126437,2,2,8,,,,,,,,7,7,,,,,,,,,,,7,1.143,1,,,,,,0.192322049,-0.402365451,1,0,0,1.1427,Peridotite_rect,7,0,7,0,1,
5dd4074feab0423daf012f92,TCR,2024-06-20_16h34.11.715,LearnStrategy,2023.2.3,MacIntel,57.47126437,2,2,9,,,,,,,,1,6,,,,,,,,,,,3,7.193,0,,,,,,0.097261285,-0.233506944,1,0,0,7.1935,Diorite_rect,8,0,8,0,1,
5dd4074feab0423daf012f92,TCR,2024-06-20_16h34.11.715,LearnStrategy,2023.2.3,MacIntel,57.47126437,2,2,10,,,,,,,,3,8,,,,,,,,,,,3,0.84,1,,,,,,0.097261285,-0.233506944,1,0,0,0.8404,Diorite_rect,9,0,9,0,1,
5dd4074feab0423daf012f92,TCR,2024-06-20_16h34.11.715,LearnStrategy,2023.2.3,MacIntel,57.47126437,2,2,11,,,,,,,,8,14,,,,,,,,,,,8,0.941,1,,,,,,0.32234809,-0.404175347,1,0,0,0.9405,Pumice_rect,10,0,10,0,1,
5dd4074feab0423daf012f92,TCR,2024-06-20_16h34.11.715,LearnStrategy,2023.2.3,MacIntel,57.47126437,2,2,12,,,,,,,,5,8,,,,,,,,,,,5,1.377,1,,,,,,-0.348758681,-0.394800347,1,0,0,1.3765,Obsidian_rect,11,0,11,0,1,
5dd4074feab0423daf012f92,TCR,2024-06-20_16h34.11.715,LearnStrategy,2023.2.3,MacIntel,57.47126437,2,2,13,,,,,,,,4,5,,,,,,,,,,,4,2.059,1,,,,,,0.343828125,-0.239930556,1,0,0,2.0586,Gabbro_rect,12,0,12,0,1,
5dd4074feab0423daf012f92,TCR,2024-06-20_16h34.11.715,LearnStrategy,2023.2.3,MacIntel,57.47126437,2,2,14,,,,,,,,1,11,,,,,,,,,,,6,4.732,0,,,,,,-0.068949653,-0.391423611,1,0,0,4.7325,Pegmatite_rect,13,0,13,0,1,
5dd4074feab0423daf012f92,TCR,2024-06-20_16h34.11.715,LearnStrategy,2023.2.3,MacIntel,57.47126437,2,2,15,,,,,,,,4,15,,,,,,,,,,,4,1.508,1,,,,,,0.348029514,-0.233259549,1,0,0,1.5085,Gabbro_rect,14,0,14,0,1,
5dd4074feab0423daf012f92,TCR,2024-06-20_16h34.11.715,LearnStrategy,2023.2.3,MacIntel,57.47126437,2,2,16,,,,,,,,2,4,,,,,,,,,,,2,1.693,1,,,,,,-0.065885417,-0.234474826,1,0,0,1.6932,Basalt_rect,15,0,15,0,1,
5dd4074feab0423daf012f92,TCR,2024-06-20_16h34.11.715,LearnStrategy,2023.2.3,MacIntel,57.47126437,3,1,1,-0.090190972,0.000347222,1,0,0,0.9806,rock_grid_rect_2,5,12,-1,-1,0.981,-0.343298611,-0.396840278,1,0,0,1.5091,Obsidian_rect,5,1.509,1,0,0,0,0,1,,,,,,,,,,,,,
5dd4074feab0423daf012f92,TCR,2024-06-20_16h34.11.715,LearnStrategy,2023.2.3,MacIntel,57.47126437,3,1,2,-0.087565104,0.014704861,1,0,0,0.7149,rock_grid_rect_2,4,1,-1,-1,0.715,0.425455729,-0.232690972,1,0,0,3.7756,Gabbro_rect,4,3.776,1,1,0,1,0,1,,,,,,,,,,,,,
5dd4074feab0423daf012f92,TCR,2024-06-20_16h34.11.715,LearnStrategy,2023.2.3,MacIntel,57.47126437,3,1,3,0.027834201,-0.001644965,1,0,0,0.6977,rock_grid_rect_2,4,16,-1,-1,0.698,0.378693576,-0.241549479,1,0,0,4.2424,Gabbro_rect,4,4.242,1,2,0,2,0,1,,,,,,,,,,,,,
5dd4074feab0423daf012f92,TCR,2024-06-20_16h34.11.715,LearnStrategy,2023.2.3,MacIntel,57.47126437,3,1,4,0.046532118,-0.002738715,1,0,0,0.8811,rock_grid_rect_2,8,5,-1,-1,0.881,0.36922309,-0.381475694,1,0,0,1.0933,Pumice_rect,8,1.093,1,3,0,3,0,1,,,,,,,,,,,,,
5dd4074feab0423daf012f92,TCR,2024-06-20_16h34.11.715,LearnStrategy,2023.2.3,MacIntel,57.47126437,3,1,5,0.080477431,-0.01594184,1,0,0,0.6651,rock_grid_rect_2,3,16,-1,-1,0.665,0.092118056,-0.252530382,1,0,0,3.0599,Diorite_rect,3,3.06,1,4,0,4,0,1,,,,,,,,,,,,,
5dd4074feab0423daf012f92,TCR,2024-06-20_16h34.11.715,LearnStrategy,2023.2.3,MacIntel,57.47126437,3,1,6,-0.032634549,-0.009197049,1,0,0,0.8962,rock_grid_rect_2,5,11,-1,-1,0.896,-0.376640625,-0.411801215,1,0,0,0.9432,Obsidian_rect,5,0.943,1,5,0,5,0,1,,,,,,,,,,,,,
5dd4074feab0423daf012f92,TCR,2024-06-20_16h34.11.715,LearnStrategy,2023.2.3,MacIntel,57.47126437,3,1,7,-0.069965278,-0.009852431,1,0,0,0.7317,rock_grid_rect_2,6,12,-1,-1,0.732,0.134435764,-0.248776042,1,0,0,3.7758,Diorite_rect,3,3.776,0,6,0,6,0,1,,,,,,,,,,,,,
5dd4074feab0423daf012f92,TCR,2024-06-20_16h34.11.715,LearnStrategy,2023.2.3,MacIntel,57.47126437,3,1,8,0.012335069,-0.017404514,1,0,0,0.6637,rock_grid_rect_2,2,12,-1,-1,0.664,0.304756944,-0.393789063,1,0,0,2.2107,Pumice_rect,8,2.211,0,7,0,7,0,1,,,,,,,,,,,,,
5dd4074feab0423daf012f92,TCR,2024-06-20_16h34.11.715,LearnStrategy,2023.2.3,MacIntel,57.47126437,3,1,9,-0.083541667,0.015277778,1,0,0,0.7655,rock_grid_rect_2,7,6,-1,-1,0.765,0.082847222,-0.395516493,1,0,0,0.9607,Peridotite_rect,7,0.961,1,8,0,8,0,1,,,,,,,,,,,,,
5dd4074feab0423daf012f92,TCR,2024-06-20_16h34.11.715,LearnStrategy,2023.2.3,MacIntel,57.47126437,3,1,10,-0.067695312,-0.021575521,1,0,0,0.765,rock_grid_rect_2,8,16,-1,-1,0.765,0.301176215,-0.396475694,1,0,0,1.192,Pumice_rect,8,1.192,1,9,0,9,0,1,,,,,,,,,,,,,
5dd4074feab0423daf012f92,TCR,2024-06-20_16h34.11.715,LearnStrategy,2023.2.3,MacIntel,57.47126437,3,1,11,0.035959201,-0.008363715,1,0,0,0.5318,rock_grid_rect_2,2,8,-1,-1,0.532,-0.091163194,-0.266323785,1,0,0,1.7766,Basalt_rect,2,1.777,1,10,0,10,0,1,,,,,,,,,,,,,
5dd4074feab0423daf012f92,TCR,2024-06-20_16h34.11.715,LearnStrategy,2023.2.3,MacIntel,57.47126437,3,1,12,0.017469618,0.016050347,1,0,0,0.6158,rock_grid_rect_2,1,10,-1,-1,0.616,0.421896701,-0.256154514,1,0,0,2.0096,Gabbro_rect,4,2.01,0,11,0,11,0,1,,,,,,,,,,,,,
5dd4074feab0423daf012f92,TCR,2024-06-20_16h34.11.715,LearnStrategy,2023.2.3,MacIntel,57.47126437,3,1,13,0.085698785,-0.013693576,1,0,0,0.8137,rock_grid_rect_2,6,15,-1,-1,0.814,-0.146918403,-0.393350694,1,0,0,1.1768,Pegmatite_rect,6,1.177,1,12,0,12,0,1,,,,,,,,,,,,,
5dd4074feab0423daf012f92,TCR,2024-06-20_16h34.11.715,LearnStrategy,2023.2.3,MacIntel,57.47126437,3,1,14,0.014618056,-0.01296875,1,0,0,1.0984,rock_grid_rect_2,1,14,-1,-1,1.098,0.075412326,-0.266710069,1,0,0,3.8921,Diorite_rect,3,3.892,0,13,0,13,0,1,,,,,,,,,,,,,
5dd4074feab0423daf012f92,TCR,2024-06-20_16h34.11.715,LearnStrategy,2023.2.3,MacIntel,57.47126437,3,1,15,-0.044210069,0.008572049,1,0,0,1.2641,rock_grid_rect_2,3,7,-1,-1,1.264,0.130828993,-0.233997396,1,0,0,0.8931,Diorite_rect,3,0.893,1,14,0,14,0,1,,,,,,,,,,,,,
5dd4074feab0423daf012f92,TCR,2024-06-20_16h34.11.715,LearnStrategy,2023.2.3,MacIntel,57.47126437,3,1,16,-0.047335069,-0.011215278,1,0,0,0.6482,rock_grid_rect_2,7,5,-1,-1,0.648,0.177352431,-0.395277778,1,0,0,1.2754,Peridotite_rect,7,1.275,1,15,0,15,0,1,,,,,,,,,,,,,
5dd4074feab0423daf012f92,TCR,2024-06-20_16h34.11.715,LearnStrategy,2023.2.3,MacIntel,57.47126437,3,2,1,,,,,,,,6,5,,,,,,,,,,,3,1.724,0,,,,,,0.130481771,-0.228637153,1,0,0,1.7241,Diorite_rect,0,0,0,0,1,
5dd4074feab0423daf012f92,TCR,2024-06-20_16h34.11.715,LearnStrategy,2023.2.3,MacIntel,57.47126437,3,2,2,,,,,,,,7,8,,,,,,,,,,,7,1.791,1,,,,,,0.162721354,-0.419726563,1,0,0,1.7911,Peridotite_rect,1,0,1,0,1,
5dd4074feab0423daf012f92,TCR,2024-06-20_16h34.11.715,LearnStrategy,2023.2.3,MacIntel,57.47126437,3,2,3,,,,,,,,2,10,,,,,,,,,,,2,1.276,1,,,,,,-0.1203125,-0.248185764,1,0,0,1.2757,Basalt_rect,2,0,2,0,1,
5dd4074feab0423daf012f92,TCR,2024-06-20_16h34.11.715,LearnStrategy,2023.2.3,MacIntel,57.47126437,3,2,4,,,,,,,,8,15,,,,,,,,,,,8,1.225,1,,,,,,0.437087674,-0.410368924,1,0,0,1.2254,Pumice_rect,3,0,3,0,1,
5dd4074feab0423daf012f92,TCR,2024-06-20_16h34.11.715,LearnStrategy,2023.2.3,MacIntel,57.47126437,3,2,5,,,,,,,,8,9,,,,,,,,,,,8,0.975,1,,,,,,0.345030382,-0.39312066,1,0,0,0.975,Pumice_rect,4,0,4,0,1,
5dd4074feab0423daf012f92,TCR,2024-06-20_16h34.11.715,LearnStrategy,2023.2.3,MacIntel,57.47126437,3,2,6,,,,,,,,5,9,,,,,,,,,,,5,1.176,1,,,,,,-0.368780382,-0.382065972,1,0,0,1.1763,Obsidian_rect,5,0,5,0,1,
5dd4074feab0423daf012f92,TCR,2024-06-20_16h34.11.715,LearnStrategy,2023.2.3,MacIntel,57.47126437,3,2,7,,,,,,,,7,4,,,,,,,,,,,1,3.676,0,,,,,,-0.34734809,-0.255381944,1,0,0,3.6757,Andesite_rect,6,0,6,0,1,
5dd4074feab0423daf012f92,TCR,2024-06-20_16h34.11.715,LearnStrategy,2023.2.3,MacIntel,57.47126437,3,2,8,,,,,,,,1,9,,,,,,,,,,,1,2.791,1,,,,,,-0.381727431,-0.252426215,1,0,0,2.791,Andesite_rect,7,0,7,0,1,
5dd4074feab0423daf012f92,TCR,2024-06-20_16h34.11.715,LearnStrategy,2023.2.3,MacIntel,57.47126437,3,2,9,,,,,,,,1,7,,,,,,,,,,,3,2.059,0,,,,,,0.131080729,-0.266957465,1,0,0,2.0592,Diorite_rect,8,0,8,0,1,
5dd4074feab0423daf012f92,TCR,2024-06-20_16h34.11.715,LearnStrategy,2023.2.3,MacIntel,57.47126437,3,2,10,,,,,,,,3,11,,,,,,,,,,,4,5.46,0,,,,,,0.303081597,-0.256631944,1,0,0,5.4599,Gabbro_rect,9,0,9,0,1,
5dd4074feab0423daf012f92,TCR,2024-06-20_16h34.11.715,LearnStrategy,2023.2.3,MacIntel,57.47126437,3,2,11,,,,,,,,2,5,,,,,,,,,,,2,0.958,1,,,,,,-0.189869792,-0.246106771,1,0,0,0.9584,Basalt_rect,10,0,10,0,1,
5dd4074feab0423daf012f92,TCR,2024-06-20_16h34.11.715,LearnStrategy,2023.2.3,MacIntel,57.47126437,3,2,12,,,,,,,,4,11,,,,,,,,,,,4,2.026,1,,,,,,0.358541667,-0.258519965,1,0,0,2.0264,Gabbro_rect,11,0,11,0,1,
5dd4074feab0423daf012f92,TCR,2024-06-20_16h34.11.715,LearnStrategy,2023.2.3,MacIntel,57.47126437,3,2,13,,,,,,,,6,13,,,,,,,,,,,6,1.292,1,,,,,,-0.137643229,-0.401236979,1,0,0,1.2923,Pegmatite_rect,12,0,12,0,1,
5dd4074feab0423daf012f92,TCR,2024-06-20_16h34.11.715,LearnStrategy,2023.2.3,MacIntel,57.47126437,3,2,14,,,,,,,,3,10,,,,,,,,,,,1,4.23,0,,,,,,-0.45078559,-0.248624132,1,0,0,4.2297,Andesite_rect,13,0,13,0,1,
5dd4074feab0423daf012f92,TCR,2024-06-20_16h34.11.715,LearnStrategy,2023.2.3,MacIntel,57.47126437,3,2,15,,,,,,,,4,8,,,,,,,,,,,4,3.741,1,,,,,,0.437430556,-0.245334201,1,0,0,3.7407,Gabbro_rect,14,0,14,0,1,
5dd4074feab0423daf012f92,TCR,2024-06-20_16h34.11.715,LearnStrategy,2023.2.3,MacIntel,57.47126437,3,2,16,,,,,,,,5,6,,,,,,,,,,,5,1.225,1,,,,,,-0.302756076,-0.420360243,1,0,0,1.2245,Obsidian_rect,15,0,15,0,1,
5dd4074feab0423daf012f92,TCR,2024-06-20_16h34.11.715,LearnStrategy,2023.2.3,MacIntel,57.47126437,4,1,1,0.004262153,0.009292535,1,0,0,0.9315,rock_grid_rect_2,3,13,-1,-1,0.931,0.136631944,-0.228789063,1,0,0,1.2419,Diorite_rect,3,1.242,1,0,0,0,0,1,,,,,,,,,,,,,
5dd4074feab0423daf012f92,TCR,2024-06-20_16h34.11.715,LearnStrategy,2023.2.3,MacIntel,57.47126437,4,1,2,-0.007113715,-0.013098958,1,0,0,0.7648,rock_grid_rect_2,4,3,-1,-1,0.765,0.379032118,-0.228342014,1,0,0,1.9098,Gabbro_rect,4,1.91,1,1,0,1,0,1,,,,,,,,,,,,,
5dd4074feab0423daf012f92,TCR,2024-06-20_16h34.11.715,LearnStrategy,2023.2.3,MacIntel,57.47126437,4,1,3,0.026302083,-0.012326389,1,0,0,0.7316,rock_grid_rect_2,2,11,-1,-1,0.732,-0.064392361,-0.238645833,1,0,0,2.8424,Basalt_rect,2,2.842,1,2,0,2,0,1,,,,,,,,,,,,,
5dd4074feab0423daf012f92,TCR,2024-06-20_16h34.11.715,LearnStrategy,2023.2.3,MacIntel,57.47126437,4,1,4,-0.020763889,-0.006532118,1,0,0,0.664,rock_grid_rect_2,3,16,-1,-1,0.664,0.102929688,-0.243927951,1,0,0,1.1772,Diorite_rect,3,1.177,1,3,0,3,0,1,,,,,,,,,,,,,
5dd4074feab0423daf012f92,TCR,2024-06-20_16h34.11.715,LearnStrategy,2023.2.3,MacIntel,57.47126437,4,1,5,0.005568576,0.001124132,1,0,0,0.6151,rock_grid_rect_2,2,9,-1,-1,0.615,-0.081436632,-0.252443576,1,0,0,0.9759,Basalt_rect,2,0.976,1,4,0,4,0,1,,,,,,,,,,,,,
5dd4074feab0423daf012f92,TCR,2024-06-20_16h34.11.715,LearnStrategy,2023.2.3,MacIntel,57.47126437,4,1,6,-0.022899306,0.023072917,1,0,0,0.4815,rock_grid_rect_2,7,2,-1,-1,0.481,0.093780382,-0.382747396,1,0,0,1.5108,Peridotite_rect,7,1.511,1,5,0,5,0,1,,,,,,,,,,,,,
5dd4074feab0423daf012f92,TCR,2024-06-20_16h34.11.715,LearnStrategy,2023.2.3,MacIntel,57.47126437,4,1,7,0.017252604,-0.005742187,1,0,0,0.6158,rock_grid_rect_2,7,6,-1,-1,0.616,0.141102431,-0.382217882,1,0,0,1.0929,Peridotite_rect,7,1.093,1,6,0,6,0,1,,,,,,,,,,,,,
5dd4074feab0423daf012f92,TCR,2024-06-20_16h34.11.715,LearnStrategy,2023.2.3,MacIntel,57.47126437,4,1,8,-0.052994792,0.009709201,1,0,0,0.5985,rock_grid_rect_2,4,13,-1,-1,0.599,0.360477431,-0.242834201,1,0,0,1.6934,Gabbro_rect,4,1.693,1,7,0,7,0,1,,,,,,,,,,,,,
5dd4074feab0423daf012f92,TCR,2024-06-20_16h34.11.715,LearnStrategy,2023.2.3,MacIntel,57.47126437,4,1,9,-0.074088542,0.015872396,1,0,0,0.6478,rock_grid_rect_2,6,3,-1,-1,0.648,0.087582465,-0.38953559,1,0,0,1.3929,Peridotite_rect,7,1.393,0,8,0,8,0,1,,,,,,,,,,,,,
5dd4074feab0423daf012f92,TCR,2024-06-20_16h34.11.715,LearnStrategy,2023.2.3,MacIntel,57.47126437,4,1,10,-0.005920139,0.009483507,1,0,0,0.6482,rock_grid_rect_2,1,4,-1,-1,0.648,-0.354110243,-0.25124566,1,0,0,2.0579,Andesite_rect,1,2.058,1,9,0,9,0,1,,,,,,,,,,,,,
5dd4074feab0423daf012f92,TCR,2024-06-20_16h34.11.715,LearnStrategy,2023.2.3,MacIntel,57.47126437,4,1,11,-0.133650174,-0.023559028,1,0,0,0.7486,rock_grid_rect_2,5,5,-1,-1,0.749,-0.415429687,-0.411180556,1,0,0,1.1101,Obsidian_rect,5,1.11,1,10,0,10,0,1,,,,,,,,,,,,,
5dd4074feab0423daf012f92,TCR,2024-06-20_16h34.11.715,LearnStrategy,2023.2.3,MacIntel,57.47126437,4,1,12,-0.136028646,-0.015529514,1,0,0,1.248,rock_grid_rect_2,5,7,-1,-1,1.248,-0.405273438,-0.417222222,1,0,0,0.9113,Obsidian_rect,5,0.911,1,11,0,11,0,1,,,,,,,,,,,,,
5dd4074feab0423daf012f92,TCR,2024-06-20_16h34.11.715,LearnStrategy,2023.2.3,MacIntel,57.47126437,4,1,13,-0.134969618,-0.004926215,1,0,0,1.014,rock_grid_rect_2,1,2,-1,-1,1.014,-0.370182292,-0.250985243,1,0,0,2.9099,Andesite_rect,1,2.91,1,12,0,12,0,1,,,,,,,,,,,,,
5dd4074feab0423daf012f92,TCR,2024-06-20_16h34.11.715,LearnStrategy,2023.2.3,MacIntel,57.47126437,4,1,14,-0.078172743,4.77E-05,1,0,0,0.8475,rock_grid_rect_2,8,16,-1,-1,0.847,0.34500434,-0.386115451,1,0,0,1.0769,Pumice_rect,8,1.077,1,13,0,13,0,1,,,,,,,,,,,,,
5dd4074feab0423daf012f92,TCR,2024-06-20_16h34.11.715,LearnStrategy,2023.2.3,MacIntel,57.47126437,4,1,15,0.079739583,0.001015625,1,0,0,0.6148,rock_grid_rect_2,8,6,-1,-1,0.615,0.358789062,-0.382113715,1,0,0,0.9107,Pumice_rect,8,0.911,1,14,0,14,0,1,,,,,,,,,,,,,
5dd4074feab0423daf012f92,TCR,2024-06-20_16h34.11.715,LearnStrategy,2023.2.3,MacIntel,57.47126437,4,1,16,0.054522569,0.018242187,1,0,0,0.8145,rock_grid_rect_2,6,16,-1,-1,0.814,-0.099709201,-0.395876736,1,0,0,1.1108,Pegmatite_rect,6,1.111,1,15,0,15,0,1,,,,,,,,,,,,,
5dd4074feab0423daf012f92,TCR,2024-06-20_16h34.11.715,LearnStrategy,2023.2.3,MacIntel,57.47126437,4,2,1,,,,,,,,8,8,,,,,,,,,,,8,1.09,1,,,,,,0.395325521,-0.383797743,1,0,0,1.0905,Pumice_rect,0,0,0,0,1,
5dd4074feab0423daf012f92,TCR,2024-06-20_16h34.11.715,LearnStrategy,2023.2.3,MacIntel,57.47126437,4,2,2,,,,,,,,5,16,,,,,,,,,,,5,1.225,1,,,,,,-0.34437066,-0.421423611,1,0,0,1.2252,Obsidian_rect,1,0,1,0,1,
5dd4074feab0423daf012f92,TCR,2024-06-20_16h34.11.715,LearnStrategy,2023.2.3,MacIntel,57.47126437,4,2,3,,,,,,,,5,9,,,,,,,,,,,5,0.86,1,,,,,,-0.393689236,-0.409509549,1,0,0,0.8598,Obsidian_rect,2,0,2,0,1,
5dd4074feab0423daf012f92,TCR,2024-06-20_16h34.11.715,LearnStrategy,2023.2.3,MacIntel,57.47126437,4,2,4,,,,,,,,6,13,,,,,,,,,,,6,1.126,1,,,,,,-0.194765625,-0.406462674,1,0,0,1.1259,Pegmatite_rect,3,0,3,0,1,
5dd4074feab0423daf012f92,TCR,2024-06-20_16h34.11.715,LearnStrategy,2023.2.3,MacIntel,57.47126437,4,2,5,,,,,,,,2,4,,,,,,,,,,,2,1.577,1,,,,,,-0.133059896,-0.25718316,1,0,0,1.577,Basalt_rect,4,0,4,0,1,
5dd4074feab0423daf012f92,TCR,2024-06-20_16h34.11.715,LearnStrategy,2023.2.3,MacIntel,57.47126437,4,2,6,,,,,,,,3,8,,,,,,,,,,,3,1.04,1,,,,,,0.112217882,-0.240182292,1,0,0,1.04,Diorite_rect,5,0,5,0,1,
5dd4074feab0423daf012f92,TCR,2024-06-20_16h34.11.715,LearnStrategy,2023.2.3,MacIntel,57.47126437,4,2,7,,,,,,,,7,4,,,,,,,,,,,1,1.159,0,,,,,,-0.430494792,-0.246124132,1,0,0,1.1587,Andesite_rect,6,0,6,0,1,
5dd4074feab0423daf012f92,TCR,2024-06-20_16h34.11.715,LearnStrategy,2023.2.3,MacIntel,57.47126437,4,2,8,,,,,,,,2,1,,,,,,,,,,,2,0.792,1,,,,,,-0.165325521,-0.243415799,1,0,0,0.792,Basalt_rect,7,0,7,0,1,
5dd4074feab0423daf012f92,TCR,2024-06-20_16h34.11.715,LearnStrategy,2023.2.3,MacIntel,57.47126437,4,2,9,,,,,,,,1,7,,,,,,,,,,,3,1.409,0,,,,,,0.115711806,-0.251258681,1,0,0,1.4092,Diorite_rect,8,0,8,0,1,
5dd4074feab0423daf012f92,TCR,2024-06-20_16h34.11.715,LearnStrategy,2023.2.3,MacIntel,57.47126437,4,2,10,,,,,,,,3,15,,,,,,,,,,,4,4.626,0,,,,,,0.397795139,-0.26484375,1,0,0,4.6257,Gabbro_rect,9,0,9,0,1,
5dd4074feab0423daf012f92,TCR,2024-06-20_16h34.11.715,LearnStrategy,2023.2.3,MacIntel,57.47126437,4,2,11,,,,,,,,6,8,,,,,,,,,,,6,1.032,1,,,,,,-0.1459375,-0.390828993,1,0,0,1.0318,Pegmatite_rect,10,0,10,0,1,
5dd4074feab0423daf012f92,TCR,2024-06-20_16h34.11.715,LearnStrategy,2023.2.3,MacIntel,57.47126437,4,2,12,,,,,,,,1,6,,,,,,,,,,,4,4.028,0,,,,,,0.359674479,-0.236666667,1,0,0,4.0276,Gabbro_rect,11,0,11,0,1,
5dd4074feab0423daf012f92,TCR,2024-06-20_16h34.11.715,LearnStrategy,2023.2.3,MacIntel,57.47126437,4,2,13,,,,,,,,4,12,,,,,,,,,,,4,1.15,1,,,,,,0.408463542,-0.232330729,1,0,0,1.15,Gabbro_rect,12,0,12,0,1,
5dd4074feab0423daf012f92,TCR,2024-06-20_16h34.11.715,LearnStrategy,2023.2.3,MacIntel,57.47126437,4,2,14,,,,,,,,8,13,,,,,,,,,,,8,1.058,1,,,,,,0.410967882,-0.395177951,1,0,0,1.0584,Pumice_rect,13,0,13,0,1,
5dd4074feab0423daf012f92,TCR,2024-06-20_16h34.11.715,LearnStrategy,2023.2.3,MacIntel,57.47126437,4,2,15,,,,,,,,4,9,,,,,,,,,,,4,10.345,1,,,,,,0.323936632,-0.251848958,1,0,0,10.3448,Gabbro_rect,14,0,14,0,1,
5dd4074feab0423daf012f92,TCR,2024-06-20_16h34.11.715,LearnStrategy,2023.2.3,MacIntel,57.47126437,4,2,16,,,,,,,,7,15,,,,,,,,,,,7,0.834,1,,,,,,0.158164063,-0.393502604,1,0,0,0.8344,Peridotite_rect,15,0,15,0,1,
5dd4074feab0423daf012f92,TCR,2024-06-20_16h34.11.715,LearnStrategy,2023.2.3,MacIntel,57.47126437,5,1,1,0.101453993,0.011150174,1,0,0,1.1146,rock_grid_rect_2,3,14,-1,-1,1.115,0.176059028,-0.233893229,1,0,0,1.2259,Diorite_rect,3,1.226,1,0,0,0,0,1,,,,,,,,,,,,,
5dd4074feab0423daf012f92,TCR,2024-06-20_16h34.11.715,LearnStrategy,2023.2.3,MacIntel,57.47126437,5,1,2,-0.001024306,0.012612847,1,0,0,0.7971,rock_grid_rect_2,7,12,-1,-1,0.797,0.099127604,-0.394639757,1,0,0,2.2598,Peridotite_rect,7,2.26,1,1,0,1,0,1,,,,,,,,,,,,,
5dd4074feab0423daf012f92,TCR,2024-06-20_16h34.11.715,LearnStrategy,2023.2.3,MacIntel,57.47126437,5,1,3,0.082083333,0.011284722,1,0,0,0.7498,rock_grid_rect_2,4,16,-1,-1,0.75,0.381901042,-0.231901042,1,0,0,1.5277,Gabbro_rect,4,1.528,1,2,0,2,0,1,,,,,,,,,,,,,
5dd4074feab0423daf012f92,TCR,2024-06-20_16h34.11.715,LearnStrategy,2023.2.3,MacIntel,57.47126437,5,1,4,0.00359375,-0.01922309,1,0,0,0.6815,rock_grid_rect_2,2,14,-1,-1,0.682,0.327157118,-0.232803819,1,0,0,2.6438,Gabbro_rect,4,2.644,0,3,0,3,0,1,,,,,,,,,,,,,
5dd4074feab0423daf012f92,TCR,2024-06-20_16h34.11.715,LearnStrategy,2023.2.3,MacIntel,57.47126437,5,1,5,0.025177951,-0.007417535,1,0,0,0.6149,rock_grid_rect_2,5,11,-1,-1,0.615,-0.330685764,-0.385716146,1,0,0,1.0091,Obsidian_rect,5,1.009,1,4,0,4,0,1,,,,,,,,,,,,,
5dd4074feab0423daf012f92,TCR,2024-06-20_16h34.11.715,LearnStrategy,2023.2.3,MacIntel,57.47126437,5,1,6,-0.044401042,0.004392361,1,0,0,0.5314,rock_grid_rect_2,1,10,-1,-1,0.531,-0.309756944,-0.230351562,1,0,0,3.7096,Andesite_rect,1,3.71,1,5,0,5,0,1,,,,,,,,,,,,,
5dd4074feab0423daf012f92,TCR,2024-06-20_16h34.11.715,LearnStrategy,2023.2.3,MacIntel,57.47126437,5,1,7,-0.102686632,-0.000881076,1,0,0,0.5322,rock_grid_rect_2,4,14,-1,-1,0.532,0.347452257,-0.232296007,1,0,0,1.6428,Gabbro_rect,4,1.643,1,6,0,6,0,1,,,,,,,,,,,,,
5dd4074feab0423daf012f92,TCR,2024-06-20_16h34.11.715,LearnStrategy,2023.2.3,MacIntel,57.47126437,5,1,8,-0.005481771,-0.012087674,1,0,0,0.5161,rock_grid_rect_2,1,14,-1,-1,0.516,0.141236979,-0.231028646,1,0,0,5.593,Diorite_rect,3,5.593,0,7,0,7,0,1,,,,,,,,,,,,,
5dd4074feab0423daf012f92,TCR,2024-06-20_16h34.11.715,LearnStrategy,2023.2.3,MacIntel,57.47126437,5,1,9,-0.053450521,-0.013975694,1,0,0,0.7319,rock_grid_rect_2,7,14,-1,-1,0.732,0.143146701,-0.386653646,1,0,0,2.2929,Peridotite_rect,7,2.293,1,8,0,8,0,1,,,,,,,,,,,,,
5dd4074feab0423daf012f92,TCR,2024-06-20_16h34.11.715,LearnStrategy,2023.2.3,MacIntel,57.47126437,5,1,10,0.028294271,0.003815104,1,0,0,0.7494,rock_grid_rect_2,5,12,-1,-1,0.749,-0.339340278,-0.414874132,1,0,0,1.2758,Obsidian_rect,5,1.276,1,9,0,9,0,1,,,,,,,,,,,,,
5dd4074feab0423daf012f92,TCR,2024-06-20_16h34.11.715,LearnStrategy,2023.2.3,MacIntel,57.47126437,5,1,11,0.016119792,0.024639757,1,0,0,0.5818,rock_grid_rect_2,8,10,-1,-1,0.582,0.371662326,-0.409266493,1,0,0,1.5927,Pumice_rect,8,1.593,1,10,0,10,0,1,,,,,,,,,,,,,
5dd4074feab0423daf012f92,TCR,2024-06-20_16h34.11.715,LearnStrategy,2023.2.3,MacIntel,57.47126437,5,1,12,0.021974826,-0.022764757,1,0,0,0.5995,rock_grid_rect_2,2,2,-1,-1,0.6,-0.091727431,-0.236892361,1,0,0,0.9928,Basalt_rect,2,0.993,1,11,0,11,0,1,,,,,,,,,,,,,
5dd4074feab0423daf012f92,TCR,2024-06-20_16h34.11.715,LearnStrategy,2023.2.3,MacIntel,57.47126437,5,1,13,-0.136002604,-0.01125434,1,0,0,0.5488,rock_grid_rect_2,8,4,-1,-1,0.549,0.32125434,-0.37937066,1,0,0,1.0269,Pumice_rect,8,1.027,1,12,0,12,0,1,,,,,,,,,,,,,
5dd4074feab0423daf012f92,TCR,2024-06-20_16h34.11.715,LearnStrategy,2023.2.3,MacIntel,57.47126437,5,1,14,-0.09437934,0.018493924,1,0,0,0.5146,rock_grid_rect_2,6,9,-1,-1,0.515,-0.115173611,-0.386293403,1,0,0,1.3768,Pegmatite_rect,6,1.377,1,13,0,13,0,1,,,,,,,,,,,,,
5dd4074feab0423daf012f92,TCR,2024-06-20_16h34.11.715,LearnStrategy,2023.2.3,MacIntel,57.47126437,5,1,15,-0.106289063,-0.001549479,1,0,0,0.5148,rock_grid_rect_2,3,7,-1,-1,0.515,0.196015625,-0.231193576,1,0,0,13.6923,Diorite_rect,3,13.692,1,14,0,14,0,1,,,,,,,,,,,,,
5dd4074feab0423daf012f92,TCR,2024-06-20_16h34.11.715,LearnStrategy,2023.2.3,MacIntel,57.47126437,5,1,16,0.125091146,-0.006597222,1,0,0,0.6489,rock_grid_rect_2,6,15,-1,-1,0.649,-0.098172743,-0.399205729,1,0,0,1.1432,Pegmatite_rect,6,1.143,1,15,0,15,0,1,,,,,,,,,,,,,
5dd4074feab0423daf012f92,TCR,2024-06-20_16h34.11.715,LearnStrategy,2023.2.3,MacIntel,57.47126437,5,2,1,,,,,,,,1,1,,,,,,,,,,,1,2.958,1,,,,,,-0.332256944,-0.247052951,1,0,0,2.958,Andesite_rect,0,0,0,0,1,
5dd4074feab0423daf012f92,TCR,2024-06-20_16h34.11.715,LearnStrategy,2023.2.3,MacIntel,57.47126437,5,2,2,,,,,,,,5,8,,,,,,,,,,,5,0.992,1,,,,,,-0.352135417,-0.400099826,1,0,0,0.9919,Obsidian_rect,1,0,1,0,1,
5dd4074feab0423daf012f92,TCR,2024-06-20_16h34.11.715,LearnStrategy,2023.2.3,MacIntel,57.47126437,5,2,3,,,,,,,,6,5,,,,,,,,,,,6,5.176,1,,,,,,-0.098467882,-0.401011285,1,0,0,5.176,Pegmatite_rect,2,0,2,0,1,
5dd4074feab0423daf012f92,TCR,2024-06-20_16h34.11.715,LearnStrategy,2023.2.3,MacIntel,57.47126437,5,2,4,,,,,,,,3,6,,,,,,,,,,,3,1.168,1,,,,,,0.101163194,-0.261349826,1,0,0,1.1675,Diorite_rect,3,0,3,0,1,
5dd4074feab0423daf012f92,TCR,2024-06-20_16h34.11.715,LearnStrategy,2023.2.3,MacIntel,57.47126437,5,2,5,,,,,,,,5,4,,,,,,,,,,,5,0.926,1,,,,,,-0.368871528,-0.388450521,1,0,0,0.9263,Obsidian_rect,4,0,4,0,1,
5dd4074feab0423daf012f92,TCR,2024-06-20_16h34.11.715,LearnStrategy,2023.2.3,MacIntel,57.47126437,5,2,6,,,,,,,,8,9,,,,,,,,,,,8,0.908,1,,,,,,0.423237847,-0.386475694,1,0,0,0.908,Pumice_rect,5,0,5,0,1,
5dd4074feab0423daf012f92,TCR,2024-06-20_16h34.11.715,LearnStrategy,2023.2.3,MacIntel,57.47126437,5,2,7,,,,,,,,8,15,,,,,,,,,,,8,1.71,1,,,,,,0.362287326,-0.389283854,1,0,0,1.71,Pumice_rect,6,0,6,0,1,
5dd4074feab0423daf012f92,TCR,2024-06-20_16h34.11.715,LearnStrategy,2023.2.3,MacIntel,57.47126437,5,2,8,,,,,,,,7,13,,,,,,,,,,,7,0.923,1,,,,,,0.199756944,-0.394505208,1,0,0,0.9231,Peridotite_rect,7,0,7,0,1,
5dd4074feab0423daf012f92,TCR,2024-06-20_16h34.11.715,LearnStrategy,2023.2.3,MacIntel,57.47126437,5,2,9,,,,,,,,3,9,,,,,,,,,,,3,1.391,1,,,,,,0.154891493,-0.23625434,1,0,0,1.3914,Diorite_rect,8,0,8,0,1,
5dd4074feab0423daf012f92,TCR,2024-06-20_16h34.11.715,LearnStrategy,2023.2.3,MacIntel,57.47126437,5,2,10,,,,,,,,7,7,,,,,,,,,,,7,0.962,1,,,,,,0.194001736,-0.397087674,1,0,0,0.9619,Peridotite_rect,9,0,9,0,1,
5dd4074feab0423daf012f92,TCR,2024-06-20_16h34.11.715,LearnStrategy,2023.2.3,MacIntel,57.47126437,5,2,11,,,,,,,,4,5,,,,,,,,,,,4,2.877,1,,,,,,0.452395833,-0.232018229,1,0,0,2.8769,Gabbro_rect,10,0,10,0,1,
5dd4074feab0423daf012f92,TCR,2024-06-20_16h34.11.715,LearnStrategy,2023.2.3,MacIntel,57.47126437,5,2,12,,,,,,,,2,10,,,,,,,,,,,2,1.009,1,,,,,,-0.141349826,-0.250763889,1,0,0,1.0089,Basalt_rect,11,0,11,0,1,
5dd4074feab0423daf012f92,TCR,2024-06-20_16h34.11.715,LearnStrategy,2023.2.3,MacIntel,57.47126437,5,2,13,,,,,,,,4,8,,,,,,,,,,,4,2.758,1,,,,,,0.361219618,-0.245638021,1,0,0,2.7582,Gabbro_rect,12,0,12,0,1,
5dd4074feab0423daf012f92,TCR,2024-06-20_16h34.11.715,LearnStrategy,2023.2.3,MacIntel,57.47126437,5,2,14,,,,,,,,1,3,,,,,,,,,,,1,2.501,1,,,,,,-0.342647569,-0.255334201,1,0,0,2.5014,Andesite_rect,13,0,13,0,1,
5dd4074feab0423daf012f92,TCR,2024-06-20_16h34.11.715,LearnStrategy,2023.2.3,MacIntel,57.47126437,5,2,15,,,,,,,,2,6,,,,,,,,,,,2,0.994,1,,,,,,-0.098381076,-0.271744792,1,0,0,0.9939,Basalt_rect,14,0,14,0,1,
5dd4074feab0423daf012f92,TCR,2024-06-20_16h34.11.715,LearnStrategy,2023.2.3,MacIntel,57.47126437,5,2,16,,,,,,,,6,10,,,,,,,,,,,7,0.942,0,,,,,,0.080078125,-0.408146701,1,0,0,0.9423,Peridotite_rect,15,0,15,0,1,
5dd4074feab0423daf012f92,TCR,2024-06-20_16h34.11.715,LearnStrategy,2023.2.3,MacIntel,57.47126437,6,1,1,-0.06578125,0.012352431,1,0,0,1.1149,rock_grid_rect_2,8,3,-1,-1,1.115,0.351072049,-0.396666667,1,0,0,1.1092,Pumice_rect,8,1.109,1,0,0,0,0,1,,,,,,,,,,,,,
5dd4074feab0423daf012f92,TCR,2024-06-20_16h34.11.715,LearnStrategy,2023.2.3,MacIntel,57.47126437,6,1,2,0.066163194,-0.014578993,1,0,0,0.9664,rock_grid_rect_2,6,12,-1,-1,0.966,-0.123780382,-0.388237847,1,0,0,3.2418,Pegmatite_rect,6,3.242,1,1,0,1,0,1,,,,,,,,,,,,,
5dd4074feab0423daf012f92,TCR,2024-06-20_16h34.11.715,LearnStrategy,2023.2.3,MacIntel,57.47126437,6,1,3,-0.074631076,0.021692708,1,0,0,0.5143,rock_grid_rect_2,8,5,-1,-1,0.514,0.310768229,-0.388446181,1,0,0,1.0623,Pumice_rect,8,1.062,1,2,0,2,0,1,,,,,,,,,,,,,
5dd4074feab0423daf012f92,TCR,2024-06-20_16h34.11.715,LearnStrategy,2023.2.3,MacIntel,57.47126437,6,1,4,0.029882813,-0.019756944,1,0,0,0.8148,rock_grid_rect_2,7,5,-1,-1,0.815,0.131983507,-0.38234375,1,0,0,1.0943,Peridotite_rect,7,1.094,1,3,0,3,0,1,,,,,,,,,,,,,
5dd4074feab0423daf012f92,TCR,2024-06-20_16h34.11.715,LearnStrategy,2023.2.3,MacIntel,57.47126437,6,1,5,-0.04625434,-0.0203125,1,0,0,0.4812,rock_grid_rect_2,2,8,-1,-1,0.481,-0.110946181,-0.233684896,1,0,0,0.8429,Basalt_rect,2,0.843,1,4,0,4,0,1,,,,,,,,,,,,,
5dd4074feab0423daf012f92,TCR,2024-06-20_16h34.11.715,LearnStrategy,2023.2.3,MacIntel,57.47126437,6,1,6,-0.119852431,-0.002634549,1,0,0,0.5323,rock_grid_rect_2,4,1,-1,-1,0.532,0.401740451,-0.239479167,1,0,0,1.7434,Gabbro_rect,4,1.743,1,5,0,5,0,1,,,,,,,,,,,,,
5dd4074feab0423daf012f92,TCR,2024-06-20_16h34.11.715,LearnStrategy,2023.2.3,MacIntel,57.47126437,6,1,7,0.064401042,-0.004809028,1,0,0,0.5321,rock_grid_rect_2,2,12,-1,-1,0.532,-0.049496528,-0.233098958,1,0,0,2.9767,Basalt_rect,2,2.977,1,6,0,6,0,1,,,,,,,,,,,,,
5dd4074feab0423daf012f92,TCR,2024-06-20_16h34.11.715,LearnStrategy,2023.2.3,MacIntel,57.47126437,6,1,8,-0.031076389,-0.017469618,1,0,0,0.932,rock_grid_rect_2,5,14,-1,-1,0.932,-0.347547743,-0.403758681,1,0,0,0.9418,Obsidian_rect,5,0.942,1,7,0,7,0,1,,,,,,,,,,,,,
5dd4074feab0423daf012f92,TCR,2024-06-20_16h34.11.715,LearnStrategy,2023.2.3,MacIntel,57.47126437,6,1,9,-0.158841146,0.009635417,1,0,0,0.6812,rock_grid_rect_2,6,6,-1,-1,0.681,-0.112061632,-0.390494792,1,0,0,1.3931,Pegmatite_rect,6,1.393,1,8,0,8,0,1,,,,,,,,,,,,,
5dd4074feab0423daf012f92,TCR,2024-06-20_16h34.11.715,LearnStrategy,2023.2.3,MacIntel,57.47126437,6,1,10,-0.097630208,0.017673611,1,0,0,0.4656,rock_grid_rect_2,4,10,-1,-1,0.466,0.406076389,-0.243789062,1,0,0,2.6584,Gabbro_rect,4,2.658,1,9,0,9,0,1,,,,,,,,,,,,,
5dd4074feab0423daf012f92,TCR,2024-06-20_16h34.11.715,LearnStrategy,2023.2.3,MacIntel,57.47126437,6,1,11,-0.081536458,0.003133681,1,0,0,0.5968,rock_grid_rect_2,3,12,-1,-1,0.597,0.086137153,-0.258632812,1,0,0,1.3117,Diorite_rect,3,1.312,1,10,0,10,0,1,,,,,,,,,,,,,
5dd4074feab0423daf012f92,TCR,2024-06-20_16h34.11.715,LearnStrategy,2023.2.3,MacIntel,57.47126437,6,1,12,0.000638021,0.008068576,1,0,0,0.5983,rock_grid_rect_2,1,5,-1,-1,0.598,-0.306258681,-0.26078559,1,0,0,1.7929,Andesite_rect,1,1.793,1,11,0,11,0,1,,,,,,,,,,,,,
5dd4074feab0423daf012f92,TCR,2024-06-20_16h34.11.715,LearnStrategy,2023.2.3,MacIntel,57.47126437,6,1,13,-0.116523437,-0.006480035,1,0,0,0.565,rock_grid_rect_2,5,10,-1,-1,0.565,-0.354171007,-0.399014757,1,0,0,1.6434,Obsidian_rect,5,1.643,1,12,0,12,0,1,,,,,,,,,,,,,
5dd4074feab0423daf012f92,TCR,2024-06-20_16h34.11.715,LearnStrategy,2023.2.3,MacIntel,57.47126437,6,1,14,-0.127916667,0.023784722,1,0,0,0.5005,rock_grid_rect_2,3,2,-1,-1,0.501,0.083016493,-0.237534722,1,0,0,0.9084,Diorite_rect,3,0.908,1,13,0,13,0,1,,,,,,,,,,,,,
5dd4074feab0423daf012f92,TCR,2024-06-20_16h34.11.715,LearnStrategy,2023.2.3,MacIntel,57.47126437,6,1,15,-0.047243924,0.007322049,1,0,0,0.7143,rock_grid_rect_2,7,10,-1,-1,0.714,0.09922309,-0.392595486,1,0,0,1.0268,Peridotite_rect,7,1.027,1,14,0,14,0,1,,,,,,,,,,,,,
5dd4074feab0423daf012f92,TCR,2024-06-20_16h34.11.715,LearnStrategy,2023.2.3,MacIntel,57.47126437,6,1,16,0.056132812,0.016514757,1,0,0,1.2656,rock_grid_rect_2,1,16,-1,-1,1.266,-0.383342014,-0.248797743,1,0,0,1.977,Andesite_rect,1,1.977,1,15,0,15,0,1,,,,,,,,,,,,,
5dd4074feab0423daf012f92,TCR,2024-06-20_16h34.11.715,LearnStrategy,2023.2.3,MacIntel,57.47126437,6,2,1,,,,,,,,7,16,,,,,,,,,,,7,2.71,1,,,,,,0.172799479,-0.402860243,1,0,0,2.7102,Peridotite_rect,0,0,0,0,1,
5dd4074feab0423daf012f92,TCR,2024-06-20_16h34.11.715,LearnStrategy,2023.2.3,MacIntel,57.47126437,6,2,2,,,,,,,,4,15,,,,,,,,,,,4,3.215,1,,,,,,0.416041667,-0.245690104,1,0,0,3.2151,Gabbro_rect,1,0,1,0,1,
5dd4074feab0423daf012f92,TCR,2024-06-20_16h34.11.715,LearnStrategy,2023.2.3,MacIntel,57.47126437,6,2,3,,,,,,,,8,2,,,,,,,,,,,8,1.034,1,,,,,,0.364700521,-0.403819444,1,0,0,1.0342,Pumice_rect,2,0,2,0,1,
5dd4074feab0423daf012f92,TCR,2024-06-20_16h34.11.715,LearnStrategy,2023.2.3,MacIntel,57.47126437,6,2,4,,,,,,,,5,2,,,,,,,,,,,5,1.026,1,,,,,,-0.335759549,-0.399049479,1,0,0,1.0256,Obsidian_rect,3,0,3,0,1,
5dd4074feab0423daf012f92,TCR,2024-06-20_16h34.11.715,LearnStrategy,2023.2.3,MacIntel,57.47126437,6,2,5,,,,,,,,8,14,,,,,,,,,,,8,0.958,1,,,,,,0.423133681,-0.401675347,1,0,0,0.9576,Pumice_rect,4,0,4,0,1,
5dd4074feab0423daf012f92,TCR,2024-06-20_16h34.11.715,LearnStrategy,2023.2.3,MacIntel,57.47126437,6,2,6,,,,,,,,1,9,,,,,,,,,,,2,6.625,0,,,,,,-0.144670139,-0.236736111,1,0,0,6.625,Basalt_rect,5,0,5,0,1,
5dd4074feab0423daf012f92,TCR,2024-06-20_16h34.11.715,LearnStrategy,2023.2.3,MacIntel,57.47126437,6,2,7,,,,,,,,2,5,,,,,,,,,,,2,1.233,1,,,,,,-0.130911458,-0.247695312,1,0,0,1.2331,Basalt_rect,6,0,6,0,1,
5dd4074feab0423daf012f92,TCR,2024-06-20_16h34.11.715,LearnStrategy,2023.2.3,MacIntel,57.47126437,6,2,8,,,,,,,,5,6,,,,,,,,,,,5,0.858,1,,,,,,-0.341141493,-0.404574653,1,0,0,0.858,Obsidian_rect,7,0,7,0,1,
5dd4074feab0423daf012f92,TCR,2024-06-20_16h34.11.715,LearnStrategy,2023.2.3,MacIntel,57.47126437,6,2,9,,,,,,,,4,11,,,,,,,,,,,4,1.309,1,,,,,,0.357278646,-0.235724826,1,0,0,1.309,Gabbro_rect,8,0,8,0,1,
5dd4074feab0423daf012f92,TCR,2024-06-20_16h34.11.715,LearnStrategy,2023.2.3,MacIntel,57.47126437,6,2,10,,,,,,,,3,10,,,,,,,,,,,3,1.276,1,,,,,,0.184583333,-0.241197917,1,0,0,1.2756,Diorite_rect,9,0,9,0,1,
5dd4074feab0423daf012f92,TCR,2024-06-20_16h34.11.715,LearnStrategy,2023.2.3,MacIntel,57.47126437,6,2,11,,,,,,,,1,11,,,,,,,,,,,6,1.958,0,,,,,,-0.098164062,-0.415208333,1,0,0,1.9578,Pegmatite_rect,10,0,10,0,1,
5dd4074feab0423daf012f92,TCR,2024-06-20_16h34.11.715,LearnStrategy,2023.2.3,MacIntel,57.47126437,6,2,12,,,,,,,,3,11,,,,,,,,,,,3,0.908,1,,,,,,0.121579861,-0.257547743,1,0,0,0.9077,Diorite_rect,11,0,11,0,1,
5dd4074feab0423daf012f92,TCR,2024-06-20_16h34.11.715,LearnStrategy,2023.2.3,MacIntel,57.47126437,6,2,13,,,,,,,,2,16,,,,,,,,,,,4,1.457,0,,,,,,0.416644965,-0.233823785,1,0,0,1.4574,Gabbro_rect,12,0,12,0,1,
5dd4074feab0423daf012f92,TCR,2024-06-20_16h34.11.715,LearnStrategy,2023.2.3,MacIntel,57.47126437,6,2,14,,,,,,,,6,11,,,,,,,,,,,6,1.009,1,,,,,,-0.100460069,-0.39265625,1,0,0,1.0092,Pegmatite_rect,13,0,13,0,1,
5dd4074feab0423daf012f92,TCR,2024-06-20_16h34.11.715,LearnStrategy,2023.2.3,MacIntel,57.47126437,6,2,15,,,,,,,,6,7,,,,,,,,,,,6,0.775,1,,,,,,-0.104882813,-0.39156684,1,0,0,0.7755,Pegmatite_rect,14,0,14,0,1,
5dd4074feab0423daf012f92,TCR,2024-06-20_16h34.11.715,LearnStrategy,2023.2.3,MacIntel,57.47126437,6,2,16,,,,,,,,7,8,,,,,,,,,,,7,0.758,1,,,,,,0.059114583,-0.40827691,1,0,0,0.7583,Peridotite_rect,15,0,15,0,1,
5dd4074feab0423daf012f92,TCR,2024-06-20_16h34.11.715,LearnStrategy,2023.2.3,MacIntel,57.47126437,7,1,1,0.029748264,0.019639757,1,0,0,0.9978,rock_grid_rect_2,1,10,-1,-1,0.998,-0.353528646,-0.260247396,1,0,0,1.1449,Andesite_rect,1,1.145,1,0,0,0,0,1,,,,,,,,,,,,,
5dd4074feab0423daf012f92,TCR,2024-06-20_16h34.11.715,LearnStrategy,2023.2.3,MacIntel,57.47126437,7,1,2,-0.087465278,-0.004882813,1,0,0,0.7157,rock_grid_rect_2,6,12,-1,-1,0.716,-0.131432292,-0.394305556,1,0,0,1.5927,Pegmatite_rect,6,1.593,1,1,0,1,0,1,,,,,,,,,,,,,
5dd4074feab0423daf012f92,TCR,2024-06-20_16h34.11.715,LearnStrategy,2023.2.3,MacIntel,57.47126437,7,1,3,-0.112217882,-0.016736111,1,0,0,0.4814,rock_grid_rect_2,2,8,-1,-1,0.481,-0.0871875,-0.256319444,1,0,0,1.5759,Basalt_rect,2,1.576,1,2,0,2,0,1,,,,,,,,,,,,,
5dd4074feab0423daf012f92,TCR,2024-06-20_16h34.11.715,LearnStrategy,2023.2.3,MacIntel,57.47126437,7,1,4,-0.091493056,0.002408854,1,0,0,0.5649,rock_grid_rect_2,8,5,-1,-1,0.565,0.318415799,-0.389665799,1,0,0,0.9776,Pumice_rect,8,0.978,1,3,0,3,0,1,,,,,,,,,,,,,
5dd4074feab0423daf012f92,TCR,2024-06-20_16h34.11.715,LearnStrategy,2023.2.3,MacIntel,57.47126437,7,1,5,-0.007282986,-0.002317708,1,0,0,0.4978,rock_grid_rect_2,2,11,-1,-1,0.498,-0.112591146,-0.232907986,1,0,0,1.5972,Basalt_rect,2,1.597,1,4,0,4,0,1,,,,,,,,,,,,,
5dd4074feab0423daf012f92,TCR,2024-06-20_16h34.11.715,LearnStrategy,2023.2.3,MacIntel,57.47126437,7,1,6,-0.065190972,-0.018632812,1,0,0,0.4973,rock_grid_rect_2,3,14,-1,-1,0.497,0.107743056,-0.230477431,1,0,0,1.0104,Diorite_rect,3,1.01,1,5,0,5,0,1,,,,,,,,,,,,,
5dd4074feab0423daf012f92,TCR,2024-06-20_16h34.11.715,LearnStrategy,2023.2.3,MacIntel,57.47126437,7,1,7,-0.017426215,0.000230035,1,0,0,1.098,rock_grid_rect_2,7,10,-1,-1,1.098,0.042868924,-0.405138889,1,0,0,1.4449,Peridotite_rect,7,1.445,1,6,0,6,0,1,,,,,,,,,,,,,
5dd4074feab0423daf012f92,TCR,2024-06-20_16h34.11.715,LearnStrategy,2023.2.3,MacIntel,57.47126437,7,1,8,0.099661458,0.010985243,1,0,0,0.4481,rock_grid_rect_2,6,16,-1,-1,0.448,-0.081419271,-0.410512153,1,0,0,1.0612,Pegmatite_rect,6,1.061,1,7,0,7,0,1,,,,,,,,,,,,,
5dd4074feab0423daf012f92,TCR,2024-06-20_16h34.11.715,LearnStrategy,2023.2.3,MacIntel,57.47126437,7,1,9,-0.060516493,-0.002690972,1,0,0,0.5655,rock_grid_rect_2,1,16,-1,-1,0.565,-0.376814236,-0.254926215,1,0,0,1.6948,Andesite_rect,1,1.695,1,8,0,8,0,1,,,,,,,,,,,,,
5dd4074feab0423daf012f92,TCR,2024-06-20_16h34.11.715,LearnStrategy,2023.2.3,MacIntel,57.47126437,7,1,10,-0.131276042,0.00140191,1,0,0,0.6484,rock_grid_rect_2,3,2,-1,-1,0.648,0.091054687,-0.247821181,1,0,0,0.9264,Diorite_rect,3,0.926,1,9,0,9,0,1,,,,,,,,,,,,,
5dd4074feab0423daf012f92,TCR,2024-06-20_16h34.11.715,LearnStrategy,2023.2.3,MacIntel,57.47126437,7,1,11,-0.012460937,0.022877604,1,0,0,0.6318,rock_grid_rect_2,4,3,-1,-1,0.632,0.405638021,-0.23218316,1,0,0,1.1592,Gabbro_rect,4,1.159,1,10,0,10,0,1,,,,,,,,,,,,,
5dd4074feab0423daf012f92,TCR,2024-06-20_16h34.11.715,LearnStrategy,2023.2.3,MacIntel,57.47126437,7,1,12,-0.023576389,-0.002873264,1,0,0,0.4489,rock_grid_rect_2,8,16,-1,-1,0.449,0.314444444,-0.407599826,1,0,0,1.6935,Pumice_rect,8,1.693,1,11,0,11,0,1,,,,,,,,,,,,,
5dd4074feab0423daf012f92,TCR,2024-06-20_16h34.11.715,LearnStrategy,2023.2.3,MacIntel,57.47126437,7,1,13,0.035247396,-0.019144965,1,0,0,0.7311,rock_grid_rect_2,4,13,-1,-1,0.731,0.344826389,-0.243997396,1,0,0,2.293,Gabbro_rect,4,2.293,1,12,0,12,0,1,,,,,,,,,,,,,
5dd4074feab0423daf012f92,TCR,2024-06-20_16h34.11.715,LearnStrategy,2023.2.3,MacIntel,57.47126437,7,1,14,0.076371528,0.007439236,1,0,0,0.5317,rock_grid_rect_2,5,10,-1,-1,0.532,-0.355021701,-0.403059896,1,0,0,1.0591,Obsidian_rect,5,1.059,1,13,0,13,0,1,,,,,,,,,,,,,
5dd4074feab0423daf012f92,TCR,2024-06-20_16h34.11.715,LearnStrategy,2023.2.3,MacIntel,57.47126437,7,1,15,-0.12562934,-0.016232639,1,0,0,0.7651,rock_grid_rect_2,7,2,-1,-1,0.765,0.084244792,-0.406731771,1,0,0,0.8937,Peridotite_rect,7,0.894,1,14,0,14,0,1,,,,,,,,,,,,,
5dd4074feab0423daf012f92,TCR,2024-06-20_16h34.11.715,LearnStrategy,2023.2.3,MacIntel,57.47126437,7,1,16,-0.026666667,-0.005820312,1,0,0,0.7984,rock_grid_rect_2,5,14,-1,-1,0.798,-0.310811632,-0.407899306,1,0,0,0.8933,Obsidian_rect,5,0.893,1,15,0,15,0,1,,,,,,,,,,,,,
5dd4074feab0423daf012f92,TCR,2024-06-20_16h34.11.715,LearnStrategy,2023.2.3,MacIntel,57.47126437,7,2,1,,,,,,,,3,10,,,,,,,,,,,1,4.64,0,,,,,,-0.373268229,-0.261966146,1,0,0,4.64,Andesite_rect,0,0,0,0,1,
5dd4074feab0423daf012f92,TCR,2024-06-20_16h34.11.715,LearnStrategy,2023.2.3,MacIntel,57.47126437,7,2,2,,,,,,,,2,6,,,,,,,,,,,2,0.95,1,,,,,,-0.185611979,-0.243476562,1,0,0,0.9497,Basalt_rect,1,0,1,0,1,
5dd4074feab0423daf012f92,TCR,2024-06-20_16h34.11.715,LearnStrategy,2023.2.3,MacIntel,57.47126437,7,2,3,,,,,,,,5,8,,,,,,,,,,,5,1.709,1,,,,,,-0.3096875,-0.419292535,1,0,0,1.7086,Obsidian_rect,2,0,2,0,1,
5dd4074feab0423daf012f92,TCR,2024-06-20_16h34.11.715,LearnStrategy,2023.2.3,MacIntel,57.47126437,7,2,4,,,,,,,,7,13,,,,,,,,,,,7,0.859,1,,,,,,0.100373264,-0.394670139,1,0,0,0.8587,Peridotite_rect,3,0,3,0,1,
5dd4074feab0423daf012f92,TCR,2024-06-20_16h34.11.715,LearnStrategy,2023.2.3,MacIntel,57.47126437,7,2,5,,,,,,,,2,4,,,,,,,,,,,2,0.908,1,,,,,,-0.106783854,-0.255490451,1,0,0,0.9083,Basalt_rect,4,0,4,0,1,
5dd4074feab0423daf012f92,TCR,2024-06-20_16h34.11.715,LearnStrategy,2023.2.3,MacIntel,57.47126437,7,2,6,,,,,,,,4,5,,,,,,,,,,,4,2.179,1,,,,,,0.377330729,-0.234822049,1,0,0,2.1791,Gabbro_rect,5,0,5,0,1,
5dd4074feab0423daf012f92,TCR,2024-06-20_16h34.11.715,LearnStrategy,2023.2.3,MacIntel,57.47126437,7,2,7,,,,,,,,1,11,,,,,,,,,,,6,2.059,0,,,,,,-0.106388889,-0.394982639,1,0,0,2.0589,Pegmatite_rect,6,0,6,0,1,
5dd4074feab0423daf012f92,TCR,2024-06-20_16h34.11.715,LearnStrategy,2023.2.3,MacIntel,57.47126437,7,2,8,,,,,,,,7,7,,,,,,,,,,,7,0.958,1,,,,,,0.0984375,-0.420499132,1,0,0,0.958,Peridotite_rect,7,0,7,0,1,
5dd4074feab0423daf012f92,TCR,2024-06-20_16h34.11.715,LearnStrategy,2023.2.3,MacIntel,57.47126437,7,2,9,,,,,,,,8,2,,,,,,,,,,,8,0.908,1,,,,,,0.359279514,-0.386532118,1,0,0,0.9076,Pumice_rect,8,0,8,0,1,
5dd4074feab0423daf012f92,TCR,2024-06-20_16h34.11.715,LearnStrategy,2023.2.3,MacIntel,57.47126437,7,2,10,,,,,,,,1,7,,,,,,,,,,,3,5.861,0,,,,,,0.071102431,-0.248689236,1,0,0,5.8608,Diorite_rect,9,0,9,0,1,
5dd4074feab0423daf012f92,TCR,2024-06-20_16h34.11.715,LearnStrategy,2023.2.3,MacIntel,57.47126437,7,2,11,,,,,,,,6,10,,,,,,,,,,,7,0.982,0,,,,,,0.077378472,-0.397955729,1,0,0,0.9817,Peridotite_rect,10,0,10,0,1,
5dd4074feab0423daf012f92,TCR,2024-06-20_16h34.11.715,LearnStrategy,2023.2.3,MacIntel,57.47126437,7,2,12,,,,,,,,5,4,,,,,,,,,,,5,1.643,1,,,,,,-0.33922309,-0.385820312,1,0,0,1.6432,Obsidian_rect,11,0,11,0,1,
5dd4074feab0423daf012f92,TCR,2024-06-20_16h34.11.715,LearnStrategy,2023.2.3,MacIntel,57.47126437,7,2,13,,,,,,,,3,8,,,,,,,,,,,3,0.933,1,,,,,,0.087547743,-0.252769097,1,0,0,0.9331,Diorite_rect,12,0,12,0,1,
5dd4074feab0423daf012f92,TCR,2024-06-20_16h34.11.715,LearnStrategy,2023.2.3,MacIntel,57.47126437,7,2,14,,,,,,,,6,5,,,,,,,,,,,6,3.743,1,,,,,,-0.072161458,-0.397000868,1,0,0,3.7428,Pegmatite_rect,13,0,13,0,1,
5dd4074feab0423daf012f92,TCR,2024-06-20_16h34.11.715,LearnStrategy,2023.2.3,MacIntel,57.47126437,7,2,15,,,,,,,,4,12,,,,,,,,,,,4,1.199,1,,,,,,0.416883681,-0.236770833,1,0,0,1.1991,Gabbro_rect,14,0,14,0,1,
5dd4074feab0423daf012f92,TCR,2024-06-20_16h34.11.715,LearnStrategy,2023.2.3,MacIntel,57.47126437,7,2,16,,,,,,,,8,13,,,,,,,,,,,8,0.823,1,,,,,,0.363576389,-0.407083333,1,0,0,0.8234,Pumice_rect,15,0,15,0,1,
5dd4074feab0423daf012f92,TCR,2024-06-20_16h34.11.715,LearnStrategy,2023.2.3,MacIntel,57.47126437,8,1,1,0.010108507,0.006258681,1,0,0,1.1147,rock_grid_rect_2,5,12,-1,-1,1.115,-0.349487847,-0.37874566,1,0,0,0.9094,Obsidian_rect,5,0.909,1,0,0,0,0,1,,,,,,,,,,,,,
5dd4074feab0423daf012f92,TCR,2024-06-20_16h34.11.715,LearnStrategy,2023.2.3,MacIntel,57.47126437,8,1,2,-0.123337674,-0.011297743,1,0,0,0.7136,rock_grid_rect_2,4,14,-1,-1,0.714,0.335425347,-0.251085069,1,0,0,1.2118,Gabbro_rect,4,1.212,1,1,0,1,0,1,,,,,,,,,,,,,
5dd4074feab0423daf012f92,TCR,2024-06-20_16h34.11.715,LearnStrategy,2023.2.3,MacIntel,57.47126437,8,1,3,-0.011202257,-0.0071875,1,0,0,0.4985,rock_grid_rect_2,7,14,-1,-1,0.499,0.156397569,-0.398923611,1,0,0,0.9595,Peridotite_rect,7,0.96,1,2,0,2,0,1,,,,,,,,,,,,,
5dd4074feab0423daf012f92,TCR,2024-06-20_16h34.11.715,LearnStrategy,2023.2.3,MacIntel,57.47126437,8,1,4,-0.109032118,-0.021380208,1,0,0,0.5651,rock_grid_rect_2,4,1,-1,-1,0.565,0.359709201,-0.229192708,1,0,0,2.0263,Gabbro_rect,4,2.026,1,3,0,3,0,1,,,,,,,,,,,,,
5dd4074feab0423daf012f92,TCR,2024-06-20_16h34.11.715,LearnStrategy,2023.2.3,MacIntel,57.47126437,8,1,5,0.078524306,-0.002621528,1,0,0,0.6489,rock_grid_rect_2,1,14,-1,-1,0.649,-0.360677083,-0.233233507,1,0,0,2.0117,Andesite_rect,1,2.012,1,4,0,4,0,1,,,,,,,,,,,,,
5dd4074feab0423daf012f92,TCR,2024-06-20_16h34.11.715,LearnStrategy,2023.2.3,MacIntel,57.47126437,8,1,6,-0.157552083,0.01578125,1,0,0,0.6816,rock_grid_rect_2,8,10,-1,-1,0.682,0.313181424,-0.412391493,1,0,0,1.5085,Pumice_rect,8,1.509,1,5,0,5,0,1,,,,,,,,,,,,,
5dd4074feab0423daf012f92,TCR,2024-06-20_16h34.11.715,LearnStrategy,2023.2.3,MacIntel,57.47126437,8,1,7,-0.029253472,-0.002743056,1,0,0,0.5484,rock_grid_rect_2,5,7,-1,-1,0.548,-0.315017361,-0.420325521,1,0,0,1.0121,Obsidian_rect,5,1.012,1,6,0,6,0,1,,,,,,,,,,,,,
5dd4074feab0423daf012f92,TCR,2024-06-20_16h34.11.715,LearnStrategy,2023.2.3,MacIntel,57.47126437,8,1,8,-0.099188368,0.002356771,1,0,0,0.5154,rock_grid_rect_2,8,6,-1,-1,0.515,0.314852431,-0.40171441,1,0,0,0.9944,Pumice_rect,8,0.994,1,7,0,7,0,1,,,,,,,,,,,,,
5dd4074feab0423daf012f92,TCR,2024-06-20_16h34.11.715,LearnStrategy,2023.2.3,MacIntel,57.47126437,8,1,9,-0.066493056,0.002573785,1,0,0,0.6478,rock_grid_rect_2,2,9,-1,-1,0.648,-0.171822917,-0.233710937,1,0,0,1.094,Basalt_rect,2,1.094,1,8,0,8,0,1,,,,,,,,,,,,,
5dd4074feab0423daf012f92,TCR,2024-06-20_16h34.11.715,LearnStrategy,2023.2.3,MacIntel,57.47126437,8,1,10,-0.175920139,0.009053819,1,0,0,0.4821,rock_grid_rect_2,3,16,-1,-1,0.482,0.110911458,-0.245477431,1,0,0,0.9257,Diorite_rect,3,0.926,1,9,0,9,0,1,,,,,,,,,,,,,
5dd4074feab0423daf012f92,TCR,2024-06-20_16h34.11.715,LearnStrategy,2023.2.3,MacIntel,57.47126437,8,1,11,-0.034118924,-0.000447049,1,0,0,0.449,rock_grid_rect_2,1,2,-1,-1,0.449,-0.371579861,-0.229661458,1,0,0,2.2436,Andesite_rect,1,2.244,1,10,0,10,0,1,,,,,,,,,,,,,
5dd4074feab0423daf012f92,TCR,2024-06-20_16h34.11.715,LearnStrategy,2023.2.3,MacIntel,57.47126437,8,1,12,-0.173003472,0.002309028,1,0,0,0.4658,rock_grid_rect_2,2,14,-1,-1,0.466,0.370980903,-0.23922309,1,0,0,1.5425,Gabbro_rect,4,1.543,0,11,0,11,0,1,,,,,,,,,,,,,
5dd4074feab0423daf012f92,TCR,2024-06-20_16h34.11.715,LearnStrategy,2023.2.3,MacIntel,57.47126437,8,1,13,0.101770833,0.001627604,1,0,0,0.7654,rock_grid_rect_2,6,9,-1,-1,0.765,-0.110373264,-0.395737847,1,0,0,1.4914,Pegmatite_rect,6,1.491,1,12,0,12,0,1,,,,,,,,,,,,,
5dd4074feab0423daf012f92,TCR,2024-06-20_16h34.11.715,LearnStrategy,2023.2.3,MacIntel,57.47126437,8,1,14,-0.097786458,0.006857639,1,0,0,0.4485,rock_grid_rect_2,7,5,-1,-1,0.448,0.063806424,-0.405121528,1,0,0,1.529,Peridotite_rect,7,1.529,1,13,0,13,0,1,,,,,,,,,,,,,
5dd4074feab0423daf012f92,TCR,2024-06-20_16h34.11.715,LearnStrategy,2023.2.3,MacIntel,57.47126437,8,1,15,-0.122608507,-0.004123264,1,0,0,0.4654,rock_grid_rect_2,3,13,-1,-1,0.465,0.111228299,-0.259700521,1,0,0,1.3754,Diorite_rect,3,1.375,1,14,0,14,0,1,,,,,,,,,,,,,
5dd4074feab0423daf012f92,TCR,2024-06-20_16h34.11.715,LearnStrategy,2023.2.3,MacIntel,57.47126437,8,1,16,-0.049952257,0.003654514,1,0,0,0.5816,rock_grid_rect_2,6,15,-1,-1,0.582,-0.096019965,-0.408224826,1,0,0,0.9767,Pegmatite_rect,6,0.977,1,15,0,15,0,1,,,,,,,,,,,,,
5dd4074feab0423daf012f92,TCR,2024-06-20_16h34.11.715,LearnStrategy,2023.2.3,MacIntel,57.47126437,8,2,1,,,,,,,,5,2,,,,,,,,,,,5,1.777,1,,,,,,-0.320147569,-0.413650174,1,0,0,1.7774,Obsidian_rect,0,0,0,0,1,
5dd4074feab0423daf012f92,TCR,2024-06-20_16h34.11.715,LearnStrategy,2023.2.3,MacIntel,57.47126437,8,2,2,,,,,,,,5,16,,,,,,,,,,,5,0.809,1,,,,,,-0.335898437,-0.417135417,1,0,0,0.8086,Obsidian_rect,1,0,1,0,1,
5dd4074feab0423daf012f92,TCR,2024-06-20_16h34.11.715,LearnStrategy,2023.2.3,MacIntel,57.47126437,8,2,3,,,,,,,,6,13,,,,,,,,,,,6,1.457,1,,,,,,-0.188628472,-0.404791667,1,0,0,1.4572,Pegmatite_rect,2,0,2,0,1,
5dd4074feab0423daf012f92,TCR,2024-06-20_16h34.11.715,LearnStrategy,2023.2.3,MacIntel,57.47126437,8,2,4,,,,,,,,8,8,,,,,,,,,,,8,1.009,1,,,,,,0.410507813,-0.410095486,1,0,0,1.0088,Pumice_rect,3,0,3,0,1,
5dd4074feab0423daf012f92,TCR,2024-06-20_16h34.11.715,LearnStrategy,2023.2.3,MacIntel,57.47126437,8,2,5,,,,,,,,2,10,,,,,,,,,,,2,1.141,1,,,,,,-0.15171441,-0.250021701,1,0,0,1.1411,Basalt_rect,4,0,4,0,1,
5dd4074feab0423daf012f92,TCR,2024-06-20_16h34.11.715,LearnStrategy,2023.2.3,MacIntel,57.47126437,8,2,6,,,,,,,,4,8,,,,,,,,,,,4,1.209,1,,,,,,0.377890625,-0.249249132,1,0,0,1.2086,Gabbro_rect,5,0,5,0,1,
5dd4074feab0423daf012f92,TCR,2024-06-20_16h34.11.715,LearnStrategy,2023.2.3,MacIntel,57.47126437,8,2,7,,,,,,,,8,9,,,,,,,,,,,8,0.878,1,,,,,,0.304765625,-0.408359375,1,0,0,0.8778,Pumice_rect,6,0,6,0,1,
5dd4074feab0423daf012f92,TCR,2024-06-20_16h34.11.715,LearnStrategy,2023.2.3,MacIntel,57.47126437,8,2,8,,,,,,,,1,1,,,,,,,,,,,1,2.642,1,,,,,,-0.357413194,-0.243111979,1,0,0,2.6423,Andesite_rect,7,0,7,0,1,
5dd4074feab0423daf012f92,TCR,2024-06-20_16h34.11.715,LearnStrategy,2023.2.3,MacIntel,57.47126437,8,2,9,,,,,,,,1,3,,,,,,,,,,,1,6.16,1,,,,,,-0.33297309,-0.245672743,1,0,0,6.1601,Andesite_rect,8,0,8,0,1,
5dd4074feab0423daf012f92,TCR,2024-06-20_16h34.11.715,LearnStrategy,2023.2.3,MacIntel,57.47126437,8,2,10,,,,,,,,2,5,,,,,,,,,,,2,0.968,1,,,,,,-0.127738715,-0.265182292,1,0,0,0.9683,Basalt_rect,9,0,9,0,1,
5dd4074feab0423daf012f92,TCR,2024-06-20_16h34.11.715,LearnStrategy,2023.2.3,MacIntel,57.47126437,8,2,11,,,,,,,,6,11,,,,,,,,,,,6,0.792,1,,,,,,-0.099618056,-0.384231771,1,0,0,0.7918,Pegmatite_rect,10,0,10,0,1,
5dd4074feab0423daf012f92,TCR,2024-06-20_16h34.11.715,LearnStrategy,2023.2.3,MacIntel,57.47126437,8,2,12,,,,,,,,3,11,,,,,,,,,,,3,1.277,1,,,,,,0.104257813,-0.263849826,1,0,0,1.2767,Diorite_rect,11,0,11,0,1,
5dd4074feab0423daf012f92,TCR,2024-06-20_16h34.11.715,LearnStrategy,2023.2.3,MacIntel,57.47126437,8,2,13,,,,,,,,3,6,,,,,,,,,,,3,0.726,1,,,,,,0.105820312,-0.249631076,1,0,0,0.7256,Diorite_rect,12,0,12,0,1,
5dd4074feab0423daf012f92,TCR,2024-06-20_16h34.11.715,LearnStrategy,2023.2.3,MacIntel,57.47126437,8,2,14,,,,,,,,7,4,,,,,,,,,,,1,11.31,0,,,,,,-0.3325,-0.263611111,1,0,0,11.3098,Andesite_rect,13,0,13,0,1,
5dd4074feab0423daf012f92,TCR,2024-06-20_16h34.11.715,LearnStrategy,2023.2.3,MacIntel,57.47126437,8,2,15,,,,,,,,4,9,,,,,,,,,,,4,1.733,1,,,,,,0.380386285,-0.250347222,1,0,0,1.7331,Gabbro_rect,14,0,14,0,1,
5dd4074feab0423daf012f92,TCR,2024-06-20_16h34.11.715,LearnStrategy,2023.2.3,MacIntel,57.47126437,8,2,16,,,,,,,,7,16,,,,,,,,,,,7,1.026,1,,,,,,0.159622396,-0.384878472,1,0,0,1.0261,Peridotite_rect,15,0,15,0,1,
5dd4074feab0423daf012f92,TCR,2024-06-20_16h34.11.715,LearnStrategy,2023.2.3,MacIntel,57.47126437,9,1,1,0.000772569,0.00812066,1,0,0,0.6988,rock_grid_rect_2,5,11,-1,-1,0.699,-0.329648438,-0.402682292,1,0,0,1.477,Obsidian_rect,5,1.477,1,0,0,0,0,1,,,,,,,,,,,,,
5dd4074feab0423daf012f92,TCR,2024-06-20_16h34.11.715,LearnStrategy,2023.2.3,MacIntel,57.47126437,9,1,2,-0.080377604,0.006510417,1,0,0,0.7644,rock_grid_rect_2,5,5,-1,-1,0.764,-0.345985243,-0.39453559,1,0,0,1.2935,Obsidian_rect,5,1.293,1,1,0,1,0,1,,,,,,,,,,,,,
5dd4074feab0423daf012f92,TCR,2024-06-20_16h34.11.715,LearnStrategy,2023.2.3,MacIntel,57.47126437,9,1,3,-0.169253472,0.012256944,1,0,0,0.7646,rock_grid_rect_2,1,4,-1,-1,0.765,-0.428033854,-0.258476563,1,0,0,1.7276,Andesite_rect,1,1.728,1,2,0,2,0,1,,,,,,,,,,,,,
5dd4074feab0423daf012f92,TCR,2024-06-20_16h34.11.715,LearnStrategy,2023.2.3,MacIntel,57.47126437,9,1,4,-0.182734375,-0.014322917,1,0,0,0.5321,rock_grid_rect_2,8,4,-1,-1,0.532,0.350711806,-0.409444444,1,0,0,1.6116,Pumice_rect,8,1.612,1,3,0,3,0,1,,,,,,,,,,,,,
5dd4074feab0423daf012f92,TCR,2024-06-20_16h34.11.715,LearnStrategy,2023.2.3,MacIntel,57.47126437,9,1,5,0.113845486,-0.004539931,1,0,0,0.4485,rock_grid_rect_2,4,10,-1,-1,0.448,0.375434028,-0.255230035,1,0,0,1.2756,Gabbro_rect,4,1.276,1,4,0,4,0,1,,,,,,,,,,,,,
5dd4074feab0423daf012f92,TCR,2024-06-20_16h34.11.715,LearnStrategy,2023.2.3,MacIntel,57.47126437,9,1,6,0.11469184,0.009826389,1,0,0,0.6659,rock_grid_rect_2,3,7,-1,-1,0.666,0.06594184,-0.233784722,1,0,0,0.793,Diorite_rect,3,0.793,1,5,0,5,0,1,,,,,,,,,,,,,
5dd4074feab0423daf012f92,TCR,2024-06-20_16h34.11.715,LearnStrategy,2023.2.3,MacIntel,57.47126437,9,1,7,-0.062725694,-0.014778646,1,0,0,0.4488,rock_grid_rect_2,7,12,-1,-1,0.449,0.117430556,-0.385225694,1,0,0,0.9923,Peridotite_rect,7,0.992,1,6,0,6,0,1,,,,,,,,,,,,,
5dd4074feab0423daf012f92,TCR,2024-06-20_16h34.11.715,LearnStrategy,2023.2.3,MacIntel,57.47126437,9,1,8,0.024418403,-0.008554687,1,0,0,0.6661,rock_grid_rect_2,2,2,-1,-1,0.666,-0.082196181,-0.247057292,1,0,0,0.8935,Basalt_rect,2,0.893,1,7,0,7,0,1,,,,,,,,,,,,,
5dd4074feab0423daf012f92,TCR,2024-06-20_16h34.11.715,LearnStrategy,2023.2.3,MacIntel,57.47126437,9,1,9,-0.091640625,-0.009505208,1,0,0,0.5487,rock_grid_rect_2,6,6,-1,-1,0.549,-0.100286458,-0.387326389,1,0,0,1.2932,Pegmatite_rect,6,1.293,1,8,0,8,0,1,,,,,,,,,,,,,
5dd4074feab0423daf012f92,TCR,2024-06-20_16h34.11.715,LearnStrategy,2023.2.3,MacIntel,57.47126437,9,1,10,-0.030902778,0.009861111,1,0,0,0.5656,rock_grid_rect_2,7,6,-1,-1,0.566,0.123298611,-0.403923611,1,0,0,0.893,Peridotite_rect,7,0.893,1,9,0,9,0,1,,,,,,,,,,,,,
5dd4074feab0423daf012f92,TCR,2024-06-20_16h34.11.715,LearnStrategy,2023.2.3,MacIntel,57.47126437,9,1,11,-0.091258681,0.005516493,1,0,0,0.4984,rock_grid_rect_2,3,12,-1,-1,0.498,0.07374566,-0.229835069,1,0,0,0.8261,Diorite_rect,3,0.826,1,10,0,10,0,1,,,,,,,,,,,,,
5dd4074feab0423daf012f92,TCR,2024-06-20_16h34.11.715,LearnStrategy,2023.2.3,MacIntel,57.47126437,9,1,12,-0.106592882,-0.012947049,1,0,0,0.5491,rock_grid_rect_2,8,3,-1,-1,0.549,0.366948785,-0.379348958,1,0,0,0.961,Pumice_rect,8,0.961,1,11,0,11,0,1,,,,,,,,,,,,,
5dd4074feab0423daf012f92,TCR,2024-06-20_16h34.11.715,LearnStrategy,2023.2.3,MacIntel,57.47126437,9,1,13,0.148498264,-0.011106771,1,0,0,0.3976,rock_grid_rect_2,2,12,-1,-1,0.398,-0.096358507,-0.237248264,1,0,0,1.5101,Basalt_rect,2,1.51,1,12,0,12,0,1,,,,,,,,,,,,,
5dd4074feab0423daf012f92,TCR,2024-06-20_16h34.11.715,LearnStrategy,2023.2.3,MacIntel,57.47126437,9,1,14,-0.071236979,0.00531684,1,0,0,0.565,rock_grid_rect_2,4,16,-1,-1,0.565,0.396792535,-0.255230035,1,0,0,1.328,Gabbro_rect,4,1.328,1,13,0,13,0,1,,,,,,,,,,,,,
5dd4074feab0423daf012f92,TCR,2024-06-20_16h34.11.715,LearnStrategy,2023.2.3,MacIntel,57.47126437,9,1,15,0.089991319,-0.005993924,1,0,0,0.6487,rock_grid_rect_2,6,3,-1,-1,0.649,-0.113342014,-0.392460937,1,0,0,1.5583,Pegmatite_rect,6,1.558,1,14,0,14,0,1,,,,,,,,,,,,,
5dd4074feab0423daf012f92,TCR,2024-06-20_16h34.11.715,LearnStrategy,2023.2.3,MacIntel,57.47126437,9,1,16,-0.023085938,-0.003854167,1,0,0,0.9637,rock_grid_rect_2,1,5,-1,-1,0.964,-0.330551215,-0.247161458,1,0,0,2.2278,Andesite_rect,1,2.228,1,15,0,15,0,1,,,,,,,,,,,,,
5dd4074feab0423daf012f92,TCR,2024-06-20_16h34.11.715,LearnStrategy,2023.2.3,MacIntel,57.47126437,9,2,1,,,,,,,,3,9,,,,,,,,,,,3,1.024,1,,,,,,0.168984375,-0.233958333,1,0,0,1.024,Diorite_rect,0,0,0,0,1,
5dd4074feab0423daf012f92,TCR,2024-06-20_16h34.11.715,LearnStrategy,2023.2.3,MacIntel,57.47126437,9,2,2,,,,,,,,7,8,,,,,,,,,,,7,1.992,1,,,,,,0.084761285,-0.394583333,1,0,0,1.9919,Peridotite_rect,1,0,1,0,1,
5dd4074feab0423daf012f92,TCR,2024-06-20_16h34.11.715,LearnStrategy,2023.2.3,MacIntel,57.47126437,9,2,3,,,,,,,,6,8,,,,,,,,,,,6,1.008,1,,,,,,-0.123667535,-0.389479167,1,0,0,1.0078,Pegmatite_rect,2,0,2,0,1,
5dd4074feab0423daf012f92,TCR,2024-06-20_16h34.11.715,LearnStrategy,2023.2.3,MacIntel,57.47126437,9,2,4,,,,,,,,6,7,,,,,,,,,,,6,1.392,1,,,,,,-0.087126736,-0.394622396,1,0,0,1.392,Pegmatite_rect,3,0,3,0,1,
5dd4074feab0423daf012f92,TCR,2024-06-20_16h34.11.715,LearnStrategy,2023.2.3,MacIntel,57.47126437,9,2,5,,,,,,,,7,15,,,,,,,,,,,7,0.875,1,,,,,,0.074592014,-0.416241319,1,0,0,0.8754,Peridotite_rect,4,0,4,0,1,
5dd4074feab0423daf012f92,TCR,2024-06-20_16h34.11.715,LearnStrategy,2023.2.3,MacIntel,57.47126437,9,2,6,,,,,,,,5,9,,,,,,,,,,,5,1.024,1,,,,,,-0.332751736,-0.37953125,1,0,0,1.0238,Obsidian_rect,5,0,5,0,1,
5dd4074feab0423daf012f92,TCR,2024-06-20_16h34.11.715,LearnStrategy,2023.2.3,MacIntel,57.47126437,9,2,7,,,,,,,,1,6,,,,,,,,,,,4,9.826,0,,,,,,0.434288194,-0.229778646,1,0,0,9.8256,Gabbro_rect,6,0,6,0,1,
5dd4074feab0423daf012f92,TCR,2024-06-20_16h34.11.715,LearnStrategy,2023.2.3,MacIntel,57.47126437,9,2,8,,,,,,,,4,15,,,,,,,,,,,4,4.565,1,,,,,,0.406957465,-0.232109375,1,0,0,4.5654,Gabbro_rect,7,0,7,0,1,
5dd4074feab0423daf012f92,TCR,2024-06-20_16h34.11.715,LearnStrategy,2023.2.3,MacIntel,57.47126437,9,2,9,,,,,,,,3,15,,,,,,,,,,,3,1.332,1,,,,,,0.153858507,-0.232287326,1,0,0,1.3321,Diorite_rect,8,0,8,0,1,
5dd4074feab0423daf012f92,TCR,2024-06-20_16h34.11.715,LearnStrategy,2023.2.3,MacIntel,57.47126437,9,2,10,,,,,,,,2,16,,,,,,,,,,,4,1.225,0,,,,,,0.371697049,-0.238945313,1,0,0,1.2247,Gabbro_rect,9,0,9,0,1,
5dd4074feab0423daf012f92,TCR,2024-06-20_16h34.11.715,LearnStrategy,2023.2.3,MacIntel,57.47126437,9,2,11,,,,,,,,1,9,,,,,,,,,,,1,2.644,1,,,,,,-0.355360243,-0.23703559,1,0,0,2.6439,Andesite_rect,10,0,10,0,1,
5dd4074feab0423daf012f92,TCR,2024-06-20_16h34.11.715,LearnStrategy,2023.2.3,MacIntel,57.47126437,9,2,12,,,,,,,,8,15,,,,,,,,,,,8,1.144,1,,,,,,0.336575521,-0.384388021,1,0,0,1.1444,Pumice_rect,11,0,11,0,1,
5dd4074feab0423daf012f92,TCR,2024-06-20_16h34.11.715,LearnStrategy,2023.2.3,MacIntel,57.47126437,9,2,13,,,,,,,,8,14,,,,,,,,,,,8,1.141,1,,,,,,0.318815104,-0.379513889,1,0,0,1.1408,Pumice_rect,12,0,12,0,1,
5dd4074feab0423daf012f92,TCR,2024-06-20_16h34.11.715,LearnStrategy,2023.2.3,MacIntel,57.47126437,9,2,14,,,,,,,,4,11,,,,,,,,,,,4,1.792,1,,,,,,0.372773438,-0.24077691,1,0,0,1.7916,Gabbro_rect,13,0,13,0,1,
5dd4074feab0423daf012f92,TCR,2024-06-20_16h34.11.715,LearnStrategy,2023.2.3,MacIntel,57.47126437,9,2,15,,,,,,,,5,6,,,,,,,,,,,5,1.008,1,,,,,,-0.376970486,-0.400499132,1,0,0,1.008,Obsidian_rect,14,0,14,0,1,
5dd4074feab0423daf012f92,TCR,2024-06-20_16h34.11.715,LearnStrategy,2023.2.3,MacIntel,57.47126437,9,2,16,,,,,,,,2,1,,,,,,,,,,,2,1.443,1,,,,,,-0.177860243,-0.240980903,1,0,0,1.4425,Basalt_rect,15,0,15,0,1,
5dd4074feab0423daf012f92,TCR,2024-06-20_16h34.11.715,LearnStrategy,2023.2.3,MacIntel,57.47126437,,,,,,,,,,,,,,,,,,,,,,,,,,,,,,,,,,,,,,,,,,,1
5dd4074feab0423daf012f92,TCR,2024-06-20_16h34.11.715,LearnStrategy,2023.2.3,MacIntel,57.47126437,,,,,,,,,,,,,,,,,,,,,,,,,,,,,,,,,,,,,,,,,,,
5dd4074feab0423daf012f92,TCR,2024-06-20_16h34.11.715,LearnStrategy,2023.2.3,MacIntel,57.47126437,,,,,,,,,,,4,16,1,1,,,,,,,,,,,,,,,,,,,,,,,,,,,,,
5dd4074feab0423daf012f92,TCR,2024-06-20_16h34.11.715,LearnStrategy,2023.2.3,MacIntel,57.47126437,,,,,,,,,,,6,6,1,2,,,,,,,,,,,,,,,,,,,,,,,,,,,,,
5dd4074feab0423daf012f92,TCR,2024-06-20_16h34.11.715,LearnStrategy,2023.2.3,MacIntel,57.47126437,,,,,,,,,,,2,2,1,3,,,,,,,,,,,,,,,,,,,,,,,,,,,,,
5dd4074feab0423daf012f92,TCR,2024-06-20_16h34.11.715,LearnStrategy,2023.2.3,MacIntel,57.47126437,,,,,,,,,,,1,4,1,4,,,,,,,,,,,,,,,,,,,,,,,,,,,,,
5dd4074feab0423daf012f92,TCR,2024-06-20_16h34.11.715,LearnStrategy,2023.2.3,MacIntel,57.47126437,,,,,,,,,,,2,8,1,5,,,,,,,,,,,,,,,,,,,,,,,,,,,,,
5dd4074feab0423daf012f92,TCR,2024-06-20_16h34.11.715,LearnStrategy,2023.2.3,MacIntel,57.47126437,,,,,,,,,,,8,16,1,6,,,,,,,,,,,,,,,,,,,,,,,,,,,,,
5dd4074feab0423daf012f92,TCR,2024-06-20_16h34.11.715,LearnStrategy,2023.2.3,MacIntel,57.47126437,,,,,,,,,,,1,5,1,7,,,,,,,,,,,,,,,,,,,,,,,,,,,,,
5dd4074feab0423daf012f92,TCR,2024-06-20_16h34.11.715,LearnStrategy,2023.2.3,MacIntel,57.47126437,,,,,,,,,,,6,16,1,8,,,,,,,,,,,,,,,,,,,,,,,,,,,,,
5dd4074feab0423daf012f92,TCR,2024-06-20_16h34.11.715,LearnStrategy,2023.2.3,MacIntel,57.47126437,,,,,,,,,,,7,5,2,1,,,,,,,,,,,,,,,,,,,,,,,,,,,,,
5dd4074feab0423daf012f92,TCR,2024-06-20_16h34.11.715,LearnStrategy,2023.2.3,MacIntel,57.47126437,,,,,,,,,,,3,12,2,2,,,,,,,,,,,,,,,,,,,,,,,,,,,,,
5dd4074feab0423daf012f92,TCR,2024-06-20_16h34.11.715,LearnStrategy,2023.2.3,MacIntel,57.47126437,,,,,,,,,,,3,14,2,3,,,,,,,,,,,,,,,,,,,,,,,,,,,,,
5dd4074feab0423daf012f92,TCR,2024-06-20_16h34.11.715,LearnStrategy,2023.2.3,MacIntel,57.47126437,,,,,,,,,,,6,15,2,4,,,,,,,,,,,,,,,,,,,,,,,,,,,,,
5dd4074feab0423daf012f92,TCR,2024-06-20_16h34.11.715,LearnStrategy,2023.2.3,MacIntel,57.47126437,,,,,,,,,,,4,1,2,5,,,,,,,,,,,,,,,,,,,,,,,,,,,,,
5dd4074feab0423daf012f92,TCR,2024-06-20_16h34.11.715,LearnStrategy,2023.2.3,MacIntel,57.47126437,,,,,,,,,,,1,16,2,6,,,,,,,,,,,,,,,,,,,,,,,,,,,,,
5dd4074feab0423daf012f92,TCR,2024-06-20_16h34.11.715,LearnStrategy,2023.2.3,MacIntel,57.47126437,,,,,,,,,,,1,14,2,7,,,,,,,,,,,,,,,,,,,,,,,,,,,,,
5dd4074feab0423daf012f92,TCR,2024-06-20_16h34.11.715,LearnStrategy,2023.2.3,MacIntel,57.47126437,,,,,,,,,,,5,10,2,8,,,,,,,,,,,,,,,,,,,,,,,,,,,,,
5dd4074feab0423daf012f92,TCR,2024-06-20_16h34.11.715,LearnStrategy,2023.2.3,MacIntel,57.47126437,,,,,,,,,,,3,2,3,1,,,,,,,,,,,,,,,,,,,,,,,,,,,,,
5dd4074feab0423daf012f92,TCR,2024-06-20_16h34.11.715,LearnStrategy,2023.2.3,MacIntel,57.47126437,,,,,,,,,,,6,12,3,2,,,,,,,,,,,,,,,,,,,,,,,,,,,,,
5dd4074feab0423daf012f92,TCR,2024-06-20_16h34.11.715,LearnStrategy,2023.2.3,MacIntel,57.47126437,,,,,,,,,,,5,11,3,3,,,,,,,,,,,,,,,,,,,,,,,,,,,,,
5dd4074feab0423daf012f92,TCR,2024-06-20_16h34.11.715,LearnStrategy,2023.2.3,MacIntel,57.47126437,,,,,,,,,,,3,7,3,4,,,,,,,,,,,,,,,,,,,,,,,,,,,,,
5dd4074feab0423daf012f92,TCR,2024-06-20_16h34.11.715,LearnStrategy,2023.2.3,MacIntel,57.47126437,,,,,,,,,,,7,6,3,5,,,,,,,,,,,,,,,,,,,,,,,,,,,,,
5dd4074feab0423daf012f92,TCR,2024-06-20_16h34.11.715,LearnStrategy,2023.2.3,MacIntel,57.47126437,,,,,,,,,,,2,9,3,6,,,,,,,,,,,,,,,,,,,,,,,,,,,,,
5dd4074feab0423daf012f92,TCR,2024-06-20_16h34.11.715,LearnStrategy,2023.2.3,MacIntel,57.47126437,,,,,,,,,,,7,2,3,7,,,,,,,,,,,,,,,,,,,,,,,,,,,,,
5dd4074feab0423daf012f92,TCR,2024-06-20_16h34.11.715,LearnStrategy,2023.2.3,MacIntel,57.47126437,,,,,,,,,,,2,12,3,8,,,,,,,,,,,,,,,,,,,,,,,,,,,,,
5dd4074feab0423daf012f92,TCR,2024-06-20_16h34.11.715,LearnStrategy,2023.2.3,MacIntel,57.47126437,,,,,,,,,,,2,11,4,1,,,,,,,,,,,,,,,,,,,,,,,,,,,,,
5dd4074feab0423daf012f92,TCR,2024-06-20_16h34.11.715,LearnStrategy,2023.2.3,MacIntel,57.47126437,,,,,,,,,,,1,2,4,2,,,,,,,,,,,,,,,,,,,,,,,,,,,,,
5dd4074feab0423daf012f92,TCR,2024-06-20_16h34.11.715,LearnStrategy,2023.2.3,MacIntel,57.47126437,,,,,,,,,,,4,3,4,3,,,,,,,,,,,,,,,,,,,,,,,,,,,,,
5dd4074feab0423daf012f92,TCR,2024-06-20_16h34.11.715,LearnStrategy,2023.2.3,MacIntel,57.47126437,,,,,,,,,,,5,14,4,4,,,,,,,,,,,,,,,,,,,,,,,,,,,,,
5dd4074feab0423daf012f92,TCR,2024-06-20_16h34.11.715,LearnStrategy,2023.2.3,MacIntel,57.47126437,,,,,,,,,,,8,5,4,5,,,,,,,,,,,,,,,,,,,,,,,,,,,,,
5dd4074feab0423daf012f92,TCR,2024-06-20_16h34.11.715,LearnStrategy,2023.2.3,MacIntel,57.47126437,,,,,,,,,,,4,14,4,6,,,,,,,,,,,,,,,,,,,,,,,,,,,,,
5dd4074feab0423daf012f92,TCR,2024-06-20_16h34.11.715,LearnStrategy,2023.2.3,MacIntel,57.47126437,,,,,,,,,,,8,3,4,7,,,,,,,,,,,,,,,,,,,,,,,,,,,,,
5dd4074feab0423daf012f92,TCR,2024-06-20_16h34.11.715,LearnStrategy,2023.2.3,MacIntel,57.47126437,,,,,,,,,,,3,13,4,8,,,,,,,,,,,,,,,,,,,,,,,,,,,,,
5dd4074feab0423daf012f92,TCR,2024-06-20_16h34.11.715,LearnStrategy,2023.2.3,MacIntel,57.47126437,,,,,,,,,,,6,3,5,1,,,,,,,,,,,,,,,,,,,,,,,,,,,,,
5dd4074feab0423daf012f92,TCR,2024-06-20_16h34.11.715,LearnStrategy,2023.2.3,MacIntel,57.47126437,,,,,,,,,,,8,10,5,2,,,,,,,,,,,,,,,,,,,,,,,,,,,,,
5dd4074feab0423daf012f92,TCR,2024-06-20_16h34.11.715,LearnStrategy,2023.2.3,MacIntel,57.47126437,,,,,,,,,,,8,4,5,3,,,,,,,,,,,,,,,,,,,,,,,,,,,,,
5dd4074feab0423daf012f92,TCR,2024-06-20_16h34.11.715,LearnStrategy,2023.2.3,MacIntel,57.47126437,,,,,,,,,,,5,12,5,4,,,,,,,,,,,,,,,,,,,,,,,,,,,,,
5dd4074feab0423daf012f92,TCR,2024-06-20_16h34.11.715,LearnStrategy,2023.2.3,MacIntel,57.47126437,,,,,,,,,,,3,16,5,5,,,,,,,,,,,,,,,,,,,,,,,,,,,,,
5dd4074feab0423daf012f92,TCR,2024-06-20_16h34.11.715,LearnStrategy,2023.2.3,MacIntel,57.47126437,,,,,,,,,,,2,14,5,6,,,,,,,,,,,,,,,,,,,,,,,,,,,,,
5dd4074feab0423daf012f92,TCR,2024-06-20_16h34.11.715,LearnStrategy,2023.2.3,MacIntel,57.47126437,,,,,,,,,,,1,10,5,7,,,,,,,,,,,,,,,,,,,,,,,,,,,,,
5dd4074feab0423daf012f92,TCR,2024-06-20_16h34.11.715,LearnStrategy,2023.2.3,MacIntel,57.47126437,,,,,,,,,,,4,13,5,8,,,,,,,,,,,,,,,,,,,,,,,,,,,,,
5dd4074feab0423daf012f92,TCR,2024-06-20_16h34.11.715,LearnStrategy,2023.2.3,MacIntel,57.47126437,,,,,,,,,,,7,12,6,1,,,,,,,,,,,,,,,,,,,,,,,,,,,,,
5dd4074feab0423daf012f92,TCR,2024-06-20_16h34.11.715,LearnStrategy,2023.2.3,MacIntel,57.47126437,,,,,,,,,,,6,9,6,2,,,,,,,,,,,,,,,,,,,,,,,,,,,,,
5dd4074feab0423daf012f92,TCR,2024-06-20_16h34.11.715,LearnStrategy,2023.2.3,MacIntel,57.47126437,,,,,,,,,,,5,5,6,3,,,,,,,,,,,,,,,,,,,,,,,,,,,,,
5dd4074feab0423daf012f92,TCR,2024-06-20_16h34.11.715,LearnStrategy,2023.2.3,MacIntel,57.47126437,,,,,,,,,,,4,10,6,4,,,,,,,,,,,,,,,,,,,,,,,,,,,,,
5dd4074feab0423daf012f92,TCR,2024-06-20_16h34.11.715,LearnStrategy,2023.2.3,MacIntel,57.47126437,,,,,,,,,,,7,14,6,5,,,,,,,,,,,,,,,,,,,,,,,,,,,,,
5dd4074feab0423daf012f92,TCR,2024-06-20_16h34.11.715,LearnStrategy,2023.2.3,MacIntel,57.47126437,,,,,,,,,,,8,6,6,6,,,,,,,,,,,,,,,,,,,,,,,,,,,,,
5dd4074feab0423daf012f92,TCR,2024-06-20_16h34.11.715,LearnStrategy,2023.2.3,MacIntel,57.47126437,,,,,,,,,,,5,7,6,7,,,,,,,,,,,,,,,,,,,,,,,,,,,,,
5dd4074feab0423daf012f92,TCR,2024-06-20_16h34.11.715,LearnStrategy,2023.2.3,MacIntel,57.47126437,,,,,,,,,,,7,10,6,8,,,,,,,,,,,,,,,,,,,,,,,,,,,,,
