participant,condition,date,expName,psychopyVersion,OS,frameRate,block,phase,trial,learn_mouse.x,learn_mouse.y,learn_mouse.leftButton,learn_mouse.midButton,learn_mouse.rightButton,learn_mouse.time,learn_mouse.clicked_name,cat,token,row,col,t_select,cat_rec,token_rec,cat_mouse_l.x,cat_mouse_l.y,cat_mouse_l.leftButton,cat_mouse_l.midButton,cat_mouse_l.rightButton,cat_mouse_l.time,cat_mouse_l.clicked_name,resp,t_resp,corr,train_trials.thisRepN,train_trials.thisTrialN,train_trials.thisN,train_trials.thisIndex,train_trials.ran,cat_mouse_t.x,cat_mouse_t.y,cat_mouse_t.leftButton,cat_mouse_t.midButton,cat_mouse_t.rightButton,cat_mouse_t.time,cat_mouse_t.clicked_name,test_trials.thisRepN,test_trials.thisTrialN,test_trials.thisN,test_trials.thisIndex,test_trials.ran,Bonus
5de5496937e1d50ca63e0fa5,SCR,2024-06-11_13h09.51.830,LearnStrategy,2023.2.3,Win32,59.88023952,,,,,,,,,,,,,,,,,,,,,,,,,,,,,,,,,,,,,,,,,,,,,
5de5496937e1d50ca63e0fa5,SCR,2024-06-11_13h09.51.830,LearnStrategy,2023.2.3,Win32,59.88023952,1,1,1,0.088888889,0.4,1,0,0,8.9993,Pegmatite_11,6,11,6,5,8.999,6,11,-0.372222222,-0.39537037,1,0,0,13.6988,Obsidian_rect,5,13.699,0,0,0,0,0,1,,,,,,,,,,,,,
5de5496937e1d50ca63e0fa5,SCR,2024-06-11_13h09.51.830,LearnStrategy,2023.2.3,Win32,59.88023952,1,1,2,0.249074074,-0.417592593,1,0,0,2.5357,Andesite_01,1,01,1,6,2.536,1,01,-0.367592593,-0.25,1,0,0,7.2227,Andesite_rect,1,7.223,1,1,0,1,0,1,,,,,,,,,,,,,
5de5496937e1d50ca63e0fa5,SCR,2024-06-11_13h09.51.830,LearnStrategy,2023.2.3,Win32,59.88023952,1,1,3,0.560185185,0.405555556,1,0,0,1.6218,Gabbro_01,4,01,6,8,1.622,4,01,-0.112037037,-0.251851852,1,0,0,8.1015,Basalt_rect,2,8.102,0,2,0,2,0,1,,,,,,,,,,,,,
5de5496937e1d50ca63e0fa5,SCR,2024-06-11_13h09.51.830,LearnStrategy,2023.2.3,Win32,59.88023952,1,1,4,0.088888889,0.237037037,1,0,0,1.4882,Andesite_14,1,14,5,5,1.488,1,14,-0.381481481,-0.387037037,1,0,0,4.1762,Obsidian_rect,5,4.176,0,3,0,3,0,1,,,,,,,,,,,,,
5de5496937e1d50ca63e0fa5,SCR,2024-06-11_13h09.51.830,LearnStrategy,2023.2.3,Win32,59.88023952,1,1,5,-0.222222222,0.099074074,1,0,0,1.2184,Peridotite_10,7,10,4,3,1.218,7,10,-0.121296296,-0.252777778,1,0,0,8.8265,Basalt_rect,2,8.827,0,4,0,4,0,1,,,,,,,,,,,,,
5de5496937e1d50ca63e0fa5,SCR,2024-06-11_13h09.51.830,LearnStrategy,2023.2.3,Win32,59.88023952,1,1,6,-0.532407407,-0.101851852,1,0,0,2.1219,Diorite_13,3,13,3,1,2.122,3,13,0.131481481,-0.243518519,1,0,0,5.0301,Diorite_rect,3,5.03,1,5,0,5,0,1,,,,,,,,,,,,,
5de5496937e1d50ca63e0fa5,SCR,2024-06-11_13h09.51.830,LearnStrategy,2023.2.3,Win32,59.88023952,1,1,7,0.557407407,-0.263888889,1,0,0,1.7845,Pumice_10,8,10,2,8,1.785,8,10,0.390740741,-0.389814815,1,0,0,5.1243,Pumice_rect,8,5.124,1,6,0,6,0,1,,,,,,,,,,,,,
5de5496937e1d50ca63e0fa5,SCR,2024-06-11_13h09.51.830,LearnStrategy,2023.2.3,Win32,59.88023952,1,1,8,-0.389814815,0.393518519,1,0,0,1.4156,Obsidian_10,5,10,6,2,1.416,5,10,-0.369444444,-0.390740741,1,0,0,1.5792,Obsidian_rect,5,1.579,1,7,0,7,0,1,,,,,,,,,,,,,
5de5496937e1d50ca63e0fa5,SCR,2024-06-11_13h09.51.830,LearnStrategy,2023.2.3,Win32,59.88023952,1,1,9,-0.387037037,0.242592593,1,0,0,1.3572,Basalt_16,2,16,5,2,1.357,2,16,-0.140740741,-0.243518519,1,0,0,4.2938,Basalt_rect,2,4.294,1,8,0,8,0,1,,,,,,,,,,,,,
5de5496937e1d50ca63e0fa5,SCR,2024-06-11_13h09.51.830,LearnStrategy,2023.2.3,Win32,59.88023952,1,1,10,-0.551851852,0.388888889,1,0,0,1.4892,Peridotite_04,7,04,6,1,1.489,7,04,0.414814815,-0.253703704,1,0,0,23.295,Gabbro_rect,4,23.295,0,9,0,9,0,1,,,,,,,,,,,,,
5de5496937e1d50ca63e0fa5,SCR,2024-06-11_13h09.51.830,LearnStrategy,2023.2.3,Win32,59.88023952,1,1,11,-0.036111111,0.069444444,1,0,0,1.4544,Pegmatite_03,6,03,4,4,1.454,6,03,-0.097222222,-0.416666667,1,0,0,11.0105,Pegmatite_rect,6,11.01,1,10,0,10,0,1,,,,,,,,,,,,,
5de5496937e1d50ca63e0fa5,SCR,2024-06-11_13h09.51.830,LearnStrategy,2023.2.3,Win32,59.88023952,1,1,12,-0.531481481,-0.272222222,1,0,0,2.0221,Obsidian_08,5,08,2,1,2.022,5,08,-0.384259259,-0.37962963,1,0,0,1.7268,Obsidian_rect,5,1.727,1,11,0,11,0,1,,,,,,,,,,,,,
5de5496937e1d50ca63e0fa5,SCR,2024-06-11_13h09.51.830,LearnStrategy,2023.2.3,Win32,59.88023952,1,1,13,-0.372222222,-0.257407407,1,0,0,1.8083,Pumice_15,8,15,2,2,1.808,8,15,-0.108333333,-0.248148148,1,0,0,10.261,Basalt_rect,2,10.261,0,12,0,12,0,1,,,,,,,,,,,,,
5de5496937e1d50ca63e0fa5,SCR,2024-06-11_13h09.51.830,LearnStrategy,2023.2.3,Win32,59.88023952,1,1,14,0.258333333,0.239814815,1,0,0,1.4052,Gabbro_03,4,03,5,6,1.405,4,03,-0.371296296,-0.253703704,1,0,0,8.0438,Andesite_rect,1,8.044,0,13,0,13,0,1,,,,,,,,,,,,,
5de5496937e1d50ca63e0fa5,SCR,2024-06-11_13h09.51.830,LearnStrategy,2023.2.3,Win32,59.88023952,1,1,15,-0.374074074,-0.39537037,1,0,0,1.9562,Diorite_07,3,07,1,2,1.956,3,07,-0.346296296,-0.248148148,1,0,0,8.4257,Andesite_rect,1,8.426,0,14,0,14,0,1,,,,,,,,,,,,,
5de5496937e1d50ca63e0fa5,SCR,2024-06-11_13h09.51.830,LearnStrategy,2023.2.3,Win32,59.88023952,1,1,16,-0.225925926,0.225,1,0,0,1.8367,Basalt_08,2,08,5,3,1.837,2,08,-0.352777778,-0.25462963,1,0,0,9.9092,Andesite_rect,1,9.909,0,15,0,15,0,1,,,,,,,,,,,,,
5de5496937e1d50ca63e0fa5,SCR,2024-06-11_13h09.51.830,LearnStrategy,2023.2.3,Win32,59.88023952,1,2,1,,,,,,,,1,11,,,,,,,,,,,,,1,11.837,1,,,,,,-0.374074074,-0.234259259,1,0,0,11.8367,Andesite_rect,0,0,0,0,1,
5de5496937e1d50ca63e0fa5,SCR,2024-06-11_13h09.51.830,LearnStrategy,2023.2.3,Win32,59.88023952,1,2,2,,,,,,,,3,10,,,,,,,,,,,,,3,7.054,1,,,,,,0.138888889,-0.240740741,1,0,0,7.0536,Diorite_rect,1,0,1,0,1,
5de5496937e1d50ca63e0fa5,SCR,2024-06-11_13h09.51.830,LearnStrategy,2023.2.3,Win32,59.88023952,1,2,3,,,,,,,,5,04,,,,,,,,,,,,,5,5.543,1,,,,,,-0.37962963,-0.388888889,1,0,0,5.5428,Obsidian_rect,2,0,2,0,1,
5de5496937e1d50ca63e0fa5,SCR,2024-06-11_13h09.51.830,LearnStrategy,2023.2.3,Win32,59.88023952,1,2,4,,,,,,,,6,12,,,,,,,,,,,,,3,19.443,0,,,,,,0.155555556,-0.248148148,1,0,0,19.4428,Diorite_rect,3,0,3,0,1,
5de5496937e1d50ca63e0fa5,SCR,2024-06-11_13h09.51.830,LearnStrategy,2023.2.3,Win32,59.88023952,1,2,5,,,,,,,,1,02,,,,,,,,,,,,,7,8.038,0,,,,,,0.131481481,-0.399074074,1,0,0,8.0382,Peridotite_rect,4,0,4,0,1,
5de5496937e1d50ca63e0fa5,SCR,2024-06-11_13h09.51.830,LearnStrategy,2023.2.3,Win32,59.88023952,1,2,6,,,,,,,,6,09,,,,,,,,,,,,,6,4.355,1,,,,,,-0.125925926,-0.396296296,1,0,0,4.3552,Pegmatite_rect,5,0,5,0,1,
5de5496937e1d50ca63e0fa5,SCR,2024-06-11_13h09.51.830,LearnStrategy,2023.2.3,Win32,59.88023952,1,2,7,,,,,,,,8,16,,,,,,,,,,,,,8,10.472,1,,,,,,0.418518519,-0.401851852,1,0,0,10.4723,Pumice_rect,6,0,6,0,1,
5de5496937e1d50ca63e0fa5,SCR,2024-06-11_13h09.51.830,LearnStrategy,2023.2.3,Win32,59.88023952,1,2,8,,,,,,,,5,14,,,,,,,,,,,,,5,19.204,1,,,,,,-0.368518519,-0.399074074,1,0,0,19.2037,Obsidian_rect,7,0,7,0,1,
5de5496937e1d50ca63e0fa5,SCR,2024-06-11_13h09.51.830,LearnStrategy,2023.2.3,Win32,59.88023952,1,2,9,,,,,,,,8,04,,,,,,,,,,,,,8,5.314,1,,,,,,0.402777778,-0.409259259,1,0,0,5.3142,Pumice_rect,8,0,8,0,1,
5de5496937e1d50ca63e0fa5,SCR,2024-06-11_13h09.51.830,LearnStrategy,2023.2.3,Win32,59.88023952,1,2,10,,,,,,,,7,14,,,,,,,,,,,,,7,28.526,1,,,,,,0.130555556,-0.391666667,1,0,0,28.5259,Peridotite_rect,9,0,9,0,1,
5de5496937e1d50ca63e0fa5,SCR,2024-06-11_13h09.51.830,LearnStrategy,2023.2.3,Win32,59.88023952,1,2,11,,,,,,,,4,11,,,,,,,,,,,,,4,12.85,1,,,,,,0.425,-0.247222222,1,0,0,12.8495,Gabbro_rect,10,0,10,0,1,
5de5496937e1d50ca63e0fa5,SCR,2024-06-11_13h09.51.830,LearnStrategy,2023.2.3,Win32,59.88023952,1,2,12,,,,,,,,7,06,,,,,,,,,,,,,7,25.511,1,,,,,,0.156481481,-0.4,1,0,0,25.5109,Peridotite_rect,11,0,11,0,1,
5de5496937e1d50ca63e0fa5,SCR,2024-06-11_13h09.51.830,LearnStrategy,2023.2.3,Win32,59.88023952,1,2,13,,,,,,,,4,15,,,,,,,,,,,,,3,13.266,0,,,,,,0.177777778,-0.261111111,1,0,0,13.2658,Diorite_rect,12,0,12,0,1,
5de5496937e1d50ca63e0fa5,SCR,2024-06-11_13h09.51.830,LearnStrategy,2023.2.3,Win32,59.88023952,1,2,14,,,,,,,,2,05,,,,,,,,,,,,,2,4.142,1,,,,,,-0.106481481,-0.251851852,1,0,0,4.1423,Basalt_rect,13,0,13,0,1,
5de5496937e1d50ca63e0fa5,SCR,2024-06-11_13h09.51.830,LearnStrategy,2023.2.3,Win32,59.88023952,1,2,15,,,,,,,,2,14,,,,,,,,,,,,,2,5.65,1,,,,,,-0.101851852,-0.257407407,1,0,0,5.65,Basalt_rect,14,0,14,0,1,
5de5496937e1d50ca63e0fa5,SCR,2024-06-11_13h09.51.830,LearnStrategy,2023.2.3,Win32,59.88023952,1,2,16,,,,,,,,3,12,,,,,,,,,,,,,3,6.087,1,,,,,,0.159259259,-0.249074074,1,0,0,6.0868,Diorite_rect,15,0,15,0,1,
5de5496937e1d50ca63e0fa5,SCR,2024-06-11_13h09.51.830,LearnStrategy,2023.2.3,Win32,59.88023952,2,1,1,0.231481481,-0.407407407,1,0,0,3.8941,Andesite_01,1,01,1,6,3.894,1,01,-0.349074074,-0.243518519,1,0,0,7.2045,Andesite_rect,1,7.204,1,0,0,0,0,1,,,,,,,,,,,,,
5de5496937e1d50ca63e0fa5,SCR,2024-06-11_13h09.51.830,LearnStrategy,2023.2.3,Win32,59.88023952,2,1,2,0.232407407,0.080555556,1,0,0,1.0048,Obsidian_16,5,16,4,6,1.005,5,16,-0.326851852,-0.387962963,1,0,0,1.0788,Obsidian_rect,5,1.079,1,1,0,1,0,1,,,,,,,,,,,,,
5de5496937e1d50ca63e0fa5,SCR,2024-06-11_13h09.51.830,LearnStrategy,2023.2.3,Win32,59.88023952,2,1,3,0.244444444,0.387962963,1,0,0,6.2086,Pegmatite_16,6,16,6,6,6.209,6,16,-0.35462963,-0.240740741,1,0,0,1.6594,Andesite_rect,1,1.659,0,2,0,2,0,1,,,,,,,,,,,,,
5de5496937e1d50ca63e0fa5,SCR,2024-06-11_13h09.51.830,LearnStrategy,2023.2.3,Win32,59.88023952,2,1,4,0.268518519,0.244444444,1,0,0,1.3067,Gabbro_03,4,03,5,6,1.307,4,03,0.407407407,-0.262037037,1,0,0,6.4266,Gabbro_rect,4,6.427,1,3,0,3,0,1,,,,,,,,,,,,,
5de5496937e1d50ca63e0fa5,SCR,2024-06-11_13h09.51.830,LearnStrategy,2023.2.3,Win32,59.88023952,2,1,5,-0.209259259,-0.265740741,1,0,0,1.3069,Gabbro_16,4,16,2,3,1.307,4,16,-0.136111111,-0.243518519,1,0,0,4.8681,Basalt_rect,2,4.868,0,4,0,4,0,1,,,,,,,,,,,,,
5de5496937e1d50ca63e0fa5,SCR,2024-06-11_13h09.51.830,LearnStrategy,2023.2.3,Win32,59.88023952,2,1,6,0.255555556,0.241666667,1,0,0,1.3391,Gabbro_03,4,03,5,6,1.339,4,03,0.421296296,-0.236111111,1,0,0,3.8509,Gabbro_rect,4,3.851,1,5,0,5,0,1,,,,,,,,,,,,,
5de5496937e1d50ca63e0fa5,SCR,2024-06-11_13h09.51.830,LearnStrategy,2023.2.3,Win32,59.88023952,2,1,7,0.390740741,0.396296296,1,0,0,1.1218,Peridotite_08,7,08,6,7,1.122,7,08,0.122222222,-0.380555556,1,0,0,7.7016,Peridotite_rect,7,7.702,1,6,0,6,0,1,,,,,,,,,,,,,
5de5496937e1d50ca63e0fa5,SCR,2024-06-11_13h09.51.830,LearnStrategy,2023.2.3,Win32,59.88023952,2,1,8,-0.209259259,-0.123148148,1,0,0,1.1561,Pegmatite_10,6,10,3,3,1.156,6,10,-0.136111111,-0.386111111,1,0,0,7.9109,Pegmatite_rect,6,7.911,1,7,0,7,0,1,,,,,,,,,,,,,
5de5496937e1d50ca63e0fa5,SCR,2024-06-11_13h09.51.830,LearnStrategy,2023.2.3,Win32,59.88023952,2,1,9,0.544444444,0.082407407,1,0,0,1.0896,Andesite_10,1,10,4,8,1.09,1,10,-0.378703704,-0.238888889,1,0,0,9.5279,Andesite_rect,1,9.528,1,8,0,8,0,1,,,,,,,,,,,,,
5de5496937e1d50ca63e0fa5,SCR,2024-06-11_13h09.51.830,LearnStrategy,2023.2.3,Win32,59.88023952,2,1,10,-0.528703704,-0.09537037,1,0,0,1.5654,Diorite_13,3,13,3,1,1.565,3,13,0.15,-0.25,1,0,0,3.5612,Diorite_rect,3,3.561,1,9,0,9,0,1,,,,,,,,,,,,,
5de5496937e1d50ca63e0fa5,SCR,2024-06-11_13h09.51.830,LearnStrategy,2023.2.3,Win32,59.88023952,2,1,11,0.402777778,0.083333333,1,0,0,1.2395,Diorite_09,3,09,4,7,1.24,3,09,-0.369444444,-0.246296296,1,0,0,7.4778,Andesite_rect,1,7.478,0,10,0,10,0,1,,,,,,,,,,,,,
5de5496937e1d50ca63e0fa5,SCR,2024-06-11_13h09.51.830,LearnStrategy,2023.2.3,Win32,59.88023952,2,1,12,0.557407407,-0.410185185,1,0,0,1.5247,Gabbro_05,4,05,1,8,1.525,4,05,-0.360185185,-0.251851852,1,0,0,5.4104,Andesite_rect,1,5.41,0,11,0,11,0,1,,,,,,,,,,,,,
5de5496937e1d50ca63e0fa5,SCR,2024-06-11_13h09.51.830,LearnStrategy,2023.2.3,Win32,59.88023952,2,1,13,-0.231481481,-0.096296296,1,0,0,1.3237,Pegmatite_10,6,10,3,3,1.324,6,10,-0.119444444,-0.410185185,1,0,0,2.6886,Pegmatite_rect,6,2.689,1,12,0,12,0,1,,,,,,,,,,,,,
5de5496937e1d50ca63e0fa5,SCR,2024-06-11_13h09.51.830,LearnStrategy,2023.2.3,Win32,59.88023952,2,1,14,0.112037037,0.394444444,1,0,0,1.589,Pegmatite_11,6,11,6,5,1.589,6,11,-0.12037037,-0.385185185,1,0,0,2.2763,Pegmatite_rect,6,2.276,1,13,0,13,0,1,,,,,,,,,,,,,
5de5496937e1d50ca63e0fa5,SCR,2024-06-11_13h09.51.830,LearnStrategy,2023.2.3,Win32,59.88023952,2,1,15,-0.537962963,0.246296296,1,0,0,1.3519,Pumice_02,8,02,5,1,1.352,8,02,0.402777778,-0.407407407,1,0,0,1.7442,Pumice_rect,8,1.744,1,14,0,14,0,1,,,,,,,,,,,,,
5de5496937e1d50ca63e0fa5,SCR,2024-06-11_13h09.51.830,LearnStrategy,2023.2.3,Win32,59.88023952,2,1,16,0.375925926,-0.308333333,1,0,0,1.1074,Andesite_03,1,03,2,7,1.107,1,03,0.406481481,-0.243518519,1,0,0,0.2534,Gabbro_rect,4,0.253,0,15,0,15,0,1,,,,,,,,,,,,,
5de5496937e1d50ca63e0fa5,SCR,2024-06-11_13h09.51.830,LearnStrategy,2023.2.3,Win32,59.88023952,2,2,1,,,,,,,,1,16,,,,,,,,,,,,,1,3.21,1,,,,,,-0.381481481,-0.240740741,1,0,0,3.2104,Andesite_rect,0,0,0,0,1,
5de5496937e1d50ca63e0fa5,SCR,2024-06-11_13h09.51.830,LearnStrategy,2023.2.3,Win32,59.88023952,2,2,2,,,,,,,,1,04,,,,,,,,,,,,,4,30.969,0,,,,,,0.414814815,-0.253703704,1,0,0,30.969,Gabbro_rect,1,0,1,0,1,
5de5496937e1d50ca63e0fa5,SCR,2024-06-11_13h09.51.830,LearnStrategy,2023.2.3,Win32,59.88023952,2,2,3,,,,,,,,6,06,,,,,,,,,,,,,6,3.244,1,,,,,,-0.12962963,-0.394444444,1,0,0,3.2436,Pegmatite_rect,2,0,2,0,1,
5de5496937e1d50ca63e0fa5,SCR,2024-06-11_13h09.51.830,LearnStrategy,2023.2.3,Win32,59.88023952,2,2,4,,,,,,,,6,15,,,,,,,,,,,,,6,3.917,1,,,,,,-0.097222222,-0.398148148,1,0,0,3.9166,Pegmatite_rect,3,0,3,0,1,
5de5496937e1d50ca63e0fa5,SCR,2024-06-11_13h09.51.830,LearnStrategy,2023.2.3,Win32,59.88023952,2,2,5,,,,,,,,4,12,,,,,,,,,,,,,4,7.407,1,,,,,,0.42037037,-0.235185185,1,0,0,7.4065,Gabbro_rect,4,0,4,0,1,
5de5496937e1d50ca63e0fa5,SCR,2024-06-11_13h09.51.830,LearnStrategy,2023.2.3,Win32,59.88023952,2,2,6,,,,,,,,2,06,,,,,,,,,,,,,2,3.322,1,,,,,,-0.109259259,-0.25462963,1,0,0,3.3225,Basalt_rect,5,0,5,0,1,
5de5496937e1d50ca63e0fa5,SCR,2024-06-11_13h09.51.830,LearnStrategy,2023.2.3,Win32,59.88023952,2,2,7,,,,,,,,3,11,,,,,,,,,,,,,3,4.588,1,,,,,,0.161111111,-0.246296296,1,0,0,4.5879,Diorite_rect,6,0,6,0,1,
5de5496937e1d50ca63e0fa5,SCR,2024-06-11_13h09.51.830,LearnStrategy,2023.2.3,Win32,59.88023952,2,2,8,,,,,,,,5,05,,,,,,,,,,,,,5,3.543,1,,,,,,-0.365740741,-0.394444444,1,0,0,3.5431,Obsidian_rect,7,0,7,0,1,
5de5496937e1d50ca63e0fa5,SCR,2024-06-11_13h09.51.830,LearnStrategy,2023.2.3,Win32,59.88023952,2,2,9,,,,,,,,8,13,,,,,,,,,,,,,8,2.187,1,,,,,,0.399074074,-0.389814815,1,0,0,2.1871,Pumice_rect,8,0,8,0,1,
5de5496937e1d50ca63e0fa5,SCR,2024-06-11_13h09.51.830,LearnStrategy,2023.2.3,Win32,59.88023952,2,2,10,,,,,,,,7,15,,,,,,,,,,,,,6,1.816,0,,,,,,-0.102777778,-0.39537037,1,0,0,1.8162,Pegmatite_rect,9,0,9,0,1,
5de5496937e1d50ca63e0fa5,SCR,2024-06-11_13h09.51.830,LearnStrategy,2023.2.3,Win32,59.88023952,2,2,11,,,,,,,,8,03,,,,,,,,,,,,,8,1.644,1,,,,,,0.405555556,-0.378703704,1,0,0,1.6437,Pumice_rect,10,0,10,0,1,
5de5496937e1d50ca63e0fa5,SCR,2024-06-11_13h09.51.830,LearnStrategy,2023.2.3,Win32,59.88023952,2,2,12,,,,,,,,7,12,,,,,,,,,,,,,7,5.865,1,,,,,,0.137962963,-0.387037037,1,0,0,5.8648,Peridotite_rect,11,0,11,0,1,
5de5496937e1d50ca63e0fa5,SCR,2024-06-11_13h09.51.830,LearnStrategy,2023.2.3,Win32,59.88023952,2,2,13,,,,,,,,3,14,,,,,,,,,,,,,3,6.368,1,,,,,,0.148148148,-0.242592593,1,0,0,6.3682,Diorite_rect,12,0,12,0,1,
5de5496937e1d50ca63e0fa5,SCR,2024-06-11_13h09.51.830,LearnStrategy,2023.2.3,Win32,59.88023952,2,2,14,,,,,,,,4,13,,,,,,,,,,,,,2,6.035,0,,,,,,-0.113888889,-0.246296296,1,0,0,6.0353,Basalt_rect,13,0,13,0,1,
5de5496937e1d50ca63e0fa5,SCR,2024-06-11_13h09.51.830,LearnStrategy,2023.2.3,Win32,59.88023952,2,2,15,,,,,,,,5,02,,,,,,,,,,,,,5,1.258,1,,,,,,-0.361111111,-0.388888889,1,0,0,1.2584,Obsidian_rect,14,0,14,0,1,
5de5496937e1d50ca63e0fa5,SCR,2024-06-11_13h09.51.830,LearnStrategy,2023.2.3,Win32,59.88023952,2,2,16,,,,,,,,2,11,,,,,,,,,,,,,2,21.502,1,,,,,,-0.093518519,-0.257407407,1,0,0,21.5018,Basalt_rect,15,0,15,0,1,
5de5496937e1d50ca63e0fa5,SCR,2024-06-11_13h09.51.830,LearnStrategy,2023.2.3,Win32,59.88023952,3,1,1,0.391666667,0.393518519,1,0,0,1.8316,Peridotite_08,7,08,6,7,1.832,7,08,0.124074074,-0.391666667,1,0,0,5.6379,Peridotite_rect,7,5.638,1,0,0,0,0,1,,,,,,,,,,,,,
5de5496937e1d50ca63e0fa5,SCR,2024-06-11_13h09.51.830,LearnStrategy,2023.2.3,Win32,59.88023952,3,1,2,0.540740741,0.400925926,1,0,0,1.0902,Gabbro_01,4,01,6,8,1.09,4,01,0.425925926,-0.237037037,1,0,0,2.194,Gabbro_rect,4,2.194,1,1,0,1,0,1,,,,,,,,,,,,,
5de5496937e1d50ca63e0fa5,SCR,2024-06-11_13h09.51.830,LearnStrategy,2023.2.3,Win32,59.88023952,3,1,3,0.089814815,-0.094444444,1,0,0,1.0393,Peridotite_05,7,05,3,5,1.039,7,05,0.139814815,-0.386111111,1,0,0,3.7466,Peridotite_rect,7,3.747,1,2,0,2,0,1,,,,,,,,,,,,,
5de5496937e1d50ca63e0fa5,SCR,2024-06-11_13h09.51.830,LearnStrategy,2023.2.3,Win32,59.88023952,3,1,4,0.234259259,-0.251851852,1,0,0,1.1585,Andesite_09,1,09,2,6,1.159,1,09,-0.372222222,-0.239814815,1,0,0,16.8932,Andesite_rect,1,16.893,1,3,0,3,0,1,,,,,,,,,,,,,
5de5496937e1d50ca63e0fa5,SCR,2024-06-11_13h09.51.830,LearnStrategy,2023.2.3,Win32,59.88023952,3,1,5,-0.359259259,0.078703704,1,0,0,1.1891,Diorite_02,3,02,4,2,1.189,3,02,-0.353703704,-0.235185185,1,0,0,8.6113,Andesite_rect,1,8.611,0,4,0,4,0,1,,,,,,,,,,,,,
5de5496937e1d50ca63e0fa5,SCR,2024-06-11_13h09.51.830,LearnStrategy,2023.2.3,Win32,59.88023952,3,1,6,0.551851852,-0.258333333,1,0,0,1.2567,Pumice_10,8,10,2,8,1.257,8,10,0.431481481,-0.39537037,1,0,0,1.7071,Pumice_rect,8,1.707,1,5,0,5,0,1,,,,,,,,,,,,,
5de5496937e1d50ca63e0fa5,SCR,2024-06-11_13h09.51.830,LearnStrategy,2023.2.3,Win32,59.88023952,3,1,7,-0.223148148,-0.252777778,1,0,0,1.1238,Gabbro_16,4,16,2,3,1.124,4,16,-0.130555556,-0.238888889,1,0,0,5.2472,Basalt_rect,2,5.247,0,6,0,6,0,1,,,,,,,,,,,,,
5de5496937e1d50ca63e0fa5,SCR,2024-06-11_13h09.51.830,LearnStrategy,2023.2.3,Win32,59.88023952,3,1,8,-0.228703704,0.378703704,1,0,0,1.1875,Pegmatite_05,6,05,6,3,1.188,6,05,-0.112037037,-0.393518519,1,0,0,17.0407,Pegmatite_rect,6,17.041,1,7,0,7,0,1,,,,,,,,,,,,,
5de5496937e1d50ca63e0fa5,SCR,2024-06-11_13h09.51.830,LearnStrategy,2023.2.3,Win32,59.88023952,3,1,9,-0.526851852,-0.405555556,1,0,0,1.373,Gabbro_09,4,09,1,1,1.373,4,09,0.384259259,-0.251851852,1,0,0,4.8461,Gabbro_rect,4,4.846,1,8,0,8,0,1,,,,,,,,,,,,,
5de5496937e1d50ca63e0fa5,SCR,2024-06-11_13h09.51.830,LearnStrategy,2023.2.3,Win32,59.88023952,3,1,10,-0.064814815,-0.412037037,1,0,0,1.1394,Andesite_06,1,06,1,4,1.139,1,06,0.143518519,-0.388888889,1,0,0,8.0946,Peridotite_rect,7,8.095,0,9,0,9,0,1,,,,,,,,,,,,,
5de5496937e1d50ca63e0fa5,SCR,2024-06-11_13h09.51.830,LearnStrategy,2023.2.3,Win32,59.88023952,3,1,11,0.417592593,0.400925926,1,0,0,1.2057,Peridotite_08,7,08,6,7,1.206,7,08,0.155555556,-0.392592593,1,0,0,11.0509,Peridotite_rect,7,11.051,1,10,0,10,0,1,,,,,,,,,,,,,
5de5496937e1d50ca63e0fa5,SCR,2024-06-11_13h09.51.830,LearnStrategy,2023.2.3,Win32,59.88023952,3,1,12,0.55,0.398148148,1,0,0,1.3351,Gabbro_01,4,01,6,8,1.335,4,01,0.384259259,-0.22962963,1,0,0,2.8113,Gabbro_rect,4,2.811,1,11,0,11,0,1,,,,,,,,,,,,,
5de5496937e1d50ca63e0fa5,SCR,2024-06-11_13h09.51.830,LearnStrategy,2023.2.3,Win32,59.88023952,3,1,13,0.096296296,0.255555556,1,0,0,1.1073,Andesite_14,1,14,5,5,1.107,1,14,-0.362962963,-0.237962963,1,0,0,5.0442,Andesite_rect,1,5.044,1,12,0,12,0,1,,,,,,,,,,,,,
5de5496937e1d50ca63e0fa5,SCR,2024-06-11_13h09.51.830,LearnStrategy,2023.2.3,Win32,59.88023952,3,1,14,0.258333333,0.392592593,1,0,0,1.2895,Pegmatite_16,6,16,6,6,1.289,6,16,-0.375925926,-0.237037037,1,0,0,10.7982,Andesite_rect,1,10.798,0,13,0,13,0,1,,,,,,,,,,,,,
5de5496937e1d50ca63e0fa5,SCR,2024-06-11_13h09.51.830,LearnStrategy,2023.2.3,Win32,59.88023952,3,1,15,-0.059259259,0.406481481,1,0,0,1.1891,Obsidian_06,5,06,6,4,1.189,5,06,-0.368518519,-0.392592593,1,0,0,1.8242,Obsidian_rect,5,1.824,1,14,0,14,0,1,,,,,,,,,,,,,
5de5496937e1d50ca63e0fa5,SCR,2024-06-11_13h09.51.830,LearnStrategy,2023.2.3,Win32,59.88023952,3,1,16,-0.540740741,0.081481481,1,0,0,1.123,Basalt_02,2,02,4,1,1.123,2,02,0.42962963,-0.237037037,1,0,0,2.1776,Gabbro_rect,4,2.178,0,15,0,15,0,1,,,,,,,,,,,,,
5de5496937e1d50ca63e0fa5,SCR,2024-06-11_13h09.51.830,LearnStrategy,2023.2.3,Win32,59.88023952,3,2,1,,,,,,,,6,07,,,,,,,,,,,,,6,3.961,1,,,,,,-0.131481481,-0.394444444,1,0,0,3.9606,Pegmatite_rect,0,0,0,0,1,
5de5496937e1d50ca63e0fa5,SCR,2024-06-11_13h09.51.830,LearnStrategy,2023.2.3,Win32,59.88023952,3,2,2,,,,,,,,7,16,,,,,,,,,,,,,7,14.642,1,,,,,,0.153703704,-0.398148148,1,0,0,14.6423,Peridotite_rect,1,0,1,0,1,
5de5496937e1d50ca63e0fa5,SCR,2024-06-11_13h09.51.830,LearnStrategy,2023.2.3,Win32,59.88023952,3,2,3,,,,,,,,3,15,,,,,,,,,,,,,3,10.374,1,,,,,,0.156481481,-0.255555556,1,0,0,10.3736,Diorite_rect,2,0,2,0,1,
5de5496937e1d50ca63e0fa5,SCR,2024-06-11_13h09.51.830,LearnStrategy,2023.2.3,Win32,59.88023952,3,2,4,,,,,,,,7,07,,,,,,,,,,,,,7,5.722,1,,,,,,0.137037037,-0.398148148,1,0,0,5.7223,Peridotite_rect,3,0,3,0,1,
5de5496937e1d50ca63e0fa5,SCR,2024-06-11_13h09.51.830,LearnStrategy,2023.2.3,Win32,59.88023952,3,2,5,,,,,,,,1,07,,,,,,,,,,,,,1,19.276,1,,,,,,-0.376851852,-0.248148148,1,0,0,19.2761,Andesite_rect,4,0,4,0,1,
5de5496937e1d50ca63e0fa5,SCR,2024-06-11_13h09.51.830,LearnStrategy,2023.2.3,Win32,59.88023952,3,2,6,,,,,,,,2,04,,,,,,,,,,,,,2,7.584,1,,,,,,-0.102777778,-0.246296296,1,0,0,7.584,Basalt_rect,5,0,5,0,1,
5de5496937e1d50ca63e0fa5,SCR,2024-06-11_13h09.51.830,LearnStrategy,2023.2.3,Win32,59.88023952,3,2,7,,,,,,,,5,09,,,,,,,,,,,,,5,1.684,1,,,,,,-0.374074074,-0.396296296,1,0,0,1.6837,Obsidian_rect,6,0,6,0,1,
5de5496937e1d50ca63e0fa5,SCR,2024-06-11_13h09.51.830,LearnStrategy,2023.2.3,Win32,59.88023952,3,2,8,,,,,,,,2,10,,,,,,,,,,,,,2,2.738,1,,,,,,-0.135185185,-0.25462963,1,0,0,2.7378,Basalt_rect,7,0,7,0,1,
5de5496937e1d50ca63e0fa5,SCR,2024-06-11_13h09.51.830,LearnStrategy,2023.2.3,Win32,59.88023952,3,2,9,,,,,,,,8,14,,,,,,,,,,,,,8,14.171,1,,,,,,0.455555556,-0.397222222,1,0,0,14.1706,Pumice_rect,8,0,8,0,1,
5de5496937e1d50ca63e0fa5,SCR,2024-06-11_13h09.51.830,LearnStrategy,2023.2.3,Win32,59.88023952,3,2,10,,,,,,,,4,10,,,,,,,,,,,,,4,7.492,1,,,,,,0.394444444,-0.256481481,1,0,0,7.492,Gabbro_rect,9,0,9,0,1,
5de5496937e1d50ca63e0fa5,SCR,2024-06-11_13h09.51.830,LearnStrategy,2023.2.3,Win32,59.88023952,3,2,11,,,,,,,,1,05,,,,,,,,,,,,,7,15.624,0,,,,,,0.131481481,-0.417592593,1,0,0,15.6244,Peridotite_rect,10,0,10,0,1,
5de5496937e1d50ca63e0fa5,SCR,2024-06-11_13h09.51.830,LearnStrategy,2023.2.3,Win32,59.88023952,3,2,12,,,,,,,,4,08,,,,,,,,,,,,,4,17.563,1,,,,,,0.431481481,-0.238888889,1,0,0,17.5629,Gabbro_rect,11,0,11,0,1,
5de5496937e1d50ca63e0fa5,SCR,2024-06-11_13h09.51.830,LearnStrategy,2023.2.3,Win32,59.88023952,3,2,13,,,,,,,,3,08,,,,,,,,,,,,,3,6.066,1,,,,,,0.158333333,-0.241666667,1,0,0,6.0659,Diorite_rect,12,0,12,0,1,
5de5496937e1d50ca63e0fa5,SCR,2024-06-11_13h09.51.830,LearnStrategy,2023.2.3,Win32,59.88023952,3,2,14,,,,,,,,6,13,,,,,,,,,,,,,6,3.626,1,,,,,,-0.137962963,-0.391666667,1,0,0,3.6257,Pegmatite_rect,13,0,13,0,1,
5de5496937e1d50ca63e0fa5,SCR,2024-06-11_13h09.51.830,LearnStrategy,2023.2.3,Win32,59.88023952,3,2,15,,,,,,,,5,12,,,,,,,,,,,,,5,1.121,1,,,,,,-0.339814815,-0.394444444,1,0,0,1.1208,Obsidian_rect,14,0,14,0,1,
5de5496937e1d50ca63e0fa5,SCR,2024-06-11_13h09.51.830,LearnStrategy,2023.2.3,Win32,59.88023952,3,2,16,,,,,,,,8,05,,,,,,,,,,,,,8,1.272,1,,,,,,0.417592593,-0.398148148,1,0,0,1.2722,Pumice_rect,15,0,15,0,1,
5de5496937e1d50ca63e0fa5,SCR,2024-06-11_13h09.51.830,LearnStrategy,2023.2.3,Win32,59.88023952,4,1,1,-0.52037037,-0.408333333,1,0,0,1.661,Gabbro_09,4,09,1,1,1.661,4,09,-0.383333333,-0.242592593,1,0,0,20.7752,Andesite_rect,1,20.775,0,0,0,0,0,1,,,,,,,,,,,,,
5de5496937e1d50ca63e0fa5,SCR,2024-06-11_13h09.51.830,LearnStrategy,2023.2.3,Win32,59.88023952,4,1,2,0.082407407,0.249074074,1,0,0,1.069,Andesite_14,1,14,5,5,1.069,1,14,-0.355555556,-0.235185185,1,0,0,3.86,Andesite_rect,1,3.86,1,1,0,1,0,1,,,,,,,,,,,,,
5de5496937e1d50ca63e0fa5,SCR,2024-06-11_13h09.51.830,LearnStrategy,2023.2.3,Win32,59.88023952,4,1,3,-0.376851852,-0.255555556,1,0,0,1.3046,Pumice_15,8,15,2,2,1.305,8,15,0.422222222,-0.398148148,1,0,0,4.1664,Pumice_rect,8,4.166,1,2,0,2,0,1,,,,,,,,,,,,,
5de5496937e1d50ca63e0fa5,SCR,2024-06-11_13h09.51.830,LearnStrategy,2023.2.3,Win32,59.88023952,4,1,4,0.391666667,0.244444444,1,0,0,1.0059,Obsidian_07,5,07,5,7,1.006,5,07,-0.399074074,-0.383333333,1,0,0,3.8623,Obsidian_rect,5,3.862,1,3,0,3,0,1,,,,,,,,,,,,,
5de5496937e1d50ca63e0fa5,SCR,2024-06-11_13h09.51.830,LearnStrategy,2023.2.3,Win32,59.88023952,4,1,5,0.235185185,0.233333333,1,0,0,0.9407,Gabbro_03,4,03,5,6,0.941,4,03,0.396296296,-0.243518519,1,0,0,9.6102,Gabbro_rect,4,9.61,1,4,0,4,0,1,,,,,,,,,,,,,
5de5496937e1d50ca63e0fa5,SCR,2024-06-11_13h09.51.830,LearnStrategy,2023.2.3,Win32,59.88023952,4,1,6,0.260185185,0.377777778,1,0,0,1.1421,Pegmatite_16,6,16,6,6,1.142,6,16,-0.146296296,-0.391666667,1,0,0,3.6198,Pegmatite_rect,6,3.62,1,5,0,5,0,1,,,,,,,,,,,,,
5de5496937e1d50ca63e0fa5,SCR,2024-06-11_13h09.51.830,LearnStrategy,2023.2.3,Win32,59.88023952,4,1,7,-0.214814815,0.231481481,1,0,0,1.1078,Basalt_08,2,08,5,3,1.108,2,08,-0.109259259,-0.242592593,1,0,0,3.2839,Basalt_rect,2,3.284,1,6,0,6,0,1,,,,,,,,,,,,,
5de5496937e1d50ca63e0fa5,SCR,2024-06-11_13h09.51.830,LearnStrategy,2023.2.3,Win32,59.88023952,4,1,8,0.236111111,-0.251851852,1,0,0,1.1246,Andesite_09,1,09,2,6,1.125,1,09,0.402777778,-0.24537037,1,0,0,2.0229,Gabbro_rect,4,2.023,0,7,0,7,0,1,,,,,,,,,,,,,
5de5496937e1d50ca63e0fa5,SCR,2024-06-11_13h09.51.830,LearnStrategy,2023.2.3,Win32,59.88023952,4,1,9,-0.221296296,-0.113888889,1,0,0,1.092,Pegmatite_10,6,10,3,3,1.092,6,10,-0.123148148,-0.393518519,1,0,0,2.4312,Pegmatite_rect,6,2.431,1,8,0,8,0,1,,,,,,,,,,,,,
5de5496937e1d50ca63e0fa5,SCR,2024-06-11_13h09.51.830,LearnStrategy,2023.2.3,Win32,59.88023952,4,1,10,-0.059259259,-0.403703704,1,0,0,1.1545,Andesite_06,1,06,1,4,1.155,1,06,-0.307407407,-0.253703704,1,0,0,5.9295,Andesite_rect,1,5.929,1,9,0,9,0,1,,,,,,,,,,,,,
5de5496937e1d50ca63e0fa5,SCR,2024-06-11_13h09.51.830,LearnStrategy,2023.2.3,Win32,59.88023952,4,1,11,0.555555556,0.392592593,1,0,0,1.0245,Gabbro_01,4,01,6,8,1.024,4,01,0.400925926,-0.234259259,1,0,0,2.3363,Gabbro_rect,4,2.336,1,10,0,10,0,1,,,,,,,,,,,,,
5de5496937e1d50ca63e0fa5,SCR,2024-06-11_13h09.51.830,LearnStrategy,2023.2.3,Win32,59.88023952,4,1,12,-0.380555556,-0.108333333,1,0,0,1.2369,Peridotite_13,7,13,3,2,1.237,7,13,0.146296296,-0.387037037,1,0,0,6.7783,Peridotite_rect,7,6.778,1,11,0,11,0,1,,,,,,,,,,,,,
5de5496937e1d50ca63e0fa5,SCR,2024-06-11_13h09.51.830,LearnStrategy,2023.2.3,Win32,59.88023952,4,1,13,0.382407407,-0.240740741,1,0,0,2.1062,Andesite_03,1,03,2,7,2.106,1,03,-0.411111111,-0.247222222,1,0,0,5.1185,Andesite_rect,1,5.119,1,12,0,12,0,1,,,,,,,,,,,,,
5de5496937e1d50ca63e0fa5,SCR,2024-06-11_13h09.51.830,LearnStrategy,2023.2.3,Win32,59.88023952,4,1,14,0.240740741,-0.405555556,1,0,0,1.1252,Andesite_01,1,01,1,6,1.125,1,01,-0.387962963,-0.236111111,1,0,0,10.4953,Andesite_rect,1,10.495,1,13,0,13,0,1,,,,,,,,,,,,,
5de5496937e1d50ca63e0fa5,SCR,2024-06-11_13h09.51.830,LearnStrategy,2023.2.3,Win32,59.88023952,4,1,15,0.39537037,0.083333333,1,0,0,1.1904,Diorite_09,3,09,4,7,1.19,3,09,0.15,-0.239814815,1,0,0,8.131,Diorite_rect,3,8.131,1,14,0,14,0,1,,,,,,,,,,,,,
5de5496937e1d50ca63e0fa5,SCR,2024-06-11_13h09.51.830,LearnStrategy,2023.2.3,Win32,59.88023952,4,1,16,-0.550925926,0.387037037,1,0,0,1.2741,Peridotite_04,7,04,6,1,1.274,7,04,0.126851852,-0.389814815,1,0,0,4.048,Peridotite_rect,7,4.048,1,15,0,15,0,1,,,,,,,,,,,,,
5de5496937e1d50ca63e0fa5,SCR,2024-06-11_13h09.51.830,LearnStrategy,2023.2.3,Win32,59.88023952,4,2,1,,,,,,,,6,06,,,,,,,,,,,,,6,7.105,1,,,,,,-0.128703704,-0.392592593,1,0,0,7.1048,Pegmatite_rect,0,0,0,0,1,
5de5496937e1d50ca63e0fa5,SCR,2024-06-11_13h09.51.830,LearnStrategy,2023.2.3,Win32,59.88023952,4,2,2,,,,,,,,7,16,,,,,,,,,,,,,7,24.876,1,,,,,,0.137037037,-0.394444444,1,0,0,24.8757,Peridotite_rect,1,0,1,0,1,
5de5496937e1d50ca63e0fa5,SCR,2024-06-11_13h09.51.830,LearnStrategy,2023.2.3,Win32,59.88023952,4,2,3,,,,,,,,2,11,,,,,,,,,,,,,1,9.287,0,,,,,,-0.397222222,-0.237037037,1,0,0,9.2873,Andesite_rect,2,0,2,0,1,
5de5496937e1d50ca63e0fa5,SCR,2024-06-11_13h09.51.830,LearnStrategy,2023.2.3,Win32,59.88023952,4,2,4,,,,,,,,8,04,,,,,,,,,,,,,8,1.588,1,,,,,,0.414814815,-0.388888889,1,0,0,1.588,Pumice_rect,3,0,3,0,1,
5de5496937e1d50ca63e0fa5,SCR,2024-06-11_13h09.51.830,LearnStrategy,2023.2.3,Win32,59.88023952,4,2,5,,,,,,,,1,02,,,,,,,,,,,,,3,10.927,0,,,,,,0.137037037,-0.262037037,1,0,0,10.9274,Diorite_rect,4,0,4,0,1,
5de5496937e1d50ca63e0fa5,SCR,2024-06-11_13h09.51.830,LearnStrategy,2023.2.3,Win32,59.88023952,4,2,6,,,,,,,,4,13,,,,,,,,,,,,,3,16.908,0,,,,,,0.141666667,-0.247222222,1,0,0,16.9078,Diorite_rect,5,0,5,0,1,
5de5496937e1d50ca63e0fa5,SCR,2024-06-11_13h09.51.830,LearnStrategy,2023.2.3,Win32,59.88023952,4,2,7,,,,,,,,2,04,,,,,,,,,,,,,2,3.564,1,,,,,,-0.128703704,-0.239814815,1,0,0,3.5643,Basalt_rect,6,0,6,0,1,
5de5496937e1d50ca63e0fa5,SCR,2024-06-11_13h09.51.830,LearnStrategy,2023.2.3,Win32,59.88023952,4,2,8,,,,,,,,3,14,,,,,,,,,,,,,3,5.011,1,,,,,,0.133333333,-0.251851852,1,0,0,5.0106,Diorite_rect,7,0,7,0,1,
5de5496937e1d50ca63e0fa5,SCR,2024-06-11_13h09.51.830,LearnStrategy,2023.2.3,Win32,59.88023952,4,2,9,,,,,,,,4,10,,,,,,,,,,,,,4,5.854,1,,,,,,0.403703704,-0.252777778,1,0,0,5.8536,Gabbro_rect,8,0,8,0,1,
5de5496937e1d50ca63e0fa5,SCR,2024-06-11_13h09.51.830,LearnStrategy,2023.2.3,Win32,59.88023952,4,2,10,,,,,,,,5,09,,,,,,,,,,,,,5,1.346,1,,,,,,-0.362962963,-0.403703704,1,0,0,1.3457,Obsidian_rect,9,0,9,0,1,
5de5496937e1d50ca63e0fa5,SCR,2024-06-11_13h09.51.830,LearnStrategy,2023.2.3,Win32,59.88023952,4,2,11,,,,,,,,5,12,,,,,,,,,,,,,5,1.136,1,,,,,,-0.397222222,-0.388888889,1,0,0,1.136,Obsidian_rect,10,0,10,0,1,
5de5496937e1d50ca63e0fa5,SCR,2024-06-11_13h09.51.830,LearnStrategy,2023.2.3,Win32,59.88023952,4,2,12,,,,,,,,8,05,,,,,,,,,,,,,8,1.271,1,,,,,,0.387037037,-0.387037037,1,0,0,1.2708,Pumice_rect,11,0,11,0,1,
5de5496937e1d50ca63e0fa5,SCR,2024-06-11_13h09.51.830,LearnStrategy,2023.2.3,Win32,59.88023952,4,2,13,,,,,,,,7,15,,,,,,,,,,,,,7,4.693,1,,,,,,0.138888889,-0.4,1,0,0,4.6927,Peridotite_rect,12,0,12,0,1,
5de5496937e1d50ca63e0fa5,SCR,2024-06-11_13h09.51.830,LearnStrategy,2023.2.3,Win32,59.88023952,4,2,14,,,,,,,,6,12,,,,,,,,,,,,,6,17.169,1,,,,,,-0.102777778,-0.401851852,1,0,0,17.1688,Pegmatite_rect,13,0,13,0,1,
5de5496937e1d50ca63e0fa5,SCR,2024-06-11_13h09.51.830,LearnStrategy,2023.2.3,Win32,59.88023952,4,2,15,,,,,,,,3,11,,,,,,,,,,,,,3,3.567,1,,,,,,0.15,-0.237962963,1,0,0,3.5674,Diorite_rect,14,0,14,0,1,
5de5496937e1d50ca63e0fa5,SCR,2024-06-11_13h09.51.830,LearnStrategy,2023.2.3,Win32,59.88023952,4,2,16,,,,,,,,1,16,,,,,,,,,,,,,1,3.977,1,,,,,,-0.394444444,-0.24537037,1,0,0,3.9773,Andesite_rect,15,0,15,0,1,
5de5496937e1d50ca63e0fa5,SCR,2024-06-11_13h09.51.830,LearnStrategy,2023.2.3,Win32,59.88023952,5,1,1,0.55462963,0.081481481,1,0,0,1.8466,Andesite_10,1,10,4,8,1.847,1,10,-0.362962963,-0.241666667,1,0,0,6.1712,Andesite_rect,1,6.171,1,0,0,0,0,1,,,,,,,,,,,,,
5de5496937e1d50ca63e0fa5,SCR,2024-06-11_13h09.51.830,LearnStrategy,2023.2.3,Win32,59.88023952,5,1,2,0.227777778,-0.105555556,1,0,0,0.9409,Basalt_09,2,09,3,6,0.941,2,09,-0.096296296,-0.240740741,1,0,0,7.4441,Basalt_rect,2,7.444,1,1,0,1,0,1,,,,,,,,,,,,,
5de5496937e1d50ca63e0fa5,SCR,2024-06-11_13h09.51.830,LearnStrategy,2023.2.3,Win32,59.88023952,5,1,3,-0.066666667,-0.412962963,1,0,0,1.1418,Andesite_06,1,06,1,4,1.142,1,06,-0.371296296,-0.235185185,1,0,0,2.7451,Andesite_rect,1,2.745,1,2,0,2,0,1,,,,,,,,,,,,,
5de5496937e1d50ca63e0fa5,SCR,2024-06-11_13h09.51.830,LearnStrategy,2023.2.3,Win32,59.88023952,5,1,4,0.562037037,0.244444444,1,0,0,1.5893,Pumice_08,8,08,5,8,1.589,8,08,0.400925926,-0.397222222,1,0,0,1.2372,Pumice_rect,8,1.237,1,3,0,3,0,1,,,,,,,,,,,,,
5de5496937e1d50ca63e0fa5,SCR,2024-06-11_13h09.51.830,LearnStrategy,2023.2.3,Win32,59.88023952,5,1,5,-0.556481481,0.406481481,1,0,0,1.253,Peridotite_04,7,04,6,1,1.253,7,04,0.135185185,-0.402777778,1,0,0,3.8606,Peridotite_rect,7,3.861,1,4,0,4,0,1,,,,,,,,,,,,,
5de5496937e1d50ca63e0fa5,SCR,2024-06-11_13h09.51.830,LearnStrategy,2023.2.3,Win32,59.88023952,5,1,6,-0.387037037,-0.102777778,1,0,0,1.0743,Peridotite_13,7,13,3,2,1.074,7,13,0.149074074,-0.392592593,1,0,0,14.6753,Peridotite_rect,7,14.675,1,5,0,5,0,1,,,,,,,,,,,,,
5de5496937e1d50ca63e0fa5,SCR,2024-06-11_13h09.51.830,LearnStrategy,2023.2.3,Win32,59.88023952,5,1,7,0.257407407,-0.4,1,0,0,1.2731,Andesite_01,1,01,1,6,1.273,1,01,-0.383333333,-0.22962963,1,0,0,2.1071,Andesite_rect,1,2.107,1,6,0,6,0,1,,,,,,,,,,,,,
5de5496937e1d50ca63e0fa5,SCR,2024-06-11_13h09.51.830,LearnStrategy,2023.2.3,Win32,59.88023952,5,1,8,0.25,0.4,1,0,0,1.2239,Pegmatite_16,6,16,6,6,1.224,6,16,-0.066666667,-0.392592593,1,0,0,2.6604,Pegmatite_rect,6,2.66,1,7,0,7,0,1,,,,,,,,,,,,,
5de5496937e1d50ca63e0fa5,SCR,2024-06-11_13h09.51.830,LearnStrategy,2023.2.3,Win32,59.88023952,5,1,9,0.240740741,-0.264814815,1,0,0,1.0928,Andesite_09,1,09,2,6,1.093,1,09,-0.391666667,-0.237962963,1,0,0,5.807,Andesite_rect,1,5.807,1,8,0,8,0,1,,,,,,,,,,,,,
5de5496937e1d50ca63e0fa5,SCR,2024-06-11_13h09.51.830,LearnStrategy,2023.2.3,Win32,59.88023952,5,1,10,0.103703704,-0.396296296,1,0,0,1.1705,Diorite_16,3,16,1,5,1.17,3,16,0.127777778,-0.24537037,1,0,0,1.4522,Diorite_rect,3,1.452,1,9,0,9,0,1,,,,,,,,,,,,,
5de5496937e1d50ca63e0fa5,SCR,2024-06-11_13h09.51.830,LearnStrategy,2023.2.3,Win32,59.88023952,5,1,11,-0.069444444,-0.417592593,1,0,0,1.0767,Andesite_06,1,06,1,4,1.077,1,06,-0.339814815,-0.255555556,1,0,0,2.2219,Andesite_rect,1,2.222,1,10,0,10,0,1,,,,,,,,,,,,,
5de5496937e1d50ca63e0fa5,SCR,2024-06-11_13h09.51.830,LearnStrategy,2023.2.3,Win32,59.88023952,5,1,12,-0.514814815,0.093518519,1,0,0,1.2086,Basalt_02,2,02,4,1,1.209,2,02,-0.09537037,-0.239814815,1,0,0,1.8018,Basalt_rect,2,1.802,1,11,0,11,0,1,,,,,,,,,,,,,
5de5496937e1d50ca63e0fa5,SCR,2024-06-11_13h09.51.830,LearnStrategy,2023.2.3,Win32,59.88023952,5,1,13,-0.216666667,-0.418518519,1,0,0,0.9573,Obsidian_11,5,11,1,3,0.957,5,11,-0.366666667,-0.390740741,1,0,0,0.7452,Obsidian_rect,5,0.745,1,12,0,12,0,1,,,,,,,,,,,,,
5de5496937e1d50ca63e0fa5,SCR,2024-06-11_13h09.51.830,LearnStrategy,2023.2.3,Win32,59.88023952,5,1,14,0.565740741,-0.411111111,1,0,0,1.2415,Gabbro_05,4,05,1,8,1.242,4,05,0.411111111,-0.250925926,1,0,0,2.8786,Gabbro_rect,4,2.879,1,13,0,13,0,1,,,,,,,,,,,,,
5de5496937e1d50ca63e0fa5,SCR,2024-06-11_13h09.51.830,LearnStrategy,2023.2.3,Win32,59.88023952,5,1,15,0.562037037,0.407407407,1,0,0,1.1407,Gabbro_01,4,01,6,8,1.141,4,01,0.399074074,-0.239814815,1,0,0,1.2525,Gabbro_rect,4,1.253,1,14,0,14,0,1,,,,,,,,,,,,,
5de5496937e1d50ca63e0fa5,SCR,2024-06-11_13h09.51.830,LearnStrategy,2023.2.3,Win32,59.88023952,5,1,16,-0.075925926,-0.262037037,1,0,0,0.9557,Gabbro_14,4,14,2,4,0.956,4,14,0.397222222,-0.241666667,1,0,0,3.4852,Gabbro_rect,4,3.485,1,15,0,15,0,1,,,,,,,,,,,,,
5de5496937e1d50ca63e0fa5,SCR,2024-06-11_13h09.51.830,LearnStrategy,2023.2.3,Win32,59.88023952,5,2,1,,,,,,,,8,14,,,,,,,,,,,,,8,2.295,1,,,,,,0.406481481,-0.407407407,1,0,0,2.2955,Pumice_rect,0,0,0,0,1,
5de5496937e1d50ca63e0fa5,SCR,2024-06-11_13h09.51.830,LearnStrategy,2023.2.3,Win32,59.88023952,5,2,2,,,,,,,,5,05,,,,,,,,,,,,,5,2.936,1,,,,,,-0.366666667,-0.387962963,1,0,0,2.9357,Obsidian_rect,1,0,1,0,1,
5de5496937e1d50ca63e0fa5,SCR,2024-06-11_13h09.51.830,LearnStrategy,2023.2.3,Win32,59.88023952,5,2,3,,,,,,,,2,10,,,,,,,,,,,,,2,1.777,1,,,,,,-0.09537037,-0.242592593,1,0,0,1.7768,Basalt_rect,2,0,2,0,1,
5de5496937e1d50ca63e0fa5,SCR,2024-06-11_13h09.51.830,LearnStrategy,2023.2.3,Win32,59.88023952,5,2,4,,,,,,,,1,07,,,,,,,,,,,,,1,1.92,1,,,,,,-0.380555556,-0.235185185,1,0,0,1.9202,Andesite_rect,3,0,3,0,1,
5de5496937e1d50ca63e0fa5,SCR,2024-06-11_13h09.51.830,LearnStrategy,2023.2.3,Win32,59.88023952,5,2,5,,,,,,,,4,15,,,,,,,,,,,,,1,3.721,0,,,,,,-0.375,-0.242592593,1,0,0,3.721,Andesite_rect,4,0,4,0,1,
5de5496937e1d50ca63e0fa5,SCR,2024-06-11_13h09.51.830,LearnStrategy,2023.2.3,Win32,59.88023952,5,2,6,,,,,,,,6,15,,,,,,,,,,,,,6,4.553,1,,,,,,-0.093518519,-0.402777778,1,0,0,4.553,Pegmatite_rect,5,0,5,0,1,
5de5496937e1d50ca63e0fa5,SCR,2024-06-11_13h09.51.830,LearnStrategy,2023.2.3,Win32,59.88023952,5,2,7,,,,,,,,2,14,,,,,,,,,,,,,4,7.354,0,,,,,,0.405555556,-0.237962963,1,0,0,7.354,Gabbro_rect,6,0,6,0,1,
5de5496937e1d50ca63e0fa5,SCR,2024-06-11_13h09.51.830,LearnStrategy,2023.2.3,Win32,59.88023952,5,2,8,,,,,,,,3,12,,,,,,,,,,,,,3,2.187,1,,,,,,0.128703704,-0.241666667,1,0,0,2.1867,Diorite_rect,7,0,7,0,1,
5de5496937e1d50ca63e0fa5,SCR,2024-06-11_13h09.51.830,LearnStrategy,2023.2.3,Win32,59.88023952,5,2,9,,,,,,,,4,08,,,,,,,,,,,,,4,3.203,1,,,,,,0.394444444,-0.246296296,1,0,0,3.2026,Gabbro_rect,8,0,8,0,1,
5de5496937e1d50ca63e0fa5,SCR,2024-06-11_13h09.51.830,LearnStrategy,2023.2.3,Win32,59.88023952,5,2,10,,,,,,,,6,13,,,,,,,,,,,,,6,2.386,1,,,,,,-0.085185185,-0.37962963,1,0,0,2.3855,Pegmatite_rect,9,0,9,0,1,
5de5496937e1d50ca63e0fa5,SCR,2024-06-11_13h09.51.830,LearnStrategy,2023.2.3,Win32,59.88023952,5,2,11,,,,,,,,1,05,,,,,,,,,,,,,1,1.74,1,,,,,,-0.331481481,-0.231481481,1,0,0,1.7398,Andesite_rect,10,0,10,0,1,
5de5496937e1d50ca63e0fa5,SCR,2024-06-11_13h09.51.830,LearnStrategy,2023.2.3,Win32,59.88023952,5,2,12,,,,,,,,7,14,,,,,,,,,,,,,7,14.36,1,,,,,,0.160185185,-0.396296296,1,0,0,14.3601,Peridotite_rect,11,0,11,0,1,
5de5496937e1d50ca63e0fa5,SCR,2024-06-11_13h09.51.830,LearnStrategy,2023.2.3,Win32,59.88023952,5,2,13,,,,,,,,7,07,,,,,,,,,,,,,7,2.946,1,,,,,,0.148148148,-0.396296296,1,0,0,2.9463,Peridotite_rect,12,0,12,0,1,
5de5496937e1d50ca63e0fa5,SCR,2024-06-11_13h09.51.830,LearnStrategy,2023.2.3,Win32,59.88023952,5,2,14,,,,,,,,3,15,,,,,,,,,,,,,3,5.309,1,,,,,,0.162962963,-0.253703704,1,0,0,5.3085,Diorite_rect,13,0,13,0,1,
5de5496937e1d50ca63e0fa5,SCR,2024-06-11_13h09.51.830,LearnStrategy,2023.2.3,Win32,59.88023952,5,2,15,,,,,,,,8,03,,,,,,,,,,,,,8,2.431,1,,,,,,0.417592593,-0.392592593,1,0,0,2.4314,Pumice_rect,14,0,14,0,1,
5de5496937e1d50ca63e0fa5,SCR,2024-06-11_13h09.51.830,LearnStrategy,2023.2.3,Win32,59.88023952,5,2,16,,,,,,,,5,02,,,,,,,,,,,,,5,1.14,1,,,,,,-0.357407407,-0.408333333,1,0,0,1.14,Obsidian_rect,15,0,15,0,1,
5de5496937e1d50ca63e0fa5,SCR,2024-06-11_13h09.51.830,LearnStrategy,2023.2.3,Win32,59.88023952,6,1,1,0.385185185,-0.111111111,1,0,0,1.4908,Pumice_09,8,09,3,7,1.491,8,09,0.428703704,-0.382407407,1,0,0,1.3034,Pumice_rect,8,1.303,1,0,0,0,0,1,,,,,,,,,,,,,
5de5496937e1d50ca63e0fa5,SCR,2024-06-11_13h09.51.830,LearnStrategy,2023.2.3,Win32,59.88023952,6,1,2,-0.516666667,-0.389814815,1,0,0,1.2268,Gabbro_09,4,09,1,1,1.227,4,09,0.405555556,-0.24537037,1,0,0,1.6367,Gabbro_rect,4,1.637,1,1,0,1,0,1,,,,,,,,,,,,,
5de5496937e1d50ca63e0fa5,SCR,2024-06-11_13h09.51.830,LearnStrategy,2023.2.3,Win32,59.88023952,6,1,3,0.412037037,-0.411111111,1,0,0,1.508,Basalt_01,2,01,1,7,1.508,2,01,-0.080555556,-0.242592593,1,0,0,1.191,Basalt_rect,2,1.191,1,2,0,2,0,1,,,,,,,,,,,,,
5de5496937e1d50ca63e0fa5,SCR,2024-06-11_13h09.51.830,LearnStrategy,2023.2.3,Win32,59.88023952,6,1,4,-0.056481481,-0.413888889,1,0,0,0.8577,Andesite_06,1,06,1,4,0.858,1,06,-0.337962963,-0.238888889,1,0,0,1.4864,Andesite_rect,1,1.486,1,3,0,3,0,1,,,,,,,,,,,,,
5de5496937e1d50ca63e0fa5,SCR,2024-06-11_13h09.51.830,LearnStrategy,2023.2.3,Win32,59.88023952,6,1,5,0.390740741,-0.406481481,1,0,0,0.9928,Basalt_01,2,01,1,7,0.993,2,01,-0.084259259,-0.235185185,1,0,0,1.1934,Basalt_rect,2,1.193,1,4,0,4,0,1,,,,,,,,,,,,,
5de5496937e1d50ca63e0fa5,SCR,2024-06-11_13h09.51.830,LearnStrategy,2023.2.3,Win32,59.88023952,6,1,6,0.263888889,-0.410185185,1,0,0,0.9739,Andesite_01,1,01,1,6,0.974,1,01,-0.340740741,-0.243518519,1,0,0,1.1845,Andesite_rect,1,1.184,1,5,0,5,0,1,,,,,,,,,,,,,
5de5496937e1d50ca63e0fa5,SCR,2024-06-11_13h09.51.830,LearnStrategy,2023.2.3,Win32,59.88023952,6,1,7,0.535185185,0.389814815,1,0,0,1.224,Gabbro_01,4,01,6,8,1.224,4,01,0.44537037,-0.269444444,1,0,0,1.3551,Gabbro_rect,4,1.355,1,6,0,6,0,1,,,,,,,,,,,,,
5de5496937e1d50ca63e0fa5,SCR,2024-06-11_13h09.51.830,LearnStrategy,2023.2.3,Win32,59.88023952,6,1,8,0.102777778,0.083333333,1,0,0,0.7741,Basalt_12,2,12,4,5,0.774,2,12,-0.372222222,-0.262962963,1,0,0,9.0343,Andesite_rect,1,9.034,0,7,0,7,0,1,,,,,,,,,,,,,
5de5496937e1d50ca63e0fa5,SCR,2024-06-11_13h09.51.830,LearnStrategy,2023.2.3,Win32,59.88023952,6,1,9,0.247222222,-0.268518519,1,0,0,1.3725,Andesite_09,1,09,2,6,1.373,1,09,-0.385185185,-0.243518519,1,0,0,1.8185,Andesite_rect,1,1.819,1,8,0,8,0,1,,,,,,,,,,,,,
5de5496937e1d50ca63e0fa5,SCR,2024-06-11_13h09.51.830,LearnStrategy,2023.2.3,Win32,59.88023952,6,1,10,-0.535185185,0.385185185,1,0,0,1.4728,Peridotite_04,7,04,6,1,1.473,7,04,0.162962963,-0.390740741,1,0,0,9.0612,Peridotite_rect,7,9.061,1,9,0,9,0,1,,,,,,,,,,,,,
5de5496937e1d50ca63e0fa5,SCR,2024-06-11_13h09.51.830,LearnStrategy,2023.2.3,Win32,59.88023952,6,1,11,0.238888889,-0.412037037,1,0,0,1.2399,Andesite_01,1,01,1,6,1.24,1,01,-0.359259259,-0.236111111,1,0,0,1.5421,Andesite_rect,1,1.542,1,10,0,10,0,1,,,,,,,,,,,,,
5de5496937e1d50ca63e0fa5,SCR,2024-06-11_13h09.51.830,LearnStrategy,2023.2.3,Win32,59.88023952,6,1,12,0.400925926,0.098148148,1,0,0,1.0906,Diorite_09,3,09,4,7,1.091,3,09,0.182407407,-0.255555556,1,0,0,2.3145,Diorite_rect,3,2.314,1,11,0,11,0,1,,,,,,,,,,,,,
5de5496937e1d50ca63e0fa5,SCR,2024-06-11_13h09.51.830,LearnStrategy,2023.2.3,Win32,59.88023952,6,1,13,0.552777778,0.388888889,1,0,0,1.2417,Gabbro_01,4,01,6,8,1.242,4,01,0.408333333,-0.22962963,1,0,0,1.091,Gabbro_rect,4,1.091,1,12,0,12,0,1,,,,,,,,,,,,,
5de5496937e1d50ca63e0fa5,SCR,2024-06-11_13h09.51.830,LearnStrategy,2023.2.3,Win32,59.88023952,6,1,14,-0.057407407,-0.247222222,1,0,0,0.8745,Gabbro_14,4,14,2,4,0.874,4,14,0.439814815,-0.241666667,1,0,0,2.9385,Gabbro_rect,4,2.938,1,13,0,13,0,1,,,,,,,,,,,,,
5de5496937e1d50ca63e0fa5,SCR,2024-06-11_13h09.51.830,LearnStrategy,2023.2.3,Win32,59.88023952,6,1,15,0.268518519,0.367592593,1,0,0,1.174,Pegmatite_16,6,16,6,6,1.174,6,16,-0.085185185,-0.409259259,1,0,0,5.5015,Pegmatite_rect,6,5.502,1,14,0,14,0,1,,,,,,,,,,,,,
5de5496937e1d50ca63e0fa5,SCR,2024-06-11_13h09.51.830,LearnStrategy,2023.2.3,Win32,59.88023952,6,1,16,-0.500925926,-0.248148148,1,0,0,1.2235,Obsidian_08,5,08,2,1,1.224,5,08,-0.380555556,-0.385185185,1,0,0,1.5109,Obsidian_rect,5,1.511,1,15,0,15,0,1,,,,,,,,,,,,,
5de5496937e1d50ca63e0fa5,SCR,2024-06-11_13h09.51.830,LearnStrategy,2023.2.3,Win32,59.88023952,6,2,1,,,,,,,,5,14,,,,,,,,,,,,,5,1.615,1,,,,,,-0.349074074,-0.388888889,1,0,0,1.6151,Obsidian_rect,0,0,0,0,1,
5de5496937e1d50ca63e0fa5,SCR,2024-06-11_13h09.51.830,LearnStrategy,2023.2.3,Win32,59.88023952,6,2,2,,,,,,,,4,12,,,,,,,,,,,,,1,1.64,0,,,,,,-0.349074074,-0.228703704,1,0,0,1.64,Andesite_rect,1,0,1,0,1,
5de5496937e1d50ca63e0fa5,SCR,2024-06-11_13h09.51.830,LearnStrategy,2023.2.3,Win32,59.88023952,6,2,3,,,,,,,,3,08,,,,,,,,,,,,,3,1.444,1,,,,,,0.156481481,-0.247222222,1,0,0,1.4439,Diorite_rect,2,0,2,0,1,
5de5496937e1d50ca63e0fa5,SCR,2024-06-11_13h09.51.830,LearnStrategy,2023.2.3,Win32,59.88023952,6,2,4,,,,,,,,7,12,,,,,,,,,,,,,7,5.742,1,,,,,,0.148148148,-0.401851852,1,0,0,5.7419,Peridotite_rect,3,0,3,0,1,
5de5496937e1d50ca63e0fa5,SCR,2024-06-11_13h09.51.830,LearnStrategy,2023.2.3,Win32,59.88023952,6,2,5,,,,,,,,1,04,,,,,,,,,,,,,1,2.63,1,,,,,,-0.330555556,-0.246296296,1,0,0,2.6296,Andesite_rect,4,0,4,0,1,
5de5496937e1d50ca63e0fa5,SCR,2024-06-11_13h09.51.830,LearnStrategy,2023.2.3,Win32,59.88023952,6,2,6,,,,,,,,5,04,,,,,,,,,,,,,5,1.038,1,,,,,,-0.322222222,-0.381481481,1,0,0,1.0377,Obsidian_rect,5,0,5,0,1,
5de5496937e1d50ca63e0fa5,SCR,2024-06-11_13h09.51.830,LearnStrategy,2023.2.3,Win32,59.88023952,6,2,7,,,,,,,,2,06,,,,,,,,,,,,,2,1.5,1,,,,,,-0.07962963,-0.243518519,1,0,0,1.4998,Basalt_rect,6,0,6,0,1,
5de5496937e1d50ca63e0fa5,SCR,2024-06-11_13h09.51.830,LearnStrategy,2023.2.3,Win32,59.88023952,6,2,8,,,,,,,,8,16,,,,,,,,,,,,,8,2.089,1,,,,,,0.418518519,-0.387962963,1,0,0,2.0887,Pumice_rect,7,0,7,0,1,
5de5496937e1d50ca63e0fa5,SCR,2024-06-11_13h09.51.830,LearnStrategy,2023.2.3,Win32,59.88023952,6,2,9,,,,,,,,7,06,,,,,,,,,,,,,7,2.657,1,,,,,,0.142592593,-0.399074074,1,0,0,2.6573,Peridotite_rect,8,0,8,0,1,
5de5496937e1d50ca63e0fa5,SCR,2024-06-11_13h09.51.830,LearnStrategy,2023.2.3,Win32,59.88023952,6,2,10,,,,,,,,1,11,,,,,,,,,,,,,1,69.028,1,,,,,,-0.362037037,-0.248148148,1,0,0,69.0276,Andesite_rect,9,0,9,0,1,
5de5496937e1d50ca63e0fa5,SCR,2024-06-11_13h09.51.830,LearnStrategy,2023.2.3,Win32,59.88023952,6,2,11,,,,,,,,6,09,,,,,,,,,,,,,6,3.724,1,,,,,,-0.121296296,-0.396296296,1,0,0,3.7242,Pegmatite_rect,10,0,10,0,1,
5de5496937e1d50ca63e0fa5,SCR,2024-06-11_13h09.51.830,LearnStrategy,2023.2.3,Win32,59.88023952,6,2,12,,,,,,,,2,05,,,,,,,,,,,,,2,1.255,1,,,,,,-0.103703704,-0.238888889,1,0,0,1.2554,Basalt_rect,11,0,11,0,1,
5de5496937e1d50ca63e0fa5,SCR,2024-06-11_13h09.51.830,LearnStrategy,2023.2.3,Win32,59.88023952,6,2,13,,,,,,,,4,11,,,,,,,,,,,,,4,2.785,1,,,,,,0.417592593,-0.234259259,1,0,0,2.7855,Gabbro_rect,12,0,12,0,1,
5de5496937e1d50ca63e0fa5,SCR,2024-06-11_13h09.51.830,LearnStrategy,2023.2.3,Win32,59.88023952,6,2,14,,,,,,,,6,07,,,,,,,,,,,,,6,3.071,1,,,,,,-0.106481481,-0.409259259,1,0,0,3.0708,Pegmatite_rect,13,0,13,0,1,
5de5496937e1d50ca63e0fa5,SCR,2024-06-11_13h09.51.830,LearnStrategy,2023.2.3,Win32,59.88023952,6,2,15,,,,,,,,8,13,,,,,,,,,,,,,8,1.632,1,,,,,,0.440740741,-0.391666667,1,0,0,1.6324,Pumice_rect,14,0,14,0,1,
5de5496937e1d50ca63e0fa5,SCR,2024-06-11_13h09.51.830,LearnStrategy,2023.2.3,Win32,59.88023952,6,2,16,,,,,,,,3,10,,,,,,,,,,,,,3,1.323,1,,,,,,0.146296296,-0.247222222,1,0,0,1.3233,Diorite_rect,15,0,15,0,1,
5de5496937e1d50ca63e0fa5,SCR,2024-06-11_13h09.51.830,LearnStrategy,2023.2.3,Win32,59.88023952,7,1,1,-0.234259259,-0.260185185,1,0,0,1.2781,Gabbro_16,4,16,2,3,1.278,4,16,0.402777778,-0.243518519,1,0,0,5.3537,Gabbro_rect,4,5.354,1,0,0,0,0,1,,,,,,,,,,,,,
5de5496937e1d50ca63e0fa5,SCR,2024-06-11_13h09.51.830,LearnStrategy,2023.2.3,Win32,59.88023952,7,1,2,0.082407407,0.062962963,1,0,0,1.59,Basalt_12,2,12,4,5,1.59,2,12,-0.375925926,-0.237962963,1,0,0,1.8038,Andesite_rect,1,1.804,0,1,0,1,0,1,,,,,,,,,,,,,
5de5496937e1d50ca63e0fa5,SCR,2024-06-11_13h09.51.830,LearnStrategy,2023.2.3,Win32,59.88023952,7,1,3,0.548148148,-0.399074074,1,0,0,1.4405,Gabbro_05,4,05,1,8,1.441,4,05,0.411111111,-0.253703704,1,0,0,14.0775,Gabbro_rect,4,14.077,1,2,0,2,0,1,,,,,,,,,,,,,
5de5496937e1d50ca63e0fa5,SCR,2024-06-11_13h09.51.830,LearnStrategy,2023.2.3,Win32,59.88023952,7,1,4,0.10462963,0.225,1,0,0,1.0345,Andesite_14,1,14,5,5,1.035,1,14,-0.34537037,-0.228703704,1,0,0,3.2514,Andesite_rect,1,3.251,1,3,0,3,0,1,,,,,,,,,,,,,
5de5496937e1d50ca63e0fa5,SCR,2024-06-11_13h09.51.830,LearnStrategy,2023.2.3,Win32,59.88023952,7,1,5,-0.203703704,0.399074074,1,0,0,1.0736,Pegmatite_05,6,05,6,3,1.074,6,05,-0.091666667,-0.392592593,1,0,0,2.7117,Pegmatite_rect,6,2.712,1,4,0,4,0,1,,,,,,,,,,,,,
5de5496937e1d50ca63e0fa5,SCR,2024-06-11_13h09.51.830,LearnStrategy,2023.2.3,Win32,59.88023952,7,1,6,0.55,-0.088888889,1,0,0,0.9565,Pumice_06,8,06,3,8,0.956,8,06,0.443518519,-0.385185185,1,0,0,0.9886,Pumice_rect,8,0.989,1,5,0,5,0,1,,,,,,,,,,,,,
5de5496937e1d50ca63e0fa5,SCR,2024-06-11_13h09.51.830,LearnStrategy,2023.2.3,Win32,59.88023952,7,1,7,-0.207407407,-0.40462963,1,0,0,1.4751,Obsidian_11,5,11,1,3,1.475,5,11,-0.356481481,-0.397222222,1,0,0,0.5033,Obsidian_rect,5,0.503,1,6,0,6,0,1,,,,,,,,,,,,,
5de5496937e1d50ca63e0fa5,SCR,2024-06-11_13h09.51.830,LearnStrategy,2023.2.3,Win32,59.88023952,7,1,8,-0.05462963,-0.261111111,1,0,0,0.8259,Gabbro_14,4,14,2,4,0.826,4,14,0.428703704,-0.230555556,1,0,0,1.1976,Gabbro_rect,4,1.198,1,7,0,7,0,1,,,,,,,,,,,,,
5de5496937e1d50ca63e0fa5,SCR,2024-06-11_13h09.51.830,LearnStrategy,2023.2.3,Win32,59.88023952,7,1,9,0.400925926,-0.408333333,1,0,0,1.4911,Basalt_01,2,01,1,7,1.491,2,01,-0.066666667,-0.249074074,1,0,0,1.7706,Basalt_rect,2,1.771,1,8,0,8,0,1,,,,,,,,,,,,,
5de5496937e1d50ca63e0fa5,SCR,2024-06-11_13h09.51.830,LearnStrategy,2023.2.3,Win32,59.88023952,7,1,10,-0.048148148,-0.397222222,1,0,0,0.9615,Andesite_06,1,06,1,4,0.961,1,06,-0.333333333,-0.252777778,1,0,0,5.8698,Andesite_rect,1,5.87,1,9,0,9,0,1,,,,,,,,,,,,,
5de5496937e1d50ca63e0fa5,SCR,2024-06-11_13h09.51.830,LearnStrategy,2023.2.3,Win32,59.88023952,7,1,11,-0.362037037,0.237962963,1,0,0,1.1897,Basalt_16,2,16,5,2,1.19,2,16,-0.098148148,-0.243518519,1,0,0,1.6392,Basalt_rect,2,1.639,1,10,0,10,0,1,,,,,,,,,,,,,
5de5496937e1d50ca63e0fa5,SCR,2024-06-11_13h09.51.830,LearnStrategy,2023.2.3,Win32,59.88023952,7,1,12,-0.522222222,-0.387962963,1,0,0,1.1916,Gabbro_09,4,09,1,1,1.192,4,09,-0.337037037,-0.242592593,1,0,0,12.3992,Andesite_rect,1,12.399,0,11,0,11,0,1,,,,,,,,,,,,,
5de5496937e1d50ca63e0fa5,SCR,2024-06-11_13h09.51.830,LearnStrategy,2023.2.3,Win32,59.88023952,7,1,13,0.571296296,0.418518519,1,0,0,1.0573,Gabbro_01,4,01,6,8,1.057,4,01,0.42962963,-0.237962963,1,0,0,1.2619,Gabbro_rect,4,1.262,1,12,0,12,0,1,,,,,,,,,,,,,
5de5496937e1d50ca63e0fa5,SCR,2024-06-11_13h09.51.830,LearnStrategy,2023.2.3,Win32,59.88023952,7,1,14,0.412037037,0.096296296,1,0,0,0.8746,Diorite_09,3,09,4,7,0.875,3,09,0.160185185,-0.236111111,1,0,0,0.7869,Diorite_rect,3,0.787,1,13,0,13,0,1,,,,,,,,,,,,,
5de5496937e1d50ca63e0fa5,SCR,2024-06-11_13h09.51.830,LearnStrategy,2023.2.3,Win32,59.88023952,7,1,15,-0.064814815,-0.412037037,1,0,0,0.958,Andesite_06,1,06,1,4,0.958,1,06,-0.358333333,-0.251851852,1,0,0,2.8753,Andesite_rect,1,2.875,1,14,0,14,0,1,,,,,,,,,,,,,
5de5496937e1d50ca63e0fa5,SCR,2024-06-11_13h09.51.830,LearnStrategy,2023.2.3,Win32,59.88023952,7,1,16,-0.533333333,0.383333333,1,0,0,1.0899,Peridotite_04,7,04,6,1,1.09,7,04,0.152777778,-0.403703704,1,0,0,4.87,Peridotite_rect,7,4.87,1,15,0,15,0,1,,,,,,,,,,,,,
5de5496937e1d50ca63e0fa5,SCR,2024-06-11_13h09.51.830,LearnStrategy,2023.2.3,Win32,59.88023952,7,2,1,,,,,,,,6,07,,,,,,,,,,,,,6,2.593,1,,,,,,-0.121296296,-0.39537037,1,0,0,2.5935,Pegmatite_rect,0,0,0,0,1,
5de5496937e1d50ca63e0fa5,SCR,2024-06-11_13h09.51.830,LearnStrategy,2023.2.3,Win32,59.88023952,7,2,2,,,,,,,,1,05,,,,,,,,,,,,,1,5.508,1,,,,,,-0.324074074,-0.251851852,1,0,0,5.5077,Andesite_rect,1,0,1,0,1,
5de5496937e1d50ca63e0fa5,SCR,2024-06-11_13h09.51.830,LearnStrategy,2023.2.3,Win32,59.88023952,7,2,3,,,,,,,,7,15,,,,,,,,,,,,,7,3.215,1,,,,,,0.160185185,-0.387037037,1,0,0,3.2145,Peridotite_rect,2,0,2,0,1,
5de5496937e1d50ca63e0fa5,SCR,2024-06-11_13h09.51.830,LearnStrategy,2023.2.3,Win32,59.88023952,7,2,4,,,,,,,,3,12,,,,,,,,,,,,,3,1.286,1,,,,,,0.146296296,-0.250925926,1,0,0,1.286,Diorite_rect,3,0,3,0,1,
5de5496937e1d50ca63e0fa5,SCR,2024-06-11_13h09.51.830,LearnStrategy,2023.2.3,Win32,59.88023952,7,2,5,,,,,,,,3,10,,,,,,,,,,,,,3,1.116,1,,,,,,0.150925926,-0.240740741,1,0,0,1.1162,Diorite_rect,4,0,4,0,1,
5de5496937e1d50ca63e0fa5,SCR,2024-06-11_13h09.51.830,LearnStrategy,2023.2.3,Win32,59.88023952,7,2,6,,,,,,,,6,09,,,,,,,,,,,,,6,3.446,1,,,,,,-0.12037037,-0.382407407,1,0,0,3.4457,Pegmatite_rect,5,0,5,0,1,
5de5496937e1d50ca63e0fa5,SCR,2024-06-11_13h09.51.830,LearnStrategy,2023.2.3,Win32,59.88023952,7,2,7,,,,,,,,7,06,,,,,,,,,,,,,7,3.031,1,,,,,,0.159259259,-0.396296296,1,0,0,3.0306,Peridotite_rect,6,0,6,0,1,
5de5496937e1d50ca63e0fa5,SCR,2024-06-11_13h09.51.830,LearnStrategy,2023.2.3,Win32,59.88023952,7,2,8,,,,,,,,2,05,,,,,,,,,,,,,2,1.467,1,,,,,,-0.106481481,-0.241666667,1,0,0,1.4672,Basalt_rect,7,0,7,0,1,
5de5496937e1d50ca63e0fa5,SCR,2024-06-11_13h09.51.830,LearnStrategy,2023.2.3,Win32,59.88023952,7,2,9,,,,,,,,5,02,,,,,,,,,,,,,5,1.045,1,,,,,,-0.317592593,-0.391666667,1,0,0,1.045,Obsidian_rect,8,0,8,0,1,
5de5496937e1d50ca63e0fa5,SCR,2024-06-11_13h09.51.830,LearnStrategy,2023.2.3,Win32,59.88023952,7,2,10,,,,,,,,2,06,,,,,,,,,,,,,2,2.773,1,,,,,,-0.121296296,-0.22962963,1,0,0,2.7735,Basalt_rect,9,0,9,0,1,
5de5496937e1d50ca63e0fa5,SCR,2024-06-11_13h09.51.830,LearnStrategy,2023.2.3,Win32,59.88023952,7,2,11,,,,,,,,4,15,,,,,,,,,,,,,3,9.405,0,,,,,,0.183333333,-0.251851852,1,0,0,9.4046,Diorite_rect,10,0,10,0,1,
5de5496937e1d50ca63e0fa5,SCR,2024-06-11_13h09.51.830,LearnStrategy,2023.2.3,Win32,59.88023952,7,2,12,,,,,,,,8,03,,,,,,,,,,,,,8,1.815,1,,,,,,0.410185185,-0.387962963,1,0,0,1.8148,Pumice_rect,11,0,11,0,1,
5de5496937e1d50ca63e0fa5,SCR,2024-06-11_13h09.51.830,LearnStrategy,2023.2.3,Win32,59.88023952,7,2,13,,,,,,,,5,04,,,,,,,,,,,,,5,1.106,1,,,,,,-0.358333333,-0.389814815,1,0,0,1.1064,Obsidian_rect,12,0,12,0,1,
5de5496937e1d50ca63e0fa5,SCR,2024-06-11_13h09.51.830,LearnStrategy,2023.2.3,Win32,59.88023952,7,2,14,,,,,,,,1,04,,,,,,,,,,,,,1,6.331,1,,,,,,-0.327777778,-0.244444444,1,0,0,6.3315,Andesite_rect,13,0,13,0,1,
5de5496937e1d50ca63e0fa5,SCR,2024-06-11_13h09.51.830,LearnStrategy,2023.2.3,Win32,59.88023952,7,2,15,,,,,,,,4,08,,,,,,,,,,,,,4,1.972,1,,,,,,0.42037037,-0.241666667,1,0,0,1.9715,Gabbro_rect,14,0,14,0,1,
5de5496937e1d50ca63e0fa5,SCR,2024-06-11_13h09.51.830,LearnStrategy,2023.2.3,Win32,59.88023952,7,2,16,,,,,,,,8,13,,,,,,,,,,,,,8,1.52,1,,,,,,0.437962963,-0.389814815,1,0,0,1.5197,Pumice_rect,15,0,15,0,1,
5de5496937e1d50ca63e0fa5,SCR,2024-06-11_13h09.51.830,LearnStrategy,2023.2.3,Win32,59.88023952,8,1,1,-0.059259259,-0.262962963,1,0,0,1.2219,Gabbro_14,4,14,2,4,1.222,4,14,0.412037037,-0.231481481,1,0,0,1.4172,Gabbro_rect,4,1.417,1,0,0,0,0,1,,,,,,,,,,,,,
5de5496937e1d50ca63e0fa5,SCR,2024-06-11_13h09.51.830,LearnStrategy,2023.2.3,Win32,59.88023952,8,1,2,-0.238888889,0.240740741,1,0,0,1.3248,Basalt_08,2,08,5,3,1.325,2,08,-0.112037037,-0.244444444,1,0,0,1.3601,Basalt_rect,2,1.36,1,1,0,1,0,1,,,,,,,,,,,,,
5de5496937e1d50ca63e0fa5,SCR,2024-06-11_13h09.51.830,LearnStrategy,2023.2.3,Win32,59.88023952,8,1,3,0.097222222,0.244444444,1,0,0,2.2591,Andesite_14,1,14,5,5,2.259,1,14,-0.368518519,-0.244444444,1,0,0,3.0279,Andesite_rect,1,3.028,1,2,0,2,0,1,,,,,,,,,,,,,
5de5496937e1d50ca63e0fa5,SCR,2024-06-11_13h09.51.830,LearnStrategy,2023.2.3,Win32,59.88023952,8,1,4,-0.037037037,-0.390740741,1,0,0,1.0237,Andesite_06,1,06,1,4,1.024,1,06,-0.362037037,-0.252777778,1,0,0,3.0109,Andesite_rect,1,3.011,1,3,0,3,0,1,,,,,,,,,,,,,
5de5496937e1d50ca63e0fa5,SCR,2024-06-11_13h09.51.830,LearnStrategy,2023.2.3,Win32,59.88023952,8,1,5,-0.509259259,0.131481481,1,0,0,1.1082,Basalt_02,2,02,4,1,1.108,2,02,-0.115740741,-0.248148148,1,0,0,3.4779,Basalt_rect,2,3.478,1,4,0,4,0,1,,,,,,,,,,,,,
5de5496937e1d50ca63e0fa5,SCR,2024-06-11_13h09.51.830,LearnStrategy,2023.2.3,Win32,59.88023952,8,1,6,-0.206481481,-0.243518519,1,0,0,0.8756,Gabbro_16,4,16,2,3,0.876,4,16,0.403703704,-0.246296296,1,0,0,4.2611,Gabbro_rect,4,4.261,1,5,0,5,0,1,,,,,,,,,,,,,
5de5496937e1d50ca63e0fa5,SCR,2024-06-11_13h09.51.830,LearnStrategy,2023.2.3,Win32,59.88023952,8,1,7,0.412962963,-0.415740741,1,0,0,1.5564,Basalt_01,2,01,1,7,1.556,2,01,-0.098148148,-0.236111111,1,0,0,1.3017,Basalt_rect,2,1.302,1,6,0,6,0,1,,,,,,,,,,,,,
5de5496937e1d50ca63e0fa5,SCR,2024-06-11_13h09.51.830,LearnStrategy,2023.2.3,Win32,59.88023952,8,1,8,0.264814815,0.25,1,0,0,0.9412,Gabbro_03,4,03,5,6,0.941,4,03,0.171296296,-0.236111111,1,0,0,1.0962,Diorite_rect,3,1.096,0,7,0,7,0,1,,,,,,,,,,,,,
5de5496937e1d50ca63e0fa5,SCR,2024-06-11_13h09.51.830,LearnStrategy,2023.2.3,Win32,59.88023952,8,1,9,0.248148148,0.257407407,1,0,0,0.9526,Gabbro_03,4,03,5,6,0.953,4,03,0.418518519,-0.238888889,1,0,0,3.7825,Gabbro_rect,4,3.782,1,8,0,8,0,1,,,,,,,,,,,,,
5de5496937e1d50ca63e0fa5,SCR,2024-06-11_13h09.51.830,LearnStrategy,2023.2.3,Win32,59.88023952,8,1,10,-0.037037037,0.391666667,1,0,0,1.0573,Obsidian_06,5,06,6,4,1.057,5,06,-0.339814815,-0.37962963,1,0,0,1.8443,Obsidian_rect,5,1.844,1,9,0,9,0,1,,,,,,,,,,,,,
5de5496937e1d50ca63e0fa5,SCR,2024-06-11_13h09.51.830,LearnStrategy,2023.2.3,Win32,59.88023952,8,1,11,0.568518519,0.42037037,1,0,0,1.0426,Gabbro_01,4,01,6,8,1.043,4,01,0.437962963,-0.237037037,1,0,0,1.2038,Gabbro_rect,4,1.204,1,10,0,10,0,1,,,,,,,,,,,,,
5de5496937e1d50ca63e0fa5,SCR,2024-06-11_13h09.51.830,LearnStrategy,2023.2.3,Win32,59.88023952,8,1,12,-0.37037037,-0.248148148,1,0,0,1.2579,Pumice_15,8,15,2,2,1.258,8,15,0.416666667,-0.397222222,1,0,0,1.0049,Pumice_rect,8,1.005,1,11,0,11,0,1,,,,,,,,,,,,,
5de5496937e1d50ca63e0fa5,SCR,2024-06-11_13h09.51.830,LearnStrategy,2023.2.3,Win32,59.88023952,8,1,13,-0.368518519,-0.10462963,1,0,0,0.9573,Peridotite_13,7,13,3,2,0.957,7,13,0.159259259,-0.413888889,1,0,0,1.6428,Peridotite_rect,7,1.643,1,12,0,12,0,1,,,,,,,,,,,,,
5de5496937e1d50ca63e0fa5,SCR,2024-06-11_13h09.51.830,LearnStrategy,2023.2.3,Win32,59.88023952,8,1,14,0.101851852,0.378703704,1,0,0,1.0758,Pegmatite_11,6,11,6,5,1.076,6,11,-0.125,-0.403703704,1,0,0,1.3592,Pegmatite_rect,6,1.359,1,13,0,13,0,1,,,,,,,,,,,,,
5de5496937e1d50ca63e0fa5,SCR,2024-06-11_13h09.51.830,LearnStrategy,2023.2.3,Win32,59.88023952,8,1,15,0.412962963,0.111111111,1,0,0,0.9407,Diorite_09,3,09,4,7,0.941,3,09,0.17962963,-0.250925926,1,0,0,0.6713,Diorite_rect,3,0.671,1,14,0,14,0,1,,,,,,,,,,,,,
5de5496937e1d50ca63e0fa5,SCR,2024-06-11_13h09.51.830,LearnStrategy,2023.2.3,Win32,59.88023952,8,1,16,0.411111111,-0.255555556,1,0,0,1.1423,Andesite_03,1,03,2,7,1.142,1,03,-0.335185185,-0.244444444,1,0,0,2.5113,Andesite_rect,1,2.511,1,15,0,15,0,1,,,,,,,,,,,,,
5de5496937e1d50ca63e0fa5,SCR,2024-06-11_13h09.51.830,LearnStrategy,2023.2.3,Win32,59.88023952,8,2,1,,,,,,,,3,15,,,,,,,,,,,,,3,3.523,1,,,,,,0.156481481,-0.248148148,1,0,0,3.5232,Diorite_rect,0,0,0,0,1,
5de5496937e1d50ca63e0fa5,SCR,2024-06-11_13h09.51.830,LearnStrategy,2023.2.3,Win32,59.88023952,8,2,2,,,,,,,,1,07,,,,,,,,,,,,,1,7.754,1,,,,,,-0.357407407,-0.240740741,1,0,0,7.7542,Andesite_rect,1,0,1,0,1,
5de5496937e1d50ca63e0fa5,SCR,2024-06-11_13h09.51.830,LearnStrategy,2023.2.3,Win32,59.88023952,8,2,3,,,,,,,,6,06,,,,,,,,,,,,,6,3.789,1,,,,,,-0.093518519,-0.387037037,1,0,0,3.7892,Pegmatite_rect,2,0,2,0,1,
5de5496937e1d50ca63e0fa5,SCR,2024-06-11_13h09.51.830,LearnStrategy,2023.2.3,Win32,59.88023952,8,2,4,,,,,,,,2,11,,,,,,,,,,,,,2,20.588,1,,,,,,-0.117592593,-0.248148148,1,0,0,20.588,Basalt_rect,3,0,3,0,1,
5de5496937e1d50ca63e0fa5,SCR,2024-06-11_13h09.51.830,LearnStrategy,2023.2.3,Win32,59.88023952,8,2,5,,,,,,,,8,16,,,,,,,,,,,,,8,2.234,1,,,,,,0.42037037,-0.401851852,1,0,0,2.2336,Pumice_rect,4,0,4,0,1,
5de5496937e1d50ca63e0fa5,SCR,2024-06-11_13h09.51.830,LearnStrategy,2023.2.3,Win32,59.88023952,8,2,6,,,,,,,,6,13,,,,,,,,,,,,,6,2.154,1,,,,,,-0.126851852,-0.403703704,1,0,0,2.1543,Pegmatite_rect,5,0,5,0,1,
5de5496937e1d50ca63e0fa5,SCR,2024-06-11_13h09.51.830,LearnStrategy,2023.2.3,Win32,59.88023952,8,2,7,,,,,,,,1,02,,,,,,,,,,,,,1,10.595,1,,,,,,-0.332407407,-0.237037037,1,0,0,10.5955,Andesite_rect,6,0,6,0,1,
5de5496937e1d50ca63e0fa5,SCR,2024-06-11_13h09.51.830,LearnStrategy,2023.2.3,Win32,59.88023952,8,2,8,,,,,,,,5,12,,,,,,,,,,,,,5,1.053,1,,,,,,-0.325925926,-0.401851852,1,0,0,1.053,Obsidian_rect,7,0,7,0,1,
5de5496937e1d50ca63e0fa5,SCR,2024-06-11_13h09.51.830,LearnStrategy,2023.2.3,Win32,59.88023952,8,2,9,,,,,,,,7,16,,,,,,,,,,,,,7,2.319,1,,,,,,0.155555556,-0.382407407,1,0,0,2.3189,Peridotite_rect,8,0,8,0,1,
5de5496937e1d50ca63e0fa5,SCR,2024-06-11_13h09.51.830,LearnStrategy,2023.2.3,Win32,59.88023952,8,2,10,,,,,,,,5,09,,,,,,,,,,,,,5,1.91,1,,,,,,-0.316666667,-0.406481481,1,0,0,1.9097,Obsidian_rect,9,0,9,0,1,
5de5496937e1d50ca63e0fa5,SCR,2024-06-11_13h09.51.830,LearnStrategy,2023.2.3,Win32,59.88023952,8,2,11,,,,,,,,4,13,,,,,,,,,,,,,4,10.973,1,,,,,,0.421296296,-0.256481481,1,0,0,10.9727,Gabbro_rect,10,0,10,0,1,
5de5496937e1d50ca63e0fa5,SCR,2024-06-11_13h09.51.830,LearnStrategy,2023.2.3,Win32,59.88023952,8,2,12,,,,,,,,2,10,,,,,,,,,,,,,2,3.227,1,,,,,,-0.09537037,-0.237962963,1,0,0,3.2271,Basalt_rect,11,0,11,0,1,
5de5496937e1d50ca63e0fa5,SCR,2024-06-11_13h09.51.830,LearnStrategy,2023.2.3,Win32,59.88023952,8,2,13,,,,,,,,7,14,,,,,,,,,,,,,7,3.054,1,,,,,,0.162037037,-0.381481481,1,0,0,3.0544,Peridotite_rect,12,0,12,0,1,
5de5496937e1d50ca63e0fa5,SCR,2024-06-11_13h09.51.830,LearnStrategy,2023.2.3,Win32,59.88023952,8,2,14,,,,,,,,8,05,,,,,,,,,,,,,8,1.399,1,,,,,,0.42037037,-0.388888889,1,0,0,1.3995,Pumice_rect,13,0,13,0,1,
5de5496937e1d50ca63e0fa5,SCR,2024-06-11_13h09.51.830,LearnStrategy,2023.2.3,Win32,59.88023952,8,2,15,,,,,,,,4,12,,,,,,,,,,,,,4,11.042,1,,,,,,0.415740741,-0.250925926,1,0,0,11.0422,Gabbro_rect,14,0,14,0,1,
5de5496937e1d50ca63e0fa5,SCR,2024-06-11_13h09.51.830,LearnStrategy,2023.2.3,Win32,59.88023952,8,2,16,,,,,,,,3,08,,,,,,,,,,,,,3,1.316,1,,,,,,0.15462963,-0.240740741,1,0,0,1.3159,Diorite_rect,15,0,15,0,1,
5de5496937e1d50ca63e0fa5,SCR,2024-06-11_13h09.51.830,LearnStrategy,2023.2.3,Win32,59.88023952,9,1,1,-0.373148148,-0.106481481,1,0,0,1.3929,Peridotite_13,7,13,3,2,1.393,7,13,0.17037037,-0.380555556,1,0,0,0.9921,Peridotite_rect,7,0.992,1,0,0,0,0,1,,,,,,,,,,,,,
5de5496937e1d50ca63e0fa5,SCR,2024-06-11_13h09.51.830,LearnStrategy,2023.2.3,Win32,59.88023952,9,1,2,-0.524074074,-0.399074074,1,0,0,1.1405,Gabbro_09,4,09,1,1,1.14,4,09,0.418518519,-0.237962963,1,0,0,2.818,Gabbro_rect,4,2.818,1,1,0,1,0,1,,,,,,,,,,,,,
5de5496937e1d50ca63e0fa5,SCR,2024-06-11_13h09.51.830,LearnStrategy,2023.2.3,Win32,59.88023952,9,1,3,0.240740741,0.240740741,1,0,0,0.9904,Gabbro_03,4,03,5,6,0.99,4,03,0.418518519,-0.240740741,1,0,0,4.4399,Gabbro_rect,4,4.44,1,2,0,2,0,1,,,,,,,,,,,,,
5de5496937e1d50ca63e0fa5,SCR,2024-06-11_13h09.51.830,LearnStrategy,2023.2.3,Win32,59.88023952,9,1,4,-0.514814815,0.090740741,1,0,0,1.2403,Basalt_02,2,02,4,1,1.24,2,02,-0.122222222,-0.237037037,1,0,0,1.4753,Basalt_rect,2,1.475,1,3,0,3,0,1,,,,,,,,,,,,,
5de5496937e1d50ca63e0fa5,SCR,2024-06-11_13h09.51.830,LearnStrategy,2023.2.3,Win32,59.88023952,9,1,5,0.567592593,0.089814815,1,0,0,0.9922,Andesite_10,1,10,4,8,0.992,1,10,-0.341666667,-0.237037037,1,0,0,1.7786,Andesite_rect,1,1.779,1,4,0,4,0,1,,,,,,,,,,,,,
5de5496937e1d50ca63e0fa5,SCR,2024-06-11_13h09.51.830,LearnStrategy,2023.2.3,Win32,59.88023952,9,1,6,0.249074074,-0.415740741,1,0,0,1.0762,Andesite_01,1,01,1,6,1.076,1,01,-0.357407407,-0.236111111,1,0,0,1.5237,Andesite_rect,1,1.524,1,5,0,5,0,1,,,,,,,,,,,,,
5de5496937e1d50ca63e0fa5,SCR,2024-06-11_13h09.51.830,LearnStrategy,2023.2.3,Win32,59.88023952,9,1,7,-0.365740741,0.087037037,1,0,0,0.9252,Diorite_02,3,02,4,2,0.925,3,02,0.175,-0.237962963,1,0,0,4.4141,Diorite_rect,3,4.414,1,6,0,6,0,1,,,,,,,,,,,,,
5de5496937e1d50ca63e0fa5,SCR,2024-06-11_13h09.51.830,LearnStrategy,2023.2.3,Win32,59.88023952,9,1,8,0.264814815,-0.398148148,1,0,0,0.9978,Andesite_01,1,01,1,6,0.998,1,01,-0.373148148,-0.246296296,1,0,0,5.7699,Andesite_rect,1,5.77,1,7,0,7,0,1,,,,,,,,,,,,,
5de5496937e1d50ca63e0fa5,SCR,2024-06-11_13h09.51.830,LearnStrategy,2023.2.3,Win32,59.88023952,9,1,9,-0.213888889,-0.107407407,1,0,0,1.0231,Pegmatite_10,6,10,3,3,1.023,6,10,-0.133333333,-0.389814815,1,0,0,1.4035,Pegmatite_rect,6,1.403,1,8,0,8,0,1,,,,,,,,,,,,,
5de5496937e1d50ca63e0fa5,SCR,2024-06-11_13h09.51.830,LearnStrategy,2023.2.3,Win32,59.88023952,9,1,10,-0.363888889,-0.396296296,1,0,0,1.0077,Diorite_07,3,07,1,2,1.008,3,07,0.137962963,-0.243518519,1,0,0,0.682,Diorite_rect,3,0.682,1,9,0,9,0,1,,,,,,,,,,,,,
5de5496937e1d50ca63e0fa5,SCR,2024-06-11_13h09.51.830,LearnStrategy,2023.2.3,Win32,59.88023952,9,1,11,-0.065740741,-0.256481481,1,0,0,0.8923,Gabbro_14,4,14,2,4,0.892,4,14,0.418518519,-0.244444444,1,0,0,2.061,Gabbro_rect,4,2.061,1,10,0,10,0,1,,,,,,,,,,,,,
5de5496937e1d50ca63e0fa5,SCR,2024-06-11_13h09.51.830,LearnStrategy,2023.2.3,Win32,59.88023952,9,1,12,-0.369444444,0.239814815,1,0,0,1.2206,Basalt_16,2,16,5,2,1.221,2,16,-0.084259259,-0.248148148,1,0,0,1.087,Basalt_rect,2,1.087,1,11,0,11,0,1,,,,,,,,,,,,,
5de5496937e1d50ca63e0fa5,SCR,2024-06-11_13h09.51.830,LearnStrategy,2023.2.3,Win32,59.88023952,9,1,13,-0.069444444,0.392592593,1,0,0,1.2572,Obsidian_06,5,06,6,4,1.257,5,06,-0.322222222,-0.389814815,1,0,0,0.7297,Obsidian_rect,5,0.73,1,12,0,12,0,1,,,,,,,,,,,,,
5de5496937e1d50ca63e0fa5,SCR,2024-06-11_13h09.51.830,LearnStrategy,2023.2.3,Win32,59.88023952,9,1,14,-0.215740741,-0.256481481,1,0,0,0.8748,Gabbro_16,4,16,2,3,0.875,4,16,0.418518519,-0.242592593,1,0,0,4.5776,Gabbro_rect,4,4.578,1,13,0,13,0,1,,,,,,,,,,,,,
5de5496937e1d50ca63e0fa5,SCR,2024-06-11_13h09.51.830,LearnStrategy,2023.2.3,Win32,59.88023952,9,1,15,-0.502777778,0.225,1,0,0,1.1426,Pumice_02,8,02,5,1,1.143,8,02,0.416666667,-0.378703704,1,0,0,1.3325,Pumice_rect,8,1.332,1,14,0,14,0,1,,,,,,,,,,,,,
5de5496937e1d50ca63e0fa5,SCR,2024-06-11_13h09.51.830,LearnStrategy,2023.2.3,Win32,59.88023952,9,1,16,0.4,-0.406481481,1,0,0,1.1258,Basalt_01,2,01,1,7,1.126,2,01,-0.114814815,-0.228703704,1,0,0,1.831,Basalt_rect,2,1.831,1,15,0,15,0,1,,,,,,,,,,,,,
5de5496937e1d50ca63e0fa5,SCR,2024-06-11_13h09.51.830,LearnStrategy,2023.2.3,Win32,59.88023952,9,2,1,,,,,,,,3,11,,,,,,,,,,,,,3,3.777,1,,,,,,0.160185185,-0.240740741,1,0,0,3.7768,Diorite_rect,0,0,0,0,1,
5de5496937e1d50ca63e0fa5,SCR,2024-06-11_13h09.51.830,LearnStrategy,2023.2.3,Win32,59.88023952,9,2,2,,,,,,,,5,05,,,,,,,,,,,,,5,1.379,1,,,,,,-0.34537037,-0.394444444,1,0,0,1.3794,Obsidian_rect,1,0,1,0,1,
5de5496937e1d50ca63e0fa5,SCR,2024-06-11_13h09.51.830,LearnStrategy,2023.2.3,Win32,59.88023952,9,2,3,,,,,,,,8,14,,,,,,,,,,,,,8,1.467,1,,,,,,0.422222222,-0.385185185,1,0,0,1.4671,Pumice_rect,2,0,2,0,1,
5de5496937e1d50ca63e0fa5,SCR,2024-06-11_13h09.51.830,LearnStrategy,2023.2.3,Win32,59.88023952,9,2,4,,,,,,,,7,12,,,,,,,,,,,,,7,2.387,1,,,,,,0.149074074,-0.397222222,1,0,0,2.3868,Peridotite_rect,3,0,3,0,1,
5de5496937e1d50ca63e0fa5,SCR,2024-06-11_13h09.51.830,LearnStrategy,2023.2.3,Win32,59.88023952,9,2,5,,,,,,,,4,11,,,,,,,,,,,,,4,6.777,1,,,,,,0.422222222,-0.241666667,1,0,0,6.7774,Gabbro_rect,4,0,4,0,1,
5de5496937e1d50ca63e0fa5,SCR,2024-06-11_13h09.51.830,LearnStrategy,2023.2.3,Win32,59.88023952,9,2,6,,,,,,,,7,07,,,,,,,,,,,,,7,1.421,1,,,,,,0.167592593,-0.387037037,1,0,0,1.4209,Peridotite_rect,5,0,5,0,1,
5de5496937e1d50ca63e0fa5,SCR,2024-06-11_13h09.51.830,LearnStrategy,2023.2.3,Win32,59.88023952,9,2,7,,,,,,,,2,14,,,,,,,,,,,,,2,7.101,1,,,,,,-0.07962963,-0.234259259,1,0,0,7.1014,Basalt_rect,6,0,6,0,1,
5de5496937e1d50ca63e0fa5,SCR,2024-06-11_13h09.51.830,LearnStrategy,2023.2.3,Win32,59.88023952,9,2,8,,,,,,,,1,16,,,,,,,,,,,,,1,2.057,1,,,,,,-0.338888889,-0.235185185,1,0,0,2.0567,Andesite_rect,7,0,7,0,1,
5de5496937e1d50ca63e0fa5,SCR,2024-06-11_13h09.51.830,LearnStrategy,2023.2.3,Win32,59.88023952,9,2,9,,,,,,,,1,11,,,,,,,,,,,,,1,1.066,1,,,,,,-0.328703704,-0.241666667,1,0,0,1.0661,Andesite_rect,8,0,8,0,1,
5de5496937e1d50ca63e0fa5,SCR,2024-06-11_13h09.51.830,LearnStrategy,2023.2.3,Win32,59.88023952,9,2,10,,,,,,,,2,04,,,,,,,,,,,,,2,1.351,1,,,,,,-0.116666667,-0.243518519,1,0,0,1.3509,Basalt_rect,9,0,9,0,1,
5de5496937e1d50ca63e0fa5,SCR,2024-06-11_13h09.51.830,LearnStrategy,2023.2.3,Win32,59.88023952,9,2,11,,,,,,,,6,15,,,,,,,,,,,,,6,1.74,1,,,,,,-0.147222222,-0.387962963,1,0,0,1.7395,Pegmatite_rect,10,0,10,0,1,
5de5496937e1d50ca63e0fa5,SCR,2024-06-11_13h09.51.830,LearnStrategy,2023.2.3,Win32,59.88023952,9,2,12,,,,,,,,3,14,,,,,,,,,,,,,3,1.235,1,,,,,,0.142592593,-0.24537037,1,0,0,1.2354,Diorite_rect,11,0,11,0,1,
5de5496937e1d50ca63e0fa5,SCR,2024-06-11_13h09.51.830,LearnStrategy,2023.2.3,Win32,59.88023952,9,2,13,,,,,,,,6,12,,,,,,,,,,,,,1,25.17,0,,,,,,-0.341666667,-0.234259259,1,0,0,25.1705,Andesite_rect,12,0,12,0,1,
5de5496937e1d50ca63e0fa5,SCR,2024-06-11_13h09.51.830,LearnStrategy,2023.2.3,Win32,59.88023952,9,2,14,,,,,,,,5,14,,,,,,,,,,,,,5,1.056,1,,,,,,-0.356481481,-0.387037037,1,0,0,1.056,Obsidian_rect,13,0,13,0,1,
5de5496937e1d50ca63e0fa5,SCR,2024-06-11_13h09.51.830,LearnStrategy,2023.2.3,Win32,59.88023952,9,2,15,,,,,,,,4,10,,,,,,,,,,,,,4,1.78,1,,,,,,0.388888889,-0.231481481,1,0,0,1.7798,Gabbro_rect,14,0,14,0,1,
5de5496937e1d50ca63e0fa5,SCR,2024-06-11_13h09.51.830,LearnStrategy,2023.2.3,Win32,59.88023952,9,2,16,,,,,,,,8,04,,,,,,,,,,,,,8,1.051,1,,,,,,0.446296296,-0.381481481,1,0,0,1.0508,Pumice_rect,15,0,15,0,1,
5de5496937e1d50ca63e0fa5,SCR,2024-06-11_13h09.51.830,LearnStrategy,2023.2.3,Win32,59.88023952,,,,,,,,,,,,,,,,,,,,,,,,,,,,,,,,,,,,,,,,,,,,,1
5de5496937e1d50ca63e0fa5,SCR,2024-06-11_13h09.51.830,LearnStrategy,2023.2.3,Win32,59.88023952,,,,,,,,,,,,,,,,,,,,,,,,,,,,,,,,,,,,,,,,,,,,,
5de5496937e1d50ca63e0fa5,SCR,2024-06-11_13h09.51.830,LearnStrategy,2023.2.3,Win32,59.88023952,,,,,,,,,,,4,09,1,1,,,,,,,,,,,,,,,,,,,,,,,,,,,,,,,
5de5496937e1d50ca63e0fa5,SCR,2024-06-11_13h09.51.830,LearnStrategy,2023.2.3,Win32,59.88023952,,,,,,,,,,,3,07,1,2,,,,,,,,,,,,,,,,,,,,,,,,,,,,,,,
5de5496937e1d50ca63e0fa5,SCR,2024-06-11_13h09.51.830,LearnStrategy,2023.2.3,Win32,59.88023952,,,,,,,,,,,5,11,1,3,,,,,,,,,,,,,,,,,,,,,,,,,,,,,,,
5de5496937e1d50ca63e0fa5,SCR,2024-06-11_13h09.51.830,LearnStrategy,2023.2.3,Win32,59.88023952,,,,,,,,,,,1,06,1,4,,,,,,,,,,,,,,,,,,,,,,,,,,,,,,,
5de5496937e1d50ca63e0fa5,SCR,2024-06-11_13h09.51.830,LearnStrategy,2023.2.3,Win32,59.88023952,,,,,,,,,,,3,16,1,5,,,,,,,,,,,,,,,,,,,,,,,,,,,,,,,
5de5496937e1d50ca63e0fa5,SCR,2024-06-11_13h09.51.830,LearnStrategy,2023.2.3,Win32,59.88023952,,,,,,,,,,,1,01,1,6,,,,,,,,,,,,,,,,,,,,,,,,,,,,,,,
5de5496937e1d50ca63e0fa5,SCR,2024-06-11_13h09.51.830,LearnStrategy,2023.2.3,Win32,59.88023952,,,,,,,,,,,2,01,1,7,,,,,,,,,,,,,,,,,,,,,,,,,,,,,,,
5de5496937e1d50ca63e0fa5,SCR,2024-06-11_13h09.51.830,LearnStrategy,2023.2.3,Win32,59.88023952,,,,,,,,,,,4,05,1,8,,,,,,,,,,,,,,,,,,,,,,,,,,,,,,,
5de5496937e1d50ca63e0fa5,SCR,2024-06-11_13h09.51.830,LearnStrategy,2023.2.3,Win32,59.88023952,,,,,,,,,,,5,08,2,1,,,,,,,,,,,,,,,,,,,,,,,,,,,,,,,
5de5496937e1d50ca63e0fa5,SCR,2024-06-11_13h09.51.830,LearnStrategy,2023.2.3,Win32,59.88023952,,,,,,,,,,,8,15,2,2,,,,,,,,,,,,,,,,,,,,,,,,,,,,,,,
5de5496937e1d50ca63e0fa5,SCR,2024-06-11_13h09.51.830,LearnStrategy,2023.2.3,Win32,59.88023952,,,,,,,,,,,4,16,2,3,,,,,,,,,,,,,,,,,,,,,,,,,,,,,,,
5de5496937e1d50ca63e0fa5,SCR,2024-06-11_13h09.51.830,LearnStrategy,2023.2.3,Win32,59.88023952,,,,,,,,,,,4,14,2,4,,,,,,,,,,,,,,,,,,,,,,,,,,,,,,,
5de5496937e1d50ca63e0fa5,SCR,2024-06-11_13h09.51.830,LearnStrategy,2023.2.3,Win32,59.88023952,,,,,,,,,,,7,02,2,5,,,,,,,,,,,,,,,,,,,,,,,,,,,,,,,
5de5496937e1d50ca63e0fa5,SCR,2024-06-11_13h09.51.830,LearnStrategy,2023.2.3,Win32,59.88023952,,,,,,,,,,,1,09,2,6,,,,,,,,,,,,,,,,,,,,,,,,,,,,,,,
5de5496937e1d50ca63e0fa5,SCR,2024-06-11_13h09.51.830,LearnStrategy,2023.2.3,Win32,59.88023952,,,,,,,,,,,1,03,2,7,,,,,,,,,,,,,,,,,,,,,,,,,,,,,,,
5de5496937e1d50ca63e0fa5,SCR,2024-06-11_13h09.51.830,LearnStrategy,2023.2.3,Win32,59.88023952,,,,,,,,,,,8,10,2,8,,,,,,,,,,,,,,,,,,,,,,,,,,,,,,,
5de5496937e1d50ca63e0fa5,SCR,2024-06-11_13h09.51.830,LearnStrategy,2023.2.3,Win32,59.88023952,,,,,,,,,,,3,13,3,1,,,,,,,,,,,,,,,,,,,,,,,,,,,,,,,
5de5496937e1d50ca63e0fa5,SCR,2024-06-11_13h09.51.830,LearnStrategy,2023.2.3,Win32,59.88023952,,,,,,,,,,,7,13,3,2,,,,,,,,,,,,,,,,,,,,,,,,,,,,,,,
5de5496937e1d50ca63e0fa5,SCR,2024-06-11_13h09.51.830,LearnStrategy,2023.2.3,Win32,59.88023952,,,,,,,,,,,6,10,3,3,,,,,,,,,,,,,,,,,,,,,,,,,,,,,,,
5de5496937e1d50ca63e0fa5,SCR,2024-06-11_13h09.51.830,LearnStrategy,2023.2.3,Win32,59.88023952,,,,,,,,,,,6,08,3,4,,,,,,,,,,,,,,,,,,,,,,,,,,,,,,,
5de5496937e1d50ca63e0fa5,SCR,2024-06-11_13h09.51.830,LearnStrategy,2023.2.3,Win32,59.88023952,,,,,,,,,,,7,05,3,5,,,,,,,,,,,,,,,,,,,,,,,,,,,,,,,
5de5496937e1d50ca63e0fa5,SCR,2024-06-11_13h09.51.830,LearnStrategy,2023.2.3,Win32,59.88023952,,,,,,,,,,,2,09,3,6,,,,,,,,,,,,,,,,,,,,,,,,,,,,,,,
5de5496937e1d50ca63e0fa5,SCR,2024-06-11_13h09.51.830,LearnStrategy,2023.2.3,Win32,59.88023952,,,,,,,,,,,8,09,3,7,,,,,,,,,,,,,,,,,,,,,,,,,,,,,,,
5de5496937e1d50ca63e0fa5,SCR,2024-06-11_13h09.51.830,LearnStrategy,2023.2.3,Win32,59.88023952,,,,,,,,,,,8,06,3,8,,,,,,,,,,,,,,,,,,,,,,,,,,,,,,,
5de5496937e1d50ca63e0fa5,SCR,2024-06-11_13h09.51.830,LearnStrategy,2023.2.3,Win32,59.88023952,,,,,,,,,,,2,02,4,1,,,,,,,,,,,,,,,,,,,,,,,,,,,,,,,
5de5496937e1d50ca63e0fa5,SCR,2024-06-11_13h09.51.830,LearnStrategy,2023.2.3,Win32,59.88023952,,,,,,,,,,,3,02,4,2,,,,,,,,,,,,,,,,,,,,,,,,,,,,,,,
5de5496937e1d50ca63e0fa5,SCR,2024-06-11_13h09.51.830,LearnStrategy,2023.2.3,Win32,59.88023952,,,,,,,,,,,7,10,4,3,,,,,,,,,,,,,,,,,,,,,,,,,,,,,,,
5de5496937e1d50ca63e0fa5,SCR,2024-06-11_13h09.51.830,LearnStrategy,2023.2.3,Win32,59.88023952,,,,,,,,,,,6,03,4,4,,,,,,,,,,,,,,,,,,,,,,,,,,,,,,,
5de5496937e1d50ca63e0fa5,SCR,2024-06-11_13h09.51.830,LearnStrategy,2023.2.3,Win32,59.88023952,,,,,,,,,,,2,12,4,5,,,,,,,,,,,,,,,,,,,,,,,,,,,,,,,
5de5496937e1d50ca63e0fa5,SCR,2024-06-11_13h09.51.830,LearnStrategy,2023.2.3,Win32,59.88023952,,,,,,,,,,,5,16,4,6,,,,,,,,,,,,,,,,,,,,,,,,,,,,,,,
5de5496937e1d50ca63e0fa5,SCR,2024-06-11_13h09.51.830,LearnStrategy,2023.2.3,Win32,59.88023952,,,,,,,,,,,3,09,4,7,,,,,,,,,,,,,,,,,,,,,,,,,,,,,,,
5de5496937e1d50ca63e0fa5,SCR,2024-06-11_13h09.51.830,LearnStrategy,2023.2.3,Win32,59.88023952,,,,,,,,,,,1,10,4,8,,,,,,,,,,,,,,,,,,,,,,,,,,,,,,,
5de5496937e1d50ca63e0fa5,SCR,2024-06-11_13h09.51.830,LearnStrategy,2023.2.3,Win32,59.88023952,,,,,,,,,,,8,02,5,1,,,,,,,,,,,,,,,,,,,,,,,,,,,,,,,
5de5496937e1d50ca63e0fa5,SCR,2024-06-11_13h09.51.830,LearnStrategy,2023.2.3,Win32,59.88023952,,,,,,,,,,,2,16,5,2,,,,,,,,,,,,,,,,,,,,,,,,,,,,,,,
5de5496937e1d50ca63e0fa5,SCR,2024-06-11_13h09.51.830,LearnStrategy,2023.2.3,Win32,59.88023952,,,,,,,,,,,2,08,5,3,,,,,,,,,,,,,,,,,,,,,,,,,,,,,,,
5de5496937e1d50ca63e0fa5,SCR,2024-06-11_13h09.51.830,LearnStrategy,2023.2.3,Win32,59.88023952,,,,,,,,,,,3,06,5,4,,,,,,,,,,,,,,,,,,,,,,,,,,,,,,,
5de5496937e1d50ca63e0fa5,SCR,2024-06-11_13h09.51.830,LearnStrategy,2023.2.3,Win32,59.88023952,,,,,,,,,,,1,14,5,5,,,,,,,,,,,,,,,,,,,,,,,,,,,,,,,
5de5496937e1d50ca63e0fa5,SCR,2024-06-11_13h09.51.830,LearnStrategy,2023.2.3,Win32,59.88023952,,,,,,,,,,,4,03,5,6,,,,,,,,,,,,,,,,,,,,,,,,,,,,,,,
5de5496937e1d50ca63e0fa5,SCR,2024-06-11_13h09.51.830,LearnStrategy,2023.2.3,Win32,59.88023952,,,,,,,,,,,5,07,5,7,,,,,,,,,,,,,,,,,,,,,,,,,,,,,,,
5de5496937e1d50ca63e0fa5,SCR,2024-06-11_13h09.51.830,LearnStrategy,2023.2.3,Win32,59.88023952,,,,,,,,,,,8,08,5,8,,,,,,,,,,,,,,,,,,,,,,,,,,,,,,,
5de5496937e1d50ca63e0fa5,SCR,2024-06-11_13h09.51.830,LearnStrategy,2023.2.3,Win32,59.88023952,,,,,,,,,,,7,04,6,1,,,,,,,,,,,,,,,,,,,,,,,,,,,,,,,
5de5496937e1d50ca63e0fa5,SCR,2024-06-11_13h09.51.830,LearnStrategy,2023.2.3,Win32,59.88023952,,,,,,,,,,,5,10,6,2,,,,,,,,,,,,,,,,,,,,,,,,,,,,,,,
5de5496937e1d50ca63e0fa5,SCR,2024-06-11_13h09.51.830,LearnStrategy,2023.2.3,Win32,59.88023952,,,,,,,,,,,6,05,6,3,,,,,,,,,,,,,,,,,,,,,,,,,,,,,,,
5de5496937e1d50ca63e0fa5,SCR,2024-06-11_13h09.51.830,LearnStrategy,2023.2.3,Win32,59.88023952,,,,,,,,,,,5,06,6,4,,,,,,,,,,,,,,,,,,,,,,,,,,,,,,,
5de5496937e1d50ca63e0fa5,SCR,2024-06-11_13h09.51.830,LearnStrategy,2023.2.3,Win32,59.88023952,,,,,,,,,,,6,11,6,5,,,,,,,,,,,,,,,,,,,,,,,,,,,,,,,
5de5496937e1d50ca63e0fa5,SCR,2024-06-11_13h09.51.830,LearnStrategy,2023.2.3,Win32,59.88023952,,,,,,,,,,,6,16,6,6,,,,,,,,,,,,,,,,,,,,,,,,,,,,,,,
5de5496937e1d50ca63e0fa5,SCR,2024-06-11_13h09.51.830,LearnStrategy,2023.2.3,Win32,59.88023952,,,,,,,,,,,7,08,6,7,,,,,,,,,,,,,,,,,,,,,,,,,,,,,,,
5de5496937e1d50ca63e0fa5,SCR,2024-06-11_13h09.51.830,LearnStrategy,2023.2.3,Win32,59.88023952,,,,,,,,,,,4,01,6,8,,,,,,,,,,,,,,,,,,,,,,,,,,,,,,,