participant,condition,date,expName,psychopyVersion,OS,frameRate,block,phase,trial,learn_mouse_2.x,learn_mouse_2.y,learn_mouse_2.leftButton,learn_mouse_2.midButton,learn_mouse_2.rightButton,learn_mouse_2.time,learn_mouse_2.clicked_name,cat,token,row,col,t_select,cat_mouse_l.x,cat_mouse_l.y,cat_mouse_l.leftButton,cat_mouse_l.midButton,cat_mouse_l.rightButton,cat_mouse_l.time,cat_mouse_l.clicked_name,resp,t_resp,corr,train_trials.thisRepN,train_trials.thisTrialN,train_trials.thisN,train_trials.thisIndex,train_trials.ran,cat_mouse_t.x,cat_mouse_t.y,cat_mouse_t.leftButton,cat_mouse_t.midButton,cat_mouse_t.rightButton,cat_mouse_t.time,cat_mouse_t.clicked_name,test_trials.thisRepN,test_trials.thisTrialN,test_trials.thisN,test_trials.thisIndex,test_trials.ran,Bonus
5deaddddc3aca1206ce3768b,TCR,2024-06-21_13h46.35.188,LearnStrategy,2023.2.3,Win32,14.99250375,,,,,,,,,,,,,,,,,,,,,,,,,,,,,,,,,,,,,,,,,,,
5deaddddc3aca1206ce3768b,TCR,2024-06-21_13h46.35.188,LearnStrategy,2023.2.3,Win32,14.99250375,1,1,1,0.058333333,-0.018518519,1,0,0,2.104,rock_grid_rect_2,5,04,-1,-1,2.104,-0.343518519,-0.384259259,1,0,0,3.3875,Obsidian_rect,5,3.388,1,0,0,0,0,1,,,,,,,,,,,,,
5deaddddc3aca1206ce3768b,TCR,2024-06-21_13h46.35.188,LearnStrategy,2023.2.3,Win32,14.99250375,1,1,2,-0.02962963,-0.013888889,1,0,0,3.0885,rock_grid_rect_2,8,08,-1,-1,3.089,0.336111111,-0.42037037,1,0,0,8.5045,Pumice_rect,8,8.505,1,1,0,1,0,1,,,,,,,,,,,,,
5deaddddc3aca1206ce3768b,TCR,2024-06-21_13h46.35.188,LearnStrategy,2023.2.3,Win32,14.99250375,1,1,3,0.024074074,0.007407407,1,0,0,1.4059,rock_grid_rect_2,3,08,-1,-1,1.406,-0.169444444,-0.251851852,1,0,0,3.8606,Basalt_rect,2,3.861,0,2,0,2,0,1,,,,,,,,,,,,,
5deaddddc3aca1206ce3768b,TCR,2024-06-21_13h46.35.188,LearnStrategy,2023.2.3,Win32,14.99250375,1,1,4,0.008333333,-0.012037037,1,0,0,1.1824,rock_grid_rect_2,5,05,-1,-1,1.182,0.042592593,-0.407407407,1,0,0,3.8712,Peridotite_rect,7,3.871,0,3,0,3,0,1,,,,,,,,,,,,,
5deaddddc3aca1206ce3768b,TCR,2024-06-21_13h46.35.188,LearnStrategy,2023.2.3,Win32,14.99250375,1,1,5,-0.024074074,0.021296296,1,0,0,1.035,rock_grid_rect_2,4,12,-1,-1,1.035,-0.110185185,-0.251851852,1,0,0,4.5906,Basalt_rect,2,4.591,0,4,0,4,0,1,,,,,,,,,,,,,
5deaddddc3aca1206ce3768b,TCR,2024-06-21_13h46.35.188,LearnStrategy,2023.2.3,Win32,14.99250375,1,1,6,-0.00462963,0.017592593,1,0,0,1.1335,rock_grid_rect_2,8,16,-1,-1,1.133,0.372222222,-0.389814815,1,0,0,6.2379,Pumice_rect,8,6.238,1,5,0,5,0,1,,,,,,,,,,,,,
5deaddddc3aca1206ce3768b,TCR,2024-06-21_13h46.35.188,LearnStrategy,2023.2.3,Win32,14.99250375,1,1,7,-0.019444444,-0.017592593,1,0,0,1.3858,rock_grid_rect_2,4,15,-1,-1,1.386,-0.15462963,-0.232407407,1,0,0,5.3298,Basalt_rect,2,5.33,0,6,0,6,0,1,,,,,,,,,,,,,
5deaddddc3aca1206ce3768b,TCR,2024-06-21_13h46.35.188,LearnStrategy,2023.2.3,Win32,14.99250375,1,1,8,-0.001851852,-0.012037037,1,0,0,0.987,rock_grid_rect_2,2,10,-1,-1,0.987,-0.360185185,-0.246296296,1,0,0,6.3987,Andesite_rect,1,6.399,0,7,0,7,0,1,,,,,,,,,,,,,
5deaddddc3aca1206ce3768b,TCR,2024-06-21_13h46.35.188,LearnStrategy,2023.2.3,Win32,14.99250375,1,1,9,-0.034259259,0.006481481,1,0,0,1.6138,rock_grid_rect_2,6,13,-1,-1,1.614,-0.362962963,-0.246296296,1,0,0,3.0952,Andesite_rect,1,3.095,0,8,0,8,0,1,,,,,,,,,,,,,
5deaddddc3aca1206ce3768b,TCR,2024-06-21_13h46.35.188,LearnStrategy,2023.2.3,Win32,14.99250375,1,1,10,0.012037037,0.016666667,1,0,0,0.9187,rock_grid_rect_2,2,08,-1,-1,0.919,-0.362037037,-0.40462963,1,0,0,2.935,Obsidian_rect,5,2.935,0,9,0,9,0,1,,,,,,,,,,,,,
5deaddddc3aca1206ce3768b,TCR,2024-06-21_13h46.35.188,LearnStrategy,2023.2.3,Win32,14.99250375,1,1,11,-0.07962963,-0.009259259,1,0,0,0.828,rock_grid_rect_2,3,07,-1,-1,0.828,0.416666667,-0.231481481,1,0,0,2.8286,Gabbro_rect,4,2.829,0,10,0,10,0,1,,,,,,,,,,,,,
5deaddddc3aca1206ce3768b,TCR,2024-06-21_13h46.35.188,LearnStrategy,2023.2.3,Win32,14.99250375,1,1,12,0.063888889,0.012962963,1,0,0,0.8472,rock_grid_rect_2,7,16,-1,-1,0.847,0.046296296,-0.406481481,1,0,0,4.6041,Peridotite_rect,7,4.604,1,11,0,11,0,1,,,,,,,,,,,,,
5deaddddc3aca1206ce3768b,TCR,2024-06-21_13h46.35.188,LearnStrategy,2023.2.3,Win32,14.99250375,1,1,13,0.026851852,0.000925926,1,0,0,1.7189,rock_grid_rect_2,1,03,-1,-1,1.719,-0.146296296,-0.24537037,1,0,0,1.7901,Basalt_rect,2,1.79,0,12,0,12,0,1,,,,,,,,,,,,,
5deaddddc3aca1206ce3768b,TCR,2024-06-21_13h46.35.188,LearnStrategy,2023.2.3,Win32,14.99250375,1,1,14,-0.059259259,0.011111111,1,0,0,1.0216,rock_grid_rect_2,6,06,-1,-1,1.022,0.353703704,-0.241666667,1,0,0,2.9058,Gabbro_rect,4,2.906,0,13,0,13,0,1,,,,,,,,,,,,,
5deaddddc3aca1206ce3768b,TCR,2024-06-21_13h46.35.188,LearnStrategy,2023.2.3,Win32,14.99250375,1,1,15,0.049074074,-0.02037037,1,0,0,0.8344,rock_grid_rect_2,1,01,-1,-1,0.834,-0.2,-0.238888889,1,0,0,2.5633,Basalt_rect,2,2.563,0,14,0,14,0,1,,,,,,,,,,,,,
5deaddddc3aca1206ce3768b,TCR,2024-06-21_13h46.35.188,LearnStrategy,2023.2.3,Win32,14.99250375,1,1,16,-0.041666667,-0.000925926,1,0,0,1.5777,rock_grid_rect_2,7,04,-1,-1,1.578,0.369444444,-0.230555556,1,0,0,2.8434,Gabbro_rect,4,2.843,0,15,0,15,0,1,,,,,,,,,,,,,
5deaddddc3aca1206ce3768b,TCR,2024-06-21_13h46.35.188,LearnStrategy,2023.2.3,Win32,14.99250375,1,2,1,,,,,,,,2,05,,,,,,,,,,,2,4.188,1,,,,,,-0.146296296,-0.258333333,1,0,0,4.1875,Basalt_rect,0,0,0,0,1,
5deaddddc3aca1206ce3768b,TCR,2024-06-21_13h46.35.188,LearnStrategy,2023.2.3,Win32,14.99250375,1,2,2,,,,,,,,6,12,,,,,,,,,,,3,3.561,0,,,,,,0.136111111,-0.240740741,1,0,0,3.5613,Diorite_rect,1,0,1,0,1,
5deaddddc3aca1206ce3768b,TCR,2024-06-21_13h46.35.188,LearnStrategy,2023.2.3,Win32,14.99250375,1,2,3,,,,,,,,5,09,,,,,,,,,,,5,1.593,1,,,,,,-0.413888889,-0.402777778,1,0,0,1.5931,Obsidian_rect,2,0,2,0,1,
5deaddddc3aca1206ce3768b,TCR,2024-06-21_13h46.35.188,LearnStrategy,2023.2.3,Win32,14.99250375,1,2,4,,,,,,,,8,14,,,,,,,,,,,8,3.974,1,,,,,,0.428703704,-0.406481481,1,0,0,3.9742,Pumice_rect,3,0,3,0,1,
5deaddddc3aca1206ce3768b,TCR,2024-06-21_13h46.35.188,LearnStrategy,2023.2.3,Win32,14.99250375,1,2,5,,,,,,,,6,15,,,,,,,,,,,6,4.026,1,,,,,,-0.1,-0.394444444,1,0,0,4.0264,Pegmatite_rect,4,0,4,0,1,
5deaddddc3aca1206ce3768b,TCR,2024-06-21_13h46.35.188,LearnStrategy,2023.2.3,Win32,14.99250375,1,2,6,,,,,,,,7,14,,,,,,,,,,,7,3.941,1,,,,,,0.125,-0.4,1,0,0,3.9413,Peridotite_rect,5,0,5,0,1,
5deaddddc3aca1206ce3768b,TCR,2024-06-21_13h46.35.188,LearnStrategy,2023.2.3,Win32,14.99250375,1,2,7,,,,,,,,3,14,,,,,,,,,,,1,1.879,0,,,,,,-0.410185185,-0.244444444,1,0,0,1.8792,Andesite_rect,6,0,6,0,1,
5deaddddc3aca1206ce3768b,TCR,2024-06-21_13h46.35.188,LearnStrategy,2023.2.3,Win32,14.99250375,1,2,8,,,,,,,,3,12,,,,,,,,,,,3,7.269,1,,,,,,0.135185185,-0.231481481,1,0,0,7.2695,Diorite_rect,7,0,7,0,1,
5deaddddc3aca1206ce3768b,TCR,2024-06-21_13h46.35.188,LearnStrategy,2023.2.3,Win32,14.99250375,1,2,9,,,,,,,,5,07,,,,,,,,,,,5,2.531,1,,,,,,-0.374074074,-0.403703704,1,0,0,2.5305,Obsidian_rect,8,0,8,0,1,
5deaddddc3aca1206ce3768b,TCR,2024-06-21_13h46.35.188,LearnStrategy,2023.2.3,Win32,14.99250375,1,2,10,,,,,,,,4,10,,,,,,,,,,,6,7.475,0,,,,,,-0.137037037,-0.391666667,1,0,0,7.4745,Pegmatite_rect,9,0,9,0,1,
5deaddddc3aca1206ce3768b,TCR,2024-06-21_13h46.35.188,LearnStrategy,2023.2.3,Win32,14.99250375,1,2,11,,,,,,,,1,02,,,,,,,,,,,4,5.411,0,,,,,,0.37962963,-0.258333333,1,0,0,5.4113,Gabbro_rect,10,0,10,0,1,
5deaddddc3aca1206ce3768b,TCR,2024-06-21_13h46.35.188,LearnStrategy,2023.2.3,Win32,14.99250375,1,2,12,,,,,,,,1,04,,,,,,,,,,,2,2.896,0,,,,,,-0.12962963,-0.241666667,1,0,0,2.8955,Basalt_rect,11,0,11,0,1,
5deaddddc3aca1206ce3768b,TCR,2024-06-21_13h46.35.188,LearnStrategy,2023.2.3,Win32,14.99250375,1,2,13,,,,,,,,7,06,,,,,,,,,,,3,2.236,0,,,,,,0.127777778,-0.243518519,1,0,0,2.2356,Diorite_rect,12,0,12,0,1,
5deaddddc3aca1206ce3768b,TCR,2024-06-21_13h46.35.188,LearnStrategy,2023.2.3,Win32,14.99250375,1,2,14,,,,,,,,8,04,,,,,,,,,,,8,1.56,1,,,,,,0.383333333,-0.403703704,1,0,0,1.5602,Pumice_rect,13,0,13,0,1,
5deaddddc3aca1206ce3768b,TCR,2024-06-21_13h46.35.188,LearnStrategy,2023.2.3,Win32,14.99250375,1,2,15,,,,,,,,2,01,,,,,,,,,,,2,6.673,1,,,,,,-0.134259259,-0.228703704,1,0,0,6.6733,Basalt_rect,14,0,14,0,1,
5deaddddc3aca1206ce3768b,TCR,2024-06-21_13h46.35.188,LearnStrategy,2023.2.3,Win32,14.99250375,1,2,16,,,,,,,,4,11,,,,,,,,,,,2,5.034,0,,,,,,-0.173148148,-0.237037037,1,0,0,5.034,Basalt_rect,15,0,15,0,1,
5deaddddc3aca1206ce3768b,TCR,2024-06-21_13h46.35.188,LearnStrategy,2023.2.3,Win32,14.99250375,2,1,1,-0.018518519,-0.017592593,1,0,0,0.9531,rock_grid_rect_2,3,08,-1,-1,0.953,0.098148148,-0.242592593,1,0,0,2.3344,Diorite_rect,3,2.334,1,0,0,0,0,1,,,,,,,,,,,,,
5deaddddc3aca1206ce3768b,TCR,2024-06-21_13h46.35.188,LearnStrategy,2023.2.3,Win32,14.99250375,2,1,2,-0.025,0.009259259,1,0,0,1.3075,rock_grid_rect_2,4,09,-1,-1,1.307,-0.383333333,-0.249074074,1,0,0,3.9205,Andesite_rect,1,3.921,0,1,0,1,0,1,,,,,,,,,,,,,
5deaddddc3aca1206ce3768b,TCR,2024-06-21_13h46.35.188,LearnStrategy,2023.2.3,Win32,14.99250375,2,1,3,-0.010185185,0.007407407,1,0,0,0.9313,rock_grid_rect_2,1,14,-1,-1,0.931,-0.128703704,-0.236111111,1,0,0,3.17,Basalt_rect,2,3.17,0,2,0,2,0,1,,,,,,,,,,,,,
5deaddddc3aca1206ce3768b,TCR,2024-06-21_13h46.35.188,LearnStrategy,2023.2.3,Win32,14.99250375,2,1,4,-0.047222222,-0.02037037,1,0,0,1.0074,rock_grid_rect_2,7,04,-1,-1,1.007,0.111111111,-0.387962963,1,0,0,9.4374,Peridotite_rect,7,9.437,1,3,0,3,0,1,,,,,,,,,,,,,
5deaddddc3aca1206ce3768b,TCR,2024-06-21_13h46.35.188,LearnStrategy,2023.2.3,Win32,14.99250375,2,1,5,0.074074074,0,1,0,0,1.0342,rock_grid_rect_2,7,04,-1,-1,1.034,0.125925926,-0.407407407,1,0,0,1.3962,Peridotite_rect,7,1.396,1,4,0,4,0,1,,,,,,,,,,,,,
5deaddddc3aca1206ce3768b,TCR,2024-06-21_13h46.35.188,LearnStrategy,2023.2.3,Win32,14.99250375,2,1,6,0.021296296,0.015740741,1,0,0,1.2102,rock_grid_rect_2,4,12,-1,-1,1.21,-0.101851852,-0.237037037,1,0,0,1.8228,Basalt_rect,2,1.823,0,5,0,5,0,1,,,,,,,,,,,,,
5deaddddc3aca1206ce3768b,TCR,2024-06-21_13h46.35.188,LearnStrategy,2023.2.3,Win32,14.99250375,2,1,7,-0.007407407,0.008333333,1,0,0,1.0192,rock_grid_rect_2,1,06,-1,-1,1.019,-0.144444444,-0.387962963,1,0,0,3.2664,Pegmatite_rect,6,3.266,0,6,0,6,0,1,,,,,,,,,,,,,
5deaddddc3aca1206ce3768b,TCR,2024-06-21_13h46.35.188,LearnStrategy,2023.2.3,Win32,14.99250375,2,1,8,-0.02962963,-0.010185185,1,0,0,1.042,rock_grid_rect_2,1,14,-1,-1,1.042,0.143518519,-0.237962963,1,0,0,5.6611,Diorite_rect,3,5.661,0,7,0,7,0,1,,,,,,,,,,,,,
5deaddddc3aca1206ce3768b,TCR,2024-06-21_13h46.35.188,LearnStrategy,2023.2.3,Win32,14.99250375,2,1,9,-0.062037037,0.022222222,1,0,0,1.2411,rock_grid_rect_2,2,11,-1,-1,1.241,-0.099074074,-0.248148148,1,0,0,3.1917,Basalt_rect,2,3.192,1,8,0,8,0,1,,,,,,,,,,,,,
5deaddddc3aca1206ce3768b,TCR,2024-06-21_13h46.35.188,LearnStrategy,2023.2.3,Win32,14.99250375,2,1,10,-0.05462963,0.001851852,1,0,0,0.9806,rock_grid_rect_2,4,15,-1,-1,0.981,0.093518519,-0.40462963,1,0,0,2.372,Peridotite_rect,7,2.372,0,9,0,9,0,1,,,,,,,,,,,,,
5deaddddc3aca1206ce3768b,TCR,2024-06-21_13h46.35.188,LearnStrategy,2023.2.3,Win32,14.99250375,2,1,11,0.006481481,0.001851852,1,0,0,1.093,rock_grid_rect_2,1,01,-1,-1,1.093,0.075925926,-0.381481481,1,0,0,3.6395,Peridotite_rect,7,3.64,0,10,0,10,0,1,,,,,,,,,,,,,
5deaddddc3aca1206ce3768b,TCR,2024-06-21_13h46.35.188,LearnStrategy,2023.2.3,Win32,14.99250375,2,1,12,0.036111111,-0.025,1,0,0,0.8934,rock_grid_rect_2,6,05,-1,-1,0.893,-0.109259259,-0.384259259,1,0,0,5.7892,Pegmatite_rect,6,5.789,1,11,0,11,0,1,,,,,,,,,,,,,
5deaddddc3aca1206ce3768b,TCR,2024-06-21_13h46.35.188,LearnStrategy,2023.2.3,Win32,14.99250375,2,1,13,-0.04537037,0,1,0,0,0.8604,rock_grid_rect_2,6,13,-1,-1,0.86,-0.087962963,-0.387037037,1,0,0,3.4982,Pegmatite_rect,6,3.498,1,12,0,12,0,1,,,,,,,,,,,,,
5deaddddc3aca1206ce3768b,TCR,2024-06-21_13h46.35.188,LearnStrategy,2023.2.3,Win32,14.99250375,2,1,14,-0.053703704,-0.016666667,1,0,0,0.8914,rock_grid_rect_2,3,16,-1,-1,0.891,-0.35462963,-0.238888889,1,0,0,1.8405,Andesite_rect,1,1.841,0,13,0,13,0,1,,,,,,,,,,,,,
5deaddddc3aca1206ce3768b,TCR,2024-06-21_13h46.35.188,LearnStrategy,2023.2.3,Win32,14.99250375,2,1,15,-0.042592593,0.001851852,1,0,0,0.8445,rock_grid_rect_2,4,09,-1,-1,0.844,-0.125,-0.234259259,1,0,0,7.5829,Basalt_rect,2,7.583,0,14,0,14,0,1,,,,,,,,,,,,,
5deaddddc3aca1206ce3768b,TCR,2024-06-21_13h46.35.188,LearnStrategy,2023.2.3,Win32,14.99250375,2,1,16,-0.028703704,0.014814815,1,0,0,0.972,rock_grid_rect_2,3,09,-1,-1,0.972,0.10462963,-0.24537037,1,0,0,1.9678,Diorite_rect,3,1.968,1,15,0,15,0,1,,,,,,,,,,,,,
5deaddddc3aca1206ce3768b,TCR,2024-06-21_13h46.35.188,LearnStrategy,2023.2.3,Win32,14.99250375,2,2,1,,,,,,,,6,07,,,,,,,,,,,7,7.379,0,,,,,,0.105555556,-0.406481481,1,0,0,7.3793,Peridotite_rect,0,0,0,0,1,
5deaddddc3aca1206ce3768b,TCR,2024-06-21_13h46.35.188,LearnStrategy,2023.2.3,Win32,14.99250375,2,2,2,,,,,,,,5,10,,,,,,,,,,,5,2.201,1,,,,,,-0.406481481,-0.387037037,1,0,0,2.2013,Obsidian_rect,1,0,1,0,1,
5deaddddc3aca1206ce3768b,TCR,2024-06-21_13h46.35.188,LearnStrategy,2023.2.3,Win32,14.99250375,2,2,3,,,,,,,,6,09,,,,,,,,,,,7,1.917,0,,,,,,0.136111111,-0.388888889,1,0,0,1.9171,Peridotite_rect,2,0,2,0,1,
5deaddddc3aca1206ce3768b,TCR,2024-06-21_13h46.35.188,LearnStrategy,2023.2.3,Win32,14.99250375,2,2,4,,,,,,,,8,05,,,,,,,,,,,8,2.028,1,,,,,,0.366666667,-0.398148148,1,0,0,2.0284,Pumice_rect,3,0,3,0,1,
5deaddddc3aca1206ce3768b,TCR,2024-06-21_13h46.35.188,LearnStrategy,2023.2.3,Win32,14.99250375,2,2,5,,,,,,,,3,13,,,,,,,,,,,3,4.954,1,,,,,,0.083333333,-0.243518519,1,0,0,4.9536,Diorite_rect,4,0,4,0,1,
5deaddddc3aca1206ce3768b,TCR,2024-06-21_13h46.35.188,LearnStrategy,2023.2.3,Win32,14.99250375,2,2,6,,,,,,,,4,14,,,,,,,,,,,4,2.676,1,,,,,,0.34537037,-0.246296296,1,0,0,2.676,Gabbro_rect,5,0,5,0,1,
5deaddddc3aca1206ce3768b,TCR,2024-06-21_13h46.35.188,LearnStrategy,2023.2.3,Win32,14.99250375,2,2,7,,,,,,,,7,15,,,,,,,,,,,7,1.647,1,,,,,,0.077777778,-0.405555556,1,0,0,1.6475,Peridotite_rect,6,0,6,0,1,
5deaddddc3aca1206ce3768b,TCR,2024-06-21_13h46.35.188,LearnStrategy,2023.2.3,Win32,14.99250375,2,2,8,,,,,,,,4,05,,,,,,,,,,,2,6.803,0,,,,,,-0.160185185,-0.261111111,1,0,0,6.8033,Basalt_rect,7,0,7,0,1,
5deaddddc3aca1206ce3768b,TCR,2024-06-21_13h46.35.188,LearnStrategy,2023.2.3,Win32,14.99250375,2,2,9,,,,,,,,1,10,,,,,,,,,,,1,3.928,1,,,,,,-0.352777778,-0.240740741,1,0,0,3.9278,Andesite_rect,8,0,8,0,1,
5deaddddc3aca1206ce3768b,TCR,2024-06-21_13h46.35.188,LearnStrategy,2023.2.3,Win32,14.99250375,2,2,10,,,,,,,,8,09,,,,,,,,,,,8,1.489,1,,,,,,0.405555556,-0.410185185,1,0,0,1.4887,Pumice_rect,9,0,9,0,1,
5deaddddc3aca1206ce3768b,TCR,2024-06-21_13h46.35.188,LearnStrategy,2023.2.3,Win32,14.99250375,2,2,11,,,,,,,,5,06,,,,,,,,,,,5,1.788,1,,,,,,-0.373148148,-0.381481481,1,0,0,1.7878,Obsidian_rect,10,0,10,0,1,
5deaddddc3aca1206ce3768b,TCR,2024-06-21_13h46.35.188,LearnStrategy,2023.2.3,Win32,14.99250375,2,2,12,,,,,,,,1,09,,,,,,,,,,,4,3.454,0,,,,,,0.368518519,-0.260185185,1,0,0,3.4545,Gabbro_rect,11,0,11,0,1,
5deaddddc3aca1206ce3768b,TCR,2024-06-21_13h46.35.188,LearnStrategy,2023.2.3,Win32,14.99250375,2,2,13,,,,,,,,2,02,,,,,,,,,,,2,4.872,1,,,,,,-0.194444444,-0.25462963,1,0,0,4.8717,Basalt_rect,12,0,12,0,1,
5deaddddc3aca1206ce3768b,TCR,2024-06-21_13h46.35.188,LearnStrategy,2023.2.3,Win32,14.99250375,2,2,14,,,,,,,,7,05,,,,,,,,,,,7,2.19,1,,,,,,0.139814815,-0.399074074,1,0,0,2.1905,Peridotite_rect,13,0,13,0,1,
5deaddddc3aca1206ce3768b,TCR,2024-06-21_13h46.35.188,LearnStrategy,2023.2.3,Win32,14.99250375,2,2,15,,,,,,,,2,14,,,,,,,,,,,2,6.168,1,,,,,,-0.162037037,-0.252777778,1,0,0,6.1685,Basalt_rect,14,0,14,0,1,
5deaddddc3aca1206ce3768b,TCR,2024-06-21_13h46.35.188,LearnStrategy,2023.2.3,Win32,14.99250375,2,2,16,,,,,,,,3,11,,,,,,,,,,,1,2.514,0,,,,,,-0.367592593,-0.262962963,1,0,0,2.5136,Andesite_rect,15,0,15,0,1,
5deaddddc3aca1206ce3768b,TCR,2024-06-21_13h46.35.188,LearnStrategy,2023.2.3,Win32,14.99250375,3,1,1,-0.037037037,0.023148148,1,0,0,1.1993,rock_grid_rect_2,7,12,-1,-1,1.199,-0.318518519,-0.237962963,1,0,0,8.3201,Andesite_rect,1,8.32,0,0,0,0,0,1,,,,,,,,,,,,,
5deaddddc3aca1206ce3768b,TCR,2024-06-21_13h46.35.188,LearnStrategy,2023.2.3,Win32,14.99250375,3,1,2,-0.037962963,0.015740741,1,0,0,1.0503,rock_grid_rect_2,6,06,-1,-1,1.05,0.385185185,-0.25,1,0,0,4.9985,Gabbro_rect,4,4.998,0,1,0,1,0,1,,,,,,,,,,,,,
5deaddddc3aca1206ce3768b,TCR,2024-06-21_13h46.35.188,LearnStrategy,2023.2.3,Win32,14.99250375,3,1,3,0.025,-0.00462963,1,0,0,1.0711,rock_grid_rect_2,4,13,-1,-1,1.071,0.350925926,-0.25,1,0,0,5.1303,Gabbro_rect,4,5.13,1,2,0,2,0,1,,,,,,,,,,,,,
5deaddddc3aca1206ce3768b,TCR,2024-06-21_13h46.35.188,LearnStrategy,2023.2.3,Win32,14.99250375,3,1,4,0.055555556,0.003703704,1,0,0,1.0806,rock_grid_rect_2,4,15,-1,-1,1.081,-0.389814815,-0.256481481,1,0,0,2.9838,Andesite_rect,1,2.984,0,3,0,3,0,1,,,,,,,,,,,,,
5deaddddc3aca1206ce3768b,TCR,2024-06-21_13h46.35.188,LearnStrategy,2023.2.3,Win32,14.99250375,3,1,5,0.002777778,0.015740741,1,0,0,0.7652,rock_grid_rect_2,1,03,-1,-1,0.765,-0.065740741,-0.258333333,1,0,0,3.7606,Basalt_rect,2,3.761,0,4,0,4,0,1,,,,,,,,,,,,,
5deaddddc3aca1206ce3768b,TCR,2024-06-21_13h46.35.188,LearnStrategy,2023.2.3,Win32,14.99250375,3,1,6,-0.024074074,-0.006481481,1,0,0,0.8039,rock_grid_rect_2,6,08,-1,-1,0.804,0.108333333,-0.246296296,1,0,0,13.5484,Diorite_rect,3,13.548,0,5,0,5,0,1,,,,,,,,,,,,,
5deaddddc3aca1206ce3768b,TCR,2024-06-21_13h46.35.188,LearnStrategy,2023.2.3,Win32,14.99250375,3,1,7,-0.02962963,-0.003703704,1,0,0,1.0259,rock_grid_rect_2,1,16,-1,-1,1.026,0.139814815,-0.232407407,1,0,0,6.4472,Diorite_rect,3,6.447,0,6,0,6,0,1,,,,,,,,,,,,,
5deaddddc3aca1206ce3768b,TCR,2024-06-21_13h46.35.188,LearnStrategy,2023.2.3,Win32,14.99250375,3,1,8,0.00462963,0.002777778,1,0,0,0.9268,rock_grid_rect_2,6,10,-1,-1,0.927,0.131481481,-0.410185185,1,0,0,1.8291,Peridotite_rect,7,1.829,0,7,0,7,0,1,,,,,,,,,,,,,
5deaddddc3aca1206ce3768b,TCR,2024-06-21_13h46.35.188,LearnStrategy,2023.2.3,Win32,14.99250375,3,1,9,0,-0.001851852,1,0,0,1.1484,rock_grid_rect_2,7,07,-1,-1,1.148,-0.333333333,-0.252777778,1,0,0,4.756,Andesite_rect,1,4.756,0,8,0,8,0,1,,,,,,,,,,,,,
5deaddddc3aca1206ce3768b,TCR,2024-06-21_13h46.35.188,LearnStrategy,2023.2.3,Win32,14.99250375,3,1,10,0.008333333,-0.011111111,1,0,0,0.8678,rock_grid_rect_2,3,06,-1,-1,0.868,0.075925926,-0.246296296,1,0,0,1.9189,Diorite_rect,3,1.919,1,9,0,9,0,1,,,,,,,,,,,,,
5deaddddc3aca1206ce3768b,TCR,2024-06-21_13h46.35.188,LearnStrategy,2023.2.3,Win32,14.99250375,3,1,11,-0.011111111,-0.009259259,1,0,0,0.745,rock_grid_rect_2,1,03,-1,-1,0.745,-0.39537037,-0.241666667,1,0,0,8.6458,Andesite_rect,1,8.646,1,10,0,10,0,1,,,,,,,,,,,,,
5deaddddc3aca1206ce3768b,TCR,2024-06-21_13h46.35.188,LearnStrategy,2023.2.3,Win32,14.99250375,3,1,12,-0.062037037,0.010185185,1,0,0,0.7065,rock_grid_rect_2,4,08,-1,-1,0.707,-0.067592593,-0.382407407,1,0,0,4.1002,Pegmatite_rect,6,4.1,0,11,0,11,0,1,,,,,,,,,,,,,
5deaddddc3aca1206ce3768b,TCR,2024-06-21_13h46.35.188,LearnStrategy,2023.2.3,Win32,14.99250375,3,1,13,-0.008333333,0.010185185,1,0,0,1.0016,rock_grid_rect_2,2,09,-1,-1,1.002,-0.059259259,-0.246296296,1,0,0,5.0163,Basalt_rect,2,5.016,1,12,0,12,0,1,,,,,,,,,,,,,
5deaddddc3aca1206ce3768b,TCR,2024-06-21_13h46.35.188,LearnStrategy,2023.2.3,Win32,14.99250375,3,1,14,-0.021296296,0.012962963,1,0,0,1.1685,rock_grid_rect_2,3,06,-1,-1,1.168,0.138888889,-0.247222222,1,0,0,2.4641,Diorite_rect,3,2.464,1,13,0,13,0,1,,,,,,,,,,,,,
5deaddddc3aca1206ce3768b,TCR,2024-06-21_13h46.35.188,LearnStrategy,2023.2.3,Win32,14.99250375,3,1,15,0.025,-0.008333333,1,0,0,0.6943,rock_grid_rect_2,6,06,-1,-1,0.694,-0.413888889,-0.256481481,1,0,0,5.7945,Andesite_rect,1,5.794,0,14,0,14,0,1,,,,,,,,,,,,,
5deaddddc3aca1206ce3768b,TCR,2024-06-21_13h46.35.188,LearnStrategy,2023.2.3,Win32,14.99250375,3,1,16,-0.019444444,-0.001851852,1,0,0,1.1146,rock_grid_rect_2,3,02,-1,-1,1.115,0.12962963,-0.249074074,1,0,0,1.7647,Diorite_rect,3,1.765,1,15,0,15,0,1,,,,,,,,,,,,,
5deaddddc3aca1206ce3768b,TCR,2024-06-21_13h46.35.188,LearnStrategy,2023.2.3,Win32,14.99250375,3,2,1,,,,,,,,8,15,,,,,,,,,,,8,1.918,1,,,,,,0.385185185,-0.386111111,1,0,0,1.9183,Pumice_rect,0,0,0,0,1,
5deaddddc3aca1206ce3768b,TCR,2024-06-21_13h46.35.188,LearnStrategy,2023.2.3,Win32,14.99250375,3,2,2,,,,,,,,5,12,,,,,,,,,,,5,2.024,1,,,,,,-0.39537037,-0.409259259,1,0,0,2.0244,Obsidian_rect,1,0,1,0,1,
5deaddddc3aca1206ce3768b,TCR,2024-06-21_13h46.35.188,LearnStrategy,2023.2.3,Win32,14.99250375,3,2,3,,,,,,,,5,11,,,,,,,,,,,5,1.175,1,,,,,,-0.37962963,-0.386111111,1,0,0,1.1753,Obsidian_rect,2,0,2,0,1,
5deaddddc3aca1206ce3768b,TCR,2024-06-21_13h46.35.188,LearnStrategy,2023.2.3,Win32,14.99250375,3,2,4,,,,,,,,1,05,,,,,,,,,,,6,8.075,0,,,,,,-0.074074074,-0.402777778,1,0,0,8.0754,Pegmatite_rect,3,0,3,0,1,
5deaddddc3aca1206ce3768b,TCR,2024-06-21_13h46.35.188,LearnStrategy,2023.2.3,Win32,14.99250375,3,2,5,,,,,,,,2,06,,,,,,,,,,,2,2.563,1,,,,,,-0.10462963,-0.231481481,1,0,0,2.5625,Basalt_rect,4,0,4,0,1,
5deaddddc3aca1206ce3768b,TCR,2024-06-21_13h46.35.188,LearnStrategy,2023.2.3,Win32,14.99250375,3,2,6,,,,,,,,7,02,,,,,,,,,,,7,1.85,1,,,,,,0.125,-0.389814815,1,0,0,1.8497,Peridotite_rect,5,0,5,0,1,
5deaddddc3aca1206ce3768b,TCR,2024-06-21_13h46.35.188,LearnStrategy,2023.2.3,Win32,14.99250375,3,2,7,,,,,,,,3,10,,,,,,,,,,,1,3.895,0,,,,,,-0.455555556,-0.247222222,1,0,0,3.8948,Andesite_rect,6,0,6,0,1,
5deaddddc3aca1206ce3768b,TCR,2024-06-21_13h46.35.188,LearnStrategy,2023.2.3,Win32,14.99250375,3,2,8,,,,,,,,1,07,,,,,,,,,,,3,3.229,0,,,,,,0.123148148,-0.25462963,1,0,0,3.2295,Diorite_rect,7,0,7,0,1,
5deaddddc3aca1206ce3768b,TCR,2024-06-21_13h46.35.188,LearnStrategy,2023.2.3,Win32,14.99250375,3,2,9,,,,,,,,8,06,,,,,,,,,,,8,2.696,1,,,,,,0.357407407,-0.399074074,1,0,0,2.6956,Pumice_rect,8,0,8,0,1,
5deaddddc3aca1206ce3768b,TCR,2024-06-21_13h46.35.188,LearnStrategy,2023.2.3,Win32,14.99250375,3,2,10,,,,,,,,7,10,,,,,,,,,,,7,3.676,1,,,,,,0.084259259,-0.400925926,1,0,0,3.6763,Peridotite_rect,9,0,9,0,1,
5deaddddc3aca1206ce3768b,TCR,2024-06-21_13h46.35.188,LearnStrategy,2023.2.3,Win32,14.99250375,3,2,11,,,,,,,,6,03,,,,,,,,,,,7,2.043,0,,,,,,0.10462963,-0.4,1,0,0,2.0433,Peridotite_rect,10,0,10,0,1,
5deaddddc3aca1206ce3768b,TCR,2024-06-21_13h46.35.188,LearnStrategy,2023.2.3,Win32,14.99250375,3,2,12,,,,,,,,2,04,,,,,,,,,,,2,1.63,1,,,,,,-0.116666667,-0.237962963,1,0,0,1.6301,Basalt_rect,11,0,11,0,1,
5deaddddc3aca1206ce3768b,TCR,2024-06-21_13h46.35.188,LearnStrategy,2023.2.3,Win32,14.99250375,3,2,13,,,,,,,,4,16,,,,,,,,,,,4,2.216,1,,,,,,0.401851852,-0.251851852,1,0,0,2.2161,Gabbro_rect,12,0,12,0,1,
5deaddddc3aca1206ce3768b,TCR,2024-06-21_13h46.35.188,LearnStrategy,2023.2.3,Win32,14.99250375,3,2,14,,,,,,,,3,15,,,,,,,,,,,3,3.666,1,,,,,,0.127777778,-0.258333333,1,0,0,3.6658,Diorite_rect,13,0,13,0,1,
5deaddddc3aca1206ce3768b,TCR,2024-06-21_13h46.35.188,LearnStrategy,2023.2.3,Win32,14.99250375,3,2,15,,,,,,,,6,16,,,,,,,,,,,3,4.877,0,,,,,,0.177777778,-0.250925926,1,0,0,4.877,Diorite_rect,14,0,14,0,1,
5deaddddc3aca1206ce3768b,TCR,2024-06-21_13h46.35.188,LearnStrategy,2023.2.3,Win32,14.99250375,3,2,16,,,,,,,,4,03,,,,,,,,,,,1,7.752,0,,,,,,-0.337962963,-0.256481481,1,0,0,7.7523,Andesite_rect,15,0,15,0,1,
5deaddddc3aca1206ce3768b,TCR,2024-06-21_13h46.35.188,LearnStrategy,2023.2.3,Win32,14.99250375,4,1,1,-0.037962963,-0.006481481,1,0,0,0.9361,rock_grid_rect_2,1,14,-1,-1,0.936,0.126851852,-0.230555556,1,0,0,2.9283,Diorite_rect,3,2.928,0,0,0,0,0,1,,,,,,,,,,,,,
5deaddddc3aca1206ce3768b,TCR,2024-06-21_13h46.35.188,LearnStrategy,2023.2.3,Win32,14.99250375,4,1,2,0.019444444,-0.008333333,1,0,0,1.1731,rock_grid_rect_2,7,08,-1,-1,1.173,0.108333333,-0.390740741,1,0,0,1.6607,Peridotite_rect,7,1.661,1,1,0,1,0,1,,,,,,,,,,,,,
5deaddddc3aca1206ce3768b,TCR,2024-06-21_13h46.35.188,LearnStrategy,2023.2.3,Win32,14.99250375,4,1,3,0.028703704,0.007407407,1,0,0,1.3183,rock_grid_rect_2,4,01,-1,-1,1.318,0.339814815,-0.248148148,1,0,0,5.0035,Gabbro_rect,4,5.004,1,2,0,2,0,1,,,,,,,,,,,,,
5deaddddc3aca1206ce3768b,TCR,2024-06-21_13h46.35.188,LearnStrategy,2023.2.3,Win32,14.99250375,4,1,4,-0.009259259,-0.016666667,1,0,0,0.7614,rock_grid_rect_2,3,06,-1,-1,0.761,0.072222222,-0.241666667,1,0,0,6.3626,Diorite_rect,3,6.363,1,3,0,3,0,1,,,,,,,,,,,,,
5deaddddc3aca1206ce3768b,TCR,2024-06-21_13h46.35.188,LearnStrategy,2023.2.3,Win32,14.99250375,4,1,5,-0.012962963,-0.011111111,1,0,0,1.0843,rock_grid_rect_2,6,13,-1,-1,1.084,-0.138888889,-0.409259259,1,0,0,4.4149,Pegmatite_rect,6,4.415,1,4,0,4,0,1,,,,,,,,,,,,,
5deaddddc3aca1206ce3768b,TCR,2024-06-21_13h46.35.188,LearnStrategy,2023.2.3,Win32,14.99250375,4,1,6,-0.063888889,0.012962963,1,0,0,0.9967,rock_grid_rect_2,3,07,-1,-1,0.997,0.133333333,-0.235185185,1,0,0,2.5136,Diorite_rect,3,2.514,1,5,0,5,0,1,,,,,,,,,,,,,
5deaddddc3aca1206ce3768b,TCR,2024-06-21_13h46.35.188,LearnStrategy,2023.2.3,Win32,14.99250375,4,1,7,0.041666667,-0.016666667,1,0,0,1.0572,rock_grid_rect_2,1,03,-1,-1,1.057,-0.356481481,-0.235185185,1,0,0,2.7048,Andesite_rect,1,2.705,1,6,0,6,0,1,,,,,,,,,,,,,
5deaddddc3aca1206ce3768b,TCR,2024-06-21_13h46.35.188,LearnStrategy,2023.2.3,Win32,14.99250375,4,1,8,-0.053703704,0.007407407,1,0,0,0.8422,rock_grid_rect_2,6,13,-1,-1,0.842,0.368518519,-0.24537037,1,0,0,3.963,Gabbro_rect,4,3.963,0,7,0,7,0,1,,,,,,,,,,,,,
5deaddddc3aca1206ce3768b,TCR,2024-06-21_13h46.35.188,LearnStrategy,2023.2.3,Win32,14.99250375,4,1,9,0.008333333,0.011111111,1,0,0,0.9679,rock_grid_rect_2,3,07,-1,-1,0.968,0.087962963,-0.237962963,1,0,0,1.6412,Diorite_rect,3,1.641,1,8,0,8,0,1,,,,,,,,,,,,,
5deaddddc3aca1206ce3768b,TCR,2024-06-21_13h46.35.188,LearnStrategy,2023.2.3,Win32,14.99250375,4,1,10,-0.005555556,-0.023148148,1,0,0,0.7827,rock_grid_rect_2,1,03,-1,-1,0.783,0.325925926,-0.22962963,1,0,0,4.7645,Gabbro_rect,4,4.764,0,9,0,9,0,1,,,,,,,,,,,,,
5deaddddc3aca1206ce3768b,TCR,2024-06-21_13h46.35.188,LearnStrategy,2023.2.3,Win32,14.99250375,4,1,11,-0.006481481,-0.024074074,1,0,0,0.7204,rock_grid_rect_2,2,11,-1,-1,0.72,-0.110185185,-0.255555556,1,0,0,4.9682,Basalt_rect,2,4.968,1,10,0,10,0,1,,,,,,,,,,,,,
5deaddddc3aca1206ce3768b,TCR,2024-06-21_13h46.35.188,LearnStrategy,2023.2.3,Win32,14.99250375,4,1,12,-0.027777778,-0.00462963,1,0,0,1.5242,rock_grid_rect_2,1,16,-1,-1,1.524,0.12037037,-0.249074074,1,0,0,1.5286,Diorite_rect,3,1.529,0,11,0,11,0,1,,,,,,,,,,,,,
5deaddddc3aca1206ce3768b,TCR,2024-06-21_13h46.35.188,LearnStrategy,2023.2.3,Win32,14.99250375,4,1,13,0.012962963,0.011111111,1,0,0,1.0516,rock_grid_rect_2,4,12,-1,-1,1.052,-0.101851852,-0.246296296,1,0,0,3.2862,Basalt_rect,2,3.286,0,12,0,12,0,1,,,,,,,,,,,,,
5deaddddc3aca1206ce3768b,TCR,2024-06-21_13h46.35.188,LearnStrategy,2023.2.3,Win32,14.99250375,4,1,14,-0.010185185,-0.024074074,1,0,0,0.7533,rock_grid_rect_2,4,13,-1,-1,0.753,-0.181481481,-0.384259259,1,0,0,7.4025,Pegmatite_rect,6,7.402,0,13,0,13,0,1,,,,,,,,,,,,,
5deaddddc3aca1206ce3768b,TCR,2024-06-21_13h46.35.188,LearnStrategy,2023.2.3,Win32,14.99250375,4,1,15,-0.034259259,-0.003703704,1,0,0,1.0081,rock_grid_rect_2,6,08,-1,-1,1.008,-0.382407407,-0.243518519,1,0,0,5.0441,Andesite_rect,1,5.044,0,14,0,14,0,1,,,,,,,,,,,,,
5deaddddc3aca1206ce3768b,TCR,2024-06-21_13h46.35.188,LearnStrategy,2023.2.3,Win32,14.99250375,4,1,16,-0.04537037,-0.005555556,1,0,0,1.0141,rock_grid_rect_2,6,10,-1,-1,1.014,0.10462963,-0.407407407,1,0,0,1.5608,Peridotite_rect,7,1.561,0,15,0,15,0,1,,,,,,,,,,,,,
5deaddddc3aca1206ce3768b,TCR,2024-06-21_13h46.35.188,LearnStrategy,2023.2.3,Win32,14.99250375,4,2,1,,,,,,,,1,07,,,,,,,,,,,3,2.515,0,,,,,,0.105555556,-0.24537037,1,0,0,2.5147,Diorite_rect,0,0,0,0,1,
5deaddddc3aca1206ce3768b,TCR,2024-06-21_13h46.35.188,LearnStrategy,2023.2.3,Win32,14.99250375,4,2,2,,,,,,,,5,06,,,,,,,,,,,5,1.334,1,,,,,,-0.387962963,-0.418518519,1,0,0,1.334,Obsidian_rect,1,0,1,0,1,
5deaddddc3aca1206ce3768b,TCR,2024-06-21_13h46.35.188,LearnStrategy,2023.2.3,Win32,14.99250375,4,2,3,,,,,,,,8,15,,,,,,,,,,,8,1.657,1,,,,,,0.387037037,-0.394444444,1,0,0,1.6571,Pumice_rect,2,0,2,0,1,
5deaddddc3aca1206ce3768b,TCR,2024-06-21_13h46.35.188,LearnStrategy,2023.2.3,Win32,14.99250375,4,2,4,,,,,,,,7,05,,,,,,,,,,,7,2.957,1,,,,,,0.119444444,-0.410185185,1,0,0,2.9575,Peridotite_rect,3,0,3,0,1,
5deaddddc3aca1206ce3768b,TCR,2024-06-21_13h46.35.188,LearnStrategy,2023.2.3,Win32,14.99250375,4,2,5,,,,,,,,4,03,,,,,,,,,,,1,4.705,0,,,,,,-0.437962963,-0.261111111,1,0,0,4.7054,Andesite_rect,4,0,4,0,1,
5deaddddc3aca1206ce3768b,TCR,2024-06-21_13h46.35.188,LearnStrategy,2023.2.3,Win32,14.99250375,4,2,6,,,,,,,,2,02,,,,,,,,,,,2,1.771,1,,,,,,-0.112962963,-0.259259259,1,0,0,1.7707,Basalt_rect,5,0,5,0,1,
5deaddddc3aca1206ce3768b,TCR,2024-06-21_13h46.35.188,LearnStrategy,2023.2.3,Win32,14.99250375,4,2,7,,,,,,,,5,09,,,,,,,,,,,5,2.43,1,,,,,,-0.382407407,-0.397222222,1,0,0,2.4303,Obsidian_rect,6,0,6,0,1,
5deaddddc3aca1206ce3768b,TCR,2024-06-21_13h46.35.188,LearnStrategy,2023.2.3,Win32,14.99250375,4,2,8,,,,,,,,3,14,,,,,,,,,,,3,1.185,1,,,,,,0.093518519,-0.261111111,1,0,0,1.1855,Diorite_rect,7,0,7,0,1,
5deaddddc3aca1206ce3768b,TCR,2024-06-21_13h46.35.188,LearnStrategy,2023.2.3,Win32,14.99250375,4,2,9,,,,,,,,6,03,,,,,,,,,,,7,1.426,0,,,,,,0.110185185,-0.387037037,1,0,0,1.4261,Peridotite_rect,8,0,8,0,1,
5deaddddc3aca1206ce3768b,TCR,2024-06-21_13h46.35.188,LearnStrategy,2023.2.3,Win32,14.99250375,4,2,10,,,,,,,,3,12,,,,,,,,,,,4,2.478,0,,,,,,0.394444444,-0.231481481,1,0,0,2.4781,Gabbro_rect,9,0,9,0,1,
5deaddddc3aca1206ce3768b,TCR,2024-06-21_13h46.35.188,LearnStrategy,2023.2.3,Win32,14.99250375,4,2,11,,,,,,,,6,09,,,,,,,,,,,7,1.582,0,,,,,,0.10462963,-0.405555556,1,0,0,1.5819,Peridotite_rect,10,0,10,0,1,
5deaddddc3aca1206ce3768b,TCR,2024-06-21_13h46.35.188,LearnStrategy,2023.2.3,Win32,14.99250375,4,2,12,,,,,,,,1,04,,,,,,,,,,,1,4.632,1,,,,,,-0.417592593,-0.255555556,1,0,0,4.6322,Andesite_rect,11,0,11,0,1,
5deaddddc3aca1206ce3768b,TCR,2024-06-21_13h46.35.188,LearnStrategy,2023.2.3,Win32,14.99250375,4,2,13,,,,,,,,7,06,,,,,,,,,,,7,2.131,1,,,,,,0.091666667,-0.406481481,1,0,0,2.131,Peridotite_rect,12,0,12,0,1,
5deaddddc3aca1206ce3768b,TCR,2024-06-21_13h46.35.188,LearnStrategy,2023.2.3,Win32,14.99250375,4,2,14,,,,,,,,2,06,,,,,,,,,,,2,2.475,1,,,,,,-0.108333333,-0.239814815,1,0,0,2.4753,Basalt_rect,13,0,13,0,1,
5deaddddc3aca1206ce3768b,TCR,2024-06-21_13h46.35.188,LearnStrategy,2023.2.3,Win32,14.99250375,4,2,15,,,,,,,,4,10,,,,,,,,,,,1,4.236,0,,,,,,-0.369444444,-0.232407407,1,0,0,4.2357,Andesite_rect,14,0,14,0,1,
5deaddddc3aca1206ce3768b,TCR,2024-06-21_13h46.35.188,LearnStrategy,2023.2.3,Win32,14.99250375,4,2,16,,,,,,,,8,05,,,,,,,,,,,8,1.444,1,,,,,,0.40462963,-0.405555556,1,0,0,1.4441,Pumice_rect,15,0,15,0,1,
5deaddddc3aca1206ce3768b,TCR,2024-06-21_13h46.35.188,LearnStrategy,2023.2.3,Win32,14.99250375,5,1,1,-0.02962963,0.002777778,1,0,0,1.0439,rock_grid_rect_2,1,06,-1,-1,1.044,-0.100925926,-0.4,1,0,0,7.0021,Pegmatite_rect,6,7.002,0,0,0,0,0,1,,,,,,,,,,,,,
5deaddddc3aca1206ce3768b,TCR,2024-06-21_13h46.35.188,LearnStrategy,2023.2.3,Win32,14.99250375,5,1,2,-0.084259259,0,1,0,0,0.8097,rock_grid_rect_2,1,11,-1,-1,0.81,-0.384259259,-0.244444444,1,0,0,2.4588,Andesite_rect,1,2.459,1,1,0,1,0,1,,,,,,,,,,,,,
5deaddddc3aca1206ce3768b,TCR,2024-06-21_13h46.35.188,LearnStrategy,2023.2.3,Win32,14.99250375,5,1,3,-0.138888889,-0.014814815,1,0,0,0.9265,rock_grid_rect_2,4,13,-1,-1,0.926,0.425925926,-0.244444444,1,0,0,6.032,Gabbro_rect,4,6.032,1,2,0,2,0,1,,,,,,,,,,,,,
5deaddddc3aca1206ce3768b,TCR,2024-06-21_13h46.35.188,LearnStrategy,2023.2.3,Win32,14.99250375,5,1,4,0.005555556,-0.00462963,1,0,0,1.1132,rock_grid_rect_2,3,07,-1,-1,1.113,0.049074074,-0.247222222,1,0,0,2.1374,Diorite_rect,3,2.137,1,3,0,3,0,1,,,,,,,,,,,,,
5deaddddc3aca1206ce3768b,TCR,2024-06-21_13h46.35.188,LearnStrategy,2023.2.3,Win32,14.99250375,5,1,5,-0.008333333,-0.002777778,1,0,0,0.9134,rock_grid_rect_2,4,12,-1,-1,0.913,-0.108333333,-0.246296296,1,0,0,1.6595,Basalt_rect,2,1.659,0,4,0,4,0,1,,,,,,,,,,,,,
5deaddddc3aca1206ce3768b,TCR,2024-06-21_13h46.35.188,LearnStrategy,2023.2.3,Win32,14.99250375,5,1,6,-0.031481481,-0.024074074,1,0,0,0.6732,rock_grid_rect_2,2,11,-1,-1,0.673,0.348148148,-0.411111111,1,0,0,4.1385,Pumice_rect,8,4.139,0,5,0,5,0,1,,,,,,,,,,,,,
5deaddddc3aca1206ce3768b,TCR,2024-06-21_13h46.35.188,LearnStrategy,2023.2.3,Win32,14.99250375,5,1,7,-0.012962963,0,1,0,0,0.8514,rock_grid_rect_2,3,07,-1,-1,0.851,0.133333333,-0.233333333,1,0,0,1.0238,Diorite_rect,3,1.024,1,6,0,6,0,1,,,,,,,,,,,,,
5deaddddc3aca1206ce3768b,TCR,2024-06-21_13h46.35.188,LearnStrategy,2023.2.3,Win32,14.99250375,5,1,8,0.012037037,0,1,0,0,1.3934,rock_grid_rect_2,1,14,-1,-1,1.393,-0.433333333,-0.236111111,1,0,0,6.0988,Andesite_rect,1,6.099,1,7,0,7,0,1,,,,,,,,,,,,,
5deaddddc3aca1206ce3768b,TCR,2024-06-21_13h46.35.188,LearnStrategy,2023.2.3,Win32,14.99250375,5,1,9,-0.072222222,0.009259259,1,0,0,0.9489,rock_grid_rect_2,6,13,-1,-1,0.949,0.37962963,-0.240740741,1,0,0,5.8196,Gabbro_rect,4,5.82,0,8,0,8,0,1,,,,,,,,,,,,,
5deaddddc3aca1206ce3768b,TCR,2024-06-21_13h46.35.188,LearnStrategy,2023.2.3,Win32,14.99250375,5,1,10,-0.02037037,-0.000925926,1,0,0,0.9599,rock_grid_rect_2,6,05,-1,-1,0.96,0.087962963,-0.238888889,1,0,0,2.0349,Diorite_rect,3,2.035,0,9,0,9,0,1,,,,,,,,,,,,,
5deaddddc3aca1206ce3768b,TCR,2024-06-21_13h46.35.188,LearnStrategy,2023.2.3,Win32,14.99250375,5,1,11,-0.04537037,-0.016666667,1,0,0,0.9369,rock_grid_rect_2,6,11,-1,-1,0.937,-0.096296296,-0.391666667,1,0,0,1.3975,Pegmatite_rect,6,1.398,1,10,0,10,0,1,,,,,,,,,,,,,
5deaddddc3aca1206ce3768b,TCR,2024-06-21_13h46.35.188,LearnStrategy,2023.2.3,Win32,14.99250375,5,1,12,-0.067592593,-0.011111111,1,0,0,0.7251,rock_grid_rect_2,6,11,-1,-1,0.725,-0.077777778,-0.388888889,1,0,0,1.4867,Pegmatite_rect,6,1.487,1,11,0,11,0,1,,,,,,,,,,,,,
5deaddddc3aca1206ce3768b,TCR,2024-06-21_13h46.35.188,LearnStrategy,2023.2.3,Win32,14.99250375,5,1,13,-0.057407407,0.002777778,1,0,0,0.8502,rock_grid_rect_2,4,13,-1,-1,0.85,0.373148148,-0.247222222,1,0,0,2.3238,Gabbro_rect,4,2.324,1,12,0,12,0,1,,,,,,,,,,,,,
5deaddddc3aca1206ce3768b,TCR,2024-06-21_13h46.35.188,LearnStrategy,2023.2.3,Win32,14.99250375,5,1,14,0.044444444,-0.016666667,1,0,0,0.9214,rock_grid_rect_2,4,09,-1,-1,0.921,-0.375,-0.24537037,1,0,0,6.4653,Andesite_rect,1,6.465,0,13,0,13,0,1,,,,,,,,,,,,,
5deaddddc3aca1206ce3768b,TCR,2024-06-21_13h46.35.188,LearnStrategy,2023.2.3,Win32,14.99250375,5,1,15,-0.033333333,0.023148148,1,0,0,0.852,rock_grid_rect_2,3,02,-1,-1,0.852,0.144444444,-0.250925926,1,0,0,1.2505,Diorite_rect,3,1.25,1,14,0,14,0,1,,,,,,,,,,,,,
5deaddddc3aca1206ce3768b,TCR,2024-06-21_13h46.35.188,LearnStrategy,2023.2.3,Win32,14.99250375,5,1,16,0.015740741,-0.007407407,1,0,0,0.7014,rock_grid_rect_2,7,12,-1,-1,0.701,0.127777778,-0.407407407,1,0,0,2.3982,Peridotite_rect,7,2.398,1,15,0,15,0,1,,,,,,,,,,,,,
5deaddddc3aca1206ce3768b,TCR,2024-06-21_13h46.35.188,LearnStrategy,2023.2.3,Win32,14.99250375,5,2,1,,,,,,,,3,10,,,,,,,,,,,7,2.459,0,,,,,,0.137037037,-0.400925926,1,0,0,2.4593,Peridotite_rect,0,0,0,0,1,
5deaddddc3aca1206ce3768b,TCR,2024-06-21_13h46.35.188,LearnStrategy,2023.2.3,Win32,14.99250375,5,2,2,,,,,,,,4,14,,,,,,,,,,,4,6.327,1,,,,,,0.418518519,-0.230555556,1,0,0,6.3268,Gabbro_rect,1,0,1,0,1,
5deaddddc3aca1206ce3768b,TCR,2024-06-21_13h46.35.188,LearnStrategy,2023.2.3,Win32,14.99250375,5,2,3,,,,,,,,5,11,,,,,,,,,,,5,1.115,1,,,,,,-0.366666667,-0.394444444,1,0,0,1.115,Obsidian_rect,2,0,2,0,1,
5deaddddc3aca1206ce3768b,TCR,2024-06-21_13h46.35.188,LearnStrategy,2023.2.3,Win32,14.99250375,5,2,4,,,,,,,,2,04,,,,,,,,,,,2,1.517,1,,,,,,-0.15,-0.250925926,1,0,0,1.5171,Basalt_rect,3,0,3,0,1,
5deaddddc3aca1206ce3768b,TCR,2024-06-21_13h46.35.188,LearnStrategy,2023.2.3,Win32,14.99250375,5,2,5,,,,,,,,4,05,,,,,,,,,,,7,3.315,0,,,,,,0.10462963,-0.399074074,1,0,0,3.3146,Peridotite_rect,4,0,4,0,1,
5deaddddc3aca1206ce3768b,TCR,2024-06-21_13h46.35.188,LearnStrategy,2023.2.3,Win32,14.99250375,5,2,6,,,,,,,,8,04,,,,,,,,,,,8,1.347,1,,,,,,0.339814815,-0.390740741,1,0,0,1.3466,Pumice_rect,5,0,5,0,1,
5deaddddc3aca1206ce3768b,TCR,2024-06-21_13h46.35.188,LearnStrategy,2023.2.3,Win32,14.99250375,5,2,7,,,,,,,,2,05,,,,,,,,,,,2,2.077,1,,,,,,-0.097222222,-0.248148148,1,0,0,2.0766,Basalt_rect,6,0,6,0,1,
5deaddddc3aca1206ce3768b,TCR,2024-06-21_13h46.35.188,LearnStrategy,2023.2.3,Win32,14.99250375,5,2,8,,,,,,,,6,12,,,,,,,,,,,6,6.99,1,,,,,,-0.131481481,-0.406481481,1,0,0,6.9898,Pegmatite_rect,7,0,7,0,1,
5deaddddc3aca1206ce3768b,TCR,2024-06-21_13h46.35.188,LearnStrategy,2023.2.3,Win32,14.99250375,5,2,9,,,,,,,,6,16,,,,,,,,,,,6,1.018,1,,,,,,-0.125925926,-0.396296296,1,0,0,1.0184,Pegmatite_rect,8,0,8,0,1,
5deaddddc3aca1206ce3768b,TCR,2024-06-21_13h46.35.188,LearnStrategy,2023.2.3,Win32,14.99250375,5,2,10,,,,,,,,8,06,,,,,,,,,,,8,1.321,1,,,,,,0.42962963,-0.409259259,1,0,0,1.3209,Pumice_rect,9,0,9,0,1,
5deaddddc3aca1206ce3768b,TCR,2024-06-21_13h46.35.188,LearnStrategy,2023.2.3,Win32,14.99250375,5,2,11,,,,,,,,7,14,,,,,,,,,,,7,1.429,1,,,,,,0.131481481,-0.383333333,1,0,0,1.4287,Peridotite_rect,10,0,10,0,1,
5deaddddc3aca1206ce3768b,TCR,2024-06-21_13h46.35.188,LearnStrategy,2023.2.3,Win32,14.99250375,5,2,12,,,,,,,,7,02,,,,,,,,,,,7,1.134,1,,,,,,0.139814815,-0.405555556,1,0,0,1.1336,Peridotite_rect,11,0,11,0,1,
5deaddddc3aca1206ce3768b,TCR,2024-06-21_13h46.35.188,LearnStrategy,2023.2.3,Win32,14.99250375,5,2,13,,,,,,,,1,10,,,,,,,,,,,2,10.593,0,,,,,,-0.078703704,-0.244444444,1,0,0,10.5935,Basalt_rect,12,0,12,0,1,
5deaddddc3aca1206ce3768b,TCR,2024-06-21_13h46.35.188,LearnStrategy,2023.2.3,Win32,14.99250375,5,2,14,,,,,,,,1,02,,,,,,,,,,,4,3.23,0,,,,,,0.35462963,-0.25,1,0,0,3.2296,Gabbro_rect,13,0,13,0,1,
5deaddddc3aca1206ce3768b,TCR,2024-06-21_13h46.35.188,LearnStrategy,2023.2.3,Win32,14.99250375,5,2,15,,,,,,,,5,10,,,,,,,,,,,5,1.665,1,,,,,,-0.375,-0.394444444,1,0,0,1.6646,Obsidian_rect,14,0,14,0,1,
5deaddddc3aca1206ce3768b,TCR,2024-06-21_13h46.35.188,LearnStrategy,2023.2.3,Win32,14.99250375,5,2,16,,,,,,,,3,13,,,,,,,,,,,3,1.375,1,,,,,,0.12962963,-0.256481481,1,0,0,1.3749,Diorite_rect,15,0,15,0,1,
5deaddddc3aca1206ce3768b,TCR,2024-06-21_13h46.35.188,LearnStrategy,2023.2.3,Win32,14.99250375,6,1,1,-0.033333333,0.008333333,1,0,0,0.8384,rock_grid_rect_2,6,11,-1,-1,0.838,-0.121296296,-0.391666667,1,0,0,2.796,Pegmatite_rect,6,2.796,1,0,0,0,0,1,,,,,,,,,,,,,
5deaddddc3aca1206ce3768b,TCR,2024-06-21_13h46.35.188,LearnStrategy,2023.2.3,Win32,14.99250375,6,1,2,-0.042592593,-0.011111111,1,0,0,0.9547,rock_grid_rect_2,1,11,-1,-1,0.955,-0.338888889,-0.259259259,1,0,0,2.5827,Andesite_rect,1,2.583,1,1,0,1,0,1,,,,,,,,,,,,,
5deaddddc3aca1206ce3768b,TCR,2024-06-21_13h46.35.188,LearnStrategy,2023.2.3,Win32,14.99250375,6,1,3,-0.048148148,-0.018518519,1,0,0,0.8553,rock_grid_rect_2,6,13,-1,-1,0.855,0.4,-0.25,1,0,0,3.5444,Gabbro_rect,4,3.544,0,2,0,2,0,1,,,,,,,,,,,,,
5deaddddc3aca1206ce3768b,TCR,2024-06-21_13h46.35.188,LearnStrategy,2023.2.3,Win32,14.99250375,6,1,4,-0.025,-0.025,1,0,0,0.8254,rock_grid_rect_2,4,01,-1,-1,0.825,-0.341666667,-0.237962963,1,0,0,2.6218,Andesite_rect,1,2.622,0,3,0,3,0,1,,,,,,,,,,,,,
5deaddddc3aca1206ce3768b,TCR,2024-06-21_13h46.35.188,LearnStrategy,2023.2.3,Win32,14.99250375,6,1,5,0,-0.007407407,1,0,0,0.9249,rock_grid_rect_2,5,16,-1,-1,0.925,-0.372222222,-0.389814815,1,0,0,1.1128,Obsidian_rect,5,1.113,1,4,0,4,0,1,,,,,,,,,,,,,
5deaddddc3aca1206ce3768b,TCR,2024-06-21_13h46.35.188,LearnStrategy,2023.2.3,Win32,14.99250375,6,1,6,-0.024074074,0.00462963,1,0,0,1.4119,rock_grid_rect_2,3,06,-1,-1,1.412,0.106481481,-0.239814815,1,0,0,2.05,Diorite_rect,3,2.05,1,5,0,5,0,1,,,,,,,,,,,,,
5deaddddc3aca1206ce3768b,TCR,2024-06-21_13h46.35.188,LearnStrategy,2023.2.3,Win32,14.99250375,6,1,7,0.026851852,-0.015740741,1,0,0,0.923,rock_grid_rect_2,1,06,-1,-1,0.923,-0.356481481,-0.253703704,1,0,0,6.0691,Andesite_rect,1,6.069,1,6,0,6,0,1,,,,,,,,,,,,,
5deaddddc3aca1206ce3768b,TCR,2024-06-21_13h46.35.188,LearnStrategy,2023.2.3,Win32,14.99250375,6,1,8,-0.039814815,-0.012037037,1,0,0,0.7869,rock_grid_rect_2,7,12,-1,-1,0.787,0.144444444,-0.398148148,1,0,0,2.1789,Peridotite_rect,7,2.179,1,7,0,7,0,1,,,,,,,,,,,,,
5deaddddc3aca1206ce3768b,TCR,2024-06-21_13h46.35.188,LearnStrategy,2023.2.3,Win32,14.99250375,6,1,9,0.002777778,0.011111111,1,0,0,0.9195,rock_grid_rect_2,3,16,-1,-1,0.919,0.066666667,-0.237962963,1,0,0,4.294,Diorite_rect,3,4.294,1,8,0,8,0,1,,,,,,,,,,,,,
5deaddddc3aca1206ce3768b,TCR,2024-06-21_13h46.35.188,LearnStrategy,2023.2.3,Win32,14.99250375,6,1,10,-0.02037037,0.019444444,1,0,0,0.7025,rock_grid_rect_2,1,14,-1,-1,0.703,-0.087962963,-0.401851852,1,0,0,2.7819,Pegmatite_rect,6,2.782,0,9,0,9,0,1,,,,,,,,,,,,,
5deaddddc3aca1206ce3768b,TCR,2024-06-21_13h46.35.188,LearnStrategy,2023.2.3,Win32,14.99250375,6,1,11,-0.049074074,0.007407407,1,0,0,0.7822,rock_grid_rect_2,3,09,-1,-1,0.782,0.117592593,-0.253703704,1,0,0,1.4525,Diorite_rect,3,1.452,1,10,0,10,0,1,,,,,,,,,,,,,
5deaddddc3aca1206ce3768b,TCR,2024-06-21_13h46.35.188,LearnStrategy,2023.2.3,Win32,14.99250375,6,1,12,0.046296296,-0.007407407,1,0,0,1.5077,rock_grid_rect_2,1,03,-1,-1,1.508,-0.332407407,-0.25,1,0,0,4.808,Andesite_rect,1,4.808,1,11,0,11,0,1,,,,,,,,,,,,,
5deaddddc3aca1206ce3768b,TCR,2024-06-21_13h46.35.188,LearnStrategy,2023.2.3,Win32,14.99250375,6,1,13,-0.052777778,0.010185185,1,0,0,0.6068,rock_grid_rect_2,4,12,-1,-1,0.607,-0.144444444,-0.258333333,1,0,0,1.5042,Basalt_rect,2,1.504,0,12,0,12,0,1,,,,,,,,,,,,,
5deaddddc3aca1206ce3768b,TCR,2024-06-21_13h46.35.188,LearnStrategy,2023.2.3,Win32,14.99250375,6,1,14,-0.094444444,-0.017592593,1,0,0,1.0582,rock_grid_rect_2,4,09,-1,-1,1.058,-0.105555556,-0.388888889,1,0,0,4.3688,Pegmatite_rect,6,4.369,0,13,0,13,0,1,,,,,,,,,,,,,
5deaddddc3aca1206ce3768b,TCR,2024-06-21_13h46.35.188,LearnStrategy,2023.2.3,Win32,14.99250375,6,1,15,0.016666667,0.000925926,1,0,0,0.7315,rock_grid_rect_2,6,10,-1,-1,0.731,0.102777778,-0.408333333,1,0,0,1.3676,Peridotite_rect,7,1.368,0,14,0,14,0,1,,,,,,,,,,,,,
5deaddddc3aca1206ce3768b,TCR,2024-06-21_13h46.35.188,LearnStrategy,2023.2.3,Win32,14.99250375,6,1,16,-0.006481481,-0.005555556,1,0,0,1.6398,rock_grid_rect_2,2,16,-1,-1,1.64,-0.116666667,-0.237037037,1,0,0,1.2891,Basalt_rect,2,1.289,1,15,0,15,0,1,,,,,,,,,,,,,
5deaddddc3aca1206ce3768b,TCR,2024-06-21_13h46.35.188,LearnStrategy,2023.2.3,Win32,14.99250375,6,2,1,,,,,,,,1,09,,,,,,,,,,,1,4.336,1,,,,,,-0.411111111,-0.255555556,1,0,0,4.3356,Andesite_rect,0,0,0,0,1,
5deaddddc3aca1206ce3768b,TCR,2024-06-21_13h46.35.188,LearnStrategy,2023.2.3,Win32,14.99250375,6,2,2,,,,,,,,5,07,,,,,,,,,,,5,1.436,1,,,,,,-0.392592593,-0.405555556,1,0,0,1.4363,Obsidian_rect,1,0,1,0,1,
5deaddddc3aca1206ce3768b,TCR,2024-06-21_13h46.35.188,LearnStrategy,2023.2.3,Win32,14.99250375,6,2,3,,,,,,,,6,15,,,,,,,,,,,6,3.112,1,,,,,,-0.144444444,-0.412962963,1,0,0,3.1117,Pegmatite_rect,2,0,2,0,1,
5deaddddc3aca1206ce3768b,TCR,2024-06-21_13h46.35.188,LearnStrategy,2023.2.3,Win32,14.99250375,6,2,4,,,,,,,,7,15,,,,,,,,,,,7,1.141,1,,,,,,0.076851852,-0.397222222,1,0,0,1.1411,Peridotite_rect,3,0,3,0,1,
5deaddddc3aca1206ce3768b,TCR,2024-06-21_13h46.35.188,LearnStrategy,2023.2.3,Win32,14.99250375,6,2,5,,,,,,,,7,10,,,,,,,,,,,7,3.06,1,,,,,,0.091666667,-0.388888889,1,0,0,3.0604,Peridotite_rect,4,0,4,0,1,
5deaddddc3aca1206ce3768b,TCR,2024-06-21_13h46.35.188,LearnStrategy,2023.2.3,Win32,14.99250375,6,2,6,,,,,,,,4,11,,,,,,,,,,,1,2.137,0,,,,,,-0.356481481,-0.247222222,1,0,0,2.137,Andesite_rect,5,0,5,0,1,
5deaddddc3aca1206ce3768b,TCR,2024-06-21_13h46.35.188,LearnStrategy,2023.2.3,Win32,14.99250375,6,2,7,,,,,,,,6,07,,,,,,,,,,,6,4.177,1,,,,,,-0.12962963,-0.398148148,1,0,0,4.1766,Pegmatite_rect,6,0,6,0,1,
5deaddddc3aca1206ce3768b,TCR,2024-06-21_13h46.35.188,LearnStrategy,2023.2.3,Win32,14.99250375,6,2,8,,,,,,,,1,05,,,,,,,,,,,4,2.339,0,,,,,,0.327777778,-0.24537037,1,0,0,2.3393,Gabbro_rect,7,0,7,0,1,
5deaddddc3aca1206ce3768b,TCR,2024-06-21_13h46.35.188,LearnStrategy,2023.2.3,Win32,14.99250375,6,2,9,,,,,,,,2,01,,,,,,,,,,,2,1.321,1,,,,,,-0.139814815,-0.260185185,1,0,0,1.3212,Basalt_rect,8,0,8,0,1,
5deaddddc3aca1206ce3768b,TCR,2024-06-21_13h46.35.188,LearnStrategy,2023.2.3,Win32,14.99250375,6,2,10,,,,,,,,8,14,,,,,,,,,,,8,1.09,1,,,,,,0.380555556,-0.393518519,1,0,0,1.0898,Pumice_rect,9,0,9,0,1,
5deaddddc3aca1206ce3768b,TCR,2024-06-21_13h46.35.188,LearnStrategy,2023.2.3,Win32,14.99250375,6,2,11,,,,,,,,3,15,,,,,,,,,,,3,2.755,1,,,,,,0.077777778,-0.247222222,1,0,0,2.7554,Diorite_rect,10,0,10,0,1,
5deaddddc3aca1206ce3768b,TCR,2024-06-21_13h46.35.188,LearnStrategy,2023.2.3,Win32,14.99250375,6,2,12,,,,,,,,2,14,,,,,,,,,,,4,1.873,0,,,,,,0.376851852,-0.249074074,1,0,0,1.8726,Gabbro_rect,11,0,11,0,1,
5deaddddc3aca1206ce3768b,TCR,2024-06-21_13h46.35.188,LearnStrategy,2023.2.3,Win32,14.99250375,6,2,13,,,,,,,,4,16,,,,,,,,,,,2,3.155,0,,,,,,-0.087962963,-0.262037037,1,0,0,3.1548,Basalt_rect,12,0,12,0,1,
5deaddddc3aca1206ce3768b,TCR,2024-06-21_13h46.35.188,LearnStrategy,2023.2.3,Win32,14.99250375,6,2,14,,,,,,,,5,12,,,,,,,,,,,5,1.118,1,,,,,,-0.37962963,-0.383333333,1,0,0,1.1175,Obsidian_rect,13,0,13,0,1,
5deaddddc3aca1206ce3768b,TCR,2024-06-21_13h46.35.188,LearnStrategy,2023.2.3,Win32,14.99250375,6,2,15,,,,,,,,3,11,,,,,,,,,,,3,1.328,1,,,,,,0.133333333,-0.237962963,1,0,0,1.3284,Diorite_rect,14,0,14,0,1,
5deaddddc3aca1206ce3768b,TCR,2024-06-21_13h46.35.188,LearnStrategy,2023.2.3,Win32,14.99250375,6,2,16,,,,,,,,8,09,,,,,,,,,,,8,1.603,1,,,,,,0.381481481,-0.405555556,1,0,0,1.6031,Pumice_rect,15,0,15,0,1,
5deaddddc3aca1206ce3768b,TCR,2024-06-21_13h46.35.188,LearnStrategy,2023.2.3,Win32,14.99250375,7,1,1,-0.058333333,-0.008333333,1,0,0,1.0302,rock_grid_rect_2,1,16,-1,-1,1.03,0.118518519,-0.236111111,1,0,0,1.4445,Diorite_rect,3,1.445,0,0,0,0,0,1,,,,,,,,,,,,,
5deaddddc3aca1206ce3768b,TCR,2024-06-21_13h46.35.188,LearnStrategy,2023.2.3,Win32,14.99250375,7,1,2,-0.00462963,0.003703704,1,0,0,0.6947,rock_grid_rect_2,4,09,-1,-1,0.695,0.302777778,-0.230555556,1,0,0,2.9348,Gabbro_rect,4,2.935,1,1,0,1,0,1,,,,,,,,,,,,,
5deaddddc3aca1206ce3768b,TCR,2024-06-21_13h46.35.188,LearnStrategy,2023.2.3,Win32,14.99250375,7,1,3,0.012962963,0.007407407,1,0,0,0.9795,rock_grid_rect_2,1,06,-1,-1,0.979,0.068518519,-0.262037037,1,0,0,1.446,Diorite_rect,3,1.446,0,2,0,2,0,1,,,,,,,,,,,,,
5deaddddc3aca1206ce3768b,TCR,2024-06-21_13h46.35.188,LearnStrategy,2023.2.3,Win32,14.99250375,7,1,4,0.026851852,-0.009259259,1,0,0,0.6188,rock_grid_rect_2,2,08,-1,-1,0.619,-0.110185185,-0.236111111,1,0,0,1.4951,Basalt_rect,2,1.495,1,3,0,3,0,1,,,,,,,,,,,,,
5deaddddc3aca1206ce3768b,TCR,2024-06-21_13h46.35.188,LearnStrategy,2023.2.3,Win32,14.99250375,7,1,5,-0.015740741,-0.001851852,1,0,0,0.8875,rock_grid_rect_2,4,15,-1,-1,0.888,0.380555556,-0.258333333,1,0,0,3.5296,Gabbro_rect,4,3.53,1,4,0,4,0,1,,,,,,,,,,,,,
5deaddddc3aca1206ce3768b,TCR,2024-06-21_13h46.35.188,LearnStrategy,2023.2.3,Win32,14.99250375,7,1,6,0.043518519,-0.024074074,1,0,0,0.7927,rock_grid_rect_2,6,13,-1,-1,0.793,-0.142592593,-0.410185185,1,0,0,1.3978,Pegmatite_rect,6,1.398,1,5,0,5,0,1,,,,,,,,,,,,,
5deaddddc3aca1206ce3768b,TCR,2024-06-21_13h46.35.188,LearnStrategy,2023.2.3,Win32,14.99250375,7,1,7,-0.037037037,-0.010185185,1,0,0,1.0192,rock_grid_rect_2,4,08,-1,-1,1.019,-0.371296296,-0.231481481,1,0,0,4.1,Andesite_rect,1,4.1,0,6,0,6,0,1,,,,,,,,,,,,,
5deaddddc3aca1206ce3768b,TCR,2024-06-21_13h46.35.188,LearnStrategy,2023.2.3,Win32,14.99250375,7,1,8,0.013888889,-0.003703704,1,0,0,0.6655,rock_grid_rect_2,1,14,-1,-1,0.666,-0.133333333,-0.392592593,1,0,0,3.0316,Pegmatite_rect,6,3.032,0,7,0,7,0,1,,,,,,,,,,,,,
5deaddddc3aca1206ce3768b,TCR,2024-06-21_13h46.35.188,LearnStrategy,2023.2.3,Win32,14.99250375,7,1,9,-0.126851852,0.012962963,1,0,0,0.7495,rock_grid_rect_2,7,16,-1,-1,0.75,0.12037037,-0.398148148,1,0,0,7.2757,Peridotite_rect,7,7.276,1,8,0,8,0,1,,,,,,,,,,,,,
5deaddddc3aca1206ce3768b,TCR,2024-06-21_13h46.35.188,LearnStrategy,2023.2.3,Win32,14.99250375,7,1,10,0.02962963,-0.001851852,1,0,0,0.7075,rock_grid_rect_2,4,01,-1,-1,0.708,0.434259259,-0.240740741,1,0,0,4.272,Gabbro_rect,4,4.272,1,9,0,9,0,1,,,,,,,,,,,,,
5deaddddc3aca1206ce3768b,TCR,2024-06-21_13h46.35.188,LearnStrategy,2023.2.3,Win32,14.99250375,7,1,11,0.051851852,-0.008333333,1,0,0,1.601,rock_grid_rect_2,2,10,-1,-1,1.601,-0.110185185,-0.234259259,1,0,0,1.3257,Basalt_rect,2,1.326,1,10,0,10,0,1,,,,,,,,,,,,,
5deaddddc3aca1206ce3768b,TCR,2024-06-21_13h46.35.188,LearnStrategy,2023.2.3,Win32,14.99250375,7,1,12,-0.048148148,-0.009259259,1,0,0,0.9299,rock_grid_rect_2,3,07,-1,-1,0.93,0.110185185,-0.246296296,1,0,0,1.4261,Diorite_rect,3,1.426,1,11,0,11,0,1,,,,,,,,,,,,,
5deaddddc3aca1206ce3768b,TCR,2024-06-21_13h46.35.188,LearnStrategy,2023.2.3,Win32,14.99250375,7,1,13,0.011111111,0.007407407,1,0,0,0.5662,rock_grid_rect_2,8,13,-1,-1,0.566,0.361111111,-0.397222222,1,0,0,2.1749,Pumice_rect,8,2.175,1,12,0,12,0,1,,,,,,,,,,,,,
5deaddddc3aca1206ce3768b,TCR,2024-06-21_13h46.35.188,LearnStrategy,2023.2.3,Win32,14.99250375,7,1,14,0.083333333,0.003703704,1,0,0,0.8742,rock_grid_rect_2,3,06,-1,-1,0.874,0.125925926,-0.25,1,0,0,1.225,Diorite_rect,3,1.225,1,13,0,13,0,1,,,,,,,,,,,,,
5deaddddc3aca1206ce3768b,TCR,2024-06-21_13h46.35.188,LearnStrategy,2023.2.3,Win32,14.99250375,7,1,15,0.064814815,-0.001851852,1,0,0,0.6004,rock_grid_rect_2,1,14,-1,-1,0.6,-0.409259259,-0.237962963,1,0,0,4.8138,Andesite_rect,1,4.814,1,14,0,14,0,1,,,,,,,,,,,,,
5deaddddc3aca1206ce3768b,TCR,2024-06-21_13h46.35.188,LearnStrategy,2023.2.3,Win32,14.99250375,7,1,16,-0.033333333,0.005555556,1,0,0,1.4639,rock_grid_rect_2,6,13,-1,-1,1.464,-0.130555556,-0.400925926,1,0,0,3.6615,Pegmatite_rect,6,3.661,1,15,0,15,0,1,,,,,,,,,,,,,
5deaddddc3aca1206ce3768b,TCR,2024-06-21_13h46.35.188,LearnStrategy,2023.2.3,Win32,14.99250375,7,2,1,,,,,,,,6,12,,,,,,,,,,,6,5.539,1,,,,,,-0.101851852,-0.402777778,1,0,0,5.5388,Pegmatite_rect,0,0,0,0,1,
5deaddddc3aca1206ce3768b,TCR,2024-06-21_13h46.35.188,LearnStrategy,2023.2.3,Win32,14.99250375,7,2,2,,,,,,,,2,04,,,,,,,,,,,2,1.564,1,,,,,,-0.146296296,-0.258333333,1,0,0,1.5642,Basalt_rect,1,0,1,0,1,
5deaddddc3aca1206ce3768b,TCR,2024-06-21_13h46.35.188,LearnStrategy,2023.2.3,Win32,14.99250375,7,2,3,,,,,,,,5,09,,,,,,,,,,,5,1.417,1,,,,,,-0.407407407,-0.407407407,1,0,0,1.4169,Obsidian_rect,2,0,2,0,1,
5deaddddc3aca1206ce3768b,TCR,2024-06-21_13h46.35.188,LearnStrategy,2023.2.3,Win32,14.99250375,7,2,4,,,,,,,,1,04,,,,,,,,,,,4,3.365,0,,,,,,0.351851852,-0.262962963,1,0,0,3.3652,Gabbro_rect,3,0,3,0,1,
5deaddddc3aca1206ce3768b,TCR,2024-06-21_13h46.35.188,LearnStrategy,2023.2.3,Win32,14.99250375,7,2,5,,,,,,,,6,16,,,,,,,,,,,6,3.737,1,,,,,,-0.133333333,-0.386111111,1,0,0,3.7366,Pegmatite_rect,4,0,4,0,1,
5deaddddc3aca1206ce3768b,TCR,2024-06-21_13h46.35.188,LearnStrategy,2023.2.3,Win32,14.99250375,7,2,6,,,,,,,,8,09,,,,,,,,,,,8,1.78,1,,,,,,0.431481481,-0.405555556,1,0,0,1.7804,Pumice_rect,5,0,5,0,1,
5deaddddc3aca1206ce3768b,TCR,2024-06-21_13h46.35.188,LearnStrategy,2023.2.3,Win32,14.99250375,7,2,7,,,,,,,,4,05,,,,,,,,,,,7,5.662,0,,,,,,0.121296296,-0.412037037,1,0,0,5.6617,Peridotite_rect,6,0,6,0,1,
5deaddddc3aca1206ce3768b,TCR,2024-06-21_13h46.35.188,LearnStrategy,2023.2.3,Win32,14.99250375,7,2,8,,,,,,,,8,04,,,,,,,,,,,8,1.48,1,,,,,,0.403703704,-0.399074074,1,0,0,1.48,Pumice_rect,7,0,7,0,1,
5deaddddc3aca1206ce3768b,TCR,2024-06-21_13h46.35.188,LearnStrategy,2023.2.3,Win32,14.99250375,7,2,9,,,,,,,,4,03,,,,,,,,,,,3,2.647,0,,,,,,0.136111111,-0.25462963,1,0,0,2.6471,Diorite_rect,8,0,8,0,1,
5deaddddc3aca1206ce3768b,TCR,2024-06-21_13h46.35.188,LearnStrategy,2023.2.3,Win32,14.99250375,7,2,10,,,,,,,,2,06,,,,,,,,,,,2,2.577,1,,,,,,-0.165740741,-0.237037037,1,0,0,2.5775,Basalt_rect,9,0,9,0,1,
5deaddddc3aca1206ce3768b,TCR,2024-06-21_13h46.35.188,LearnStrategy,2023.2.3,Win32,14.99250375,7,2,11,,,,,,,,5,10,,,,,,,,,,,5,1.377,1,,,,,,-0.394444444,-0.397222222,1,0,0,1.3769,Obsidian_rect,10,0,10,0,1,
5deaddddc3aca1206ce3768b,TCR,2024-06-21_13h46.35.188,LearnStrategy,2023.2.3,Win32,14.99250375,7,2,12,,,,,,,,3,12,,,,,,,,,,,3,2.764,1,,,,,,0.098148148,-0.239814815,1,0,0,2.7636,Diorite_rect,11,0,11,0,1,
5deaddddc3aca1206ce3768b,TCR,2024-06-21_13h46.35.188,LearnStrategy,2023.2.3,Win32,14.99250375,7,2,13,,,,,,,,1,02,,,,,,,,,,,1,2.608,1,,,,,,-0.407407407,-0.255555556,1,0,0,2.6084,Andesite_rect,12,0,12,0,1,
5deaddddc3aca1206ce3768b,TCR,2024-06-21_13h46.35.188,LearnStrategy,2023.2.3,Win32,14.99250375,7,2,14,,,,,,,,7,02,,,,,,,,,,,7,1.449,1,,,,,,0.10462963,-0.383333333,1,0,0,1.4491,Peridotite_rect,13,0,13,0,1,
5deaddddc3aca1206ce3768b,TCR,2024-06-21_13h46.35.188,LearnStrategy,2023.2.3,Win32,14.99250375,7,2,15,,,,,,,,3,11,,,,,,,,,,,3,2.835,1,,,,,,0.099074074,-0.253703704,1,0,0,2.8351,Diorite_rect,14,0,14,0,1,
5deaddddc3aca1206ce3768b,TCR,2024-06-21_13h46.35.188,LearnStrategy,2023.2.3,Win32,14.99250375,7,2,16,,,,,,,,7,10,,,,,,,,,,,7,1.638,1,,,,,,0.107407407,-0.398148148,1,0,0,1.6377,Peridotite_rect,15,0,15,0,1,
5deaddddc3aca1206ce3768b,TCR,2024-06-21_13h46.35.188,LearnStrategy,2023.2.3,Win32,14.99250375,8,1,1,-0.002777778,0.014814815,1,0,0,4.2129,rock_grid_rect_2,4,15,-1,-1,4.213,0.373148148,-0.243518519,1,0,0,3.786,Gabbro_rect,4,3.786,1,0,0,0,0,1,,,,,,,,,,,,,
5deaddddc3aca1206ce3768b,TCR,2024-06-21_13h46.35.188,LearnStrategy,2023.2.3,Win32,14.99250375,8,1,2,0.021296296,-0.02037037,1,0,0,0.7428,rock_grid_rect_2,1,01,-1,-1,0.743,-0.414814815,-0.251851852,1,0,0,2.5146,Andesite_rect,1,2.515,1,1,0,1,0,1,,,,,,,,,,,,,
5deaddddc3aca1206ce3768b,TCR,2024-06-21_13h46.35.188,LearnStrategy,2023.2.3,Win32,14.99250375,8,1,3,-0.012962963,-0.00462963,1,0,0,0.7598,rock_grid_rect_2,6,10,-1,-1,0.76,-0.12037037,-0.412037037,1,0,0,2.2742,Pegmatite_rect,6,2.274,1,2,0,2,0,1,,,,,,,,,,,,,
5deaddddc3aca1206ce3768b,TCR,2024-06-21_13h46.35.188,LearnStrategy,2023.2.3,Win32,14.99250375,8,1,4,0.001851852,0.005555556,1,0,0,1.1052,rock_grid_rect_2,4,15,-1,-1,1.105,0.387037037,-0.236111111,1,0,0,4.0524,Gabbro_rect,4,4.052,1,3,0,3,0,1,,,,,,,,,,,,,
5deaddddc3aca1206ce3768b,TCR,2024-06-21_13h46.35.188,LearnStrategy,2023.2.3,Win32,14.99250375,8,1,5,0.048148148,0.018518519,1,0,0,1.1252,rock_grid_rect_2,8,10,-1,-1,1.125,0.35462963,-0.401851852,1,0,0,2.5347,Pumice_rect,8,2.535,1,4,0,4,0,1,,,,,,,,,,,,,
5deaddddc3aca1206ce3768b,TCR,2024-06-21_13h46.35.188,LearnStrategy,2023.2.3,Win32,14.99250375,8,1,6,0.040740741,-0.007407407,1,0,0,0.8035,rock_grid_rect_2,1,16,-1,-1,0.804,-0.373148148,-0.24537037,1,0,0,2.6247,Andesite_rect,1,2.625,1,5,0,5,0,1,,,,,,,,,,,,,
5deaddddc3aca1206ce3768b,TCR,2024-06-21_13h46.35.188,LearnStrategy,2023.2.3,Win32,14.99250375,8,1,7,-0.060185185,0.002777778,1,0,0,0.6432,rock_grid_rect_2,1,06,-1,-1,0.643,-0.367592593,-0.239814815,1,0,0,1.2818,Andesite_rect,1,1.282,1,6,0,6,0,1,,,,,,,,,,,,,
5deaddddc3aca1206ce3768b,TCR,2024-06-21_13h46.35.188,LearnStrategy,2023.2.3,Win32,14.99250375,8,1,8,0.022222222,0.007407407,1,0,0,0.8495,rock_grid_rect_2,1,16,-1,-1,0.85,0.121296296,-0.249074074,1,0,0,3.3887,Diorite_rect,3,3.389,0,7,0,7,0,1,,,,,,,,,,,,,
5deaddddc3aca1206ce3768b,TCR,2024-06-21_13h46.35.188,LearnStrategy,2023.2.3,Win32,14.99250375,8,1,9,0.028703704,0.000925926,1,0,0,2.125,rock_grid_rect_2,2,11,-1,-1,2.125,0.361111111,-0.418518519,1,0,0,3.3842,Pumice_rect,8,3.384,0,8,0,8,0,1,,,,,,,,,,,,,
5deaddddc3aca1206ce3768b,TCR,2024-06-21_13h46.35.188,LearnStrategy,2023.2.3,Win32,14.99250375,8,1,10,-0.019444444,-0.013888889,1,0,0,0.9385,rock_grid_rect_2,7,04,-1,-1,0.939,0.116666667,-0.410185185,1,0,0,1.9145,Peridotite_rect,7,1.915,1,9,0,9,0,1,,,,,,,,,,,,,
5deaddddc3aca1206ce3768b,TCR,2024-06-21_13h46.35.188,LearnStrategy,2023.2.3,Win32,14.99250375,8,1,11,0.024074074,-0.012962963,1,0,0,0.851,rock_grid_rect_2,3,08,-1,-1,0.851,0.117592593,-0.252777778,1,0,0,1.1207,Diorite_rect,3,1.121,1,10,0,10,0,1,,,,,,,,,,,,,
5deaddddc3aca1206ce3768b,TCR,2024-06-21_13h46.35.188,LearnStrategy,2023.2.3,Win32,14.99250375,8,1,12,-0.035185185,-0.013888889,1,0,0,1.1727,rock_grid_rect_2,5,16,-1,-1,1.173,-0.362962963,-0.414814815,1,0,0,1.1847,Obsidian_rect,5,1.185,1,11,0,11,0,1,,,,,,,,,,,,,
5deaddddc3aca1206ce3768b,TCR,2024-06-21_13h46.35.188,LearnStrategy,2023.2.3,Win32,14.99250375,8,1,13,-0.05462963,0.009259259,1,0,0,0.942,rock_grid_rect_2,4,09,-1,-1,0.942,0.335185185,-0.237037037,1,0,0,7.3121,Gabbro_rect,4,7.312,1,12,0,12,0,1,,,,,,,,,,,,,
5deaddddc3aca1206ce3768b,TCR,2024-06-21_13h46.35.188,LearnStrategy,2023.2.3,Win32,14.99250375,8,1,14,-0.041666667,0.007407407,1,0,0,0.6951,rock_grid_rect_2,4,13,-1,-1,0.695,0.346296296,-0.239814815,1,0,0,1.4915,Gabbro_rect,4,1.491,1,13,0,13,0,1,,,,,,,,,,,,,
5deaddddc3aca1206ce3768b,TCR,2024-06-21_13h46.35.188,LearnStrategy,2023.2.3,Win32,14.99250375,8,1,15,0.019444444,0,1,0,0,0.8982,rock_grid_rect_2,3,06,-1,-1,0.898,0.082407407,-0.235185185,1,0,0,1.0055,Diorite_rect,3,1.005,1,14,0,14,0,1,,,,,,,,,,,,,
5deaddddc3aca1206ce3768b,TCR,2024-06-21_13h46.35.188,LearnStrategy,2023.2.3,Win32,14.99250375,8,1,16,0.014814815,-0.000925926,1,0,0,0.9091,rock_grid_rect_2,4,08,-1,-1,0.909,0.351851852,-0.242592593,1,0,0,7.8163,Gabbro_rect,4,7.816,1,15,0,15,0,1,,,,,,,,,,,,,
5deaddddc3aca1206ce3768b,TCR,2024-06-21_13h46.35.188,LearnStrategy,2023.2.3,Win32,14.99250375,8,2,1,,,,,,,,6,15,,,,,,,,,,,6,2.104,1,,,,,,-0.165740741,-0.406481481,1,0,0,2.1043,Pegmatite_rect,0,0,0,0,1,
5deaddddc3aca1206ce3768b,TCR,2024-06-21_13h46.35.188,LearnStrategy,2023.2.3,Win32,14.99250375,8,2,2,,,,,,,,3,14,,,,,,,,,,,3,1.035,1,,,,,,0.130555556,-0.24537037,1,0,0,1.0352,Diorite_rect,1,0,1,0,1,
5deaddddc3aca1206ce3768b,TCR,2024-06-21_13h46.35.188,LearnStrategy,2023.2.3,Win32,14.99250375,8,2,3,,,,,,,,5,06,,,,,,,,,,,5,1.199,1,,,,,,-0.408333333,-0.411111111,1,0,0,1.1988,Obsidian_rect,2,0,2,0,1,
5deaddddc3aca1206ce3768b,TCR,2024-06-21_13h46.35.188,LearnStrategy,2023.2.3,Win32,14.99250375,8,2,4,,,,,,,,7,14,,,,,,,,,,,7,3.93,1,,,,,,0.10462963,-0.399074074,1,0,0,3.9303,Peridotite_rect,3,0,3,0,1,
5deaddddc3aca1206ce3768b,TCR,2024-06-21_13h46.35.188,LearnStrategy,2023.2.3,Win32,14.99250375,8,2,5,,,,,,,,8,15,,,,,,,,,,,8,2.105,1,,,,,,0.375925926,-0.39537037,1,0,0,2.1047,Pumice_rect,4,0,4,0,1,
5deaddddc3aca1206ce3768b,TCR,2024-06-21_13h46.35.188,LearnStrategy,2023.2.3,Win32,14.99250375,8,2,6,,,,,,,,2,01,,,,,,,,,,,2,1.23,1,,,,,,-0.140740741,-0.248148148,1,0,0,1.2298,Basalt_rect,5,0,5,0,1,
5deaddddc3aca1206ce3768b,TCR,2024-06-21_13h46.35.188,LearnStrategy,2023.2.3,Win32,14.99250375,8,2,7,,,,,,,,6,09,,,,,,,,,,,6,3.376,1,,,,,,-0.130555556,-0.403703704,1,0,0,3.3762,Pegmatite_rect,6,0,6,0,1,
5deaddddc3aca1206ce3768b,TCR,2024-06-21_13h46.35.188,LearnStrategy,2023.2.3,Win32,14.99250375,8,2,8,,,,,,,,4,10,,,,,,,,,,,4,3.619,1,,,,,,0.415740741,-0.240740741,1,0,0,3.6191,Gabbro_rect,7,0,7,0,1,
5deaddddc3aca1206ce3768b,TCR,2024-06-21_13h46.35.188,LearnStrategy,2023.2.3,Win32,14.99250375,8,2,9,,,,,,,,7,06,,,,,,,,,,,7,6.733,1,,,,,,0.10462963,-0.382407407,1,0,0,6.7329,Peridotite_rect,8,0,8,0,1,
5deaddddc3aca1206ce3768b,TCR,2024-06-21_13h46.35.188,LearnStrategy,2023.2.3,Win32,14.99250375,8,2,10,,,,,,,,1,07,,,,,,,,,,,3,1.275,0,,,,,,0.053703704,-0.262037037,1,0,0,1.2752,Diorite_rect,9,0,9,0,1,
5deaddddc3aca1206ce3768b,TCR,2024-06-21_13h46.35.188,LearnStrategy,2023.2.3,Win32,14.99250375,8,2,11,,,,,,,,4,16,,,,,,,,,,,4,5.617,1,,,,,,0.430555556,-0.25462963,1,0,0,5.6171,Gabbro_rect,10,0,10,0,1,
5deaddddc3aca1206ce3768b,TCR,2024-06-21_13h46.35.188,LearnStrategy,2023.2.3,Win32,14.99250375,8,2,12,,,,,,,,3,10,,,,,,,,,,,3,3.007,1,,,,,,0.135185185,-0.240740741,1,0,0,3.0071,Diorite_rect,11,0,11,0,1,
5deaddddc3aca1206ce3768b,TCR,2024-06-21_13h46.35.188,LearnStrategy,2023.2.3,Win32,14.99250375,8,2,13,,,,,,,,2,02,,,,,,,,,,,2,1.472,1,,,,,,-0.096296296,-0.239814815,1,0,0,1.4724,Basalt_rect,12,0,12,0,1,
5deaddddc3aca1206ce3768b,TCR,2024-06-21_13h46.35.188,LearnStrategy,2023.2.3,Win32,14.99250375,8,2,14,,,,,,,,8,14,,,,,,,,,,,8,1.226,1,,,,,,0.456481481,-0.408333333,1,0,0,1.2257,Pumice_rect,13,0,13,0,1,
5deaddddc3aca1206ce3768b,TCR,2024-06-21_13h46.35.188,LearnStrategy,2023.2.3,Win32,14.99250375,8,2,15,,,,,,,,5,11,,,,,,,,,,,5,1.196,1,,,,,,-0.384259259,-0.392592593,1,0,0,1.1963,Obsidian_rect,14,0,14,0,1,
5deaddddc3aca1206ce3768b,TCR,2024-06-21_13h46.35.188,LearnStrategy,2023.2.3,Win32,14.99250375,8,2,16,,,,,,,,1,10,,,,,,,,,,,1,2.036,1,,,,,,-0.368518519,-0.238888889,1,0,0,2.0357,Andesite_rect,15,0,15,0,1,
5deaddddc3aca1206ce3768b,TCR,2024-06-21_13h46.35.188,LearnStrategy,2023.2.3,Win32,14.99250375,9,1,1,-0.019444444,0.018518519,1,0,0,0.7623,rock_grid_rect_2,2,11,-1,-1,0.762,-0.063888889,-0.234259259,1,0,0,3.2455,Basalt_rect,2,3.245,1,0,0,0,0,1,,,,,,,,,,,,,
5deaddddc3aca1206ce3768b,TCR,2024-06-21_13h46.35.188,LearnStrategy,2023.2.3,Win32,14.99250375,9,1,2,-0.013888889,-0.006481481,1,0,0,0.9415,rock_grid_rect_2,7,16,-1,-1,0.942,0.156481481,-0.384259259,1,0,0,1.779,Peridotite_rect,7,1.779,1,1,0,1,0,1,,,,,,,,,,,,,
5deaddddc3aca1206ce3768b,TCR,2024-06-21_13h46.35.188,LearnStrategy,2023.2.3,Win32,14.99250375,9,1,3,0.082407407,0.005555556,1,0,0,1.51,rock_grid_rect_2,8,10,-1,-1,1.51,0.351851852,-0.411111111,1,0,0,2.3831,Pumice_rect,8,2.383,1,2,0,2,0,1,,,,,,,,,,,,,
5deaddddc3aca1206ce3768b,TCR,2024-06-21_13h46.35.188,LearnStrategy,2023.2.3,Win32,14.99250375,9,1,4,0.040740741,-0.012962963,1,0,0,0.6659,rock_grid_rect_2,1,06,-1,-1,0.666,-0.338888889,-0.235185185,1,0,0,1.8556,Andesite_rect,1,1.856,1,3,0,3,0,1,,,,,,,,,,,,,
5deaddddc3aca1206ce3768b,TCR,2024-06-21_13h46.35.188,LearnStrategy,2023.2.3,Win32,14.99250375,9,1,5,-0.012962963,0.02037037,1,0,0,0.6439,rock_grid_rect_2,1,16,-1,-1,0.644,0.128703704,-0.236111111,1,0,0,1.8529,Diorite_rect,3,1.853,0,4,0,4,0,1,,,,,,,,,,,,,
5deaddddc3aca1206ce3768b,TCR,2024-06-21_13h46.35.188,LearnStrategy,2023.2.3,Win32,14.99250375,9,1,6,0.011111111,0.005555556,1,0,0,0.945,rock_grid_rect_2,1,03,-1,-1,0.945,-0.433333333,-0.249074074,1,0,0,4.8845,Andesite_rect,1,4.885,1,5,0,5,0,1,,,,,,,,,,,,,
5deaddddc3aca1206ce3768b,TCR,2024-06-21_13h46.35.188,LearnStrategy,2023.2.3,Win32,14.99250375,9,1,7,-0.031481481,-0.013888889,1,0,0,0.6243,rock_grid_rect_2,6,06,-1,-1,0.624,-0.075,-0.410185185,1,0,0,4.1615,Pegmatite_rect,6,4.161,1,6,0,6,0,1,,,,,,,,,,,,,
5deaddddc3aca1206ce3768b,TCR,2024-06-21_13h46.35.188,LearnStrategy,2023.2.3,Win32,14.99250375,9,1,8,-0.021296296,0.013888889,1,0,0,0.9229,rock_grid_rect_2,6,10,-1,-1,0.923,-0.111111111,-0.411111111,1,0,0,1.3395,Pegmatite_rect,6,1.34,1,7,0,7,0,1,,,,,,,,,,,,,
5deaddddc3aca1206ce3768b,TCR,2024-06-21_13h46.35.188,LearnStrategy,2023.2.3,Win32,14.99250375,9,1,9,-0.002777778,0.001851852,1,0,0,0.643,rock_grid_rect_2,4,12,-1,-1,0.643,-0.132407407,-0.247222222,1,0,0,3.328,Basalt_rect,2,3.328,0,8,0,8,0,1,,,,,,,,,,,,,
5deaddddc3aca1206ce3768b,TCR,2024-06-21_13h46.35.188,LearnStrategy,2023.2.3,Win32,14.99250375,9,1,10,-0.00462963,-0.001851852,1,0,0,0.611,rock_grid_rect_2,4,13,-1,-1,0.611,0.350925926,-0.239814815,1,0,0,1.3285,Gabbro_rect,4,1.329,1,9,0,9,0,1,,,,,,,,,,,,,
5deaddddc3aca1206ce3768b,TCR,2024-06-21_13h46.35.188,LearnStrategy,2023.2.3,Win32,14.99250375,9,1,11,0.05462963,0.007407407,1,0,0,0.7124,rock_grid_rect_2,1,06,-1,-1,0.712,-0.359259259,-0.232407407,1,0,0,1.3569,Andesite_rect,1,1.357,1,10,0,10,0,1,,,,,,,,,,,,,
5deaddddc3aca1206ce3768b,TCR,2024-06-21_13h46.35.188,LearnStrategy,2023.2.3,Win32,14.99250375,9,1,12,-0.037037037,0.000925926,1,0,0,0.8909,rock_grid_rect_2,4,01,-1,-1,0.891,0.339814815,-0.257407407,1,0,0,3.2483,Gabbro_rect,4,3.248,1,11,0,11,0,1,,,,,,,,,,,,,
5deaddddc3aca1206ce3768b,TCR,2024-06-21_13h46.35.188,LearnStrategy,2023.2.3,Win32,14.99250375,9,1,13,-0.024074074,-0.019444444,1,0,0,0.6358,rock_grid_rect_2,3,02,-1,-1,0.636,0.1,-0.247222222,1,0,0,2.472,Diorite_rect,3,2.472,1,12,0,12,0,1,,,,,,,,,,,,,
5deaddddc3aca1206ce3768b,TCR,2024-06-21_13h46.35.188,LearnStrategy,2023.2.3,Win32,14.99250375,9,1,14,-0.018518519,-0.008333333,1,0,0,0.8974,rock_grid_rect_2,3,02,-1,-1,0.897,0.087037037,-0.244444444,1,0,0,1.0886,Diorite_rect,3,1.089,1,13,0,13,0,1,,,,,,,,,,,,,
5deaddddc3aca1206ce3768b,TCR,2024-06-21_13h46.35.188,LearnStrategy,2023.2.3,Win32,14.99250375,9,1,15,0.012962963,0.00462963,1,0,0,0.8693,rock_grid_rect_2,5,04,-1,-1,0.869,-0.391666667,-0.397222222,1,0,0,1.2024,Obsidian_rect,5,1.202,1,14,0,14,0,1,,,,,,,,,,,,,
5deaddddc3aca1206ce3768b,TCR,2024-06-21_13h46.35.188,LearnStrategy,2023.2.3,Win32,14.99250375,9,1,16,0.093518519,-0.013888889,1,0,0,0.9417,rock_grid_rect_2,4,15,-1,-1,0.942,0.39537037,-0.235185185,1,0,0,1.9953,Gabbro_rect,4,1.995,1,15,0,15,0,1,,,,,,,,,,,,,
5deaddddc3aca1206ce3768b,TCR,2024-06-21_13h46.35.188,LearnStrategy,2023.2.3,Win32,14.99250375,9,2,1,,,,,,,,3,15,,,,,,,,,,,3,4.245,1,,,,,,0.191666667,-0.250925926,1,0,0,4.2451,Diorite_rect,0,0,0,0,1,
5deaddddc3aca1206ce3768b,TCR,2024-06-21_13h46.35.188,LearnStrategy,2023.2.3,Win32,14.99250375,9,2,2,,,,,,,,1,09,,,,,,,,,,,4,3.019,0,,,,,,0.356481481,-0.25,1,0,0,3.019,Gabbro_rect,1,0,1,0,1,
5deaddddc3aca1206ce3768b,TCR,2024-06-21_13h46.35.188,LearnStrategy,2023.2.3,Win32,14.99250375,9,2,3,,,,,,,,1,05,,,,,,,,,,,4,3.783,0,,,,,,0.394444444,-0.237037037,1,0,0,3.7829,Gabbro_rect,2,0,2,0,1,
5deaddddc3aca1206ce3768b,TCR,2024-06-21_13h46.35.188,LearnStrategy,2023.2.3,Win32,14.99250375,9,2,4,,,,,,,,6,07,,,,,,,,,,,6,1.452,1,,,,,,-0.144444444,-0.384259259,1,0,0,1.4518,Pegmatite_rect,3,0,3,0,1,
5deaddddc3aca1206ce3768b,TCR,2024-06-21_13h46.35.188,LearnStrategy,2023.2.3,Win32,14.99250375,9,2,5,,,,,,,,7,15,,,,,,,,,,,7,1.265,1,,,,,,0.088888889,-0.401851852,1,0,0,1.2651,Peridotite_rect,4,0,4,0,1,
5deaddddc3aca1206ce3768b,TCR,2024-06-21_13h46.35.188,LearnStrategy,2023.2.3,Win32,14.99250375,9,2,6,,,,,,,,2,14,,,,,,,,,,,8,6.436,0,,,,,,0.416666667,-0.399074074,1,0,0,6.4358,Pumice_rect,5,0,5,0,1,
5deaddddc3aca1206ce3768b,TCR,2024-06-21_13h46.35.188,LearnStrategy,2023.2.3,Win32,14.99250375,9,2,7,,,,,,,,4,14,,,,,,,,,,,4,2.726,1,,,,,,0.437962963,-0.268518519,1,0,0,2.7264,Gabbro_rect,6,0,6,0,1,
5deaddddc3aca1206ce3768b,TCR,2024-06-21_13h46.35.188,LearnStrategy,2023.2.3,Win32,14.99250375,9,2,8,,,,,,,,4,11,,,,,,,,,,,2,3.921,0,,,,,,-0.212962963,-0.255555556,1,0,0,3.9206,Basalt_rect,7,0,7,0,1,
5deaddddc3aca1206ce3768b,TCR,2024-06-21_13h46.35.188,LearnStrategy,2023.2.3,Win32,14.99250375,9,2,9,,,,,,,,8,06,,,,,,,,,,,8,1.786,1,,,,,,0.449074074,-0.412037037,1,0,0,1.7863,Pumice_rect,8,0,8,0,1,
5deaddddc3aca1206ce3768b,TCR,2024-06-21_13h46.35.188,LearnStrategy,2023.2.3,Win32,14.99250375,9,2,10,,,,,,,,3,13,,,,,,,,,,,3,2.654,1,,,,,,0.109259259,-0.246296296,1,0,0,2.6543,Diorite_rect,9,0,9,0,1,
5deaddddc3aca1206ce3768b,TCR,2024-06-21_13h46.35.188,LearnStrategy,2023.2.3,Win32,14.99250375,9,2,11,,,,,,,,6,03,,,,,,,,,,,7,1.464,0,,,,,,0.175925926,-0.393518519,1,0,0,1.4639,Peridotite_rect,10,0,10,0,1,
5deaddddc3aca1206ce3768b,TCR,2024-06-21_13h46.35.188,LearnStrategy,2023.2.3,Win32,14.99250375,9,2,12,,,,,,,,7,05,,,,,,,,,,,1,3.065,0,,,,,,-0.387962963,-0.260185185,1,0,0,3.0651,Andesite_rect,11,0,11,0,1,
5deaddddc3aca1206ce3768b,TCR,2024-06-21_13h46.35.188,LearnStrategy,2023.2.3,Win32,14.99250375,9,2,13,,,,,,,,5,07,,,,,,,,,,,5,1.155,1,,,,,,-0.353703704,-0.385185185,1,0,0,1.1548,Obsidian_rect,12,0,12,0,1,
5deaddddc3aca1206ce3768b,TCR,2024-06-21_13h46.35.188,LearnStrategy,2023.2.3,Win32,14.99250375,9,2,14,,,,,,,,8,05,,,,,,,,,,,8,1.177,1,,,,,,0.425925926,-0.398148148,1,0,0,1.1768,Pumice_rect,13,0,13,0,1,
5deaddddc3aca1206ce3768b,TCR,2024-06-21_13h46.35.188,LearnStrategy,2023.2.3,Win32,14.99250375,9,2,15,,,,,,,,5,12,,,,,,,,,,,5,1.067,1,,,,,,-0.357407407,-0.387962963,1,0,0,1.067,Obsidian_rect,14,0,14,0,1,
5deaddddc3aca1206ce3768b,TCR,2024-06-21_13h46.35.188,LearnStrategy,2023.2.3,Win32,14.99250375,9,2,16,,,,,,,,2,05,,,,,,,,,,,2,1.327,1,,,,,,-0.12962963,-0.248148148,1,0,0,1.3268,Basalt_rect,15,0,15,0,1,
5deaddddc3aca1206ce3768b,TCR,2024-06-21_13h46.35.188,LearnStrategy,2023.2.3,Win32,14.99250375,,,,,,,,,,,,,,,,,,,,,,,,,,,,,,,,,,,,,,,,,,,1
5deaddddc3aca1206ce3768b,TCR,2024-06-21_13h46.35.188,LearnStrategy,2023.2.3,Win32,14.99250375,,,,,,,,,,,,,,,,,,,,,,,,,,,,,,,,,,,,,,,,,,,
5deaddddc3aca1206ce3768b,TCR,2024-06-21_13h46.35.188,LearnStrategy,2023.2.3,Win32,14.99250375,,,,,,,,,,,1,16,1,1,,,,,,,,,,,,,,,,,,,,,,,,,,,,,
5deaddddc3aca1206ce3768b,TCR,2024-06-21_13h46.35.188,LearnStrategy,2023.2.3,Win32,14.99250375,,,,,,,,,,,3,16,1,2,,,,,,,,,,,,,,,,,,,,,,,,,,,,,
5deaddddc3aca1206ce3768b,TCR,2024-06-21_13h46.35.188,LearnStrategy,2023.2.3,Win32,14.99250375,,,,,,,,,,,8,08,1,3,,,,,,,,,,,,,,,,,,,,,,,,,,,,,
5deaddddc3aca1206ce3768b,TCR,2024-06-21_13h46.35.188,LearnStrategy,2023.2.3,Win32,14.99250375,,,,,,,,,,,7,04,1,4,,,,,,,,,,,,,,,,,,,,,,,,,,,,,
5deaddddc3aca1206ce3768b,TCR,2024-06-21_13h46.35.188,LearnStrategy,2023.2.3,Win32,14.99250375,,,,,,,,,,,7,12,1,5,,,,,,,,,,,,,,,,,,,,,,,,,,,,,
5deaddddc3aca1206ce3768b,TCR,2024-06-21_13h46.35.188,LearnStrategy,2023.2.3,Win32,14.99250375,,,,,,,,,,,6,08,1,6,,,,,,,,,,,,,,,,,,,,,,,,,,,,,
5deaddddc3aca1206ce3768b,TCR,2024-06-21_13h46.35.188,LearnStrategy,2023.2.3,Win32,14.99250375,,,,,,,,,,,3,08,1,7,,,,,,,,,,,,,,,,,,,,,,,,,,,,,
5deaddddc3aca1206ce3768b,TCR,2024-06-21_13h46.35.188,LearnStrategy,2023.2.3,Win32,14.99250375,,,,,,,,,,,4,12,1,8,,,,,,,,,,,,,,,,,,,,,,,,,,,,,
5deaddddc3aca1206ce3768b,TCR,2024-06-21_13h46.35.188,LearnStrategy,2023.2.3,Win32,14.99250375,,,,,,,,,,,3,02,2,1,,,,,,,,,,,,,,,,,,,,,,,,,,,,,
5deaddddc3aca1206ce3768b,TCR,2024-06-21_13h46.35.188,LearnStrategy,2023.2.3,Win32,14.99250375,,,,,,,,,,,2,12,2,2,,,,,,,,,,,,,,,,,,,,,,,,,,,,,
5deaddddc3aca1206ce3768b,TCR,2024-06-21_13h46.35.188,LearnStrategy,2023.2.3,Win32,14.99250375,,,,,,,,,,,5,08,2,3,,,,,,,,,,,,,,,,,,,,,,,,,,,,,
5deaddddc3aca1206ce3768b,TCR,2024-06-21_13h46.35.188,LearnStrategy,2023.2.3,Win32,14.99250375,,,,,,,,,,,7,08,2,4,,,,,,,,,,,,,,,,,,,,,,,,,,,,,
5deaddddc3aca1206ce3768b,TCR,2024-06-21_13h46.35.188,LearnStrategy,2023.2.3,Win32,14.99250375,,,,,,,,,,,7,16,2,5,,,,,,,,,,,,,,,,,,,,,,,,,,,,,
5deaddddc3aca1206ce3768b,TCR,2024-06-21_13h46.35.188,LearnStrategy,2023.2.3,Win32,14.99250375,,,,,,,,,,,4,08,2,6,,,,,,,,,,,,,,,,,,,,,,,,,,,,,
5deaddddc3aca1206ce3768b,TCR,2024-06-21_13h46.35.188,LearnStrategy,2023.2.3,Win32,14.99250375,,,,,,,,,,,4,09,2,7,,,,,,,,,,,,,,,,,,,,,,,,,,,,,
5deaddddc3aca1206ce3768b,TCR,2024-06-21_13h46.35.188,LearnStrategy,2023.2.3,Win32,14.99250375,,,,,,,,,,,2,11,2,8,,,,,,,,,,,,,,,,,,,,,,,,,,,,,
5deaddddc3aca1206ce3768b,TCR,2024-06-21_13h46.35.188,LearnStrategy,2023.2.3,Win32,14.99250375,,,,,,,,,,,1,06,3,1,,,,,,,,,,,,,,,,,,,,,,,,,,,,,
5deaddddc3aca1206ce3768b,TCR,2024-06-21_13h46.35.188,LearnStrategy,2023.2.3,Win32,14.99250375,,,,,,,,,,,8,16,3,2,,,,,,,,,,,,,,,,,,,,,,,,,,,,,
5deaddddc3aca1206ce3768b,TCR,2024-06-21_13h46.35.188,LearnStrategy,2023.2.3,Win32,14.99250375,,,,,,,,,,,6,06,3,3,,,,,,,,,,,,,,,,,,,,,,,,,,,,,
5deaddddc3aca1206ce3768b,TCR,2024-06-21_13h46.35.188,LearnStrategy,2023.2.3,Win32,14.99250375,,,,,,,,,,,5,02,3,4,,,,,,,,,,,,,,,,,,,,,,,,,,,,,
5deaddddc3aca1206ce3768b,TCR,2024-06-21_13h46.35.188,LearnStrategy,2023.2.3,Win32,14.99250375,,,,,,,,,,,1,11,3,5,,,,,,,,,,,,,,,,,,,,,,,,,,,,,
5deaddddc3aca1206ce3768b,TCR,2024-06-21_13h46.35.188,LearnStrategy,2023.2.3,Win32,14.99250375,,,,,,,,,,,5,14,3,6,,,,,,,,,,,,,,,,,,,,,,,,,,,,,
5deaddddc3aca1206ce3768b,TCR,2024-06-21_13h46.35.188,LearnStrategy,2023.2.3,Win32,14.99250375,,,,,,,,,,,8,02,3,7,,,,,,,,,,,,,,,,,,,,,,,,,,,,,
5deaddddc3aca1206ce3768b,TCR,2024-06-21_13h46.35.188,LearnStrategy,2023.2.3,Win32,14.99250375,,,,,,,,,,,1,03,3,8,,,,,,,,,,,,,,,,,,,,,,,,,,,,,
5deaddddc3aca1206ce3768b,TCR,2024-06-21_13h46.35.188,LearnStrategy,2023.2.3,Win32,14.99250375,,,,,,,,,,,5,04,4,1,,,,,,,,,,,,,,,,,,,,,,,,,,,,,
5deaddddc3aca1206ce3768b,TCR,2024-06-21_13h46.35.188,LearnStrategy,2023.2.3,Win32,14.99250375,,,,,,,,,,,2,10,4,2,,,,,,,,,,,,,,,,,,,,,,,,,,,,,
5deaddddc3aca1206ce3768b,TCR,2024-06-21_13h46.35.188,LearnStrategy,2023.2.3,Win32,14.99250375,,,,,,,,,,,5,16,4,3,,,,,,,,,,,,,,,,,,,,,,,,,,,,,
5deaddddc3aca1206ce3768b,TCR,2024-06-21_13h46.35.188,LearnStrategy,2023.2.3,Win32,14.99250375,,,,,,,,,,,5,05,4,4,,,,,,,,,,,,,,,,,,,,,,,,,,,,,
5deaddddc3aca1206ce3768b,TCR,2024-06-21_13h46.35.188,LearnStrategy,2023.2.3,Win32,14.99250375,,,,,,,,,,,8,03,4,5,,,,,,,,,,,,,,,,,,,,,,,,,,,,,
5deaddddc3aca1206ce3768b,TCR,2024-06-21_13h46.35.188,LearnStrategy,2023.2.3,Win32,14.99250375,,,,,,,,,,,1,14,4,6,,,,,,,,,,,,,,,,,,,,,,,,,,,,,
5deaddddc3aca1206ce3768b,TCR,2024-06-21_13h46.35.188,LearnStrategy,2023.2.3,Win32,14.99250375,,,,,,,,,,,4,13,4,7,,,,,,,,,,,,,,,,,,,,,,,,,,,,,
5deaddddc3aca1206ce3768b,TCR,2024-06-21_13h46.35.188,LearnStrategy,2023.2.3,Win32,14.99250375,,,,,,,,,,,1,01,4,8,,,,,,,,,,,,,,,,,,,,,,,,,,,,,
5deaddddc3aca1206ce3768b,TCR,2024-06-21_13h46.35.188,LearnStrategy,2023.2.3,Win32,14.99250375,,,,,,,,,,,7,07,5,1,,,,,,,,,,,,,,,,,,,,,,,,,,,,,
5deaddddc3aca1206ce3768b,TCR,2024-06-21_13h46.35.188,LearnStrategy,2023.2.3,Win32,14.99250375,,,,,,,,,,,3,06,5,2,,,,,,,,,,,,,,,,,,,,,,,,,,,,,
5deaddddc3aca1206ce3768b,TCR,2024-06-21_13h46.35.188,LearnStrategy,2023.2.3,Win32,14.99250375,,,,,,,,,,,4,15,5,3,,,,,,,,,,,,,,,,,,,,,,,,,,,,,
5deaddddc3aca1206ce3768b,TCR,2024-06-21_13h46.35.188,LearnStrategy,2023.2.3,Win32,14.99250375,,,,,,,,,,,6,13,5,4,,,,,,,,,,,,,,,,,,,,,,,,,,,,,
5deaddddc3aca1206ce3768b,TCR,2024-06-21_13h46.35.188,LearnStrategy,2023.2.3,Win32,14.99250375,,,,,,,,,,,3,07,5,5,,,,,,,,,,,,,,,,,,,,,,,,,,,,,
5deaddddc3aca1206ce3768b,TCR,2024-06-21_13h46.35.188,LearnStrategy,2023.2.3,Win32,14.99250375,,,,,,,,,,,6,10,5,6,,,,,,,,,,,,,,,,,,,,,,,,,,,,,
5deaddddc3aca1206ce3768b,TCR,2024-06-21_13h46.35.188,LearnStrategy,2023.2.3,Win32,14.99250375,,,,,,,,,,,3,09,5,7,,,,,,,,,,,,,,,,,,,,,,,,,,,,,
5deaddddc3aca1206ce3768b,TCR,2024-06-21_13h46.35.188,LearnStrategy,2023.2.3,Win32,14.99250375,,,,,,,,,,,8,10,5,8,,,,,,,,,,,,,,,,,,,,,,,,,,,,,
5deaddddc3aca1206ce3768b,TCR,2024-06-21_13h46.35.188,LearnStrategy,2023.2.3,Win32,14.99250375,,,,,,,,,,,8,13,6,1,,,,,,,,,,,,,,,,,,,,,,,,,,,,,
5deaddddc3aca1206ce3768b,TCR,2024-06-21_13h46.35.188,LearnStrategy,2023.2.3,Win32,14.99250375,,,,,,,,,,,2,08,6,2,,,,,,,,,,,,,,,,,,,,,,,,,,,,,
5deaddddc3aca1206ce3768b,TCR,2024-06-21_13h46.35.188,LearnStrategy,2023.2.3,Win32,14.99250375,,,,,,,,,,,2,09,6,3,,,,,,,,,,,,,,,,,,,,,,,,,,,,,
5deaddddc3aca1206ce3768b,TCR,2024-06-21_13h46.35.188,LearnStrategy,2023.2.3,Win32,14.99250375,,,,,,,,,,,6,05,6,4,,,,,,,,,,,,,,,,,,,,,,,,,,,,,
5deaddddc3aca1206ce3768b,TCR,2024-06-21_13h46.35.188,LearnStrategy,2023.2.3,Win32,14.99250375,,,,,,,,,,,2,16,6,5,,,,,,,,,,,,,,,,,,,,,,,,,,,,,
5deaddddc3aca1206ce3768b,TCR,2024-06-21_13h46.35.188,LearnStrategy,2023.2.3,Win32,14.99250375,,,,,,,,,,,6,11,6,6,,,,,,,,,,,,,,,,,,,,,,,,,,,,,
5deaddddc3aca1206ce3768b,TCR,2024-06-21_13h46.35.188,LearnStrategy,2023.2.3,Win32,14.99250375,,,,,,,,,,,7,13,6,7,,,,,,,,,,,,,,,,,,,,,,,,,,,,,
5deaddddc3aca1206ce3768b,TCR,2024-06-21_13h46.35.188,LearnStrategy,2023.2.3,Win32,14.99250375,,,,,,,,,,,4,01,6,8,,,,,,,,,,,,,,,,,,,,,,,,,,,,,