participant,condition,date,expName,psychopyVersion,OS,frameRate,block,phase,trial,learn_mouse_2.x,learn_mouse_2.y,learn_mouse_2.leftButton,learn_mouse_2.midButton,learn_mouse_2.rightButton,learn_mouse_2.time,learn_mouse_2.clicked_name,cat,token,row,col,t_select,cat_mouse_l.x,cat_mouse_l.y,cat_mouse_l.leftButton,cat_mouse_l.midButton,cat_mouse_l.rightButton,cat_mouse_l.time,cat_mouse_l.clicked_name,resp,t_resp,corr,train_trials.thisRepN,train_trials.thisTrialN,train_trials.thisN,train_trials.thisIndex,train_trials.ran,cat_mouse_t.x,cat_mouse_t.y,cat_mouse_t.leftButton,cat_mouse_t.midButton,cat_mouse_t.rightButton,cat_mouse_t.time,cat_mouse_t.clicked_name,test_trials.thisRepN,test_trials.thisTrialN,test_trials.thisN,test_trials.thisIndex,test_trials.ran,Bonus
5df2f36b617219204de98060,TCN,2024-06-21_10h46.39.220,LearnStrategy,2023.2.3,Win32,59.52380952,,,,,,,,,,,,,,,,,,,,,,,,,,,,,,,,,,,,,,,,,,,
5df2f36b617219204de98060,TCN,2024-06-21_10h46.39.220,LearnStrategy,2023.2.3,Win32,59.52380952,1,1,1,-0.035833282,0.011666641,1,0,0,1.7585,rock_grid_rect_2,4,05,-1,-1,1.759,-0.3675,-0.245,1,0,0,3.0894,Andesite_rect,1,3.089,0,0,0,0,0,1,,,,,,,,,,,,,
5df2f36b617219204de98060,TCN,2024-06-21_10h46.39.220,LearnStrategy,2023.2.3,Win32,59.52380952,1,1,2,0.049166718,0.001666641,1,0,0,1.3809,rock_grid_rect_2,8,10,-1,-1,1.381,0.14,-0.245833359,1,0,0,2.5964,Diorite_rect,3,2.596,0,1,0,1,0,1,,,,,,,,,,,,,
5df2f36b617219204de98060,TCN,2024-06-21_10h46.39.220,LearnStrategy,2023.2.3,Win32,59.52380952,1,1,3,0.0425,-0.01,1,0,0,0.9987,rock_grid_rect_2,5,10,-1,-1,0.999,-0.334166641,-0.2375,1,0,0,5.3622,Andesite_rect,1,5.362,0,2,0,2,0,1,,,,,,,,,,,,,
5df2f36b617219204de98060,TCN,2024-06-21_10h46.39.220,LearnStrategy,2023.2.3,Win32,59.52380952,1,1,4,-0.005,-0.018333359,1,0,0,1.0483,rock_grid_rect_2,3,09,-1,-1,1.048,0.1175,-0.395833359,1,0,0,2.2291,Peridotite_rect,7,2.229,0,3,0,3,0,1,,,,,,,,,,,,,
5df2f36b617219204de98060,TCN,2024-06-21_10h46.39.220,LearnStrategy,2023.2.3,Win32,59.52380952,1,1,5,-0.009166641,0.000833321,1,0,0,0.8148,rock_grid_rect_2,6,03,-1,-1,0.815,-0.131666641,-0.389166718,1,0,0,2.029,Pegmatite_rect,6,2.029,1,4,0,4,0,1,,,,,,,,,,,,,
5df2f36b617219204de98060,TCN,2024-06-21_10h46.39.220,LearnStrategy,2023.2.3,Win32,59.52380952,1,1,6,-0.0575,-0.01,1,0,0,1.0319,rock_grid_rect_2,4,11,-1,-1,1.032,-0.178333321,-0.270833359,1,0,0,2.0967,Basalt_rect,2,2.097,0,5,0,5,0,1,,,,,,,,,,,,,
5df2f36b617219204de98060,TCN,2024-06-21_10h46.39.220,LearnStrategy,2023.2.3,Win32,59.52380952,1,1,7,-0.043333282,-0.004166679,1,0,0,0.8314,rock_grid_rect_2,5,11,-1,-1,0.831,-0.3825,-0.3925,1,0,0,2.5459,Obsidian_rect,5,2.546,1,6,0,6,0,1,,,,,,,,,,,,,
5df2f36b617219204de98060,TCN,2024-06-21_10h46.39.220,LearnStrategy,2023.2.3,Win32,59.52380952,1,1,8,-0.028333282,-0.010833359,1,0,0,0.7984,rock_grid_rect_2,8,04,-1,-1,0.798,0.348333359,-0.389166718,1,0,0,2.0624,Pumice_rect,8,2.062,1,7,0,7,0,1,,,,,,,,,,,,,
5df2f36b617219204de98060,TCN,2024-06-21_10h46.39.220,LearnStrategy,2023.2.3,Win32,59.52380952,1,1,9,-0.020833282,-0.003333359,1,0,0,0.6986,rock_grid_rect_2,2,08,-1,-1,0.699,-0.33,-0.229166718,1,0,0,3.446,Andesite_rect,1,3.446,0,8,0,8,0,1,,,,,,,,,,,,,
5df2f36b617219204de98060,TCN,2024-06-21_10h46.39.220,LearnStrategy,2023.2.3,Win32,59.52380952,1,1,10,-0.020833282,-0.020833359,1,0,0,0.6311,rock_grid_rect_2,6,11,-1,-1,0.631,-0.415,-0.249166718,1,0,0,2.0788,Andesite_rect,1,2.079,0,9,0,9,0,1,,,,,,,,,,,,,
5df2f36b617219204de98060,TCN,2024-06-21_10h46.39.220,LearnStrategy,2023.2.3,Win32,59.52380952,1,1,11,0.031666718,-0.005,1,0,0,0.7488,rock_grid_rect_2,1,05,-1,-1,0.749,0.1725,-0.391666718,1,0,0,2.4964,Peridotite_rect,7,2.496,0,10,0,10,0,1,,,,,,,,,,,,,
5df2f36b617219204de98060,TCN,2024-06-21_10h46.39.220,LearnStrategy,2023.2.3,Win32,59.52380952,1,1,12,-0.038333282,-0.010833359,1,0,0,0.7476,rock_grid_rect_2,7,12,-1,-1,0.748,0.048333359,-0.259166718,1,0,0,4.6791,Diorite_rect,3,4.679,0,11,0,11,0,1,,,,,,,,,,,,,
5df2f36b617219204de98060,TCN,2024-06-21_10h46.39.220,LearnStrategy,2023.2.3,Win32,59.52380952,1,1,13,-0.064166641,0.001666641,1,0,0,0.8322,rock_grid_rect_2,2,10,-1,-1,0.832,-0.194166641,-0.261666718,1,0,0,2.8958,Basalt_rect,2,2.896,1,12,0,12,0,1,,,,,,,,,,,,,
5df2f36b617219204de98060,TCN,2024-06-21_10h46.39.220,LearnStrategy,2023.2.3,Win32,59.52380952,1,1,14,-0.0325,-0.009166679,1,0,0,0.6492,rock_grid_rect_2,3,07,-1,-1,0.649,-0.364166641,-0.243333359,1,0,0,1.6784,Andesite_rect,1,1.678,0,13,0,13,0,1,,,,,,,,,,,,,
5df2f36b617219204de98060,TCN,2024-06-21_10h46.39.220,LearnStrategy,2023.2.3,Win32,59.52380952,1,1,15,-0.035,-0.013333359,1,0,0,0.9653,rock_grid_rect_2,7,10,-1,-1,0.965,0.37,-0.238333359,1,0,0,1.6285,Gabbro_rect,4,1.628,0,14,0,14,0,1,,,,,,,,,,,,,
5df2f36b617219204de98060,TCN,2024-06-21_10h46.39.220,LearnStrategy,2023.2.3,Win32,59.52380952,1,1,16,-0.0625,0,1,0,0,0.7656,rock_grid_rect_2,1,06,-1,-1,0.766,-0.3375,-0.245833359,1,0,0,6.5631,Andesite_rect,1,6.563,1,15,0,15,0,1,,,,,,,,,,,,,
5df2f36b617219204de98060,TCN,2024-06-21_10h46.39.220,LearnStrategy,2023.2.3,Win32,59.52380952,1,2,1,,,,,,,,2,01,,,,,,,,,,,2,1.966,1,,,,,,-0.0925,-0.249166718,1,0,0,1.9664,Basalt_rect,0,0,0,0,1,
5df2f36b617219204de98060,TCN,2024-06-21_10h46.39.220,LearnStrategy,2023.2.3,Win32,59.52380952,1,2,2,,,,,,,,8,06,,,,,,,,,,,8,1.984,1,,,,,,0.354166718,-0.399166718,1,0,0,1.9837,Pumice_rect,1,0,1,0,1,
5df2f36b617219204de98060,TCN,2024-06-21_10h46.39.220,LearnStrategy,2023.2.3,Win32,59.52380952,1,2,3,,,,,,,,4,01,,,,,,,,,,,4,4.502,1,,,,,,0.340833359,-0.255,1,0,0,4.5017,Gabbro_rect,2,0,2,0,1,
5df2f36b617219204de98060,TCN,2024-06-21_10h46.39.220,LearnStrategy,2023.2.3,Win32,59.52380952,1,2,4,,,,,,,,8,16,,,,,,,,,,,8,1.484,1,,,,,,0.329166718,-0.379166718,1,0,0,1.4837,Pumice_rect,3,0,3,0,1,
5df2f36b617219204de98060,TCN,2024-06-21_10h46.39.220,LearnStrategy,2023.2.3,Win32,59.52380952,1,2,5,,,,,,,,3,13,,,,,,,,,,,1,2.919,0,,,,,,-0.366666641,-0.239166718,1,0,0,2.9186,Andesite_rect,4,0,4,0,1,
5df2f36b617219204de98060,TCN,2024-06-21_10h46.39.220,LearnStrategy,2023.2.3,Win32,59.52380952,1,2,6,,,,,,,,5,08,,,,,,,,,,,5,1.418,1,,,,,,-0.364166641,-0.385833359,1,0,0,1.4178,Obsidian_rect,5,0,5,0,1,
5df2f36b617219204de98060,TCN,2024-06-21_10h46.39.220,LearnStrategy,2023.2.3,Win32,59.52380952,1,2,7,,,,,,,,4,08,,,,,,,,,,,4,2,1,,,,,,0.321666718,-0.265833359,1,0,0,1.9998,Gabbro_rect,6,0,6,0,1,
5df2f36b617219204de98060,TCN,2024-06-21_10h46.39.220,LearnStrategy,2023.2.3,Win32,59.52380952,1,2,8,,,,,,,,1,03,,,,,,,,,,,4,1.2,0,,,,,,0.405,-0.245833359,1,0,0,1.2002,Gabbro_rect,7,0,7,0,1,
5df2f36b617219204de98060,TCN,2024-06-21_10h46.39.220,LearnStrategy,2023.2.3,Win32,59.52380952,1,2,9,,,,,,,,5,02,,,,,,,,,,,5,1.185,1,,,,,,-0.424166641,-0.418333359,1,0,0,1.1848,Obsidian_rect,8,0,8,0,1,
5df2f36b617219204de98060,TCN,2024-06-21_10h46.39.220,LearnStrategy,2023.2.3,Win32,59.52380952,1,2,10,,,,,,,,6,09,,,,,,,,,,,6,3.934,1,,,,,,-0.123333282,-0.409166718,1,0,0,3.9339,Pegmatite_rect,9,0,9,0,1,
5df2f36b617219204de98060,TCN,2024-06-21_10h46.39.220,LearnStrategy,2023.2.3,Win32,59.52380952,1,2,11,,,,,,,,1,02,,,,,,,,,,,7,2.218,0,,,,,,0.096666718,-0.395,1,0,0,2.2182,Peridotite_rect,10,0,10,0,1,
5df2f36b617219204de98060,TCN,2024-06-21_10h46.39.220,LearnStrategy,2023.2.3,Win32,59.52380952,1,2,12,,,,,,,,3,06,,,,,,,,,,,3,1.734,1,,,,,,0.08,-0.238333359,1,0,0,1.7342,Diorite_rect,11,0,11,0,1,
5df2f36b617219204de98060,TCN,2024-06-21_10h46.39.220,LearnStrategy,2023.2.3,Win32,59.52380952,1,2,13,,,,,,,,7,13,,,,,,,,,,,6,1.383,0,,,,,,-0.125,-0.394166718,1,0,0,1.3828,Pegmatite_rect,12,0,12,0,1,
5df2f36b617219204de98060,TCN,2024-06-21_10h46.39.220,LearnStrategy,2023.2.3,Win32,59.52380952,1,2,14,,,,,,,,6,08,,,,,,,,,,,3,4.765,0,,,,,,0.119166718,-0.235,1,0,0,4.7654,Diorite_rect,13,0,13,0,1,
5df2f36b617219204de98060,TCN,2024-06-21_10h46.39.220,LearnStrategy,2023.2.3,Win32,59.52380952,1,2,15,,,,,,,,2,11,,,,,,,,,,,2,1.724,1,,,,,,-0.071666641,-0.240833359,1,0,0,1.7235,Basalt_rect,14,0,14,0,1,
5df2f36b617219204de98060,TCN,2024-06-21_10h46.39.220,LearnStrategy,2023.2.3,Win32,59.52380952,1,2,16,,,,,,,,7,04,,,,,,,,,,,1,3.295,0,,,,,,-0.376666641,-0.250833359,1,0,0,3.2952,Andesite_rect,15,0,15,0,1,
5df2f36b617219204de98060,TCN,2024-06-21_10h46.39.220,LearnStrategy,2023.2.3,Win32,59.52380952,2,1,1,0.025833359,-0.0025,1,0,0,1.1826,rock_grid_rect_2,4,16,-1,-1,1.183,-0.09,-0.239166718,1,0,0,1.8624,Basalt_rect,2,1.862,0,0,0,0,0,1,,,,,,,,,,,,,
5df2f36b617219204de98060,TCN,2024-06-21_10h46.39.220,LearnStrategy,2023.2.3,Win32,59.52380952,2,1,2,-0.051666641,0.006666641,1,0,0,0.715,rock_grid_rect_2,6,06,-1,-1,0.715,-0.465833321,-0.245833359,1,0,0,2.3794,Andesite_rect,1,2.379,0,1,0,1,0,1,,,,,,,,,,,,,
5df2f36b617219204de98060,TCN,2024-06-21_10h46.39.220,LearnStrategy,2023.2.3,Win32,59.52380952,2,1,3,-0.0725,-0.011666679,1,0,0,0.8323,rock_grid_rect_2,4,10,-1,-1,0.832,-0.09,-0.253333359,1,0,0,2.028,Basalt_rect,2,2.028,0,2,0,2,0,1,,,,,,,,,,,,,
5df2f36b617219204de98060,TCN,2024-06-21_10h46.39.220,LearnStrategy,2023.2.3,Win32,59.52380952,2,1,4,-0.014166641,-0.02,1,0,0,0.8489,rock_grid_rect_2,1,11,-1,-1,0.849,0.124166718,-0.235833359,1,0,0,3.2293,Diorite_rect,3,3.229,0,3,0,3,0,1,,,,,,,,,,,,,
5df2f36b617219204de98060,TCN,2024-06-21_10h46.39.220,LearnStrategy,2023.2.3,Win32,59.52380952,2,1,5,-0.0175,-0.016666679,1,0,0,0.8312,rock_grid_rect_2,1,07,-1,-1,0.831,0.104166718,-0.253333359,1,0,0,2.5293,Diorite_rect,3,2.529,0,4,0,4,0,1,,,,,,,,,,,,,
5df2f36b617219204de98060,TCN,2024-06-21_10h46.39.220,LearnStrategy,2023.2.3,Win32,59.52380952,2,1,6,-0.065,0.008333321,1,0,0,0.7651,rock_grid_rect_2,2,06,-1,-1,0.765,-0.114166641,-0.235833359,1,0,0,1.1125,Basalt_rect,2,1.112,1,5,0,5,0,1,,,,,,,,,,,,,
5df2f36b617219204de98060,TCN,2024-06-21_10h46.39.220,LearnStrategy,2023.2.3,Win32,59.52380952,2,1,7,-0.0625,-0.001666679,1,0,0,0.781,rock_grid_rect_2,2,02,-1,-1,0.781,-0.110833282,-0.229166718,1,0,0,0.796,Basalt_rect,2,0.796,1,6,0,6,0,1,,,,,,,,,,,,,
5df2f36b617219204de98060,TCN,2024-06-21_10h46.39.220,LearnStrategy,2023.2.3,Win32,59.52380952,2,1,8,-0.088333282,0.001666641,1,0,0,0.7481,rock_grid_rect_2,3,02,-1,-1,0.748,-0.444166641,-0.42,1,0,0,1.1459,Obsidian_rect,5,1.146,0,7,0,7,0,1,,,,,,,,,,,,,
5df2f36b617219204de98060,TCN,2024-06-21_10h46.39.220,LearnStrategy,2023.2.3,Win32,59.52380952,2,1,9,-0.096666641,-0.006666679,1,0,0,0.7822,rock_grid_rect_2,3,11,-1,-1,0.782,-0.3225,-0.230833359,1,0,0,3.8797,Andesite_rect,1,3.88,0,8,0,8,0,1,,,,,,,,,,,,,
5df2f36b617219204de98060,TCN,2024-06-21_10h46.39.220,LearnStrategy,2023.2.3,Win32,59.52380952,2,1,10,-0.0325,-0.01,1,0,0,1.1317,rock_grid_rect_2,5,07,-1,-1,1.132,-0.356666641,-0.394166718,1,0,0,1.1626,Obsidian_rect,5,1.163,1,9,0,9,0,1,,,,,,,,,,,,,
5df2f36b617219204de98060,TCN,2024-06-21_10h46.39.220,LearnStrategy,2023.2.3,Win32,59.52380952,2,1,11,-0.033333282,0.016666641,1,0,0,0.6481,rock_grid_rect_2,8,15,-1,-1,0.648,0.393333359,-0.389166718,1,0,0,1.196,Pumice_rect,8,1.196,1,10,0,10,0,1,,,,,,,,,,,,,
5df2f36b617219204de98060,TCN,2024-06-21_10h46.39.220,LearnStrategy,2023.2.3,Win32,59.52380952,2,1,12,-0.013333282,-0.015833359,1,0,0,0.6158,rock_grid_rect_2,5,05,-1,-1,0.616,-0.405,-0.415833359,1,0,0,1.1956,Obsidian_rect,5,1.196,1,11,0,11,0,1,,,,,,,,,,,,,
5df2f36b617219204de98060,TCN,2024-06-21_10h46.39.220,LearnStrategy,2023.2.3,Win32,59.52380952,2,1,13,-0.075833282,0.011666641,1,0,0,0.5486,rock_grid_rect_2,8,08,-1,-1,0.549,0.3475,-0.381666718,1,0,0,1.0796,Pumice_rect,8,1.08,1,12,0,12,0,1,,,,,,,,,,,,,
5df2f36b617219204de98060,TCN,2024-06-21_10h46.39.220,LearnStrategy,2023.2.3,Win32,59.52380952,2,1,14,-0.106666641,0.009166641,1,0,0,0.7981,rock_grid_rect_2,7,14,-1,-1,0.798,0.108333359,-0.235833359,1,0,0,3.4127,Diorite_rect,3,3.413,0,13,0,13,0,1,,,,,,,,,,,,,
5df2f36b617219204de98060,TCN,2024-06-21_10h46.39.220,LearnStrategy,2023.2.3,Win32,59.52380952,2,1,15,-0.0675,-0.0025,1,0,0,1.1309,rock_grid_rect_2,6,13,-1,-1,1.131,0.1175,-0.419166718,1,0,0,1.0627,Peridotite_rect,7,1.063,0,14,0,14,0,1,,,,,,,,,,,,,
5df2f36b617219204de98060,TCN,2024-06-21_10h46.39.220,LearnStrategy,2023.2.3,Win32,59.52380952,2,1,16,-0.0125,-0.006666679,1,0,0,0.6826,rock_grid_rect_2,7,16,-1,-1,0.683,-0.16,-0.391666718,1,0,0,1.6118,Pegmatite_rect,6,1.612,0,15,0,15,0,1,,,,,,,,,,,,,
5df2f36b617219204de98060,TCN,2024-06-21_10h46.39.220,LearnStrategy,2023.2.3,Win32,59.52380952,2,2,1,,,,,,,,3,15,,,,,,,,,,,1,2.714,0,,,,,,-0.348333321,-0.2325,1,0,0,2.7138,Andesite_rect,0,0,0,0,1,
5df2f36b617219204de98060,TCN,2024-06-21_10h46.39.220,LearnStrategy,2023.2.3,Win32,59.52380952,2,2,2,,,,,,,,1,04,,,,,,,,,,,3,7.235,0,,,,,,0.07,-0.245833359,1,0,0,7.2349,Diorite_rect,1,0,1,0,1,
5df2f36b617219204de98060,TCN,2024-06-21_10h46.39.220,LearnStrategy,2023.2.3,Win32,59.52380952,2,2,3,,,,,,,,5,04,,,,,,,,,,,5,1.017,1,,,,,,-0.48416666,-0.410833359,1,0,0,1.0172,Obsidian_rect,2,0,2,0,1,
5df2f36b617219204de98060,TCN,2024-06-21_10h46.39.220,LearnStrategy,2023.2.3,Win32,59.52380952,2,2,4,,,,,,,,2,04,,,,,,,,,,,2,1.45,1,,,,,,-0.179166641,-0.248333359,1,0,0,1.4505,Basalt_rect,3,0,3,0,1,
5df2f36b617219204de98060,TCN,2024-06-21_10h46.39.220,LearnStrategy,2023.2.3,Win32,59.52380952,2,2,5,,,,,,,,2,16,,,,,,,,,,,4,2.566,0,,,,,,0.4075,-0.248333359,1,0,0,2.5663,Gabbro_rect,4,0,4,0,1,
5df2f36b617219204de98060,TCN,2024-06-21_10h46.39.220,LearnStrategy,2023.2.3,Win32,59.52380952,2,2,6,,,,,,,,5,06,,,,,,,,,,,5,1.151,1,,,,,,-0.43,-0.4,1,0,0,1.1506,Obsidian_rect,5,0,5,0,1,
5df2f36b617219204de98060,TCN,2024-06-21_10h46.39.220,LearnStrategy,2023.2.3,Win32,59.52380952,2,2,7,,,,,,,,6,05,,,,,,,,,,,6,3.267,1,,,,,,-0.138333282,-0.395,1,0,0,3.2672,Pegmatite_rect,6,0,6,0,1,
5df2f36b617219204de98060,TCN,2024-06-21_10h46.39.220,LearnStrategy,2023.2.3,Win32,59.52380952,2,2,8,,,,,,,,3,10,,,,,,,,,,,1,1.819,0,,,,,,-0.329166641,-0.233333359,1,0,0,1.8188,Andesite_rect,7,0,7,0,1,
5df2f36b617219204de98060,TCN,2024-06-21_10h46.39.220,LearnStrategy,2023.2.3,Win32,59.52380952,2,2,9,,,,,,,,8,09,,,,,,,,,,,8,1.251,1,,,,,,0.423333359,-0.421666718,1,0,0,1.2512,Pumice_rect,8,0,8,0,1,
5df2f36b617219204de98060,TCN,2024-06-21_10h46.39.220,LearnStrategy,2023.2.3,Win32,59.52380952,2,2,10,,,,,,,,4,03,,,,,,,,,,,7,2.27,0,,,,,,0.138333359,-0.408333359,1,0,0,2.2699,Peridotite_rect,9,0,9,0,1,
5df2f36b617219204de98060,TCN,2024-06-21_10h46.39.220,LearnStrategy,2023.2.3,Win32,59.52380952,2,2,11,,,,,,,,7,06,,,,,,,,,,,6,1.785,0,,,,,,-0.118333282,-0.395833359,1,0,0,1.7851,Pegmatite_rect,10,0,10,0,1,
5df2f36b617219204de98060,TCN,2024-06-21_10h46.39.220,LearnStrategy,2023.2.3,Win32,59.52380952,2,2,12,,,,,,,,6,12,,,,,,,,,,,1,1.186,0,,,,,,-0.336666641,-0.235,1,0,0,1.1858,Andesite_rect,11,0,11,0,1,
5df2f36b617219204de98060,TCN,2024-06-21_10h46.39.220,LearnStrategy,2023.2.3,Win32,59.52380952,2,2,13,,,,,,,,7,08,,,,,,,,,,,4,3.3,0,,,,,,0.3175,-0.25,1,0,0,3.3,Gabbro_rect,12,0,12,0,1,
5df2f36b617219204de98060,TCN,2024-06-21_10h46.39.220,LearnStrategy,2023.2.3,Win32,59.52380952,2,2,14,,,,,,,,1,14,,,,,,,,,,,1,2.55,1,,,,,,-0.434166641,-0.246666718,1,0,0,2.5496,Andesite_rect,13,0,13,0,1,
5df2f36b617219204de98060,TCN,2024-06-21_10h46.39.220,LearnStrategy,2023.2.3,Win32,59.52380952,2,2,15,,,,,,,,8,02,,,,,,,,,,,8,1.1,1,,,,,,0.348333359,-0.413333359,1,0,0,1.0999,Pumice_rect,14,0,14,0,1,
5df2f36b617219204de98060,TCN,2024-06-21_10h46.39.220,LearnStrategy,2023.2.3,Win32,59.52380952,2,2,16,,,,,,,,4,14,,,,,,,,,,,2,1.068,0,,,,,,-0.153333282,-0.255,1,0,0,1.0679,Basalt_rect,15,0,15,0,1,
5df2f36b617219204de98060,TCN,2024-06-21_10h46.39.220,LearnStrategy,2023.2.3,Win32,59.52380952,3,1,1,-0.0425,-0.016666679,1,0,0,0.8205,rock_grid_rect_2,6,10,-1,-1,0.821,-0.145833282,-0.4125,1,0,0,2.2461,Pegmatite_rect,6,2.246,1,0,0,0,0,1,,,,,,,,,,,,,
5df2f36b617219204de98060,TCN,2024-06-21_10h46.39.220,LearnStrategy,2023.2.3,Win32,59.52380952,3,1,2,-0.063333282,0.005,1,0,0,1.3671,rock_grid_rect_2,5,16,-1,-1,1.367,-0.3725,-0.3925,1,0,0,1.15,Obsidian_rect,5,1.15,1,1,0,1,0,1,,,,,,,,,,,,,
5df2f36b617219204de98060,TCN,2024-06-21_10h46.39.220,LearnStrategy,2023.2.3,Win32,59.52380952,3,1,3,-0.02,-0.025,1,0,0,0.838,rock_grid_rect_2,7,15,-1,-1,0.838,0.144166718,-0.404166718,1,0,0,3.9838,Peridotite_rect,7,3.984,1,2,0,2,0,1,,,,,,,,,,,,,
5df2f36b617219204de98060,TCN,2024-06-21_10h46.39.220,LearnStrategy,2023.2.3,Win32,59.52380952,3,1,4,-0.015,-0.0075,1,0,0,1.0592,rock_grid_rect_2,7,02,-1,-1,1.059,0.1275,-0.391666718,1,0,0,1.0177,Peridotite_rect,7,1.018,1,3,0,3,0,1,,,,,,,,,,,,,
5df2f36b617219204de98060,TCN,2024-06-21_10h46.39.220,LearnStrategy,2023.2.3,Win32,59.52380952,3,1,5,-0.029166641,-0.006666679,1,0,0,0.7209,rock_grid_rect_2,2,14,-1,-1,0.721,0.420833359,-0.228333359,1,0,0,2.0643,Gabbro_rect,4,2.064,0,4,0,4,0,1,,,,,,,,,,,,,
5df2f36b617219204de98060,TCN,2024-06-21_10h46.39.220,LearnStrategy,2023.2.3,Win32,59.52380952,3,1,6,0.0175,-0.016666679,1,0,0,0.8315,rock_grid_rect_2,5,09,-1,-1,0.832,-0.37,-0.4125,1,0,0,1.9008,Obsidian_rect,5,1.901,1,5,0,5,0,1,,,,,,,,,,,,,
5df2f36b617219204de98060,TCN,2024-06-21_10h46.39.220,LearnStrategy,2023.2.3,Win32,59.52380952,3,1,7,-0.013333282,-0.001666679,1,0,0,0.671,rock_grid_rect_2,1,01,-1,-1,0.671,0.348333359,-0.25,1,0,0,2.2479,Gabbro_rect,4,2.248,0,6,0,6,0,1,,,,,,,,,,,,,
5df2f36b617219204de98060,TCN,2024-06-21_10h46.39.220,LearnStrategy,2023.2.3,Win32,59.52380952,3,1,8,-0.118333282,0.005833321,1,0,0,0.8481,rock_grid_rect_2,6,16,-1,-1,0.848,0.094166718,-0.254166718,1,0,0,4.3518,Diorite_rect,3,4.352,0,7,0,7,0,1,,,,,,,,,,,,,
5df2f36b617219204de98060,TCN,2024-06-21_10h46.39.220,LearnStrategy,2023.2.3,Win32,59.52380952,3,1,9,0.0025,0.023333321,1,0,0,0.6936,rock_grid_rect_2,2,12,-1,-1,0.694,0.433333359,-0.4175,1,0,0,2.6506,Pumice_rect,8,2.651,0,8,0,8,0,1,,,,,,,,,,,,,
5df2f36b617219204de98060,TCN,2024-06-21_10h46.39.220,LearnStrategy,2023.2.3,Win32,59.52380952,3,1,10,-0.085833282,-0.019166679,1,0,0,0.7321,rock_grid_rect_2,4,15,-1,-1,0.732,-0.365833321,-0.229166718,1,0,0,5.2512,Andesite_rect,1,5.251,0,9,0,9,0,1,,,,,,,,,,,,,
5df2f36b617219204de98060,TCN,2024-06-21_10h46.39.220,LearnStrategy,2023.2.3,Win32,59.52380952,3,1,11,-0.088333282,-0.008333359,1,0,0,0.6881,rock_grid_rect_2,3,16,-1,-1,0.688,-0.3775,-0.234166718,1,0,0,5.0619,Andesite_rect,1,5.062,0,10,0,10,0,1,,,,,,,,,,,,,
5df2f36b617219204de98060,TCN,2024-06-21_10h46.39.220,LearnStrategy,2023.2.3,Win32,59.52380952,3,1,12,-0.085,-0.011666679,1,0,0,0.7387,rock_grid_rect_2,4,12,-1,-1,0.739,-0.1025,-0.248333359,1,0,0,1.6124,Basalt_rect,2,1.612,0,11,0,11,0,1,,,,,,,,,,,,,
5df2f36b617219204de98060,TCN,2024-06-21_10h46.39.220,LearnStrategy,2023.2.3,Win32,59.52380952,3,1,13,-0.0775,-0.004166679,1,0,0,0.787,rock_grid_rect_2,8,05,-1,-1,0.787,0.314166718,-0.400833359,1,0,0,1.1137,Pumice_rect,8,1.114,1,12,0,12,0,1,,,,,,,,,,,,,
5df2f36b617219204de98060,TCN,2024-06-21_10h46.39.220,LearnStrategy,2023.2.3,Win32,59.52380952,3,1,14,-0.103333282,0.008333321,1,0,0,0.8388,rock_grid_rect_2,1,16,-1,-1,0.839,-0.37,-0.241666718,1,0,0,1.4787,Andesite_rect,1,1.479,1,13,0,13,0,1,,,,,,,,,,,,,
5df2f36b617219204de98060,TCN,2024-06-21_10h46.39.220,LearnStrategy,2023.2.3,Win32,59.52380952,3,1,15,-0.115833282,-0.015,1,0,0,0.7841,rock_grid_rect_2,8,13,-1,-1,0.784,0.3475,-0.406666718,1,0,0,1.1174,Pumice_rect,8,1.117,1,14,0,14,0,1,,,,,,,,,,,,,
5df2f36b617219204de98060,TCN,2024-06-21_10h46.39.220,LearnStrategy,2023.2.3,Win32,59.52380952,3,1,16,-0.081666641,0.005833321,1,0,0,0.5968,rock_grid_rect_2,3,14,-1,-1,0.597,-0.38,-0.240833359,1,0,0,1.6018,Andesite_rect,1,1.602,0,15,0,15,0,1,,,,,,,,,,,,,
5df2f36b617219204de98060,TCN,2024-06-21_10h46.39.220,LearnStrategy,2023.2.3,Win32,59.52380952,3,2,1,,,,,,,,6,15,,,,,,,,,,,6,2.434,1,,,,,,-0.098333282,-0.399166718,1,0,0,2.4342,Pegmatite_rect,0,0,0,0,1,
5df2f36b617219204de98060,TCN,2024-06-21_10h46.39.220,LearnStrategy,2023.2.3,Win32,59.52380952,3,2,2,,,,,,,,3,08,,,,,,,,,,,1,1.135,0,,,,,,-0.378333321,-0.233333359,1,0,0,1.1348,Andesite_rect,1,0,1,0,1,
5df2f36b617219204de98060,TCN,2024-06-21_10h46.39.220,LearnStrategy,2023.2.3,Win32,59.52380952,3,2,3,,,,,,,,4,13,,,,,,,,,,,2,3.868,0,,,,,,-0.125833282,-0.246666718,1,0,0,3.8678,Basalt_rect,2,0,2,0,1,
5df2f36b617219204de98060,TCN,2024-06-21_10h46.39.220,LearnStrategy,2023.2.3,Win32,59.52380952,3,2,4,,,,,,,,2,05,,,,,,,,,,,2,3.784,1,,,,,,-0.074166641,-0.245,1,0,0,3.7841,Basalt_rect,3,0,3,0,1,
5df2f36b617219204de98060,TCN,2024-06-21_10h46.39.220,LearnStrategy,2023.2.3,Win32,59.52380952,3,2,5,,,,,,,,6,07,,,,,,,,,,,6,1.402,1,,,,,,-0.099166641,-0.413333359,1,0,0,1.4016,Pegmatite_rect,4,0,4,0,1,
5df2f36b617219204de98060,TCN,2024-06-21_10h46.39.220,LearnStrategy,2023.2.3,Win32,59.52380952,3,2,6,,,,,,,,8,14,,,,,,,,,,,8,1.069,1,,,,,,0.34,-0.380833359,1,0,0,1.0688,Pumice_rect,5,0,5,0,1,
5df2f36b617219204de98060,TCN,2024-06-21_10h46.39.220,LearnStrategy,2023.2.3,Win32,59.52380952,3,2,7,,,,,,,,5,14,,,,,,,,,,,5,0.952,1,,,,,,-0.3625,-0.41,1,0,0,0.9518,Obsidian_rect,6,0,6,0,1,
5df2f36b617219204de98060,TCN,2024-06-21_10h46.39.220,LearnStrategy,2023.2.3,Win32,59.52380952,3,2,8,,,,,,,,5,12,,,,,,,,,,,5,0.885,1,,,,,,-0.398333321,-0.405833359,1,0,0,0.885,Obsidian_rect,7,0,7,0,1,
5df2f36b617219204de98060,TCN,2024-06-21_10h46.39.220,LearnStrategy,2023.2.3,Win32,59.52380952,3,2,9,,,,,,,,8,03,,,,,,,,,,,8,2.05,1,,,,,,0.331666718,-0.400833359,1,0,0,2.0499,Pumice_rect,8,0,8,0,1,
5df2f36b617219204de98060,TCN,2024-06-21_10h46.39.220,LearnStrategy,2023.2.3,Win32,59.52380952,3,2,10,,,,,,,,2,09,,,,,,,,,,,4,1.249,0,,,,,,0.3875,-0.244166718,1,0,0,1.2489,Gabbro_rect,9,0,9,0,1,
5df2f36b617219204de98060,TCN,2024-06-21_10h46.39.220,LearnStrategy,2023.2.3,Win32,59.52380952,3,2,11,,,,,,,,1,10,,,,,,,,,,,2,1.151,0,,,,,,-0.1775,-0.248333359,1,0,0,1.1509,Basalt_rect,10,0,10,0,1,
5df2f36b617219204de98060,TCN,2024-06-21_10h46.39.220,LearnStrategy,2023.2.3,Win32,59.52380952,3,2,12,,,,,,,,7,07,,,,,,,,,,,1,1.168,0,,,,,,-0.458333321,-0.248333359,1,0,0,1.1685,Andesite_rect,11,0,11,0,1,
5df2f36b617219204de98060,TCN,2024-06-21_10h46.39.220,LearnStrategy,2023.2.3,Win32,59.52380952,3,2,13,,,,,,,,3,12,,,,,,,,,,,3,2.734,1,,,,,,0.13,-0.2425,1,0,0,2.7342,Diorite_rect,12,0,12,0,1,
5df2f36b617219204de98060,TCN,2024-06-21_10h46.39.220,LearnStrategy,2023.2.3,Win32,59.52380952,3,2,14,,,,,,,,4,09,,,,,,,,,,,2,4.003,0,,,,,,-0.206666641,-0.2525,1,0,0,4.0026,Basalt_rect,13,0,13,0,1,
5df2f36b617219204de98060,TCN,2024-06-21_10h46.39.220,LearnStrategy,2023.2.3,Win32,59.52380952,3,2,15,,,,,,,,7,05,,,,,,,,,,,7,3.184,1,,,,,,0.109166718,-0.399166718,1,0,0,3.1838,Peridotite_rect,14,0,14,0,1,
5df2f36b617219204de98060,TCN,2024-06-21_10h46.39.220,LearnStrategy,2023.2.3,Win32,59.52380952,3,2,16,,,,,,,,1,09,,,,,,,,,,,4,4.618,0,,,,,,0.34,-0.2325,1,0,0,4.6184,Gabbro_rect,15,0,15,0,1,
5df2f36b617219204de98060,TCN,2024-06-21_10h46.39.220,LearnStrategy,2023.2.3,Win32,59.52380952,4,1,1,-0.0875,0.011666641,1,0,0,1.0709,rock_grid_rect_2,6,16,-1,-1,1.071,-0.1575,-0.3925,1,0,0,2.8121,Pegmatite_rect,6,2.812,1,0,0,0,0,1,,,,,,,,,,,,,
5df2f36b617219204de98060,TCN,2024-06-21_10h46.39.220,LearnStrategy,2023.2.3,Win32,59.52380952,4,1,2,0.003333359,0.021666641,1,0,0,1.0212,rock_grid_rect_2,6,06,-1,-1,1.021,0.164166718,-0.24,1,0,0,2.5634,Diorite_rect,3,2.563,0,1,0,1,0,1,,,,,,,,,,,,,
5df2f36b617219204de98060,TCN,2024-06-21_10h46.39.220,LearnStrategy,2023.2.3,Win32,59.52380952,4,1,3,-0.06,-0.0125,1,0,0,0.8202,rock_grid_rect_2,1,01,-1,-1,0.82,-0.108333282,-0.255,1,0,0,1.1631,Basalt_rect,2,1.163,0,2,0,2,0,1,,,,,,,,,,,,,
5df2f36b617219204de98060,TCN,2024-06-21_10h46.39.220,LearnStrategy,2023.2.3,Win32,59.52380952,4,1,4,0.025,-0.025,1,0,0,0.906,rock_grid_rect_2,2,14,-1,-1,0.906,0.381666718,-0.25,1,0,0,2.7284,Gabbro_rect,4,2.728,0,3,0,3,0,1,,,,,,,,,,,,,
5df2f36b617219204de98060,TCN,2024-06-21_10h46.39.220,LearnStrategy,2023.2.3,Win32,59.52380952,4,1,5,-0.039166641,0.015,1,0,0,0.681,rock_grid_rect_2,5,11,-1,-1,0.681,-0.375833321,-0.4,1,0,0,1.1184,Obsidian_rect,5,1.118,1,4,0,4,0,1,,,,,,,,,,,,,
5df2f36b617219204de98060,TCN,2024-06-21_10h46.39.220,LearnStrategy,2023.2.3,Win32,59.52380952,4,1,6,-0.048333282,-0.0125,1,0,0,0.7223,rock_grid_rect_2,7,16,-1,-1,0.722,-0.179166641,-0.415833359,1,0,0,1.3117,Pegmatite_rect,6,1.312,0,5,0,5,0,1,,,,,,,,,,,,,
5df2f36b617219204de98060,TCN,2024-06-21_10h46.39.220,LearnStrategy,2023.2.3,Win32,59.52380952,4,1,7,-0.02,-0.015833359,1,0,0,0.8817,rock_grid_rect_2,7,14,-1,-1,0.882,0.1,-0.231666718,1,0,0,3.1513,Diorite_rect,3,3.151,0,6,0,6,0,1,,,,,,,,,,,,,
5df2f36b617219204de98060,TCN,2024-06-21_10h46.39.220,LearnStrategy,2023.2.3,Win32,59.52380952,4,1,8,-0.045833282,-0.008333359,1,0,0,0.6863,rock_grid_rect_2,4,15,-1,-1,0.686,-0.116666641,-0.253333359,1,0,0,2.2131,Basalt_rect,2,2.213,0,7,0,7,0,1,,,,,,,,,,,,,
5df2f36b617219204de98060,TCN,2024-06-21_10h46.39.220,LearnStrategy,2023.2.3,Win32,59.52380952,4,1,9,-0.040833282,-0.016666679,1,0,0,0.9154,rock_grid_rect_2,2,06,-1,-1,0.915,-0.110833282,-0.263333359,1,0,0,1.1011,Basalt_rect,2,1.101,1,8,0,8,0,1,,,,,,,,,,,,,
5df2f36b617219204de98060,TCN,2024-06-21_10h46.39.220,LearnStrategy,2023.2.3,Win32,59.52380952,4,1,10,-0.130833282,0.008333321,1,0,0,0.6964,rock_grid_rect_2,5,16,-1,-1,0.696,-0.443333321,-0.410833359,1,0,0,1.035,Obsidian_rect,5,1.035,1,9,0,9,0,1,,,,,,,,,,,,,
5df2f36b617219204de98060,TCN,2024-06-21_10h46.39.220,LearnStrategy,2023.2.3,Win32,59.52380952,4,1,11,-0.093333282,-0.0075,1,0,0,1.1153,rock_grid_rect_2,1,07,-1,-1,1.115,-0.42,-0.255,1,0,0,1.3676,Andesite_rect,1,1.368,1,10,0,10,0,1,,,,,,,,,,,,,
5df2f36b617219204de98060,TCN,2024-06-21_10h46.39.220,LearnStrategy,2023.2.3,Win32,59.52380952,4,1,12,-0.144166641,-0.005,1,0,0,1.0466,rock_grid_rect_2,8,13,-1,-1,1.047,0.3125,-0.400833359,1,0,0,0.9349,Pumice_rect,8,0.935,1,11,0,11,0,1,,,,,,,,,,,,,
5df2f36b617219204de98060,TCN,2024-06-21_10h46.39.220,LearnStrategy,2023.2.3,Win32,59.52380952,4,1,13,-0.0575,0.016666641,1,0,0,0.5554,rock_grid_rect_2,4,11,-1,-1,0.555,-0.115,-0.229166718,1,0,0,1.2113,Basalt_rect,2,1.211,0,12,0,12,0,1,,,,,,,,,,,,,
5df2f36b617219204de98060,TCN,2024-06-21_10h46.39.220,LearnStrategy,2023.2.3,Win32,59.52380952,4,1,14,-0.015,-0.0075,1,0,0,0.7153,rock_grid_rect_2,3,07,-1,-1,0.715,-0.4175,-0.2625,1,0,0,2.6183,Andesite_rect,1,2.618,0,13,0,13,0,1,,,,,,,,,,,,,
5df2f36b617219204de98060,TCN,2024-06-21_10h46.39.220,LearnStrategy,2023.2.3,Win32,59.52380952,4,1,15,-0.146666641,0.001666641,1,0,0,0.7528,rock_grid_rect_2,3,11,-1,-1,0.753,-0.381666641,-0.233333359,1,0,0,1.0462,Andesite_rect,1,1.046,0,14,0,14,0,1,,,,,,,,,,,,,
5df2f36b617219204de98060,TCN,2024-06-21_10h46.39.220,LearnStrategy,2023.2.3,Win32,59.52380952,4,1,16,-0.084166641,-0.018333359,1,0,0,0.7321,rock_grid_rect_2,8,04,-1,-1,0.732,0.335833359,-0.395833359,1,0,0,1.0515,Pumice_rect,8,1.052,1,15,0,15,0,1,,,,,,,,,,,,,
5df2f36b617219204de98060,TCN,2024-06-21_10h46.39.220,LearnStrategy,2023.2.3,Win32,59.52380952,4,2,1,,,,,,,,1,03,,,,,,,,,,,2,1.785,0,,,,,,-0.094166641,-0.2325,1,0,0,1.7847,Basalt_rect,0,0,0,0,1,
5df2f36b617219204de98060,TCN,2024-06-21_10h46.39.220,LearnStrategy,2023.2.3,Win32,59.52380952,4,2,2,,,,,,,,8,03,,,,,,,,,,,8,1.383,1,,,,,,0.306666718,-0.4125,1,0,0,1.383,Pumice_rect,1,0,1,0,1,
5df2f36b617219204de98060,TCN,2024-06-21_10h46.39.220,LearnStrategy,2023.2.3,Win32,59.52380952,4,2,3,,,,,,,,7,06,,,,,,,,,,,6,1.467,0,,,,,,-0.165833321,-0.410833359,1,0,0,1.4669,Pegmatite_rect,2,0,2,0,1,
5df2f36b617219204de98060,TCN,2024-06-21_10h46.39.220,LearnStrategy,2023.2.3,Win32,59.52380952,4,2,4,,,,,,,,6,15,,,,,,,,,,,6,0.867,1,,,,,,-0.165833321,-0.41,1,0,0,0.867,Pegmatite_rect,3,0,3,0,1,
5df2f36b617219204de98060,TCN,2024-06-21_10h46.39.220,LearnStrategy,2023.2.3,Win32,59.52380952,4,2,5,,,,,,,,3,08,,,,,,,,,,,3,1.883,1,,,,,,0.095833359,-0.228333359,1,0,0,1.8827,Diorite_rect,4,0,4,0,1,
5df2f36b617219204de98060,TCN,2024-06-21_10h46.39.220,LearnStrategy,2023.2.3,Win32,59.52380952,4,2,6,,,,,,,,2,05,,,,,,,,,,,2,1.346,1,,,,,,-0.1325,-0.25,1,0,0,1.3461,Basalt_rect,5,0,5,0,1,
5df2f36b617219204de98060,TCN,2024-06-21_10h46.39.220,LearnStrategy,2023.2.3,Win32,59.52380952,4,2,7,,,,,,,,3,15,,,,,,,,,,,3,2.285,1,,,,,,0.08,-0.245,1,0,0,2.285,Diorite_rect,6,0,6,0,1,
5df2f36b617219204de98060,TCN,2024-06-21_10h46.39.220,LearnStrategy,2023.2.3,Win32,59.52380952,4,2,8,,,,,,,,8,14,,,,,,,,,,,8,1.002,1,,,,,,0.3875,-0.419166718,1,0,0,1.0019,Pumice_rect,7,0,7,0,1,
5df2f36b617219204de98060,TCN,2024-06-21_10h46.39.220,LearnStrategy,2023.2.3,Win32,59.52380952,4,2,9,,,,,,,,4,09,,,,,,,,,,,4,3.319,1,,,,,,0.345,-0.228333359,1,0,0,3.3188,Gabbro_rect,8,0,8,0,1,
5df2f36b617219204de98060,TCN,2024-06-21_10h46.39.220,LearnStrategy,2023.2.3,Win32,59.52380952,4,2,10,,,,,,,,2,09,,,,,,,,,,,2,2.138,1,,,,,,-0.089166641,-0.2675,1,0,0,2.1378,Basalt_rect,9,0,9,0,1,
5df2f36b617219204de98060,TCN,2024-06-21_10h46.39.220,LearnStrategy,2023.2.3,Win32,59.52380952,4,2,11,,,,,,,,5,08,,,,,,,,,,,5,1.652,1,,,,,,-0.470833321,-0.405833359,1,0,0,1.6519,Obsidian_rect,10,0,10,0,1,
5df2f36b617219204de98060,TCN,2024-06-21_10h46.39.220,LearnStrategy,2023.2.3,Win32,59.52380952,4,2,12,,,,,,,,6,08,,,,,,,,,,,6,1.801,1,,,,,,-0.139166641,-0.421666718,1,0,0,1.8006,Pegmatite_rect,11,0,11,0,1,
5df2f36b617219204de98060,TCN,2024-06-21_10h46.39.220,LearnStrategy,2023.2.3,Win32,59.52380952,4,2,13,,,,,,,,4,13,,,,,,,,,,,1,2.483,0,,,,,,-0.399166641,-0.255833359,1,0,0,2.4834,Andesite_rect,12,0,12,0,1,
5df2f36b617219204de98060,TCN,2024-06-21_10h46.39.220,LearnStrategy,2023.2.3,Win32,59.52380952,4,2,14,,,,,,,,1,09,,,,,,,,,,,4,3.051,0,,,,,,0.408333359,-0.241666718,1,0,0,3.0508,Gabbro_rect,13,0,13,0,1,
5df2f36b617219204de98060,TCN,2024-06-21_10h46.39.220,LearnStrategy,2023.2.3,Win32,59.52380952,4,2,15,,,,,,,,5,06,,,,,,,,,,,5,1.436,1,,,,,,-0.364166641,-0.409166718,1,0,0,1.4358,Obsidian_rect,14,0,14,0,1,
5df2f36b617219204de98060,TCN,2024-06-21_10h46.39.220,LearnStrategy,2023.2.3,Win32,59.52380952,4,2,16,,,,,,,,7,13,,,,,,,,,,,6,0.984,0,,,,,,-0.18,-0.416666718,1,0,0,0.9844,Pegmatite_rect,15,0,15,0,1,
5df2f36b617219204de98060,TCN,2024-06-21_10h46.39.220,LearnStrategy,2023.2.3,Win32,59.52380952,5,1,1,-0.113333282,-0.000833359,1,0,0,1.049,rock_grid_rect_2,2,12,-1,-1,1.049,-0.129166641,-0.258333359,1,0,0,1.9464,Basalt_rect,2,1.946,1,0,0,0,0,1,,,,,,,,,,,,,
5df2f36b617219204de98060,TCN,2024-06-21_10h46.39.220,LearnStrategy,2023.2.3,Win32,59.52380952,5,1,2,-0.1025,-0.019166679,1,0,0,1.0323,rock_grid_rect_2,6,11,-1,-1,1.032,-0.133333282,-0.381666718,1,0,0,0.9679,Pegmatite_rect,6,0.968,1,1,0,1,0,1,,,,,,,,,,,,,
5df2f36b617219204de98060,TCN,2024-06-21_10h46.39.220,LearnStrategy,2023.2.3,Win32,59.52380952,5,1,3,-0.1025,0.020833321,1,0,0,0.6491,rock_grid_rect_2,2,02,-1,-1,0.649,-0.120833282,-0.2425,1,0,0,0.7855,Basalt_rect,2,0.786,1,2,0,2,0,1,,,,,,,,,,,,,
5df2f36b617219204de98060,TCN,2024-06-21_10h46.39.220,LearnStrategy,2023.2.3,Win32,59.52380952,5,1,4,-0.14,-0.013333359,1,0,0,0.5714,rock_grid_rect_2,3,02,-1,-1,0.571,-0.409166641,-0.2425,1,0,0,1.3134,Andesite_rect,1,1.313,0,3,0,3,0,1,,,,,,,,,,,,,
5df2f36b617219204de98060,TCN,2024-06-21_10h46.39.220,LearnStrategy,2023.2.3,Win32,59.52380952,5,1,5,-0.116666641,-0.0175,1,0,0,0.6655,rock_grid_rect_2,8,10,-1,-1,0.666,0.413333359,-0.38,1,0,0,0.9696,Pumice_rect,8,0.97,1,4,0,4,0,1,,,,,,,,,,,,,
5df2f36b617219204de98060,TCN,2024-06-21_10h46.39.220,LearnStrategy,2023.2.3,Win32,59.52380952,5,1,6,-0.075,-0.014166679,1,0,0,0.7485,rock_grid_rect_2,8,05,-1,-1,0.749,0.309166718,-0.378333359,1,0,0,0.9511,Pumice_rect,8,0.951,1,5,0,5,0,1,,,,,,,,,,,,,
5df2f36b617219204de98060,TCN,2024-06-21_10h46.39.220,LearnStrategy,2023.2.3,Win32,59.52380952,5,1,7,-0.0975,0,1,0,0,0.7874,rock_grid_rect_2,1,06,-1,-1,0.787,-0.344166641,-0.236666718,1,0,0,1.28,Andesite_rect,1,1.28,1,6,0,6,0,1,,,,,,,,,,,,,
5df2f36b617219204de98060,TCN,2024-06-21_10h46.39.220,LearnStrategy,2023.2.3,Win32,59.52380952,5,1,8,-0.128333282,0.014166641,1,0,0,0.938,rock_grid_rect_2,6,10,-1,-1,0.938,-0.1075,-0.379166718,1,0,0,1.0463,Pegmatite_rect,6,1.046,1,7,0,7,0,1,,,,,,,,,,,,,
5df2f36b617219204de98060,TCN,2024-06-21_10h46.39.220,LearnStrategy,2023.2.3,Win32,59.52380952,5,1,9,-0.153333282,0.014166641,1,0,0,0.7214,rock_grid_rect_2,5,09,-1,-1,0.721,-0.331666641,-0.400833359,1,0,0,0.8958,Obsidian_rect,5,0.896,1,8,0,8,0,1,,,,,,,,,,,,,
5df2f36b617219204de98060,TCN,2024-06-21_10h46.39.220,LearnStrategy,2023.2.3,Win32,59.52380952,5,1,10,-0.071666641,0.001666641,1,0,0,0.954,rock_grid_rect_2,7,15,-1,-1,0.954,-0.415,-0.236666718,1,0,0,1.0138,Andesite_rect,1,1.014,0,9,0,9,0,1,,,,,,,,,,,,,
5df2f36b617219204de98060,TCN,2024-06-21_10h46.39.220,LearnStrategy,2023.2.3,Win32,59.52380952,5,1,11,-0.064166641,0.004166641,1,0,0,0.686,rock_grid_rect_2,1,16,-1,-1,0.686,-0.403333321,-0.248333359,1,0,0,0.9471,Andesite_rect,1,0.947,1,10,0,10,0,1,,,,,,,,,,,,,
5df2f36b617219204de98060,TCN,2024-06-21_10h46.39.220,LearnStrategy,2023.2.3,Win32,59.52380952,5,1,12,-0.003333282,-0.006666679,1,0,0,0.7529,rock_grid_rect_2,4,10,-1,-1,0.753,-0.078333282,-0.265833359,1,0,0,2.3306,Basalt_rect,2,2.331,0,11,0,11,0,1,,,,,,,,,,,,,
5df2f36b617219204de98060,TCN,2024-06-21_10h46.39.220,LearnStrategy,2023.2.3,Win32,59.52380952,5,1,13,-0.019166641,-0.008333359,1,0,0,0.6477,rock_grid_rect_2,5,10,-1,-1,0.648,-0.354166641,-0.413333359,1,0,0,1.2173,Obsidian_rect,5,1.217,1,12,0,12,0,1,,,,,,,,,,,,,
5df2f36b617219204de98060,TCN,2024-06-21_10h46.39.220,LearnStrategy,2023.2.3,Win32,59.52380952,5,1,14,-0.065833282,0.015833321,1,0,0,0.6036,rock_grid_rect_2,7,02,-1,-1,0.604,-0.228333321,-0.3825,1,0,0,2.8799,Pegmatite_rect,6,2.88,0,13,0,13,0,1,,,,,,,,,,,,,
5df2f36b617219204de98060,TCN,2024-06-21_10h46.39.220,LearnStrategy,2023.2.3,Win32,59.52380952,5,1,15,-0.0775,-0.013333359,1,0,0,0.9373,rock_grid_rect_2,4,05,-1,-1,0.937,-0.174166641,-0.271666718,1,0,0,1.4963,Basalt_rect,2,1.496,0,14,0,14,0,1,,,,,,,,,,,,,
5df2f36b617219204de98060,TCN,2024-06-21_10h46.39.220,LearnStrategy,2023.2.3,Win32,59.52380952,5,1,16,0.010833359,0.0025,1,0,0,0.6382,rock_grid_rect_2,3,09,-1,-1,0.638,-0.346666641,-0.258333359,1,0,0,2.3619,Andesite_rect,1,2.362,0,15,0,15,0,1,,,,,,,,,,,,,
5df2f36b617219204de98060,TCN,2024-06-21_10h46.39.220,LearnStrategy,2023.2.3,Win32,59.52380952,5,2,1,,,,,,,,7,05,,,,,,,,,,,3,6.517,0,,,,,,0.074166718,-0.260833359,1,0,0,6.5174,Diorite_rect,0,0,0,0,1,
5df2f36b617219204de98060,TCN,2024-06-21_10h46.39.220,LearnStrategy,2023.2.3,Win32,59.52380952,5,2,2,,,,,,,,8,02,,,,,,,,,,,8,1.08,1,,,,,,0.415833359,-0.4125,1,0,0,1.08,Pumice_rect,1,0,1,0,1,
5df2f36b617219204de98060,TCN,2024-06-21_10h46.39.220,LearnStrategy,2023.2.3,Win32,59.52380952,5,2,3,,,,,,,,3,06,,,,,,,,,,,3,2.702,1,,,,,,0.14,-0.231666718,1,0,0,2.7016,Diorite_rect,2,0,2,0,1,
5df2f36b617219204de98060,TCN,2024-06-21_10h46.39.220,LearnStrategy,2023.2.3,Win32,59.52380952,5,2,4,,,,,,,,6,05,,,,,,,,,,,7,10.351,0,,,,,,0.071666718,-0.396666718,1,0,0,10.3514,Peridotite_rect,3,0,3,0,1,
5df2f36b617219204de98060,TCN,2024-06-21_10h46.39.220,LearnStrategy,2023.2.3,Win32,59.52380952,5,2,5,,,,,,,,7,04,,,,,,,,,,,7,2.129,1,,,,,,0.0675,-0.409166718,1,0,0,2.1287,Peridotite_rect,4,0,4,0,1,
5df2f36b617219204de98060,TCN,2024-06-21_10h46.39.220,LearnStrategy,2023.2.3,Win32,59.52380952,5,2,6,,,,,,,,1,02,,,,,,,,,,,1,2.834,1,,,,,,-0.376666641,-0.255833359,1,0,0,2.8344,Andesite_rect,5,0,5,0,1,
5df2f36b617219204de98060,TCN,2024-06-21_10h46.39.220,LearnStrategy,2023.2.3,Win32,59.52380952,5,2,7,,,,,,,,5,12,,,,,,,,,,,5,1.202,1,,,,,,-0.385833321,-0.391666718,1,0,0,1.2015,Obsidian_rect,6,0,6,0,1,
5df2f36b617219204de98060,TCN,2024-06-21_10h46.39.220,LearnStrategy,2023.2.3,Win32,59.52380952,5,2,8,,,,,,,,2,11,,,,,,,,,,,4,1.951,0,,,,,,0.378333359,-0.2325,1,0,0,1.9506,Gabbro_rect,7,0,7,0,1,
5df2f36b617219204de98060,TCN,2024-06-21_10h46.39.220,LearnStrategy,2023.2.3,Win32,59.52380952,5,2,9,,,,,,,,4,08,,,,,,,,,,,4,0.879,1,,,,,,0.373333359,-0.2325,1,0,0,0.879,Gabbro_rect,8,0,8,0,1,
5df2f36b617219204de98060,TCN,2024-06-21_10h46.39.220,LearnStrategy,2023.2.3,Win32,59.52380952,5,2,10,,,,,,,,2,04,,,,,,,,,,,2,0.801,1,,,,,,-0.135,-0.256666718,1,0,0,0.8007,Basalt_rect,9,0,9,0,1,
5df2f36b617219204de98060,TCN,2024-06-21_10h46.39.220,LearnStrategy,2023.2.3,Win32,59.52380952,5,2,11,,,,,,,,4,14,,,,,,,,,,,2,0.901,0,,,,,,-0.134166641,-0.251666718,1,0,0,0.9008,Basalt_rect,10,0,10,0,1,
5df2f36b617219204de98060,TCN,2024-06-21_10h46.39.220,LearnStrategy,2023.2.3,Win32,59.52380952,5,2,12,,,,,,,,1,04,,,,,,,,,,,7,1.6,0,,,,,,0.078333359,-0.403333359,1,0,0,1.6,Peridotite_rect,11,0,11,0,1,
5df2f36b617219204de98060,TCN,2024-06-21_10h46.39.220,LearnStrategy,2023.2.3,Win32,59.52380952,5,2,13,,,,,,,,6,09,,,,,,,,,,,6,1.1,1,,,,,,-0.151666641,-0.380833359,1,0,0,1.0996,Pegmatite_rect,12,0,12,0,1,
5df2f36b617219204de98060,TCN,2024-06-21_10h46.39.220,LearnStrategy,2023.2.3,Win32,59.52380952,5,2,14,,,,,,,,3,12,,,,,,,,,,,1,1.232,0,,,,,,-0.415833321,-0.241666718,1,0,0,1.2324,Andesite_rect,13,0,13,0,1,
5df2f36b617219204de98060,TCN,2024-06-21_10h46.39.220,LearnStrategy,2023.2.3,Win32,59.52380952,5,2,15,,,,,,,,8,09,,,,,,,,,,,8,0.985,1,,,,,,0.411666718,-0.419166718,1,0,0,0.985,Pumice_rect,14,0,14,0,1,
5df2f36b617219204de98060,TCN,2024-06-21_10h46.39.220,LearnStrategy,2023.2.3,Win32,59.52380952,5,2,16,,,,,,,,5,02,,,,,,,,,,,5,0.851,1,,,,,,-0.440833321,-0.419166718,1,0,0,0.8505,Obsidian_rect,15,0,15,0,1,
5df2f36b617219204de98060,TCN,2024-06-21_10h46.39.220,LearnStrategy,2023.2.3,Win32,59.52380952,6,1,1,-0.121666641,-0.000833359,1,0,0,1.3488,rock_grid_rect_2,4,16,-1,-1,1.349,-0.1,-0.245833359,1,0,0,1.5458,Basalt_rect,2,1.546,0,0,0,0,0,1,,,,,,,,,,,,,
5df2f36b617219204de98060,TCN,2024-06-21_10h46.39.220,LearnStrategy,2023.2.3,Win32,59.52380952,6,1,2,-0.1275,0,1,0,0,0.6819,rock_grid_rect_2,6,13,-1,-1,0.682,0.08,-0.25,1,0,0,2.946,Diorite_rect,3,2.946,0,1,0,1,0,1,,,,,,,,,,,,,
5df2f36b617219204de98060,TCN,2024-06-21_10h46.39.220,LearnStrategy,2023.2.3,Win32,59.52380952,6,1,3,-0.08,0.000833321,1,0,0,0.7661,rock_grid_rect_2,6,03,-1,-1,0.766,-0.074166641,-0.401666718,1,0,0,1.695,Pegmatite_rect,6,1.695,1,2,0,2,0,1,,,,,,,,,,,,,
5df2f36b617219204de98060,TCN,2024-06-21_10h46.39.220,LearnStrategy,2023.2.3,Win32,59.52380952,6,1,4,-0.100833282,-0.0175,1,0,0,0.5316,rock_grid_rect_2,3,16,-1,-1,0.532,-0.358333321,-0.235,1,0,0,1.2291,Andesite_rect,1,1.229,0,3,0,3,0,1,,,,,,,,,,,,,
5df2f36b617219204de98060,TCN,2024-06-21_10h46.39.220,LearnStrategy,2023.2.3,Win32,59.52380952,6,1,5,-0.0575,0,1,0,0,0.6492,rock_grid_rect_2,5,05,-1,-1,0.649,-0.3475,-0.389166718,1,0,0,0.8961,Obsidian_rect,5,0.896,1,4,0,4,0,1,,,,,,,,,,,,,
5df2f36b617219204de98060,TCN,2024-06-21_10h46.39.220,LearnStrategy,2023.2.3,Win32,59.52380952,6,1,6,0.0525,-0.01,1,0,0,0.6653,rock_grid_rect_2,8,15,-1,-1,0.665,0.4,-0.385,1,0,0,0.9959,Pumice_rect,8,0.996,1,5,0,5,0,1,,,,,,,,,,,,,
5df2f36b617219204de98060,TCN,2024-06-21_10h46.39.220,LearnStrategy,2023.2.3,Win32,59.52380952,6,1,7,-0.055833282,0.018333321,1,0,0,0.4648,rock_grid_rect_2,8,08,-1,-1,0.465,0.355833359,-0.395833359,1,0,0,1.746,Pumice_rect,8,1.746,1,6,0,6,0,1,,,,,,,,,,,,,
5df2f36b617219204de98060,TCN,2024-06-21_10h46.39.220,LearnStrategy,2023.2.3,Win32,59.52380952,6,1,8,0.009166718,-0.011666679,1,0,0,1.0157,rock_grid_rect_2,4,12,-1,-1,1.016,0.404166718,-0.244166718,1,0,0,1.6627,Gabbro_rect,4,1.663,1,7,0,7,0,1,,,,,,,,,,,,,
5df2f36b617219204de98060,TCN,2024-06-21_10h46.39.220,LearnStrategy,2023.2.3,Win32,59.52380952,6,1,9,-0.026666641,-0.0125,1,0,0,0.7493,rock_grid_rect_2,1,11,-1,-1,0.749,0.114166718,-0.389166718,1,0,0,4.2962,Peridotite_rect,7,4.296,0,8,0,8,0,1,,,,,,,,,,,,,
5df2f36b617219204de98060,TCN,2024-06-21_10h46.39.220,LearnStrategy,2023.2.3,Win32,59.52380952,6,1,10,-0.0875,-0.0125,1,0,0,0.6649,rock_grid_rect_2,1,05,-1,-1,0.665,0.208333359,-0.414166718,1,0,0,1.5295,Peridotite_rect,7,1.529,0,9,0,9,0,1,,,,,,,,,,,,,
5df2f36b617219204de98060,TCN,2024-06-21_10h46.39.220,LearnStrategy,2023.2.3,Win32,59.52380952,6,1,11,-0.009166641,-0.024166679,1,0,0,0.6323,rock_grid_rect_2,7,10,-1,-1,0.632,-0.121666641,-0.388333359,1,0,0,1.2128,Pegmatite_rect,6,1.213,0,10,0,10,0,1,,,,,,,,,,,,,
5df2f36b617219204de98060,TCN,2024-06-21_10h46.39.220,LearnStrategy,2023.2.3,Win32,59.52380952,6,1,12,-0.039166641,-0.01,1,0,0,1.0313,rock_grid_rect_2,7,12,-1,-1,1.031,0.1125,-0.393333359,1,0,0,1.1627,Peridotite_rect,7,1.163,1,11,0,11,0,1,,,,,,,,,,,,,
5df2f36b617219204de98060,TCN,2024-06-21_10h46.39.220,LearnStrategy,2023.2.3,Win32,59.52380952,6,1,13,-0.031666641,0.0125,1,0,0,0.5826,rock_grid_rect_2,2,08,-1,-1,0.583,-0.135833282,-0.2375,1,0,0,2.0288,Basalt_rect,2,2.029,1,12,0,12,0,1,,,,,,,,,,,,,
5df2f36b617219204de98060,TCN,2024-06-21_10h46.39.220,LearnStrategy,2023.2.3,Win32,59.52380952,6,1,14,-0.076666641,0.019166641,1,0,0,0.7815,rock_grid_rect_2,5,07,-1,-1,0.782,-0.383333321,-0.401666718,1,0,0,1.0462,Obsidian_rect,5,1.046,1,13,0,13,0,1,,,,,,,,,,,,,
5df2f36b617219204de98060,TCN,2024-06-21_10h46.39.220,LearnStrategy,2023.2.3,Win32,59.52380952,6,1,15,-0.0875,-0.005833359,1,0,0,0.6493,rock_grid_rect_2,3,14,-1,-1,0.649,0.043333359,-0.245833359,1,0,0,1.496,Diorite_rect,3,1.496,1,14,0,14,0,1,,,,,,,,,,,,,
5df2f36b617219204de98060,TCN,2024-06-21_10h46.39.220,LearnStrategy,2023.2.3,Win32,59.52380952,6,1,16,-0.095833282,-0.018333359,1,0,0,0.6814,rock_grid_rect_2,2,10,-1,-1,0.681,-0.1625,-0.260833359,1,0,0,2.3465,Basalt_rect,2,2.346,1,15,0,15,0,1,,,,,,,,,,,,,
5df2f36b617219204de98060,TCN,2024-06-21_10h46.39.220,LearnStrategy,2023.2.3,Win32,59.52380952,6,2,1,,,,,,,,4,01,,,,,,,,,,,7,11.046,0,,,,,,0.105833359,-0.409166718,1,0,0,11.046,Peridotite_rect,0,0,0,0,1,
5df2f36b617219204de98060,TCN,2024-06-21_10h46.39.220,LearnStrategy,2023.2.3,Win32,59.52380952,6,2,2,,,,,,,,2,16,,,,,,,,,,,2,1.074,1,,,,,,-0.123333282,-0.230833359,1,0,0,1.0736,Basalt_rect,1,0,1,0,1,
5df2f36b617219204de98060,TCN,2024-06-21_10h46.39.220,LearnStrategy,2023.2.3,Win32,59.52380952,6,2,3,,,,,,,,6,12,,,,,,,,,,,3,4.546,0,,,,,,0.084166718,-0.265833359,1,0,0,4.5458,Diorite_rect,2,0,2,0,1,
5df2f36b617219204de98060,TCN,2024-06-21_10h46.39.220,LearnStrategy,2023.2.3,Win32,59.52380952,6,2,4,,,,,,,,7,07,,,,,,,,,,,7,0.974,1,,,,,,0.065833359,-0.38,1,0,0,0.9735,Peridotite_rect,3,0,3,0,1,
5df2f36b617219204de98060,TCN,2024-06-21_10h46.39.220,LearnStrategy,2023.2.3,Win32,59.52380952,6,2,5,,,,,,,,2,01,,,,,,,,,,,2,0.878,1,,,,,,-0.1325,-0.244166718,1,0,0,0.8784,Basalt_rect,4,0,4,0,1,
5df2f36b617219204de98060,TCN,2024-06-21_10h46.39.220,LearnStrategy,2023.2.3,Win32,59.52380952,6,2,6,,,,,,,,1,10,,,,,,,,,,,4,1.395,0,,,,,,0.3375,-0.270833359,1,0,0,1.3952,Gabbro_rect,5,0,5,0,1,
5df2f36b617219204de98060,TCN,2024-06-21_10h46.39.220,LearnStrategy,2023.2.3,Win32,59.52380952,6,2,7,,,,,,,,7,08,,,,,,,,,,,7,1.262,1,,,,,,0.146666718,-0.398333359,1,0,0,1.2616,Peridotite_rect,6,0,6,0,1,
5df2f36b617219204de98060,TCN,2024-06-21_10h46.39.220,LearnStrategy,2023.2.3,Win32,59.52380952,6,2,8,,,,,,,,1,14,,,,,,,,,,,1,3.629,1,,,,,,-0.415833321,-0.2525,1,0,0,3.6287,Andesite_rect,7,0,7,0,1,
5df2f36b617219204de98060,TCN,2024-06-21_10h46.39.220,LearnStrategy,2023.2.3,Win32,59.52380952,6,2,9,,,,,,,,3,10,,,,,,,,,,,1,0.974,0,,,,,,-0.404166641,-0.250833359,1,0,0,0.9737,Andesite_rect,8,0,8,0,1,
5df2f36b617219204de98060,TCN,2024-06-21_10h46.39.220,LearnStrategy,2023.2.3,Win32,59.52380952,6,2,10,,,,,,,,3,13,,,,,,,,,,,3,1.713,1,,,,,,0.056666718,-0.255833359,1,0,0,1.7125,Diorite_rect,9,0,9,0,1,
5df2f36b617219204de98060,TCN,2024-06-21_10h46.39.220,LearnStrategy,2023.2.3,Win32,59.52380952,6,2,11,,,,,,,,5,04,,,,,,,,,,,5,1.079,1,,,,,,-0.396666641,-0.409166718,1,0,0,1.0792,Obsidian_rect,10,0,10,0,1,
5df2f36b617219204de98060,TCN,2024-06-21_10h46.39.220,LearnStrategy,2023.2.3,Win32,59.52380952,6,2,12,,,,,,,,8,06,,,,,,,,,,,8,1.011,1,,,,,,0.399166718,-0.383333359,1,0,0,1.0115,Pumice_rect,11,0,11,0,1,
5df2f36b617219204de98060,TCN,2024-06-21_10h46.39.220,LearnStrategy,2023.2.3,Win32,59.52380952,6,2,13,,,,,,,,6,07,,,,,,,,,,,6,1.512,1,,,,,,-0.1275,-0.404166718,1,0,0,1.5119,Pegmatite_rect,12,0,12,0,1,
5df2f36b617219204de98060,TCN,2024-06-21_10h46.39.220,LearnStrategy,2023.2.3,Win32,59.52380952,6,2,14,,,,,,,,5,14,,,,,,,,,,,5,1.129,1,,,,,,-0.378333321,-0.398333359,1,0,0,1.1285,Obsidian_rect,13,0,13,0,1,
5df2f36b617219204de98060,TCN,2024-06-21_10h46.39.220,LearnStrategy,2023.2.3,Win32,59.52380952,6,2,15,,,,,,,,8,16,,,,,,,,,,,8,1.329,1,,,,,,0.4225,-0.395833359,1,0,0,1.329,Pumice_rect,14,0,14,0,1,
5df2f36b617219204de98060,TCN,2024-06-21_10h46.39.220,LearnStrategy,2023.2.3,Win32,59.52380952,6,2,16,,,,,,,,4,03,,,,,,,,,,,4,1.496,1,,,,,,0.420833359,-0.2625,1,0,0,1.4965,Gabbro_rect,15,0,15,0,1,
5df2f36b617219204de98060,TCN,2024-06-21_10h46.39.220,LearnStrategy,2023.2.3,Win32,59.52380952,7,1,1,-0.091666641,0.0025,1,0,0,0.8321,rock_grid_rect_2,5,11,-1,-1,0.832,-0.371666641,-0.409166718,1,0,0,2.1783,Obsidian_rect,5,2.178,1,0,0,0,0,1,,,,,,,,,,,,,
5df2f36b617219204de98060,TCN,2024-06-21_10h46.39.220,LearnStrategy,2023.2.3,Win32,59.52380952,7,1,2,-0.068333282,-0.0075,1,0,0,0.5993,rock_grid_rect_2,7,15,-1,-1,0.599,0.161666718,-0.3825,1,0,0,1.0794,Peridotite_rect,7,1.079,1,1,0,1,0,1,,,,,,,,,,,,,
5df2f36b617219204de98060,TCN,2024-06-21_10h46.39.220,LearnStrategy,2023.2.3,Win32,59.52380952,7,1,3,-0.0375,-0.005833359,1,0,0,0.6486,rock_grid_rect_2,4,12,-1,-1,0.649,0.409166718,-0.253333359,1,0,0,0.8957,Gabbro_rect,4,0.896,1,2,0,2,0,1,,,,,,,,,,,,,
5df2f36b617219204de98060,TCN,2024-06-21_10h46.39.220,LearnStrategy,2023.2.3,Win32,59.52380952,7,1,4,-0.076666641,0.004166641,1,0,0,0.5816,rock_grid_rect_2,6,11,-1,-1,0.582,-0.194166641,-0.409166718,1,0,0,1.096,Pegmatite_rect,6,1.096,1,3,0,3,0,1,,,,,,,,,,,,,
5df2f36b617219204de98060,TCN,2024-06-21_10h46.39.220,LearnStrategy,2023.2.3,Win32,59.52380952,7,1,5,-0.0075,0.008333321,1,0,0,0.782,rock_grid_rect_2,2,14,-1,-1,0.782,-0.1225,-0.2675,1,0,0,1.1798,Basalt_rect,2,1.18,1,4,0,4,0,1,,,,,,,,,,,,,
5df2f36b617219204de98060,TCN,2024-06-21_10h46.39.220,LearnStrategy,2023.2.3,Win32,59.52380952,7,1,6,-0.084166641,-0.011666679,1,0,0,0.6654,rock_grid_rect_2,2,10,-1,-1,0.665,-0.128333282,-0.238333359,1,0,0,1.1961,Basalt_rect,2,1.196,1,5,0,5,0,1,,,,,,,,,,,,,
5df2f36b617219204de98060,TCN,2024-06-21_10h46.39.220,LearnStrategy,2023.2.3,Win32,59.52380952,7,1,7,-0.093333282,-0.0075,1,0,0,0.7163,rock_grid_rect_2,8,05,-1,-1,0.716,0.360833359,-0.4,1,0,0,0.8954,Pumice_rect,8,0.895,1,6,0,6,0,1,,,,,,,,,,,,,
5df2f36b617219204de98060,TCN,2024-06-21_10h46.39.220,LearnStrategy,2023.2.3,Win32,59.52380952,7,1,8,-0.0625,-0.005,1,0,0,0.6485,rock_grid_rect_2,1,11,-1,-1,0.649,-0.4125,-0.268333359,1,0,0,1.0961,Andesite_rect,1,1.096,1,7,0,7,0,1,,,,,,,,,,,,,
5df2f36b617219204de98060,TCN,2024-06-21_10h46.39.220,LearnStrategy,2023.2.3,Win32,59.52380952,7,1,9,0.009166718,0.0025,1,0,0,0.6821,rock_grid_rect_2,1,07,-1,-1,0.682,0.068333359,-0.245833359,1,0,0,1.363,Diorite_rect,3,1.363,0,8,0,8,0,1,,,,,,,,,,,,,
5df2f36b617219204de98060,TCN,2024-06-21_10h46.39.220,LearnStrategy,2023.2.3,Win32,59.52380952,7,1,10,-0.113333282,0,1,0,0,0.6656,rock_grid_rect_2,8,13,-1,-1,0.666,0.37,-0.395833359,1,0,0,0.9959,Pumice_rect,8,0.996,1,9,0,9,0,1,,,,,,,,,,,,,
5df2f36b617219204de98060,TCN,2024-06-21_10h46.39.220,LearnStrategy,2023.2.3,Win32,59.52380952,7,1,11,-0.0275,0.0225,1,0,0,0.5153,rock_grid_rect_2,3,16,-1,-1,0.515,-0.341666641,-0.255833359,1,0,0,1.6467,Andesite_rect,1,1.647,0,10,0,10,0,1,,,,,,,,,,,,,
5df2f36b617219204de98060,TCN,2024-06-21_10h46.39.220,LearnStrategy,2023.2.3,Win32,59.52380952,7,1,12,-0.1425,-0.010833359,1,0,0,0.566,rock_grid_rect_2,5,16,-1,-1,0.566,-0.441666641,-0.401666718,1,0,0,1.0959,Obsidian_rect,5,1.096,1,11,0,11,0,1,,,,,,,,,,,,,
5df2f36b617219204de98060,TCN,2024-06-21_10h46.39.220,LearnStrategy,2023.2.3,Win32,59.52380952,7,1,13,-0.063333282,-0.010833359,1,0,0,0.5985,rock_grid_rect_2,6,13,-1,-1,0.599,-0.141666641,-0.405,1,0,0,1.1461,Pegmatite_rect,6,1.146,1,12,0,12,0,1,,,,,,,,,,,,,
5df2f36b617219204de98060,TCN,2024-06-21_10h46.39.220,LearnStrategy,2023.2.3,Win32,59.52380952,7,1,14,-0.023333282,0.0075,1,0,0,0.5326,rock_grid_rect_2,4,16,-1,-1,0.533,-0.150833282,-0.253333359,1,0,0,1.5122,Basalt_rect,2,1.512,0,13,0,13,0,1,,,,,,,,,,,,,
5df2f36b617219204de98060,TCN,2024-06-21_10h46.39.220,LearnStrategy,2023.2.3,Win32,59.52380952,7,1,15,-0.039166641,0.005833321,1,0,0,0.6654,rock_grid_rect_2,7,12,-1,-1,0.665,0.135833359,-0.393333359,1,0,0,1.062,Peridotite_rect,7,1.062,1,14,0,14,0,1,,,,,,,,,,,,,
5df2f36b617219204de98060,TCN,2024-06-21_10h46.39.220,LearnStrategy,2023.2.3,Win32,59.52380952,7,1,16,-0.0675,-0.015,1,0,0,0.5489,rock_grid_rect_2,3,14,-1,-1,0.549,0.09,-0.239166718,1,0,0,1.7796,Diorite_rect,3,1.78,1,15,0,15,0,1,,,,,,,,,,,,,
5df2f36b617219204de98060,TCN,2024-06-21_10h46.39.220,LearnStrategy,2023.2.3,Win32,59.52380952,7,2,1,,,,,,,,5,06,,,,,,,,,,,5,1.163,1,,,,,,-0.361666641,-0.405833359,1,0,0,1.1629,Obsidian_rect,0,0,0,0,1,
5df2f36b617219204de98060,TCN,2024-06-21_10h46.39.220,LearnStrategy,2023.2.3,Win32,59.52380952,7,2,2,,,,,,,,1,10,,,,,,,,,,,4,1.479,0,,,,,,0.353333359,-0.234166718,1,0,0,1.4788,Gabbro_rect,1,0,1,0,1,
5df2f36b617219204de98060,TCN,2024-06-21_10h46.39.220,LearnStrategy,2023.2.3,Win32,59.52380952,7,2,3,,,,,,,,8,16,,,,,,,,,,,8,0.895,1,,,,,,0.335,-0.4,1,0,0,0.895,Pumice_rect,2,0,2,0,1,
5df2f36b617219204de98060,TCN,2024-06-21_10h46.39.220,LearnStrategy,2023.2.3,Win32,59.52380952,7,2,4,,,,,,,,5,02,,,,,,,,,,,5,0.878,1,,,,,,-0.378333321,-0.396666718,1,0,0,0.8785,Obsidian_rect,3,0,3,0,1,
5df2f36b617219204de98060,TCN,2024-06-21_10h46.39.220,LearnStrategy,2023.2.3,Win32,59.52380952,7,2,5,,,,,,,,8,09,,,,,,,,,,,8,0.996,1,,,,,,0.321666718,-0.399166718,1,0,0,0.9956,Pumice_rect,4,0,4,0,1,
5df2f36b617219204de98060,TCN,2024-06-21_10h46.39.220,LearnStrategy,2023.2.3,Win32,59.52380952,7,2,6,,,,,,,,6,05,,,,,,,,,,,7,8.762,0,,,,,,0.114166718,-0.408333359,1,0,0,8.7624,Peridotite_rect,5,0,5,0,1,
5df2f36b617219204de98060,TCN,2024-06-21_10h46.39.220,LearnStrategy,2023.2.3,Win32,59.52380952,7,2,7,,,,,,,,4,13,,,,,,,,,,,4,2.574,1,,,,,,0.361666718,-0.26,1,0,0,2.5738,Gabbro_rect,6,0,6,0,1,
5df2f36b617219204de98060,TCN,2024-06-21_10h46.39.220,LearnStrategy,2023.2.3,Win32,59.52380952,7,2,8,,,,,,,,2,09,,,,,,,,,,,2,2.962,1,,,,,,-0.095,-0.2575,1,0,0,2.9619,Basalt_rect,7,0,7,0,1,
5df2f36b617219204de98060,TCN,2024-06-21_10h46.39.220,LearnStrategy,2023.2.3,Win32,59.52380952,7,2,9,,,,,,,,7,07,,,,,,,,,,,7,1.057,1,,,,,,0.098333359,-0.3825,1,0,0,1.0566,Peridotite_rect,8,0,8,0,1,
5df2f36b617219204de98060,TCN,2024-06-21_10h46.39.220,LearnStrategy,2023.2.3,Win32,59.52380952,7,2,10,,,,,,,,2,11,,,,,,,,,,,4,2.645,0,,,,,,0.305833359,-0.250833359,1,0,0,2.6454,Gabbro_rect,9,0,9,0,1,
5df2f36b617219204de98060,TCN,2024-06-21_10h46.39.220,LearnStrategy,2023.2.3,Win32,59.52380952,7,2,11,,,,,,,,3,08,,,,,,,,,,,1,2.296,0,,,,,,-0.380833321,-0.27,1,0,0,2.2963,Andesite_rect,10,0,10,0,1,
5df2f36b617219204de98060,TCN,2024-06-21_10h46.39.220,LearnStrategy,2023.2.3,Win32,59.52380952,7,2,12,,,,,,,,3,10,,,,,,,,,,,1,2.374,0,,,,,,-0.36,-0.27,1,0,0,2.3737,Andesite_rect,11,0,11,0,1,
5df2f36b617219204de98060,TCN,2024-06-21_10h46.39.220,LearnStrategy,2023.2.3,Win32,59.52380952,7,2,13,,,,,,,,4,03,,,,,,,,,,,4,1.229,1,,,,,,0.435833359,-0.265,1,0,0,1.229,Gabbro_rect,12,0,12,0,1,
5df2f36b617219204de98060,TCN,2024-06-21_10h46.39.220,LearnStrategy,2023.2.3,Win32,59.52380952,7,2,14,,,,,,,,1,04,,,,,,,,,,,7,1.796,0,,,,,,0.070833359,-0.400833359,1,0,0,1.796,Peridotite_rect,13,0,13,0,1,
5df2f36b617219204de98060,TCN,2024-06-21_10h46.39.220,LearnStrategy,2023.2.3,Win32,59.52380952,7,2,15,,,,,,,,6,09,,,,,,,,,,,6,1.746,1,,,,,,-0.154166641,-0.415833359,1,0,0,1.7456,Pegmatite_rect,14,0,14,0,1,
5df2f36b617219204de98060,TCN,2024-06-21_10h46.39.220,LearnStrategy,2023.2.3,Win32,59.52380952,7,2,16,,,,,,,,7,13,,,,,,,,,,,6,0.795,0,,,,,,-0.154166641,-0.378333359,1,0,0,0.795,Pegmatite_rect,15,0,15,0,1,
5df2f36b617219204de98060,TCN,2024-06-21_10h46.39.220,LearnStrategy,2023.2.3,Win32,59.52380952,8,1,1,-0.105,0,1,0,0,1.0157,rock_grid_rect_2,2,12,-1,-1,1.016,0.358333359,-0.249166718,1,0,0,7.829,Gabbro_rect,4,7.829,0,0,0,0,0,1,,,,,,,,,,,,,
5df2f36b617219204de98060,TCN,2024-06-21_10h46.39.220,LearnStrategy,2023.2.3,Win32,59.52380952,8,1,2,-0.085833282,-0.016666679,1,0,0,0.9821,rock_grid_rect_2,3,02,-1,-1,0.982,0.140833359,-0.245,1,0,0,2.3785,Diorite_rect,3,2.379,1,1,0,1,0,1,,,,,,,,,,,,,
5df2f36b617219204de98060,TCN,2024-06-21_10h46.39.220,LearnStrategy,2023.2.3,Win32,59.52380952,8,1,3,-0.0875,-0.009166679,1,0,0,0.6492,rock_grid_rect_2,6,16,-1,-1,0.649,-0.105,-0.399166718,1,0,0,1.0627,Pegmatite_rect,6,1.063,1,2,0,2,0,1,,,,,,,,,,,,,
5df2f36b617219204de98060,TCN,2024-06-21_10h46.39.220,LearnStrategy,2023.2.3,Win32,59.52380952,8,1,4,-0.1025,0.008333321,1,0,0,0.6993,rock_grid_rect_2,3,07,-1,-1,0.699,-0.350833321,-0.24,1,0,0,1.0953,Andesite_rect,1,1.095,0,3,0,3,0,1,,,,,,,,,,,,,
5df2f36b617219204de98060,TCN,2024-06-21_10h46.39.220,LearnStrategy,2023.2.3,Win32,59.52380952,8,1,5,-0.095833282,-0.01,1,0,0,0.6986,rock_grid_rect_2,5,10,-1,-1,0.699,-0.358333321,-0.4075,1,0,0,1.2448,Obsidian_rect,5,1.245,1,4,0,4,0,1,,,,,,,,,,,,,
5df2f36b617219204de98060,TCN,2024-06-21_10h46.39.220,LearnStrategy,2023.2.3,Win32,59.52380952,8,1,6,-0.078333282,-0.000833359,1,0,0,0.6652,rock_grid_rect_2,8,10,-1,-1,0.665,0.406666718,-0.400833359,1,0,0,2.2962,Pumice_rect,8,2.296,1,5,0,5,0,1,,,,,,,,,,,,,
5df2f36b617219204de98060,TCN,2024-06-21_10h46.39.220,LearnStrategy,2023.2.3,Win32,59.52380952,8,1,7,-0.036666641,-0.02,1,0,0,0.6826,rock_grid_rect_2,4,10,-1,-1,0.683,-0.091666641,-0.238333359,1,0,0,1.3293,Basalt_rect,2,1.329,0,6,0,6,0,1,,,,,,,,,,,,,
5df2f36b617219204de98060,TCN,2024-06-21_10h46.39.220,LearnStrategy,2023.2.3,Win32,59.52380952,8,1,8,-0.09,-0.006666679,1,0,0,0.5647,rock_grid_rect_2,8,15,-1,-1,0.565,0.3775,-0.385833359,1,0,0,0.9299,Pumice_rect,8,0.93,1,7,0,7,0,1,,,,,,,,,,,,,
5df2f36b617219204de98060,TCN,2024-06-21_10h46.39.220,LearnStrategy,2023.2.3,Win32,59.52380952,8,1,9,-0.0375,0.000833321,1,0,0,0.8147,rock_grid_rect_2,1,01,-1,-1,0.815,-0.048333282,-0.233333359,1,0,0,3.3795,Basalt_rect,2,3.38,0,8,0,8,0,1,,,,,,,,,,,,,
5df2f36b617219204de98060,TCN,2024-06-21_10h46.39.220,LearnStrategy,2023.2.3,Win32,59.52380952,8,1,10,-0.0725,-0.01,1,0,0,0.565,rock_grid_rect_2,1,16,-1,-1,0.565,0.11,-0.3875,1,0,0,1.8461,Peridotite_rect,7,1.846,0,9,0,9,0,1,,,,,,,,,,,,,
5df2f36b617219204de98060,TCN,2024-06-21_10h46.39.220,LearnStrategy,2023.2.3,Win32,59.52380952,8,1,11,-0.050833282,-0.018333359,1,0,0,0.5828,rock_grid_rect_2,2,06,-1,-1,0.583,-0.095833282,-0.239166718,1,0,0,1.2289,Basalt_rect,2,1.229,1,10,0,10,0,1,,,,,,,,,,,,,
5df2f36b617219204de98060,TCN,2024-06-21_10h46.39.220,LearnStrategy,2023.2.3,Win32,59.52380952,8,1,12,-0.070833282,0.0125,1,0,0,0.6481,rock_grid_rect_2,5,05,-1,-1,0.648,-0.41,-0.416666718,1,0,0,1.0122,Obsidian_rect,5,1.012,1,11,0,11,0,1,,,,,,,,,,,,,
5df2f36b617219204de98060,TCN,2024-06-21_10h46.39.220,LearnStrategy,2023.2.3,Win32,59.52380952,8,1,13,-0.035833282,-0.001666679,1,0,0,0.5989,rock_grid_rect_2,7,10,-1,-1,0.599,0.120833359,-0.39,1,0,0,1.096,Peridotite_rect,7,1.096,1,12,0,12,0,1,,,,,,,,,,,,,
5df2f36b617219204de98060,TCN,2024-06-21_10h46.39.220,LearnStrategy,2023.2.3,Win32,59.52380952,8,1,14,-0.04,-0.009166679,1,0,0,0.9161,rock_grid_rect_2,4,11,-1,-1,0.916,-0.120833282,-0.2375,1,0,0,1.5622,Basalt_rect,2,1.562,0,13,0,13,0,1,,,,,,,,,,,,,
5df2f36b617219204de98060,TCN,2024-06-21_10h46.39.220,LearnStrategy,2023.2.3,Win32,59.52380952,8,1,15,-0.060833282,0.014166641,1,0,0,0.4983,rock_grid_rect_2,7,02,-1,-1,0.498,0.095,-0.3925,1,0,0,0.9961,Peridotite_rect,7,0.996,1,14,0,14,0,1,,,,,,,,,,,,,
5df2f36b617219204de98060,TCN,2024-06-21_10h46.39.220,LearnStrategy,2023.2.3,Win32,59.52380952,8,1,16,-0.04,0.003333321,1,0,0,0.6154,rock_grid_rect_2,6,06,-1,-1,0.615,-0.1425,-0.404166718,1,0,0,1.0297,Pegmatite_rect,6,1.03,1,15,0,15,0,1,,,,,,,,,,,,,
5df2f36b617219204de98060,TCN,2024-06-21_10h46.39.220,LearnStrategy,2023.2.3,Win32,59.52380952,8,2,1,,,,,,,,1,02,,,,,,,,,,,6,5.195,0,,,,,,-0.1175,-0.405833359,1,0,0,5.1953,Pegmatite_rect,0,0,0,0,1,
5df2f36b617219204de98060,TCN,2024-06-21_10h46.39.220,LearnStrategy,2023.2.3,Win32,59.52380952,8,2,2,,,,,,,,6,15,,,,,,,,,,,6,1.007,1,,,,,,-0.099166641,-0.3825,1,0,0,1.0067,Pegmatite_rect,1,0,1,0,1,
5df2f36b617219204de98060,TCN,2024-06-21_10h46.39.220,LearnStrategy,2023.2.3,Win32,59.52380952,8,2,3,,,,,,,,7,05,,,,,,,,,,,1,4.079,0,,,,,,-0.3625,-0.246666718,1,0,0,4.0789,Andesite_rect,2,0,2,0,1,
5df2f36b617219204de98060,TCN,2024-06-21_10h46.39.220,LearnStrategy,2023.2.3,Win32,59.52380952,8,2,4,,,,,,,,2,01,,,,,,,,,,,2,1.474,1,,,,,,-0.110833282,-0.246666718,1,0,0,1.4736,Basalt_rect,3,0,3,0,1,
5df2f36b617219204de98060,TCN,2024-06-21_10h46.39.220,LearnStrategy,2023.2.3,Win32,59.52380952,8,2,5,,,,,,,,3,12,,,,,,,,,,,3,2.162,1,,,,,,0.095,-0.241666718,1,0,0,2.1617,Diorite_rect,4,0,4,0,1,
5df2f36b617219204de98060,TCN,2024-06-21_10h46.39.220,LearnStrategy,2023.2.3,Win32,59.52380952,8,2,6,,,,,,,,7,04,,,,,,,,,,,7,2.724,1,,,,,,0.095833359,-0.401666718,1,0,0,2.7244,Peridotite_rect,5,0,5,0,1,
5df2f36b617219204de98060,TCN,2024-06-21_10h46.39.220,LearnStrategy,2023.2.3,Win32,59.52380952,8,2,7,,,,,,,,8,03,,,,,,,,,,,8,1.33,1,,,,,,0.434166718,-0.419166718,1,0,0,1.3295,Pumice_rect,6,0,6,0,1,
5df2f36b617219204de98060,TCN,2024-06-21_10h46.39.220,LearnStrategy,2023.2.3,Win32,59.52380952,8,2,8,,,,,,,,4,01,,,,,,,,,,,4,2.396,1,,,,,,0.475,-0.245,1,0,0,2.3963,Gabbro_rect,7,0,7,0,1,
5df2f36b617219204de98060,TCN,2024-06-21_10h46.39.220,LearnStrategy,2023.2.3,Win32,59.52380952,8,2,9,,,,,,,,8,02,,,,,,,,,,,8,1.623,1,,,,,,0.356666718,-0.419166718,1,0,0,1.6234,Pumice_rect,8,0,8,0,1,
5df2f36b617219204de98060,TCN,2024-06-21_10h46.39.220,LearnStrategy,2023.2.3,Win32,59.52380952,8,2,10,,,,,,,,2,05,,,,,,,,,,,2,0.912,1,,,,,,-0.188333321,-0.251666718,1,0,0,0.9122,Basalt_rect,9,0,9,0,1,
5df2f36b617219204de98060,TCN,2024-06-21_10h46.39.220,LearnStrategy,2023.2.3,Win32,59.52380952,8,2,11,,,,,,,,4,14,,,,,,,,,,,4,2.212,1,,,,,,0.4,-0.25,1,0,0,2.2123,Gabbro_rect,10,0,10,0,1,
5df2f36b617219204de98060,TCN,2024-06-21_10h46.39.220,LearnStrategy,2023.2.3,Win32,59.52380952,8,2,12,,,,,,,,3,15,,,,,,,,,,,1,1.279,0,,,,,,-0.341666641,-0.240833359,1,0,0,1.2786,Andesite_rect,11,0,11,0,1,
5df2f36b617219204de98060,TCN,2024-06-21_10h46.39.220,LearnStrategy,2023.2.3,Win32,59.52380952,8,2,13,,,,,,,,5,08,,,,,,,,,,,5,1.228,1,,,,,,-0.374166641,-0.398333359,1,0,0,1.2282,Obsidian_rect,12,0,12,0,1,
5df2f36b617219204de98060,TCN,2024-06-21_10h46.39.220,LearnStrategy,2023.2.3,Win32,59.52380952,8,2,14,,,,,,,,6,08,,,,,,,,,,,6,0.962,1,,,,,,-0.161666641,-0.411666718,1,0,0,0.9624,Pegmatite_rect,13,0,13,0,1,
5df2f36b617219204de98060,TCN,2024-06-21_10h46.39.220,LearnStrategy,2023.2.3,Win32,59.52380952,8,2,15,,,,,,,,5,14,,,,,,,,,,,5,0.929,1,,,,,,-0.334166641,-0.4,1,0,0,0.9287,Obsidian_rect,14,0,14,0,1,
5df2f36b617219204de98060,TCN,2024-06-21_10h46.39.220,LearnStrategy,2023.2.3,Win32,59.52380952,8,2,16,,,,,,,,1,03,,,,,,,,,,,2,1.396,0,,,,,,-0.1725,-0.245,1,0,0,1.3962,Basalt_rect,15,0,15,0,1,
5df2f36b617219204de98060,TCN,2024-06-21_10h46.39.220,LearnStrategy,2023.2.3,Win32,59.52380952,9,1,1,-0.135,0.003333321,1,0,0,0.8491,rock_grid_rect_2,4,05,-1,-1,0.849,0.374166718,-0.261666718,1,0,0,3.0792,Gabbro_rect,4,3.079,1,0,0,0,0,1,,,,,,,,,,,,,
5df2f36b617219204de98060,TCN,2024-06-21_10h46.39.220,LearnStrategy,2023.2.3,Win32,59.52380952,9,1,2,-0.0375,-0.016666679,1,0,0,0.6156,rock_grid_rect_2,1,06,-1,-1,0.616,-0.144166641,-0.265,1,0,0,1.6788,Basalt_rect,2,1.679,0,1,0,1,0,1,,,,,,,,,,,,,
5df2f36b617219204de98060,TCN,2024-06-21_10h46.39.220,LearnStrategy,2023.2.3,Win32,59.52380952,9,1,3,-0.08,-0.011666679,1,0,0,0.6656,rock_grid_rect_2,5,09,-1,-1,0.666,-0.405,-0.378333359,1,0,0,0.8799,Obsidian_rect,5,0.88,1,2,0,2,0,1,,,,,,,,,,,,,
5df2f36b617219204de98060,TCN,2024-06-21_10h46.39.220,LearnStrategy,2023.2.3,Win32,59.52380952,9,1,4,-0.048333282,-0.02,1,0,0,0.6326,rock_grid_rect_2,3,09,-1,-1,0.633,-0.348333321,-0.243333359,1,0,0,1.763,Andesite_rect,1,1.763,0,3,0,3,0,1,,,,,,,,,,,,,
5df2f36b617219204de98060,TCN,2024-06-21_10h46.39.220,LearnStrategy,2023.2.3,Win32,59.52380952,9,1,5,-0.089166641,-0.013333359,1,0,0,0.5654,rock_grid_rect_2,4,15,-1,-1,0.565,-0.0925,-0.249166718,1,0,0,2.2792,Basalt_rect,2,2.279,0,4,0,4,0,1,,,,,,,,,,,,,
5df2f36b617219204de98060,TCN,2024-06-21_10h46.39.220,LearnStrategy,2023.2.3,Win32,59.52380952,9,1,6,-0.095833282,0.009166641,1,0,0,0.649,rock_grid_rect_2,8,04,-1,-1,0.649,0.420833359,-0.393333359,1,0,0,1.2787,Pumice_rect,8,1.279,1,5,0,5,0,1,,,,,,,,,,,,,
5df2f36b617219204de98060,TCN,2024-06-21_10h46.39.220,LearnStrategy,2023.2.3,Win32,59.52380952,9,1,7,-0.023333282,0.0075,1,0,0,0.5327,rock_grid_rect_2,3,11,-1,-1,0.533,-0.335833321,-0.258333359,1,0,0,1.2793,Andesite_rect,1,1.279,0,6,0,6,0,1,,,,,,,,,,,,,
5df2f36b617219204de98060,TCN,2024-06-21_10h46.39.220,LearnStrategy,2023.2.3,Win32,59.52380952,9,1,8,-0.084166641,-0.0025,1,0,0,0.5654,rock_grid_rect_2,7,14,-1,-1,0.565,-0.363333321,-0.27,1,0,0,3.2788,Andesite_rect,1,3.279,0,7,0,7,0,1,,,,,,,,,,,,,
5df2f36b617219204de98060,TCN,2024-06-21_10h46.39.220,LearnStrategy,2023.2.3,Win32,59.52380952,9,1,9,-0.040833282,-0.015833359,1,0,0,0.548,rock_grid_rect_2,2,08,-1,-1,0.548,-0.111666641,-0.235,1,0,0,0.9625,Basalt_rect,2,0.962,1,8,0,8,0,1,,,,,,,,,,,,,
5df2f36b617219204de98060,TCN,2024-06-21_10h46.39.220,LearnStrategy,2023.2.3,Win32,59.52380952,9,1,10,-0.091666641,-0.02,1,0,0,0.4991,rock_grid_rect_2,5,07,-1,-1,0.499,-0.393333321,-0.405833359,1,0,0,1.129,Obsidian_rect,5,1.129,1,9,0,9,0,1,,,,,,,,,,,,,
5df2f36b617219204de98060,TCN,2024-06-21_10h46.39.220,LearnStrategy,2023.2.3,Win32,59.52380952,9,1,11,-0.069166641,0.01,1,0,0,0.5651,rock_grid_rect_2,2,02,-1,-1,0.565,-0.11,-0.245,1,0,0,1.2462,Basalt_rect,2,1.246,1,10,0,10,0,1,,,,,,,,,,,,,
5df2f36b617219204de98060,TCN,2024-06-21_10h46.39.220,LearnStrategy,2023.2.3,Win32,59.52380952,9,1,12,-0.0725,-0.020833359,1,0,0,0.7149,rock_grid_rect_2,7,16,-1,-1,0.715,-0.083333282,-0.255,1,0,0,1.0467,Basalt_rect,2,1.047,0,11,0,11,0,1,,,,,,,,,,,,,
5df2f36b617219204de98060,TCN,2024-06-21_10h46.39.220,LearnStrategy,2023.2.3,Win32,59.52380952,9,1,13,-0.055,-0.024166679,1,0,0,0.5315,rock_grid_rect_2,8,08,-1,-1,0.532,0.44,-0.390833359,1,0,0,1.197,Pumice_rect,8,1.197,1,12,0,12,0,1,,,,,,,,,,,,,
5df2f36b617219204de98060,TCN,2024-06-21_10h46.39.220,LearnStrategy,2023.2.3,Win32,59.52380952,9,1,14,-0.060833282,-0.000833359,1,0,0,0.7159,rock_grid_rect_2,6,10,-1,-1,0.716,-0.138333282,-0.3925,1,0,0,0.9798,Pegmatite_rect,6,0.98,1,13,0,13,0,1,,,,,,,,,,,,,
5df2f36b617219204de98060,TCN,2024-06-21_10h46.39.220,LearnStrategy,2023.2.3,Win32,59.52380952,9,1,15,-0.048333282,-0.021666679,1,0,0,1.0315,rock_grid_rect_2,1,05,-1,-1,1.032,-0.350833321,-0.270833359,1,0,0,1.0126,Andesite_rect,1,1.013,1,14,0,14,0,1,,,,,,,,,,,,,
5df2f36b617219204de98060,TCN,2024-06-21_10h46.39.220,LearnStrategy,2023.2.3,Win32,59.52380952,9,1,16,-0.04,-0.005833359,1,0,0,1.2152,rock_grid_rect_2,6,03,-1,-1,1.215,-0.098333282,-0.398333359,1,0,0,1.0124,Pegmatite_rect,6,1.012,1,15,0,15,0,1,,,,,,,,,,,,,
5df2f36b617219204de98060,TCN,2024-06-21_10h46.39.220,LearnStrategy,2023.2.3,Win32,59.52380952,9,2,1,,,,,,,,5,12,,,,,,,,,,,5,1.129,1,,,,,,-0.3975,-0.418333359,1,0,0,1.1292,Obsidian_rect,0,0,0,0,1,
5df2f36b617219204de98060,TCN,2024-06-21_10h46.39.220,LearnStrategy,2023.2.3,Win32,59.52380952,9,2,2,,,,,,,,2,04,,,,,,,,,,,2,1.196,1,,,,,,-0.125,-0.230833359,1,0,0,1.1955,Basalt_rect,1,0,1,0,1,
5df2f36b617219204de98060,TCN,2024-06-21_10h46.39.220,LearnStrategy,2023.2.3,Win32,59.52380952,9,2,3,,,,,,,,2,16,,,,,,,,,,,4,1.545,0,,,,,,0.371666718,-0.2475,1,0,0,1.5455,Gabbro_rect,2,0,2,0,1,
5df2f36b617219204de98060,TCN,2024-06-21_10h46.39.220,LearnStrategy,2023.2.3,Win32,59.52380952,9,2,4,,,,,,,,8,06,,,,,,,,,,,8,0.946,1,,,,,,0.430833359,-0.3925,1,0,0,0.9458,Pumice_rect,3,0,3,0,1,
5df2f36b617219204de98060,TCN,2024-06-21_10h46.39.220,LearnStrategy,2023.2.3,Win32,59.52380952,9,2,5,,,,,,,,1,14,,,,,,,,,,,7,5.713,0,,,,,,0.084166718,-0.395833359,1,0,0,5.7129,Peridotite_rect,4,0,4,0,1,
5df2f36b617219204de98060,TCN,2024-06-21_10h46.39.220,LearnStrategy,2023.2.3,Win32,59.52380952,9,2,6,,,,,,,,3,13,,,,,,,,,,,3,2.157,1,,,,,,0.125,-0.249166718,1,0,0,2.157,Diorite_rect,5,0,5,0,1,
5df2f36b617219204de98060,TCN,2024-06-21_10h46.39.220,LearnStrategy,2023.2.3,Win32,59.52380952,9,2,7,,,,,,,,3,06,,,,,,,,,,,1,1.946,0,,,,,,-0.4525,-0.239166718,1,0,0,1.9462,Andesite_rect,6,0,6,0,1,
5df2f36b617219204de98060,TCN,2024-06-21_10h46.39.220,LearnStrategy,2023.2.3,Win32,59.52380952,9,2,8,,,,,,,,5,04,,,,,,,,,,,5,0.796,1,,,,,,-0.380833321,-0.415,1,0,0,0.7957,Obsidian_rect,7,0,7,0,1,
5df2f36b617219204de98060,TCN,2024-06-21_10h46.39.220,LearnStrategy,2023.2.3,Win32,59.52380952,9,2,9,,,,,,,,4,08,,,,,,,,,,,2,1.396,0,,,,,,-0.155,-0.249166718,1,0,0,1.3956,Basalt_rect,8,0,8,0,1,
5df2f36b617219204de98060,TCN,2024-06-21_10h46.39.220,LearnStrategy,2023.2.3,Win32,59.52380952,9,2,10,,,,,,,,6,12,,,,,,,,,,,7,1.396,0,,,,,,0.064166718,-0.3925,1,0,0,1.3955,Peridotite_rect,9,0,9,0,1,
5df2f36b617219204de98060,TCN,2024-06-21_10h46.39.220,LearnStrategy,2023.2.3,Win32,59.52380952,9,2,11,,,,,,,,4,09,,,,,,,,,,,4,1.729,1,,,,,,0.378333359,-0.233333359,1,0,0,1.7293,Gabbro_rect,10,0,10,0,1,
5df2f36b617219204de98060,TCN,2024-06-21_10h46.39.220,LearnStrategy,2023.2.3,Win32,59.52380952,9,2,12,,,,,,,,8,14,,,,,,,,,,,8,1.246,1,,,,,,0.3425,-0.415,1,0,0,1.2456,Pumice_rect,11,0,11,0,1,
5df2f36b617219204de98060,TCN,2024-06-21_10h46.39.220,LearnStrategy,2023.2.3,Win32,59.52380952,9,2,13,,,,,,,,7,06,,,,,,,,,,,6,1.195,0,,,,,,-0.113333282,-0.390833359,1,0,0,1.1955,Pegmatite_rect,12,0,12,0,1,
5df2f36b617219204de98060,TCN,2024-06-21_10h46.39.220,LearnStrategy,2023.2.3,Win32,59.52380952,9,2,14,,,,,,,,1,09,,,,,,,,,,,4,4.029,0,,,,,,0.433333359,-0.245,1,0,0,4.0293,Gabbro_rect,13,0,13,0,1,
5df2f36b617219204de98060,TCN,2024-06-21_10h46.39.220,LearnStrategy,2023.2.3,Win32,59.52380952,9,2,15,,,,,,,,7,08,,,,,,,,,,,7,1.074,1,,,,,,0.08,-0.405,1,0,0,1.0744,Peridotite_rect,14,0,14,0,1,
5df2f36b617219204de98060,TCN,2024-06-21_10h46.39.220,LearnStrategy,2023.2.3,Win32,59.52380952,9,2,16,,,,,,,,6,07,,,,,,,,,,,6,1.029,1,,,,,,-0.144166641,-0.390833359,1,0,0,1.0289,Pegmatite_rect,15,0,15,0,1,
5df2f36b617219204de98060,TCN,2024-06-21_10h46.39.220,LearnStrategy,2023.2.3,Win32,59.52380952,,,,,,,,,,,,,,,,,,,,,,,,,,,,,,,,,,,,,,,,,,,0
5df2f36b617219204de98060,TCN,2024-06-21_10h46.39.220,LearnStrategy,2023.2.3,Win32,59.52380952,,,,,,,,,,,,,,,,,,,,,,,,,,,,,,,,,,,,,,,,,,,
5df2f36b617219204de98060,TCN,2024-06-21_10h46.39.220,LearnStrategy,2023.2.3,Win32,59.52380952,,,,,,,,,,,8,04,1,1,,,,,,,,,,,,,,,,,,,,,,,,,,,,,
5df2f36b617219204de98060,TCN,2024-06-21_10h46.39.220,LearnStrategy,2023.2.3,Win32,59.52380952,,,,,,,,,,,3,02,1,2,,,,,,,,,,,,,,,,,,,,,,,,,,,,,
5df2f36b617219204de98060,TCN,2024-06-21_10h46.39.220,LearnStrategy,2023.2.3,Win32,59.52380952,,,,,,,,,,,3,09,1,3,,,,,,,,,,,,,,,,,,,,,,,,,,,,,
5df2f36b617219204de98060,TCN,2024-06-21_10h46.39.220,LearnStrategy,2023.2.3,Win32,59.52380952,,,,,,,,,,,3,11,1,4,,,,,,,,,,,,,,,,,,,,,,,,,,,,,
5df2f36b617219204de98060,TCN,2024-06-21_10h46.39.220,LearnStrategy,2023.2.3,Win32,59.52380952,,,,,,,,,,,1,16,1,5,,,,,,,,,,,,,,,,,,,,,,,,,,,,,
5df2f36b617219204de98060,TCN,2024-06-21_10h46.39.220,LearnStrategy,2023.2.3,Win32,59.52380952,,,,,,,,,,,3,14,1,6,,,,,,,,,,,,,,,,,,,,,,,,,,,,,
5df2f36b617219204de98060,TCN,2024-06-21_10h46.39.220,LearnStrategy,2023.2.3,Win32,59.52380952,,,,,,,,,,,8,08,1,7,,,,,,,,,,,,,,,,,,,,,,,,,,,,,
5df2f36b617219204de98060,TCN,2024-06-21_10h46.39.220,LearnStrategy,2023.2.3,Win32,59.52380952,,,,,,,,,,,2,12,1,8,,,,,,,,,,,,,,,,,,,,,,,,,,,,,
5df2f36b617219204de98060,TCN,2024-06-21_10h46.39.220,LearnStrategy,2023.2.3,Win32,59.52380952,,,,,,,,,,,1,01,2,1,,,,,,,,,,,,,,,,,,,,,,,,,,,,,
5df2f36b617219204de98060,TCN,2024-06-21_10h46.39.220,LearnStrategy,2023.2.3,Win32,59.52380952,,,,,,,,,,,6,06,2,2,,,,,,,,,,,,,,,,,,,,,,,,,,,,,
5df2f36b617219204de98060,TCN,2024-06-21_10h46.39.220,LearnStrategy,2023.2.3,Win32,59.52380952,,,,,,,,,,,1,06,2,3,,,,,,,,,,,,,,,,,,,,,,,,,,,,,
5df2f36b617219204de98060,TCN,2024-06-21_10h46.39.220,LearnStrategy,2023.2.3,Win32,59.52380952,,,,,,,,,,,6,13,2,4,,,,,,,,,,,,,,,,,,,,,,,,,,,,,
5df2f36b617219204de98060,TCN,2024-06-21_10h46.39.220,LearnStrategy,2023.2.3,Win32,59.52380952,,,,,,,,,,,8,15,2,5,,,,,,,,,,,,,,,,,,,,,,,,,,,,,
5df2f36b617219204de98060,TCN,2024-06-21_10h46.39.220,LearnStrategy,2023.2.3,Win32,59.52380952,,,,,,,,,,,8,13,2,6,,,,,,,,,,,,,,,,,,,,,,,,,,,,,
5df2f36b617219204de98060,TCN,2024-06-21_10h46.39.220,LearnStrategy,2023.2.3,Win32,59.52380952,,,,,,,,,,,5,09,2,7,,,,,,,,,,,,,,,,,,,,,,,,,,,,,
5df2f36b617219204de98060,TCN,2024-06-21_10h46.39.220,LearnStrategy,2023.2.3,Win32,59.52380952,,,,,,,,,,,8,10,2,8,,,,,,,,,,,,,,,,,,,,,,,,,,,,,
5df2f36b617219204de98060,TCN,2024-06-21_10h46.39.220,LearnStrategy,2023.2.3,Win32,59.52380952,,,,,,,,,,,5,05,3,1,,,,,,,,,,,,,,,,,,,,,,,,,,,,,
5df2f36b617219204de98060,TCN,2024-06-21_10h46.39.220,LearnStrategy,2023.2.3,Win32,59.52380952,,,,,,,,,,,5,10,3,2,,,,,,,,,,,,,,,,,,,,,,,,,,,,,
5df2f36b617219204de98060,TCN,2024-06-21_10h46.39.220,LearnStrategy,2023.2.3,Win32,59.52380952,,,,,,,,,,,4,11,3,3,,,,,,,,,,,,,,,,,,,,,,,,,,,,,
5df2f36b617219204de98060,TCN,2024-06-21_10h46.39.220,LearnStrategy,2023.2.3,Win32,59.52380952,,,,,,,,,,,7,14,3,4,,,,,,,,,,,,,,,,,,,,,,,,,,,,,
5df2f36b617219204de98060,TCN,2024-06-21_10h46.39.220,LearnStrategy,2023.2.3,Win32,59.52380952,,,,,,,,,,,6,11,3,5,,,,,,,,,,,,,,,,,,,,,,,,,,,,,
5df2f36b617219204de98060,TCN,2024-06-21_10h46.39.220,LearnStrategy,2023.2.3,Win32,59.52380952,,,,,,,,,,,7,02,3,6,,,,,,,,,,,,,,,,,,,,,,,,,,,,,
5df2f36b617219204de98060,TCN,2024-06-21_10h46.39.220,LearnStrategy,2023.2.3,Win32,59.52380952,,,,,,,,,,,1,11,3,7,,,,,,,,,,,,,,,,,,,,,,,,,,,,,
5df2f36b617219204de98060,TCN,2024-06-21_10h46.39.220,LearnStrategy,2023.2.3,Win32,59.52380952,,,,,,,,,,,3,07,3,8,,,,,,,,,,,,,,,,,,,,,,,,,,,,,
5df2f36b617219204de98060,TCN,2024-06-21_10h46.39.220,LearnStrategy,2023.2.3,Win32,59.52380952,,,,,,,,,,,4,15,4,1,,,,,,,,,,,,,,,,,,,,,,,,,,,,,
5df2f36b617219204de98060,TCN,2024-06-21_10h46.39.220,LearnStrategy,2023.2.3,Win32,59.52380952,,,,,,,,,,,1,07,4,2,,,,,,,,,,,,,,,,,,,,,,,,,,,,,
5df2f36b617219204de98060,TCN,2024-06-21_10h46.39.220,LearnStrategy,2023.2.3,Win32,59.52380952,,,,,,,,,,,5,07,4,3,,,,,,,,,,,,,,,,,,,,,,,,,,,,,
5df2f36b617219204de98060,TCN,2024-06-21_10h46.39.220,LearnStrategy,2023.2.3,Win32,59.52380952,,,,,,,,,,,7,12,4,4,,,,,,,,,,,,,,,,,,,,,,,,,,,,,
5df2f36b617219204de98060,TCN,2024-06-21_10h46.39.220,LearnStrategy,2023.2.3,Win32,59.52380952,,,,,,,,,,,8,05,4,5,,,,,,,,,,,,,,,,,,,,,,,,,,,,,
5df2f36b617219204de98060,TCN,2024-06-21_10h46.39.220,LearnStrategy,2023.2.3,Win32,59.52380952,,,,,,,,,,,5,16,4,6,,,,,,,,,,,,,,,,,,,,,,,,,,,,,
5df2f36b617219204de98060,TCN,2024-06-21_10h46.39.220,LearnStrategy,2023.2.3,Win32,59.52380952,,,,,,,,,,,6,10,4,7,,,,,,,,,,,,,,,,,,,,,,,,,,,,,
5df2f36b617219204de98060,TCN,2024-06-21_10h46.39.220,LearnStrategy,2023.2.3,Win32,59.52380952,,,,,,,,,,,2,06,4,8,,,,,,,,,,,,,,,,,,,,,,,,,,,,,
5df2f36b617219204de98060,TCN,2024-06-21_10h46.39.220,LearnStrategy,2023.2.3,Win32,59.52380952,,,,,,,,,,,4,16,5,1,,,,,,,,,,,,,,,,,,,,,,,,,,,,,
5df2f36b617219204de98060,TCN,2024-06-21_10h46.39.220,LearnStrategy,2023.2.3,Win32,59.52380952,,,,,,,,,,,1,05,5,2,,,,,,,,,,,,,,,,,,,,,,,,,,,,,
5df2f36b617219204de98060,TCN,2024-06-21_10h46.39.220,LearnStrategy,2023.2.3,Win32,59.52380952,,,,,,,,,,,5,11,5,3,,,,,,,,,,,,,,,,,,,,,,,,,,,,,
5df2f36b617219204de98060,TCN,2024-06-21_10h46.39.220,LearnStrategy,2023.2.3,Win32,59.52380952,,,,,,,,,,,4,12,5,4,,,,,,,,,,,,,,,,,,,,,,,,,,,,,
5df2f36b617219204de98060,TCN,2024-06-21_10h46.39.220,LearnStrategy,2023.2.3,Win32,59.52380952,,,,,,,,,,,3,16,5,5,,,,,,,,,,,,,,,,,,,,,,,,,,,,,
5df2f36b617219204de98060,TCN,2024-06-21_10h46.39.220,LearnStrategy,2023.2.3,Win32,59.52380952,,,,,,,,,,,2,08,5,6,,,,,,,,,,,,,,,,,,,,,,,,,,,,,
5df2f36b617219204de98060,TCN,2024-06-21_10h46.39.220,LearnStrategy,2023.2.3,Win32,59.52380952,,,,,,,,,,,2,14,5,7,,,,,,,,,,,,,,,,,,,,,,,,,,,,,
5df2f36b617219204de98060,TCN,2024-06-21_10h46.39.220,LearnStrategy,2023.2.3,Win32,59.52380952,,,,,,,,,,,6,03,5,8,,,,,,,,,,,,,,,,,,,,,,,,,,,,,
5df2f36b617219204de98060,TCN,2024-06-21_10h46.39.220,LearnStrategy,2023.2.3,Win32,59.52380952,,,,,,,,,,,7,15,6,1,,,,,,,,,,,,,,,,,,,,,,,,,,,,,
5df2f36b617219204de98060,TCN,2024-06-21_10h46.39.220,LearnStrategy,2023.2.3,Win32,59.52380952,,,,,,,,,,,6,16,6,2,,,,,,,,,,,,,,,,,,,,,,,,,,,,,
5df2f36b617219204de98060,TCN,2024-06-21_10h46.39.220,LearnStrategy,2023.2.3,Win32,59.52380952,,,,,,,,,,,2,10,6,3,,,,,,,,,,,,,,,,,,,,,,,,,,,,,
5df2f36b617219204de98060,TCN,2024-06-21_10h46.39.220,LearnStrategy,2023.2.3,Win32,59.52380952,,,,,,,,,,,7,10,6,4,,,,,,,,,,,,,,,,,,,,,,,,,,,,,
5df2f36b617219204de98060,TCN,2024-06-21_10h46.39.220,LearnStrategy,2023.2.3,Win32,59.52380952,,,,,,,,,,,4,10,6,5,,,,,,,,,,,,,,,,,,,,,,,,,,,,,
5df2f36b617219204de98060,TCN,2024-06-21_10h46.39.220,LearnStrategy,2023.2.3,Win32,59.52380952,,,,,,,,,,,7,16,6,6,,,,,,,,,,,,,,,,,,,,,,,,,,,,,
5df2f36b617219204de98060,TCN,2024-06-21_10h46.39.220,LearnStrategy,2023.2.3,Win32,59.52380952,,,,,,,,,,,2,02,6,7,,,,,,,,,,,,,,,,,,,,,,,,,,,,,
5df2f36b617219204de98060,TCN,2024-06-21_10h46.39.220,LearnStrategy,2023.2.3,Win32,59.52380952,,,,,,,,,,,4,05,6,8,,,,,,,,,,,,,,,,,,,,,,,,,,,,,