participant,condition,date,expName,psychopyVersion,OS,frameRate,block,phase,trial,learn_mouse_2.x,learn_mouse_2.y,learn_mouse_2.leftButton,learn_mouse_2.midButton,learn_mouse_2.rightButton,learn_mouse_2.time,learn_mouse_2.clicked_name,cat,token,row,col,t_select,cat_mouse_l.x,cat_mouse_l.y,cat_mouse_l.leftButton,cat_mouse_l.midButton,cat_mouse_l.rightButton,cat_mouse_l.time,cat_mouse_l.clicked_name,resp,t_resp,corr,train_trials.thisRepN,train_trials.thisTrialN,train_trials.thisN,train_trials.thisIndex,train_trials.ran,cat_mouse_t.x,cat_mouse_t.y,cat_mouse_t.leftButton,cat_mouse_t.midButton,cat_mouse_t.rightButton,cat_mouse_t.time,cat_mouse_t.clicked_name,test_trials.thisRepN,test_trials.thisTrialN,test_trials.thisN,test_trials.thisIndex,test_trials.ran,Bonus
5e1f938b06121f2be0d1ead4,TCN,2024-06-20_13h32.41.871,LearnStrategy,2023.2.3,Win32,60.97560976,,,,,,,,,,,,,,,,,,,,,,,,,,,,,,,,,,,,,,,,,,,
5e1f938b06121f2be0d1ead4,TCN,2024-06-20_13h32.41.871,LearnStrategy,2023.2.3,Win32,60.97560976,1,1,1,-0.003703718,0.001851859,1,0,0,2.8762,rock_grid_rect_2,1,04,-1,-1,2.876,-0.087962963,-0.247222265,1,0,0,64.3591,Basalt_rect,2,64.359,0,0,0,0,0,1,,,,,,,,,,,,,
5e1f938b06121f2be0d1ead4,TCN,2024-06-20_13h32.41.871,LearnStrategy,2023.2.3,Win32,60.97560976,1,1,2,0.017592607,0,1,0,0,5.4154,rock_grid_rect_2,7,10,-1,-1,5.415,0.389814871,-0.392592607,1,0,0,6.2294,Pumice_rect,8,6.229,0,1,0,1,0,1,,,,,,,,,,,,,
5e1f938b06121f2be0d1ead4,TCN,2024-06-20_13h32.41.871,LearnStrategy,2023.2.3,Win32,60.97560976,1,1,3,0.073148162,-0.00462963,1,0,0,1.3196,rock_grid_rect_2,3,12,-1,-1,1.32,-0.157407407,-0.421296296,1,0,0,6.0754,Pegmatite_rect,6,6.075,0,2,0,2,0,1,,,,,,,,,,,,,
5e1f938b06121f2be0d1ead4,TCN,2024-06-20_13h32.41.871,LearnStrategy,2023.2.3,Win32,60.97560976,1,1,4,-0.014814801,-0.01203703,1,0,0,2.2849,rock_grid_rect_2,7,14,-1,-1,2.285,0.450925898,-0.253703718,1,0,0,6.669,Gabbro_rect,4,6.669,0,3,0,3,0,1,,,,,,,,,,,,,
5e1f938b06121f2be0d1ead4,TCN,2024-06-20_13h32.41.871,LearnStrategy,2023.2.3,Win32,60.97560976,1,1,5,-0.003703718,0.005555541,1,0,0,2.1354,rock_grid_rect_2,3,13,-1,-1,2.135,-0.317592586,-0.251851894,1,0,0,7.6515,Andesite_rect,1,7.651,0,4,0,4,0,1,,,,,,,,,,,,,
5e1f938b06121f2be0d1ead4,TCN,2024-06-20_13h32.41.871,LearnStrategy,2023.2.3,Win32,60.97560976,1,1,6,0.003703718,-0.012962977,1,0,0,2.2775,rock_grid_rect_2,4,16,-1,-1,2.277,-0.380555541,-0.40370369,1,0,0,2.0415,Obsidian_rect,5,2.041,0,5,0,5,0,1,,,,,,,,,,,,,
5e1f938b06121f2be0d1ead4,TCN,2024-06-20_13h32.41.871,LearnStrategy,2023.2.3,Win32,60.97560976,1,1,7,0.002777806,0.011111118,1,0,0,1.9111,rock_grid_rect_2,6,15,-1,-1,1.911,-0.112037023,-0.384259259,1,0,0,5.536,Pegmatite_rect,6,5.536,1,6,0,6,0,1,,,,,,,,,,,,,
5e1f938b06121f2be0d1ead4,TCN,2024-06-20_13h32.41.871,LearnStrategy,2023.2.3,Win32,60.97560976,1,1,8,0.006481524,-0.018518519,1,0,0,2.1117,rock_grid_rect_2,2,06,-1,-1,2.112,-0.355555534,-0.400925954,1,0,0,1.5889,Obsidian_rect,5,1.589,0,7,0,7,0,1,,,,,,,,,,,,,
5e1f938b06121f2be0d1ead4,TCN,2024-06-20_13h32.41.871,LearnStrategy,2023.2.3,Win32,60.97560976,1,1,9,0.048148191,0.003703683,1,0,0,1.8128,rock_grid_rect_2,5,08,-1,-1,1.813,0.345370399,-0.252777806,1,0,0,7.0368,Gabbro_rect,4,7.037,0,8,0,8,0,1,,,,,,,,,,,,,
5e1f938b06121f2be0d1ead4,TCN,2024-06-20_13h32.41.871,LearnStrategy,2023.2.3,Win32,60.97560976,1,1,10,0.058333362,-0.014814836,1,0,0,1.6031,rock_grid_rect_2,2,04,-1,-1,1.603,-0.331481474,-0.378703718,1,0,0,5.2369,Obsidian_rect,5,5.237,0,9,0,9,0,1,,,,,,,,,,,,,
5e1f938b06121f2be0d1ead4,TCN,2024-06-20_13h32.41.871,LearnStrategy,2023.2.3,Win32,60.97560976,1,1,11,0.02870369,-0.001851859,1,0,0,6.257,rock_grid_rect_2,6,10,-1,-1,6.257,0.086111139,-0.386111153,1,0,0,2.5179,Peridotite_rect,7,2.518,0,10,0,10,0,1,,,,,,,,,,,,,
5e1f938b06121f2be0d1ead4,TCN,2024-06-20_13h32.41.871,LearnStrategy,2023.2.3,Win32,60.97560976,1,1,12,-0.007407365,-0.005555577,1,0,0,1.6696,rock_grid_rect_2,4,05,-1,-1,1.67,0.404629601,-0.37962963,1,0,0,6.2517,Pumice_rect,8,6.252,0,11,0,11,0,1,,,,,,,,,,,,,
5e1f938b06121f2be0d1ead4,TCN,2024-06-20_13h32.41.871,LearnStrategy,2023.2.3,Win32,60.97560976,1,1,13,0.033333319,0.006481489,1,0,0,2.7681,rock_grid_rect_2,8,09,-1,-1,2.768,0.337037122,-0.413888931,1,0,0,1.5735,Pumice_rect,8,1.574,1,12,0,12,0,1,,,,,,,,,,,,,
5e1f938b06121f2be0d1ead4,TCN,2024-06-20_13h32.41.871,LearnStrategy,2023.2.3,Win32,60.97560976,1,1,14,0.00462963,0.015740748,1,0,0,1.2459,rock_grid_rect_2,1,02,-1,-1,1.246,0.093518504,-0.25,1,0,0,6.2637,Diorite_rect,3,6.264,0,13,0,13,0,1,,,,,,,,,,,,,
5e1f938b06121f2be0d1ead4,TCN,2024-06-20_13h32.41.871,LearnStrategy,2023.2.3,Win32,60.97560976,1,1,15,0.003703718,-0.01203703,1,0,0,1.4031,rock_grid_rect_2,5,05,-1,-1,1.403,-0.384259259,-0.380555541,1,0,0,3.1048,Obsidian_rect,5,3.105,1,14,0,14,0,1,,,,,,,,,,,,,
5e1f938b06121f2be0d1ead4,TCN,2024-06-20_13h32.41.871,LearnStrategy,2023.2.3,Win32,60.97560976,1,1,16,0.015740783,-0.00462963,1,0,0,1.129,rock_grid_rect_2,8,15,-1,-1,1.129,0.373148176,-0.396296325,1,0,0,2.5562,Pumice_rect,8,2.556,1,15,0,15,0,1,,,,,,,,,,,,,
5e1f938b06121f2be0d1ead4,TCN,2024-06-20_13h32.41.871,LearnStrategy,2023.2.3,Win32,60.97560976,1,2,1,,,,,,,,3,10,,,,,,,,,,,1,25.6,0,,,,,,-0.334259245,-0.253703718,1,0,0,25.6001,Andesite_rect,0,0,0,0,1,
5e1f938b06121f2be0d1ead4,TCN,2024-06-20_13h32.41.871,LearnStrategy,2023.2.3,Win32,60.97560976,1,2,2,,,,,,,,7,07,,,,,,,,,,,4,3.954,0,,,,,,0.350000028,-0.237037023,1,0,0,3.9539,Gabbro_rect,1,0,1,0,1,
5e1f938b06121f2be0d1ead4,TCN,2024-06-20_13h32.41.871,LearnStrategy,2023.2.3,Win32,60.97560976,1,2,3,,,,,,,,4,12,,,,,,,,,,,2,5.969,0,,,,,,-0.082407422,-0.262037065,1,0,0,5.9692,Basalt_rect,2,0,2,0,1,
5e1f938b06121f2be0d1ead4,TCN,2024-06-20_13h32.41.871,LearnStrategy,2023.2.3,Win32,60.97560976,1,2,4,,,,,,,,4,11,,,,,,,,,,,2,5.053,0,,,,,,-0.101851852,-0.236111111,1,0,0,5.0534,Basalt_rect,3,0,3,0,1,
5e1f938b06121f2be0d1ead4,TCN,2024-06-20_13h32.41.871,LearnStrategy,2023.2.3,Win32,60.97560976,1,2,5,,,,,,,,1,06,,,,,,,,,,,5,3.971,0,,,,,,-0.37962963,-0.397222236,1,0,0,3.9712,Obsidian_rect,4,0,4,0,1,
5e1f938b06121f2be0d1ead4,TCN,2024-06-20_13h32.41.871,LearnStrategy,2023.2.3,Win32,60.97560976,1,2,6,,,,,,,,2,02,,,,,,,,,,,2,8.864,1,,,,,,-0.113888847,-0.237037023,1,0,0,8.8642,Basalt_rect,5,0,5,0,1,
5e1f938b06121f2be0d1ead4,TCN,2024-06-20_13h32.41.871,LearnStrategy,2023.2.3,Win32,60.97560976,1,2,7,,,,,,,,6,05,,,,,,,,,,,1,2.222,0,,,,,,-0.375,-0.262962977,1,0,0,2.2217,Andesite_rect,6,0,6,0,1,
5e1f938b06121f2be0d1ead4,TCN,2024-06-20_13h32.41.871,LearnStrategy,2023.2.3,Win32,60.97560976,1,2,8,,,,,,,,6,12,,,,,,,,,,,6,3.389,1,,,,,,-0.102777764,-0.417592578,1,0,0,3.3895,Pegmatite_rect,7,0,7,0,1,
5e1f938b06121f2be0d1ead4,TCN,2024-06-20_13h32.41.871,LearnStrategy,2023.2.3,Win32,60.97560976,1,2,9,,,,,,,,8,02,,,,,,,,,,,8,1.512,1,,,,,,0.359259288,-0.378703718,1,0,0,1.5124,Pumice_rect,8,0,8,0,1,
5e1f938b06121f2be0d1ead4,TCN,2024-06-20_13h32.41.871,LearnStrategy,2023.2.3,Win32,60.97560976,1,2,10,,,,,,,,1,11,,,,,,,,,,,1,4.021,1,,,,,,-0.400000007,-0.246296282,1,0,0,4.0215,Andesite_rect,9,0,9,0,1,
5e1f938b06121f2be0d1ead4,TCN,2024-06-20_13h32.41.871,LearnStrategy,2023.2.3,Win32,60.97560976,1,2,11,,,,,,,,3,06,,,,,,,,,,,3,3.908,1,,,,,,0.12962963,-0.237037023,1,0,0,3.9078,Diorite_rect,10,0,10,0,1,
5e1f938b06121f2be0d1ead4,TCN,2024-06-20_13h32.41.871,LearnStrategy,2023.2.3,Win32,60.97560976,1,2,12,,,,,,,,5,04,,,,,,,,,,,5,2.19,1,,,,,,-0.405555548,-0.405555584,1,0,0,2.1898,Obsidian_rect,11,0,11,0,1,
5e1f938b06121f2be0d1ead4,TCN,2024-06-20_13h32.41.871,LearnStrategy,2023.2.3,Win32,60.97560976,1,2,13,,,,,,,,2,08,,,,,,,,,,,2,3.029,1,,,,,,-0.136111083,-0.243518547,1,0,0,3.0293,Basalt_rect,12,0,12,0,1,
5e1f938b06121f2be0d1ead4,TCN,2024-06-20_13h32.41.871,LearnStrategy,2023.2.3,Win32,60.97560976,1,2,14,,,,,,,,5,10,,,,,,,,,,,5,2.906,1,,,,,,-0.405555548,-0.406481496,1,0,0,2.9062,Obsidian_rect,13,0,13,0,1,
5e1f938b06121f2be0d1ead4,TCN,2024-06-20_13h32.41.871,LearnStrategy,2023.2.3,Win32,60.97560976,1,2,15,,,,,,,,8,05,,,,,,,,,,,8,2.605,1,,,,,,0.3648149,-0.390740783,1,0,0,2.6049,Pumice_rect,14,0,14,0,1,
5e1f938b06121f2be0d1ead4,TCN,2024-06-20_13h32.41.871,LearnStrategy,2023.2.3,Win32,60.97560976,1,2,16,,,,,,,,7,02,,,,,,,,,,,7,4.073,1,,,,,,0.073148162,-0.391666695,1,0,0,4.0729,Peridotite_rect,15,0,15,0,1,
5e1f938b06121f2be0d1ead4,TCN,2024-06-20_13h32.41.871,LearnStrategy,2023.2.3,Win32,60.97560976,2,1,1,-0.023148148,0.014814801,1,0,0,1.6129,rock_grid_rect_2,4,01,-1,-1,1.613,0.125,-0.234259288,1,0,0,3.689,Diorite_rect,3,3.689,0,0,0,0,0,1,,,,,,,,,,,,,
5e1f938b06121f2be0d1ead4,TCN,2024-06-20_13h32.41.871,LearnStrategy,2023.2.3,Win32,60.97560976,2,1,2,-0.045370384,0.01203703,1,0,0,1.4869,rock_grid_rect_2,7,15,-1,-1,1.487,0.108333376,-0.414814843,1,0,0,1.5567,Peridotite_rect,7,1.557,1,1,0,1,0,1,,,,,,,,,,,,,
5e1f938b06121f2be0d1ead4,TCN,2024-06-20_13h32.41.871,LearnStrategy,2023.2.3,Win32,60.97560976,2,1,3,0.038888931,0,1,0,0,1.5792,rock_grid_rect_2,8,08,-1,-1,1.579,0.387963048,-0.390740783,1,0,0,1.2618,Pumice_rect,8,1.262,1,2,0,2,0,1,,,,,,,,,,,,,
5e1f938b06121f2be0d1ead4,TCN,2024-06-20_13h32.41.871,LearnStrategy,2023.2.3,Win32,60.97560976,2,1,4,-0.006481453,-0.008333347,1,0,0,1.346,rock_grid_rect_2,5,07,-1,-1,1.346,-0.37962963,-0.396296325,1,0,0,1.8405,Obsidian_rect,5,1.841,1,3,0,3,0,1,,,,,,,,,,,,,
5e1f938b06121f2be0d1ead4,TCN,2024-06-20_13h32.41.871,LearnStrategy,2023.2.3,Win32,60.97560976,2,1,5,0.032407407,-0.013888889,1,0,0,1.0637,rock_grid_rect_2,6,13,-1,-1,1.064,-0.336111104,-0.26944443,1,0,0,4.6377,Andesite_rect,1,4.638,0,4,0,4,0,1,,,,,,,,,,,,,
5e1f938b06121f2be0d1ead4,TCN,2024-06-20_13h32.41.871,LearnStrategy,2023.2.3,Win32,60.97560976,2,1,6,0.006481524,-0.008333347,1,0,0,1.12,rock_grid_rect_2,6,03,-1,-1,1.12,0.133333347,-0.395370413,1,0,0,2.0732,Peridotite_rect,7,2.073,0,5,0,5,0,1,,,,,,,,,,,,,
5e1f938b06121f2be0d1ead4,TCN,2024-06-20_13h32.41.871,LearnStrategy,2023.2.3,Win32,60.97560976,2,1,7,-0.050925926,-0.009259259,1,0,0,1.1872,rock_grid_rect_2,1,10,-1,-1,1.187,-0.342592593,-0.24537037,1,0,0,3.687,Andesite_rect,1,3.687,1,6,0,6,0,1,,,,,,,,,,,,,
5e1f938b06121f2be0d1ead4,TCN,2024-06-20_13h32.41.871,LearnStrategy,2023.2.3,Win32,60.97560976,2,1,8,-0.040740755,-0.003703718,1,0,0,1.4454,rock_grid_rect_2,4,10,-1,-1,1.445,0.126851894,-0.241666653,1,0,0,7.2768,Diorite_rect,3,7.277,0,7,0,7,0,1,,,,,,,,,,,,,
5e1f938b06121f2be0d1ead4,TCN,2024-06-20_13h32.41.871,LearnStrategy,2023.2.3,Win32,60.97560976,2,1,9,0.02870369,0.017592571,1,0,0,2.0169,rock_grid_rect_2,5,12,-1,-1,2.017,-0.39907406,-0.419444473,1,0,0,1.3714,Obsidian_rect,5,1.371,1,8,0,8,0,1,,,,,,,,,,,,,
5e1f938b06121f2be0d1ead4,TCN,2024-06-20_13h32.41.871,LearnStrategy,2023.2.3,Win32,60.97560976,2,1,10,0.039814843,0.002777771,1,0,0,1.1467,rock_grid_rect_2,3,08,-1,-1,1.147,-0.137036995,-0.25462963,1,0,0,2.9814,Basalt_rect,2,2.981,0,9,0,9,0,1,,,,,,,,,,,,,
5e1f938b06121f2be0d1ead4,TCN,2024-06-20_13h32.41.871,LearnStrategy,2023.2.3,Win32,60.97560976,2,1,11,-0.036111125,0.000925912,1,0,0,1.2508,rock_grid_rect_2,8,10,-1,-1,1.251,0.377777806,-0.406481496,1,0,0,2.5851,Pumice_rect,8,2.585,1,10,0,10,0,1,,,,,,,,,,,,,
5e1f938b06121f2be0d1ead4,TCN,2024-06-20_13h32.41.871,LearnStrategy,2023.2.3,Win32,60.97560976,2,1,12,-0.005555541,0.002777771,1,0,0,1.4284,rock_grid_rect_2,7,04,-1,-1,1.428,-0.125925912,-0.378703718,1,0,0,4.7871,Pegmatite_rect,6,4.787,0,11,0,11,0,1,,,,,,,,,,,,,
5e1f938b06121f2be0d1ead4,TCN,2024-06-20_13h32.41.871,LearnStrategy,2023.2.3,Win32,60.97560976,2,1,13,0.035185213,0.000925912,1,0,0,1.4372,rock_grid_rect_2,2,11,-1,-1,1.437,0.199074074,-0.270370413,1,0,0,4.5046,Diorite_rect,3,4.505,0,12,0,12,0,1,,,,,,,,,,,,,
5e1f938b06121f2be0d1ead4,TCN,2024-06-20_13h32.41.871,LearnStrategy,2023.2.3,Win32,60.97560976,2,1,14,-0.063888903,-0.002777771,1,0,0,1.2785,rock_grid_rect_2,3,09,-1,-1,1.279,-0.384259259,-0.25462963,1,0,0,4.5877,Andesite_rect,1,4.588,0,13,0,13,0,1,,,,,,,,,,,,,
5e1f938b06121f2be0d1ead4,TCN,2024-06-20_13h32.41.871,LearnStrategy,2023.2.3,Win32,60.97560976,2,1,15,0.009259259,0.006481489,1,0,0,1.179,rock_grid_rect_2,2,16,-1,-1,1.179,-0.085185157,-0.24537037,1,0,0,1.7998,Basalt_rect,2,1.8,1,14,0,14,0,1,,,,,,,,,,,,,
5e1f938b06121f2be0d1ead4,TCN,2024-06-20_13h32.41.871,LearnStrategy,2023.2.3,Win32,60.97560976,2,1,16,-0.011111083,0.006481489,1,0,0,1.518,rock_grid_rect_2,1,16,-1,-1,1.518,-0.392592571,-0.258333347,1,0,0,11.9822,Andesite_rect,1,11.982,1,15,0,15,0,1,,,,,,,,,,,,,
5e1f938b06121f2be0d1ead4,TCN,2024-06-20_13h32.41.871,LearnStrategy,2023.2.3,Win32,60.97560976,2,2,1,,,,,,,,2,14,,,,,,,,,,,2,3.503,1,,,,,,-0.135185171,-0.258333347,1,0,0,3.5032,Basalt_rect,0,0,0,0,1,
5e1f938b06121f2be0d1ead4,TCN,2024-06-20_13h32.41.871,LearnStrategy,2023.2.3,Win32,60.97560976,2,2,2,,,,,,,,8,16,,,,,,,,,,,8,4.12,1,,,,,,0.390740712,-0.405555584,1,0,0,4.1202,Pumice_rect,1,0,1,0,1,
5e1f938b06121f2be0d1ead4,TCN,2024-06-20_13h32.41.871,LearnStrategy,2023.2.3,Win32,60.97560976,2,2,3,,,,,,,,8,03,,,,,,,,,,,8,2.373,1,,,,,,0.399999972,-0.411111125,1,0,0,2.3728,Pumice_rect,2,0,2,0,1,
5e1f938b06121f2be0d1ead4,TCN,2024-06-20_13h32.41.871,LearnStrategy,2023.2.3,Win32,60.97560976,2,2,4,,,,,,,,4,08,,,,,,,,,,,4,6.285,1,,,,,,0.357407464,-0.229629658,1,0,0,6.2851,Gabbro_rect,3,0,3,0,1,
5e1f938b06121f2be0d1ead4,TCN,2024-06-20_13h32.41.871,LearnStrategy,2023.2.3,Win32,60.97560976,2,2,5,,,,,,,,2,09,,,,,,,,,,,4,4.313,0,,,,,,0.352777834,-0.256481524,1,0,0,4.3128,Gabbro_rect,4,0,4,0,1,
5e1f938b06121f2be0d1ead4,TCN,2024-06-20_13h32.41.871,LearnStrategy,2023.2.3,Win32,60.97560976,2,2,6,,,,,,,,1,03,,,,,,,,,,,1,2.506,1,,,,,,-0.436111097,-0.252777806,1,0,0,2.5063,Andesite_rect,5,0,5,0,1,
5e1f938b06121f2be0d1ead4,TCN,2024-06-20_13h32.41.871,LearnStrategy,2023.2.3,Win32,60.97560976,2,2,7,,,,,,,,1,05,,,,,,,,,,,1,2.908,1,,,,,,-0.392592571,-0.250925912,1,0,0,2.9075,Andesite_rect,6,0,6,0,1,
5e1f938b06121f2be0d1ead4,TCN,2024-06-20_13h32.41.871,LearnStrategy,2023.2.3,Win32,60.97560976,2,2,8,,,,,,,,5,06,,,,,,,,,,,5,1.273,1,,,,,,-0.398148148,-0.417592578,1,0,0,1.2734,Obsidian_rect,7,0,7,0,1,
5e1f938b06121f2be0d1ead4,TCN,2024-06-20_13h32.41.871,LearnStrategy,2023.2.3,Win32,60.97560976,2,2,9,,,,,,,,6,06,,,,,,,,,,,6,3.655,1,,,,,,-0.116666653,-0.398148148,1,0,0,3.6549,Pegmatite_rect,8,0,8,0,1,
5e1f938b06121f2be0d1ead4,TCN,2024-06-20_13h32.41.871,LearnStrategy,2023.2.3,Win32,60.97560976,2,2,10,,,,,,,,4,15,,,,,,,,,,,1,3.911,0,,,,,,-0.392592571,-0.250925912,1,0,0,3.9108,Andesite_rect,9,0,9,0,1,
5e1f938b06121f2be0d1ead4,TCN,2024-06-20_13h32.41.871,LearnStrategy,2023.2.3,Win32,60.97560976,2,2,11,,,,,,,,6,08,,,,,,,,,,,6,3.588,1,,,,,,-0.134259259,-0.39907406,1,0,0,3.5882,Pegmatite_rect,10,0,10,0,1,
5e1f938b06121f2be0d1ead4,TCN,2024-06-20_13h32.41.871,LearnStrategy,2023.2.3,Win32,60.97560976,2,2,12,,,,,,,,3,02,,,,,,,,,,,3,7.218,1,,,,,,0.126851894,-0.246296282,1,0,0,7.2182,Diorite_rect,11,0,11,0,1,
5e1f938b06121f2be0d1ead4,TCN,2024-06-20_13h32.41.871,LearnStrategy,2023.2.3,Win32,60.97560976,2,2,13,,,,,,,,3,11,,,,,,,,,,,3,2.006,1,,,,,,0.126851894,-0.246296282,1,0,0,2.0056,Diorite_rect,12,0,12,0,1,
5e1f938b06121f2be0d1ead4,TCN,2024-06-20_13h32.41.871,LearnStrategy,2023.2.3,Win32,60.97560976,2,2,14,,,,,,,,7,06,,,,,,,,,,,7,1.723,1,,,,,,0.134259259,-0.390740783,1,0,0,1.723,Peridotite_rect,13,0,13,0,1,
5e1f938b06121f2be0d1ead4,TCN,2024-06-20_13h32.41.871,LearnStrategy,2023.2.3,Win32,60.97560976,2,2,15,,,,,,,,5,09,,,,,,,,,,,5,1.623,1,,,,,,-0.378703683,-0.380555541,1,0,0,1.623,Obsidian_rect,14,0,14,0,1,
5e1f938b06121f2be0d1ead4,TCN,2024-06-20_13h32.41.871,LearnStrategy,2023.2.3,Win32,60.97560976,2,2,16,,,,,,,,7,13,,,,,,,,,,,7,1.507,1,,,,,,0.135185171,-0.412037037,1,0,0,1.5065,Peridotite_rect,15,0,15,0,1,
5e1f938b06121f2be0d1ead4,TCN,2024-06-20_13h32.41.871,LearnStrategy,2023.2.3,Win32,60.97560976,3,1,1,0.012962977,0.010185171,1,0,0,1.3962,rock_grid_rect_2,1,14,-1,-1,1.396,-0.376851859,-0.25,1,0,0,3.7053,Andesite_rect,1,3.705,1,0,0,0,0,1,,,,,,,,,,,,,
5e1f938b06121f2be0d1ead4,TCN,2024-06-20_13h32.41.871,LearnStrategy,2023.2.3,Win32,60.97560976,3,1,2,-0.014814801,0.006481489,1,0,0,1.1791,rock_grid_rect_2,7,16,-1,-1,1.179,0.136111153,-0.400925954,1,0,0,3.1388,Peridotite_rect,7,3.139,1,1,0,1,0,1,,,,,,,,,,,,,
5e1f938b06121f2be0d1ead4,TCN,2024-06-20_13h32.41.871,LearnStrategy,2023.2.3,Win32,60.97560976,3,1,3,-0.003703718,-0.008333347,1,0,0,1.2455,rock_grid_rect_2,5,11,-1,-1,1.245,-0.400000007,-0.415740755,1,0,0,2.0068,Obsidian_rect,5,2.007,1,2,0,2,0,1,,,,,,,,,,,,,
5e1f938b06121f2be0d1ead4,TCN,2024-06-20_13h32.41.871,LearnStrategy,2023.2.3,Win32,60.97560976,3,1,4,-0.016666624,0.002777771,1,0,0,1.3465,rock_grid_rect_2,5,16,-1,-1,1.346,-0.410185178,-0.415740755,1,0,0,3.3214,Obsidian_rect,5,3.321,1,3,0,3,0,1,,,,,,,,,,,,,
5e1f938b06121f2be0d1ead4,TCN,2024-06-20_13h32.41.871,LearnStrategy,2023.2.3,Win32,60.97560976,3,1,5,0.132407436,0,1,0,0,1.7957,rock_grid_rect_2,6,07,-1,-1,1.796,-0.389814801,-0.25,1,0,0,5.8345,Andesite_rect,1,5.834,0,4,0,4,0,1,,,,,,,,,,,,,
5e1f938b06121f2be0d1ead4,TCN,2024-06-20_13h32.41.871,LearnStrategy,2023.2.3,Win32,60.97560976,3,1,6,0.012962977,-0.001851859,1,0,0,1.3022,rock_grid_rect_2,3,07,-1,-1,1.302,0.143518519,-0.251851894,1,0,0,2.9725,Diorite_rect,3,2.972,1,5,0,5,0,1,,,,,,,,,,,,,
5e1f938b06121f2be0d1ead4,TCN,2024-06-20_13h32.41.871,LearnStrategy,2023.2.3,Win32,60.97560976,3,1,7,-0.083333333,-0.003703718,1,0,0,3.011,rock_grid_rect_2,2,01,-1,-1,3.011,-0.111111111,-0.248148176,1,0,0,1.8237,Basalt_rect,2,1.824,1,6,0,6,0,1,,,,,,,,,,,,,
5e1f938b06121f2be0d1ead4,TCN,2024-06-20_13h32.41.871,LearnStrategy,2023.2.3,Win32,60.97560976,3,1,8,-0.009259259,0.014814801,1,0,0,1.2294,rock_grid_rect_2,4,03,-1,-1,1.229,0.148148148,-0.270370413,1,0,0,2.2729,Diorite_rect,3,2.273,0,7,0,7,0,1,,,,,,,,,,,,,
5e1f938b06121f2be0d1ead4,TCN,2024-06-20_13h32.41.871,LearnStrategy,2023.2.3,Win32,60.97560976,3,1,9,0.012962977,0.013888889,1,0,0,1.3456,rock_grid_rect_2,2,05,-1,-1,1.346,-0.124074088,-0.258333347,1,0,0,2.5561,Basalt_rect,2,2.556,1,8,0,8,0,1,,,,,,,,,,,,,
5e1f938b06121f2be0d1ead4,TCN,2024-06-20_13h32.41.871,LearnStrategy,2023.2.3,Win32,60.97560976,3,1,10,-0.015740712,-0.011111118,1,0,0,1.1783,rock_grid_rect_2,4,14,-1,-1,1.178,0.36018527,-0.242592635,1,0,0,2.0728,Gabbro_rect,4,2.073,1,9,0,9,0,1,,,,,,,,,,,,,
5e1f938b06121f2be0d1ead4,TCN,2024-06-20_13h32.41.871,LearnStrategy,2023.2.3,Win32,60.97560976,3,1,11,0.025925954,-0.021296289,1,0,0,1.613,rock_grid_rect_2,7,08,-1,-1,1.613,0.132407436,-0.401851866,1,0,0,1.4153,Peridotite_rect,7,1.415,1,10,0,10,0,1,,,,,,,,,,,,,
5e1f938b06121f2be0d1ead4,TCN,2024-06-20_13h32.41.871,LearnStrategy,2023.2.3,Win32,60.97560976,3,1,12,0.000925912,-0.019444466,1,0,0,1.6644,rock_grid_rect_2,8,14,-1,-1,1.664,0.356481481,-0.401851866,1,0,0,1.3524,Pumice_rect,8,1.352,1,11,0,11,0,1,,,,,,,,,,,,,
5e1f938b06121f2be0d1ead4,TCN,2024-06-20_13h32.41.871,LearnStrategy,2023.2.3,Win32,60.97560976,3,1,13,0.023148148,-0.023148148,1,0,0,1.4798,rock_grid_rect_2,8,04,-1,-1,1.48,0.415740826,-0.396296325,1,0,0,1.3092,Pumice_rect,8,1.309,1,12,0,12,0,1,,,,,,,,,,,,,
5e1f938b06121f2be0d1ead4,TCN,2024-06-20_13h32.41.871,LearnStrategy,2023.2.3,Win32,60.97560976,3,1,14,0.049074102,-0.020370377,1,0,0,1.5294,rock_grid_rect_2,1,09,-1,-1,1.529,-0.363888882,-0.253703718,1,0,0,4.1506,Andesite_rect,1,4.151,1,13,0,13,0,1,,,,,,,,,,,,,
5e1f938b06121f2be0d1ead4,TCN,2024-06-20_13h32.41.871,LearnStrategy,2023.2.3,Win32,60.97560976,3,1,15,-0.000925912,-0.002777771,1,0,0,1.4281,rock_grid_rect_2,6,11,-1,-1,1.428,-0.118518476,-0.386111153,1,0,0,1.9906,Pegmatite_rect,6,1.991,1,14,0,14,0,1,,,,,,,,,,,,,
5e1f938b06121f2be0d1ead4,TCN,2024-06-20_13h32.41.871,LearnStrategy,2023.2.3,Win32,60.97560976,3,1,16,-0.04814812,-0.014814836,1,0,0,1.2132,rock_grid_rect_2,3,15,-1,-1,1.213,0.342592593,-0.237037023,1,0,0,3.4393,Gabbro_rect,4,3.439,0,15,0,15,0,1,,,,,,,,,,,,,
5e1f938b06121f2be0d1ead4,TCN,2024-06-20_13h32.41.871,LearnStrategy,2023.2.3,Win32,60.97560976,3,2,1,,,,,,,,7,12,,,,,,,,,,,7,1.818,1,,,,,,0.134259259,-0.396296325,1,0,0,1.8182,Peridotite_rect,0,0,0,0,1,
5e1f938b06121f2be0d1ead4,TCN,2024-06-20_13h32.41.871,LearnStrategy,2023.2.3,Win32,60.97560976,3,2,2,,,,,,,,4,09,,,,,,,,,,,2,55.34,0,,,,,,-0.141666624,-0.238888917,1,0,0,55.3398,Basalt_rect,1,0,1,0,1,
5e1f938b06121f2be0d1ead4,TCN,2024-06-20_13h32.41.871,LearnStrategy,2023.2.3,Win32,60.97560976,3,2,3,,,,,,,,2,12,,,,,,,,,,,1,3.274,0,,,,,,-0.414814808,-0.25462963,1,0,0,3.2743,Andesite_rect,2,0,2,0,1,
5e1f938b06121f2be0d1ead4,TCN,2024-06-20_13h32.41.871,LearnStrategy,2023.2.3,Win32,60.97560976,3,2,4,,,,,,,,1,01,,,,,,,,,,,1,9.316,1,,,,,,-0.385185171,-0.241666653,1,0,0,9.3164,Andesite_rect,3,0,3,0,1,
5e1f938b06121f2be0d1ead4,TCN,2024-06-20_13h32.41.871,LearnStrategy,2023.2.3,Win32,60.97560976,3,2,5,,,,,,,,6,09,,,,,,,,,,,6,2.855,1,,,,,,-0.155555513,-0.395370413,1,0,0,2.8548,Pegmatite_rect,4,0,4,0,1,
5e1f938b06121f2be0d1ead4,TCN,2024-06-20_13h32.41.871,LearnStrategy,2023.2.3,Win32,60.97560976,3,2,6,,,,,,,,5,02,,,,,,,,,,,5,2.022,1,,,,,,-0.347222222,-0.405555584,1,0,0,2.0224,Obsidian_rect,5,0,5,0,1,
5e1f938b06121f2be0d1ead4,TCN,2024-06-20_13h32.41.871,LearnStrategy,2023.2.3,Win32,60.97560976,3,2,7,,,,,,,,4,13,,,,,,,,,,,4,10.999,1,,,,,,0.385185242,-0.238888917,1,0,0,10.9985,Gabbro_rect,6,0,6,0,1,
5e1f938b06121f2be0d1ead4,TCN,2024-06-20_13h32.41.871,LearnStrategy,2023.2.3,Win32,60.97560976,3,2,8,,,,,,,,7,05,,,,,,,,,,,6,4.509,0,,,,,,-0.103703675,-0.414814843,1,0,0,4.5088,Pegmatite_rect,7,0,7,0,1,
5e1f938b06121f2be0d1ead4,TCN,2024-06-20_13h32.41.871,LearnStrategy,2023.2.3,Win32,60.97560976,3,2,9,,,,,,,,8,13,,,,,,,,,,,8,2.273,1,,,,,,0.376851824,-0.398148148,1,0,0,2.2726,Pumice_rect,8,0,8,0,1,
5e1f938b06121f2be0d1ead4,TCN,2024-06-20_13h32.41.871,LearnStrategy,2023.2.3,Win32,60.97560976,3,2,10,,,,,,,,2,10,,,,,,,,,,,2,3.788,1,,,,,,-0.14444443,-0.241666653,1,0,0,3.7883,Basalt_rect,9,0,9,0,1,
5e1f938b06121f2be0d1ead4,TCN,2024-06-20_13h32.41.871,LearnStrategy,2023.2.3,Win32,60.97560976,3,2,11,,,,,,,,6,16,,,,,,,,,,,3,3.807,0,,,,,,0.12962963,-0.257407436,1,0,0,3.8075,Diorite_rect,10,0,10,0,1,
5e1f938b06121f2be0d1ead4,TCN,2024-06-20_13h32.41.871,LearnStrategy,2023.2.3,Win32,60.97560976,3,2,12,,,,,,,,1,07,,,,,,,,,,,3,6.406,0,,,,,,0.080555598,-0.247222265,1,0,0,6.4063,Diorite_rect,11,0,11,0,1,
5e1f938b06121f2be0d1ead4,TCN,2024-06-20_13h32.41.871,LearnStrategy,2023.2.3,Win32,60.97560976,3,2,13,,,,,,,,5,14,,,,,,,,,,,5,1.391,1,,,,,,-0.453703704,-0.411111125,1,0,0,1.3911,Obsidian_rect,12,0,12,0,1,
5e1f938b06121f2be0d1ead4,TCN,2024-06-20_13h32.41.871,LearnStrategy,2023.2.3,Win32,60.97560976,3,2,14,,,,,,,,3,16,,,,,,,,,,,3,2.639,1,,,,,,0.104629658,-0.237037023,1,0,0,2.639,Diorite_rect,13,0,13,0,1,
5e1f938b06121f2be0d1ead4,TCN,2024-06-20_13h32.41.871,LearnStrategy,2023.2.3,Win32,60.97560976,3,2,15,,,,,,,,8,06,,,,,,,,,,,8,1.224,1,,,,,,0.417592649,-0.395370413,1,0,0,1.2238,Pumice_rect,14,0,14,0,1,
5e1f938b06121f2be0d1ead4,TCN,2024-06-20_13h32.41.871,LearnStrategy,2023.2.3,Win32,60.97560976,3,2,16,,,,,,,,3,14,,,,,,,,,,,3,3.023,1,,,,,,0.12962963,-0.247222265,1,0,0,3.0226,Diorite_rect,15,0,15,0,1,
5e1f938b06121f2be0d1ead4,TCN,2024-06-20_13h32.41.871,LearnStrategy,2023.2.3,Win32,60.97560976,4,1,1,0.046296296,-0.009259259,1,0,0,2.1959,rock_grid_rect_2,5,08,-1,-1,2.196,-0.36296297,-0.391666695,1,0,0,1.4912,Obsidian_rect,5,1.491,1,0,0,0,0,1,,,,,,,,,,,,,
5e1f938b06121f2be0d1ead4,TCN,2024-06-20_13h32.41.871,LearnStrategy,2023.2.3,Win32,60.97560976,4,1,2,0.055555556,-0.005555577,1,0,0,1.8624,rock_grid_rect_2,8,04,-1,-1,1.862,0.400925954,-0.400925954,1,0,0,8.9506,Pumice_rect,8,8.951,1,1,0,1,0,1,,,,,,,,,,,,,
5e1f938b06121f2be0d1ead4,TCN,2024-06-20_13h32.41.871,LearnStrategy,2023.2.3,Win32,60.97560976,4,1,3,-0.036111125,0.003703683,1,0,0,2.4611,rock_grid_rect_2,2,05,-1,-1,2.461,-0.09629631,-0.237037023,1,0,0,1.391,Basalt_rect,2,1.391,1,2,0,2,0,1,,,,,,,,,,,,,
5e1f938b06121f2be0d1ead4,TCN,2024-06-20_13h32.41.871,LearnStrategy,2023.2.3,Win32,60.97560976,4,1,4,0.012037065,0.001851859,1,0,0,1.0138,rock_grid_rect_2,4,01,-1,-1,1.014,-0.383333312,-0.241666653,1,0,0,2.2396,Andesite_rect,1,2.24,0,3,0,3,0,1,,,,,,,,,,,,,
5e1f938b06121f2be0d1ead4,TCN,2024-06-20_13h32.41.871,LearnStrategy,2023.2.3,Win32,60.97560976,4,1,5,0.011111153,-0.000925947,1,0,0,2.5615,rock_grid_rect_2,8,14,-1,-1,2.562,0.37962963,-0.420370384,1,0,0,1.3505,Pumice_rect,8,1.351,1,4,0,4,0,1,,,,,,,,,,,,,
5e1f938b06121f2be0d1ead4,TCN,2024-06-20_13h32.41.871,LearnStrategy,2023.2.3,Win32,60.97560976,4,1,6,-0.002777735,0.009259259,1,0,0,12.0248,rock_grid_rect_2,6,11,-1,-1,12.025,-0.090740698,-0.383333347,1,0,0,1.7172,Pegmatite_rect,6,1.717,1,5,0,5,0,1,,,,,,,,,,,,,
5e1f938b06121f2be0d1ead4,TCN,2024-06-20_13h32.41.871,LearnStrategy,2023.2.3,Win32,60.97560976,4,1,7,0.020370413,-0.003703718,1,0,0,3.7776,rock_grid_rect_2,6,07,-1,-1,3.778,-0.117592564,-0.386111153,1,0,0,1.7741,Pegmatite_rect,6,1.774,1,6,0,6,0,1,,,,,,,,,,,,,
5e1f938b06121f2be0d1ead4,TCN,2024-06-20_13h32.41.871,LearnStrategy,2023.2.3,Win32,60.97560976,4,1,8,0.050000014,0.003703683,1,0,0,0.9968,rock_grid_rect_2,4,05,-1,-1,0.997,0.387037065,-0.24537037,1,0,0,1.477,Gabbro_rect,4,1.477,1,7,0,7,0,1,,,,,,,,,,,,,
5e1f938b06121f2be0d1ead4,TCN,2024-06-20_13h32.41.871,LearnStrategy,2023.2.3,Win32,60.97560976,4,1,9,0.002777806,0,1,0,0,1.1632,rock_grid_rect_2,1,09,-1,-1,1.163,-0.380555541,-0.247222265,1,0,0,3.154,Andesite_rect,1,3.154,1,8,0,8,0,1,,,,,,,,,,,,,
5e1f938b06121f2be0d1ead4,TCN,2024-06-20_13h32.41.871,LearnStrategy,2023.2.3,Win32,60.97560976,4,1,10,-0.037037037,0.015740748,1,0,0,46.6529,rock_grid_rect_2,3,08,-1,-1,46.653,0.130555541,-0.250925912,1,0,0,1.7568,Diorite_rect,3,1.757,1,9,0,9,0,1,,,,,,,,,,,,,
5e1f938b06121f2be0d1ead4,TCN,2024-06-20_13h32.41.871,LearnStrategy,2023.2.3,Win32,60.97560976,4,1,11,0.005555541,0.00462963,1,0,0,1.2706,rock_grid_rect_2,7,10,-1,-1,1.271,0.127777806,-0.414814843,1,0,0,2.573,Peridotite_rect,7,2.573,1,10,0,10,0,1,,,,,,,,,,,,,
5e1f938b06121f2be0d1ead4,TCN,2024-06-20_13h32.41.871,LearnStrategy,2023.2.3,Win32,60.97560976,4,1,12,-0.000925912,0.003703683,1,0,0,1.0532,rock_grid_rect_2,7,08,-1,-1,1.053,0.148148148,-0.393518519,1,0,0,1.8323,Peridotite_rect,7,1.832,1,11,0,11,0,1,,,,,,,,,,,,,
5e1f938b06121f2be0d1ead4,TCN,2024-06-20_13h32.41.871,LearnStrategy,2023.2.3,Win32,60.97560976,4,1,13,-0.013888889,-0.0074074,1,0,0,1.3493,rock_grid_rect_2,3,07,-1,-1,1.349,0.150925954,-0.256481524,1,0,0,2.3519,Diorite_rect,3,2.352,1,12,0,12,0,1,,,,,,,,,,,,,
5e1f938b06121f2be0d1ead4,TCN,2024-06-20_13h32.41.871,LearnStrategy,2023.2.3,Win32,60.97560976,4,1,14,-0.012036995,0.002777771,1,0,0,3.9667,rock_grid_rect_2,5,16,-1,-1,3.967,-0.344444452,-0.392592607,1,0,0,1.4577,Obsidian_rect,5,1.458,1,13,0,13,0,1,,,,,,,,,,,,,
5e1f938b06121f2be0d1ead4,TCN,2024-06-20_13h32.41.871,LearnStrategy,2023.2.3,Win32,60.97560976,4,1,15,0.016666695,-0.00462963,1,0,0,1.3129,rock_grid_rect_2,1,02,-1,-1,1.313,-0.35833334,-0.262962977,1,0,0,1.6403,Andesite_rect,1,1.64,1,14,0,14,0,1,,,,,,,,,,,,,
5e1f938b06121f2be0d1ead4,TCN,2024-06-20_13h32.41.871,LearnStrategy,2023.2.3,Win32,60.97560976,4,1,16,-0.018518519,-0.018518519,1,0,0,1.0962,rock_grid_rect_2,2,11,-1,-1,1.096,0.35555564,-0.237963005,1,0,0,3.6058,Gabbro_rect,4,3.606,0,15,0,15,0,1,,,,,,,,,,,,,
5e1f938b06121f2be0d1ead4,TCN,2024-06-20_13h32.41.871,LearnStrategy,2023.2.3,Win32,60.97560976,4,2,1,,,,,,,,6,06,,,,,,,,,,,6,3.289,1,,,,,,-0.111111111,-0.410185213,1,0,0,3.2887,Pegmatite_rect,0,0,0,0,1,
5e1f938b06121f2be0d1ead4,TCN,2024-06-20_13h32.41.871,LearnStrategy,2023.2.3,Win32,60.97560976,4,2,2,,,,,,,,2,08,,,,,,,,,,,2,1.498,1,,,,,,-0.12037037,-0.237963005,1,0,0,1.498,Basalt_rect,1,0,1,0,1,
5e1f938b06121f2be0d1ead4,TCN,2024-06-20_13h32.41.871,LearnStrategy,2023.2.3,Win32,60.97560976,4,2,3,,,,,,,,1,01,,,,,,,,,,,4,2.523,0,,,,,,0.386111083,-0.238888917,1,0,0,2.5233,Gabbro_rect,2,0,2,0,1,
5e1f938b06121f2be0d1ead4,TCN,2024-06-20_13h32.41.871,LearnStrategy,2023.2.3,Win32,60.97560976,4,2,4,,,,,,,,2,14,,,,,,,,,,,4,1.745,0,,,,,,0.373148176,-0.25462963,1,0,0,1.7452,Gabbro_rect,3,0,3,0,1,
5e1f938b06121f2be0d1ead4,TCN,2024-06-20_13h32.41.871,LearnStrategy,2023.2.3,Win32,60.97560976,4,2,5,,,,,,,,6,12,,,,,,,,,,,1,14.346,0,,,,,,-0.380555541,-0.259259259,1,0,0,14.3456,Andesite_rect,4,0,4,0,1,
5e1f938b06121f2be0d1ead4,TCN,2024-06-20_13h32.41.871,LearnStrategy,2023.2.3,Win32,60.97560976,4,2,6,,,,,,,,1,05,,,,,,,,,,,1,3.654,1,,,,,,-0.37962963,-0.234259288,1,0,0,3.6544,Andesite_rect,5,0,5,0,1,
5e1f938b06121f2be0d1ead4,TCN,2024-06-20_13h32.41.871,LearnStrategy,2023.2.3,Win32,60.97560976,4,2,7,,,,,,,,7,06,,,,,,,,,,,7,2.004,1,,,,,,0.099074116,-0.389814801,1,0,0,2.0041,Peridotite_rect,6,0,6,0,1,
5e1f938b06121f2be0d1ead4,TCN,2024-06-20_13h32.41.871,LearnStrategy,2023.2.3,Win32,60.97560976,4,2,8,,,,,,,,4,15,,,,,,,,,,,4,6.073,1,,,,,,0.337962963,-0.262962977,1,0,0,6.0735,Gabbro_rect,7,0,7,0,1,
5e1f938b06121f2be0d1ead4,TCN,2024-06-20_13h32.41.871,LearnStrategy,2023.2.3,Win32,60.97560976,4,2,9,,,,,,,,8,16,,,,,,,,,,,4,8.133,0,,,,,,0.393518519,-0.252777806,1,0,0,8.1334,Gabbro_rect,8,0,8,0,1,
5e1f938b06121f2be0d1ead4,TCN,2024-06-20_13h32.41.871,LearnStrategy,2023.2.3,Win32,60.97560976,4,2,10,,,,,,,,8,13,,,,,,,,,,,8,2.457,1,,,,,,0.383333418,-0.400925954,1,0,0,2.4565,Pumice_rect,9,0,9,0,1,
5e1f938b06121f2be0d1ead4,TCN,2024-06-20_13h32.41.871,LearnStrategy,2023.2.3,Win32,60.97560976,4,2,11,,,,,,,,5,02,,,,,,,,,,,5,1.39,1,,,,,,-0.388888889,-0.408333319,1,0,0,1.3903,Obsidian_rect,10,0,10,0,1,
5e1f938b06121f2be0d1ead4,TCN,2024-06-20_13h32.41.871,LearnStrategy,2023.2.3,Win32,60.97560976,4,2,12,,,,,,,,3,06,,,,,,,,,,,3,2.756,1,,,,,,0.115740741,-0.248148176,1,0,0,2.7562,Diorite_rect,11,0,11,0,1,
5e1f938b06121f2be0d1ead4,TCN,2024-06-20_13h32.41.871,LearnStrategy,2023.2.3,Win32,60.97560976,4,2,13,,,,,,,,3,02,,,,,,,,,,,3,2.541,1,,,,,,0.115740741,-0.248148176,1,0,0,2.5406,Diorite_rect,12,0,12,0,1,
5e1f938b06121f2be0d1ead4,TCN,2024-06-20_13h32.41.871,LearnStrategy,2023.2.3,Win32,60.97560976,4,2,14,,,,,,,,4,13,,,,,,,,,,,4,5.436,1,,,,,,0.395370342,-0.260185171,1,0,0,5.4362,Gabbro_rect,13,0,13,0,1,
5e1f938b06121f2be0d1ead4,TCN,2024-06-20_13h32.41.871,LearnStrategy,2023.2.3,Win32,60.97560976,4,2,15,,,,,,,,5,14,,,,,,,,,,,5,1.806,1,,,,,,-0.408333319,-0.400925954,1,0,0,1.8057,Obsidian_rect,14,0,14,0,1,
5e1f938b06121f2be0d1ead4,TCN,2024-06-20_13h32.41.871,LearnStrategy,2023.2.3,Win32,60.97560976,4,2,16,,,,,,,,7,12,,,,,,,,,,,7,2.755,1,,,,,,0.103703746,-0.39444443,1,0,0,2.7547,Peridotite_rect,15,0,15,0,1,
5e1f938b06121f2be0d1ead4,TCN,2024-06-20_13h32.41.871,LearnStrategy,2023.2.3,Win32,60.97560976,5,1,1,-0.006481453,0.015740748,1,0,0,1.28,rock_grid_rect_2,6,10,-1,-1,1.28,0.117592635,-0.405555584,1,0,0,1.9561,Peridotite_rect,7,1.956,0,0,0,0,0,1,,,,,,,,,,,,,
5e1f938b06121f2be0d1ead4,TCN,2024-06-20_13h32.41.871,LearnStrategy,2023.2.3,Win32,60.97560976,5,1,2,0.018518519,0.010185171,1,0,0,1.9716,rock_grid_rect_2,6,03,-1,-1,1.972,-0.112962935,-0.404629672,1,0,0,6.9347,Pegmatite_rect,6,6.935,1,1,0,1,0,1,,,,,,,,,,,,,
5e1f938b06121f2be0d1ead4,TCN,2024-06-20_13h32.41.871,LearnStrategy,2023.2.3,Win32,60.97560976,5,1,3,-0.005555541,-0.000925947,1,0,0,1.2625,rock_grid_rect_2,4,10,-1,-1,1.262,0.341666751,-0.237963005,1,0,0,2.4717,Gabbro_rect,4,2.472,1,2,0,2,0,1,,,,,,,,,,,,,
5e1f938b06121f2be0d1ead4,TCN,2024-06-20_13h32.41.871,LearnStrategy,2023.2.3,Win32,60.97560976,5,1,4,-0.011111083,0,1,0,0,3.693,rock_grid_rect_2,3,12,-1,-1,3.693,0.162037037,-0.261111153,1,0,0,1.6233,Diorite_rect,3,1.623,1,3,0,3,0,1,,,,,,,,,,,,,
5e1f938b06121f2be0d1ead4,TCN,2024-06-20_13h32.41.871,LearnStrategy,2023.2.3,Win32,60.97560976,5,1,5,0.070370356,0.0074074,1,0,0,1.3466,rock_grid_rect_2,7,15,-1,-1,1.347,0.128703718,-0.414814843,1,0,0,2.6633,Peridotite_rect,7,2.663,1,4,0,4,0,1,,,,,,,,,,,,,
5e1f938b06121f2be0d1ead4,TCN,2024-06-20_13h32.41.871,LearnStrategy,2023.2.3,Win32,60.97560976,5,1,6,0.013888889,0.005555541,1,0,0,5.0468,rock_grid_rect_2,8,15,-1,-1,5.047,0.441666638,-0.391666695,1,0,0,1.5854,Pumice_rect,8,1.585,1,5,0,5,0,1,,,,,,,,,,,,,
5e1f938b06121f2be0d1ead4,TCN,2024-06-20_13h32.41.871,LearnStrategy,2023.2.3,Win32,60.97560976,5,1,7,-0.011111083,-0.006481489,1,0,0,1.2135,rock_grid_rect_2,8,08,-1,-1,1.213,0.394444501,-0.398148148,1,0,0,2.4221,Pumice_rect,8,2.422,1,6,0,6,0,1,,,,,,,,,,,,,
5e1f938b06121f2be0d1ead4,TCN,2024-06-20_13h32.41.871,LearnStrategy,2023.2.3,Win32,60.97560976,5,1,8,0.044444473,0,1,0,0,7.4899,rock_grid_rect_2,7,04,-1,-1,7.49,0.142592607,-0.405555584,1,0,0,3.9046,Peridotite_rect,7,3.905,1,7,0,7,0,1,,,,,,,,,,,,,
5e1f938b06121f2be0d1ead4,TCN,2024-06-20_13h32.41.871,LearnStrategy,2023.2.3,Win32,60.97560976,5,1,9,0.053703732,0.003703683,1,0,0,1.3785,rock_grid_rect_2,5,07,-1,-1,1.379,-0.368518511,-0.411111125,1,0,0,1.3572,Obsidian_rect,5,1.357,1,8,0,8,0,1,,,,,,,,,,,,,
5e1f938b06121f2be0d1ead4,TCN,2024-06-20_13h32.41.871,LearnStrategy,2023.2.3,Win32,60.97560976,5,1,10,0.075925968,-0.012962977,1,0,0,1.3126,rock_grid_rect_2,3,09,-1,-1,1.313,0.111111111,-0.24537037,1,0,0,1.6572,Diorite_rect,3,1.657,1,9,0,9,0,1,,,,,,,,,,,,,
5e1f938b06121f2be0d1ead4,TCN,2024-06-20_13h32.41.871,LearnStrategy,2023.2.3,Win32,60.97560976,5,1,11,0.030555584,-0.002777771,1,0,0,2.8701,rock_grid_rect_2,1,16,-1,-1,2.87,-0.36296297,-0.235185199,1,0,0,1.6151,Andesite_rect,1,1.615,1,10,0,10,0,1,,,,,,,,,,,,,
5e1f938b06121f2be0d1ead4,TCN,2024-06-20_13h32.41.871,LearnStrategy,2023.2.3,Win32,60.97560976,5,1,12,-0.00462963,-0.019444466,1,0,0,12.0832,rock_grid_rect_2,2,06,-1,-1,12.083,-0.139814801,-0.256481524,1,0,0,5.0829,Basalt_rect,2,5.083,1,11,0,11,0,1,,,,,,,,,,,,,
5e1f938b06121f2be0d1ead4,TCN,2024-06-20_13h32.41.871,LearnStrategy,2023.2.3,Win32,60.97560976,5,1,13,0.05740745,0.003703683,1,0,0,2.2027,rock_grid_rect_2,4,16,-1,-1,2.203,-0.128703718,-0.255555541,1,0,0,3.3424,Basalt_rect,2,3.342,0,12,0,12,0,1,,,,,,,,,,,,,
5e1f938b06121f2be0d1ead4,TCN,2024-06-20_13h32.41.871,LearnStrategy,2023.2.3,Win32,60.97560976,5,1,14,0.00462963,-0.014814836,1,0,0,1.1216,rock_grid_rect_2,5,11,-1,-1,1.122,-0.388888889,-0.400000042,1,0,0,1.6236,Obsidian_rect,5,1.624,1,13,0,13,0,1,,,,,,,,,,,,,
5e1f938b06121f2be0d1ead4,TCN,2024-06-20_13h32.41.871,LearnStrategy,2023.2.3,Win32,60.97560976,5,1,15,0.029629672,0.014814801,1,0,0,2.5617,rock_grid_rect_2,2,16,-1,-1,2.562,0.339814787,-0.259259259,1,0,0,2.8923,Gabbro_rect,4,2.892,0,14,0,14,0,1,,,,,,,,,,,,,
5e1f938b06121f2be0d1ead4,TCN,2024-06-20_13h32.41.871,LearnStrategy,2023.2.3,Win32,60.97560976,5,1,16,0.071296339,-0.00462963,1,0,0,1.0618,rock_grid_rect_2,1,10,-1,-1,1.062,-0.39166666,-0.250925912,1,0,0,1.7736,Andesite_rect,1,1.774,1,15,0,15,0,1,,,,,,,,,,,,,
5e1f938b06121f2be0d1ead4,TCN,2024-06-20_13h32.41.871,LearnStrategy,2023.2.3,Win32,60.97560976,5,2,1,,,,,,,,3,14,,,,,,,,,,,3,1.555,1,,,,,,0.116666653,-0.256481524,1,0,0,1.555,Diorite_rect,0,0,0,0,1,
5e1f938b06121f2be0d1ead4,TCN,2024-06-20_13h32.41.871,LearnStrategy,2023.2.3,Win32,60.97560976,5,2,2,,,,,,,,8,05,,,,,,,,,,,8,1.565,1,,,,,,0.391666695,-0.397222236,1,0,0,1.5647,Pumice_rect,1,0,1,0,1,
5e1f938b06121f2be0d1ead4,TCN,2024-06-20_13h32.41.871,LearnStrategy,2023.2.3,Win32,60.97560976,5,2,3,,,,,,,,1,03,,,,,,,,,,,1,1.982,1,,,,,,-0.426851838,-0.260185171,1,0,0,1.982,Andesite_rect,2,0,2,0,1,
5e1f938b06121f2be0d1ead4,TCN,2024-06-20_13h32.41.871,LearnStrategy,2023.2.3,Win32,60.97560976,5,2,4,,,,,,,,4,11,,,,,,,,,,,4,5.087,1,,,,,,0.371296353,-0.243518547,1,0,0,5.0867,Gabbro_rect,3,0,3,0,1,
5e1f938b06121f2be0d1ead4,TCN,2024-06-20_13h32.41.871,LearnStrategy,2023.2.3,Win32,60.97560976,5,2,5,,,,,,,,7,07,,,,,,,,,,,7,2.81,1,,,,,,0.123148176,-0.391666695,1,0,0,2.81,Peridotite_rect,4,0,4,0,1,
5e1f938b06121f2be0d1ead4,TCN,2024-06-20_13h32.41.871,LearnStrategy,2023.2.3,Win32,60.97560976,5,2,6,,,,,,,,5,10,,,,,,,,,,,5,3.839,1,,,,,,-0.396296289,-0.386111153,1,0,0,3.8387,Obsidian_rect,5,0,5,0,1,
5e1f938b06121f2be0d1ead4,TCN,2024-06-20_13h32.41.871,LearnStrategy,2023.2.3,Win32,60.97560976,5,2,7,,,,,,,,6,05,,,,,,,,,,,3,3.125,0,,,,,,0.093518504,-0.237963005,1,0,0,3.1252,Diorite_rect,6,0,6,0,1,
5e1f938b06121f2be0d1ead4,TCN,2024-06-20_13h32.41.871,LearnStrategy,2023.2.3,Win32,60.97560976,5,2,8,,,,,,,,7,02,,,,,,,,,,,7,2.256,1,,,,,,0.132407436,-0.40370369,1,0,0,2.2559,Peridotite_rect,7,0,7,0,1,
5e1f938b06121f2be0d1ead4,TCN,2024-06-20_13h32.41.871,LearnStrategy,2023.2.3,Win32,60.97560976,5,2,9,,,,,,,,2,12,,,,,,,,,,,2,3.281,1,,,,,,-0.149999972,-0.258333347,1,0,0,3.2809,Basalt_rect,8,0,8,0,1,
5e1f938b06121f2be0d1ead4,TCN,2024-06-20_13h32.41.871,LearnStrategy,2023.2.3,Win32,60.97560976,5,2,10,,,,,,,,1,06,,,,,,,,,,,1,1.869,1,,,,,,-0.412037037,-0.246296282,1,0,0,1.869,Andesite_rect,9,0,9,0,1,
5e1f938b06121f2be0d1ead4,TCN,2024-06-20_13h32.41.871,LearnStrategy,2023.2.3,Win32,60.97560976,5,2,11,,,,,,,,3,11,,,,,,,,,,,6,5.97,0,,,,,,-0.122222194,-0.396296325,1,0,0,5.9698,Pegmatite_rect,10,0,10,0,1,
5e1f938b06121f2be0d1ead4,TCN,2024-06-20_13h32.41.871,LearnStrategy,2023.2.3,Win32,60.97560976,5,2,12,,,,,,,,2,02,,,,,,,,,,,4,8.584,0,,,,,,0.353703675,-0.257407436,1,0,0,8.5836,Gabbro_rect,11,0,11,0,1,
5e1f938b06121f2be0d1ead4,TCN,2024-06-20_13h32.41.871,LearnStrategy,2023.2.3,Win32,60.97560976,5,2,13,,,,,,,,5,04,,,,,,,,,,,5,1.34,1,,,,,,-0.39444443,-0.410185213,1,0,0,1.3404,Obsidian_rect,12,0,12,0,1,
5e1f938b06121f2be0d1ead4,TCN,2024-06-20_13h32.41.871,LearnStrategy,2023.2.3,Win32,60.97560976,5,2,14,,,,,,,,6,08,,,,,,,,,,,6,5.138,1,,,,,,-0.115740741,-0.397222236,1,0,0,5.1377,Pegmatite_rect,13,0,13,0,1,
5e1f938b06121f2be0d1ead4,TCN,2024-06-20_13h32.41.871,LearnStrategy,2023.2.3,Win32,60.97560976,5,2,15,,,,,,,,4,08,,,,,,,,,,,1,3.538,0,,,,,,-0.404629637,-0.248148176,1,0,0,3.5381,Andesite_rect,14,0,14,0,1,
5e1f938b06121f2be0d1ead4,TCN,2024-06-20_13h32.41.871,LearnStrategy,2023.2.3,Win32,60.97560976,5,2,16,,,,,,,,8,02,,,,,,,,,,,8,1.34,1,,,,,,0.390740712,-0.395370413,1,0,0,1.3398,Pumice_rect,15,0,15,0,1,
5e1f938b06121f2be0d1ead4,TCN,2024-06-20_13h32.41.871,LearnStrategy,2023.2.3,Win32,60.97560976,6,1,1,0.008333347,0.0074074,1,0,0,2.7453,rock_grid_rect_2,5,05,-1,-1,2.745,-0.351851852,-0.384259259,1,0,0,2.0566,Obsidian_rect,5,2.057,1,0,0,0,0,1,,,,,,,,,,,,,
5e1f938b06121f2be0d1ead4,TCN,2024-06-20_13h32.41.871,LearnStrategy,2023.2.3,Win32,60.97560976,6,1,2,0.008333347,-0.01203703,1,0,0,1.1793,rock_grid_rect_2,1,04,-1,-1,1.179,-0.37962963,-0.25,1,0,0,1.674,Andesite_rect,1,1.674,1,1,0,1,0,1,,,,,,,,,,,,,
5e1f938b06121f2be0d1ead4,TCN,2024-06-20_13h32.41.871,LearnStrategy,2023.2.3,Win32,60.97560976,6,1,3,0.037037037,-0.017592607,1,0,0,1.03,rock_grid_rect_2,3,15,-1,-1,1.03,0.148148148,-0.247222265,1,0,0,1.9894,Diorite_rect,3,1.989,1,2,0,2,0,1,,,,,,,,,,,,,
5e1f938b06121f2be0d1ead4,TCN,2024-06-20_13h32.41.871,LearnStrategy,2023.2.3,Win32,60.97560976,6,1,4,0.074999986,0.018518519,1,0,0,1.0795,rock_grid_rect_2,6,13,-1,-1,1.08,-0.097222222,-0.402777778,1,0,0,1.8069,Pegmatite_rect,6,1.807,1,3,0,3,0,1,,,,,,,,,,,,,
5e1f938b06121f2be0d1ead4,TCN,2024-06-20_13h32.41.871,LearnStrategy,2023.2.3,Win32,60.97560976,6,1,5,0.006481524,-0.021296289,1,0,0,0.9964,rock_grid_rect_2,2,04,-1,-1,0.996,-0.109259217,-0.237037023,1,0,0,1.9235,Basalt_rect,2,1.923,1,4,0,4,0,1,,,,,,,,,,,,,
5e1f938b06121f2be0d1ead4,TCN,2024-06-20_13h32.41.871,LearnStrategy,2023.2.3,Win32,60.97560976,6,1,6,0.049074102,-0.01203703,1,0,0,1.0965,rock_grid_rect_2,6,15,-1,-1,1.097,-0.132407365,-0.398148148,1,0,0,1.6096,Pegmatite_rect,6,1.61,1,5,0,5,0,1,,,,,,,,,,,,,
5e1f938b06121f2be0d1ead4,TCN,2024-06-20_13h32.41.871,LearnStrategy,2023.2.3,Win32,60.97560976,6,1,7,0.020370413,-0.006481489,1,0,0,1.4133,rock_grid_rect_2,5,12,-1,-1,1.413,-0.40648146,-0.401851866,1,0,0,1.9402,Obsidian_rect,5,1.94,1,6,0,6,0,1,,,,,,,,,,,,,
5e1f938b06121f2be0d1ead4,TCN,2024-06-20_13h32.41.871,LearnStrategy,2023.2.3,Win32,60.97560976,6,1,8,0.000925912,0.014814801,1,0,0,1.1806,rock_grid_rect_2,4,03,-1,-1,1.181,0.137037065,-0.249074088,1,0,0,3.8546,Diorite_rect,3,3.855,0,7,0,7,0,1,,,,,,,,,,,,,
5e1f938b06121f2be0d1ead4,TCN,2024-06-20_13h32.41.871,LearnStrategy,2023.2.3,Win32,60.97560976,6,1,9,0.034259302,-0.0074074,1,0,0,1.3122,rock_grid_rect_2,8,10,-1,-1,1.312,0.407407407,-0.398148148,1,0,0,1.4089,Pumice_rect,8,1.409,1,8,0,8,0,1,,,,,,,,,,,,,
5e1f938b06121f2be0d1ead4,TCN,2024-06-20_13h32.41.871,LearnStrategy,2023.2.3,Win32,60.97560976,6,1,10,0.008333347,-0.011111118,1,0,0,1.2135,rock_grid_rect_2,8,09,-1,-1,1.214,0.382407436,-0.39907406,1,0,0,1.7108,Pumice_rect,8,1.711,1,9,0,9,0,1,,,,,,,,,,,,,
5e1f938b06121f2be0d1ead4,TCN,2024-06-20_13h32.41.871,LearnStrategy,2023.2.3,Win32,60.97560976,6,1,11,0.002777806,-0.011111118,1,0,0,1.2301,rock_grid_rect_2,1,14,-1,-1,1.23,-0.368518511,-0.238888917,1,0,0,2.4396,Andesite_rect,1,2.44,1,10,0,10,0,1,,,,,,,,,,,,,
5e1f938b06121f2be0d1ead4,TCN,2024-06-20_13h32.41.871,LearnStrategy,2023.2.3,Win32,60.97560976,6,1,12,0.018518519,0.013888889,1,0,0,1.5615,rock_grid_rect_2,7,14,-1,-1,1.562,0.141666695,-0.386111153,1,0,0,2.2061,Peridotite_rect,7,2.206,1,11,0,11,0,1,,,,,,,,,,,,,
5e1f938b06121f2be0d1ead4,TCN,2024-06-20_13h32.41.871,LearnStrategy,2023.2.3,Win32,60.97560976,6,1,13,0.02870369,-0.01203703,1,0,0,1.1126,rock_grid_rect_2,7,16,-1,-1,1.113,0.125,-0.400925954,1,0,0,1.7189,Peridotite_rect,7,1.719,1,12,0,12,0,1,,,,,,,,,,,,,
5e1f938b06121f2be0d1ead4,TCN,2024-06-20_13h32.41.871,LearnStrategy,2023.2.3,Win32,60.97560976,6,1,14,0.008333347,-0.002777771,1,0,0,1.4128,rock_grid_rect_2,2,01,-1,-1,1.413,-0.125925912,-0.246296282,1,0,0,1.5258,Basalt_rect,2,1.526,1,13,0,13,0,1,,,,,,,,,,,,,
5e1f938b06121f2be0d1ead4,TCN,2024-06-20_13h32.41.871,LearnStrategy,2023.2.3,Win32,60.97560976,6,1,15,0.020370413,0.008333312,1,0,0,1.1965,rock_grid_rect_2,4,14,-1,-1,1.197,0.359259288,-0.23055557,1,0,0,1.5079,Gabbro_rect,4,1.508,1,14,0,14,0,1,,,,,,,,,,,,,
5e1f938b06121f2be0d1ead4,TCN,2024-06-20_13h32.41.871,LearnStrategy,2023.2.3,Win32,60.97560976,6,1,16,0.010185171,-0.010185206,1,0,0,1.1299,rock_grid_rect_2,3,13,-1,-1,1.13,0.119444459,-0.241666653,1,0,0,1.6403,Diorite_rect,3,1.64,1,15,0,15,0,1,,,,,,,,,,,,,
5e1f938b06121f2be0d1ead4,TCN,2024-06-20_13h32.41.871,LearnStrategy,2023.2.3,Win32,60.97560976,6,2,1,,,,,,,,8,03,,,,,,,,,,,8,1.449,1,,,,,,0.387037065,-0.393518519,1,0,0,1.449,Pumice_rect,0,0,0,0,1,
5e1f938b06121f2be0d1ead4,TCN,2024-06-20_13h32.41.871,LearnStrategy,2023.2.3,Win32,60.97560976,6,2,2,,,,,,,,4,12,,,,,,,,,,,4,2.138,1,,,,,,0.383333418,-0.237037023,1,0,0,2.1385,Gabbro_rect,1,0,1,0,1,
5e1f938b06121f2be0d1ead4,TCN,2024-06-20_13h32.41.871,LearnStrategy,2023.2.3,Win32,60.97560976,6,2,3,,,,,,,,6,16,,,,,,,,,,,3,3.429,0,,,,,,0.127777806,-0.242592635,1,0,0,3.4295,Diorite_rect,2,0,2,0,1,
5e1f938b06121f2be0d1ead4,TCN,2024-06-20_13h32.41.871,LearnStrategy,2023.2.3,Win32,60.97560976,6,2,4,,,,,,,,1,07,,,,,,,,,,,1,2.41,1,,,,,,-0.393518519,-0.256481524,1,0,0,2.41,Andesite_rect,3,0,3,0,1,
5e1f938b06121f2be0d1ead4,TCN,2024-06-20_13h32.41.871,LearnStrategy,2023.2.3,Win32,60.97560976,6,2,5,,,,,,,,8,06,,,,,,,,,,,8,1.428,1,,,,,,0.399074131,-0.400925954,1,0,0,1.428,Pumice_rect,4,0,4,0,1,
5e1f938b06121f2be0d1ead4,TCN,2024-06-20_13h32.41.871,LearnStrategy,2023.2.3,Win32,60.97560976,6,2,6,,,,,,,,5,06,,,,,,,,,,,5,1.857,1,,,,,,-0.400000007,-0.395370413,1,0,0,1.8566,Obsidian_rect,5,0,5,0,1,
5e1f938b06121f2be0d1ead4,TCN,2024-06-20_13h32.41.871,LearnStrategy,2023.2.3,Win32,60.97560976,6,2,7,,,,,,,,2,09,,,,,,,,,,,2,1.713,1,,,,,,-0.122222194,-0.233333376,1,0,0,1.7129,Basalt_rect,6,0,6,0,1,
5e1f938b06121f2be0d1ead4,TCN,2024-06-20_13h32.41.871,LearnStrategy,2023.2.3,Win32,60.97560976,6,2,8,,,,,,,,3,16,,,,,,,,,,,3,2.255,1,,,,,,0.103703746,-0.246296282,1,0,0,2.2552,Diorite_rect,7,0,7,0,1,
5e1f938b06121f2be0d1ead4,TCN,2024-06-20_13h32.41.871,LearnStrategy,2023.2.3,Win32,60.97560976,6,2,9,,,,,,,,5,09,,,,,,,,,,,5,1.489,1,,,,,,-0.388888889,-0.410185213,1,0,0,1.4889,Obsidian_rect,8,0,8,0,1,
5e1f938b06121f2be0d1ead4,TCN,2024-06-20_13h32.41.871,LearnStrategy,2023.2.3,Win32,60.97560976,6,2,10,,,,,,,,2,10,,,,,,,,,,,2,2.056,1,,,,,,-0.148148148,-0.249074088,1,0,0,2.056,Basalt_rect,9,0,9,0,1,
5e1f938b06121f2be0d1ead4,TCN,2024-06-20_13h32.41.871,LearnStrategy,2023.2.3,Win32,60.97560976,6,2,11,,,,,,,,7,05,,,,,,,,,,,7,1.839,1,,,,,,0.115740741,-0.390740783,1,0,0,1.8392,Peridotite_rect,10,0,10,0,1,
5e1f938b06121f2be0d1ead4,TCN,2024-06-20_13h32.41.871,LearnStrategy,2023.2.3,Win32,60.97560976,6,2,12,,,,,,,,1,11,,,,,,,,,,,1,1.811,1,,,,,,-0.416666667,-0.244444459,1,0,0,1.8114,Andesite_rect,11,0,11,0,1,
5e1f938b06121f2be0d1ead4,TCN,2024-06-20_13h32.41.871,LearnStrategy,2023.2.3,Win32,60.97560976,6,2,13,,,,,,,,7,13,,,,,,,,,,,7,1.689,1,,,,,,0.131481524,-0.401851866,1,0,0,1.6895,Peridotite_rect,12,0,12,0,1,
5e1f938b06121f2be0d1ead4,TCN,2024-06-20_13h32.41.871,LearnStrategy,2023.2.3,Win32,60.97560976,6,2,14,,,,,,,,4,09,,,,,,,,,,,4,8.893,1,,,,,,0.37037037,-0.250925912,1,0,0,8.8929,Gabbro_rect,13,0,13,0,1,
5e1f938b06121f2be0d1ead4,TCN,2024-06-20_13h32.41.871,LearnStrategy,2023.2.3,Win32,60.97560976,6,2,15,,,,,,,,6,09,,,,,,,,,,,6,2.173,1,,,,,,-0.128703718,-0.405555584,1,0,0,2.1733,Pegmatite_rect,14,0,14,0,1,
5e1f938b06121f2be0d1ead4,TCN,2024-06-20_13h32.41.871,LearnStrategy,2023.2.3,Win32,60.97560976,6,2,16,,,,,,,,3,10,,,,,,,,,,,6,4.447,0,,,,,,-0.128703718,-0.405555584,1,0,0,4.4469,Pegmatite_rect,15,0,15,0,1,
5e1f938b06121f2be0d1ead4,TCN,2024-06-20_13h32.41.871,LearnStrategy,2023.2.3,Win32,60.97560976,7,1,1,0.038888931,-0.000925947,1,0,0,1.1128,rock_grid_rect_2,6,07,-1,-1,1.113,-0.145370342,-0.389814801,1,0,0,3.4888,Pegmatite_rect,6,3.489,1,0,0,0,0,1,,,,,,,,,,,,,
5e1f938b06121f2be0d1ead4,TCN,2024-06-20_13h32.41.871,LearnStrategy,2023.2.3,Win32,60.97560976,7,1,2,-0.001851824,-0.020370377,1,0,0,1.2374,rock_grid_rect_2,2,01,-1,-1,1.237,-0.10555557,-0.246296282,1,0,0,1.2409,Basalt_rect,2,1.241,1,1,0,1,0,1,,,,,,,,,,,,,
5e1f938b06121f2be0d1ead4,TCN,2024-06-20_13h32.41.871,LearnStrategy,2023.2.3,Win32,60.97560976,7,1,3,0.015740783,0.0074074,1,0,0,1.1301,rock_grid_rect_2,2,06,-1,-1,1.13,-0.114814829,-0.256481524,1,0,0,1.4903,Basalt_rect,2,1.49,1,2,0,2,0,1,,,,,,,,,,,,,
5e1f938b06121f2be0d1ead4,TCN,2024-06-20_13h32.41.871,LearnStrategy,2023.2.3,Win32,60.97560976,7,1,4,0.045370384,0.006481489,1,0,0,1.1806,rock_grid_rect_2,4,16,-1,-1,1.181,0.399999972,-0.238888917,1,0,0,1.424,Gabbro_rect,4,1.424,1,3,0,3,0,1,,,,,,,,,,,,,
5e1f938b06121f2be0d1ead4,TCN,2024-06-20_13h32.41.871,LearnStrategy,2023.2.3,Win32,60.97560976,7,1,5,-0.00462963,-0.006481489,1,0,0,1.4292,rock_grid_rect_2,7,14,-1,-1,1.429,0.148148148,-0.387962977,1,0,0,1.4237,Peridotite_rect,7,1.424,1,4,0,4,0,1,,,,,,,,,,,,,
5e1f938b06121f2be0d1ead4,TCN,2024-06-20_13h32.41.871,LearnStrategy,2023.2.3,Win32,60.97560976,7,1,6,0.030555584,0.013888889,1,0,0,1.2299,rock_grid_rect_2,4,03,-1,-1,1.23,0.362037094,-0.248148176,1,0,0,1.8733,Gabbro_rect,4,1.873,1,5,0,5,0,1,,,,,,,,,,,,,
5e1f938b06121f2be0d1ead4,TCN,2024-06-20_13h32.41.871,LearnStrategy,2023.2.3,Win32,60.97560976,7,1,7,-0.017592607,-0.000925947,1,0,0,1.4462,rock_grid_rect_2,5,16,-1,-1,1.446,-0.393518519,-0.39444443,1,0,0,1.2511,Obsidian_rect,5,1.251,1,6,0,6,0,1,,,,,,,,,,,,,
5e1f938b06121f2be0d1ead4,TCN,2024-06-20_13h32.41.871,LearnStrategy,2023.2.3,Win32,60.97560976,7,1,8,-0.005555541,-0.009259259,1,0,0,1.2859,rock_grid_rect_2,3,08,-1,-1,1.286,0.117592635,-0.24537037,1,0,0,1.3037,Diorite_rect,3,1.304,1,7,0,7,0,1,,,,,,,,,,,,,
5e1f938b06121f2be0d1ead4,TCN,2024-06-20_13h32.41.871,LearnStrategy,2023.2.3,Win32,60.97560976,7,1,9,0.054629644,-0.000925947,1,0,0,1.1877,rock_grid_rect_2,8,04,-1,-1,1.188,0.37962963,-0.393518519,1,0,0,4.113,Pumice_rect,8,4.113,1,8,0,8,0,1,,,,,,,,,,,,,
5e1f938b06121f2be0d1ead4,TCN,2024-06-20_13h32.41.871,LearnStrategy,2023.2.3,Win32,60.97560976,7,1,10,0.09629631,0.006481489,1,0,0,9.8765,rock_grid_rect_2,8,15,-1,-1,9.877,0.393518519,-0.382407436,1,0,0,2.3511,Pumice_rect,8,2.351,1,9,0,9,0,1,,,,,,,,,,,,,
5e1f938b06121f2be0d1ead4,TCN,2024-06-20_13h32.41.871,LearnStrategy,2023.2.3,Win32,60.97560976,7,1,11,0,0.006481489,1,0,0,1.3464,rock_grid_rect_2,3,13,-1,-1,1.346,0.117592635,-0.262962977,1,0,0,1.9903,Diorite_rect,3,1.99,1,10,0,10,0,1,,,,,,,,,,,,,
5e1f938b06121f2be0d1ead4,TCN,2024-06-20_13h32.41.871,LearnStrategy,2023.2.3,Win32,60.97560976,7,1,12,0.015740783,0.001851859,1,0,0,1.3294,rock_grid_rect_2,7,04,-1,-1,1.329,0.133333347,-0.39907406,1,0,0,2.6731,Peridotite_rect,7,2.673,1,11,0,11,0,1,,,,,,,,,,,,,
5e1f938b06121f2be0d1ead4,TCN,2024-06-20_13h32.41.871,LearnStrategy,2023.2.3,Win32,60.97560976,7,1,13,0.029629672,0.009259259,1,0,0,1.4535,rock_grid_rect_2,1,04,-1,-1,1.454,-0.38703703,-0.237963005,1,0,0,1.4736,Andesite_rect,1,1.474,1,12,0,12,0,1,,,,,,,,,,,,,
5e1f938b06121f2be0d1ead4,TCN,2024-06-20_13h32.41.871,LearnStrategy,2023.2.3,Win32,60.97560976,7,1,14,-0.008333347,0.00462963,1,0,0,1.2297,rock_grid_rect_2,1,14,-1,-1,1.23,-0.133333347,-0.395370413,1,0,0,2.8561,Pegmatite_rect,6,2.856,0,13,0,13,0,1,,,,,,,,,,,,,
5e1f938b06121f2be0d1ead4,TCN,2024-06-20_13h32.41.871,LearnStrategy,2023.2.3,Win32,60.97560976,7,1,15,0.012037065,0.002777771,1,0,0,1.1956,rock_grid_rect_2,6,03,-1,-1,1.196,-0.122222194,-0.397222236,1,0,0,1.3408,Pegmatite_rect,6,1.341,1,14,0,14,0,1,,,,,,,,,,,,,
5e1f938b06121f2be0d1ead4,TCN,2024-06-20_13h32.41.871,LearnStrategy,2023.2.3,Win32,60.97560976,7,1,16,-0.007407365,-0.011111118,1,0,0,1.1961,rock_grid_rect_2,5,07,-1,-1,1.196,-0.419444437,-0.411111125,1,0,0,6.9852,Obsidian_rect,5,6.985,1,15,0,15,0,1,,,,,,,,,,,,,
5e1f938b06121f2be0d1ead4,TCN,2024-06-20_13h32.41.871,LearnStrategy,2023.2.3,Win32,60.97560976,7,2,1,,,,,,,,7,12,,,,,,,,,,,6,12.679,0,,,,,,-0.141666624,-0.402777778,1,0,0,12.6785,Pegmatite_rect,0,0,0,0,1,
5e1f938b06121f2be0d1ead4,TCN,2024-06-20_13h32.41.871,LearnStrategy,2023.2.3,Win32,60.97560976,7,2,2,,,,,,,,5,04,,,,,,,,,,,5,1.258,1,,,,,,-0.375925912,-0.383333347,1,0,0,1.2582,Obsidian_rect,1,0,1,0,1,
5e1f938b06121f2be0d1ead4,TCN,2024-06-20_13h32.41.871,LearnStrategy,2023.2.3,Win32,60.97560976,7,2,3,,,,,,,,7,06,,,,,,,,,,,7,5.021,1,,,,,,0.125925912,-0.401851866,1,0,0,5.0209,Peridotite_rect,2,0,2,0,1,
5e1f938b06121f2be0d1ead4,TCN,2024-06-20_13h32.41.871,LearnStrategy,2023.2.3,Win32,60.97560976,7,2,4,,,,,,,,8,02,,,,,,,,,,,8,1.208,1,,,,,,0.414814843,-0.396296325,1,0,0,1.2077,Pumice_rect,3,0,3,0,1,
5e1f938b06121f2be0d1ead4,TCN,2024-06-20_13h32.41.871,LearnStrategy,2023.2.3,Win32,60.97560976,7,2,5,,,,,,,,1,06,,,,,,,,,,,1,1.674,1,,,,,,-0.407407407,-0.262037065,1,0,0,1.6742,Andesite_rect,4,0,4,0,1,
5e1f938b06121f2be0d1ead4,TCN,2024-06-20_13h32.41.871,LearnStrategy,2023.2.3,Win32,60.97560976,7,2,6,,,,,,,,6,05,,,,,,,,,,,3,1.49,0,,,,,,0.134259259,-0.237037023,1,0,0,1.4896,Diorite_rect,5,0,5,0,1,
5e1f938b06121f2be0d1ead4,TCN,2024-06-20_13h32.41.871,LearnStrategy,2023.2.3,Win32,60.97560976,7,2,7,,,,,,,,4,12,,,,,,,,,,,4,1.806,1,,,,,,0.428703732,-0.240740741,1,0,0,1.8061,Gabbro_rect,6,0,6,0,1,
5e1f938b06121f2be0d1ead4,TCN,2024-06-20_13h32.41.871,LearnStrategy,2023.2.3,Win32,60.97560976,7,2,8,,,,,,,,1,01,,,,,,,,,,,4,3.652,0,,,,,,0.37962963,-0.253703718,1,0,0,3.6518,Gabbro_rect,7,0,7,0,1,
5e1f938b06121f2be0d1ead4,TCN,2024-06-20_13h32.41.871,LearnStrategy,2023.2.3,Win32,60.97560976,7,2,9,,,,,,,,6,12,,,,,,,,,,,6,2.877,1,,,,,,-0.164814772,-0.406481496,1,0,0,2.8772,Pegmatite_rect,8,0,8,0,1,
5e1f938b06121f2be0d1ead4,TCN,2024-06-20_13h32.41.871,LearnStrategy,2023.2.3,Win32,60.97560976,7,2,10,,,,,,,,2,10,,,,,,,,,,,2,1.341,1,,,,,,-0.12037037,-0.264814801,1,0,0,1.3412,Basalt_rect,9,0,9,0,1,
5e1f938b06121f2be0d1ead4,TCN,2024-06-20_13h32.41.871,LearnStrategy,2023.2.3,Win32,60.97560976,7,2,11,,,,,,,,2,08,,,,,,,,,,,2,1.251,1,,,,,,-0.132407365,-0.25462963,1,0,0,1.2506,Basalt_rect,10,0,10,0,1,
5e1f938b06121f2be0d1ead4,TCN,2024-06-20_13h32.41.871,LearnStrategy,2023.2.3,Win32,60.97560976,7,2,12,,,,,,,,3,06,,,,,,,,,,,3,2.174,1,,,,,,0.097222222,-0.258333347,1,0,0,2.1743,Diorite_rect,11,0,11,0,1,
5e1f938b06121f2be0d1ead4,TCN,2024-06-20_13h32.41.871,LearnStrategy,2023.2.3,Win32,60.97560976,7,2,13,,,,,,,,8,06,,,,,,,,,,,8,2.082,1,,,,,,0.396296325,-0.405555584,1,0,0,2.0824,Pumice_rect,12,0,12,0,1,
5e1f938b06121f2be0d1ead4,TCN,2024-06-20_13h32.41.871,LearnStrategy,2023.2.3,Win32,60.97560976,7,2,14,,,,,,,,4,13,,,,,,,,,,,4,21.08,1,,,,,,0.404629601,-0.251851894,1,0,0,21.08,Gabbro_rect,13,0,13,0,1,
5e1f938b06121f2be0d1ead4,TCN,2024-06-20_13h32.41.871,LearnStrategy,2023.2.3,Win32,60.97560976,7,2,15,,,,,,,,5,10,,,,,,,,,,,5,1.548,1,,,,,,-0.37037037,-0.391666695,1,0,0,1.5476,Obsidian_rect,14,0,14,0,1,
5e1f938b06121f2be0d1ead4,TCN,2024-06-20_13h32.41.871,LearnStrategy,2023.2.3,Win32,60.97560976,7,2,16,,,,,,,,3,10,,,,,,,,,,,3,4.788,1,,,,,,0.147222236,-0.258333347,1,0,0,4.7877,Diorite_rect,15,0,15,0,1,
5e1f938b06121f2be0d1ead4,TCN,2024-06-20_13h32.41.871,LearnStrategy,2023.2.3,Win32,60.97560976,8,1,1,0.087037051,0.003703683,1,0,0,2.8611,rock_grid_rect_2,6,11,-1,-1,2.861,-0.082407422,-0.400000042,1,0,0,1.9561,Pegmatite_rect,6,1.956,1,0,0,0,0,1,,,,,,,,,,,,,
5e1f938b06121f2be0d1ead4,TCN,2024-06-20_13h32.41.871,LearnStrategy,2023.2.3,Win32,60.97560976,8,1,2,0.002777806,0.006481489,1,0,0,1.3129,rock_grid_rect_2,7,15,-1,-1,1.313,0.128703718,-0.392592607,1,0,0,2.2467,Peridotite_rect,7,2.247,1,1,0,1,0,1,,,,,,,,,,,,,
5e1f938b06121f2be0d1ead4,TCN,2024-06-20_13h32.41.871,LearnStrategy,2023.2.3,Win32,60.97560976,8,1,3,0.021296325,0.003703683,1,0,0,1.4786,rock_grid_rect_2,1,09,-1,-1,1.479,-0.381481489,-0.246296282,1,0,0,3.7259,Andesite_rect,1,3.726,1,2,0,2,0,1,,,,,,,,,,,,,
5e1f938b06121f2be0d1ead4,TCN,2024-06-20_13h32.41.871,LearnStrategy,2023.2.3,Win32,60.97560976,8,1,4,0.021296325,-0.0074074,1,0,0,2.5778,rock_grid_rect_2,8,10,-1,-1,2.578,0.392592677,-0.40370369,1,0,0,1.4985,Pumice_rect,8,1.498,1,3,0,3,0,1,,,,,,,,,,,,,
5e1f938b06121f2be0d1ead4,TCN,2024-06-20_13h32.41.871,LearnStrategy,2023.2.3,Win32,60.97560976,8,1,5,0.012037065,-0.003703718,1,0,0,1.1298,rock_grid_rect_2,2,04,-1,-1,1.13,-0.125925912,-0.248148176,1,0,0,1.3661,Basalt_rect,2,1.366,1,4,0,4,0,1,,,,,,,,,,,,,
5e1f938b06121f2be0d1ead4,TCN,2024-06-20_13h32.41.871,LearnStrategy,2023.2.3,Win32,60.97560976,8,1,6,-0.013888889,0.000925912,1,0,0,1.2467,rock_grid_rect_2,8,08,-1,-1,1.247,0.386111083,-0.415740755,1,0,0,2.2666,Pumice_rect,8,2.267,1,5,0,5,0,1,,,,,,,,,,,,,
5e1f938b06121f2be0d1ead4,TCN,2024-06-20_13h32.41.871,LearnStrategy,2023.2.3,Win32,60.97560976,8,1,7,0.012037065,0.001851859,1,0,0,1.4842,rock_grid_rect_2,3,07,-1,-1,1.484,0.136111153,-0.240740741,1,0,0,2.1517,Diorite_rect,3,2.152,1,6,0,6,0,1,,,,,,,,,,,,,
5e1f938b06121f2be0d1ead4,TCN,2024-06-20_13h32.41.871,LearnStrategy,2023.2.3,Win32,60.97560976,8,1,8,0.026851866,0.005555541,1,0,0,1.097,rock_grid_rect_2,4,14,-1,-1,1.097,0.411111196,-0.235185199,1,0,0,1.5574,Gabbro_rect,4,1.557,1,7,0,7,0,1,,,,,,,,,,,,,
5e1f938b06121f2be0d1ead4,TCN,2024-06-20_13h32.41.871,LearnStrategy,2023.2.3,Win32,60.97560976,8,1,9,0.013888889,0,1,0,0,1.0799,rock_grid_rect_2,7,08,-1,-1,1.08,0.122222265,-0.39907406,1,0,0,2.2316,Peridotite_rect,7,2.232,1,8,0,8,0,1,,,,,,,,,,,,,
5e1f938b06121f2be0d1ead4,TCN,2024-06-20_13h32.41.871,LearnStrategy,2023.2.3,Win32,60.97560976,8,1,10,0.026851866,0.00462963,1,0,0,1.2851,rock_grid_rect_2,6,13,-1,-1,1.285,-0.12037037,-0.408333319,1,0,0,3.5837,Pegmatite_rect,6,3.584,1,9,0,9,0,1,,,,,,,,,,,,,
5e1f938b06121f2be0d1ead4,TCN,2024-06-20_13h32.41.871,LearnStrategy,2023.2.3,Win32,60.97560976,8,1,11,0.017592607,-0.002777771,1,0,0,1.1455,rock_grid_rect_2,1,10,-1,-1,1.146,-0.364814794,-0.234259288,1,0,0,1.6151,Andesite_rect,1,1.615,1,10,0,10,0,1,,,,,,,,,,,,,
5e1f938b06121f2be0d1ead4,TCN,2024-06-20_13h32.41.871,LearnStrategy,2023.2.3,Win32,60.97560976,8,1,12,0.027777778,-0.012962977,1,0,0,1.4017,rock_grid_rect_2,2,05,-1,-1,1.402,-0.099074046,-0.231481481,1,0,0,1.502,Basalt_rect,2,1.502,1,11,0,11,0,1,,,,,,,,,,,,,
5e1f938b06121f2be0d1ead4,TCN,2024-06-20_13h32.41.871,LearnStrategy,2023.2.3,Win32,60.97560976,8,1,13,0.01944443,0.006481489,1,0,0,1.8461,rock_grid_rect_2,4,05,-1,-1,1.846,0.387963048,-0.251851894,1,0,0,16.1969,Gabbro_rect,4,16.197,1,12,0,12,0,1,,,,,,,,,,,,,
5e1f938b06121f2be0d1ead4,TCN,2024-06-20_13h32.41.871,LearnStrategy,2023.2.3,Win32,60.97560976,8,1,14,0.050000014,0.001851859,1,0,0,3.2178,rock_grid_rect_2,5,11,-1,-1,3.218,-0.424074067,-0.381481524,1,0,0,1.3693,Obsidian_rect,5,1.369,1,13,0,13,0,1,,,,,,,,,,,,,
5e1f938b06121f2be0d1ead4,TCN,2024-06-20_13h32.41.871,LearnStrategy,2023.2.3,Win32,60.97560976,8,1,15,0.012037065,0.0074074,1,0,0,1.2024,rock_grid_rect_2,5,08,-1,-1,1.202,-0.426851838,-0.420370384,1,0,0,1.367,Obsidian_rect,5,1.367,1,14,0,14,0,1,,,,,,,,,,,,,
5e1f938b06121f2be0d1ead4,TCN,2024-06-20_13h32.41.871,LearnStrategy,2023.2.3,Win32,60.97560976,8,1,16,0.087037051,0.014814801,1,0,0,2.3679,rock_grid_rect_2,3,12,-1,-1,2.368,0.169444473,-0.260185171,1,0,0,2.3416,Diorite_rect,3,2.342,1,15,0,15,0,1,,,,,,,,,,,,,
5e1f938b06121f2be0d1ead4,TCN,2024-06-20_13h32.41.871,LearnStrategy,2023.2.3,Win32,60.97560976,8,2,1,,,,,,,,8,03,,,,,,,,,,,8,2.706,1,,,,,,0.375,-0.384259259,1,0,0,2.7055,Pumice_rect,0,0,0,0,1,
5e1f938b06121f2be0d1ead4,TCN,2024-06-20_13h32.41.871,LearnStrategy,2023.2.3,Win32,60.97560976,8,2,2,,,,,,,,3,14,,,,,,,,,,,3,2.029,1,,,,,,0.124074088,-0.238888917,1,0,0,2.0292,Diorite_rect,1,0,1,0,1,
5e1f938b06121f2be0d1ead4,TCN,2024-06-20_13h32.41.871,LearnStrategy,2023.2.3,Win32,60.97560976,8,2,3,,,,,,,,4,15,,,,,,,,,,,4,1.916,1,,,,,,0.406481566,-0.252777806,1,0,0,1.9163,Gabbro_rect,2,0,2,0,1,
5e1f938b06121f2be0d1ead4,TCN,2024-06-20_13h32.41.871,LearnStrategy,2023.2.3,Win32,60.97560976,8,2,4,,,,,,,,7,07,,,,,,,,,,,7,3.306,1,,,,,,0.139814801,-0.390740783,1,0,0,3.3061,Peridotite_rect,3,0,3,0,1,
5e1f938b06121f2be0d1ead4,TCN,2024-06-20_13h32.41.871,LearnStrategy,2023.2.3,Win32,60.97560976,8,2,5,,,,,,,,7,02,,,,,,,,,,,7,1.473,1,,,,,,0.122222265,-0.389814801,1,0,0,1.4731,Peridotite_rect,4,0,4,0,1,
5e1f938b06121f2be0d1ead4,TCN,2024-06-20_13h32.41.871,LearnStrategy,2023.2.3,Win32,60.97560976,8,2,6,,,,,,,,8,16,,,,,,,,,,,8,4.396,1,,,,,,0.450925898,-0.393518519,1,0,0,4.3956,Pumice_rect,5,0,5,0,1,
5e1f938b06121f2be0d1ead4,TCN,2024-06-20_13h32.41.871,LearnStrategy,2023.2.3,Win32,60.97560976,8,2,7,,,,,,,,5,06,,,,,,,,,,,5,1.49,1,,,,,,-0.37962963,-0.386111153,1,0,0,1.4902,Obsidian_rect,6,0,6,0,1,
5e1f938b06121f2be0d1ead4,TCN,2024-06-20_13h32.41.871,LearnStrategy,2023.2.3,Win32,60.97560976,8,2,8,,,,,,,,3,02,,,,,,,,,,,3,2.622,1,,,,,,0.119444459,-0.237963005,1,0,0,2.6223,Diorite_rect,7,0,7,0,1,
5e1f938b06121f2be0d1ead4,TCN,2024-06-20_13h32.41.871,LearnStrategy,2023.2.3,Win32,60.97560976,8,2,9,,,,,,,,5,09,,,,,,,,,,,5,1.373,1,,,,,,-0.393518519,-0.408333319,1,0,0,1.3733,Obsidian_rect,8,0,8,0,1,
5e1f938b06121f2be0d1ead4,TCN,2024-06-20_13h32.41.871,LearnStrategy,2023.2.3,Win32,60.97560976,8,2,10,,,,,,,,1,03,,,,,,,,,,,1,1.229,1,,,,,,-0.386111118,-0.233333376,1,0,0,1.2288,Andesite_rect,9,0,9,0,1,
5e1f938b06121f2be0d1ead4,TCN,2024-06-20_13h32.41.871,LearnStrategy,2023.2.3,Win32,60.97560976,8,2,11,,,,,,,,2,02,,,,,,,,,,,2,1.807,1,,,,,,-0.171296296,-0.255555541,1,0,0,1.8067,Basalt_rect,10,0,10,0,1,
5e1f938b06121f2be0d1ead4,TCN,2024-06-20_13h32.41.871,LearnStrategy,2023.2.3,Win32,60.97560976,8,2,12,,,,,,,,1,05,,,,,,,,,,,1,2.339,1,,,,,,-0.40648146,-0.244444459,1,0,0,2.3394,Andesite_rect,11,0,11,0,1,
5e1f938b06121f2be0d1ead4,TCN,2024-06-20_13h32.41.871,LearnStrategy,2023.2.3,Win32,60.97560976,8,2,13,,,,,,,,6,06,,,,,,,,,,,6,1.474,1,,,,,,-0.15370369,-0.398148148,1,0,0,1.4738,Pegmatite_rect,12,0,12,0,1,
5e1f938b06121f2be0d1ead4,TCN,2024-06-20_13h32.41.871,LearnStrategy,2023.2.3,Win32,60.97560976,8,2,14,,,,,,,,2,09,,,,,,,,,,,2,2.507,1,,,,,,-0.130555541,-0.24537037,1,0,0,2.5068,Basalt_rect,13,0,13,0,1,
5e1f938b06121f2be0d1ead4,TCN,2024-06-20_13h32.41.871,LearnStrategy,2023.2.3,Win32,60.97560976,8,2,15,,,,,,,,6,16,,,,,,,,,,,3,4.937,0,,,,,,0.157407407,-0.23055557,1,0,0,4.9367,Diorite_rect,14,0,14,0,1,
5e1f938b06121f2be0d1ead4,TCN,2024-06-20_13h32.41.871,LearnStrategy,2023.2.3,Win32,60.97560976,8,2,16,,,,,,,,4,11,,,,,,,,,,,4,12.031,1,,,,,,0.414814843,-0.265740783,1,0,0,12.031,Gabbro_rect,15,0,15,0,1,
5e1f938b06121f2be0d1ead4,TCN,2024-06-20_13h32.41.871,LearnStrategy,2023.2.3,Win32,60.97560976,9,1,1,0.053703732,0.008333312,1,0,0,1.1801,rock_grid_rect_2,3,09,-1,-1,1.18,0.128703718,-0.241666653,1,0,0,1.5072,Diorite_rect,3,1.507,1,0,0,0,0,1,,,,,,,,,,,,,
5e1f938b06121f2be0d1ead4,TCN,2024-06-20_13h32.41.871,LearnStrategy,2023.2.3,Win32,60.97560976,9,1,2,0.016666695,-0.022222236,1,0,0,1.4962,rock_grid_rect_2,3,15,-1,-1,1.496,0.137962977,-0.240740741,1,0,0,43.1677,Diorite_rect,3,43.168,1,1,0,1,0,1,,,,,,,,,,,,,
5e1f938b06121f2be0d1ead4,TCN,2024-06-20_13h32.41.871,LearnStrategy,2023.2.3,Win32,60.97560976,9,1,3,0.003703718,-0.003703718,1,0,0,1.3627,rock_grid_rect_2,4,01,-1,-1,1.363,0.40833339,-0.25462963,1,0,0,4.7872,Gabbro_rect,4,4.787,1,2,0,2,0,1,,,,,,,,,,,,,
5e1f938b06121f2be0d1ead4,TCN,2024-06-20_13h32.41.871,LearnStrategy,2023.2.3,Win32,60.97560976,9,1,4,0.035185213,-0.0074074,1,0,0,1.6283,rock_grid_rect_2,6,10,-1,-1,1.628,-0.119444459,-0.387962977,1,0,0,4.1379,Pegmatite_rect,6,4.138,1,3,0,3,0,1,,,,,,,,,,,,,
5e1f938b06121f2be0d1ead4,TCN,2024-06-20_13h32.41.871,LearnStrategy,2023.2.3,Win32,60.97560976,9,1,5,-0.010185171,0.00462963,1,0,0,1.1034,rock_grid_rect_2,2,11,-1,-1,1.103,-0.405555548,-0.244444459,1,0,0,1.7076,Andesite_rect,1,1.708,0,4,0,4,0,1,,,,,,,,,,,,,
5e1f938b06121f2be0d1ead4,TCN,2024-06-20_13h32.41.871,LearnStrategy,2023.2.3,Win32,60.97560976,9,1,6,-0.005555541,-0.00462963,1,0,0,1.2295,rock_grid_rect_2,5,05,-1,-1,1.229,-0.386111118,-0.39444443,1,0,0,1.7414,Obsidian_rect,5,1.741,1,5,0,5,0,1,,,,,,,,,,,,,
5e1f938b06121f2be0d1ead4,TCN,2024-06-20_13h32.41.871,LearnStrategy,2023.2.3,Win32,60.97560976,9,1,7,0.020370413,-0.005555577,1,0,0,1.1799,rock_grid_rect_2,2,16,-1,-1,1.18,0.337037122,-0.258333347,1,0,0,1.691,Gabbro_rect,4,1.691,0,6,0,6,0,1,,,,,,,,,,,,,
5e1f938b06121f2be0d1ead4,TCN,2024-06-20_13h32.41.871,LearnStrategy,2023.2.3,Win32,60.97560976,9,1,8,0.025925954,0.001851859,1,0,0,1.0799,rock_grid_rect_2,7,16,-1,-1,1.08,0.139814801,-0.406481496,1,0,0,1.9902,Peridotite_rect,7,1.99,1,7,0,7,0,1,,,,,,,,,,,,,
5e1f938b06121f2be0d1ead4,TCN,2024-06-20_13h32.41.871,LearnStrategy,2023.2.3,Win32,60.97560976,9,1,9,0.017592607,-0.010185206,1,0,0,1.0124,rock_grid_rect_2,1,02,-1,-1,1.012,-0.3675926,-0.249074088,1,0,0,2.8559,Andesite_rect,1,2.856,1,8,0,8,0,1,,,,,,,,,,,,,
5e1f938b06121f2be0d1ead4,TCN,2024-06-20_13h32.41.871,LearnStrategy,2023.2.3,Win32,60.97560976,9,1,10,0.021296325,-0.000925947,1,0,0,1.1455,rock_grid_rect_2,5,12,-1,-1,1.146,-0.396296289,-0.389814801,1,0,0,1.3031,Obsidian_rect,5,1.303,1,9,0,9,0,1,,,,,,,,,,,,,
5e1f938b06121f2be0d1ead4,TCN,2024-06-20_13h32.41.871,LearnStrategy,2023.2.3,Win32,60.97560976,9,1,11,0.026851866,-0.014814836,1,0,0,3.7831,rock_grid_rect_2,7,10,-1,-1,3.783,0.128703718,-0.387037065,1,0,0,1.5865,Peridotite_rect,7,1.587,1,10,0,10,0,1,,,,,,,,,,,,,
5e1f938b06121f2be0d1ead4,TCN,2024-06-20_13h32.41.871,LearnStrategy,2023.2.3,Win32,60.97560976,9,1,12,0.015740783,-0.009259259,1,0,0,1.796,rock_grid_rect_2,8,14,-1,-1,1.796,0.412037037,-0.385185171,1,0,0,1.3928,Pumice_rect,8,1.393,1,11,0,11,0,1,,,,,,,,,,,,,
5e1f938b06121f2be0d1ead4,TCN,2024-06-20_13h32.41.871,LearnStrategy,2023.2.3,Win32,60.97560976,9,1,13,-0.010185171,-0.015740748,1,0,0,0.9471,rock_grid_rect_2,4,10,-1,-1,0.947,0.377777806,-0.244444459,1,0,0,5.5869,Gabbro_rect,4,5.587,1,12,0,12,0,1,,,,,,,,,,,,,
5e1f938b06121f2be0d1ead4,TCN,2024-06-20_13h32.41.871,LearnStrategy,2023.2.3,Win32,60.97560976,9,1,14,0.035185213,-0.014814836,1,0,0,1.0287,rock_grid_rect_2,6,15,-1,-1,1.029,-0.109259217,-0.385185171,1,0,0,1.5902,Pegmatite_rect,6,1.59,1,13,0,13,0,1,,,,,,,,,,,,,
5e1f938b06121f2be0d1ead4,TCN,2024-06-20_13h32.41.871,LearnStrategy,2023.2.3,Win32,60.97560976,9,1,15,0.060185185,-0.001851859,1,0,0,1.1634,rock_grid_rect_2,8,09,-1,-1,1.163,0.386111083,-0.37962963,1,0,0,1.3064,Pumice_rect,8,1.306,1,14,0,14,0,1,,,,,,,,,,,,,
5e1f938b06121f2be0d1ead4,TCN,2024-06-20_13h32.41.871,LearnStrategy,2023.2.3,Win32,60.97560976,9,1,16,-0.021296254,-0.01203703,1,0,0,1.0135,rock_grid_rect_2,1,16,-1,-1,1.014,-0.401851831,-0.236111111,1,0,0,1.4239,Andesite_rect,1,1.424,1,15,0,15,0,1,,,,,,,,,,,,,
5e1f938b06121f2be0d1ead4,TCN,2024-06-20_13h32.41.871,LearnStrategy,2023.2.3,Win32,60.97560976,9,2,1,,,,,,,,2,12,,,,,,,,,,,1,7.95,0,,,,,,-0.41111109,-0.257407436,1,0,0,7.9498,Andesite_rect,0,0,0,0,1,
5e1f938b06121f2be0d1ead4,TCN,2024-06-20_13h32.41.871,LearnStrategy,2023.2.3,Win32,60.97560976,9,2,2,,,,,,,,8,05,,,,,,,,,,,8,1.54,1,,,,,,0.389814871,-0.39444443,1,0,0,1.5399,Pumice_rect,1,0,1,0,1,
5e1f938b06121f2be0d1ead4,TCN,2024-06-20_13h32.41.871,LearnStrategy,2023.2.3,Win32,60.97560976,9,2,3,,,,,,,,8,13,,,,,,,,,,,8,1.514,1,,,,,,0.409259231,-0.382407436,1,0,0,1.5135,Pumice_rect,2,0,2,0,1,
5e1f938b06121f2be0d1ead4,TCN,2024-06-20_13h32.41.871,LearnStrategy,2023.2.3,Win32,60.97560976,9,2,4,,,,,,,,5,14,,,,,,,,,,,5,1.378,1,,,,,,-0.387962942,-0.405555584,1,0,0,1.3784,Obsidian_rect,3,0,3,0,1,
5e1f938b06121f2be0d1ead4,TCN,2024-06-20_13h32.41.871,LearnStrategy,2023.2.3,Win32,60.97560976,9,2,5,,,,,,,,5,02,,,,,,,,,,,5,1.081,1,,,,,,-0.387962942,-0.405555584,1,0,0,1.081,Obsidian_rect,4,0,4,0,1,
5e1f938b06121f2be0d1ead4,TCN,2024-06-20_13h32.41.871,LearnStrategy,2023.2.3,Win32,60.97560976,9,2,6,,,,,,,,1,11,,,,,,,,,,,1,2.356,1,,,,,,-0.39907406,-0.237963005,1,0,0,2.3562,Andesite_rect,5,0,5,0,1,
5e1f938b06121f2be0d1ead4,TCN,2024-06-20_13h32.41.871,LearnStrategy,2023.2.3,Win32,60.97560976,9,2,7,,,,,,,,6,09,,,,,,,,,,,6,1.889,1,,,,,,-0.112962935,-0.387962977,1,0,0,1.889,Pegmatite_rect,6,0,6,0,1,
5e1f938b06121f2be0d1ead4,TCN,2024-06-20_13h32.41.871,LearnStrategy,2023.2.3,Win32,60.97560976,9,2,8,,,,,,,,2,14,,,,,,,,,,,4,3.296,0,,,,,,0.343518575,-0.262037065,1,0,0,3.296,Gabbro_rect,7,0,7,0,1,
5e1f938b06121f2be0d1ead4,TCN,2024-06-20_13h32.41.871,LearnStrategy,2023.2.3,Win32,60.97560976,9,2,9,,,,,,,,4,08,,,,,,,,,,,4,3.039,1,,,,,,0.382407436,-0.258333347,1,0,0,3.0392,Gabbro_rect,8,0,8,0,1,
5e1f938b06121f2be0d1ead4,TCN,2024-06-20_13h32.41.871,LearnStrategy,2023.2.3,Win32,60.97560976,9,2,10,,,,,,,,6,08,,,,,,,,,,,6,2.264,1,,,,,,-0.124074088,-0.400925954,1,0,0,2.264,Pegmatite_rect,9,0,9,0,1,
5e1f938b06121f2be0d1ead4,TCN,2024-06-20_13h32.41.871,LearnStrategy,2023.2.3,Win32,60.97560976,9,2,11,,,,,,,,7,05,,,,,,,,,,,7,2.189,1,,,,,,0.155555584,-0.417592578,1,0,0,2.1887,Peridotite_rect,10,0,10,0,1,
5e1f938b06121f2be0d1ead4,TCN,2024-06-20_13h32.41.871,LearnStrategy,2023.2.3,Win32,60.97560976,9,2,12,,,,,,,,1,07,,,,,,,,,,,4,5.412,0,,,,,,0.337962963,-0.250925912,1,0,0,5.4117,Gabbro_rect,11,0,11,0,1,
5e1f938b06121f2be0d1ead4,TCN,2024-06-20_13h32.41.871,LearnStrategy,2023.2.3,Win32,60.97560976,9,2,13,,,,,,,,3,16,,,,,,,,,,,3,1.722,1,,,,,,0.140740783,-0.252777806,1,0,0,1.7223,Diorite_rect,12,0,12,0,1,
5e1f938b06121f2be0d1ead4,TCN,2024-06-20_13h32.41.871,LearnStrategy,2023.2.3,Win32,60.97560976,9,2,14,,,,,,,,4,09,,,,,,,,,,,4,7.136,1,,,,,,0.330555527,-0.251851894,1,0,0,7.1357,Gabbro_rect,13,0,13,0,1,
5e1f938b06121f2be0d1ead4,TCN,2024-06-20_13h32.41.871,LearnStrategy,2023.2.3,Win32,60.97560976,9,2,15,,,,,,,,3,11,,,,,,,,,,,7,2.938,0,,,,,,0.157407407,-0.395370413,1,0,0,2.9383,Peridotite_rect,14,0,14,0,1,
5e1f938b06121f2be0d1ead4,TCN,2024-06-20_13h32.41.871,LearnStrategy,2023.2.3,Win32,60.97560976,9,2,16,,,,,,,,7,13,,,,,,,,,,,7,1.479,1,,,,,,0.122222265,-0.395370413,1,0,0,1.4786,Peridotite_rect,15,0,15,0,1,
5e1f938b06121f2be0d1ead4,TCN,2024-06-20_13h32.41.871,LearnStrategy,2023.2.3,Win32,60.97560976,,,,,,,,,,,,,,,,,,,,,,,,,,,,,,,,,,,,,,,,,,,1
5e1f938b06121f2be0d1ead4,TCN,2024-06-20_13h32.41.871,LearnStrategy,2023.2.3,Win32,60.97560976,,,,,,,,,,,,,,,,,,,,,,,,,,,,,,,,,,,,,,,,,,,
5e1f938b06121f2be0d1ead4,TCN,2024-06-20_13h32.41.871,LearnStrategy,2023.2.3,Win32,60.97560976,,,,,,,,,,,5,12,1,1,,,,,,,,,,,,,,,,,,,,,,,,,,,,,
5e1f938b06121f2be0d1ead4,TCN,2024-06-20_13h32.41.871,LearnStrategy,2023.2.3,Win32,60.97560976,,,,,,,,,,,2,06,1,2,,,,,,,,,,,,,,,,,,,,,,,,,,,,,
5e1f938b06121f2be0d1ead4,TCN,2024-06-20_13h32.41.871,LearnStrategy,2023.2.3,Win32,60.97560976,,,,,,,,,,,4,01,1,3,,,,,,,,,,,,,,,,,,,,,,,,,,,,,
5e1f938b06121f2be0d1ead4,TCN,2024-06-20_13h32.41.871,LearnStrategy,2023.2.3,Win32,60.97560976,,,,,,,,,,,1,10,1,4,,,,,,,,,,,,,,,,,,,,,,,,,,,,,
5e1f938b06121f2be0d1ead4,TCN,2024-06-20_13h32.41.871,LearnStrategy,2023.2.3,Win32,60.97560976,,,,,,,,,,,1,16,1,5,,,,,,,,,,,,,,,,,,,,,,,,,,,,,
5e1f938b06121f2be0d1ead4,TCN,2024-06-20_13h32.41.871,LearnStrategy,2023.2.3,Win32,60.97560976,,,,,,,,,,,3,13,1,6,,,,,,,,,,,,,,,,,,,,,,,,,,,,,
5e1f938b06121f2be0d1ead4,TCN,2024-06-20_13h32.41.871,LearnStrategy,2023.2.3,Win32,60.97560976,,,,,,,,,,,1,04,1,7,,,,,,,,,,,,,,,,,,,,,,,,,,,,,
5e1f938b06121f2be0d1ead4,TCN,2024-06-20_13h32.41.871,LearnStrategy,2023.2.3,Win32,60.97560976,,,,,,,,,,,5,16,1,8,,,,,,,,,,,,,,,,,,,,,,,,,,,,,
5e1f938b06121f2be0d1ead4,TCN,2024-06-20_13h32.41.871,LearnStrategy,2023.2.3,Win32,60.97560976,,,,,,,,,,,8,08,2,1,,,,,,,,,,,,,,,,,,,,,,,,,,,,,
5e1f938b06121f2be0d1ead4,TCN,2024-06-20_13h32.41.871,LearnStrategy,2023.2.3,Win32,60.97560976,,,,,,,,,,,5,11,2,2,,,,,,,,,,,,,,,,,,,,,,,,,,,,,
5e1f938b06121f2be0d1ead4,TCN,2024-06-20_13h32.41.871,LearnStrategy,2023.2.3,Win32,60.97560976,,,,,,,,,,,2,05,2,3,,,,,,,,,,,,,,,,,,,,,,,,,,,,,
5e1f938b06121f2be0d1ead4,TCN,2024-06-20_13h32.41.871,LearnStrategy,2023.2.3,Win32,60.97560976,,,,,,,,,,,6,07,2,4,,,,,,,,,,,,,,,,,,,,,,,,,,,,,
5e1f938b06121f2be0d1ead4,TCN,2024-06-20_13h32.41.871,LearnStrategy,2023.2.3,Win32,60.97560976,,,,,,,,,,,6,15,2,5,,,,,,,,,,,,,,,,,,,,,,,,,,,,,
5e1f938b06121f2be0d1ead4,TCN,2024-06-20_13h32.41.871,LearnStrategy,2023.2.3,Win32,60.97560976,,,,,,,,,,,3,09,2,6,,,,,,,,,,,,,,,,,,,,,,,,,,,,,
5e1f938b06121f2be0d1ead4,TCN,2024-06-20_13h32.41.871,LearnStrategy,2023.2.3,Win32,60.97560976,,,,,,,,,,,2,11,2,7,,,,,,,,,,,,,,,,,,,,,,,,,,,,,
5e1f938b06121f2be0d1ead4,TCN,2024-06-20_13h32.41.871,LearnStrategy,2023.2.3,Win32,60.97560976,,,,,,,,,,,6,11,2,8,,,,,,,,,,,,,,,,,,,,,,,,,,,,,
5e1f938b06121f2be0d1ead4,TCN,2024-06-20_13h32.41.871,LearnStrategy,2023.2.3,Win32,60.97560976,,,,,,,,,,,8,09,3,1,,,,,,,,,,,,,,,,,,,,,,,,,,,,,
5e1f938b06121f2be0d1ead4,TCN,2024-06-20_13h32.41.871,LearnStrategy,2023.2.3,Win32,60.97560976,,,,,,,,,,,2,04,3,2,,,,,,,,,,,,,,,,,,,,,,,,,,,,,
5e1f938b06121f2be0d1ead4,TCN,2024-06-20_13h32.41.871,LearnStrategy,2023.2.3,Win32,60.97560976,,,,,,,,,,,2,16,3,3,,,,,,,,,,,,,,,,,,,,,,,,,,,,,
5e1f938b06121f2be0d1ead4,TCN,2024-06-20_13h32.41.871,LearnStrategy,2023.2.3,Win32,60.97560976,,,,,,,,,,,8,15,3,4,,,,,,,,,,,,,,,,,,,,,,,,,,,,,
5e1f938b06121f2be0d1ead4,TCN,2024-06-20_13h32.41.871,LearnStrategy,2023.2.3,Win32,60.97560976,,,,,,,,,,,8,10,3,5,,,,,,,,,,,,,,,,,,,,,,,,,,,,,
5e1f938b06121f2be0d1ead4,TCN,2024-06-20_13h32.41.871,LearnStrategy,2023.2.3,Win32,60.97560976,,,,,,,,,,,3,07,3,6,,,,,,,,,,,,,,,,,,,,,,,,,,,,,
5e1f938b06121f2be0d1ead4,TCN,2024-06-20_13h32.41.871,LearnStrategy,2023.2.3,Win32,60.97560976,,,,,,,,,,,4,05,3,7,,,,,,,,,,,,,,,,,,,,,,,,,,,,,
5e1f938b06121f2be0d1ead4,TCN,2024-06-20_13h32.41.871,LearnStrategy,2023.2.3,Win32,60.97560976,,,,,,,,,,,7,16,3,8,,,,,,,,,,,,,,,,,,,,,,,,,,,,,
5e1f938b06121f2be0d1ead4,TCN,2024-06-20_13h32.41.871,LearnStrategy,2023.2.3,Win32,60.97560976,,,,,,,,,,,4,16,4,1,,,,,,,,,,,,,,,,,,,,,,,,,,,,,
5e1f938b06121f2be0d1ead4,TCN,2024-06-20_13h32.41.871,LearnStrategy,2023.2.3,Win32,60.97560976,,,,,,,,,,,3,15,4,2,,,,,,,,,,,,,,,,,,,,,,,,,,,,,
5e1f938b06121f2be0d1ead4,TCN,2024-06-20_13h32.41.871,LearnStrategy,2023.2.3,Win32,60.97560976,,,,,,,,,,,7,14,4,3,,,,,,,,,,,,,,,,,,,,,,,,,,,,,
5e1f938b06121f2be0d1ead4,TCN,2024-06-20_13h32.41.871,LearnStrategy,2023.2.3,Win32,60.97560976,,,,,,,,,,,5,07,4,4,,,,,,,,,,,,,,,,,,,,,,,,,,,,,
5e1f938b06121f2be0d1ead4,TCN,2024-06-20_13h32.41.871,LearnStrategy,2023.2.3,Win32,60.97560976,,,,,,,,,,,5,05,4,5,,,,,,,,,,,,,,,,,,,,,,,,,,,,,
5e1f938b06121f2be0d1ead4,TCN,2024-06-20_13h32.41.871,LearnStrategy,2023.2.3,Win32,60.97560976,,,,,,,,,,,3,12,4,6,,,,,,,,,,,,,,,,,,,,,,,,,,,,,
5e1f938b06121f2be0d1ead4,TCN,2024-06-20_13h32.41.871,LearnStrategy,2023.2.3,Win32,60.97560976,,,,,,,,,,,3,08,4,7,,,,,,,,,,,,,,,,,,,,,,,,,,,,,
5e1f938b06121f2be0d1ead4,TCN,2024-06-20_13h32.41.871,LearnStrategy,2023.2.3,Win32,60.97560976,,,,,,,,,,,6,03,4,8,,,,,,,,,,,,,,,,,,,,,,,,,,,,,
5e1f938b06121f2be0d1ead4,TCN,2024-06-20_13h32.41.871,LearnStrategy,2023.2.3,Win32,60.97560976,,,,,,,,,,,6,13,5,1,,,,,,,,,,,,,,,,,,,,,,,,,,,,,
5e1f938b06121f2be0d1ead4,TCN,2024-06-20_13h32.41.871,LearnStrategy,2023.2.3,Win32,60.97560976,,,,,,,,,,,1,02,5,2,,,,,,,,,,,,,,,,,,,,,,,,,,,,,
5e1f938b06121f2be0d1ead4,TCN,2024-06-20_13h32.41.871,LearnStrategy,2023.2.3,Win32,60.97560976,,,,,,,,,,,7,08,5,3,,,,,,,,,,,,,,,,,,,,,,,,,,,,,
5e1f938b06121f2be0d1ead4,TCN,2024-06-20_13h32.41.871,LearnStrategy,2023.2.3,Win32,60.97560976,,,,,,,,,,,2,01,5,4,,,,,,,,,,,,,,,,,,,,,,,,,,,,,
5e1f938b06121f2be0d1ead4,TCN,2024-06-20_13h32.41.871,LearnStrategy,2023.2.3,Win32,60.97560976,,,,,,,,,,,8,14,5,5,,,,,,,,,,,,,,,,,,,,,,,,,,,,,
5e1f938b06121f2be0d1ead4,TCN,2024-06-20_13h32.41.871,LearnStrategy,2023.2.3,Win32,60.97560976,,,,,,,,,,,7,04,5,6,,,,,,,,,,,,,,,,,,,,,,,,,,,,,
5e1f938b06121f2be0d1ead4,TCN,2024-06-20_13h32.41.871,LearnStrategy,2023.2.3,Win32,60.97560976,,,,,,,,,,,4,14,5,7,,,,,,,,,,,,,,,,,,,,,,,,,,,,,
5e1f938b06121f2be0d1ead4,TCN,2024-06-20_13h32.41.871,LearnStrategy,2023.2.3,Win32,60.97560976,,,,,,,,,,,4,03,5,8,,,,,,,,,,,,,,,,,,,,,,,,,,,,,
5e1f938b06121f2be0d1ead4,TCN,2024-06-20_13h32.41.871,LearnStrategy,2023.2.3,Win32,60.97560976,,,,,,,,,,,4,10,6,1,,,,,,,,,,,,,,,,,,,,,,,,,,,,,
5e1f938b06121f2be0d1ead4,TCN,2024-06-20_13h32.41.871,LearnStrategy,2023.2.3,Win32,60.97560976,,,,,,,,,,,1,14,6,2,,,,,,,,,,,,,,,,,,,,,,,,,,,,,
5e1f938b06121f2be0d1ead4,TCN,2024-06-20_13h32.41.871,LearnStrategy,2023.2.3,Win32,60.97560976,,,,,,,,,,,6,10,6,3,,,,,,,,,,,,,,,,,,,,,,,,,,,,,
5e1f938b06121f2be0d1ead4,TCN,2024-06-20_13h32.41.871,LearnStrategy,2023.2.3,Win32,60.97560976,,,,,,,,,,,7,15,6,4,,,,,,,,,,,,,,,,,,,,,,,,,,,,,
5e1f938b06121f2be0d1ead4,TCN,2024-06-20_13h32.41.871,LearnStrategy,2023.2.3,Win32,60.97560976,,,,,,,,,,,5,08,6,5,,,,,,,,,,,,,,,,,,,,,,,,,,,,,
5e1f938b06121f2be0d1ead4,TCN,2024-06-20_13h32.41.871,LearnStrategy,2023.2.3,Win32,60.97560976,,,,,,,,,,,1,09,6,6,,,,,,,,,,,,,,,,,,,,,,,,,,,,,
5e1f938b06121f2be0d1ead4,TCN,2024-06-20_13h32.41.871,LearnStrategy,2023.2.3,Win32,60.97560976,,,,,,,,,,,7,10,6,7,,,,,,,,,,,,,,,,,,,,,,,,,,,,,
5e1f938b06121f2be0d1ead4,TCN,2024-06-20_13h32.41.871,LearnStrategy,2023.2.3,Win32,60.97560976,,,,,,,,,,,8,04,6,8,,,,,,,,,,,,,,,,,,,,,,,,,,,,,