participant,condition,date,expName,psychopyVersion,OS,frameRate,block,phase,trial,learn_mouse_2.x,learn_mouse_2.y,learn_mouse_2.leftButton,learn_mouse_2.midButton,learn_mouse_2.rightButton,learn_mouse_2.time,learn_mouse_2.clicked_name,cat,token,row,col,t_select,cat_mouse_l.x,cat_mouse_l.y,cat_mouse_l.leftButton,cat_mouse_l.midButton,cat_mouse_l.rightButton,cat_mouse_l.time,cat_mouse_l.clicked_name,resp,t_resp,corr,train_trials.thisRepN,train_trials.thisTrialN,train_trials.thisN,train_trials.thisIndex,train_trials.ran,cat_mouse_t.x,cat_mouse_t.y,cat_mouse_t.leftButton,cat_mouse_t.midButton,cat_mouse_t.rightButton,cat_mouse_t.time,cat_mouse_t.clicked_name,test_trials.thisRepN,test_trials.thisTrialN,test_trials.thisN,test_trials.thisIndex,test_trials.ran,Bonus
5e3cddaa64dfd70d85a5ef3f,TCR,2024-06-11_13h19.21.982,LearnStrategy,2023.2.3,Win32,59.52380952,,,,,,,,,,,,,,,,,,,,,,,,,,,,,,,,,,,,,,,,,,,
5e3cddaa64dfd70d85a5ef3f,TCR,2024-06-11_13h19.21.982,LearnStrategy,2023.2.3,Win32,59.52380952,1,1,1,-0.030555513,-0.005555577,1,0,0,2.0983,rock_grid_rect_2,7,04,-1,-1,2.098,-0.066666638,-0.233333376,1,0,0,2.2354,Basalt_rect,2,2.235,0,0,0,0,0,1,,,,,,,,,,,,,
5e3cddaa64dfd70d85a5ef3f,TCR,2024-06-11_13h19.21.982,LearnStrategy,2023.2.3,Win32,59.52380952,1,1,2,0.002777806,0.01203703,1,0,0,1.5645,rock_grid_rect_2,2,11,-1,-1,1.564,-0.07222218,-0.250925912,1,0,0,1.7471,Basalt_rect,2,1.747,1,1,0,1,0,1,,,,,,,,,,,,,
5e3cddaa64dfd70d85a5ef3f,TCR,2024-06-11_13h19.21.982,LearnStrategy,2023.2.3,Win32,59.52380952,1,1,3,-0.006481453,-0.009259259,1,0,0,1.175,rock_grid_rect_2,4,13,-1,-1,1.175,0.333333333,-0.268518519,1,0,0,1.7209,Gabbro_rect,4,1.721,1,2,0,2,0,1,,,,,,,,,,,,,
5e3cddaa64dfd70d85a5ef3f,TCR,2024-06-11_13h19.21.982,LearnStrategy,2023.2.3,Win32,59.52380952,1,1,4,0.027777778,-0.0074074,1,0,0,1.1222,rock_grid_rect_2,2,01,-1,-1,1.122,-0.340740734,-0.385185171,1,0,0,4.271,Obsidian_rect,5,4.271,0,3,0,3,0,1,,,,,,,,,,,,,
5e3cddaa64dfd70d85a5ef3f,TCR,2024-06-11_13h19.21.982,LearnStrategy,2023.2.3,Win32,59.52380952,1,1,5,0.031481496,-0.010185206,1,0,0,1.3162,rock_grid_rect_2,8,10,-1,-1,1.316,-0.378703683,-0.381481524,1,0,0,2.5023,Obsidian_rect,5,2.502,0,4,0,4,0,1,,,,,,,,,,,,,
5e3cddaa64dfd70d85a5ef3f,TCR,2024-06-11_13h19.21.982,LearnStrategy,2023.2.3,Win32,59.52380952,1,1,6,0.05740745,-0.014814836,1,0,0,1.0967,rock_grid_rect_2,6,07,-1,-1,1.097,0.384259259,-0.268518519,1,0,0,2.7442,Gabbro_rect,4,2.744,0,5,0,5,0,1,,,,,,,,,,,,,
5e3cddaa64dfd70d85a5ef3f,TCR,2024-06-11_13h19.21.982,LearnStrategy,2023.2.3,Win32,59.52380952,1,1,7,0.097222222,0.008333312,1,0,0,1.1643,rock_grid_rect_2,3,16,-1,-1,1.164,-0.317592586,-0.39444443,1,0,0,2.6452,Obsidian_rect,5,2.645,0,6,0,6,0,1,,,,,,,,,,,,,
5e3cddaa64dfd70d85a5ef3f,TCR,2024-06-11_13h19.21.982,LearnStrategy,2023.2.3,Win32,59.52380952,1,1,8,0.022222236,-0.012962977,1,0,0,1.182,rock_grid_rect_2,3,10,-1,-1,1.182,0.060185185,-0.389814801,1,0,0,3.1775,Peridotite_rect,7,3.178,0,7,0,7,0,1,,,,,,,,,,,,,
5e3cddaa64dfd70d85a5ef3f,TCR,2024-06-11_13h19.21.982,LearnStrategy,2023.2.3,Win32,59.52380952,1,1,9,0.045370384,-0.012962977,1,0,0,1.1978,rock_grid_rect_2,1,06,-1,-1,1.198,-0.092592593,-0.243518547,1,0,0,5.7612,Basalt_rect,2,5.761,0,8,0,8,0,1,,,,,,,,,,,,,
5e3cddaa64dfd70d85a5ef3f,TCR,2024-06-11_13h19.21.982,LearnStrategy,2023.2.3,Win32,59.52380952,1,1,10,0.047222208,0.011111118,1,0,0,1.1491,rock_grid_rect_2,8,09,-1,-1,1.149,0.344444416,-0.39907406,1,0,0,3.7966,Pumice_rect,8,3.797,1,9,0,9,0,1,,,,,,,,,,,,,
5e3cddaa64dfd70d85a5ef3f,TCR,2024-06-11_13h19.21.982,LearnStrategy,2023.2.3,Win32,59.52380952,1,1,11,0.103703746,-0.01203703,1,0,0,1.1485,rock_grid_rect_2,5,07,-1,-1,1.149,-0.301851838,-0.385185171,1,0,0,2.3273,Obsidian_rect,5,2.327,1,10,0,10,0,1,,,,,,,,,,,,,
5e3cddaa64dfd70d85a5ef3f,TCR,2024-06-11_13h19.21.982,LearnStrategy,2023.2.3,Win32,59.52380952,1,1,12,-0.024999972,0.008333312,1,0,0,1.1316,rock_grid_rect_2,1,05,-1,-1,1.132,-0.037962949,-0.39907406,1,0,0,4.5316,Pegmatite_rect,6,4.532,0,11,0,11,0,1,,,,,,,,,,,,,
5e3cddaa64dfd70d85a5ef3f,TCR,2024-06-11_13h19.21.982,LearnStrategy,2023.2.3,Win32,59.52380952,1,1,13,0.055555556,0.011111118,1,0,0,1.2149,rock_grid_rect_2,5,12,-1,-1,1.215,-0.39907406,-0.412962949,1,0,0,1.6379,Obsidian_rect,5,1.638,1,12,0,12,0,1,,,,,,,,,,,,,
5e3cddaa64dfd70d85a5ef3f,TCR,2024-06-11_13h19.21.982,LearnStrategy,2023.2.3,Win32,59.52380952,1,1,14,0.073148162,-0.01203703,1,0,0,1.2066,rock_grid_rect_2,4,03,-1,-1,1.207,-0.12962963,-0.252777806,1,0,0,1.9698,Basalt_rect,2,1.97,0,13,0,13,0,1,,,,,,,,,,,,,
5e3cddaa64dfd70d85a5ef3f,TCR,2024-06-11_13h19.21.982,LearnStrategy,2023.2.3,Win32,59.52380952,1,1,15,0.116666653,-0.022222236,1,0,0,2.1652,rock_grid_rect_2,6,13,-1,-1,2.165,-0.10092594,-0.262962977,1,0,0,6.2699,Basalt_rect,2,6.27,0,14,0,14,0,1,,,,,,,,,,,,,
5e3cddaa64dfd70d85a5ef3f,TCR,2024-06-11_13h19.21.982,LearnStrategy,2023.2.3,Win32,59.52380952,1,1,16,0.083333333,-0.014814836,1,0,0,1.1315,rock_grid_rect_2,7,14,-1,-1,1.132,-0.065740727,-0.398148148,1,0,0,3.8862,Pegmatite_rect,6,3.886,0,15,0,15,0,1,,,,,,,,,,,,,
5e3cddaa64dfd70d85a5ef3f,TCR,2024-06-11_13h19.21.982,LearnStrategy,2023.2.3,Win32,59.52380952,1,2,1,,,,,,,,2,10,,,,,,,,,,,5,2.26,0,,,,,,-0.320370356,-0.389814801,1,0,0,2.2599,Obsidian_rect,0,0,0,0,1,
5e3cddaa64dfd70d85a5ef3f,TCR,2024-06-11_13h19.21.982,LearnStrategy,2023.2.3,Win32,59.52380952,1,2,2,,,,,,,,6,11,,,,,,,,,,,5,1.911,0,,,,,,-0.37037037,-0.398148148,1,0,0,1.9114,Obsidian_rect,1,0,1,0,1,
5e3cddaa64dfd70d85a5ef3f,TCR,2024-06-11_13h19.21.982,LearnStrategy,2023.2.3,Win32,59.52380952,1,2,3,,,,,,,,4,11,,,,,,,,,,,2,2.746,0,,,,,,-0.106481481,-0.251851894,1,0,0,2.7458,Basalt_rect,2,0,2,0,1,
5e3cddaa64dfd70d85a5ef3f,TCR,2024-06-11_13h19.21.982,LearnStrategy,2023.2.3,Win32,59.52380952,1,2,4,,,,,,,,8,16,,,,,,,,,,,8,2.146,1,,,,,,0.365740741,-0.396296325,1,0,0,2.1456,Pumice_rect,3,0,3,0,1,
5e3cddaa64dfd70d85a5ef3f,TCR,2024-06-11_13h19.21.982,LearnStrategy,2023.2.3,Win32,59.52380952,1,2,5,,,,,,,,8,08,,,,,,,,,,,3,2.844,0,,,,,,0.10092594,-0.262962977,1,0,0,2.8443,Diorite_rect,4,0,4,0,1,
5e3cddaa64dfd70d85a5ef3f,TCR,2024-06-11_13h19.21.982,LearnStrategy,2023.2.3,Win32,59.52380952,1,2,6,,,,,,,,1,10,,,,,,,,,,,2,2.527,0,,,,,,-0.098148134,-0.264814801,1,0,0,2.5271,Basalt_rect,5,0,5,0,1,
5e3cddaa64dfd70d85a5ef3f,TCR,2024-06-11_13h19.21.982,LearnStrategy,2023.2.3,Win32,59.52380952,1,2,7,,,,,,,,6,12,,,,,,,,,,,1,2.205,0,,,,,,-0.324074074,-0.253703718,1,0,0,2.2051,Andesite_rect,6,0,6,0,1,
5e3cddaa64dfd70d85a5ef3f,TCR,2024-06-11_13h19.21.982,LearnStrategy,2023.2.3,Win32,59.52380952,1,2,8,,,,,,,,7,16,,,,,,,,,,,4,3.011,0,,,,,,0.346296381,-0.258333347,1,0,0,3.0106,Gabbro_rect,7,0,7,0,1,
5e3cddaa64dfd70d85a5ef3f,TCR,2024-06-11_13h19.21.982,LearnStrategy,2023.2.3,Win32,59.52380952,1,2,9,,,,,,,,5,04,,,,,,,,,,,5,1.538,1,,,,,,-0.297222208,-0.39444443,1,0,0,1.5382,Obsidian_rect,8,0,8,0,1,
5e3cddaa64dfd70d85a5ef3f,TCR,2024-06-11_13h19.21.982,LearnStrategy,2023.2.3,Win32,59.52380952,1,2,10,,,,,,,,5,08,,,,,,,,,,,5,1.053,1,,,,,,-0.352777764,-0.410185213,1,0,0,1.053,Obsidian_rect,9,0,9,0,1,
5e3cddaa64dfd70d85a5ef3f,TCR,2024-06-11_13h19.21.982,LearnStrategy,2023.2.3,Win32,59.52380952,1,2,11,,,,,,,,2,08,,,,,,,,,,,6,4.845,0,,,,,,-0.130555541,-0.418518561,1,0,0,4.8449,Pegmatite_rect,10,0,10,0,1,
5e3cddaa64dfd70d85a5ef3f,TCR,2024-06-11_13h19.21.982,LearnStrategy,2023.2.3,Win32,59.52380952,1,2,12,,,,,,,,1,14,,,,,,,,,,,7,2.278,0,,,,,,0.191666709,-0.412037037,1,0,0,2.2781,Peridotite_rect,11,0,11,0,1,
5e3cddaa64dfd70d85a5ef3f,TCR,2024-06-11_13h19.21.982,LearnStrategy,2023.2.3,Win32,59.52380952,1,2,13,,,,,,,,3,06,,,,,,,,,,,8,1.578,0,,,,,,0.338888945,-0.385185171,1,0,0,1.5776,Pumice_rect,12,0,12,0,1,
5e3cddaa64dfd70d85a5ef3f,TCR,2024-06-11_13h19.21.982,LearnStrategy,2023.2.3,Win32,59.52380952,1,2,14,,,,,,,,3,11,,,,,,,,,,,8,1.227,0,,,,,,0.329629686,-0.404629672,1,0,0,1.2265,Pumice_rect,13,0,13,0,1,
5e3cddaa64dfd70d85a5ef3f,TCR,2024-06-11_13h19.21.982,LearnStrategy,2023.2.3,Win32,59.52380952,1,2,15,,,,,,,,4,05,,,,,,,,,,,2,1.577,0,,,,,,-0.161111125,-0.237037023,1,0,0,1.5768,Basalt_rect,14,0,14,0,1,
5e3cddaa64dfd70d85a5ef3f,TCR,2024-06-11_13h19.21.982,LearnStrategy,2023.2.3,Win32,59.52380952,1,2,16,,,,,,,,7,07,,,,,,,,,,,2,1.336,0,,,,,,-0.145370342,-0.257407436,1,0,0,1.3359,Basalt_rect,15,0,15,0,1,
5e3cddaa64dfd70d85a5ef3f,TCR,2024-06-11_13h19.21.982,LearnStrategy,2023.2.3,Win32,59.52380952,2,1,1,-0.016666624,-0.001851859,1,0,0,1.5881,rock_grid_rect_2,2,02,-1,-1,1.588,-0.335185192,-0.256481524,1,0,0,2.7879,Andesite_rect,1,2.788,0,0,0,0,0,1,,,,,,,,,,,,,
5e3cddaa64dfd70d85a5ef3f,TCR,2024-06-11_13h19.21.982,LearnStrategy,2023.2.3,Win32,59.52380952,2,1,2,-0.008333347,-0.017592607,1,0,0,1.2476,rock_grid_rect_2,1,01,-1,-1,1.248,0.330555527,-0.263888889,1,0,0,2.7629,Gabbro_rect,4,2.763,0,1,0,1,0,1,,,,,,,,,,,,,
5e3cddaa64dfd70d85a5ef3f,TCR,2024-06-11_13h19.21.982,LearnStrategy,2023.2.3,Win32,59.52380952,2,1,3,0.014814801,0.000925912,1,0,0,1.2642,rock_grid_rect_2,3,14,-1,-1,1.264,-0.111111111,-0.383333347,1,0,0,3.6939,Pegmatite_rect,6,3.694,0,2,0,2,0,1,,,,,,,,,,,,,
5e3cddaa64dfd70d85a5ef3f,TCR,2024-06-11_13h19.21.982,LearnStrategy,2023.2.3,Win32,59.52380952,2,1,4,0.082407422,-0.011111118,1,0,0,1.2975,rock_grid_rect_2,4,16,-1,-1,1.298,0.358333305,-0.250925912,1,0,0,1.6951,Gabbro_rect,4,1.695,1,3,0,3,0,1,,,,,,,,,,,,,
5e3cddaa64dfd70d85a5ef3f,TCR,2024-06-11_13h19.21.982,LearnStrategy,2023.2.3,Win32,59.52380952,2,1,5,0.121296282,-0.001851859,1,0,0,1.2136,rock_grid_rect_2,2,12,-1,-1,1.214,0.316666638,-0.404629672,1,0,0,2.4119,Pumice_rect,8,2.412,0,4,0,4,0,1,,,,,,,,,,,,,
5e3cddaa64dfd70d85a5ef3f,TCR,2024-06-11_13h19.21.982,LearnStrategy,2023.2.3,Win32,59.52380952,2,1,6,0.12037037,0.012962942,1,0,0,1.3814,rock_grid_rect_2,4,09,-1,-1,1.381,0.336111139,-0.402777778,1,0,0,2.4122,Pumice_rect,8,2.412,0,5,0,5,0,1,,,,,,,,,,,,,
5e3cddaa64dfd70d85a5ef3f,TCR,2024-06-11_13h19.21.982,LearnStrategy,2023.2.3,Win32,59.52380952,2,1,7,0.09629631,-0.006481489,1,0,0,1.0313,rock_grid_rect_2,7,08,-1,-1,1.031,-0.056481467,-0.243518547,1,0,0,3.0279,Basalt_rect,2,3.028,0,6,0,6,0,1,,,,,,,,,,,,,
5e3cddaa64dfd70d85a5ef3f,TCR,2024-06-11_13h19.21.982,LearnStrategy,2023.2.3,Win32,59.52380952,2,1,8,-0.001851824,-0.017592607,1,0,0,1.1142,rock_grid_rect_2,1,05,-1,-1,1.114,-0.130555541,-0.387962977,1,0,0,2.4441,Pegmatite_rect,6,2.444,0,7,0,7,0,1,,,,,,,,,,,,,
5e3cddaa64dfd70d85a5ef3f,TCR,2024-06-11_13h19.21.982,LearnStrategy,2023.2.3,Win32,59.52380952,2,1,9,0.059259273,-0.023148148,1,0,0,0.998,rock_grid_rect_2,6,10,-1,-1,0.998,-0.12037037,-0.400925954,1,0,0,5.4604,Pegmatite_rect,6,5.46,1,8,0,8,0,1,,,,,,,,,,,,,
5e3cddaa64dfd70d85a5ef3f,TCR,2024-06-11_13h19.21.982,LearnStrategy,2023.2.3,Win32,59.52380952,2,1,10,0.015740783,-0.01203703,1,0,0,1.2466,rock_grid_rect_2,1,01,-1,-1,1.247,0.130555541,-0.268518519,1,0,0,3.8958,Diorite_rect,3,3.896,0,9,0,9,0,1,,,,,,,,,,,,,
5e3cddaa64dfd70d85a5ef3f,TCR,2024-06-11_13h19.21.982,LearnStrategy,2023.2.3,Win32,59.52380952,2,1,11,-0.025925884,-0.002777771,1,0,0,1.1489,rock_grid_rect_2,2,16,-1,-1,1.149,0.075925968,-0.234259288,1,0,0,1.7787,Diorite_rect,3,1.779,0,10,0,10,0,1,,,,,,,,,,,,,
5e3cddaa64dfd70d85a5ef3f,TCR,2024-06-11_13h19.21.982,LearnStrategy,2023.2.3,Win32,59.52380952,2,1,12,0.015740783,-0.000925947,1,0,0,1.0323,rock_grid_rect_2,5,10,-1,-1,1.032,-0.327777757,-0.395370413,1,0,0,2.0447,Obsidian_rect,5,2.045,1,11,0,11,0,1,,,,,,,,,,,,,
5e3cddaa64dfd70d85a5ef3f,TCR,2024-06-11_13h19.21.982,LearnStrategy,2023.2.3,Win32,59.52380952,2,1,13,-0.02870369,0.000925912,1,0,0,1.082,rock_grid_rect_2,8,14,-1,-1,1.082,0.350926011,-0.385185171,1,0,0,1.7444,Pumice_rect,8,1.744,1,12,0,12,0,1,,,,,,,,,,,,,
5e3cddaa64dfd70d85a5ef3f,TCR,2024-06-11_13h19.21.982,LearnStrategy,2023.2.3,Win32,59.52380952,2,1,14,0.05277782,0.002777771,1,0,0,1.0494,rock_grid_rect_2,6,16,-1,-1,1.049,0.198148162,-0.25462963,1,0,0,3.2789,Diorite_rect,3,3.279,0,13,0,13,0,1,,,,,,,,,,,,,
5e3cddaa64dfd70d85a5ef3f,TCR,2024-06-11_13h19.21.982,LearnStrategy,2023.2.3,Win32,59.52380952,2,1,15,0.085185228,-0.011111118,1,0,0,1.0476,rock_grid_rect_2,3,07,-1,-1,1.048,0.07222225,-0.248148176,1,0,0,1.7615,Diorite_rect,3,1.762,1,14,0,14,0,1,,,,,,,,,,,,,
5e3cddaa64dfd70d85a5ef3f,TCR,2024-06-11_13h19.21.982,LearnStrategy,2023.2.3,Win32,59.52380952,2,1,16,0.15370369,-0.000925947,1,0,0,1.865,rock_grid_rect_2,7,12,-1,-1,1.865,-0.099074046,-0.240740741,1,0,0,2.2782,Basalt_rect,2,2.278,0,15,0,15,0,1,,,,,,,,,,,,,
5e3cddaa64dfd70d85a5ef3f,TCR,2024-06-11_13h19.21.982,LearnStrategy,2023.2.3,Win32,59.52380952,2,2,1,,,,,,,,5,11,,,,,,,,,,,5,1.339,1,,,,,,-0.327777757,-0.404629672,1,0,0,1.3385,Obsidian_rect,0,0,0,0,1,
5e3cddaa64dfd70d85a5ef3f,TCR,2024-06-11_13h19.21.982,LearnStrategy,2023.2.3,Win32,59.52380952,2,2,2,,,,,,,,6,03,,,,,,,,,,,3,3.777,0,,,,,,0.048148191,-0.265740783,1,0,0,3.7773,Diorite_rect,1,0,1,0,1,
5e3cddaa64dfd70d85a5ef3f,TCR,2024-06-11_13h19.21.982,LearnStrategy,2023.2.3,Win32,59.52380952,2,2,3,,,,,,,,1,11,,,,,,,,,,,2,1.286,0,,,,,,-0.098148134,-0.260185171,1,0,0,1.2858,Basalt_rect,2,0,2,0,1,
5e3cddaa64dfd70d85a5ef3f,TCR,2024-06-11_13h19.21.982,LearnStrategy,2023.2.3,Win32,59.52380952,2,2,4,,,,,,,,2,04,,,,,,,,,,,2,2.659,1,,,,,,-0.175000014,-0.259259259,1,0,0,2.6595,Basalt_rect,3,0,3,0,1,
5e3cddaa64dfd70d85a5ef3f,TCR,2024-06-11_13h19.21.982,LearnStrategy,2023.2.3,Win32,59.52380952,2,2,5,,,,,,,,3,13,,,,,,,,,,,4,3.079,0,,,,,,0.35555564,-0.264814801,1,0,0,3.0786,Gabbro_rect,4,0,4,0,1,
5e3cddaa64dfd70d85a5ef3f,TCR,2024-06-11_13h19.21.982,LearnStrategy,2023.2.3,Win32,59.52380952,2,2,6,,,,,,,,4,10,,,,,,,,,,,6,1.462,0,,,,,,-0.073148162,-0.400000042,1,0,0,1.4622,Pegmatite_rect,5,0,5,0,1,
5e3cddaa64dfd70d85a5ef3f,TCR,2024-06-11_13h19.21.982,LearnStrategy,2023.2.3,Win32,59.52380952,2,2,7,,,,,,,,2,09,,,,,,,,,,,3,1.696,0,,,,,,0.135185171,-0.232407393,1,0,0,1.6957,Diorite_rect,6,0,6,0,1,
5e3cddaa64dfd70d85a5ef3f,TCR,2024-06-11_13h19.21.982,LearnStrategy,2023.2.3,Win32,59.52380952,2,2,8,,,,,,,,3,12,,,,,,,,,,,7,1.596,0,,,,,,0.115740741,-0.409259302,1,0,0,1.5965,Peridotite_rect,7,0,7,0,1,
5e3cddaa64dfd70d85a5ef3f,TCR,2024-06-11_13h19.21.982,LearnStrategy,2023.2.3,Win32,59.52380952,2,2,9,,,,,,,,8,13,,,,,,,,,,,8,2.645,1,,,,,,0.365740741,-0.410185213,1,0,0,2.6449,Pumice_rect,8,0,8,0,1,
5e3cddaa64dfd70d85a5ef3f,TCR,2024-06-11_13h19.21.982,LearnStrategy,2023.2.3,Win32,59.52380952,2,2,10,,,,,,,,8,06,,,,,,,,,,,8,1.278,1,,,,,,0.369444529,-0.385185171,1,0,0,1.2778,Pumice_rect,9,0,9,0,1,
5e3cddaa64dfd70d85a5ef3f,TCR,2024-06-11_13h19.21.982,LearnStrategy,2023.2.3,Win32,59.52380952,2,2,11,,,,,,,,7,06,,,,,,,,,,,2,2.661,0,,,,,,-0.074074074,-0.247222265,1,0,0,2.6609,Basalt_rect,10,0,10,0,1,
5e3cddaa64dfd70d85a5ef3f,TCR,2024-06-11_13h19.21.982,LearnStrategy,2023.2.3,Win32,59.52380952,2,2,12,,,,,,,,7,13,,,,,,,,,,,2,1.395,0,,,,,,-0.074074074,-0.247222265,1,0,0,1.3947,Basalt_rect,11,0,11,0,1,
5e3cddaa64dfd70d85a5ef3f,TCR,2024-06-11_13h19.21.982,LearnStrategy,2023.2.3,Win32,59.52380952,2,2,13,,,,,,,,5,09,,,,,,,,,,,5,1.378,1,,,,,,-0.357407393,-0.396296325,1,0,0,1.3776,Obsidian_rect,12,0,12,0,1,
5e3cddaa64dfd70d85a5ef3f,TCR,2024-06-11_13h19.21.982,LearnStrategy,2023.2.3,Win32,59.52380952,2,2,14,,,,,,,,1,07,,,,,,,,,,,3,1.778,0,,,,,,0.100000028,-0.264814801,1,0,0,1.7783,Diorite_rect,13,0,13,0,1,
5e3cddaa64dfd70d85a5ef3f,TCR,2024-06-11_13h19.21.982,LearnStrategy,2023.2.3,Win32,59.52380952,2,2,15,,,,,,,,6,09,,,,,,,,,,,3,2.909,0,,,,,,0.136111153,-0.265740783,1,0,0,2.909,Diorite_rect,14,0,14,0,1,
5e3cddaa64dfd70d85a5ef3f,TCR,2024-06-11_13h19.21.982,LearnStrategy,2023.2.3,Win32,59.52380952,2,2,16,,,,,,,,4,08,,,,,,,,,,,6,1.996,0,,,,,,-0.130555541,-0.391666695,1,0,0,1.9957,Pegmatite_rect,15,0,15,0,1,
5e3cddaa64dfd70d85a5ef3f,TCR,2024-06-11_13h19.21.982,LearnStrategy,2023.2.3,Win32,59.52380952,3,1,1,-0.014814801,-0.002777771,1,0,0,2.1821,rock_grid_rect_2,1,16,-1,-1,2.182,-0.313888868,-0.251851894,1,0,0,3.4952,Andesite_rect,1,3.495,1,0,0,0,0,1,,,,,,,,,,,,,
5e3cddaa64dfd70d85a5ef3f,TCR,2024-06-11_13h19.21.982,LearnStrategy,2023.2.3,Win32,59.52380952,3,1,2,-0.049074032,0.000925912,1,0,0,1.6298,rock_grid_rect_2,8,09,-1,-1,1.63,0.337962963,-0.393518519,1,0,0,1.4292,Pumice_rect,8,1.429,1,1,0,1,0,1,,,,,,,,,,,,,
5e3cddaa64dfd70d85a5ef3f,TCR,2024-06-11_13h19.21.982,LearnStrategy,2023.2.3,Win32,59.52380952,3,1,3,0.01944443,-0.01203703,1,0,0,1.1137,rock_grid_rect_2,2,12,-1,-1,1.114,0.353703675,-0.417592578,1,0,0,1.4618,Pumice_rect,8,1.462,0,2,0,2,0,1,,,,,,,,,,,,,
5e3cddaa64dfd70d85a5ef3f,TCR,2024-06-11_13h19.21.982,LearnStrategy,2023.2.3,Win32,59.52380952,3,1,4,0.067592621,-0.011111118,1,0,0,1.1152,rock_grid_rect_2,2,01,-1,-1,1.115,0.349074046,-0.270370413,1,0,0,2.0292,Gabbro_rect,4,2.029,0,3,0,3,0,1,,,,,,,,,,,,,
5e3cddaa64dfd70d85a5ef3f,TCR,2024-06-11_13h19.21.982,LearnStrategy,2023.2.3,Win32,59.52380952,3,1,5,0.061111097,-0.01203703,1,0,0,1.0491,rock_grid_rect_2,4,01,-1,-1,1.049,0.336111139,-0.23055557,1,0,0,1.4438,Gabbro_rect,4,1.444,1,4,0,4,0,1,,,,,,,,,,,,,
5e3cddaa64dfd70d85a5ef3f,TCR,2024-06-11_13h19.21.982,LearnStrategy,2023.2.3,Win32,59.52380952,3,1,6,0.05277782,-0.018518519,1,0,0,1.1475,rock_grid_rect_2,7,10,-1,-1,1.148,0.354629658,-0.255555541,1,0,0,3.8953,Gabbro_rect,4,3.895,0,5,0,5,0,1,,,,,,,,,,,,,
5e3cddaa64dfd70d85a5ef3f,TCR,2024-06-11_13h19.21.982,LearnStrategy,2023.2.3,Win32,59.52380952,3,1,7,0.087962963,0.000925912,1,0,0,1.1638,rock_grid_rect_2,1,09,-1,-1,1.164,-0.108333305,-0.252777806,1,0,0,2.0785,Basalt_rect,2,2.078,0,6,0,6,0,1,,,,,,,,,,,,,
5e3cddaa64dfd70d85a5ef3f,TCR,2024-06-11_13h19.21.982,LearnStrategy,2023.2.3,Win32,59.52380952,3,1,8,-0.047222208,0.01203703,1,0,0,1.0817,rock_grid_rect_2,7,14,-1,-1,1.082,0.08148151,-0.268518519,1,0,0,1.6944,Diorite_rect,3,1.694,0,7,0,7,0,1,,,,,,,,,,,,,
5e3cddaa64dfd70d85a5ef3f,TCR,2024-06-11_13h19.21.982,LearnStrategy,2023.2.3,Win32,59.52380952,3,1,9,0.001851894,-0.010185206,1,0,0,1.116,rock_grid_rect_2,3,02,-1,-1,1.116,0.07685188,-0.248148176,1,0,0,1.5771,Diorite_rect,3,1.577,1,8,0,8,0,1,,,,,,,,,,,,,
5e3cddaa64dfd70d85a5ef3f,TCR,2024-06-11_13h19.21.982,LearnStrategy,2023.2.3,Win32,59.52380952,3,1,10,-0.002777735,-0.018518519,1,0,0,1.0655,rock_grid_rect_2,6,07,-1,-1,1.065,0.373148176,-0.26944443,1,0,0,2.8119,Gabbro_rect,4,2.812,0,9,0,9,0,1,,,,,,,,,,,,,
5e3cddaa64dfd70d85a5ef3f,TCR,2024-06-11_13h19.21.982,LearnStrategy,2023.2.3,Win32,59.52380952,3,1,11,0.049074102,-0.001851859,1,0,0,1.0807,rock_grid_rect_2,4,14,-1,-1,1.081,-0.299999979,-0.238888917,1,0,0,2.2619,Andesite_rect,1,2.262,0,10,0,10,0,1,,,,,,,,,,,,,
5e3cddaa64dfd70d85a5ef3f,TCR,2024-06-11_13h19.21.982,LearnStrategy,2023.2.3,Win32,59.52380952,3,1,12,0.003703718,0.002777771,1,0,0,1.2311,rock_grid_rect_2,1,05,-1,-1,1.231,-0.112962935,-0.235185199,1,0,0,1.6789,Basalt_rect,2,1.679,0,11,0,11,0,1,,,,,,,,,,,,,
5e3cddaa64dfd70d85a5ef3f,TCR,2024-06-11_13h19.21.982,LearnStrategy,2023.2.3,Win32,59.52380952,3,1,13,-0.011111083,-0.011111118,1,0,0,1.698,rock_grid_rect_2,6,10,-1,-1,1.698,0.14444443,-0.392592607,1,0,0,3.7456,Peridotite_rect,7,3.746,0,12,0,12,0,1,,,,,,,,,,,,,
5e3cddaa64dfd70d85a5ef3f,TCR,2024-06-11_13h19.21.982,LearnStrategy,2023.2.3,Win32,59.52380952,3,1,14,0.09629631,-0.01203703,1,0,0,1.8134,rock_grid_rect_2,3,02,-1,-1,1.813,0.10092594,-0.252777806,1,0,0,1.6123,Diorite_rect,3,1.612,1,13,0,13,0,1,,,,,,,,,,,,,
5e3cddaa64dfd70d85a5ef3f,TCR,2024-06-11_13h19.21.982,LearnStrategy,2023.2.3,Win32,59.52380952,3,1,15,0.083333333,0,1,0,0,1.0645,rock_grid_rect_2,6,13,-1,-1,1.064,0.327777863,-0.253703718,1,0,0,2.697,Gabbro_rect,4,2.697,0,14,0,14,0,1,,,,,,,,,,,,,
5e3cddaa64dfd70d85a5ef3f,TCR,2024-06-11_13h19.21.982,LearnStrategy,2023.2.3,Win32,59.52380952,3,1,16,0.062962991,0.001851859,1,0,0,1.2146,rock_grid_rect_2,3,16,-1,-1,1.215,-0.17777775,-0.25462963,1,0,0,2.8283,Basalt_rect,2,2.828,0,15,0,15,0,1,,,,,,,,,,,,,
5e3cddaa64dfd70d85a5ef3f,TCR,2024-06-11_13h19.21.982,LearnStrategy,2023.2.3,Win32,59.52380952,3,2,1,,,,,,,,7,02,,,,,,,,,,,2,1.395,0,,,,,,-0.085185157,-0.252777806,1,0,0,1.3946,Basalt_rect,0,0,0,0,1,
5e3cddaa64dfd70d85a5ef3f,TCR,2024-06-11_13h19.21.982,LearnStrategy,2023.2.3,Win32,59.52380952,3,2,2,,,,,,,,1,02,,,,,,,,,,,2,1.152,0,,,,,,-0.085185157,-0.252777806,1,0,0,1.1518,Basalt_rect,1,0,1,0,1,
5e3cddaa64dfd70d85a5ef3f,TCR,2024-06-11_13h19.21.982,LearnStrategy,2023.2.3,Win32,59.52380952,3,2,3,,,,,,,,4,15,,,,,,,,,,,4,1.485,1,,,,,,0.336111139,-0.261111153,1,0,0,1.4851,Gabbro_rect,2,0,2,0,1,
5e3cddaa64dfd70d85a5ef3f,TCR,2024-06-11_13h19.21.982,LearnStrategy,2023.2.3,Win32,59.52380952,3,2,4,,,,,,,,6,05,,,,,,,,,,,7,2.528,0,,,,,,0.080555598,-0.414814843,1,0,0,2.5285,Peridotite_rect,3,0,3,0,1,
5e3cddaa64dfd70d85a5ef3f,TCR,2024-06-11_13h19.21.982,LearnStrategy,2023.2.3,Win32,59.52380952,3,2,5,,,,,,,,6,15,,,,,,,,,,,7,1.277,0,,,,,,0.093518504,-0.400925954,1,0,0,1.2766,Peridotite_rect,4,0,4,0,1,
5e3cddaa64dfd70d85a5ef3f,TCR,2024-06-11_13h19.21.982,LearnStrategy,2023.2.3,Win32,59.52380952,3,2,6,,,,,,,,5,14,,,,,,,,,,,5,1.21,1,,,,,,-0.343518504,-0.378703718,1,0,0,1.2099,Obsidian_rect,5,0,5,0,1,
5e3cddaa64dfd70d85a5ef3f,TCR,2024-06-11_13h19.21.982,LearnStrategy,2023.2.3,Win32,59.52380952,3,2,7,,,,,,,,5,16,,,,,,,,,,,5,0.728,1,,,,,,-0.343518504,-0.378703718,1,0,0,0.7278,Obsidian_rect,6,0,6,0,1,
5e3cddaa64dfd70d85a5ef3f,TCR,2024-06-11_13h19.21.982,LearnStrategy,2023.2.3,Win32,59.52380952,3,2,8,,,,,,,,2,05,,,,,,,,,,,2,1.444,1,,,,,,-0.117592564,-0.256481524,1,0,0,1.4442,Basalt_rect,7,0,7,0,1,
5e3cddaa64dfd70d85a5ef3f,TCR,2024-06-11_13h19.21.982,LearnStrategy,2023.2.3,Win32,59.52380952,3,2,9,,,,,,,,3,08,,,,,,,,,,,3,1.595,1,,,,,,0.131481524,-0.265740783,1,0,0,1.5951,Diorite_rect,8,0,8,0,1,
5e3cddaa64dfd70d85a5ef3f,TCR,2024-06-11_13h19.21.982,LearnStrategy,2023.2.3,Win32,59.52380952,3,2,10,,,,,,,,7,15,,,,,,,,,,,3,1.428,0,,,,,,0.131481524,-0.265740783,1,0,0,1.4277,Diorite_rect,9,0,9,0,1,
5e3cddaa64dfd70d85a5ef3f,TCR,2024-06-11_13h19.21.982,LearnStrategy,2023.2.3,Win32,59.52380952,3,2,11,,,,,,,,2,14,,,,,,,,,,,4,1.478,0,,,,,,0.337037122,-0.271296325,1,0,0,1.4777,Gabbro_rect,10,0,10,0,1,
5e3cddaa64dfd70d85a5ef3f,TCR,2024-06-11_13h19.21.982,LearnStrategy,2023.2.3,Win32,59.52380952,3,2,12,,,,,,,,4,12,,,,,,,,,,,2,1.611,0,,,,,,-0.125925912,-0.259259259,1,0,0,1.6108,Basalt_rect,11,0,11,0,1,
5e3cddaa64dfd70d85a5ef3f,TCR,2024-06-11_13h19.21.982,LearnStrategy,2023.2.3,Win32,59.52380952,3,2,13,,,,,,,,8,03,,,,,,,,,,,8,1.446,1,,,,,,0.342592593,-0.396296325,1,0,0,1.4459,Pumice_rect,12,0,12,0,1,
5e3cddaa64dfd70d85a5ef3f,TCR,2024-06-11_13h19.21.982,LearnStrategy,2023.2.3,Win32,59.52380952,3,2,14,,,,,,,,8,15,,,,,,,,,,,8,0.912,1,,,,,,0.342592593,-0.396296325,1,0,0,0.9123,Pumice_rect,13,0,13,0,1,
5e3cddaa64dfd70d85a5ef3f,TCR,2024-06-11_13h19.21.982,LearnStrategy,2023.2.3,Win32,59.52380952,3,2,15,,,,,,,,1,04,,,,,,,,,,,1,2.297,1,,,,,,-0.351851852,-0.240740741,1,0,0,2.2969,Andesite_rect,14,0,14,0,1,
5e3cddaa64dfd70d85a5ef3f,TCR,2024-06-11_13h19.21.982,LearnStrategy,2023.2.3,Win32,59.52380952,3,2,16,,,,,,,,3,09,,,,,,,,,,,3,2.606,1,,,,,,0.113888917,-0.249074088,1,0,0,2.6064,Diorite_rect,15,0,15,0,1,
5e3cddaa64dfd70d85a5ef3f,TCR,2024-06-11_13h19.21.982,LearnStrategy,2023.2.3,Win32,59.52380952,4,1,1,-0.001851824,-0.002777771,1,0,0,1.3141,rock_grid_rect_2,7,10,-1,-1,1.314,-0.103703675,-0.388888889,1,0,0,2.8276,Pegmatite_rect,6,2.828,0,0,0,0,0,1,,,,,,,,,,,,,
5e3cddaa64dfd70d85a5ef3f,TCR,2024-06-11_13h19.21.982,LearnStrategy,2023.2.3,Win32,59.52380952,4,1,2,0.022222236,-0.001851859,1,0,0,1.1833,rock_grid_rect_2,7,05,-1,-1,1.183,0.053703732,-0.410185213,1,0,0,1.635,Peridotite_rect,7,1.635,1,1,0,1,0,1,,,,,,,,,,,,,
5e3cddaa64dfd70d85a5ef3f,TCR,2024-06-11_13h19.21.982,LearnStrategy,2023.2.3,Win32,59.52380952,4,1,3,0.078703704,-0.014814836,1,0,0,1.2381,rock_grid_rect_2,4,14,-1,-1,1.238,0.313888974,-0.237037023,1,0,0,2.2716,Gabbro_rect,4,2.272,1,2,0,2,0,1,,,,,,,,,,,,,
5e3cddaa64dfd70d85a5ef3f,TCR,2024-06-11_13h19.21.982,LearnStrategy,2023.2.3,Win32,59.52380952,4,1,4,0.036111125,-0.009259259,1,0,0,1.0318,rock_grid_rect_2,6,06,-1,-1,1.032,-0.112037023,-0.39444443,1,0,0,4.5773,Pegmatite_rect,6,4.577,1,3,0,3,0,1,,,,,,,,,,,,,
5e3cddaa64dfd70d85a5ef3f,TCR,2024-06-11_13h19.21.982,LearnStrategy,2023.2.3,Win32,59.52380952,4,1,5,0.05277782,-0.015740748,1,0,0,0.9963,rock_grid_rect_2,1,09,-1,-1,0.996,-0.110185199,-0.243518547,1,0,0,1.9126,Basalt_rect,2,1.913,0,4,0,4,0,1,,,,,,,,,,,,,
5e3cddaa64dfd70d85a5ef3f,TCR,2024-06-11_13h19.21.982,LearnStrategy,2023.2.3,Win32,59.52380952,4,1,6,0.018518519,0.010185171,1,0,0,1.0658,rock_grid_rect_2,1,05,-1,-1,1.066,-0.125925912,-0.232407393,1,0,0,1.4116,Basalt_rect,2,1.412,0,5,0,5,0,1,,,,,,,,,,,,,
5e3cddaa64dfd70d85a5ef3f,TCR,2024-06-11_13h19.21.982,LearnStrategy,2023.2.3,Win32,59.52380952,4,1,7,-0.02407406,0.001851859,1,0,0,0.9987,rock_grid_rect_2,6,08,-1,-1,0.999,-0.311111097,-0.384259259,1,0,0,1.2979,Obsidian_rect,5,1.298,0,6,0,6,0,1,,,,,,,,,,,,,
5e3cddaa64dfd70d85a5ef3f,TCR,2024-06-11_13h19.21.982,LearnStrategy,2023.2.3,Win32,59.52380952,4,1,8,-0.018518519,-0.024074095,1,0,0,1.0649,rock_grid_rect_2,3,14,-1,-1,1.065,0.097222222,-0.408333319,1,0,0,3.8615,Peridotite_rect,7,3.861,0,7,0,7,0,1,,,,,,,,,,,,,
5e3cddaa64dfd70d85a5ef3f,TCR,2024-06-11_13h19.21.982,LearnStrategy,2023.2.3,Win32,59.52380952,4,1,9,0.033333319,-0.012962977,1,0,0,1.1145,rock_grid_rect_2,6,13,-1,-1,1.115,0.086111139,-0.258333347,1,0,0,1.4604,Diorite_rect,3,1.46,0,8,0,8,0,1,,,,,,,,,,,,,
5e3cddaa64dfd70d85a5ef3f,TCR,2024-06-11_13h19.21.982,LearnStrategy,2023.2.3,Win32,59.52380952,4,1,10,0.07685188,-0.012962977,1,0,0,1.1147,rock_grid_rect_2,7,05,-1,-1,1.115,0.138888889,-0.390740783,1,0,0,4.661,Peridotite_rect,7,4.661,1,9,0,9,0,1,,,,,,,,,,,,,
5e3cddaa64dfd70d85a5ef3f,TCR,2024-06-11_13h19.21.982,LearnStrategy,2023.2.3,Win32,59.52380952,4,1,11,0.049074102,-0.000925947,1,0,0,1.0473,rock_grid_rect_2,2,16,-1,-1,1.047,0.415740826,-0.265740783,1,0,0,2.0951,Gabbro_rect,4,2.095,0,10,0,10,0,1,,,,,,,,,,,,,
5e3cddaa64dfd70d85a5ef3f,TCR,2024-06-11_13h19.21.982,LearnStrategy,2023.2.3,Win32,59.52380952,4,1,12,0.025925954,0.008333312,1,0,0,0.9991,rock_grid_rect_2,2,06,-1,-1,0.999,-0.155555513,-0.253703718,1,0,0,1.8776,Basalt_rect,2,1.878,1,11,0,11,0,1,,,,,,,,,,,,,
5e3cddaa64dfd70d85a5ef3f,TCR,2024-06-11_13h19.21.982,LearnStrategy,2023.2.3,Win32,59.52380952,4,1,13,0.005555541,-0.024074095,1,0,0,1.083,rock_grid_rect_2,8,09,-1,-1,1.083,0.338888945,-0.385185171,1,0,0,2.0101,Pumice_rect,8,2.01,1,12,0,12,0,1,,,,,,,,,,,,,
5e3cddaa64dfd70d85a5ef3f,TCR,2024-06-11_13h19.21.982,LearnStrategy,2023.2.3,Win32,59.52380952,4,1,14,0.021296325,-0.001851859,1,0,0,1.0481,rock_grid_rect_2,1,16,-1,-1,1.048,0.140740783,-0.270370413,1,0,0,2.0789,Diorite_rect,3,2.079,0,13,0,13,0,1,,,,,,,,,,,,,
5e3cddaa64dfd70d85a5ef3f,TCR,2024-06-11_13h19.21.982,LearnStrategy,2023.2.3,Win32,59.52380952,4,1,15,0.002777806,-0.008333347,1,0,0,1.1313,rock_grid_rect_2,4,01,-1,-1,1.131,0.323148233,-0.262962977,1,0,0,3.0621,Gabbro_rect,4,3.062,1,14,0,14,0,1,,,,,,,,,,,,,
5e3cddaa64dfd70d85a5ef3f,TCR,2024-06-11_13h19.21.982,LearnStrategy,2023.2.3,Win32,59.52380952,4,1,16,0.048148191,-0.013888889,1,0,0,1.0963,rock_grid_rect_2,3,15,-1,-1,1.096,0.359259288,-0.236111111,1,0,0,3.7273,Gabbro_rect,4,3.727,0,15,0,15,0,1,,,,,,,,,,,,,
5e3cddaa64dfd70d85a5ef3f,TCR,2024-06-11_13h19.21.982,LearnStrategy,2023.2.3,Win32,59.52380952,4,2,1,,,,,,,,2,09,,,,,,,,,,,2,3.11,1,,,,,,-0.130555541,-0.238888917,1,0,0,3.1104,Basalt_rect,0,0,0,0,1,
5e3cddaa64dfd70d85a5ef3f,TCR,2024-06-11_13h19.21.982,LearnStrategy,2023.2.3,Win32,59.52380952,4,2,2,,,,,,,,5,14,,,,,,,,,,,5,1.297,1,,,,,,-0.335185192,-0.387962977,1,0,0,1.2973,Obsidian_rect,1,0,1,0,1,
5e3cddaa64dfd70d85a5ef3f,TCR,2024-06-11_13h19.21.982,LearnStrategy,2023.2.3,Win32,59.52380952,4,2,3,,,,,,,,4,10,,,,,,,,,,,1,2.077,0,,,,,,-0.329629616,-0.248148176,1,0,0,2.0771,Andesite_rect,2,0,2,0,1,
5e3cddaa64dfd70d85a5ef3f,TCR,2024-06-11_13h19.21.982,LearnStrategy,2023.2.3,Win32,59.52380952,4,2,4,,,,,,,,4,15,,,,,,,,,,,3,1.623,0,,,,,,0.092592593,-0.270370413,1,0,0,1.6226,Diorite_rect,3,0,3,0,1,
5e3cddaa64dfd70d85a5ef3f,TCR,2024-06-11_13h19.21.982,LearnStrategy,2023.2.3,Win32,59.52380952,4,2,5,,,,,,,,1,14,,,,,,,,,,,7,2.83,0,,,,,,0.074999986,-0.405555584,1,0,0,2.8299,Peridotite_rect,4,0,4,0,1,
5e3cddaa64dfd70d85a5ef3f,TCR,2024-06-11_13h19.21.982,LearnStrategy,2023.2.3,Win32,59.52380952,4,2,6,,,,,,,,3,11,,,,,,,,,,,3,1.694,1,,,,,,0.102777764,-0.237963005,1,0,0,1.6943,Diorite_rect,5,0,5,0,1,
5e3cddaa64dfd70d85a5ef3f,TCR,2024-06-11_13h19.21.982,LearnStrategy,2023.2.3,Win32,59.52380952,4,2,7,,,,,,,,6,09,,,,,,,,,,,6,2.659,1,,,,,,-0.064814815,-0.39907406,1,0,0,2.6594,Pegmatite_rect,6,0,6,0,1,
5e3cddaa64dfd70d85a5ef3f,TCR,2024-06-11_13h19.21.982,LearnStrategy,2023.2.3,Win32,59.52380952,4,2,8,,,,,,,,5,08,,,,,,,,,,,5,1.196,1,,,,,,-0.336111104,-0.408333319,1,0,0,1.1956,Obsidian_rect,7,0,7,0,1,
5e3cddaa64dfd70d85a5ef3f,TCR,2024-06-11_13h19.21.982,LearnStrategy,2023.2.3,Win32,59.52380952,4,2,9,,,,,,,,3,06,,,,,,,,,,,3,3.644,1,,,,,,0.119444459,-0.251851894,1,0,0,3.6442,Diorite_rect,8,0,8,0,1,
5e3cddaa64dfd70d85a5ef3f,TCR,2024-06-11_13h19.21.982,LearnStrategy,2023.2.3,Win32,59.52380952,4,2,10,,,,,,,,2,05,,,,,,,,,,,2,1.234,1,,,,,,-0.082407422,-0.257407436,1,0,0,1.2336,Basalt_rect,9,0,9,0,1,
5e3cddaa64dfd70d85a5ef3f,TCR,2024-06-11_13h19.21.982,LearnStrategy,2023.2.3,Win32,59.52380952,4,2,11,,,,,,,,6,12,,,,,,,,,,,3,2.261,0,,,,,,0.131481524,-0.25462963,1,0,0,2.2612,Diorite_rect,10,0,10,0,1,
5e3cddaa64dfd70d85a5ef3f,TCR,2024-06-11_13h19.21.982,LearnStrategy,2023.2.3,Win32,59.52380952,4,2,12,,,,,,,,1,04,,,,,,,,,,,1,1.863,1,,,,,,-0.334259245,-0.257407436,1,0,0,1.8627,Andesite_rect,11,0,11,0,1,
5e3cddaa64dfd70d85a5ef3f,TCR,2024-06-11_13h19.21.982,LearnStrategy,2023.2.3,Win32,59.52380952,4,2,13,,,,,,,,7,13,,,,,,,,,,,7,4.365,1,,,,,,0.169444473,-0.395370413,1,0,0,4.365,Peridotite_rect,12,0,12,0,1,
5e3cddaa64dfd70d85a5ef3f,TCR,2024-06-11_13h19.21.982,LearnStrategy,2023.2.3,Win32,59.52380952,4,2,14,,,,,,,,7,02,,,,,,,,,,,7,0.948,1,,,,,,0.169444473,-0.395370413,1,0,0,0.9484,Peridotite_rect,13,0,13,0,1,
5e3cddaa64dfd70d85a5ef3f,TCR,2024-06-11_13h19.21.982,LearnStrategy,2023.2.3,Win32,59.52380952,4,2,15,,,,,,,,8,03,,,,,,,,,,,8,2.427,1,,,,,,0.367592564,-0.391666695,1,0,0,2.4265,Pumice_rect,14,0,14,0,1,
5e3cddaa64dfd70d85a5ef3f,TCR,2024-06-11_13h19.21.982,LearnStrategy,2023.2.3,Win32,59.52380952,4,2,16,,,,,,,,8,16,,,,,,,,,,,8,1.11,1,,,,,,0.323148233,-0.393518519,1,0,0,1.1095,Pumice_rect,15,0,15,0,1,
5e3cddaa64dfd70d85a5ef3f,TCR,2024-06-11_13h19.21.982,LearnStrategy,2023.2.3,Win32,59.52380952,5,1,1,-0.02407406,0.000925912,1,0,0,8.1132,rock_grid_rect_2,3,16,-1,-1,8.113,0.116666653,-0.24537037,1,0,0,2.6287,Diorite_rect,3,2.629,1,0,0,0,0,1,,,,,,,,,,,,,
5e3cddaa64dfd70d85a5ef3f,TCR,2024-06-11_13h19.21.982,LearnStrategy,2023.2.3,Win32,59.52380952,5,1,2,0.093518504,-0.012962977,1,0,0,1.1641,rock_grid_rect_2,6,06,-1,-1,1.164,-0.090740698,-0.400925954,1,0,0,2.8949,Pegmatite_rect,6,2.895,1,1,0,1,0,1,,,,,,,,,,,,,
5e3cddaa64dfd70d85a5ef3f,TCR,2024-06-11_13h19.21.982,LearnStrategy,2023.2.3,Win32,59.52380952,5,1,3,0.056481467,0.008333312,1,0,0,1.2309,rock_grid_rect_2,2,01,-1,-1,1.231,-0.184259273,-0.25462963,1,0,0,3.8281,Basalt_rect,2,3.828,1,2,0,2,0,1,,,,,,,,,,,,,
5e3cddaa64dfd70d85a5ef3f,TCR,2024-06-11_13h19.21.982,LearnStrategy,2023.2.3,Win32,59.52380952,5,1,4,0.025925954,-0.014814836,1,0,0,1.1961,rock_grid_rect_2,4,13,-1,-1,1.196,0.313888974,-0.231481481,1,0,0,2.4119,Gabbro_rect,4,2.412,1,3,0,3,0,1,,,,,,,,,,,,,
5e3cddaa64dfd70d85a5ef3f,TCR,2024-06-11_13h19.21.982,LearnStrategy,2023.2.3,Win32,59.52380952,5,1,5,0.022222236,-0.003703718,1,0,0,0.997,rock_grid_rect_2,6,07,-1,-1,0.997,0.08148151,-0.395370413,1,0,0,3.0804,Peridotite_rect,7,3.08,0,4,0,4,0,1,,,,,,,,,,,,,
5e3cddaa64dfd70d85a5ef3f,TCR,2024-06-11_13h19.21.982,LearnStrategy,2023.2.3,Win32,59.52380952,5,1,6,0.025925954,-0.010185206,1,0,0,1.1963,rock_grid_rect_2,4,16,-1,-1,1.196,0.315740797,-0.243518547,1,0,0,1.7946,Gabbro_rect,4,1.795,1,5,0,5,0,1,,,,,,,,,,,,,
5e3cddaa64dfd70d85a5ef3f,TCR,2024-06-11_13h19.21.982,LearnStrategy,2023.2.3,Win32,59.52380952,5,1,7,0.053703732,-0.015740748,1,0,0,1.0484,rock_grid_rect_2,1,03,-1,-1,1.048,-0.125925912,-0.239814829,1,0,0,1.6788,Basalt_rect,2,1.679,0,6,0,6,0,1,,,,,,,,,,,,,
5e3cddaa64dfd70d85a5ef3f,TCR,2024-06-11_13h19.21.982,LearnStrategy,2023.2.3,Win32,59.52380952,5,1,8,0.10092594,0.021296289,1,0,0,1.0987,rock_grid_rect_2,2,01,-1,-1,1.099,-0.149999972,-0.247222265,1,0,0,1.3435,Basalt_rect,2,1.343,1,7,0,7,0,1,,,,,,,,,,,,,
5e3cddaa64dfd70d85a5ef3f,TCR,2024-06-11_13h19.21.982,LearnStrategy,2023.2.3,Win32,59.52380952,5,1,9,0.044444473,0.001851859,1,0,0,1.1319,rock_grid_rect_2,7,08,-1,-1,1.132,0.12962963,-0.408333319,1,0,0,2.045,Peridotite_rect,7,2.045,1,8,0,8,0,1,,,,,,,,,,,,,
5e3cddaa64dfd70d85a5ef3f,TCR,2024-06-11_13h19.21.982,LearnStrategy,2023.2.3,Win32,59.52380952,5,1,10,0.111111111,0.011111118,1,0,0,0.9661,rock_grid_rect_2,3,07,-1,-1,0.966,0.112037023,-0.243518547,1,0,0,1.2776,Diorite_rect,3,1.278,1,9,0,9,0,1,,,,,,,,,,,,,
5e3cddaa64dfd70d85a5ef3f,TCR,2024-06-11_13h19.21.982,LearnStrategy,2023.2.3,Win32,59.52380952,5,1,11,0.068518533,0,1,0,0,0.9314,rock_grid_rect_2,1,09,-1,-1,0.931,-0.371296282,-0.241666653,1,0,0,3.4296,Andesite_rect,1,3.43,1,10,0,10,0,1,,,,,,,,,,,,,
5e3cddaa64dfd70d85a5ef3f,TCR,2024-06-11_13h19.21.982,LearnStrategy,2023.2.3,Win32,59.52380952,5,1,12,0.035185213,-0.005555577,1,0,0,1.2298,rock_grid_rect_2,4,01,-1,-1,1.23,0.348148205,-0.252777806,1,0,0,1.3782,Gabbro_rect,4,1.378,1,11,0,11,0,1,,,,,,,,,,,,,
5e3cddaa64dfd70d85a5ef3f,TCR,2024-06-11_13h19.21.982,LearnStrategy,2023.2.3,Win32,59.52380952,5,1,13,0.030555584,-0.008333347,1,0,0,1.0977,rock_grid_rect_2,1,01,-1,-1,1.098,0.063888903,-0.252777806,1,0,0,2.1786,Diorite_rect,3,2.179,0,12,0,12,0,1,,,,,,,,,,,,,
5e3cddaa64dfd70d85a5ef3f,TCR,2024-06-11_13h19.21.982,LearnStrategy,2023.2.3,Win32,59.52380952,5,1,14,0.01944443,-0.017592607,1,0,0,1.048,rock_grid_rect_2,6,10,-1,-1,1.048,-0.124074088,-0.418518561,1,0,0,1.912,Pegmatite_rect,6,1.912,1,13,0,13,0,1,,,,,,,,,,,,,
5e3cddaa64dfd70d85a5ef3f,TCR,2024-06-11_13h19.21.982,LearnStrategy,2023.2.3,Win32,59.52380952,5,1,15,0.031481496,-0.001851859,1,0,0,1.0816,rock_grid_rect_2,8,14,-1,-1,1.082,0.335185157,-0.386111153,1,0,0,1.3314,Pumice_rect,8,1.331,1,14,0,14,0,1,,,,,,,,,,,,,
5e3cddaa64dfd70d85a5ef3f,TCR,2024-06-11_13h19.21.982,LearnStrategy,2023.2.3,Win32,59.52380952,5,1,16,-0.006481453,-0.006481489,1,0,0,0.9149,rock_grid_rect_2,7,10,-1,-1,0.915,0.362037094,-0.246296282,1,0,0,3.0116,Gabbro_rect,4,3.012,0,15,0,15,0,1,,,,,,,,,,,,,
5e3cddaa64dfd70d85a5ef3f,TCR,2024-06-11_13h19.21.982,LearnStrategy,2023.2.3,Win32,59.52380952,5,2,1,,,,,,,,5,04,,,,,,,,,,,5,1.326,1,,,,,,-0.321296303,-0.404629672,1,0,0,1.3263,Obsidian_rect,0,0,0,0,1,
5e3cddaa64dfd70d85a5ef3f,TCR,2024-06-11_13h19.21.982,LearnStrategy,2023.2.3,Win32,59.52380952,5,2,2,,,,,,,,3,13,,,,,,,,,,,3,1.777,1,,,,,,0.148148148,-0.256481524,1,0,0,1.7767,Diorite_rect,1,0,1,0,1,
5e3cddaa64dfd70d85a5ef3f,TCR,2024-06-11_13h19.21.982,LearnStrategy,2023.2.3,Win32,59.52380952,5,2,3,,,,,,,,2,04,,,,,,,,,,,2,4.323,1,,,,,,-0.235185199,-0.257407436,1,0,0,4.3234,Basalt_rect,2,0,2,0,1,
5e3cddaa64dfd70d85a5ef3f,TCR,2024-06-11_13h19.21.982,LearnStrategy,2023.2.3,Win32,59.52380952,5,2,4,,,,,,,,6,05,,,,,,,,,,,6,2.206,1,,,,,,-0.138888889,-0.388888889,1,0,0,2.2062,Pegmatite_rect,3,0,3,0,1,
5e3cddaa64dfd70d85a5ef3f,TCR,2024-06-11_13h19.21.982,LearnStrategy,2023.2.3,Win32,59.52380952,5,2,5,,,,,,,,8,13,,,,,,,,,,,8,1.378,1,,,,,,0.384259259,-0.406481496,1,0,0,1.3776,Pumice_rect,4,0,4,0,1,
5e3cddaa64dfd70d85a5ef3f,TCR,2024-06-11_13h19.21.982,LearnStrategy,2023.2.3,Win32,59.52380952,5,2,6,,,,,,,,1,07,,,,,,,,,,,1,1.644,1,,,,,,-0.404629637,-0.262962977,1,0,0,1.6438,Andesite_rect,5,0,5,0,1,
5e3cddaa64dfd70d85a5ef3f,TCR,2024-06-11_13h19.21.982,LearnStrategy,2023.2.3,Win32,59.52380952,5,2,7,,,,,,,,7,16,,,,,,,,,,,4,2.044,0,,,,,,0.335185157,-0.242592635,1,0,0,2.0442,Gabbro_rect,6,0,6,0,1,
5e3cddaa64dfd70d85a5ef3f,TCR,2024-06-11_13h19.21.982,LearnStrategy,2023.2.3,Win32,59.52380952,5,2,8,,,,,,,,4,11,,,,,,,,,,,2,3.04,0,,,,,,-0.130555541,-0.242592635,1,0,0,3.0405,Basalt_rect,7,0,7,0,1,
5e3cddaa64dfd70d85a5ef3f,TCR,2024-06-11_13h19.21.982,LearnStrategy,2023.2.3,Win32,59.52380952,5,2,9,,,,,,,,1,11,,,,,,,,,,,1,2.026,1,,,,,,-0.324999986,-0.239814829,1,0,0,2.0264,Andesite_rect,8,0,8,0,1,
5e3cddaa64dfd70d85a5ef3f,TCR,2024-06-11_13h19.21.982,LearnStrategy,2023.2.3,Win32,59.52380952,5,2,10,,,,,,,,3,12,,,,,,,,,,,3,1.255,1,,,,,,0.073148162,-0.252777806,1,0,0,1.2555,Diorite_rect,9,0,9,0,1,
5e3cddaa64dfd70d85a5ef3f,TCR,2024-06-11_13h19.21.982,LearnStrategy,2023.2.3,Win32,59.52380952,5,2,11,,,,,,,,7,15,,,,,,,,,,,6,2.693,0,,,,,,-0.079629616,-0.405555584,1,0,0,2.6934,Pegmatite_rect,10,0,10,0,1,
5e3cddaa64dfd70d85a5ef3f,TCR,2024-06-11_13h19.21.982,LearnStrategy,2023.2.3,Win32,59.52380952,5,2,12,,,,,,,,6,11,,,,,,,,,,,5,1.414,0,,,,,,-0.321296303,-0.407407407,1,0,0,1.4144,Obsidian_rect,11,0,11,0,1,
5e3cddaa64dfd70d85a5ef3f,TCR,2024-06-11_13h19.21.982,LearnStrategy,2023.2.3,Win32,59.52380952,5,2,13,,,,,,,,8,08,,,,,,,,,,,8,1.677,1,,,,,,0.32685188,-0.378703718,1,0,0,1.677,Pumice_rect,12,0,12,0,1,
5e3cddaa64dfd70d85a5ef3f,TCR,2024-06-11_13h19.21.982,LearnStrategy,2023.2.3,Win32,59.52380952,5,2,14,,,,,,,,2,14,,,,,,,,,,,8,1.494,0,,,,,,0.361111111,-0.39444443,1,0,0,1.4943,Pumice_rect,13,0,13,0,1,
5e3cddaa64dfd70d85a5ef3f,TCR,2024-06-11_13h19.21.982,LearnStrategy,2023.2.3,Win32,59.52380952,5,2,15,,,,,,,,5,09,,,,,,,,,,,5,1.193,1,,,,,,-0.336111104,-0.418518561,1,0,0,1.1934,Obsidian_rect,14,0,14,0,1,
5e3cddaa64dfd70d85a5ef3f,TCR,2024-06-11_13h19.21.982,LearnStrategy,2023.2.3,Win32,59.52380952,5,2,16,,,,,,,,4,12,,,,,,,,,,,2,4.077,0,,,,,,-0.14444443,-0.242592635,1,0,0,4.0771,Basalt_rect,15,0,15,0,1,
5e3cddaa64dfd70d85a5ef3f,TCR,2024-06-11_13h19.21.982,LearnStrategy,2023.2.3,Win32,59.52380952,6,1,1,0.060185185,-0.020370377,1,0,0,1.465,rock_grid_rect_2,7,14,-1,-1,1.465,0.376851824,-0.248148176,1,0,0,6.6614,Gabbro_rect,4,6.661,0,0,0,0,0,1,,,,,,,,,,,,,
5e3cddaa64dfd70d85a5ef3f,TCR,2024-06-11_13h19.21.982,LearnStrategy,2023.2.3,Win32,59.52380952,6,1,2,0.044444473,-0.002777771,1,0,0,1.182,rock_grid_rect_2,6,07,-1,-1,1.182,-0.126851824,-0.385185171,1,0,0,1.4109,Pegmatite_rect,6,1.411,1,1,0,1,0,1,,,,,,,,,,,,,
5e3cddaa64dfd70d85a5ef3f,TCR,2024-06-11_13h19.21.982,LearnStrategy,2023.2.3,Win32,59.52380952,6,1,3,0.08148151,-0.020370377,1,0,0,1.0812,rock_grid_rect_2,2,12,-1,-1,1.081,0.344444416,-0.420370384,1,0,0,2.8454,Pumice_rect,8,2.845,0,2,0,2,0,1,,,,,,,,,,,,,
5e3cddaa64dfd70d85a5ef3f,TCR,2024-06-11_13h19.21.982,LearnStrategy,2023.2.3,Win32,59.52380952,6,1,4,0.012037065,-0.002777771,1,0,0,0.9314,rock_grid_rect_2,1,09,-1,-1,0.931,-0.118518476,-0.250925912,1,0,0,1.145,Basalt_rect,2,1.145,0,3,0,3,0,1,,,,,,,,,,,,,
5e3cddaa64dfd70d85a5ef3f,TCR,2024-06-11_13h19.21.982,LearnStrategy,2023.2.3,Win32,59.52380952,6,1,5,0.02407406,-0.0074074,1,0,0,0.9147,rock_grid_rect_2,4,13,-1,-1,0.915,0.352777834,-0.231481481,1,0,0,1.295,Gabbro_rect,4,1.295,1,4,0,4,0,1,,,,,,,,,,,,,
5e3cddaa64dfd70d85a5ef3f,TCR,2024-06-11_13h19.21.982,LearnStrategy,2023.2.3,Win32,59.52380952,6,1,6,-0.013888889,0.000925912,1,0,0,0.9661,rock_grid_rect_2,8,02,-1,-1,0.966,0.337962963,-0.396296325,1,0,0,1.5615,Pumice_rect,8,1.562,1,5,0,5,0,1,,,,,,,,,,,,,
5e3cddaa64dfd70d85a5ef3f,TCR,2024-06-11_13h19.21.982,LearnStrategy,2023.2.3,Win32,59.52380952,6,1,7,0.047222208,-0.01203703,1,0,0,1.0992,rock_grid_rect_2,7,04,-1,-1,1.099,0.146296325,-0.23055557,1,0,0,2.7612,Diorite_rect,3,2.761,0,6,0,6,0,1,,,,,,,,,,,,,
5e3cddaa64dfd70d85a5ef3f,TCR,2024-06-11_13h19.21.982,LearnStrategy,2023.2.3,Win32,59.52380952,6,1,8,0.117592635,-0.001851859,1,0,0,0.9635,rock_grid_rect_2,4,14,-1,-1,0.964,0.338888945,-0.23055557,1,0,0,2.5607,Gabbro_rect,4,2.561,1,7,0,7,0,1,,,,,,,,,,,,,
5e3cddaa64dfd70d85a5ef3f,TCR,2024-06-11_13h19.21.982,LearnStrategy,2023.2.3,Win32,59.52380952,6,1,9,0.088888875,-0.0074074,1,0,0,1.0477,rock_grid_rect_2,4,16,-1,-1,1.048,0.323148233,-0.235185199,1,0,0,1.6533,Gabbro_rect,4,1.653,1,8,0,8,0,1,,,,,,,,,,,,,
5e3cddaa64dfd70d85a5ef3f,TCR,2024-06-11_13h19.21.982,LearnStrategy,2023.2.3,Win32,59.52380952,6,1,10,0.073148162,0.00462963,1,0,0,1.0138,rock_grid_rect_2,7,04,-1,-1,1.014,0.118518547,-0.390740783,1,0,0,2.204,Peridotite_rect,7,2.204,1,9,0,9,0,1,,,,,,,,,,,,,
5e3cddaa64dfd70d85a5ef3f,TCR,2024-06-11_13h19.21.982,LearnStrategy,2023.2.3,Win32,59.52380952,6,1,11,0.080555598,0.018518519,1,0,0,1.3055,rock_grid_rect_2,4,03,-1,-1,1.305,-0.14907406,-0.241666653,1,0,0,1.7376,Basalt_rect,2,1.738,0,10,0,10,0,1,,,,,,,,,,,,,
5e3cddaa64dfd70d85a5ef3f,TCR,2024-06-11_13h19.21.982,LearnStrategy,2023.2.3,Win32,59.52380952,6,1,12,0.044444473,0.001851859,1,0,0,0.9305,rock_grid_rect_2,2,12,-1,-1,0.93,-0.340740734,-0.236111111,1,0,0,7.1774,Andesite_rect,1,7.177,0,11,0,11,0,1,,,,,,,,,,,,,
5e3cddaa64dfd70d85a5ef3f,TCR,2024-06-11_13h19.21.982,LearnStrategy,2023.2.3,Win32,59.52380952,6,1,13,0.059259273,-0.01203703,1,0,0,1.031,rock_grid_rect_2,6,13,-1,-1,1.031,-0.069444444,-0.412962949,1,0,0,1.4273,Pegmatite_rect,6,1.427,1,12,0,12,0,1,,,,,,,,,,,,,
5e3cddaa64dfd70d85a5ef3f,TCR,2024-06-11_13h19.21.982,LearnStrategy,2023.2.3,Win32,59.52380952,6,1,14,0.107407393,0.010185171,1,0,0,1.3982,rock_grid_rect_2,3,15,-1,-1,1.398,0.125,-0.261111153,1,0,0,2.41,Diorite_rect,3,2.41,1,13,0,13,0,1,,,,,,,,,,,,,
5e3cddaa64dfd70d85a5ef3f,TCR,2024-06-11_13h19.21.982,LearnStrategy,2023.2.3,Win32,59.52380952,6,1,15,0.10092594,-0.010185206,1,0,0,1.0877,rock_grid_rect_2,6,13,-1,-1,1.088,-0.110185199,-0.416666667,1,0,0,1.9802,Pegmatite_rect,6,1.98,1,14,0,14,0,1,,,,,,,,,,,,,
5e3cddaa64dfd70d85a5ef3f,TCR,2024-06-11_13h19.21.982,LearnStrategy,2023.2.3,Win32,59.52380952,6,1,16,0.050000014,-0.01203703,1,0,0,1.0496,rock_grid_rect_2,5,10,-1,-1,1.05,-0.383333312,-0.395370413,1,0,0,2.1273,Obsidian_rect,5,2.127,1,15,0,15,0,1,,,,,,,,,,,,,
5e3cddaa64dfd70d85a5ef3f,TCR,2024-06-11_13h19.21.982,LearnStrategy,2023.2.3,Win32,59.52380952,6,2,1,,,,,,,,4,08,,,,,,,,,,,4,6.962,1,,,,,,0.37037037,-0.244444459,1,0,0,6.962,Gabbro_rect,0,0,0,0,1,
5e3cddaa64dfd70d85a5ef3f,TCR,2024-06-11_13h19.21.982,LearnStrategy,2023.2.3,Win32,59.52380952,6,2,2,,,,,,,,4,05,,,,,,,,,,,7,3.329,0,,,,,,0.126851894,-0.407407407,1,0,0,3.3292,Peridotite_rect,1,0,1,0,1,
5e3cddaa64dfd70d85a5ef3f,TCR,2024-06-11_13h19.21.982,LearnStrategy,2023.2.3,Win32,59.52380952,6,2,3,,,,,,,,5,16,,,,,,,,,,,5,1.419,1,,,,,,-0.390740748,-0.393518519,1,0,0,1.419,Obsidian_rect,2,0,2,0,1,
5e3cddaa64dfd70d85a5ef3f,TCR,2024-06-11_13h19.21.982,LearnStrategy,2023.2.3,Win32,59.52380952,6,2,4,,,,,,,,2,08,,,,,,,,,,,2,1.643,1,,,,,,-0.150925884,-0.248148176,1,0,0,1.6425,Basalt_rect,3,0,3,0,1,
5e3cddaa64dfd70d85a5ef3f,TCR,2024-06-11_13h19.21.982,LearnStrategy,2023.2.3,Win32,59.52380952,6,2,5,,,,,,,,8,06,,,,,,,,,,,8,1.511,1,,,,,,0.338888945,-0.391666695,1,0,0,1.5113,Pumice_rect,4,0,4,0,1,
5e3cddaa64dfd70d85a5ef3f,TCR,2024-06-11_13h19.21.982,LearnStrategy,2023.2.3,Win32,59.52380952,6,2,6,,,,,,,,5,11,,,,,,,,,,,5,2.345,1,,,,,,-0.327777757,-0.395370413,1,0,0,2.3447,Obsidian_rect,5,0,5,0,1,
5e3cddaa64dfd70d85a5ef3f,TCR,2024-06-11_13h19.21.982,LearnStrategy,2023.2.3,Win32,59.52380952,6,2,7,,,,,,,,6,15,,,,,,,,,,,6,1.823,1,,,,,,-0.121296282,-0.40370369,1,0,0,1.823,Pegmatite_rect,6,0,6,0,1,
5e3cddaa64dfd70d85a5ef3f,TCR,2024-06-11_13h19.21.982,LearnStrategy,2023.2.3,Win32,59.52380952,6,2,8,,,,,,,,7,07,,,,,,,,,,,7,2.595,1,,,,,,0.116666653,-0.381481524,1,0,0,2.5953,Peridotite_rect,7,0,7,0,1,
5e3cddaa64dfd70d85a5ef3f,TCR,2024-06-11_13h19.21.982,LearnStrategy,2023.2.3,Win32,59.52380952,6,2,9,,,,,,,,8,15,,,,,,,,,,,8,1.539,1,,,,,,0.328703704,-0.392592607,1,0,0,1.5393,Pumice_rect,8,0,8,0,1,
5e3cddaa64dfd70d85a5ef3f,TCR,2024-06-11_13h19.21.982,LearnStrategy,2023.2.3,Win32,59.52380952,6,2,10,,,,,,,,3,08,,,,,,,,,,,3,1.394,1,,,,,,0.140740783,-0.257407436,1,0,0,1.3937,Diorite_rect,9,0,9,0,1,
5e3cddaa64dfd70d85a5ef3f,TCR,2024-06-11_13h19.21.982,LearnStrategy,2023.2.3,Win32,59.52380952,6,2,11,,,,,,,,1,10,,,,,,,,,,,4,3.029,0,,,,,,0.366666723,-0.243518547,1,0,0,3.0294,Gabbro_rect,10,0,10,0,1,
5e3cddaa64dfd70d85a5ef3f,TCR,2024-06-11_13h19.21.982,LearnStrategy,2023.2.3,Win32,59.52380952,6,2,12,,,,,,,,7,06,,,,,,,,,,,7,4.489,1,,,,,,0.121296282,-0.393518519,1,0,0,4.4892,Peridotite_rect,11,0,11,0,1,
5e3cddaa64dfd70d85a5ef3f,TCR,2024-06-11_13h19.21.982,LearnStrategy,2023.2.3,Win32,59.52380952,6,2,13,,,,,,,,3,09,,,,,,,,,,,3,1.354,1,,,,,,0.109259288,-0.268518519,1,0,0,1.3542,Diorite_rect,12,0,12,0,1,
5e3cddaa64dfd70d85a5ef3f,TCR,2024-06-11_13h19.21.982,LearnStrategy,2023.2.3,Win32,59.52380952,6,2,14,,,,,,,,1,02,,,,,,,,,,,3,0.995,0,,,,,,0.109259288,-0.268518519,1,0,0,0.9951,Diorite_rect,13,0,13,0,1,
5e3cddaa64dfd70d85a5ef3f,TCR,2024-06-11_13h19.21.982,LearnStrategy,2023.2.3,Win32,59.52380952,6,2,15,,,,,,,,2,10,,,,,,,,,,,2,3.011,1,,,,,,-0.155555513,-0.263888889,1,0,0,3.011,Basalt_rect,14,0,14,0,1,
5e3cddaa64dfd70d85a5ef3f,TCR,2024-06-11_13h19.21.982,LearnStrategy,2023.2.3,Win32,59.52380952,6,2,16,,,,,,,,6,03,,,,,,,,,,,6,1.389,1,,,,,,-0.116666653,-0.402777778,1,0,0,1.3887,Pegmatite_rect,15,0,15,0,1,
5e3cddaa64dfd70d85a5ef3f,TCR,2024-06-11_13h19.21.982,LearnStrategy,2023.2.3,Win32,59.52380952,7,1,1,-0.015740712,0.00462963,1,0,0,1.5479,rock_grid_rect_2,7,08,-1,-1,1.548,0.353703675,-0.25,1,0,0,2.1944,Gabbro_rect,4,2.194,0,0,0,0,0,1,,,,,,,,,,,,,
5e3cddaa64dfd70d85a5ef3f,TCR,2024-06-11_13h19.21.982,LearnStrategy,2023.2.3,Win32,59.52380952,7,1,2,0.037962949,0.01203703,1,0,0,1.4795,rock_grid_rect_2,4,14,-1,-1,1.48,0.382407436,-0.234259288,1,0,0,1.3448,Gabbro_rect,4,1.345,1,1,0,1,0,1,,,,,,,,,,,,,
5e3cddaa64dfd70d85a5ef3f,TCR,2024-06-11_13h19.21.982,LearnStrategy,2023.2.3,Win32,59.52380952,7,1,3,0.090740769,-0.013888889,1,0,0,1.1976,rock_grid_rect_2,7,04,-1,-1,1.198,0.127777806,-0.264814801,1,0,0,2.1446,Diorite_rect,3,2.145,0,2,0,2,0,1,,,,,,,,,,,,,
5e3cddaa64dfd70d85a5ef3f,TCR,2024-06-11_13h19.21.982,LearnStrategy,2023.2.3,Win32,59.52380952,7,1,4,0.016666695,0.005555541,1,0,0,1.1475,rock_grid_rect_2,6,13,-1,-1,1.147,-0.073148162,-0.382407436,1,0,0,2.0446,Pegmatite_rect,6,2.045,1,3,0,3,0,1,,,,,,,,,,,,,
5e3cddaa64dfd70d85a5ef3f,TCR,2024-06-11_13h19.21.982,LearnStrategy,2023.2.3,Win32,59.52380952,7,1,5,0.039814843,0.000925912,1,0,0,0.948,rock_grid_rect_2,7,12,-1,-1,0.948,0.317592621,-0.235185199,1,0,0,2.2622,Gabbro_rect,4,2.262,0,4,0,4,0,1,,,,,,,,,,,,,
5e3cddaa64dfd70d85a5ef3f,TCR,2024-06-11_13h19.21.982,LearnStrategy,2023.2.3,Win32,59.52380952,7,1,6,0.082407422,-0.003703718,1,0,0,1.1642,rock_grid_rect_2,2,06,-1,-1,1.164,-0.152777778,-0.262962977,1,0,0,1.6112,Basalt_rect,2,1.611,1,5,0,5,0,1,,,,,,,,,,,,,
5e3cddaa64dfd70d85a5ef3f,TCR,2024-06-11_13h19.21.982,LearnStrategy,2023.2.3,Win32,59.52380952,7,1,7,0.074074074,0.003703683,1,0,0,1.0648,rock_grid_rect_2,5,07,-1,-1,1.065,-0.312037044,-0.392592607,1,0,0,1.277,Obsidian_rect,5,1.277,1,6,0,6,0,1,,,,,,,,,,,,,
5e3cddaa64dfd70d85a5ef3f,TCR,2024-06-11_13h19.21.982,LearnStrategy,2023.2.3,Win32,59.52380952,7,1,8,0.048148191,-0.003703718,1,0,0,1.0634,rock_grid_rect_2,4,03,-1,-1,1.063,-0.366666653,-0.238888917,1,0,0,1.8788,Andesite_rect,1,1.879,0,7,0,7,0,1,,,,,,,,,,,,,
5e3cddaa64dfd70d85a5ef3f,TCR,2024-06-11_13h19.21.982,LearnStrategy,2023.2.3,Win32,59.52380952,7,1,9,0.049074102,-0.006481489,1,0,0,0.9659,rock_grid_rect_2,8,02,-1,-1,0.966,0.378703788,-0.385185171,1,0,0,1.9609,Pumice_rect,8,1.961,1,8,0,8,0,1,,,,,,,,,,,,,
5e3cddaa64dfd70d85a5ef3f,TCR,2024-06-11_13h19.21.982,LearnStrategy,2023.2.3,Win32,59.52380952,7,1,10,-0.005555541,-0.009259259,1,0,0,0.8989,rock_grid_rect_2,2,16,-1,-1,0.899,0.362037094,-0.247222265,1,0,0,1.2107,Gabbro_rect,4,1.211,0,9,0,9,0,1,,,,,,,,,,,,,
5e3cddaa64dfd70d85a5ef3f,TCR,2024-06-11_13h19.21.982,LearnStrategy,2023.2.3,Win32,59.52380952,7,1,11,0.031481496,-0.023148148,1,0,0,0.9828,rock_grid_rect_2,4,16,-1,-1,0.983,0.357407464,-0.231481481,1,0,0,2.0118,Gabbro_rect,4,2.012,1,10,0,10,0,1,,,,,,,,,,,,,
5e3cddaa64dfd70d85a5ef3f,TCR,2024-06-11_13h19.21.982,LearnStrategy,2023.2.3,Win32,59.52380952,7,1,12,0.025925954,-0.0074074,1,0,0,1.298,rock_grid_rect_2,1,05,-1,-1,1.298,-0.330555563,-0.238888917,1,0,0,2.4778,Andesite_rect,1,2.478,1,11,0,11,0,1,,,,,,,,,,,,,
5e3cddaa64dfd70d85a5ef3f,TCR,2024-06-11_13h19.21.982,LearnStrategy,2023.2.3,Win32,59.52380952,7,1,13,-0.017592607,-0.023148148,1,0,0,0.9804,rock_grid_rect_2,4,03,-1,-1,0.98,0.354629658,-0.237037023,1,0,0,2.6122,Gabbro_rect,4,2.612,1,12,0,12,0,1,,,,,,,,,,,,,
5e3cddaa64dfd70d85a5ef3f,TCR,2024-06-11_13h19.21.982,LearnStrategy,2023.2.3,Win32,59.52380952,7,1,14,0.02870369,0.006481489,1,0,0,1.0305,rock_grid_rect_2,6,10,-1,-1,1.031,-0.099074046,-0.378703718,1,0,0,1.4457,Pegmatite_rect,6,1.446,1,13,0,13,0,1,,,,,,,,,,,,,
5e3cddaa64dfd70d85a5ef3f,TCR,2024-06-11_13h19.21.982,LearnStrategy,2023.2.3,Win32,59.52380952,7,1,15,0.041666667,0,1,0,0,0.8983,rock_grid_rect_2,3,14,-1,-1,0.898,0.080555598,-0.246296282,1,0,0,1.3615,Diorite_rect,3,1.362,1,14,0,14,0,1,,,,,,,,,,,,,
5e3cddaa64dfd70d85a5ef3f,TCR,2024-06-11_13h19.21.982,LearnStrategy,2023.2.3,Win32,59.52380952,7,1,16,0.01944443,-0.005555577,1,0,0,0.9992,rock_grid_rect_2,1,01,-1,-1,0.999,0.078703704,-0.244444459,1,0,0,1.9779,Diorite_rect,3,1.978,0,15,0,15,0,1,,,,,,,,,,,,,
5e3cddaa64dfd70d85a5ef3f,TCR,2024-06-11_13h19.21.982,LearnStrategy,2023.2.3,Win32,59.52380952,7,2,1,,,,,,,,3,11,,,,,,,,,,,3,2.461,1,,,,,,0.095370399,-0.253703718,1,0,0,2.4605,Diorite_rect,0,0,0,0,1,
5e3cddaa64dfd70d85a5ef3f,TCR,2024-06-11_13h19.21.982,LearnStrategy,2023.2.3,Win32,59.52380952,7,2,2,,,,,,,,4,08,,,,,,,,,,,4,2.26,1,,,,,,0.346296381,-0.261111153,1,0,0,2.2603,Gabbro_rect,1,0,1,0,1,
5e3cddaa64dfd70d85a5ef3f,TCR,2024-06-11_13h19.21.982,LearnStrategy,2023.2.3,Win32,59.52380952,7,2,3,,,,,,,,6,05,,,,,,,,,,,6,4.006,1,,,,,,-0.089814787,-0.421296296,1,0,0,4.0062,Pegmatite_rect,2,0,2,0,1,
5e3cddaa64dfd70d85a5ef3f,TCR,2024-06-11_13h19.21.982,LearnStrategy,2023.2.3,Win32,59.52380952,7,2,4,,,,,,,,6,12,,,,,,,,,,,3,2.081,0,,,,,,0.112963005,-0.243518547,1,0,0,2.0813,Diorite_rect,3,0,3,0,1,
5e3cddaa64dfd70d85a5ef3f,TCR,2024-06-11_13h19.21.982,LearnStrategy,2023.2.3,Win32,59.52380952,7,2,5,,,,,,,,8,15,,,,,,,,,,,8,1.338,1,,,,,,0.342592593,-0.400000042,1,0,0,1.3377,Pumice_rect,4,0,4,0,1,
5e3cddaa64dfd70d85a5ef3f,TCR,2024-06-11_13h19.21.982,LearnStrategy,2023.2.3,Win32,59.52380952,7,2,6,,,,,,,,5,09,,,,,,,,,,,5,1.427,1,,,,,,-0.375,-0.404629672,1,0,0,1.4265,Obsidian_rect,5,0,5,0,1,
5e3cddaa64dfd70d85a5ef3f,TCR,2024-06-11_13h19.21.982,LearnStrategy,2023.2.3,Win32,59.52380952,7,2,7,,,,,,,,1,11,,,,,,,,,,,1,1.812,1,,,,,,-0.332407386,-0.265740783,1,0,0,1.8119,Andesite_rect,6,0,6,0,1,
5e3cddaa64dfd70d85a5ef3f,TCR,2024-06-11_13h19.21.982,LearnStrategy,2023.2.3,Win32,59.52380952,7,2,8,,,,,,,,2,05,,,,,,,,,,,2,1.844,1,,,,,,-0.125,-0.243518547,1,0,0,1.8443,Basalt_rect,7,0,7,0,1,
5e3cddaa64dfd70d85a5ef3f,TCR,2024-06-11_13h19.21.982,LearnStrategy,2023.2.3,Win32,59.52380952,7,2,9,,,,,,,,1,14,,,,,,,,,,,7,2.024,0,,,,,,0.14907406,-0.398148148,1,0,0,2.0238,Peridotite_rect,8,0,8,0,1,
5e3cddaa64dfd70d85a5ef3f,TCR,2024-06-11_13h19.21.982,LearnStrategy,2023.2.3,Win32,59.52380952,7,2,10,,,,,,,,4,15,,,,,,,,,,,3,1.439,0,,,,,,0.147222236,-0.268518519,1,0,0,1.4388,Diorite_rect,9,0,9,0,1,
5e3cddaa64dfd70d85a5ef3f,TCR,2024-06-11_13h19.21.982,LearnStrategy,2023.2.3,Win32,59.52380952,7,2,11,,,,,,,,7,07,,,,,,,,,,,7,1.581,1,,,,,,0.12962963,-0.386111153,1,0,0,1.5809,Peridotite_rect,10,0,10,0,1,
5e3cddaa64dfd70d85a5ef3f,TCR,2024-06-11_13h19.21.982,LearnStrategy,2023.2.3,Win32,59.52380952,7,2,12,,,,,,,,5,16,,,,,,,,,,,5,1.387,1,,,,,,-0.313888868,-0.37962963,1,0,0,1.387,Obsidian_rect,11,0,11,0,1,
5e3cddaa64dfd70d85a5ef3f,TCR,2024-06-11_13h19.21.982,LearnStrategy,2023.2.3,Win32,59.52380952,7,2,13,,,,,,,,7,16,,,,,,,,,,,4,1.737,0,,,,,,0.383333418,-0.270370413,1,0,0,1.7365,Gabbro_rect,12,0,12,0,1,
5e3cddaa64dfd70d85a5ef3f,TCR,2024-06-11_13h19.21.982,LearnStrategy,2023.2.3,Win32,59.52380952,7,2,14,,,,,,,,3,13,,,,,,,,,,,3,1.202,1,,,,,,0.155555584,-0.270370413,1,0,0,1.2022,Diorite_rect,13,0,13,0,1,
5e3cddaa64dfd70d85a5ef3f,TCR,2024-06-11_13h19.21.982,LearnStrategy,2023.2.3,Win32,59.52380952,7,2,15,,,,,,,,8,16,,,,,,,,,,,8,1.352,1,,,,,,0.341666751,-0.37962963,1,0,0,1.352,Pumice_rect,14,0,14,0,1,
5e3cddaa64dfd70d85a5ef3f,TCR,2024-06-11_13h19.21.982,LearnStrategy,2023.2.3,Win32,59.52380952,7,2,16,,,,,,,,2,08,,,,,,,,,,,2,1.877,1,,,,,,-0.164814772,-0.252777806,1,0,0,1.8772,Basalt_rect,15,0,15,0,1,
5e3cddaa64dfd70d85a5ef3f,TCR,2024-06-11_13h19.21.982,LearnStrategy,2023.2.3,Win32,59.52380952,8,1,1,-0.042592578,0.009259259,1,0,0,1.3161,rock_grid_rect_2,3,02,-1,-1,1.316,0.08148151,-0.234259288,1,0,0,1.3612,Diorite_rect,3,1.361,1,0,0,0,0,1,,,,,,,,,,,,,
5e3cddaa64dfd70d85a5ef3f,TCR,2024-06-11_13h19.21.982,LearnStrategy,2023.2.3,Win32,59.52380952,8,1,2,0.062962991,-0.00462963,1,0,0,1.0821,rock_grid_rect_2,7,05,-1,-1,1.082,-0.077777792,-0.384259259,1,0,0,4.1955,Pegmatite_rect,6,4.196,0,1,0,1,0,1,,,,,,,,,,,,,
5e3cddaa64dfd70d85a5ef3f,TCR,2024-06-11_13h19.21.982,LearnStrategy,2023.2.3,Win32,59.52380952,8,1,3,0.022222236,-0.01203703,1,0,0,1.1651,rock_grid_rect_2,6,13,-1,-1,1.165,0.102777764,-0.264814801,1,0,0,2.0538,Diorite_rect,3,2.054,0,2,0,2,0,1,,,,,,,,,,,,,
5e3cddaa64dfd70d85a5ef3f,TCR,2024-06-11_13h19.21.982,LearnStrategy,2023.2.3,Win32,59.52380952,8,1,4,0.068518533,-0.009259259,1,0,0,1.0646,rock_grid_rect_2,4,14,-1,-1,1.065,0.395370342,-0.249074088,1,0,0,1.1952,Gabbro_rect,4,1.195,1,3,0,3,0,1,,,,,,,,,,,,,
5e3cddaa64dfd70d85a5ef3f,TCR,2024-06-11_13h19.21.982,LearnStrategy,2023.2.3,Win32,59.52380952,8,1,5,0.023148148,-0.015740748,1,0,0,1.1657,rock_grid_rect_2,1,06,-1,-1,1.166,-0.317592586,-0.228703746,1,0,0,1.6787,Andesite_rect,1,1.679,1,4,0,4,0,1,,,,,,,,,,,,,
5e3cddaa64dfd70d85a5ef3f,TCR,2024-06-11_13h19.21.982,LearnStrategy,2023.2.3,Win32,59.52380952,8,1,6,0.025925954,-0.001851859,1,0,0,0.965,rock_grid_rect_2,8,09,-1,-1,0.965,0.320370427,-0.381481524,1,0,0,1.3618,Pumice_rect,8,1.362,1,5,0,5,0,1,,,,,,,,,,,,,
5e3cddaa64dfd70d85a5ef3f,TCR,2024-06-11_13h19.21.982,LearnStrategy,2023.2.3,Win32,59.52380952,8,1,7,-0.04351849,0.01944443,1,0,0,0.8823,rock_grid_rect_2,6,08,-1,-1,0.882,-0.123148106,-0.415740755,1,0,0,1.7608,Pegmatite_rect,6,1.761,1,6,0,6,0,1,,,,,,,,,,,,,
5e3cddaa64dfd70d85a5ef3f,TCR,2024-06-11_13h19.21.982,LearnStrategy,2023.2.3,Win32,59.52380952,8,1,8,0.09629631,-0.017592607,1,0,0,0.9483,rock_grid_rect_2,4,16,-1,-1,0.948,0.343518575,-0.234259288,1,0,0,1.2443,Gabbro_rect,4,1.244,1,7,0,7,0,1,,,,,,,,,,,,,
5e3cddaa64dfd70d85a5ef3f,TCR,2024-06-11_13h19.21.982,LearnStrategy,2023.2.3,Win32,59.52380952,8,1,9,0.083333333,0.01944443,1,0,0,1.032,rock_grid_rect_2,7,12,-1,-1,1.032,0.348148205,-0.241666653,1,0,0,1.2945,Gabbro_rect,4,1.294,0,8,0,8,0,1,,,,,,,,,,,,,
5e3cddaa64dfd70d85a5ef3f,TCR,2024-06-11_13h19.21.982,LearnStrategy,2023.2.3,Win32,59.52380952,8,1,10,0.092592593,-0.002777771,1,0,0,1.0818,rock_grid_rect_2,6,07,-1,-1,1.082,-0.106481481,-0.404629672,1,0,0,1.9952,Pegmatite_rect,6,1.995,1,9,0,9,0,1,,,,,,,,,,,,,
5e3cddaa64dfd70d85a5ef3f,TCR,2024-06-11_13h19.21.982,LearnStrategy,2023.2.3,Win32,59.52380952,8,1,11,0.060185185,-0.0074074,1,0,0,0.9989,rock_grid_rect_2,4,09,-1,-1,0.999,-0.113888847,-0.250925912,1,0,0,3.3614,Basalt_rect,2,3.361,0,10,0,10,0,1,,,,,,,,,,,,,
5e3cddaa64dfd70d85a5ef3f,TCR,2024-06-11_13h19.21.982,LearnStrategy,2023.2.3,Win32,59.52380952,8,1,12,0.013888889,0.01666666,1,0,0,0.9473,rock_grid_rect_2,2,06,-1,-1,0.947,-0.146296254,-0.231481481,1,0,0,1.1136,Basalt_rect,2,1.114,1,11,0,11,0,1,,,,,,,,,,,,,
5e3cddaa64dfd70d85a5ef3f,TCR,2024-06-11_13h19.21.982,LearnStrategy,2023.2.3,Win32,59.52380952,8,1,13,0.016666695,-0.009259259,1,0,0,0.8987,rock_grid_rect_2,1,16,-1,-1,0.899,0.093518504,-0.421296296,1,0,0,3.8448,Peridotite_rect,7,3.845,0,12,0,12,0,1,,,,,,,,,,,,,
5e3cddaa64dfd70d85a5ef3f,TCR,2024-06-11_13h19.21.982,LearnStrategy,2023.2.3,Win32,59.52380952,8,1,14,0.075925968,-0.014814836,1,0,0,0.98,rock_grid_rect_2,7,14,-1,-1,0.98,0.327777863,-0.248148176,1,0,0,1.6116,Gabbro_rect,4,1.612,0,13,0,13,0,1,,,,,,,,,,,,,
5e3cddaa64dfd70d85a5ef3f,TCR,2024-06-11_13h19.21.982,LearnStrategy,2023.2.3,Win32,59.52380952,8,1,15,0.09629631,-0.015740748,1,0,0,1.0998,rock_grid_rect_2,4,01,-1,-1,1.1,0.37037037,-0.251851894,1,0,0,1.5441,Gabbro_rect,4,1.544,1,14,0,14,0,1,,,,,,,,,,,,,
5e3cddaa64dfd70d85a5ef3f,TCR,2024-06-11_13h19.21.982,LearnStrategy,2023.2.3,Win32,59.52380952,8,1,16,0.062037079,-0.005555577,1,0,0,1.2661,rock_grid_rect_2,5,06,-1,-1,1.266,-0.364814794,-0.411111125,1,0,0,1.3107,Obsidian_rect,5,1.311,1,15,0,15,0,1,,,,,,,,,,,,,
5e3cddaa64dfd70d85a5ef3f,TCR,2024-06-11_13h19.21.982,LearnStrategy,2023.2.3,Win32,59.52380952,8,2,1,,,,,,,,4,05,,,,,,,,,,,7,3.71,0,,,,,,0.109259288,-0.416666667,1,0,0,3.7104,Peridotite_rect,0,0,0,0,1,
5e3cddaa64dfd70d85a5ef3f,TCR,2024-06-11_13h19.21.982,LearnStrategy,2023.2.3,Win32,59.52380952,8,2,2,,,,,,,,7,15,,,,,,,,,,,7,1.955,1,,,,,,0.106481481,-0.411111125,1,0,0,1.9552,Peridotite_rect,1,0,1,0,1,
5e3cddaa64dfd70d85a5ef3f,TCR,2024-06-11_13h19.21.982,LearnStrategy,2023.2.3,Win32,59.52380952,8,2,3,,,,,,,,3,06,,,,,,,,,,,3,4.377,1,,,,,,0.118518547,-0.264814801,1,0,0,4.3765,Diorite_rect,2,0,2,0,1,
5e3cddaa64dfd70d85a5ef3f,TCR,2024-06-11_13h19.21.982,LearnStrategy,2023.2.3,Win32,59.52380952,8,2,4,,,,,,,,5,11,,,,,,,,,,,5,1.604,1,,,,,,-0.339814822,-0.397222236,1,0,0,1.6045,Obsidian_rect,3,0,3,0,1,
5e3cddaa64dfd70d85a5ef3f,TCR,2024-06-11_13h19.21.982,LearnStrategy,2023.2.3,Win32,59.52380952,8,2,5,,,,,,,,1,07,,,,,,,,,,,1,1.361,1,,,,,,-0.330555563,-0.241666653,1,0,0,1.3607,Andesite_rect,4,0,4,0,1,
5e3cddaa64dfd70d85a5ef3f,TCR,2024-06-11_13h19.21.982,LearnStrategy,2023.2.3,Win32,59.52380952,8,2,6,,,,,,,,8,13,,,,,,,,,,,8,1.358,1,,,,,,0.382407436,-0.411111125,1,0,0,1.3579,Pumice_rect,5,0,5,0,1,
5e3cddaa64dfd70d85a5ef3f,TCR,2024-06-11_13h19.21.982,LearnStrategy,2023.2.3,Win32,59.52380952,8,2,7,,,,,,,,2,14,,,,,,,,,,,8,4.144,0,,,,,,0.373148176,-0.410185213,1,0,0,4.1437,Pumice_rect,6,0,6,0,1,
5e3cddaa64dfd70d85a5ef3f,TCR,2024-06-11_13h19.21.982,LearnStrategy,2023.2.3,Win32,59.52380952,8,2,8,,,,,,,,3,08,,,,,,,,,,,3,1.39,1,,,,,,0.139814801,-0.266666695,1,0,0,1.3902,Diorite_rect,7,0,7,0,1,
5e3cddaa64dfd70d85a5ef3f,TCR,2024-06-11_13h19.21.982,LearnStrategy,2023.2.3,Win32,59.52380952,8,2,9,,,,,,,,6,15,,,,,,,,,,,6,1.311,1,,,,,,-0.113888847,-0.405555584,1,0,0,1.3109,Pegmatite_rect,8,0,8,0,1,
5e3cddaa64dfd70d85a5ef3f,TCR,2024-06-11_13h19.21.982,LearnStrategy,2023.2.3,Win32,59.52380952,8,2,10,,,,,,,,2,09,,,,,,,,,,,2,1.636,1,,,,,,-0.154629601,-0.265740783,1,0,0,1.6361,Basalt_rect,9,0,9,0,1,
5e3cddaa64dfd70d85a5ef3f,TCR,2024-06-11_13h19.21.982,LearnStrategy,2023.2.3,Win32,59.52380952,8,2,11,,,,,,,,1,04,,,,,,,,,,,1,1.235,1,,,,,,-0.342592593,-0.241666653,1,0,0,1.2345,Andesite_rect,10,0,10,0,1,
5e3cddaa64dfd70d85a5ef3f,TCR,2024-06-11_13h19.21.982,LearnStrategy,2023.2.3,Win32,59.52380952,8,2,12,,,,,,,,5,14,,,,,,,,,,,5,1.332,1,,,,,,-0.365740741,-0.386111153,1,0,0,1.3325,Obsidian_rect,11,0,11,0,1,
5e3cddaa64dfd70d85a5ef3f,TCR,2024-06-11_13h19.21.982,LearnStrategy,2023.2.3,Win32,59.52380952,8,2,13,,,,,,,,8,08,,,,,,,,,,,8,1.503,1,,,,,,0.352777834,-0.378703718,1,0,0,1.5027,Pumice_rect,12,0,12,0,1,
5e3cddaa64dfd70d85a5ef3f,TCR,2024-06-11_13h19.21.982,LearnStrategy,2023.2.3,Win32,59.52380952,8,2,14,,,,,,,,6,09,,,,,,,,,,,6,1.352,1,,,,,,-0.10555557,-0.404629672,1,0,0,1.3521,Pegmatite_rect,13,0,13,0,1,
5e3cddaa64dfd70d85a5ef3f,TCR,2024-06-11_13h19.21.982,LearnStrategy,2023.2.3,Win32,59.52380952,8,2,15,,,,,,,,4,12,,,,,,,,,,,4,7.493,1,,,,,,0.362037094,-0.236111111,1,0,0,7.4934,Gabbro_rect,14,0,14,0,1,
5e3cddaa64dfd70d85a5ef3f,TCR,2024-06-11_13h19.21.982,LearnStrategy,2023.2.3,Win32,59.52380952,8,2,16,,,,,,,,7,02,,,,,,,,,,,7,4.205,1,,,,,,0.092592593,-0.384259259,1,0,0,4.2049,Peridotite_rect,15,0,15,0,1,
5e3cddaa64dfd70d85a5ef3f,TCR,2024-06-11_13h19.21.982,LearnStrategy,2023.2.3,Win32,59.52380952,9,1,1,-0.001851824,0.003703683,1,0,0,1.114,rock_grid_rect_2,7,05,-1,-1,1.114,0.116666653,-0.401851866,1,0,0,5.3116,Peridotite_rect,7,5.312,1,0,0,0,0,1,,,,,,,,,,,,,
5e3cddaa64dfd70d85a5ef3f,TCR,2024-06-11_13h19.21.982,LearnStrategy,2023.2.3,Win32,59.52380952,9,1,2,0.069444444,-0.000925947,1,0,0,1.2132,rock_grid_rect_2,6,06,-1,-1,1.213,-0.125,-0.378703718,1,0,0,1.462,Pegmatite_rect,6,1.462,1,1,0,1,0,1,,,,,,,,,,,,,
5e3cddaa64dfd70d85a5ef3f,TCR,2024-06-11_13h19.21.982,LearnStrategy,2023.2.3,Win32,59.52380952,9,1,3,0.029629672,0.005555541,1,0,0,0.9327,rock_grid_rect_2,4,09,-1,-1,0.933,0.324074074,-0.237963005,1,0,0,4.4952,Gabbro_rect,4,4.495,1,2,0,2,0,1,,,,,,,,,,,,,
5e3cddaa64dfd70d85a5ef3f,TCR,2024-06-11_13h19.21.982,LearnStrategy,2023.2.3,Win32,59.52380952,9,1,4,0.05740745,-0.015740748,1,0,0,1.033,rock_grid_rect_2,1,01,-1,-1,1.033,0.093518504,-0.267592607,1,0,0,2.3701,Diorite_rect,3,2.37,0,3,0,3,0,1,,,,,,,,,,,,,
5e3cddaa64dfd70d85a5ef3f,TCR,2024-06-11_13h19.21.982,LearnStrategy,2023.2.3,Win32,59.52380952,9,1,5,0.000925912,-0.002777771,1,0,0,0.9565,rock_grid_rect_2,2,01,-1,-1,0.957,-0.087037051,-0.243518547,1,0,0,1.5525,Basalt_rect,2,1.553,1,4,0,4,0,1,,,,,,,,,,,,,
5e3cddaa64dfd70d85a5ef3f,TCR,2024-06-11_13h19.21.982,LearnStrategy,2023.2.3,Win32,59.52380952,9,1,6,0.100000028,-0.0074074,1,0,0,1.1327,rock_grid_rect_2,4,09,-1,-1,1.133,0.333333333,-0.249074088,1,0,0,2.0615,Gabbro_rect,4,2.062,1,5,0,5,0,1,,,,,,,,,,,,,
5e3cddaa64dfd70d85a5ef3f,TCR,2024-06-11_13h19.21.982,LearnStrategy,2023.2.3,Win32,59.52380952,9,1,7,0.084259245,0.023148148,1,0,0,0.983,rock_grid_rect_2,3,14,-1,-1,0.983,0.062962991,-0.239814829,1,0,0,1.1613,Diorite_rect,3,1.161,1,6,0,6,0,1,,,,,,,,,,,,,
5e3cddaa64dfd70d85a5ef3f,TCR,2024-06-11_13h19.21.982,LearnStrategy,2023.2.3,Win32,59.52380952,9,1,8,0.116666653,-0.000925947,1,0,0,0.9822,rock_grid_rect_2,1,05,-1,-1,0.982,-0.404629637,-0.247222265,1,0,0,1.5129,Andesite_rect,1,1.513,1,7,0,7,0,1,,,,,,,,,,,,,
5e3cddaa64dfd70d85a5ef3f,TCR,2024-06-11_13h19.21.982,LearnStrategy,2023.2.3,Win32,59.52380952,9,1,9,0.031481496,-0.000925947,1,0,0,0.9824,rock_grid_rect_2,5,07,-1,-1,0.982,-0.349074081,-0.397222236,1,0,0,1.4608,Obsidian_rect,5,1.461,1,8,0,8,0,1,,,,,,,,,,,,,
5e3cddaa64dfd70d85a5ef3f,TCR,2024-06-11_13h19.21.982,LearnStrategy,2023.2.3,Win32,59.52380952,9,1,10,0.030555584,-0.003703718,1,0,0,0.9642,rock_grid_rect_2,2,02,-1,-1,0.964,-0.333333333,-0.238888917,1,0,0,1.6794,Andesite_rect,1,1.679,0,9,0,9,0,1,,,,,,,,,,,,,
5e3cddaa64dfd70d85a5ef3f,TCR,2024-06-11_13h19.21.982,LearnStrategy,2023.2.3,Win32,59.52380952,9,1,11,0.088888875,0.002777771,1,0,0,1.1324,rock_grid_rect_2,4,14,-1,-1,1.132,0.385185242,-0.237963005,1,0,0,1.4947,Gabbro_rect,4,1.495,1,10,0,10,0,1,,,,,,,,,,,,,
5e3cddaa64dfd70d85a5ef3f,TCR,2024-06-11_13h19.21.982,LearnStrategy,2023.2.3,Win32,59.52380952,9,1,12,0.068518533,-0.000925947,1,0,0,0.9979,rock_grid_rect_2,6,13,-1,-1,0.998,-0.088888875,-0.389814801,1,0,0,1.5286,Pegmatite_rect,6,1.529,1,11,0,11,0,1,,,,,,,,,,,,,
5e3cddaa64dfd70d85a5ef3f,TCR,2024-06-11_13h19.21.982,LearnStrategy,2023.2.3,Win32,59.52380952,9,1,13,0.09629631,-0.014814836,1,0,0,1.0489,rock_grid_rect_2,4,13,-1,-1,1.049,0.152777778,-0.392592607,1,0,0,3.4614,Peridotite_rect,7,3.461,0,12,0,12,0,1,,,,,,,,,,,,,
5e3cddaa64dfd70d85a5ef3f,TCR,2024-06-11_13h19.21.982,LearnStrategy,2023.2.3,Win32,59.52380952,9,1,14,0.113888917,0.00462963,1,0,0,1.0137,rock_grid_rect_2,7,08,-1,-1,1.014,0.373148176,-0.240740741,1,0,0,1.4794,Gabbro_rect,4,1.479,0,13,0,13,0,1,,,,,,,,,,,,,
5e3cddaa64dfd70d85a5ef3f,TCR,2024-06-11_13h19.21.982,LearnStrategy,2023.2.3,Win32,59.52380952,9,1,15,0.038888931,0.01944443,1,0,0,0.964,rock_grid_rect_2,1,09,-1,-1,0.964,-0.342592593,-0.233333376,1,0,0,2.1192,Andesite_rect,1,2.119,1,14,0,14,0,1,,,,,,,,,,,,,
5e3cddaa64dfd70d85a5ef3f,TCR,2024-06-11_13h19.21.982,LearnStrategy,2023.2.3,Win32,59.52380952,9,1,16,0.014814801,0.001851859,1,0,0,0.9476,rock_grid_rect_2,8,04,-1,-1,0.948,0.347222222,-0.39907406,1,0,0,2.1611,Pumice_rect,8,2.161,1,15,0,15,0,1,,,,,,,,,,,,,
5e3cddaa64dfd70d85a5ef3f,TCR,2024-06-11_13h19.21.982,LearnStrategy,2023.2.3,Win32,59.52380952,9,2,1,,,,,,,,1,10,,,,,,,,,,,7,3.529,0,,,,,,0.075925968,-0.391666695,1,0,0,3.5286,Peridotite_rect,0,0,0,0,1,
5e3cddaa64dfd70d85a5ef3f,TCR,2024-06-11_13h19.21.982,LearnStrategy,2023.2.3,Win32,59.52380952,9,2,2,,,,,,,,5,08,,,,,,,,,,,5,1.255,1,,,,,,-0.348148134,-0.411111125,1,0,0,1.2553,Obsidian_rect,1,0,1,0,1,
5e3cddaa64dfd70d85a5ef3f,TCR,2024-06-11_13h19.21.982,LearnStrategy,2023.2.3,Win32,59.52380952,9,2,3,,,,,,,,6,03,,,,,,,,,,,6,1.21,1,,,,,,-0.14444443,-0.389814801,1,0,0,1.21,Pegmatite_rect,2,0,2,0,1,
5e3cddaa64dfd70d85a5ef3f,TCR,2024-06-11_13h19.21.982,LearnStrategy,2023.2.3,Win32,59.52380952,9,2,4,,,,,,,,6,11,,,,,,,,,,,6,1.248,1,,,,,,-0.14444443,-0.389814801,1,0,0,1.2482,Pegmatite_rect,3,0,3,0,1,
5e3cddaa64dfd70d85a5ef3f,TCR,2024-06-11_13h19.21.982,LearnStrategy,2023.2.3,Win32,59.52380952,9,2,5,,,,,,,,1,02,,,,,,,,,,,3,1.843,0,,,,,,0.098148134,-0.265740783,1,0,0,1.8431,Diorite_rect,4,0,4,0,1,
5e3cddaa64dfd70d85a5ef3f,TCR,2024-06-11_13h19.21.982,LearnStrategy,2023.2.3,Win32,59.52380952,9,2,6,,,,,,,,8,03,,,,,,,,,,,8,1.461,1,,,,,,0.317592621,-0.386111153,1,0,0,1.4612,Pumice_rect,5,0,5,0,1,
5e3cddaa64dfd70d85a5ef3f,TCR,2024-06-11_13h19.21.982,LearnStrategy,2023.2.3,Win32,59.52380952,9,2,7,,,,,,,,7,13,,,,,,,,,,,4,3.894,0,,,,,,0.309259344,-0.258333347,1,0,0,3.8943,Gabbro_rect,6,0,6,0,1,
5e3cddaa64dfd70d85a5ef3f,TCR,2024-06-11_13h19.21.982,LearnStrategy,2023.2.3,Win32,59.52380952,9,2,8,,,,,,,,3,09,,,,,,,,,,,3,1.204,1,,,,,,0.150000042,-0.264814801,1,0,0,1.2043,Diorite_rect,7,0,7,0,1,
5e3cddaa64dfd70d85a5ef3f,TCR,2024-06-11_13h19.21.982,LearnStrategy,2023.2.3,Win32,59.52380952,9,2,9,,,,,,,,4,11,,,,,,,,,,,2,3.614,0,,,,,,-0.141666624,-0.25,1,0,0,3.6137,Basalt_rect,8,0,8,0,1,
5e3cddaa64dfd70d85a5ef3f,TCR,2024-06-11_13h19.21.982,LearnStrategy,2023.2.3,Win32,59.52380952,9,2,10,,,,,,,,2,10,,,,,,,,,,,2,2.44,1,,,,,,-0.19722218,-0.266666695,1,0,0,2.4403,Basalt_rect,9,0,9,0,1,
5e3cddaa64dfd70d85a5ef3f,TCR,2024-06-11_13h19.21.982,LearnStrategy,2023.2.3,Win32,59.52380952,9,2,11,,,,,,,,8,06,,,,,,,,,,,8,1.407,1,,,,,,0.342592593,-0.412962949,1,0,0,1.4065,Pumice_rect,10,0,10,0,1,
5e3cddaa64dfd70d85a5ef3f,TCR,2024-06-11_13h19.21.982,LearnStrategy,2023.2.3,Win32,59.52380952,9,2,12,,,,,,,,5,04,,,,,,,,,,,5,1.229,1,,,,,,-0.395370377,-0.395370413,1,0,0,1.2295,Obsidian_rect,11,0,11,0,1,
5e3cddaa64dfd70d85a5ef3f,TCR,2024-06-11_13h19.21.982,LearnStrategy,2023.2.3,Win32,59.52380952,9,2,13,,,,,,,,2,04,,,,,,,,,,,2,1.377,1,,,,,,-0.14907406,-0.250925912,1,0,0,1.3769,Basalt_rect,12,0,12,0,1,
5e3cddaa64dfd70d85a5ef3f,TCR,2024-06-11_13h19.21.982,LearnStrategy,2023.2.3,Win32,59.52380952,9,2,14,,,,,,,,7,06,,,,,,,,,,,3,1.394,0,,,,,,0.164814843,-0.255555541,1,0,0,1.3937,Diorite_rect,13,0,13,0,1,
5e3cddaa64dfd70d85a5ef3f,TCR,2024-06-11_13h19.21.982,LearnStrategy,2023.2.3,Win32,59.52380952,9,2,15,,,,,,,,3,12,,,,,,,,,,,3,1.218,1,,,,,,0.151851866,-0.260185171,1,0,0,1.2176,Diorite_rect,14,0,14,0,1,
5e3cddaa64dfd70d85a5ef3f,TCR,2024-06-11_13h19.21.982,LearnStrategy,2023.2.3,Win32,59.52380952,9,2,16,,,,,,,,4,10,,,,,,,,,,,4,7.259,1,,,,,,0.376851824,-0.232407393,1,0,0,7.2589,Gabbro_rect,15,0,15,0,1,
5e3cddaa64dfd70d85a5ef3f,TCR,2024-06-11_13h19.21.982,LearnStrategy,2023.2.3,Win32,59.52380952,,,,,,,,,,,,,,,,,,,,,,,,,,,,,,,,,,,,,,,,,,,1
5e3cddaa64dfd70d85a5ef3f,TCR,2024-06-11_13h19.21.982,LearnStrategy,2023.2.3,Win32,59.52380952,,,,,,,,,,,,,,,,,,,,,,,,,,,,,,,,,,,,,,,,,,,
5e3cddaa64dfd70d85a5ef3f,TCR,2024-06-11_13h19.21.982,LearnStrategy,2023.2.3,Win32,59.52380952,,,,,,,,,,,8,05,1,1,,,,,,,,,,,,,,,,,,,,,,,,,,,,,
5e3cddaa64dfd70d85a5ef3f,TCR,2024-06-11_13h19.21.982,LearnStrategy,2023.2.3,Win32,59.52380952,,,,,,,,,,,2,02,1,2,,,,,,,,,,,,,,,,,,,,,,,,,,,,,
5e3cddaa64dfd70d85a5ef3f,TCR,2024-06-11_13h19.21.982,LearnStrategy,2023.2.3,Win32,59.52380952,,,,,,,,,,,2,06,1,3,,,,,,,,,,,,,,,,,,,,,,,,,,,,,
5e3cddaa64dfd70d85a5ef3f,TCR,2024-06-11_13h19.21.982,LearnStrategy,2023.2.3,Win32,59.52380952,,,,,,,,,,,6,10,1,4,,,,,,,,,,,,,,,,,,,,,,,,,,,,,
5e3cddaa64dfd70d85a5ef3f,TCR,2024-06-11_13h19.21.982,LearnStrategy,2023.2.3,Win32,59.52380952,,,,,,,,,,,5,10,1,5,,,,,,,,,,,,,,,,,,,,,,,,,,,,,
5e3cddaa64dfd70d85a5ef3f,TCR,2024-06-11_13h19.21.982,LearnStrategy,2023.2.3,Win32,59.52380952,,,,,,,,,,,2,11,1,6,,,,,,,,,,,,,,,,,,,,,,,,,,,,,
5e3cddaa64dfd70d85a5ef3f,TCR,2024-06-11_13h19.21.982,LearnStrategy,2023.2.3,Win32,59.52380952,,,,,,,,,,,3,07,1,7,,,,,,,,,,,,,,,,,,,,,,,,,,,,,
5e3cddaa64dfd70d85a5ef3f,TCR,2024-06-11_13h19.21.982,LearnStrategy,2023.2.3,Win32,59.52380952,,,,,,,,,,,8,04,1,8,,,,,,,,,,,,,,,,,,,,,,,,,,,,,
5e3cddaa64dfd70d85a5ef3f,TCR,2024-06-11_13h19.21.982,LearnStrategy,2023.2.3,Win32,59.52380952,,,,,,,,,,,1,01,2,1,,,,,,,,,,,,,,,,,,,,,,,,,,,,,
5e3cddaa64dfd70d85a5ef3f,TCR,2024-06-11_13h19.21.982,LearnStrategy,2023.2.3,Win32,59.52380952,,,,,,,,,,,4,16,2,2,,,,,,,,,,,,,,,,,,,,,,,,,,,,,
5e3cddaa64dfd70d85a5ef3f,TCR,2024-06-11_13h19.21.982,LearnStrategy,2023.2.3,Win32,59.52380952,,,,,,,,,,,2,16,2,3,,,,,,,,,,,,,,,,,,,,,,,,,,,,,
5e3cddaa64dfd70d85a5ef3f,TCR,2024-06-11_13h19.21.982,LearnStrategy,2023.2.3,Win32,59.52380952,,,,,,,,,,,1,03,2,4,,,,,,,,,,,,,,,,,,,,,,,,,,,,,
5e3cddaa64dfd70d85a5ef3f,TCR,2024-06-11_13h19.21.982,LearnStrategy,2023.2.3,Win32,59.52380952,,,,,,,,,,,4,14,2,5,,,,,,,,,,,,,,,,,,,,,,,,,,,,,
5e3cddaa64dfd70d85a5ef3f,TCR,2024-06-11_13h19.21.982,LearnStrategy,2023.2.3,Win32,59.52380952,,,,,,,,,,,6,08,2,6,,,,,,,,,,,,,,,,,,,,,,,,,,,,,
5e3cddaa64dfd70d85a5ef3f,TCR,2024-06-11_13h19.21.982,LearnStrategy,2023.2.3,Win32,59.52380952,,,,,,,,,,,4,13,2,7,,,,,,,,,,,,,,,,,,,,,,,,,,,,,
5e3cddaa64dfd70d85a5ef3f,TCR,2024-06-11_13h19.21.982,LearnStrategy,2023.2.3,Win32,59.52380952,,,,,,,,,,,7,08,2,8,,,,,,,,,,,,,,,,,,,,,,,,,,,,,
5e3cddaa64dfd70d85a5ef3f,TCR,2024-06-11_13h19.21.982,LearnStrategy,2023.2.3,Win32,59.52380952,,,,,,,,,,,6,16,3,1,,,,,,,,,,,,,,,,,,,,,,,,,,,,,
5e3cddaa64dfd70d85a5ef3f,TCR,2024-06-11_13h19.21.982,LearnStrategy,2023.2.3,Win32,59.52380952,,,,,,,,,,,3,15,3,2,,,,,,,,,,,,,,,,,,,,,,,,,,,,,
5e3cddaa64dfd70d85a5ef3f,TCR,2024-06-11_13h19.21.982,LearnStrategy,2023.2.3,Win32,59.52380952,,,,,,,,,,,3,16,3,3,,,,,,,,,,,,,,,,,,,,,,,,,,,,,
5e3cddaa64dfd70d85a5ef3f,TCR,2024-06-11_13h19.21.982,LearnStrategy,2023.2.3,Win32,59.52380952,,,,,,,,,,,1,06,3,4,,,,,,,,,,,,,,,,,,,,,,,,,,,,,
5e3cddaa64dfd70d85a5ef3f,TCR,2024-06-11_13h19.21.982,LearnStrategy,2023.2.3,Win32,59.52380952,,,,,,,,,,,1,05,3,5,,,,,,,,,,,,,,,,,,,,,,,,,,,,,
5e3cddaa64dfd70d85a5ef3f,TCR,2024-06-11_13h19.21.982,LearnStrategy,2023.2.3,Win32,59.52380952,,,,,,,,,,,7,04,3,6,,,,,,,,,,,,,,,,,,,,,,,,,,,,,
5e3cddaa64dfd70d85a5ef3f,TCR,2024-06-11_13h19.21.982,LearnStrategy,2023.2.3,Win32,59.52380952,,,,,,,,,,,5,12,3,7,,,,,,,,,,,,,,,,,,,,,,,,,,,,,
5e3cddaa64dfd70d85a5ef3f,TCR,2024-06-11_13h19.21.982,LearnStrategy,2023.2.3,Win32,59.52380952,,,,,,,,,,,3,02,3,8,,,,,,,,,,,,,,,,,,,,,,,,,,,,,
5e3cddaa64dfd70d85a5ef3f,TCR,2024-06-11_13h19.21.982,LearnStrategy,2023.2.3,Win32,59.52380952,,,,,,,,,,,4,03,4,1,,,,,,,,,,,,,,,,,,,,,,,,,,,,,
5e3cddaa64dfd70d85a5ef3f,TCR,2024-06-11_13h19.21.982,LearnStrategy,2023.2.3,Win32,59.52380952,,,,,,,,,,,6,13,4,2,,,,,,,,,,,,,,,,,,,,,,,,,,,,,
5e3cddaa64dfd70d85a5ef3f,TCR,2024-06-11_13h19.21.982,LearnStrategy,2023.2.3,Win32,59.52380952,,,,,,,,,,,4,01,4,3,,,,,,,,,,,,,,,,,,,,,,,,,,,,,
5e3cddaa64dfd70d85a5ef3f,TCR,2024-06-11_13h19.21.982,LearnStrategy,2023.2.3,Win32,59.52380952,,,,,,,,,,,3,10,4,4,,,,,,,,,,,,,,,,,,,,,,,,,,,,,
5e3cddaa64dfd70d85a5ef3f,TCR,2024-06-11_13h19.21.982,LearnStrategy,2023.2.3,Win32,59.52380952,,,,,,,,,,,4,09,4,5,,,,,,,,,,,,,,,,,,,,,,,,,,,,,
5e3cddaa64dfd70d85a5ef3f,TCR,2024-06-11_13h19.21.982,LearnStrategy,2023.2.3,Win32,59.52380952,,,,,,,,,,,7,12,4,6,,,,,,,,,,,,,,,,,,,,,,,,,,,,,
5e3cddaa64dfd70d85a5ef3f,TCR,2024-06-11_13h19.21.982,LearnStrategy,2023.2.3,Win32,59.52380952,,,,,,,,,,,5,05,4,7,,,,,,,,,,,,,,,,,,,,,,,,,,,,,
5e3cddaa64dfd70d85a5ef3f,TCR,2024-06-11_13h19.21.982,LearnStrategy,2023.2.3,Win32,59.52380952,,,,,,,,,,,3,14,4,8,,,,,,,,,,,,,,,,,,,,,,,,,,,,,
5e3cddaa64dfd70d85a5ef3f,TCR,2024-06-11_13h19.21.982,LearnStrategy,2023.2.3,Win32,59.52380952,,,,,,,,,,,6,06,5,1,,,,,,,,,,,,,,,,,,,,,,,,,,,,,
5e3cddaa64dfd70d85a5ef3f,TCR,2024-06-11_13h19.21.982,LearnStrategy,2023.2.3,Win32,59.52380952,,,,,,,,,,,5,06,5,2,,,,,,,,,,,,,,,,,,,,,,,,,,,,,
5e3cddaa64dfd70d85a5ef3f,TCR,2024-06-11_13h19.21.982,LearnStrategy,2023.2.3,Win32,59.52380952,,,,,,,,,,,5,07,5,3,,,,,,,,,,,,,,,,,,,,,,,,,,,,,
5e3cddaa64dfd70d85a5ef3f,TCR,2024-06-11_13h19.21.982,LearnStrategy,2023.2.3,Win32,59.52380952,,,,,,,,,,,7,10,5,4,,,,,,,,,,,,,,,,,,,,,,,,,,,,,
5e3cddaa64dfd70d85a5ef3f,TCR,2024-06-11_13h19.21.982,LearnStrategy,2023.2.3,Win32,59.52380952,,,,,,,,,,,1,16,5,5,,,,,,,,,,,,,,,,,,,,,,,,,,,,,
5e3cddaa64dfd70d85a5ef3f,TCR,2024-06-11_13h19.21.982,LearnStrategy,2023.2.3,Win32,59.52380952,,,,,,,,,,,7,14,5,6,,,,,,,,,,,,,,,,,,,,,,,,,,,,,
5e3cddaa64dfd70d85a5ef3f,TCR,2024-06-11_13h19.21.982,LearnStrategy,2023.2.3,Win32,59.52380952,,,,,,,,,,,8,02,5,7,,,,,,,,,,,,,,,,,,,,,,,,,,,,,
5e3cddaa64dfd70d85a5ef3f,TCR,2024-06-11_13h19.21.982,LearnStrategy,2023.2.3,Win32,59.52380952,,,,,,,,,,,8,09,5,8,,,,,,,,,,,,,,,,,,,,,,,,,,,,,
5e3cddaa64dfd70d85a5ef3f,TCR,2024-06-11_13h19.21.982,LearnStrategy,2023.2.3,Win32,59.52380952,,,,,,,,,,,8,10,6,1,,,,,,,,,,,,,,,,,,,,,,,,,,,,,
5e3cddaa64dfd70d85a5ef3f,TCR,2024-06-11_13h19.21.982,LearnStrategy,2023.2.3,Win32,59.52380952,,,,,,,,,,,6,07,6,2,,,,,,,,,,,,,,,,,,,,,,,,,,,,,
5e3cddaa64dfd70d85a5ef3f,TCR,2024-06-11_13h19.21.982,LearnStrategy,2023.2.3,Win32,59.52380952,,,,,,,,,,,1,09,6,3,,,,,,,,,,,,,,,,,,,,,,,,,,,,,
5e3cddaa64dfd70d85a5ef3f,TCR,2024-06-11_13h19.21.982,LearnStrategy,2023.2.3,Win32,59.52380952,,,,,,,,,,,2,12,6,4,,,,,,,,,,,,,,,,,,,,,,,,,,,,,
5e3cddaa64dfd70d85a5ef3f,TCR,2024-06-11_13h19.21.982,LearnStrategy,2023.2.3,Win32,59.52380952,,,,,,,,,,,2,01,6,5,,,,,,,,,,,,,,,,,,,,,,,,,,,,,
5e3cddaa64dfd70d85a5ef3f,TCR,2024-06-11_13h19.21.982,LearnStrategy,2023.2.3,Win32,59.52380952,,,,,,,,,,,8,14,6,6,,,,,,,,,,,,,,,,,,,,,,,,,,,,,
5e3cddaa64dfd70d85a5ef3f,TCR,2024-06-11_13h19.21.982,LearnStrategy,2023.2.3,Win32,59.52380952,,,,,,,,,,,7,05,6,7,,,,,,,,,,,,,,,,,,,,,,,,,,,,,
5e3cddaa64dfd70d85a5ef3f,TCR,2024-06-11_13h19.21.982,LearnStrategy,2023.2.3,Win32,59.52380952,,,,,,,,,,,5,02,6,8,,,,,,,,,,,,,,,,,,,,,,,,,,,,,