participant,condition,date,expName,psychopyVersion,OS,frameRate,block,phase,trial,learn_mouse.x,learn_mouse.y,learn_mouse.leftButton,learn_mouse.midButton,learn_mouse.rightButton,learn_mouse.time,learn_mouse.clicked_name,cat,token,row,col,t_select,cat_rec,token_rec,cat_mouse_l.x,cat_mouse_l.y,cat_mouse_l.leftButton,cat_mouse_l.midButton,cat_mouse_l.rightButton,cat_mouse_l.time,cat_mouse_l.clicked_name,resp,t_resp,corr,train_trials.thisRepN,train_trials.thisTrialN,train_trials.thisN,train_trials.thisIndex,train_trials.ran,cat_mouse_t.x,cat_mouse_t.y,cat_mouse_t.leftButton,cat_mouse_t.midButton,cat_mouse_t.rightButton,cat_mouse_t.time,cat_mouse_t.clicked_name,test_trials.thisRepN,test_trials.thisTrialN,test_trials.thisN,test_trials.thisIndex,test_trials.ran
5e50cf2e6f8390111edd6211,SCR,2024-06-10_15h00.05.933,LearnStrategy,2023.2.3,Win32,144.9275362,,,,,,,,,,,,,,,,,,,,,,,,,,,,,,,,,,,,,,,,,,,,
5e50cf2e6f8390111edd6211,SCR,2024-06-10_15h00.05.933,LearnStrategy,2023.2.3,Win32,144.9275362,1,1,1,-0.083333333,0.389814815,1,0,0,6.4441,Obsidian_02,5,02,6,4,6.444,1,16,-0.34537037,-0.397222222,1,0,0,3.1922,Obsidian_rect,5,3.192,1,0,0,0,0,1,,,,,,,,,,,,
5e50cf2e6f8390111edd6211,SCR,2024-06-10_15h00.05.933,LearnStrategy,2023.2.3,Win32,144.9275362,1,1,2,0.408333333,-0.418518519,1,0,0,3.0193,Peridotite_13,7,13,1,7,3.019,7,02,0.137037037,-0.391666667,1,0,0,6.9269,Peridotite_rect,7,6.927,1,1,0,1,0,1,,,,,,,,,,,,
5e50cf2e6f8390111edd6211,SCR,2024-06-10_15h00.05.933,LearnStrategy,2023.2.3,Win32,144.9275362,1,1,3,-0.081481481,-0.405555556,1,0,0,6.3275,Pumice_16,8,16,1,4,6.328,4,15,0.409259259,-0.4,1,0,0,5.3076,Pumice_rect,8,5.308,1,2,0,2,0,1,,,,,,,,,,,,
5e50cf2e6f8390111edd6211,SCR,2024-06-10_15h00.05.933,LearnStrategy,2023.2.3,Win32,144.9275362,1,1,4,-0.268518519,-0.399074074,1,0,0,7.804,Peridotite_12,7,12,1,3,7.804,5,02,-0.156481481,-0.266666667,1,0,0,4.6964,Basalt_rect,2,4.696,0,3,0,3,0,1,,,,,,,,,,,,
5e50cf2e6f8390111edd6211,SCR,2024-06-10_15h00.05.933,LearnStrategy,2023.2.3,Win32,144.9275362,1,1,5,0.102777778,0.393518519,1,0,0,2.0677,Pegmatite_10,6,10,6,5,2.068,8,15,0.125925926,-0.381481481,1,0,0,2.0431,Peridotite_rect,7,2.043,0,4,0,4,0,1,,,,,,,,,,,,
5e50cf2e6f8390111edd6211,SCR,2024-06-10_15h00.05.933,LearnStrategy,2023.2.3,Win32,144.9275362,1,1,6,-0.509259259,-0.080555556,1,0,0,17.2897,Peridotite_15,7,15,3,1,17.29,1,11,0.086111111,-0.386111111,1,0,0,3.8642,Peridotite_rect,7,3.864,1,5,0,5,0,1,,,,,,,,,,,,
5e50cf2e6f8390111edd6211,SCR,2024-06-10_15h00.05.933,LearnStrategy,2023.2.3,Win32,144.9275362,1,1,7,-0.552777778,0.109259259,1,0,0,9.1927,Pumice_05,8,05,4,1,9.193,4,16,0.412037037,-0.419444444,1,0,0,2.5033,Pumice_rect,8,2.503,1,6,0,6,0,1,,,,,,,,,,,,
5e50cf2e6f8390111edd6211,SCR,2024-06-10_15h00.05.933,LearnStrategy,2023.2.3,Win32,144.9275362,1,1,8,0.597222222,0.396296296,1,0,0,2.6786,Obsidian_10,5,10,6,8,2.679,2,05,-0.352777778,-0.397222222,1,0,0,4.1048,Obsidian_rect,5,4.105,1,7,0,7,0,1,,,,,,,,,,,,
5e50cf2e6f8390111edd6211,SCR,2024-06-10_15h00.05.933,LearnStrategy,2023.2.3,Win32,144.9275362,1,1,9,-0.419444444,0.374074074,1,0,0,1.6905,Peridotite_06,7,06,6,2,1.691,6,05,-0.175,-0.385185185,1,0,0,3.0356,Pegmatite_rect,6,3.036,0,8,0,8,0,1,,,,,,,,,,,,
5e50cf2e6f8390111edd6211,SCR,2024-06-10_15h00.05.933,LearnStrategy,2023.2.3,Win32,144.9275362,1,1,10,0.224074074,0.398148148,1,0,0,2.04,Diorite_07,3,07,6,6,2.04,3,09,0.360185185,-0.250925926,1,0,0,3.6954,Gabbro_rect,4,3.695,0,9,0,9,0,1,,,,,,,,,,,,
5e50cf2e6f8390111edd6211,SCR,2024-06-10_15h00.05.933,LearnStrategy,2023.2.3,Win32,144.9275362,1,1,11,0.416666667,0.397222222,1,0,0,2.672,Pegmatite_03,6,03,6,7,2.672,2,11,0.132407407,-0.398148148,1,0,0,3.3921,Peridotite_rect,7,3.392,0,10,0,10,0,1,,,,,,,,,,,,
5e50cf2e6f8390111edd6211,SCR,2024-06-10_15h00.05.933,LearnStrategy,2023.2.3,Win32,144.9275362,1,1,12,-0.549074074,0.258333333,1,0,0,5.8759,Diorite_06,3,06,5,1,5.876,6,15,-0.416666667,-0.27037037,1,0,0,5.4123,Andesite_rect,1,5.412,0,11,0,11,0,1,,,,,,,,,,,,
5e50cf2e6f8390111edd6211,SCR,2024-06-10_15h00.05.933,LearnStrategy,2023.2.3,Win32,144.9275362,1,1,13,-0.371296296,0.255555556,1,0,0,1.4637,Obsidian_14,5,14,5,2,1.464,3,10,-0.372222222,-0.413888889,1,0,0,2.5087,Obsidian_rect,5,2.509,1,12,0,12,0,1,,,,,,,,,,,,
5e50cf2e6f8390111edd6211,SCR,2024-06-10_15h00.05.933,LearnStrategy,2023.2.3,Win32,144.9275362,1,1,14,-0.202777778,0.233333333,1,0,0,3.5779,Pumice_15,8,15,5,3,3.578,7,15,0.390740741,-0.401851852,1,0,0,1.8387,Pumice_rect,8,1.839,1,13,0,13,0,1,,,,,,,,,,,,
5e50cf2e6f8390111edd6211,SCR,2024-06-10_15h00.05.933,LearnStrategy,2023.2.3,Win32,144.9275362,1,1,15,0.07037037,0.231481481,1,0,0,2.1444,Peridotite_02,7,02,5,5,2.144,5,16,0.177777778,-0.384259259,1,0,0,1.6964,Peridotite_rect,7,1.696,1,14,0,14,0,1,,,,,,,,,,,,
5e50cf2e6f8390111edd6211,SCR,2024-06-10_15h00.05.933,LearnStrategy,2023.2.3,Win32,144.9275362,1,1,16,-0.071296296,0.064814815,1,0,0,2.8247,Pumice_14,8,14,4,4,2.825,8,14,0.393518519,-0.398148148,1,0,0,1.92,Pumice_rect,8,1.92,1,15,0,15,0,1,,,,,,,,,,,,
5e50cf2e6f8390111edd6211,SCR,2024-06-10_15h00.05.933,LearnStrategy,2023.2.3,Win32,144.9275362,1,2,1,,,,,,,,3,11,,,,,,,,,,,,,3,3.467,1,,,,,,0.162962963,-0.238888889,1,0,0,3.4671,Diorite_rect,0,0,0,0,1
5e50cf2e6f8390111edd6211,SCR,2024-06-10_15h00.05.933,LearnStrategy,2023.2.3,Win32,144.9275362,1,2,2,,,,,,,,2,02,,,,,,,,,,,,,4,3.515,0,,,,,,0.387037037,-0.25,1,0,0,3.5148,Gabbro_rect,1,0,1,0,1
5e50cf2e6f8390111edd6211,SCR,2024-06-10_15h00.05.933,LearnStrategy,2023.2.3,Win32,144.9275362,1,2,3,,,,,,,,3,15,,,,,,,,,,,,,3,3.634,1,,,,,,0.19537037,-0.250925926,1,0,0,3.6342,Diorite_rect,2,0,2,0,1
5e50cf2e6f8390111edd6211,SCR,2024-06-10_15h00.05.933,LearnStrategy,2023.2.3,Win32,144.9275362,1,2,4,,,,,,,,6,13,,,,,,,,,,,,,1,4.37,0,,,,,,-0.434259259,-0.24537037,1,0,0,4.3703,Andesite_rect,3,0,3,0,1
5e50cf2e6f8390111edd6211,SCR,2024-06-10_15h00.05.933,LearnStrategy,2023.2.3,Win32,144.9275362,1,2,5,,,,,,,,4,14,,,,,,,,,,,,,1,3.258,0,,,,,,-0.434259259,-0.24537037,1,0,0,3.2581,Andesite_rect,4,0,4,0,1
5e50cf2e6f8390111edd6211,SCR,2024-06-10_15h00.05.933,LearnStrategy,2023.2.3,Win32,144.9275362,1,2,6,,,,,,,,4,13,,,,,,,,,,,,,3,2.648,0,,,,,,0.139814815,-0.249074074,1,0,0,2.6478,Diorite_rect,5,0,5,0,1
5e50cf2e6f8390111edd6211,SCR,2024-06-10_15h00.05.933,LearnStrategy,2023.2.3,Win32,144.9275362,1,2,7,,,,,,,,5,11,,,,,,,,,,,,,5,1.563,1,,,,,,-0.363888889,-0.397222222,1,0,0,1.5632,Obsidian_rect,6,0,6,0,1
5e50cf2e6f8390111edd6211,SCR,2024-06-10_15h00.05.933,LearnStrategy,2023.2.3,Win32,144.9275362,1,2,8,,,,,,,,1,01,,,,,,,,,,,,,1,4.148,1,,,,,,-0.361111111,-0.25,1,0,0,4.1478,Andesite_rect,7,0,7,0,1
5e50cf2e6f8390111edd6211,SCR,2024-06-10_15h00.05.933,LearnStrategy,2023.2.3,Win32,144.9275362,1,2,9,,,,,,,,5,12,,,,,,,,,,,,,5,1.21,1,,,,,,-0.348148148,-0.417592593,1,0,0,1.2097,Obsidian_rect,8,0,8,0,1
5e50cf2e6f8390111edd6211,SCR,2024-06-10_15h00.05.933,LearnStrategy,2023.2.3,Win32,144.9275362,1,2,10,,,,,,,,6,09,,,,,,,,,,,,,6,3.077,1,,,,,,-0.194444444,-0.384259259,1,0,0,3.0772,Pegmatite_rect,9,0,9,0,1
5e50cf2e6f8390111edd6211,SCR,2024-06-10_15h00.05.933,LearnStrategy,2023.2.3,Win32,144.9275362,1,2,11,,,,,,,,8,13,,,,,,,,,,,,,8,1.78,1,,,,,,0.430555556,-0.383333333,1,0,0,1.7805,Pumice_rect,10,0,10,0,1
5e50cf2e6f8390111edd6211,SCR,2024-06-10_15h00.05.933,LearnStrategy,2023.2.3,Win32,144.9275362,1,2,12,,,,,,,,8,08,,,,,,,,,,,,,8,1.085,1,,,,,,0.430555556,-0.383333333,1,0,0,1.085,Pumice_rect,11,0,11,0,1
5e50cf2e6f8390111edd6211,SCR,2024-06-10_15h00.05.933,LearnStrategy,2023.2.3,Win32,144.9275362,1,2,13,,,,,,,,2,04,,,,,,,,,,,,,1,3.093,0,,,,,,-0.340740741,-0.260185185,1,0,0,3.0928,Andesite_rect,12,0,12,0,1
5e50cf2e6f8390111edd6211,SCR,2024-06-10_15h00.05.933,LearnStrategy,2023.2.3,Win32,144.9275362,1,2,14,,,,,,,,7,05,,,,,,,,,,,,,7,3.169,1,,,,,,0.142592593,-0.40462963,1,0,0,3.1689,Peridotite_rect,13,0,13,0,1
5e50cf2e6f8390111edd6211,SCR,2024-06-10_15h00.05.933,LearnStrategy,2023.2.3,Win32,144.9275362,1,2,15,,,,,,,,1,03,,,,,,,,,,,,,1,19.091,1,,,,,,-0.432407407,-0.248148148,1,0,0,19.0909,Andesite_rect,14,0,14,0,1
5e50cf2e6f8390111edd6211,SCR,2024-06-10_15h00.05.933,LearnStrategy,2023.2.3,Win32,144.9275362,1,2,16,,,,,,,,7,14,,,,,,,,,,,,,7,1.705,1,,,,,,0.080555556,-0.393518519,1,0,0,1.7052,Peridotite_rect,15,0,15,0,1
5e50cf2e6f8390111edd6211,SCR,2024-06-10_15h00.05.933,LearnStrategy,2023.2.3,Win32,144.9275362,2,1,1,0.076851852,0.094444444,1,0,0,3.9454,Diorite_14,3,14,4,5,3.945,2,14,0.174074074,-0.249074074,1,0,0,6.4884,Diorite_rect,3,6.488,1,0,0,0,0,1,,,,,,,,,,,,
5e50cf2e6f8390111edd6211,SCR,2024-06-10_15h00.05.933,LearnStrategy,2023.2.3,Win32,144.9275362,2,1,2,-0.560185185,-0.253703704,1,0,0,3.853,Pegmatite_15,6,15,2,1,3.853,5,08,-0.171296296,-0.390740741,1,0,0,3.6342,Pegmatite_rect,6,3.634,1,1,0,1,0,1,,,,,,,,,,,,
5e50cf2e6f8390111edd6211,SCR,2024-06-10_15h00.05.933,LearnStrategy,2023.2.3,Win32,144.9275362,2,1,3,0.232407407,-0.266666667,1,0,0,2.1996,Basalt_08,2,08,2,6,2.2,3,14,-0.134259259,-0.247222222,1,0,0,2.814,Basalt_rect,2,2.814,1,2,0,2,0,1,,,,,,,,,,,,
5e50cf2e6f8390111edd6211,SCR,2024-06-10_15h00.05.933,LearnStrategy,2023.2.3,Win32,144.9275362,2,1,4,-0.242592593,0.076851852,1,0,0,3.14,Peridotite_08,7,08,4,3,3.14,4,12,0.098148148,-0.386111111,1,0,0,1.8397,Peridotite_rect,7,1.84,1,3,0,3,0,1,,,,,,,,,,,,
5e50cf2e6f8390111edd6211,SCR,2024-06-10_15h00.05.933,LearnStrategy,2023.2.3,Win32,144.9275362,2,1,5,-0.407407407,-0.278703704,1,0,0,2.6649,Pegmatite_12,6,12,2,2,2.665,2,09,-0.121296296,-0.411111111,1,0,0,2.023,Pegmatite_rect,6,2.023,1,4,0,4,0,1,,,,,,,,,,,,
5e50cf2e6f8390111edd6211,SCR,2024-06-10_15h00.05.933,LearnStrategy,2023.2.3,Win32,144.9275362,2,1,6,-0.563888889,-0.424074074,1,0,0,5.8528,Gabbro_08,4,08,1,1,5.853,4,05,-0.388888889,-0.259259259,1,0,0,4.1834,Andesite_rect,1,4.183,0,5,0,5,0,1,,,,,,,,,,,,
5e50cf2e6f8390111edd6211,SCR,2024-06-10_15h00.05.933,LearnStrategy,2023.2.3,Win32,144.9275362,2,1,7,0.075925926,-0.287962963,1,0,0,3.8175,Gabbro_15,4,15,2,5,3.817,7,12,0.132407407,-0.247222222,1,0,0,3.6442,Diorite_rect,3,3.644,0,6,0,6,0,1,,,,,,,,,,,,
5e50cf2e6f8390111edd6211,SCR,2024-06-10_15h00.05.933,LearnStrategy,2023.2.3,Win32,144.9275362,2,1,8,0.527777778,-0.115740741,1,0,0,2.3598,Andesite_07,1,07,3,8,2.36,4,10,0.173148148,-0.25462963,1,0,0,1.2869,Diorite_rect,3,1.287,0,7,0,7,0,1,,,,,,,,,,,,
5e50cf2e6f8390111edd6211,SCR,2024-06-10_15h00.05.933,LearnStrategy,2023.2.3,Win32,144.9275362,2,1,9,0.375925926,0.416666667,1,0,0,12.2763,Pegmatite_03,6,03,6,7,12.276,6,03,-0.168518519,-0.414814815,1,0,0,2.3574,Pegmatite_rect,6,2.357,1,8,0,8,0,1,,,,,,,,,,,,
5e50cf2e6f8390111edd6211,SCR,2024-06-10_15h00.05.933,LearnStrategy,2023.2.3,Win32,144.9275362,2,1,10,0.22037037,-0.1,1,0,0,1.1863,Gabbro_16,4,16,3,6,1.186,4,16,-0.096296296,-0.237962963,1,0,0,7.926,Basalt_rect,2,7.926,0,9,0,9,0,1,,,,,,,,,,,,
5e50cf2e6f8390111edd6211,SCR,2024-06-10_15h00.05.933,LearnStrategy,2023.2.3,Win32,144.9275362,2,1,11,0.248148148,-0.428703704,1,0,0,1.5814,Basalt_01,2,01,1,6,1.581,2,01,-0.152777778,-0.250925926,1,0,0,4.3158,Basalt_rect,2,4.316,1,10,0,10,0,1,,,,,,,,,,,,
5e50cf2e6f8390111edd6211,SCR,2024-06-10_15h00.05.933,LearnStrategy,2023.2.3,Win32,144.9275362,2,1,12,-0.096296296,-0.396296296,1,0,0,1.4915,Pumice_16,8,16,1,4,1.491,8,16,0.362037037,-0.39537037,1,0,0,0.9251,Pumice_rect,8,0.925,1,11,0,11,0,1,,,,,,,,,,,,
5e50cf2e6f8390111edd6211,SCR,2024-06-10_15h00.05.933,LearnStrategy,2023.2.3,Win32,144.9275362,2,1,13,-0.55,-0.253703704,1,0,0,0.9851,Pegmatite_15,6,15,2,1,0.985,6,15,-0.126851852,-0.394444444,1,0,0,1.3342,Pegmatite_rect,6,1.334,1,12,0,12,0,1,,,,,,,,,,,,
5e50cf2e6f8390111edd6211,SCR,2024-06-10_15h00.05.933,LearnStrategy,2023.2.3,Win32,144.9275362,2,1,14,-0.067592593,-0.227777778,1,0,0,1.1238,Pegmatite_08,6,08,2,4,1.124,6,08,-0.110185185,-0.388888889,1,0,0,1.6895,Pegmatite_rect,6,1.689,1,13,0,13,0,1,,,,,,,,,,,,
5e50cf2e6f8390111edd6211,SCR,2024-06-10_15h00.05.933,LearnStrategy,2023.2.3,Win32,144.9275362,2,1,15,0.37962963,-0.261111111,1,0,0,1.6237,Basalt_11,2,11,2,7,1.624,2,11,0.385185185,-0.385185185,1,0,0,2.7577,Pumice_rect,8,2.758,0,14,0,14,0,1,,,,,,,,,,,,
5e50cf2e6f8390111edd6211,SCR,2024-06-10_15h00.05.933,LearnStrategy,2023.2.3,Win32,144.9275362,2,1,16,0.073148148,-0.257407407,1,0,0,1.2275,Gabbro_15,4,15,2,5,1.227,4,15,0.35462963,-0.25,1,0,0,3.627,Gabbro_rect,4,3.627,1,15,0,15,0,1,,,,,,,,,,,,
5e50cf2e6f8390111edd6211,SCR,2024-06-10_15h00.05.933,LearnStrategy,2023.2.3,Win32,144.9275362,2,2,1,,,,,,,,6,11,,,,,,,,,,,,,6,1.87,1,,,,,,-0.101851852,-0.400925926,1,0,0,1.8702,Pegmatite_rect,0,0,0,0,1
5e50cf2e6f8390111edd6211,SCR,2024-06-10_15h00.05.933,LearnStrategy,2023.2.3,Win32,144.9275362,2,2,2,,,,,,,,7,04,,,,,,,,,,,,,3,7.211,0,,,,,,0.087962963,-0.262037037,1,0,0,7.2109,Diorite_rect,1,0,1,0,1
5e50cf2e6f8390111edd6211,SCR,2024-06-10_15h00.05.933,LearnStrategy,2023.2.3,Win32,144.9275362,2,2,3,,,,,,,,3,13,,,,,,,,,,,,,3,2.391,1,,,,,,0.09537037,-0.255555556,1,0,0,2.3909,Diorite_rect,2,0,2,0,1
5e50cf2e6f8390111edd6211,SCR,2024-06-10_15h00.05.933,LearnStrategy,2023.2.3,Win32,144.9275362,2,2,4,,,,,,,,1,14,,,,,,,,,,,,,4,4.203,0,,,,,,0.356481481,-0.260185185,1,0,0,4.2027,Gabbro_rect,3,0,3,0,1
5e50cf2e6f8390111edd6211,SCR,2024-06-10_15h00.05.933,LearnStrategy,2023.2.3,Win32,144.9275362,2,2,5,,,,,,,,1,09,,,,,,,,,,,,,1,4.676,1,,,,,,-0.394444444,-0.25,1,0,0,4.6756,Andesite_rect,4,0,4,0,1
5e50cf2e6f8390111edd6211,SCR,2024-06-10_15h00.05.933,LearnStrategy,2023.2.3,Win32,144.9275362,2,2,6,,,,,,,,7,16,,,,,,,,,,,,,7,1.703,1,,,,,,0.131481481,-0.415740741,1,0,0,1.7031,Peridotite_rect,5,0,5,0,1
5e50cf2e6f8390111edd6211,SCR,2024-06-10_15h00.05.933,LearnStrategy,2023.2.3,Win32,144.9275362,2,2,7,,,,,,,,4,01,,,,,,,,,,,,,4,7.737,1,,,,,,0.375,-0.25,1,0,0,7.7372,Gabbro_rect,6,0,6,0,1
5e50cf2e6f8390111edd6211,SCR,2024-06-10_15h00.05.933,LearnStrategy,2023.2.3,Win32,144.9275362,2,2,8,,,,,,,,2,10,,,,,,,,,,,,,1,6.828,0,,,,,,-0.358333333,-0.261111111,1,0,0,6.8279,Andesite_rect,7,0,7,0,1
5e50cf2e6f8390111edd6211,SCR,2024-06-10_15h00.05.933,LearnStrategy,2023.2.3,Win32,144.9275362,2,2,9,,,,,,,,5,09,,,,,,,,,,,,,5,1.787,1,,,,,,-0.408333333,-0.388888889,1,0,0,1.7867,Obsidian_rect,8,0,8,0,1
5e50cf2e6f8390111edd6211,SCR,2024-06-10_15h00.05.933,LearnStrategy,2023.2.3,Win32,144.9275362,2,2,10,,,,,,,,8,02,,,,,,,,,,,,,8,1.974,1,,,,,,0.37037037,-0.400925926,1,0,0,1.9744,Pumice_rect,9,0,9,0,1
5e50cf2e6f8390111edd6211,SCR,2024-06-10_15h00.05.933,LearnStrategy,2023.2.3,Win32,144.9275362,2,2,11,,,,,,,,8,04,,,,,,,,,,,,,8,1.086,1,,,,,,0.37037037,-0.400925926,1,0,0,1.0863,Pumice_rect,10,0,10,0,1
5e50cf2e6f8390111edd6211,SCR,2024-06-10_15h00.05.933,LearnStrategy,2023.2.3,Win32,144.9275362,2,2,12,,,,,,,,6,06,,,,,,,,,,,,,6,3.919,1,,,,,,-0.163888889,-0.40462963,1,0,0,3.9195,Pegmatite_rect,11,0,11,0,1
5e50cf2e6f8390111edd6211,SCR,2024-06-10_15h00.05.933,LearnStrategy,2023.2.3,Win32,144.9275362,2,2,13,,,,,,,,4,09,,,,,,,,,,,,,2,11.933,0,,,,,,-0.125925926,-0.244444444,1,0,0,11.9328,Basalt_rect,12,0,12,0,1
5e50cf2e6f8390111edd6211,SCR,2024-06-10_15h00.05.933,LearnStrategy,2023.2.3,Win32,144.9275362,2,2,14,,,,,,,,2,06,,,,,,,,,,,,,2,2.426,1,,,,,,-0.125925926,-0.244444444,1,0,0,2.4257,Basalt_rect,13,0,13,0,1
5e50cf2e6f8390111edd6211,SCR,2024-06-10_15h00.05.933,LearnStrategy,2023.2.3,Win32,144.9275362,2,2,15,,,,,,,,3,12,,,,,,,,,,,,,4,3.51,0,,,,,,0.378703704,-0.243518519,1,0,0,3.5099,Gabbro_rect,14,0,14,0,1
5e50cf2e6f8390111edd6211,SCR,2024-06-10_15h00.05.933,LearnStrategy,2023.2.3,Win32,144.9275362,2,2,16,,,,,,,,5,07,,,,,,,,,,,,,5,3.617,1,,,,,,-0.384259259,-0.386111111,1,0,0,3.617,Obsidian_rect,15,0,15,0,1
5e50cf2e6f8390111edd6211,SCR,2024-06-10_15h00.05.933,LearnStrategy,2023.2.3,Win32,144.9275362,3,1,1,0.384259259,-0.112037037,1,0,0,3.2281,Gabbro_12,4,12,3,7,3.228,4,12,-0.091666667,-0.247222222,1,0,0,2.5715,Basalt_rect,2,2.572,0,0,0,0,0,1,,,,,,,,,,,,
5e50cf2e6f8390111edd6211,SCR,2024-06-10_15h00.05.933,LearnStrategy,2023.2.3,Win32,144.9275362,3,1,2,-0.042592593,0.24537037,1,0,0,1.2928,Obsidian_04,5,04,5,4,1.293,5,04,-0.402777778,-0.400925926,1,0,0,1.3891,Obsidian_rect,5,1.389,1,1,0,1,0,1,,,,,,,,,,,,
5e50cf2e6f8390111edd6211,SCR,2024-06-10_15h00.05.933,LearnStrategy,2023.2.3,Win32,144.9275362,3,1,3,0.080555556,-0.285185185,1,0,0,1.6517,Gabbro_15,4,15,2,5,1.652,4,15,0.12037037,-0.246296296,1,0,0,1.4468,Diorite_rect,3,1.447,0,2,0,2,0,1,,,,,,,,,,,,
5e50cf2e6f8390111edd6211,SCR,2024-06-10_15h00.05.933,LearnStrategy,2023.2.3,Win32,144.9275362,3,1,4,-0.215740741,-0.076851852,1,0,0,0.8735,Pumice_06,8,06,3,3,0.873,8,06,0.444444444,-0.382407407,1,0,0,1.0968,Pumice_rect,8,1.097,1,3,0,3,0,1,,,,,,,,,,,,
5e50cf2e6f8390111edd6211,SCR,2024-06-10_15h00.05.933,LearnStrategy,2023.2.3,Win32,144.9275362,3,1,5,0.525,-0.057407407,1,0,0,1.642,Andesite_07,1,07,3,8,1.642,1,07,0.182407407,-0.238888889,1,0,0,1.363,Diorite_rect,3,1.363,0,4,0,4,0,1,,,,,,,,,,,,
5e50cf2e6f8390111edd6211,SCR,2024-06-10_15h00.05.933,LearnStrategy,2023.2.3,Win32,144.9275362,3,1,6,0.384259259,0.082407407,1,0,0,0.9916,Basalt_14,2,14,4,7,0.992,2,14,-0.100925926,-0.25462963,1,0,0,2.0495,Basalt_rect,2,2.05,1,5,0,5,0,1,,,,,,,,,,,,
5e50cf2e6f8390111edd6211,SCR,2024-06-10_15h00.05.933,LearnStrategy,2023.2.3,Win32,144.9275362,3,1,7,-0.524074074,0.393518519,1,0,0,1.2876,Diorite_10,3,10,6,1,1.288,3,10,-0.321296296,-0.246296296,1,0,0,1.7112,Andesite_rect,1,1.711,0,6,0,6,0,1,,,,,,,,,,,,
5e50cf2e6f8390111edd6211,SCR,2024-06-10_15h00.05.933,LearnStrategy,2023.2.3,Win32,144.9275362,3,1,8,0.085185185,-0.281481481,1,0,0,1.7067,Gabbro_15,4,15,2,5,1.707,4,15,0.087962963,-0.247222222,1,0,0,2.0287,Diorite_rect,3,2.029,0,7,0,7,0,1,,,,,,,,,,,,
5e50cf2e6f8390111edd6211,SCR,2024-06-10_15h00.05.933,LearnStrategy,2023.2.3,Win32,144.9275362,3,1,9,0.415740741,-0.107407407,1,0,0,1.1446,Gabbro_12,4,12,3,7,1.145,4,12,-0.381481481,-0.253703704,1,0,0,2.4675,Andesite_rect,1,2.467,0,8,0,8,0,1,,,,,,,,,,,,
5e50cf2e6f8390111edd6211,SCR,2024-06-10_15h00.05.933,LearnStrategy,2023.2.3,Win32,144.9275362,3,1,10,0.446296296,-0.255555556,1,0,0,0.9085,Basalt_11,2,11,2,7,0.909,2,11,-0.096296296,-0.243518519,1,0,0,1.5577,Basalt_rect,2,1.558,1,9,0,9,0,1,,,,,,,,,,,,
5e50cf2e6f8390111edd6211,SCR,2024-06-10_15h00.05.933,LearnStrategy,2023.2.3,Win32,144.9275362,3,1,11,0.235185185,-0.257407407,1,0,0,1.2208,Basalt_08,2,08,2,6,1.221,2,08,-0.091666667,-0.233333333,1,0,0,2.398,Basalt_rect,2,2.398,1,10,0,10,0,1,,,,,,,,,,,,
5e50cf2e6f8390111edd6211,SCR,2024-06-10_15h00.05.933,LearnStrategy,2023.2.3,Win32,144.9275362,3,1,12,-0.251851852,0.431481481,1,0,0,1.3253,Diorite_09,3,09,6,3,1.325,3,09,0.117592593,-0.242592593,1,0,0,1.3143,Diorite_rect,3,1.314,1,11,0,11,0,1,,,,,,,,,,,,
5e50cf2e6f8390111edd6211,SCR,2024-06-10_15h00.05.933,LearnStrategy,2023.2.3,Win32,144.9275362,3,1,13,-0.387962963,0.407407407,1,0,0,1.2416,Peridotite_06,7,06,6,2,1.242,7,06,0.135185185,-0.387037037,1,0,0,1.7028,Peridotite_rect,7,1.703,1,12,0,12,0,1,,,,,,,,,,,,
5e50cf2e6f8390111edd6211,SCR,2024-06-10_15h00.05.933,LearnStrategy,2023.2.3,Win32,144.9275362,3,1,14,0.528703704,-0.393518519,1,0,0,1.2495,Basalt_09,2,09,1,8,1.25,2,09,-0.110185185,-0.256481481,1,0,0,1.7941,Basalt_rect,2,1.794,1,13,0,13,0,1,,,,,,,,,,,,
5e50cf2e6f8390111edd6211,SCR,2024-06-10_15h00.05.933,LearnStrategy,2023.2.3,Win32,144.9275362,3,1,15,-0.575,-0.268518519,1,0,0,1.3178,Pegmatite_15,6,15,2,1,1.318,6,15,0.137037037,-0.397222222,1,0,0,1.2499,Peridotite_rect,7,1.25,0,14,0,14,0,1,,,,,,,,,,,,
5e50cf2e6f8390111edd6211,SCR,2024-06-10_15h00.05.933,LearnStrategy,2023.2.3,Win32,144.9275362,3,1,16,-0.20462963,-0.378703704,1,0,0,1.2187,Peridotite_12,7,12,1,3,1.219,7,12,0.090740741,-0.399074074,1,0,0,1.1411,Peridotite_rect,7,1.141,1,15,0,15,0,1,,,,,,,,,,,,
5e50cf2e6f8390111edd6211,SCR,2024-06-10_15h00.05.933,LearnStrategy,2023.2.3,Win32,144.9275362,3,2,1,,,,,,,,2,12,,,,,,,,,,,,,2,2.163,1,,,,,,-0.064814815,-0.263888889,1,0,0,2.1625,Basalt_rect,0,0,0,0,1
5e50cf2e6f8390111edd6211,SCR,2024-06-10_15h00.05.933,LearnStrategy,2023.2.3,Win32,144.9275362,3,2,2,,,,,,,,5,06,,,,,,,,,,,,,5,2.072,1,,,,,,-0.351851852,-0.406481481,1,0,0,2.0716,Obsidian_rect,1,0,1,0,1
5e50cf2e6f8390111edd6211,SCR,2024-06-10_15h00.05.933,LearnStrategy,2023.2.3,Win32,144.9275362,3,2,3,,,,,,,,6,16,,,,,,,,,,,,,6,2.058,1,,,,,,-0.157407407,-0.413888889,1,0,0,2.0581,Pegmatite_rect,2,0,2,0,1
5e50cf2e6f8390111edd6211,SCR,2024-06-10_15h00.05.933,LearnStrategy,2023.2.3,Win32,144.9275362,3,2,4,,,,,,,,8,09,,,,,,,,,,,,,8,1.823,1,,,,,,0.383333333,-0.406481481,1,0,0,1.8234,Pumice_rect,3,0,3,0,1
5e50cf2e6f8390111edd6211,SCR,2024-06-10_15h00.05.933,LearnStrategy,2023.2.3,Win32,144.9275362,3,2,5,,,,,,,,5,05,,,,,,,,,,,,,5,1.494,1,,,,,,-0.418518519,-0.415740741,1,0,0,1.4941,Obsidian_rect,4,0,4,0,1
5e50cf2e6f8390111edd6211,SCR,2024-06-10_15h00.05.933,LearnStrategy,2023.2.3,Win32,144.9275362,3,2,6,,,,,,,,7,07,,,,,,,,,,,,,7,1.44,1,,,,,,0.12962963,-0.406481481,1,0,0,1.44,Peridotite_rect,5,0,5,0,1
5e50cf2e6f8390111edd6211,SCR,2024-06-10_15h00.05.933,LearnStrategy,2023.2.3,Win32,144.9275362,3,2,7,,,,,,,,6,07,,,,,,,,,,,,,6,1.509,1,,,,,,-0.100925926,-0.406481481,1,0,0,1.5091,Pegmatite_rect,6,0,6,0,1
5e50cf2e6f8390111edd6211,SCR,2024-06-10_15h00.05.933,LearnStrategy,2023.2.3,Win32,144.9275362,3,2,8,,,,,,,,3,02,,,,,,,,,,,,,3,3.378,1,,,,,,0.124074074,-0.25462963,1,0,0,3.3777,Diorite_rect,7,0,7,0,1
5e50cf2e6f8390111edd6211,SCR,2024-06-10_15h00.05.933,LearnStrategy,2023.2.3,Win32,144.9275362,3,2,9,,,,,,,,2,16,,,,,,,,,,,,,2,1.39,1,,,,,,-0.121296296,-0.258333333,1,0,0,1.3898,Basalt_rect,8,0,8,0,1
5e50cf2e6f8390111edd6211,SCR,2024-06-10_15h00.05.933,LearnStrategy,2023.2.3,Win32,144.9275362,3,2,10,,,,,,,,7,10,,,,,,,,,,,,,7,1.133,1,,,,,,0.069444444,-0.388888889,1,0,0,1.1333,Peridotite_rect,9,0,9,0,1
5e50cf2e6f8390111edd6211,SCR,2024-06-10_15h00.05.933,LearnStrategy,2023.2.3,Win32,144.9275362,3,2,11,,,,,,,,4,11,,,,,,,,,,,,,2,2.037,0,,,,,,-0.117592593,-0.24537037,1,0,0,2.0373,Basalt_rect,10,0,10,0,1
5e50cf2e6f8390111edd6211,SCR,2024-06-10_15h00.05.933,LearnStrategy,2023.2.3,Win32,144.9275362,3,2,12,,,,,,,,1,10,,,,,,,,,,,,,2,1.648,0,,,,,,-0.117592593,-0.24537037,1,0,0,1.6482,Basalt_rect,11,0,11,0,1
5e50cf2e6f8390111edd6211,SCR,2024-06-10_15h00.05.933,LearnStrategy,2023.2.3,Win32,144.9275362,3,2,13,,,,,,,,1,06,,,,,,,,,,,,,1,3.969,1,,,,,,-0.35,-0.237037037,1,0,0,3.9686,Andesite_rect,12,0,12,0,1
5e50cf2e6f8390111edd6211,SCR,2024-06-10_15h00.05.933,LearnStrategy,2023.2.3,Win32,144.9275362,3,2,14,,,,,,,,3,16,,,,,,,,,,,,,3,1.537,1,,,,,,0.093518519,-0.246296296,1,0,0,1.5367,Diorite_rect,13,0,13,0,1
5e50cf2e6f8390111edd6211,SCR,2024-06-10_15h00.05.933,LearnStrategy,2023.2.3,Win32,144.9275362,3,2,15,,,,,,,,8,03,,,,,,,,,,,,,8,1.745,1,,,,,,0.401851852,-0.387962963,1,0,0,1.7447,Pumice_rect,14,0,14,0,1
5e50cf2e6f8390111edd6211,SCR,2024-06-10_15h00.05.933,LearnStrategy,2023.2.3,Win32,144.9275362,3,2,16,,,,,,,,4,03,,,,,,,,,,,,,4,2.1,1,,,,,,0.419444444,-0.246296296,1,0,0,2.0999,Gabbro_rect,15,0,15,0,1
5e50cf2e6f8390111edd6211,SCR,2024-06-10_15h00.05.933,LearnStrategy,2023.2.3,Win32,144.9275362,4,1,1,-0.39537037,-0.101851852,1,0,0,1.2349,Pumice_10,8,10,3,2,1.235,8,10,0.412037037,-0.401851852,1,0,0,1.5235,Pumice_rect,8,1.524,1,0,0,0,0,1,,,,,,,,,,,,
5e50cf2e6f8390111edd6211,SCR,2024-06-10_15h00.05.933,LearnStrategy,2023.2.3,Win32,144.9275362,4,1,2,0.238888889,-0.243518519,1,0,0,1.1379,Basalt_08,2,08,2,6,1.138,2,08,-0.078703704,-0.231481481,1,0,0,1.0507,Basalt_rect,2,1.051,1,1,0,1,0,1,,,,,,,,,,,,
5e50cf2e6f8390111edd6211,SCR,2024-06-10_15h00.05.933,LearnStrategy,2023.2.3,Win32,144.9275362,4,1,3,0.208333333,-0.399074074,1,0,0,1.3388,Basalt_01,2,01,1,6,1.339,2,01,-0.12037037,-0.247222222,1,0,0,1.3066,Basalt_rect,2,1.307,1,2,0,2,0,1,,,,,,,,,,,,
5e50cf2e6f8390111edd6211,SCR,2024-06-10_15h00.05.933,LearnStrategy,2023.2.3,Win32,144.9275362,4,1,4,0.269444444,-0.094444444,1,0,0,1.0732,Gabbro_16,4,16,3,6,1.073,4,16,-0.100925926,-0.240740741,1,0,0,1.5495,Basalt_rect,2,1.55,0,3,0,3,0,1,,,,,,,,,,,,
5e50cf2e6f8390111edd6211,SCR,2024-06-10_15h00.05.933,LearnStrategy,2023.2.3,Win32,144.9275362,4,1,5,0.537037037,-0.412962963,1,0,0,13.793,Basalt_09,2,09,1,8,13.793,2,09,-0.094444444,-0.240740741,1,0,0,1.2702,Basalt_rect,2,1.27,1,4,0,4,0,1,,,,,,,,,,,,
5e50cf2e6f8390111edd6211,SCR,2024-06-10_15h00.05.933,LearnStrategy,2023.2.3,Win32,144.9275362,4,1,6,0.524074074,0.275925926,1,0,0,1.0824,Andesite_05,1,05,5,8,1.082,1,05,0.160185185,-0.390740741,1,0,0,1.7651,Peridotite_rect,7,1.765,0,5,0,5,0,1,,,,,,,,,,,,
5e50cf2e6f8390111edd6211,SCR,2024-06-10_15h00.05.933,LearnStrategy,2023.2.3,Win32,144.9275362,4,1,7,-0.556481481,-0.103703704,1,0,0,1.5896,Peridotite_15,7,15,3,1,1.59,7,15,0.07962963,-0.392592593,1,0,0,1.0011,Peridotite_rect,7,1.001,1,6,0,6,0,1,,,,,,,,,,,,
5e50cf2e6f8390111edd6211,SCR,2024-06-10_15h00.05.933,LearnStrategy,2023.2.3,Win32,144.9275362,4,1,8,0.375925926,-0.106481481,1,0,0,1.2835,Gabbro_12,4,12,3,7,1.284,4,12,-0.376851852,-0.244444444,1,0,0,4.3983,Andesite_rect,1,4.398,0,7,0,7,0,1,,,,,,,,,,,,
5e50cf2e6f8390111edd6211,SCR,2024-06-10_15h00.05.933,LearnStrategy,2023.2.3,Win32,144.9275362,4,1,9,-0.063888889,-0.111111111,1,0,0,0.7778,Obsidian_08,5,08,3,4,0.778,5,08,-0.378703704,-0.389814815,1,0,0,1.1233,Obsidian_rect,5,1.123,1,8,0,8,0,1,,,,,,,,,,,,
5e50cf2e6f8390111edd6211,SCR,2024-06-10_15h00.05.933,LearnStrategy,2023.2.3,Win32,144.9275362,4,1,10,0.211111111,-0.092592593,1,0,0,1.0144,Gabbro_16,4,16,3,6,1.014,4,16,-0.158333333,-0.25462963,1,0,0,1.7113,Basalt_rect,2,1.711,0,9,0,9,0,1,,,,,,,,,,,,
5e50cf2e6f8390111edd6211,SCR,2024-06-10_15h00.05.933,LearnStrategy,2023.2.3,Win32,144.9275362,4,1,11,-0.512962963,-0.414814815,1,0,0,1.3081,Gabbro_08,4,08,1,1,1.308,4,08,-0.425,-0.247222222,1,0,0,6.7301,Andesite_rect,1,6.73,0,10,0,10,0,1,,,,,,,,,,,,
5e50cf2e6f8390111edd6211,SCR,2024-06-10_15h00.05.933,LearnStrategy,2023.2.3,Win32,144.9275362,4,1,12,0.237037037,0.430555556,1,0,0,2.0934,Diorite_07,3,07,6,6,2.093,3,07,0.143518519,-0.251851852,1,0,0,1.0372,Diorite_rect,3,1.037,1,11,0,11,0,1,,,,,,,,,,,,
5e50cf2e6f8390111edd6211,SCR,2024-06-10_15h00.05.933,LearnStrategy,2023.2.3,Win32,144.9275362,4,1,13,-0.278703704,0.42037037,1,0,0,1.1309,Diorite_09,3,09,6,3,1.131,3,09,0.101851852,-0.262962963,1,0,0,1.2111,Diorite_rect,3,1.211,1,12,0,12,0,1,,,,,,,,,,,,
5e50cf2e6f8390111edd6211,SCR,2024-06-10_15h00.05.933,LearnStrategy,2023.2.3,Win32,144.9275362,4,1,14,0.213888889,0.246296296,1,0,0,1.0685,Andesite_11,1,11,5,6,1.069,1,11,0.119444444,-0.263888889,1,0,0,1.7933,Diorite_rect,3,1.793,0,13,0,13,0,1,,,,,,,,,,,,
5e50cf2e6f8390111edd6211,SCR,2024-06-10_15h00.05.933,LearnStrategy,2023.2.3,Win32,144.9275362,4,1,15,0.061111111,0.383333333,1,0,0,1.2549,Pegmatite_10,6,10,6,5,1.255,6,10,-0.132407407,-0.396296296,1,0,0,0.9469,Pegmatite_rect,6,0.947,1,14,0,14,0,1,,,,,,,,,,,,
5e50cf2e6f8390111edd6211,SCR,2024-06-10_15h00.05.933,LearnStrategy,2023.2.3,Win32,144.9275362,4,1,16,0.090740741,-0.386111111,1,0,0,1.0754,Andesite_16,1,16,1,5,1.075,1,16,0.12037037,-0.243518519,1,0,0,2.1826,Diorite_rect,3,2.183,0,15,0,15,0,1,,,,,,,,,,,,
5e50cf2e6f8390111edd6211,SCR,2024-06-10_15h00.05.933,LearnStrategy,2023.2.3,Win32,144.9275362,4,2,1,,,,,,,,8,09,,,,,,,,,,,,,8,1.302,1,,,,,,0.368518519,-0.380555556,1,0,0,1.3022,Pumice_rect,0,0,0,0,1
5e50cf2e6f8390111edd6211,SCR,2024-06-10_15h00.05.933,LearnStrategy,2023.2.3,Win32,144.9275362,4,2,2,,,,,,,,3,11,,,,,,,,,,,,,1,5.391,0,,,,,,-0.361111111,-0.235185185,1,0,0,5.3914,Andesite_rect,1,0,1,0,1
5e50cf2e6f8390111edd6211,SCR,2024-06-10_15h00.05.933,LearnStrategy,2023.2.3,Win32,144.9275362,4,2,3,,,,,,,,1,06,,,,,,,,,,,,,1,3.342,1,,,,,,-0.361111111,-0.235185185,1,0,0,3.3423,Andesite_rect,2,0,2,0,1
5e50cf2e6f8390111edd6211,SCR,2024-06-10_15h00.05.933,LearnStrategy,2023.2.3,Win32,144.9275362,4,2,4,,,,,,,,7,10,,,,,,,,,,,,,7,1.392,1,,,,,,0.102777778,-0.387037037,1,0,0,1.3917,Peridotite_rect,3,0,3,0,1
5e50cf2e6f8390111edd6211,SCR,2024-06-10_15h00.05.933,LearnStrategy,2023.2.3,Win32,144.9275362,4,2,5,,,,,,,,6,06,,,,,,,,,,,,,6,1.543,1,,,,,,-0.121296296,-0.389814815,1,0,0,1.5429,Pegmatite_rect,4,0,4,0,1
5e50cf2e6f8390111edd6211,SCR,2024-06-10_15h00.05.933,LearnStrategy,2023.2.3,Win32,144.9275362,4,2,6,,,,,,,,6,13,,,,,,,,,,,,,6,1.088,1,,,,,,-0.121296296,-0.389814815,1,0,0,1.088,Pegmatite_rect,5,0,5,0,1
5e50cf2e6f8390111edd6211,SCR,2024-06-10_15h00.05.933,LearnStrategy,2023.2.3,Win32,144.9275362,4,2,7,,,,,,,,1,09,,,,,,,,,,,,,4,3.685,0,,,,,,0.394444444,-0.262037037,1,0,0,3.6851,Gabbro_rect,6,0,6,0,1
5e50cf2e6f8390111edd6211,SCR,2024-06-10_15h00.05.933,LearnStrategy,2023.2.3,Win32,144.9275362,4,2,8,,,,,,,,7,14,,,,,,,,,,,,,7,1.342,1,,,,,,0.173148148,-0.383333333,1,0,0,1.3416,Peridotite_rect,7,0,7,0,1
5e50cf2e6f8390111edd6211,SCR,2024-06-10_15h00.05.933,LearnStrategy,2023.2.3,Win32,144.9275362,4,2,9,,,,,,,,3,12,,,,,,,,,,,,,1,3.141,0,,,,,,-0.374074074,-0.231481481,1,0,0,3.1408,Andesite_rect,8,0,8,0,1
5e50cf2e6f8390111edd6211,SCR,2024-06-10_15h00.05.933,LearnStrategy,2023.2.3,Win32,144.9275362,4,2,10,,,,,,,,8,13,,,,,,,,,,,,,8,2.258,1,,,,,,0.40462963,-0.403703704,1,0,0,2.258,Pumice_rect,9,0,9,0,1
5e50cf2e6f8390111edd6211,SCR,2024-06-10_15h00.05.933,LearnStrategy,2023.2.3,Win32,144.9275362,4,2,11,,,,,,,,4,13,,,,,,,,,,,,,2,4.845,0,,,,,,-0.162037037,-0.255555556,1,0,0,4.8446,Basalt_rect,10,0,10,0,1
5e50cf2e6f8390111edd6211,SCR,2024-06-10_15h00.05.933,LearnStrategy,2023.2.3,Win32,144.9275362,4,2,12,,,,,,,,5,06,,,,,,,,,,,,,5,1.349,1,,,,,,-0.37037037,-0.387962963,1,0,0,1.3487,Obsidian_rect,11,0,11,0,1
5e50cf2e6f8390111edd6211,SCR,2024-06-10_15h00.05.933,LearnStrategy,2023.2.3,Win32,144.9275362,4,2,13,,,,,,,,4,01,,,,,,,,,,,,,7,3.175,0,,,,,,0.112037037,-0.39537037,1,0,0,3.175,Peridotite_rect,12,0,12,0,1
5e50cf2e6f8390111edd6211,SCR,2024-06-10_15h00.05.933,LearnStrategy,2023.2.3,Win32,144.9275362,4,2,14,,,,,,,,2,10,,,,,,,,,,,,,7,0.44,0,,,,,,0.112037037,-0.39537037,0,0,1,0.4397,Peridotite_rect,13,0,13,0,1
5e50cf2e6f8390111edd6211,SCR,2024-06-10_15h00.05.933,LearnStrategy,2023.2.3,Win32,144.9275362,4,2,15,,,,,,,,2,06,,,,,,,,,,,,,2,2.448,1,,,,,,-0.137037037,-0.235185185,1,0,0,2.4477,Basalt_rect,14,0,14,0,1
5e50cf2e6f8390111edd6211,SCR,2024-06-10_15h00.05.933,LearnStrategy,2023.2.3,Win32,144.9275362,4,2,16,,,,,,,,5,11,,,,,,,,,,,,,5,1.078,1,,,,,,-0.364814815,-0.406481481,1,0,0,1.0776,Obsidian_rect,15,0,15,0,1
5e50cf2e6f8390111edd6211,SCR,2024-06-10_15h00.05.933,LearnStrategy,2023.2.3,Win32,144.9275362,5,1,1,0.550925926,-0.238888889,1,0,0,3.1036,Basalt_05,2,05,2,8,3.104,2,05,-0.17962963,-0.239814815,1,0,0,1.1477,Basalt_rect,2,1.148,1,0,0,0,0,1,,,,,,,,,,,,
5e50cf2e6f8390111edd6211,SCR,2024-06-10_15h00.05.933,LearnStrategy,2023.2.3,Win32,144.9275362,5,1,2,0.234259259,0.234259259,1,0,0,1.1587,Andesite_11,1,11,5,6,1.159,1,11,-0.392592593,-0.240740741,1,0,0,3.2162,Andesite_rect,1,3.216,1,1,0,1,0,1,,,,,,,,,,,,
5e50cf2e6f8390111edd6211,SCR,2024-06-10_15h00.05.933,LearnStrategy,2023.2.3,Win32,144.9275362,5,1,3,-0.236111111,0.428703704,1,0,0,1.5566,Diorite_09,3,09,6,3,1.557,3,09,0.139814815,-0.250925926,1,0,0,2.0557,Diorite_rect,3,2.056,1,2,0,2,0,1,,,,,,,,,,,,
5e50cf2e6f8390111edd6211,SCR,2024-06-10_15h00.05.933,LearnStrategy,2023.2.3,Win32,144.9275362,5,1,4,-0.281481481,-0.423148148,1,0,0,1.332,Peridotite_12,7,12,1,3,1.332,7,12,0.068518519,-0.393518519,1,0,0,1.1548,Peridotite_rect,7,1.155,1,3,0,3,0,1,,,,,,,,,,,,
5e50cf2e6f8390111edd6211,SCR,2024-06-10_15h00.05.933,LearnStrategy,2023.2.3,Win32,144.9275362,5,1,5,-0.583333333,-0.416666667,1,0,0,1.1034,Gabbro_08,4,08,1,1,1.103,4,08,0.393518519,-0.262037037,1,0,0,3.8065,Gabbro_rect,4,3.807,1,4,0,4,0,1,,,,,,,,,,,,
5e50cf2e6f8390111edd6211,SCR,2024-06-10_15h00.05.933,LearnStrategy,2023.2.3,Win32,144.9275362,5,1,6,-0.54537037,0.25,1,0,0,1.1654,Diorite_06,3,06,5,1,1.165,3,06,0.415740741,-0.242592593,1,0,0,2.87,Gabbro_rect,4,2.87,0,5,0,5,0,1,,,,,,,,,,,,
5e50cf2e6f8390111edd6211,SCR,2024-06-10_15h00.05.933,LearnStrategy,2023.2.3,Win32,144.9275362,5,1,7,0.221296296,-0.408333333,1,0,0,1.6981,Basalt_01,2,01,1,6,1.698,2,01,-0.116666667,-0.249074074,1,0,0,1.015,Basalt_rect,2,1.015,1,6,0,6,0,1,,,,,,,,,,,,
5e50cf2e6f8390111edd6211,SCR,2024-06-10_15h00.05.933,LearnStrategy,2023.2.3,Win32,144.9275362,5,1,8,0.555555556,-0.416666667,1,0,0,1.1937,Basalt_09,2,09,1,8,1.194,2,09,-0.107407407,-0.251851852,1,0,0,1.2101,Basalt_rect,2,1.21,1,7,0,7,0,1,,,,,,,,,,,,
5e50cf2e6f8390111edd6211,SCR,2024-06-10_15h00.05.933,LearnStrategy,2023.2.3,Win32,144.9275362,5,1,9,0.225925926,0.398148148,1,0,0,1.2629,Diorite_07,3,07,6,6,1.263,3,07,0.130555556,-0.265740741,1,0,0,1.1063,Diorite_rect,3,1.106,1,8,0,8,0,1,,,,,,,,,,,,
5e50cf2e6f8390111edd6211,SCR,2024-06-10_15h00.05.933,LearnStrategy,2023.2.3,Win32,144.9275362,5,1,10,-0.093518519,-0.085185185,1,0,0,0.7676,Obsidian_08,5,08,3,4,0.768,5,08,-0.436111111,-0.397222222,1,0,0,0.9813,Obsidian_rect,5,0.981,1,9,0,9,0,1,,,,,,,,,,,,
5e50cf2e6f8390111edd6211,SCR,2024-06-10_15h00.05.933,LearnStrategy,2023.2.3,Win32,144.9275362,5,1,11,-0.399074074,-0.096296296,1,0,0,0.9783,Pumice_10,8,10,3,2,0.978,8,10,0.401851852,-0.391666667,1,0,0,1.3836,Pumice_rect,8,1.384,1,10,0,10,0,1,,,,,,,,,,,,
5e50cf2e6f8390111edd6211,SCR,2024-06-10_15h00.05.933,LearnStrategy,2023.2.3,Win32,144.9275362,5,1,12,-0.562037037,-0.257407407,1,0,0,1.2839,Pegmatite_15,6,15,2,1,1.284,6,15,-0.102777778,-0.409259259,1,0,0,0.7521,Pegmatite_rect,6,0.752,1,11,0,11,0,1,,,,,,,,,,,,
5e50cf2e6f8390111edd6211,SCR,2024-06-10_15h00.05.933,LearnStrategy,2023.2.3,Win32,144.9275362,5,1,13,0.435185185,-0.118518519,1,0,0,1.6034,Gabbro_12,4,12,3,7,1.603,4,12,0.386111111,-0.239814815,1,0,0,1.1062,Gabbro_rect,4,1.106,1,12,0,12,0,1,,,,,,,,,,,,
5e50cf2e6f8390111edd6211,SCR,2024-06-10_15h00.05.933,LearnStrategy,2023.2.3,Win32,144.9275362,5,1,14,0.063888889,-0.107407407,1,0,0,1.1102,Gabbro_05,4,05,3,5,1.11,4,05,-0.137037037,-0.246296296,1,0,0,2.5373,Basalt_rect,2,2.537,0,13,0,13,0,1,,,,,,,,,,,,
5e50cf2e6f8390111edd6211,SCR,2024-06-10_15h00.05.933,LearnStrategy,2023.2.3,Win32,144.9275362,5,1,15,0.421296296,0.27962963,1,0,0,1.3439,Gabbro_10,4,10,5,7,1.344,4,10,-0.085185185,-0.236111111,1,0,0,1.2176,Basalt_rect,2,1.218,0,14,0,14,0,1,,,,,,,,,,,,
5e50cf2e6f8390111edd6211,SCR,2024-06-10_15h00.05.933,LearnStrategy,2023.2.3,Win32,144.9275362,5,1,16,0.568518519,0.238888889,1,0,0,1.1865,Andesite_05,1,05,5,8,1.187,1,05,-0.131481481,-0.401851852,1,0,0,3.4735,Pegmatite_rect,6,3.474,0,15,0,15,0,1,,,,,,,,,,,,
5e50cf2e6f8390111edd6211,SCR,2024-06-10_15h00.05.933,LearnStrategy,2023.2.3,Win32,144.9275362,5,2,1,,,,,,,,5,09,,,,,,,,,,,,,5,2.1,1,,,,,,-0.380555556,-0.402777778,1,0,0,2.0999,Obsidian_rect,0,0,0,0,1
5e50cf2e6f8390111edd6211,SCR,2024-06-10_15h00.05.933,LearnStrategy,2023.2.3,Win32,144.9275362,5,2,2,,,,,,,,6,07,,,,,,,,,,,,,6,3.224,1,,,,,,-0.1,-0.394444444,1,0,0,3.2237,Pegmatite_rect,1,0,1,0,1
5e50cf2e6f8390111edd6211,SCR,2024-06-10_15h00.05.933,LearnStrategy,2023.2.3,Win32,144.9275362,5,2,3,,,,,,,,2,16,,,,,,,,,,,,,2,1.287,1,,,,,,-0.086111111,-0.257407407,1,0,0,1.2873,Basalt_rect,2,0,2,0,1
5e50cf2e6f8390111edd6211,SCR,2024-06-10_15h00.05.933,LearnStrategy,2023.2.3,Win32,144.9275362,5,2,4,,,,,,,,8,02,,,,,,,,,,,,,8,1.175,1,,,,,,0.371296296,-0.394444444,1,0,0,1.1752,Pumice_rect,3,0,3,0,1
5e50cf2e6f8390111edd6211,SCR,2024-06-10_15h00.05.933,LearnStrategy,2023.2.3,Win32,144.9275362,5,2,5,,,,,,,,7,04,,,,,,,,,,,,,1,4.585,0,,,,,,-0.365740741,-0.240740741,1,0,0,4.5846,Andesite_rect,4,0,4,0,1
5e50cf2e6f8390111edd6211,SCR,2024-06-10_15h00.05.933,LearnStrategy,2023.2.3,Win32,144.9275362,5,2,6,,,,,,,,1,14,,,,,,,,,,,,,1,1.371,1,,,,,,-0.365740741,-0.240740741,1,0,0,1.3711,Andesite_rect,5,0,5,0,1
5e50cf2e6f8390111edd6211,SCR,2024-06-10_15h00.05.933,LearnStrategy,2023.2.3,Win32,144.9275362,5,2,7,,,,,,,,3,13,,,,,,,,,,,,,3,1.362,1,,,,,,0.147222222,-0.256481481,1,0,0,1.3624,Diorite_rect,6,0,6,0,1
5e50cf2e6f8390111edd6211,SCR,2024-06-10_15h00.05.933,LearnStrategy,2023.2.3,Win32,144.9275362,5,2,8,,,,,,,,3,16,,,,,,,,,,,,,3,0.843,1,,,,,,0.148148148,-0.256481481,1,0,0,0.8429,Diorite_rect,7,0,7,0,1
5e50cf2e6f8390111edd6211,SCR,2024-06-10_15h00.05.933,LearnStrategy,2023.2.3,Win32,144.9275362,5,2,9,,,,,,,,5,05,,,,,,,,,,,,,5,2.613,1,,,,,,-0.377777778,-0.396296296,1,0,0,2.6132,Obsidian_rect,8,0,8,0,1
5e50cf2e6f8390111edd6211,SCR,2024-06-10_15h00.05.933,LearnStrategy,2023.2.3,Win32,144.9275362,5,2,10,,,,,,,,7,05,,,,,,,,,,,,,7,1.432,1,,,,,,0.112962963,-0.401851852,1,0,0,1.4319,Peridotite_rect,9,0,9,0,1
5e50cf2e6f8390111edd6211,SCR,2024-06-10_15h00.05.933,LearnStrategy,2023.2.3,Win32,144.9275362,5,2,11,,,,,,,,1,10,,,,,,,,,,,,,2,2.216,0,,,,,,-0.190740741,-0.252777778,1,0,0,2.2162,Basalt_rect,10,0,10,0,1
5e50cf2e6f8390111edd6211,SCR,2024-06-10_15h00.05.933,LearnStrategy,2023.2.3,Win32,144.9275362,5,2,12,,,,,,,,6,16,,,,,,,,,,,,,1,1.975,0,,,,,,-0.361111111,-0.236111111,1,0,0,1.9754,Andesite_rect,11,0,11,0,1
5e50cf2e6f8390111edd6211,SCR,2024-06-10_15h00.05.933,LearnStrategy,2023.2.3,Win32,144.9275362,5,2,13,,,,,,,,2,12,,,,,,,,,,,,,2,2.329,1,,,,,,-0.125,-0.239814815,1,0,0,2.329,Basalt_rect,12,0,12,0,1
5e50cf2e6f8390111edd6211,SCR,2024-06-10_15h00.05.933,LearnStrategy,2023.2.3,Win32,144.9275362,5,2,14,,,,,,,,8,03,,,,,,,,,,,,,8,1.426,1,,,,,,0.387037037,-0.394444444,1,0,0,1.4257,Pumice_rect,13,0,13,0,1
5e50cf2e6f8390111edd6211,SCR,2024-06-10_15h00.05.933,LearnStrategy,2023.2.3,Win32,144.9275362,5,2,15,,,,,,,,4,14,,,,,,,,,,,,,2,2.822,0,,,,,,-0.146296296,-0.237037037,1,0,0,2.8216,Basalt_rect,14,0,14,0,1
5e50cf2e6f8390111edd6211,SCR,2024-06-10_15h00.05.933,LearnStrategy,2023.2.3,Win32,144.9275362,5,2,16,,,,,,,,4,11,,,,,,,,,,,,,4,2.739,1,,,,,,0.399074074,-0.238888889,1,0,0,2.7388,Gabbro_rect,15,0,15,0,1
5e50cf2e6f8390111edd6211,SCR,2024-06-10_15h00.05.933,LearnStrategy,2023.2.3,Win32,144.9275362,6,1,1,0.080555556,0.376851852,1,0,0,1.4367,Pegmatite_10,6,10,6,5,1.437,6,10,-0.100925926,-0.406481481,1,0,0,1.0954,Pegmatite_rect,6,1.095,1,0,0,0,0,1,,,,,,,,,,,,
5e50cf2e6f8390111edd6211,SCR,2024-06-10_15h00.05.933,LearnStrategy,2023.2.3,Win32,144.9275362,6,1,2,0.261111111,-0.09537037,1,0,0,1.0561,Gabbro_16,4,16,3,6,1.056,4,16,0.402777778,-0.251851852,1,0,0,2.3463,Gabbro_rect,4,2.346,1,1,0,1,0,1,,,,,,,,,,,,
5e50cf2e6f8390111edd6211,SCR,2024-06-10_15h00.05.933,LearnStrategy,2023.2.3,Win32,144.9275362,6,1,3,-0.289814815,-0.423148148,1,0,0,1.0269,Peridotite_12,7,12,1,3,1.027,7,12,0.162037037,-0.412037037,1,0,0,1.0603,Peridotite_rect,7,1.06,1,2,0,2,0,1,,,,,,,,,,,,
5e50cf2e6f8390111edd6211,SCR,2024-06-10_15h00.05.933,LearnStrategy,2023.2.3,Win32,144.9275362,6,1,4,0.065740741,-0.37037037,1,0,0,1.2541,Andesite_16,1,16,1,5,1.254,1,16,-0.346296296,-0.235185185,1,0,0,1.3499,Andesite_rect,1,1.35,1,3,0,3,0,1,,,,,,,,,,,,
5e50cf2e6f8390111edd6211,SCR,2024-06-10_15h00.05.933,LearnStrategy,2023.2.3,Win32,144.9275362,6,1,5,0.574074074,-0.261111111,1,0,0,1.1377,Basalt_05,2,05,2,8,1.138,2,05,-0.135185185,-0.235185185,1,0,0,1.6617,Basalt_rect,2,1.662,1,4,0,4,0,1,,,,,,,,,,,,
5e50cf2e6f8390111edd6211,SCR,2024-06-10_15h00.05.933,LearnStrategy,2023.2.3,Win32,144.9275362,6,1,6,-0.538888889,-0.117592593,1,0,0,1.0477,Peridotite_15,7,15,3,1,1.048,7,15,0.166666667,-0.410185185,1,0,0,1.0647,Peridotite_rect,7,1.065,1,5,0,5,0,1,,,,,,,,,,,,
5e50cf2e6f8390111edd6211,SCR,2024-06-10_15h00.05.933,LearnStrategy,2023.2.3,Win32,144.9275362,6,1,7,-0.57037037,-0.267592593,1,0,0,1.1379,Pegmatite_15,6,15,2,1,1.138,6,15,-0.118518519,-0.407407407,1,0,0,0.9119,Pegmatite_rect,6,0.912,1,6,0,6,0,1,,,,,,,,,,,,
5e50cf2e6f8390111edd6211,SCR,2024-06-10_15h00.05.933,LearnStrategy,2023.2.3,Win32,144.9275362,6,1,8,0.358333333,0.240740741,1,0,0,1.4571,Gabbro_10,4,10,5,7,1.457,4,10,-0.113888889,-0.267592593,1,0,0,1.7032,Basalt_rect,2,1.703,0,7,0,7,0,1,,,,,,,,,,,,
5e50cf2e6f8390111edd6211,SCR,2024-06-10_15h00.05.933,LearnStrategy,2023.2.3,Win32,144.9275362,6,1,9,-0.598148148,0.262962963,1,0,0,1.2004,Diorite_06,3,06,5,1,1.2,3,06,-0.447222222,-0.242592593,1,0,0,2.8208,Andesite_rect,1,2.821,0,8,0,8,0,1,,,,,,,,,,,,
5e50cf2e6f8390111edd6211,SCR,2024-06-10_15h00.05.933,LearnStrategy,2023.2.3,Win32,144.9275362,6,1,10,0.053703704,0.087037037,1,0,0,0.9162,Diorite_14,3,14,4,5,0.916,3,14,0.099074074,-0.236111111,1,0,0,0.91,Diorite_rect,3,0.91,1,9,0,9,0,1,,,,,,,,,,,,
5e50cf2e6f8390111edd6211,SCR,2024-06-10_15h00.05.933,LearnStrategy,2023.2.3,Win32,144.9275362,6,1,11,0.087037037,-0.272222222,1,0,0,0.9503,Gabbro_15,4,15,2,5,0.95,4,15,0.123148148,-0.24537037,1,0,0,1.3983,Diorite_rect,3,1.398,0,10,0,10,0,1,,,,,,,,,,,,
5e50cf2e6f8390111edd6211,SCR,2024-06-10_15h00.05.933,LearnStrategy,2023.2.3,Win32,144.9275362,6,1,12,0.369444444,-0.106481481,1,0,0,0.9292,Gabbro_12,4,12,3,7,0.929,4,12,0.391666667,-0.246296296,1,0,0,1.1827,Gabbro_rect,4,1.183,1,11,0,11,0,1,,,,,,,,,,,,
5e50cf2e6f8390111edd6211,SCR,2024-06-10_15h00.05.933,LearnStrategy,2023.2.3,Win32,144.9275362,6,1,13,-0.571296296,0.087037037,1,0,0,1.1652,Pumice_05,8,05,4,1,1.165,8,05,0.45,-0.401851852,1,0,0,0.9117,Pumice_rect,8,0.912,1,12,0,12,0,1,,,,,,,,,,,,
5e50cf2e6f8390111edd6211,SCR,2024-06-10_15h00.05.933,LearnStrategy,2023.2.3,Win32,144.9275362,6,1,14,-0.372222222,0.098148148,1,0,0,1.6373,Andesite_04,1,04,4,2,1.637,1,04,-0.423148148,-0.242592593,1,0,0,1.5025,Andesite_rect,1,1.502,1,13,0,13,0,1,,,,,,,,,,,,
5e50cf2e6f8390111edd6211,SCR,2024-06-10_15h00.05.933,LearnStrategy,2023.2.3,Win32,144.9275362,6,1,15,-0.078703704,0.382407407,1,0,0,1.2764,Obsidian_02,5,02,6,4,1.276,5,02,-0.439814815,-0.411111111,1,0,0,1.0484,Obsidian_rect,5,1.048,1,14,0,14,0,1,,,,,,,,,,,,
5e50cf2e6f8390111edd6211,SCR,2024-06-10_15h00.05.933,LearnStrategy,2023.2.3,Win32,144.9275362,6,1,16,0.523148148,-0.236111111,1,0,0,1.0732,Basalt_05,2,05,2,8,1.073,2,05,-0.093518519,-0.257407407,1,0,0,1.0297,Basalt_rect,2,1.03,1,15,0,15,0,1,,,,,,,,,,,,
5e50cf2e6f8390111edd6211,SCR,2024-06-10_15h00.05.933,LearnStrategy,2023.2.3,Win32,144.9275362,6,2,1,,,,,,,,2,04,,,,,,,,,,,,,2,1.543,1,,,,,,-0.161111111,-0.25,1,0,0,1.5427,Basalt_rect,0,0,0,0,1
5e50cf2e6f8390111edd6211,SCR,2024-06-10_15h00.05.933,LearnStrategy,2023.2.3,Win32,144.9275362,6,2,2,,,,,,,,1,01,,,,,,,,,,,,,3,4.238,0,,,,,,0.1,-0.264814815,1,0,0,4.2383,Diorite_rect,1,0,1,0,1
5e50cf2e6f8390111edd6211,SCR,2024-06-10_15h00.05.933,LearnStrategy,2023.2.3,Win32,144.9275362,6,2,3,,,,,,,,4,03,,,,,,,,,,,,,4,1.919,1,,,,,,0.348148148,-0.256481481,1,0,0,1.9193,Gabbro_rect,2,0,2,0,1
5e50cf2e6f8390111edd6211,SCR,2024-06-10_15h00.05.933,LearnStrategy,2023.2.3,Win32,144.9275362,6,2,4,,,,,,,,7,07,,,,,,,,,,,,,7,1.789,1,,,,,,0.161111111,-0.4,1,0,0,1.7886,Peridotite_rect,3,0,3,0,1
5e50cf2e6f8390111edd6211,SCR,2024-06-10_15h00.05.933,LearnStrategy,2023.2.3,Win32,144.9275362,6,2,5,,,,,,,,3,02,,,,,,,,,,,,,3,1.711,1,,,,,,0.183333333,-0.264814815,1,0,0,1.7108,Diorite_rect,4,0,4,0,1
5e50cf2e6f8390111edd6211,SCR,2024-06-10_15h00.05.933,LearnStrategy,2023.2.3,Win32,144.9275362,6,2,6,,,,,,,,4,09,,,,,,,,,,,,,2,1.212,0,,,,,,-0.087962963,-0.246296296,1,0,0,1.2122,Basalt_rect,5,0,5,0,1
5e50cf2e6f8390111edd6211,SCR,2024-06-10_15h00.05.933,LearnStrategy,2023.2.3,Win32,144.9275362,6,2,7,,,,,,,,5,12,,,,,,,,,,,,,5,1.071,1,,,,,,-0.450925926,-0.419444444,1,0,0,1.0707,Obsidian_rect,6,0,6,0,1
5e50cf2e6f8390111edd6211,SCR,2024-06-10_15h00.05.933,LearnStrategy,2023.2.3,Win32,144.9275362,6,2,8,,,,,,,,6,09,,,,,,,,,,,,,6,3.218,1,,,,,,-0.15462963,-0.408333333,1,0,0,3.2177,Pegmatite_rect,7,0,7,0,1
5e50cf2e6f8390111edd6211,SCR,2024-06-10_15h00.05.933,LearnStrategy,2023.2.3,Win32,144.9275362,6,2,9,,,,,,,,1,03,,,,,,,,,,,,,1,2.08,1,,,,,,-0.381481481,-0.255555556,1,0,0,2.08,Andesite_rect,8,0,8,0,1
5e50cf2e6f8390111edd6211,SCR,2024-06-10_15h00.05.933,LearnStrategy,2023.2.3,Win32,144.9275362,6,2,10,,,,,,,,8,08,,,,,,,,,,,,,8,1.314,1,,,,,,0.352777778,-0.391666667,1,0,0,1.3137,Pumice_rect,9,0,9,0,1
5e50cf2e6f8390111edd6211,SCR,2024-06-10_15h00.05.933,LearnStrategy,2023.2.3,Win32,144.9275362,6,2,11,,,,,,,,3,15,,,,,,,,,,,,,4,4.905,0,,,,,,0.347222222,-0.262962963,1,0,0,4.9046,Gabbro_rect,10,0,10,0,1
5e50cf2e6f8390111edd6211,SCR,2024-06-10_15h00.05.933,LearnStrategy,2023.2.3,Win32,144.9275362,6,2,12,,,,,,,,5,07,,,,,,,,,,,,,5,1.178,1,,,,,,-0.385185185,-0.403703704,1,0,0,1.1778,Obsidian_rect,11,0,11,0,1
5e50cf2e6f8390111edd6211,SCR,2024-06-10_15h00.05.933,LearnStrategy,2023.2.3,Win32,144.9275362,6,2,13,,,,,,,,6,11,,,,,,,,,,,,,6,1.238,1,,,,,,-0.130555556,-0.387037037,1,0,0,1.2379,Pegmatite_rect,12,0,12,0,1
5e50cf2e6f8390111edd6211,SCR,2024-06-10_15h00.05.933,LearnStrategy,2023.2.3,Win32,144.9275362,6,2,14,,,,,,,,7,16,,,,,,,,,,,,,7,1.259,1,,,,,,0.077777778,-0.394444444,1,0,0,1.2594,Peridotite_rect,13,0,13,0,1
5e50cf2e6f8390111edd6211,SCR,2024-06-10_15h00.05.933,LearnStrategy,2023.2.3,Win32,144.9275362,6,2,15,,,,,,,,8,04,,,,,,,,,,,,,8,1.148,1,,,,,,0.348148148,-0.380555556,1,0,0,1.1475,Pumice_rect,14,0,14,0,1
5e50cf2e6f8390111edd6211,SCR,2024-06-10_15h00.05.933,LearnStrategy,2023.2.3,Win32,144.9275362,6,2,16,,,,,,,,2,02,,,,,,,,,,,,,2,1.226,1,,,,,,-0.156481481,-0.246296296,1,0,0,1.2264,Basalt_rect,15,0,15,0,1
5e50cf2e6f8390111edd6211,SCR,2024-06-10_15h00.05.933,LearnStrategy,2023.2.3,Win32,144.9275362,7,1,1,0.536111111,0.103703704,1,0,0,1.9503,Diorite_08,3,08,4,8,1.95,3,08,0.159259259,-0.248148148,1,0,0,1.0296,Diorite_rect,3,1.03,1,0,0,0,0,1,,,,,,,,,,,,
5e50cf2e6f8390111edd6211,SCR,2024-06-10_15h00.05.933,LearnStrategy,2023.2.3,Win32,144.9275362,7,1,2,0.2,0.393518519,1,0,0,1.2003,Diorite_07,3,07,6,6,1.2,3,07,0.137962963,-0.237037037,1,0,0,1.2462,Diorite_rect,3,1.246,1,1,0,1,0,1,,,,,,,,,,,,
5e50cf2e6f8390111edd6211,SCR,2024-06-10_15h00.05.933,LearnStrategy,2023.2.3,Win32,144.9275362,7,1,3,0.072222222,-0.096296296,1,0,0,0.8114,Gabbro_05,4,05,3,5,0.811,4,05,-0.098148148,-0.237962963,1,0,0,1.8285,Basalt_rect,2,1.829,0,2,0,2,0,1,,,,,,,,,,,,
5e50cf2e6f8390111edd6211,SCR,2024-06-10_15h00.05.933,LearnStrategy,2023.2.3,Win32,144.9275362,7,1,4,0.387962963,0.412037037,1,0,0,1.5193,Pegmatite_03,6,03,6,7,1.519,6,03,-0.109259259,-0.391666667,1,0,0,1.3083,Pegmatite_rect,6,1.308,1,3,0,3,0,1,,,,,,,,,,,,
5e50cf2e6f8390111edd6211,SCR,2024-06-10_15h00.05.933,LearnStrategy,2023.2.3,Win32,144.9275362,7,1,5,-0.085185185,0.103703704,1,0,0,0.9367,Pumice_14,8,14,4,4,0.937,8,14,0.415740741,-0.40462963,1,0,0,0.9504,Pumice_rect,8,0.95,1,4,0,4,0,1,,,,,,,,,,,,
5e50cf2e6f8390111edd6211,SCR,2024-06-10_15h00.05.933,LearnStrategy,2023.2.3,Win32,144.9275362,7,1,6,0.523148148,0.235185185,1,0,0,1.4411,Andesite_05,1,05,5,8,1.441,1,05,-0.353703704,-0.249074074,1,0,0,2.0853,Andesite_rect,1,2.085,1,5,0,5,0,1,,,,,,,,,,,,
5e50cf2e6f8390111edd6211,SCR,2024-06-10_15h00.05.933,LearnStrategy,2023.2.3,Win32,144.9275362,7,1,7,-0.091666667,0.415740741,1,0,0,1.8141,Obsidian_02,5,02,6,4,1.814,5,02,-0.40462963,-0.403703704,1,0,0,1.0793,Obsidian_rect,5,1.079,1,6,0,6,0,1,,,,,,,,,,,,
5e50cf2e6f8390111edd6211,SCR,2024-06-10_15h00.05.933,LearnStrategy,2023.2.3,Win32,144.9275362,7,1,8,0.230555556,0.393518519,1,0,0,1.2052,Diorite_07,3,07,6,6,1.205,3,07,0.174074074,-0.251851852,1,0,0,1.5014,Diorite_rect,3,1.501,1,7,0,7,0,1,,,,,,,,,,,,
5e50cf2e6f8390111edd6211,SCR,2024-06-10_15h00.05.933,LearnStrategy,2023.2.3,Win32,144.9275362,7,1,9,0.271296296,-0.272222222,1,0,0,1.0341,Basalt_08,2,08,2,6,1.034,2,08,-0.138888889,-0.257407407,1,0,0,1.3471,Basalt_rect,2,1.347,1,8,0,8,0,1,,,,,,,,,,,,
5e50cf2e6f8390111edd6211,SCR,2024-06-10_15h00.05.933,LearnStrategy,2023.2.3,Win32,144.9275362,7,1,10,0.075925926,-0.253703704,1,0,0,0.9229,Gabbro_15,4,15,2,5,0.923,4,15,-0.366666667,-0.237037037,1,0,0,2.4053,Andesite_rect,1,2.405,0,9,0,9,0,1,,,,,,,,,,,,
5e50cf2e6f8390111edd6211,SCR,2024-06-10_15h00.05.933,LearnStrategy,2023.2.3,Win32,144.9275362,7,1,11,0.07962963,-0.397222222,1,0,0,1.0437,Andesite_16,1,16,1,5,1.044,1,16,-0.371296296,-0.237962963,1,0,0,1.7498,Andesite_rect,1,1.75,1,10,0,10,0,1,,,,,,,,,,,,
5e50cf2e6f8390111edd6211,SCR,2024-06-10_15h00.05.933,LearnStrategy,2023.2.3,Win32,144.9275362,7,1,12,0.117592593,0.249074074,1,0,0,1.2836,Peridotite_02,7,02,5,5,1.284,7,02,0.192592593,-0.387037037,1,0,0,1.2787,Peridotite_rect,7,1.279,1,11,0,11,0,1,,,,,,,,,,,,
5e50cf2e6f8390111edd6211,SCR,2024-06-10_15h00.05.933,LearnStrategy,2023.2.3,Win32,144.9275362,7,1,13,0.433333333,-0.125,1,0,0,1.0176,Gabbro_12,4,12,3,7,1.018,4,12,0.357407407,-0.24537037,1,0,0,1.6966,Gabbro_rect,4,1.697,1,12,0,12,0,1,,,,,,,,,,,,
5e50cf2e6f8390111edd6211,SCR,2024-06-10_15h00.05.933,LearnStrategy,2023.2.3,Win32,144.9275362,7,1,14,0.403703704,-0.114814815,1,0,0,1.256,Gabbro_12,4,12,3,7,1.256,4,12,0.412037037,-0.255555556,1,0,0,1.6552,Gabbro_rect,4,1.655,1,13,0,13,0,1,,,,,,,,,,,,
5e50cf2e6f8390111edd6211,SCR,2024-06-10_15h00.05.933,LearnStrategy,2023.2.3,Win32,144.9275362,7,1,15,0.391666667,-0.252777778,1,0,0,1.6028,Basalt_11,2,11,2,7,1.603,2,11,-0.087962963,-0.257407407,1,0,0,1.8355,Basalt_rect,2,1.835,1,14,0,14,0,1,,,,,,,,,,,,
5e50cf2e6f8390111edd6211,SCR,2024-06-10_15h00.05.933,LearnStrategy,2023.2.3,Win32,144.9275362,7,1,16,0.403703704,-0.387037037,1,0,0,1.2973,Peridotite_13,7,13,1,7,1.297,7,13,0.133333333,-0.40462963,1,0,0,1.0138,Peridotite_rect,7,1.014,1,15,0,15,0,1,,,,,,,,,,,,
5e50cf2e6f8390111edd6211,SCR,2024-06-10_15h00.05.933,LearnStrategy,2023.2.3,Win32,144.9275362,7,2,1,,,,,,,,6,16,,,,,,,,,,,,,1,3.391,0,,,,,,-0.425,-0.237037037,1,0,0,3.3914,Andesite_rect,0,0,0,0,1
5e50cf2e6f8390111edd6211,SCR,2024-06-10_15h00.05.933,LearnStrategy,2023.2.3,Win32,144.9275362,7,2,2,,,,,,,,7,10,,,,,,,,,,,,,7,1.294,1,,,,,,0.094444444,-0.389814815,1,0,0,1.2939,Peridotite_rect,1,0,1,0,1
5e50cf2e6f8390111edd6211,SCR,2024-06-10_15h00.05.933,LearnStrategy,2023.2.3,Win32,144.9275362,7,2,3,,,,,,,,4,11,,,,,,,,,,,,,4,1.841,1,,,,,,0.4,-0.242592593,1,0,0,1.8415,Gabbro_rect,2,0,2,0,1
5e50cf2e6f8390111edd6211,SCR,2024-06-10_15h00.05.933,LearnStrategy,2023.2.3,Win32,144.9275362,7,2,4,,,,,,,,8,09,,,,,,,,,,,,,8,1.177,1,,,,,,0.423148148,-0.409259259,1,0,0,1.1774,Pumice_rect,3,0,3,0,1
5e50cf2e6f8390111edd6211,SCR,2024-06-10_15h00.05.933,LearnStrategy,2023.2.3,Win32,144.9275362,7,2,5,,,,,,,,5,07,,,,,,,,,,,,,5,1.265,1,,,,,,-0.378703704,-0.391666667,1,0,0,1.2651,Obsidian_rect,4,0,4,0,1
5e50cf2e6f8390111edd6211,SCR,2024-06-10_15h00.05.933,LearnStrategy,2023.2.3,Win32,144.9275362,7,2,6,,,,,,,,2,04,,,,,,,,,,,,,2,1.196,1,,,,,,-0.142592593,-0.244444444,1,0,0,1.196,Basalt_rect,5,0,5,0,1
5e50cf2e6f8390111edd6211,SCR,2024-06-10_15h00.05.933,LearnStrategy,2023.2.3,Win32,144.9275362,7,2,7,,,,,,,,3,15,,,,,,,,,,,,,4,4.432,0,,,,,,0.383333333,-0.237037037,1,0,0,4.432,Gabbro_rect,6,0,6,0,1
5e50cf2e6f8390111edd6211,SCR,2024-06-10_15h00.05.933,LearnStrategy,2023.2.3,Win32,144.9275362,7,2,8,,,,,,,,1,06,,,,,,,,,,,,,1,1.677,1,,,,,,-0.361111111,-0.256481481,1,0,0,1.6774,Andesite_rect,7,0,7,0,1
5e50cf2e6f8390111edd6211,SCR,2024-06-10_15h00.05.933,LearnStrategy,2023.2.3,Win32,144.9275362,7,2,9,,,,,,,,4,01,,,,,,,,,,,,,1,2.557,0,,,,,,-0.362037037,-0.256481481,1,0,0,2.5574,Andesite_rect,8,0,8,0,1
5e50cf2e6f8390111edd6211,SCR,2024-06-10_15h00.05.933,LearnStrategy,2023.2.3,Win32,144.9275362,7,2,10,,,,,,,,3,12,,,,,,,,,,,,,3,1.488,1,,,,,,0.107407407,-0.25462963,1,0,0,1.4884,Diorite_rect,9,0,9,0,1
5e50cf2e6f8390111edd6211,SCR,2024-06-10_15h00.05.933,LearnStrategy,2023.2.3,Win32,144.9275362,7,2,11,,,,,,,,5,06,,,,,,,,,,,,,5,1.28,1,,,,,,-0.409259259,-0.391666667,1,0,0,1.2804,Obsidian_rect,10,0,10,0,1
5e50cf2e6f8390111edd6211,SCR,2024-06-10_15h00.05.933,LearnStrategy,2023.2.3,Win32,144.9275362,7,2,12,,,,,,,,2,02,,,,,,,,,,,,,4,2.203,0,,,,,,0.378703704,-0.248148148,1,0,0,2.2028,Gabbro_rect,11,0,11,0,1
5e50cf2e6f8390111edd6211,SCR,2024-06-10_15h00.05.933,LearnStrategy,2023.2.3,Win32,144.9275362,7,2,13,,,,,,,,8,02,,,,,,,,,,,,,8,1.571,1,,,,,,0.373148148,-0.403703704,1,0,0,1.5712,Pumice_rect,12,0,12,0,1
5e50cf2e6f8390111edd6211,SCR,2024-06-10_15h00.05.933,LearnStrategy,2023.2.3,Win32,144.9275362,7,2,14,,,,,,,,7,05,,,,,,,,,,,,,7,1.162,1,,,,,,0.15462963,-0.417592593,1,0,0,1.1622,Peridotite_rect,13,0,13,0,1
5e50cf2e6f8390111edd6211,SCR,2024-06-10_15h00.05.933,LearnStrategy,2023.2.3,Win32,144.9275362,7,2,15,,,,,,,,6,07,,,,,,,,,,,,,6,1.536,1,,,,,,-0.140740741,-0.408333333,1,0,0,1.5359,Pegmatite_rect,14,0,14,0,1
5e50cf2e6f8390111edd6211,SCR,2024-06-10_15h00.05.933,LearnStrategy,2023.2.3,Win32,144.9275362,7,2,16,,,,,,,,1,10,,,,,,,,,,,,,2,1.544,0,,,,,,-0.106481481,-0.250925926,1,0,0,1.5439,Basalt_rect,15,0,15,0,1
5e50cf2e6f8390111edd6211,SCR,2024-06-10_15h00.05.933,LearnStrategy,2023.2.3,Win32,144.9275362,8,1,1,-0.241666667,0.436111111,1,0,0,1.8991,Diorite_09,3,09,6,3,1.899,3,09,0.103703704,-0.231481481,1,0,0,1.1267,Diorite_rect,3,1.127,1,0,0,0,0,1,,,,,,,,,,,,
5e50cf2e6f8390111edd6211,SCR,2024-06-10_15h00.05.933,LearnStrategy,2023.2.3,Win32,144.9275362,8,1,2,0.412037037,0.376851852,1,0,0,1.2773,Pegmatite_03,6,03,6,7,1.277,6,03,-0.123148148,-0.398148148,1,0,0,1.5142,Pegmatite_rect,6,1.514,1,1,0,1,0,1,,,,,,,,,,,,
5e50cf2e6f8390111edd6211,SCR,2024-06-10_15h00.05.933,LearnStrategy,2023.2.3,Win32,144.9275362,8,1,3,-0.050925926,0.257407407,1,0,0,0.9838,Obsidian_04,5,04,5,4,0.984,5,04,-0.433333333,-0.407407407,1,0,0,1.1547,Obsidian_rect,5,1.155,1,2,0,2,0,1,,,,,,,,,,,,
5e50cf2e6f8390111edd6211,SCR,2024-06-10_15h00.05.933,LearnStrategy,2023.2.3,Win32,144.9275362,8,1,4,-0.528703704,-0.408333333,1,0,0,1.2075,Gabbro_08,4,08,1,1,1.207,4,08,0.391666667,-0.253703704,1,0,0,1.4118,Gabbro_rect,4,1.412,1,3,0,3,0,1,,,,,,,,,,,,
5e50cf2e6f8390111edd6211,SCR,2024-06-10_15h00.05.933,LearnStrategy,2023.2.3,Win32,144.9275362,8,1,5,-0.564814815,-0.39537037,1,0,0,1.4853,Gabbro_08,4,08,1,1,1.485,4,08,0.428703704,-0.25,1,0,0,1.501,Gabbro_rect,4,1.501,1,4,0,4,0,1,,,,,,,,,,,,
5e50cf2e6f8390111edd6211,SCR,2024-06-10_15h00.05.933,LearnStrategy,2023.2.3,Win32,144.9275362,8,1,6,0.238888889,-0.417592593,1,0,0,1.2423,Basalt_01,2,01,1,6,1.242,2,01,0.42962963,-0.267592593,1,0,0,1.8057,Gabbro_rect,4,1.806,0,5,0,5,0,1,,,,,,,,,,,,
5e50cf2e6f8390111edd6211,SCR,2024-06-10_15h00.05.933,LearnStrategy,2023.2.3,Win32,144.9275362,8,1,7,-0.262962963,0.232407407,1,0,0,1.0472,Pumice_15,8,15,5,3,1.047,8,15,0.415740741,-0.388888889,1,0,0,1.0512,Pumice_rect,8,1.051,1,6,0,6,0,1,,,,,,,,,,,,
5e50cf2e6f8390111edd6211,SCR,2024-06-10_15h00.05.933,LearnStrategy,2023.2.3,Win32,144.9275362,8,1,8,-0.542592593,-0.385185185,1,0,0,1.0195,Gabbro_08,4,08,1,1,1.019,4,08,0.451851852,-0.262037037,1,0,0,2.6066,Gabbro_rect,4,2.607,1,7,0,7,0,1,,,,,,,,,,,,
5e50cf2e6f8390111edd6211,SCR,2024-06-10_15h00.05.933,LearnStrategy,2023.2.3,Win32,144.9275362,8,1,9,0.072222222,0.091666667,1,0,0,0.7748,Diorite_14,3,14,4,5,0.775,3,14,0.157407407,-0.25462963,1,0,0,0.7874,Diorite_rect,3,0.787,1,8,0,8,0,1,,,,,,,,,,,,
5e50cf2e6f8390111edd6211,SCR,2024-06-10_15h00.05.933,LearnStrategy,2023.2.3,Win32,144.9275362,8,1,10,0.222222222,0.078703704,1,0,0,0.9568,Andesite_02,1,02,4,6,0.957,1,02,-0.374074074,-0.25,1,0,0,1.6757,Andesite_rect,1,1.676,1,9,0,9,0,1,,,,,,,,,,,,
5e50cf2e6f8390111edd6211,SCR,2024-06-10_15h00.05.933,LearnStrategy,2023.2.3,Win32,144.9275362,8,1,11,0.087962963,0.107407407,1,0,0,0.8327,Diorite_14,3,14,4,5,0.833,3,14,0.163888889,-0.252777778,1,0,0,0.877,Diorite_rect,3,0.877,1,10,0,10,0,1,,,,,,,,,,,,
5e50cf2e6f8390111edd6211,SCR,2024-06-10_15h00.05.933,LearnStrategy,2023.2.3,Win32,144.9275362,8,1,12,0.056481481,0.225925926,1,0,0,1.0685,Peridotite_02,7,02,5,5,1.068,7,02,0.173148148,-0.393518519,1,0,0,0.974,Peridotite_rect,7,0.974,1,11,0,11,0,1,,,,,,,,,,,,
5e50cf2e6f8390111edd6211,SCR,2024-06-10_15h00.05.933,LearnStrategy,2023.2.3,Win32,144.9275362,8,1,13,0.041666667,-0.088888889,1,0,0,0.8254,Gabbro_05,4,05,3,5,0.825,4,05,0.119444444,-0.382407407,1,0,0,1.2938,Peridotite_rect,7,1.294,0,12,0,12,0,1,,,,,,,,,,,,
5e50cf2e6f8390111edd6211,SCR,2024-06-10_15h00.05.933,LearnStrategy,2023.2.3,Win32,144.9275362,8,1,14,0.118518519,0.388888889,1,0,0,1.3882,Pegmatite_10,6,10,6,5,1.388,6,10,-0.1,-0.392592593,1,0,0,1.1133,Pegmatite_rect,6,1.113,1,13,0,13,0,1,,,,,,,,,,,,
5e50cf2e6f8390111edd6211,SCR,2024-06-10_15h00.05.933,LearnStrategy,2023.2.3,Win32,144.9275362,8,1,15,0.546296296,0.264814815,1,0,0,1.0755,Andesite_05,1,05,5,8,1.075,1,05,-0.427777778,-0.262037037,1,0,0,1.558,Andesite_rect,1,1.558,1,14,0,14,0,1,,,,,,,,,,,,
5e50cf2e6f8390111edd6211,SCR,2024-06-10_15h00.05.933,LearnStrategy,2023.2.3,Win32,144.9275362,8,1,16,0.526851852,-0.419444444,1,0,0,0.992,Basalt_09,2,09,1,8,0.992,2,09,-0.09537037,-0.24537037,1,0,0,1.7085,Basalt_rect,2,1.708,1,15,0,15,0,1,,,,,,,,,,,,
5e50cf2e6f8390111edd6211,SCR,2024-06-10_15h00.05.933,LearnStrategy,2023.2.3,Win32,144.9275362,8,2,1,,,,,,,,1,09,,,,,,,,,,,,,4,5.036,0,,,,,,0.4,-0.25,1,0,0,5.0357,Gabbro_rect,0,0,0,0,1
5e50cf2e6f8390111edd6211,SCR,2024-06-10_15h00.05.933,LearnStrategy,2023.2.3,Win32,144.9275362,8,2,2,,,,,,,,5,12,,,,,,,,,,,,,5,1.358,1,,,,,,-0.434259259,-0.401851852,1,0,0,1.3582,Obsidian_rect,1,0,1,0,1
5e50cf2e6f8390111edd6211,SCR,2024-06-10_15h00.05.933,LearnStrategy,2023.2.3,Win32,144.9275362,8,2,3,,,,,,,,6,13,,,,,,,,,,,,,6,1.731,1,,,,,,-0.135185185,-0.418518519,1,0,0,1.7313,Pegmatite_rect,2,0,2,0,1
5e50cf2e6f8390111edd6211,SCR,2024-06-10_15h00.05.933,LearnStrategy,2023.2.3,Win32,144.9275362,8,2,4,,,,,,,,7,16,,,,,,,,,,,,,7,1.045,1,,,,,,0.059259259,-0.409259259,1,0,0,1.0449,Peridotite_rect,3,0,3,0,1
5e50cf2e6f8390111edd6211,SCR,2024-06-10_15h00.05.933,LearnStrategy,2023.2.3,Win32,144.9275362,8,2,5,,,,,,,,7,04,,,,,,,,,,,,,1,1.807,0,,,,,,-0.42962963,-0.239814815,1,0,0,1.8068,Andesite_rect,4,0,4,0,1
5e50cf2e6f8390111edd6211,SCR,2024-06-10_15h00.05.933,LearnStrategy,2023.2.3,Win32,144.9275362,8,2,6,,,,,,,,3,13,,,,,,,,,,,,,3,1.398,1,,,,,,0.130555556,-0.258333333,1,0,0,1.3984,Diorite_rect,5,0,5,0,1
5e50cf2e6f8390111edd6211,SCR,2024-06-10_15h00.05.933,LearnStrategy,2023.2.3,Win32,144.9275362,8,2,7,,,,,,,,4,13,,,,,,,,,,,,,4,3.051,1,,,,,,0.32962963,-0.268518519,1,0,0,3.0512,Gabbro_rect,6,0,6,0,1
5e50cf2e6f8390111edd6211,SCR,2024-06-10_15h00.05.933,LearnStrategy,2023.2.3,Win32,144.9275362,8,2,8,,,,,,,,3,16,,,,,,,,,,,,,3,1.037,1,,,,,,0.124074074,-0.263888889,1,0,0,1.0369,Diorite_rect,7,0,7,0,1
5e50cf2e6f8390111edd6211,SCR,2024-06-10_15h00.05.933,LearnStrategy,2023.2.3,Win32,144.9275362,8,2,9,,,,,,,,6,06,,,,,,,,,,,,,6,2.134,1,,,,,,-0.07962963,-0.388888889,1,0,0,2.1336,Pegmatite_rect,8,0,8,0,1
5e50cf2e6f8390111edd6211,SCR,2024-06-10_15h00.05.933,LearnStrategy,2023.2.3,Win32,144.9275362,8,2,10,,,,,,,,2,06,,,,,,,,,,,,,2,1.246,1,,,,,,-0.09537037,-0.259259259,1,0,0,1.2457,Basalt_rect,9,0,9,0,1
5e50cf2e6f8390111edd6211,SCR,2024-06-10_15h00.05.933,LearnStrategy,2023.2.3,Win32,144.9275362,8,2,11,,,,,,,,8,03,,,,,,,,,,,,,8,1.148,1,,,,,,0.341666667,-0.405555556,1,0,0,1.1482,Pumice_rect,10,0,10,0,1
5e50cf2e6f8390111edd6211,SCR,2024-06-10_15h00.05.933,LearnStrategy,2023.2.3,Win32,144.9275362,8,2,12,,,,,,,,4,09,,,,,,,,,,,,,2,1.315,0,,,,,,-0.134259259,-0.252777778,1,0,0,1.3146,Basalt_rect,11,0,11,0,1
5e50cf2e6f8390111edd6211,SCR,2024-06-10_15h00.05.933,LearnStrategy,2023.2.3,Win32,144.9275362,8,2,13,,,,,,,,5,09,,,,,,,,,,,,,5,1.155,1,,,,,,-0.387962963,-0.401851852,1,0,0,1.1551,Obsidian_rect,12,0,12,0,1
5e50cf2e6f8390111edd6211,SCR,2024-06-10_15h00.05.933,LearnStrategy,2023.2.3,Win32,144.9275362,8,2,14,,,,,,,,8,13,,,,,,,,,,,,,8,1.418,1,,,,,,0.435185185,-0.403703704,1,0,0,1.418,Pumice_rect,13,0,13,0,1
5e50cf2e6f8390111edd6211,SCR,2024-06-10_15h00.05.933,LearnStrategy,2023.2.3,Win32,144.9275362,8,2,15,,,,,,,,2,16,,,,,,,,,,,,,2,1.669,1,,,,,,-0.131481481,-0.235185185,1,0,0,1.6689,Basalt_rect,14,0,14,0,1
5e50cf2e6f8390111edd6211,SCR,2024-06-10_15h00.05.933,LearnStrategy,2023.2.3,Win32,144.9275362,8,2,16,,,,,,,,1,01,,,,,,,,,,,,,1,3.39,1,,,,,,-0.35462963,-0.256481481,1,0,0,3.3899,Andesite_rect,15,0,15,0,1
5e50cf2e6f8390111edd6211,SCR,2024-06-10_15h00.05.933,LearnStrategy,2023.2.3,Win32,144.9275362,9,1,1,-0.042592593,-0.224074074,1,0,0,2.0271,Pegmatite_08,6,08,2,4,2.027,6,08,-0.114814815,-0.396296296,1,0,0,1.2593,Pegmatite_rect,6,1.259,1,0,0,0,0,1,,,,,,,,,,,,
5e50cf2e6f8390111edd6211,SCR,2024-06-10_15h00.05.933,LearnStrategy,2023.2.3,Win32,144.9275362,9,1,2,-0.212962963,-0.237962963,1,0,0,0.8693,Pegmatite_05,6,05,2,3,0.869,6,05,-0.162037037,-0.380555556,1,0,0,1.1528,Pegmatite_rect,6,1.153,1,1,0,1,0,1,,,,,,,,,,,,
5e50cf2e6f8390111edd6211,SCR,2024-06-10_15h00.05.933,LearnStrategy,2023.2.3,Win32,144.9275362,9,1,3,0.548148148,0.064814815,1,0,0,1.1584,Diorite_08,3,08,4,8,1.158,3,08,0.191666667,-0.240740741,1,0,0,0.8772,Diorite_rect,3,0.877,1,2,0,2,0,1,,,,,,,,,,,,
5e50cf2e6f8390111edd6211,SCR,2024-06-10_15h00.05.933,LearnStrategy,2023.2.3,Win32,144.9275362,9,1,4,0.218518519,-0.394444444,1,0,0,1.3003,Basalt_01,2,01,1,6,1.3,2,01,-0.09537037,-0.237962963,1,0,0,1.2503,Basalt_rect,2,1.25,1,3,0,3,0,1,,,,,,,,,,,,
5e50cf2e6f8390111edd6211,SCR,2024-06-10_15h00.05.933,LearnStrategy,2023.2.3,Win32,144.9275362,9,1,5,0.062037037,-0.226851852,1,0,0,0.9046,Gabbro_15,4,15,2,5,0.905,4,15,0.168518519,-0.233333333,1,0,0,1.2155,Diorite_rect,3,1.216,0,4,0,4,0,1,,,,,,,,,,,,
5e50cf2e6f8390111edd6211,SCR,2024-06-10_15h00.05.933,LearnStrategy,2023.2.3,Win32,144.9275362,9,1,6,0.09537037,-0.414814815,1,0,0,1.1726,Andesite_16,1,16,1,5,1.173,1,16,-0.399074074,-0.251851852,1,0,0,1.8286,Andesite_rect,1,1.829,1,5,0,5,0,1,,,,,,,,,,,,
5e50cf2e6f8390111edd6211,SCR,2024-06-10_15h00.05.933,LearnStrategy,2023.2.3,Win32,144.9275362,9,1,7,0.065740741,-0.092592593,1,0,0,0.9223,Gabbro_05,4,05,3,5,0.922,4,05,0.381481481,-0.24537037,1,0,0,2.8559,Gabbro_rect,4,2.856,1,6,0,6,0,1,,,,,,,,,,,,
5e50cf2e6f8390111edd6211,SCR,2024-06-10_15h00.05.933,LearnStrategy,2023.2.3,Win32,144.9275362,9,1,8,-0.55462963,-0.1,1,0,0,1.2743,Peridotite_15,7,15,3,1,1.274,7,15,0.114814815,-0.399074074,1,0,0,2.3261,Peridotite_rect,7,2.326,1,7,0,7,0,1,,,,,,,,,,,,
5e50cf2e6f8390111edd6211,SCR,2024-06-10_15h00.05.933,LearnStrategy,2023.2.3,Win32,144.9275362,9,1,9,-0.49537037,-0.375,1,0,0,1.1217,Gabbro_08,4,08,1,1,1.122,4,08,-0.447222222,-0.241666667,1,0,0,2.6119,Andesite_rect,1,2.612,0,8,0,8,0,1,,,,,,,,,,,,
5e50cf2e6f8390111edd6211,SCR,2024-06-10_15h00.05.933,LearnStrategy,2023.2.3,Win32,144.9275362,9,1,10,0.596296296,0.25462963,1,0,0,1.1568,Andesite_05,1,05,5,8,1.157,1,05,-0.394444444,-0.234259259,1,0,0,1.3151,Andesite_rect,1,1.315,1,9,0,9,0,1,,,,,,,,,,,,
5e50cf2e6f8390111edd6211,SCR,2024-06-10_15h00.05.933,LearnStrategy,2023.2.3,Win32,144.9275362,9,1,11,-0.062962963,0.107407407,1,0,0,0.7351,Pumice_14,8,14,4,4,0.735,8,14,0.373148148,-0.397222222,1,0,0,3.5161,Pumice_rect,8,3.516,1,10,0,10,0,1,,,,,,,,,,,,
5e50cf2e6f8390111edd6211,SCR,2024-06-10_15h00.05.933,LearnStrategy,2023.2.3,Win32,144.9275362,9,1,12,-0.350925926,-0.413888889,1,0,0,0.9133,Obsidian_16,5,16,1,2,0.913,5,16,-0.386111111,-0.385185185,1,0,0,0.8895,Obsidian_rect,5,0.889,1,11,0,11,0,1,,,,,,,,,,,,
5e50cf2e6f8390111edd6211,SCR,2024-06-10_15h00.05.933,LearnStrategy,2023.2.3,Win32,144.9275362,9,1,13,0.600925926,-0.114814815,1,0,0,1.0175,Andesite_07,1,07,3,8,1.017,1,07,0.143518519,-0.252777778,1,0,0,1.2521,Diorite_rect,3,1.252,0,12,0,12,0,1,,,,,,,,,,,,
5e50cf2e6f8390111edd6211,SCR,2024-06-10_15h00.05.933,LearnStrategy,2023.2.3,Win32,144.9275362,9,1,14,0.384259259,-0.416666667,1,0,0,1.52,Peridotite_13,7,13,1,7,1.52,7,13,0.186111111,-0.412962963,1,0,0,0.9024,Peridotite_rect,7,0.902,1,13,0,13,0,1,,,,,,,,,,,,
5e50cf2e6f8390111edd6211,SCR,2024-06-10_15h00.05.933,LearnStrategy,2023.2.3,Win32,144.9275362,9,1,15,0.085185185,-0.096296296,1,0,0,0.9206,Gabbro_05,4,05,3,5,0.921,4,05,0.423148148,-0.25,1,0,0,3.2844,Gabbro_rect,4,3.284,1,14,0,14,0,1,,,,,,,,,,,,
5e50cf2e6f8390111edd6211,SCR,2024-06-10_15h00.05.933,LearnStrategy,2023.2.3,Win32,144.9275362,9,1,16,0.241666667,0.388888889,1,0,0,1.3369,Diorite_07,3,07,6,6,1.337,3,07,0.160185185,-0.237962963,1,0,0,1.1333,Diorite_rect,3,1.133,1,15,0,15,0,1,,,,,,,,,,,,
5e50cf2e6f8390111edd6211,SCR,2024-06-10_15h00.05.933,LearnStrategy,2023.2.3,Win32,144.9275362,9,2,1,,,,,,,,6,11,,,,,,,,,,,,,6,1.335,1,,,,,,-0.105555556,-0.4,1,0,0,1.335,Pegmatite_rect,0,0,0,0,1
5e50cf2e6f8390111edd6211,SCR,2024-06-10_15h00.05.933,LearnStrategy,2023.2.3,Win32,144.9275362,9,2,2,,,,,,,,8,08,,,,,,,,,,,,,8,1.572,1,,,,,,0.35,-0.414814815,1,0,0,1.572,Pumice_rect,1,0,1,0,1
5e50cf2e6f8390111edd6211,SCR,2024-06-10_15h00.05.933,LearnStrategy,2023.2.3,Win32,144.9275362,9,2,3,,,,,,,,2,12,,,,,,,,,,,,,2,1.523,1,,,,,,-0.094444444,-0.247222222,1,0,0,1.5227,Basalt_rect,2,0,2,0,1
5e50cf2e6f8390111edd6211,SCR,2024-06-10_15h00.05.933,LearnStrategy,2023.2.3,Win32,144.9275362,9,2,4,,,,,,,,5,11,,,,,,,,,,,,,5,1.133,1,,,,,,-0.406481481,-0.399074074,1,0,0,1.133,Obsidian_rect,3,0,3,0,1
5e50cf2e6f8390111edd6211,SCR,2024-06-10_15h00.05.933,LearnStrategy,2023.2.3,Win32,144.9275362,9,2,5,,,,,,,,7,14,,,,,,,,,,,,,7,1.307,1,,,,,,0.106481481,-0.40462963,1,0,0,1.3069,Peridotite_rect,4,0,4,0,1
5e50cf2e6f8390111edd6211,SCR,2024-06-10_15h00.05.933,LearnStrategy,2023.2.3,Win32,144.9275362,9,2,6,,,,,,,,6,09,,,,,,,,,,,,,6,1.099,1,,,,,,-0.139814815,-0.392592593,1,0,0,1.0992,Pegmatite_rect,5,0,5,0,1
5e50cf2e6f8390111edd6211,SCR,2024-06-10_15h00.05.933,LearnStrategy,2023.2.3,Win32,144.9275362,9,2,7,,,,,,,,1,03,,,,,,,,,,,,,1,2.197,1,,,,,,-0.368518519,-0.250925926,1,0,0,2.1965,Andesite_rect,6,0,6,0,1
5e50cf2e6f8390111edd6211,SCR,2024-06-10_15h00.05.933,LearnStrategy,2023.2.3,Win32,144.9275362,9,2,8,,,,,,,,4,14,,,,,,,,,,,,,2,1.336,0,,,,,,-0.135185185,-0.250925926,1,0,0,1.3365,Basalt_rect,7,0,7,0,1
5e50cf2e6f8390111edd6211,SCR,2024-06-10_15h00.05.933,LearnStrategy,2023.2.3,Win32,144.9275362,9,2,9,,,,,,,,4,03,,,,,,,,,,,,,4,1.668,1,,,,,,0.383333333,-0.258333333,1,0,0,1.6684,Gabbro_rect,8,0,8,0,1
5e50cf2e6f8390111edd6211,SCR,2024-06-10_15h00.05.933,LearnStrategy,2023.2.3,Win32,144.9275362,9,2,10,,,,,,,,5,05,,,,,,,,,,,,,5,1.314,1,,,,,,-0.349074074,-0.384259259,1,0,0,1.3136,Obsidian_rect,9,0,9,0,1
5e50cf2e6f8390111edd6211,SCR,2024-06-10_15h00.05.933,LearnStrategy,2023.2.3,Win32,144.9275362,9,2,11,,,,,,,,7,07,,,,,,,,,,,,,7,1.287,1,,,,,,0.151851852,-0.411111111,1,0,0,1.2869,Peridotite_rect,10,0,10,0,1
5e50cf2e6f8390111edd6211,SCR,2024-06-10_15h00.05.933,LearnStrategy,2023.2.3,Win32,144.9275362,9,2,12,,,,,,,,8,04,,,,,,,,,,,,,8,1.085,1,,,,,,0.312037037,-0.391666667,1,0,0,1.0846,Pumice_rect,11,0,11,0,1
5e50cf2e6f8390111edd6211,SCR,2024-06-10_15h00.05.933,LearnStrategy,2023.2.3,Win32,144.9275362,9,2,13,,,,,,,,3,11,,,,,,,,,,,,,3,1.391,1,,,,,,0.148148148,-0.241666667,1,0,0,1.3914,Diorite_rect,12,0,12,0,1
5e50cf2e6f8390111edd6211,SCR,2024-06-10_15h00.05.933,LearnStrategy,2023.2.3,Win32,144.9275362,9,2,14,,,,,,,,1,14,,,,,,,,,,,,,1,3.474,1,,,,,,-0.343518519,-0.259259259,1,0,0,3.4738,Andesite_rect,13,0,13,0,1
5e50cf2e6f8390111edd6211,SCR,2024-06-10_15h00.05.933,LearnStrategy,2023.2.3,Win32,144.9275362,9,2,15,,,,,,,,3,02,,,,,,,,,,,,,3,1.789,1,,,,,,0.135185185,-0.240740741,1,0,0,1.7888,Diorite_rect,14,0,14,0,1
5e50cf2e6f8390111edd6211,SCR,2024-06-10_15h00.05.933,LearnStrategy,2023.2.3,Win32,144.9275362,9,2,16,,,,,,,,2,10,,,,,,,,,,,,,2,1.459,1,,,,,,-0.155555556,-0.259259259,1,0,0,1.4594,Basalt_rect,15,0,15,0,1
5e50cf2e6f8390111edd6211,SCR,2024-06-10_15h00.05.933,LearnStrategy,2023.2.3,Win32,144.9275362,,,,,,,,,,,,,,,,,,,,,,,,,,,,,,,,,,,,,,,,,,,,
5e50cf2e6f8390111edd6211,SCR,2024-06-10_15h00.05.933,LearnStrategy,2023.2.3,Win32,144.9275362,,,,,,,,,,,,,,,,,,,,,,,,,,,,,,,,,,,,,,,,,,,,
5e50cf2e6f8390111edd6211,SCR,2024-06-10_15h00.05.933,LearnStrategy,2023.2.3,Win32,144.9275362,,,,,,,,,,,4,08,1,1,,,,,,,,,,,,,,,,,,,,,,,,,,,,,,
5e50cf2e6f8390111edd6211,SCR,2024-06-10_15h00.05.933,LearnStrategy,2023.2.3,Win32,144.9275362,,,,,,,,,,,5,16,1,2,,,,,,,,,,,,,,,,,,,,,,,,,,,,,,
5e50cf2e6f8390111edd6211,SCR,2024-06-10_15h00.05.933,LearnStrategy,2023.2.3,Win32,144.9275362,,,,,,,,,,,7,12,1,3,,,,,,,,,,,,,,,,,,,,,,,,,,,,,,
5e50cf2e6f8390111edd6211,SCR,2024-06-10_15h00.05.933,LearnStrategy,2023.2.3,Win32,144.9275362,,,,,,,,,,,8,16,1,4,,,,,,,,,,,,,,,,,,,,,,,,,,,,,,
5e50cf2e6f8390111edd6211,SCR,2024-06-10_15h00.05.933,LearnStrategy,2023.2.3,Win32,144.9275362,,,,,,,,,,,1,16,1,5,,,,,,,,,,,,,,,,,,,,,,,,,,,,,,
5e50cf2e6f8390111edd6211,SCR,2024-06-10_15h00.05.933,LearnStrategy,2023.2.3,Win32,144.9275362,,,,,,,,,,,2,01,1,6,,,,,,,,,,,,,,,,,,,,,,,,,,,,,,
5e50cf2e6f8390111edd6211,SCR,2024-06-10_15h00.05.933,LearnStrategy,2023.2.3,Win32,144.9275362,,,,,,,,,,,7,13,1,7,,,,,,,,,,,,,,,,,,,,,,,,,,,,,,
5e50cf2e6f8390111edd6211,SCR,2024-06-10_15h00.05.933,LearnStrategy,2023.2.3,Win32,144.9275362,,,,,,,,,,,2,09,1,8,,,,,,,,,,,,,,,,,,,,,,,,,,,,,,
5e50cf2e6f8390111edd6211,SCR,2024-06-10_15h00.05.933,LearnStrategy,2023.2.3,Win32,144.9275362,,,,,,,,,,,6,15,2,1,,,,,,,,,,,,,,,,,,,,,,,,,,,,,,
5e50cf2e6f8390111edd6211,SCR,2024-06-10_15h00.05.933,LearnStrategy,2023.2.3,Win32,144.9275362,,,,,,,,,,,6,12,2,2,,,,,,,,,,,,,,,,,,,,,,,,,,,,,,
5e50cf2e6f8390111edd6211,SCR,2024-06-10_15h00.05.933,LearnStrategy,2023.2.3,Win32,144.9275362,,,,,,,,,,,6,05,2,3,,,,,,,,,,,,,,,,,,,,,,,,,,,,,,
5e50cf2e6f8390111edd6211,SCR,2024-06-10_15h00.05.933,LearnStrategy,2023.2.3,Win32,144.9275362,,,,,,,,,,,6,08,2,4,,,,,,,,,,,,,,,,,,,,,,,,,,,,,,
5e50cf2e6f8390111edd6211,SCR,2024-06-10_15h00.05.933,LearnStrategy,2023.2.3,Win32,144.9275362,,,,,,,,,,,4,15,2,5,,,,,,,,,,,,,,,,,,,,,,,,,,,,,,
5e50cf2e6f8390111edd6211,SCR,2024-06-10_15h00.05.933,LearnStrategy,2023.2.3,Win32,144.9275362,,,,,,,,,,,2,08,2,6,,,,,,,,,,,,,,,,,,,,,,,,,,,,,,
5e50cf2e6f8390111edd6211,SCR,2024-06-10_15h00.05.933,LearnStrategy,2023.2.3,Win32,144.9275362,,,,,,,,,,,2,11,2,7,,,,,,,,,,,,,,,,,,,,,,,,,,,,,,
5e50cf2e6f8390111edd6211,SCR,2024-06-10_15h00.05.933,LearnStrategy,2023.2.3,Win32,144.9275362,,,,,,,,,,,2,05,2,8,,,,,,,,,,,,,,,,,,,,,,,,,,,,,,
5e50cf2e6f8390111edd6211,SCR,2024-06-10_15h00.05.933,LearnStrategy,2023.2.3,Win32,144.9275362,,,,,,,,,,,7,15,3,1,,,,,,,,,,,,,,,,,,,,,,,,,,,,,,
5e50cf2e6f8390111edd6211,SCR,2024-06-10_15h00.05.933,LearnStrategy,2023.2.3,Win32,144.9275362,,,,,,,,,,,8,10,3,2,,,,,,,,,,,,,,,,,,,,,,,,,,,,,,
5e50cf2e6f8390111edd6211,SCR,2024-06-10_15h00.05.933,LearnStrategy,2023.2.3,Win32,144.9275362,,,,,,,,,,,8,06,3,3,,,,,,,,,,,,,,,,,,,,,,,,,,,,,,
5e50cf2e6f8390111edd6211,SCR,2024-06-10_15h00.05.933,LearnStrategy,2023.2.3,Win32,144.9275362,,,,,,,,,,,5,08,3,4,,,,,,,,,,,,,,,,,,,,,,,,,,,,,,
5e50cf2e6f8390111edd6211,SCR,2024-06-10_15h00.05.933,LearnStrategy,2023.2.3,Win32,144.9275362,,,,,,,,,,,4,05,3,5,,,,,,,,,,,,,,,,,,,,,,,,,,,,,,
5e50cf2e6f8390111edd6211,SCR,2024-06-10_15h00.05.933,LearnStrategy,2023.2.3,Win32,144.9275362,,,,,,,,,,,4,16,3,6,,,,,,,,,,,,,,,,,,,,,,,,,,,,,,
5e50cf2e6f8390111edd6211,SCR,2024-06-10_15h00.05.933,LearnStrategy,2023.2.3,Win32,144.9275362,,,,,,,,,,,4,12,3,7,,,,,,,,,,,,,,,,,,,,,,,,,,,,,,
5e50cf2e6f8390111edd6211,SCR,2024-06-10_15h00.05.933,LearnStrategy,2023.2.3,Win32,144.9275362,,,,,,,,,,,1,07,3,8,,,,,,,,,,,,,,,,,,,,,,,,,,,,,,
5e50cf2e6f8390111edd6211,SCR,2024-06-10_15h00.05.933,LearnStrategy,2023.2.3,Win32,144.9275362,,,,,,,,,,,8,05,4,1,,,,,,,,,,,,,,,,,,,,,,,,,,,,,,
5e50cf2e6f8390111edd6211,SCR,2024-06-10_15h00.05.933,LearnStrategy,2023.2.3,Win32,144.9275362,,,,,,,,,,,1,04,4,2,,,,,,,,,,,,,,,,,,,,,,,,,,,,,,
5e50cf2e6f8390111edd6211,SCR,2024-06-10_15h00.05.933,LearnStrategy,2023.2.3,Win32,144.9275362,,,,,,,,,,,7,08,4,3,,,,,,,,,,,,,,,,,,,,,,,,,,,,,,
5e50cf2e6f8390111edd6211,SCR,2024-06-10_15h00.05.933,LearnStrategy,2023.2.3,Win32,144.9275362,,,,,,,,,,,8,14,4,4,,,,,,,,,,,,,,,,,,,,,,,,,,,,,,
5e50cf2e6f8390111edd6211,SCR,2024-06-10_15h00.05.933,LearnStrategy,2023.2.3,Win32,144.9275362,,,,,,,,,,,3,14,4,5,,,,,,,,,,,,,,,,,,,,,,,,,,,,,,
5e50cf2e6f8390111edd6211,SCR,2024-06-10_15h00.05.933,LearnStrategy,2023.2.3,Win32,144.9275362,,,,,,,,,,,1,02,4,6,,,,,,,,,,,,,,,,,,,,,,,,,,,,,,
5e50cf2e6f8390111edd6211,SCR,2024-06-10_15h00.05.933,LearnStrategy,2023.2.3,Win32,144.9275362,,,,,,,,,,,2,14,4,7,,,,,,,,,,,,,,,,,,,,,,,,,,,,,,
5e50cf2e6f8390111edd6211,SCR,2024-06-10_15h00.05.933,LearnStrategy,2023.2.3,Win32,144.9275362,,,,,,,,,,,3,08,4,8,,,,,,,,,,,,,,,,,,,,,,,,,,,,,,
5e50cf2e6f8390111edd6211,SCR,2024-06-10_15h00.05.933,LearnStrategy,2023.2.3,Win32,144.9275362,,,,,,,,,,,3,06,5,1,,,,,,,,,,,,,,,,,,,,,,,,,,,,,,
5e50cf2e6f8390111edd6211,SCR,2024-06-10_15h00.05.933,LearnStrategy,2023.2.3,Win32,144.9275362,,,,,,,,,,,5,14,5,2,,,,,,,,,,,,,,,,,,,,,,,,,,,,,,
5e50cf2e6f8390111edd6211,SCR,2024-06-10_15h00.05.933,LearnStrategy,2023.2.3,Win32,144.9275362,,,,,,,,,,,8,15,5,3,,,,,,,,,,,,,,,,,,,,,,,,,,,,,,
5e50cf2e6f8390111edd6211,SCR,2024-06-10_15h00.05.933,LearnStrategy,2023.2.3,Win32,144.9275362,,,,,,,,,,,5,04,5,4,,,,,,,,,,,,,,,,,,,,,,,,,,,,,,
5e50cf2e6f8390111edd6211,SCR,2024-06-10_15h00.05.933,LearnStrategy,2023.2.3,Win32,144.9275362,,,,,,,,,,,7,02,5,5,,,,,,,,,,,,,,,,,,,,,,,,,,,,,,
5e50cf2e6f8390111edd6211,SCR,2024-06-10_15h00.05.933,LearnStrategy,2023.2.3,Win32,144.9275362,,,,,,,,,,,1,11,5,6,,,,,,,,,,,,,,,,,,,,,,,,,,,,,,
5e50cf2e6f8390111edd6211,SCR,2024-06-10_15h00.05.933,LearnStrategy,2023.2.3,Win32,144.9275362,,,,,,,,,,,4,10,5,7,,,,,,,,,,,,,,,,,,,,,,,,,,,,,,
5e50cf2e6f8390111edd6211,SCR,2024-06-10_15h00.05.933,LearnStrategy,2023.2.3,Win32,144.9275362,,,,,,,,,,,1,05,5,8,,,,,,,,,,,,,,,,,,,,,,,,,,,,,,
5e50cf2e6f8390111edd6211,SCR,2024-06-10_15h00.05.933,LearnStrategy,2023.2.3,Win32,144.9275362,,,,,,,,,,,3,10,6,1,,,,,,,,,,,,,,,,,,,,,,,,,,,,,,
5e50cf2e6f8390111edd6211,SCR,2024-06-10_15h00.05.933,LearnStrategy,2023.2.3,Win32,144.9275362,,,,,,,,,,,7,06,6,2,,,,,,,,,,,,,,,,,,,,,,,,,,,,,,
5e50cf2e6f8390111edd6211,SCR,2024-06-10_15h00.05.933,LearnStrategy,2023.2.3,Win32,144.9275362,,,,,,,,,,,3,09,6,3,,,,,,,,,,,,,,,,,,,,,,,,,,,,,,
5e50cf2e6f8390111edd6211,SCR,2024-06-10_15h00.05.933,LearnStrategy,2023.2.3,Win32,144.9275362,,,,,,,,,,,5,02,6,4,,,,,,,,,,,,,,,,,,,,,,,,,,,,,,
5e50cf2e6f8390111edd6211,SCR,2024-06-10_15h00.05.933,LearnStrategy,2023.2.3,Win32,144.9275362,,,,,,,,,,,6,10,6,5,,,,,,,,,,,,,,,,,,,,,,,,,,,,,,
5e50cf2e6f8390111edd6211,SCR,2024-06-10_15h00.05.933,LearnStrategy,2023.2.3,Win32,144.9275362,,,,,,,,,,,3,07,6,6,,,,,,,,,,,,,,,,,,,,,,,,,,,,,,
5e50cf2e6f8390111edd6211,SCR,2024-06-10_15h00.05.933,LearnStrategy,2023.2.3,Win32,144.9275362,,,,,,,,,,,6,03,6,7,,,,,,,,,,,,,,,,,,,,,,,,,,,,,,
5e50cf2e6f8390111edd6211,SCR,2024-06-10_15h00.05.933,LearnStrategy,2023.2.3,Win32,144.9275362,,,,,,,,,,,5,10,6,8,,,,,,,,,,,,,,,,,,,,,,,,,,,,,,