participant,condition,date,expName,psychopyVersion,OS,frameRate,block,phase,trial,learn_mouse_2.x,learn_mouse_2.y,learn_mouse_2.leftButton,learn_mouse_2.midButton,learn_mouse_2.rightButton,learn_mouse_2.time,learn_mouse_2.clicked_name,cat,token,row,col,t_select,cat_mouse_l.x,cat_mouse_l.y,cat_mouse_l.leftButton,cat_mouse_l.midButton,cat_mouse_l.rightButton,cat_mouse_l.time,cat_mouse_l.clicked_name,resp,t_resp,corr,train_trials.thisRepN,train_trials.thisTrialN,train_trials.thisN,train_trials.thisIndex,train_trials.ran,cat_mouse_t.x,cat_mouse_t.y,cat_mouse_t.leftButton,cat_mouse_t.midButton,cat_mouse_t.rightButton,cat_mouse_t.time,cat_mouse_t.clicked_name,test_trials.thisRepN,test_trials.thisTrialN,test_trials.thisN,test_trials.thisIndex,test_trials.ran
5e83d40c2598d412c836b579,TCN,2024-06-10_15h18.46.003,LearnStrategy,2023.2.3,Win32,60.24096386,,,,,,,,,,,,,,,,,,,,,,,,,,,,,,,,,,,,,,,,,,
5e83d40c2598d412c836b579,TCN,2024-06-10_15h18.46.003,LearnStrategy,2023.2.3,Win32,60.24096386,1,1,1,0.045370399,0.004629601,1,0,0,2.0778,rock_grid_rect_2,5,10,-1,-1,2.078,-0.338888889,-0.402777778,1,0,0,3.6728,Obsidian_rect,5,3.673,1,0,0,0,0,1,,,,,,,,,,,,
5e83d40c2598d412c836b579,TCN,2024-06-10_15h18.46.003,LearnStrategy,2023.2.3,Win32,60.24096386,1,1,2,-0.006481425,-0.019444444,1,0,0,1.532,rock_grid_rect_2,6,09,-1,-1,1.532,0.184259288,-0.409259288,1,0,0,7.0287,Peridotite_rect,7,7.029,0,1,0,1,0,1,,,,,,,,,,,,
5e83d40c2598d412c836b579,TCN,2024-06-10_15h18.46.003,LearnStrategy,2023.2.3,Win32,60.24096386,1,1,3,-0.023148092,-0.012037065,1,0,0,1.1322,rock_grid_rect_2,5,06,-1,-1,1.132,0.200925954,-0.259259288,1,0,0,7.879,Diorite_rect,3,7.879,0,2,0,2,0,1,,,,,,,,,,,,
5e83d40c2598d412c836b579,TCN,2024-06-10_15h18.46.003,LearnStrategy,2023.2.3,Win32,60.24096386,1,1,4,0.062037065,-0.002777778,1,0,0,0.8321,rock_grid_rect_2,3,06,-1,-1,0.832,-0.371296268,-0.25648151,1,0,0,3.0792,Andesite_rect,1,3.079,0,3,0,3,0,1,,,,,,,,,,,,
5e83d40c2598d412c836b579,TCN,2024-06-10_15h18.46.003,LearnStrategy,2023.2.3,Win32,60.24096386,1,1,5,0.012963019,0.001851824,1,0,0,0.8154,rock_grid_rect_2,7,08,-1,-1,0.815,0.350925954,-0.384259288,1,0,0,6.7958,Pumice_rect,8,6.796,0,4,0,4,0,1,,,,,,,,,,,,
5e83d40c2598d412c836b579,TCN,2024-06-10_15h18.46.003,LearnStrategy,2023.2.3,Win32,60.24096386,1,1,6,0.018518575,-0.003703732,1,0,0,0.732,rock_grid_rect_2,8,02,-1,-1,0.732,0.35648151,-0.261111111,1,0,0,4.2292,Gabbro_rect,4,4.229,0,5,0,5,0,1,,,,,,,,,,,,
5e83d40c2598d412c836b579,TCN,2024-06-10_15h18.46.003,LearnStrategy,2023.2.3,Win32,60.24096386,1,1,7,0.015740797,0.007407379,1,0,0,0.7319,rock_grid_rect_2,1,11,-1,-1,0.732,0.362963019,-0.248148176,1,0,0,7.1792,Gabbro_rect,4,7.179,0,6,0,6,0,1,,,,,,,,,,,,
5e83d40c2598d412c836b579,TCN,2024-06-10_15h18.46.003,LearnStrategy,2023.2.3,Win32,60.24096386,1,1,8,0.090740797,-0.012037065,1,0,0,0.6653,rock_grid_rect_2,4,16,-1,-1,0.665,0.128703732,-0.262037065,1,0,0,2.3955,Diorite_rect,3,2.395,0,7,0,7,0,1,,,,,,,,,,,,
5e83d40c2598d412c836b579,TCN,2024-06-10_15h18.46.003,LearnStrategy,2023.2.3,Win32,60.24096386,1,1,9,0.089814843,0.002777778,1,0,0,0.6488,rock_grid_rect_2,3,13,-1,-1,0.649,0.066666667,-0.270370399,1,0,0,9.429,Diorite_rect,3,9.429,1,8,0,8,0,1,,,,,,,,,,,,
5e83d40c2598d412c836b579,TCN,2024-06-10_15h18.46.003,LearnStrategy,2023.2.3,Win32,60.24096386,1,1,10,0.017592621,-0.008333333,1,0,0,0.6652,rock_grid_rect_2,7,15,-1,-1,0.665,-0.069444444,-0.400925954,1,0,0,2.0125,Pegmatite_rect,6,2.012,0,9,0,9,0,1,,,,,,,,,,,,
5e83d40c2598d412c836b579,TCN,2024-06-10_15h18.46.003,LearnStrategy,2023.2.3,Win32,60.24096386,1,1,11,0.014814843,-0.013888889,1,0,0,0.7155,rock_grid_rect_2,8,15,-1,-1,0.716,-0.117592536,-0.236111111,1,0,0,2.4459,Basalt_rect,2,2.446,0,10,0,10,0,1,,,,,,,,,,,,
5e83d40c2598d412c836b579,TCN,2024-06-10_15h18.46.003,LearnStrategy,2023.2.3,Win32,60.24096386,1,1,12,0.043518575,-0.017592621,1,0,0,0.5486,rock_grid_rect_2,1,09,-1,-1,0.549,-0.077777778,-0.248148176,1,0,0,2.8458,Basalt_rect,2,2.846,0,11,0,11,0,1,,,,,,,,,,,,
5e83d40c2598d412c836b579,TCN,2024-06-10_15h18.46.003,LearnStrategy,2023.2.3,Win32,60.24096386,1,1,13,0.026851908,-0.000925954,1,0,0,0.5156,rock_grid_rect_2,6,12,-1,-1,0.516,-0.097222222,-0.400925954,1,0,0,4.296,Pegmatite_rect,6,4.296,1,12,0,12,0,1,,,,,,,,,,,,
5e83d40c2598d412c836b579,TCN,2024-06-10_15h18.46.003,LearnStrategy,2023.2.3,Win32,60.24096386,1,1,14,0.059259288,0.007407379,1,0,0,0.5321,rock_grid_rect_2,2,06,-1,-1,0.532,-0.337962935,-0.411111111,1,0,0,2.579,Obsidian_rect,5,2.579,0,13,0,13,0,1,,,,,,,,,,,,
5e83d40c2598d412c836b579,TCN,2024-06-10_15h18.46.003,LearnStrategy,2023.2.3,Win32,60.24096386,1,1,15,0.089814843,0.021296268,1,0,0,0.5154,rock_grid_rect_2,2,10,-1,-1,0.515,-0.365740712,-0.261111111,1,0,0,1.9287,Andesite_rect,1,1.929,0,14,0,14,0,1,,,,,,,,,,,,
5e83d40c2598d412c836b579,TCN,2024-06-10_15h18.46.003,LearnStrategy,2023.2.3,Win32,60.24096386,1,1,16,0.053703732,0.001851824,1,0,0,0.7821,rock_grid_rect_2,4,08,-1,-1,0.782,0.184259288,-0.402777778,1,0,0,11.3795,Peridotite_rect,7,11.38,0,15,0,15,0,1,,,,,,,,,,,,
5e83d40c2598d412c836b579,TCN,2024-06-10_15h18.46.003,LearnStrategy,2023.2.3,Win32,60.24096386,1,2,1,,,,,,,,4,11,,,,,,,,,,,1,6.388,0,,,,,,-0.327777778,-0.242592621,1,0,0,6.3879,Andesite_rect,0,0,0,0,1
5e83d40c2598d412c836b579,TCN,2024-06-10_15h18.46.003,LearnStrategy,2023.2.3,Win32,60.24096386,1,2,2,,,,,,,,7,12,,,,,,,,,,,6,4.621,0,,,,,,-0.099074046,-0.402777778,1,0,0,4.6213,Pegmatite_rect,1,0,1,0,1
5e83d40c2598d412c836b579,TCN,2024-06-10_15h18.46.003,LearnStrategy,2023.2.3,Win32,60.24096386,1,2,3,,,,,,,,2,12,,,,,,,,,,,3,2.933,0,,,,,,0.162037065,-0.250925954,1,0,0,2.9331,Diorite_rect,2,0,2,0,1
5e83d40c2598d412c836b579,TCN,2024-06-10_15h18.46.003,LearnStrategy,2023.2.3,Win32,60.24096386,1,2,4,,,,,,,,8,04,,,,,,,,,,,8,2.026,1,,,,,,0.382407464,-0.380555556,1,0,0,2.0263,Pumice_rect,3,0,3,0,1
5e83d40c2598d412c836b579,TCN,2024-06-10_15h18.46.003,LearnStrategy,2023.2.3,Win32,60.24096386,1,2,5,,,,,,,,1,01,,,,,,,,,,,4,1.971,0,,,,,,0.337037065,-0.248148176,1,0,0,1.9715,Gabbro_rect,4,0,4,0,1
5e83d40c2598d412c836b579,TCN,2024-06-10_15h18.46.003,LearnStrategy,2023.2.3,Win32,60.24096386,1,2,6,,,,,,,,4,13,,,,,,,,,,,1,1.84,0,,,,,,-0.308333333,-0.239814843,1,0,0,1.8402,Andesite_rect,5,0,5,0,1
5e83d40c2598d412c836b579,TCN,2024-06-10_15h18.46.003,LearnStrategy,2023.2.3,Win32,60.24096386,1,2,7,,,,,,,,6,13,,,,,,,,,,,6,8.179,1,,,,,,-0.107407379,-0.387963019,1,0,0,8.179,Pegmatite_rect,6,0,6,0,1
5e83d40c2598d412c836b579,TCN,2024-06-10_15h18.46.003,LearnStrategy,2023.2.3,Win32,60.24096386,1,2,8,,,,,,,,5,02,,,,,,,,,,,5,1.162,1,,,,,,-0.360185157,-0.387963019,1,0,0,1.1622,Obsidian_rect,7,0,7,0,1
5e83d40c2598d412c836b579,TCN,2024-06-10_15h18.46.003,LearnStrategy,2023.2.3,Win32,60.24096386,1,2,9,,,,,,,,7,10,,,,,,,,,,,7,2.196,1,,,,,,0.087963019,-0.417592621,1,0,0,2.1955,Peridotite_rect,8,0,8,0,1
5e83d40c2598d412c836b579,TCN,2024-06-10_15h18.46.003,LearnStrategy,2023.2.3,Win32,60.24096386,1,2,10,,,,,,,,3,15,,,,,,,,,,,3,4.128,1,,,,,,0.202777778,-0.25648151,1,0,0,4.1284,Diorite_rect,9,0,9,0,1
5e83d40c2598d412c836b579,TCN,2024-06-10_15h18.46.003,LearnStrategy,2023.2.3,Win32,60.24096386,1,2,11,,,,,,,,6,07,,,,,,,,,,,6,3.046,1,,,,,,-0.053703647,-0.403703732,1,0,0,3.0456,Pegmatite_rect,10,0,10,0,1
5e83d40c2598d412c836b579,TCN,2024-06-10_15h18.46.003,LearnStrategy,2023.2.3,Win32,60.24096386,1,2,12,,,,,,,,3,14,,,,,,,,,,,2,2.379,0,,,,,,-0.1,-0.247222222,1,0,0,2.3786,Basalt_rect,11,0,11,0,1
5e83d40c2598d412c836b579,TCN,2024-06-10_15h18.46.003,LearnStrategy,2023.2.3,Win32,60.24096386,1,2,13,,,,,,,,5,14,,,,,,,,,,,5,1.245,1,,,,,,-0.382407379,-0.395370399,1,0,0,1.2454,Obsidian_rect,12,0,12,0,1
5e83d40c2598d412c836b579,TCN,2024-06-10_15h18.46.003,LearnStrategy,2023.2.3,Win32,60.24096386,1,2,14,,,,,,,,1,02,,,,,,,,,,,1,3.879,1,,,,,,-0.341666667,-0.237037065,1,0,0,3.8792,Andesite_rect,13,0,13,0,1
5e83d40c2598d412c836b579,TCN,2024-06-10_15h18.46.003,LearnStrategy,2023.2.3,Win32,60.24096386,1,2,15,,,,,,,,8,10,,,,,,,,,,,8,1.379,1,,,,,,0.35648151,-0.401851908,1,0,0,1.3786,Pumice_rect,14,0,14,0,1
5e83d40c2598d412c836b579,TCN,2024-06-10_15h18.46.003,LearnStrategy,2023.2.3,Win32,60.24096386,1,2,16,,,,,,,,2,04,,,,,,,,,,,4,1.712,0,,,,,,0.354629686,-0.261111111,1,0,0,1.7122,Gabbro_rect,15,0,15,0,1
5e83d40c2598d412c836b579,TCN,2024-06-10_15h18.46.003,LearnStrategy,2023.2.3,Win32,60.24096386,2,1,1,0.145370399,0.017592578,1,0,0,1.1325,rock_grid_rect_2,6,06,-1,-1,1.132,-0.108333333,-0.397222222,1,0,0,4.1622,Pegmatite_rect,6,4.162,1,0,0,0,0,1,,,,,,,,,,,,
5e83d40c2598d412c836b579,TCN,2024-06-10_15h18.46.003,LearnStrategy,2023.2.3,Win32,60.24096386,2,1,2,-0.015740712,-0.022222222,1,0,0,0.7657,rock_grid_rect_2,3,07,-1,-1,0.766,0.072222222,-0.397222222,1,0,0,2.6126,Peridotite_rect,7,2.613,0,1,0,1,0,1,,,,,,,,,,,,
5e83d40c2598d412c836b579,TCN,2024-06-10_15h18.46.003,LearnStrategy,2023.2.3,Win32,60.24096386,2,1,3,-0.012036981,0.006481467,1,0,0,0.6988,rock_grid_rect_2,8,08,-1,-1,0.699,0.337963019,-0.378703732,1,0,0,1.5119,Pumice_rect,8,1.512,1,2,0,2,0,1,,,,,,,,,,,,
5e83d40c2598d412c836b579,TCN,2024-06-10_15h18.46.003,LearnStrategy,2023.2.3,Win32,60.24096386,2,1,4,0.073148176,-0.001851866,1,0,0,0.8988,rock_grid_rect_2,1,03,-1,-1,0.899,-0.351851824,-0.262037065,1,0,0,4.2455,Andesite_rect,1,4.245,1,3,0,3,0,1,,,,,,,,,,,,
5e83d40c2598d412c836b579,TCN,2024-06-10_15h18.46.003,LearnStrategy,2023.2.3,Win32,60.24096386,2,1,5,0.013888889,-0.025,1,0,0,0.8156,rock_grid_rect_2,4,01,-1,-1,0.816,0.115740797,-0.233333333,1,0,0,3.829,Diorite_rect,3,3.829,0,4,0,4,0,1,,,,,,,,,,,,
5e83d40c2598d412c836b579,TCN,2024-06-10_15h18.46.003,LearnStrategy,2023.2.3,Win32,60.24096386,2,1,6,0.068518575,-0.002777778,1,0,0,0.4989,rock_grid_rect_2,3,02,-1,-1,0.499,0.077777778,-0.400925954,1,0,0,1.4459,Peridotite_rect,7,1.446,0,5,0,5,0,1,,,,,,,,,,,,
5e83d40c2598d412c836b579,TCN,2024-06-10_15h18.46.003,LearnStrategy,2023.2.3,Win32,60.24096386,2,1,7,0.075,0.009259245,1,0,0,0.5824,rock_grid_rect_2,5,09,-1,-1,0.582,-0.407407379,-0.391666667,1,0,0,1.0959,Obsidian_rect,5,1.096,1,6,0,6,0,1,,,,,,,,,,,,
5e83d40c2598d412c836b579,TCN,2024-06-10_15h18.46.003,LearnStrategy,2023.2.3,Win32,60.24096386,2,1,8,0.036111111,0.001851824,1,0,0,0.9491,rock_grid_rect_2,7,13,-1,-1,0.949,0.312963019,-0.246296353,1,0,0,2.1623,Gabbro_rect,4,2.162,0,7,0,7,0,1,,,,,,,,,,,,
5e83d40c2598d412c836b579,TCN,2024-06-10_15h18.46.003,LearnStrategy,2023.2.3,Win32,60.24096386,2,1,9,0.05,-0.002777778,1,0,0,0.5656,rock_grid_rect_2,6,05,-1,-1,0.566,-0.137036981,-0.38148151,1,0,0,2.8621,Pegmatite_rect,6,2.862,1,8,0,8,0,1,,,,,,,,,,,,
5e83d40c2598d412c836b579,TCN,2024-06-10_15h18.46.003,LearnStrategy,2023.2.3,Win32,60.24096386,2,1,10,-0.012036981,-0.025,1,0,0,0.4321,rock_grid_rect_2,7,07,-1,-1,0.432,-0.310185157,-0.247222222,1,0,0,2.9625,Andesite_rect,1,2.963,0,9,0,9,0,1,,,,,,,,,,,,
5e83d40c2598d412c836b579,TCN,2024-06-10_15h18.46.003,LearnStrategy,2023.2.3,Win32,60.24096386,2,1,11,0.084259288,-0.007407422,1,0,0,0.5653,rock_grid_rect_2,4,09,-1,-1,0.565,0.355555556,-0.234259288,1,0,0,1.4457,Gabbro_rect,4,1.446,1,10,0,10,0,1,,,,,,,,,,,,
5e83d40c2598d412c836b579,TCN,2024-06-10_15h18.46.003,LearnStrategy,2023.2.3,Win32,60.24096386,2,1,12,0.069444444,0.022222222,1,0,0,0.4826,rock_grid_rect_2,1,05,-1,-1,0.483,0.113888889,-0.400925954,1,0,0,1.9623,Peridotite_rect,7,1.962,0,11,0,11,0,1,,,,,,,,,,,,
5e83d40c2598d412c836b579,TCN,2024-06-10_15h18.46.003,LearnStrategy,2023.2.3,Win32,60.24096386,2,1,13,0.051851908,0.012037023,1,0,0,0.5487,rock_grid_rect_2,8,09,-1,-1,0.549,0.389814843,-0.38148151,1,0,0,1.3791,Pumice_rect,8,1.379,1,12,0,12,0,1,,,,,,,,,,,,
5e83d40c2598d412c836b579,TCN,2024-06-10_15h18.46.003,LearnStrategy,2023.2.3,Win32,60.24096386,2,1,14,0.021296353,-0.016666667,1,0,0,0.5325,rock_grid_rect_2,2,05,-1,-1,0.533,0.333333333,-0.245370399,1,0,0,1.7958,Gabbro_rect,4,1.796,0,13,0,13,0,1,,,,,,,,,,,,
5e83d40c2598d412c836b579,TCN,2024-06-10_15h18.46.003,LearnStrategy,2023.2.3,Win32,60.24096386,2,1,15,0.063888889,0.006481467,1,0,0,0.5154,rock_grid_rect_2,5,12,-1,-1,0.515,-0.334259245,-0.404629686,1,0,0,1.6794,Obsidian_rect,5,1.679,1,14,0,14,0,1,,,,,,,,,,,,
5e83d40c2598d412c836b579,TCN,2024-06-10_15h18.46.003,LearnStrategy,2023.2.3,Win32,60.24096386,2,1,16,0.008333333,0.00370369,1,0,0,0.7489,rock_grid_rect_2,2,16,-1,-1,0.749,-0.073148092,-0.238888889,1,0,0,5.0292,Basalt_rect,2,5.029,1,15,0,15,0,1,,,,,,,,,,,,
5e83d40c2598d412c836b579,TCN,2024-06-10_15h18.46.003,LearnStrategy,2023.2.3,Win32,60.24096386,2,2,1,,,,,,,,5,11,,,,,,,,,,,5,2.679,1,,,,,,-0.445370356,-0.409259288,1,0,0,2.679,Obsidian_rect,0,0,0,0,1
5e83d40c2598d412c836b579,TCN,2024-06-10_15h18.46.003,LearnStrategy,2023.2.3,Win32,60.24096386,2,2,2,,,,,,,,7,05,,,,,,,,,,,7,1.979,1,,,,,,0.114814843,-0.394444444,1,0,0,1.9787,Peridotite_rect,1,0,1,0,1
5e83d40c2598d412c836b579,TCN,2024-06-10_15h18.46.003,LearnStrategy,2023.2.3,Win32,60.24096386,2,2,3,,,,,,,,4,03,,,,,,,,,,,1,6.829,0,,,,,,-0.371296268,-0.229629686,1,0,0,6.8289,Andesite_rect,2,0,2,0,1
5e83d40c2598d412c836b579,TCN,2024-06-10_15h18.46.003,LearnStrategy,2023.2.3,Win32,60.24096386,2,2,4,,,,,,,,7,02,,,,,,,,,,,7,1.812,1,,,,,,0.074074131,-0.414814843,1,0,0,1.8118,Peridotite_rect,3,0,3,0,1
5e83d40c2598d412c836b579,TCN,2024-06-10_15h18.46.003,LearnStrategy,2023.2.3,Win32,60.24096386,2,2,5,,,,,,,,3,10,,,,,,,,,,,3,4.062,1,,,,,,0.113888889,-0.268518575,1,0,0,4.0624,Diorite_rect,4,0,4,0,1
5e83d40c2598d412c836b579,TCN,2024-06-10_15h18.46.003,LearnStrategy,2023.2.3,Win32,60.24096386,2,2,6,,,,,,,,1,07,,,,,,,,,,,6,3.629,0,,,,,,-0.073148092,-0.413888889,1,0,0,3.629,Pegmatite_rect,5,0,5,0,1
5e83d40c2598d412c836b579,TCN,2024-06-10_15h18.46.003,LearnStrategy,2023.2.3,Win32,60.24096386,2,2,7,,,,,,,,3,12,,,,,,,,,,,2,4.446,0,,,,,,-0.126851824,-0.229629686,1,0,0,4.4459,Basalt_rect,6,0,6,0,1
5e83d40c2598d412c836b579,TCN,2024-06-10_15h18.46.003,LearnStrategy,2023.2.3,Win32,60.24096386,2,2,8,,,,,,,,8,14,,,,,,,,,,,8,1.362,1,,,,,,0.341666667,-0.405555556,1,0,0,1.362,Pumice_rect,7,0,7,0,1
5e83d40c2598d412c836b579,TCN,2024-06-10_15h18.46.003,LearnStrategy,2023.2.3,Win32,60.24096386,2,2,9,,,,,,,,2,14,,,,,,,,,,,4,1.412,0,,,,,,0.396296353,-0.230555556,1,0,0,1.4119,Gabbro_rect,8,0,8,0,1
5e83d40c2598d412c836b579,TCN,2024-06-10_15h18.46.003,LearnStrategy,2023.2.3,Win32,60.24096386,2,2,10,,,,,,,,5,16,,,,,,,,,,,5,1.078,1,,,,,,-0.373148134,-0.38148151,1,0,0,1.0784,Obsidian_rect,9,0,9,0,1
5e83d40c2598d412c836b579,TCN,2024-06-10_15h18.46.003,LearnStrategy,2023.2.3,Win32,60.24096386,2,2,11,,,,,,,,4,05,,,,,,,,,,,3,1.846,0,,,,,,0.096296353,-0.25,1,0,0,1.846,Diorite_rect,10,0,10,0,1
5e83d40c2598d412c836b579,TCN,2024-06-10_15h18.46.003,LearnStrategy,2023.2.3,Win32,60.24096386,2,2,12,,,,,,,,2,09,,,,,,,,,,,1,1.462,0,,,,,,-0.312037023,-0.244444444,1,0,0,1.4618,Andesite_rect,11,0,11,0,1
5e83d40c2598d412c836b579,TCN,2024-06-10_15h18.46.003,LearnStrategy,2023.2.3,Win32,60.24096386,2,2,13,,,,,,,,6,10,,,,,,,,,,,6,1.813,1,,,,,,-0.117592536,-0.405555556,1,0,0,1.8126,Pegmatite_rect,12,0,12,0,1
5e83d40c2598d412c836b579,TCN,2024-06-10_15h18.46.003,LearnStrategy,2023.2.3,Win32,60.24096386,2,2,14,,,,,,,,1,04,,,,,,,,,,,1,3.395,1,,,,,,-0.304629601,-0.246296353,1,0,0,3.3953,Andesite_rect,13,0,13,0,1
5e83d40c2598d412c836b579,TCN,2024-06-10_15h18.46.003,LearnStrategy,2023.2.3,Win32,60.24096386,2,2,15,,,,,,,,8,03,,,,,,,,,,,8,1.279,1,,,,,,0.382407464,-0.388888889,1,0,0,1.2788,Pumice_rect,14,0,14,0,1
5e83d40c2598d412c836b579,TCN,2024-06-10_15h18.46.003,LearnStrategy,2023.2.3,Win32,60.24096386,2,2,16,,,,,,,,6,16,,,,,,,,,,,7,3.379,0,,,,,,0.138888889,-0.403703732,1,0,0,3.3788,Peridotite_rect,15,0,15,0,1
5e83d40c2598d412c836b579,TCN,2024-06-10_15h18.46.003,LearnStrategy,2023.2.3,Win32,60.24096386,3,1,1,-0.030555556,0.007407379,1,0,0,1.2159,rock_grid_rect_2,5,05,-1,-1,1.216,-0.382407379,-0.411111111,1,0,0,2.8958,Obsidian_rect,5,2.896,1,0,0,0,0,1,,,,,,,,,,,,
5e83d40c2598d412c836b579,TCN,2024-06-10_15h18.46.003,LearnStrategy,2023.2.3,Win32,60.24096386,3,1,2,-0.033333333,-0.004629644,1,0,0,0.6489,rock_grid_rect_2,6,15,-1,-1,0.649,-0.114814758,-0.402777778,1,0,0,1.6459,Pegmatite_rect,6,1.646,1,1,0,1,0,1,,,,,,,,,,,,
5e83d40c2598d412c836b579,TCN,2024-06-10_15h18.46.003,LearnStrategy,2023.2.3,Win32,60.24096386,3,1,3,0.001851908,0.013888889,1,0,0,0.5156,rock_grid_rect_2,5,08,-1,-1,0.516,-0.381481467,-0.380555556,1,0,0,1.1793,Obsidian_rect,5,1.179,1,2,0,2,0,1,,,,,,,,,,,,
5e83d40c2598d412c836b579,TCN,2024-06-10_15h18.46.003,LearnStrategy,2023.2.3,Win32,60.24096386,3,1,4,0.079629686,-0.003703732,1,0,0,0.6326,rock_grid_rect_2,7,04,-1,-1,0.633,-0.405555556,-0.244444444,1,0,0,10.5792,Andesite_rect,1,10.579,0,3,0,3,0,1,,,,,,,,,,,,
5e83d40c2598d412c836b579,TCN,2024-06-10_15h18.46.003,LearnStrategy,2023.2.3,Win32,60.24096386,3,1,5,0.032407464,0.014814801,1,0,0,0.6654,rock_grid_rect_2,2,01,-1,-1,0.665,-0.085185157,-0.241666667,1,0,0,1.7957,Basalt_rect,2,1.796,1,4,0,4,0,1,,,,,,,,,,,,
5e83d40c2598d412c836b579,TCN,2024-06-10_15h18.46.003,LearnStrategy,2023.2.3,Win32,60.24096386,3,1,6,-0.031481425,0.008333333,1,0,0,0.5656,rock_grid_rect_2,4,14,-1,-1,0.566,0.399074131,-0.252777778,1,0,0,2.5458,Gabbro_rect,4,2.546,1,5,0,5,0,1,,,,,,,,,,,,
5e83d40c2598d412c836b579,TCN,2024-06-10_15h18.46.003,LearnStrategy,2023.2.3,Win32,60.24096386,3,1,7,0.065740797,-0.005555556,1,0,0,0.499,rock_grid_rect_2,3,16,-1,-1,0.499,-0.335185157,-0.248148176,1,0,0,2.7792,Andesite_rect,1,2.779,0,6,0,6,0,1,,,,,,,,,,,,
5e83d40c2598d412c836b579,TCN,2024-06-10_15h18.46.003,LearnStrategy,2023.2.3,Win32,60.24096386,3,1,8,0.036111111,0.005555556,1,0,0,0.7322,rock_grid_rect_2,6,08,-1,-1,0.732,-0.103703647,-0.386111111,1,0,0,2.6952,Pegmatite_rect,6,2.695,1,7,0,7,0,1,,,,,,,,,,,,
5e83d40c2598d412c836b579,TCN,2024-06-10_15h18.46.003,LearnStrategy,2023.2.3,Win32,60.24096386,3,1,9,0.012963019,0.019444444,1,0,0,0.4491,rock_grid_rect_2,1,06,-1,-1,0.449,-0.337962935,-0.241666667,1,0,0,4.3293,Andesite_rect,1,4.329,1,8,0,8,0,1,,,,,,,,,,,,
5e83d40c2598d412c836b579,TCN,2024-06-10_15h18.46.003,LearnStrategy,2023.2.3,Win32,60.24096386,3,1,10,0.037963019,0.009259245,1,0,0,0.4655,rock_grid_rect_2,8,05,-1,-1,0.466,0.376851908,-0.384259288,1,0,0,1.2462,Pumice_rect,8,1.246,1,9,0,9,0,1,,,,,,,,,,,,
5e83d40c2598d412c836b579,TCN,2024-06-10_15h18.46.003,LearnStrategy,2023.2.3,Win32,60.24096386,3,1,11,0.044444444,0.009259245,1,0,0,1.2992,rock_grid_rect_2,2,08,-1,-1,1.299,0.142592621,-0.244444444,1,0,0,3.7291,Diorite_rect,3,3.729,0,10,0,10,0,1,,,,,,,,,,,,
5e83d40c2598d412c836b579,TCN,2024-06-10_15h18.46.003,LearnStrategy,2023.2.3,Win32,60.24096386,3,1,12,0.018518575,0.00370369,1,0,0,0.4988,rock_grid_rect_2,1,16,-1,-1,0.499,0.096296353,-0.408333333,1,0,0,1.6291,Peridotite_rect,7,1.629,0,11,0,11,0,1,,,,,,,,,,,,
5e83d40c2598d412c836b579,TCN,2024-06-10_15h18.46.003,LearnStrategy,2023.2.3,Win32,60.24096386,3,1,13,-0.002777778,0.000925912,1,0,0,0.5826,rock_grid_rect_2,8,06,-1,-1,0.583,0.352777778,-0.408333333,1,0,0,1.496,Pumice_rect,8,1.496,1,12,0,12,0,1,,,,,,,,,,,,
5e83d40c2598d412c836b579,TCN,2024-06-10_15h18.46.003,LearnStrategy,2023.2.3,Win32,60.24096386,3,1,14,-0.021296268,-0.007407422,1,0,0,0.5158,rock_grid_rect_2,3,11,-1,-1,0.516,0.148148176,-0.408333333,1,0,0,2.2954,Peridotite_rect,7,2.295,0,13,0,13,0,1,,,,,,,,,,,,
5e83d40c2598d412c836b579,TCN,2024-06-10_15h18.46.003,LearnStrategy,2023.2.3,Win32,60.24096386,3,1,15,0.015740797,-0.018518533,1,0,0,0.5322,rock_grid_rect_2,7,06,-1,-1,0.532,0.094444444,-0.395370399,1,0,0,1.5625,Peridotite_rect,7,1.563,1,14,0,14,0,1,,,,,,,,,,,,
5e83d40c2598d412c836b579,TCN,2024-06-10_15h18.46.003,LearnStrategy,2023.2.3,Win32,60.24096386,3,1,16,0.001851908,-0.003703732,1,0,0,0.466,rock_grid_rect_2,4,12,-1,-1,0.466,0.342592621,-0.248148176,1,0,0,5.8294,Gabbro_rect,4,5.829,1,15,0,15,0,1,,,,,,,,,,,,
5e83d40c2598d412c836b579,TCN,2024-06-10_15h18.46.003,LearnStrategy,2023.2.3,Win32,60.24096386,3,2,1,,,,,,,,1,14,,,,,,,,,,,6,2.996,0,,,,,,-0.081481425,-0.383333333,1,0,0,2.9959,Pegmatite_rect,0,0,0,0,1
5e83d40c2598d412c836b579,TCN,2024-06-10_15h18.46.003,LearnStrategy,2023.2.3,Win32,60.24096386,3,2,2,,,,,,,,6,11,,,,,,,,,,,6,2.495,1,,,,,,-0.145370314,-0.411111111,1,0,0,2.4952,Pegmatite_rect,1,0,1,0,1
5e83d40c2598d412c836b579,TCN,2024-06-10_15h18.46.003,LearnStrategy,2023.2.3,Win32,60.24096386,3,2,3,,,,,,,,4,15,,,,,,,,,,,2,2.795,0,,,,,,-0.084259203,-0.259259288,1,0,0,2.7955,Basalt_rect,2,0,2,0,1
5e83d40c2598d412c836b579,TCN,2024-06-10_15h18.46.003,LearnStrategy,2023.2.3,Win32,60.24096386,3,2,4,,,,,,,,8,13,,,,,,,,,,,8,1.212,1,,,,,,0.352777778,-0.394444444,1,0,0,1.2125,Pumice_rect,3,0,3,0,1
5e83d40c2598d412c836b579,TCN,2024-06-10_15h18.46.003,LearnStrategy,2023.2.3,Win32,60.24096386,3,2,5,,,,,,,,2,02,,,,,,,,,,,2,3.429,1,,,,,,-0.114814758,-0.249074131,1,0,0,3.4294,Basalt_rect,4,0,4,0,1
5e83d40c2598d412c836b579,TCN,2024-06-10_15h18.46.003,LearnStrategy,2023.2.3,Win32,60.24096386,3,2,6,,,,,,,,4,10,,,,,,,,,,,4,1.796,1,,,,,,0.351851908,-0.249074131,1,0,0,1.7956,Gabbro_rect,5,0,5,0,1
5e83d40c2598d412c836b579,TCN,2024-06-10_15h18.46.003,LearnStrategy,2023.2.3,Win32,60.24096386,3,2,7,,,,,,,,2,11,,,,,,,,,,,1,1.596,0,,,,,,-0.34351849,-0.245370399,1,0,0,1.5955,Andesite_rect,6,0,6,0,1
5e83d40c2598d412c836b579,TCN,2024-06-10_15h18.46.003,LearnStrategy,2023.2.3,Win32,60.24096386,3,2,8,,,,,,,,6,03,,,,,,,,,,,6,1.745,1,,,,,,-0.125,-0.40648151,1,0,0,1.7455,Pegmatite_rect,7,0,7,0,1
5e83d40c2598d412c836b579,TCN,2024-06-10_15h18.46.003,LearnStrategy,2023.2.3,Win32,60.24096386,3,2,9,,,,,,,,5,04,,,,,,,,,,,5,0.929,1,,,,,,-0.365740712,-0.408333333,1,0,0,0.9289,Obsidian_rect,8,0,8,0,1
5e83d40c2598d412c836b579,TCN,2024-06-10_15h18.46.003,LearnStrategy,2023.2.3,Win32,60.24096386,3,2,10,,,,,,,,3,09,,,,,,,,,,,7,2.979,0,,,,,,0.110185242,-0.409259288,1,0,0,2.9788,Peridotite_rect,9,0,9,0,1
5e83d40c2598d412c836b579,TCN,2024-06-10_15h18.46.003,LearnStrategy,2023.2.3,Win32,60.24096386,3,2,11,,,,,,,,5,07,,,,,,,,,,,5,2.029,1,,,,,,-0.332407379,-0.4,1,0,0,2.029,Obsidian_rect,10,0,10,0,1
5e83d40c2598d412c836b579,TCN,2024-06-10_15h18.46.003,LearnStrategy,2023.2.3,Win32,60.24096386,3,2,12,,,,,,,,8,16,,,,,,,,,,,8,1.129,1,,,,,,0.386111111,-0.397222222,1,0,0,1.1287,Pumice_rect,11,0,11,0,1
5e83d40c2598d412c836b579,TCN,2024-06-10_15h18.46.003,LearnStrategy,2023.2.3,Win32,60.24096386,3,2,13,,,,,,,,1,10,,,,,,,,,,,4,2.529,0,,,,,,0.337963019,-0.247222222,1,0,0,2.5292,Gabbro_rect,12,0,12,0,1
5e83d40c2598d412c836b579,TCN,2024-06-10_15h18.46.003,LearnStrategy,2023.2.3,Win32,60.24096386,3,2,14,,,,,,,,7,14,,,,,,,,,,,1,1.813,0,,,,,,-0.332407379,-0.241666667,1,0,0,1.8125,Andesite_rect,13,0,13,0,1
5e83d40c2598d412c836b579,TCN,2024-06-10_15h18.46.003,LearnStrategy,2023.2.3,Win32,60.24096386,3,2,15,,,,,,,,3,08,,,,,,,,,,,7,1.612,0,,,,,,0.111111111,-0.398148176,1,0,0,1.6122,Peridotite_rect,14,0,14,0,1
5e83d40c2598d412c836b579,TCN,2024-06-10_15h18.46.003,LearnStrategy,2023.2.3,Win32,60.24096386,3,2,16,,,,,,,,7,16,,,,,,,,,,,3,2.729,0,,,,,,0.087963019,-0.247222222,1,0,0,2.7294,Diorite_rect,15,0,15,0,1
5e83d40c2598d412c836b579,TCN,2024-06-10_15h18.46.003,LearnStrategy,2023.2.3,Win32,60.24096386,4,1,1,0.064814843,0.012037023,1,0,0,0.766,rock_grid_rect_2,3,13,-1,-1,0.766,0.130555556,-0.414814843,1,0,0,1.8787,Peridotite_rect,7,1.879,0,0,0,0,0,1,,,,,,,,,,,,
5e83d40c2598d412c836b579,TCN,2024-06-10_15h18.46.003,LearnStrategy,2023.2.3,Win32,60.24096386,4,1,2,0.093518575,-0.004629644,1,0,0,1.1322,rock_grid_rect_2,4,14,-1,-1,1.132,-0.051851824,-0.263888889,1,0,0,2.4457,Basalt_rect,2,2.446,0,1,0,1,0,1,,,,,,,,,,,,
5e83d40c2598d412c836b579,TCN,2024-06-10_15h18.46.003,LearnStrategy,2023.2.3,Win32,60.24096386,4,1,3,0.049074131,0.014814801,1,0,0,0.4822,rock_grid_rect_2,3,11,-1,-1,0.482,0.041666667,-0.391666667,1,0,0,1.9625,Peridotite_rect,7,1.962,0,2,0,2,0,1,,,,,,,,,,,,
5e83d40c2598d412c836b579,TCN,2024-06-10_15h18.46.003,LearnStrategy,2023.2.3,Win32,60.24096386,4,1,4,0.028703732,-0.008333333,1,0,0,0.6823,rock_grid_rect_2,7,13,-1,-1,0.682,-0.357407379,-0.255555556,1,0,0,4.479,Andesite_rect,1,4.479,0,3,0,3,0,1,,,,,,,,,,,,
5e83d40c2598d412c836b579,TCN,2024-06-10_15h18.46.003,LearnStrategy,2023.2.3,Win32,60.24096386,4,1,5,0.076851908,-0.005555556,1,0,0,0.6989,rock_grid_rect_2,2,10,-1,-1,0.699,0.344444444,-0.255555556,1,0,0,1.8792,Gabbro_rect,4,1.879,0,4,0,4,0,1,,,,,,,,,,,,
5e83d40c2598d412c836b579,TCN,2024-06-10_15h18.46.003,LearnStrategy,2023.2.3,Win32,60.24096386,4,1,6,0.052777778,-0.018518533,1,0,0,0.4489,rock_grid_rect_2,5,06,-1,-1,0.449,-0.396296268,-0.400925954,1,0,0,0.9626,Obsidian_rect,5,0.963,1,5,0,5,0,1,,,,,,,,,,,,
5e83d40c2598d412c836b579,TCN,2024-06-10_15h18.46.003,LearnStrategy,2023.2.3,Win32,60.24096386,4,1,7,0.055555556,-0.008333333,1,0,0,0.6492,rock_grid_rect_2,8,02,-1,-1,0.649,0.368518575,-0.389814843,1,0,0,1.1463,Pumice_rect,8,1.146,1,6,0,6,0,1,,,,,,,,,,,,
5e83d40c2598d412c836b579,TCN,2024-06-10_15h18.46.003,LearnStrategy,2023.2.3,Win32,60.24096386,4,1,8,0.043518575,0.011111111,1,0,0,0.9159,rock_grid_rect_2,6,12,-1,-1,0.916,-0.090740712,-0.405555556,1,0,0,1.7794,Pegmatite_rect,6,1.779,1,7,0,7,0,1,,,,,,,,,,,,
5e83d40c2598d412c836b579,TCN,2024-06-10_15h18.46.003,LearnStrategy,2023.2.3,Win32,60.24096386,4,1,9,-0.031481425,0.002777778,1,0,0,0.4659,rock_grid_rect_2,6,15,-1,-1,0.466,-0.109259203,-0.409259288,1,0,0,1.1459,Pegmatite_rect,6,1.146,1,8,0,8,0,1,,,,,,,,,,,,
5e83d40c2598d412c836b579,TCN,2024-06-10_15h18.46.003,LearnStrategy,2023.2.3,Win32,60.24096386,4,1,10,0.045370399,-0.025,1,0,0,0.3992,rock_grid_rect_2,2,08,-1,-1,0.399,0.385185242,-0.253703732,1,0,0,2.3623,Gabbro_rect,4,2.362,0,9,0,9,0,1,,,,,,,,,,,,
5e83d40c2598d412c836b579,TCN,2024-06-10_15h18.46.003,LearnStrategy,2023.2.3,Win32,60.24096386,4,1,11,0.046296353,-0.005555556,1,0,0,0.6654,rock_grid_rect_2,8,09,-1,-1,0.665,0.415740797,-0.392592621,1,0,0,2.196,Pumice_rect,8,2.196,1,10,0,10,0,1,,,,,,,,,,,,
5e83d40c2598d412c836b579,TCN,2024-06-10_15h18.46.003,LearnStrategy,2023.2.3,Win32,60.24096386,4,1,12,0.038888889,-0.013888889,1,0,0,0.7989,rock_grid_rect_2,1,05,-1,-1,0.799,0.055555556,-0.393518575,1,0,0,1.9123,Peridotite_rect,7,1.912,0,11,0,11,0,1,,,,,,,,,,,,
5e83d40c2598d412c836b579,TCN,2024-06-10_15h18.46.003,LearnStrategy,2023.2.3,Win32,60.24096386,4,1,13,0.047222222,0.008333333,1,0,0,0.5153,rock_grid_rect_2,5,12,-1,-1,0.515,-0.381481467,-0.388888889,1,0,0,1.0624,Obsidian_rect,5,1.062,1,12,0,12,0,1,,,,,,,,,,,,
5e83d40c2598d412c836b579,TCN,2024-06-10_15h18.46.003,LearnStrategy,2023.2.3,Win32,60.24096386,4,1,14,0.066666667,0.009259245,1,0,0,0.5326,rock_grid_rect_2,7,15,-1,-1,0.533,0.124074131,-0.416666667,1,0,0,1.8292,Peridotite_rect,7,1.829,1,13,0,13,0,1,,,,,,,,,,,,
5e83d40c2598d412c836b579,TCN,2024-06-10_15h18.46.003,LearnStrategy,2023.2.3,Win32,60.24096386,4,1,15,0.010185242,-0.025,1,0,0,0.6823,rock_grid_rect_2,4,01,-1,-1,0.682,-0.295370356,-0.244444444,1,0,0,7.0292,Andesite_rect,1,7.029,0,14,0,14,0,1,,,,,,,,,,,,
5e83d40c2598d412c836b579,TCN,2024-06-10_15h18.46.003,LearnStrategy,2023.2.3,Win32,60.24096386,4,1,16,0.045370399,0.000925912,1,0,0,0.7487,rock_grid_rect_2,1,06,-1,-1,0.749,-0.336111111,-0.264814843,1,0,0,2.0291,Andesite_rect,1,2.029,1,15,0,15,0,1,,,,,,,,,,,,
5e83d40c2598d412c836b579,TCN,2024-06-10_15h18.46.003,LearnStrategy,2023.2.3,Win32,60.24096386,4,2,1,,,,,,,,6,07,,,,,,,,,,,6,1.413,1,,,,,,-0.153703647,-0.4,1,0,0,1.4126,Pegmatite_rect,0,0,0,0,1
5e83d40c2598d412c836b579,TCN,2024-06-10_15h18.46.003,LearnStrategy,2023.2.3,Win32,60.24096386,4,2,2,,,,,,,,2,12,,,,,,,,,,,3,4.712,0,,,,,,0.093518575,-0.257407464,1,0,0,4.7122,Diorite_rect,1,0,1,0,1
5e83d40c2598d412c836b579,TCN,2024-06-10_15h18.46.003,LearnStrategy,2023.2.3,Win32,60.24096386,4,2,3,,,,,,,,8,16,,,,,,,,,,,8,1.262,1,,,,,,0.376851908,-0.411111111,1,0,0,1.2624,Pumice_rect,2,0,2,0,1
5e83d40c2598d412c836b579,TCN,2024-06-10_15h18.46.003,LearnStrategy,2023.2.3,Win32,60.24096386,4,2,4,,,,,,,,3,09,,,,,,,,,,,7,4.079,0,,,,,,0.098148176,-0.397222222,1,0,0,4.0792,Peridotite_rect,3,0,3,0,1
5e83d40c2598d412c836b579,TCN,2024-06-10_15h18.46.003,LearnStrategy,2023.2.3,Win32,60.24096386,4,2,5,,,,,,,,8,10,,,,,,,,,,,8,1.346,1,,,,,,0.385185242,-0.403703732,1,0,0,1.3456,Pumice_rect,4,0,4,0,1
5e83d40c2598d412c836b579,TCN,2024-06-10_15h18.46.003,LearnStrategy,2023.2.3,Win32,60.24096386,4,2,6,,,,,,,,7,10,,,,,,,,,,,7,1.729,1,,,,,,0.117592621,-0.378703732,1,0,0,1.729,Peridotite_rect,5,0,5,0,1
5e83d40c2598d412c836b579,TCN,2024-06-10_15h18.46.003,LearnStrategy,2023.2.3,Win32,60.24096386,4,2,7,,,,,,,,6,11,,,,,,,,,,,6,1.062,1,,,,,,-0.117592536,-0.384259288,1,0,0,1.0624,Pegmatite_rect,6,0,6,0,1
5e83d40c2598d412c836b579,TCN,2024-06-10_15h18.46.003,LearnStrategy,2023.2.3,Win32,60.24096386,4,2,8,,,,,,,,1,02,,,,,,,,,,,1,4.313,1,,,,,,-0.324074046,-0.244444444,1,0,0,4.3126,Andesite_rect,7,0,7,0,1
5e83d40c2598d412c836b579,TCN,2024-06-10_15h18.46.003,LearnStrategy,2023.2.3,Win32,60.24096386,4,2,9,,,,,,,,4,11,,,,,,,,,,,2,3.879,0,,,,,,-0.098148092,-0.248148176,1,0,0,3.8788,Basalt_rect,8,0,8,0,1
5e83d40c2598d412c836b579,TCN,2024-06-10_15h18.46.003,LearnStrategy,2023.2.3,Win32,60.24096386,4,2,10,,,,,,,,5,02,,,,,,,,,,,5,1.512,1,,,,,,-0.365740712,-0.413888889,1,0,0,1.5122,Obsidian_rect,9,0,9,0,1
5e83d40c2598d412c836b579,TCN,2024-06-10_15h18.46.003,LearnStrategy,2023.2.3,Win32,60.24096386,4,2,11,,,,,,,,5,04,,,,,,,,,,,5,0.812,1,,,,,,-0.359259245,-0.414814843,1,0,0,0.8124,Obsidian_rect,10,0,10,0,1
5e83d40c2598d412c836b579,TCN,2024-06-10_15h18.46.003,LearnStrategy,2023.2.3,Win32,60.24096386,4,2,12,,,,,,,,2,14,,,,,,,,,,,3,1.396,0,,,,,,0.10648151,-0.241666667,1,0,0,1.3957,Diorite_rect,11,0,11,0,1
5e83d40c2598d412c836b579,TCN,2024-06-10_15h18.46.003,LearnStrategy,2023.2.3,Win32,60.24096386,4,2,13,,,,,,,,3,08,,,,,,,,,,,7,2.879,0,,,,,,0.101851908,-0.413888889,1,0,0,2.8787,Peridotite_rect,12,0,12,0,1
5e83d40c2598d412c836b579,TCN,2024-06-10_15h18.46.003,LearnStrategy,2023.2.3,Win32,60.24096386,4,2,14,,,,,,,,1,01,,,,,,,,,,,4,1.662,0,,,,,,0.333333333,-0.254629686,1,0,0,1.6619,Gabbro_rect,13,0,13,0,1
5e83d40c2598d412c836b579,TCN,2024-06-10_15h18.46.003,LearnStrategy,2023.2.3,Win32,60.24096386,4,2,15,,,,,,,,4,03,,,,,,,,,,,3,3.163,0,,,,,,0.096296353,-0.251851908,1,0,0,3.1628,Diorite_rect,14,0,14,0,1
5e83d40c2598d412c836b579,TCN,2024-06-10_15h18.46.003,LearnStrategy,2023.2.3,Win32,60.24096386,4,2,16,,,,,,,,7,12,,,,,,,,,,,7,1.195,1,,,,,,0.080555556,-0.380555556,1,0,0,1.1954,Peridotite_rect,15,0,15,0,1
5e83d40c2598d412c836b579,TCN,2024-06-10_15h18.46.003,LearnStrategy,2023.2.3,Win32,60.24096386,5,1,1,0.03148151,-0.011111111,1,0,0,0.7325,rock_grid_rect_2,4,16,-1,-1,0.732,0.157407464,-0.261111111,1,0,0,3.1793,Diorite_rect,3,3.179,0,0,0,0,0,1,,,,,,,,,,,,
5e83d40c2598d412c836b579,TCN,2024-06-10_15h18.46.003,LearnStrategy,2023.2.3,Win32,60.24096386,5,1,2,0.069444444,-0.014814843,1,0,0,0.8154,rock_grid_rect_2,1,03,-1,-1,0.815,-0.412037023,-0.25648151,1,0,0,1.4959,Andesite_rect,1,1.496,1,1,0,1,0,1,,,,,,,,,,,,
5e83d40c2598d412c836b579,TCN,2024-06-10_15h18.46.003,LearnStrategy,2023.2.3,Win32,60.24096386,5,1,3,0.051851908,-0.008333333,1,0,0,0.6492,rock_grid_rect_2,5,08,-1,-1,0.649,-0.402777778,-0.414814843,1,0,0,1.146,Obsidian_rect,5,1.146,1,2,0,2,0,1,,,,,,,,,,,,
5e83d40c2598d412c836b579,TCN,2024-06-10_15h18.46.003,LearnStrategy,2023.2.3,Win32,60.24096386,5,1,4,0.064814843,0.002777778,1,0,0,0.4825,rock_grid_rect_2,2,05,-1,-1,0.482,0.341666667,-0.245370399,1,0,0,2.8792,Gabbro_rect,4,2.879,0,3,0,3,0,1,,,,,,,,,,,,
5e83d40c2598d412c836b579,TCN,2024-06-10_15h18.46.003,LearnStrategy,2023.2.3,Win32,60.24096386,5,1,5,0.084259288,0.012037023,1,0,0,0.4988,rock_grid_rect_2,7,06,-1,-1,0.499,0.068518575,-0.397222222,1,0,0,1.4293,Peridotite_rect,7,1.429,1,4,0,4,0,1,,,,,,,,,,,,
5e83d40c2598d412c836b579,TCN,2024-06-10_15h18.46.003,LearnStrategy,2023.2.3,Win32,60.24096386,5,1,6,0.021296353,0.005555556,1,0,0,0.7325,rock_grid_rect_2,3,02,-1,-1,0.732,0.174074131,-0.418518575,1,0,0,2.4626,Peridotite_rect,7,2.463,0,5,0,5,0,1,,,,,,,,,,,,
5e83d40c2598d412c836b579,TCN,2024-06-10_15h18.46.003,LearnStrategy,2023.2.3,Win32,60.24096386,5,1,7,-0.022222222,-0.007407422,1,0,0,0.7821,rock_grid_rect_2,5,10,-1,-1,0.782,-0.400925912,-0.391666667,1,0,0,0.9125,Obsidian_rect,5,0.913,1,6,0,6,0,1,,,,,,,,,,,,
5e83d40c2598d412c836b579,TCN,2024-06-10_15h18.46.003,LearnStrategy,2023.2.3,Win32,60.24096386,5,1,8,0.087963019,0.023148134,1,0,0,0.4991,rock_grid_rect_2,7,04,-1,-1,0.499,-0.112962935,-0.380555556,1,0,0,1.1127,Pegmatite_rect,6,1.113,0,7,0,7,0,1,,,,,,,,,,,,
5e83d40c2598d412c836b579,TCN,2024-06-10_15h18.46.003,LearnStrategy,2023.2.3,Win32,60.24096386,5,1,9,0.046296353,0.012037023,1,0,0,0.5992,rock_grid_rect_2,6,05,-1,-1,0.599,-0.141666667,-0.392592621,1,0,0,1.3623,Pegmatite_rect,6,1.362,1,8,0,8,0,1,,,,,,,,,,,,
5e83d40c2598d412c836b579,TCN,2024-06-10_15h18.46.003,LearnStrategy,2023.2.3,Win32,60.24096386,5,1,10,0.068518575,-0.005555556,1,0,0,0.5491,rock_grid_rect_2,6,09,-1,-1,0.549,-0.109259203,-0.412037065,1,0,0,1.0789,Pegmatite_rect,6,1.079,1,9,0,9,0,1,,,,,,,,,,,,
5e83d40c2598d412c836b579,TCN,2024-06-10_15h18.46.003,LearnStrategy,2023.2.3,Win32,60.24096386,5,1,11,0.022222222,-0.004629644,1,0,0,0.4658,rock_grid_rect_2,8,08,-1,-1,0.466,0.439814843,-0.404629686,1,0,0,1.3788,Pumice_rect,8,1.379,1,10,0,10,0,1,,,,,,,,,,,,
5e83d40c2598d412c836b579,TCN,2024-06-10_15h18.46.003,LearnStrategy,2023.2.3,Win32,60.24096386,5,1,12,0.087963019,0.00370369,1,0,0,0.5325,rock_grid_rect_2,2,06,-1,-1,0.533,0.121296353,-0.259259288,1,0,0,2.3792,Diorite_rect,3,2.379,0,11,0,11,0,1,,,,,,,,,,,,
5e83d40c2598d412c836b579,TCN,2024-06-10_15h18.46.003,LearnStrategy,2023.2.3,Win32,60.24096386,5,1,13,0.051851908,-0.015740755,1,0,0,0.3988,rock_grid_rect_2,4,08,-1,-1,0.399,0.379629686,-0.248148176,1,0,0,4.8126,Gabbro_rect,4,4.813,1,12,0,12,0,1,,,,,,,,,,,,
5e83d40c2598d412c836b579,TCN,2024-06-10_15h18.46.003,LearnStrategy,2023.2.3,Win32,60.24096386,5,1,14,0.037963019,0.017592578,1,0,0,0.6823,rock_grid_rect_2,8,05,-1,-1,0.682,0.335185242,-0.391666667,1,0,0,1.2287,Pumice_rect,8,1.229,1,13,0,13,0,1,,,,,,,,,,,,
5e83d40c2598d412c836b579,TCN,2024-06-10_15h18.46.003,LearnStrategy,2023.2.3,Win32,60.24096386,5,1,15,0.032407464,-0.002777778,1,0,0,0.4826,rock_grid_rect_2,3,06,-1,-1,0.483,0.082407464,-0.402777778,1,0,0,1.8294,Peridotite_rect,7,1.829,0,14,0,14,0,1,,,,,,,,,,,,
5e83d40c2598d412c836b579,TCN,2024-06-10_15h18.46.003,LearnStrategy,2023.2.3,Win32,60.24096386,5,1,16,0.024074131,-0.007407422,1,0,0,0.6989,rock_grid_rect_2,1,16,-1,-1,0.699,0.097222222,-0.395370399,1,0,0,2.2626,Peridotite_rect,7,2.263,0,15,0,15,0,1,,,,,,,,,,,,
5e83d40c2598d412c836b579,TCN,2024-06-10_15h18.46.003,LearnStrategy,2023.2.3,Win32,60.24096386,5,2,1,,,,,,,,3,15,,,,,,,,,,,7,1.713,0,,,,,,0.141666667,-0.397222222,1,0,0,1.7128,Peridotite_rect,0,0,0,0,1
5e83d40c2598d412c836b579,TCN,2024-06-10_15h18.46.003,LearnStrategy,2023.2.3,Win32,60.24096386,5,2,2,,,,,,,,8,03,,,,,,,,,,,8,1.812,1,,,,,,0.347222222,-0.405555556,1,0,0,1.812,Pumice_rect,1,0,1,0,1
5e83d40c2598d412c836b579,TCN,2024-06-10_15h18.46.003,LearnStrategy,2023.2.3,Win32,60.24096386,5,2,3,,,,,,,,2,02,,,,,,,,,,,4,3.295,0,,,,,,0.340740797,-0.255555556,1,0,0,3.2955,Gabbro_rect,2,0,2,0,1
5e83d40c2598d412c836b579,TCN,2024-06-10_15h18.46.003,LearnStrategy,2023.2.3,Win32,60.24096386,5,2,4,,,,,,,,4,05,,,,,,,,,,,2,3.446,0,,,,,,-0.054629601,-0.232407464,1,0,0,3.4459,Basalt_rect,3,0,3,0,1
5e83d40c2598d412c836b579,TCN,2024-06-10_15h18.46.003,LearnStrategy,2023.2.3,Win32,60.24096386,5,2,5,,,,,,,,4,13,,,,,,,,,,,3,3.913,0,,,,,,0.066666667,-0.252777778,1,0,0,3.9125,Diorite_rect,4,0,4,0,1
5e83d40c2598d412c836b579,TCN,2024-06-10_15h18.46.003,LearnStrategy,2023.2.3,Win32,60.24096386,5,2,6,,,,,,,,6,13,,,,,,,,,,,6,1.029,1,,,,,,-0.121296268,-0.403703732,1,0,0,1.029,Pegmatite_rect,5,0,5,0,1
5e83d40c2598d412c836b579,TCN,2024-06-10_15h18.46.003,LearnStrategy,2023.2.3,Win32,60.24096386,5,2,7,,,,,,,,5,16,,,,,,,,,,,5,0.846,1,,,,,,-0.385185157,-0.420370399,1,0,0,0.8458,Obsidian_rect,6,0,6,0,1
5e83d40c2598d412c836b579,TCN,2024-06-10_15h18.46.003,LearnStrategy,2023.2.3,Win32,60.24096386,5,2,8,,,,,,,,3,14,,,,,,,,,,,3,4.012,1,,,,,,0.057407464,-0.236111111,1,0,0,4.0125,Diorite_rect,7,0,7,0,1
5e83d40c2598d412c836b579,TCN,2024-06-10_15h18.46.003,LearnStrategy,2023.2.3,Win32,60.24096386,5,2,9,,,,,,,,1,04,,,,,,,,,,,4,3.063,0,,,,,,0.316666667,-0.247222222,1,0,0,3.0625,Gabbro_rect,8,0,8,0,1
5e83d40c2598d412c836b579,TCN,2024-06-10_15h18.46.003,LearnStrategy,2023.2.3,Win32,60.24096386,5,2,10,,,,,,,,1,10,,,,,,,,,,,4,3.163,0,,,,,,0.359259288,-0.229629686,1,0,0,3.1626,Gabbro_rect,9,0,9,0,1
5e83d40c2598d412c836b579,TCN,2024-06-10_15h18.46.003,LearnStrategy,2023.2.3,Win32,60.24096386,5,2,11,,,,,,,,5,07,,,,,,,,,,,5,1.246,1,,,,,,-0.36851849,-0.391666667,1,0,0,1.2458,Obsidian_rect,10,0,10,0,1
5e83d40c2598d412c836b579,TCN,2024-06-10_15h18.46.003,LearnStrategy,2023.2.3,Win32,60.24096386,5,2,12,,,,,,,,6,10,,,,,,,,,,,6,1.479,1,,,,,,-0.122222222,-0.415740797,1,0,0,1.4791,Pegmatite_rect,11,0,11,0,1
5e83d40c2598d412c836b579,TCN,2024-06-10_15h18.46.003,LearnStrategy,2023.2.3,Win32,60.24096386,5,2,13,,,,,,,,7,02,,,,,,,,,,,7,1.262,1,,,,,,0.086111111,-0.408333333,1,0,0,1.2622,Peridotite_rect,12,0,12,0,1
5e83d40c2598d412c836b579,TCN,2024-06-10_15h18.46.003,LearnStrategy,2023.2.3,Win32,60.24096386,5,2,14,,,,,,,,8,14,,,,,,,,,,,8,1.062,1,,,,,,0.337963019,-0.401851908,1,0,0,1.0624,Pumice_rect,13,0,13,0,1
5e83d40c2598d412c836b579,TCN,2024-06-10_15h18.46.003,LearnStrategy,2023.2.3,Win32,60.24096386,5,2,15,,,,,,,,2,09,,,,,,,,,,,2,2.763,1,,,,,,-0.081481425,-0.254629686,1,0,0,2.7629,Basalt_rect,14,0,14,0,1
5e83d40c2598d412c836b579,TCN,2024-06-10_15h18.46.003,LearnStrategy,2023.2.3,Win32,60.24096386,5,2,16,,,,,,,,7,16,,,,,,,,,,,4,4.045,0,,,,,,0.340740797,-0.248148176,1,0,0,4.0454,Gabbro_rect,15,0,15,0,1
5e83d40c2598d412c836b579,TCN,2024-06-10_15h18.46.003,LearnStrategy,2023.2.3,Win32,60.24096386,6,1,1,0.022222222,0.022222222,1,0,0,0.5993,rock_grid_rect_2,3,07,-1,-1,0.599,0.15,-0.241666667,1,0,0,4.4959,Diorite_rect,3,4.496,1,0,0,0,0,1,,,,,,,,,,,,
5e83d40c2598d412c836b579,TCN,2024-06-10_15h18.46.003,LearnStrategy,2023.2.3,Win32,60.24096386,6,1,2,0.047222222,-0.005555556,1,0,0,0.732,rock_grid_rect_2,7,08,-1,-1,0.732,0.041666667,-0.398148176,1,0,0,1.7954,Peridotite_rect,7,1.795,1,1,0,1,0,1,,,,,,,,,,,,
5e83d40c2598d412c836b579,TCN,2024-06-10_15h18.46.003,LearnStrategy,2023.2.3,Win32,60.24096386,6,1,3,-0.005555556,-0.011111111,1,0,0,0.4989,rock_grid_rect_2,6,08,-1,-1,0.499,-0.129629601,-0.414814843,1,0,0,1.0127,Pegmatite_rect,6,1.013,1,2,0,2,0,1,,,,,,,,,,,,
5e83d40c2598d412c836b579,TCN,2024-06-10_15h18.46.003,LearnStrategy,2023.2.3,Win32,60.24096386,6,1,4,0.052777778,-0.008333333,1,0,0,0.5326,rock_grid_rect_2,3,16,-1,-1,0.533,-0.340740712,-0.250925954,1,0,0,1.7621,Andesite_rect,1,1.762,0,3,0,3,0,1,,,,,,,,,,,,
5e83d40c2598d412c836b579,TCN,2024-06-10_15h18.46.003,LearnStrategy,2023.2.3,Win32,60.24096386,6,1,5,0.058333333,-0.013888889,1,0,0,0.5156,rock_grid_rect_2,4,12,-1,-1,0.516,0.380555556,-0.236111111,1,0,0,2.9624,Gabbro_rect,4,2.962,1,4,0,4,0,1,,,,,,,,,,,,
5e83d40c2598d412c836b579,TCN,2024-06-10_15h18.46.003,LearnStrategy,2023.2.3,Win32,60.24096386,6,1,6,0.090740797,-0.004629644,1,0,0,1.249,rock_grid_rect_2,7,07,-1,-1,1.249,0.134259288,-0.402777778,1,0,0,1.4793,Peridotite_rect,7,1.479,1,5,0,5,0,1,,,,,,,,,,,,
5e83d40c2598d412c836b579,TCN,2024-06-10_15h18.46.003,LearnStrategy,2023.2.3,Win32,60.24096386,6,1,7,0.044444444,-0.011111111,1,0,0,0.4491,rock_grid_rect_2,6,06,-1,-1,0.449,-0.122222222,-0.420370399,1,0,0,1.3128,Pegmatite_rect,6,1.313,1,6,0,6,0,1,,,,,,,,,,,,
5e83d40c2598d412c836b579,TCN,2024-06-10_15h18.46.003,LearnStrategy,2023.2.3,Win32,60.24096386,6,1,8,0.020370399,-0.007407422,1,0,0,0.5493,rock_grid_rect_2,5,09,-1,-1,0.549,-0.398148134,-0.411111111,1,0,0,0.9955,Obsidian_rect,5,0.995,1,7,0,7,0,1,,,,,,,,,,,,
5e83d40c2598d412c836b579,TCN,2024-06-10_15h18.46.003,LearnStrategy,2023.2.3,Win32,60.24096386,6,1,9,0.029629686,0.011111111,1,0,0,0.4992,rock_grid_rect_2,8,06,-1,-1,0.499,0.379629686,-0.400925954,1,0,0,1.1123,Pumice_rect,8,1.112,1,8,0,8,0,1,,,,,,,,,,,,
5e83d40c2598d412c836b579,TCN,2024-06-10_15h18.46.003,LearnStrategy,2023.2.3,Win32,60.24096386,6,1,10,0.018518575,0.000925912,1,0,0,0.4992,rock_grid_rect_2,2,16,-1,-1,0.499,-0.137036981,-0.234259288,1,0,0,3.079,Basalt_rect,2,3.079,1,9,0,9,0,1,,,,,,,,,,,,
5e83d40c2598d412c836b579,TCN,2024-06-10_15h18.46.003,LearnStrategy,2023.2.3,Win32,60.24096386,6,1,11,0.030555556,0.005555556,1,0,0,0.7489,rock_grid_rect_2,4,09,-1,-1,0.749,0.374074131,-0.248148176,1,0,0,2.0789,Gabbro_rect,4,2.079,1,10,0,10,0,1,,,,,,,,,,,,
5e83d40c2598d412c836b579,TCN,2024-06-10_15h18.46.003,LearnStrategy,2023.2.3,Win32,60.24096386,6,1,12,0.057407464,0.007407379,1,0,0,0.5657,rock_grid_rect_2,8,15,-1,-1,0.566,0.392592621,-0.4,1,0,0,1.079,Pumice_rect,8,1.079,1,11,0,11,0,1,,,,,,,,,,,,
5e83d40c2598d412c836b579,TCN,2024-06-10_15h18.46.003,LearnStrategy,2023.2.3,Win32,60.24096386,6,1,13,0.053703732,-0.007407422,1,0,0,0.5658,rock_grid_rect_2,1,09,-1,-1,0.566,-0.354629601,-0.244444444,1,0,0,1.362,Andesite_rect,1,1.362,1,12,0,12,0,1,,,,,,,,,,,,
5e83d40c2598d412c836b579,TCN,2024-06-10_15h18.46.003,LearnStrategy,2023.2.3,Win32,60.24096386,6,1,14,0.062963019,0.002777778,1,0,0,0.5159,rock_grid_rect_2,2,01,-1,-1,0.516,-0.062036981,-0.255555556,1,0,0,4.3293,Basalt_rect,2,4.329,1,13,0,13,0,1,,,,,,,,,,,,
5e83d40c2598d412c836b579,TCN,2024-06-10_15h18.46.003,LearnStrategy,2023.2.3,Win32,60.24096386,6,1,15,0.1,-0.004629644,1,0,0,0.4655,rock_grid_rect_2,5,05,-1,-1,0.465,-0.431481467,-0.389814843,1,0,0,1.1293,Obsidian_rect,5,1.129,1,14,0,14,0,1,,,,,,,,,,,,
5e83d40c2598d412c836b579,TCN,2024-06-10_15h18.46.003,LearnStrategy,2023.2.3,Win32,60.24096386,6,1,16,0.090740797,-0.001851866,1,0,0,0.4324,rock_grid_rect_2,1,11,-1,-1,0.432,-0.345370356,-0.248148176,1,0,0,3.0793,Andesite_rect,1,3.079,1,15,0,15,0,1,,,,,,,,,,,,
5e83d40c2598d412c836b579,TCN,2024-06-10_15h18.46.003,LearnStrategy,2023.2.3,Win32,60.24096386,6,2,1,,,,,,,,5,14,,,,,,,,,,,5,1.112,1,,,,,,-0.387962935,-0.402777778,1,0,0,1.1118,Obsidian_rect,0,0,0,0,1
5e83d40c2598d412c836b579,TCN,2024-06-10_15h18.46.003,LearnStrategy,2023.2.3,Win32,60.24096386,6,2,2,,,,,,,,1,07,,,,,,,,,,,3,3.896,0,,,,,,0.093518575,-0.261111111,1,0,0,3.8959,Diorite_rect,1,0,1,0,1
5e83d40c2598d412c836b579,TCN,2024-06-10_15h18.46.003,LearnStrategy,2023.2.3,Win32,60.24096386,6,2,3,,,,,,,,7,05,,,,,,,,,,,7,2.996,1,,,,,,0.126851908,-0.403703732,1,0,0,2.9956,Peridotite_rect,2,0,2,0,1
5e83d40c2598d412c836b579,TCN,2024-06-10_15h18.46.003,LearnStrategy,2023.2.3,Win32,60.24096386,6,2,4,,,,,,,,4,10,,,,,,,,,,,4,3.396,1,,,,,,0.390740797,-0.254629686,1,0,0,3.3958,Gabbro_rect,3,0,3,0,1
5e83d40c2598d412c836b579,TCN,2024-06-10_15h18.46.003,LearnStrategy,2023.2.3,Win32,60.24096386,6,2,5,,,,,,,,1,14,,,,,,,,,,,1,1.812,1,,,,,,-0.337037023,-0.266666667,1,0,0,1.8124,Andesite_rect,4,0,4,0,1
5e83d40c2598d412c836b579,TCN,2024-06-10_15h18.46.003,LearnStrategy,2023.2.3,Win32,60.24096386,6,2,6,,,,,,,,3,10,,,,,,,,,,,3,1.312,1,,,,,,0.110185242,-0.244444444,1,0,0,1.3124,Diorite_rect,5,0,5,0,1
5e83d40c2598d412c836b579,TCN,2024-06-10_15h18.46.003,LearnStrategy,2023.2.3,Win32,60.24096386,6,2,7,,,,,,,,8,13,,,,,,,,,,,8,0.929,1,,,,,,0.352777778,-0.4,1,0,0,0.9291,Pumice_rect,6,0,6,0,1
5e83d40c2598d412c836b579,TCN,2024-06-10_15h18.46.003,LearnStrategy,2023.2.3,Win32,60.24096386,6,2,8,,,,,,,,2,11,,,,,,,,,,,1,1.779,0,,,,,,-0.337962935,-0.239814843,1,0,0,1.7789,Andesite_rect,7,0,7,0,1
5e83d40c2598d412c836b579,TCN,2024-06-10_15h18.46.003,LearnStrategy,2023.2.3,Win32,60.24096386,6,2,9,,,,,,,,7,14,,,,,,,,,,,7,3.846,1,,,,,,0.135185242,-0.394444444,1,0,0,3.8456,Peridotite_rect,8,0,8,0,1
5e83d40c2598d412c836b579,TCN,2024-06-10_15h18.46.003,LearnStrategy,2023.2.3,Win32,60.24096386,6,2,10,,,,,,,,4,15,,,,,,,,,,,3,1.845,0,,,,,,0.110185242,-0.249074131,1,0,0,1.8454,Diorite_rect,9,0,9,0,1
5e83d40c2598d412c836b579,TCN,2024-06-10_15h18.46.003,LearnStrategy,2023.2.3,Win32,60.24096386,6,2,11,,,,,,,,5,11,,,,,,,,,,,5,1.31,1,,,,,,-0.330555556,-0.386111111,1,0,0,1.3103,Obsidian_rect,10,0,10,0,1
5e83d40c2598d412c836b579,TCN,2024-06-10_15h18.46.003,LearnStrategy,2023.2.3,Win32,60.24096386,6,2,12,,,,,,,,6,16,,,,,,,,,,,6,1.012,1,,,,,,-0.164814758,-0.397222222,1,0,0,1.0121,Pegmatite_rect,11,0,11,0,1
5e83d40c2598d412c836b579,TCN,2024-06-10_15h18.46.003,LearnStrategy,2023.2.3,Win32,60.24096386,6,2,13,,,,,,,,6,03,,,,,,,,,,,6,0.946,1,,,,,,-0.117592536,-0.417592621,1,0,0,0.9457,Pegmatite_rect,12,0,12,0,1
5e83d40c2598d412c836b579,TCN,2024-06-10_15h18.46.003,LearnStrategy,2023.2.3,Win32,60.24096386,6,2,14,,,,,,,,8,04,,,,,,,,,,,8,1.112,1,,,,,,0.327777778,-0.388888889,1,0,0,1.1124,Pumice_rect,13,0,13,0,1
5e83d40c2598d412c836b579,TCN,2024-06-10_15h18.46.003,LearnStrategy,2023.2.3,Win32,60.24096386,6,2,15,,,,,,,,3,12,,,,,,,,,,,3,5.912,1,,,,,,0.175,-0.252777778,1,0,0,5.9121,Diorite_rect,14,0,14,0,1
5e83d40c2598d412c836b579,TCN,2024-06-10_15h18.46.003,LearnStrategy,2023.2.3,Win32,60.24096386,6,2,16,,,,,,,,2,04,,,,,,,,,,,2,1.079,1,,,,,,-0.090740712,-0.253703732,1,0,0,1.0787,Basalt_rect,15,0,15,0,1
5e83d40c2598d412c836b579,TCN,2024-06-10_15h18.46.003,LearnStrategy,2023.2.3,Win32,60.24096386,7,1,1,0.053703732,0.005555556,1,0,0,0.8827,rock_grid_rect_2,2,08,-1,-1,0.883,-0.095370314,-0.233333333,1,0,0,1.2291,Basalt_rect,2,1.229,1,0,0,0,0,1,,,,,,,,,,,,
5e83d40c2598d412c836b579,TCN,2024-06-10_15h18.46.003,LearnStrategy,2023.2.3,Win32,60.24096386,7,1,2,0.035185242,0.014814801,1,0,0,0.8655,rock_grid_rect_2,2,10,-1,-1,0.865,0.394444444,-0.251851908,1,0,0,2.3123,Gabbro_rect,4,2.312,0,1,0,1,0,1,,,,,,,,,,,,
5e83d40c2598d412c836b579,TCN,2024-06-10_15h18.46.003,LearnStrategy,2023.2.3,Win32,60.24096386,7,1,3,0.030555556,0.016666667,1,0,0,0.4991,rock_grid_rect_2,7,04,-1,-1,0.499,0.127777778,-0.388888889,1,0,0,1.8458,Peridotite_rect,7,1.846,1,2,0,2,0,1,,,,,,,,,,,,
5e83d40c2598d412c836b579,TCN,2024-06-10_15h18.46.003,LearnStrategy,2023.2.3,Win32,60.24096386,7,1,4,0.040740797,0.023148134,1,0,0,0.4491,rock_grid_rect_2,6,05,-1,-1,0.449,-0.100925869,-0.383333333,1,0,0,0.9458,Pegmatite_rect,6,0.946,1,3,0,3,0,1,,,,,,,,,,,,
5e83d40c2598d412c836b579,TCN,2024-06-10_15h18.46.003,LearnStrategy,2023.2.3,Win32,60.24096386,7,1,5,0.018518575,0.002777778,1,0,0,0.3995,rock_grid_rect_2,1,05,-1,-1,0.399,-0.340740712,-0.240740797,1,0,0,1.129,Andesite_rect,1,1.129,1,4,0,4,0,1,,,,,,,,,,,,
5e83d40c2598d412c836b579,TCN,2024-06-10_15h18.46.003,LearnStrategy,2023.2.3,Win32,60.24096386,7,1,6,0.086111111,0.012037023,1,0,0,0.4825,rock_grid_rect_2,5,06,-1,-1,0.483,-0.387037023,-0.397222222,1,0,0,0.9126,Obsidian_rect,5,0.913,1,5,0,5,0,1,,,,,,,,,,,,
5e83d40c2598d412c836b579,TCN,2024-06-10_15h18.46.003,LearnStrategy,2023.2.3,Win32,60.24096386,7,1,7,0.077777778,0,1,0,0,0.5659,rock_grid_rect_2,8,08,-1,-1,0.566,0.401851908,-0.400925954,1,0,0,1.1125,Pumice_rect,8,1.113,1,6,0,6,0,1,,,,,,,,,,,,
5e83d40c2598d412c836b579,TCN,2024-06-10_15h18.46.003,LearnStrategy,2023.2.3,Win32,60.24096386,7,1,8,0.036111111,-0.016666667,1,0,0,0.5493,rock_grid_rect_2,3,13,-1,-1,0.549,0.083333333,-0.255555556,1,0,0,2.5458,Diorite_rect,3,2.546,1,7,0,7,0,1,,,,,,,,,,,,
5e83d40c2598d412c836b579,TCN,2024-06-10_15h18.46.003,LearnStrategy,2023.2.3,Win32,60.24096386,7,1,9,0.030555556,-0.007407422,1,0,0,0.4654,rock_grid_rect_2,4,08,-1,-1,0.465,0.396296353,-0.257407464,1,0,0,3.0458,Gabbro_rect,4,3.046,1,8,0,8,0,1,,,,,,,,,,,,
5e83d40c2598d412c836b579,TCN,2024-06-10_15h18.46.003,LearnStrategy,2023.2.3,Win32,60.24096386,7,1,10,0,-0.013888889,1,0,0,0.4821,rock_grid_rect_2,8,09,-1,-1,0.482,0.428703732,-0.4,1,0,0,0.9125,Pumice_rect,8,0.912,1,9,0,9,0,1,,,,,,,,,,,,
5e83d40c2598d412c836b579,TCN,2024-06-10_15h18.46.003,LearnStrategy,2023.2.3,Win32,60.24096386,7,1,11,0.047222222,-0.005555556,1,0,0,0.4159,rock_grid_rect_2,5,05,-1,-1,0.416,-0.406481467,-0.391666667,1,0,0,0.9958,Obsidian_rect,5,0.996,1,10,0,10,0,1,,,,,,,,,,,,
5e83d40c2598d412c836b579,TCN,2024-06-10_15h18.46.003,LearnStrategy,2023.2.3,Win32,60.24096386,7,1,12,0.076851908,-0.002777778,1,0,0,0.4659,rock_grid_rect_2,4,01,-1,-1,0.466,-0.310185157,-0.237037065,1,0,0,1.9292,Andesite_rect,1,1.929,0,11,0,11,0,1,,,,,,,,,,,,
5e83d40c2598d412c836b579,TCN,2024-06-10_15h18.46.003,LearnStrategy,2023.2.3,Win32,60.24096386,7,1,13,0.062037065,0.011111111,1,0,0,0.532,rock_grid_rect_2,3,07,-1,-1,0.532,0.132407464,-0.246296353,1,0,0,3.029,Diorite_rect,3,3.029,1,12,0,12,0,1,,,,,,,,,,,,
5e83d40c2598d412c836b579,TCN,2024-06-10_15h18.46.003,LearnStrategy,2023.2.3,Win32,60.24096386,7,1,14,0.018518575,0.013888889,1,0,0,0.4323,rock_grid_rect_2,6,06,-1,-1,0.432,-0.112036981,-0.384259288,1,0,0,1.1628,Pegmatite_rect,6,1.163,1,13,0,13,0,1,,,,,,,,,,,,
5e83d40c2598d412c836b579,TCN,2024-06-10_15h18.46.003,LearnStrategy,2023.2.3,Win32,60.24096386,7,1,15,0.055555556,-0.013888889,1,0,0,0.4492,rock_grid_rect_2,1,06,-1,-1,0.449,-0.358333333,-0.237037065,1,0,0,2.6124,Andesite_rect,1,2.612,1,14,0,14,0,1,,,,,,,,,,,,
5e83d40c2598d412c836b579,TCN,2024-06-10_15h18.46.003,LearnStrategy,2023.2.3,Win32,60.24096386,7,1,16,0.061111111,0.008333333,1,0,0,0.4321,rock_grid_rect_2,7,13,-1,-1,0.432,0.110185242,-0.243518575,1,0,0,3.1119,Diorite_rect,3,3.112,0,15,0,15,0,1,,,,,,,,,,,,
5e83d40c2598d412c836b579,TCN,2024-06-10_15h18.46.003,LearnStrategy,2023.2.3,Win32,60.24096386,7,2,1,,,,,,,,1,02,,,,,,,,,,,1,3.762,1,,,,,,-0.374074046,-0.25,1,0,0,3.7621,Andesite_rect,0,0,0,0,1
5e83d40c2598d412c836b579,TCN,2024-06-10_15h18.46.003,LearnStrategy,2023.2.3,Win32,60.24096386,7,2,2,,,,,,,,6,10,,,,,,,,,,,6,1.196,1,,,,,,-0.195370356,-0.4,1,0,0,1.1956,Pegmatite_rect,1,0,1,0,1
5e83d40c2598d412c836b579,TCN,2024-06-10_15h18.46.003,LearnStrategy,2023.2.3,Win32,60.24096386,7,2,3,,,,,,,,2,11,,,,,,,,,,,2,3.495,1,,,,,,-0.066666667,-0.25648151,1,0,0,3.4955,Basalt_rect,2,0,2,0,1
5e83d40c2598d412c836b579,TCN,2024-06-10_15h18.46.003,LearnStrategy,2023.2.3,Win32,60.24096386,7,2,4,,,,,,,,6,13,,,,,,,,,,,6,1.145,1,,,,,,-0.126851824,-0.386111111,1,0,0,1.1452,Pegmatite_rect,3,0,3,0,1
5e83d40c2598d412c836b579,TCN,2024-06-10_15h18.46.003,LearnStrategy,2023.2.3,Win32,60.24096386,7,2,5,,,,,,,,8,03,,,,,,,,,,,8,1.062,1,,,,,,0.333333333,-0.397222222,1,0,0,1.0617,Pumice_rect,4,0,4,0,1
5e83d40c2598d412c836b579,TCN,2024-06-10_15h18.46.003,LearnStrategy,2023.2.3,Win32,60.24096386,7,2,6,,,,,,,,7,02,,,,,,,,,,,7,1.695,1,,,,,,0.086111111,-0.402777778,1,0,0,1.6954,Peridotite_rect,5,0,5,0,1
5e83d40c2598d412c836b579,TCN,2024-06-10_15h18.46.003,LearnStrategy,2023.2.3,Win32,60.24096386,7,2,7,,,,,,,,5,11,,,,,,,,,,,5,0.845,1,,,,,,-0.373148134,-0.4,1,0,0,0.8452,Obsidian_rect,6,0,6,0,1
5e83d40c2598d412c836b579,TCN,2024-06-10_15h18.46.003,LearnStrategy,2023.2.3,Win32,60.24096386,7,2,8,,,,,,,,7,12,,,,,,,,,,,7,1.695,1,,,,,,0.086111111,-0.402777778,1,0,0,1.6954,Peridotite_rect,7,0,7,0,1
5e83d40c2598d412c836b579,TCN,2024-06-10_15h18.46.003,LearnStrategy,2023.2.3,Win32,60.24096386,7,2,9,,,,,,,,4,03,,,,,,,,,,,4,5.813,1,,,,,,0.419444444,-0.255555556,1,0,0,5.8128,Gabbro_rect,8,0,8,0,1
5e83d40c2598d412c836b579,TCN,2024-06-10_15h18.46.003,LearnStrategy,2023.2.3,Win32,60.24096386,7,2,10,,,,,,,,5,04,,,,,,,,,,,5,0.895,1,,,,,,-0.370370356,-0.405555556,1,0,0,0.8955,Obsidian_rect,9,0,9,0,1
5e83d40c2598d412c836b579,TCN,2024-06-10_15h18.46.003,LearnStrategy,2023.2.3,Win32,60.24096386,7,2,11,,,,,,,,2,09,,,,,,,,,,,2,1.129,1,,,,,,-0.110185157,-0.245370399,1,0,0,1.1291,Basalt_rect,10,0,10,0,1
5e83d40c2598d412c836b579,TCN,2024-06-10_15h18.46.003,LearnStrategy,2023.2.3,Win32,60.24096386,7,2,12,,,,,,,,4,13,,,,,,,,,,,3,2.212,0,,,,,,0.087963019,-0.241666667,1,0,0,2.2119,Diorite_rect,11,0,11,0,1
5e83d40c2598d412c836b579,TCN,2024-06-10_15h18.46.003,LearnStrategy,2023.2.3,Win32,60.24096386,7,2,13,,,,,,,,3,08,,,,,,,,,,,7,2.296,0,,,,,,0.069444444,-0.386111111,1,0,0,2.2957,Peridotite_rect,12,0,12,0,1
5e83d40c2598d412c836b579,TCN,2024-06-10_15h18.46.003,LearnStrategy,2023.2.3,Win32,60.24096386,7,2,14,,,,,,,,1,04,,,,,,,,,,,4,4.945,0,,,,,,0.424074131,-0.244444444,1,0,0,4.9455,Gabbro_rect,13,0,13,0,1
5e83d40c2598d412c836b579,TCN,2024-06-10_15h18.46.003,LearnStrategy,2023.2.3,Win32,60.24096386,7,2,15,,,,,,,,8,04,,,,,,,,,,,8,0.912,1,,,,,,0.390740797,-0.411111111,1,0,0,0.9123,Pumice_rect,14,0,14,0,1
5e83d40c2598d412c836b579,TCN,2024-06-10_15h18.46.003,LearnStrategy,2023.2.3,Win32,60.24096386,7,2,16,,,,,,,,3,15,,,,,,,,,,,7,1.396,0,,,,,,0.072222222,-0.405555556,1,0,0,1.3956,Peridotite_rect,15,0,15,0,1
5e83d40c2598d412c836b579,TCN,2024-06-10_15h18.46.003,LearnStrategy,2023.2.3,Win32,60.24096386,8,1,1,0.057407464,-0.011111111,1,0,0,1.3993,rock_grid_rect_2,7,06,-1,-1,1.399,0.093518575,-0.419444444,1,0,0,2.1289,Peridotite_rect,7,2.129,1,0,0,0,0,1,,,,,,,,,,,,
5e83d40c2598d412c836b579,TCN,2024-06-10_15h18.46.003,LearnStrategy,2023.2.3,Win32,60.24096386,8,1,2,0.012963019,-0.004629644,1,0,0,0.599,rock_grid_rect_2,3,16,-1,-1,0.599,0.088888889,-0.262963019,1,0,0,1.1625,Diorite_rect,3,1.163,1,1,0,1,0,1,,,,,,,,,,,,
5e83d40c2598d412c836b579,TCN,2024-06-10_15h18.46.003,LearnStrategy,2023.2.3,Win32,60.24096386,8,1,3,0.060185242,0,1,0,0,0.4326,rock_grid_rect_2,5,10,-1,-1,0.433,-0.404629601,-0.400925954,1,0,0,0.9125,Obsidian_rect,5,0.912,1,2,0,2,0,1,,,,,,,,,,,,
5e83d40c2598d412c836b579,TCN,2024-06-10_15h18.46.003,LearnStrategy,2023.2.3,Win32,60.24096386,8,1,4,0.107407464,-0.001851866,1,0,0,0.4659,rock_grid_rect_2,5,09,-1,-1,0.466,-0.399074046,-0.408333333,1,0,0,0.9294,Obsidian_rect,5,0.929,1,3,0,3,0,1,,,,,,,,,,,,
5e83d40c2598d412c836b579,TCN,2024-06-10_15h18.46.003,LearnStrategy,2023.2.3,Win32,60.24096386,8,1,5,0.057407464,0.011111111,1,0,0,0.5824,rock_grid_rect_2,1,11,-1,-1,0.582,-0.37870369,-0.250925954,1,0,0,1.2793,Andesite_rect,1,1.279,1,4,0,4,0,1,,,,,,,,,,,,
5e83d40c2598d412c836b579,TCN,2024-06-10_15h18.46.003,LearnStrategy,2023.2.3,Win32,60.24096386,8,1,6,0.090740797,0.002777778,1,0,0,0.4492,rock_grid_rect_2,4,09,-1,-1,0.449,0.322222222,-0.255555556,1,0,0,2.7127,Gabbro_rect,4,2.713,1,5,0,5,0,1,,,,,,,,,,,,
5e83d40c2598d412c836b579,TCN,2024-06-10_15h18.46.003,LearnStrategy,2023.2.3,Win32,60.24096386,8,1,7,0.082407464,0.006481467,1,0,0,0.9819,rock_grid_rect_2,2,05,-1,-1,0.982,-0.132407379,-0.237037065,1,0,0,0.7626,Basalt_rect,2,0.763,1,6,0,6,0,1,,,,,,,,,,,,
5e83d40c2598d412c836b579,TCN,2024-06-10_15h18.46.003,LearnStrategy,2023.2.3,Win32,60.24096386,8,1,8,0.097222222,-0.019444444,1,0,0,0.5158,rock_grid_rect_2,3,02,-1,-1,0.516,0.10648151,-0.247222222,1,0,0,1.9128,Diorite_rect,3,1.913,1,7,0,7,0,1,,,,,,,,,,,,
5e83d40c2598d412c836b579,TCN,2024-06-10_15h18.46.003,LearnStrategy,2023.2.3,Win32,60.24096386,8,1,9,0.083333333,0.006481467,1,0,0,0.7988,rock_grid_rect_2,7,08,-1,-1,0.799,0.087963019,-0.394444444,1,0,0,1.7124,Peridotite_rect,7,1.712,1,8,0,8,0,1,,,,,,,,,,,,
5e83d40c2598d412c836b579,TCN,2024-06-10_15h18.46.003,LearnStrategy,2023.2.3,Win32,60.24096386,8,1,10,0.040740797,-0.012962977,1,0,0,0.4491,rock_grid_rect_2,8,06,-1,-1,0.449,0.400925954,-0.385185242,1,0,0,0.9293,Pumice_rect,8,0.929,1,9,0,9,0,1,,,,,,,,,,,,
5e83d40c2598d412c836b579,TCN,2024-06-10_15h18.46.003,LearnStrategy,2023.2.3,Win32,60.24096386,8,1,11,0.061111111,0.005555556,1,0,0,0.4994,rock_grid_rect_2,4,16,-1,-1,0.499,-0.122222222,-0.244444444,1,0,0,1.1618,Basalt_rect,2,1.162,0,10,0,10,0,1,,,,,,,,,,,,
5e83d40c2598d412c836b579,TCN,2024-06-10_15h18.46.003,LearnStrategy,2023.2.3,Win32,60.24096386,8,1,12,0.032407464,0.00370369,1,0,0,0.4994,rock_grid_rect_2,2,01,-1,-1,0.499,-0.067592536,-0.236111111,1,0,0,1.8458,Basalt_rect,2,1.846,1,11,0,11,0,1,,,,,,,,,,,,
5e83d40c2598d412c836b579,TCN,2024-06-10_15h18.46.003,LearnStrategy,2023.2.3,Win32,60.24096386,8,1,13,0.054629686,-0.018518533,1,0,0,0.4821,rock_grid_rect_2,1,09,-1,-1,0.482,-0.339814801,-0.229629686,1,0,0,2.146,Andesite_rect,1,2.146,1,12,0,12,0,1,,,,,,,,,,,,
5e83d40c2598d412c836b579,TCN,2024-06-10_15h18.46.003,LearnStrategy,2023.2.3,Win32,60.24096386,8,1,14,0.016666667,-0.010185199,1,0,0,0.5825,rock_grid_rect_2,8,05,-1,-1,0.582,0.394444444,-0.402777778,1,0,0,7.3626,Pumice_rect,8,7.363,1,13,0,13,0,1,,,,,,,,,,,,
5e83d40c2598d412c836b579,TCN,2024-06-10_15h18.46.003,LearnStrategy,2023.2.3,Win32,60.24096386,8,1,15,-0.035185157,-0.014814843,1,0,0,0.5988,rock_grid_rect_2,6,09,-1,-1,0.599,-0.087962935,-0.413888889,1,0,0,2.5621,Pegmatite_rect,6,2.562,1,14,0,14,0,1,,,,,,,,,,,,
5e83d40c2598d412c836b579,TCN,2024-06-10_15h18.46.003,LearnStrategy,2023.2.3,Win32,60.24096386,8,1,16,0.016666667,0.002777778,1,0,0,0.6657,rock_grid_rect_2,6,15,-1,-1,0.666,-0.108333333,-0.4,1,0,0,3.1124,Pegmatite_rect,6,3.112,1,15,0,15,0,1,,,,,,,,,,,,
5e83d40c2598d412c836b579,TCN,2024-06-10_15h18.46.003,LearnStrategy,2023.2.3,Win32,60.24096386,8,2,1,,,,,,,,1,07,,,,,,,,,,,3,5.979,0,,,,,,0.159259288,-0.253703732,1,0,0,5.9789,Diorite_rect,0,0,0,0,1
5e83d40c2598d412c836b579,TCN,2024-06-10_15h18.46.003,LearnStrategy,2023.2.3,Win32,60.24096386,8,2,2,,,,,,,,6,03,,,,,,,,,,,6,1.046,1,,,,,,-0.120370314,-0.397222222,1,0,0,1.0456,Pegmatite_rect,1,0,1,0,1
5e83d40c2598d412c836b579,TCN,2024-06-10_15h18.46.003,LearnStrategy,2023.2.3,Win32,60.24096386,8,2,3,,,,,,,,7,05,,,,,,,,,,,4,2.862,0,,,,,,0.368518575,-0.252777778,1,0,0,2.8623,Gabbro_rect,2,0,2,0,1
5e83d40c2598d412c836b579,TCN,2024-06-10_15h18.46.003,LearnStrategy,2023.2.3,Win32,60.24096386,8,2,4,,,,,,,,5,07,,,,,,,,,,,5,0.979,1,,,,,,-0.360185157,-0.402777778,1,0,0,0.9787,Obsidian_rect,3,0,3,0,1
5e83d40c2598d412c836b579,TCN,2024-06-10_15h18.46.003,LearnStrategy,2023.2.3,Win32,60.24096386,8,2,5,,,,,,,,2,12,,,,,,,,,,,4,5.429,0,,,,,,0.35,-0.258333333,1,0,0,5.4291,Gabbro_rect,4,0,4,0,1
5e83d40c2598d412c836b579,TCN,2024-06-10_15h18.46.003,LearnStrategy,2023.2.3,Win32,60.24096386,8,2,6,,,,,,,,2,02,,,,,,,,,,,2,0.912,1,,,,,,-0.100925869,-0.234259288,1,0,0,0.9118,Basalt_rect,5,0,5,0,1
5e83d40c2598d412c836b579,TCN,2024-06-10_15h18.46.003,LearnStrategy,2023.2.3,Win32,60.24096386,8,2,7,,,,,,,,3,09,,,,,,,,,,,7,2.296,0,,,,,,0.067592621,-0.403703732,1,0,0,2.2957,Peridotite_rect,6,0,6,0,1
5e83d40c2598d412c836b579,TCN,2024-06-10_15h18.46.003,LearnStrategy,2023.2.3,Win32,60.24096386,8,2,8,,,,,,,,5,02,,,,,,,,,,,5,0.879,1,,,,,,-0.359259245,-0.408333333,1,0,0,0.8791,Obsidian_rect,7,0,7,0,1
5e83d40c2598d412c836b579,TCN,2024-06-10_15h18.46.003,LearnStrategy,2023.2.3,Win32,60.24096386,8,2,9,,,,,,,,3,10,,,,,,,,,,,3,1.595,1,,,,,,0.075,-0.250925954,1,0,0,1.5954,Diorite_rect,8,0,8,0,1
5e83d40c2598d412c836b579,TCN,2024-06-10_15h18.46.003,LearnStrategy,2023.2.3,Win32,60.24096386,8,2,10,,,,,,,,8,16,,,,,,,,,,,8,1.929,1,,,,,,0.354629686,-0.388888889,1,0,0,1.929,Pumice_rect,9,0,9,0,1
5e83d40c2598d412c836b579,TCN,2024-06-10_15h18.46.003,LearnStrategy,2023.2.3,Win32,60.24096386,8,2,11,,,,,,,,7,10,,,,,,,,,,,7,1.662,1,,,,,,0.086111111,-0.394444444,1,0,0,1.6624,Peridotite_rect,10,0,10,0,1
5e83d40c2598d412c836b579,TCN,2024-06-10_15h18.46.003,LearnStrategy,2023.2.3,Win32,60.24096386,8,2,12,,,,,,,,4,10,,,,,,,,,,,4,7.912,1,,,,,,0.412037065,-0.240740797,1,0,0,7.9124,Gabbro_rect,11,0,11,0,1
5e83d40c2598d412c836b579,TCN,2024-06-10_15h18.46.003,LearnStrategy,2023.2.3,Win32,60.24096386,8,2,13,,,,,,,,6,11,,,,,,,,,,,6,0.829,1,,,,,,-0.131481425,-0.416666667,1,0,0,0.8286,Pegmatite_rect,12,0,12,0,1
5e83d40c2598d412c836b579,TCN,2024-06-10_15h18.46.003,LearnStrategy,2023.2.3,Win32,60.24096386,8,2,14,,,,,,,,4,05,,,,,,,,,,,4,9.979,1,,,,,,0.360185242,-0.233333333,1,0,0,9.9786,Gabbro_rect,13,0,13,0,1
5e83d40c2598d412c836b579,TCN,2024-06-10_15h18.46.003,LearnStrategy,2023.2.3,Win32,60.24096386,8,2,15,,,,,,,,8,13,,,,,,,,,,,8,1.146,1,,,,,,0.346296353,-0.394444444,1,0,0,1.1457,Pumice_rect,14,0,14,0,1
5e83d40c2598d412c836b579,TCN,2024-06-10_15h18.46.003,LearnStrategy,2023.2.3,Win32,60.24096386,8,2,16,,,,,,,,1,01,,,,,,,,,,,2,2.912,0,,,,,,-0.087962935,-0.240740797,1,0,0,2.9121,Basalt_rect,15,0,15,0,1
5e83d40c2598d412c836b579,TCN,2024-06-10_15h18.46.003,LearnStrategy,2023.2.3,Win32,60.24096386,9,1,1,0.058333333,-0.016666667,1,0,0,0.6995,rock_grid_rect_2,8,15,-1,-1,0.7,0.365740797,-0.419444444,1,0,0,0.9953,Pumice_rect,8,0.995,1,0,0,0,0,1,,,,,,,,,,,,
5e83d40c2598d412c836b579,TCN,2024-06-10_15h18.46.003,LearnStrategy,2023.2.3,Win32,60.24096386,9,1,2,-0.011111111,0.005555556,1,0,0,0.6327,rock_grid_rect_2,5,08,-1,-1,0.633,-0.399074046,-0.394444444,1,0,0,0.9287,Obsidian_rect,5,0.929,1,1,0,1,0,1,,,,,,,,,,,,
5e83d40c2598d412c836b579,TCN,2024-06-10_15h18.46.003,LearnStrategy,2023.2.3,Win32,60.24096386,9,1,3,0.008333333,-0.016666667,1,0,0,0.4825,rock_grid_rect_2,2,16,-1,-1,0.483,-0.104629601,-0.238888889,1,0,0,1.1293,Basalt_rect,2,1.129,1,2,0,2,0,1,,,,,,,,,,,,
5e83d40c2598d412c836b579,TCN,2024-06-10_15h18.46.003,LearnStrategy,2023.2.3,Win32,60.24096386,9,1,4,0.048148176,-0.015740755,1,0,0,0.5325,rock_grid_rect_2,1,03,-1,-1,0.533,-0.335185157,-0.238888889,1,0,0,1.7965,Andesite_rect,1,1.796,1,3,0,3,0,1,,,,,,,,,,,,
5e83d40c2598d412c836b579,TCN,2024-06-10_15h18.46.003,LearnStrategy,2023.2.3,Win32,60.24096386,9,1,5,0.047222222,-0.016666667,1,0,0,0.4654,rock_grid_rect_2,6,12,-1,-1,0.465,-0.119444444,-0.391666667,1,0,0,1.2293,Pegmatite_rect,6,1.229,1,4,0,4,0,1,,,,,,,,,,,,
5e83d40c2598d412c836b579,TCN,2024-06-10_15h18.46.003,LearnStrategy,2023.2.3,Win32,60.24096386,9,1,6,0.024074131,0.019444444,1,0,0,0.4661,rock_grid_rect_2,3,11,-1,-1,0.466,0.132407464,-0.252777778,1,0,0,1.3451,Diorite_rect,3,1.345,1,5,0,5,0,1,,,,,,,,,,,,
5e83d40c2598d412c836b579,TCN,2024-06-10_15h18.46.003,LearnStrategy,2023.2.3,Win32,60.24096386,9,1,7,-0.016666667,0.005555556,1,0,0,0.3994,rock_grid_rect_2,7,07,-1,-1,0.399,0.085185242,-0.397222222,1,0,0,1.1625,Peridotite_rect,7,1.163,1,6,0,6,0,1,,,,,,,,,,,,
5e83d40c2598d412c836b579,TCN,2024-06-10_15h18.46.003,LearnStrategy,2023.2.3,Win32,60.24096386,9,1,8,0.034259288,-0.011111111,1,0,0,0.4827,rock_grid_rect_2,8,02,-1,-1,0.483,0.387963019,-0.419444444,1,0,0,1.0291,Pumice_rect,8,1.029,1,7,0,7,0,1,,,,,,,,,,,,
5e83d40c2598d412c836b579,TCN,2024-06-10_15h18.46.003,LearnStrategy,2023.2.3,Win32,60.24096386,9,1,9,-0.000925869,-0.023148176,1,0,0,0.6824,rock_grid_rect_2,5,12,-1,-1,0.682,-0.37870369,-0.416666667,1,0,0,0.8626,Obsidian_rect,5,0.863,1,8,0,8,0,1,,,,,,,,,,,,
5e83d40c2598d412c836b579,TCN,2024-06-10_15h18.46.003,LearnStrategy,2023.2.3,Win32,60.24096386,9,1,10,0.090740797,0.006481467,1,0,0,0.4659,rock_grid_rect_2,4,14,-1,-1,0.466,-0.141666667,-0.261111111,1,0,0,0.9295,Basalt_rect,2,0.929,0,9,0,9,0,1,,,,,,,,,,,,
5e83d40c2598d412c836b579,TCN,2024-06-10_15h18.46.003,LearnStrategy,2023.2.3,Win32,60.24096386,9,1,11,0.072222222,-0.004629644,1,0,0,0.5159,rock_grid_rect_2,3,06,-1,-1,0.516,0.138888889,-0.244444444,1,0,0,1.9622,Diorite_rect,3,1.962,1,10,0,10,0,1,,,,,,,,,,,,
5e83d40c2598d412c836b579,TCN,2024-06-10_15h18.46.003,LearnStrategy,2023.2.3,Win32,60.24096386,9,1,12,0.025,0.012962935,1,0,0,0.3987,rock_grid_rect_2,6,08,-1,-1,0.399,-0.05,-0.412037065,1,0,0,1.1125,Pegmatite_rect,6,1.112,1,11,0,11,0,1,,,,,,,,,,,,
5e83d40c2598d412c836b579,TCN,2024-06-10_15h18.46.003,LearnStrategy,2023.2.3,Win32,60.24096386,9,1,13,0.080555556,-0.012962977,1,0,0,0.4826,rock_grid_rect_2,2,06,-1,-1,0.483,-0.105555556,-0.240740797,1,0,0,0.8626,Basalt_rect,2,0.863,1,12,0,12,0,1,,,,,,,,,,,,
5e83d40c2598d412c836b579,TCN,2024-06-10_15h18.46.003,LearnStrategy,2023.2.3,Win32,60.24096386,9,1,14,0.05,0.020370356,1,0,0,0.4492,rock_grid_rect_2,1,16,-1,-1,0.449,0.146296353,-0.240740797,1,0,0,1.1793,Diorite_rect,3,1.179,0,13,0,13,0,1,,,,,,,,,,,,
5e83d40c2598d412c836b579,TCN,2024-06-10_15h18.46.003,LearnStrategy,2023.2.3,Win32,60.24096386,9,1,15,-0.011111111,-0.012962977,1,0,0,0.466,rock_grid_rect_2,4,12,-1,-1,0.466,0.326851908,-0.241666667,1,0,0,1.9795,Gabbro_rect,4,1.98,1,14,0,14,0,1,,,,,,,,,,,,
5e83d40c2598d412c836b579,TCN,2024-06-10_15h18.46.003,LearnStrategy,2023.2.3,Win32,60.24096386,9,1,16,0.010185242,-0.004629644,1,0,0,0.3489,rock_grid_rect_2,7,15,-1,-1,0.349,0.104629686,-0.389814843,1,0,0,0.9291,Peridotite_rect,7,0.929,1,15,0,15,0,1,,,,,,,,,,,,
5e83d40c2598d412c836b579,TCN,2024-06-10_15h18.46.003,LearnStrategy,2023.2.3,Win32,60.24096386,9,2,1,,,,,,,,5,14,,,,,,,,,,,5,1.429,1,,,,,,-0.369444444,-0.395370399,1,0,0,1.4289,Obsidian_rect,0,0,0,0,1
5e83d40c2598d412c836b579,TCN,2024-06-10_15h18.46.003,LearnStrategy,2023.2.3,Win32,60.24096386,9,2,2,,,,,,,,7,16,,,,,,,,,,,4,3.145,0,,,,,,0.423148176,-0.245370399,1,0,0,3.1454,Gabbro_rect,1,0,1,0,1
5e83d40c2598d412c836b579,TCN,2024-06-10_15h18.46.003,LearnStrategy,2023.2.3,Win32,60.24096386,9,2,3,,,,,,,,6,16,,,,,,,,,,,6,0.879,1,,,,,,-0.11851849,-0.411111111,1,0,0,0.8789,Pegmatite_rect,2,0,2,0,1
5e83d40c2598d412c836b579,TCN,2024-06-10_15h18.46.003,LearnStrategy,2023.2.3,Win32,60.24096386,9,2,4,,,,,,,,3,12,,,,,,,,,,,3,1.145,1,,,,,,0.088888889,-0.247222222,1,0,0,1.1454,Diorite_rect,3,0,3,0,1
5e83d40c2598d412c836b579,TCN,2024-06-10_15h18.46.003,LearnStrategy,2023.2.3,Win32,60.24096386,9,2,5,,,,,,,,8,10,,,,,,,,,,,8,1.879,1,,,,,,0.396296353,-0.402777778,1,0,0,1.8788,Pumice_rect,4,0,4,0,1
5e83d40c2598d412c836b579,TCN,2024-06-10_15h18.46.003,LearnStrategy,2023.2.3,Win32,60.24096386,9,2,6,,,,,,,,5,16,,,,,,,,,,,5,0.896,1,,,,,,-0.377777778,-0.413888889,1,0,0,0.8956,Obsidian_rect,5,0,5,0,1
5e83d40c2598d412c836b579,TCN,2024-06-10_15h18.46.003,LearnStrategy,2023.2.3,Win32,60.24096386,9,2,7,,,,,,,,1,14,,,,,,,,,,,1,4.412,1,,,,,,-0.355555556,-0.239814843,1,0,0,4.4116,Andesite_rect,6,0,6,0,1
5e83d40c2598d412c836b579,TCN,2024-06-10_15h18.46.003,LearnStrategy,2023.2.3,Win32,60.24096386,9,2,8,,,,,,,,1,10,,,,,,,,,,,2,6.178,0,,,,,,-0.095370314,-0.242592621,1,0,0,6.1785,Basalt_rect,7,0,7,0,1
5e83d40c2598d412c836b579,TCN,2024-06-10_15h18.46.003,LearnStrategy,2023.2.3,Win32,60.24096386,9,2,9,,,,,,,,6,07,,,,,,,,,,,6,0.929,1,,,,,,-0.162036981,-0.386111111,1,0,0,0.9286,Pegmatite_rect,8,0,8,0,1
5e83d40c2598d412c836b579,TCN,2024-06-10_15h18.46.003,LearnStrategy,2023.2.3,Win32,60.24096386,9,2,10,,,,,,,,2,04,,,,,,,,,,,2,0.895,1,,,,,,-0.087962935,-0.239814843,1,0,0,0.8953,Basalt_rect,9,0,9,0,1
5e83d40c2598d412c836b579,TCN,2024-06-10_15h18.46.003,LearnStrategy,2023.2.3,Win32,60.24096386,9,2,11,,,,,,,,4,15,,,,,,,,,,,3,2.779,0,,,,,,0.139814843,-0.259259288,1,0,0,2.7791,Diorite_rect,10,0,10,0,1
5e83d40c2598d412c836b579,TCN,2024-06-10_15h18.46.003,LearnStrategy,2023.2.3,Win32,60.24096386,9,2,12,,,,,,,,4,11,,,,,,,,,,,1,1.862,0,,,,,,-0.350925912,-0.245370399,1,0,0,1.8623,Andesite_rect,11,0,11,0,1
5e83d40c2598d412c836b579,TCN,2024-06-10_15h18.46.003,LearnStrategy,2023.2.3,Win32,60.24096386,9,2,13,,,,,,,,3,14,,,,,,,,,,,3,1.828,1,,,,,,0.134259288,-0.239814843,1,0,0,1.8284,Diorite_rect,12,0,12,0,1
5e83d40c2598d412c836b579,TCN,2024-06-10_15h18.46.003,LearnStrategy,2023.2.3,Win32,60.24096386,9,2,14,,,,,,,,8,14,,,,,,,,,,,8,0.929,1,,,,,,0.425,-0.396296353,1,0,0,0.9286,Pumice_rect,13,0,13,0,1
5e83d40c2598d412c836b579,TCN,2024-06-10_15h18.46.003,LearnStrategy,2023.2.3,Win32,60.24096386,9,2,15,,,,,,,,7,14,,,,,,,,,,,7,8.145,1,,,,,,0.168518575,-0.415740797,1,0,0,8.1448,Peridotite_rect,14,0,14,0,1
5e83d40c2598d412c836b579,TCN,2024-06-10_15h18.46.003,LearnStrategy,2023.2.3,Win32,60.24096386,9,2,16,,,,,,,,2,14,,,,,,,,,,,4,1.929,0,,,,,,0.340740797,-0.253703732,1,0,0,1.9291,Gabbro_rect,15,0,15,0,1
5e83d40c2598d412c836b579,TCN,2024-06-10_15h18.46.003,LearnStrategy,2023.2.3,Win32,60.24096386,,,,,,,,,,,,,,,,,,,,,,,,,,,,,,,,,,,,,,,,,,
5e83d40c2598d412c836b579,TCN,2024-06-10_15h18.46.003,LearnStrategy,2023.2.3,Win32,60.24096386,,,,,,,,,,,,,,,,,,,,,,,,,,,,,,,,,,,,,,,,,,
5e83d40c2598d412c836b579,TCN,2024-06-10_15h18.46.003,LearnStrategy,2023.2.3,Win32,60.24096386,,,,,,,,,,,7,15,1,1,,,,,,,,,,,,,,,,,,,,,,,,,,,,
5e83d40c2598d412c836b579,TCN,2024-06-10_15h18.46.003,LearnStrategy,2023.2.3,Win32,60.24096386,,,,,,,,,,,3,13,1,2,,,,,,,,,,,,,,,,,,,,,,,,,,,,
5e83d40c2598d412c836b579,TCN,2024-06-10_15h18.46.003,LearnStrategy,2023.2.3,Win32,60.24096386,,,,,,,,,,,8,08,1,3,,,,,,,,,,,,,,,,,,,,,,,,,,,,
5e83d40c2598d412c836b579,TCN,2024-06-10_15h18.46.003,LearnStrategy,2023.2.3,Win32,60.24096386,,,,,,,,,,,6,08,1,4,,,,,,,,,,,,,,,,,,,,,,,,,,,,
5e83d40c2598d412c836b579,TCN,2024-06-10_15h18.46.003,LearnStrategy,2023.2.3,Win32,60.24096386,,,,,,,,,,,6,12,1,5,,,,,,,,,,,,,,,,,,,,,,,,,,,,
5e83d40c2598d412c836b579,TCN,2024-06-10_15h18.46.003,LearnStrategy,2023.2.3,Win32,60.24096386,,,,,,,,,,,8,06,1,6,,,,,,,,,,,,,,,,,,,,,,,,,,,,
5e83d40c2598d412c836b579,TCN,2024-06-10_15h18.46.003,LearnStrategy,2023.2.3,Win32,60.24096386,,,,,,,,,,,4,16,1,7,,,,,,,,,,,,,,,,,,,,,,,,,,,,
5e83d40c2598d412c836b579,TCN,2024-06-10_15h18.46.003,LearnStrategy,2023.2.3,Win32,60.24096386,,,,,,,,,,,3,02,1,8,,,,,,,,,,,,,,,,,,,,,,,,,,,,
5e83d40c2598d412c836b579,TCN,2024-06-10_15h18.46.003,LearnStrategy,2023.2.3,Win32,60.24096386,,,,,,,,,,,4,01,2,1,,,,,,,,,,,,,,,,,,,,,,,,,,,,
5e83d40c2598d412c836b579,TCN,2024-06-10_15h18.46.003,LearnStrategy,2023.2.3,Win32,60.24096386,,,,,,,,,,,8,15,2,2,,,,,,,,,,,,,,,,,,,,,,,,,,,,
5e83d40c2598d412c836b579,TCN,2024-06-10_15h18.46.003,LearnStrategy,2023.2.3,Win32,60.24096386,,,,,,,,,,,1,16,2,3,,,,,,,,,,,,,,,,,,,,,,,,,,,,
5e83d40c2598d412c836b579,TCN,2024-06-10_15h18.46.003,LearnStrategy,2023.2.3,Win32,60.24096386,,,,,,,,,,,2,10,2,4,,,,,,,,,,,,,,,,,,,,,,,,,,,,
5e83d40c2598d412c836b579,TCN,2024-06-10_15h18.46.003,LearnStrategy,2023.2.3,Win32,60.24096386,,,,,,,,,,,3,16,2,5,,,,,,,,,,,,,,,,,,,,,,,,,,,,
5e83d40c2598d412c836b579,TCN,2024-06-10_15h18.46.003,LearnStrategy,2023.2.3,Win32,60.24096386,,,,,,,,,,,7,04,2,6,,,,,,,,,,,,,,,,,,,,,,,,,,,,
5e83d40c2598d412c836b579,TCN,2024-06-10_15h18.46.003,LearnStrategy,2023.2.3,Win32,60.24096386,,,,,,,,,,,1,06,2,7,,,,,,,,,,,,,,,,,,,,,,,,,,,,
5e83d40c2598d412c836b579,TCN,2024-06-10_15h18.46.003,LearnStrategy,2023.2.3,Win32,60.24096386,,,,,,,,,,,5,05,2,8,,,,,,,,,,,,,,,,,,,,,,,,,,,,
5e83d40c2598d412c836b579,TCN,2024-06-10_15h18.46.003,LearnStrategy,2023.2.3,Win32,60.24096386,,,,,,,,,,,6,09,3,1,,,,,,,,,,,,,,,,,,,,,,,,,,,,
5e83d40c2598d412c836b579,TCN,2024-06-10_15h18.46.003,LearnStrategy,2023.2.3,Win32,60.24096386,,,,,,,,,,,5,10,3,2,,,,,,,,,,,,,,,,,,,,,,,,,,,,
5e83d40c2598d412c836b579,TCN,2024-06-10_15h18.46.003,LearnStrategy,2023.2.3,Win32,60.24096386,,,,,,,,,,,4,08,3,3,,,,,,,,,,,,,,,,,,,,,,,,,,,,
5e83d40c2598d412c836b579,TCN,2024-06-10_15h18.46.003,LearnStrategy,2023.2.3,Win32,60.24096386,,,,,,,,,,,2,16,3,4,,,,,,,,,,,,,,,,,,,,,,,,,,,,
5e83d40c2598d412c836b579,TCN,2024-06-10_15h18.46.003,LearnStrategy,2023.2.3,Win32,60.24096386,,,,,,,,,,,6,05,3,5,,,,,,,,,,,,,,,,,,,,,,,,,,,,
5e83d40c2598d412c836b579,TCN,2024-06-10_15h18.46.003,LearnStrategy,2023.2.3,Win32,60.24096386,,,,,,,,,,,2,06,3,6,,,,,,,,,,,,,,,,,,,,,,,,,,,,
5e83d40c2598d412c836b579,TCN,2024-06-10_15h18.46.003,LearnStrategy,2023.2.3,Win32,60.24096386,,,,,,,,,,,5,06,3,7,,,,,,,,,,,,,,,,,,,,,,,,,,,,
5e83d40c2598d412c836b579,TCN,2024-06-10_15h18.46.003,LearnStrategy,2023.2.3,Win32,60.24096386,,,,,,,,,,,2,05,3,8,,,,,,,,,,,,,,,,,,,,,,,,,,,,
5e83d40c2598d412c836b579,TCN,2024-06-10_15h18.46.003,LearnStrategy,2023.2.3,Win32,60.24096386,,,,,,,,,,,6,06,4,1,,,,,,,,,,,,,,,,,,,,,,,,,,,,
5e83d40c2598d412c836b579,TCN,2024-06-10_15h18.46.003,LearnStrategy,2023.2.3,Win32,60.24096386,,,,,,,,,,,2,08,4,2,,,,,,,,,,,,,,,,,,,,,,,,,,,,
5e83d40c2598d412c836b579,TCN,2024-06-10_15h18.46.003,LearnStrategy,2023.2.3,Win32,60.24096386,,,,,,,,,,,7,13,4,3,,,,,,,,,,,,,,,,,,,,,,,,,,,,
5e83d40c2598d412c836b579,TCN,2024-06-10_15h18.46.003,LearnStrategy,2023.2.3,Win32,60.24096386,,,,,,,,,,,3,07,4,4,,,,,,,,,,,,,,,,,,,,,,,,,,,,
5e83d40c2598d412c836b579,TCN,2024-06-10_15h18.46.003,LearnStrategy,2023.2.3,Win32,60.24096386,,,,,,,,,,,1,03,4,5,,,,,,,,,,,,,,,,,,,,,,,,,,,,
5e83d40c2598d412c836b579,TCN,2024-06-10_15h18.46.003,LearnStrategy,2023.2.3,Win32,60.24096386,,,,,,,,,,,3,06,4,6,,,,,,,,,,,,,,,,,,,,,,,,,,,,
5e83d40c2598d412c836b579,TCN,2024-06-10_15h18.46.003,LearnStrategy,2023.2.3,Win32,60.24096386,,,,,,,,,,,8,09,4,7,,,,,,,,,,,,,,,,,,,,,,,,,,,,
5e83d40c2598d412c836b579,TCN,2024-06-10_15h18.46.003,LearnStrategy,2023.2.3,Win32,60.24096386,,,,,,,,,,,5,12,4,8,,,,,,,,,,,,,,,,,,,,,,,,,,,,
5e83d40c2598d412c836b579,TCN,2024-06-10_15h18.46.003,LearnStrategy,2023.2.3,Win32,60.24096386,,,,,,,,,,,8,02,5,1,,,,,,,,,,,,,,,,,,,,,,,,,,,,
5e83d40c2598d412c836b579,TCN,2024-06-10_15h18.46.003,LearnStrategy,2023.2.3,Win32,60.24096386,,,,,,,,,,,7,07,5,2,,,,,,,,,,,,,,,,,,,,,,,,,,,,
5e83d40c2598d412c836b579,TCN,2024-06-10_15h18.46.003,LearnStrategy,2023.2.3,Win32,60.24096386,,,,,,,,,,,2,01,5,3,,,,,,,,,,,,,,,,,,,,,,,,,,,,
5e83d40c2598d412c836b579,TCN,2024-06-10_15h18.46.003,LearnStrategy,2023.2.3,Win32,60.24096386,,,,,,,,,,,7,08,5,4,,,,,,,,,,,,,,,,,,,,,,,,,,,,
5e83d40c2598d412c836b579,TCN,2024-06-10_15h18.46.003,LearnStrategy,2023.2.3,Win32,60.24096386,,,,,,,,,,,5,09,5,5,,,,,,,,,,,,,,,,,,,,,,,,,,,,
5e83d40c2598d412c836b579,TCN,2024-06-10_15h18.46.003,LearnStrategy,2023.2.3,Win32,60.24096386,,,,,,,,,,,7,06,5,6,,,,,,,,,,,,,,,,,,,,,,,,,,,,
5e83d40c2598d412c836b579,TCN,2024-06-10_15h18.46.003,LearnStrategy,2023.2.3,Win32,60.24096386,,,,,,,,,,,3,11,5,7,,,,,,,,,,,,,,,,,,,,,,,,,,,,
5e83d40c2598d412c836b579,TCN,2024-06-10_15h18.46.003,LearnStrategy,2023.2.3,Win32,60.24096386,,,,,,,,,,,5,08,5,8,,,,,,,,,,,,,,,,,,,,,,,,,,,,
5e83d40c2598d412c836b579,TCN,2024-06-10_15h18.46.003,LearnStrategy,2023.2.3,Win32,60.24096386,,,,,,,,,,,1,05,6,1,,,,,,,,,,,,,,,,,,,,,,,,,,,,
5e83d40c2598d412c836b579,TCN,2024-06-10_15h18.46.003,LearnStrategy,2023.2.3,Win32,60.24096386,,,,,,,,,,,1,11,6,2,,,,,,,,,,,,,,,,,,,,,,,,,,,,
5e83d40c2598d412c836b579,TCN,2024-06-10_15h18.46.003,LearnStrategy,2023.2.3,Win32,60.24096386,,,,,,,,,,,4,14,6,3,,,,,,,,,,,,,,,,,,,,,,,,,,,,
5e83d40c2598d412c836b579,TCN,2024-06-10_15h18.46.003,LearnStrategy,2023.2.3,Win32,60.24096386,,,,,,,,,,,8,05,6,4,,,,,,,,,,,,,,,,,,,,,,,,,,,,
5e83d40c2598d412c836b579,TCN,2024-06-10_15h18.46.003,LearnStrategy,2023.2.3,Win32,60.24096386,,,,,,,,,,,6,15,6,5,,,,,,,,,,,,,,,,,,,,,,,,,,,,
5e83d40c2598d412c836b579,TCN,2024-06-10_15h18.46.003,LearnStrategy,2023.2.3,Win32,60.24096386,,,,,,,,,,,1,09,6,6,,,,,,,,,,,,,,,,,,,,,,,,,,,,
5e83d40c2598d412c836b579,TCN,2024-06-10_15h18.46.003,LearnStrategy,2023.2.3,Win32,60.24096386,,,,,,,,,,,4,09,6,7,,,,,,,,,,,,,,,,,,,,,,,,,,,,
5e83d40c2598d412c836b579,TCN,2024-06-10_15h18.46.003,LearnStrategy,2023.2.3,Win32,60.24096386,,,,,,,,,,,4,12,6,8,,,,,,,,,,,,,,,,,,,,,,,,,,,,