participant,condition,date,expName,psychopyVersion,OS,frameRate,block,phase,trial,learn_mouse.x,learn_mouse.y,learn_mouse.leftButton,learn_mouse.midButton,learn_mouse.rightButton,learn_mouse.time,learn_mouse.clicked_name,cat,token,row,col,t_select,cat_mouse_l.x,cat_mouse_l.y,cat_mouse_l.leftButton,cat_mouse_l.midButton,cat_mouse_l.rightButton,cat_mouse_l.time,cat_mouse_l.clicked_name,resp,t_resp,corr,train_trials.thisRepN,train_trials.thisTrialN,train_trials.thisN,train_trials.thisIndex,train_trials.ran,cat_mouse_t.x,cat_mouse_t.y,cat_mouse_t.leftButton,cat_mouse_t.midButton,cat_mouse_t.rightButton,cat_mouse_t.time,cat_mouse_t.clicked_name,test_trials.thisRepN,test_trials.thisTrialN,test_trials.thisN,test_trials.thisIndex,test_trials.ran,Bonus
5e8cf14c0bec230b335e060d,SCN,2024-06-21_12h46.57.154,LearnStrategy,2023.2.3,Win32,59.88023952,,,,,,,,,,,,,,,,,,,,,,,,,,,,,,,,,,,,,,,,,,,
5e8cf14c0bec230b335e060d,SCN,2024-06-21_12h46.57.154,LearnStrategy,2023.2.3,Win32,59.88023952,1,1,1,-0.546875,0.4140625,1,0,0,5.3643,Diorite_15,3,15,6,1,5.364,0.399739583,-0.41015625,1,0,0,8.9369,Pumice_rect,8,8.937,0,0,0,0,0,1,,,,,,,,,,,,,
5e8cf14c0bec230b335e060d,SCN,2024-06-21_12h46.57.154,LearnStrategy,2023.2.3,Win32,59.88023952,1,1,2,-0.397135417,0.403645833,1,0,0,1.6161,Pumice_10,8,10,6,2,1.616,0.3671875,-0.380208333,1,0,0,5.8236,Pumice_rect,8,5.824,1,1,0,1,0,1,,,,,,,,,,,,,
5e8cf14c0bec230b335e060d,SCN,2024-06-21_12h46.57.154,LearnStrategy,2023.2.3,Win32,59.88023952,1,1,3,-0.223958333,0.395833333,1,0,0,1.2341,Andesite_01,1,01,6,3,1.234,-0.09765625,-0.26171875,1,0,0,4.9729,Basalt_rect,2,4.973,0,2,0,2,0,1,,,,,,,,,,,,,
5e8cf14c0bec230b335e060d,SCN,2024-06-21_12h46.57.154,LearnStrategy,2023.2.3,Win32,59.88023952,1,1,4,-0.069010417,0.408854167,1,0,0,1.3665,Basalt_12,2,12,6,4,1.367,-0.06640625,-0.23828125,1,0,0,8.0777,Basalt_rect,2,8.078,1,3,0,3,0,1,,,,,,,,,,,,,
5e8cf14c0bec230b335e060d,SCN,2024-06-21_12h46.57.154,LearnStrategy,2023.2.3,Win32,59.88023952,1,1,5,0.084635417,0.391927083,1,0,0,1.304,Basalt_06,2,06,6,5,1.304,-0.390625,-0.37890625,1,0,0,5.4301,Obsidian_rect,5,5.43,0,4,0,4,0,1,,,,,,,,,,,,,
5e8cf14c0bec230b335e060d,SCN,2024-06-21_12h46.57.154,LearnStrategy,2023.2.3,Win32,59.88023952,1,1,6,0.194010417,0.401041667,1,0,0,1.5834,Andesite_02,1,02,6,6,1.583,0.12890625,-0.236979167,1,0,0,6.462,Diorite_rect,3,6.462,0,5,0,5,0,1,,,,,,,,,,,,,
5e8cf14c0bec230b335e060d,SCN,2024-06-21_12h46.57.154,LearnStrategy,2023.2.3,Win32,59.88023952,1,1,7,0.384114583,0.364583333,1,0,0,1.4129,Pumice_06,8,06,6,7,1.413,0.446614583,-0.229166667,1,0,0,6.0426,Gabbro_rect,4,6.043,0,6,0,6,0,1,,,,,,,,,,,,,
5e8cf14c0bec230b335e060d,SCN,2024-06-21_12h46.57.154,LearnStrategy,2023.2.3,Win32,59.88023952,1,1,8,0.56640625,0.39453125,1,0,0,1.8335,Diorite_13,3,13,6,8,1.833,-0.34375,-0.240885417,1,0,0,3.3303,Andesite_rect,1,3.33,0,7,0,7,0,1,,,,,,,,,,,,,
5e8cf14c0bec230b335e060d,SCN,2024-06-21_12h46.57.154,LearnStrategy,2023.2.3,Win32,59.88023952,1,1,9,-0.567708333,0.265625,1,0,0,1.5166,Diorite_14,3,14,5,1,1.517,0.111979167,-0.264322917,1,0,0,5.0973,Diorite_rect,3,5.097,1,8,0,8,0,1,,,,,,,,,,,,,
5e8cf14c0bec230b335e060d,SCN,2024-06-21_12h46.57.154,LearnStrategy,2023.2.3,Win32,59.88023952,1,1,10,-0.4140625,0.223958333,1,0,0,1.1134,Basalt_01,2,01,5,2,1.113,-0.177083333,-0.23828125,1,0,0,2.1494,Basalt_rect,2,2.149,1,9,0,9,0,1,,,,,,,,,,,,,
5e8cf14c0bec230b335e060d,SCN,2024-06-21_12h46.57.154,LearnStrategy,2023.2.3,Win32,59.88023952,1,1,11,-0.2109375,0.244791667,1,0,0,1.1844,Peridotite_05,7,05,5,3,1.184,0.098958333,-0.391927083,1,0,0,6.7452,Peridotite_rect,7,6.745,1,10,0,10,0,1,,,,,,,,,,,,,
5e8cf14c0bec230b335e060d,SCN,2024-06-21_12h46.57.154,LearnStrategy,2023.2.3,Win32,59.88023952,1,1,12,-0.04296875,0.231770833,1,0,0,2.2537,Gabbro_15,4,15,5,4,2.254,0.139322917,-0.255208333,1,0,0,1.9418,Diorite_rect,3,1.942,0,11,0,11,0,1,,,,,,,,,,,,,
5e8cf14c0bec230b335e060d,SCN,2024-06-21_12h46.57.154,LearnStrategy,2023.2.3,Win32,59.88023952,1,1,13,0.095052083,0.204427083,1,0,0,1.5843,Andesite_16,1,16,5,5,1.584,-0.126302083,-0.401041667,1,0,0,4.597,Pegmatite_rect,6,4.597,0,12,0,12,0,1,,,,,,,,,,,,,
5e8cf14c0bec230b335e060d,SCN,2024-06-21_12h46.57.154,LearnStrategy,2023.2.3,Win32,59.88023952,1,1,14,0.239583333,0.221354167,1,0,0,1.1147,Pumice_09,8,09,5,6,1.115,0.3359375,-0.41015625,1,0,0,1.2572,Pumice_rect,8,1.257,1,13,0,13,0,1,,,,,,,,,,,,,
5e8cf14c0bec230b335e060d,SCN,2024-06-21_12h46.57.154,LearnStrategy,2023.2.3,Win32,59.88023952,1,1,15,0.40234375,0.235677083,1,0,0,1.1172,Pegmatite_08,6,08,5,7,1.117,-0.385416667,-0.419270833,1,0,0,3.5821,Obsidian_rect,5,3.582,0,14,0,14,0,1,,,,,,,,,,,,,
5e8cf14c0bec230b335e060d,SCN,2024-06-21_12h46.57.154,LearnStrategy,2023.2.3,Win32,59.88023952,1,1,16,0.598958333,0.23046875,1,0,0,1.1127,Andesite_05,1,05,5,8,1.113,-0.13671875,-0.26171875,1,0,0,2.9549,Basalt_rect,2,2.955,0,15,0,15,0,1,,,,,,,,,,,,,
5e8cf14c0bec230b335e060d,SCN,2024-06-21_12h46.57.154,LearnStrategy,2023.2.3,Win32,59.88023952,1,2,1,,,,,,,,5,08,,,,,,,,,,,5,2.538,1,,,,,,-0.390625,-0.39453125,1,0,0,2.5383,Obsidian_rect,0,0,0,0,1,
5e8cf14c0bec230b335e060d,SCN,2024-06-21_12h46.57.154,LearnStrategy,2023.2.3,Win32,59.88023952,1,2,2,,,,,,,,3,08,,,,,,,,,,,3,6.114,1,,,,,,0.0859375,-0.25390625,1,0,0,6.114,Diorite_rect,1,0,1,0,1,
5e8cf14c0bec230b335e060d,SCN,2024-06-21_12h46.57.154,LearnStrategy,2023.2.3,Win32,59.88023952,1,2,3,,,,,,,,7,04,,,,,,,,,,,1,8.484,0,,,,,,-0.377604167,-0.263020833,1,0,0,8.4842,Andesite_rect,2,0,2,0,1,
5e8cf14c0bec230b335e060d,SCN,2024-06-21_12h46.57.154,LearnStrategy,2023.2.3,Win32,59.88023952,1,2,4,,,,,,,,1,04,,,,,,,,,,,4,3.181,0,,,,,,0.35546875,-0.251302083,1,0,0,3.1809,Gabbro_rect,3,0,3,0,1,
5e8cf14c0bec230b335e060d,SCN,2024-06-21_12h46.57.154,LearnStrategy,2023.2.3,Win32,59.88023952,1,2,5,,,,,,,,8,05,,,,,,,,,,,8,1.148,1,,,,,,0.389322917,-0.4140625,1,0,0,1.1483,Pumice_rect,4,0,4,0,1,
5e8cf14c0bec230b335e060d,SCN,2024-06-21_12h46.57.154,LearnStrategy,2023.2.3,Win32,59.88023952,1,2,6,,,,,,,,6,10,,,,,,,,,,,7,1.135,0,,,,,,0.131510417,-0.403645833,1,0,0,1.1347,Peridotite_rect,5,0,5,0,1,
5e8cf14c0bec230b335e060d,SCN,2024-06-21_12h46.57.154,LearnStrategy,2023.2.3,Win32,59.88023952,1,2,7,,,,,,,,6,13,,,,,,,,,,,1,2.057,0,,,,,,-0.350260417,-0.263020833,1,0,0,2.0567,Andesite_rect,6,0,6,0,1,
5e8cf14c0bec230b335e060d,SCN,2024-06-21_12h46.57.154,LearnStrategy,2023.2.3,Win32,59.88023952,1,2,8,,,,,,,,3,02,,,,,,,,,,,3,4.79,1,,,,,,0.0703125,-0.243489583,1,0,0,4.7903,Diorite_rect,7,0,7,0,1,
5e8cf14c0bec230b335e060d,SCN,2024-06-21_12h46.57.154,LearnStrategy,2023.2.3,Win32,59.88023952,1,2,9,,,,,,,,2,10,,,,,,,,,,,2,1.823,1,,,,,,-0.143229167,-0.26953125,1,0,0,1.8232,Basalt_rect,8,0,8,0,1,
5e8cf14c0bec230b335e060d,SCN,2024-06-21_12h46.57.154,LearnStrategy,2023.2.3,Win32,59.88023952,1,2,10,,,,,,,,8,08,,,,,,,,,,,8,1.475,1,,,,,,0.350260417,-0.416666667,1,0,0,1.4746,Pumice_rect,9,0,9,0,1,
5e8cf14c0bec230b335e060d,SCN,2024-06-21_12h46.57.154,LearnStrategy,2023.2.3,Win32,59.88023952,1,2,11,,,,,,,,5,12,,,,,,,,,,,5,2.278,1,,,,,,-0.451822917,-0.390625,1,0,0,2.2784,Obsidian_rect,10,0,10,0,1,
5e8cf14c0bec230b335e060d,SCN,2024-06-21_12h46.57.154,LearnStrategy,2023.2.3,Win32,59.88023952,1,2,12,,,,,,,,4,08,,,,,,,,,,,2,3.139,0,,,,,,-0.170572917,-0.26953125,1,0,0,3.1387,Basalt_rect,11,0,11,0,1,
5e8cf14c0bec230b335e060d,SCN,2024-06-21_12h46.57.154,LearnStrategy,2023.2.3,Win32,59.88023952,1,2,13,,,,,,,,7,12,,,,,,,,,,,7,1.657,1,,,,,,0.123697917,-0.41015625,1,0,0,1.6572,Peridotite_rect,12,0,12,0,1,
5e8cf14c0bec230b335e060d,SCN,2024-06-21_12h46.57.154,LearnStrategy,2023.2.3,Win32,59.88023952,1,2,14,,,,,,,,4,14,,,,,,,,,,,6,3.378,0,,,,,,-0.091145833,-0.385416667,1,0,0,3.3783,Pegmatite_rect,13,0,13,0,1,
5e8cf14c0bec230b335e060d,SCN,2024-06-21_12h46.57.154,LearnStrategy,2023.2.3,Win32,59.88023952,1,2,15,,,,,,,,2,04,,,,,,,,,,,2,1.383,1,,,,,,-0.07421875,-0.252604167,1,0,0,1.3833,Basalt_rect,14,0,14,0,1,
5e8cf14c0bec230b335e060d,SCN,2024-06-21_12h46.57.154,LearnStrategy,2023.2.3,Win32,59.88023952,1,2,16,,,,,,,,1,03,,,,,,,,,,,3,1.869,0,,,,,,0.16796875,-0.252604167,1,0,0,1.8695,Diorite_rect,15,0,15,0,1,
5e8cf14c0bec230b335e060d,SCN,2024-06-21_12h46.57.154,LearnStrategy,2023.2.3,Win32,59.88023952,2,1,1,-0.5390625,0.088541667,1,0,0,3.3533,Peridotite_15,7,15,4,1,3.353,0.09375,-0.39453125,1,0,0,1.2418,Peridotite_rect,7,1.242,1,0,0,0,0,1,,,,,,,,,,,,,
5e8cf14c0bec230b335e060d,SCN,2024-06-21_12h46.57.154,LearnStrategy,2023.2.3,Win32,59.88023952,2,1,2,-0.385416667,0.111979167,1,0,0,0.9174,Obsidian_07,5,07,4,2,0.917,-0.330729167,-0.388020833,1,0,0,2.8682,Obsidian_rect,5,2.868,1,1,0,1,0,1,,,,,,,,,,,,,
5e8cf14c0bec230b335e060d,SCN,2024-06-21_12h46.57.154,LearnStrategy,2023.2.3,Win32,59.88023952,2,1,3,-0.256510417,0.109375,1,0,0,0.9675,Peridotite_16,7,16,4,3,0.967,0.143229167,-0.411458333,1,0,0,1.36,Peridotite_rect,7,1.36,1,2,0,2,0,1,,,,,,,,,,,,,
5e8cf14c0bec230b335e060d,SCN,2024-06-21_12h46.57.154,LearnStrategy,2023.2.3,Win32,59.88023952,2,1,4,-0.079427083,0.088541667,1,0,0,1.1334,Basalt_16,2,16,4,4,1.133,0.365885417,-0.389322917,1,0,0,1.7676,Pumice_rect,8,1.768,0,3,0,3,0,1,,,,,,,,,,,,,
5e8cf14c0bec230b335e060d,SCN,2024-06-21_12h46.57.154,LearnStrategy,2023.2.3,Win32,59.88023952,2,1,5,0.118489583,0.096354167,1,0,0,0.9184,Pegmatite_15,6,15,4,5,0.918,-0.158854167,-0.407552083,1,0,0,2.898,Pegmatite_rect,6,2.898,1,4,0,4,0,1,,,,,,,,,,,,,
5e8cf14c0bec230b335e060d,SCN,2024-06-21_12h46.57.154,LearnStrategy,2023.2.3,Win32,59.88023952,2,1,6,0.225260417,0.0859375,1,0,0,0.998,Andesite_11,1,11,4,6,0.998,-0.428385417,-0.263020833,1,0,0,2.9842,Andesite_rect,1,2.984,1,5,0,5,0,1,,,,,,,,,,,,,
5e8cf14c0bec230b335e060d,SCN,2024-06-21_12h46.57.154,LearnStrategy,2023.2.3,Win32,59.88023952,2,1,7,0.361979167,0.09765625,1,0,0,1.15,Peridotite_13,7,13,4,7,1.15,0.16015625,-0.388020833,1,0,0,1.0846,Peridotite_rect,7,1.085,1,6,0,6,0,1,,,,,,,,,,,,,
5e8cf14c0bec230b335e060d,SCN,2024-06-21_12h46.57.154,LearnStrategy,2023.2.3,Win32,59.88023952,2,1,8,0.567708333,0.100260417,1,0,0,1.0152,Gabbro_16,4,16,4,8,1.015,0.0703125,-0.240885417,1,0,0,2.7385,Diorite_rect,3,2.738,0,7,0,7,0,1,,,,,,,,,,,,,
5e8cf14c0bec230b335e060d,SCN,2024-06-21_12h46.57.154,LearnStrategy,2023.2.3,Win32,59.88023952,2,1,9,-0.53125,-0.079427083,1,0,0,1.4871,Andesite_06,1,06,3,1,1.487,0.341145833,-0.401041667,1,0,0,1.6544,Pumice_rect,8,1.654,0,8,0,8,0,1,,,,,,,,,,,,,
5e8cf14c0bec230b335e060d,SCN,2024-06-21_12h46.57.154,LearnStrategy,2023.2.3,Win32,59.88023952,2,1,10,-0.399739583,-0.12890625,1,0,0,1.1843,Diorite_07,3,07,3,2,1.184,-0.12890625,-0.41015625,1,0,0,3.0652,Pegmatite_rect,6,3.065,0,9,0,9,0,1,,,,,,,,,,,,,
5e8cf14c0bec230b335e060d,SCN,2024-06-21_12h46.57.154,LearnStrategy,2023.2.3,Win32,59.88023952,2,1,11,-0.272135417,-0.1328125,1,0,0,1.3137,Obsidian_04,5,04,3,3,1.314,-0.3203125,-0.395833333,1,0,0,1.1564,Obsidian_rect,5,1.156,1,10,0,10,0,1,,,,,,,,,,,,,
5e8cf14c0bec230b335e060d,SCN,2024-06-21_12h46.57.154,LearnStrategy,2023.2.3,Win32,59.88023952,2,1,12,-0.098958333,-0.1171875,1,0,0,0.7807,Pegmatite_09,6,09,3,4,0.781,0.11328125,-0.411458333,1,0,0,1.2905,Peridotite_rect,7,1.291,0,11,0,11,0,1,,,,,,,,,,,,,
5e8cf14c0bec230b335e060d,SCN,2024-06-21_12h46.57.154,LearnStrategy,2023.2.3,Win32,59.88023952,2,1,13,0.087239583,-0.135416667,1,0,0,1.1981,Diorite_16,3,16,3,5,1.198,-0.432291667,-0.260416667,1,0,0,1.707,Andesite_rect,1,1.707,0,12,0,12,0,1,,,,,,,,,,,,,
5e8cf14c0bec230b335e060d,SCN,2024-06-21_12h46.57.154,LearnStrategy,2023.2.3,Win32,59.88023952,2,1,14,0.21484375,-0.087239583,1,0,0,0.9839,Peridotite_08,7,08,3,6,0.984,0.216145833,-0.397135417,1,0,0,1.3498,Peridotite_rect,7,1.35,1,13,0,13,0,1,,,,,,,,,,,,,
5e8cf14c0bec230b335e060d,SCN,2024-06-21_12h46.57.154,LearnStrategy,2023.2.3,Win32,59.88023952,2,1,15,0.419270833,-0.08984375,1,0,0,0.9306,Peridotite_02,7,02,3,7,0.931,0.095052083,-0.389322917,1,0,0,3.1561,Peridotite_rect,7,3.156,1,14,0,14,0,1,,,,,,,,,,,,,
5e8cf14c0bec230b335e060d,SCN,2024-06-21_12h46.57.154,LearnStrategy,2023.2.3,Win32,59.88023952,2,1,16,0.549479167,-0.096354167,1,0,0,0.9803,Gabbro_05,4,05,3,8,0.98,-0.139322917,-0.40234375,1,0,0,4.5046,Pegmatite_rect,6,4.505,0,15,0,15,0,1,,,,,,,,,,,,,
5e8cf14c0bec230b335e060d,SCN,2024-06-21_12h46.57.154,LearnStrategy,2023.2.3,Win32,59.88023952,2,2,1,,,,,,,,4,01,,,,,,,,,,,4,5.286,1,,,,,,0.4765625,-0.243489583,1,0,0,5.286,Gabbro_rect,0,0,0,0,1,
5e8cf14c0bec230b335e060d,SCN,2024-06-21_12h46.57.154,LearnStrategy,2023.2.3,Win32,59.88023952,2,2,2,,,,,,,,7,14,,,,,,,,,,,7,2.174,1,,,,,,0.1953125,-0.41015625,1,0,0,2.174,Peridotite_rect,1,0,1,0,1,
5e8cf14c0bec230b335e060d,SCN,2024-06-21_12h46.57.154,LearnStrategy,2023.2.3,Win32,59.88023952,2,2,3,,,,,,,,3,11,,,,,,,,,,,1,2.757,0,,,,,,-0.384114583,-0.25390625,1,0,0,2.7567,Andesite_rect,2,0,2,0,1,
5e8cf14c0bec230b335e060d,SCN,2024-06-21_12h46.57.154,LearnStrategy,2023.2.3,Win32,59.88023952,2,2,4,,,,,,,,4,11,,,,,,,,,,,2,3.255,0,,,,,,-0.19140625,-0.240885417,1,0,0,3.255,Basalt_rect,3,0,3,0,1,
5e8cf14c0bec230b335e060d,SCN,2024-06-21_12h46.57.154,LearnStrategy,2023.2.3,Win32,59.88023952,2,2,5,,,,,,,,5,05,,,,,,,,,,,5,1.359,1,,,,,,-0.3359375,-0.397135417,1,0,0,1.359,Obsidian_rect,4,0,4,0,1,
5e8cf14c0bec230b335e060d,SCN,2024-06-21_12h46.57.154,LearnStrategy,2023.2.3,Win32,59.88023952,2,2,6,,,,,,,,2,14,,,,,,,,,,,2,3.267,1,,,,,,-0.10546875,-0.23046875,1,0,0,3.2669,Basalt_rect,5,0,5,0,1,
5e8cf14c0bec230b335e060d,SCN,2024-06-21_12h46.57.154,LearnStrategy,2023.2.3,Win32,59.88023952,2,2,7,,,,,,,,8,02,,,,,,,,,,,8,1.516,1,,,,,,0.4609375,-0.421875,1,0,0,1.516,Pumice_rect,6,0,6,0,1,
5e8cf14c0bec230b335e060d,SCN,2024-06-21_12h46.57.154,LearnStrategy,2023.2.3,Win32,59.88023952,2,2,8,,,,,,,,6,12,,,,,,,,,,,6,4.622,1,,,,,,-0.1328125,-0.412760417,1,0,0,4.6223,Pegmatite_rect,7,0,7,0,1,
5e8cf14c0bec230b335e060d,SCN,2024-06-21_12h46.57.154,LearnStrategy,2023.2.3,Win32,59.88023952,2,2,9,,,,,,,,2,02,,,,,,,,,,,2,1.191,1,,,,,,-0.1328125,-0.268229167,1,0,0,1.1912,Basalt_rect,8,0,8,0,1,
5e8cf14c0bec230b335e060d,SCN,2024-06-21_12h46.57.154,LearnStrategy,2023.2.3,Win32,59.88023952,2,2,10,,,,,,,,6,11,,,,,,,,,,,6,2.156,1,,,,,,-0.108072917,-0.407552083,1,0,0,2.1563,Pegmatite_rect,9,0,9,0,1,
5e8cf14c0bec230b335e060d,SCN,2024-06-21_12h46.57.154,LearnStrategy,2023.2.3,Win32,59.88023952,2,2,11,,,,,,,,1,10,,,,,,,,,,,1,5.208,1,,,,,,-0.361979167,-0.268229167,1,0,0,5.2085,Andesite_rect,10,0,10,0,1,
5e8cf14c0bec230b335e060d,SCN,2024-06-21_12h46.57.154,LearnStrategy,2023.2.3,Win32,59.88023952,2,2,12,,,,,,,,3,10,,,,,,,,,,,3,3.223,1,,,,,,0.079427083,-0.256510417,1,0,0,3.2228,Diorite_rect,11,0,11,0,1,
5e8cf14c0bec230b335e060d,SCN,2024-06-21_12h46.57.154,LearnStrategy,2023.2.3,Win32,59.88023952,2,2,13,,,,,,,,5,02,,,,,,,,,,,5,2.54,1,,,,,,-0.364583333,-0.395833333,1,0,0,2.5398,Obsidian_rect,12,0,12,0,1,
5e8cf14c0bec230b335e060d,SCN,2024-06-21_12h46.57.154,LearnStrategy,2023.2.3,Win32,59.88023952,2,2,14,,,,,,,,1,14,,,,,,,,,,,3,2.506,0,,,,,,0.10546875,-0.266927083,1,0,0,2.5062,Diorite_rect,13,0,13,0,1,
5e8cf14c0bec230b335e060d,SCN,2024-06-21_12h46.57.154,LearnStrategy,2023.2.3,Win32,59.88023952,2,2,15,,,,,,,,7,07,,,,,,,,,,,7,1.691,1,,,,,,0.1015625,-0.408854167,1,0,0,1.691,Peridotite_rect,14,0,14,0,1,
5e8cf14c0bec230b335e060d,SCN,2024-06-21_12h46.57.154,LearnStrategy,2023.2.3,Win32,59.88023952,2,2,16,,,,,,,,8,03,,,,,,,,,,,8,2.407,1,,,,,,0.3671875,-0.415364583,1,0,0,2.4067,Pumice_rect,15,0,15,0,1,
5e8cf14c0bec230b335e060d,SCN,2024-06-21_12h46.57.154,LearnStrategy,2023.2.3,Win32,59.88023952,3,1,1,-0.5546875,-0.268229167,1,0,0,2.8288,Gabbro_09,4,09,2,1,2.829,-0.123697917,-0.260416667,1,0,0,3.4555,Basalt_rect,2,3.455,0,0,0,0,0,1,,,,,,,,,,,,,
5e8cf14c0bec230b335e060d,SCN,2024-06-21_12h46.57.154,LearnStrategy,2023.2.3,Win32,59.88023952,3,1,2,-0.388020833,-0.266927083,1,0,0,1.5332,Obsidian_16,5,16,2,2,1.533,-0.377604167,-0.40234375,1,0,0,1.1342,Obsidian_rect,5,1.134,1,1,0,1,0,1,,,,,,,,,,,,,
5e8cf14c0bec230b335e060d,SCN,2024-06-21_12h46.57.154,LearnStrategy,2023.2.3,Win32,59.88023952,3,1,3,-0.227864583,-0.12109375,1,0,0,2.3263,Obsidian_04,5,04,3,3,2.326,-0.403645833,-0.385416667,1,0,0,1.3746,Obsidian_rect,5,1.375,1,2,0,2,0,1,,,,,,,,,,,,,
5e8cf14c0bec230b335e060d,SCN,2024-06-21_12h46.57.154,LearnStrategy,2023.2.3,Win32,59.88023952,3,1,4,-0.236979167,-0.268229167,1,0,0,0.7849,Obsidian_11,5,11,2,3,0.785,-0.38671875,-0.401041667,1,0,0,1.131,Obsidian_rect,5,1.131,1,3,0,3,0,1,,,,,,,,,,,,,
5e8cf14c0bec230b335e060d,SCN,2024-06-21_12h46.57.154,LearnStrategy,2023.2.3,Win32,59.88023952,3,1,5,-0.53515625,-0.407552083,1,0,0,1.2047,Pumice_15,8,15,1,1,1.205,0.360677083,-0.401041667,1,0,0,2.2496,Pumice_rect,8,2.25,1,4,0,4,0,1,,,,,,,,,,,,,
5e8cf14c0bec230b335e060d,SCN,2024-06-21_12h46.57.154,LearnStrategy,2023.2.3,Win32,59.88023952,3,1,6,-0.368489583,-0.403645833,1,0,0,1.0507,Obsidian_06,5,06,1,2,1.051,-0.40625,-0.401041667,1,0,0,1.4928,Obsidian_rect,5,1.493,1,5,0,5,0,1,,,,,,,,,,,,,
5e8cf14c0bec230b335e060d,SCN,2024-06-21_12h46.57.154,LearnStrategy,2023.2.3,Win32,59.88023952,3,1,7,-0.233072917,-0.420572917,1,0,0,2.2327,Pegmatite_06,6,06,1,3,2.233,-0.165364583,-0.397135417,1,0,0,1.7835,Pegmatite_rect,6,1.783,1,6,0,6,0,1,,,,,,,,,,,,,
5e8cf14c0bec230b335e060d,SCN,2024-06-21_12h46.57.154,LearnStrategy,2023.2.3,Win32,59.88023952,3,1,8,-0.045572917,-0.420572917,1,0,0,1.0694,Obsidian_09,5,09,1,4,1.069,-0.341145833,-0.3984375,1,0,0,1.0015,Obsidian_rect,5,1.001,1,7,0,7,0,1,,,,,,,,,,,,,
5e8cf14c0bec230b335e060d,SCN,2024-06-21_12h46.57.154,LearnStrategy,2023.2.3,Win32,59.88023952,3,1,9,0.1015625,-0.401041667,1,0,0,1.3542,Pegmatite_03,6,03,1,5,1.354,0.1015625,-0.401041667,1,0,0,1.2558,Peridotite_rect,7,1.256,0,8,0,8,0,1,,,,,,,,,,,,,
5e8cf14c0bec230b335e060d,SCN,2024-06-21_12h46.57.154,LearnStrategy,2023.2.3,Win32,59.88023952,3,1,10,0.216145833,-0.388020833,1,0,0,1.3507,Basalt_05,2,05,1,6,1.351,-0.143229167,-0.25390625,1,0,0,1.4554,Basalt_rect,2,1.455,1,9,0,9,0,1,,,,,,,,,,,,,
5e8cf14c0bec230b335e060d,SCN,2024-06-21_12h46.57.154,LearnStrategy,2023.2.3,Win32,59.88023952,3,1,11,0.373697917,-0.415364583,1,0,0,1.1711,Pumice_16,8,16,1,7,1.171,0.3671875,-0.393229167,1,0,0,0.9026,Pumice_rect,8,0.903,1,10,0,10,0,1,,,,,,,,,,,,,
5e8cf14c0bec230b335e060d,SCN,2024-06-21_12h46.57.154,LearnStrategy,2023.2.3,Win32,59.88023952,3,1,12,0.579427083,-0.42578125,1,0,0,1.1809,Diorite_12,3,12,1,8,1.181,0.110677083,-0.251302083,1,0,0,1.5102,Diorite_rect,3,1.51,1,11,0,11,0,1,,,,,,,,,,,,,
5e8cf14c0bec230b335e060d,SCN,2024-06-21_12h46.57.154,LearnStrategy,2023.2.3,Win32,59.88023952,3,1,13,0.580729167,-0.276041667,1,0,0,1.2298,Gabbro_10,4,10,2,8,1.23,0.483072917,-0.25390625,1,0,0,1.0746,Gabbro_rect,4,1.075,1,12,0,12,0,1,,,,,,,,,,,,,
5e8cf14c0bec230b335e060d,SCN,2024-06-21_12h46.57.154,LearnStrategy,2023.2.3,Win32,59.88023952,3,1,14,0.408854167,-0.264322917,1,0,0,0.9849,Basalt_11,2,11,2,7,0.985,-0.114583333,-0.252604167,1,0,0,3.5318,Basalt_rect,2,3.532,1,13,0,13,0,1,,,,,,,,,,,,,
5e8cf14c0bec230b335e060d,SCN,2024-06-21_12h46.57.154,LearnStrategy,2023.2.3,Win32,59.88023952,3,1,15,0.23046875,-0.266927083,1,0,0,1.0352,Pegmatite_16,6,16,2,6,1.035,-0.092447917,-0.37890625,1,0,0,1.4661,Pegmatite_rect,6,1.466,1,14,0,14,0,1,,,,,,,,,,,,,
5e8cf14c0bec230b335e060d,SCN,2024-06-21_12h46.57.154,LearnStrategy,2023.2.3,Win32,59.88023952,3,1,16,0.0703125,-0.274739583,1,0,0,1.1505,Pumice_13,8,13,2,5,1.151,0.372395833,-0.390625,1,0,0,2.4998,Pumice_rect,8,2.5,1,15,0,15,0,1,,,,,,,,,,,,,
5e8cf14c0bec230b335e060d,SCN,2024-06-21_12h46.57.154,LearnStrategy,2023.2.3,Win32,59.88023952,3,2,1,,,,,,,,8,14,,,,,,,,,,,8,2.549,1,,,,,,0.3359375,-0.385416667,1,0,0,2.5491,Pumice_rect,0,0,0,0,1,
5e8cf14c0bec230b335e060d,SCN,2024-06-21_12h46.57.154,LearnStrategy,2023.2.3,Win32,59.88023952,3,2,2,,,,,,,,4,03,,,,,,,,,,,1,6.659,0,,,,,,-0.3828125,-0.25,1,0,0,6.6591,Andesite_rect,1,0,1,0,1,
5e8cf14c0bec230b335e060d,SCN,2024-06-21_12h46.57.154,LearnStrategy,2023.2.3,Win32,59.88023952,3,2,3,,,,,,,,7,06,,,,,,,,,,,7,2.616,1,,,,,,0.143229167,-0.407552083,1,0,0,2.616,Peridotite_rect,2,0,2,0,1,
5e8cf14c0bec230b335e060d,SCN,2024-06-21_12h46.57.154,LearnStrategy,2023.2.3,Win32,59.88023952,3,2,4,,,,,,,,8,04,,,,,,,,,,,8,2.24,1,,,,,,0.36328125,-0.403645833,1,0,0,2.2401,Pumice_rect,3,0,3,0,1,
5e8cf14c0bec230b335e060d,SCN,2024-06-21_12h46.57.154,LearnStrategy,2023.2.3,Win32,59.88023952,3,2,5,,,,,,,,6,07,,,,,,,,,,,6,2.141,1,,,,,,-0.143229167,-0.390625,1,0,0,2.1409,Pegmatite_rect,4,0,4,0,1,
5e8cf14c0bec230b335e060d,SCN,2024-06-21_12h46.57.154,LearnStrategy,2023.2.3,Win32,59.88023952,3,2,6,,,,,,,,2,09,,,,,,,,,,,2,1.598,1,,,,,,-0.147135417,-0.251302083,1,0,0,1.5978,Basalt_rect,5,0,5,0,1,
5e8cf14c0bec230b335e060d,SCN,2024-06-21_12h46.57.154,LearnStrategy,2023.2.3,Win32,59.88023952,3,2,7,,,,,,,,5,14,,,,,,,,,,,5,1.392,1,,,,,,-0.38671875,-0.3984375,1,0,0,1.3918,Obsidian_rect,6,0,6,0,1,
5e8cf14c0bec230b335e060d,SCN,2024-06-21_12h46.57.154,LearnStrategy,2023.2.3,Win32,59.88023952,3,2,8,,,,,,,,7,10,,,,,,,,,,,7,2.221,1,,,,,,0.130208333,-0.3984375,1,0,0,2.221,Peridotite_rect,7,0,7,0,1,
5e8cf14c0bec230b335e060d,SCN,2024-06-21_12h46.57.154,LearnStrategy,2023.2.3,Win32,59.88023952,3,2,9,,,,,,,,3,06,,,,,,,,,,,3,1.33,1,,,,,,0.15625,-0.255208333,1,0,0,1.3303,Diorite_rect,8,0,8,0,1,
5e8cf14c0bec230b335e060d,SCN,2024-06-21_12h46.57.154,LearnStrategy,2023.2.3,Win32,59.88023952,3,2,10,,,,,,,,1,09,,,,,,,,,,,2,1.408,0,,,,,,-0.1328125,-0.235677083,1,0,0,1.4084,Basalt_rect,9,0,9,0,1,
5e8cf14c0bec230b335e060d,SCN,2024-06-21_12h46.57.154,LearnStrategy,2023.2.3,Win32,59.88023952,3,2,11,,,,,,,,4,13,,,,,,,,,,,6,3.37,0,,,,,,-0.11328125,-0.39453125,1,0,0,3.3698,Pegmatite_rect,10,0,10,0,1,
5e8cf14c0bec230b335e060d,SCN,2024-06-21_12h46.57.154,LearnStrategy,2023.2.3,Win32,59.88023952,3,2,12,,,,,,,,3,09,,,,,,,,,,,3,1.471,1,,,,,,0.08984375,-0.244791667,1,0,0,1.4713,Diorite_rect,11,0,11,0,1,
5e8cf14c0bec230b335e060d,SCN,2024-06-21_12h46.57.154,LearnStrategy,2023.2.3,Win32,59.88023952,3,2,13,,,,,,,,1,07,,,,,,,,,,,3,3.114,0,,,,,,0.08984375,-0.244791667,1,0,0,3.1144,Diorite_rect,12,0,12,0,1,
5e8cf14c0bec230b335e060d,SCN,2024-06-21_12h46.57.154,LearnStrategy,2023.2.3,Win32,59.88023952,3,2,14,,,,,,,,2,08,,,,,,,,,,,2,1.534,1,,,,,,-0.141927083,-0.255208333,1,0,0,1.5339,Basalt_rect,13,0,13,0,1,
5e8cf14c0bec230b335e060d,SCN,2024-06-21_12h46.57.154,LearnStrategy,2023.2.3,Win32,59.88023952,3,2,15,,,,,,,,5,10,,,,,,,,,,,5,1.159,1,,,,,,-0.375,-0.393229167,1,0,0,1.1585,Obsidian_rect,14,0,14,0,1,
5e8cf14c0bec230b335e060d,SCN,2024-06-21_12h46.57.154,LearnStrategy,2023.2.3,Win32,59.88023952,3,2,16,,,,,,,,6,05,,,,,,,,,,,6,2.408,1,,,,,,-0.12109375,-0.397135417,1,0,0,2.4078,Pegmatite_rect,15,0,15,0,1,
5e8cf14c0bec230b335e060d,SCN,2024-06-21_12h46.57.154,LearnStrategy,2023.2.3,Win32,59.88023952,4,1,1,-0.52734375,0.247395833,1,0,0,1.2878,Diorite_14,3,14,5,1,1.288,0.12109375,-0.24609375,1,0,0,1.798,Diorite_rect,3,1.798,1,0,0,0,0,1,,,,,,,,,,,,,
5e8cf14c0bec230b335e060d,SCN,2024-06-21_12h46.57.154,LearnStrategy,2023.2.3,Win32,59.88023952,4,1,2,-0.08984375,-0.0703125,1,0,0,0.9847,Pegmatite_09,6,09,3,4,0.985,-0.13671875,-0.404947917,1,0,0,2.1539,Pegmatite_rect,6,2.154,1,1,0,1,0,1,,,,,,,,,,,,,
5e8cf14c0bec230b335e060d,SCN,2024-06-21_12h46.57.154,LearnStrategy,2023.2.3,Win32,59.88023952,4,1,3,-0.385416667,-0.123697917,1,0,0,1.2523,Diorite_07,3,07,3,2,1.252,0.08203125,-0.255208333,1,0,0,1.4429,Diorite_rect,3,1.443,1,2,0,2,0,1,,,,,,,,,,,,,
5e8cf14c0bec230b335e060d,SCN,2024-06-21_12h46.57.154,LearnStrategy,2023.2.3,Win32,59.88023952,4,1,4,0.578125,0.063802083,1,0,0,1.7491,Gabbro_16,4,16,4,8,1.749,0.466145833,-0.259114583,1,0,0,1.3006,Gabbro_rect,4,1.301,1,3,0,3,0,1,,,,,,,,,,,,,
5e8cf14c0bec230b335e060d,SCN,2024-06-21_12h46.57.154,LearnStrategy,2023.2.3,Win32,59.88023952,4,1,5,0.5703125,-0.287760417,1,0,0,1.3174,Gabbro_10,4,10,2,8,1.317,0.462239583,-0.25,1,0,0,1.0511,Gabbro_rect,4,1.051,1,4,0,4,0,1,,,,,,,,,,,,,
5e8cf14c0bec230b335e060d,SCN,2024-06-21_12h46.57.154,LearnStrategy,2023.2.3,Win32,59.88023952,4,1,6,-0.041666667,0.225260417,1,0,0,0.8186,Gabbro_15,4,15,5,4,0.819,-0.35546875,-0.248697917,1,0,0,2.1488,Andesite_rect,1,2.149,0,5,0,5,0,1,,,,,,,,,,,,,
5e8cf14c0bec230b335e060d,SCN,2024-06-21_12h46.57.154,LearnStrategy,2023.2.3,Win32,59.88023952,4,1,7,0.100260417,0.235677083,1,0,0,0.9708,Andesite_16,1,16,5,5,0.971,0.092447917,-0.2578125,1,0,0,1.2888,Diorite_rect,3,1.289,0,6,0,6,0,1,,,,,,,,,,,,,
5e8cf14c0bec230b335e060d,SCN,2024-06-21_12h46.57.154,LearnStrategy,2023.2.3,Win32,59.88023952,4,1,8,-0.361979167,0.416666667,1,0,0,0.964,Pumice_10,8,10,6,2,0.964,0.42578125,-0.389322917,1,0,0,2.2564,Pumice_rect,8,2.256,1,7,0,7,0,1,,,,,,,,,,,,,
5e8cf14c0bec230b335e060d,SCN,2024-06-21_12h46.57.154,LearnStrategy,2023.2.3,Win32,59.88023952,4,1,9,0.088541667,0.407552083,1,0,0,0.9484,Basalt_06,2,06,6,5,0.948,-0.11328125,-0.243489583,1,0,0,1.4899,Basalt_rect,2,1.49,1,8,0,8,0,1,,,,,,,,,,,,,
5e8cf14c0bec230b335e060d,SCN,2024-06-21_12h46.57.154,LearnStrategy,2023.2.3,Win32,59.88023952,4,1,10,-0.368489583,-0.08203125,1,0,0,2.2295,Diorite_07,3,07,3,2,2.23,0.100260417,-0.252604167,1,0,0,1.3235,Diorite_rect,3,1.323,1,9,0,9,0,1,,,,,,,,,,,,,
5e8cf14c0bec230b335e060d,SCN,2024-06-21_12h46.57.154,LearnStrategy,2023.2.3,Win32,59.88023952,4,1,11,0.391927083,0.088541667,1,0,0,1.115,Peridotite_13,7,13,4,7,1.115,0.157552083,-0.420572917,1,0,0,1.2972,Peridotite_rect,7,1.297,1,10,0,10,0,1,,,,,,,,,,,,,
5e8cf14c0bec230b335e060d,SCN,2024-06-21_12h46.57.154,LearnStrategy,2023.2.3,Win32,59.88023952,4,1,12,0.509114583,0.2578125,1,0,0,1.4174,Andesite_05,1,05,5,8,1.417,-0.317708333,-0.235677083,1,0,0,2.6833,Andesite_rect,1,2.683,1,11,0,11,0,1,,,,,,,,,,,,,
5e8cf14c0bec230b335e060d,SCN,2024-06-21_12h46.57.154,LearnStrategy,2023.2.3,Win32,59.88023952,4,1,13,-0.54296875,0.088541667,1,0,0,1.0481,Peridotite_15,7,15,4,1,1.048,-0.408854167,-0.252604167,1,0,0,1.3733,Andesite_rect,1,1.373,0,12,0,12,0,1,,,,,,,,,,,,,
5e8cf14c0bec230b335e060d,SCN,2024-06-21_12h46.57.154,LearnStrategy,2023.2.3,Win32,59.88023952,4,1,14,-0.225260417,0.080729167,1,0,0,1.7008,Peridotite_16,7,16,4,3,1.701,0.09765625,-0.393229167,1,0,0,1.3177,Peridotite_rect,7,1.318,1,13,0,13,0,1,,,,,,,,,,,,,
5e8cf14c0bec230b335e060d,SCN,2024-06-21_12h46.57.154,LearnStrategy,2023.2.3,Win32,59.88023952,4,1,15,-0.552083333,-0.266927083,1,0,0,1.5007,Gabbro_09,4,09,2,1,1.501,0.356770833,-0.239583333,1,0,0,1.5774,Gabbro_rect,4,1.577,1,14,0,14,0,1,,,,,,,,,,,,,
5e8cf14c0bec230b335e060d,SCN,2024-06-21_12h46.57.154,LearnStrategy,2023.2.3,Win32,59.88023952,4,1,16,0.080729167,0.087239583,1,0,0,1.1676,Pegmatite_15,6,15,4,5,1.168,-0.065104167,-0.393229167,1,0,0,1.2846,Pegmatite_rect,6,1.285,1,15,0,15,0,1,,,,,,,,,,,,,
5e8cf14c0bec230b335e060d,SCN,2024-06-21_12h46.57.154,LearnStrategy,2023.2.3,Win32,59.88023952,4,2,1,,,,,,,,1,14,,,,,,,,,,,6,1.803,0,,,,,,-0.057291667,-0.399739583,1,0,0,1.803,Pegmatite_rect,0,0,0,0,1,
5e8cf14c0bec230b335e060d,SCN,2024-06-21_12h46.57.154,LearnStrategy,2023.2.3,Win32,59.88023952,4,2,2,,,,,,,,3,08,,,,,,,,,,,1,2.756,0,,,,,,-0.369791667,-0.251302083,1,0,0,2.7561,Andesite_rect,1,0,1,0,1,
5e8cf14c0bec230b335e060d,SCN,2024-06-21_12h46.57.154,LearnStrategy,2023.2.3,Win32,59.88023952,4,2,3,,,,,,,,6,10,,,,,,,,,,,7,1.501,0,,,,,,0.188802083,-0.40625,1,0,0,1.5012,Peridotite_rect,2,0,2,0,1,
5e8cf14c0bec230b335e060d,SCN,2024-06-21_12h46.57.154,LearnStrategy,2023.2.3,Win32,59.88023952,4,2,4,,,,,,,,6,11,,,,,,,,,,,6,1.184,1,,,,,,-0.092447917,-0.391927083,1,0,0,1.1836,Pegmatite_rect,3,0,3,0,1,
5e8cf14c0bec230b335e060d,SCN,2024-06-21_12h46.57.154,LearnStrategy,2023.2.3,Win32,59.88023952,4,2,5,,,,,,,,7,04,,,,,,,,,,,3,8.001,0,,,,,,0.17578125,-0.24609375,1,0,0,8.0015,Diorite_rect,4,0,4,0,1,
5e8cf14c0bec230b335e060d,SCN,2024-06-21_12h46.57.154,LearnStrategy,2023.2.3,Win32,59.88023952,4,2,6,,,,,,,,2,04,,,,,,,,,,,2,1.567,1,,,,,,-0.13671875,-0.256510417,1,0,0,1.5674,Basalt_rect,5,0,5,0,1,
5e8cf14c0bec230b335e060d,SCN,2024-06-21_12h46.57.154,LearnStrategy,2023.2.3,Win32,59.88023952,4,2,7,,,,,,,,1,04,,,,,,,,,,,3,3.102,0,,,,,,0.12890625,-0.255208333,1,0,0,3.1016,Diorite_rect,6,0,6,0,1,
5e8cf14c0bec230b335e060d,SCN,2024-06-21_12h46.57.154,LearnStrategy,2023.2.3,Win32,59.88023952,4,2,8,,,,,,,,8,04,,,,,,,,,,,8,1.291,1,,,,,,0.403645833,-0.397135417,1,0,0,1.2906,Pumice_rect,7,0,7,0,1,
5e8cf14c0bec230b335e060d,SCN,2024-06-21_12h46.57.154,LearnStrategy,2023.2.3,Win32,59.88023952,4,2,9,,,,,,,,4,13,,,,,,,,,,,4,1.808,1,,,,,,0.372395833,-0.23828125,1,0,0,1.8075,Gabbro_rect,8,0,8,0,1,
5e8cf14c0bec230b335e060d,SCN,2024-06-21_12h46.57.154,LearnStrategy,2023.2.3,Win32,59.88023952,4,2,10,,,,,,,,4,08,,,,,,,,,,,4,1.775,1,,,,,,0.372395833,-0.244791667,1,0,0,1.7746,Gabbro_rect,9,0,9,0,1,
5e8cf14c0bec230b335e060d,SCN,2024-06-21_12h46.57.154,LearnStrategy,2023.2.3,Win32,59.88023952,4,2,11,,,,,,,,8,05,,,,,,,,,,,8,1.238,1,,,,,,0.39453125,-0.397135417,1,0,0,1.2379,Pumice_rect,10,0,10,0,1,
5e8cf14c0bec230b335e060d,SCN,2024-06-21_12h46.57.154,LearnStrategy,2023.2.3,Win32,59.88023952,4,2,12,,,,,,,,5,10,,,,,,,,,,,5,1.341,1,,,,,,-0.428385417,-0.403645833,1,0,0,1.3405,Obsidian_rect,11,0,11,0,1,
5e8cf14c0bec230b335e060d,SCN,2024-06-21_12h46.57.154,LearnStrategy,2023.2.3,Win32,59.88023952,4,2,13,,,,,,,,3,10,,,,,,,,,,,3,5.237,1,,,,,,0.153645833,-0.235677083,1,0,0,5.2373,Diorite_rect,12,0,12,0,1,
5e8cf14c0bec230b335e060d,SCN,2024-06-21_12h46.57.154,LearnStrategy,2023.2.3,Win32,59.88023952,4,2,14,,,,,,,,2,09,,,,,,,,,,,2,1.117,1,,,,,,-0.092447917,-0.235677083,1,0,0,1.117,Basalt_rect,13,0,13,0,1,
5e8cf14c0bec230b335e060d,SCN,2024-06-21_12h46.57.154,LearnStrategy,2023.2.3,Win32,59.88023952,4,2,15,,,,,,,,5,14,,,,,,,,,,,5,1.524,1,,,,,,-0.423177083,-0.391927083,1,0,0,1.5243,Obsidian_rect,14,0,14,0,1,
5e8cf14c0bec230b335e060d,SCN,2024-06-21_12h46.57.154,LearnStrategy,2023.2.3,Win32,59.88023952,4,2,16,,,,,,,,7,06,,,,,,,,,,,7,1.525,1,,,,,,0.139322917,-0.393229167,1,0,0,1.5247,Peridotite_rect,15,0,15,0,1,
5e8cf14c0bec230b335e060d,SCN,2024-06-21_12h46.57.154,LearnStrategy,2023.2.3,Win32,59.88023952,5,1,1,-0.548177083,0.419270833,1,0,0,0.8229,Diorite_15,3,15,6,1,0.823,-0.359375,-0.233072917,1,0,0,1.7164,Andesite_rect,1,1.716,0,0,0,0,0,1,,,,,,,,,,,,,
5e8cf14c0bec230b335e060d,SCN,2024-06-21_12h46.57.154,LearnStrategy,2023.2.3,Win32,59.88023952,5,1,2,-0.375,0.390625,1,0,0,0.7682,Pumice_10,8,10,6,2,0.768,0.393229167,-0.389322917,1,0,0,1.1074,Pumice_rect,8,1.107,1,1,0,1,0,1,,,,,,,,,,,,,
5e8cf14c0bec230b335e060d,SCN,2024-06-21_12h46.57.154,LearnStrategy,2023.2.3,Win32,59.88023952,5,1,3,-0.2421875,0.388020833,1,0,0,0.7842,Andesite_01,1,01,6,3,0.784,0.39453125,-0.25390625,1,0,0,1.5117,Gabbro_rect,4,1.512,0,2,0,2,0,1,,,,,,,,,,,,,
5e8cf14c0bec230b335e060d,SCN,2024-06-21_12h46.57.154,LearnStrategy,2023.2.3,Win32,59.88023952,5,1,4,-0.5859375,0.393229167,1,0,0,0.9339,Diorite_15,3,15,6,1,0.934,-0.385416667,-0.26953125,1,0,0,1.2678,Andesite_rect,1,1.268,0,3,0,3,0,1,,,,,,,,,,,,,
5e8cf14c0bec230b335e060d,SCN,2024-06-21_12h46.57.154,LearnStrategy,2023.2.3,Win32,59.88023952,5,1,5,-0.083333333,0.397135417,1,0,0,0.7344,Basalt_12,2,12,6,4,0.734,-0.100260417,-0.239583333,1,0,0,1.3179,Basalt_rect,2,1.318,1,4,0,4,0,1,,,,,,,,,,,,,
5e8cf14c0bec230b335e060d,SCN,2024-06-21_12h46.57.154,LearnStrategy,2023.2.3,Win32,59.88023952,5,1,6,0.053385417,0.391927083,1,0,0,0.9346,Basalt_06,2,06,6,5,0.935,-0.173177083,-0.263020833,1,0,0,1.0286,Basalt_rect,2,1.029,1,5,0,5,0,1,,,,,,,,,,,,,
5e8cf14c0bec230b335e060d,SCN,2024-06-21_12h46.57.154,LearnStrategy,2023.2.3,Win32,59.88023952,5,1,7,0.584635417,0.389322917,1,0,0,1.2849,Diorite_13,3,13,6,8,1.285,0.151041667,-0.251302083,1,0,0,1.9163,Diorite_rect,3,1.916,1,6,0,6,0,1,,,,,,,,,,,,,
5e8cf14c0bec230b335e060d,SCN,2024-06-21_12h46.57.154,LearnStrategy,2023.2.3,Win32,59.88023952,5,1,8,-0.518229167,0.391927083,1,0,0,0.8474,Diorite_15,3,15,6,1,0.847,0.108072917,-0.259114583,1,0,0,1.2077,Diorite_rect,3,1.208,1,7,0,7,0,1,,,,,,,,,,,,,
5e8cf14c0bec230b335e060d,SCN,2024-06-21_12h46.57.154,LearnStrategy,2023.2.3,Win32,59.88023952,5,1,9,-0.537760417,0.240885417,1,0,0,1.2397,Diorite_14,3,14,5,1,1.24,0.139322917,-0.247395833,1,0,0,1.1966,Diorite_rect,3,1.197,1,8,0,8,0,1,,,,,,,,,,,,,
5e8cf14c0bec230b335e060d,SCN,2024-06-21_12h46.57.154,LearnStrategy,2023.2.3,Win32,59.88023952,5,1,10,0.080729167,0.251302083,1,0,0,1.0146,Andesite_16,1,16,5,5,1.015,0.1328125,-0.24609375,1,0,0,1.341,Diorite_rect,3,1.341,0,9,0,9,0,1,,,,,,,,,,,,,
5e8cf14c0bec230b335e060d,SCN,2024-06-21_12h46.57.154,LearnStrategy,2023.2.3,Win32,59.88023952,5,1,11,-0.37890625,-0.11328125,1,0,0,1.165,Diorite_07,3,07,3,2,1.165,0.1015625,-0.255208333,1,0,0,0.992,Diorite_rect,3,0.992,1,10,0,10,0,1,,,,,,,,,,,,,
5e8cf14c0bec230b335e060d,SCN,2024-06-21_12h46.57.154,LearnStrategy,2023.2.3,Win32,59.88023952,5,1,12,0.59375,-0.110677083,1,0,0,2.3493,Gabbro_05,4,05,3,8,2.349,0.389322917,-0.25,1,0,0,1.5514,Gabbro_rect,4,1.551,1,11,0,11,0,1,,,,,,,,,,,,,
5e8cf14c0bec230b335e060d,SCN,2024-06-21_12h46.57.154,LearnStrategy,2023.2.3,Win32,59.88023952,5,1,13,-0.57421875,-0.27734375,1,0,0,0.9983,Gabbro_09,4,09,2,1,0.998,0.377604167,-0.252604167,1,0,0,1.6239,Gabbro_rect,4,1.624,1,12,0,12,0,1,,,,,,,,,,,,,
5e8cf14c0bec230b335e060d,SCN,2024-06-21_12h46.57.154,LearnStrategy,2023.2.3,Win32,59.88023952,5,1,14,-0.063802083,-0.282552083,1,0,0,0.7482,Gabbro_12,4,12,2,4,0.748,-0.076822917,-0.235677083,1,0,0,2.6894,Basalt_rect,2,2.689,0,13,0,13,0,1,,,,,,,,,,,,,
5e8cf14c0bec230b335e060d,SCN,2024-06-21_12h46.57.154,LearnStrategy,2023.2.3,Win32,59.88023952,5,1,15,-0.208333333,-0.430989583,1,0,0,0.8542,Pegmatite_06,6,06,1,3,0.854,-0.180989583,-0.39453125,1,0,0,0.7458,Pegmatite_rect,6,0.746,1,14,0,14,0,1,,,,,,,,,,,,,
5e8cf14c0bec230b335e060d,SCN,2024-06-21_12h46.57.154,LearnStrategy,2023.2.3,Win32,59.88023952,5,1,16,-0.55859375,0.240885417,1,0,0,1.2506,Diorite_14,3,14,5,1,1.251,-0.427083333,-0.256510417,1,0,0,1.4177,Andesite_rect,1,1.418,0,15,0,15,0,1,,,,,,,,,,,,,
5e8cf14c0bec230b335e060d,SCN,2024-06-21_12h46.57.154,LearnStrategy,2023.2.3,Win32,59.88023952,5,2,1,,,,,,,,5,08,,,,,,,,,,,5,1.221,1,,,,,,-0.32421875,-0.3828125,1,0,0,1.2211,Obsidian_rect,0,0,0,0,1,
5e8cf14c0bec230b335e060d,SCN,2024-06-21_12h46.57.154,LearnStrategy,2023.2.3,Win32,59.88023952,5,2,2,,,,,,,,4,14,,,,,,,,,,,4,1.631,1,,,,,,0.41015625,-0.23828125,1,0,0,1.6312,Gabbro_rect,1,0,1,0,1,
5e8cf14c0bec230b335e060d,SCN,2024-06-21_12h46.57.154,LearnStrategy,2023.2.3,Win32,59.88023952,5,2,3,,,,,,,,5,02,,,,,,,,,,,5,1.235,1,,,,,,-0.376302083,-0.401041667,1,0,0,1.2354,Obsidian_rect,2,0,2,0,1,
5e8cf14c0bec230b335e060d,SCN,2024-06-21_12h46.57.154,LearnStrategy,2023.2.3,Win32,59.88023952,5,2,4,,,,,,,,2,10,,,,,,,,,,,2,3.215,1,,,,,,-0.100260417,-0.251302083,1,0,0,3.2153,Basalt_rect,3,0,3,0,1,
5e8cf14c0bec230b335e060d,SCN,2024-06-21_12h46.57.154,LearnStrategy,2023.2.3,Win32,59.88023952,5,2,5,,,,,,,,1,07,,,,,,,,,,,3,4.438,0,,,,,,0.126302083,-0.252604167,1,0,0,4.4375,Diorite_rect,4,0,4,0,1,
5e8cf14c0bec230b335e060d,SCN,2024-06-21_12h46.57.154,LearnStrategy,2023.2.3,Win32,59.88023952,5,2,6,,,,,,,,6,12,,,,,,,,,,,6,1.168,1,,,,,,-0.1015625,-0.395833333,1,0,0,1.1678,Pegmatite_rect,5,0,5,0,1,
5e8cf14c0bec230b335e060d,SCN,2024-06-21_12h46.57.154,LearnStrategy,2023.2.3,Win32,59.88023952,5,2,7,,,,,,,,7,12,,,,,,,,,,,7,2.739,1,,,,,,0.130208333,-0.407552083,1,0,0,2.7391,Peridotite_rect,6,0,6,0,1,
5e8cf14c0bec230b335e060d,SCN,2024-06-21_12h46.57.154,LearnStrategy,2023.2.3,Win32,59.88023952,5,2,8,,,,,,,,3,06,,,,,,,,,,,1,1.608,0,,,,,,-0.373697917,-0.2421875,1,0,0,1.6082,Andesite_rect,7,0,7,0,1,
5e8cf14c0bec230b335e060d,SCN,2024-06-21_12h46.57.154,LearnStrategy,2023.2.3,Win32,59.88023952,5,2,9,,,,,,,,8,02,,,,,,,,,,,8,1.541,1,,,,,,0.385416667,-0.3984375,1,0,0,1.5414,Pumice_rect,8,0,8,0,1,
5e8cf14c0bec230b335e060d,SCN,2024-06-21_12h46.57.154,LearnStrategy,2023.2.3,Win32,59.88023952,5,2,10,,,,,,,,3,09,,,,,,,,,,,3,2.506,1,,,,,,0.1328125,-0.256510417,1,0,0,2.5063,Diorite_rect,9,0,9,0,1,
5e8cf14c0bec230b335e060d,SCN,2024-06-21_12h46.57.154,LearnStrategy,2023.2.3,Win32,59.88023952,5,2,11,,,,,,,,1,03,,,,,,,,,,,2,2.826,0,,,,,,-0.123697917,-0.24609375,1,0,0,2.826,Basalt_rect,10,0,10,0,1,
5e8cf14c0bec230b335e060d,SCN,2024-06-21_12h46.57.154,LearnStrategy,2023.2.3,Win32,59.88023952,5,2,12,,,,,,,,6,07,,,,,,,,,,,6,1.382,1,,,,,,-0.166666667,-0.415364583,1,0,0,1.3822,Pegmatite_rect,11,0,11,0,1,
5e8cf14c0bec230b335e060d,SCN,2024-06-21_12h46.57.154,LearnStrategy,2023.2.3,Win32,59.88023952,5,2,13,,,,,,,,7,10,,,,,,,,,,,7,1.941,1,,,,,,0.098958333,-0.399739583,1,0,0,1.9415,Peridotite_rect,12,0,12,0,1,
5e8cf14c0bec230b335e060d,SCN,2024-06-21_12h46.57.154,LearnStrategy,2023.2.3,Win32,59.88023952,5,2,14,,,,,,,,4,01,,,,,,,,,,,4,2.716,1,,,,,,0.33203125,-0.265625,1,0,0,2.7163,Gabbro_rect,13,0,13,0,1,
5e8cf14c0bec230b335e060d,SCN,2024-06-21_12h46.57.154,LearnStrategy,2023.2.3,Win32,59.88023952,5,2,15,,,,,,,,2,14,,,,,,,,,,,4,5.305,0,,,,,,0.333333333,-0.264322917,1,0,0,5.3048,Gabbro_rect,14,0,14,0,1,
5e8cf14c0bec230b335e060d,SCN,2024-06-21_12h46.57.154,LearnStrategy,2023.2.3,Win32,59.88023952,5,2,16,,,,,,,,8,03,,,,,,,,,,,8,1.251,1,,,,,,0.369791667,-0.388020833,1,0,0,1.2509,Pumice_rect,15,0,15,0,1,
5e8cf14c0bec230b335e060d,SCN,2024-06-21_12h46.57.154,LearnStrategy,2023.2.3,Win32,59.88023952,6,1,1,-0.38671875,-0.078125,1,0,0,1.7371,Diorite_07,3,07,3,2,1.737,-0.3515625,-0.233072917,1,0,0,1.3759,Andesite_rect,1,1.376,0,0,0,0,0,1,,,,,,,,,,,,,
5e8cf14c0bec230b335e060d,SCN,2024-06-21_12h46.57.154,LearnStrategy,2023.2.3,Win32,59.88023952,6,1,2,0.092447917,-0.13671875,1,0,0,0.7683,Diorite_16,3,16,3,5,0.768,0.122395833,-0.247395833,1,0,0,0.7345,Diorite_rect,3,0.735,1,1,0,1,0,1,,,,,,,,,,,,,
5e8cf14c0bec230b335e060d,SCN,2024-06-21_12h46.57.154,LearnStrategy,2023.2.3,Win32,59.88023952,6,1,3,-0.385416667,-0.11328125,1,0,0,0.8847,Diorite_07,3,07,3,2,0.885,-0.436197917,-0.2421875,1,0,0,2.8831,Andesite_rect,1,2.883,0,2,0,2,0,1,,,,,,,,,,,,,
5e8cf14c0bec230b335e060d,SCN,2024-06-21_12h46.57.154,LearnStrategy,2023.2.3,Win32,59.88023952,6,1,4,-0.377604167,-0.049479167,1,0,0,0.8311,Diorite_07,3,07,3,2,0.831,0.1640625,-0.234375,1,0,0,0.9915,Diorite_rect,3,0.991,1,3,0,3,0,1,,,,,,,,,,,,,
5e8cf14c0bec230b335e060d,SCN,2024-06-21_12h46.57.154,LearnStrategy,2023.2.3,Win32,59.88023952,6,1,5,0.23828125,-0.251302083,1,0,0,0.901,Pegmatite_16,6,16,2,6,0.901,-0.106770833,-0.412760417,1,0,0,1.248,Pegmatite_rect,6,1.248,1,4,0,4,0,1,,,,,,,,,,,,,
5e8cf14c0bec230b335e060d,SCN,2024-06-21_12h46.57.154,LearnStrategy,2023.2.3,Win32,59.88023952,6,1,6,-0.5546875,0.412760417,1,0,0,0.8853,Diorite_15,3,15,6,1,0.885,-0.35546875,-0.234375,1,0,0,2.3819,Andesite_rect,1,2.382,0,5,0,5,0,1,,,,,,,,,,,,,
5e8cf14c0bec230b335e060d,SCN,2024-06-21_12h46.57.154,LearnStrategy,2023.2.3,Win32,59.88023952,6,1,7,-0.266927083,0.401041667,1,0,0,1.3506,Andesite_01,1,01,6,3,1.351,0.161458333,-0.260416667,1,0,0,1.3672,Diorite_rect,3,1.367,0,6,0,6,0,1,,,,,,,,,,,,,
5e8cf14c0bec230b335e060d,SCN,2024-06-21_12h46.57.154,LearnStrategy,2023.2.3,Win32,59.88023952,6,1,8,-0.528645833,0.376302083,1,0,0,0.8181,Diorite_15,3,15,6,1,0.818,0.075520833,-0.2578125,1,0,0,1.3113,Diorite_rect,3,1.311,1,7,0,7,0,1,,,,,,,,,,,,,
5e8cf14c0bec230b335e060d,SCN,2024-06-21_12h46.57.154,LearnStrategy,2023.2.3,Win32,59.88023952,6,1,9,-0.065104167,0.377604167,1,0,0,0.7682,Basalt_12,2,12,6,4,0.768,-0.1171875,-0.244791667,1,0,0,1.4841,Basalt_rect,2,1.484,1,8,0,8,0,1,,,,,,,,,,,,,
5e8cf14c0bec230b335e060d,SCN,2024-06-21_12h46.57.154,LearnStrategy,2023.2.3,Win32,59.88023952,6,1,10,0.515625,0.2578125,1,0,0,1.5963,Andesite_05,1,05,5,8,1.596,-0.333333333,-0.251302083,1,0,0,3.2722,Andesite_rect,1,3.272,1,9,0,9,0,1,,,,,,,,,,,,,
5e8cf14c0bec230b335e060d,SCN,2024-06-21_12h46.57.154,LearnStrategy,2023.2.3,Win32,59.88023952,6,1,11,-0.045572917,0.391927083,1,0,0,0.711,Basalt_12,2,12,6,4,0.711,-0.1484375,-0.268229167,1,0,0,2.1732,Basalt_rect,2,2.173,1,10,0,10,0,1,,,,,,,,,,,,,
5e8cf14c0bec230b335e060d,SCN,2024-06-21_12h46.57.154,LearnStrategy,2023.2.3,Win32,59.88023952,6,1,12,-0.2734375,0.391927083,1,0,0,0.9679,Andesite_01,1,01,6,3,0.968,-0.42578125,-0.26953125,1,0,0,2.3939,Andesite_rect,1,2.394,1,11,0,11,0,1,,,,,,,,,,,,,
5e8cf14c0bec230b335e060d,SCN,2024-06-21_12h46.57.154,LearnStrategy,2023.2.3,Win32,59.88023952,6,1,13,0.104166667,-0.141927083,1,0,0,0.9672,Diorite_16,3,16,3,5,0.967,0.108072917,-0.255208333,1,0,0,1.4842,Diorite_rect,3,1.484,1,12,0,12,0,1,,,,,,,,,,,,,
5e8cf14c0bec230b335e060d,SCN,2024-06-21_12h46.57.154,LearnStrategy,2023.2.3,Win32,59.88023952,6,1,14,0.576822917,-0.111979167,1,0,0,1.7502,Gabbro_05,4,05,3,8,1.75,0.459635417,-0.235677083,1,0,0,2.0611,Gabbro_rect,4,2.061,1,13,0,13,0,1,,,,,,,,,,,,,
5e8cf14c0bec230b335e060d,SCN,2024-06-21_12h46.57.154,LearnStrategy,2023.2.3,Win32,59.88023952,6,1,15,0.552083333,-0.424479167,1,0,0,1.4938,Diorite_12,3,12,1,8,1.494,0.149739583,-0.252604167,1,0,0,1.5486,Diorite_rect,3,1.549,1,14,0,14,0,1,,,,,,,,,,,,,
5e8cf14c0bec230b335e060d,SCN,2024-06-21_12h46.57.154,LearnStrategy,2023.2.3,Win32,59.88023952,6,1,16,0.05859375,-0.41015625,1,0,0,1.3838,Pegmatite_03,6,03,1,5,1.384,-0.106770833,-0.404947917,1,0,0,1.1021,Pegmatite_rect,6,1.102,1,15,0,15,0,1,,,,,,,,,,,,,
5e8cf14c0bec230b335e060d,SCN,2024-06-21_12h46.57.154,LearnStrategy,2023.2.3,Win32,59.88023952,6,2,1,,,,,,,,1,10,,,,,,,,,,,4,2.3,0,,,,,,0.356770833,-0.26171875,1,0,0,2.3001,Gabbro_rect,0,0,0,0,1,
5e8cf14c0bec230b335e060d,SCN,2024-06-21_12h46.57.154,LearnStrategy,2023.2.3,Win32,59.88023952,6,2,2,,,,,,,,7,07,,,,,,,,,,,7,2.119,1,,,,,,0.141927083,-0.419270833,1,0,0,2.1185,Peridotite_rect,1,0,1,0,1,
5e8cf14c0bec230b335e060d,SCN,2024-06-21_12h46.57.154,LearnStrategy,2023.2.3,Win32,59.88023952,6,2,3,,,,,,,,3,02,,,,,,,,,,,3,3.34,1,,,,,,0.110677083,-0.2578125,1,0,0,3.3397,Diorite_rect,2,0,2,0,1,
5e8cf14c0bec230b335e060d,SCN,2024-06-21_12h46.57.154,LearnStrategy,2023.2.3,Win32,59.88023952,6,2,4,,,,,,,,2,08,,,,,,,,,,,2,1.665,1,,,,,,-0.153645833,-0.255208333,1,0,0,1.6647,Basalt_rect,3,0,3,0,1,
5e8cf14c0bec230b335e060d,SCN,2024-06-21_12h46.57.154,LearnStrategy,2023.2.3,Win32,59.88023952,6,2,5,,,,,,,,4,11,,,,,,,,,,,4,2.191,1,,,,,,0.359375,-0.24609375,1,0,0,2.1906,Gabbro_rect,4,0,4,0,1,
5e8cf14c0bec230b335e060d,SCN,2024-06-21_12h46.57.154,LearnStrategy,2023.2.3,Win32,59.88023952,6,2,6,,,,,,,,5,12,,,,,,,,,,,5,1.217,1,,,,,,-0.39453125,-0.393229167,1,0,0,1.2172,Obsidian_rect,5,0,5,0,1,
5e8cf14c0bec230b335e060d,SCN,2024-06-21_12h46.57.154,LearnStrategy,2023.2.3,Win32,59.88023952,6,2,7,,,,,,,,2,02,,,,,,,,,,,2,1.241,1,,,,,,-0.157552083,-0.259114583,1,0,0,1.241,Basalt_rect,6,0,6,0,1,
5e8cf14c0bec230b335e060d,SCN,2024-06-21_12h46.57.154,LearnStrategy,2023.2.3,Win32,59.88023952,6,2,8,,,,,,,,6,05,,,,,,,,,,,6,2.69,1,,,,,,-0.147135417,-0.408854167,1,0,0,2.6901,Pegmatite_rect,7,0,7,0,1,
5e8cf14c0bec230b335e060d,SCN,2024-06-21_12h46.57.154,LearnStrategy,2023.2.3,Win32,59.88023952,6,2,9,,,,,,,,8,08,,,,,,,,,,,8,1.457,1,,,,,,0.359375,-0.397135417,1,0,0,1.4573,Pumice_rect,8,0,8,0,1,
5e8cf14c0bec230b335e060d,SCN,2024-06-21_12h46.57.154,LearnStrategy,2023.2.3,Win32,59.88023952,6,2,10,,,,,,,,6,13,,,,,,,,,,,6,1.491,1,,,,,,-0.15625,-0.40234375,1,0,0,1.4914,Pegmatite_rect,9,0,9,0,1,
5e8cf14c0bec230b335e060d,SCN,2024-06-21_12h46.57.154,LearnStrategy,2023.2.3,Win32,59.88023952,6,2,11,,,,,,,,1,09,,,,,,,,,,,1,3.223,1,,,,,,-0.348958333,-0.243489583,1,0,0,3.2227,Andesite_rect,10,0,10,0,1,
5e8cf14c0bec230b335e060d,SCN,2024-06-21_12h46.57.154,LearnStrategy,2023.2.3,Win32,59.88023952,6,2,12,,,,,,,,4,03,,,,,,,,,,,1,1.818,0,,,,,,-0.350260417,-0.248697917,1,0,0,1.8176,Andesite_rect,11,0,11,0,1,
5e8cf14c0bec230b335e060d,SCN,2024-06-21_12h46.57.154,LearnStrategy,2023.2.3,Win32,59.88023952,6,2,13,,,,,,,,7,14,,,,,,,,,,,4,5.87,0,,,,,,0.359375,-0.259114583,1,0,0,5.8701,Gabbro_rect,12,0,12,0,1,
5e8cf14c0bec230b335e060d,SCN,2024-06-21_12h46.57.154,LearnStrategy,2023.2.3,Win32,59.88023952,6,2,14,,,,,,,,5,05,,,,,,,,,,,5,1.334,1,,,,,,-0.385416667,-0.397135417,1,0,0,1.3338,Obsidian_rect,13,0,13,0,1,
5e8cf14c0bec230b335e060d,SCN,2024-06-21_12h46.57.154,LearnStrategy,2023.2.3,Win32,59.88023952,6,2,15,,,,,,,,3,11,,,,,,,,,,,3,2.325,1,,,,,,0.162760417,-0.25390625,1,0,0,2.3246,Diorite_rect,14,0,14,0,1,
5e8cf14c0bec230b335e060d,SCN,2024-06-21_12h46.57.154,LearnStrategy,2023.2.3,Win32,59.88023952,6,2,16,,,,,,,,8,14,,,,,,,,,,,8,1.118,1,,,,,,0.360677083,-0.397135417,1,0,0,1.1177,Pumice_rect,15,0,15,0,1,
5e8cf14c0bec230b335e060d,SCN,2024-06-21_12h46.57.154,LearnStrategy,2023.2.3,Win32,59.88023952,7,1,1,-0.092447917,0.1015625,1,0,0,0.9381,Basalt_16,2,16,4,4,0.938,-0.0625,-0.2421875,1,0,0,2.1194,Basalt_rect,2,2.119,1,0,0,0,0,1,,,,,,,,,,,,,
5e8cf14c0bec230b335e060d,SCN,2024-06-21_12h46.57.154,LearnStrategy,2023.2.3,Win32,59.88023952,7,1,2,-0.528645833,-0.397135417,1,0,0,1.0847,Pumice_15,8,15,1,1,1.085,0.328125,-0.412760417,1,0,0,1.2835,Pumice_rect,8,1.284,1,1,0,1,0,1,,,,,,,,,,,,,
5e8cf14c0bec230b335e060d,SCN,2024-06-21_12h46.57.154,LearnStrategy,2023.2.3,Win32,59.88023952,7,1,3,-0.403645833,-0.08203125,1,0,0,1.194,Diorite_07,3,07,3,2,1.194,-0.373697917,-0.25,1,0,0,1.5741,Andesite_rect,1,1.574,0,2,0,2,0,1,,,,,,,,,,,,,
5e8cf14c0bec230b335e060d,SCN,2024-06-21_12h46.57.154,LearnStrategy,2023.2.3,Win32,59.88023952,7,1,4,0.080729167,-0.145833333,1,0,0,1.1644,Diorite_16,3,16,3,5,1.164,0.098958333,-0.236979167,1,0,0,1.3665,Diorite_rect,3,1.367,1,3,0,3,0,1,,,,,,,,,,,,,
5e8cf14c0bec230b335e060d,SCN,2024-06-21_12h46.57.154,LearnStrategy,2023.2.3,Win32,59.88023952,7,1,5,-0.227864583,0.408854167,1,0,0,1.2182,Andesite_01,1,01,6,3,1.218,-0.3359375,-0.23828125,1,0,0,0.9266,Andesite_rect,1,0.927,1,4,0,4,0,1,,,,,,,,,,,,,
5e8cf14c0bec230b335e060d,SCN,2024-06-21_12h46.57.154,LearnStrategy,2023.2.3,Win32,59.88023952,7,1,6,0.08203125,0.229166667,1,0,0,1.2191,Andesite_16,1,16,5,5,1.219,-0.325520833,-0.233072917,1,0,0,1.7178,Andesite_rect,1,1.718,1,5,0,5,0,1,,,,,,,,,,,,,
5e8cf14c0bec230b335e060d,SCN,2024-06-21_12h46.57.154,LearnStrategy,2023.2.3,Win32,59.88023952,7,1,7,0.591145833,0.252604167,1,0,0,1.4008,Andesite_05,1,05,5,8,1.401,-0.3828125,-0.255208333,1,0,0,1.168,Andesite_rect,1,1.168,1,6,0,6,0,1,,,,,,,,,,,,,
5e8cf14c0bec230b335e060d,SCN,2024-06-21_12h46.57.154,LearnStrategy,2023.2.3,Win32,59.88023952,7,1,8,-0.404947917,-0.1015625,1,0,0,1.2106,Diorite_07,3,07,3,2,1.211,0.180989583,-0.244791667,1,0,0,0.9506,Diorite_rect,3,0.951,1,7,0,7,0,1,,,,,,,,,,,,,
5e8cf14c0bec230b335e060d,SCN,2024-06-21_12h46.57.154,LearnStrategy,2023.2.3,Win32,59.88023952,7,1,9,-0.55078125,-0.126302083,1,0,0,1.2184,Andesite_06,1,06,3,1,1.218,-0.44921875,-0.248697917,1,0,0,1.2497,Andesite_rect,1,1.25,1,8,0,8,0,1,,,,,,,,,,,,,
5e8cf14c0bec230b335e060d,SCN,2024-06-21_12h46.57.154,LearnStrategy,2023.2.3,Win32,59.88023952,7,1,10,0.23046875,-0.126302083,1,0,0,1.4838,Peridotite_08,7,08,3,6,1.484,0.1640625,-0.3984375,1,0,0,1.1845,Peridotite_rect,7,1.185,1,9,0,9,0,1,,,,,,,,,,,,,
5e8cf14c0bec230b335e060d,SCN,2024-06-21_12h46.57.154,LearnStrategy,2023.2.3,Win32,59.88023952,7,1,11,0.580729167,-0.1015625,1,0,0,1.1675,Gabbro_05,4,05,3,8,1.168,0.41015625,-0.2421875,1,0,0,1.2434,Gabbro_rect,4,1.243,1,10,0,10,0,1,,,,,,,,,,,,,
5e8cf14c0bec230b335e060d,SCN,2024-06-21_12h46.57.154,LearnStrategy,2023.2.3,Win32,59.88023952,7,1,12,0.08984375,0.25,1,0,0,1.2345,Andesite_16,1,16,5,5,1.234,-0.333333333,-0.247395833,1,0,0,1.2676,Andesite_rect,1,1.268,1,11,0,11,0,1,,,,,,,,,,,,,
5e8cf14c0bec230b335e060d,SCN,2024-06-21_12h46.57.154,LearnStrategy,2023.2.3,Win32,59.88023952,7,1,13,-0.520833333,0.255208333,1,0,0,1.7668,Diorite_14,3,14,5,1,1.767,0.109375,-0.24609375,1,0,0,1.1516,Diorite_rect,3,1.152,1,12,0,12,0,1,,,,,,,,,,,,,
5e8cf14c0bec230b335e060d,SCN,2024-06-21_12h46.57.154,LearnStrategy,2023.2.3,Win32,59.88023952,7,1,14,0.19921875,0.10546875,1,0,0,1.2678,Andesite_11,1,11,4,6,1.268,-0.345052083,-0.23828125,1,0,0,1.679,Andesite_rect,1,1.679,1,13,0,13,0,1,,,,,,,,,,,,,
5e8cf14c0bec230b335e060d,SCN,2024-06-21_12h46.57.154,LearnStrategy,2023.2.3,Win32,59.88023952,7,1,15,0.506510417,0.10546875,1,0,0,1.6503,Gabbro_16,4,16,4,8,1.65,0.483072917,-0.244791667,1,0,0,0.9176,Gabbro_rect,4,0.918,1,14,0,14,0,1,,,,,,,,,,,,,
5e8cf14c0bec230b335e060d,SCN,2024-06-21_12h46.57.154,LearnStrategy,2023.2.3,Win32,59.88023952,7,1,16,-0.537760417,-0.118489583,1,0,0,1.3506,Andesite_06,1,06,3,1,1.351,-0.446614583,-0.247395833,1,0,0,1.0841,Andesite_rect,1,1.084,1,15,0,15,0,1,,,,,,,,,,,,,
5e8cf14c0bec230b335e060d,SCN,2024-06-21_12h46.57.154,LearnStrategy,2023.2.3,Win32,59.88023952,7,2,1,,,,,,,,4,11,,,,,,,,,,,4,3.871,1,,,,,,0.373697917,-0.256510417,1,0,0,3.871,Gabbro_rect,0,0,0,0,1,
5e8cf14c0bec230b335e060d,SCN,2024-06-21_12h46.57.154,LearnStrategy,2023.2.3,Win32,59.88023952,7,2,2,,,,,,,,7,07,,,,,,,,,,,7,1.216,1,,,,,,0.200520833,-0.407552083,1,0,0,1.2163,Peridotite_rect,1,0,1,0,1,
5e8cf14c0bec230b335e060d,SCN,2024-06-21_12h46.57.154,LearnStrategy,2023.2.3,Win32,59.88023952,7,2,3,,,,,,,,1,14,,,,,,,,,,,1,3.152,1,,,,,,-0.430989583,-0.265625,1,0,0,3.1524,Andesite_rect,2,0,2,0,1,
5e8cf14c0bec230b335e060d,SCN,2024-06-21_12h46.57.154,LearnStrategy,2023.2.3,Win32,59.88023952,7,2,4,,,,,,,,8,03,,,,,,,,,,,8,1.167,1,,,,,,0.40234375,-0.38671875,1,0,0,1.167,Pumice_rect,3,0,3,0,1,
5e8cf14c0bec230b335e060d,SCN,2024-06-21_12h46.57.154,LearnStrategy,2023.2.3,Win32,59.88023952,7,2,5,,,,,,,,7,04,,,,,,,,,,,1,9.9,0,,,,,,-0.3515625,-0.25390625,1,0,0,9.8997,Andesite_rect,4,0,4,0,1,
5e8cf14c0bec230b335e060d,SCN,2024-06-21_12h46.57.154,LearnStrategy,2023.2.3,Win32,59.88023952,7,2,6,,,,,,,,6,11,,,,,,,,,,,6,1.305,1,,,,,,-0.098958333,-0.38671875,1,0,0,1.3051,Pegmatite_rect,5,0,5,0,1,
5e8cf14c0bec230b335e060d,SCN,2024-06-21_12h46.57.154,LearnStrategy,2023.2.3,Win32,59.88023952,7,2,7,,,,,,,,3,09,,,,,,,,,,,3,2.635,1,,,,,,0.135416667,-0.248697917,1,0,0,2.6352,Diorite_rect,6,0,6,0,1,
5e8cf14c0bec230b335e060d,SCN,2024-06-21_12h46.57.154,LearnStrategy,2023.2.3,Win32,59.88023952,7,2,8,,,,,,,,3,06,,,,,,,,,,,3,1.883,1,,,,,,0.135416667,-0.248697917,1,0,0,1.883,Diorite_rect,7,0,7,0,1,
5e8cf14c0bec230b335e060d,SCN,2024-06-21_12h46.57.154,LearnStrategy,2023.2.3,Win32,59.88023952,7,2,9,,,,,,,,5,02,,,,,,,,,,,5,1.158,1,,,,,,-0.348958333,-0.393229167,1,0,0,1.1578,Obsidian_rect,8,0,8,0,1,
5e8cf14c0bec230b335e060d,SCN,2024-06-21_12h46.57.154,LearnStrategy,2023.2.3,Win32,59.88023952,7,2,10,,,,,,,,2,09,,,,,,,,,,,2,1.224,1,,,,,,-0.125,-0.252604167,1,0,0,1.2241,Basalt_rect,9,0,9,0,1,
5e8cf14c0bec230b335e060d,SCN,2024-06-21_12h46.57.154,LearnStrategy,2023.2.3,Win32,59.88023952,7,2,11,,,,,,,,6,05,,,,,,,,,,,6,1.601,1,,,,,,-0.125,-0.395833333,1,0,0,1.6007,Pegmatite_rect,10,0,10,0,1,
5e8cf14c0bec230b335e060d,SCN,2024-06-21_12h46.57.154,LearnStrategy,2023.2.3,Win32,59.88023952,7,2,12,,,,,,,,1,04,,,,,,,,,,,1,1.462,1,,,,,,-0.3515625,-0.251302083,1,0,0,1.4615,Andesite_rect,11,0,11,0,1,
5e8cf14c0bec230b335e060d,SCN,2024-06-21_12h46.57.154,LearnStrategy,2023.2.3,Win32,59.88023952,7,2,13,,,,,,,,2,08,,,,,,,,,,,2,1.242,1,,,,,,-0.138020833,-0.239583333,1,0,0,1.2417,Basalt_rect,12,0,12,0,1,
5e8cf14c0bec230b335e060d,SCN,2024-06-21_12h46.57.154,LearnStrategy,2023.2.3,Win32,59.88023952,7,2,14,,,,,,,,8,05,,,,,,,,,,,8,1.341,1,,,,,,0.380208333,-0.3984375,1,0,0,1.3415,Pumice_rect,13,0,13,0,1,
5e8cf14c0bec230b335e060d,SCN,2024-06-21_12h46.57.154,LearnStrategy,2023.2.3,Win32,59.88023952,7,2,15,,,,,,,,5,10,,,,,,,,,,,5,1.275,1,,,,,,-0.401041667,-0.39453125,1,0,0,1.2755,Obsidian_rect,14,0,14,0,1,
5e8cf14c0bec230b335e060d,SCN,2024-06-21_12h46.57.154,LearnStrategy,2023.2.3,Win32,59.88023952,7,2,16,,,,,,,,4,08,,,,,,,,,,,4,2.016,1,,,,,,0.373697917,-0.256510417,1,0,0,2.0162,Gabbro_rect,15,0,15,0,1,
5e8cf14c0bec230b335e060d,SCN,2024-06-21_12h46.57.154,LearnStrategy,2023.2.3,Win32,59.88023952,8,1,1,-0.528645833,0.263020833,1,0,0,1.5538,Diorite_14,3,14,5,1,1.554,0.209635417,-0.263020833,1,0,0,1.9831,Diorite_rect,3,1.983,1,0,0,0,0,1,,,,,,,,,,,,,
5e8cf14c0bec230b335e060d,SCN,2024-06-21_12h46.57.154,LearnStrategy,2023.2.3,Win32,59.88023952,8,1,2,-0.395833333,0.40234375,1,0,0,0.9143,Pumice_10,8,10,6,2,0.914,0.4296875,-0.403645833,1,0,0,1.1419,Pumice_rect,8,1.142,1,1,0,1,0,1,,,,,,,,,,,,,
5e8cf14c0bec230b335e060d,SCN,2024-06-21_12h46.57.154,LearnStrategy,2023.2.3,Win32,59.88023952,8,1,3,-0.376302083,0.075520833,1,0,0,4.1443,Obsidian_07,5,07,4,2,4.144,-0.393229167,-0.403645833,1,0,0,2.2665,Obsidian_rect,5,2.266,1,2,0,2,0,1,,,,,,,,,,,,,
5e8cf14c0bec230b335e060d,SCN,2024-06-21_12h46.57.154,LearnStrategy,2023.2.3,Win32,59.88023952,8,1,4,-0.3984375,-0.08203125,1,0,0,0.9944,Diorite_07,3,07,3,2,0.994,0.126302083,-0.26171875,1,0,0,1.7244,Diorite_rect,3,1.724,1,3,0,3,0,1,,,,,,,,,,,,,
5e8cf14c0bec230b335e060d,SCN,2024-06-21_12h46.57.154,LearnStrategy,2023.2.3,Win32,59.88023952,8,1,5,0.2578125,-0.259114583,1,0,0,1.8961,Pegmatite_16,6,16,2,6,1.896,-0.100260417,-0.401041667,1,0,0,1.326,Pegmatite_rect,6,1.326,1,4,0,4,0,1,,,,,,,,,,,,,
5e8cf14c0bec230b335e060d,SCN,2024-06-21_12h46.57.154,LearnStrategy,2023.2.3,Win32,59.88023952,8,1,6,0.575520833,-0.102864583,1,0,0,1.0315,Gabbro_05,4,05,3,8,1.032,0.444010417,-0.236979167,1,0,0,0.7744,Gabbro_rect,4,0.774,1,5,0,5,0,1,,,,,,,,,,,,,
5e8cf14c0bec230b335e060d,SCN,2024-06-21_12h46.57.154,LearnStrategy,2023.2.3,Win32,59.88023952,8,1,7,0.583333333,-0.412760417,1,0,0,0.9675,Diorite_12,3,12,1,8,0.967,0.223958333,-0.26953125,1,0,0,1.734,Diorite_rect,3,1.734,1,6,0,6,0,1,,,,,,,,,,,,,
5e8cf14c0bec230b335e060d,SCN,2024-06-21_12h46.57.154,LearnStrategy,2023.2.3,Win32,59.88023952,8,1,8,-0.576822917,-0.272135417,1,0,0,1.3809,Gabbro_09,4,09,2,1,1.381,-0.182291667,-0.2578125,1,0,0,1.8241,Basalt_rect,2,1.824,0,7,0,7,0,1,,,,,,,,,,,,,
5e8cf14c0bec230b335e060d,SCN,2024-06-21_12h46.57.154,LearnStrategy,2023.2.3,Win32,59.88023952,8,1,9,-0.079427083,0.09765625,1,0,0,1.4184,Basalt_16,2,16,4,4,1.418,0.423177083,-0.234375,1,0,0,2.407,Gabbro_rect,4,2.407,0,8,0,8,0,1,,,,,,,,,,,,,
5e8cf14c0bec230b335e060d,SCN,2024-06-21_12h46.57.154,LearnStrategy,2023.2.3,Win32,59.88023952,8,1,10,-0.561197917,0.108072917,1,0,0,2.1996,Peridotite_15,7,15,4,1,2.2,0.13671875,-0.401041667,1,0,0,1.3503,Peridotite_rect,7,1.35,1,9,0,9,0,1,,,,,,,,,,,,,
5e8cf14c0bec230b335e060d,SCN,2024-06-21_12h46.57.154,LearnStrategy,2023.2.3,Win32,59.88023952,8,1,11,-0.529947917,0.274739583,1,0,0,0.8012,Diorite_14,3,14,5,1,0.801,0.169270833,-0.23828125,1,0,0,1.2013,Diorite_rect,3,1.201,1,10,0,10,0,1,,,,,,,,,,,,,
5e8cf14c0bec230b335e060d,SCN,2024-06-21_12h46.57.154,LearnStrategy,2023.2.3,Win32,59.88023952,8,1,12,-0.559895833,0.401041667,1,0,0,1.2338,Diorite_15,3,15,6,1,1.234,0.102864583,-0.2421875,1,0,0,2.3721,Diorite_rect,3,2.372,1,11,0,11,0,1,,,,,,,,,,,,,
5e8cf14c0bec230b335e060d,SCN,2024-06-21_12h46.57.154,LearnStrategy,2023.2.3,Win32,59.88023952,8,1,13,0.236979167,0.369791667,1,0,0,1.002,Andesite_02,1,02,6,6,1.002,-0.3203125,-0.259114583,1,0,0,1.6823,Andesite_rect,1,1.682,1,12,0,12,0,1,,,,,,,,,,,,,
5e8cf14c0bec230b335e060d,SCN,2024-06-21_12h46.57.154,LearnStrategy,2023.2.3,Win32,59.88023952,8,1,14,0.380208333,0.391927083,1,0,0,1.1512,Pumice_06,8,06,6,7,1.151,0.37109375,-0.420572917,1,0,0,1.272,Pumice_rect,8,1.272,1,13,0,13,0,1,,,,,,,,,,,,,
5e8cf14c0bec230b335e060d,SCN,2024-06-21_12h46.57.154,LearnStrategy,2023.2.3,Win32,59.88023952,8,1,15,-0.509114583,0.227864583,1,0,0,2.7295,Diorite_14,3,14,5,1,2.729,0.135416667,-0.243489583,1,0,0,1.2572,Diorite_rect,3,1.257,1,14,0,14,0,1,,,,,,,,,,,,,
5e8cf14c0bec230b335e060d,SCN,2024-06-21_12h46.57.154,LearnStrategy,2023.2.3,Win32,59.88023952,8,1,16,0.0703125,-0.131510417,1,0,0,1.2209,Diorite_16,3,16,3,5,1.221,0.091145833,-0.266927083,1,0,0,0.9804,Diorite_rect,3,0.98,1,15,0,15,0,1,,,,,,,,,,,,,
5e8cf14c0bec230b335e060d,SCN,2024-06-21_12h46.57.154,LearnStrategy,2023.2.3,Win32,59.88023952,8,2,1,,,,,,,,1,07,,,,,,,,,,,1,4.021,1,,,,,,-0.3359375,-0.252604167,1,0,0,4.0214,Andesite_rect,0,0,0,0,1,
5e8cf14c0bec230b335e060d,SCN,2024-06-21_12h46.57.154,LearnStrategy,2023.2.3,Win32,59.88023952,8,2,2,,,,,,,,5,12,,,,,,,,,,,5,0.968,1,,,,,,-0.359375,-0.388020833,1,0,0,0.9679,Obsidian_rect,1,0,1,0,1,
5e8cf14c0bec230b335e060d,SCN,2024-06-21_12h46.57.154,LearnStrategy,2023.2.3,Win32,59.88023952,8,2,3,,,,,,,,4,13,,,,,,,,,,,4,3.256,1,,,,,,0.328125,-0.233072917,1,0,0,3.2559,Gabbro_rect,2,0,2,0,1,
5e8cf14c0bec230b335e060d,SCN,2024-06-21_12h46.57.154,LearnStrategy,2023.2.3,Win32,59.88023952,8,2,4,,,,,,,,8,04,,,,,,,,,,,8,1.017,1,,,,,,0.365885417,-0.399739583,1,0,0,1.0165,Pumice_rect,3,0,3,0,1,
5e8cf14c0bec230b335e060d,SCN,2024-06-21_12h46.57.154,LearnStrategy,2023.2.3,Win32,59.88023952,8,2,5,,,,,,,,2,14,,,,,,,,,,,2,1.267,1,,,,,,-0.180989583,-0.251302083,1,0,0,1.2673,Basalt_rect,4,0,4,0,1,
5e8cf14c0bec230b335e060d,SCN,2024-06-21_12h46.57.154,LearnStrategy,2023.2.3,Win32,59.88023952,8,2,6,,,,,,,,2,10,,,,,,,,,,,2,1.284,1,,,,,,-0.127604167,-0.25,1,0,0,1.2837,Basalt_rect,5,0,5,0,1,
5e8cf14c0bec230b335e060d,SCN,2024-06-21_12h46.57.154,LearnStrategy,2023.2.3,Win32,59.88023952,8,2,7,,,,,,,,5,14,,,,,,,,,,,5,1.142,1,,,,,,-0.364583333,-0.39453125,1,0,0,1.1416,Obsidian_rect,6,0,6,0,1,
5e8cf14c0bec230b335e060d,SCN,2024-06-21_12h46.57.154,LearnStrategy,2023.2.3,Win32,59.88023952,8,2,8,,,,,,,,4,03,,,,,,,,,,,4,7.196,1,,,,,,0.350260417,-0.26171875,1,0,0,7.1959,Gabbro_rect,7,0,7,0,1,
5e8cf14c0bec230b335e060d,SCN,2024-06-21_12h46.57.154,LearnStrategy,2023.2.3,Win32,59.88023952,8,2,9,,,,,,,,8,02,,,,,,,,,,,8,1.009,1,,,,,,0.342447917,-0.397135417,1,0,0,1.0093,Pumice_rect,8,0,8,0,1,
5e8cf14c0bec230b335e060d,SCN,2024-06-21_12h46.57.154,LearnStrategy,2023.2.3,Win32,59.88023952,8,2,10,,,,,,,,7,10,,,,,,,,,,,7,1.042,1,,,,,,0.149739583,-0.41015625,1,0,0,1.0417,Peridotite_rect,9,0,9,0,1,
5e8cf14c0bec230b335e060d,SCN,2024-06-21_12h46.57.154,LearnStrategy,2023.2.3,Win32,59.88023952,8,2,11,,,,,,,,3,11,,,,,,,,,,,3,1.743,1,,,,,,0.05859375,-0.229166667,1,0,0,1.743,Diorite_rect,10,0,10,0,1,
5e8cf14c0bec230b335e060d,SCN,2024-06-21_12h46.57.154,LearnStrategy,2023.2.3,Win32,59.88023952,8,2,12,,,,,,,,7,06,,,,,,,,,,,7,1.588,1,,,,,,0.072916667,-0.399739583,1,0,0,1.5878,Peridotite_rect,11,0,11,0,1,
5e8cf14c0bec230b335e060d,SCN,2024-06-21_12h46.57.154,LearnStrategy,2023.2.3,Win32,59.88023952,8,2,13,,,,,,,,3,10,,,,,,,,,,,4,6.428,0,,,,,,0.34375,-0.247395833,1,0,0,6.4278,Gabbro_rect,12,0,12,0,1,
5e8cf14c0bec230b335e060d,SCN,2024-06-21_12h46.57.154,LearnStrategy,2023.2.3,Win32,59.88023952,8,2,14,,,,,,,,6,13,,,,,,,,,,,6,1.134,1,,,,,,-0.111979167,-0.3984375,1,0,0,1.1342,Pegmatite_rect,13,0,13,0,1,
5e8cf14c0bec230b335e060d,SCN,2024-06-21_12h46.57.154,LearnStrategy,2023.2.3,Win32,59.88023952,8,2,15,,,,,,,,6,12,,,,,,,,,,,6,1.174,1,,,,,,-0.111979167,-0.3984375,1,0,0,1.1743,Pegmatite_rect,14,0,14,0,1,
5e8cf14c0bec230b335e060d,SCN,2024-06-21_12h46.57.154,LearnStrategy,2023.2.3,Win32,59.88023952,8,2,16,,,,,,,,1,10,,,,,,,,,,,2,1.108,0,,,,,,-0.11328125,-0.252604167,1,0,0,1.1081,Basalt_rect,15,0,15,0,1,
5e8cf14c0bec230b335e060d,SCN,2024-06-21_12h46.57.154,LearnStrategy,2023.2.3,Win32,59.88023952,9,1,1,0.075520833,0.08984375,1,0,0,1.3886,Pegmatite_15,6,15,4,5,1.389,-0.079427083,-0.407552083,1,0,0,0.9007,Pegmatite_rect,6,0.901,1,0,0,0,0,1,,,,,,,,,,,,,
5e8cf14c0bec230b335e060d,SCN,2024-06-21_12h46.57.154,LearnStrategy,2023.2.3,Win32,59.88023952,9,1,2,0.102864583,-0.13671875,1,0,0,0.9181,Diorite_16,3,16,3,5,0.918,0.111979167,-0.23828125,1,0,0,0.6437,Diorite_rect,3,0.644,1,1,0,1,0,1,,,,,,,,,,,,,
5e8cf14c0bec230b335e060d,SCN,2024-06-21_12h46.57.154,LearnStrategy,2023.2.3,Win32,59.88023952,9,1,3,0.09375,0.260416667,1,0,0,1.1008,Andesite_16,1,16,5,5,1.101,-0.365885417,-0.23046875,1,0,0,1.3172,Andesite_rect,1,1.317,1,2,0,2,0,1,,,,,,,,,,,,,
5e8cf14c0bec230b335e060d,SCN,2024-06-21_12h46.57.154,LearnStrategy,2023.2.3,Win32,59.88023952,9,1,4,0.587239583,0.221354167,1,0,0,2.7823,Andesite_05,1,05,5,8,2.782,-0.397135417,-0.240885417,1,0,0,1.1678,Andesite_rect,1,1.168,1,3,0,3,0,1,,,,,,,,,,,,,
5e8cf14c0bec230b335e060d,SCN,2024-06-21_12h46.57.154,LearnStrategy,2023.2.3,Win32,59.88023952,9,1,5,0.528645833,-0.266927083,1,0,0,0.8868,Gabbro_10,4,10,2,8,0.887,0.455729167,-0.243489583,1,0,0,1.1014,Gabbro_rect,4,1.101,1,4,0,4,0,1,,,,,,,,,,,,,
5e8cf14c0bec230b335e060d,SCN,2024-06-21_12h46.57.154,LearnStrategy,2023.2.3,Win32,59.88023952,9,1,6,0.576822917,-0.432291667,1,0,0,1.0511,Diorite_12,3,12,1,8,1.051,-0.356770833,-0.247395833,1,0,0,2.0845,Andesite_rect,1,2.084,0,5,0,5,0,1,,,,,,,,,,,,,
5e8cf14c0bec230b335e060d,SCN,2024-06-21_12h46.57.154,LearnStrategy,2023.2.3,Win32,59.88023952,9,1,7,0.23046875,-0.239583333,1,0,0,1.1644,Pegmatite_16,6,16,2,6,1.164,-0.143229167,-0.404947917,1,0,0,0.7587,Pegmatite_rect,6,0.759,1,6,0,6,0,1,,,,,,,,,,,,,
5e8cf14c0bec230b335e060d,SCN,2024-06-21_12h46.57.154,LearnStrategy,2023.2.3,Win32,59.88023952,9,1,8,-0.5234375,-0.407552083,1,0,0,0.9343,Pumice_15,8,15,1,1,0.934,0.3359375,-0.415364583,1,0,0,1.4002,Pumice_rect,8,1.4,1,7,0,7,0,1,,,,,,,,,,,,,
5e8cf14c0bec230b335e060d,SCN,2024-06-21_12h46.57.154,LearnStrategy,2023.2.3,Win32,59.88023952,9,1,9,-0.240885417,0.384114583,1,0,0,3.8652,Andesite_01,1,01,6,3,3.865,-0.40234375,-0.243489583,1,0,0,1.4644,Andesite_rect,1,1.464,1,8,0,8,0,1,,,,,,,,,,,,,
5e8cf14c0bec230b335e060d,SCN,2024-06-21_12h46.57.154,LearnStrategy,2023.2.3,Win32,59.88023952,9,1,10,-0.546875,-0.119791667,1,0,0,1.6763,Andesite_06,1,06,3,1,1.676,-0.462239583,-0.270833333,1,0,0,1.1576,Andesite_rect,1,1.158,1,9,0,9,0,1,,,,,,,,,,,,,
5e8cf14c0bec230b335e060d,SCN,2024-06-21_12h46.57.154,LearnStrategy,2023.2.3,Win32,59.88023952,9,1,11,-0.545572917,-0.272135417,1,0,0,1.1143,Gabbro_09,4,09,2,1,1.114,0.412760417,-0.259114583,1,0,0,1.8575,Gabbro_rect,4,1.857,1,10,0,10,0,1,,,,,,,,,,,,,
5e8cf14c0bec230b335e060d,SCN,2024-06-21_12h46.57.154,LearnStrategy,2023.2.3,Win32,59.88023952,9,1,12,0.268229167,0.09375,1,0,0,1.2638,Andesite_11,1,11,4,6,1.264,-0.33984375,-0.2578125,1,0,0,2.8396,Andesite_rect,1,2.84,1,11,0,11,0,1,,,,,,,,,,,,,
5e8cf14c0bec230b335e060d,SCN,2024-06-21_12h46.57.154,LearnStrategy,2023.2.3,Win32,59.88023952,9,1,13,-0.21484375,0.053385417,1,0,0,2.916,Peridotite_16,7,16,4,3,2.916,0.10546875,-0.407552083,1,0,0,1.5375,Peridotite_rect,7,1.538,1,12,0,12,0,1,,,,,,,,,,,,,
5e8cf14c0bec230b335e060d,SCN,2024-06-21_12h46.57.154,LearnStrategy,2023.2.3,Win32,59.88023952,9,1,14,0.389322917,0.388020833,1,0,0,1.6666,Pumice_06,8,06,6,7,1.667,0.36328125,-0.416666667,1,0,0,0.9023,Pumice_rect,8,0.902,1,13,0,13,0,1,,,,,,,,,,,,,
5e8cf14c0bec230b335e060d,SCN,2024-06-21_12h46.57.154,LearnStrategy,2023.2.3,Win32,59.88023952,9,1,15,0.088541667,-0.11328125,1,0,0,1.2666,Diorite_16,3,16,3,5,1.267,0.127604167,-0.25390625,1,0,0,0.6853,Diorite_rect,3,0.685,1,14,0,14,0,1,,,,,,,,,,,,,
5e8cf14c0bec230b335e060d,SCN,2024-06-21_12h46.57.154,LearnStrategy,2023.2.3,Win32,59.88023952,9,1,16,-0.536458333,-0.264322917,1,0,0,1.6835,Gabbro_09,4,09,2,1,1.683,-0.190104167,-0.25,1,0,0,1.8168,Basalt_rect,2,1.817,0,15,0,15,0,1,,,,,,,,,,,,,
5e8cf14c0bec230b335e060d,SCN,2024-06-21_12h46.57.154,LearnStrategy,2023.2.3,Win32,59.88023952,9,2,1,,,,,,,,4,01,,,,,,,,,,,4,3.303,1,,,,,,0.380208333,-0.251302083,1,0,0,3.3027,Gabbro_rect,0,0,0,0,1,
5e8cf14c0bec230b335e060d,SCN,2024-06-21_12h46.57.154,LearnStrategy,2023.2.3,Win32,59.88023952,9,2,2,,,,,,,,1,09,,,,,,,,,,,1,1.917,1,,,,,,-0.361979167,-0.247395833,1,0,0,1.917,Andesite_rect,1,0,1,0,1,
5e8cf14c0bec230b335e060d,SCN,2024-06-21_12h46.57.154,LearnStrategy,2023.2.3,Win32,59.88023952,9,2,3,,,,,,,,5,08,,,,,,,,,,,5,0.991,1,,,,,,-0.3359375,-0.403645833,1,0,0,0.9912,Obsidian_rect,2,0,2,0,1,
5e8cf14c0bec230b335e060d,SCN,2024-06-21_12h46.57.154,LearnStrategy,2023.2.3,Win32,59.88023952,9,2,4,,,,,,,,6,10,,,,,,,,,,,7,1.175,0,,,,,,0.111979167,-0.401041667,1,0,0,1.1752,Peridotite_rect,3,0,3,0,1,
5e8cf14c0bec230b335e060d,SCN,2024-06-21_12h46.57.154,LearnStrategy,2023.2.3,Win32,59.88023952,9,2,5,,,,,,,,3,02,,,,,,,,,,,3,5.637,1,,,,,,0.114583333,-0.25390625,1,0,0,5.6368,Diorite_rect,4,0,4,0,1,
5e8cf14c0bec230b335e060d,SCN,2024-06-21_12h46.57.154,LearnStrategy,2023.2.3,Win32,59.88023952,9,2,6,,,,,,,,2,04,,,,,,,,,,,2,1.028,1,,,,,,-0.1328125,-0.244791667,1,0,0,1.0278,Basalt_rect,5,0,5,0,1,
5e8cf14c0bec230b335e060d,SCN,2024-06-21_12h46.57.154,LearnStrategy,2023.2.3,Win32,59.88023952,9,2,7,,,,,,,,1,03,,,,,,,,,,,1,2.307,1,,,,,,-0.322916667,-0.260416667,1,0,0,2.3068,Andesite_rect,6,0,6,0,1,
5e8cf14c0bec230b335e060d,SCN,2024-06-21_12h46.57.154,LearnStrategy,2023.2.3,Win32,59.88023952,9,2,8,,,,,,,,5,05,,,,,,,,,,,5,1.293,1,,,,,,-0.403645833,-0.39453125,1,0,0,1.2926,Obsidian_rect,7,0,7,0,1,
5e8cf14c0bec230b335e060d,SCN,2024-06-21_12h46.57.154,LearnStrategy,2023.2.3,Win32,59.88023952,9,2,9,,,,,,,,2,02,,,,,,,,,,,2,1.074,1,,,,,,-0.203125,-0.23828125,1,0,0,1.0742,Basalt_rect,8,0,8,0,1,
5e8cf14c0bec230b335e060d,SCN,2024-06-21_12h46.57.154,LearnStrategy,2023.2.3,Win32,59.88023952,9,2,10,,,,,,,,6,07,,,,,,,,,,,6,1.154,1,,,,,,-0.095052083,-0.391927083,1,0,0,1.1537,Pegmatite_rect,9,0,9,0,1,
5e8cf14c0bec230b335e060d,SCN,2024-06-21_12h46.57.154,LearnStrategy,2023.2.3,Win32,59.88023952,9,2,11,,,,,,,,7,14,,,,,,,,,,,4,2.266,0,,,,,,0.352864583,-0.25,1,0,0,2.266,Gabbro_rect,10,0,10,0,1,
5e8cf14c0bec230b335e060d,SCN,2024-06-21_12h46.57.154,LearnStrategy,2023.2.3,Win32,59.88023952,9,2,12,,,,,,,,3,08,,,,,,,,,,,3,5.064,1,,,,,,0.09375,-0.251302083,1,0,0,5.0635,Diorite_rect,11,0,11,0,1,
5e8cf14c0bec230b335e060d,SCN,2024-06-21_12h46.57.154,LearnStrategy,2023.2.3,Win32,59.88023952,9,2,13,,,,,,,,8,14,,,,,,,,,,,8,1.084,1,,,,,,0.346354167,-0.399739583,1,0,0,1.0844,Pumice_rect,12,0,12,0,1,
5e8cf14c0bec230b335e060d,SCN,2024-06-21_12h46.57.154,LearnStrategy,2023.2.3,Win32,59.88023952,9,2,14,,,,,,,,7,12,,,,,,,,,,,7,1.99,1,,,,,,0.170572917,-0.401041667,1,0,0,1.9904,Peridotite_rect,13,0,13,0,1,
5e8cf14c0bec230b335e060d,SCN,2024-06-21_12h46.57.154,LearnStrategy,2023.2.3,Win32,59.88023952,9,2,15,,,,,,,,8,08,,,,,,,,,,,8,1.092,1,,,,,,0.33203125,-0.403645833,1,0,0,1.0916,Pumice_rect,14,0,14,0,1,
5e8cf14c0bec230b335e060d,SCN,2024-06-21_12h46.57.154,LearnStrategy,2023.2.3,Win32,59.88023952,9,2,16,,,,,,,,4,14,,,,,,,,,,,4,1.492,1,,,,,,0.346354167,-0.236979167,1,0,0,1.4915,Gabbro_rect,15,0,15,0,1,
5e8cf14c0bec230b335e060d,SCN,2024-06-21_12h46.57.154,LearnStrategy,2023.2.3,Win32,59.88023952,,,,,,,,,,,,,,,,,,,,,,,,,,,,,,,,,,,,,,,,,,,1
5e8cf14c0bec230b335e060d,SCN,2024-06-21_12h46.57.154,LearnStrategy,2023.2.3,Win32,59.88023952,,,,,,,,,,,,,,,,,,,,,,,,,,,,,,,,,,,,,,,,,,,
5e8cf14c0bec230b335e060d,SCN,2024-06-21_12h46.57.154,LearnStrategy,2023.2.3,Win32,59.88023952,,,,,,,,,,,8,15,1,1,,,,,,,,,,,,,,,,,,,,,,,,,,,,,
5e8cf14c0bec230b335e060d,SCN,2024-06-21_12h46.57.154,LearnStrategy,2023.2.3,Win32,59.88023952,,,,,,,,,,,5,06,1,2,,,,,,,,,,,,,,,,,,,,,,,,,,,,,
5e8cf14c0bec230b335e060d,SCN,2024-06-21_12h46.57.154,LearnStrategy,2023.2.3,Win32,59.88023952,,,,,,,,,,,6,06,1,3,,,,,,,,,,,,,,,,,,,,,,,,,,,,,
5e8cf14c0bec230b335e060d,SCN,2024-06-21_12h46.57.154,LearnStrategy,2023.2.3,Win32,59.88023952,,,,,,,,,,,5,09,1,4,,,,,,,,,,,,,,,,,,,,,,,,,,,,,
5e8cf14c0bec230b335e060d,SCN,2024-06-21_12h46.57.154,LearnStrategy,2023.2.3,Win32,59.88023952,,,,,,,,,,,6,03,1,5,,,,,,,,,,,,,,,,,,,,,,,,,,,,,
5e8cf14c0bec230b335e060d,SCN,2024-06-21_12h46.57.154,LearnStrategy,2023.2.3,Win32,59.88023952,,,,,,,,,,,2,05,1,6,,,,,,,,,,,,,,,,,,,,,,,,,,,,,
5e8cf14c0bec230b335e060d,SCN,2024-06-21_12h46.57.154,LearnStrategy,2023.2.3,Win32,59.88023952,,,,,,,,,,,8,16,1,7,,,,,,,,,,,,,,,,,,,,,,,,,,,,,
5e8cf14c0bec230b335e060d,SCN,2024-06-21_12h46.57.154,LearnStrategy,2023.2.3,Win32,59.88023952,,,,,,,,,,,3,12,1,8,,,,,,,,,,,,,,,,,,,,,,,,,,,,,
5e8cf14c0bec230b335e060d,SCN,2024-06-21_12h46.57.154,LearnStrategy,2023.2.3,Win32,59.88023952,,,,,,,,,,,4,09,2,1,,,,,,,,,,,,,,,,,,,,,,,,,,,,,
5e8cf14c0bec230b335e060d,SCN,2024-06-21_12h46.57.154,LearnStrategy,2023.2.3,Win32,59.88023952,,,,,,,,,,,5,16,2,2,,,,,,,,,,,,,,,,,,,,,,,,,,,,,
5e8cf14c0bec230b335e060d,SCN,2024-06-21_12h46.57.154,LearnStrategy,2023.2.3,Win32,59.88023952,,,,,,,,,,,5,11,2,3,,,,,,,,,,,,,,,,,,,,,,,,,,,,,
5e8cf14c0bec230b335e060d,SCN,2024-06-21_12h46.57.154,LearnStrategy,2023.2.3,Win32,59.88023952,,,,,,,,,,,4,12,2,4,,,,,,,,,,,,,,,,,,,,,,,,,,,,,
5e8cf14c0bec230b335e060d,SCN,2024-06-21_12h46.57.154,LearnStrategy,2023.2.3,Win32,59.88023952,,,,,,,,,,,8,13,2,5,,,,,,,,,,,,,,,,,,,,,,,,,,,,,
5e8cf14c0bec230b335e060d,SCN,2024-06-21_12h46.57.154,LearnStrategy,2023.2.3,Win32,59.88023952,,,,,,,,,,,6,16,2,6,,,,,,,,,,,,,,,,,,,,,,,,,,,,,
5e8cf14c0bec230b335e060d,SCN,2024-06-21_12h46.57.154,LearnStrategy,2023.2.3,Win32,59.88023952,,,,,,,,,,,2,11,2,7,,,,,,,,,,,,,,,,,,,,,,,,,,,,,
5e8cf14c0bec230b335e060d,SCN,2024-06-21_12h46.57.154,LearnStrategy,2023.2.3,Win32,59.88023952,,,,,,,,,,,4,10,2,8,,,,,,,,,,,,,,,,,,,,,,,,,,,,,
5e8cf14c0bec230b335e060d,SCN,2024-06-21_12h46.57.154,LearnStrategy,2023.2.3,Win32,59.88023952,,,,,,,,,,,1,06,3,1,,,,,,,,,,,,,,,,,,,,,,,,,,,,,
5e8cf14c0bec230b335e060d,SCN,2024-06-21_12h46.57.154,LearnStrategy,2023.2.3,Win32,59.88023952,,,,,,,,,,,3,07,3,2,,,,,,,,,,,,,,,,,,,,,,,,,,,,,
5e8cf14c0bec230b335e060d,SCN,2024-06-21_12h46.57.154,LearnStrategy,2023.2.3,Win32,59.88023952,,,,,,,,,,,5,04,3,3,,,,,,,,,,,,,,,,,,,,,,,,,,,,,
5e8cf14c0bec230b335e060d,SCN,2024-06-21_12h46.57.154,LearnStrategy,2023.2.3,Win32,59.88023952,,,,,,,,,,,6,09,3,4,,,,,,,,,,,,,,,,,,,,,,,,,,,,,
5e8cf14c0bec230b335e060d,SCN,2024-06-21_12h46.57.154,LearnStrategy,2023.2.3,Win32,59.88023952,,,,,,,,,,,3,16,3,5,,,,,,,,,,,,,,,,,,,,,,,,,,,,,
5e8cf14c0bec230b335e060d,SCN,2024-06-21_12h46.57.154,LearnStrategy,2023.2.3,Win32,59.88023952,,,,,,,,,,,7,08,3,6,,,,,,,,,,,,,,,,,,,,,,,,,,,,,
5e8cf14c0bec230b335e060d,SCN,2024-06-21_12h46.57.154,LearnStrategy,2023.2.3,Win32,59.88023952,,,,,,,,,,,7,02,3,7,,,,,,,,,,,,,,,,,,,,,,,,,,,,,
5e8cf14c0bec230b335e060d,SCN,2024-06-21_12h46.57.154,LearnStrategy,2023.2.3,Win32,59.88023952,,,,,,,,,,,4,05,3,8,,,,,,,,,,,,,,,,,,,,,,,,,,,,,
5e8cf14c0bec230b335e060d,SCN,2024-06-21_12h46.57.154,LearnStrategy,2023.2.3,Win32,59.88023952,,,,,,,,,,,7,15,4,1,,,,,,,,,,,,,,,,,,,,,,,,,,,,,
5e8cf14c0bec230b335e060d,SCN,2024-06-21_12h46.57.154,LearnStrategy,2023.2.3,Win32,59.88023952,,,,,,,,,,,5,07,4,2,,,,,,,,,,,,,,,,,,,,,,,,,,,,,
5e8cf14c0bec230b335e060d,SCN,2024-06-21_12h46.57.154,LearnStrategy,2023.2.3,Win32,59.88023952,,,,,,,,,,,7,16,4,3,,,,,,,,,,,,,,,,,,,,,,,,,,,,,
5e8cf14c0bec230b335e060d,SCN,2024-06-21_12h46.57.154,LearnStrategy,2023.2.3,Win32,59.88023952,,,,,,,,,,,2,16,4,4,,,,,,,,,,,,,,,,,,,,,,,,,,,,,
5e8cf14c0bec230b335e060d,SCN,2024-06-21_12h46.57.154,LearnStrategy,2023.2.3,Win32,59.88023952,,,,,,,,,,,6,15,4,5,,,,,,,,,,,,,,,,,,,,,,,,,,,,,
5e8cf14c0bec230b335e060d,SCN,2024-06-21_12h46.57.154,LearnStrategy,2023.2.3,Win32,59.88023952,,,,,,,,,,,1,11,4,6,,,,,,,,,,,,,,,,,,,,,,,,,,,,,
5e8cf14c0bec230b335e060d,SCN,2024-06-21_12h46.57.154,LearnStrategy,2023.2.3,Win32,59.88023952,,,,,,,,,,,7,13,4,7,,,,,,,,,,,,,,,,,,,,,,,,,,,,,
5e8cf14c0bec230b335e060d,SCN,2024-06-21_12h46.57.154,LearnStrategy,2023.2.3,Win32,59.88023952,,,,,,,,,,,4,16,4,8,,,,,,,,,,,,,,,,,,,,,,,,,,,,,
5e8cf14c0bec230b335e060d,SCN,2024-06-21_12h46.57.154,LearnStrategy,2023.2.3,Win32,59.88023952,,,,,,,,,,,3,14,5,1,,,,,,,,,,,,,,,,,,,,,,,,,,,,,
5e8cf14c0bec230b335e060d,SCN,2024-06-21_12h46.57.154,LearnStrategy,2023.2.3,Win32,59.88023952,,,,,,,,,,,2,01,5,2,,,,,,,,,,,,,,,,,,,,,,,,,,,,,
5e8cf14c0bec230b335e060d,SCN,2024-06-21_12h46.57.154,LearnStrategy,2023.2.3,Win32,59.88023952,,,,,,,,,,,7,05,5,3,,,,,,,,,,,,,,,,,,,,,,,,,,,,,
5e8cf14c0bec230b335e060d,SCN,2024-06-21_12h46.57.154,LearnStrategy,2023.2.3,Win32,59.88023952,,,,,,,,,,,4,15,5,4,,,,,,,,,,,,,,,,,,,,,,,,,,,,,
5e8cf14c0bec230b335e060d,SCN,2024-06-21_12h46.57.154,LearnStrategy,2023.2.3,Win32,59.88023952,,,,,,,,,,,1,16,5,5,,,,,,,,,,,,,,,,,,,,,,,,,,,,,
5e8cf14c0bec230b335e060d,SCN,2024-06-21_12h46.57.154,LearnStrategy,2023.2.3,Win32,59.88023952,,,,,,,,,,,8,09,5,6,,,,,,,,,,,,,,,,,,,,,,,,,,,,,
5e8cf14c0bec230b335e060d,SCN,2024-06-21_12h46.57.154,LearnStrategy,2023.2.3,Win32,59.88023952,,,,,,,,,,,6,08,5,7,,,,,,,,,,,,,,,,,,,,,,,,,,,,,
5e8cf14c0bec230b335e060d,SCN,2024-06-21_12h46.57.154,LearnStrategy,2023.2.3,Win32,59.88023952,,,,,,,,,,,1,05,5,8,,,,,,,,,,,,,,,,,,,,,,,,,,,,,
5e8cf14c0bec230b335e060d,SCN,2024-06-21_12h46.57.154,LearnStrategy,2023.2.3,Win32,59.88023952,,,,,,,,,,,3,15,6,1,,,,,,,,,,,,,,,,,,,,,,,,,,,,,
5e8cf14c0bec230b335e060d,SCN,2024-06-21_12h46.57.154,LearnStrategy,2023.2.3,Win32,59.88023952,,,,,,,,,,,8,10,6,2,,,,,,,,,,,,,,,,,,,,,,,,,,,,,
5e8cf14c0bec230b335e060d,SCN,2024-06-21_12h46.57.154,LearnStrategy,2023.2.3,Win32,59.88023952,,,,,,,,,,,1,01,6,3,,,,,,,,,,,,,,,,,,,,,,,,,,,,,
5e8cf14c0bec230b335e060d,SCN,2024-06-21_12h46.57.154,LearnStrategy,2023.2.3,Win32,59.88023952,,,,,,,,,,,2,12,6,4,,,,,,,,,,,,,,,,,,,,,,,,,,,,,
5e8cf14c0bec230b335e060d,SCN,2024-06-21_12h46.57.154,LearnStrategy,2023.2.3,Win32,59.88023952,,,,,,,,,,,2,06,6,5,,,,,,,,,,,,,,,,,,,,,,,,,,,,,
5e8cf14c0bec230b335e060d,SCN,2024-06-21_12h46.57.154,LearnStrategy,2023.2.3,Win32,59.88023952,,,,,,,,,,,1,02,6,6,,,,,,,,,,,,,,,,,,,,,,,,,,,,,
5e8cf14c0bec230b335e060d,SCN,2024-06-21_12h46.57.154,LearnStrategy,2023.2.3,Win32,59.88023952,,,,,,,,,,,8,06,6,7,,,,,,,,,,,,,,,,,,,,,,,,,,,,,
5e8cf14c0bec230b335e060d,SCN,2024-06-21_12h46.57.154,LearnStrategy,2023.2.3,Win32,59.88023952,,,,,,,,,,,3,13,6,8,,,,,,,,,,,,,,,,,,,,,,,,,,,,,