participant,condition,date,expName,psychopyVersion,OS,frameRate,block,phase,trial,learn_mouse_2.x,learn_mouse_2.y,learn_mouse_2.leftButton,learn_mouse_2.midButton,learn_mouse_2.rightButton,learn_mouse_2.time,learn_mouse_2.clicked_name,cat,token,row,col,t_select,cat_mouse_l.x,cat_mouse_l.y,cat_mouse_l.leftButton,cat_mouse_l.midButton,cat_mouse_l.rightButton,cat_mouse_l.time,cat_mouse_l.clicked_name,resp,t_resp,corr,train_trials.thisRepN,train_trials.thisTrialN,train_trials.thisN,train_trials.thisIndex,train_trials.ran,cat_mouse_t.x,cat_mouse_t.y,cat_mouse_t.leftButton,cat_mouse_t.midButton,cat_mouse_t.rightButton,cat_mouse_t.time,cat_mouse_t.clicked_name,test_trials.thisRepN,test_trials.thisTrialN,test_trials.thisN,test_trials.thisIndex,test_trials.ran
5ecc6fb87c7c7646490f3cf8,TCR,2024-06-10_14h59.02.792,LearnStrategy,2023.2.3,Win32,60.0240096,,,,,,,,,,,,,,,,,,,,,,,,,,,,,,,,,,,,,,,,,,
5ecc6fb87c7c7646490f3cf8,TCR,2024-06-10_14h59.02.792,LearnStrategy,2023.2.3,Win32,60.0240096,1,1,1,-0.004166667,-0.004166667,1,0,0,2.243,rock_grid_rect_2,6,10,-1,-1,2.243,0.140277778,-0.244444444,1,0,0,5.65,Diorite_rect,3,5.65,0,0,0,0,0,1,,,,,,,,,,,,
5ecc6fb87c7c7646490f3cf8,TCR,2024-06-10_14h59.02.792,LearnStrategy,2023.2.3,Win32,60.0240096,1,1,2,-0.011111111,-0.004166667,1,0,0,1.384,rock_grid_rect_2,6,05,-1,-1,1.384,-0.405555556,-0.4125,1,0,0,1.874,Obsidian_rect,5,1.874,0,1,0,1,0,1,,,,,,,,,,,,
5ecc6fb87c7c7646490f3cf8,TCR,2024-06-10_14h59.02.792,LearnStrategy,2023.2.3,Win32,60.0240096,1,1,3,-0.031944444,0.002777778,1,0,0,1.467,rock_grid_rect_2,3,14,-1,-1,1.467,0.415277778,-0.395833333,1,0,0,6.238,Pumice_rect,8,6.238,0,2,0,2,0,1,,,,,,,,,,,,
5ecc6fb87c7c7646490f3cf8,TCR,2024-06-10_14h59.02.792,LearnStrategy,2023.2.3,Win32,60.0240096,1,1,4,0.022222222,0.004166667,1,0,0,1.115,rock_grid_rect_2,1,14,-1,-1,1.115,0.409722222,-0.397222222,1,0,0,4.177,Pumice_rect,8,4.177,0,3,0,3,0,1,,,,,,,,,,,,
5ecc6fb87c7c7646490f3cf8,TCR,2024-06-10_14h59.02.792,LearnStrategy,2023.2.3,Win32,60.0240096,1,1,5,0.013888889,-0.020833333,1,0,0,1.162,rock_grid_rect_2,3,13,-1,-1,1.162,-0.215277778,-0.409722222,1,0,0,8.205,Pegmatite_rect,6,8.205,0,4,0,4,0,1,,,,,,,,,,,,
5ecc6fb87c7c7646490f3cf8,TCR,2024-06-10_14h59.02.792,LearnStrategy,2023.2.3,Win32,60.0240096,1,1,6,-0.023611111,-0.006944444,1,0,0,1.181,rock_grid_rect_2,7,04,-1,-1,1.181,-0.379166667,-0.268055556,1,0,0,4.738,Andesite_rect,1,4.738,0,5,0,5,0,1,,,,,,,,,,,,
5ecc6fb87c7c7646490f3cf8,TCR,2024-06-10_14h59.02.792,LearnStrategy,2023.2.3,Win32,60.0240096,1,1,7,-0.004166667,-0.002777778,1,0,0,1.043,rock_grid_rect_2,5,05,-1,-1,1.043,-0.398611111,-0.384722222,1,0,0,2.028,Obsidian_rect,5,2.028,1,6,0,6,0,1,,,,,,,,,,,,
5ecc6fb87c7c7646490f3cf8,TCR,2024-06-10_14h59.02.792,LearnStrategy,2023.2.3,Win32,60.0240096,1,1,8,-0.025,0.009722222,1,0,0,1.12,rock_grid_rect_2,1,16,-1,-1,1.12,0.122222222,-0.411111111,1,0,0,3.435,Peridotite_rect,7,3.435,0,7,0,7,0,1,,,,,,,,,,,,
5ecc6fb87c7c7646490f3cf8,TCR,2024-06-10_14h59.02.792,LearnStrategy,2023.2.3,Win32,60.0240096,1,1,9,0.002777778,-0.008333333,1,0,0,1.053,rock_grid_rect_2,2,12,-1,-1,1.053,0.391666667,-0.409722222,1,0,0,2.764,Pumice_rect,8,2.764,0,8,0,8,0,1,,,,,,,,,,,,
5ecc6fb87c7c7646490f3cf8,TCR,2024-06-10_14h59.02.792,LearnStrategy,2023.2.3,Win32,60.0240096,1,1,10,0.0125,-0.001388889,1,0,0,0.885,rock_grid_rect_2,8,02,-1,-1,0.885,-0.159722222,-0.231944444,1,0,0,3.603,Basalt_rect,2,3.603,0,9,0,9,0,1,,,,,,,,,,,,
5ecc6fb87c7c7646490f3cf8,TCR,2024-06-10_14h59.02.792,LearnStrategy,2023.2.3,Win32,60.0240096,1,1,11,-0.043055556,-0.009722222,1,0,0,0.921,rock_grid_rect_2,8,13,-1,-1,0.921,0.395833333,-0.245833333,1,0,0,4.402,Gabbro_rect,4,4.402,0,10,0,10,0,1,,,,,,,,,,,,
5ecc6fb87c7c7646490f3cf8,TCR,2024-06-10_14h59.02.792,LearnStrategy,2023.2.3,Win32,60.0240096,1,1,12,0.013888889,-0.002777778,1,0,0,0.926,rock_grid_rect_2,7,02,-1,-1,0.926,-0.406944444,-0.236111111,1,0,0,3.557,Andesite_rect,1,3.557,0,11,0,11,0,1,,,,,,,,,,,,
5ecc6fb87c7c7646490f3cf8,TCR,2024-06-10_14h59.02.792,LearnStrategy,2023.2.3,Win32,60.0240096,1,1,13,-0.016666667,0,1,0,0,0.857,rock_grid_rect_2,4,05,-1,-1,0.857,-0.386111111,-0.397222222,1,0,0,2.633,Obsidian_rect,5,2.633,0,12,0,12,0,1,,,,,,,,,,,,
5ecc6fb87c7c7646490f3cf8,TCR,2024-06-10_14h59.02.792,LearnStrategy,2023.2.3,Win32,60.0240096,1,1,14,0.029166667,0.006944444,1,0,0,0.781,rock_grid_rect_2,2,10,-1,-1,0.781,-0.3625,-0.402777778,1,0,0,1.539,Obsidian_rect,5,1.539,0,13,0,13,0,1,,,,,,,,,,,,
5ecc6fb87c7c7646490f3cf8,TCR,2024-06-10_14h59.02.792,LearnStrategy,2023.2.3,Win32,60.0240096,1,1,15,0.026388889,0.009722222,1,0,0,0.837,rock_grid_rect_2,4,12,-1,-1,0.837,0.380555556,-0.394444444,1,0,0,2.707,Pumice_rect,8,2.707,0,14,0,14,0,1,,,,,,,,,,,,
5ecc6fb87c7c7646490f3cf8,TCR,2024-06-10_14h59.02.792,LearnStrategy,2023.2.3,Win32,60.0240096,1,1,16,-0.065277778,0.008333333,1,0,0,1.01,rock_grid_rect_2,5,14,-1,-1,1.01,-0.379166667,-0.406944444,1,0,0,1.333,Obsidian_rect,5,1.333,1,15,0,15,0,1,,,,,,,,,,,,
5ecc6fb87c7c7646490f3cf8,TCR,2024-06-10_14h59.02.792,LearnStrategy,2023.2.3,Win32,60.0240096,1,2,1,,,,,,,,2,09,,,,,,,,,,,2,8.557,1,,,,,,-0.1,-0.243055556,1,0,0,8.557,Basalt_rect,0,0,0,0,1
5ecc6fb87c7c7646490f3cf8,TCR,2024-06-10_14h59.02.792,LearnStrategy,2023.2.3,Win32,60.0240096,1,2,2,,,,,,,,7,15,,,,,,,,,,,1,2.999,0,,,,,,-0.4125,-0.247222222,1,0,0,2.999,Andesite_rect,1,0,1,0,1
5ecc6fb87c7c7646490f3cf8,TCR,2024-06-10_14h59.02.792,LearnStrategy,2023.2.3,Win32,60.0240096,1,2,3,,,,,,,,6,07,,,,,,,,,,,5,2.607,0,,,,,,-0.406944444,-0.411111111,1,0,0,2.607,Obsidian_rect,2,0,2,0,1
5ecc6fb87c7c7646490f3cf8,TCR,2024-06-10_14h59.02.792,LearnStrategy,2023.2.3,Win32,60.0240096,1,2,4,,,,,,,,8,06,,,,,,,,,,,8,3.359,1,,,,,,0.391666667,-0.4,1,0,0,3.359,Pumice_rect,3,0,3,0,1
5ecc6fb87c7c7646490f3cf8,TCR,2024-06-10_14h59.02.792,LearnStrategy,2023.2.3,Win32,60.0240096,1,2,5,,,,,,,,5,16,,,,,,,,,,,5,2.06,1,,,,,,-0.406944444,-0.3875,1,0,0,2.06,Obsidian_rect,4,0,4,0,1
5ecc6fb87c7c7646490f3cf8,TCR,2024-06-10_14h59.02.792,LearnStrategy,2023.2.3,Win32,60.0240096,1,2,6,,,,,,,,4,10,,,,,,,,,,,4,3.031,1,,,,,,0.365277778,-0.245833333,1,0,0,3.031,Gabbro_rect,5,0,5,0,1
5ecc6fb87c7c7646490f3cf8,TCR,2024-06-10_14h59.02.792,LearnStrategy,2023.2.3,Win32,60.0240096,1,2,7,,,,,,,,3,16,,,,,,,,,,,7,4.125,0,,,,,,0.097222222,-0.402777778,1,0,0,4.125,Peridotite_rect,6,0,6,0,1
5ecc6fb87c7c7646490f3cf8,TCR,2024-06-10_14h59.02.792,LearnStrategy,2023.2.3,Win32,60.0240096,1,2,8,,,,,,,,3,07,,,,,,,,,,,7,2.636,0,,,,,,0.090277778,-0.395833333,1,0,0,2.636,Peridotite_rect,7,0,7,0,1
5ecc6fb87c7c7646490f3cf8,TCR,2024-06-10_14h59.02.792,LearnStrategy,2023.2.3,Win32,60.0240096,1,2,9,,,,,,,,2,01,,,,,,,,,,,8,2.319,0,,,,,,0.352777778,-0.397222222,1,0,0,2.319,Pumice_rect,8,0,8,0,1
5ecc6fb87c7c7646490f3cf8,TCR,2024-06-10_14h59.02.792,LearnStrategy,2023.2.3,Win32,60.0240096,1,2,10,,,,,,,,4,01,,,,,,,,,,,1,1.984,0,,,,,,-0.351388889,-0.255555556,1,0,0,1.984,Andesite_rect,9,0,9,0,1
5ecc6fb87c7c7646490f3cf8,TCR,2024-06-10_14h59.02.792,LearnStrategy,2023.2.3,Win32,60.0240096,1,2,11,,,,,,,,5,11,,,,,,,,,,,5,1.403,1,,,,,,-0.3625,-0.398611111,1,0,0,1.403,Obsidian_rect,10,0,10,0,1
5ecc6fb87c7c7646490f3cf8,TCR,2024-06-10_14h59.02.792,LearnStrategy,2023.2.3,Win32,60.0240096,1,2,12,,,,,,,,6,16,,,,,,,,,,,3,5.247,0,,,,,,0.158333333,-0.258333333,1,0,0,5.247,Diorite_rect,11,0,11,0,1
5ecc6fb87c7c7646490f3cf8,TCR,2024-06-10_14h59.02.792,LearnStrategy,2023.2.3,Win32,60.0240096,1,2,13,,,,,,,,7,16,,,,,,,,,,,2,3.775,0,,,,,,-0.080555556,-0.254166667,1,0,0,3.775,Basalt_rect,12,0,12,0,1
5ecc6fb87c7c7646490f3cf8,TCR,2024-06-10_14h59.02.792,LearnStrategy,2023.2.3,Win32,60.0240096,1,2,14,,,,,,,,1,02,,,,,,,,,,,8,3.14,0,,,,,,0.388888889,-0.416666667,1,0,0,3.14,Pumice_rect,13,0,13,0,1
5ecc6fb87c7c7646490f3cf8,TCR,2024-06-10_14h59.02.792,LearnStrategy,2023.2.3,Win32,60.0240096,1,2,15,,,,,,,,1,03,,,,,,,,,,,8,2.613,0,,,,,,0.393055556,-0.401388889,1,0,0,2.613,Pumice_rect,14,0,14,0,1
5ecc6fb87c7c7646490f3cf8,TCR,2024-06-10_14h59.02.792,LearnStrategy,2023.2.3,Win32,60.0240096,1,2,16,,,,,,,,8,03,,,,,,,,,,,8,1.499,1,,,,,,0.405555556,-0.395833333,1,0,0,1.499,Pumice_rect,15,0,15,0,1
5ecc6fb87c7c7646490f3cf8,TCR,2024-06-10_14h59.02.792,LearnStrategy,2023.2.3,Win32,60.0240096,2,1,1,-0.031944444,-0.009722222,1,0,0,2.444,rock_grid_rect_2,7,14,-1,-1,2.444,-0.3625,-0.245833333,1,0,0,2.167,Andesite_rect,1,2.167,0,0,0,0,0,1,,,,,,,,,,,,
5ecc6fb87c7c7646490f3cf8,TCR,2024-06-10_14h59.02.792,LearnStrategy,2023.2.3,Win32,60.0240096,2,1,2,-0.0375,-0.016666667,1,0,0,1.236,rock_grid_rect_2,3,11,-1,-1,1.236,-0.365277778,-0.247222222,1,0,0,1.884,Andesite_rect,1,1.884,0,1,0,1,0,1,,,,,,,,,,,,
5ecc6fb87c7c7646490f3cf8,TCR,2024-06-10_14h59.02.792,LearnStrategy,2023.2.3,Win32,60.0240096,2,1,3,0.011111111,-0.004166667,1,0,0,1.138,rock_grid_rect_2,6,13,-1,-1,1.138,-0.104166667,-0.398611111,1,0,0,3.484,Pegmatite_rect,6,3.484,1,2,0,2,0,1,,,,,,,,,,,,
5ecc6fb87c7c7646490f3cf8,TCR,2024-06-10_14h59.02.792,LearnStrategy,2023.2.3,Win32,60.0240096,2,1,4,-0.019444444,-0.001388889,1,0,0,1.363,rock_grid_rect_2,8,02,-1,-1,1.363,0.401388889,-0.405555556,1,0,0,1.528,Pumice_rect,8,1.528,1,3,0,3,0,1,,,,,,,,,,,,
5ecc6fb87c7c7646490f3cf8,TCR,2024-06-10_14h59.02.792,LearnStrategy,2023.2.3,Win32,60.0240096,2,1,5,0,0,1,0,0,1.2,rock_grid_rect_2,7,05,-1,-1,1.2,-0.101388889,-0.251388889,1,0,0,1.934,Basalt_rect,2,1.934,0,4,0,4,0,1,,,,,,,,,,,,
5ecc6fb87c7c7646490f3cf8,TCR,2024-06-10_14h59.02.792,LearnStrategy,2023.2.3,Win32,60.0240096,2,1,6,-0.004166667,0.006944444,1,0,0,0.932,rock_grid_rect_2,2,11,-1,-1,0.932,-0.1125,-0.244444444,1,0,0,3.349,Basalt_rect,2,3.349,1,5,0,5,0,1,,,,,,,,,,,,
5ecc6fb87c7c7646490f3cf8,TCR,2024-06-10_14h59.02.792,LearnStrategy,2023.2.3,Win32,60.0240096,2,1,7,-0.008333333,-0.019444444,1,0,0,0.936,rock_grid_rect_2,1,10,-1,-1,0.936,-0.098611111,-0.241666667,1,0,0,1.228,Basalt_rect,2,1.228,0,6,0,6,0,1,,,,,,,,,,,,
5ecc6fb87c7c7646490f3cf8,TCR,2024-06-10_14h59.02.792,LearnStrategy,2023.2.3,Win32,60.0240096,2,1,8,-0.015277778,-0.005555556,1,0,0,0.95,rock_grid_rect_2,3,06,-1,-1,0.95,-0.358333333,-0.255555556,1,0,0,5.362,Andesite_rect,1,5.362,0,7,0,7,0,1,,,,,,,,,,,,
5ecc6fb87c7c7646490f3cf8,TCR,2024-06-10_14h59.02.792,LearnStrategy,2023.2.3,Win32,60.0240096,2,1,9,-0.038888889,-0.004166667,1,0,0,0.862,rock_grid_rect_2,1,09,-1,-1,0.862,-0.106944444,-0.25,1,0,0,2.18,Basalt_rect,2,2.18,0,8,0,8,0,1,,,,,,,,,,,,
5ecc6fb87c7c7646490f3cf8,TCR,2024-06-10_14h59.02.792,LearnStrategy,2023.2.3,Win32,60.0240096,2,1,10,-0.038888889,0.0125,1,0,0,0.846,rock_grid_rect_2,4,08,-1,-1,0.846,-0.119444444,-0.243055556,1,0,0,2.75,Basalt_rect,2,2.75,0,9,0,9,0,1,,,,,,,,,,,,
5ecc6fb87c7c7646490f3cf8,TCR,2024-06-10_14h59.02.792,LearnStrategy,2023.2.3,Win32,60.0240096,2,1,11,-0.040277778,0.019444444,1,0,0,0.821,rock_grid_rect_2,6,11,-1,-1,0.821,-0.345833333,-0.398611111,1,0,0,3.826,Obsidian_rect,5,3.826,0,10,0,10,0,1,,,,,,,,,,,,
5ecc6fb87c7c7646490f3cf8,TCR,2024-06-10_14h59.02.792,LearnStrategy,2023.2.3,Win32,60.0240096,2,1,12,-0.029166667,-0.0125,1,0,0,0.902,rock_grid_rect_2,2,05,-1,-1,0.902,0.3625,-0.268055556,1,0,0,3.033,Gabbro_rect,4,3.033,0,11,0,11,0,1,,,,,,,,,,,,
5ecc6fb87c7c7646490f3cf8,TCR,2024-06-10_14h59.02.792,LearnStrategy,2023.2.3,Win32,60.0240096,2,1,13,-0.015277778,-0.002777778,1,0,0,0.753,rock_grid_rect_2,3,11,-1,-1,0.753,0.104166667,-0.231944444,1,0,0,2.582,Diorite_rect,3,2.582,1,12,0,12,0,1,,,,,,,,,,,,
5ecc6fb87c7c7646490f3cf8,TCR,2024-06-10_14h59.02.792,LearnStrategy,2023.2.3,Win32,60.0240096,2,1,14,-0.048611111,-0.011111111,1,0,0,0.854,rock_grid_rect_2,6,12,-1,-1,0.854,-0.379166667,-0.25,1,0,0,4.641,Andesite_rect,1,4.641,0,13,0,13,0,1,,,,,,,,,,,,
5ecc6fb87c7c7646490f3cf8,TCR,2024-06-10_14h59.02.792,LearnStrategy,2023.2.3,Win32,60.0240096,2,1,15,-0.026388889,0,1,0,0,0.896,rock_grid_rect_2,7,02,-1,-1,0.896,0.104166667,-0.245833333,1,0,0,1.907,Diorite_rect,3,1.907,0,14,0,14,0,1,,,,,,,,,,,,
5ecc6fb87c7c7646490f3cf8,TCR,2024-06-10_14h59.02.792,LearnStrategy,2023.2.3,Win32,60.0240096,2,1,16,-0.044444444,0.0125,1,0,0,0.799,rock_grid_rect_2,1,05,-1,-1,0.799,0.093055556,-0.420833333,1,0,0,5.417,Peridotite_rect,7,5.417,0,15,0,15,0,1,,,,,,,,,,,,
5ecc6fb87c7c7646490f3cf8,TCR,2024-06-10_14h59.02.792,LearnStrategy,2023.2.3,Win32,60.0240096,2,2,1,,,,,,,,3,15,,,,,,,,,,,3,5.475,1,,,,,,0.120833333,-0.254166667,1,0,0,5.475,Diorite_rect,0,0,0,0,1
5ecc6fb87c7c7646490f3cf8,TCR,2024-06-10_14h59.02.792,LearnStrategy,2023.2.3,Win32,60.0240096,2,2,2,,,,,,,,6,08,,,,,,,,,,,6,6.201,1,,,,,,-0.093055556,-0.4,1,0,0,6.201,Pegmatite_rect,1,0,1,0,1
5ecc6fb87c7c7646490f3cf8,TCR,2024-06-10_14h59.02.792,LearnStrategy,2023.2.3,Win32,60.0240096,2,2,3,,,,,,,,5,10,,,,,,,,,,,5,1.549,1,,,,,,-0.3625,-0.401388889,1,0,0,1.549,Obsidian_rect,2,0,2,0,1
5ecc6fb87c7c7646490f3cf8,TCR,2024-06-10_14h59.02.792,LearnStrategy,2023.2.3,Win32,60.0240096,2,2,4,,,,,,,,8,16,,,,,,,,,,,8,2.578,1,,,,,,0.340277778,-0.406944444,1,0,0,2.578,Pumice_rect,3,0,3,0,1
5ecc6fb87c7c7646490f3cf8,TCR,2024-06-10_14h59.02.792,LearnStrategy,2023.2.3,Win32,60.0240096,2,2,5,,,,,,,,2,14,,,,,,,,,,,4,4.292,0,,,,,,0.384722222,-0.258333333,1,0,0,4.292,Gabbro_rect,4,0,4,0,1
5ecc6fb87c7c7646490f3cf8,TCR,2024-06-10_14h59.02.792,LearnStrategy,2023.2.3,Win32,60.0240096,2,2,6,,,,,,,,8,08,,,,,,,,,,,8,2.551,1,,,,,,0.411111111,-0.409722222,1,0,0,2.551,Pumice_rect,5,0,5,0,1
5ecc6fb87c7c7646490f3cf8,TCR,2024-06-10_14h59.02.792,LearnStrategy,2023.2.3,Win32,60.0240096,2,2,7,,,,,,,,1,06,,,,,,,,,,,3,3.951,0,,,,,,0.095833333,-0.254166667,1,0,0,3.951,Diorite_rect,6,0,6,0,1
5ecc6fb87c7c7646490f3cf8,TCR,2024-06-10_14h59.02.792,LearnStrategy,2023.2.3,Win32,60.0240096,2,2,8,,,,,,,,6,09,,,,,,,,,,,6,2.722,1,,,,,,-0.101388889,-0.398611111,1,0,0,2.722,Pegmatite_rect,7,0,7,0,1
5ecc6fb87c7c7646490f3cf8,TCR,2024-06-10_14h59.02.792,LearnStrategy,2023.2.3,Win32,60.0240096,2,2,9,,,,,,,,7,13,,,,,,,,,,,7,3.102,1,,,,,,0.140277778,-0.397222222,1,0,0,3.102,Peridotite_rect,8,0,8,0,1
5ecc6fb87c7c7646490f3cf8,TCR,2024-06-10_14h59.02.792,LearnStrategy,2023.2.3,Win32,60.0240096,2,2,10,,,,,,,,7,10,,,,,,,,,,,7,2.403,1,,,,,,0.133333333,-0.398611111,1,0,0,2.403,Peridotite_rect,9,0,9,0,1
5ecc6fb87c7c7646490f3cf8,TCR,2024-06-10_14h59.02.792,LearnStrategy,2023.2.3,Win32,60.0240096,2,2,11,,,,,,,,4,03,,,,,,,,,,,7,2.978,0,,,,,,0.109722222,-0.398611111,1,0,0,2.978,Peridotite_rect,10,0,10,0,1
5ecc6fb87c7c7646490f3cf8,TCR,2024-06-10_14h59.02.792,LearnStrategy,2023.2.3,Win32,60.0240096,2,2,12,,,,,,,,2,02,,,,,,,,,,,2,2.865,1,,,,,,-0.091666667,-0.258333333,1,0,0,2.865,Basalt_rect,11,0,11,0,1
5ecc6fb87c7c7646490f3cf8,TCR,2024-06-10_14h59.02.792,LearnStrategy,2023.2.3,Win32,60.0240096,2,2,13,,,,,,,,5,12,,,,,,,,,,,5,1.404,1,,,,,,-0.393055556,-0.393055556,1,0,0,1.404,Obsidian_rect,12,0,12,0,1
5ecc6fb87c7c7646490f3cf8,TCR,2024-06-10_14h59.02.792,LearnStrategy,2023.2.3,Win32,60.0240096,2,2,14,,,,,,,,3,10,,,,,,,,,,,3,2.791,1,,,,,,0.141666667,-0.25,1,0,0,2.791,Diorite_rect,13,0,13,0,1
5ecc6fb87c7c7646490f3cf8,TCR,2024-06-10_14h59.02.792,LearnStrategy,2023.2.3,Win32,60.0240096,2,2,15,,,,,,,,4,13,,,,,,,,,,,7,3.383,0,,,,,,0.073611111,-0.404166667,1,0,0,3.383,Peridotite_rect,14,0,14,0,1
5ecc6fb87c7c7646490f3cf8,TCR,2024-06-10_14h59.02.792,LearnStrategy,2023.2.3,Win32,60.0240096,2,2,16,,,,,,,,1,04,,,,,,,,,,,8,3.921,0,,,,,,0.351388889,-0.405555556,1,0,0,3.921,Pumice_rect,15,0,15,0,1
5ecc6fb87c7c7646490f3cf8,TCR,2024-06-10_14h59.02.792,LearnStrategy,2023.2.3,Win32,60.0240096,3,1,1,-0.026388889,0.018055556,1,0,0,1.317,rock_grid_rect_2,4,05,-1,-1,1.317,0.098611111,-0.256944444,1,0,0,4.827,Diorite_rect,3,4.827,0,0,0,0,0,1,,,,,,,,,,,,
5ecc6fb87c7c7646490f3cf8,TCR,2024-06-10_14h59.02.792,LearnStrategy,2023.2.3,Win32,60.0240096,3,1,2,-0.027777778,0.001388889,1,0,0,1.051,rock_grid_rect_2,6,11,-1,-1,1.051,-0.127777778,-0.395833333,1,0,0,1.86,Pegmatite_rect,6,1.86,1,1,0,1,0,1,,,,,,,,,,,,
5ecc6fb87c7c7646490f3cf8,TCR,2024-06-10_14h59.02.792,LearnStrategy,2023.2.3,Win32,60.0240096,3,1,3,-0.022222222,0.001388889,1,0,0,0.931,rock_grid_rect_2,1,07,-1,-1,0.931,-0.418055556,-0.254166667,1,0,0,2.312,Andesite_rect,1,2.312,1,2,0,2,0,1,,,,,,,,,,,,
5ecc6fb87c7c7646490f3cf8,TCR,2024-06-10_14h59.02.792,LearnStrategy,2023.2.3,Win32,60.0240096,3,1,4,0.001388889,-0.006944444,1,0,0,0.822,rock_grid_rect_2,3,06,-1,-1,0.822,0.127777778,-0.247222222,1,0,0,1.596,Diorite_rect,3,1.596,1,3,0,3,0,1,,,,,,,,,,,,
5ecc6fb87c7c7646490f3cf8,TCR,2024-06-10_14h59.02.792,LearnStrategy,2023.2.3,Win32,60.0240096,3,1,5,-0.051388889,-0.009722222,1,0,0,0.821,rock_grid_rect_2,7,04,-1,-1,0.821,0.126388889,-0.405555556,1,0,0,2.22,Peridotite_rect,7,2.22,1,4,0,4,0,1,,,,,,,,,,,,
5ecc6fb87c7c7646490f3cf8,TCR,2024-06-10_14h59.02.792,LearnStrategy,2023.2.3,Win32,60.0240096,3,1,6,0.006944444,0.001388889,1,0,0,1.235,rock_grid_rect_2,1,10,-1,-1,1.235,-0.120833333,-0.254166667,1,0,0,2.705,Basalt_rect,2,2.705,0,5,0,5,0,1,,,,,,,,,,,,
5ecc6fb87c7c7646490f3cf8,TCR,2024-06-10_14h59.02.792,LearnStrategy,2023.2.3,Win32,60.0240096,3,1,7,-0.070833333,-0.008333333,1,0,0,0.949,rock_grid_rect_2,4,15,-1,-1,0.949,0.129166667,-0.241666667,1,0,0,2.138,Diorite_rect,3,2.138,0,6,0,6,0,1,,,,,,,,,,,,
5ecc6fb87c7c7646490f3cf8,TCR,2024-06-10_14h59.02.792,LearnStrategy,2023.2.3,Win32,60.0240096,3,1,8,-0.045833333,-0.002777778,1,0,0,0.753,rock_grid_rect_2,7,06,-1,-1,0.753,-0.119444444,-0.401388889,1,0,0,2.099,Pegmatite_rect,6,2.099,0,7,0,7,0,1,,,,,,,,,,,,
5ecc6fb87c7c7646490f3cf8,TCR,2024-06-10_14h59.02.792,LearnStrategy,2023.2.3,Win32,60.0240096,3,1,9,-0.005555556,0.008333333,1,0,0,0.907,rock_grid_rect_2,1,16,-1,-1,0.907,-0.377777778,-0.236111111,1,0,0,2.89,Andesite_rect,1,2.89,1,8,0,8,0,1,,,,,,,,,,,,
5ecc6fb87c7c7646490f3cf8,TCR,2024-06-10_14h59.02.792,LearnStrategy,2023.2.3,Win32,60.0240096,3,1,10,-0.041666667,-0.004166667,1,0,0,0.761,rock_grid_rect_2,8,09,-1,-1,0.761,0.406944444,-0.409722222,1,0,0,1.282,Pumice_rect,8,1.282,1,9,0,9,0,1,,,,,,,,,,,,
5ecc6fb87c7c7646490f3cf8,TCR,2024-06-10_14h59.02.792,LearnStrategy,2023.2.3,Win32,60.0240096,3,1,11,-0.045833333,-0.006944444,1,0,0,0.831,rock_grid_rect_2,3,11,-1,-1,0.831,0.122222222,-0.243055556,1,0,0,2.64,Diorite_rect,3,2.64,1,10,0,10,0,1,,,,,,,,,,,,
5ecc6fb87c7c7646490f3cf8,TCR,2024-06-10_14h59.02.792,LearnStrategy,2023.2.3,Win32,60.0240096,3,1,12,-0.045833333,0.004166667,1,0,0,0.769,rock_grid_rect_2,1,07,-1,-1,0.769,-0.434722222,-0.25,1,0,0,2.129,Andesite_rect,1,2.129,1,11,0,11,0,1,,,,,,,,,,,,
5ecc6fb87c7c7646490f3cf8,TCR,2024-06-10_14h59.02.792,LearnStrategy,2023.2.3,Win32,60.0240096,3,1,13,-0.009722222,0.001388889,1,0,0,1.174,rock_grid_rect_2,6,10,-1,-1,1.174,-0.125,-0.388888889,1,0,0,5.027,Pegmatite_rect,6,5.027,1,12,0,12,0,1,,,,,,,,,,,,
5ecc6fb87c7c7646490f3cf8,TCR,2024-06-10_14h59.02.792,LearnStrategy,2023.2.3,Win32,60.0240096,3,1,14,-0.015277778,0.0125,1,0,0,0.746,rock_grid_rect_2,2,12,-1,-1,0.746,-0.148611111,-0.240277778,1,0,0,3.596,Basalt_rect,2,3.596,1,13,0,13,0,1,,,,,,,,,,,,
5ecc6fb87c7c7646490f3cf8,TCR,2024-06-10_14h59.02.792,LearnStrategy,2023.2.3,Win32,60.0240096,3,1,15,0.015277778,-0.001388889,1,0,0,0.956,rock_grid_rect_2,4,16,-1,-1,0.956,0.395833333,-0.243055556,1,0,0,2.188,Gabbro_rect,4,2.188,1,14,0,14,0,1,,,,,,,,,,,,
5ecc6fb87c7c7646490f3cf8,TCR,2024-06-10_14h59.02.792,LearnStrategy,2023.2.3,Win32,60.0240096,3,1,16,-0.001388889,-0.006944444,1,0,0,0.763,rock_grid_rect_2,2,05,-1,-1,0.763,-0.101388889,-0.240277778,1,0,0,2.091,Basalt_rect,2,2.091,1,15,0,15,0,1,,,,,,,,,,,,
5ecc6fb87c7c7646490f3cf8,TCR,2024-06-10_14h59.02.792,LearnStrategy,2023.2.3,Win32,60.0240096,3,2,1,,,,,,,,5,06,,,,,,,,,,,5,2.306,1,,,,,,-0.3875,-0.398611111,1,0,0,2.306,Obsidian_rect,0,0,0,0,1
5ecc6fb87c7c7646490f3cf8,TCR,2024-06-10_14h59.02.792,LearnStrategy,2023.2.3,Win32,60.0240096,3,2,2,,,,,,,,7,12,,,,,,,,,,,3,4.138,0,,,,,,0.095833333,-0.248611111,1,0,0,4.138,Diorite_rect,1,0,1,0,1
5ecc6fb87c7c7646490f3cf8,TCR,2024-06-10_14h59.02.792,LearnStrategy,2023.2.3,Win32,60.0240096,3,2,3,,,,,,,,3,02,,,,,,,,,,,1,2.742,0,,,,,,-0.402777778,-0.244444444,1,0,0,2.742,Andesite_rect,2,0,2,0,1
5ecc6fb87c7c7646490f3cf8,TCR,2024-06-10_14h59.02.792,LearnStrategy,2023.2.3,Win32,60.0240096,3,2,4,,,,,,,,2,08,,,,,,,,,,,2,1.779,1,,,,,,-0.101388889,-0.25,1,0,0,1.779,Basalt_rect,3,0,3,0,1
5ecc6fb87c7c7646490f3cf8,TCR,2024-06-10_14h59.02.792,LearnStrategy,2023.2.3,Win32,60.0240096,3,2,5,,,,,,,,4,09,,,,,,,,,,,4,2.327,1,,,,,,0.384722222,-0.256944444,1,0,0,2.327,Gabbro_rect,4,0,4,0,1
5ecc6fb87c7c7646490f3cf8,TCR,2024-06-10_14h59.02.792,LearnStrategy,2023.2.3,Win32,60.0240096,3,2,6,,,,,,,,8,10,,,,,,,,,,,8,1.783,1,,,,,,0.376388889,-0.398611111,1,0,0,1.783,Pumice_rect,5,0,5,0,1
5ecc6fb87c7c7646490f3cf8,TCR,2024-06-10_14h59.02.792,LearnStrategy,2023.2.3,Win32,60.0240096,3,2,7,,,,,,,,4,14,,,,,,,,,,,4,2.684,1,,,,,,0.370833333,-0.2375,1,0,0,2.684,Gabbro_rect,6,0,6,0,1
5ecc6fb87c7c7646490f3cf8,TCR,2024-06-10_14h59.02.792,LearnStrategy,2023.2.3,Win32,60.0240096,3,2,8,,,,,,,,1,11,,,,,,,,,,,6,3.269,0,,,,,,-0.104166667,-0.395833333,1,0,0,3.269,Pegmatite_rect,7,0,7,0,1
5ecc6fb87c7c7646490f3cf8,TCR,2024-06-10_14h59.02.792,LearnStrategy,2023.2.3,Win32,60.0240096,3,2,9,,,,,,,,2,04,,,,,,,,,,,2,2.009,1,,,,,,-0.120833333,-0.251388889,1,0,0,2.009,Basalt_rect,8,0,8,0,1
5ecc6fb87c7c7646490f3cf8,TCR,2024-06-10_14h59.02.792,LearnStrategy,2023.2.3,Win32,60.0240096,3,2,10,,,,,,,,6,06,,,,,,,,,,,6,2.601,1,,,,,,-0.120833333,-0.411111111,1,0,0,2.601,Pegmatite_rect,9,0,9,0,1
5ecc6fb87c7c7646490f3cf8,TCR,2024-06-10_14h59.02.792,LearnStrategy,2023.2.3,Win32,60.0240096,3,2,11,,,,,,,,1,01,,,,,,,,,,,1,3.44,1,,,,,,-0.401388889,-0.254166667,1,0,0,3.44,Andesite_rect,10,0,10,0,1
5ecc6fb87c7c7646490f3cf8,TCR,2024-06-10_14h59.02.792,LearnStrategy,2023.2.3,Win32,60.0240096,3,2,12,,,,,,,,3,12,,,,,,,,,,,3,2.498,1,,,,,,0.141666667,-0.254166667,1,0,0,2.498,Diorite_rect,11,0,11,0,1
5ecc6fb87c7c7646490f3cf8,TCR,2024-06-10_14h59.02.792,LearnStrategy,2023.2.3,Win32,60.0240096,3,2,13,,,,,,,,8,04,,,,,,,,,,,8,2.149,1,,,,,,0.405555556,-0.408333333,1,0,0,2.149,Pumice_rect,12,0,12,0,1
5ecc6fb87c7c7646490f3cf8,TCR,2024-06-10_14h59.02.792,LearnStrategy,2023.2.3,Win32,60.0240096,3,2,14,,,,,,,,5,02,,,,,,,,,,,5,1.527,1,,,,,,-0.388888889,-0.398611111,1,0,0,1.527,Obsidian_rect,13,0,13,0,1
5ecc6fb87c7c7646490f3cf8,TCR,2024-06-10_14h59.02.792,LearnStrategy,2023.2.3,Win32,60.0240096,3,2,15,,,,,,,,6,15,,,,,,,,,,,6,1.456,1,,,,,,-0.098611111,-0.401388889,1,0,0,1.456,Pegmatite_rect,14,0,14,0,1
5ecc6fb87c7c7646490f3cf8,TCR,2024-06-10_14h59.02.792,LearnStrategy,2023.2.3,Win32,60.0240096,3,2,16,,,,,,,,7,08,,,,,,,,,,,3,3.513,0,,,,,,0.102777778,-0.241666667,1,0,0,3.513,Diorite_rect,15,0,15,0,1
5ecc6fb87c7c7646490f3cf8,TCR,2024-06-10_14h59.02.792,LearnStrategy,2023.2.3,Win32,60.0240096,4,1,1,-0.120833333,-0.018055556,1,0,0,1.03,rock_grid_rect_2,1,09,-1,-1,1.03,-0.111111111,-0.252777778,1,0,0,4.608,Basalt_rect,2,4.608,0,0,0,0,0,1,,,,,,,,,,,,
5ecc6fb87c7c7646490f3cf8,TCR,2024-06-10_14h59.02.792,LearnStrategy,2023.2.3,Win32,60.0240096,4,1,2,-0.0375,-0.011111111,1,0,0,0.965,rock_grid_rect_2,4,15,-1,-1,0.965,0.119444444,-0.248611111,1,0,0,1.532,Diorite_rect,3,1.532,0,1,0,1,0,1,,,,,,,,,,,,
5ecc6fb87c7c7646490f3cf8,TCR,2024-06-10_14h59.02.792,LearnStrategy,2023.2.3,Win32,60.0240096,4,1,3,-0.051388889,-0.008333333,1,0,0,0.871,rock_grid_rect_2,8,14,-1,-1,0.871,0.454166667,-0.402777778,1,0,0,1.259,Pumice_rect,8,1.259,1,2,0,2,0,1,,,,,,,,,,,,
5ecc6fb87c7c7646490f3cf8,TCR,2024-06-10_14h59.02.792,LearnStrategy,2023.2.3,Win32,60.0240096,4,1,4,0.018055556,-0.005555556,1,0,0,0.815,rock_grid_rect_2,7,05,-1,-1,0.815,0.123611111,-0.251388889,1,0,0,2.463,Diorite_rect,3,2.463,0,3,0,3,0,1,,,,,,,,,,,,
5ecc6fb87c7c7646490f3cf8,TCR,2024-06-10_14h59.02.792,LearnStrategy,2023.2.3,Win32,60.0240096,4,1,5,-0.020833333,0.004166667,1,0,0,0.911,rock_grid_rect_2,1,10,-1,-1,0.911,-0.118055556,-0.245833333,1,0,0,3.114,Basalt_rect,2,3.114,0,4,0,4,0,1,,,,,,,,,,,,
5ecc6fb87c7c7646490f3cf8,TCR,2024-06-10_14h59.02.792,LearnStrategy,2023.2.3,Win32,60.0240096,4,1,6,-0.058333333,-0.004166667,1,0,0,0.933,rock_grid_rect_2,3,14,-1,-1,0.933,-0.408333333,-0.259722222,1,0,0,4.111,Andesite_rect,1,4.111,0,5,0,5,0,1,,,,,,,,,,,,
5ecc6fb87c7c7646490f3cf8,TCR,2024-06-10_14h59.02.792,LearnStrategy,2023.2.3,Win32,60.0240096,4,1,7,0.056944444,0,1,0,0,0.761,rock_grid_rect_2,7,02,-1,-1,0.761,0.134722222,-0.236111111,1,0,0,1.581,Diorite_rect,3,1.581,0,6,0,6,0,1,,,,,,,,,,,,
5ecc6fb87c7c7646490f3cf8,TCR,2024-06-10_14h59.02.792,LearnStrategy,2023.2.3,Win32,60.0240096,4,1,8,0.018055556,-0.009722222,1,0,0,0.841,rock_grid_rect_2,3,09,-1,-1,0.841,-0.354166667,-0.238888889,1,0,0,3.17,Andesite_rect,1,3.17,0,7,0,7,0,1,,,,,,,,,,,,
5ecc6fb87c7c7646490f3cf8,TCR,2024-06-10_14h59.02.792,LearnStrategy,2023.2.3,Win32,60.0240096,4,1,9,0.065277778,0.015277778,1,0,0,0.701,rock_grid_rect_2,5,14,-1,-1,0.701,-0.420833333,-0.391666667,1,0,0,1.643,Obsidian_rect,5,1.643,1,8,0,8,0,1,,,,,,,,,,,,
5ecc6fb87c7c7646490f3cf8,TCR,2024-06-10_14h59.02.792,LearnStrategy,2023.2.3,Win32,60.0240096,4,1,10,-0.004166667,0.022222222,1,0,0,0.777,rock_grid_rect_2,1,10,-1,-1,0.777,-0.370833333,-0.245833333,1,0,0,2.867,Andesite_rect,1,2.867,1,9,0,9,0,1,,,,,,,,,,,,
5ecc6fb87c7c7646490f3cf8,TCR,2024-06-10_14h59.02.792,LearnStrategy,2023.2.3,Win32,60.0240096,4,1,11,0.004166667,0.001388889,1,0,0,0.736,rock_grid_rect_2,4,11,-1,-1,0.736,-0.122222222,-0.233333333,1,0,0,2.249,Basalt_rect,2,2.249,0,10,0,10,0,1,,,,,,,,,,,,
5ecc6fb87c7c7646490f3cf8,TCR,2024-06-10_14h59.02.792,LearnStrategy,2023.2.3,Win32,60.0240096,4,1,12,0.023611111,-0.009722222,1,0,0,0.716,rock_grid_rect_2,2,11,-1,-1,0.716,-0.134722222,-0.261111111,1,0,0,2.272,Basalt_rect,2,2.272,1,11,0,11,0,1,,,,,,,,,,,,
5ecc6fb87c7c7646490f3cf8,TCR,2024-06-10_14h59.02.792,LearnStrategy,2023.2.3,Win32,60.0240096,4,1,13,-0.029166667,0.004166667,1,0,0,0.822,rock_grid_rect_2,6,12,-1,-1,0.822,-0.118055556,-0.393055556,1,0,0,1.424,Pegmatite_rect,6,1.424,1,12,0,12,0,1,,,,,,,,,,,,
5ecc6fb87c7c7646490f3cf8,TCR,2024-06-10_14h59.02.792,LearnStrategy,2023.2.3,Win32,60.0240096,4,1,14,-0.013888889,0.001388889,1,0,0,0.788,rock_grid_rect_2,7,14,-1,-1,0.788,0.081944444,-0.259722222,1,0,0,3.495,Diorite_rect,3,3.495,0,13,0,13,0,1,,,,,,,,,,,,
5ecc6fb87c7c7646490f3cf8,TCR,2024-06-10_14h59.02.792,LearnStrategy,2023.2.3,Win32,60.0240096,4,1,15,0.029166667,-0.008333333,1,0,0,1.028,rock_grid_rect_2,2,16,-1,-1,1.028,0.444444444,-0.248611111,1,0,0,2.888,Gabbro_rect,4,2.888,0,14,0,14,0,1,,,,,,,,,,,,
5ecc6fb87c7c7646490f3cf8,TCR,2024-06-10_14h59.02.792,LearnStrategy,2023.2.3,Win32,60.0240096,4,1,16,0.027777778,-0.015277778,1,0,0,0.818,rock_grid_rect_2,3,06,-1,-1,0.818,0.122222222,-0.243055556,1,0,0,1.609,Diorite_rect,3,1.609,1,15,0,15,0,1,,,,,,,,,,,,
5ecc6fb87c7c7646490f3cf8,TCR,2024-06-10_14h59.02.792,LearnStrategy,2023.2.3,Win32,60.0240096,4,2,1,,,,,,,,1,11,,,,,,,,,,,6,3.815,0,,,,,,-0.123611111,-0.390277778,1,0,0,3.815,Pegmatite_rect,0,0,0,0,1
5ecc6fb87c7c7646490f3cf8,TCR,2024-06-10_14h59.02.792,LearnStrategy,2023.2.3,Win32,60.0240096,4,2,2,,,,,,,,3,16,,,,,,,,,,,3,5.648,1,,,,,,0.1,-0.241666667,1,0,0,5.648,Diorite_rect,1,0,1,0,1
5ecc6fb87c7c7646490f3cf8,TCR,2024-06-10_14h59.02.792,LearnStrategy,2023.2.3,Win32,60.0240096,4,2,3,,,,,,,,8,10,,,,,,,,,,,8,1.75,1,,,,,,0.406944444,-0.409722222,1,0,0,1.75,Pumice_rect,2,0,2,0,1
5ecc6fb87c7c7646490f3cf8,TCR,2024-06-10_14h59.02.792,LearnStrategy,2023.2.3,Win32,60.0240096,4,2,4,,,,,,,,6,08,,,,,,,,,,,6,1.368,1,,,,,,-0.148611111,-0.393055556,1,0,0,1.368,Pegmatite_rect,3,0,3,0,1
5ecc6fb87c7c7646490f3cf8,TCR,2024-06-10_14h59.02.792,LearnStrategy,2023.2.3,Win32,60.0240096,4,2,5,,,,,,,,7,08,,,,,,,,,,,1,4.433,0,,,,,,-0.370833333,-0.236111111,1,0,0,4.433,Andesite_rect,4,0,4,0,1
5ecc6fb87c7c7646490f3cf8,TCR,2024-06-10_14h59.02.792,LearnStrategy,2023.2.3,Win32,60.0240096,4,2,6,,,,,,,,5,10,,,,,,,,,,,5,1.377,1,,,,,,-0.365277778,-0.386111111,1,0,0,1.377,Obsidian_rect,5,0,5,0,1
5ecc6fb87c7c7646490f3cf8,TCR,2024-06-10_14h59.02.792,LearnStrategy,2023.2.3,Win32,60.0240096,4,2,7,,,,,,,,2,04,,,,,,,,,,,2,2.438,1,,,,,,-0.143055556,-0.252777778,1,0,0,2.438,Basalt_rect,6,0,6,0,1
5ecc6fb87c7c7646490f3cf8,TCR,2024-06-10_14h59.02.792,LearnStrategy,2023.2.3,Win32,60.0240096,4,2,8,,,,,,,,4,14,,,,,,,,,,,4,2.078,1,,,,,,0.443055556,-0.2625,1,0,0,2.078,Gabbro_rect,7,0,7,0,1
5ecc6fb87c7c7646490f3cf8,TCR,2024-06-10_14h59.02.792,LearnStrategy,2023.2.3,Win32,60.0240096,4,2,9,,,,,,,,6,07,,,,,,,,,,,6,1.409,1,,,,,,-0.111111111,-0.408333333,1,0,0,1.409,Pegmatite_rect,8,0,8,0,1
5ecc6fb87c7c7646490f3cf8,TCR,2024-06-10_14h59.02.792,LearnStrategy,2023.2.3,Win32,60.0240096,4,2,10,,,,,,,,8,03,,,,,,,,,,,8,1.532,1,,,,,,0.393055556,-0.405555556,1,0,0,1.532,Pumice_rect,9,0,9,0,1
5ecc6fb87c7c7646490f3cf8,TCR,2024-06-10_14h59.02.792,LearnStrategy,2023.2.3,Win32,60.0240096,4,2,11,,,,,,,,3,02,,,,,,,,,,,1,3.703,0,,,,,,-0.420833333,-0.254166667,1,0,0,3.703,Andesite_rect,10,0,10,0,1
5ecc6fb87c7c7646490f3cf8,TCR,2024-06-10_14h59.02.792,LearnStrategy,2023.2.3,Win32,60.0240096,4,2,12,,,,,,,,4,03,,,,,,,,,,,3,2.213,0,,,,,,0.131944444,-0.258333333,1,0,0,2.213,Diorite_rect,11,0,11,0,1
5ecc6fb87c7c7646490f3cf8,TCR,2024-06-10_14h59.02.792,LearnStrategy,2023.2.3,Win32,60.0240096,4,2,13,,,,,,,,1,01,,,,,,,,,,,4,2.417,0,,,,,,0.386111111,-0.263888889,1,0,0,2.417,Gabbro_rect,12,0,12,0,1
5ecc6fb87c7c7646490f3cf8,TCR,2024-06-10_14h59.02.792,LearnStrategy,2023.2.3,Win32,60.0240096,4,2,14,,,,,,,,5,06,,,,,,,,,,,5,1.588,1,,,,,,-0.370833333,-0.401388889,1,0,0,1.588,Obsidian_rect,13,0,13,0,1
5ecc6fb87c7c7646490f3cf8,TCR,2024-06-10_14h59.02.792,LearnStrategy,2023.2.3,Win32,60.0240096,4,2,15,,,,,,,,2,09,,,,,,,,,,,2,1.917,1,,,,,,-0.095833333,-0.252777778,1,0,0,1.917,Basalt_rect,14,0,14,0,1
5ecc6fb87c7c7646490f3cf8,TCR,2024-06-10_14h59.02.792,LearnStrategy,2023.2.3,Win32,60.0240096,4,2,16,,,,,,,,7,13,,,,,,,,,,,7,3.9,1,,,,,,0.109722222,-0.402777778,1,0,0,3.9,Peridotite_rect,15,0,15,0,1
5ecc6fb87c7c7646490f3cf8,TCR,2024-06-10_14h59.02.792,LearnStrategy,2023.2.3,Win32,60.0240096,5,1,1,-0.0125,-0.001388889,1,0,0,0.992,rock_grid_rect_2,4,15,-1,-1,0.992,0.384722222,-0.25,1,0,0,2.579,Gabbro_rect,4,2.579,1,0,0,0,0,1,,,,,,,,,,,,
5ecc6fb87c7c7646490f3cf8,TCR,2024-06-10_14h59.02.792,LearnStrategy,2023.2.3,Win32,60.0240096,5,1,2,0.048611111,-0.009722222,1,0,0,1.208,rock_grid_rect_2,2,06,-1,-1,1.208,-0.105555556,-0.254166667,1,0,0,1.367,Basalt_rect,2,1.367,1,1,0,1,0,1,,,,,,,,,,,,
5ecc6fb87c7c7646490f3cf8,TCR,2024-06-10_14h59.02.792,LearnStrategy,2023.2.3,Win32,60.0240096,5,1,3,0.055555556,-0.002777778,1,0,0,0.987,rock_grid_rect_2,7,07,-1,-1,0.987,-0.368055556,-0.241666667,1,0,0,3.121,Andesite_rect,1,3.121,0,2,0,2,0,1,,,,,,,,,,,,
5ecc6fb87c7c7646490f3cf8,TCR,2024-06-10_14h59.02.792,LearnStrategy,2023.2.3,Win32,60.0240096,5,1,4,0.0125,0.006944444,1,0,0,1.03,rock_grid_rect_2,3,13,-1,-1,1.03,0.123611111,-0.247222222,1,0,0,2.07,Diorite_rect,3,2.07,1,3,0,3,0,1,,,,,,,,,,,,
5ecc6fb87c7c7646490f3cf8,TCR,2024-06-10_14h59.02.792,LearnStrategy,2023.2.3,Win32,60.0240096,5,1,5,0.025,-0.011111111,1,0,0,0.697,rock_grid_rect_2,1,10,-1,-1,0.697,-0.370833333,-0.241666667,1,0,0,4.025,Andesite_rect,1,4.025,1,4,0,4,0,1,,,,,,,,,,,,
5ecc6fb87c7c7646490f3cf8,TCR,2024-06-10_14h59.02.792,LearnStrategy,2023.2.3,Win32,60.0240096,5,1,6,0.018055556,-0.005555556,1,0,0,0.97,rock_grid_rect_2,6,11,-1,-1,0.97,-0.156944444,-0.390277778,1,0,0,1.146,Pegmatite_rect,6,1.146,1,5,0,5,0,1,,,,,,,,,,,,
5ecc6fb87c7c7646490f3cf8,TCR,2024-06-10_14h59.02.792,LearnStrategy,2023.2.3,Win32,60.0240096,5,1,7,-0.043055556,0.004166667,1,0,0,0.866,rock_grid_rect_2,1,05,-1,-1,0.866,0.106944444,-0.247222222,1,0,0,2.018,Diorite_rect,3,2.018,0,6,0,6,0,1,,,,,,,,,,,,
5ecc6fb87c7c7646490f3cf8,TCR,2024-06-10_14h59.02.792,LearnStrategy,2023.2.3,Win32,60.0240096,5,1,8,-0.081944444,-0.006944444,1,0,0,0.958,rock_grid_rect_2,3,11,-1,-1,0.958,0.126388889,-0.245833333,1,0,0,3.495,Diorite_rect,3,3.495,1,7,0,7,0,1,,,,,,,,,,,,
5ecc6fb87c7c7646490f3cf8,TCR,2024-06-10_14h59.02.792,LearnStrategy,2023.2.3,Win32,60.0240096,5,1,9,-0.006944444,0.001388889,1,0,0,0.74,rock_grid_rect_2,4,15,-1,-1,0.74,0.395833333,-0.243055556,1,0,0,1.436,Gabbro_rect,4,1.436,1,8,0,8,0,1,,,,,,,,,,,,
5ecc6fb87c7c7646490f3cf8,TCR,2024-06-10_14h59.02.792,LearnStrategy,2023.2.3,Win32,60.0240096,5,1,10,-0.023611111,0.011111111,1,0,0,1.005,rock_grid_rect_2,7,04,-1,-1,1.005,0.126388889,-0.395833333,1,0,0,1.725,Peridotite_rect,7,1.725,1,9,0,9,0,1,,,,,,,,,,,,
5ecc6fb87c7c7646490f3cf8,TCR,2024-06-10_14h59.02.792,LearnStrategy,2023.2.3,Win32,60.0240096,5,1,11,0.023611111,0.004166667,1,0,0,0.8,rock_grid_rect_2,8,02,-1,-1,0.8,0.3625,-0.4125,1,0,0,1.798,Pumice_rect,8,1.798,1,10,0,10,0,1,,,,,,,,,,,,
5ecc6fb87c7c7646490f3cf8,TCR,2024-06-10_14h59.02.792,LearnStrategy,2023.2.3,Win32,60.0240096,5,1,12,-0.016666667,0.006944444,1,0,0,0.744,rock_grid_rect_2,3,11,-1,-1,0.744,0.127777778,-0.269444444,1,0,0,2.396,Diorite_rect,3,2.396,1,11,0,11,0,1,,,,,,,,,,,,
5ecc6fb87c7c7646490f3cf8,TCR,2024-06-10_14h59.02.792,LearnStrategy,2023.2.3,Win32,60.0240096,5,1,13,-0.031944444,-0.004166667,1,0,0,0.721,rock_grid_rect_2,1,14,-1,-1,0.721,-0.095833333,-0.405555556,1,0,0,2.139,Pegmatite_rect,6,2.139,0,12,0,12,0,1,,,,,,,,,,,,
5ecc6fb87c7c7646490f3cf8,TCR,2024-06-10_14h59.02.792,LearnStrategy,2023.2.3,Win32,60.0240096,5,1,14,-0.0625,-0.004166667,1,0,0,0.875,rock_grid_rect_2,1,07,-1,-1,0.875,-0.3875,-0.245833333,1,0,0,2.103,Andesite_rect,1,2.103,1,13,0,13,0,1,,,,,,,,,,,,
5ecc6fb87c7c7646490f3cf8,TCR,2024-06-10_14h59.02.792,LearnStrategy,2023.2.3,Win32,60.0240096,5,1,15,-0.004166667,0.009722222,1,0,0,0.965,rock_grid_rect_2,7,14,-1,-1,0.965,-0.390277778,-0.245833333,1,0,0,3.132,Andesite_rect,1,3.132,0,14,0,14,0,1,,,,,,,,,,,,
5ecc6fb87c7c7646490f3cf8,TCR,2024-06-10_14h59.02.792,LearnStrategy,2023.2.3,Win32,60.0240096,5,1,16,-0.018055556,0.0125,1,0,0,0.756,rock_grid_rect_2,5,09,-1,-1,0.756,-0.384722222,-0.398611111,1,0,0,1.219,Obsidian_rect,5,1.219,1,15,0,15,0,1,,,,,,,,,,,,
5ecc6fb87c7c7646490f3cf8,TCR,2024-06-10_14h59.02.792,LearnStrategy,2023.2.3,Win32,60.0240096,5,2,1,,,,,,,,8,06,,,,,,,,,,,8,1.33,1,,,,,,0.413888889,-0.398611111,1,0,0,1.33,Pumice_rect,0,0,0,0,1
5ecc6fb87c7c7646490f3cf8,TCR,2024-06-10_14h59.02.792,LearnStrategy,2023.2.3,Win32,60.0240096,5,2,2,,,,,,,,1,04,,,,,,,,,,,7,3.846,0,,,,,,0.118055556,-0.402777778,1,0,0,3.846,Peridotite_rect,1,0,1,0,1
5ecc6fb87c7c7646490f3cf8,TCR,2024-06-10_14h59.02.792,LearnStrategy,2023.2.3,Win32,60.0240096,5,2,3,,,,,,,,3,15,,,,,,,,,,,3,2.494,1,,,,,,0.118055556,-0.251388889,1,0,0,2.494,Diorite_rect,2,0,2,0,1
5ecc6fb87c7c7646490f3cf8,TCR,2024-06-10_14h59.02.792,LearnStrategy,2023.2.3,Win32,60.0240096,5,2,4,,,,,,,,4,10,,,,,,,,,,,2,2.998,0,,,,,,-0.127777778,-0.241666667,1,0,0,2.998,Basalt_rect,3,0,3,0,1
5ecc6fb87c7c7646490f3cf8,TCR,2024-06-10_14h59.02.792,LearnStrategy,2023.2.3,Win32,60.0240096,5,2,5,,,,,,,,6,15,,,,,,,,,,,6,1.269,1,,,,,,-0.125,-0.390277778,1,0,0,1.269,Pegmatite_rect,4,0,4,0,1
5ecc6fb87c7c7646490f3cf8,TCR,2024-06-10_14h59.02.792,LearnStrategy,2023.2.3,Win32,60.0240096,5,2,6,,,,,,,,8,16,,,,,,,,,,,8,1.627,1,,,,,,0.426388889,-0.404166667,1,0,0,1.627,Pumice_rect,5,0,5,0,1
5ecc6fb87c7c7646490f3cf8,TCR,2024-06-10_14h59.02.792,LearnStrategy,2023.2.3,Win32,60.0240096,5,2,7,,,,,,,,2,08,,,,,,,,,,,2,1.644,1,,,,,,-0.111111111,-0.243055556,1,0,0,1.644,Basalt_rect,6,0,6,0,1
5ecc6fb87c7c7646490f3cf8,TCR,2024-06-10_14h59.02.792,LearnStrategy,2023.2.3,Win32,60.0240096,5,2,8,,,,,,,,7,12,,,,,,,,,,,1,1.951,0,,,,,,-0.408333333,-0.256944444,1,0,0,1.951,Andesite_rect,7,0,7,0,1
5ecc6fb87c7c7646490f3cf8,TCR,2024-06-10_14h59.02.792,LearnStrategy,2023.2.3,Win32,60.0240096,5,2,9,,,,,,,,6,16,,,,,,,,,,,6,1.54,1,,,,,,-0.093055556,-0.393055556,1,0,0,1.54,Pegmatite_rect,8,0,8,0,1
5ecc6fb87c7c7646490f3cf8,TCR,2024-06-10_14h59.02.792,LearnStrategy,2023.2.3,Win32,60.0240096,5,2,10,,,,,,,,2,02,,,,,,,,,,,2,2.059,1,,,,,,-0.081944444,-0.248611111,1,0,0,2.059,Basalt_rect,9,0,9,0,1
5ecc6fb87c7c7646490f3cf8,TCR,2024-06-10_14h59.02.792,LearnStrategy,2023.2.3,Win32,60.0240096,5,2,11,,,,,,,,7,10,,,,,,,,,,,3,2.563,0,,,,,,0.156944444,-0.256944444,1,0,0,2.563,Diorite_rect,10,0,10,0,1
5ecc6fb87c7c7646490f3cf8,TCR,2024-06-10_14h59.02.792,LearnStrategy,2023.2.3,Win32,60.0240096,5,2,12,,,,,,,,4,09,,,,,,,,,,,4,2.734,1,,,,,,0.423611111,-0.252777778,1,0,0,2.734,Gabbro_rect,11,0,11,0,1
5ecc6fb87c7c7646490f3cf8,TCR,2024-06-10_14h59.02.792,LearnStrategy,2023.2.3,Win32,60.0240096,5,2,13,,,,,,,,5,12,,,,,,,,,,,5,1.357,1,,,,,,-0.363888889,-0.404166667,1,0,0,1.357,Obsidian_rect,12,0,12,0,1
5ecc6fb87c7c7646490f3cf8,TCR,2024-06-10_14h59.02.792,LearnStrategy,2023.2.3,Win32,60.0240096,5,2,14,,,,,,,,3,10,,,,,,,,,,,3,4.029,1,,,,,,0.168055556,-0.243055556,1,0,0,4.029,Diorite_rect,13,0,13,0,1
5ecc6fb87c7c7646490f3cf8,TCR,2024-06-10_14h59.02.792,LearnStrategy,2023.2.3,Win32,60.0240096,5,2,15,,,,,,,,1,02,,,,,,,,,,,6,3.155,0,,,,,,-0.098611111,-0.397222222,1,0,0,3.155,Pegmatite_rect,14,0,14,0,1
5ecc6fb87c7c7646490f3cf8,TCR,2024-06-10_14h59.02.792,LearnStrategy,2023.2.3,Win32,60.0240096,5,2,16,,,,,,,,5,02,,,,,,,,,,,5,1.871,1,,,,,,-0.418055556,-0.401388889,1,0,0,1.871,Obsidian_rect,15,0,15,0,1
5ecc6fb87c7c7646490f3cf8,TCR,2024-06-10_14h59.02.792,LearnStrategy,2023.2.3,Win32,60.0240096,6,1,1,-0.052777778,-0.004166667,1,0,0,1.189,rock_grid_rect_2,7,04,-1,-1,1.189,0.130555556,-0.4,1,0,0,1.461,Peridotite_rect,7,1.461,1,0,0,0,0,1,,,,,,,,,,,,
5ecc6fb87c7c7646490f3cf8,TCR,2024-06-10_14h59.02.792,LearnStrategy,2023.2.3,Win32,60.0240096,6,1,2,0.004166667,0.006944444,1,0,0,1.037,rock_grid_rect_2,1,14,-1,-1,1.037,-0.425,-0.254166667,1,0,0,2.172,Andesite_rect,1,2.172,1,1,0,1,0,1,,,,,,,,,,,,
5ecc6fb87c7c7646490f3cf8,TCR,2024-06-10_14h59.02.792,LearnStrategy,2023.2.3,Win32,60.0240096,6,1,3,-0.015277778,-0.008333333,1,0,0,0.872,rock_grid_rect_2,6,03,-1,-1,0.872,-0.126388889,-0.404166667,1,0,0,1.304,Pegmatite_rect,6,1.304,1,2,0,2,0,1,,,,,,,,,,,,
5ecc6fb87c7c7646490f3cf8,TCR,2024-06-10_14h59.02.792,LearnStrategy,2023.2.3,Win32,60.0240096,6,1,4,-0.015277778,-0.009722222,1,0,0,0.648,rock_grid_rect_2,4,05,-1,-1,0.648,0.377777778,-0.268055556,1,0,0,1.541,Gabbro_rect,4,1.541,1,3,0,3,0,1,,,,,,,,,,,,
5ecc6fb87c7c7646490f3cf8,TCR,2024-06-10_14h59.02.792,LearnStrategy,2023.2.3,Win32,60.0240096,6,1,5,0.026388889,0.001388889,1,0,0,0.762,rock_grid_rect_2,1,10,-1,-1,0.762,-0.438888889,-0.252777778,1,0,0,1.347,Andesite_rect,1,1.347,1,4,0,4,0,1,,,,,,,,,,,,
5ecc6fb87c7c7646490f3cf8,TCR,2024-06-10_14h59.02.792,LearnStrategy,2023.2.3,Win32,60.0240096,6,1,6,-0.0125,0.004166667,1,0,0,0.769,rock_grid_rect_2,1,10,-1,-1,0.769,-0.3875,-0.258333333,1,0,0,1.105,Andesite_rect,1,1.105,1,5,0,5,0,1,,,,,,,,,,,,
5ecc6fb87c7c7646490f3cf8,TCR,2024-06-10_14h59.02.792,LearnStrategy,2023.2.3,Win32,60.0240096,6,1,7,0.008333333,-0.005555556,1,0,0,0.684,rock_grid_rect_2,1,14,-1,-1,0.684,-0.404166667,-0.248611111,1,0,0,1.445,Andesite_rect,1,1.445,1,6,0,6,0,1,,,,,,,,,,,,
5ecc6fb87c7c7646490f3cf8,TCR,2024-06-10_14h59.02.792,LearnStrategy,2023.2.3,Win32,60.0240096,6,1,8,-0.018055556,0.005555556,1,0,0,0.697,rock_grid_rect_2,4,12,-1,-1,0.697,-0.129166667,-0.231944444,1,0,0,1.476,Basalt_rect,2,1.476,0,7,0,7,0,1,,,,,,,,,,,,
5ecc6fb87c7c7646490f3cf8,TCR,2024-06-10_14h59.02.792,LearnStrategy,2023.2.3,Win32,60.0240096,6,1,9,0.018055556,0.004166667,1,0,0,0.74,rock_grid_rect_2,7,14,-1,-1,0.74,0.118055556,-0.251388889,1,0,0,2.885,Diorite_rect,3,2.885,0,8,0,8,0,1,,,,,,,,,,,,
5ecc6fb87c7c7646490f3cf8,TCR,2024-06-10_14h59.02.792,LearnStrategy,2023.2.3,Win32,60.0240096,6,1,10,0.006944444,0.011111111,1,0,0,0.658,rock_grid_rect_2,4,08,-1,-1,0.658,-0.438888889,-0.243055556,1,0,0,3.051,Andesite_rect,1,3.051,0,9,0,9,0,1,,,,,,,,,,,,
5ecc6fb87c7c7646490f3cf8,TCR,2024-06-10_14h59.02.792,LearnStrategy,2023.2.3,Win32,60.0240096,6,1,11,-0.015277778,0,1,0,0,1.115,rock_grid_rect_2,8,14,-1,-1,1.115,0.4125,-0.3875,1,0,0,2.276,Pumice_rect,8,2.276,1,10,0,10,0,1,,,,,,,,,,,,
5ecc6fb87c7c7646490f3cf8,TCR,2024-06-10_14h59.02.792,LearnStrategy,2023.2.3,Win32,60.0240096,6,1,12,-0.0375,-0.001388889,1,0,0,1.324,rock_grid_rect_2,5,14,-1,-1,1.324,-0.370833333,-0.404166667,1,0,0,1.209,Obsidian_rect,5,1.209,1,11,0,11,0,1,,,,,,,,,,,,
5ecc6fb87c7c7646490f3cf8,TCR,2024-06-10_14h59.02.792,LearnStrategy,2023.2.3,Win32,60.0240096,6,1,13,-0.031944444,0.005555556,1,0,0,1.024,rock_grid_rect_2,7,02,-1,-1,1.024,0.098611111,-0.404166667,1,0,0,1.88,Peridotite_rect,7,1.88,1,12,0,12,0,1,,,,,,,,,,,,
5ecc6fb87c7c7646490f3cf8,TCR,2024-06-10_14h59.02.792,LearnStrategy,2023.2.3,Win32,60.0240096,6,1,14,0.030555556,0.023611111,1,0,0,0.642,rock_grid_rect_2,3,06,-1,-1,0.642,0.138888889,-0.254166667,1,0,0,2.049,Diorite_rect,3,2.049,1,13,0,13,0,1,,,,,,,,,,,,
5ecc6fb87c7c7646490f3cf8,TCR,2024-06-10_14h59.02.792,LearnStrategy,2023.2.3,Win32,60.0240096,6,1,15,0.026388889,-0.008333333,1,0,0,0.857,rock_grid_rect_2,7,05,-1,-1,0.857,-0.370833333,-0.25,1,0,0,4.248,Andesite_rect,1,4.248,0,14,0,14,0,1,,,,,,,,,,,,
5ecc6fb87c7c7646490f3cf8,TCR,2024-06-10_14h59.02.792,LearnStrategy,2023.2.3,Win32,60.0240096,6,1,16,-0.034722222,-0.009722222,1,0,0,0.802,rock_grid_rect_2,3,13,-1,-1,0.802,0.088888889,-0.247222222,1,0,0,2.945,Diorite_rect,3,2.945,1,15,0,15,0,1,,,,,,,,,,,,
5ecc6fb87c7c7646490f3cf8,TCR,2024-06-10_14h59.02.792,LearnStrategy,2023.2.3,Win32,60.0240096,6,2,1,,,,,,,,6,09,,,,,,,,,,,6,1.331,1,,,,,,-0.136111111,-0.397222222,1,0,0,1.331,Pegmatite_rect,0,0,0,0,1
5ecc6fb87c7c7646490f3cf8,TCR,2024-06-10_14h59.02.792,LearnStrategy,2023.2.3,Win32,60.0240096,6,2,2,,,,,,,,4,13,,,,,,,,,,,4,3.399,1,,,,,,0.384722222,-0.248611111,1,0,0,3.399,Gabbro_rect,1,0,1,0,1
5ecc6fb87c7c7646490f3cf8,TCR,2024-06-10_14h59.02.792,LearnStrategy,2023.2.3,Win32,60.0240096,6,2,3,,,,,,,,1,03,,,,,,,,,,,3,3.33,0,,,,,,0.118055556,-0.259722222,1,0,0,3.33,Diorite_rect,2,0,2,0,1
5ecc6fb87c7c7646490f3cf8,TCR,2024-06-10_14h59.02.792,LearnStrategy,2023.2.3,Win32,60.0240096,6,2,4,,,,,,,,5,11,,,,,,,,,,,5,1.491,1,,,,,,-0.398611111,-0.390277778,1,0,0,1.491,Obsidian_rect,3,0,3,0,1
5ecc6fb87c7c7646490f3cf8,TCR,2024-06-10_14h59.02.792,LearnStrategy,2023.2.3,Win32,60.0240096,6,2,5,,,,,,,,7,15,,,,,,,,,,,7,4.263,1,,,,,,0.108333333,-0.398611111,1,0,0,4.263,Peridotite_rect,4,0,4,0,1
5ecc6fb87c7c7646490f3cf8,TCR,2024-06-10_14h59.02.792,LearnStrategy,2023.2.3,Win32,60.0240096,6,2,6,,,,,,,,4,01,,,,,,,,,,,4,3.703,1,,,,,,0.377777778,-0.2375,1,0,0,3.703,Gabbro_rect,5,0,5,0,1
5ecc6fb87c7c7646490f3cf8,TCR,2024-06-10_14h59.02.792,LearnStrategy,2023.2.3,Win32,60.0240096,6,2,7,,,,,,,,7,16,,,,,,,,,,,7,1.821,1,,,,,,0.115277778,-0.393055556,1,0,0,1.821,Peridotite_rect,6,0,6,0,1
5ecc6fb87c7c7646490f3cf8,TCR,2024-06-10_14h59.02.792,LearnStrategy,2023.2.3,Win32,60.0240096,6,2,8,,,,,,,,1,06,,,,,,,,,,,7,2.263,0,,,,,,0.113888889,-0.395833333,1,0,0,2.263,Peridotite_rect,7,0,7,0,1
5ecc6fb87c7c7646490f3cf8,TCR,2024-06-10_14h59.02.792,LearnStrategy,2023.2.3,Win32,60.0240096,6,2,9,,,,,,,,6,06,,,,,,,,,,,6,1.295,1,,,,,,-0.161111111,-0.404166667,1,0,0,1.295,Pegmatite_rect,8,0,8,0,1
5ecc6fb87c7c7646490f3cf8,TCR,2024-06-10_14h59.02.792,LearnStrategy,2023.2.3,Win32,60.0240096,6,2,10,,,,,,,,8,04,,,,,,,,,,,8,1.469,1,,,,,,0.409722222,-0.398611111,1,0,0,1.469,Pumice_rect,9,0,9,0,1
5ecc6fb87c7c7646490f3cf8,TCR,2024-06-10_14h59.02.792,LearnStrategy,2023.2.3,Win32,60.0240096,6,2,11,,,,,,,,2,01,,,,,,,,,,,2,2.7,1,,,,,,-0.131944444,-0.247222222,1,0,0,2.7,Basalt_rect,10,0,10,0,1
5ecc6fb87c7c7646490f3cf8,TCR,2024-06-10_14h59.02.792,LearnStrategy,2023.2.3,Win32,60.0240096,6,2,12,,,,,,,,8,08,,,,,,,,,,,8,1.33,1,,,,,,0.427777778,-0.404166667,1,0,0,1.33,Pumice_rect,11,0,11,0,1
5ecc6fb87c7c7646490f3cf8,TCR,2024-06-10_14h59.02.792,LearnStrategy,2023.2.3,Win32,60.0240096,6,2,13,,,,,,,,3,12,,,,,,,,,,,4,5.344,0,,,,,,0.376388889,-0.25,1,0,0,5.344,Gabbro_rect,12,0,12,0,1
5ecc6fb87c7c7646490f3cf8,TCR,2024-06-10_14h59.02.792,LearnStrategy,2023.2.3,Win32,60.0240096,6,2,14,,,,,,,,3,07,,,,,,,,,,,3,2.443,1,,,,,,0.144444444,-0.2625,1,0,0,2.443,Diorite_rect,13,0,13,0,1
5ecc6fb87c7c7646490f3cf8,TCR,2024-06-10_14h59.02.792,LearnStrategy,2023.2.3,Win32,60.0240096,6,2,15,,,,,,,,2,14,,,,,,,,,,,4,2.684,0,,,,,,0.422222222,-0.256944444,1,0,0,2.684,Gabbro_rect,14,0,14,0,1
5ecc6fb87c7c7646490f3cf8,TCR,2024-06-10_14h59.02.792,LearnStrategy,2023.2.3,Win32,60.0240096,6,2,16,,,,,,,,5,16,,,,,,,,,,,5,1.297,1,,,,,,-0.368055556,-0.393055556,1,0,0,1.297,Obsidian_rect,15,0,15,0,1
5ecc6fb87c7c7646490f3cf8,TCR,2024-06-10_14h59.02.792,LearnStrategy,2023.2.3,Win32,60.0240096,7,1,1,-0.019444444,0.008333333,1,0,0,1.156,rock_grid_rect_2,4,08,-1,-1,1.156,-0.390277778,-0.2375,1,0,0,1.812,Andesite_rect,1,1.812,0,0,0,0,0,1,,,,,,,,,,,,
5ecc6fb87c7c7646490f3cf8,TCR,2024-06-10_14h59.02.792,LearnStrategy,2023.2.3,Win32,60.0240096,7,1,2,0.031944444,0.001388889,1,0,0,0.77,rock_grid_rect_2,1,05,-1,-1,0.77,-0.401388889,-0.243055556,1,0,0,1.206,Andesite_rect,1,1.206,1,1,0,1,0,1,,,,,,,,,,,,
5ecc6fb87c7c7646490f3cf8,TCR,2024-06-10_14h59.02.792,LearnStrategy,2023.2.3,Win32,60.0240096,7,1,3,-0.0625,0,1,0,0,0.719,rock_grid_rect_2,3,13,-1,-1,0.719,0.126388889,-0.251388889,1,0,0,1.639,Diorite_rect,3,1.639,1,2,0,2,0,1,,,,,,,,,,,,
5ecc6fb87c7c7646490f3cf8,TCR,2024-06-10_14h59.02.792,LearnStrategy,2023.2.3,Win32,60.0240096,7,1,4,0.041666667,0.001388889,1,0,0,0.793,rock_grid_rect_2,4,05,-1,-1,0.793,0.420833333,-0.251388889,1,0,0,1.591,Gabbro_rect,4,1.591,1,3,0,3,0,1,,,,,,,,,,,,
5ecc6fb87c7c7646490f3cf8,TCR,2024-06-10_14h59.02.792,LearnStrategy,2023.2.3,Win32,60.0240096,7,1,5,-0.026388889,-0.002777778,1,0,0,0.934,rock_grid_rect_2,2,06,-1,-1,0.934,-0.106944444,-0.251388889,1,0,0,1.134,Basalt_rect,2,1.134,1,4,0,4,0,1,,,,,,,,,,,,
5ecc6fb87c7c7646490f3cf8,TCR,2024-06-10_14h59.02.792,LearnStrategy,2023.2.3,Win32,60.0240096,7,1,6,0.013888889,0.009722222,1,0,0,0.718,rock_grid_rect_2,7,06,-1,-1,0.718,-0.118055556,-0.393055556,1,0,0,1.57,Pegmatite_rect,6,1.57,0,5,0,5,0,1,,,,,,,,,,,,
5ecc6fb87c7c7646490f3cf8,TCR,2024-06-10_14h59.02.792,LearnStrategy,2023.2.3,Win32,60.0240096,7,1,7,0.005555556,0.0125,1,0,0,0.693,rock_grid_rect_2,1,07,-1,-1,0.693,-0.383333333,-0.243055556,1,0,0,2.099,Andesite_rect,1,2.099,1,6,0,6,0,1,,,,,,,,,,,,
5ecc6fb87c7c7646490f3cf8,TCR,2024-06-10_14h59.02.792,LearnStrategy,2023.2.3,Win32,60.0240096,7,1,8,-0.020833333,0.0125,1,0,0,0.739,rock_grid_rect_2,8,13,-1,-1,0.739,0.431944444,-0.411111111,1,0,0,1.319,Pumice_rect,8,1.319,1,7,0,7,0,1,,,,,,,,,,,,
5ecc6fb87c7c7646490f3cf8,TCR,2024-06-10_14h59.02.792,LearnStrategy,2023.2.3,Win32,60.0240096,7,1,9,-0.005555556,0.009722222,1,0,0,0.735,rock_grid_rect_2,5,09,-1,-1,0.735,-0.368055556,-0.415277778,1,0,0,1.633,Obsidian_rect,5,1.633,1,8,0,8,0,1,,,,,,,,,,,,
5ecc6fb87c7c7646490f3cf8,TCR,2024-06-10_14h59.02.792,LearnStrategy,2023.2.3,Win32,60.0240096,7,1,10,-0.070833333,0.019444444,1,0,0,0.739,rock_grid_rect_2,1,10,-1,-1,0.739,-0.369444444,-0.247222222,1,0,0,1.423,Andesite_rect,1,1.423,1,9,0,9,0,1,,,,,,,,,,,,
5ecc6fb87c7c7646490f3cf8,TCR,2024-06-10_14h59.02.792,LearnStrategy,2023.2.3,Win32,60.0240096,7,1,11,0.119444444,0.020833333,1,0,0,0.819,rock_grid_rect_2,7,02,-1,-1,0.819,0.141666667,-0.409722222,1,0,0,1.426,Peridotite_rect,7,1.426,1,10,0,10,0,1,,,,,,,,,,,,
5ecc6fb87c7c7646490f3cf8,TCR,2024-06-10_14h59.02.792,LearnStrategy,2023.2.3,Win32,60.0240096,7,1,12,0.022222222,-0.009722222,1,0,0,0.654,rock_grid_rect_2,3,11,-1,-1,0.654,0.104166667,-0.247222222,1,0,0,2.071,Diorite_rect,3,2.071,1,11,0,11,0,1,,,,,,,,,,,,
5ecc6fb87c7c7646490f3cf8,TCR,2024-06-10_14h59.02.792,LearnStrategy,2023.2.3,Win32,60.0240096,7,1,13,0.045833333,0.001388889,1,0,0,0.756,rock_grid_rect_2,7,04,-1,-1,0.756,0.113888889,-0.404166667,1,0,0,1.286,Peridotite_rect,7,1.286,1,12,0,12,0,1,,,,,,,,,,,,
5ecc6fb87c7c7646490f3cf8,TCR,2024-06-10_14h59.02.792,LearnStrategy,2023.2.3,Win32,60.0240096,7,1,14,0.041666667,0.0125,1,0,0,0.713,rock_grid_rect_2,6,05,-1,-1,0.713,-0.120833333,-0.394444444,1,0,0,1.561,Pegmatite_rect,6,1.561,1,13,0,13,0,1,,,,,,,,,,,,
5ecc6fb87c7c7646490f3cf8,TCR,2024-06-10_14h59.02.792,LearnStrategy,2023.2.3,Win32,60.0240096,7,1,15,0.043055556,0.018055556,1,0,0,0.747,rock_grid_rect_2,1,10,-1,-1,0.747,-0.376388889,-0.254166667,1,0,0,1.24,Andesite_rect,1,1.24,1,14,0,14,0,1,,,,,,,,,,,,
5ecc6fb87c7c7646490f3cf8,TCR,2024-06-10_14h59.02.792,LearnStrategy,2023.2.3,Win32,60.0240096,7,1,16,0.045833333,-0.013888889,1,0,0,1.111,rock_grid_rect_2,2,06,-1,-1,1.111,-0.133333333,-0.245833333,1,0,0,1.117,Basalt_rect,2,1.117,1,15,0,15,0,1,,,,,,,,,,,,
5ecc6fb87c7c7646490f3cf8,TCR,2024-06-10_14h59.02.792,LearnStrategy,2023.2.3,Win32,60.0240096,7,2,1,,,,,,,,2,09,,,,,,,,,,,2,2.79,1,,,,,,-0.123611111,-0.244444444,1,0,0,2.79,Basalt_rect,0,0,0,0,1
5ecc6fb87c7c7646490f3cf8,TCR,2024-06-10_14h59.02.792,LearnStrategy,2023.2.3,Win32,60.0240096,7,2,2,,,,,,,,1,02,,,,,,,,,,,6,3.839,0,,,,,,-0.1625,-0.409722222,1,0,0,3.839,Pegmatite_rect,1,0,1,0,1
5ecc6fb87c7c7646490f3cf8,TCR,2024-06-10_14h59.02.792,LearnStrategy,2023.2.3,Win32,60.0240096,7,2,3,,,,,,,,8,08,,,,,,,,,,,8,1.439,1,,,,,,0.393055556,-0.397222222,1,0,0,1.439,Pumice_rect,2,0,2,0,1
5ecc6fb87c7c7646490f3cf8,TCR,2024-06-10_14h59.02.792,LearnStrategy,2023.2.3,Win32,60.0240096,7,2,4,,,,,,,,1,06,,,,,,,,,,,7,4.858,0,,,,,,0.143055556,-0.409722222,1,0,0,4.858,Peridotite_rect,3,0,3,0,1
5ecc6fb87c7c7646490f3cf8,TCR,2024-06-10_14h59.02.792,LearnStrategy,2023.2.3,Win32,60.0240096,7,2,5,,,,,,,,2,14,,,,,,,,,,,4,1.916,0,,,,,,0.377777778,-0.254166667,1,0,0,1.916,Gabbro_rect,4,0,4,0,1
5ecc6fb87c7c7646490f3cf8,TCR,2024-06-10_14h59.02.792,LearnStrategy,2023.2.3,Win32,60.0240096,7,2,6,,,,,,,,7,13,,,,,,,,,,,7,1.261,1,,,,,,0.108333333,-0.413888889,1,0,0,1.261,Peridotite_rect,5,0,5,0,1
5ecc6fb87c7c7646490f3cf8,TCR,2024-06-10_14h59.02.792,LearnStrategy,2023.2.3,Win32,60.0240096,7,2,7,,,,,,,,4,03,,,,,,,,,,,3,2.661,0,,,,,,0.120833333,-0.256944444,1,0,0,2.661,Diorite_rect,6,0,6,0,1
5ecc6fb87c7c7646490f3cf8,TCR,2024-06-10_14h59.02.792,LearnStrategy,2023.2.3,Win32,60.0240096,7,2,8,,,,,,,,7,08,,,,,,,,,,,7,1.996,1,,,,,,0.106944444,-0.415277778,1,0,0,1.996,Peridotite_rect,7,0,7,0,1
5ecc6fb87c7c7646490f3cf8,TCR,2024-06-10_14h59.02.792,LearnStrategy,2023.2.3,Win32,60.0240096,7,2,9,,,,,,,,5,10,,,,,,,,,,,5,1.333,1,,,,,,-0.390277778,-0.393055556,1,0,0,1.333,Obsidian_rect,8,0,8,0,1
5ecc6fb87c7c7646490f3cf8,TCR,2024-06-10_14h59.02.792,LearnStrategy,2023.2.3,Win32,60.0240096,7,2,10,,,,,,,,8,06,,,,,,,,,,,8,1.355,1,,,,,,0.398611111,-0.395833333,1,0,0,1.355,Pumice_rect,9,0,9,0,1
5ecc6fb87c7c7646490f3cf8,TCR,2024-06-10_14h59.02.792,LearnStrategy,2023.2.3,Win32,60.0240096,7,2,11,,,,,,,,6,09,,,,,,,,,,,6,1.228,1,,,,,,-0.144444444,-0.404166667,1,0,0,1.228,Pegmatite_rect,10,0,10,0,1
5ecc6fb87c7c7646490f3cf8,TCR,2024-06-10_14h59.02.792,LearnStrategy,2023.2.3,Win32,60.0240096,7,2,12,,,,,,,,6,16,,,,,,,,,,,6,1.172,1,,,,,,-0.145833333,-0.401388889,1,0,0,1.172,Pegmatite_rect,11,0,11,0,1
5ecc6fb87c7c7646490f3cf8,TCR,2024-06-10_14h59.02.792,LearnStrategy,2023.2.3,Win32,60.0240096,7,2,13,,,,,,,,4,01,,,,,,,,,,,1,3.127,0,,,,,,-0.381944444,-0.256944444,1,0,0,3.127,Andesite_rect,12,0,12,0,1
5ecc6fb87c7c7646490f3cf8,TCR,2024-06-10_14h59.02.792,LearnStrategy,2023.2.3,Win32,60.0240096,7,2,14,,,,,,,,3,07,,,,,,,,,,,3,2.088,1,,,,,,0.081944444,-0.251388889,1,0,0,2.088,Diorite_rect,13,0,13,0,1
5ecc6fb87c7c7646490f3cf8,TCR,2024-06-10_14h59.02.792,LearnStrategy,2023.2.3,Win32,60.0240096,7,2,15,,,,,,,,3,10,,,,,,,,,,,1,3.105,0,,,,,,-0.384722222,-0.248611111,1,0,0,3.105,Andesite_rect,14,0,14,0,1
5ecc6fb87c7c7646490f3cf8,TCR,2024-06-10_14h59.02.792,LearnStrategy,2023.2.3,Win32,60.0240096,7,2,16,,,,,,,,5,11,,,,,,,,,,,5,1.173,1,,,,,,-0.372222222,-0.405555556,1,0,0,1.173,Obsidian_rect,15,0,15,0,1
5ecc6fb87c7c7646490f3cf8,TCR,2024-06-10_14h59.02.792,LearnStrategy,2023.2.3,Win32,60.0240096,8,1,1,0.018055556,0.0125,1,0,0,0.989,rock_grid_rect_2,7,02,-1,-1,0.989,0.129166667,-0.401388889,1,0,0,1.339,Peridotite_rect,7,1.339,1,0,0,0,0,1,,,,,,,,,,,,
5ecc6fb87c7c7646490f3cf8,TCR,2024-06-10_14h59.02.792,LearnStrategy,2023.2.3,Win32,60.0240096,8,1,2,0.001388889,0.002777778,1,0,0,0.834,rock_grid_rect_2,5,04,-1,-1,0.834,-0.3375,-0.411111111,1,0,0,1.321,Obsidian_rect,5,1.321,1,1,0,1,0,1,,,,,,,,,,,,
5ecc6fb87c7c7646490f3cf8,TCR,2024-06-10_14h59.02.792,LearnStrategy,2023.2.3,Win32,60.0240096,8,1,3,0.026388889,-0.0125,1,0,0,0.76,rock_grid_rect_2,4,15,-1,-1,0.76,0.122222222,-0.245833333,1,0,0,2.554,Diorite_rect,3,2.554,0,2,0,2,0,1,,,,,,,,,,,,
5ecc6fb87c7c7646490f3cf8,TCR,2024-06-10_14h59.02.792,LearnStrategy,2023.2.3,Win32,60.0240096,8,1,4,0.093055556,-0.002777778,1,0,0,0.773,rock_grid_rect_2,2,16,-1,-1,0.773,-0.122222222,-0.245833333,1,0,0,1.811,Basalt_rect,2,1.811,1,3,0,3,0,1,,,,,,,,,,,,
5ecc6fb87c7c7646490f3cf8,TCR,2024-06-10_14h59.02.792,LearnStrategy,2023.2.3,Win32,60.0240096,8,1,5,0.001388889,-0.009722222,1,0,0,0.841,rock_grid_rect_2,3,06,-1,-1,0.841,-0.393055556,-0.254166667,1,0,0,2.908,Andesite_rect,1,2.908,0,4,0,4,0,1,,,,,,,,,,,,
5ecc6fb87c7c7646490f3cf8,TCR,2024-06-10_14h59.02.792,LearnStrategy,2023.2.3,Win32,60.0240096,8,1,6,-0.016666667,0.013888889,1,0,0,0.838,rock_grid_rect_2,3,06,-1,-1,0.838,0.156944444,-0.254166667,1,0,0,1.014,Diorite_rect,3,1.014,1,5,0,5,0,1,,,,,,,,,,,,
5ecc6fb87c7c7646490f3cf8,TCR,2024-06-10_14h59.02.792,LearnStrategy,2023.2.3,Win32,60.0240096,8,1,7,0.015277778,0.004166667,1,0,0,0.769,rock_grid_rect_2,4,11,-1,-1,0.769,0.441666667,-0.255555556,1,0,0,1.729,Gabbro_rect,4,1.729,1,6,0,6,0,1,,,,,,,,,,,,
5ecc6fb87c7c7646490f3cf8,TCR,2024-06-10_14h59.02.792,LearnStrategy,2023.2.3,Win32,60.0240096,8,1,8,0.054166667,-0.002777778,1,0,0,0.781,rock_grid_rect_2,2,05,-1,-1,0.781,-0.131944444,-0.247222222,1,0,0,1.265,Basalt_rect,2,1.265,1,7,0,7,0,1,,,,,,,,,,,,
5ecc6fb87c7c7646490f3cf8,TCR,2024-06-10_14h59.02.792,LearnStrategy,2023.2.3,Win32,60.0240096,8,1,9,0.0125,0.004166667,1,0,0,0.796,rock_grid_rect_2,1,09,-1,-1,0.796,-0.423611111,-0.2625,1,0,0,1.689,Andesite_rect,1,1.689,1,8,0,8,0,1,,,,,,,,,,,,
5ecc6fb87c7c7646490f3cf8,TCR,2024-06-10_14h59.02.792,LearnStrategy,2023.2.3,Win32,60.0240096,8,1,10,0.056944444,0.0125,1,0,0,0.748,rock_grid_rect_2,1,14,-1,-1,0.748,-0.373611111,-0.231944444,1,0,0,2.819,Andesite_rect,1,2.819,1,9,0,9,0,1,,,,,,,,,,,,
5ecc6fb87c7c7646490f3cf8,TCR,2024-06-10_14h59.02.792,LearnStrategy,2023.2.3,Win32,60.0240096,8,1,11,0.036111111,0.004166667,1,0,0,0.835,rock_grid_rect_2,4,05,-1,-1,0.835,0.401388889,-0.248611111,1,0,0,2.1,Gabbro_rect,4,2.1,1,10,0,10,0,1,,,,,,,,,,,,
5ecc6fb87c7c7646490f3cf8,TCR,2024-06-10_14h59.02.792,LearnStrategy,2023.2.3,Win32,60.0240096,8,1,12,0.076388889,-0.006944444,1,0,0,0.787,rock_grid_rect_2,1,16,-1,-1,0.787,-0.343055556,-0.243055556,1,0,0,4.279,Andesite_rect,1,4.279,1,11,0,11,0,1,,,,,,,,,,,,
5ecc6fb87c7c7646490f3cf8,TCR,2024-06-10_14h59.02.792,LearnStrategy,2023.2.3,Win32,60.0240096,8,1,13,0.041666667,0.011111111,1,0,0,0.696,rock_grid_rect_2,8,14,-1,-1,0.696,0.415277778,-0.393055556,1,0,0,1.84,Pumice_rect,8,1.84,1,12,0,12,0,1,,,,,,,,,,,,
5ecc6fb87c7c7646490f3cf8,TCR,2024-06-10_14h59.02.792,LearnStrategy,2023.2.3,Win32,60.0240096,8,1,14,0.034722222,0.001388889,1,0,0,0.708,rock_grid_rect_2,1,09,-1,-1,0.708,-0.359722222,-0.252777778,1,0,0,1.447,Andesite_rect,1,1.447,1,13,0,13,0,1,,,,,,,,,,,,
5ecc6fb87c7c7646490f3cf8,TCR,2024-06-10_14h59.02.792,LearnStrategy,2023.2.3,Win32,60.0240096,8,1,15,0.009722222,0.019444444,1,0,0,0.656,rock_grid_rect_2,6,13,-1,-1,0.656,-0.118055556,-0.379166667,1,0,0,1.392,Pegmatite_rect,6,1.392,1,14,0,14,0,1,,,,,,,,,,,,
5ecc6fb87c7c7646490f3cf8,TCR,2024-06-10_14h59.02.792,LearnStrategy,2023.2.3,Win32,60.0240096,8,1,16,0.015277778,0.001388889,1,0,0,0.688,rock_grid_rect_2,7,05,-1,-1,0.688,0.361111111,-0.245833333,1,0,0,2.988,Gabbro_rect,4,2.988,0,15,0,15,0,1,,,,,,,,,,,,
5ecc6fb87c7c7646490f3cf8,TCR,2024-06-10_14h59.02.792,LearnStrategy,2023.2.3,Win32,60.0240096,8,2,1,,,,,,,,6,06,,,,,,,,,,,6,1.198,1,,,,,,-0.1375,-0.401388889,1,0,0,1.198,Pegmatite_rect,0,0,0,0,1
5ecc6fb87c7c7646490f3cf8,TCR,2024-06-10_14h59.02.792,LearnStrategy,2023.2.3,Win32,60.0240096,8,2,2,,,,,,,,1,11,,,,,,,,,,,1,2.116,1,,,,,,-0.381944444,-0.251388889,1,0,0,2.116,Andesite_rect,1,0,1,0,1
5ecc6fb87c7c7646490f3cf8,TCR,2024-06-10_14h59.02.792,LearnStrategy,2023.2.3,Win32,60.0240096,8,2,3,,,,,,,,5,06,,,,,,,,,,,5,1.14,1,,,,,,-0.379166667,-0.384722222,1,0,0,1.14,Obsidian_rect,2,0,2,0,1
5ecc6fb87c7c7646490f3cf8,TCR,2024-06-10_14h59.02.792,LearnStrategy,2023.2.3,Win32,60.0240096,8,2,4,,,,,,,,1,03,,,,,,,,,,,1,3.995,1,,,,,,-0.368055556,-0.240277778,1,0,0,3.995,Andesite_rect,3,0,3,0,1
5ecc6fb87c7c7646490f3cf8,TCR,2024-06-10_14h59.02.792,LearnStrategy,2023.2.3,Win32,60.0240096,8,2,5,,,,,,,,8,16,,,,,,,,,,,8,2.086,1,,,,,,0.383333333,-0.402777778,1,0,0,2.086,Pumice_rect,4,0,4,0,1
5ecc6fb87c7c7646490f3cf8,TCR,2024-06-10_14h59.02.792,LearnStrategy,2023.2.3,Win32,60.0240096,8,2,6,,,,,,,,2,01,,,,,,,,,,,2,1.741,1,,,,,,-0.173611111,-0.256944444,1,0,0,1.741,Basalt_rect,5,0,5,0,1
5ecc6fb87c7c7646490f3cf8,TCR,2024-06-10_14h59.02.792,LearnStrategy,2023.2.3,Win32,60.0240096,8,2,7,,,,,,,,4,14,,,,,,,,,,,4,1.315,1,,,,,,0.408333333,-0.261111111,1,0,0,1.315,Gabbro_rect,6,0,6,0,1
5ecc6fb87c7c7646490f3cf8,TCR,2024-06-10_14h59.02.792,LearnStrategy,2023.2.3,Win32,60.0240096,8,2,8,,,,,,,,3,16,,,,,,,,,,,3,3.721,1,,,,,,0.130555556,-0.259722222,1,0,0,3.721,Diorite_rect,7,0,7,0,1
5ecc6fb87c7c7646490f3cf8,TCR,2024-06-10_14h59.02.792,LearnStrategy,2023.2.3,Win32,60.0240096,8,2,9,,,,,,,,5,16,,,,,,,,,,,5,1.452,1,,,,,,-0.390277778,-0.398611111,1,0,0,1.452,Obsidian_rect,8,0,8,0,1
5ecc6fb87c7c7646490f3cf8,TCR,2024-06-10_14h59.02.792,LearnStrategy,2023.2.3,Win32,60.0240096,8,2,10,,,,,,,,6,15,,,,,,,,,,,6,1.141,1,,,,,,-0.138888889,-0.397222222,1,0,0,1.141,Pegmatite_rect,9,0,9,0,1
5ecc6fb87c7c7646490f3cf8,TCR,2024-06-10_14h59.02.792,LearnStrategy,2023.2.3,Win32,60.0240096,8,2,11,,,,,,,,7,12,,,,,,,,,,,7,1.441,1,,,,,,0.148611111,-0.393055556,1,0,0,1.441,Peridotite_rect,10,0,10,0,1
5ecc6fb87c7c7646490f3cf8,TCR,2024-06-10_14h59.02.792,LearnStrategy,2023.2.3,Win32,60.0240096,8,2,12,,,,,,,,7,16,,,,,,,,,,,7,1.153,1,,,,,,0.126388889,-0.3875,1,0,0,1.153,Peridotite_rect,11,0,11,0,1
5ecc6fb87c7c7646490f3cf8,TCR,2024-06-10_14h59.02.792,LearnStrategy,2023.2.3,Win32,60.0240096,8,2,13,,,,,,,,3,15,,,,,,,,,,,3,2.427,1,,,,,,0.129166667,-0.256944444,1,0,0,2.427,Diorite_rect,12,0,12,0,1
5ecc6fb87c7c7646490f3cf8,TCR,2024-06-10_14h59.02.792,LearnStrategy,2023.2.3,Win32,60.0240096,8,2,14,,,,,,,,4,10,,,,,,,,,,,4,1.516,1,,,,,,0.386111111,-0.258333333,1,0,0,1.516,Gabbro_rect,13,0,13,0,1
5ecc6fb87c7c7646490f3cf8,TCR,2024-06-10_14h59.02.792,LearnStrategy,2023.2.3,Win32,60.0240096,8,2,15,,,,,,,,8,04,,,,,,,,,,,8,1.189,1,,,,,,0.373611111,-0.404166667,1,0,0,1.189,Pumice_rect,14,0,14,0,1
5ecc6fb87c7c7646490f3cf8,TCR,2024-06-10_14h59.02.792,LearnStrategy,2023.2.3,Win32,60.0240096,8,2,16,,,,,,,,2,02,,,,,,,,,,,2,1.404,1,,,,,,-0.136111111,-0.265277778,1,0,0,1.404,Basalt_rect,15,0,15,0,1
5ecc6fb87c7c7646490f3cf8,TCR,2024-06-10_14h59.02.792,LearnStrategy,2023.2.3,Win32,60.0240096,9,1,1,-0.009722222,0.004166667,1,0,0,0.946,rock_grid_rect_2,4,15,-1,-1,0.946,0.420833333,-0.240277778,1,0,0,2.994,Gabbro_rect,4,2.994,1,0,0,0,0,1,,,,,,,,,,,,
5ecc6fb87c7c7646490f3cf8,TCR,2024-06-10_14h59.02.792,LearnStrategy,2023.2.3,Win32,60.0240096,9,1,2,-0.006944444,-0.008333333,1,0,0,0.902,rock_grid_rect_2,1,09,-1,-1,0.902,-0.408333333,-0.254166667,1,0,0,1.25,Andesite_rect,1,1.25,1,1,0,1,0,1,,,,,,,,,,,,
5ecc6fb87c7c7646490f3cf8,TCR,2024-06-10_14h59.02.792,LearnStrategy,2023.2.3,Win32,60.0240096,9,1,3,-0.023611111,0.009722222,1,0,0,0.781,rock_grid_rect_2,3,09,-1,-1,0.781,0.115277778,-0.238888889,1,0,0,2.087,Diorite_rect,3,2.087,1,2,0,2,0,1,,,,,,,,,,,,
5ecc6fb87c7c7646490f3cf8,TCR,2024-06-10_14h59.02.792,LearnStrategy,2023.2.3,Win32,60.0240096,9,1,4,-0.081944444,-0.001388889,1,0,0,0.878,rock_grid_rect_2,5,08,-1,-1,0.878,-0.405555556,-0.404166667,1,0,0,1.146,Obsidian_rect,5,1.146,1,3,0,3,0,1,,,,,,,,,,,,
5ecc6fb87c7c7646490f3cf8,TCR,2024-06-10_14h59.02.792,LearnStrategy,2023.2.3,Win32,60.0240096,9,1,5,0.031944444,-0.015277778,1,0,0,0.698,rock_grid_rect_2,1,09,-1,-1,0.698,-0.4125,-0.252777778,1,0,0,1.224,Andesite_rect,1,1.224,1,4,0,4,0,1,,,,,,,,,,,,
5ecc6fb87c7c7646490f3cf8,TCR,2024-06-10_14h59.02.792,LearnStrategy,2023.2.3,Win32,60.0240096,9,1,6,0.018055556,0.0125,1,0,0,0.684,rock_grid_rect_2,6,13,-1,-1,0.684,-0.088888889,-0.398611111,1,0,0,1.258,Pegmatite_rect,6,1.258,1,5,0,5,0,1,,,,,,,,,,,,
5ecc6fb87c7c7646490f3cf8,TCR,2024-06-10_14h59.02.792,LearnStrategy,2023.2.3,Win32,60.0240096,9,1,7,-0.066666667,0.004166667,1,0,0,0.689,rock_grid_rect_2,4,12,-1,-1,0.689,0.409722222,-0.244444444,1,0,0,1.915,Gabbro_rect,4,1.915,1,6,0,6,0,1,,,,,,,,,,,,
5ecc6fb87c7c7646490f3cf8,TCR,2024-06-10_14h59.02.792,LearnStrategy,2023.2.3,Win32,60.0240096,9,1,8,0.026388889,0,1,0,0,0.73,rock_grid_rect_2,2,12,-1,-1,0.73,-0.134722222,-0.240277778,1,0,0,1.428,Basalt_rect,2,1.428,1,7,0,7,0,1,,,,,,,,,,,,
5ecc6fb87c7c7646490f3cf8,TCR,2024-06-10_14h59.02.792,LearnStrategy,2023.2.3,Win32,60.0240096,9,1,9,0.072222222,0.015277778,1,0,0,0.636,rock_grid_rect_2,1,14,-1,-1,0.636,-0.3625,-0.245833333,1,0,0,1.159,Andesite_rect,1,1.159,1,8,0,8,0,1,,,,,,,,,,,,
5ecc6fb87c7c7646490f3cf8,TCR,2024-06-10_14h59.02.792,LearnStrategy,2023.2.3,Win32,60.0240096,9,1,10,-0.1,0,1,0,0,0.829,rock_grid_rect_2,7,06,-1,-1,0.829,0.081944444,-0.398611111,1,0,0,1.164,Peridotite_rect,7,1.164,1,9,0,9,0,1,,,,,,,,,,,,
5ecc6fb87c7c7646490f3cf8,TCR,2024-06-10_14h59.02.792,LearnStrategy,2023.2.3,Win32,60.0240096,9,1,11,-0.126388889,-0.004166667,1,0,0,1.014,rock_grid_rect_2,1,16,-1,-1,1.014,-0.404166667,-0.238888889,1,0,0,3.563,Andesite_rect,1,3.563,1,10,0,10,0,1,,,,,,,,,,,,
5ecc6fb87c7c7646490f3cf8,TCR,2024-06-10_14h59.02.792,LearnStrategy,2023.2.3,Win32,60.0240096,9,1,12,-0.052777778,-0.005555556,1,0,0,0.734,rock_grid_rect_2,3,11,-1,-1,0.734,0.131944444,-0.248611111,1,0,0,1.2,Diorite_rect,3,1.2,1,11,0,11,0,1,,,,,,,,,,,,
5ecc6fb87c7c7646490f3cf8,TCR,2024-06-10_14h59.02.792,LearnStrategy,2023.2.3,Win32,60.0240096,9,1,13,-0.0125,0.006944444,1,0,0,0.66,rock_grid_rect_2,8,14,-1,-1,0.66,0.413888889,-0.409722222,1,0,0,1.394,Pumice_rect,8,1.394,1,12,0,12,0,1,,,,,,,,,,,,
5ecc6fb87c7c7646490f3cf8,TCR,2024-06-10_14h59.02.792,LearnStrategy,2023.2.3,Win32,60.0240096,9,1,14,-0.068055556,0.023611111,1,0,0,0.644,rock_grid_rect_2,2,05,-1,-1,0.644,-0.148611111,-0.244444444,1,0,0,1.027,Basalt_rect,2,1.027,1,13,0,13,0,1,,,,,,,,,,,,
5ecc6fb87c7c7646490f3cf8,TCR,2024-06-10_14h59.02.792,LearnStrategy,2023.2.3,Win32,60.0240096,9,1,15,-0.098611111,0.008333333,1,0,0,0.797,rock_grid_rect_2,4,16,-1,-1,0.797,0.390277778,-0.25,1,0,0,1.317,Gabbro_rect,4,1.317,1,14,0,14,0,1,,,,,,,,,,,,
5ecc6fb87c7c7646490f3cf8,TCR,2024-06-10_14h59.02.792,LearnStrategy,2023.2.3,Win32,60.0240096,9,1,16,-0.095833333,0,1,0,0,0.779,rock_grid_rect_2,7,05,-1,-1,0.779,0.125,-0.398611111,1,0,0,1.674,Peridotite_rect,7,1.674,1,15,0,15,0,1,,,,,,,,,,,,
5ecc6fb87c7c7646490f3cf8,TCR,2024-06-10_14h59.02.792,LearnStrategy,2023.2.3,Win32,60.0240096,9,2,1,,,,,,,,7,15,,,,,,,,,,,7,1.67,1,,,,,,0.147222222,-0.402777778,1,0,0,1.67,Peridotite_rect,0,0,0,0,1
5ecc6fb87c7c7646490f3cf8,TCR,2024-06-10_14h59.02.792,LearnStrategy,2023.2.3,Win32,60.0240096,9,2,2,,,,,,,,8,10,,,,,,,,,,,8,2.633,1,,,,,,0.395833333,-0.4,1,0,0,2.633,Pumice_rect,1,0,1,0,1
5ecc6fb87c7c7646490f3cf8,TCR,2024-06-10_14h59.02.792,LearnStrategy,2023.2.3,Win32,60.0240096,9,2,3,,,,,,,,7,10,,,,,,,,,,,7,2.571,1,,,,,,0.122222222,-0.401388889,1,0,0,2.571,Peridotite_rect,2,0,2,0,1
5ecc6fb87c7c7646490f3cf8,TCR,2024-06-10_14h59.02.792,LearnStrategy,2023.2.3,Win32,60.0240096,9,2,4,,,,,,,,3,02,,,,,,,,,,,3,2.079,1,,,,,,0.1375,-0.248611111,1,0,0,2.079,Diorite_rect,3,0,3,0,1
5ecc6fb87c7c7646490f3cf8,TCR,2024-06-10_14h59.02.792,LearnStrategy,2023.2.3,Win32,60.0240096,9,2,5,,,,,,,,1,01,,,,,,,,,,,4,2.007,0,,,,,,0.397222222,-0.248611111,1,0,0,2.007,Gabbro_rect,4,0,4,0,1
5ecc6fb87c7c7646490f3cf8,TCR,2024-06-10_14h59.02.792,LearnStrategy,2023.2.3,Win32,60.0240096,9,2,6,,,,,,,,2,08,,,,,,,,,,,2,1.405,1,,,,,,-0.151388889,-0.245833333,1,0,0,1.405,Basalt_rect,5,0,5,0,1
5ecc6fb87c7c7646490f3cf8,TCR,2024-06-10_14h59.02.792,LearnStrategy,2023.2.3,Win32,60.0240096,9,2,7,,,,,,,,6,08,,,,,,,,,,,6,1.174,1,,,,,,-0.159722222,-0.409722222,1,0,0,1.174,Pegmatite_rect,6,0,6,0,1
5ecc6fb87c7c7646490f3cf8,TCR,2024-06-10_14h59.02.792,LearnStrategy,2023.2.3,Win32,60.0240096,9,2,8,,,,,,,,2,04,,,,,,,,,,,2,1.305,1,,,,,,-0.163888889,-0.247222222,1,0,0,1.305,Basalt_rect,7,0,7,0,1
5ecc6fb87c7c7646490f3cf8,TCR,2024-06-10_14h59.02.792,LearnStrategy,2023.2.3,Win32,60.0240096,9,2,9,,,,,,,,8,03,,,,,,,,,,,8,1.298,1,,,,,,0.401388889,-0.409722222,1,0,0,1.298,Pumice_rect,8,0,8,0,1
5ecc6fb87c7c7646490f3cf8,TCR,2024-06-10_14h59.02.792,LearnStrategy,2023.2.3,Win32,60.0240096,9,2,10,,,,,,,,5,12,,,,,,,,,,,5,1.289,1,,,,,,-0.415277778,-0.418055556,1,0,0,1.289,Obsidian_rect,9,0,9,0,1
5ecc6fb87c7c7646490f3cf8,TCR,2024-06-10_14h59.02.792,LearnStrategy,2023.2.3,Win32,60.0240096,9,2,11,,,,,,,,3,12,,,,,,,,,,,3,2.987,1,,,,,,0.108333333,-0.254166667,1,0,0,2.987,Diorite_rect,10,0,10,0,1
5ecc6fb87c7c7646490f3cf8,TCR,2024-06-10_14h59.02.792,LearnStrategy,2023.2.3,Win32,60.0240096,9,2,12,,,,,,,,1,04,,,,,,,,,,,7,2.17,0,,,,,,0.143055556,-0.409722222,1,0,0,2.17,Peridotite_rect,11,0,11,0,1
5ecc6fb87c7c7646490f3cf8,TCR,2024-06-10_14h59.02.792,LearnStrategy,2023.2.3,Win32,60.0240096,9,2,13,,,,,,,,6,07,,,,,,,,,,,6,2.219,1,,,,,,-0.123611111,-0.401388889,1,0,0,2.219,Pegmatite_rect,12,0,12,0,1
5ecc6fb87c7c7646490f3cf8,TCR,2024-06-10_14h59.02.792,LearnStrategy,2023.2.3,Win32,60.0240096,9,2,14,,,,,,,,4,13,,,,,,,,,,,4,1.39,1,,,,,,0.390277778,-0.251388889,1,0,0,1.39,Gabbro_rect,13,0,13,0,1
5ecc6fb87c7c7646490f3cf8,TCR,2024-06-10_14h59.02.792,LearnStrategy,2023.2.3,Win32,60.0240096,9,2,15,,,,,,,,5,02,,,,,,,,,,,5,1.323,1,,,,,,-0.391666667,-0.411111111,1,0,0,1.323,Obsidian_rect,14,0,14,0,1
5ecc6fb87c7c7646490f3cf8,TCR,2024-06-10_14h59.02.792,LearnStrategy,2023.2.3,Win32,60.0240096,9,2,16,,,,,,,,4,09,,,,,,,,,,,4,3.041,1,,,,,,0.358333333,-0.259722222,1,0,0,3.041,Gabbro_rect,15,0,15,0,1
5ecc6fb87c7c7646490f3cf8,TCR,2024-06-10_14h59.02.792,LearnStrategy,2023.2.3,Win32,60.0240096,,,,,,,,,,,,,,,,,,,,,,,,,,,,,,,,,,,,,,,,,,
5ecc6fb87c7c7646490f3cf8,TCR,2024-06-10_14h59.02.792,LearnStrategy,2023.2.3,Win32,60.0240096,,,,,,,,,,,,,,,,,,,,,,,,,,,,,,,,,,,,,,,,,,
5ecc6fb87c7c7646490f3cf8,TCR,2024-06-10_14h59.02.792,LearnStrategy,2023.2.3,Win32,60.0240096,,,,,,,,,,,3,09,1,1,,,,,,,,,,,,,,,,,,,,,,,,,,,,
5ecc6fb87c7c7646490f3cf8,TCR,2024-06-10_14h59.02.792,LearnStrategy,2023.2.3,Win32,60.0240096,,,,,,,,,,,3,13,1,2,,,,,,,,,,,,,,,,,,,,,,,,,,,,
5ecc6fb87c7c7646490f3cf8,TCR,2024-06-10_14h59.02.792,LearnStrategy,2023.2.3,Win32,60.0240096,,,,,,,,,,,4,05,1,3,,,,,,,,,,,,,,,,,,,,,,,,,,,,
5ecc6fb87c7c7646490f3cf8,TCR,2024-06-10_14h59.02.792,LearnStrategy,2023.2.3,Win32,60.0240096,,,,,,,,,,,1,16,1,4,,,,,,,,,,,,,,,,,,,,,,,,,,,,
5ecc6fb87c7c7646490f3cf8,TCR,2024-06-10_14h59.02.792,LearnStrategy,2023.2.3,Win32,60.0240096,,,,,,,,,,,2,16,1,5,,,,,,,,,,,,,,,,,,,,,,,,,,,,
5ecc6fb87c7c7646490f3cf8,TCR,2024-06-10_14h59.02.792,LearnStrategy,2023.2.3,Win32,60.0240096,,,,,,,,,,,3,11,1,6,,,,,,,,,,,,,,,,,,,,,,,,,,,,
5ecc6fb87c7c7646490f3cf8,TCR,2024-06-10_14h59.02.792,LearnStrategy,2023.2.3,Win32,60.0240096,,,,,,,,,,,5,05,1,7,,,,,,,,,,,,,,,,,,,,,,,,,,,,
5ecc6fb87c7c7646490f3cf8,TCR,2024-06-10_14h59.02.792,LearnStrategy,2023.2.3,Win32,60.0240096,,,,,,,,,,,4,15,1,8,,,,,,,,,,,,,,,,,,,,,,,,,,,,
5ecc6fb87c7c7646490f3cf8,TCR,2024-06-10_14h59.02.792,LearnStrategy,2023.2.3,Win32,60.0240096,,,,,,,,,,,8,05,2,1,,,,,,,,,,,,,,,,,,,,,,,,,,,,
5ecc6fb87c7c7646490f3cf8,TCR,2024-06-10_14h59.02.792,LearnStrategy,2023.2.3,Win32,60.0240096,,,,,,,,,,,2,06,2,2,,,,,,,,,,,,,,,,,,,,,,,,,,,,
5ecc6fb87c7c7646490f3cf8,TCR,2024-06-10_14h59.02.792,LearnStrategy,2023.2.3,Win32,60.0240096,,,,,,,,,,,2,11,2,3,,,,,,,,,,,,,,,,,,,,,,,,,,,,
5ecc6fb87c7c7646490f3cf8,TCR,2024-06-10_14h59.02.792,LearnStrategy,2023.2.3,Win32,60.0240096,,,,,,,,,,,6,05,2,4,,,,,,,,,,,,,,,,,,,,,,,,,,,,
5ecc6fb87c7c7646490f3cf8,TCR,2024-06-10_14h59.02.792,LearnStrategy,2023.2.3,Win32,60.0240096,,,,,,,,,,,8,13,2,5,,,,,,,,,,,,,,,,,,,,,,,,,,,,
5ecc6fb87c7c7646490f3cf8,TCR,2024-06-10_14h59.02.792,LearnStrategy,2023.2.3,Win32,60.0240096,,,,,,,,,,,8,02,2,6,,,,,,,,,,,,,,,,,,,,,,,,,,,,
5ecc6fb87c7c7646490f3cf8,TCR,2024-06-10_14h59.02.792,LearnStrategy,2023.2.3,Win32,60.0240096,,,,,,,,,,,4,12,2,7,,,,,,,,,,,,,,,,,,,,,,,,,,,,
5ecc6fb87c7c7646490f3cf8,TCR,2024-06-10_14h59.02.792,LearnStrategy,2023.2.3,Win32,60.0240096,,,,,,,,,,,3,14,2,8,,,,,,,,,,,,,,,,,,,,,,,,,,,,
5ecc6fb87c7c7646490f3cf8,TCR,2024-06-10_14h59.02.792,LearnStrategy,2023.2.3,Win32,60.0240096,,,,,,,,,,,7,02,3,1,,,,,,,,,,,,,,,,,,,,,,,,,,,,
5ecc6fb87c7c7646490f3cf8,TCR,2024-06-10_14h59.02.792,LearnStrategy,2023.2.3,Win32,60.0240096,,,,,,,,,,,7,06,3,2,,,,,,,,,,,,,,,,,,,,,,,,,,,,
5ecc6fb87c7c7646490f3cf8,TCR,2024-06-10_14h59.02.792,LearnStrategy,2023.2.3,Win32,60.0240096,,,,,,,,,,,8,09,3,3,,,,,,,,,,,,,,,,,,,,,,,,,,,,
5ecc6fb87c7c7646490f3cf8,TCR,2024-06-10_14h59.02.792,LearnStrategy,2023.2.3,Win32,60.0240096,,,,,,,,,,,2,12,3,4,,,,,,,,,,,,,,,,,,,,,,,,,,,,
5ecc6fb87c7c7646490f3cf8,TCR,2024-06-10_14h59.02.792,LearnStrategy,2023.2.3,Win32,60.0240096,,,,,,,,,,,6,12,3,5,,,,,,,,,,,,,,,,,,,,,,,,,,,,
5ecc6fb87c7c7646490f3cf8,TCR,2024-06-10_14h59.02.792,LearnStrategy,2023.2.3,Win32,60.0240096,,,,,,,,,,,7,07,3,6,,,,,,,,,,,,,,,,,,,,,,,,,,,,
5ecc6fb87c7c7646490f3cf8,TCR,2024-06-10_14h59.02.792,LearnStrategy,2023.2.3,Win32,60.0240096,,,,,,,,,,,5,14,3,7,,,,,,,,,,,,,,,,,,,,,,,,,,,,
5ecc6fb87c7c7646490f3cf8,TCR,2024-06-10_14h59.02.792,LearnStrategy,2023.2.3,Win32,60.0240096,,,,,,,,,,,5,07,3,8,,,,,,,,,,,,,,,,,,,,,,,,,,,,
5ecc6fb87c7c7646490f3cf8,TCR,2024-06-10_14h59.02.792,LearnStrategy,2023.2.3,Win32,60.0240096,,,,,,,,,,,3,08,4,1,,,,,,,,,,,,,,,,,,,,,,,,,,,,
5ecc6fb87c7c7646490f3cf8,TCR,2024-06-10_14h59.02.792,LearnStrategy,2023.2.3,Win32,60.0240096,,,,,,,,,,,7,05,4,2,,,,,,,,,,,,,,,,,,,,,,,,,,,,
5ecc6fb87c7c7646490f3cf8,TCR,2024-06-10_14h59.02.792,LearnStrategy,2023.2.3,Win32,60.0240096,,,,,,,,,,,6,10,4,3,,,,,,,,,,,,,,,,,,,,,,,,,,,,
5ecc6fb87c7c7646490f3cf8,TCR,2024-06-10_14h59.02.792,LearnStrategy,2023.2.3,Win32,60.0240096,,,,,,,,,,,5,08,4,4,,,,,,,,,,,,,,,,,,,,,,,,,,,,
5ecc6fb87c7c7646490f3cf8,TCR,2024-06-10_14h59.02.792,LearnStrategy,2023.2.3,Win32,60.0240096,,,,,,,,,,,8,15,4,5,,,,,,,,,,,,,,,,,,,,,,,,,,,,
5ecc6fb87c7c7646490f3cf8,TCR,2024-06-10_14h59.02.792,LearnStrategy,2023.2.3,Win32,60.0240096,,,,,,,,,,,4,16,4,6,,,,,,,,,,,,,,,,,,,,,,,,,,,,
5ecc6fb87c7c7646490f3cf8,TCR,2024-06-10_14h59.02.792,LearnStrategy,2023.2.3,Win32,60.0240096,,,,,,,,,,,6,03,4,7,,,,,,,,,,,,,,,,,,,,,,,,,,,,
5ecc6fb87c7c7646490f3cf8,TCR,2024-06-10_14h59.02.792,LearnStrategy,2023.2.3,Win32,60.0240096,,,,,,,,,,,2,10,4,8,,,,,,,,,,,,,,,,,,,,,,,,,,,,
5ecc6fb87c7c7646490f3cf8,TCR,2024-06-10_14h59.02.792,LearnStrategy,2023.2.3,Win32,60.0240096,,,,,,,,,,,1,14,5,1,,,,,,,,,,,,,,,,,,,,,,,,,,,,
5ecc6fb87c7c7646490f3cf8,TCR,2024-06-10_14h59.02.792,LearnStrategy,2023.2.3,Win32,60.0240096,,,,,,,,,,,6,13,5,2,,,,,,,,,,,,,,,,,,,,,,,,,,,,
5ecc6fb87c7c7646490f3cf8,TCR,2024-06-10_14h59.02.792,LearnStrategy,2023.2.3,Win32,60.0240096,,,,,,,,,,,7,04,5,3,,,,,,,,,,,,,,,,,,,,,,,,,,,,
5ecc6fb87c7c7646490f3cf8,TCR,2024-06-10_14h59.02.792,LearnStrategy,2023.2.3,Win32,60.0240096,,,,,,,,,,,3,06,5,4,,,,,,,,,,,,,,,,,,,,,,,,,,,,
5ecc6fb87c7c7646490f3cf8,TCR,2024-06-10_14h59.02.792,LearnStrategy,2023.2.3,Win32,60.0240096,,,,,,,,,,,1,09,5,5,,,,,,,,,,,,,,,,,,,,,,,,,,,,
5ecc6fb87c7c7646490f3cf8,TCR,2024-06-10_14h59.02.792,LearnStrategy,2023.2.3,Win32,60.0240096,,,,,,,,,,,7,14,5,6,,,,,,,,,,,,,,,,,,,,,,,,,,,,
5ecc6fb87c7c7646490f3cf8,TCR,2024-06-10_14h59.02.792,LearnStrategy,2023.2.3,Win32,60.0240096,,,,,,,,,,,1,07,5,7,,,,,,,,,,,,,,,,,,,,,,,,,,,,
5ecc6fb87c7c7646490f3cf8,TCR,2024-06-10_14h59.02.792,LearnStrategy,2023.2.3,Win32,60.0240096,,,,,,,,,,,1,05,5,8,,,,,,,,,,,,,,,,,,,,,,,,,,,,
5ecc6fb87c7c7646490f3cf8,TCR,2024-06-10_14h59.02.792,LearnStrategy,2023.2.3,Win32,60.0240096,,,,,,,,,,,1,10,6,1,,,,,,,,,,,,,,,,,,,,,,,,,,,,
5ecc6fb87c7c7646490f3cf8,TCR,2024-06-10_14h59.02.792,LearnStrategy,2023.2.3,Win32,60.0240096,,,,,,,,,,,6,11,6,2,,,,,,,,,,,,,,,,,,,,,,,,,,,,
5ecc6fb87c7c7646490f3cf8,TCR,2024-06-10_14h59.02.792,LearnStrategy,2023.2.3,Win32,60.0240096,,,,,,,,,,,4,08,6,3,,,,,,,,,,,,,,,,,,,,,,,,,,,,
5ecc6fb87c7c7646490f3cf8,TCR,2024-06-10_14h59.02.792,LearnStrategy,2023.2.3,Win32,60.0240096,,,,,,,,,,,8,14,6,4,,,,,,,,,,,,,,,,,,,,,,,,,,,,
5ecc6fb87c7c7646490f3cf8,TCR,2024-06-10_14h59.02.792,LearnStrategy,2023.2.3,Win32,60.0240096,,,,,,,,,,,2,05,6,5,,,,,,,,,,,,,,,,,,,,,,,,,,,,
5ecc6fb87c7c7646490f3cf8,TCR,2024-06-10_14h59.02.792,LearnStrategy,2023.2.3,Win32,60.0240096,,,,,,,,,,,4,11,6,6,,,,,,,,,,,,,,,,,,,,,,,,,,,,
5ecc6fb87c7c7646490f3cf8,TCR,2024-06-10_14h59.02.792,LearnStrategy,2023.2.3,Win32,60.0240096,,,,,,,,,,,5,04,6,7,,,,,,,,,,,,,,,,,,,,,,,,,,,,
5ecc6fb87c7c7646490f3cf8,TCR,2024-06-10_14h59.02.792,LearnStrategy,2023.2.3,Win32,60.0240096,,,,,,,,,,,5,09,6,8,,,,,,,,,,,,,,,,,,,,,,,,,,,,