participant,condition,date,expName,psychopyVersion,OS,frameRate,block,phase,trial,learn_mouse.x,learn_mouse.y,learn_mouse.leftButton,learn_mouse.midButton,learn_mouse.rightButton,learn_mouse.time,learn_mouse.clicked_name,cat,token,row,col,t_select,cat_rec,token_rec,cat_mouse_l.x,cat_mouse_l.y,cat_mouse_l.leftButton,cat_mouse_l.midButton,cat_mouse_l.rightButton,cat_mouse_l.time,cat_mouse_l.clicked_name,resp,t_resp,corr,train_trials.thisRepN,train_trials.thisTrialN,train_trials.thisN,train_trials.thisIndex,train_trials.ran,cat_mouse_t.x,cat_mouse_t.y,cat_mouse_t.leftButton,cat_mouse_t.midButton,cat_mouse_t.rightButton,cat_mouse_t.time,cat_mouse_t.clicked_name,test_trials.thisRepN,test_trials.thisTrialN,test_trials.thisN,test_trials.thisIndex,test_trials.ran,Bonus
5ed543442db0060a955d12e1,SCR,2024-06-11_12h09.58.118,LearnStrategy,2023.2.3,MacIntel,59.52380952,,,,,,,,,,,,,,,,,,,,,,,,,,,,,,,,,,,,,,,,,,,,,
5ed543442db0060a955d12e1,SCR,2024-06-11_12h09.58.118,LearnStrategy,2023.2.3,MacIntel,59.52380952,1,1,1,0.540939128,0.372896898,1,0,0,2.8466,Obsidian_09,5,09,6,8,2.847,5,09,-0.343674655,-0.401579115,1,0,0,3.9407,Obsidian_rect,5,3.941,1,0,0,0,0,1,,,,,,,,,,,,,
5ed543442db0060a955d12e1,SCR,2024-06-11_12h09.58.118,LearnStrategy,2023.2.3,MacIntel,59.52380952,1,1,2,-0.36546936,0.082384644,1,0,0,1.3141,Diorite_14,3,14,4,2,1.314,3,14,-0.096237793,-0.256638116,1,0,0,6.8065,Basalt_rect,2,6.807,0,1,0,1,0,1,,,,,,,,,,,,,
5ed543442db0060a955d12e1,SCR,2024-06-11_12h09.58.118,LearnStrategy,2023.2.3,MacIntel,59.52380952,1,1,3,-0.255514594,-0.267894151,1,0,0,1.2641,Basalt_06,2,06,2,3,1.264,2,06,-0.160540161,-0.251886393,1,0,0,2.7956,Basalt_rect,2,2.796,1,2,0,2,0,1,,,,,,,,,,,,,
5ed543442db0060a955d12e1,SCR,2024-06-11_12h09.58.118,LearnStrategy,2023.2.3,MacIntel,59.52380952,1,1,4,0.510599365,0.233679013,1,0,0,1.5818,Peridotite_06,7,06,5,8,1.582,7,06,0.318114556,-0.390552097,1,0,0,5.4885,Pumice_rect,8,5.489,0,3,0,3,0,1,,,,,,,,,,,,,
5ed543442db0060a955d12e1,SCR,2024-06-11_12h09.58.118,LearnStrategy,2023.2.3,MacIntel,59.52380952,1,1,5,-0.209511651,0.279648726,1,0,0,1.1969,Basalt_05,2,05,5,3,1.197,2,05,0.088469306,-0.24483724,1,0,0,4.0112,Diorite_rect,3,4.011,0,4,0,4,0,1,,,,,,,,,,,,,
5ed543442db0060a955d12e1,SCR,2024-06-11_12h09.58.118,LearnStrategy,2023.2.3,MacIntel,59.52380952,1,1,6,-0.079503716,-0.434872572,1,0,0,1.2626,Obsidian_02,5,02,1,4,1.263,5,02,-0.345443251,-0.396342027,1,0,0,1.5602,Obsidian_rect,5,1.56,1,5,0,5,0,1,,,,,,,,,,,,,
5ed543442db0060a955d12e1,SCR,2024-06-11_12h09.58.118,LearnStrategy,2023.2.3,MacIntel,59.52380952,1,1,7,0.497208659,0.077508206,1,0,0,1.7292,Gabbro_01,4,01,4,8,1.729,4,01,0.134801093,-0.244121094,1,0,0,5.2768,Diorite_rect,3,5.277,0,6,0,6,0,1,,,,,,,,,,,,,
5ed543442db0060a955d12e1,SCR,2024-06-11_12h09.58.118,LearnStrategy,2023.2.3,MacIntel,59.52380952,1,1,8,-0.388534546,0.39800471,1,0,0,1.1464,Andesite_09,1,09,6,2,1.146,1,09,-0.174336073,-0.243909166,1,0,0,2.0486,Basalt_rect,2,2.049,0,7,0,7,0,1,,,,,,,,,,,,,
5ed543442db0060a955d12e1,SCR,2024-06-11_12h09.58.118,LearnStrategy,2023.2.3,MacIntel,59.52380952,1,1,9,0.354412842,0.39724389,1,0,0,1.3482,Andesite_05,1,05,6,7,1.348,1,05,-0.355056763,-0.238187866,1,0,0,4.4546,Andesite_rect,1,4.455,1,8,0,8,0,1,,,,,,,,,,,,,
5ed543442db0060a955d12e1,SCR,2024-06-11_12h09.58.118,LearnStrategy,2023.2.3,MacIntel,59.52380952,1,1,10,0.520909695,-0.126837497,1,0,0,1.1142,Pegmatite_13,6,13,3,8,1.114,6,13,-0.144705404,-0.406672906,1,0,0,3.4765,Pegmatite_rect,6,3.476,1,9,0,9,0,1,,,,,,,,,,,,,
5ed543442db0060a955d12e1,SCR,2024-06-11_12h09.58.118,LearnStrategy,2023.2.3,MacIntel,59.52380952,1,1,11,0.091731567,0.391731686,1,0,0,1.3307,Peridotite_08,7,08,6,5,1.331,7,08,0.075266181,-0.397226088,1,0,0,5.7976,Peridotite_rect,7,5.798,1,10,0,10,0,1,,,,,,,,,,,,,
5ed543442db0060a955d12e1,SCR,2024-06-11_12h09.58.118,LearnStrategy,2023.2.3,MacIntel,59.52380952,1,1,12,-0.071885376,0.436191711,1,0,0,1.2483,Pumice_09,8,09,6,4,1.248,8,09,-0.169779324,-0.400038317,1,0,0,3.843,Pegmatite_rect,6,3.843,0,11,0,11,0,1,,,,,,,,,,,,,
5ed543442db0060a955d12e1,SCR,2024-06-11_12h09.58.118,LearnStrategy,2023.2.3,MacIntel,59.52380952,1,1,13,0.36107666,-0.259052124,1,0,0,1.4496,Pumice_13,8,13,2,7,1.45,8,13,-0.099343126,-0.418357205,1,0,0,1.7742,Pegmatite_rect,6,1.774,0,12,0,12,0,1,,,,,,,,,,,,,
5ed543442db0060a955d12e1,SCR,2024-06-11_12h09.58.118,LearnStrategy,2023.2.3,MacIntel,59.52380952,1,1,14,-0.367842,0.221349623,1,0,0,1.4805,Diorite_02,3,02,5,2,1.481,3,02,0.107703654,-0.267585856,1,0,0,5.5577,Diorite_rect,3,5.558,1,13,0,13,0,1,,,,,,,,,,,,,
5ed543442db0060a955d12e1,SCR,2024-06-11_12h09.58.118,LearnStrategy,2023.2.3,MacIntel,59.52380952,1,1,15,0.064052734,0.077876383,1,0,0,1.2144,Gabbro_03,4,03,4,5,1.214,4,03,0.109448107,-0.264976807,1,0,0,3.0216,Diorite_rect,3,3.022,0,14,0,14,0,1,,,,,,,,,,,,,
5ed543442db0060a955d12e1,SCR,2024-06-11_12h09.58.118,LearnStrategy,2023.2.3,MacIntel,59.52380952,1,1,16,-0.54457623,0.107235107,1,0,0,1.332,Pegmatite_15,6,15,4,1,1.332,6,15,0.324334106,-0.245960422,1,0,0,3.2385,Gabbro_rect,4,3.238,0,15,0,15,0,1,,,,,,,,,,,,,
5ed543442db0060a955d12e1,SCR,2024-06-11_12h09.58.118,LearnStrategy,2023.2.3,MacIntel,59.52380952,1,2,1,,,,,,,,8,02,,,,,,,,,,,,,8,1.759,1,,,,,,0.416250949,-0.397292277,1,0,0,1.7589,Pumice_rect,0,0,0,0,1,
5ed543442db0060a955d12e1,SCR,2024-06-11_12h09.58.118,LearnStrategy,2023.2.3,MacIntel,59.52380952,1,2,2,,,,,,,,5,07,,,,,,,,,,,,,5,1.922,1,,,,,,-0.341333754,-0.397328356,1,0,0,1.9223,Obsidian_rect,1,0,1,0,1,
5ed543442db0060a955d12e1,SCR,2024-06-11_12h09.58.118,LearnStrategy,2023.2.3,MacIntel,59.52380952,1,2,3,,,,,,,,8,14,,,,,,,,,,,,,6,1.416,0,,,,,,-0.114207221,-0.402252469,1,0,0,1.4157,Pegmatite_rect,2,0,2,0,1,
5ed543442db0060a955d12e1,SCR,2024-06-11_12h09.58.118,LearnStrategy,2023.2.3,MacIntel,59.52380952,1,2,4,,,,,,,,5,11,,,,,,,,,,,,,5,1.228,1,,,,,,-0.362861464,-0.410537788,1,0,0,1.2278,Obsidian_rect,3,0,3,0,1,
5ed543442db0060a955d12e1,SCR,2024-06-11_12h09.58.118,LearnStrategy,2023.2.3,MacIntel,59.52380952,1,2,5,,,,,,,,2,11,,,,,,,,,,,,,2,1.591,1,,,,,,-0.157449409,-0.256061469,1,0,0,1.5913,Basalt_rect,4,0,4,0,1,
5ed543442db0060a955d12e1,SCR,2024-06-11_12h09.58.118,LearnStrategy,2023.2.3,MacIntel,59.52380952,1,2,6,,,,,,,,4,08,,,,,,,,,,,,,3,2.615,0,,,,,,0.065839572,-0.254832357,1,0,0,2.6146,Diorite_rect,5,0,5,0,1,
5ed543442db0060a955d12e1,SCR,2024-06-11_12h09.58.118,LearnStrategy,2023.2.3,MacIntel,59.52380952,1,2,7,,,,,,,,6,05,,,,,,,,,,,,,4,4.676,0,,,,,,0.379160699,-0.234081217,1,0,0,4.6763,Gabbro_rect,6,0,6,0,1,
5ed543442db0060a955d12e1,SCR,2024-06-11_12h09.58.118,LearnStrategy,2023.2.3,MacIntel,59.52380952,1,2,8,,,,,,,,6,10,,,,,,,,,,,,,6,3.739,1,,,,,,-0.10993788,-0.413482463,1,0,0,3.739,Pegmatite_rect,7,0,7,0,1,
5ed543442db0060a955d12e1,SCR,2024-06-11_12h09.58.118,LearnStrategy,2023.2.3,MacIntel,59.52380952,1,2,9,,,,,,,,3,15,,,,,,,,,,,,,3,2.268,1,,,,,,0.149764133,-0.23577474,1,0,0,2.2678,Diorite_rect,8,0,8,0,1,
5ed543442db0060a955d12e1,SCR,2024-06-11_12h09.58.118,LearnStrategy,2023.2.3,MacIntel,59.52380952,1,2,10,,,,,,,,4,12,,,,,,,,,,,,,2,2.457,0,,,,,,-0.118208754,-0.260668945,1,0,0,2.4568,Basalt_rect,9,0,9,0,1,
5ed543442db0060a955d12e1,SCR,2024-06-11_12h09.58.118,LearnStrategy,2023.2.3,MacIntel,59.52380952,1,2,11,,,,,,,,7,04,,,,,,,,,,,,,1,3.03,0,,,,,,-0.362462633,-0.245040012,1,0,0,3.0296,Andesite_rect,10,0,10,0,1,
5ed543442db0060a955d12e1,SCR,2024-06-11_12h09.58.118,LearnStrategy,2023.2.3,MacIntel,59.52380952,1,2,12,,,,,,,,1,02,,,,,,,,,,,,,4,2.513,0,,,,,,0.385973714,-0.239525011,1,0,0,2.5128,Gabbro_rect,11,0,11,0,1,
5ed543442db0060a955d12e1,SCR,2024-06-11_12h09.58.118,LearnStrategy,2023.2.3,MacIntel,59.52380952,1,2,13,,,,,,,,2,12,,,,,,,,,,,,,2,1.661,1,,,,,,-0.111079102,-0.245739814,1,0,0,1.6607,Basalt_rect,12,0,12,0,1,
5ed543442db0060a955d12e1,SCR,2024-06-11_12h09.58.118,LearnStrategy,2023.2.3,MacIntel,59.52380952,1,2,14,,,,,,,,3,11,,,,,,,,,,,,,7,2.661,0,,,,,,0.115783217,-0.387583279,1,0,0,2.6608,Peridotite_rect,13,0,13,0,1,
5ed543442db0060a955d12e1,SCR,2024-06-11_12h09.58.118,LearnStrategy,2023.2.3,MacIntel,59.52380952,1,2,15,,,,,,,,7,13,,,,,,,,,,,,,3,2.875,0,,,,,,0.114034153,-0.26772583,1,0,0,2.8747,Diorite_rect,14,0,14,0,1,
5ed543442db0060a955d12e1,SCR,2024-06-11_12h09.58.118,LearnStrategy,2023.2.3,MacIntel,59.52380952,1,2,16,,,,,,,,1,07,,,,,,,,,,,,,3,1.992,0,,,,,,0.114034153,-0.26772583,1,0,0,1.9922,Diorite_rect,15,0,15,0,1,
5ed543442db0060a955d12e1,SCR,2024-06-11_12h09.58.118,LearnStrategy,2023.2.3,MacIntel,59.52380952,2,1,1,-0.549460144,0.226387193,1,0,0,9.9329,Obsidian_05,5,05,5,1,9.933,6,07,-0.355777791,-0.402641195,1,0,0,5.0001,Obsidian_rect,5,5,1,0,0,0,0,1,,,,,,,,,,,,,
5ed543442db0060a955d12e1,SCR,2024-06-11_12h09.58.118,LearnStrategy,2023.2.3,MacIntel,59.52380952,2,1,2,0.085573324,-0.401332194,1,0,0,4.4982,Obsidian_06,5,06,1,5,4.498,4,11,-0.36734314,-0.388544176,1,0,0,1.4879,Obsidian_rect,5,1.488,1,1,0,1,0,1,,,,,,,,,,,,,
5ed543442db0060a955d12e1,SCR,2024-06-11_12h09.58.118,LearnStrategy,2023.2.3,MacIntel,59.52380952,2,1,3,-0.380394355,0.088602702,1,0,0,2.1241,Diorite_14,3,14,4,2,2.124,6,15,0.103205566,-0.251345486,1,0,0,6.6811,Diorite_rect,3,6.681,1,2,0,2,0,1,,,,,,,,,,,,,
5ed543442db0060a955d12e1,SCR,2024-06-11_12h09.58.118,LearnStrategy,2023.2.3,MacIntel,59.52380952,2,1,4,-0.229571262,0.078446655,1,0,0,2.6807,Andesite_06,1,06,4,3,2.681,2,09,-0.138395182,-0.244523112,1,0,0,3.2938,Basalt_rect,2,3.294,0,3,0,3,0,1,,,,,,,,,,,,,
5ed543442db0060a955d12e1,SCR,2024-06-11_12h09.58.118,LearnStrategy,2023.2.3,MacIntel,59.52380952,2,1,5,-0.062657064,0.074383952,1,0,0,3.3989,Gabbro_13,4,13,4,4,3.399,1,14,0.104557699,-0.40038642,1,0,0,1.5981,Peridotite_rect,7,1.598,0,4,0,4,0,1,,,,,,,,,,,,,
5ed543442db0060a955d12e1,SCR,2024-06-11_12h09.58.118,LearnStrategy,2023.2.3,MacIntel,59.52380952,2,1,6,0.583117676,-0.097277696,1,0,0,1.647,Pegmatite_13,6,13,3,8,1.647,3,14,0.089179416,-0.392491455,1,0,0,2.1115,Peridotite_rect,7,2.112,0,5,0,5,0,1,,,,,,,,,,,,,
5ed543442db0060a955d12e1,SCR,2024-06-11_12h09.58.118,LearnStrategy,2023.2.3,MacIntel,59.52380952,2,1,7,-0.076263224,-0.251519504,1,0,0,6.6705,Andesite_14,1,14,2,4,6.671,1,10,-0.33357293,-0.236881171,1,0,0,3.2274,Andesite_rect,1,3.227,1,6,0,6,0,1,,,,,,,,,,,,,
5ed543442db0060a955d12e1,SCR,2024-06-11_12h09.58.118,LearnStrategy,2023.2.3,MacIntel,59.52380952,2,1,8,0.543790419,-0.119662611,1,0,0,3.5147,Pegmatite_13,6,13,3,8,3.515,8,08,-0.11376614,-0.400773044,1,0,0,3.2551,Pegmatite_rect,6,3.255,1,7,0,7,0,1,,,,,,,,,,,,,
5ed543442db0060a955d12e1,SCR,2024-06-11_12h09.58.118,LearnStrategy,2023.2.3,MacIntel,59.52380952,2,1,9,0.383374023,0.394847429,1,0,0,3.6164,Andesite_05,1,05,6,7,3.616,1,14,0.105203451,-0.236566976,1,0,0,2.9666,Diorite_rect,3,2.967,0,8,0,8,0,1,,,,,,,,,,,,,
5ed543442db0060a955d12e1,SCR,2024-06-11_12h09.58.118,LearnStrategy,2023.2.3,MacIntel,59.52380952,2,1,10,-0.520984463,-0.244131741,1,0,0,4.6479,Peridotite_14,7,14,2,1,4.648,7,05,-0.155098199,-0.397537977,1,0,0,2.3327,Pegmatite_rect,6,2.333,0,9,0,9,0,1,,,,,,,,,,,,,
5ed543442db0060a955d12e1,SCR,2024-06-11_12h09.58.118,LearnStrategy,2023.2.3,MacIntel,59.52380952,2,1,11,0.272942301,-0.106304593,1,0,0,1.7839,Gabbro_11,4,11,3,6,1.784,7,06,-0.158654921,-0.260881076,1,0,0,2.1986,Basalt_rect,2,2.199,0,10,0,10,0,1,,,,,,,,,,,,,
5ed543442db0060a955d12e1,SCR,2024-06-11_12h09.58.118,LearnStrategy,2023.2.3,MacIntel,59.52380952,2,1,12,0.41435357,0.105255873,1,0,0,3.4832,Diorite_13,3,13,4,7,3.483,7,06,0.107498644,-0.420976427,1,0,0,1.8608,Peridotite_rect,7,1.861,0,11,0,11,0,1,,,,,,,,,,,,,
5ed543442db0060a955d12e1,SCR,2024-06-11_12h09.58.118,LearnStrategy,2023.2.3,MacIntel,59.52380952,2,1,13,-0.090125326,0.113761597,1,0,0,1.1713,Gabbro_13,4,13,4,4,1.171,4,13,-0.372965529,-0.240968831,1,0,0,4.3162,Andesite_rect,1,4.316,0,12,0,12,0,1,,,,,,,,,,,,,
5ed543442db0060a955d12e1,SCR,2024-06-11_12h09.58.118,LearnStrategy,2023.2.3,MacIntel,59.52380952,2,1,14,-0.386259291,0.291167145,1,0,0,1.961,Diorite_02,3,02,5,2,1.961,8,08,0.073241374,-0.408048231,1,0,0,2.9474,Peridotite_rect,7,2.947,0,13,0,13,0,1,,,,,,,,,,,,,
5ed543442db0060a955d12e1,SCR,2024-06-11_12h09.58.118,LearnStrategy,2023.2.3,MacIntel,59.52380952,2,1,15,0.535305447,-0.267089776,1,0,0,2.9665,Pegmatite_11,6,11,2,8,2.966,3,14,0.154522027,-0.258931003,1,0,0,4.5992,Diorite_rect,3,4.599,0,14,0,14,0,1,,,,,,,,,,,,,
5ed543442db0060a955d12e1,SCR,2024-06-11_12h09.58.118,LearnStrategy,2023.2.3,MacIntel,59.52380952,2,1,16,-0.543821852,-0.399892782,1,0,0,4.0667,Diorite_12,3,12,1,1,4.067,4,11,-0.460938924,-0.230683322,1,0,0,2.6057,Andesite_rect,1,2.606,0,15,0,15,0,1,,,,,,,,,,,,,
5ed543442db0060a955d12e1,SCR,2024-06-11_12h09.58.118,LearnStrategy,2023.2.3,MacIntel,59.52380952,2,2,1,,,,,,,,4,10,,,,,,,,,,,,,8,5.371,0,,,,,,0.389078098,-0.395092977,1,0,0,5.371,Pumice_rect,0,0,0,0,1,
5ed543442db0060a955d12e1,SCR,2024-06-11_12h09.58.118,LearnStrategy,2023.2.3,MacIntel,59.52380952,2,2,2,,,,,,,,7,12,,,,,,,,,,,,,3,3.318,0,,,,,,0.118135851,-0.26084337,1,0,0,3.3185,Diorite_rect,1,0,1,0,1,
5ed543442db0060a955d12e1,SCR,2024-06-11_12h09.58.118,LearnStrategy,2023.2.3,MacIntel,59.52380952,2,2,3,,,,,,,,2,02,,,,,,,,,,,,,2,1.347,1,,,,,,-0.108411594,-0.237191298,1,0,0,1.347,Basalt_rect,2,0,2,0,1,
5ed543442db0060a955d12e1,SCR,2024-06-11_12h09.58.118,LearnStrategy,2023.2.3,MacIntel,59.52380952,2,2,4,,,,,,,,8,16,,,,,,,,,,,,,8,2.306,1,,,,,,0.414122179,-0.398873155,1,0,0,2.3063,Pumice_rect,3,0,3,0,1,
5ed543442db0060a955d12e1,SCR,2024-06-11_12h09.58.118,LearnStrategy,2023.2.3,MacIntel,59.52380952,2,2,5,,,,,,,,2,01,,,,,,,,,,,,,2,1.389,1,,,,,,-0.117364841,-0.245792033,1,0,0,1.389,Basalt_rect,4,0,4,0,1,
5ed543442db0060a955d12e1,SCR,2024-06-11_12h09.58.118,LearnStrategy,2023.2.3,MacIntel,59.52380952,2,2,6,,,,,,,,1,11,,,,,,,,,,,,,4,4.222,0,,,,,,0.349678413,-0.25260532,1,0,0,4.2225,Gabbro_rect,5,0,5,0,1,
5ed543442db0060a955d12e1,SCR,2024-06-11_12h09.58.118,LearnStrategy,2023.2.3,MacIntel,59.52380952,2,2,7,,,,,,,,3,08,,,,,,,,,,,,,3,3.644,1,,,,,,0.107958645,-0.259823473,1,0,0,3.6441,Diorite_rect,6,0,6,0,1,
5ed543442db0060a955d12e1,SCR,2024-06-11_12h09.58.118,LearnStrategy,2023.2.3,MacIntel,59.52380952,2,2,8,,,,,,,,4,16,,,,,,,,,,,,,2,1.482,0,,,,,,-0.094061008,-0.245527412,1,0,0,1.4823,Basalt_rect,7,0,7,0,1,
5ed543442db0060a955d12e1,SCR,2024-06-11_12h09.58.118,LearnStrategy,2023.2.3,MacIntel,59.52380952,2,2,9,,,,,,,,8,06,,,,,,,,,,,,,8,1.283,1,,,,,,0.401294759,-0.412265422,1,0,0,1.283,Pumice_rect,8,0,8,0,1,
5ed543442db0060a955d12e1,SCR,2024-06-11_12h09.58.118,LearnStrategy,2023.2.3,MacIntel,59.52380952,2,2,10,,,,,,,,6,16,,,,,,,,,,,,,1,2.019,0,,,,,,-0.338990479,-0.258208415,1,0,0,2.0193,Andesite_rect,9,0,9,0,1,
5ed543442db0060a955d12e1,SCR,2024-06-11_12h09.58.118,LearnStrategy,2023.2.3,MacIntel,59.52380952,2,2,11,,,,,,,,6,12,,,,,,,,,,,,,3,2.559,0,,,,,,0.092853936,-0.2663581,1,0,0,2.5588,Diorite_rect,10,0,10,0,1,
5ed543442db0060a955d12e1,SCR,2024-06-11_12h09.58.118,LearnStrategy,2023.2.3,MacIntel,59.52380952,2,2,12,,,,,,,,5,12,,,,,,,,,,,,,5,2.105,1,,,,,,-0.390705566,-0.400118137,1,0,0,2.1052,Obsidian_rect,11,0,11,0,1,
5ed543442db0060a955d12e1,SCR,2024-06-11_12h09.58.118,LearnStrategy,2023.2.3,MacIntel,59.52380952,2,2,13,,,,,,,,3,07,,,,,,,,,,,,,7,1.942,0,,,,,,0.059068536,-0.392041016,1,0,0,1.9416,Peridotite_rect,12,0,12,0,1,
5ed543442db0060a955d12e1,SCR,2024-06-11_12h09.58.118,LearnStrategy,2023.2.3,MacIntel,59.52380952,2,2,14,,,,,,,,5,16,,,,,,,,,,,,,5,1.196,1,,,,,,-0.380189819,-0.39187656,1,0,0,1.1962,Obsidian_rect,13,0,13,0,1,
5ed543442db0060a955d12e1,SCR,2024-06-11_12h09.58.118,LearnStrategy,2023.2.3,MacIntel,59.52380952,2,2,15,,,,,,,,7,15,,,,,,,,,,,,,3,3.875,0,,,,,,0.131000705,-0.255406087,1,0,0,3.8747,Diorite_rect,14,0,14,0,1,
5ed543442db0060a955d12e1,SCR,2024-06-11_12h09.58.118,LearnStrategy,2023.2.3,MacIntel,59.52380952,2,2,16,,,,,,,,1,01,,,,,,,,,,,,,4,2.481,0,,,,,,0.415099826,-0.250701226,1,0,0,2.4811,Gabbro_rect,15,0,15,0,1,
5ed543442db0060a955d12e1,SCR,2024-06-11_12h09.58.118,LearnStrategy,2023.2.3,MacIntel,59.52380952,3,1,1,-0.233934258,0.068295492,1,0,0,3.2148,Andesite_06,1,06,4,3,3.215,1,06,0.434464383,-0.240993517,1,0,0,2.8663,Gabbro_rect,4,2.866,0,0,0,0,0,1,,,,,,,,,,,,,
5ed543442db0060a955d12e1,SCR,2024-06-11_12h09.58.118,LearnStrategy,2023.2.3,MacIntel,59.52380952,3,1,2,0.208099772,-0.249485948,1,0,0,1.2831,Peridotite_05,7,05,2,6,1.283,7,05,-0.365661621,-0.250743815,1,0,0,3.669,Andesite_rect,1,3.669,0,1,0,1,0,1,,,,,,,,,,,,,
5ed543442db0060a955d12e1,SCR,2024-06-11_12h09.58.118,LearnStrategy,2023.2.3,MacIntel,59.52380952,3,1,3,0.50445204,0.059196642,1,0,0,1.3667,Gabbro_01,4,01,4,8,1.367,4,01,0.10519911,-0.395520969,1,0,0,2.0624,Peridotite_rect,7,2.062,0,2,0,2,0,1,,,,,,,,,,,,,
5ed543442db0060a955d12e1,SCR,2024-06-11_12h09.58.118,LearnStrategy,2023.2.3,MacIntel,59.52380952,3,1,4,0.557236328,0.252326321,1,0,0,1.2626,Peridotite_06,7,06,5,8,1.263,7,06,0.101889106,-0.251313951,1,0,0,1.9424,Diorite_rect,3,1.942,0,3,0,3,0,1,,,,,,,,,,,,,
5ed543442db0060a955d12e1,SCR,2024-06-11_12h09.58.118,LearnStrategy,2023.2.3,MacIntel,59.52380952,3,1,5,-0.360820923,0.40168652,1,0,0,1.4434,Andesite_09,1,09,6,2,1.443,1,09,-0.168149143,-0.245589871,1,0,0,1.3486,Basalt_rect,2,1.349,0,4,0,4,0,1,,,,,,,,,,,,,
5ed543442db0060a955d12e1,SCR,2024-06-11_12h09.58.118,LearnStrategy,2023.2.3,MacIntel,59.52380952,3,1,6,-0.096299371,0.130181478,1,0,0,0.9323,Gabbro_13,4,13,4,4,0.932,4,13,-0.048882311,-0.401037598,1,0,0,1.9346,Pegmatite_rect,6,1.935,0,5,0,5,0,1,,,,,,,,,,,,,
5ed543442db0060a955d12e1,SCR,2024-06-11_12h09.58.118,LearnStrategy,2023.2.3,MacIntel,59.52380952,3,1,7,-0.3991234,-0.434409044,1,0,0,1.4486,Pegmatite_07,6,07,1,2,1.449,6,07,-0.361677517,-0.25528361,1,0,0,3.1607,Andesite_rect,1,3.161,0,6,0,6,0,1,,,,,,,,,,,,,
5ed543442db0060a955d12e1,SCR,2024-06-11_12h09.58.118,LearnStrategy,2023.2.3,MacIntel,59.52380952,3,1,8,0.521177572,-0.103064914,1,0,0,1.2656,Pegmatite_13,6,13,3,8,1.266,6,13,-0.136484307,-0.407632378,1,0,0,2.0518,Pegmatite_rect,6,2.052,1,7,0,7,0,1,,,,,,,,,,,,,
5ed543442db0060a955d12e1,SCR,2024-06-11_12h09.58.118,LearnStrategy,2023.2.3,MacIntel,59.52380952,3,1,9,0.362066786,0.047396308,1,0,0,1.0974,Diorite_13,3,13,4,7,1.097,3,13,0.100255263,-0.261171875,1,0,0,2.2931,Diorite_rect,3,2.293,1,8,0,8,0,1,,,,,,,,,,,,,
5ed543442db0060a955d12e1,SCR,2024-06-11_12h09.58.118,LearnStrategy,2023.2.3,MacIntel,59.52380952,3,1,10,-0.539711015,-0.400969374,1,0,0,1.1655,Diorite_12,3,12,1,1,1.165,3,12,0.399185113,-0.233432007,1,0,0,2.4198,Gabbro_rect,4,2.42,0,9,0,9,0,1,,,,,,,,,,,,,
5ed543442db0060a955d12e1,SCR,2024-06-11_12h09.58.118,LearnStrategy,2023.2.3,MacIntel,59.52380952,3,1,11,-0.560924191,0.392125549,1,0,0,1.3315,Pegmatite_09,6,09,6,1,1.332,6,09,-0.127956136,-0.402778456,1,0,0,2.4667,Pegmatite_rect,6,2.467,1,10,0,10,0,1,,,,,,,,,,,,,
5ed543442db0060a955d12e1,SCR,2024-06-11_12h09.58.118,LearnStrategy,2023.2.3,MacIntel,59.52380952,3,1,12,-0.092174547,0.260604129,1,0,0,1.3641,Basalt_09,2,09,5,4,1.364,2,09,-0.109493883,-0.252274441,1,0,0,2.538,Basalt_rect,2,2.538,1,11,0,11,0,1,,,,,,,,,,,,,
5ed543442db0060a955d12e1,SCR,2024-06-11_12h09.58.118,LearnStrategy,2023.2.3,MacIntel,59.52380952,3,1,13,0.365771484,0.402637465,1,0,0,1.216,Andesite_05,1,05,6,7,1.216,1,05,0.35302341,-0.25583591,1,0,0,2.4185,Gabbro_rect,4,2.418,0,12,0,12,0,1,,,,,,,,,,,,,
5ed543442db0060a955d12e1,SCR,2024-06-11_12h09.58.118,LearnStrategy,2023.2.3,MacIntel,59.52380952,3,1,14,0.078204414,-0.272068549,1,0,0,1.0981,Gabbro_09,4,09,2,5,1.098,4,09,-0.122129042,-0.402852783,1,0,0,2.4509,Pegmatite_rect,6,2.451,0,13,0,13,0,1,,,,,,,,,,,,,
5ed543442db0060a955d12e1,SCR,2024-06-11_12h09.58.118,LearnStrategy,2023.2.3,MacIntel,59.52380952,3,1,15,-0.230514391,-0.123116319,1,0,0,0.9653,Pumice_03,8,03,3,3,0.965,8,03,0.342485894,-0.379808824,1,0,0,1.2339,Pumice_rect,8,1.234,1,14,0,14,0,1,,,,,,,,,,,,,
5ed543442db0060a955d12e1,SCR,2024-06-11_12h09.58.118,LearnStrategy,2023.2.3,MacIntel,59.52380952,3,1,16,-0.539841037,-0.255579359,1,0,0,1.7494,Peridotite_14,7,14,2,1,1.749,7,14,-0.413794657,-0.252538113,1,0,0,2.0205,Andesite_rect,1,2.021,0,15,0,15,0,1,,,,,,,,,,,,,
5ed543442db0060a955d12e1,SCR,2024-06-11_12h09.58.118,LearnStrategy,2023.2.3,MacIntel,59.52380952,3,2,1,,,,,,,,3,16,,,,,,,,,,,,,3,2.657,1,,,,,,0.115380859,-0.256447008,1,0,0,2.6567,Diorite_rect,0,0,0,0,1,
5ed543442db0060a955d12e1,SCR,2024-06-11_12h09.58.118,LearnStrategy,2023.2.3,MacIntel,59.52380952,3,2,2,,,,,,,,2,14,,,,,,,,,,,,,1,2.714,0,,,,,,-0.380720283,-0.262538045,1,0,0,2.7137,Andesite_rect,1,0,1,0,1,
5ed543442db0060a955d12e1,SCR,2024-06-11_12h09.58.118,LearnStrategy,2023.2.3,MacIntel,59.52380952,3,2,3,,,,,,,,4,05,,,,,,,,,,,,,6,4.253,0,,,,,,-0.08450236,-0.4052103,1,0,0,4.2533,Pegmatite_rect,2,0,2,0,1,
5ed543442db0060a955d12e1,SCR,2024-06-11_12h09.58.118,LearnStrategy,2023.2.3,MacIntel,59.52380952,3,2,4,,,,,,,,7,10,,,,,,,,,,,,,4,2.662,0,,,,,,0.356053874,-0.265930854,1,0,0,2.6619,Gabbro_rect,3,0,3,0,1,
5ed543442db0060a955d12e1,SCR,2024-06-11_12h09.58.118,LearnStrategy,2023.2.3,MacIntel,59.52380952,3,2,5,,,,,,,,1,03,,,,,,,,,,,,,1,2.375,1,,,,,,-0.366134169,-0.23743788,1,0,0,2.3749,Andesite_rect,4,0,4,0,1,
5ed543442db0060a955d12e1,SCR,2024-06-11_12h09.58.118,LearnStrategy,2023.2.3,MacIntel,59.52380952,3,2,6,,,,,,,,1,16,,,,,,,,,,,,,7,2.327,0,,,,,,0.094560886,-0.389125366,1,0,0,2.3269,Peridotite_rect,5,0,5,0,1,
5ed543442db0060a955d12e1,SCR,2024-06-11_12h09.58.118,LearnStrategy,2023.2.3,MacIntel,59.52380952,3,2,7,,,,,,,,6,08,,,,,,,,,,,,,6,2.07,1,,,,,,-0.10452223,-0.393456082,1,0,0,2.0696,Pegmatite_rect,6,0,6,0,1,
5ed543442db0060a955d12e1,SCR,2024-06-11_12h09.58.118,LearnStrategy,2023.2.3,MacIntel,59.52380952,3,2,8,,,,,,,,8,15,,,,,,,,,,,,,8,1.417,1,,,,,,0.410062527,-0.390259128,1,0,0,1.4175,Pumice_rect,7,0,7,0,1,
5ed543442db0060a955d12e1,SCR,2024-06-11_12h09.58.118,LearnStrategy,2023.2.3,MacIntel,59.52380952,3,2,9,,,,,,,,6,06,,,,,,,,,,,,,6,3.328,1,,,,,,-0.110906711,-0.4012618,1,0,0,3.328,Pegmatite_rect,8,0,8,0,1,
5ed543442db0060a955d12e1,SCR,2024-06-11_12h09.58.118,LearnStrategy,2023.2.3,MacIntel,59.52380952,3,2,10,,,,,,,,8,04,,,,,,,,,,,,,8,1.195,1,,,,,,0.382565918,-0.386724582,1,0,0,1.1954,Pumice_rect,9,0,9,0,1,
5ed543442db0060a955d12e1,SCR,2024-06-11_12h09.58.118,LearnStrategy,2023.2.3,MacIntel,59.52380952,3,2,11,,,,,,,,7,07,,,,,,,,,,,,,1,3.587,0,,,,,,-0.362119954,-0.24762519,1,0,0,3.5869,Andesite_rect,10,0,10,0,1,
5ed543442db0060a955d12e1,SCR,2024-06-11_12h09.58.118,LearnStrategy,2023.2.3,MacIntel,59.52380952,3,2,12,,,,,,,,4,15,,,,,,,,,,,,,4,2.125,1,,,,,,0.431861979,-0.249249539,1,0,0,2.125,Gabbro_rect,11,0,11,0,1,
5ed543442db0060a955d12e1,SCR,2024-06-11_12h09.58.118,LearnStrategy,2023.2.3,MacIntel,59.52380952,3,2,13,,,,,,,,5,04,,,,,,,,,,,,,5,1.287,1,,,,,,-0.363399997,-0.400997857,1,0,0,1.2867,Obsidian_rect,12,0,12,0,1,
5ed543442db0060a955d12e1,SCR,2024-06-11_12h09.58.118,LearnStrategy,2023.2.3,MacIntel,59.52380952,3,2,14,,,,,,,,5,10,,,,,,,,,,,,,5,1.243,1,,,,,,-0.380823263,-0.38282152,1,0,0,1.2431,Obsidian_rect,13,0,13,0,1,
5ed543442db0060a955d12e1,SCR,2024-06-11_12h09.58.118,LearnStrategy,2023.2.3,MacIntel,59.52380952,3,2,15,,,,,,,,3,09,,,,,,,,,,,,,1,2.21,0,,,,,,-0.377603217,-0.249841648,1,0,0,2.2099,Andesite_rect,14,0,14,0,1,
5ed543442db0060a955d12e1,SCR,2024-06-11_12h09.58.118,LearnStrategy,2023.2.3,MacIntel,59.52380952,3,2,16,,,,,,,,2,10,,,,,,,,,,,,,2,1.163,1,,,,,,-0.14736613,-0.247958849,1,0,0,1.1634,Basalt_rect,15,0,15,0,1,
5ed543442db0060a955d12e1,SCR,2024-06-11_12h09.58.118,LearnStrategy,2023.2.3,MacIntel,59.52380952,4,1,1,-0.367191162,-0.263644748,1,0,0,1.4308,Gabbro_14,4,14,2,2,1.431,4,14,0.116099311,-0.260096775,1,0,0,3.5687,Diorite_rect,3,3.569,0,0,0,0,0,1,,,,,,,,,,,,,
5ed543442db0060a955d12e1,SCR,2024-06-11_12h09.58.118,LearnStrategy,2023.2.3,MacIntel,59.52380952,4,1,2,0.42323622,-0.141384684,1,0,0,1.1321,Andesite_04,1,04,3,7,1.132,1,04,0.103561266,-0.252793104,1,0,0,2.5271,Diorite_rect,3,2.527,0,1,0,1,0,1,,,,,,,,,,,,,
5ed543442db0060a955d12e1,SCR,2024-06-11_12h09.58.118,LearnStrategy,2023.2.3,MacIntel,59.52380952,4,1,3,0.382870009,-0.256128404,1,0,0,2.032,Pumice_13,8,13,2,7,2.032,8,13,0.357743869,-0.386201918,1,0,0,1.4126,Pumice_rect,8,1.413,1,2,0,2,0,1,,,,,,,,,,,,,
5ed543442db0060a955d12e1,SCR,2024-06-11_12h09.58.118,LearnStrategy,2023.2.3,MacIntel,59.52380952,4,1,4,-0.54237325,0.098691949,1,0,0,1.2814,Pegmatite_15,6,15,4,1,1.281,6,15,-0.155298055,-0.420122206,1,0,0,1.2891,Pegmatite_rect,6,1.289,1,3,0,3,0,1,,,,,,,,,,,,,
5ed543442db0060a955d12e1,SCR,2024-06-11_12h09.58.118,LearnStrategy,2023.2.3,MacIntel,59.52380952,4,1,5,-0.08623386,0.23528951,1,0,0,0.9148,Basalt_09,2,09,5,4,0.915,2,09,-0.133299561,-0.248952908,1,0,0,1.0556,Basalt_rect,2,1.056,1,4,0,4,0,1,,,,,,,,,,,,,
5ed543442db0060a955d12e1,SCR,2024-06-11_12h09.58.118,LearnStrategy,2023.2.3,MacIntel,59.52380952,4,1,6,0.234729343,-0.43983195,1,0,0,1.4082,Andesite_10,1,10,1,6,1.408,1,10,-0.356469218,-0.240759549,1,0,0,2.4116,Andesite_rect,1,2.412,1,5,0,5,0,1,,,,,,,,,,,,,
5ed543442db0060a955d12e1,SCR,2024-06-11_12h09.58.118,LearnStrategy,2023.2.3,MacIntel,59.52380952,4,1,7,0.248601345,-0.294339871,1,0,0,1.1489,Peridotite_05,7,05,2,6,1.149,7,05,0.125483466,-0.405804376,1,0,0,3.9963,Peridotite_rect,7,3.996,1,6,0,6,0,1,,,,,,,,,,,,,
5ed543442db0060a955d12e1,SCR,2024-06-11_12h09.58.118,LearnStrategy,2023.2.3,MacIntel,59.52380952,4,1,8,0.073909776,0.076510281,1,0,0,1.0016,Gabbro_03,4,03,4,5,1.002,4,03,0.119593845,-0.244211629,1,0,0,1.6436,Diorite_rect,3,1.644,0,7,0,7,0,1,,,,,,,,,,,,,
5ed543442db0060a955d12e1,SCR,2024-06-11_12h09.58.118,LearnStrategy,2023.2.3,MacIntel,59.52380952,4,1,9,0.390537516,0.104429728,1,0,0,2.3308,Diorite_13,3,13,4,7,2.331,7,02,0.359734429,-0.237449816,1,0,0,2.4693,Gabbro_rect,4,2.469,0,8,0,8,0,1,,,,,,,,,,,,,
5ed543442db0060a955d12e1,SCR,2024-06-11_12h09.58.118,LearnStrategy,2023.2.3,MacIntel,59.52380952,4,1,10,-0.524063178,-0.28016805,1,0,0,1.1159,Peridotite_14,7,14,2,1,1.116,7,14,0.117591553,-0.254145169,1,0,0,2.3097,Diorite_rect,3,2.31,0,9,0,9,0,1,,,,,,,,,,,,,
5ed543442db0060a955d12e1,SCR,2024-06-11_12h09.58.118,LearnStrategy,2023.2.3,MacIntel,59.52380952,4,1,11,-0.522398733,0.392400258,1,0,0,1.2847,Pegmatite_09,6,09,6,1,1.285,6,09,-0.159103326,-0.421714478,1,0,0,1.3073,Pegmatite_rect,6,1.307,1,10,0,10,0,1,,,,,,,,,,,,,
5ed543442db0060a955d12e1,SCR,2024-06-11_12h09.58.118,LearnStrategy,2023.2.3,MacIntel,59.52380952,4,1,12,0.525798882,-0.399364081,1,0,0,1.1149,Diorite_10,3,10,1,8,1.115,3,10,0.157733561,-0.419196981,1,0,0,2.1758,Peridotite_rect,7,2.176,0,11,0,11,0,1,,,,,,,,,,,,,
5ed543442db0060a955d12e1,SCR,2024-06-11_12h09.58.118,LearnStrategy,2023.2.3,MacIntel,59.52380952,4,1,13,-0.38668179,-0.131508857,1,0,0,1.0319,Diorite_06,3,06,3,2,1.032,3,06,0.133650716,-0.244336412,1,0,0,1.3864,Diorite_rect,3,1.386,1,12,0,12,0,1,,,,,,,,,,,,,
5ed543442db0060a955d12e1,SCR,2024-06-11_12h09.58.118,LearnStrategy,2023.2.3,MacIntel,59.52380952,4,1,14,0.40313246,0.417765689,1,0,0,1.7994,Andesite_05,1,05,6,7,1.799,1,05,0.139570584,-0.39552002,1,0,0,2.361,Peridotite_rect,7,2.361,0,13,0,13,0,1,,,,,,,,,,,,,
5ed543442db0060a955d12e1,SCR,2024-06-11_12h09.58.118,LearnStrategy,2023.2.3,MacIntel,59.52380952,4,1,15,0.248130154,-0.287232734,1,0,0,1.0826,Peridotite_05,7,05,2,6,1.083,7,05,0.15119005,-0.243140327,1,0,0,2.1002,Diorite_rect,3,2.1,0,14,0,14,0,1,,,,,,,,,,,,,
5ed543442db0060a955d12e1,SCR,2024-06-11_12h09.58.118,LearnStrategy,2023.2.3,MacIntel,59.52380952,4,1,16,-0.381022881,-0.215699056,1,0,0,1.2857,Gabbro_14,4,14,2,2,1.286,4,14,0.406423611,-0.256957872,1,0,0,1.7968,Gabbro_rect,4,1.797,1,15,0,15,0,1,,,,,,,,,,,,,
5ed543442db0060a955d12e1,SCR,2024-06-11_12h09.58.118,LearnStrategy,2023.2.3,MacIntel,59.52380952,4,2,1,,,,,,,,1,01,,,,,,,,,,,,,4,6.524,0,,,,,,0.403316379,-0.257174479,1,0,0,6.5245,Gabbro_rect,0,0,0,0,1,
5ed543442db0060a955d12e1,SCR,2024-06-11_12h09.58.118,LearnStrategy,2023.2.3,MacIntel,59.52380952,4,2,2,,,,,,,,5,07,,,,,,,,,,,,,5,1.302,1,,,,,,-0.387665541,-0.391497871,1,0,0,1.3019,Obsidian_rect,1,0,1,0,1,
5ed543442db0060a955d12e1,SCR,2024-06-11_12h09.58.118,LearnStrategy,2023.2.3,MacIntel,59.52380952,4,2,3,,,,,,,,4,16,,,,,,,,,,,,,2,3.618,0,,,,,,-0.120311957,-0.26150099,1,0,0,3.6181,Basalt_rect,2,0,2,0,1,
5ed543442db0060a955d12e1,SCR,2024-06-11_12h09.58.118,LearnStrategy,2023.2.3,MacIntel,59.52380952,4,2,4,,,,,,,,3,09,,,,,,,,,,,,,7,5.135,0,,,,,,0.136733263,-0.401283773,1,0,0,5.1347,Peridotite_rect,3,0,3,0,1,
5ed543442db0060a955d12e1,SCR,2024-06-11_12h09.58.118,LearnStrategy,2023.2.3,MacIntel,59.52380952,4,2,5,,,,,,,,6,10,,,,,,,,,,,,,6,1.369,1,,,,,,-0.145857476,-0.395752157,1,0,0,1.3693,Pegmatite_rect,4,0,4,0,1,
5ed543442db0060a955d12e1,SCR,2024-06-11_12h09.58.118,LearnStrategy,2023.2.3,MacIntel,59.52380952,4,2,6,,,,,,,,6,06,,,,,,,,,,,,,1,2.034,0,,,,,,-0.421463352,-0.258713311,1,0,0,2.0337,Andesite_rect,5,0,5,0,1,
5ed543442db0060a955d12e1,SCR,2024-06-11_12h09.58.118,LearnStrategy,2023.2.3,MacIntel,59.52380952,4,2,7,,,,,,,,2,10,,,,,,,,,,,,,2,1.16,1,,,,,,-0.130127224,-0.251483832,1,0,0,1.1602,Basalt_rect,6,0,6,0,1,
5ed543442db0060a955d12e1,SCR,2024-06-11_12h09.58.118,LearnStrategy,2023.2.3,MacIntel,59.52380952,4,2,8,,,,,,,,3,07,,,,,,,,,,,,,7,4.365,0,,,,,,0.132986925,-0.410005629,1,0,0,4.3646,Peridotite_rect,7,0,7,0,1,
5ed543442db0060a955d12e1,SCR,2024-06-11_12h09.58.118,LearnStrategy,2023.2.3,MacIntel,59.52380952,4,2,9,,,,,,,,2,11,,,,,,,,,,,,,2,1.781,1,,,,,,-0.119775391,-0.249151137,1,0,0,1.7811,Basalt_rect,8,0,8,0,1,
5ed543442db0060a955d12e1,SCR,2024-06-11_12h09.58.118,LearnStrategy,2023.2.3,MacIntel,59.52380952,4,2,10,,,,,,,,1,03,,,,,,,,,,,,,4,3.896,0,,,,,,0.401823459,-0.261263156,1,0,0,3.8959,Gabbro_rect,9,0,9,0,1,
5ed543442db0060a955d12e1,SCR,2024-06-11_12h09.58.118,LearnStrategy,2023.2.3,MacIntel,59.52380952,4,2,11,,,,,,,,8,14,,,,,,,,,,,,,8,1.268,1,,,,,,0.380294732,-0.395779351,1,0,0,1.2685,Pumice_rect,10,0,10,0,1,
5ed543442db0060a955d12e1,SCR,2024-06-11_12h09.58.118,LearnStrategy,2023.2.3,MacIntel,59.52380952,4,2,12,,,,,,,,5,04,,,,,,,,,,,,,5,1.319,1,,,,,,-0.4060731,-0.395555216,1,0,0,1.3191,Obsidian_rect,11,0,11,0,1,
5ed543442db0060a955d12e1,SCR,2024-06-11_12h09.58.118,LearnStrategy,2023.2.3,MacIntel,59.52380952,4,2,13,,,,,,,,4,05,,,,,,,,,,,,,1,1.692,0,,,,,,-0.389363675,-0.238056098,1,0,0,1.6925,Andesite_rect,12,0,12,0,1,
5ed543442db0060a955d12e1,SCR,2024-06-11_12h09.58.118,LearnStrategy,2023.2.3,MacIntel,59.52380952,4,2,14,,,,,,,,8,02,,,,,,,,,,,,,8,1.398,1,,,,,,0.380028619,-0.397574734,1,0,0,1.3976,Pumice_rect,13,0,13,0,1,
5ed543442db0060a955d12e1,SCR,2024-06-11_12h09.58.118,LearnStrategy,2023.2.3,MacIntel,59.52380952,4,2,15,,,,,,,,7,04,,,,,,,,,,,,,4,4.45,0,,,,,,0.387890761,-0.239105292,1,0,0,4.4496,Gabbro_rect,14,0,14,0,1,
5ed543442db0060a955d12e1,SCR,2024-06-11_12h09.58.118,LearnStrategy,2023.2.3,MacIntel,59.52380952,4,2,16,,,,,,,,7,15,,,,,,,,,,,,,7,2.903,1,,,,,,0.127384983,-0.397603624,1,0,0,2.9029,Peridotite_rect,15,0,15,0,1,
5ed543442db0060a955d12e1,SCR,2024-06-11_12h09.58.118,LearnStrategy,2023.2.3,MacIntel,59.52380952,5,1,1,-0.065389879,-0.26218065,1,0,0,1.1815,Andesite_14,1,14,2,4,1.182,1,14,-0.388229133,-0.231401571,1,0,0,2.3336,Andesite_rect,1,2.334,1,0,0,0,0,1,,,,,,,,,,,,,
5ed543442db0060a955d12e1,SCR,2024-06-11_12h09.58.118,LearnStrategy,2023.2.3,MacIntel,59.52380952,5,1,2,0.408330892,0.382750685,1,0,0,1.3489,Andesite_05,1,05,6,7,1.349,1,05,0.144189657,-0.42135159,1,0,0,4.404,Peridotite_rect,7,4.404,0,1,0,1,0,1,,,,,,,,,,,,,
5ed543442db0060a955d12e1,SCR,2024-06-11_12h09.58.118,LearnStrategy,2023.2.3,MacIntel,59.52380952,5,1,3,-0.379367879,-0.110024278,1,0,0,1.1993,Diorite_06,3,06,3,2,1.199,3,06,0.113136258,-0.405662774,1,0,0,4.5666,Peridotite_rect,7,4.567,0,2,0,2,0,1,,,,,,,,,,,,,
5ed543442db0060a955d12e1,SCR,2024-06-11_12h09.58.118,LearnStrategy,2023.2.3,MacIntel,59.52380952,5,1,4,-0.206450195,0.087976922,1,0,0,1.1311,Andesite_06,1,06,4,3,1.131,1,06,-0.3952712,-0.250693631,1,0,0,1.0825,Andesite_rect,1,1.082,1,3,0,3,0,1,,,,,,,,,,,,,
5ed543442db0060a955d12e1,SCR,2024-06-11_12h09.58.118,LearnStrategy,2023.2.3,MacIntel,59.52380952,5,1,5,0.06369595,0.07893453,1,0,0,0.9808,Gabbro_03,4,03,4,5,0.981,4,03,-0.368708903,-0.23333903,1,0,0,1.2826,Andesite_rect,1,1.283,0,4,0,4,0,1,,,,,,,,,,,,,
5ed543442db0060a955d12e1,SCR,2024-06-11_12h09.58.118,LearnStrategy,2023.2.3,MacIntel,59.52380952,5,1,6,0.070469293,0.215133735,1,0,0,0.8983,Basalt_08,2,08,5,5,0.898,2,08,-0.106119046,-0.248786892,1,0,0,2.2864,Basalt_rect,2,2.286,1,5,0,5,0,1,,,,,,,,,,,,,
5ed543442db0060a955d12e1,SCR,2024-06-11_12h09.58.118,LearnStrategy,2023.2.3,MacIntel,59.52380952,5,1,7,0.577193739,-0.088542955,1,0,0,1.4311,Pegmatite_13,6,13,3,8,1.431,6,13,-0.119795736,-0.410924615,1,0,0,1.4934,Pegmatite_rect,6,1.493,1,6,0,6,0,1,,,,,,,,,,,,,
5ed543442db0060a955d12e1,SCR,2024-06-11_12h09.58.118,LearnStrategy,2023.2.3,MacIntel,59.52380952,5,1,8,-0.444969211,-0.114102105,1,0,0,0.7987,Diorite_06,3,06,3,2,0.799,3,06,0.132475586,-0.26276652,1,0,0,4.0976,Diorite_rect,3,4.098,1,7,0,7,0,1,,,,,,,,,,,,,
5ed543442db0060a955d12e1,SCR,2024-06-11_12h09.58.118,LearnStrategy,2023.2.3,MacIntel,59.52380952,5,1,9,-0.22421068,0.42330663,1,0,0,2.9189,Peridotite_16,7,16,6,3,2.919,7,16,0.115813938,-0.262943183,1,0,0,4.3098,Diorite_rect,3,4.31,0,8,0,8,0,1,,,,,,,,,,,,,
5ed543442db0060a955d12e1,SCR,2024-06-11_12h09.58.118,LearnStrategy,2023.2.3,MacIntel,59.52380952,5,1,10,0.084704454,-0.276014201,1,0,0,1.5136,Gabbro_09,4,09,2,5,1.514,4,09,0.483893365,-0.262117513,1,0,0,2.8985,Gabbro_rect,4,2.899,1,9,0,9,0,1,,,,,,,,,,,,,
5ed543442db0060a955d12e1,SCR,2024-06-11_12h09.58.118,LearnStrategy,2023.2.3,MacIntel,59.52380952,5,1,11,0.402486165,0.090966831,1,0,0,1.0607,Diorite_13,3,13,4,7,1.061,3,13,0.164807671,-0.410747138,1,0,0,1.3371,Peridotite_rect,7,1.337,0,10,0,10,0,1,,,,,,,,,,,,,
5ed543442db0060a955d12e1,SCR,2024-06-11_12h09.58.118,LearnStrategy,2023.2.3,MacIntel,59.52380952,5,1,12,0.103222792,0.371244253,1,0,0,1.0952,Peridotite_08,7,08,6,5,1.095,7,08,0.177497626,-0.391337348,1,0,0,3.0565,Peridotite_rect,7,3.057,1,11,0,11,0,1,,,,,,,,,,,,,
5ed543442db0060a955d12e1,SCR,2024-06-11_12h09.58.118,LearnStrategy,2023.2.3,MacIntel,59.52380952,5,1,13,0.248100925,-0.26930447,1,0,0,1.0168,Peridotite_05,7,05,2,6,1.017,7,05,0.132432929,-0.389583876,1,0,0,1.0853,Peridotite_rect,7,1.085,1,12,0,12,0,1,,,,,,,,,,,,,
5ed543442db0060a955d12e1,SCR,2024-06-11_12h09.58.118,LearnStrategy,2023.2.3,MacIntel,59.52380952,5,1,14,0.259998237,0.446642778,1,0,0,0.9982,Pumice_10,8,10,6,6,0.998,8,10,0.414312609,-0.402419501,1,0,0,1.3198,Pumice_rect,8,1.32,1,13,0,13,0,1,,,,,,,,,,,,,
5ed543442db0060a955d12e1,SCR,2024-06-11_12h09.58.118,LearnStrategy,2023.2.3,MacIntel,59.52380952,5,1,15,0.220439182,-0.124132555,1,0,0,0.9434,Gabbro_11,4,11,3,6,0.943,4,11,-0.369668986,-0.264979112,1,0,0,1.6622,Andesite_rect,1,1.662,0,14,0,14,0,1,,,,,,,,,,,,,
5ed543442db0060a955d12e1,SCR,2024-06-11_12h09.58.118,LearnStrategy,2023.2.3,MacIntel,59.52380952,5,1,16,-0.384122518,-0.414106852,1,0,0,1.1652,Pegmatite_07,6,07,1,2,1.165,6,07,-0.129364963,-0.384557563,1,0,0,0.966,Pegmatite_rect,6,0.966,1,15,0,15,0,1,,,,,,,,,,,,,
5ed543442db0060a955d12e1,SCR,2024-06-11_12h09.58.118,LearnStrategy,2023.2.3,MacIntel,59.52380952,5,2,1,,,,,,,,5,16,,,,,,,,,,,,,5,1.403,1,,,,,,-0.411502075,-0.398976915,1,0,0,1.4029,Obsidian_rect,0,0,0,0,1,
5ed543442db0060a955d12e1,SCR,2024-06-11_12h09.58.118,LearnStrategy,2023.2.3,MacIntel,59.52380952,5,2,2,,,,,,,,1,11,,,,,,,,,,,,,4,4.875,0,,,,,,0.392181803,-0.249851617,1,0,0,4.8748,Gabbro_rect,1,0,1,0,1,
5ed543442db0060a955d12e1,SCR,2024-06-11_12h09.58.118,LearnStrategy,2023.2.3,MacIntel,59.52380952,5,2,3,,,,,,,,6,08,,,,,,,,,,,,,6,1.344,1,,,,,,-0.146735297,-0.406744317,1,0,0,1.3443,Pegmatite_rect,2,0,2,0,1,
5ed543442db0060a955d12e1,SCR,2024-06-11_12h09.58.118,LearnStrategy,2023.2.3,MacIntel,59.52380952,5,2,4,,,,,,,,8,15,,,,,,,,,,,,,8,1.304,1,,,,,,0.361861165,-0.404524468,1,0,0,1.3045,Pumice_rect,3,0,3,0,1,
5ed543442db0060a955d12e1,SCR,2024-06-11_12h09.58.118,LearnStrategy,2023.2.3,MacIntel,59.52380952,5,2,5,,,,,,,,6,05,,,,,,,,,,,,,3,6.332,0,,,,,,0.13746738,-0.25716824,1,0,0,6.3323,Diorite_rect,4,0,4,0,1,
5ed543442db0060a955d12e1,SCR,2024-06-11_12h09.58.118,LearnStrategy,2023.2.3,MacIntel,59.52380952,5,2,6,,,,,,,,4,08,,,,,,,,,,,,,4,4.594,1,,,,,,0.379873318,-0.255663723,1,0,0,4.594,Gabbro_rect,5,0,5,0,1,
5ed543442db0060a955d12e1,SCR,2024-06-11_12h09.58.118,LearnStrategy,2023.2.3,MacIntel,59.52380952,5,2,7,,,,,,,,4,10,,,,,,,,,,,,,4,1.366,1,,,,,,0.410624593,-0.271510145,1,0,0,1.3663,Gabbro_rect,6,0,6,0,1,
5ed543442db0060a955d12e1,SCR,2024-06-11_12h09.58.118,LearnStrategy,2023.2.3,MacIntel,59.52380952,5,2,8,,,,,,,,1,07,,,,,,,,,,,,,3,3.49,0,,,,,,0.129788005,-0.255083889,1,0,0,3.49,Diorite_rect,7,0,7,0,1,
5ed543442db0060a955d12e1,SCR,2024-06-11_12h09.58.118,LearnStrategy,2023.2.3,MacIntel,59.52380952,5,2,9,,,,,,,,7,12,,,,,,,,,,,,,7,2.226,1,,,,,,0.144267578,-0.406927016,1,0,0,2.2263,Peridotite_rect,8,0,8,0,1,
5ed543442db0060a955d12e1,SCR,2024-06-11_12h09.58.118,LearnStrategy,2023.2.3,MacIntel,59.52380952,5,2,10,,,,,,,,2,02,,,,,,,,,,,,,2,1.219,1,,,,,,-0.147479451,-0.249749078,1,0,0,1.2189,Basalt_rect,9,0,9,0,1,
5ed543442db0060a955d12e1,SCR,2024-06-11_12h09.58.118,LearnStrategy,2023.2.3,MacIntel,59.52380952,5,2,11,,,,,,,,3,15,,,,,,,,,,,,,3,6.46,1,,,,,,0.144658271,-0.24616862,1,0,0,6.46,Diorite_rect,10,0,10,0,1,
5ed543442db0060a955d12e1,SCR,2024-06-11_12h09.58.118,LearnStrategy,2023.2.3,MacIntel,59.52380952,5,2,12,,,,,,,,5,11,,,,,,,,,,,,,5,1.11,1,,,,,,-0.403229302,-0.415569051,1,0,0,1.1097,Obsidian_rect,11,0,11,0,1,
5ed543442db0060a955d12e1,SCR,2024-06-11_12h09.58.118,LearnStrategy,2023.2.3,MacIntel,59.52380952,5,2,13,,,,,,,,7,10,,,,,,,,,,,,,7,1.734,1,,,,,,0.123753052,-0.410756972,1,0,0,1.7342,Peridotite_rect,12,0,12,0,1,
5ed543442db0060a955d12e1,SCR,2024-06-11_12h09.58.118,LearnStrategy,2023.2.3,MacIntel,59.52380952,5,2,14,,,,,,,,8,04,,,,,,,,,,,,,8,1.099,1,,,,,,0.386977268,-0.388060438,1,0,0,1.0985,Pumice_rect,13,0,13,0,1,
5ed543442db0060a955d12e1,SCR,2024-06-11_12h09.58.118,LearnStrategy,2023.2.3,MacIntel,59.52380952,5,2,15,,,,,,,,2,14,,,,,,,,,,,,,4,2.266,0,,,,,,0.390141602,-0.247234226,1,0,0,2.2659,Gabbro_rect,14,0,14,0,1,
5ed543442db0060a955d12e1,SCR,2024-06-11_12h09.58.118,LearnStrategy,2023.2.3,MacIntel,59.52380952,5,2,16,,,,,,,,3,08,,,,,,,,,,,,,3,4.811,1,,,,,,0.142196927,-0.241444431,1,0,0,4.8111,Diorite_rect,15,0,15,0,1,
5ed543442db0060a955d12e1,SCR,2024-06-11_12h09.58.118,LearnStrategy,2023.2.3,MacIntel,59.52380952,6,1,1,-0.379544779,-0.41099372,1,0,0,1.9065,Pegmatite_07,6,07,1,2,1.907,6,07,-0.139767185,-0.398109606,1,0,0,2.5192,Pegmatite_rect,6,2.519,1,0,0,0,0,1,,,,,,,,,,,,,
5ed543442db0060a955d12e1,SCR,2024-06-11_12h09.58.118,LearnStrategy,2023.2.3,MacIntel,59.52380952,6,1,2,-0.359835205,0.386936951,1,0,0,1.2124,Andesite_09,1,09,6,2,1.212,1,09,-0.441252035,-0.258783908,1,0,0,1.5749,Andesite_rect,1,1.575,1,1,0,1,0,1,,,,,,,,,,,,,
5ed543442db0060a955d12e1,SCR,2024-06-11_12h09.58.118,LearnStrategy,2023.2.3,MacIntel,59.52380952,6,1,3,0.256046889,0.109451667,1,0,0,0.8357,Basalt_16,2,16,4,6,0.836,2,16,-0.134664985,-0.245525241,1,0,0,2.508,Basalt_rect,2,2.508,1,2,0,2,0,1,,,,,,,,,,,,,
5ed543442db0060a955d12e1,SCR,2024-06-11_12h09.58.118,LearnStrategy,2023.2.3,MacIntel,59.52380952,6,1,4,0.074333767,-0.085353122,1,0,0,0.7326,Pumice_08,8,08,3,5,0.733,8,08,0.368066813,-0.400552911,1,0,0,1.2322,Pumice_rect,8,1.232,1,3,0,3,0,1,,,,,,,,,,,,,
5ed543442db0060a955d12e1,SCR,2024-06-11_12h09.58.118,LearnStrategy,2023.2.3,MacIntel,59.52380952,6,1,5,0.388696425,-0.128685235,1,0,0,0.9285,Andesite_04,1,04,3,7,0.928,1,04,0.398210178,-0.253925307,1,0,0,3.7672,Gabbro_rect,4,3.767,0,4,0,4,0,1,,,,,,,,,,,,,
5ed543442db0060a955d12e1,SCR,2024-06-11_12h09.58.118,LearnStrategy,2023.2.3,MacIntel,59.52380952,6,1,6,-0.245448608,0.45431154,1,0,0,1.3162,Peridotite_16,7,16,6,3,1.316,7,16,0.131625841,-0.265531006,1,0,0,2.4973,Diorite_rect,3,2.497,0,5,0,5,0,1,,,,,,,,,,,,,
5ed543442db0060a955d12e1,SCR,2024-06-11_12h09.58.118,LearnStrategy,2023.2.3,MacIntel,59.52380952,6,1,7,0.220951674,-0.141653646,1,0,0,1.115,Gabbro_11,4,11,3,6,1.115,4,11,-0.388425768,-0.237582397,1,0,0,1.8142,Andesite_rect,1,1.814,0,6,0,6,0,1,,,,,,,,,,,,,
5ed543442db0060a955d12e1,SCR,2024-06-11_12h09.58.118,LearnStrategy,2023.2.3,MacIntel,59.52380952,6,1,8,0.390277371,0.385236189,1,0,0,1.0315,Andesite_05,1,05,6,7,1.031,1,05,0.129793159,-0.262929145,1,0,0,1.8111,Diorite_rect,3,1.811,0,7,0,7,0,1,,,,,,,,,,,,,
5ed543442db0060a955d12e1,SCR,2024-06-11_12h09.58.118,LearnStrategy,2023.2.3,MacIntel,59.52380952,6,1,9,0.251578166,-0.277210761,1,0,0,1.281,Peridotite_05,7,05,2,6,1.281,7,05,0.104066026,-0.397287665,1,0,0,1.0764,Peridotite_rect,7,1.076,1,8,0,8,0,1,,,,,,,,,,,,,
5ed543442db0060a955d12e1,SCR,2024-06-11_12h09.58.118,LearnStrategy,2023.2.3,MacIntel,59.52380952,6,1,10,-0.390083177,0.268104824,1,0,0,5.0266,Diorite_02,3,02,5,2,5.027,3,02,0.12818217,-0.243979899,1,0,0,1.6081,Diorite_rect,3,1.608,1,9,0,9,0,1,,,,,,,,,,,,,
5ed543442db0060a955d12e1,SCR,2024-06-11_12h09.58.118,LearnStrategy,2023.2.3,MacIntel,59.52380952,6,1,11,-0.58788759,0.436128354,1,0,0,1.0742,Pegmatite_09,6,09,6,1,1.074,6,09,-0.131994493,-0.405629137,1,0,0,1.4894,Pegmatite_rect,6,1.489,1,10,0,10,0,1,,,,,,,,,,,,,
5ed543442db0060a955d12e1,SCR,2024-06-11_12h09.58.118,LearnStrategy,2023.2.3,MacIntel,59.52380952,6,1,12,0.391940782,0.116324327,1,0,0,1.0773,Diorite_13,3,13,4,7,1.077,3,13,0.12664761,-0.250614963,1,0,0,2.0556,Diorite_rect,3,2.056,1,11,0,11,0,1,,,,,,,,,,,,,
5ed543442db0060a955d12e1,SCR,2024-06-11_12h09.58.118,LearnStrategy,2023.2.3,MacIntel,59.52380952,6,1,13,0.091711087,-0.285756226,1,0,0,0.9829,Gabbro_09,4,09,2,5,0.983,4,09,0.371372477,-0.261765205,1,0,0,1.6092,Gabbro_rect,4,1.609,1,12,0,12,0,1,,,,,,,,,,,,,
5ed543442db0060a955d12e1,SCR,2024-06-11_12h09.58.118,LearnStrategy,2023.2.3,MacIntel,59.52380952,6,1,14,0.253156467,0.084764133,1,0,0,0.8487,Basalt_16,2,16,4,6,0.849,2,16,-0.116127591,-0.260134006,1,0,0,1.4159,Basalt_rect,2,1.416,1,13,0,13,0,1,,,,,,,,,,,,,
5ed543442db0060a955d12e1,SCR,2024-06-11_12h09.58.118,LearnStrategy,2023.2.3,MacIntel,59.52380952,6,1,15,-0.086050686,0.09507331,1,0,0,0.7153,Gabbro_13,4,13,4,4,0.715,4,13,0.380130887,-0.254135132,1,0,0,1.9465,Gabbro_rect,4,1.947,1,14,0,14,0,1,,,,,,,,,,,,,
5ed543442db0060a955d12e1,SCR,2024-06-11_12h09.58.118,LearnStrategy,2023.2.3,MacIntel,59.52380952,6,1,16,0.379203559,-0.09101827,1,0,0,0.8739,Andesite_04,1,04,3,7,0.874,1,04,-0.371172282,-0.268876682,1,0,0,1.4038,Andesite_rect,1,1.404,1,15,0,15,0,1,,,,,,,,,,,,,
5ed543442db0060a955d12e1,SCR,2024-06-11_12h09.58.118,LearnStrategy,2023.2.3,MacIntel,59.52380952,6,2,1,,,,,,,,2,01,,,,,,,,,,,,,2,1.276,1,,,,,,-0.146970622,-0.251592475,1,0,0,1.2763,Basalt_rect,0,0,0,0,1,
5ed543442db0060a955d12e1,SCR,2024-06-11_12h09.58.118,LearnStrategy,2023.2.3,MacIntel,59.52380952,6,2,2,,,,,,,,3,11,,,,,,,,,,,,,3,1.719,1,,,,,,0.119609578,-0.250048421,1,0,0,1.7186,Diorite_rect,1,0,1,0,1,
5ed543442db0060a955d12e1,SCR,2024-06-11_12h09.58.118,LearnStrategy,2023.2.3,MacIntel,59.52380952,6,2,3,,,,,,,,7,13,,,,,,,,,,,,,7,5.316,1,,,,,,0.129080336,-0.406952379,1,0,0,5.3157,Peridotite_rect,2,0,2,0,1,
5ed543442db0060a955d12e1,SCR,2024-06-11_12h09.58.118,LearnStrategy,2023.2.3,MacIntel,59.52380952,6,2,4,,,,,,,,6,12,,,,,,,,,,,,,4,4.221,0,,,,,,0.413749051,-0.260906915,1,0,0,4.2211,Gabbro_rect,3,0,3,0,1,
5ed543442db0060a955d12e1,SCR,2024-06-11_12h09.58.118,LearnStrategy,2023.2.3,MacIntel,59.52380952,6,2,5,,,,,,,,2,12,,,,,,,,,,,,,2,1.82,1,,,,,,-0.140311076,-0.241568536,1,0,0,1.8196,Basalt_rect,4,0,4,0,1,
5ed543442db0060a955d12e1,SCR,2024-06-11_12h09.58.118,LearnStrategy,2023.2.3,MacIntel,59.52380952,6,2,6,,,,,,,,8,06,,,,,,,,,,,,,8,1.118,1,,,,,,0.393592665,-0.413343709,1,0,0,1.1184,Pumice_rect,5,0,5,0,1,
5ed543442db0060a955d12e1,SCR,2024-06-11_12h09.58.118,LearnStrategy,2023.2.3,MacIntel,59.52380952,6,2,7,,,,,,,,1,16,,,,,,,,,,,,,1,5.83,1,,,,,,-0.392844543,-0.250835503,1,0,0,5.8296,Andesite_rect,6,0,6,0,1,
5ed543442db0060a955d12e1,SCR,2024-06-11_12h09.58.118,LearnStrategy,2023.2.3,MacIntel,59.52380952,6,2,8,,,,,,,,3,16,,,,,,,,,,,,,3,1.401,1,,,,,,0.123110894,-0.244594591,1,0,0,1.4007,Diorite_rect,7,0,7,0,1,
5ed543442db0060a955d12e1,SCR,2024-06-11_12h09.58.118,LearnStrategy,2023.2.3,MacIntel,59.52380952,6,2,9,,,,,,,,4,12,,,,,,,,,,,,,2,2.476,0,,,,,,-0.12819519,-0.250358615,1,0,0,2.4755,Basalt_rect,8,0,8,0,1,
5ed543442db0060a955d12e1,SCR,2024-06-11_12h09.58.118,LearnStrategy,2023.2.3,MacIntel,59.52380952,6,2,10,,,,,,,,8,16,,,,,,,,,,,,,8,1.146,1,,,,,,0.378690864,-0.400962592,1,0,0,1.1463,Pumice_rect,9,0,9,0,1,
5ed543442db0060a955d12e1,SCR,2024-06-11_12h09.58.118,LearnStrategy,2023.2.3,MacIntel,59.52380952,6,2,11,,,,,,,,6,16,,,,,,,,,,,,,6,1.97,1,,,,,,-0.121944309,-0.404676921,1,0,0,1.9702,Pegmatite_rect,10,0,10,0,1,
5ed543442db0060a955d12e1,SCR,2024-06-11_12h09.58.118,LearnStrategy,2023.2.3,MacIntel,59.52380952,6,2,12,,,,,,,,5,12,,,,,,,,,,,,,5,1.283,1,,,,,,-0.378995056,-0.401191271,1,0,0,1.2826,Obsidian_rect,11,0,11,0,1,
5ed543442db0060a955d12e1,SCR,2024-06-11_12h09.58.118,LearnStrategy,2023.2.3,MacIntel,59.52380952,6,2,13,,,,,,,,1,02,,,,,,,,,,,,,4,5.024,0,,,,,,0.406750488,-0.238448893,1,0,0,5.0243,Gabbro_rect,12,0,12,0,1,
5ed543442db0060a955d12e1,SCR,2024-06-11_12h09.58.118,LearnStrategy,2023.2.3,MacIntel,59.52380952,6,2,14,,,,,,,,5,10,,,,,,,,,,,,,5,2.029,1,,,,,,-0.393550449,-0.404461127,1,0,0,2.0291,Obsidian_rect,13,0,13,0,1,
5ed543442db0060a955d12e1,SCR,2024-06-11_12h09.58.118,LearnStrategy,2023.2.3,MacIntel,59.52380952,6,2,15,,,,,,,,4,15,,,,,,,,,,,,,1,2.994,0,,,,,,-0.39421597,-0.241875407,1,0,0,2.994,Andesite_rect,14,0,14,0,1,
5ed543442db0060a955d12e1,SCR,2024-06-11_12h09.58.118,LearnStrategy,2023.2.3,MacIntel,59.52380952,6,2,16,,,,,,,,7,07,,,,,,,,,,,,,7,1.31,1,,,,,,0.133353136,-0.398984918,1,0,0,1.3103,Peridotite_rect,15,0,15,0,1,
5ed543442db0060a955d12e1,SCR,2024-06-11_12h09.58.118,LearnStrategy,2023.2.3,MacIntel,59.52380952,7,1,1,0.581369358,0.277874569,1,0,0,1.2585,Peridotite_06,7,06,5,8,1.259,7,06,0.142244195,-0.388679538,1,0,0,1.5075,Peridotite_rect,7,1.507,1,0,0,0,0,1,,,,,,,,,,,,,
5ed543442db0060a955d12e1,SCR,2024-06-11_12h09.58.118,LearnStrategy,2023.2.3,MacIntel,59.52380952,7,1,2,-0.340255534,0.098974881,1,0,0,1.1776,Diorite_14,3,14,4,2,1.178,3,14,0.111607802,-0.246104669,1,0,0,1.0403,Diorite_rect,3,1.04,1,1,0,1,0,1,,,,,,,,,,,,,
5ed543442db0060a955d12e1,SCR,2024-06-11_12h09.58.118,LearnStrategy,2023.2.3,MacIntel,59.52380952,7,1,3,-0.537647942,-0.116473117,1,0,0,1.1317,Pumice_05,8,05,3,1,1.132,8,05,0.397605252,-0.413362291,1,0,0,1.4149,Pumice_rect,8,1.415,1,2,0,2,0,1,,,,,,,,,,,,,
5ed543442db0060a955d12e1,SCR,2024-06-11_12h09.58.118,LearnStrategy,2023.2.3,MacIntel,59.52380952,7,1,4,0.519992133,0.090527479,1,0,0,0.832,Gabbro_01,4,01,4,8,0.832,4,01,0.405382623,-0.257320218,1,0,0,2.7885,Gabbro_rect,4,2.789,1,3,0,3,0,1,,,,,,,,,,,,,
5ed543442db0060a955d12e1,SCR,2024-06-11_12h09.58.118,LearnStrategy,2023.2.3,MacIntel,59.52380952,7,1,5,0.237725627,-0.443091702,1,0,0,1.0005,Andesite_10,1,10,1,6,1.001,1,10,0.382000054,-0.257843831,1,0,0,4.4211,Gabbro_rect,4,4.421,0,4,0,4,0,1,,,,,,,,,,,,,
5ed543442db0060a955d12e1,SCR,2024-06-11_12h09.58.118,LearnStrategy,2023.2.3,MacIntel,59.52380952,7,1,6,-0.262651842,0.280757514,1,0,0,1.0311,Basalt_05,2,05,5,3,1.031,2,05,-0.112104967,-0.259078166,1,0,0,2.1706,Basalt_rect,2,2.171,1,5,0,5,0,1,,,,,,,,,,,,,
5ed543442db0060a955d12e1,SCR,2024-06-11_12h09.58.118,LearnStrategy,2023.2.3,MacIntel,59.52380952,7,1,7,-0.39032057,-0.420057576,1,0,0,1.2933,Pegmatite_07,6,07,1,2,1.293,6,07,-0.11826199,-0.404784953,1,0,0,0.9769,Pegmatite_rect,6,0.977,1,6,0,6,0,1,,,,,,,,,,,,,
5ed543442db0060a955d12e1,SCR,2024-06-11_12h09.58.118,LearnStrategy,2023.2.3,MacIntel,59.52380952,7,1,8,0.235168932,0.233833126,1,0,0,2.4659,Obsidian_08,5,08,5,6,2.466,5,08,-0.389784003,-0.402699382,1,0,0,1.041,Obsidian_rect,5,1.041,1,7,0,7,0,1,,,,,,,,,,,,,
5ed543442db0060a955d12e1,SCR,2024-06-11_12h09.58.118,LearnStrategy,2023.2.3,MacIntel,59.52380952,7,1,9,0.102607558,-0.263211195,1,0,0,0.8319,Gabbro_09,4,09,2,5,0.832,4,09,-0.359357707,-0.240238987,1,0,0,3.289,Andesite_rect,1,3.289,0,8,0,8,0,1,,,,,,,,,,,,,
5ed543442db0060a955d12e1,SCR,2024-06-11_12h09.58.118,LearnStrategy,2023.2.3,MacIntel,59.52380952,7,1,10,0.407370741,0.443260837,1,0,0,1.7023,Andesite_05,1,05,6,7,1.702,1,05,-0.369774916,-0.23821228,1,0,0,2.0565,Andesite_rect,1,2.057,1,9,0,9,0,1,,,,,,,,,,,,,
5ed543442db0060a955d12e1,SCR,2024-06-11_12h09.58.118,LearnStrategy,2023.2.3,MacIntel,59.52380952,7,1,11,-0.074233466,-0.267957357,1,0,0,2.1499,Andesite_14,1,14,2,4,2.15,1,14,0.367532959,-0.248459134,1,0,0,2.8032,Gabbro_rect,4,2.803,0,10,0,10,0,1,,,,,,,,,,,,,
5ed543442db0060a955d12e1,SCR,2024-06-11_12h09.58.118,LearnStrategy,2023.2.3,MacIntel,59.52380952,7,1,12,0.26943495,-0.242309163,1,0,0,0.9485,Peridotite_05,7,05,2,6,0.949,7,05,0.129054091,-0.401571723,1,0,0,1.1869,Peridotite_rect,7,1.187,1,11,0,11,0,1,,,,,,,,,,,,,
5ed543442db0060a955d12e1,SCR,2024-06-11_12h09.58.118,LearnStrategy,2023.2.3,MacIntel,59.52380952,7,1,13,-0.400853678,0.273959418,1,0,0,1.4795,Diorite_02,3,02,5,2,1.479,3,02,0.136089003,-0.256015015,1,0,0,1.5809,Diorite_rect,3,1.581,1,12,0,12,0,1,,,,,,,,,,,,,
5ed543442db0060a955d12e1,SCR,2024-06-11_12h09.58.118,LearnStrategy,2023.2.3,MacIntel,59.52380952,7,1,14,-0.533593394,-0.279307454,1,0,0,3.0146,Peridotite_14,7,14,2,1,3.015,6,15,-0.367931722,-0.254428033,1,0,0,3.3885,Andesite_rect,1,3.389,0,13,0,13,0,1,,,,,,,,,,,,,
5ed543442db0060a955d12e1,SCR,2024-06-11_12h09.58.118,LearnStrategy,2023.2.3,MacIntel,59.52380952,7,1,15,0.237395359,-0.085403578,1,0,0,2.6212,Gabbro_11,4,11,3,6,2.621,4,11,0.376813151,-0.245821601,1,0,0,4.5822,Gabbro_rect,4,4.582,1,14,0,14,0,1,,,,,,,,,,,,,
5ed543442db0060a955d12e1,SCR,2024-06-11_12h09.58.118,LearnStrategy,2023.2.3,MacIntel,59.52380952,7,1,16,0.548162028,0.076376309,1,0,0,1.2664,Gabbro_01,4,01,4,8,1.266,4,01,0.145804104,-0.391684435,1,0,0,2.2413,Peridotite_rect,7,2.241,0,15,0,15,0,1,,,,,,,,,,,,,
5ed543442db0060a955d12e1,SCR,2024-06-11_12h09.58.118,LearnStrategy,2023.2.3,MacIntel,59.52380952,7,2,1,,,,,,,,4,05,,,,,,,,,,,,,7,2.2,0,,,,,,0.149149577,-0.401941596,1,0,0,2.2003,Peridotite_rect,0,0,0,0,1,
5ed543442db0060a955d12e1,SCR,2024-06-11_12h09.58.118,LearnStrategy,2023.2.3,MacIntel,59.52380952,7,2,2,,,,,,,,2,02,,,,,,,,,,,,,2,1.248,1,,,,,,-0.12815389,-0.259458754,1,0,0,1.2477,Basalt_rect,1,0,1,0,1,
5ed543442db0060a955d12e1,SCR,2024-06-11_12h09.58.118,LearnStrategy,2023.2.3,MacIntel,59.52380952,7,2,3,,,,,,,,5,12,,,,,,,,,,,,,5,1.073,1,,,,,,-0.38860494,-0.406806844,1,0,0,1.0726,Obsidian_rect,2,0,2,0,1,
5ed543442db0060a955d12e1,SCR,2024-06-11_12h09.58.118,LearnStrategy,2023.2.3,MacIntel,59.52380952,7,2,4,,,,,,,,3,16,,,,,,,,,,,,,3,1.501,1,,,,,,0.134402127,-0.237118802,1,0,0,1.5008,Diorite_rect,3,0,3,0,1,
5ed543442db0060a955d12e1,SCR,2024-06-11_12h09.58.118,LearnStrategy,2023.2.3,MacIntel,59.52380952,7,2,5,,,,,,,,6,08,,,,,,,,,,,,,6,1.223,1,,,,,,-0.137451714,-0.392101983,1,0,0,1.2226,Pegmatite_rect,4,0,4,0,1,
5ed543442db0060a955d12e1,SCR,2024-06-11_12h09.58.118,LearnStrategy,2023.2.3,MacIntel,59.52380952,7,2,6,,,,,,,,8,04,,,,,,,,,,,,,8,1.192,1,,,,,,0.417884657,-0.40385003,1,0,0,1.1915,Pumice_rect,5,0,5,0,1,
5ed543442db0060a955d12e1,SCR,2024-06-11_12h09.58.118,LearnStrategy,2023.2.3,MacIntel,59.52380952,7,2,7,,,,,,,,1,16,,,,,,,,,,,,,1,6.838,1,,,,,,-0.417561408,-0.246068861,1,0,0,6.8375,Andesite_rect,6,0,6,0,1,
5ed543442db0060a955d12e1,SCR,2024-06-11_12h09.58.118,LearnStrategy,2023.2.3,MacIntel,59.52380952,7,2,8,,,,,,,,1,11,,,,,,,,,,,,,4,5.236,0,,,,,,0.394940999,-0.247161933,1,0,0,5.2359,Gabbro_rect,7,0,7,0,1,
5ed543442db0060a955d12e1,SCR,2024-06-11_12h09.58.118,LearnStrategy,2023.2.3,MacIntel,59.52380952,7,2,9,,,,,,,,2,14,,,,,,,,,,,,,2,2.019,1,,,,,,-0.148204617,-0.259187486,1,0,0,2.0191,Basalt_rect,8,0,8,0,1,
5ed543442db0060a955d12e1,SCR,2024-06-11_12h09.58.118,LearnStrategy,2023.2.3,MacIntel,59.52380952,7,2,10,,,,,,,,7,13,,,,,,,,,,,,,7,5.137,1,,,,,,0.115672947,-0.389482693,1,0,0,5.1371,Peridotite_rect,9,0,9,0,1,
5ed543442db0060a955d12e1,SCR,2024-06-11_12h09.58.118,LearnStrategy,2023.2.3,MacIntel,59.52380952,7,2,11,,,,,,,,5,11,,,,,,,,,,,,,5,1.534,1,,,,,,-0.384452345,-0.404771389,1,0,0,1.5339,Obsidian_rect,10,0,10,0,1,
5ed543442db0060a955d12e1,SCR,2024-06-11_12h09.58.118,LearnStrategy,2023.2.3,MacIntel,59.52380952,7,2,12,,,,,,,,4,15,,,,,,,,,,,,,4,3.342,1,,,,,,0.368719347,-0.246600884,1,0,0,3.342,Gabbro_rect,11,0,11,0,1,
5ed543442db0060a955d12e1,SCR,2024-06-11_12h09.58.118,LearnStrategy,2023.2.3,MacIntel,59.52380952,7,2,13,,,,,,,,8,16,,,,,,,,,,,,,8,1.532,1,,,,,,0.36764879,-0.400685832,1,0,0,1.5316,Pumice_rect,12,0,12,0,1,
5ed543442db0060a955d12e1,SCR,2024-06-11_12h09.58.118,LearnStrategy,2023.2.3,MacIntel,59.52380952,7,2,14,,,,,,,,7,04,,,,,,,,,,,,,6,5.21,0,,,,,,-0.103625488,-0.40746833,1,0,0,5.2104,Pegmatite_rect,13,0,13,0,1,
5ed543442db0060a955d12e1,SCR,2024-06-11_12h09.58.118,LearnStrategy,2023.2.3,MacIntel,59.52380952,7,2,15,,,,,,,,3,08,,,,,,,,,,,,,3,2.122,1,,,,,,0.141454807,-0.256849908,1,0,0,2.1223,Diorite_rect,14,0,14,0,1,
5ed543442db0060a955d12e1,SCR,2024-06-11_12h09.58.118,LearnStrategy,2023.2.3,MacIntel,59.52380952,7,2,16,,,,,,,,6,16,,,,,,,,,,,,,1,6.292,0,,,,,,-0.374981147,-0.248170709,1,0,0,6.292,Andesite_rect,15,0,15,0,1,
5ed543442db0060a955d12e1,SCR,2024-06-11_12h09.58.118,LearnStrategy,2023.2.3,MacIntel,59.52380952,8,1,1,-0.077080824,-0.276501261,1,0,0,2.2511,Andesite_14,1,14,2,4,2.251,1,14,-0.42007097,-0.241726006,1,0,0,4.1154,Andesite_rect,1,4.115,1,0,0,0,0,1,,,,,,,,,,,,,
5ed543442db0060a955d12e1,SCR,2024-06-11_12h09.58.118,LearnStrategy,2023.2.3,MacIntel,59.52380952,8,1,2,0.209316678,-0.119571737,1,0,0,0.9617,Gabbro_11,4,11,3,6,0.962,4,11,-0.111887953,-0.238296034,1,0,0,0.9085,Basalt_rect,2,0.909,0,1,0,1,0,1,,,,,,,,,,,,,
5ed543442db0060a955d12e1,SCR,2024-06-11_12h09.58.118,LearnStrategy,2023.2.3,MacIntel,59.52380952,8,1,3,-0.529846768,0.376031918,1,0,0,1.3985,Pegmatite_09,6,09,6,1,1.399,6,09,-0.133507284,-0.406164686,1,0,0,1.7034,Pegmatite_rect,6,1.703,1,2,0,2,0,1,,,,,,,,,,,,,
5ed543442db0060a955d12e1,SCR,2024-06-11_12h09.58.118,LearnStrategy,2023.2.3,MacIntel,59.52380952,8,1,4,-0.555141025,-0.285406426,1,0,0,3.6407,Peridotite_14,7,14,2,1,3.641,6,09,0.129803467,-0.395362752,1,0,0,3.1322,Peridotite_rect,7,3.132,1,3,0,3,0,1,,,,,,,,,,,,,
5ed543442db0060a955d12e1,SCR,2024-06-11_12h09.58.118,LearnStrategy,2023.2.3,MacIntel,59.52380952,8,1,5,0.540737169,-0.26116177,1,0,0,1.2986,Pegmatite_11,6,11,2,8,1.299,6,11,-0.128585815,-0.40216607,1,0,0,1.1431,Pegmatite_rect,6,1.143,1,4,0,4,0,1,,,,,,,,,,,,,
5ed543442db0060a955d12e1,SCR,2024-06-11_12h09.58.118,LearnStrategy,2023.2.3,MacIntel,59.52380952,8,1,6,0.547263048,0.053739353,1,0,0,1.431,Gabbro_01,4,01,4,8,1.431,4,01,0.388523627,-0.25610989,1,0,0,1.9312,Gabbro_rect,4,1.931,1,5,0,5,0,1,,,,,,,,,,,,,
5ed543442db0060a955d12e1,SCR,2024-06-11_12h09.58.118,LearnStrategy,2023.2.3,MacIntel,59.52380952,8,1,7,-0.507276849,-0.269159953,1,0,0,1.7964,Peridotite_14,7,14,2,1,1.796,7,14,0.124236382,-0.408963826,1,0,0,1.8821,Peridotite_rect,7,1.882,1,6,0,6,0,1,,,,,,,,,,,,,
5ed543442db0060a955d12e1,SCR,2024-06-11_12h09.58.118,LearnStrategy,2023.2.3,MacIntel,59.52380952,8,1,8,-0.214298977,-0.26783983,1,0,0,1.0141,Basalt_06,2,06,2,3,1.014,2,06,-0.123597955,-0.248118354,1,0,0,4.3109,Basalt_rect,2,4.311,1,7,0,7,0,1,,,,,,,,,,,,,
5ed543442db0060a955d12e1,SCR,2024-06-11_12h09.58.118,LearnStrategy,2023.2.3,MacIntel,59.52380952,8,1,9,0.408664551,0.414741228,1,0,0,3.1614,Andesite_05,1,05,6,7,3.161,5,08,0.126127862,-0.267765435,1,0,0,2.5216,Diorite_rect,3,2.522,0,8,0,8,0,1,,,,,,,,,,,,,
5ed543442db0060a955d12e1,SCR,2024-06-11_12h09.58.118,LearnStrategy,2023.2.3,MacIntel,59.52380952,8,1,10,-0.398246392,-0.301259901,1,0,0,0.9812,Gabbro_14,4,14,2,2,0.981,4,14,0.426998291,-0.264129774,1,0,0,1.6847,Gabbro_rect,4,1.685,1,9,0,9,0,1,,,,,,,,,,,,,
5ed543442db0060a955d12e1,SCR,2024-06-11_12h09.58.118,LearnStrategy,2023.2.3,MacIntel,59.52380952,8,1,11,-0.232310079,0.088793572,1,0,0,1.0009,Andesite_06,1,06,4,3,1.001,1,06,0.3832685,-0.236260783,1,0,0,3.3039,Gabbro_rect,4,3.304,0,10,0,10,0,1,,,,,,,,,,,,,
5ed543442db0060a955d12e1,SCR,2024-06-11_12h09.58.118,LearnStrategy,2023.2.3,MacIntel,59.52380952,8,1,12,0.354990099,0.390129734,1,0,0,0.9656,Andesite_05,1,05,6,7,0.966,1,05,-0.348378296,-0.233395996,1,0,0,2.0461,Andesite_rect,1,2.046,1,11,0,11,0,1,,,,,,,,,,,,,
5ed543442db0060a955d12e1,SCR,2024-06-11_12h09.58.118,LearnStrategy,2023.2.3,MacIntel,59.52380952,8,1,13,0.086922201,0.374698537,1,0,0,1.0318,Peridotite_08,7,08,6,5,1.032,7,08,0.116221924,-0.387969699,1,0,0,1.5111,Peridotite_rect,7,1.511,1,12,0,12,0,1,,,,,,,,,,,,,
5ed543442db0060a955d12e1,SCR,2024-06-11_12h09.58.118,LearnStrategy,2023.2.3,MacIntel,59.52380952,8,1,14,-0.385615302,-0.290072496,1,0,0,1.048,Gabbro_14,4,14,2,2,1.048,4,14,0.406056179,-0.243074951,1,0,0,2.3152,Gabbro_rect,4,2.315,1,13,0,13,0,1,,,,,,,,,,,,,
5ed543442db0060a955d12e1,SCR,2024-06-11_12h09.58.118,LearnStrategy,2023.2.3,MacIntel,59.52380952,8,1,15,-0.388214857,0.259795566,1,0,0,1.3151,Diorite_02,3,02,5,2,1.315,3,02,0.117061157,-0.231609226,1,0,0,0.8796,Diorite_rect,3,0.88,1,14,0,14,0,1,,,,,,,,,,,,,
5ed543442db0060a955d12e1,SCR,2024-06-11_12h09.58.118,LearnStrategy,2023.2.3,MacIntel,59.52380952,8,1,16,-0.549417759,-0.100909763,1,0,0,1.1657,Pumice_05,8,05,3,1,1.166,8,05,0.394021946,-0.395180189,1,0,0,1.5103,Pumice_rect,8,1.51,1,15,0,15,0,1,,,,,,,,,,,,,
5ed543442db0060a955d12e1,SCR,2024-06-11_12h09.58.118,LearnStrategy,2023.2.3,MacIntel,59.52380952,8,2,1,,,,,,,,3,11,,,,,,,,,,,,,3,1.84,1,,,,,,0.139606391,-0.248906793,1,0,0,1.8398,Diorite_rect,0,0,0,0,1,
5ed543442db0060a955d12e1,SCR,2024-06-11_12h09.58.118,LearnStrategy,2023.2.3,MacIntel,59.52380952,8,2,2,,,,,,,,2,10,,,,,,,,,,,,,2,1.201,1,,,,,,-0.166036106,-0.265828451,1,0,0,1.2014,Basalt_rect,1,0,1,0,1,
5ed543442db0060a955d12e1,SCR,2024-06-11_12h09.58.118,LearnStrategy,2023.2.3,MacIntel,59.52380952,8,2,3,,,,,,,,8,06,,,,,,,,,,,,,8,3.855,1,,,,,,0.388410509,-0.390086466,1,0,0,3.8545,Pumice_rect,2,0,2,0,1,
5ed543442db0060a955d12e1,SCR,2024-06-11_12h09.58.118,LearnStrategy,2023.2.3,MacIntel,59.52380952,8,2,4,,,,,,,,4,12,,,,,,,,,,,,,4,2.009,1,,,,,,0.401500651,-0.246888563,1,0,0,2.0088,Gabbro_rect,3,0,3,0,1,
5ed543442db0060a955d12e1,SCR,2024-06-11_12h09.58.118,LearnStrategy,2023.2.3,MacIntel,59.52380952,8,2,5,,,,,,,,2,12,,,,,,,,,,,,,2,2.309,1,,,,,,-0.115824788,-0.259496867,1,0,0,2.3087,Basalt_rect,4,0,4,0,1,
5ed543442db0060a955d12e1,SCR,2024-06-11_12h09.58.118,LearnStrategy,2023.2.3,MacIntel,59.52380952,8,2,6,,,,,,,,6,05,,,,,,,,,,,,,6,3.715,1,,,,,,-0.116023424,-0.410890706,1,0,0,3.7155,Pegmatite_rect,5,0,5,0,1,
5ed543442db0060a955d12e1,SCR,2024-06-11_12h09.58.118,LearnStrategy,2023.2.3,MacIntel,59.52380952,8,2,7,,,,,,,,3,15,,,,,,,,,,,,,7,1.875,0,,,,,,0.129059923,-0.401750895,1,0,0,1.8754,Peridotite_rect,6,0,6,0,1,
5ed543442db0060a955d12e1,SCR,2024-06-11_12h09.58.118,LearnStrategy,2023.2.3,MacIntel,59.52380952,8,2,8,,,,,,,,6,12,,,,,,,,,,,,,1,4.262,0,,,,,,-0.387689616,-0.249066705,1,0,0,4.2617,Andesite_rect,7,0,7,0,1,
5ed543442db0060a955d12e1,SCR,2024-06-11_12h09.58.118,LearnStrategy,2023.2.3,MacIntel,59.52380952,8,2,9,,,,,,,,8,14,,,,,,,,,,,,,8,1.318,1,,,,,,0.410261637,-0.409552205,1,0,0,1.3178,Pumice_rect,8,0,8,0,1,
5ed543442db0060a955d12e1,SCR,2024-06-11_12h09.58.118,LearnStrategy,2023.2.3,MacIntel,59.52380952,8,2,10,,,,,,,,5,07,,,,,,,,,,,,,5,1.231,1,,,,,,-0.406714952,-0.405959269,1,0,0,1.2305,Obsidian_rect,9,0,9,0,1,
5ed543442db0060a955d12e1,SCR,2024-06-11_12h09.58.118,LearnStrategy,2023.2.3,MacIntel,59.52380952,8,2,11,,,,,,,,5,10,,,,,,,,,,,,,5,0.959,1,,,,,,-0.38724155,-0.403300713,1,0,0,0.9589,Obsidian_rect,10,0,10,0,1,
5ed543442db0060a955d12e1,SCR,2024-06-11_12h09.58.118,LearnStrategy,2023.2.3,MacIntel,59.52380952,8,2,12,,,,,,,,7,10,,,,,,,,,,,,,7,1.291,1,,,,,,0.151519504,-0.411941528,1,0,0,1.2909,Peridotite_rect,11,0,11,0,1,
5ed543442db0060a955d12e1,SCR,2024-06-11_12h09.58.118,LearnStrategy,2023.2.3,MacIntel,59.52380952,8,2,13,,,,,,,,7,15,,,,,,,,,,,,,7,0.983,1,,,,,,0.151519504,-0.411941528,1,0,0,0.9834,Peridotite_rect,12,0,12,0,1,
5ed543442db0060a955d12e1,SCR,2024-06-11_12h09.58.118,LearnStrategy,2023.2.3,MacIntel,59.52380952,8,2,14,,,,,,,,4,08,,,,,,,,,,,,,4,1.748,1,,,,,,0.384505887,-0.262071533,1,0,0,1.7478,Gabbro_rect,13,0,13,0,1,
5ed543442db0060a955d12e1,SCR,2024-06-11_12h09.58.118,LearnStrategy,2023.2.3,MacIntel,59.52380952,8,2,15,,,,,,,,1,03,,,,,,,,,,,,,4,2.087,0,,,,,,0.384820557,-0.253350491,1,0,0,2.0866,Gabbro_rect,14,0,14,0,1,
5ed543442db0060a955d12e1,SCR,2024-06-11_12h09.58.118,LearnStrategy,2023.2.3,MacIntel,59.52380952,8,2,16,,,,,,,,1,02,,,,,,,,,,,,,1,1.532,1,,,,,,-0.405479533,-0.25604933,1,0,0,1.5323,Andesite_rect,15,0,15,0,1,
5ed543442db0060a955d12e1,SCR,2024-06-11_12h09.58.118,LearnStrategy,2023.2.3,MacIntel,59.52380952,9,1,1,0.575544027,-0.089658813,1,0,0,1.2141,Pegmatite_13,6,13,3,8,1.214,6,13,-0.124779527,-0.39943434,1,0,0,1.6127,Pegmatite_rect,6,1.613,1,0,0,0,0,1,,,,,,,,,,,,,
5ed543442db0060a955d12e1,SCR,2024-06-11_12h09.58.118,LearnStrategy,2023.2.3,MacIntel,59.52380952,9,1,2,-0.072660997,0.074129808,1,0,0,0.7008,Gabbro_13,4,13,4,4,0.701,4,13,0.371917589,-0.259981825,1,0,0,2.5448,Gabbro_rect,4,2.545,1,1,0,1,0,1,,,,,,,,,,,,,
5ed543442db0060a955d12e1,SCR,2024-06-11_12h09.58.118,LearnStrategy,2023.2.3,MacIntel,59.52380952,9,1,3,0.404784071,0.436828257,1,0,0,1.2992,Andesite_05,1,05,6,7,1.299,1,05,0.140364855,-0.246475084,1,0,0,1.9728,Diorite_rect,3,1.973,0,2,0,2,0,1,,,,,,,,,,,,,
5ed543442db0060a955d12e1,SCR,2024-06-11_12h09.58.118,LearnStrategy,2023.2.3,MacIntel,59.52380952,9,1,4,-0.434511787,-0.118333944,1,0,0,1.0149,Diorite_06,3,06,3,2,1.015,3,06,-0.14591173,-0.407823147,1,0,0,3.1284,Pegmatite_rect,6,3.128,0,3,0,3,0,1,,,,,,,,,,,,,
5ed543442db0060a955d12e1,SCR,2024-06-11_12h09.58.118,LearnStrategy,2023.2.3,MacIntel,59.52380952,9,1,5,0.361208632,-0.090159641,1,0,0,1.1003,Andesite_04,1,04,3,7,1.1,1,04,0.392115343,-0.258065999,1,0,0,1.1343,Gabbro_rect,4,1.134,0,4,0,4,0,1,,,,,,,,,,,,,
5ed543442db0060a955d12e1,SCR,2024-06-11_12h09.58.118,LearnStrategy,2023.2.3,MacIntel,59.52380952,9,1,6,-0.22424825,-0.434364488,1,0,0,1.0618,Pegmatite_03,6,03,1,3,1.062,6,03,-0.142835015,-0.405137872,1,0,0,1.4092,Pegmatite_rect,6,1.409,1,5,0,5,0,1,,,,,,,,,,,,,
5ed543442db0060a955d12e1,SCR,2024-06-11_12h09.58.118,LearnStrategy,2023.2.3,MacIntel,59.52380952,9,1,7,0.563152534,0.106270955,1,0,0,1.1163,Gabbro_01,4,01,4,8,1.116,4,01,0.361634928,-0.266490614,1,0,0,5.4473,Gabbro_rect,4,5.447,1,6,0,6,0,1,,,,,,,,,,,,,
5ed543442db0060a955d12e1,SCR,2024-06-11_12h09.58.118,LearnStrategy,2023.2.3,MacIntel,59.52380952,9,1,8,-0.069294162,0.375344187,1,0,0,1.1065,Pumice_09,8,09,6,4,1.106,8,09,0.41322347,-0.383891669,1,0,0,1.0654,Pumice_rect,8,1.065,1,7,0,7,0,1,,,,,,,,,,,,,
5ed543442db0060a955d12e1,SCR,2024-06-11_12h09.58.118,LearnStrategy,2023.2.3,MacIntel,59.52380952,9,1,9,0.540989312,-0.269201796,1,0,0,1.0983,Pegmatite_11,6,11,2,8,1.098,6,11,-0.150867649,-0.417574802,1,0,0,0.8557,Pegmatite_rect,6,0.856,1,8,0,8,0,1,,,,,,,,,,,,,
5ed543442db0060a955d12e1,SCR,2024-06-11_12h09.58.118,LearnStrategy,2023.2.3,MacIntel,59.52380952,9,1,10,0.251879544,-0.270384318,1,0,0,0.9834,Peridotite_05,7,05,2,6,0.983,7,05,0.128535563,-0.393849962,1,0,0,1.037,Peridotite_rect,7,1.037,1,9,0,9,0,1,,,,,,,,,,,,,
5ed543442db0060a955d12e1,SCR,2024-06-11_12h09.58.118,LearnStrategy,2023.2.3,MacIntel,59.52380952,9,1,11,0.240148451,-0.128745795,1,0,0,0.9986,Gabbro_11,4,11,3,6,0.999,4,11,0.442058919,-0.232069227,1,0,0,1.3179,Gabbro_rect,4,1.318,1,10,0,10,0,1,,,,,,,,,,,,,
5ed543442db0060a955d12e1,SCR,2024-06-11_12h09.58.118,LearnStrategy,2023.2.3,MacIntel,59.52380952,9,1,12,-0.252377998,0.113599616,1,0,0,1.0125,Andesite_06,1,06,4,3,1.013,1,06,-0.39349216,-0.232422146,1,0,0,2.793,Andesite_rect,1,2.793,1,11,0,11,0,1,,,,,,,,,,,,,
5ed543442db0060a955d12e1,SCR,2024-06-11_12h09.58.118,LearnStrategy,2023.2.3,MacIntel,59.52380952,9,1,13,-0.087445543,0.213421054,1,0,0,0.8885,Basalt_09,2,09,5,4,0.889,2,09,0.330142958,-0.270789388,1,0,0,1.8658,Gabbro_rect,4,1.866,0,12,0,12,0,1,,,,,,,,,,,,,
5ed543442db0060a955d12e1,SCR,2024-06-11_12h09.58.118,LearnStrategy,2023.2.3,MacIntel,59.52380952,9,1,14,-0.550176934,0.250005324,1,0,0,2.3999,Obsidian_05,5,05,5,1,2.4,5,05,-0.38348877,-0.403312174,1,0,0,4.1272,Obsidian_rect,5,4.127,1,13,0,13,0,1,,,,,,,,,,,,,
5ed543442db0060a955d12e1,SCR,2024-06-11_12h09.58.118,LearnStrategy,2023.2.3,MacIntel,59.52380952,9,1,15,0.499952528,0.229932692,1,0,0,0.9772,Peridotite_06,7,06,5,8,0.977,7,06,0.108718397,-0.396710137,1,0,0,3.2203,Peridotite_rect,7,3.22,1,14,0,14,0,1,,,,,,,,,,,,,
5ed543442db0060a955d12e1,SCR,2024-06-11_12h09.58.118,LearnStrategy,2023.2.3,MacIntel,59.52380952,9,1,16,-0.547955119,-0.404569499,1,0,0,1.1157,Diorite_12,3,12,1,1,1.116,3,12,0.152342326,-0.253657633,1,0,0,1.7947,Diorite_rect,3,1.795,1,15,0,15,0,1,,,,,,,,,,,,,
5ed543442db0060a955d12e1,SCR,2024-06-11_12h09.58.118,LearnStrategy,2023.2.3,MacIntel,59.52380952,9,2,1,,,,,,,,2,01,,,,,,,,,,,,,2,1.256,1,,,,,,-0.138959283,-0.236535034,1,0,0,1.2563,Basalt_rect,0,0,0,0,1,
5ed543442db0060a955d12e1,SCR,2024-06-11_12h09.58.118,LearnStrategy,2023.2.3,MacIntel,59.52380952,9,2,2,,,,,,,,2,11,,,,,,,,,,,,,2,4.716,1,,,,,,-0.13471639,-0.234401109,1,0,0,4.7164,Basalt_rect,1,0,1,0,1,
5ed543442db0060a955d12e1,SCR,2024-06-11_12h09.58.118,LearnStrategy,2023.2.3,MacIntel,59.52380952,9,2,3,,,,,,,,3,07,,,,,,,,,,,,,3,1.185,1,,,,,,0.11253106,-0.261281467,1,0,0,1.1854,Diorite_rect,2,0,2,0,1,
5ed543442db0060a955d12e1,SCR,2024-06-11_12h09.58.118,LearnStrategy,2023.2.3,MacIntel,59.52380952,9,2,4,,,,,,,,4,16,,,,,,,,,,,,,4,1.333,1,,,,,,0.373728027,-0.256923692,1,0,0,1.3335,Gabbro_rect,3,0,3,0,1,
5ed543442db0060a955d12e1,SCR,2024-06-11_12h09.58.118,LearnStrategy,2023.2.3,MacIntel,59.52380952,9,2,5,,,,,,,,5,04,,,,,,,,,,,,,5,1.127,1,,,,,,-0.369965719,-0.391191406,1,0,0,1.1267,Obsidian_rect,4,0,4,0,1,
5ed543442db0060a955d12e1,SCR,2024-06-11_12h09.58.118,LearnStrategy,2023.2.3,MacIntel,59.52380952,9,2,6,,,,,,,,1,07,,,,,,,,,,,,,1,2.923,1,,,,,,-0.357187975,-0.240841539,1,0,0,2.9226,Andesite_rect,5,0,5,0,1,
5ed543442db0060a955d12e1,SCR,2024-06-11_12h09.58.118,LearnStrategy,2023.2.3,MacIntel,59.52380952,9,2,7,,,,,,,,4,10,,,,,,,,,,,,,7,2.171,0,,,,,,0.137898763,-0.414846327,1,0,0,2.1711,Peridotite_rect,6,0,6,0,1,
5ed543442db0060a955d12e1,SCR,2024-06-11_12h09.58.118,LearnStrategy,2023.2.3,MacIntel,59.52380952,9,2,8,,,,,,,,8,02,,,,,,,,,,,,,8,0.959,1,,,,,,0.351833225,-0.407902968,1,0,0,0.9586,Pumice_rect,7,0,7,0,1,
5ed543442db0060a955d12e1,SCR,2024-06-11_12h09.58.118,LearnStrategy,2023.2.3,MacIntel,59.52380952,9,2,9,,,,,,,,5,16,,,,,,,,,,,,,5,1.114,1,,,,,,-0.359751485,-0.402097439,1,0,0,1.1144,Obsidian_rect,8,0,8,0,1,
5ed543442db0060a955d12e1,SCR,2024-06-11_12h09.58.118,LearnStrategy,2023.2.3,MacIntel,59.52380952,9,2,10,,,,,,,,1,01,,,,,,,,,,,,,1,4.801,1,,,,,,-0.392834439,-0.2472838,1,0,0,4.8011,Andesite_rect,9,0,9,0,1,
5ed543442db0060a955d12e1,SCR,2024-06-11_12h09.58.118,LearnStrategy,2023.2.3,MacIntel,59.52380952,9,2,11,,,,,,,,6,10,,,,,,,,,,,,,6,1.334,1,,,,,,-0.11884569,-0.406585151,1,0,0,1.3344,Pegmatite_rect,10,0,10,0,1,
5ed543442db0060a955d12e1,SCR,2024-06-11_12h09.58.118,LearnStrategy,2023.2.3,MacIntel,59.52380952,9,2,12,,,,,,,,8,15,,,,,,,,,,,,,8,1.089,1,,,,,,0.337900798,-0.415825602,1,0,0,1.0895,Pumice_rect,11,0,11,0,1,
5ed543442db0060a955d12e1,SCR,2024-06-11_12h09.58.118,LearnStrategy,2023.2.3,MacIntel,59.52380952,9,2,13,,,,,,,,3,09,,,,,,,,,,,,,3,1.979,1,,,,,,0.152563748,-0.257006768,1,0,0,1.9793,Diorite_rect,12,0,12,0,1,
5ed543442db0060a955d12e1,SCR,2024-06-11_12h09.58.118,LearnStrategy,2023.2.3,MacIntel,59.52380952,9,2,14,,,,,,,,7,07,,,,,,,,,,,,,7,1.366,1,,,,,,0.139558648,-0.392992282,1,0,0,1.3662,Peridotite_rect,13,0,13,0,1,
5ed543442db0060a955d12e1,SCR,2024-06-11_12h09.58.118,LearnStrategy,2023.2.3,MacIntel,59.52380952,9,2,15,,,,,,,,7,12,,,,,,,,,,,,,7,2.042,1,,,,,,0.132362264,-0.410042046,1,0,0,2.0418,Peridotite_rect,14,0,14,0,1,
5ed543442db0060a955d12e1,SCR,2024-06-11_12h09.58.118,LearnStrategy,2023.2.3,MacIntel,59.52380952,9,2,16,,,,,,,,6,06,,,,,,,,,,,,,6,3.986,1,,,,,,-0.103301188,-0.389595676,1,0,0,3.9861,Pegmatite_rect,15,0,15,0,1,
5ed543442db0060a955d12e1,SCR,2024-06-11_12h09.58.118,LearnStrategy,2023.2.3,MacIntel,59.52380952,,,,,,,,,,,,,,,,,,,,,,,,,,,,,,,,,,,,,,,,,,,,,1
5ed543442db0060a955d12e1,SCR,2024-06-11_12h09.58.118,LearnStrategy,2023.2.3,MacIntel,59.52380952,,,,,,,,,,,,,,,,,,,,,,,,,,,,,,,,,,,,,,,,,,,,,
5ed543442db0060a955d12e1,SCR,2024-06-11_12h09.58.118,LearnStrategy,2023.2.3,MacIntel,59.52380952,,,,,,,,,,,3,12,1,1,,,,,,,,,,,,,,,,,,,,,,,,,,,,,,,
5ed543442db0060a955d12e1,SCR,2024-06-11_12h09.58.118,LearnStrategy,2023.2.3,MacIntel,59.52380952,,,,,,,,,,,6,07,1,2,,,,,,,,,,,,,,,,,,,,,,,,,,,,,,,
5ed543442db0060a955d12e1,SCR,2024-06-11_12h09.58.118,LearnStrategy,2023.2.3,MacIntel,59.52380952,,,,,,,,,,,6,03,1,3,,,,,,,,,,,,,,,,,,,,,,,,,,,,,,,
5ed543442db0060a955d12e1,SCR,2024-06-11_12h09.58.118,LearnStrategy,2023.2.3,MacIntel,59.52380952,,,,,,,,,,,5,02,1,4,,,,,,,,,,,,,,,,,,,,,,,,,,,,,,,
5ed543442db0060a955d12e1,SCR,2024-06-11_12h09.58.118,LearnStrategy,2023.2.3,MacIntel,59.52380952,,,,,,,,,,,5,06,1,5,,,,,,,,,,,,,,,,,,,,,,,,,,,,,,,
5ed543442db0060a955d12e1,SCR,2024-06-11_12h09.58.118,LearnStrategy,2023.2.3,MacIntel,59.52380952,,,,,,,,,,,1,10,1,6,,,,,,,,,,,,,,,,,,,,,,,,,,,,,,,
5ed543442db0060a955d12e1,SCR,2024-06-11_12h09.58.118,LearnStrategy,2023.2.3,MacIntel,59.52380952,,,,,,,,,,,2,04,1,7,,,,,,,,,,,,,,,,,,,,,,,,,,,,,,,
5ed543442db0060a955d12e1,SCR,2024-06-11_12h09.58.118,LearnStrategy,2023.2.3,MacIntel,59.52380952,,,,,,,,,,,3,10,1,8,,,,,,,,,,,,,,,,,,,,,,,,,,,,,,,
5ed543442db0060a955d12e1,SCR,2024-06-11_12h09.58.118,LearnStrategy,2023.2.3,MacIntel,59.52380952,,,,,,,,,,,7,14,2,1,,,,,,,,,,,,,,,,,,,,,,,,,,,,,,,
5ed543442db0060a955d12e1,SCR,2024-06-11_12h09.58.118,LearnStrategy,2023.2.3,MacIntel,59.52380952,,,,,,,,,,,4,14,2,2,,,,,,,,,,,,,,,,,,,,,,,,,,,,,,,
5ed543442db0060a955d12e1,SCR,2024-06-11_12h09.58.118,LearnStrategy,2023.2.3,MacIntel,59.52380952,,,,,,,,,,,2,06,2,3,,,,,,,,,,,,,,,,,,,,,,,,,,,,,,,
5ed543442db0060a955d12e1,SCR,2024-06-11_12h09.58.118,LearnStrategy,2023.2.3,MacIntel,59.52380952,,,,,,,,,,,1,14,2,4,,,,,,,,,,,,,,,,,,,,,,,,,,,,,,,
5ed543442db0060a955d12e1,SCR,2024-06-11_12h09.58.118,LearnStrategy,2023.2.3,MacIntel,59.52380952,,,,,,,,,,,4,09,2,5,,,,,,,,,,,,,,,,,,,,,,,,,,,,,,,
5ed543442db0060a955d12e1,SCR,2024-06-11_12h09.58.118,LearnStrategy,2023.2.3,MacIntel,59.52380952,,,,,,,,,,,7,05,2,6,,,,,,,,,,,,,,,,,,,,,,,,,,,,,,,
5ed543442db0060a955d12e1,SCR,2024-06-11_12h09.58.118,LearnStrategy,2023.2.3,MacIntel,59.52380952,,,,,,,,,,,8,13,2,7,,,,,,,,,,,,,,,,,,,,,,,,,,,,,,,
5ed543442db0060a955d12e1,SCR,2024-06-11_12h09.58.118,LearnStrategy,2023.2.3,MacIntel,59.52380952,,,,,,,,,,,6,11,2,8,,,,,,,,,,,,,,,,,,,,,,,,,,,,,,,
5ed543442db0060a955d12e1,SCR,2024-06-11_12h09.58.118,LearnStrategy,2023.2.3,MacIntel,59.52380952,,,,,,,,,,,8,05,3,1,,,,,,,,,,,,,,,,,,,,,,,,,,,,,,,
5ed543442db0060a955d12e1,SCR,2024-06-11_12h09.58.118,LearnStrategy,2023.2.3,MacIntel,59.52380952,,,,,,,,,,,3,06,3,2,,,,,,,,,,,,,,,,,,,,,,,,,,,,,,,
5ed543442db0060a955d12e1,SCR,2024-06-11_12h09.58.118,LearnStrategy,2023.2.3,MacIntel,59.52380952,,,,,,,,,,,8,03,3,3,,,,,,,,,,,,,,,,,,,,,,,,,,,,,,,
5ed543442db0060a955d12e1,SCR,2024-06-11_12h09.58.118,LearnStrategy,2023.2.3,MacIntel,59.52380952,,,,,,,,,,,7,02,3,4,,,,,,,,,,,,,,,,,,,,,,,,,,,,,,,
5ed543442db0060a955d12e1,SCR,2024-06-11_12h09.58.118,LearnStrategy,2023.2.3,MacIntel,59.52380952,,,,,,,,,,,8,08,3,5,,,,,,,,,,,,,,,,,,,,,,,,,,,,,,,
5ed543442db0060a955d12e1,SCR,2024-06-11_12h09.58.118,LearnStrategy,2023.2.3,MacIntel,59.52380952,,,,,,,,,,,4,11,3,6,,,,,,,,,,,,,,,,,,,,,,,,,,,,,,,
5ed543442db0060a955d12e1,SCR,2024-06-11_12h09.58.118,LearnStrategy,2023.2.3,MacIntel,59.52380952,,,,,,,,,,,1,04,3,7,,,,,,,,,,,,,,,,,,,,,,,,,,,,,,,
5ed543442db0060a955d12e1,SCR,2024-06-11_12h09.58.118,LearnStrategy,2023.2.3,MacIntel,59.52380952,,,,,,,,,,,6,13,3,8,,,,,,,,,,,,,,,,,,,,,,,,,,,,,,,
5ed543442db0060a955d12e1,SCR,2024-06-11_12h09.58.118,LearnStrategy,2023.2.3,MacIntel,59.52380952,,,,,,,,,,,6,15,4,1,,,,,,,,,,,,,,,,,,,,,,,,,,,,,,,
5ed543442db0060a955d12e1,SCR,2024-06-11_12h09.58.118,LearnStrategy,2023.2.3,MacIntel,59.52380952,,,,,,,,,,,3,14,4,2,,,,,,,,,,,,,,,,,,,,,,,,,,,,,,,
5ed543442db0060a955d12e1,SCR,2024-06-11_12h09.58.118,LearnStrategy,2023.2.3,MacIntel,59.52380952,,,,,,,,,,,1,06,4,3,,,,,,,,,,,,,,,,,,,,,,,,,,,,,,,
5ed543442db0060a955d12e1,SCR,2024-06-11_12h09.58.118,LearnStrategy,2023.2.3,MacIntel,59.52380952,,,,,,,,,,,4,13,4,4,,,,,,,,,,,,,,,,,,,,,,,,,,,,,,,
5ed543442db0060a955d12e1,SCR,2024-06-11_12h09.58.118,LearnStrategy,2023.2.3,MacIntel,59.52380952,,,,,,,,,,,4,03,4,5,,,,,,,,,,,,,,,,,,,,,,,,,,,,,,,
5ed543442db0060a955d12e1,SCR,2024-06-11_12h09.58.118,LearnStrategy,2023.2.3,MacIntel,59.52380952,,,,,,,,,,,2,16,4,6,,,,,,,,,,,,,,,,,,,,,,,,,,,,,,,
5ed543442db0060a955d12e1,SCR,2024-06-11_12h09.58.118,LearnStrategy,2023.2.3,MacIntel,59.52380952,,,,,,,,,,,3,13,4,7,,,,,,,,,,,,,,,,,,,,,,,,,,,,,,,
5ed543442db0060a955d12e1,SCR,2024-06-11_12h09.58.118,LearnStrategy,2023.2.3,MacIntel,59.52380952,,,,,,,,,,,4,01,4,8,,,,,,,,,,,,,,,,,,,,,,,,,,,,,,,
5ed543442db0060a955d12e1,SCR,2024-06-11_12h09.58.118,LearnStrategy,2023.2.3,MacIntel,59.52380952,,,,,,,,,,,5,05,5,1,,,,,,,,,,,,,,,,,,,,,,,,,,,,,,,
5ed543442db0060a955d12e1,SCR,2024-06-11_12h09.58.118,LearnStrategy,2023.2.3,MacIntel,59.52380952,,,,,,,,,,,3,02,5,2,,,,,,,,,,,,,,,,,,,,,,,,,,,,,,,
5ed543442db0060a955d12e1,SCR,2024-06-11_12h09.58.118,LearnStrategy,2023.2.3,MacIntel,59.52380952,,,,,,,,,,,2,05,5,3,,,,,,,,,,,,,,,,,,,,,,,,,,,,,,,
5ed543442db0060a955d12e1,SCR,2024-06-11_12h09.58.118,LearnStrategy,2023.2.3,MacIntel,59.52380952,,,,,,,,,,,2,09,5,4,,,,,,,,,,,,,,,,,,,,,,,,,,,,,,,
5ed543442db0060a955d12e1,SCR,2024-06-11_12h09.58.118,LearnStrategy,2023.2.3,MacIntel,59.52380952,,,,,,,,,,,2,08,5,5,,,,,,,,,,,,,,,,,,,,,,,,,,,,,,,
5ed543442db0060a955d12e1,SCR,2024-06-11_12h09.58.118,LearnStrategy,2023.2.3,MacIntel,59.52380952,,,,,,,,,,,5,08,5,6,,,,,,,,,,,,,,,,,,,,,,,,,,,,,,,
5ed543442db0060a955d12e1,SCR,2024-06-11_12h09.58.118,LearnStrategy,2023.2.3,MacIntel,59.52380952,,,,,,,,,,,5,14,5,7,,,,,,,,,,,,,,,,,,,,,,,,,,,,,,,
5ed543442db0060a955d12e1,SCR,2024-06-11_12h09.58.118,LearnStrategy,2023.2.3,MacIntel,59.52380952,,,,,,,,,,,7,06,5,8,,,,,,,,,,,,,,,,,,,,,,,,,,,,,,,
5ed543442db0060a955d12e1,SCR,2024-06-11_12h09.58.118,LearnStrategy,2023.2.3,MacIntel,59.52380952,,,,,,,,,,,6,09,6,1,,,,,,,,,,,,,,,,,,,,,,,,,,,,,,,
5ed543442db0060a955d12e1,SCR,2024-06-11_12h09.58.118,LearnStrategy,2023.2.3,MacIntel,59.52380952,,,,,,,,,,,1,09,6,2,,,,,,,,,,,,,,,,,,,,,,,,,,,,,,,
5ed543442db0060a955d12e1,SCR,2024-06-11_12h09.58.118,LearnStrategy,2023.2.3,MacIntel,59.52380952,,,,,,,,,,,7,16,6,3,,,,,,,,,,,,,,,,,,,,,,,,,,,,,,,
5ed543442db0060a955d12e1,SCR,2024-06-11_12h09.58.118,LearnStrategy,2023.2.3,MacIntel,59.52380952,,,,,,,,,,,8,09,6,4,,,,,,,,,,,,,,,,,,,,,,,,,,,,,,,
5ed543442db0060a955d12e1,SCR,2024-06-11_12h09.58.118,LearnStrategy,2023.2.3,MacIntel,59.52380952,,,,,,,,,,,7,08,6,5,,,,,,,,,,,,,,,,,,,,,,,,,,,,,,,
5ed543442db0060a955d12e1,SCR,2024-06-11_12h09.58.118,LearnStrategy,2023.2.3,MacIntel,59.52380952,,,,,,,,,,,8,10,6,6,,,,,,,,,,,,,,,,,,,,,,,,,,,,,,,
5ed543442db0060a955d12e1,SCR,2024-06-11_12h09.58.118,LearnStrategy,2023.2.3,MacIntel,59.52380952,,,,,,,,,,,1,05,6,7,,,,,,,,,,,,,,,,,,,,,,,,,,,,,,,
5ed543442db0060a955d12e1,SCR,2024-06-11_12h09.58.118,LearnStrategy,2023.2.3,MacIntel,59.52380952,,,,,,,,,,,5,09,6,8,,,,,,,,,,,,,,,,,,,,,,,,,,,,,,,