participant,condition,date,expName,psychopyVersion,OS,frameRate,block,phase,trial,learn_mouse.x,learn_mouse.y,learn_mouse.leftButton,learn_mouse.midButton,learn_mouse.rightButton,learn_mouse.time,learn_mouse.clicked_name,cat,token,row,col,t_select,cat_mouse_l.x,cat_mouse_l.y,cat_mouse_l.leftButton,cat_mouse_l.midButton,cat_mouse_l.rightButton,cat_mouse_l.time,cat_mouse_l.clicked_name,resp,t_resp,corr,train_trials.thisRepN,train_trials.thisTrialN,train_trials.thisN,train_trials.thisIndex,train_trials.ran,cat_mouse_t.x,cat_mouse_t.y,cat_mouse_t.leftButton,cat_mouse_t.midButton,cat_mouse_t.rightButton,cat_mouse_t.time,cat_mouse_t.clicked_name,test_trials.thisRepN,test_trials.thisTrialN,test_trials.thisN,test_trials.thisIndex,test_trials.ran,Bonus
5ed696d2449ef00dbdce0178,SCN,2024-06-21_10h46.32.776,LearnStrategy,2023.2.3,Win32,60.24096386,,,,,,,,,,,,,,,,,,,,,,,,,,,,,,,,,,,,,,,,,,,
5ed696d2449ef00dbdce0178,SCN,2024-06-21_10h46.32.776,LearnStrategy,2023.2.3,Win32,60.24096386,1,1,1,-0.558114035,0.389802632,1,0,0,4.5319,Diorite_06,3,06,6,1,4.532,0.115131579,-0.245065789,1,0,0,4.1611,Diorite_rect,3,4.161,1,0,0,0,0,1,,,,,,,,,,,,,
5ed696d2449ef00dbdce0178,SCN,2024-06-21_10h46.32.776,LearnStrategy,2023.2.3,Win32,60.24096386,1,1,2,-0.391995614,0.418859649,1,0,0,1.1333,Gabbro_15,4,15,6,2,1.133,-0.134868421,-0.249451754,1,0,0,3.5953,Basalt_rect,2,3.595,0,1,0,1,0,1,,,,,,,,,,,,,
5ed696d2449ef00dbdce0178,SCN,2024-06-21_10h46.32.776,LearnStrategy,2023.2.3,Win32,60.24096386,1,1,3,-0.238486842,0.39747807,1,0,0,1.1033,Gabbro_09,4,09,6,3,1.103,-0.406798246,-0.24122807,1,0,0,1.9697,Andesite_rect,1,1.97,0,2,0,2,0,1,,,,,,,,,,,,,
5ed696d2449ef00dbdce0178,SCN,2024-06-21_10h46.32.776,LearnStrategy,2023.2.3,Win32,60.24096386,1,1,4,-0.07127193,0.384868421,1,0,0,1.3301,Andesite_01,1,01,6,4,1.33,-0.358004386,-0.248903509,1,0,0,3.0909,Andesite_rect,1,3.091,1,3,0,3,0,1,,,,,,,,,,,,,
5ed696d2449ef00dbdce0178,SCN,2024-06-21_10h46.32.776,LearnStrategy,2023.2.3,Win32,60.24096386,1,1,5,0.061951754,0.398574561,1,0,0,0.8969,Gabbro_08,4,08,6,5,0.897,-0.120065789,-0.254934211,1,0,0,6.1201,Basalt_rect,2,6.12,0,4,0,4,0,1,,,,,,,,,,,,,
5ed696d2449ef00dbdce0178,SCN,2024-06-21_10h46.32.776,LearnStrategy,2023.2.3,Win32,60.24096386,1,1,6,0.242324561,0.411184211,1,0,0,0.9528,Gabbro_11,4,11,6,6,0.953,0.376644737,-0.415570175,1,0,0,1.6322,Pumice_rect,8,1.632,0,5,0,5,0,1,,,,,,,,,,,,,
5ed696d2449ef00dbdce0178,SCN,2024-06-21_10h46.32.776,LearnStrategy,2023.2.3,Win32,60.24096386,1,1,7,0.369517544,0.399671053,1,0,0,1.1363,Diorite_09,3,09,6,7,1.136,0.177631579,-0.246710526,1,0,0,1.4135,Diorite_rect,3,1.413,1,6,0,6,0,1,,,,,,,,,,,,,
5ed696d2449ef00dbdce0178,SCN,2024-06-21_10h46.32.776,LearnStrategy,2023.2.3,Win32,60.24096386,1,1,8,0.543311404,0.408442982,1,0,0,1.1916,Pegmatite_12,6,12,6,8,1.192,-0.119517544,-0.395833333,1,0,0,2.552,Pegmatite_rect,6,2.552,1,7,0,7,0,1,,,,,,,,,,,,,
5ed696d2449ef00dbdce0178,SCN,2024-06-21_10h46.32.776,LearnStrategy,2023.2.3,Win32,60.24096386,1,1,9,-0.51370614,0.265350877,1,0,0,1.1502,Pumice_08,8,08,5,1,1.15,0.398574561,-0.405153509,1,0,0,3.4484,Pumice_rect,8,3.448,1,8,0,8,0,1,,,,,,,,,,,,,
5ed696d2449ef00dbdce0178,SCN,2024-06-21_10h46.32.776,LearnStrategy,2023.2.3,Win32,60.24096386,1,1,10,-0.402412281,0.264802632,1,0,0,1.0346,Peridotite_05,7,05,5,2,1.035,0.354166667,-0.241776316,1,0,0,3.5954,Gabbro_rect,4,3.595,0,9,0,9,0,1,,,,,,,,,,,,,
5ed696d2449ef00dbdce0178,SCN,2024-06-21_10h46.32.776,LearnStrategy,2023.2.3,Win32,60.24096386,1,1,11,-0.224780702,0.237938596,1,0,0,1.2611,Obsidian_08,5,08,5,3,1.261,-0.371710526,-0.418859649,1,0,0,1.0598,Obsidian_rect,5,1.06,1,10,0,10,0,1,,,,,,,,,,,,,
5ed696d2449ef00dbdce0178,SCN,2024-06-21_10h46.32.776,LearnStrategy,2023.2.3,Win32,60.24096386,1,1,12,-0.089364035,0.254385965,1,0,0,0.824,Pegmatite_13,6,13,5,4,0.824,-0.146929825,-0.251644737,1,0,0,2.278,Basalt_rect,2,2.278,0,11,0,11,0,1,,,,,,,,,,,,,
5ed696d2449ef00dbdce0178,SCN,2024-06-21_10h46.32.776,LearnStrategy,2023.2.3,Win32,60.24096386,1,1,13,0.106359649,0.233004386,1,0,0,0.9785,Peridotite_14,7,14,5,5,0.978,0.387061404,-0.23245614,1,0,0,3.9766,Gabbro_rect,4,3.977,0,12,0,12,0,1,,,,,,,,,,,,,
5ed696d2449ef00dbdce0178,SCN,2024-06-21_10h46.32.776,LearnStrategy,2023.2.3,Win32,60.24096386,1,1,14,0.223135965,0.259868421,1,0,0,0.8743,Gabbro_12,4,12,5,6,0.874,-0.110197368,-0.237390351,1,0,0,1.7038,Basalt_rect,2,1.704,0,13,0,13,0,1,,,,,,,,,,,,,
5ed696d2449ef00dbdce0178,SCN,2024-06-21_10h46.32.776,LearnStrategy,2023.2.3,Win32,60.24096386,1,1,15,0.360197368,0.251644737,1,0,0,0.9132,Diorite_13,3,13,5,7,0.913,0.166666667,-0.241776316,1,0,0,1.1964,Diorite_rect,3,1.196,1,14,0,14,0,1,,,,,,,,,,,,,
5ed696d2449ef00dbdce0178,SCN,2024-06-21_10h46.32.776,LearnStrategy,2023.2.3,Win32,60.24096386,1,1,16,0.502741228,0.252741228,1,0,0,1.2688,Obsidian_12,5,12,5,8,1.269,-0.371162281,-0.385416667,1,0,0,0.7777,Obsidian_rect,5,0.778,1,15,0,15,0,1,,,,,,,,,,,,,
5ed696d2449ef00dbdce0178,SCN,2024-06-21_10h46.32.776,LearnStrategy,2023.2.3,Win32,60.24096386,1,2,1,,,,,,,,4,10,,,,,,,,,,,2,2.351,0,,,,,,-0.152960526,-0.256030702,1,0,0,2.3512,Basalt_rect,0,0,0,0,1,
5ed696d2449ef00dbdce0178,SCN,2024-06-21_10h46.32.776,LearnStrategy,2023.2.3,Win32,60.24096386,1,2,2,,,,,,,,3,15,,,,,,,,,,,3,1.089,1,,,,,,0.084429825,-0.268092105,1,0,0,1.0886,Diorite_rect,1,0,1,0,1,
5ed696d2449ef00dbdce0178,SCN,2024-06-21_10h46.32.776,LearnStrategy,2023.2.3,Win32,60.24096386,1,2,3,,,,,,,,1,07,,,,,,,,,,,3,1.132,0,,,,,,0.083333333,-0.25877193,1,0,0,1.1322,Diorite_rect,2,0,2,0,1,
5ed696d2449ef00dbdce0178,SCN,2024-06-21_10h46.32.776,LearnStrategy,2023.2.3,Win32,60.24096386,1,2,4,,,,,,,,3,12,,,,,,,,,,,3,0.883,1,,,,,,0.083333333,-0.25877193,1,0,0,0.8829,Diorite_rect,3,0,3,0,1,
5ed696d2449ef00dbdce0178,SCN,2024-06-21_10h46.32.776,LearnStrategy,2023.2.3,Win32,60.24096386,1,2,5,,,,,,,,1,16,,,,,,,,,,,3,1.606,0,,,,,,0.083333333,-0.25877193,1,0,0,1.6056,Diorite_rect,4,0,4,0,1,
5ed696d2449ef00dbdce0178,SCN,2024-06-21_10h46.32.776,LearnStrategy,2023.2.3,Win32,60.24096386,1,2,6,,,,,,,,2,01,,,,,,,,,,,2,1.402,1,,,,,,-0.139802632,-0.253837719,1,0,0,1.4018,Basalt_rect,5,0,5,0,1,
5ed696d2449ef00dbdce0178,SCN,2024-06-21_10h46.32.776,LearnStrategy,2023.2.3,Win32,60.24096386,1,2,7,,,,,,,,6,11,,,,,,,,,,,2,2.393,0,,,,,,-0.124451754,-0.230263158,1,0,0,2.3933,Basalt_rect,6,0,6,0,1,
5ed696d2449ef00dbdce0178,SCN,2024-06-21_10h46.32.776,LearnStrategy,2023.2.3,Win32,60.24096386,1,2,8,,,,,,,,5,11,,,,,,,,,,,5,0.952,1,,,,,,-0.441337719,-0.39254386,1,0,0,0.9517,Obsidian_rect,7,0,7,0,1,
5ed696d2449ef00dbdce0178,SCN,2024-06-21_10h46.32.776,LearnStrategy,2023.2.3,Win32,60.24096386,1,2,9,,,,,,,,8,04,,,,,,,,,,,8,2.513,1,,,,,,0.371162281,-0.394188596,1,0,0,2.5134,Pumice_rect,8,0,8,0,1,
5ed696d2449ef00dbdce0178,SCN,2024-06-21_10h46.32.776,LearnStrategy,2023.2.3,Win32,60.24096386,1,2,10,,,,,,,,7,02,,,,,,,,,,,7,2.469,1,,,,,,0.095942982,-0.412828947,1,0,0,2.4689,Peridotite_rect,9,0,9,0,1,
5ed696d2449ef00dbdce0178,SCN,2024-06-21_10h46.32.776,LearnStrategy,2023.2.3,Win32,60.24096386,1,2,11,,,,,,,,2,04,,,,,,,,,,,2,1.41,1,,,,,,-0.133223684,-0.248355263,1,0,0,1.4099,Basalt_rect,10,0,10,0,1,
5ed696d2449ef00dbdce0178,SCN,2024-06-21_10h46.32.776,LearnStrategy,2023.2.3,Win32,60.24096386,1,2,12,,,,,,,,6,15,,,,,,,,,,,7,2.552,0,,,,,,0.155701754,-0.402960526,1,0,0,2.5522,Peridotite_rect,11,0,11,0,1,
5ed696d2449ef00dbdce0178,SCN,2024-06-21_10h46.32.776,LearnStrategy,2023.2.3,Win32,60.24096386,1,2,13,,,,,,,,7,13,,,,,,,,,,,4,2.272,0,,,,,,0.358552632,-0.252741228,1,0,0,2.2718,Gabbro_rect,12,0,12,0,1,
5ed696d2449ef00dbdce0178,SCN,2024-06-21_10h46.32.776,LearnStrategy,2023.2.3,Win32,60.24096386,1,2,14,,,,,,,,4,14,,,,,,,,,,,4,1.147,1,,,,,,0.402960526,-0.245614035,1,0,0,1.1468,Gabbro_rect,13,0,13,0,1,
5ed696d2449ef00dbdce0178,SCN,2024-06-21_10h46.32.776,LearnStrategy,2023.2.3,Win32,60.24096386,1,2,15,,,,,,,,8,16,,,,,,,,,,,6,2.995,0,,,,,,-0.083881579,-0.407894737,1,0,0,2.9953,Pegmatite_rect,14,0,14,0,1,
5ed696d2449ef00dbdce0178,SCN,2024-06-21_10h46.32.776,LearnStrategy,2023.2.3,Win32,60.24096386,1,2,16,,,,,,,,5,04,,,,,,,,,,,5,1.069,1,,,,,,-0.406798246,-0.402960526,1,0,0,1.0692,Obsidian_rect,15,0,15,0,1,
5ed696d2449ef00dbdce0178,SCN,2024-06-21_10h46.32.776,LearnStrategy,2023.2.3,Win32,60.24096386,2,1,1,0.08004386,0.061403509,1,0,0,1.9782,Diorite_02,3,02,4,5,1.978,0.101973684,-0.26370614,1,0,0,1.5001,Diorite_rect,3,1.5,1,0,0,0,0,1,,,,,,,,,,,,,
5ed696d2449ef00dbdce0178,SCN,2024-06-21_10h46.32.776,LearnStrategy,2023.2.3,Win32,60.24096386,2,1,2,0.277412281,0.086074561,1,0,0,1.2167,Peridotite_08,7,08,4,6,1.217,-0.389802632,-0.246710526,1,0,0,1.4172,Andesite_rect,1,1.417,0,1,0,1,0,1,,,,,,,,,,,,,
5ed696d2449ef00dbdce0178,SCN,2024-06-21_10h46.32.776,LearnStrategy,2023.2.3,Win32,60.24096386,2,1,3,0.411732456,0.096491228,1,0,0,0.8896,Andesite_05,1,05,4,7,0.89,-0.144736842,-0.386513158,1,0,0,1.6498,Pegmatite_rect,6,1.65,0,2,0,2,0,1,,,,,,,,,,,,,
5ed696d2449ef00dbdce0178,SCN,2024-06-21_10h46.32.776,LearnStrategy,2023.2.3,Win32,60.24096386,2,1,4,0.567434211,0.103618421,1,0,0,0.7538,Peridotite_07,7,07,4,8,0.754,-0.122807018,-0.394188596,1,0,0,3.1821,Pegmatite_rect,6,3.182,0,3,0,3,0,1,,,,,,,,,,,,,
5ed696d2449ef00dbdce0178,SCN,2024-06-21_10h46.32.776,LearnStrategy,2023.2.3,Win32,60.24096386,2,1,5,-0.548245614,-0.101425439,1,0,0,1.3836,Basalt_14,2,14,3,1,1.384,0.368421053,-0.24122807,1,0,0,2.4088,Gabbro_rect,4,2.409,0,4,0,4,0,1,,,,,,,,,,,,,
5ed696d2449ef00dbdce0178,SCN,2024-06-21_10h46.32.776,LearnStrategy,2023.2.3,Win32,60.24096386,2,1,6,-0.406798246,-0.098135965,1,0,0,0.8311,Andesite_09,1,09,3,2,0.831,-0.387061404,-0.257675439,1,0,0,1.757,Andesite_rect,1,1.757,1,5,0,5,0,1,,,,,,,,,,,,,
5ed696d2449ef00dbdce0178,SCN,2024-06-21_10h46.32.776,LearnStrategy,2023.2.3,Win32,60.24096386,2,1,7,-0.22752193,-0.100328947,1,0,0,0.7874,Peridotite_06,7,06,3,3,0.787,0.139254386,-0.245065789,1,0,0,3.7308,Diorite_rect,3,3.731,0,6,0,6,0,1,,,,,,,,,,,,,
5ed696d2449ef00dbdce0178,SCN,2024-06-21_10h46.32.776,LearnStrategy,2023.2.3,Win32,60.24096386,2,1,8,-0.046052632,-0.09375,1,0,0,1.084,Pegmatite_08,6,08,3,4,1.084,0.108552632,-0.39747807,1,0,0,2.065,Peridotite_rect,7,2.065,0,7,0,7,0,1,,,,,,,,,,,,,
5ed696d2449ef00dbdce0178,SCN,2024-06-21_10h46.32.776,LearnStrategy,2023.2.3,Win32,60.24096386,2,1,9,0.093201754,-0.122258772,1,0,0,0.9411,Pumice_13,8,13,3,5,0.941,-0.125,-0.254385965,1,0,0,3.8172,Basalt_rect,2,3.817,0,8,0,8,0,1,,,,,,,,,,,,,
5ed696d2449ef00dbdce0178,SCN,2024-06-21_10h46.32.776,LearnStrategy,2023.2.3,Win32,60.24096386,2,1,10,0.248355263,-0.104714912,1,0,0,0.842,Diorite_11,3,11,3,6,0.842,0.089912281,-0.242324561,1,0,0,1.0896,Diorite_rect,3,1.09,1,9,0,9,0,1,,,,,,,,,,,,,
5ed696d2449ef00dbdce0178,SCN,2024-06-21_10h46.32.776,LearnStrategy,2023.2.3,Win32,60.24096386,2,1,11,0.388157895,-0.081688596,1,0,0,0.7744,Obsidian_10,5,10,3,7,0.774,-0.405153509,-0.401315789,1,0,0,0.5948,Obsidian_rect,5,0.595,1,10,0,10,0,1,,,,,,,,,,,,,
5ed696d2449ef00dbdce0178,SCN,2024-06-21_10h46.32.776,LearnStrategy,2023.2.3,Win32,60.24096386,2,1,12,0.554276316,-0.093201754,1,0,0,0.7764,Peridotite_10,7,10,3,8,0.776,0.145285088,-0.39747807,1,0,0,3.2976,Peridotite_rect,7,3.298,1,11,0,11,0,1,,,,,,,,,,,,,
5ed696d2449ef00dbdce0178,SCN,2024-06-21_10h46.32.776,LearnStrategy,2023.2.3,Win32,60.24096386,2,1,13,-0.558662281,-0.254934211,1,0,0,1.0116,Basalt_10,2,10,2,1,1.012,-0.171052632,-0.234649123,1,0,0,1.455,Basalt_rect,2,1.455,1,12,0,12,0,1,,,,,,,,,,,,,
5ed696d2449ef00dbdce0178,SCN,2024-06-21_10h46.32.776,LearnStrategy,2023.2.3,Win32,60.24096386,2,1,14,-0.393092105,-0.257127193,1,0,0,0.7314,Pegmatite_03,6,03,2,2,0.731,0.10745614,-0.406798246,1,0,0,2.0153,Peridotite_rect,7,2.015,0,13,0,13,0,1,,,,,,,,,,,,,
5ed696d2449ef00dbdce0178,SCN,2024-06-21_10h46.32.776,LearnStrategy,2023.2.3,Win32,60.24096386,2,1,15,-0.253837719,-0.241776316,1,0,0,0.8129,Basalt_06,2,06,2,3,0.813,-0.161184211,-0.238486842,1,0,0,1.0865,Basalt_rect,2,1.087,1,14,0,14,0,1,,,,,,,,,,,,,
5ed696d2449ef00dbdce0178,SCN,2024-06-21_10h46.32.776,LearnStrategy,2023.2.3,Win32,60.24096386,2,1,16,-0.091008772,-0.241776316,1,0,0,0.7731,Basalt_08,2,08,2,4,0.773,-0.17872807,-0.270833333,1,0,0,0.8215,Basalt_rect,2,0.822,1,15,0,15,0,1,,,,,,,,,,,,,
5ed696d2449ef00dbdce0178,SCN,2024-06-21_10h46.32.776,LearnStrategy,2023.2.3,Win32,60.24096386,2,2,1,,,,,,,,2,05,,,,,,,,,,,2,1.25,1,,,,,,-0.111842105,-0.24122807,1,0,0,1.2499,Basalt_rect,0,0,0,0,1,
5ed696d2449ef00dbdce0178,SCN,2024-06-21_10h46.32.776,LearnStrategy,2023.2.3,Win32,60.24096386,2,2,2,,,,,,,,1,14,,,,,,,,,,,1,4.097,1,,,,,,-0.374451754,-0.230811404,1,0,0,4.0973,Andesite_rect,1,0,1,0,1,
5ed696d2449ef00dbdce0178,SCN,2024-06-21_10h46.32.776,LearnStrategy,2023.2.3,Win32,60.24096386,2,2,3,,,,,,,,5,16,,,,,,,,,,,5,1.088,1,,,,,,-0.393092105,-0.403508772,1,0,0,1.088,Obsidian_rect,2,0,2,0,1,
5ed696d2449ef00dbdce0178,SCN,2024-06-21_10h46.32.776,LearnStrategy,2023.2.3,Win32,60.24096386,2,2,4,,,,,,,,8,05,,,,,,,,,,,8,1.165,1,,,,,,0.40625,-0.398574561,1,0,0,1.1654,Pumice_rect,3,0,3,0,1,
5ed696d2449ef00dbdce0178,SCN,2024-06-21_10h46.32.776,LearnStrategy,2023.2.3,Win32,60.24096386,2,2,5,,,,,,,,6,06,,,,,,,,,,,7,3.294,0,,,,,,0.125548246,-0.387061404,1,0,0,3.2944,Peridotite_rect,4,0,4,0,1,
5ed696d2449ef00dbdce0178,SCN,2024-06-21_10h46.32.776,LearnStrategy,2023.2.3,Win32,60.24096386,2,2,6,,,,,,,,3,07,,,,,,,,,,,1,2.227,0,,,,,,-0.391447368,-0.257675439,1,0,0,2.227,Andesite_rect,5,0,5,0,1,
5ed696d2449ef00dbdce0178,SCN,2024-06-21_10h46.32.776,LearnStrategy,2023.2.3,Win32,60.24096386,2,2,7,,,,,,,,4,16,,,,,,,,,,,2,1.215,0,,,,,,-0.119517544,-0.234100877,1,0,0,1.2153,Basalt_rect,6,0,6,0,1,
5ed696d2449ef00dbdce0178,SCN,2024-06-21_10h46.32.776,LearnStrategy,2023.2.3,Win32,60.24096386,2,2,8,,,,,,,,1,04,,,,,,,,,,,2,1.317,0,,,,,,-0.106359649,-0.247258772,1,0,0,1.3165,Basalt_rect,7,0,7,0,1,
5ed696d2449ef00dbdce0178,SCN,2024-06-21_10h46.32.776,LearnStrategy,2023.2.3,Win32,60.24096386,2,2,9,,,,,,,,8,14,,,,,,,,,,,8,1.058,1,,,,,,0.404605263,-0.395833333,1,0,0,1.0583,Pumice_rect,8,0,8,0,1,
5ed696d2449ef00dbdce0178,SCN,2024-06-21_10h46.32.776,LearnStrategy,2023.2.3,Win32,60.24096386,2,2,10,,,,,,,,4,03,,,,,,,,,,,1,3.136,0,,,,,,-0.35252193,-0.249451754,1,0,0,3.1361,Andesite_rect,9,0,9,0,1,
5ed696d2449ef00dbdce0178,SCN,2024-06-21_10h46.32.776,LearnStrategy,2023.2.3,Win32,60.24096386,2,2,11,,,,,,,,2,16,,,,,,,,,,,2,2.051,1,,,,,,-0.126644737,-0.251096491,1,0,0,2.0506,Basalt_rect,10,0,10,0,1,
5ed696d2449ef00dbdce0178,SCN,2024-06-21_10h46.32.776,LearnStrategy,2023.2.3,Win32,60.24096386,2,2,12,,,,,,,,5,07,,,,,,,,,,,5,1.889,1,,,,,,-0.430372807,-0.378289474,1,0,0,1.8892,Obsidian_rect,11,0,11,0,1,
5ed696d2449ef00dbdce0178,SCN,2024-06-21_10h46.32.776,LearnStrategy,2023.2.3,Win32,60.24096386,2,2,13,,,,,,,,7,15,,,,,,,,,,,7,3.414,1,,,,,,0.134320175,-0.399671053,1,0,0,3.4141,Peridotite_rect,12,0,12,0,1,
5ed696d2449ef00dbdce0178,SCN,2024-06-21_10h46.32.776,LearnStrategy,2023.2.3,Win32,60.24096386,2,2,14,,,,,,,,3,14,,,,,,,,,,,1,2.985,0,,,,,,-0.394736842,-0.243969298,1,0,0,2.9852,Andesite_rect,13,0,13,0,1,
5ed696d2449ef00dbdce0178,SCN,2024-06-21_10h46.32.776,LearnStrategy,2023.2.3,Win32,60.24096386,2,2,15,,,,,,,,7,16,,,,,,,,,,,2,1.204,0,,,,,,-0.134868421,-0.241776316,1,0,0,1.2038,Basalt_rect,14,0,14,0,1,
5ed696d2449ef00dbdce0178,SCN,2024-06-21_10h46.32.776,LearnStrategy,2023.2.3,Win32,60.24096386,2,2,16,,,,,,,,6,05,,,,,,,,,,,3,2.156,0,,,,,,0.155701754,-0.254385965,1,0,0,2.1562,Diorite_rect,15,0,15,0,1,
5ed696d2449ef00dbdce0178,SCN,2024-06-21_10h46.32.776,LearnStrategy,2023.2.3,Win32,60.24096386,3,1,1,0.077850877,-0.252192982,1,0,0,1.2915,Pumice_06,8,06,2,5,1.291,0.381030702,-0.405701754,1,0,0,1.4144,Pumice_rect,8,1.414,1,0,0,0,0,1,,,,,,,,,,,,,
5ed696d2449ef00dbdce0178,SCN,2024-06-21_10h46.32.776,LearnStrategy,2023.2.3,Win32,60.24096386,3,1,2,0.249451754,-0.259868421,1,0,0,1.2279,Basalt_09,2,09,2,6,1.228,-0.144188596,-0.265350877,1,0,0,1.4106,Basalt_rect,2,1.411,1,1,0,1,0,1,,,,,,,,,,,,,
5ed696d2449ef00dbdce0178,SCN,2024-06-21_10h46.32.776,LearnStrategy,2023.2.3,Win32,60.24096386,3,1,3,0.401315789,-0.282894737,1,0,0,0.8572,Andesite_02,1,02,2,7,0.857,0.148026316,-0.242324561,1,0,0,2.5906,Diorite_rect,3,2.591,0,2,0,2,0,1,,,,,,,,,,,,,
5ed696d2449ef00dbdce0178,SCN,2024-06-21_10h46.32.776,LearnStrategy,2023.2.3,Win32,60.24096386,3,1,4,0.561403509,-0.278508772,1,0,0,0.9449,Pegmatite_10,6,10,2,8,0.945,-0.163377193,-0.399671053,1,0,0,3.0387,Pegmatite_rect,6,3.039,1,3,0,3,0,1,,,,,,,,,,,,,
5ed696d2449ef00dbdce0178,SCN,2024-06-21_10h46.32.776,LearnStrategy,2023.2.3,Win32,60.24096386,3,1,5,-0.569078947,-0.408442982,1,0,0,1.1999,Diorite_16,3,16,1,1,1.2,-0.382675439,-0.245065789,1,0,0,1.1158,Andesite_rect,1,1.116,0,4,0,4,0,1,,,,,,,,,,,,,
5ed696d2449ef00dbdce0178,SCN,2024-06-21_10h46.32.776,LearnStrategy,2023.2.3,Win32,60.24096386,3,1,6,-0.410087719,-0.430921053,1,0,0,0.8036,Basalt_02,2,02,1,2,0.804,-0.084429825,-0.254934211,1,0,0,1.0819,Basalt_rect,2,1.082,1,5,0,5,0,1,,,,,,,,,,,,,
5ed696d2449ef00dbdce0178,SCN,2024-06-21_10h46.32.776,LearnStrategy,2023.2.3,Win32,60.24096386,3,1,7,-0.246710526,-0.423245614,1,0,0,0.7985,Pumice_15,8,15,1,3,0.798,0.444078947,-0.384320175,1,0,0,0.8976,Pumice_rect,8,0.898,1,6,0,6,0,1,,,,,,,,,,,,,
5ed696d2449ef00dbdce0178,SCN,2024-06-21_10h46.32.776,LearnStrategy,2023.2.3,Win32,60.24096386,3,1,8,-0.07127193,-0.404057018,1,0,0,0.6847,Obsidian_05,5,05,1,4,0.685,-0.426535088,-0.391447368,1,0,0,1.5358,Obsidian_rect,5,1.536,1,7,0,7,0,1,,,,,,,,,,,,,
5ed696d2449ef00dbdce0178,SCN,2024-06-21_10h46.32.776,LearnStrategy,2023.2.3,Win32,60.24096386,3,1,9,0.047697368,-0.414473684,1,0,0,0.9663,Andesite_03,1,03,1,5,0.966,-0.116776316,-0.254385965,1,0,0,0.9989,Basalt_rect,2,0.999,0,8,0,8,0,1,,,,,,,,,,,,,
5ed696d2449ef00dbdce0178,SCN,2024-06-21_10h46.32.776,LearnStrategy,2023.2.3,Win32,60.24096386,3,1,10,0.089912281,-0.377192982,1,0,0,0.8555,Andesite_03,1,03,1,5,0.856,-0.355263158,-0.243969298,1,0,0,1.3036,Andesite_rect,1,1.304,1,9,0,9,0,1,,,,,,,,,,,,,
5ed696d2449ef00dbdce0178,SCN,2024-06-21_10h46.32.776,LearnStrategy,2023.2.3,Win32,60.24096386,3,1,11,0.254385965,-0.42379386,1,0,0,0.7283,Obsidian_14,5,14,1,6,0.728,-0.348135965,-0.395285088,1,0,0,0.7904,Obsidian_rect,5,0.79,1,10,0,10,0,1,,,,,,,,,,,,,
5ed696d2449ef00dbdce0178,SCN,2024-06-21_10h46.32.776,LearnStrategy,2023.2.3,Win32,60.24096386,3,1,12,0.379385965,-0.428179825,1,0,0,0.8442,Pumice_03,8,03,1,7,0.844,0.371710526,-0.378837719,1,0,0,0.7616,Pumice_rect,8,0.762,1,11,0,11,0,1,,,,,,,,,,,,,
5ed696d2449ef00dbdce0178,SCN,2024-06-21_10h46.32.776,LearnStrategy,2023.2.3,Win32,60.24096386,3,1,13,0.543311404,-0.421600877,1,0,0,0.6863,Andesite_10,1,10,1,8,0.686,-0.162828947,-0.247807018,1,0,0,1.3567,Basalt_rect,2,1.357,0,12,0,12,0,1,,,,,,,,,,,,,
5ed696d2449ef00dbdce0178,SCN,2024-06-21_10h46.32.776,LearnStrategy,2023.2.3,Win32,60.24096386,3,1,14,0.507675439,-0.400767544,1,0,0,0.7953,Andesite_10,1,10,1,8,0.795,-0.349780702,-0.231907895,1,0,0,1.4105,Andesite_rect,1,1.411,1,13,0,13,0,1,,,,,,,,,,,,,
5ed696d2449ef00dbdce0178,SCN,2024-06-21_10h46.32.776,LearnStrategy,2023.2.3,Win32,60.24096386,3,1,15,-0.363486842,0.257675439,1,0,0,1.7706,Peridotite_05,7,05,5,2,1.771,0.123355263,-0.388157895,1,0,0,4.1723,Peridotite_rect,7,4.172,1,14,0,14,0,1,,,,,,,,,,,,,
5ed696d2449ef00dbdce0178,SCN,2024-06-21_10h46.32.776,LearnStrategy,2023.2.3,Win32,60.24096386,3,1,16,-0.389802632,0.240679825,1,0,0,0.7896,Peridotite_05,7,05,5,2,0.79,0.124451754,-0.400219298,1,0,0,0.7589,Peridotite_rect,7,0.759,1,15,0,15,0,1,,,,,,,,,,,,,
5ed696d2449ef00dbdce0178,SCN,2024-06-21_10h46.32.776,LearnStrategy,2023.2.3,Win32,60.24096386,3,2,1,,,,,,,,7,12,,,,,,,,,,,3,2.551,0,,,,,,0.14747807,-0.251096491,1,0,0,2.5509,Diorite_rect,0,0,0,0,1,
5ed696d2449ef00dbdce0178,SCN,2024-06-21_10h46.32.776,LearnStrategy,2023.2.3,Win32,60.24096386,3,2,2,,,,,,,,3,10,,,,,,,,,,,3,1.031,1,,,,,,0.14747807,-0.251096491,1,0,0,1.031,Diorite_rect,1,0,1,0,1,
5ed696d2449ef00dbdce0178,SCN,2024-06-21_10h46.32.776,LearnStrategy,2023.2.3,Win32,60.24096386,3,2,3,,,,,,,,4,05,,,,,,,,,,,1,2.252,0,,,,,,-0.356907895,-0.250548246,1,0,0,2.2523,Andesite_rect,2,0,2,0,1,
5ed696d2449ef00dbdce0178,SCN,2024-06-21_10h46.32.776,LearnStrategy,2023.2.3,Win32,60.24096386,3,2,4,,,,,,,,4,01,,,,,,,,,,,1,1.198,0,,,,,,-0.378289474,-0.23629386,1,0,0,1.1975,Andesite_rect,3,0,3,0,1,
5ed696d2449ef00dbdce0178,SCN,2024-06-21_10h46.32.776,LearnStrategy,2023.2.3,Win32,60.24096386,3,2,5,,,,,,,,1,06,,,,,,,,,,,3,1.969,0,,,,,,0.106907895,-0.245065789,1,0,0,1.9694,Diorite_rect,4,0,4,0,1,
5ed696d2449ef00dbdce0178,SCN,2024-06-21_10h46.32.776,LearnStrategy,2023.2.3,Win32,60.24096386,3,2,6,,,,,,,,8,02,,,,,,,,,,,8,1.528,1,,,,,,0.420504386,-0.385416667,1,0,0,1.5283,Pumice_rect,5,0,5,0,1,
5ed696d2449ef00dbdce0178,SCN,2024-06-21_10h46.32.776,LearnStrategy,2023.2.3,Win32,60.24096386,3,2,7,,,,,,,,7,04,,,,,,,,,,,3,1.466,0,,,,,,0.132675439,-0.235745614,1,0,0,1.4659,Diorite_rect,6,0,6,0,1,
5ed696d2449ef00dbdce0178,SCN,2024-06-21_10h46.32.776,LearnStrategy,2023.2.3,Win32,60.24096386,3,2,8,,,,,,,,5,06,,,,,,,,,,,5,1.112,1,,,,,,-0.429276316,-0.39747807,1,0,0,1.1122,Obsidian_rect,7,0,7,0,1,
5ed696d2449ef00dbdce0178,SCN,2024-06-21_10h46.32.776,LearnStrategy,2023.2.3,Win32,60.24096386,3,2,9,,,,,,,,2,11,,,,,,,,,,,8,1.826,0,,,,,,0.383223684,-0.396381579,1,0,0,1.8261,Pumice_rect,8,0,8,0,1,
5ed696d2449ef00dbdce0178,SCN,2024-06-21_10h46.32.776,LearnStrategy,2023.2.3,Win32,60.24096386,3,2,10,,,,,,,,5,09,,,,,,,,,,,5,1.052,1,,,,,,-0.41995614,-0.391447368,1,0,0,1.052,Obsidian_rect,9,0,9,0,1,
5ed696d2449ef00dbdce0178,SCN,2024-06-21_10h46.32.776,LearnStrategy,2023.2.3,Win32,60.24096386,3,2,11,,,,,,,,6,09,,,,,,,,,,,2,1.205,0,,,,,,-0.099232456,-0.248903509,1,0,0,1.205,Basalt_rect,10,0,10,0,1,
5ed696d2449ef00dbdce0178,SCN,2024-06-21_10h46.32.776,LearnStrategy,2023.2.3,Win32,60.24096386,3,2,12,,,,,,,,1,11,,,,,,,,,,,4,4.946,0,,,,,,0.462719298,-0.252741228,1,0,0,4.9461,Gabbro_rect,11,0,11,0,1,
5ed696d2449ef00dbdce0178,SCN,2024-06-21_10h46.32.776,LearnStrategy,2023.2.3,Win32,60.24096386,3,2,13,,,,,,,,2,12,,,,,,,,,,,8,2.753,0,,,,,,0.407346491,-0.411732456,1,0,0,2.7535,Pumice_rect,12,0,12,0,1,
5ed696d2449ef00dbdce0178,SCN,2024-06-21_10h46.32.776,LearnStrategy,2023.2.3,Win32,60.24096386,3,2,14,,,,,,,,3,08,,,,,,,,,,,3,2,1,,,,,,0.117872807,-0.252741228,1,0,0,2.0004,Diorite_rect,13,0,13,0,1,
5ed696d2449ef00dbdce0178,SCN,2024-06-21_10h46.32.776,LearnStrategy,2023.2.3,Win32,60.24096386,3,2,15,,,,,,,,6,07,,,,,,,,,,,5,1.895,0,,,,,,-0.381030702,-0.399122807,1,0,0,1.8954,Obsidian_rect,14,0,14,0,1,
5ed696d2449ef00dbdce0178,SCN,2024-06-21_10h46.32.776,LearnStrategy,2023.2.3,Win32,60.24096386,3,2,16,,,,,,,,8,09,,,,,,,,,,,8,1.21,1,,,,,,0.407346491,-0.383223684,1,0,0,1.2098,Pumice_rect,15,0,15,0,1,
5ed696d2449ef00dbdce0178,SCN,2024-06-21_10h46.32.776,LearnStrategy,2023.2.3,Win32,60.24096386,4,1,1,-0.539473684,0.385416667,1,0,0,5.8481,Diorite_06,3,06,6,1,5.848,0.139802632,-0.255482456,1,0,0,6.8655,Diorite_rect,3,6.865,1,0,0,0,0,1,,,,,,,,,,,,,
5ed696d2449ef00dbdce0178,SCN,2024-06-21_10h46.32.776,LearnStrategy,2023.2.3,Win32,60.24096386,4,1,2,-0.386513158,0.404057018,1,0,0,0.9258,Gabbro_15,4,15,6,2,0.926,-0.088815789,-0.242872807,1,0,0,4.0726,Basalt_rect,2,4.073,0,1,0,1,0,1,,,,,,,,,,,,,
5ed696d2449ef00dbdce0178,SCN,2024-06-21_10h46.32.776,LearnStrategy,2023.2.3,Win32,60.24096386,4,1,3,-0.416118421,0.408991228,1,0,0,0.785,Gabbro_15,4,15,6,2,0.785,0.447916667,-0.254385965,1,0,0,0.8389,Gabbro_rect,4,0.839,1,2,0,2,0,1,,,,,,,,,,,,,
5ed696d2449ef00dbdce0178,SCN,2024-06-21_10h46.32.776,LearnStrategy,2023.2.3,Win32,60.24096386,4,1,4,-0.228618421,0.408442982,1,0,0,0.9085,Gabbro_09,4,09,6,3,0.909,-0.144736842,-0.246162281,1,0,0,7.6015,Basalt_rect,2,7.601,0,3,0,3,0,1,,,,,,,,,,,,,
5ed696d2449ef00dbdce0178,SCN,2024-06-21_10h46.32.776,LearnStrategy,2023.2.3,Win32,60.24096386,4,1,5,0.078947368,0.389254386,1,0,0,1.0107,Gabbro_08,4,08,6,5,1.011,0.351425439,-0.262609649,1,0,0,5.6048,Gabbro_rect,4,5.605,1,4,0,4,0,1,,,,,,,,,,,,,
5ed696d2449ef00dbdce0178,SCN,2024-06-21_10h46.32.776,LearnStrategy,2023.2.3,Win32,60.24096386,4,1,6,0.234100877,0.441885965,1,0,0,1.0041,Gabbro_11,4,11,6,6,1.004,0.411184211,-0.247807018,1,0,0,2.7108,Gabbro_rect,4,2.711,1,5,0,5,0,1,,,,,,,,,,,,,
5ed696d2449ef00dbdce0178,SCN,2024-06-21_10h46.32.776,LearnStrategy,2023.2.3,Win32,60.24096386,4,1,7,0.387061404,0.39254386,1,0,0,0.681,Diorite_09,3,09,6,7,0.681,0.097039474,-0.243421053,1,0,0,3.3527,Diorite_rect,3,3.353,1,6,0,6,0,1,,,,,,,,,,,,,
5ed696d2449ef00dbdce0178,SCN,2024-06-21_10h46.32.776,LearnStrategy,2023.2.3,Win32,60.24096386,4,1,8,0.557565789,0.402960526,1,0,0,0.9056,Pegmatite_12,6,12,6,8,0.906,0.117872807,-0.400219298,1,0,0,7.433,Peridotite_rect,7,7.433,0,7,0,7,0,1,,,,,,,,,,,,,
5ed696d2449ef00dbdce0178,SCN,2024-06-21_10h46.32.776,LearnStrategy,2023.2.3,Win32,60.24096386,4,1,9,-0.561403509,0.238486842,1,0,0,1.0701,Pumice_08,8,08,5,1,1.07,0.417763158,-0.408442982,1,0,0,1.4087,Pumice_rect,8,1.409,1,8,0,8,0,1,,,,,,,,,,,,,
5ed696d2449ef00dbdce0178,SCN,2024-06-21_10h46.32.776,LearnStrategy,2023.2.3,Win32,60.24096386,4,1,10,-0.416118421,0.266447368,1,0,0,0.6548,Peridotite_05,7,05,5,2,0.655,0.145833333,-0.408991228,1,0,0,9.301,Peridotite_rect,7,9.301,1,9,0,9,0,1,,,,,,,,,,,,,
5ed696d2449ef00dbdce0178,SCN,2024-06-21_10h46.32.776,LearnStrategy,2023.2.3,Win32,60.24096386,4,1,11,-0.240131579,0.240131579,1,0,0,1.1094,Obsidian_08,5,08,5,3,1.109,-0.430921053,-0.381578947,1,0,0,1.0199,Obsidian_rect,5,1.02,1,10,0,10,0,1,,,,,,,,,,,,,
5ed696d2449ef00dbdce0178,SCN,2024-06-21_10h46.32.776,LearnStrategy,2023.2.3,Win32,60.24096386,4,1,12,-0.071820175,0.237938596,1,0,0,0.8345,Pegmatite_13,6,13,5,4,0.835,-0.426535088,-0.259320175,1,0,0,6.3027,Andesite_rect,1,6.303,0,11,0,11,0,1,,,,,,,,,,,,,
5ed696d2449ef00dbdce0178,SCN,2024-06-21_10h46.32.776,LearnStrategy,2023.2.3,Win32,60.24096386,4,1,13,0.086622807,0.223684211,1,0,0,1.0473,Peridotite_14,7,14,5,5,1.047,0.395285088,-0.244517544,1,0,0,4.2493,Gabbro_rect,4,4.249,0,12,0,12,0,1,,,,,,,,,,,,,
5ed696d2449ef00dbdce0178,SCN,2024-06-21_10h46.32.776,LearnStrategy,2023.2.3,Win32,60.24096386,4,1,14,0.24122807,0.245065789,1,0,0,1.1241,Gabbro_12,4,12,5,6,1.124,-0.132675439,-0.253837719,1,0,0,1.001,Basalt_rect,2,1.001,0,13,0,13,0,1,,,,,,,,,,,,,
5ed696d2449ef00dbdce0178,SCN,2024-06-21_10h46.32.776,LearnStrategy,2023.2.3,Win32,60.24096386,4,1,15,0.38870614,0.237390351,1,0,0,0.7455,Diorite_13,3,13,5,7,0.745,0.124451754,-0.253289474,1,0,0,1.618,Diorite_rect,3,1.618,1,14,0,14,0,1,,,,,,,,,,,,,
5ed696d2449ef00dbdce0178,SCN,2024-06-21_10h46.32.776,LearnStrategy,2023.2.3,Win32,60.24096386,4,1,16,0.552631579,0.270285088,1,0,0,0.7902,Obsidian_12,5,12,5,8,0.79,-0.376644737,-0.411732456,1,0,0,0.8022,Obsidian_rect,5,0.802,1,15,0,15,0,1,,,,,,,,,,,,,
5ed696d2449ef00dbdce0178,SCN,2024-06-21_10h46.32.776,LearnStrategy,2023.2.3,Win32,60.24096386,4,2,1,,,,,,,,4,10,,,,,,,,,,,2,3.858,0,,,,,,-0.121162281,-0.260416667,1,0,0,3.8577,Basalt_rect,0,0,0,0,1,
5ed696d2449ef00dbdce0178,SCN,2024-06-21_10h46.32.776,LearnStrategy,2023.2.3,Win32,60.24096386,4,2,2,,,,,,,,6,09,,,,,,,,,,,7,2.521,0,,,,,,0.058662281,-0.393640351,1,0,0,2.5211,Peridotite_rect,1,0,1,0,1,
5ed696d2449ef00dbdce0178,SCN,2024-06-21_10h46.32.776,LearnStrategy,2023.2.3,Win32,60.24096386,4,2,3,,,,,,,,2,05,,,,,,,,,,,2,1.275,1,,,,,,-0.11129386,-0.254934211,1,0,0,1.2747,Basalt_rect,2,0,2,0,1,
5ed696d2449ef00dbdce0178,SCN,2024-06-21_10h46.32.776,LearnStrategy,2023.2.3,Win32,60.24096386,4,2,4,,,,,,,,7,13,,,,,,,,,,,6,2.301,0,,,,,,-0.14747807,-0.401864035,1,0,0,2.3008,Pegmatite_rect,3,0,3,0,1,
5ed696d2449ef00dbdce0178,SCN,2024-06-21_10h46.32.776,LearnStrategy,2023.2.3,Win32,60.24096386,4,2,5,,,,,,,,1,14,,,,,,,,,,,6,2.624,0,,,,,,-0.149122807,-0.400767544,1,0,0,2.6237,Pegmatite_rect,4,0,4,0,1,
5ed696d2449ef00dbdce0178,SCN,2024-06-21_10h46.32.776,LearnStrategy,2023.2.3,Win32,60.24096386,4,2,6,,,,,,,,8,05,,,,,,,,,,,8,1.077,1,,,,,,0.400767544,-0.387061404,1,0,0,1.0774,Pumice_rect,5,0,5,0,1,
5ed696d2449ef00dbdce0178,SCN,2024-06-21_10h46.32.776,LearnStrategy,2023.2.3,Win32,60.24096386,4,2,7,,,,,,,,3,07,,,,,,,,,,,3,1.67,1,,,,,,0.13870614,-0.247807018,1,0,0,1.6698,Diorite_rect,6,0,6,0,1,
5ed696d2449ef00dbdce0178,SCN,2024-06-21_10h46.32.776,LearnStrategy,2023.2.3,Win32,60.24096386,4,2,8,,,,,,,,8,02,,,,,,,,,,,8,1.063,1,,,,,,0.410087719,-0.390350877,1,0,0,1.0625,Pumice_rect,7,0,7,0,1,
5ed696d2449ef00dbdce0178,SCN,2024-06-21_10h46.32.776,LearnStrategy,2023.2.3,Win32,60.24096386,4,2,9,,,,,,,,2,16,,,,,,,,,,,2,1.108,1,,,,,,-0.123903509,-0.239583333,1,0,0,1.1082,Basalt_rect,8,0,8,0,1,
5ed696d2449ef00dbdce0178,SCN,2024-06-21_10h46.32.776,LearnStrategy,2023.2.3,Win32,60.24096386,4,2,10,,,,,,,,1,16,,,,,,,,,,,3,2.413,0,,,,,,0.134320175,-0.252741228,1,0,0,2.4132,Diorite_rect,9,0,9,0,1,
5ed696d2449ef00dbdce0178,SCN,2024-06-21_10h46.32.776,LearnStrategy,2023.2.3,Win32,60.24096386,4,2,11,,,,,,,,5,06,,,,,,,,,,,5,0.992,1,,,,,,-0.42872807,-0.404605263,1,0,0,0.992,Obsidian_rect,10,0,10,0,1,
5ed696d2449ef00dbdce0178,SCN,2024-06-21_10h46.32.776,LearnStrategy,2023.2.3,Win32,60.24096386,4,2,12,,,,,,,,4,05,,,,,,,,,,,2,1.043,0,,,,,,-0.161732456,-0.263157895,1,0,0,1.0428,Basalt_rect,11,0,11,0,1,
5ed696d2449ef00dbdce0178,SCN,2024-06-21_10h46.32.776,LearnStrategy,2023.2.3,Win32,60.24096386,4,2,13,,,,,,,,7,12,,,,,,,,,,,3,2.203,0,,,,,,0.075109649,-0.260964912,1,0,0,2.2029,Diorite_rect,12,0,12,0,1,
5ed696d2449ef00dbdce0178,SCN,2024-06-21_10h46.32.776,LearnStrategy,2023.2.3,Win32,60.24096386,4,2,14,,,,,,,,5,11,,,,,,,,,,,5,0.925,1,,,,,,-0.424890351,-0.41995614,1,0,0,0.9255,Obsidian_rect,13,0,13,0,1,
5ed696d2449ef00dbdce0178,SCN,2024-06-21_10h46.32.776,LearnStrategy,2023.2.3,Win32,60.24096386,4,2,15,,,,,,,,6,06,,,,,,,,,,,4,4.617,0,,,,,,0.384868421,-0.251096491,1,0,0,4.6167,Gabbro_rect,14,0,14,0,1,
5ed696d2449ef00dbdce0178,SCN,2024-06-21_10h46.32.776,LearnStrategy,2023.2.3,Win32,60.24096386,4,2,16,,,,,,,,3,15,,,,,,,,,,,1,3.459,0,,,,,,-0.377741228,-0.264254386,1,0,0,3.4586,Andesite_rect,15,0,15,0,1,
5ed696d2449ef00dbdce0178,SCN,2024-06-21_10h46.32.776,LearnStrategy,2023.2.3,Win32,60.24096386,5,1,1,0.081140351,0.112938596,1,0,0,1.578,Diorite_02,3,02,4,5,1.578,-0.150767544,-0.256030702,1,0,0,1.0179,Basalt_rect,2,1.018,0,0,0,0,0,1,,,,,,,,,,,,,
5ed696d2449ef00dbdce0178,SCN,2024-06-21_10h46.32.776,LearnStrategy,2023.2.3,Win32,60.24096386,5,1,2,0.052631579,0.109649123,1,0,0,0.6069,Diorite_02,3,02,4,5,0.607,0.094846491,-0.247807018,1,0,0,1.2421,Diorite_rect,3,1.242,1,1,0,1,0,1,,,,,,,,,,,,,
5ed696d2449ef00dbdce0178,SCN,2024-06-21_10h46.32.776,LearnStrategy,2023.2.3,Win32,60.24096386,5,1,3,-0.527412281,0.404605263,1,0,0,0.8982,Diorite_06,3,06,6,1,0.898,0.160087719,-0.259868421,1,0,0,2.2638,Diorite_rect,3,2.264,1,2,0,2,0,1,,,,,,,,,,,,,
5ed696d2449ef00dbdce0178,SCN,2024-06-21_10h46.32.776,LearnStrategy,2023.2.3,Win32,60.24096386,5,1,4,-0.406798246,0.434758772,1,0,0,0.6842,Gabbro_15,4,15,6,2,0.684,-0.432017544,-0.254385965,1,0,0,1.4718,Andesite_rect,1,1.472,0,3,0,3,0,1,,,,,,,,,,,,,
5ed696d2449ef00dbdce0178,SCN,2024-06-21_10h46.32.776,LearnStrategy,2023.2.3,Win32,60.24096386,5,1,5,-0.418859649,0.419407895,1,0,0,0.6629,Gabbro_15,4,15,6,2,0.663,0.361842105,-0.248355263,1,0,0,0.7572,Gabbro_rect,4,0.757,1,4,0,4,0,1,,,,,,,,,,,,,
5ed696d2449ef00dbdce0178,SCN,2024-06-21_10h46.32.776,LearnStrategy,2023.2.3,Win32,60.24096386,5,1,6,-0.376096491,0.41502193,1,0,0,0.5678,Gabbro_15,4,15,6,2,0.568,0.444627193,-0.253837719,1,0,0,0.6666,Gabbro_rect,4,0.667,1,5,0,5,0,1,,,,,,,,,,,,,
5ed696d2449ef00dbdce0178,SCN,2024-06-21_10h46.32.776,LearnStrategy,2023.2.3,Win32,60.24096386,5,1,7,-0.240131579,0.42872807,1,0,0,0.6523,Gabbro_09,4,09,6,3,0.652,-0.114035088,-0.243969298,1,0,0,1.4263,Basalt_rect,2,1.426,0,6,0,6,0,1,,,,,,,,,,,,,
5ed696d2449ef00dbdce0178,SCN,2024-06-21_10h46.32.776,LearnStrategy,2023.2.3,Win32,60.24096386,5,1,8,-0.246162281,0.433114035,1,0,0,0.9199,Gabbro_09,4,09,6,3,0.92,0.420504386,-0.253289474,1,0,0,0.9893,Gabbro_rect,4,0.989,1,7,0,7,0,1,,,,,,,,,,,,,
5ed696d2449ef00dbdce0178,SCN,2024-06-21_10h46.32.776,LearnStrategy,2023.2.3,Win32,60.24096386,5,1,9,-0.39254386,0.428179825,1,0,0,0.8421,Gabbro_15,4,15,6,2,0.842,0.408442982,-0.247807018,1,0,0,1.0051,Gabbro_rect,4,1.005,1,8,0,8,0,1,,,,,,,,,,,,,
5ed696d2449ef00dbdce0178,SCN,2024-06-21_10h46.32.776,LearnStrategy,2023.2.3,Win32,60.24096386,5,1,10,-0.246162281,0.380482456,1,0,0,0.5981,Gabbro_09,4,09,6,3,0.598,0.419407895,-0.243421053,1,0,0,1.4624,Gabbro_rect,4,1.462,1,9,0,9,0,1,,,,,,,,,,,,,
5ed696d2449ef00dbdce0178,SCN,2024-06-21_10h46.32.776,LearnStrategy,2023.2.3,Win32,60.24096386,5,1,11,-0.101425439,0.372807018,1,0,0,1.8232,Andesite_01,1,01,6,4,1.823,-0.408442982,-0.245065789,1,0,0,1.5767,Andesite_rect,1,1.577,1,10,0,10,0,1,,,,,,,,,,,,,
5ed696d2449ef00dbdce0178,SCN,2024-06-21_10h46.32.776,LearnStrategy,2023.2.3,Win32,60.24096386,5,1,12,0.086622807,0.435307018,1,0,0,0.7822,Gabbro_08,4,08,6,5,0.782,0.390350877,-0.237938596,1,0,0,1.7345,Gabbro_rect,4,1.735,1,11,0,11,0,1,,,,,,,,,,,,,
5ed696d2449ef00dbdce0178,SCN,2024-06-21_10h46.32.776,LearnStrategy,2023.2.3,Win32,60.24096386,5,1,13,0.254934211,0.459429825,1,0,0,0.6664,Gabbro_11,4,11,6,6,0.666,-0.10745614,-0.252192982,1,0,0,3.6832,Basalt_rect,2,3.683,0,12,0,12,0,1,,,,,,,,,,,,,
5ed696d2449ef00dbdce0178,SCN,2024-06-21_10h46.32.776,LearnStrategy,2023.2.3,Win32,60.24096386,5,1,14,0.253289474,0.411732456,1,0,0,0.8169,Gabbro_11,4,11,6,6,0.817,0.401315789,-0.254385965,1,0,0,0.6727,Gabbro_rect,4,0.673,1,13,0,13,0,1,,,,,,,,,,,,,
5ed696d2449ef00dbdce0178,SCN,2024-06-21_10h46.32.776,LearnStrategy,2023.2.3,Win32,60.24096386,5,1,15,0.372807018,0.431469298,1,0,0,0.7264,Diorite_09,3,09,6,7,0.726,0.150767544,-0.26370614,1,0,0,0.66,Diorite_rect,3,0.66,1,14,0,14,0,1,,,,,,,,,,,,,
5ed696d2449ef00dbdce0178,SCN,2024-06-21_10h46.32.776,LearnStrategy,2023.2.3,Win32,60.24096386,5,1,16,0.53125,0.373903509,1,0,0,0.8419,Pegmatite_12,6,12,6,8,0.842,-0.11622807,-0.395833333,1,0,0,2.572,Pegmatite_rect,6,2.572,1,15,0,15,0,1,,,,,,,,,,,,,
5ed696d2449ef00dbdce0178,SCN,2024-06-21_10h46.32.776,LearnStrategy,2023.2.3,Win32,60.24096386,5,2,1,,,,,,,,6,15,,,,,,,,,,,6,3.549,1,,,,,,-0.172149123,-0.401864035,1,0,0,3.549,Pegmatite_rect,0,0,0,0,1,
5ed696d2449ef00dbdce0178,SCN,2024-06-21_10h46.32.776,LearnStrategy,2023.2.3,Win32,60.24096386,5,2,2,,,,,,,,8,16,,,,,,,,,,,8,1.237,1,,,,,,0.379934211,-0.39254386,1,0,0,1.2366,Pumice_rect,1,0,1,0,1,
5ed696d2449ef00dbdce0178,SCN,2024-06-21_10h46.32.776,LearnStrategy,2023.2.3,Win32,60.24096386,5,2,3,,,,,,,,3,14,,,,,,,,,,,3,1.746,1,,,,,,0.120614035,-0.248355263,1,0,0,1.7463,Diorite_rect,2,0,2,0,1,
5ed696d2449ef00dbdce0178,SCN,2024-06-21_10h46.32.776,LearnStrategy,2023.2.3,Win32,60.24096386,5,2,4,,,,,,,,5,16,,,,,,,,,,,5,0.949,1,,,,,,-0.424342105,-0.402412281,1,0,0,0.9487,Obsidian_rect,3,0,3,0,1,
5ed696d2449ef00dbdce0178,SCN,2024-06-21_10h46.32.776,LearnStrategy,2023.2.3,Win32,60.24096386,5,2,5,,,,,,,,2,11,,,,,,,,,,,8,2.627,0,,,,,,0.36622807,-0.399122807,1,0,0,2.6266,Pumice_rect,4,0,4,0,1,
5ed696d2449ef00dbdce0178,SCN,2024-06-21_10h46.32.776,LearnStrategy,2023.2.3,Win32,60.24096386,5,2,6,,,,,,,,6,07,,,,,,,,,,,6,2.032,1,,,,,,-0.121710526,-0.411732456,1,0,0,2.0321,Pegmatite_rect,5,0,5,0,1,
5ed696d2449ef00dbdce0178,SCN,2024-06-21_10h46.32.776,LearnStrategy,2023.2.3,Win32,60.24096386,5,2,7,,,,,,,,8,04,,,,,,,,,,,8,1.044,1,,,,,,0.458333333,-0.41502193,1,0,0,1.0443,Pumice_rect,6,0,6,0,1,
5ed696d2449ef00dbdce0178,SCN,2024-06-21_10h46.32.776,LearnStrategy,2023.2.3,Win32,60.24096386,5,2,8,,,,,,,,7,04,,,,,,,,,,,7,2.241,1,,,,,,0.089912281,-0.395285088,1,0,0,2.2414,Peridotite_rect,7,0,7,0,1,
5ed696d2449ef00dbdce0178,SCN,2024-06-21_10h46.32.776,LearnStrategy,2023.2.3,Win32,60.24096386,5,2,9,,,,,,,,4,01,,,,,,,,,,,7,1.187,0,,,,,,0.149671053,-0.402412281,1,0,0,1.1873,Peridotite_rect,8,0,8,0,1,
5ed696d2449ef00dbdce0178,SCN,2024-06-21_10h46.32.776,LearnStrategy,2023.2.3,Win32,60.24096386,5,2,10,,,,,,,,1,04,,,,,,,,,,,7,2.435,0,,,,,,0.11129386,-0.38870614,1,0,0,2.4347,Peridotite_rect,9,0,9,0,1,
5ed696d2449ef00dbdce0178,SCN,2024-06-21_10h46.32.776,LearnStrategy,2023.2.3,Win32,60.24096386,5,2,11,,,,,,,,2,01,,,,,,,,,,,2,1.9,1,,,,,,-0.114583333,-0.251096491,1,0,0,1.8998,Basalt_rect,10,0,10,0,1,
5ed696d2449ef00dbdce0178,SCN,2024-06-21_10h46.32.776,LearnStrategy,2023.2.3,Win32,60.24096386,5,2,12,,,,,,,,5,09,,,,,,,,,,,5,0.973,1,,,,,,-0.408442982,-0.417763158,1,0,0,0.9727,Obsidian_rect,11,0,11,0,1,
5ed696d2449ef00dbdce0178,SCN,2024-06-21_10h46.32.776,LearnStrategy,2023.2.3,Win32,60.24096386,5,2,13,,,,,,,,4,16,,,,,,,,,,,4,1.564,1,,,,,,0.370614035,-0.233004386,1,0,0,1.5645,Gabbro_rect,12,0,12,0,1,
5ed696d2449ef00dbdce0178,SCN,2024-06-21_10h46.32.776,LearnStrategy,2023.2.3,Win32,60.24096386,5,2,14,,,,,,,,1,06,,,,,,,,,,,1,1.747,1,,,,,,-0.366776316,-0.254934211,1,0,0,1.7474,Andesite_rect,13,0,13,0,1,
5ed696d2449ef00dbdce0178,SCN,2024-06-21_10h46.32.776,LearnStrategy,2023.2.3,Win32,60.24096386,5,2,15,,,,,,,,3,08,,,,,,,,,,,3,1.165,1,,,,,,0.128289474,-0.241776316,1,0,0,1.165,Diorite_rect,14,0,14,0,1,
5ed696d2449ef00dbdce0178,SCN,2024-06-21_10h46.32.776,LearnStrategy,2023.2.3,Win32,60.24096386,5,2,16,,,,,,,,7,02,,,,,,,,,,,6,2.131,0,,,,,,-0.115679825,-0.407894737,1,0,0,2.1313,Pegmatite_rect,15,0,15,0,1,
5ed696d2449ef00dbdce0178,SCN,2024-06-21_10h46.32.776,LearnStrategy,2023.2.3,Win32,60.24096386,6,1,1,-0.545504386,0.082785088,1,0,0,2.7807,Pumice_10,8,10,4,1,2.781,0.42872807,-0.401864035,1,0,0,0.9744,Pumice_rect,8,0.974,1,0,0,0,0,1,,,,,,,,,,,,,
5ed696d2449ef00dbdce0178,SCN,2024-06-21_10h46.32.776,LearnStrategy,2023.2.3,Win32,60.24096386,6,1,2,0.075657895,-0.425438596,1,0,0,1.2533,Andesite_03,1,03,1,5,1.253,0.399671053,-0.250548246,1,0,0,1.613,Gabbro_rect,4,1.613,0,1,0,1,0,1,,,,,,,,,,,,,
5ed696d2449ef00dbdce0178,SCN,2024-06-21_10h46.32.776,LearnStrategy,2023.2.3,Win32,60.24096386,6,1,3,0.0625,-0.425986842,1,0,0,0.9275,Andesite_03,1,03,1,5,0.928,-0.371710526,-0.247258772,1,0,0,1.3983,Andesite_rect,1,1.398,1,2,0,2,0,1,,,,,,,,,,,,,
5ed696d2449ef00dbdce0178,SCN,2024-06-21_10h46.32.776,LearnStrategy,2023.2.3,Win32,60.24096386,6,1,4,-0.240679825,-0.422697368,1,0,0,0.7114,Pumice_15,8,15,1,3,0.711,0.404057018,-0.396381579,1,0,0,0.9285,Pumice_rect,8,0.928,1,3,0,3,0,1,,,,,,,,,,,,,
5ed696d2449ef00dbdce0178,SCN,2024-06-21_10h46.32.776,LearnStrategy,2023.2.3,Win32,60.24096386,6,1,5,-0.507675439,-0.265899123,1,0,0,0.9358,Basalt_10,2,10,2,1,0.936,-0.120614035,-0.243969298,1,0,0,1.0956,Basalt_rect,2,1.096,1,4,0,4,0,1,,,,,,,,,,,,,
5ed696d2449ef00dbdce0178,SCN,2024-06-21_10h46.32.776,LearnStrategy,2023.2.3,Win32,60.24096386,6,1,6,-0.366776316,-0.110197368,1,0,0,0.8354,Andesite_09,1,09,3,2,0.835,0.101973684,-0.404057018,1,0,0,4.7499,Peridotite_rect,7,4.75,0,5,0,5,0,1,,,,,,,,,,,,,
5ed696d2449ef00dbdce0178,SCN,2024-06-21_10h46.32.776,LearnStrategy,2023.2.3,Win32,60.24096386,6,1,7,-0.595394737,-0.106907895,1,0,0,0.7707,Basalt_14,2,14,3,1,0.771,0.398026316,-0.390899123,1,0,0,0.8903,Pumice_rect,8,0.89,0,6,0,6,0,1,,,,,,,,,,,,,
5ed696d2449ef00dbdce0178,SCN,2024-06-21_10h46.32.776,LearnStrategy,2023.2.3,Win32,60.24096386,6,1,8,-0.389802632,-0.110197368,1,0,0,1.4738,Andesite_09,1,09,3,2,1.474,-0.137609649,-0.38870614,1,0,0,1.9789,Pegmatite_rect,6,1.979,0,7,0,7,0,1,,,,,,,,,,,,,
5ed696d2449ef00dbdce0178,SCN,2024-06-21_10h46.32.776,LearnStrategy,2023.2.3,Win32,60.24096386,6,1,9,-0.385964912,-0.114035088,1,0,0,0.9727,Andesite_09,1,09,3,2,0.973,-0.407346491,-0.237938596,1,0,0,1.1593,Andesite_rect,1,1.159,1,8,0,8,0,1,,,,,,,,,,,,,
5ed696d2449ef00dbdce0178,SCN,2024-06-21_10h46.32.776,LearnStrategy,2023.2.3,Win32,60.24096386,6,1,10,0.538925439,-0.124451754,1,0,0,1.2482,Peridotite_10,7,10,3,8,1.248,0.13870614,-0.398026316,1,0,0,2.4603,Peridotite_rect,7,2.46,1,9,0,9,0,1,,,,,,,,,,,,,
5ed696d2449ef00dbdce0178,SCN,2024-06-21_10h46.32.776,LearnStrategy,2023.2.3,Win32,60.24096386,6,1,11,0.573464912,-0.28125,1,0,0,0.9346,Pegmatite_10,6,10,2,8,0.935,-0.146929825,-0.398574561,1,0,0,1.5611,Pegmatite_rect,6,1.561,1,10,0,10,0,1,,,,,,,,,,,,,
5ed696d2449ef00dbdce0178,SCN,2024-06-21_10h46.32.776,LearnStrategy,2023.2.3,Win32,60.24096386,6,1,12,0.257675439,-0.259320175,1,0,0,1.8164,Basalt_09,2,09,2,6,1.816,-0.11129386,-0.242872807,1,0,0,1.1479,Basalt_rect,2,1.148,1,11,0,11,0,1,,,,,,,,,,,,,
5ed696d2449ef00dbdce0178,SCN,2024-06-21_10h46.32.776,LearnStrategy,2023.2.3,Win32,60.24096386,6,1,13,0.403508772,0.113486842,1,0,0,0.9535,Andesite_05,1,05,4,7,0.953,-0.130482456,-0.393640351,1,0,0,3.3717,Pegmatite_rect,6,3.372,0,12,0,12,0,1,,,,,,,,,,,,,
5ed696d2449ef00dbdce0178,SCN,2024-06-21_10h46.32.776,LearnStrategy,2023.2.3,Win32,60.24096386,6,1,14,0.430921053,0.126096491,1,0,0,0.7613,Andesite_05,1,05,4,7,0.761,-0.417214912,-0.244517544,1,0,0,0.7659,Andesite_rect,1,0.766,1,13,0,13,0,1,,,,,,,,,,,,,
5ed696d2449ef00dbdce0178,SCN,2024-06-21_10h46.32.776,LearnStrategy,2023.2.3,Win32,60.24096386,6,1,15,0.082236842,0.078399123,1,0,0,2.0245,Diorite_02,3,02,4,5,2.024,0.143640351,-0.253289474,1,0,0,1.4134,Diorite_rect,3,1.413,1,14,0,14,0,1,,,,,,,,,,,,,
5ed696d2449ef00dbdce0178,SCN,2024-06-21_10h46.32.776,LearnStrategy,2023.2.3,Win32,60.24096386,6,1,16,-0.360197368,0.089364035,1,0,0,1.4132,Pegmatite_16,6,16,4,2,1.413,-0.086622807,-0.389802632,1,0,0,1.9327,Pegmatite_rect,6,1.933,1,15,0,15,0,1,,,,,,,,,,,,,
5ed696d2449ef00dbdce0178,SCN,2024-06-21_10h46.32.776,LearnStrategy,2023.2.3,Win32,60.24096386,6,2,1,,,,,,,,3,10,,,,,,,,,,,3,1.919,1,,,,,,0.117872807,-0.251644737,1,0,0,1.9187,Diorite_rect,0,0,0,0,1,
5ed696d2449ef00dbdce0178,SCN,2024-06-21_10h46.32.776,LearnStrategy,2023.2.3,Win32,60.24096386,6,2,2,,,,,,,,8,09,,,,,,,,,,,8,1.105,1,,,,,,0.415570175,-0.398026316,1,0,0,1.1054,Pumice_rect,1,0,1,0,1,
5ed696d2449ef00dbdce0178,SCN,2024-06-21_10h46.32.776,LearnStrategy,2023.2.3,Win32,60.24096386,6,2,3,,,,,,,,1,11,,,,,,,,,,,2,2.197,0,,,,,,-0.134320175,-0.236842105,1,0,0,2.1974,Basalt_rect,2,0,2,0,1,
5ed696d2449ef00dbdce0178,SCN,2024-06-21_10h46.32.776,LearnStrategy,2023.2.3,Win32,60.24096386,6,2,4,,,,,,,,4,14,,,,,,,,,,,1,2.584,0,,,,,,-0.474232456,-0.255482456,1,0,0,2.5841,Andesite_rect,3,0,3,0,1,
5ed696d2449ef00dbdce0178,SCN,2024-06-21_10h46.32.776,LearnStrategy,2023.2.3,Win32,60.24096386,6,2,5,,,,,,,,6,11,,,,,,,,,,,6,2.033,1,,,,,,-0.095394737,-0.391447368,1,0,0,2.0328,Pegmatite_rect,4,0,4,0,1,
5ed696d2449ef00dbdce0178,SCN,2024-06-21_10h46.32.776,LearnStrategy,2023.2.3,Win32,60.24096386,6,2,6,,,,,,,,7,16,,,,,,,,,,,6,1.656,0,,,,,,-0.124451754,-0.396381579,1,0,0,1.656,Pegmatite_rect,5,0,5,0,1,
5ed696d2449ef00dbdce0178,SCN,2024-06-21_10h46.32.776,LearnStrategy,2023.2.3,Win32,60.24096386,6,2,7,,,,,,,,5,04,,,,,,,,,,,5,1.294,1,,,,,,-0.42379386,-0.395285088,1,0,0,1.294,Obsidian_rect,6,0,6,0,1,
5ed696d2449ef00dbdce0178,SCN,2024-06-21_10h46.32.776,LearnStrategy,2023.2.3,Win32,60.24096386,6,2,8,,,,,,,,6,05,,,,,,,,,,,3,2.148,0,,,,,,0.109649123,-0.236842105,1,0,0,2.1477,Diorite_rect,7,0,7,0,1,
5ed696d2449ef00dbdce0178,SCN,2024-06-21_10h46.32.776,LearnStrategy,2023.2.3,Win32,60.24096386,6,2,9,,,,,,,,2,12,,,,,,,,,,,4,4.667,0,,,,,,0.403508772,-0.260416667,1,0,0,4.6671,Gabbro_rect,8,0,8,0,1,
5ed696d2449ef00dbdce0178,SCN,2024-06-21_10h46.32.776,LearnStrategy,2023.2.3,Win32,60.24096386,6,2,10,,,,,,,,7,15,,,,,,,,,,,7,1.853,1,,,,,,0.115131579,-0.396929825,1,0,0,1.8526,Peridotite_rect,9,0,9,0,1,
5ed696d2449ef00dbdce0178,SCN,2024-06-21_10h46.32.776,LearnStrategy,2023.2.3,Win32,60.24096386,6,2,11,,,,,,,,1,07,,,,,,,,,,,1,2.976,1,,,,,,-0.406798246,-0.244517544,1,0,0,2.9764,Andesite_rect,10,0,10,0,1,
5ed696d2449ef00dbdce0178,SCN,2024-06-21_10h46.32.776,LearnStrategy,2023.2.3,Win32,60.24096386,6,2,12,,,,,,,,5,07,,,,,,,,,,,5,1.028,1,,,,,,-0.422697368,-0.394736842,1,0,0,1.0278,Obsidian_rect,11,0,11,0,1,
5ed696d2449ef00dbdce0178,SCN,2024-06-21_10h46.32.776,LearnStrategy,2023.2.3,Win32,60.24096386,6,2,13,,,,,,,,2,04,,,,,,,,,,,2,1.36,1,,,,,,-0.191885965,-0.245614035,1,0,0,1.3596,Basalt_rect,12,0,12,0,1,
5ed696d2449ef00dbdce0178,SCN,2024-06-21_10h46.32.776,LearnStrategy,2023.2.3,Win32,60.24096386,6,2,14,,,,,,,,3,12,,,,,,,,,,,3,1.338,1,,,,,,0.109649123,-0.258223684,1,0,0,1.3383,Diorite_rect,13,0,13,0,1,
5ed696d2449ef00dbdce0178,SCN,2024-06-21_10h46.32.776,LearnStrategy,2023.2.3,Win32,60.24096386,6,2,15,,,,,,,,8,14,,,,,,,,,,,8,0.929,1,,,,,,0.376096491,-0.395833333,1,0,0,0.9288,Pumice_rect,14,0,14,0,1,
5ed696d2449ef00dbdce0178,SCN,2024-06-21_10h46.32.776,LearnStrategy,2023.2.3,Win32,60.24096386,6,2,16,,,,,,,,4,03,,,,,,,,,,,1,2.206,0,,,,,,-0.449013158,-0.248355263,1,0,0,2.206,Andesite_rect,15,0,15,0,1,
5ed696d2449ef00dbdce0178,SCN,2024-06-21_10h46.32.776,LearnStrategy,2023.2.3,Win32,60.24096386,7,1,1,0.402412281,0.230811404,1,0,0,1.7461,Diorite_13,3,13,5,7,1.746,0.130482456,-0.239035088,1,0,0,1.2458,Diorite_rect,3,1.246,1,0,0,0,0,1,,,,,,,,,,,,,
5ed696d2449ef00dbdce0178,SCN,2024-06-21_10h46.32.776,LearnStrategy,2023.2.3,Win32,60.24096386,7,1,2,-0.391995614,0.243421053,1,0,0,1.9007,Peridotite_05,7,05,5,2,1.901,0.103618421,-0.406798246,1,0,0,2.8137,Peridotite_rect,7,2.814,1,1,0,1,0,1,,,,,,,,,,,,,
5ed696d2449ef00dbdce0178,SCN,2024-06-21_10h46.32.776,LearnStrategy,2023.2.3,Win32,60.24096386,7,1,3,0.546600877,0.413377193,1,0,0,2.0358,Pegmatite_12,6,12,6,8,2.036,-0.131030702,-0.407346491,1,0,0,1.5732,Pegmatite_rect,6,1.573,1,2,0,2,0,1,,,,,,,,,,,,,
5ed696d2449ef00dbdce0178,SCN,2024-06-21_10h46.32.776,LearnStrategy,2023.2.3,Win32,60.24096386,7,1,4,-0.067982456,-0.11622807,1,0,0,1.7229,Pegmatite_08,6,08,3,4,1.723,-0.13377193,-0.391447368,1,0,0,1.1249,Pegmatite_rect,6,1.125,1,3,0,3,0,1,,,,,,,,,,,,,
5ed696d2449ef00dbdce0178,SCN,2024-06-21_10h46.32.776,LearnStrategy,2023.2.3,Win32,60.24096386,7,1,5,-0.389254386,-0.265899123,1,0,0,1.0727,Pegmatite_03,6,03,2,2,1.073,-0.119517544,-0.390350877,1,0,0,1.7168,Pegmatite_rect,6,1.717,1,4,0,4,0,1,,,,,,,,,,,,,
5ed696d2449ef00dbdce0178,SCN,2024-06-21_10h46.32.776,LearnStrategy,2023.2.3,Win32,60.24096386,7,1,6,0.582785088,-0.268092105,1,0,0,1.5394,Pegmatite_10,6,10,2,8,1.539,-0.125548246,-0.400767544,1,0,0,0.8559,Pegmatite_rect,6,0.856,1,5,0,5,0,1,,,,,,,,,,,,,
5ed696d2449ef00dbdce0178,SCN,2024-06-21_10h46.32.776,LearnStrategy,2023.2.3,Win32,60.24096386,7,1,7,0.379934211,0.412280702,1,0,0,2.5926,Diorite_09,3,09,6,7,2.593,0.137061404,-0.25877193,1,0,0,0.9049,Diorite_rect,3,0.905,1,6,0,6,0,1,,,,,,,,,,,,,
5ed696d2449ef00dbdce0178,SCN,2024-06-21_10h46.32.776,LearnStrategy,2023.2.3,Win32,60.24096386,7,1,8,-0.558114035,-0.260416667,1,0,0,1.0901,Basalt_10,2,10,2,1,1.09,-0.132127193,-0.24122807,1,0,0,1.1278,Basalt_rect,2,1.128,1,7,0,7,0,1,,,,,,,,,,,,,
5ed696d2449ef00dbdce0178,SCN,2024-06-21_10h46.32.776,LearnStrategy,2023.2.3,Win32,60.24096386,7,1,9,-0.228070175,-0.258223684,1,0,0,1.097,Basalt_06,2,06,2,3,1.097,-0.118969298,-0.248903509,1,0,0,1.1689,Basalt_rect,2,1.169,1,8,0,8,0,1,,,,,,,,,,,,,
5ed696d2449ef00dbdce0178,SCN,2024-06-21_10h46.32.776,LearnStrategy,2023.2.3,Win32,60.24096386,7,1,10,0.248355263,0.445175439,1,0,0,1.0009,Gabbro_11,4,11,6,6,1.001,-0.143640351,-0.234649123,1,0,0,1.3124,Basalt_rect,2,1.312,0,9,0,9,0,1,,,,,,,,,,,,,
5ed696d2449ef00dbdce0178,SCN,2024-06-21_10h46.32.776,LearnStrategy,2023.2.3,Win32,60.24096386,7,1,11,-0.389254386,0.394736842,1,0,0,1.1742,Gabbro_15,4,15,6,2,1.174,0.41502193,-0.248355263,1,0,0,1.5074,Gabbro_rect,4,1.507,1,10,0,10,0,1,,,,,,,,,,,,,
5ed696d2449ef00dbdce0178,SCN,2024-06-21_10h46.32.776,LearnStrategy,2023.2.3,Win32,60.24096386,7,1,12,-0.274671053,0.452850877,1,0,0,0.6178,Gabbro_09,4,09,6,3,0.618,0.424342105,-0.242324561,1,0,0,0.7665,Gabbro_rect,4,0.766,1,11,0,11,0,1,,,,,,,,,,,,,
5ed696d2449ef00dbdce0178,SCN,2024-06-21_10h46.32.776,LearnStrategy,2023.2.3,Win32,60.24096386,7,1,13,-0.070175439,0.408991228,1,0,0,0.6606,Andesite_01,1,01,6,4,0.661,0.383223684,-0.253837719,1,0,0,0.8217,Gabbro_rect,4,0.822,0,12,0,12,0,1,,,,,,,,,,,,,
5ed696d2449ef00dbdce0178,SCN,2024-06-21_10h46.32.776,LearnStrategy,2023.2.3,Win32,60.24096386,7,1,14,-0.543859649,-0.426535088,1,0,0,2.5456,Diorite_16,3,16,1,1,2.546,0.136513158,-0.255482456,1,0,0,1.6433,Diorite_rect,3,1.643,1,13,0,13,0,1,,,,,,,,,,,,,
5ed696d2449ef00dbdce0178,SCN,2024-06-21_10h46.32.776,LearnStrategy,2023.2.3,Win32,60.24096386,7,1,15,0.407346491,0.128289474,1,0,0,0.9453,Andesite_05,1,05,4,7,0.945,-0.151864035,-0.403508772,1,0,0,2.1138,Pegmatite_rect,6,2.114,0,14,0,14,0,1,,,,,,,,,,,,,
5ed696d2449ef00dbdce0178,SCN,2024-06-21_10h46.32.776,LearnStrategy,2023.2.3,Win32,60.24096386,7,1,16,0.423245614,0.124451754,1,0,0,0.8866,Andesite_05,1,05,4,7,0.887,-0.386513158,-0.234100877,1,0,0,0.9847,Andesite_rect,1,0.985,1,15,0,15,0,1,,,,,,,,,,,,,
5ed696d2449ef00dbdce0178,SCN,2024-06-21_10h46.32.776,LearnStrategy,2023.2.3,Win32,60.24096386,7,2,1,,,,,,,,5,06,,,,,,,,,,,5,1.999,1,,,,,,-0.398574561,-0.398026316,1,0,0,1.9992,Obsidian_rect,0,0,0,0,1,
5ed696d2449ef00dbdce0178,SCN,2024-06-21_10h46.32.776,LearnStrategy,2023.2.3,Win32,60.24096386,7,2,2,,,,,,,,1,04,,,,,,,,,,,4,3.899,0,,,,,,0.418859649,-0.228618421,1,0,0,3.8988,Gabbro_rect,1,0,1,0,1,
5ed696d2449ef00dbdce0178,SCN,2024-06-21_10h46.32.776,LearnStrategy,2023.2.3,Win32,60.24096386,7,2,3,,,,,,,,4,03,,,,,,,,,,,1,2.381,0,,,,,,-0.379385965,-0.263157895,1,0,0,2.3808,Andesite_rect,2,0,2,0,1,
5ed696d2449ef00dbdce0178,SCN,2024-06-21_10h46.32.776,LearnStrategy,2023.2.3,Win32,60.24096386,7,2,4,,,,,,,,5,16,,,,,,,,,,,5,0.886,1,,,,,,-0.376096491,-0.395285088,1,0,0,0.8858,Obsidian_rect,3,0,3,0,1,
5ed696d2449ef00dbdce0178,SCN,2024-06-21_10h46.32.776,LearnStrategy,2023.2.3,Win32,60.24096386,7,2,5,,,,,,,,7,16,,,,,,,,,,,6,2.514,0,,,,,,-0.158442982,-0.407346491,1,0,0,2.5143,Pegmatite_rect,4,0,4,0,1,
5ed696d2449ef00dbdce0178,SCN,2024-06-21_10h46.32.776,LearnStrategy,2023.2.3,Win32,60.24096386,7,2,6,,,,,,,,7,12,,,,,,,,,,,6,1.233,0,,,,,,-0.11129386,-0.393640351,1,0,0,1.2329,Pegmatite_rect,5,0,5,0,1,
5ed696d2449ef00dbdce0178,SCN,2024-06-21_10h46.32.776,LearnStrategy,2023.2.3,Win32,60.24096386,7,2,7,,,,,,,,3,07,,,,,,,,,,,3,1.211,1,,,,,,0.091557018,-0.254385965,1,0,0,1.211,Diorite_rect,6,0,6,0,1,
5ed696d2449ef00dbdce0178,SCN,2024-06-21_10h46.32.776,LearnStrategy,2023.2.3,Win32,60.24096386,7,2,8,,,,,,,,1,14,,,,,,,,,,,7,2.769,0,,,,,,0.078399123,-0.393092105,1,0,0,2.7695,Peridotite_rect,7,0,7,0,1,
5ed696d2449ef00dbdce0178,SCN,2024-06-21_10h46.32.776,LearnStrategy,2023.2.3,Win32,60.24096386,7,2,9,,,,,,,,4,10,,,,,,,,,,,4,2.878,1,,,,,,0.421052632,-0.249451754,1,0,0,2.8781,Gabbro_rect,8,0,8,0,1,
5ed696d2449ef00dbdce0178,SCN,2024-06-21_10h46.32.776,LearnStrategy,2023.2.3,Win32,60.24096386,7,2,10,,,,,,,,6,06,,,,,,,,,,,6,1.573,1,,,,,,-0.077850877,-0.399122807,1,0,0,1.5726,Pegmatite_rect,9,0,9,0,1,
5ed696d2449ef00dbdce0178,SCN,2024-06-21_10h46.32.776,LearnStrategy,2023.2.3,Win32,60.24096386,7,2,11,,,,,,,,8,04,,,,,,,,,,,8,1.083,1,,,,,,0.410087719,-0.400767544,1,0,0,1.0833,Pumice_rect,10,0,10,0,1,
5ed696d2449ef00dbdce0178,SCN,2024-06-21_10h46.32.776,LearnStrategy,2023.2.3,Win32,60.24096386,7,2,12,,,,,,,,8,16,,,,,,,,,,,8,1.009,1,,,,,,0.35745614,-0.401864035,1,0,0,1.0088,Pumice_rect,11,0,11,0,1,
5ed696d2449ef00dbdce0178,SCN,2024-06-21_10h46.32.776,LearnStrategy,2023.2.3,Win32,60.24096386,7,2,13,,,,,,,,6,09,,,,,,,,,,,6,1.112,1,,,,,,-0.135416667,-0.379385965,1,0,0,1.1125,Pegmatite_rect,12,0,12,0,1,
5ed696d2449ef00dbdce0178,SCN,2024-06-21_10h46.32.776,LearnStrategy,2023.2.3,Win32,60.24096386,7,2,14,,,,,,,,2,11,,,,,,,,,,,4,3.704,0,,,,,,0.33004386,-0.243421053,1,0,0,3.7038,Gabbro_rect,13,0,13,0,1,
5ed696d2449ef00dbdce0178,SCN,2024-06-21_10h46.32.776,LearnStrategy,2023.2.3,Win32,60.24096386,7,2,15,,,,,,,,3,12,,,,,,,,,,,3,1.375,1,,,,,,0.112390351,-0.245614035,1,0,0,1.3751,Diorite_rect,14,0,14,0,1,
5ed696d2449ef00dbdce0178,SCN,2024-06-21_10h46.32.776,LearnStrategy,2023.2.3,Win32,60.24096386,7,2,16,,,,,,,,2,16,,,,,,,,,,,4,2.367,0,,,,,,0.408991228,-0.251644737,1,0,0,2.3669,Gabbro_rect,15,0,15,0,1,
5ed696d2449ef00dbdce0178,SCN,2024-06-21_10h46.32.776,LearnStrategy,2023.2.3,Win32,60.24096386,8,1,1,0.26754386,0.303179825,1,0,0,2.8615,Gabbro_12,4,12,5,6,2.861,0.411184211,-0.244517544,1,0,0,1.4858,Gabbro_rect,4,1.486,1,0,0,0,0,1,,,,,,,,,,,,,
5ed696d2449ef00dbdce0178,SCN,2024-06-21_10h46.32.776,LearnStrategy,2023.2.3,Win32,60.24096386,8,1,2,-0.255482456,-0.104714912,1,0,0,0.8327,Peridotite_06,7,06,3,3,0.833,-0.113486842,-0.396929825,1,0,0,1.6303,Pegmatite_rect,6,1.63,0,1,0,1,0,1,,,,,,,,,,,,,
5ed696d2449ef00dbdce0178,SCN,2024-06-21_10h46.32.776,LearnStrategy,2023.2.3,Win32,60.24096386,8,1,3,0.061951754,-0.108004386,1,0,0,0.6006,Pumice_13,8,13,3,5,0.601,0.391447368,-0.391447368,1,0,0,0.6556,Pumice_rect,8,0.656,1,2,0,2,0,1,,,,,,,,,,,,,
5ed696d2449ef00dbdce0178,SCN,2024-06-21_10h46.32.776,LearnStrategy,2023.2.3,Win32,60.24096386,8,1,4,-0.401315789,-0.265350877,1,0,0,1.1473,Pegmatite_03,6,03,2,2,1.147,-0.144188596,-0.394736842,1,0,0,1.5492,Pegmatite_rect,6,1.549,1,3,0,3,0,1,,,,,,,,,,,,,
5ed696d2449ef00dbdce0178,SCN,2024-06-21_10h46.32.776,LearnStrategy,2023.2.3,Win32,60.24096386,8,1,5,0.590460526,0.106359649,1,0,0,0.8329,Peridotite_07,7,07,4,8,0.833,0.139254386,-0.405153509,1,0,0,1.4244,Peridotite_rect,7,1.424,1,4,0,4,0,1,,,,,,,,,,,,,
5ed696d2449ef00dbdce0178,SCN,2024-06-21_10h46.32.776,LearnStrategy,2023.2.3,Win32,60.24096386,8,1,6,0.525767544,-0.081140351,1,0,0,0.8662,Peridotite_10,7,10,3,8,0.866,0.145285088,-0.396929825,1,0,0,1.1077,Peridotite_rect,7,1.108,1,5,0,5,0,1,,,,,,,,,,,,,
5ed696d2449ef00dbdce0178,SCN,2024-06-21_10h46.32.776,LearnStrategy,2023.2.3,Win32,60.24096386,8,1,7,-0.108004386,-0.265350877,1,0,0,1.6516,Basalt_08,2,08,2,4,1.652,-0.134320175,-0.257675439,1,0,0,1.2199,Basalt_rect,2,1.22,1,6,0,6,0,1,,,,,,,,,,,,,
5ed696d2449ef00dbdce0178,SCN,2024-06-21_10h46.32.776,LearnStrategy,2023.2.3,Win32,60.24096386,8,1,8,-0.051535088,0.407894737,1,0,0,0.949,Andesite_01,1,01,6,4,0.949,0.398026316,-0.228618421,1,0,0,0.9716,Gabbro_rect,4,0.972,0,7,0,7,0,1,,,,,,,,,,,,,
5ed696d2449ef00dbdce0178,SCN,2024-06-21_10h46.32.776,LearnStrategy,2023.2.3,Win32,60.24096386,8,1,9,-0.04879386,0.419407895,1,0,0,0.7746,Andesite_01,1,01,6,4,0.775,-0.404605263,-0.247258772,1,0,0,0.8052,Andesite_rect,1,0.805,1,8,0,8,0,1,,,,,,,,,,,,,
5ed696d2449ef00dbdce0178,SCN,2024-06-21_10h46.32.776,LearnStrategy,2023.2.3,Win32,60.24096386,8,1,10,-0.575657895,0.382675439,1,0,0,0.7689,Diorite_06,3,06,6,1,0.769,0.108004386,-0.235745614,1,0,0,0.9323,Diorite_rect,3,0.932,1,9,0,9,0,1,,,,,,,,,,,,,
5ed696d2449ef00dbdce0178,SCN,2024-06-21_10h46.32.776,LearnStrategy,2023.2.3,Win32,60.24096386,8,1,11,-0.402412281,-0.074561404,1,0,0,1.0271,Andesite_09,1,09,3,2,1.027,-0.129385965,-0.254934211,1,0,0,2.6565,Basalt_rect,2,2.657,0,10,0,10,0,1,,,,,,,,,,,,,
5ed696d2449ef00dbdce0178,SCN,2024-06-21_10h46.32.776,LearnStrategy,2023.2.3,Win32,60.24096386,8,1,12,-0.367324561,-0.126644737,1,0,0,0.7194,Andesite_09,1,09,3,2,0.719,-0.390350877,-0.252741228,1,0,0,0.6069,Andesite_rect,1,0.607,1,11,0,11,0,1,,,,,,,,,,,,,
5ed696d2449ef00dbdce0178,SCN,2024-06-21_10h46.32.776,LearnStrategy,2023.2.3,Win32,60.24096386,8,1,13,-0.228070175,-0.098684211,1,0,0,0.5712,Peridotite_06,7,06,3,3,0.571,-0.108552632,-0.39747807,1,0,0,0.8374,Pegmatite_rect,6,0.837,0,12,0,12,0,1,,,,,,,,,,,,,
5ed696d2449ef00dbdce0178,SCN,2024-06-21_10h46.32.776,LearnStrategy,2023.2.3,Win32,60.24096386,8,1,14,-0.117324561,-0.136513158,1,0,0,0.5905,Pegmatite_08,6,08,3,4,0.591,-0.135964912,-0.417763158,1,0,0,1.0253,Pegmatite_rect,6,1.025,1,13,0,13,0,1,,,,,,,,,,,,,
5ed696d2449ef00dbdce0178,SCN,2024-06-21_10h46.32.776,LearnStrategy,2023.2.3,Win32,60.24096386,8,1,15,0.050986842,-0.101425439,1,0,0,0.6817,Pumice_13,8,13,3,5,0.682,0.431469298,-0.39747807,1,0,0,0.5642,Pumice_rect,8,0.564,1,14,0,14,0,1,,,,,,,,,,,,,
5ed696d2449ef00dbdce0178,SCN,2024-06-21_10h46.32.776,LearnStrategy,2023.2.3,Win32,60.24096386,8,1,16,-0.10252193,-0.416666667,1,0,0,0.7383,Obsidian_05,5,05,1,4,0.738,-0.358004386,-0.378837719,1,0,0,1.2449,Obsidian_rect,5,1.245,1,15,0,15,0,1,,,,,,,,,,,,,
5ed696d2449ef00dbdce0178,SCN,2024-06-21_10h46.32.776,LearnStrategy,2023.2.3,Win32,60.24096386,8,2,1,,,,,,,,1,06,,,,,,,,,,,7,4.493,0,,,,,,0.123903509,-0.396929825,1,0,0,4.4927,Peridotite_rect,0,0,0,0,1,
5ed696d2449ef00dbdce0178,SCN,2024-06-21_10h46.32.776,LearnStrategy,2023.2.3,Win32,60.24096386,8,2,2,,,,,,,,3,14,,,,,,,,,,,3,3.579,1,,,,,,0.08497807,-0.234649123,1,0,0,3.5785,Diorite_rect,1,0,1,0,1,
5ed696d2449ef00dbdce0178,SCN,2024-06-21_10h46.32.776,LearnStrategy,2023.2.3,Win32,60.24096386,8,2,3,,,,,,,,6,11,,,,,,,,,,,6,2.253,1,,,,,,-0.097039474,-0.405153509,1,0,0,2.2531,Pegmatite_rect,2,0,2,0,1,
5ed696d2449ef00dbdce0178,SCN,2024-06-21_10h46.32.776,LearnStrategy,2023.2.3,Win32,60.24096386,8,2,4,,,,,,,,5,09,,,,,,,,,,,5,1.82,1,,,,,,-0.414473684,-0.404057018,1,0,0,1.8197,Obsidian_rect,3,0,3,0,1,
5ed696d2449ef00dbdce0178,SCN,2024-06-21_10h46.32.776,LearnStrategy,2023.2.3,Win32,60.24096386,8,2,5,,,,,,,,2,12,,,,,,,,,,,4,3.029,0,,,,,,0.40625,-0.242872807,1,0,0,3.0295,Gabbro_rect,4,0,4,0,1,
5ed696d2449ef00dbdce0178,SCN,2024-06-21_10h46.32.776,LearnStrategy,2023.2.3,Win32,60.24096386,8,2,6,,,,,,,,7,02,,,,,,,,,,,6,1.245,0,,,,,,-0.146929825,-0.406798246,1,0,0,1.2449,Pegmatite_rect,5,0,5,0,1,
5ed696d2449ef00dbdce0178,SCN,2024-06-21_10h46.32.776,LearnStrategy,2023.2.3,Win32,60.24096386,8,2,7,,,,,,,,8,05,,,,,,,,,,,8,1.649,1,,,,,,0.367872807,-0.389254386,1,0,0,1.6494,Pumice_rect,6,0,6,0,1,
5ed696d2449ef00dbdce0178,SCN,2024-06-21_10h46.32.776,LearnStrategy,2023.2.3,Win32,60.24096386,8,2,8,,,,,,,,4,14,,,,,,,,,,,2,1.521,0,,,,,,-0.118969298,-0.243969298,1,0,0,1.5206,Basalt_rect,7,0,7,0,1,
5ed696d2449ef00dbdce0178,SCN,2024-06-21_10h46.32.776,LearnStrategy,2023.2.3,Win32,60.24096386,8,2,9,,,,,,,,1,11,,,,,,,,,,,4,3.096,0,,,,,,0.336622807,-0.260416667,1,0,0,3.0959,Gabbro_rect,8,0,8,0,1,
5ed696d2449ef00dbdce0178,SCN,2024-06-21_10h46.32.776,LearnStrategy,2023.2.3,Win32,60.24096386,8,2,10,,,,,,,,2,05,,,,,,,,,,,2,0.981,1,,,,,,-0.156798246,-0.240131579,1,0,0,0.9805,Basalt_rect,9,0,9,0,1,
5ed696d2449ef00dbdce0178,SCN,2024-06-21_10h46.32.776,LearnStrategy,2023.2.3,Win32,60.24096386,8,2,11,,,,,,,,3,08,,,,,,,,,,,3,1.186,1,,,,,,0.111842105,-0.251096491,1,0,0,1.1857,Diorite_rect,10,0,10,0,1,
5ed696d2449ef00dbdce0178,SCN,2024-06-21_10h46.32.776,LearnStrategy,2023.2.3,Win32,60.24096386,8,2,12,,,,,,,,7,04,,,,,,,,,,,7,2.696,1,,,,,,0.138157895,-0.403508772,1,0,0,2.6962,Peridotite_rect,11,0,11,0,1,
5ed696d2449ef00dbdce0178,SCN,2024-06-21_10h46.32.776,LearnStrategy,2023.2.3,Win32,60.24096386,8,2,13,,,,,,,,4,16,,,,,,,,,,,2,1.121,0,,,,,,-0.095394737,-0.243421053,1,0,0,1.1215,Basalt_rect,12,0,12,0,1,
5ed696d2449ef00dbdce0178,SCN,2024-06-21_10h46.32.776,LearnStrategy,2023.2.3,Win32,60.24096386,8,2,14,,,,,,,,5,04,,,,,,,,,,,5,0.997,1,,,,,,-0.40625,-0.393640351,1,0,0,0.9969,Obsidian_rect,13,0,13,0,1,
5ed696d2449ef00dbdce0178,SCN,2024-06-21_10h46.32.776,LearnStrategy,2023.2.3,Win32,60.24096386,8,2,15,,,,,,,,6,07,,,,,,,,,,,6,1.093,1,,,,,,-0.100328947,-0.394188596,1,0,0,1.0929,Pegmatite_rect,14,0,14,0,1,
5ed696d2449ef00dbdce0178,SCN,2024-06-21_10h46.32.776,LearnStrategy,2023.2.3,Win32,60.24096386,8,2,16,,,,,,,,8,02,,,,,,,,,,,8,1.043,1,,,,,,0.430372807,-0.408991228,1,0,0,1.0426,Pumice_rect,15,0,15,0,1,
5ed696d2449ef00dbdce0178,SCN,2024-06-21_10h46.32.776,LearnStrategy,2023.2.3,Win32,60.24096386,9,1,1,0.230263158,0.101425439,1,0,0,0.9772,Peridotite_08,7,08,4,6,0.977,0.137609649,-0.399122807,1,0,0,1.7999,Peridotite_rect,7,1.8,1,0,0,0,0,1,,,,,,,,,,,,,
5ed696d2449ef00dbdce0178,SCN,2024-06-21_10h46.32.776,LearnStrategy,2023.2.3,Win32,60.24096386,9,1,2,-0.350877193,0.075109649,1,0,0,1.191,Pegmatite_16,6,16,4,2,1.191,-0.160635965,-0.402412281,1,0,0,1.4355,Pegmatite_rect,6,1.435,1,1,0,1,0,1,,,,,,,,,,,,,
5ed696d2449ef00dbdce0178,SCN,2024-06-21_10h46.32.776,LearnStrategy,2023.2.3,Win32,60.24096386,9,1,3,-0.117872807,0.290570175,1,0,0,1.0507,Pegmatite_13,6,13,5,4,1.051,-0.103618421,-0.407346491,1,0,0,0.8848,Pegmatite_rect,6,0.885,1,2,0,2,0,1,,,,,,,,,,,,,
5ed696d2449ef00dbdce0178,SCN,2024-06-21_10h46.32.776,LearnStrategy,2023.2.3,Win32,60.24096386,9,1,4,0.095394737,0.252741228,1,0,0,0.7991,Peridotite_14,7,14,5,5,0.799,0.381578947,-0.245614035,1,0,0,3.2471,Gabbro_rect,4,3.247,0,3,0,3,0,1,,,,,,,,,,,,,
5ed696d2449ef00dbdce0178,SCN,2024-06-21_10h46.32.776,LearnStrategy,2023.2.3,Win32,60.24096386,9,1,5,0.060307018,0.273026316,1,0,0,0.5864,Peridotite_14,7,14,5,5,0.586,0.098684211,-0.396929825,1,0,0,0.7489,Peridotite_rect,7,0.749,1,4,0,4,0,1,,,,,,,,,,,,,
5ed696d2449ef00dbdce0178,SCN,2024-06-21_10h46.32.776,LearnStrategy,2023.2.3,Win32,60.24096386,9,1,6,0.4375,0.283991228,1,0,0,0.9445,Diorite_13,3,13,5,7,0.945,0.17379386,-0.235197368,1,0,0,1.3458,Diorite_rect,3,1.346,1,5,0,5,0,1,,,,,,,,,,,,,
5ed696d2449ef00dbdce0178,SCN,2024-06-21_10h46.32.776,LearnStrategy,2023.2.3,Win32,60.24096386,9,1,7,0.587171053,0.447368421,1,0,0,1.1083,Pegmatite_12,6,12,6,8,1.108,-0.11129386,-0.39747807,1,0,0,1.2113,Pegmatite_rect,6,1.211,1,6,0,6,0,1,,,,,,,,,,,,,
5ed696d2449ef00dbdce0178,SCN,2024-06-21_10h46.32.776,LearnStrategy,2023.2.3,Win32,60.24096386,9,1,8,-0.078399123,-0.275767544,1,0,0,0.7862,Basalt_08,2,08,2,4,0.786,-0.099780702,-0.247807018,1,0,0,0.8609,Basalt_rect,2,0.861,1,7,0,7,0,1,,,,,,,,,,,,,
5ed696d2449ef00dbdce0178,SCN,2024-06-21_10h46.32.776,LearnStrategy,2023.2.3,Win32,60.24096386,9,1,9,-0.376644737,-0.099232456,1,0,0,0.882,Andesite_09,1,09,3,2,0.882,-0.111842105,-0.251096491,1,0,0,0.8974,Basalt_rect,2,0.897,0,8,0,8,0,1,,,,,,,,,,,,,
5ed696d2449ef00dbdce0178,SCN,2024-06-21_10h46.32.776,LearnStrategy,2023.2.3,Win32,60.24096386,9,1,10,-0.578947368,-0.086074561,1,0,0,0.7734,Basalt_14,2,14,3,1,0.773,-0.38870614,-0.248903509,1,0,0,6.1952,Andesite_rect,1,6.195,0,9,0,9,0,1,,,,,,,,,,,,,
5ed696d2449ef00dbdce0178,SCN,2024-06-21_10h46.32.776,LearnStrategy,2023.2.3,Win32,60.24096386,9,1,11,-0.566337719,-0.077302632,1,0,0,0.7636,Basalt_14,2,14,3,1,0.764,-0.127741228,-0.247807018,1,0,0,0.6403,Basalt_rect,2,0.64,1,10,0,10,0,1,,,,,,,,,,,,,
5ed696d2449ef00dbdce0178,SCN,2024-06-21_10h46.32.776,LearnStrategy,2023.2.3,Win32,60.24096386,9,1,12,-0.419407895,-0.411732456,1,0,0,0.7973,Basalt_02,2,02,1,2,0.797,-0.087719298,-0.253289474,1,0,0,0.9787,Basalt_rect,2,0.979,1,11,0,11,0,1,,,,,,,,,,,,,
5ed696d2449ef00dbdce0178,SCN,2024-06-21_10h46.32.776,LearnStrategy,2023.2.3,Win32,60.24096386,9,1,13,-0.202302632,-0.417763158,1,0,0,0.7306,Pumice_15,8,15,1,3,0.731,0.332785088,-0.394736842,1,0,0,0.8745,Pumice_rect,8,0.874,1,12,0,12,0,1,,,,,,,,,,,,,
5ed696d2449ef00dbdce0178,SCN,2024-06-21_10h46.32.776,LearnStrategy,2023.2.3,Win32,60.24096386,9,1,14,0.23629386,-0.384868421,1,0,0,0.5635,Obsidian_14,5,14,1,6,0.563,-0.326754386,-0.395285088,1,0,0,0.6721,Obsidian_rect,5,0.672,1,13,0,13,0,1,,,,,,,,,,,,,
5ed696d2449ef00dbdce0178,SCN,2024-06-21_10h46.32.776,LearnStrategy,2023.2.3,Win32,60.24096386,9,1,15,0.384868421,-0.256030702,1,0,0,0.8348,Andesite_02,1,02,2,7,0.835,-0.144188596,-0.390350877,1,0,0,1.4369,Pegmatite_rect,6,1.437,0,14,0,14,0,1,,,,,,,,,,,,,
5ed696d2449ef00dbdce0178,SCN,2024-06-21_10h46.32.776,LearnStrategy,2023.2.3,Win32,60.24096386,9,1,16,0.384868421,-0.240131579,1,0,0,0.9201,Andesite_02,1,02,2,7,0.92,-0.35745614,-0.236842105,1,0,0,1.5111,Andesite_rect,1,1.511,1,15,0,15,0,1,,,,,,,,,,,,,
5ed696d2449ef00dbdce0178,SCN,2024-06-21_10h46.32.776,LearnStrategy,2023.2.3,Win32,60.24096386,9,2,1,,,,,,,,7,15,,,,,,,,,,,6,2.434,0,,,,,,-0.110745614,-0.405701754,1,0,0,2.4342,Pegmatite_rect,0,0,0,0,1,
5ed696d2449ef00dbdce0178,SCN,2024-06-21_10h46.32.776,LearnStrategy,2023.2.3,Win32,60.24096386,9,2,2,,,,,,,,6,15,,,,,,,,,,,6,0.978,1,,,,,,-0.110745614,-0.405701754,1,0,0,0.9784,Pegmatite_rect,1,0,1,0,1,
5ed696d2449ef00dbdce0178,SCN,2024-06-21_10h46.32.776,LearnStrategy,2023.2.3,Win32,60.24096386,9,2,3,,,,,,,,8,14,,,,,,,,,,,8,1.228,1,,,,,,0.402412281,-0.381578947,1,0,0,1.228,Pumice_rect,2,0,2,0,1,
5ed696d2449ef00dbdce0178,SCN,2024-06-21_10h46.32.776,LearnStrategy,2023.2.3,Win32,60.24096386,9,2,4,,,,,,,,4,05,,,,,,,,,,,7,2.254,0,,,,,,0.112390351,-0.391447368,1,0,0,2.2541,Peridotite_rect,3,0,3,0,1,
5ed696d2449ef00dbdce0178,SCN,2024-06-21_10h46.32.776,LearnStrategy,2023.2.3,Win32,60.24096386,9,2,5,,,,,,,,2,01,,,,,,,,,,,2,1.054,1,,,,,,-0.125,-0.241776316,1,0,0,1.0539,Basalt_rect,4,0,4,0,1,
5ed696d2449ef00dbdce0178,SCN,2024-06-21_10h46.32.776,LearnStrategy,2023.2.3,Win32,60.24096386,9,2,6,,,,,,,,4,01,,,,,,,,,,,1,1.774,0,,,,,,-0.413925439,-0.248903509,1,0,0,1.7743,Andesite_rect,5,0,5,0,1,
5ed696d2449ef00dbdce0178,SCN,2024-06-21_10h46.32.776,LearnStrategy,2023.2.3,Win32,60.24096386,9,2,7,,,,,,,,8,09,,,,,,,,,,,8,1.1,1,,,,,,0.335526316,-0.405701754,1,0,0,1.0996,Pumice_rect,6,0,6,0,1,
5ed696d2449ef00dbdce0178,SCN,2024-06-21_10h46.32.776,LearnStrategy,2023.2.3,Win32,60.24096386,9,2,8,,,,,,,,1,16,,,,,,,,,,,7,3.149,0,,,,,,0.088815789,-0.409539474,1,0,0,3.1488,Peridotite_rect,7,0,7,0,1,
5ed696d2449ef00dbdce0178,SCN,2024-06-21_10h46.32.776,LearnStrategy,2023.2.3,Win32,60.24096386,9,2,9,,,,,,,,5,11,,,,,,,,,,,5,1.042,1,,,,,,-0.398026316,-0.390350877,1,0,0,1.0423,Obsidian_rect,8,0,8,0,1,
5ed696d2449ef00dbdce0178,SCN,2024-06-21_10h46.32.776,LearnStrategy,2023.2.3,Win32,60.24096386,9,2,10,,,,,,,,5,07,,,,,,,,,,,5,0.68,1,,,,,,-0.399671053,-0.38870614,1,0,0,0.68,Obsidian_rect,9,0,9,0,1,
5ed696d2449ef00dbdce0178,SCN,2024-06-21_10h46.32.776,LearnStrategy,2023.2.3,Win32,60.24096386,9,2,11,,,,,,,,3,10,,,,,,,,,,,3,1.378,1,,,,,,0.109649123,-0.248355263,1,0,0,1.3782,Diorite_rect,10,0,10,0,1,
5ed696d2449ef00dbdce0178,SCN,2024-06-21_10h46.32.776,LearnStrategy,2023.2.3,Win32,60.24096386,9,2,12,,,,,,,,2,04,,,,,,,,,,,2,0.94,1,,,,,,-0.108552632,-0.249451754,1,0,0,0.9403,Basalt_rect,11,0,11,0,1,
5ed696d2449ef00dbdce0178,SCN,2024-06-21_10h46.32.776,LearnStrategy,2023.2.3,Win32,60.24096386,9,2,13,,,,,,,,3,15,,,,,,,,,,,3,1.951,1,,,,,,0.118421053,-0.246162281,1,0,0,1.9514,Diorite_rect,12,0,12,0,1,
5ed696d2449ef00dbdce0178,SCN,2024-06-21_10h46.32.776,LearnStrategy,2023.2.3,Win32,60.24096386,9,2,14,,,,,,,,6,05,,,,,,,,,,,6,1.65,1,,,,,,-0.152960526,-0.404605263,1,0,0,1.6501,Pegmatite_rect,13,0,13,0,1,
5ed696d2449ef00dbdce0178,SCN,2024-06-21_10h46.32.776,LearnStrategy,2023.2.3,Win32,60.24096386,9,2,15,,,,,,,,1,07,,,,,,,,,,,1,1.367,1,,,,,,-0.384868421,-0.260416667,1,0,0,1.3666,Andesite_rect,14,0,14,0,1,
5ed696d2449ef00dbdce0178,SCN,2024-06-21_10h46.32.776,LearnStrategy,2023.2.3,Win32,60.24096386,9,2,16,,,,,,,,7,13,,,,,,,,,,,7,1.853,1,,,,,,0.130482456,-0.396929825,1,0,0,1.8534,Peridotite_rect,15,0,15,0,1,
5ed696d2449ef00dbdce0178,SCN,2024-06-21_10h46.32.776,LearnStrategy,2023.2.3,Win32,60.24096386,,,,,,,,,,,,,,,,,,,,,,,,,,,,,,,,,,,,,,,,,,,0
5ed696d2449ef00dbdce0178,SCN,2024-06-21_10h46.32.776,LearnStrategy,2023.2.3,Win32,60.24096386,,,,,,,,,,,,,,,,,,,,,,,,,,,,,,,,,,,,,,,,,,,
5ed696d2449ef00dbdce0178,SCN,2024-06-21_10h46.32.776,LearnStrategy,2023.2.3,Win32,60.24096386,,,,,,,,,,,3,16,1,1,,,,,,,,,,,,,,,,,,,,,,,,,,,,,
5ed696d2449ef00dbdce0178,SCN,2024-06-21_10h46.32.776,LearnStrategy,2023.2.3,Win32,60.24096386,,,,,,,,,,,2,02,1,2,,,,,,,,,,,,,,,,,,,,,,,,,,,,,
5ed696d2449ef00dbdce0178,SCN,2024-06-21_10h46.32.776,LearnStrategy,2023.2.3,Win32,60.24096386,,,,,,,,,,,8,15,1,3,,,,,,,,,,,,,,,,,,,,,,,,,,,,,
5ed696d2449ef00dbdce0178,SCN,2024-06-21_10h46.32.776,LearnStrategy,2023.2.3,Win32,60.24096386,,,,,,,,,,,5,05,1,4,,,,,,,,,,,,,,,,,,,,,,,,,,,,,
5ed696d2449ef00dbdce0178,SCN,2024-06-21_10h46.32.776,LearnStrategy,2023.2.3,Win32,60.24096386,,,,,,,,,,,1,03,1,5,,,,,,,,,,,,,,,,,,,,,,,,,,,,,
5ed696d2449ef00dbdce0178,SCN,2024-06-21_10h46.32.776,LearnStrategy,2023.2.3,Win32,60.24096386,,,,,,,,,,,5,14,1,6,,,,,,,,,,,,,,,,,,,,,,,,,,,,,
5ed696d2449ef00dbdce0178,SCN,2024-06-21_10h46.32.776,LearnStrategy,2023.2.3,Win32,60.24096386,,,,,,,,,,,8,03,1,7,,,,,,,,,,,,,,,,,,,,,,,,,,,,,
5ed696d2449ef00dbdce0178,SCN,2024-06-21_10h46.32.776,LearnStrategy,2023.2.3,Win32,60.24096386,,,,,,,,,,,1,10,1,8,,,,,,,,,,,,,,,,,,,,,,,,,,,,,
5ed696d2449ef00dbdce0178,SCN,2024-06-21_10h46.32.776,LearnStrategy,2023.2.3,Win32,60.24096386,,,,,,,,,,,2,10,2,1,,,,,,,,,,,,,,,,,,,,,,,,,,,,,
5ed696d2449ef00dbdce0178,SCN,2024-06-21_10h46.32.776,LearnStrategy,2023.2.3,Win32,60.24096386,,,,,,,,,,,6,03,2,2,,,,,,,,,,,,,,,,,,,,,,,,,,,,,
5ed696d2449ef00dbdce0178,SCN,2024-06-21_10h46.32.776,LearnStrategy,2023.2.3,Win32,60.24096386,,,,,,,,,,,2,06,2,3,,,,,,,,,,,,,,,,,,,,,,,,,,,,,
5ed696d2449ef00dbdce0178,SCN,2024-06-21_10h46.32.776,LearnStrategy,2023.2.3,Win32,60.24096386,,,,,,,,,,,2,08,2,4,,,,,,,,,,,,,,,,,,,,,,,,,,,,,
5ed696d2449ef00dbdce0178,SCN,2024-06-21_10h46.32.776,LearnStrategy,2023.2.3,Win32,60.24096386,,,,,,,,,,,8,06,2,5,,,,,,,,,,,,,,,,,,,,,,,,,,,,,
5ed696d2449ef00dbdce0178,SCN,2024-06-21_10h46.32.776,LearnStrategy,2023.2.3,Win32,60.24096386,,,,,,,,,,,2,09,2,6,,,,,,,,,,,,,,,,,,,,,,,,,,,,,
5ed696d2449ef00dbdce0178,SCN,2024-06-21_10h46.32.776,LearnStrategy,2023.2.3,Win32,60.24096386,,,,,,,,,,,1,02,2,7,,,,,,,,,,,,,,,,,,,,,,,,,,,,,
5ed696d2449ef00dbdce0178,SCN,2024-06-21_10h46.32.776,LearnStrategy,2023.2.3,Win32,60.24096386,,,,,,,,,,,6,10,2,8,,,,,,,,,,,,,,,,,,,,,,,,,,,,,
5ed696d2449ef00dbdce0178,SCN,2024-06-21_10h46.32.776,LearnStrategy,2023.2.3,Win32,60.24096386,,,,,,,,,,,2,14,3,1,,,,,,,,,,,,,,,,,,,,,,,,,,,,,
5ed696d2449ef00dbdce0178,SCN,2024-06-21_10h46.32.776,LearnStrategy,2023.2.3,Win32,60.24096386,,,,,,,,,,,1,09,3,2,,,,,,,,,,,,,,,,,,,,,,,,,,,,,
5ed696d2449ef00dbdce0178,SCN,2024-06-21_10h46.32.776,LearnStrategy,2023.2.3,Win32,60.24096386,,,,,,,,,,,7,06,3,3,,,,,,,,,,,,,,,,,,,,,,,,,,,,,
5ed696d2449ef00dbdce0178,SCN,2024-06-21_10h46.32.776,LearnStrategy,2023.2.3,Win32,60.24096386,,,,,,,,,,,6,08,3,4,,,,,,,,,,,,,,,,,,,,,,,,,,,,,
5ed696d2449ef00dbdce0178,SCN,2024-06-21_10h46.32.776,LearnStrategy,2023.2.3,Win32,60.24096386,,,,,,,,,,,8,13,3,5,,,,,,,,,,,,,,,,,,,,,,,,,,,,,
5ed696d2449ef00dbdce0178,SCN,2024-06-21_10h46.32.776,LearnStrategy,2023.2.3,Win32,60.24096386,,,,,,,,,,,3,11,3,6,,,,,,,,,,,,,,,,,,,,,,,,,,,,,
5ed696d2449ef00dbdce0178,SCN,2024-06-21_10h46.32.776,LearnStrategy,2023.2.3,Win32,60.24096386,,,,,,,,,,,5,10,3,7,,,,,,,,,,,,,,,,,,,,,,,,,,,,,
5ed696d2449ef00dbdce0178,SCN,2024-06-21_10h46.32.776,LearnStrategy,2023.2.3,Win32,60.24096386,,,,,,,,,,,7,10,3,8,,,,,,,,,,,,,,,,,,,,,,,,,,,,,
5ed696d2449ef00dbdce0178,SCN,2024-06-21_10h46.32.776,LearnStrategy,2023.2.3,Win32,60.24096386,,,,,,,,,,,8,10,4,1,,,,,,,,,,,,,,,,,,,,,,,,,,,,,
5ed696d2449ef00dbdce0178,SCN,2024-06-21_10h46.32.776,LearnStrategy,2023.2.3,Win32,60.24096386,,,,,,,,,,,6,16,4,2,,,,,,,,,,,,,,,,,,,,,,,,,,,,,
5ed696d2449ef00dbdce0178,SCN,2024-06-21_10h46.32.776,LearnStrategy,2023.2.3,Win32,60.24096386,,,,,,,,,,,4,13,4,3,,,,,,,,,,,,,,,,,,,,,,,,,,,,,
5ed696d2449ef00dbdce0178,SCN,2024-06-21_10h46.32.776,LearnStrategy,2023.2.3,Win32,60.24096386,,,,,,,,,,,5,02,4,4,,,,,,,,,,,,,,,,,,,,,,,,,,,,,
5ed696d2449ef00dbdce0178,SCN,2024-06-21_10h46.32.776,LearnStrategy,2023.2.3,Win32,60.24096386,,,,,,,,,,,3,02,4,5,,,,,,,,,,,,,,,,,,,,,,,,,,,,,
5ed696d2449ef00dbdce0178,SCN,2024-06-21_10h46.32.776,LearnStrategy,2023.2.3,Win32,60.24096386,,,,,,,,,,,7,08,4,6,,,,,,,,,,,,,,,,,,,,,,,,,,,,,
5ed696d2449ef00dbdce0178,SCN,2024-06-21_10h46.32.776,LearnStrategy,2023.2.3,Win32,60.24096386,,,,,,,,,,,1,05,4,7,,,,,,,,,,,,,,,,,,,,,,,,,,,,,
5ed696d2449ef00dbdce0178,SCN,2024-06-21_10h46.32.776,LearnStrategy,2023.2.3,Win32,60.24096386,,,,,,,,,,,7,07,4,8,,,,,,,,,,,,,,,,,,,,,,,,,,,,,
5ed696d2449ef00dbdce0178,SCN,2024-06-21_10h46.32.776,LearnStrategy,2023.2.3,Win32,60.24096386,,,,,,,,,,,8,08,5,1,,,,,,,,,,,,,,,,,,,,,,,,,,,,,
5ed696d2449ef00dbdce0178,SCN,2024-06-21_10h46.32.776,LearnStrategy,2023.2.3,Win32,60.24096386,,,,,,,,,,,7,05,5,2,,,,,,,,,,,,,,,,,,,,,,,,,,,,,
5ed696d2449ef00dbdce0178,SCN,2024-06-21_10h46.32.776,LearnStrategy,2023.2.3,Win32,60.24096386,,,,,,,,,,,5,08,5,3,,,,,,,,,,,,,,,,,,,,,,,,,,,,,
5ed696d2449ef00dbdce0178,SCN,2024-06-21_10h46.32.776,LearnStrategy,2023.2.3,Win32,60.24096386,,,,,,,,,,,6,13,5,4,,,,,,,,,,,,,,,,,,,,,,,,,,,,,
5ed696d2449ef00dbdce0178,SCN,2024-06-21_10h46.32.776,LearnStrategy,2023.2.3,Win32,60.24096386,,,,,,,,,,,7,14,5,5,,,,,,,,,,,,,,,,,,,,,,,,,,,,,
5ed696d2449ef00dbdce0178,SCN,2024-06-21_10h46.32.776,LearnStrategy,2023.2.3,Win32,60.24096386,,,,,,,,,,,4,12,5,6,,,,,,,,,,,,,,,,,,,,,,,,,,,,,
5ed696d2449ef00dbdce0178,SCN,2024-06-21_10h46.32.776,LearnStrategy,2023.2.3,Win32,60.24096386,,,,,,,,,,,3,13,5,7,,,,,,,,,,,,,,,,,,,,,,,,,,,,,
5ed696d2449ef00dbdce0178,SCN,2024-06-21_10h46.32.776,LearnStrategy,2023.2.3,Win32,60.24096386,,,,,,,,,,,5,12,5,8,,,,,,,,,,,,,,,,,,,,,,,,,,,,,
5ed696d2449ef00dbdce0178,SCN,2024-06-21_10h46.32.776,LearnStrategy,2023.2.3,Win32,60.24096386,,,,,,,,,,,3,06,6,1,,,,,,,,,,,,,,,,,,,,,,,,,,,,,
5ed696d2449ef00dbdce0178,SCN,2024-06-21_10h46.32.776,LearnStrategy,2023.2.3,Win32,60.24096386,,,,,,,,,,,4,15,6,2,,,,,,,,,,,,,,,,,,,,,,,,,,,,,
5ed696d2449ef00dbdce0178,SCN,2024-06-21_10h46.32.776,LearnStrategy,2023.2.3,Win32,60.24096386,,,,,,,,,,,4,09,6,3,,,,,,,,,,,,,,,,,,,,,,,,,,,,,
5ed696d2449ef00dbdce0178,SCN,2024-06-21_10h46.32.776,LearnStrategy,2023.2.3,Win32,60.24096386,,,,,,,,,,,1,01,6,4,,,,,,,,,,,,,,,,,,,,,,,,,,,,,
5ed696d2449ef00dbdce0178,SCN,2024-06-21_10h46.32.776,LearnStrategy,2023.2.3,Win32,60.24096386,,,,,,,,,,,4,08,6,5,,,,,,,,,,,,,,,,,,,,,,,,,,,,,
5ed696d2449ef00dbdce0178,SCN,2024-06-21_10h46.32.776,LearnStrategy,2023.2.3,Win32,60.24096386,,,,,,,,,,,4,11,6,6,,,,,,,,,,,,,,,,,,,,,,,,,,,,,
5ed696d2449ef00dbdce0178,SCN,2024-06-21_10h46.32.776,LearnStrategy,2023.2.3,Win32,60.24096386,,,,,,,,,,,3,09,6,7,,,,,,,,,,,,,,,,,,,,,,,,,,,,,
5ed696d2449ef00dbdce0178,SCN,2024-06-21_10h46.32.776,LearnStrategy,2023.2.3,Win32,60.24096386,,,,,,,,,,,6,12,6,8,,,,,,,,,,,,,,,,,,,,,,,,,,,,,