participant,condition,date,expName,psychopyVersion,OS,frameRate,block,phase,trial,learn_mouse_2.x,learn_mouse_2.y,learn_mouse_2.leftButton,learn_mouse_2.midButton,learn_mouse_2.rightButton,learn_mouse_2.time,learn_mouse_2.clicked_name,cat,token,row,col,t_select,cat_mouse_l.x,cat_mouse_l.y,cat_mouse_l.leftButton,cat_mouse_l.midButton,cat_mouse_l.rightButton,cat_mouse_l.time,cat_mouse_l.clicked_name,resp,t_resp,corr,train_trials.thisRepN,train_trials.thisTrialN,train_trials.thisN,train_trials.thisIndex,train_trials.ran,cat_mouse_t.x,cat_mouse_t.y,cat_mouse_t.leftButton,cat_mouse_t.midButton,cat_mouse_t.rightButton,cat_mouse_t.time,cat_mouse_t.clicked_name,test_trials.thisRepN,test_trials.thisTrialN,test_trials.thisN,test_trials.thisIndex,test_trials.ran,Bonus
5ef6308c40846d2dfca0b66a,TCN,2024-06-24_15h32.56.564,LearnStrategy,2023.2.3,Win32,59.52380952,,,,,,,,,,,,,,,,,,,,,,,,,,,,,,,,,,,,,,,,,,,
5ef6308c40846d2dfca0b66a,TCN,2024-06-24_15h32.56.564,LearnStrategy,2023.2.3,Win32,59.52380952,1,1,1,0.064108481,-0.001758925,1,0,0,3.5396,rock_grid_rect_2,3,08,-1,-1,3.54,0.112247692,-0.245232359,1,0,0,9.2241,Diorite_rect,3,9.224,1,0,0,0,0,1,,,,,,,,,,,,,
5ef6308c40846d2dfca0b66a,TCN,2024-06-24_15h32.56.564,LearnStrategy,2023.2.3,Win32,59.52380952,1,1,2,0.065959985,-0.009164938,1,0,0,1.4396,rock_grid_rect_2,8,13,-1,-1,1.44,-0.109007608,-0.407239366,1,0,0,9.9694,Pegmatite_rect,6,9.969,0,1,0,1,0,1,,,,,,,,,,,,,
5ef6308c40846d2dfca0b66a,TCN,2024-06-24_15h32.56.564,LearnStrategy,2023.2.3,Win32,59.52380952,1,1,3,0.016894991,-0.005461932,1,0,0,1.9321,rock_grid_rect_2,7,08,-1,-1,1.932,0.101138672,-0.415571162,1,0,0,7.5848,Peridotite_rect,7,7.585,1,2,0,2,0,1,,,,,,,,,,,,,
5ef6308c40846d2dfca0b66a,TCN,2024-06-24_15h32.56.564,LearnStrategy,2023.2.3,Win32,59.52380952,1,1,4,0.090955373,-0.009164938,1,0,0,1.5412,rock_grid_rect_2,6,09,-1,-1,1.541,-0.381179437,-0.404462018,1,0,0,5.8676,Obsidian_rect,5,5.868,0,3,0,3,0,1,,,,,,,,,,,,,
5ef6308c40846d2dfca0b66a,TCN,2024-06-24_15h32.56.564,LearnStrategy,2023.2.3,Win32,59.52380952,1,1,5,0.077069005,-0.016570983,1,0,0,3.3589,rock_grid_rect_2,8,04,-1,-1,3.359,0.3797907,-0.389650054,1,0,0,5.7346,Pumice_rect,8,5.735,1,4,0,4,0,1,,,,,,,,,,,,,
5ef6308c40846d2dfca0b66a,TCN,2024-06-24_15h32.56.564,LearnStrategy,2023.2.3,Win32,59.52380952,1,1,6,0.041890379,-0.017496734,1,0,0,1.9095,rock_grid_rect_2,1,16,-1,-1,1.91,0.082623577,-0.39798185,1,0,0,8.3848,Peridotite_rect,7,8.385,0,5,0,5,0,1,,,,,,,,,,,,,
5ef6308c40846d2dfca0b66a,TCN,2024-06-24_15h32.56.564,LearnStrategy,2023.2.3,Win32,59.52380952,1,1,7,-0.040501798,-0.019348238,1,0,0,1.881,rock_grid_rect_2,1,14,-1,-1,1.881,-0.109007608,-0.256341379,1,0,0,8.8181,Basalt_rect,2,8.818,0,6,0,6,0,1,,,,,,,,,,,,,
5ef6308c40846d2dfca0b66a,TCN,2024-06-24_15h32.56.564,LearnStrategy,2023.2.3,Win32,59.52380952,1,1,8,0.002082902,-0.018422486,1,0,0,1.8309,rock_grid_rect_2,6,05,-1,-1,1.831,-0.393214239,-0.232271773,1,0,0,4.5027,Andesite_rect,1,4.503,0,7,0,7,0,1,,,,,,,,,,,,,
5ef6308c40846d2dfca0b66a,TCN,2024-06-24_15h32.56.564,LearnStrategy,2023.2.3,Win32,59.52380952,1,1,9,0.006711692,0.012127412,1,0,0,1.7146,rock_grid_rect_2,7,15,-1,-1,1.715,0.14742638,-0.39798185,1,0,0,5.2346,Peridotite_rect,7,5.235,1,8,0,8,0,1,,,,,,,,,,,,,
5ef6308c40846d2dfca0b66a,TCN,2024-06-24_15h32.56.564,LearnStrategy,2023.2.3,Win32,59.52380952,1,1,10,0.089103807,-0.013793728,1,0,0,1.5758,rock_grid_rect_2,2,10,-1,-1,1.576,-0.119190908,-0.24800952,1,0,0,5.3507,Basalt_rect,2,5.351,1,9,0,9,0,1,,,,,,,,,,,,,
5ef6308c40846d2dfca0b66a,TCN,2024-06-24_15h32.56.564,LearnStrategy,2023.2.3,Win32,59.52380952,1,1,11,-0.001620104,-0.017496734,1,0,0,1.5576,rock_grid_rect_2,2,06,-1,-1,1.558,0.399231579,-0.264673175,1,0,0,5.5181,Gabbro_rect,4,5.518,0,10,0,10,0,1,,,,,,,,,,,,,
5ef6308c40846d2dfca0b66a,TCN,2024-06-24_15h32.56.564,LearnStrategy,2023.2.3,Win32,59.52380952,1,1,12,-0.054388105,-0.009164938,1,0,0,2.4679,rock_grid_rect_2,4,05,-1,-1,2.468,-0.065497187,-0.389650054,1,0,0,5.4146,Pegmatite_rect,6,5.415,0,11,0,11,0,1,,,,,,,,,,,,,
5ef6308c40846d2dfca0b66a,TCN,2024-06-24_15h32.56.564,LearnStrategy,2023.2.3,Win32,59.52380952,1,1,13,0.058553909,0.009350126,1,0,0,1.7514,rock_grid_rect_2,4,03,-1,-1,1.751,-0.133077214,-0.405387863,1,0,0,6.2155,Pegmatite_rect,6,6.216,0,12,0,12,0,1,,,,,,,,,,,,,
5ef6308c40846d2dfca0b66a,TCN,2024-06-24_15h32.56.564,LearnStrategy,2023.2.3,Win32,59.52380952,1,1,14,0.033558583,0.015830419,1,0,0,1.2959,rock_grid_rect_2,5,14,-1,-1,1.296,-0.350629507,-0.38779855,1,0,0,1.9503,Obsidian_rect,5,1.95,1,13,0,13,0,1,,,,,,,,,,,,,
5ef6308c40846d2dfca0b66a,TCN,2024-06-24_15h32.56.564,LearnStrategy,2023.2.3,Win32,59.52380952,1,1,15,-0.012729186,-0.007313435,1,0,0,1.165,rock_grid_rect_2,5,16,-1,-1,1.165,-0.339520487,-0.385021264,1,0,0,1.8841,Obsidian_rect,5,1.884,1,14,0,14,0,1,,,,,,,,,,,,,
5ef6308c40846d2dfca0b66a,TCN,2024-06-24_15h32.56.564,LearnStrategy,2023.2.3,Win32,59.52380952,1,1,16,-0.002545887,0.010275878,1,0,0,1.6525,rock_grid_rect_2,3,06,-1,-1,1.653,0.301101591,-0.262821671,1,0,0,5.8314,Gabbro_rect,4,5.831,0,15,0,15,0,1,,,,,,,,,,,,,
5ef6308c40846d2dfca0b66a,TCN,2024-06-24_15h32.56.564,LearnStrategy,2023.2.3,Win32,59.52380952,1,2,1,,,,,,,,8,09,,,,,,,,,,,8,1.867,1,,,,,,0.401083144,-0.39335306,1,0,0,1.8673,Pumice_rect,0,0,0,0,1,
5ef6308c40846d2dfca0b66a,TCN,2024-06-24_15h32.56.564,LearnStrategy,2023.2.3,Win32,59.52380952,1,2,2,,,,,,,,6,03,,,,,,,,,,,7,2.661,0,,,,,,0.065959985,-0.404462018,1,0,0,2.6605,Peridotite_rect,1,0,1,0,1,
5ef6308c40846d2dfca0b66a,TCN,2024-06-24_15h32.56.564,LearnStrategy,2023.2.3,Win32,59.52380952,1,2,3,,,,,,,,2,02,,,,,,,,,,,2,5.151,1,,,,,,-0.104378819,-0.236900563,1,0,0,5.1507,Basalt_rect,2,0,2,0,1,
5ef6308c40846d2dfca0b66a,TCN,2024-06-24_15h32.56.564,LearnStrategy,2023.2.3,Win32,59.52380952,1,2,4,,,,,,,,5,07,,,,,,,,,,,5,3.585,1,,,,,,-0.363590093,-0.408165149,1,0,0,3.5846,Obsidian_rect,3,0,3,0,1,
5ef6308c40846d2dfca0b66a,TCN,2024-06-24_15h32.56.564,LearnStrategy,2023.2.3,Win32,59.52380952,1,2,5,,,,,,,,3,12,,,,,,,,,,,3,3.75,1,,,,,,0.127985502,-0.239677724,1,0,0,3.75,Diorite_rect,4,0,4,0,1,
5ef6308c40846d2dfca0b66a,TCN,2024-06-24_15h32.56.564,LearnStrategy,2023.2.3,Win32,59.52380952,1,2,6,,,,,,,,6,16,,,,,,,,,,,3,9.685,0,,,,,,0.114099196,-0.250786869,1,0,0,9.6848,Diorite_rect,5,0,5,0,1,
5ef6308c40846d2dfca0b66a,TCN,2024-06-24_15h32.56.564,LearnStrategy,2023.2.3,Win32,59.52380952,1,2,7,,,,,,,,7,05,,,,,,,,,,,7,5.384,1,,,,,,0.071514495,-0.402610515,1,0,0,5.3841,Peridotite_rect,6,0,6,0,1,
5ef6308c40846d2dfca0b66a,TCN,2024-06-24_15h32.56.564,LearnStrategy,2023.2.3,Win32,59.52380952,1,2,8,,,,,,,,8,10,,,,,,,,,,,8,1.301,1,,,,,,0.365904394,-0.410942373,1,0,0,1.3007,Pumice_rect,7,0,7,0,1,
5ef6308c40846d2dfca0b66a,TCN,2024-06-24_15h32.56.564,LearnStrategy,2023.2.3,Win32,59.52380952,1,2,9,,,,,,,,1,02,,,,,,,,,,,8,7.935,0,,,,,,0.365904394,-0.396130284,1,0,0,7.9354,Pumice_rect,8,0,8,0,1,
5ef6308c40846d2dfca0b66a,TCN,2024-06-24_15h32.56.564,LearnStrategy,2023.2.3,Win32,59.52380952,1,2,10,,,,,,,,2,01,,,,,,,,,,,2,2.75,1,,,,,,-0.176587697,-0.244306576,1,0,0,2.7497,Basalt_rect,9,0,9,0,1,
5ef6308c40846d2dfca0b66a,TCN,2024-06-24_15h32.56.564,LearnStrategy,2023.2.3,Win32,59.52380952,1,2,11,,,,,,,,4,01,,,,,,,,,,,1,8.335,0,,,,,,-0.363590093,-0.235049059,1,0,0,8.3346,Andesite_rect,10,0,10,0,1,
5ef6308c40846d2dfca0b66a,TCN,2024-06-24_15h32.56.564,LearnStrategy,2023.2.3,Win32,59.52380952,1,2,12,,,,,,,,3,07,,,,,,,,,,,6,4.55,0,,,,,,-0.114562118,-0.406313583,1,0,0,4.5497,Pegmatite_rect,11,0,11,0,1,
5ef6308c40846d2dfca0b66a,TCN,2024-06-24_15h32.56.564,LearnStrategy,2023.2.3,Win32,59.52380952,1,2,13,,,,,,,,5,02,,,,,,,,,,,5,1.319,1,,,,,,-0.363590093,-0.39890757,1,0,0,1.3186,Obsidian_rect,12,0,12,0,1,
5ef6308c40846d2dfca0b66a,TCN,2024-06-24_15h32.56.564,LearnStrategy,2023.2.3,Win32,59.52380952,1,2,14,,,,,,,,1,03,,,,,,,,,,,6,4.035,0,,,,,,-0.158072602,-0.408165149,1,0,0,4.0347,Pegmatite_rect,13,0,13,0,1,
5ef6308c40846d2dfca0b66a,TCN,2024-06-24_15h32.56.564,LearnStrategy,2023.2.3,Win32,59.52380952,1,2,15,,,,,,,,7,16,,,,,,,,,,,7,1.75,1,,,,,,0.103915896,-0.399833353,1,0,0,1.7503,Peridotite_rect,14,0,14,0,1,
5ef6308c40846d2dfca0b66a,TCN,2024-06-24_15h32.56.564,LearnStrategy,2023.2.3,Win32,59.52380952,1,2,16,,,,,,,,4,11,,,,,,,,,,,8,2.601,0,,,,,,0.33165149,-0.386872767,1,0,0,2.6008,Pumice_rect,15,0,15,0,1,
5ef6308c40846d2dfca0b66a,TCN,2024-06-24_15h32.56.564,LearnStrategy,2023.2.3,Win32,59.52380952,2,1,1,-0.029392716,-0.010090721,1,0,0,1.915,rock_grid_rect_2,3,10,-1,-1,1.915,-0.149740806,-0.383169761,1,0,0,9.0984,Pegmatite_rect,6,9.098,0,0,0,0,0,1,,,,,,,,,,,,,
5ef6308c40846d2dfca0b66a,TCN,2024-06-24_15h32.56.564,LearnStrategy,2023.2.3,Win32,59.52380952,2,1,2,-0.000694322,-0.002684677,1,0,0,1.5459,rock_grid_rect_2,2,12,-1,-1,1.546,0.423301184,-0.378540971,1,0,0,2.0507,Pumice_rect,8,2.051,0,1,0,1,0,1,,,,,,,,,,,,,
5ef6308c40846d2dfca0b66a,TCN,2024-06-24_15h32.56.564,LearnStrategy,2023.2.3,Win32,59.52380952,2,1,3,0.052999399,-0.009164938,1,0,0,1.5165,rock_grid_rect_2,7,10,-1,-1,1.517,0.098361386,-0.381318257,1,0,0,2.1649,Peridotite_rect,7,2.165,1,2,0,2,0,1,,,,,,,,,,,,,
5ef6308c40846d2dfca0b66a,TCN,2024-06-24_15h32.56.564,LearnStrategy,2023.2.3,Win32,59.52380952,2,1,4,-0.062719901,-0.007313435,1,0,0,1.5478,rock_grid_rect_2,8,02,-1,-1,1.548,0.407563312,-0.420199952,1,0,0,1.5843,Pumice_rect,8,1.584,1,3,0,3,0,1,,,,,,,,,,,,,
5ef6308c40846d2dfca0b66a,TCN,2024-06-24_15h32.56.564,LearnStrategy,2023.2.3,Win32,59.52380952,2,1,5,0.072440278,-0.011016473,1,0,0,1.4699,rock_grid_rect_2,5,09,-1,-1,1.47,-0.371921889,-0.410016652,1,0,0,1.5298,Obsidian_rect,5,1.53,1,4,0,4,0,1,,,,,,,,,,,,,
5ef6308c40846d2dfca0b66a,TCN,2024-06-24_15h32.56.564,LearnStrategy,2023.2.3,Win32,59.52380952,2,1,6,0.133540074,0.013053164,1,0,0,3.215,rock_grid_rect_2,3,14,-1,-1,3.215,0.138168801,-0.232271773,1,0,0,4.1677,Diorite_rect,3,4.168,1,5,0,5,0,1,,,,,,,,,,,,,
5ef6308c40846d2dfca0b66a,TCN,2024-06-24_15h32.56.564,LearnStrategy,2023.2.3,Win32,59.52380952,2,1,7,0.010414698,0.01120166,1,0,0,1.4981,rock_grid_rect_2,1,06,-1,-1,1.498,-0.114562118,-0.397056067,1,0,0,2.6679,Pegmatite_rect,6,2.668,0,6,0,6,0,1,,,,,,,,,,,,,
5ef6308c40846d2dfca0b66a,TCN,2024-06-24_15h32.56.564,LearnStrategy,2023.2.3,Win32,59.52380952,2,1,8,0.101138672,0.012127412,1,0,0,2.3124,rock_grid_rect_2,8,08,-1,-1,2.312,0.399231579,-0.388724271,1,0,0,3.0847,Pumice_rect,8,3.085,1,7,0,7,0,1,,,,,,,,,,,,,
5ef6308c40846d2dfca0b66a,TCN,2024-06-24_15h32.56.564,LearnStrategy,2023.2.3,Win32,59.52380952,2,1,9,0.004860188,0.006572871,1,0,0,1.2979,rock_grid_rect_2,7,12,-1,-1,1.298,0.10021289,-0.39890757,1,0,0,4.4679,Peridotite_rect,7,4.468,1,8,0,8,0,1,,,,,,,,,,,,,
5ef6308c40846d2dfca0b66a,TCN,2024-06-24_15h32.56.564,LearnStrategy,2023.2.3,Win32,59.52380952,2,1,10,0.003934344,0.010275878,1,0,0,1.3313,rock_grid_rect_2,6,07,-1,-1,1.331,-0.360812807,-0.383169761,1,0,0,6.1342,Obsidian_rect,5,6.134,0,9,0,9,0,1,,,,,,,,,,,,,
5ef6308c40846d2dfca0b66a,TCN,2024-06-24_15h32.56.564,LearnStrategy,2023.2.3,Win32,59.52380952,2,1,11,-0.012729186,-0.001758925,1,0,0,1.2485,rock_grid_rect_2,6,15,-1,-1,1.249,-0.121968194,-0.394278719,1,0,0,2.1499,Pegmatite_rect,6,2.15,1,10,0,10,0,1,,,,,,,,,,,,,
5ef6308c40846d2dfca0b66a,TCN,2024-06-24_15h32.56.564,LearnStrategy,2023.2.3,Win32,59.52380952,2,1,12,0.051147896,-0.010090721,1,0,0,1.1296,rock_grid_rect_2,4,16,-1,-1,1.13,-0.099750091,-0.229494425,1,0,0,2.8186,Basalt_rect,2,2.819,0,11,0,11,0,1,,,,,,,,,,,,,
5ef6308c40846d2dfca0b66a,TCN,2024-06-24_15h32.56.564,LearnStrategy,2023.2.3,Win32,59.52380952,2,1,13,0.062256978,-0.011016473,1,0,0,1.1019,rock_grid_rect_2,2,16,-1,-1,1.102,0.382567986,-0.395204563,1,0,0,2.5973,Pumice_rect,8,2.597,0,12,0,12,0,1,,,,,,,,,,,,,
5ef6308c40846d2dfca0b66a,TCN,2024-06-24_15h32.56.564,LearnStrategy,2023.2.3,Win32,59.52380952,2,1,14,-0.008100397,-0.001758925,1,0,0,1.1752,rock_grid_rect_2,5,10,-1,-1,1.175,-0.439501947,-0.406313583,1,0,0,1.5341,Obsidian_rect,5,1.534,1,13,0,13,0,1,,,,,,,,,,,,,
5ef6308c40846d2dfca0b66a,TCN,2024-06-24_15h32.56.564,LearnStrategy,2023.2.3,Win32,59.52380952,2,1,15,0.044667541,-0.001758925,1,0,0,1.1485,rock_grid_rect_2,1,09,-1,-1,1.149,-0.395991494,-0.253564155,1,0,0,4.7196,Andesite_rect,1,4.72,1,14,0,14,0,1,,,,,,,,,,,,,
5ef6308c40846d2dfca0b66a,TCN,2024-06-24_15h32.56.564,LearnStrategy,2023.2.3,Win32,59.52380952,2,1,16,0.002082902,0.005647119,1,0,0,1.4148,rock_grid_rect_2,4,08,-1,-1,1.415,-0.099750091,-0.39335306,1,0,0,5.1015,Pegmatite_rect,6,5.101,0,15,0,15,0,1,,,,,,,,,,,,,
5ef6308c40846d2dfca0b66a,TCN,2024-06-24_15h32.56.564,LearnStrategy,2023.2.3,Win32,59.52380952,2,2,1,,,,,,,,4,10,,,,,,,,,,,4,4.868,1,,,,,,0.351092368,-0.250786869,1,0,0,4.8681,Gabbro_rect,0,0,0,0,1,
5ef6308c40846d2dfca0b66a,TCN,2024-06-24_15h32.56.564,LearnStrategy,2023.2.3,Win32,59.52380952,2,2,2,,,,,,,,7,06,,,,,,,,,,,7,3.467,1,,,,,,0.114099196,-0.395204563,1,0,0,3.4673,Peridotite_rect,1,0,1,0,1,
5ef6308c40846d2dfca0b66a,TCN,2024-06-24_15h32.56.564,LearnStrategy,2023.2.3,Win32,59.52380952,2,2,3,,,,,,,,1,01,,,,,,,,,,,6,4.784,0,,,,,,-0.174736194,-0.392427215,1,0,0,4.7839,Pegmatite_rect,2,0,2,0,1,
5ef6308c40846d2dfca0b66a,TCN,2024-06-24_15h32.56.564,LearnStrategy,2023.2.3,Win32,59.52380952,2,2,4,,,,,,,,2,08,,,,,,,,,,,2,2.901,1,,,,,,-0.1256712,-0.246158079,1,0,0,2.9012,Basalt_rect,3,0,3,0,1,
5ef6308c40846d2dfca0b66a,TCN,2024-06-24_15h32.56.564,LearnStrategy,2023.2.3,Win32,59.52380952,2,2,5,,,,,,,,8,06,,,,,,,,,,,8,1.867,1,,,,,,0.393676882,-0.407239366,1,0,0,1.8668,Pumice_rect,4,0,4,0,1,
5ef6308c40846d2dfca0b66a,TCN,2024-06-24_15h32.56.564,LearnStrategy,2023.2.3,Win32,59.52380952,2,2,6,,,,,,,,6,13,,,,,,,,,,,3,4.433,0,,,,,,0.085400801,-0.254489875,1,0,0,4.433,Diorite_rect,5,0,5,0,1,
5ef6308c40846d2dfca0b66a,TCN,2024-06-24_15h32.56.564,LearnStrategy,2023.2.3,Win32,59.52380952,2,2,7,,,,,,,,4,14,,,,,,,,,,,4,3.618,1,,,,,,0.389974,-0.260970168,1,0,0,3.6178,Gabbro_rect,6,0,6,0,1,
5ef6308c40846d2dfca0b66a,TCN,2024-06-24_15h32.56.564,LearnStrategy,2023.2.3,Win32,59.52380952,2,2,8,,,,,,,,7,13,,,,,,,,,,,7,2.316,1,,,,,,0.09465838,-0.395204563,1,0,0,2.3158,Peridotite_rect,7,0,7,0,1,
5ef6308c40846d2dfca0b66a,TCN,2024-06-24_15h32.56.564,LearnStrategy,2023.2.3,Win32,59.52380952,2,2,9,,,,,,,,1,07,,,,,,,,,,,3,2.384,0,,,,,,0.089103807,-0.245232359,1,0,0,2.3837,Diorite_rect,8,0,8,0,1,
5ef6308c40846d2dfca0b66a,TCN,2024-06-24_15h32.56.564,LearnStrategy,2023.2.3,Win32,59.52380952,2,2,10,,,,,,,,8,14,,,,,,,,,,,8,4.35,1,,,,,,0.389048279,-0.390575774,1,0,0,4.3498,Pumice_rect,9,0,9,0,1,
5ef6308c40846d2dfca0b66a,TCN,2024-06-24_15h32.56.564,LearnStrategy,2023.2.3,Win32,59.52380952,2,2,11,,,,,,,,5,12,,,,,,,,,,,5,1.335,1,,,,,,-0.434873189,-0.407239366,1,0,0,1.3346,Obsidian_rect,10,0,10,0,1,
5ef6308c40846d2dfca0b66a,TCN,2024-06-24_15h32.56.564,LearnStrategy,2023.2.3,Win32,59.52380952,2,2,12,,,,,,,,3,02,,,,,,,,,,,3,1.85,1,,,,,,0.167792979,-0.254489875,1,0,0,1.8501,Diorite_rect,11,0,11,0,1,
5ef6308c40846d2dfca0b66a,TCN,2024-06-24_15h32.56.564,LearnStrategy,2023.2.3,Win32,59.52380952,2,2,13,,,,,,,,6,08,,,,,,,,,,,3,8.435,0,,,,,,0.119653706,-0.254489875,1,0,0,8.4348,Diorite_rect,12,0,12,0,1,
5ef6308c40846d2dfca0b66a,TCN,2024-06-24_15h32.56.564,LearnStrategy,2023.2.3,Win32,59.52380952,2,2,14,,,,,,,,2,04,,,,,,,,,,,2,2.568,1,,,,,,-0.133077214,-0.261895889,1,0,0,2.5676,Basalt_rect,13,0,13,0,1,
5ef6308c40846d2dfca0b66a,TCN,2024-06-24_15h32.56.564,LearnStrategy,2023.2.3,Win32,59.52380952,2,2,15,,,,,,,,3,09,,,,,,,,,,,3,2.035,1,,,,,,0.10021289,-0.25819282,1,0,0,2.0352,Diorite_rect,14,0,14,0,1,
5ef6308c40846d2dfca0b66a,TCN,2024-06-24_15h32.56.564,LearnStrategy,2023.2.3,Win32,59.52380952,2,2,16,,,,,,,,5,08,,,,,,,,,,,5,1.511,1,,,,,,-0.408026297,-0.405387863,1,0,0,1.5106,Obsidian_rect,15,0,15,0,1,
5ef6308c40846d2dfca0b66a,TCN,2024-06-24_15h32.56.564,LearnStrategy,2023.2.3,Win32,59.52380952,3,1,1,-0.029392716,-0.017496734,1,0,0,2.8823,rock_grid_rect_2,5,05,-1,-1,2.882,-0.373773392,-0.40353636,1,0,0,2.733,Obsidian_rect,5,2.733,1,0,0,0,0,1,,,,,,,,,,,,,
5ef6308c40846d2dfca0b66a,TCN,2024-06-24_15h32.56.564,LearnStrategy,2023.2.3,Win32,59.52380952,3,1,2,0.088178087,0.006572871,1,0,0,1.4143,rock_grid_rect_2,2,05,-1,-1,1.414,-0.08401222,-0.253564155,1,0,0,1.8198,Basalt_rect,2,1.82,1,1,0,1,0,1,,,,,,,,,,,,,
5ef6308c40846d2dfca0b66a,TCN,2024-06-24_15h32.56.564,LearnStrategy,2023.2.3,Win32,59.52380952,3,1,3,0.027078291,-0.015645231,1,0,0,1.3467,rock_grid_rect_2,5,11,-1,-1,1.347,-0.350629507,-0.382243916,1,0,0,1.3457,Obsidian_rect,5,1.346,1,2,0,2,0,1,,,,,,,,,,,,,
5ef6308c40846d2dfca0b66a,TCN,2024-06-24_15h32.56.564,LearnStrategy,2023.2.3,Win32,59.52380952,3,1,4,0.052999399,-0.013793728,1,0,0,2.2157,rock_grid_rect_2,2,09,-1,-1,2.216,-0.152518092,-0.260970168,1,0,0,4.0011,Basalt_rect,2,4.001,1,3,0,3,0,1,,,,,,,,,,,,,
5ef6308c40846d2dfca0b66a,TCN,2024-06-24_15h32.56.564,LearnStrategy,2023.2.3,Win32,59.52380952,3,1,5,0.0428161,-0.010090721,1,0,0,1.25,rock_grid_rect_2,1,11,-1,-1,1.25,-0.40432329,-0.248935365,1,0,0,2.8974,Andesite_rect,1,2.897,1,4,0,4,0,1,,,,,,,,,,,,,
5ef6308c40846d2dfca0b66a,TCN,2024-06-24_15h32.56.564,LearnStrategy,2023.2.3,Win32,59.52380952,3,1,6,0.069662991,-0.023051275,1,0,0,1.1623,rock_grid_rect_2,8,16,-1,-1,1.162,0.385345273,-0.39798185,1,0,0,2.2142,Pumice_rect,8,2.214,1,5,0,5,0,1,,,,,,,,,,,,,
5ef6308c40846d2dfca0b66a,TCN,2024-06-24_15h32.56.564,LearnStrategy,2023.2.3,Win32,59.52380952,3,1,7,0.020597998,0.002869864,1,0,0,0.9692,rock_grid_rect_2,3,13,-1,-1,0.969,0.136317298,-0.257267161,1,0,0,1.3814,Diorite_rect,3,1.381,1,6,0,6,0,1,,,,,,,,,,,,,
5ef6308c40846d2dfca0b66a,TCN,2024-06-24_15h32.56.564,LearnStrategy,2023.2.3,Win32,59.52380952,3,1,8,-0.002545887,0.008424374,1,0,0,0.9858,rock_grid_rect_2,8,15,-1,-1,0.986,0.342760385,-0.263747454,1,0,0,3.099,Gabbro_rect,4,3.099,0,7,0,7,0,1,,,,,,,,,,,,,
5ef6308c40846d2dfca0b66a,TCN,2024-06-24_15h32.56.564,LearnStrategy,2023.2.3,Win32,59.52380952,3,1,9,0.090955373,0.019533425,1,0,0,1.2315,rock_grid_rect_2,7,14,-1,-1,1.231,0.08447508,-0.396130284,1,0,0,2.8343,Peridotite_rect,7,2.834,1,8,0,8,0,1,,,,,,,,,,,,,
5ef6308c40846d2dfca0b66a,TCN,2024-06-24_15h32.56.564,LearnStrategy,2023.2.3,Win32,59.52380952,3,1,10,0.064108481,-0.018422486,1,0,0,1.8978,rock_grid_rect_2,3,16,-1,-1,1.898,0.087252304,-0.239677724,1,0,0,1.7178,Diorite_rect,3,1.718,1,9,0,9,0,1,,,,,,,,,,,,,
5ef6308c40846d2dfca0b66a,TCN,2024-06-24_15h32.56.564,LearnStrategy,2023.2.3,Win32,59.52380952,3,1,11,0.074291781,0.013053164,1,0,0,1.0491,rock_grid_rect_2,7,02,-1,-1,1.049,0.1057674,-0.381318257,1,0,0,2.1015,Peridotite_rect,7,2.102,1,10,0,10,0,1,,,,,,,,,,,,,
5ef6308c40846d2dfca0b66a,TCN,2024-06-24_15h32.56.564,LearnStrategy,2023.2.3,Win32,59.52380952,3,1,12,0.055776685,0.005647119,1,0,0,1.4178,rock_grid_rect_2,6,06,-1,-1,1.418,-0.365441596,-0.238752066,1,0,0,2.147,Andesite_rect,1,2.147,0,11,0,11,0,1,,,,,,,,,,,,,
5ef6308c40846d2dfca0b66a,TCN,2024-06-24_15h32.56.564,LearnStrategy,2023.2.3,Win32,59.52380952,3,1,13,0.021523781,-0.016570983,1,0,0,1.4657,rock_grid_rect_2,6,11,-1,-1,1.466,-0.334891698,-0.252638372,1,0,0,3.317,Andesite_rect,1,3.317,0,12,0,12,0,1,,,,,,,,,,,,,
5ef6308c40846d2dfca0b66a,TCN,2024-06-24_15h32.56.564,LearnStrategy,2023.2.3,Win32,59.52380952,3,1,14,0.025226787,-0.023051275,1,0,0,1.0789,rock_grid_rect_2,1,04,-1,-1,1.079,0.116876482,-0.238752066,1,0,0,3.119,Diorite_rect,3,3.119,0,13,0,13,0,1,,,,,,,,,,,,,
5ef6308c40846d2dfca0b66a,TCN,2024-06-24_15h32.56.564,LearnStrategy,2023.2.3,Win32,59.52380952,3,1,15,0.063182699,-0.007313435,1,0,0,0.9977,rock_grid_rect_2,4,13,-1,-1,0.998,-0.092344016,-0.404462018,1,0,0,2.9177,Pegmatite_rect,6,2.918,0,14,0,14,0,1,,,,,,,,,,,,,
5ef6308c40846d2dfca0b66a,TCN,2024-06-24_15h32.56.564,LearnStrategy,2023.2.3,Win32,59.52380952,3,1,16,0.066885705,-0.001758925,1,0,0,0.9481,rock_grid_rect_2,4,15,-1,-1,0.948,-0.061794118,-0.401684856,1,0,0,4.0859,Pegmatite_rect,6,4.086,0,15,0,15,0,1,,,,,,,,,,,,,
5ef6308c40846d2dfca0b66a,TCN,2024-06-24_15h32.56.564,LearnStrategy,2023.2.3,Win32,59.52380952,3,2,1,,,,,,,,7,04,,,,,,,,,,,1,5.601,0,,,,,,-0.335817481,-0.255415658,1,0,0,5.601,Andesite_rect,0,0,0,0,1,
5ef6308c40846d2dfca0b66a,TCN,2024-06-24_15h32.56.564,LearnStrategy,2023.2.3,Win32,59.52380952,3,2,2,,,,,,,,2,11,,,,,,,,,,,4,5.8,0,,,,,,0.374236253,-0.260970168,1,0,0,5.8005,Gabbro_rect,1,0,1,0,1,
5ef6308c40846d2dfca0b66a,TCN,2024-06-24_15h32.56.564,LearnStrategy,2023.2.3,Win32,59.52380952,3,2,3,,,,,,,,8,05,,,,,,,,,,,8,1.45,1,,,,,,0.406637592,-0.390575774,1,0,0,1.4504,Pumice_rect,2,0,2,0,1,
5ef6308c40846d2dfca0b66a,TCN,2024-06-24_15h32.56.564,LearnStrategy,2023.2.3,Win32,59.52380952,3,2,4,,,,,,,,6,10,,,,,,,,,,,7,2.217,0,,,,,,0.113173475,-0.40909087,1,0,0,2.2172,Peridotite_rect,3,0,3,0,1,
5ef6308c40846d2dfca0b66a,TCN,2024-06-24_15h32.56.564,LearnStrategy,2023.2.3,Win32,59.52380952,3,2,5,,,,,,,,4,12,,,,,,,,,,,1,7.851,0,,,,,,-0.343223494,-0.266524678,1,0,0,7.8505,Andesite_rect,4,0,4,0,1,
5ef6308c40846d2dfca0b66a,TCN,2024-06-24_15h32.56.564,LearnStrategy,2023.2.3,Win32,59.52380952,3,2,6,,,,,,,,3,11,,,,,,,,,,,3,1.535,1,,,,,,0.116876482,-0.245232359,1,0,0,1.5349,Diorite_rect,5,0,5,0,1,
5ef6308c40846d2dfca0b66a,TCN,2024-06-24_15h32.56.564,LearnStrategy,2023.2.3,Win32,59.52380952,3,2,7,,,,,,,,1,05,,,,,,,,,,,1,4.298,1,,,,,,-0.345074997,-0.259118665,1,0,0,4.298,Andesite_rect,6,0,6,0,1,
5ef6308c40846d2dfca0b66a,TCN,2024-06-24_15h32.56.564,LearnStrategy,2023.2.3,Win32,59.52380952,3,2,8,,,,,,,,2,14,,,,,,,,,,,8,1.917,0,,,,,,0.409414878,-0.401684856,1,0,0,1.917,Pumice_rect,7,0,7,0,1,
5ef6308c40846d2dfca0b66a,TCN,2024-06-24_15h32.56.564,LearnStrategy,2023.2.3,Win32,59.52380952,3,2,9,,,,,,,,5,06,,,,,,,,,,,5,1.401,1,,,,,,-0.402471787,-0.394278719,1,0,0,1.4011,Obsidian_rect,8,0,8,0,1,
5ef6308c40846d2dfca0b66a,TCN,2024-06-24_15h32.56.564,LearnStrategy,2023.2.3,Win32,59.52380952,3,2,10,,,,,,,,1,10,,,,,,,,,,,6,8.235,0,,,,,,-0.213617888,-0.400759073,1,0,0,8.2346,Pegmatite_rect,9,0,9,0,1,
5ef6308c40846d2dfca0b66a,TCN,2024-06-24_15h32.56.564,LearnStrategy,2023.2.3,Win32,59.52380952,3,2,11,,,,,,,,6,12,,,,,,,,,,,6,3.601,1,,,,,,-0.120116752,-0.401684856,1,0,0,3.6008,Pegmatite_rect,10,0,10,0,1,
5ef6308c40846d2dfca0b66a,TCN,2024-06-24_15h32.56.564,LearnStrategy,2023.2.3,Win32,59.52380952,3,2,12,,,,,,,,7,07,,,,,,,,,,,7,1.699,1,,,,,,0.107618903,-0.399833353,1,0,0,1.6995,Peridotite_rect,11,0,11,0,1,
5ef6308c40846d2dfca0b66a,TCN,2024-06-24_15h32.56.564,LearnStrategy,2023.2.3,Win32,59.52380952,3,2,13,,,,,,,,5,04,,,,,,,,,,,5,1.435,1,,,,,,-0.410803583,-0.383169761,1,0,0,1.4345,Obsidian_rect,12,0,12,0,1,
5ef6308c40846d2dfca0b66a,TCN,2024-06-24_15h32.56.564,LearnStrategy,2023.2.3,Win32,59.52380952,3,2,14,,,,,,,,8,03,,,,,,,,,,,8,3.618,1,,,,,,0.327948483,-0.404462018,1,0,0,3.6179,Pumice_rect,13,0,13,0,1,
5ef6308c40846d2dfca0b66a,TCN,2024-06-24_15h32.56.564,LearnStrategy,2023.2.3,Win32,59.52380952,3,2,15,,,,,,,,4,09,,,,,,,,,,,4,6.285,1,,,,,,0.43441008,-0.261895889,1,0,0,6.2852,Gabbro_rect,14,0,14,0,1,
5ef6308c40846d2dfca0b66a,TCN,2024-06-24_15h32.56.564,LearnStrategy,2023.2.3,Win32,59.52380952,3,2,16,,,,,,,,3,15,,,,,,,,,,,3,3.65,1,,,,,,0.106693182,-0.265598958,1,0,0,3.6498,Diorite_rect,15,0,15,0,1,
5ef6308c40846d2dfca0b66a,TCN,2024-06-24_15h32.56.564,LearnStrategy,2023.2.3,Win32,59.52380952,4,1,1,-0.058091111,-0.003610428,1,0,0,1.7153,rock_grid_rect_2,2,16,-1,-1,1.715,0.406637592,-0.40353636,1,0,0,5.1786,Pumice_rect,8,5.179,0,0,0,0,0,1,,,,,,,,,,,,,
5ef6308c40846d2dfca0b66a,TCN,2024-06-24_15h32.56.564,LearnStrategy,2023.2.3,Win32,59.52380952,4,1,2,0.079846291,-0.022125493,1,0,0,1.1478,rock_grid_rect_2,3,16,-1,-1,1.148,0.171495985,-0.249861024,1,0,0,1.3775,Diorite_rect,3,1.378,1,1,0,1,0,1,,,,,,,,,,,,,
5ef6308c40846d2dfca0b66a,TCN,2024-06-24_15h32.56.564,LearnStrategy,2023.2.3,Win32,59.52380952,4,1,3,0.112247692,0.018607674,1,0,0,3.1316,rock_grid_rect_2,7,10,-1,-1,3.132,0.085400801,-0.402610515,1,0,0,1.7291,Peridotite_rect,7,1.729,1,2,0,2,0,1,,,,,,,,,,,,,
5ef6308c40846d2dfca0b66a,TCN,2024-06-24_15h32.56.564,LearnStrategy,2023.2.3,Win32,59.52380952,4,1,4,0.164089972,-0.005461932,1,0,0,1.4984,rock_grid_rect_2,6,15,-1,-1,1.498,-0.128448548,-0.385946985,1,0,0,2.1452,Pegmatite_rect,6,2.145,1,3,0,3,0,1,,,,,,,,,,,,,
5ef6308c40846d2dfca0b66a,TCN,2024-06-24_15h32.56.564,LearnStrategy,2023.2.3,Win32,59.52380952,4,1,5,0.112247692,-0.002684677,1,0,0,1.3743,rock_grid_rect_2,5,09,-1,-1,1.374,-0.427467144,-0.410016652,1,0,0,1.683,Obsidian_rect,5,1.683,1,4,0,4,0,1,,,,,,,,,,,,,
5ef6308c40846d2dfca0b66a,TCN,2024-06-24_15h32.56.564,LearnStrategy,2023.2.3,Win32,59.52380952,4,1,6,-0.011803404,0.002869864,1,0,0,2.2154,rock_grid_rect_2,4,15,-1,-1,2.215,0.361275667,-0.235049059,1,0,0,3.4005,Gabbro_rect,4,3.401,1,5,0,5,0,1,,,,,,,,,,,,,
5ef6308c40846d2dfca0b66a,TCN,2024-06-24_15h32.56.564,LearnStrategy,2023.2.3,Win32,59.52380952,4,1,7,0.172421706,-0.007313435,1,0,0,1.348,rock_grid_rect_2,5,11,-1,-1,1.348,-0.397842998,-0.391501557,1,0,0,1.4385,Obsidian_rect,5,1.438,1,6,0,6,0,1,,,,,,,,,,,,,
5ef6308c40846d2dfca0b66a,TCN,2024-06-24_15h32.56.564,LearnStrategy,2023.2.3,Win32,59.52380952,4,1,8,-0.001620104,0.010275878,1,0,0,1.2982,rock_grid_rect_2,1,06,-1,-1,1.298,-0.389511233,-0.239677724,1,0,0,3.0341,Andesite_rect,1,3.034,1,7,0,7,0,1,,,,,,,,,,,,,
5ef6308c40846d2dfca0b66a,TCN,2024-06-24_15h32.56.564,LearnStrategy,2023.2.3,Win32,59.52380952,4,1,9,0.0428161,-0.006387683,1,0,0,1.1817,rock_grid_rect_2,8,15,-1,-1,1.182,0.421449743,-0.407239366,1,0,0,3.4839,Pumice_rect,8,3.484,1,8,0,8,0,1,,,,,,,,,,,,,
5ef6308c40846d2dfca0b66a,TCN,2024-06-24_15h32.56.564,LearnStrategy,2023.2.3,Win32,59.52380952,4,1,10,-0.010877621,0.001944113,1,0,0,2.8145,rock_grid_rect_2,6,07,-1,-1,2.815,-0.368218882,-0.24800952,1,0,0,5.1852,Andesite_rect,1,5.185,0,9,0,9,0,1,,,,,,,,,,,,,
5ef6308c40846d2dfca0b66a,TCN,2024-06-24_15h32.56.564,LearnStrategy,2023.2.3,Win32,59.52380952,4,1,11,0.064108481,-0.006387683,1,0,0,1.236,rock_grid_rect_2,8,04,-1,-1,1.236,0.388122559,-0.406313583,1,0,0,2.6308,Pumice_rect,8,2.631,1,10,0,10,0,1,,,,,,,,,,,,,
5ef6308c40846d2dfca0b66a,TCN,2024-06-24_15h32.56.564,LearnStrategy,2023.2.3,Win32,59.52380952,4,1,12,0.000231399,-0.002684677,1,0,0,1.4981,rock_grid_rect_2,1,04,-1,-1,1.498,0.104841679,-0.254489875,1,0,0,10.4332,Diorite_rect,3,10.433,0,11,0,11,0,1,,,,,,,,,,,,,
5ef6308c40846d2dfca0b66a,TCN,2024-06-24_15h32.56.564,LearnStrategy,2023.2.3,Win32,59.52380952,4,1,13,-0.101601595,0.001944113,1,0,0,1.9142,rock_grid_rect_2,4,05,-1,-1,1.914,0.151129387,-0.405387863,1,0,0,4.3003,Peridotite_rect,7,4.3,0,12,0,12,0,1,,,,,,,,,,,,,
5ef6308c40846d2dfca0b66a,TCN,2024-06-24_15h32.56.564,LearnStrategy,2023.2.3,Win32,59.52380952,4,1,14,0.003934344,-0.010090721,1,0,0,1.4084,rock_grid_rect_2,2,09,-1,-1,1.408,-0.117339404,-0.260970168,1,0,0,1.5531,Basalt_rect,2,1.553,1,13,0,13,0,1,,,,,,,,,,,,,
5ef6308c40846d2dfca0b66a,TCN,2024-06-24_15h32.56.564,LearnStrategy,2023.2.3,Win32,59.52380952,4,1,15,0.111321972,-0.011016473,1,0,0,1.3323,rock_grid_rect_2,7,12,-1,-1,1.332,0.123356774,-0.408165149,1,0,0,1.602,Peridotite_rect,7,1.602,1,14,0,14,0,1,,,,,,,,,,,,,
5ef6308c40846d2dfca0b66a,TCN,2024-06-24_15h32.56.564,LearnStrategy,2023.2.3,Win32,59.52380952,4,1,16,0.1585354,-0.008239187,1,0,0,1.1134,rock_grid_rect_2,3,14,-1,-1,1.113,0.080772074,-0.260970168,1,0,0,3.1676,Diorite_rect,3,3.168,1,15,0,15,0,1,,,,,,,,,,,,,
5ef6308c40846d2dfca0b66a,TCN,2024-06-24_15h32.56.564,LearnStrategy,2023.2.3,Win32,59.52380952,4,2,1,,,,,,,,2,14,,,,,,,,,,,4,6.7,0,,,,,,0.362201388,-0.257267161,1,0,0,6.6999,Gabbro_rect,0,0,0,0,1,
5ef6308c40846d2dfca0b66a,TCN,2024-06-24_15h32.56.564,LearnStrategy,2023.2.3,Win32,59.52380952,4,2,2,,,,,,,,5,12,,,,,,,,,,,5,1.867,1,,,,,,-0.363590093,-0.392427215,1,0,0,1.8673,Obsidian_rect,1,0,1,0,1,
5ef6308c40846d2dfca0b66a,TCN,2024-06-24_15h32.56.564,LearnStrategy,2023.2.3,Win32,59.52380952,4,2,3,,,,,,,,7,05,,,,,,,,,,,7,3.314,1,,,,,,0.118727985,-0.389650054,1,0,0,3.3143,Peridotite_rect,2,0,2,0,1,
5ef6308c40846d2dfca0b66a,TCN,2024-06-24_15h32.56.564,LearnStrategy,2023.2.3,Win32,59.52380952,4,2,4,,,,,,,,5,08,,,,,,,,,,,5,4.068,1,,,,,,-0.365441596,-0.389650054,1,0,0,4.0676,Obsidian_rect,3,0,3,0,1,
5ef6308c40846d2dfca0b66a,TCN,2024-06-24_15h32.56.564,LearnStrategy,2023.2.3,Win32,59.52380952,4,2,5,,,,,,,,3,15,,,,,,,,,,,6,4.701,0,,,,,,-0.098824309,-0.404462018,1,0,0,4.7013,Pegmatite_rect,4,0,4,0,1,
5ef6308c40846d2dfca0b66a,TCN,2024-06-24_15h32.56.564,LearnStrategy,2023.2.3,Win32,59.52380952,4,2,6,,,,,,,,8,09,,,,,,,,,,,8,2.15,1,,,,,,0.409414878,-0.38779855,1,0,0,2.1505,Pumice_rect,5,0,5,0,1,
5ef6308c40846d2dfca0b66a,TCN,2024-06-24_15h32.56.564,LearnStrategy,2023.2.3,Win32,59.52380952,4,2,7,,,,,,,,6,08,,,,,,,,,,,6,14.081,1,,,,,,-0.169181746,-0.411868156,1,0,0,14.0811,Pegmatite_rect,6,0,6,0,1,
5ef6308c40846d2dfca0b66a,TCN,2024-06-24_15h32.56.564,LearnStrategy,2023.2.3,Win32,59.52380952,4,2,8,,,,,,,,7,06,,,,,,,,,,,7,1.651,1,,,,,,0.111321972,-0.405387863,1,0,0,1.6507,Peridotite_rect,7,0,7,0,1,
5ef6308c40846d2dfca0b66a,TCN,2024-06-24_15h32.56.564,LearnStrategy,2023.2.3,Win32,59.52380952,4,2,9,,,,,,,,2,04,,,,,,,,,,,2,4.95,1,,,,,,-0.100675812,-0.266524678,1,0,0,4.9502,Basalt_rect,8,0,8,0,1,
5ef6308c40846d2dfca0b66a,TCN,2024-06-24_15h32.56.564,LearnStrategy,2023.2.3,Win32,59.52380952,4,2,10,,,,,,,,4,12,,,,,,,,,,,1,3.433,0,,,,,,-0.344149277,-0.243380855,1,0,0,3.4335,Andesite_rect,9,0,9,0,1,
5ef6308c40846d2dfca0b66a,TCN,2024-06-24_15h32.56.564,LearnStrategy,2023.2.3,Win32,59.52380952,4,2,11,,,,,,,,6,10,,,,,,,,,,,7,1.634,0,,,,,,0.104841679,-0.39798185,1,0,0,1.6342,Peridotite_rect,10,0,10,0,1,
5ef6308c40846d2dfca0b66a,TCN,2024-06-24_15h32.56.564,LearnStrategy,2023.2.3,Win32,59.52380952,4,2,12,,,,,,,,3,09,,,,,,,,,,,3,2.251,1,,,,,,0.10021289,-0.253564155,1,0,0,2.251,Diorite_rect,11,0,11,0,1,
5ef6308c40846d2dfca0b66a,TCN,2024-06-24_15h32.56.564,LearnStrategy,2023.2.3,Win32,59.52380952,4,2,13,,,,,,,,1,01,,,,,,,,,,,4,3.694,0,,,,,,0.361275667,-0.250786869,1,0,0,3.6936,Gabbro_rect,12,0,12,0,1,
5ef6308c40846d2dfca0b66a,TCN,2024-06-24_15h32.56.564,LearnStrategy,2023.2.3,Win32,59.52380952,4,2,14,,,,,,,,1,02,,,,,,,,,,,6,2.331,0,,,,,,-0.084938003,-0.390575774,1,0,0,2.3313,Pegmatite_rect,13,0,13,0,1,
5ef6308c40846d2dfca0b66a,TCN,2024-06-24_15h32.56.564,LearnStrategy,2023.2.3,Win32,59.52380952,4,2,15,,,,,,,,8,03,,,,,,,,,,,8,1.267,1,,,,,,0.389974,-0.404462018,1,0,0,1.2672,Pumice_rect,14,0,14,0,1,
5ef6308c40846d2dfca0b66a,TCN,2024-06-24_15h32.56.564,LearnStrategy,2023.2.3,Win32,59.52380952,4,2,16,,,,,,,,4,01,,,,,,,,,,,3,4.102,0,,,,,,0.151129387,-0.232271773,1,0,0,4.1021,Diorite_rect,15,0,15,0,1,
5ef6308c40846d2dfca0b66a,TCN,2024-06-24_15h32.56.564,LearnStrategy,2023.2.3,Win32,59.52380952,5,1,1,-0.126596983,0.006572871,1,0,0,1.5991,rock_grid_rect_2,7,14,-1,-1,1.599,0.102990176,-0.415571162,1,0,0,2.3624,Peridotite_rect,7,2.362,1,0,0,0,0,1,,,,,,,,,,,,,
5ef6308c40846d2dfca0b66a,TCN,2024-06-24_15h32.56.564,LearnStrategy,2023.2.3,Win32,59.52380952,5,1,2,0.124282495,0.003795616,1,0,0,1.2582,rock_grid_rect_2,5,05,-1,-1,1.258,-0.36266431,-0.40909087,1,0,0,1.9289,Obsidian_rect,5,1.929,1,1,0,1,0,1,,,,,,,,,,,,,
5ef6308c40846d2dfca0b66a,TCN,2024-06-24_15h32.56.564,LearnStrategy,2023.2.3,Win32,59.52380952,5,1,3,0.03170708,-0.003610428,1,0,0,0.9987,rock_grid_rect_2,8,02,-1,-1,0.999,0.442742062,-0.384095419,1,0,0,1.345,Pumice_rect,8,1.345,1,2,0,2,0,1,,,,,,,,,,,,,
5ef6308c40846d2dfca0b66a,TCN,2024-06-24_15h32.56.564,LearnStrategy,2023.2.3,Win32,59.52380952,5,1,4,0.061331195,0.003795616,1,0,0,1.1151,rock_grid_rect_2,4,16,-1,-1,1.115,0.398305858,-0.232271773,1,0,0,1.928,Gabbro_rect,4,1.928,1,3,0,3,0,1,,,,,,,,,,,,,
5ef6308c40846d2dfca0b66a,TCN,2024-06-24_15h32.56.564,LearnStrategy,2023.2.3,Win32,59.52380952,5,1,5,0.065959985,-0.00453618,1,0,0,4.4978,rock_grid_rect_2,1,11,-1,-1,4.498,-0.352481011,-0.236900563,1,0,0,2.0788,Andesite_rect,1,2.079,1,4,0,4,0,1,,,,,,,,,,,,,
5ef6308c40846d2dfca0b66a,TCN,2024-06-24_15h32.56.564,LearnStrategy,2023.2.3,Win32,59.52380952,5,1,6,0.03726159,-0.007313435,1,0,0,1.2817,rock_grid_rect_2,5,10,-1,-1,1.282,-0.382105188,-0.400759073,1,0,0,1.4287,Obsidian_rect,5,1.429,1,5,0,5,0,1,,,,,,,,,,,,,
5ef6308c40846d2dfca0b66a,TCN,2024-06-24_15h32.56.564,LearnStrategy,2023.2.3,Win32,59.52380952,5,1,7,0.089103807,-0.017496734,1,0,0,1.5655,rock_grid_rect_2,1,09,-1,-1,1.566,0.115950699,-0.246158079,1,0,0,2.8954,Diorite_rect,3,2.895,0,6,0,6,0,1,,,,,,,,,,,,,
5ef6308c40846d2dfca0b66a,TCN,2024-06-24_15h32.56.564,LearnStrategy,2023.2.3,Win32,59.52380952,5,1,8,0.061331195,-0.003610428,1,0,0,1.248,rock_grid_rect_2,3,10,-1,-1,1.248,-0.370070386,-0.231345991,1,0,0,2.4608,Andesite_rect,1,2.461,0,7,0,7,0,1,,,,,,,,,,,,,
5ef6308c40846d2dfca0b66a,TCN,2024-06-24_15h32.56.564,LearnStrategy,2023.2.3,Win32,59.52380952,5,1,9,0.102064393,0.002869864,1,0,0,1.2645,rock_grid_rect_2,2,05,-1,-1,1.264,-0.1256712,-0.242455073,1,0,0,3.6123,Basalt_rect,2,3.612,1,8,0,8,0,1,,,,,,,,,,,,,
5ef6308c40846d2dfca0b66a,TCN,2024-06-24_15h32.56.564,LearnStrategy,2023.2.3,Win32,59.52380952,5,1,10,0.083549298,-0.014719479,1,0,0,1.0653,rock_grid_rect_2,3,08,-1,-1,1.065,0.123356774,-0.245232359,1,0,0,2.1282,Diorite_rect,3,2.128,1,9,0,9,0,1,,,,,,,,,,,,,
5ef6308c40846d2dfca0b66a,TCN,2024-06-24_15h32.56.564,LearnStrategy,2023.2.3,Win32,59.52380952,5,1,11,0.032632801,-0.001758925,1,0,0,2.5818,rock_grid_rect_2,7,15,-1,-1,2.582,0.076143284,-0.413719659,1,0,0,1.8457,Peridotite_rect,7,1.846,1,10,0,10,0,1,,,,,,,,,,,,,
5ef6308c40846d2dfca0b66a,TCN,2024-06-24_15h32.56.564,LearnStrategy,2023.2.3,Win32,59.52380952,5,1,12,0.016894991,0.003795616,1,0,0,1.3814,rock_grid_rect_2,8,13,-1,-1,1.381,0.354795374,-0.413719659,1,0,0,4.7281,Pumice_rect,8,4.728,1,11,0,11,0,1,,,,,,,,,,,,,
5ef6308c40846d2dfca0b66a,TCN,2024-06-24_15h32.56.564,LearnStrategy,2023.2.3,Win32,59.52380952,5,1,13,0.064108481,-0.000833173,1,0,0,1.5484,rock_grid_rect_2,6,11,-1,-1,1.548,-0.151592309,-0.407239366,1,0,0,5.6784,Pegmatite_rect,6,5.678,1,12,0,12,0,1,,,,,,,,,,,,,
5ef6308c40846d2dfca0b66a,TCN,2024-06-24_15h32.56.564,LearnStrategy,2023.2.3,Win32,59.52380952,5,1,14,0.026152446,0.002869864,1,0,0,1.2314,rock_grid_rect_2,2,10,-1,-1,1.231,-0.063645621,-0.244306576,1,0,0,2.8287,Basalt_rect,2,2.829,1,13,0,13,0,1,,,,,,,,,,,,,
5ef6308c40846d2dfca0b66a,TCN,2024-06-24_15h32.56.564,LearnStrategy,2023.2.3,Win32,59.52380952,5,1,15,0.076143284,-0.024902779,1,0,0,1.1142,rock_grid_rect_2,4,08,-1,-1,1.114,0.381642266,-0.245232359,1,0,0,3.6456,Gabbro_rect,4,3.646,1,14,0,14,0,1,,,,,,,,,,,,,
5ef6308c40846d2dfca0b66a,TCN,2024-06-24_15h32.56.564,LearnStrategy,2023.2.3,Win32,59.52380952,5,1,16,0.019672277,-0.00453618,1,0,0,1.0985,rock_grid_rect_2,6,06,-1,-1,1.099,-0.372847641,-0.247083862,1,0,0,1.962,Andesite_rect,1,1.962,0,15,0,15,0,1,,,,,,,,,,,,,
5ef6308c40846d2dfca0b66a,TCN,2024-06-24_15h32.56.564,LearnStrategy,2023.2.3,Win32,59.52380952,5,2,1,,,,,,,,4,10,,,,,,,,,,,5,2.101,0,,,,,,-0.355258297,-0.396130284,1,0,0,2.1015,Obsidian_rect,0,0,0,0,1,
5ef6308c40846d2dfca0b66a,TCN,2024-06-24_15h32.56.564,LearnStrategy,2023.2.3,Win32,59.52380952,5,2,2,,,,,,,,8,05,,,,,,,,,,,8,2.047,1,,,,,,0.422375463,-0.38779855,1,0,0,2.0468,Pumice_rect,1,0,1,0,1,
5ef6308c40846d2dfca0b66a,TCN,2024-06-24_15h32.56.564,LearnStrategy,2023.2.3,Win32,59.52380952,5,2,3,,,,,,,,3,07,,,,,,,,,,,3,13.384,1,,,,,,0.153906673,-0.250786869,1,0,0,13.3843,Diorite_rect,2,0,2,0,1,
5ef6308c40846d2dfca0b66a,TCN,2024-06-24_15h32.56.564,LearnStrategy,2023.2.3,Win32,59.52380952,5,2,4,,,,,,,,7,13,,,,,,,,,,,7,1.967,1,,,,,,0.145574877,-0.400759073,1,0,0,1.9672,Peridotite_rect,3,0,3,0,1,
5ef6308c40846d2dfca0b66a,TCN,2024-06-24_15h32.56.564,LearnStrategy,2023.2.3,Win32,59.52380952,5,2,5,,,,,,,,2,02,,,,,,,,,,,2,2.117,1,,,,,,-0.099750091,-0.261895889,1,0,0,2.1174,Basalt_rect,4,0,4,0,1,
5ef6308c40846d2dfca0b66a,TCN,2024-06-24_15h32.56.564,LearnStrategy,2023.2.3,Win32,59.52380952,5,2,6,,,,,,,,5,06,,,,,,,,,,,5,2.651,1,,,,,,-0.384882443,-0.385946985,1,0,0,2.6509,Obsidian_rect,5,0,5,0,1,
5ef6308c40846d2dfca0b66a,TCN,2024-06-24_15h32.56.564,LearnStrategy,2023.2.3,Win32,59.52380952,5,2,7,,,,,,,,1,05,,,,,,,,,,,1,2.984,1,,,,,,-0.364515876,-0.248935365,1,0,0,2.9839,Andesite_rect,6,0,6,0,1,
5ef6308c40846d2dfca0b66a,TCN,2024-06-24_15h32.56.564,LearnStrategy,2023.2.3,Win32,59.52380952,5,2,8,,,,,,,,2,08,,,,,,,,,,,4,2.401,0,,,,,,0.351092368,-0.243380855,1,0,0,2.4008,Gabbro_rect,7,0,7,0,1,
5ef6308c40846d2dfca0b66a,TCN,2024-06-24_15h32.56.564,LearnStrategy,2023.2.3,Win32,59.52380952,5,2,9,,,,,,,,5,07,,,,,,,,,,,5,1.434,1,,,,,,-0.374699144,-0.40353636,1,0,0,1.4339,Obsidian_rect,8,0,8,0,1,
5ef6308c40846d2dfca0b66a,TCN,2024-06-24_15h32.56.564,LearnStrategy,2023.2.3,Win32,59.52380952,5,2,10,,,,,,,,6,03,,,,,,,,,,,7,1.732,0,,,,,,0.152055107,-0.390575774,1,0,0,1.7323,Peridotite_rect,9,0,9,0,1,
5ef6308c40846d2dfca0b66a,TCN,2024-06-24_15h32.56.564,LearnStrategy,2023.2.3,Win32,59.52380952,5,2,11,,,,,,,,8,10,,,,,,,,,,,8,1.319,1,,,,,,0.377939259,-0.394278719,1,0,0,1.3187,Pumice_rect,10,0,10,0,1,
5ef6308c40846d2dfca0b66a,TCN,2024-06-24_15h32.56.564,LearnStrategy,2023.2.3,Win32,59.52380952,5,2,12,,,,,,,,3,11,,,,,,,,,,,3,4.651,1,,,,,,0.168718699,-0.259118665,1,0,0,4.6514,Diorite_rect,11,0,11,0,1,
5ef6308c40846d2dfca0b66a,TCN,2024-06-24_15h32.56.564,LearnStrategy,2023.2.3,Win32,59.52380952,5,2,13,,,,,,,,1,07,,,,,,,,,,,1,2.053,1,,,,,,-0.380253685,-0.25819282,1,0,0,2.0533,Andesite_rect,12,0,12,0,1,
5ef6308c40846d2dfca0b66a,TCN,2024-06-24_15h32.56.564,LearnStrategy,2023.2.3,Win32,59.52380952,5,2,14,,,,,,,,7,16,,,,,,,,,,,7,1.796,1,,,,,,0.079846291,-0.408165149,1,0,0,1.7959,Peridotite_rect,13,0,13,0,1,
5ef6308c40846d2dfca0b66a,TCN,2024-06-24_15h32.56.564,LearnStrategy,2023.2.3,Win32,59.52380952,5,2,15,,,,,,,,6,12,,,,,,,,,,,6,2.583,1,,,,,,-0.055313887,-0.400759073,1,0,0,2.5826,Pegmatite_rect,14,0,14,0,1,
5ef6308c40846d2dfca0b66a,TCN,2024-06-24_15h32.56.564,LearnStrategy,2023.2.3,Win32,59.52380952,5,2,16,,,,,,,,4,09,,,,,,,,,,,6,5.935,0,,,,,,-0.107156105,-0.407239366,1,0,0,5.9348,Pegmatite_rect,15,0,15,0,1,
5ef6308c40846d2dfca0b66a,TCN,2024-06-24_15h32.56.564,LearnStrategy,2023.2.3,Win32,59.52380952,6,1,1,-0.022912424,-0.017496734,1,0,0,1.7486,rock_grid_rect_2,7,08,-1,-1,1.749,0.163164251,-0.397056067,1,0,0,1.7623,Peridotite_rect,7,1.762,1,0,0,0,0,1,,,,,,,,,,,,,
5ef6308c40846d2dfca0b66a,TCN,2024-06-24_15h32.56.564,LearnStrategy,2023.2.3,Win32,59.52380952,6,1,2,0.002082902,9.25783E-05,1,0,0,1.5653,rock_grid_rect_2,4,13,-1,-1,1.565,-0.43579894,-0.24152929,1,0,0,3.4946,Andesite_rect,1,3.495,0,1,0,1,0,1,,,,,,,,,,,,,
5ef6308c40846d2dfca0b66a,TCN,2024-06-24_15h32.56.564,LearnStrategy,2023.2.3,Win32,59.52380952,6,1,3,0.054850841,-0.013793728,1,0,0,1.1652,rock_grid_rect_2,8,16,-1,-1,1.165,0.439964776,-0.396130284,1,0,0,1.4784,Pumice_rect,8,1.478,1,2,0,2,0,1,,,,,,,,,,,,,
5ef6308c40846d2dfca0b66a,TCN,2024-06-24_15h32.56.564,LearnStrategy,2023.2.3,Win32,59.52380952,6,1,4,0.033558583,-0.015645231,1,0,0,1.5983,rock_grid_rect_2,6,09,-1,-1,1.598,0.097435604,-0.404462018,1,0,0,1.5624,Peridotite_rect,7,1.562,0,3,0,3,0,1,,,,,,,,,,,,,
5ef6308c40846d2dfca0b66a,TCN,2024-06-24_15h32.56.564,LearnStrategy,2023.2.3,Win32,59.52380952,6,1,5,0.064108481,-0.021199772,1,0,0,1.3824,rock_grid_rect_2,8,08,-1,-1,1.382,-0.121042411,-0.400759073,1,0,0,6.6288,Pegmatite_rect,6,6.629,0,4,0,4,0,1,,,,,,,,,,,,,
5ef6308c40846d2dfca0b66a,TCN,2024-06-24_15h32.56.564,LearnStrategy,2023.2.3,Win32,59.52380952,6,1,6,-0.101601595,-0.007313435,1,0,0,1.3314,rock_grid_rect_2,5,16,-1,-1,1.331,-0.447833743,-0.389650054,1,0,0,2.6289,Obsidian_rect,5,2.629,1,5,0,5,0,1,,,,,,,,,,,,,
5ef6308c40846d2dfca0b66a,TCN,2024-06-24_15h32.56.564,LearnStrategy,2023.2.3,Win32,59.52380952,6,1,7,-0.090492513,0.001944113,1,0,0,1.1982,rock_grid_rect_2,3,13,-1,-1,1.198,0.178901999,-0.254489875,1,0,0,1.7461,Diorite_rect,3,1.746,1,6,0,6,0,1,,,,,,,,,,,,,
5ef6308c40846d2dfca0b66a,TCN,2024-06-24_15h32.56.564,LearnStrategy,2023.2.3,Win32,59.52380952,6,1,8,0.033558583,-0.012867976,1,0,0,3.8657,rock_grid_rect_2,2,12,-1,-1,3.866,0.386270993,-0.394278719,1,0,0,2.6454,Pumice_rect,8,2.645,0,7,0,7,0,1,,,,,,,,,,,,,
5ef6308c40846d2dfca0b66a,TCN,2024-06-24_15h32.56.564,LearnStrategy,2023.2.3,Win32,59.52380952,6,1,9,0.040038876,-0.015645231,1,0,0,1.3316,rock_grid_rect_2,2,06,-1,-1,1.332,-0.119190908,-0.248935365,1,0,0,2.1122,Basalt_rect,2,2.112,1,8,0,8,0,1,,,,,,,,,,,,,
5ef6308c40846d2dfca0b66a,TCN,2024-06-24_15h32.56.564,LearnStrategy,2023.2.3,Win32,59.52380952,6,1,10,0.019672277,-0.011942224,1,0,0,1.4983,rock_grid_rect_2,6,05,-1,-1,1.498,-0.36266431,-0.38779855,1,0,0,8.1794,Obsidian_rect,5,8.179,0,9,0,9,0,1,,,,,,,,,,,,,
5ef6308c40846d2dfca0b66a,TCN,2024-06-24_15h32.56.564,LearnStrategy,2023.2.3,Win32,59.52380952,6,1,11,-0.034021506,-0.014719479,1,0,0,1.4316,rock_grid_rect_2,4,03,-1,-1,1.432,0.138168801,-0.264673175,1,0,0,3.8453,Diorite_rect,3,3.845,0,10,0,10,0,1,,,,,,,,,,,,,
5ef6308c40846d2dfca0b66a,TCN,2024-06-24_15h32.56.564,LearnStrategy,2023.2.3,Win32,59.52380952,6,1,12,0.058553909,-0.024902779,1,0,0,1.2156,rock_grid_rect_2,7,02,-1,-1,1.216,0.126133998,-0.406313583,1,0,0,1.8423,Peridotite_rect,7,1.842,1,11,0,11,0,1,,,,,,,,,,,,,
5ef6308c40846d2dfca0b66a,TCN,2024-06-24_15h32.56.564,LearnStrategy,2023.2.3,Win32,59.52380952,6,1,13,0.009488978,-0.012867976,1,0,0,1.781,rock_grid_rect_2,3,06,-1,-1,1.781,-0.382105188,-0.257267161,1,0,0,1.9292,Andesite_rect,1,1.929,0,12,0,12,0,1,,,,,,,,,,,,,
5ef6308c40846d2dfca0b66a,TCN,2024-06-24_15h32.56.564,LearnStrategy,2023.2.3,Win32,59.52380952,6,1,14,0.089103807,-0.012867976,1,0,0,1.1998,rock_grid_rect_2,1,14,-1,-1,1.2,-0.343223494,-0.245232359,1,0,0,2.0129,Andesite_rect,1,2.013,1,13,0,13,0,1,,,,,,,,,,,,,
5ef6308c40846d2dfca0b66a,TCN,2024-06-24_15h32.56.564,LearnStrategy,2023.2.3,Win32,59.52380952,6,1,15,0.054850841,-0.012867976,1,0,0,1.3314,rock_grid_rect_2,5,14,-1,-1,1.331,-0.378402151,-0.391501557,1,0,0,1.3448,Obsidian_rect,5,1.345,1,14,0,14,0,1,,,,,,,,,,,,,
5ef6308c40846d2dfca0b66a,TCN,2024-06-24_15h32.56.564,LearnStrategy,2023.2.3,Win32,59.52380952,6,1,16,0.027078291,-0.001758925,1,0,0,1.3323,rock_grid_rect_2,1,16,-1,-1,1.332,0.108544686,-0.260970168,1,0,0,2.197,Diorite_rect,3,2.197,0,15,0,15,0,1,,,,,,,,,,,,,
5ef6308c40846d2dfca0b66a,TCN,2024-06-24_15h32.56.564,LearnStrategy,2023.2.3,Win32,59.52380952,6,2,1,,,,,,,,8,14,,,,,,,,,,,8,1.595,1,,,,,,0.388122559,-0.399833353,1,0,0,1.5946,Pumice_rect,0,0,0,0,1,
5ef6308c40846d2dfca0b66a,TCN,2024-06-24_15h32.56.564,LearnStrategy,2023.2.3,Win32,59.52380952,6,2,2,,,,,,,,6,16,,,,,,,,,,,1,6.528,0,,,,,,-0.340446208,-0.256341379,1,0,0,6.5281,Andesite_rect,1,0,1,0,1,
5ef6308c40846d2dfca0b66a,TCN,2024-06-24_15h32.56.564,LearnStrategy,2023.2.3,Win32,59.52380952,6,2,3,,,,,,,,2,11,,,,,,,,,,,4,4.696,0,,,,,,0.329800048,-0.261895889,1,0,0,4.6955,Gabbro_rect,2,0,2,0,1,
5ef6308c40846d2dfca0b66a,TCN,2024-06-24_15h32.56.564,LearnStrategy,2023.2.3,Win32,59.52380952,6,2,4,,,,,,,,1,03,,,,,,,,,,,1,2.929,1,,,,,,-0.338594705,-0.256341379,1,0,0,2.9287,Andesite_rect,3,0,3,0,1,
5ef6308c40846d2dfca0b66a,TCN,2024-06-24_15h32.56.564,LearnStrategy,2023.2.3,Win32,59.52380952,6,2,5,,,,,,,,6,13,,,,,,,,,,,3,3.095,0,,,,,,0.085400801,-0.253564155,1,0,0,3.0953,Diorite_rect,4,0,4,0,1,
5ef6308c40846d2dfca0b66a,TCN,2024-06-24_15h32.56.564,LearnStrategy,2023.2.3,Win32,59.52380952,6,2,6,,,,,,,,3,02,,,,,,,,,,,3,1.145,1,,,,,,0.085400801,-0.252638372,1,0,0,1.145,Diorite_rect,5,0,5,0,1,
5ef6308c40846d2dfca0b66a,TCN,2024-06-24_15h32.56.564,LearnStrategy,2023.2.3,Win32,59.52380952,6,2,7,,,,,,,,5,02,,,,,,,,,,,5,1.128,1,,,,,,-0.36266431,-0.397056067,1,0,0,1.1282,Obsidian_rect,6,0,6,0,1,
5ef6308c40846d2dfca0b66a,TCN,2024-06-24_15h32.56.564,LearnStrategy,2023.2.3,Win32,59.52380952,6,2,8,,,,,,,,5,04,,,,,,,,,,,5,1.011,1,,,,,,-0.369144634,-0.38779855,1,0,0,1.0108,Obsidian_rect,7,0,7,0,1,
5ef6308c40846d2dfca0b66a,TCN,2024-06-24_15h32.56.564,LearnStrategy,2023.2.3,Win32,59.52380952,6,2,9,,,,,,,,7,07,,,,,,,,,,,7,1.761,1,,,,,,0.101138672,-0.385946985,1,0,0,1.7614,Peridotite_rect,8,0,8,0,1,
5ef6308c40846d2dfca0b66a,TCN,2024-06-24_15h32.56.564,LearnStrategy,2023.2.3,Win32,59.52380952,6,2,10,,,,,,,,4,14,,,,,,,,,,,4,3.395,1,,,,,,0.445519348,-0.262821671,1,0,0,3.3947,Gabbro_rect,9,0,9,0,1,
5ef6308c40846d2dfca0b66a,TCN,2024-06-24_15h32.56.564,LearnStrategy,2023.2.3,Win32,59.52380952,6,2,11,,,,,,,,2,01,,,,,,,,,,,2,1.512,1,,,,,,-0.121968194,-0.239677724,1,0,0,1.5118,Basalt_rect,10,0,10,0,1,
5ef6308c40846d2dfca0b66a,TCN,2024-06-24_15h32.56.564,LearnStrategy,2023.2.3,Win32,59.52380952,6,2,12,,,,,,,,7,04,,,,,,,,,,,1,5.062,0,,,,,,-0.389511233,-0.235049059,1,0,0,5.0623,Andesite_rect,11,0,11,0,1,
5ef6308c40846d2dfca0b66a,TCN,2024-06-24_15h32.56.564,LearnStrategy,2023.2.3,Win32,59.52380952,6,2,13,,,,,,,,3,12,,,,,,,,,,,3,2.611,1,,,,,,0.092806876,-0.252638372,1,0,0,2.6109,Diorite_rect,12,0,12,0,1,
5ef6308c40846d2dfca0b66a,TCN,2024-06-24_15h32.56.564,LearnStrategy,2023.2.3,Win32,59.52380952,6,2,14,,,,,,,,8,06,,,,,,,,,,,8,2.095,1,,,,,,0.365904394,-0.39798185,1,0,0,2.0951,Pumice_rect,13,0,13,0,1,
5ef6308c40846d2dfca0b66a,TCN,2024-06-24_15h32.56.564,LearnStrategy,2023.2.3,Win32,59.52380952,6,2,15,,,,,,,,4,11,,,,,,,,,,,4,2.977,1,,,,,,0.385345273,-0.238752066,1,0,0,2.9771,Gabbro_rect,14,0,14,0,1,
5ef6308c40846d2dfca0b66a,TCN,2024-06-24_15h32.56.564,LearnStrategy,2023.2.3,Win32,59.52380952,6,2,16,,,,,,,,1,10,,,,,,,,,,,6,4.642,0,,,,,,-0.153443812,-0.404462018,1,0,0,4.6416,Pegmatite_rect,15,0,15,0,1,
5ef6308c40846d2dfca0b66a,TCN,2024-06-24_15h32.56.564,LearnStrategy,2023.2.3,Win32,59.52380952,7,1,1,-0.019209417,-0.022125493,1,0,0,2.4654,rock_grid_rect_2,6,05,-1,-1,2.465,-0.441353512,-0.408165149,1,0,0,3.7457,Obsidian_rect,5,3.746,0,0,0,0,0,1,,,,,,,,,,,,,
5ef6308c40846d2dfca0b66a,TCN,2024-06-24_15h32.56.564,LearnStrategy,2023.2.3,Win32,59.52380952,7,1,2,0.061331195,0.001944113,1,0,0,1.3978,rock_grid_rect_2,4,05,-1,-1,1.398,-0.104378819,-0.401684856,1,0,0,5.1624,Pegmatite_rect,6,5.162,0,1,0,1,0,1,,,,,,,,,,,,,
5ef6308c40846d2dfca0b66a,TCN,2024-06-24_15h32.56.564,LearnStrategy,2023.2.3,Win32,59.52380952,7,1,3,-0.0729032,0.012127412,1,0,0,1.2987,rock_grid_rect_2,2,12,-1,-1,1.299,0.422375463,-0.413719659,1,0,0,1.9955,Pumice_rect,8,1.995,0,2,0,2,0,1,,,,,,,,,,,,,
5ef6308c40846d2dfca0b66a,TCN,2024-06-24_15h32.56.564,LearnStrategy,2023.2.3,Win32,59.52380952,7,1,4,-0.094195519,-0.000833173,1,0,0,1.0489,rock_grid_rect_2,5,16,-1,-1,1.049,-0.415432341,-0.405387863,1,0,0,1.1788,Obsidian_rect,5,1.179,1,3,0,3,0,1,,,,,,,,,,,,,
5ef6308c40846d2dfca0b66a,TCN,2024-06-24_15h32.56.564,LearnStrategy,2023.2.3,Win32,59.52380952,7,1,5,-0.014580752,-0.023051275,1,0,0,1.0317,rock_grid_rect_2,1,11,-1,-1,1.032,-0.341371991,-0.244306576,1,0,0,2.2292,Andesite_rect,1,2.229,1,4,0,4,0,1,,,,,,,,,,,,,
5ef6308c40846d2dfca0b66a,TCN,2024-06-24_15h32.56.564,LearnStrategy,2023.2.3,Win32,59.52380952,7,1,6,-0.018283696,0.013978915,1,0,0,1.548,rock_grid_rect_2,6,06,-1,-1,1.548,-0.115487901,-0.394278719,1,0,0,3.8119,Pegmatite_rect,6,3.812,1,5,0,5,0,1,,,,,,,,,,,,,
5ef6308c40846d2dfca0b66a,TCN,2024-06-24_15h32.56.564,LearnStrategy,2023.2.3,Win32,59.52380952,7,1,7,0.027078291,0.008424374,1,0,0,1.2982,rock_grid_rect_2,8,08,-1,-1,1.298,0.389974,-0.25819282,1,0,0,3.6956,Gabbro_rect,4,3.696,0,6,0,6,0,1,,,,,,,,,,,,,
5ef6308c40846d2dfca0b66a,TCN,2024-06-24_15h32.56.564,LearnStrategy,2023.2.3,Win32,59.52380952,7,1,8,-0.054388105,-0.002684677,1,0,0,1.4975,rock_grid_rect_2,3,08,-1,-1,1.497,0.136317298,-0.245232359,1,0,0,1.3284,Diorite_rect,3,1.328,1,7,0,7,0,1,,,,,,,,,,,,,
5ef6308c40846d2dfca0b66a,TCN,2024-06-24_15h32.56.564,LearnStrategy,2023.2.3,Win32,59.52380952,7,1,9,0.122430992,0.009350126,1,0,0,1.1662,rock_grid_rect_2,8,16,-1,-1,1.166,0.401083144,-0.39798185,1,0,0,1.6115,Pumice_rect,8,1.611,1,8,0,8,0,1,,,,,,,,,,,,,
5ef6308c40846d2dfca0b66a,TCN,2024-06-24_15h32.56.564,LearnStrategy,2023.2.3,Win32,59.52380952,7,1,10,0.026152446,0.002869864,1,0,0,0.9653,rock_grid_rect_2,1,14,-1,-1,0.965,-0.373773392,-0.239677724,1,0,0,3.1452,Andesite_rect,1,3.145,1,9,0,9,0,1,,,,,,,,,,,,,
5ef6308c40846d2dfca0b66a,TCN,2024-06-24_15h32.56.564,LearnStrategy,2023.2.3,Win32,59.52380952,7,1,11,0.027078291,-0.011016473,1,0,0,1.0805,rock_grid_rect_2,2,16,-1,-1,1.081,0.359424102,-0.261895889,1,0,0,3.7969,Gabbro_rect,4,3.797,0,10,0,10,0,1,,,,,,,,,,,,,
5ef6308c40846d2dfca0b66a,TCN,2024-06-24_15h32.56.564,LearnStrategy,2023.2.3,Win32,59.52380952,7,1,12,-0.02568971,0.006572871,1,0,0,1.2319,rock_grid_rect_2,4,15,-1,-1,1.232,-0.077532052,-0.386872767,1,0,0,1.9457,Pegmatite_rect,6,1.946,0,11,0,11,0,1,,,,,,,,,,,,,
5ef6308c40846d2dfca0b66a,TCN,2024-06-24_15h32.56.564,LearnStrategy,2023.2.3,Win32,59.52380952,7,1,13,0.030781297,-0.010090721,1,0,0,1.2157,rock_grid_rect_2,7,08,-1,-1,1.216,0.154832393,-0.415571162,1,0,0,1.9446,Peridotite_rect,7,1.945,1,12,0,12,0,1,,,,,,,,,,,,,
5ef6308c40846d2dfca0b66a,TCN,2024-06-24_15h32.56.564,LearnStrategy,2023.2.3,Win32,59.52380952,7,1,14,0.050222175,-0.00453618,1,0,0,1.1152,rock_grid_rect_2,5,09,-1,-1,1.115,-0.353406793,-0.394278719,1,0,0,1.3452,Obsidian_rect,5,1.345,1,13,0,13,0,1,,,,,,,,,,,,,
5ef6308c40846d2dfca0b66a,TCN,2024-06-24_15h32.56.564,LearnStrategy,2023.2.3,Win32,59.52380952,7,1,15,0.002082902,0.010275878,1,0,0,1.0657,rock_grid_rect_2,3,06,-1,-1,1.066,0.141871808,-0.260970168,1,0,0,1.779,Diorite_rect,3,1.779,1,14,0,14,0,1,,,,,,,,,,,,,
5ef6308c40846d2dfca0b66a,TCN,2024-06-24_15h32.56.564,LearnStrategy,2023.2.3,Win32,59.52380952,7,1,16,0.026152446,-0.001758925,1,0,0,1.0651,rock_grid_rect_2,7,02,-1,-1,1.065,0.093732597,-0.400759073,1,0,0,1.5619,Peridotite_rect,7,1.562,1,15,0,15,0,1,,,,,,,,,,,,,
5ef6308c40846d2dfca0b66a,TCN,2024-06-24_15h32.56.564,LearnStrategy,2023.2.3,Win32,59.52380952,7,2,1,,,,,,,,4,12,,,,,,,,,,,3,5.612,0,,,,,,0.112247692,-0.262821671,1,0,0,5.612,Diorite_rect,0,0,0,0,1,
5ef6308c40846d2dfca0b66a,TCN,2024-06-24_15h32.56.564,LearnStrategy,2023.2.3,Win32,59.52380952,7,2,2,,,,,,,,3,12,,,,,,,,,,,6,2.695,0,,,,,,-0.110859111,-0.38779855,1,0,0,2.6945,Pegmatite_rect,1,0,1,0,1,
5ef6308c40846d2dfca0b66a,TCN,2024-06-24_15h32.56.564,LearnStrategy,2023.2.3,Win32,59.52380952,7,2,3,,,,,,,,7,13,,,,,,,,,,,7,1.279,1,,,,,,0.10021289,-0.392427215,1,0,0,1.2788,Peridotite_rect,2,0,2,0,1,
5ef6308c40846d2dfca0b66a,TCN,2024-06-24_15h32.56.564,LearnStrategy,2023.2.3,Win32,59.52380952,7,2,4,,,,,,,,6,08,,,,,,,,,,,1,3.545,0,,,,,,-0.376550647,-0.231345991,1,0,0,3.5453,Andesite_rect,3,0,3,0,1,
5ef6308c40846d2dfca0b66a,TCN,2024-06-24_15h32.56.564,LearnStrategy,2023.2.3,Win32,59.52380952,7,2,5,,,,,,,,8,05,,,,,,,,,,,8,1.528,1,,,,,,0.403860182,-0.406313583,1,0,0,1.5284,Pumice_rect,4,0,4,0,1,
5ef6308c40846d2dfca0b66a,TCN,2024-06-24_15h32.56.564,LearnStrategy,2023.2.3,Win32,59.52380952,7,2,6,,,,,,,,5,08,,,,,,,,,,,5,1.368,1,,,,,,-0.422838386,-0.399833353,1,0,0,1.3681,Obsidian_rect,5,0,5,0,1,
5ef6308c40846d2dfca0b66a,TCN,2024-06-24_15h32.56.564,LearnStrategy,2023.2.3,Win32,59.52380952,7,2,7,,,,,,,,3,11,,,,,,,,,,,3,4.165,1,,,,,,0.075217501,-0.260970168,1,0,0,4.1654,Diorite_rect,6,0,6,0,1,
5ef6308c40846d2dfca0b66a,TCN,2024-06-24_15h32.56.564,LearnStrategy,2023.2.3,Win32,59.52380952,7,2,8,,,,,,,,1,03,,,,,,,,,,,6,2.634,0,,,,,,-0.144186296,-0.39798185,1,0,0,2.634,Pegmatite_rect,7,0,7,0,1,
5ef6308c40846d2dfca0b66a,TCN,2024-06-24_15h32.56.564,LearnStrategy,2023.2.3,Win32,59.52380952,7,2,9,,,,,,,,1,10,,,,,,,,,,,6,2.867,0,,,,,,-0.143260513,-0.39890757,1,0,0,2.8674,Pegmatite_rect,8,0,8,0,1,
5ef6308c40846d2dfca0b66a,TCN,2024-06-24_15h32.56.564,LearnStrategy,2023.2.3,Win32,59.52380952,7,2,10,,,,,,,,7,07,,,,,,,,,,,7,2.284,1,,,,,,0.117802202,-0.405387863,1,0,0,2.2841,Peridotite_rect,9,0,9,0,1,
5ef6308c40846d2dfca0b66a,TCN,2024-06-24_15h32.56.564,LearnStrategy,2023.2.3,Win32,59.52380952,7,2,11,,,,,,,,8,10,,,,,,,,,,,8,1.195,1,,,,,,0.345537796,-0.404462018,1,0,0,1.1952,Pumice_rect,10,0,10,0,1,
5ef6308c40846d2dfca0b66a,TCN,2024-06-24_15h32.56.564,LearnStrategy,2023.2.3,Win32,59.52380952,7,2,12,,,,,,,,6,16,,,,,,,,,,,6,5.601,1,,,,,,-0.157146881,-0.395204563,1,0,0,5.6011,Pegmatite_rect,11,0,11,0,1,
5ef6308c40846d2dfca0b66a,TCN,2024-06-24_15h32.56.564,LearnStrategy,2023.2.3,Win32,59.52380952,7,2,13,,,,,,,,5,02,,,,,,,,,,,5,1.284,1,,,,,,-0.368218882,-0.384095419,1,0,0,1.284,Obsidian_rect,12,0,12,0,1,
5ef6308c40846d2dfca0b66a,TCN,2024-06-24_15h32.56.564,LearnStrategy,2023.2.3,Win32,59.52380952,7,2,14,,,,,,,,2,01,,,,,,,,,,,2,2.666,1,,,,,,-0.093269799,-0.243380855,1,0,0,2.6663,Basalt_rect,13,0,13,0,1,
5ef6308c40846d2dfca0b66a,TCN,2024-06-24_15h32.56.564,LearnStrategy,2023.2.3,Win32,59.52380952,7,2,15,,,,,,,,4,09,,,,,,,,,,,4,2.594,1,,,,,,0.388122559,-0.24152929,1,0,0,2.5943,Gabbro_rect,14,0,14,0,1,
5ef6308c40846d2dfca0b66a,TCN,2024-06-24_15h32.56.564,LearnStrategy,2023.2.3,Win32,59.52380952,7,2,16,,,,,,,,2,04,,,,,,,,,,,4,2.678,0,,,,,,0.460331375,-0.239677724,1,0,0,2.6775,Gabbro_rect,15,0,15,0,1,
5ef6308c40846d2dfca0b66a,TCN,2024-06-24_15h32.56.564,LearnStrategy,2023.2.3,Win32,59.52380952,8,1,1,0.024300942,-0.012867976,1,0,0,2.4652,rock_grid_rect_2,7,12,-1,-1,2.465,0.117802202,-0.401684856,1,0,0,2.2121,Peridotite_rect,7,2.212,1,0,0,0,0,1,,,,,,,,,,,,,
5ef6308c40846d2dfca0b66a,TCN,2024-06-24_15h32.56.564,LearnStrategy,2023.2.3,Win32,59.52380952,8,1,2,-0.02106092,-0.020273989,1,0,0,1.3982,rock_grid_rect_2,6,11,-1,-1,1.398,-0.366367379,-0.246158079,1,0,0,4.6621,Andesite_rect,1,4.662,0,1,0,1,0,1,,,,,,,,,,,,,
5ef6308c40846d2dfca0b66a,TCN,2024-06-24_15h32.56.564,LearnStrategy,2023.2.3,Win32,59.52380952,8,1,3,0.051147896,-0.001758925,1,0,0,1.0318,rock_grid_rect_2,1,09,-1,-1,1.032,0.372384687,-0.237826221,1,0,0,1.8619,Gabbro_rect,4,1.862,0,2,0,2,0,1,,,,,,,,,,,,,
5ef6308c40846d2dfca0b66a,TCN,2024-06-24_15h32.56.564,LearnStrategy,2023.2.3,Win32,59.52380952,8,1,4,-0.082160717,0.001018361,1,0,0,1.1312,rock_grid_rect_2,2,10,-1,-1,1.131,-0.113636398,-0.247083862,1,0,0,1.7951,Basalt_rect,2,1.795,1,3,0,3,0,1,,,,,,,,,,,,,
5ef6308c40846d2dfca0b66a,TCN,2024-06-24_15h32.56.564,LearnStrategy,2023.2.3,Win32,59.52380952,8,1,5,0.009488978,-0.016570983,1,0,0,1.2318,rock_grid_rect_2,4,08,-1,-1,1.232,0.361275667,-0.265598958,1,0,0,2.1782,Gabbro_rect,4,2.178,1,4,0,4,0,1,,,,,,,,,,,,,
5ef6308c40846d2dfca0b66a,TCN,2024-06-24_15h32.56.564,LearnStrategy,2023.2.3,Win32,59.52380952,8,1,6,-0.028466996,-0.013793728,1,0,0,1.1583,rock_grid_rect_2,3,13,-1,-1,1.158,-0.369144634,-0.260044323,1,0,0,1.9449,Andesite_rect,1,1.945,0,5,0,5,0,1,,,,,,,,,,,,,
5ef6308c40846d2dfca0b66a,TCN,2024-06-24_15h32.56.564,LearnStrategy,2023.2.3,Win32,59.52380952,8,1,7,0.123356774,-0.014719479,1,0,0,1.2487,rock_grid_rect_2,5,10,-1,-1,1.249,-0.352481011,-0.388724271,1,0,0,1.5788,Obsidian_rect,5,1.579,1,6,0,6,0,1,,,,,,,,,,,,,
5ef6308c40846d2dfca0b66a,TCN,2024-06-24_15h32.56.564,LearnStrategy,2023.2.3,Win32,59.52380952,8,1,8,0.178901999,0.003795616,1,0,0,1.3825,rock_grid_rect_2,6,15,-1,-1,1.383,-0.3672931,-0.24800952,1,0,0,2.0618,Andesite_rect,1,2.062,0,7,0,7,0,1,,,,,,,,,,,,,
5ef6308c40846d2dfca0b66a,TCN,2024-06-24_15h32.56.564,LearnStrategy,2023.2.3,Win32,59.52380952,8,1,9,0.0428161,-0.002684677,1,0,0,1.0825,rock_grid_rect_2,8,15,-1,-1,1.082,0.407563312,-0.38779855,1,0,0,1.212,Pumice_rect,8,1.212,1,8,0,8,0,1,,,,,,,,,,,,,
5ef6308c40846d2dfca0b66a,TCN,2024-06-24_15h32.56.564,LearnStrategy,2023.2.3,Win32,59.52380952,8,1,10,0.016894991,0.005647119,1,0,0,1.1486,rock_grid_rect_2,8,02,-1,-1,1.149,0.359424102,-0.38779855,1,0,0,2.1621,Pumice_rect,8,2.162,1,9,0,9,0,1,,,,,,,,,,,,,
5ef6308c40846d2dfca0b66a,TCN,2024-06-24_15h32.56.564,LearnStrategy,2023.2.3,Win32,59.52380952,8,1,11,-0.035873009,-0.012867976,1,0,0,1.6319,rock_grid_rect_2,1,16,-1,-1,1.632,0.112247692,-0.245232359,1,0,0,2.0782,Diorite_rect,3,2.078,0,10,0,10,0,1,,,,,,,,,,,,,
5ef6308c40846d2dfca0b66a,TCN,2024-06-24_15h32.56.564,LearnStrategy,2023.2.3,Win32,59.52380952,8,1,12,0.033558583,-0.015645231,1,0,0,1.2817,rock_grid_rect_2,7,15,-1,-1,1.282,0.090955373,-0.417422666,1,0,0,1.428,Peridotite_rect,7,1.428,1,11,0,11,0,1,,,,,,,,,,,,,
5ef6308c40846d2dfca0b66a,TCN,2024-06-24_15h32.56.564,LearnStrategy,2023.2.3,Win32,59.52380952,8,1,13,-0.016432255,-0.001758925,1,0,0,1.2493,rock_grid_rect_2,2,05,-1,-1,1.249,-0.111784894,-0.23042027,1,0,0,1.8283,Basalt_rect,2,1.828,1,12,0,12,0,1,,,,,,,,,,,,,
5ef6308c40846d2dfca0b66a,TCN,2024-06-24_15h32.56.564,LearnStrategy,2023.2.3,Win32,59.52380952,8,1,14,-0.027541213,-0.014719479,1,0,0,2.7324,rock_grid_rect_2,3,14,-1,-1,2.732,0.130762788,-0.260044323,1,0,0,3.0282,Diorite_rect,3,3.028,1,13,0,13,0,1,,,,,,,,,,,,,
5ef6308c40846d2dfca0b66a,TCN,2024-06-24_15h32.56.564,LearnStrategy,2023.2.3,Win32,59.52380952,8,1,15,0.083549298,0.006572871,1,0,0,1.0152,rock_grid_rect_2,5,14,-1,-1,1.015,-0.370070386,-0.396130284,1,0,0,1.2785,Obsidian_rect,5,1.279,1,14,0,14,0,1,,,,,,,,,,,,,
5ef6308c40846d2dfca0b66a,TCN,2024-06-24_15h32.56.564,LearnStrategy,2023.2.3,Win32,59.52380952,8,1,16,0.086326584,-0.005461932,1,0,0,1.0489,rock_grid_rect_2,4,16,-1,-1,1.049,-0.10808195,-0.248935365,1,0,0,1.779,Basalt_rect,2,1.779,0,15,0,15,0,1,,,,,,,,,,,,,
5ef6308c40846d2dfca0b66a,TCN,2024-06-24_15h32.56.564,LearnStrategy,2023.2.3,Win32,59.52380952,8,2,1,,,,,,,,3,15,,,,,,,,,,,3,3.132,1,,,,,,0.08447508,-0.259118665,1,0,0,3.1322,Diorite_rect,0,0,0,0,1,
5ef6308c40846d2dfca0b66a,TCN,2024-06-24_15h32.56.564,LearnStrategy,2023.2.3,Win32,59.52380952,8,2,2,,,,,,,,5,12,,,,,,,,,,,5,5.685,1,,,,,,-0.415432341,-0.402610515,1,0,0,5.6854,Obsidian_rect,1,0,1,0,1,
5ef6308c40846d2dfca0b66a,TCN,2024-06-24_15h32.56.564,LearnStrategy,2023.2.3,Win32,59.52380952,8,2,3,,,,,,,,4,01,,,,,,,,,,,1,4.583,0,,,,,,-0.35155529,-0.229494425,1,0,0,4.583,Andesite_rect,2,0,2,0,1,
5ef6308c40846d2dfca0b66a,TCN,2024-06-24_15h32.56.564,LearnStrategy,2023.2.3,Win32,59.52380952,8,2,4,,,,,,,,7,04,,,,,,,,,,,6,8.785,0,,,,,,-0.07845771,-0.406313583,1,0,0,8.7847,Pegmatite_rect,3,0,3,0,1,
5ef6308c40846d2dfca0b66a,TCN,2024-06-24_15h32.56.564,LearnStrategy,2023.2.3,Win32,59.52380952,8,2,5,,,,,,,,5,07,,,,,,,,,,,5,1.167,1,,,,,,-0.365441596,-0.385021264,1,0,0,1.1671,Obsidian_rect,4,0,4,0,1,
5ef6308c40846d2dfca0b66a,TCN,2024-06-24_15h32.56.564,LearnStrategy,2023.2.3,Win32,59.52380952,8,2,6,,,,,,,,6,13,,,,,,,,,,,1,3.184,0,,,,,,-0.348778004,-0.232271773,1,0,0,3.1843,Andesite_rect,5,0,5,0,1,
5ef6308c40846d2dfca0b66a,TCN,2024-06-24_15h32.56.564,LearnStrategy,2023.2.3,Win32,59.52380952,8,2,7,,,,,,,,2,08,,,,,,,,,,,2,1.683,1,,,,,,-0.14140901,-0.234123277,1,0,0,1.6834,Basalt_rect,6,0,6,0,1,
5ef6308c40846d2dfca0b66a,TCN,2024-06-24_15h32.56.564,LearnStrategy,2023.2.3,Win32,59.52380952,8,2,8,,,,,,,,2,14,,,,,,,,,,,4,3.284,0,,,,,,0.365904394,-0.253564155,1,0,0,3.2842,Gabbro_rect,7,0,7,0,1,
5ef6308c40846d2dfca0b66a,TCN,2024-06-24_15h32.56.564,LearnStrategy,2023.2.3,Win32,59.52380952,8,2,9,,,,,,,,1,07,,,,,,,,,,,3,1.384,0,,,,,,0.10021289,-0.260044323,1,0,0,1.3841,Diorite_rect,8,0,8,0,1,
5ef6308c40846d2dfca0b66a,TCN,2024-06-24_15h32.56.564,LearnStrategy,2023.2.3,Win32,59.52380952,8,2,10,,,,,,,,6,10,,,,,,,,,,,7,1.767,0,,,,,,0.098361386,-0.416496883,1,0,0,1.7674,Peridotite_rect,9,0,9,0,1,
5ef6308c40846d2dfca0b66a,TCN,2024-06-24_15h32.56.564,LearnStrategy,2023.2.3,Win32,59.52380952,8,2,11,,,,,,,,3,09,,,,,,,,,,,3,1.433,1,,,,,,0.111321972,-0.259118665,1,0,0,1.4334,Diorite_rect,10,0,10,0,1,
5ef6308c40846d2dfca0b66a,TCN,2024-06-24_15h32.56.564,LearnStrategy,2023.2.3,Win32,59.52380952,8,2,12,,,,,,,,8,06,,,,,,,,,,,8,1.201,1,,,,,,0.349240802,-0.400759073,1,0,0,1.2006,Pumice_rect,11,0,11,0,1,
5ef6308c40846d2dfca0b66a,TCN,2024-06-24_15h32.56.564,LearnStrategy,2023.2.3,Win32,59.52380952,8,2,13,,,,,,,,7,06,,,,,,,,,,,7,1.768,1,,,,,,0.074291781,-0.391501557,1,0,0,1.7683,Peridotite_rect,12,0,12,0,1,
5ef6308c40846d2dfca0b66a,TCN,2024-06-24_15h32.56.564,LearnStrategy,2023.2.3,Win32,59.52380952,8,2,14,,,,,,,,1,02,,,,,,,,,,,1,3.519,1,,,,,,-0.371921889,-0.256341379,1,0,0,3.5194,Andesite_rect,13,0,13,0,1,
5ef6308c40846d2dfca0b66a,TCN,2024-06-24_15h32.56.564,LearnStrategy,2023.2.3,Win32,59.52380952,8,2,15,,,,,,,,8,14,,,,,,,,,,,8,1.232,1,,,,,,0.372384687,-0.408165149,1,0,0,1.2324,Pumice_rect,14,0,14,0,1,
5ef6308c40846d2dfca0b66a,TCN,2024-06-24_15h32.56.564,LearnStrategy,2023.2.3,Win32,59.52380952,8,2,16,,,,,,,,4,10,,,,,,,,,,,4,2.984,1,,,,,,0.354795374,-0.251712589,1,0,0,2.984,Gabbro_rect,15,0,15,0,1,
5ef6308c40846d2dfca0b66a,TCN,2024-06-24_15h32.56.564,LearnStrategy,2023.2.3,Win32,59.52380952,9,1,1,0.013191985,-0.008239187,1,0,0,2.8994,rock_grid_rect_2,5,11,-1,-1,2.899,-0.354332576,-0.40909087,1,0,0,1.8781,Obsidian_rect,5,1.878,1,0,0,0,0,1,,,,,,,,,,,,,
5ef6308c40846d2dfca0b66a,TCN,2024-06-24_15h32.56.564,LearnStrategy,2023.2.3,Win32,59.52380952,9,1,2,0.012266202,0.010275878,1,0,0,2.5486,rock_grid_rect_2,1,04,-1,-1,2.549,0.131688571,-0.240603569,1,0,0,1.8953,Diorite_rect,3,1.895,0,1,0,1,0,1,,,,,,,,,,,,,
5ef6308c40846d2dfca0b66a,TCN,2024-06-24_15h32.56.564,LearnStrategy,2023.2.3,Win32,59.52380952,9,1,3,-0.023838206,-0.00453618,1,0,0,2.3643,rock_grid_rect_2,7,10,-1,-1,2.364,0.181679285,-0.402610515,1,0,0,2.0789,Peridotite_rect,7,2.079,1,2,0,2,0,1,,,,,,,,,,,,,
5ef6308c40846d2dfca0b66a,TCN,2024-06-24_15h32.56.564,LearnStrategy,2023.2.3,Win32,59.52380952,9,1,4,0.002082902,-0.012867976,1,0,0,2.3989,rock_grid_rect_2,7,14,-1,-1,2.399,-0.324708399,-0.265598958,1,0,0,3.5117,Andesite_rect,1,3.512,0,3,0,3,0,1,,,,,,,,,,,,,
5ef6308c40846d2dfca0b66a,TCN,2024-06-24_15h32.56.564,LearnStrategy,2023.2.3,Win32,59.52380952,9,1,5,0.0955841,-0.016570983,1,0,0,1.9482,rock_grid_rect_2,4,13,-1,-1,1.948,0.133540074,-0.252638372,1,0,0,2.3797,Diorite_rect,3,2.38,0,4,0,4,0,1,,,,,,,,,,,,,
5ef6308c40846d2dfca0b66a,TCN,2024-06-24_15h32.56.564,LearnStrategy,2023.2.3,Win32,59.52380952,9,1,6,0.09002959,-0.009164938,1,0,0,1.0488,rock_grid_rect_2,6,07,-1,-1,1.049,-0.34600078,-0.261895889,1,0,0,3.2777,Andesite_rect,1,3.278,0,5,0,5,0,1,,,,,,,,,,,,,
5ef6308c40846d2dfca0b66a,TCN,2024-06-24_15h32.56.564,LearnStrategy,2023.2.3,Win32,59.52380952,9,1,7,-0.037724512,0.007498623,1,0,0,1.1815,rock_grid_rect_2,8,13,-1,-1,1.182,0.42607847,-0.39798185,1,0,0,1.6118,Pumice_rect,8,1.612,1,6,0,6,0,1,,,,,,,,,,,,,
5ef6308c40846d2dfca0b66a,TCN,2024-06-24_15h32.56.564,LearnStrategy,2023.2.3,Win32,59.52380952,9,1,8,0.009488978,-0.011016473,1,0,0,1.4995,rock_grid_rect_2,8,04,-1,-1,1.5,0.415895171,-0.406313583,1,0,0,3.5494,Pumice_rect,8,3.549,1,7,0,7,0,1,,,,,,,,,,,,,
5ef6308c40846d2dfca0b66a,TCN,2024-06-24_15h32.56.564,LearnStrategy,2023.2.3,Win32,59.52380952,9,1,9,-0.066422907,-0.012867976,1,0,0,1.4834,rock_grid_rect_2,3,10,-1,-1,1.483,0.122430992,-0.240603569,1,0,0,1.4646,Diorite_rect,3,1.465,1,8,0,8,0,1,,,,,,,,,,,,,
5ef6308c40846d2dfca0b66a,TCN,2024-06-24_15h32.56.564,LearnStrategy,2023.2.3,Win32,59.52380952,9,1,10,0.044667541,-0.011016473,1,0,0,3.8835,rock_grid_rect_2,5,05,-1,-1,3.884,-0.342297711,-0.39798185,1,0,0,1.7466,Obsidian_rect,5,1.747,1,9,0,9,0,1,,,,,,,,,,,,,
5ef6308c40846d2dfca0b66a,TCN,2024-06-24_15h32.56.564,LearnStrategy,2023.2.3,Win32,59.52380952,9,1,11,0.028004011,-0.013793728,1,0,0,1.3019,rock_grid_rect_2,2,09,-1,-1,1.302,-0.096972805,-0.259118665,1,0,0,3.0798,Basalt_rect,2,3.08,1,10,0,10,0,1,,,,,,,,,,,,,
5ef6308c40846d2dfca0b66a,TCN,2024-06-24_15h32.56.564,LearnStrategy,2023.2.3,Win32,59.52380952,9,1,12,0.134465794,-0.010090721,1,0,0,1.3012,rock_grid_rect_2,6,09,-1,-1,1.301,0.103915896,-0.410016652,1,0,0,1.6012,Peridotite_rect,7,1.601,0,11,0,11,0,1,,,,,,,,,,,,,
5ef6308c40846d2dfca0b66a,TCN,2024-06-24_15h32.56.564,LearnStrategy,2023.2.3,Win32,59.52380952,9,1,13,0.003008685,-0.00453618,1,0,0,1.2013,rock_grid_rect_2,1,06,-1,-1,1.201,-0.345074997,-0.253564155,1,0,0,2.7478,Andesite_rect,1,2.748,1,12,0,12,0,1,,,,,,,,,,,,,
5ef6308c40846d2dfca0b66a,TCN,2024-06-24_15h32.56.564,LearnStrategy,2023.2.3,Win32,59.52380952,9,1,14,0.068737209,-0.011016473,1,0,0,1.1674,rock_grid_rect_2,2,06,-1,-1,1.167,-0.080309213,-0.257267161,1,0,0,3.0987,Basalt_rect,2,3.099,1,13,0,13,0,1,,,,,,,,,,,,,
5ef6308c40846d2dfca0b66a,TCN,2024-06-24_15h32.56.564,LearnStrategy,2023.2.3,Win32,59.52380952,9,1,15,0.066885705,-0.008239187,1,0,0,1.1999,rock_grid_rect_2,3,16,-1,-1,1.2,-0.35155529,-0.232271773,1,0,0,2.4139,Andesite_rect,1,2.414,0,14,0,14,0,1,,,,,,,,,,,,,
5ef6308c40846d2dfca0b66a,TCN,2024-06-24_15h32.56.564,LearnStrategy,2023.2.3,Win32,59.52380952,9,1,16,0.050222175,-0.020273989,1,0,0,1.0509,rock_grid_rect_2,4,03,-1,-1,1.051,-0.338594705,-0.249861024,1,0,0,2.2147,Andesite_rect,1,2.215,0,15,0,15,0,1,,,,,,,,,,,,,
5ef6308c40846d2dfca0b66a,TCN,2024-06-24_15h32.56.564,LearnStrategy,2023.2.3,Win32,59.52380952,9,2,1,,,,,,,,5,06,,,,,,,,,,,5,1.515,1,,,,,,-0.365441596,-0.39798185,1,0,0,1.5148,Obsidian_rect,0,0,0,0,1,
5ef6308c40846d2dfca0b66a,TCN,2024-06-24_15h32.56.564,LearnStrategy,2023.2.3,Win32,59.52380952,9,2,2,,,,,,,,4,14,,,,,,,,,,,3,3.616,0,,,,,,0.178901999,-0.24800952,1,0,0,3.6159,Diorite_rect,1,0,1,0,1,
5ef6308c40846d2dfca0b66a,TCN,2024-06-24_15h32.56.564,LearnStrategy,2023.2.3,Win32,59.52380952,9,2,3,,,,,,,,7,16,,,,,,,,,,,7,1.799,1,,,,,,0.140946087,-0.414645317,1,0,0,1.7993,Peridotite_rect,2,0,2,0,1,
5ef6308c40846d2dfca0b66a,TCN,2024-06-24_15h32.56.564,LearnStrategy,2023.2.3,Win32,59.52380952,9,2,4,,,,,,,,8,03,,,,,,,,,,,8,1.366,1,,,,,,0.3797907,-0.395204563,1,0,0,1.3657,Pumice_rect,3,0,3,0,1,
5ef6308c40846d2dfca0b66a,TCN,2024-06-24_15h32.56.564,LearnStrategy,2023.2.3,Win32,59.52380952,9,2,5,,,,,,,,1,05,,,,,,,,,,,1,4.933,1,,,,,,-0.355258297,-0.254489875,1,0,0,4.9332,Andesite_rect,4,0,4,0,1,
5ef6308c40846d2dfca0b66a,TCN,2024-06-24_15h32.56.564,LearnStrategy,2023.2.3,Win32,59.52380952,9,2,6,,,,,,,,3,07,,,,,,,,,,,6,6.884,0,,,,,,-0.146037799,-0.402610515,1,0,0,6.8841,Pegmatite_rect,5,0,5,0,1,
5ef6308c40846d2dfca0b66a,TCN,2024-06-24_15h32.56.564,LearnStrategy,2023.2.3,Win32,59.52380952,9,2,7,,,,,,,,4,11,,,,,,,,,,,4,3.052,1,,,,,,0.327948483,-0.229494425,1,0,0,3.0515,Gabbro_rect,6,0,6,0,1,
5ef6308c40846d2dfca0b66a,TCN,2024-06-24_15h32.56.564,LearnStrategy,2023.2.3,Win32,59.52380952,9,2,8,,,,,,,,6,03,,,,,,,,,,,6,3.419,1,,,,,,-0.130300052,-0.39798185,1,0,0,3.4191,Pegmatite_rect,7,0,7,0,1,
5ef6308c40846d2dfca0b66a,TCN,2024-06-24_15h32.56.564,LearnStrategy,2023.2.3,Win32,59.52380952,9,2,9,,,,,,,,5,04,,,,,,,,,,,5,3.018,1,,,,,,-0.444130736,-0.405387863,1,0,0,3.0176,Obsidian_rect,8,0,8,0,1,
5ef6308c40846d2dfca0b66a,TCN,2024-06-24_15h32.56.564,LearnStrategy,2023.2.3,Win32,59.52380952,9,2,10,,,,,,,,2,11,,,,,,,,,,,4,22.067,0,,,,,,0.422375463,-0.243380855,1,0,0,22.0675,Gabbro_rect,9,0,9,0,1,
5ef6308c40846d2dfca0b66a,TCN,2024-06-24_15h32.56.564,LearnStrategy,2023.2.3,Win32,59.52380952,9,2,11,,,,,,,,8,09,,,,,,,,,,,8,1.984,1,,,,,,0.417746612,-0.406313583,1,0,0,1.9837,Pumice_rect,10,0,10,0,1,
5ef6308c40846d2dfca0b66a,TCN,2024-06-24_15h32.56.564,LearnStrategy,2023.2.3,Win32,59.52380952,9,2,12,,,,,,,,7,05,,,,,,,,,,,7,4.183,1,,,,,,0.086326584,-0.415571162,1,0,0,4.1834,Peridotite_rect,11,0,11,0,1,
5ef6308c40846d2dfca0b66a,TCN,2024-06-24_15h32.56.564,LearnStrategy,2023.2.3,Win32,59.52380952,9,2,13,,,,,,,,2,02,,,,,,,,,,,2,1.267,1,,,,,,-0.085863785,-0.251712589,1,0,0,1.2674,Basalt_rect,12,0,12,0,1,
5ef6308c40846d2dfca0b66a,TCN,2024-06-24_15h32.56.564,LearnStrategy,2023.2.3,Win32,59.52380952,9,2,14,,,,,,,,1,01,,,,,,,,,,,3,4.001,0,,,,,,0.083549298,-0.254489875,1,0,0,4.0006,Diorite_rect,13,0,13,0,1,
5ef6308c40846d2dfca0b66a,TCN,2024-06-24_15h32.56.564,LearnStrategy,2023.2.3,Win32,59.52380952,9,2,15,,,,,,,,6,12,,,,,,,,,,,6,2.835,1,,,,,,-0.128448548,-0.411868156,1,0,0,2.8352,Pegmatite_rect,14,0,14,0,1,
5ef6308c40846d2dfca0b66a,TCN,2024-06-24_15h32.56.564,LearnStrategy,2023.2.3,Win32,59.52380952,9,2,16,,,,,,,,3,02,,,,,,,,,,,3,1.836,1,,,,,,0.114099196,-0.244306576,1,0,0,1.8357,Diorite_rect,15,0,15,0,1,
5ef6308c40846d2dfca0b66a,TCN,2024-06-24_15h32.56.564,LearnStrategy,2023.2.3,Win32,59.52380952,,,,,,,,,,,,,,,,,,,,,,,,,,,,,,,,,,,,,,,,,,,1
5ef6308c40846d2dfca0b66a,TCN,2024-06-24_15h32.56.564,LearnStrategy,2023.2.3,Win32,59.52380952,,,,,,,,,,,,,,,,,,,,,,,,,,,,,,,,,,,,,,,,,,,
5ef6308c40846d2dfca0b66a,TCN,2024-06-24_15h32.56.564,LearnStrategy,2023.2.3,Win32,59.52380952,,,,,,,,,,,1,06,1,1,,,,,,,,,,,,,,,,,,,,,,,,,,,,,
5ef6308c40846d2dfca0b66a,TCN,2024-06-24_15h32.56.564,LearnStrategy,2023.2.3,Win32,59.52380952,,,,,,,,,,,3,08,1,2,,,,,,,,,,,,,,,,,,,,,,,,,,,,,
5ef6308c40846d2dfca0b66a,TCN,2024-06-24_15h32.56.564,LearnStrategy,2023.2.3,Win32,59.52380952,,,,,,,,,,,8,15,1,3,,,,,,,,,,,,,,,,,,,,,,,,,,,,,
5ef6308c40846d2dfca0b66a,TCN,2024-06-24_15h32.56.564,LearnStrategy,2023.2.3,Win32,59.52380952,,,,,,,,,,,7,10,1,4,,,,,,,,,,,,,,,,,,,,,,,,,,,,,
5ef6308c40846d2dfca0b66a,TCN,2024-06-24_15h32.56.564,LearnStrategy,2023.2.3,Win32,59.52380952,,,,,,,,,,,7,08,1,5,,,,,,,,,,,,,,,,,,,,,,,,,,,,,
5ef6308c40846d2dfca0b66a,TCN,2024-06-24_15h32.56.564,LearnStrategy,2023.2.3,Win32,59.52380952,,,,,,,,,,,5,05,1,6,,,,,,,,,,,,,,,,,,,,,,,,,,,,,
5ef6308c40846d2dfca0b66a,TCN,2024-06-24_15h32.56.564,LearnStrategy,2023.2.3,Win32,59.52380952,,,,,,,,,,,3,16,1,7,,,,,,,,,,,,,,,,,,,,,,,,,,,,,
5ef6308c40846d2dfca0b66a,TCN,2024-06-24_15h32.56.564,LearnStrategy,2023.2.3,Win32,59.52380952,,,,,,,,,,,7,15,1,8,,,,,,,,,,,,,,,,,,,,,,,,,,,,,
5ef6308c40846d2dfca0b66a,TCN,2024-06-24_15h32.56.564,LearnStrategy,2023.2.3,Win32,59.52380952,,,,,,,,,,,7,14,2,1,,,,,,,,,,,,,,,,,,,,,,,,,,,,,
5ef6308c40846d2dfca0b66a,TCN,2024-06-24_15h32.56.564,LearnStrategy,2023.2.3,Win32,59.52380952,,,,,,,,,,,8,16,2,2,,,,,,,,,,,,,,,,,,,,,,,,,,,,,
5ef6308c40846d2dfca0b66a,TCN,2024-06-24_15h32.56.564,LearnStrategy,2023.2.3,Win32,59.52380952,,,,,,,,,,,2,05,2,3,,,,,,,,,,,,,,,,,,,,,,,,,,,,,
5ef6308c40846d2dfca0b66a,TCN,2024-06-24_15h32.56.564,LearnStrategy,2023.2.3,Win32,59.52380952,,,,,,,,,,,8,02,2,4,,,,,,,,,,,,,,,,,,,,,,,,,,,,,
5ef6308c40846d2dfca0b66a,TCN,2024-06-24_15h32.56.564,LearnStrategy,2023.2.3,Win32,59.52380952,,,,,,,,,,,3,06,2,5,,,,,,,,,,,,,,,,,,,,,,,,,,,,,
5ef6308c40846d2dfca0b66a,TCN,2024-06-24_15h32.56.564,LearnStrategy,2023.2.3,Win32,59.52380952,,,,,,,,,,,4,13,2,6,,,,,,,,,,,,,,,,,,,,,,,,,,,,,
5ef6308c40846d2dfca0b66a,TCN,2024-06-24_15h32.56.564,LearnStrategy,2023.2.3,Win32,59.52380952,,,,,,,,,,,8,08,2,7,,,,,,,,,,,,,,,,,,,,,,,,,,,,,
5ef6308c40846d2dfca0b66a,TCN,2024-06-24_15h32.56.564,LearnStrategy,2023.2.3,Win32,59.52380952,,,,,,,,,,,4,05,2,8,,,,,,,,,,,,,,,,,,,,,,,,,,,,,
5ef6308c40846d2dfca0b66a,TCN,2024-06-24_15h32.56.564,LearnStrategy,2023.2.3,Win32,59.52380952,,,,,,,,,,,6,09,3,1,,,,,,,,,,,,,,,,,,,,,,,,,,,,,
5ef6308c40846d2dfca0b66a,TCN,2024-06-24_15h32.56.564,LearnStrategy,2023.2.3,Win32,59.52380952,,,,,,,,,,,5,11,3,2,,,,,,,,,,,,,,,,,,,,,,,,,,,,,
5ef6308c40846d2dfca0b66a,TCN,2024-06-24_15h32.56.564,LearnStrategy,2023.2.3,Win32,59.52380952,,,,,,,,,,,4,15,3,3,,,,,,,,,,,,,,,,,,,,,,,,,,,,,
5ef6308c40846d2dfca0b66a,TCN,2024-06-24_15h32.56.564,LearnStrategy,2023.2.3,Win32,59.52380952,,,,,,,,,,,5,16,3,4,,,,,,,,,,,,,,,,,,,,,,,,,,,,,
5ef6308c40846d2dfca0b66a,TCN,2024-06-24_15h32.56.564,LearnStrategy,2023.2.3,Win32,59.52380952,,,,,,,,,,,3,10,3,5,,,,,,,,,,,,,,,,,,,,,,,,,,,,,
5ef6308c40846d2dfca0b66a,TCN,2024-06-24_15h32.56.564,LearnStrategy,2023.2.3,Win32,59.52380952,,,,,,,,,,,3,13,3,6,,,,,,,,,,,,,,,,,,,,,,,,,,,,,
5ef6308c40846d2dfca0b66a,TCN,2024-06-24_15h32.56.564,LearnStrategy,2023.2.3,Win32,59.52380952,,,,,,,,,,,1,11,3,7,,,,,,,,,,,,,,,,,,,,,,,,,,,,,
5ef6308c40846d2dfca0b66a,TCN,2024-06-24_15h32.56.564,LearnStrategy,2023.2.3,Win32,59.52380952,,,,,,,,,,,4,16,3,8,,,,,,,,,,,,,,,,,,,,,,,,,,,,,
5ef6308c40846d2dfca0b66a,TCN,2024-06-24_15h32.56.564,LearnStrategy,2023.2.3,Win32,59.52380952,,,,,,,,,,,6,05,4,1,,,,,,,,,,,,,,,,,,,,,,,,,,,,,
5ef6308c40846d2dfca0b66a,TCN,2024-06-24_15h32.56.564,LearnStrategy,2023.2.3,Win32,59.52380952,,,,,,,,,,,2,10,4,2,,,,,,,,,,,,,,,,,,,,,,,,,,,,,
5ef6308c40846d2dfca0b66a,TCN,2024-06-24_15h32.56.564,LearnStrategy,2023.2.3,Win32,59.52380952,,,,,,,,,,,6,11,4,3,,,,,,,,,,,,,,,,,,,,,,,,,,,,,
5ef6308c40846d2dfca0b66a,TCN,2024-06-24_15h32.56.564,LearnStrategy,2023.2.3,Win32,59.52380952,,,,,,,,,,,2,06,4,4,,,,,,,,,,,,,,,,,,,,,,,,,,,,,
5ef6308c40846d2dfca0b66a,TCN,2024-06-24_15h32.56.564,LearnStrategy,2023.2.3,Win32,59.52380952,,,,,,,,,,,4,08,4,5,,,,,,,,,,,,,,,,,,,,,,,,,,,,,
5ef6308c40846d2dfca0b66a,TCN,2024-06-24_15h32.56.564,LearnStrategy,2023.2.3,Win32,59.52380952,,,,,,,,,,,1,16,4,6,,,,,,,,,,,,,,,,,,,,,,,,,,,,,
5ef6308c40846d2dfca0b66a,TCN,2024-06-24_15h32.56.564,LearnStrategy,2023.2.3,Win32,59.52380952,,,,,,,,,,,2,12,4,7,,,,,,,,,,,,,,,,,,,,,,,,,,,,,
5ef6308c40846d2dfca0b66a,TCN,2024-06-24_15h32.56.564,LearnStrategy,2023.2.3,Win32,59.52380952,,,,,,,,,,,6,15,4,8,,,,,,,,,,,,,,,,,,,,,,,,,,,,,
5ef6308c40846d2dfca0b66a,TCN,2024-06-24_15h32.56.564,LearnStrategy,2023.2.3,Win32,59.52380952,,,,,,,,,,,7,02,5,1,,,,,,,,,,,,,,,,,,,,,,,,,,,,,
5ef6308c40846d2dfca0b66a,TCN,2024-06-24_15h32.56.564,LearnStrategy,2023.2.3,Win32,59.52380952,,,,,,,,,,,1,09,5,2,,,,,,,,,,,,,,,,,,,,,,,,,,,,,
5ef6308c40846d2dfca0b66a,TCN,2024-06-24_15h32.56.564,LearnStrategy,2023.2.3,Win32,59.52380952,,,,,,,,,,,1,04,5,3,,,,,,,,,,,,,,,,,,,,,,,,,,,,,
5ef6308c40846d2dfca0b66a,TCN,2024-06-24_15h32.56.564,LearnStrategy,2023.2.3,Win32,59.52380952,,,,,,,,,,,8,04,5,4,,,,,,,,,,,,,,,,,,,,,,,,,,,,,
5ef6308c40846d2dfca0b66a,TCN,2024-06-24_15h32.56.564,LearnStrategy,2023.2.3,Win32,59.52380952,,,,,,,,,,,3,14,5,5,,,,,,,,,,,,,,,,,,,,,,,,,,,,,
5ef6308c40846d2dfca0b66a,TCN,2024-06-24_15h32.56.564,LearnStrategy,2023.2.3,Win32,59.52380952,,,,,,,,,,,2,09,5,6,,,,,,,,,,,,,,,,,,,,,,,,,,,,,
5ef6308c40846d2dfca0b66a,TCN,2024-06-24_15h32.56.564,LearnStrategy,2023.2.3,Win32,59.52380952,,,,,,,,,,,5,14,5,7,,,,,,,,,,,,,,,,,,,,,,,,,,,,,
5ef6308c40846d2dfca0b66a,TCN,2024-06-24_15h32.56.564,LearnStrategy,2023.2.3,Win32,59.52380952,,,,,,,,,,,5,10,5,8,,,,,,,,,,,,,,,,,,,,,,,,,,,,,
5ef6308c40846d2dfca0b66a,TCN,2024-06-24_15h32.56.564,LearnStrategy,2023.2.3,Win32,59.52380952,,,,,,,,,,,2,16,6,1,,,,,,,,,,,,,,,,,,,,,,,,,,,,,
5ef6308c40846d2dfca0b66a,TCN,2024-06-24_15h32.56.564,LearnStrategy,2023.2.3,Win32,59.52380952,,,,,,,,,,,6,06,6,2,,,,,,,,,,,,,,,,,,,,,,,,,,,,,
5ef6308c40846d2dfca0b66a,TCN,2024-06-24_15h32.56.564,LearnStrategy,2023.2.3,Win32,59.52380952,,,,,,,,,,,5,09,6,3,,,,,,,,,,,,,,,,,,,,,,,,,,,,,
5ef6308c40846d2dfca0b66a,TCN,2024-06-24_15h32.56.564,LearnStrategy,2023.2.3,Win32,59.52380952,,,,,,,,,,,8,13,6,4,,,,,,,,,,,,,,,,,,,,,,,,,,,,,
5ef6308c40846d2dfca0b66a,TCN,2024-06-24_15h32.56.564,LearnStrategy,2023.2.3,Win32,59.52380952,,,,,,,,,,,7,12,6,5,,,,,,,,,,,,,,,,,,,,,,,,,,,,,
5ef6308c40846d2dfca0b66a,TCN,2024-06-24_15h32.56.564,LearnStrategy,2023.2.3,Win32,59.52380952,,,,,,,,,,,4,03,6,6,,,,,,,,,,,,,,,,,,,,,,,,,,,,,
5ef6308c40846d2dfca0b66a,TCN,2024-06-24_15h32.56.564,LearnStrategy,2023.2.3,Win32,59.52380952,,,,,,,,,,,6,07,6,7,,,,,,,,,,,,,,,,,,,,,,,,,,,,,
5ef6308c40846d2dfca0b66a,TCN,2024-06-24_15h32.56.564,LearnStrategy,2023.2.3,Win32,59.52380952,,,,,,,,,,,1,14,6,8,,,,,,,,,,,,,,,,,,,,,,,,,,,,,