participant,condition,date,expName,psychopyVersion,OS,frameRate,block,phase,trial,learn_mouse.x,learn_mouse.y,learn_mouse.leftButton,learn_mouse.midButton,learn_mouse.rightButton,learn_mouse.time,learn_mouse.clicked_name,cat,token,row,col,t_select,cat_mouse_l.x,cat_mouse_l.y,cat_mouse_l.leftButton,cat_mouse_l.midButton,cat_mouse_l.rightButton,cat_mouse_l.time,cat_mouse_l.clicked_name,resp,t_resp,corr,train_trials.thisRepN,train_trials.thisTrialN,train_trials.thisN,train_trials.thisIndex,train_trials.ran,cat_mouse_t.x,cat_mouse_t.y,cat_mouse_t.leftButton,cat_mouse_t.midButton,cat_mouse_t.rightButton,cat_mouse_t.time,cat_mouse_t.clicked_name,test_trials.thisRepN,test_trials.thisTrialN,test_trials.thisN,test_trials.thisIndex,test_trials.ran
5f111456d672e8471ca03f46,SCN,2024-06-10_15h27.57.314,LearnStrategy,2023.2.3,Win32,59.88023952,,,,,,,,,,,,,,,,,,,,,,,,,,,,,,,,,,,,,,,,,,
5f111456d672e8471ca03f46,SCN,2024-06-10_15h27.57.314,LearnStrategy,2023.2.3,Win32,59.88023952,1,1,1,-0.049074032,0.110185164,1,0,0,2.8608,Peridotite_13,7,13,4,4,2.861,0.124074088,-0.236111111,1,0,0,1.4215,Diorite_rect,3,1.421,0,0,0,0,0,1,,,,,,,,,,,,
5f111456d672e8471ca03f46,SCN,2024-06-10_15h27.57.314,LearnStrategy,2023.2.3,Win32,59.88023952,1,1,2,0.537037037,0.067592586,1,0,0,2.1279,Pegmatite_10,6,10,4,8,2.128,0.131481524,-0.400925954,1,0,0,1.6042,Peridotite_rect,7,1.604,0,1,0,1,0,1,,,,,,,,,,,,
5f111456d672e8471ca03f46,SCN,2024-06-10_15h27.57.314,LearnStrategy,2023.2.3,Win32,59.88023952,1,1,3,-0.5074074,0.387962959,1,0,0,2.7309,Basalt_11,2,11,6,1,2.731,-0.374074053,-0.260185171,1,0,0,3.4878,Andesite_rect,1,3.488,0,2,0,2,0,1,,,,,,,,,,,,
5f111456d672e8471ca03f46,SCN,2024-06-10_15h27.57.314,LearnStrategy,2023.2.3,Win32,59.88023952,1,1,4,0.512963048,-0.40370369,1,0,0,1.6468,Obsidian_05,5,05,1,8,1.647,-0.344444452,-0.39907406,1,0,0,1.1215,Obsidian_rect,5,1.121,1,3,0,3,0,1,,,,,,,,,,,,
5f111456d672e8471ca03f46,SCN,2024-06-10_15h27.57.314,LearnStrategy,2023.2.3,Win32,59.88023952,1,1,5,0.411111196,-0.434259273,1,0,0,1.481,Andesite_10,1,10,1,7,1.481,-0.314814815,-0.246296282,1,0,0,4.8041,Andesite_rect,1,4.804,1,4,0,4,0,1,,,,,,,,,,,,
5f111456d672e8471ca03f46,SCN,2024-06-10_15h27.57.314,LearnStrategy,2023.2.3,Win32,59.88023952,1,1,6,0.220370399,-0.377777806,1,0,0,1.397,Pumice_09,8,09,1,6,1.397,0.414814843,-0.406481496,1,0,0,1.0411,Pumice_rect,8,1.041,1,5,0,5,0,1,,,,,,,,,,,,
5f111456d672e8471ca03f46,SCN,2024-06-10_15h27.57.314,LearnStrategy,2023.2.3,Win32,59.88023952,1,1,7,0.104629658,-0.391666695,1,0,0,1.3143,Andesite_09,1,09,1,5,1.314,-0.112037023,-0.229629658,1,0,0,2.2204,Basalt_rect,2,2.22,0,6,0,6,0,1,,,,,,,,,,,,
5f111456d672e8471ca03f46,SCN,2024-06-10_15h27.57.314,LearnStrategy,2023.2.3,Win32,59.88023952,1,1,8,-0.101851852,-0.436111097,1,0,0,1.3657,Pumice_02,8,02,1,4,1.366,0.338888945,-0.382407436,1,0,0,1.307,Pumice_rect,8,1.307,1,7,0,7,0,1,,,,,,,,,,,,
5f111456d672e8471ca03f46,SCN,2024-06-10_15h27.57.314,LearnStrategy,2023.2.3,Win32,59.88023952,1,1,9,-0.237037023,-0.398148148,1,0,0,1.2134,Andesite_02,1,02,1,3,1.213,-0.130555541,-0.39907406,1,0,0,3.0889,Pegmatite_rect,6,3.089,0,8,0,8,0,1,,,,,,,,,,,,
5f111456d672e8471ca03f46,SCN,2024-06-10_15h27.57.314,LearnStrategy,2023.2.3,Win32,59.88023952,1,1,10,-0.385185171,-0.415740755,1,0,0,1.3142,Diorite_11,3,11,1,2,1.314,0.117592635,-0.25462963,1,0,0,1.7551,Diorite_rect,3,1.755,1,9,0,9,0,1,,,,,,,,,,,,
5f111456d672e8471ca03f46,SCN,2024-06-10_15h27.57.314,LearnStrategy,2023.2.3,Win32,59.88023952,1,1,11,-0.574999986,-0.429629644,1,0,0,1.8144,Pegmatite_05,6,05,1,1,1.814,-0.040740755,-0.390740783,1,0,0,6.8351,Pegmatite_rect,6,6.835,1,10,0,10,0,1,,,,,,,,,,,,
5f111456d672e8471ca03f46,SCN,2024-06-10_15h27.57.314,LearnStrategy,2023.2.3,Win32,59.88023952,1,1,12,0.536111196,-0.247222265,1,0,0,1.4815,Diorite_12,3,12,2,8,1.481,0.147222236,-0.244444459,1,0,0,1.9047,Diorite_rect,3,1.905,1,11,0,11,0,1,,,,,,,,,,,,
5f111456d672e8471ca03f46,SCN,2024-06-10_15h27.57.314,LearnStrategy,2023.2.3,Win32,59.88023952,1,1,13,0.359259288,-0.241666653,1,0,0,1.2644,Obsidian_09,5,09,2,7,1.264,-0.353703711,-0.418518561,1,0,0,0.9883,Obsidian_rect,5,0.988,1,12,0,12,0,1,,,,,,,,,,,,
5f111456d672e8471ca03f46,SCN,2024-06-10_15h27.57.314,LearnStrategy,2023.2.3,Win32,59.88023952,1,1,14,0.250925912,-0.237037023,1,0,0,1.4642,Peridotite_07,7,07,2,6,1.464,0.155555584,-0.401851866,1,0,0,1.9051,Peridotite_rect,7,1.905,1,13,0,13,0,1,,,,,,,,,,,,
5f111456d672e8471ca03f46,SCN,2024-06-10_15h27.57.314,LearnStrategy,2023.2.3,Win32,59.88023952,1,1,15,0.08148151,-0.261111153,1,0,0,1.8459,Peridotite_15,7,15,2,5,1.846,0.112037023,-0.412037037,1,0,0,1.8892,Peridotite_rect,7,1.889,1,14,0,14,0,1,,,,,,,,,,,,
5f111456d672e8471ca03f46,SCN,2024-06-10_15h27.57.314,LearnStrategy,2023.2.3,Win32,59.88023952,1,1,16,-0.050000014,-0.24537037,1,0,0,1.6445,Pegmatite_11,6,11,2,4,1.644,-0.077777792,-0.37962963,1,0,0,1.8805,Pegmatite_rect,6,1.88,1,15,0,15,0,1,,,,,,,,,,,,
5f111456d672e8471ca03f46,SCN,2024-06-10_15h27.57.314,LearnStrategy,2023.2.3,Win32,59.88023952,1,2,1,,,,,,,,4,09,,,,,,,,,,,1,14.368,0,,,,,,-0.393518519,-0.23055557,1,0,0,14.3685,Andesite_rect,0,0,0,0,1
5f111456d672e8471ca03f46,SCN,2024-06-10_15h27.57.314,LearnStrategy,2023.2.3,Win32,59.88023952,1,2,2,,,,,,,,7,10,,,,,,,,,,,7,2.684,1,,,,,,0.119444459,-0.39444443,1,0,0,2.6837,Peridotite_rect,1,0,1,0,1
5f111456d672e8471ca03f46,SCN,2024-06-10_15h27.57.314,LearnStrategy,2023.2.3,Win32,59.88023952,1,2,3,,,,,,,,1,16,,,,,,,,,,,1,4.271,1,,,,,,-0.392592571,-0.241666653,1,0,0,4.2707,Andesite_rect,2,0,2,0,1
5f111456d672e8471ca03f46,SCN,2024-06-10_15h27.57.314,LearnStrategy,2023.2.3,Win32,59.88023952,1,2,4,,,,,,,,6,08,,,,,,,,,,,6,1.835,1,,,,,,-0.180555556,-0.400000042,1,0,0,1.8345,Pegmatite_rect,3,0,3,0,1
5f111456d672e8471ca03f46,SCN,2024-06-10_15h27.57.314,LearnStrategy,2023.2.3,Win32,59.88023952,1,2,5,,,,,,,,5,11,,,,,,,,,,,5,1.474,1,,,,,,-0.39166666,-0.387037065,1,0,0,1.4735,Obsidian_rect,4,0,4,0,1
5f111456d672e8471ca03f46,SCN,2024-06-10_15h27.57.314,LearnStrategy,2023.2.3,Win32,59.88023952,1,2,6,,,,,,,,3,09,,,,,,,,,,,3,4.307,1,,,,,,0.079629616,-0.260185171,1,0,0,4.3066,Diorite_rect,5,0,5,0,1
5f111456d672e8471ca03f46,SCN,2024-06-10_15h27.57.314,LearnStrategy,2023.2.3,Win32,59.88023952,1,2,7,,,,,,,,2,08,,,,,,,,,,,2,3.447,1,,,,,,-0.164814772,-0.237037023,1,0,0,3.4472,Basalt_rect,6,0,6,0,1
5f111456d672e8471ca03f46,SCN,2024-06-10_15h27.57.314,LearnStrategy,2023.2.3,Win32,59.88023952,1,2,8,,,,,,,,2,10,,,,,,,,,,,4,2.068,0,,,,,,0.343518575,-0.249074088,1,0,0,2.0677,Gabbro_rect,7,0,7,0,1
5f111456d672e8471ca03f46,SCN,2024-06-10_15h27.57.314,LearnStrategy,2023.2.3,Win32,59.88023952,1,2,9,,,,,,,,6,09,,,,,,,,,,,6,1.624,1,,,,,,-0.112037023,-0.382407436,1,0,0,1.6236,Pegmatite_rect,8,0,8,0,1
5f111456d672e8471ca03f46,SCN,2024-06-10_15h27.57.314,LearnStrategy,2023.2.3,Win32,59.88023952,1,2,10,,,,,,,,7,08,,,,,,,,,,,7,2.839,1,,,,,,0.102777764,-0.390740783,1,0,0,2.8395,Peridotite_rect,9,0,9,0,1
5f111456d672e8471ca03f46,SCN,2024-06-10_15h27.57.314,LearnStrategy,2023.2.3,Win32,59.88023952,1,2,11,,,,,,,,4,12,,,,,,,,,,,2,2.25,0,,,,,,-0.156481496,-0.259259259,1,0,0,2.2503,Basalt_rect,10,0,10,0,1
5f111456d672e8471ca03f46,SCN,2024-06-10_15h27.57.314,LearnStrategy,2023.2.3,Win32,59.88023952,1,2,12,,,,,,,,8,16,,,,,,,,,,,8,1.875,1,,,,,,0.387037065,-0.387037065,1,0,0,1.8753,Pumice_rect,11,0,11,0,1
5f111456d672e8471ca03f46,SCN,2024-06-10_15h27.57.314,LearnStrategy,2023.2.3,Win32,59.88023952,1,2,13,,,,,,,,8,03,,,,,,,,,,,8,1.551,1,,,,,,0.348148205,-0.387962977,1,0,0,1.5508,Pumice_rect,12,0,12,0,1
5f111456d672e8471ca03f46,SCN,2024-06-10_15h27.57.314,LearnStrategy,2023.2.3,Win32,59.88023952,1,2,14,,,,,,,,1,06,,,,,,,,,,,1,2.548,1,,,,,,-0.385185171,-0.238888917,1,0,0,2.5479,Andesite_rect,13,0,13,0,1
5f111456d672e8471ca03f46,SCN,2024-06-10_15h27.57.314,LearnStrategy,2023.2.3,Win32,59.88023952,1,2,15,,,,,,,,3,16,,,,,,,,,,,3,1.272,1,,,,,,0.058333362,-0.257407436,1,0,0,1.2724,Diorite_rect,14,0,14,0,1
5f111456d672e8471ca03f46,SCN,2024-06-10_15h27.57.314,LearnStrategy,2023.2.3,Win32,59.88023952,1,2,16,,,,,,,,5,10,,,,,,,,,,,5,2.424,1,,,,,,-0.40648146,-0.40370369,1,0,0,2.4236,Obsidian_rect,15,0,15,0,1
5f111456d672e8471ca03f46,SCN,2024-06-10_15h27.57.314,LearnStrategy,2023.2.3,Win32,59.88023952,2,1,1,-0.543518526,0.405555557,1,0,0,6.1626,Basalt_11,2,11,6,1,6.163,-0.433333326,-0.243518547,1,0,0,1.3318,Andesite_rect,1,1.332,0,0,0,0,0,1,,,,,,,,,,,,
5f111456d672e8471ca03f46,SCN,2024-06-10_15h27.57.314,LearnStrategy,2023.2.3,Win32,59.88023952,2,1,2,-0.381481489,0.396296298,1,0,0,1.1947,Andesite_14,1,14,6,2,1.195,-0.381481489,-0.249074088,1,0,0,1.9515,Andesite_rect,1,1.952,1,1,0,1,0,1,,,,,,,,,,,,
5f111456d672e8471ca03f46,SCN,2024-06-10_15h27.57.314,LearnStrategy,2023.2.3,Win32,59.88023952,2,1,3,-0.241666653,0.43888889,1,0,0,1.031,Diorite_15,3,15,6,3,1.031,0.085185228,-0.255555541,1,0,0,1.7388,Diorite_rect,3,1.739,1,2,0,2,0,1,,,,,,,,,,,,
5f111456d672e8471ca03f46,SCN,2024-06-10_15h27.57.314,LearnStrategy,2023.2.3,Win32,59.88023952,2,1,4,-0.102777764,0.429629631,1,0,0,1.1821,Diorite_08,3,08,6,4,1.182,0.110185199,-0.259259259,1,0,0,1.597,Diorite_rect,3,1.597,1,3,0,3,0,1,,,,,,,,,,,,
5f111456d672e8471ca03f46,SCN,2024-06-10_15h27.57.314,LearnStrategy,2023.2.3,Win32,59.88023952,2,1,5,0.05740745,0.388888889,1,0,0,1.2635,Pumice_05,8,05,6,5,1.264,0.375925982,-0.39444443,1,0,0,2.2557,Pumice_rect,8,2.256,1,4,0,4,0,1,,,,,,,,,,,,
5f111456d672e8471ca03f46,SCN,2024-06-10_15h27.57.314,LearnStrategy,2023.2.3,Win32,59.88023952,2,1,6,0.226851852,0.416666667,1,0,0,1.5461,Peridotite_14,7,14,6,6,1.546,-0.078703704,-0.414814843,1,0,0,5.0039,Pegmatite_rect,6,5.004,0,5,0,5,0,1,,,,,,,,,,,,
5f111456d672e8471ca03f46,SCN,2024-06-10_15h27.57.314,LearnStrategy,2023.2.3,Win32,59.88023952,2,1,7,0.37962963,0.37685185,1,0,0,2.0134,Basalt_05,2,05,6,7,2.013,-0.12037037,-0.232407393,1,0,0,1.3649,Basalt_rect,2,1.365,1,6,0,6,0,1,,,,,,,,,,,,
5f111456d672e8471ca03f46,SCN,2024-06-10_15h27.57.314,LearnStrategy,2023.2.3,Win32,59.88023952,2,1,8,0.544444473,0.403703698,1,0,0,1.2976,Obsidian_08,5,08,6,8,1.298,-0.37962963,-0.421296296,1,0,0,1.3445,Obsidian_rect,5,1.345,1,7,0,7,0,1,,,,,,,,,,,,
5f111456d672e8471ca03f46,SCN,2024-06-10_15h27.57.314,LearnStrategy,2023.2.3,Win32,59.88023952,2,1,9,-0.577777757,0.267592589,1,0,0,1.4294,Gabbro_14,4,14,5,1,1.429,-0.111111111,-0.407407407,1,0,0,3.6935,Pegmatite_rect,6,3.694,0,8,0,8,0,1,,,,,,,,,,,,
5f111456d672e8471ca03f46,SCN,2024-06-10_15h27.57.314,LearnStrategy,2023.2.3,Win32,59.88023952,2,1,10,-0.400000007,0.213888892,1,0,0,1.7822,Gabbro_08,4,08,5,2,1.782,0.333333333,-0.244444459,1,0,0,2.5861,Gabbro_rect,4,2.586,1,9,0,9,0,1,,,,,,,,,,,,
5f111456d672e8471ca03f46,SCN,2024-06-10_15h27.57.314,LearnStrategy,2023.2.3,Win32,59.88023952,2,1,11,-0.262036995,0.244444441,1,0,0,1.13,Basalt_09,2,09,5,3,1.13,-0.146296254,-0.250925912,1,0,0,1.2059,Basalt_rect,2,1.206,1,10,0,10,0,1,,,,,,,,,,,,
5f111456d672e8471ca03f46,SCN,2024-06-10_15h27.57.314,LearnStrategy,2023.2.3,Win32,59.88023952,2,1,12,-0.083333333,0.261111101,1,0,0,1.0454,Pumice_10,8,10,5,4,1.045,0.409259231,-0.414814843,1,0,0,1.2773,Pumice_rect,8,1.277,1,11,0,11,0,1,,,,,,,,,,,,
5f111456d672e8471ca03f46,SCN,2024-06-10_15h27.57.314,LearnStrategy,2023.2.3,Win32,59.88023952,2,1,13,0.078703704,0.25,1,0,0,1.1966,Obsidian_06,5,06,5,5,1.197,-0.360185164,-0.407407407,1,0,0,1.494,Obsidian_rect,5,1.494,1,12,0,12,0,1,,,,,,,,,,,,
5f111456d672e8471ca03f46,SCN,2024-06-10_15h27.57.314,LearnStrategy,2023.2.3,Win32,59.88023952,2,1,14,0.215740769,0.243518511,1,0,0,1.2458,Pegmatite_07,6,07,5,6,1.246,-0.157407407,-0.40370369,1,0,0,1.5231,Pegmatite_rect,6,1.523,1,13,0,13,0,1,,,,,,,,,,,,
5f111456d672e8471ca03f46,SCN,2024-06-10_15h27.57.314,LearnStrategy,2023.2.3,Win32,59.88023952,2,1,15,0.41851849,0.274074078,1,0,0,1.2483,Pegmatite_15,6,15,5,7,1.248,-0.151851866,-0.402777778,1,0,0,1.258,Pegmatite_rect,6,1.258,1,14,0,14,0,1,,,,,,,,,,,,
5f111456d672e8471ca03f46,SCN,2024-06-10_15h27.57.314,LearnStrategy,2023.2.3,Win32,59.88023952,2,1,16,0.558333362,0.247222212,1,0,0,1.3138,Pumice_13,8,13,5,8,1.314,0.348148205,-0.39907406,1,0,0,2.6574,Pumice_rect,8,2.657,1,15,0,15,0,1,,,,,,,,,,,,
5f111456d672e8471ca03f46,SCN,2024-06-10_15h27.57.314,LearnStrategy,2023.2.3,Win32,59.88023952,2,2,1,,,,,,,,8,08,,,,,,,,,,,8,2.557,1,,,,,,0.444444444,-0.398148148,1,0,0,2.5569,Pumice_rect,0,0,0,0,1
5f111456d672e8471ca03f46,SCN,2024-06-10_15h27.57.314,LearnStrategy,2023.2.3,Win32,59.88023952,2,2,2,,,,,,,,6,06,,,,,,,,,,,6,2.468,1,,,,,,-0.149999972,-0.409259302,1,0,0,2.4675,Pegmatite_rect,1,0,1,0,1
5f111456d672e8471ca03f46,SCN,2024-06-10_15h27.57.314,LearnStrategy,2023.2.3,Win32,59.88023952,2,2,3,,,,,,,,4,15,,,,,,,,,,,3,2.673,0,,,,,,0.097222222,-0.25,1,0,0,2.6735,Diorite_rect,2,0,2,0,1
5f111456d672e8471ca03f46,SCN,2024-06-10_15h27.57.314,LearnStrategy,2023.2.3,Win32,59.88023952,2,2,4,,,,,,,,4,13,,,,,,,,,,,4,3.227,1,,,,,,0.367592564,-0.259259259,1,0,0,3.2269,Gabbro_rect,3,0,3,0,1
5f111456d672e8471ca03f46,SCN,2024-06-10_15h27.57.314,LearnStrategy,2023.2.3,Win32,59.88023952,2,2,5,,,,,,,,5,16,,,,,,,,,,,5,1.54,1,,,,,,-0.437962956,-0.400000042,1,0,0,1.54,Obsidian_rect,4,0,4,0,1
5f111456d672e8471ca03f46,SCN,2024-06-10_15h27.57.314,LearnStrategy,2023.2.3,Win32,59.88023952,2,2,6,,,,,,,,1,03,,,,,,,,,,,1,4.971,1,,,,,,-0.384259259,-0.242592635,1,0,0,4.9708,Andesite_rect,5,0,5,0,1
5f111456d672e8471ca03f46,SCN,2024-06-10_15h27.57.314,LearnStrategy,2023.2.3,Win32,59.88023952,2,2,7,,,,,,,,6,12,,,,,,,,,,,6,1.751,1,,,,,,-0.108333305,-0.400000042,1,0,0,1.7514,Pegmatite_rect,6,0,6,0,1
5f111456d672e8471ca03f46,SCN,2024-06-10_15h27.57.314,LearnStrategy,2023.2.3,Win32,59.88023952,2,2,8,,,,,,,,7,16,,,,,,,,,,,3,3.157,0,,,,,,0.087037051,-0.264814801,1,0,0,3.1574,Diorite_rect,7,0,7,0,1
5f111456d672e8471ca03f46,SCN,2024-06-10_15h27.57.314,LearnStrategy,2023.2.3,Win32,59.88023952,2,2,9,,,,,,,,1,05,,,,,,,,,,,1,1.668,1,,,,,,-0.425925926,-0.271296325,1,0,0,1.6678,Andesite_rect,8,0,8,0,1
5f111456d672e8471ca03f46,SCN,2024-06-10_15h27.57.314,LearnStrategy,2023.2.3,Win32,59.88023952,2,2,10,,,,,,,,8,15,,,,,,,,,,,8,1.426,1,,,,,,0.376851824,-0.405555584,1,0,0,1.4257,Pumice_rect,9,0,9,0,1
5f111456d672e8471ca03f46,SCN,2024-06-10_15h27.57.314,LearnStrategy,2023.2.3,Win32,59.88023952,2,2,11,,,,,,,,2,06,,,,,,,,,,,4,3.887,0,,,,,,0.347222222,-0.229629658,1,0,0,3.8871,Gabbro_rect,10,0,10,0,1
5f111456d672e8471ca03f46,SCN,2024-06-10_15h27.57.314,LearnStrategy,2023.2.3,Win32,59.88023952,2,2,12,,,,,,,,5,04,,,,,,,,,,,5,1.468,1,,,,,,-0.443518497,-0.39444443,1,0,0,1.4681,Obsidian_rect,11,0,11,0,1
5f111456d672e8471ca03f46,SCN,2024-06-10_15h27.57.314,LearnStrategy,2023.2.3,Win32,59.88023952,2,2,13,,,,,,,,7,06,,,,,,,,,,,6,1.94,0,,,,,,-0.095370328,-0.412962949,1,0,0,1.9401,Pegmatite_rect,12,0,12,0,1
5f111456d672e8471ca03f46,SCN,2024-06-10_15h27.57.314,LearnStrategy,2023.2.3,Win32,59.88023952,2,2,14,,,,,,,,3,02,,,,,,,,,,,3,1.333,1,,,,,,0.146296325,-0.265740783,1,0,0,1.3333,Diorite_rect,13,0,13,0,1
5f111456d672e8471ca03f46,SCN,2024-06-10_15h27.57.314,LearnStrategy,2023.2.3,Win32,59.88023952,2,2,15,,,,,,,,3,10,,,,,,,,,,,3,1.189,1,,,,,,0.109259288,-0.261111153,1,0,0,1.1895,Diorite_rect,14,0,14,0,1
5f111456d672e8471ca03f46,SCN,2024-06-10_15h27.57.314,LearnStrategy,2023.2.3,Win32,59.88023952,2,2,16,,,,,,,,2,01,,,,,,,,,,,2,1.339,1,,,,,,-0.112037023,-0.270370413,1,0,0,1.3394,Basalt_rect,15,0,15,0,1
5f111456d672e8471ca03f46,SCN,2024-06-10_15h27.57.314,LearnStrategy,2023.2.3,Win32,59.88023952,3,1,1,0.187962991,-0.08888891,1,0,0,1.85,Obsidian_02,5,02,3,6,1.85,-0.438888868,-0.419444473,1,0,0,2.073,Obsidian_rect,5,2.073,1,0,0,0,0,1,,,,,,,,,,,,
5f111456d672e8471ca03f46,SCN,2024-06-10_15h27.57.314,LearnStrategy,2023.2.3,Win32,59.88023952,3,1,2,0.37962963,-0.249074088,1,0,0,1.3143,Obsidian_09,5,09,2,7,1.314,-0.390740748,-0.400000042,1,0,0,1.1566,Obsidian_rect,5,1.157,1,1,0,1,0,1,,,,,,,,,,,,
5f111456d672e8471ca03f46,SCN,2024-06-10_15h27.57.314,LearnStrategy,2023.2.3,Win32,59.88023952,3,1,3,0.532407407,-0.112037023,1,0,0,1.1147,Obsidian_12,5,12,3,8,1.115,-0.385185171,-0.385185171,1,0,0,1.2439,Obsidian_rect,5,1.244,1,2,0,2,0,1,,,,,,,,,,,,
5f111456d672e8471ca03f46,SCN,2024-06-10_15h27.57.314,LearnStrategy,2023.2.3,Win32,59.88023952,3,1,4,0.546296296,-0.408333319,1,0,0,1.7811,Obsidian_05,5,05,1,8,1.781,-0.345370363,-0.40370369,1,0,0,1.0328,Obsidian_rect,5,1.033,1,3,0,3,0,1,,,,,,,,,,,,
5f111456d672e8471ca03f46,SCN,2024-06-10_15h27.57.314,LearnStrategy,2023.2.3,Win32,59.88023952,3,1,5,0.40833339,-0.408333319,1,0,0,1.2456,Andesite_10,1,10,1,7,1.246,-0.351851852,-0.257407436,1,0,0,1.9894,Andesite_rect,1,1.989,1,4,0,4,0,1,,,,,,,,,,,,
5f111456d672e8471ca03f46,SCN,2024-06-10_15h27.57.314,LearnStrategy,2023.2.3,Win32,59.88023952,3,1,6,0.410185213,-0.104629658,1,0,0,1.5652,Gabbro_10,4,10,3,7,1.565,0.391666695,-0.229629658,1,0,0,1.818,Gabbro_rect,4,1.818,1,5,0,5,0,1,,,,,,,,,,,,
5f111456d672e8471ca03f46,SCN,2024-06-10_15h27.57.314,LearnStrategy,2023.2.3,Win32,59.88023952,3,1,7,0.531481566,-0.236111111,1,0,0,1.7152,Diorite_12,3,12,2,8,1.715,0.143518519,-0.37962963,1,0,0,2.4041,Peridotite_rect,7,2.404,0,6,0,6,0,1,,,,,,,,,,,,
5f111456d672e8471ca03f46,SCN,2024-06-10_15h27.57.314,LearnStrategy,2023.2.3,Win32,59.88023952,3,1,8,0.229629658,-0.236111111,1,0,0,1.4989,Peridotite_07,7,07,2,6,1.499,0.127777806,-0.410185213,1,0,0,2.3385,Peridotite_rect,7,2.339,1,7,0,7,0,1,,,,,,,,,,,,
5f111456d672e8471ca03f46,SCN,2024-06-10_15h27.57.314,LearnStrategy,2023.2.3,Win32,59.88023952,3,1,9,0.203703704,-0.116666653,1,0,0,1.2981,Obsidian_02,5,02,3,6,1.298,-0.373148141,-0.417592578,1,0,0,1.4892,Obsidian_rect,5,1.489,1,8,0,8,0,1,,,,,,,,,,,,
5f111456d672e8471ca03f46,SCN,2024-06-10_15h27.57.314,LearnStrategy,2023.2.3,Win32,59.88023952,3,1,10,0.101851852,-0.136111153,1,0,0,1.1474,Gabbro_11,4,11,3,5,1.147,-0.178703661,-0.237963005,1,0,0,1.105,Basalt_rect,2,1.105,0,9,0,9,0,1,,,,,,,,,,,,
5f111456d672e8471ca03f46,SCN,2024-06-10_15h27.57.314,LearnStrategy,2023.2.3,Win32,59.88023952,3,1,11,0.086111139,-0.390740783,1,0,0,1.9966,Andesite_09,1,09,1,5,1.997,-0.39907406,-0.256481524,1,0,0,1.0733,Andesite_rect,1,1.073,1,10,0,10,0,1,,,,,,,,,,,,
5f111456d672e8471ca03f46,SCN,2024-06-10_15h27.57.314,LearnStrategy,2023.2.3,Win32,59.88023952,3,1,12,-0.073148162,-0.244444459,1,0,0,1.4487,Pegmatite_11,6,11,2,4,1.449,-0.068518533,-0.390740783,1,0,0,0.9898,Pegmatite_rect,6,0.99,1,11,0,11,0,1,,,,,,,,,,,,
5f111456d672e8471ca03f46,SCN,2024-06-10_15h27.57.314,LearnStrategy,2023.2.3,Win32,59.88023952,3,1,13,-0.214814787,-0.106481481,1,0,0,1.4471,Basalt_14,2,14,3,3,1.447,0.337037122,-0.252777806,1,0,0,2.355,Gabbro_rect,4,2.355,0,12,0,12,0,1,,,,,,,,,,,,
5f111456d672e8471ca03f46,SCN,2024-06-10_15h27.57.314,LearnStrategy,2023.2.3,Win32,59.88023952,3,1,14,-0.242592564,-0.25,1,0,0,1.2652,Pumice_06,8,06,2,3,1.265,0.359259288,-0.400925954,1,0,0,1.4057,Pumice_rect,8,1.406,1,13,0,13,0,1,,,,,,,,,,,,
5f111456d672e8471ca03f46,SCN,2024-06-10_15h27.57.314,LearnStrategy,2023.2.3,Win32,59.88023952,3,1,15,-0.209259245,-0.366666653,1,0,0,1.5975,Andesite_02,1,02,1,3,1.597,-0.135185171,-0.397222236,1,0,0,1.6834,Pegmatite_rect,6,1.683,0,14,0,14,0,1,,,,,,,,,,,,
5f111456d672e8471ca03f46,SCN,2024-06-10_15h27.57.314,LearnStrategy,2023.2.3,Win32,59.88023952,3,1,16,-0.408333319,-0.25,1,0,0,1.3485,Basalt_02,2,02,2,2,1.349,-0.157407407,-0.242592635,1,0,0,1.03,Basalt_rect,2,1.03,1,15,0,15,0,1,,,,,,,,,,,,
5f111456d672e8471ca03f46,SCN,2024-06-10_15h27.57.314,LearnStrategy,2023.2.3,Win32,59.88023952,3,2,1,,,,,,,,4,01,,,,,,,,,,,4,6.053,1,,,,,,0.443518603,-0.236111111,1,0,0,6.0528,Gabbro_rect,0,0,0,0,1
5f111456d672e8471ca03f46,SCN,2024-06-10_15h27.57.314,LearnStrategy,2023.2.3,Win32,59.88023952,3,2,2,,,,,,,,1,11,,,,,,,,,,,1,1.431,1,,,,,,-0.349999993,-0.256481524,1,0,0,1.4311,Andesite_rect,1,0,1,0,1
5f111456d672e8471ca03f46,SCN,2024-06-10_15h27.57.314,LearnStrategy,2023.2.3,Win32,59.88023952,3,2,3,,,,,,,,7,02,,,,,,,,,,,7,2.388,1,,,,,,0.127777806,-0.39444443,1,0,0,2.3882,Peridotite_rect,2,0,2,0,1
5f111456d672e8471ca03f46,SCN,2024-06-10_15h27.57.314,LearnStrategy,2023.2.3,Win32,59.88023952,3,2,4,,,,,,,,5,07,,,,,,,,,,,5,1.373,1,,,,,,-0.494444423,-0.415740755,1,0,0,1.3728,Obsidian_rect,3,0,3,0,1
5f111456d672e8471ca03f46,SCN,2024-06-10_15h27.57.314,LearnStrategy,2023.2.3,Win32,59.88023952,3,2,5,,,,,,,,6,03,,,,,,,,,,,6,1.456,1,,,,,,-0.099074046,-0.400925954,1,0,0,1.4563,Pegmatite_rect,4,0,4,0,1
5f111456d672e8471ca03f46,SCN,2024-06-10_15h27.57.314,LearnStrategy,2023.2.3,Win32,59.88023952,3,2,6,,,,,,,,7,04,,,,,,,,,,,7,1.786,1,,,,,,0.084259245,-0.414814843,1,0,0,1.7859,Peridotite_rect,5,0,5,0,1
5f111456d672e8471ca03f46,SCN,2024-06-10_15h27.57.314,LearnStrategy,2023.2.3,Win32,59.88023952,3,2,7,,,,,,,,2,04,,,,,,,,,,,4,4.306,0,,,,,,0.330555527,-0.23055557,1,0,0,4.3059,Gabbro_rect,6,0,6,0,1
5f111456d672e8471ca03f46,SCN,2024-06-10_15h27.57.314,LearnStrategy,2023.2.3,Win32,59.88023952,3,2,8,,,,,,,,3,14,,,,,,,,,,,3,1.464,1,,,,,,0.098148134,-0.248148176,1,0,0,1.4636,Diorite_rect,7,0,7,0,1
5f111456d672e8471ca03f46,SCN,2024-06-10_15h27.57.314,LearnStrategy,2023.2.3,Win32,59.88023952,3,2,9,,,,,,,,5,14,,,,,,,,,,,5,1.94,1,,,,,,-0.395370377,-0.410185213,1,0,0,1.9397,Obsidian_rect,8,0,8,0,1
5f111456d672e8471ca03f46,SCN,2024-06-10_15h27.57.314,LearnStrategy,2023.2.3,Win32,59.88023952,3,2,10,,,,,,,,6,13,,,,,,,,,,,6,1.481,1,,,,,,-0.111111111,-0.388888889,1,0,0,1.4807,Pegmatite_rect,9,0,9,0,1
5f111456d672e8471ca03f46,SCN,2024-06-10_15h27.57.314,LearnStrategy,2023.2.3,Win32,59.88023952,3,2,11,,,,,,,,8,04,,,,,,,,,,,8,1.59,1,,,,,,0.439814815,-0.392592607,1,0,0,1.5901,Pumice_rect,10,0,10,0,1
5f111456d672e8471ca03f46,SCN,2024-06-10_15h27.57.314,LearnStrategy,2023.2.3,Win32,59.88023952,3,2,12,,,,,,,,1,07,,,,,,,,,,,3,1.337,0,,,,,,0.133333347,-0.253703718,1,0,0,1.3375,Diorite_rect,11,0,11,0,1
5f111456d672e8471ca03f46,SCN,2024-06-10_15h27.57.314,LearnStrategy,2023.2.3,Win32,59.88023952,3,2,13,,,,,,,,8,14,,,,,,,,,,,8,1.839,1,,,,,,0.351851852,-0.400000042,1,0,0,1.839,Pumice_rect,12,0,12,0,1
5f111456d672e8471ca03f46,SCN,2024-06-10_15h27.57.314,LearnStrategy,2023.2.3,Win32,59.88023952,3,2,14,,,,,,,,2,16,,,,,,,,,,,4,5.514,0,,,,,,0.374074159,-0.251851894,1,0,0,5.514,Gabbro_rect,13,0,13,0,1
5f111456d672e8471ca03f46,SCN,2024-06-10_15h27.57.314,LearnStrategy,2023.2.3,Win32,59.88023952,3,2,15,,,,,,,,3,13,,,,,,,,,,,3,1.752,1,,,,,,0.179629644,-0.25,1,0,0,1.7521,Diorite_rect,14,0,14,0,1
5f111456d672e8471ca03f46,SCN,2024-06-10_15h27.57.314,LearnStrategy,2023.2.3,Win32,59.88023952,3,2,16,,,,,,,,4,05,,,,,,,,,,,4,5.386,1,,,,,,0.397222307,-0.266666695,1,0,0,5.386,Gabbro_rect,15,0,15,0,1
5f111456d672e8471ca03f46,SCN,2024-06-10_15h27.57.314,LearnStrategy,2023.2.3,Win32,59.88023952,4,1,1,0.562962991,0.393518519,1,0,0,6.8121,Obsidian_08,5,08,6,8,6.812,-0.396296289,-0.406481496,1,0,0,1.496,Obsidian_rect,5,1.496,1,0,0,0,0,1,,,,,,,,,,,,
5f111456d672e8471ca03f46,SCN,2024-06-10_15h27.57.314,LearnStrategy,2023.2.3,Win32,59.88023952,4,1,2,0.557407379,-0.39907406,1,0,0,1.1141,Obsidian_05,5,05,1,8,1.114,-0.361111111,-0.402777778,1,0,0,1.0956,Obsidian_rect,5,1.096,1,1,0,1,0,1,,,,,,,,,,,,
5f111456d672e8471ca03f46,SCN,2024-06-10_15h27.57.314,LearnStrategy,2023.2.3,Win32,59.88023952,4,1,3,0.500925982,-0.115740741,1,0,0,1.4482,Obsidian_12,5,12,3,8,1.448,-0.424074067,-0.407407407,1,0,0,1.039,Obsidian_rect,5,1.039,1,2,0,2,0,1,,,,,,,,,,,,
5f111456d672e8471ca03f46,SCN,2024-06-10_15h27.57.314,LearnStrategy,2023.2.3,Win32,59.88023952,4,1,4,-0.088888875,-0.250925912,1,0,0,1.8967,Pegmatite_11,6,11,2,4,1.897,-0.137962977,-0.400925954,1,0,0,1.5382,Pegmatite_rect,6,1.538,1,3,0,3,0,1,,,,,,,,,,,,
5f111456d672e8471ca03f46,SCN,2024-06-10_15h27.57.314,LearnStrategy,2023.2.3,Win32,59.88023952,4,1,5,-0.375,-0.249074088,1,0,0,1.248,Basalt_02,2,02,2,2,1.248,-0.165740755,-0.24537037,1,0,0,1.4551,Basalt_rect,2,1.455,1,4,0,4,0,1,,,,,,,,,,,,
5f111456d672e8471ca03f46,SCN,2024-06-10_15h27.57.314,LearnStrategy,2023.2.3,Win32,59.88023952,4,1,6,-0.400000007,-0.419444473,1,0,0,1.7474,Diorite_11,3,11,1,2,1.747,0.12037037,-0.250925912,1,0,0,2.189,Diorite_rect,3,2.189,1,5,0,5,0,1,,,,,,,,,,,,
5f111456d672e8471ca03f46,SCN,2024-06-10_15h27.57.314,LearnStrategy,2023.2.3,Win32,59.88023952,4,1,7,-0.551851838,-0.402777778,1,0,0,1.8804,Pegmatite_05,6,05,1,1,1.88,0.114814829,-0.392592607,1,0,0,4.7369,Peridotite_rect,7,4.737,0,6,0,6,0,1,,,,,,,,,,,,
5f111456d672e8471ca03f46,SCN,2024-06-10_15h27.57.314,LearnStrategy,2023.2.3,Win32,59.88023952,4,1,8,-0.567592586,-0.277777778,1,0,0,1.6307,Pegmatite_16,6,16,2,1,1.631,-0.161111125,-0.400000042,1,0,0,2.1228,Pegmatite_rect,6,2.123,1,7,0,7,0,1,,,,,,,,,,,,
5f111456d672e8471ca03f46,SCN,2024-06-10_15h27.57.314,LearnStrategy,2023.2.3,Win32,59.88023952,4,1,9,-0.098148134,0.075925933,1,0,0,1.298,Peridotite_13,7,13,4,4,1.298,0.074999986,-0.382407436,1,0,0,1.3723,Peridotite_rect,7,1.372,1,8,0,8,0,1,,,,,,,,,,,,
5f111456d672e8471ca03f46,SCN,2024-06-10_15h27.57.314,LearnStrategy,2023.2.3,Win32,59.88023952,4,1,10,0.099074116,0.056481467,1,0,0,1.0125,Peridotite_12,7,12,4,5,1.013,0.147222236,-0.271296325,1,0,0,2.3216,Diorite_rect,3,2.322,0,9,0,9,0,1,,,,,,,,,,,,
5f111456d672e8471ca03f46,SCN,2024-06-10_15h27.57.314,LearnStrategy,2023.2.3,Win32,59.88023952,4,1,11,0.220370399,0.087037016,1,0,0,1.5315,Andesite_01,1,01,4,6,1.531,0.411111196,-0.264814801,1,0,0,2.9714,Gabbro_rect,4,2.971,0,10,0,10,0,1,,,,,,,,,,,,
5f111456d672e8471ca03f46,SCN,2024-06-10_15h27.57.314,LearnStrategy,2023.2.3,Win32,59.88023952,4,1,12,0.551851908,0.090740734,1,0,0,1.5149,Pegmatite_10,6,10,4,8,1.515,-0.086111069,-0.407407407,1,0,0,1.2241,Pegmatite_rect,6,1.224,1,11,0,11,0,1,,,,,,,,,,,,
5f111456d672e8471ca03f46,SCN,2024-06-10_15h27.57.314,LearnStrategy,2023.2.3,Win32,59.88023952,4,1,13,0.398148148,0.10833334,1,0,0,1.1985,Gabbro_16,4,16,4,7,1.199,0.361111111,-0.249074088,1,0,0,1.202,Gabbro_rect,4,1.202,1,12,0,12,0,1,,,,,,,,,,,,
5f111456d672e8471ca03f46,SCN,2024-06-10_15h27.57.314,LearnStrategy,2023.2.3,Win32,59.88023952,4,1,14,-0.252777735,0.060185185,1,0,0,1.2644,Diorite_06,3,06,4,3,1.264,0.068518533,-0.233333376,1,0,0,1.2188,Diorite_rect,3,1.219,1,13,0,13,0,1,,,,,,,,,,,,
5f111456d672e8471ca03f46,SCN,2024-06-10_15h27.57.314,LearnStrategy,2023.2.3,Win32,59.88023952,4,1,15,-0.377777771,0.084259245,1,0,0,1.5659,Gabbro_03,4,03,4,2,1.566,0.091666681,-0.260185171,1,0,0,2.3018,Diorite_rect,3,2.302,0,14,0,14,0,1,,,,,,,,,,,,
5f111456d672e8471ca03f46,SCN,2024-06-10_15h27.57.314,LearnStrategy,2023.2.3,Win32,59.88023952,4,1,16,-0.525000007,0.12037037,1,0,0,1.3815,Peridotite_05,7,05,4,1,1.382,0.094444487,-0.390740783,1,0,0,2.3591,Peridotite_rect,7,2.359,1,15,0,15,0,1,,,,,,,,,,,,
5f111456d672e8471ca03f46,SCN,2024-06-10_15h27.57.314,LearnStrategy,2023.2.3,Win32,59.88023952,4,2,1,,,,,,,,7,16,,,,,,,,,,,7,3.79,1,,,,,,0.12962963,-0.380555541,1,0,0,3.7899,Peridotite_rect,0,0,0,0,1
5f111456d672e8471ca03f46,SCN,2024-06-10_15h27.57.314,LearnStrategy,2023.2.3,Win32,59.88023952,4,2,2,,,,,,,,2,04,,,,,,,,,,,2,3.084,1,,,,,,-0.091666681,-0.241666653,1,0,0,3.0845,Basalt_rect,1,0,1,0,1
5f111456d672e8471ca03f46,SCN,2024-06-10_15h27.57.314,LearnStrategy,2023.2.3,Win32,59.88023952,4,2,3,,,,,,,,8,15,,,,,,,,,,,8,1.468,1,,,,,,0.334259316,-0.411111125,1,0,0,1.4682,Pumice_rect,2,0,2,0,1
5f111456d672e8471ca03f46,SCN,2024-06-10_15h27.57.314,LearnStrategy,2023.2.3,Win32,59.88023952,4,2,4,,,,,,,,6,12,,,,,,,,,,,6,1.474,1,,,,,,-0.115740741,-0.380555541,1,0,0,1.4741,Pegmatite_rect,3,0,3,0,1
5f111456d672e8471ca03f46,SCN,2024-06-10_15h27.57.314,LearnStrategy,2023.2.3,Win32,59.88023952,4,2,5,,,,,,,,3,14,,,,,,,,,,,3,1.64,1,,,,,,0.098148134,-0.256481524,1,0,0,1.6401,Diorite_rect,4,0,4,0,1
5f111456d672e8471ca03f46,SCN,2024-06-10_15h27.57.314,LearnStrategy,2023.2.3,Win32,59.88023952,4,2,6,,,,,,,,1,06,,,,,,,,,,,1,28.666,1,,,,,,-0.329629616,-0.236111111,1,0,0,28.6657,Andesite_rect,5,0,5,0,1
5f111456d672e8471ca03f46,SCN,2024-06-10_15h27.57.314,LearnStrategy,2023.2.3,Win32,59.88023952,4,2,7,,,,,,,,5,11,,,,,,,,,,,5,1.379,1,,,,,,-0.360185164,-0.415740755,1,0,0,1.3791,Obsidian_rect,6,0,6,0,1
5f111456d672e8471ca03f46,SCN,2024-06-10_15h27.57.314,LearnStrategy,2023.2.3,Win32,59.88023952,4,2,8,,,,,,,,4,13,,,,,,,,,,,1,5.589,0,,,,,,-0.396296289,-0.244444459,1,0,0,5.5889,Andesite_rect,7,0,7,0,1
5f111456d672e8471ca03f46,SCN,2024-06-10_15h27.57.314,LearnStrategy,2023.2.3,Win32,59.88023952,4,2,9,,,,,,,,6,13,,,,,,,,,,,6,1.502,1,,,,,,-0.131481453,-0.386111153,1,0,0,1.5024,Pegmatite_rect,8,0,8,0,1
5f111456d672e8471ca03f46,SCN,2024-06-10_15h27.57.314,LearnStrategy,2023.2.3,Win32,59.88023952,4,2,10,,,,,,,,3,13,,,,,,,,,,,3,1.29,1,,,,,,0.136111153,-0.249074088,1,0,0,1.2902,Diorite_rect,9,0,9,0,1
5f111456d672e8471ca03f46,SCN,2024-06-10_15h27.57.314,LearnStrategy,2023.2.3,Win32,59.88023952,4,2,11,,,,,,,,5,14,,,,,,,,,,,5,1.556,1,,,,,,-0.451851845,-0.402777778,1,0,0,1.5559,Obsidian_rect,10,0,10,0,1
5f111456d672e8471ca03f46,SCN,2024-06-10_15h27.57.314,LearnStrategy,2023.2.3,Win32,59.88023952,4,2,12,,,,,,,,2,08,,,,,,,,,,,2,1.323,1,,,,,,-0.138888889,-0.266666695,1,0,0,1.3235,Basalt_rect,11,0,11,0,1
5f111456d672e8471ca03f46,SCN,2024-06-10_15h27.57.314,LearnStrategy,2023.2.3,Win32,59.88023952,4,2,13,,,,,,,,8,03,,,,,,,,,,,8,1.341,1,,,,,,0.362037094,-0.383333347,1,0,0,1.3407,Pumice_rect,12,0,12,0,1
5f111456d672e8471ca03f46,SCN,2024-06-10_15h27.57.314,LearnStrategy,2023.2.3,Win32,59.88023952,4,2,14,,,,,,,,1,05,,,,,,,,,,,1,1.69,1,,,,,,-0.437037044,-0.267592607,1,0,0,1.6896,Andesite_rect,13,0,13,0,1
5f111456d672e8471ca03f46,SCN,2024-06-10_15h27.57.314,LearnStrategy,2023.2.3,Win32,59.88023952,4,2,15,,,,,,,,4,01,,,,,,,,,,,1,0.972,0,,,,,,-0.437037044,-0.267592607,1,0,0,0.972,Andesite_rect,14,0,14,0,1
5f111456d672e8471ca03f46,SCN,2024-06-10_15h27.57.314,LearnStrategy,2023.2.3,Win32,59.88023952,4,2,16,,,,,,,,7,02,,,,,,,,,,,7,2.291,1,,,,,,0.068518533,-0.393518519,1,0,0,2.2908,Peridotite_rect,15,0,15,0,1
5f111456d672e8471ca03f46,SCN,2024-06-10_15h27.57.314,LearnStrategy,2023.2.3,Win32,59.88023952,5,1,1,-0.229629587,-0.25,1,0,0,2.3488,Pumice_06,8,06,2,3,2.349,0.372222194,-0.400000042,1,0,0,1.6937,Pumice_rect,8,1.694,1,0,0,0,0,1,,,,,,,,,,,,
5f111456d672e8471ca03f46,SCN,2024-06-10_15h27.57.314,LearnStrategy,2023.2.3,Win32,59.88023952,5,1,2,-0.087962963,-0.252777806,1,0,0,1.6315,Pegmatite_11,6,11,2,4,1.632,-0.143518519,-0.398148148,1,0,0,1.3889,Pegmatite_rect,6,1.389,1,1,0,1,0,1,,,,,,,,,,,,
5f111456d672e8471ca03f46,SCN,2024-06-10_15h27.57.314,LearnStrategy,2023.2.3,Win32,59.88023952,5,1,3,0.074999986,-0.250925912,1,0,0,1.1488,Peridotite_15,7,15,2,5,1.149,0.110185199,-0.418518561,1,0,0,1.0199,Peridotite_rect,7,1.02,1,2,0,2,0,1,,,,,,,,,,,,
5f111456d672e8471ca03f46,SCN,2024-06-10_15h27.57.314,LearnStrategy,2023.2.3,Win32,59.88023952,5,1,4,0.235185199,-0.253703718,1,0,0,1.382,Peridotite_07,7,07,2,6,1.382,0.158333319,-0.257407436,1,0,0,1.7812,Diorite_rect,3,1.781,0,3,0,3,0,1,,,,,,,,,,,,
5f111456d672e8471ca03f46,SCN,2024-06-10_15h27.57.314,LearnStrategy,2023.2.3,Win32,59.88023952,5,1,5,0.374074159,-0.23055557,1,0,0,1.4461,Obsidian_09,5,09,2,7,1.446,-0.3675926,-0.411111125,1,0,0,1.2337,Obsidian_rect,5,1.234,1,4,0,4,0,1,,,,,,,,,,,,
5f111456d672e8471ca03f46,SCN,2024-06-10_15h27.57.314,LearnStrategy,2023.2.3,Win32,59.88023952,5,1,6,0.213888875,-0.099074116,1,0,0,1.6979,Obsidian_02,5,02,3,6,1.698,-0.396296289,-0.392592607,1,0,0,1.2553,Obsidian_rect,5,1.255,1,5,0,5,0,1,,,,,,,,,,,,
5f111456d672e8471ca03f46,SCN,2024-06-10_15h27.57.314,LearnStrategy,2023.2.3,Win32,59.88023952,5,1,7,-0.124074088,-0.094444487,1,0,0,1.1488,Diorite_07,3,07,3,4,1.149,0.116666653,-0.240740741,1,0,0,1.6691,Diorite_rect,3,1.669,1,6,0,6,0,1,,,,,,,,,,,,
5f111456d672e8471ca03f46,SCN,2024-06-10_15h27.57.314,LearnStrategy,2023.2.3,Win32,59.88023952,5,1,8,-0.216666681,-0.115740741,1,0,0,1.4149,Basalt_14,2,14,3,3,1.415,-0.376851859,-0.250925912,1,0,0,3.3381,Andesite_rect,1,3.338,0,7,0,7,0,1,,,,,,,,,,,,
5f111456d672e8471ca03f46,SCN,2024-06-10_15h27.57.314,LearnStrategy,2023.2.3,Win32,59.88023952,5,1,9,-0.233333305,-0.114814829,1,0,0,1.1983,Basalt_14,2,14,3,3,1.198,-0.16851849,-0.265740783,1,0,0,0.9057,Basalt_rect,2,0.906,1,8,0,8,0,1,,,,,,,,,,,,
5f111456d672e8471ca03f46,SCN,2024-06-10_15h27.57.314,LearnStrategy,2023.2.3,Win32,59.88023952,5,1,10,0.262962977,-0.103703746,1,0,0,1.1808,Obsidian_02,5,02,3,6,1.181,-0.368518511,-0.400000042,1,0,0,2.1057,Obsidian_rect,5,2.106,1,9,0,9,0,1,,,,,,,,,,,,
5f111456d672e8471ca03f46,SCN,2024-06-10_15h27.57.314,LearnStrategy,2023.2.3,Win32,59.88023952,5,1,11,-0.390740748,-0.079629651,1,0,0,1.482,Basalt_12,2,12,3,2,1.482,-0.111111111,-0.231481481,1,0,0,1.8735,Basalt_rect,2,1.873,1,10,0,10,0,1,,,,,,,,,,,,
5f111456d672e8471ca03f46,SCN,2024-06-10_15h27.57.314,LearnStrategy,2023.2.3,Win32,59.88023952,5,1,12,-0.602777781,-0.112037023,1,0,0,1.2978,Andesite_04,1,04,3,1,1.298,-0.420370349,-0.251851894,1,0,0,1.0873,Andesite_rect,1,1.087,1,11,0,11,0,1,,,,,,,,,,,,
5f111456d672e8471ca03f46,SCN,2024-06-10_15h27.57.314,LearnStrategy,2023.2.3,Win32,59.88023952,5,1,13,0.431481538,0.080555563,1,0,0,1.6293,Gabbro_16,4,16,4,7,1.629,0.448148233,-0.241666653,1,0,0,1.3211,Gabbro_rect,4,1.321,1,12,0,12,0,1,,,,,,,,,,,,
5f111456d672e8471ca03f46,SCN,2024-06-10_15h27.57.314,LearnStrategy,2023.2.3,Win32,59.88023952,5,1,14,0.251851894,0.10833334,1,0,0,1.665,Andesite_01,1,01,4,6,1.665,-0.357407393,-0.237963005,1,0,0,2.356,Andesite_rect,1,2.356,1,13,0,13,0,1,,,,,,,,,,,,
5f111456d672e8471ca03f46,SCN,2024-06-10_15h27.57.314,LearnStrategy,2023.2.3,Win32,59.88023952,5,1,15,-0.056481467,0.14907406,1,0,0,1.2968,Peridotite_13,7,13,4,4,1.297,0.125925912,-0.400925954,1,0,0,1.1927,Peridotite_rect,7,1.193,1,14,0,14,0,1,,,,,,,,,,,,
5f111456d672e8471ca03f46,SCN,2024-06-10_15h27.57.314,LearnStrategy,2023.2.3,Win32,59.88023952,5,1,16,-0.268518519,0.113888882,1,0,0,1.7814,Diorite_06,3,06,4,3,1.781,0.123148176,-0.271296325,1,0,0,2.7898,Diorite_rect,3,2.79,1,15,0,15,0,1,,,,,,,,,,,,
5f111456d672e8471ca03f46,SCN,2024-06-10_15h27.57.314,LearnStrategy,2023.2.3,Win32,59.88023952,5,2,1,,,,,,,,4,15,,,,,,,,,,,3,5.577,0,,,,,,0.062962991,-0.262037065,1,0,0,5.5766,Diorite_rect,0,0,0,0,1
5f111456d672e8471ca03f46,SCN,2024-06-10_15h27.57.314,LearnStrategy,2023.2.3,Win32,59.88023952,5,2,2,,,,,,,,1,03,,,,,,,,,,,1,1.502,1,,,,,,-0.396296289,-0.268518519,1,0,0,1.5021,Andesite_rect,1,0,1,0,1
5f111456d672e8471ca03f46,SCN,2024-06-10_15h27.57.314,LearnStrategy,2023.2.3,Win32,59.88023952,5,2,3,,,,,,,,7,04,,,,,,,,,,,7,1.891,1,,,,,,0.036111125,-0.395370413,1,0,0,1.8906,Peridotite_rect,2,0,2,0,1
5f111456d672e8471ca03f46,SCN,2024-06-10_15h27.57.314,LearnStrategy,2023.2.3,Win32,59.88023952,5,2,4,,,,,,,,8,16,,,,,,,,,,,8,1.624,1,,,,,,0.333333333,-0.39907406,1,0,0,1.6236,Pumice_rect,3,0,3,0,1
5f111456d672e8471ca03f46,SCN,2024-06-10_15h27.57.314,LearnStrategy,2023.2.3,Win32,59.88023952,5,2,5,,,,,,,,8,08,,,,,,,,,,,8,0.908,1,,,,,,0.333333333,-0.39907406,1,0,0,0.9078,Pumice_rect,4,0,4,0,1
5f111456d672e8471ca03f46,SCN,2024-06-10_15h27.57.314,LearnStrategy,2023.2.3,Win32,59.88023952,5,2,6,,,,,,,,6,09,,,,,,,,,,,6,2.391,1,,,,,,-0.137962977,-0.410185213,1,0,0,2.3908,Pegmatite_rect,5,0,5,0,1
5f111456d672e8471ca03f46,SCN,2024-06-10_15h27.57.314,LearnStrategy,2023.2.3,Win32,59.88023952,5,2,7,,,,,,,,5,10,,,,,,,,,,,5,1.52,1,,,,,,-0.385185171,-0.415740755,1,0,0,1.5197,Obsidian_rect,6,0,6,0,1
5f111456d672e8471ca03f46,SCN,2024-06-10_15h27.57.314,LearnStrategy,2023.2.3,Win32,59.88023952,5,2,8,,,,,,,,6,06,,,,,,,,,,,6,1.608,1,,,,,,-0.157407407,-0.402777778,1,0,0,1.6075,Pegmatite_rect,7,0,7,0,1
5f111456d672e8471ca03f46,SCN,2024-06-10_15h27.57.314,LearnStrategy,2023.2.3,Win32,59.88023952,5,2,9,,,,,,,,2,10,,,,,,,,,,,2,3.84,1,,,,,,-0.090740698,-0.237037023,1,0,0,3.8395,Basalt_rect,8,0,8,0,1
5f111456d672e8471ca03f46,SCN,2024-06-10_15h27.57.314,LearnStrategy,2023.2.3,Win32,59.88023952,5,2,10,,,,,,,,4,12,,,,,,,,,,,4,2.651,1,,,,,,0.358333305,-0.244444459,1,0,0,2.651,Gabbro_rect,9,0,9,0,1
5f111456d672e8471ca03f46,SCN,2024-06-10_15h27.57.314,LearnStrategy,2023.2.3,Win32,59.88023952,5,2,11,,,,,,,,5,04,,,,,,,,,,,5,1.473,1,,,,,,-0.347222222,-0.398148148,1,0,0,1.4732,Obsidian_rect,10,0,10,0,1
5f111456d672e8471ca03f46,SCN,2024-06-10_15h27.57.314,LearnStrategy,2023.2.3,Win32,59.88023952,5,2,12,,,,,,,,2,01,,,,,,,,,,,2,1.558,1,,,,,,-0.045370384,-0.259259259,1,0,0,1.5578,Basalt_rect,11,0,11,0,1
5f111456d672e8471ca03f46,SCN,2024-06-10_15h27.57.314,LearnStrategy,2023.2.3,Win32,59.88023952,5,2,13,,,,,,,,3,02,,,,,,,,,,,3,1.455,1,,,,,,0.116666653,-0.257407436,1,0,0,1.4553,Diorite_rect,12,0,12,0,1
5f111456d672e8471ca03f46,SCN,2024-06-10_15h27.57.314,LearnStrategy,2023.2.3,Win32,59.88023952,5,2,14,,,,,,,,1,11,,,,,,,,,,,1,1.506,1,,,,,,-0.414814808,-0.255555541,1,0,0,1.5065,Andesite_rect,13,0,13,0,1
5f111456d672e8471ca03f46,SCN,2024-06-10_15h27.57.314,LearnStrategy,2023.2.3,Win32,59.88023952,5,2,15,,,,,,,,3,09,,,,,,,,,,,3,1.766,1,,,,,,0.078703704,-0.25,1,0,0,1.7657,Diorite_rect,14,0,14,0,1
5f111456d672e8471ca03f46,SCN,2024-06-10_15h27.57.314,LearnStrategy,2023.2.3,Win32,59.88023952,5,2,16,,,,,,,,7,10,,,,,,,,,,,7,1.693,1,,,,,,0.064814815,-0.411111125,1,0,0,1.6934,Peridotite_rect,15,0,15,0,1
5f111456d672e8471ca03f46,SCN,2024-06-10_15h27.57.314,LearnStrategy,2023.2.3,Win32,59.88023952,6,1,1,-0.097222222,-0.092592593,1,0,0,2.2152,Diorite_07,3,07,3,4,2.215,0.148148148,-0.243518547,1,0,0,9.555,Diorite_rect,3,9.555,1,0,0,0,0,1,,,,,,,,,,,,
5f111456d672e8471ca03f46,SCN,2024-06-10_15h27.57.314,LearnStrategy,2023.2.3,Win32,59.88023952,6,1,2,0.247222265,-0.075925933,1,0,0,2.0114,Obsidian_02,5,02,3,6,2.011,-0.324074074,-0.39907406,1,0,0,1.2874,Obsidian_rect,5,1.287,1,1,0,1,0,1,,,,,,,,,,,,
5f111456d672e8471ca03f46,SCN,2024-06-10_15h27.57.314,LearnStrategy,2023.2.3,Win32,59.88023952,6,1,3,-0.567592586,0.396296298,1,0,0,1.9144,Basalt_11,2,11,6,1,1.914,-0.349999993,-0.233333376,1,0,0,2.8226,Andesite_rect,1,2.823,0,2,0,2,0,1,,,,,,,,,,,,
5f111456d672e8471ca03f46,SCN,2024-06-10_15h27.57.314,LearnStrategy,2023.2.3,Win32,59.88023952,6,1,4,-0.547222208,0.409259257,1,0,0,1.0308,Basalt_11,2,11,6,1,1.031,-0.15370369,-0.229629658,1,0,0,1.345,Basalt_rect,2,1.345,1,3,0,3,0,1,,,,,,,,,,,,
5f111456d672e8471ca03f46,SCN,2024-06-10_15h27.57.314,LearnStrategy,2023.2.3,Win32,59.88023952,6,1,5,-0.364814794,0.396296298,1,0,0,1.028,Andesite_14,1,14,6,2,1.028,-0.325925933,-0.263888889,1,0,0,2.4542,Andesite_rect,1,2.454,1,4,0,4,0,1,,,,,,,,,,,,
5f111456d672e8471ca03f46,SCN,2024-06-10_15h27.57.314,LearnStrategy,2023.2.3,Win32,59.88023952,6,1,6,-0.203703704,0.421296296,1,0,0,1.2319,Diorite_15,3,15,6,3,1.232,0.125925912,-0.252777806,1,0,0,2.5048,Diorite_rect,3,2.505,1,5,0,5,0,1,,,,,,,,,,,,
5f111456d672e8471ca03f46,SCN,2024-06-10_15h27.57.314,LearnStrategy,2023.2.3,Win32,59.88023952,6,1,7,-0.070370356,0.418518517,1,0,0,1.6659,Diorite_08,3,08,6,4,1.666,0.128703718,-0.26944443,1,0,0,1.6605,Diorite_rect,3,1.66,1,6,0,6,0,1,,,,,,,,,,,,
5f111456d672e8471ca03f46,SCN,2024-06-10_15h27.57.314,LearnStrategy,2023.2.3,Win32,59.88023952,6,1,8,0.062962991,0.375,1,0,0,1.4982,Pumice_05,8,05,6,5,1.498,0.346296381,-0.387962977,1,0,0,2.671,Pumice_rect,8,2.671,1,7,0,7,0,1,,,,,,,,,,,,
5f111456d672e8471ca03f46,SCN,2024-06-10_15h27.57.314,LearnStrategy,2023.2.3,Win32,59.88023952,6,1,9,0.204629616,0.404629628,1,0,0,1.2979,Peridotite_14,7,14,6,6,1.298,0.087962963,-0.406481496,1,0,0,5.4882,Peridotite_rect,7,5.488,1,8,0,8,0,1,,,,,,,,,,,,
5f111456d672e8471ca03f46,SCN,2024-06-10_15h27.57.314,LearnStrategy,2023.2.3,Win32,59.88023952,6,1,10,0.401851937,0.404629628,1,0,0,1.4147,Basalt_05,2,05,6,7,1.415,-0.089814787,-0.238888917,1,0,0,1.5063,Basalt_rect,2,1.506,1,9,0,9,0,1,,,,,,,,,,,,
5f111456d672e8471ca03f46,SCN,2024-06-10_15h27.57.314,LearnStrategy,2023.2.3,Win32,59.88023952,6,1,11,0.535185213,0.382407409,1,0,0,1.1149,Obsidian_08,5,08,6,8,1.115,-0.360185164,-0.406481496,1,0,0,2.339,Obsidian_rect,5,2.339,1,10,0,10,0,1,,,,,,,,,,,,
5f111456d672e8471ca03f46,SCN,2024-06-10_15h27.57.314,LearnStrategy,2023.2.3,Win32,59.88023952,6,1,12,-0.562962956,0.279629619,1,0,0,1.2154,Gabbro_14,4,14,5,1,1.215,0.372222194,-0.244444459,1,0,0,3.4884,Gabbro_rect,4,3.488,1,11,0,11,0,1,,,,,,,,,,,,
5f111456d672e8471ca03f46,SCN,2024-06-10_15h27.57.314,LearnStrategy,2023.2.3,Win32,59.88023952,6,1,13,-0.351851852,0.240740741,1,0,0,1.2463,Gabbro_08,4,08,5,2,1.246,-0.37962963,-0.262037065,1,0,0,2.1186,Andesite_rect,1,2.119,0,12,0,12,0,1,,,,,,,,,,,,
5f111456d672e8471ca03f46,SCN,2024-06-10_15h27.57.314,LearnStrategy,2023.2.3,Win32,59.88023952,6,1,14,-0.405555548,0.249074071,1,0,0,1.265,Gabbro_08,4,08,5,2,1.265,0.328703704,-0.228703746,1,0,0,1.2696,Gabbro_rect,4,1.27,1,13,0,13,0,1,,,,,,,,,,,,
5f111456d672e8471ca03f46,SCN,2024-06-10_15h27.57.314,LearnStrategy,2023.2.3,Win32,59.88023952,6,1,15,-0.223148134,0.231481481,1,0,0,1.5142,Basalt_09,2,09,5,3,1.514,-0.107407393,-0.240740741,1,0,0,1.5231,Basalt_rect,2,1.523,1,14,0,14,0,1,,,,,,,,,,,,
5f111456d672e8471ca03f46,SCN,2024-06-10_15h27.57.314,LearnStrategy,2023.2.3,Win32,59.88023952,6,1,16,-0.068518533,0.249074071,1,0,0,1.1321,Pumice_10,8,10,5,4,1.132,0.353703675,-0.407407407,1,0,0,2.0034,Pumice_rect,8,2.003,1,15,0,15,0,1,,,,,,,,,,,,
5f111456d672e8471ca03f46,SCN,2024-06-10_15h27.57.314,LearnStrategy,2023.2.3,Win32,59.88023952,6,2,1,,,,,,,,6,03,,,,,,,,,,,6,1.941,1,,,,,,-0.160185143,-0.397222236,1,0,0,1.9409,Pegmatite_rect,0,0,0,0,1
5f111456d672e8471ca03f46,SCN,2024-06-10_15h27.57.314,LearnStrategy,2023.2.3,Win32,59.88023952,6,2,2,,,,,,,,6,08,,,,,,,,,,,6,0.857,1,,,,,,-0.160185143,-0.397222236,1,0,0,0.8575,Pegmatite_rect,1,0,1,0,1
5f111456d672e8471ca03f46,SCN,2024-06-10_15h27.57.314,LearnStrategy,2023.2.3,Win32,59.88023952,6,2,3,,,,,,,,7,08,,,,,,,,,,,7,1.488,1,,,,,,0.07685188,-0.383333347,1,0,0,1.4882,Peridotite_rect,2,0,2,0,1
5f111456d672e8471ca03f46,SCN,2024-06-10_15h27.57.314,LearnStrategy,2023.2.3,Win32,59.88023952,6,2,4,,,,,,,,1,07,,,,,,,,,,,3,1.241,0,,,,,,0.083333333,-0.262962977,1,0,0,1.2412,Diorite_rect,3,0,3,0,1
5f111456d672e8471ca03f46,SCN,2024-06-10_15h27.57.314,LearnStrategy,2023.2.3,Win32,59.88023952,6,2,5,,,,,,,,5,07,,,,,,,,,,,5,1.637,1,,,,,,-0.41574072,-0.384259259,1,0,0,1.6366,Obsidian_rect,4,0,4,0,1
5f111456d672e8471ca03f46,SCN,2024-06-10_15h27.57.314,LearnStrategy,2023.2.3,Win32,59.88023952,6,2,6,,,,,,,,8,14,,,,,,,,,,,8,1.492,1,,,,,,0.417592649,-0.420370384,1,0,0,1.4916,Pumice_rect,5,0,5,0,1
5f111456d672e8471ca03f46,SCN,2024-06-10_15h27.57.314,LearnStrategy,2023.2.3,Win32,59.88023952,6,2,7,,,,,,,,8,04,,,,,,,,,,,8,1.808,1,,,,,,0.439814815,-0.402777778,1,0,0,1.8076,Pumice_rect,6,0,6,0,1
5f111456d672e8471ca03f46,SCN,2024-06-10_15h27.57.314,LearnStrategy,2023.2.3,Win32,59.88023952,6,2,8,,,,,,,,1,16,,,,,,,,,,,1,2.063,1,,,,,,-0.333333333,-0.250925912,1,0,0,2.0635,Andesite_rect,7,0,7,0,1
5f111456d672e8471ca03f46,SCN,2024-06-10_15h27.57.314,LearnStrategy,2023.2.3,Win32,59.88023952,6,2,9,,,,,,,,3,10,,,,,,,,,,,3,1.501,1,,,,,,0.164814843,-0.268518519,1,0,0,1.5013,Diorite_rect,8,0,8,0,1
5f111456d672e8471ca03f46,SCN,2024-06-10_15h27.57.314,LearnStrategy,2023.2.3,Win32,59.88023952,6,2,10,,,,,,,,5,16,,,,,,,,,,,5,1.44,1,,,,,,-0.396296289,-0.398148148,1,0,0,1.4399,Obsidian_rect,9,0,9,0,1
5f111456d672e8471ca03f46,SCN,2024-06-10_15h27.57.314,LearnStrategy,2023.2.3,Win32,59.88023952,6,2,11,,,,,,,,7,06,,,,,,,,,,,6,2.027,0,,,,,,-0.15370369,-0.413888931,1,0,0,2.0274,Pegmatite_rect,10,0,10,0,1
5f111456d672e8471ca03f46,SCN,2024-06-10_15h27.57.314,LearnStrategy,2023.2.3,Win32,59.88023952,6,2,12,,,,,,,,2,16,,,,,,,,,,,4,2.723,0,,,,,,0.362037094,-0.255555541,1,0,0,2.7228,Gabbro_rect,11,0,11,0,1
5f111456d672e8471ca03f46,SCN,2024-06-10_15h27.57.314,LearnStrategy,2023.2.3,Win32,59.88023952,6,2,13,,,,,,,,2,06,,,,,,,,,,,2,1.92,1,,,,,,-0.081481439,-0.260185171,1,0,0,1.9196,Basalt_rect,12,0,12,0,1
5f111456d672e8471ca03f46,SCN,2024-06-10_15h27.57.314,LearnStrategy,2023.2.3,Win32,59.88023952,6,2,14,,,,,,,,3,16,,,,,,,,,,,3,1.224,1,,,,,,0.138888889,-0.260185171,1,0,0,1.2236,Diorite_rect,13,0,13,0,1
5f111456d672e8471ca03f46,SCN,2024-06-10_15h27.57.314,LearnStrategy,2023.2.3,Win32,59.88023952,6,2,15,,,,,,,,4,09,,,,,,,,,,,2,5.422,0,,,,,,-0.10092594,-0.262962977,1,0,0,5.4224,Basalt_rect,14,0,14,0,1
5f111456d672e8471ca03f46,SCN,2024-06-10_15h27.57.314,LearnStrategy,2023.2.3,Win32,59.88023952,6,2,16,,,,,,,,4,05,,,,,,,,,,,6,3.236,0,,,,,,-0.103703675,-0.421296296,1,0,0,3.236,Pegmatite_rect,15,0,15,0,1
5f111456d672e8471ca03f46,SCN,2024-06-10_15h27.57.314,LearnStrategy,2023.2.3,Win32,59.88023952,7,1,1,-0.085185157,-0.110185199,1,0,0,1.6312,Diorite_07,3,07,3,4,1.631,0.127777806,-0.250925912,1,0,0,3.1307,Diorite_rect,3,3.131,1,0,0,0,0,1,,,,,,,,,,,,
5f111456d672e8471ca03f46,SCN,2024-06-10_15h27.57.314,LearnStrategy,2023.2.3,Win32,59.88023952,7,1,2,-0.248148106,-0.10555557,1,0,0,1.2975,Basalt_14,2,14,3,3,1.298,-0.16851849,-0.243518547,1,0,0,1.8855,Basalt_rect,2,1.885,1,1,0,1,0,1,,,,,,,,,,,,
5f111456d672e8471ca03f46,SCN,2024-06-10_15h27.57.314,LearnStrategy,2023.2.3,Win32,59.88023952,7,1,3,0.363888917,-0.077777792,1,0,0,1.5969,Gabbro_10,4,10,3,7,1.597,0.448148233,-0.237963005,1,0,0,1.706,Gabbro_rect,4,1.706,1,2,0,2,0,1,,,,,,,,,,,,
5f111456d672e8471ca03f46,SCN,2024-06-10_15h27.57.314,LearnStrategy,2023.2.3,Win32,59.88023952,7,1,4,-0.588888875,-0.132407436,1,0,0,1.065,Andesite_04,1,04,3,1,1.065,-0.436111097,-0.241666653,1,0,0,1.9219,Andesite_rect,1,1.922,1,3,0,3,0,1,,,,,,,,,,,,
5f111456d672e8471ca03f46,SCN,2024-06-10_15h27.57.314,LearnStrategy,2023.2.3,Win32,59.88023952,7,1,5,-0.556481467,0.057407414,1,0,0,1.3154,Peridotite_05,7,05,4,1,1.315,0.059259273,-0.410185213,1,0,0,1.9062,Peridotite_rect,7,1.906,1,4,0,4,0,1,,,,,,,,,,,,
5f111456d672e8471ca03f46,SCN,2024-06-10_15h27.57.314,LearnStrategy,2023.2.3,Win32,59.88023952,7,1,6,-0.062037009,-0.260185171,1,0,0,1.4653,Pegmatite_11,6,11,2,4,1.465,-0.181481467,-0.408333319,1,0,0,2.2063,Pegmatite_rect,6,2.206,1,5,0,5,0,1,,,,,,,,,,,,
5f111456d672e8471ca03f46,SCN,2024-06-10_15h27.57.314,LearnStrategy,2023.2.3,Win32,59.88023952,7,1,7,-0.080555527,0.111111111,1,0,0,1.4641,Peridotite_13,7,13,4,4,1.464,0.123148176,-0.392592607,1,0,0,2.7628,Peridotite_rect,7,2.763,1,6,0,6,0,1,,,,,,,,,,,,
5f111456d672e8471ca03f46,SCN,2024-06-10_15h27.57.314,LearnStrategy,2023.2.3,Win32,59.88023952,7,1,8,0.065740727,0.252777771,1,0,0,1.7114,Obsidian_06,5,06,5,5,1.711,-0.361111111,-0.414814843,1,0,0,1.6249,Obsidian_rect,5,1.625,1,7,0,7,0,1,,,,,,,,,,,,
5f111456d672e8471ca03f46,SCN,2024-06-10_15h27.57.314,LearnStrategy,2023.2.3,Win32,59.88023952,7,1,9,-0.125,0.408333328,1,0,0,1.2985,Diorite_08,3,08,6,4,1.298,0.079629616,-0.233333376,1,0,0,1.5394,Diorite_rect,3,1.539,1,8,0,8,0,1,,,,,,,,,,,,
5f111456d672e8471ca03f46,SCN,2024-06-10_15h27.57.314,LearnStrategy,2023.2.3,Win32,59.88023952,7,1,10,0.231481481,0.366666661,1,0,0,1.3653,Peridotite_14,7,14,6,6,1.365,0.135185171,-0.416666667,1,0,0,4.7536,Peridotite_rect,7,4.754,1,9,0,9,0,1,,,,,,,,,,,,
5f111456d672e8471ca03f46,SCN,2024-06-10_15h27.57.314,LearnStrategy,2023.2.3,Win32,59.88023952,7,1,11,-0.214814787,0.38333333,1,0,0,1.4488,Diorite_15,3,15,6,3,1.449,0.083333333,-0.262962977,1,0,0,1.6226,Diorite_rect,3,1.623,1,10,0,10,0,1,,,,,,,,,,,,
5f111456d672e8471ca03f46,SCN,2024-06-10_15h27.57.314,LearnStrategy,2023.2.3,Win32,59.88023952,7,1,12,-0.224074046,0.234259252,1,0,0,1.448,Basalt_09,2,09,5,3,1.448,-0.174074032,-0.240740741,1,0,0,1.1891,Basalt_rect,2,1.189,1,11,0,11,0,1,,,,,,,,,,,,
5f111456d672e8471ca03f46,SCN,2024-06-10_15h27.57.314,LearnStrategy,2023.2.3,Win32,59.88023952,7,1,13,0.536111196,-0.410185213,1,0,0,1.7826,Obsidian_05,5,05,1,8,1.783,-0.414814808,-0.39907406,1,0,0,1.8311,Obsidian_rect,5,1.831,1,12,0,12,0,1,,,,,,,,,,,,
5f111456d672e8471ca03f46,SCN,2024-06-10_15h27.57.314,LearnStrategy,2023.2.3,Win32,59.88023952,7,1,14,-0.560185185,0.233333323,1,0,0,2.8633,Gabbro_14,4,14,5,1,2.863,0.314814815,-0.243518547,1,0,0,2.0567,Gabbro_rect,4,2.057,1,13,0,13,0,1,,,,,,,,,,,,
5f111456d672e8471ca03f46,SCN,2024-06-10_15h27.57.314,LearnStrategy,2023.2.3,Win32,59.88023952,7,1,15,-0.410185178,0.402777778,1,0,0,1.7649,Andesite_14,1,14,6,2,1.765,-0.360185164,-0.229629658,1,0,0,2.3717,Andesite_rect,1,2.372,1,14,0,14,0,1,,,,,,,,,,,,
5f111456d672e8471ca03f46,SCN,2024-06-10_15h27.57.314,LearnStrategy,2023.2.3,Win32,59.88023952,7,1,16,-0.525000007,0.388888889,1,0,0,1.2315,Basalt_11,2,11,6,1,1.231,-0.149999972,-0.268518519,1,0,0,1.8733,Basalt_rect,2,1.873,1,15,0,15,0,1,,,,,,,,,,,,
5f111456d672e8471ca03f46,SCN,2024-06-10_15h27.57.314,LearnStrategy,2023.2.3,Win32,59.88023952,7,2,1,,,,,,,,7,04,,,,,,,,,,,7,1.625,1,,,,,,0.071296339,-0.418518561,1,0,0,1.6255,Peridotite_rect,0,0,0,0,1
5f111456d672e8471ca03f46,SCN,2024-06-10_15h27.57.314,LearnStrategy,2023.2.3,Win32,59.88023952,7,2,2,,,,,,,,1,06,,,,,,,,,,,1,3.471,1,,,,,,-0.368518511,-0.268518519,1,0,0,3.4706,Andesite_rect,1,0,1,0,1
5f111456d672e8471ca03f46,SCN,2024-06-10_15h27.57.314,LearnStrategy,2023.2.3,Win32,59.88023952,7,2,3,,,,,,,,6,12,,,,,,,,,,,6,1.298,1,,,,,,-0.175000014,-0.412037037,1,0,0,1.2975,Pegmatite_rect,2,0,2,0,1
5f111456d672e8471ca03f46,SCN,2024-06-10_15h27.57.314,LearnStrategy,2023.2.3,Win32,59.88023952,7,2,4,,,,,,,,2,01,,,,,,,,,,,2,1.258,1,,,,,,-0.160185143,-0.228703746,1,0,0,1.2579,Basalt_rect,3,0,3,0,1
5f111456d672e8471ca03f46,SCN,2024-06-10_15h27.57.314,LearnStrategy,2023.2.3,Win32,59.88023952,7,2,5,,,,,,,,2,10,,,,,,,,,,,2,1.441,1,,,,,,-0.160185143,-0.228703746,1,0,0,1.4414,Basalt_rect,4,0,4,0,1
5f111456d672e8471ca03f46,SCN,2024-06-10_15h27.57.314,LearnStrategy,2023.2.3,Win32,59.88023952,7,2,6,,,,,,,,4,01,,,,,,,,,,,7,7.738,0,,,,,,0.073148162,-0.391666695,1,0,0,7.7385,Peridotite_rect,5,0,5,0,1
5f111456d672e8471ca03f46,SCN,2024-06-10_15h27.57.314,LearnStrategy,2023.2.3,Win32,59.88023952,7,2,7,,,,,,,,5,16,,,,,,,,,,,5,1.554,1,,,,,,-0.429629608,-0.401851866,1,0,0,1.5541,Obsidian_rect,6,0,6,0,1
5f111456d672e8471ca03f46,SCN,2024-06-10_15h27.57.314,LearnStrategy,2023.2.3,Win32,59.88023952,7,2,8,,,,,,,,6,09,,,,,,,,,,,6,1.292,1,,,,,,-0.138888889,-0.401851866,1,0,0,1.2923,Pegmatite_rect,7,0,7,0,1
5f111456d672e8471ca03f46,SCN,2024-06-10_15h27.57.314,LearnStrategy,2023.2.3,Win32,59.88023952,7,2,9,,,,,,,,7,10,,,,,,,,,,,7,2.248,1,,,,,,0.10555557,-0.402777778,1,0,0,2.2484,Peridotite_rect,8,0,8,0,1
5f111456d672e8471ca03f46,SCN,2024-06-10_15h27.57.314,LearnStrategy,2023.2.3,Win32,59.88023952,7,2,10,,,,,,,,8,08,,,,,,,,,,,8,1.791,1,,,,,,0.349074046,-0.386111153,1,0,0,1.7911,Pumice_rect,9,0,9,0,1
5f111456d672e8471ca03f46,SCN,2024-06-10_15h27.57.314,LearnStrategy,2023.2.3,Win32,59.88023952,7,2,11,,,,,,,,3,02,,,,,,,,,,,3,1.708,1,,,,,,0.176851838,-0.262037065,1,0,0,1.7085,Diorite_rect,10,0,10,0,1
5f111456d672e8471ca03f46,SCN,2024-06-10_15h27.57.314,LearnStrategy,2023.2.3,Win32,59.88023952,7,2,12,,,,,,,,8,16,,,,,,,,,,,8,1.408,1,,,,,,0.323148233,-0.40370369,1,0,0,1.4076,Pumice_rect,11,0,11,0,1
5f111456d672e8471ca03f46,SCN,2024-06-10_15h27.57.314,LearnStrategy,2023.2.3,Win32,59.88023952,7,2,13,,,,,,,,5,14,,,,,,,,,,,5,1.524,1,,,,,,-0.37962963,-0.388888889,1,0,0,1.5241,Obsidian_rect,12,0,12,0,1
5f111456d672e8471ca03f46,SCN,2024-06-10_15h27.57.314,LearnStrategy,2023.2.3,Win32,59.88023952,7,2,14,,,,,,,,3,16,,,,,,,,,,,3,1.591,1,,,,,,0.086111139,-0.256481524,1,0,0,1.5907,Diorite_rect,13,0,13,0,1
5f111456d672e8471ca03f46,SCN,2024-06-10_15h27.57.314,LearnStrategy,2023.2.3,Win32,59.88023952,7,2,15,,,,,,,,4,12,,,,,,,,,,,4,6.256,1,,,,,,0.392592677,-0.240740741,1,0,0,6.2559,Gabbro_rect,14,0,14,0,1
5f111456d672e8471ca03f46,SCN,2024-06-10_15h27.57.314,LearnStrategy,2023.2.3,Win32,59.88023952,7,2,16,,,,,,,,1,03,,,,,,,,,,,1,1.363,1,,,,,,-0.395370377,-0.264814801,1,0,0,1.363,Andesite_rect,15,0,15,0,1
5f111456d672e8471ca03f46,SCN,2024-06-10_15h27.57.314,LearnStrategy,2023.2.3,Win32,59.88023952,8,1,1,-0.118518476,-0.103703746,1,0,0,1.5998,Diorite_07,3,07,3,4,1.6,0.118518547,-0.237963005,1,0,0,2.1734,Diorite_rect,3,2.173,1,0,0,0,0,1,,,,,,,,,,,,
5f111456d672e8471ca03f46,SCN,2024-06-10_15h27.57.314,LearnStrategy,2023.2.3,Win32,59.88023952,8,1,2,-0.240740741,-0.095370399,1,0,0,1.1309,Basalt_14,2,14,3,3,1.131,-0.327777757,-0.240740741,1,0,0,3.2488,Andesite_rect,1,3.249,0,1,0,1,0,1,,,,,,,,,,,,
5f111456d672e8471ca03f46,SCN,2024-06-10_15h27.57.314,LearnStrategy,2023.2.3,Win32,59.88023952,8,1,3,-0.206481439,-0.139814801,1,0,0,1.0981,Basalt_14,2,14,3,3,1.098,-0.163888861,-0.260185171,1,0,0,1.3728,Basalt_rect,2,1.373,1,2,0,2,0,1,,,,,,,,,,,,
5f111456d672e8471ca03f46,SCN,2024-06-10_15h27.57.314,LearnStrategy,2023.2.3,Win32,59.88023952,8,1,4,-0.407407407,-0.117592635,1,0,0,1.2649,Basalt_12,2,12,3,2,1.265,-0.39166666,-0.237037023,1,0,0,1.138,Andesite_rect,1,1.138,0,3,0,3,0,1,,,,,,,,,,,,
5f111456d672e8471ca03f46,SCN,2024-06-10_15h27.57.314,LearnStrategy,2023.2.3,Win32,59.88023952,8,1,5,-0.386111118,-0.09629631,1,0,0,1.3818,Basalt_12,2,12,3,2,1.382,-0.128703718,-0.234259288,1,0,0,1.1303,Basalt_rect,2,1.13,1,4,0,4,0,1,,,,,,,,,,,,
5f111456d672e8471ca03f46,SCN,2024-06-10_15h27.57.314,LearnStrategy,2023.2.3,Win32,59.88023952,8,1,6,-0.530555548,-0.090740734,1,0,0,1.0654,Andesite_04,1,04,3,1,1.065,-0.425925926,-0.231481481,1,0,0,1.3063,Andesite_rect,1,1.306,1,5,0,5,0,1,,,,,,,,,,,,
5f111456d672e8471ca03f46,SCN,2024-06-10_15h27.57.314,LearnStrategy,2023.2.3,Win32,59.88023952,8,1,7,-0.527777778,-0.27870369,1,0,0,2.5483,Pegmatite_16,6,16,2,1,2.548,-0.125925912,-0.401851866,1,0,0,1.8726,Pegmatite_rect,6,1.873,1,6,0,6,0,1,,,,,,,,,,,,
5f111456d672e8471ca03f46,SCN,2024-06-10_15h27.57.314,LearnStrategy,2023.2.3,Win32,59.88023952,8,1,8,-0.387962942,-0.279629672,1,0,0,1.2146,Basalt_02,2,02,2,2,1.215,-0.240740741,-0.263888889,1,0,0,1.52,Basalt_rect,2,1.52,1,7,0,7,0,1,,,,,,,,,,,,
5f111456d672e8471ca03f46,SCN,2024-06-10_15h27.57.314,LearnStrategy,2023.2.3,Win32,59.88023952,8,1,9,-0.223148134,-0.253703718,1,0,0,1.1624,Pumice_06,8,06,2,3,1.162,0.384259259,-0.40370369,1,0,0,1.3243,Pumice_rect,8,1.324,1,8,0,8,0,1,,,,,,,,,,,,
5f111456d672e8471ca03f46,SCN,2024-06-10_15h27.57.314,LearnStrategy,2023.2.3,Win32,59.88023952,8,1,10,0.537963019,0.256481471,1,0,0,1.9146,Pumice_13,8,13,5,8,1.915,0.393518519,-0.389814801,1,0,0,2.4128,Pumice_rect,8,2.413,1,9,0,9,0,1,,,,,,,,,,,,
5f111456d672e8471ca03f46,SCN,2024-06-10_15h27.57.314,LearnStrategy,2023.2.3,Win32,59.88023952,8,1,11,0.501851824,-0.089814822,1,0,0,1.2617,Obsidian_12,5,12,3,8,1.262,-0.298148155,-0.397222236,1,0,0,2.1912,Obsidian_rect,5,2.191,1,10,0,10,0,1,,,,,,,,,,,,
5f111456d672e8471ca03f46,SCN,2024-06-10_15h27.57.314,LearnStrategy,2023.2.3,Win32,59.88023952,8,1,12,0.410185213,0.238888882,1,0,0,1.1811,Pegmatite_15,6,15,5,7,1.181,-0.189814815,-0.421296296,1,0,0,1.2753,Pegmatite_rect,6,1.275,1,11,0,11,0,1,,,,,,,,,,,,
5f111456d672e8471ca03f46,SCN,2024-06-10_15h27.57.314,LearnStrategy,2023.2.3,Win32,59.88023952,8,1,13,0.099074116,0.242592582,1,0,0,1.2981,Obsidian_06,5,06,5,5,1.298,-0.342592593,-0.392592607,1,0,0,1.4899,Obsidian_rect,5,1.49,1,12,0,12,0,1,,,,,,,,,,,,
5f111456d672e8471ca03f46,SCN,2024-06-10_15h27.57.314,LearnStrategy,2023.2.3,Win32,59.88023952,8,1,14,-0.073148162,0.242592582,1,0,0,1.6811,Pumice_10,8,10,5,4,1.681,0.424074102,-0.400925954,1,0,0,1.5621,Pumice_rect,8,1.562,1,13,0,13,0,1,,,,,,,,,,,,
5f111456d672e8471ca03f46,SCN,2024-06-10_15h27.57.314,LearnStrategy,2023.2.3,Win32,59.88023952,8,1,15,-0.253703718,0.235185182,1,0,0,1.6953,Basalt_09,2,09,5,3,1.695,-0.092592593,-0.258333347,1,0,0,2.8406,Basalt_rect,2,2.841,1,14,0,14,0,1,,,,,,,,,,,,
5f111456d672e8471ca03f46,SCN,2024-06-10_15h27.57.314,LearnStrategy,2023.2.3,Win32,59.88023952,8,1,16,-0.407407407,0.24537037,1,0,0,1.3969,Gabbro_08,4,08,5,2,1.397,0.32685188,-0.234259288,1,0,0,1.5725,Gabbro_rect,4,1.572,1,15,0,15,0,1,,,,,,,,,,,,
5f111456d672e8471ca03f46,SCN,2024-06-10_15h27.57.314,LearnStrategy,2023.2.3,Win32,59.88023952,8,2,1,,,,,,,,5,10,,,,,,,,,,,5,1.555,1,,,,,,-0.397222201,-0.40370369,1,0,0,1.5549,Obsidian_rect,0,0,0,0,1
5f111456d672e8471ca03f46,SCN,2024-06-10_15h27.57.314,LearnStrategy,2023.2.3,Win32,59.88023952,8,2,2,,,,,,,,4,09,,,,,,,,,,,4,4.256,1,,,,,,0.402777778,-0.26944443,1,0,0,4.2562,Gabbro_rect,1,0,1,0,1
5f111456d672e8471ca03f46,SCN,2024-06-10_15h27.57.314,LearnStrategy,2023.2.3,Win32,59.88023952,8,2,3,,,,,,,,2,06,,,,,,,,,,,2,1.218,1,,,,,,-0.081481439,-0.249074088,1,0,0,1.2183,Basalt_rect,2,0,2,0,1
5f111456d672e8471ca03f46,SCN,2024-06-10_15h27.57.314,LearnStrategy,2023.2.3,Win32,59.88023952,8,2,4,,,,,,,,6,03,,,,,,,,,,,6,1.808,1,,,,,,-0.116666653,-0.418518561,1,0,0,1.8076,Pegmatite_rect,3,0,3,0,1
5f111456d672e8471ca03f46,SCN,2024-06-10_15h27.57.314,LearnStrategy,2023.2.3,Win32,59.88023952,8,2,5,,,,,,,,1,05,,,,,,,,,,,1,1.558,1,,,,,,-0.316666674,-0.271296325,1,0,0,1.5578,Andesite_rect,4,0,4,0,1
5f111456d672e8471ca03f46,SCN,2024-06-10_15h27.57.314,LearnStrategy,2023.2.3,Win32,59.88023952,8,2,6,,,,,,,,3,14,,,,,,,,,,,3,1.224,1,,,,,,0.070370356,-0.262037065,1,0,0,1.2241,Diorite_rect,5,0,5,0,1
5f111456d672e8471ca03f46,SCN,2024-06-10_15h27.57.314,LearnStrategy,2023.2.3,Win32,59.88023952,8,2,7,,,,,,,,7,16,,,,,,,,,,,7,1.646,1,,,,,,0.082407422,-0.396296325,1,0,0,1.6458,Peridotite_rect,6,0,6,0,1
5f111456d672e8471ca03f46,SCN,2024-06-10_15h27.57.314,LearnStrategy,2023.2.3,Win32,59.88023952,8,2,8,,,,,,,,6,13,,,,,,,,,,,6,1.31,1,,,,,,-0.128703718,-0.386111153,1,0,0,1.3098,Pegmatite_rect,7,0,7,0,1
5f111456d672e8471ca03f46,SCN,2024-06-10_15h27.57.314,LearnStrategy,2023.2.3,Win32,59.88023952,8,2,9,,,,,,,,8,03,,,,,,,,,,,8,1.55,1,,,,,,0.350000028,-0.396296325,1,0,0,1.5496,Pumice_rect,8,0,8,0,1
5f111456d672e8471ca03f46,SCN,2024-06-10_15h27.57.314,LearnStrategy,2023.2.3,Win32,59.88023952,8,2,10,,,,,,,,4,05,,,,,,,,,,,4,3.455,1,,,,,,0.373148176,-0.25462963,1,0,0,3.4554,Gabbro_rect,9,0,9,0,1
5f111456d672e8471ca03f46,SCN,2024-06-10_15h27.57.314,LearnStrategy,2023.2.3,Win32,59.88023952,8,2,11,,,,,,,,3,10,,,,,,,,,,,3,1.661,1,,,,,,0.186111097,-0.252777806,1,0,0,1.6612,Diorite_rect,10,0,10,0,1
5f111456d672e8471ca03f46,SCN,2024-06-10_15h27.57.314,LearnStrategy,2023.2.3,Win32,59.88023952,8,2,12,,,,,,,,5,04,,,,,,,,,,,5,1.45,1,,,,,,-0.372222229,-0.407407407,1,0,0,1.45,Obsidian_rect,11,0,11,0,1
5f111456d672e8471ca03f46,SCN,2024-06-10_15h27.57.314,LearnStrategy,2023.2.3,Win32,59.88023952,8,2,13,,,,,,,,8,15,,,,,,,,,,,8,1.673,1,,,,,,0.36018527,-0.402777778,1,0,0,1.6731,Pumice_rect,12,0,12,0,1
5f111456d672e8471ca03f46,SCN,2024-06-10_15h27.57.314,LearnStrategy,2023.2.3,Win32,59.88023952,8,2,14,,,,,,,,7,08,,,,,,,,,,,7,1.506,1,,,,,,0.103703746,-0.396296325,1,0,0,1.5058,Peridotite_rect,13,0,13,0,1
5f111456d672e8471ca03f46,SCN,2024-06-10_15h27.57.314,LearnStrategy,2023.2.3,Win32,59.88023952,8,2,15,,,,,,,,2,04,,,,,,,,,,,2,1.989,1,,,,,,-0.202777792,-0.255555541,1,0,0,1.9893,Basalt_rect,14,0,14,0,1
5f111456d672e8471ca03f46,SCN,2024-06-10_15h27.57.314,LearnStrategy,2023.2.3,Win32,59.88023952,8,2,16,,,,,,,,1,16,,,,,,,,,,,1,3.506,1,,,,,,-0.327777757,-0.260185171,1,0,0,3.5065,Andesite_rect,15,0,15,0,1
5f111456d672e8471ca03f46,SCN,2024-06-10_15h27.57.314,LearnStrategy,2023.2.3,Win32,59.88023952,9,1,1,-0.077777792,-0.077777792,1,0,0,1.3167,Diorite_07,3,07,3,4,1.317,0.107407393,-0.260185171,1,0,0,1.1898,Diorite_rect,3,1.19,1,0,0,0,0,1,,,,,,,,,,,,
5f111456d672e8471ca03f46,SCN,2024-06-10_15h27.57.314,LearnStrategy,2023.2.3,Win32,59.88023952,9,1,2,0.089814857,-0.124074088,1,0,0,1.7628,Gabbro_11,4,11,3,5,1.763,-0.106481481,-0.270370413,1,0,0,1.1382,Basalt_rect,2,1.138,0,1,0,1,0,1,,,,,,,,,,,,
5f111456d672e8471ca03f46,SCN,2024-06-10_15h27.57.314,LearnStrategy,2023.2.3,Win32,59.88023952,9,1,3,0.050000014,-0.08888891,1,0,0,1.0145,Gabbro_11,4,11,3,5,1.014,0.314814815,-0.242592635,1,0,0,1.3727,Gabbro_rect,4,1.373,1,2,0,2,0,1,,,,,,,,,,,,
5f111456d672e8471ca03f46,SCN,2024-06-10_15h27.57.314,LearnStrategy,2023.2.3,Win32,59.88023952,9,1,4,0.253703718,0.098148134,1,0,0,1.1114,Andesite_01,1,01,4,6,1.111,0.343518575,-0.246296282,1,0,0,4.8041,Gabbro_rect,4,4.804,0,3,0,3,0,1,,,,,,,,,,,,
5f111456d672e8471ca03f46,SCN,2024-06-10_15h27.57.314,LearnStrategy,2023.2.3,Win32,59.88023952,9,1,5,0.381481453,0.101851852,1,0,0,1.7303,Gabbro_16,4,16,4,7,1.73,0.349074046,-0.26944443,1,0,0,1.323,Gabbro_rect,4,1.323,1,4,0,4,0,1,,,,,,,,,,,,
5f111456d672e8471ca03f46,SCN,2024-06-10_15h27.57.314,LearnStrategy,2023.2.3,Win32,59.88023952,9,1,6,0.566666638,0.2574074,1,0,0,2.3148,Pumice_13,8,13,5,8,2.315,0.40833339,-0.39907406,1,0,0,1.1898,Pumice_rect,8,1.19,1,5,0,5,0,1,,,,,,,,,,,,
5f111456d672e8471ca03f46,SCN,2024-06-10_15h27.57.314,LearnStrategy,2023.2.3,Win32,59.88023952,9,1,7,0.24537037,0.240740741,1,0,0,1.6982,Pegmatite_07,6,07,5,6,1.698,-0.186111097,-0.397222236,1,0,0,2.1725,Pegmatite_rect,6,2.172,1,6,0,6,0,1,,,,,,,,,,,,
5f111456d672e8471ca03f46,SCN,2024-06-10_15h27.57.314,LearnStrategy,2023.2.3,Win32,59.88023952,9,1,8,0.198148162,0.087037016,1,0,0,2.3479,Andesite_01,1,01,4,6,2.348,-0.41574072,-0.259259259,1,0,0,1.1398,Andesite_rect,1,1.14,1,7,0,7,0,1,,,,,,,,,,,,
5f111456d672e8471ca03f46,SCN,2024-06-10_15h27.57.314,LearnStrategy,2023.2.3,Win32,59.88023952,9,1,9,-0.261111083,0.093518504,1,0,0,2.4142,Diorite_06,3,06,4,3,2.414,0.110185199,-0.24537037,1,0,0,1.6484,Diorite_rect,3,1.648,1,8,0,8,0,1,,,,,,,,,,,,
5f111456d672e8471ca03f46,SCN,2024-06-10_15h27.57.314,LearnStrategy,2023.2.3,Win32,59.88023952,9,1,10,-0.064814815,0.252777771,1,0,0,1.3977,Pumice_10,8,10,5,4,1.398,0.332407492,-0.383333347,1,0,0,1.4561,Pumice_rect,8,1.456,1,9,0,9,0,1,,,,,,,,,,,,
5f111456d672e8471ca03f46,SCN,2024-06-10_15h27.57.314,LearnStrategy,2023.2.3,Win32,59.88023952,9,1,11,0.534259231,0.417592587,1,0,0,1.2469,Obsidian_08,5,08,6,8,1.247,-0.372222229,-0.412962949,1,0,0,2.0379,Obsidian_rect,5,2.038,1,10,0,10,0,1,,,,,,,,,,,,
5f111456d672e8471ca03f46,SCN,2024-06-10_15h27.57.314,LearnStrategy,2023.2.3,Win32,59.88023952,9,1,12,0.396296325,0.453703704,1,0,0,1.7953,Basalt_05,2,05,6,7,1.795,-0.122222194,-0.244444459,1,0,0,2.1189,Basalt_rect,2,2.119,1,11,0,11,0,1,,,,,,,,,,,,
5f111456d672e8471ca03f46,SCN,2024-06-10_15h27.57.314,LearnStrategy,2023.2.3,Win32,59.88023952,9,1,13,0.063888903,0.399074069,1,0,0,1.898,Pumice_05,8,05,6,5,1.898,0.359259288,-0.387962977,1,0,0,1.3385,Pumice_rect,8,1.339,1,12,0,12,0,1,,,,,,,,,,,,
5f111456d672e8471ca03f46,SCN,2024-06-10_15h27.57.314,LearnStrategy,2023.2.3,Win32,59.88023952,9,1,14,-0.213888875,0.400925928,1,0,0,1.6652,Diorite_15,3,15,6,3,1.665,0.112037023,-0.237037023,1,0,0,1.6225,Diorite_rect,3,1.622,1,13,0,13,0,1,,,,,,,,,,,,
5f111456d672e8471ca03f46,SCN,2024-06-10_15h27.57.314,LearnStrategy,2023.2.3,Win32,59.88023952,9,1,15,-0.366666653,0.37962963,1,0,0,2.4317,Andesite_14,1,14,6,2,2.432,-0.326851845,-0.259259259,1,0,0,1.7554,Andesite_rect,1,1.755,1,14,0,14,0,1,,,,,,,,,,,,
5f111456d672e8471ca03f46,SCN,2024-06-10_15h27.57.314,LearnStrategy,2023.2.3,Win32,59.88023952,9,1,16,-0.549074067,0.402777778,1,0,0,1.3476,Basalt_11,2,11,6,1,1.348,-0.141666624,-0.253703718,1,0,0,1.7226,Basalt_rect,2,1.723,1,15,0,15,0,1,,,,,,,,,,,,
5f111456d672e8471ca03f46,SCN,2024-06-10_15h27.57.314,LearnStrategy,2023.2.3,Win32,59.88023952,9,2,1,,,,,,,,1,07,,,,,,,,,,,3,1.723,0,,,,,,0.148148148,-0.249074088,1,0,0,1.7229,Diorite_rect,0,0,0,0,1
5f111456d672e8471ca03f46,SCN,2024-06-10_15h27.57.314,LearnStrategy,2023.2.3,Win32,59.88023952,9,2,2,,,,,,,,2,16,,,,,,,,,,,4,1.557,0,,,,,,0.307407379,-0.261111153,1,0,0,1.5571,Gabbro_rect,1,0,1,0,1
5f111456d672e8471ca03f46,SCN,2024-06-10_15h27.57.314,LearnStrategy,2023.2.3,Win32,59.88023952,9,2,3,,,,,,,,4,15,,,,,,,,,,,7,5.413,0,,,,,,0.188888903,-0.395370413,1,0,0,5.4128,Peridotite_rect,2,0,2,0,1
5f111456d672e8471ca03f46,SCN,2024-06-10_15h27.57.314,LearnStrategy,2023.2.3,Win32,59.88023952,9,2,4,,,,,,,,6,06,,,,,,,,,,,6,1.566,1,,,,,,-0.099999958,-0.404629672,1,0,0,1.5655,Pegmatite_rect,3,0,3,0,1
5f111456d672e8471ca03f46,SCN,2024-06-10_15h27.57.314,LearnStrategy,2023.2.3,Win32,59.88023952,9,2,5,,,,,,,,3,13,,,,,,,,,,,3,1.659,1,,,,,,0.085185228,-0.249074088,1,0,0,1.6591,Diorite_rect,4,0,4,0,1
5f111456d672e8471ca03f46,SCN,2024-06-10_15h27.57.314,LearnStrategy,2023.2.3,Win32,59.88023952,9,2,6,,,,,,,,4,13,,,,,,,,,,,4,3.608,1,,,,,,0.350926011,-0.23055557,1,0,0,3.608,Gabbro_rect,5,0,5,0,1
5f111456d672e8471ca03f46,SCN,2024-06-10_15h27.57.314,LearnStrategy,2023.2.3,Win32,59.88023952,9,2,7,,,,,,,,3,09,,,,,,,,,,,3,1.915,1,,,,,,0.053703732,-0.25,1,0,0,1.9149,Diorite_rect,6,0,6,0,1
5f111456d672e8471ca03f46,SCN,2024-06-10_15h27.57.314,LearnStrategy,2023.2.3,Win32,59.88023952,9,2,8,,,,,,,,8,04,,,,,,,,,,,8,1.623,1,,,,,,0.313888974,-0.378703718,1,0,0,1.6232,Pumice_rect,7,0,7,0,1
5f111456d672e8471ca03f46,SCN,2024-06-10_15h27.57.314,LearnStrategy,2023.2.3,Win32,59.88023952,9,2,9,,,,,,,,6,08,,,,,,,,,,,6,1.386,1,,,,,,-0.201851809,-0.404629672,1,0,0,1.3858,Pegmatite_rect,8,0,8,0,1
5f111456d672e8471ca03f46,SCN,2024-06-10_15h27.57.314,LearnStrategy,2023.2.3,Win32,59.88023952,9,2,10,,,,,,,,8,14,,,,,,,,,,,8,1.591,1,,,,,,0.312962991,-0.39444443,1,0,0,1.5906,Pumice_rect,9,0,9,0,1
5f111456d672e8471ca03f46,SCN,2024-06-10_15h27.57.314,LearnStrategy,2023.2.3,Win32,59.88023952,9,2,11,,,,,,,,1,11,,,,,,,,,,,1,2.324,1,,,,,,-0.426851838,-0.244444459,1,0,0,2.3237,Andesite_rect,10,0,10,0,1
5f111456d672e8471ca03f46,SCN,2024-06-10_15h27.57.314,LearnStrategy,2023.2.3,Win32,59.88023952,9,2,12,,,,,,,,2,08,,,,,,,,,,,2,1.449,1,,,,,,-0.14907406,-0.262037065,1,0,0,1.4495,Basalt_rect,11,0,11,0,1
5f111456d672e8471ca03f46,SCN,2024-06-10_15h27.57.314,LearnStrategy,2023.2.3,Win32,59.88023952,9,2,13,,,,,,,,5,07,,,,,,,,,,,5,1.306,1,,,,,,-0.361111111,-0.420370384,1,0,0,1.3061,Obsidian_rect,12,0,12,0,1
5f111456d672e8471ca03f46,SCN,2024-06-10_15h27.57.314,LearnStrategy,2023.2.3,Win32,59.88023952,9,2,14,,,,,,,,7,06,,,,,,,,,,,6,1.774,0,,,,,,-0.051851838,-0.40370369,1,0,0,1.774,Pegmatite_rect,13,0,13,0,1
5f111456d672e8471ca03f46,SCN,2024-06-10_15h27.57.314,LearnStrategy,2023.2.3,Win32,59.88023952,9,2,15,,,,,,,,5,11,,,,,,,,,,,5,1.441,1,,,,,,-0.40370369,-0.387037065,1,0,0,1.4413,Obsidian_rect,14,0,14,0,1
5f111456d672e8471ca03f46,SCN,2024-06-10_15h27.57.314,LearnStrategy,2023.2.3,Win32,59.88023952,9,2,16,,,,,,,,7,02,,,,,,,,,,,7,4.273,1,,,,,,0.109259288,-0.412037037,1,0,0,4.2731,Peridotite_rect,15,0,15,0,1
5f111456d672e8471ca03f46,SCN,2024-06-10_15h27.57.314,LearnStrategy,2023.2.3,Win32,59.88023952,,,,,,,,,,,,,,,,,,,,,,,,,,,,,,,,,,,,,,,,,,
5f111456d672e8471ca03f46,SCN,2024-06-10_15h27.57.314,LearnStrategy,2023.2.3,Win32,59.88023952,,,,,,,,,,,,,,,,,,,,,,,,,,,,,,,,,,,,,,,,,,
5f111456d672e8471ca03f46,SCN,2024-06-10_15h27.57.314,LearnStrategy,2023.2.3,Win32,59.88023952,,,,,,,,,,,6,05,1,1,,,,,,,,,,,,,,,,,,,,,,,,,,,,
5f111456d672e8471ca03f46,SCN,2024-06-10_15h27.57.314,LearnStrategy,2023.2.3,Win32,59.88023952,,,,,,,,,,,3,11,1,2,,,,,,,,,,,,,,,,,,,,,,,,,,,,
5f111456d672e8471ca03f46,SCN,2024-06-10_15h27.57.314,LearnStrategy,2023.2.3,Win32,59.88023952,,,,,,,,,,,1,02,1,3,,,,,,,,,,,,,,,,,,,,,,,,,,,,
5f111456d672e8471ca03f46,SCN,2024-06-10_15h27.57.314,LearnStrategy,2023.2.3,Win32,59.88023952,,,,,,,,,,,8,02,1,4,,,,,,,,,,,,,,,,,,,,,,,,,,,,
5f111456d672e8471ca03f46,SCN,2024-06-10_15h27.57.314,LearnStrategy,2023.2.3,Win32,59.88023952,,,,,,,,,,,1,09,1,5,,,,,,,,,,,,,,,,,,,,,,,,,,,,
5f111456d672e8471ca03f46,SCN,2024-06-10_15h27.57.314,LearnStrategy,2023.2.3,Win32,59.88023952,,,,,,,,,,,8,09,1,6,,,,,,,,,,,,,,,,,,,,,,,,,,,,
5f111456d672e8471ca03f46,SCN,2024-06-10_15h27.57.314,LearnStrategy,2023.2.3,Win32,59.88023952,,,,,,,,,,,1,10,1,7,,,,,,,,,,,,,,,,,,,,,,,,,,,,
5f111456d672e8471ca03f46,SCN,2024-06-10_15h27.57.314,LearnStrategy,2023.2.3,Win32,59.88023952,,,,,,,,,,,5,05,1,8,,,,,,,,,,,,,,,,,,,,,,,,,,,,
5f111456d672e8471ca03f46,SCN,2024-06-10_15h27.57.314,LearnStrategy,2023.2.3,Win32,59.88023952,,,,,,,,,,,6,16,2,1,,,,,,,,,,,,,,,,,,,,,,,,,,,,
5f111456d672e8471ca03f46,SCN,2024-06-10_15h27.57.314,LearnStrategy,2023.2.3,Win32,59.88023952,,,,,,,,,,,2,02,2,2,,,,,,,,,,,,,,,,,,,,,,,,,,,,
5f111456d672e8471ca03f46,SCN,2024-06-10_15h27.57.314,LearnStrategy,2023.2.3,Win32,59.88023952,,,,,,,,,,,8,06,2,3,,,,,,,,,,,,,,,,,,,,,,,,,,,,
5f111456d672e8471ca03f46,SCN,2024-06-10_15h27.57.314,LearnStrategy,2023.2.3,Win32,59.88023952,,,,,,,,,,,6,11,2,4,,,,,,,,,,,,,,,,,,,,,,,,,,,,
5f111456d672e8471ca03f46,SCN,2024-06-10_15h27.57.314,LearnStrategy,2023.2.3,Win32,59.88023952,,,,,,,,,,,7,15,2,5,,,,,,,,,,,,,,,,,,,,,,,,,,,,
5f111456d672e8471ca03f46,SCN,2024-06-10_15h27.57.314,LearnStrategy,2023.2.3,Win32,59.88023952,,,,,,,,,,,7,07,2,6,,,,,,,,,,,,,,,,,,,,,,,,,,,,
5f111456d672e8471ca03f46,SCN,2024-06-10_15h27.57.314,LearnStrategy,2023.2.3,Win32,59.88023952,,,,,,,,,,,5,09,2,7,,,,,,,,,,,,,,,,,,,,,,,,,,,,
5f111456d672e8471ca03f46,SCN,2024-06-10_15h27.57.314,LearnStrategy,2023.2.3,Win32,59.88023952,,,,,,,,,,,3,12,2,8,,,,,,,,,,,,,,,,,,,,,,,,,,,,
5f111456d672e8471ca03f46,SCN,2024-06-10_15h27.57.314,LearnStrategy,2023.2.3,Win32,59.88023952,,,,,,,,,,,1,04,3,1,,,,,,,,,,,,,,,,,,,,,,,,,,,,
5f111456d672e8471ca03f46,SCN,2024-06-10_15h27.57.314,LearnStrategy,2023.2.3,Win32,59.88023952,,,,,,,,,,,2,12,3,2,,,,,,,,,,,,,,,,,,,,,,,,,,,,
5f111456d672e8471ca03f46,SCN,2024-06-10_15h27.57.314,LearnStrategy,2023.2.3,Win32,59.88023952,,,,,,,,,,,2,14,3,3,,,,,,,,,,,,,,,,,,,,,,,,,,,,
5f111456d672e8471ca03f46,SCN,2024-06-10_15h27.57.314,LearnStrategy,2023.2.3,Win32,59.88023952,,,,,,,,,,,3,07,3,4,,,,,,,,,,,,,,,,,,,,,,,,,,,,
5f111456d672e8471ca03f46,SCN,2024-06-10_15h27.57.314,LearnStrategy,2023.2.3,Win32,59.88023952,,,,,,,,,,,4,11,3,5,,,,,,,,,,,,,,,,,,,,,,,,,,,,
5f111456d672e8471ca03f46,SCN,2024-06-10_15h27.57.314,LearnStrategy,2023.2.3,Win32,59.88023952,,,,,,,,,,,5,02,3,6,,,,,,,,,,,,,,,,,,,,,,,,,,,,
5f111456d672e8471ca03f46,SCN,2024-06-10_15h27.57.314,LearnStrategy,2023.2.3,Win32,59.88023952,,,,,,,,,,,4,10,3,7,,,,,,,,,,,,,,,,,,,,,,,,,,,,
5f111456d672e8471ca03f46,SCN,2024-06-10_15h27.57.314,LearnStrategy,2023.2.3,Win32,59.88023952,,,,,,,,,,,5,12,3,8,,,,,,,,,,,,,,,,,,,,,,,,,,,,
5f111456d672e8471ca03f46,SCN,2024-06-10_15h27.57.314,LearnStrategy,2023.2.3,Win32,59.88023952,,,,,,,,,,,7,05,4,1,,,,,,,,,,,,,,,,,,,,,,,,,,,,
5f111456d672e8471ca03f46,SCN,2024-06-10_15h27.57.314,LearnStrategy,2023.2.3,Win32,59.88023952,,,,,,,,,,,4,03,4,2,,,,,,,,,,,,,,,,,,,,,,,,,,,,
5f111456d672e8471ca03f46,SCN,2024-06-10_15h27.57.314,LearnStrategy,2023.2.3,Win32,59.88023952,,,,,,,,,,,3,06,4,3,,,,,,,,,,,,,,,,,,,,,,,,,,,,
5f111456d672e8471ca03f46,SCN,2024-06-10_15h27.57.314,LearnStrategy,2023.2.3,Win32,59.88023952,,,,,,,,,,,7,13,4,4,,,,,,,,,,,,,,,,,,,,,,,,,,,,
5f111456d672e8471ca03f46,SCN,2024-06-10_15h27.57.314,LearnStrategy,2023.2.3,Win32,59.88023952,,,,,,,,,,,7,12,4,5,,,,,,,,,,,,,,,,,,,,,,,,,,,,
5f111456d672e8471ca03f46,SCN,2024-06-10_15h27.57.314,LearnStrategy,2023.2.3,Win32,59.88023952,,,,,,,,,,,1,01,4,6,,,,,,,,,,,,,,,,,,,,,,,,,,,,
5f111456d672e8471ca03f46,SCN,2024-06-10_15h27.57.314,LearnStrategy,2023.2.3,Win32,59.88023952,,,,,,,,,,,4,16,4,7,,,,,,,,,,,,,,,,,,,,,,,,,,,,
5f111456d672e8471ca03f46,SCN,2024-06-10_15h27.57.314,LearnStrategy,2023.2.3,Win32,59.88023952,,,,,,,,,,,6,10,4,8,,,,,,,,,,,,,,,,,,,,,,,,,,,,
5f111456d672e8471ca03f46,SCN,2024-06-10_15h27.57.314,LearnStrategy,2023.2.3,Win32,59.88023952,,,,,,,,,,,4,14,5,1,,,,,,,,,,,,,,,,,,,,,,,,,,,,
5f111456d672e8471ca03f46,SCN,2024-06-10_15h27.57.314,LearnStrategy,2023.2.3,Win32,59.88023952,,,,,,,,,,,4,08,5,2,,,,,,,,,,,,,,,,,,,,,,,,,,,,
5f111456d672e8471ca03f46,SCN,2024-06-10_15h27.57.314,LearnStrategy,2023.2.3,Win32,59.88023952,,,,,,,,,,,2,09,5,3,,,,,,,,,,,,,,,,,,,,,,,,,,,,
5f111456d672e8471ca03f46,SCN,2024-06-10_15h27.57.314,LearnStrategy,2023.2.3,Win32,59.88023952,,,,,,,,,,,8,10,5,4,,,,,,,,,,,,,,,,,,,,,,,,,,,,
5f111456d672e8471ca03f46,SCN,2024-06-10_15h27.57.314,LearnStrategy,2023.2.3,Win32,59.88023952,,,,,,,,,,,5,06,5,5,,,,,,,,,,,,,,,,,,,,,,,,,,,,
5f111456d672e8471ca03f46,SCN,2024-06-10_15h27.57.314,LearnStrategy,2023.2.3,Win32,59.88023952,,,,,,,,,,,6,07,5,6,,,,,,,,,,,,,,,,,,,,,,,,,,,,
5f111456d672e8471ca03f46,SCN,2024-06-10_15h27.57.314,LearnStrategy,2023.2.3,Win32,59.88023952,,,,,,,,,,,6,15,5,7,,,,,,,,,,,,,,,,,,,,,,,,,,,,
5f111456d672e8471ca03f46,SCN,2024-06-10_15h27.57.314,LearnStrategy,2023.2.3,Win32,59.88023952,,,,,,,,,,,8,13,5,8,,,,,,,,,,,,,,,,,,,,,,,,,,,,
5f111456d672e8471ca03f46,SCN,2024-06-10_15h27.57.314,LearnStrategy,2023.2.3,Win32,59.88023952,,,,,,,,,,,2,11,6,1,,,,,,,,,,,,,,,,,,,,,,,,,,,,
5f111456d672e8471ca03f46,SCN,2024-06-10_15h27.57.314,LearnStrategy,2023.2.3,Win32,59.88023952,,,,,,,,,,,1,14,6,2,,,,,,,,,,,,,,,,,,,,,,,,,,,,
5f111456d672e8471ca03f46,SCN,2024-06-10_15h27.57.314,LearnStrategy,2023.2.3,Win32,59.88023952,,,,,,,,,,,3,15,6,3,,,,,,,,,,,,,,,,,,,,,,,,,,,,
5f111456d672e8471ca03f46,SCN,2024-06-10_15h27.57.314,LearnStrategy,2023.2.3,Win32,59.88023952,,,,,,,,,,,3,08,6,4,,,,,,,,,,,,,,,,,,,,,,,,,,,,
5f111456d672e8471ca03f46,SCN,2024-06-10_15h27.57.314,LearnStrategy,2023.2.3,Win32,59.88023952,,,,,,,,,,,8,05,6,5,,,,,,,,,,,,,,,,,,,,,,,,,,,,
5f111456d672e8471ca03f46,SCN,2024-06-10_15h27.57.314,LearnStrategy,2023.2.3,Win32,59.88023952,,,,,,,,,,,7,14,6,6,,,,,,,,,,,,,,,,,,,,,,,,,,,,
5f111456d672e8471ca03f46,SCN,2024-06-10_15h27.57.314,LearnStrategy,2023.2.3,Win32,59.88023952,,,,,,,,,,,2,05,6,7,,,,,,,,,,,,,,,,,,,,,,,,,,,,
5f111456d672e8471ca03f46,SCN,2024-06-10_15h27.57.314,LearnStrategy,2023.2.3,Win32,59.88023952,,,,,,,,,,,5,08,6,8,,,,,,,,,,,,,,,,,,,,,,,,,,,,