participant,condition,date,expName,psychopyVersion,OS,frameRate,block,phase,trial,learn_mouse.x,learn_mouse.y,learn_mouse.leftButton,learn_mouse.midButton,learn_mouse.rightButton,learn_mouse.time,learn_mouse.clicked_name,cat,token,row,col,t_select,cat_mouse_l.x,cat_mouse_l.y,cat_mouse_l.leftButton,cat_mouse_l.midButton,cat_mouse_l.rightButton,cat_mouse_l.time,cat_mouse_l.clicked_name,resp,t_resp,corr,train_trials.thisRepN,train_trials.thisTrialN,train_trials.thisN,train_trials.thisIndex,train_trials.ran,cat_mouse_t.x,cat_mouse_t.y,cat_mouse_t.leftButton,cat_mouse_t.midButton,cat_mouse_t.rightButton,cat_mouse_t.time,cat_mouse_t.clicked_name,test_trials.thisRepN,test_trials.thisTrialN,test_trials.thisN,test_trials.thisIndex,test_trials.ran,Bonus
5f326f3697c53601f394368a,SCN,2024-06-21_10h46.45.060,LearnStrategy,2023.2.3,MacIntel,60.60606061,,,,,,,,,,,,,,,,,,,,,,,,,,,,,,,,,,,,,,,,,,,
5f326f3697c53601f394368a,SCN,2024-06-21_10h46.45.060,LearnStrategy,2023.2.3,MacIntel,60.60606061,1,1,1,-0.060390964,-0.122014228,1,0,0,5.3935,Gabbro_16,4,16,3,4,5.393,0.098441026,-0.256941257,1,0,0,3.5381,Diorite_rect,3,3.538,0,0,0,0,0,1,,,,,,,,,,,,,
5f326f3697c53601f394368a,SCN,2024-06-21_10h46.45.060,LearnStrategy,2023.2.3,MacIntel,60.60606061,1,1,2,0.093093058,0.248496314,1,0,0,2.1159,Pumice_08,8,08,5,5,2.116,0.401750488,-0.404770779,1,0,0,2.81,Pumice_rect,8,2.81,1,1,0,1,0,1,,,,,,,,,,,,,
5f326f3697c53601f394368a,SCN,2024-06-21_10h46.45.060,LearnStrategy,2023.2.3,MacIntel,60.60606061,1,1,3,-0.557712046,-0.123586561,1,0,0,3.3832,Basalt_06,2,06,3,1,3.383,0.121570367,-0.23813741,1,0,0,3.1128,Diorite_rect,3,3.113,0,2,0,2,0,1,,,,,,,,,,,,,
5f326f3697c53601f394368a,SCN,2024-06-21_10h46.45.060,LearnStrategy,2023.2.3,MacIntel,60.60606061,1,1,4,-0.530111508,0.248285963,1,0,0,2.5487,Pumice_15,8,15,5,1,2.549,-0.404135844,-0.243094211,1,0,0,1.6398,Andesite_rect,1,1.64,0,3,0,3,0,1,,,,,,,,,,,,,
5f326f3697c53601f394368a,SCN,2024-06-21_10h46.45.060,LearnStrategy,2023.2.3,MacIntel,60.60606061,1,1,5,-0.402328559,-0.434965074,1,0,0,2.566,Obsidian_12,5,12,1,2,2.566,0.121536594,-0.239995321,1,0,0,1.312,Diorite_rect,3,1.312,0,4,0,4,0,1,,,,,,,,,,,,,
5f326f3697c53601f394368a,SCN,2024-06-21_10h46.45.060,LearnStrategy,2023.2.3,MacIntel,60.60606061,1,1,6,0.578713243,0.232391256,1,0,0,1.6996,Obsidian_16,5,16,5,8,1.7,0.430420193,-0.236058078,1,0,0,1.3567,Gabbro_rect,4,1.357,0,5,0,5,0,1,,,,,,,,,,,,,
5f326f3697c53601f394368a,SCN,2024-06-21_10h46.45.060,LearnStrategy,2023.2.3,MacIntel,60.60606061,1,1,7,-0.521738586,-0.246374715,1,0,0,2.1496,Basalt_04,2,04,2,1,2.15,-0.119758979,-0.263016222,1,0,0,1.3209,Basalt_rect,2,1.321,1,6,0,6,0,1,,,,,,,,,,,,,
5f326f3697c53601f394368a,SCN,2024-06-21_10h46.45.060,LearnStrategy,2023.2.3,MacIntel,60.60606061,1,1,8,-0.230253771,-0.256836683,1,0,0,3.6819,Basalt_16,2,16,2,3,3.682,0.105552504,-0.419298638,1,0,0,1.7793,Peridotite_rect,7,1.779,0,7,0,7,0,1,,,,,,,,,,,,,
5f326f3697c53601f394368a,SCN,2024-06-21_10h46.45.060,LearnStrategy,2023.2.3,MacIntel,60.60606061,1,1,9,-0.052427911,0.225656179,1,0,0,1.5322,Obsidian_05,5,05,5,4,1.532,-0.400479262,-0.237975939,1,0,0,1.5575,Andesite_rect,1,1.557,0,8,0,8,0,1,,,,,,,,,,,,,
5f326f3697c53601f394368a,SCN,2024-06-21_10h46.45.060,LearnStrategy,2023.2.3,MacIntel,60.60606061,1,1,10,0.412477078,-0.272281426,1,0,0,3.5819,Pegmatite_03,6,03,2,7,3.582,0.402059326,-0.254575399,1,0,0,9.8109,Gabbro_rect,4,9.811,0,9,0,9,0,1,,,,,,,,,,,,,
5f326f3697c53601f394368a,SCN,2024-06-21_10h46.45.060,LearnStrategy,2023.2.3,MacIntel,60.60606061,1,1,11,-0.192135349,0.405225576,1,0,0,4.0978,Peridotite_13,7,13,6,3,4.098,-0.330233358,-0.406799249,1,0,0,1.5644,Obsidian_rect,5,1.564,0,10,0,10,0,1,,,,,,,,,,,,,
5f326f3697c53601f394368a,SCN,2024-06-21_10h46.45.060,LearnStrategy,2023.2.3,MacIntel,60.60606061,1,1,12,0.256473999,0.225215573,1,0,0,2.0872,Pegmatite_06,6,06,5,6,2.087,0.091746487,-0.252036811,1,0,0,2.8065,Diorite_rect,3,2.806,0,11,0,11,0,1,,,,,,,,,,,,,
5f326f3697c53601f394368a,SCN,2024-06-21_10h46.45.060,LearnStrategy,2023.2.3,MacIntel,60.60606061,1,1,13,0.066294963,-0.249358995,1,0,0,5.9823,Pegmatite_11,6,11,2,5,5.982,-0.080745578,-0.249663561,1,0,0,1.0801,Basalt_rect,2,1.08,0,12,0,12,0,1,,,,,,,,,,,,,
5f326f3697c53601f394368a,SCN,2024-06-21_10h46.45.060,LearnStrategy,2023.2.3,MacIntel,60.60606061,1,1,14,-0.077879232,0.396659495,1,0,0,4.3825,Basalt_02,2,02,6,4,4.383,0.392246908,-0.405715671,1,0,0,1.4759,Pumice_rect,8,1.476,0,13,0,13,0,1,,,,,,,,,,,,,
5f326f3697c53601f394368a,SCN,2024-06-21_10h46.45.060,LearnStrategy,2023.2.3,MacIntel,60.60606061,1,1,15,-0.527321642,0.128384026,1,0,0,2.8326,Pegmatite_12,6,12,4,1,2.833,-0.398609958,-0.378698527,1,0,0,3.3777,Obsidian_rect,5,3.378,0,14,0,14,0,1,,,,,,,,,,,,,
5f326f3697c53601f394368a,SCN,2024-06-21_10h46.45.060,LearnStrategy,2023.2.3,MacIntel,60.60606061,1,1,16,0.240506727,-0.118829888,1,0,0,4.2815,Pegmatite_09,6,09,3,6,4.281,-0.058696018,-0.405562812,1,0,0,1.5652,Pegmatite_rect,6,1.565,1,15,0,15,0,1,,,,,,,,,,,,,
5f326f3697c53601f394368a,SCN,2024-06-21_10h46.45.060,LearnStrategy,2023.2.3,MacIntel,60.60606061,1,2,1,,,,,,,,3,12,,,,,,,,,,,6,2.607,0,,,,,,-0.097909478,-0.403054945,1,0,0,2.6074,Pegmatite_rect,0,0,0,0,1,
5f326f3697c53601f394368a,SCN,2024-06-21_10h46.45.060,LearnStrategy,2023.2.3,MacIntel,60.60606061,1,2,2,,,,,,,,7,05,,,,,,,,,,,5,3.225,0,,,,,,-0.402671882,-0.418098687,1,0,0,3.2253,Obsidian_rect,1,0,1,0,1,
5f326f3697c53601f394368a,SCN,2024-06-21_10h46.45.060,LearnStrategy,2023.2.3,MacIntel,60.60606061,1,2,3,,,,,,,,4,13,,,,,,,,,,,6,3.24,0,,,,,,-0.138341743,-0.409287923,1,0,0,3.2402,Pegmatite_rect,2,0,2,0,1,
5f326f3697c53601f394368a,SCN,2024-06-21_10h46.45.060,LearnStrategy,2023.2.3,MacIntel,60.60606061,1,2,4,,,,,,,,1,11,,,,,,,,,,,8,2.499,0,,,,,,0.340856934,-0.387534654,1,0,0,2.4992,Pumice_rect,3,0,3,0,1,
5f326f3697c53601f394368a,SCN,2024-06-21_10h46.45.060,LearnStrategy,2023.2.3,MacIntel,60.60606061,1,2,5,,,,,,,,5,09,,,,,,,,,,,1,2.944,0,,,,,,-0.302938639,-0.250595771,1,0,0,2.9442,Andesite_rect,4,0,4,0,1,
5f326f3697c53601f394368a,SCN,2024-06-21_10h46.45.060,LearnStrategy,2023.2.3,MacIntel,60.60606061,1,2,6,,,,,,,,4,10,,,,,,,,,,,8,3.861,0,,,,,,0.359330919,-0.392679036,1,0,0,3.861,Pumice_rect,5,0,5,0,1,
5f326f3697c53601f394368a,SCN,2024-06-21_10h46.45.060,LearnStrategy,2023.2.3,MacIntel,60.60606061,1,2,7,,,,,,,,8,16,,,,,,,,,,,2,4.905,0,,,,,,-0.098902181,-0.248614502,1,0,0,4.9053,Basalt_rect,6,0,6,0,1,
5f326f3697c53601f394368a,SCN,2024-06-21_10h46.45.060,LearnStrategy,2023.2.3,MacIntel,60.60606061,1,2,8,,,,,,,,2,05,,,,,,,,,,,6,3.255,0,,,,,,-0.096122504,-0.401329007,1,0,0,3.2553,Pegmatite_rect,7,0,7,0,1,
5f326f3697c53601f394368a,SCN,2024-06-21_10h46.45.060,LearnStrategy,2023.2.3,MacIntel,60.60606061,1,2,9,,,,,,,,8,02,,,,,,,,,,,8,4.839,1,,,,,,0.46828125,-0.417115953,1,0,0,4.8394,Pumice_rect,8,0,8,0,1,
5f326f3697c53601f394368a,SCN,2024-06-21_10h46.45.060,LearnStrategy,2023.2.3,MacIntel,60.60606061,1,2,10,,,,,,,,6,10,,,,,,,,,,,5,6.324,0,,,,,,-0.434402771,-0.420301921,1,0,0,6.3239,Obsidian_rect,9,0,9,0,1,
5f326f3697c53601f394368a,SCN,2024-06-21_10h46.45.060,LearnStrategy,2023.2.3,MacIntel,60.60606061,1,2,11,,,,,,,,2,12,,,,,,,,,,,8,2.677,0,,,,,,0.370825873,-0.413459337,1,0,0,2.6773,Pumice_rect,10,0,10,0,1,
5f326f3697c53601f394368a,SCN,2024-06-21_10h46.45.060,LearnStrategy,2023.2.3,MacIntel,60.60606061,1,2,12,,,,,,,,1,10,,,,,,,,,,,4,2.981,0,,,,,,0.331631605,-0.260479126,1,0,0,2.9814,Gabbro_rect,11,0,11,0,1,
5f326f3697c53601f394368a,SCN,2024-06-21_10h46.45.060,LearnStrategy,2023.2.3,MacIntel,60.60606061,1,2,13,,,,,,,,6,15,,,,,,,,,,,5,6.323,0,,,,,,-0.411854689,-0.4064721,1,0,0,6.3226,Obsidian_rect,12,0,12,0,1,
5f326f3697c53601f394368a,SCN,2024-06-21_10h46.45.060,LearnStrategy,2023.2.3,MacIntel,60.60606061,1,2,14,,,,,,,,7,14,,,,,,,,,,,6,5.874,0,,,,,,-0.096358914,-0.40691196,1,0,0,5.8737,Pegmatite_rect,13,0,13,0,1,
5f326f3697c53601f394368a,SCN,2024-06-21_10h46.45.060,LearnStrategy,2023.2.3,MacIntel,60.60606061,1,2,15,,,,,,,,3,15,,,,,,,,,,,2,7.773,0,,,,,,-0.066964722,-0.244322171,1,0,0,7.7727,Basalt_rect,14,0,14,0,1,
5f326f3697c53601f394368a,SCN,2024-06-21_10h46.45.060,LearnStrategy,2023.2.3,MacIntel,60.60606061,1,2,16,,,,,,,,5,08,,,,,,,,,,,5,3.857,1,,,,,,-0.345488926,-0.386703423,1,0,0,3.8573,Obsidian_rect,15,0,15,0,1,
5f326f3697c53601f394368a,SCN,2024-06-21_10h46.45.060,LearnStrategy,2023.2.3,MacIntel,60.60606061,2,1,1,0.080477973,0.076127116,1,0,0,2.2652,Diorite_14,3,14,4,5,2.265,-0.145144179,-0.408325331,1,0,0,4.9079,Pegmatite_rect,6,4.908,0,0,0,0,0,1,,,,,,,,,,,,,
5f326f3697c53601f394368a,SCN,2024-06-21_10h46.45.060,LearnStrategy,2023.2.3,MacIntel,60.60606061,2,1,2,-0.377874451,0.224674717,1,0,0,2.2133,Peridotite_08,7,08,5,2,2.213,-0.420749613,-0.261030341,1,0,0,1.8441,Andesite_rect,1,1.844,0,1,0,1,0,1,,,,,,,,,,,,,
5f326f3697c53601f394368a,SCN,2024-06-21_10h46.45.060,LearnStrategy,2023.2.3,MacIntel,60.60606061,2,1,3,-0.037301771,0.071136136,1,0,0,1.6155,Obsidian_06,5,06,4,4,1.615,-0.310785183,-0.393191189,1,0,0,4.6948,Obsidian_rect,5,4.695,1,2,0,2,0,1,,,,,,,,,,,,,
5f326f3697c53601f394368a,SCN,2024-06-21_10h46.45.060,LearnStrategy,2023.2.3,MacIntel,60.60606061,2,1,4,0.576114095,-0.26103753,1,0,0,5.2992,Andesite_07,1,07,2,8,5.299,-0.111854248,-0.398742472,1,0,0,5.5212,Pegmatite_rect,6,5.521,0,3,0,3,0,1,,,,,,,,,,,,,
5f326f3697c53601f394368a,SCN,2024-06-21_10h46.45.060,LearnStrategy,2023.2.3,MacIntel,60.60606061,2,1,5,0.073129476,0.272936995,1,0,0,7.4322,Pumice_08,8,08,5,5,7.432,0.380843506,-0.403261922,1,0,0,2.756,Pumice_rect,8,2.756,1,4,0,4,0,1,,,,,,,,,,,,,
5f326f3697c53601f394368a,SCN,2024-06-21_10h46.45.060,LearnStrategy,2023.2.3,MacIntel,60.60606061,2,1,6,0.061786635,-0.245581868,1,0,0,2.9485,Pegmatite_11,6,11,2,5,2.949,-0.173148804,-0.409677395,1,0,0,2.2779,Pegmatite_rect,6,2.278,1,5,0,5,0,1,,,,,,,,,,,,,
5f326f3697c53601f394368a,SCN,2024-06-21_10h46.45.060,LearnStrategy,2023.2.3,MacIntel,60.60606061,2,1,7,0.241910129,0.414027184,1,0,0,1.8665,Basalt_09,2,09,6,6,1.867,0.364465875,-0.378791979,1,0,0,1.3201,Pumice_rect,8,1.32,0,6,0,6,0,1,,,,,,,,,,,,,
5f326f3697c53601f394368a,SCN,2024-06-21_10h46.45.060,LearnStrategy,2023.2.3,MacIntel,60.60606061,2,1,8,-0.093234185,0.066543681,1,0,0,1.2498,Obsidian_06,5,06,4,4,1.25,-0.35564877,-0.414830594,1,0,0,1.1297,Obsidian_rect,5,1.13,1,7,0,7,0,1,,,,,,,,,,,,,
5f326f3697c53601f394368a,SCN,2024-06-21_10h46.45.060,LearnStrategy,2023.2.3,MacIntel,60.60606061,2,1,9,0.084148356,0.082368469,1,0,0,1.3982,Diorite_14,3,14,4,5,1.398,-0.218949788,-0.404092068,1,0,0,0.8937,Pegmatite_rect,6,0.894,0,8,0,8,0,1,,,,,,,,,,,,,
5f326f3697c53601f394368a,SCN,2024-06-21_10h46.45.060,LearnStrategy,2023.2.3,MacIntel,60.60606061,2,1,10,-0.22899197,0.404584927,1,0,0,2.5657,Peridotite_13,7,13,6,3,2.566,-0.322183499,-0.417899102,1,0,0,1.7818,Obsidian_rect,5,1.782,0,9,0,9,0,1,,,,,,,,,,,,,
5f326f3697c53601f394368a,SCN,2024-06-21_10h46.45.060,LearnStrategy,2023.2.3,MacIntel,60.60606061,2,1,11,0.238675808,0.228531782,1,0,0,2.5326,Pegmatite_06,6,06,5,6,2.533,0.107904799,-0.258544651,1,0,0,3.0378,Diorite_rect,3,3.038,0,10,0,10,0,1,,,,,,,,,,,,,
5f326f3697c53601f394368a,SCN,2024-06-21_10h46.45.060,LearnStrategy,2023.2.3,MacIntel,60.60606061,2,1,12,-0.094269952,0.09266744,1,0,0,1.1313,Obsidian_06,5,06,4,4,1.131,-0.368780992,-0.40693651,1,0,0,1.2436,Obsidian_rect,5,1.244,1,11,0,11,0,1,,,,,,,,,,,,,
5f326f3697c53601f394368a,SCN,2024-06-21_10h46.45.060,LearnStrategy,2023.2.3,MacIntel,60.60606061,2,1,13,0.375567763,-0.245917019,1,0,0,1.4652,Pegmatite_03,6,03,2,7,1.465,-0.095806613,-0.391758219,1,0,0,1.8311,Pegmatite_rect,6,1.831,1,12,0,12,0,1,,,,,,,,,,,,,
5f326f3697c53601f394368a,SCN,2024-06-21_10h46.45.060,LearnStrategy,2023.2.3,MacIntel,60.60606061,2,1,14,-0.391014845,-0.279093357,1,0,0,3.8494,Andesite_03,1,03,2,2,3.849,0.371572401,-0.237743191,1,0,0,2.2763,Gabbro_rect,4,2.276,0,13,0,13,0,1,,,,,,,,,,,,,
5f326f3697c53601f394368a,SCN,2024-06-21_10h46.45.060,LearnStrategy,2023.2.3,MacIntel,60.60606061,2,1,15,-0.064113024,0.260708839,1,0,0,3.9659,Obsidian_05,5,05,5,4,3.966,-0.368435669,-0.256367662,1,0,0,1.4125,Andesite_rect,1,1.413,0,14,0,14,0,1,,,,,,,,,,,,,
5f326f3697c53601f394368a,SCN,2024-06-21_10h46.45.060,LearnStrategy,2023.2.3,MacIntel,60.60606061,2,1,16,0.225373739,-0.249445665,1,0,0,2.2494,Obsidian_11,5,11,2,6,2.249,-0.357586297,-0.407620239,1,0,0,1.6765,Obsidian_rect,5,1.677,1,15,0,15,0,1,,,,,,,,,,,,,
5f326f3697c53601f394368a,SCN,2024-06-21_10h46.45.060,LearnStrategy,2023.2.3,MacIntel,60.60606061,2,2,1,,,,,,,,3,08,,,,,,,,,,,6,3.421,0,,,,,,-0.180592041,-0.390481906,1,0,0,3.4209,Pegmatite_rect,0,0,0,0,1,
5f326f3697c53601f394368a,SCN,2024-06-21_10h46.45.060,LearnStrategy,2023.2.3,MacIntel,60.60606061,2,2,2,,,,,,,,1,14,,,,,,,,,,,6,5.678,0,,,,,,-0.150004951,-0.421940782,1,0,0,5.6778,Pegmatite_rect,1,0,1,0,1,
5f326f3697c53601f394368a,SCN,2024-06-21_10h46.45.060,LearnStrategy,2023.2.3,MacIntel,60.60606061,2,2,3,,,,,,,,6,08,,,,,,,,,,,5,1.475,0,,,,,,-0.34345069,-0.420374485,1,0,0,1.4754,Obsidian_rect,2,0,2,0,1,
5f326f3697c53601f394368a,SCN,2024-06-21_10h46.45.060,LearnStrategy,2023.2.3,MacIntel,60.60606061,2,2,4,,,,,,,,7,07,,,,,,,,,,,8,2.806,0,,,,,,0.362986247,-0.39538147,1,0,0,2.8059,Pumice_rect,3,0,3,0,1,
5f326f3697c53601f394368a,SCN,2024-06-21_10h46.45.060,LearnStrategy,2023.2.3,MacIntel,60.60606061,2,2,5,,,,,,,,4,15,,,,,,,,,,,2,6.276,0,,,,,,-0.062179633,-0.240229424,1,0,0,6.2761,Basalt_rect,4,0,4,0,1,
5f326f3697c53601f394368a,SCN,2024-06-21_10h46.45.060,LearnStrategy,2023.2.3,MacIntel,60.60606061,2,2,6,,,,,,,,8,05,,,,,,,,,,,8,6.129,1,,,,,,0.335990194,-0.402679172,1,0,0,6.129,Pumice_rect,5,0,5,0,1,
5f326f3697c53601f394368a,SCN,2024-06-21_10h46.45.060,LearnStrategy,2023.2.3,MacIntel,60.60606061,2,2,7,,,,,,,,1,01,,,,,,,,,,,4,6.296,0,,,,,,0.330813056,-0.257351413,1,0,0,6.2955,Gabbro_rect,6,0,6,0,1,
5f326f3697c53601f394368a,SCN,2024-06-21_10h46.45.060,LearnStrategy,2023.2.3,MacIntel,60.60606061,2,2,8,,,,,,,,2,10,,,,,,,,,,,5,2.942,0,,,,,,-0.357435744,-0.413032091,1,0,0,2.942,Obsidian_rect,7,0,7,0,1,
5f326f3697c53601f394368a,SCN,2024-06-21_10h46.45.060,LearnStrategy,2023.2.3,MacIntel,60.60606061,2,2,9,,,,,,,,4,11,,,,,,,,,,,4,3.145,1,,,,,,0.309820014,-0.239202813,1,0,0,3.1451,Gabbro_rect,8,0,8,0,1,
5f326f3697c53601f394368a,SCN,2024-06-21_10h46.45.060,LearnStrategy,2023.2.3,MacIntel,60.60606061,2,2,10,,,,,,,,5,14,,,,,,,,,,,5,1.645,1,,,,,,-0.391237657,-0.401411472,1,0,0,1.645,Obsidian_rect,9,0,9,0,1,
5f326f3697c53601f394368a,SCN,2024-06-21_10h46.45.060,LearnStrategy,2023.2.3,MacIntel,60.60606061,2,2,11,,,,,,,,3,02,,,,,,,,,,,6,7.765,0,,,,,,-0.133431464,-0.415946859,1,0,0,7.7649,Pegmatite_rect,10,0,10,0,1,
5f326f3697c53601f394368a,SCN,2024-06-21_10h46.45.060,LearnStrategy,2023.2.3,MacIntel,60.60606061,2,2,12,,,,,,,,6,13,,,,,,,,,,,5,2.293,0,,,,,,-0.329071655,-0.413357273,1,0,0,2.2931,Obsidian_rect,11,0,11,0,1,
5f326f3697c53601f394368a,SCN,2024-06-21_10h46.45.060,LearnStrategy,2023.2.3,MacIntel,60.60606061,2,2,13,,,,,,,,2,01,,,,,,,,,,,4,6.295,0,,,,,,0.403605686,-0.248773058,1,0,0,6.2951,Gabbro_rect,12,0,12,0,1,
5f326f3697c53601f394368a,SCN,2024-06-21_10h46.45.060,LearnStrategy,2023.2.3,MacIntel,60.60606061,2,2,14,,,,,,,,5,10,,,,,,,,,,,5,1.863,1,,,,,,-0.338904928,-0.412295261,1,0,0,1.8625,Obsidian_rect,13,0,13,0,1,
5f326f3697c53601f394368a,SCN,2024-06-21_10h46.45.060,LearnStrategy,2023.2.3,MacIntel,60.60606061,2,2,15,,,,,,,,8,06,,,,,,,,,,,8,1.615,1,,,,,,0.401292453,-0.3935692,1,0,0,1.6154,Pumice_rect,14,0,14,0,1,
5f326f3697c53601f394368a,SCN,2024-06-21_10h46.45.060,LearnStrategy,2023.2.3,MacIntel,60.60606061,2,2,16,,,,,,,,7,06,,,,,,,,,,,5,2.389,0,,,,,,-0.312410583,-0.405171441,1,0,0,2.3894,Obsidian_rect,15,0,15,0,1,
5f326f3697c53601f394368a,SCN,2024-06-21_10h46.45.060,LearnStrategy,2023.2.3,MacIntel,60.60606061,3,1,1,0.094681193,0.267119988,1,0,0,2.098,Pumice_08,8,08,5,5,2.098,0.379710151,-0.38542806,1,0,0,1.1444,Pumice_rect,8,1.144,1,0,0,0,0,1,,,,,,,,,,,,,
5f326f3697c53601f394368a,SCN,2024-06-21_10h46.45.060,LearnStrategy,2023.2.3,MacIntel,60.60606061,3,1,2,-0.069148424,0.078953484,1,0,0,1.4153,Obsidian_06,5,06,4,4,1.415,-0.36048211,-0.416978963,1,0,0,1.2827,Obsidian_rect,5,1.283,1,1,0,1,0,1,,,,,,,,,,,,,
5f326f3697c53601f394368a,SCN,2024-06-21_10h46.45.060,LearnStrategy,2023.2.3,MacIntel,60.60606061,3,1,3,-0.377743564,-0.41593438,1,0,0,1.8148,Obsidian_12,5,12,1,2,1.815,-0.369696994,-0.412093777,1,0,0,0.6831,Obsidian_rect,5,0.683,1,2,0,2,0,1,,,,,,,,,,,,,
5f326f3697c53601f394368a,SCN,2024-06-21_10h46.45.060,LearnStrategy,2023.2.3,MacIntel,60.60606061,3,1,4,0.060901828,0.392243398,1,0,0,1.8654,Diorite_13,3,13,6,5,1.865,0.359859619,-0.389957004,1,0,0,3.2611,Pumice_rect,8,3.261,0,3,0,3,0,1,,,,,,,,,,,,,
5f326f3697c53601f394368a,SCN,2024-06-21_10h46.45.060,LearnStrategy,2023.2.3,MacIntel,60.60606061,3,1,5,-0.528665839,0.394286296,1,0,0,1.5819,Pumice_13,8,13,6,1,1.582,0.365675727,-0.403267415,1,0,0,7.4616,Pumice_rect,8,7.462,1,4,0,4,0,1,,,,,,,,,,,,,
5f326f3697c53601f394368a,SCN,2024-06-21_10h46.45.060,LearnStrategy,2023.2.3,MacIntel,60.60606061,3,1,6,-0.404604967,0.404689433,1,0,0,1.1147,Obsidian_04,5,04,6,2,1.115,-0.424366048,-0.386879137,1,0,0,1.1272,Obsidian_rect,5,1.127,1,5,0,5,0,1,,,,,,,,,,,,,
5f326f3697c53601f394368a,SCN,2024-06-21_10h46.45.060,LearnStrategy,2023.2.3,MacIntel,60.60606061,3,1,7,-0.232729458,0.400673998,1,0,0,1.1317,Peridotite_13,7,13,6,3,1.132,-0.11209181,-0.269223294,1,0,0,2.3308,Basalt_rect,2,2.331,0,6,0,6,0,1,,,,,,,,,,,,,
5f326f3697c53601f394368a,SCN,2024-06-21_10h46.45.060,LearnStrategy,2023.2.3,MacIntel,60.60606061,3,1,8,-0.071560262,0.39903617,1,0,0,1.232,Basalt_02,2,02,6,4,1.232,0.084209663,-0.254875149,1,0,0,2.0464,Diorite_rect,3,2.046,0,7,0,7,0,1,,,,,,,,,,,,,
5f326f3697c53601f394368a,SCN,2024-06-21_10h46.45.060,LearnStrategy,2023.2.3,MacIntel,60.60606061,3,1,9,0.222333781,0.399532962,1,0,0,2.298,Basalt_09,2,09,6,6,2.298,0.14304518,-0.257801514,1,0,0,1.8252,Diorite_rect,3,1.825,0,8,0,8,0,1,,,,,,,,,,,,,
5f326f3697c53601f394368a,SCN,2024-06-21_10h46.45.060,LearnStrategy,2023.2.3,MacIntel,60.60606061,3,1,10,-0.061529948,0.398109165,1,0,0,1.1323,Basalt_02,2,02,6,4,1.132,-0.152374403,-0.266840956,1,0,0,1.3669,Basalt_rect,2,1.367,1,9,0,9,0,1,,,,,,,,,,,,,
5f326f3697c53601f394368a,SCN,2024-06-21_10h46.45.060,LearnStrategy,2023.2.3,MacIntel,60.60606061,3,1,11,-0.526210378,0.235759277,1,0,0,2.5223,Pumice_15,8,15,5,1,2.522,0.396414931,-0.383915744,1,0,0,1.3426,Pumice_rect,8,1.343,1,10,0,10,0,1,,,,,,,,,,,,,
5f326f3697c53601f394368a,SCN,2024-06-21_10h46.45.060,LearnStrategy,2023.2.3,MacIntel,60.60606061,3,1,12,-0.383212925,0.254984029,1,0,0,1.6165,Peridotite_08,7,08,5,2,1.616,-0.146058689,-0.257832031,1,0,0,1.5739,Basalt_rect,2,1.574,0,11,0,11,0,1,,,,,,,,,,,,,
5f326f3697c53601f394368a,SCN,2024-06-21_10h46.45.060,LearnStrategy,2023.2.3,MacIntel,60.60606061,3,1,13,-0.265880534,0.272321184,1,0,0,0.9822,Gabbro_09,4,09,5,3,0.982,-0.433761224,-0.378905368,1,0,0,1.4966,Obsidian_rect,5,1.497,0,12,0,12,0,1,,,,,,,,,,,,,
5f326f3697c53601f394368a,SCN,2024-06-21_10h46.45.060,LearnStrategy,2023.2.3,MacIntel,60.60606061,3,1,14,-0.045951063,0.215257263,1,0,0,1.2323,Obsidian_05,5,05,5,4,1.232,-0.342719116,-0.391824409,1,0,0,1.5935,Obsidian_rect,5,1.593,1,13,0,13,0,1,,,,,,,,,,,,,
5f326f3697c53601f394368a,SCN,2024-06-21_10h46.45.060,LearnStrategy,2023.2.3,MacIntel,60.60606061,3,1,15,0.073500705,0.260907118,1,0,0,0.9655,Pumice_08,8,08,5,5,0.966,0.370971815,-0.396088053,1,0,0,2.445,Pumice_rect,8,2.445,1,14,0,14,0,1,,,,,,,,,,,,,
5f326f3697c53601f394368a,SCN,2024-06-21_10h46.45.060,LearnStrategy,2023.2.3,MacIntel,60.60606061,3,1,16,0.226800808,0.257998352,1,0,0,1.3992,Pegmatite_06,6,06,5,6,1.399,-0.361201613,-0.392293226,1,0,0,4.0398,Obsidian_rect,5,4.04,0,15,0,15,0,1,,,,,,,,,,,,,
5f326f3697c53601f394368a,SCN,2024-06-21_10h46.45.060,LearnStrategy,2023.2.3,MacIntel,60.60606061,3,2,1,,,,,,,,4,12,,,,,,,,,,,2,2.76,0,,,,,,-0.122460259,-0.269031576,1,0,0,2.7598,Basalt_rect,0,0,0,0,1,
5f326f3697c53601f394368a,SCN,2024-06-21_10h46.45.060,LearnStrategy,2023.2.3,MacIntel,60.60606061,3,2,2,,,,,,,,7,10,,,,,,,,,,,8,4.683,0,,,,,,0.326977675,-0.416177029,1,0,0,4.6833,Pumice_rect,1,0,1,0,1,
5f326f3697c53601f394368a,SCN,2024-06-21_10h46.45.060,LearnStrategy,2023.2.3,MacIntel,60.60606061,3,2,3,,,,,,,,8,03,,,,,,,,,,,8,1.964,1,,,,,,0.366551378,-0.413218113,1,0,0,1.9644,Pumice_rect,2,0,2,0,1,
5f326f3697c53601f394368a,SCN,2024-06-21_10h46.45.060,LearnStrategy,2023.2.3,MacIntel,60.60606061,3,2,4,,,,,,,,5,07,,,,,,,,,,,5,1.584,1,,,,,,-0.359002245,-0.385631036,1,0,0,1.584,Obsidian_rect,3,0,3,0,1,
5f326f3697c53601f394368a,SCN,2024-06-21_10h46.45.060,LearnStrategy,2023.2.3,MacIntel,60.60606061,3,2,5,,,,,,,,2,08,,,,,,,,,,,4,2.126,0,,,,,,0.374841444,-0.265900743,1,0,0,2.1265,Gabbro_rect,4,0,4,0,1,
5f326f3697c53601f394368a,SCN,2024-06-21_10h46.45.060,LearnStrategy,2023.2.3,MacIntel,60.60606061,3,2,6,,,,,,,,7,15,,,,,,,,,,,7,3.264,1,,,,,,0.101740655,-0.408394911,1,0,0,3.2643,Peridotite_rect,5,0,5,0,1,
5f326f3697c53601f394368a,SCN,2024-06-21_10h46.45.060,LearnStrategy,2023.2.3,MacIntel,60.60606061,3,2,7,,,,,,,,3,07,,,,,,,,,,,8,2.768,0,,,,,,0.326632012,-0.387444526,1,0,0,2.7675,Pumice_rect,6,0,6,0,1,
5f326f3697c53601f394368a,SCN,2024-06-21_10h46.45.060,LearnStrategy,2023.2.3,MacIntel,60.60606061,3,2,8,,,,,,,,3,11,,,,,,,,,,,6,2.646,0,,,,,,-0.192967122,-0.389438205,1,0,0,2.6465,Pegmatite_rect,7,0,7,0,1,
5f326f3697c53601f394368a,SCN,2024-06-21_10h46.45.060,LearnStrategy,2023.2.3,MacIntel,60.60606061,3,2,9,,,,,,,,2,14,,,,,,,,,,,5,1.318,0,,,,,,-0.383389859,-0.394914483,1,0,0,1.3178,Obsidian_rect,8,0,8,0,1,
5f326f3697c53601f394368a,SCN,2024-06-21_10h46.45.060,LearnStrategy,2023.2.3,MacIntel,60.60606061,3,2,10,,,,,,,,6,16,,,,,,,,,,,5,1.384,0,,,,,,-0.383389859,-0.394914483,1,0,0,1.3839,Obsidian_rect,9,0,9,0,1,
5f326f3697c53601f394368a,SCN,2024-06-21_10h46.45.060,LearnStrategy,2023.2.3,MacIntel,60.60606061,3,2,11,,,,,,,,8,10,,,,,,,,,,,3,1.698,0,,,,,,0.043762139,-0.268716634,1,0,0,1.6983,Diorite_rect,10,0,10,0,1,
5f326f3697c53601f394368a,SCN,2024-06-21_10h46.45.060,LearnStrategy,2023.2.3,MacIntel,60.60606061,3,2,12,,,,,,,,5,02,,,,,,,,,,,5,1.346,1,,,,,,-0.34628496,-0.383048706,1,0,0,1.3455,Obsidian_rect,11,0,11,0,1,
5f326f3697c53601f394368a,SCN,2024-06-21_10h46.45.060,LearnStrategy,2023.2.3,MacIntel,60.60606061,3,2,13,,,,,,,,1,05,,,,,,,,,,,7,1.728,0,,,,,,0.157948541,-0.418256768,1,0,0,1.7276,Peridotite_rect,12,0,12,0,1,
5f326f3697c53601f394368a,SCN,2024-06-21_10h46.45.060,LearnStrategy,2023.2.3,MacIntel,60.60606061,3,2,14,,,,,,,,6,05,,,,,,,,,,,6,2.159,1,,,,,,-0.049509616,-0.416345961,1,0,0,2.1595,Pegmatite_rect,13,0,13,0,1,
5f326f3697c53601f394368a,SCN,2024-06-21_10h46.45.060,LearnStrategy,2023.2.3,MacIntel,60.60606061,3,2,15,,,,,,,,4,01,,,,,,,,,,,1,1.577,0,,,,,,-0.354221937,-0.264521281,1,0,0,1.5768,Andesite_rect,14,0,14,0,1,
5f326f3697c53601f394368a,SCN,2024-06-21_10h46.45.060,LearnStrategy,2023.2.3,MacIntel,60.60606061,3,2,16,,,,,,,,1,16,,,,,,,,,,,4,3.491,0,,,,,,0.384503581,-0.235785794,1,0,0,3.4908,Gabbro_rect,15,0,15,0,1,
5f326f3697c53601f394368a,SCN,2024-06-21_10h46.45.060,LearnStrategy,2023.2.3,MacIntel,60.60606061,4,1,1,-0.568946347,0.097098456,1,0,0,1.4151,Pegmatite_12,6,12,4,1,1.415,-0.147650282,-0.254810723,1,0,0,2.5259,Basalt_rect,2,2.526,0,0,0,0,0,1,,,,,,,,,,,,,
5f326f3697c53601f394368a,SCN,2024-06-21_10h46.45.060,LearnStrategy,2023.2.3,MacIntel,60.60606061,4,1,2,-0.37641432,0.103429328,1,0,0,1.183,Pumice_09,8,09,4,2,1.183,0.366243625,-0.400472209,1,0,0,2.0263,Pumice_rect,8,2.026,1,1,0,1,0,1,,,,,,,,,,,,,
5f326f3697c53601f394368a,SCN,2024-06-21_10h46.45.060,LearnStrategy,2023.2.3,MacIntel,60.60606061,4,1,3,-0.232371148,0.102746853,1,0,0,0.8486,Peridotite_12,7,12,4,3,0.849,-0.419665493,-0.38447659,1,0,0,1.6786,Obsidian_rect,5,1.679,0,2,0,2,0,1,,,,,,,,,,,,,
5f326f3697c53601f394368a,SCN,2024-06-21_10h46.45.060,LearnStrategy,2023.2.3,MacIntel,60.60606061,4,1,4,-0.111260037,0.078975898,1,0,0,1.1475,Obsidian_06,5,06,4,4,1.148,-0.379466281,-0.388790894,1,0,0,1.1814,Obsidian_rect,5,1.181,1,3,0,3,0,1,,,,,,,,,,,,,
5f326f3697c53601f394368a,SCN,2024-06-21_10h46.45.060,LearnStrategy,2023.2.3,MacIntel,60.60606061,4,1,5,0.0814839,0.065674744,1,0,0,0.8488,Diorite_14,3,14,4,5,0.849,0.091329888,-0.404049479,1,0,0,2.4666,Peridotite_rect,7,2.467,0,4,0,4,0,1,,,,,,,,,,,,,
5f326f3697c53601f394368a,SCN,2024-06-21_10h46.45.060,LearnStrategy,2023.2.3,MacIntel,60.60606061,4,1,6,0.225550876,0.075584479,1,0,0,1.0647,Gabbro_08,4,08,4,6,1.065,0.36642239,-0.406474813,1,0,0,1.1622,Pumice_rect,8,1.162,0,5,0,5,0,1,,,,,,,,,,,,,
5f326f3697c53601f394368a,SCN,2024-06-21_10h46.45.060,LearnStrategy,2023.2.3,MacIntel,60.60606061,4,1,7,0.407747938,0.069290704,1,0,0,1.3493,Peridotite_16,7,16,4,7,1.349,-0.177966851,-0.267508613,1,0,0,3.204,Basalt_rect,2,3.204,0,6,0,6,0,1,,,,,,,,,,,,,
5f326f3697c53601f394368a,SCN,2024-06-21_10h46.45.060,LearnStrategy,2023.2.3,MacIntel,60.60606061,4,1,8,-0.538899451,-0.085966729,1,0,0,2.4496,Basalt_06,2,06,3,1,2.45,0.312777507,-0.229498291,1,0,0,2.0572,Gabbro_rect,4,2.057,0,7,0,7,0,1,,,,,,,,,,,,,
5f326f3697c53601f394368a,SCN,2024-06-21_10h46.45.060,LearnStrategy,2023.2.3,MacIntel,60.60606061,4,1,9,-0.365667623,-0.108882175,1,0,0,1.3999,Peridotite_02,7,02,3,2,1.4,-0.437190857,-0.40518792,1,0,0,1.6241,Obsidian_rect,5,1.624,0,8,0,8,0,1,,,,,,,,,,,,,
5f326f3697c53601f394368a,SCN,2024-06-21_10h46.45.060,LearnStrategy,2023.2.3,MacIntel,60.60606061,4,1,10,-0.222803752,-0.106539307,1,0,0,1.2318,Peridotite_04,7,04,3,3,1.232,0.078331367,-0.40213562,1,0,0,1.6193,Peridotite_rect,7,1.619,1,9,0,9,0,1,,,,,,,,,,,,,
5f326f3697c53601f394368a,SCN,2024-06-21_10h46.45.060,LearnStrategy,2023.2.3,MacIntel,60.60606061,4,1,11,0.103593886,-0.105662842,1,0,0,1.2829,Basalt_11,2,11,3,5,1.283,-0.09398112,-0.378737861,1,0,0,2.6897,Pegmatite_rect,6,2.69,0,10,0,10,0,1,,,,,,,,,,,,,
5f326f3697c53601f394368a,SCN,2024-06-21_10h46.45.060,LearnStrategy,2023.2.3,MacIntel,60.60606061,4,1,12,0.58195516,-0.110392592,1,0,0,1.4824,Pegmatite_07,6,07,3,8,1.482,0.074388767,-0.38566664,1,0,0,2.0449,Peridotite_rect,7,2.045,0,11,0,11,0,1,,,,,,,,,,,,,
5f326f3697c53601f394368a,SCN,2024-06-21_10h46.45.060,LearnStrategy,2023.2.3,MacIntel,60.60606061,4,1,13,-0.538143107,-0.406879001,1,0,0,1.3152,Gabbro_03,4,03,1,1,1.315,0.161478,-0.412955322,1,0,0,1.8628,Peridotite_rect,7,1.863,0,12,0,12,0,1,,,,,,,,,,,,,
5f326f3697c53601f394368a,SCN,2024-06-21_10h46.45.060,LearnStrategy,2023.2.3,MacIntel,60.60606061,4,1,14,-0.223166707,-0.114890611,1,0,0,1.3481,Peridotite_04,7,04,3,3,1.348,0.06318807,-0.400347833,1,0,0,6.4047,Peridotite_rect,7,6.405,1,13,0,13,0,1,,,,,,,,,,,,,
5f326f3697c53601f394368a,SCN,2024-06-21_10h46.45.060,LearnStrategy,2023.2.3,MacIntel,60.60606061,4,1,15,0.552959934,-0.404384223,1,0,0,1.9649,Pumice_04,8,04,1,8,1.965,0.427527941,-0.38723843,1,0,0,1.4061,Pumice_rect,8,1.406,1,14,0,14,0,1,,,,,,,,,,,,,
5f326f3697c53601f394368a,SCN,2024-06-21_10h46.45.060,LearnStrategy,2023.2.3,MacIntel,60.60606061,4,1,16,0.088399862,-0.121916097,1,0,0,1.3496,Basalt_11,2,11,3,5,1.35,0.3495676,-0.258584663,1,0,0,3.2982,Gabbro_rect,4,3.298,0,15,0,15,0,1,,,,,,,,,,,,,
5f326f3697c53601f394368a,SCN,2024-06-21_10h46.45.060,LearnStrategy,2023.2.3,MacIntel,60.60606061,4,2,1,,,,,,,,5,09,,,,,,,,,,,5,3.43,1,,,,,,-0.444494934,-0.403615044,1,0,0,3.4295,Obsidian_rect,0,0,0,0,1,
5f326f3697c53601f394368a,SCN,2024-06-21_10h46.45.060,LearnStrategy,2023.2.3,MacIntel,60.60606061,4,2,2,,,,,,,,1,11,,,,,,,,,,,6,2.934,0,,,,,,-0.090169542,-0.402477349,1,0,0,2.9337,Pegmatite_rect,1,0,1,0,1,
5f326f3697c53601f394368a,SCN,2024-06-21_10h46.45.060,LearnStrategy,2023.2.3,MacIntel,60.60606061,4,2,3,,,,,,,,4,10,,,,,,,,,,,8,2.246,0,,,,,,0.339596219,-0.399061618,1,0,0,2.2457,Pumice_rect,2,0,2,0,1,
5f326f3697c53601f394368a,SCN,2024-06-21_10h46.45.060,LearnStrategy,2023.2.3,MacIntel,60.60606061,4,2,4,,,,,,,,6,13,,,,,,,,,,,7,1.745,0,,,,,,0.028316989,-0.407214559,1,0,0,1.7451,Peridotite_rect,3,0,3,0,1,
5f326f3697c53601f394368a,SCN,2024-06-21_10h46.45.060,LearnStrategy,2023.2.3,MacIntel,60.60606061,4,2,5,,,,,,,,6,10,,,,,,,,,,,5,2.645,0,,,,,,-0.356657342,-0.412970988,1,0,0,2.6447,Obsidian_rect,4,0,4,0,1,
5f326f3697c53601f394368a,SCN,2024-06-21_10h46.45.060,LearnStrategy,2023.2.3,MacIntel,60.60606061,4,2,6,,,,,,,,1,16,,,,,,,,,,,7,1.868,0,,,,,,0.095979546,-0.403299764,1,0,0,1.8681,Peridotite_rect,5,0,5,0,1,
5f326f3697c53601f394368a,SCN,2024-06-21_10h46.45.060,LearnStrategy,2023.2.3,MacIntel,60.60606061,4,2,7,,,,,,,,4,01,,,,,,,,,,,7,0.897,0,,,,,,0.095979546,-0.403299764,1,0,0,0.8966,Peridotite_rect,6,0,6,0,1,
5f326f3697c53601f394368a,SCN,2024-06-21_10h46.45.060,LearnStrategy,2023.2.3,MacIntel,60.60606061,4,2,8,,,,,,,,2,10,,,,,,,,,,,5,2.109,0,,,,,,-0.361626383,-0.41039232,1,0,0,2.1091,Obsidian_rect,7,0,7,0,1,
5f326f3697c53601f394368a,SCN,2024-06-21_10h46.45.060,LearnStrategy,2023.2.3,MacIntel,60.60606061,4,2,9,,,,,,,,3,11,,,,,,,,,,,7,2.351,0,,,,,,0.08723877,-0.405087348,1,0,0,2.3514,Peridotite_rect,8,0,8,0,1,
5f326f3697c53601f394368a,SCN,2024-06-21_10h46.45.060,LearnStrategy,2023.2.3,MacIntel,60.60606061,4,2,10,,,,,,,,5,07,,,,,,,,,,,5,1.249,1,,,,,,-0.369245978,-0.403086616,1,0,0,1.2489,Obsidian_rect,9,0,9,0,1,
5f326f3697c53601f394368a,SCN,2024-06-21_10h46.45.060,LearnStrategy,2023.2.3,MacIntel,60.60606061,4,2,11,,,,,,,,8,02,,,,,,,,,,,8,2.309,1,,,,,,0.368616808,-0.409442274,1,0,0,2.3089,Pumice_rect,10,0,10,0,1,
5f326f3697c53601f394368a,SCN,2024-06-21_10h46.45.060,LearnStrategy,2023.2.3,MacIntel,60.60606061,4,2,12,,,,,,,,2,14,,,,,,,,,,,1,2.978,0,,,,,,-0.372042914,-0.256267361,1,0,0,2.9775,Andesite_rect,11,0,11,0,1,
5f326f3697c53601f394368a,SCN,2024-06-21_10h46.45.060,LearnStrategy,2023.2.3,MacIntel,60.60606061,4,2,13,,,,,,,,3,12,,,,,,,,,,,7,2.185,0,,,,,,0.112999471,-0.408786214,1,0,0,2.1848,Peridotite_rect,12,0,12,0,1,
5f326f3697c53601f394368a,SCN,2024-06-21_10h46.45.060,LearnStrategy,2023.2.3,MacIntel,60.60606061,4,2,14,,,,,,,,7,14,,,,,,,,,,,8,2.344,0,,,,,,0.334308743,-0.395051541,1,0,0,2.344,Pumice_rect,13,0,13,0,1,
5f326f3697c53601f394368a,SCN,2024-06-21_10h46.45.060,LearnStrategy,2023.2.3,MacIntel,60.60606061,4,2,15,,,,,,,,8,03,,,,,,,,,,,8,3.084,1,,,,,,0.340359294,-0.395718519,1,0,0,3.0836,Pumice_rect,14,0,14,0,1,
5f326f3697c53601f394368a,SCN,2024-06-21_10h46.45.060,LearnStrategy,2023.2.3,MacIntel,60.60606061,4,2,16,,,,,,,,7,07,,,,,,,,,,,7,1.551,1,,,,,,0.104872843,-0.381735433,1,0,0,1.5511,Peridotite_rect,15,0,15,0,1,
5f326f3697c53601f394368a,SCN,2024-06-21_10h46.45.060,LearnStrategy,2023.2.3,MacIntel,60.60606061,5,1,1,0.564941542,-0.413575168,1,0,0,2.3496,Pumice_04,8,04,1,8,2.35,0.463130697,-0.402509698,1,0,0,0.7011,Pumice_rect,8,0.701,1,0,0,0,0,1,,,,,,,,,,,,,
5f326f3697c53601f394368a,SCN,2024-06-21_10h46.45.060,LearnStrategy,2023.2.3,MacIntel,60.60606061,5,1,2,0.412202284,-0.401174588,1,0,0,1.5325,Gabbro_05,4,05,1,7,1.533,0.163145413,-0.387706434,1,0,0,1.7246,Peridotite_rect,7,1.725,0,1,0,1,0,1,,,,,,,,,,,,,
5f326f3697c53601f394368a,SCN,2024-06-21_10h46.45.060,LearnStrategy,2023.2.3,MacIntel,60.60606061,5,1,3,0.068969862,-0.427155287,1,0,0,1.5164,Diorite_06,3,06,1,5,1.516,0.071534085,-0.397605116,1,0,0,1.7413,Peridotite_rect,7,1.741,0,2,0,2,0,1,,,,,,,,,,,,,
5f326f3697c53601f394368a,SCN,2024-06-21_10h46.45.060,LearnStrategy,2023.2.3,MacIntel,60.60606061,5,1,4,-0.105257161,-0.457498237,1,0,0,1.133,Diorite_09,3,09,1,4,1.133,0.161213582,-0.265375637,1,0,0,2.105,Diorite_rect,3,2.105,1,3,0,3,0,1,,,,,,,,,,,,,
5f326f3697c53601f394368a,SCN,2024-06-21_10h46.45.060,LearnStrategy,2023.2.3,MacIntel,60.60606061,5,1,5,-0.244734904,-0.418344184,1,0,0,1.6656,Diorite_16,3,16,1,3,1.666,0.088405626,-0.25622484,1,0,0,1.3641,Diorite_rect,3,1.364,1,4,0,4,0,1,,,,,,,,,,,,,
5f326f3697c53601f394368a,SCN,2024-06-21_10h46.45.060,LearnStrategy,2023.2.3,MacIntel,60.60606061,5,1,6,-0.397599318,-0.394874064,1,0,0,1.1325,Obsidian_12,5,12,1,2,1.133,-0.41320855,-0.404890611,1,0,0,1.0082,Obsidian_rect,5,1.008,1,5,0,5,0,1,,,,,,,,,,,,,
5f326f3697c53601f394368a,SCN,2024-06-21_10h46.45.060,LearnStrategy,2023.2.3,MacIntel,60.60606061,5,1,7,-0.551769528,-0.401738892,1,0,0,0.9986,Gabbro_03,4,03,1,1,0.999,0.097409261,-0.258830905,1,0,0,2.1948,Diorite_rect,3,2.195,0,6,0,6,0,1,,,,,,,,,,,,,
5f326f3697c53601f394368a,SCN,2024-06-21_10h46.45.060,LearnStrategy,2023.2.3,MacIntel,60.60606061,5,1,8,0.579284668,-0.27133138,1,0,0,1.349,Andesite_07,1,07,2,8,1.349,0.124221259,-0.265132921,1,0,0,2.3455,Diorite_rect,3,2.346,0,7,0,7,0,1,,,,,,,,,,,,,
5f326f3697c53601f394368a,SCN,2024-06-21_10h46.45.060,LearnStrategy,2023.2.3,MacIntel,60.60606061,5,1,9,0.251109958,-0.269342041,1,0,0,1.1657,Obsidian_11,5,11,2,6,1.166,-0.379345059,-0.415742391,1,0,0,1.0776,Obsidian_rect,5,1.078,1,8,0,8,0,1,,,,,,,,,,,,,
5f326f3697c53601f394368a,SCN,2024-06-21_10h46.45.060,LearnStrategy,2023.2.3,MacIntel,60.60606061,5,1,10,0.078120728,-0.111653035,1,0,0,2.3824,Basalt_11,2,11,3,5,2.382,0.373680556,-0.381978014,1,0,0,3.216,Pumice_rect,8,3.216,0,9,0,9,0,1,,,,,,,,,,,,,
5f326f3697c53601f394368a,SCN,2024-06-21_10h46.45.060,LearnStrategy,2023.2.3,MacIntel,60.60606061,5,1,11,-0.089405585,-0.073168742,1,0,0,0.9497,Gabbro_16,4,16,3,4,0.95,-0.122990858,-0.2496148,1,0,0,1.814,Basalt_rect,2,1.814,0,10,0,10,0,1,,,,,,,,,,,,,
5f326f3697c53601f394368a,SCN,2024-06-21_10h46.45.060,LearnStrategy,2023.2.3,MacIntel,60.60606061,5,1,12,-0.353304681,-0.081464233,1,0,0,1.4193,Peridotite_02,7,02,3,2,1.419,0.089951714,-0.406222331,1,0,0,2.7082,Peridotite_rect,7,2.708,1,11,0,11,0,1,,,,,,,,,,,,,
5f326f3697c53601f394368a,SCN,2024-06-21_10h46.45.060,LearnStrategy,2023.2.3,MacIntel,60.60606061,5,1,13,0.533067084,0.066200155,1,0,0,1.1802,Pumice_14,8,14,4,8,1.18,0.405878635,-0.414602865,1,0,0,0.9755,Pumice_rect,8,0.976,1,12,0,12,0,1,,,,,,,,,,,,,
5f326f3697c53601f394368a,SCN,2024-06-21_10h46.45.060,LearnStrategy,2023.2.3,MacIntel,60.60606061,5,1,14,0.375462375,0.085781148,1,0,0,1.2977,Peridotite_16,7,16,4,7,1.298,-0.359038086,-0.393686456,1,0,0,2.4203,Obsidian_rect,5,2.42,0,13,0,13,0,1,,,,,,,,,,,,,
5f326f3697c53601f394368a,SCN,2024-06-21_10h46.45.060,LearnStrategy,2023.2.3,MacIntel,60.60606061,5,1,15,0.064428507,0.111885444,1,0,0,1.0812,Diorite_14,3,14,4,5,1.081,0.100697361,-0.416605767,1,0,0,2.4579,Peridotite_rect,7,2.458,0,14,0,14,0,1,,,,,,,,,,,,,
5f326f3697c53601f394368a,SCN,2024-06-21_10h46.45.060,LearnStrategy,2023.2.3,MacIntel,60.60606061,5,1,16,-0.078264092,0.086368137,1,0,0,0.8982,Obsidian_06,5,06,4,4,0.898,-0.361073507,-0.386848891,1,0,0,1.2711,Obsidian_rect,5,1.271,1,15,0,15,0,1,,,,,,,,,,,,,
5f326f3697c53601f394368a,SCN,2024-06-21_10h46.45.060,LearnStrategy,2023.2.3,MacIntel,60.60606061,5,2,1,,,,,,,,8,16,,,,,,,,,,,2,2.444,0,,,,,,-0.084908244,-0.25774231,1,0,0,2.4439,Basalt_rect,0,0,0,0,1,
5f326f3697c53601f394368a,SCN,2024-06-21_10h46.45.060,LearnStrategy,2023.2.3,MacIntel,60.60606061,5,2,2,,,,,,,,2,08,,,,,,,,,,,1,1.991,0,,,,,,-0.349660272,-0.247109307,1,0,0,1.9909,Andesite_rect,1,0,1,0,1,
5f326f3697c53601f394368a,SCN,2024-06-21_10h46.45.060,LearnStrategy,2023.2.3,MacIntel,60.60606061,5,2,3,,,,,,,,5,08,,,,,,,,,,,5,1.539,1,,,,,,-0.408603685,-0.413836602,1,0,0,1.5394,Obsidian_rect,2,0,2,0,1,
5f326f3697c53601f394368a,SCN,2024-06-21_10h46.45.060,LearnStrategy,2023.2.3,MacIntel,60.60606061,5,2,4,,,,,,,,4,11,,,,,,,,,,,2,2.076,0,,,,,,-0.092691989,-0.258404744,1,0,0,2.0763,Basalt_rect,3,0,3,0,1,
5f326f3697c53601f394368a,SCN,2024-06-21_10h46.45.060,LearnStrategy,2023.2.3,MacIntel,60.60606061,5,2,5,,,,,,,,7,10,,,,,,,,,,,3,1.399,0,,,,,,0.10342197,-0.250407647,1,0,0,1.3989,Diorite_rect,4,0,4,0,1,
5f326f3697c53601f394368a,SCN,2024-06-21_10h46.45.060,LearnStrategy,2023.2.3,MacIntel,60.60606061,5,2,6,,,,,,,,4,13,,,,,,,,,,,7,1.874,0,,,,,,0.1126631,-0.388789605,1,0,0,1.8737,Peridotite_rect,5,0,5,0,1,
5f326f3697c53601f394368a,SCN,2024-06-21_10h46.45.060,LearnStrategy,2023.2.3,MacIntel,60.60606061,5,2,7,,,,,,,,3,02,,,,,,,,,,,3,1.565,1,,,,,,0.109822456,-0.254669935,1,0,0,1.5651,Diorite_rect,6,0,6,0,1,
5f326f3697c53601f394368a,SCN,2024-06-21_10h46.45.060,LearnStrategy,2023.2.3,MacIntel,60.60606061,5,2,8,,,,,,,,3,15,,,,,,,,,,,3,0.91,1,,,,,,0.109822456,-0.254669935,1,0,0,0.9098,Diorite_rect,7,0,7,0,1,
5f326f3697c53601f394368a,SCN,2024-06-21_10h46.45.060,LearnStrategy,2023.2.3,MacIntel,60.60606061,5,2,9,,,,,,,,6,08,,,,,,,,,,,5,1.881,0,,,,,,-0.303791538,-0.3948919,1,0,0,1.8813,Obsidian_rect,8,0,8,0,1,
5f326f3697c53601f394368a,SCN,2024-06-21_10h46.45.060,LearnStrategy,2023.2.3,MacIntel,60.60606061,5,2,10,,,,,,,,2,01,,,,,,,,,,,4,3.763,0,,,,,,0.340915663,-0.260011122,1,0,0,3.7628,Gabbro_rect,9,0,9,0,1,
5f326f3697c53601f394368a,SCN,2024-06-21_10h46.45.060,LearnStrategy,2023.2.3,MacIntel,60.60606061,5,2,11,,,,,,,,1,01,,,,,,,,,,,3,2.901,0,,,,,,0.147334866,-0.251225993,1,0,0,2.9012,Diorite_rect,10,0,10,0,1,
5f326f3697c53601f394368a,SCN,2024-06-21_10h46.45.060,LearnStrategy,2023.2.3,MacIntel,60.60606061,5,2,12,,,,,,,,7,06,,,,,,,,,,,3,1.309,0,,,,,,0.147334866,-0.251225993,1,0,0,1.3091,Diorite_rect,11,0,11,0,1,
5f326f3697c53601f394368a,SCN,2024-06-21_10h46.45.060,LearnStrategy,2023.2.3,MacIntel,60.60606061,5,2,13,,,,,,,,5,10,,,,,,,,,,,5,1.329,1,,,,,,-0.343172234,-0.402100423,1,0,0,1.3287,Obsidian_rect,12,0,12,0,1,
5f326f3697c53601f394368a,SCN,2024-06-21_10h46.45.060,LearnStrategy,2023.2.3,MacIntel,60.60606061,5,2,14,,,,,,,,6,15,,,,,,,,,,,5,0.866,0,,,,,,-0.343172234,-0.402100423,1,0,0,0.8657,Obsidian_rect,13,0,13,0,1,
5f326f3697c53601f394368a,SCN,2024-06-21_10h46.45.060,LearnStrategy,2023.2.3,MacIntel,60.60606061,5,2,15,,,,,,,,8,06,,,,,,,,,,,8,1.422,1,,,,,,0.401926405,-0.399938354,1,0,0,1.4218,Pumice_rect,14,0,14,0,1,
5f326f3697c53601f394368a,SCN,2024-06-21_10h46.45.060,LearnStrategy,2023.2.3,MacIntel,60.60606061,5,2,16,,,,,,,,1,05,,,,,,,,,,,3,2.071,0,,,,,,0.176800808,-0.26648607,1,0,0,2.0707,Diorite_rect,15,0,15,0,1,
5f326f3697c53601f394368a,SCN,2024-06-21_10h46.45.060,LearnStrategy,2023.2.3,MacIntel,60.60606061,6,1,1,-0.093996243,0.071633979,1,0,0,1.299,Obsidian_06,5,06,4,4,1.299,-0.424157715,-0.399442681,1,0,0,0.8962,Obsidian_rect,5,0.896,1,0,0,0,0,1,,,,,,,,,,,,,
5f326f3697c53601f394368a,SCN,2024-06-21_10h46.45.060,LearnStrategy,2023.2.3,MacIntel,60.60606061,6,1,2,-0.390609877,0.088432719,1,0,0,1.4479,Pumice_09,8,09,4,2,1.448,0.40484809,-0.392737359,1,0,0,1.8415,Pumice_rect,8,1.841,1,1,0,1,0,1,,,,,,,,,,,,,
5f326f3697c53601f394368a,SCN,2024-06-21_10h46.45.060,LearnStrategy,2023.2.3,MacIntel,60.60606061,6,1,3,-0.070986328,-0.432193943,1,0,0,1.1839,Diorite_09,3,09,1,4,1.184,0.075090129,-0.24641276,1,0,0,1.0249,Diorite_rect,3,1.025,1,2,0,2,0,1,,,,,,,,,,,,,
5f326f3697c53601f394368a,SCN,2024-06-21_10h46.45.060,LearnStrategy,2023.2.3,MacIntel,60.60606061,6,1,4,-0.213247545,-0.407471924,1,0,0,1.1142,Diorite_16,3,16,1,3,1.114,0.043261176,-0.252606337,1,0,0,1.3438,Diorite_rect,3,1.344,1,3,0,3,0,1,,,,,,,,,,,,,
5f326f3697c53601f394368a,SCN,2024-06-21_10h46.45.060,LearnStrategy,2023.2.3,MacIntel,60.60606061,6,1,5,0.06586046,0.416029833,1,0,0,1.6834,Diorite_13,3,13,6,5,1.683,0.076053738,-0.237388238,1,0,0,1.0117,Diorite_rect,3,1.012,1,4,0,4,0,1,,,,,,,,,,,,,
5f326f3697c53601f394368a,SCN,2024-06-21_10h46.45.060,LearnStrategy,2023.2.3,MacIntel,60.60606061,6,1,6,-0.242202962,0.40906801,1,0,0,1.0989,Peridotite_13,7,13,6,3,1.099,0.166430528,-0.387867567,1,0,0,2.7929,Peridotite_rect,7,2.793,1,5,0,5,0,1,,,,,,,,,,,,,
5f326f3697c53601f394368a,SCN,2024-06-21_10h46.45.060,LearnStrategy,2023.2.3,MacIntel,60.60606061,6,1,7,-0.408585917,0.42223999,1,0,0,1.365,Obsidian_04,5,04,6,2,1.365,-0.428012831,-0.414626194,1,0,0,1.1195,Obsidian_rect,5,1.12,1,6,0,6,0,1,,,,,,,,,,,,,
5f326f3697c53601f394368a,SCN,2024-06-21_10h46.45.060,LearnStrategy,2023.2.3,MacIntel,60.60606061,6,1,8,-0.548123203,0.100065138,1,0,0,2.0319,Pegmatite_12,6,12,4,1,2.032,0.04456326,-0.265169135,1,0,0,1.8572,Diorite_rect,3,1.857,0,7,0,7,0,1,,,,,,,,,,,,,
5f326f3697c53601f394368a,SCN,2024-06-21_10h46.45.060,LearnStrategy,2023.2.3,MacIntel,60.60606061,6,1,9,-0.410033095,-0.251511502,1,0,0,1.5493,Andesite_03,1,03,2,2,1.549,-0.131787313,-0.268066813,1,0,0,1.8238,Basalt_rect,2,1.824,0,8,0,8,0,1,,,,,,,,,,,,,
5f326f3697c53601f394368a,SCN,2024-06-21_10h46.45.060,LearnStrategy,2023.2.3,MacIntel,60.60606061,6,1,10,0.388936632,0.214858907,1,0,0,2.3162,Andesite_09,1,09,5,7,2.316,-0.382712979,-0.24706977,1,0,0,1.7407,Andesite_rect,1,1.741,1,9,0,9,0,1,,,,,,,,,,,,,
5f326f3697c53601f394368a,SCN,2024-06-21_10h46.45.060,LearnStrategy,2023.2.3,MacIntel,60.60606061,6,1,11,0.061887275,-0.101318698,1,0,0,1.1829,Basalt_11,2,11,3,5,1.183,-0.358099535,-0.249929742,1,0,0,1.8268,Andesite_rect,1,1.827,0,10,0,10,0,1,,,,,,,,,,,,,
5f326f3697c53601f394368a,SCN,2024-06-21_10h46.45.060,LearnStrategy,2023.2.3,MacIntel,60.60606061,6,1,12,0.389672716,-0.246436632,1,0,0,1.1151,Pegmatite_03,6,03,2,7,1.115,-0.371056824,-0.387680325,1,0,0,2.1973,Obsidian_rect,5,2.197,0,11,0,11,0,1,,,,,,,,,,,,,
5f326f3697c53601f394368a,SCN,2024-06-21_10h46.45.060,LearnStrategy,2023.2.3,MacIntel,60.60606061,6,1,13,0.550899929,-0.254656847,1,0,0,1.3656,Andesite_07,1,07,2,8,1.366,0.18432095,-0.271591526,1,0,0,1.0264,Diorite_rect,3,1.026,0,12,0,12,0,1,,,,,,,,,,,,,
5f326f3697c53601f394368a,SCN,2024-06-21_10h46.45.060,LearnStrategy,2023.2.3,MacIntel,60.60606061,6,1,14,-0.064332343,0.400406731,1,0,0,1.249,Basalt_02,2,02,6,4,1.249,0.117651299,-0.253262736,1,0,0,2.2415,Diorite_rect,3,2.242,0,13,0,13,0,1,,,,,,,,,,,,,
5f326f3697c53601f394368a,SCN,2024-06-21_10h46.45.060,LearnStrategy,2023.2.3,MacIntel,60.60606061,6,1,15,-0.092514581,0.110701463,1,0,0,0.916,Obsidian_06,5,06,4,4,0.916,-0.360724589,-0.394229329,1,0,0,0.8947,Obsidian_rect,5,0.895,1,14,0,14,0,1,,,,,,,,,,,,,
5f326f3697c53601f394368a,SCN,2024-06-21_10h46.45.060,LearnStrategy,2023.2.3,MacIntel,60.60606061,6,1,16,0.067540012,0.245705092,1,0,0,1.265,Pumice_08,8,08,5,5,1.265,0.348221029,-0.394697266,1,0,0,1.1792,Pumice_rect,8,1.179,1,15,0,15,0,1,,,,,,,,,,,,,
5f326f3697c53601f394368a,SCN,2024-06-21_10h46.45.060,LearnStrategy,2023.2.3,MacIntel,60.60606061,6,2,1,,,,,,,,8,10,,,,,,,,,,,3,4.909,0,,,,,,0.092048272,-0.250297309,1,0,0,4.9085,Diorite_rect,0,0,0,0,1,
5f326f3697c53601f394368a,SCN,2024-06-21_10h46.45.060,LearnStrategy,2023.2.3,MacIntel,60.60606061,6,2,2,,,,,,,,4,12,,,,,,,,,,,3,1.302,0,,,,,,0.092048272,-0.250297309,1,0,0,1.3018,Diorite_rect,1,0,1,0,1,
5f326f3697c53601f394368a,SCN,2024-06-21_10h46.45.060,LearnStrategy,2023.2.3,MacIntel,60.60606061,6,2,3,,,,,,,,1,14,,,,,,,,,,,6,2.292,0,,,,,,-0.086011217,-0.407846883,1,0,0,2.2924,Pegmatite_rect,2,0,2,0,1,
5f326f3697c53601f394368a,SCN,2024-06-21_10h46.45.060,LearnStrategy,2023.2.3,MacIntel,60.60606061,6,2,4,,,,,,,,5,02,,,,,,,,,,,5,1.147,1,,,,,,-0.347650045,-0.410382962,1,0,0,1.1471,Obsidian_rect,3,0,3,0,1,
5f326f3697c53601f394368a,SCN,2024-06-21_10h46.45.060,LearnStrategy,2023.2.3,MacIntel,60.60606061,6,2,5,,,,,,,,6,05,,,,,,,,,,,7,4.28,0,,,,,,0.087635973,-0.40778673,1,0,0,4.2803,Peridotite_rect,4,0,4,0,1,
5f326f3697c53601f394368a,SCN,2024-06-21_10h46.45.060,LearnStrategy,2023.2.3,MacIntel,60.60606061,6,2,6,,,,,,,,2,12,,,,,,,,,,,4,2.383,0,,,,,,0.326560669,-0.251889309,1,0,0,2.383,Gabbro_rect,5,0,5,0,1,
5f326f3697c53601f394368a,SCN,2024-06-21_10h46.45.060,LearnStrategy,2023.2.3,MacIntel,60.60606061,6,2,7,,,,,,,,7,15,,,,,,,,,,,3,1.811,0,,,,,,0.072141927,-0.243736165,1,0,0,1.8111,Diorite_rect,6,0,6,0,1,
5f326f3697c53601f394368a,SCN,2024-06-21_10h46.45.060,LearnStrategy,2023.2.3,MacIntel,60.60606061,6,2,8,,,,,,,,3,07,,,,,,,,,,,3,0.846,1,,,,,,0.072141927,-0.243736165,1,0,0,0.846,Diorite_rect,7,0,7,0,1,
5f326f3697c53601f394368a,SCN,2024-06-21_10h46.45.060,LearnStrategy,2023.2.3,MacIntel,60.60606061,6,2,9,,,,,,,,5,14,,,,,,,,,,,5,1.308,1,,,,,,-0.355159776,-0.378716702,1,0,0,1.3078,Obsidian_rect,8,0,8,0,1,
5f326f3697c53601f394368a,SCN,2024-06-21_10h46.45.060,LearnStrategy,2023.2.3,MacIntel,60.60606061,6,2,10,,,,,,,,6,16,,,,,,,,,,,7,2.98,0,,,,,,0.115940552,-0.41675198,1,0,0,2.9805,Peridotite_rect,9,0,9,0,1,
5f326f3697c53601f394368a,SCN,2024-06-21_10h46.45.060,LearnStrategy,2023.2.3,MacIntel,60.60606061,6,2,11,,,,,,,,2,05,,,,,,,,,,,4,1.946,0,,,,,,0.373841824,-0.240257229,1,0,0,1.9459,Gabbro_rect,10,0,10,0,1,
5f326f3697c53601f394368a,SCN,2024-06-21_10h46.45.060,LearnStrategy,2023.2.3,MacIntel,60.60606061,6,2,12,,,,,,,,8,05,,,,,,,,,,,8,1.181,1,,,,,,0.38070204,-0.418185764,1,0,0,1.1808,Pumice_rect,11,0,11,0,1,
5f326f3697c53601f394368a,SCN,2024-06-21_10h46.45.060,LearnStrategy,2023.2.3,MacIntel,60.60606061,6,2,13,,,,,,,,4,15,,,,,,,,,,,8,1.029,0,,,,,,0.38070204,-0.418185764,1,0,0,1.029,Pumice_rect,12,0,12,0,1,
5f326f3697c53601f394368a,SCN,2024-06-21_10h46.45.060,LearnStrategy,2023.2.3,MacIntel,60.60606061,6,2,14,,,,,,,,1,10,,,,,,,,,,,3,2.013,0,,,,,,0.089140964,-0.258957248,1,0,0,2.0128,Diorite_rect,13,0,13,0,1,
5f326f3697c53601f394368a,SCN,2024-06-21_10h46.45.060,LearnStrategy,2023.2.3,MacIntel,60.60606061,6,2,15,,,,,,,,7,05,,,,,,,,,,,3,2.444,0,,,,,,0.086148749,-0.249525486,1,0,0,2.4436,Diorite_rect,14,0,14,0,1,
5f326f3697c53601f394368a,SCN,2024-06-21_10h46.45.060,LearnStrategy,2023.2.3,MacIntel,60.60606061,6,2,16,,,,,,,,3,08,,,,,,,,,,,3,0.877,1,,,,,,0.086148749,-0.249525486,1,0,0,0.8771,Diorite_rect,15,0,15,0,1,
5f326f3697c53601f394368a,SCN,2024-06-21_10h46.45.060,LearnStrategy,2023.2.3,MacIntel,60.60606061,7,1,1,-0.078294203,-0.101199951,1,0,0,1.4507,Gabbro_16,4,16,3,4,1.451,-0.108545329,-0.266004435,1,0,0,3.0536,Basalt_rect,2,3.054,0,0,0,0,0,1,,,,,,,,,,,,,
5f326f3697c53601f394368a,SCN,2024-06-21_10h46.45.060,LearnStrategy,2023.2.3,MacIntel,60.60606061,7,1,2,0.069942356,-0.1193868,1,0,0,0.9304,Basalt_11,2,11,3,5,0.93,0.115958184,-0.257809923,1,0,0,1.6109,Diorite_rect,3,1.611,0,1,0,1,0,1,,,,,,,,,,,,,
5f326f3697c53601f394368a,SCN,2024-06-21_10h46.45.060,LearnStrategy,2023.2.3,MacIntel,60.60606061,7,1,3,0.082802667,-0.079960124,1,0,0,0.8333,Basalt_11,2,11,3,5,0.833,-0.10715488,-0.25426968,1,0,0,0.8473,Basalt_rect,2,0.847,1,2,0,2,0,1,,,,,,,,,,,,,
5f326f3697c53601f394368a,SCN,2024-06-21_10h46.45.060,LearnStrategy,2023.2.3,MacIntel,60.60606061,7,1,4,0.231739977,0.434687805,1,0,0,1.2823,Basalt_09,2,09,6,6,1.282,-0.074848768,-0.246924099,1,0,0,1.1045,Basalt_rect,2,1.104,1,3,0,3,0,1,,,,,,,,,,,,,
5f326f3697c53601f394368a,SCN,2024-06-21_10h46.45.060,LearnStrategy,2023.2.3,MacIntel,60.60606061,7,1,5,0.233000285,-0.424175279,1,0,0,2.2109,Andesite_06,1,06,1,6,2.211,0.086588474,-0.262609456,1,0,0,1.1586,Diorite_rect,3,1.159,0,4,0,4,0,1,,,,,,,,,,,,,
5f326f3697c53601f394368a,SCN,2024-06-21_10h46.45.060,LearnStrategy,2023.2.3,MacIntel,60.60606061,7,1,6,0.542041829,-0.388165351,1,0,0,1.3323,Pumice_04,8,04,1,8,1.332,0.402603353,-0.407469211,1,0,0,0.6963,Pumice_rect,8,0.696,1,5,0,5,0,1,,,,,,,,,,,,,
5f326f3697c53601f394368a,SCN,2024-06-21_10h46.45.060,LearnStrategy,2023.2.3,MacIntel,60.60606061,7,1,7,-0.212897881,-0.447769436,1,0,0,1.7664,Diorite_16,3,16,1,3,1.766,-0.136422662,-0.248873223,1,0,0,0.8627,Basalt_rect,2,0.863,0,6,0,6,0,1,,,,,,,,,,,,,
5f326f3697c53601f394368a,SCN,2024-06-21_10h46.45.060,LearnStrategy,2023.2.3,MacIntel,60.60606061,7,1,8,-0.084699843,0.378314684,1,0,0,2.3322,Basalt_02,2,02,6,4,2.332,0.094604967,-0.244904446,1,0,0,1.3763,Diorite_rect,3,1.376,0,7,0,7,0,1,,,,,,,,,,,,,
5f326f3697c53601f394368a,SCN,2024-06-21_10h46.45.060,LearnStrategy,2023.2.3,MacIntel,60.60606061,7,1,9,0.213635661,0.092088962,1,0,0,1.5665,Gabbro_08,4,08,4,6,1.566,-0.13648112,-0.246628282,1,0,0,1.2778,Basalt_rect,2,1.278,0,8,0,8,0,1,,,,,,,,,,,,,
5f326f3697c53601f394368a,SCN,2024-06-21_10h46.45.060,LearnStrategy,2023.2.3,MacIntel,60.60606061,7,1,10,0.529520671,-0.082894491,1,0,0,1.3323,Pegmatite_07,6,07,3,8,1.332,-0.359452515,-0.384125298,1,0,0,1.276,Obsidian_rect,5,1.276,0,9,0,9,0,1,,,,,,,,,,,,,
5f326f3697c53601f394368a,SCN,2024-06-21_10h46.45.060,LearnStrategy,2023.2.3,MacIntel,60.60606061,7,1,11,0.57039171,0.243367496,1,0,0,1.7495,Obsidian_16,5,16,5,8,1.75,-0.372221341,-0.395627035,1,0,0,1.9941,Obsidian_rect,5,1.994,1,10,0,10,0,1,,,,,,,,,,,,,
5f326f3697c53601f394368a,SCN,2024-06-21_10h46.45.060,LearnStrategy,2023.2.3,MacIntel,60.60606061,7,1,12,-0.203540514,-0.089075317,1,0,0,1.4156,Peridotite_04,7,04,3,3,1.416,-0.365484144,-0.241877102,1,0,0,1.0076,Andesite_rect,1,1.008,0,11,0,11,0,1,,,,,,,,,,,,,
5f326f3697c53601f394368a,SCN,2024-06-21_10h46.45.060,LearnStrategy,2023.2.3,MacIntel,60.60606061,7,1,13,0.068426378,0.392528653,1,0,0,1.2488,Diorite_13,3,13,6,5,1.249,0.069868774,-0.380008274,1,0,0,2.7584,Peridotite_rect,7,2.758,0,12,0,12,0,1,,,,,,,,,,,,,
5f326f3697c53601f394368a,SCN,2024-06-21_10h46.45.060,LearnStrategy,2023.2.3,MacIntel,60.60606061,7,1,14,-0.057812229,0.083849453,1,0,0,0.9487,Obsidian_06,5,06,4,4,0.949,-0.358506775,-0.419046427,1,0,0,0.7866,Obsidian_rect,5,0.787,1,13,0,13,0,1,,,,,,,,,,,,,
5f326f3697c53601f394368a,SCN,2024-06-21_10h46.45.060,LearnStrategy,2023.2.3,MacIntel,60.60606061,7,1,15,-0.381502482,0.091644185,1,0,0,1.2821,Pumice_09,8,09,4,2,1.282,0.356461046,-0.383560588,1,0,0,1.6311,Pumice_rect,8,1.631,1,14,0,14,0,1,,,,,,,,,,,,,
5f326f3697c53601f394368a,SCN,2024-06-21_10h46.45.060,LearnStrategy,2023.2.3,MacIntel,60.60606061,7,1,16,0.245773722,0.23637207,1,0,0,2.4984,Pegmatite_06,6,06,5,6,2.498,0.074599067,-0.399982435,1,0,0,1.8765,Peridotite_rect,7,1.877,0,15,0,15,0,1,,,,,,,,,,,,,
5f326f3697c53601f394368a,SCN,2024-06-21_10h46.45.060,LearnStrategy,2023.2.3,MacIntel,60.60606061,7,2,1,,,,,,,,1,11,,,,,,,,,,,3,1.96,0,,,,,,0.043411323,-0.235517714,1,0,0,1.9597,Diorite_rect,0,0,0,0,1,
5f326f3697c53601f394368a,SCN,2024-06-21_10h46.45.060,LearnStrategy,2023.2.3,MacIntel,60.60606061,7,2,2,,,,,,,,1,10,,,,,,,,,,,3,2.479,0,,,,,,0.047905884,-0.238826226,1,0,0,2.4787,Diorite_rect,1,0,1,0,1,
5f326f3697c53601f394368a,SCN,2024-06-21_10h46.45.060,LearnStrategy,2023.2.3,MacIntel,60.60606061,7,2,3,,,,,,,,7,10,,,,,,,,,,,1,2.142,0,,,,,,-0.346572401,-0.265325453,1,0,0,2.142,Andesite_rect,2,0,2,0,1,
5f326f3697c53601f394368a,SCN,2024-06-21_10h46.45.060,LearnStrategy,2023.2.3,MacIntel,60.60606061,7,2,4,,,,,,,,6,10,,,,,,,,,,,5,1.651,0,,,,,,-0.369673258,-0.419184706,1,0,0,1.6512,Obsidian_rect,3,0,3,0,1,
5f326f3697c53601f394368a,SCN,2024-06-21_10h46.45.060,LearnStrategy,2023.2.3,MacIntel,60.60606061,7,2,5,,,,,,,,3,02,,,,,,,,,,,7,4.023,0,,,,,,0.094588487,-0.413690592,1,0,0,4.0234,Peridotite_rect,4,0,4,0,1,
5f326f3697c53601f394368a,SCN,2024-06-21_10h46.45.060,LearnStrategy,2023.2.3,MacIntel,60.60606061,7,2,6,,,,,,,,2,01,,,,,,,,,,,2,2.533,1,,,,,,-0.101947361,-0.270116374,1,0,0,2.5332,Basalt_rect,5,0,5,0,1,
5f326f3697c53601f394368a,SCN,2024-06-21_10h46.45.060,LearnStrategy,2023.2.3,MacIntel,60.60606061,7,2,7,,,,,,,,8,06,,,,,,,,,,,8,1.61,1,,,,,,0.383515761,-0.403749051,1,0,0,1.6104,Pumice_rect,6,0,6,0,1,
5f326f3697c53601f394368a,SCN,2024-06-21_10h46.45.060,LearnStrategy,2023.2.3,MacIntel,60.60606061,7,2,8,,,,,,,,2,08,,,,,,,,,,,2,1.626,1,,,,,,-0.131678196,-0.269188843,1,0,0,1.6262,Basalt_rect,7,0,7,0,1,
5f326f3697c53601f394368a,SCN,2024-06-21_10h46.45.060,LearnStrategy,2023.2.3,MacIntel,60.60606061,7,2,9,,,,,,,,3,12,,,,,,,,,,,3,2.195,1,,,,,,0.064374254,-0.244745076,1,0,0,2.1948,Diorite_rect,8,0,8,0,1,
5f326f3697c53601f394368a,SCN,2024-06-21_10h46.45.060,LearnStrategy,2023.2.3,MacIntel,60.60606061,7,2,10,,,,,,,,4,11,,,,,,,,,,,7,2.06,0,,,,,,0.077878011,-0.411037598,1,0,0,2.0596,Peridotite_rect,9,0,9,0,1,
5f326f3697c53601f394368a,SCN,2024-06-21_10h46.45.060,LearnStrategy,2023.2.3,MacIntel,60.60606061,7,2,11,,,,,,,,5,02,,,,,,,,,,,5,1.326,1,,,,,,-0.332703654,-0.419632636,1,0,0,1.3264,Obsidian_rect,10,0,10,0,1,
5f326f3697c53601f394368a,SCN,2024-06-21_10h46.45.060,LearnStrategy,2023.2.3,MacIntel,60.60606061,7,2,12,,,,,,,,4,10,,,,,,,,,,,2,1.447,0,,,,,,-0.143808255,-0.245367432,1,0,0,1.4467,Basalt_rect,11,0,11,0,1,
5f326f3697c53601f394368a,SCN,2024-06-21_10h46.45.060,LearnStrategy,2023.2.3,MacIntel,60.60606061,7,2,13,,,,,,,,8,10,,,,,,,,,,,8,1.514,1,,,,,,0.355440267,-0.400856662,1,0,0,1.5145,Pumice_rect,12,0,12,0,1,
5f326f3697c53601f394368a,SCN,2024-06-21_10h46.45.060,LearnStrategy,2023.2.3,MacIntel,60.60606061,7,2,14,,,,,,,,6,08,,,,,,,,,,,5,1.292,0,,,,,,-0.331925286,-0.38924018,1,0,0,1.2919,Obsidian_rect,13,0,13,0,1,
5f326f3697c53601f394368a,SCN,2024-06-21_10h46.45.060,LearnStrategy,2023.2.3,MacIntel,60.60606061,7,2,15,,,,,,,,5,14,,,,,,,,,,,5,0.873,1,,,,,,-0.331925286,-0.38924018,1,0,0,0.8735,Obsidian_rect,14,0,14,0,1,
5f326f3697c53601f394368a,SCN,2024-06-21_10h46.45.060,LearnStrategy,2023.2.3,MacIntel,60.60606061,7,2,16,,,,,,,,7,06,,,,,,,,,,,3,3.311,0,,,,,,0.104722697,-0.268778144,1,0,0,3.3107,Diorite_rect,15,0,15,0,1,
5f326f3697c53601f394368a,SCN,2024-06-21_10h46.45.060,LearnStrategy,2023.2.3,MacIntel,60.60606061,8,1,1,-0.051535848,-0.081822849,1,0,0,1.182,Gabbro_16,4,16,3,4,1.182,-0.107249756,-0.261273532,1,0,0,2.4769,Basalt_rect,2,2.477,0,0,0,0,0,1,,,,,,,,,,,,,
5f326f3697c53601f394368a,SCN,2024-06-21_10h46.45.060,LearnStrategy,2023.2.3,MacIntel,60.60606061,8,1,2,0.394149848,0.237738817,1,0,0,1.5836,Andesite_09,1,09,5,7,1.584,-0.121238132,-0.244411825,1,0,0,1.1266,Basalt_rect,2,1.127,0,1,0,1,0,1,,,,,,,,,,,,,
5f326f3697c53601f394368a,SCN,2024-06-21_10h46.45.060,LearnStrategy,2023.2.3,MacIntel,60.60606061,8,1,3,0.230219794,-0.250475871,1,0,0,1.9796,Obsidian_11,5,11,2,6,1.98,-0.361521369,-0.387155965,1,0,0,1.5899,Obsidian_rect,5,1.59,1,2,0,2,0,1,,,,,,,,,,,,,
5f326f3697c53601f394368a,SCN,2024-06-21_10h46.45.060,LearnStrategy,2023.2.3,MacIntel,60.60606061,8,1,4,-0.535298072,0.091536594,1,0,0,1.215,Pegmatite_12,6,12,4,1,1.215,-0.078408407,-0.255439317,1,0,0,1.7113,Basalt_rect,2,1.711,0,3,0,3,0,1,,,,,,,,,,,,,
5f326f3697c53601f394368a,SCN,2024-06-21_10h46.45.060,LearnStrategy,2023.2.3,MacIntel,60.60606061,8,1,5,-0.079169854,0.246966417,1,0,0,1.0651,Obsidian_05,5,05,5,4,1.065,-0.361531135,-0.384739719,1,0,0,1.5421,Obsidian_rect,5,1.542,1,4,0,4,0,1,,,,,,,,,,,,,
5f326f3697c53601f394368a,SCN,2024-06-21_10h46.45.060,LearnStrategy,2023.2.3,MacIntel,60.60606061,8,1,6,-0.249079285,0.248422885,1,0,0,2.6943,Gabbro_09,4,09,5,3,2.694,-0.343607517,-0.246611192,1,0,0,1.8467,Andesite_rect,1,1.847,0,5,0,5,0,1,,,,,,,,,,,,,
5f326f3697c53601f394368a,SCN,2024-06-21_10h46.45.060,LearnStrategy,2023.2.3,MacIntel,60.60606061,8,1,7,0.205098334,-0.250614217,1,0,0,1.5827,Obsidian_11,5,11,2,6,1.583,-0.324284702,-0.387750041,1,0,0,2.2234,Obsidian_rect,5,2.223,1,6,0,6,0,1,,,,,,,,,,,,,
5f326f3697c53601f394368a,SCN,2024-06-21_10h46.45.060,LearnStrategy,2023.2.3,MacIntel,60.60606061,8,1,8,-0.228028564,-0.101677856,1,0,0,1.5211,Peridotite_04,7,04,3,3,1.521,0.093806085,-0.251107042,1,0,0,1.4829,Diorite_rect,3,1.483,0,7,0,7,0,1,,,,,,,,,,,,,
5f326f3697c53601f394368a,SCN,2024-06-21_10h46.45.060,LearnStrategy,2023.2.3,MacIntel,60.60606061,8,1,9,-0.219043986,0.383545651,1,0,0,1.6988,Peridotite_13,7,13,6,3,1.699,-0.163801948,-0.241636285,1,0,0,1.2305,Basalt_rect,2,1.23,0,8,0,8,0,1,,,,,,,,,,,,,
5f326f3697c53601f394368a,SCN,2024-06-21_10h46.45.060,LearnStrategy,2023.2.3,MacIntel,60.60606061,8,1,10,0.091661784,0.078453369,1,0,0,1.5991,Diorite_14,3,14,4,5,1.599,0.08232822,-0.244593031,1,0,0,0.96,Diorite_rect,3,0.96,1,9,0,9,0,1,,,,,,,,,,,,,
5f326f3697c53601f394368a,SCN,2024-06-21_10h46.45.060,LearnStrategy,2023.2.3,MacIntel,60.60606061,8,1,11,0.3790861,-0.261694336,1,0,0,1.9665,Pegmatite_03,6,03,2,7,1.966,0.145000814,-0.244243028,1,0,0,1.1755,Diorite_rect,3,1.176,0,10,0,10,0,1,,,,,,,,,,,,,
5f326f3697c53601f394368a,SCN,2024-06-21_10h46.45.060,LearnStrategy,2023.2.3,MacIntel,60.60606061,8,1,12,-0.081514282,0.053368462,1,0,0,1.0652,Obsidian_06,5,06,4,4,1.065,-0.335691257,-0.392067057,1,0,0,0.927,Obsidian_rect,5,0.927,1,11,0,11,0,1,,,,,,,,,,,,,
5f326f3697c53601f394368a,SCN,2024-06-21_10h46.45.060,LearnStrategy,2023.2.3,MacIntel,60.60606061,8,1,13,0.374033881,0.398639815,1,0,0,1.7485,Andesite_02,1,02,6,7,1.748,0.371107856,-0.254583605,1,0,0,2.6302,Gabbro_rect,4,2.63,0,12,0,12,0,1,,,,,,,,,,,,,
5f326f3697c53601f394368a,SCN,2024-06-21_10h46.45.060,LearnStrategy,2023.2.3,MacIntel,60.60606061,8,1,14,-0.582305688,0.372978499,1,0,0,1.4154,Pumice_13,8,13,6,1,1.415,-0.140458171,-0.257190552,1,0,0,1.5463,Basalt_rect,2,1.546,0,13,0,13,0,1,,,,,,,,,,,,,
5f326f3697c53601f394368a,SCN,2024-06-21_10h46.45.060,LearnStrategy,2023.2.3,MacIntel,60.60606061,8,1,15,-0.075643311,-0.076271905,1,0,0,1.1482,Gabbro_16,4,16,3,4,1.148,0.061258952,-0.228382636,1,0,0,2.4408,Diorite_rect,3,2.441,0,14,0,14,0,1,,,,,,,,,,,,,
5f326f3697c53601f394368a,SCN,2024-06-21_10h46.45.060,LearnStrategy,2023.2.3,MacIntel,60.60606061,8,1,16,-0.233450283,-0.271302083,1,0,0,0.9161,Basalt_16,2,16,2,3,0.916,-0.115253771,-0.39568217,1,0,0,1.3577,Pegmatite_rect,6,1.358,0,15,0,15,0,1,,,,,,,,,,,,,
5f326f3697c53601f394368a,SCN,2024-06-21_10h46.45.060,LearnStrategy,2023.2.3,MacIntel,60.60606061,8,2,1,,,,,,,,1,16,,,,,,,,,,,2,2.647,0,,,,,,-0.10337816,-0.251608276,1,0,0,2.6467,Basalt_rect,0,0,0,0,1,
5f326f3697c53601f394368a,SCN,2024-06-21_10h46.45.060,LearnStrategy,2023.2.3,MacIntel,60.60606061,8,2,2,,,,,,,,6,16,,,,,,,,,,,4,4.159,0,,,,,,0.321722005,-0.243076172,1,0,0,4.1586,Gabbro_rect,1,0,1,0,1,
5f326f3697c53601f394368a,SCN,2024-06-21_10h46.45.060,LearnStrategy,2023.2.3,MacIntel,60.60606061,8,2,3,,,,,,,,7,07,,,,,,,,,,,2,1.77,0,,,,,,-0.149054701,-0.266877848,1,0,0,1.7699,Basalt_rect,2,0,2,0,1,
5f326f3697c53601f394368a,SCN,2024-06-21_10h46.45.060,LearnStrategy,2023.2.3,MacIntel,60.60606061,8,2,4,,,,,,,,6,13,,,,,,,,,,,1,1.447,0,,,,,,-0.334178975,-0.250967611,1,0,0,1.4474,Andesite_rect,3,0,3,0,1,
5f326f3697c53601f394368a,SCN,2024-06-21_10h46.45.060,LearnStrategy,2023.2.3,MacIntel,60.60606061,8,2,5,,,,,,,,2,10,,,,,,,,,,,5,1.648,0,,,,,,-0.372831896,-0.415609199,1,0,0,1.6483,Obsidian_rect,4,0,4,0,1,
5f326f3697c53601f394368a,SCN,2024-06-21_10h46.45.060,LearnStrategy,2023.2.3,MacIntel,60.60606061,8,2,6,,,,,,,,5,07,,,,,,,,,,,5,0.694,1,,,,,,-0.372831896,-0.415609199,1,0,0,0.694,Obsidian_rect,5,0,5,0,1,
5f326f3697c53601f394368a,SCN,2024-06-21_10h46.45.060,LearnStrategy,2023.2.3,MacIntel,60.60606061,8,2,7,,,,,,,,2,14,,,,,,,,,,,2,1.641,1,,,,,,-0.145489299,-0.247643161,1,0,0,1.6415,Basalt_rect,6,0,6,0,1,
5f326f3697c53601f394368a,SCN,2024-06-21_10h46.45.060,LearnStrategy,2023.2.3,MacIntel,60.60606061,8,2,8,,,,,,,,3,07,,,,,,,,,,,3,2.202,1,,,,,,0.124522027,-0.259129435,1,0,0,2.2022,Diorite_rect,7,0,7,0,1,
5f326f3697c53601f394368a,SCN,2024-06-21_10h46.45.060,LearnStrategy,2023.2.3,MacIntel,60.60606061,8,2,9,,,,,,,,8,05,,,,,,,,,,,8,1.464,1,,,,,,0.335033502,-0.404829712,1,0,0,1.4643,Pumice_rect,8,0,8,0,1,
5f326f3697c53601f394368a,SCN,2024-06-21_10h46.45.060,LearnStrategy,2023.2.3,MacIntel,60.60606061,8,2,10,,,,,,,,8,16,,,,,,,,,,,8,1.127,1,,,,,,0.335033502,-0.404829712,1,0,0,1.1271,Pumice_rect,9,0,9,0,1,
5f326f3697c53601f394368a,SCN,2024-06-21_10h46.45.060,LearnStrategy,2023.2.3,MacIntel,60.60606061,8,2,11,,,,,,,,4,12,,,,,,,,,,,2,2.103,0,,,,,,-0.105289849,-0.269531725,1,0,0,2.1027,Basalt_rect,10,0,10,0,1,
5f326f3697c53601f394368a,SCN,2024-06-21_10h46.45.060,LearnStrategy,2023.2.3,MacIntel,60.60606061,8,2,12,,,,,,,,4,01,,,,,,,,,,,6,1.843,0,,,,,,-0.108687676,-0.392235379,1,0,0,1.8431,Pegmatite_rect,11,0,11,0,1,
5f326f3697c53601f394368a,SCN,2024-06-21_10h46.45.060,LearnStrategy,2023.2.3,MacIntel,60.60606061,8,2,13,,,,,,,,7,05,,,,,,,,,,,3,2,0,,,,,,0.095745985,-0.261191338,1,0,0,1.9998,Diorite_rect,12,0,12,0,1,
5f326f3697c53601f394368a,SCN,2024-06-21_10h46.45.060,LearnStrategy,2023.2.3,MacIntel,60.60606061,8,2,14,,,,,,,,5,10,,,,,,,,,,,5,1.499,1,,,,,,-0.322489726,-0.405708279,1,0,0,1.4988,Obsidian_rect,13,0,13,0,1,
5f326f3697c53601f394368a,SCN,2024-06-21_10h46.45.060,LearnStrategy,2023.2.3,MacIntel,60.60606061,8,2,15,,,,,,,,3,15,,,,,,,,,,,3,4.373,1,,,,,,0.070384793,-0.23611362,1,0,0,4.3726,Diorite_rect,14,0,14,0,1,
5f326f3697c53601f394368a,SCN,2024-06-21_10h46.45.060,LearnStrategy,2023.2.3,MacIntel,60.60606061,8,2,16,,,,,,,,1,01,,,,,,,,,,,1,1.549,1,,,,,,-0.389901089,-0.238448215,1,0,0,1.5491,Andesite_rect,15,0,15,0,1,
5f326f3697c53601f394368a,SCN,2024-06-21_10h46.45.060,LearnStrategy,2023.2.3,MacIntel,60.60606061,9,1,1,0.056964654,-0.088163859,1,0,0,1.2484,Basalt_11,2,11,3,5,1.248,-0.100826484,-0.264955919,1,0,0,2.1584,Basalt_rect,2,2.158,1,0,0,0,0,1,,,,,,,,,,,,,
5f326f3697c53601f394368a,SCN,2024-06-21_10h46.45.060,LearnStrategy,2023.2.3,MacIntel,60.60606061,9,1,2,0.24735121,-0.085034044,1,0,0,1.0167,Pegmatite_09,6,09,3,6,1.017,0.149981961,-0.25677436,1,0,0,1.5915,Diorite_rect,3,1.591,0,1,0,1,0,1,,,,,,,,,,,,,
5f326f3697c53601f394368a,SCN,2024-06-21_10h46.45.060,LearnStrategy,2023.2.3,MacIntel,60.60606061,9,1,3,-0.105811157,0.129302504,1,0,0,0.9824,Obsidian_06,5,06,4,4,0.982,-0.347386644,-0.396670329,1,0,0,0.7237,Obsidian_rect,5,0.724,1,2,0,2,0,1,,,,,,,,,,,,,
5f326f3697c53601f394368a,SCN,2024-06-21_10h46.45.060,LearnStrategy,2023.2.3,MacIntel,60.60606061,9,1,4,0.2510456,-0.424451226,1,0,0,1.0656,Andesite_06,1,06,1,6,1.066,-0.080720893,-0.392688395,1,0,0,1.3032,Pegmatite_rect,6,1.303,0,3,0,3,0,1,,,,,,,,,,,,,
5f326f3697c53601f394368a,SCN,2024-06-21_10h46.45.060,LearnStrategy,2023.2.3,MacIntel,60.60606061,9,1,5,0.544595269,0.116478238,1,0,0,0.9981,Pumice_14,8,14,4,8,0.998,0.377965224,-0.412304959,1,0,0,1.6941,Pumice_rect,8,1.694,1,4,0,4,0,1,,,,,,,,,,,,,
5f326f3697c53601f394368a,SCN,2024-06-21_10h46.45.060,LearnStrategy,2023.2.3,MacIntel,60.60606061,9,1,6,-0.067265557,0.109305623,1,0,0,1.0659,Obsidian_06,5,06,4,4,1.066,-0.334238654,-0.400824042,1,0,0,0.9418,Obsidian_rect,5,0.942,1,5,0,5,0,1,,,,,,,,,,,,,
5f326f3697c53601f394368a,SCN,2024-06-21_10h46.45.060,LearnStrategy,2023.2.3,MacIntel,60.60606061,9,1,7,0.063899943,0.287266761,1,0,0,1.1001,Pumice_08,8,08,5,5,1.1,0.367761909,-0.395011597,1,0,0,1.3488,Pumice_rect,8,1.349,1,6,0,6,0,1,,,,,,,,,,,,,
5f326f3697c53601f394368a,SCN,2024-06-21_10h46.45.060,LearnStrategy,2023.2.3,MacIntel,60.60606061,9,1,8,-0.402957255,0.106513875,1,0,0,2.4817,Pumice_09,8,09,4,2,2.482,-0.072326999,-0.236532728,1,0,0,0.9959,Basalt_rect,2,0.996,0,7,0,7,0,1,,,,,,,,,,,,,
5f326f3697c53601f394368a,SCN,2024-06-21_10h46.45.060,LearnStrategy,2023.2.3,MacIntel,60.60606061,9,1,9,-0.208451877,-0.414654677,1,0,0,1.6321,Diorite_16,3,16,1,3,1.632,0.062953356,-0.255231595,1,0,0,2.4067,Diorite_rect,3,2.407,1,8,0,8,0,1,,,,,,,,,,,,,
5f326f3697c53601f394368a,SCN,2024-06-21_10h46.45.060,LearnStrategy,2023.2.3,MacIntel,60.60606061,9,1,10,0.518377686,0.402112935,1,0,0,1.4498,Diorite_10,3,10,6,8,1.45,0.09851237,-0.242892592,1,0,0,1.095,Diorite_rect,3,1.095,1,9,0,9,0,1,,,,,,,,,,,,,
5f326f3697c53601f394368a,SCN,2024-06-21_10h46.45.060,LearnStrategy,2023.2.3,MacIntel,60.60606061,9,1,11,0.254445326,-0.276954074,1,0,0,2.3332,Obsidian_11,5,11,2,6,2.333,-0.372696974,-0.38154168,1,0,0,1.0866,Obsidian_rect,5,1.087,1,10,0,10,0,1,,,,,,,,,,,,,
5f326f3697c53601f394368a,SCN,2024-06-21_10h46.45.060,LearnStrategy,2023.2.3,MacIntel,60.60606061,9,1,12,-0.50501241,0.093278944,1,0,0,2.1336,Pegmatite_12,6,12,4,1,2.134,-0.132055732,-0.259340956,1,0,0,1.1132,Basalt_rect,2,1.113,0,11,0,11,0,1,,,,,,,,,,,,,
5f326f3697c53601f394368a,SCN,2024-06-21_10h46.45.060,LearnStrategy,2023.2.3,MacIntel,60.60606061,9,1,13,-0.550620558,-0.254335192,1,0,0,1.1483,Basalt_04,2,04,2,1,1.148,-0.236615499,-0.268343099,1,0,0,0.9762,Basalt_rect,2,0.976,1,12,0,12,0,1,,,,,,,,,,,,,
5f326f3697c53601f394368a,SCN,2024-06-21_10h46.45.060,LearnStrategy,2023.2.3,MacIntel,60.60606061,9,1,14,-0.593652649,-0.260810615,1,0,0,1.4114,Basalt_04,2,04,2,1,1.411,-0.172285902,-0.25373603,1,0,0,1.1789,Basalt_rect,2,1.179,1,13,0,13,0,1,,,,,,,,,,,,,
5f326f3697c53601f394368a,SCN,2024-06-21_10h46.45.060,LearnStrategy,2023.2.3,MacIntel,60.60606061,9,1,15,-0.086311103,0.093795878,1,0,0,0.9314,Obsidian_06,5,06,4,4,0.931,-0.358555162,-0.415595771,1,0,0,0.9652,Obsidian_rect,5,0.965,1,14,0,14,0,1,,,,,,,,,,,,,
5f326f3697c53601f394368a,SCN,2024-06-21_10h46.45.060,LearnStrategy,2023.2.3,MacIntel,60.60606061,9,1,16,0.08223999,0.420914188,1,0,0,1.1006,Diorite_13,3,13,6,5,1.101,0.119211833,-0.236815592,1,0,0,1.1195,Diorite_rect,3,1.119,1,15,0,15,0,1,,,,,,,,,,,,,
5f326f3697c53601f394368a,SCN,2024-06-21_10h46.45.060,LearnStrategy,2023.2.3,MacIntel,60.60606061,9,2,1,,,,,,,,4,15,,,,,,,,,,,3,1.761,0,,,,,,0.096737467,-0.23953932,1,0,0,1.761,Diorite_rect,0,0,0,0,1,
5f326f3697c53601f394368a,SCN,2024-06-21_10h46.45.060,LearnStrategy,2023.2.3,MacIntel,60.60606061,9,2,2,,,,,,,,7,15,,,,,,,,,,,7,5.173,1,,,,,,0.114683431,-0.396055569,1,0,0,5.1734,Peridotite_rect,1,0,1,0,1,
5f326f3697c53601f394368a,SCN,2024-06-21_10h46.45.060,LearnStrategy,2023.2.3,MacIntel,60.60606061,9,2,3,,,,,,,,3,11,,,,,,,,,,,3,1.979,1,,,,,,0.120980496,-0.269478963,1,0,0,1.9792,Diorite_rect,2,0,2,0,1,
5f326f3697c53601f394368a,SCN,2024-06-21_10h46.45.060,LearnStrategy,2023.2.3,MacIntel,60.60606061,9,2,4,,,,,,,,2,12,,,,,,,,,,,2,1.676,1,,,,,,-0.097337782,-0.25285163,1,0,0,1.6762,Basalt_rect,3,0,3,0,1,
5f326f3697c53601f394368a,SCN,2024-06-21_10h46.45.060,LearnStrategy,2023.2.3,MacIntel,60.60606061,9,2,5,,,,,,,,7,14,,,,,,,,,,,3,1.598,0,,,,,,0.107205946,-0.246953193,1,0,0,1.5979,Diorite_rect,4,0,4,0,1,
5f326f3697c53601f394368a,SCN,2024-06-21_10h46.45.060,LearnStrategy,2023.2.3,MacIntel,60.60606061,9,2,6,,,,,,,,1,14,,,,,,,,,,,7,1.663,0,,,,,,0.104777561,-0.383338148,1,0,0,1.6628,Peridotite_rect,5,0,5,0,1,
5f326f3697c53601f394368a,SCN,2024-06-21_10h46.45.060,LearnStrategy,2023.2.3,MacIntel,60.60606061,9,2,7,,,,,,,,4,13,,,,,,,,,,,3,2.098,0,,,,,,0.085759616,-0.243977322,1,0,0,2.0983,Diorite_rect,6,0,6,0,1,
5f326f3697c53601f394368a,SCN,2024-06-21_10h46.45.060,LearnStrategy,2023.2.3,MacIntel,60.60606061,9,2,8,,,,,,,,3,08,,,,,,,,,,,3,1.876,1,,,,,,0.102048204,-0.251349013,1,0,0,1.8757,Diorite_rect,7,0,7,0,1,
5f326f3697c53601f394368a,SCN,2024-06-21_10h46.45.060,LearnStrategy,2023.2.3,MacIntel,60.60606061,9,2,9,,,,,,,,8,03,,,,,,,,,,,8,1.654,1,,,,,,0.379549289,-0.405419244,1,0,0,1.654,Pumice_rect,8,0,8,0,1,
5f326f3697c53601f394368a,SCN,2024-06-21_10h46.45.060,LearnStrategy,2023.2.3,MacIntel,60.60606061,9,2,10,,,,,,,,1,05,,,,,,,,,,,3,2.207,0,,,,,,0.105991347,-0.266797824,1,0,0,2.2066,Diorite_rect,9,0,9,0,1,
5f326f3697c53601f394368a,SCN,2024-06-21_10h46.45.060,LearnStrategy,2023.2.3,MacIntel,60.60606061,9,2,11,,,,,,,,5,08,,,,,,,,,,,5,1.391,1,,,,,,-0.329539015,-0.391457384,1,0,0,1.3907,Obsidian_rect,10,0,10,0,1,
5f326f3697c53601f394368a,SCN,2024-06-21_10h46.45.060,LearnStrategy,2023.2.3,MacIntel,60.60606061,9,2,12,,,,,,,,5,09,,,,,,,,,,,5,0.843,1,,,,,,-0.329539015,-0.391457384,1,0,0,0.8433,Obsidian_rect,11,0,11,0,1,
5f326f3697c53601f394368a,SCN,2024-06-21_10h46.45.060,LearnStrategy,2023.2.3,MacIntel,60.60606061,9,2,13,,,,,,,,8,02,,,,,,,,,,,8,1.478,1,,,,,,0.337259454,-0.388205905,1,0,0,1.478,Pumice_rect,12,0,12,0,1,
5f326f3697c53601f394368a,SCN,2024-06-21_10h46.45.060,LearnStrategy,2023.2.3,MacIntel,60.60606061,9,2,14,,,,,,,,6,15,,,,,,,,,,,6,3.593,1,,,,,,-0.081403876,-0.397681681,1,0,0,3.5926,Pegmatite_rect,13,0,13,0,1,
5f326f3697c53601f394368a,SCN,2024-06-21_10h46.45.060,LearnStrategy,2023.2.3,MacIntel,60.60606061,9,2,15,,,,,,,,2,05,,,,,,,,,,,2,1.553,1,,,,,,-0.086961263,-0.264406806,1,0,0,1.5525,Basalt_rect,14,0,14,0,1,
5f326f3697c53601f394368a,SCN,2024-06-21_10h46.45.060,LearnStrategy,2023.2.3,MacIntel,60.60606061,9,2,16,,,,,,,,6,05,,,,,,,,,,,6,3.711,1,,,,,,-0.050687188,-0.402813721,1,0,0,3.7113,Pegmatite_rect,15,0,15,0,1,
5f326f3697c53601f394368a,SCN,2024-06-21_10h46.45.060,LearnStrategy,2023.2.3,MacIntel,60.60606061,,,,,,,,,,,,,,,,,,,,,,,,,,,,,,,,,,,,,,,,,,,0
5f326f3697c53601f394368a,SCN,2024-06-21_10h46.45.060,LearnStrategy,2023.2.3,MacIntel,60.60606061,,,,,,,,,,,,,,,,,,,,,,,,,,,,,,,,,,,,,,,,,,,
5f326f3697c53601f394368a,SCN,2024-06-21_10h46.45.060,LearnStrategy,2023.2.3,MacIntel,60.60606061,,,,,,,,,,,4,03,1,1,,,,,,,,,,,,,,,,,,,,,,,,,,,,,
5f326f3697c53601f394368a,SCN,2024-06-21_10h46.45.060,LearnStrategy,2023.2.3,MacIntel,60.60606061,,,,,,,,,,,5,12,1,2,,,,,,,,,,,,,,,,,,,,,,,,,,,,,
5f326f3697c53601f394368a,SCN,2024-06-21_10h46.45.060,LearnStrategy,2023.2.3,MacIntel,60.60606061,,,,,,,,,,,3,16,1,3,,,,,,,,,,,,,,,,,,,,,,,,,,,,,
5f326f3697c53601f394368a,SCN,2024-06-21_10h46.45.060,LearnStrategy,2023.2.3,MacIntel,60.60606061,,,,,,,,,,,3,09,1,4,,,,,,,,,,,,,,,,,,,,,,,,,,,,,
5f326f3697c53601f394368a,SCN,2024-06-21_10h46.45.060,LearnStrategy,2023.2.3,MacIntel,60.60606061,,,,,,,,,,,3,06,1,5,,,,,,,,,,,,,,,,,,,,,,,,,,,,,
5f326f3697c53601f394368a,SCN,2024-06-21_10h46.45.060,LearnStrategy,2023.2.3,MacIntel,60.60606061,,,,,,,,,,,1,06,1,6,,,,,,,,,,,,,,,,,,,,,,,,,,,,,
5f326f3697c53601f394368a,SCN,2024-06-21_10h46.45.060,LearnStrategy,2023.2.3,MacIntel,60.60606061,,,,,,,,,,,4,05,1,7,,,,,,,,,,,,,,,,,,,,,,,,,,,,,
5f326f3697c53601f394368a,SCN,2024-06-21_10h46.45.060,LearnStrategy,2023.2.3,MacIntel,60.60606061,,,,,,,,,,,8,04,1,8,,,,,,,,,,,,,,,,,,,,,,,,,,,,,
5f326f3697c53601f394368a,SCN,2024-06-21_10h46.45.060,LearnStrategy,2023.2.3,MacIntel,60.60606061,,,,,,,,,,,2,04,2,1,,,,,,,,,,,,,,,,,,,,,,,,,,,,,
5f326f3697c53601f394368a,SCN,2024-06-21_10h46.45.060,LearnStrategy,2023.2.3,MacIntel,60.60606061,,,,,,,,,,,1,03,2,2,,,,,,,,,,,,,,,,,,,,,,,,,,,,,
5f326f3697c53601f394368a,SCN,2024-06-21_10h46.45.060,LearnStrategy,2023.2.3,MacIntel,60.60606061,,,,,,,,,,,2,16,2,3,,,,,,,,,,,,,,,,,,,,,,,,,,,,,
5f326f3697c53601f394368a,SCN,2024-06-21_10h46.45.060,LearnStrategy,2023.2.3,MacIntel,60.60606061,,,,,,,,,,,1,04,2,4,,,,,,,,,,,,,,,,,,,,,,,,,,,,,
5f326f3697c53601f394368a,SCN,2024-06-21_10h46.45.060,LearnStrategy,2023.2.3,MacIntel,60.60606061,,,,,,,,,,,6,11,2,5,,,,,,,,,,,,,,,,,,,,,,,,,,,,,
5f326f3697c53601f394368a,SCN,2024-06-21_10h46.45.060,LearnStrategy,2023.2.3,MacIntel,60.60606061,,,,,,,,,,,5,11,2,6,,,,,,,,,,,,,,,,,,,,,,,,,,,,,
5f326f3697c53601f394368a,SCN,2024-06-21_10h46.45.060,LearnStrategy,2023.2.3,MacIntel,60.60606061,,,,,,,,,,,6,03,2,7,,,,,,,,,,,,,,,,,,,,,,,,,,,,,
5f326f3697c53601f394368a,SCN,2024-06-21_10h46.45.060,LearnStrategy,2023.2.3,MacIntel,60.60606061,,,,,,,,,,,1,07,2,8,,,,,,,,,,,,,,,,,,,,,,,,,,,,,
5f326f3697c53601f394368a,SCN,2024-06-21_10h46.45.060,LearnStrategy,2023.2.3,MacIntel,60.60606061,,,,,,,,,,,2,06,3,1,,,,,,,,,,,,,,,,,,,,,,,,,,,,,
5f326f3697c53601f394368a,SCN,2024-06-21_10h46.45.060,LearnStrategy,2023.2.3,MacIntel,60.60606061,,,,,,,,,,,7,02,3,2,,,,,,,,,,,,,,,,,,,,,,,,,,,,,
5f326f3697c53601f394368a,SCN,2024-06-21_10h46.45.060,LearnStrategy,2023.2.3,MacIntel,60.60606061,,,,,,,,,,,7,04,3,3,,,,,,,,,,,,,,,,,,,,,,,,,,,,,
5f326f3697c53601f394368a,SCN,2024-06-21_10h46.45.060,LearnStrategy,2023.2.3,MacIntel,60.60606061,,,,,,,,,,,4,16,3,4,,,,,,,,,,,,,,,,,,,,,,,,,,,,,
5f326f3697c53601f394368a,SCN,2024-06-21_10h46.45.060,LearnStrategy,2023.2.3,MacIntel,60.60606061,,,,,,,,,,,2,11,3,5,,,,,,,,,,,,,,,,,,,,,,,,,,,,,
5f326f3697c53601f394368a,SCN,2024-06-21_10h46.45.060,LearnStrategy,2023.2.3,MacIntel,60.60606061,,,,,,,,,,,6,09,3,6,,,,,,,,,,,,,,,,,,,,,,,,,,,,,
5f326f3697c53601f394368a,SCN,2024-06-21_10h46.45.060,LearnStrategy,2023.2.3,MacIntel,60.60606061,,,,,,,,,,,4,14,3,7,,,,,,,,,,,,,,,,,,,,,,,,,,,,,
5f326f3697c53601f394368a,SCN,2024-06-21_10h46.45.060,LearnStrategy,2023.2.3,MacIntel,60.60606061,,,,,,,,,,,6,07,3,8,,,,,,,,,,,,,,,,,,,,,,,,,,,,,
5f326f3697c53601f394368a,SCN,2024-06-21_10h46.45.060,LearnStrategy,2023.2.3,MacIntel,60.60606061,,,,,,,,,,,6,12,4,1,,,,,,,,,,,,,,,,,,,,,,,,,,,,,
5f326f3697c53601f394368a,SCN,2024-06-21_10h46.45.060,LearnStrategy,2023.2.3,MacIntel,60.60606061,,,,,,,,,,,8,09,4,2,,,,,,,,,,,,,,,,,,,,,,,,,,,,,
5f326f3697c53601f394368a,SCN,2024-06-21_10h46.45.060,LearnStrategy,2023.2.3,MacIntel,60.60606061,,,,,,,,,,,7,12,4,3,,,,,,,,,,,,,,,,,,,,,,,,,,,,,
5f326f3697c53601f394368a,SCN,2024-06-21_10h46.45.060,LearnStrategy,2023.2.3,MacIntel,60.60606061,,,,,,,,,,,5,06,4,4,,,,,,,,,,,,,,,,,,,,,,,,,,,,,
5f326f3697c53601f394368a,SCN,2024-06-21_10h46.45.060,LearnStrategy,2023.2.3,MacIntel,60.60606061,,,,,,,,,,,3,14,4,5,,,,,,,,,,,,,,,,,,,,,,,,,,,,,
5f326f3697c53601f394368a,SCN,2024-06-21_10h46.45.060,LearnStrategy,2023.2.3,MacIntel,60.60606061,,,,,,,,,,,4,08,4,6,,,,,,,,,,,,,,,,,,,,,,,,,,,,,
5f326f3697c53601f394368a,SCN,2024-06-21_10h46.45.060,LearnStrategy,2023.2.3,MacIntel,60.60606061,,,,,,,,,,,7,16,4,7,,,,,,,,,,,,,,,,,,,,,,,,,,,,,
5f326f3697c53601f394368a,SCN,2024-06-21_10h46.45.060,LearnStrategy,2023.2.3,MacIntel,60.60606061,,,,,,,,,,,8,14,4,8,,,,,,,,,,,,,,,,,,,,,,,,,,,,,
5f326f3697c53601f394368a,SCN,2024-06-21_10h46.45.060,LearnStrategy,2023.2.3,MacIntel,60.60606061,,,,,,,,,,,8,15,5,1,,,,,,,,,,,,,,,,,,,,,,,,,,,,,
5f326f3697c53601f394368a,SCN,2024-06-21_10h46.45.060,LearnStrategy,2023.2.3,MacIntel,60.60606061,,,,,,,,,,,7,08,5,2,,,,,,,,,,,,,,,,,,,,,,,,,,,,,
5f326f3697c53601f394368a,SCN,2024-06-21_10h46.45.060,LearnStrategy,2023.2.3,MacIntel,60.60606061,,,,,,,,,,,4,09,5,3,,,,,,,,,,,,,,,,,,,,,,,,,,,,,
5f326f3697c53601f394368a,SCN,2024-06-21_10h46.45.060,LearnStrategy,2023.2.3,MacIntel,60.60606061,,,,,,,,,,,5,05,5,4,,,,,,,,,,,,,,,,,,,,,,,,,,,,,
5f326f3697c53601f394368a,SCN,2024-06-21_10h46.45.060,LearnStrategy,2023.2.3,MacIntel,60.60606061,,,,,,,,,,,8,08,5,5,,,,,,,,,,,,,,,,,,,,,,,,,,,,,
5f326f3697c53601f394368a,SCN,2024-06-21_10h46.45.060,LearnStrategy,2023.2.3,MacIntel,60.60606061,,,,,,,,,,,6,06,5,6,,,,,,,,,,,,,,,,,,,,,,,,,,,,,
5f326f3697c53601f394368a,SCN,2024-06-21_10h46.45.060,LearnStrategy,2023.2.3,MacIntel,60.60606061,,,,,,,,,,,1,09,5,7,,,,,,,,,,,,,,,,,,,,,,,,,,,,,
5f326f3697c53601f394368a,SCN,2024-06-21_10h46.45.060,LearnStrategy,2023.2.3,MacIntel,60.60606061,,,,,,,,,,,5,16,5,8,,,,,,,,,,,,,,,,,,,,,,,,,,,,,
5f326f3697c53601f394368a,SCN,2024-06-21_10h46.45.060,LearnStrategy,2023.2.3,MacIntel,60.60606061,,,,,,,,,,,8,13,6,1,,,,,,,,,,,,,,,,,,,,,,,,,,,,,
5f326f3697c53601f394368a,SCN,2024-06-21_10h46.45.060,LearnStrategy,2023.2.3,MacIntel,60.60606061,,,,,,,,,,,5,04,6,2,,,,,,,,,,,,,,,,,,,,,,,,,,,,,
5f326f3697c53601f394368a,SCN,2024-06-21_10h46.45.060,LearnStrategy,2023.2.3,MacIntel,60.60606061,,,,,,,,,,,7,13,6,3,,,,,,,,,,,,,,,,,,,,,,,,,,,,,
5f326f3697c53601f394368a,SCN,2024-06-21_10h46.45.060,LearnStrategy,2023.2.3,MacIntel,60.60606061,,,,,,,,,,,2,02,6,4,,,,,,,,,,,,,,,,,,,,,,,,,,,,,
5f326f3697c53601f394368a,SCN,2024-06-21_10h46.45.060,LearnStrategy,2023.2.3,MacIntel,60.60606061,,,,,,,,,,,3,13,6,5,,,,,,,,,,,,,,,,,,,,,,,,,,,,,
5f326f3697c53601f394368a,SCN,2024-06-21_10h46.45.060,LearnStrategy,2023.2.3,MacIntel,60.60606061,,,,,,,,,,,2,09,6,6,,,,,,,,,,,,,,,,,,,,,,,,,,,,,
5f326f3697c53601f394368a,SCN,2024-06-21_10h46.45.060,LearnStrategy,2023.2.3,MacIntel,60.60606061,,,,,,,,,,,1,02,6,7,,,,,,,,,,,,,,,,,,,,,,,,,,,,,
5f326f3697c53601f394368a,SCN,2024-06-21_10h46.45.060,LearnStrategy,2023.2.3,MacIntel,60.60606061,,,,,,,,,,,3,10,6,8,,,,,,,,,,,,,,,,,,,,,,,,,,,,,