participant,condition,date,expName,psychopyVersion,OS,frameRate,block,phase,trial,learn_mouse.x,learn_mouse.y,learn_mouse.leftButton,learn_mouse.midButton,learn_mouse.rightButton,learn_mouse.time,learn_mouse.clicked_name,cat,token,row,col,t_select,cat_mouse_l.x,cat_mouse_l.y,cat_mouse_l.leftButton,cat_mouse_l.midButton,cat_mouse_l.rightButton,cat_mouse_l.time,cat_mouse_l.clicked_name,resp,t_resp,corr,train_trials.thisRepN,train_trials.thisTrialN,train_trials.thisN,train_trials.thisIndex,train_trials.ran,cat_mouse_t.x,cat_mouse_t.y,cat_mouse_t.leftButton,cat_mouse_t.midButton,cat_mouse_t.rightButton,cat_mouse_t.time,cat_mouse_t.clicked_name,test_trials.thisRepN,test_trials.thisTrialN,test_trials.thisN,test_trials.thisIndex,test_trials.ran,Bonus
5f35cd449bf003039842077f,SCN,2024-06-24_14h46.10.977,LearnStrategy,2023.2.3,Win32,60.24096386,,,,,,,,,,,,,,,,,,,,,,,,,,,,,,,,,,,,,,,,,,,
5f35cd449bf003039842077f,SCN,2024-06-24_14h46.10.977,LearnStrategy,2023.2.3,Win32,60.24096386,1,1,1,-0.239583333,0.091145833,1,0,0,3.8873,Obsidian_08,5,08,4,3,3.887,0.369791667,-0.252604167,1,0,0,3.7736,Gabbro_rect,4,3.774,0,0,0,0,0,1,,,,,,,,,,,,,
5f35cd449bf003039842077f,SCN,2024-06-24_14h46.10.977,LearnStrategy,2023.2.3,Win32,60.24096386,1,1,2,0.076822917,-0.095052083,1,0,0,2.7605,Diorite_15,3,15,3,5,2.761,-0.361979167,-0.391927083,1,0,0,12.9194,Obsidian_rect,5,12.919,0,1,0,1,0,1,,,,,,,,,,,,,
5f35cd449bf003039842077f,SCN,2024-06-24_14h46.10.977,LearnStrategy,2023.2.3,Win32,60.24096386,1,1,3,-0.248697917,-0.26953125,1,0,0,3.0956,Pegmatite_11,6,11,2,3,3.096,-0.110677083,-0.416666667,1,0,0,16.2566,Pegmatite_rect,6,16.257,1,2,0,2,0,1,,,,,,,,,,,,,
5f35cd449bf003039842077f,SCN,2024-06-24_14h46.10.977,LearnStrategy,2023.2.3,Win32,60.24096386,1,1,4,-0.07421875,0.229166667,1,0,0,5.7725,Basalt_01,2,01,5,4,5.772,-0.108072917,-0.240885417,1,0,0,1.8797,Basalt_rect,2,1.88,1,3,0,3,0,1,,,,,,,,,,,,,
5f35cd449bf003039842077f,SCN,2024-06-24_14h46.10.977,LearnStrategy,2023.2.3,Win32,60.24096386,1,1,5,-0.2265625,-0.427083333,1,0,0,4.0616,Pumice_16,8,16,1,3,4.062,0.44140625,-0.40625,1,0,0,5.5175,Pumice_rect,8,5.517,1,4,0,4,0,1,,,,,,,,,,,,,
5f35cd449bf003039842077f,SCN,2024-06-24_14h46.10.977,LearnStrategy,2023.2.3,Win32,60.24096386,1,1,6,-0.565104167,-0.41796875,1,0,0,3.574,Diorite_13,3,13,1,1,3.574,-0.345052083,-0.243489583,1,0,0,6.189,Andesite_rect,1,6.189,0,5,0,5,0,1,,,,,,,,,,,,,
5f35cd449bf003039842077f,SCN,2024-06-24_14h46.10.977,LearnStrategy,2023.2.3,Win32,60.24096386,1,1,7,-0.2265625,0.108072917,1,0,0,1.0581,Obsidian_08,5,08,4,3,1.058,-0.348958333,-0.3828125,1,0,0,2.6685,Obsidian_rect,5,2.668,1,6,0,6,0,1,,,,,,,,,,,,,
5f35cd449bf003039842077f,SCN,2024-06-24_14h46.10.977,LearnStrategy,2023.2.3,Win32,60.24096386,1,1,8,-0.528645833,0.279947917,1,0,0,1.2701,Gabbro_08,4,08,5,1,1.27,0.140625,-0.403645833,1,0,0,4.5385,Peridotite_rect,7,4.538,0,7,0,7,0,1,,,,,,,,,,,,,
5f35cd449bf003039842077f,SCN,2024-06-24_14h46.10.977,LearnStrategy,2023.2.3,Win32,60.24096386,1,1,9,-0.071614583,0.278645833,1,0,0,2.8744,Basalt_01,2,01,5,4,2.874,0.375,-0.411458333,1,0,0,3.3592,Pumice_rect,8,3.359,0,8,0,8,0,1,,,,,,,,,,,,,
5f35cd449bf003039842077f,SCN,2024-06-24_14h46.10.977,LearnStrategy,2023.2.3,Win32,60.24096386,1,1,10,0.243489583,0.067708333,1,0,0,1.0821,Obsidian_10,5,10,4,6,1.082,-0.326822917,-0.419270833,1,0,0,1.73,Obsidian_rect,5,1.73,1,9,0,9,0,1,,,,,,,,,,,,,
5f35cd449bf003039842077f,SCN,2024-06-24_14h46.10.977,LearnStrategy,2023.2.3,Win32,60.24096386,1,1,11,0.40234375,0.233072917,1,0,0,0.9904,Peridotite_02,7,02,5,7,0.99,0.158854167,-0.244791667,1,0,0,2.1511,Diorite_rect,3,2.151,0,10,0,10,0,1,,,,,,,,,,,,,
5f35cd449bf003039842077f,SCN,2024-06-24_14h46.10.977,LearnStrategy,2023.2.3,Win32,60.24096386,1,1,12,0.528645833,-0.0859375,1,0,0,1.2689,Pumice_04,8,04,3,8,1.269,0.384114583,-0.25390625,1,0,0,1.651,Gabbro_rect,4,1.651,0,11,0,11,0,1,,,,,,,,,,,,,
5f35cd449bf003039842077f,SCN,2024-06-24_14h46.10.977,LearnStrategy,2023.2.3,Win32,60.24096386,1,1,13,0.209635417,-0.111979167,1,0,0,1.1513,Gabbro_15,4,15,3,6,1.151,0.126302083,-0.251302083,1,0,0,1.553,Diorite_rect,3,1.553,0,12,0,12,0,1,,,,,,,,,,,,,
5f35cd449bf003039842077f,SCN,2024-06-24_14h46.10.977,LearnStrategy,2023.2.3,Win32,60.24096386,1,1,14,-0.399739583,0.236979167,1,0,0,1.6598,Pegmatite_13,6,13,5,2,1.66,-0.391927083,-0.251302083,1,0,0,2.4011,Andesite_rect,1,2.401,0,13,0,13,0,1,,,,,,,,,,,,,
5f35cd449bf003039842077f,SCN,2024-06-24_14h46.10.977,LearnStrategy,2023.2.3,Win32,60.24096386,1,1,15,0.399739583,0.260416667,1,0,0,1.4524,Peridotite_02,7,02,5,7,1.452,0.375,-0.240885417,1,0,0,1.1885,Gabbro_rect,4,1.188,0,14,0,14,0,1,,,,,,,,,,,,,
5f35cd449bf003039842077f,SCN,2024-06-24_14h46.10.977,LearnStrategy,2023.2.3,Win32,60.24096386,1,1,16,0.092447917,0.09765625,1,0,0,0.8904,Pegmatite_16,6,16,4,5,0.89,0.154947917,-0.26171875,1,0,0,1.4758,Diorite_rect,3,1.476,0,15,0,15,0,1,,,,,,,,,,,,,
5f35cd449bf003039842077f,SCN,2024-06-24_14h46.10.977,LearnStrategy,2023.2.3,Win32,60.24096386,1,2,1,,,,,,,,2,11,,,,,,,,,,,2,13.832,1,,,,,,-0.118489583,-0.236979167,1,0,0,13.8325,Basalt_rect,0,0,0,0,1,
5f35cd449bf003039842077f,SCN,2024-06-24_14h46.10.977,LearnStrategy,2023.2.3,Win32,60.24096386,1,2,2,,,,,,,,7,05,,,,,,,,,,,8,39.409,0,,,,,,0.399739583,-0.388020833,1,0,0,39.4087,Pumice_rect,1,0,1,0,1,
5f35cd449bf003039842077f,SCN,2024-06-24_14h46.10.977,LearnStrategy,2023.2.3,Win32,60.24096386,1,2,3,,,,,,,,6,06,,,,,,,,,,,7,42.812,0,,,,,,0.091145833,-0.39453125,1,0,0,42.8119,Peridotite_rect,2,0,2,0,1,
5f35cd449bf003039842077f,SCN,2024-06-24_14h46.10.977,LearnStrategy,2023.2.3,Win32,60.24096386,1,2,4,,,,,,,,5,02,,,,,,,,,,,2,3.126,0,,,,,,-0.126302083,-0.25,1,0,0,3.1264,Basalt_rect,3,0,3,0,1,
5f35cd449bf003039842077f,SCN,2024-06-24_14h46.10.977,LearnStrategy,2023.2.3,Win32,60.24096386,1,2,5,,,,,,,,2,02,,,,,,,,,,,1,28.733,0,,,,,,-0.420572917,-0.26171875,1,0,0,28.7332,Andesite_rect,4,0,4,0,1,
5f35cd449bf003039842077f,SCN,2024-06-24_14h46.10.977,LearnStrategy,2023.2.3,Win32,60.24096386,1,2,6,,,,,,,,8,05,,,,,,,,,,,8,24.321,1,,,,,,0.391927083,-0.404947917,1,0,0,24.3211,Pumice_rect,5,0,5,0,1,
5f35cd449bf003039842077f,SCN,2024-06-24_14h46.10.977,LearnStrategy,2023.2.3,Win32,60.24096386,1,2,7,,,,,,,,4,12,,,,,,,,,,,4,24.326,1,,,,,,0.3359375,-0.25390625,1,0,0,24.3263,Gabbro_rect,6,0,6,0,1,
5f35cd449bf003039842077f,SCN,2024-06-24_14h46.10.977,LearnStrategy,2023.2.3,Win32,60.24096386,1,2,8,,,,,,,,3,07,,,,,,,,,,,3,10.661,1,,,,,,0.16015625,-0.23828125,1,0,0,10.6605,Diorite_rect,7,0,7,0,1,
5f35cd449bf003039842077f,SCN,2024-06-24_14h46.10.977,LearnStrategy,2023.2.3,Win32,60.24096386,1,2,9,,,,,,,,1,11,,,,,,,,,,,6,40.043,0,,,,,,-0.1171875,-0.3984375,1,0,0,40.0428,Pegmatite_rect,8,0,8,0,1,
5f35cd449bf003039842077f,SCN,2024-06-24_14h46.10.977,LearnStrategy,2023.2.3,Win32,60.24096386,1,2,10,,,,,,,,8,15,,,,,,,,,,,8,39.944,1,,,,,,0.397135417,-0.397135417,1,0,0,39.944,Pumice_rect,9,0,9,0,1,
5f35cd449bf003039842077f,SCN,2024-06-24_14h46.10.977,LearnStrategy,2023.2.3,Win32,60.24096386,1,2,11,,,,,,,,1,14,,,,,,,,,,,1,20.431,1,,,,,,-0.361979167,-0.251302083,1,0,0,20.4313,Andesite_rect,10,0,10,0,1,
5f35cd449bf003039842077f,SCN,2024-06-24_14h46.10.977,LearnStrategy,2023.2.3,Win32,60.24096386,1,2,12,,,,,,,,7,15,,,,,,,,,,,7,14.738,1,,,,,,0.140625,-0.399739583,1,0,0,14.7377,Peridotite_rect,11,0,11,0,1,
5f35cd449bf003039842077f,SCN,2024-06-24_14h46.10.977,LearnStrategy,2023.2.3,Win32,60.24096386,1,2,13,,,,,,,,3,10,,,,,,,,,,,7,27.779,0,,,,,,0.098958333,-0.390625,1,0,0,27.7786,Peridotite_rect,12,0,12,0,1,
5f35cd449bf003039842077f,SCN,2024-06-24_14h46.10.977,LearnStrategy,2023.2.3,Win32,60.24096386,1,2,14,,,,,,,,6,07,,,,,,,,,,,6,12.146,1,,,,,,-0.055989583,-0.401041667,1,0,0,12.1461,Pegmatite_rect,13,0,13,0,1,
5f35cd449bf003039842077f,SCN,2024-06-24_14h46.10.977,LearnStrategy,2023.2.3,Win32,60.24096386,1,2,15,,,,,,,,4,16,,,,,,,,,,,3,29.491,0,,,,,,0.14453125,-0.266927083,1,0,0,29.4913,Diorite_rect,14,0,14,0,1,
5f35cd449bf003039842077f,SCN,2024-06-24_14h46.10.977,LearnStrategy,2023.2.3,Win32,60.24096386,1,2,16,,,,,,,,5,14,,,,,,,,,,,5,11.04,1,,,,,,-0.333333333,-0.401041667,1,0,0,11.0402,Obsidian_rect,15,0,15,0,1,
5f35cd449bf003039842077f,SCN,2024-06-24_14h46.10.977,LearnStrategy,2023.2.3,Win32,60.24096386,2,1,1,-0.518229167,0.401041667,1,0,0,7.468,Gabbro_01,4,01,6,1,7.468,0.41015625,-0.235677083,1,0,0,4.3369,Gabbro_rect,4,4.337,1,0,0,0,0,1,,,,,,,,,,,,,
5f35cd449bf003039842077f,SCN,2024-06-24_14h46.10.977,LearnStrategy,2023.2.3,Win32,60.24096386,2,1,2,0.0859375,0.236979167,1,0,0,3.8169,Obsidian_16,5,16,5,5,3.817,-0.114583333,-0.270833333,1,0,0,3.4229,Basalt_rect,2,3.423,0,1,0,1,0,1,,,,,,,,,,,,,
5f35cd449bf003039842077f,SCN,2024-06-24_14h46.10.977,LearnStrategy,2023.2.3,Win32,60.24096386,2,1,3,-0.359375,0.251302083,1,0,0,3.0816,Pegmatite_13,6,13,5,2,3.082,0.06640625,-0.23046875,1,0,0,9.4705,Diorite_rect,3,9.471,0,2,0,2,0,1,,,,,,,,,,,,,
5f35cd449bf003039842077f,SCN,2024-06-24_14h46.10.977,LearnStrategy,2023.2.3,Win32,60.24096386,2,1,4,-0.231770833,-0.397135417,1,0,0,6.6789,Pumice_16,8,16,1,3,6.679,0.40234375,-0.3828125,1,0,0,3.2973,Pumice_rect,8,3.297,1,3,0,3,0,1,,,,,,,,,,,,,
5f35cd449bf003039842077f,SCN,2024-06-24_14h46.10.977,LearnStrategy,2023.2.3,Win32,60.24096386,2,1,5,0.390625,0.247395833,1,0,0,4.5844,Peridotite_02,7,02,5,7,4.584,0.147135417,-0.260416667,1,0,0,3.9877,Diorite_rect,3,3.988,0,4,0,4,0,1,,,,,,,,,,,,,
5f35cd449bf003039842077f,SCN,2024-06-24_14h46.10.977,LearnStrategy,2023.2.3,Win32,60.24096386,2,1,6,-0.071614583,-0.12109375,1,0,0,4.8911,Peridotite_16,7,16,3,4,4.891,-0.161458333,-0.393229167,1,0,0,6.511,Pegmatite_rect,6,6.511,0,5,0,5,0,1,,,,,,,,,,,,,
5f35cd449bf003039842077f,SCN,2024-06-24_14h46.10.977,LearnStrategy,2023.2.3,Win32,60.24096386,2,1,7,0.234375,-0.100260417,1,0,0,2.5074,Gabbro_15,4,15,3,6,2.507,0.108072917,-0.259114583,1,0,0,8.8853,Diorite_rect,3,8.885,0,6,0,6,0,1,,,,,,,,,,,,,
5f35cd449bf003039842077f,SCN,2024-06-24_14h46.10.977,LearnStrategy,2023.2.3,Win32,60.24096386,2,1,8,0.236979167,-0.446614583,1,0,0,4.8732,Basalt_12,2,12,1,6,4.873,0.134114583,-0.240885417,1,0,0,1.9144,Diorite_rect,3,1.914,0,7,0,7,0,1,,,,,,,,,,,,,
5f35cd449bf003039842077f,SCN,2024-06-24_14h46.10.977,LearnStrategy,2023.2.3,Win32,60.24096386,2,1,9,-0.095052083,0.40625,1,0,0,4.6378,Diorite_12,3,12,6,4,4.638,0.375,-0.252604167,1,0,0,1.8029,Gabbro_rect,4,1.803,0,8,0,8,0,1,,,,,,,,,,,,,
5f35cd449bf003039842077f,SCN,2024-06-24_14h46.10.977,LearnStrategy,2023.2.3,Win32,60.24096386,2,1,10,-0.36328125,-0.264322917,1,0,0,4.7801,Pegmatite_10,6,10,2,2,4.78,0.158854167,-0.25,1,0,0,1.3702,Diorite_rect,3,1.37,0,9,0,9,0,1,,,,,,,,,,,,,
5f35cd449bf003039842077f,SCN,2024-06-24_14h46.10.977,LearnStrategy,2023.2.3,Win32,60.24096386,2,1,11,0.412760417,-0.434895833,1,0,0,6.727,Andesite_07,1,07,1,7,6.727,0.13671875,-0.240885417,1,0,0,1.2428,Diorite_rect,3,1.243,0,10,0,10,0,1,,,,,,,,,,,,,
5f35cd449bf003039842077f,SCN,2024-06-24_14h46.10.977,LearnStrategy,2023.2.3,Win32,60.24096386,2,1,12,0.401041667,-0.114583333,1,0,0,2.5582,Diorite_16,3,16,3,7,2.558,-0.377604167,-0.247395833,1,0,0,0.894,Andesite_rect,1,0.894,0,11,0,11,0,1,,,,,,,,,,,,,
5f35cd449bf003039842077f,SCN,2024-06-24_14h46.10.977,LearnStrategy,2023.2.3,Win32,60.24096386,2,1,13,-0.553385417,0.41796875,1,0,0,3.7824,Gabbro_01,4,01,6,1,3.782,-0.375,-0.2421875,1,0,0,1.3788,Andesite_rect,1,1.379,0,12,0,12,0,1,,,,,,,,,,,,,
5f35cd449bf003039842077f,SCN,2024-06-24_14h46.10.977,LearnStrategy,2023.2.3,Win32,60.24096386,2,1,14,-0.0546875,-0.100260417,1,0,0,4.56,Peridotite_16,7,16,3,4,4.56,0.380208333,-0.234375,1,0,0,2.8607,Gabbro_rect,4,2.861,0,13,0,13,0,1,,,,,,,,,,,,,
5f35cd449bf003039842077f,SCN,2024-06-24_14h46.10.977,LearnStrategy,2023.2.3,Win32,60.24096386,2,1,15,-0.515625,-0.255208333,1,0,0,3.3465,Basalt_14,2,14,2,1,3.346,0.368489583,-0.397135417,1,0,0,0.9017,Pumice_rect,8,0.902,0,14,0,14,0,1,,,,,,,,,,,,,
5f35cd449bf003039842077f,SCN,2024-06-24_14h46.10.977,LearnStrategy,2023.2.3,Win32,60.24096386,2,1,16,-0.231770833,0.24609375,1,0,0,4.8843,Peridotite_12,7,12,5,3,4.884,0.359375,-0.233072917,1,0,0,1.848,Gabbro_rect,4,1.848,0,15,0,15,0,1,,,,,,,,,,,,,
5f35cd449bf003039842077f,SCN,2024-06-24_14h46.10.977,LearnStrategy,2023.2.3,Win32,60.24096386,2,2,1,,,,,,,,8,03,,,,,,,,,,,2,44.407,0,,,,,,-0.114583333,-0.25,1,0,0,44.407,Basalt_rect,0,0,0,0,1,
5f35cd449bf003039842077f,SCN,2024-06-24_14h46.10.977,LearnStrategy,2023.2.3,Win32,60.24096386,2,2,2,,,,,,,,8,09,,,,,,,,,,,2,16.454,0,,,,,,-0.118489583,-0.243489583,1,0,0,16.4541,Basalt_rect,1,0,1,0,1,
5f35cd449bf003039842077f,SCN,2024-06-24_14h46.10.977,LearnStrategy,2023.2.3,Win32,60.24096386,2,2,3,,,,,,,,3,09,,,,,,,,,,,3,19.81,1,,,,,,0.131510417,-0.26171875,1,0,0,19.8099,Diorite_rect,2,0,2,0,1,
5f35cd449bf003039842077f,SCN,2024-06-24_14h46.10.977,LearnStrategy,2023.2.3,Win32,60.24096386,2,2,4,,,,,,,,3,02,,,,,,,,,,,4,79.288,0,,,,,,0.3515625,-0.25,1,0,0,79.2876,Gabbro_rect,3,0,3,0,1,
5f35cd449bf003039842077f,SCN,2024-06-24_14h46.10.977,LearnStrategy,2023.2.3,Win32,60.24096386,2,2,5,,,,,,,,4,13,,,,,,,,,,,4,39.177,1,,,,,,0.411458333,-0.25,1,0,0,39.1766,Gabbro_rect,4,0,4,0,1,
5f35cd449bf003039842077f,SCN,2024-06-24_14h46.10.977,LearnStrategy,2023.2.3,Win32,60.24096386,2,2,6,,,,,,,,7,04,,,,,,,,,,,6,63.083,0,,,,,,-0.115885417,-0.380208333,1,0,0,63.0829,Pegmatite_rect,5,0,5,0,1,
5f35cd449bf003039842077f,SCN,2024-06-24_14h46.10.977,LearnStrategy,2023.2.3,Win32,60.24096386,2,2,7,,,,,,,,6,12,,,,,,,,,,,6,28.189,1,,,,,,-0.192708333,-0.40234375,1,0,0,28.1891,Pegmatite_rect,6,0,6,0,1,
5f35cd449bf003039842077f,SCN,2024-06-24_14h46.10.977,LearnStrategy,2023.2.3,Win32,60.24096386,2,2,8,,,,,,,,1,06,,,,,,,,,,,2,75.023,0,,,,,,-0.13671875,-0.26171875,1,0,0,75.0227,Basalt_rect,7,0,7,0,1,
5f35cd449bf003039842077f,SCN,2024-06-24_14h46.10.977,LearnStrategy,2023.2.3,Win32,60.24096386,2,2,9,,,,,,,,4,05,,,,,,,,,,,3,35.9,0,,,,,,0.135416667,-0.255208333,1,0,0,35.8998,Diorite_rect,8,0,8,0,1,
5f35cd449bf003039842077f,SCN,2024-06-24_14h46.10.977,LearnStrategy,2023.2.3,Win32,60.24096386,2,2,10,,,,,,,,6,15,,,,,,,,,,,6,28.412,1,,,,,,-0.15234375,-0.389322917,1,0,0,28.4118,Pegmatite_rect,9,0,9,0,1,
5f35cd449bf003039842077f,SCN,2024-06-24_14h46.10.977,LearnStrategy,2023.2.3,Win32,60.24096386,2,2,11,,,,,,,,7,07,,,,,,,,,,,7,14.093,1,,,,,,0.115885417,-0.408854167,1,0,0,14.0927,Peridotite_rect,10,0,10,0,1,
5f35cd449bf003039842077f,SCN,2024-06-24_14h46.10.977,LearnStrategy,2023.2.3,Win32,60.24096386,2,2,12,,,,,,,,2,06,,,,,,,,,,,2,20.934,1,,,,,,-0.14453125,-0.244791667,1,0,0,20.9344,Basalt_rect,11,0,11,0,1,
5f35cd449bf003039842077f,SCN,2024-06-24_14h46.10.977,LearnStrategy,2023.2.3,Win32,60.24096386,2,2,13,,,,,,,,5,05,,,,,,,,,,,5,14.237,1,,,,,,-0.364583333,-0.393229167,1,0,0,14.2373,Obsidian_rect,12,0,12,0,1,
5f35cd449bf003039842077f,SCN,2024-06-24_14h46.10.977,LearnStrategy,2023.2.3,Win32,60.24096386,2,2,14,,,,,,,,5,12,,,,,,,,,,,5,1.116,1,,,,,,-0.3828125,-0.40625,1,0,0,1.1162,Obsidian_rect,13,0,13,0,1,
5f35cd449bf003039842077f,SCN,2024-06-24_14h46.10.977,LearnStrategy,2023.2.3,Win32,60.24096386,2,2,15,,,,,,,,2,04,,,,,,,,,,,3,8.104,0,,,,,,0.12109375,-0.251302083,1,0,0,8.1041,Diorite_rect,14,0,14,0,1,
5f35cd449bf003039842077f,SCN,2024-06-24_14h46.10.977,LearnStrategy,2023.2.3,Win32,60.24096386,2,2,16,,,,,,,,1,05,,,,,,,,,,,4,12.881,0,,,,,,0.416666667,-0.235677083,1,0,0,12.8813,Gabbro_rect,15,0,15,0,1,
5f35cd449bf003039842077f,SCN,2024-06-24_14h46.10.977,LearnStrategy,2023.2.3,Win32,60.24096386,3,1,1,-0.052083333,0.260416667,1,0,0,9.7271,Basalt_01,2,01,5,4,9.727,0.16796875,-0.243489583,1,0,0,1.5541,Diorite_rect,3,1.554,0,0,0,0,0,1,,,,,,,,,,,,,
5f35cd449bf003039842077f,SCN,2024-06-24_14h46.10.977,LearnStrategy,2023.2.3,Win32,60.24096386,3,1,2,-0.56640625,-0.39453125,1,0,0,4.1829,Diorite_13,3,13,1,1,4.183,0.10546875,-0.247395833,1,0,0,17.0156,Diorite_rect,3,17.016,1,1,0,1,0,1,,,,,,,,,,,,,
5f35cd449bf003039842077f,SCN,2024-06-24_14h46.10.977,LearnStrategy,2023.2.3,Win32,60.24096386,3,1,3,0.07421875,-0.266927083,1,0,0,4.1758,Diorite_11,3,11,2,5,4.176,0.151041667,-0.252604167,1,0,0,4.214,Diorite_rect,3,4.214,1,2,0,2,0,1,,,,,,,,,,,,,
5f35cd449bf003039842077f,SCN,2024-06-24_14h46.10.977,LearnStrategy,2023.2.3,Win32,60.24096386,3,1,4,-0.358072917,0.088541667,1,0,0,2.1596,Andesite_01,1,01,4,2,2.16,-0.381510417,-0.231770833,1,0,0,2.4401,Andesite_rect,1,2.44,1,3,0,3,0,1,,,,,,,,,,,,,
5f35cd449bf003039842077f,SCN,2024-06-24_14h46.10.977,LearnStrategy,2023.2.3,Win32,60.24096386,3,1,5,-0.526041667,0.080729167,1,0,0,1.5164,Pumice_08,8,08,4,1,1.516,-0.141927083,-0.251302083,1,0,0,18.1399,Basalt_rect,2,18.14,0,4,0,4,0,1,,,,,,,,,,,,,
5f35cd449bf003039842077f,SCN,2024-06-24_14h46.10.977,LearnStrategy,2023.2.3,Win32,60.24096386,3,1,6,0.592447917,-0.10546875,1,0,0,2.5748,Pumice_04,8,04,3,8,2.575,0.447916667,-0.390625,1,0,0,1.0244,Pumice_rect,8,1.024,1,5,0,5,0,1,,,,,,,,,,,,,
5f35cd449bf003039842077f,SCN,2024-06-24_14h46.10.977,LearnStrategy,2023.2.3,Win32,60.24096386,3,1,7,0.248697917,0.41015625,1,0,0,3.7314,Pumice_13,8,13,6,6,3.731,0.376302083,-0.404947917,1,0,0,1.6078,Pumice_rect,8,1.608,1,6,0,6,0,1,,,,,,,,,,,,,
5f35cd449bf003039842077f,SCN,2024-06-24_14h46.10.977,LearnStrategy,2023.2.3,Win32,60.24096386,3,1,8,-0.053385417,0.391927083,1,0,0,1.5108,Diorite_12,3,12,6,4,1.511,0.09765625,-0.266927083,1,0,0,2.9668,Diorite_rect,3,2.967,1,7,0,7,0,1,,,,,,,,,,,,,
5f35cd449bf003039842077f,SCN,2024-06-24_14h46.10.977,LearnStrategy,2023.2.3,Win32,60.24096386,3,1,9,0.072916667,0.21875,1,0,0,2.4834,Obsidian_16,5,16,5,5,2.483,-0.365885417,-0.4140625,1,0,0,1.1764,Obsidian_rect,5,1.176,1,8,0,8,0,1,,,,,,,,,,,,,
5f35cd449bf003039842077f,SCN,2024-06-24_14h46.10.977,LearnStrategy,2023.2.3,Win32,60.24096386,3,1,10,-0.067708333,-0.1171875,1,0,0,2.9327,Peridotite_16,7,16,3,4,2.933,0.1171875,-0.397135417,1,0,0,6.6946,Peridotite_rect,7,6.695,1,9,0,9,0,1,,,,,,,,,,,,,
5f35cd449bf003039842077f,SCN,2024-06-24_14h46.10.977,LearnStrategy,2023.2.3,Win32,60.24096386,3,1,11,0.087239583,0.106770833,1,0,0,1.2148,Pegmatite_16,6,16,4,5,1.215,-0.154947917,-0.390625,1,0,0,8.5783,Pegmatite_rect,6,8.578,1,10,0,10,0,1,,,,,,,,,,,,,
5f35cd449bf003039842077f,SCN,2024-06-24_14h46.10.977,LearnStrategy,2023.2.3,Win32,60.24096386,3,1,12,0.26171875,0.220052083,1,0,0,3.7468,Andesite_02,1,02,5,6,3.747,0.126302083,-0.231770833,1,0,0,7.7257,Diorite_rect,3,7.726,0,11,0,11,0,1,,,,,,,,,,,,,
5f35cd449bf003039842077f,SCN,2024-06-24_14h46.10.977,LearnStrategy,2023.2.3,Win32,60.24096386,3,1,13,0.397135417,0.0859375,1,0,0,5.8542,Andesite_04,1,04,4,7,5.854,0.4296875,-0.236979167,1,0,0,17.3662,Gabbro_rect,4,17.366,0,12,0,12,0,1,,,,,,,,,,,,,
5f35cd449bf003039842077f,SCN,2024-06-24_14h46.10.977,LearnStrategy,2023.2.3,Win32,60.24096386,3,1,14,0.388020833,-0.44140625,1,0,0,4.293,Andesite_07,1,07,1,7,4.293,-0.376302083,-0.252604167,1,0,0,1.7526,Andesite_rect,1,1.753,1,13,0,13,0,1,,,,,,,,,,,,,
5f35cd449bf003039842077f,SCN,2024-06-24_14h46.10.977,LearnStrategy,2023.2.3,Win32,60.24096386,3,1,15,-0.255208333,-0.265625,1,0,0,2.034,Pegmatite_11,6,11,2,3,2.034,-0.14453125,-0.397135417,1,0,0,9.0522,Pegmatite_rect,6,9.052,1,14,0,14,0,1,,,,,,,,,,,,,
5f35cd449bf003039842077f,SCN,2024-06-24_14h46.10.977,LearnStrategy,2023.2.3,Win32,60.24096386,3,1,16,0.259114583,-0.2265625,1,0,0,2.8136,Pegmatite_05,6,05,2,6,2.814,-0.087239583,-0.390625,1,0,0,1.703,Pegmatite_rect,6,1.703,1,15,0,15,0,1,,,,,,,,,,,,,
5f35cd449bf003039842077f,SCN,2024-06-24_14h46.10.977,LearnStrategy,2023.2.3,Win32,60.24096386,3,2,1,,,,,,,,1,16,,,,,,,,,,,1,5.201,1,,,,,,-0.372395833,-0.2578125,1,0,0,5.2006,Andesite_rect,0,0,0,0,1,
5f35cd449bf003039842077f,SCN,2024-06-24_14h46.10.977,LearnStrategy,2023.2.3,Win32,60.24096386,3,2,2,,,,,,,,4,14,,,,,,,,,,,4,11.261,1,,,,,,0.419270833,-0.240885417,1,0,0,11.2608,Gabbro_rect,1,0,1,0,1,
5f35cd449bf003039842077f,SCN,2024-06-24_14h46.10.977,LearnStrategy,2023.2.3,Win32,60.24096386,3,2,3,,,,,,,,3,14,,,,,,,,,,,3,14.789,1,,,,,,0.134114583,-0.26171875,1,0,0,14.7891,Diorite_rect,2,0,2,0,1,
5f35cd449bf003039842077f,SCN,2024-06-24_14h46.10.977,LearnStrategy,2023.2.3,Win32,60.24096386,3,2,4,,,,,,,,7,10,,,,,,,,,,,7,22.399,1,,,,,,0.161458333,-0.3984375,1,0,0,22.3993,Peridotite_rect,3,0,3,0,1,
5f35cd449bf003039842077f,SCN,2024-06-24_14h46.10.977,LearnStrategy,2023.2.3,Win32,60.24096386,3,2,5,,,,,,,,8,02,,,,,,,,,,,8,19.819,1,,,,,,0.434895833,-0.4140625,1,0,0,19.8193,Pumice_rect,4,0,4,0,1,
5f35cd449bf003039842077f,SCN,2024-06-24_14h46.10.977,LearnStrategy,2023.2.3,Win32,60.24096386,3,2,6,,,,,,,,6,09,,,,,,,,,,,6,4.466,1,,,,,,-0.125,-0.389322917,1,0,0,4.4657,Pegmatite_rect,5,0,5,0,1,
5f35cd449bf003039842077f,SCN,2024-06-24_14h46.10.977,LearnStrategy,2023.2.3,Win32,60.24096386,3,2,7,,,,,,,,5,06,,,,,,,,,,,5,4.61,1,,,,,,-0.41015625,-0.391927083,1,0,0,4.6097,Obsidian_rect,6,0,6,0,1,
5f35cd449bf003039842077f,SCN,2024-06-24_14h46.10.977,LearnStrategy,2023.2.3,Win32,60.24096386,3,2,8,,,,,,,,2,16,,,,,,,,,,,4,9.085,0,,,,,,0.4140625,-0.23828125,1,0,0,9.0848,Gabbro_rect,7,0,7,0,1,
5f35cd449bf003039842077f,SCN,2024-06-24_14h46.10.977,LearnStrategy,2023.2.3,Win32,60.24096386,3,2,9,,,,,,,,3,08,,,,,,,,,,,3,4.686,1,,,,,,0.151041667,-0.2578125,1,0,0,4.6856,Diorite_rect,8,0,8,0,1,
5f35cd449bf003039842077f,SCN,2024-06-24_14h46.10.977,LearnStrategy,2023.2.3,Win32,60.24096386,3,2,10,,,,,,,,8,10,,,,,,,,,,,8,1.618,1,,,,,,0.377604167,-0.395833333,1,0,0,1.6183,Pumice_rect,9,0,9,0,1,
5f35cd449bf003039842077f,SCN,2024-06-24_14h46.10.977,LearnStrategy,2023.2.3,Win32,60.24096386,3,2,11,,,,,,,,2,10,,,,,,,,,,,2,19.787,1,,,,,,-0.075520833,-0.24609375,1,0,0,19.7874,Basalt_rect,10,0,10,0,1,
5f35cd449bf003039842077f,SCN,2024-06-24_14h46.10.977,LearnStrategy,2023.2.3,Win32,60.24096386,3,2,12,,,,,,,,5,07,,,,,,,,,,,5,11.259,1,,,,,,-0.401041667,-0.416666667,1,0,0,11.2592,Obsidian_rect,11,0,11,0,1,
5f35cd449bf003039842077f,SCN,2024-06-24_14h46.10.977,LearnStrategy,2023.2.3,Win32,60.24096386,3,2,13,,,,,,,,4,10,,,,,,,,,,,4,10.743,1,,,,,,0.3984375,-0.248697917,1,0,0,10.7426,Gabbro_rect,12,0,12,0,1,
5f35cd449bf003039842077f,SCN,2024-06-24_14h46.10.977,LearnStrategy,2023.2.3,Win32,60.24096386,3,2,14,,,,,,,,1,10,,,,,,,,,,,1,13.482,1,,,,,,-0.375,-0.229166667,1,0,0,13.4817,Andesite_rect,13,0,13,0,1,
5f35cd449bf003039842077f,SCN,2024-06-24_14h46.10.977,LearnStrategy,2023.2.3,Win32,60.24096386,3,2,15,,,,,,,,6,03,,,,,,,,,,,6,3.974,1,,,,,,-0.154947917,-0.391927083,1,0,0,3.9741,Pegmatite_rect,14,0,14,0,1,
5f35cd449bf003039842077f,SCN,2024-06-24_14h46.10.977,LearnStrategy,2023.2.3,Win32,60.24096386,3,2,16,,,,,,,,7,14,,,,,,,,,,,7,9.643,1,,,,,,0.126302083,-0.4140625,1,0,0,9.6433,Peridotite_rect,15,0,15,0,1,
5f35cd449bf003039842077f,SCN,2024-06-24_14h46.10.977,LearnStrategy,2023.2.3,Win32,60.24096386,4,1,1,0.119791667,-0.080729167,1,0,0,2.0632,Diorite_15,3,15,3,5,2.063,0.140625,-0.240885417,1,0,0,8.9019,Diorite_rect,3,8.902,1,0,0,0,0,1,,,,,,,,,,,,,
5f35cd449bf003039842077f,SCN,2024-06-24_14h46.10.977,LearnStrategy,2023.2.3,Win32,60.24096386,4,1,2,0.393229167,-0.092447917,1,0,0,1.7503,Diorite_16,3,16,3,7,1.75,0.1640625,-0.234375,1,0,0,11.3916,Diorite_rect,3,11.392,1,1,0,1,0,1,,,,,,,,,,,,,
5f35cd449bf003039842077f,SCN,2024-06-24_14h46.10.977,LearnStrategy,2023.2.3,Win32,60.24096386,4,1,3,-0.216145833,-0.111979167,1,0,0,1.6594,Basalt_05,2,05,3,3,1.659,-0.115885417,-0.23046875,1,0,0,3.8868,Basalt_rect,2,3.887,1,2,0,2,0,1,,,,,,,,,,,,,
5f35cd449bf003039842077f,SCN,2024-06-24_14h46.10.977,LearnStrategy,2023.2.3,Win32,60.24096386,4,1,4,-0.057291667,-0.430989583,1,0,0,1.6606,Basalt_08,2,08,1,4,1.661,-0.118489583,-0.255208333,1,0,0,1.2439,Basalt_rect,2,1.244,1,3,0,3,0,1,,,,,,,,,,,,,
5f35cd449bf003039842077f,SCN,2024-06-24_14h46.10.977,LearnStrategy,2023.2.3,Win32,60.24096386,4,1,5,-0.2265625,-0.424479167,1,0,0,3.6811,Pumice_16,8,16,1,3,3.681,0.40234375,-0.397135417,1,0,0,0.7107,Pumice_rect,8,0.711,1,4,0,4,0,1,,,,,,,,,,,,,
5f35cd449bf003039842077f,SCN,2024-06-24_14h46.10.977,LearnStrategy,2023.2.3,Win32,60.24096386,4,1,6,0.09375,-0.438802083,1,0,0,1.3201,Peridotite_08,7,08,1,5,1.32,0.170572917,-0.401041667,1,0,0,9.4307,Peridotite_rect,7,9.431,1,5,0,5,0,1,,,,,,,,,,,,,
5f35cd449bf003039842077f,SCN,2024-06-24_14h46.10.977,LearnStrategy,2023.2.3,Win32,60.24096386,4,1,7,-0.045572917,0.23828125,1,0,0,3.0503,Basalt_01,2,01,5,4,3.05,-0.138020833,-0.263020833,1,0,0,1.2005,Basalt_rect,2,1.2,1,6,0,6,0,1,,,,,,,,,,,,,
5f35cd449bf003039842077f,SCN,2024-06-24_14h46.10.977,LearnStrategy,2023.2.3,Win32,60.24096386,4,1,8,0.255208333,0.266927083,1,0,0,1.0889,Andesite_02,1,02,5,6,1.089,-0.342447917,-0.247395833,1,0,0,6.1162,Andesite_rect,1,6.116,1,7,0,7,0,1,,,,,,,,,,,,,
5f35cd449bf003039842077f,SCN,2024-06-24_14h46.10.977,LearnStrategy,2023.2.3,Win32,60.24096386,4,1,9,0.360677083,0.264322917,1,0,0,2.4934,Peridotite_02,7,02,5,7,2.493,0.141927083,-0.380208333,1,0,0,1.3016,Peridotite_rect,7,1.302,1,8,0,8,0,1,,,,,,,,,,,,,
5f35cd449bf003039842077f,SCN,2024-06-24_14h46.10.977,LearnStrategy,2023.2.3,Win32,60.24096386,4,1,10,0.526041667,0.102864583,1,0,0,1.3185,Andesite_09,1,09,4,8,1.318,-0.338541667,-0.243489583,1,0,0,8.9147,Andesite_rect,1,8.915,1,9,0,9,0,1,,,,,,,,,,,,,
5f35cd449bf003039842077f,SCN,2024-06-24_14h46.10.977,LearnStrategy,2023.2.3,Win32,60.24096386,4,1,11,0.234375,0.110677083,1,0,0,1.2132,Obsidian_10,5,10,4,6,1.213,-0.375,-0.391927083,1,0,0,0.9977,Obsidian_rect,5,0.998,1,10,0,10,0,1,,,,,,,,,,,,,
5f35cd449bf003039842077f,SCN,2024-06-24_14h46.10.977,LearnStrategy,2023.2.3,Win32,60.24096386,4,1,12,0.106770833,0.419270833,1,0,0,2.1836,Pumice_06,8,06,6,5,2.184,0.421875,-0.412760417,1,0,0,1.0539,Pumice_rect,8,1.054,1,11,0,11,0,1,,,,,,,,,,,,,
5f35cd449bf003039842077f,SCN,2024-06-24_14h46.10.977,LearnStrategy,2023.2.3,Win32,60.24096386,4,1,13,0.109375,0.09765625,1,0,0,2.4429,Pegmatite_16,6,16,4,5,2.443,-0.084635417,-0.390625,1,0,0,1.4587,Pegmatite_rect,6,1.459,1,12,0,12,0,1,,,,,,,,,,,,,
5f35cd449bf003039842077f,SCN,2024-06-24_14h46.10.977,LearnStrategy,2023.2.3,Win32,60.24096386,4,1,14,-0.23828125,0.251302083,1,0,0,1.9753,Peridotite_12,7,12,5,3,1.975,0.12109375,-0.41015625,1,0,0,11.4506,Peridotite_rect,7,11.451,1,13,0,13,0,1,,,,,,,,,,,,,
5f35cd449bf003039842077f,SCN,2024-06-24_14h46.10.977,LearnStrategy,2023.2.3,Win32,60.24096386,4,1,15,0.397135417,0.419270833,1,0,0,3.4333,Diorite_06,3,06,6,7,3.433,-0.381510417,-0.26171875,1,0,0,8.2035,Andesite_rect,1,8.204,0,14,0,14,0,1,,,,,,,,,,,,,
5f35cd449bf003039842077f,SCN,2024-06-24_14h46.10.977,LearnStrategy,2023.2.3,Win32,60.24096386,4,1,16,0.028645833,-0.283854167,1,0,0,2.7178,Diorite_11,3,11,2,5,2.718,0.15625,-0.244791667,1,0,0,8.7853,Diorite_rect,3,8.785,1,15,0,15,0,1,,,,,,,,,,,,,
5f35cd449bf003039842077f,SCN,2024-06-24_14h46.10.977,LearnStrategy,2023.2.3,Win32,60.24096386,4,2,1,,,,,,,,3,10,,,,,,,,,,,3,28.459,1,,,,,,0.14453125,-0.23046875,1,0,0,28.4593,Diorite_rect,0,0,0,0,1,
5f35cd449bf003039842077f,SCN,2024-06-24_14h46.10.977,LearnStrategy,2023.2.3,Win32,60.24096386,4,2,2,,,,,,,,7,07,,,,,,,,,,,7,5.042,1,,,,,,0.11328125,-0.390625,1,0,0,5.0416,Peridotite_rect,1,0,1,0,1,
5f35cd449bf003039842077f,SCN,2024-06-24_14h46.10.977,LearnStrategy,2023.2.3,Win32,60.24096386,4,2,3,,,,,,,,8,09,,,,,,,,,,,8,1.296,1,,,,,,0.365885417,-0.399739583,1,0,0,1.2963,Pumice_rect,2,0,2,0,1,
5f35cd449bf003039842077f,SCN,2024-06-24_14h46.10.977,LearnStrategy,2023.2.3,Win32,60.24096386,4,2,4,,,,,,,,2,11,,,,,,,,,,,2,15.3,1,,,,,,-0.126302083,-0.252604167,1,0,0,15.3003,Basalt_rect,3,0,3,0,1,
5f35cd449bf003039842077f,SCN,2024-06-24_14h46.10.977,LearnStrategy,2023.2.3,Win32,60.24096386,4,2,5,,,,,,,,6,03,,,,,,,,,,,6,2.054,1,,,,,,-0.109375,-0.3984375,1,0,0,2.0541,Pegmatite_rect,4,0,4,0,1,
5f35cd449bf003039842077f,SCN,2024-06-24_14h46.10.977,LearnStrategy,2023.2.3,Win32,60.24096386,4,2,6,,,,,,,,8,03,,,,,,,,,,,8,1.75,1,,,,,,0.376302083,-0.40234375,1,0,0,1.7498,Pumice_rect,5,0,5,0,1,
5f35cd449bf003039842077f,SCN,2024-06-24_14h46.10.977,LearnStrategy,2023.2.3,Win32,60.24096386,4,2,7,,,,,,,,6,07,,,,,,,,,,,6,1.417,1,,,,,,-0.13671875,-0.403645833,1,0,0,1.4168,Pegmatite_rect,6,0,6,0,1,
5f35cd449bf003039842077f,SCN,2024-06-24_14h46.10.977,LearnStrategy,2023.2.3,Win32,60.24096386,4,2,8,,,,,,,,4,12,,,,,,,,,,,4,18.765,1,,,,,,0.4140625,-0.252604167,1,0,0,18.7655,Gabbro_rect,7,0,7,0,1,
5f35cd449bf003039842077f,SCN,2024-06-24_14h46.10.977,LearnStrategy,2023.2.3,Win32,60.24096386,4,2,9,,,,,,,,7,10,,,,,,,,,,,7,9.604,1,,,,,,0.079427083,-0.39453125,1,0,0,9.6039,Peridotite_rect,8,0,8,0,1,
5f35cd449bf003039842077f,SCN,2024-06-24_14h46.10.977,LearnStrategy,2023.2.3,Win32,60.24096386,4,2,10,,,,,,,,4,05,,,,,,,,,,,4,24.67,1,,,,,,0.399739583,-0.252604167,1,0,0,24.6705,Gabbro_rect,9,0,9,0,1,
5f35cd449bf003039842077f,SCN,2024-06-24_14h46.10.977,LearnStrategy,2023.2.3,Win32,60.24096386,4,2,11,,,,,,,,5,12,,,,,,,,,,,5,1.454,1,,,,,,-0.381510417,-0.399739583,1,0,0,1.4537,Obsidian_rect,10,0,10,0,1,
5f35cd449bf003039842077f,SCN,2024-06-24_14h46.10.977,LearnStrategy,2023.2.3,Win32,60.24096386,4,2,12,,,,,,,,1,10,,,,,,,,,,,1,6.464,1,,,,,,-0.360677083,-0.239583333,1,0,0,6.4643,Andesite_rect,11,0,11,0,1,
5f35cd449bf003039842077f,SCN,2024-06-24_14h46.10.977,LearnStrategy,2023.2.3,Win32,60.24096386,4,2,13,,,,,,,,3,02,,,,,,,,,,,3,16.607,1,,,,,,0.12109375,-0.256510417,1,0,0,16.6069,Diorite_rect,12,0,12,0,1,
5f35cd449bf003039842077f,SCN,2024-06-24_14h46.10.977,LearnStrategy,2023.2.3,Win32,60.24096386,4,2,14,,,,,,,,2,02,,,,,,,,,,,2,4.496,1,,,,,,-0.134114583,-0.248697917,1,0,0,4.4958,Basalt_rect,13,0,13,0,1,
5f35cd449bf003039842077f,SCN,2024-06-24_14h46.10.977,LearnStrategy,2023.2.3,Win32,60.24096386,4,2,15,,,,,,,,1,06,,,,,,,,,,,1,27.9,1,,,,,,-0.388020833,-0.25390625,1,0,0,27.9,Andesite_rect,14,0,14,0,1,
5f35cd449bf003039842077f,SCN,2024-06-24_14h46.10.977,LearnStrategy,2023.2.3,Win32,60.24096386,4,2,16,,,,,,,,5,02,,,,,,,,,,,5,1.32,1,,,,,,-0.391927083,-0.399739583,1,0,0,1.3205,Obsidian_rect,15,0,15,0,1,
5f35cd449bf003039842077f,SCN,2024-06-24_14h46.10.977,LearnStrategy,2023.2.3,Win32,60.24096386,5,1,1,-0.21875,0.061197917,1,0,0,1.9411,Obsidian_08,5,08,4,3,1.941,-0.403645833,-0.3984375,1,0,0,0.9886,Obsidian_rect,5,0.989,1,0,0,0,0,1,,,,,,,,,,,,,
5f35cd449bf003039842077f,SCN,2024-06-24_14h46.10.977,LearnStrategy,2023.2.3,Win32,60.24096386,5,1,2,-0.358072917,0.088541667,1,0,0,0.8621,Andesite_01,1,01,4,2,0.862,-0.37109375,-0.259114583,1,0,0,5.12,Andesite_rect,1,5.12,1,1,0,1,0,1,,,,,,,,,,,,,
5f35cd449bf003039842077f,SCN,2024-06-24_14h46.10.977,LearnStrategy,2023.2.3,Win32,60.24096386,5,1,3,-0.3828125,0.23828125,1,0,0,1.5249,Pegmatite_13,6,13,5,2,1.525,-0.1171875,-0.395833333,1,0,0,1.0238,Pegmatite_rect,6,1.024,1,2,0,2,0,1,,,,,,,,,,,,,
5f35cd449bf003039842077f,SCN,2024-06-24_14h46.10.977,LearnStrategy,2023.2.3,Win32,60.24096386,5,1,4,0.548177083,-0.110677083,1,0,0,1.7487,Pumice_04,8,04,3,8,1.749,0.39453125,-0.403645833,1,0,0,0.7449,Pumice_rect,8,0.745,1,3,0,3,0,1,,,,,,,,,,,,,
5f35cd449bf003039842077f,SCN,2024-06-24_14h46.10.977,LearnStrategy,2023.2.3,Win32,60.24096386,5,1,5,-0.368489583,0.076822917,1,0,0,5.7012,Andesite_01,1,01,4,2,5.701,-0.385416667,-0.248697917,1,0,0,1.8425,Andesite_rect,1,1.843,1,4,0,4,0,1,,,,,,,,,,,,,
5f35cd449bf003039842077f,SCN,2024-06-24_14h46.10.977,LearnStrategy,2023.2.3,Win32,60.24096386,5,1,6,-0.0703125,-0.109375,1,0,0,1.0882,Peridotite_16,7,16,3,4,1.088,0.096354167,-0.38671875,1,0,0,7.8247,Peridotite_rect,7,7.825,1,5,0,5,0,1,,,,,,,,,,,,,
5f35cd449bf003039842077f,SCN,2024-06-24_14h46.10.977,LearnStrategy,2023.2.3,Win32,60.24096386,5,1,7,0.3828125,-0.264322917,1,0,0,5.3472,Peridotite_13,7,13,2,7,5.347,0.151041667,-0.3984375,1,0,0,1.8536,Peridotite_rect,7,1.854,1,6,0,6,0,1,,,,,,,,,,,,,
5f35cd449bf003039842077f,SCN,2024-06-24_14h46.10.977,LearnStrategy,2023.2.3,Win32,60.24096386,5,1,8,-0.080729167,-0.419270833,1,0,0,2.2275,Basalt_08,2,08,1,4,2.227,-0.12109375,-0.259114583,1,0,0,1.3394,Basalt_rect,2,1.339,1,7,0,7,0,1,,,,,,,,,,,,,
5f35cd449bf003039842077f,SCN,2024-06-24_14h46.10.977,LearnStrategy,2023.2.3,Win32,60.24096386,5,1,9,0.22265625,-0.104166667,1,0,0,3.8318,Gabbro_15,4,15,3,6,3.832,0.393229167,-0.252604167,1,0,0,1.5023,Gabbro_rect,4,1.502,1,8,0,8,0,1,,,,,,,,,,,,,
5f35cd449bf003039842077f,SCN,2024-06-24_14h46.10.977,LearnStrategy,2023.2.3,Win32,60.24096386,5,1,10,-0.084635417,0.401041667,1,0,0,13.4573,Diorite_12,3,12,6,4,13.457,0.131510417,-0.236979167,1,0,0,2.5168,Diorite_rect,3,2.517,1,9,0,9,0,1,,,,,,,,,,,,,
5f35cd449bf003039842077f,SCN,2024-06-24_14h46.10.977,LearnStrategy,2023.2.3,Win32,60.24096386,5,1,11,-0.518229167,-0.274739583,1,0,0,3.1188,Basalt_14,2,14,2,1,3.119,0.390625,-0.397135417,1,0,0,8.4589,Pumice_rect,8,8.459,0,10,0,10,0,1,,,,,,,,,,,,,
5f35cd449bf003039842077f,SCN,2024-06-24_14h46.10.977,LearnStrategy,2023.2.3,Win32,60.24096386,5,1,12,0.095052083,-0.276041667,1,0,0,1.7585,Diorite_11,3,11,2,5,1.758,0.130208333,-0.251302083,1,0,0,9.1341,Diorite_rect,3,9.134,1,11,0,11,0,1,,,,,,,,,,,,,
5f35cd449bf003039842077f,SCN,2024-06-24_14h46.10.977,LearnStrategy,2023.2.3,Win32,60.24096386,5,1,13,0.079427083,0.102864583,1,0,0,1.4654,Pegmatite_16,6,16,4,5,1.465,-0.154947917,-0.41015625,1,0,0,1.2203,Pegmatite_rect,6,1.22,1,12,0,12,0,1,,,,,,,,,,,,,
5f35cd449bf003039842077f,SCN,2024-06-24_14h46.10.977,LearnStrategy,2023.2.3,Win32,60.24096386,5,1,14,0.204427083,0.264322917,1,0,0,2.0458,Andesite_02,1,02,5,6,2.046,-0.358072917,-0.23828125,1,0,0,9.8298,Andesite_rect,1,9.83,1,13,0,13,0,1,,,,,,,,,,,,,
5f35cd449bf003039842077f,SCN,2024-06-24_14h46.10.977,LearnStrategy,2023.2.3,Win32,60.24096386,5,1,15,-0.421875,-0.263020833,1,0,0,3.4842,Pegmatite_10,6,10,2,2,3.484,-0.145833333,-0.3984375,1,0,0,1.1028,Pegmatite_rect,6,1.103,1,14,0,14,0,1,,,,,,,,,,,,,
5f35cd449bf003039842077f,SCN,2024-06-24_14h46.10.977,LearnStrategy,2023.2.3,Win32,60.24096386,5,1,16,-0.088541667,-0.240885417,1,0,0,1.9271,Obsidian_11,5,11,2,4,1.927,-0.401041667,-0.389322917,1,0,0,0.6727,Obsidian_rect,5,0.673,1,15,0,15,0,1,,,,,,,,,,,,,
5f35cd449bf003039842077f,SCN,2024-06-24_14h46.10.977,LearnStrategy,2023.2.3,Win32,60.24096386,5,2,1,,,,,,,,5,07,,,,,,,,,,,5,1.692,1,,,,,,-0.40625,-0.412760417,1,0,0,1.6923,Obsidian_rect,0,0,0,0,1,
5f35cd449bf003039842077f,SCN,2024-06-24_14h46.10.977,LearnStrategy,2023.2.3,Win32,60.24096386,5,2,2,,,,,,,,3,07,,,,,,,,,,,3,14.716,1,,,,,,0.1875,-0.259114583,1,0,0,14.7162,Diorite_rect,1,0,1,0,1,
5f35cd449bf003039842077f,SCN,2024-06-24_14h46.10.977,LearnStrategy,2023.2.3,Win32,60.24096386,5,2,3,,,,,,,,4,10,,,,,,,,,,,2,2.648,0,,,,,,-0.1015625,-0.255208333,1,0,0,2.6478,Basalt_rect,2,0,2,0,1,
5f35cd449bf003039842077f,SCN,2024-06-24_14h46.10.977,LearnStrategy,2023.2.3,Win32,60.24096386,5,2,4,,,,,,,,1,14,,,,,,,,,,,1,18.419,1,,,,,,-0.440104167,-0.239583333,1,0,0,18.419,Andesite_rect,3,0,3,0,1,
5f35cd449bf003039842077f,SCN,2024-06-24_14h46.10.977,LearnStrategy,2023.2.3,Win32,60.24096386,5,2,5,,,,,,,,2,06,,,,,,,,,,,2,1.416,1,,,,,,-0.14453125,-0.263020833,1,0,0,1.4159,Basalt_rect,4,0,4,0,1,
5f35cd449bf003039842077f,SCN,2024-06-24_14h46.10.977,LearnStrategy,2023.2.3,Win32,60.24096386,5,2,6,,,,,,,,2,04,,,,,,,,,,,2,0.983,1,,,,,,-0.16796875,-0.251302083,1,0,0,0.9834,Basalt_rect,5,0,5,0,1,
5f35cd449bf003039842077f,SCN,2024-06-24_14h46.10.977,LearnStrategy,2023.2.3,Win32,60.24096386,5,2,7,,,,,,,,3,09,,,,,,,,,,,3,7.789,1,,,,,,0.139322917,-0.243489583,1,0,0,7.7886,Diorite_rect,6,0,6,0,1,
5f35cd449bf003039842077f,SCN,2024-06-24_14h46.10.977,LearnStrategy,2023.2.3,Win32,60.24096386,5,2,8,,,,,,,,5,05,,,,,,,,,,,5,2.249,1,,,,,,-0.364583333,-0.401041667,1,0,0,2.2488,Obsidian_rect,7,0,7,0,1,
5f35cd449bf003039842077f,SCN,2024-06-24_14h46.10.977,LearnStrategy,2023.2.3,Win32,60.24096386,5,2,9,,,,,,,,7,15,,,,,,,,,,,7,7.916,1,,,,,,0.149739583,-0.39453125,1,0,0,7.916,Peridotite_rect,8,0,8,0,1,
5f35cd449bf003039842077f,SCN,2024-06-24_14h46.10.977,LearnStrategy,2023.2.3,Win32,60.24096386,5,2,10,,,,,,,,6,09,,,,,,,,,,,6,1.842,1,,,,,,-0.078125,-0.40234375,1,0,0,1.8423,Pegmatite_rect,9,0,9,0,1,
5f35cd449bf003039842077f,SCN,2024-06-24_14h46.10.977,LearnStrategy,2023.2.3,Win32,60.24096386,5,2,11,,,,,,,,8,05,,,,,,,,,,,8,1.519,1,,,,,,0.356770833,-0.401041667,1,0,0,1.5191,Pumice_rect,10,0,10,0,1,
5f35cd449bf003039842077f,SCN,2024-06-24_14h46.10.977,LearnStrategy,2023.2.3,Win32,60.24096386,5,2,12,,,,,,,,4,14,,,,,,,,,,,4,16.67,1,,,,,,0.397135417,-0.231770833,1,0,0,16.6697,Gabbro_rect,11,0,11,0,1,
5f35cd449bf003039842077f,SCN,2024-06-24_14h46.10.977,LearnStrategy,2023.2.3,Win32,60.24096386,5,2,13,,,,,,,,1,05,,,,,,,,,,,1,17.086,1,,,,,,-0.3515625,-0.2421875,1,0,0,17.0856,Andesite_rect,12,0,12,0,1,
5f35cd449bf003039842077f,SCN,2024-06-24_14h46.10.977,LearnStrategy,2023.2.3,Win32,60.24096386,5,2,14,,,,,,,,7,04,,,,,,,,,,,1,17.985,0,,,,,,-0.373697917,-0.25390625,1,0,0,17.9848,Andesite_rect,13,0,13,0,1,
5f35cd449bf003039842077f,SCN,2024-06-24_14h46.10.977,LearnStrategy,2023.2.3,Win32,60.24096386,5,2,15,,,,,,,,8,02,,,,,,,,,,,8,1.328,1,,,,,,0.3984375,-0.40234375,1,0,0,1.3282,Pumice_rect,14,0,14,0,1,
5f35cd449bf003039842077f,SCN,2024-06-24_14h46.10.977,LearnStrategy,2023.2.3,Win32,60.24096386,5,2,16,,,,,,,,6,06,,,,,,,,,,,6,1.405,1,,,,,,-0.170572917,-0.4140625,1,0,0,1.4053,Pegmatite_rect,15,0,15,0,1,
5f35cd449bf003039842077f,SCN,2024-06-24_14h46.10.977,LearnStrategy,2023.2.3,Win32,60.24096386,6,1,1,-0.045572917,0.25390625,1,0,0,3.3304,Basalt_01,2,01,5,4,3.33,-0.12890625,-0.239583333,1,0,0,0.9365,Basalt_rect,2,0.936,1,0,0,0,0,1,,,,,,,,,,,,,
5f35cd449bf003039842077f,SCN,2024-06-24_14h46.10.977,LearnStrategy,2023.2.3,Win32,60.24096386,6,1,2,0.372395833,0.220052083,1,0,0,2.3471,Peridotite_02,7,02,5,7,2.347,0.13671875,-0.3828125,1,0,0,0.863,Peridotite_rect,7,0.863,1,1,0,1,0,1,,,,,,,,,,,,,
5f35cd449bf003039842077f,SCN,2024-06-24_14h46.10.977,LearnStrategy,2023.2.3,Win32,60.24096386,6,1,3,-0.411458333,0.127604167,1,0,0,6.3013,Andesite_01,1,01,4,2,6.301,-0.38671875,-0.255208333,1,0,0,1.3943,Andesite_rect,1,1.394,1,2,0,2,0,1,,,,,,,,,,,,,
5f35cd449bf003039842077f,SCN,2024-06-24_14h46.10.977,LearnStrategy,2023.2.3,Win32,60.24096386,6,1,4,0.21484375,-0.100260417,1,0,0,2.9298,Gabbro_15,4,15,3,6,2.93,0.4375,-0.256510417,1,0,0,0.8684,Gabbro_rect,4,0.868,1,3,0,3,0,1,,,,,,,,,,,,,
5f35cd449bf003039842077f,SCN,2024-06-24_14h46.10.977,LearnStrategy,2023.2.3,Win32,60.24096386,6,1,5,0.09375,-0.255208333,1,0,0,2.0669,Diorite_11,3,11,2,5,2.067,0.139322917,-0.2421875,1,0,0,2.4171,Diorite_rect,3,2.417,1,4,0,4,0,1,,,,,,,,,,,,,
5f35cd449bf003039842077f,SCN,2024-06-24_14h46.10.977,LearnStrategy,2023.2.3,Win32,60.24096386,6,1,6,0.361979167,-0.430989583,1,0,0,4.2343,Andesite_07,1,07,1,7,4.234,0.111979167,-0.263020833,1,0,0,1.9172,Diorite_rect,3,1.917,0,5,0,5,0,1,,,,,,,,,,,,,
5f35cd449bf003039842077f,SCN,2024-06-24_14h46.10.977,LearnStrategy,2023.2.3,Win32,60.24096386,6,1,7,-0.091145833,-0.4375,1,0,0,1.4262,Basalt_08,2,08,1,4,1.426,-0.1484375,-0.240885417,1,0,0,0.6323,Basalt_rect,2,0.632,1,6,0,6,0,1,,,,,,,,,,,,,
5f35cd449bf003039842077f,SCN,2024-06-24_14h46.10.977,LearnStrategy,2023.2.3,Win32,60.24096386,6,1,8,-0.557291667,-0.395833333,1,0,0,1.9983,Diorite_13,3,13,1,1,1.998,-0.430989583,-0.239583333,1,0,0,1.5204,Andesite_rect,1,1.52,0,7,0,7,0,1,,,,,,,,,,,,,
5f35cd449bf003039842077f,SCN,2024-06-24_14h46.10.977,LearnStrategy,2023.2.3,Win32,60.24096386,6,1,9,0.440104167,0.236979167,1,0,0,1.7836,Peridotite_02,7,02,5,7,1.784,0.141927083,-0.41796875,1,0,0,0.9712,Peridotite_rect,7,0.971,1,8,0,8,0,1,,,,,,,,,,,,,
5f35cd449bf003039842077f,SCN,2024-06-24_14h46.10.977,LearnStrategy,2023.2.3,Win32,60.24096386,6,1,10,-0.22265625,0.115885417,1,0,0,1.1267,Obsidian_08,5,08,4,3,1.127,-0.388020833,-0.389322917,1,0,0,1.3021,Obsidian_rect,5,1.302,1,9,0,9,0,1,,,,,,,,,,,,,
5f35cd449bf003039842077f,SCN,2024-06-24_14h46.10.977,LearnStrategy,2023.2.3,Win32,60.24096386,6,1,11,-0.53125,0.420572917,1,0,0,2.2101,Gabbro_01,4,01,6,1,2.21,-0.115885417,-0.256510417,1,0,0,36.3221,Basalt_rect,2,36.322,0,10,0,10,0,1,,,,,,,,,,,,,
5f35cd449bf003039842077f,SCN,2024-06-24_14h46.10.977,LearnStrategy,2023.2.3,Win32,60.24096386,6,1,12,0.201822917,0.272135417,1,0,0,2.5129,Andesite_02,1,02,5,6,2.513,-0.42578125,-0.256510417,1,0,0,8.0275,Andesite_rect,1,8.028,1,11,0,11,0,1,,,,,,,,,,,,,
5f35cd449bf003039842077f,SCN,2024-06-24_14h46.10.977,LearnStrategy,2023.2.3,Win32,60.24096386,6,1,13,0.061197917,-0.088541667,1,0,0,1.0601,Diorite_15,3,15,3,5,1.06,0.1484375,-0.25390625,1,0,0,7.1073,Diorite_rect,3,7.107,1,12,0,12,0,1,,,,,,,,,,,,,
5f35cd449bf003039842077f,SCN,2024-06-24_14h46.10.977,LearnStrategy,2023.2.3,Win32,60.24096386,6,1,14,0.12109375,-0.407552083,1,0,0,1.818,Peridotite_08,7,08,1,5,1.818,0.147135417,-0.40234375,1,0,0,1.1547,Peridotite_rect,7,1.155,1,13,0,13,0,1,,,,,,,,,,,,,
5f35cd449bf003039842077f,SCN,2024-06-24_14h46.10.977,LearnStrategy,2023.2.3,Win32,60.24096386,6,1,15,-0.23828125,0.227864583,1,0,0,2.7885,Peridotite_12,7,12,5,3,2.789,0.162760417,-0.421875,1,0,0,1.3138,Peridotite_rect,7,1.314,1,14,0,14,0,1,,,,,,,,,,,,,
5f35cd449bf003039842077f,SCN,2024-06-24_14h46.10.977,LearnStrategy,2023.2.3,Win32,60.24096386,6,1,16,-0.528645833,0.26953125,1,0,0,1.793,Gabbro_08,4,08,5,1,1.793,-0.125,-0.266927083,1,0,0,2.3838,Basalt_rect,2,2.384,0,15,0,15,0,1,,,,,,,,,,,,,
5f35cd449bf003039842077f,SCN,2024-06-24_14h46.10.977,LearnStrategy,2023.2.3,Win32,60.24096386,6,2,1,,,,,,,,6,15,,,,,,,,,,,6,2.177,1,,,,,,-0.10546875,-0.39453125,1,0,0,2.1771,Pegmatite_rect,0,0,0,0,1,
5f35cd449bf003039842077f,SCN,2024-06-24_14h46.10.977,LearnStrategy,2023.2.3,Win32,60.24096386,6,2,2,,,,,,,,2,10,,,,,,,,,,,2,1.824,1,,,,,,-0.14453125,-0.256510417,1,0,0,1.8243,Basalt_rect,1,0,1,0,1,
5f35cd449bf003039842077f,SCN,2024-06-24_14h46.10.977,LearnStrategy,2023.2.3,Win32,60.24096386,6,2,3,,,,,,,,4,13,,,,,,,,,,,4,13.106,1,,,,,,0.423177083,-0.23046875,1,0,0,13.1056,Gabbro_rect,2,0,2,0,1,
5f35cd449bf003039842077f,SCN,2024-06-24_14h46.10.977,LearnStrategy,2023.2.3,Win32,60.24096386,6,2,4,,,,,,,,6,12,,,,,,,,,,,3,25.429,0,,,,,,0.118489583,-0.266927083,1,0,0,25.4287,Diorite_rect,3,0,3,0,1,
5f35cd449bf003039842077f,SCN,2024-06-24_14h46.10.977,LearnStrategy,2023.2.3,Win32,60.24096386,6,2,5,,,,,,,,2,16,,,,,,,,,,,2,15.953,1,,,,,,-0.109375,-0.25390625,1,0,0,15.9526,Basalt_rect,4,0,4,0,1,
5f35cd449bf003039842077f,SCN,2024-06-24_14h46.10.977,LearnStrategy,2023.2.3,Win32,60.24096386,6,2,6,,,,,,,,8,15,,,,,,,,,,,8,3.48,1,,,,,,0.424479167,-0.399739583,1,0,0,3.4803,Pumice_rect,5,0,5,0,1,
5f35cd449bf003039842077f,SCN,2024-06-24_14h46.10.977,LearnStrategy,2023.2.3,Win32,60.24096386,6,2,7,,,,,,,,8,10,,,,,,,,,,,8,1.405,1,,,,,,0.440104167,-0.41796875,1,0,0,1.4048,Pumice_rect,6,0,6,0,1,
5f35cd449bf003039842077f,SCN,2024-06-24_14h46.10.977,LearnStrategy,2023.2.3,Win32,60.24096386,6,2,8,,,,,,,,4,16,,,,,,,,,,,2,20.265,0,,,,,,-0.1484375,-0.244791667,1,0,0,20.2653,Basalt_rect,7,0,7,0,1,
5f35cd449bf003039842077f,SCN,2024-06-24_14h46.10.977,LearnStrategy,2023.2.3,Win32,60.24096386,6,2,9,,,,,,,,3,14,,,,,,,,,,,3,18.267,1,,,,,,0.1484375,-0.240885417,1,0,0,18.2665,Diorite_rect,8,0,8,0,1,
5f35cd449bf003039842077f,SCN,2024-06-24_14h46.10.977,LearnStrategy,2023.2.3,Win32,60.24096386,6,2,10,,,,,,,,1,16,,,,,,,,,,,1,13.207,1,,,,,,-0.412760417,-0.248697917,1,0,0,13.2067,Andesite_rect,9,0,9,0,1,
5f35cd449bf003039842077f,SCN,2024-06-24_14h46.10.977,LearnStrategy,2023.2.3,Win32,60.24096386,6,2,11,,,,,,,,5,06,,,,,,,,,,,5,1.489,1,,,,,,-0.40234375,-0.4140625,1,0,0,1.4891,Obsidian_rect,10,0,10,0,1,
5f35cd449bf003039842077f,SCN,2024-06-24_14h46.10.977,LearnStrategy,2023.2.3,Win32,60.24096386,6,2,12,,,,,,,,3,08,,,,,,,,,,,3,4.868,1,,,,,,0.143229167,-0.24609375,1,0,0,4.8675,Diorite_rect,11,0,11,0,1,
5f35cd449bf003039842077f,SCN,2024-06-24_14h46.10.977,LearnStrategy,2023.2.3,Win32,60.24096386,6,2,13,,,,,,,,7,05,,,,,,,,,,,7,1.83,1,,,,,,0.122395833,-0.40625,1,0,0,1.8296,Peridotite_rect,12,0,12,0,1,
5f35cd449bf003039842077f,SCN,2024-06-24_14h46.10.977,LearnStrategy,2023.2.3,Win32,60.24096386,6,2,14,,,,,,,,7,14,,,,,,,,,,,1,30.58,0,,,,,,-0.393229167,-0.248697917,1,0,0,30.5801,Andesite_rect,13,0,13,0,1,
5f35cd449bf003039842077f,SCN,2024-06-24_14h46.10.977,LearnStrategy,2023.2.3,Win32,60.24096386,6,2,15,,,,,,,,5,14,,,,,,,,,,,5,2.971,1,,,,,,-0.415364583,-0.407552083,1,0,0,2.9709,Obsidian_rect,14,0,14,0,1,
5f35cd449bf003039842077f,SCN,2024-06-24_14h46.10.977,LearnStrategy,2023.2.3,Win32,60.24096386,6,2,16,,,,,,,,1,11,,,,,,,,,,,1,15.766,1,,,,,,-0.401041667,-0.25,1,0,0,15.7659,Andesite_rect,15,0,15,0,1,
5f35cd449bf003039842077f,SCN,2024-06-24_14h46.10.977,LearnStrategy,2023.2.3,Win32,60.24096386,7,1,1,-0.41796875,-0.283854167,1,0,0,7.5556,Pegmatite_10,6,10,2,2,7.556,-0.09375,-0.391927083,1,0,0,0.9663,Pegmatite_rect,6,0.966,1,0,0,0,0,1,,,,,,,,,,,,,
5f35cd449bf003039842077f,SCN,2024-06-24_14h46.10.977,LearnStrategy,2023.2.3,Win32,60.24096386,7,1,2,0.381510417,-0.233072917,1,0,0,1.1652,Peridotite_13,7,13,2,7,1.165,0.157552083,-0.403645833,1,0,0,0.5996,Peridotite_rect,7,0.6,1,1,0,1,0,1,,,,,,,,,,,,,
5f35cd449bf003039842077f,SCN,2024-06-24_14h46.10.977,LearnStrategy,2023.2.3,Win32,60.24096386,7,1,3,0.220052083,-0.098958333,1,0,0,1.0645,Gabbro_15,4,15,3,6,1.064,0.381510417,-0.24609375,1,0,0,0.8899,Gabbro_rect,4,0.89,1,2,0,2,0,1,,,,,,,,,,,,,
5f35cd449bf003039842077f,SCN,2024-06-24_14h46.10.977,LearnStrategy,2023.2.3,Win32,60.24096386,7,1,4,0.391927083,0.231770833,1,0,0,1.7524,Peridotite_02,7,02,5,7,1.752,0.140625,-0.388020833,1,0,0,0.9286,Peridotite_rect,7,0.929,1,3,0,3,0,1,,,,,,,,,,,,,
5f35cd449bf003039842077f,SCN,2024-06-24_14h46.10.977,LearnStrategy,2023.2.3,Win32,60.24096386,7,1,5,-0.369791667,0.111979167,1,0,0,3.1752,Andesite_01,1,01,4,2,3.175,-0.33984375,-0.252604167,1,0,0,1.5996,Andesite_rect,1,1.6,1,4,0,4,0,1,,,,,,,,,,,,,
5f35cd449bf003039842077f,SCN,2024-06-24_14h46.10.977,LearnStrategy,2023.2.3,Win32,60.24096386,7,1,6,-0.080729167,-0.135416667,1,0,0,1.6101,Peridotite_16,7,16,3,4,1.61,0.110677083,-0.256510417,1,0,0,3.9649,Diorite_rect,3,3.965,0,5,0,5,0,1,,,,,,,,,,,,,
5f35cd449bf003039842077f,SCN,2024-06-24_14h46.10.977,LearnStrategy,2023.2.3,Win32,60.24096386,7,1,7,-0.071614583,0.407552083,1,0,0,1.8417,Diorite_12,3,12,6,4,1.842,0.174479167,-0.247395833,1,0,0,1.6716,Diorite_rect,3,1.672,1,6,0,6,0,1,,,,,,,,,,,,,
5f35cd449bf003039842077f,SCN,2024-06-24_14h46.10.977,LearnStrategy,2023.2.3,Win32,60.24096386,7,1,8,-0.54296875,-0.434895833,1,0,0,5.8612,Diorite_13,3,13,1,1,5.861,0.390625,-0.264322917,1,0,0,1.5444,Gabbro_rect,4,1.544,0,7,0,7,0,1,,,,,,,,,,,,,
5f35cd449bf003039842077f,SCN,2024-06-24_14h46.10.977,LearnStrategy,2023.2.3,Win32,60.24096386,7,1,9,0.59765625,0.380208333,1,0,0,4.0417,Obsidian_04,5,04,6,8,4.042,-0.427083333,-0.407552083,1,0,0,1.2511,Obsidian_rect,5,1.251,1,8,0,8,0,1,,,,,,,,,,,,,
5f35cd449bf003039842077f,SCN,2024-06-24_14h46.10.977,LearnStrategy,2023.2.3,Win32,60.24096386,7,1,10,0.053385417,-0.43359375,1,0,0,5.4172,Peridotite_08,7,08,1,5,5.417,0.114583333,-0.4140625,1,0,0,1.3754,Peridotite_rect,7,1.375,1,9,0,9,0,1,,,,,,,,,,,,,
5f35cd449bf003039842077f,SCN,2024-06-24_14h46.10.977,LearnStrategy,2023.2.3,Win32,60.24096386,7,1,11,-0.23046875,0.220052083,1,0,0,4.7851,Peridotite_12,7,12,5,3,4.785,0.12109375,-0.403645833,1,0,0,1.3198,Peridotite_rect,7,1.32,1,10,0,10,0,1,,,,,,,,,,,,,
5f35cd449bf003039842077f,SCN,2024-06-24_14h46.10.977,LearnStrategy,2023.2.3,Win32,60.24096386,7,1,12,0.403645833,0.23046875,1,0,0,4.99,Peridotite_02,7,02,5,7,4.99,0.127604167,-0.390625,1,0,0,1.211,Peridotite_rect,7,1.211,1,11,0,11,0,1,,,,,,,,,,,,,
5f35cd449bf003039842077f,SCN,2024-06-24_14h46.10.977,LearnStrategy,2023.2.3,Win32,60.24096386,7,1,13,0.377604167,-0.430989583,1,0,0,6.0303,Andesite_07,1,07,1,7,6.03,-0.388020833,-0.248697917,1,0,0,10.0806,Andesite_rect,1,10.081,1,12,0,12,0,1,,,,,,,,,,,,,
5f35cd449bf003039842077f,SCN,2024-06-24_14h46.10.977,LearnStrategy,2023.2.3,Win32,60.24096386,7,1,14,0.213541667,-0.114583333,1,0,0,1.61,Gabbro_15,4,15,3,6,1.61,0.434895833,-0.244791667,1,0,0,4.9153,Gabbro_rect,4,4.915,1,13,0,13,0,1,,,,,,,,,,,,,
5f35cd449bf003039842077f,SCN,2024-06-24_14h46.10.977,LearnStrategy,2023.2.3,Win32,60.24096386,7,1,15,0.071614583,-0.12890625,1,0,0,1.5932,Diorite_15,3,15,3,5,1.593,0.147135417,-0.239583333,1,0,0,7.0033,Diorite_rect,3,7.003,1,14,0,14,0,1,,,,,,,,,,,,,
5f35cd449bf003039842077f,SCN,2024-06-24_14h46.10.977,LearnStrategy,2023.2.3,Win32,60.24096386,7,1,16,0.231770833,-0.243489583,1,0,0,3.1002,Pegmatite_05,6,05,2,6,3.1,-0.14453125,-0.40625,1,0,0,0.8117,Pegmatite_rect,6,0.812,1,15,0,15,0,1,,,,,,,,,,,,,
5f35cd449bf003039842077f,SCN,2024-06-24_14h46.10.977,LearnStrategy,2023.2.3,Win32,60.24096386,7,2,1,,,,,,,,3,14,,,,,,,,,,,3,17.619,1,,,,,,0.17578125,-0.25,1,0,0,17.6194,Diorite_rect,0,0,0,0,1,
5f35cd449bf003039842077f,SCN,2024-06-24_14h46.10.977,LearnStrategy,2023.2.3,Win32,60.24096386,7,2,2,,,,,,,,8,09,,,,,,,,,,,8,2.308,1,,,,,,0.412760417,-0.391927083,1,0,0,2.3076,Pumice_rect,1,0,1,0,1,
5f35cd449bf003039842077f,SCN,2024-06-24_14h46.10.977,LearnStrategy,2023.2.3,Win32,60.24096386,7,2,3,,,,,,,,7,07,,,,,,,,,,,7,1.755,1,,,,,,0.139322917,-0.395833333,1,0,0,1.7547,Peridotite_rect,2,0,2,0,1,
5f35cd449bf003039842077f,SCN,2024-06-24_14h46.10.977,LearnStrategy,2023.2.3,Win32,60.24096386,7,2,4,,,,,,,,4,12,,,,,,,,,,,2,21.129,0,,,,,,-0.109375,-0.252604167,1,0,0,21.1293,Basalt_rect,3,0,3,0,1,
5f35cd449bf003039842077f,SCN,2024-06-24_14h46.10.977,LearnStrategy,2023.2.3,Win32,60.24096386,7,2,5,,,,,,,,5,07,,,,,,,,,,,5,2.19,1,,,,,,-0.389322917,-0.412760417,1,0,0,2.1899,Obsidian_rect,4,0,4,0,1,
5f35cd449bf003039842077f,SCN,2024-06-24_14h46.10.977,LearnStrategy,2023.2.3,Win32,60.24096386,7,2,6,,,,,,,,3,08,,,,,,,,,,,1,20.097,0,,,,,,-0.360677083,-0.264322917,1,0,0,20.0971,Andesite_rect,5,0,5,0,1,
5f35cd449bf003039842077f,SCN,2024-06-24_14h46.10.977,LearnStrategy,2023.2.3,Win32,60.24096386,7,2,7,,,,,,,,6,07,,,,,,,,,,,6,1.895,1,,,,,,-0.09375,-0.397135417,1,0,0,1.8955,Pegmatite_rect,6,0,6,0,1,
5f35cd449bf003039842077f,SCN,2024-06-24_14h46.10.977,LearnStrategy,2023.2.3,Win32,60.24096386,7,2,8,,,,,,,,5,05,,,,,,,,,,,5,1.914,1,,,,,,-0.328125,-0.403645833,1,0,0,1.9136,Obsidian_rect,7,0,7,0,1,
5f35cd449bf003039842077f,SCN,2024-06-24_14h46.10.977,LearnStrategy,2023.2.3,Win32,60.24096386,7,2,9,,,,,,,,7,04,,,,,,,,,,,2,15.816,0,,,,,,-0.138020833,-0.251302083,1,0,0,15.816,Basalt_rect,8,0,8,0,1,
5f35cd449bf003039842077f,SCN,2024-06-24_14h46.10.977,LearnStrategy,2023.2.3,Win32,60.24096386,7,2,10,,,,,,,,4,13,,,,,,,,,,,4,6.865,1,,,,,,0.399739583,-0.248697917,1,0,0,6.8647,Gabbro_rect,9,0,9,0,1,
5f35cd449bf003039842077f,SCN,2024-06-24_14h46.10.977,LearnStrategy,2023.2.3,Win32,60.24096386,7,2,11,,,,,,,,6,09,,,,,,,,,,,6,1.626,1,,,,,,-0.083333333,-0.401041667,1,0,0,1.6257,Pegmatite_rect,10,0,10,0,1,
5f35cd449bf003039842077f,SCN,2024-06-24_14h46.10.977,LearnStrategy,2023.2.3,Win32,60.24096386,7,2,12,,,,,,,,2,04,,,,,,,,,,,2,1.405,1,,,,,,-0.115885417,-0.240885417,1,0,0,1.4046,Basalt_rect,11,0,11,0,1,
5f35cd449bf003039842077f,SCN,2024-06-24_14h46.10.977,LearnStrategy,2023.2.3,Win32,60.24096386,7,2,13,,,,,,,,1,05,,,,,,,,,,,1,14.457,1,,,,,,-0.369791667,-0.234375,1,0,0,14.4573,Andesite_rect,12,0,12,0,1,
5f35cd449bf003039842077f,SCN,2024-06-24_14h46.10.977,LearnStrategy,2023.2.3,Win32,60.24096386,7,2,14,,,,,,,,2,10,,,,,,,,,,,2,1.138,1,,,,,,-0.154947917,-0.251302083,1,0,0,1.1379,Basalt_rect,13,0,13,0,1,
5f35cd449bf003039842077f,SCN,2024-06-24_14h46.10.977,LearnStrategy,2023.2.3,Win32,60.24096386,7,2,15,,,,,,,,8,15,,,,,,,,,,,8,1.363,1,,,,,,0.428385417,-0.412760417,1,0,0,1.3631,Pumice_rect,14,0,14,0,1,
5f35cd449bf003039842077f,SCN,2024-06-24_14h46.10.977,LearnStrategy,2023.2.3,Win32,60.24096386,7,2,16,,,,,,,,1,14,,,,,,,,,,,1,5.411,1,,,,,,-0.311197917,-0.256510417,1,0,0,5.4111,Andesite_rect,15,0,15,0,1,
5f35cd449bf003039842077f,SCN,2024-06-24_14h46.10.977,LearnStrategy,2023.2.3,Win32,60.24096386,8,1,1,-0.348958333,0.436197917,1,0,0,1.4222,Basalt_09,2,09,6,2,1.422,-0.114583333,-0.239583333,1,0,0,1.5277,Basalt_rect,2,1.528,1,0,0,0,0,1,,,,,,,,,,,,,
5f35cd449bf003039842077f,SCN,2024-06-24_14h46.10.977,LearnStrategy,2023.2.3,Win32,60.24096386,8,1,2,-0.079427083,0.393229167,1,0,0,8.6627,Diorite_12,3,12,6,4,8.663,0.1640625,-0.247395833,1,0,0,1.9308,Diorite_rect,3,1.931,1,1,0,1,0,1,,,,,,,,,,,,,
5f35cd449bf003039842077f,SCN,2024-06-24_14h46.10.977,LearnStrategy,2023.2.3,Win32,60.24096386,8,1,3,0.407552083,0.276041667,1,0,0,2.0105,Peridotite_02,7,02,5,7,2.01,0.12109375,-0.397135417,1,0,0,1.2459,Peridotite_rect,7,1.246,1,2,0,2,0,1,,,,,,,,,,,,,
5f35cd449bf003039842077f,SCN,2024-06-24_14h46.10.977,LearnStrategy,2023.2.3,Win32,60.24096386,8,1,4,-0.078125,0.075520833,1,0,0,1.6671,Obsidian_09,5,09,4,4,1.667,-0.37890625,-0.411458333,1,0,0,1.3363,Obsidian_rect,5,1.336,1,3,0,3,0,1,,,,,,,,,,,,,
5f35cd449bf003039842077f,SCN,2024-06-24_14h46.10.977,LearnStrategy,2023.2.3,Win32,60.24096386,8,1,5,-0.229166667,-0.403645833,1,0,0,1.962,Pumice_16,8,16,1,3,1.962,0.391927083,-0.404947917,1,0,0,1.0597,Pumice_rect,8,1.06,1,4,0,4,0,1,,,,,,,,,,,,,
5f35cd449bf003039842077f,SCN,2024-06-24_14h46.10.977,LearnStrategy,2023.2.3,Win32,60.24096386,8,1,6,-0.576822917,-0.41015625,1,0,0,2.0975,Diorite_13,3,13,1,1,2.097,0.134114583,-0.236979167,1,0,0,1.6796,Diorite_rect,3,1.68,1,5,0,5,0,1,,,,,,,,,,,,,
5f35cd449bf003039842077f,SCN,2024-06-24_14h46.10.977,LearnStrategy,2023.2.3,Win32,60.24096386,8,1,7,0.220052083,-0.126302083,1,0,0,4.3776,Gabbro_15,4,15,3,6,4.378,0.471354167,-0.235677083,1,0,0,0.5854,Gabbro_rect,4,0.585,1,6,0,6,0,1,,,,,,,,,,,,,
5f35cd449bf003039842077f,SCN,2024-06-24_14h46.10.977,LearnStrategy,2023.2.3,Win32,60.24096386,8,1,8,0.055989583,-0.131510417,1,0,0,3.1115,Diorite_15,3,15,3,5,3.111,0.138020833,-0.26171875,1,0,0,6.1111,Diorite_rect,3,6.111,1,7,0,7,0,1,,,,,,,,,,,,,
5f35cd449bf003039842077f,SCN,2024-06-24_14h46.10.977,LearnStrategy,2023.2.3,Win32,60.24096386,8,1,9,-0.083333333,0.380208333,1,0,0,3.3754,Diorite_12,3,12,6,4,3.375,0.1640625,-0.26171875,1,0,0,1.4204,Diorite_rect,3,1.42,1,8,0,8,0,1,,,,,,,,,,,,,
5f35cd449bf003039842077f,SCN,2024-06-24_14h46.10.977,LearnStrategy,2023.2.3,Win32,60.24096386,8,1,10,-0.53125,0.25,1,0,0,3.6562,Gabbro_08,4,08,5,1,3.656,0.4375,-0.243489583,1,0,0,4.3112,Gabbro_rect,4,4.311,1,9,0,9,0,1,,,,,,,,,,,,,
5f35cd449bf003039842077f,SCN,2024-06-24_14h46.10.977,LearnStrategy,2023.2.3,Win32,60.24096386,8,1,11,0.231770833,0.225260417,1,0,0,4.9668,Andesite_02,1,02,5,6,4.967,-0.32421875,-0.244791667,1,0,0,3.4324,Andesite_rect,1,3.432,1,10,0,10,0,1,,,,,,,,,,,,,
5f35cd449bf003039842077f,SCN,2024-06-24_14h46.10.977,LearnStrategy,2023.2.3,Win32,60.24096386,8,1,12,0.229166667,-0.28515625,1,0,0,2.3269,Pegmatite_05,6,05,2,6,2.327,-0.104166667,-0.389322917,1,0,0,1.0077,Pegmatite_rect,6,1.008,1,11,0,11,0,1,,,,,,,,,,,,,
5f35cd449bf003039842077f,SCN,2024-06-24_14h46.10.977,LearnStrategy,2023.2.3,Win32,60.24096386,8,1,13,0.096354167,-0.421875,1,0,0,1.9865,Peridotite_08,7,08,1,5,1.986,0.10546875,-0.395833333,1,0,0,0.8459,Peridotite_rect,7,0.846,1,12,0,12,0,1,,,,,,,,,,,,,
5f35cd449bf003039842077f,SCN,2024-06-24_14h46.10.977,LearnStrategy,2023.2.3,Win32,60.24096386,8,1,14,-0.38671875,-0.143229167,1,0,0,5.5523,Pumice_14,8,14,3,2,5.552,0.419270833,-0.388020833,1,0,0,0.9865,Pumice_rect,8,0.986,1,13,0,13,0,1,,,,,,,,,,,,,
5f35cd449bf003039842077f,SCN,2024-06-24_14h46.10.977,LearnStrategy,2023.2.3,Win32,60.24096386,8,1,15,0.399739583,0.385416667,1,0,0,4.711,Diorite_06,3,06,6,7,4.711,0.122395833,-0.268229167,1,0,0,11.03,Diorite_rect,3,11.03,1,14,0,14,0,1,,,,,,,,,,,,,
5f35cd449bf003039842077f,SCN,2024-06-24_14h46.10.977,LearnStrategy,2023.2.3,Win32,60.24096386,8,1,16,0.391927083,0.1015625,1,0,0,2.3163,Andesite_04,1,04,4,7,2.316,-0.34765625,-0.244791667,1,0,0,5.0483,Andesite_rect,1,5.048,1,15,0,15,0,1,,,,,,,,,,,,,
5f35cd449bf003039842077f,SCN,2024-06-24_14h46.10.977,LearnStrategy,2023.2.3,Win32,60.24096386,8,2,1,,,,,,,,2,16,,,,,,,,,,,4,37.032,0,,,,,,0.3671875,-0.251302083,1,0,0,37.0321,Gabbro_rect,0,0,0,0,1,
5f35cd449bf003039842077f,SCN,2024-06-24_14h46.10.977,LearnStrategy,2023.2.3,Win32,60.24096386,8,2,2,,,,,,,,4,14,,,,,,,,,,,4,14.411,1,,,,,,0.454427083,-0.264322917,1,0,0,14.411,Gabbro_rect,1,0,1,0,1,
5f35cd449bf003039842077f,SCN,2024-06-24_14h46.10.977,LearnStrategy,2023.2.3,Win32,60.24096386,8,2,3,,,,,,,,7,05,,,,,,,,,,,7,1.657,1,,,,,,0.166666667,-0.403645833,1,0,0,1.6574,Peridotite_rect,2,0,2,0,1,
5f35cd449bf003039842077f,SCN,2024-06-24_14h46.10.977,LearnStrategy,2023.2.3,Win32,60.24096386,8,2,4,,,,,,,,6,15,,,,,,,,,,,6,1.207,1,,,,,,-0.15625,-0.399739583,1,0,0,1.2073,Pegmatite_rect,3,0,3,0,1,
5f35cd449bf003039842077f,SCN,2024-06-24_14h46.10.977,LearnStrategy,2023.2.3,Win32,60.24096386,8,2,5,,,,,,,,3,09,,,,,,,,,,,3,11.729,1,,,,,,0.12890625,-0.2421875,1,0,0,11.729,Diorite_rect,4,0,4,0,1,
5f35cd449bf003039842077f,SCN,2024-06-24_14h46.10.977,LearnStrategy,2023.2.3,Win32,60.24096386,8,2,6,,,,,,,,4,16,,,,,,,,,,,4,2.908,1,,,,,,0.42578125,-0.24609375,1,0,0,2.9082,Gabbro_rect,5,0,5,0,1,
5f35cd449bf003039842077f,SCN,2024-06-24_14h46.10.977,LearnStrategy,2023.2.3,Win32,60.24096386,8,2,7,,,,,,,,7,10,,,,,,,,,,,7,1.214,1,,,,,,0.162760417,-0.4140625,1,0,0,1.2142,Peridotite_rect,6,0,6,0,1,
5f35cd449bf003039842077f,SCN,2024-06-24_14h46.10.977,LearnStrategy,2023.2.3,Win32,60.24096386,8,2,8,,,,,,,,2,11,,,,,,,,,,,2,14.127,1,,,,,,-0.15625,-0.239583333,1,0,0,14.1269,Basalt_rect,7,0,7,0,1,
5f35cd449bf003039842077f,SCN,2024-06-24_14h46.10.977,LearnStrategy,2023.2.3,Win32,60.24096386,8,2,9,,,,,,,,8,02,,,,,,,,,,,8,1.544,1,,,,,,0.446614583,-0.408854167,1,0,0,1.5439,Pumice_rect,8,0,8,0,1,
5f35cd449bf003039842077f,SCN,2024-06-24_14h46.10.977,LearnStrategy,2023.2.3,Win32,60.24096386,8,2,10,,,,,,,,1,11,,,,,,,,,,,2,28.65,0,,,,,,-0.140625,-0.256510417,1,0,0,28.6504,Basalt_rect,9,0,9,0,1,
5f35cd449bf003039842077f,SCN,2024-06-24_14h46.10.977,LearnStrategy,2023.2.3,Win32,60.24096386,8,2,11,,,,,,,,1,16,,,,,,,,,,,1,20.734,1,,,,,,-0.384114583,-0.255208333,1,0,0,20.7344,Andesite_rect,10,0,10,0,1,
5f35cd449bf003039842077f,SCN,2024-06-24_14h46.10.977,LearnStrategy,2023.2.3,Win32,60.24096386,8,2,12,,,,,,,,3,10,,,,,,,,,,,3,13.03,1,,,,,,0.127604167,-0.236979167,1,0,0,13.0305,Diorite_rect,11,0,11,0,1,
5f35cd449bf003039842077f,SCN,2024-06-24_14h46.10.977,LearnStrategy,2023.2.3,Win32,60.24096386,8,2,13,,,,,,,,5,12,,,,,,,,,,,5,1.174,1,,,,,,-0.350260417,-0.385416667,1,0,0,1.1742,Obsidian_rect,12,0,12,0,1,
5f35cd449bf003039842077f,SCN,2024-06-24_14h46.10.977,LearnStrategy,2023.2.3,Win32,60.24096386,8,2,14,,,,,,,,8,05,,,,,,,,,,,8,1.528,1,,,,,,0.385416667,-0.401041667,1,0,0,1.5276,Pumice_rect,13,0,13,0,1,
5f35cd449bf003039842077f,SCN,2024-06-24_14h46.10.977,LearnStrategy,2023.2.3,Win32,60.24096386,8,2,15,,,,,,,,5,14,,,,,,,,,,,5,1.166,1,,,,,,-0.3671875,-0.404947917,1,0,0,1.1663,Obsidian_rect,14,0,14,0,1,
5f35cd449bf003039842077f,SCN,2024-06-24_14h46.10.977,LearnStrategy,2023.2.3,Win32,60.24096386,8,2,16,,,,,,,,6,06,,,,,,,,,,,6,1.172,1,,,,,,-0.098958333,-0.419270833,1,0,0,1.1717,Pegmatite_rect,15,0,15,0,1,
5f35cd449bf003039842077f,SCN,2024-06-24_14h46.10.977,LearnStrategy,2023.2.3,Win32,60.24096386,9,1,1,0.087239583,0.236979167,1,0,0,2.0951,Obsidian_16,5,16,5,5,2.095,-0.397135417,-0.40234375,1,0,0,1.3316,Obsidian_rect,5,1.332,1,0,0,0,0,1,,,,,,,,,,,,,
5f35cd449bf003039842077f,SCN,2024-06-24_14h46.10.977,LearnStrategy,2023.2.3,Win32,60.24096386,9,1,2,-0.34375,0.083333333,1,0,0,6.0683,Andesite_01,1,01,4,2,6.068,-0.4453125,-0.234375,1,0,0,0.8589,Andesite_rect,1,0.859,1,1,0,1,0,1,,,,,,,,,,,,,
5f35cd449bf003039842077f,SCN,2024-06-24_14h46.10.977,LearnStrategy,2023.2.3,Win32,60.24096386,9,1,3,0.069010417,-0.283854167,1,0,0,1.5256,Diorite_11,3,11,2,5,1.526,-0.372395833,-0.25390625,1,0,0,1.0498,Andesite_rect,1,1.05,0,2,0,2,0,1,,,,,,,,,,,,,
5f35cd449bf003039842077f,SCN,2024-06-24_14h46.10.977,LearnStrategy,2023.2.3,Win32,60.24096386,9,1,4,0.401041667,-0.432291667,1,0,0,1.915,Andesite_07,1,07,1,7,1.915,-0.399739583,-0.244791667,1,0,0,0.8296,Andesite_rect,1,0.83,1,3,0,3,0,1,,,,,,,,,,,,,
5f35cd449bf003039842077f,SCN,2024-06-24_14h46.10.977,LearnStrategy,2023.2.3,Win32,60.24096386,9,1,5,-0.404947917,-0.430989583,1,0,0,1.1112,Gabbro_03,4,03,1,2,1.111,0.045572917,-0.234375,1,0,0,1.6907,Diorite_rect,3,1.691,0,4,0,4,0,1,,,,,,,,,,,,,
5f35cd449bf003039842077f,SCN,2024-06-24_14h46.10.977,LearnStrategy,2023.2.3,Win32,60.24096386,9,1,6,-0.3984375,-0.444010417,1,0,0,1.1606,Gabbro_03,4,03,1,2,1.161,0.44921875,-0.231770833,1,0,0,10.3365,Gabbro_rect,4,10.336,1,5,0,5,0,1,,,,,,,,,,,,,
5f35cd449bf003039842077f,SCN,2024-06-24_14h46.10.977,LearnStrategy,2023.2.3,Win32,60.24096386,9,1,7,0.0546875,0.075520833,1,0,0,1.0923,Pegmatite_16,6,16,4,5,1.092,-0.126302083,-0.391927083,1,0,0,1.1884,Pegmatite_rect,6,1.188,1,6,0,6,0,1,,,,,,,,,,,,,
5f35cd449bf003039842077f,SCN,2024-06-24_14h46.10.977,LearnStrategy,2023.2.3,Win32,60.24096386,9,1,8,0.21875,-0.078125,1,0,0,1.1329,Gabbro_15,4,15,3,6,1.133,0.444010417,-0.2421875,1,0,0,1.7022,Gabbro_rect,4,1.702,1,7,0,7,0,1,,,,,,,,,,,,,
5f35cd449bf003039842077f,SCN,2024-06-24_14h46.10.977,LearnStrategy,2023.2.3,Win32,60.24096386,9,1,9,-0.365885417,-0.279947917,1,0,0,1.2105,Pegmatite_10,6,10,2,2,1.211,-0.104166667,-0.399739583,1,0,0,0.9238,Pegmatite_rect,6,0.924,1,8,0,8,0,1,,,,,,,,,,,,,
5f35cd449bf003039842077f,SCN,2024-06-24_14h46.10.977,LearnStrategy,2023.2.3,Win32,60.24096386,9,1,10,-0.5390625,-0.260416667,1,0,0,1.0982,Basalt_14,2,14,2,1,1.098,0.41015625,-0.401041667,1,0,0,1.5515,Pumice_rect,8,1.552,0,9,0,9,0,1,,,,,,,,,,,,,
5f35cd449bf003039842077f,SCN,2024-06-24_14h46.10.977,LearnStrategy,2023.2.3,Win32,60.24096386,9,1,11,0.591145833,0.252604167,1,0,0,4.1364,Pegmatite_08,6,08,5,8,4.136,-0.108072917,-0.397135417,1,0,0,0.9358,Pegmatite_rect,6,0.936,1,10,0,10,0,1,,,,,,,,,,,,,
5f35cd449bf003039842077f,SCN,2024-06-24_14h46.10.977,LearnStrategy,2023.2.3,Win32,60.24096386,9,1,12,-0.21484375,-0.444010417,1,0,0,4.7324,Pumice_16,8,16,1,3,4.732,0.446614583,-0.3828125,1,0,0,0.9954,Pumice_rect,8,0.995,1,11,0,11,0,1,,,,,,,,,,,,,
5f35cd449bf003039842077f,SCN,2024-06-24_14h46.10.977,LearnStrategy,2023.2.3,Win32,60.24096386,9,1,13,0.263020833,0.397135417,1,0,0,2.4432,Pumice_13,8,13,6,6,2.443,-0.125,-0.251302083,1,0,0,2.3623,Basalt_rect,2,2.362,0,12,0,12,0,1,,,,,,,,,,,,,
5f35cd449bf003039842077f,SCN,2024-06-24_14h46.10.977,LearnStrategy,2023.2.3,Win32,60.24096386,9,1,14,-0.565104167,0.1015625,1,0,0,3.1682,Pumice_08,8,08,4,1,3.168,0.354166667,-0.388020833,1,0,0,1.4644,Pumice_rect,8,1.464,1,13,0,13,0,1,,,,,,,,,,,,,
5f35cd449bf003039842077f,SCN,2024-06-24_14h46.10.977,LearnStrategy,2023.2.3,Win32,60.24096386,9,1,15,-0.553385417,-0.270833333,1,0,0,0.6849,Basalt_14,2,14,2,1,0.685,-0.053385417,-0.25,1,0,0,2.0328,Basalt_rect,2,2.033,1,14,0,14,0,1,,,,,,,,,,,,,
5f35cd449bf003039842077f,SCN,2024-06-24_14h46.10.977,LearnStrategy,2023.2.3,Win32,60.24096386,9,1,16,-0.555989583,0.270833333,1,0,0,0.867,Gabbro_08,4,08,5,1,0.867,-0.432291667,-0.25,1,0,0,1.3653,Andesite_rect,1,1.365,0,15,0,15,0,1,,,,,,,,,,,,,
5f35cd449bf003039842077f,SCN,2024-06-24_14h46.10.977,LearnStrategy,2023.2.3,Win32,60.24096386,9,2,1,,,,,,,,3,02,,,,,,,,,,,3,21.157,1,,,,,,0.17578125,-0.248697917,1,0,0,21.1571,Diorite_rect,0,0,0,0,1,
5f35cd449bf003039842077f,SCN,2024-06-24_14h46.10.977,LearnStrategy,2023.2.3,Win32,60.24096386,9,2,2,,,,,,,,1,10,,,,,,,,,,,1,21.616,1,,,,,,-0.403645833,-0.239583333,1,0,0,21.6158,Andesite_rect,1,0,1,0,1,
5f35cd449bf003039842077f,SCN,2024-06-24_14h46.10.977,LearnStrategy,2023.2.3,Win32,60.24096386,9,2,3,,,,,,,,2,02,,,,,,,,,,,2,1.507,1,,,,,,-0.149739583,-0.229166667,1,0,0,1.5074,Basalt_rect,2,0,2,0,1,
5f35cd449bf003039842077f,SCN,2024-06-24_14h46.10.977,LearnStrategy,2023.2.3,Win32,60.24096386,9,2,4,,,,,,,,5,02,,,,,,,,,,,5,1.279,1,,,,,,-0.424479167,-0.390625,1,0,0,1.2786,Obsidian_rect,3,0,3,0,1,
5f35cd449bf003039842077f,SCN,2024-06-24_14h46.10.977,LearnStrategy,2023.2.3,Win32,60.24096386,9,2,5,,,,,,,,8,10,,,,,,,,,,,8,1.316,1,,,,,,0.424479167,-0.390625,1,0,0,1.3157,Pumice_rect,4,0,4,0,1,
5f35cd449bf003039842077f,SCN,2024-06-24_14h46.10.977,LearnStrategy,2023.2.3,Win32,60.24096386,9,2,6,,,,,,,,7,15,,,,,,,,,,,7,1.283,1,,,,,,0.143229167,-0.407552083,1,0,0,1.2829,Peridotite_rect,5,0,5,0,1,
5f35cd449bf003039842077f,SCN,2024-06-24_14h46.10.977,LearnStrategy,2023.2.3,Win32,60.24096386,9,2,7,,,,,,,,5,06,,,,,,,,,,,5,1.971,1,,,,,,-0.342447917,-0.399739583,1,0,0,1.9711,Obsidian_rect,6,0,6,0,1,
5f35cd449bf003039842077f,SCN,2024-06-24_14h46.10.977,LearnStrategy,2023.2.3,Win32,60.24096386,9,2,8,,,,,,,,2,06,,,,,,,,,,,2,1.244,1,,,,,,-0.138020833,-0.243489583,1,0,0,1.2443,Basalt_rect,7,0,7,0,1,
5f35cd449bf003039842077f,SCN,2024-06-24_14h46.10.977,LearnStrategy,2023.2.3,Win32,60.24096386,9,2,9,,,,,,,,6,12,,,,,,,,,,,1,19.173,0,,,,,,-0.315104167,-0.252604167,1,0,0,19.1733,Andesite_rect,8,0,8,0,1,
5f35cd449bf003039842077f,SCN,2024-06-24_14h46.10.977,LearnStrategy,2023.2.3,Win32,60.24096386,9,2,10,,,,,,,,3,07,,,,,,,,,,,3,11.075,1,,,,,,0.135416667,-0.256510417,1,0,0,11.0753,Diorite_rect,9,0,9,0,1,
5f35cd449bf003039842077f,SCN,2024-06-24_14h46.10.977,LearnStrategy,2023.2.3,Win32,60.24096386,9,2,11,,,,,,,,6,03,,,,,,,,,,,6,1.222,1,,,,,,-0.13671875,-0.390625,1,0,0,1.2224,Pegmatite_rect,10,0,10,0,1,
5f35cd449bf003039842077f,SCN,2024-06-24_14h46.10.977,LearnStrategy,2023.2.3,Win32,60.24096386,9,2,12,,,,,,,,4,10,,,,,,,,,,,1,12.327,0,,,,,,-0.337239583,-0.248697917,1,0,0,12.3273,Andesite_rect,11,0,11,0,1,
5f35cd449bf003039842077f,SCN,2024-06-24_14h46.10.977,LearnStrategy,2023.2.3,Win32,60.24096386,9,2,13,,,,,,,,8,03,,,,,,,,,,,8,1.969,1,,,,,,0.447916667,-0.385416667,1,0,0,1.969,Pumice_rect,12,0,12,0,1,
5f35cd449bf003039842077f,SCN,2024-06-24_14h46.10.977,LearnStrategy,2023.2.3,Win32,60.24096386,9,2,14,,,,,,,,4,05,,,,,,,,,,,4,11.711,1,,,,,,0.390625,-0.243489583,1,0,0,11.7111,Gabbro_rect,13,0,13,0,1,
5f35cd449bf003039842077f,SCN,2024-06-24_14h46.10.977,LearnStrategy,2023.2.3,Win32,60.24096386,9,2,15,,,,,,,,7,14,,,,,,,,,,,2,21.816,0,,,,,,-0.122395833,-0.248697917,1,0,0,21.8159,Basalt_rect,14,0,14,0,1,
5f35cd449bf003039842077f,SCN,2024-06-24_14h46.10.977,LearnStrategy,2023.2.3,Win32,60.24096386,9,2,16,,,,,,,,1,06,,,,,,,,,,,1,5.501,1,,,,,,-0.401041667,-0.256510417,1,0,0,5.5007,Andesite_rect,15,0,15,0,1,
5f35cd449bf003039842077f,SCN,2024-06-24_14h46.10.977,LearnStrategy,2023.2.3,Win32,60.24096386,,,,,,,,,,,,,,,,,,,,,,,,,,,,,,,,,,,,,,,,,,,1
5f35cd449bf003039842077f,SCN,2024-06-24_14h46.10.977,LearnStrategy,2023.2.3,Win32,60.24096386,,,,,,,,,,,,,,,,,,,,,,,,,,,,,,,,,,,,,,,,,,,
5f35cd449bf003039842077f,SCN,2024-06-24_14h46.10.977,LearnStrategy,2023.2.3,Win32,60.24096386,,,,,,,,,,,3,13,1,1,,,,,,,,,,,,,,,,,,,,,,,,,,,,,
5f35cd449bf003039842077f,SCN,2024-06-24_14h46.10.977,LearnStrategy,2023.2.3,Win32,60.24096386,,,,,,,,,,,4,03,1,2,,,,,,,,,,,,,,,,,,,,,,,,,,,,,
5f35cd449bf003039842077f,SCN,2024-06-24_14h46.10.977,LearnStrategy,2023.2.3,Win32,60.24096386,,,,,,,,,,,8,16,1,3,,,,,,,,,,,,,,,,,,,,,,,,,,,,,
5f35cd449bf003039842077f,SCN,2024-06-24_14h46.10.977,LearnStrategy,2023.2.3,Win32,60.24096386,,,,,,,,,,,2,08,1,4,,,,,,,,,,,,,,,,,,,,,,,,,,,,,
5f35cd449bf003039842077f,SCN,2024-06-24_14h46.10.977,LearnStrategy,2023.2.3,Win32,60.24096386,,,,,,,,,,,7,08,1,5,,,,,,,,,,,,,,,,,,,,,,,,,,,,,
5f35cd449bf003039842077f,SCN,2024-06-24_14h46.10.977,LearnStrategy,2023.2.3,Win32,60.24096386,,,,,,,,,,,2,12,1,6,,,,,,,,,,,,,,,,,,,,,,,,,,,,,
5f35cd449bf003039842077f,SCN,2024-06-24_14h46.10.977,LearnStrategy,2023.2.3,Win32,60.24096386,,,,,,,,,,,1,07,1,7,,,,,,,,,,,,,,,,,,,,,,,,,,,,,
5f35cd449bf003039842077f,SCN,2024-06-24_14h46.10.977,LearnStrategy,2023.2.3,Win32,60.24096386,,,,,,,,,,,4,11,1,8,,,,,,,,,,,,,,,,,,,,,,,,,,,,,
5f35cd449bf003039842077f,SCN,2024-06-24_14h46.10.977,LearnStrategy,2023.2.3,Win32,60.24096386,,,,,,,,,,,2,14,2,1,,,,,,,,,,,,,,,,,,,,,,,,,,,,,
5f35cd449bf003039842077f,SCN,2024-06-24_14h46.10.977,LearnStrategy,2023.2.3,Win32,60.24096386,,,,,,,,,,,6,10,2,2,,,,,,,,,,,,,,,,,,,,,,,,,,,,,
5f35cd449bf003039842077f,SCN,2024-06-24_14h46.10.977,LearnStrategy,2023.2.3,Win32,60.24096386,,,,,,,,,,,6,11,2,3,,,,,,,,,,,,,,,,,,,,,,,,,,,,,
5f35cd449bf003039842077f,SCN,2024-06-24_14h46.10.977,LearnStrategy,2023.2.3,Win32,60.24096386,,,,,,,,,,,5,11,2,4,,,,,,,,,,,,,,,,,,,,,,,,,,,,,
5f35cd449bf003039842077f,SCN,2024-06-24_14h46.10.977,LearnStrategy,2023.2.3,Win32,60.24096386,,,,,,,,,,,3,11,2,5,,,,,,,,,,,,,,,,,,,,,,,,,,,,,
5f35cd449bf003039842077f,SCN,2024-06-24_14h46.10.977,LearnStrategy,2023.2.3,Win32,60.24096386,,,,,,,,,,,6,05,2,6,,,,,,,,,,,,,,,,,,,,,,,,,,,,,
5f35cd449bf003039842077f,SCN,2024-06-24_14h46.10.977,LearnStrategy,2023.2.3,Win32,60.24096386,,,,,,,,,,,7,13,2,7,,,,,,,,,,,,,,,,,,,,,,,,,,,,,
5f35cd449bf003039842077f,SCN,2024-06-24_14h46.10.977,LearnStrategy,2023.2.3,Win32,60.24096386,,,,,,,,,,,4,09,2,8,,,,,,,,,,,,,,,,,,,,,,,,,,,,,
5f35cd449bf003039842077f,SCN,2024-06-24_14h46.10.977,LearnStrategy,2023.2.3,Win32,60.24096386,,,,,,,,,,,7,06,3,1,,,,,,,,,,,,,,,,,,,,,,,,,,,,,
5f35cd449bf003039842077f,SCN,2024-06-24_14h46.10.977,LearnStrategy,2023.2.3,Win32,60.24096386,,,,,,,,,,,8,14,3,2,,,,,,,,,,,,,,,,,,,,,,,,,,,,,
5f35cd449bf003039842077f,SCN,2024-06-24_14h46.10.977,LearnStrategy,2023.2.3,Win32,60.24096386,,,,,,,,,,,2,05,3,3,,,,,,,,,,,,,,,,,,,,,,,,,,,,,
5f35cd449bf003039842077f,SCN,2024-06-24_14h46.10.977,LearnStrategy,2023.2.3,Win32,60.24096386,,,,,,,,,,,7,16,3,4,,,,,,,,,,,,,,,,,,,,,,,,,,,,,
5f35cd449bf003039842077f,SCN,2024-06-24_14h46.10.977,LearnStrategy,2023.2.3,Win32,60.24096386,,,,,,,,,,,3,15,3,5,,,,,,,,,,,,,,,,,,,,,,,,,,,,,
5f35cd449bf003039842077f,SCN,2024-06-24_14h46.10.977,LearnStrategy,2023.2.3,Win32,60.24096386,,,,,,,,,,,4,15,3,6,,,,,,,,,,,,,,,,,,,,,,,,,,,,,
5f35cd449bf003039842077f,SCN,2024-06-24_14h46.10.977,LearnStrategy,2023.2.3,Win32,60.24096386,,,,,,,,,,,3,16,3,7,,,,,,,,,,,,,,,,,,,,,,,,,,,,,
5f35cd449bf003039842077f,SCN,2024-06-24_14h46.10.977,LearnStrategy,2023.2.3,Win32,60.24096386,,,,,,,,,,,8,04,3,8,,,,,,,,,,,,,,,,,,,,,,,,,,,,,
5f35cd449bf003039842077f,SCN,2024-06-24_14h46.10.977,LearnStrategy,2023.2.3,Win32,60.24096386,,,,,,,,,,,8,08,4,1,,,,,,,,,,,,,,,,,,,,,,,,,,,,,
5f35cd449bf003039842077f,SCN,2024-06-24_14h46.10.977,LearnStrategy,2023.2.3,Win32,60.24096386,,,,,,,,,,,1,01,4,2,,,,,,,,,,,,,,,,,,,,,,,,,,,,,
5f35cd449bf003039842077f,SCN,2024-06-24_14h46.10.977,LearnStrategy,2023.2.3,Win32,60.24096386,,,,,,,,,,,5,08,4,3,,,,,,,,,,,,,,,,,,,,,,,,,,,,,
5f35cd449bf003039842077f,SCN,2024-06-24_14h46.10.977,LearnStrategy,2023.2.3,Win32,60.24096386,,,,,,,,,,,5,09,4,4,,,,,,,,,,,,,,,,,,,,,,,,,,,,,
5f35cd449bf003039842077f,SCN,2024-06-24_14h46.10.977,LearnStrategy,2023.2.3,Win32,60.24096386,,,,,,,,,,,6,16,4,5,,,,,,,,,,,,,,,,,,,,,,,,,,,,,
5f35cd449bf003039842077f,SCN,2024-06-24_14h46.10.977,LearnStrategy,2023.2.3,Win32,60.24096386,,,,,,,,,,,5,10,4,6,,,,,,,,,,,,,,,,,,,,,,,,,,,,,
5f35cd449bf003039842077f,SCN,2024-06-24_14h46.10.977,LearnStrategy,2023.2.3,Win32,60.24096386,,,,,,,,,,,1,04,4,7,,,,,,,,,,,,,,,,,,,,,,,,,,,,,
5f35cd449bf003039842077f,SCN,2024-06-24_14h46.10.977,LearnStrategy,2023.2.3,Win32,60.24096386,,,,,,,,,,,1,09,4,8,,,,,,,,,,,,,,,,,,,,,,,,,,,,,
5f35cd449bf003039842077f,SCN,2024-06-24_14h46.10.977,LearnStrategy,2023.2.3,Win32,60.24096386,,,,,,,,,,,4,08,5,1,,,,,,,,,,,,,,,,,,,,,,,,,,,,,
5f35cd449bf003039842077f,SCN,2024-06-24_14h46.10.977,LearnStrategy,2023.2.3,Win32,60.24096386,,,,,,,,,,,6,13,5,2,,,,,,,,,,,,,,,,,,,,,,,,,,,,,
5f35cd449bf003039842077f,SCN,2024-06-24_14h46.10.977,LearnStrategy,2023.2.3,Win32,60.24096386,,,,,,,,,,,7,12,5,3,,,,,,,,,,,,,,,,,,,,,,,,,,,,,
5f35cd449bf003039842077f,SCN,2024-06-24_14h46.10.977,LearnStrategy,2023.2.3,Win32,60.24096386,,,,,,,,,,,2,01,5,4,,,,,,,,,,,,,,,,,,,,,,,,,,,,,
5f35cd449bf003039842077f,SCN,2024-06-24_14h46.10.977,LearnStrategy,2023.2.3,Win32,60.24096386,,,,,,,,,,,5,16,5,5,,,,,,,,,,,,,,,,,,,,,,,,,,,,,
5f35cd449bf003039842077f,SCN,2024-06-24_14h46.10.977,LearnStrategy,2023.2.3,Win32,60.24096386,,,,,,,,,,,1,02,5,6,,,,,,,,,,,,,,,,,,,,,,,,,,,,,
5f35cd449bf003039842077f,SCN,2024-06-24_14h46.10.977,LearnStrategy,2023.2.3,Win32,60.24096386,,,,,,,,,,,7,02,5,7,,,,,,,,,,,,,,,,,,,,,,,,,,,,,
5f35cd449bf003039842077f,SCN,2024-06-24_14h46.10.977,LearnStrategy,2023.2.3,Win32,60.24096386,,,,,,,,,,,6,08,5,8,,,,,,,,,,,,,,,,,,,,,,,,,,,,,
5f35cd449bf003039842077f,SCN,2024-06-24_14h46.10.977,LearnStrategy,2023.2.3,Win32,60.24096386,,,,,,,,,,,4,01,6,1,,,,,,,,,,,,,,,,,,,,,,,,,,,,,
5f35cd449bf003039842077f,SCN,2024-06-24_14h46.10.977,LearnStrategy,2023.2.3,Win32,60.24096386,,,,,,,,,,,2,09,6,2,,,,,,,,,,,,,,,,,,,,,,,,,,,,,
5f35cd449bf003039842077f,SCN,2024-06-24_14h46.10.977,LearnStrategy,2023.2.3,Win32,60.24096386,,,,,,,,,,,1,03,6,3,,,,,,,,,,,,,,,,,,,,,,,,,,,,,
5f35cd449bf003039842077f,SCN,2024-06-24_14h46.10.977,LearnStrategy,2023.2.3,Win32,60.24096386,,,,,,,,,,,3,12,6,4,,,,,,,,,,,,,,,,,,,,,,,,,,,,,
5f35cd449bf003039842077f,SCN,2024-06-24_14h46.10.977,LearnStrategy,2023.2.3,Win32,60.24096386,,,,,,,,,,,8,06,6,5,,,,,,,,,,,,,,,,,,,,,,,,,,,,,
5f35cd449bf003039842077f,SCN,2024-06-24_14h46.10.977,LearnStrategy,2023.2.3,Win32,60.24096386,,,,,,,,,,,8,13,6,6,,,,,,,,,,,,,,,,,,,,,,,,,,,,,
5f35cd449bf003039842077f,SCN,2024-06-24_14h46.10.977,LearnStrategy,2023.2.3,Win32,60.24096386,,,,,,,,,,,3,06,6,7,,,,,,,,,,,,,,,,,,,,,,,,,,,,,
5f35cd449bf003039842077f,SCN,2024-06-24_14h46.10.977,LearnStrategy,2023.2.3,Win32,60.24096386,,,,,,,,,,,5,04,6,8,,,,,,,,,,,,,,,,,,,,,,,,,,,,,