participant,condition,date,expName,psychopyVersion,OS,frameRate,block,phase,trial,learn_mouse.x,learn_mouse.y,learn_mouse.leftButton,learn_mouse.midButton,learn_mouse.rightButton,learn_mouse.time,learn_mouse.clicked_name,cat,token,row,col,t_select,cat_mouse_l.x,cat_mouse_l.y,cat_mouse_l.leftButton,cat_mouse_l.midButton,cat_mouse_l.rightButton,cat_mouse_l.time,cat_mouse_l.clicked_name,resp,t_resp,corr,train_trials.thisRepN,train_trials.thisTrialN,train_trials.thisN,train_trials.thisIndex,train_trials.ran,cat_mouse_t.x,cat_mouse_t.y,cat_mouse_t.leftButton,cat_mouse_t.midButton,cat_mouse_t.rightButton,cat_mouse_t.time,cat_mouse_t.clicked_name,test_trials.thisRepN,test_trials.thisTrialN,test_trials.thisN,test_trials.thisIndex,test_trials.ran,Bonus
5f3ac1732efa0a74f975b1a8,SCN,2024-06-21_13h46.58.335,LearnStrategy,2023.2.3,Win32,59.88023952,,,,,,,,,,,,,,,,,,,,,,,,,,,,,,,,,,,,,,,,,,,
5f3ac1732efa0a74f975b1a8,SCN,2024-06-21_13h46.58.335,LearnStrategy,2023.2.3,Win32,59.88023952,1,1,1,-0.544444444,0.402777778,1,0,0,5.6043,Basalt_11,2,11,6,1,5.604,-0.11851849,-0.397222222,1,0,0,5.2992,Pegmatite_rect,6,5.299,0,0,0,0,0,1,,,,,,,,,,,,,
5f3ac1732efa0a74f975b1a8,SCN,2024-06-21_13h46.58.335,LearnStrategy,2023.2.3,Win32,59.88023952,1,1,2,-0.367592578,0.416666667,1,0,0,1.6663,Pumice_14,8,14,6,2,1.666,-0.365740712,-0.265740797,1,0,0,4.8636,Andesite_rect,1,4.864,0,1,0,1,0,1,,,,,,,,,,,,,
5f3ac1732efa0a74f975b1a8,SCN,2024-06-21_13h46.58.335,LearnStrategy,2023.2.3,Win32,59.88023952,1,1,3,-0.224074046,0.455555556,1,0,0,1.8109,Obsidian_04,5,04,6,3,1.811,0.071296353,-0.393518575,1,0,0,6.7414,Peridotite_rect,7,6.741,0,2,0,2,0,1,,,,,,,,,,,,,
5f3ac1732efa0a74f975b1a8,SCN,2024-06-21_13h46.58.335,LearnStrategy,2023.2.3,Win32,59.88023952,1,1,4,-0.074074046,0.395370367,1,0,0,1.9575,Peridotite_14,7,14,6,4,1.957,0.416666667,-0.250925954,1,0,0,4.1125,Gabbro_rect,4,4.113,0,3,0,3,0,1,,,,,,,,,,,,,
5f3ac1732efa0a74f975b1a8,SCN,2024-06-21_13h46.58.335,LearnStrategy,2023.2.3,Win32,59.88023952,1,1,5,0.066666667,0.418518517,1,0,0,1.4947,Peridotite_16,7,16,6,5,1.495,0.396296353,-0.392592621,1,0,0,3.103,Pumice_rect,8,3.103,0,4,0,4,0,1,,,,,,,,,,,,,
5f3ac1732efa0a74f975b1a8,SCN,2024-06-21_13h46.58.335,LearnStrategy,2023.2.3,Win32,59.88023952,1,1,6,0.262963019,0.415740739,1,0,0,1.4086,Pumice_03,8,03,6,6,1.409,-0.119444444,-0.410185242,1,0,0,3.7499,Pegmatite_rect,6,3.75,0,5,0,5,0,1,,,,,,,,,,,,,
5f3ac1732efa0a74f975b1a8,SCN,2024-06-21_13h46.58.335,LearnStrategy,2023.2.3,Win32,59.88023952,1,1,7,0.425925954,0.4,1,0,0,2.9819,Pegmatite_03,6,03,6,7,2.982,-0.360185157,-0.389814843,1,0,0,1.9498,Obsidian_rect,5,1.95,0,6,0,6,0,1,,,,,,,,,,,,,
5f3ac1732efa0a74f975b1a8,SCN,2024-06-21_13h46.58.335,LearnStrategy,2023.2.3,Win32,59.88023952,1,1,8,0.599074131,0.412037034,1,0,0,1.7449,Diorite_12,3,12,6,8,1.745,0.388888889,-0.417592621,1,0,0,1.898,Pumice_rect,8,1.898,0,7,0,7,0,1,,,,,,,,,,,,,
5f3ac1732efa0a74f975b1a8,SCN,2024-06-21_13h46.58.335,LearnStrategy,2023.2.3,Win32,59.88023952,1,1,9,-0.568518511,0.264814801,1,0,0,1.1623,Obsidian_06,5,06,5,1,1.162,-0.412037023,-0.262963019,1,0,0,3.8087,Andesite_rect,1,3.809,0,8,0,8,0,1,,,,,,,,,,,,,
5f3ac1732efa0a74f975b1a8,SCN,2024-06-21_13h46.58.335,LearnStrategy,2023.2.3,Win32,59.88023952,1,1,10,-0.436111111,0.274074067,1,0,0,1.1447,Basalt_01,2,01,5,2,1.145,-0.106481425,-0.23148151,1,0,0,1.3254,Basalt_rect,2,1.325,1,9,0,9,0,1,,,,,,,,,,,,,
5f3ac1732efa0a74f975b1a8,SCN,2024-06-21_13h46.58.335,LearnStrategy,2023.2.3,Win32,59.88023952,1,1,11,-0.196296268,0.22870369,1,0,0,1.1308,Pegmatite_08,6,08,5,3,1.131,0.146296353,-0.391666667,1,0,0,1.6492,Peridotite_rect,7,1.649,0,10,0,10,0,1,,,,,,,,,,,,,
5f3ac1732efa0a74f975b1a8,SCN,2024-06-21_13h46.58.335,LearnStrategy,2023.2.3,Win32,59.88023952,1,1,12,-0.054629601,0.285185178,1,0,0,2.6969,Andesite_05,1,05,5,4,2.697,-0.14351849,-0.243518575,1,0,0,1.8176,Basalt_rect,2,1.818,0,11,0,11,0,1,,,,,,,,,,,,,
5f3ac1732efa0a74f975b1a8,SCN,2024-06-21_13h46.58.335,LearnStrategy,2023.2.3,Win32,59.88023952,1,1,13,0.05648151,0.275,1,0,0,1.5475,Obsidian_10,5,10,5,5,1.548,-0.100925869,-0.391666667,1,0,0,1.8738,Pegmatite_rect,6,1.874,0,12,0,12,0,1,,,,,,,,,,,,,
5f3ac1732efa0a74f975b1a8,SCN,2024-06-21_13h46.58.335,LearnStrategy,2023.2.3,Win32,59.88023952,1,1,14,0.204629686,0.271296289,1,0,0,1.1248,Gabbro_03,4,03,5,6,1.125,-0.144444444,-0.266666667,1,0,0,2.8897,Basalt_rect,2,2.89,0,13,0,13,0,1,,,,,,,,,,,,,
5f3ac1732efa0a74f975b1a8,SCN,2024-06-21_13h46.58.335,LearnStrategy,2023.2.3,Win32,59.88023952,1,1,15,0.403703732,0.234259245,1,0,0,1.1778,Gabbro_08,4,08,5,7,1.178,0.425925954,-0.4,1,0,0,1.1963,Pumice_rect,8,1.196,0,14,0,14,0,1,,,,,,,,,,,,,
5f3ac1732efa0a74f975b1a8,SCN,2024-06-21_13h46.58.335,LearnStrategy,2023.2.3,Win32,59.88023952,1,1,16,0.541666667,0.227777778,1,0,0,1.9991,Peridotite_06,7,06,5,8,1.999,0.15,-0.228703732,1,0,0,3.2795,Diorite_rect,3,3.279,0,15,0,15,0,1,,,,,,,,,,,,,
5f3ac1732efa0a74f975b1a8,SCN,2024-06-21_13h46.58.335,LearnStrategy,2023.2.3,Win32,59.88023952,1,2,1,,,,,,,,6,16,,,,,,,,,,,6,13.254,1,,,,,,-0.049074046,-0.418518575,1,0,0,13.2536,Pegmatite_rect,0,0,0,0,1,
5f3ac1732efa0a74f975b1a8,SCN,2024-06-21_13h46.58.335,LearnStrategy,2023.2.3,Win32,59.88023952,1,2,2,,,,,,,,2,09,,,,,,,,,,,2,14.877,1,,,,,,-0.06851849,-0.240740797,1,0,0,14.8767,Basalt_rect,1,0,1,0,1,
5f3ac1732efa0a74f975b1a8,SCN,2024-06-21_13h46.58.335,LearnStrategy,2023.2.3,Win32,59.88023952,1,2,3,,,,,,,,3,15,,,,,,,,,,,3,5.108,1,,,,,,0.111111111,-0.244444444,1,0,0,5.1081,Diorite_rect,2,0,2,0,1,
5f3ac1732efa0a74f975b1a8,SCN,2024-06-21_13h46.58.335,LearnStrategy,2023.2.3,Win32,59.88023952,1,2,4,,,,,,,,7,13,,,,,,,,,,,7,11.828,1,,,,,,0.149074131,-0.401851908,1,0,0,11.8276,Peridotite_rect,3,0,3,0,1,
5f3ac1732efa0a74f975b1a8,SCN,2024-06-21_13h46.58.335,LearnStrategy,2023.2.3,Win32,59.88023952,1,2,5,,,,,,,,6,07,,,,,,,,,,,7,15.662,0,,,,,,0.136111111,-0.387037065,1,0,0,15.6617,Peridotite_rect,4,0,4,0,1,
5f3ac1732efa0a74f975b1a8,SCN,2024-06-21_13h46.58.335,LearnStrategy,2023.2.3,Win32,59.88023952,1,2,6,,,,,,,,1,02,,,,,,,,,,,8,21.427,0,,,,,,0.452777778,-0.397222222,1,0,0,21.4265,Pumice_rect,5,0,5,0,1,
5f3ac1732efa0a74f975b1a8,SCN,2024-06-21_13h46.58.335,LearnStrategy,2023.2.3,Win32,59.88023952,1,2,7,,,,,,,,5,14,,,,,,,,,,,5,5.98,1,,,,,,-0.407407379,-0.414814843,1,0,0,5.9804,Obsidian_rect,6,0,6,0,1,
5f3ac1732efa0a74f975b1a8,SCN,2024-06-21_13h46.58.335,LearnStrategy,2023.2.3,Win32,59.88023952,1,2,8,,,,,,,,5,08,,,,,,,,,,,5,3.412,1,,,,,,-0.407407379,-0.414814843,1,0,0,3.4124,Obsidian_rect,7,0,7,0,1,
5f3ac1732efa0a74f975b1a8,SCN,2024-06-21_13h46.58.335,LearnStrategy,2023.2.3,Win32,59.88023952,1,2,9,,,,,,,,4,11,,,,,,,,,,,4,10.049,1,,,,,,0.478703732,-0.268518575,1,0,0,10.0487,Gabbro_rect,8,0,8,0,1,
5f3ac1732efa0a74f975b1a8,SCN,2024-06-21_13h46.58.335,LearnStrategy,2023.2.3,Win32,59.88023952,1,2,10,,,,,,,,3,16,,,,,,,,,,,3,13.365,1,,,,,,0.155555556,-0.267592621,1,0,0,13.365,Diorite_rect,9,0,9,0,1,
5f3ac1732efa0a74f975b1a8,SCN,2024-06-21_13h46.58.335,LearnStrategy,2023.2.3,Win32,59.88023952,1,2,11,,,,,,,,1,06,,,,,,,,,,,1,6.08,1,,,,,,-0.34351849,-0.260185242,1,0,0,6.0803,Andesite_rect,10,0,10,0,1,
5f3ac1732efa0a74f975b1a8,SCN,2024-06-21_13h46.58.335,LearnStrategy,2023.2.3,Win32,59.88023952,1,2,12,,,,,,,,4,12,,,,,,,,,,,2,11.906,0,,,,,,-0.164814758,-0.253703732,1,0,0,11.9058,Basalt_rect,11,0,11,0,1,
5f3ac1732efa0a74f975b1a8,SCN,2024-06-21_13h46.58.335,LearnStrategy,2023.2.3,Win32,59.88023952,1,2,13,,,,,,,,8,16,,,,,,,,,,,8,5.727,1,,,,,,0.444444444,-0.40648151,1,0,0,5.7272,Pumice_rect,12,0,12,0,1,
5f3ac1732efa0a74f975b1a8,SCN,2024-06-21_13h46.58.335,LearnStrategy,2023.2.3,Win32,59.88023952,1,2,14,,,,,,,,7,07,,,,,,,,,,,3,4.042,0,,,,,,0.162963019,-0.254629686,1,0,0,4.0415,Diorite_rect,13,0,13,0,1,
5f3ac1732efa0a74f975b1a8,SCN,2024-06-21_13h46.58.335,LearnStrategy,2023.2.3,Win32,59.88023952,1,2,15,,,,,,,,8,02,,,,,,,,,,,8,2.048,1,,,,,,0.437963019,-0.410185242,1,0,0,2.0475,Pumice_rect,14,0,14,0,1,
5f3ac1732efa0a74f975b1a8,SCN,2024-06-21_13h46.58.335,LearnStrategy,2023.2.3,Win32,59.88023952,1,2,16,,,,,,,,2,05,,,,,,,,,,,2,1.994,1,,,,,,-0.158333333,-0.262037065,1,0,0,1.9945,Basalt_rect,15,0,15,0,1,
5f3ac1732efa0a74f975b1a8,SCN,2024-06-21_13h46.58.335,LearnStrategy,2023.2.3,Win32,59.88023952,2,1,1,-0.535185178,0.110185157,1,0,0,9.1147,Peridotite_05,7,05,4,1,9.115,-0.167592536,-0.411111111,1,0,0,2.7354,Pegmatite_rect,6,2.735,0,0,0,0,0,1,,,,,,,,,,,,,
5f3ac1732efa0a74f975b1a8,SCN,2024-06-21_13h46.58.335,LearnStrategy,2023.2.3,Win32,59.88023952,2,1,2,-0.369444444,0.065740712,1,0,0,1.3785,Pumice_13,8,13,4,2,1.379,0.446296353,-0.397222222,1,0,0,1.1977,Pumice_rect,8,1.198,1,1,0,1,0,1,,,,,,,,,,,,,
5f3ac1732efa0a74f975b1a8,SCN,2024-06-21_13h46.58.335,LearnStrategy,2023.2.3,Win32,59.88023952,2,1,3,-0.213888889,0.091666667,1,0,0,1.0438,Obsidian_16,5,16,4,3,1.044,-0.344444444,-0.403703732,1,0,0,2.9588,Obsidian_rect,5,2.959,1,2,0,2,0,1,,,,,,,,,,,,,
5f3ac1732efa0a74f975b1a8,SCN,2024-06-21_13h46.58.335,LearnStrategy,2023.2.3,Win32,59.88023952,2,1,4,-0.062036981,0.075,1,0,0,0.7786,Basalt_06,2,06,4,4,0.779,-0.14351849,-0.235185242,1,0,0,4.1658,Basalt_rect,2,4.166,1,3,0,3,0,1,,,,,,,,,,,,,
5f3ac1732efa0a74f975b1a8,SCN,2024-06-21_13h46.58.335,LearnStrategy,2023.2.3,Win32,59.88023952,2,1,5,0.042592621,0.06851849,1,0,0,1.0122,Diorite_11,3,11,4,5,1.012,0.459259288,-0.25648151,1,0,0,2.3633,Gabbro_rect,4,2.363,0,4,0,4,0,1,,,,,,,,,,,,,
5f3ac1732efa0a74f975b1a8,SCN,2024-06-21_13h46.58.335,LearnStrategy,2023.2.3,Win32,59.88023952,2,1,6,0.280555556,0.075,1,0,0,1.1439,Basalt_14,2,14,4,6,1.144,0.103703732,-0.245370399,1,0,0,5.2419,Diorite_rect,3,5.242,0,5,0,5,0,1,,,,,,,,,,,,,
5f3ac1732efa0a74f975b1a8,SCN,2024-06-21_13h46.58.335,LearnStrategy,2023.2.3,Win32,59.88023952,2,1,7,0.412037065,0.104629601,1,0,0,1.0109,Obsidian_11,5,11,4,7,1.011,-0.365740712,-0.394444444,1,0,0,1.6254,Obsidian_rect,5,1.625,1,6,0,6,0,1,,,,,,,,,,,,,
5f3ac1732efa0a74f975b1a8,SCN,2024-06-21_13h46.58.335,LearnStrategy,2023.2.3,Win32,59.88023952,2,1,8,0.58703715,0.092592578,1,0,0,0.9822,Gabbro_05,4,05,4,8,0.982,0.138888889,-0.388888889,1,0,0,1.9113,Peridotite_rect,7,1.911,0,7,0,7,0,1,,,,,,,,,,,,,
5f3ac1732efa0a74f975b1a8,SCN,2024-06-21_13h46.58.335,LearnStrategy,2023.2.3,Win32,59.88023952,2,1,9,-0.593518511,-0.101851866,1,0,0,1.2141,Gabbro_14,4,14,3,1,1.214,-0.415740712,-0.255555556,1,0,0,1.7981,Andesite_rect,1,1.798,0,8,0,8,0,1,,,,,,,,,,,,,
5f3ac1732efa0a74f975b1a8,SCN,2024-06-21_13h46.58.335,LearnStrategy,2023.2.3,Win32,59.88023952,2,1,10,-0.429629601,-0.084259288,1,0,0,1.3973,Basalt_04,2,04,3,2,1.397,-0.101851824,-0.243518575,1,0,0,2.0657,Basalt_rect,2,2.066,1,9,0,9,0,1,,,,,,,,,,,,,
5f3ac1732efa0a74f975b1a8,SCN,2024-06-21_13h46.58.335,LearnStrategy,2023.2.3,Win32,59.88023952,2,1,11,-0.250925912,-0.14629631,1,0,0,1.1905,Pegmatite_12,6,12,3,3,1.19,-0.131481425,-0.387037065,1,0,0,3.378,Pegmatite_rect,6,3.378,1,10,0,10,0,1,,,,,,,,,,,,,
5f3ac1732efa0a74f975b1a8,SCN,2024-06-21_13h46.58.335,LearnStrategy,2023.2.3,Win32,59.88023952,2,1,12,-0.079629601,-0.09629631,1,0,0,0.8451,Basalt_12,2,12,3,4,0.845,0.092592621,-0.25648151,1,0,0,2.1557,Diorite_rect,3,2.156,0,11,0,11,0,1,,,,,,,,,,,,,
5f3ac1732efa0a74f975b1a8,SCN,2024-06-21_13h46.58.335,LearnStrategy,2023.2.3,Win32,59.88023952,2,1,13,0.075925954,-0.134259288,1,0,0,1.4932,Pumice_05,8,05,3,5,1.493,0.362963019,-0.413888889,1,0,0,1.349,Pumice_rect,8,1.349,1,12,0,12,0,1,,,,,,,,,,,,,
5f3ac1732efa0a74f975b1a8,SCN,2024-06-21_13h46.58.335,LearnStrategy,2023.2.3,Win32,59.88023952,2,1,14,0.245370399,-0.137037065,1,0,0,0.9477,Peridotite_02,7,02,3,6,0.948,0.088888889,-0.4,1,0,0,2.7478,Peridotite_rect,7,2.748,1,13,0,13,0,1,,,,,,,,,,,,,
5f3ac1732efa0a74f975b1a8,SCN,2024-06-21_13h46.58.335,LearnStrategy,2023.2.3,Win32,59.88023952,2,1,15,0.387037065,-0.10648151,1,0,0,1.0936,Gabbro_10,4,10,3,7,1.094,-0.399074046,-0.25648151,1,0,0,3.5502,Andesite_rect,1,3.55,0,14,0,14,0,1,,,,,,,,,,,,,
5f3ac1732efa0a74f975b1a8,SCN,2024-06-21_13h46.58.335,LearnStrategy,2023.2.3,Win32,59.88023952,2,1,16,0.553703817,-0.080555556,1,0,0,1.2502,Gabbro_16,4,16,3,8,1.25,0.169444444,-0.404629686,1,0,0,2.2277,Peridotite_rect,7,2.228,0,15,0,15,0,1,,,,,,,,,,,,,
5f3ac1732efa0a74f975b1a8,SCN,2024-06-21_13h46.58.335,LearnStrategy,2023.2.3,Win32,59.88023952,2,2,1,,,,,,,,4,13,,,,,,,,,,,4,4.724,1,,,,,,0.376851908,-0.237037065,1,0,0,4.7243,Gabbro_rect,0,0,0,0,1,
5f3ac1732efa0a74f975b1a8,SCN,2024-06-21_13h46.58.335,LearnStrategy,2023.2.3,Win32,59.88023952,2,2,2,,,,,,,,5,07,,,,,,,,,,,5,1.608,1,,,,,,-0.438888889,-0.383333333,1,0,0,1.6082,Obsidian_rect,1,0,1,0,1,
5f3ac1732efa0a74f975b1a8,SCN,2024-06-21_13h46.58.335,LearnStrategy,2023.2.3,Win32,59.88023952,2,2,3,,,,,,,,8,10,,,,,,,,,,,2,5.663,0,,,,,,-0.130555556,-0.237963019,1,0,0,5.6631,Basalt_rect,2,0,2,0,1,
5f3ac1732efa0a74f975b1a8,SCN,2024-06-21_13h46.58.335,LearnStrategy,2023.2.3,Win32,59.88023952,2,2,4,,,,,,,,7,08,,,,,,,,,,,7,4.922,1,,,,,,0.195370399,-0.412963019,1,0,0,4.9218,Peridotite_rect,3,0,3,0,1,
5f3ac1732efa0a74f975b1a8,SCN,2024-06-21_13h46.58.335,LearnStrategy,2023.2.3,Win32,59.88023952,2,2,5,,,,,,,,6,05,,,,,,,,,,,6,5.075,1,,,,,,-0.139814758,-0.416666667,1,0,0,5.0746,Pegmatite_rect,4,0,4,0,1,
5f3ac1732efa0a74f975b1a8,SCN,2024-06-21_13h46.58.335,LearnStrategy,2023.2.3,Win32,59.88023952,2,2,6,,,,,,,,4,15,,,,,,,,,,,7,3.158,0,,,,,,0.1,-0.414814843,1,0,0,3.1577,Peridotite_rect,5,0,5,0,1,
5f3ac1732efa0a74f975b1a8,SCN,2024-06-21_13h46.58.335,LearnStrategy,2023.2.3,Win32,59.88023952,2,2,7,,,,,,,,3,07,,,,,,,,,,,6,5.041,0,,,,,,-0.200925912,-0.391666667,1,0,0,5.0408,Pegmatite_rect,6,0,6,0,1,
5f3ac1732efa0a74f975b1a8,SCN,2024-06-21_13h46.58.335,LearnStrategy,2023.2.3,Win32,59.88023952,2,2,8,,,,,,,,8,04,,,,,,,,,,,8,2.58,1,,,,,,0.462963019,-0.412963019,1,0,0,2.58,Pumice_rect,7,0,7,0,1,
5f3ac1732efa0a74f975b1a8,SCN,2024-06-21_13h46.58.335,LearnStrategy,2023.2.3,Win32,59.88023952,2,2,9,,,,,,,,1,10,,,,,,,,,,,3,2.193,0,,,,,,0.201851908,-0.243518575,1,0,0,2.1931,Diorite_rect,8,0,8,0,1,
5f3ac1732efa0a74f975b1a8,SCN,2024-06-21_13h46.58.335,LearnStrategy,2023.2.3,Win32,59.88023952,2,2,10,,,,,,,,6,15,,,,,,,,,,,5,3.108,0,,,,,,-0.302777778,-0.393518575,1,0,0,3.1077,Obsidian_rect,9,0,9,0,1,
5f3ac1732efa0a74f975b1a8,SCN,2024-06-21_13h46.58.335,LearnStrategy,2023.2.3,Win32,59.88023952,2,2,11,,,,,,,,7,12,,,,,,,,,,,6,11.1,0,,,,,,-0.091666667,-0.416666667,1,0,0,11.1004,Pegmatite_rect,10,0,10,0,1,
5f3ac1732efa0a74f975b1a8,SCN,2024-06-21_13h46.58.335,LearnStrategy,2023.2.3,Win32,59.88023952,2,2,12,,,,,,,,2,10,,,,,,,,,,,5,2.651,0,,,,,,-0.398148134,-0.386111111,1,0,0,2.6512,Obsidian_rect,11,0,11,0,1,
5f3ac1732efa0a74f975b1a8,SCN,2024-06-21_13h46.58.335,LearnStrategy,2023.2.3,Win32,59.88023952,2,2,13,,,,,,,,1,01,,,,,,,,,,,4,1.848,0,,,,,,0.328703732,-0.261111111,1,0,0,1.8478,Gabbro_rect,12,0,12,0,1,
5f3ac1732efa0a74f975b1a8,SCN,2024-06-21_13h46.58.335,LearnStrategy,2023.2.3,Win32,59.88023952,2,2,14,,,,,,,,5,02,,,,,,,,,,,5,2.23,1,,,,,,-0.400925912,-0.407407464,1,0,0,2.2295,Obsidian_rect,13,0,13,0,1,
5f3ac1732efa0a74f975b1a8,SCN,2024-06-21_13h46.58.335,LearnStrategy,2023.2.3,Win32,59.88023952,2,2,15,,,,,,,,3,02,,,,,,,,,,,3,3.081,1,,,,,,0.110185242,-0.262037065,1,0,0,3.0809,Diorite_rect,14,0,14,0,1,
5f3ac1732efa0a74f975b1a8,SCN,2024-06-21_13h46.58.335,LearnStrategy,2023.2.3,Win32,59.88023952,2,2,16,,,,,,,,2,16,,,,,,,,,,,8,2.064,0,,,,,,0.445370399,-0.417592621,1,0,0,2.0644,Pumice_rect,15,0,15,0,1,
5f3ac1732efa0a74f975b1a8,SCN,2024-06-21_13h46.58.335,LearnStrategy,2023.2.3,Win32,59.88023952,3,1,1,-0.540740734,-0.284259288,1,0,0,5.9098,Pegmatite_06,6,06,2,1,5.91,-0.170370314,-0.394444444,1,0,0,4.0683,Pegmatite_rect,6,4.068,1,0,0,0,0,1,,,,,,,,,,,,,
5f3ac1732efa0a74f975b1a8,SCN,2024-06-21_13h46.58.335,LearnStrategy,2023.2.3,Win32,59.88023952,3,1,2,-0.392592578,-0.275925954,1,0,0,1.4163,Diorite_08,3,08,2,2,1.416,0.071296353,-0.420370399,1,0,0,1.8725,Peridotite_rect,7,1.872,0,1,0,1,0,1,,,,,,,,,,,,,
5f3ac1732efa0a74f975b1a8,SCN,2024-06-21_13h46.58.335,LearnStrategy,2023.2.3,Win32,59.88023952,3,1,3,-0.219444444,-0.304629686,1,0,0,1.5027,Pumice_06,8,06,2,3,1.503,0.439814843,-0.404629686,1,0,0,1.3025,Pumice_rect,8,1.303,1,2,0,2,0,1,,,,,,,,,,,,,
5f3ac1732efa0a74f975b1a8,SCN,2024-06-21_13h46.58.335,LearnStrategy,2023.2.3,Win32,59.88023952,3,1,4,-0.047222222,-0.280555556,1,0,0,1.1695,Diorite_09,3,09,2,4,1.169,0.428703732,-0.232407464,1,0,0,2.2708,Gabbro_rect,4,2.271,0,3,0,3,0,1,,,,,,,,,,,,,
5f3ac1732efa0a74f975b1a8,SCN,2024-06-21_13h46.58.335,LearnStrategy,2023.2.3,Win32,59.88023952,3,1,5,0.041666667,-0.258333333,1,0,0,1.0105,Pegmatite_11,6,11,2,5,1.01,-0.110185157,-0.409259288,1,0,0,2.0354,Pegmatite_rect,6,2.035,1,4,0,4,0,1,,,,,,,,,,,,,
5f3ac1732efa0a74f975b1a8,SCN,2024-06-21_13h46.58.335,LearnStrategy,2023.2.3,Win32,59.88023952,3,1,6,0.190740797,-0.253703732,1,0,0,1.0108,Obsidian_05,5,05,2,6,1.011,-0.103703647,-0.379629686,1,0,0,1.7484,Pegmatite_rect,6,1.748,0,5,0,5,0,1,,,,,,,,,,,,,
5f3ac1732efa0a74f975b1a8,SCN,2024-06-21_13h46.58.335,LearnStrategy,2023.2.3,Win32,59.88023952,3,1,7,0.340740797,-0.25,1,0,0,0.8972,Andesite_09,1,09,2,7,0.897,-0.140740712,-0.244444444,1,0,0,0.9475,Basalt_rect,2,0.947,0,6,0,6,0,1,,,,,,,,,,,,,
5f3ac1732efa0a74f975b1a8,SCN,2024-06-21_13h46.58.335,LearnStrategy,2023.2.3,Win32,59.88023952,3,1,8,0.543518575,-0.300925954,1,0,0,1.0313,Peridotite_10,7,10,2,8,1.031,0.120370399,-0.239814843,1,0,0,1.7873,Diorite_rect,3,1.787,0,7,0,7,0,1,,,,,,,,,,,,,
5f3ac1732efa0a74f975b1a8,SCN,2024-06-21_13h46.58.335,LearnStrategy,2023.2.3,Win32,59.88023952,3,1,9,-0.565740734,-0.428703732,1,0,0,0.8971,Diorite_14,3,14,1,1,0.897,-0.494444444,-0.257407464,1,0,0,2.1135,Andesite_rect,1,2.113,0,8,0,8,0,1,,,,,,,,,,,,,
5f3ac1732efa0a74f975b1a8,SCN,2024-06-21_13h46.58.335,LearnStrategy,2023.2.3,Win32,59.88023952,3,1,10,-0.35370369,-0.420370399,1,0,0,1.0518,Pumice_09,8,09,1,2,1.052,0.426851908,-0.393518575,1,0,0,2.0197,Pumice_rect,8,2.02,1,9,0,9,0,1,,,,,,,,,,,,,
5f3ac1732efa0a74f975b1a8,SCN,2024-06-21_13h46.58.335,LearnStrategy,2023.2.3,Win32,59.88023952,3,1,11,-0.240740712,-0.402777778,1,0,0,1.3221,Andesite_04,1,04,1,3,1.322,-0.11851849,-0.249074131,1,0,0,2.2137,Basalt_rect,2,2.214,0,10,0,10,0,1,,,,,,,,,,,,,
5f3ac1732efa0a74f975b1a8,SCN,2024-06-21_13h46.58.335,LearnStrategy,2023.2.3,Win32,59.88023952,3,1,12,-0.047222222,-0.396296353,1,0,0,1.3102,Andesite_14,1,14,1,4,1.31,-0.349074046,-0.242592621,1,0,0,1.7834,Andesite_rect,1,1.783,1,11,0,11,0,1,,,,,,,,,,,,,
5f3ac1732efa0a74f975b1a8,SCN,2024-06-21_13h46.58.335,LearnStrategy,2023.2.3,Win32,59.88023952,3,1,13,0.071296353,-0.436111111,1,0,0,1.0638,Andesite_11,1,11,1,5,1.064,0.209259288,-0.259259288,1,0,0,2.6987,Diorite_rect,3,2.699,0,12,0,12,0,1,,,,,,,,,,,,,
5f3ac1732efa0a74f975b1a8,SCN,2024-06-21_13h46.58.335,LearnStrategy,2023.2.3,Win32,59.88023952,3,1,14,0.246296353,-0.45,1,0,0,0.9118,Andesite_07,1,07,1,6,0.912,-0.096296268,-0.25,1,0,0,3.4231,Basalt_rect,2,3.423,0,13,0,13,0,1,,,,,,,,,,,,,
5f3ac1732efa0a74f975b1a8,SCN,2024-06-21_13h46.58.335,LearnStrategy,2023.2.3,Win32,59.88023952,3,1,15,0.4,-0.427777778,1,0,0,1.2448,Pegmatite_09,6,09,1,7,1.245,-0.162962935,-0.409259288,1,0,0,1.892,Pegmatite_rect,6,1.892,1,14,0,14,0,1,,,,,,,,,,,,,
5f3ac1732efa0a74f975b1a8,SCN,2024-06-21_13h46.58.335,LearnStrategy,2023.2.3,Win32,59.88023952,3,1,16,0.553703817,-0.403703732,1,0,0,0.9971,Diorite_13,3,13,1,8,0.997,0.147222222,-0.254629686,1,0,0,3.1476,Diorite_rect,3,3.148,1,15,0,15,0,1,,,,,,,,,,,,,
5f3ac1732efa0a74f975b1a8,SCN,2024-06-21_13h46.58.335,LearnStrategy,2023.2.3,Win32,59.88023952,3,2,1,,,,,,,,4,01,,,,,,,,,,,1,12.756,0,,,,,,-0.359259245,-0.238888889,1,0,0,12.7557,Andesite_rect,0,0,0,0,1,
5f3ac1732efa0a74f975b1a8,SCN,2024-06-21_13h46.58.335,LearnStrategy,2023.2.3,Win32,59.88023952,3,2,2,,,,,,,,8,08,,,,,,,,,,,8,2.657,1,,,,,,0.438888889,-0.403703732,1,0,0,2.6574,Pumice_rect,1,0,1,0,1,
5f3ac1732efa0a74f975b1a8,SCN,2024-06-21_13h46.58.335,LearnStrategy,2023.2.3,Win32,59.88023952,3,2,3,,,,,,,,2,02,,,,,,,,,,,1,7.015,0,,,,,,-0.40370369,-0.242592621,1,0,0,7.0153,Andesite_rect,2,0,2,0,1,
5f3ac1732efa0a74f975b1a8,SCN,2024-06-21_13h46.58.335,LearnStrategy,2023.2.3,Win32,59.88023952,3,2,4,,,,,,,,8,15,,,,,,,,,,,8,2.947,1,,,,,,0.394444444,-0.401851908,1,0,0,2.9472,Pumice_rect,3,0,3,0,1,
5f3ac1732efa0a74f975b1a8,SCN,2024-06-21_13h46.58.335,LearnStrategy,2023.2.3,Win32,59.88023952,3,2,5,,,,,,,,3,06,,,,,,,,,,,3,2.242,1,,,,,,0.212037065,-0.267592621,1,0,0,2.2421,Diorite_rect,4,0,4,0,1,
5f3ac1732efa0a74f975b1a8,SCN,2024-06-21_13h46.58.335,LearnStrategy,2023.2.3,Win32,59.88023952,3,2,6,,,,,,,,4,09,,,,,,,,,,,5,1.564,0,,,,,,-0.382407379,-0.404629686,1,0,0,1.5644,Obsidian_rect,5,0,5,0,1,
5f3ac1732efa0a74f975b1a8,SCN,2024-06-21_13h46.58.335,LearnStrategy,2023.2.3,Win32,59.88023952,3,2,7,,,,,,,,7,15,,,,,,,,,,,6,1.792,0,,,,,,-0.150925869,-0.392592621,1,0,0,1.7922,Pegmatite_rect,6,0,6,0,1,
5f3ac1732efa0a74f975b1a8,SCN,2024-06-21_13h46.58.335,LearnStrategy,2023.2.3,Win32,59.88023952,3,2,8,,,,,,,,2,08,,,,,,,,,,,5,11.349,0,,,,,,-0.369444444,-0.410185242,1,0,0,11.3487,Obsidian_rect,7,0,7,0,1,
5f3ac1732efa0a74f975b1a8,SCN,2024-06-21_13h46.58.335,LearnStrategy,2023.2.3,Win32,59.88023952,3,2,9,,,,,,,,1,03,,,,,,,,,,,1,8.324,1,,,,,,-0.361111111,-0.259259288,1,0,0,8.3242,Andesite_rect,8,0,8,0,1,
5f3ac1732efa0a74f975b1a8,SCN,2024-06-21_13h46.58.335,LearnStrategy,2023.2.3,Win32,59.88023952,3,2,10,,,,,,,,5,09,,,,,,,,,,,6,1.66,0,,,,,,-0.100925869,-0.407407464,1,0,0,1.6596,Pegmatite_rect,9,0,9,0,1,
5f3ac1732efa0a74f975b1a8,SCN,2024-06-21_13h46.58.335,LearnStrategy,2023.2.3,Win32,59.88023952,3,2,11,,,,,,,,1,16,,,,,,,,,,,3,2.797,0,,,,,,0.120370399,-0.246296353,1,0,0,2.7966,Diorite_rect,10,0,10,0,1,
5f3ac1732efa0a74f975b1a8,SCN,2024-06-21_13h46.58.335,LearnStrategy,2023.2.3,Win32,59.88023952,3,2,12,,,,,,,,6,10,,,,,,,,,,,7,5.942,0,,,,,,0.195370399,-0.409259288,1,0,0,5.9416,Peridotite_rect,11,0,11,0,1,
5f3ac1732efa0a74f975b1a8,SCN,2024-06-21_13h46.58.335,LearnStrategy,2023.2.3,Win32,59.88023952,3,2,13,,,,,,,,7,04,,,,,,,,,,,3,9.096,0,,,,,,0.199074131,-0.259259288,1,0,0,9.0959,Diorite_rect,12,0,12,0,1,
5f3ac1732efa0a74f975b1a8,SCN,2024-06-21_13h46.58.335,LearnStrategy,2023.2.3,Win32,59.88023952,3,2,14,,,,,,,,5,12,,,,,,,,,,,5,3.242,1,,,,,,-0.485185157,-0.399074131,1,0,0,3.2417,Obsidian_rect,13,0,13,0,1,
5f3ac1732efa0a74f975b1a8,SCN,2024-06-21_13h46.58.335,LearnStrategy,2023.2.3,Win32,59.88023952,3,2,15,,,,,,,,3,10,,,,,,,,,,,4,1.848,0,,,,,,0.337963019,-0.268518575,1,0,0,1.8475,Gabbro_rect,14,0,14,0,1,
5f3ac1732efa0a74f975b1a8,SCN,2024-06-21_13h46.58.335,LearnStrategy,2023.2.3,Win32,59.88023952,3,2,16,,,,,,,,6,13,,,,,,,,,,,6,3.976,1,,,,,,-0.099074046,-0.409259288,1,0,0,3.9755,Pegmatite_rect,15,0,15,0,1,
5f3ac1732efa0a74f975b1a8,SCN,2024-06-21_13h46.58.335,LearnStrategy,2023.2.3,Win32,59.88023952,4,1,1,-0.045370314,-0.389814843,1,0,0,7.4962,Andesite_14,1,14,1,4,7.496,-0.34351849,-0.235185242,1,0,0,1.0812,Andesite_rect,1,1.081,1,0,0,0,0,1,,,,,,,,,,,,,
5f3ac1732efa0a74f975b1a8,SCN,2024-06-21_13h46.58.335,LearnStrategy,2023.2.3,Win32,59.88023952,4,1,2,-0.405555556,-0.089814843,1,0,0,1.4571,Basalt_04,2,04,3,2,1.457,0.040740797,-0.253703732,1,0,0,2.5514,Diorite_rect,3,2.551,0,1,0,1,0,1,,,,,,,,,,,,,
5f3ac1732efa0a74f975b1a8,SCN,2024-06-21_13h46.58.335,LearnStrategy,2023.2.3,Win32,59.88023952,4,1,3,0.111111111,0.200925912,1,0,0,1.5121,Obsidian_10,5,10,5,5,1.512,-0.347222222,-0.384259288,1,0,0,3.3989,Obsidian_rect,5,3.399,1,2,0,2,0,1,,,,,,,,,,,,,
5f3ac1732efa0a74f975b1a8,SCN,2024-06-21_13h46.58.335,LearnStrategy,2023.2.3,Win32,59.88023952,4,1,4,-0.406481467,0.075925912,1,0,0,1.2906,Pumice_13,8,13,4,2,1.291,0.386111111,-0.410185242,1,0,0,1.0487,Pumice_rect,8,1.049,1,3,0,3,0,1,,,,,,,,,,,,,
5f3ac1732efa0a74f975b1a8,SCN,2024-06-21_13h46.58.335,LearnStrategy,2023.2.3,Win32,59.88023952,4,1,5,-0.512037023,0.260185178,1,0,0,2.2634,Obsidian_06,5,06,5,1,2.263,-0.150925869,-0.382407464,1,0,0,2.1478,Pegmatite_rect,6,2.148,0,4,0,4,0,1,,,,,,,,,,,,,
5f3ac1732efa0a74f975b1a8,SCN,2024-06-21_13h46.58.335,LearnStrategy,2023.2.3,Win32,59.88023952,4,1,6,0.537963019,0.109259245,1,0,0,1.5486,Gabbro_05,4,05,4,8,1.549,0.093518575,-0.260185242,1,0,0,2.5687,Diorite_rect,3,2.569,0,5,0,5,0,1,,,,,,,,,,,,,
5f3ac1732efa0a74f975b1a8,SCN,2024-06-21_13h46.58.335,LearnStrategy,2023.2.3,Win32,59.88023952,4,1,7,0.550926039,-0.398148176,1,0,0,1.1221,Diorite_13,3,13,1,8,1.122,0.210185242,-0.408333333,1,0,0,1.8641,Peridotite_rect,7,1.864,0,6,0,6,0,1,,,,,,,,,,,,,
5f3ac1732efa0a74f975b1a8,SCN,2024-06-21_13h46.58.335,LearnStrategy,2023.2.3,Win32,59.88023952,4,1,8,0.087963019,0.376851845,1,0,0,2.7303,Peridotite_16,7,16,6,5,2.73,0.185185242,-0.410185242,1,0,0,2.4472,Peridotite_rect,7,2.447,1,7,0,7,0,1,,,,,,,,,,,,,
5f3ac1732efa0a74f975b1a8,SCN,2024-06-21_13h46.58.335,LearnStrategy,2023.2.3,Win32,59.88023952,4,1,9,0.200925954,0.256481467,1,0,0,2.4418,Gabbro_03,4,03,5,6,2.442,-0.344444444,-0.259259288,1,0,0,2.6749,Andesite_rect,1,2.675,0,8,0,8,0,1,,,,,,,,,,,,,
5f3ac1732efa0a74f975b1a8,SCN,2024-06-21_13h46.58.335,LearnStrategy,2023.2.3,Win32,59.88023952,4,1,10,-0.230555556,-0.298148176,1,0,0,1.4789,Pumice_06,8,06,2,3,1.479,0.413888889,-0.401851908,1,0,0,1.083,Pumice_rect,8,1.083,1,9,0,9,0,1,,,,,,,,,,,,,
5f3ac1732efa0a74f975b1a8,SCN,2024-06-21_13h46.58.335,LearnStrategy,2023.2.3,Win32,59.88023952,4,1,11,-0.527777778,-0.267592621,1,0,0,1.1781,Pegmatite_06,6,06,2,1,1.178,0.062037065,-0.387037065,1,0,0,3.5257,Peridotite_rect,7,3.526,0,10,0,10,0,1,,,,,,,,,,,,,
5f3ac1732efa0a74f975b1a8,SCN,2024-06-21_13h46.58.335,LearnStrategy,2023.2.3,Win32,59.88023952,4,1,12,0.56203715,-0.087962977,1,0,0,5.6112,Gabbro_16,4,16,3,8,5.611,0.18148151,-0.250925954,1,0,0,3.7231,Diorite_rect,3,3.723,0,11,0,11,0,1,,,,,,,,,,,,,
5f3ac1732efa0a74f975b1a8,SCN,2024-06-21_13h46.58.335,LearnStrategy,2023.2.3,Win32,59.88023952,4,1,13,0.227777778,0.081481467,1,0,0,2.7201,Basalt_14,2,14,4,6,2.72,0.421296353,-0.244444444,1,0,0,2.8259,Gabbro_rect,4,2.826,0,12,0,12,0,1,,,,,,,,,,,,,
5f3ac1732efa0a74f975b1a8,SCN,2024-06-21_13h46.58.335,LearnStrategy,2023.2.3,Win32,59.88023952,4,1,14,-0.437037023,0.248148134,1,0,0,1.5298,Basalt_01,2,01,5,2,1.53,-0.134259203,-0.244444444,1,0,0,2.907,Basalt_rect,2,2.907,1,13,0,13,0,1,,,,,,,,,,,,,
5f3ac1732efa0a74f975b1a8,SCN,2024-06-21_13h46.58.335,LearnStrategy,2023.2.3,Win32,59.88023952,4,1,15,-0.075925869,0.369444444,1,0,0,1.1284,Peridotite_14,7,14,6,4,1.128,0.176851908,-0.407407464,1,0,0,3.1481,Peridotite_rect,7,3.148,1,14,0,14,0,1,,,,,,,,,,,,,
5f3ac1732efa0a74f975b1a8,SCN,2024-06-21_13h46.58.335,LearnStrategy,2023.2.3,Win32,59.88023952,4,1,16,-0.526851824,0.4037037,1,0,0,1.7276,Basalt_11,2,11,6,1,1.728,-0.119444444,-0.234259288,1,0,0,1.242,Basalt_rect,2,1.242,1,15,0,15,0,1,,,,,,,,,,,,,
5f3ac1732efa0a74f975b1a8,SCN,2024-06-21_13h46.58.335,LearnStrategy,2023.2.3,Win32,59.88023952,4,2,1,,,,,,,,8,15,,,,,,,,,,,8,1.382,1,,,,,,0.372222222,-0.401851908,1,0,0,1.3816,Pumice_rect,0,0,0,0,1,
5f3ac1732efa0a74f975b1a8,SCN,2024-06-21_13h46.58.335,LearnStrategy,2023.2.3,Win32,59.88023952,4,2,2,,,,,,,,1,02,,,,,,,,,,,4,5.914,0,,,,,,0.400925954,-0.271296353,1,0,0,5.9137,Gabbro_rect,1,0,1,0,1,
5f3ac1732efa0a74f975b1a8,SCN,2024-06-21_13h46.58.335,LearnStrategy,2023.2.3,Win32,59.88023952,4,2,3,,,,,,,,4,11,,,,,,,,,,,1,9.129,0,,,,,,-0.344444444,-0.261111111,1,0,0,9.1293,Andesite_rect,2,0,2,0,1,
5f3ac1732efa0a74f975b1a8,SCN,2024-06-21_13h46.58.335,LearnStrategy,2023.2.3,Win32,59.88023952,4,2,4,,,,,,,,3,06,,,,,,,,,,,3,4.517,1,,,,,,0.179629686,-0.266666667,1,0,0,4.5168,Diorite_rect,3,0,3,0,1,
5f3ac1732efa0a74f975b1a8,SCN,2024-06-21_13h46.58.335,LearnStrategy,2023.2.3,Win32,59.88023952,4,2,5,,,,,,,,6,05,,,,,,,,,,,6,10.318,1,,,,,,-0.097222222,-0.414814843,1,0,0,10.3181,Pegmatite_rect,4,0,4,0,1,
5f3ac1732efa0a74f975b1a8,SCN,2024-06-21_13h46.58.335,LearnStrategy,2023.2.3,Win32,59.88023952,4,2,6,,,,,,,,7,12,,,,,,,,,,,7,19.405,1,,,,,,0.125925954,-0.413888889,1,0,0,19.405,Peridotite_rect,5,0,5,0,1,
5f3ac1732efa0a74f975b1a8,SCN,2024-06-21_13h46.58.335,LearnStrategy,2023.2.3,Win32,59.88023952,4,2,7,,,,,,,,5,02,,,,,,,,,,,5,1.897,1,,,,,,-0.372222222,-0.4,1,0,0,1.8969,Obsidian_rect,6,0,6,0,1,
5f3ac1732efa0a74f975b1a8,SCN,2024-06-21_13h46.58.335,LearnStrategy,2023.2.3,Win32,59.88023952,4,2,8,,,,,,,,2,08,,,,,,,,,,,1,2.498,0,,,,,,-0.355555556,-0.25,1,0,0,2.498,Andesite_rect,7,0,7,0,1,
5f3ac1732efa0a74f975b1a8,SCN,2024-06-21_13h46.58.335,LearnStrategy,2023.2.3,Win32,59.88023952,4,2,9,,,,,,,,5,09,,,,,,,,,,,5,5.639,1,,,,,,-0.36851849,-0.407407464,1,0,0,5.6385,Obsidian_rect,8,0,8,0,1,
5f3ac1732efa0a74f975b1a8,SCN,2024-06-21_13h46.58.335,LearnStrategy,2023.2.3,Win32,59.88023952,4,2,10,,,,,,,,7,07,,,,,,,,,,,3,4.364,0,,,,,,0.154629686,-0.250925954,1,0,0,4.3636,Diorite_rect,9,0,9,0,1,
5f3ac1732efa0a74f975b1a8,SCN,2024-06-21_13h46.58.335,LearnStrategy,2023.2.3,Win32,59.88023952,4,2,11,,,,,,,,1,10,,,,,,,,,,,4,1.392,0,,,,,,0.482407464,-0.228703732,1,0,0,1.3925,Gabbro_rect,10,0,10,0,1,
5f3ac1732efa0a74f975b1a8,SCN,2024-06-21_13h46.58.335,LearnStrategy,2023.2.3,Win32,59.88023952,4,2,12,,,,,,,,8,04,,,,,,,,,,,8,1.565,1,,,,,,0.471296353,-0.415740797,1,0,0,1.5646,Pumice_rect,11,0,11,0,1,
5f3ac1732efa0a74f975b1a8,SCN,2024-06-21_13h46.58.335,LearnStrategy,2023.2.3,Win32,59.88023952,4,2,13,,,,,,,,2,16,,,,,,,,,,,4,22.066,0,,,,,,0.435185242,-0.251851908,1,0,0,22.0661,Gabbro_rect,12,0,12,0,1,
5f3ac1732efa0a74f975b1a8,SCN,2024-06-21_13h46.58.335,LearnStrategy,2023.2.3,Win32,59.88023952,4,2,14,,,,,,,,4,15,,,,,,,,,,,3,2.081,0,,,,,,0.169444444,-0.265740797,1,0,0,2.0811,Diorite_rect,13,0,13,0,1,
5f3ac1732efa0a74f975b1a8,SCN,2024-06-21_13h46.58.335,LearnStrategy,2023.2.3,Win32,59.88023952,4,2,15,,,,,,,,6,15,,,,,,,,,,,6,1.376,1,,,,,,-0.078703647,-0.395370399,1,0,0,1.3762,Pegmatite_rect,14,0,14,0,1,
5f3ac1732efa0a74f975b1a8,SCN,2024-06-21_13h46.58.335,LearnStrategy,2023.2.3,Win32,59.88023952,4,2,16,,,,,,,,3,02,,,,,,,,,,,3,10.363,1,,,,,,0.116666667,-0.263888889,1,0,0,10.3628,Diorite_rect,15,0,15,0,1,
5f3ac1732efa0a74f975b1a8,SCN,2024-06-21_13h46.58.335,LearnStrategy,2023.2.3,Win32,59.88023952,5,1,1,-0.067592536,-0.111111111,1,0,0,2.0305,Basalt_12,2,12,3,4,2.031,-0.345370356,-0.247222222,1,0,0,2.1506,Andesite_rect,1,2.151,0,0,0,0,0,1,,,,,,,,,,,,,
5f3ac1732efa0a74f975b1a8,SCN,2024-06-21_13h46.58.335,LearnStrategy,2023.2.3,Win32,59.88023952,5,1,2,-0.219444444,0.100925912,1,0,0,1.0249,Obsidian_16,5,16,4,3,1.025,-0.351851824,-0.408333333,1,0,0,0.8646,Obsidian_rect,5,0.865,1,1,0,1,0,1,,,,,,,,,,,,,
5f3ac1732efa0a74f975b1a8,SCN,2024-06-21_13h46.58.335,LearnStrategy,2023.2.3,Win32,59.88023952,5,1,3,0.082407464,-0.092592621,1,0,0,0.7807,Pumice_05,8,05,3,5,0.781,0.425,-0.418518575,1,0,0,0.8476,Pumice_rect,8,0.848,1,2,0,2,0,1,,,,,,,,,,,,,
5f3ac1732efa0a74f975b1a8,SCN,2024-06-21_13h46.58.335,LearnStrategy,2023.2.3,Win32,59.88023952,5,1,4,0.516666667,-0.109259288,1,0,0,1.7411,Gabbro_16,4,16,3,8,1.741,0.429629686,-0.415740797,1,0,0,1.5555,Pumice_rect,8,1.556,0,3,0,3,0,1,,,,,,,,,,,,,
5f3ac1732efa0a74f975b1a8,SCN,2024-06-21_13h46.58.335,LearnStrategy,2023.2.3,Win32,59.88023952,5,1,5,0.552777778,0.227777778,1,0,0,1.4808,Peridotite_06,7,06,5,8,1.481,0.162963019,-0.252777778,1,0,0,1.2513,Diorite_rect,3,1.251,0,4,0,4,0,1,,,,,,,,,,,,,
5f3ac1732efa0a74f975b1a8,SCN,2024-06-21_13h46.58.335,LearnStrategy,2023.2.3,Win32,59.88023952,5,1,6,0.602777778,0.397222222,1,0,0,1.587,Diorite_12,3,12,6,8,1.587,-0.152777778,-0.25648151,1,0,0,1.3189,Basalt_rect,2,1.319,0,5,0,5,0,1,,,,,,,,,,,,,
5f3ac1732efa0a74f975b1a8,SCN,2024-06-21_13h46.58.335,LearnStrategy,2023.2.3,Win32,59.88023952,5,1,7,0.063888889,-0.25,1,0,0,1.3605,Pegmatite_11,6,11,2,5,1.361,-0.088888889,-0.383333333,1,0,0,0.9089,Pegmatite_rect,6,0.909,1,6,0,6,0,1,,,,,,,,,,,,,
5f3ac1732efa0a74f975b1a8,SCN,2024-06-21_13h46.58.335,LearnStrategy,2023.2.3,Win32,59.88023952,5,1,8,-0.36851849,0.274074067,1,0,0,1.2308,Basalt_01,2,01,5,2,1.231,-0.067592536,-0.251851908,1,0,0,0.8139,Basalt_rect,2,0.814,1,7,0,7,0,1,,,,,,,,,,,,,
5f3ac1732efa0a74f975b1a8,SCN,2024-06-21_13h46.58.335,LearnStrategy,2023.2.3,Win32,59.88023952,5,1,9,-0.067592536,0.268518511,1,0,0,1.5137,Andesite_05,1,05,5,4,1.514,0.155555556,-0.228703732,1,0,0,1.6132,Diorite_rect,3,1.613,0,8,0,8,0,1,,,,,,,,,,,,,
5f3ac1732efa0a74f975b1a8,SCN,2024-06-21_13h46.58.335,LearnStrategy,2023.2.3,Win32,59.88023952,5,1,10,0.426851908,0.246296289,1,0,0,1.1303,Gabbro_08,4,08,5,7,1.13,-0.350925912,-0.228703732,1,0,0,1.7125,Andesite_rect,1,1.712,0,9,0,9,0,1,,,,,,,,,,,,,
5f3ac1732efa0a74f975b1a8,SCN,2024-06-21_13h46.58.335,LearnStrategy,2023.2.3,Win32,59.88023952,5,1,11,-0.221296268,-0.403703732,1,0,0,1.6808,Andesite_04,1,04,1,3,1.681,0.375,-0.261111111,1,0,0,1.3148,Gabbro_rect,4,1.315,0,10,0,10,0,1,,,,,,,,,,,,,
5f3ac1732efa0a74f975b1a8,SCN,2024-06-21_13h46.58.335,LearnStrategy,2023.2.3,Win32,59.88023952,5,1,12,-0.514814801,-0.404629686,1,0,0,1.9636,Diorite_14,3,14,1,1,1.964,0.124074131,-0.389814843,1,0,0,1.5806,Peridotite_rect,7,1.581,0,11,0,11,0,1,,,,,,,,,,,,,
5f3ac1732efa0a74f975b1a8,SCN,2024-06-21_13h46.58.335,LearnStrategy,2023.2.3,Win32,59.88023952,5,1,13,0.575,-0.40648151,1,0,0,1.1311,Diorite_13,3,13,1,8,1.131,0.342592621,-0.232407464,1,0,0,2.1054,Gabbro_rect,4,2.105,0,12,0,12,0,1,,,,,,,,,,,,,
5f3ac1732efa0a74f975b1a8,SCN,2024-06-21_13h46.58.335,LearnStrategy,2023.2.3,Win32,59.88023952,5,1,14,0.270370399,-0.112037065,1,0,0,2.9971,Peridotite_02,7,02,3,6,2.997,0.107407464,-0.243518575,1,0,0,0.8817,Diorite_rect,3,0.882,0,13,0,13,0,1,,,,,,,,,,,,,
5f3ac1732efa0a74f975b1a8,SCN,2024-06-21_13h46.58.335,LearnStrategy,2023.2.3,Win32,59.88023952,5,1,15,0.092592621,0.385185178,1,0,0,0.9302,Peridotite_16,7,16,6,5,0.93,-0.071296268,-0.408333333,1,0,0,4.8418,Pegmatite_rect,6,4.842,0,14,0,14,0,1,,,,,,,,,,,,,
5f3ac1732efa0a74f975b1a8,SCN,2024-06-21_13h46.58.335,LearnStrategy,2023.2.3,Win32,59.88023952,5,1,16,0.273148176,-0.407407464,1,0,0,1.1303,Andesite_07,1,07,1,6,1.13,0.089814843,-0.245370399,1,0,0,1.0346,Diorite_rect,3,1.035,0,15,0,15,0,1,,,,,,,,,,,,,
5f3ac1732efa0a74f975b1a8,SCN,2024-06-21_13h46.58.335,LearnStrategy,2023.2.3,Win32,59.88023952,5,2,1,,,,,,,,5,07,,,,,,,,,,,5,4.045,1,,,,,,-0.325,-0.378703732,1,0,0,4.045,Obsidian_rect,0,0,0,0,1,
5f3ac1732efa0a74f975b1a8,SCN,2024-06-21_13h46.58.335,LearnStrategy,2023.2.3,Win32,59.88023952,5,2,2,,,,,,,,3,16,,,,,,,,,,,3,19.726,1,,,,,,0.137037065,-0.25648151,1,0,0,19.7262,Diorite_rect,1,0,1,0,1,
5f3ac1732efa0a74f975b1a8,SCN,2024-06-21_13h46.58.335,LearnStrategy,2023.2.3,Win32,59.88023952,5,2,3,,,,,,,,1,06,,,,,,,,,,,1,7.665,1,,,,,,-0.357407379,-0.241666667,1,0,0,7.6653,Andesite_rect,2,0,2,0,1,
5f3ac1732efa0a74f975b1a8,SCN,2024-06-21_13h46.58.335,LearnStrategy,2023.2.3,Win32,59.88023952,5,2,4,,,,,,,,2,05,,,,,,,,,,,2,10.728,1,,,,,,-0.136111111,-0.262037065,1,0,0,10.7278,Basalt_rect,3,0,3,0,1,
5f3ac1732efa0a74f975b1a8,SCN,2024-06-21_13h46.58.335,LearnStrategy,2023.2.3,Win32,59.88023952,5,2,5,,,,,,,,2,02,,,,,,,,,,,2,2.533,1,,,,,,-0.136111111,-0.262037065,1,0,0,2.5334,Basalt_rect,4,0,4,0,1,
5f3ac1732efa0a74f975b1a8,SCN,2024-06-21_13h46.58.335,LearnStrategy,2023.2.3,Win32,59.88023952,5,2,6,,,,,,,,8,08,,,,,,,,,,,8,1.216,1,,,,,,0.4,-0.404629686,1,0,0,1.2163,Pumice_rect,5,0,5,0,1,
5f3ac1732efa0a74f975b1a8,SCN,2024-06-21_13h46.58.335,LearnStrategy,2023.2.3,Win32,59.88023952,5,2,7,,,,,,,,3,10,,,,,,,,,,,4,6.387,0,,,,,,0.362963019,-0.240740797,1,0,0,6.3872,Gabbro_rect,6,0,6,0,1,
5f3ac1732efa0a74f975b1a8,SCN,2024-06-21_13h46.58.335,LearnStrategy,2023.2.3,Win32,59.88023952,5,2,8,,,,,,,,5,14,,,,,,,,,,,5,6.231,1,,,,,,-0.349074046,-0.397222222,1,0,0,6.2309,Obsidian_rect,7,0,7,0,1,
5f3ac1732efa0a74f975b1a8,SCN,2024-06-21_13h46.58.335,LearnStrategy,2023.2.3,Win32,59.88023952,5,2,9,,,,,,,,7,08,,,,,,,,,,,6,3.166,0,,,,,,-0.144444444,-0.393518575,1,0,0,3.1657,Pegmatite_rect,8,0,8,0,1,
5f3ac1732efa0a74f975b1a8,SCN,2024-06-21_13h46.58.335,LearnStrategy,2023.2.3,Win32,59.88023952,5,2,10,,,,,,,,6,13,,,,,,,,,,,6,1.409,1,,,,,,-0.144444444,-0.393518575,1,0,0,1.4095,Pegmatite_rect,9,0,9,0,1,
5f3ac1732efa0a74f975b1a8,SCN,2024-06-21_13h46.58.335,LearnStrategy,2023.2.3,Win32,59.88023952,5,2,11,,,,,,,,6,07,,,,,,,,,,,6,6.706,1,,,,,,-0.144444444,-0.393518575,1,0,0,6.706,Pegmatite_rect,10,0,10,0,1,
5f3ac1732efa0a74f975b1a8,SCN,2024-06-21_13h46.58.335,LearnStrategy,2023.2.3,Win32,59.88023952,5,2,12,,,,,,,,7,04,,,,,,,,,,,7,2.714,1,,,,,,0.074074131,-0.408333333,1,0,0,2.7143,Peridotite_rect,11,0,11,0,1,
5f3ac1732efa0a74f975b1a8,SCN,2024-06-21_13h46.58.335,LearnStrategy,2023.2.3,Win32,59.88023952,5,2,13,,,,,,,,1,03,,,,,,,,,,,1,2.626,1,,,,,,-0.371296268,-0.247222222,1,0,0,2.6261,Andesite_rect,12,0,12,0,1,
5f3ac1732efa0a74f975b1a8,SCN,2024-06-21_13h46.58.335,LearnStrategy,2023.2.3,Win32,59.88023952,5,2,14,,,,,,,,4,09,,,,,,,,,,,5,2.762,0,,,,,,-0.371296268,-0.402777778,1,0,0,2.7621,Obsidian_rect,13,0,13,0,1,
5f3ac1732efa0a74f975b1a8,SCN,2024-06-21_13h46.58.335,LearnStrategy,2023.2.3,Win32,59.88023952,5,2,15,,,,,,,,4,13,,,,,,,,,,,3,7.764,0,,,,,,0.158333333,-0.247222222,1,0,0,7.7644,Diorite_rect,14,0,14,0,1,
5f3ac1732efa0a74f975b1a8,SCN,2024-06-21_13h46.58.335,LearnStrategy,2023.2.3,Win32,59.88023952,5,2,16,,,,,,,,8,10,,,,,,,,,,,8,1.797,1,,,,,,0.420370399,-0.4,1,0,0,1.7968,Pumice_rect,15,0,15,0,1,
5f3ac1732efa0a74f975b1a8,SCN,2024-06-21_13h46.58.335,LearnStrategy,2023.2.3,Win32,59.88023952,6,1,1,0.260185242,-0.265740797,1,0,0,2.014,Obsidian_05,5,05,2,6,2.014,-0.354629601,-0.394444444,1,0,0,1.2695,Obsidian_rect,5,1.27,1,0,0,0,0,1,,,,,,,,,,,,,
5f3ac1732efa0a74f975b1a8,SCN,2024-06-21_13h46.58.335,LearnStrategy,2023.2.3,Win32,59.88023952,6,1,2,0.526851908,-0.386111111,1,0,0,0.886,Diorite_13,3,13,1,8,0.886,0.386111111,-0.262963019,1,0,0,4.1756,Gabbro_rect,4,4.176,0,1,0,1,0,1,,,,,,,,,,,,,
5f3ac1732efa0a74f975b1a8,SCN,2024-06-21_13h46.58.335,LearnStrategy,2023.2.3,Win32,59.88023952,6,1,3,0.540740797,-0.112962977,1,0,0,1.3977,Gabbro_16,4,16,3,8,1.398,-0.382407379,-0.253703732,1,0,0,3.2628,Andesite_rect,1,3.263,0,2,0,2,0,1,,,,,,,,,,,,,
5f3ac1732efa0a74f975b1a8,SCN,2024-06-21_13h46.58.335,LearnStrategy,2023.2.3,Win32,59.88023952,6,1,4,0.512963019,0.066666667,1,0,0,0.9771,Gabbro_05,4,05,4,8,0.977,0.197222222,-0.245370399,1,0,0,1.7615,Diorite_rect,3,1.761,0,3,0,3,0,1,,,,,,,,,,,,,
5f3ac1732efa0a74f975b1a8,SCN,2024-06-21_13h46.58.335,LearnStrategy,2023.2.3,Win32,59.88023952,6,1,5,-0.102777778,0.377777778,1,0,0,0.9811,Peridotite_14,7,14,6,4,0.981,0.186111111,-0.405555556,1,0,0,3.7661,Peridotite_rect,7,3.766,1,4,0,4,0,1,,,,,,,,,,,,,
5f3ac1732efa0a74f975b1a8,SCN,2024-06-21_13h46.58.335,LearnStrategy,2023.2.3,Win32,59.88023952,6,1,6,0.575926039,0.433333333,1,0,0,3.6473,Diorite_12,3,12,6,8,3.647,0.162963019,-0.4,1,0,0,3.2853,Peridotite_rect,7,3.285,0,5,0,5,0,1,,,,,,,,,,,,,
5f3ac1732efa0a74f975b1a8,SCN,2024-06-21_13h46.58.335,LearnStrategy,2023.2.3,Win32,59.88023952,6,1,7,-0.225,-0.274074131,1,0,0,1.1934,Pumice_06,8,06,2,3,1.193,0.457407464,-0.412037065,1,0,0,1.8659,Pumice_rect,8,1.866,1,6,0,6,0,1,,,,,,,,,,,,,
5f3ac1732efa0a74f975b1a8,SCN,2024-06-21_13h46.58.335,LearnStrategy,2023.2.3,Win32,59.88023952,6,1,8,-0.515740712,-0.415740797,1,0,0,0.9294,Diorite_14,3,14,1,1,0.929,-0.167592536,-0.403703732,1,0,0,1.1258,Pegmatite_rect,6,1.126,0,7,0,7,0,1,,,,,,,,,,,,,
5f3ac1732efa0a74f975b1a8,SCN,2024-06-21_13h46.58.335,LearnStrategy,2023.2.3,Win32,59.88023952,6,1,9,-0.587962956,-0.1,1,0,0,1.2276,Gabbro_14,4,14,3,1,1.228,0.48148151,-0.263888889,1,0,0,1.9877,Gabbro_rect,4,1.988,1,8,0,8,0,1,,,,,,,,,,,,,
5f3ac1732efa0a74f975b1a8,SCN,2024-06-21_13h46.58.335,LearnStrategy,2023.2.3,Win32,59.88023952,6,1,10,-0.567592578,0.113888889,1,0,0,0.9147,Peridotite_05,7,05,4,1,0.915,0.098148176,-0.392592621,1,0,0,2.9758,Peridotite_rect,7,2.976,1,9,0,9,0,1,,,,,,,,,,,,,
5f3ac1732efa0a74f975b1a8,SCN,2024-06-21_13h46.58.335,LearnStrategy,2023.2.3,Win32,59.88023952,6,1,11,-0.559259245,0.243518511,1,0,0,1.2141,Obsidian_06,5,06,5,1,1.214,-0.364814801,-0.390740797,1,0,0,1.883,Obsidian_rect,5,1.883,1,10,0,10,0,1,,,,,,,,,,,,,
5f3ac1732efa0a74f975b1a8,SCN,2024-06-21_13h46.58.335,LearnStrategy,2023.2.3,Win32,59.88023952,6,1,12,-0.513888889,0.362962956,1,0,0,0.9308,Basalt_11,2,11,6,1,0.931,-0.362962935,-0.251851908,1,0,0,1.3146,Andesite_rect,1,1.315,0,11,0,11,0,1,,,,,,,,,,,,,
5f3ac1732efa0a74f975b1a8,SCN,2024-06-21_13h46.58.335,LearnStrategy,2023.2.3,Win32,59.88023952,6,1,13,-0.377777778,0.286111111,1,0,0,1.3642,Basalt_01,2,01,5,2,1.364,-0.37870369,-0.234259288,1,0,0,1.4903,Andesite_rect,1,1.49,0,12,0,12,0,1,,,,,,,,,,,,,
5f3ac1732efa0a74f975b1a8,SCN,2024-06-21_13h46.58.335,LearnStrategy,2023.2.3,Win32,59.88023952,6,1,14,-0.227777778,0.242592578,1,0,0,1.5681,Pegmatite_08,6,08,5,3,1.568,-0.077777778,-0.415740797,1,0,0,1.0484,Pegmatite_rect,6,1.048,1,13,0,13,0,1,,,,,,,,,,,,,
5f3ac1732efa0a74f975b1a8,SCN,2024-06-21_13h46.58.335,LearnStrategy,2023.2.3,Win32,59.88023952,6,1,15,-0.204629601,-0.278703732,1,0,0,2.1137,Pumice_06,8,06,2,3,2.114,0.082407464,-0.260185242,1,0,0,1.251,Diorite_rect,3,1.251,0,14,0,14,0,1,,,,,,,,,,,,,
5f3ac1732efa0a74f975b1a8,SCN,2024-06-21_13h46.58.335,LearnStrategy,2023.2.3,Win32,59.88023952,6,1,16,0.397222222,0.223148134,1,0,0,6.1661,Gabbro_08,4,08,5,7,6.166,0.403703732,-0.244444444,1,0,0,2.3647,Gabbro_rect,4,2.365,1,15,0,15,0,1,,,,,,,,,,,,,
5f3ac1732efa0a74f975b1a8,SCN,2024-06-21_13h46.58.335,LearnStrategy,2023.2.3,Win32,59.88023952,6,2,1,,,,,,,,8,02,,,,,,,,,,,8,1.847,1,,,,,,0.45,-0.420370399,1,0,0,1.8473,Pumice_rect,0,0,0,0,1,
5f3ac1732efa0a74f975b1a8,SCN,2024-06-21_13h46.58.335,LearnStrategy,2023.2.3,Win32,59.88023952,6,2,2,,,,,,,,4,01,,,,,,,,,,,7,12.252,0,,,,,,0.115740797,-0.411111111,1,0,0,12.2517,Peridotite_rect,1,0,1,0,1,
5f3ac1732efa0a74f975b1a8,SCN,2024-06-21_13h46.58.335,LearnStrategy,2023.2.3,Win32,59.88023952,6,2,3,,,,,,,,1,16,,,,,,,,,,,3,6.532,0,,,,,,0.144444444,-0.246296353,1,0,0,6.5323,Diorite_rect,2,0,2,0,1,
5f3ac1732efa0a74f975b1a8,SCN,2024-06-21_13h46.58.335,LearnStrategy,2023.2.3,Win32,59.88023952,6,2,4,,,,,,,,6,10,,,,,,,,,,,7,6.295,0,,,,,,0.175,-0.417592621,1,0,0,6.2949,Peridotite_rect,3,0,3,0,1,
5f3ac1732efa0a74f975b1a8,SCN,2024-06-21_13h46.58.335,LearnStrategy,2023.2.3,Win32,59.88023952,6,2,5,,,,,,,,5,08,,,,,,,,,,,5,1.446,1,,,,,,-0.345370356,-0.403703732,1,0,0,1.4455,Obsidian_rect,4,0,4,0,1,
5f3ac1732efa0a74f975b1a8,SCN,2024-06-21_13h46.58.335,LearnStrategy,2023.2.3,Win32,59.88023952,6,2,6,,,,,,,,2,09,,,,,,,,,,,2,3.744,1,,,,,,-0.108333333,-0.265740797,1,0,0,3.7438,Basalt_rect,5,0,5,0,1,
5f3ac1732efa0a74f975b1a8,SCN,2024-06-21_13h46.58.335,LearnStrategy,2023.2.3,Win32,59.88023952,6,2,7,,,,,,,,7,15,,,,,,,,,,,6,2.591,0,,,,,,-0.070370314,-0.412037065,1,0,0,2.5908,Pegmatite_rect,6,0,6,0,1,
5f3ac1732efa0a74f975b1a8,SCN,2024-06-21_13h46.58.335,LearnStrategy,2023.2.3,Win32,59.88023952,6,2,8,,,,,,,,7,13,,,,,,,,,,,4,3.381,0,,,,,,0.385185242,-0.247222222,1,0,0,3.3815,Gabbro_rect,7,0,7,0,1,
5f3ac1732efa0a74f975b1a8,SCN,2024-06-21_13h46.58.335,LearnStrategy,2023.2.3,Win32,59.88023952,6,2,9,,,,,,,,5,12,,,,,,,,,,,5,1.563,1,,,,,,-0.357407379,-0.402777778,1,0,0,1.5628,Obsidian_rect,8,0,8,0,1,
5f3ac1732efa0a74f975b1a8,SCN,2024-06-21_13h46.58.335,LearnStrategy,2023.2.3,Win32,59.88023952,6,2,10,,,,,,,,3,07,,,,,,,,,,,3,10.544,1,,,,,,0.188888889,-0.265740797,1,0,0,10.5443,Diorite_rect,9,0,9,0,1,
5f3ac1732efa0a74f975b1a8,SCN,2024-06-21_13h46.58.335,LearnStrategy,2023.2.3,Win32,59.88023952,6,2,11,,,,,,,,3,15,,,,,,,,,,,7,2.913,0,,,,,,0.132407464,-0.4,1,0,0,2.9133,Peridotite_rect,10,0,10,0,1,
5f3ac1732efa0a74f975b1a8,SCN,2024-06-21_13h46.58.335,LearnStrategy,2023.2.3,Win32,59.88023952,6,2,12,,,,,,,,8,16,,,,,,,,,,,8,1.098,1,,,,,,0.428703732,-0.387963019,1,0,0,1.0984,Pumice_rect,11,0,11,0,1,
5f3ac1732efa0a74f975b1a8,SCN,2024-06-21_13h46.58.335,LearnStrategy,2023.2.3,Win32,59.88023952,6,2,13,,,,,,,,2,10,,,,,,,,,,,5,1.253,0,,,,,,-0.399074046,-0.380555556,1,0,0,1.2531,Obsidian_rect,12,0,12,0,1,
5f3ac1732efa0a74f975b1a8,SCN,2024-06-21_13h46.58.335,LearnStrategy,2023.2.3,Win32,59.88023952,6,2,14,,,,,,,,6,16,,,,,,,,,,,6,1.36,1,,,,,,-0.146296268,-0.4,1,0,0,1.3595,Pegmatite_rect,13,0,13,0,1,
5f3ac1732efa0a74f975b1a8,SCN,2024-06-21_13h46.58.335,LearnStrategy,2023.2.3,Win32,59.88023952,6,2,15,,,,,,,,1,01,,,,,,,,,,,3,2.842,0,,,,,,0.199074131,-0.262963019,1,0,0,2.8418,Diorite_rect,14,0,14,0,1,
5f3ac1732efa0a74f975b1a8,SCN,2024-06-21_13h46.58.335,LearnStrategy,2023.2.3,Win32,59.88023952,6,2,16,,,,,,,,4,12,,,,,,,,,,,1,1.265,0,,,,,,-0.425,-0.261111111,1,0,0,1.2654,Andesite_rect,15,0,15,0,1,
5f3ac1732efa0a74f975b1a8,SCN,2024-06-21_13h46.58.335,LearnStrategy,2023.2.3,Win32,59.88023952,7,1,1,0.046296353,-0.083333333,1,0,0,0.8651,Pumice_05,8,05,3,5,0.865,0.410185242,-0.409259288,1,0,0,1.5068,Pumice_rect,8,1.507,1,0,0,0,0,1,,,,,,,,,,,,,
5f3ac1732efa0a74f975b1a8,SCN,2024-06-21_13h46.58.335,LearnStrategy,2023.2.3,Win32,59.88023952,7,1,2,0.579629686,-0.437037065,1,0,0,0.8162,Diorite_13,3,13,1,8,0.816,0.230555556,-0.260185242,1,0,0,3.2469,Diorite_rect,3,3.247,1,1,0,1,0,1,,,,,,,,,,,,,
5f3ac1732efa0a74f975b1a8,SCN,2024-06-21_13h46.58.335,LearnStrategy,2023.2.3,Win32,59.88023952,7,1,3,0.369444444,-0.391666667,1,0,0,0.9036,Pegmatite_09,6,09,1,7,0.904,0.377777778,-0.262037065,1,0,0,2.7543,Gabbro_rect,4,2.754,0,2,0,2,0,1,,,,,,,,,,,,,
5f3ac1732efa0a74f975b1a8,SCN,2024-06-21_13h46.58.335,LearnStrategy,2023.2.3,Win32,59.88023952,7,1,4,0.204629686,-0.428703732,1,0,0,1.0961,Andesite_07,1,07,1,6,1.096,0.200925954,-0.250925954,1,0,0,3.5198,Diorite_rect,3,3.52,0,3,0,3,0,1,,,,,,,,,,,,,
5f3ac1732efa0a74f975b1a8,SCN,2024-06-21_13h46.58.335,LearnStrategy,2023.2.3,Win32,59.88023952,7,1,5,0.117592621,-0.443518575,1,0,0,0.8911,Andesite_11,1,11,1,5,0.891,-0.37870369,-0.235185242,1,0,0,1.3126,Andesite_rect,1,1.313,1,4,0,4,0,1,,,,,,,,,,,,,
5f3ac1732efa0a74f975b1a8,SCN,2024-06-21_13h46.58.335,LearnStrategy,2023.2.3,Win32,59.88023952,7,1,6,-0.034259203,-0.410185242,1,0,0,0.8312,Andesite_14,1,14,1,4,0.831,0.133333333,-0.382407464,1,0,0,4.1168,Peridotite_rect,7,4.117,0,5,0,5,0,1,,,,,,,,,,,,,
5f3ac1732efa0a74f975b1a8,SCN,2024-06-21_13h46.58.335,LearnStrategy,2023.2.3,Win32,59.88023952,7,1,7,-0.185185157,-0.35648151,1,0,0,0.7641,Andesite_04,1,04,1,3,0.764,-0.212962935,-0.385185242,1,0,0,0.248,Pegmatite_rect,6,0.248,0,6,0,6,0,1,,,,,,,,,,,,,
5f3ac1732efa0a74f975b1a8,SCN,2024-06-21_13h46.58.335,LearnStrategy,2023.2.3,Win32,59.88023952,7,1,8,-0.076851824,-0.100925954,1,0,0,0.9538,Basalt_12,2,12,3,4,0.954,-0.087962935,-0.254629686,1,0,0,1.0858,Basalt_rect,2,1.086,1,7,0,7,0,1,,,,,,,,,,,,,
5f3ac1732efa0a74f975b1a8,SCN,2024-06-21_13h46.58.335,LearnStrategy,2023.2.3,Win32,59.88023952,7,1,9,0.215740797,0.06851849,1,0,0,1.3308,Basalt_14,2,14,4,6,1.331,0.448148176,-0.399074131,1,0,0,1.0486,Pumice_rect,8,1.049,0,8,0,8,0,1,,,,,,,,,,,,,
5f3ac1732efa0a74f975b1a8,SCN,2024-06-21_13h46.58.335,LearnStrategy,2023.2.3,Win32,59.88023952,7,1,10,-0.24351849,0.261111111,1,0,0,1.0292,Pegmatite_08,6,08,5,3,1.029,-0.071296268,-0.413888889,1,0,0,0.8825,Pegmatite_rect,6,0.882,1,9,0,9,0,1,,,,,,,,,,,,,
5f3ac1732efa0a74f975b1a8,SCN,2024-06-21_13h46.58.335,LearnStrategy,2023.2.3,Win32,59.88023952,7,1,11,0.580555556,0.427777778,1,0,0,1.046,Diorite_12,3,12,6,8,1.046,0.165740797,-0.237963019,1,0,0,6.8585,Diorite_rect,3,6.859,1,10,0,10,0,1,,,,,,,,,,,,,
5f3ac1732efa0a74f975b1a8,SCN,2024-06-21_13h46.58.335,LearnStrategy,2023.2.3,Win32,59.88023952,7,1,12,-0.512037023,0.218518511,1,0,0,1.8468,Obsidian_06,5,06,5,1,1.847,-0.325925912,-0.404629686,1,0,0,4.1131,Obsidian_rect,5,4.113,1,11,0,11,0,1,,,,,,,,,,,,,
5f3ac1732efa0a74f975b1a8,SCN,2024-06-21_13h46.58.335,LearnStrategy,2023.2.3,Win32,59.88023952,7,1,13,-0.108333333,-0.395370399,1,0,0,4.2131,Andesite_14,1,14,1,4,4.213,-0.082407379,-0.414814843,1,0,0,17.0421,Pegmatite_rect,6,17.042,0,12,0,12,0,1,,,,,,,,,,,,,
5f3ac1732efa0a74f975b1a8,SCN,2024-06-21_13h46.58.335,LearnStrategy,2023.2.3,Win32,59.88023952,7,1,14,0.38148151,-0.10648151,1,0,0,1.7063,Gabbro_10,4,10,3,7,1.706,-0.390740712,-0.254629686,1,0,0,3.3985,Andesite_rect,1,3.399,0,13,0,13,0,1,,,,,,,,,,,,,
5f3ac1732efa0a74f975b1a8,SCN,2024-06-21_13h46.58.335,LearnStrategy,2023.2.3,Win32,59.88023952,7,1,15,0.398148176,0.279629623,1,0,0,1.2659,Gabbro_08,4,08,5,7,1.266,0.190740797,-0.386111111,1,0,0,0.9935,Peridotite_rect,7,0.994,0,14,0,14,0,1,,,,,,,,,,,,,
5f3ac1732efa0a74f975b1a8,SCN,2024-06-21_13h46.58.335,LearnStrategy,2023.2.3,Win32,59.88023952,7,1,16,0.072222222,-0.088888889,1,0,0,0.9881,Pumice_05,8,05,3,5,0.988,0.353703732,-0.410185242,1,0,0,0.5698,Pumice_rect,8,0.57,1,15,0,15,0,1,,,,,,,,,,,,,
5f3ac1732efa0a74f975b1a8,SCN,2024-06-21_13h46.58.335,LearnStrategy,2023.2.3,Win32,59.88023952,7,2,1,,,,,,,,2,16,,,,,,,,,,,4,14.931,0,,,,,,0.362963019,-0.245370399,1,0,0,14.9313,Gabbro_rect,0,0,0,0,1,
5f3ac1732efa0a74f975b1a8,SCN,2024-06-21_13h46.58.335,LearnStrategy,2023.2.3,Win32,59.88023952,7,2,2,,,,,,,,3,15,,,,,,,,,,,3,4.662,1,,,,,,0.150925954,-0.233333333,1,0,0,4.6622,Diorite_rect,1,0,1,0,1,
5f3ac1732efa0a74f975b1a8,SCN,2024-06-21_13h46.58.335,LearnStrategy,2023.2.3,Win32,59.88023952,7,2,3,,,,,,,,6,16,,,,,,,,,,,7,28.298,0,,,,,,0.025,-0.390740797,1,0,0,28.2975,Peridotite_rect,2,0,2,0,1,
5f3ac1732efa0a74f975b1a8,SCN,2024-06-21_13h46.58.335,LearnStrategy,2023.2.3,Win32,59.88023952,7,2,4,,,,,,,,3,06,,,,,,,,,,,3,5.316,1,,,,,,0.20648151,-0.261111111,1,0,0,5.3162,Diorite_rect,3,0,3,0,1,
5f3ac1732efa0a74f975b1a8,SCN,2024-06-21_13h46.58.335,LearnStrategy,2023.2.3,Win32,59.88023952,7,2,5,,,,,,,,7,08,,,,,,,,,,,7,5.112,1,,,,,,0.078703732,-0.392592621,1,0,0,5.1116,Peridotite_rect,4,0,4,0,1,
5f3ac1732efa0a74f975b1a8,SCN,2024-06-21_13h46.58.335,LearnStrategy,2023.2.3,Win32,59.88023952,7,2,6,,,,,,,,4,11,,,,,,,,,,,2,2.698,0,,,,,,-0.070370314,-0.255555556,1,0,0,2.6979,Basalt_rect,5,0,5,0,1,
5f3ac1732efa0a74f975b1a8,SCN,2024-06-21_13h46.58.335,LearnStrategy,2023.2.3,Win32,59.88023952,7,2,7,,,,,,,,5,08,,,,,,,,,,,5,1.232,1,,,,,,-0.31851849,-0.40648151,1,0,0,1.2322,Obsidian_rect,6,0,6,0,1,
5f3ac1732efa0a74f975b1a8,SCN,2024-06-21_13h46.58.335,LearnStrategy,2023.2.3,Win32,59.88023952,7,2,8,,,,,,,,6,13,,,,,,,,,,,6,1.515,1,,,,,,-0.084259203,-0.395370399,1,0,0,1.5154,Pegmatite_rect,7,0,7,0,1,
5f3ac1732efa0a74f975b1a8,SCN,2024-06-21_13h46.58.335,LearnStrategy,2023.2.3,Win32,59.88023952,7,2,9,,,,,,,,1,01,,,,,,,,,,,4,1.397,0,,,,,,0.434259288,-0.265740797,1,0,0,1.3974,Gabbro_rect,8,0,8,0,1,
5f3ac1732efa0a74f975b1a8,SCN,2024-06-21_13h46.58.335,LearnStrategy,2023.2.3,Win32,59.88023952,7,2,10,,,,,,,,5,14,,,,,,,,,,,5,1.449,1,,,,,,-0.411111111,-0.416666667,1,0,0,1.4487,Obsidian_rect,9,0,9,0,1,
5f3ac1732efa0a74f975b1a8,SCN,2024-06-21_13h46.58.335,LearnStrategy,2023.2.3,Win32,59.88023952,7,2,11,,,,,,,,2,10,,,,,,,,,,,5,0.915,0,,,,,,-0.410185157,-0.414814843,1,0,0,0.9152,Obsidian_rect,10,0,10,0,1,
5f3ac1732efa0a74f975b1a8,SCN,2024-06-21_13h46.58.335,LearnStrategy,2023.2.3,Win32,59.88023952,7,2,12,,,,,,,,8,15,,,,,,,,,,,8,1.015,1,,,,,,0.463888889,-0.4,1,0,0,1.0151,Pumice_rect,11,0,11,0,1,
5f3ac1732efa0a74f975b1a8,SCN,2024-06-21_13h46.58.335,LearnStrategy,2023.2.3,Win32,59.88023952,7,2,13,,,,,,,,4,09,,,,,,,,,,,1,2.282,0,,,,,,-0.362037023,-0.260185242,1,0,0,2.2816,Andesite_rect,12,0,12,0,1,
5f3ac1732efa0a74f975b1a8,SCN,2024-06-21_13h46.58.335,LearnStrategy,2023.2.3,Win32,59.88023952,7,2,14,,,,,,,,1,02,,,,,,,,,,,3,5.58,0,,,,,,0.166666667,-0.270370399,1,0,0,5.5804,Diorite_rect,13,0,13,0,1,
5f3ac1732efa0a74f975b1a8,SCN,2024-06-21_13h46.58.335,LearnStrategy,2023.2.3,Win32,59.88023952,7,2,15,,,,,,,,8,08,,,,,,,,,,,8,1.265,1,,,,,,0.471296353,-0.398148176,1,0,0,1.2649,Pumice_rect,14,0,14,0,1,
5f3ac1732efa0a74f975b1a8,SCN,2024-06-21_13h46.58.335,LearnStrategy,2023.2.3,Win32,59.88023952,7,2,16,,,,,,,,7,15,,,,,,,,,,,7,12.107,1,,,,,,0.200925954,-0.382407464,1,0,0,12.107,Peridotite_rect,15,0,15,0,1,
5f3ac1732efa0a74f975b1a8,SCN,2024-06-21_13h46.58.335,LearnStrategy,2023.2.3,Win32,59.88023952,8,1,1,0.060185242,-0.261111111,1,0,0,6.1716,Pegmatite_11,6,11,2,5,6.172,-0.373148134,-0.264814843,1,0,0,2.1526,Andesite_rect,1,2.153,0,0,0,0,0,1,,,,,,,,,,,,,
5f3ac1732efa0a74f975b1a8,SCN,2024-06-21_13h46.58.335,LearnStrategy,2023.2.3,Win32,59.88023952,8,1,2,-0.225,-0.099074088,1,0,0,1.0139,Pegmatite_12,6,12,3,3,1.014,0.075925954,-0.249074131,1,0,0,1.3317,Diorite_rect,3,1.332,0,1,0,1,0,1,,,,,,,,,,,,,
5f3ac1732efa0a74f975b1a8,SCN,2024-06-21_13h46.58.335,LearnStrategy,2023.2.3,Win32,59.88023952,8,1,3,-0.510185157,-0.253703732,1,0,0,1.0805,Pegmatite_06,6,06,2,1,1.08,0.462037065,-0.237963019,1,0,0,1.6157,Gabbro_rect,4,1.616,0,2,0,2,0,1,,,,,,,,,,,,,
5f3ac1732efa0a74f975b1a8,SCN,2024-06-21_13h46.58.335,LearnStrategy,2023.2.3,Win32,59.88023952,8,1,4,0.532407464,-0.415740797,1,0,0,0.8807,Diorite_13,3,13,1,8,0.881,0.144444444,-0.399074131,1,0,0,2.4492,Peridotite_rect,7,2.449,0,3,0,3,0,1,,,,,,,,,,,,,
5f3ac1732efa0a74f975b1a8,SCN,2024-06-21_13h46.58.335,LearnStrategy,2023.2.3,Win32,59.88023952,8,1,5,0.20648151,0.246296289,1,0,0,1.2933,Gabbro_03,4,03,5,6,1.293,-0.134259203,-0.264814843,1,0,0,1.1196,Basalt_rect,2,1.12,0,4,0,4,0,1,,,,,,,,,,,,,
5f3ac1732efa0a74f975b1a8,SCN,2024-06-21_13h46.58.335,LearnStrategy,2023.2.3,Win32,59.88023952,8,1,6,0.564814928,0.237962956,1,0,0,1.3304,Peridotite_06,7,06,5,8,1.33,-0.297222222,-0.417592621,1,0,0,1.9967,Obsidian_rect,5,1.997,0,5,0,5,0,1,,,,,,,,,,,,,
5f3ac1732efa0a74f975b1a8,SCN,2024-06-21_13h46.58.335,LearnStrategy,2023.2.3,Win32,59.88023952,8,1,7,-0.39351849,0.434259256,1,0,0,1.2812,Pumice_14,8,14,6,2,1.281,0.397222222,-0.394444444,1,0,0,0.9688,Pumice_rect,8,0.969,1,6,0,6,0,1,,,,,,,,,,,,,
5f3ac1732efa0a74f975b1a8,SCN,2024-06-21_13h46.58.335,LearnStrategy,2023.2.3,Win32,59.88023952,8,1,8,-0.579629623,0.384259256,1,0,0,1.2643,Basalt_11,2,11,6,1,1.264,-0.184259245,-0.242592621,1,0,0,0.9996,Basalt_rect,2,1,1,7,0,7,0,1,,,,,,,,,,,,,
5f3ac1732efa0a74f975b1a8,SCN,2024-06-21_13h46.58.335,LearnStrategy,2023.2.3,Win32,59.88023952,8,1,9,-0.044444444,-0.075,1,0,0,1.7979,Basalt_12,2,12,3,4,1.798,-0.354629601,-0.236111111,1,0,0,0.9329,Andesite_rect,1,0.933,0,8,0,8,0,1,,,,,,,,,,,,,
5f3ac1732efa0a74f975b1a8,SCN,2024-06-21_13h46.58.335,LearnStrategy,2023.2.3,Win32,59.88023952,8,1,10,-0.375,-0.111111111,1,0,0,1.1126,Basalt_04,2,04,3,2,1.113,-0.398148134,-0.241666667,1,0,0,1.0762,Andesite_rect,1,1.076,0,9,0,9,0,1,,,,,,,,,,,,,
5f3ac1732efa0a74f975b1a8,SCN,2024-06-21_13h46.58.335,LearnStrategy,2023.2.3,Win32,59.88023952,8,1,11,-0.427777778,-0.242592621,1,0,0,1.2212,Diorite_08,3,08,2,2,1.221,0.400925954,-0.230555556,1,0,0,0.9855,Gabbro_rect,4,0.986,0,10,0,10,0,1,,,,,,,,,,,,,
5f3ac1732efa0a74f975b1a8,SCN,2024-06-21_13h46.58.335,LearnStrategy,2023.2.3,Win32,59.88023952,8,1,12,-0.522222222,-0.403703732,1,0,0,1.2141,Diorite_14,3,14,1,1,1.214,-0.11851849,-0.40648151,1,0,0,16.3562,Pegmatite_rect,6,16.356,0,11,0,11,0,1,,,,,,,,,,,,,
5f3ac1732efa0a74f975b1a8,SCN,2024-06-21_13h46.58.335,LearnStrategy,2023.2.3,Win32,59.88023952,8,1,13,0.538888889,-0.109259288,1,0,0,1.1248,Gabbro_16,4,16,3,8,1.125,0.348148176,-0.23148151,1,0,0,5.6154,Gabbro_rect,4,5.615,1,12,0,12,0,1,,,,,,,,,,,,,
5f3ac1732efa0a74f975b1a8,SCN,2024-06-21_13h46.58.335,LearnStrategy,2023.2.3,Win32,59.88023952,8,1,14,0.441666667,0.237962956,1,0,0,3.9466,Gabbro_08,4,08,5,7,3.947,-0.077777778,-0.257407464,1,0,0,4.2058,Basalt_rect,2,4.206,0,13,0,13,0,1,,,,,,,,,,,,,
5f3ac1732efa0a74f975b1a8,SCN,2024-06-21_13h46.58.335,LearnStrategy,2023.2.3,Win32,59.88023952,8,1,15,0.590740797,0.095370356,1,0,0,1.2128,Gabbro_05,4,05,4,8,1.213,0.089814843,-0.418518575,1,0,0,4.5259,Peridotite_rect,7,4.526,0,14,0,14,0,1,,,,,,,,,,,,,
5f3ac1732efa0a74f975b1a8,SCN,2024-06-21_13h46.58.335,LearnStrategy,2023.2.3,Win32,59.88023952,8,1,16,0.501851908,-0.235185242,1,0,0,1.4805,Peridotite_10,7,10,2,8,1.481,0.410185242,-0.40648151,1,0,0,3.5819,Pumice_rect,8,3.582,0,15,0,15,0,1,,,,,,,,,,,,,
5f3ac1732efa0a74f975b1a8,SCN,2024-06-21_13h46.58.335,LearnStrategy,2023.2.3,Win32,59.88023952,8,2,1,,,,,,,,8,10,,,,,,,,,,,8,1.765,1,,,,,,0.359259288,-0.385185242,1,0,0,1.7651,Pumice_rect,0,0,0,0,1,
5f3ac1732efa0a74f975b1a8,SCN,2024-06-21_13h46.58.335,LearnStrategy,2023.2.3,Win32,59.88023952,8,2,2,,,,,,,,3,16,,,,,,,,,,,3,9.783,1,,,,,,0.098148176,-0.247222222,1,0,0,9.7828,Diorite_rect,1,0,1,0,1,
5f3ac1732efa0a74f975b1a8,SCN,2024-06-21_13h46.58.335,LearnStrategy,2023.2.3,Win32,59.88023952,8,2,3,,,,,,,,5,07,,,,,,,,,,,5,1.534,1,,,,,,-0.385185157,-0.421296353,1,0,0,1.5342,Obsidian_rect,2,0,2,0,1,
5f3ac1732efa0a74f975b1a8,SCN,2024-06-21_13h46.58.335,LearnStrategy,2023.2.3,Win32,59.88023952,8,2,4,,,,,,,,7,07,,,,,,,,,,,7,7.696,1,,,,,,0.114814843,-0.415740797,1,0,0,7.6961,Peridotite_rect,3,0,3,0,1,
5f3ac1732efa0a74f975b1a8,SCN,2024-06-21_13h46.58.335,LearnStrategy,2023.2.3,Win32,59.88023952,8,2,5,,,,,,,,1,03,,,,,,,,,,,2,8.955,0,,,,,,-0.101851824,-0.242592621,1,0,0,8.9552,Basalt_rect,4,0,4,0,1,
5f3ac1732efa0a74f975b1a8,SCN,2024-06-21_13h46.58.335,LearnStrategy,2023.2.3,Win32,59.88023952,8,2,6,,,,,,,,6,15,,,,,,,,,,,6,5.547,1,,,,,,-0.071296268,-0.413888889,1,0,0,5.5468,Pegmatite_rect,5,0,5,0,1,
5f3ac1732efa0a74f975b1a8,SCN,2024-06-21_13h46.58.335,LearnStrategy,2023.2.3,Win32,59.88023952,8,2,7,,,,,,,,8,04,,,,,,,,,,,8,1.433,1,,,,,,0.486111111,-0.394444444,1,0,0,1.4329,Pumice_rect,6,0,6,0,1,
5f3ac1732efa0a74f975b1a8,SCN,2024-06-21_13h46.58.335,LearnStrategy,2023.2.3,Win32,59.88023952,8,2,8,,,,,,,,2,08,,,,,,,,,,,1,2.092,0,,,,,,-0.359259245,-0.251851908,1,0,0,2.0916,Andesite_rect,7,0,7,0,1,
5f3ac1732efa0a74f975b1a8,SCN,2024-06-21_13h46.58.335,LearnStrategy,2023.2.3,Win32,59.88023952,8,2,9,,,,,,,,1,16,,,,,,,,,,,4,8.763,0,,,,,,0.411111111,-0.248148176,1,0,0,8.7633,Gabbro_rect,8,0,8,0,1,
5f3ac1732efa0a74f975b1a8,SCN,2024-06-21_13h46.58.335,LearnStrategy,2023.2.3,Win32,59.88023952,8,2,10,,,,,,,,4,01,,,,,,,,,,,3,4.912,0,,,,,,0.190740797,-0.262963019,1,0,0,4.9122,Diorite_rect,9,0,9,0,1,
5f3ac1732efa0a74f975b1a8,SCN,2024-06-21_13h46.58.335,LearnStrategy,2023.2.3,Win32,59.88023952,8,2,11,,,,,,,,5,02,,,,,,,,,,,5,1.314,1,,,,,,-0.374074046,-0.408333333,1,0,0,1.3136,Obsidian_rect,10,0,10,0,1,
5f3ac1732efa0a74f975b1a8,SCN,2024-06-21_13h46.58.335,LearnStrategy,2023.2.3,Win32,59.88023952,8,2,12,,,,,,,,6,07,,,,,,,,,,,6,2.098,1,,,,,,-0.107407379,-0.387963019,1,0,0,2.098,Pegmatite_rect,11,0,11,0,1,
5f3ac1732efa0a74f975b1a8,SCN,2024-06-21_13h46.58.335,LearnStrategy,2023.2.3,Win32,59.88023952,8,2,13,,,,,,,,4,15,,,,,,,,,,,4,2.339,1,,,,,,0.38148151,-0.25,1,0,0,2.3392,Gabbro_rect,12,0,12,0,1,
5f3ac1732efa0a74f975b1a8,SCN,2024-06-21_13h46.58.335,LearnStrategy,2023.2.3,Win32,59.88023952,8,2,14,,,,,,,,3,07,,,,,,,,,,,7,2.03,0,,,,,,0.171296353,-0.409259288,1,0,0,2.0304,Peridotite_rect,13,0,13,0,1,
5f3ac1732efa0a74f975b1a8,SCN,2024-06-21_13h46.58.335,LearnStrategy,2023.2.3,Win32,59.88023952,8,2,15,,,,,,,,2,05,,,,,,,,,,,2,2.115,1,,,,,,-0.17870369,-0.251851908,1,0,0,2.1149,Basalt_rect,14,0,14,0,1,
5f3ac1732efa0a74f975b1a8,SCN,2024-06-21_13h46.58.335,LearnStrategy,2023.2.3,Win32,59.88023952,8,2,16,,,,,,,,7,13,,,,,,,,,,,6,48.27,0,,,,,,-0.062962935,-0.407407464,1,0,0,48.2702,Pegmatite_rect,15,0,15,0,1,
5f3ac1732efa0a74f975b1a8,SCN,2024-06-21_13h46.58.335,LearnStrategy,2023.2.3,Win32,59.88023952,9,1,1,0.563888889,-0.413888889,1,0,0,2.3976,Diorite_13,3,13,1,8,2.398,0.079629686,-0.262037065,1,0,0,9.4278,Diorite_rect,3,9.428,1,0,0,0,0,1,,,,,,,,,,,,,
5f3ac1732efa0a74f975b1a8,SCN,2024-06-21_13h46.58.335,LearnStrategy,2023.2.3,Win32,59.88023952,9,1,2,0.084259288,-0.377777778,1,0,0,1.9305,Andesite_11,1,11,1,5,1.931,-0.398148134,-0.247222222,1,0,0,3.4122,Andesite_rect,1,3.412,1,1,0,1,0,1,,,,,,,,,,,,,
5f3ac1732efa0a74f975b1a8,SCN,2024-06-21_13h46.58.335,LearnStrategy,2023.2.3,Win32,59.88023952,9,1,3,-0.392592578,-0.255555556,1,0,0,1.4641,Diorite_08,3,08,2,2,1.464,0.109259288,-0.255555556,1,0,0,7.0128,Diorite_rect,3,7.013,1,2,0,2,0,1,,,,,,,,,,,,,
5f3ac1732efa0a74f975b1a8,SCN,2024-06-21_13h46.58.335,LearnStrategy,2023.2.3,Win32,59.88023952,9,1,4,0.073148176,-0.277777778,1,0,0,1.2304,Pegmatite_11,6,11,2,5,1.23,-0.073148092,-0.402777778,1,0,0,4.85,Pegmatite_rect,6,4.85,1,3,0,3,0,1,,,,,,,,,,,,,
5f3ac1732efa0a74f975b1a8,SCN,2024-06-21_13h46.58.335,LearnStrategy,2023.2.3,Win32,59.88023952,9,1,5,0.075925954,0.067592578,1,0,0,0.6643,Diorite_11,3,11,4,5,0.664,0.357407464,-0.266666667,1,0,0,1.4834,Gabbro_rect,4,1.483,0,4,0,4,0,1,,,,,,,,,,,,,
5f3ac1732efa0a74f975b1a8,SCN,2024-06-21_13h46.58.335,LearnStrategy,2023.2.3,Win32,59.88023952,9,1,6,-0.064814758,0.087962935,1,0,0,1.0139,Basalt_06,2,06,4,4,1.014,-0.176851824,-0.245370399,1,0,0,2.818,Basalt_rect,2,2.818,1,5,0,5,0,1,,,,,,,,,,,,,
5f3ac1732efa0a74f975b1a8,SCN,2024-06-21_13h46.58.335,LearnStrategy,2023.2.3,Win32,59.88023952,9,1,7,0.535185242,0.245370356,1,0,0,1.1772,Peridotite_06,7,06,5,8,1.177,0.174074131,-0.266666667,1,0,0,1.7015,Diorite_rect,3,1.702,0,6,0,6,0,1,,,,,,,,,,,,,
5f3ac1732efa0a74f975b1a8,SCN,2024-06-21_13h46.58.335,LearnStrategy,2023.2.3,Win32,59.88023952,9,1,8,0.047222222,0.4,1,0,0,4.7298,Peridotite_16,7,16,6,5,4.73,0.45648151,-0.255555556,1,0,0,1.2333,Gabbro_rect,4,1.233,0,7,0,7,0,1,,,,,,,,,,,,,
5f3ac1732efa0a74f975b1a8,SCN,2024-06-21_13h46.58.335,LearnStrategy,2023.2.3,Win32,59.88023952,9,1,9,-0.584259245,0.130555556,1,0,0,3.0136,Peridotite_05,7,05,4,1,3.014,0.079629686,-0.254629686,1,0,0,1.6302,Diorite_rect,3,1.63,0,8,0,8,0,1,,,,,,,,,,,,,
5f3ac1732efa0a74f975b1a8,SCN,2024-06-21_13h46.58.335,LearnStrategy,2023.2.3,Win32,59.88023952,9,1,10,-0.237962935,-0.137962977,1,0,0,1.0292,Pegmatite_12,6,12,3,3,1.029,0.326851908,-0.268518575,1,0,0,1.5193,Gabbro_rect,4,1.519,0,9,0,9,0,1,,,,,,,,,,,,,
5f3ac1732efa0a74f975b1a8,SCN,2024-06-21_13h46.58.335,LearnStrategy,2023.2.3,Win32,59.88023952,9,1,11,-0.595370356,-0.262963019,1,0,0,1.3638,Pegmatite_06,6,06,2,1,1.364,0.107407464,-0.398148176,1,0,0,1.8474,Peridotite_rect,7,1.847,0,10,0,10,0,1,,,,,,,,,,,,,
5f3ac1732efa0a74f975b1a8,SCN,2024-06-21_13h46.58.335,LearnStrategy,2023.2.3,Win32,59.88023952,9,1,12,0.580555556,0.440740739,1,0,0,1.616,Diorite_12,3,12,6,8,1.616,0.198148176,-0.239814843,1,0,0,5.7393,Diorite_rect,3,5.739,1,11,0,11,0,1,,,,,,,,,,,,,
5f3ac1732efa0a74f975b1a8,SCN,2024-06-21_13h46.58.335,LearnStrategy,2023.2.3,Win32,59.88023952,9,1,13,-0.128703647,0.394444444,1,0,0,1.838,Peridotite_14,7,14,6,4,1.838,0.443518575,-0.241666667,1,0,0,3.9385,Gabbro_rect,4,3.938,0,12,0,12,0,1,,,,,,,,,,,,,
5f3ac1732efa0a74f975b1a8,SCN,2024-06-21_13h46.58.335,LearnStrategy,2023.2.3,Win32,59.88023952,9,1,14,-0.229629601,0.415740739,1,0,0,1.1101,Obsidian_04,5,04,6,3,1.11,-0.371296268,-0.416666667,1,0,0,0.8605,Obsidian_rect,5,0.861,1,13,0,13,0,1,,,,,,,,,,,,,
5f3ac1732efa0a74f975b1a8,SCN,2024-06-21_13h46.58.335,LearnStrategy,2023.2.3,Win32,59.88023952,9,1,15,0.412037065,-0.267592621,1,0,0,1.3645,Andesite_09,1,09,2,7,1.364,-0.161111111,-0.239814843,1,0,0,1.2298,Basalt_rect,2,1.23,0,14,0,14,0,1,,,,,,,,,,,,,
5f3ac1732efa0a74f975b1a8,SCN,2024-06-21_13h46.58.335,LearnStrategy,2023.2.3,Win32,59.88023952,9,1,16,0.554629686,-0.272222222,1,0,0,1.1594,Peridotite_10,7,10,2,8,1.159,-0.352777778,-0.244444444,1,0,0,2.2609,Andesite_rect,1,2.261,0,15,0,15,0,1,,,,,,,,,,,,,
5f3ac1732efa0a74f975b1a8,SCN,2024-06-21_13h46.58.335,LearnStrategy,2023.2.3,Win32,59.88023952,9,2,1,,,,,,,,4,12,,,,,,,,,,,4,19.913,1,,,,,,0.430555556,-0.236111111,1,0,0,19.9134,Gabbro_rect,0,0,0,0,1,
5f3ac1732efa0a74f975b1a8,SCN,2024-06-21_13h46.58.335,LearnStrategy,2023.2.3,Win32,59.88023952,9,2,2,,,,,,,,6,10,,,,,,,,,,,6,5.13,1,,,,,,-0.129629601,-0.407407464,1,0,0,5.1304,Pegmatite_rect,1,0,1,0,1,
5f3ac1732efa0a74f975b1a8,SCN,2024-06-21_13h46.58.335,LearnStrategy,2023.2.3,Win32,59.88023952,9,2,3,,,,,,,,8,16,,,,,,,,,,,8,1.531,1,,,,,,0.409259288,-0.380555556,1,0,0,1.5306,Pumice_rect,2,0,2,0,1,
5f3ac1732efa0a74f975b1a8,SCN,2024-06-21_13h46.58.335,LearnStrategy,2023.2.3,Win32,59.88023952,9,2,4,,,,,,,,1,06,,,,,,,,,,,2,11.363,0,,,,,,-0.107407379,-0.264814843,1,0,0,11.3633,Basalt_rect,3,0,3,0,1,
5f3ac1732efa0a74f975b1a8,SCN,2024-06-21_13h46.58.335,LearnStrategy,2023.2.3,Win32,59.88023952,9,2,5,,,,,,,,7,04,,,,,,,,,,,7,8.112,1,,,,,,0.123148176,-0.412037065,1,0,0,8.1117,Peridotite_rect,4,0,4,0,1,
5f3ac1732efa0a74f975b1a8,SCN,2024-06-21_13h46.58.335,LearnStrategy,2023.2.3,Win32,59.88023952,9,2,6,,,,,,,,2,02,,,,,,,,,,,1,3.751,0,,,,,,-0.415740712,-0.251851908,1,0,0,3.7507,Andesite_rect,5,0,5,0,1,
5f3ac1732efa0a74f975b1a8,SCN,2024-06-21_13h46.58.335,LearnStrategy,2023.2.3,Win32,59.88023952,9,2,7,,,,,,,,8,02,,,,,,,,,,,8,1.964,1,,,,,,0.375,-0.404629686,1,0,0,1.964,Pumice_rect,6,0,6,0,1,
5f3ac1732efa0a74f975b1a8,SCN,2024-06-21_13h46.58.335,LearnStrategy,2023.2.3,Win32,59.88023952,9,2,8,,,,,,,,4,13,,,,,,,,,,,4,5.225,1,,,,,,0.362963019,-0.263888889,1,0,0,5.2253,Gabbro_rect,7,0,7,0,1,
5f3ac1732efa0a74f975b1a8,SCN,2024-06-21_13h46.58.335,LearnStrategy,2023.2.3,Win32,59.88023952,9,2,9,,,,,,,,6,05,,,,,,,,,,,6,1.602,1,,,,,,-0.099074046,-0.389814843,1,0,0,1.6022,Pegmatite_rect,8,0,8,0,1,
5f3ac1732efa0a74f975b1a8,SCN,2024-06-21_13h46.58.335,LearnStrategy,2023.2.3,Win32,59.88023952,9,2,10,,,,,,,,5,12,,,,,,,,,,,5,1.043,1,,,,,,-0.352777778,-0.391666667,1,0,0,1.0426,Obsidian_rect,9,0,9,0,1,
5f3ac1732efa0a74f975b1a8,SCN,2024-06-21_13h46.58.335,LearnStrategy,2023.2.3,Win32,59.88023952,9,2,11,,,,,,,,5,09,,,,,,,,,,,5,0.725,1,,,,,,-0.352777778,-0.391666667,1,0,0,0.725,Obsidian_rect,10,0,10,0,1,
5f3ac1732efa0a74f975b1a8,SCN,2024-06-21_13h46.58.335,LearnStrategy,2023.2.3,Win32,59.88023952,9,2,12,,,,,,,,2,09,,,,,,,,,,,2,2.347,1,,,,,,-0.130555556,-0.263888889,1,0,0,2.3468,Basalt_rect,11,0,11,0,1,
5f3ac1732efa0a74f975b1a8,SCN,2024-06-21_13h46.58.335,LearnStrategy,2023.2.3,Win32,59.88023952,9,2,13,,,,,,,,1,10,,,,,,,,,,,3,3.016,0,,,,,,0.174074131,-0.251851908,1,0,0,3.0158,Diorite_rect,12,0,12,0,1,
5f3ac1732efa0a74f975b1a8,SCN,2024-06-21_13h46.58.335,LearnStrategy,2023.2.3,Win32,59.88023952,9,2,14,,,,,,,,3,10,,,,,,,,,,,4,2.731,0,,,,,,0.365740797,-0.257407464,1,0,0,2.7314,Gabbro_rect,13,0,13,0,1,
5f3ac1732efa0a74f975b1a8,SCN,2024-06-21_13h46.58.335,LearnStrategy,2023.2.3,Win32,59.88023952,9,2,15,,,,,,,,7,12,,,,,,,,,,,6,1.399,0,,,,,,-0.075925869,-0.395370399,1,0,0,1.3991,Pegmatite_rect,14,0,14,0,1,
5f3ac1732efa0a74f975b1a8,SCN,2024-06-21_13h46.58.335,LearnStrategy,2023.2.3,Win32,59.88023952,9,2,16,,,,,,,,3,02,,,,,,,,,,,7,1.832,0,,,,,,0.087037065,-0.396296353,1,0,0,1.8316,Peridotite_rect,15,0,15,0,1,
5f3ac1732efa0a74f975b1a8,SCN,2024-06-21_13h46.58.335,LearnStrategy,2023.2.3,Win32,59.88023952,,,,,,,,,,,,,,,,,,,,,,,,,,,,,,,,,,,,,,,,,,,0
5f3ac1732efa0a74f975b1a8,SCN,2024-06-21_13h46.58.335,LearnStrategy,2023.2.3,Win32,59.88023952,,,,,,,,,,,,,,,,,,,,,,,,,,,,,,,,,,,,,,,,,,,
5f3ac1732efa0a74f975b1a8,SCN,2024-06-21_13h46.58.335,LearnStrategy,2023.2.3,Win32,59.88023952,,,,,,,,,,,3,14,1,1,,,,,,,,,,,,,,,,,,,,,,,,,,,,,
5f3ac1732efa0a74f975b1a8,SCN,2024-06-21_13h46.58.335,LearnStrategy,2023.2.3,Win32,59.88023952,,,,,,,,,,,8,09,1,2,,,,,,,,,,,,,,,,,,,,,,,,,,,,,
5f3ac1732efa0a74f975b1a8,SCN,2024-06-21_13h46.58.335,LearnStrategy,2023.2.3,Win32,59.88023952,,,,,,,,,,,1,04,1,3,,,,,,,,,,,,,,,,,,,,,,,,,,,,,
5f3ac1732efa0a74f975b1a8,SCN,2024-06-21_13h46.58.335,LearnStrategy,2023.2.3,Win32,59.88023952,,,,,,,,,,,1,14,1,4,,,,,,,,,,,,,,,,,,,,,,,,,,,,,
5f3ac1732efa0a74f975b1a8,SCN,2024-06-21_13h46.58.335,LearnStrategy,2023.2.3,Win32,59.88023952,,,,,,,,,,,1,11,1,5,,,,,,,,,,,,,,,,,,,,,,,,,,,,,
5f3ac1732efa0a74f975b1a8,SCN,2024-06-21_13h46.58.335,LearnStrategy,2023.2.3,Win32,59.88023952,,,,,,,,,,,1,07,1,6,,,,,,,,,,,,,,,,,,,,,,,,,,,,,
5f3ac1732efa0a74f975b1a8,SCN,2024-06-21_13h46.58.335,LearnStrategy,2023.2.3,Win32,59.88023952,,,,,,,,,,,6,09,1,7,,,,,,,,,,,,,,,,,,,,,,,,,,,,,
5f3ac1732efa0a74f975b1a8,SCN,2024-06-21_13h46.58.335,LearnStrategy,2023.2.3,Win32,59.88023952,,,,,,,,,,,3,13,1,8,,,,,,,,,,,,,,,,,,,,,,,,,,,,,
5f3ac1732efa0a74f975b1a8,SCN,2024-06-21_13h46.58.335,LearnStrategy,2023.2.3,Win32,59.88023952,,,,,,,,,,,6,06,2,1,,,,,,,,,,,,,,,,,,,,,,,,,,,,,
5f3ac1732efa0a74f975b1a8,SCN,2024-06-21_13h46.58.335,LearnStrategy,2023.2.3,Win32,59.88023952,,,,,,,,,,,3,08,2,2,,,,,,,,,,,,,,,,,,,,,,,,,,,,,
5f3ac1732efa0a74f975b1a8,SCN,2024-06-21_13h46.58.335,LearnStrategy,2023.2.3,Win32,59.88023952,,,,,,,,,,,8,06,2,3,,,,,,,,,,,,,,,,,,,,,,,,,,,,,
5f3ac1732efa0a74f975b1a8,SCN,2024-06-21_13h46.58.335,LearnStrategy,2023.2.3,Win32,59.88023952,,,,,,,,,,,3,09,2,4,,,,,,,,,,,,,,,,,,,,,,,,,,,,,
5f3ac1732efa0a74f975b1a8,SCN,2024-06-21_13h46.58.335,LearnStrategy,2023.2.3,Win32,59.88023952,,,,,,,,,,,6,11,2,5,,,,,,,,,,,,,,,,,,,,,,,,,,,,,
5f3ac1732efa0a74f975b1a8,SCN,2024-06-21_13h46.58.335,LearnStrategy,2023.2.3,Win32,59.88023952,,,,,,,,,,,5,05,2,6,,,,,,,,,,,,,,,,,,,,,,,,,,,,,
5f3ac1732efa0a74f975b1a8,SCN,2024-06-21_13h46.58.335,LearnStrategy,2023.2.3,Win32,59.88023952,,,,,,,,,,,1,09,2,7,,,,,,,,,,,,,,,,,,,,,,,,,,,,,
5f3ac1732efa0a74f975b1a8,SCN,2024-06-21_13h46.58.335,LearnStrategy,2023.2.3,Win32,59.88023952,,,,,,,,,,,7,10,2,8,,,,,,,,,,,,,,,,,,,,,,,,,,,,,
5f3ac1732efa0a74f975b1a8,SCN,2024-06-21_13h46.58.335,LearnStrategy,2023.2.3,Win32,59.88023952,,,,,,,,,,,4,14,3,1,,,,,,,,,,,,,,,,,,,,,,,,,,,,,
5f3ac1732efa0a74f975b1a8,SCN,2024-06-21_13h46.58.335,LearnStrategy,2023.2.3,Win32,59.88023952,,,,,,,,,,,2,04,3,2,,,,,,,,,,,,,,,,,,,,,,,,,,,,,
5f3ac1732efa0a74f975b1a8,SCN,2024-06-21_13h46.58.335,LearnStrategy,2023.2.3,Win32,59.88023952,,,,,,,,,,,6,12,3,3,,,,,,,,,,,,,,,,,,,,,,,,,,,,,
5f3ac1732efa0a74f975b1a8,SCN,2024-06-21_13h46.58.335,LearnStrategy,2023.2.3,Win32,59.88023952,,,,,,,,,,,2,12,3,4,,,,,,,,,,,,,,,,,,,,,,,,,,,,,
5f3ac1732efa0a74f975b1a8,SCN,2024-06-21_13h46.58.335,LearnStrategy,2023.2.3,Win32,59.88023952,,,,,,,,,,,8,05,3,5,,,,,,,,,,,,,,,,,,,,,,,,,,,,,
5f3ac1732efa0a74f975b1a8,SCN,2024-06-21_13h46.58.335,LearnStrategy,2023.2.3,Win32,59.88023952,,,,,,,,,,,7,02,3,6,,,,,,,,,,,,,,,,,,,,,,,,,,,,,
5f3ac1732efa0a74f975b1a8,SCN,2024-06-21_13h46.58.335,LearnStrategy,2023.2.3,Win32,59.88023952,,,,,,,,,,,4,10,3,7,,,,,,,,,,,,,,,,,,,,,,,,,,,,,
5f3ac1732efa0a74f975b1a8,SCN,2024-06-21_13h46.58.335,LearnStrategy,2023.2.3,Win32,59.88023952,,,,,,,,,,,4,16,3,8,,,,,,,,,,,,,,,,,,,,,,,,,,,,,
5f3ac1732efa0a74f975b1a8,SCN,2024-06-21_13h46.58.335,LearnStrategy,2023.2.3,Win32,59.88023952,,,,,,,,,,,7,05,4,1,,,,,,,,,,,,,,,,,,,,,,,,,,,,,
5f3ac1732efa0a74f975b1a8,SCN,2024-06-21_13h46.58.335,LearnStrategy,2023.2.3,Win32,59.88023952,,,,,,,,,,,8,13,4,2,,,,,,,,,,,,,,,,,,,,,,,,,,,,,
5f3ac1732efa0a74f975b1a8,SCN,2024-06-21_13h46.58.335,LearnStrategy,2023.2.3,Win32,59.88023952,,,,,,,,,,,5,16,4,3,,,,,,,,,,,,,,,,,,,,,,,,,,,,,
5f3ac1732efa0a74f975b1a8,SCN,2024-06-21_13h46.58.335,LearnStrategy,2023.2.3,Win32,59.88023952,,,,,,,,,,,2,06,4,4,,,,,,,,,,,,,,,,,,,,,,,,,,,,,
5f3ac1732efa0a74f975b1a8,SCN,2024-06-21_13h46.58.335,LearnStrategy,2023.2.3,Win32,59.88023952,,,,,,,,,,,3,11,4,5,,,,,,,,,,,,,,,,,,,,,,,,,,,,,
5f3ac1732efa0a74f975b1a8,SCN,2024-06-21_13h46.58.335,LearnStrategy,2023.2.3,Win32,59.88023952,,,,,,,,,,,2,14,4,6,,,,,,,,,,,,,,,,,,,,,,,,,,,,,
5f3ac1732efa0a74f975b1a8,SCN,2024-06-21_13h46.58.335,LearnStrategy,2023.2.3,Win32,59.88023952,,,,,,,,,,,5,11,4,7,,,,,,,,,,,,,,,,,,,,,,,,,,,,,
5f3ac1732efa0a74f975b1a8,SCN,2024-06-21_13h46.58.335,LearnStrategy,2023.2.3,Win32,59.88023952,,,,,,,,,,,4,05,4,8,,,,,,,,,,,,,,,,,,,,,,,,,,,,,
5f3ac1732efa0a74f975b1a8,SCN,2024-06-21_13h46.58.335,LearnStrategy,2023.2.3,Win32,59.88023952,,,,,,,,,,,5,06,5,1,,,,,,,,,,,,,,,,,,,,,,,,,,,,,
5f3ac1732efa0a74f975b1a8,SCN,2024-06-21_13h46.58.335,LearnStrategy,2023.2.3,Win32,59.88023952,,,,,,,,,,,2,01,5,2,,,,,,,,,,,,,,,,,,,,,,,,,,,,,
5f3ac1732efa0a74f975b1a8,SCN,2024-06-21_13h46.58.335,LearnStrategy,2023.2.3,Win32,59.88023952,,,,,,,,,,,6,08,5,3,,,,,,,,,,,,,,,,,,,,,,,,,,,,,
5f3ac1732efa0a74f975b1a8,SCN,2024-06-21_13h46.58.335,LearnStrategy,2023.2.3,Win32,59.88023952,,,,,,,,,,,1,05,5,4,,,,,,,,,,,,,,,,,,,,,,,,,,,,,
5f3ac1732efa0a74f975b1a8,SCN,2024-06-21_13h46.58.335,LearnStrategy,2023.2.3,Win32,59.88023952,,,,,,,,,,,5,10,5,5,,,,,,,,,,,,,,,,,,,,,,,,,,,,,
5f3ac1732efa0a74f975b1a8,SCN,2024-06-21_13h46.58.335,LearnStrategy,2023.2.3,Win32,59.88023952,,,,,,,,,,,4,03,5,6,,,,,,,,,,,,,,,,,,,,,,,,,,,,,
5f3ac1732efa0a74f975b1a8,SCN,2024-06-21_13h46.58.335,LearnStrategy,2023.2.3,Win32,59.88023952,,,,,,,,,,,4,08,5,7,,,,,,,,,,,,,,,,,,,,,,,,,,,,,
5f3ac1732efa0a74f975b1a8,SCN,2024-06-21_13h46.58.335,LearnStrategy,2023.2.3,Win32,59.88023952,,,,,,,,,,,7,06,5,8,,,,,,,,,,,,,,,,,,,,,,,,,,,,,
5f3ac1732efa0a74f975b1a8,SCN,2024-06-21_13h46.58.335,LearnStrategy,2023.2.3,Win32,59.88023952,,,,,,,,,,,2,11,6,1,,,,,,,,,,,,,,,,,,,,,,,,,,,,,
5f3ac1732efa0a74f975b1a8,SCN,2024-06-21_13h46.58.335,LearnStrategy,2023.2.3,Win32,59.88023952,,,,,,,,,,,8,14,6,2,,,,,,,,,,,,,,,,,,,,,,,,,,,,,
5f3ac1732efa0a74f975b1a8,SCN,2024-06-21_13h46.58.335,LearnStrategy,2023.2.3,Win32,59.88023952,,,,,,,,,,,5,04,6,3,,,,,,,,,,,,,,,,,,,,,,,,,,,,,
5f3ac1732efa0a74f975b1a8,SCN,2024-06-21_13h46.58.335,LearnStrategy,2023.2.3,Win32,59.88023952,,,,,,,,,,,7,14,6,4,,,,,,,,,,,,,,,,,,,,,,,,,,,,,
5f3ac1732efa0a74f975b1a8,SCN,2024-06-21_13h46.58.335,LearnStrategy,2023.2.3,Win32,59.88023952,,,,,,,,,,,7,16,6,5,,,,,,,,,,,,,,,,,,,,,,,,,,,,,
5f3ac1732efa0a74f975b1a8,SCN,2024-06-21_13h46.58.335,LearnStrategy,2023.2.3,Win32,59.88023952,,,,,,,,,,,8,03,6,6,,,,,,,,,,,,,,,,,,,,,,,,,,,,,
5f3ac1732efa0a74f975b1a8,SCN,2024-06-21_13h46.58.335,LearnStrategy,2023.2.3,Win32,59.88023952,,,,,,,,,,,6,03,6,7,,,,,,,,,,,,,,,,,,,,,,,,,,,,,
5f3ac1732efa0a74f975b1a8,SCN,2024-06-21_13h46.58.335,LearnStrategy,2023.2.3,Win32,59.88023952,,,,,,,,,,,3,12,6,8,,,,,,,,,,,,,,,,,,,,,,,,,,,,,