participant,condition,date,expName,psychopyVersion,OS,frameRate,block,phase,trial,learn_mouse.x,learn_mouse.y,learn_mouse.leftButton,learn_mouse.midButton,learn_mouse.rightButton,learn_mouse.time,learn_mouse.clicked_name,cat,token,row,col,t_select,cat_mouse_l.x,cat_mouse_l.y,cat_mouse_l.leftButton,cat_mouse_l.midButton,cat_mouse_l.rightButton,cat_mouse_l.time,cat_mouse_l.clicked_name,resp,t_resp,corr,train_trials.thisRepN,train_trials.thisTrialN,train_trials.thisN,train_trials.thisIndex,train_trials.ran,cat_mouse_t.x,cat_mouse_t.y,cat_mouse_t.leftButton,cat_mouse_t.midButton,cat_mouse_t.rightButton,cat_mouse_t.time,cat_mouse_t.clicked_name,test_trials.thisRepN,test_trials.thisTrialN,test_trials.thisN,test_trials.thisIndex,test_trials.ran
5f57120cba207c18f058a62b,SCN,2024-06-10_15h11.22.586,LearnStrategy,2023.2.3,Linux x86_64,59.88023952,,,,,,,,,,,,,,,,,,,,,,,,,,,,,,,,,,,,,,,,,,
5f57120cba207c18f058a62b,SCN,2024-06-10_15h11.22.586,LearnStrategy,2023.2.3,Linux x86_64,59.88023952,1,1,1,-0.358898799,0.391938104,1,0,0,9.2371,Peridotite_13,7,13,6,2,9.237,0.186056985,-0.391635965,1,0,0,8.0675,Peridotite_rect,7,8.067,1,0,0,0,0,1,,,,,,,,,,,,
5f57120cba207c18f058a62b,SCN,2024-06-10_15h11.22.586,LearnStrategy,2023.2.3,Linux x86_64,59.88023952,1,1,2,0.083061148,0.068824415,1,0,0,10.0212,Diorite_12,3,12,4,5,10.021,-0.041839034,-0.264256159,1,0,0,10.5105,Basalt_rect,2,10.51,0,1,0,1,0,1,,,,,,,,,,,,
5f57120cba207c18f058a62b,SCN,2024-06-10_15h11.22.586,LearnStrategy,2023.2.3,Linux x86_64,59.88023952,1,1,3,0.536614736,0.080402763,1,0,0,6.9023,Pumice_08,8,08,4,8,6.902,0.413865125,-0.411967172,1,0,0,3.2963,Pumice_rect,8,3.296,1,2,0,2,0,1,,,,,,,,,,,,
5f57120cba207c18f058a62b,SCN,2024-06-10_15h11.22.586,LearnStrategy,2023.2.3,Linux x86_64,59.88023952,1,1,4,0.409000538,-0.437685295,1,0,0,12.2116,Diorite_14,3,14,1,7,12.212,-0.199827124,-0.257109395,1,0,0,11.172,Basalt_rect,2,11.172,0,3,0,3,0,1,,,,,,,,,,,,
5f57120cba207c18f058a62b,SCN,2024-06-10_15h11.22.586,LearnStrategy,2023.2.3,Linux x86_64,59.88023952,1,1,5,-0.421084934,-0.117472543,1,0,0,2.5484,Peridotite_15,7,15,3,2,2.548,0.146751051,-0.401539202,1,0,0,6.8033,Peridotite_rect,7,6.803,1,4,0,4,0,1,,,,,,,,,,,,
5f57120cba207c18f058a62b,SCN,2024-06-10_15h11.22.586,LearnStrategy,2023.2.3,Linux x86_64,59.88023952,1,1,6,0.601627067,-0.102560043,1,0,0,4.2267,Obsidian_06,5,06,3,8,4.227,-0.414649151,-0.39326696,1,0,0,4.6383,Obsidian_rect,5,4.638,1,5,0,5,0,1,,,,,,,,,,,,
5f57120cba207c18f058a62b,SCN,2024-06-10_15h11.22.586,LearnStrategy,2023.2.3,Linux x86_64,59.88023952,1,1,7,0.215034202,-0.40987375,1,0,0,5.6698,Peridotite_16,7,16,1,6,5.67,0.349527995,-0.244934011,1,0,0,4.7258,Gabbro_rect,4,4.726,0,6,0,6,0,1,,,,,,,,,,,,
5f57120cba207c18f058a62b,SCN,2024-06-10_15h11.22.586,LearnStrategy,2023.2.3,Linux x86_64,59.88023952,1,1,8,-0.099763446,0.237039513,1,0,0,1.6573,Basalt_16,2,16,5,4,1.657,0.42626939,-0.24968663,1,0,0,5.9171,Gabbro_rect,4,5.917,0,7,0,7,0,1,,,,,,,,,,,,
5f57120cba207c18f058a62b,SCN,2024-06-10_15h11.22.586,LearnStrategy,2023.2.3,Linux x86_64,59.88023952,1,1,9,0.099813532,0.401138191,1,0,0,3.8117,Peridotite_10,7,10,6,5,3.812,0.157811271,-0.408015428,1,0,0,3.9733,Peridotite_rect,7,3.973,1,8,0,8,0,1,,,,,,,,,,,,
5f57120cba207c18f058a62b,SCN,2024-06-10_15h11.22.586,LearnStrategy,2023.2.3,Linux x86_64,59.88023952,1,1,10,0.371252978,-0.270180667,1,0,0,3.6375,Pegmatite_13,6,13,2,7,3.637,-0.112133167,-0.389627245,1,0,0,4.8811,Pegmatite_rect,6,4.881,1,9,0,9,0,1,,,,,,,,,,,,
5f57120cba207c18f058a62b,SCN,2024-06-10_15h11.22.586,LearnStrategy,2023.2.3,Linux x86_64,59.88023952,1,1,11,-0.519829467,-0.094825109,1,0,0,2.5684,Peridotite_05,7,05,3,1,2.568,0.156812527,-0.400638368,1,0,0,2.6995,Peridotite_rect,7,2.699,1,10,0,10,0,1,,,,,,,,,,,,
5f57120cba207c18f058a62b,SCN,2024-06-10_15h11.22.586,LearnStrategy,2023.2.3,Linux x86_64,59.88023952,1,1,12,0.351887032,0.234555297,1,0,0,2.0996,Diorite_07,3,07,5,7,2.1,-0.058877662,-0.25603365,1,0,0,2.9618,Basalt_rect,2,2.962,0,11,0,11,0,1,,,,,,,,,,,,
5f57120cba207c18f058a62b,SCN,2024-06-10_15h11.22.586,LearnStrategy,2023.2.3,Linux x86_64,59.88023952,1,1,13,0.595237308,-0.41215282,1,0,0,2.7461,Pegmatite_08,6,08,1,8,2.746,-0.123918816,-0.416749389,1,0,0,6.1924,Pegmatite_rect,6,6.192,1,12,0,12,0,1,,,,,,,,,,,,
5f57120cba207c18f058a62b,SCN,2024-06-10_15h11.22.586,LearnStrategy,2023.2.3,Linux x86_64,59.88023952,1,1,14,0.508144096,0.404341777,1,0,0,5.6372,Obsidian_08,5,08,6,8,5.637,0.406530168,-0.248283598,1,0,0,2.0054,Gabbro_rect,4,2.005,0,13,0,13,0,1,,,,,,,,,,,,
5f57120cba207c18f058a62b,SCN,2024-06-10_15h11.22.586,LearnStrategy,2023.2.3,Linux x86_64,59.88023952,1,1,15,-0.545108018,-0.392292235,1,0,0,5.652,Obsidian_05,5,05,1,1,5.652,-0.387238008,-0.394806049,1,0,0,2.3221,Obsidian_rect,5,2.322,1,14,0,14,0,1,,,,,,,,,,,,
5f57120cba207c18f058a62b,SCN,2024-06-10_15h11.22.586,LearnStrategy,2023.2.3,Linux x86_64,59.88023952,1,1,16,-0.5304392,-0.122112839,1,0,0,2.8779,Peridotite_05,7,05,3,1,2.878,0.130032928,-0.399881928,1,0,0,1.7843,Peridotite_rect,7,1.784,1,15,0,15,0,1,,,,,,,,,,,,
5f57120cba207c18f058a62b,SCN,2024-06-10_15h11.22.586,LearnStrategy,2023.2.3,Linux x86_64,59.88023952,1,2,1,,,,,,,,7,02,,,,,,,,,,,7,2.85,1,,,,,,0.201979814,-0.398456079,1,0,0,2.8496,Peridotite_rect,0,0,0,0,1
5f57120cba207c18f058a62b,SCN,2024-06-10_15h11.22.586,LearnStrategy,2023.2.3,Linux x86_64,59.88023952,1,2,2,,,,,,,,5,07,,,,,,,,,,,5,3.459,1,,,,,,-0.39359672,-0.385135227,1,0,0,3.4586,Obsidian_rect,1,0,1,0,1
5f57120cba207c18f058a62b,SCN,2024-06-10_15h11.22.586,LearnStrategy,2023.2.3,Linux x86_64,59.88023952,1,2,3,,,,,,,,1,10,,,,,,,,,,,8,2.905,0,,,,,,0.380991053,-0.388768655,1,0,0,2.9051,Pumice_rect,2,0,2,0,1
5f57120cba207c18f058a62b,SCN,2024-06-10_15h11.22.586,LearnStrategy,2023.2.3,Linux x86_64,59.88023952,1,2,4,,,,,,,,4,03,,,,,,,,,,,2,3.477,0,,,,,,-0.071214817,-0.247510769,1,0,0,3.477,Basalt_rect,3,0,3,0,1
5f57120cba207c18f058a62b,SCN,2024-06-10_15h11.22.586,LearnStrategy,2023.2.3,Linux x86_64,59.88023952,1,2,5,,,,,,,,1,03,,,,,,,,,,,1,3.511,1,,,,,,-0.304301827,-0.264033,1,0,0,3.511,Andesite_rect,4,0,4,0,1
5f57120cba207c18f058a62b,SCN,2024-06-10_15h11.22.586,LearnStrategy,2023.2.3,Linux x86_64,59.88023952,1,2,6,,,,,,,,8,16,,,,,,,,,,,8,1.804,1,,,,,,0.343726547,-0.396399039,1,0,0,1.8044,Pumice_rect,5,0,5,0,1
5f57120cba207c18f058a62b,SCN,2024-06-10_15h11.22.586,LearnStrategy,2023.2.3,Linux x86_64,59.88023952,1,2,7,,,,,,,,6,16,,,,,,,,,,,6,3.909,1,,,,,,-0.116966318,-0.413764318,1,0,0,3.9086,Pegmatite_rect,6,0,6,0,1
5f57120cba207c18f058a62b,SCN,2024-06-10_15h11.22.586,LearnStrategy,2023.2.3,Linux x86_64,59.88023952,1,2,8,,,,,,,,7,14,,,,,,,,,,,7,2.462,1,,,,,,0.113563608,-0.382400513,1,0,0,2.4623,Peridotite_rect,7,0,7,0,1
5f57120cba207c18f058a62b,SCN,2024-06-10_15h11.22.586,LearnStrategy,2023.2.3,Linux x86_64,59.88023952,1,2,9,,,,,,,,5,12,,,,,,,,,,,5,2.494,1,,,,,,-0.319891859,-0.382762132,1,0,0,2.4938,Obsidian_rect,8,0,8,0,1
5f57120cba207c18f058a62b,SCN,2024-06-10_15h11.22.586,LearnStrategy,2023.2.3,Linux x86_64,59.88023952,1,2,10,,,,,,,,2,05,,,,,,,,,,,4,8.182,0,,,,,,0.347800502,-0.263424838,1,0,0,8.1819,Gabbro_rect,9,0,9,0,1
5f57120cba207c18f058a62b,SCN,2024-06-10_15h11.22.586,LearnStrategy,2023.2.3,Linux x86_64,59.88023952,1,2,11,,,,,,,,6,07,,,,,,,,,,,6,2.658,1,,,,,,-0.164985021,-0.401243916,1,0,0,2.6584,Pegmatite_rect,10,0,10,0,1
5f57120cba207c18f058a62b,SCN,2024-06-10_15h11.22.586,LearnStrategy,2023.2.3,Linux x86_64,59.88023952,1,2,12,,,,,,,,8,03,,,,,,,,,,,8,5.478,1,,,,,,0.363733786,-0.406414668,1,0,0,5.4779,Pumice_rect,11,0,11,0,1
5f57120cba207c18f058a62b,SCN,2024-06-10_15h11.22.586,LearnStrategy,2023.2.3,Linux x86_64,59.88023952,1,2,13,,,,,,,,3,02,,,,,,,,,,,6,3.215,0,,,,,,-0.08076696,-0.395750328,1,0,0,3.2152,Pegmatite_rect,12,0,12,0,1
5f57120cba207c18f058a62b,SCN,2024-06-10_15h11.22.586,LearnStrategy,2023.2.3,Linux x86_64,59.88023952,1,2,14,,,,,,,,2,01,,,,,,,,,,,1,2.439,0,,,,,,-0.346733305,-0.247717045,1,0,0,2.4395,Andesite_rect,13,0,13,0,1
5f57120cba207c18f058a62b,SCN,2024-06-10_15h11.22.586,LearnStrategy,2023.2.3,Linux x86_64,59.88023952,1,2,15,,,,,,,,3,06,,,,,,,,,,,3,3.209,1,,,,,,0.154616391,-0.244526051,1,0,0,3.2091,Diorite_rect,14,0,14,0,1
5f57120cba207c18f058a62b,SCN,2024-06-10_15h11.22.586,LearnStrategy,2023.2.3,Linux x86_64,59.88023952,1,2,16,,,,,,,,4,16,,,,,,,,,,,4,3.671,1,,,,,,0.407950931,-0.255323905,1,0,0,3.6715,Gabbro_rect,15,0,15,0,1
5f57120cba207c18f058a62b,SCN,2024-06-10_15h11.22.586,LearnStrategy,2023.2.3,Linux x86_64,59.88023952,2,1,1,-0.36385621,-0.376648444,1,0,0,25.4673,Pumice_06,8,06,1,2,25.467,0.359617304,-0.403562122,1,0,0,1.5135,Pumice_rect,8,1.514,1,0,0,0,0,1,,,,,,,,,,,,
5f57120cba207c18f058a62b,SCN,2024-06-10_15h11.22.586,LearnStrategy,2023.2.3,Linux x86_64,59.88023952,2,1,2,-0.378058186,-0.229083662,1,0,0,1.8469,Diorite_15,3,15,2,2,1.847,-0.047086433,-0.244262625,1,0,0,4.2381,Basalt_rect,2,4.238,0,1,0,1,0,1,,,,,,,,,,,,
5f57120cba207c18f058a62b,SCN,2024-06-10_15h11.22.586,LearnStrategy,2023.2.3,Linux x86_64,59.88023952,2,1,3,-0.218613307,-0.234589188,1,0,0,1.4185,Andesite_07,1,07,2,3,1.418,-0.353319557,-0.259750507,1,0,0,3.3498,Andesite_rect,1,3.35,1,2,0,2,0,1,,,,,,,,,,,,
5f57120cba207c18f058a62b,SCN,2024-06-10_15h11.22.586,LearnStrategy,2023.2.3,Linux x86_64,59.88023952,2,1,4,-0.07218587,-0.268163045,1,0,0,2.2673,Diorite_10,3,10,2,4,2.267,0.174375746,-0.416690049,1,0,0,2.4492,Peridotite_rect,7,2.449,0,3,0,3,0,1,,,,,,,,,,,,
5f57120cba207c18f058a62b,SCN,2024-06-10_15h11.22.586,LearnStrategy,2023.2.3,Linux x86_64,59.88023952,2,1,5,0.111624965,-0.277542821,1,0,0,1.6212,Basalt_12,2,12,2,5,1.621,0.4275524,-0.38969704,1,0,0,1.8472,Pumice_rect,8,1.847,0,4,0,4,0,1,,,,,,,,,,,,
5f57120cba207c18f058a62b,SCN,2024-06-10_15h11.22.586,LearnStrategy,2023.2.3,Linux x86_64,59.88023952,2,1,6,0.24426319,-0.24438639,1,0,0,2.0322,Andesite_06,1,06,2,6,2.032,-0.370188572,-0.271979791,1,0,0,4.5375,Andesite_rect,1,4.538,1,5,0,5,0,1,,,,,,,,,,,,
5f57120cba207c18f058a62b,SCN,2024-06-10_15h11.22.586,LearnStrategy,2023.2.3,Linux x86_64,59.88023952,2,1,7,0.402668564,-0.242458202,1,0,0,1.4054,Pegmatite_13,6,13,2,7,1.405,-0.11305696,-0.409171493,1,0,0,2.2844,Pegmatite_rect,6,2.284,1,6,0,6,0,1,,,,,,,,,,,,
5f57120cba207c18f058a62b,SCN,2024-06-10_15h11.22.586,LearnStrategy,2023.2.3,Linux x86_64,59.88023952,2,1,8,0.541208197,-0.264791065,1,0,0,1.3027,Basalt_10,2,10,2,8,1.303,0.407738015,-0.263255508,1,0,0,2.8731,Gabbro_rect,4,2.873,0,7,0,7,0,1,,,,,,,,,,,,
5f57120cba207c18f058a62b,SCN,2024-06-10_15h11.22.586,LearnStrategy,2023.2.3,Linux x86_64,59.88023952,2,1,9,0.394544813,0.071140678,1,0,0,3.4722,Basalt_04,2,04,4,7,3.472,-0.220612773,-0.263025566,1,0,0,1.5398,Basalt_rect,2,1.54,1,8,0,8,0,1,,,,,,,,,,,,
5f57120cba207c18f058a62b,SCN,2024-06-10_15h11.22.586,LearnStrategy,2023.2.3,Linux x86_64,59.88023952,2,1,10,-0.380374379,0.094301118,1,0,0,1.457,Basalt_06,2,06,4,2,1.457,-0.143911079,-0.249310458,1,0,0,1.0866,Basalt_rect,2,1.087,1,9,0,9,0,1,,,,,,,,,,,,
5f57120cba207c18f058a62b,SCN,2024-06-10_15h11.22.586,LearnStrategy,2023.2.3,Linux x86_64,59.88023952,2,1,11,-0.058581105,0.247144293,1,0,0,4.8434,Basalt_16,2,16,5,4,4.843,0.498336509,-0.248216205,1,0,0,5.6362,Gabbro_rect,4,5.636,0,10,0,10,0,1,,,,,,,,,,,,
5f57120cba207c18f058a62b,SCN,2024-06-10_15h11.22.586,LearnStrategy,2023.2.3,Linux x86_64,59.88023952,2,1,12,0.553317882,0.274774357,1,0,0,2.1386,Pegmatite_05,6,05,5,8,2.139,-0.073939924,-0.396947719,1,0,0,1.8325,Pegmatite_rect,6,1.832,1,11,0,11,0,1,,,,,,,,,,,,
5f57120cba207c18f058a62b,SCN,2024-06-10_15h11.22.586,LearnStrategy,2023.2.3,Linux x86_64,59.88023952,2,1,13,0.398480875,-0.431831642,1,0,0,3.1017,Diorite_14,3,14,1,7,3.102,0.171574275,-0.271287282,1,0,0,1.1958,Diorite_rect,3,1.196,1,12,0,12,0,1,,,,,,,,,,,,
5f57120cba207c18f058a62b,SCN,2024-06-10_15h11.22.586,LearnStrategy,2023.2.3,Linux x86_64,59.88023952,2,1,14,0.067256433,0.084061835,1,0,0,6.2252,Diorite_12,3,12,4,5,6.225,0.034883358,-0.251371313,1,0,0,4.5192,Diorite_rect,3,4.519,1,13,0,13,0,1,,,,,,,,,,,,
5f57120cba207c18f058a62b,SCN,2024-06-10_15h11.22.586,LearnStrategy,2023.2.3,Linux x86_64,59.88023952,2,1,15,0.242058436,0.398518068,1,0,0,2.7211,Pegmatite_12,6,12,6,6,2.721,-0.089056368,-0.394767832,1,0,0,1.8009,Pegmatite_rect,6,1.801,1,14,0,14,0,1,,,,,,,,,,,,
5f57120cba207c18f058a62b,SCN,2024-06-10_15h11.22.586,LearnStrategy,2023.2.3,Linux x86_64,59.88023952,2,1,16,-0.108243095,0.400615886,1,0,0,1.7458,Gabbro_10,4,10,6,4,1.746,-0.348902031,-0.248095477,1,0,0,8.2251,Andesite_rect,1,8.225,0,15,0,15,0,1,,,,,,,,,,,,
5f57120cba207c18f058a62b,SCN,2024-06-10_15h11.22.586,LearnStrategy,2023.2.3,Linux x86_64,59.88023952,2,2,1,,,,,,,,6,15,,,,,,,,,,,6,5.902,1,,,,,,-0.071029663,-0.397199207,1,0,0,5.9022,Pegmatite_rect,0,0,0,0,1
5f57120cba207c18f058a62b,SCN,2024-06-10_15h11.22.586,LearnStrategy,2023.2.3,Linux x86_64,59.88023952,2,2,2,,,,,,,,7,07,,,,,,,,,,,7,2.117,1,,,,,,0.135718946,-0.405420939,1,0,0,2.1175,Peridotite_rect,1,0,1,0,1
5f57120cba207c18f058a62b,SCN,2024-06-10_15h11.22.586,LearnStrategy,2023.2.3,Linux x86_64,59.88023952,2,2,3,,,,,,,,6,06,,,,,,,,,,,4,7.956,0,,,,,,0.342921928,-0.255466673,1,0,0,7.9557,Gabbro_rect,2,0,2,0,1
5f57120cba207c18f058a62b,SCN,2024-06-10_15h11.22.586,LearnStrategy,2023.2.3,Linux x86_64,59.88023952,2,2,4,,,,,,,,4,15,,,,,,,,,,,4,3.943,1,,,,,,0.330644254,-0.235084604,1,0,0,3.9434,Gabbro_rect,3,0,3,0,1
5f57120cba207c18f058a62b,SCN,2024-06-10_15h11.22.586,LearnStrategy,2023.2.3,Linux x86_64,59.88023952,2,2,5,,,,,,,,8,05,,,,,,,,,,,8,1.259,1,,,,,,0.362694917,-0.412287182,1,0,0,1.2585,Pumice_rect,4,0,4,0,1
5f57120cba207c18f058a62b,SCN,2024-06-10_15h11.22.586,LearnStrategy,2023.2.3,Linux x86_64,59.88023952,2,2,6,,,,,,,,5,02,,,,,,,,,,,5,1.56,1,,,,,,-0.395752412,-0.406894896,1,0,0,1.5602,Obsidian_rect,5,0,5,0,1
5f57120cba207c18f058a62b,SCN,2024-06-10_15h11.22.586,LearnStrategy,2023.2.3,Linux x86_64,59.88023952,2,2,7,,,,,,,,2,11,,,,,,,,,,,8,3.396,0,,,,,,0.360982118,-0.390556547,1,0,0,3.3958,Pumice_rect,6,0,6,0,1
5f57120cba207c18f058a62b,SCN,2024-06-10_15h11.22.586,LearnStrategy,2023.2.3,Linux x86_64,59.88023952,2,2,8,,,,,,,,1,16,,,,,,,,,,,1,7.429,1,,,,,,-0.369207206,-0.236840354,1,0,0,7.4294,Andesite_rect,7,0,7,0,1
5f57120cba207c18f058a62b,SCN,2024-06-10_15h11.22.586,LearnStrategy,2023.2.3,Linux x86_64,59.88023952,2,2,9,,,,,,,,7,12,,,,,,,,,,,7,1.506,1,,,,,,0.151858294,-0.391720807,1,0,0,1.5061,Peridotite_rect,8,0,8,0,1
5f57120cba207c18f058a62b,SCN,2024-06-10_15h11.22.586,LearnStrategy,2023.2.3,Linux x86_64,59.88023952,2,2,10,,,,,,,,5,10,,,,,,,,,,,5,2.489,1,,,,,,-0.346785121,-0.378168813,1,0,0,2.4893,Obsidian_rect,9,0,9,0,1
5f57120cba207c18f058a62b,SCN,2024-06-10_15h11.22.586,LearnStrategy,2023.2.3,Linux x86_64,59.88023952,2,2,11,,,,,,,,2,14,,,,,,,,,,,8,2.768,0,,,,,,0.437497598,-0.418949763,1,0,0,2.7679,Pumice_rect,10,0,10,0,1
5f57120cba207c18f058a62b,SCN,2024-06-10_15h11.22.586,LearnStrategy,2023.2.3,Linux x86_64,59.88023952,2,2,12,,,,,,,,8,02,,,,,,,,,,,8,1.614,1,,,,,,0.377205036,-0.383596138,1,0,0,1.6139,Pumice_rect,11,0,11,0,1
5f57120cba207c18f058a62b,SCN,2024-06-10_15h11.22.586,LearnStrategy,2023.2.3,Linux x86_64,59.88023952,2,2,13,,,,,,,,1,11,,,,,,,,,,,3,10.592,0,,,,,,0.051762263,-0.256172816,1,0,0,10.592,Diorite_rect,12,0,12,0,1
5f57120cba207c18f058a62b,SCN,2024-06-10_15h11.22.586,LearnStrategy,2023.2.3,Linux x86_64,59.88023952,2,2,14,,,,,,,,3,11,,,,,,,,,,,7,3.265,0,,,,,,0.111429073,-0.40482408,1,0,0,3.2646,Peridotite_rect,13,0,13,0,1
5f57120cba207c18f058a62b,SCN,2024-06-10_15h11.22.586,LearnStrategy,2023.2.3,Linux x86_64,59.88023952,2,2,15,,,,,,,,4,11,,,,,,,,,,,7,2.716,0,,,,,,0.148223241,-0.397424274,1,0,0,2.7164,Peridotite_rect,14,0,14,0,1
5f57120cba207c18f058a62b,SCN,2024-06-10_15h11.22.586,LearnStrategy,2023.2.3,Linux x86_64,59.88023952,2,2,16,,,,,,,,3,08,,,,,,,,,,,6,2.053,0,,,,,,-0.132570832,-0.410082711,1,0,0,2.0532,Pegmatite_rect,15,0,15,0,1
5f57120cba207c18f058a62b,SCN,2024-06-10_15h11.22.586,LearnStrategy,2023.2.3,Linux x86_64,59.88023952,3,1,1,-0.545325103,-0.441267932,1,0,0,4.5507,Obsidian_05,5,05,1,1,4.551,-0.148100959,-0.386615824,1,0,0,2.4447,Pegmatite_rect,6,2.445,0,0,0,0,0,1,,,,,,,,,,,,
5f57120cba207c18f058a62b,SCN,2024-06-10_15h11.22.586,LearnStrategy,2023.2.3,Linux x86_64,59.88023952,3,1,2,-0.564906262,-0.262275555,1,0,0,1.1237,Andesite_09,1,09,2,1,1.124,-0.420341668,-0.257285436,1,0,0,2.4079,Andesite_rect,1,2.408,1,1,0,1,0,1,,,,,,,,,,,,
5f57120cba207c18f058a62b,SCN,2024-06-10_15h11.22.586,LearnStrategy,2023.2.3,Linux x86_64,59.88023952,3,1,3,-0.595686683,-0.146842957,1,0,0,1.4479,Peridotite_05,7,05,3,1,1.448,0.155281915,-0.397829903,1,0,0,1.9576,Peridotite_rect,7,1.958,1,2,0,2,0,1,,,,,,,,,,,,
5f57120cba207c18f058a62b,SCN,2024-06-10_15h11.22.586,LearnStrategy,2023.2.3,Linux x86_64,59.88023952,3,1,4,-0.576948131,0.115019374,1,0,0,1.3364,Andesite_04,1,04,4,1,1.336,0.192461579,-0.24149153,1,0,0,3.7557,Diorite_rect,3,3.756,0,3,0,3,0,1,,,,,,,,,,,,
5f57120cba207c18f058a62b,SCN,2024-06-10_15h11.22.586,LearnStrategy,2023.2.3,Linux x86_64,59.88023952,3,1,5,-0.535333104,0.2102875,1,0,0,1.4456,Pumice_09,8,09,5,1,1.446,0.330113022,-0.387095133,1,0,0,2.4791,Pumice_rect,8,2.479,1,4,0,4,0,1,,,,,,,,,,,,
5f57120cba207c18f058a62b,SCN,2024-06-10_15h11.22.586,LearnStrategy,2023.2.3,Linux x86_64,59.88023952,3,1,6,-0.529806949,0.401280447,1,0,0,1.841,Diorite_16,3,16,6,1,1.841,0.127498132,-0.237469073,1,0,0,1.8257,Diorite_rect,3,1.826,1,5,0,5,0,1,,,,,,,,,,,,
5f57120cba207c18f058a62b,SCN,2024-06-10_15h11.22.586,LearnStrategy,2023.2.3,Linux x86_64,59.88023952,3,1,7,-0.383514228,0.386704198,1,0,0,1.4138,Peridotite_13,7,13,6,2,1.414,0.154433003,-0.402470836,1,0,0,2.0516,Peridotite_rect,7,2.052,1,6,0,6,0,1,,,,,,,,,,,,
5f57120cba207c18f058a62b,SCN,2024-06-10_15h11.22.586,LearnStrategy,2023.2.3,Linux x86_64,59.88023952,3,1,8,-0.380898829,0.250562474,1,0,0,1.3528,Obsidian_16,5,16,5,2,1.353,-0.338124982,-0.409205048,1,0,0,2.8194,Obsidian_rect,5,2.819,1,7,0,7,0,1,,,,,,,,,,,,
5f57120cba207c18f058a62b,SCN,2024-06-10_15h11.22.586,LearnStrategy,2023.2.3,Linux x86_64,59.88023952,3,1,9,-0.432874927,0.123222952,1,0,0,1.184,Basalt_06,2,06,4,2,1.184,-0.103173786,-0.235551269,1,0,0,3.2261,Basalt_rect,2,3.226,1,8,0,8,0,1,,,,,,,,,,,,
5f57120cba207c18f058a62b,SCN,2024-06-10_15h11.22.586,LearnStrategy,2023.2.3,Linux x86_64,59.88023952,3,1,10,-0.397929192,-0.092918325,1,0,0,1.1043,Peridotite_15,7,15,3,2,1.104,0.104128944,-0.403248752,1,0,0,1.3714,Peridotite_rect,7,1.371,1,9,0,9,0,1,,,,,,,,,,,,
5f57120cba207c18f058a62b,SCN,2024-06-10_15h11.22.586,LearnStrategy,2023.2.3,Linux x86_64,59.88023952,3,1,11,-0.364502165,-0.241480509,1,0,0,0.9188,Diorite_15,3,15,2,2,0.919,0.361087375,-0.239778448,1,0,0,2.3841,Gabbro_rect,4,2.384,0,10,0,10,0,1,,,,,,,,,,,,
5f57120cba207c18f058a62b,SCN,2024-06-10_15h11.22.586,LearnStrategy,2023.2.3,Linux x86_64,59.88023952,3,1,12,-0.375821149,-0.429340504,1,0,0,2.4875,Pumice_06,8,06,1,2,2.488,0.458826277,-0.381097511,1,0,0,2.4767,Pumice_rect,8,2.477,1,11,0,11,0,1,,,,,,,,,,,,
5f57120cba207c18f058a62b,SCN,2024-06-10_15h11.22.586,LearnStrategy,2023.2.3,Linux x86_64,59.88023952,3,1,13,-0.244822467,0.402612298,1,0,0,3.1174,Andesite_02,1,02,6,3,3.117,-0.335119777,-0.244655397,1,0,0,2.6277,Andesite_rect,1,2.628,1,12,0,12,0,1,,,,,,,,,,,,
5f57120cba207c18f058a62b,SCN,2024-06-10_15h11.22.586,LearnStrategy,2023.2.3,Linux x86_64,59.88023952,3,1,14,-0.244680193,0.271186228,1,0,0,1.2554,Basalt_08,2,08,5,3,1.255,-0.131408197,-0.251806118,1,0,0,2.3561,Basalt_rect,2,2.356,1,13,0,13,0,1,,,,,,,,,,,,
5f57120cba207c18f058a62b,SCN,2024-06-10_15h11.22.586,LearnStrategy,2023.2.3,Linux x86_64,59.88023952,3,1,15,-0.263345648,0.115301803,1,0,0,2.6474,Gabbro_05,4,05,4,3,2.647,0.100146823,-0.382183004,1,0,0,1.5738,Peridotite_rect,7,1.574,0,14,0,14,0,1,,,,,,,,,,,,
5f57120cba207c18f058a62b,SCN,2024-06-10_15h11.22.586,LearnStrategy,2023.2.3,Linux x86_64,59.88023952,3,1,16,-0.243864059,-0.086924694,1,0,0,1.1747,Obsidian_09,5,09,3,3,1.175,-0.405573633,-0.418512132,1,0,0,1.3371,Obsidian_rect,5,1.337,1,15,0,15,0,1,,,,,,,,,,,,
5f57120cba207c18f058a62b,SCN,2024-06-10_15h11.22.586,LearnStrategy,2023.2.3,Linux x86_64,59.88023952,3,2,1,,,,,,,,2,09,,,,,,,,,,,2,3.902,1,,,,,,-0.056258661,-0.233464488,1,0,0,3.9021,Basalt_rect,0,0,0,0,1
5f57120cba207c18f058a62b,SCN,2024-06-10_15h11.22.586,LearnStrategy,2023.2.3,Linux x86_64,59.88023952,3,2,2,,,,,,,,4,09,,,,,,,,,,,6,3.508,0,,,,,,-0.065728576,-0.390092355,1,0,0,3.5085,Pegmatite_rect,1,0,1,0,1
5f57120cba207c18f058a62b,SCN,2024-06-10_15h11.22.586,LearnStrategy,2023.2.3,Linux x86_64,59.88023952,3,2,3,,,,,,,,6,09,,,,,,,,,,,6,6.565,1,,,,,,-0.17915542,-0.411374057,1,0,0,6.5649,Pegmatite_rect,2,0,2,0,1
5f57120cba207c18f058a62b,SCN,2024-06-10_15h11.22.586,LearnStrategy,2023.2.3,Linux x86_64,59.88023952,3,2,4,,,,,,,,1,01,,,,,,,,,,,1,4.857,1,,,,,,-0.390428084,-0.242714211,1,0,0,4.8569,Andesite_rect,3,0,3,0,1
5f57120cba207c18f058a62b,SCN,2024-06-10_15h11.22.586,LearnStrategy,2023.2.3,Linux x86_64,59.88023952,3,2,5,,,,,,,,7,06,,,,,,,,,,,7,2.282,1,,,,,,0.174535257,-0.416987172,1,0,0,2.2823,Peridotite_rect,4,0,4,0,1
5f57120cba207c18f058a62b,SCN,2024-06-10_15h11.22.586,LearnStrategy,2023.2.3,Linux x86_64,59.88023952,3,2,6,,,,,,,,7,04,,,,,,,,,,,4,5.669,0,,,,,,0.422002015,-0.23646496,1,0,0,5.6694,Gabbro_rect,5,0,5,0,1
5f57120cba207c18f058a62b,SCN,2024-06-10_15h11.22.586,LearnStrategy,2023.2.3,Linux x86_64,59.88023952,3,2,7,,,,,,,,3,09,,,,,,,,,,,3,2.384,1,,,,,,0.072057088,-0.228265197,1,0,0,2.3838,Diorite_rect,6,0,6,0,1
5f57120cba207c18f058a62b,SCN,2024-06-10_15h11.22.586,LearnStrategy,2023.2.3,Linux x86_64,59.88023952,3,2,8,,,,,,,,5,14,,,,,,,,,,,5,1.776,1,,,,,,-0.329133775,-0.419005853,1,0,0,1.776,Obsidian_rect,7,0,7,0,1
5f57120cba207c18f058a62b,SCN,2024-06-10_15h11.22.586,LearnStrategy,2023.2.3,Linux x86_64,59.88023952,3,2,9,,,,,,,,6,11,,,,,,,,,,,6,5.664,1,,,,,,-0.125743089,-0.403098989,1,0,0,5.6643,Pegmatite_rect,8,0,8,0,1
5f57120cba207c18f058a62b,SCN,2024-06-10_15h11.22.586,LearnStrategy,2023.2.3,Linux x86_64,59.88023952,3,2,10,,,,,,,,2,02,,,,,,,,,,,2,6.117,1,,,,,,-0.077020574,-0.252044395,1,0,0,6.1166,Basalt_rect,9,0,9,0,1
5f57120cba207c18f058a62b,SCN,2024-06-10_15h11.22.586,LearnStrategy,2023.2.3,Linux x86_64,59.88023952,3,2,11,,,,,,,,5,11,,,,,,,,,,,5,1.258,1,,,,,,-0.317132561,-0.384765766,1,0,0,1.2584,Obsidian_rect,10,0,10,0,1
5f57120cba207c18f058a62b,SCN,2024-06-10_15h11.22.586,LearnStrategy,2023.2.3,Linux x86_64,59.88023952,3,2,12,,,,,,,,8,10,,,,,,,,,,,8,2.495,1,,,,,,0.440982253,-0.400433788,1,0,0,2.4948,Pumice_rect,11,0,11,0,1
5f57120cba207c18f058a62b,SCN,2024-06-10_15h11.22.586,LearnStrategy,2023.2.3,Linux x86_64,59.88023952,3,2,13,,,,,,,,3,13,,,,,,,,,,,3,4.177,1,,,,,,0.088135896,-0.23071395,1,0,0,4.1769,Diorite_rect,12,0,12,0,1
5f57120cba207c18f058a62b,SCN,2024-06-10_15h11.22.586,LearnStrategy,2023.2.3,Linux x86_64,59.88023952,3,2,14,,,,,,,,8,04,,,,,,,,,,,8,1.749,1,,,,,,0.362892292,-0.41660217,1,0,0,1.7486,Pumice_rect,13,0,13,0,1
5f57120cba207c18f058a62b,SCN,2024-06-10_15h11.22.586,LearnStrategy,2023.2.3,Linux x86_64,59.88023952,3,2,15,,,,,,,,4,08,,,,,,,,,,,7,5.307,0,,,,,,0.174558851,-0.383668334,1,0,0,5.3068,Peridotite_rect,14,0,14,0,1
5f57120cba207c18f058a62b,SCN,2024-06-10_15h11.22.586,LearnStrategy,2023.2.3,Linux x86_64,59.88023952,3,2,16,,,,,,,,1,05,,,,,,,,,,,1,4.467,1,,,,,,-0.404261589,-0.258127778,1,0,0,4.4673,Andesite_rect,15,0,15,0,1
5f57120cba207c18f058a62b,SCN,2024-06-10_15h11.22.586,LearnStrategy,2023.2.3,Linux x86_64,59.88023952,4,1,1,-0.222377989,-0.092024344,1,0,0,4.7621,Obsidian_09,5,09,3,3,4.762,-0.369202614,-0.39290414,1,0,0,1.1642,Obsidian_rect,5,1.164,1,0,0,0,0,1,,,,,,,,,,,,
5f57120cba207c18f058a62b,SCN,2024-06-10_15h11.22.586,LearnStrategy,2023.2.3,Linux x86_64,59.88023952,4,1,2,-0.219236091,-0.268999736,1,0,0,1.6115,Andesite_07,1,07,2,3,1.611,-0.457312866,-0.236846641,1,0,0,2.4851,Andesite_rect,1,2.485,1,1,0,1,0,1,,,,,,,,,,,,
5f57120cba207c18f058a62b,SCN,2024-06-10_15h11.22.586,LearnStrategy,2023.2.3,Linux x86_64,59.88023952,4,1,3,-0.252946712,-0.418949551,1,0,0,1.0027,Gabbro_12,4,12,1,3,1.003,-0.146739677,-0.251442733,1,0,0,1.034,Basalt_rect,2,1.034,0,2,0,2,0,1,,,,,,,,,,,,
5f57120cba207c18f058a62b,SCN,2024-06-10_15h11.22.586,LearnStrategy,2023.2.3,Linux x86_64,59.88023952,4,1,4,-0.087269606,0.373135602,1,0,0,1.8713,Gabbro_10,4,10,6,4,1.871,0.45111748,-0.256247626,1,0,0,2.5587,Gabbro_rect,4,2.559,1,3,0,3,0,1,,,,,,,,,,,,
5f57120cba207c18f058a62b,SCN,2024-06-10_15h11.22.586,LearnStrategy,2023.2.3,Linux x86_64,59.88023952,4,1,5,-0.08086035,0.266436453,1,0,0,1.0337,Basalt_16,2,16,5,4,1.034,-0.1052203,-0.257231253,1,0,0,2.4766,Basalt_rect,2,2.477,1,4,0,4,0,1,,,,,,,,,,,,
5f57120cba207c18f058a62b,SCN,2024-06-10_15h11.22.586,LearnStrategy,2023.2.3,Linux x86_64,59.88023952,4,1,6,-0.084462908,0.081899325,1,0,0,0.8736,Obsidian_04,5,04,4,4,0.874,-0.346489271,-0.389202189,1,0,0,1.5058,Obsidian_rect,5,1.506,1,5,0,5,0,1,,,,,,,,,,,,
5f57120cba207c18f058a62b,SCN,2024-06-10_15h11.22.586,LearnStrategy,2023.2.3,Linux x86_64,59.88023952,4,1,7,-0.064849783,-0.115011922,1,0,0,0.9017,Peridotite_08,7,08,3,4,0.902,0.143872084,-0.380427961,1,0,0,1.1783,Peridotite_rect,7,1.178,1,6,0,6,0,1,,,,,,,,,,,,
5f57120cba207c18f058a62b,SCN,2024-06-10_15h11.22.586,LearnStrategy,2023.2.3,Linux x86_64,59.88023952,4,1,8,-0.069170563,-0.286146588,1,0,0,0.9841,Diorite_10,3,10,2,4,0.984,0.114822388,-0.38055102,1,0,0,2.5686,Peridotite_rect,7,2.569,0,7,0,7,0,1,,,,,,,,,,,,
5f57120cba207c18f058a62b,SCN,2024-06-10_15h11.22.586,LearnStrategy,2023.2.3,Linux x86_64,59.88023952,4,1,9,-0.07099858,-0.419983405,1,0,0,1.5541,Pumice_15,8,15,1,4,1.554,0.353029463,-0.412748831,1,0,0,1.4208,Pumice_rect,8,1.421,1,8,0,8,0,1,,,,,,,,,,,,
5f57120cba207c18f058a62b,SCN,2024-06-10_15h11.22.586,LearnStrategy,2023.2.3,Linux x86_64,59.88023952,4,1,10,0.07460792,0.399197782,1,0,0,1.2405,Peridotite_10,7,10,6,5,1.241,0.137070409,-0.411728258,1,0,0,1.5542,Peridotite_rect,7,1.554,1,9,0,9,0,1,,,,,,,,,,,,
5f57120cba207c18f058a62b,SCN,2024-06-10_15h11.22.586,LearnStrategy,2023.2.3,Linux x86_64,59.88023952,4,1,11,0.07315452,0.230289653,1,0,0,1.1571,Pegmatite_03,6,03,5,5,1.157,0.157835572,-0.415649626,1,0,0,2.287,Peridotite_rect,7,2.287,0,10,0,10,0,1,,,,,,,,,,,,
5f57120cba207c18f058a62b,SCN,2024-06-10_15h11.22.586,LearnStrategy,2023.2.3,Linux x86_64,59.88023952,4,1,12,0.072042606,0.072946089,1,0,0,3.0387,Diorite_12,3,12,4,5,3.039,0.168101205,-0.270719811,1,0,0,3.3108,Diorite_rect,3,3.311,1,11,0,11,0,1,,,,,,,,,,,,
5f57120cba207c18f058a62b,SCN,2024-06-10_15h11.22.586,LearnStrategy,2023.2.3,Linux x86_64,59.88023952,4,1,13,0.048200183,-0.09791134,1,0,0,2.5191,Andesite_14,1,14,3,5,2.519,-0.111880338,-0.38953986,1,0,0,1.6247,Pegmatite_rect,6,1.625,0,12,0,12,0,1,,,,,,,,,,,,
5f57120cba207c18f058a62b,SCN,2024-06-10_15h11.22.586,LearnStrategy,2023.2.3,Linux x86_64,59.88023952,4,1,14,0.065398534,-0.255414821,1,0,0,1.3051,Basalt_12,2,12,2,5,1.305,0.430168858,-0.414300212,1,0,0,1.5381,Pumice_rect,8,1.538,0,13,0,13,0,1,,,,,,,,,,,,
5f57120cba207c18f058a62b,SCN,2024-06-10_15h11.22.586,LearnStrategy,2023.2.3,Linux x86_64,59.88023952,4,1,15,0.094323406,-0.404659413,1,0,0,0.979,Pegmatite_10,6,10,1,5,0.979,0.094490263,-0.406494635,1,0,0,1.0106,Peridotite_rect,7,1.011,0,14,0,14,0,1,,,,,,,,,,,,
5f57120cba207c18f058a62b,SCN,2024-06-10_15h11.22.586,LearnStrategy,2023.2.3,Linux x86_64,59.88023952,4,1,16,0.242128725,0.380320116,1,0,0,2.2193,Pegmatite_12,6,12,6,6,2.219,-0.120472873,-0.391965584,1,0,0,2.041,Pegmatite_rect,6,2.041,1,15,0,15,0,1,,,,,,,,,,,,
5f57120cba207c18f058a62b,SCN,2024-06-10_15h11.22.586,LearnStrategy,2023.2.3,Linux x86_64,59.88023952,4,2,1,,,,,,,,3,02,,,,,,,,,,,6,3.93,0,,,,,,-0.049774241,-0.407425704,1,0,0,3.9304,Pegmatite_rect,0,0,0,0,1
5f57120cba207c18f058a62b,SCN,2024-06-10_15h11.22.586,LearnStrategy,2023.2.3,Linux x86_64,59.88023952,4,2,2,,,,,,,,8,16,,,,,,,,,,,8,2.282,1,,,,,,0.384188475,-0.396274072,1,0,0,2.2819,Pumice_rect,1,0,1,0,1
5f57120cba207c18f058a62b,SCN,2024-06-10_15h11.22.586,LearnStrategy,2023.2.3,Linux x86_64,59.88023952,4,2,3,,,,,,,,7,06,,,,,,,,,,,7,3.553,1,,,,,,0.199440073,-0.396237479,1,0,0,3.5531,Peridotite_rect,2,0,2,0,1
5f57120cba207c18f058a62b,SCN,2024-06-10_15h11.22.586,LearnStrategy,2023.2.3,Linux x86_64,59.88023952,4,2,4,,,,,,,,4,08,,,,,,,,,,,4,3.643,1,,,,,,0.324477443,-0.269678398,1,0,0,3.6429,Gabbro_rect,3,0,3,0,1
5f57120cba207c18f058a62b,SCN,2024-06-10_15h11.22.586,LearnStrategy,2023.2.3,Linux x86_64,59.88023952,4,2,5,,,,,,,,8,03,,,,,,,,,,,8,1.242,1,,,,,,0.344843405,-0.401339001,1,0,0,1.2419,Pumice_rect,4,0,4,0,1
5f57120cba207c18f058a62b,SCN,2024-06-10_15h11.22.586,LearnStrategy,2023.2.3,Linux x86_64,59.88023952,4,2,6,,,,,,,,6,06,,,,,,,,,,,6,6.41,1,,,,,,-0.216411096,-0.387060377,1,0,0,6.4103,Pegmatite_rect,5,0,5,0,1
5f57120cba207c18f058a62b,SCN,2024-06-10_15h11.22.586,LearnStrategy,2023.2.3,Linux x86_64,59.88023952,4,2,7,,,,,,,,1,05,,,,,,,,,,,1,2.49,1,,,,,,-0.401359487,-0.257573799,1,0,0,2.4898,Andesite_rect,6,0,6,0,1
5f57120cba207c18f058a62b,SCN,2024-06-10_15h11.22.586,LearnStrategy,2023.2.3,Linux x86_64,59.88023952,4,2,8,,,,,,,,4,15,,,,,,,,,,,4,9.119,1,,,,,,0.347432878,-0.245262923,1,0,0,9.1194,Gabbro_rect,7,0,7,0,1
5f57120cba207c18f058a62b,SCN,2024-06-10_15h11.22.586,LearnStrategy,2023.2.3,Linux x86_64,59.88023952,4,2,9,,,,,,,,2,05,,,,,,,,,,,2,1.753,1,,,,,,-0.171576111,-0.236783346,1,0,0,1.7533,Basalt_rect,8,0,8,0,1
5f57120cba207c18f058a62b,SCN,2024-06-10_15h11.22.586,LearnStrategy,2023.2.3,Linux x86_64,59.88023952,4,2,10,,,,,,,,6,15,,,,,,,,,,,6,1.452,1,,,,,,-0.117688497,-0.402088518,1,0,0,1.4525,Pegmatite_rect,9,0,9,0,1
5f57120cba207c18f058a62b,SCN,2024-06-10_15h11.22.586,LearnStrategy,2023.2.3,Linux x86_64,59.88023952,4,2,11,,,,,,,,7,14,,,,,,,,,,,4,4.739,0,,,,,,0.364528939,-0.23380442,1,0,0,4.7394,Gabbro_rect,10,0,10,0,1
5f57120cba207c18f058a62b,SCN,2024-06-10_15h11.22.586,LearnStrategy,2023.2.3,Linux x86_64,59.88023952,4,2,12,,,,,,,,1,10,,,,,,,,,,,1,4.254,1,,,,,,-0.329294558,-0.241771557,1,0,0,4.2542,Andesite_rect,11,0,11,0,1
5f57120cba207c18f058a62b,SCN,2024-06-10_15h11.22.586,LearnStrategy,2023.2.3,Linux x86_64,59.88023952,4,2,13,,,,,,,,5,12,,,,,,,,,,,5,1.432,1,,,,,,-0.329827768,-0.397510599,1,0,0,1.4315,Obsidian_rect,12,0,12,0,1
5f57120cba207c18f058a62b,SCN,2024-06-10_15h11.22.586,LearnStrategy,2023.2.3,Linux x86_64,59.88023952,4,2,14,,,,,,,,3,11,,,,,,,,,,,3,3.153,1,,,,,,0.115669886,-0.242037667,1,0,0,3.1534,Diorite_rect,13,0,13,0,1
5f57120cba207c18f058a62b,SCN,2024-06-10_15h11.22.586,LearnStrategy,2023.2.3,Linux x86_64,59.88023952,4,2,15,,,,,,,,5,14,,,,,,,,,,,5,2.203,1,,,,,,-0.353606153,-0.395855515,1,0,0,2.2029,Obsidian_rect,14,0,14,0,1
5f57120cba207c18f058a62b,SCN,2024-06-10_15h11.22.586,LearnStrategy,2023.2.3,Linux x86_64,59.88023952,4,2,16,,,,,,,,2,01,,,,,,,,,,,2,1.813,1,,,,,,-0.135965065,-0.250604064,1,0,0,1.8135,Basalt_rect,15,0,15,0,1
5f57120cba207c18f058a62b,SCN,2024-06-10_15h11.22.586,LearnStrategy,2023.2.3,Linux x86_64,59.88023952,5,1,1,0.234334098,-0.108763589,1,0,0,6.3898,Gabbro_13,4,13,3,6,6.39,0.359784727,-0.254140359,1,0,0,2.2569,Gabbro_rect,4,2.257,1,0,0,0,0,1,,,,,,,,,,,,
5f57120cba207c18f058a62b,SCN,2024-06-10_15h11.22.586,LearnStrategy,2023.2.3,Linux x86_64,59.88023952,5,1,2,0.269329989,-0.289680693,1,0,0,1.78,Andesite_06,1,06,2,6,1.78,-0.38173725,-0.270361936,1,0,0,1.2765,Andesite_rect,1,1.277,1,1,0,1,0,1,,,,,,,,,,,,
5f57120cba207c18f058a62b,SCN,2024-06-10_15h11.22.586,LearnStrategy,2023.2.3,Linux x86_64,59.88023952,5,1,3,0.212474046,-0.394987318,1,0,0,1.2399,Peridotite_16,7,16,1,6,1.24,0.17636066,-0.393971973,1,0,0,1.0183,Peridotite_rect,7,1.018,1,2,0,2,0,1,,,,,,,,,,,,
5f57120cba207c18f058a62b,SCN,2024-06-10_15h11.22.586,LearnStrategy,2023.2.3,Linux x86_64,59.88023952,5,1,4,0.39988539,0.401976506,1,0,0,1.4172,Pumice_14,8,14,6,7,1.417,0.407308649,-0.396392469,1,0,0,1.4453,Pumice_rect,8,1.445,1,3,0,3,0,1,,,,,,,,,,,,
5f57120cba207c18f058a62b,SCN,2024-06-10_15h11.22.586,LearnStrategy,2023.2.3,Linux x86_64,59.88023952,5,1,5,0.415479024,0.26137073,1,0,0,0.9579,Diorite_07,3,07,5,7,0.958,-0.117455447,-0.40071332,1,0,0,3.8024,Pegmatite_rect,6,3.802,0,4,0,4,0,1,,,,,,,,,,,,
5f57120cba207c18f058a62b,SCN,2024-06-10_15h11.22.586,LearnStrategy,2023.2.3,Linux x86_64,59.88023952,5,1,6,0.442230083,0.132964417,1,0,0,1.0814,Basalt_04,2,04,4,7,1.081,-0.119813495,-0.243023625,1,0,0,1.3712,Basalt_rect,2,1.371,1,5,0,5,0,1,,,,,,,,,,,,
5f57120cba207c18f058a62b,SCN,2024-06-10_15h11.22.586,LearnStrategy,2023.2.3,Linux x86_64,59.88023952,5,1,7,0.380904586,-0.074110808,1,0,0,1.1958,Gabbro_14,4,14,3,7,1.196,0.354102382,-0.247038594,1,0,0,1.2818,Gabbro_rect,4,1.282,1,6,0,6,0,1,,,,,,,,,,,,
5f57120cba207c18f058a62b,SCN,2024-06-10_15h11.22.586,LearnStrategy,2023.2.3,Linux x86_64,59.88023952,5,1,8,0.441666638,-0.269113258,1,0,0,1.0739,Pegmatite_13,6,13,2,7,1.074,-0.107221321,-0.388909234,1,0,0,1.9283,Pegmatite_rect,6,1.928,1,7,0,7,0,1,,,,,,,,,,,,
5f57120cba207c18f058a62b,SCN,2024-06-10_15h11.22.586,LearnStrategy,2023.2.3,Linux x86_64,59.88023952,5,1,9,0.387446509,-0.412470782,1,0,0,1.153,Diorite_14,3,14,1,7,1.153,0.11528877,-0.266080856,1,0,0,2.3688,Diorite_rect,3,2.369,1,8,0,8,0,1,,,,,,,,,,,,
5f57120cba207c18f058a62b,SCN,2024-06-10_15h11.22.586,LearnStrategy,2023.2.3,Linux x86_64,59.88023952,5,1,10,0.538236124,0.396176983,1,0,0,1.569,Obsidian_08,5,08,6,8,1.569,-0.423890043,-0.406915877,1,0,0,1.8409,Obsidian_rect,5,1.841,1,9,0,9,0,1,,,,,,,,,,,,
5f57120cba207c18f058a62b,SCN,2024-06-10_15h11.22.586,LearnStrategy,2023.2.3,Linux x86_64,59.88023952,5,1,11,0.578235626,0.278362521,1,0,0,1.2564,Pegmatite_05,6,05,5,8,1.256,-0.113924168,-0.406115143,1,0,0,2.4842,Pegmatite_rect,6,2.484,1,10,0,10,0,1,,,,,,,,,,,,
5f57120cba207c18f058a62b,SCN,2024-06-10_15h11.22.586,LearnStrategy,2023.2.3,Linux x86_64,59.88023952,5,1,12,0.563039568,0.078255971,1,0,0,1.1183,Pumice_08,8,08,4,8,1.118,-0.095058865,-0.23804269,1,0,0,3.204,Basalt_rect,2,3.204,0,11,0,11,0,1,,,,,,,,,,,,
5f57120cba207c18f058a62b,SCN,2024-06-10_15h11.22.586,LearnStrategy,2023.2.3,Linux x86_64,59.88023952,5,1,13,0.563787955,-0.1156725,1,0,0,1.1524,Obsidian_06,5,06,3,8,1.152,-0.448094439,-0.391825853,1,0,0,1.9483,Obsidian_rect,5,1.948,1,12,0,12,0,1,,,,,,,,,,,,
5f57120cba207c18f058a62b,SCN,2024-06-10_15h11.22.586,LearnStrategy,2023.2.3,Linux x86_64,59.88023952,5,1,14,0.573443801,-0.28302334,1,0,0,1.4809,Basalt_10,2,10,2,8,1.481,-0.063965903,-0.246917513,1,0,0,1.5889,Basalt_rect,2,1.589,1,13,0,13,0,1,,,,,,,,,,,,
5f57120cba207c18f058a62b,SCN,2024-06-10_15h11.22.586,LearnStrategy,2023.2.3,Linux x86_64,59.88023952,5,1,15,0.527598346,-0.399995874,1,0,0,2.0755,Pegmatite_08,6,08,1,8,2.076,-0.192834854,-0.419453656,1,0,0,1.4703,Pegmatite_rect,6,1.47,1,14,0,14,0,1,,,,,,,,,,,,
5f57120cba207c18f058a62b,SCN,2024-06-10_15h11.22.586,LearnStrategy,2023.2.3,Linux x86_64,59.88023952,5,1,16,-0.562031075,0.403814722,1,0,0,2.9427,Diorite_16,3,16,6,1,2.943,-0.370117399,-0.239092933,1,0,0,2.4913,Andesite_rect,1,2.491,0,15,0,15,0,1,,,,,,,,,,,,
5f57120cba207c18f058a62b,SCN,2024-06-10_15h11.22.586,LearnStrategy,2023.2.3,Linux x86_64,59.88023952,5,2,1,,,,,,,,3,08,,,,,,,,,,,6,22.036,0,,,,,,-0.064527158,-0.408713659,1,0,0,22.0364,Pegmatite_rect,0,0,0,0,1
5f57120cba207c18f058a62b,SCN,2024-06-10_15h11.22.586,LearnStrategy,2023.2.3,Linux x86_64,59.88023952,5,2,2,,,,,,,,7,07,,,,,,,,,,,7,1.92,1,,,,,,0.148360994,-0.416543184,1,0,0,1.9205,Peridotite_rect,1,0,1,0,1
5f57120cba207c18f058a62b,SCN,2024-06-10_15h11.22.586,LearnStrategy,2023.2.3,Linux x86_64,59.88023952,5,2,3,,,,,,,,2,11,,,,,,,,,,,8,4.325,0,,,,,,0.433703952,-0.412233494,1,0,0,4.3253,Pumice_rect,2,0,2,0,1
5f57120cba207c18f058a62b,SCN,2024-06-10_15h11.22.586,LearnStrategy,2023.2.3,Linux x86_64,59.88023952,5,2,4,,,,,,,,8,02,,,,,,,,,,,8,2.371,1,,,,,,0.459413882,-0.406556518,1,0,0,2.3709,Pumice_rect,3,0,3,0,1
5f57120cba207c18f058a62b,SCN,2024-06-10_15h11.22.586,LearnStrategy,2023.2.3,Linux x86_64,59.88023952,5,2,5,,,,,,,,8,10,,,,,,,,,,,8,3.092,1,,,,,,0.457269598,-0.378948353,1,0,0,3.0922,Pumice_rect,4,0,4,0,1
5f57120cba207c18f058a62b,SCN,2024-06-10_15h11.22.586,LearnStrategy,2023.2.3,Linux x86_64,59.88023952,5,2,6,,,,,,,,6,16,,,,,,,,,,,6,2.003,1,,,,,,-0.130136066,-0.409714452,1,0,0,2.0027,Pegmatite_rect,5,0,5,0,1
5f57120cba207c18f058a62b,SCN,2024-06-10_15h11.22.586,LearnStrategy,2023.2.3,Linux x86_64,59.88023952,5,2,7,,,,,,,,5,11,,,,,,,,,,,5,1.423,1,,,,,,-0.424994327,-0.404424173,1,0,0,1.4231,Obsidian_rect,6,0,6,0,1
5f57120cba207c18f058a62b,SCN,2024-06-10_15h11.22.586,LearnStrategy,2023.2.3,Linux x86_64,59.88023952,5,2,8,,,,,,,,4,03,,,,,,,,,,,1,5.971,0,,,,,,-0.344282645,-0.231658724,1,0,0,5.9708,Andesite_rect,7,0,7,0,1
5f57120cba207c18f058a62b,SCN,2024-06-10_15h11.22.586,LearnStrategy,2023.2.3,Linux x86_64,59.88023952,5,2,9,,,,,,,,1,01,,,,,,,,,,,2,6.502,0,,,,,,-0.065222564,-0.268901048,1,0,0,6.5018,Basalt_rect,8,0,8,0,1
5f57120cba207c18f058a62b,SCN,2024-06-10_15h11.22.586,LearnStrategy,2023.2.3,Linux x86_64,59.88023952,5,2,10,,,,,,,,4,11,,,,,,,,,,,2,2.684,0,,,,,,-0.172744822,-0.250309626,1,0,0,2.6838,Basalt_rect,9,0,9,0,1
5f57120cba207c18f058a62b,SCN,2024-06-10_15h11.22.586,LearnStrategy,2023.2.3,Linux x86_64,59.88023952,5,2,11,,,,,,,,1,03,,,,,,,,,,,1,2.482,1,,,,,,-0.339140044,-0.233234335,1,0,0,2.4815,Andesite_rect,10,0,10,0,1
5f57120cba207c18f058a62b,SCN,2024-06-10_15h11.22.586,LearnStrategy,2023.2.3,Linux x86_64,59.88023952,5,2,12,,,,,,,,3,09,,,,,,,,,,,3,9.54,1,,,,,,0.127894084,-0.255684111,1,0,0,9.5402,Diorite_rect,11,0,11,0,1
5f57120cba207c18f058a62b,SCN,2024-06-10_15h11.22.586,LearnStrategy,2023.2.3,Linux x86_64,59.88023952,5,2,13,,,,,,,,7,12,,,,,,,,,,,7,1.552,1,,,,,,0.165487431,-0.391622685,1,0,0,1.552,Peridotite_rect,12,0,12,0,1
5f57120cba207c18f058a62b,SCN,2024-06-10_15h11.22.586,LearnStrategy,2023.2.3,Linux x86_64,59.88023952,5,2,14,,,,,,,,5,02,,,,,,,,,,,5,2.351,1,,,,,,-0.422414674,-0.407479533,1,0,0,2.3509,Obsidian_rect,13,0,13,0,1
5f57120cba207c18f058a62b,SCN,2024-06-10_15h11.22.586,LearnStrategy,2023.2.3,Linux x86_64,59.88023952,5,2,15,,,,,,,,2,02,,,,,,,,,,,2,1.435,1,,,,,,-0.169541253,-0.260290852,1,0,0,1.4347,Basalt_rect,14,0,14,0,1
5f57120cba207c18f058a62b,SCN,2024-06-10_15h11.22.586,LearnStrategy,2023.2.3,Linux x86_64,59.88023952,5,2,16,,,,,,,,6,07,,,,,,,,,,,6,1.495,1,,,,,,-0.166573489,-0.390101751,1,0,0,1.4948,Pegmatite_rect,15,0,15,0,1
5f57120cba207c18f058a62b,SCN,2024-06-10_15h11.22.586,LearnStrategy,2023.2.3,Linux x86_64,59.88023952,6,1,1,0.386962184,0.240201791,1,0,0,414.7039,Diorite_07,3,07,5,7,414.704,0.108844828,-0.22875037,1,0,0,2.6256,Diorite_rect,3,2.626,1,0,0,0,0,1,,,,,,,,,,,,
5f57120cba207c18f058a62b,SCN,2024-06-10_15h11.22.586,LearnStrategy,2023.2.3,Linux x86_64,59.88023952,6,1,2,-0.57004208,0.437474785,1,0,0,1.4715,Diorite_16,3,16,6,1,1.472,0.101077398,-0.242855708,1,0,0,1.2308,Diorite_rect,3,1.231,1,1,0,1,0,1,,,,,,,,,,,,
5f57120cba207c18f058a62b,SCN,2024-06-10_15h11.22.586,LearnStrategy,2023.2.3,Linux x86_64,59.88023952,6,1,3,0.586826324,-0.256008501,1,0,0,1.6081,Basalt_10,2,10,2,8,1.608,0.47912301,-0.246174777,1,0,0,1.2948,Gabbro_rect,4,1.295,0,2,0,2,0,1,,,,,,,,,,,,
5f57120cba207c18f058a62b,SCN,2024-06-10_15h11.22.586,LearnStrategy,2023.2.3,Linux x86_64,59.88023952,6,1,4,0.197598493,-0.118972143,1,0,0,1.004,Gabbro_13,4,13,3,6,1.004,0.319034718,-0.244229988,1,0,0,1.7281,Gabbro_rect,4,1.728,1,3,0,3,0,1,,,,,,,,,,,,
5f57120cba207c18f058a62b,SCN,2024-06-10_15h11.22.586,LearnStrategy,2023.2.3,Linux x86_64,59.88023952,6,1,5,-0.361730611,-0.092791027,1,0,0,2.01,Peridotite_15,7,15,3,2,2.01,0.151935507,-0.403652827,1,0,0,2.1532,Peridotite_rect,7,2.153,1,4,0,4,0,1,,,,,,,,,,,,
5f57120cba207c18f058a62b,SCN,2024-06-10_15h11.22.586,LearnStrategy,2023.2.3,Linux x86_64,59.88023952,6,1,6,0.573737109,0.23236197,1,0,0,3.9636,Pegmatite_05,6,05,5,8,3.964,-0.078324706,-0.401855681,1,0,0,1.797,Pegmatite_rect,6,1.797,1,5,0,5,0,1,,,,,,,,,,,,
5f57120cba207c18f058a62b,SCN,2024-06-10_15h11.22.586,LearnStrategy,2023.2.3,Linux x86_64,59.88023952,6,1,7,-0.538468855,0.079543961,1,0,0,1.2907,Andesite_04,1,04,4,1,1.291,-0.382741893,-0.266578109,1,0,0,2.4208,Andesite_rect,1,2.421,1,6,0,6,0,1,,,,,,,,,,,,
5f57120cba207c18f058a62b,SCN,2024-06-10_15h11.22.586,LearnStrategy,2023.2.3,Linux x86_64,59.88023952,6,1,8,-0.042096527,0.217175378,1,0,0,1.834,Basalt_16,2,16,5,4,1.834,-0.125392984,-0.267203154,1,0,0,1.0246,Basalt_rect,2,1.025,1,7,0,7,0,1,,,,,,,,,,,,
5f57120cba207c18f058a62b,SCN,2024-06-10_15h11.22.586,LearnStrategy,2023.2.3,Linux x86_64,59.88023952,6,1,9,0.097297951,0.116940569,1,0,0,2.0227,Diorite_12,3,12,4,5,2.023,0.161155418,-0.240546898,1,0,0,2.0048,Diorite_rect,3,2.005,1,8,0,8,0,1,,,,,,,,,,,,
5f57120cba207c18f058a62b,SCN,2024-06-10_15h11.22.586,LearnStrategy,2023.2.3,Linux x86_64,59.88023952,6,1,10,-0.216956033,0.41743622,1,0,0,6.4263,Andesite_02,1,02,6,3,6.426,-0.386100981,-0.234885604,1,0,0,5.9226,Andesite_rect,1,5.923,1,9,0,9,0,1,,,,,,,,,,,,
5f57120cba207c18f058a62b,SCN,2024-06-10_15h11.22.586,LearnStrategy,2023.2.3,Linux x86_64,59.88023952,6,1,11,-0.211088746,-0.393876182,1,0,0,12.2355,Gabbro_12,4,12,1,3,12.236,0.34131806,-0.254904782,1,0,0,4.3201,Gabbro_rect,4,4.32,1,10,0,10,0,1,,,,,,,,,,,,
5f57120cba207c18f058a62b,SCN,2024-06-10_15h11.22.586,LearnStrategy,2023.2.3,Linux x86_64,59.88023952,6,1,12,0.24641588,0.374152289,1,0,0,4.8846,Pegmatite_12,6,12,6,6,4.885,-0.097731979,-0.416898304,1,0,0,1.3776,Pegmatite_rect,6,1.378,1,11,0,11,0,1,,,,,,,,,,,,
5f57120cba207c18f058a62b,SCN,2024-06-10_15h11.22.586,LearnStrategy,2023.2.3,Linux x86_64,59.88023952,6,1,13,0.289932039,-0.248888157,1,0,0,1.8572,Andesite_06,1,06,2,6,1.857,0.127121749,-0.234933359,1,0,0,1.0582,Diorite_rect,3,1.058,0,12,0,12,0,1,,,,,,,,,,,,
5f57120cba207c18f058a62b,SCN,2024-06-10_15h11.22.586,LearnStrategy,2023.2.3,Linux x86_64,59.88023952,6,1,14,-0.212059939,-0.27476007,1,0,0,2.2395,Andesite_07,1,07,2,3,2.24,-0.375251664,-0.230795542,1,0,0,1.5241,Andesite_rect,1,1.524,1,13,0,13,0,1,,,,,,,,,,,,
5f57120cba207c18f058a62b,SCN,2024-06-10_15h11.22.586,LearnStrategy,2023.2.3,Linux x86_64,59.88023952,6,1,15,-0.239939442,0.091562801,1,0,0,1.6619,Gabbro_05,4,05,4,3,1.662,0.109969104,-0.402014203,1,0,0,2.0196,Peridotite_rect,7,2.02,0,14,0,14,0,1,,,,,,,,,,,,
5f57120cba207c18f058a62b,SCN,2024-06-10_15h11.22.586,LearnStrategy,2023.2.3,Linux x86_64,59.88023952,6,1,16,0.076613744,0.235601496,1,0,0,1.6227,Pegmatite_03,6,03,5,5,1.623,0.136386447,-0.390475732,1,0,0,1.4753,Peridotite_rect,7,1.475,0,15,0,15,0,1,,,,,,,,,,,,
5f57120cba207c18f058a62b,SCN,2024-06-10_15h11.22.586,LearnStrategy,2023.2.3,Linux x86_64,59.88023952,6,2,1,,,,,,,,3,06,,,,,,,,,,,6,12.327,0,,,,,,-0.054344742,-0.391700109,1,0,0,12.3265,Pegmatite_rect,0,0,0,0,1
5f57120cba207c18f058a62b,SCN,2024-06-10_15h11.22.586,LearnStrategy,2023.2.3,Linux x86_64,59.88023952,6,2,2,,,,,,,,4,16,,,,,,,,,,,2,1.834,0,,,,,,-0.056403831,-0.229600059,1,0,0,1.8342,Basalt_rect,1,0,1,0,1
5f57120cba207c18f058a62b,SCN,2024-06-10_15h11.22.586,LearnStrategy,2023.2.3,Linux x86_64,59.88023952,6,2,3,,,,,,,,8,05,,,,,,,,,,,8,1.641,1,,,,,,0.344442014,-0.382688098,1,0,0,1.6411,Pumice_rect,2,0,2,0,1
5f57120cba207c18f058a62b,SCN,2024-06-10_15h11.22.586,LearnStrategy,2023.2.3,Linux x86_64,59.88023952,6,2,4,,,,,,,,2,14,,,,,,,,,,,8,4.918,0,,,,,,0.438123491,-0.399879244,1,0,0,4.9175,Pumice_rect,3,0,3,0,1
5f57120cba207c18f058a62b,SCN,2024-06-10_15h11.22.586,LearnStrategy,2023.2.3,Linux x86_64,59.88023952,6,2,5,,,,,,,,7,02,,,,,,,,,,,7,1.457,1,,,,,,0.21188524,-0.410639657,1,0,0,1.4567,Peridotite_rect,4,0,4,0,1
5f57120cba207c18f058a62b,SCN,2024-06-10_15h11.22.586,LearnStrategy,2023.2.3,Linux x86_64,59.88023952,6,2,6,,,,,,,,5,07,,,,,,,,,,,5,1.812,1,,,,,,-0.36857114,-0.379056931,1,0,0,1.8121,Obsidian_rect,5,0,5,0,1
5f57120cba207c18f058a62b,SCN,2024-06-10_15h11.22.586,LearnStrategy,2023.2.3,Linux x86_64,59.88023952,6,2,7,,,,,,,,1,11,,,,,,,,,,,1,1.888,1,,,,,,-0.389474304,-0.250911783,1,0,0,1.8877,Andesite_rect,6,0,6,0,1
5f57120cba207c18f058a62b,SCN,2024-06-10_15h11.22.586,LearnStrategy,2023.2.3,Linux x86_64,59.88023952,6,2,8,,,,,,,,7,04,,,,,,,,,,,4,4.715,0,,,,,,0.411027838,-0.253010714,1,0,0,4.7146,Gabbro_rect,7,0,7,0,1
5f57120cba207c18f058a62b,SCN,2024-06-10_15h11.22.586,LearnStrategy,2023.2.3,Linux x86_64,59.88023952,6,2,9,,,,,,,,2,09,,,,,,,,,,,1,5.235,0,,,,,,-0.451673472,-0.233374631,1,0,0,5.2349,Andesite_rect,8,0,8,0,1
5f57120cba207c18f058a62b,SCN,2024-06-10_15h11.22.586,LearnStrategy,2023.2.3,Linux x86_64,59.88023952,6,2,10,,,,,,,,3,13,,,,,,,,,,,6,2.961,0,,,,,,-0.121132957,-0.418141188,1,0,0,2.9606,Pegmatite_rect,9,0,9,0,1
5f57120cba207c18f058a62b,SCN,2024-06-10_15h11.22.586,LearnStrategy,2023.2.3,Linux x86_64,59.88023952,6,2,11,,,,,,,,5,10,,,,,,,,,,,5,1.35,1,,,,,,-0.406050541,-0.411104909,1,0,0,1.3501,Obsidian_rect,10,0,10,0,1
5f57120cba207c18f058a62b,SCN,2024-06-10_15h11.22.586,LearnStrategy,2023.2.3,Linux x86_64,59.88023952,6,2,12,,,,,,,,1,16,,,,,,,,,,,1,3.64,1,,,,,,-0.3331219,-0.235847685,1,0,0,3.6404,Andesite_rect,11,0,11,0,1
5f57120cba207c18f058a62b,SCN,2024-06-10_15h11.22.586,LearnStrategy,2023.2.3,Linux x86_64,59.88023952,6,2,13,,,,,,,,6,11,,,,,,,,,,,6,2.001,1,,,,,,-0.077042827,-0.400359613,1,0,0,2.0011,Pegmatite_rect,12,0,12,0,1
5f57120cba207c18f058a62b,SCN,2024-06-10_15h11.22.586,LearnStrategy,2023.2.3,Linux x86_64,59.88023952,6,2,14,,,,,,,,8,04,,,,,,,,,,,8,1.736,1,,,,,,0.426528789,-0.394227699,1,0,0,1.736,Pumice_rect,13,0,13,0,1
5f57120cba207c18f058a62b,SCN,2024-06-10_15h11.22.586,LearnStrategy,2023.2.3,Linux x86_64,59.88023952,6,2,15,,,,,,,,4,09,,,,,,,,,,,4,4.964,1,,,,,,0.472521888,-0.260860372,1,0,0,4.9643,Gabbro_rect,14,0,14,0,1
5f57120cba207c18f058a62b,SCN,2024-06-10_15h11.22.586,LearnStrategy,2023.2.3,Linux x86_64,59.88023952,6,2,16,,,,,,,,6,09,,,,,,,,,,,6,3.383,1,,,,,,-0.162218518,-0.40390933,1,0,0,3.3826,Pegmatite_rect,15,0,15,0,1
5f57120cba207c18f058a62b,SCN,2024-06-10_15h11.22.586,LearnStrategy,2023.2.3,Linux x86_64,59.88023952,7,1,1,-0.556909808,-0.413623951,1,0,0,1.7322,Obsidian_05,5,05,1,1,1.732,-0.404015753,-0.389364384,1,0,0,1.4007,Obsidian_rect,5,1.401,1,0,0,0,0,1,,,,,,,,,,,,
5f57120cba207c18f058a62b,SCN,2024-06-10_15h11.22.586,LearnStrategy,2023.2.3,Linux x86_64,59.88023952,7,1,2,-0.381443907,-0.2668498,1,0,0,1.4146,Diorite_15,3,15,2,2,1.415,0.35976198,-0.243887089,1,0,0,1.8307,Gabbro_rect,4,1.831,0,1,0,1,0,1,,,,,,,,,,,,
5f57120cba207c18f058a62b,SCN,2024-06-10_15h11.22.586,LearnStrategy,2023.2.3,Linux x86_64,59.88023952,7,1,3,-0.208654121,-0.117743527,1,0,0,2.0543,Obsidian_09,5,09,3,3,2.054,-0.392794574,-0.40221949,1,0,0,1.0791,Obsidian_rect,5,1.079,1,2,0,2,0,1,,,,,,,,,,,,
5f57120cba207c18f058a62b,SCN,2024-06-10_15h11.22.586,LearnStrategy,2023.2.3,Linux x86_64,59.88023952,7,1,4,0.067249016,0.222652382,1,0,0,1.8007,Pegmatite_03,6,03,5,5,1.801,-0.089745486,-0.406799811,1,0,0,2.2182,Pegmatite_rect,6,2.218,1,3,0,3,0,1,,,,,,,,,,,,
5f57120cba207c18f058a62b,SCN,2024-06-10_15h11.22.586,LearnStrategy,2023.2.3,Linux x86_64,59.88023952,7,1,5,0.23857265,0.388254934,1,0,0,1.7831,Pegmatite_12,6,12,6,6,1.783,-0.088478654,-0.387573454,1,0,0,1.5072,Pegmatite_rect,6,1.507,1,4,0,4,0,1,,,,,,,,,,,,
5f57120cba207c18f058a62b,SCN,2024-06-10_15h11.22.586,LearnStrategy,2023.2.3,Linux x86_64,59.88023952,7,1,6,0.270080001,0.256474919,1,0,0,3.1915,Gabbro_01,4,01,5,6,3.191,-0.304922316,-0.241776007,1,0,0,2.7565,Andesite_rect,1,2.756,0,5,0,5,0,1,,,,,,,,,,,,
5f57120cba207c18f058a62b,SCN,2024-06-10_15h11.22.586,LearnStrategy,2023.2.3,Linux x86_64,59.88023952,7,1,7,0.239211683,0.085523287,1,0,0,1.2628,Pumice_13,8,13,4,6,1.263,0.349268313,-0.402143055,1,0,0,1.1697,Pumice_rect,8,1.17,1,6,0,6,0,1,,,,,,,,,,,,
5f57120cba207c18f058a62b,SCN,2024-06-10_15h11.22.586,LearnStrategy,2023.2.3,Linux x86_64,59.88023952,7,1,8,-0.266057827,0.23997139,1,0,0,2.8668,Basalt_08,2,08,5,3,2.867,-0.148399918,-0.240905126,1,0,0,1.5346,Basalt_rect,2,1.535,1,7,0,7,0,1,,,,,,,,,,,,
5f57120cba207c18f058a62b,SCN,2024-06-10_15h11.22.586,LearnStrategy,2023.2.3,Linux x86_64,59.88023952,7,1,9,0.428001545,-0.286335839,1,0,0,1.0474,Pegmatite_13,6,13,2,7,1.047,-0.054461868,-0.394178814,1,0,0,2.1675,Pegmatite_rect,6,2.168,1,8,0,8,0,1,,,,,,,,,,,,
5f57120cba207c18f058a62b,SCN,2024-06-10_15h11.22.586,LearnStrategy,2023.2.3,Linux x86_64,59.88023952,7,1,10,0.556758598,0.271823194,1,0,0,1.3517,Pegmatite_05,6,05,5,8,1.352,-0.085060897,-0.401071548,1,0,0,1.5962,Pegmatite_rect,6,1.596,1,9,0,9,0,1,,,,,,,,,,,,
5f57120cba207c18f058a62b,SCN,2024-06-10_15h11.22.586,LearnStrategy,2023.2.3,Linux x86_64,59.88023952,7,1,11,0.532886081,-0.263192565,1,0,0,2.4235,Basalt_10,2,10,2,8,2.423,-0.162521716,-0.269434894,1,0,0,1.0909,Basalt_rect,2,1.091,1,10,0,10,0,1,,,,,,,,,,,,
5f57120cba207c18f058a62b,SCN,2024-06-10_15h11.22.586,LearnStrategy,2023.2.3,Linux x86_64,59.88023952,7,1,12,-0.530681222,0.103246442,1,0,0,1.5248,Andesite_04,1,04,4,1,1.525,-0.382353429,-0.2626489,1,0,0,1.666,Andesite_rect,1,1.666,1,11,0,11,0,1,,,,,,,,,,,,
5f57120cba207c18f058a62b,SCN,2024-06-10_15h11.22.586,LearnStrategy,2023.2.3,Linux x86_64,59.88023952,7,1,13,-0.540225453,0.276298911,1,0,0,1.2153,Pumice_09,8,09,5,1,1.215,0.322875977,-0.395173603,1,0,0,1.3619,Pumice_rect,8,1.362,1,12,0,12,0,1,,,,,,,,,,,,
5f57120cba207c18f058a62b,SCN,2024-06-10_15h11.22.586,LearnStrategy,2023.2.3,Linux x86_64,59.88023952,7,1,14,0.250427953,0.105513431,1,0,0,0.8847,Pumice_13,8,13,4,6,0.885,0.363436381,-0.410403993,1,0,0,1.6138,Pumice_rect,8,1.614,1,13,0,13,0,1,,,,,,,,,,,,
5f57120cba207c18f058a62b,SCN,2024-06-10_15h11.22.586,LearnStrategy,2023.2.3,Linux x86_64,59.88023952,7,1,15,0.064937662,-0.21431379,1,0,0,1.1252,Basalt_12,2,12,2,5,1.125,0.410354473,-0.395358686,1,0,0,1.5337,Pumice_rect,8,1.534,0,14,0,14,0,1,,,,,,,,,,,,
5f57120cba207c18f058a62b,SCN,2024-06-10_15h11.22.586,LearnStrategy,2023.2.3,Linux x86_64,59.88023952,7,1,16,-0.080491808,-0.08728317,1,0,0,0.9599,Peridotite_08,7,08,3,4,0.96,0.107312026,-0.404426433,1,0,0,1.1019,Peridotite_rect,7,1.102,1,15,0,15,0,1,,,,,,,,,,,,
5f57120cba207c18f058a62b,SCN,2024-06-10_15h11.22.586,LearnStrategy,2023.2.3,Linux x86_64,59.88023952,7,2,1,,,,,,,,4,11,,,,,,,,,,,4,2.414,1,,,,,,0.413245872,-0.244927654,1,0,0,2.4142,Gabbro_rect,0,0,0,0,1
5f57120cba207c18f058a62b,SCN,2024-06-10_15h11.22.586,LearnStrategy,2023.2.3,Linux x86_64,59.88023952,7,2,2,,,,,,,,6,07,,,,,,,,,,,6,2.373,1,,,,,,-0.157938357,-0.400372752,1,0,0,2.3731,Pegmatite_rect,1,0,1,0,1
5f57120cba207c18f058a62b,SCN,2024-06-10_15h11.22.586,LearnStrategy,2023.2.3,Linux x86_64,59.88023952,7,2,3,,,,,,,,2,02,,,,,,,,,,,2,2.441,1,,,,,,-0.170317968,-0.259340004,1,0,0,2.4408,Basalt_rect,2,0,2,0,1
5f57120cba207c18f058a62b,SCN,2024-06-10_15h11.22.586,LearnStrategy,2023.2.3,Linux x86_64,59.88023952,7,2,4,,,,,,,,5,07,,,,,,,,,,,5,1.414,1,,,,,,-0.419714468,-0.398880499,1,0,0,1.4135,Obsidian_rect,3,0,3,0,1
5f57120cba207c18f058a62b,SCN,2024-06-10_15h11.22.586,LearnStrategy,2023.2.3,Linux x86_64,59.88023952,7,2,5,,,,,,,,1,10,,,,,,,,,,,1,6.501,1,,,,,,-0.353632503,-0.236291108,1,0,0,6.5015,Andesite_rect,4,0,4,0,1
5f57120cba207c18f058a62b,SCN,2024-06-10_15h11.22.586,LearnStrategy,2023.2.3,Linux x86_64,59.88023952,7,2,6,,,,,,,,3,02,,,,,,,,,,,6,3.115,0,,,,,,-0.108136636,-0.408056895,1,0,0,3.1153,Pegmatite_rect,5,0,5,0,1
5f57120cba207c18f058a62b,SCN,2024-06-10_15h11.22.586,LearnStrategy,2023.2.3,Linux x86_64,59.88023952,7,2,7,,,,,,,,8,04,,,,,,,,,,,8,1.775,1,,,,,,0.480107201,-0.416737592,1,0,0,1.7753,Pumice_rect,6,0,6,0,1
5f57120cba207c18f058a62b,SCN,2024-06-10_15h11.22.586,LearnStrategy,2023.2.3,Linux x86_64,59.88023952,7,2,8,,,,,,,,2,05,,,,,,,,,,,2,1.509,1,,,,,,-0.040451332,-0.234826335,1,0,0,1.509,Basalt_rect,7,0,7,0,1
5f57120cba207c18f058a62b,SCN,2024-06-10_15h11.22.586,LearnStrategy,2023.2.3,Linux x86_64,59.88023952,7,2,9,,,,,,,,3,06,,,,,,,,,,,3,4.19,1,,,,,,0.182377497,-0.253134833,1,0,0,4.1896,Diorite_rect,8,0,8,0,1
5f57120cba207c18f058a62b,SCN,2024-06-10_15h11.22.586,LearnStrategy,2023.2.3,Linux x86_64,59.88023952,7,2,10,,,,,,,,4,08,,,,,,,,,,,4,3.175,1,,,,,,0.423284319,-0.248260639,1,0,0,3.1745,Gabbro_rect,9,0,9,0,1
5f57120cba207c18f058a62b,SCN,2024-06-10_15h11.22.586,LearnStrategy,2023.2.3,Linux x86_64,59.88023952,7,2,11,,,,,,,,8,16,,,,,,,,,,,8,3.103,1,,,,,,0.416809223,-0.391635188,1,0,0,3.1034,Pumice_rect,10,0,10,0,1
5f57120cba207c18f058a62b,SCN,2024-06-10_15h11.22.586,LearnStrategy,2023.2.3,Linux x86_64,59.88023952,7,2,12,,,,,,,,7,02,,,,,,,,,,,7,1.033,1,,,,,,0.179054684,-0.420951066,1,0,0,1.0331,Peridotite_rect,11,0,11,0,1
5f57120cba207c18f058a62b,SCN,2024-06-10_15h11.22.586,LearnStrategy,2023.2.3,Linux x86_64,59.88023952,7,2,13,,,,,,,,1,16,,,,,,,,,,,1,4.412,1,,,,,,-0.405771361,-0.247551741,1,0,0,4.412,Andesite_rect,12,0,12,0,1
5f57120cba207c18f058a62b,SCN,2024-06-10_15h11.22.586,LearnStrategy,2023.2.3,Linux x86_64,59.88023952,7,2,14,,,,,,,,7,14,,,,,,,,,,,4,2.925,0,,,,,,0.341899024,-0.249577204,1,0,0,2.9245,Gabbro_rect,13,0,13,0,1
5f57120cba207c18f058a62b,SCN,2024-06-10_15h11.22.586,LearnStrategy,2023.2.3,Linux x86_64,59.88023952,7,2,15,,,,,,,,6,11,,,,,,,,,,,6,1.432,1,,,,,,-0.063388259,-0.391345271,1,0,0,1.4316,Pegmatite_rect,14,0,14,0,1
5f57120cba207c18f058a62b,SCN,2024-06-10_15h11.22.586,LearnStrategy,2023.2.3,Linux x86_64,59.88023952,7,2,16,,,,,,,,5,02,,,,,,,,,,,5,1.519,1,,,,,,-0.382574753,-0.402975506,1,0,0,1.5192,Obsidian_rect,15,0,15,0,1
5f57120cba207c18f058a62b,SCN,2024-06-10_15h11.22.586,LearnStrategy,2023.2.3,Linux x86_64,59.88023952,8,1,1,0.406907117,0.262280517,1,0,0,12.7867,Diorite_07,3,07,5,7,12.787,0.152900201,-0.257299282,1,0,0,3.3416,Diorite_rect,3,3.342,1,0,0,0,0,1,,,,,,,,,,,,
5f57120cba207c18f058a62b,SCN,2024-06-10_15h11.22.586,LearnStrategy,2023.2.3,Linux x86_64,59.88023952,8,1,2,0.10300269,0.126089767,1,0,0,1.0403,Diorite_12,3,12,4,5,1.04,0.056935134,-0.240885558,1,0,0,1.3165,Diorite_rect,3,1.317,1,1,0,1,0,1,,,,,,,,,,,,
5f57120cba207c18f058a62b,SCN,2024-06-10_15h11.22.586,LearnStrategy,2023.2.3,Linux x86_64,59.88023952,8,1,3,-0.199742706,0.078161204,1,0,0,1.1361,Gabbro_05,4,05,4,3,1.136,0.333633282,-0.247609103,1,0,0,2.2212,Gabbro_rect,4,2.221,1,2,0,2,0,1,,,,,,,,,,,,
5f57120cba207c18f058a62b,SCN,2024-06-10_15h11.22.586,LearnStrategy,2023.2.3,Linux x86_64,59.88023952,8,1,4,-0.529319375,0.245831666,1,0,0,2.3164,Pumice_09,8,09,5,1,2.316,0.355637021,-0.412383397,1,0,0,1.6744,Pumice_rect,8,1.674,1,3,0,3,0,1,,,,,,,,,,,,
5f57120cba207c18f058a62b,SCN,2024-06-10_15h11.22.586,LearnStrategy,2023.2.3,Linux x86_64,59.88023952,8,1,5,0.597427086,0.240701799,1,0,0,1.0534,Pegmatite_05,6,05,5,8,1.053,-0.07173079,-0.396302894,1,0,0,1.0905,Pegmatite_rect,6,1.09,1,4,0,4,0,1,,,,,,,,,,,,
5f57120cba207c18f058a62b,SCN,2024-06-10_15h11.22.586,LearnStrategy,2023.2.3,Linux x86_64,59.88023952,8,1,6,-0.035447933,-0.412728416,1,0,0,3.0301,Pumice_15,8,15,1,4,3.03,0.483869058,-0.379799101,1,0,0,1.0369,Pumice_rect,8,1.037,1,5,0,5,0,1,,,,,,,,,,,,
5f57120cba207c18f058a62b,SCN,2024-06-10_15h11.22.586,LearnStrategy,2023.2.3,Linux x86_64,59.88023952,8,1,7,-0.518040127,-0.256135517,1,0,0,2.1086,Andesite_09,1,09,2,1,2.109,-0.141500756,-0.257599018,1,0,0,3.4935,Basalt_rect,2,3.494,0,6,0,6,0,1,,,,,,,,,,,,
5f57120cba207c18f058a62b,SCN,2024-06-10_15h11.22.586,LearnStrategy,2023.2.3,Linux x86_64,59.88023952,8,1,8,-0.239992354,0.375570695,1,0,0,2.0972,Andesite_02,1,02,6,3,2.097,-0.317041009,-0.259276496,1,0,0,2.0803,Andesite_rect,1,2.08,1,7,0,7,0,1,,,,,,,,,,,,
5f57120cba207c18f058a62b,SCN,2024-06-10_15h11.22.586,LearnStrategy,2023.2.3,Linux x86_64,59.88023952,8,1,9,0.561569638,-0.084791395,1,0,0,4.5602,Obsidian_06,5,06,3,8,4.56,-0.374326388,-0.408173384,1,0,0,1.1363,Obsidian_rect,5,1.136,1,8,0,8,0,1,,,,,,,,,,,,
5f57120cba207c18f058a62b,SCN,2024-06-10_15h11.22.586,LearnStrategy,2023.2.3,Linux x86_64,59.88023952,8,1,10,-0.542407601,0.404705162,1,0,0,2.0831,Diorite_16,3,16,6,1,2.083,-0.335112854,-0.228371585,1,0,0,1.4751,Andesite_rect,1,1.475,0,9,0,9,0,1,,,,,,,,,,,,
5f57120cba207c18f058a62b,SCN,2024-06-10_15h11.22.586,LearnStrategy,2023.2.3,Linux x86_64,59.88023952,8,1,11,0.543212749,-0.280617325,1,0,0,3.3446,Basalt_10,2,10,2,8,3.345,-0.072083862,-0.249694895,1,0,0,1.707,Basalt_rect,2,1.707,1,10,0,10,0,1,,,,,,,,,,,,
5f57120cba207c18f058a62b,SCN,2024-06-10_15h11.22.586,LearnStrategy,2023.2.3,Linux x86_64,59.88023952,8,1,12,-0.511017446,0.08270903,1,0,0,1.7974,Andesite_04,1,04,4,1,1.797,-0.360943865,-0.236585476,1,0,0,2.7499,Andesite_rect,1,2.75,1,11,0,11,0,1,,,,,,,,,,,,
5f57120cba207c18f058a62b,SCN,2024-06-10_15h11.22.586,LearnStrategy,2023.2.3,Linux x86_64,59.88023952,8,1,13,-0.087086077,-0.247251087,1,0,0,3.1681,Diorite_10,3,10,2,4,3.168,0.299195466,-0.259147361,1,0,0,1.7525,Gabbro_rect,4,1.753,0,12,0,12,0,1,,,,,,,,,,,,
5f57120cba207c18f058a62b,SCN,2024-06-10_15h11.22.586,LearnStrategy,2023.2.3,Linux x86_64,59.88023952,8,1,14,0.261814471,0.103507642,1,0,0,1.1151,Pumice_13,8,13,4,6,1.115,0.353600679,-0.390121107,1,0,0,0.8413,Pumice_rect,8,0.841,1,13,0,13,0,1,,,,,,,,,,,,
5f57120cba207c18f058a62b,SCN,2024-06-10_15h11.22.586,LearnStrategy,2023.2.3,Linux x86_64,59.88023952,8,1,15,-0.266505489,0.107620098,1,0,0,1.2205,Gabbro_05,4,05,4,3,1.22,0.310446704,-0.245821494,1,0,0,1.6773,Gabbro_rect,4,1.677,1,14,0,14,0,1,,,,,,,,,,,,
5f57120cba207c18f058a62b,SCN,2024-06-10_15h11.22.586,LearnStrategy,2023.2.3,Linux x86_64,59.88023952,8,1,16,0.363299617,-0.107911993,1,0,0,6.7935,Gabbro_14,4,14,3,7,6.793,0.39652563,-0.244350645,1,0,0,2.0223,Gabbro_rect,4,2.022,1,15,0,15,0,1,,,,,,,,,,,,
5f57120cba207c18f058a62b,SCN,2024-06-10_15h11.22.586,LearnStrategy,2023.2.3,Linux x86_64,59.88023952,8,2,1,,,,,,,,5,14,,,,,,,,,,,5,1.761,1,,,,,,-0.340117949,-0.381835584,1,0,0,1.7614,Obsidian_rect,0,0,0,0,1
5f57120cba207c18f058a62b,SCN,2024-06-10_15h11.22.586,LearnStrategy,2023.2.3,Linux x86_64,59.88023952,8,2,2,,,,,,,,7,06,,,,,,,,,,,7,2.056,1,,,,,,0.205725564,-0.395084805,1,0,0,2.0562,Peridotite_rect,1,0,1,0,1
5f57120cba207c18f058a62b,SCN,2024-06-10_15h11.22.586,LearnStrategy,2023.2.3,Linux x86_64,59.88023952,8,2,3,,,,,,,,3,13,,,,,,,,,,,3,6.197,1,,,,,,0.181783394,-0.232156895,1,0,0,6.1967,Diorite_rect,2,0,2,0,1
5f57120cba207c18f058a62b,SCN,2024-06-10_15h11.22.586,LearnStrategy,2023.2.3,Linux x86_64,59.88023952,8,2,4,,,,,,,,5,11,,,,,,,,,,,5,1.425,1,,,,,,-0.320851361,-0.403288735,1,0,0,1.4253,Obsidian_rect,3,0,3,0,1
5f57120cba207c18f058a62b,SCN,2024-06-10_15h11.22.586,LearnStrategy,2023.2.3,Linux x86_64,59.88023952,8,2,5,,,,,,,,2,14,,,,,,,,,,,8,5.604,0,,,,,,0.455837674,-0.387069702,1,0,0,5.6044,Pumice_rect,4,0,4,0,1
5f57120cba207c18f058a62b,SCN,2024-06-10_15h11.22.586,LearnStrategy,2023.2.3,Linux x86_64,59.88023952,8,2,6,,,,,,,,6,06,,,,,,,,,,,6,1.73,1,,,,,,-0.090525239,-0.378409492,1,0,0,1.73,Pegmatite_rect,5,0,5,0,1
5f57120cba207c18f058a62b,SCN,2024-06-10_15h11.22.586,LearnStrategy,2023.2.3,Linux x86_64,59.88023952,8,2,7,,,,,,,,4,15,,,,,,,,,,,4,9.449,1,,,,,,0.353674288,-0.238825975,1,0,0,9.4494,Gabbro_rect,6,0,6,0,1
5f57120cba207c18f058a62b,SCN,2024-06-10_15h11.22.586,LearnStrategy,2023.2.3,Linux x86_64,59.88023952,8,2,8,,,,,,,,8,03,,,,,,,,,,,8,2.572,1,,,,,,0.441215798,-0.393867705,1,0,0,2.5723,Pumice_rect,7,0,7,0,1
5f57120cba207c18f058a62b,SCN,2024-06-10_15h11.22.586,LearnStrategy,2023.2.3,Linux x86_64,59.88023952,8,2,9,,,,,,,,1,01,,,,,,,,,,,1,3.645,1,,,,,,-0.359053612,-0.258155752,1,0,0,3.6447,Andesite_rect,8,0,8,0,1
5f57120cba207c18f058a62b,SCN,2024-06-10_15h11.22.586,LearnStrategy,2023.2.3,Linux x86_64,59.88023952,8,2,10,,,,,,,,6,16,,,,,,,,,,,6,1.745,1,,,,,,-0.072974947,-0.417264656,1,0,0,1.7455,Pegmatite_rect,9,0,9,0,1
5f57120cba207c18f058a62b,SCN,2024-06-10_15h11.22.586,LearnStrategy,2023.2.3,Linux x86_64,59.88023952,8,2,11,,,,,,,,1,05,,,,,,,,,,,1,1.857,1,,,,,,-0.315034478,-0.241894687,1,0,0,1.8572,Andesite_rect,10,0,10,0,1
5f57120cba207c18f058a62b,SCN,2024-06-10_15h11.22.586,LearnStrategy,2023.2.3,Linux x86_64,59.88023952,8,2,12,,,,,,,,8,10,,,,,,,,,,,8,1.512,1,,,,,,0.496759909,-0.390697832,1,0,0,1.5122,Pumice_rect,11,0,11,0,1
5f57120cba207c18f058a62b,SCN,2024-06-10_15h11.22.586,LearnStrategy,2023.2.3,Linux x86_64,59.88023952,8,2,13,,,,,,,,4,03,,,,,,,,,,,3,7.603,0,,,,,,0.202120534,-0.25479239,1,0,0,7.603,Diorite_rect,12,0,12,0,1
5f57120cba207c18f058a62b,SCN,2024-06-10_15h11.22.586,LearnStrategy,2023.2.3,Linux x86_64,59.88023952,8,2,14,,,,,,,,2,11,,,,,,,,,,,8,2.264,0,,,,,,0.445674049,-0.393521274,1,0,0,2.2638,Pumice_rect,13,0,13,0,1
5f57120cba207c18f058a62b,SCN,2024-06-10_15h11.22.586,LearnStrategy,2023.2.3,Linux x86_64,59.88023952,8,2,15,,,,,,,,7,04,,,,,,,,,,,4,1.56,0,,,,,,0.397212134,-0.270034366,1,0,0,1.5604,Gabbro_rect,14,0,14,0,1
5f57120cba207c18f058a62b,SCN,2024-06-10_15h11.22.586,LearnStrategy,2023.2.3,Linux x86_64,59.88023952,8,2,16,,,,,,,,3,09,,,,,,,,,,,3,3.158,1,,,,,,0.226762913,-0.271242707,1,0,0,3.1576,Diorite_rect,15,0,15,0,1
5f57120cba207c18f058a62b,SCN,2024-06-10_15h11.22.586,LearnStrategy,2023.2.3,Linux x86_64,59.88023952,9,1,1,0.388516885,-0.403881638,1,0,0,2.5262,Diorite_14,3,14,1,7,2.526,0.199318921,-0.255042677,1,0,0,0.9438,Diorite_rect,3,0.944,1,0,0,0,0,1,,,,,,,,,,,,
5f57120cba207c18f058a62b,SCN,2024-06-10_15h11.22.586,LearnStrategy,2023.2.3,Linux x86_64,59.88023952,9,1,2,-0.215615096,-0.113688787,1,0,0,2.6657,Obsidian_09,5,09,3,3,2.666,-0.400258947,-0.408535993,1,0,0,1.0439,Obsidian_rect,5,1.044,1,1,0,1,0,1,,,,,,,,,,,,
5f57120cba207c18f058a62b,SCN,2024-06-10_15h11.22.586,LearnStrategy,2023.2.3,Linux x86_64,59.88023952,9,1,3,0.416015201,0.10635874,1,0,0,1.156,Basalt_04,2,04,4,7,1.156,-0.087662944,-0.267403426,1,0,0,1.0299,Basalt_rect,2,1.03,1,2,0,2,0,1,,,,,,,,,,,,
5f57120cba207c18f058a62b,SCN,2024-06-10_15h11.22.586,LearnStrategy,2023.2.3,Linux x86_64,59.88023952,9,1,4,-0.535503988,0.099940229,1,0,0,1.1815,Andesite_04,1,04,4,1,1.181,-0.369633463,-0.250506719,1,0,0,1.5125,Andesite_rect,1,1.512,1,3,0,3,0,1,,,,,,,,,,,,
5f57120cba207c18f058a62b,SCN,2024-06-10_15h11.22.586,LearnStrategy,2023.2.3,Linux x86_64,59.88023952,9,1,5,-0.408150744,0.264912181,1,0,0,1.1322,Obsidian_16,5,16,5,2,1.132,-0.352050817,-0.414303886,1,0,0,1.0755,Obsidian_rect,5,1.075,1,4,0,4,0,1,,,,,,,,,,,,
5f57120cba207c18f058a62b,SCN,2024-06-10_15h11.22.586,LearnStrategy,2023.2.3,Linux x86_64,59.88023952,9,1,6,0.23673326,0.229293134,1,0,0,1.3705,Gabbro_01,4,01,5,6,1.37,0.381123719,-0.241166998,1,0,0,2.6309,Gabbro_rect,4,2.631,1,5,0,5,0,1,,,,,,,,,,,,
5f57120cba207c18f058a62b,SCN,2024-06-10_15h11.22.586,LearnStrategy,2023.2.3,Linux x86_64,59.88023952,9,1,7,0.549039911,0.399502984,1,0,0,1.2817,Obsidian_08,5,08,6,8,1.282,-0.371228854,-0.411088661,1,0,0,1.651,Obsidian_rect,5,1.651,1,6,0,6,0,1,,,,,,,,,,,,
5f57120cba207c18f058a62b,SCN,2024-06-10_15h11.22.586,LearnStrategy,2023.2.3,Linux x86_64,59.88023952,9,1,8,0.414240095,-0.422765308,1,0,0,3.6787,Diorite_14,3,14,1,7,3.679,0.076159795,-0.241648568,1,0,0,2.1842,Diorite_rect,3,2.184,1,7,0,7,0,1,,,,,,,,,,,,
5f57120cba207c18f058a62b,SCN,2024-06-10_15h11.22.586,LearnStrategy,2023.2.3,Linux x86_64,59.88023952,9,1,9,-0.405025553,0.129526527,1,0,0,3.4665,Basalt_06,2,06,4,2,3.466,-0.167924952,-0.232710874,1,0,0,1.0214,Basalt_rect,2,1.021,1,8,0,8,0,1,,,,,,,,,,,,
5f57120cba207c18f058a62b,SCN,2024-06-10_15h11.22.586,LearnStrategy,2023.2.3,Linux x86_64,59.88023952,9,1,10,0.591357055,-0.285884151,1,0,0,1.8852,Basalt_10,2,10,2,8,1.885,-0.135471697,-0.2613779,1,0,0,1.0514,Basalt_rect,2,1.051,1,9,0,9,0,1,,,,,,,,,,,,
5f57120cba207c18f058a62b,SCN,2024-06-10_15h11.22.586,LearnStrategy,2023.2.3,Linux x86_64,59.88023952,9,1,11,0.102713903,-0.452209119,1,0,0,1.679,Pegmatite_10,6,10,1,5,1.679,0.116699148,-0.418641196,1,0,0,0.6649,Peridotite_rect,7,0.665,0,10,0,10,0,1,,,,,,,,,,,,
5f57120cba207c18f058a62b,SCN,2024-06-10_15h11.22.586,LearnStrategy,2023.2.3,Linux x86_64,59.88023952,9,1,12,-0.051848518,-0.437532142,1,0,0,1.4819,Pumice_15,8,15,1,4,1.482,0.310554646,-0.392202801,1,0,0,1.1083,Pumice_rect,8,1.108,1,11,0,11,0,1,,,,,,,,,,,,
5f57120cba207c18f058a62b,SCN,2024-06-10_15h11.22.586,LearnStrategy,2023.2.3,Linux x86_64,59.88023952,9,1,13,-0.422468291,-0.228495563,1,0,0,1.1693,Diorite_15,3,15,2,2,1.169,0.383186623,-0.247165397,1,0,0,1.9654,Gabbro_rect,4,1.965,0,12,0,12,0,1,,,,,,,,,,,,
5f57120cba207c18f058a62b,SCN,2024-06-10_15h11.22.586,LearnStrategy,2023.2.3,Linux x86_64,59.88023952,9,1,14,-0.387635902,0.250476943,1,0,0,3.2575,Obsidian_16,5,16,5,2,3.258,-0.386762937,-0.410068865,1,0,0,1.2923,Obsidian_rect,5,1.292,1,13,0,13,0,1,,,,,,,,,,,,
5f57120cba207c18f058a62b,SCN,2024-06-10_15h11.22.586,LearnStrategy,2023.2.3,Linux x86_64,59.88023952,9,1,15,-0.522299272,0.216488785,1,0,0,2.0287,Pumice_09,8,09,5,1,2.029,0.461169066,-0.40444699,1,0,0,2.5033,Pumice_rect,8,2.503,1,14,0,14,0,1,,,,,,,,,,,,
5f57120cba207c18f058a62b,SCN,2024-06-10_15h11.22.586,LearnStrategy,2023.2.3,Linux x86_64,59.88023952,9,1,16,0.551863918,0.065955551,1,0,0,2.6292,Pumice_08,8,08,4,8,2.629,0.347398405,-0.38416594,1,0,0,2.9938,Pumice_rect,8,2.994,1,15,0,15,0,1,,,,,,,,,,,,
5f57120cba207c18f058a62b,SCN,2024-06-10_15h11.22.586,LearnStrategy,2023.2.3,Linux x86_64,59.88023952,9,2,1,,,,,,,,3,08,,,,,,,,,,,6,2.372,0,,,,,,-0.134336189,-0.407724451,1,0,0,2.3725,Pegmatite_rect,0,0,0,0,1
5f57120cba207c18f058a62b,SCN,2024-06-10_15h11.22.586,LearnStrategy,2023.2.3,Linux x86_64,59.88023952,9,2,2,,,,,,,,4,09,,,,,,,,,,,4,1.886,1,,,,,,0.403483355,-0.261582551,1,0,0,1.8865,Gabbro_rect,1,0,1,0,1
5f57120cba207c18f058a62b,SCN,2024-06-10_15h11.22.586,LearnStrategy,2023.2.3,Linux x86_64,59.88023952,9,2,3,,,,,,,,1,11,,,,,,,,,,,1,1.571,1,,,,,,-0.452102273,-0.251709055,1,0,0,1.5714,Andesite_rect,2,0,2,0,1
5f57120cba207c18f058a62b,SCN,2024-06-10_15h11.22.586,LearnStrategy,2023.2.3,Linux x86_64,59.88023952,9,2,4,,,,,,,,8,02,,,,,,,,,,,8,2.512,1,,,,,,0.318288309,-0.419622916,1,0,0,2.5117,Pumice_rect,3,0,3,0,1
5f57120cba207c18f058a62b,SCN,2024-06-10_15h11.22.586,LearnStrategy,2023.2.3,Linux x86_64,59.88023952,9,2,5,,,,,,,,3,11,,,,,,,,,,,4,2.172,0,,,,,,0.390657072,-0.238055194,1,0,0,2.1723,Gabbro_rect,4,0,4,0,1
5f57120cba207c18f058a62b,SCN,2024-06-10_15h11.22.586,LearnStrategy,2023.2.3,Linux x86_64,59.88023952,9,2,6,,,,,,,,7,07,,,,,,,,,,,7,3.887,1,,,,,,0.19480896,-0.389715124,1,0,0,3.8866,Peridotite_rect,5,0,5,0,1
5f57120cba207c18f058a62b,SCN,2024-06-10_15h11.22.586,LearnStrategy,2023.2.3,Linux x86_64,59.88023952,9,2,7,,,,,,,,2,09,,,,,,,,,,,2,2.869,1,,,,,,-0.124862318,-0.248333754,1,0,0,2.8689,Basalt_rect,6,0,6,0,1
5f57120cba207c18f058a62b,SCN,2024-06-10_15h11.22.586,LearnStrategy,2023.2.3,Linux x86_64,59.88023952,9,2,8,,,,,,,,5,12,,,,,,,,,,,5,1.227,1,,,,,,-0.328323929,-0.406083778,1,0,0,1.2267,Obsidian_rect,7,0,7,0,1
5f57120cba207c18f058a62b,SCN,2024-06-10_15h11.22.586,LearnStrategy,2023.2.3,Linux x86_64,59.88023952,9,2,9,,,,,,,,2,01,,,,,,,,,,,2,5.005,1,,,,,,-0.133406886,-0.258835616,1,0,0,5.0046,Basalt_rect,8,0,8,0,1
5f57120cba207c18f058a62b,SCN,2024-06-10_15h11.22.586,LearnStrategy,2023.2.3,Linux x86_64,59.88023952,9,2,10,,,,,,,,4,16,,,,,,,,,,,4,1.985,1,,,,,,0.463963685,-0.256762681,1,0,0,1.9851,Gabbro_rect,9,0,9,0,1
5f57120cba207c18f058a62b,SCN,2024-06-10_15h11.22.586,LearnStrategy,2023.2.3,Linux x86_64,59.88023952,9,2,11,,,,,,,,7,12,,,,,,,,,,,7,1.834,1,,,,,,0.132887593,-0.401129475,1,0,0,1.8343,Peridotite_rect,10,0,10,0,1
5f57120cba207c18f058a62b,SCN,2024-06-10_15h11.22.586,LearnStrategy,2023.2.3,Linux x86_64,59.88023952,9,2,12,,,,,,,,6,15,,,,,,,,,,,6,1.407,1,,,,,,-0.084813083,-0.3913825,1,0,0,1.4065,Pegmatite_rect,11,0,11,0,1
5f57120cba207c18f058a62b,SCN,2024-06-10_15h11.22.586,LearnStrategy,2023.2.3,Linux x86_64,59.88023952,9,2,13,,,,,,,,6,09,,,,,,,,,,,6,1.681,1,,,,,,-0.154964942,-0.40185561,1,0,0,1.6809,Pegmatite_rect,12,0,12,0,1
5f57120cba207c18f058a62b,SCN,2024-06-10_15h11.22.586,LearnStrategy,2023.2.3,Linux x86_64,59.88023952,9,2,14,,,,,,,,8,05,,,,,,,,,,,8,1.488,1,,,,,,0.450262988,-0.384107378,1,0,0,1.4875,Pumice_rect,13,0,13,0,1
5f57120cba207c18f058a62b,SCN,2024-06-10_15h11.22.586,LearnStrategy,2023.2.3,Linux x86_64,59.88023952,9,2,15,,,,,,,,1,03,,,,,,,,,,,1,1.4,1,,,,,,-0.363275139,-0.264552293,1,0,0,1.4003,Andesite_rect,14,0,14,0,1
5f57120cba207c18f058a62b,SCN,2024-06-10_15h11.22.586,LearnStrategy,2023.2.3,Linux x86_64,59.88023952,9,2,16,,,,,,,,5,10,,,,,,,,,,,5,1.633,1,,,,,,-0.372478238,-0.381592503,1,0,0,1.6333,Obsidian_rect,15,0,15,0,1
5f57120cba207c18f058a62b,SCN,2024-06-10_15h11.22.586,LearnStrategy,2023.2.3,Linux x86_64,59.88023952,,,,,,,,,,,,,,,,,,,,,,,,,,,,,,,,,,,,,,,,,,
5f57120cba207c18f058a62b,SCN,2024-06-10_15h11.22.586,LearnStrategy,2023.2.3,Linux x86_64,59.88023952,,,,,,,,,,,,,,,,,,,,,,,,,,,,,,,,,,,,,,,,,,
5f57120cba207c18f058a62b,SCN,2024-06-10_15h11.22.586,LearnStrategy,2023.2.3,Linux x86_64,59.88023952,,,,,,,,,,,5,05,1,1,,,,,,,,,,,,,,,,,,,,,,,,,,,,
5f57120cba207c18f058a62b,SCN,2024-06-10_15h11.22.586,LearnStrategy,2023.2.3,Linux x86_64,59.88023952,,,,,,,,,,,8,06,1,2,,,,,,,,,,,,,,,,,,,,,,,,,,,,
5f57120cba207c18f058a62b,SCN,2024-06-10_15h11.22.586,LearnStrategy,2023.2.3,Linux x86_64,59.88023952,,,,,,,,,,,4,12,1,3,,,,,,,,,,,,,,,,,,,,,,,,,,,,
5f57120cba207c18f058a62b,SCN,2024-06-10_15h11.22.586,LearnStrategy,2023.2.3,Linux x86_64,59.88023952,,,,,,,,,,,8,15,1,4,,,,,,,,,,,,,,,,,,,,,,,,,,,,
5f57120cba207c18f058a62b,SCN,2024-06-10_15h11.22.586,LearnStrategy,2023.2.3,Linux x86_64,59.88023952,,,,,,,,,,,6,10,1,5,,,,,,,,,,,,,,,,,,,,,,,,,,,,
5f57120cba207c18f058a62b,SCN,2024-06-10_15h11.22.586,LearnStrategy,2023.2.3,Linux x86_64,59.88023952,,,,,,,,,,,7,16,1,6,,,,,,,,,,,,,,,,,,,,,,,,,,,,
5f57120cba207c18f058a62b,SCN,2024-06-10_15h11.22.586,LearnStrategy,2023.2.3,Linux x86_64,59.88023952,,,,,,,,,,,3,14,1,7,,,,,,,,,,,,,,,,,,,,,,,,,,,,
5f57120cba207c18f058a62b,SCN,2024-06-10_15h11.22.586,LearnStrategy,2023.2.3,Linux x86_64,59.88023952,,,,,,,,,,,6,08,1,8,,,,,,,,,,,,,,,,,,,,,,,,,,,,
5f57120cba207c18f058a62b,SCN,2024-06-10_15h11.22.586,LearnStrategy,2023.2.3,Linux x86_64,59.88023952,,,,,,,,,,,1,09,2,1,,,,,,,,,,,,,,,,,,,,,,,,,,,,
5f57120cba207c18f058a62b,SCN,2024-06-10_15h11.22.586,LearnStrategy,2023.2.3,Linux x86_64,59.88023952,,,,,,,,,,,3,15,2,2,,,,,,,,,,,,,,,,,,,,,,,,,,,,
5f57120cba207c18f058a62b,SCN,2024-06-10_15h11.22.586,LearnStrategy,2023.2.3,Linux x86_64,59.88023952,,,,,,,,,,,1,07,2,3,,,,,,,,,,,,,,,,,,,,,,,,,,,,
5f57120cba207c18f058a62b,SCN,2024-06-10_15h11.22.586,LearnStrategy,2023.2.3,Linux x86_64,59.88023952,,,,,,,,,,,3,10,2,4,,,,,,,,,,,,,,,,,,,,,,,,,,,,
5f57120cba207c18f058a62b,SCN,2024-06-10_15h11.22.586,LearnStrategy,2023.2.3,Linux x86_64,59.88023952,,,,,,,,,,,2,12,2,5,,,,,,,,,,,,,,,,,,,,,,,,,,,,
5f57120cba207c18f058a62b,SCN,2024-06-10_15h11.22.586,LearnStrategy,2023.2.3,Linux x86_64,59.88023952,,,,,,,,,,,1,06,2,6,,,,,,,,,,,,,,,,,,,,,,,,,,,,
5f57120cba207c18f058a62b,SCN,2024-06-10_15h11.22.586,LearnStrategy,2023.2.3,Linux x86_64,59.88023952,,,,,,,,,,,6,13,2,7,,,,,,,,,,,,,,,,,,,,,,,,,,,,
5f57120cba207c18f058a62b,SCN,2024-06-10_15h11.22.586,LearnStrategy,2023.2.3,Linux x86_64,59.88023952,,,,,,,,,,,2,10,2,8,,,,,,,,,,,,,,,,,,,,,,,,,,,,
5f57120cba207c18f058a62b,SCN,2024-06-10_15h11.22.586,LearnStrategy,2023.2.3,Linux x86_64,59.88023952,,,,,,,,,,,7,05,3,1,,,,,,,,,,,,,,,,,,,,,,,,,,,,
5f57120cba207c18f058a62b,SCN,2024-06-10_15h11.22.586,LearnStrategy,2023.2.3,Linux x86_64,59.88023952,,,,,,,,,,,7,15,3,2,,,,,,,,,,,,,,,,,,,,,,,,,,,,
5f57120cba207c18f058a62b,SCN,2024-06-10_15h11.22.586,LearnStrategy,2023.2.3,Linux x86_64,59.88023952,,,,,,,,,,,5,09,3,3,,,,,,,,,,,,,,,,,,,,,,,,,,,,
5f57120cba207c18f058a62b,SCN,2024-06-10_15h11.22.586,LearnStrategy,2023.2.3,Linux x86_64,59.88023952,,,,,,,,,,,7,08,3,4,,,,,,,,,,,,,,,,,,,,,,,,,,,,
5f57120cba207c18f058a62b,SCN,2024-06-10_15h11.22.586,LearnStrategy,2023.2.3,Linux x86_64,59.88023952,,,,,,,,,,,1,14,3,5,,,,,,,,,,,,,,,,,,,,,,,,,,,,
5f57120cba207c18f058a62b,SCN,2024-06-10_15h11.22.586,LearnStrategy,2023.2.3,Linux x86_64,59.88023952,,,,,,,,,,,4,13,3,6,,,,,,,,,,,,,,,,,,,,,,,,,,,,
5f57120cba207c18f058a62b,SCN,2024-06-10_15h11.22.586,LearnStrategy,2023.2.3,Linux x86_64,59.88023952,,,,,,,,,,,4,14,3,7,,,,,,,,,,,,,,,,,,,,,,,,,,,,
5f57120cba207c18f058a62b,SCN,2024-06-10_15h11.22.586,LearnStrategy,2023.2.3,Linux x86_64,59.88023952,,,,,,,,,,,5,06,3,8,,,,,,,,,,,,,,,,,,,,,,,,,,,,
5f57120cba207c18f058a62b,SCN,2024-06-10_15h11.22.586,LearnStrategy,2023.2.3,Linux x86_64,59.88023952,,,,,,,,,,,1,04,4,1,,,,,,,,,,,,,,,,,,,,,,,,,,,,
5f57120cba207c18f058a62b,SCN,2024-06-10_15h11.22.586,LearnStrategy,2023.2.3,Linux x86_64,59.88023952,,,,,,,,,,,2,06,4,2,,,,,,,,,,,,,,,,,,,,,,,,,,,,
5f57120cba207c18f058a62b,SCN,2024-06-10_15h11.22.586,LearnStrategy,2023.2.3,Linux x86_64,59.88023952,,,,,,,,,,,4,05,4,3,,,,,,,,,,,,,,,,,,,,,,,,,,,,
5f57120cba207c18f058a62b,SCN,2024-06-10_15h11.22.586,LearnStrategy,2023.2.3,Linux x86_64,59.88023952,,,,,,,,,,,5,04,4,4,,,,,,,,,,,,,,,,,,,,,,,,,,,,
5f57120cba207c18f058a62b,SCN,2024-06-10_15h11.22.586,LearnStrategy,2023.2.3,Linux x86_64,59.88023952,,,,,,,,,,,3,12,4,5,,,,,,,,,,,,,,,,,,,,,,,,,,,,
5f57120cba207c18f058a62b,SCN,2024-06-10_15h11.22.586,LearnStrategy,2023.2.3,Linux x86_64,59.88023952,,,,,,,,,,,8,13,4,6,,,,,,,,,,,,,,,,,,,,,,,,,,,,
5f57120cba207c18f058a62b,SCN,2024-06-10_15h11.22.586,LearnStrategy,2023.2.3,Linux x86_64,59.88023952,,,,,,,,,,,2,04,4,7,,,,,,,,,,,,,,,,,,,,,,,,,,,,
5f57120cba207c18f058a62b,SCN,2024-06-10_15h11.22.586,LearnStrategy,2023.2.3,Linux x86_64,59.88023952,,,,,,,,,,,8,08,4,8,,,,,,,,,,,,,,,,,,,,,,,,,,,,
5f57120cba207c18f058a62b,SCN,2024-06-10_15h11.22.586,LearnStrategy,2023.2.3,Linux x86_64,59.88023952,,,,,,,,,,,8,09,5,1,,,,,,,,,,,,,,,,,,,,,,,,,,,,
5f57120cba207c18f058a62b,SCN,2024-06-10_15h11.22.586,LearnStrategy,2023.2.3,Linux x86_64,59.88023952,,,,,,,,,,,5,16,5,2,,,,,,,,,,,,,,,,,,,,,,,,,,,,
5f57120cba207c18f058a62b,SCN,2024-06-10_15h11.22.586,LearnStrategy,2023.2.3,Linux x86_64,59.88023952,,,,,,,,,,,2,08,5,3,,,,,,,,,,,,,,,,,,,,,,,,,,,,
5f57120cba207c18f058a62b,SCN,2024-06-10_15h11.22.586,LearnStrategy,2023.2.3,Linux x86_64,59.88023952,,,,,,,,,,,2,16,5,4,,,,,,,,,,,,,,,,,,,,,,,,,,,,
5f57120cba207c18f058a62b,SCN,2024-06-10_15h11.22.586,LearnStrategy,2023.2.3,Linux x86_64,59.88023952,,,,,,,,,,,6,03,5,5,,,,,,,,,,,,,,,,,,,,,,,,,,,,
5f57120cba207c18f058a62b,SCN,2024-06-10_15h11.22.586,LearnStrategy,2023.2.3,Linux x86_64,59.88023952,,,,,,,,,,,4,01,5,6,,,,,,,,,,,,,,,,,,,,,,,,,,,,
5f57120cba207c18f058a62b,SCN,2024-06-10_15h11.22.586,LearnStrategy,2023.2.3,Linux x86_64,59.88023952,,,,,,,,,,,3,07,5,7,,,,,,,,,,,,,,,,,,,,,,,,,,,,
5f57120cba207c18f058a62b,SCN,2024-06-10_15h11.22.586,LearnStrategy,2023.2.3,Linux x86_64,59.88023952,,,,,,,,,,,6,05,5,8,,,,,,,,,,,,,,,,,,,,,,,,,,,,
5f57120cba207c18f058a62b,SCN,2024-06-10_15h11.22.586,LearnStrategy,2023.2.3,Linux x86_64,59.88023952,,,,,,,,,,,3,16,6,1,,,,,,,,,,,,,,,,,,,,,,,,,,,,
5f57120cba207c18f058a62b,SCN,2024-06-10_15h11.22.586,LearnStrategy,2023.2.3,Linux x86_64,59.88023952,,,,,,,,,,,7,13,6,2,,,,,,,,,,,,,,,,,,,,,,,,,,,,
5f57120cba207c18f058a62b,SCN,2024-06-10_15h11.22.586,LearnStrategy,2023.2.3,Linux x86_64,59.88023952,,,,,,,,,,,1,02,6,3,,,,,,,,,,,,,,,,,,,,,,,,,,,,
5f57120cba207c18f058a62b,SCN,2024-06-10_15h11.22.586,LearnStrategy,2023.2.3,Linux x86_64,59.88023952,,,,,,,,,,,4,10,6,4,,,,,,,,,,,,,,,,,,,,,,,,,,,,
5f57120cba207c18f058a62b,SCN,2024-06-10_15h11.22.586,LearnStrategy,2023.2.3,Linux x86_64,59.88023952,,,,,,,,,,,7,10,6,5,,,,,,,,,,,,,,,,,,,,,,,,,,,,
5f57120cba207c18f058a62b,SCN,2024-06-10_15h11.22.586,LearnStrategy,2023.2.3,Linux x86_64,59.88023952,,,,,,,,,,,6,12,6,6,,,,,,,,,,,,,,,,,,,,,,,,,,,,
5f57120cba207c18f058a62b,SCN,2024-06-10_15h11.22.586,LearnStrategy,2023.2.3,Linux x86_64,59.88023952,,,,,,,,,,,8,14,6,7,,,,,,,,,,,,,,,,,,,,,,,,,,,,
5f57120cba207c18f058a62b,SCN,2024-06-10_15h11.22.586,LearnStrategy,2023.2.3,Linux x86_64,59.88023952,,,,,,,,,,,5,08,6,8,,,,,,,,,,,,,,,,,,,,,,,,,,,,