participant,condition,date,expName,psychopyVersion,OS,frameRate,block,phase,trial,learn_mouse_2.x,learn_mouse_2.y,learn_mouse_2.leftButton,learn_mouse_2.midButton,learn_mouse_2.rightButton,learn_mouse_2.time,learn_mouse_2.clicked_name,cat,token,row,col,t_select,cat_mouse_l.x,cat_mouse_l.y,cat_mouse_l.leftButton,cat_mouse_l.midButton,cat_mouse_l.rightButton,cat_mouse_l.time,cat_mouse_l.clicked_name,resp,t_resp,corr,train_trials.thisRepN,train_trials.thisTrialN,train_trials.thisN,train_trials.thisIndex,train_trials.ran,cat_mouse_t.x,cat_mouse_t.y,cat_mouse_t.leftButton,cat_mouse_t.midButton,cat_mouse_t.rightButton,cat_mouse_t.time,cat_mouse_t.clicked_name,test_trials.thisRepN,test_trials.thisTrialN,test_trials.thisN,test_trials.thisIndex,test_trials.ran,Bonus
5f79bca83a2eb65c0983816d,TCR,2024-06-21_14h18.29.020,LearnStrategy,2023.2.3,Win32,59.88023952,,,,,,,,,,,,,,,,,,,,,,,,,,,,,,,,,,,,,,,,,,,
5f79bca83a2eb65c0983816d,TCR,2024-06-21_14h18.29.020,LearnStrategy,2023.2.3,Win32,59.88023952,1,1,1,0.090740769,-0.011111118,1,0,0,3.7754,rock_grid_rect_2,2,14,-1,-1,3.775,0.363888917,-0.237037023,1,0,0,4.5313,Gabbro_rect,4,4.531,0,0,0,0,0,1,,,,,,,,,,,,,
5f79bca83a2eb65c0983816d,TCR,2024-06-21_14h18.29.020,LearnStrategy,2023.2.3,Win32,59.88023952,1,1,2,0.127777806,0.011111118,1,0,0,2.0667,rock_grid_rect_2,6,05,-1,-1,2.067,0.115740741,-0.409259302,1,0,0,5.4276,Peridotite_rect,7,5.428,0,1,0,1,0,1,,,,,,,,,,,,,
5f79bca83a2eb65c0983816d,TCR,2024-06-21_14h18.29.020,LearnStrategy,2023.2.3,Win32,59.88023952,1,1,3,0,-0.006481489,1,0,0,2.2892,rock_grid_rect_2,1,04,-1,-1,2.289,-0.148148148,-0.248148176,1,0,0,3.1903,Basalt_rect,2,3.19,0,2,0,2,0,1,,,,,,,,,,,,,
5f79bca83a2eb65c0983816d,TCR,2024-06-21_14h18.29.020,LearnStrategy,2023.2.3,Win32,59.88023952,1,1,4,0.078703704,0.0074074,1,0,0,1.0237,rock_grid_rect_2,8,09,-1,-1,1.024,0.394444501,-0.390740783,1,0,0,1.4519,Pumice_rect,8,1.452,1,3,0,3,0,1,,,,,,,,,,,,,
5f79bca83a2eb65c0983816d,TCR,2024-06-21_14h18.29.020,LearnStrategy,2023.2.3,Win32,59.88023952,1,1,5,0.137962977,-0.003703718,1,0,0,1.2374,rock_grid_rect_2,4,08,-1,-1,1.237,0.14907406,-0.256481524,1,0,0,2.6011,Diorite_rect,3,2.601,0,4,0,4,0,1,,,,,,,,,,,,,
5f79bca83a2eb65c0983816d,TCR,2024-06-21_14h18.29.020,LearnStrategy,2023.2.3,Win32,59.88023952,1,1,6,0.130555541,-0.000925947,1,0,0,0.9741,rock_grid_rect_2,5,08,-1,-1,0.974,-0.325925933,-0.388888889,1,0,0,3.0944,Obsidian_rect,5,3.094,1,5,0,5,0,1,,,,,,,,,,,,,
5f79bca83a2eb65c0983816d,TCR,2024-06-21_14h18.29.020,LearnStrategy,2023.2.3,Win32,59.88023952,1,1,7,0.08148151,0.011111118,1,0,0,1.1406,rock_grid_rect_2,3,02,-1,-1,1.141,-0.330555563,-0.235185199,1,0,0,3.1173,Andesite_rect,1,3.117,0,6,0,6,0,1,,,,,,,,,,,,,
5f79bca83a2eb65c0983816d,TCR,2024-06-21_14h18.29.020,LearnStrategy,2023.2.3,Win32,59.88023952,1,1,8,0.09629631,-0.000925947,1,0,0,0.9241,rock_grid_rect_2,6,16,-1,-1,0.924,0.102777764,-0.410185213,1,0,0,3.7717,Peridotite_rect,7,3.772,0,7,0,7,0,1,,,,,,,,,,,,,
5f79bca83a2eb65c0983816d,TCR,2024-06-21_14h18.29.020,LearnStrategy,2023.2.3,Win32,59.88023952,1,1,9,0.14907406,0.01203703,1,0,0,0.9576,rock_grid_rect_2,4,05,-1,-1,0.958,-0.074074074,-0.235185199,1,0,0,1.4711,Basalt_rect,2,1.471,0,8,0,8,0,1,,,,,,,,,,,,,
5f79bca83a2eb65c0983816d,TCR,2024-06-21_14h18.29.020,LearnStrategy,2023.2.3,Win32,59.88023952,1,1,10,0.089814857,-0.018518519,1,0,0,1.3739,rock_grid_rect_2,3,13,-1,-1,1.374,0.33148151,-0.381481524,1,0,0,4.1437,Pumice_rect,8,4.144,0,9,0,9,0,1,,,,,,,,,,,,,
5f79bca83a2eb65c0983816d,TCR,2024-06-21_14h18.29.020,LearnStrategy,2023.2.3,Win32,59.88023952,1,1,11,0.108333376,-0.019444466,1,0,0,0.6993,rock_grid_rect_2,1,06,-1,-1,0.699,0.35555564,-0.237037023,1,0,0,1.2051,Gabbro_rect,4,1.205,0,10,0,10,0,1,,,,,,,,,,,,,
5f79bca83a2eb65c0983816d,TCR,2024-06-21_14h18.29.020,LearnStrategy,2023.2.3,Win32,59.88023952,1,1,12,0.119444459,-0.017592607,1,0,0,0.7755,rock_grid_rect_2,7,12,-1,-1,0.776,0.362037094,-0.402777778,1,0,0,1.7683,Pumice_rect,8,1.768,0,11,0,11,0,1,,,,,,,,,,,,,
5f79bca83a2eb65c0983816d,TCR,2024-06-21_14h18.29.020,LearnStrategy,2023.2.3,Win32,59.88023952,1,1,13,0.101851852,-0.023148148,1,0,0,1.8527,rock_grid_rect_2,2,06,-1,-1,1.853,-0.125,-0.256481524,1,0,0,3.7916,Basalt_rect,2,3.792,1,12,0,12,0,1,,,,,,,,,,,,,
5f79bca83a2eb65c0983816d,TCR,2024-06-21_14h18.29.020,LearnStrategy,2023.2.3,Win32,59.88023952,1,1,14,-0.045370384,0.000925912,1,0,0,1.823,rock_grid_rect_2,5,12,-1,-1,1.823,-0.424074067,-0.393518519,1,0,0,1.3012,Obsidian_rect,5,1.301,1,13,0,13,0,1,,,,,,,,,,,,,
5f79bca83a2eb65c0983816d,TCR,2024-06-21_14h18.29.020,LearnStrategy,2023.2.3,Win32,59.88023952,1,1,15,0.012962977,-0.009259259,1,0,0,0.8068,rock_grid_rect_2,7,08,-1,-1,0.807,0.428703732,-0.242592635,1,0,0,3.8754,Gabbro_rect,4,3.875,0,14,0,14,0,1,,,,,,,,,,,,,
5f79bca83a2eb65c0983816d,TCR,2024-06-21_14h18.29.020,LearnStrategy,2023.2.3,Win32,59.88023952,1,1,16,0.001851894,0.0074074,1,0,0,0.7752,rock_grid_rect_2,8,10,-1,-1,0.775,0.382407436,-0.400000042,1,0,0,2.484,Pumice_rect,8,2.484,1,15,0,15,0,1,,,,,,,,,,,,,
5f79bca83a2eb65c0983816d,TCR,2024-06-21_14h18.29.020,LearnStrategy,2023.2.3,Win32,59.88023952,1,2,1,,,,,,,,4,10,,,,,,,,,,,2,4.651,0,,,,,,-0.055555556,-0.257407436,1,0,0,4.6511,Basalt_rect,0,0,0,0,1,
5f79bca83a2eb65c0983816d,TCR,2024-06-21_14h18.29.020,LearnStrategy,2023.2.3,Win32,59.88023952,1,2,2,,,,,,,,5,09,,,,,,,,,,,5,1.78,1,,,,,,-0.444444444,-0.40370369,1,0,0,1.7795,Obsidian_rect,1,0,1,0,1,
5f79bca83a2eb65c0983816d,TCR,2024-06-21_14h18.29.020,LearnStrategy,2023.2.3,Win32,59.88023952,1,2,3,,,,,,,,2,10,,,,,,,,,,,3,4.234,0,,,,,,0.087962963,-0.263888889,1,0,0,4.2343,Diorite_rect,2,0,2,0,1,
5f79bca83a2eb65c0983816d,TCR,2024-06-21_14h18.29.020,LearnStrategy,2023.2.3,Win32,59.88023952,1,2,4,,,,,,,,8,06,,,,,,,,,,,8,1.711,1,,,,,,0.42777775,-0.387962977,1,0,0,1.7113,Pumice_rect,3,0,3,0,1,
5f79bca83a2eb65c0983816d,TCR,2024-06-21_14h18.29.020,LearnStrategy,2023.2.3,Win32,59.88023952,1,2,5,,,,,,,,2,12,,,,,,,,,,,4,2.062,0,,,,,,0.433333362,-0.253703718,1,0,0,2.0624,Gabbro_rect,4,0,4,0,1,
5f79bca83a2eb65c0983816d,TCR,2024-06-21_14h18.29.020,LearnStrategy,2023.2.3,Win32,59.88023952,1,2,6,,,,,,,,3,06,,,,,,,,,,,7,2.031,0,,,,,,0.150000042,-0.409259302,1,0,0,2.0314,Peridotite_rect,5,0,5,0,1,
5f79bca83a2eb65c0983816d,TCR,2024-06-21_14h18.29.020,LearnStrategy,2023.2.3,Win32,59.88023952,1,2,7,,,,,,,,7,10,,,,,,,,,,,6,1.466,0,,,,,,-0.085185157,-0.416666667,1,0,0,1.4658,Pegmatite_rect,6,0,6,0,1,
5f79bca83a2eb65c0983816d,TCR,2024-06-21_14h18.29.020,LearnStrategy,2023.2.3,Win32,59.88023952,1,2,8,,,,,,,,1,03,,,,,,,,,,,2,2.381,0,,,,,,-0.124074088,-0.262962977,1,0,0,2.3806,Basalt_rect,7,0,7,0,1,
5f79bca83a2eb65c0983816d,TCR,2024-06-21_14h18.29.020,LearnStrategy,2023.2.3,Win32,59.88023952,1,2,9,,,,,,,,6,11,,,,,,,,,,,1,2.395,0,,,,,,-0.371296282,-0.232407393,1,0,0,2.3954,Andesite_rect,8,0,8,0,1,
5f79bca83a2eb65c0983816d,TCR,2024-06-21_14h18.29.020,LearnStrategy,2023.2.3,Win32,59.88023952,1,2,10,,,,,,,,8,04,,,,,,,,,,,8,1.965,1,,,,,,0.430555556,-0.400925954,1,0,0,1.9652,Pumice_rect,9,0,9,0,1,
5f79bca83a2eb65c0983816d,TCR,2024-06-21_14h18.29.020,LearnStrategy,2023.2.3,Win32,59.88023952,1,2,11,,,,,,,,1,02,,,,,,,,,,,4,2.541,0,,,,,,0.368518547,-0.248148176,1,0,0,2.5405,Gabbro_rect,10,0,10,0,1,
5f79bca83a2eb65c0983816d,TCR,2024-06-21_14h18.29.020,LearnStrategy,2023.2.3,Win32,59.88023952,1,2,12,,,,,,,,3,08,,,,,,,,,,,7,5.578,0,,,,,,0.151851866,-0.37962963,1,0,0,5.5784,Peridotite_rect,11,0,11,0,1,
5f79bca83a2eb65c0983816d,TCR,2024-06-21_14h18.29.020,LearnStrategy,2023.2.3,Win32,59.88023952,1,2,13,,,,,,,,7,15,,,,,,,,,,,3,2.959,0,,,,,,0.158333319,-0.24537037,1,0,0,2.9592,Diorite_rect,12,0,12,0,1,
5f79bca83a2eb65c0983816d,TCR,2024-06-21_14h18.29.020,LearnStrategy,2023.2.3,Win32,59.88023952,1,2,14,,,,,,,,4,09,,,,,,,,,,,6,1.976,0,,,,,,-0.097222222,-0.415740755,1,0,0,1.976,Pegmatite_rect,13,0,13,0,1,
5f79bca83a2eb65c0983816d,TCR,2024-06-21_14h18.29.020,LearnStrategy,2023.2.3,Win32,59.88023952,1,2,15,,,,,,,,5,06,,,,,,,,,,,5,1.945,1,,,,,,-0.332407386,-0.414814843,1,0,0,1.945,Obsidian_rect,14,0,14,0,1,
5f79bca83a2eb65c0983816d,TCR,2024-06-21_14h18.29.020,LearnStrategy,2023.2.3,Win32,59.88023952,1,2,16,,,,,,,,6,07,,,,,,,,,,,6,3.1,1,,,,,,-0.112962935,-0.400000042,1,0,0,3.1004,Pegmatite_rect,15,0,15,0,1,
5f79bca83a2eb65c0983816d,TCR,2024-06-21_14h18.29.020,LearnStrategy,2023.2.3,Win32,59.88023952,2,1,1,0.021296325,-0.005555577,1,0,0,2.6213,rock_grid_rect_2,1,09,-1,-1,2.621,-0.040740755,-0.252777806,1,0,0,1.7259,Basalt_rect,2,1.726,0,0,0,0,0,1,,,,,,,,,,,,,
5f79bca83a2eb65c0983816d,TCR,2024-06-21_14h18.29.020,LearnStrategy,2023.2.3,Win32,59.88023952,2,1,2,0.14907406,0.017592571,1,0,0,0.9697,rock_grid_rect_2,3,16,-1,-1,0.97,0.394444501,-0.264814801,1,0,0,1.3928,Gabbro_rect,4,1.393,0,1,0,1,0,1,,,,,,,,,,,,,
5f79bca83a2eb65c0983816d,TCR,2024-06-21_14h18.29.020,LearnStrategy,2023.2.3,Win32,59.88023952,2,1,3,0.137037065,-0.01666666,1,0,0,1.6906,rock_grid_rect_2,2,11,-1,-1,1.691,-0.110185199,-0.228703746,1,0,0,1.1956,Basalt_rect,2,1.196,1,2,0,2,0,1,,,,,,,,,,,,,
5f79bca83a2eb65c0983816d,TCR,2024-06-21_14h18.29.020,LearnStrategy,2023.2.3,Win32,59.88023952,2,1,4,0.147222236,0.001851859,1,0,0,0.9755,rock_grid_rect_2,7,04,-1,-1,0.976,-0.099074046,-0.40370369,1,0,0,1.5693,Pegmatite_rect,6,1.569,0,3,0,3,0,1,,,,,,,,,,,,,
5f79bca83a2eb65c0983816d,TCR,2024-06-21_14h18.29.020,LearnStrategy,2023.2.3,Win32,59.88023952,2,1,5,0.097222222,-0.012962977,1,0,0,0.8585,rock_grid_rect_2,2,06,-1,-1,0.858,-0.347222222,-0.410185213,1,0,0,1.8443,Obsidian_rect,5,1.844,0,4,0,4,0,1,,,,,,,,,,,,,
5f79bca83a2eb65c0983816d,TCR,2024-06-21_14h18.29.020,LearnStrategy,2023.2.3,Win32,59.88023952,2,1,6,0.05740745,-0.00462963,1,0,0,1.6412,rock_grid_rect_2,7,16,-1,-1,1.641,-0.397222201,-0.248148176,1,0,0,2.3148,Andesite_rect,1,2.315,0,5,0,5,0,1,,,,,,,,,,,,,
5f79bca83a2eb65c0983816d,TCR,2024-06-21_14h18.29.020,LearnStrategy,2023.2.3,Win32,59.88023952,2,1,7,0.045370384,0.00462963,1,0,0,1.275,rock_grid_rect_2,2,04,-1,-1,1.275,-0.161111125,-0.256481524,1,0,0,1.4403,Basalt_rect,2,1.44,1,6,0,6,0,1,,,,,,,,,,,,,
5f79bca83a2eb65c0983816d,TCR,2024-06-21_14h18.29.020,LearnStrategy,2023.2.3,Win32,59.88023952,2,1,8,0.056481467,0.001851859,1,0,0,1.0025,rock_grid_rect_2,3,02,-1,-1,1.002,0.402777778,-0.237963005,1,0,0,1.9858,Gabbro_rect,4,1.986,0,7,0,7,0,1,,,,,,,,,,,,,
5f79bca83a2eb65c0983816d,TCR,2024-06-21_14h18.29.020,LearnStrategy,2023.2.3,Win32,59.88023952,2,1,9,0.101851852,-0.000925947,1,0,0,1.3857,rock_grid_rect_2,4,15,-1,-1,1.386,0.374074159,-0.237037023,1,0,0,2.5935,Gabbro_rect,4,2.594,1,8,0,8,0,1,,,,,,,,,,,,,
5f79bca83a2eb65c0983816d,TCR,2024-06-21_14h18.29.020,LearnStrategy,2023.2.3,Win32,59.88023952,2,1,10,0.151851866,0.013888889,1,0,0,0.858,rock_grid_rect_2,6,09,-1,-1,0.858,0.136111153,-0.415740755,1,0,0,3.1765,Peridotite_rect,7,3.176,0,9,0,9,0,1,,,,,,,,,,,,,
5f79bca83a2eb65c0983816d,TCR,2024-06-21_14h18.29.020,LearnStrategy,2023.2.3,Win32,59.88023952,2,1,11,0.103703746,0.010185171,1,0,0,0.8333,rock_grid_rect_2,4,16,-1,-1,0.833,0.136111153,-0.255555541,1,0,0,1.8821,Diorite_rect,3,1.882,0,10,0,10,0,1,,,,,,,,,,,,,
5f79bca83a2eb65c0983816d,TCR,2024-06-21_14h18.29.020,LearnStrategy,2023.2.3,Win32,59.88023952,2,1,12,0.102777764,0.022222201,1,0,0,0.7875,rock_grid_rect_2,4,16,-1,-1,0.787,0.412963019,-0.259259259,1,0,0,1.2622,Gabbro_rect,4,1.262,1,11,0,11,0,1,,,,,,,,,,,,,
5f79bca83a2eb65c0983816d,TCR,2024-06-21_14h18.29.020,LearnStrategy,2023.2.3,Win32,59.88023952,2,1,13,0.15370369,-0.012962977,1,0,0,0.9754,rock_grid_rect_2,6,16,-1,-1,0.975,-0.099074046,-0.39907406,1,0,0,1.9371,Pegmatite_rect,6,1.937,1,12,0,12,0,1,,,,,,,,,,,,,
5f79bca83a2eb65c0983816d,TCR,2024-06-21_14h18.29.020,LearnStrategy,2023.2.3,Win32,59.88023952,2,1,14,0.082407422,-0.005555577,1,0,0,0.9383,rock_grid_rect_2,3,13,-1,-1,0.938,0.159259302,-0.389814801,1,0,0,1.167,Peridotite_rect,7,1.167,0,13,0,13,0,1,,,,,,,,,,,,,
5f79bca83a2eb65c0983816d,TCR,2024-06-21_14h18.29.020,LearnStrategy,2023.2.3,Win32,59.88023952,2,1,15,0.147222236,-0.012962977,1,0,0,0.9918,rock_grid_rect_2,7,06,-1,-1,0.992,0.112963005,-0.385185171,1,0,0,2.6592,Peridotite_rect,7,2.659,1,14,0,14,0,1,,,,,,,,,,,,,
5f79bca83a2eb65c0983816d,TCR,2024-06-21_14h18.29.020,LearnStrategy,2023.2.3,Win32,59.88023952,2,1,16,0.139814801,0.012962942,1,0,0,1.0332,rock_grid_rect_2,1,07,-1,-1,1.033,-0.089814787,-0.380555541,1,0,0,1.8761,Pegmatite_rect,6,1.876,0,15,0,15,0,1,,,,,,,,,,,,,
5f79bca83a2eb65c0983816d,TCR,2024-06-21_14h18.29.020,LearnStrategy,2023.2.3,Win32,59.88023952,2,2,1,,,,,,,,4,01,,,,,,,,,,,1,5.345,0,,,,,,-0.353703711,-0.25462963,1,0,0,5.3446,Andesite_rect,0,0,0,0,1,
5f79bca83a2eb65c0983816d,TCR,2024-06-21_14h18.29.020,LearnStrategy,2023.2.3,Win32,59.88023952,2,2,2,,,,,,,,8,03,,,,,,,,,,,8,1.485,1,,,,,,0.382407436,-0.393518519,1,0,0,1.4846,Pumice_rect,1,0,1,0,1,
5f79bca83a2eb65c0983816d,TCR,2024-06-21_14h18.29.020,LearnStrategy,2023.2.3,Win32,59.88023952,2,2,3,,,,,,,,5,16,,,,,,,,,,,5,1.115,1,,,,,,-0.375,-0.392592607,1,0,0,1.1155,Obsidian_rect,2,0,2,0,1,
5f79bca83a2eb65c0983816d,TCR,2024-06-21_14h18.29.020,LearnStrategy,2023.2.3,Win32,59.88023952,2,2,4,,,,,,,,6,13,,,,,,,,,,,6,6.798,1,,,,,,-0.086111069,-0.414814843,1,0,0,6.7978,Pegmatite_rect,3,0,3,0,1,
5f79bca83a2eb65c0983816d,TCR,2024-06-21_14h18.29.020,LearnStrategy,2023.2.3,Win32,59.88023952,2,2,5,,,,,,,,2,09,,,,,,,,,,,2,1.155,1,,,,,,-0.123148106,-0.242592635,1,0,0,1.1554,Basalt_rect,4,0,4,0,1,
5f79bca83a2eb65c0983816d,TCR,2024-06-21_14h18.29.020,LearnStrategy,2023.2.3,Win32,59.88023952,2,2,6,,,,,,,,3,11,,,,,,,,,,,7,3.335,0,,,,,,0.131481524,-0.405555584,1,0,0,3.3351,Peridotite_rect,5,0,5,0,1,
5f79bca83a2eb65c0983816d,TCR,2024-06-21_14h18.29.020,LearnStrategy,2023.2.3,Win32,59.88023952,2,2,7,,,,,,,,5,04,,,,,,,,,,,5,1.16,1,,,,,,-0.393518519,-0.400925954,1,0,0,1.1605,Obsidian_rect,6,0,6,0,1,
5f79bca83a2eb65c0983816d,TCR,2024-06-21_14h18.29.020,LearnStrategy,2023.2.3,Win32,59.88023952,2,2,8,,,,,,,,6,10,,,,,,,,,,,7,2.662,0,,,,,,0.136111153,-0.384259259,1,0,0,2.6618,Peridotite_rect,7,0,7,0,1,
5f79bca83a2eb65c0983816d,TCR,2024-06-21_14h18.29.020,LearnStrategy,2023.2.3,Win32,59.88023952,2,2,9,,,,,,,,3,12,,,,,,,,,,,7,2.659,0,,,,,,0.119444459,-0.417592578,1,0,0,2.659,Peridotite_rect,8,0,8,0,1,
5f79bca83a2eb65c0983816d,TCR,2024-06-21_14h18.29.020,LearnStrategy,2023.2.3,Win32,59.88023952,2,2,10,,,,,,,,2,16,,,,,,,,,,,4,3.08,0,,,,,,0.385185242,-0.268518519,1,0,0,3.0798,Gabbro_rect,9,0,9,0,1,
5f79bca83a2eb65c0983816d,TCR,2024-06-21_14h18.29.020,LearnStrategy,2023.2.3,Win32,59.88023952,2,2,11,,,,,,,,7,05,,,,,,,,,,,3,1.816,0,,,,,,0.112037023,-0.235185199,1,0,0,1.8159,Diorite_rect,10,0,10,0,1,
5f79bca83a2eb65c0983816d,TCR,2024-06-21_14h18.29.020,LearnStrategy,2023.2.3,Win32,59.88023952,2,2,12,,,,,,,,7,02,,,,,,,,,,,7,1.166,1,,,,,,0.112037023,-0.393518519,1,0,0,1.1657,Peridotite_rect,11,0,11,0,1,
5f79bca83a2eb65c0983816d,TCR,2024-06-21_14h18.29.020,LearnStrategy,2023.2.3,Win32,59.88023952,2,2,13,,,,,,,,4,12,,,,,,,,,,,2,1.292,0,,,,,,-0.106481481,-0.256481524,1,0,0,1.2916,Basalt_rect,12,0,12,0,1,
5f79bca83a2eb65c0983816d,TCR,2024-06-21_14h18.29.020,LearnStrategy,2023.2.3,Win32,59.88023952,2,2,14,,,,,,,,1,01,,,,,,,,,,,1,5.35,1,,,,,,-0.37962963,-0.244444459,1,0,0,5.3504,Andesite_rect,13,0,13,0,1,
5f79bca83a2eb65c0983816d,TCR,2024-06-21_14h18.29.020,LearnStrategy,2023.2.3,Win32,59.88023952,2,2,15,,,,,,,,8,16,,,,,,,,,,,8,1.66,1,,,,,,0.378703788,-0.385185171,1,0,0,1.6604,Pumice_rect,14,0,14,0,1,
5f79bca83a2eb65c0983816d,TCR,2024-06-21_14h18.29.020,LearnStrategy,2023.2.3,Win32,59.88023952,2,2,16,,,,,,,,1,05,,,,,,,,,,,1,2.591,1,,,,,,-0.385185171,-0.23055557,1,0,0,2.5906,Andesite_rect,15,0,15,0,1,
5f79bca83a2eb65c0983816d,TCR,2024-06-21_14h18.29.020,LearnStrategy,2023.2.3,Win32,59.88023952,3,1,1,-0.068518533,0.002777771,1,0,0,1.6091,rock_grid_rect_2,1,06,-1,-1,1.609,0.376851824,-0.262962977,1,0,0,4.3618,Gabbro_rect,4,4.362,0,0,0,0,0,1,,,,,,,,,,,,,
5f79bca83a2eb65c0983816d,TCR,2024-06-21_14h18.29.020,LearnStrategy,2023.2.3,Win32,59.88023952,3,1,2,-0.003703718,-0.022222236,1,0,0,1.5241,rock_grid_rect_2,3,16,-1,-1,1.524,0.110185199,-0.40370369,1,0,0,2.7014,Peridotite_rect,7,2.701,0,1,0,1,0,1,,,,,,,,,,,,,
5f79bca83a2eb65c0983816d,TCR,2024-06-21_14h18.29.020,LearnStrategy,2023.2.3,Win32,59.88023952,3,1,3,0.101851852,-0.001851859,1,0,0,1.5755,rock_grid_rect_2,3,02,-1,-1,1.575,-0.095370328,-0.401851866,1,0,0,3.0086,Pegmatite_rect,6,3.009,0,2,0,2,0,1,,,,,,,,,,,,,
5f79bca83a2eb65c0983816d,TCR,2024-06-21_14h18.29.020,LearnStrategy,2023.2.3,Win32,59.88023952,3,1,4,0.065740727,0.002777771,1,0,0,1.5088,rock_grid_rect_2,4,08,-1,-1,1.509,-0.146296254,-0.236111111,1,0,0,2.5793,Basalt_rect,2,2.579,0,3,0,3,0,1,,,,,,,,,,,,,
5f79bca83a2eb65c0983816d,TCR,2024-06-21_14h18.29.020,LearnStrategy,2023.2.3,Win32,59.88023952,3,1,5,0.098148134,-0.001851859,1,0,0,2.2784,rock_grid_rect_2,6,12,-1,-1,2.278,-0.058333291,-0.392592607,1,0,0,2.2697,Pegmatite_rect,6,2.27,1,4,0,4,0,1,,,,,,,,,,,,,
5f79bca83a2eb65c0983816d,TCR,2024-06-21_14h18.29.020,LearnStrategy,2023.2.3,Win32,59.88023952,3,1,6,0.078703704,-0.002777771,1,0,0,3.713,rock_grid_rect_2,4,15,-1,-1,3.713,0.138888889,-0.39907406,1,0,0,1.9572,Peridotite_rect,7,1.957,0,5,0,5,0,1,,,,,,,,,,,,,
5f79bca83a2eb65c0983816d,TCR,2024-06-21_14h18.29.020,LearnStrategy,2023.2.3,Win32,59.88023952,3,1,7,0.039814843,-0.018518519,1,0,0,0.9609,rock_grid_rect_2,3,14,-1,-1,0.961,0.09629631,-0.389814801,1,0,0,1.4384,Peridotite_rect,7,1.438,0,6,0,6,0,1,,,,,,,,,,,,,
5f79bca83a2eb65c0983816d,TCR,2024-06-21_14h18.29.020,LearnStrategy,2023.2.3,Win32,59.88023952,3,1,8,0.123148176,-0.021296289,1,0,0,1.0766,rock_grid_rect_2,2,11,-1,-1,1.077,-0.148148148,-0.266666695,1,0,0,1.4791,Basalt_rect,2,1.479,1,7,0,7,0,1,,,,,,,,,,,,,
5f79bca83a2eb65c0983816d,TCR,2024-06-21_14h18.29.020,LearnStrategy,2023.2.3,Win32,59.88023952,3,1,9,0.062962991,0.006481489,1,0,0,1.4792,rock_grid_rect_2,2,11,-1,-1,1.479,-0.151851866,-0.267592607,1,0,0,2.0416,Basalt_rect,2,2.042,1,8,0,8,0,1,,,,,,,,,,,,,
5f79bca83a2eb65c0983816d,TCR,2024-06-21_14h18.29.020,LearnStrategy,2023.2.3,Win32,59.88023952,3,1,10,0.102777764,0.002777771,1,0,0,1.309,rock_grid_rect_2,7,06,-1,-1,1.309,0.132407436,-0.412037037,1,0,0,2.8647,Peridotite_rect,7,2.865,1,9,0,9,0,1,,,,,,,,,,,,,
5f79bca83a2eb65c0983816d,TCR,2024-06-21_14h18.29.020,LearnStrategy,2023.2.3,Win32,59.88023952,3,1,11,0.074999986,-0.0074074,1,0,0,1.5294,rock_grid_rect_2,7,04,-1,-1,1.529,-0.369444423,-0.244444459,1,0,0,3.4776,Andesite_rect,1,3.478,0,10,0,10,0,1,,,,,,,,,,,,,
5f79bca83a2eb65c0983816d,TCR,2024-06-21_14h18.29.020,LearnStrategy,2023.2.3,Win32,59.88023952,3,1,12,0.118518547,0.003703683,1,0,0,1.2606,rock_grid_rect_2,1,16,-1,-1,1.261,-0.135185171,-0.409259302,1,0,0,2.5608,Pegmatite_rect,6,2.561,0,11,0,11,0,1,,,,,,,,,,,,,
5f79bca83a2eb65c0983816d,TCR,2024-06-21_14h18.29.020,LearnStrategy,2023.2.3,Win32,59.88023952,3,1,13,0.110185199,-0.000925947,1,0,0,1.5754,rock_grid_rect_2,6,16,-1,-1,1.575,-0.085185157,-0.392592607,1,0,0,10.8821,Pegmatite_rect,6,10.882,1,12,0,12,0,1,,,,,,,,,,,,,
5f79bca83a2eb65c0983816d,TCR,2024-06-21_14h18.29.020,LearnStrategy,2023.2.3,Win32,59.88023952,3,1,14,0.05277782,0.006481489,1,0,0,1.3423,rock_grid_rect_2,4,08,-1,-1,1.342,0.440740797,-0.236111111,1,0,0,4.046,Gabbro_rect,4,4.046,1,13,0,13,0,1,,,,,,,,,,,,,
5f79bca83a2eb65c0983816d,TCR,2024-06-21_14h18.29.020,LearnStrategy,2023.2.3,Win32,59.88023952,3,1,15,0.104629658,-0.008333347,1,0,0,1.4278,rock_grid_rect_2,7,04,-1,-1,1.428,0.115740741,-0.234259288,1,0,0,1.8548,Diorite_rect,3,1.855,0,14,0,14,0,1,,,,,,,,,,,,,
5f79bca83a2eb65c0983816d,TCR,2024-06-21_14h18.29.020,LearnStrategy,2023.2.3,Win32,59.88023952,3,1,16,0.087037051,-0.024074095,1,0,0,1.2287,rock_grid_rect_2,2,01,-1,-1,1.229,-0.094444416,-0.242592635,1,0,0,1.3222,Basalt_rect,2,1.322,1,15,0,15,0,1,,,,,,,,,,,,,
5f79bca83a2eb65c0983816d,TCR,2024-06-21_14h18.29.020,LearnStrategy,2023.2.3,Win32,59.88023952,3,2,1,,,,,,,,6,15,,,,,,,,,,,6,2.741,1,,,,,,-0.098148134,-0.397222236,1,0,0,2.7414,Pegmatite_rect,0,0,0,0,1,
5f79bca83a2eb65c0983816d,TCR,2024-06-21_14h18.29.020,LearnStrategy,2023.2.3,Win32,59.88023952,3,2,2,,,,,,,,8,02,,,,,,,,,,,8,3.124,1,,,,,,0.363888917,-0.392592607,1,0,0,3.1236,Pumice_rect,1,0,1,0,1,
5f79bca83a2eb65c0983816d,TCR,2024-06-21_14h18.29.020,LearnStrategy,2023.2.3,Win32,59.88023952,3,2,3,,,,,,,,7,07,,,,,,,,,,,7,2.845,1,,,,,,0.126851894,-0.411111125,1,0,0,2.8453,Peridotite_rect,2,0,2,0,1,
5f79bca83a2eb65c0983816d,TCR,2024-06-21_14h18.29.020,LearnStrategy,2023.2.3,Win32,59.88023952,3,2,4,,,,,,,,4,11,,,,,,,,,,,4,1.847,1,,,,,,0.382407436,-0.248148176,1,0,0,1.8469,Gabbro_rect,3,0,3,0,1,
5f79bca83a2eb65c0983816d,TCR,2024-06-21_14h18.29.020,LearnStrategy,2023.2.3,Win32,59.88023952,3,2,5,,,,,,,,4,14,,,,,,,,,,,4,1.015,1,,,,,,0.382407436,-0.248148176,1,0,0,1.0154,Gabbro_rect,4,0,4,0,1,
5f79bca83a2eb65c0983816d,TCR,2024-06-21_14h18.29.020,LearnStrategy,2023.2.3,Win32,59.88023952,3,2,6,,,,,,,,3,10,,,,,,,,,,,7,1.555,0,,,,,,0.186111097,-0.407407407,1,0,0,1.5545,Peridotite_rect,5,0,5,0,1,
5f79bca83a2eb65c0983816d,TCR,2024-06-21_14h18.29.020,LearnStrategy,2023.2.3,Win32,59.88023952,3,2,7,,,,,,,,1,14,,,,,,,,,,,6,3.289,0,,,,,,-0.092592593,-0.413888931,1,0,0,3.2886,Pegmatite_rect,6,0,6,0,1,
5f79bca83a2eb65c0983816d,TCR,2024-06-21_14h18.29.020,LearnStrategy,2023.2.3,Win32,59.88023952,3,2,8,,,,,,,,8,15,,,,,,,,,,,8,1.746,1,,,,,,0.394444501,-0.397222236,1,0,0,1.7462,Pumice_rect,7,0,7,0,1,
5f79bca83a2eb65c0983816d,TCR,2024-06-21_14h18.29.020,LearnStrategy,2023.2.3,Win32,59.88023952,3,2,9,,,,,,,,7,14,,,,,,,,,,,7,2.045,1,,,,,,0.171296296,-0.398148148,1,0,0,2.0454,Peridotite_rect,8,0,8,0,1,
5f79bca83a2eb65c0983816d,TCR,2024-06-21_14h18.29.020,LearnStrategy,2023.2.3,Win32,59.88023952,3,2,10,,,,,,,,5,02,,,,,,,,,,,5,1.611,1,,,,,,-0.359259252,-0.389814801,1,0,0,1.6112,Obsidian_rect,9,0,9,0,1,
5f79bca83a2eb65c0983816d,TCR,2024-06-21_14h18.29.020,LearnStrategy,2023.2.3,Win32,59.88023952,3,2,11,,,,,,,,2,08,,,,,,,,,,,2,2.17,1,,,,,,-0.146296254,-0.255555541,1,0,0,2.17,Basalt_rect,10,0,10,0,1,
5f79bca83a2eb65c0983816d,TCR,2024-06-21_14h18.29.020,LearnStrategy,2023.2.3,Win32,59.88023952,3,2,12,,,,,,,,1,11,,,,,,,,,,,1,7.318,1,,,,,,-0.390740748,-0.265740783,1,0,0,7.3177,Andesite_rect,11,0,11,0,1,
5f79bca83a2eb65c0983816d,TCR,2024-06-21_14h18.29.020,LearnStrategy,2023.2.3,Win32,59.88023952,3,2,13,,,,,,,,2,02,,,,,,,,,,,2,1.756,1,,,,,,-0.16851849,-0.250925912,1,0,0,1.7559,Basalt_rect,12,0,12,0,1,
5f79bca83a2eb65c0983816d,TCR,2024-06-21_14h18.29.020,LearnStrategy,2023.2.3,Win32,59.88023952,3,2,14,,,,,,,,3,07,,,,,,,,,,,6,6.651,0,,,,,,-0.09629631,-0.412962949,1,0,0,6.6514,Pegmatite_rect,13,0,13,0,1,
5f79bca83a2eb65c0983816d,TCR,2024-06-21_14h18.29.020,LearnStrategy,2023.2.3,Win32,59.88023952,3,2,15,,,,,,,,6,03,,,,,,,,,,,7,2.905,0,,,,,,0.123148176,-0.387962977,1,0,0,2.905,Peridotite_rect,14,0,14,0,1,
5f79bca83a2eb65c0983816d,TCR,2024-06-21_14h18.29.020,LearnStrategy,2023.2.3,Win32,59.88023952,3,2,16,,,,,,,,5,05,,,,,,,,,,,5,1.883,1,,,,,,-0.347222222,-0.411111125,1,0,0,1.8833,Obsidian_rect,15,0,15,0,1,
5f79bca83a2eb65c0983816d,TCR,2024-06-21_14h18.29.020,LearnStrategy,2023.2.3,Win32,59.88023952,4,1,1,0.111111111,-0.0074074,1,0,0,1.6443,rock_grid_rect_2,3,02,-1,-1,1.644,-0.132407365,-0.392592607,1,0,0,2.8957,Pegmatite_rect,6,2.896,0,0,0,0,0,1,,,,,,,,,,,,,
5f79bca83a2eb65c0983816d,TCR,2024-06-21_14h18.29.020,LearnStrategy,2023.2.3,Win32,59.88023952,4,1,2,0.09629631,-0.002777771,1,0,0,2.412,rock_grid_rect_2,1,10,-1,-1,2.412,0.338888945,-0.244444459,1,0,0,2.51,Gabbro_rect,4,2.51,0,1,0,1,0,1,,,,,,,,,,,,,
5f79bca83a2eb65c0983816d,TCR,2024-06-21_14h18.29.020,LearnStrategy,2023.2.3,Win32,59.88023952,4,1,3,0.055555556,-0.01203703,1,0,0,1.2599,rock_grid_rect_2,3,09,-1,-1,1.26,-0.095370328,-0.406481496,1,0,0,3.6272,Pegmatite_rect,6,3.627,0,2,0,2,0,1,,,,,,,,,,,,,
5f79bca83a2eb65c0983816d,TCR,2024-06-21_14h18.29.020,LearnStrategy,2023.2.3,Win32,59.88023952,4,1,4,0.107407393,0.009259259,1,0,0,2.0451,rock_grid_rect_2,4,03,-1,-1,2.045,0.415740826,-0.264814801,1,0,0,2.9849,Gabbro_rect,4,2.985,1,3,0,3,0,1,,,,,,,,,,,,,
5f79bca83a2eb65c0983816d,TCR,2024-06-21_14h18.29.020,LearnStrategy,2023.2.3,Win32,59.88023952,4,1,5,0.150925954,0.006481489,1,0,0,1.5111,rock_grid_rect_2,2,05,-1,-1,1.511,-0.081481439,-0.244444459,1,0,0,1.4798,Basalt_rect,2,1.48,1,4,0,4,0,1,,,,,,,,,,,,,
5f79bca83a2eb65c0983816d,TCR,2024-06-21_14h18.29.020,LearnStrategy,2023.2.3,Win32,59.88023952,4,1,6,0.125925912,-0.013888889,1,0,0,1.4736,rock_grid_rect_2,6,16,-1,-1,1.474,-0.093518504,-0.412962949,1,0,0,3.6821,Pegmatite_rect,6,3.682,1,5,0,5,0,1,,,,,,,,,,,,,
5f79bca83a2eb65c0983816d,TCR,2024-06-21_14h18.29.020,LearnStrategy,2023.2.3,Win32,59.88023952,4,1,7,0.074999986,0.013888889,1,0,0,1.2093,rock_grid_rect_2,4,08,-1,-1,1.209,0.42314812,-0.261111153,1,0,0,5.2343,Gabbro_rect,4,5.234,1,6,0,6,0,1,,,,,,,,,,,,,
5f79bca83a2eb65c0983816d,TCR,2024-06-21_14h18.29.020,LearnStrategy,2023.2.3,Win32,59.88023952,4,1,8,0.123148176,-0.013888889,1,0,0,1.2556,rock_grid_rect_2,7,12,-1,-1,1.256,0.148148148,-0.390740783,1,0,0,4.1089,Peridotite_rect,7,4.109,1,7,0,7,0,1,,,,,,,,,,,,,
5f79bca83a2eb65c0983816d,TCR,2024-06-21_14h18.29.020,LearnStrategy,2023.2.3,Win32,59.88023952,4,1,9,0.111111111,-0.008333347,1,0,0,0.981,rock_grid_rect_2,8,13,-1,-1,0.981,0.406481566,-0.421296296,1,0,0,2.4855,Pumice_rect,8,2.486,1,8,0,8,0,1,,,,,,,,,,,,,
5f79bca83a2eb65c0983816d,TCR,2024-06-21_14h18.29.020,LearnStrategy,2023.2.3,Win32,59.88023952,4,1,10,0.162037037,-0.019444466,1,0,0,1.5027,rock_grid_rect_2,7,06,-1,-1,1.503,0.138888889,-0.412962949,1,0,0,2.4899,Peridotite_rect,7,2.49,1,9,0,9,0,1,,,,,,,,,,,,,
5f79bca83a2eb65c0983816d,TCR,2024-06-21_14h18.29.020,LearnStrategy,2023.2.3,Win32,59.88023952,4,1,11,0.112963005,-0.009259259,1,0,0,1.3781,rock_grid_rect_2,6,16,-1,-1,1.378,-0.127777735,-0.411111125,1,0,0,4.1952,Pegmatite_rect,6,4.195,1,10,0,10,0,1,,,,,,,,,,,,,
5f79bca83a2eb65c0983816d,TCR,2024-06-21_14h18.29.020,LearnStrategy,2023.2.3,Win32,59.88023952,4,1,12,0.069444444,-0.0074074,1,0,0,1.3819,rock_grid_rect_2,3,16,-1,-1,1.382,-0.333333333,-0.262962977,1,0,0,4.3278,Andesite_rect,1,4.328,0,11,0,11,0,1,,,,,,,,,,,,,
5f79bca83a2eb65c0983816d,TCR,2024-06-21_14h18.29.020,LearnStrategy,2023.2.3,Win32,59.88023952,4,1,13,0.07685188,0.000925912,1,0,0,1.3917,rock_grid_rect_2,2,14,-1,-1,1.392,0.387963048,-0.388888889,1,0,0,4.1096,Pumice_rect,8,4.11,0,12,0,12,0,1,,,,,,,,,,,,,
5f79bca83a2eb65c0983816d,TCR,2024-06-21_14h18.29.020,LearnStrategy,2023.2.3,Win32,59.88023952,4,1,14,0.062962991,-0.014814836,1,0,0,1.392,rock_grid_rect_2,6,12,-1,-1,1.392,-0.050925926,-0.404629672,1,0,0,3.8864,Pegmatite_rect,6,3.886,1,13,0,13,0,1,,,,,,,,,,,,,
5f79bca83a2eb65c0983816d,TCR,2024-06-21_14h18.29.020,LearnStrategy,2023.2.3,Win32,59.88023952,4,1,15,0.073148162,-0.013888889,1,0,0,1.3806,rock_grid_rect_2,3,09,-1,-1,1.381,0.176851838,-0.266666695,1,0,0,4.7957,Diorite_rect,3,4.796,1,14,0,14,0,1,,,,,,,,,,,,,
5f79bca83a2eb65c0983816d,TCR,2024-06-21_14h18.29.020,LearnStrategy,2023.2.3,Win32,59.88023952,4,1,16,0.070370356,0.006481489,1,0,0,1.3228,rock_grid_rect_2,1,09,-1,-1,1.323,-0.092592593,-0.229629658,1,0,0,1.5388,Basalt_rect,2,1.539,0,15,0,15,0,1,,,,,,,,,,,,,
5f79bca83a2eb65c0983816d,TCR,2024-06-21_14h18.29.020,LearnStrategy,2023.2.3,Win32,59.88023952,4,2,1,,,,,,,,5,05,,,,,,,,,,,5,3.201,1,,,,,,-0.369444423,-0.417592578,1,0,0,3.2014,Obsidian_rect,0,0,0,0,1,
5f79bca83a2eb65c0983816d,TCR,2024-06-21_14h18.29.020,LearnStrategy,2023.2.3,Win32,59.88023952,4,2,2,,,,,,,,6,11,,,,,,,,,,,3,11.937,0,,,,,,0.091666681,-0.247222265,1,0,0,11.9372,Diorite_rect,1,0,1,0,1,
5f79bca83a2eb65c0983816d,TCR,2024-06-21_14h18.29.020,LearnStrategy,2023.2.3,Win32,59.88023952,4,2,3,,,,,,,,3,08,,,,,,,,,,,3,3.319,1,,,,,,0.091666681,-0.247222265,1,0,0,3.3189,Diorite_rect,2,0,2,0,1,
5f79bca83a2eb65c0983816d,TCR,2024-06-21_14h18.29.020,LearnStrategy,2023.2.3,Win32,59.88023952,4,2,4,,,,,,,,4,14,,,,,,,,,,,4,6.912,1,,,,,,0.395370342,-0.248148176,1,0,0,6.9117,Gabbro_rect,3,0,3,0,1,
5f79bca83a2eb65c0983816d,TCR,2024-06-21_14h18.29.020,LearnStrategy,2023.2.3,Win32,59.88023952,4,2,5,,,,,,,,8,04,,,,,,,,,,,8,1.95,1,,,,,,0.388888889,-0.378703718,1,0,0,1.9503,Pumice_rect,4,0,4,0,1,
5f79bca83a2eb65c0983816d,TCR,2024-06-21_14h18.29.020,LearnStrategy,2023.2.3,Win32,59.88023952,4,2,6,,,,,,,,3,10,,,,,,,,,,,7,2.465,0,,,,,,0.203703704,-0.391666695,1,0,0,2.4653,Peridotite_rect,5,0,5,0,1,
5f79bca83a2eb65c0983816d,TCR,2024-06-21_14h18.29.020,LearnStrategy,2023.2.3,Win32,59.88023952,4,2,7,,,,,,,,6,15,,,,,,,,,,,6,5.282,1,,,,,,-0.090740698,-0.411111125,1,0,0,5.2818,Pegmatite_rect,6,0,6,0,1,
5f79bca83a2eb65c0983816d,TCR,2024-06-21_14h18.29.020,LearnStrategy,2023.2.3,Win32,59.88023952,4,2,8,,,,,,,,5,16,,,,,,,,,,,5,1.541,1,,,,,,-0.328703704,-0.406481496,1,0,0,1.5408,Obsidian_rect,7,0,7,0,1,
5f79bca83a2eb65c0983816d,TCR,2024-06-21_14h18.29.020,LearnStrategy,2023.2.3,Win32,59.88023952,4,2,9,,,,,,,,2,12,,,,,,,,,,,1,2.092,0,,,,,,-0.360185164,-0.251851894,1,0,0,2.092,Andesite_rect,8,0,8,0,1,
5f79bca83a2eb65c0983816d,TCR,2024-06-21_14h18.29.020,LearnStrategy,2023.2.3,Win32,59.88023952,4,2,10,,,,,,,,7,10,,,,,,,,,,,7,4.543,1,,,,,,0.139814801,-0.386111153,1,0,0,4.5433,Peridotite_rect,9,0,9,0,1,
5f79bca83a2eb65c0983816d,TCR,2024-06-21_14h18.29.020,LearnStrategy,2023.2.3,Win32,59.88023952,4,2,11,,,,,,,,7,07,,,,,,,,,,,7,0.995,1,,,,,,0.139814801,-0.386111153,1,0,0,0.9951,Peridotite_rect,10,0,10,0,1,
5f79bca83a2eb65c0983816d,TCR,2024-06-21_14h18.29.020,LearnStrategy,2023.2.3,Win32,59.88023952,4,2,12,,,,,,,,4,11,,,,,,,,,,,1,4.134,0,,,,,,-0.353703711,-0.232407393,1,0,0,4.1341,Andesite_rect,11,0,11,0,1,
5f79bca83a2eb65c0983816d,TCR,2024-06-21_14h18.29.020,LearnStrategy,2023.2.3,Win32,59.88023952,4,2,13,,,,,,,,1,01,,,,,,,,,,,4,4.613,0,,,,,,0.342592593,-0.25462963,1,0,0,4.6131,Gabbro_rect,12,0,12,0,1,
5f79bca83a2eb65c0983816d,TCR,2024-06-21_14h18.29.020,LearnStrategy,2023.2.3,Win32,59.88023952,4,2,14,,,,,,,,8,06,,,,,,,,,,,8,1.476,1,,,,,,0.414814843,-0.408333319,1,0,0,1.4764,Pumice_rect,13,0,13,0,1,
5f79bca83a2eb65c0983816d,TCR,2024-06-21_14h18.29.020,LearnStrategy,2023.2.3,Win32,59.88023952,4,2,15,,,,,,,,2,09,,,,,,,,,,,1,3.045,0,,,,,,-0.319444444,-0.236111111,1,0,0,3.0447,Andesite_rect,14,0,14,0,1,
5f79bca83a2eb65c0983816d,TCR,2024-06-21_14h18.29.020,LearnStrategy,2023.2.3,Win32,59.88023952,4,2,16,,,,,,,,1,11,,,,,,,,,,,1,3.482,1,,,,,,-0.39907406,-0.239814829,1,0,0,3.482,Andesite_rect,15,0,15,0,1,
5f79bca83a2eb65c0983816d,TCR,2024-06-21_14h18.29.020,LearnStrategy,2023.2.3,Win32,59.88023952,5,1,1,0.128703718,0.010185171,1,0,0,2.1969,rock_grid_rect_2,6,08,-1,-1,2.197,-0.125925912,-0.395370413,1,0,0,2.3818,Pegmatite_rect,6,2.382,1,0,0,0,0,1,,,,,,,,,,,,,
5f79bca83a2eb65c0983816d,TCR,2024-06-21_14h18.29.020,LearnStrategy,2023.2.3,Win32,59.88023952,5,1,2,0.090740769,0.015740748,1,0,0,2.0391,rock_grid_rect_2,2,06,-1,-1,2.039,-0.155555513,-0.236111111,1,0,0,3.7624,Basalt_rect,2,3.762,1,1,0,1,0,1,,,,,,,,,,,,,
5f79bca83a2eb65c0983816d,TCR,2024-06-21_14h18.29.020,LearnStrategy,2023.2.3,Win32,59.88023952,5,1,3,0.009259259,-0.000925947,1,0,0,1.3766,rock_grid_rect_2,6,05,-1,-1,1.377,0.147222236,-0.261111153,1,0,0,2.3304,Diorite_rect,3,2.33,0,2,0,2,0,1,,,,,,,,,,,,,
5f79bca83a2eb65c0983816d,TCR,2024-06-21_14h18.29.020,LearnStrategy,2023.2.3,Win32,59.88023952,5,1,4,0.068518533,-0.015740748,1,0,0,1.4915,rock_grid_rect_2,4,08,-1,-1,1.491,0.40833339,-0.262037065,1,0,0,2.5637,Gabbro_rect,4,2.564,1,3,0,3,0,1,,,,,,,,,,,,,
5f79bca83a2eb65c0983816d,TCR,2024-06-21_14h18.29.020,LearnStrategy,2023.2.3,Win32,59.88023952,5,1,5,0.071296339,0,1,0,0,1.3639,rock_grid_rect_2,7,08,-1,-1,1.364,0.141666695,-0.398148148,1,0,0,2.2552,Peridotite_rect,7,2.255,1,4,0,4,0,1,,,,,,,,,,,,,
5f79bca83a2eb65c0983816d,TCR,2024-06-21_14h18.29.020,LearnStrategy,2023.2.3,Win32,59.88023952,5,1,6,0.087962963,-0.0074074,1,0,0,1.1439,rock_grid_rect_2,2,06,-1,-1,1.144,-0.156481496,-0.233333376,1,0,0,2.0185,Basalt_rect,2,2.019,1,5,0,5,0,1,,,,,,,,,,,,,
5f79bca83a2eb65c0983816d,TCR,2024-06-21_14h18.29.020,LearnStrategy,2023.2.3,Win32,59.88023952,5,1,7,0.074074074,0.015740748,1,0,0,1.4272,rock_grid_rect_2,1,06,-1,-1,1.427,-0.3824074,-0.26944443,1,0,0,21.0549,Andesite_rect,1,21.055,1,6,0,6,0,1,,,,,,,,,,,,,
5f79bca83a2eb65c0983816d,TCR,2024-06-21_14h18.29.020,LearnStrategy,2023.2.3,Win32,59.88023952,5,1,8,0.045370384,-0.012962977,1,0,0,1.5262,rock_grid_rect_2,3,16,-1,-1,1.526,0.375925982,-0.264814801,1,0,0,9.2724,Gabbro_rect,4,9.272,0,7,0,7,0,1,,,,,,,,,,,,,
5f79bca83a2eb65c0983816d,TCR,2024-06-21_14h18.29.020,LearnStrategy,2023.2.3,Win32,59.88023952,5,1,9,0.125,-0.011111118,1,0,0,1.3789,rock_grid_rect_2,8,05,-1,-1,1.379,0.444444444,-0.405555584,1,0,0,2.5597,Pumice_rect,8,2.56,1,8,0,8,0,1,,,,,,,,,,,,,
5f79bca83a2eb65c0983816d,TCR,2024-06-21_14h18.29.020,LearnStrategy,2023.2.3,Win32,59.88023952,5,1,10,0.10555557,-0.012962977,1,0,0,11.4158,rock_grid_rect_2,3,16,-1,-1,11.416,0.235185199,-0.235185199,1,0,0,4.2763,Diorite_rect,3,4.276,1,9,0,9,0,1,,,,,,,,,,,,,
5f79bca83a2eb65c0983816d,TCR,2024-06-21_14h18.29.020,LearnStrategy,2023.2.3,Win32,59.88023952,5,1,11,0.10555557,0.000925912,1,0,0,1.2153,rock_grid_rect_2,7,13,-1,-1,1.215,0.150000042,-0.402777778,1,0,0,11.5262,Peridotite_rect,7,11.526,1,10,0,10,0,1,,,,,,,,,,,,,
5f79bca83a2eb65c0983816d,TCR,2024-06-21_14h18.29.020,LearnStrategy,2023.2.3,Win32,59.88023952,5,1,12,0.112963005,-0.000925947,1,0,0,1.4287,rock_grid_rect_2,1,16,-1,-1,1.429,-0.338888875,-0.258333347,1,0,0,7.7484,Andesite_rect,1,7.748,1,11,0,11,0,1,,,,,,,,,,,,,
5f79bca83a2eb65c0983816d,TCR,2024-06-21_14h18.29.020,LearnStrategy,2023.2.3,Win32,59.88023952,5,1,13,0.10092594,-0.001851859,1,0,0,2.637,rock_grid_rect_2,4,15,-1,-1,2.637,0.407407407,-0.248148176,1,0,0,2.768,Gabbro_rect,4,2.768,1,12,0,12,0,1,,,,,,,,,,,,,
5f79bca83a2eb65c0983816d,TCR,2024-06-21_14h18.29.020,LearnStrategy,2023.2.3,Win32,59.88023952,5,1,14,0.099074116,0.001851859,1,0,0,1.0404,rock_grid_rect_2,2,04,-1,-1,1.04,-0.12037037,-0.236111111,1,0,0,1.5066,Basalt_rect,2,1.507,1,13,0,13,0,1,,,,,,,,,,,,,
5f79bca83a2eb65c0983816d,TCR,2024-06-21_14h18.29.020,LearnStrategy,2023.2.3,Win32,59.88023952,5,1,15,0.097222222,0,1,0,0,1.3604,rock_grid_rect_2,3,09,-1,-1,1.36,0.147222236,-0.256481524,1,0,0,1.5874,Diorite_rect,3,1.587,1,14,0,14,0,1,,,,,,,,,,,,,
5f79bca83a2eb65c0983816d,TCR,2024-06-21_14h18.29.020,LearnStrategy,2023.2.3,Win32,59.88023952,5,1,16,0.110185199,-0.022222236,1,0,0,1.5565,rock_grid_rect_2,1,07,-1,-1,1.557,0.138888889,-0.237963005,1,0,0,1.4377,Diorite_rect,3,1.438,0,15,0,15,0,1,,,,,,,,,,,,,
5f79bca83a2eb65c0983816d,TCR,2024-06-21_14h18.29.020,LearnStrategy,2023.2.3,Win32,59.88023952,5,2,1,,,,,,,,8,16,,,,,,,,,,,2,4.401,0,,,,,,-0.138888889,-0.264814801,1,0,0,4.4008,Basalt_rect,0,0,0,0,1,
5f79bca83a2eb65c0983816d,TCR,2024-06-21_14h18.29.020,LearnStrategy,2023.2.3,Win32,59.88023952,5,2,2,,,,,,,,6,03,,,,,,,,,,,7,3.209,0,,,,,,0.180555556,-0.395370413,1,0,0,3.2086,Peridotite_rect,1,0,1,0,1,
5f79bca83a2eb65c0983816d,TCR,2024-06-21_14h18.29.020,LearnStrategy,2023.2.3,Win32,59.88023952,5,2,3,,,,,,,,4,10,,,,,,,,,,,4,3.073,1,,,,,,0.406481566,-0.243518547,1,0,0,3.0728,Gabbro_rect,2,0,2,0,1,
5f79bca83a2eb65c0983816d,TCR,2024-06-21_14h18.29.020,LearnStrategy,2023.2.3,Win32,59.88023952,5,2,4,,,,,,,,5,06,,,,,,,,,,,5,2.392,1,,,,,,-0.357407393,-0.407407407,1,0,0,2.3923,Obsidian_rect,3,0,3,0,1,
5f79bca83a2eb65c0983816d,TCR,2024-06-21_14h18.29.020,LearnStrategy,2023.2.3,Win32,59.88023952,5,2,5,,,,,,,,7,15,,,,,,,,,,,7,2.286,1,,,,,,0.194444444,-0.415740755,1,0,0,2.2862,Peridotite_rect,4,0,4,0,1,
5f79bca83a2eb65c0983816d,TCR,2024-06-21_14h18.29.020,LearnStrategy,2023.2.3,Win32,59.88023952,5,2,6,,,,,,,,3,06,,,,,,,,,,,3,2.286,1,,,,,,0.166666667,-0.262962977,1,0,0,2.2858,Diorite_rect,5,0,5,0,1,
5f79bca83a2eb65c0983816d,TCR,2024-06-21_14h18.29.020,LearnStrategy,2023.2.3,Win32,59.88023952,5,2,7,,,,,,,,6,10,,,,,,,,,,,7,7.731,0,,,,,,0.157407407,-0.411111125,1,0,0,7.7306,Peridotite_rect,6,0,6,0,1,
5f79bca83a2eb65c0983816d,TCR,2024-06-21_14h18.29.020,LearnStrategy,2023.2.3,Win32,59.88023952,5,2,8,,,,,,,,3,11,,,,,,,,,,,3,3.906,1,,,,,,0.164814843,-0.253703718,1,0,0,3.906,Diorite_rect,7,0,7,0,1,
5f79bca83a2eb65c0983816d,TCR,2024-06-21_14h18.29.020,LearnStrategy,2023.2.3,Win32,59.88023952,5,2,9,,,,,,,,7,05,,,,,,,,,,,7,4.03,1,,,,,,0.139814801,-0.402777778,1,0,0,4.0298,Peridotite_rect,8,0,8,0,1,
5f79bca83a2eb65c0983816d,TCR,2024-06-21_14h18.29.020,LearnStrategy,2023.2.3,Win32,59.88023952,5,2,10,,,,,,,,5,09,,,,,,,,,,,5,1.577,1,,,,,,-0.333333333,-0.410185213,1,0,0,1.577,Obsidian_rect,9,0,9,0,1,
5f79bca83a2eb65c0983816d,TCR,2024-06-21_14h18.29.020,LearnStrategy,2023.2.3,Win32,59.88023952,5,2,11,,,,,,,,2,08,,,,,,,,,,,2,1.551,1,,,,,,-0.086111069,-0.24537037,1,0,0,1.5514,Basalt_rect,10,0,10,0,1,
5f79bca83a2eb65c0983816d,TCR,2024-06-21_14h18.29.020,LearnStrategy,2023.2.3,Win32,59.88023952,5,2,12,,,,,,,,2,16,,,,,,,,,,,4,4.11,0,,,,,,0.394444501,-0.238888917,1,0,0,4.1104,Gabbro_rect,11,0,11,0,1,
5f79bca83a2eb65c0983816d,TCR,2024-06-21_14h18.29.020,LearnStrategy,2023.2.3,Win32,59.88023952,5,2,13,,,,,,,,1,05,,,,,,,,,,,1,2.873,1,,,,,,-0.365740741,-0.256481524,1,0,0,2.8732,Andesite_rect,12,0,12,0,1,
5f79bca83a2eb65c0983816d,TCR,2024-06-21_14h18.29.020,LearnStrategy,2023.2.3,Win32,59.88023952,5,2,14,,,,,,,,8,15,,,,,,,,,,,8,2.577,1,,,,,,0.350000028,-0.405555584,1,0,0,2.5774,Pumice_rect,13,0,13,0,1,
5f79bca83a2eb65c0983816d,TCR,2024-06-21_14h18.29.020,LearnStrategy,2023.2.3,Win32,59.88023952,5,2,15,,,,,,,,4,12,,,,,,,,,,,1,3.141,0,,,,,,-0.350925905,-0.247222265,1,0,0,3.1415,Andesite_rect,14,0,14,0,1,
5f79bca83a2eb65c0983816d,TCR,2024-06-21_14h18.29.020,LearnStrategy,2023.2.3,Win32,59.88023952,5,2,16,,,,,,,,1,02,,,,,,,,,,,4,2.225,0,,,,,,0.417592649,-0.267592607,1,0,0,2.2246,Gabbro_rect,15,0,15,0,1,
5f79bca83a2eb65c0983816d,TCR,2024-06-21_14h18.29.020,LearnStrategy,2023.2.3,Win32,59.88023952,6,1,1,0.134259259,-0.014814836,1,0,0,1.4789,rock_grid_rect_2,6,06,-1,-1,1.479,0.135185171,-0.415740755,1,0,0,4.2414,Peridotite_rect,7,4.241,0,0,0,0,0,1,,,,,,,,,,,,,
5f79bca83a2eb65c0983816d,TCR,2024-06-21_14h18.29.020,LearnStrategy,2023.2.3,Win32,59.88023952,6,1,2,0.163888931,0.003703683,1,0,0,1.4432,rock_grid_rect_2,4,16,-1,-1,1.443,-0.132407365,-0.262962977,1,0,0,4.6815,Basalt_rect,2,4.681,0,1,0,1,0,1,,,,,,,,,,,,,
5f79bca83a2eb65c0983816d,TCR,2024-06-21_14h18.29.020,LearnStrategy,2023.2.3,Win32,59.88023952,6,1,3,0.084259245,0.01666666,1,0,0,1.3645,rock_grid_rect_2,1,07,-1,-1,1.365,0.190740727,-0.240740741,1,0,0,1.3386,Diorite_rect,3,1.339,0,2,0,2,0,1,,,,,,,,,,,,,
5f79bca83a2eb65c0983816d,TCR,2024-06-21_14h18.29.020,LearnStrategy,2023.2.3,Win32,59.88023952,6,1,4,0.141666695,-0.01203703,1,0,0,1.4432,rock_grid_rect_2,2,11,-1,-1,1.443,-0.413888896,-0.26944443,1,0,0,2.3818,Andesite_rect,1,2.382,0,3,0,3,0,1,,,,,,,,,,,,,
5f79bca83a2eb65c0983816d,TCR,2024-06-21_14h18.29.020,LearnStrategy,2023.2.3,Win32,59.88023952,6,1,5,0.115740741,0.011111118,1,0,0,1.696,rock_grid_rect_2,4,08,-1,-1,1.696,0.42777775,-0.23055557,1,0,0,2.8078,Gabbro_rect,4,2.808,1,4,0,4,0,1,,,,,,,,,,,,,
5f79bca83a2eb65c0983816d,TCR,2024-06-21_14h18.29.020,LearnStrategy,2023.2.3,Win32,59.88023952,6,1,6,0.133333347,0.005555541,1,0,0,1.2092,rock_grid_rect_2,6,09,-1,-1,1.209,0.118518547,-0.387037065,1,0,0,2.5093,Peridotite_rect,7,2.509,0,5,0,5,0,1,,,,,,,,,,,,,
5f79bca83a2eb65c0983816d,TCR,2024-06-21_14h18.29.020,LearnStrategy,2023.2.3,Win32,59.88023952,6,1,7,0.074074074,0.017592571,1,0,0,1.552,rock_grid_rect_2,8,05,-1,-1,1.552,0.400925954,-0.404629672,1,0,0,1.5955,Pumice_rect,8,1.595,1,6,0,6,0,1,,,,,,,,,,,,,
5f79bca83a2eb65c0983816d,TCR,2024-06-21_14h18.29.020,LearnStrategy,2023.2.3,Win32,59.88023952,6,1,8,-0.012036995,-0.002777771,1,0,0,1.8307,rock_grid_rect_2,3,14,-1,-1,1.831,0.097222222,-0.257407436,1,0,0,1.6564,Diorite_rect,3,1.656,1,7,0,7,0,1,,,,,,,,,,,,,
5f79bca83a2eb65c0983816d,TCR,2024-06-21_14h18.29.020,LearnStrategy,2023.2.3,Win32,59.88023952,6,1,9,0.009259259,-0.011111118,1,0,0,1.2107,rock_grid_rect_2,2,11,-1,-1,1.211,-0.113888847,-0.26944443,1,0,0,1.5853,Basalt_rect,2,1.585,1,8,0,8,0,1,,,,,,,,,,,,,
5f79bca83a2eb65c0983816d,TCR,2024-06-21_14h18.29.020,LearnStrategy,2023.2.3,Win32,59.88023952,6,1,10,0.101851852,0.012962942,1,0,0,1.6123,rock_grid_rect_2,1,09,-1,-1,1.612,-0.40648146,-0.243518547,1,0,0,1.6261,Andesite_rect,1,1.626,1,9,0,9,0,1,,,,,,,,,,,,,
5f79bca83a2eb65c0983816d,TCR,2024-06-21_14h18.29.020,LearnStrategy,2023.2.3,Win32,59.88023952,6,1,11,-0.023148148,0.002777771,1,0,0,3.1915,rock_grid_rect_2,3,13,-1,-1,3.192,0.147222236,-0.238888917,1,0,0,2.0661,Diorite_rect,3,2.066,1,10,0,10,0,1,,,,,,,,,,,,,
5f79bca83a2eb65c0983816d,TCR,2024-06-21_14h18.29.020,LearnStrategy,2023.2.3,Win32,59.88023952,6,1,12,-0.078703704,0.001851859,1,0,0,1.2897,rock_grid_rect_2,7,04,-1,-1,1.29,0.075925968,-0.383333347,1,0,0,2.9064,Peridotite_rect,7,2.906,1,11,0,11,0,1,,,,,,,,,,,,,
5f79bca83a2eb65c0983816d,TCR,2024-06-21_14h18.29.020,LearnStrategy,2023.2.3,Win32,59.88023952,6,1,13,-0.071296268,-0.017592607,1,0,0,1.3719,rock_grid_rect_2,4,05,-1,-1,1.372,0.507407436,-0.262962977,1,0,0,2.4716,Gabbro_rect,4,2.472,1,12,0,12,0,1,,,,,,,,,,,,,
5f79bca83a2eb65c0983816d,TCR,2024-06-21_14h18.29.020,LearnStrategy,2023.2.3,Win32,59.88023952,6,1,14,0.034259302,-0.009259259,1,0,0,1.5089,rock_grid_rect_2,1,09,-1,-1,1.509,-0.123148106,-0.248148176,1,0,0,1.6244,Basalt_rect,2,1.624,0,13,0,13,0,1,,,,,,,,,,,,,
5f79bca83a2eb65c0983816d,TCR,2024-06-21_14h18.29.020,LearnStrategy,2023.2.3,Win32,59.88023952,6,1,15,-0.032407407,-0.006481489,1,0,0,1.5932,rock_grid_rect_2,6,16,-1,-1,1.593,-0.150925884,-0.387962977,1,0,0,2.5839,Pegmatite_rect,6,2.584,1,14,0,14,0,1,,,,,,,,,,,,,
5f79bca83a2eb65c0983816d,TCR,2024-06-21_14h18.29.020,LearnStrategy,2023.2.3,Win32,59.88023952,6,1,16,0.064814815,-0.012962977,1,0,0,1.3252,rock_grid_rect_2,2,04,-1,-1,1.325,-0.134259259,-0.25,1,0,0,3.6991,Basalt_rect,2,3.699,1,15,0,15,0,1,,,,,,,,,,,,,
5f79bca83a2eb65c0983816d,TCR,2024-06-21_14h18.29.020,LearnStrategy,2023.2.3,Win32,59.88023952,6,2,1,,,,,,,,3,07,,,,,,,,,,,3,5.574,1,,,,,,0.140740783,-0.241666653,1,0,0,5.5737,Diorite_rect,0,0,0,0,1,
5f79bca83a2eb65c0983816d,TCR,2024-06-21_14h18.29.020,LearnStrategy,2023.2.3,Win32,59.88023952,6,2,2,,,,,,,,2,10,,,,,,,,,,,2,2.87,1,,,,,,-0.139814801,-0.244444459,1,0,0,2.8699,Basalt_rect,1,0,1,0,1,
5f79bca83a2eb65c0983816d,TCR,2024-06-21_14h18.29.020,LearnStrategy,2023.2.3,Win32,59.88023952,6,2,3,,,,,,,,7,02,,,,,,,,,,,7,3.572,1,,,,,,0.127777806,-0.412962949,1,0,0,3.5716,Peridotite_rect,2,0,2,0,1,
5f79bca83a2eb65c0983816d,TCR,2024-06-21_14h18.29.020,LearnStrategy,2023.2.3,Win32,59.88023952,6,2,4,,,,,,,,6,13,,,,,,,,,,,6,2.183,1,,,,,,-0.087037051,-0.407407407,1,0,0,2.1827,Pegmatite_rect,3,0,3,0,1,
5f79bca83a2eb65c0983816d,TCR,2024-06-21_14h18.29.020,LearnStrategy,2023.2.3,Win32,59.88023952,6,2,5,,,,,,,,1,14,,,,,,,,,,,1,4.036,1,,,,,,-0.355555534,-0.248148176,1,0,0,4.0356,Andesite_rect,4,0,4,0,1,
5f79bca83a2eb65c0983816d,TCR,2024-06-21_14h18.29.020,LearnStrategy,2023.2.3,Win32,59.88023952,6,2,6,,,,,,,,4,01,,,,,,,,,,,4,3.5,1,,,,,,0.437962991,-0.241666653,1,0,0,3.5003,Gabbro_rect,5,0,5,0,1,
5f79bca83a2eb65c0983816d,TCR,2024-06-21_14h18.29.020,LearnStrategy,2023.2.3,Win32,59.88023952,6,2,7,,,,,,,,6,07,,,,,,,,,,,7,4.039,0,,,,,,0.10555557,-0.408333319,1,0,0,4.0388,Peridotite_rect,6,0,6,0,1,
5f79bca83a2eb65c0983816d,TCR,2024-06-21_14h18.29.020,LearnStrategy,2023.2.3,Win32,59.88023952,6,2,8,,,,,,,,8,02,,,,,,,,,,,8,4.565,1,,,,,,0.398148148,-0.395370413,1,0,0,4.5654,Pumice_rect,7,0,7,0,1,
5f79bca83a2eb65c0983816d,TCR,2024-06-21_14h18.29.020,LearnStrategy,2023.2.3,Win32,59.88023952,6,2,9,,,,,,,,7,14,,,,,,,,,,,7,3.933,1,,,,,,0.145370413,-0.39444443,1,0,0,3.933,Peridotite_rect,8,0,8,0,1,
5f79bca83a2eb65c0983816d,TCR,2024-06-21_14h18.29.020,LearnStrategy,2023.2.3,Win32,59.88023952,6,2,10,,,,,,,,2,02,,,,,,,,,,,2,1.426,1,,,,,,-0.099999958,-0.244444459,1,0,0,1.4263,Basalt_rect,9,0,9,0,1,
5f79bca83a2eb65c0983816d,TCR,2024-06-21_14h18.29.020,LearnStrategy,2023.2.3,Win32,59.88023952,6,2,11,,,,,,,,3,12,,,,,,,,,,,3,3.401,1,,,,,,0.106481481,-0.267592607,1,0,0,3.4013,Diorite_rect,10,0,10,0,1,
5f79bca83a2eb65c0983816d,TCR,2024-06-21_14h18.29.020,LearnStrategy,2023.2.3,Win32,59.88023952,6,2,12,,,,,,,,4,09,,,,,,,,,,,4,6.769,1,,,,,,0.389814871,-0.229629658,1,0,0,6.769,Gabbro_rect,11,0,11,0,1,
5f79bca83a2eb65c0983816d,TCR,2024-06-21_14h18.29.020,LearnStrategy,2023.2.3,Win32,59.88023952,6,2,13,,,,,,,,1,03,,,,,,,,,,,2,6.009,0,,,,,,-0.17314812,-0.253703718,1,0,0,6.0088,Basalt_rect,12,0,12,0,1,
5f79bca83a2eb65c0983816d,TCR,2024-06-21_14h18.29.020,LearnStrategy,2023.2.3,Win32,59.88023952,6,2,14,,,,,,,,5,04,,,,,,,,,,,5,1.655,1,,,,,,-0.324999986,-0.420370384,1,0,0,1.6547,Obsidian_rect,13,0,13,0,1,
5f79bca83a2eb65c0983816d,TCR,2024-06-21_14h18.29.020,LearnStrategy,2023.2.3,Win32,59.88023952,6,2,15,,,,,,,,8,03,,,,,,,,,,,8,2.429,1,,,,,,0.412963019,-0.414814843,1,0,0,2.4285,Pumice_rect,14,0,14,0,1,
5f79bca83a2eb65c0983816d,TCR,2024-06-21_14h18.29.020,LearnStrategy,2023.2.3,Win32,59.88023952,6,2,16,,,,,,,,5,02,,,,,,,,,,,5,2.245,1,,,,,,-0.421296296,-0.392592607,1,0,0,2.2448,Obsidian_rect,15,0,15,0,1,
5f79bca83a2eb65c0983816d,TCR,2024-06-21_14h18.29.020,LearnStrategy,2023.2.3,Win32,59.88023952,7,1,1,0.125925912,-0.003703718,1,0,0,4.0318,rock_grid_rect_2,4,08,-1,-1,4.032,0.402777778,-0.262962977,1,0,0,3.5562,Gabbro_rect,4,3.556,1,0,0,0,0,1,,,,,,,,,,,,,
5f79bca83a2eb65c0983816d,TCR,2024-06-21_14h18.29.020,LearnStrategy,2023.2.3,Win32,59.88023952,7,1,2,0.109259288,0.003703683,1,0,0,1.1456,rock_grid_rect_2,7,12,-1,-1,1.146,0.12962963,-0.391666695,1,0,0,3.0835,Peridotite_rect,7,3.083,1,1,0,1,0,1,,,,,,,,,,,,,
5f79bca83a2eb65c0983816d,TCR,2024-06-21_14h18.29.020,LearnStrategy,2023.2.3,Win32,59.88023952,7,1,3,0.108333376,0.001851859,1,0,0,1.5423,rock_grid_rect_2,2,01,-1,-1,1.542,-0.139814801,-0.271296325,1,0,0,2.1033,Basalt_rect,2,2.103,1,2,0,2,0,1,,,,,,,,,,,,,
5f79bca83a2eb65c0983816d,TCR,2024-06-21_14h18.29.020,LearnStrategy,2023.2.3,Win32,59.88023952,7,1,4,0.082407422,-0.011111118,1,0,0,1.593,rock_grid_rect_2,6,08,-1,-1,1.593,-0.160185143,-0.402777778,1,0,0,1.6684,Pegmatite_rect,6,1.668,1,3,0,3,0,1,,,,,,,,,,,,,
5f79bca83a2eb65c0983816d,TCR,2024-06-21_14h18.29.020,LearnStrategy,2023.2.3,Win32,59.88023952,7,1,5,0.114814829,0.003703683,1,0,0,1.0941,rock_grid_rect_2,6,16,-1,-1,1.094,0.161111125,-0.257407436,1,0,0,4.3828,Diorite_rect,3,4.383,0,4,0,4,0,1,,,,,,,,,,,,,
5f79bca83a2eb65c0983816d,TCR,2024-06-21_14h18.29.020,LearnStrategy,2023.2.3,Win32,59.88023952,7,1,6,0.139814801,-0.003703718,1,0,0,1.1785,rock_grid_rect_2,6,09,-1,-1,1.178,0.140740783,-0.390740783,1,0,0,1.6013,Peridotite_rect,7,1.601,0,5,0,5,0,1,,,,,,,,,,,,,
5f79bca83a2eb65c0983816d,TCR,2024-06-21_14h18.29.020,LearnStrategy,2023.2.3,Win32,59.88023952,7,1,7,0.192592621,-0.008333347,1,0,0,1.5613,rock_grid_rect_2,6,08,-1,-1,1.561,-0.134259259,-0.407407407,1,0,0,2.2662,Pegmatite_rect,6,2.266,1,6,0,6,0,1,,,,,,,,,,,,,
5f79bca83a2eb65c0983816d,TCR,2024-06-21_14h18.29.020,LearnStrategy,2023.2.3,Win32,59.88023952,7,1,8,0.087962963,0,1,0,0,3.6593,rock_grid_rect_2,1,10,-1,-1,3.659,-0.324074074,-0.239814829,1,0,0,1.8941,Andesite_rect,1,1.894,1,7,0,7,0,1,,,,,,,,,,,,,
5f79bca83a2eb65c0983816d,TCR,2024-06-21_14h18.29.020,LearnStrategy,2023.2.3,Win32,59.88023952,7,1,9,0.08148151,0,1,0,0,2.6893,rock_grid_rect_2,8,14,-1,-1,2.689,0.416666667,-0.414814843,1,0,0,2.6902,Pumice_rect,8,2.69,1,8,0,8,0,1,,,,,,,,,,,,,
5f79bca83a2eb65c0983816d,TCR,2024-06-21_14h18.29.020,LearnStrategy,2023.2.3,Win32,59.88023952,7,1,10,0.040740755,-0.011111118,1,0,0,1.7333,rock_grid_rect_2,4,16,-1,-1,1.733,-0.132407365,-0.243518547,1,0,0,4.0938,Basalt_rect,2,4.094,0,9,0,9,0,1,,,,,,,,,,,,,
5f79bca83a2eb65c0983816d,TCR,2024-06-21_14h18.29.020,LearnStrategy,2023.2.3,Win32,59.88023952,7,1,11,0.005555541,-0.00462963,1,0,0,0.8505,rock_grid_rect_2,5,11,-1,-1,0.851,-0.439814815,-0.416666667,1,0,0,1.2368,Obsidian_rect,5,1.237,1,10,0,10,0,1,,,,,,,,,,,,,
5f79bca83a2eb65c0983816d,TCR,2024-06-21_14h18.29.020,LearnStrategy,2023.2.3,Win32,59.88023952,7,1,12,0.058333362,-0.000925947,1,0,0,0.8922,rock_grid_rect_2,2,06,-1,-1,0.892,-0.14444443,-0.264814801,1,0,0,0.9872,Basalt_rect,2,0.987,1,11,0,11,0,1,,,,,,,,,,,,,
5f79bca83a2eb65c0983816d,TCR,2024-06-21_14h18.29.020,LearnStrategy,2023.2.3,Win32,59.88023952,7,1,13,0.05277782,-0.015740748,1,0,0,0.8906,rock_grid_rect_2,1,16,-1,-1,0.891,-0.40370369,-0.261111153,1,0,0,1.9202,Andesite_rect,1,1.92,1,12,0,12,0,1,,,,,,,,,,,,,
5f79bca83a2eb65c0983816d,TCR,2024-06-21_14h18.29.020,LearnStrategy,2023.2.3,Win32,59.88023952,7,1,14,0.018518519,0.011111118,1,0,0,0.7422,rock_grid_rect_2,3,16,-1,-1,0.742,0.164814843,-0.236111111,1,0,0,4.115,Diorite_rect,3,4.115,1,13,0,13,0,1,,,,,,,,,,,,,
5f79bca83a2eb65c0983816d,TCR,2024-06-21_14h18.29.020,LearnStrategy,2023.2.3,Win32,59.88023952,7,1,15,0.046296296,-0.001851859,1,0,0,0.8086,rock_grid_rect_2,1,10,-1,-1,0.809,-0.377777771,-0.25462963,1,0,0,1.6466,Andesite_rect,1,1.647,1,14,0,14,0,1,,,,,,,,,,,,,
5f79bca83a2eb65c0983816d,TCR,2024-06-21_14h18.29.020,LearnStrategy,2023.2.3,Win32,59.88023952,7,1,16,0.000925912,0.003703683,1,0,0,0.8247,rock_grid_rect_2,3,09,-1,-1,0.825,0.137962977,-0.264814801,1,0,0,2.382,Diorite_rect,3,2.382,1,15,0,15,0,1,,,,,,,,,,,,,
5f79bca83a2eb65c0983816d,TCR,2024-06-21_14h18.29.020,LearnStrategy,2023.2.3,Win32,59.88023952,7,2,1,,,,,,,,1,05,,,,,,,,,,,1,2.947,1,,,,,,-0.389814801,-0.251851894,1,0,0,2.9473,Andesite_rect,0,0,0,0,1,
5f79bca83a2eb65c0983816d,TCR,2024-06-21_14h18.29.020,LearnStrategy,2023.2.3,Win32,59.88023952,7,2,2,,,,,,,,5,05,,,,,,,,,,,5,1.096,1,,,,,,-0.412962949,-0.382407436,1,0,0,1.0957,Obsidian_rect,1,0,1,0,1,
5f79bca83a2eb65c0983816d,TCR,2024-06-21_14h18.29.020,LearnStrategy,2023.2.3,Win32,59.88023952,7,2,3,,,,,,,,3,11,,,,,,,,,,,3,1.425,1,,,,,,0.141666695,-0.264814801,1,0,0,1.425,Diorite_rect,2,0,2,0,1,
5f79bca83a2eb65c0983816d,TCR,2024-06-21_14h18.29.020,LearnStrategy,2023.2.3,Win32,59.88023952,7,2,4,,,,,,,,7,05,,,,,,,,,,,7,1.449,1,,,,,,0.152777778,-0.407407407,1,0,0,1.4495,Peridotite_rect,3,0,3,0,1,
5f79bca83a2eb65c0983816d,TCR,2024-06-21_14h18.29.020,LearnStrategy,2023.2.3,Win32,59.88023952,7,2,5,,,,,,,,8,02,,,,,,,,,,,8,4.133,1,,,,,,0.388888889,-0.411111125,1,0,0,4.1333,Pumice_rect,4,0,4,0,1,
5f79bca83a2eb65c0983816d,TCR,2024-06-21_14h18.29.020,LearnStrategy,2023.2.3,Win32,59.88023952,7,2,6,,,,,,,,7,15,,,,,,,,,,,7,1.579,1,,,,,,0.124074088,-0.398148148,1,0,0,1.5791,Peridotite_rect,5,0,5,0,1,
5f79bca83a2eb65c0983816d,TCR,2024-06-21_14h18.29.020,LearnStrategy,2023.2.3,Win32,59.88023952,7,2,7,,,,,,,,2,16,,,,,,,,,,,2,4.308,1,,,,,,-0.112037023,-0.24537037,1,0,0,4.3075,Basalt_rect,6,0,6,0,1,
5f79bca83a2eb65c0983816d,TCR,2024-06-21_14h18.29.020,LearnStrategy,2023.2.3,Win32,59.88023952,7,2,8,,,,,,,,4,10,,,,,,,,,,,4,2.557,1,,,,,,0.425000085,-0.243518547,1,0,0,2.5566,Gabbro_rect,7,0,7,0,1,
5f79bca83a2eb65c0983816d,TCR,2024-06-21_14h18.29.020,LearnStrategy,2023.2.3,Win32,59.88023952,7,2,9,,,,,,,,3,06,,,,,,,,,,,3,4.148,1,,,,,,0.161111125,-0.24537037,1,0,0,4.1476,Diorite_rect,8,0,8,0,1,
5f79bca83a2eb65c0983816d,TCR,2024-06-21_14h18.29.020,LearnStrategy,2023.2.3,Win32,59.88023952,7,2,10,,,,,,,,6,07,,,,,,,,,,,6,1.229,1,,,,,,-0.158333319,-0.395370413,1,0,0,1.2291,Pegmatite_rect,9,0,9,0,1,
5f79bca83a2eb65c0983816d,TCR,2024-06-21_14h18.29.020,LearnStrategy,2023.2.3,Win32,59.88023952,7,2,11,,,,,,,,6,11,,,,,,,,,,,6,1.115,1,,,,,,-0.14444443,-0.402777778,1,0,0,1.1149,Pegmatite_rect,10,0,10,0,1,
5f79bca83a2eb65c0983816d,TCR,2024-06-21_14h18.29.020,LearnStrategy,2023.2.3,Win32,59.88023952,7,2,12,,,,,,,,1,03,,,,,,,,,,,2,1.333,0,,,,,,-0.143518519,-0.259259259,1,0,0,1.3333,Basalt_rect,11,0,11,0,1,
5f79bca83a2eb65c0983816d,TCR,2024-06-21_14h18.29.020,LearnStrategy,2023.2.3,Win32,59.88023952,7,2,13,,,,,,,,8,15,,,,,,,,,,,8,1.316,1,,,,,,0.412963019,-0.409259302,1,0,0,1.3161,Pumice_rect,12,0,12,0,1,
5f79bca83a2eb65c0983816d,TCR,2024-06-21_14h18.29.020,LearnStrategy,2023.2.3,Win32,59.88023952,7,2,14,,,,,,,,2,09,,,,,,,,,,,2,1.323,1,,,,,,-0.095370328,-0.249074088,1,0,0,1.323,Basalt_rect,13,0,13,0,1,
5f79bca83a2eb65c0983816d,TCR,2024-06-21_14h18.29.020,LearnStrategy,2023.2.3,Win32,59.88023952,7,2,15,,,,,,,,4,12,,,,,,,,,,,1,3.012,0,,,,,,-0.372222229,-0.237037023,1,0,0,3.0117,Andesite_rect,14,0,14,0,1,
5f79bca83a2eb65c0983816d,TCR,2024-06-21_14h18.29.020,LearnStrategy,2023.2.3,Win32,59.88023952,7,2,16,,,,,,,,5,02,,,,,,,,,,,5,1.169,1,,,,,,-0.425925926,-0.412037037,1,0,0,1.1686,Obsidian_rect,15,0,15,0,1,
5f79bca83a2eb65c0983816d,TCR,2024-06-21_14h18.29.020,LearnStrategy,2023.2.3,Win32,59.88023952,8,1,1,0.05277782,-0.01203703,1,0,0,1.2549,rock_grid_rect_2,4,16,-1,-1,1.255,0.400925954,-0.235185199,1,0,0,2.4079,Gabbro_rect,4,2.408,1,0,0,0,0,1,,,,,,,,,,,,,
5f79bca83a2eb65c0983816d,TCR,2024-06-21_14h18.29.020,LearnStrategy,2023.2.3,Win32,59.88023952,8,1,2,-0.114814829,-0.0074074,1,0,0,0.9262,rock_grid_rect_2,5,14,-1,-1,0.926,-0.441666674,-0.400925954,1,0,0,1.3507,Obsidian_rect,5,1.351,1,1,0,1,0,1,,,,,,,,,,,,,
5f79bca83a2eb65c0983816d,TCR,2024-06-21_14h18.29.020,LearnStrategy,2023.2.3,Win32,59.88023952,8,1,3,-0.099999958,-0.012962977,1,0,0,0.9754,rock_grid_rect_2,8,08,-1,-1,0.975,0.362962935,-0.384259259,1,0,0,1.8526,Pumice_rect,8,1.853,1,2,0,2,0,1,,,,,,,,,,,,,
5f79bca83a2eb65c0983816d,TCR,2024-06-21_14h18.29.020,LearnStrategy,2023.2.3,Win32,59.88023952,8,1,4,-0.051851838,0.005555541,1,0,0,0.9254,rock_grid_rect_2,2,01,-1,-1,0.925,-0.143518519,-0.247222265,1,0,0,1.3439,Basalt_rect,2,1.344,1,3,0,3,0,1,,,,,,,,,,,,,
5f79bca83a2eb65c0983816d,TCR,2024-06-21_14h18.29.020,LearnStrategy,2023.2.3,Win32,59.88023952,8,1,5,-0.040740755,0.01944443,1,0,0,0.9588,rock_grid_rect_2,1,07,-1,-1,0.959,-0.427777785,-0.260185171,1,0,0,3.1089,Andesite_rect,1,3.109,1,4,0,4,0,1,,,,,,,,,,,,,
5f79bca83a2eb65c0983816d,TCR,2024-06-21_14h18.29.020,LearnStrategy,2023.2.3,Win32,59.88023952,8,1,6,-0.099074046,0.005555541,1,0,0,0.8254,rock_grid_rect_2,2,14,-1,-1,0.825,0.425000085,-0.237963005,1,0,0,3.1359,Gabbro_rect,4,3.136,0,5,0,5,0,1,,,,,,,,,,,,,
5f79bca83a2eb65c0983816d,TCR,2024-06-21_14h18.29.020,LearnStrategy,2023.2.3,Win32,59.88023952,8,1,7,-0.038888861,-0.003703718,1,0,0,1.4247,rock_grid_rect_2,6,09,-1,-1,1.425,-0.167592578,-0.406481496,1,0,0,1.3957,Pegmatite_rect,6,1.396,1,6,0,6,0,1,,,,,,,,,,,,,
5f79bca83a2eb65c0983816d,TCR,2024-06-21_14h18.29.020,LearnStrategy,2023.2.3,Win32,59.88023952,8,1,8,-0.047222208,-0.003703718,1,0,0,0.7756,rock_grid_rect_2,1,09,-1,-1,0.776,-0.434259238,-0.238888917,1,0,0,4.2577,Andesite_rect,1,4.258,1,7,0,7,0,1,,,,,,,,,,,,,
5f79bca83a2eb65c0983816d,TCR,2024-06-21_14h18.29.020,LearnStrategy,2023.2.3,Win32,59.88023952,8,1,9,-0.132407365,0.012962942,1,0,0,0.7924,rock_grid_rect_2,4,13,-1,-1,0.792,0.366666723,-0.235185199,1,0,0,1.4305,Gabbro_rect,4,1.43,1,8,0,8,0,1,,,,,,,,,,,,,
5f79bca83a2eb65c0983816d,TCR,2024-06-21_14h18.29.020,LearnStrategy,2023.2.3,Win32,59.88023952,8,1,10,-0.050925926,0,1,0,0,0.8532,rock_grid_rect_2,6,08,-1,-1,0.853,-0.161111125,-0.380555541,1,0,0,2.0437,Pegmatite_rect,6,2.044,1,9,0,9,0,1,,,,,,,,,,,,,
5f79bca83a2eb65c0983816d,TCR,2024-06-21_14h18.29.020,LearnStrategy,2023.2.3,Win32,59.88023952,8,1,11,0.008333347,0.01666666,1,0,0,0.8199,rock_grid_rect_2,3,02,-1,-1,0.82,0.145370413,-0.250925912,1,0,0,2.2344,Diorite_rect,3,2.234,1,10,0,10,0,1,,,,,,,,,,,,,
5f79bca83a2eb65c0983816d,TCR,2024-06-21_14h18.29.020,LearnStrategy,2023.2.3,Win32,59.88023952,8,1,12,-0.049074032,-0.022222236,1,0,0,0.8419,rock_grid_rect_2,6,16,-1,-1,0.842,-0.140740712,-0.388888889,1,0,0,1.1459,Pegmatite_rect,6,1.146,1,11,0,11,0,1,,,,,,,,,,,,,
5f79bca83a2eb65c0983816d,TCR,2024-06-21_14h18.29.020,LearnStrategy,2023.2.3,Win32,59.88023952,8,1,13,-0.008333347,0.011111118,1,0,0,0.6716,rock_grid_rect_2,1,04,-1,-1,0.672,-0.359259252,-0.259259259,1,0,0,3.517,Andesite_rect,1,3.517,1,12,0,12,0,1,,,,,,,,,,,,,
5f79bca83a2eb65c0983816d,TCR,2024-06-21_14h18.29.020,LearnStrategy,2023.2.3,Win32,59.88023952,8,1,14,-0.044444402,0.012962942,1,0,0,0.825,rock_grid_rect_2,4,15,-1,-1,0.825,0.365740741,-0.242592635,1,0,0,1.5265,Gabbro_rect,4,1.526,1,13,0,13,0,1,,,,,,,,,,,,,
5f79bca83a2eb65c0983816d,TCR,2024-06-21_14h18.29.020,LearnStrategy,2023.2.3,Win32,59.88023952,8,1,15,-0.04814812,0.005555541,1,0,0,0.9757,rock_grid_rect_2,7,06,-1,-1,0.976,0.102777764,-0.37962963,1,0,0,1.3195,Peridotite_rect,7,1.32,1,14,0,14,0,1,,,,,,,,,,,,,
5f79bca83a2eb65c0983816d,TCR,2024-06-21_14h18.29.020,LearnStrategy,2023.2.3,Win32,59.88023952,8,1,16,-0.025925884,0.001851859,1,0,0,0.7754,rock_grid_rect_2,1,09,-1,-1,0.775,-0.39907406,-0.256481524,1,0,0,1.2513,Andesite_rect,1,1.251,1,15,0,15,0,1,,,,,,,,,,,,,
5f79bca83a2eb65c0983816d,TCR,2024-06-21_14h18.29.020,LearnStrategy,2023.2.3,Win32,59.88023952,8,2,1,,,,,,,,6,15,,,,,,,,,,,6,0.993,1,,,,,,-0.143518519,-0.40370369,1,0,0,0.9929,Pegmatite_rect,0,0,0,0,1,
5f79bca83a2eb65c0983816d,TCR,2024-06-21_14h18.29.020,LearnStrategy,2023.2.3,Win32,59.88023952,8,2,2,,,,,,,,3,08,,,,,,,,,,,3,3.724,1,,,,,,0.143518519,-0.25,1,0,0,3.7239,Diorite_rect,1,0,1,0,1,
5f79bca83a2eb65c0983816d,TCR,2024-06-21_14h18.29.020,LearnStrategy,2023.2.3,Win32,59.88023952,8,2,3,,,,,,,,4,09,,,,,,,,,,,4,1.957,1,,,,,,0.42777775,-0.238888917,1,0,0,1.9575,Gabbro_rect,2,0,2,0,1,
5f79bca83a2eb65c0983816d,TCR,2024-06-21_14h18.29.020,LearnStrategy,2023.2.3,Win32,59.88023952,8,2,4,,,,,,,,1,11,,,,,,,,,,,1,2.613,1,,,,,,-0.412037037,-0.246296282,1,0,0,2.6127,Andesite_rect,3,0,3,0,1,
5f79bca83a2eb65c0983816d,TCR,2024-06-21_14h18.29.020,LearnStrategy,2023.2.3,Win32,59.88023952,8,2,5,,,,,,,,5,04,,,,,,,,,,,5,0.968,1,,,,,,-0.439814815,-0.397222236,1,0,0,0.9683,Obsidian_rect,4,0,4,0,1,
5f79bca83a2eb65c0983816d,TCR,2024-06-21_14h18.29.020,LearnStrategy,2023.2.3,Win32,59.88023952,8,2,6,,,,,,,,4,11,,,,,,,,,,,4,6.521,1,,,,,,0.382407436,-0.255555541,1,0,0,6.521,Gabbro_rect,5,0,5,0,1,
5f79bca83a2eb65c0983816d,TCR,2024-06-21_14h18.29.020,LearnStrategy,2023.2.3,Win32,59.88023952,8,2,7,,,,,,,,3,07,,,,,,,,,,,3,1.998,1,,,,,,0.136111153,-0.240740741,1,0,0,1.9978,Diorite_rect,6,0,6,0,1,
5f79bca83a2eb65c0983816d,TCR,2024-06-21_14h18.29.020,LearnStrategy,2023.2.3,Win32,59.88023952,8,2,8,,,,,,,,6,03,,,,,,,,,,,7,1.122,0,,,,,,0.166666667,-0.418518561,1,0,0,1.1219,Peridotite_rect,7,0,7,0,1,
5f79bca83a2eb65c0983816d,TCR,2024-06-21_14h18.29.020,LearnStrategy,2023.2.3,Win32,59.88023952,8,2,9,,,,,,,,8,04,,,,,,,,,,,8,1.089,1,,,,,,0.395370342,-0.390740783,1,0,0,1.0888,Pumice_rect,8,0,8,0,1,
5f79bca83a2eb65c0983816d,TCR,2024-06-21_14h18.29.020,LearnStrategy,2023.2.3,Win32,59.88023952,8,2,10,,,,,,,,2,02,,,,,,,,,,,2,1.199,1,,,,,,-0.141666624,-0.246296282,1,0,0,1.1992,Basalt_rect,9,0,9,0,1,
5f79bca83a2eb65c0983816d,TCR,2024-06-21_14h18.29.020,LearnStrategy,2023.2.3,Win32,59.88023952,8,2,11,,,,,,,,7,02,,,,,,,,,,,7,1.048,1,,,,,,0.142592607,-0.407407407,1,0,0,1.0477,Peridotite_rect,10,0,10,0,1,
5f79bca83a2eb65c0983816d,TCR,2024-06-21_14h18.29.020,LearnStrategy,2023.2.3,Win32,59.88023952,8,2,12,,,,,,,,2,08,,,,,,,,,,,2,2.17,1,,,,,,-0.176851838,-0.258333347,1,0,0,2.1705,Basalt_rect,11,0,11,0,1,
5f79bca83a2eb65c0983816d,TCR,2024-06-21_14h18.29.020,LearnStrategy,2023.2.3,Win32,59.88023952,8,2,13,,,,,,,,8,06,,,,,,,,,,,8,1.192,1,,,,,,0.425925926,-0.382407436,1,0,0,1.1924,Pumice_rect,12,0,12,0,1,
5f79bca83a2eb65c0983816d,TCR,2024-06-21_14h18.29.020,LearnStrategy,2023.2.3,Win32,59.88023952,8,2,14,,,,,,,,5,09,,,,,,,,,,,5,1.111,1,,,,,,-0.39166666,-0.392592607,1,0,0,1.1111,Obsidian_rect,13,0,13,0,1,
5f79bca83a2eb65c0983816d,TCR,2024-06-21_14h18.29.020,LearnStrategy,2023.2.3,Win32,59.88023952,8,2,15,,,,,,,,7,14,,,,,,,,,,,7,2.399,1,,,,,,0.210185228,-0.414814843,1,0,0,2.3988,Peridotite_rect,14,0,14,0,1,
5f79bca83a2eb65c0983816d,TCR,2024-06-21_14h18.29.020,LearnStrategy,2023.2.3,Win32,59.88023952,8,2,16,,,,,,,,1,02,,,,,,,,,,,4,3.572,0,,,,,,0.429629714,-0.260185171,1,0,0,3.5721,Gabbro_rect,15,0,15,0,1,
5f79bca83a2eb65c0983816d,TCR,2024-06-21_14h18.29.020,LearnStrategy,2023.2.3,Win32,59.88023952,9,1,1,0.071296339,0.00462963,1,0,0,2.588,rock_grid_rect_2,1,09,-1,-1,2.588,-0.392592571,-0.268518519,1,0,0,2.0356,Andesite_rect,1,2.036,1,0,0,0,0,1,,,,,,,,,,,,,
5f79bca83a2eb65c0983816d,TCR,2024-06-21_14h18.29.020,LearnStrategy,2023.2.3,Win32,59.88023952,9,1,2,-0.039814772,-0.017592607,1,0,0,0.9077,rock_grid_rect_2,2,04,-1,-1,0.908,-0.140740712,-0.263888889,1,0,0,1.0539,Basalt_rect,2,1.054,1,1,0,1,0,1,,,,,,,,,,,,,
5f79bca83a2eb65c0983816d,TCR,2024-06-21_14h18.29.020,LearnStrategy,2023.2.3,Win32,59.88023952,9,1,3,0.032407407,0.005555541,1,0,0,1.5914,rock_grid_rect_2,4,16,-1,-1,1.591,0.373148176,-0.237963005,1,0,0,1.9829,Gabbro_rect,4,1.983,1,2,0,2,0,1,,,,,,,,,,,,,
5f79bca83a2eb65c0983816d,TCR,2024-06-21_14h18.29.020,LearnStrategy,2023.2.3,Win32,59.88023952,9,1,4,-0.036111125,0.005555541,1,0,0,0.9174,rock_grid_rect_2,1,10,-1,-1,0.917,-0.372222229,-0.251851894,1,0,0,1.6344,Andesite_rect,1,1.634,1,3,0,3,0,1,,,,,,,,,,,,,
5f79bca83a2eb65c0983816d,TCR,2024-06-21_14h18.29.020,LearnStrategy,2023.2.3,Win32,59.88023952,9,1,5,-0.080555527,0.012962942,1,0,0,0.8783,rock_grid_rect_2,3,09,-1,-1,0.878,0.106481481,-0.251851894,1,0,0,1.8663,Diorite_rect,3,1.866,1,4,0,4,0,1,,,,,,,,,,,,,
5f79bca83a2eb65c0983816d,TCR,2024-06-21_14h18.29.020,LearnStrategy,2023.2.3,Win32,59.88023952,9,1,6,-0.090740698,0.01666666,1,0,0,0.8505,rock_grid_rect_2,6,12,-1,-1,0.851,-0.107407393,-0.397222236,1,0,0,2.1019,Pegmatite_rect,6,2.102,1,5,0,5,0,1,,,,,,,,,,,,,
5f79bca83a2eb65c0983816d,TCR,2024-06-21_14h18.29.020,LearnStrategy,2023.2.3,Win32,59.88023952,9,1,7,-0.092592593,0.01203703,1,0,0,0.7419,rock_grid_rect_2,7,13,-1,-1,0.742,0.103703746,-0.409259302,1,0,0,1.0534,Peridotite_rect,7,1.053,1,6,0,6,0,1,,,,,,,,,,,,,
5f79bca83a2eb65c0983816d,TCR,2024-06-21_14h18.29.020,LearnStrategy,2023.2.3,Win32,59.88023952,9,1,8,-0.057407379,-0.005555577,1,0,0,0.7755,rock_grid_rect_2,6,12,-1,-1,0.776,-0.122222194,-0.388888889,1,0,0,2.2954,Pegmatite_rect,6,2.295,1,7,0,7,0,1,,,,,,,,,,,,,
5f79bca83a2eb65c0983816d,TCR,2024-06-21_14h18.29.020,LearnStrategy,2023.2.3,Win32,59.88023952,9,1,9,0.023148148,-0.013888889,1,0,0,0.7583,rock_grid_rect_2,4,08,-1,-1,0.758,0.401851937,-0.241666653,1,0,0,1.7363,Gabbro_rect,4,1.736,1,8,0,8,0,1,,,,,,,,,,,,,
5f79bca83a2eb65c0983816d,TCR,2024-06-21_14h18.29.020,LearnStrategy,2023.2.3,Win32,59.88023952,9,1,10,-0.012962977,-0.003703718,1,0,0,0.6922,rock_grid_rect_2,8,09,-1,-1,0.692,0.405555584,-0.381481524,1,0,0,1.2191,Pumice_rect,8,1.219,1,9,0,9,0,1,,,,,,,,,,,,,
5f79bca83a2eb65c0983816d,TCR,2024-06-21_14h18.29.020,LearnStrategy,2023.2.3,Win32,59.88023952,9,1,11,-0.016666624,0.006481489,1,0,0,0.7256,rock_grid_rect_2,1,07,-1,-1,0.726,-0.420370349,-0.235185199,1,0,0,2.0347,Andesite_rect,1,2.035,1,10,0,10,0,1,,,,,,,,,,,,,
5f79bca83a2eb65c0983816d,TCR,2024-06-21_14h18.29.020,LearnStrategy,2023.2.3,Win32,59.88023952,9,1,12,-0.000925912,-0.003703718,1,0,0,0.734,rock_grid_rect_2,5,07,-1,-1,0.734,-0.395370377,-0.405555584,1,0,0,1.1474,Obsidian_rect,5,1.147,1,11,0,11,0,1,,,,,,,,,,,,,
5f79bca83a2eb65c0983816d,TCR,2024-06-21_14h18.29.020,LearnStrategy,2023.2.3,Win32,59.88023952,9,1,13,0.063888903,0.002777771,1,0,0,0.6504,rock_grid_rect_2,6,05,-1,-1,0.65,-0.12962963,-0.385185171,1,0,0,1.7687,Pegmatite_rect,6,1.769,1,12,0,12,0,1,,,,,,,,,,,,,
5f79bca83a2eb65c0983816d,TCR,2024-06-21_14h18.29.020,LearnStrategy,2023.2.3,Win32,59.88023952,9,1,14,0.05277782,0,1,0,0,1.1006,rock_grid_rect_2,2,11,-1,-1,1.101,-0.427777785,-0.24537037,1,0,0,2.6026,Andesite_rect,1,2.603,0,13,0,13,0,1,,,,,,,,,,,,,
5f79bca83a2eb65c0983816d,TCR,2024-06-21_14h18.29.020,LearnStrategy,2023.2.3,Win32,59.88023952,9,1,15,0.066666709,0.01944443,1,0,0,0.9238,rock_grid_rect_2,1,10,-1,-1,0.924,-0.36296297,-0.235185199,1,0,0,1.889,Andesite_rect,1,1.889,1,14,0,14,0,1,,,,,,,,,,,,,
5f79bca83a2eb65c0983816d,TCR,2024-06-21_14h18.29.020,LearnStrategy,2023.2.3,Win32,59.88023952,9,1,16,-0.051851838,-0.0074074,1,0,0,1.0835,rock_grid_rect_2,4,05,-1,-1,1.083,0.371296353,-0.241666653,1,0,0,1.1538,Gabbro_rect,4,1.154,1,15,0,15,0,1,,,,,,,,,,,,,
5f79bca83a2eb65c0983816d,TCR,2024-06-21_14h18.29.020,LearnStrategy,2023.2.3,Win32,59.88023952,9,2,1,,,,,,,,8,03,,,,,,,,,,,8,1.198,1,,,,,,0.434259344,-0.405555584,1,0,0,1.1975,Pumice_rect,0,0,0,0,1,
5f79bca83a2eb65c0983816d,TCR,2024-06-21_14h18.29.020,LearnStrategy,2023.2.3,Win32,59.88023952,9,2,2,,,,,,,,6,13,,,,,,,,,,,6,1.712,1,,,,,,-0.112037023,-0.39907406,1,0,0,1.7116,Pegmatite_rect,1,0,1,0,1,
5f79bca83a2eb65c0983816d,TCR,2024-06-21_14h18.29.020,LearnStrategy,2023.2.3,Win32,59.88023952,9,2,3,,,,,,,,3,10,,,,,,,,,,,7,7.411,0,,,,,,0.12037037,-0.392592607,1,0,0,7.4106,Peridotite_rect,2,0,2,0,1,
5f79bca83a2eb65c0983816d,TCR,2024-06-21_14h18.29.020,LearnStrategy,2023.2.3,Win32,59.88023952,9,2,4,,,,,,,,1,01,,,,,,,,,,,4,3.943,0,,,,,,0.41851849,-0.235185199,1,0,0,3.9433,Gabbro_rect,3,0,3,0,1,
5f79bca83a2eb65c0983816d,TCR,2024-06-21_14h18.29.020,LearnStrategy,2023.2.3,Win32,59.88023952,9,2,5,,,,,,,,2,10,,,,,,,,,,,2,1.725,1,,,,,,-0.098148134,-0.250925912,1,0,0,1.725,Basalt_rect,4,0,4,0,1,
5f79bca83a2eb65c0983816d,TCR,2024-06-21_14h18.29.020,LearnStrategy,2023.2.3,Win32,59.88023952,9,2,6,,,,,,,,2,12,,,,,,,,,,,1,1.193,0,,,,,,-0.374074053,-0.270370413,1,0,0,1.1926,Andesite_rect,5,0,5,0,1,
5f79bca83a2eb65c0983816d,TCR,2024-06-21_14h18.29.020,LearnStrategy,2023.2.3,Win32,59.88023952,9,2,7,,,,,,,,7,10,,,,,,,,,,,7,2.539,1,,,,,,0.157407407,-0.410185213,1,0,0,2.5387,Peridotite_rect,6,0,6,0,1,
5f79bca83a2eb65c0983816d,TCR,2024-06-21_14h18.29.020,LearnStrategy,2023.2.3,Win32,59.88023952,9,2,8,,,,,,,,5,06,,,,,,,,,,,5,1.299,1,,,,,,-0.372222229,-0.393518519,1,0,0,1.2995,Obsidian_rect,7,0,7,0,1,
5f79bca83a2eb65c0983816d,TCR,2024-06-21_14h18.29.020,LearnStrategy,2023.2.3,Win32,59.88023952,9,2,9,,,,,,,,4,01,,,,,,,,,,,4,5.937,1,,,,,,0.393518519,-0.260185171,1,0,0,5.9368,Gabbro_rect,8,0,8,0,1,
5f79bca83a2eb65c0983816d,TCR,2024-06-21_14h18.29.020,LearnStrategy,2023.2.3,Win32,59.88023952,9,2,10,,,,,,,,7,07,,,,,,,,,,,7,1.707,1,,,,,,0.155555584,-0.39907406,1,0,0,1.7075,Peridotite_rect,9,0,9,0,1,
5f79bca83a2eb65c0983816d,TCR,2024-06-21_14h18.29.020,LearnStrategy,2023.2.3,Win32,59.88023952,9,2,11,,,,,,,,1,14,,,,,,,,,,,6,5.124,0,,,,,,-0.15370369,-0.389814801,1,0,0,5.1236,Pegmatite_rect,10,0,10,0,1,
5f79bca83a2eb65c0983816d,TCR,2024-06-21_14h18.29.020,LearnStrategy,2023.2.3,Win32,59.88023952,9,2,12,,,,,,,,4,14,,,,,,,,,,,2,1.821,0,,,,,,-0.141666624,-0.241666653,1,0,0,1.8206,Basalt_rect,11,0,11,0,1,
5f79bca83a2eb65c0983816d,TCR,2024-06-21_14h18.29.020,LearnStrategy,2023.2.3,Win32,59.88023952,9,2,13,,,,,,,,6,10,,,,,,,,,,,7,2.629,0,,,,,,0.155555584,-0.397222236,1,0,0,2.6293,Peridotite_rect,12,0,12,0,1,
5f79bca83a2eb65c0983816d,TCR,2024-06-21_14h18.29.020,LearnStrategy,2023.2.3,Win32,59.88023952,9,2,14,,,,,,,,8,16,,,,,,,,,,,8,1.9,1,,,,,,0.409259231,-0.412037037,1,0,0,1.9003,Pumice_rect,13,0,13,0,1,
5f79bca83a2eb65c0983816d,TCR,2024-06-21_14h18.29.020,LearnStrategy,2023.2.3,Win32,59.88023952,9,2,15,,,,,,,,3,12,,,,,,,,,,,3,1.959,1,,,,,,0.165740755,-0.25,1,0,0,1.9586,Diorite_rect,14,0,14,0,1,
5f79bca83a2eb65c0983816d,TCR,2024-06-21_14h18.29.020,LearnStrategy,2023.2.3,Win32,59.88023952,9,2,16,,,,,,,,5,16,,,,,,,,,,,5,0.975,1,,,,,,-0.438888868,-0.381481524,1,0,0,0.9754,Obsidian_rect,15,0,15,0,1,
5f79bca83a2eb65c0983816d,TCR,2024-06-21_14h18.29.020,LearnStrategy,2023.2.3,Win32,59.88023952,,,,,,,,,,,,,,,,,,,,,,,,,,,,,,,,,,,,,,,,,,,1
5f79bca83a2eb65c0983816d,TCR,2024-06-21_14h18.29.020,LearnStrategy,2023.2.3,Win32,59.88023952,,,,,,,,,,,,,,,,,,,,,,,,,,,,,,,,,,,,,,,,,,,
5f79bca83a2eb65c0983816d,TCR,2024-06-21_14h18.29.020,LearnStrategy,2023.2.3,Win32,59.88023952,,,,,,,,,,,7,04,1,1,,,,,,,,,,,,,,,,,,,,,,,,,,,,,
5f79bca83a2eb65c0983816d,TCR,2024-06-21_14h18.29.020,LearnStrategy,2023.2.3,Win32,59.88023952,,,,,,,,,,,4,03,1,2,,,,,,,,,,,,,,,,,,,,,,,,,,,,,
5f79bca83a2eb65c0983816d,TCR,2024-06-21_14h18.29.020,LearnStrategy,2023.2.3,Win32,59.88023952,,,,,,,,,,,3,09,1,3,,,,,,,,,,,,,,,,,,,,,,,,,,,,,
5f79bca83a2eb65c0983816d,TCR,2024-06-21_14h18.29.020,LearnStrategy,2023.2.3,Win32,59.88023952,,,,,,,,,,,8,10,1,4,,,,,,,,,,,,,,,,,,,,,,,,,,,,,
5f79bca83a2eb65c0983816d,TCR,2024-06-21_14h18.29.020,LearnStrategy,2023.2.3,Win32,59.88023952,,,,,,,,,,,2,11,1,5,,,,,,,,,,,,,,,,,,,,,,,,,,,,,
5f79bca83a2eb65c0983816d,TCR,2024-06-21_14h18.29.020,LearnStrategy,2023.2.3,Win32,59.88023952,,,,,,,,,,,6,16,1,6,,,,,,,,,,,,,,,,,,,,,,,,,,,,,
5f79bca83a2eb65c0983816d,TCR,2024-06-21_14h18.29.020,LearnStrategy,2023.2.3,Win32,59.88023952,,,,,,,,,,,5,11,1,7,,,,,,,,,,,,,,,,,,,,,,,,,,,,,
5f79bca83a2eb65c0983816d,TCR,2024-06-21_14h18.29.020,LearnStrategy,2023.2.3,Win32,59.88023952,,,,,,,,,,,6,09,1,8,,,,,,,,,,,,,,,,,,,,,,,,,,,,,
5f79bca83a2eb65c0983816d,TCR,2024-06-21_14h18.29.020,LearnStrategy,2023.2.3,Win32,59.88023952,,,,,,,,,,,6,12,2,1,,,,,,,,,,,,,,,,,,,,,,,,,,,,,
5f79bca83a2eb65c0983816d,TCR,2024-06-21_14h18.29.020,LearnStrategy,2023.2.3,Win32,59.88023952,,,,,,,,,,,5,12,2,2,,,,,,,,,,,,,,,,,,,,,,,,,,,,,
5f79bca83a2eb65c0983816d,TCR,2024-06-21_14h18.29.020,LearnStrategy,2023.2.3,Win32,59.88023952,,,,,,,,,,,6,08,2,3,,,,,,,,,,,,,,,,,,,,,,,,,,,,,
5f79bca83a2eb65c0983816d,TCR,2024-06-21_14h18.29.020,LearnStrategy,2023.2.3,Win32,59.88023952,,,,,,,,,,,1,06,2,4,,,,,,,,,,,,,,,,,,,,,,,,,,,,,
5f79bca83a2eb65c0983816d,TCR,2024-06-21_14h18.29.020,LearnStrategy,2023.2.3,Win32,59.88023952,,,,,,,,,,,8,14,2,5,,,,,,,,,,,,,,,,,,,,,,,,,,,,,
5f79bca83a2eb65c0983816d,TCR,2024-06-21_14h18.29.020,LearnStrategy,2023.2.3,Win32,59.88023952,,,,,,,,,,,7,08,2,6,,,,,,,,,,,,,,,,,,,,,,,,,,,,,
5f79bca83a2eb65c0983816d,TCR,2024-06-21_14h18.29.020,LearnStrategy,2023.2.3,Win32,59.88023952,,,,,,,,,,,1,10,2,7,,,,,,,,,,,,,,,,,,,,,,,,,,,,,
5f79bca83a2eb65c0983816d,TCR,2024-06-21_14h18.29.020,LearnStrategy,2023.2.3,Win32,59.88023952,,,,,,,,,,,1,07,2,8,,,,,,,,,,,,,,,,,,,,,,,,,,,,,
5f79bca83a2eb65c0983816d,TCR,2024-06-21_14h18.29.020,LearnStrategy,2023.2.3,Win32,59.88023952,,,,,,,,,,,8,08,3,1,,,,,,,,,,,,,,,,,,,,,,,,,,,,,
5f79bca83a2eb65c0983816d,TCR,2024-06-21_14h18.29.020,LearnStrategy,2023.2.3,Win32,59.88023952,,,,,,,,,,,2,06,3,2,,,,,,,,,,,,,,,,,,,,,,,,,,,,,
5f79bca83a2eb65c0983816d,TCR,2024-06-21_14h18.29.020,LearnStrategy,2023.2.3,Win32,59.88023952,,,,,,,,,,,7,16,3,3,,,,,,,,,,,,,,,,,,,,,,,,,,,,,
5f79bca83a2eb65c0983816d,TCR,2024-06-21_14h18.29.020,LearnStrategy,2023.2.3,Win32,59.88023952,,,,,,,,,,,8,09,3,4,,,,,,,,,,,,,,,,,,,,,,,,,,,,,
5f79bca83a2eb65c0983816d,TCR,2024-06-21_14h18.29.020,LearnStrategy,2023.2.3,Win32,59.88023952,,,,,,,,,,,1,09,3,5,,,,,,,,,,,,,,,,,,,,,,,,,,,,,
5f79bca83a2eb65c0983816d,TCR,2024-06-21_14h18.29.020,LearnStrategy,2023.2.3,Win32,59.88023952,,,,,,,,,,,4,05,3,6,,,,,,,,,,,,,,,,,,,,,,,,,,,,,
5f79bca83a2eb65c0983816d,TCR,2024-06-21_14h18.29.020,LearnStrategy,2023.2.3,Win32,59.88023952,,,,,,,,,,,3,02,3,7,,,,,,,,,,,,,,,,,,,,,,,,,,,,,
5f79bca83a2eb65c0983816d,TCR,2024-06-21_14h18.29.020,LearnStrategy,2023.2.3,Win32,59.88023952,,,,,,,,,,,5,10,3,8,,,,,,,,,,,,,,,,,,,,,,,,,,,,,
5f79bca83a2eb65c0983816d,TCR,2024-06-21_14h18.29.020,LearnStrategy,2023.2.3,Win32,59.88023952,,,,,,,,,,,1,04,4,1,,,,,,,,,,,,,,,,,,,,,,,,,,,,,
5f79bca83a2eb65c0983816d,TCR,2024-06-21_14h18.29.020,LearnStrategy,2023.2.3,Win32,59.88023952,,,,,,,,,,,4,16,4,2,,,,,,,,,,,,,,,,,,,,,,,,,,,,,
5f79bca83a2eb65c0983816d,TCR,2024-06-21_14h18.29.020,LearnStrategy,2023.2.3,Win32,59.88023952,,,,,,,,,,,8,05,4,3,,,,,,,,,,,,,,,,,,,,,,,,,,,,,
5f79bca83a2eb65c0983816d,TCR,2024-06-21_14h18.29.020,LearnStrategy,2023.2.3,Win32,59.88023952,,,,,,,,,,,5,08,4,4,,,,,,,,,,,,,,,,,,,,,,,,,,,,,
5f79bca83a2eb65c0983816d,TCR,2024-06-21_14h18.29.020,LearnStrategy,2023.2.3,Win32,59.88023952,,,,,,,,,,,4,08,4,5,,,,,,,,,,,,,,,,,,,,,,,,,,,,,
5f79bca83a2eb65c0983816d,TCR,2024-06-21_14h18.29.020,LearnStrategy,2023.2.3,Win32,59.88023952,,,,,,,,,,,6,06,4,6,,,,,,,,,,,,,,,,,,,,,,,,,,,,,
5f79bca83a2eb65c0983816d,TCR,2024-06-21_14h18.29.020,LearnStrategy,2023.2.3,Win32,59.88023952,,,,,,,,,,,3,15,4,7,,,,,,,,,,,,,,,,,,,,,,,,,,,,,
5f79bca83a2eb65c0983816d,TCR,2024-06-21_14h18.29.020,LearnStrategy,2023.2.3,Win32,59.88023952,,,,,,,,,,,6,05,4,8,,,,,,,,,,,,,,,,,,,,,,,,,,,,,
5f79bca83a2eb65c0983816d,TCR,2024-06-21_14h18.29.020,LearnStrategy,2023.2.3,Win32,59.88023952,,,,,,,,,,,1,16,5,1,,,,,,,,,,,,,,,,,,,,,,,,,,,,,
5f79bca83a2eb65c0983816d,TCR,2024-06-21_14h18.29.020,LearnStrategy,2023.2.3,Win32,59.88023952,,,,,,,,,,,5,14,5,2,,,,,,,,,,,,,,,,,,,,,,,,,,,,,
5f79bca83a2eb65c0983816d,TCR,2024-06-21_14h18.29.020,LearnStrategy,2023.2.3,Win32,59.88023952,,,,,,,,,,,2,05,5,3,,,,,,,,,,,,,,,,,,,,,,,,,,,,,
5f79bca83a2eb65c0983816d,TCR,2024-06-21_14h18.29.020,LearnStrategy,2023.2.3,Win32,59.88023952,,,,,,,,,,,8,13,5,4,,,,,,,,,,,,,,,,,,,,,,,,,,,,,
5f79bca83a2eb65c0983816d,TCR,2024-06-21_14h18.29.020,LearnStrategy,2023.2.3,Win32,59.88023952,,,,,,,,,,,3,14,5,5,,,,,,,,,,,,,,,,,,,,,,,,,,,,,
5f79bca83a2eb65c0983816d,TCR,2024-06-21_14h18.29.020,LearnStrategy,2023.2.3,Win32,59.88023952,,,,,,,,,,,3,16,5,6,,,,,,,,,,,,,,,,,,,,,,,,,,,,,
5f79bca83a2eb65c0983816d,TCR,2024-06-21_14h18.29.020,LearnStrategy,2023.2.3,Win32,59.88023952,,,,,,,,,,,2,01,5,7,,,,,,,,,,,,,,,,,,,,,,,,,,,,,
5f79bca83a2eb65c0983816d,TCR,2024-06-21_14h18.29.020,LearnStrategy,2023.2.3,Win32,59.88023952,,,,,,,,,,,4,15,5,8,,,,,,,,,,,,,,,,,,,,,,,,,,,,,
5f79bca83a2eb65c0983816d,TCR,2024-06-21_14h18.29.020,LearnStrategy,2023.2.3,Win32,59.88023952,,,,,,,,,,,2,04,6,1,,,,,,,,,,,,,,,,,,,,,,,,,,,,,
5f79bca83a2eb65c0983816d,TCR,2024-06-21_14h18.29.020,LearnStrategy,2023.2.3,Win32,59.88023952,,,,,,,,,,,7,12,6,2,,,,,,,,,,,,,,,,,,,,,,,,,,,,,
5f79bca83a2eb65c0983816d,TCR,2024-06-21_14h18.29.020,LearnStrategy,2023.2.3,Win32,59.88023952,,,,,,,,,,,3,13,6,3,,,,,,,,,,,,,,,,,,,,,,,,,,,,,
5f79bca83a2eb65c0983816d,TCR,2024-06-21_14h18.29.020,LearnStrategy,2023.2.3,Win32,59.88023952,,,,,,,,,,,2,14,6,4,,,,,,,,,,,,,,,,,,,,,,,,,,,,,
5f79bca83a2eb65c0983816d,TCR,2024-06-21_14h18.29.020,LearnStrategy,2023.2.3,Win32,59.88023952,,,,,,,,,,,5,07,6,5,,,,,,,,,,,,,,,,,,,,,,,,,,,,,
5f79bca83a2eb65c0983816d,TCR,2024-06-21_14h18.29.020,LearnStrategy,2023.2.3,Win32,59.88023952,,,,,,,,,,,7,13,6,6,,,,,,,,,,,,,,,,,,,,,,,,,,,,,
5f79bca83a2eb65c0983816d,TCR,2024-06-21_14h18.29.020,LearnStrategy,2023.2.3,Win32,59.88023952,,,,,,,,,,,4,13,6,7,,,,,,,,,,,,,,,,,,,,,,,,,,,,,
5f79bca83a2eb65c0983816d,TCR,2024-06-21_14h18.29.020,LearnStrategy,2023.2.3,Win32,59.88023952,,,,,,,,,,,7,06,6,8,,,,,,,,,,,,,,,,,,,,,,,,,,,,,