participant,condition,date,expName,psychopyVersion,OS,frameRate,block,phase,trial,learn_mouse_2.x,learn_mouse_2.y,learn_mouse_2.leftButton,learn_mouse_2.midButton,learn_mouse_2.rightButton,learn_mouse_2.time,learn_mouse_2.clicked_name,cat,token,row,col,t_select,cat_mouse_l.x,cat_mouse_l.y,cat_mouse_l.leftButton,cat_mouse_l.midButton,cat_mouse_l.rightButton,cat_mouse_l.time,cat_mouse_l.clicked_name,resp,t_resp,corr,train_trials.thisRepN,train_trials.thisTrialN,train_trials.thisN,train_trials.thisIndex,train_trials.ran,cat_mouse_t.x,cat_mouse_t.y,cat_mouse_t.leftButton,cat_mouse_t.midButton,cat_mouse_t.rightButton,cat_mouse_t.time,cat_mouse_t.clicked_name,test_trials.thisRepN,test_trials.thisTrialN,test_trials.thisN,test_trials.thisIndex,test_trials.ran,Bonus
5fa562e3b58abe00096ee2d4,TCN,2024-06-21_13h46.34.264,LearnStrategy,2023.2.3,Win32,60.60606061,,,,,,,,,,,,,,,,,,,,,,,,,,,,,,,,,,,,,,,,,,,
5fa562e3b58abe00096ee2d4,TCN,2024-06-21_13h46.34.264,LearnStrategy,2023.2.3,Win32,60.60606061,1,1,1,-0.057291667,0.001302083,1,0,0,2.7884,rock_grid_rect_2,6,05,-1,-1,2.788,-0.223958333,-0.251302083,1,0,0,3.1995,Basalt_rect,2,3.2,0,0,0,0,0,1,,,,,,,,,,,,,
5fa562e3b58abe00096ee2d4,TCN,2024-06-21_13h46.34.264,LearnStrategy,2023.2.3,Win32,60.60606061,1,1,2,0.020833333,-0.010416667,1,0,0,1.3377,rock_grid_rect_2,7,14,-1,-1,1.338,-0.38671875,-0.388020833,1,0,0,1.6502,Obsidian_rect,5,1.65,0,1,0,1,0,1,,,,,,,,,,,,,
5fa562e3b58abe00096ee2d4,TCN,2024-06-21_13h46.34.264,LearnStrategy,2023.2.3,Win32,60.60606061,1,1,3,0.091145833,-0.006510417,1,0,0,1.7077,rock_grid_rect_2,1,10,-1,-1,1.708,-0.295572917,-0.256510417,1,0,0,2.8704,Andesite_rect,1,2.87,1,2,0,2,0,1,,,,,,,,,,,,,
5fa562e3b58abe00096ee2d4,TCN,2024-06-21_13h46.34.264,LearnStrategy,2023.2.3,Win32,60.60606061,1,1,4,0.01953125,-0.01953125,1,0,0,1.2287,rock_grid_rect_2,7,02,-1,-1,1.229,0.311197917,-0.415364583,1,0,0,2.4888,Pumice_rect,8,2.489,0,3,0,3,0,1,,,,,,,,,,,,,
5fa562e3b58abe00096ee2d4,TCN,2024-06-21_13h46.34.264,LearnStrategy,2023.2.3,Win32,60.60606061,1,1,5,0.092447917,0.010416667,1,0,0,1.3263,rock_grid_rect_2,5,08,-1,-1,1.326,-0.354166667,-0.397135417,1,0,0,2.4108,Obsidian_rect,5,2.411,1,4,0,4,0,1,,,,,,,,,,,,,
5fa562e3b58abe00096ee2d4,TCN,2024-06-21_13h46.34.264,LearnStrategy,2023.2.3,Win32,60.60606061,1,1,6,0.02734375,-0.01171875,1,0,0,1.3476,rock_grid_rect_2,8,16,-1,-1,1.348,0.08203125,-0.248697917,1,0,0,2.9934,Diorite_rect,3,2.993,0,5,0,5,0,1,,,,,,,,,,,,,
5fa562e3b58abe00096ee2d4,TCN,2024-06-21_13h46.34.264,LearnStrategy,2023.2.3,Win32,60.60606061,1,1,7,0.033854167,0.0078125,1,0,0,1.2234,rock_grid_rect_2,4,01,-1,-1,1.223,0.157552083,-0.407552083,1,0,0,4.0267,Peridotite_rect,7,4.027,0,6,0,6,0,1,,,,,,,,,,,,,
5fa562e3b58abe00096ee2d4,TCN,2024-06-21_13h46.34.264,LearnStrategy,2023.2.3,Win32,60.60606061,1,1,8,0.046875,-0.015625,1,0,0,1.2689,rock_grid_rect_2,4,09,-1,-1,1.269,-0.3671875,-0.252604167,1,0,0,5.7329,Andesite_rect,1,5.733,0,7,0,7,0,1,,,,,,,,,,,,,
5fa562e3b58abe00096ee2d4,TCN,2024-06-21_13h46.34.264,LearnStrategy,2023.2.3,Win32,60.60606061,1,1,9,0.01171875,-0.00390625,1,0,0,1.3544,rock_grid_rect_2,5,12,-1,-1,1.354,-0.33984375,-0.38671875,1,0,0,2.3198,Obsidian_rect,5,2.32,1,8,0,8,0,1,,,,,,,,,,,,,
5fa562e3b58abe00096ee2d4,TCN,2024-06-21_13h46.34.264,LearnStrategy,2023.2.3,Win32,60.60606061,1,1,10,0.006510417,0.0078125,1,0,0,1.2826,rock_grid_rect_2,1,11,-1,-1,1.283,0.317708333,-0.411458333,1,0,0,2.2228,Pumice_rect,8,2.223,0,9,0,9,0,1,,,,,,,,,,,,,
5fa562e3b58abe00096ee2d4,TCN,2024-06-21_13h46.34.264,LearnStrategy,2023.2.3,Win32,60.60606061,1,1,11,0.080729167,-0.002604167,1,0,0,1.1868,rock_grid_rect_2,3,02,-1,-1,1.187,-0.35546875,-0.266927083,1,0,0,2.4601,Andesite_rect,1,2.46,0,10,0,10,0,1,,,,,,,,,,,,,
5fa562e3b58abe00096ee2d4,TCN,2024-06-21_13h46.34.264,LearnStrategy,2023.2.3,Win32,60.60606061,1,1,12,0.028645833,-0.0078125,1,0,0,1.2644,rock_grid_rect_2,8,06,-1,-1,1.264,-0.196614583,-0.23828125,1,0,0,7.3432,Basalt_rect,2,7.343,0,11,0,11,0,1,,,,,,,,,,,,,
5fa562e3b58abe00096ee2d4,TCN,2024-06-21_13h46.34.264,LearnStrategy,2023.2.3,Win32,60.60606061,1,1,13,-0.036458333,-0.01171875,1,0,0,1.2313,rock_grid_rect_2,2,16,-1,-1,1.231,0.345052083,-0.407552083,1,0,0,1.7624,Pumice_rect,8,1.762,0,12,0,12,0,1,,,,,,,,,,,,,
5fa562e3b58abe00096ee2d4,TCN,2024-06-21_13h46.34.264,LearnStrategy,2023.2.3,Win32,60.60606061,1,1,14,0.0390625,-0.01171875,1,0,0,1.3177,rock_grid_rect_2,2,08,-1,-1,1.318,-0.350260417,-0.401041667,1,0,0,3.5201,Obsidian_rect,5,3.52,0,13,0,13,0,1,,,,,,,,,,,,,
5fa562e3b58abe00096ee2d4,TCN,2024-06-21_13h46.34.264,LearnStrategy,2023.2.3,Win32,60.60606061,1,1,15,0.04296875,-0.016927083,1,0,0,1.2135,rock_grid_rect_2,3,09,-1,-1,1.214,0.098958333,-0.2578125,1,0,0,1.6487,Diorite_rect,3,1.649,1,14,0,14,0,1,,,,,,,,,,,,,
5fa562e3b58abe00096ee2d4,TCN,2024-06-21_13h46.34.264,LearnStrategy,2023.2.3,Win32,60.60606061,1,1,16,0.057291667,-0.002604167,1,0,0,1.1407,rock_grid_rect_2,6,12,-1,-1,1.141,-0.106770833,-0.403645833,1,0,0,2.3851,Pegmatite_rect,6,2.385,1,15,0,15,0,1,,,,,,,,,,,,,
5fa562e3b58abe00096ee2d4,TCN,2024-06-21_13h46.34.264,LearnStrategy,2023.2.3,Win32,60.60606061,1,2,1,,,,,,,,3,10,,,,,,,,,,,1,3.742,0,,,,,,-0.33984375,-0.234375,1,0,0,3.7421,Andesite_rect,0,0,0,0,1,
5fa562e3b58abe00096ee2d4,TCN,2024-06-21_13h46.34.264,LearnStrategy,2023.2.3,Win32,60.60606061,1,2,2,,,,,,,,7,06,,,,,,,,,,,7,8.024,1,,,,,,0.104166667,-0.403645833,1,0,0,8.0236,Peridotite_rect,1,0,1,0,1,
5fa562e3b58abe00096ee2d4,TCN,2024-06-21_13h46.34.264,LearnStrategy,2023.2.3,Win32,60.60606061,1,2,3,,,,,,,,7,07,,,,,,,,,,,4,1.851,0,,,,,,0.348958333,-0.25,1,0,0,1.8509,Gabbro_rect,2,0,2,0,1,
5fa562e3b58abe00096ee2d4,TCN,2024-06-21_13h46.34.264,LearnStrategy,2023.2.3,Win32,60.60606061,1,2,4,,,,,,,,2,12,,,,,,,,,,,8,1.195,0,,,,,,0.364583333,-0.4140625,1,0,0,1.1952,Pumice_rect,3,0,3,0,1,
5fa562e3b58abe00096ee2d4,TCN,2024-06-21_13h46.34.264,LearnStrategy,2023.2.3,Win32,60.60606061,1,2,5,,,,,,,,1,03,,,,,,,,,,,2,4.249,0,,,,,,-0.083333333,-0.26171875,1,0,0,4.2492,Basalt_rect,4,0,4,0,1,
5fa562e3b58abe00096ee2d4,TCN,2024-06-21_13h46.34.264,LearnStrategy,2023.2.3,Win32,60.60606061,1,2,6,,,,,,,,5,16,,,,,,,,,,,5,1.51,1,,,,,,-0.311197917,-0.397135417,1,0,0,1.5097,Obsidian_rect,5,0,5,0,1,
5fa562e3b58abe00096ee2d4,TCN,2024-06-21_13h46.34.264,LearnStrategy,2023.2.3,Win32,60.60606061,1,2,7,,,,,,,,4,14,,,,,,,,,,,4,2.255,1,,,,,,0.395833333,-0.24609375,1,0,0,2.2546,Gabbro_rect,6,0,6,0,1,
5fa562e3b58abe00096ee2d4,TCN,2024-06-21_13h46.34.264,LearnStrategy,2023.2.3,Win32,60.60606061,1,2,8,,,,,,,,3,14,,,,,,,,,,,3,1.292,1,,,,,,0.19140625,-0.247395833,1,0,0,1.292,Diorite_rect,7,0,7,0,1,
5fa562e3b58abe00096ee2d4,TCN,2024-06-21_13h46.34.264,LearnStrategy,2023.2.3,Win32,60.60606061,1,2,9,,,,,,,,6,15,,,,,,,,,,,6,3.236,1,,,,,,-0.065104167,-0.3984375,1,0,0,3.2358,Pegmatite_rect,8,0,8,0,1,
5fa562e3b58abe00096ee2d4,TCN,2024-06-21_13h46.34.264,LearnStrategy,2023.2.3,Win32,60.60606061,1,2,10,,,,,,,,1,06,,,,,,,,,,,8,1.88,0,,,,,,0.35546875,-0.404947917,1,0,0,1.8796,Pumice_rect,9,0,9,0,1,
5fa562e3b58abe00096ee2d4,TCN,2024-06-21_13h46.34.264,LearnStrategy,2023.2.3,Win32,60.60606061,1,2,11,,,,,,,,8,13,,,,,,,,,,,8,0.85,1,,,,,,0.35546875,-0.404947917,1,0,0,0.8497,Pumice_rect,10,0,10,0,1,
5fa562e3b58abe00096ee2d4,TCN,2024-06-21_13h46.34.264,LearnStrategy,2023.2.3,Win32,60.60606061,1,2,12,,,,,,,,2,06,,,,,,,,,,,4,4.98,0,,,,,,0.358072917,-0.259114583,1,0,0,4.9798,Gabbro_rect,11,0,11,0,1,
5fa562e3b58abe00096ee2d4,TCN,2024-06-21_13h46.34.264,LearnStrategy,2023.2.3,Win32,60.60606061,1,2,13,,,,,,,,8,14,,,,,,,,,,,8,1.326,1,,,,,,0.330729167,-0.395833333,1,0,0,1.3264,Pumice_rect,12,0,12,0,1,
5fa562e3b58abe00096ee2d4,TCN,2024-06-21_13h46.34.264,LearnStrategy,2023.2.3,Win32,60.60606061,1,2,14,,,,,,,,5,06,,,,,,,,,,,5,2.548,1,,,,,,-0.412760417,-0.404947917,1,0,0,2.5485,Obsidian_rect,13,0,13,0,1,
5fa562e3b58abe00096ee2d4,TCN,2024-06-21_13h46.34.264,LearnStrategy,2023.2.3,Win32,60.60606061,1,2,15,,,,,,,,4,11,,,,,,,,,,,2,2.032,0,,,,,,-0.110677083,-0.247395833,1,0,0,2.0316,Basalt_rect,14,0,14,0,1,
5fa562e3b58abe00096ee2d4,TCN,2024-06-21_13h46.34.264,LearnStrategy,2023.2.3,Win32,60.60606061,1,2,16,,,,,,,,6,10,,,,,,,,,,,6,2.552,1,,,,,,-0.07421875,-0.404947917,1,0,0,2.5521,Pegmatite_rect,15,0,15,0,1,
5fa562e3b58abe00096ee2d4,TCN,2024-06-21_13h46.34.264,LearnStrategy,2023.2.3,Win32,60.60606061,2,1,1,0.127604167,0.018229167,1,0,0,1.6253,rock_grid_rect_2,5,10,-1,-1,1.625,-0.36328125,-0.38671875,1,0,0,2.395,Obsidian_rect,5,2.395,1,0,0,0,0,1,,,,,,,,,,,,,
5fa562e3b58abe00096ee2d4,TCN,2024-06-21_13h46.34.264,LearnStrategy,2023.2.3,Win32,60.60606061,2,1,2,0.048177083,0.01171875,1,0,0,1.2413,rock_grid_rect_2,4,15,-1,-1,1.241,-0.1171875,-0.403645833,1,0,0,3.6773,Pegmatite_rect,6,3.677,0,1,0,1,0,1,,,,,,,,,,,,,
5fa562e3b58abe00096ee2d4,TCN,2024-06-21_13h46.34.264,LearnStrategy,2023.2.3,Win32,60.60606061,2,1,3,0.046875,-0.005208333,1,0,0,1.2232,rock_grid_rect_2,2,01,-1,-1,1.223,-0.1328125,-0.260416667,1,0,0,3.3935,Basalt_rect,2,3.394,1,2,0,2,0,1,,,,,,,,,,,,,
5fa562e3b58abe00096ee2d4,TCN,2024-06-21_13h46.34.264,LearnStrategy,2023.2.3,Win32,60.60606061,2,1,4,0.026041667,-0.020833333,1,0,0,1.246,rock_grid_rect_2,3,15,-1,-1,1.246,0.084635417,-0.2578125,1,0,0,2.0333,Diorite_rect,3,2.033,1,3,0,3,0,1,,,,,,,,,,,,,
5fa562e3b58abe00096ee2d4,TCN,2024-06-21_13h46.34.264,LearnStrategy,2023.2.3,Win32,60.60606061,2,1,5,0.088541667,-0.002604167,1,0,0,1.1764,rock_grid_rect_2,4,16,-1,-1,1.176,-0.302083333,-0.40625,1,0,0,3.5803,Obsidian_rect,5,3.58,0,4,0,4,0,1,,,,,,,,,,,,,
5fa562e3b58abe00096ee2d4,TCN,2024-06-21_13h46.34.264,LearnStrategy,2023.2.3,Win32,60.60606061,2,1,6,0.06640625,0.009114583,1,0,0,1.3233,rock_grid_rect_2,8,08,-1,-1,1.323,0.412760417,-0.416666667,1,0,0,1.1091,Pumice_rect,8,1.109,1,5,0,5,0,1,,,,,,,,,,,,,
5fa562e3b58abe00096ee2d4,TCN,2024-06-21_13h46.34.264,LearnStrategy,2023.2.3,Win32,60.60606061,2,1,7,0.0625,0,1,0,0,0.9477,rock_grid_rect_2,1,16,-1,-1,0.948,0.204427083,-0.39453125,1,0,0,3.073,Peridotite_rect,7,3.073,0,6,0,6,0,1,,,,,,,,,,,,,
5fa562e3b58abe00096ee2d4,TCN,2024-06-21_13h46.34.264,LearnStrategy,2023.2.3,Win32,60.60606061,2,1,8,0.075520833,-0.0078125,1,0,0,1.0918,rock_grid_rect_2,1,04,-1,-1,1.092,-0.346354167,-0.23828125,1,0,0,2.686,Andesite_rect,1,2.686,1,7,0,7,0,1,,,,,,,,,,,,,
5fa562e3b58abe00096ee2d4,TCN,2024-06-21_13h46.34.264,LearnStrategy,2023.2.3,Win32,60.60606061,2,1,9,0.013020833,0.010416667,1,0,0,0.9304,rock_grid_rect_2,3,08,-1,-1,0.93,0.110677083,-0.231770833,1,0,0,1.3157,Diorite_rect,3,1.316,1,8,0,8,0,1,,,,,,,,,,,,,
5fa562e3b58abe00096ee2d4,TCN,2024-06-21_13h46.34.264,LearnStrategy,2023.2.3,Win32,60.60606061,2,1,10,0.07421875,-0.018229167,1,0,0,1.1407,rock_grid_rect_2,6,07,-1,-1,1.141,-0.14453125,-0.3984375,1,0,0,3.4529,Pegmatite_rect,6,3.453,1,9,0,9,0,1,,,,,,,,,,,,,
5fa562e3b58abe00096ee2d4,TCN,2024-06-21_13h46.34.264,LearnStrategy,2023.2.3,Win32,60.60606061,2,1,11,-0.005208333,0.022135417,1,0,0,1.0007,rock_grid_rect_2,2,09,-1,-1,1.001,0.436197917,-0.260416667,1,0,0,3.0246,Gabbro_rect,4,3.025,0,10,0,10,0,1,,,,,,,,,,,,,
5fa562e3b58abe00096ee2d4,TCN,2024-06-21_13h46.34.264,LearnStrategy,2023.2.3,Win32,60.60606061,2,1,12,0.076822917,-0.01171875,1,0,0,1.181,rock_grid_rect_2,6,11,-1,-1,1.181,-0.135416667,-0.39453125,1,0,0,2.5304,Pegmatite_rect,6,2.53,1,11,0,11,0,1,,,,,,,,,,,,,
5fa562e3b58abe00096ee2d4,TCN,2024-06-21_13h46.34.264,LearnStrategy,2023.2.3,Win32,60.60606061,2,1,13,0.010416667,-0.009114583,1,0,0,1.1408,rock_grid_rect_2,5,11,-1,-1,1.141,-0.354166667,-0.420572917,1,0,0,5.0792,Obsidian_rect,5,5.079,1,12,0,12,0,1,,,,,,,,,,,,,
5fa562e3b58abe00096ee2d4,TCN,2024-06-21_13h46.34.264,LearnStrategy,2023.2.3,Win32,60.60606061,2,1,14,0.036458333,-0.016927083,1,0,0,1.1709,rock_grid_rect_2,8,10,-1,-1,1.171,0.341145833,-0.389322917,1,0,0,1.3928,Pumice_rect,8,1.393,1,13,0,13,0,1,,,,,,,,,,,,,
5fa562e3b58abe00096ee2d4,TCN,2024-06-21_13h46.34.264,LearnStrategy,2023.2.3,Win32,60.60606061,2,1,15,0.049479167,0.005208333,1,0,0,1.3492,rock_grid_rect_2,7,10,-1,-1,1.349,-0.12890625,-0.390625,1,0,0,3.0906,Pegmatite_rect,6,3.091,0,14,0,14,0,1,,,,,,,,,,,,,
5fa562e3b58abe00096ee2d4,TCN,2024-06-21_13h46.34.264,LearnStrategy,2023.2.3,Win32,60.60606061,2,1,16,0.178385417,0.016927083,1,0,0,2.1666,rock_grid_rect_2,7,05,-1,-1,2.167,0.084635417,-0.395833333,1,0,0,1.7814,Peridotite_rect,7,1.781,1,15,0,15,0,1,,,,,,,,,,,,,
5fa562e3b58abe00096ee2d4,TCN,2024-06-21_13h46.34.264,LearnStrategy,2023.2.3,Win32,60.60606061,2,2,1,,,,,,,,4,12,,,,,,,,,,,4,3.017,1,,,,,,0.3203125,-0.270833333,1,0,0,3.0168,Gabbro_rect,0,0,0,0,1,
5fa562e3b58abe00096ee2d4,TCN,2024-06-21_13h46.34.264,LearnStrategy,2023.2.3,Win32,60.60606061,2,2,2,,,,,,,,4,10,,,,,,,,,,,4,1.542,1,,,,,,0.3203125,-0.270833333,1,0,0,1.5416,Gabbro_rect,1,0,1,0,1,
5fa562e3b58abe00096ee2d4,TCN,2024-06-21_13h46.34.264,LearnStrategy,2023.2.3,Win32,60.60606061,2,2,3,,,,,,,,3,12,,,,,,,,,,,7,3.721,0,,,,,,0.067708333,-0.393229167,1,0,0,3.7209,Peridotite_rect,2,0,2,0,1,
5fa562e3b58abe00096ee2d4,TCN,2024-06-21_13h46.34.264,LearnStrategy,2023.2.3,Win32,60.60606061,2,2,4,,,,,,,,3,11,,,,,,,,,,,7,2.867,0,,,,,,0.0625,-0.401041667,1,0,0,2.8668,Peridotite_rect,3,0,3,0,1,
5fa562e3b58abe00096ee2d4,TCN,2024-06-21_13h46.34.264,LearnStrategy,2023.2.3,Win32,60.60606061,2,2,5,,,,,,,,6,06,,,,,,,,,,,6,1.849,1,,,,,,-0.096354167,-0.3984375,1,0,0,1.8491,Pegmatite_rect,4,0,4,0,1,
5fa562e3b58abe00096ee2d4,TCN,2024-06-21_13h46.34.264,LearnStrategy,2023.2.3,Win32,60.60606061,2,2,6,,,,,,,,7,12,,,,,,,,,,,3,1.534,0,,,,,,0.102864583,-0.256510417,1,0,0,1.5336,Diorite_rect,5,0,5,0,1,
5fa562e3b58abe00096ee2d4,TCN,2024-06-21_13h46.34.264,LearnStrategy,2023.2.3,Win32,60.60606061,2,2,7,,,,,,,,8,15,,,,,,,,,,,8,1.375,1,,,,,,0.309895833,-0.40234375,1,0,0,1.3754,Pumice_rect,6,0,6,0,1,
5fa562e3b58abe00096ee2d4,TCN,2024-06-21_13h46.34.264,LearnStrategy,2023.2.3,Win32,60.60606061,2,2,8,,,,,,,,7,08,,,,,,,,,,,7,2.284,1,,,,,,0.127604167,-0.420572917,1,0,0,2.284,Peridotite_rect,7,0,7,0,1,
5fa562e3b58abe00096ee2d4,TCN,2024-06-21_13h46.34.264,LearnStrategy,2023.2.3,Win32,60.60606061,2,2,9,,,,,,,,2,11,,,,,,,,,,,8,4.699,0,,,,,,0.471354167,-0.401041667,1,0,0,4.6985,Pumice_rect,8,0,8,0,1,
5fa562e3b58abe00096ee2d4,TCN,2024-06-21_13h46.34.264,LearnStrategy,2023.2.3,Win32,60.60606061,2,2,10,,,,,,,,6,03,,,,,,,,,,,6,1.382,1,,,,,,-0.108072917,-0.40234375,1,0,0,1.3821,Pegmatite_rect,9,0,9,0,1,
5fa562e3b58abe00096ee2d4,TCN,2024-06-21_13h46.34.264,LearnStrategy,2023.2.3,Win32,60.60606061,2,2,11,,,,,,,,8,04,,,,,,,,,,,8,1.229,1,,,,,,0.459635417,-0.384114583,1,0,0,1.2288,Pumice_rect,10,0,10,0,1,
5fa562e3b58abe00096ee2d4,TCN,2024-06-21_13h46.34.264,LearnStrategy,2023.2.3,Win32,60.60606061,2,2,12,,,,,,,,1,02,,,,,,,,,,,7,1.897,0,,,,,,0.108072917,-0.381510417,1,0,0,1.8971,Peridotite_rect,11,0,11,0,1,
5fa562e3b58abe00096ee2d4,TCN,2024-06-21_13h46.34.264,LearnStrategy,2023.2.3,Win32,60.60606061,2,2,13,,,,,,,,5,07,,,,,,,,,,,5,1.277,1,,,,,,-0.365885417,-0.385416667,1,0,0,1.2769,Obsidian_rect,12,0,12,0,1,
5fa562e3b58abe00096ee2d4,TCN,2024-06-21_13h46.34.264,LearnStrategy,2023.2.3,Win32,60.60606061,2,2,14,,,,,,,,5,02,,,,,,,,,,,5,0.679,1,,,,,,-0.365885417,-0.385416667,1,0,0,0.6792,Obsidian_rect,13,0,13,0,1,
5fa562e3b58abe00096ee2d4,TCN,2024-06-21_13h46.34.264,LearnStrategy,2023.2.3,Win32,60.60606061,2,2,15,,,,,,,,2,04,,,,,,,,,,,2,1.707,1,,,,,,-0.149739583,-0.256510417,1,0,0,1.7074,Basalt_rect,14,0,14,0,1,
5fa562e3b58abe00096ee2d4,TCN,2024-06-21_13h46.34.264,LearnStrategy,2023.2.3,Win32,60.60606061,2,2,16,,,,,,,,1,09,,,,,,,,,,,2,3.526,0,,,,,,-0.1484375,-0.263020833,1,0,0,3.5265,Basalt_rect,15,0,15,0,1,
5fa562e3b58abe00096ee2d4,TCN,2024-06-21_13h46.34.264,LearnStrategy,2023.2.3,Win32,60.60606061,3,1,1,0.001302083,-0.002604167,1,0,0,1.342,rock_grid_rect_2,8,05,-1,-1,1.342,0.322916667,-0.395833333,1,0,0,1.3208,Pumice_rect,8,1.321,1,0,0,0,0,1,,,,,,,,,,,,,
5fa562e3b58abe00096ee2d4,TCN,2024-06-21_13h46.34.264,LearnStrategy,2023.2.3,Win32,60.60606061,3,1,2,-0.002604167,-0.009114583,1,0,0,1.1939,rock_grid_rect_2,7,15,-1,-1,1.194,0.075520833,-0.407552083,1,0,0,2.3551,Peridotite_rect,7,2.355,1,1,0,1,0,1,,,,,,,,,,,,,
5fa562e3b58abe00096ee2d4,TCN,2024-06-21_13h46.34.264,LearnStrategy,2023.2.3,Win32,60.60606061,3,1,3,0.04296875,-0.015625,1,0,0,1.0407,rock_grid_rect_2,3,16,-1,-1,1.041,-0.407552083,-0.243489583,1,0,0,1.1716,Andesite_rect,1,1.172,0,2,0,2,0,1,,,,,,,,,,,,,
5fa562e3b58abe00096ee2d4,TCN,2024-06-21_13h46.34.264,LearnStrategy,2023.2.3,Win32,60.60606061,3,1,4,-0.002604167,-0.0078125,1,0,0,1.1766,rock_grid_rect_2,1,01,-1,-1,1.177,-0.365885417,-0.259114583,1,0,0,1.8333,Andesite_rect,1,1.833,1,3,0,3,0,1,,,,,,,,,,,,,
5fa562e3b58abe00096ee2d4,TCN,2024-06-21_13h46.34.264,LearnStrategy,2023.2.3,Win32,60.60606061,3,1,5,0,0.00390625,1,0,0,1.5659,rock_grid_rect_2,7,13,-1,-1,1.566,-0.083333333,-0.399739583,1,0,0,2.9773,Pegmatite_rect,6,2.977,0,4,0,4,0,1,,,,,,,,,,,,,
5fa562e3b58abe00096ee2d4,TCN,2024-06-21_13h46.34.264,LearnStrategy,2023.2.3,Win32,60.60606061,3,1,6,0.118489583,-0.015625,1,0,0,1.3345,rock_grid_rect_2,5,04,-1,-1,1.334,-0.298177083,-0.388020833,1,0,0,1.1708,Obsidian_rect,5,1.171,1,5,0,5,0,1,,,,,,,,,,,,,
5fa562e3b58abe00096ee2d4,TCN,2024-06-21_13h46.34.264,LearnStrategy,2023.2.3,Win32,60.60606061,3,1,7,0.001302083,-0.00390625,1,0,0,1.0655,rock_grid_rect_2,8,02,-1,-1,1.066,0.33984375,-0.411458333,1,0,0,4.8017,Pumice_rect,8,4.802,1,6,0,6,0,1,,,,,,,,,,,,,
5fa562e3b58abe00096ee2d4,TCN,2024-06-21_13h46.34.264,LearnStrategy,2023.2.3,Win32,60.60606061,3,1,8,0.1015625,-0.015625,1,0,0,1.2234,rock_grid_rect_2,1,05,-1,-1,1.223,0.087239583,-0.39453125,1,0,0,3.0166,Peridotite_rect,7,3.017,0,7,0,7,0,1,,,,,,,,,,,,,
5fa562e3b58abe00096ee2d4,TCN,2024-06-21_13h46.34.264,LearnStrategy,2023.2.3,Win32,60.60606061,3,1,9,0.100260417,0.014322917,1,0,0,0.933,rock_grid_rect_2,6,09,-1,-1,0.933,-0.171875,-0.384114583,1,0,0,1.349,Pegmatite_rect,6,1.349,1,8,0,8,0,1,,,,,,,,,,,,,
5fa562e3b58abe00096ee2d4,TCN,2024-06-21_13h46.34.264,LearnStrategy,2023.2.3,Win32,60.60606061,3,1,10,0.013020833,-0.009114583,1,0,0,1.0203,rock_grid_rect_2,3,13,-1,-1,1.02,0.134114583,-0.24609375,1,0,0,2.5122,Diorite_rect,3,2.512,1,9,0,9,0,1,,,,,,,,,,,,,
5fa562e3b58abe00096ee2d4,TCN,2024-06-21_13h46.34.264,LearnStrategy,2023.2.3,Win32,60.60606061,3,1,11,0.0390625,0.01171875,1,0,0,0.9832,rock_grid_rect_2,4,13,-1,-1,0.983,-0.375,-0.26171875,1,0,0,4.3754,Andesite_rect,1,4.375,0,10,0,10,0,1,,,,,,,,,,,,,
5fa562e3b58abe00096ee2d4,TCN,2024-06-21_13h46.34.264,LearnStrategy,2023.2.3,Win32,60.60606061,3,1,12,0.002604167,-0.0234375,1,0,0,1.1323,rock_grid_rect_2,4,03,-1,-1,1.132,-0.114583333,-0.263020833,1,0,0,2.2905,Basalt_rect,2,2.291,0,11,0,11,0,1,,,,,,,,,,,,,
5fa562e3b58abe00096ee2d4,TCN,2024-06-21_13h46.34.264,LearnStrategy,2023.2.3,Win32,60.60606061,3,1,13,0.044270833,-0.001302083,1,0,0,1.1471,rock_grid_rect_2,2,02,-1,-1,1.147,-0.12109375,-0.26171875,1,0,0,1.0603,Basalt_rect,2,1.06,1,12,0,12,0,1,,,,,,,,,,,,,
5fa562e3b58abe00096ee2d4,TCN,2024-06-21_13h46.34.264,LearnStrategy,2023.2.3,Win32,60.60606061,3,1,14,0.055989583,-0.015625,1,0,0,0.831,rock_grid_rect_2,5,09,-1,-1,0.831,-0.373697917,-0.407552083,1,0,0,1.1527,Obsidian_rect,5,1.153,1,13,0,13,0,1,,,,,,,,,,,,,
5fa562e3b58abe00096ee2d4,TCN,2024-06-21_13h46.34.264,LearnStrategy,2023.2.3,Win32,60.60606061,3,1,15,0.018229167,-0.01171875,1,0,0,1.0082,rock_grid_rect_2,2,10,-1,-1,1.008,0.41015625,-0.2578125,1,0,0,4.273,Gabbro_rect,4,4.273,0,14,0,14,0,1,,,,,,,,,,,,,
5fa562e3b58abe00096ee2d4,TCN,2024-06-21_13h46.34.264,LearnStrategy,2023.2.3,Win32,60.60606061,3,1,16,0.09375,-0.006510417,1,0,0,1.116,rock_grid_rect_2,6,16,-1,-1,1.116,-0.122395833,-0.41796875,1,0,0,2.0205,Pegmatite_rect,6,2.021,1,15,0,15,0,1,,,,,,,,,,,,,
5fa562e3b58abe00096ee2d4,TCN,2024-06-21_13h46.34.264,LearnStrategy,2023.2.3,Win32,60.60606061,3,2,1,,,,,,,,8,03,,,,,,,,,,,8,1.291,1,,,,,,0.420572917,-0.408854167,1,0,0,1.2906,Pumice_rect,0,0,0,0,1,
5fa562e3b58abe00096ee2d4,TCN,2024-06-21_13h46.34.264,LearnStrategy,2023.2.3,Win32,60.60606061,3,2,2,,,,,,,,4,05,,,,,,,,,,,1,2.972,0,,,,,,-0.376302083,-0.2578125,1,0,0,2.972,Andesite_rect,1,0,1,0,1,
5fa562e3b58abe00096ee2d4,TCN,2024-06-21_13h46.34.264,LearnStrategy,2023.2.3,Win32,60.60606061,3,2,3,,,,,,,,7,16,,,,,,,,,,,7,3.504,1,,,,,,0.149739583,-0.4140625,1,0,0,3.5041,Peridotite_rect,2,0,2,0,1,
5fa562e3b58abe00096ee2d4,TCN,2024-06-21_13h46.34.264,LearnStrategy,2023.2.3,Win32,60.60606061,3,2,4,,,,,,,,3,06,,,,,,,,,,,7,4.264,0,,,,,,0.149739583,-0.411458333,1,0,0,4.2641,Peridotite_rect,3,0,3,0,1,
5fa562e3b58abe00096ee2d4,TCN,2024-06-21_13h46.34.264,LearnStrategy,2023.2.3,Win32,60.60606061,3,2,5,,,,,,,,1,07,,,,,,,,,,,7,1.489,0,,,,,,0.149739583,-0.411458333,1,0,0,1.4889,Peridotite_rect,4,0,4,0,1,
5fa562e3b58abe00096ee2d4,TCN,2024-06-21_13h46.34.264,LearnStrategy,2023.2.3,Win32,60.60606061,3,2,6,,,,,,,,2,05,,,,,,,,,,,2,1.906,1,,,,,,-0.092447917,-0.260416667,1,0,0,1.9061,Basalt_rect,5,0,5,0,1,
5fa562e3b58abe00096ee2d4,TCN,2024-06-21_13h46.34.264,LearnStrategy,2023.2.3,Win32,60.60606061,3,2,7,,,,,,,,4,08,,,,,,,,,,,4,1.453,1,,,,,,0.30078125,-0.259114583,1,0,0,1.4526,Gabbro_rect,6,0,6,0,1,
5fa562e3b58abe00096ee2d4,TCN,2024-06-21_13h46.34.264,LearnStrategy,2023.2.3,Win32,60.60606061,3,2,8,,,,,,,,6,08,,,,,,,,,,,6,2.886,1,,,,,,-0.154947917,-0.399739583,1,0,0,2.8858,Pegmatite_rect,7,0,7,0,1,
5fa562e3b58abe00096ee2d4,TCN,2024-06-21_13h46.34.264,LearnStrategy,2023.2.3,Win32,60.60606061,3,2,9,,,,,,,,6,13,,,,,,,,,,,6,1.117,1,,,,,,-0.154947917,-0.399739583,1,0,0,1.1167,Pegmatite_rect,8,0,8,0,1,
5fa562e3b58abe00096ee2d4,TCN,2024-06-21_13h46.34.264,LearnStrategy,2023.2.3,Win32,60.60606061,3,2,10,,,,,,,,8,09,,,,,,,,,,,8,1.269,1,,,,,,0.408854167,-0.393229167,1,0,0,1.2687,Pumice_rect,9,0,9,0,1,
5fa562e3b58abe00096ee2d4,TCN,2024-06-21_13h46.34.264,LearnStrategy,2023.2.3,Win32,60.60606061,3,2,11,,,,,,,,3,07,,,,,,,,,,,7,1.815,0,,,,,,0.109375,-0.391927083,1,0,0,1.815,Peridotite_rect,10,0,10,0,1,
5fa562e3b58abe00096ee2d4,TCN,2024-06-21_13h46.34.264,LearnStrategy,2023.2.3,Win32,60.60606061,3,2,12,,,,,,,,5,14,,,,,,,,,,,5,1.336,1,,,,,,-0.3828125,-0.401041667,1,0,0,1.3363,Obsidian_rect,11,0,11,0,1,
5fa562e3b58abe00096ee2d4,TCN,2024-06-21_13h46.34.264,LearnStrategy,2023.2.3,Win32,60.60606061,3,2,13,,,,,,,,7,04,,,,,,,,,,,7,3.882,1,,,,,,0.059895833,-0.415364583,1,0,0,3.8818,Peridotite_rect,12,0,12,0,1,
5fa562e3b58abe00096ee2d4,TCN,2024-06-21_13h46.34.264,LearnStrategy,2023.2.3,Win32,60.60606061,3,2,14,,,,,,,,1,14,,,,,,,,,,,1,3.365,1,,,,,,-0.39453125,-0.25,1,0,0,3.3652,Andesite_rect,13,0,13,0,1,
5fa562e3b58abe00096ee2d4,TCN,2024-06-21_13h46.34.264,LearnStrategy,2023.2.3,Win32,60.60606061,3,2,15,,,,,,,,5,05,,,,,,,,,,,5,2.346,1,,,,,,-0.415364583,-0.399739583,1,0,0,2.3456,Obsidian_rect,14,0,14,0,1,
5fa562e3b58abe00096ee2d4,TCN,2024-06-21_13h46.34.264,LearnStrategy,2023.2.3,Win32,60.60606061,3,2,16,,,,,,,,2,14,,,,,,,,,,,4,3.731,0,,,,,,0.365885417,-0.2421875,1,0,0,3.7311,Gabbro_rect,15,0,15,0,1,
5fa562e3b58abe00096ee2d4,TCN,2024-06-21_13h46.34.264,LearnStrategy,2023.2.3,Win32,60.60606061,4,1,1,0.037760417,0.00390625,1,0,0,0.9916,rock_grid_rect_2,2,02,-1,-1,0.992,-0.098958333,-0.264322917,1,0,0,1.2198,Basalt_rect,2,1.22,1,0,0,0,0,1,,,,,,,,,,,,,
5fa562e3b58abe00096ee2d4,TCN,2024-06-21_13h46.34.264,LearnStrategy,2023.2.3,Win32,60.60606061,4,1,2,0.036458333,0.002604167,1,0,0,1.0584,rock_grid_rect_2,2,01,-1,-1,1.058,-0.135416667,-0.247395833,1,0,0,1.0537,Basalt_rect,2,1.054,1,1,0,1,0,1,,,,,,,,,,,,,
5fa562e3b58abe00096ee2d4,TCN,2024-06-21_13h46.34.264,LearnStrategy,2023.2.3,Win32,60.60606061,4,1,3,-0.001302083,-0.009114583,1,0,0,1.2881,rock_grid_rect_2,6,16,-1,-1,1.288,-0.110677083,-0.411458333,1,0,0,1.2919,Pegmatite_rect,6,1.292,1,2,0,2,0,1,,,,,,,,,,,,,
5fa562e3b58abe00096ee2d4,TCN,2024-06-21_13h46.34.264,LearnStrategy,2023.2.3,Win32,60.60606061,4,1,4,0.005208333,-0.015625,1,0,0,0.9368,rock_grid_rect_2,3,09,-1,-1,0.937,0.125,-0.247395833,1,0,0,1.3628,Diorite_rect,3,1.363,1,3,0,3,0,1,,,,,,,,,,,,,
5fa562e3b58abe00096ee2d4,TCN,2024-06-21_13h46.34.264,LearnStrategy,2023.2.3,Win32,60.60606061,4,1,5,-0.015625,-0.018229167,1,0,0,1.1341,rock_grid_rect_2,5,08,-1,-1,1.134,-0.384114583,-0.412760417,1,0,0,1.4115,Obsidian_rect,5,1.411,1,4,0,4,0,1,,,,,,,,,,,,,
5fa562e3b58abe00096ee2d4,TCN,2024-06-21_13h46.34.264,LearnStrategy,2023.2.3,Win32,60.60606061,4,1,6,-0.013020833,-0.018229167,1,0,0,0.927,rock_grid_rect_2,4,13,-1,-1,0.927,-0.393229167,-0.244791667,1,0,0,1.5214,Andesite_rect,1,1.521,0,5,0,5,0,1,,,,,,,,,,,,,
5fa562e3b58abe00096ee2d4,TCN,2024-06-21_13h46.34.264,LearnStrategy,2023.2.3,Win32,60.60606061,4,1,7,-0.013020833,-0.018229167,1,0,0,1.1663,rock_grid_rect_2,4,03,-1,-1,1.166,0.356770833,-0.234375,1,0,0,1.5275,Gabbro_rect,4,1.527,1,6,0,6,0,1,,,,,,,,,,,,,
5fa562e3b58abe00096ee2d4,TCN,2024-06-21_13h46.34.264,LearnStrategy,2023.2.3,Win32,60.60606061,4,1,8,0.108072917,-0.018229167,1,0,0,1.3666,rock_grid_rect_2,3,13,-1,-1,1.367,0.145833333,-0.266927083,1,0,0,2.0023,Diorite_rect,3,2.002,1,7,0,7,0,1,,,,,,,,,,,,,
5fa562e3b58abe00096ee2d4,TCN,2024-06-21_13h46.34.264,LearnStrategy,2023.2.3,Win32,60.60606061,4,1,9,0.03515625,-0.006510417,1,0,0,0.8139,rock_grid_rect_2,6,05,-1,-1,0.814,-0.346354167,-0.3984375,1,0,0,1.6159,Obsidian_rect,5,1.616,0,8,0,8,0,1,,,,,,,,,,,,,
5fa562e3b58abe00096ee2d4,TCN,2024-06-21_13h46.34.264,LearnStrategy,2023.2.3,Win32,60.60606061,4,1,10,0.024739583,-0.010416667,1,0,0,1.2258,rock_grid_rect_2,8,02,-1,-1,1.226,0.345052083,-0.420572917,1,0,0,1.1772,Pumice_rect,8,1.177,1,9,0,9,0,1,,,,,,,,,,,,,
5fa562e3b58abe00096ee2d4,TCN,2024-06-21_13h46.34.264,LearnStrategy,2023.2.3,Win32,60.60606061,4,1,11,0.154947917,-0.0078125,1,0,0,0.9805,rock_grid_rect_2,7,15,-1,-1,0.981,0.07421875,-0.38671875,1,0,0,2.8458,Peridotite_rect,7,2.846,1,10,0,10,0,1,,,,,,,,,,,,,
5fa562e3b58abe00096ee2d4,TCN,2024-06-21_13h46.34.264,LearnStrategy,2023.2.3,Win32,60.60606061,4,1,12,0.098958333,0.010416667,1,0,0,0.8127,rock_grid_rect_2,8,16,-1,-1,0.813,0.329427083,-0.391927083,1,0,0,1.8335,Pumice_rect,8,1.834,1,11,0,11,0,1,,,,,,,,,,,,,
5fa562e3b58abe00096ee2d4,TCN,2024-06-21_13h46.34.264,LearnStrategy,2023.2.3,Win32,60.60606061,4,1,13,0.104166667,0,1,0,0,1.0701,rock_grid_rect_2,7,10,-1,-1,1.07,0.091145833,-0.395833333,1,0,0,2.3566,Peridotite_rect,7,2.357,1,12,0,12,0,1,,,,,,,,,,,,,
5fa562e3b58abe00096ee2d4,TCN,2024-06-21_13h46.34.264,LearnStrategy,2023.2.3,Win32,60.60606061,4,1,14,0.087239583,-0.015625,1,0,0,0.9274,rock_grid_rect_2,5,09,-1,-1,0.927,-0.334635417,-0.388020833,1,0,0,2.1206,Obsidian_rect,5,2.121,1,13,0,13,0,1,,,,,,,,,,,,,
5fa562e3b58abe00096ee2d4,TCN,2024-06-21_13h46.34.264,LearnStrategy,2023.2.3,Win32,60.60606061,4,1,15,-0.009114583,-0.010416667,1,0,0,0.8811,rock_grid_rect_2,1,01,-1,-1,0.881,0.109375,-0.260416667,1,0,0,2.7082,Diorite_rect,3,2.708,0,14,0,14,0,1,,,,,,,,,,,,,
5fa562e3b58abe00096ee2d4,TCN,2024-06-21_13h46.34.264,LearnStrategy,2023.2.3,Win32,60.60606061,4,1,16,-0.057291667,0.01171875,1,0,0,1.6435,rock_grid_rect_2,1,05,-1,-1,1.644,-0.342447917,-0.25,1,0,0,2.4983,Andesite_rect,1,2.498,1,15,0,15,0,1,,,,,,,,,,,,,
5fa562e3b58abe00096ee2d4,TCN,2024-06-21_13h46.34.264,LearnStrategy,2023.2.3,Win32,60.60606061,4,2,1,,,,,,,,8,03,,,,,,,,,,,8,1.435,1,,,,,,0.322916667,-0.41015625,1,0,0,1.435,Pumice_rect,0,0,0,0,1,
5fa562e3b58abe00096ee2d4,TCN,2024-06-21_13h46.34.264,LearnStrategy,2023.2.3,Win32,60.60606061,4,2,2,,,,,,,,3,07,,,,,,,,,,,7,2.856,0,,,,,,0.11328125,-0.407552083,1,0,0,2.8559,Peridotite_rect,1,0,1,0,1,
5fa562e3b58abe00096ee2d4,TCN,2024-06-21_13h46.34.264,LearnStrategy,2023.2.3,Win32,60.60606061,4,2,3,,,,,,,,3,14,,,,,,,,,,,7,1.179,0,,,,,,0.11328125,-0.407552083,1,0,0,1.1792,Peridotite_rect,2,0,2,0,1,
5fa562e3b58abe00096ee2d4,TCN,2024-06-21_13h46.34.264,LearnStrategy,2023.2.3,Win32,60.60606061,4,2,4,,,,,,,,6,15,,,,,,,,,,,6,1.115,1,,,,,,-0.0859375,-0.390625,1,0,0,1.1147,Pegmatite_rect,3,0,3,0,1,
5fa562e3b58abe00096ee2d4,TCN,2024-06-21_13h46.34.264,LearnStrategy,2023.2.3,Win32,60.60606061,4,2,5,,,,,,,,2,12,,,,,,,,,,,8,2.065,0,,,,,,0.3671875,-0.393229167,1,0,0,2.0655,Pumice_rect,4,0,4,0,1,
5fa562e3b58abe00096ee2d4,TCN,2024-06-21_13h46.34.264,LearnStrategy,2023.2.3,Win32,60.60606061,4,2,6,,,,,,,,5,07,,,,,,,,,,,5,5.278,1,,,,,,-0.438802083,-0.41796875,1,0,0,5.2784,Obsidian_rect,5,0,5,0,1,
5fa562e3b58abe00096ee2d4,TCN,2024-06-21_13h46.34.264,LearnStrategy,2023.2.3,Win32,60.60606061,4,2,7,,,,,,,,7,12,,,,,,,,,,,1,3.945,0,,,,,,-0.358072917,-0.264322917,1,0,0,3.9446,Andesite_rect,6,0,6,0,1,
5fa562e3b58abe00096ee2d4,TCN,2024-06-21_13h46.34.264,LearnStrategy,2023.2.3,Win32,60.60606061,4,2,8,,,,,,,,6,10,,,,,,,,,,,6,1.219,1,,,,,,-0.149739583,-0.411458333,1,0,0,1.2188,Pegmatite_rect,7,0,7,0,1,
5fa562e3b58abe00096ee2d4,TCN,2024-06-21_13h46.34.264,LearnStrategy,2023.2.3,Win32,60.60606061,4,2,9,,,,,,,,4,14,,,,,,,,,,,4,1.793,1,,,,,,0.329427083,-0.268229167,1,0,0,1.793,Gabbro_rect,8,0,8,0,1,
5fa562e3b58abe00096ee2d4,TCN,2024-06-21_13h46.34.264,LearnStrategy,2023.2.3,Win32,60.60606061,4,2,10,,,,,,,,1,09,,,,,,,,,,,2,1.536,0,,,,,,-0.1328125,-0.2578125,1,0,0,1.5358,Basalt_rect,9,0,9,0,1,
5fa562e3b58abe00096ee2d4,TCN,2024-06-21_13h46.34.264,LearnStrategy,2023.2.3,Win32,60.60606061,4,2,11,,,,,,,,8,14,,,,,,,,,,,8,1.171,1,,,,,,0.359375,-0.407552083,1,0,0,1.1714,Pumice_rect,10,0,10,0,1,
5fa562e3b58abe00096ee2d4,TCN,2024-06-21_13h46.34.264,LearnStrategy,2023.2.3,Win32,60.60606061,4,2,12,,,,,,,,7,08,,,,,,,,,,,7,5.249,1,,,,,,0.100260417,-0.403645833,1,0,0,5.2488,Peridotite_rect,11,0,11,0,1,
5fa562e3b58abe00096ee2d4,TCN,2024-06-21_13h46.34.264,LearnStrategy,2023.2.3,Win32,60.60606061,4,2,13,,,,,,,,1,14,,,,,,,,,,,1,2.161,1,,,,,,-0.412760417,-0.2421875,1,0,0,2.161,Andesite_rect,12,0,12,0,1,
5fa562e3b58abe00096ee2d4,TCN,2024-06-21_13h46.34.264,LearnStrategy,2023.2.3,Win32,60.60606061,4,2,14,,,,,,,,2,06,,,,,,,,,,,2,1.197,1,,,,,,-0.078125,-0.243489583,1,0,0,1.1969,Basalt_rect,13,0,13,0,1,
5fa562e3b58abe00096ee2d4,TCN,2024-06-21_13h46.34.264,LearnStrategy,2023.2.3,Win32,60.60606061,4,2,15,,,,,,,,5,14,,,,,,,,,,,5,1.415,1,,,,,,-0.33984375,-0.395833333,1,0,0,1.4154,Obsidian_rect,14,0,14,0,1,
5fa562e3b58abe00096ee2d4,TCN,2024-06-21_13h46.34.264,LearnStrategy,2023.2.3,Win32,60.60606061,4,2,16,,,,,,,,4,08,,,,,,,,,,,4,2.552,1,,,,,,0.385416667,-0.25390625,1,0,0,2.5519,Gabbro_rect,15,0,15,0,1,
5fa562e3b58abe00096ee2d4,TCN,2024-06-21_13h46.34.264,LearnStrategy,2023.2.3,Win32,60.60606061,5,1,1,-0.06640625,-0.020833333,1,0,0,28.7884,rock_grid_rect_2,4,09,-1,-1,28.788,0.376302083,-0.266927083,1,0,0,6.4358,Gabbro_rect,4,6.436,1,0,0,0,0,1,,,,,,,,,,,,,
5fa562e3b58abe00096ee2d4,TCN,2024-06-21_13h46.34.264,LearnStrategy,2023.2.3,Win32,60.60606061,5,1,2,0.03515625,-0.016927083,1,0,0,1.1313,rock_grid_rect_2,1,11,-1,-1,1.131,-0.364583333,-0.264322917,1,0,0,3.2042,Andesite_rect,1,3.204,1,1,0,1,0,1,,,,,,,,,,,,,
5fa562e3b58abe00096ee2d4,TCN,2024-06-21_13h46.34.264,LearnStrategy,2023.2.3,Win32,60.60606061,5,1,3,0.024739583,-0.01171875,1,0,0,1.0953,rock_grid_rect_2,6,11,-1,-1,1.095,-0.088541667,-0.390625,1,0,0,1.791,Pegmatite_rect,6,1.791,1,2,0,2,0,1,,,,,,,,,,,,,
5fa562e3b58abe00096ee2d4,TCN,2024-06-21_13h46.34.264,LearnStrategy,2023.2.3,Win32,60.60606061,5,1,4,0.04296875,-0.018229167,1,0,0,0.7912,rock_grid_rect_2,1,04,-1,-1,0.791,-0.319010417,-0.231770833,1,0,0,1.9213,Andesite_rect,1,1.921,1,3,0,3,0,1,,,,,,,,,,,,,
5fa562e3b58abe00096ee2d4,TCN,2024-06-21_13h46.34.264,LearnStrategy,2023.2.3,Win32,60.60606061,5,1,5,0.006510417,-0.0078125,1,0,0,1.1046,rock_grid_rect_2,4,01,-1,-1,1.105,-0.342447917,-0.239583333,1,0,0,1.4174,Andesite_rect,1,1.417,0,4,0,4,0,1,,,,,,,,,,,,,
5fa562e3b58abe00096ee2d4,TCN,2024-06-21_13h46.34.264,LearnStrategy,2023.2.3,Win32,60.60606061,5,1,6,0.041666667,-0.015625,1,0,0,0.9306,rock_grid_rect_2,5,04,-1,-1,0.931,-0.315104167,-0.391927083,1,0,0,1.2062,Obsidian_rect,5,1.206,1,5,0,5,0,1,,,,,,,,,,,,,
5fa562e3b58abe00096ee2d4,TCN,2024-06-21_13h46.34.264,LearnStrategy,2023.2.3,Win32,60.60606061,5,1,7,-0.02734375,-0.022135417,1,0,0,1.2497,rock_grid_rect_2,2,09,-1,-1,1.25,-0.110677083,-0.243489583,1,0,0,4.991,Basalt_rect,2,4.991,1,6,0,6,0,1,,,,,,,,,,,,,
5fa562e3b58abe00096ee2d4,TCN,2024-06-21_13h46.34.264,LearnStrategy,2023.2.3,Win32,60.60606061,5,1,8,0.046875,-0.010416667,1,0,0,1.064,rock_grid_rect_2,8,08,-1,-1,1.064,0.329427083,-0.381510417,1,0,0,1.6471,Pumice_rect,8,1.647,1,7,0,7,0,1,,,,,,,,,,,,,
5fa562e3b58abe00096ee2d4,TCN,2024-06-21_13h46.34.264,LearnStrategy,2023.2.3,Win32,60.60606061,5,1,9,0.061197917,0.001302083,1,0,0,1.0884,rock_grid_rect_2,8,05,-1,-1,1.088,0.337239583,-0.401041667,1,0,0,2.2319,Pumice_rect,8,2.232,1,8,0,8,0,1,,,,,,,,,,,,,
5fa562e3b58abe00096ee2d4,TCN,2024-06-21_13h46.34.264,LearnStrategy,2023.2.3,Win32,60.60606061,5,1,10,0.022135417,0.002604167,1,0,0,0.9562,rock_grid_rect_2,7,02,-1,-1,0.956,0.109375,-0.404947917,1,0,0,2.9506,Peridotite_rect,7,2.951,1,9,0,9,0,1,,,,,,,,,,,,,
5fa562e3b58abe00096ee2d4,TCN,2024-06-21_13h46.34.264,LearnStrategy,2023.2.3,Win32,60.60606061,5,1,11,0.109375,0.001302083,1,0,0,1.0547,rock_grid_rect_2,6,09,-1,-1,1.055,-0.127604167,-0.385416667,1,0,0,1.1627,Pegmatite_rect,6,1.163,1,10,0,10,0,1,,,,,,,,,,,,,
5fa562e3b58abe00096ee2d4,TCN,2024-06-21_13h46.34.264,LearnStrategy,2023.2.3,Win32,60.60606061,5,1,12,0.049479167,0.013020833,1,0,0,0.7875,rock_grid_rect_2,2,16,-1,-1,0.788,0.346354167,-0.251302083,1,0,0,2.6681,Gabbro_rect,4,2.668,0,11,0,11,0,1,,,,,,,,,,,,,
5fa562e3b58abe00096ee2d4,TCN,2024-06-21_13h46.34.264,LearnStrategy,2023.2.3,Win32,60.60606061,5,1,13,0.057291667,-0.002604167,1,0,0,1.3144,rock_grid_rect_2,7,05,-1,-1,1.314,0.091145833,-0.419270833,1,0,0,3.5179,Peridotite_rect,7,3.518,1,12,0,12,0,1,,,,,,,,,,,,,
5fa562e3b58abe00096ee2d4,TCN,2024-06-21_13h46.34.264,LearnStrategy,2023.2.3,Win32,60.60606061,5,1,14,0.071614583,-0.006510417,1,0,0,1.6146,rock_grid_rect_2,3,08,-1,-1,1.615,0.0859375,-0.239583333,1,0,0,1.7241,Diorite_rect,3,1.724,1,13,0,13,0,1,,,,,,,,,,,,,
5fa562e3b58abe00096ee2d4,TCN,2024-06-21_13h46.34.264,LearnStrategy,2023.2.3,Win32,60.60606061,5,1,15,0.052083333,-0.015625,1,0,0,0.8415,rock_grid_rect_2,3,16,-1,-1,0.841,0.045572917,-0.234375,1,0,0,1.8257,Diorite_rect,3,1.826,1,14,0,14,0,1,,,,,,,,,,,,,
5fa562e3b58abe00096ee2d4,TCN,2024-06-21_13h46.34.264,LearnStrategy,2023.2.3,Win32,60.60606061,5,1,16,0.036458333,0.014322917,1,0,0,0.8151,rock_grid_rect_2,5,12,-1,-1,0.815,-0.356770833,-0.403645833,1,0,0,1.8804,Obsidian_rect,5,1.88,1,15,0,15,0,1,,,,,,,,,,,,,
5fa562e3b58abe00096ee2d4,TCN,2024-06-21_13h46.34.264,LearnStrategy,2023.2.3,Win32,60.60606061,5,2,1,,,,,,,,8,04,,,,,,,,,,,8,1.433,1,,,,,,0.337239583,-0.404947917,1,0,0,1.4325,Pumice_rect,0,0,0,0,1,
5fa562e3b58abe00096ee2d4,TCN,2024-06-21_13h46.34.264,LearnStrategy,2023.2.3,Win32,60.60606061,5,2,2,,,,,,,,1,07,,,,,,,,,,,3,3.217,0,,,,,,0.134114583,-0.25390625,1,0,0,3.2166,Diorite_rect,1,0,1,0,1,
5fa562e3b58abe00096ee2d4,TCN,2024-06-21_13h46.34.264,LearnStrategy,2023.2.3,Win32,60.60606061,5,2,3,,,,,,,,6,13,,,,,,,,,,,6,2.432,1,,,,,,-0.16796875,-0.416666667,1,0,0,2.4318,Pegmatite_rect,2,0,2,0,1,
5fa562e3b58abe00096ee2d4,TCN,2024-06-21_13h46.34.264,LearnStrategy,2023.2.3,Win32,60.60606061,5,2,4,,,,,,,,4,10,,,,,,,,,,,4,2.22,1,,,,,,0.430989583,-0.23828125,1,0,0,2.2198,Gabbro_rect,3,0,3,0,1,
5fa562e3b58abe00096ee2d4,TCN,2024-06-21_13h46.34.264,LearnStrategy,2023.2.3,Win32,60.60606061,5,2,5,,,,,,,,8,13,,,,,,,,,,,8,1.362,1,,,,,,0.411458333,-0.390625,1,0,0,1.3625,Pumice_rect,4,0,4,0,1,
5fa562e3b58abe00096ee2d4,TCN,2024-06-21_13h46.34.264,LearnStrategy,2023.2.3,Win32,60.60606061,5,2,6,,,,,,,,2,04,,,,,,,,,,,2,1.365,1,,,,,,-0.078125,-0.2421875,1,0,0,1.3648,Basalt_rect,5,0,5,0,1,
5fa562e3b58abe00096ee2d4,TCN,2024-06-21_13h46.34.264,LearnStrategy,2023.2.3,Win32,60.60606061,5,2,7,,,,,,,,4,11,,,,,,,,,,,4,1.404,1,,,,,,0.322916667,-0.247395833,1,0,0,1.4039,Gabbro_rect,6,0,6,0,1,
5fa562e3b58abe00096ee2d4,TCN,2024-06-21_13h46.34.264,LearnStrategy,2023.2.3,Win32,60.60606061,5,2,8,,,,,,,,1,06,,,,,,,,,,,1,1.79,1,,,,,,-0.412760417,-0.240885417,1,0,0,1.7898,Andesite_rect,7,0,7,0,1,
5fa562e3b58abe00096ee2d4,TCN,2024-06-21_13h46.34.264,LearnStrategy,2023.2.3,Win32,60.60606061,5,2,9,,,,,,,,7,07,,,,,,,,,,,7,3.218,1,,,,,,0.118489583,-0.40625,1,0,0,3.2182,Peridotite_rect,8,0,8,0,1,
5fa562e3b58abe00096ee2d4,TCN,2024-06-21_13h46.34.264,LearnStrategy,2023.2.3,Win32,60.60606061,5,2,10,,,,,,,,3,10,,,,,,,,,,,3,5.115,1,,,,,,0.09765625,-0.268229167,1,0,0,5.1154,Diorite_rect,9,0,9,0,1,
5fa562e3b58abe00096ee2d4,TCN,2024-06-21_13h46.34.264,LearnStrategy,2023.2.3,Win32,60.60606061,5,2,11,,,,,,,,5,02,,,,,,,,,,,5,1.19,1,,,,,,-0.36328125,-0.41796875,1,0,0,1.1904,Obsidian_rect,10,0,10,0,1,
5fa562e3b58abe00096ee2d4,TCN,2024-06-21_13h46.34.264,LearnStrategy,2023.2.3,Win32,60.60606061,5,2,12,,,,,,,,3,11,,,,,,,,,,,7,3.812,0,,,,,,0.114583333,-0.408854167,1,0,0,3.8115,Peridotite_rect,11,0,11,0,1,
5fa562e3b58abe00096ee2d4,TCN,2024-06-21_13h46.34.264,LearnStrategy,2023.2.3,Win32,60.60606061,5,2,13,,,,,,,,6,06,,,,,,,,,,,6,4.264,1,,,,,,-0.091145833,-0.388020833,1,0,0,4.2644,Pegmatite_rect,12,0,12,0,1,
5fa562e3b58abe00096ee2d4,TCN,2024-06-21_13h46.34.264,LearnStrategy,2023.2.3,Win32,60.60606061,5,2,14,,,,,,,,5,16,,,,,,,,,,,5,1.575,1,,,,,,-0.359375,-0.3828125,1,0,0,1.5751,Obsidian_rect,13,0,13,0,1,
5fa562e3b58abe00096ee2d4,TCN,2024-06-21_13h46.34.264,LearnStrategy,2023.2.3,Win32,60.60606061,5,2,15,,,,,,,,7,06,,,,,,,,,,,6,4.449,0,,,,,,-0.109375,-0.393229167,1,0,0,4.449,Pegmatite_rect,14,0,14,0,1,
5fa562e3b58abe00096ee2d4,TCN,2024-06-21_13h46.34.264,LearnStrategy,2023.2.3,Win32,60.60606061,5,2,16,,,,,,,,2,11,,,,,,,,,,,8,1.266,0,,,,,,0.361979167,-0.40625,1,0,0,1.2657,Pumice_rect,15,0,15,0,1,
5fa562e3b58abe00096ee2d4,TCN,2024-06-21_13h46.34.264,LearnStrategy,2023.2.3,Win32,60.60606061,6,1,1,0.001302083,-0.013020833,1,0,0,1.0336,rock_grid_rect_2,4,16,-1,-1,1.034,0.333333333,-0.265625,1,0,0,1.49,Gabbro_rect,4,1.49,1,0,0,0,0,1,,,,,,,,,,,,,
5fa562e3b58abe00096ee2d4,TCN,2024-06-21_13h46.34.264,LearnStrategy,2023.2.3,Win32,60.60606061,6,1,2,0.013020833,0,1,0,0,1.1055,rock_grid_rect_2,4,15,-1,-1,1.106,-0.359375,-0.244791667,1,0,0,1.5182,Andesite_rect,1,1.518,0,1,0,1,0,1,,,,,,,,,,,,,
5fa562e3b58abe00096ee2d4,TCN,2024-06-21_13h46.34.264,LearnStrategy,2023.2.3,Win32,60.60606061,6,1,3,0.08984375,0.015625,1,0,0,0.8885,rock_grid_rect_2,7,14,-1,-1,0.888,-0.299479167,-0.255208333,1,0,0,1.9698,Andesite_rect,1,1.97,0,2,0,2,0,1,,,,,,,,,,,,,
5fa562e3b58abe00096ee2d4,TCN,2024-06-21_13h46.34.264,LearnStrategy,2023.2.3,Win32,60.60606061,6,1,4,0.045572917,-0.015625,1,0,0,1.5916,rock_grid_rect_2,2,08,-1,-1,1.592,-0.115885417,-0.26171875,1,0,0,1.1375,Basalt_rect,2,1.138,1,3,0,3,0,1,,,,,,,,,,,,,
5fa562e3b58abe00096ee2d4,TCN,2024-06-21_13h46.34.264,LearnStrategy,2023.2.3,Win32,60.60606061,6,1,5,0.0234375,-0.006510417,1,0,0,0.9321,rock_grid_rect_2,3,15,-1,-1,0.932,-0.325520833,-0.25390625,1,0,0,2.062,Andesite_rect,1,2.062,0,4,0,4,0,1,,,,,,,,,,,,,
5fa562e3b58abe00096ee2d4,TCN,2024-06-21_13h46.34.264,LearnStrategy,2023.2.3,Win32,60.60606061,6,1,6,0.033854167,-0.002604167,1,0,0,1.2642,rock_grid_rect_2,3,02,-1,-1,1.264,0.110677083,-0.247395833,1,0,0,1.0964,Diorite_rect,3,1.096,1,5,0,5,0,1,,,,,,,,,,,,,
5fa562e3b58abe00096ee2d4,TCN,2024-06-21_13h46.34.264,LearnStrategy,2023.2.3,Win32,60.60606061,6,1,7,0.100260417,0.01171875,1,0,0,0.8264,rock_grid_rect_2,7,13,-1,-1,0.826,-0.0859375,-0.407552083,1,0,0,1.7822,Pegmatite_rect,6,1.782,0,6,0,6,0,1,,,,,,,,,,,,,
5fa562e3b58abe00096ee2d4,TCN,2024-06-21_13h46.34.264,LearnStrategy,2023.2.3,Win32,60.60606061,6,1,8,0.06640625,-0.013020833,1,0,0,0.9062,rock_grid_rect_2,2,10,-1,-1,0.906,-0.115885417,-0.24609375,1,0,0,1.4404,Basalt_rect,2,1.44,1,7,0,7,0,1,,,,,,,,,,,,,
5fa562e3b58abe00096ee2d4,TCN,2024-06-21_13h46.34.264,LearnStrategy,2023.2.3,Win32,60.60606061,6,1,9,-0.009114583,0.00390625,1,0,0,0.9706,rock_grid_rect_2,6,07,-1,-1,0.971,0.080729167,-0.397135417,1,0,0,2.3647,Peridotite_rect,7,2.365,0,8,0,8,0,1,,,,,,,,,,,,,
5fa562e3b58abe00096ee2d4,TCN,2024-06-21_13h46.34.264,LearnStrategy,2023.2.3,Win32,60.60606061,6,1,10,0.040364583,-0.020833333,1,0,0,1.0375,rock_grid_rect_2,1,10,-1,-1,1.038,0.348958333,-0.416666667,1,0,0,2.4398,Pumice_rect,8,2.44,0,9,0,9,0,1,,,,,,,,,,,,,
5fa562e3b58abe00096ee2d4,TCN,2024-06-21_13h46.34.264,LearnStrategy,2023.2.3,Win32,60.60606061,6,1,11,0.03125,-0.01171875,1,0,0,0.9978,rock_grid_rect_2,6,12,-1,-1,0.998,-0.118489583,-0.399739583,1,0,0,4.186,Pegmatite_rect,6,4.186,1,10,0,10,0,1,,,,,,,,,,,,,
5fa562e3b58abe00096ee2d4,TCN,2024-06-21_13h46.34.264,LearnStrategy,2023.2.3,Win32,60.60606061,6,1,12,0.083333333,-0.01953125,1,0,0,1.0474,rock_grid_rect_2,5,11,-1,-1,1.047,-0.372395833,-0.415364583,1,0,0,1.1509,Obsidian_rect,5,1.151,1,11,0,11,0,1,,,,,,,,,,,,,
5fa562e3b58abe00096ee2d4,TCN,2024-06-21_13h46.34.264,LearnStrategy,2023.2.3,Win32,60.60606061,6,1,13,0.06640625,-0.009114583,1,0,0,0.8216,rock_grid_rect_2,1,16,-1,-1,0.822,-0.35546875,-0.240885417,1,0,0,1.1994,Andesite_rect,1,1.199,1,12,0,12,0,1,,,,,,,,,,,,,
5fa562e3b58abe00096ee2d4,TCN,2024-06-21_13h46.34.264,LearnStrategy,2023.2.3,Win32,60.60606061,6,1,14,0.005208333,-0.016927083,1,0,0,0.9458,rock_grid_rect_2,8,10,-1,-1,0.946,0.341145833,-0.411458333,1,0,0,1.2115,Pumice_rect,8,1.212,1,13,0,13,0,1,,,,,,,,,,,,,
5fa562e3b58abe00096ee2d4,TCN,2024-06-21_13h46.34.264,LearnStrategy,2023.2.3,Win32,60.60606061,6,1,15,0.09765625,-0.01171875,1,0,0,0.8666,rock_grid_rect_2,8,06,-1,-1,0.867,0.342447917,-0.416666667,1,0,0,1.3887,Pumice_rect,8,1.389,1,14,0,14,0,1,,,,,,,,,,,,,
5fa562e3b58abe00096ee2d4,TCN,2024-06-21_13h46.34.264,LearnStrategy,2023.2.3,Win32,60.60606061,6,1,16,0.041666667,0,1,0,0,1.0453,rock_grid_rect_2,5,10,-1,-1,1.045,-0.35546875,-0.399739583,1,0,0,1.0269,Obsidian_rect,5,1.027,1,15,0,15,0,1,,,,,,,,,,,,,
5fa562e3b58abe00096ee2d4,TCN,2024-06-21_13h46.34.264,LearnStrategy,2023.2.3,Win32,60.60606061,6,2,1,,,,,,,,7,16,,,,,,,,,,,7,3.92,1,,,,,,0.08984375,-0.403645833,1,0,0,3.9203,Peridotite_rect,0,0,0,0,1,
5fa562e3b58abe00096ee2d4,TCN,2024-06-21_13h46.34.264,LearnStrategy,2023.2.3,Win32,60.60606061,6,2,2,,,,,,,,1,02,,,,,,,,,,,1,2.268,1,,,,,,-0.328125,-0.244791667,1,0,0,2.2679,Andesite_rect,1,0,1,0,1,
5fa562e3b58abe00096ee2d4,TCN,2024-06-21_13h46.34.264,LearnStrategy,2023.2.3,Win32,60.60606061,6,2,3,,,,,,,,3,12,,,,,,,,,,,1,1.778,0,,,,,,-0.328125,-0.244791667,1,0,0,1.7776,Andesite_rect,2,0,2,0,1,
5fa562e3b58abe00096ee2d4,TCN,2024-06-21_13h46.34.264,LearnStrategy,2023.2.3,Win32,60.60606061,6,2,4,,,,,,,,3,06,,,,,,,,,,,1,1.288,0,,,,,,-0.328125,-0.244791667,1,0,0,1.2883,Andesite_rect,3,0,3,0,1,
5fa562e3b58abe00096ee2d4,TCN,2024-06-21_13h46.34.264,LearnStrategy,2023.2.3,Win32,60.60606061,6,2,5,,,,,,,,2,14,,,,,,,,,,,4,2.373,0,,,,,,0.295572917,-0.259114583,1,0,0,2.3731,Gabbro_rect,4,0,4,0,1,
5fa562e3b58abe00096ee2d4,TCN,2024-06-21_13h46.34.264,LearnStrategy,2023.2.3,Win32,60.60606061,6,2,6,,,,,,,,4,12,,,,,,,,,,,2,1.073,0,,,,,,-0.20703125,-0.239583333,1,0,0,1.0734,Basalt_rect,5,0,5,0,1,
5fa562e3b58abe00096ee2d4,TCN,2024-06-21_13h46.34.264,LearnStrategy,2023.2.3,Win32,60.60606061,6,2,7,,,,,,,,8,09,,,,,,,,,,,8,1.632,1,,,,,,0.35546875,-0.391927083,1,0,0,1.6321,Pumice_rect,6,0,6,0,1,
5fa562e3b58abe00096ee2d4,TCN,2024-06-21_13h46.34.264,LearnStrategy,2023.2.3,Win32,60.60606061,6,2,8,,,,,,,,6,03,,,,,,,,,,,6,1.571,1,,,,,,-0.13671875,-0.385416667,1,0,0,1.5709,Pegmatite_rect,7,0,7,0,1,
5fa562e3b58abe00096ee2d4,TCN,2024-06-21_13h46.34.264,LearnStrategy,2023.2.3,Win32,60.60606061,6,2,9,,,,,,,,5,05,,,,,,,,,,,5,1.55,1,,,,,,-0.372395833,-0.415364583,1,0,0,1.5502,Obsidian_rect,8,0,8,0,1,
5fa562e3b58abe00096ee2d4,TCN,2024-06-21_13h46.34.264,LearnStrategy,2023.2.3,Win32,60.60606061,6,2,10,,,,,,,,5,06,,,,,,,,,,,5,0.84,1,,,,,,-0.372395833,-0.415364583,1,0,0,0.8401,Obsidian_rect,9,0,9,0,1,
5fa562e3b58abe00096ee2d4,TCN,2024-06-21_13h46.34.264,LearnStrategy,2023.2.3,Win32,60.60606061,6,2,11,,,,,,,,7,04,,,,,,,,,,,7,3.58,1,,,,,,0.145833333,-0.41015625,1,0,0,3.5797,Peridotite_rect,10,0,10,0,1,
5fa562e3b58abe00096ee2d4,TCN,2024-06-21_13h46.34.264,LearnStrategy,2023.2.3,Win32,60.60606061,6,2,12,,,,,,,,6,08,,,,,,,,,,,6,1.165,1,,,,,,-0.059895833,-0.399739583,1,0,0,1.1654,Pegmatite_rect,11,0,11,0,1,
5fa562e3b58abe00096ee2d4,TCN,2024-06-21_13h46.34.264,LearnStrategy,2023.2.3,Win32,60.60606061,6,2,13,,,,,,,,8,15,,,,,,,,,,,8,1.258,1,,,,,,0.377604167,-0.391927083,1,0,0,1.2578,Pumice_rect,12,0,12,0,1,
5fa562e3b58abe00096ee2d4,TCN,2024-06-21_13h46.34.264,LearnStrategy,2023.2.3,Win32,60.60606061,6,2,14,,,,,,,,1,03,,,,,,,,,,,2,1.334,0,,,,,,-0.123697917,-0.26171875,1,0,0,1.3338,Basalt_rect,13,0,13,0,1,
5fa562e3b58abe00096ee2d4,TCN,2024-06-21_13h46.34.264,LearnStrategy,2023.2.3,Win32,60.60606061,6,2,15,,,,,,,,4,05,,,,,,,,,,,1,2.656,0,,,,,,-0.389322917,-0.235677083,1,0,0,2.6563,Andesite_rect,14,0,14,0,1,
5fa562e3b58abe00096ee2d4,TCN,2024-06-21_13h46.34.264,LearnStrategy,2023.2.3,Win32,60.60606061,6,2,16,,,,,,,,2,05,,,,,,,,,,,2,1.139,1,,,,,,-0.174479167,-0.24609375,1,0,0,1.1391,Basalt_rect,15,0,15,0,1,
5fa562e3b58abe00096ee2d4,TCN,2024-06-21_13h46.34.264,LearnStrategy,2023.2.3,Win32,60.60606061,7,1,1,0.126302083,-0.00390625,1,0,0,1.3987,rock_grid_rect_2,4,15,-1,-1,1.399,0.141927083,-0.25,1,0,0,1.7552,Diorite_rect,3,1.755,0,0,0,0,0,1,,,,,,,,,,,,,
5fa562e3b58abe00096ee2d4,TCN,2024-06-21_13h46.34.264,LearnStrategy,2023.2.3,Win32,60.60606061,7,1,2,0.12890625,0.018229167,1,0,0,1.1149,rock_grid_rect_2,7,14,-1,-1,1.115,-0.3359375,-0.23046875,1,0,0,3.1154,Andesite_rect,1,3.115,0,1,0,1,0,1,,,,,,,,,,,,,
5fa562e3b58abe00096ee2d4,TCN,2024-06-21_13h46.34.264,LearnStrategy,2023.2.3,Win32,60.60606061,7,1,3,0.03125,0,1,0,0,0.9762,rock_grid_rect_2,4,13,-1,-1,0.976,-0.33984375,-0.248697917,1,0,0,1.3889,Andesite_rect,1,1.389,0,2,0,2,0,1,,,,,,,,,,,,,
5fa562e3b58abe00096ee2d4,TCN,2024-06-21_13h46.34.264,LearnStrategy,2023.2.3,Win32,60.60606061,7,1,4,0.046875,-0.0234375,1,0,0,1.1058,rock_grid_rect_2,1,05,-1,-1,1.106,-0.358072917,-0.24609375,1,0,0,1.5072,Andesite_rect,1,1.507,1,3,0,3,0,1,,,,,,,,,,,,,
5fa562e3b58abe00096ee2d4,TCN,2024-06-21_13h46.34.264,LearnStrategy,2023.2.3,Win32,60.60606061,7,1,5,-0.014322917,-0.010416667,1,0,0,1.3775,rock_grid_rect_2,1,01,-1,-1,1.377,0.118489583,-0.26171875,1,0,0,1.6302,Diorite_rect,3,1.63,0,4,0,4,0,1,,,,,,,,,,,,,
5fa562e3b58abe00096ee2d4,TCN,2024-06-21_13h46.34.264,LearnStrategy,2023.2.3,Win32,60.60606061,7,1,6,0.024739583,0.0078125,1,0,0,1.1557,rock_grid_rect_2,6,16,-1,-1,1.156,-0.135416667,-0.419270833,1,0,0,2.41,Pegmatite_rect,6,2.41,1,5,0,5,0,1,,,,,,,,,,,,,
5fa562e3b58abe00096ee2d4,TCN,2024-06-21_13h46.34.264,LearnStrategy,2023.2.3,Win32,60.60606061,7,1,7,0.09375,0.005208333,1,0,0,1.0796,rock_grid_rect_2,8,10,-1,-1,1.08,0.3515625,-0.397135417,1,0,0,1.4103,Pumice_rect,8,1.41,1,6,0,6,0,1,,,,,,,,,,,,,
5fa562e3b58abe00096ee2d4,TCN,2024-06-21_13h46.34.264,LearnStrategy,2023.2.3,Win32,60.60606061,7,1,8,0.029947917,0.001302083,1,0,0,1.0838,rock_grid_rect_2,6,05,-1,-1,1.084,-0.375,-0.403645833,1,0,0,1.6684,Obsidian_rect,5,1.668,0,7,0,7,0,1,,,,,,,,,,,,,
5fa562e3b58abe00096ee2d4,TCN,2024-06-21_13h46.34.264,LearnStrategy,2023.2.3,Win32,60.60606061,7,1,9,-0.009114583,-0.001302083,1,0,0,1.1985,rock_grid_rect_2,2,02,-1,-1,1.198,-0.123697917,-0.234375,1,0,0,1.1449,Basalt_rect,2,1.145,1,8,0,8,0,1,,,,,,,,,,,,,
5fa562e3b58abe00096ee2d4,TCN,2024-06-21_13h46.34.264,LearnStrategy,2023.2.3,Win32,60.60606061,7,1,10,-0.024739583,0.013020833,1,0,0,0.8158,rock_grid_rect_2,5,10,-1,-1,0.816,-0.352864583,-0.399739583,1,0,0,1.6634,Obsidian_rect,5,1.663,1,9,0,9,0,1,,,,,,,,,,,,,
5fa562e3b58abe00096ee2d4,TCN,2024-06-21_13h46.34.264,LearnStrategy,2023.2.3,Win32,60.60606061,7,1,11,0.07421875,-0.024739583,1,0,0,0.9571,rock_grid_rect_2,3,16,-1,-1,0.957,0.08984375,-0.2421875,1,0,0,2.4542,Diorite_rect,3,2.454,1,10,0,10,0,1,,,,,,,,,,,,,
5fa562e3b58abe00096ee2d4,TCN,2024-06-21_13h46.34.264,LearnStrategy,2023.2.3,Win32,60.60606061,7,1,12,0.08984375,-0.001302083,1,0,0,0.9364,rock_grid_rect_2,2,09,-1,-1,0.936,-0.130208333,-0.247395833,1,0,0,1.6946,Basalt_rect,2,1.695,1,11,0,11,0,1,,,,,,,,,,,,,
5fa562e3b58abe00096ee2d4,TCN,2024-06-21_13h46.34.264,LearnStrategy,2023.2.3,Win32,60.60606061,7,1,13,0.10546875,0.006510417,1,0,0,1.0502,rock_grid_rect_2,3,09,-1,-1,1.05,0.134114583,-0.233072917,1,0,0,1.2484,Diorite_rect,3,1.248,1,12,0,12,0,1,,,,,,,,,,,,,
5fa562e3b58abe00096ee2d4,TCN,2024-06-21_13h46.34.264,LearnStrategy,2023.2.3,Win32,60.60606061,7,1,14,0.072916667,0.009114583,1,0,0,1.0382,rock_grid_rect_2,5,04,-1,-1,1.038,-0.31640625,-0.39453125,1,0,0,1.4716,Obsidian_rect,5,1.472,1,13,0,13,0,1,,,,,,,,,,,,,
5fa562e3b58abe00096ee2d4,TCN,2024-06-21_13h46.34.264,LearnStrategy,2023.2.3,Win32,60.60606061,7,1,15,0.0546875,-0.01171875,1,0,0,1.1178,rock_grid_rect_2,7,10,-1,-1,1.118,0.109375,-0.385416667,1,0,0,1.6165,Peridotite_rect,7,1.616,1,14,0,14,0,1,,,,,,,,,,,,,
5fa562e3b58abe00096ee2d4,TCN,2024-06-21_13h46.34.264,LearnStrategy,2023.2.3,Win32,60.60606061,7,1,16,0.055989583,-0.001302083,1,0,0,0.9974,rock_grid_rect_2,8,16,-1,-1,0.997,0.407552083,-0.390625,1,0,0,1.6035,Pumice_rect,8,1.603,1,15,0,15,0,1,,,,,,,,,,,,,
5fa562e3b58abe00096ee2d4,TCN,2024-06-21_13h46.34.264,LearnStrategy,2023.2.3,Win32,60.60606061,7,2,1,,,,,,,,4,05,,,,,,,,,,,1,3.405,0,,,,,,-0.419270833,-0.259114583,1,0,0,3.405,Andesite_rect,0,0,0,0,1,
5fa562e3b58abe00096ee2d4,TCN,2024-06-21_13h46.34.264,LearnStrategy,2023.2.3,Win32,60.60606061,7,2,2,,,,,,,,5,16,,,,,,,,,,,5,0.994,1,,,,,,-0.415364583,-0.388020833,1,0,0,0.9937,Obsidian_rect,1,0,1,0,1,
5fa562e3b58abe00096ee2d4,TCN,2024-06-21_13h46.34.264,LearnStrategy,2023.2.3,Win32,60.60606061,7,2,3,,,,,,,,3,10,,,,,,,,,,,7,4.156,0,,,,,,0.087239583,-0.3984375,1,0,0,4.156,Peridotite_rect,2,0,2,0,1,
5fa562e3b58abe00096ee2d4,TCN,2024-06-21_13h46.34.264,LearnStrategy,2023.2.3,Win32,60.60606061,7,2,4,,,,,,,,8,03,,,,,,,,,,,8,1.37,1,,,,,,0.3203125,-0.39453125,1,0,0,1.3703,Pumice_rect,3,0,3,0,1,
5fa562e3b58abe00096ee2d4,TCN,2024-06-21_13h46.34.264,LearnStrategy,2023.2.3,Win32,60.60606061,7,2,5,,,,,,,,6,15,,,,,,,,,,,6,1.53,1,,,,,,-0.114583333,-0.412760417,1,0,0,1.5305,Pegmatite_rect,4,0,4,0,1,
5fa562e3b58abe00096ee2d4,TCN,2024-06-21_13h46.34.264,LearnStrategy,2023.2.3,Win32,60.60606061,7,2,6,,,,,,,,3,07,,,,,,,,,,,7,3.698,0,,,,,,0.12890625,-0.397135417,1,0,0,3.698,Peridotite_rect,5,0,5,0,1,
5fa562e3b58abe00096ee2d4,TCN,2024-06-21_13h46.34.264,LearnStrategy,2023.2.3,Win32,60.60606061,7,2,7,,,,,,,,7,07,,,,,,,,,,,7,1.082,1,,,,,,0.12890625,-0.397135417,1,0,0,1.0818,Peridotite_rect,6,0,6,0,1,
5fa562e3b58abe00096ee2d4,TCN,2024-06-21_13h46.34.264,LearnStrategy,2023.2.3,Win32,60.60606061,7,2,8,,,,,,,,5,14,,,,,,,,,,,5,1.194,1,,,,,,-0.37890625,-0.393229167,1,0,0,1.1935,Obsidian_rect,7,0,7,0,1,
5fa562e3b58abe00096ee2d4,TCN,2024-06-21_13h46.34.264,LearnStrategy,2023.2.3,Win32,60.60606061,7,2,9,,,,,,,,4,11,,,,,,,,,,,2,2.08,0,,,,,,-0.173177083,-0.256510417,1,0,0,2.0804,Basalt_rect,8,0,8,0,1,
5fa562e3b58abe00096ee2d4,TCN,2024-06-21_13h46.34.264,LearnStrategy,2023.2.3,Win32,60.60606061,7,2,10,,,,,,,,2,04,,,,,,,,,,,2,2.164,1,,,,,,-0.173177083,-0.256510417,1,0,0,2.1637,Basalt_rect,9,0,9,0,1,
5fa562e3b58abe00096ee2d4,TCN,2024-06-21_13h46.34.264,LearnStrategy,2023.2.3,Win32,60.60606061,7,2,11,,,,,,,,7,16,,,,,,,,,,,1,4.698,0,,,,,,-0.3984375,-0.2421875,1,0,0,4.6977,Andesite_rect,10,0,10,0,1,
5fa562e3b58abe00096ee2d4,TCN,2024-06-21_13h46.34.264,LearnStrategy,2023.2.3,Win32,60.60606061,7,2,12,,,,,,,,1,06,,,,,,,,,,,2,4.934,0,,,,,,-0.122395833,-0.248697917,1,0,0,4.9336,Basalt_rect,11,0,11,0,1,
5fa562e3b58abe00096ee2d4,TCN,2024-06-21_13h46.34.264,LearnStrategy,2023.2.3,Win32,60.60606061,7,2,13,,,,,,,,8,13,,,,,,,,,,,8,1.473,1,,,,,,0.376302083,-0.390625,1,0,0,1.4731,Pumice_rect,12,0,12,0,1,
5fa562e3b58abe00096ee2d4,TCN,2024-06-21_13h46.34.264,LearnStrategy,2023.2.3,Win32,60.60606061,7,2,14,,,,,,,,2,12,,,,,,,,,,,8,3.175,0,,,,,,0.408854167,-0.411458333,1,0,0,3.1753,Pumice_rect,13,0,13,0,1,
5fa562e3b58abe00096ee2d4,TCN,2024-06-21_13h46.34.264,LearnStrategy,2023.2.3,Win32,60.60606061,7,2,15,,,,,,,,1,02,,,,,,,,,,,1,1.729,1,,,,,,-0.358072917,-0.259114583,1,0,0,1.729,Andesite_rect,14,0,14,0,1,
5fa562e3b58abe00096ee2d4,TCN,2024-06-21_13h46.34.264,LearnStrategy,2023.2.3,Win32,60.60606061,7,2,16,,,,,,,,6,10,,,,,,,,,,,6,1.282,1,,,,,,-0.123697917,-0.4140625,1,0,0,1.2818,Pegmatite_rect,15,0,15,0,1,
5fa562e3b58abe00096ee2d4,TCN,2024-06-21_13h46.34.264,LearnStrategy,2023.2.3,Win32,60.60606061,8,1,1,-0.05078125,0.002604167,1,0,0,5.1014,rock_grid_rect_2,6,12,-1,-1,5.101,-0.16796875,-0.416666667,1,0,0,1.4559,Pegmatite_rect,6,1.456,1,0,0,0,0,1,,,,,,,,,,,,,
5fa562e3b58abe00096ee2d4,TCN,2024-06-21_13h46.34.264,LearnStrategy,2023.2.3,Win32,60.60606061,8,1,2,0.048177083,-0.0078125,1,0,0,0.8554,rock_grid_rect_2,2,10,-1,-1,0.855,-0.079427083,-0.259114583,1,0,0,2.2676,Basalt_rect,2,2.268,1,1,0,1,0,1,,,,,,,,,,,,,
5fa562e3b58abe00096ee2d4,TCN,2024-06-21_13h46.34.264,LearnStrategy,2023.2.3,Win32,60.60606061,8,1,3,0.01953125,0.0078125,1,0,0,1.0326,rock_grid_rect_2,3,02,-1,-1,1.033,0.091145833,-0.255208333,1,0,0,1.2417,Diorite_rect,3,1.242,1,2,0,2,0,1,,,,,,,,,,,,,
5fa562e3b58abe00096ee2d4,TCN,2024-06-21_13h46.34.264,LearnStrategy,2023.2.3,Win32,60.60606061,8,1,4,0.09375,0.020833333,1,0,0,1.0312,rock_grid_rect_2,7,13,-1,-1,1.031,-0.0859375,-0.408854167,1,0,0,1.5561,Pegmatite_rect,6,1.556,0,3,0,3,0,1,,,,,,,,,,,,,
5fa562e3b58abe00096ee2d4,TCN,2024-06-21_13h46.34.264,LearnStrategy,2023.2.3,Win32,60.60606061,8,1,5,0.119791667,0.0078125,1,0,0,0.8472,rock_grid_rect_2,6,07,-1,-1,0.847,-0.12890625,-0.40625,1,0,0,1.2779,Pegmatite_rect,6,1.278,1,4,0,4,0,1,,,,,,,,,,,,,
5fa562e3b58abe00096ee2d4,TCN,2024-06-21_13h46.34.264,LearnStrategy,2023.2.3,Win32,60.60606061,8,1,6,0.0703125,0,1,0,0,1.0144,rock_grid_rect_2,4,03,-1,-1,1.014,-0.138020833,-0.252604167,1,0,0,3.5882,Basalt_rect,2,3.588,0,5,0,5,0,1,,,,,,,,,,,,,
5fa562e3b58abe00096ee2d4,TCN,2024-06-21_13h46.34.264,LearnStrategy,2023.2.3,Win32,60.60606061,8,1,7,0.0390625,0.013020833,1,0,0,1.1484,rock_grid_rect_2,3,15,-1,-1,1.148,0.356770833,-0.256510417,1,0,0,1.2118,Gabbro_rect,4,1.212,0,6,0,6,0,1,,,,,,,,,,,,,
5fa562e3b58abe00096ee2d4,TCN,2024-06-21_13h46.34.264,LearnStrategy,2023.2.3,Win32,60.60606061,8,1,8,0.110677083,0.002604167,1,0,0,0.8544,rock_grid_rect_2,5,09,-1,-1,0.854,-0.368489583,-0.393229167,1,0,0,1.1039,Obsidian_rect,5,1.104,1,7,0,7,0,1,,,,,,,,,,,,,
5fa562e3b58abe00096ee2d4,TCN,2024-06-21_13h46.34.264,LearnStrategy,2023.2.3,Win32,60.60606061,8,1,9,0.0703125,-0.00390625,1,0,0,0.8562,rock_grid_rect_2,1,04,-1,-1,0.856,-0.356770833,-0.239583333,1,0,0,1.5553,Andesite_rect,1,1.555,1,8,0,8,0,1,,,,,,,,,,,,,
5fa562e3b58abe00096ee2d4,TCN,2024-06-21_13h46.34.264,LearnStrategy,2023.2.3,Win32,60.60606061,8,1,10,0.065104167,0.001302083,1,0,0,0.8192,rock_grid_rect_2,1,10,-1,-1,0.819,0.376302083,-0.39453125,1,0,0,1.6508,Pumice_rect,8,1.651,0,9,0,9,0,1,,,,,,,,,,,,,
5fa562e3b58abe00096ee2d4,TCN,2024-06-21_13h46.34.264,LearnStrategy,2023.2.3,Win32,60.60606061,8,1,11,0.03125,0.001302083,1,0,0,1.2095,rock_grid_rect_2,4,01,-1,-1,1.21,-0.317708333,-0.234375,1,0,0,2.7214,Andesite_rect,1,2.721,0,10,0,10,0,1,,,,,,,,,,,,,
5fa562e3b58abe00096ee2d4,TCN,2024-06-21_13h46.34.264,LearnStrategy,2023.2.3,Win32,60.60606061,8,1,12,0.04296875,0,1,0,0,0.8056,rock_grid_rect_2,7,15,-1,-1,0.806,0.095052083,-0.389322917,1,0,0,1.4021,Peridotite_rect,7,1.402,1,11,0,11,0,1,,,,,,,,,,,,,
5fa562e3b58abe00096ee2d4,TCN,2024-06-21_13h46.34.264,LearnStrategy,2023.2.3,Win32,60.60606061,8,1,13,0.088541667,0.006510417,1,0,0,1.0083,rock_grid_rect_2,2,01,-1,-1,1.008,-0.122395833,-0.255208333,1,0,0,1.424,Basalt_rect,2,1.424,1,12,0,12,0,1,,,,,,,,,,,,,
5fa562e3b58abe00096ee2d4,TCN,2024-06-21_13h46.34.264,LearnStrategy,2023.2.3,Win32,60.60606061,8,1,14,0.016927083,0.015625,1,0,0,0.8251,rock_grid_rect_2,8,08,-1,-1,0.825,0.372395833,-0.411458333,1,0,0,1.2122,Pumice_rect,8,1.212,1,13,0,13,0,1,,,,,,,,,,,,,
5fa562e3b58abe00096ee2d4,TCN,2024-06-21_13h46.34.264,LearnStrategy,2023.2.3,Win32,60.60606061,8,1,15,0.07421875,-0.01171875,1,0,0,1.0054,rock_grid_rect_2,8,02,-1,-1,1.005,0.33984375,-0.404947917,1,0,0,1.1021,Pumice_rect,8,1.102,1,14,0,14,0,1,,,,,,,,,,,,,
5fa562e3b58abe00096ee2d4,TCN,2024-06-21_13h46.34.264,LearnStrategy,2023.2.3,Win32,60.60606061,8,1,16,0.100260417,-0.009114583,1,0,0,0.7994,rock_grid_rect_2,5,08,-1,-1,0.799,-0.390625,-0.3984375,1,0,0,1.2446,Obsidian_rect,5,1.245,1,15,0,15,0,1,,,,,,,,,,,,,
5fa562e3b58abe00096ee2d4,TCN,2024-06-21_13h46.34.264,LearnStrategy,2023.2.3,Win32,60.60606061,8,2,1,,,,,,,,7,12,,,,,,,,,,,7,3.381,1,,,,,,0.125,-0.3984375,1,0,0,3.3806,Peridotite_rect,0,0,0,0,1,
5fa562e3b58abe00096ee2d4,TCN,2024-06-21_13h46.34.264,LearnStrategy,2023.2.3,Win32,60.60606061,8,2,2,,,,,,,,4,12,,,,,,,,,,,2,1.258,0,,,,,,-0.067708333,-0.270833333,1,0,0,1.2584,Basalt_rect,1,0,1,0,1,
5fa562e3b58abe00096ee2d4,TCN,2024-06-21_13h46.34.264,LearnStrategy,2023.2.3,Win32,60.60606061,8,2,3,,,,,,,,3,06,,,,,,,,,,,4,3.801,0,,,,,,0.333333333,-0.251302083,1,0,0,3.8009,Gabbro_rect,2,0,2,0,1,
5fa562e3b58abe00096ee2d4,TCN,2024-06-21_13h46.34.264,LearnStrategy,2023.2.3,Win32,60.60606061,8,2,4,,,,,,,,5,06,,,,,,,,,,,5,1.463,1,,,,,,-0.412760417,-0.407552083,1,0,0,1.4629,Obsidian_rect,3,0,3,0,1,
5fa562e3b58abe00096ee2d4,TCN,2024-06-21_13h46.34.264,LearnStrategy,2023.2.3,Win32,60.60606061,8,2,5,,,,,,,,5,02,,,,,,,,,,,5,0.635,1,,,,,,-0.412760417,-0.407552083,1,0,0,0.6353,Obsidian_rect,4,0,4,0,1,
5fa562e3b58abe00096ee2d4,TCN,2024-06-21_13h46.34.264,LearnStrategy,2023.2.3,Win32,60.60606061,8,2,6,,,,,,,,1,07,,,,,,,,,,,7,3.507,0,,,,,,0.13671875,-0.395833333,1,0,0,3.5075,Peridotite_rect,5,0,5,0,1,
5fa562e3b58abe00096ee2d4,TCN,2024-06-21_13h46.34.264,LearnStrategy,2023.2.3,Win32,60.60606061,8,2,7,,,,,,,,6,08,,,,,,,,,,,6,1.634,1,,,,,,-0.108072917,-0.393229167,1,0,0,1.6338,Pegmatite_rect,6,0,6,0,1,
5fa562e3b58abe00096ee2d4,TCN,2024-06-21_13h46.34.264,LearnStrategy,2023.2.3,Win32,60.60606061,8,2,8,,,,,,,,1,03,,,,,,,,,,,2,1.942,0,,,,,,-0.095052083,-0.247395833,1,0,0,1.9418,Basalt_rect,7,0,7,0,1,
5fa562e3b58abe00096ee2d4,TCN,2024-06-21_13h46.34.264,LearnStrategy,2023.2.3,Win32,60.60606061,8,2,9,,,,,,,,3,14,,,,,,,,,,,1,4.01,0,,,,,,-0.401041667,-0.255208333,1,0,0,4.0097,Andesite_rect,8,0,8,0,1,
5fa562e3b58abe00096ee2d4,TCN,2024-06-21_13h46.34.264,LearnStrategy,2023.2.3,Win32,60.60606061,8,2,10,,,,,,,,8,09,,,,,,,,,,,8,1.375,1,,,,,,0.373697917,-0.384114583,1,0,0,1.3749,Pumice_rect,9,0,9,0,1,
5fa562e3b58abe00096ee2d4,TCN,2024-06-21_13h46.34.264,LearnStrategy,2023.2.3,Win32,60.60606061,8,2,11,,,,,,,,4,14,,,,,,,,,,,4,2.452,1,,,,,,0.38671875,-0.2421875,1,0,0,2.4524,Gabbro_rect,10,0,10,0,1,
5fa562e3b58abe00096ee2d4,TCN,2024-06-21_13h46.34.264,LearnStrategy,2023.2.3,Win32,60.60606061,8,2,12,,,,,,,,2,11,,,,,,,,,,,8,2.143,0,,,,,,0.361979167,-0.41015625,1,0,0,2.1428,Pumice_rect,11,0,11,0,1,
5fa562e3b58abe00096ee2d4,TCN,2024-06-21_13h46.34.264,LearnStrategy,2023.2.3,Win32,60.60606061,8,2,13,,,,,,,,2,05,,,,,,,,,,,2,1.422,1,,,,,,-0.063802083,-0.244791667,1,0,0,1.4219,Basalt_rect,12,0,12,0,1,
5fa562e3b58abe00096ee2d4,TCN,2024-06-21_13h46.34.264,LearnStrategy,2023.2.3,Win32,60.60606061,8,2,14,,,,,,,,7,08,,,,,,,,,,,7,1.359,1,,,,,,0.106770833,-0.41796875,1,0,0,1.359,Peridotite_rect,13,0,13,0,1,
5fa562e3b58abe00096ee2d4,TCN,2024-06-21_13h46.34.264,LearnStrategy,2023.2.3,Win32,60.60606061,8,2,15,,,,,,,,8,04,,,,,,,,,,,8,1.325,1,,,,,,0.34765625,-0.395833333,1,0,0,1.3247,Pumice_rect,14,0,14,0,1,
5fa562e3b58abe00096ee2d4,TCN,2024-06-21_13h46.34.264,LearnStrategy,2023.2.3,Win32,60.60606061,8,2,16,,,,,,,,6,06,,,,,,,,,,,7,4.866,0,,,,,,0.06640625,-0.399739583,1,0,0,4.8659,Peridotite_rect,15,0,15,0,1,
5fa562e3b58abe00096ee2d4,TCN,2024-06-21_13h46.34.264,LearnStrategy,2023.2.3,Win32,60.60606061,9,1,1,0.0546875,0.0078125,1,0,0,0.8256,rock_grid_rect_2,7,02,-1,-1,0.826,0.109375,-0.390625,1,0,0,1.8963,Peridotite_rect,7,1.896,1,0,0,0,0,1,,,,,,,,,,,,,
5fa562e3b58abe00096ee2d4,TCN,2024-06-21_13h46.34.264,LearnStrategy,2023.2.3,Win32,60.60606061,9,1,2,0.12890625,0.0234375,1,0,0,0.8098,rock_grid_rect_2,2,16,-1,-1,0.81,0.34765625,-0.25390625,1,0,0,2.2821,Gabbro_rect,4,2.282,0,1,0,1,0,1,,,,,,,,,,,,,
5fa562e3b58abe00096ee2d4,TCN,2024-06-21_13h46.34.264,LearnStrategy,2023.2.3,Win32,60.60606061,9,1,3,-0.013020833,-0.014322917,1,0,0,0.9423,rock_grid_rect_2,4,09,-1,-1,0.942,-0.130208333,-0.252604167,1,0,0,1.3706,Basalt_rect,2,1.371,0,2,0,2,0,1,,,,,,,,,,,,,
5fa562e3b58abe00096ee2d4,TCN,2024-06-21_13h46.34.264,LearnStrategy,2023.2.3,Win32,60.60606061,9,1,4,0.075520833,-0.0078125,1,0,0,0.9685,rock_grid_rect_2,6,11,-1,-1,0.968,-0.115885417,-0.391927083,1,0,0,2.1055,Pegmatite_rect,6,2.106,1,3,0,3,0,1,,,,,,,,,,,,,
5fa562e3b58abe00096ee2d4,TCN,2024-06-21_13h46.34.264,LearnStrategy,2023.2.3,Win32,60.60606061,9,1,5,0.0390625,0.001302083,1,0,0,0.8332,rock_grid_rect_2,5,12,-1,-1,0.833,-0.3515625,-0.391927083,1,0,0,5.7338,Obsidian_rect,5,5.734,1,4,0,4,0,1,,,,,,,,,,,,,
5fa562e3b58abe00096ee2d4,TCN,2024-06-21_13h46.34.264,LearnStrategy,2023.2.3,Win32,60.60606061,9,1,6,0.01171875,-0.01953125,1,0,0,0.898,rock_grid_rect_2,8,06,-1,-1,0.898,0.40625,-0.399739583,1,0,0,2.2695,Pumice_rect,8,2.27,1,5,0,5,0,1,,,,,,,,,,,,,
5fa562e3b58abe00096ee2d4,TCN,2024-06-21_13h46.34.264,LearnStrategy,2023.2.3,Win32,60.60606061,9,1,7,0.05078125,0.005208333,1,0,0,1.0811,rock_grid_rect_2,8,05,-1,-1,1.081,0.348958333,-0.420572917,1,0,0,1.1786,Pumice_rect,8,1.179,1,6,0,6,0,1,,,,,,,,,,,,,
5fa562e3b58abe00096ee2d4,TCN,2024-06-21_13h46.34.264,LearnStrategy,2023.2.3,Win32,60.60606061,9,1,8,0.1015625,-0.00390625,1,0,0,0.8559,rock_grid_rect_2,4,16,-1,-1,0.856,0.334635417,-0.24609375,1,0,0,1.7532,Gabbro_rect,4,1.753,1,7,0,7,0,1,,,,,,,,,,,,,
5fa562e3b58abe00096ee2d4,TCN,2024-06-21_13h46.34.264,LearnStrategy,2023.2.3,Win32,60.60606061,9,1,9,0.075520833,-0.0078125,1,0,0,1.0908,rock_grid_rect_2,3,13,-1,-1,1.091,0.08984375,-0.243489583,1,0,0,1.569,Diorite_rect,3,1.569,1,8,0,8,0,1,,,,,,,,,,,,,
5fa562e3b58abe00096ee2d4,TCN,2024-06-21_13h46.34.264,LearnStrategy,2023.2.3,Win32,60.60606061,9,1,10,0.080729167,0,1,0,0,1.0172,rock_grid_rect_2,7,05,-1,-1,1.017,-0.16796875,-0.256510417,1,0,0,1.6009,Basalt_rect,2,1.601,0,9,0,9,0,1,,,,,,,,,,,,,
5fa562e3b58abe00096ee2d4,TCN,2024-06-21_13h46.34.264,LearnStrategy,2023.2.3,Win32,60.60606061,9,1,11,0.040364583,-0.005208333,1,0,0,0.8588,rock_grid_rect_2,6,09,-1,-1,0.859,-0.1015625,-0.408854167,1,0,0,2.077,Pegmatite_rect,6,2.077,1,10,0,10,0,1,,,,,,,,,,,,,
5fa562e3b58abe00096ee2d4,TCN,2024-06-21_13h46.34.264,LearnStrategy,2023.2.3,Win32,60.60606061,9,1,12,0.0703125,-0.01953125,1,0,0,1.1253,rock_grid_rect_2,3,08,-1,-1,1.125,0.09375,-0.251302083,1,0,0,1.0795,Diorite_rect,3,1.08,1,11,0,11,0,1,,,,,,,,,,,,,
5fa562e3b58abe00096ee2d4,TCN,2024-06-21_13h46.34.264,LearnStrategy,2023.2.3,Win32,60.60606061,9,1,13,0.109375,-0.002604167,1,0,0,1.2325,rock_grid_rect_2,2,08,-1,-1,1.233,-0.110677083,-0.251302083,1,0,0,2.3044,Basalt_rect,2,2.304,1,12,0,12,0,1,,,,,,,,,,,,,
5fa562e3b58abe00096ee2d4,TCN,2024-06-21_13h46.34.264,LearnStrategy,2023.2.3,Win32,60.60606061,9,1,14,0.080729167,-0.005208333,1,0,0,0.8156,rock_grid_rect_2,1,11,-1,-1,0.816,-0.341145833,-0.25,1,0,0,5.0926,Andesite_rect,1,5.093,1,13,0,13,0,1,,,,,,,,,,,,,
5fa562e3b58abe00096ee2d4,TCN,2024-06-21_13h46.34.264,LearnStrategy,2023.2.3,Win32,60.60606061,9,1,15,-0.037760417,-0.01171875,1,0,0,1.2065,rock_grid_rect_2,5,11,-1,-1,1.207,-0.3828125,-0.404947917,1,0,0,1.0532,Obsidian_rect,5,1.053,1,14,0,14,0,1,,,,,,,,,,,,,
5fa562e3b58abe00096ee2d4,TCN,2024-06-21_13h46.34.264,LearnStrategy,2023.2.3,Win32,60.60606061,9,1,16,-0.014322917,0.005208333,1,0,0,1.2855,rock_grid_rect_2,1,16,-1,-1,1.285,-0.354166667,-0.234375,1,0,0,5.7841,Andesite_rect,1,5.784,1,15,0,15,0,1,,,,,,,,,,,,,
5fa562e3b58abe00096ee2d4,TCN,2024-06-21_13h46.34.264,LearnStrategy,2023.2.3,Win32,60.60606061,9,2,1,,,,,,,,6,13,,,,,,,,,,,6,6.011,1,,,,,,-0.125,-0.384114583,1,0,0,6.0107,Pegmatite_rect,0,0,0,0,1,
5fa562e3b58abe00096ee2d4,TCN,2024-06-21_13h46.34.264,LearnStrategy,2023.2.3,Win32,60.60606061,9,2,2,,,,,,,,7,06,,,,,,,,,,,7,1.878,1,,,,,,0.111979167,-0.3828125,1,0,0,1.8779,Peridotite_rect,1,0,1,0,1,
5fa562e3b58abe00096ee2d4,TCN,2024-06-21_13h46.34.264,LearnStrategy,2023.2.3,Win32,60.60606061,9,2,3,,,,,,,,1,14,,,,,,,,,,,1,2.585,1,,,,,,-0.411458333,-0.235677083,1,0,0,2.5847,Andesite_rect,2,0,2,0,1,
5fa562e3b58abe00096ee2d4,TCN,2024-06-21_13h46.34.264,LearnStrategy,2023.2.3,Win32,60.60606061,9,2,4,,,,,,,,1,09,,,,,,,,,,,4,1.292,0,,,,,,0.37109375,-0.236979167,1,0,0,1.2918,Gabbro_rect,3,0,3,0,1,
5fa562e3b58abe00096ee2d4,TCN,2024-06-21_13h46.34.264,LearnStrategy,2023.2.3,Win32,60.60606061,9,2,5,,,,,,,,4,08,,,,,,,,,,,2,1.447,0,,,,,,-0.1484375,-0.255208333,1,0,0,1.4474,Basalt_rect,4,0,4,0,1,
5fa562e3b58abe00096ee2d4,TCN,2024-06-21_13h46.34.264,LearnStrategy,2023.2.3,Win32,60.60606061,9,2,6,,,,,,,,8,15,,,,,,,,,,,8,1.275,1,,,,,,0.3671875,-0.389322917,1,0,0,1.2747,Pumice_rect,5,0,5,0,1,
5fa562e3b58abe00096ee2d4,TCN,2024-06-21_13h46.34.264,LearnStrategy,2023.2.3,Win32,60.60606061,9,2,7,,,,,,,,8,14,,,,,,,,,,,8,0.709,1,,,,,,0.3671875,-0.389322917,1,0,0,0.709,Pumice_rect,6,0,6,0,1,
5fa562e3b58abe00096ee2d4,TCN,2024-06-21_13h46.34.264,LearnStrategy,2023.2.3,Win32,60.60606061,9,2,8,,,,,,,,7,04,,,,,,,,,,,7,1.291,1,,,,,,0.173177083,-0.391927083,1,0,0,1.2906,Peridotite_rect,7,0,7,0,1,
5fa562e3b58abe00096ee2d4,TCN,2024-06-21_13h46.34.264,LearnStrategy,2023.2.3,Win32,60.60606061,9,2,9,,,,,,,,4,10,,,,,,,,,,,2,2.359,0,,,,,,-0.091145833,-0.259114583,1,0,0,2.3586,Basalt_rect,8,0,8,0,1,
5fa562e3b58abe00096ee2d4,TCN,2024-06-21_13h46.34.264,LearnStrategy,2023.2.3,Win32,60.60606061,9,2,10,,,,,,,,6,03,,,,,,,,,,,6,1.119,1,,,,,,-0.122395833,-0.385416667,1,0,0,1.1192,Pegmatite_rect,9,0,9,0,1,
5fa562e3b58abe00096ee2d4,TCN,2024-06-21_13h46.34.264,LearnStrategy,2023.2.3,Win32,60.60606061,9,2,11,,,,,,,,2,14,,,,,,,,,,,4,2.419,0,,,,,,0.388020833,-0.260416667,1,0,0,2.419,Gabbro_rect,10,0,10,0,1,
5fa562e3b58abe00096ee2d4,TCN,2024-06-21_13h46.34.264,LearnStrategy,2023.2.3,Win32,60.60606061,9,2,12,,,,,,,,5,05,,,,,,,,,,,5,2.807,1,,,,,,-0.341145833,-0.389322917,1,0,0,2.8069,Obsidian_rect,11,0,11,0,1,
5fa562e3b58abe00096ee2d4,TCN,2024-06-21_13h46.34.264,LearnStrategy,2023.2.3,Win32,60.60606061,9,2,13,,,,,,,,5,07,,,,,,,,,,,5,0.729,1,,,,,,-0.341145833,-0.390625,1,0,0,0.7294,Obsidian_rect,12,0,12,0,1,
5fa562e3b58abe00096ee2d4,TCN,2024-06-21_13h46.34.264,LearnStrategy,2023.2.3,Win32,60.60606061,9,2,14,,,,,,,,2,06,,,,,,,,,,,2,1.589,1,,,,,,-0.080729167,-0.25,1,0,0,1.5893,Basalt_rect,13,0,13,0,1,
5fa562e3b58abe00096ee2d4,TCN,2024-06-21_13h46.34.264,LearnStrategy,2023.2.3,Win32,60.60606061,9,2,15,,,,,,,,3,12,,,,,,,,,,,1,1.589,0,,,,,,-0.40234375,-0.265625,1,0,0,1.5889,Andesite_rect,14,0,14,0,1,
5fa562e3b58abe00096ee2d4,TCN,2024-06-21_13h46.34.264,LearnStrategy,2023.2.3,Win32,60.60606061,9,2,16,,,,,,,,3,11,,,,,,,,,,,3,1.686,1,,,,,,0.0859375,-0.235677083,1,0,0,1.6862,Diorite_rect,15,0,15,0,1,
5fa562e3b58abe00096ee2d4,TCN,2024-06-21_13h46.34.264,LearnStrategy,2023.2.3,Win32,60.60606061,,,,,,,,,,,,,,,,,,,,,,,,,,,,,,,,,,,,,,,,,,,0
5fa562e3b58abe00096ee2d4,TCN,2024-06-21_13h46.34.264,LearnStrategy,2023.2.3,Win32,60.60606061,,,,,,,,,,,,,,,,,,,,,,,,,,,,,,,,,,,,,,,,,,,
5fa562e3b58abe00096ee2d4,TCN,2024-06-21_13h46.34.264,LearnStrategy,2023.2.3,Win32,60.60606061,,,,,,,,,,,6,05,1,1,,,,,,,,,,,,,,,,,,,,,,,,,,,,,
5fa562e3b58abe00096ee2d4,TCN,2024-06-21_13h46.34.264,LearnStrategy,2023.2.3,Win32,60.60606061,,,,,,,,,,,6,12,1,2,,,,,,,,,,,,,,,,,,,,,,,,,,,,,
5fa562e3b58abe00096ee2d4,TCN,2024-06-21_13h46.34.264,LearnStrategy,2023.2.3,Win32,60.60606061,,,,,,,,,,,4,09,1,3,,,,,,,,,,,,,,,,,,,,,,,,,,,,,
5fa562e3b58abe00096ee2d4,TCN,2024-06-21_13h46.34.264,LearnStrategy,2023.2.3,Win32,60.60606061,,,,,,,,,,,8,16,1,4,,,,,,,,,,,,,,,,,,,,,,,,,,,,,
5fa562e3b58abe00096ee2d4,TCN,2024-06-21_13h46.34.264,LearnStrategy,2023.2.3,Win32,60.60606061,,,,,,,,,,,8,02,1,5,,,,,,,,,,,,,,,,,,,,,,,,,,,,,
5fa562e3b58abe00096ee2d4,TCN,2024-06-21_13h46.34.264,LearnStrategy,2023.2.3,Win32,60.60606061,,,,,,,,,,,6,11,1,6,,,,,,,,,,,,,,,,,,,,,,,,,,,,,
5fa562e3b58abe00096ee2d4,TCN,2024-06-21_13h46.34.264,LearnStrategy,2023.2.3,Win32,60.60606061,,,,,,,,,,,4,13,1,7,,,,,,,,,,,,,,,,,,,,,,,,,,,,,
5fa562e3b58abe00096ee2d4,TCN,2024-06-21_13h46.34.264,LearnStrategy,2023.2.3,Win32,60.60606061,,,,,,,,,,,4,03,1,8,,,,,,,,,,,,,,,,,,,,,,,,,,,,,
5fa562e3b58abe00096ee2d4,TCN,2024-06-21_13h46.34.264,LearnStrategy,2023.2.3,Win32,60.60606061,,,,,,,,,,,5,10,2,1,,,,,,,,,,,,,,,,,,,,,,,,,,,,,
5fa562e3b58abe00096ee2d4,TCN,2024-06-21_13h46.34.264,LearnStrategy,2023.2.3,Win32,60.60606061,,,,,,,,,,,3,13,2,2,,,,,,,,,,,,,,,,,,,,,,,,,,,,,
5fa562e3b58abe00096ee2d4,TCN,2024-06-21_13h46.34.264,LearnStrategy,2023.2.3,Win32,60.60606061,,,,,,,,,,,1,05,2,3,,,,,,,,,,,,,,,,,,,,,,,,,,,,,
5fa562e3b58abe00096ee2d4,TCN,2024-06-21_13h46.34.264,LearnStrategy,2023.2.3,Win32,60.60606061,,,,,,,,,,,2,16,2,4,,,,,,,,,,,,,,,,,,,,,,,,,,,,,
5fa562e3b58abe00096ee2d4,TCN,2024-06-21_13h46.34.264,LearnStrategy,2023.2.3,Win32,60.60606061,,,,,,,,,,,7,15,2,5,,,,,,,,,,,,,,,,,,,,,,,,,,,,,
5fa562e3b58abe00096ee2d4,TCN,2024-06-21_13h46.34.264,LearnStrategy,2023.2.3,Win32,60.60606061,,,,,,,,,,,7,14,2,6,,,,,,,,,,,,,,,,,,,,,,,,,,,,,
5fa562e3b58abe00096ee2d4,TCN,2024-06-21_13h46.34.264,LearnStrategy,2023.2.3,Win32,60.60606061,,,,,,,,,,,1,16,2,7,,,,,,,,,,,,,,,,,,,,,,,,,,,,,
5fa562e3b58abe00096ee2d4,TCN,2024-06-21_13h46.34.264,LearnStrategy,2023.2.3,Win32,60.60606061,,,,,,,,,,,5,11,2,8,,,,,,,,,,,,,,,,,,,,,,,,,,,,,
5fa562e3b58abe00096ee2d4,TCN,2024-06-21_13h46.34.264,LearnStrategy,2023.2.3,Win32,60.60606061,,,,,,,,,,,5,08,3,1,,,,,,,,,,,,,,,,,,,,,,,,,,,,,
5fa562e3b58abe00096ee2d4,TCN,2024-06-21_13h46.34.264,LearnStrategy,2023.2.3,Win32,60.60606061,,,,,,,,,,,8,08,3,2,,,,,,,,,,,,,,,,,,,,,,,,,,,,,
5fa562e3b58abe00096ee2d4,TCN,2024-06-21_13h46.34.264,LearnStrategy,2023.2.3,Win32,60.60606061,,,,,,,,,,,7,02,3,3,,,,,,,,,,,,,,,,,,,,,,,,,,,,,
5fa562e3b58abe00096ee2d4,TCN,2024-06-21_13h46.34.264,LearnStrategy,2023.2.3,Win32,60.60606061,,,,,,,,,,,1,04,3,4,,,,,,,,,,,,,,,,,,,,,,,,,,,,,
5fa562e3b58abe00096ee2d4,TCN,2024-06-21_13h46.34.264,LearnStrategy,2023.2.3,Win32,60.60606061,,,,,,,,,,,4,16,3,5,,,,,,,,,,,,,,,,,,,,,,,,,,,,,
5fa562e3b58abe00096ee2d4,TCN,2024-06-21_13h46.34.264,LearnStrategy,2023.2.3,Win32,60.60606061,,,,,,,,,,,8,10,3,6,,,,,,,,,,,,,,,,,,,,,,,,,,,,,
5fa562e3b58abe00096ee2d4,TCN,2024-06-21_13h46.34.264,LearnStrategy,2023.2.3,Win32,60.60606061,,,,,,,,,,,1,11,3,7,,,,,,,,,,,,,,,,,,,,,,,,,,,,,
5fa562e3b58abe00096ee2d4,TCN,2024-06-21_13h46.34.264,LearnStrategy,2023.2.3,Win32,60.60606061,,,,,,,,,,,2,08,3,8,,,,,,,,,,,,,,,,,,,,,,,,,,,,,
5fa562e3b58abe00096ee2d4,TCN,2024-06-21_13h46.34.264,LearnStrategy,2023.2.3,Win32,60.60606061,,,,,,,,,,,8,05,4,1,,,,,,,,,,,,,,,,,,,,,,,,,,,,,
5fa562e3b58abe00096ee2d4,TCN,2024-06-21_13h46.34.264,LearnStrategy,2023.2.3,Win32,60.60606061,,,,,,,,,,,6,09,4,2,,,,,,,,,,,,,,,,,,,,,,,,,,,,,
5fa562e3b58abe00096ee2d4,TCN,2024-06-21_13h46.34.264,LearnStrategy,2023.2.3,Win32,60.60606061,,,,,,,,,,,4,01,4,3,,,,,,,,,,,,,,,,,,,,,,,,,,,,,
5fa562e3b58abe00096ee2d4,TCN,2024-06-21_13h46.34.264,LearnStrategy,2023.2.3,Win32,60.60606061,,,,,,,,,,,1,01,4,4,,,,,,,,,,,,,,,,,,,,,,,,,,,,,
5fa562e3b58abe00096ee2d4,TCN,2024-06-21_13h46.34.264,LearnStrategy,2023.2.3,Win32,60.60606061,,,,,,,,,,,1,10,4,5,,,,,,,,,,,,,,,,,,,,,,,,,,,,,
5fa562e3b58abe00096ee2d4,TCN,2024-06-21_13h46.34.264,LearnStrategy,2023.2.3,Win32,60.60606061,,,,,,,,,,,7,13,4,6,,,,,,,,,,,,,,,,,,,,,,,,,,,,,
5fa562e3b58abe00096ee2d4,TCN,2024-06-21_13h46.34.264,LearnStrategy,2023.2.3,Win32,60.60606061,,,,,,,,,,,3,08,4,7,,,,,,,,,,,,,,,,,,,,,,,,,,,,,
5fa562e3b58abe00096ee2d4,TCN,2024-06-21_13h46.34.264,LearnStrategy,2023.2.3,Win32,60.60606061,,,,,,,,,,,6,16,4,8,,,,,,,,,,,,,,,,,,,,,,,,,,,,,
5fa562e3b58abe00096ee2d4,TCN,2024-06-21_13h46.34.264,LearnStrategy,2023.2.3,Win32,60.60606061,,,,,,,,,,,2,09,5,1,,,,,,,,,,,,,,,,,,,,,,,,,,,,,
5fa562e3b58abe00096ee2d4,TCN,2024-06-21_13h46.34.264,LearnStrategy,2023.2.3,Win32,60.60606061,,,,,,,,,,,6,07,5,2,,,,,,,,,,,,,,,,,,,,,,,,,,,,,
5fa562e3b58abe00096ee2d4,TCN,2024-06-21_13h46.34.264,LearnStrategy,2023.2.3,Win32,60.60606061,,,,,,,,,,,3,16,5,3,,,,,,,,,,,,,,,,,,,,,,,,,,,,,
5fa562e3b58abe00096ee2d4,TCN,2024-06-21_13h46.34.264,LearnStrategy,2023.2.3,Win32,60.60606061,,,,,,,,,,,5,12,5,4,,,,,,,,,,,,,,,,,,,,,,,,,,,,,
5fa562e3b58abe00096ee2d4,TCN,2024-06-21_13h46.34.264,LearnStrategy,2023.2.3,Win32,60.60606061,,,,,,,,,,,7,05,5,5,,,,,,,,,,,,,,,,,,,,,,,,,,,,,
5fa562e3b58abe00096ee2d4,TCN,2024-06-21_13h46.34.264,LearnStrategy,2023.2.3,Win32,60.60606061,,,,,,,,,,,7,10,5,6,,,,,,,,,,,,,,,,,,,,,,,,,,,,,
5fa562e3b58abe00096ee2d4,TCN,2024-06-21_13h46.34.264,LearnStrategy,2023.2.3,Win32,60.60606061,,,,,,,,,,,2,01,5,7,,,,,,,,,,,,,,,,,,,,,,,,,,,,,
5fa562e3b58abe00096ee2d4,TCN,2024-06-21_13h46.34.264,LearnStrategy,2023.2.3,Win32,60.60606061,,,,,,,,,,,5,09,5,8,,,,,,,,,,,,,,,,,,,,,,,,,,,,,
5fa562e3b58abe00096ee2d4,TCN,2024-06-21_13h46.34.264,LearnStrategy,2023.2.3,Win32,60.60606061,,,,,,,,,,,4,15,6,1,,,,,,,,,,,,,,,,,,,,,,,,,,,,,
5fa562e3b58abe00096ee2d4,TCN,2024-06-21_13h46.34.264,LearnStrategy,2023.2.3,Win32,60.60606061,,,,,,,,,,,5,04,6,2,,,,,,,,,,,,,,,,,,,,,,,,,,,,,
5fa562e3b58abe00096ee2d4,TCN,2024-06-21_13h46.34.264,LearnStrategy,2023.2.3,Win32,60.60606061,,,,,,,,,,,8,06,6,3,,,,,,,,,,,,,,,,,,,,,,,,,,,,,
5fa562e3b58abe00096ee2d4,TCN,2024-06-21_13h46.34.264,LearnStrategy,2023.2.3,Win32,60.60606061,,,,,,,,,,,3,15,6,4,,,,,,,,,,,,,,,,,,,,,,,,,,,,,
5fa562e3b58abe00096ee2d4,TCN,2024-06-21_13h46.34.264,LearnStrategy,2023.2.3,Win32,60.60606061,,,,,,,,,,,2,02,6,5,,,,,,,,,,,,,,,,,,,,,,,,,,,,,
5fa562e3b58abe00096ee2d4,TCN,2024-06-21_13h46.34.264,LearnStrategy,2023.2.3,Win32,60.60606061,,,,,,,,,,,3,02,6,6,,,,,,,,,,,,,,,,,,,,,,,,,,,,,
5fa562e3b58abe00096ee2d4,TCN,2024-06-21_13h46.34.264,LearnStrategy,2023.2.3,Win32,60.60606061,,,,,,,,,,,3,09,6,7,,,,,,,,,,,,,,,,,,,,,,,,,,,,,
5fa562e3b58abe00096ee2d4,TCN,2024-06-21_13h46.34.264,LearnStrategy,2023.2.3,Win32,60.60606061,,,,,,,,,,,2,10,6,8,,,,,,,,,,,,,,,,,,,,,,,,,,,,,