participant,condition,date,expName,psychopyVersion,OS,frameRate,block,phase,trial,learn_mouse_2.x,learn_mouse_2.y,learn_mouse_2.leftButton,learn_mouse_2.midButton,learn_mouse_2.rightButton,learn_mouse_2.time,learn_mouse_2.clicked_name,cat,token,row,col,t_select,cat_mouse_l.x,cat_mouse_l.y,cat_mouse_l.leftButton,cat_mouse_l.midButton,cat_mouse_l.rightButton,cat_mouse_l.time,cat_mouse_l.clicked_name,resp,t_resp,corr,train_trials.thisRepN,train_trials.thisTrialN,train_trials.thisN,train_trials.thisIndex,train_trials.ran,cat_mouse_t.x,cat_mouse_t.y,cat_mouse_t.leftButton,cat_mouse_t.midButton,cat_mouse_t.rightButton,cat_mouse_t.time,cat_mouse_t.clicked_name,test_trials.thisRepN,test_trials.thisTrialN,test_trials.thisN,test_trials.thisIndex,test_trials.ran,Bonus
5fadeb340e10471fdeb5fbf5,TCN,2024-06-20_13h27.34.640,LearnStrategy,2023.2.3,MacIntel,62.5,,,,,,,,,,,,,,,,,,,,,,,,,,,,,,,,,,,,,,,,,,,
5fadeb340e10471fdeb5fbf5,TCN,2024-06-20_13h27.34.640,LearnStrategy,2023.2.3,MacIntel,62.5,1,1,1,0.108669705,0.005182987,1,0,0,1.804,rock_grid_rect_2,6,06,-1,-1,1.804,0.147363281,-0.239341058,1,0,0,18.351,Diorite_rect,3,18.351,0,0,0,0,0,1,,,,,,,,,,,,,
5fadeb340e10471fdeb5fbf5,TCN,2024-06-20_13h27.34.640,LearnStrategy,2023.2.3,MacIntel,62.5,1,1,2,0.052987586,-0.005371094,1,0,0,0.964,rock_grid_rect_2,7,05,-1,-1,0.964,0.420062934,-0.247750346,1,0,0,1.689,Gabbro_rect,4,1.689,0,1,0,1,0,1,,,,,,,,,,,,,
5fadeb340e10471fdeb5fbf5,TCN,2024-06-20_13h27.34.640,LearnStrategy,2023.2.3,MacIntel,62.5,1,1,3,-0.02546658,-0.01144388,1,0,0,1.682,rock_grid_rect_2,5,11,-1,-1,1.682,-0.119871182,-0.251439582,1,0,0,1.093,Basalt_rect,2,1.093,0,2,0,2,0,1,,,,,,,,,,,,,
5fadeb340e10471fdeb5fbf5,TCN,2024-06-20_13h27.34.640,LearnStrategy,2023.2.3,MacIntel,62.5,1,1,4,0.060047743,0.005139584,1,0,0,0.814,rock_grid_rect_2,4,16,-1,-1,0.814,-0.317578125,-0.242017534,1,0,0,2.375,Andesite_rect,1,2.375,0,3,0,3,0,1,,,,,,,,,,,,,
5fadeb340e10471fdeb5fbf5,TCN,2024-06-20_13h27.34.640,LearnStrategy,2023.2.3,MacIntel,62.5,1,1,5,0.043572829,0.002629471,1,0,0,1.564,rock_grid_rect_2,7,15,-1,-1,1.564,0.319654253,-0.385850694,1,0,0,0.957,Pumice_rect,8,0.957,0,4,0,4,0,1,,,,,,,,,,,,,
5fadeb340e10471fdeb5fbf5,TCN,2024-06-20_13h27.34.640,LearnStrategy,2023.2.3,MacIntel,62.5,1,1,6,0.10132743,-0.001320182,1,0,0,1.049,rock_grid_rect_2,2,06,-1,-1,1.049,-0.08070382,-0.401453993,1,0,0,1.407,Pegmatite_rect,6,1.407,0,5,0,5,0,1,,,,,,,,,,,,,
5fadeb340e10471fdeb5fbf5,TCN,2024-06-20_13h27.34.640,LearnStrategy,2023.2.3,MacIntel,62.5,1,1,7,-0.019730123,-0.004380078,1,0,0,0.964,rock_grid_rect_2,2,02,-1,-1,0.964,0.392415365,-0.238505554,1,0,0,5.225,Gabbro_rect,4,5.225,0,6,0,6,0,1,,,,,,,,,,,,,
5fadeb340e10471fdeb5fbf5,TCN,2024-06-20_13h27.34.640,LearnStrategy,2023.2.3,MacIntel,62.5,1,1,8,0.067994097,-0.004955165,1,0,0,1.146,rock_grid_rect_2,1,07,-1,-1,1.146,-0.41976632,-0.246274651,1,0,0,2.391,Andesite_rect,1,2.391,1,7,0,7,0,1,,,,,,,,,,,,,
5fadeb340e10471fdeb5fbf5,TCN,2024-06-20_13h27.34.640,LearnStrategy,2023.2.3,MacIntel,62.5,1,1,9,0.070424652,-0.011342621,1,0,0,1.664,rock_grid_rect_2,8,13,-1,-1,1.664,-0.045515018,-0.419050259,1,0,0,2.123,Pegmatite_rect,6,2.123,0,8,0,8,0,1,,,,,,,,,,,,,
5fadeb340e10471fdeb5fbf5,TCN,2024-06-20_13h27.34.640,LearnStrategy,2023.2.3,MacIntel,62.5,1,1,10,0.075886197,-0.003472222,1,0,0,0.796,rock_grid_rect_2,3,07,-1,-1,0.796,-0.170200348,-0.406503211,1,0,0,3.44,Pegmatite_rect,6,3.44,0,9,0,9,0,1,,,,,,,,,,,,,
5fadeb340e10471fdeb5fbf5,TCN,2024-06-20_13h27.34.640,LearnStrategy,2023.2.3,MacIntel,62.5,1,1,11,0.054741753,0.00292244,1,0,0,0.815,rock_grid_rect_2,3,16,-1,-1,0.815,0.066670312,-0.249059635,1,0,0,0.94,Diorite_rect,3,0.94,1,10,0,10,0,1,,,,,,,,,,,,,
5fadeb340e10471fdeb5fbf5,TCN,2024-06-20_13h27.34.640,LearnStrategy,2023.2.3,MacIntel,62.5,1,1,12,0.088454861,-0.008879513,1,0,0,0.897,rock_grid_rect_2,8,02,-1,-1,0.897,0.398665365,-0.2673467,1,0,0,1.058,Gabbro_rect,4,1.058,0,11,0,11,0,1,,,,,,,,,,,,,
5fadeb340e10471fdeb5fbf5,TCN,2024-06-20_13h27.34.640,LearnStrategy,2023.2.3,MacIntel,62.5,1,1,13,0.106477865,-0.001548047,1,0,0,0.665,rock_grid_rect_2,4,03,-1,-1,0.665,-0.099580383,-0.393030294,1,0,0,0.858,Pegmatite_rect,6,0.858,0,12,0,12,0,1,,,,,,,,,,,,,
5fadeb340e10471fdeb5fbf5,TCN,2024-06-20_13h27.34.640,LearnStrategy,2023.2.3,MacIntel,62.5,1,1,14,0.048350694,-0.007092751,1,0,0,0.832,rock_grid_rect_2,6,16,-1,-1,0.832,-0.401696311,-0.249121094,1,0,0,1.275,Andesite_rect,1,1.275,0,13,0,13,0,1,,,,,,,,,,,,,
5fadeb340e10471fdeb5fbf5,TCN,2024-06-20_13h27.34.640,LearnStrategy,2023.2.3,MacIntel,62.5,1,1,15,0.13796658,-0.000737847,1,0,0,0.915,rock_grid_rect_2,5,07,-1,-1,0.915,0.140581597,-0.258336978,1,0,0,0.928,Diorite_rect,3,0.928,0,14,0,14,0,1,,,,,,,,,,,,,
5fadeb340e10471fdeb5fbf5,TCN,2024-06-20_13h27.34.640,LearnStrategy,2023.2.3,MacIntel,62.5,1,1,16,0.054090712,-0.018569183,1,0,0,0.813,rock_grid_rect_2,1,11,-1,-1,0.813,0.107559374,-0.247638194,1,0,0,1.056,Diorite_rect,3,1.056,0,15,0,15,0,1,,,,,,,,,,,,,
5fadeb340e10471fdeb5fbf5,TCN,2024-06-20_13h27.34.640,LearnStrategy,2023.2.3,MacIntel,62.5,1,2,1,,,,,,,,6,12,,,,,,,,,,,2,24.406,0,,,,,,-0.137008074,-0.258517795,1,0,0,24.406,Basalt_rect,0,0,0,0,1,
5fadeb340e10471fdeb5fbf5,TCN,2024-06-20_13h27.34.640,LearnStrategy,2023.2.3,MacIntel,62.5,1,2,2,,,,,,,,4,13,,,,,,,,,,,4,20.627,1,,,,,,0.395377604,-0.250061544,1,0,0,20.627,Gabbro_rect,1,0,1,0,1,
5fadeb340e10471fdeb5fbf5,TCN,2024-06-20_13h27.34.640,LearnStrategy,2023.2.3,MacIntel,62.5,1,2,3,,,,,,,,3,15,,,,,,,,,,,4,1.688,0,,,,,,0.395377604,-0.250061544,1,0,0,1.688,Gabbro_rect,2,0,2,0,1,
5fadeb340e10471fdeb5fbf5,TCN,2024-06-20_13h27.34.640,LearnStrategy,2023.2.3,MacIntel,62.5,1,2,4,,,,,,,,1,09,,,,,,,,,,,2,14.757,0,,,,,,-0.061819967,-0.243930901,1,0,0,14.757,Basalt_rect,3,0,3,0,1,
5fadeb340e10471fdeb5fbf5,TCN,2024-06-20_13h27.34.640,LearnStrategy,2023.2.3,MacIntel,62.5,1,2,5,,,,,,,,8,09,,,,,,,,,,,1,12.127,0,,,,,,-0.337087674,-0.24577908,1,0,0,12.127,Andesite_rect,4,0,4,0,1,
5fadeb340e10471fdeb5fbf5,TCN,2024-06-20_13h27.34.640,LearnStrategy,2023.2.3,MacIntel,62.5,1,2,6,,,,,,,,2,10,,,,,,,,,,,1,10.226,0,,,,,,-0.357588238,-0.249475606,1,0,0,10.226,Andesite_rect,5,0,5,0,1,
5fadeb340e10471fdeb5fbf5,TCN,2024-06-20_13h27.34.640,LearnStrategy,2023.2.3,MacIntel,62.5,1,2,7,,,,,,,,3,09,,,,,,,,,,,3,35.327,1,,,,,,0.095062934,-0.263306597,1,0,0,35.327,Diorite_rect,6,0,6,0,1,
5fadeb340e10471fdeb5fbf5,TCN,2024-06-20_13h27.34.640,LearnStrategy,2023.2.3,MacIntel,62.5,1,2,8,,,,,,,,2,01,,,,,,,,,,,2,6.456,1,,,,,,-0.158449046,-0.266127777,1,0,0,6.456,Basalt_rect,7,0,7,0,1,
5fadeb340e10471fdeb5fbf5,TCN,2024-06-20_13h27.34.640,LearnStrategy,2023.2.3,MacIntel,62.5,1,2,9,,,,,,,,6,13,,,,,,,,,,,6,7.207,1,,,,,,-0.079622396,-0.407921007,1,0,0,7.207,Pegmatite_rect,8,0,8,0,1,
5fadeb340e10471fdeb5fbf5,TCN,2024-06-20_13h27.34.640,LearnStrategy,2023.2.3,MacIntel,62.5,1,2,10,,,,,,,,5,08,,,,,,,,,,,5,6.54,1,,,,,,-0.327788628,-0.386320919,1,0,0,6.54,Obsidian_rect,9,0,9,0,1,
5fadeb340e10471fdeb5fbf5,TCN,2024-06-20_13h27.34.640,LearnStrategy,2023.2.3,MacIntel,62.5,1,2,11,,,,,,,,5,14,,,,,,,,,,,5,4.927,1,,,,,,-0.327983941,-0.400238715,1,0,0,4.927,Obsidian_rect,10,0,10,0,1,
5fadeb340e10471fdeb5fbf5,TCN,2024-06-20_13h27.34.640,LearnStrategy,2023.2.3,MacIntel,62.5,1,2,12,,,,,,,,8,16,,,,,,,,,,,7,6.458,0,,,,,,0.105667708,-0.395999739,1,0,0,6.458,Peridotite_rect,11,0,11,0,1,
5fadeb340e10471fdeb5fbf5,TCN,2024-06-20_13h27.34.640,LearnStrategy,2023.2.3,MacIntel,62.5,1,2,13,,,,,,,,4,05,,,,,,,,,,,4,2.026,1,,,,,,0.397728644,-0.252633158,1,0,0,2.026,Gabbro_rect,12,0,12,0,1,
5fadeb340e10471fdeb5fbf5,TCN,2024-06-20_13h27.34.640,LearnStrategy,2023.2.3,MacIntel,62.5,1,2,14,,,,,,,,7,07,,,,,,,,,,,2,1.056,0,,,,,,-0.184255642,-0.247659895,1,0,0,1.056,Basalt_rect,13,0,13,0,1,
5fadeb340e10471fdeb5fbf5,TCN,2024-06-20_13h27.34.640,LearnStrategy,2023.2.3,MacIntel,62.5,1,2,15,,,,,,,,7,16,,,,,,,,,,,1,1.673,0,,,,,,-0.333329688,-0.250980208,1,0,0,1.673,Andesite_rect,14,0,14,0,1,
5fadeb340e10471fdeb5fbf5,TCN,2024-06-20_13h27.34.640,LearnStrategy,2023.2.3,MacIntel,62.5,1,2,16,,,,,,,,1,04,,,,,,,,,,,4,15.796,0,,,,,,0.442136892,-0.248426649,1,0,0,15.796,Gabbro_rect,15,0,15,0,1,
5fadeb340e10471fdeb5fbf5,TCN,2024-06-20_13h27.34.640,LearnStrategy,2023.2.3,MacIntel,62.5,2,1,1,0.087778558,8.31604E-05,1,0,0,1.263,rock_grid_rect_2,1,16,-1,-1,1.263,0.107902951,-0.384624566,1,0,0,19.524,Peridotite_rect,7,19.524,0,0,0,0,0,1,,,,,,,,,,,,,
5fadeb340e10471fdeb5fbf5,TCN,2024-06-20_13h27.34.640,LearnStrategy,2023.2.3,MacIntel,62.5,2,1,2,0.101312934,-0.012094922,1,0,0,1.202,rock_grid_rect_2,8,05,-1,-1,1.202,0.17702908,-0.247482639,1,0,0,1.691,Diorite_rect,3,1.691,0,1,0,1,0,1,,,,,,,,,,,,,
5fadeb340e10471fdeb5fbf5,TCN,2024-06-20_13h27.34.640,LearnStrategy,2023.2.3,MacIntel,62.5,2,1,3,0.07968394,-0.000611284,1,0,0,0.772,rock_grid_rect_2,8,03,-1,-1,0.772,0.395703125,-0.251931424,1,0,0,0.941,Gabbro_rect,4,0.941,0,2,0,2,0,1,,,,,,,,,,,,,
5fadeb340e10471fdeb5fbf5,TCN,2024-06-20_13h27.34.640,LearnStrategy,2023.2.3,MacIntel,62.5,2,1,4,0.128096093,-0.011328125,1,0,0,1.235,rock_grid_rect_2,5,06,-1,-1,1.235,0.370804426,-0.263733419,1,0,0,0.874,Gabbro_rect,4,0.874,0,3,0,3,0,1,,,,,,,,,,,,,
5fadeb340e10471fdeb5fbf5,TCN,2024-06-20_13h27.34.640,LearnStrategy,2023.2.3,MacIntel,62.5,2,1,5,0.068098958,-0.010680728,1,0,0,0.988,rock_grid_rect_2,2,05,-1,-1,0.988,0.124945747,-0.260626475,1,0,0,0.808,Diorite_rect,3,0.808,0,4,0,4,0,1,,,,,,,,,,,,,
5fadeb340e10471fdeb5fbf5,TCN,2024-06-20_13h27.34.640,LearnStrategy,2023.2.3,MacIntel,62.5,2,1,6,0.106839583,-0.013125738,1,0,0,1.037,rock_grid_rect_2,5,09,-1,-1,1.037,0.350061544,-0.25086085,1,0,0,1.023,Gabbro_rect,4,1.023,0,5,0,5,0,1,,,,,,,,,,,,,
5fadeb340e10471fdeb5fbf5,TCN,2024-06-20_13h27.34.640,LearnStrategy,2023.2.3,MacIntel,62.5,2,1,7,0.105736457,0.007161458,1,0,0,1.096,rock_grid_rect_2,3,06,-1,-1,1.096,-0.325954861,-0.257092794,1,0,0,0.662,Andesite_rect,1,0.662,0,6,0,6,0,1,,,,,,,,,,,,,
5fadeb340e10471fdeb5fbf5,TCN,2024-06-20_13h27.34.640,LearnStrategy,2023.2.3,MacIntel,62.5,2,1,8,0.017990451,-0.003273307,1,0,0,0.781,rock_grid_rect_2,7,04,-1,-1,0.781,0.126949565,-0.258011458,1,0,0,0.724,Diorite_rect,3,0.724,0,7,0,7,0,1,,,,,,,,,,,,,
5fadeb340e10471fdeb5fbf5,TCN,2024-06-20_13h27.34.640,LearnStrategy,2023.2.3,MacIntel,62.5,2,1,9,0.122446526,-0.010912196,1,0,0,1.813,rock_grid_rect_2,6,03,-1,-1,1.813,0.184295485,-0.246202257,1,0,0,0.841,Diorite_rect,3,0.841,0,8,0,8,0,1,,,,,,,,,,,,,
5fadeb340e10471fdeb5fbf5,TCN,2024-06-20_13h27.34.640,LearnStrategy,2023.2.3,MacIntel,62.5,2,1,10,0.119437239,0.000318273,1,0,0,1.098,rock_grid_rect_2,4,01,-1,-1,1.098,0.416887326,-0.396636285,1,0,0,2.407,Pumice_rect,8,2.407,0,9,0,9,0,1,,,,,,,,,,,,,
5fadeb340e10471fdeb5fbf5,TCN,2024-06-20_13h27.34.640,LearnStrategy,2023.2.3,MacIntel,62.5,2,1,11,0.019393836,-0.010007985,1,0,0,0.739,rock_grid_rect_2,7,12,-1,-1,0.739,-0.074088542,-0.241945224,1,0,0,0.625,Basalt_rect,2,0.625,0,10,0,10,0,1,,,,,,,,,,,,,
5fadeb340e10471fdeb5fbf5,TCN,2024-06-20_13h27.34.640,LearnStrategy,2023.2.3,MacIntel,62.5,2,1,12,0.102745226,-0.002683767,1,0,0,0.764,rock_grid_rect_2,2,16,-1,-1,0.764,0.396911197,-0.240122308,1,0,0,1.274,Gabbro_rect,4,1.274,0,11,0,11,0,1,,,,,,,,,,,,,
5fadeb340e10471fdeb5fbf5,TCN,2024-06-20_13h27.34.640,LearnStrategy,2023.2.3,MacIntel,62.5,2,1,13,0.130656857,-0.00718316,1,0,0,0.57,rock_grid_rect_2,6,08,-1,-1,0.57,0.091771613,-0.243214756,1,0,0,0.757,Diorite_rect,3,0.757,0,12,0,12,0,1,,,,,,,,,,,,,
5fadeb340e10471fdeb5fbf5,TCN,2024-06-20_13h27.34.640,LearnStrategy,2023.2.3,MacIntel,62.5,2,1,14,0.070493401,-0.019567447,1,0,0,0.647,rock_grid_rect_2,4,14,-1,-1,0.647,0.337930467,-0.25359158,1,0,0,0.774,Gabbro_rect,4,0.774,1,13,0,13,0,1,,,,,,,,,,,,,
5fadeb340e10471fdeb5fbf5,TCN,2024-06-20_13h27.34.640,LearnStrategy,2023.2.3,MacIntel,62.5,2,1,15,0.076663801,-0.023054123,1,0,0,0.647,rock_grid_rect_2,1,06,-1,-1,0.647,-0.069256337,-0.251482985,1,0,0,1.09,Basalt_rect,2,1.09,0,14,0,14,0,1,,,,,,,,,,,,,
5fadeb340e10471fdeb5fbf5,TCN,2024-06-20_13h27.34.640,LearnStrategy,2023.2.3,MacIntel,62.5,2,1,16,0.070713976,-0.001786762,1,0,0,0.83,rock_grid_rect_2,3,13,-1,-1,0.83,-0.352795834,-0.401132117,1,0,0,1.125,Obsidian_rect,5,1.125,0,15,0,15,0,1,,,,,,,,,,,,,
5fadeb340e10471fdeb5fbf5,TCN,2024-06-20_13h27.34.640,LearnStrategy,2023.2.3,MacIntel,62.5,2,2,1,,,,,,,,8,06,,,,,,,,,,,8,17.523,1,,,,,,0.351757812,-0.399631076,1,0,0,17.523,Pumice_rect,0,0,0,0,1,
5fadeb340e10471fdeb5fbf5,TCN,2024-06-20_13h27.34.640,LearnStrategy,2023.2.3,MacIntel,62.5,2,2,2,,,,,,,,3,08,,,,,,,,,,,7,78.378,0,,,,,,0.135984548,-0.39563446,1,0,0,78.378,Peridotite_rect,1,0,1,0,1,
5fadeb340e10471fdeb5fbf5,TCN,2024-06-20_13h27.34.640,LearnStrategy,2023.2.3,MacIntel,62.5,2,2,3,,,,,,,,1,14,,,,,,,,,,,4,4.741,0,,,,,,0.361038801,-0.238700867,1,0,0,4.741,Gabbro_rect,2,0,2,0,1,
5fadeb340e10471fdeb5fbf5,TCN,2024-06-20_13h27.34.640,LearnStrategy,2023.2.3,MacIntel,62.5,2,2,4,,,,,,,,2,14,,,,,,,,,,,2,9.159,1,,,,,,-0.149674479,-0.267983246,1,0,0,9.159,Basalt_rect,3,0,3,0,1,
5fadeb340e10471fdeb5fbf5,TCN,2024-06-20_13h27.34.640,LearnStrategy,2023.2.3,MacIntel,62.5,2,2,5,,,,,,,,5,10,,,,,,,,,,,5,5.411,1,,,,,,-0.392509376,-0.406315104,1,0,0,5.411,Obsidian_rect,4,0,4,0,1,
5fadeb340e10471fdeb5fbf5,TCN,2024-06-20_13h27.34.640,LearnStrategy,2023.2.3,MacIntel,62.5,2,2,6,,,,,,,,7,14,,,,,,,,,,,7,17.324,1,,,,,,0.141959635,-0.385966492,1,0,0,17.324,Peridotite_rect,5,0,5,0,1,
5fadeb340e10471fdeb5fbf5,TCN,2024-06-20_13h27.34.640,LearnStrategy,2023.2.3,MacIntel,62.5,2,2,7,,,,,,,,5,02,,,,,,,,,,,5,16.626,1,,,,,,-0.320243751,-0.396223958,1,0,0,16.626,Obsidian_rect,6,0,6,0,1,
5fadeb340e10471fdeb5fbf5,TCN,2024-06-20_13h27.34.640,LearnStrategy,2023.2.3,MacIntel,62.5,2,2,8,,,,,,,,2,08,,,,,,,,,,,1,8.772,0,,,,,,-0.346242015,-0.236006249,1,0,0,8.772,Andesite_rect,7,0,7,0,1,
5fadeb340e10471fdeb5fbf5,TCN,2024-06-20_13h27.34.640,LearnStrategy,2023.2.3,MacIntel,62.5,2,2,9,,,,,,,,4,10,,,,,,,,,,,1,52.943,0,,,,,,-0.348907683,-0.241793315,1,0,0,52.943,Andesite_rect,8,0,8,0,1,
5fadeb340e10471fdeb5fbf5,TCN,2024-06-20_13h27.34.640,LearnStrategy,2023.2.3,MacIntel,62.5,2,2,10,,,,,,,,8,10,,,,,,,,,,,1,18.472,0,,,,,,-0.344773568,-0.246050347,1,0,0,18.472,Andesite_rect,9,0,9,0,1,
5fadeb340e10471fdeb5fbf5,TCN,2024-06-20_13h27.34.640,LearnStrategy,2023.2.3,MacIntel,62.5,2,2,11,,,,,,,,4,12,,,,,,,,,,,3,4.126,0,,,,,,0.107421875,-0.269686805,1,0,0,4.126,Diorite_rect,10,0,10,0,1,
5fadeb340e10471fdeb5fbf5,TCN,2024-06-20_13h27.34.640,LearnStrategy,2023.2.3,MacIntel,62.5,2,2,12,,,,,,,,6,15,,,,,,,,,,,6,6.094,1,,,,,,-0.129709201,-0.406141493,1,0,0,6.094,Pegmatite_rect,11,0,11,0,1,
5fadeb340e10471fdeb5fbf5,TCN,2024-06-20_13h27.34.640,LearnStrategy,2023.2.3,MacIntel,62.5,2,2,13,,,,,,,,3,14,,,,,,,,,,,4,4.592,0,,,,,,0.444473436,-0.253135851,1,0,0,4.592,Gabbro_rect,12,0,12,0,1,
5fadeb340e10471fdeb5fbf5,TCN,2024-06-20_13h27.34.640,LearnStrategy,2023.2.3,MacIntel,62.5,2,2,14,,,,,,,,7,08,,,,,,,,,,,4,2.773,0,,,,,,0.43507309,-0.266941579,1,0,0,2.773,Gabbro_rect,13,0,13,0,1,
5fadeb340e10471fdeb5fbf5,TCN,2024-06-20_13h27.34.640,LearnStrategy,2023.2.3,MacIntel,62.5,2,2,15,,,,,,,,1,03,,,,,,,,,,,3,5.44,0,,,,,,0.077976735,-0.261472829,1,0,0,5.44,Diorite_rect,14,0,14,0,1,
5fadeb340e10471fdeb5fbf5,TCN,2024-06-20_13h27.34.640,LearnStrategy,2023.2.3,MacIntel,62.5,2,2,16,,,,,,,,6,10,,,,,,,,,,,6,5.44,1,,,,,,-0.126103126,-0.401056163,1,0,0,5.44,Pegmatite_rect,15,0,15,0,1,
5fadeb340e10471fdeb5fbf5,TCN,2024-06-20_13h27.34.640,LearnStrategy,2023.2.3,MacIntel,62.5,3,1,1,0.098958333,-0.01311849,1,0,0,59.031,rock_grid_rect_2,3,12,-1,-1,59.031,0.200325521,-0.386758592,1,0,0,2.457,Peridotite_rect,7,2.457,0,0,0,0,0,1,,,,,,,,,,,,,
5fadeb340e10471fdeb5fbf5,TCN,2024-06-20_13h27.34.640,LearnStrategy,2023.2.3,MacIntel,62.5,3,1,2,0.075998264,-0.013375303,1,0,0,0.862,rock_grid_rect_2,8,08,-1,-1,0.862,-0.106116147,-0.264467621,1,0,0,0.925,Basalt_rect,2,0.925,0,1,0,1,0,1,,,,,,,,,,,,,
5fadeb340e10471fdeb5fbf5,TCN,2024-06-20_13h27.34.640,LearnStrategy,2023.2.3,MacIntel,62.5,3,1,3,0.084085676,-0.022139062,1,0,0,0.797,rock_grid_rect_2,4,08,-1,-1,0.797,0.138530816,-0.256470659,1,0,0,0.742,Diorite_rect,3,0.742,0,2,0,2,0,1,,,,,,,,,,,,,
5fadeb340e10471fdeb5fbf5,TCN,2024-06-20_13h27.34.640,LearnStrategy,2023.2.3,MacIntel,62.5,3,1,4,0.16406979,-0.003385417,1,0,0,0.965,rock_grid_rect_2,5,04,-1,-1,0.965,-0.379929818,-0.395721266,1,0,0,3.307,Obsidian_rect,5,3.307,1,3,0,3,0,1,,,,,,,,,,,,,
5fadeb340e10471fdeb5fbf5,TCN,2024-06-20_13h27.34.640,LearnStrategy,2023.2.3,MacIntel,62.5,3,1,5,0.004796007,-0.003342014,1,0,0,0.746,rock_grid_rect_2,3,02,-1,-1,0.746,0.373423089,-0.245460849,1,0,0,2.044,Gabbro_rect,4,2.044,0,4,0,4,0,1,,,,,,,,,,,,,
5fadeb340e10471fdeb5fbf5,TCN,2024-06-20_13h27.34.640,LearnStrategy,2023.2.3,MacIntel,62.5,3,1,6,0.062196181,-0.007364019,1,0,0,1.364,rock_grid_rect_2,6,09,-1,-1,1.364,0.207045746,-0.41632309,1,0,0,2.157,Peridotite_rect,7,2.157,0,5,0,5,0,1,,,,,,,,,,,,,
5fadeb340e10471fdeb5fbf5,TCN,2024-06-20_13h27.34.640,LearnStrategy,2023.2.3,MacIntel,62.5,3,1,7,0.094675954,0.005787023,1,0,0,0.897,rock_grid_rect_2,6,11,-1,-1,0.897,0.11593967,-0.397544183,1,0,0,2.19,Peridotite_rect,7,2.19,0,6,0,6,0,1,,,,,,,,,,,,,
5fadeb340e10471fdeb5fbf5,TCN,2024-06-20_13h27.34.640,LearnStrategy,2023.2.3,MacIntel,62.5,3,1,8,0.063881683,-0.017353906,1,0,0,1.248,rock_grid_rect_2,7,10,-1,-1,1.248,-0.123867883,-0.248784722,1,0,0,2.442,Basalt_rect,2,2.442,0,7,0,7,0,1,,,,,,,,,,,,,
5fadeb340e10471fdeb5fbf5,TCN,2024-06-20_13h27.34.640,LearnStrategy,2023.2.3,MacIntel,62.5,3,1,9,0.081362152,0.001971181,1,0,0,0.697,rock_grid_rect_2,5,05,-1,-1,0.697,0.337565104,-0.252090624,1,0,0,1.458,Gabbro_rect,4,1.458,0,8,0,8,0,1,,,,,,,,,,,,,
5fadeb340e10471fdeb5fbf5,TCN,2024-06-20_13h27.34.640,LearnStrategy,2023.2.3,MacIntel,62.5,3,1,10,0.028689236,0.001761415,1,0,0,0.714,rock_grid_rect_2,8,04,-1,-1,0.714,0.099667274,-0.232114495,1,0,0,1.475,Diorite_rect,3,1.475,0,9,0,9,0,1,,,,,,,,,,,,,
5fadeb340e10471fdeb5fbf5,TCN,2024-06-20_13h27.34.640,LearnStrategy,2023.2.3,MacIntel,62.5,3,1,11,0.063773176,0.001103126,1,0,0,0.847,rock_grid_rect_2,1,01,-1,-1,0.847,-0.100090366,-0.254260763,1,0,0,1.341,Basalt_rect,2,1.341,0,10,0,10,0,1,,,,,,,,,,,,,
5fadeb340e10471fdeb5fbf5,TCN,2024-06-20_13h27.34.640,LearnStrategy,2023.2.3,MacIntel,62.5,3,1,12,0.087366231,-0.015606944,1,0,0,0.714,rock_grid_rect_2,2,11,-1,-1,0.714,-0.144466146,-0.253374566,1,0,0,1.591,Basalt_rect,2,1.591,1,11,0,11,0,1,,,,,,,,,,,,,
5fadeb340e10471fdeb5fbf5,TCN,2024-06-20_13h27.34.640,LearnStrategy,2023.2.3,MacIntel,62.5,3,1,13,0.037525347,-0.016590712,1,0,0,1.13,rock_grid_rect_2,1,10,-1,-1,1.13,-0.082703993,-0.253812239,1,0,0,1.111,Basalt_rect,2,1.111,0,12,0,12,0,1,,,,,,,,,,,,,
5fadeb340e10471fdeb5fbf5,TCN,2024-06-20_13h27.34.640,LearnStrategy,2023.2.3,MacIntel,62.5,3,1,14,0.049037933,0.01307869,1,0,0,0.616,rock_grid_rect_2,7,02,-1,-1,0.616,0.094267273,-0.247688802,1,0,0,1.744,Diorite_rect,3,1.744,0,13,0,13,0,1,,,,,,,,,,,,,
5fadeb340e10471fdeb5fbf5,TCN,2024-06-20_13h27.34.640,LearnStrategy,2023.2.3,MacIntel,62.5,3,1,15,0.086165365,-0.008040365,1,0,0,0.665,rock_grid_rect_2,4,11,-1,-1,0.665,0.082863193,-0.246379513,1,0,0,1.026,Diorite_rect,3,1.026,0,14,0,14,0,1,,,,,,,,,,,,,
5fadeb340e10471fdeb5fbf5,TCN,2024-06-20_13h27.34.640,LearnStrategy,2023.2.3,MacIntel,62.5,3,1,16,0.084772915,0.000835503,1,0,0,0.531,rock_grid_rect_2,2,04,-1,-1,0.531,0.358550347,-0.24671953,1,0,0,1.141,Gabbro_rect,4,1.141,0,15,0,15,0,1,,,,,,,,,,,,,
5fadeb340e10471fdeb5fbf5,TCN,2024-06-20_13h27.34.640,LearnStrategy,2023.2.3,MacIntel,62.5,3,2,1,,,,,,,,2,09,,,,,,,,,,,2,1.706,1,,,,,,-0.050321876,-0.244126214,1,0,0,1.706,Basalt_rect,0,0,0,0,1,
5fadeb340e10471fdeb5fbf5,TCN,2024-06-20_13h27.34.640,LearnStrategy,2023.2.3,MacIntel,62.5,3,2,2,,,,,,,,5,16,,,,,,,,,,,4,3.143,0,,,,,,0.34921519,-0.256333245,1,0,0,3.143,Gabbro_rect,1,0,1,0,1,
5fadeb340e10471fdeb5fbf5,TCN,2024-06-20_13h27.34.640,LearnStrategy,2023.2.3,MacIntel,62.5,3,2,3,,,,,,,,8,15,,,,,,,,,,,8,51.749,1,,,,,,0.380533854,-0.400430467,1,0,0,51.749,Pumice_rect,2,0,2,0,1,
5fadeb340e10471fdeb5fbf5,TCN,2024-06-20_13h27.34.640,LearnStrategy,2023.2.3,MacIntel,62.5,3,2,4,,,,,,,,3,10,,,,,,,,,,,3,1.05,1,,,,,,0.185044183,-0.238187239,1,0,0,1.05,Diorite_rect,3,0,3,0,1,
5fadeb340e10471fdeb5fbf5,TCN,2024-06-20_13h27.34.640,LearnStrategy,2023.2.3,MacIntel,62.5,3,2,5,,,,,,,,6,07,,,,,,,,,,,6,2.01,1,,,,,,-0.09860026,-0.416883681,1,0,0,2.01,Pegmatite_rect,4,0,4,0,1,
5fadeb340e10471fdeb5fbf5,TCN,2024-06-20_13h27.34.640,LearnStrategy,2023.2.3,MacIntel,62.5,3,2,6,,,,,,,,7,13,,,,,,,,,,,7,1.106,1,,,,,,0.052285936,-0.416116926,1,0,0,1.106,Peridotite_rect,5,0,5,0,1,
5fadeb340e10471fdeb5fbf5,TCN,2024-06-20_13h27.34.640,LearnStrategy,2023.2.3,MacIntel,62.5,3,2,7,,,,,,,,5,12,,,,,,,,,,,4,1.374,0,,,,,,0.376280382,-0.266612413,1,0,0,1.374,Gabbro_rect,6,0,6,0,1,
5fadeb340e10471fdeb5fbf5,TCN,2024-06-20_13h27.34.640,LearnStrategy,2023.2.3,MacIntel,62.5,3,2,8,,,,,,,,8,14,,,,,,,,,,,2,1.658,0,,,,,,-0.086042362,-0.242158593,1,0,0,1.658,Basalt_rect,7,0,7,0,1,
5fadeb340e10471fdeb5fbf5,TCN,2024-06-20_13h27.34.640,LearnStrategy,2023.2.3,MacIntel,62.5,3,2,9,,,,,,,,1,02,,,,,,,,,,,3,0.806,0,,,,,,0.077401649,-0.253023783,1,0,0,0.806,Diorite_rect,8,0,8,0,1,
5fadeb340e10471fdeb5fbf5,TCN,2024-06-20_13h27.34.640,LearnStrategy,2023.2.3,MacIntel,62.5,3,2,10,,,,,,,,6,05,,,,,,,,,,,6,2.389,1,,,,,,-0.094310591,-0.397927517,1,0,0,2.389,Pegmatite_rect,9,0,9,0,1,
5fadeb340e10471fdeb5fbf5,TCN,2024-06-20_13h27.34.640,LearnStrategy,2023.2.3,MacIntel,62.5,3,2,11,,,,,,,,4,09,,,,,,,,,,,5,1.065,0,,,,,,-0.359288194,-0.39796736,1,0,0,1.065,Obsidian_rect,10,0,10,0,1,
5fadeb340e10471fdeb5fbf5,TCN,2024-06-20_13h27.34.640,LearnStrategy,2023.2.3,MacIntel,62.5,3,2,12,,,,,,,,4,15,,,,,,,,,,,1,1.009,0,,,,,,-0.367903646,-0.263642968,1,0,0,1.009,Andesite_rect,11,0,11,0,1,
5fadeb340e10471fdeb5fbf5,TCN,2024-06-20_13h27.34.640,LearnStrategy,2023.2.3,MacIntel,62.5,3,2,13,,,,,,,,7,06,,,,,,,,,,,1,1.11,0,,,,,,-0.387514453,-0.261111111,1,0,0,1.11,Andesite_rect,12,0,12,0,1,
5fadeb340e10471fdeb5fbf5,TCN,2024-06-20_13h27.34.640,LearnStrategy,2023.2.3,MacIntel,62.5,3,2,14,,,,,,,,2,12,,,,,,,,,,,3,1.059,0,,,,,,0.120453559,-0.259447394,1,0,0,1.059,Diorite_rect,13,0,13,0,1,
5fadeb340e10471fdeb5fbf5,TCN,2024-06-20_13h27.34.640,LearnStrategy,2023.2.3,MacIntel,62.5,3,2,15,,,,,,,,1,05,,,,,,,,,,,6,1.242,0,,,,,,-0.106611633,-0.391869269,1,0,0,1.242,Pegmatite_rect,14,0,14,0,1,
5fadeb340e10471fdeb5fbf5,TCN,2024-06-20_13h27.34.640,LearnStrategy,2023.2.3,MacIntel,62.5,3,2,16,,,,,,,,3,11,,,,,,,,,,,7,0.743,0,,,,,,0.100235155,-0.41281467,1,0,0,0.743,Peridotite_rect,15,0,15,0,1,
5fadeb340e10471fdeb5fbf5,TCN,2024-06-20_13h27.34.640,LearnStrategy,2023.2.3,MacIntel,62.5,4,1,1,0.002926127,0.016134983,1,0,0,0.731,rock_grid_rect_2,3,06,-1,-1,0.731,-0.088085938,-0.24187283,1,0,0,0.743,Basalt_rect,2,0.743,0,0,0,0,0,1,,,,,,,,,,,,,
5fadeb340e10471fdeb5fbf5,TCN,2024-06-20_13h27.34.640,LearnStrategy,2023.2.3,MacIntel,62.5,4,1,2,0.137528992,-0.01144388,1,0,0,20.48,rock_grid_rect_2,8,08,-1,-1,20.48,0.314163801,-0.257147047,1,0,0,1.192,Gabbro_rect,4,1.192,0,1,0,1,0,1,,,,,,,,,,,,,
5fadeb340e10471fdeb5fbf5,TCN,2024-06-20_13h27.34.640,LearnStrategy,2023.2.3,MacIntel,62.5,4,1,3,0.153873698,-3.98E-05,1,0,0,1.015,rock_grid_rect_2,1,16,-1,-1,1.015,-0.097164324,-0.399204339,1,0,0,1.056,Pegmatite_rect,6,1.056,0,2,0,2,0,1,,,,,,,,,,,,,
5fadeb340e10471fdeb5fbf5,TCN,2024-06-20_13h27.34.640,LearnStrategy,2023.2.3,MacIntel,62.5,4,1,4,-0.065556251,0.018185764,1,0,0,0.748,rock_grid_rect_2,7,05,-1,-1,0.748,-0.317386415,-0.239832899,1,0,0,0.858,Andesite_rect,1,0.858,0,3,0,3,0,1,,,,,,,,,,,,,
5fadeb340e10471fdeb5fbf5,TCN,2024-06-20_13h27.34.640,LearnStrategy,2023.2.3,MacIntel,62.5,4,1,5,0.056662326,0.007230165,1,0,0,0.981,rock_grid_rect_2,5,06,-1,-1,0.981,-0.074160851,-0.262807465,1,0,0,0.858,Basalt_rect,2,0.858,0,4,0,4,0,1,,,,,,,,,,,,,
5fadeb340e10471fdeb5fbf5,TCN,2024-06-20_13h27.34.640,LearnStrategy,2023.2.3,MacIntel,62.5,4,1,6,0.055993228,-0.004716449,1,0,0,0.582,rock_grid_rect_2,2,16,-1,-1,0.582,0.121473524,-0.261939409,1,0,0,0.69,Diorite_rect,3,0.69,0,5,0,5,0,1,,,,,,,,,,,,,
5fadeb340e10471fdeb5fbf5,TCN,2024-06-20_13h27.34.640,LearnStrategy,2023.2.3,MacIntel,62.5,4,1,7,0.093797048,-0.006362152,1,0,0,0.864,rock_grid_rect_2,4,11,-1,-1,0.864,0.334729513,-0.417379252,1,0,0,1.558,Pumice_rect,8,1.558,0,6,0,6,0,1,,,,,,,,,,,,,
5fadeb340e10471fdeb5fbf5,TCN,2024-06-20_13h27.34.640,LearnStrategy,2023.2.3,MacIntel,62.5,4,1,8,0.119003211,-0.020562066,1,0,0,0.646,rock_grid_rect_2,4,16,-1,-1,0.646,0.114409722,-0.256004079,1,0,0,0.608,Diorite_rect,3,0.608,0,7,0,7,0,1,,,,,,,,,,,,,
5fadeb340e10471fdeb5fbf5,TCN,2024-06-20_13h27.34.640,LearnStrategy,2023.2.3,MacIntel,62.5,4,1,9,0.015889062,-0.017136892,1,0,0,0.865,rock_grid_rect_2,6,03,-1,-1,0.865,-0.105537415,-0.241941579,1,0,0,0.64,Basalt_rect,2,0.64,0,8,0,8,0,1,,,,,,,,,,,,,
5fadeb340e10471fdeb5fbf5,TCN,2024-06-20_13h27.34.640,LearnStrategy,2023.2.3,MacIntel,62.5,4,1,10,0.060196092,-0.001425086,1,0,0,0.798,rock_grid_rect_2,8,02,-1,-1,0.798,0.09797821,-0.237387933,1,0,0,0.625,Diorite_rect,3,0.625,0,9,0,9,0,1,,,,,,,,,,,,,
5fadeb340e10471fdeb5fbf5,TCN,2024-06-20_13h27.34.640,LearnStrategy,2023.2.3,MacIntel,62.5,4,1,11,0.079271613,-0.011754947,1,0,0,0.714,rock_grid_rect_2,2,02,-1,-1,0.714,0.328859287,-0.234664408,1,0,0,0.607,Gabbro_rect,4,0.607,0,10,0,10,0,1,,,,,,,,,,,,,
5fadeb340e10471fdeb5fbf5,TCN,2024-06-20_13h27.34.640,LearnStrategy,2023.2.3,MacIntel,62.5,4,1,12,-0.03178889,-0.01593967,1,0,0,0.831,rock_grid_rect_2,1,11,-1,-1,0.831,-0.11187422,-0.237340885,1,0,0,0.889,Basalt_rect,2,0.889,0,11,0,11,0,1,,,,,,,,,,,,,
5fadeb340e10471fdeb5fbf5,TCN,2024-06-20_13h27.34.640,LearnStrategy,2023.2.3,MacIntel,62.5,4,1,13,0.040422482,-0.014764192,1,0,0,0.714,rock_grid_rect_2,3,02,-1,-1,0.714,-0.117003038,-0.395348697,1,0,0,0.558,Pegmatite_rect,6,0.558,0,12,0,12,0,1,,,,,,,,,,,,,
5fadeb340e10471fdeb5fbf5,TCN,2024-06-20_13h27.34.640,LearnStrategy,2023.2.3,MacIntel,62.5,4,1,14,0.02727144,-0.007349565,1,0,0,0.664,rock_grid_rect_2,5,09,-1,-1,0.664,-0.094032118,-0.244397481,1,0,0,1.009,Basalt_rect,2,1.009,0,13,0,13,0,1,,,,,,,,,,,,,
5fadeb340e10471fdeb5fbf5,TCN,2024-06-20_13h27.34.640,LearnStrategy,2023.2.3,MacIntel,62.5,4,1,15,0.008553992,-0.010796441,1,0,0,0.53,rock_grid_rect_2,6,16,-1,-1,0.53,0.083188714,-0.231850433,1,0,0,0.926,Diorite_rect,3,0.926,0,14,0,14,0,1,,,,,,,,,,,,,
5fadeb340e10471fdeb5fbf5,TCN,2024-06-20_13h27.34.640,LearnStrategy,2023.2.3,MacIntel,62.5,4,1,16,0.017722829,-0.015784158,1,0,0,0.715,rock_grid_rect_2,7,10,-1,-1,0.715,-0.108289931,-0.398527951,1,0,0,1.058,Pegmatite_rect,6,1.058,0,15,0,15,0,1,,,,,,,,,,,,,
5fadeb340e10471fdeb5fbf5,TCN,2024-06-20_13h27.34.640,LearnStrategy,2023.2.3,MacIntel,62.5,4,2,1,,,,,,,,1,04,,,,,,,,,,,1,2.042,1,,,,,,-0.326963976,-0.26352361,1,0,0,2.042,Andesite_rect,0,0,0,0,1,
5fadeb340e10471fdeb5fbf5,TCN,2024-06-20_13h27.34.640,LearnStrategy,2023.2.3,MacIntel,62.5,4,2,2,,,,,,,,4,13,,,,,,,,,,,8,5.007,0,,,,,,0.397124566,-0.39680269,1,0,0,5.007,Pumice_rect,1,0,1,0,1,
5fadeb340e10471fdeb5fbf5,TCN,2024-06-20_13h27.34.640,LearnStrategy,2023.2.3,MacIntel,62.5,4,2,3,,,,,,,,6,05,,,,,,,,,,,7,1.681,0,,,,,,0.190675693,-0.410926649,1,0,0,1.681,Peridotite_rect,2,0,2,0,1,
5fadeb340e10471fdeb5fbf5,TCN,2024-06-20_13h27.34.640,LearnStrategy,2023.2.3,MacIntel,62.5,4,2,4,,,,,,,,3,11,,,,,,,,,,,3,1.292,1,,,,,,0.150180901,-0.265961372,1,0,0,1.292,Diorite_rect,3,0,3,0,1,
5fadeb340e10471fdeb5fbf5,TCN,2024-06-20_13h27.34.640,LearnStrategy,2023.2.3,MacIntel,62.5,4,2,5,,,,,,,,2,01,,,,,,,,,,,2,2.174,1,,,,,,-0.147569444,-0.249811978,1,0,0,2.174,Basalt_rect,4,0,4,0,1,
5fadeb340e10471fdeb5fbf5,TCN,2024-06-20_13h27.34.640,LearnStrategy,2023.2.3,MacIntel,62.5,4,2,6,,,,,,,,1,09,,,,,,,,,,,5,1.274,0,,,,,,-0.374189801,-0.414948697,1,0,0,1.274,Obsidian_rect,5,0,5,0,1,
5fadeb340e10471fdeb5fbf5,TCN,2024-06-20_13h27.34.640,LearnStrategy,2023.2.3,MacIntel,62.5,4,2,7,,,,,,,,6,13,,,,,,,,,,,4,0.891,0,,,,,,0.427589756,-0.251765103,1,0,0,0.891,Gabbro_rect,6,0,6,0,1,
5fadeb340e10471fdeb5fbf5,TCN,2024-06-20_13h27.34.640,LearnStrategy,2023.2.3,MacIntel,62.5,4,2,8,,,,,,,,8,14,,,,,,,,,,,1,0.575,0,,,,,,-0.375821008,-0.236046007,1,0,0,0.575,Andesite_rect,7,0,7,0,1,
5fadeb340e10471fdeb5fbf5,TCN,2024-06-20_13h27.34.640,LearnStrategy,2023.2.3,MacIntel,62.5,4,2,9,,,,,,,,7,06,,,,,,,,,,,2,0.427,0,,,,,,-0.119249132,-0.228410763,1,0,0,0.427,Basalt_rect,8,0,8,0,1,
5fadeb340e10471fdeb5fbf5,TCN,2024-06-20_13h27.34.640,LearnStrategy,2023.2.3,MacIntel,62.5,4,2,10,,,,,,,,4,12,,,,,,,,,,,4,0.425,1,,,,,,0.359114583,-0.258532291,1,0,0,0.425,Gabbro_rect,9,0,9,0,1,
5fadeb340e10471fdeb5fbf5,TCN,2024-06-20_13h27.34.640,LearnStrategy,2023.2.3,MacIntel,62.5,4,2,11,,,,,,,,8,09,,,,,,,,,,,7,0.36,0,,,,,,0.087358941,-0.380884722,1,0,0,0.36,Peridotite_rect,10,0,10,0,1,
5fadeb340e10471fdeb5fbf5,TCN,2024-06-20_13h27.34.640,LearnStrategy,2023.2.3,MacIntel,62.5,4,2,12,,,,,,,,2,10,,,,,,,,,,,6,0.31,0,,,,,,-0.118782552,-0.400915103,1,0,0,0.31,Pegmatite_rect,11,0,11,0,1,
5fadeb340e10471fdeb5fbf5,TCN,2024-06-20_13h27.34.640,LearnStrategy,2023.2.3,MacIntel,62.5,4,2,13,,,,,,,,7,08,,,,,,,,,,,5,0.725,0,,,,,,-0.398527908,-0.407157898,1,0,0,0.725,Obsidian_rect,12,0,12,0,1,
5fadeb340e10471fdeb5fbf5,TCN,2024-06-20_13h27.34.640,LearnStrategy,2023.2.3,MacIntel,62.5,4,2,14,,,,,,,,5,02,,,,,,,,,,,5,0.894,1,,,,,,-0.395001433,-0.407671441,1,0,0,0.894,Obsidian_rect,13,0,13,0,1,
5fadeb340e10471fdeb5fbf5,TCN,2024-06-20_13h27.34.640,LearnStrategy,2023.2.3,MacIntel,62.5,4,2,15,,,,,,,,3,08,,,,,,,,,,,2,1.056,0,,,,,,-0.093004862,-0.241811371,1,0,0,1.056,Basalt_rect,14,0,14,0,1,
5fadeb340e10471fdeb5fbf5,TCN,2024-06-20_13h27.34.640,LearnStrategy,2023.2.3,MacIntel,62.5,4,2,16,,,,,,,,5,12,,,,,,,,,,,5,1.41,1,,,,,,-0.440020964,-0.392668576,1,0,0,1.41,Obsidian_rect,15,0,15,0,1,
5fadeb340e10471fdeb5fbf5,TCN,2024-06-20_13h27.34.640,LearnStrategy,2023.2.3,MacIntel,62.5,5,1,1,0.083561198,-0.002235243,1,0,0,32.664,rock_grid_rect_2,2,06,-1,-1,32.664,-0.35328776,-0.412832811,1,0,0,2.857,Obsidian_rect,5,2.857,0,0,0,0,0,1,,,,,,,,,,,,,
5fadeb340e10471fdeb5fbf5,TCN,2024-06-20_13h27.34.640,LearnStrategy,2023.2.3,MacIntel,62.5,5,1,2,-0.013780382,0.009461806,1,0,0,0.747,rock_grid_rect_2,1,07,-1,-1,0.747,0.363462151,-0.382581075,1,0,0,1.923,Pumice_rect,8,1.923,0,1,0,1,0,1,,,,,,,,,,,,,
5fadeb340e10471fdeb5fbf5,TCN,2024-06-20_13h27.34.640,LearnStrategy,2023.2.3,MacIntel,62.5,5,1,3,0.069046614,-0.011603038,1,0,0,0.898,rock_grid_rect_2,7,15,-1,-1,0.898,0.107986111,-0.418080902,1,0,0,1.541,Peridotite_rect,7,1.541,1,2,0,2,0,1,,,,,,,,,,,,,
5fadeb340e10471fdeb5fbf5,TCN,2024-06-20_13h27.34.640,LearnStrategy,2023.2.3,MacIntel,62.5,5,1,4,0.056195747,0.013791233,1,0,0,0.748,rock_grid_rect_2,4,08,-1,-1,0.748,-0.43773507,-0.261266666,1,0,0,2.624,Andesite_rect,1,2.624,0,3,0,3,0,1,,,,,,,,,,,,,
5fadeb340e10471fdeb5fbf5,TCN,2024-06-20_13h27.34.640,LearnStrategy,2023.2.3,MacIntel,62.5,5,1,5,0.062724304,0.007808855,1,0,0,0.83,rock_grid_rect_2,6,09,-1,-1,0.83,0.075057899,-0.258539497,1,0,0,1.39,Diorite_rect,3,1.39,0,4,0,4,0,1,,,,,,,,,,,,,
5fadeb340e10471fdeb5fbf5,TCN,2024-06-20_13h27.34.640,LearnStrategy,2023.2.3,MacIntel,62.5,5,1,6,-0.035326216,-0.007342317,1,0,0,0.716,rock_grid_rect_2,3,07,-1,-1,0.716,-0.087847222,-0.394571092,1,0,0,0.957,Pegmatite_rect,6,0.957,0,5,0,5,0,1,,,,,,,,,,,,,
5fadeb340e10471fdeb5fbf5,TCN,2024-06-20_13h27.34.640,LearnStrategy,2023.2.3,MacIntel,62.5,5,1,7,0.029456075,-0.001059765,1,0,0,1.2,rock_grid_rect_2,4,14,-1,-1,1.2,-0.072526042,-0.248032464,1,0,0,0.81,Basalt_rect,2,0.81,0,6,0,6,0,1,,,,,,,,,,,,,
5fadeb340e10471fdeb5fbf5,TCN,2024-06-20_13h27.34.640,LearnStrategy,2023.2.3,MacIntel,62.5,5,1,8,0.099348958,-0.014782291,1,0,0,0.831,rock_grid_rect_2,2,04,-1,-1,0.831,-0.180103429,-0.251707204,1,0,0,1.439,Basalt_rect,2,1.439,1,7,0,7,0,1,,,,,,,,,,,,,
5fadeb340e10471fdeb5fbf5,TCN,2024-06-20_13h27.34.640,LearnStrategy,2023.2.3,MacIntel,62.5,5,1,9,-0.054557292,0.011179818,1,0,0,1.131,rock_grid_rect_2,6,06,-1,-1,1.131,0.115125868,-0.248538801,1,0,0,1.358,Diorite_rect,3,1.358,0,8,0,8,0,1,,,,,,,,,,,,,
5fadeb340e10471fdeb5fbf5,TCN,2024-06-20_13h27.34.640,LearnStrategy,2023.2.3,MacIntel,62.5,5,1,10,0.058879513,0.005993186,1,0,0,0.666,rock_grid_rect_2,5,11,-1,-1,0.666,-0.378526476,-0.387442186,1,0,0,0.939,Obsidian_rect,5,0.939,1,9,0,9,0,1,,,,,,,,,,,,,
5fadeb340e10471fdeb5fbf5,TCN,2024-06-20_13h27.34.640,LearnStrategy,2023.2.3,MacIntel,62.5,5,1,11,-0.009490712,-0.011353472,1,0,0,0.748,rock_grid_rect_2,8,03,-1,-1,0.748,-0.112525262,-0.252756076,1,0,0,0.693,Basalt_rect,2,0.693,0,10,0,10,0,1,,,,,,,,,,,,,
5fadeb340e10471fdeb5fbf5,TCN,2024-06-20_13h27.34.640,LearnStrategy,2023.2.3,MacIntel,62.5,5,1,12,0.09406111,-0.015722656,1,0,0,0.863,rock_grid_rect_2,3,16,-1,-1,0.863,0.064756944,-0.249265798,1,0,0,0.66,Diorite_rect,3,0.66,1,11,0,11,0,1,,,,,,,,,,,,,
5fadeb340e10471fdeb5fbf5,TCN,2024-06-20_13h27.34.640,LearnStrategy,2023.2.3,MacIntel,62.5,5,1,13,0.021647135,-0.019498698,1,0,0,1.014,rock_grid_rect_2,7,02,-1,-1,1.014,-0.092672136,-0.408112759,1,0,0,1.375,Pegmatite_rect,6,1.375,0,12,0,12,0,1,,,,,,,,,,,,,
5fadeb340e10471fdeb5fbf5,TCN,2024-06-20_13h27.34.640,LearnStrategy,2023.2.3,MacIntel,62.5,5,1,14,0.052698263,-0.015802256,1,0,0,0.631,rock_grid_rect_2,1,06,-1,-1,0.631,0.089558072,-0.260080295,1,0,0,0.707,Diorite_rect,3,0.707,0,13,0,13,0,1,,,,,,,,,,,,,
5fadeb340e10471fdeb5fbf5,TCN,2024-06-20_13h27.34.640,LearnStrategy,2023.2.3,MacIntel,62.5,5,1,15,0.14765625,0.009704124,1,0,0,0.631,rock_grid_rect_2,5,04,-1,-1,0.631,0.120638021,-0.22890625,1,0,0,0.574,Diorite_rect,3,0.574,0,14,0,14,0,1,,,,,,,,,,,,,
5fadeb340e10471fdeb5fbf5,TCN,2024-06-20_13h27.34.640,LearnStrategy,2023.2.3,MacIntel,62.5,5,1,16,0.094657898,0.014033551,1,0,0,0.748,rock_grid_rect_2,8,13,-1,-1,0.748,-0.077994792,-0.268301561,1,0,0,1.058,Basalt_rect,2,1.058,0,15,0,15,0,1,,,,,,,,,,,,,
5fadeb340e10471fdeb5fbf5,TCN,2024-06-20_13h27.34.640,LearnStrategy,2023.2.3,MacIntel,62.5,5,2,1,,,,,,,,6,12,,,,,,,,,,,1,1.593,0,,,,,,-0.319563802,-0.249537065,1,0,0,1.593,Andesite_rect,0,0,0,0,1,
5fadeb340e10471fdeb5fbf5,TCN,2024-06-20_13h27.34.640,LearnStrategy,2023.2.3,MacIntel,62.5,5,2,2,,,,,,,,8,16,,,,,,,,,,,8,2.558,1,,,,,,0.350835503,-0.415053558,1,0,0,2.558,Pumice_rect,1,0,1,0,1,
5fadeb340e10471fdeb5fbf5,TCN,2024-06-20_13h27.34.640,LearnStrategy,2023.2.3,MacIntel,62.5,5,2,3,,,,,,,,1,02,,,,,,,,,,,6,12.797,0,,,,,,-0.077954949,-0.395887587,1,0,0,12.797,Pegmatite_rect,2,0,2,0,1,
5fadeb340e10471fdeb5fbf5,TCN,2024-06-20_13h27.34.640,LearnStrategy,2023.2.3,MacIntel,62.5,5,2,4,,,,,,,,5,08,,,,,,,,,,,5,3.364,1,,,,,,-0.392115148,-0.413136631,1,0,0,3.364,Obsidian_rect,3,0,3,0,1,
5fadeb340e10471fdeb5fbf5,TCN,2024-06-20_13h27.34.640,LearnStrategy,2023.2.3,MacIntel,62.5,5,2,5,,,,,,,,1,14,,,,,,,,,,,3,23.073,0,,,,,,0.144194878,-0.256828732,1,0,0,23.073,Diorite_rect,4,0,4,0,1,
5fadeb340e10471fdeb5fbf5,TCN,2024-06-20_13h27.34.640,LearnStrategy,2023.2.3,MacIntel,62.5,5,2,6,,,,,,,,6,07,,,,,,,,,,,1,1.313,0,,,,,,-0.389351824,-0.255555556,1,0,0,1.313,Andesite_rect,5,0,5,0,1,
5fadeb340e10471fdeb5fbf5,TCN,2024-06-20_13h27.34.640,LearnStrategy,2023.2.3,MacIntel,62.5,5,2,7,,,,,,,,4,10,,,,,,,,,,,4,3.01,1,,,,,,0.408799913,-0.233550347,1,0,0,3.01,Gabbro_rect,6,0,6,0,1,
5fadeb340e10471fdeb5fbf5,TCN,2024-06-20_13h27.34.640,LearnStrategy,2023.2.3,MacIntel,62.5,5,2,8,,,,,,,,2,14,,,,,,,,,,,2,0.8,1,,,,,,-0.071780904,-0.248614756,1,0,0,0.8,Basalt_rect,7,0,7,0,1,
5fadeb340e10471fdeb5fbf5,TCN,2024-06-20_13h27.34.640,LearnStrategy,2023.2.3,MacIntel,62.5,5,2,9,,,,,,,,4,09,,,,,,,,,,,2,0.927,0,,,,,,-0.155718316,-0.255729167,1,0,0,0.927,Basalt_rect,8,0,8,0,1,
5fadeb340e10471fdeb5fbf5,TCN,2024-06-20_13h27.34.640,LearnStrategy,2023.2.3,MacIntel,62.5,5,2,10,,,,,,,,2,09,,,,,,,,,,,4,0.873,0,,,,,,0.391301388,-0.245775519,1,0,0,0.873,Gabbro_rect,9,0,9,0,1,
5fadeb340e10471fdeb5fbf5,TCN,2024-06-20_13h27.34.640,LearnStrategy,2023.2.3,MacIntel,62.5,5,2,11,,,,,,,,3,09,,,,,,,,,,,8,1.124,0,,,,,,0.35968611,-0.408506944,1,0,0,1.124,Pumice_rect,10,0,10,0,1,
5fadeb340e10471fdeb5fbf5,TCN,2024-06-20_13h27.34.640,LearnStrategy,2023.2.3,MacIntel,62.5,5,2,12,,,,,,,,8,06,,,,,,,,,,,8,0.656,1,,,,,,0.35968611,-0.408506944,1,0,0,0.656,Pumice_rect,11,0,11,0,1,
5fadeb340e10471fdeb5fbf5,TCN,2024-06-20_13h27.34.640,LearnStrategy,2023.2.3,MacIntel,62.5,5,2,13,,,,,,,,3,14,,,,,,,,,,,7,1.193,0,,,,,,0.069165972,-0.420453559,1,0,0,1.193,Peridotite_rect,12,0,12,0,1,
5fadeb340e10471fdeb5fbf5,TCN,2024-06-20_13h27.34.640,LearnStrategy,2023.2.3,MacIntel,62.5,5,2,14,,,,,,,,7,14,,,,,,,,,,,6,0.761,0,,,,,,-0.100958421,-0.405787065,1,0,0,0.761,Pegmatite_rect,13,0,13,0,1,
5fadeb340e10471fdeb5fbf5,TCN,2024-06-20_13h27.34.640,LearnStrategy,2023.2.3,MacIntel,62.5,5,2,15,,,,,,,,5,14,,,,,,,,,,,5,0.843,1,,,,,,-0.327314801,-0.417711978,1,0,0,0.843,Obsidian_rect,14,0,14,0,1,
5fadeb340e10471fdeb5fbf5,TCN,2024-06-20_13h27.34.640,LearnStrategy,2023.2.3,MacIntel,62.5,5,2,16,,,,,,,,7,13,,,,,,,,,,,1,0.971,0,,,,,,-0.426023568,-0.231901042,1,0,0,0.971,Andesite_rect,15,0,15,0,1,
5fadeb340e10471fdeb5fbf5,TCN,2024-06-20_13h27.34.640,LearnStrategy,2023.2.3,MacIntel,62.5,6,1,1,0.093109809,0.000708898,1,0,0,1.217,rock_grid_rect_2,8,05,-1,-1,1.217,0.384613715,-0.391652256,1,0,0,153.543,Pumice_rect,8,153.543,1,0,0,0,0,1,,,,,,,,,,,,,
5fadeb340e10471fdeb5fbf5,TCN,2024-06-20_13h27.34.640,LearnStrategy,2023.2.3,MacIntel,62.5,6,1,2,0.145645311,-0.00300204,1,0,0,0.762,rock_grid_rect_2,2,11,-1,-1,0.762,-0.118862067,-0.249862586,1,0,0,1.457,Basalt_rect,2,1.457,1,1,0,1,0,1,,,,,,,,,,,,,
5fadeb340e10471fdeb5fbf5,TCN,2024-06-20_13h27.34.640,LearnStrategy,2023.2.3,MacIntel,62.5,6,1,3,0.07014974,0.004343881,1,0,0,1.08,rock_grid_rect_2,5,07,-1,-1,1.08,-0.375260417,-0.391822222,1,0,0,1.124,Obsidian_rect,5,1.124,1,2,0,2,0,1,,,,,,,,,,,,,
5fadeb340e10471fdeb5fbf5,TCN,2024-06-20_13h27.34.640,LearnStrategy,2023.2.3,MacIntel,62.5,6,1,4,-0.023679776,-0.017961544,1,0,0,1.08,rock_grid_rect_2,4,03,-1,-1,1.08,-0.330696615,-0.241616058,1,0,0,1.743,Andesite_rect,1,1.743,0,3,0,3,0,1,,,,,,,,,,,,,
5fadeb340e10471fdeb5fbf5,TCN,2024-06-20_13h27.34.640,LearnStrategy,2023.2.3,MacIntel,62.5,6,1,5,0.007584635,-0.016402647,1,0,0,0.665,rock_grid_rect_2,1,01,-1,-1,0.665,-0.051255035,-0.26640269,1,0,0,2.057,Basalt_rect,2,2.057,0,4,0,4,0,1,,,,,,,,,,,,,
5fadeb340e10471fdeb5fbf5,TCN,2024-06-20_13h27.34.640,LearnStrategy,2023.2.3,MacIntel,62.5,6,1,6,-0.024244012,-0.008134418,1,0,0,0.864,rock_grid_rect_2,5,05,-1,-1,0.864,-0.320558421,-0.408655294,1,0,0,1.041,Obsidian_rect,5,1.041,1,5,0,5,0,1,,,,,,,,,,,,,
5fadeb340e10471fdeb5fbf5,TCN,2024-06-20_13h27.34.640,LearnStrategy,2023.2.3,MacIntel,62.5,6,1,7,0.206886631,-0.011378776,1,0,0,10.947,rock_grid_rect_2,4,01,-1,-1,10.947,-0.352520964,-0.232751041,1,0,0,1.608,Andesite_rect,1,1.608,0,6,0,6,0,1,,,,,,,,,,,,,
5fadeb340e10471fdeb5fbf5,TCN,2024-06-20_13h27.34.640,LearnStrategy,2023.2.3,MacIntel,62.5,6,1,8,0.111856249,-0.003157552,1,0,0,1.062,rock_grid_rect_2,6,08,-1,-1,1.062,0.429955207,-0.255646006,1,0,0,1.927,Gabbro_rect,4,1.927,0,7,0,7,0,1,,,,,,,,,,,,,
5fadeb340e10471fdeb5fbf5,TCN,2024-06-20_13h27.34.640,LearnStrategy,2023.2.3,MacIntel,62.5,6,1,9,0.095012326,0.020073785,1,0,0,0.665,rock_grid_rect_2,2,05,-1,-1,0.665,-0.070920139,-0.271249305,1,0,0,1.124,Basalt_rect,2,1.124,1,8,0,8,0,1,,,,,,,,,,,,,
5fadeb340e10471fdeb5fbf5,TCN,2024-06-20_13h27.34.640,LearnStrategy,2023.2.3,MacIntel,62.5,6,1,10,0.075050693,0.004043664,1,0,0,0.714,rock_grid_rect_2,3,12,-1,-1,0.714,-0.334660721,-0.378801388,1,0,0,1.042,Obsidian_rect,5,1.042,0,9,0,9,0,1,,,,,,,,,,,,,
5fadeb340e10471fdeb5fbf5,TCN,2024-06-20_13h27.34.640,LearnStrategy,2023.2.3,MacIntel,62.5,6,1,11,0.062141927,0.000918664,1,0,0,0.83,rock_grid_rect_2,6,11,-1,-1,0.83,-0.145518663,-0.252756076,1,0,0,1.208,Basalt_rect,2,1.208,0,10,0,10,0,1,,,,,,,,,,,,,
5fadeb340e10471fdeb5fbf5,TCN,2024-06-20_13h27.34.640,LearnStrategy,2023.2.3,MacIntel,62.5,6,1,12,0.179304165,0.007526737,1,0,0,0.814,rock_grid_rect_2,3,13,-1,-1,0.814,-0.11311849,-0.408163367,1,0,0,0.727,Pegmatite_rect,6,0.727,0,11,0,11,0,1,,,,,,,,,,,,,
5fadeb340e10471fdeb5fbf5,TCN,2024-06-20_13h27.34.640,LearnStrategy,2023.2.3,MacIntel,62.5,6,1,13,0.139471266,-0.001938672,1,0,0,0.715,rock_grid_rect_2,1,10,-1,-1,0.715,0.113812934,-0.26733941,1,0,0,0.623,Diorite_rect,3,0.623,0,12,0,12,0,1,,,,,,,,,,,,,
5fadeb340e10471fdeb5fbf5,TCN,2024-06-20_13h27.34.640,LearnStrategy,2023.2.3,MacIntel,62.5,6,1,14,0.036147308,-0.002329297,1,0,0,0.631,rock_grid_rect_2,7,12,-1,-1,0.631,-0.170359463,-0.26749861,1,0,0,0.691,Basalt_rect,2,0.691,0,13,0,13,0,1,,,,,,,,,,,,,
5fadeb340e10471fdeb5fbf5,TCN,2024-06-20_13h27.34.640,LearnStrategy,2023.2.3,MacIntel,62.5,6,1,15,0.045196788,-0.008326128,1,0,0,0.715,rock_grid_rect_2,8,04,-1,-1,0.715,0.110662672,-0.236794705,1,0,0,0.758,Diorite_rect,3,0.758,0,14,0,14,0,1,,,,,,,,,,,,,
5fadeb340e10471fdeb5fbf5,TCN,2024-06-20_13h27.34.640,LearnStrategy,2023.2.3,MacIntel,62.5,6,1,16,0.093077257,-0.004246267,1,0,0,0.931,rock_grid_rect_2,7,04,-1,-1,0.931,0.387304688,-0.257317013,1,0,0,0.824,Gabbro_rect,4,0.824,0,15,0,15,0,1,,,,,,,,,,,,,
5fadeb340e10471fdeb5fbf5,TCN,2024-06-20_13h27.34.640,LearnStrategy,2023.2.3,MacIntel,62.5,6,2,1,,,,,,,,1,05,,,,,,,,,,,1,4.573,1,,,,,,-0.344726563,-0.252933333,1,0,0,4.573,Andesite_rect,0,0,0,0,1,
5fadeb340e10471fdeb5fbf5,TCN,2024-06-20_13h27.34.640,LearnStrategy,2023.2.3,MacIntel,62.5,6,2,2,,,,,,,,2,12,,,,,,,,,,,2,2.182,1,,,,,,-0.099117449,-0.24766354,1,0,0,2.182,Basalt_rect,1,0,1,0,1,
5fadeb340e10471fdeb5fbf5,TCN,2024-06-20_13h27.34.640,LearnStrategy,2023.2.3,MacIntel,62.5,6,2,3,,,,,,,,3,15,,,,,,,,,,,4,0.891,0,,,,,,0.340722656,-0.243735589,1,0,0,0.891,Gabbro_rect,2,0,2,0,1,
5fadeb340e10471fdeb5fbf5,TCN,2024-06-20_13h27.34.640,LearnStrategy,2023.2.3,MacIntel,62.5,6,2,4,,,,,,,,3,10,,,,,,,,,,,8,2.007,0,,,,,,0.305580902,-0.408076562,1,0,0,2.007,Pumice_rect,3,0,3,0,1,
5fadeb340e10471fdeb5fbf5,TCN,2024-06-20_13h27.34.640,LearnStrategy,2023.2.3,MacIntel,62.5,6,2,5,,,,,,,,6,15,,,,,,,,,,,6,1.511,1,,,,,,-0.074594879,-0.402105035,1,0,0,1.511,Pegmatite_rect,4,0,4,0,1,
5fadeb340e10471fdeb5fbf5,TCN,2024-06-20_13h27.34.640,LearnStrategy,2023.2.3,MacIntel,62.5,6,2,6,,,,,,,,8,10,,,,,,,,,,,2,2.128,0,,,,,,-0.141832987,-0.256477865,1,0,0,2.128,Basalt_rect,5,0,5,0,1,
5fadeb340e10471fdeb5fbf5,TCN,2024-06-20_13h27.34.640,LearnStrategy,2023.2.3,MacIntel,62.5,6,2,7,,,,,,,,5,16,,,,,,,,,,,5,0.98,1,,,,,,-0.355602561,-0.395478906,1,0,0,0.98,Obsidian_rect,6,0,6,0,1,
5fadeb340e10471fdeb5fbf5,TCN,2024-06-20_13h27.34.640,LearnStrategy,2023.2.3,MacIntel,62.5,6,2,8,,,,,,,,4,05,,,,,,,,,,,1,1.008,0,,,,,,-0.310120053,-0.253656684,1,0,0,1.008,Andesite_rect,7,0,7,0,1,
5fadeb340e10471fdeb5fbf5,TCN,2024-06-20_13h27.34.640,LearnStrategy,2023.2.3,MacIntel,62.5,6,2,9,,,,,,,,2,08,,,,,,,,,,,3,1.057,0,,,,,,0.085915799,-0.246477169,1,0,0,1.057,Diorite_rect,8,0,8,0,1,
5fadeb340e10471fdeb5fbf5,TCN,2024-06-20_13h27.34.640,LearnStrategy,2023.2.3,MacIntel,62.5,6,2,10,,,,,,,,6,10,,,,,,,,,,,7,1.973,0,,,,,,0.066207377,-0.396394009,1,0,0,1.973,Peridotite_rect,9,0,9,0,1,
5fadeb340e10471fdeb5fbf5,TCN,2024-06-20_13h27.34.640,LearnStrategy,2023.2.3,MacIntel,62.5,6,2,11,,,,,,,,7,07,,,,,,,,,,,3,0.84,0,,,,,,0.095251041,-0.263147481,1,0,0,0.84,Diorite_rect,10,0,10,0,1,
5fadeb340e10471fdeb5fbf5,TCN,2024-06-20_13h27.34.640,LearnStrategy,2023.2.3,MacIntel,62.5,6,2,12,,,,,,,,5,10,,,,,,,,,,,5,1.042,1,,,,,,-0.40366389,-0.402379947,1,0,0,1.042,Obsidian_rect,11,0,11,0,1,
5fadeb340e10471fdeb5fbf5,TCN,2024-06-20_13h27.34.640,LearnStrategy,2023.2.3,MacIntel,62.5,6,2,13,,,,,,,,1,03,,,,,,,,,,,8,1.455,0,,,,,,0.377528212,-0.387792969,1,0,0,1.455,Pumice_rect,12,0,12,0,1,
5fadeb340e10471fdeb5fbf5,TCN,2024-06-20_13h27.34.640,LearnStrategy,2023.2.3,MacIntel,62.5,6,2,14,,,,,,,,7,16,,,,,,,,,,,4,1.459,0,,,,,,0.365068054,-0.271462674,1,0,0,1.459,Gabbro_rect,13,0,13,0,1,
5fadeb340e10471fdeb5fbf5,TCN,2024-06-20_13h27.34.640,LearnStrategy,2023.2.3,MacIntel,62.5,6,2,15,,,,,,,,8,15,,,,,,,,,,,3,1.023,0,,,,,,0.163201735,-0.261056858,1,0,0,1.023,Diorite_rect,14,0,14,0,1,
5fadeb340e10471fdeb5fbf5,TCN,2024-06-20_13h27.34.640,LearnStrategy,2023.2.3,MacIntel,62.5,6,2,16,,,,,,,,4,15,,,,,,,,,,,7,2.707,0,,,,,,0.127332899,-0.404680294,1,0,0,2.707,Peridotite_rect,15,0,15,0,1,
5fadeb340e10471fdeb5fbf5,TCN,2024-06-20_13h27.34.640,LearnStrategy,2023.2.3,MacIntel,62.5,7,1,1,0.191373698,0.017241753,1,0,0,8.331,rock_grid_rect_2,6,08,-1,-1,8.331,0.128374566,-0.258485243,1,0,0,1.006,Diorite_rect,3,1.006,0,0,0,0,0,1,,,,,,,,,,,,,
5fadeb340e10471fdeb5fbf5,TCN,2024-06-20_13h27.34.640,LearnStrategy,2023.2.3,MacIntel,62.5,7,1,2,0.090361023,0.002398003,1,0,0,0.682,rock_grid_rect_2,2,06,-1,-1,0.682,-0.116482205,-0.264138455,1,0,0,0.458,Basalt_rect,2,0.458,1,1,0,1,0,1,,,,,,,,,,,,,
5fadeb340e10471fdeb5fbf5,TCN,2024-06-20_13h27.34.640,LearnStrategy,2023.2.3,MacIntel,62.5,7,1,3,0.072775608,0.017390018,1,0,0,0.764,rock_grid_rect_2,8,13,-1,-1,0.764,-0.326244185,-0.264637587,1,0,0,0.991,Andesite_rect,1,0.991,0,2,0,2,0,1,,,,,,,,,,,,,
5fadeb340e10471fdeb5fbf5,TCN,2024-06-20_13h27.34.640,LearnStrategy,2023.2.3,MacIntel,62.5,7,1,4,0.14078776,-0.010080295,1,0,0,0.797,rock_grid_rect_2,1,11,-1,-1,0.797,0.357063802,-0.231123437,1,0,0,0.742,Gabbro_rect,4,0.742,0,3,0,3,0,1,,,,,,,,,,,,,
5fadeb340e10471fdeb5fbf5,TCN,2024-06-20_13h27.34.640,LearnStrategy,2023.2.3,MacIntel,62.5,7,1,5,0.076555294,-0.011270269,1,0,0,0.798,rock_grid_rect_2,8,08,-1,-1,0.798,0.090115017,-0.401016405,1,0,0,0.575,Peridotite_rect,7,0.575,0,4,0,4,0,1,,,,,,,,,,,,,
5fadeb340e10471fdeb5fbf5,TCN,2024-06-20_13h27.34.640,LearnStrategy,2023.2.3,MacIntel,62.5,7,1,6,0.063661024,0.002622223,1,0,0,0.68,rock_grid_rect_2,7,04,-1,-1,0.68,-0.071972656,-0.255193922,1,0,0,0.742,Basalt_rect,2,0.742,0,5,0,5,0,1,,,,,,,,,,,,,
5fadeb340e10471fdeb5fbf5,TCN,2024-06-20_13h27.34.640,LearnStrategy,2023.2.3,MacIntel,62.5,7,1,7,0.044068315,-0.013132985,1,0,0,0.514,rock_grid_rect_2,3,07,-1,-1,0.514,0.113498264,-0.253710938,1,0,0,0.808,Diorite_rect,3,0.808,1,6,0,6,0,1,,,,,,,,,,,,,
5fadeb340e10471fdeb5fbf5,TCN,2024-06-20_13h27.34.640,LearnStrategy,2023.2.3,MacIntel,62.5,7,1,8,0.026414235,-0.019827864,1,0,0,0.715,rock_grid_rect_2,4,11,-1,-1,0.715,-0.157993317,-0.389037238,1,0,0,0.806,Pegmatite_rect,6,0.806,0,7,0,7,0,1,,,,,,,,,,,,,
5fadeb340e10471fdeb5fbf5,TCN,2024-06-20_13h27.34.640,LearnStrategy,2023.2.3,MacIntel,62.5,7,1,9,0.012543403,-0.00797526,1,0,0,1.065,rock_grid_rect_2,4,08,-1,-1,1.065,-0.085402171,-0.232765537,1,0,0,0.424,Basalt_rect,2,0.424,0,8,0,8,0,1,,,,,,,,,,,,,
5fadeb340e10471fdeb5fbf5,TCN,2024-06-20_13h27.34.640,LearnStrategy,2023.2.3,MacIntel,62.5,7,1,10,0.091865624,0.012677214,1,0,0,0.832,rock_grid_rect_2,7,12,-1,-1,0.832,0.150014496,-0.237905121,1,0,0,0.858,Diorite_rect,3,0.858,0,9,0,9,0,1,,,,,,,,,,,,,
5fadeb340e10471fdeb5fbf5,TCN,2024-06-20_13h27.34.640,LearnStrategy,2023.2.3,MacIntel,62.5,7,1,11,0.112590451,0.007248264,1,0,0,0.881,rock_grid_rect_2,2,04,-1,-1,0.881,0.362720659,-0.23594479,1,0,0,0.607,Gabbro_rect,4,0.607,0,10,0,10,0,1,,,,,,,,,,,,,
5fadeb340e10471fdeb5fbf5,TCN,2024-06-20_13h27.34.640,LearnStrategy,2023.2.3,MacIntel,62.5,7,1,12,0.079177517,-0.010659027,1,0,0,0.714,rock_grid_rect_2,3,13,-1,-1,0.714,-0.122623698,-0.250010851,1,0,0,0.873,Basalt_rect,2,0.873,0,11,0,11,0,1,,,,,,,,,,,,,
5fadeb340e10471fdeb5fbf5,TCN,2024-06-20_13h27.34.640,LearnStrategy,2023.2.3,MacIntel,62.5,7,1,13,0.106090885,-0.012037065,1,0,0,0.982,rock_grid_rect_2,1,07,-1,-1,0.982,0.111975606,-0.246129947,1,0,0,0.657,Diorite_rect,3,0.657,0,12,0,12,0,1,,,,,,,,,,,,,
5fadeb340e10471fdeb5fbf5,TCN,2024-06-20_13h27.34.640,LearnStrategy,2023.2.3,MacIntel,62.5,7,1,14,0.095171441,-0.02362921,1,0,0,0.781,rock_grid_rect_2,5,09,-1,-1,0.781,0.346813541,-0.246383158,1,0,0,0.695,Gabbro_rect,4,0.695,0,13,0,13,0,1,,,,,,,,,,,,,
5fadeb340e10471fdeb5fbf5,TCN,2024-06-20_13h27.34.640,LearnStrategy,2023.2.3,MacIntel,62.5,7,1,15,0.079890103,-0.002376302,1,0,0,0.798,rock_grid_rect_2,6,16,-1,-1,0.798,0.146053992,-0.407400174,1,0,0,0.694,Peridotite_rect,7,0.694,0,14,0,14,0,1,,,,,,,,,,,,,
5fadeb340e10471fdeb5fbf5,TCN,2024-06-20_13h27.34.640,LearnStrategy,2023.2.3,MacIntel,62.5,7,1,16,0.052213542,0.00105612,1,0,0,0.898,rock_grid_rect_2,5,04,-1,-1,0.898,-0.31891276,-0.39609019,1,0,0,0.808,Obsidian_rect,5,0.808,1,15,0,15,0,1,,,,,,,,,,,,,
5fadeb340e10471fdeb5fbf5,TCN,2024-06-20_13h27.34.640,LearnStrategy,2023.2.3,MacIntel,62.5,7,2,1,,,,,,,,3,10,,,,,,,,,,,4,1.725,0,,,,,,0.325397915,-0.247243924,1,0,0,1.725,Gabbro_rect,0,0,0,0,1,
5fadeb340e10471fdeb5fbf5,TCN,2024-06-20_13h27.34.640,LearnStrategy,2023.2.3,MacIntel,62.5,7,2,2,,,,,,,,7,06,,,,,,,,,,,2,1.581,0,,,,,,-0.103153907,-0.244191318,1,0,0,1.581,Basalt_rect,1,0,1,0,1,
5fadeb340e10471fdeb5fbf5,TCN,2024-06-20_13h27.34.640,LearnStrategy,2023.2.3,MacIntel,62.5,7,2,3,,,,,,,,7,16,,,,,,,,,,,1,1.139,0,,,,,,-0.314340973,-0.256680467,1,0,0,1.139,Andesite_rect,2,0,2,0,1,
5fadeb340e10471fdeb5fbf5,TCN,2024-06-20_13h27.34.640,LearnStrategy,2023.2.3,MacIntel,62.5,7,2,4,,,,,,,,4,12,,,,,,,,,,,1,4.241,0,,,,,,-0.326077822,-0.248260329,1,0,0,4.241,Andesite_rect,3,0,3,0,1,
5fadeb340e10471fdeb5fbf5,TCN,2024-06-20_13h27.34.640,LearnStrategy,2023.2.3,MacIntel,62.5,7,2,5,,,,,,,,6,05,,,,,,,,,,,3,0.882,0,,,,,,0.10538559,-0.254347568,1,0,0,0.882,Diorite_rect,4,0,4,0,1,
5fadeb340e10471fdeb5fbf5,TCN,2024-06-20_13h27.34.640,LearnStrategy,2023.2.3,MacIntel,62.5,7,2,6,,,,,,,,2,08,,,,,,,,,,,2,2.241,1,,,,,,-0.17257665,-0.258702257,1,0,0,2.241,Basalt_rect,5,0,5,0,1,
5fadeb340e10471fdeb5fbf5,TCN,2024-06-20_13h27.34.640,LearnStrategy,2023.2.3,MacIntel,62.5,7,2,7,,,,,,,,2,01,,,,,,,,,,,3,1.205,0,,,,,,0.075542535,-0.250600433,1,0,0,1.205,Diorite_rect,6,0,6,0,1,
5fadeb340e10471fdeb5fbf5,TCN,2024-06-20_13h27.34.640,LearnStrategy,2023.2.3,MacIntel,62.5,7,2,8,,,,,,,,6,15,,,,,,,,,,,8,0.744,0,,,,,,0.390838454,-0.387528992,1,0,0,0.744,Pumice_rect,7,0,7,0,1,
5fadeb340e10471fdeb5fbf5,TCN,2024-06-20_13h27.34.640,LearnStrategy,2023.2.3,MacIntel,62.5,7,2,9,,,,,,,,1,02,,,,,,,,,,,7,0.722,0,,,,,,0.16531033,-0.378530121,1,0,0,0.722,Peridotite_rect,8,0,8,0,1,
5fadeb340e10471fdeb5fbf5,TCN,2024-06-20_13h27.34.640,LearnStrategy,2023.2.3,MacIntel,62.5,7,2,10,,,,,,,,5,02,,,,,,,,,,,5,1.009,1,,,,,,-0.434523265,-0.411436632,1,0,0,1.009,Obsidian_rect,9,0,9,0,1,
5fadeb340e10471fdeb5fbf5,TCN,2024-06-20_13h27.34.640,LearnStrategy,2023.2.3,MacIntel,62.5,7,2,11,,,,,,,,8,09,,,,,,,,,,,6,0.657,0,,,,,,-0.095970747,-0.404756249,1,0,0,0.657,Pegmatite_rect,10,0,10,0,1,
5fadeb340e10471fdeb5fbf5,TCN,2024-06-20_13h27.34.640,LearnStrategy,2023.2.3,MacIntel,62.5,7,2,12,,,,,,,,5,12,,,,,,,,,,,5,0.661,1,,,,,,-0.415990278,-0.387879774,1,0,0,0.661,Obsidian_rect,11,0,11,0,1,
5fadeb340e10471fdeb5fbf5,TCN,2024-06-20_13h27.34.640,LearnStrategy,2023.2.3,MacIntel,62.5,7,2,13,,,,,,,,3,14,,,,,,,,,,,4,0.855,0,,,,,,0.426841058,-0.248936632,1,0,0,0.855,Gabbro_rect,12,0,12,0,1,
5fadeb340e10471fdeb5fbf5,TCN,2024-06-20_13h27.34.640,LearnStrategy,2023.2.3,MacIntel,62.5,7,2,14,,,,,,,,1,04,,,,,,,,,,,1,1.305,1,,,,,,-0.350998264,-0.254094357,1,0,0,1.305,Andesite_rect,13,0,13,0,1,
5fadeb340e10471fdeb5fbf5,TCN,2024-06-20_13h27.34.640,LearnStrategy,2023.2.3,MacIntel,62.5,7,2,15,,,,,,,,8,16,,,,,,,,,,,6,1.078,0,,,,,,-0.040943231,-0.398166233,1,0,0,1.078,Pegmatite_rect,14,0,14,0,1,
5fadeb340e10471fdeb5fbf5,TCN,2024-06-20_13h27.34.640,LearnStrategy,2023.2.3,MacIntel,62.5,7,2,16,,,,,,,,4,15,,,,,,,,,,,7,2.377,0,,,,,,0.143945313,-0.411263021,1,0,0,2.377,Peridotite_rect,15,0,15,0,1,
5fadeb340e10471fdeb5fbf5,TCN,2024-06-20_13h27.34.640,LearnStrategy,2023.2.3,MacIntel,62.5,8,1,1,0.079239061,-0.008195919,1,0,0,1.114,rock_grid_rect_2,7,10,-1,-1,1.114,-0.069212935,-0.252955034,1,0,0,0.824,Basalt_rect,2,0.824,0,0,0,0,0,1,,,,,,,,,,,,,
5fadeb340e10471fdeb5fbf5,TCN,2024-06-20_13h27.34.640,LearnStrategy,2023.2.3,MacIntel,62.5,8,1,2,0.119372135,0.022623698,1,0,0,1.066,rock_grid_rect_2,4,16,-1,-1,1.066,0.102965885,-0.266550954,1,0,0,0.906,Diorite_rect,3,0.906,0,1,0,1,0,1,,,,,,,,,,,,,
5fadeb340e10471fdeb5fbf5,TCN,2024-06-20_13h27.34.640,LearnStrategy,2023.2.3,MacIntel,62.5,8,1,3,0.003993056,-0.018135156,1,0,0,0.93,rock_grid_rect_2,6,06,-1,-1,0.93,-0.134758335,-0.264199999,1,0,0,0.692,Basalt_rect,2,0.692,0,2,0,2,0,1,,,,,,,,,,,,,
5fadeb340e10471fdeb5fbf5,TCN,2024-06-20_13h27.34.640,LearnStrategy,2023.2.3,MacIntel,62.5,8,1,4,-0.102604167,-0.004181163,1,0,0,0.832,rock_grid_rect_2,6,11,-1,-1,0.832,-0.353544532,-0.240407986,1,0,0,0.676,Andesite_rect,1,0.676,0,3,0,3,0,1,,,,,,,,,,,,,
5fadeb340e10471fdeb5fbf5,TCN,2024-06-20_13h27.34.640,LearnStrategy,2023.2.3,MacIntel,62.5,8,1,5,0.101367187,0.010192405,1,0,0,1.449,rock_grid_rect_2,8,05,-1,-1,1.449,0.13328637,-0.255591753,1,0,0,1.675,Diorite_rect,3,1.675,0,4,0,4,0,1,,,,,,,,,,,,,
5fadeb340e10471fdeb5fbf5,TCN,2024-06-20_13h27.34.640,LearnStrategy,2023.2.3,MacIntel,62.5,8,1,6,0.140368228,-8.68056E-05,1,0,0,1.533,rock_grid_rect_2,1,10,-1,-1,1.533,0.395359548,-0.251294878,1,0,0,0.706,Gabbro_rect,4,0.706,0,5,0,5,0,1,,,,,,,,,,,,,
5fadeb340e10471fdeb5fbf5,TCN,2024-06-20_13h27.34.640,LearnStrategy,2023.2.3,MacIntel,62.5,8,1,7,0.115498437,0.001363542,1,0,0,0.832,rock_grid_rect_2,2,05,-1,-1,0.832,0.140509288,-0.385402256,1,0,0,0.857,Peridotite_rect,7,0.857,0,6,0,6,0,1,,,,,,,,,,,,,
5fadeb340e10471fdeb5fbf5,TCN,2024-06-20_13h27.34.640,LearnStrategy,2023.2.3,MacIntel,62.5,8,1,8,0.031069183,0.008224826,1,0,0,0.764,rock_grid_rect_2,8,04,-1,-1,0.764,-0.114959462,-0.234299045,1,0,0,0.841,Basalt_rect,2,0.841,0,7,0,7,0,1,,,,,,,,,,,,,
5fadeb340e10471fdeb5fbf5,TCN,2024-06-20_13h27.34.640,LearnStrategy,2023.2.3,MacIntel,62.5,8,1,9,0.075915103,-0.021068446,1,0,0,0.797,rock_grid_rect_2,3,02,-1,-1,0.797,0.108156162,-0.240646701,1,0,0,0.609,Diorite_rect,3,0.609,1,8,0,8,0,1,,,,,,,,,,,,,
5fadeb340e10471fdeb5fbf5,TCN,2024-06-20_13h27.34.640,LearnStrategy,2023.2.3,MacIntel,62.5,8,1,10,0.067704773,0.011877865,1,0,0,0.864,rock_grid_rect_2,5,05,-1,-1,0.864,-0.324497223,-0.404441579,1,0,0,1.29,Obsidian_rect,5,1.29,1,9,0,9,0,1,,,,,,,,,,,,,
5fadeb340e10471fdeb5fbf5,TCN,2024-06-20_13h27.34.640,LearnStrategy,2023.2.3,MacIntel,62.5,8,1,11,0.044021267,0.00070165,1,0,0,0.735,rock_grid_rect_2,7,05,-1,-1,0.735,-0.076204427,-0.39312066,1,0,0,0.641,Pegmatite_rect,6,0.641,0,10,0,10,0,1,,,,,,,,,,,,,
5fadeb340e10471fdeb5fbf5,TCN,2024-06-20_13h27.34.640,LearnStrategy,2023.2.3,MacIntel,62.5,8,1,12,0.101099565,0.011928516,1,0,0,0.814,rock_grid_rect_2,4,03,-1,-1,0.814,0.146220398,-0.230707465,1,0,0,0.491,Diorite_rect,3,0.491,0,11,0,11,0,1,,,,,,,,,,,,,
5fadeb340e10471fdeb5fbf5,TCN,2024-06-20_13h27.34.640,LearnStrategy,2023.2.3,MacIntel,62.5,8,1,13,0.113852776,-0.018294271,1,0,0,0.699,rock_grid_rect_2,2,02,-1,-1,0.699,0.404477776,-0.230255381,1,0,0,0.725,Gabbro_rect,4,0.725,0,12,0,12,0,1,,,,,,,,,,,,,
5fadeb340e10471fdeb5fbf5,TCN,2024-06-20_13h27.34.640,LearnStrategy,2023.2.3,MacIntel,62.5,8,1,14,0.189243401,0.006626129,1,0,0,1.199,rock_grid_rect_2,5,06,-1,-1,1.199,-0.338324653,-0.416822222,1,0,0,2.69,Obsidian_rect,5,2.69,1,13,0,13,0,1,,,,,,,,,,,,,
5fadeb340e10471fdeb5fbf5,TCN,2024-06-20_13h27.34.640,LearnStrategy,2023.2.3,MacIntel,62.5,8,1,15,0.141825867,-0.015021006,1,0,0,0.68,rock_grid_rect_2,1,06,-1,-1,0.68,-0.086588542,-0.262282986,1,0,0,1.224,Basalt_rect,2,1.224,0,14,0,14,0,1,,,,,,,,,,,,,
5fadeb340e10471fdeb5fbf5,TCN,2024-06-20_13h27.34.640,LearnStrategy,2023.2.3,MacIntel,62.5,8,1,16,0.082150608,-0.001992925,1,0,0,0.883,rock_grid_rect_2,3,06,-1,-1,0.883,0.070569356,-0.264232551,1,0,0,0.811,Diorite_rect,3,0.811,1,15,0,15,0,1,,,,,,,,,,,,,
5fadeb340e10471fdeb5fbf5,TCN,2024-06-20_13h27.34.640,LearnStrategy,2023.2.3,MacIntel,62.5,8,2,1,,,,,,,,4,09,,,,,,,,,,,4,1.99,1,,,,,,0.339984809,-0.269708506,1,0,0,1.99,Gabbro_rect,0,0,0,0,1,
5fadeb340e10471fdeb5fbf5,TCN,2024-06-20_13h27.34.640,LearnStrategy,2023.2.3,MacIntel,62.5,8,2,2,,,,,,,,5,10,,,,,,,,,,,5,1.105,1,,,,,,-0.354322179,-0.415802256,1,0,0,1.105,Obsidian_rect,1,0,1,0,1,
5fadeb340e10471fdeb5fbf5,TCN,2024-06-20_13h27.34.640,LearnStrategy,2023.2.3,MacIntel,62.5,8,2,3,,,,,,,,4,13,,,,,,,,,,,1,1.279,0,,,,,,-0.337366147,-0.262109375,1,0,0,1.279,Andesite_rect,2,0,2,0,1,
5fadeb340e10471fdeb5fbf5,TCN,2024-06-20_13h27.34.640,LearnStrategy,2023.2.3,MacIntel,62.5,8,2,4,,,,,,,,6,13,,,,,,,,,,,6,1.624,1,,,,,,-0.098766581,-0.407960849,1,0,0,1.624,Pegmatite_rect,3,0,3,0,1,
5fadeb340e10471fdeb5fbf5,TCN,2024-06-20_13h27.34.640,LearnStrategy,2023.2.3,MacIntel,62.5,8,2,5,,,,,,,,6,12,,,,,,,,,,,7,1.39,0,,,,,,0.154785156,-0.406268141,1,0,0,1.39,Peridotite_rect,4,0,4,0,1,
5fadeb340e10471fdeb5fbf5,TCN,2024-06-20_13h27.34.640,LearnStrategy,2023.2.3,MacIntel,62.5,8,2,6,,,,,,,,3,15,,,,,,,,,,,6,1.04,0,,,,,,-0.084479862,-0.386512587,1,0,0,1.04,Pegmatite_rect,5,0,5,0,1,
5fadeb340e10471fdeb5fbf5,TCN,2024-06-20_13h27.34.640,LearnStrategy,2023.2.3,MacIntel,62.5,8,2,7,,,,,,,,1,14,,,,,,,,,,,3,0.99,0,,,,,,0.091713715,-0.256528558,1,0,0,0.99,Diorite_rect,6,0,6,0,1,
5fadeb340e10471fdeb5fbf5,TCN,2024-06-20_13h27.34.640,LearnStrategy,2023.2.3,MacIntel,62.5,8,2,8,,,,,,,,7,08,,,,,,,,,,,8,0.923,0,,,,,,0.332534027,-0.391619704,1,0,0,0.923,Pumice_rect,7,0,7,0,1,
5fadeb340e10471fdeb5fbf5,TCN,2024-06-20_13h27.34.640,LearnStrategy,2023.2.3,MacIntel,62.5,8,2,9,,,,,,,,2,14,,,,,,,,,,,1,1.594,0,,,,,,-0.336443837,-0.256778124,1,0,0,1.594,Andesite_rect,8,0,8,0,1,
5fadeb340e10471fdeb5fbf5,TCN,2024-06-20_13h27.34.640,LearnStrategy,2023.2.3,MacIntel,62.5,8,2,10,,,,,,,,5,16,,,,,,,,,,,5,0.924,1,,,,,,-0.357461633,-0.392169444,1,0,0,0.924,Obsidian_rect,9,0,9,0,1,
5fadeb340e10471fdeb5fbf5,TCN,2024-06-20_13h27.34.640,LearnStrategy,2023.2.3,MacIntel,62.5,8,2,11,,,,,,,,1,09,,,,,,,,,,,2,0.939,0,,,,,,-0.119563802,-0.246657986,1,0,0,0.939,Basalt_rect,10,0,10,0,1,
5fadeb340e10471fdeb5fbf5,TCN,2024-06-20_13h27.34.640,LearnStrategy,2023.2.3,MacIntel,62.5,8,2,12,,,,,,,,8,15,,,,,,,,,,,3,0.676,0,,,,,,0.114449565,-0.254893663,1,0,0,0.676,Diorite_rect,11,0,11,0,1,
5fadeb340e10471fdeb5fbf5,TCN,2024-06-20_13h27.34.640,LearnStrategy,2023.2.3,MacIntel,62.5,8,2,13,,,,,,,,8,10,,,,,,,,,,,7,1.293,0,,,,,,0.230696615,-0.393916406,1,0,0,1.293,Peridotite_rect,12,0,12,0,1,
5fadeb340e10471fdeb5fbf5,TCN,2024-06-20_13h27.34.640,LearnStrategy,2023.2.3,MacIntel,62.5,8,2,14,,,,,,,,3,09,,,,,,,,,,,6,0.543,0,,,,,,-0.098021528,-0.412141927,1,0,0,0.543,Pegmatite_rect,13,0,13,0,1,
5fadeb340e10471fdeb5fbf5,TCN,2024-06-20_13h27.34.640,LearnStrategy,2023.2.3,MacIntel,62.5,8,2,15,,,,,,,,2,10,,,,,,,,,,,2,1.224,1,,,,,,-0.072540453,-0.256665972,1,0,0,1.224,Basalt_rect,14,0,14,0,1,
5fadeb340e10471fdeb5fbf5,TCN,2024-06-20_13h27.34.640,LearnStrategy,2023.2.3,MacIntel,62.5,8,2,16,,,,,,,,7,07,,,,,,,,,,,4,1.193,0,,,,,,0.357888455,-0.254861111,1,0,0,1.193,Gabbro_rect,15,0,15,0,1,
5fadeb340e10471fdeb5fbf5,TCN,2024-06-20_13h27.34.640,LearnStrategy,2023.2.3,MacIntel,62.5,9,1,1,0.114764235,0.012058724,1,0,0,0.865,rock_grid_rect_2,6,03,-1,-1,0.865,0.108894009,-0.23116684,1,0,0,0.691,Diorite_rect,3,0.691,0,0,0,0,0,1,,,,,,,,,,,,,
5fadeb340e10471fdeb5fbf5,TCN,2024-06-20_13h27.34.640,LearnStrategy,2023.2.3,MacIntel,62.5,9,1,2,0.035224999,-0.014709939,1,0,0,0.896,rock_grid_rect_2,6,09,-1,-1,0.896,-0.06616389,-0.245836978,1,0,0,1.278,Basalt_rect,2,1.278,0,1,0,1,0,1,,,,,,,,,,,,,
5fadeb340e10471fdeb5fbf5,TCN,2024-06-20_13h27.34.640,LearnStrategy,2023.2.3,MacIntel,62.5,9,1,3,0.1048467,-0.005877474,1,0,0,0.948,rock_grid_rect_2,4,14,-1,-1,0.948,0.339829339,-0.254759894,1,0,0,0.791,Gabbro_rect,4,0.791,1,2,0,2,0,1,,,,,,,,,,,,,
5fadeb340e10471fdeb5fbf5,TCN,2024-06-20_13h27.34.640,LearnStrategy,2023.2.3,MacIntel,62.5,9,1,4,0.071028646,-0.014076996,1,0,0,0.93,rock_grid_rect_2,8,03,-1,-1,0.93,-0.076989237,-0.40390269,1,0,0,0.859,Pegmatite_rect,6,0.859,0,3,0,3,0,1,,,,,,,,,,,,,
5fadeb340e10471fdeb5fbf5,TCN,2024-06-20_13h27.34.640,LearnStrategy,2023.2.3,MacIntel,62.5,9,1,5,-0.018062761,-0.016087977,1,0,0,0.815,rock_grid_rect_2,1,16,-1,-1,0.815,-0.321976259,-0.232074653,1,0,0,1.127,Andesite_rect,1,1.127,1,4,0,4,0,1,,,,,,,,,,,,,
5fadeb340e10471fdeb5fbf5,TCN,2024-06-20_13h27.34.640,LearnStrategy,2023.2.3,MacIntel,62.5,9,1,6,0.056347656,-0.000513628,1,0,0,1.232,rock_grid_rect_2,5,07,-1,-1,1.232,-0.316145833,-0.390878211,1,0,0,0.991,Obsidian_rect,5,0.991,1,5,0,5,0,1,,,,,,,,,,,,,
5fadeb340e10471fdeb5fbf5,TCN,2024-06-20_13h27.34.640,LearnStrategy,2023.2.3,MacIntel,62.5,9,1,7,0.022938368,-0.002568012,1,0,0,0.766,rock_grid_rect_2,8,02,-1,-1,0.766,-0.093478733,-0.236498176,1,0,0,0.991,Basalt_rect,2,0.991,0,6,0,6,0,1,,,,,,,,,,,,,
5fadeb340e10471fdeb5fbf5,TCN,2024-06-20_13h27.34.640,LearnStrategy,2023.2.3,MacIntel,62.5,9,1,8,0.140686544,-0.011664497,1,0,0,0.716,rock_grid_rect_2,3,12,-1,-1,0.716,0.147699653,-0.262308333,1,0,0,0.424,Diorite_rect,3,0.424,1,7,0,7,0,1,,,,,,,,,,,,,
5fadeb340e10471fdeb5fbf5,TCN,2024-06-20_13h27.34.640,LearnStrategy,2023.2.3,MacIntel,62.5,9,1,9,0.001186371,-0.011613888,1,0,0,0.816,rock_grid_rect_2,1,01,-1,-1,0.816,-0.08186849,-0.267042881,1,0,0,0.591,Basalt_rect,2,0.591,0,8,0,8,0,1,,,,,,,,,,,,,
5fadeb340e10471fdeb5fbf5,TCN,2024-06-20_13h27.34.640,LearnStrategy,2023.2.3,MacIntel,62.5,9,1,10,0.077625868,0.002651172,1,0,0,0.965,rock_grid_rect_2,7,15,-1,-1,0.965,0.167433506,-0.40579071,1,0,0,0.806,Peridotite_rect,7,0.806,1,9,0,9,0,1,,,,,,,,,,,,,
5fadeb340e10471fdeb5fbf5,TCN,2024-06-20_13h27.34.640,LearnStrategy,2023.2.3,MacIntel,62.5,9,1,11,0.133315277,0.000477431,1,0,0,0.747,rock_grid_rect_2,2,11,-1,-1,0.747,0.400741492,-0.243272569,1,0,0,1.023,Gabbro_rect,4,1.023,0,10,0,10,0,1,,,,,,,,,,,,,
5fadeb340e10471fdeb5fbf5,TCN,2024-06-20_13h27.34.640,LearnStrategy,2023.2.3,MacIntel,62.5,9,1,12,0.133496094,-0.00649236,1,0,0,0.597,rock_grid_rect_2,4,01,-1,-1,0.597,0.138255988,-0.388020833,1,0,0,0.608,Peridotite_rect,7,0.608,0,11,0,11,0,1,,,,,,,,,,,,,
5fadeb340e10471fdeb5fbf5,TCN,2024-06-20_13h27.34.640,LearnStrategy,2023.2.3,MacIntel,62.5,9,1,13,0.035930294,0.003298611,1,0,0,0.748,rock_grid_rect_2,3,16,-1,-1,0.748,-0.364366319,-0.232288106,1,0,0,0.74,Andesite_rect,1,0.74,0,12,0,12,0,1,,,,,,,,,,,,,
5fadeb340e10471fdeb5fbf5,TCN,2024-06-20_13h27.34.640,LearnStrategy,2023.2.3,MacIntel,62.5,9,1,14,0.049953037,0.01344401,1,0,0,0.63,rock_grid_rect_2,2,16,-1,-1,0.63,-0.056452518,-0.25992118,1,0,0,0.891,Basalt_rect,2,0.891,1,13,0,13,0,1,,,,,,,,,,,,,
5fadeb340e10471fdeb5fbf5,TCN,2024-06-20_13h27.34.640,LearnStrategy,2023.2.3,MacIntel,62.5,9,1,15,0.082993401,-0.003696484,1,0,0,0.582,rock_grid_rect_2,7,02,-1,-1,0.582,0.109230381,-0.246574826,1,0,0,0.642,Diorite_rect,3,0.642,0,14,0,14,0,1,,,,,,,,,,,,,
5fadeb340e10471fdeb5fbf5,TCN,2024-06-20_13h27.34.640,LearnStrategy,2023.2.3,MacIntel,62.5,9,1,16,0.049504513,0.021733941,1,0,0,0.73,rock_grid_rect_2,5,11,-1,-1,0.73,-0.350654644,-0.400173611,1,0,0,0.924,Obsidian_rect,5,0.924,1,15,0,15,0,1,,,,,,,,,,,,,
5fadeb340e10471fdeb5fbf5,TCN,2024-06-20_13h27.34.640,LearnStrategy,2023.2.3,MacIntel,62.5,9,2,1,,,,,,,,6,10,,,,,,,,,,,3,1.305,0,,,,,,0.156846788,-0.239670139,1,0,0,1.305,Diorite_rect,0,0,0,0,1,
5fadeb340e10471fdeb5fbf5,TCN,2024-06-20_13h27.34.640,LearnStrategy,2023.2.3,MacIntel,62.5,9,2,2,,,,,,,,2,12,,,,,,,,,,,2,1.276,1,,,,,,-0.109107293,-0.247413974,1,0,0,1.276,Basalt_rect,1,0,1,0,1,
5fadeb340e10471fdeb5fbf5,TCN,2024-06-20_13h27.34.640,LearnStrategy,2023.2.3,MacIntel,62.5,9,2,3,,,,,,,,4,05,,,,,,,,,,,6,0.939,0,,,,,,-0.11922014,-0.409063975,1,0,0,0.939,Pegmatite_rect,2,0,2,0,1,
5fadeb340e10471fdeb5fbf5,TCN,2024-06-20_13h27.34.640,LearnStrategy,2023.2.3,MacIntel,62.5,9,2,4,,,,,,,,6,07,,,,,,,,,,,4,0.941,0,,,,,,0.442910936,-0.234573958,1,0,0,0.941,Gabbro_rect,3,0,3,0,1,
5fadeb340e10471fdeb5fbf5,TCN,2024-06-20_13h27.34.640,LearnStrategy,2023.2.3,MacIntel,62.5,9,2,5,,,,,,,,5,14,,,,,,,,,,,5,1.209,1,,,,,,-0.341221788,-0.397363281,1,0,0,1.209,Obsidian_rect,4,0,4,0,1,
5fadeb340e10471fdeb5fbf5,TCN,2024-06-20_13h27.34.640,LearnStrategy,2023.2.3,MacIntel,62.5,9,2,6,,,,,,,,7,14,,,,,,,,,,,7,1.108,1,,,,,,0.060673523,-0.40398585,1,0,0,1.108,Peridotite_rect,5,0,5,0,1,
5fadeb340e10471fdeb5fbf5,TCN,2024-06-20_13h27.34.640,LearnStrategy,2023.2.3,MacIntel,62.5,9,2,7,,,,,,,,8,14,,,,,,,,,,,1,1.159,0,,,,,,-0.343240017,-0.253649478,1,0,0,1.159,Andesite_rect,6,0,6,0,1,
5fadeb340e10471fdeb5fbf5,TCN,2024-06-20_13h27.34.640,LearnStrategy,2023.2.3,MacIntel,62.5,9,2,8,,,,,,,,5,08,,,,,,,,,,,5,1.176,1,,,,,,-0.337116581,-0.399417708,1,0,0,1.176,Obsidian_rect,7,0,7,0,1,
5fadeb340e10471fdeb5fbf5,TCN,2024-06-20_13h27.34.640,LearnStrategy,2023.2.3,MacIntel,62.5,9,2,9,,,,,,,,8,06,,,,,,,,,,,7,1.423,0,,,,,,0.126576996,-0.409870572,1,0,0,1.423,Peridotite_rect,8,0,8,0,1,
5fadeb340e10471fdeb5fbf5,TCN,2024-06-20_13h27.34.640,LearnStrategy,2023.2.3,MacIntel,62.5,9,2,10,,,,,,,,4,10,,,,,,,,,,,8,0.526,0,,,,,,0.308680556,-0.386997308,1,0,0,0.526,Pumice_rect,9,0,9,0,1,
5fadeb340e10471fdeb5fbf5,TCN,2024-06-20_13h27.34.640,LearnStrategy,2023.2.3,MacIntel,62.5,9,2,11,,,,,,,,2,09,,,,,,,,,,,2,0.777,1,,,,,,-0.104705556,-0.233894009,1,0,0,0.777,Basalt_rect,10,0,10,0,1,
5fadeb340e10471fdeb5fbf5,TCN,2024-06-20_13h27.34.640,LearnStrategy,2023.2.3,MacIntel,62.5,9,2,12,,,,,,,,1,03,,,,,,,,,,,4,0.691,0,,,,,,0.365726301,-0.233040365,1,0,0,0.691,Gabbro_rect,11,0,11,0,1,
5fadeb340e10471fdeb5fbf5,TCN,2024-06-20_13h27.34.640,LearnStrategy,2023.2.3,MacIntel,62.5,9,2,13,,,,,,,,3,08,,,,,,,,,,,3,0.99,1,,,,,,0.066344791,-0.248520745,1,0,0,0.99,Diorite_rect,12,0,12,0,1,
5fadeb340e10471fdeb5fbf5,TCN,2024-06-20_13h27.34.640,LearnStrategy,2023.2.3,MacIntel,62.5,9,2,14,,,,,,,,3,11,,,,,,,,,,,6,0.906,0,,,,,,-0.116786024,-0.400672743,1,0,0,0.906,Pegmatite_rect,13,0,13,0,1,
5fadeb340e10471fdeb5fbf5,TCN,2024-06-20_13h27.34.640,LearnStrategy,2023.2.3,MacIntel,62.5,9,2,15,,,,,,,,7,13,,,,,,,,,,,1,1.409,0,,,,,,-0.374511719,-0.245551215,1,0,0,1.409,Andesite_rect,14,0,14,0,1,
5fadeb340e10471fdeb5fbf5,TCN,2024-06-20_13h27.34.640,LearnStrategy,2023.2.3,MacIntel,62.5,9,2,16,,,,,,,,1,05,,,,,,,,,,,8,1.926,0,,,,,,0.369806163,-0.403674825,1,0,0,1.926,Pumice_rect,15,0,15,0,1,
5fadeb340e10471fdeb5fbf5,TCN,2024-06-20_13h27.34.640,LearnStrategy,2023.2.3,MacIntel,62.5,,,,,,,,,,,,,,,,,,,,,,,,,,,,,,,,,,,,,,,,,,,0
5fadeb340e10471fdeb5fbf5,TCN,2024-06-20_13h27.34.640,LearnStrategy,2023.2.3,MacIntel,62.5,,,,,,,,,,,,,,,,,,,,,,,,,,,,,,,,,,,,,,,,,,,
5fadeb340e10471fdeb5fbf5,TCN,2024-06-20_13h27.34.640,LearnStrategy,2023.2.3,MacIntel,62.5,,,,,,,,,,,4,11,1,1,,,,,,,,,,,,,,,,,,,,,,,,,,,,,
5fadeb340e10471fdeb5fbf5,TCN,2024-06-20_13h27.34.640,LearnStrategy,2023.2.3,MacIntel,62.5,,,,,,,,,,,5,09,1,2,,,,,,,,,,,,,,,,,,,,,,,,,,,,,
5fadeb340e10471fdeb5fbf5,TCN,2024-06-20_13h27.34.640,LearnStrategy,2023.2.3,MacIntel,62.5,,,,,,,,,,,6,06,1,3,,,,,,,,,,,,,,,,,,,,,,,,,,,,,
5fadeb340e10471fdeb5fbf5,TCN,2024-06-20_13h27.34.640,LearnStrategy,2023.2.3,MacIntel,62.5,,,,,,,,,,,5,06,1,4,,,,,,,,,,,,,,,,,,,,,,,,,,,,,
5fadeb340e10471fdeb5fbf5,TCN,2024-06-20_13h27.34.640,LearnStrategy,2023.2.3,MacIntel,62.5,,,,,,,,,,,7,10,1,5,,,,,,,,,,,,,,,,,,,,,,,,,,,,,
5fadeb340e10471fdeb5fbf5,TCN,2024-06-20_13h27.34.640,LearnStrategy,2023.2.3,MacIntel,62.5,,,,,,,,,,,2,06,1,6,,,,,,,,,,,,,,,,,,,,,,,,,,,,,
5fadeb340e10471fdeb5fbf5,TCN,2024-06-20_13h27.34.640,LearnStrategy,2023.2.3,MacIntel,62.5,,,,,,,,,,,6,11,1,7,,,,,,,,,,,,,,,,,,,,,,,,,,,,,
5fadeb340e10471fdeb5fbf5,TCN,2024-06-20_13h27.34.640,LearnStrategy,2023.2.3,MacIntel,62.5,,,,,,,,,,,7,02,1,8,,,,,,,,,,,,,,,,,,,,,,,,,,,,,
5fadeb340e10471fdeb5fbf5,TCN,2024-06-20_13h27.34.640,LearnStrategy,2023.2.3,MacIntel,62.5,,,,,,,,,,,4,16,2,1,,,,,,,,,,,,,,,,,,,,,,,,,,,,,
5fadeb340e10471fdeb5fbf5,TCN,2024-06-20_13h27.34.640,LearnStrategy,2023.2.3,MacIntel,62.5,,,,,,,,,,,8,04,2,2,,,,,,,,,,,,,,,,,,,,,,,,,,,,,
5fadeb340e10471fdeb5fbf5,TCN,2024-06-20_13h27.34.640,LearnStrategy,2023.2.3,MacIntel,62.5,,,,,,,,,,,7,05,2,3,,,,,,,,,,,,,,,,,,,,,,,,,,,,,
5fadeb340e10471fdeb5fbf5,TCN,2024-06-20_13h27.34.640,LearnStrategy,2023.2.3,MacIntel,62.5,,,,,,,,,,,6,03,2,4,,,,,,,,,,,,,,,,,,,,,,,,,,,,,
5fadeb340e10471fdeb5fbf5,TCN,2024-06-20_13h27.34.640,LearnStrategy,2023.2.3,MacIntel,62.5,,,,,,,,,,,5,04,2,5,,,,,,,,,,,,,,,,,,,,,,,,,,,,,
5fadeb340e10471fdeb5fbf5,TCN,2024-06-20_13h27.34.640,LearnStrategy,2023.2.3,MacIntel,62.5,,,,,,,,,,,3,02,2,6,,,,,,,,,,,,,,,,,,,,,,,,,,,,,
5fadeb340e10471fdeb5fbf5,TCN,2024-06-20_13h27.34.640,LearnStrategy,2023.2.3,MacIntel,62.5,,,,,,,,,,,7,04,2,7,,,,,,,,,,,,,,,,,,,,,,,,,,,,,
5fadeb340e10471fdeb5fbf5,TCN,2024-06-20_13h27.34.640,LearnStrategy,2023.2.3,MacIntel,62.5,,,,,,,,,,,2,04,2,8,,,,,,,,,,,,,,,,,,,,,,,,,,,,,
5fadeb340e10471fdeb5fbf5,TCN,2024-06-20_13h27.34.640,LearnStrategy,2023.2.3,MacIntel,62.5,,,,,,,,,,,8,08,3,1,,,,,,,,,,,,,,,,,,,,,,,,,,,,,
5fadeb340e10471fdeb5fbf5,TCN,2024-06-20_13h27.34.640,LearnStrategy,2023.2.3,MacIntel,62.5,,,,,,,,,,,4,08,3,2,,,,,,,,,,,,,,,,,,,,,,,,,,,,,
5fadeb340e10471fdeb5fbf5,TCN,2024-06-20_13h27.34.640,LearnStrategy,2023.2.3,MacIntel,62.5,,,,,,,,,,,7,12,3,3,,,,,,,,,,,,,,,,,,,,,,,,,,,,,
5fadeb340e10471fdeb5fbf5,TCN,2024-06-20_13h27.34.640,LearnStrategy,2023.2.3,MacIntel,62.5,,,,,,,,,,,5,11,3,4,,,,,,,,,,,,,,,,,,,,,,,,,,,,,
5fadeb340e10471fdeb5fbf5,TCN,2024-06-20_13h27.34.640,LearnStrategy,2023.2.3,MacIntel,62.5,,,,,,,,,,,8,02,3,5,,,,,,,,,,,,,,,,,,,,,,,,,,,,,
5fadeb340e10471fdeb5fbf5,TCN,2024-06-20_13h27.34.640,LearnStrategy,2023.2.3,MacIntel,62.5,,,,,,,,,,,4,03,3,6,,,,,,,,,,,,,,,,,,,,,,,,,,,,,
5fadeb340e10471fdeb5fbf5,TCN,2024-06-20_13h27.34.640,LearnStrategy,2023.2.3,MacIntel,62.5,,,,,,,,,,,1,10,3,7,,,,,,,,,,,,,,,,,,,,,,,,,,,,,
5fadeb340e10471fdeb5fbf5,TCN,2024-06-20_13h27.34.640,LearnStrategy,2023.2.3,MacIntel,62.5,,,,,,,,,,,3,16,3,8,,,,,,,,,,,,,,,,,,,,,,,,,,,,,
5fadeb340e10471fdeb5fbf5,TCN,2024-06-20_13h27.34.640,LearnStrategy,2023.2.3,MacIntel,62.5,,,,,,,,,,,5,05,4,1,,,,,,,,,,,,,,,,,,,,,,,,,,,,,
5fadeb340e10471fdeb5fbf5,TCN,2024-06-20_13h27.34.640,LearnStrategy,2023.2.3,MacIntel,62.5,,,,,,,,,,,6,09,4,2,,,,,,,,,,,,,,,,,,,,,,,,,,,,,
5fadeb340e10471fdeb5fbf5,TCN,2024-06-20_13h27.34.640,LearnStrategy,2023.2.3,MacIntel,62.5,,,,,,,,,,,1,07,4,3,,,,,,,,,,,,,,,,,,,,,,,,,,,,,
5fadeb340e10471fdeb5fbf5,TCN,2024-06-20_13h27.34.640,LearnStrategy,2023.2.3,MacIntel,62.5,,,,,,,,,,,2,05,4,4,,,,,,,,,,,,,,,,,,,,,,,,,,,,,
5fadeb340e10471fdeb5fbf5,TCN,2024-06-20_13h27.34.640,LearnStrategy,2023.2.3,MacIntel,62.5,,,,,,,,,,,1,01,4,5,,,,,,,,,,,,,,,,,,,,,,,,,,,,,
5fadeb340e10471fdeb5fbf5,TCN,2024-06-20_13h27.34.640,LearnStrategy,2023.2.3,MacIntel,62.5,,,,,,,,,,,4,14,4,6,,,,,,,,,,,,,,,,,,,,,,,,,,,,,
5fadeb340e10471fdeb5fbf5,TCN,2024-06-20_13h27.34.640,LearnStrategy,2023.2.3,MacIntel,62.5,,,,,,,,,,,3,12,4,7,,,,,,,,,,,,,,,,,,,,,,,,,,,,,
5fadeb340e10471fdeb5fbf5,TCN,2024-06-20_13h27.34.640,LearnStrategy,2023.2.3,MacIntel,62.5,,,,,,,,,,,3,06,4,8,,,,,,,,,,,,,,,,,,,,,,,,,,,,,
5fadeb340e10471fdeb5fbf5,TCN,2024-06-20_13h27.34.640,LearnStrategy,2023.2.3,MacIntel,62.5,,,,,,,,,,,1,16,5,1,,,,,,,,,,,,,,,,,,,,,,,,,,,,,
5fadeb340e10471fdeb5fbf5,TCN,2024-06-20_13h27.34.640,LearnStrategy,2023.2.3,MacIntel,62.5,,,,,,,,,,,3,13,5,2,,,,,,,,,,,,,,,,,,,,,,,,,,,,,
5fadeb340e10471fdeb5fbf5,TCN,2024-06-20_13h27.34.640,LearnStrategy,2023.2.3,MacIntel,62.5,,,,,,,,,,,8,13,5,3,,,,,,,,,,,,,,,,,,,,,,,,,,,,,
5fadeb340e10471fdeb5fbf5,TCN,2024-06-20_13h27.34.640,LearnStrategy,2023.2.3,MacIntel,62.5,,,,,,,,,,,5,07,5,4,,,,,,,,,,,,,,,,,,,,,,,,,,,,,
5fadeb340e10471fdeb5fbf5,TCN,2024-06-20_13h27.34.640,LearnStrategy,2023.2.3,MacIntel,62.5,,,,,,,,,,,8,03,5,5,,,,,,,,,,,,,,,,,,,,,,,,,,,,,
5fadeb340e10471fdeb5fbf5,TCN,2024-06-20_13h27.34.640,LearnStrategy,2023.2.3,MacIntel,62.5,,,,,,,,,,,1,11,5,6,,,,,,,,,,,,,,,,,,,,,,,,,,,,,
5fadeb340e10471fdeb5fbf5,TCN,2024-06-20_13h27.34.640,LearnStrategy,2023.2.3,MacIntel,62.5,,,,,,,,,,,3,07,5,7,,,,,,,,,,,,,,,,,,,,,,,,,,,,,
5fadeb340e10471fdeb5fbf5,TCN,2024-06-20_13h27.34.640,LearnStrategy,2023.2.3,MacIntel,62.5,,,,,,,,,,,4,01,5,8,,,,,,,,,,,,,,,,,,,,,,,,,,,,,
5fadeb340e10471fdeb5fbf5,TCN,2024-06-20_13h27.34.640,LearnStrategy,2023.2.3,MacIntel,62.5,,,,,,,,,,,7,15,6,1,,,,,,,,,,,,,,,,,,,,,,,,,,,,,
5fadeb340e10471fdeb5fbf5,TCN,2024-06-20_13h27.34.640,LearnStrategy,2023.2.3,MacIntel,62.5,,,,,,,,,,,6,08,6,2,,,,,,,,,,,,,,,,,,,,,,,,,,,,,
5fadeb340e10471fdeb5fbf5,TCN,2024-06-20_13h27.34.640,LearnStrategy,2023.2.3,MacIntel,62.5,,,,,,,,,,,8,05,6,3,,,,,,,,,,,,,,,,,,,,,,,,,,,,,
5fadeb340e10471fdeb5fbf5,TCN,2024-06-20_13h27.34.640,LearnStrategy,2023.2.3,MacIntel,62.5,,,,,,,,,,,1,06,6,4,,,,,,,,,,,,,,,,,,,,,,,,,,,,,
5fadeb340e10471fdeb5fbf5,TCN,2024-06-20_13h27.34.640,LearnStrategy,2023.2.3,MacIntel,62.5,,,,,,,,,,,2,16,6,5,,,,,,,,,,,,,,,,,,,,,,,,,,,,,
5fadeb340e10471fdeb5fbf5,TCN,2024-06-20_13h27.34.640,LearnStrategy,2023.2.3,MacIntel,62.5,,,,,,,,,,,6,16,6,6,,,,,,,,,,,,,,,,,,,,,,,,,,,,,
5fadeb340e10471fdeb5fbf5,TCN,2024-06-20_13h27.34.640,LearnStrategy,2023.2.3,MacIntel,62.5,,,,,,,,,,,2,02,6,7,,,,,,,,,,,,,,,,,,,,,,,,,,,,,
5fadeb340e10471fdeb5fbf5,TCN,2024-06-20_13h27.34.640,LearnStrategy,2023.2.3,MacIntel,62.5,,,,,,,,,,,2,11,6,8,,,,,,,,,,,,,,,,,,,,,,,,,,,,,