participant,condition,date,expName,psychopyVersion,OS,frameRate,block,phase,trial,learn_mouse_2.x,learn_mouse_2.y,learn_mouse_2.leftButton,learn_mouse_2.midButton,learn_mouse_2.rightButton,learn_mouse_2.time,learn_mouse_2.clicked_name,cat,token,row,col,t_select,cat_mouse_l.x,cat_mouse_l.y,cat_mouse_l.leftButton,cat_mouse_l.midButton,cat_mouse_l.rightButton,cat_mouse_l.time,cat_mouse_l.clicked_name,resp,t_resp,corr,train_trials.thisRepN,train_trials.thisTrialN,train_trials.thisN,train_trials.thisIndex,train_trials.ran,cat_mouse_t.x,cat_mouse_t.y,cat_mouse_t.leftButton,cat_mouse_t.midButton,cat_mouse_t.rightButton,cat_mouse_t.time,cat_mouse_t.clicked_name,test_trials.thisRepN,test_trials.thisTrialN,test_trials.thisN,test_trials.thisIndex,test_trials.ran,Bonus
5fb7dd473afbb1033b491811,TCN,2024-06-24_17h57.56.921,LearnStrategy,2023.2.3,Win32,59.52380952,,,,,,,,,,,,,,,,,,,,,,,,,,,,,,,,,,,,,,,,,,,
5fb7dd473afbb1033b491811,TCN,2024-06-24_17h57.56.921,LearnStrategy,2023.2.3,Win32,59.52380952,1,1,1,0.04537037,-0.00462963,1,0,0,4.3948,rock_grid_rect_2,6,06,-1,-1,4.395,-0.142592593,-0.390740741,1,0,0,6.2497,Pegmatite_rect,6,6.25,1,0,0,0,0,1,,,,,,,,,,,,,
5fb7dd473afbb1033b491811,TCN,2024-06-24_17h57.56.921,LearnStrategy,2023.2.3,Win32,59.52380952,1,1,2,0.007407407,0.006481481,1,0,0,1.5355,rock_grid_rect_2,3,13,-1,-1,1.535,0.34537037,-0.4,1,0,0,5.3372,Pumice_rect,8,5.337,0,1,0,1,0,1,,,,,,,,,,,,,
5fb7dd473afbb1033b491811,TCN,2024-06-24_17h57.56.921,LearnStrategy,2023.2.3,Win32,59.52380952,1,1,3,0.086111111,-0.012037037,1,0,0,1.154,rock_grid_rect_2,1,06,-1,-1,1.154,-0.121296296,-0.242592593,1,0,0,4.0848,Basalt_rect,2,4.085,0,2,0,2,0,1,,,,,,,,,,,,,
5fb7dd473afbb1033b491811,TCN,2024-06-24_17h57.56.921,LearnStrategy,2023.2.3,Win32,59.52380952,1,1,4,-0.014814815,-0.011111111,1,0,0,1.0962,rock_grid_rect_2,5,05,-1,-1,1.096,-0.334259259,-0.392592593,1,0,0,2.0302,Obsidian_rect,5,2.03,1,3,0,3,0,1,,,,,,,,,,,,,
5fb7dd473afbb1033b491811,TCN,2024-06-24_17h57.56.921,LearnStrategy,2023.2.3,Win32,59.52380952,1,1,5,0.041666667,-0.007407407,1,0,0,1.5812,rock_grid_rect_2,8,14,-1,-1,1.581,-0.119444444,-0.240740741,1,0,0,4.1833,Basalt_rect,2,4.183,0,4,0,4,0,1,,,,,,,,,,,,,
5fb7dd473afbb1033b491811,TCN,2024-06-24_17h57.56.921,LearnStrategy,2023.2.3,Win32,59.52380952,1,1,6,0.005555556,0.00462963,1,0,0,1.2171,rock_grid_rect_2,6,03,-1,-1,1.217,0.085185185,-0.269444444,1,0,0,3.9505,Diorite_rect,3,3.951,0,5,0,5,0,1,,,,,,,,,,,,,
5fb7dd473afbb1033b491811,TCN,2024-06-24_17h57.56.921,LearnStrategy,2023.2.3,Win32,59.52380952,1,1,7,0.048148148,-0.011111111,1,0,0,1.2972,rock_grid_rect_2,5,11,-1,-1,1.297,-0.338888889,-0.390740741,1,0,0,3.0934,Obsidian_rect,5,3.093,1,6,0,6,0,1,,,,,,,,,,,,,
5fb7dd473afbb1033b491811,TCN,2024-06-24_17h57.56.921,LearnStrategy,2023.2.3,Win32,59.52380952,1,1,8,0.037037037,-0.011111111,1,0,0,1.2362,rock_grid_rect_2,7,02,-1,-1,1.236,-0.127777778,-0.381481481,1,0,0,2.7493,Pegmatite_rect,6,2.749,0,7,0,7,0,1,,,,,,,,,,,,,
5fb7dd473afbb1033b491811,TCN,2024-06-24_17h57.56.921,LearnStrategy,2023.2.3,Win32,59.52380952,1,1,9,-0.012037037,-0.007407407,1,0,0,1.0368,rock_grid_rect_2,8,05,-1,-1,1.037,0.365740741,-0.271296296,1,0,0,2.1277,Gabbro_rect,4,2.128,0,8,0,8,0,1,,,,,,,,,,,,,
5fb7dd473afbb1033b491811,TCN,2024-06-24_17h57.56.921,LearnStrategy,2023.2.3,Win32,59.52380952,1,1,10,0.059259259,-0.00462963,1,0,0,1.4152,rock_grid_rect_2,2,06,-1,-1,1.415,0.352777778,-0.238888889,1,0,0,3.5806,Gabbro_rect,4,3.581,0,9,0,9,0,1,,,,,,,,,,,,,
5fb7dd473afbb1033b491811,TCN,2024-06-24_17h57.56.921,LearnStrategy,2023.2.3,Win32,59.52380952,1,1,11,0.115740741,-0.013888889,1,0,0,1.8387,rock_grid_rect_2,1,05,-1,-1,1.839,0.377777778,-0.25,1,0,0,3.9529,Gabbro_rect,4,3.953,0,10,0,10,0,1,,,,,,,,,,,,,
5fb7dd473afbb1033b491811,TCN,2024-06-24_17h57.56.921,LearnStrategy,2023.2.3,Win32,59.52380952,1,1,12,0.085185185,-0.006481481,1,0,0,0.8932,rock_grid_rect_2,4,03,-1,-1,0.893,-0.357407407,-0.238888889,1,0,0,4.1602,Andesite_rect,1,4.16,0,11,0,11,0,1,,,,,,,,,,,,,
5fb7dd473afbb1033b491811,TCN,2024-06-24_17h57.56.921,LearnStrategy,2023.2.3,Win32,59.52380952,1,1,13,-0.008333333,-0.012037037,1,0,0,1.1126,rock_grid_rect_2,2,01,-1,-1,1.113,-0.133333333,-0.239814815,1,0,0,2.1529,Basalt_rect,2,2.153,1,12,0,12,0,1,,,,,,,,,,,,,
5fb7dd473afbb1033b491811,TCN,2024-06-24_17h57.56.921,LearnStrategy,2023.2.3,Win32,59.52380952,1,1,14,0.047222222,0.000925926,1,0,0,1.0114,rock_grid_rect_2,4,05,-1,-1,1.011,0.085185185,-0.386111111,1,0,0,6.0263,Peridotite_rect,7,6.026,0,13,0,13,0,1,,,,,,,,,,,,,
5fb7dd473afbb1033b491811,TCN,2024-06-24_17h57.56.921,LearnStrategy,2023.2.3,Win32,59.52380952,1,1,15,0.016666667,0.007407407,1,0,0,1.0421,rock_grid_rect_2,7,15,-1,-1,1.042,0.076851852,-0.382407407,1,0,0,4.5305,Peridotite_rect,7,4.53,1,14,0,14,0,1,,,,,,,,,,,,,
5fb7dd473afbb1033b491811,TCN,2024-06-24_17h57.56.921,LearnStrategy,2023.2.3,Win32,59.52380952,1,1,16,0.080555556,-0.003703704,1,0,0,1.4458,rock_grid_rect_2,3,11,-1,-1,1.446,0.108333333,-0.247222222,1,0,0,5.8367,Diorite_rect,3,5.837,1,15,0,15,0,1,,,,,,,,,,,,,
5fb7dd473afbb1033b491811,TCN,2024-06-24_17h57.56.921,LearnStrategy,2023.2.3,Win32,59.52380952,1,2,1,,,,,,,,4,14,,,,,,,,,,,1,8.324,0,,,,,,-0.357407407,-0.236111111,1,0,0,8.3239,Andesite_rect,0,0,0,0,1,
5fb7dd473afbb1033b491811,TCN,2024-06-24_17h57.56.921,LearnStrategy,2023.2.3,Win32,59.52380952,1,2,2,,,,,,,,5,06,,,,,,,,,,,5,4.256,1,,,,,,-0.367592593,-0.399074074,1,0,0,4.2557,Obsidian_rect,1,0,1,0,1,
5fb7dd473afbb1033b491811,TCN,2024-06-24_17h57.56.921,LearnStrategy,2023.2.3,Win32,59.52380952,1,2,3,,,,,,,,1,16,,,,,,,,,,,6,4.052,0,,,,,,-0.139814815,-0.405555556,1,0,0,4.0517,Pegmatite_rect,2,0,2,0,1,
5fb7dd473afbb1033b491811,TCN,2024-06-24_17h57.56.921,LearnStrategy,2023.2.3,Win32,59.52380952,1,2,4,,,,,,,,7,14,,,,,,,,,,,7,3.333,1,,,,,,0.124074074,-0.410185185,1,0,0,3.3328,Peridotite_rect,3,0,3,0,1,
5fb7dd473afbb1033b491811,TCN,2024-06-24_17h57.56.921,LearnStrategy,2023.2.3,Win32,59.52380952,1,2,5,,,,,,,,6,07,,,,,,,,,,,6,9.302,1,,,,,,-0.187037037,-0.40462963,1,0,0,9.3018,Pegmatite_rect,4,0,4,0,1,
5fb7dd473afbb1033b491811,TCN,2024-06-24_17h57.56.921,LearnStrategy,2023.2.3,Win32,59.52380952,1,2,6,,,,,,,,1,01,,,,,,,,,,,2,5.2,0,,,,,,-0.09537037,-0.262037037,1,0,0,5.2003,Basalt_rect,5,0,5,0,1,
5fb7dd473afbb1033b491811,TCN,2024-06-24_17h57.56.921,LearnStrategy,2023.2.3,Win32,59.52380952,1,2,7,,,,,,,,8,03,,,,,,,,,,,8,2.31,1,,,,,,0.365740741,-0.414814815,1,0,0,2.3104,Pumice_rect,6,0,6,0,1,
5fb7dd473afbb1033b491811,TCN,2024-06-24_17h57.56.921,LearnStrategy,2023.2.3,Win32,59.52380952,1,2,8,,,,,,,,8,16,,,,,,,,,,,8,2.293,1,,,,,,0.359259259,-0.412962963,1,0,0,2.2931,Pumice_rect,7,0,7,0,1,
5fb7dd473afbb1033b491811,TCN,2024-06-24_17h57.56.921,LearnStrategy,2023.2.3,Win32,59.52380952,1,2,9,,,,,,,,2,12,,,,,,,,,,,2,4.327,1,,,,,,-0.088888889,-0.247222222,1,0,0,4.3272,Basalt_rect,8,0,8,0,1,
5fb7dd473afbb1033b491811,TCN,2024-06-24_17h57.56.921,LearnStrategy,2023.2.3,Win32,59.52380952,1,2,10,,,,,,,,4,01,,,,,,,,,,,3,8.62,0,,,,,,0.111111111,-0.257407407,1,0,0,8.6203,Diorite_rect,9,0,9,0,1,
5fb7dd473afbb1033b491811,TCN,2024-06-24_17h57.56.921,LearnStrategy,2023.2.3,Win32,59.52380952,1,2,11,,,,,,,,7,04,,,,,,,,,,,6,7.939,0,,,,,,-0.126851852,-0.388888889,1,0,0,7.9388,Pegmatite_rect,10,0,10,0,1,
5fb7dd473afbb1033b491811,TCN,2024-06-24_17h57.56.921,LearnStrategy,2023.2.3,Win32,59.52380952,1,2,12,,,,,,,,5,08,,,,,,,,,,,5,1.775,1,,,,,,-0.361111111,-0.390740741,1,0,0,1.7748,Obsidian_rect,11,0,11,0,1,
5fb7dd473afbb1033b491811,TCN,2024-06-24_17h57.56.921,LearnStrategy,2023.2.3,Win32,59.52380952,1,2,13,,,,,,,,3,15,,,,,,,,,,,3,2.273,1,,,,,,0.093518519,-0.25,1,0,0,2.2733,Diorite_rect,12,0,12,0,1,
5fb7dd473afbb1033b491811,TCN,2024-06-24_17h57.56.921,LearnStrategy,2023.2.3,Win32,59.52380952,1,2,14,,,,,,,,2,02,,,,,,,,,,,2,1.487,1,,,,,,-0.09537037,-0.243518519,1,0,0,1.4875,Basalt_rect,13,0,13,0,1,
5fb7dd473afbb1033b491811,TCN,2024-06-24_17h57.56.921,LearnStrategy,2023.2.3,Win32,59.52380952,1,2,15,,,,,,,,6,15,,,,,,,,,,,1,5.795,0,,,,,,-0.340740741,-0.246296296,1,0,0,5.7952,Andesite_rect,14,0,14,0,1,
5fb7dd473afbb1033b491811,TCN,2024-06-24_17h57.56.921,LearnStrategy,2023.2.3,Win32,59.52380952,1,2,16,,,,,,,,3,12,,,,,,,,,,,3,2.769,1,,,,,,0.094444444,-0.269444444,1,0,0,2.7687,Diorite_rect,15,0,15,0,1,
5fb7dd473afbb1033b491811,TCN,2024-06-24_17h57.56.921,LearnStrategy,2023.2.3,Win32,59.52380952,2,1,1,0.04537037,-0.007407407,1,0,0,1.3146,rock_grid_rect_2,7,05,-1,-1,1.315,0.106481481,-0.407407407,1,0,0,5.7727,Peridotite_rect,7,5.773,1,0,0,0,0,1,,,,,,,,,,,,,
5fb7dd473afbb1033b491811,TCN,2024-06-24_17h57.56.921,LearnStrategy,2023.2.3,Win32,59.52380952,2,1,2,0.125,0.011111111,1,0,0,1.3018,rock_grid_rect_2,8,15,-1,-1,1.302,0.352777778,-0.403703704,1,0,0,1.6564,Pumice_rect,8,1.656,1,1,0,1,0,1,,,,,,,,,,,,,
5fb7dd473afbb1033b491811,TCN,2024-06-24_17h57.56.921,LearnStrategy,2023.2.3,Win32,59.52380952,2,1,3,0.066666667,-0.000925926,1,0,0,1.2232,rock_grid_rect_2,1,03,-1,-1,1.223,-0.091666667,-0.239814815,1,0,0,3.5636,Basalt_rect,2,3.564,0,2,0,2,0,1,,,,,,,,,,,,,
5fb7dd473afbb1033b491811,TCN,2024-06-24_17h57.56.921,LearnStrategy,2023.2.3,Win32,59.52380952,2,1,4,-0.023148148,-0.006481481,1,0,0,1.3219,rock_grid_rect_2,5,04,-1,-1,1.322,-0.40462963,-0.392592593,1,0,0,1.4372,Obsidian_rect,5,1.437,1,3,0,3,0,1,,,,,,,,,,,,,
5fb7dd473afbb1033b491811,TCN,2024-06-24_17h57.56.921,LearnStrategy,2023.2.3,Win32,59.52380952,2,1,5,0,-0.012037037,1,0,0,1.4451,rock_grid_rect_2,6,05,-1,-1,1.445,-0.166666667,-0.406481481,1,0,0,4.078,Pegmatite_rect,6,4.078,1,4,0,4,0,1,,,,,,,,,,,,,
5fb7dd473afbb1033b491811,TCN,2024-06-24_17h57.56.921,LearnStrategy,2023.2.3,Win32,59.52380952,2,1,6,0.018518519,-0.001851852,1,0,0,1.3604,rock_grid_rect_2,1,09,-1,-1,1.36,-0.127777778,-0.242592593,1,0,0,5.3896,Basalt_rect,2,5.39,0,5,0,5,0,1,,,,,,,,,,,,,
5fb7dd473afbb1033b491811,TCN,2024-06-24_17h57.56.921,LearnStrategy,2023.2.3,Win32,59.52380952,2,1,7,-0.032407407,0.001851852,1,0,0,1.551,rock_grid_rect_2,2,14,-1,-1,1.551,0.374074074,-0.4,1,0,0,2.2706,Pumice_rect,8,2.271,0,6,0,6,0,1,,,,,,,,,,,,,
5fb7dd473afbb1033b491811,TCN,2024-06-24_17h57.56.921,LearnStrategy,2023.2.3,Win32,59.52380952,2,1,8,0.026851852,0.00462963,1,0,0,1.0947,rock_grid_rect_2,7,07,-1,-1,1.095,0.127777778,-0.417592593,1,0,0,2.115,Peridotite_rect,7,2.115,1,7,0,7,0,1,,,,,,,,,,,,,
5fb7dd473afbb1033b491811,TCN,2024-06-24_17h57.56.921,LearnStrategy,2023.2.3,Win32,59.52380952,2,1,9,0.075925926,0,1,0,0,1.3025,rock_grid_rect_2,4,11,-1,-1,1.303,-0.360185185,-0.238888889,1,0,0,5.6709,Andesite_rect,1,5.671,0,8,0,8,0,1,,,,,,,,,,,,,
5fb7dd473afbb1033b491811,TCN,2024-06-24_17h57.56.921,LearnStrategy,2023.2.3,Win32,59.52380952,2,1,10,0.00462963,-0.00462963,1,0,0,1.2459,rock_grid_rect_2,3,16,-1,-1,1.246,-0.105555556,-0.397222222,1,0,0,2.9939,Pegmatite_rect,6,2.994,0,9,0,9,0,1,,,,,,,,,,,,,
5fb7dd473afbb1033b491811,TCN,2024-06-24_17h57.56.921,LearnStrategy,2023.2.3,Win32,59.52380952,2,1,11,-0.003703704,-0.002777778,1,0,0,1.1446,rock_grid_rect_2,6,08,-1,-1,1.145,-0.347222222,-0.394444444,1,0,0,1.7227,Obsidian_rect,5,1.723,0,10,0,10,0,1,,,,,,,,,,,,,
5fb7dd473afbb1033b491811,TCN,2024-06-24_17h57.56.921,LearnStrategy,2023.2.3,Win32,59.52380952,2,1,12,0.019444444,-0.002777778,1,0,0,1.1567,rock_grid_rect_2,8,09,-1,-1,1.157,0.325,-0.394444444,1,0,0,4.9761,Pumice_rect,8,4.976,1,11,0,11,0,1,,,,,,,,,,,,,
5fb7dd473afbb1033b491811,TCN,2024-06-24_17h57.56.921,LearnStrategy,2023.2.3,Win32,59.52380952,2,1,13,-0.000925926,0.002777778,1,0,0,0.9648,rock_grid_rect_2,3,09,-1,-1,0.965,-0.342592593,-0.247222222,1,0,0,6.5373,Andesite_rect,1,6.537,0,12,0,12,0,1,,,,,,,,,,,,,
5fb7dd473afbb1033b491811,TCN,2024-06-24_17h57.56.921,LearnStrategy,2023.2.3,Win32,59.52380952,2,1,14,-0.010185185,-0.009259259,1,0,0,0.8737,rock_grid_rect_2,4,15,-1,-1,0.874,0.353703704,-0.243518519,1,0,0,5.112,Gabbro_rect,4,5.112,1,13,0,13,0,1,,,,,,,,,,,,,
5fb7dd473afbb1033b491811,TCN,2024-06-24_17h57.56.921,LearnStrategy,2023.2.3,Win32,59.52380952,2,1,15,0.025925926,0.012037037,1,0,0,1.1657,rock_grid_rect_2,5,16,-1,-1,1.166,-0.396296296,-0.417592593,1,0,0,1.3609,Obsidian_rect,5,1.361,1,14,0,14,0,1,,,,,,,,,,,,,
5fb7dd473afbb1033b491811,TCN,2024-06-24_17h57.56.921,LearnStrategy,2023.2.3,Win32,59.52380952,2,1,16,0.059259259,-0.000925926,1,0,0,1.0399,rock_grid_rect_2,2,05,-1,-1,1.04,-0.157407407,-0.243518519,1,0,0,1.633,Basalt_rect,2,1.633,1,15,0,15,0,1,,,,,,,,,,,,,
5fb7dd473afbb1033b491811,TCN,2024-06-24_17h57.56.921,LearnStrategy,2023.2.3,Win32,59.52380952,2,2,1,,,,,,,,8,13,,,,,,,,,,,8,1.976,1,,,,,,0.408333333,-0.400925926,1,0,0,1.9755,Pumice_rect,0,0,0,0,1,
5fb7dd473afbb1033b491811,TCN,2024-06-24_17h57.56.921,LearnStrategy,2023.2.3,Win32,59.52380952,2,2,2,,,,,,,,2,16,,,,,,,,,,,4,4.618,0,,,,,,0.400925926,-0.252777778,1,0,0,4.6183,Gabbro_rect,1,0,1,0,1,
5fb7dd473afbb1033b491811,TCN,2024-06-24_17h57.56.921,LearnStrategy,2023.2.3,Win32,59.52380952,2,2,3,,,,,,,,5,10,,,,,,,,,,,5,1.978,1,,,,,,-0.424074074,-0.408333333,1,0,0,1.978,Obsidian_rect,2,0,2,0,1,
5fb7dd473afbb1033b491811,TCN,2024-06-24_17h57.56.921,LearnStrategy,2023.2.3,Win32,59.52380952,2,2,4,,,,,,,,4,16,,,,,,,,,,,4,2.58,1,,,,,,0.372222222,-0.256481481,1,0,0,2.5801,Gabbro_rect,3,0,3,0,1,
5fb7dd473afbb1033b491811,TCN,2024-06-24_17h57.56.921,LearnStrategy,2023.2.3,Win32,59.52380952,2,2,5,,,,,,,,5,09,,,,,,,,,,,5,1.849,1,,,,,,-0.401851852,-0.403703704,1,0,0,1.8493,Obsidian_rect,4,0,4,0,1,
5fb7dd473afbb1033b491811,TCN,2024-06-24_17h57.56.921,LearnStrategy,2023.2.3,Win32,59.52380952,2,2,6,,,,,,,,6,13,,,,,,,,,,,1,8.925,0,,,,,,-0.347222222,-0.255555556,1,0,0,8.9246,Andesite_rect,5,0,5,0,1,
5fb7dd473afbb1033b491811,TCN,2024-06-24_17h57.56.921,LearnStrategy,2023.2.3,Win32,59.52380952,2,2,7,,,,,,,,4,09,,,,,,,,,,,5,13.688,0,,,,,,-0.380555556,-0.400925926,1,0,0,13.6882,Obsidian_rect,6,0,6,0,1,
5fb7dd473afbb1033b491811,TCN,2024-06-24_17h57.56.921,LearnStrategy,2023.2.3,Win32,59.52380952,2,2,8,,,,,,,,8,04,,,,,,,,,,,8,2.097,1,,,,,,0.42037037,-0.409259259,1,0,0,2.0966,Pumice_rect,7,0,7,0,1,
5fb7dd473afbb1033b491811,TCN,2024-06-24_17h57.56.921,LearnStrategy,2023.2.3,Win32,59.52380952,2,2,9,,,,,,,,7,12,,,,,,,,,,,7,1.873,1,,,,,,0.131481481,-0.390740741,1,0,0,1.8733,Peridotite_rect,8,0,8,0,1,
5fb7dd473afbb1033b491811,TCN,2024-06-24_17h57.56.921,LearnStrategy,2023.2.3,Win32,59.52380952,2,2,10,,,,,,,,7,13,,,,,,,,,,,7,2.678,1,,,,,,0.091666667,-0.392592593,1,0,0,2.6784,Peridotite_rect,9,0,9,0,1,
5fb7dd473afbb1033b491811,TCN,2024-06-24_17h57.56.921,LearnStrategy,2023.2.3,Win32,59.52380952,2,2,11,,,,,,,,1,10,,,,,,,,,,,3,5.914,0,,,,,,0.087037037,-0.262962963,1,0,0,5.9145,Diorite_rect,10,0,10,0,1,
5fb7dd473afbb1033b491811,TCN,2024-06-24_17h57.56.921,LearnStrategy,2023.2.3,Win32,59.52380952,2,2,12,,,,,,,,3,02,,,,,,,,,,,3,3.051,1,,,,,,0.087037037,-0.262037037,1,0,0,3.0514,Diorite_rect,11,0,11,0,1,
5fb7dd473afbb1033b491811,TCN,2024-06-24_17h57.56.921,LearnStrategy,2023.2.3,Win32,59.52380952,2,2,13,,,,,,,,6,11,,,,,,,,,,,1,3.797,0,,,,,,-0.347222222,-0.249074074,1,0,0,3.7969,Andesite_rect,12,0,12,0,1,
5fb7dd473afbb1033b491811,TCN,2024-06-24_17h57.56.921,LearnStrategy,2023.2.3,Win32,59.52380952,2,2,14,,,,,,,,1,07,,,,,,,,,,,6,8.652,0,,,,,,-0.182407407,-0.389814815,1,0,0,8.6523,Pegmatite_rect,13,0,13,0,1,
5fb7dd473afbb1033b491811,TCN,2024-06-24_17h57.56.921,LearnStrategy,2023.2.3,Win32,59.52380952,2,2,15,,,,,,,,3,07,,,,,,,,,,,3,2.296,1,,,,,,0.083333333,-0.262037037,1,0,0,2.2956,Diorite_rect,14,0,14,0,1,
5fb7dd473afbb1033b491811,TCN,2024-06-24_17h57.56.921,LearnStrategy,2023.2.3,Win32,59.52380952,2,2,16,,,,,,,,2,04,,,,,,,,,,,2,1.785,1,,,,,,-0.10462963,-0.261111111,1,0,0,1.785,Basalt_rect,15,0,15,0,1,
5fb7dd473afbb1033b491811,TCN,2024-06-24_17h57.56.921,LearnStrategy,2023.2.3,Win32,59.52380952,3,1,1,0.075925926,-0.014814815,1,0,0,1.2002,rock_grid_rect_2,4,13,-1,-1,1.2,-0.35,-0.22962963,1,0,0,4.3566,Andesite_rect,1,4.357,0,0,0,0,0,1,,,,,,,,,,,,,
5fb7dd473afbb1033b491811,TCN,2024-06-24_17h57.56.921,LearnStrategy,2023.2.3,Win32,59.52380952,3,1,2,-0.028703704,-0.011111111,1,0,0,1.5029,rock_grid_rect_2,1,11,-1,-1,1.503,0.139814815,-0.255555556,1,0,0,4.78,Diorite_rect,3,4.78,0,1,0,1,0,1,,,,,,,,,,,,,
5fb7dd473afbb1033b491811,TCN,2024-06-24_17h57.56.921,LearnStrategy,2023.2.3,Win32,59.52380952,3,1,3,0.049074074,0.002777778,1,0,0,1.0513,rock_grid_rect_2,3,08,-1,-1,1.051,0.091666667,-0.246296296,1,0,0,2.4116,Diorite_rect,3,2.412,1,2,0,2,0,1,,,,,,,,,,,,,
5fb7dd473afbb1033b491811,TCN,2024-06-24_17h57.56.921,LearnStrategy,2023.2.3,Win32,59.52380952,3,1,4,0.107407407,-0.006481481,1,0,0,1.274,rock_grid_rect_2,3,14,-1,-1,1.274,0.088888889,-0.243518519,1,0,0,3.1003,Diorite_rect,3,3.1,1,3,0,3,0,1,,,,,,,,,,,,,
5fb7dd473afbb1033b491811,TCN,2024-06-24_17h57.56.921,LearnStrategy,2023.2.3,Win32,59.52380952,3,1,5,0.075925926,-0.000925926,1,0,0,1.2003,rock_grid_rect_2,7,10,-1,-1,1.2,0.073148148,-0.394444444,1,0,0,1.5623,Peridotite_rect,7,1.562,1,4,0,4,0,1,,,,,,,,,,,,,
5fb7dd473afbb1033b491811,TCN,2024-06-24_17h57.56.921,LearnStrategy,2023.2.3,Win32,59.52380952,3,1,6,0.092592593,-0.001851852,1,0,0,1.0588,rock_grid_rect_2,1,04,-1,-1,1.059,-0.17037037,-0.397222222,1,0,0,5.7464,Pegmatite_rect,6,5.746,0,5,0,5,0,1,,,,,,,,,,,,,
5fb7dd473afbb1033b491811,TCN,2024-06-24_17h57.56.921,LearnStrategy,2023.2.3,Win32,59.52380952,3,1,7,-0.021296296,-0.007407407,1,0,0,1.206,rock_grid_rect_2,6,12,-1,-1,1.206,0.105555556,-0.249074074,1,0,0,4.4009,Diorite_rect,3,4.401,0,6,0,6,0,1,,,,,,,,,,,,,
5fb7dd473afbb1033b491811,TCN,2024-06-24_17h57.56.921,LearnStrategy,2023.2.3,Win32,59.52380952,3,1,8,0.012962963,-0.001851852,1,0,0,0.9678,rock_grid_rect_2,6,09,-1,-1,0.968,0.077777778,-0.396296296,1,0,0,6.7239,Peridotite_rect,7,6.724,0,7,0,7,0,1,,,,,,,,,,,,,
5fb7dd473afbb1033b491811,TCN,2024-06-24_17h57.56.921,LearnStrategy,2023.2.3,Win32,59.52380952,3,1,9,0.092592593,-0.017592593,1,0,0,1.2427,rock_grid_rect_2,5,14,-1,-1,1.243,-0.348148148,-0.403703704,1,0,0,1.4973,Obsidian_rect,5,1.497,1,8,0,8,0,1,,,,,,,,,,,,,
5fb7dd473afbb1033b491811,TCN,2024-06-24_17h57.56.921,LearnStrategy,2023.2.3,Win32,59.52380952,3,1,10,-0.027777778,-0.00462963,1,0,0,1.1749,rock_grid_rect_2,2,11,-1,-1,1.175,-0.139814815,-0.25,1,0,0,1.6355,Basalt_rect,2,1.635,1,9,0,9,0,1,,,,,,,,,,,,,
5fb7dd473afbb1033b491811,TCN,2024-06-24_17h57.56.921,LearnStrategy,2023.2.3,Win32,59.52380952,3,1,11,-0.026851852,-0.016666667,1,0,0,1.0377,rock_grid_rect_2,2,08,-1,-1,1.038,-0.089814815,-0.269444444,1,0,0,1.6528,Basalt_rect,2,1.653,1,10,0,10,0,1,,,,,,,,,,,,,
5fb7dd473afbb1033b491811,TCN,2024-06-24_17h57.56.921,LearnStrategy,2023.2.3,Win32,59.52380952,3,1,12,-0.025,-0.005555556,1,0,0,0.8927,rock_grid_rect_2,8,02,-1,-1,0.893,0.437037037,-0.412037037,1,0,0,2.5638,Pumice_rect,8,2.564,1,11,0,11,0,1,,,,,,,,,,,,,
5fb7dd473afbb1033b491811,TCN,2024-06-24_17h57.56.921,LearnStrategy,2023.2.3,Win32,59.52380952,3,1,13,-0.012962963,0,1,0,0,0.8004,rock_grid_rect_2,4,08,-1,-1,0.8,-0.383333333,-0.242592593,1,0,0,3.4182,Andesite_rect,1,3.418,0,12,0,12,0,1,,,,,,,,,,,,,
5fb7dd473afbb1033b491811,TCN,2024-06-24_17h57.56.921,LearnStrategy,2023.2.3,Win32,59.52380952,3,1,14,-0.076851852,0.012037037,1,0,0,0.8982,rock_grid_rect_2,8,08,-1,-1,0.898,0.392592593,-0.401851852,1,0,0,1.5825,Pumice_rect,8,1.582,1,13,0,13,0,1,,,,,,,,,,,,,
5fb7dd473afbb1033b491811,TCN,2024-06-24_17h57.56.921,LearnStrategy,2023.2.3,Win32,59.52380952,3,1,15,0.021296296,0.009259259,1,0,0,0.7813,rock_grid_rect_2,7,08,-1,-1,0.781,0.075925926,-0.402777778,1,0,0,1.5716,Peridotite_rect,7,1.572,1,14,0,14,0,1,,,,,,,,,,,,,
5fb7dd473afbb1033b491811,TCN,2024-06-24_17h57.56.921,LearnStrategy,2023.2.3,Win32,59.52380952,3,1,16,-0.018518519,-0.011111111,1,0,0,0.9757,rock_grid_rect_2,5,12,-1,-1,0.976,-0.422222222,-0.399074074,1,0,0,1.2977,Obsidian_rect,5,1.298,1,15,0,15,0,1,,,,,,,,,,,,,
5fb7dd473afbb1033b491811,TCN,2024-06-24_17h57.56.921,LearnStrategy,2023.2.3,Win32,59.52380952,3,2,1,,,,,,,,5,07,,,,,,,,,,,5,2.54,1,,,,,,-0.423148148,-0.405555556,1,0,0,2.5399,Obsidian_rect,0,0,0,0,1,
5fb7dd473afbb1033b491811,TCN,2024-06-24_17h57.56.921,LearnStrategy,2023.2.3,Win32,59.52380952,3,2,2,,,,,,,,1,02,,,,,,,,,,,1,10.686,1,,,,,,-0.333333333,-0.237037037,1,0,0,10.6859,Andesite_rect,1,0,1,0,1,
5fb7dd473afbb1033b491811,TCN,2024-06-24_17h57.56.921,LearnStrategy,2023.2.3,Win32,59.52380952,3,2,3,,,,,,,,3,10,,,,,,,,,,,3,3.032,1,,,,,,0.087962963,-0.250925926,1,0,0,3.0315,Diorite_rect,2,0,2,0,1,
5fb7dd473afbb1033b491811,TCN,2024-06-24_17h57.56.921,LearnStrategy,2023.2.3,Win32,59.52380952,3,2,4,,,,,,,,6,16,,,,,,,,,,,6,5.339,1,,,,,,-0.109259259,-0.405555556,1,0,0,5.339,Pegmatite_rect,3,0,3,0,1,
5fb7dd473afbb1033b491811,TCN,2024-06-24_17h57.56.921,LearnStrategy,2023.2.3,Win32,59.52380952,3,2,5,,,,,,,,4,12,,,,,,,,,,,4,3.18,1,,,,,,0.367592593,-0.247222222,1,0,0,3.1804,Gabbro_rect,4,0,4,0,1,
5fb7dd473afbb1033b491811,TCN,2024-06-24_17h57.56.921,LearnStrategy,2023.2.3,Win32,59.52380952,3,2,6,,,,,,,,1,14,,,,,,,,,,,3,9.29,0,,,,,,0.112962963,-0.250925926,1,0,0,9.2904,Diorite_rect,5,0,5,0,1,
5fb7dd473afbb1033b491811,TCN,2024-06-24_17h57.56.921,LearnStrategy,2023.2.3,Win32,59.52380952,3,2,7,,,,,,,,2,09,,,,,,,,,,,2,1.47,1,,,,,,-0.110185185,-0.252777778,1,0,0,1.4702,Basalt_rect,6,0,6,0,1,
5fb7dd473afbb1033b491811,TCN,2024-06-24_17h57.56.921,LearnStrategy,2023.2.3,Win32,59.52380952,3,2,8,,,,,,,,4,10,,,,,,,,,,,2,3.917,0,,,,,,-0.110185185,-0.252777778,1,0,0,3.9174,Basalt_rect,7,0,7,0,1,
5fb7dd473afbb1033b491811,TCN,2024-06-24_17h57.56.921,LearnStrategy,2023.2.3,Win32,59.52380952,3,2,9,,,,,,,,6,10,,,,,,,,,,,6,4.795,1,,,,,,-0.137962963,-0.394444444,1,0,0,4.7951,Pegmatite_rect,8,0,8,0,1,
5fb7dd473afbb1033b491811,TCN,2024-06-24_17h57.56.921,LearnStrategy,2023.2.3,Win32,59.52380952,3,2,10,,,,,,,,7,06,,,,,,,,,,,7,1.606,1,,,,,,0.118518519,-0.413888889,1,0,0,1.6064,Peridotite_rect,9,0,9,0,1,
5fb7dd473afbb1033b491811,TCN,2024-06-24_17h57.56.921,LearnStrategy,2023.2.3,Win32,59.52380952,3,2,11,,,,,,,,8,10,,,,,,,,,,,8,2.325,1,,,,,,0.361111111,-0.418518519,1,0,0,2.3249,Pumice_rect,10,0,10,0,1,
5fb7dd473afbb1033b491811,TCN,2024-06-24_17h57.56.921,LearnStrategy,2023.2.3,Win32,59.52380952,3,2,12,,,,,,,,2,10,,,,,,,,,,,2,5.279,1,,,,,,-0.106481481,-0.253703704,1,0,0,5.2785,Basalt_rect,11,0,11,0,1,
5fb7dd473afbb1033b491811,TCN,2024-06-24_17h57.56.921,LearnStrategy,2023.2.3,Win32,59.52380952,3,2,13,,,,,,,,5,02,,,,,,,,,,,5,1.465,1,,,,,,-0.364814815,-0.382407407,1,0,0,1.4649,Obsidian_rect,12,0,12,0,1,
5fb7dd473afbb1033b491811,TCN,2024-06-24_17h57.56.921,LearnStrategy,2023.2.3,Win32,59.52380952,3,2,14,,,,,,,,7,16,,,,,,,,,,,7,1.982,1,,,,,,0.086111111,-0.40462963,1,0,0,1.9817,Peridotite_rect,13,0,13,0,1,
5fb7dd473afbb1033b491811,TCN,2024-06-24_17h57.56.921,LearnStrategy,2023.2.3,Win32,59.52380952,3,2,15,,,,,,,,3,06,,,,,,,,,,,3,2.066,1,,,,,,0.113888889,-0.249074074,1,0,0,2.0661,Diorite_rect,14,0,14,0,1,
5fb7dd473afbb1033b491811,TCN,2024-06-24_17h57.56.921,LearnStrategy,2023.2.3,Win32,59.52380952,3,2,16,,,,,,,,8,06,,,,,,,,,,,8,1.326,1,,,,,,0.362037037,-0.398148148,1,0,0,1.3264,Pumice_rect,15,0,15,0,1,
5fb7dd473afbb1033b491811,TCN,2024-06-24_17h57.56.921,LearnStrategy,2023.2.3,Win32,59.52380952,4,1,1,0.109259259,0.010185185,1,0,0,1.0454,rock_grid_rect_2,6,08,-1,-1,1.045,-0.15462963,-0.396296296,1,0,0,5.8941,Pegmatite_rect,6,5.894,1,0,0,0,0,1,,,,,,,,,,,,,
5fb7dd473afbb1033b491811,TCN,2024-06-24_17h57.56.921,LearnStrategy,2023.2.3,Win32,59.52380952,4,1,2,0.007407407,-0.006481481,1,0,0,1.4395,rock_grid_rect_2,2,01,-1,-1,1.44,-0.119444444,-0.242592593,1,0,0,1.5306,Basalt_rect,2,1.531,1,1,0,1,0,1,,,,,,,,,,,,,
5fb7dd473afbb1033b491811,TCN,2024-06-24_17h57.56.921,LearnStrategy,2023.2.3,Win32,59.52380952,4,1,3,0.009259259,-0.008333333,1,0,0,1.1847,rock_grid_rect_2,2,11,-1,-1,1.185,-0.122222222,-0.241666667,1,0,0,2.4017,Basalt_rect,2,2.402,1,2,0,2,0,1,,,,,,,,,,,,,
5fb7dd473afbb1033b491811,TCN,2024-06-24_17h57.56.921,LearnStrategy,2023.2.3,Win32,59.52380952,4,1,4,0.021296296,-0.000925926,1,0,0,0.9419,rock_grid_rect_2,1,11,-1,-1,0.942,-0.360185185,-0.236111111,1,0,0,2.0088,Andesite_rect,1,2.009,1,3,0,3,0,1,,,,,,,,,,,,,
5fb7dd473afbb1033b491811,TCN,2024-06-24_17h57.56.921,LearnStrategy,2023.2.3,Win32,59.52380952,4,1,5,0.021296296,-0.005555556,1,0,0,1.2033,rock_grid_rect_2,3,11,-1,-1,1.203,0.10462963,-0.242592593,1,0,0,2.5041,Diorite_rect,3,2.504,1,4,0,4,0,1,,,,,,,,,,,,,
5fb7dd473afbb1033b491811,TCN,2024-06-24_17h57.56.921,LearnStrategy,2023.2.3,Win32,59.52380952,4,1,6,0.025925926,0.016666667,1,0,0,0.8317,rock_grid_rect_2,5,04,-1,-1,0.832,-0.362037037,-0.388888889,1,0,0,2.2267,Obsidian_rect,5,2.227,1,5,0,5,0,1,,,,,,,,,,,,,
5fb7dd473afbb1033b491811,TCN,2024-06-24_17h57.56.921,LearnStrategy,2023.2.3,Win32,59.52380952,4,1,7,0.038888889,0.016666667,1,0,0,1.0009,rock_grid_rect_2,3,13,-1,-1,1.001,0.078703704,-0.240740741,1,0,0,1.7253,Diorite_rect,3,1.725,1,6,0,6,0,1,,,,,,,,,,,,,
5fb7dd473afbb1033b491811,TCN,2024-06-24_17h57.56.921,LearnStrategy,2023.2.3,Win32,59.52380952,4,1,8,0.014814815,-0.002777778,1,0,0,0.9066,rock_grid_rect_2,5,12,-1,-1,0.907,-0.396296296,-0.383333333,1,0,0,1.2167,Obsidian_rect,5,1.217,1,7,0,7,0,1,,,,,,,,,,,,,
5fb7dd473afbb1033b491811,TCN,2024-06-24_17h57.56.921,LearnStrategy,2023.2.3,Win32,59.52380952,4,1,9,0.009259259,-0.009259259,1,0,0,1.2228,rock_grid_rect_2,8,15,-1,-1,1.223,0.365740741,-0.405555556,1,0,0,1.6281,Pumice_rect,8,1.628,1,8,0,8,0,1,,,,,,,,,,,,,
5fb7dd473afbb1033b491811,TCN,2024-06-24_17h57.56.921,LearnStrategy,2023.2.3,Win32,59.52380952,4,1,10,0.07037037,-0.000925926,1,0,0,0.9672,rock_grid_rect_2,6,03,-1,-1,0.967,0.091666667,-0.403703704,1,0,0,1.4563,Peridotite_rect,7,1.456,0,9,0,9,0,1,,,,,,,,,,,,,
5fb7dd473afbb1033b491811,TCN,2024-06-24_17h57.56.921,LearnStrategy,2023.2.3,Win32,59.52380952,4,1,11,0.025,0.001851852,1,0,0,1.083,rock_grid_rect_2,4,03,-1,-1,1.083,0.357407407,-0.24537037,1,0,0,3.0358,Gabbro_rect,4,3.036,1,10,0,10,0,1,,,,,,,,,,,,,
5fb7dd473afbb1033b491811,TCN,2024-06-24_17h57.56.921,LearnStrategy,2023.2.3,Win32,59.52380952,4,1,12,-0.028703704,0.007407407,1,0,0,0.9583,rock_grid_rect_2,7,02,-1,-1,0.958,0.074074074,-0.408333333,1,0,0,1.3589,Peridotite_rect,7,1.359,1,11,0,11,0,1,,,,,,,,,,,,,
5fb7dd473afbb1033b491811,TCN,2024-06-24_17h57.56.921,LearnStrategy,2023.2.3,Win32,59.52380952,4,1,13,0.015740741,-0.011111111,1,0,0,0.8524,rock_grid_rect_2,7,08,-1,-1,0.852,0.089814815,-0.399074074,1,0,0,2.6965,Peridotite_rect,7,2.697,1,12,0,12,0,1,,,,,,,,,,,,,
5fb7dd473afbb1033b491811,TCN,2024-06-24_17h57.56.921,LearnStrategy,2023.2.3,Win32,59.52380952,4,1,14,0.027777778,0.008333333,1,0,0,0.9846,rock_grid_rect_2,4,11,-1,-1,0.985,0.387037037,-0.241666667,1,0,0,2.1786,Gabbro_rect,4,2.179,1,13,0,13,0,1,,,,,,,,,,,,,
5fb7dd473afbb1033b491811,TCN,2024-06-24_17h57.56.921,LearnStrategy,2023.2.3,Win32,59.52380952,4,1,15,0.026851852,-0.019444444,1,0,0,0.9339,rock_grid_rect_2,8,09,-1,-1,0.934,0.337037037,-0.396296296,1,0,0,1.479,Pumice_rect,8,1.479,1,14,0,14,0,1,,,,,,,,,,,,,
5fb7dd473afbb1033b491811,TCN,2024-06-24_17h57.56.921,LearnStrategy,2023.2.3,Win32,59.52380952,4,1,16,0.036111111,0.006481481,1,0,0,1.1756,rock_grid_rect_2,1,09,-1,-1,1.176,0.409259259,-0.234259259,1,0,0,4.8585,Gabbro_rect,4,4.859,0,15,0,15,0,1,,,,,,,,,,,,,
5fb7dd473afbb1033b491811,TCN,2024-06-24_17h57.56.921,LearnStrategy,2023.2.3,Win32,59.52380952,4,2,1,,,,,,,,7,16,,,,,,,,,,,6,5.856,0,,,,,,-0.111111111,-0.396296296,1,0,0,5.8564,Pegmatite_rect,0,0,0,0,1,
5fb7dd473afbb1033b491811,TCN,2024-06-24_17h57.56.921,LearnStrategy,2023.2.3,Win32,59.52380952,4,2,2,,,,,,,,4,14,,,,,,,,,,,4,11.608,1,,,,,,0.363888889,-0.251851852,1,0,0,11.6075,Gabbro_rect,1,0,1,0,1,
5fb7dd473afbb1033b491811,TCN,2024-06-24_17h57.56.921,LearnStrategy,2023.2.3,Win32,59.52380952,4,2,3,,,,,,,,8,13,,,,,,,,,,,8,1.585,1,,,,,,0.359259259,-0.401851852,1,0,0,1.5849,Pumice_rect,2,0,2,0,1,
5fb7dd473afbb1033b491811,TCN,2024-06-24_17h57.56.921,LearnStrategy,2023.2.3,Win32,59.52380952,4,2,4,,,,,,,,3,12,,,,,,,,,,,3,1.649,1,,,,,,0.146296296,-0.261111111,1,0,0,1.6493,Diorite_rect,3,0,3,0,1,
5fb7dd473afbb1033b491811,TCN,2024-06-24_17h57.56.921,LearnStrategy,2023.2.3,Win32,59.52380952,4,2,5,,,,,,,,5,06,,,,,,,,,,,5,1.393,1,,,,,,-0.380555556,-0.405555556,1,0,0,1.3934,Obsidian_rect,4,0,4,0,1,
5fb7dd473afbb1033b491811,TCN,2024-06-24_17h57.56.921,LearnStrategy,2023.2.3,Win32,59.52380952,4,2,6,,,,,,,,3,07,,,,,,,,,,,3,1.97,1,,,,,,0.124074074,-0.253703704,1,0,0,1.9699,Diorite_rect,5,0,5,0,1,
5fb7dd473afbb1033b491811,TCN,2024-06-24_17h57.56.921,LearnStrategy,2023.2.3,Win32,59.52380952,4,2,7,,,,,,,,1,14,,,,,,,,,,,3,4.216,0,,,,,,0.119444444,-0.253703704,1,0,0,4.2161,Diorite_rect,6,0,6,0,1,
5fb7dd473afbb1033b491811,TCN,2024-06-24_17h57.56.921,LearnStrategy,2023.2.3,Win32,59.52380952,4,2,8,,,,,,,,1,16,,,,,,,,,,,1,4.424,1,,,,,,-0.35,-0.243518519,1,0,0,4.424,Andesite_rect,7,0,7,0,1,
5fb7dd473afbb1033b491811,TCN,2024-06-24_17h57.56.921,LearnStrategy,2023.2.3,Win32,59.52380952,4,2,9,,,,,,,,6,13,,,,,,,,,,,4,9.267,0,,,,,,0.337962963,-0.251851852,1,0,0,9.267,Gabbro_rect,8,0,8,0,1,
5fb7dd473afbb1033b491811,TCN,2024-06-24_17h57.56.921,LearnStrategy,2023.2.3,Win32,59.52380952,4,2,10,,,,,,,,4,12,,,,,,,,,,,4,0.965,1,,,,,,0.337962963,-0.251851852,1,0,0,0.9647,Gabbro_rect,9,0,9,0,1,
5fb7dd473afbb1033b491811,TCN,2024-06-24_17h57.56.921,LearnStrategy,2023.2.3,Win32,59.52380952,4,2,11,,,,,,,,8,03,,,,,,,,,,,8,1.474,1,,,,,,0.347222222,-0.390740741,1,0,0,1.4737,Pumice_rect,10,0,10,0,1,
5fb7dd473afbb1033b491811,TCN,2024-06-24_17h57.56.921,LearnStrategy,2023.2.3,Win32,59.52380952,4,2,12,,,,,,,,7,13,,,,,,,,,,,7,4.971,1,,,,,,0.133333333,-0.400925926,1,0,0,4.9706,Peridotite_rect,11,0,11,0,1,
5fb7dd473afbb1033b491811,TCN,2024-06-24_17h57.56.921,LearnStrategy,2023.2.3,Win32,59.52380952,4,2,13,,,,,,,,5,09,,,,,,,,,,,5,1.285,1,,,,,,-0.341666667,-0.394444444,1,0,0,1.2847,Obsidian_rect,12,0,12,0,1,
5fb7dd473afbb1033b491811,TCN,2024-06-24_17h57.56.921,LearnStrategy,2023.2.3,Win32,59.52380952,4,2,14,,,,,,,,6,16,,,,,,,,,,,3,8.185,0,,,,,,0.119444444,-0.252777778,1,0,0,8.1845,Diorite_rect,13,0,13,0,1,
5fb7dd473afbb1033b491811,TCN,2024-06-24_17h57.56.921,LearnStrategy,2023.2.3,Win32,59.52380952,4,2,15,,,,,,,,2,09,,,,,,,,,,,2,2.585,1,,,,,,-0.132407407,-0.252777778,1,0,0,2.5854,Basalt_rect,14,0,14,0,1,
5fb7dd473afbb1033b491811,TCN,2024-06-24_17h57.56.921,LearnStrategy,2023.2.3,Win32,59.52380952,4,2,16,,,,,,,,2,02,,,,,,,,,,,2,3.209,1,,,,,,-0.132407407,-0.252777778,1,0,0,3.2087,Basalt_rect,15,0,15,0,1,
5fb7dd473afbb1033b491811,TCN,2024-06-24_17h57.56.921,LearnStrategy,2023.2.3,Win32,59.52380952,5,1,1,0.074074074,-0.007407407,1,0,0,1.793,rock_grid_rect_2,7,10,-1,-1,1.793,0.10462963,-0.397222222,1,0,0,3.1805,Peridotite_rect,7,3.181,1,0,0,0,0,1,,,,,,,,,,,,,
5fb7dd473afbb1033b491811,TCN,2024-06-24_17h57.56.921,LearnStrategy,2023.2.3,Win32,59.52380952,5,1,2,0.024074074,-0.000925926,1,0,0,1.2472,rock_grid_rect_2,2,14,-1,-1,1.247,0.348148148,-0.401851852,1,0,0,4.1082,Pumice_rect,8,4.108,0,1,0,1,0,1,,,,,,,,,,,,,
5fb7dd473afbb1033b491811,TCN,2024-06-24_17h57.56.921,LearnStrategy,2023.2.3,Win32,59.52380952,5,1,3,-0.015740741,-0.005555556,1,0,0,1.1171,rock_grid_rect_2,3,08,-1,-1,1.117,0.113888889,-0.251851852,1,0,0,1.3843,Diorite_rect,3,1.384,1,2,0,2,0,1,,,,,,,,,,,,,
5fb7dd473afbb1033b491811,TCN,2024-06-24_17h57.56.921,LearnStrategy,2023.2.3,Win32,59.52380952,5,1,4,0.035185185,-0.008333333,1,0,0,0.974,rock_grid_rect_2,3,16,-1,-1,0.974,0.1,-0.251851852,1,0,0,2.385,Diorite_rect,3,2.385,1,3,0,3,0,1,,,,,,,,,,,,,
5fb7dd473afbb1033b491811,TCN,2024-06-24_17h57.56.921,LearnStrategy,2023.2.3,Win32,59.52380952,5,1,5,0.088888889,-0.012962963,1,0,0,0.8585,rock_grid_rect_2,2,05,-1,-1,0.858,-0.132407407,-0.24537037,1,0,0,1.4733,Basalt_rect,2,1.473,1,4,0,4,0,1,,,,,,,,,,,,,
5fb7dd473afbb1033b491811,TCN,2024-06-24_17h57.56.921,LearnStrategy,2023.2.3,Win32,59.52380952,5,1,6,0.003703704,-0.014814815,1,0,0,0.9648,rock_grid_rect_2,5,11,-1,-1,0.965,-0.390740741,-0.406481481,1,0,0,1.5124,Obsidian_rect,5,1.512,1,5,0,5,0,1,,,,,,,,,,,,,
5fb7dd473afbb1033b491811,TCN,2024-06-24_17h57.56.921,LearnStrategy,2023.2.3,Win32,59.52380952,5,1,7,0.028703704,0.005555556,1,0,0,1.1709,rock_grid_rect_2,1,03,-1,-1,1.171,-0.14537037,-0.249074074,1,0,0,3.4172,Basalt_rect,2,3.417,0,6,0,6,0,1,,,,,,,,,,,,,
5fb7dd473afbb1033b491811,TCN,2024-06-24_17h57.56.921,LearnStrategy,2023.2.3,Win32,59.52380952,5,1,8,-0.015740741,-0.011111111,1,0,0,1.2637,rock_grid_rect_2,7,05,-1,-1,1.264,0.096296296,-0.399074074,1,0,0,1.7231,Peridotite_rect,7,1.723,1,7,0,7,0,1,,,,,,,,,,,,,
5fb7dd473afbb1033b491811,TCN,2024-06-24_17h57.56.921,LearnStrategy,2023.2.3,Win32,59.52380952,5,1,9,0.051851852,0,1,0,0,0.9464,rock_grid_rect_2,6,12,-1,-1,0.946,0.107407407,-0.260185185,1,0,0,1.4979,Diorite_rect,3,1.498,0,8,0,8,0,1,,,,,,,,,,,,,
5fb7dd473afbb1033b491811,TCN,2024-06-24_17h57.56.921,LearnStrategy,2023.2.3,Win32,59.52380952,5,1,10,0.018518519,-0.007407407,1,0,0,3.7767,rock_grid_rect_2,4,08,-1,-1,3.777,-0.403703704,-0.248148148,1,0,0,3.1498,Andesite_rect,1,3.15,0,9,0,9,0,1,,,,,,,,,,,,,
5fb7dd473afbb1033b491811,TCN,2024-06-24_17h57.56.921,LearnStrategy,2023.2.3,Win32,59.52380952,5,1,11,0.016666667,-0.009259259,1,0,0,0.8978,rock_grid_rect_2,8,05,-1,-1,0.898,0.378703704,-0.411111111,1,0,0,1.5547,Pumice_rect,8,1.555,1,10,0,10,0,1,,,,,,,,,,,,,
5fb7dd473afbb1033b491811,TCN,2024-06-24_17h57.56.921,LearnStrategy,2023.2.3,Win32,59.52380952,5,1,12,0.013888889,0.002777778,1,0,0,1.4035,rock_grid_rect_2,1,04,-1,-1,1.404,-0.125925926,-0.246296296,1,0,0,5.1006,Basalt_rect,2,5.101,0,11,0,11,0,1,,,,,,,,,,,,,
5fb7dd473afbb1033b491811,TCN,2024-06-24_17h57.56.921,LearnStrategy,2023.2.3,Win32,59.52380952,5,1,13,0,-0.013888889,1,0,0,1.0839,rock_grid_rect_2,5,14,-1,-1,1.084,-0.408333333,-0.402777778,1,0,0,1.4839,Obsidian_rect,5,1.484,1,12,0,12,0,1,,,,,,,,,,,,,
5fb7dd473afbb1033b491811,TCN,2024-06-24_17h57.56.921,LearnStrategy,2023.2.3,Win32,59.52380952,5,1,14,0,-0.011111111,1,0,0,1.07,rock_grid_rect_2,4,15,-1,-1,1.07,0.362962963,-0.234259259,1,0,0,2.1988,Gabbro_rect,4,2.199,1,13,0,13,0,1,,,,,,,,,,,,,
5fb7dd473afbb1033b491811,TCN,2024-06-24_17h57.56.921,LearnStrategy,2023.2.3,Win32,59.52380952,5,1,15,-0.037962963,0,1,0,0,1.1089,rock_grid_rect_2,6,06,-1,-1,1.109,-0.165740741,-0.390740741,1,0,0,5.1506,Pegmatite_rect,6,5.151,1,14,0,14,0,1,,,,,,,,,,,,,
5fb7dd473afbb1033b491811,TCN,2024-06-24_17h57.56.921,LearnStrategy,2023.2.3,Win32,59.52380952,5,1,16,0.041666667,-0.009259259,1,0,0,0.9761,rock_grid_rect_2,8,14,-1,-1,0.976,0.340740741,-0.385185185,1,0,0,1.3839,Pumice_rect,8,1.384,1,15,0,15,0,1,,,,,,,,,,,,,
5fb7dd473afbb1033b491811,TCN,2024-06-24_17h57.56.921,LearnStrategy,2023.2.3,Win32,59.52380952,5,2,1,,,,,,,,5,10,,,,,,,,,,,5,1.579,1,,,,,,-0.402777778,-0.400925926,1,0,0,1.5793,Obsidian_rect,0,0,0,0,1,
5fb7dd473afbb1033b491811,TCN,2024-06-24_17h57.56.921,LearnStrategy,2023.2.3,Win32,59.52380952,5,2,2,,,,,,,,7,14,,,,,,,,,,,7,1.663,1,,,,,,0.087962963,-0.399074074,1,0,0,1.6626,Peridotite_rect,1,0,1,0,1,
5fb7dd473afbb1033b491811,TCN,2024-06-24_17h57.56.921,LearnStrategy,2023.2.3,Win32,59.52380952,5,2,3,,,,,,,,2,04,,,,,,,,,,,2,1.601,1,,,,,,-0.137037037,-0.246296296,1,0,0,1.601,Basalt_rect,2,0,2,0,1,
5fb7dd473afbb1033b491811,TCN,2024-06-24_17h57.56.921,LearnStrategy,2023.2.3,Win32,59.52380952,5,2,4,,,,,,,,1,01,,,,,,,,,,,3,4.389,0,,,,,,0.110185185,-0.266666667,1,0,0,4.3893,Diorite_rect,3,0,3,0,1,
5fb7dd473afbb1033b491811,TCN,2024-06-24_17h57.56.921,LearnStrategy,2023.2.3,Win32,59.52380952,5,2,5,,,,,,,,2,10,,,,,,,,,,,2,1.822,1,,,,,,-0.113888889,-0.265740741,1,0,0,1.8216,Basalt_rect,4,0,4,0,1,
5fb7dd473afbb1033b491811,TCN,2024-06-24_17h57.56.921,LearnStrategy,2023.2.3,Win32,59.52380952,5,2,6,,,,,,,,6,15,,,,,,,,,,,6,1.769,1,,,,,,-0.156481481,-0.412962963,1,0,0,1.7689,Pegmatite_rect,5,0,5,0,1,
5fb7dd473afbb1033b491811,TCN,2024-06-24_17h57.56.921,LearnStrategy,2023.2.3,Win32,59.52380952,5,2,7,,,,,,,,4,01,,,,,,,,,,,7,2.535,0,,,,,,0.075925926,-0.414814815,1,0,0,2.5347,Peridotite_rect,6,0,6,0,1,
5fb7dd473afbb1033b491811,TCN,2024-06-24_17h57.56.921,LearnStrategy,2023.2.3,Win32,59.52380952,5,2,8,,,,,,,,1,02,,,,,,,,,,,4,5.454,0,,,,,,0.362037037,-0.258333333,1,0,0,5.4544,Gabbro_rect,7,0,7,0,1,
5fb7dd473afbb1033b491811,TCN,2024-06-24_17h57.56.921,LearnStrategy,2023.2.3,Win32,59.52380952,5,2,9,,,,,,,,3,15,,,,,,,,,,,4,4.721,0,,,,,,0.384259259,-0.25,1,0,0,4.7209,Gabbro_rect,8,0,8,0,1,
5fb7dd473afbb1033b491811,TCN,2024-06-24_17h57.56.921,LearnStrategy,2023.2.3,Win32,59.52380952,5,2,10,,,,,,,,7,12,,,,,,,,,,,7,2.223,1,,,,,,0.091666667,-0.396296296,1,0,0,2.2234,Peridotite_rect,9,0,9,0,1,
5fb7dd473afbb1033b491811,TCN,2024-06-24_17h57.56.921,LearnStrategy,2023.2.3,Win32,59.52380952,5,2,11,,,,,,,,6,11,,,,,,,,,,,6,1.921,1,,,,,,-0.124074074,-0.391666667,1,0,0,1.9209,Pegmatite_rect,10,0,10,0,1,
5fb7dd473afbb1033b491811,TCN,2024-06-24_17h57.56.921,LearnStrategy,2023.2.3,Win32,59.52380952,5,2,12,,,,,,,,8,06,,,,,,,,,,,8,1.508,1,,,,,,0.367592593,-0.406481481,1,0,0,1.5076,Pumice_rect,11,0,11,0,1,
5fb7dd473afbb1033b491811,TCN,2024-06-24_17h57.56.921,LearnStrategy,2023.2.3,Win32,59.52380952,5,2,13,,,,,,,,5,08,,,,,,,,,,,5,1.47,1,,,,,,-0.375925926,-0.387037037,1,0,0,1.4703,Obsidian_rect,12,0,12,0,1,
5fb7dd473afbb1033b491811,TCN,2024-06-24_17h57.56.921,LearnStrategy,2023.2.3,Win32,59.52380952,5,2,14,,,,,,,,3,02,,,,,,,,,,,3,1.542,1,,,,,,0.131481481,-0.255555556,1,0,0,1.5422,Diorite_rect,13,0,13,0,1,
5fb7dd473afbb1033b491811,TCN,2024-06-24_17h57.56.921,LearnStrategy,2023.2.3,Win32,59.52380952,5,2,15,,,,,,,,4,10,,,,,,,,,,,2,1.936,0,,,,,,-0.134259259,-0.237037037,1,0,0,1.9357,Basalt_rect,14,0,14,0,1,
5fb7dd473afbb1033b491811,TCN,2024-06-24_17h57.56.921,LearnStrategy,2023.2.3,Win32,59.52380952,5,2,16,,,,,,,,8,16,,,,,,,,,,,8,1.438,1,,,,,,0.353703704,-0.390740741,1,0,0,1.4384,Pumice_rect,15,0,15,0,1,
5fb7dd473afbb1033b491811,TCN,2024-06-24_17h57.56.921,LearnStrategy,2023.2.3,Win32,59.52380952,6,1,1,0.006481481,-0.017592593,1,0,0,1.1571,rock_grid_rect_2,2,08,-1,-1,1.157,-0.134259259,-0.237962963,1,0,0,1.755,Basalt_rect,2,1.755,1,0,0,0,0,1,,,,,,,,,,,,,
5fb7dd473afbb1033b491811,TCN,2024-06-24_17h57.56.921,LearnStrategy,2023.2.3,Win32,59.52380952,6,1,2,0.016666667,-0.005555556,1,0,0,1.0822,rock_grid_rect_2,4,13,-1,-1,1.082,0.42037037,-0.24537037,1,0,0,2.814,Gabbro_rect,4,2.814,1,1,0,1,0,1,,,,,,,,,,,,,
5fb7dd473afbb1033b491811,TCN,2024-06-24_17h57.56.921,LearnStrategy,2023.2.3,Win32,59.52380952,6,1,3,0.039814815,-0.011111111,1,0,0,1.0167,rock_grid_rect_2,3,09,-1,-1,1.017,0.119444444,-0.238888889,1,0,0,1.4946,Diorite_rect,3,1.495,1,2,0,2,0,1,,,,,,,,,,,,,
5fb7dd473afbb1033b491811,TCN,2024-06-24_17h57.56.921,LearnStrategy,2023.2.3,Win32,59.52380952,6,1,4,0.013888889,-0.00462963,1,0,0,0.9373,rock_grid_rect_2,1,06,-1,-1,0.937,-0.380555556,-0.257407407,1,0,0,2.5413,Andesite_rect,1,2.541,1,3,0,3,0,1,,,,,,,,,,,,,
5fb7dd473afbb1033b491811,TCN,2024-06-24_17h57.56.921,LearnStrategy,2023.2.3,Win32,59.52380952,6,1,5,-0.039814815,-0.013888889,1,0,0,1.0281,rock_grid_rect_2,3,14,-1,-1,1.028,0.113888889,-0.238888889,1,0,0,1.6149,Diorite_rect,3,1.615,1,4,0,4,0,1,,,,,,,,,,,,,
5fb7dd473afbb1033b491811,TCN,2024-06-24_17h57.56.921,LearnStrategy,2023.2.3,Win32,59.52380952,6,1,6,0.012962963,0.006481481,1,0,0,1.0537,rock_grid_rect_2,1,05,-1,-1,1.054,0.106481481,-0.380555556,1,0,0,1.6238,Peridotite_rect,7,1.624,0,5,0,5,0,1,,,,,,,,,,,,,
5fb7dd473afbb1033b491811,TCN,2024-06-24_17h57.56.921,LearnStrategy,2023.2.3,Win32,59.52380952,6,1,7,0.019444444,-0.002777778,1,0,0,0.8566,rock_grid_rect_2,7,15,-1,-1,0.857,0.087962963,-0.418518519,1,0,0,1.3732,Peridotite_rect,7,1.373,1,6,0,6,0,1,,,,,,,,,,,,,
5fb7dd473afbb1033b491811,TCN,2024-06-24_17h57.56.921,LearnStrategy,2023.2.3,Win32,59.52380952,6,1,8,0.036111111,-0.006481481,1,0,0,0.9738,rock_grid_rect_2,2,06,-1,-1,0.974,-0.150925926,-0.236111111,1,0,0,1.4741,Basalt_rect,2,1.474,1,7,0,7,0,1,,,,,,,,,,,,,
5fb7dd473afbb1033b491811,TCN,2024-06-24_17h57.56.921,LearnStrategy,2023.2.3,Win32,59.52380952,6,1,9,0.002777778,-0.012962963,1,0,0,1.1755,rock_grid_rect_2,6,05,-1,-1,1.176,0.112037037,-0.241666667,1,0,0,5.3446,Diorite_rect,3,5.345,0,8,0,8,0,1,,,,,,,,,,,,,
5fb7dd473afbb1033b491811,TCN,2024-06-24_17h57.56.921,LearnStrategy,2023.2.3,Win32,59.52380952,6,1,10,0.052777778,-0.003703704,1,0,0,1.1267,rock_grid_rect_2,8,02,-1,-1,1.127,0.385185185,-0.399074074,1,0,0,1.9344,Pumice_rect,8,1.934,1,9,0,9,0,1,,,,,,,,,,,,,
5fb7dd473afbb1033b491811,TCN,2024-06-24_17h57.56.921,LearnStrategy,2023.2.3,Win32,59.52380952,6,1,11,0.013888889,-0.014814815,1,0,0,1.0825,rock_grid_rect_2,5,16,-1,-1,1.082,-0.357407407,-0.394444444,1,0,0,1.3263,Obsidian_rect,5,1.326,1,10,0,10,0,1,,,,,,,,,,,,,
5fb7dd473afbb1033b491811,TCN,2024-06-24_17h57.56.921,LearnStrategy,2023.2.3,Win32,59.52380952,6,1,12,-0.00462963,-0.016666667,1,0,0,1.1208,rock_grid_rect_2,6,09,-1,-1,1.121,-0.167592593,-0.398148148,1,0,0,1.4329,Pegmatite_rect,6,1.433,1,11,0,11,0,1,,,,,,,,,,,,,
5fb7dd473afbb1033b491811,TCN,2024-06-24_17h57.56.921,LearnStrategy,2023.2.3,Win32,59.52380952,6,1,13,0.017592593,-0.006481481,1,0,0,1.1745,rock_grid_rect_2,8,08,-1,-1,1.175,0.332407407,-0.396296296,1,0,0,1.414,Pumice_rect,8,1.414,1,12,0,12,0,1,,,,,,,,,,,,,
5fb7dd473afbb1033b491811,TCN,2024-06-24_17h57.56.921,LearnStrategy,2023.2.3,Win32,59.52380952,6,1,14,0.016666667,-0.005555556,1,0,0,1.047,rock_grid_rect_2,4,05,-1,-1,1.047,-0.386111111,-0.239814815,1,0,0,4.1961,Andesite_rect,1,4.196,0,13,0,13,0,1,,,,,,,,,,,,,
5fb7dd473afbb1033b491811,TCN,2024-06-24_17h57.56.921,LearnStrategy,2023.2.3,Win32,59.52380952,6,1,15,-0.025,0.012962963,1,0,0,1.2413,rock_grid_rect_2,7,07,-1,-1,1.241,0.087037037,-0.389814815,1,0,0,1.5492,Peridotite_rect,7,1.549,1,14,0,14,0,1,,,,,,,,,,,,,
5fb7dd473afbb1033b491811,TCN,2024-06-24_17h57.56.921,LearnStrategy,2023.2.3,Win32,59.52380952,6,1,16,-0.001851852,-0.014814815,1,0,0,0.9391,rock_grid_rect_2,5,05,-1,-1,0.939,-0.425925926,-0.408333333,1,0,0,1.3615,Obsidian_rect,5,1.361,1,15,0,15,0,1,,,,,,,,,,,,,
5fb7dd473afbb1033b491811,TCN,2024-06-24_17h57.56.921,LearnStrategy,2023.2.3,Win32,59.52380952,6,2,1,,,,,,,,1,07,,,,,,,,,,,3,4.533,0,,,,,,0.088888889,-0.246296296,1,0,0,4.5329,Diorite_rect,0,0,0,0,1,
5fb7dd473afbb1033b491811,TCN,2024-06-24_17h57.56.921,LearnStrategy,2023.2.3,Win32,59.52380952,6,2,2,,,,,,,,6,07,,,,,,,,,,,6,1.333,1,,,,,,-0.149074074,-0.4,1,0,0,1.3331,Pegmatite_rect,1,0,1,0,1,
5fb7dd473afbb1033b491811,TCN,2024-06-24_17h57.56.921,LearnStrategy,2023.2.3,Win32,59.52380952,6,2,3,,,,,,,,1,10,,,,,,,,,,,2,2.329,0,,,,,,-0.136111111,-0.258333333,1,0,0,2.3288,Basalt_rect,2,0,2,0,1,
5fb7dd473afbb1033b491811,TCN,2024-06-24_17h57.56.921,LearnStrategy,2023.2.3,Win32,59.52380952,6,2,4,,,,,,,,7,04,,,,,,,,,,,6,5.583,0,,,,,,-0.141666667,-0.389814815,1,0,0,5.5829,Pegmatite_rect,3,0,3,0,1,
5fb7dd473afbb1033b491811,TCN,2024-06-24_17h57.56.921,LearnStrategy,2023.2.3,Win32,59.52380952,6,2,5,,,,,,,,5,02,,,,,,,,,,,5,1.322,1,,,,,,-0.355555556,-0.394444444,1,0,0,1.3217,Obsidian_rect,4,0,4,0,1,
5fb7dd473afbb1033b491811,TCN,2024-06-24_17h57.56.921,LearnStrategy,2023.2.3,Win32,59.52380952,6,2,6,,,,,,,,2,16,,,,,,,,,,,4,2.23,0,,,,,,0.367592593,-0.264814815,1,0,0,2.2303,Gabbro_rect,5,0,5,0,1,
5fb7dd473afbb1033b491811,TCN,2024-06-24_17h57.56.921,LearnStrategy,2023.2.3,Win32,59.52380952,6,2,7,,,,,,,,5,07,,,,,,,,,,,5,1.295,1,,,,,,-0.375,-0.394444444,1,0,0,1.2954,Obsidian_rect,6,0,6,0,1,
5fb7dd473afbb1033b491811,TCN,2024-06-24_17h57.56.921,LearnStrategy,2023.2.3,Win32,59.52380952,6,2,8,,,,,,,,4,16,,,,,,,,,,,4,1.676,1,,,,,,0.364814815,-0.237037037,1,0,0,1.676,Gabbro_rect,7,0,7,0,1,
5fb7dd473afbb1033b491811,TCN,2024-06-24_17h57.56.921,LearnStrategy,2023.2.3,Win32,59.52380952,6,2,9,,,,,,,,8,10,,,,,,,,,,,8,1.357,1,,,,,,0.347222222,-0.397222222,1,0,0,1.3574,Pumice_rect,8,0,8,0,1,
5fb7dd473afbb1033b491811,TCN,2024-06-24_17h57.56.921,LearnStrategy,2023.2.3,Win32,59.52380952,6,2,10,,,,,,,,2,12,,,,,,,,,,,2,2.85,1,,,,,,-0.092592593,-0.249074074,1,0,0,2.8498,Basalt_rect,9,0,9,0,1,
5fb7dd473afbb1033b491811,TCN,2024-06-24_17h57.56.921,LearnStrategy,2023.2.3,Win32,59.52380952,6,2,11,,,,,,,,8,04,,,,,,,,,,,8,2.581,1,,,,,,0.378703704,-0.414814815,1,0,0,2.5809,Pumice_rect,10,0,10,0,1,
5fb7dd473afbb1033b491811,TCN,2024-06-24_17h57.56.921,LearnStrategy,2023.2.3,Win32,59.52380952,6,2,12,,,,,,,,7,06,,,,,,,,,,,7,1.58,1,,,,,,0.099074074,-0.384259259,1,0,0,1.5799,Peridotite_rect,11,0,11,0,1,
5fb7dd473afbb1033b491811,TCN,2024-06-24_17h57.56.921,LearnStrategy,2023.2.3,Win32,59.52380952,6,2,13,,,,,,,,6,10,,,,,,,,,,,6,1.387,1,,,,,,-0.106481481,-0.398148148,1,0,0,1.387,Pegmatite_rect,12,0,12,0,1,
5fb7dd473afbb1033b491811,TCN,2024-06-24_17h57.56.921,LearnStrategy,2023.2.3,Win32,59.52380952,6,2,14,,,,,,,,3,06,,,,,,,,,,,3,3.293,1,,,,,,0.115740741,-0.263888889,1,0,0,3.2929,Diorite_rect,13,0,13,0,1,
5fb7dd473afbb1033b491811,TCN,2024-06-24_17h57.56.921,LearnStrategy,2023.2.3,Win32,59.52380952,6,2,15,,,,,,,,3,10,,,,,,,,,,,3,1.449,1,,,,,,0.115740741,-0.263888889,1,0,0,1.4486,Diorite_rect,14,0,14,0,1,
5fb7dd473afbb1033b491811,TCN,2024-06-24_17h57.56.921,LearnStrategy,2023.2.3,Win32,59.52380952,6,2,16,,,,,,,,4,09,,,,,,,,,,,2,6.939,0,,,,,,-0.138888889,-0.248148148,1,0,0,6.9387,Basalt_rect,15,0,15,0,1,
5fb7dd473afbb1033b491811,TCN,2024-06-24_17h57.56.921,LearnStrategy,2023.2.3,Win32,59.52380952,7,1,1,0.090740741,-0.011111111,1,0,0,1.1076,rock_grid_rect_2,1,06,-1,-1,1.108,-0.382407407,-0.235185185,1,0,0,4.2311,Andesite_rect,1,4.231,1,0,0,0,0,1,,,,,,,,,,,,,
5fb7dd473afbb1033b491811,TCN,2024-06-24_17h57.56.921,LearnStrategy,2023.2.3,Win32,59.52380952,7,1,2,-0.024074074,-0.008333333,1,0,0,1.1283,rock_grid_rect_2,4,08,-1,-1,1.128,-0.387037037,-0.239814815,1,0,0,2.5135,Andesite_rect,1,2.514,0,1,0,1,0,1,,,,,,,,,,,,,
5fb7dd473afbb1033b491811,TCN,2024-06-24_17h57.56.921,LearnStrategy,2023.2.3,Win32,59.52380952,7,1,3,-0.032407407,-0.012962963,1,0,0,1.0118,rock_grid_rect_2,3,08,-1,-1,1.012,0.116666667,-0.25,1,0,0,1.3931,Diorite_rect,3,1.393,1,2,0,2,0,1,,,,,,,,,,,,,
5fb7dd473afbb1033b491811,TCN,2024-06-24_17h57.56.921,LearnStrategy,2023.2.3,Win32,59.52380952,7,1,4,0.024074074,0.005555556,1,0,0,1.0934,rock_grid_rect_2,8,02,-1,-1,1.093,0.353703704,-0.40462963,1,0,0,1.4375,Pumice_rect,8,1.438,1,3,0,3,0,1,,,,,,,,,,,,,
5fb7dd473afbb1033b491811,TCN,2024-06-24_17h57.56.921,LearnStrategy,2023.2.3,Win32,59.52380952,7,1,5,0.000925926,0.005555556,1,0,0,1.0449,rock_grid_rect_2,2,01,-1,-1,1.045,-0.124074074,-0.25,1,0,0,1.1826,Basalt_rect,2,1.183,1,4,0,4,0,1,,,,,,,,,,,,,
5fb7dd473afbb1033b491811,TCN,2024-06-24_17h57.56.921,LearnStrategy,2023.2.3,Win32,59.52380952,7,1,6,0.007407407,-0.008333333,1,0,0,1.1394,rock_grid_rect_2,8,08,-1,-1,1.139,0.42037037,-0.402777778,1,0,0,1.373,Pumice_rect,8,1.373,1,5,0,5,0,1,,,,,,,,,,,,,
5fb7dd473afbb1033b491811,TCN,2024-06-24_17h57.56.921,LearnStrategy,2023.2.3,Win32,59.52380952,7,1,7,-0.008333333,-0.009259259,1,0,0,0.9753,rock_grid_rect_2,7,07,-1,-1,0.975,0.083333333,-0.400925926,1,0,0,1.3555,Peridotite_rect,7,1.356,1,6,0,6,0,1,,,,,,,,,,,,,
5fb7dd473afbb1033b491811,TCN,2024-06-24_17h57.56.921,LearnStrategy,2023.2.3,Win32,59.52380952,7,1,8,-0.032407407,-0.002777778,1,0,0,1.0672,rock_grid_rect_2,7,02,-1,-1,1.067,0.080555556,-0.412962963,1,0,0,2.1449,Peridotite_rect,7,2.145,1,7,0,7,0,1,,,,,,,,,,,,,
5fb7dd473afbb1033b491811,TCN,2024-06-24_17h57.56.921,LearnStrategy,2023.2.3,Win32,59.52380952,7,1,9,-0.010185185,-0.019444444,1,0,0,0.8621,rock_grid_rect_2,6,03,-1,-1,0.862,-0.119444444,-0.407407407,1,0,0,1.6928,Pegmatite_rect,6,1.693,1,8,0,8,0,1,,,,,,,,,,,,,
5fb7dd473afbb1033b491811,TCN,2024-06-24_17h57.56.921,LearnStrategy,2023.2.3,Win32,59.52380952,7,1,10,-0.024074074,-0.00462963,1,0,0,0.8956,rock_grid_rect_2,3,16,-1,-1,0.896,0.10462963,-0.241666667,1,0,0,1.9528,Diorite_rect,3,1.953,1,9,0,9,0,1,,,,,,,,,,,,,
5fb7dd473afbb1033b491811,TCN,2024-06-24_17h57.56.921,LearnStrategy,2023.2.3,Win32,59.52380952,7,1,11,0.047222222,-0.001851852,1,0,0,0.7976,rock_grid_rect_2,6,09,-1,-1,0.798,-0.133333333,-0.399074074,1,0,0,1.4243,Pegmatite_rect,6,1.424,1,10,0,10,0,1,,,,,,,,,,,,,
5fb7dd473afbb1033b491811,TCN,2024-06-24_17h57.56.921,LearnStrategy,2023.2.3,Win32,59.52380952,7,1,12,0.013888889,0.007407407,1,0,0,0.9802,rock_grid_rect_2,5,12,-1,-1,0.98,-0.356481481,-0.400925926,1,0,0,1.2413,Obsidian_rect,5,1.241,1,11,0,11,0,1,,,,,,,,,,,,,
5fb7dd473afbb1033b491811,TCN,2024-06-24_17h57.56.921,LearnStrategy,2023.2.3,Win32,59.52380952,7,1,13,0.082407407,0.00462963,1,0,0,0.9238,rock_grid_rect_2,2,05,-1,-1,0.924,-0.162962963,-0.237037037,1,0,0,1.3414,Basalt_rect,2,1.341,1,12,0,12,0,1,,,,,,,,,,,,,
5fb7dd473afbb1033b491811,TCN,2024-06-24_17h57.56.921,LearnStrategy,2023.2.3,Win32,59.52380952,7,1,14,0.067592593,0.016666667,1,0,0,1.2753,rock_grid_rect_2,5,11,-1,-1,1.275,-0.460185185,-0.388888889,1,0,0,1.4062,Obsidian_rect,5,1.406,1,13,0,13,0,1,,,,,,,,,,,,,
5fb7dd473afbb1033b491811,TCN,2024-06-24_17h57.56.921,LearnStrategy,2023.2.3,Win32,59.52380952,7,1,15,0.007407407,-0.007407407,1,0,0,1.2928,rock_grid_rect_2,4,11,-1,-1,1.293,0.351851852,-0.232407407,1,0,0,1.4806,Gabbro_rect,4,1.481,1,14,0,14,0,1,,,,,,,,,,,,,
5fb7dd473afbb1033b491811,TCN,2024-06-24_17h57.56.921,LearnStrategy,2023.2.3,Win32,59.52380952,7,1,16,0.05462963,-0.011111111,1,0,0,1.1532,rock_grid_rect_2,1,05,-1,-1,1.153,-0.362037037,-0.240740741,1,0,0,4.0244,Andesite_rect,1,4.024,1,15,0,15,0,1,,,,,,,,,,,,,
5fb7dd473afbb1033b491811,TCN,2024-06-24_17h57.56.921,LearnStrategy,2023.2.3,Win32,59.52380952,7,2,1,,,,,,,,1,16,,,,,,,,,,,1,2.316,1,,,,,,-0.45462963,-0.25,1,0,0,2.3161,Andesite_rect,0,0,0,0,1,
5fb7dd473afbb1033b491811,TCN,2024-06-24_17h57.56.921,LearnStrategy,2023.2.3,Win32,59.52380952,7,2,2,,,,,,,,3,15,,,,,,,,,,,4,1.615,0,,,,,,0.342592593,-0.250925926,1,0,0,1.6148,Gabbro_rect,1,0,1,0,1,
5fb7dd473afbb1033b491811,TCN,2024-06-24_17h57.56.921,LearnStrategy,2023.2.3,Win32,59.52380952,7,2,3,,,,,,,,7,06,,,,,,,,,,,7,7.321,1,,,,,,0.112962963,-0.392592593,1,0,0,7.3211,Peridotite_rect,2,0,2,0,1,
5fb7dd473afbb1033b491811,TCN,2024-06-24_17h57.56.921,LearnStrategy,2023.2.3,Win32,59.52380952,7,2,4,,,,,,,,5,08,,,,,,,,,,,5,1.413,1,,,,,,-0.350925926,-0.390740741,1,0,0,1.4135,Obsidian_rect,3,0,3,0,1,
5fb7dd473afbb1033b491811,TCN,2024-06-24_17h57.56.921,LearnStrategy,2023.2.3,Win32,59.52380952,7,2,5,,,,,,,,7,12,,,,,,,,,,,7,2.944,1,,,,,,0.117592593,-0.410185185,1,0,0,2.9443,Peridotite_rect,4,0,4,0,1,
5fb7dd473afbb1033b491811,TCN,2024-06-24_17h57.56.921,LearnStrategy,2023.2.3,Win32,59.52380952,7,2,6,,,,,,,,3,02,,,,,,,,,,,3,1.351,1,,,,,,0.119444444,-0.263888889,1,0,0,1.3508,Diorite_rect,5,0,5,0,1,
5fb7dd473afbb1033b491811,TCN,2024-06-24_17h57.56.921,LearnStrategy,2023.2.3,Win32,59.52380952,7,2,7,,,,,,,,4,16,,,,,,,,,,,4,1.411,1,,,,,,0.387037037,-0.256481481,1,0,0,1.4108,Gabbro_rect,6,0,6,0,1,
5fb7dd473afbb1033b491811,TCN,2024-06-24_17h57.56.921,LearnStrategy,2023.2.3,Win32,59.52380952,7,2,8,,,,,,,,2,12,,,,,,,,,,,2,3.327,1,,,,,,-0.136111111,-0.247222222,1,0,0,3.3267,Basalt_rect,7,0,7,0,1,
5fb7dd473afbb1033b491811,TCN,2024-06-24_17h57.56.921,LearnStrategy,2023.2.3,Win32,59.52380952,7,2,9,,,,,,,,8,04,,,,,,,,,,,8,1.321,1,,,,,,0.350925926,-0.407407407,1,0,0,1.3214,Pumice_rect,8,0,8,0,1,
5fb7dd473afbb1033b491811,TCN,2024-06-24_17h57.56.921,LearnStrategy,2023.2.3,Win32,59.52380952,7,2,10,,,,,,,,5,10,,,,,,,,,,,5,1.313,1,,,,,,-0.403703704,-0.390740741,1,0,0,1.3131,Obsidian_rect,9,0,9,0,1,
5fb7dd473afbb1033b491811,TCN,2024-06-24_17h57.56.921,LearnStrategy,2023.2.3,Win32,59.52380952,7,2,11,,,,,,,,6,16,,,,,,,,,,,6,5.769,1,,,,,,-0.171296296,-0.391666667,1,0,0,5.7687,Pegmatite_rect,10,0,10,0,1,
5fb7dd473afbb1033b491811,TCN,2024-06-24_17h57.56.921,LearnStrategy,2023.2.3,Win32,59.52380952,7,2,12,,,,,,,,6,11,,,,,,,,,,,6,1.075,1,,,,,,-0.171296296,-0.391666667,1,0,0,1.0754,Pegmatite_rect,11,0,11,0,1,
5fb7dd473afbb1033b491811,TCN,2024-06-24_17h57.56.921,LearnStrategy,2023.2.3,Win32,59.52380952,7,2,13,,,,,,,,8,13,,,,,,,,,,,8,2.498,1,,,,,,0.400925926,-0.411111111,1,0,0,2.498,Pumice_rect,12,0,12,0,1,
5fb7dd473afbb1033b491811,TCN,2024-06-24_17h57.56.921,LearnStrategy,2023.2.3,Win32,59.52380952,7,2,14,,,,,,,,4,12,,,,,,,,,,,4,1.436,1,,,,,,0.385185185,-0.253703704,1,0,0,1.4363,Gabbro_rect,13,0,13,0,1,
5fb7dd473afbb1033b491811,TCN,2024-06-24_17h57.56.921,LearnStrategy,2023.2.3,Win32,59.52380952,7,2,15,,,,,,,,2,02,,,,,,,,,,,2,1.464,1,,,,,,-0.12962963,-0.250925926,1,0,0,1.4641,Basalt_rect,14,0,14,0,1,
5fb7dd473afbb1033b491811,TCN,2024-06-24_17h57.56.921,LearnStrategy,2023.2.3,Win32,59.52380952,7,2,16,,,,,,,,1,02,,,,,,,,,,,1,1.749,1,,,,,,-0.375925926,-0.258333333,1,0,0,1.7495,Andesite_rect,15,0,15,0,1,
5fb7dd473afbb1033b491811,TCN,2024-06-24_17h57.56.921,LearnStrategy,2023.2.3,Win32,59.52380952,8,1,1,0.02037037,0.000925926,1,0,0,1.2236,rock_grid_rect_2,2,08,-1,-1,1.224,-0.12962963,-0.244444444,1,0,0,2.0189,Basalt_rect,2,2.019,1,0,0,0,0,1,,,,,,,,,,,,,
5fb7dd473afbb1033b491811,TCN,2024-06-24_17h57.56.921,LearnStrategy,2023.2.3,Win32,59.52380952,8,1,2,-0.037962963,-0.014814815,1,0,0,0.8794,rock_grid_rect_2,1,04,-1,-1,0.879,0.439814815,-0.239814815,1,0,0,3.6861,Gabbro_rect,4,3.686,0,1,0,1,0,1,,,,,,,,,,,,,
5fb7dd473afbb1033b491811,TCN,2024-06-24_17h57.56.921,LearnStrategy,2023.2.3,Win32,59.52380952,8,1,3,0.034259259,-0.006481481,1,0,0,1.0873,rock_grid_rect_2,6,05,-1,-1,1.087,-0.123148148,-0.400925926,1,0,0,2.5195,Pegmatite_rect,6,2.52,1,2,0,2,0,1,,,,,,,,,,,,,
5fb7dd473afbb1033b491811,TCN,2024-06-24_17h57.56.921,LearnStrategy,2023.2.3,Win32,59.52380952,8,1,4,-0.030555556,0.007407407,1,0,0,1.0048,rock_grid_rect_2,8,15,-1,-1,1.005,0.34537037,-0.399074074,1,0,0,1.4471,Pumice_rect,8,1.447,1,3,0,3,0,1,,,,,,,,,,,,,
5fb7dd473afbb1033b491811,TCN,2024-06-24_17h57.56.921,LearnStrategy,2023.2.3,Win32,59.52380952,8,1,5,-0.016666667,-0.006481481,1,0,0,0.9315,rock_grid_rect_2,3,09,-1,-1,0.932,0.117592593,-0.259259259,1,0,0,1.7033,Diorite_rect,3,1.703,1,4,0,4,0,1,,,,,,,,,,,,,
5fb7dd473afbb1033b491811,TCN,2024-06-24_17h57.56.921,LearnStrategy,2023.2.3,Win32,59.52380952,8,1,6,0.014814815,-0.018518519,1,0,0,1.0148,rock_grid_rect_2,7,08,-1,-1,1.015,0.083333333,-0.410185185,1,0,0,1.5199,Peridotite_rect,7,1.52,1,5,0,5,0,1,,,,,,,,,,,,,
5fb7dd473afbb1033b491811,TCN,2024-06-24_17h57.56.921,LearnStrategy,2023.2.3,Win32,59.52380952,8,1,7,0.022222222,-0.001851852,1,0,0,0.9109,rock_grid_rect_2,2,11,-1,-1,0.911,-0.146296296,-0.252777778,1,0,0,1.363,Basalt_rect,2,1.363,1,6,0,6,0,1,,,,,,,,,,,,,
5fb7dd473afbb1033b491811,TCN,2024-06-24_17h57.56.921,LearnStrategy,2023.2.3,Win32,59.52380952,8,1,8,0.00462963,-0.000925926,1,0,0,0.855,rock_grid_rect_2,4,15,-1,-1,0.855,0.390740741,-0.231481481,1,0,0,1.5121,Gabbro_rect,4,1.512,1,7,0,7,0,1,,,,,,,,,,,,,
5fb7dd473afbb1033b491811,TCN,2024-06-24_17h57.56.921,LearnStrategy,2023.2.3,Win32,59.52380952,8,1,9,0.019444444,-0.017592593,1,0,0,1.0124,rock_grid_rect_2,4,05,-1,-1,1.012,0.397222222,-0.252777778,1,0,0,3.4782,Gabbro_rect,4,3.478,1,8,0,8,0,1,,,,,,,,,,,,,
5fb7dd473afbb1033b491811,TCN,2024-06-24_17h57.56.921,LearnStrategy,2023.2.3,Win32,59.52380952,8,1,10,0.053703704,-0.012037037,1,0,0,0.9729,rock_grid_rect_2,6,06,-1,-1,0.973,-0.125925926,-0.396296296,1,0,0,1.7376,Pegmatite_rect,6,1.738,1,9,0,9,0,1,,,,,,,,,,,,,
5fb7dd473afbb1033b491811,TCN,2024-06-24_17h57.56.921,LearnStrategy,2023.2.3,Win32,59.52380952,8,1,11,-0.000925926,-0.016666667,1,0,0,0.9488,rock_grid_rect_2,1,11,-1,-1,0.949,-0.382407407,-0.244444444,1,0,0,1.5944,Andesite_rect,1,1.594,1,10,0,10,0,1,,,,,,,,,,,,,
5fb7dd473afbb1033b491811,TCN,2024-06-24_17h57.56.921,LearnStrategy,2023.2.3,Win32,59.52380952,8,1,12,-0.038888889,0.002777778,1,0,0,0.8705,rock_grid_rect_2,3,11,-1,-1,0.87,0.128703704,-0.249074074,1,0,0,2.8631,Diorite_rect,3,2.863,1,11,0,11,0,1,,,,,,,,,,,,,
5fb7dd473afbb1033b491811,TCN,2024-06-24_17h57.56.921,LearnStrategy,2023.2.3,Win32,59.52380952,8,1,13,-0.022222222,0.005555556,1,0,0,0.7845,rock_grid_rect_2,8,05,-1,-1,0.784,0.339814815,-0.39537037,1,0,0,1.5136,Pumice_rect,8,1.514,1,12,0,12,0,1,,,,,,,,,,,,,
5fb7dd473afbb1033b491811,TCN,2024-06-24_17h57.56.921,LearnStrategy,2023.2.3,Win32,59.52380952,8,1,14,0.024074074,-0.007407407,1,0,0,0.8839,rock_grid_rect_2,5,04,-1,-1,0.884,-0.358333333,-0.394444444,1,0,0,1.4057,Obsidian_rect,5,1.406,1,13,0,13,0,1,,,,,,,,,,,,,
5fb7dd473afbb1033b491811,TCN,2024-06-24_17h57.56.921,LearnStrategy,2023.2.3,Win32,59.52380952,8,1,15,-0.035185185,-0.012037037,1,0,0,0.8144,rock_grid_rect_2,5,05,-1,-1,0.814,-0.362037037,-0.389814815,1,0,0,1.5293,Obsidian_rect,5,1.529,1,14,0,14,0,1,,,,,,,,,,,,,
5fb7dd473afbb1033b491811,TCN,2024-06-24_17h57.56.921,LearnStrategy,2023.2.3,Win32,59.52380952,8,1,16,0.090740741,0.003703704,1,0,0,0.9449,rock_grid_rect_2,7,05,-1,-1,0.945,0.10462963,-0.406481481,1,0,0,1.3773,Peridotite_rect,7,1.377,1,15,0,15,0,1,,,,,,,,,,,,,
5fb7dd473afbb1033b491811,TCN,2024-06-24_17h57.56.921,LearnStrategy,2023.2.3,Win32,59.52380952,8,2,1,,,,,,,,8,10,,,,,,,,,,,8,1.534,1,,,,,,0.339814815,-0.401851852,1,0,0,1.5336,Pumice_rect,0,0,0,0,1,
5fb7dd473afbb1033b491811,TCN,2024-06-24_17h57.56.921,LearnStrategy,2023.2.3,Win32,59.52380952,8,2,2,,,,,,,,4,14,,,,,,,,,,,4,5.843,1,,,,,,0.350925926,-0.246296296,1,0,0,5.8427,Gabbro_rect,1,0,1,0,1,
5fb7dd473afbb1033b491811,TCN,2024-06-24_17h57.56.921,LearnStrategy,2023.2.3,Win32,59.52380952,8,2,3,,,,,,,,2,04,,,,,,,,,,,2,1.306,1,,,,,,-0.090740741,-0.237037037,1,0,0,1.3065,Basalt_rect,2,0,2,0,1,
5fb7dd473afbb1033b491811,TCN,2024-06-24_17h57.56.921,LearnStrategy,2023.2.3,Win32,59.52380952,8,2,4,,,,,,,,3,07,,,,,,,,,,,3,1.656,1,,,,,,0.113888889,-0.249074074,1,0,0,1.6561,Diorite_rect,3,0,3,0,1,
5fb7dd473afbb1033b491811,TCN,2024-06-24_17h57.56.921,LearnStrategy,2023.2.3,Win32,59.52380952,8,2,5,,,,,,,,1,14,,,,,,,,,,,1,6.9,1,,,,,,-0.353703704,-0.235185185,1,0,0,6.9001,Andesite_rect,4,0,4,0,1,
5fb7dd473afbb1033b491811,TCN,2024-06-24_17h57.56.921,LearnStrategy,2023.2.3,Win32,59.52380952,8,2,6,,,,,,,,5,07,,,,,,,,,,,5,1.7,1,,,,,,-0.398148148,-0.401851852,1,0,0,1.7001,Obsidian_rect,5,0,5,0,1,
5fb7dd473afbb1033b491811,TCN,2024-06-24_17h57.56.921,LearnStrategy,2023.2.3,Win32,59.52380952,8,2,7,,,,,,,,2,16,,,,,,,,,,,4,1.836,0,,,,,,0.340740741,-0.257407407,1,0,0,1.8361,Gabbro_rect,6,0,6,0,1,
5fb7dd473afbb1033b491811,TCN,2024-06-24_17h57.56.921,LearnStrategy,2023.2.3,Win32,59.52380952,8,2,8,,,,,,,,1,07,,,,,,,,,,,3,1.888,0,,,,,,0.115740741,-0.242592593,1,0,0,1.888,Diorite_rect,7,0,7,0,1,
5fb7dd473afbb1033b491811,TCN,2024-06-24_17h57.56.921,LearnStrategy,2023.2.3,Win32,59.52380952,8,2,9,,,,,,,,6,15,,,,,,,,,,,6,1.251,1,,,,,,-0.15462963,-0.399074074,1,0,0,1.2507,Pegmatite_rect,8,0,8,0,1,
5fb7dd473afbb1033b491811,TCN,2024-06-24_17h57.56.921,LearnStrategy,2023.2.3,Win32,59.52380952,8,2,10,,,,,,,,7,13,,,,,,,,,,,7,1.24,1,,,,,,0.075,-0.397222222,1,0,0,1.2402,Peridotite_rect,9,0,9,0,1,
5fb7dd473afbb1033b491811,TCN,2024-06-24_17h57.56.921,LearnStrategy,2023.2.3,Win32,59.52380952,8,2,11,,,,,,,,8,03,,,,,,,,,,,8,1.529,1,,,,,,0.357407407,-0.389814815,1,0,0,1.5295,Pumice_rect,10,0,10,0,1,
5fb7dd473afbb1033b491811,TCN,2024-06-24_17h57.56.921,LearnStrategy,2023.2.3,Win32,59.52380952,8,2,12,,,,,,,,6,07,,,,,,,,,,,6,1.364,1,,,,,,-0.164814815,-0.4,1,0,0,1.3641,Pegmatite_rect,11,0,11,0,1,
5fb7dd473afbb1033b491811,TCN,2024-06-24_17h57.56.921,LearnStrategy,2023.2.3,Win32,59.52380952,8,2,13,,,,,,,,5,06,,,,,,,,,,,5,1.304,1,,,,,,-0.382407407,-0.383333333,1,0,0,1.3041,Obsidian_rect,12,0,12,0,1,
5fb7dd473afbb1033b491811,TCN,2024-06-24_17h57.56.921,LearnStrategy,2023.2.3,Win32,59.52380952,8,2,14,,,,,,,,7,04,,,,,,,,,,,1,2.909,0,,,,,,-0.357407407,-0.252777778,1,0,0,2.9088,Andesite_rect,13,0,13,0,1,
5fb7dd473afbb1033b491811,TCN,2024-06-24_17h57.56.921,LearnStrategy,2023.2.3,Win32,59.52380952,8,2,15,,,,,,,,4,01,,,,,,,,,,,7,2.154,0,,,,,,0.102777778,-0.413888889,1,0,0,2.1538,Peridotite_rect,14,0,14,0,1,
5fb7dd473afbb1033b491811,TCN,2024-06-24_17h57.56.921,LearnStrategy,2023.2.3,Win32,59.52380952,8,2,16,,,,,,,,3,06,,,,,,,,,,,3,4.388,1,,,,,,0.107407407,-0.259259259,1,0,0,4.3879,Diorite_rect,15,0,15,0,1,
5fb7dd473afbb1033b491811,TCN,2024-06-24_17h57.56.921,LearnStrategy,2023.2.3,Win32,59.52380952,9,1,1,0.048148148,-0.012037037,1,0,0,0.8283,rock_grid_rect_2,2,06,-1,-1,0.828,-0.169444444,-0.247222222,1,0,0,1.3624,Basalt_rect,2,1.362,1,0,0,0,0,1,,,,,,,,,,,,,
5fb7dd473afbb1033b491811,TCN,2024-06-24_17h57.56.921,LearnStrategy,2023.2.3,Win32,59.52380952,9,1,2,0.027777778,-0.008333333,1,0,0,2.0701,rock_grid_rect_2,8,14,-1,-1,2.07,0.372222222,-0.405555556,1,0,0,1.3399,Pumice_rect,8,1.34,1,1,0,1,0,1,,,,,,,,,,,,,
5fb7dd473afbb1033b491811,TCN,2024-06-24_17h57.56.921,LearnStrategy,2023.2.3,Win32,59.52380952,9,1,3,-0.014814815,0.007407407,1,0,0,0.9651,rock_grid_rect_2,7,15,-1,-1,0.965,0.073148148,-0.400925926,1,0,0,1.2528,Peridotite_rect,7,1.253,1,2,0,2,0,1,,,,,,,,,,,,,
5fb7dd473afbb1033b491811,TCN,2024-06-24_17h57.56.921,LearnStrategy,2023.2.3,Win32,59.52380952,9,1,4,-0.04537037,-0.025,1,0,0,1.0484,rock_grid_rect_2,4,13,-1,-1,1.048,0.414814815,-0.237037037,1,0,0,1.6202,Gabbro_rect,4,1.62,1,3,0,3,0,1,,,,,,,,,,,,,
5fb7dd473afbb1033b491811,TCN,2024-06-24_17h57.56.921,LearnStrategy,2023.2.3,Win32,59.52380952,9,1,5,-0.011111111,0.001851852,1,0,0,0.8474,rock_grid_rect_2,1,09,-1,-1,0.847,-0.369444444,-0.25,1,0,0,2.5772,Andesite_rect,1,2.577,1,4,0,4,0,1,,,,,,,,,,,,,
5fb7dd473afbb1033b491811,TCN,2024-06-24_17h57.56.921,LearnStrategy,2023.2.3,Win32,59.52380952,9,1,6,0.000925926,-0.016666667,1,0,0,1.103,rock_grid_rect_2,3,13,-1,-1,1.103,0.122222222,-0.244444444,1,0,0,1.2778,Diorite_rect,3,1.278,1,5,0,5,0,1,,,,,,,,,,,,,
5fb7dd473afbb1033b491811,TCN,2024-06-24_17h57.56.921,LearnStrategy,2023.2.3,Win32,59.52380952,9,1,7,0.021296296,0.010185185,1,0,0,0.8348,rock_grid_rect_2,7,10,-1,-1,0.835,0.094444444,-0.390740741,1,0,0,1.414,Peridotite_rect,7,1.414,1,6,0,6,0,1,,,,,,,,,,,,,
5fb7dd473afbb1033b491811,TCN,2024-06-24_17h57.56.921,LearnStrategy,2023.2.3,Win32,59.52380952,9,1,8,-0.000925926,0.018518519,1,0,0,0.7772,rock_grid_rect_2,6,08,-1,-1,0.777,-0.140740741,-0.411111111,1,0,0,1.3391,Pegmatite_rect,6,1.339,1,7,0,7,0,1,,,,,,,,,,,,,
5fb7dd473afbb1033b491811,TCN,2024-06-24_17h57.56.921,LearnStrategy,2023.2.3,Win32,59.52380952,9,1,9,0.02962963,-0.003703704,1,0,0,0.8328,rock_grid_rect_2,5,14,-1,-1,0.833,-0.39537037,-0.407407407,1,0,0,1.425,Obsidian_rect,5,1.425,1,8,0,8,0,1,,,,,,,,,,,,,
5fb7dd473afbb1033b491811,TCN,2024-06-24_17h57.56.921,LearnStrategy,2023.2.3,Win32,59.52380952,9,1,10,0.081481481,0.018518519,1,0,0,0.7801,rock_grid_rect_2,5,16,-1,-1,0.78,-0.40462963,-0.390740741,1,0,0,1.4149,Obsidian_rect,5,1.415,1,9,0,9,0,1,,,,,,,,,,,,,
5fb7dd473afbb1033b491811,TCN,2024-06-24_17h57.56.921,LearnStrategy,2023.2.3,Win32,59.52380952,9,1,11,0.036111111,-0.007407407,1,0,0,0.8028,rock_grid_rect_2,2,14,-1,-1,0.803,0.375925926,-0.235185185,1,0,0,3.3293,Gabbro_rect,4,3.329,0,10,0,10,0,1,,,,,,,,,,,,,
5fb7dd473afbb1033b491811,TCN,2024-06-24_17h57.56.921,LearnStrategy,2023.2.3,Win32,59.52380952,9,1,12,-0.008333333,-0.003703704,1,0,0,0.9572,rock_grid_rect_2,3,14,-1,-1,0.957,0.099074074,-0.258333333,1,0,0,1.3244,Diorite_rect,3,1.324,1,11,0,11,0,1,,,,,,,,,,,,,
5fb7dd473afbb1033b491811,TCN,2024-06-24_17h57.56.921,LearnStrategy,2023.2.3,Win32,59.52380952,9,1,13,0.037962963,0.006481481,1,0,0,0.8434,rock_grid_rect_2,1,03,-1,-1,0.843,-0.401851852,-0.250925926,1,0,0,1.4034,Andesite_rect,1,1.403,1,12,0,12,0,1,,,,,,,,,,,,,
5fb7dd473afbb1033b491811,TCN,2024-06-24_17h57.56.921,LearnStrategy,2023.2.3,Win32,59.52380952,9,1,14,0.005555556,-0.021296296,1,0,0,1.0755,rock_grid_rect_2,4,03,-1,-1,1.075,0.417592593,-0.237962963,1,0,0,1.6171,Gabbro_rect,4,1.617,1,13,0,13,0,1,,,,,,,,,,,,,
5fb7dd473afbb1033b491811,TCN,2024-06-24_17h57.56.921,LearnStrategy,2023.2.3,Win32,59.52380952,9,1,15,0.008333333,-0.011111111,1,0,0,0.738,rock_grid_rect_2,8,09,-1,-1,0.738,0.340740741,-0.409259259,1,0,0,1.6503,Pumice_rect,8,1.65,1,14,0,14,0,1,,,,,,,,,,,,,
5fb7dd473afbb1033b491811,TCN,2024-06-24_17h57.56.921,LearnStrategy,2023.2.3,Win32,59.52380952,9,1,16,0,-0.006481481,1,0,0,0.9304,rock_grid_rect_2,6,12,-1,-1,0.93,0.080555556,-0.241666667,1,0,0,1.68,Diorite_rect,3,1.68,0,15,0,15,0,1,,,,,,,,,,,,,
5fb7dd473afbb1033b491811,TCN,2024-06-24_17h57.56.921,LearnStrategy,2023.2.3,Win32,59.52380952,9,2,1,,,,,,,,8,06,,,,,,,,,,,8,1.484,1,,,,,,0.363888889,-0.398148148,1,0,0,1.4842,Pumice_rect,0,0,0,0,1,
5fb7dd473afbb1033b491811,TCN,2024-06-24_17h57.56.921,LearnStrategy,2023.2.3,Win32,59.52380952,9,2,2,,,,,,,,4,10,,,,,,,,,,,1,10.456,0,,,,,,-0.371296296,-0.242592593,1,0,0,10.4564,Andesite_rect,1,0,1,0,1,
5fb7dd473afbb1033b491811,TCN,2024-06-24_17h57.56.921,LearnStrategy,2023.2.3,Win32,59.52380952,9,2,3,,,,,,,,1,10,,,,,,,,,,,2,2.236,0,,,,,,-0.134259259,-0.248148148,1,0,0,2.2361,Basalt_rect,2,0,2,0,1,
5fb7dd473afbb1033b491811,TCN,2024-06-24_17h57.56.921,LearnStrategy,2023.2.3,Win32,59.52380952,9,2,4,,,,,,,,5,02,,,,,,,,,,,5,1.46,1,,,,,,-0.365740741,-0.392592593,1,0,0,1.4605,Obsidian_rect,3,0,3,0,1,
5fb7dd473afbb1033b491811,TCN,2024-06-24_17h57.56.921,LearnStrategy,2023.2.3,Win32,59.52380952,9,2,5,,,,,,,,5,09,,,,,,,,,,,5,1.638,1,,,,,,-0.387037037,-0.398148148,1,0,0,1.6383,Obsidian_rect,4,0,4,0,1,
5fb7dd473afbb1033b491811,TCN,2024-06-24_17h57.56.921,LearnStrategy,2023.2.3,Win32,59.52380952,9,2,6,,,,,,,,2,10,,,,,,,,,,,2,1.587,1,,,,,,-0.123148148,-0.243518519,1,0,0,1.5873,Basalt_rect,5,0,5,0,1,
5fb7dd473afbb1033b491811,TCN,2024-06-24_17h57.56.921,LearnStrategy,2023.2.3,Win32,59.52380952,9,2,7,,,,,,,,8,16,,,,,,,,,,,8,1.695,1,,,,,,0.411111111,-0.402777778,1,0,0,1.6946,Pumice_rect,6,0,6,0,1,
5fb7dd473afbb1033b491811,TCN,2024-06-24_17h57.56.921,LearnStrategy,2023.2.3,Win32,59.52380952,9,2,8,,,,,,,,2,09,,,,,,,,,,,2,3.45,1,,,,,,-0.168518519,-0.253703704,1,0,0,3.4501,Basalt_rect,7,0,7,0,1,
5fb7dd473afbb1033b491811,TCN,2024-06-24_17h57.56.921,LearnStrategy,2023.2.3,Win32,59.52380952,9,2,9,,,,,,,,3,12,,,,,,,,,,,3,1.622,1,,,,,,0.073148148,-0.262962963,1,0,0,1.622,Diorite_rect,8,0,8,0,1,
5fb7dd473afbb1033b491811,TCN,2024-06-24_17h57.56.921,LearnStrategy,2023.2.3,Win32,59.52380952,9,2,10,,,,,,,,3,10,,,,,,,,,,,3,1.671,1,,,,,,0.092592593,-0.259259259,1,0,0,1.6709,Diorite_rect,9,0,9,0,1,
5fb7dd473afbb1033b491811,TCN,2024-06-24_17h57.56.921,LearnStrategy,2023.2.3,Win32,59.52380952,9,2,11,,,,,,,,7,14,,,,,,,,,,,7,1.506,1,,,,,,0.094444444,-0.399074074,1,0,0,1.5057,Peridotite_rect,10,0,10,0,1,
5fb7dd473afbb1033b491811,TCN,2024-06-24_17h57.56.921,LearnStrategy,2023.2.3,Win32,59.52380952,9,2,12,,,,,,,,6,13,,,,,,,,,,,4,6.735,0,,,,,,0.34537037,-0.260185185,1,0,0,6.735,Gabbro_rect,11,0,11,0,1,
5fb7dd473afbb1033b491811,TCN,2024-06-24_17h57.56.921,LearnStrategy,2023.2.3,Win32,59.52380952,9,2,13,,,,,,,,1,01,,,,,,,,,,,1,5.623,1,,,,,,-0.381481481,-0.251851852,1,0,0,5.6231,Andesite_rect,12,0,12,0,1,
5fb7dd473afbb1033b491811,TCN,2024-06-24_17h57.56.921,LearnStrategy,2023.2.3,Win32,59.52380952,9,2,14,,,,,,,,4,09,,,,,,,,,,,2,5.14,0,,,,,,-0.152777778,-0.261111111,1,0,0,5.1402,Basalt_rect,13,0,13,0,1,
5fb7dd473afbb1033b491811,TCN,2024-06-24_17h57.56.921,LearnStrategy,2023.2.3,Win32,59.52380952,9,2,15,,,,,,,,6,10,,,,,,,,,,,6,1.876,1,,,,,,-0.112962963,-0.40462963,1,0,0,1.8758,Pegmatite_rect,14,0,14,0,1,
5fb7dd473afbb1033b491811,TCN,2024-06-24_17h57.56.921,LearnStrategy,2023.2.3,Win32,59.52380952,9,2,16,,,,,,,,7,16,,,,,,,,,,,7,4.371,1,,,,,,0.080555556,-0.396296296,1,0,0,4.3715,Peridotite_rect,15,0,15,0,1,
5fb7dd473afbb1033b491811,TCN,2024-06-24_17h57.56.921,LearnStrategy,2023.2.3,Win32,59.52380952,,,,,,,,,,,,,,,,,,,,,,,,,,,,,,,,,,,,,,,,,,,1
5fb7dd473afbb1033b491811,TCN,2024-06-24_17h57.56.921,LearnStrategy,2023.2.3,Win32,59.52380952,,,,,,,,,,,,,,,,,,,,,,,,,,,,,,,,,,,,,,,,,,,
5fb7dd473afbb1033b491811,TCN,2024-06-24_17h57.56.921,LearnStrategy,2023.2.3,Win32,59.52380952,,,,,,,,,,,8,02,1,1,,,,,,,,,,,,,,,,,,,,,,,,,,,,,
5fb7dd473afbb1033b491811,TCN,2024-06-24_17h57.56.921,LearnStrategy,2023.2.3,Win32,59.52380952,,,,,,,,,,,3,16,1,2,,,,,,,,,,,,,,,,,,,,,,,,,,,,,
5fb7dd473afbb1033b491811,TCN,2024-06-24_17h57.56.921,LearnStrategy,2023.2.3,Win32,59.52380952,,,,,,,,,,,3,14,1,3,,,,,,,,,,,,,,,,,,,,,,,,,,,,,
5fb7dd473afbb1033b491811,TCN,2024-06-24_17h57.56.921,LearnStrategy,2023.2.3,Win32,59.52380952,,,,,,,,,,,3,09,1,4,,,,,,,,,,,,,,,,,,,,,,,,,,,,,
5fb7dd473afbb1033b491811,TCN,2024-06-24_17h57.56.921,LearnStrategy,2023.2.3,Win32,59.52380952,,,,,,,,,,,5,05,1,5,,,,,,,,,,,,,,,,,,,,,,,,,,,,,
5fb7dd473afbb1033b491811,TCN,2024-06-24_17h57.56.921,LearnStrategy,2023.2.3,Win32,59.52380952,,,,,,,,,,,5,16,1,6,,,,,,,,,,,,,,,,,,,,,,,,,,,,,
5fb7dd473afbb1033b491811,TCN,2024-06-24_17h57.56.921,LearnStrategy,2023.2.3,Win32,59.52380952,,,,,,,,,,,5,12,1,7,,,,,,,,,,,,,,,,,,,,,,,,,,,,,
5fb7dd473afbb1033b491811,TCN,2024-06-24_17h57.56.921,LearnStrategy,2023.2.3,Win32,59.52380952,,,,,,,,,,,5,04,1,8,,,,,,,,,,,,,,,,,,,,,,,,,,,,,
5fb7dd473afbb1033b491811,TCN,2024-06-24_17h57.56.921,LearnStrategy,2023.2.3,Win32,59.52380952,,,,,,,,,,,8,15,2,1,,,,,,,,,,,,,,,,,,,,,,,,,,,,,
5fb7dd473afbb1033b491811,TCN,2024-06-24_17h57.56.921,LearnStrategy,2023.2.3,Win32,59.52380952,,,,,,,,,,,8,09,2,2,,,,,,,,,,,,,,,,,,,,,,,,,,,,,
5fb7dd473afbb1033b491811,TCN,2024-06-24_17h57.56.921,LearnStrategy,2023.2.3,Win32,59.52380952,,,,,,,,,,,1,05,2,3,,,,,,,,,,,,,,,,,,,,,,,,,,,,,
5fb7dd473afbb1033b491811,TCN,2024-06-24_17h57.56.921,LearnStrategy,2023.2.3,Win32,59.52380952,,,,,,,,,,,1,03,2,4,,,,,,,,,,,,,,,,,,,,,,,,,,,,,
5fb7dd473afbb1033b491811,TCN,2024-06-24_17h57.56.921,LearnStrategy,2023.2.3,Win32,59.52380952,,,,,,,,,,,2,05,2,5,,,,,,,,,,,,,,,,,,,,,,,,,,,,,
5fb7dd473afbb1033b491811,TCN,2024-06-24_17h57.56.921,LearnStrategy,2023.2.3,Win32,59.52380952,,,,,,,,,,,4,13,2,6,,,,,,,,,,,,,,,,,,,,,,,,,,,,,
5fb7dd473afbb1033b491811,TCN,2024-06-24_17h57.56.921,LearnStrategy,2023.2.3,Win32,59.52380952,,,,,,,,,,,8,14,2,7,,,,,,,,,,,,,,,,,,,,,,,,,,,,,
5fb7dd473afbb1033b491811,TCN,2024-06-24_17h57.56.921,LearnStrategy,2023.2.3,Win32,59.52380952,,,,,,,,,,,8,08,2,8,,,,,,,,,,,,,,,,,,,,,,,,,,,,,
5fb7dd473afbb1033b491811,TCN,2024-06-24_17h57.56.921,LearnStrategy,2023.2.3,Win32,59.52380952,,,,,,,,,,,4,05,3,1,,,,,,,,,,,,,,,,,,,,,,,,,,,,,
5fb7dd473afbb1033b491811,TCN,2024-06-24_17h57.56.921,LearnStrategy,2023.2.3,Win32,59.52380952,,,,,,,,,,,2,08,3,2,,,,,,,,,,,,,,,,,,,,,,,,,,,,,
5fb7dd473afbb1033b491811,TCN,2024-06-24_17h57.56.921,LearnStrategy,2023.2.3,Win32,59.52380952,,,,,,,,,,,6,12,3,3,,,,,,,,,,,,,,,,,,,,,,,,,,,,,
5fb7dd473afbb1033b491811,TCN,2024-06-24_17h57.56.921,LearnStrategy,2023.2.3,Win32,59.52380952,,,,,,,,,,,8,05,3,4,,,,,,,,,,,,,,,,,,,,,,,,,,,,,
5fb7dd473afbb1033b491811,TCN,2024-06-24_17h57.56.921,LearnStrategy,2023.2.3,Win32,59.52380952,,,,,,,,,,,7,07,3,5,,,,,,,,,,,,,,,,,,,,,,,,,,,,,
5fb7dd473afbb1033b491811,TCN,2024-06-24_17h57.56.921,LearnStrategy,2023.2.3,Win32,59.52380952,,,,,,,,,,,4,15,3,6,,,,,,,,,,,,,,,,,,,,,,,,,,,,,
5fb7dd473afbb1033b491811,TCN,2024-06-24_17h57.56.921,LearnStrategy,2023.2.3,Win32,59.52380952,,,,,,,,,,,6,08,3,7,,,,,,,,,,,,,,,,,,,,,,,,,,,,,
5fb7dd473afbb1033b491811,TCN,2024-06-24_17h57.56.921,LearnStrategy,2023.2.3,Win32,59.52380952,,,,,,,,,,,7,05,3,8,,,,,,,,,,,,,,,,,,,,,,,,,,,,,
5fb7dd473afbb1033b491811,TCN,2024-06-24_17h57.56.921,LearnStrategy,2023.2.3,Win32,59.52380952,,,,,,,,,,,4,03,4,1,,,,,,,,,,,,,,,,,,,,,,,,,,,,,
5fb7dd473afbb1033b491811,TCN,2024-06-24_17h57.56.921,LearnStrategy,2023.2.3,Win32,59.52380952,,,,,,,,,,,6,09,4,2,,,,,,,,,,,,,,,,,,,,,,,,,,,,,
5fb7dd473afbb1033b491811,TCN,2024-06-24_17h57.56.921,LearnStrategy,2023.2.3,Win32,59.52380952,,,,,,,,,,,3,13,4,3,,,,,,,,,,,,,,,,,,,,,,,,,,,,,
5fb7dd473afbb1033b491811,TCN,2024-06-24_17h57.56.921,LearnStrategy,2023.2.3,Win32,59.52380952,,,,,,,,,,,6,05,4,4,,,,,,,,,,,,,,,,,,,,,,,,,,,,,
5fb7dd473afbb1033b491811,TCN,2024-06-24_17h57.56.921,LearnStrategy,2023.2.3,Win32,59.52380952,,,,,,,,,,,7,10,4,5,,,,,,,,,,,,,,,,,,,,,,,,,,,,,
5fb7dd473afbb1033b491811,TCN,2024-06-24_17h57.56.921,LearnStrategy,2023.2.3,Win32,59.52380952,,,,,,,,,,,1,06,4,6,,,,,,,,,,,,,,,,,,,,,,,,,,,,,
5fb7dd473afbb1033b491811,TCN,2024-06-24_17h57.56.921,LearnStrategy,2023.2.3,Win32,59.52380952,,,,,,,,,,,5,14,4,7,,,,,,,,,,,,,,,,,,,,,,,,,,,,,
5fb7dd473afbb1033b491811,TCN,2024-06-24_17h57.56.921,LearnStrategy,2023.2.3,Win32,59.52380952,,,,,,,,,,,2,11,4,8,,,,,,,,,,,,,,,,,,,,,,,,,,,,,
5fb7dd473afbb1033b491811,TCN,2024-06-24_17h57.56.921,LearnStrategy,2023.2.3,Win32,59.52380952,,,,,,,,,,,7,02,5,1,,,,,,,,,,,,,,,,,,,,,,,,,,,,,
5fb7dd473afbb1033b491811,TCN,2024-06-24_17h57.56.921,LearnStrategy,2023.2.3,Win32,59.52380952,,,,,,,,,,,4,08,5,2,,,,,,,,,,,,,,,,,,,,,,,,,,,,,
5fb7dd473afbb1033b491811,TCN,2024-06-24_17h57.56.921,LearnStrategy,2023.2.3,Win32,59.52380952,,,,,,,,,,,2,01,5,3,,,,,,,,,,,,,,,,,,,,,,,,,,,,,
5fb7dd473afbb1033b491811,TCN,2024-06-24_17h57.56.921,LearnStrategy,2023.2.3,Win32,59.52380952,,,,,,,,,,,6,06,5,4,,,,,,,,,,,,,,,,,,,,,,,,,,,,,
5fb7dd473afbb1033b491811,TCN,2024-06-24_17h57.56.921,LearnStrategy,2023.2.3,Win32,59.52380952,,,,,,,,,,,7,15,5,5,,,,,,,,,,,,,,,,,,,,,,,,,,,,,
5fb7dd473afbb1033b491811,TCN,2024-06-24_17h57.56.921,LearnStrategy,2023.2.3,Win32,59.52380952,,,,,,,,,,,1,09,5,6,,,,,,,,,,,,,,,,,,,,,,,,,,,,,
5fb7dd473afbb1033b491811,TCN,2024-06-24_17h57.56.921,LearnStrategy,2023.2.3,Win32,59.52380952,,,,,,,,,,,3,11,5,7,,,,,,,,,,,,,,,,,,,,,,,,,,,,,
5fb7dd473afbb1033b491811,TCN,2024-06-24_17h57.56.921,LearnStrategy,2023.2.3,Win32,59.52380952,,,,,,,,,,,6,03,5,8,,,,,,,,,,,,,,,,,,,,,,,,,,,,,
5fb7dd473afbb1033b491811,TCN,2024-06-24_17h57.56.921,LearnStrategy,2023.2.3,Win32,59.52380952,,,,,,,,,,,1,04,6,1,,,,,,,,,,,,,,,,,,,,,,,,,,,,,
5fb7dd473afbb1033b491811,TCN,2024-06-24_17h57.56.921,LearnStrategy,2023.2.3,Win32,59.52380952,,,,,,,,,,,2,14,6,2,,,,,,,,,,,,,,,,,,,,,,,,,,,,,
5fb7dd473afbb1033b491811,TCN,2024-06-24_17h57.56.921,LearnStrategy,2023.2.3,Win32,59.52380952,,,,,,,,,,,1,11,6,3,,,,,,,,,,,,,,,,,,,,,,,,,,,,,
5fb7dd473afbb1033b491811,TCN,2024-06-24_17h57.56.921,LearnStrategy,2023.2.3,Win32,59.52380952,,,,,,,,,,,4,11,6,4,,,,,,,,,,,,,,,,,,,,,,,,,,,,,
5fb7dd473afbb1033b491811,TCN,2024-06-24_17h57.56.921,LearnStrategy,2023.2.3,Win32,59.52380952,,,,,,,,,,,2,06,6,5,,,,,,,,,,,,,,,,,,,,,,,,,,,,,
5fb7dd473afbb1033b491811,TCN,2024-06-24_17h57.56.921,LearnStrategy,2023.2.3,Win32,59.52380952,,,,,,,,,,,7,08,6,6,,,,,,,,,,,,,,,,,,,,,,,,,,,,,
5fb7dd473afbb1033b491811,TCN,2024-06-24_17h57.56.921,LearnStrategy,2023.2.3,Win32,59.52380952,,,,,,,,,,,3,08,6,7,,,,,,,,,,,,,,,,,,,,,,,,,,,,,
5fb7dd473afbb1033b491811,TCN,2024-06-24_17h57.56.921,LearnStrategy,2023.2.3,Win32,59.52380952,,,,,,,,,,,5,11,6,8,,,,,,,,,,,,,,,,,,,,,,,,,,,,,