participant,condition,date,expName,psychopyVersion,OS,frameRate,block,phase,trial,learn_mouse.x,learn_mouse.y,learn_mouse.leftButton,learn_mouse.midButton,learn_mouse.rightButton,learn_mouse.time,learn_mouse.clicked_name,cat,token,row,col,t_select,cat_rec,token_rec,cat_mouse_l.x,cat_mouse_l.y,cat_mouse_l.leftButton,cat_mouse_l.midButton,cat_mouse_l.rightButton,cat_mouse_l.time,cat_mouse_l.clicked_name,resp,t_resp,corr,train_trials.thisRepN,train_trials.thisTrialN,train_trials.thisN,train_trials.thisIndex,train_trials.ran,cat_mouse_t.x,cat_mouse_t.y,cat_mouse_t.leftButton,cat_mouse_t.midButton,cat_mouse_t.rightButton,cat_mouse_t.time,cat_mouse_t.clicked_name,test_trials.thisRepN,test_trials.thisTrialN,test_trials.thisN,test_trials.thisIndex,test_trials.ran,Bonus
5fc0c49264908d09e94c8cd7,SCR,2024-06-20_15h30.23.120,LearnStrategy,2023.2.3,Win32,60.24096386,,,,,,,,,,,,,,,,,,,,,,,,,,,,,,,,,,,,,,,,,,,,,
5fc0c49264908d09e94c8cd7,SCR,2024-06-20_15h30.23.120,LearnStrategy,2023.2.3,Win32,60.24096386,1,1,1,0.527777778,0.427777778,1,0,0,4.4453,Obsidian_02,5,02,6,8,4.445,2,04,-0.437962963,-0.382407407,1,0,0,4.9324,Obsidian_rect,5,4.932,1,0,0,0,0,1,,,,,,,,,,,,,
5fc0c49264908d09e94c8cd7,SCR,2024-06-20_15h30.23.120,LearnStrategy,2023.2.3,Win32,60.24096386,1,1,2,-0.218518519,-0.101851852,1,0,0,2.1304,Obsidian_06,5,06,3,3,2.13,5,11,-0.07037037,-0.410185185,1,0,0,6.1601,Pegmatite_rect,6,6.16,0,1,0,1,0,1,,,,,,,,,,,,,
5fc0c49264908d09e94c8cd7,SCR,2024-06-20_15h30.23.120,LearnStrategy,2023.2.3,Win32,60.24096386,1,1,3,-0.384259259,-0.42962963,1,0,0,3.9776,Pegmatite_09,6,09,1,2,3.978,8,16,0.059259259,-0.413888889,1,0,0,5.7072,Peridotite_rect,7,5.707,0,2,0,2,0,1,,,,,,,,,,,,,
5fc0c49264908d09e94c8cd7,SCR,2024-06-20_15h30.23.120,LearnStrategy,2023.2.3,Win32,60.24096386,1,1,4,0.235185185,-0.393518519,1,0,0,6.6963,Pumice_04,8,04,1,6,6.696,5,14,0.378703704,-0.399074074,1,0,0,1.4232,Pumice_rect,8,1.423,1,3,0,3,0,1,,,,,,,,,,,,,
5fc0c49264908d09e94c8cd7,SCR,2024-06-20_15h30.23.120,LearnStrategy,2023.2.3,Win32,60.24096386,1,1,5,-0.269444444,0.241666667,1,0,0,2.2138,Obsidian_07,5,07,5,3,2.214,8,03,-0.37037037,-0.37962963,1,0,0,2.3269,Obsidian_rect,5,2.327,1,4,0,4,0,1,,,,,,,,,,,,,
5fc0c49264908d09e94c8cd7,SCR,2024-06-20_15h30.23.120,LearnStrategy,2023.2.3,Win32,60.24096386,1,1,6,-0.060185185,0.268518519,1,0,0,3.4938,Gabbro_09,4,09,5,4,3.494,2,06,-0.111111111,-0.401851852,1,0,0,4.9731,Pegmatite_rect,6,4.973,0,5,0,5,0,1,,,,,,,,,,,,,
5fc0c49264908d09e94c8cd7,SCR,2024-06-20_15h30.23.120,LearnStrategy,2023.2.3,Win32,60.24096386,1,1,7,0.394444444,0.091666667,1,0,0,3.4131,Obsidian_04,5,04,4,7,3.413,1,14,-0.410185185,-0.403703704,1,0,0,1.5067,Obsidian_rect,5,1.507,1,6,0,6,0,1,,,,,,,,,,,,,
5fc0c49264908d09e94c8cd7,SCR,2024-06-20_15h30.23.120,LearnStrategy,2023.2.3,Win32,60.24096386,1,1,8,-0.359259259,0.07962963,1,0,0,2.2965,Andesite_05,1,05,4,2,2.296,4,09,0.397222222,-0.25462963,1,0,0,4.2267,Gabbro_rect,4,4.227,0,7,0,7,0,1,,,,,,,,,,,,,
5fc0c49264908d09e94c8cd7,SCR,2024-06-20_15h30.23.120,LearnStrategy,2023.2.3,Win32,60.24096386,1,1,9,-0.568518519,0.063888889,1,0,0,2.2281,Diorite_02,3,02,4,1,2.228,7,07,-0.421296296,-0.252777778,1,0,0,1.1275,Andesite_rect,1,1.127,0,8,0,8,0,1,,,,,,,,,,,,,
5fc0c49264908d09e94c8cd7,SCR,2024-06-20_15h30.23.120,LearnStrategy,2023.2.3,Win32,60.24096386,1,1,10,-0.536111111,-0.412037037,1,0,0,6.9813,Andesite_16,1,16,1,1,6.981,1,04,0.123148148,-0.251851852,1,0,0,2.0883,Diorite_rect,3,2.088,0,9,0,9,0,1,,,,,,,,,,,,,
5fc0c49264908d09e94c8cd7,SCR,2024-06-20_15h30.23.120,LearnStrategy,2023.2.3,Win32,60.24096386,1,1,11,-0.113888889,-0.087962963,1,0,0,2.529,Andesite_14,1,14,3,4,2.529,3,06,-0.372222222,-0.250925926,1,0,0,1.4612,Andesite_rect,1,1.461,1,10,0,10,0,1,,,,,,,,,,,,,
5fc0c49264908d09e94c8cd7,SCR,2024-06-20_15h30.23.120,LearnStrategy,2023.2.3,Win32,60.24096386,1,1,12,-0.084259259,0.087037037,1,0,0,2.8811,Gabbro_14,4,14,4,4,2.881,6,15,0.073148148,-0.401851852,1,0,0,2.2396,Peridotite_rect,7,2.24,0,11,0,11,0,1,,,,,,,,,,,,,
5fc0c49264908d09e94c8cd7,SCR,2024-06-20_15h30.23.120,LearnStrategy,2023.2.3,Win32,60.24096386,1,1,13,0.248148148,0.403703704,1,0,0,2.3453,Gabbro_13,4,13,6,6,2.345,3,14,0.40462963,-0.25462963,1,0,0,0.8962,Gabbro_rect,4,0.896,1,12,0,12,0,1,,,,,,,,,,,,,
5fc0c49264908d09e94c8cd7,SCR,2024-06-20_15h30.23.120,LearnStrategy,2023.2.3,Win32,60.24096386,1,1,14,-0.385185185,0.240740741,1,0,0,1.7954,Pegmatite_15,6,15,5,2,1.795,6,06,-0.207407407,-0.228703704,1,0,0,3.0612,Basalt_rect,2,3.061,0,13,0,13,0,1,,,,,,,,,,,,,
5fc0c49264908d09e94c8cd7,SCR,2024-06-20_15h30.23.120,LearnStrategy,2023.2.3,Win32,60.24096386,1,1,15,0.052777778,-0.424074074,1,0,0,3.1588,Pegmatite_13,6,13,1,5,3.159,7,10,-0.060185185,-0.40462963,1,0,0,7.6773,Pegmatite_rect,6,7.677,1,14,0,14,0,1,,,,,,,,,,,,,
5fc0c49264908d09e94c8cd7,SCR,2024-06-20_15h30.23.120,LearnStrategy,2023.2.3,Win32,60.24096386,1,1,16,-0.555555556,-0.228703704,1,0,0,2.9953,Pumice_14,8,14,2,1,2.995,4,03,0.462037037,-0.384259259,1,0,0,1.2902,Pumice_rect,8,1.29,1,15,0,15,0,1,,,,,,,,,,,,,
5fc0c49264908d09e94c8cd7,SCR,2024-06-20_15h30.23.120,LearnStrategy,2023.2.3,Win32,60.24096386,1,2,1,,,,,,,,7,14,,,,,,,,,,,,,6,35.758,0,,,,,,-0.059259259,-0.389814815,1,0,0,35.7583,Pegmatite_rect,0,0,0,0,1,
5fc0c49264908d09e94c8cd7,SCR,2024-06-20_15h30.23.120,LearnStrategy,2023.2.3,Win32,60.24096386,1,2,2,,,,,,,,8,02,,,,,,,,,,,,,8,2.127,1,,,,,,0.409259259,-0.40462963,1,0,0,2.1275,Pumice_rect,1,0,1,0,1,
5fc0c49264908d09e94c8cd7,SCR,2024-06-20_15h30.23.120,LearnStrategy,2023.2.3,Win32,60.24096386,1,2,3,,,,,,,,8,05,,,,,,,,,,,,,8,1.243,1,,,,,,0.364814815,-0.408333333,1,0,0,1.2426,Pumice_rect,2,0,2,0,1,
5fc0c49264908d09e94c8cd7,SCR,2024-06-20_15h30.23.120,LearnStrategy,2023.2.3,Win32,60.24096386,1,2,4,,,,,,,,7,12,,,,,,,,,,,,,1,12.435,0,,,,,,-0.308333333,-0.232407407,1,0,0,12.4351,Andesite_rect,3,0,3,0,1,
5fc0c49264908d09e94c8cd7,SCR,2024-06-20_15h30.23.120,LearnStrategy,2023.2.3,Win32,60.24096386,1,2,5,,,,,,,,3,09,,,,,,,,,,,,,1,12.16,0,,,,,,-0.303703704,-0.238888889,1,0,0,12.1597,Andesite_rect,4,0,4,0,1,
5fc0c49264908d09e94c8cd7,SCR,2024-06-20_15h30.23.120,LearnStrategy,2023.2.3,Win32,60.24096386,1,2,6,,,,,,,,1,03,,,,,,,,,,,,,1,20.958,1,,,,,,-0.327777778,-0.237037037,1,0,0,20.9582,Andesite_rect,5,0,5,0,1,
5fc0c49264908d09e94c8cd7,SCR,2024-06-20_15h30.23.120,LearnStrategy,2023.2.3,Win32,60.24096386,1,2,7,,,,,,,,1,09,,,,,,,,,,,,,3,4.492,0,,,,,,0.118518519,-0.262037037,1,0,0,4.4919,Diorite_rect,6,0,6,0,1,
5fc0c49264908d09e94c8cd7,SCR,2024-06-20_15h30.23.120,LearnStrategy,2023.2.3,Win32,60.24096386,1,2,8,,,,,,,,2,14,,,,,,,,,,,,,7,5.509,0,,,,,,0.146296296,-0.384259259,1,0,0,5.5086,Peridotite_rect,7,0,7,0,1,
5fc0c49264908d09e94c8cd7,SCR,2024-06-20_15h30.23.120,LearnStrategy,2023.2.3,Win32,60.24096386,1,2,9,,,,,,,,5,05,,,,,,,,,,,,,5,2.693,1,,,,,,-0.447222222,-0.406481481,1,0,0,2.693,Obsidian_rect,8,0,8,0,1,
5fc0c49264908d09e94c8cd7,SCR,2024-06-20_15h30.23.120,LearnStrategy,2023.2.3,Win32,60.24096386,1,2,10,,,,,,,,6,08,,,,,,,,,,,,,6,11.493,1,,,,,,-0.092592593,-0.406481481,1,0,0,11.4929,Pegmatite_rect,9,0,9,0,1,
5fc0c49264908d09e94c8cd7,SCR,2024-06-20_15h30.23.120,LearnStrategy,2023.2.3,Win32,60.24096386,1,2,11,,,,,,,,5,16,,,,,,,,,,,,,5,1.242,1,,,,,,-0.353703704,-0.4,1,0,0,1.2425,Obsidian_rect,10,0,10,0,1,
5fc0c49264908d09e94c8cd7,SCR,2024-06-20_15h30.23.120,LearnStrategy,2023.2.3,Win32,60.24096386,1,2,12,,,,,,,,2,02,,,,,,,,,,,,,1,29.86,0,,,,,,-0.327777778,-0.255555556,1,0,0,29.86,Andesite_rect,11,0,11,0,1,
5fc0c49264908d09e94c8cd7,SCR,2024-06-20_15h30.23.120,LearnStrategy,2023.2.3,Win32,60.24096386,1,2,13,,,,,,,,6,07,,,,,,,,,,,,,6,5.622,1,,,,,,-0.191666667,-0.380555556,1,0,0,5.6222,Pegmatite_rect,12,0,12,0,1,
5fc0c49264908d09e94c8cd7,SCR,2024-06-20_15h30.23.120,LearnStrategy,2023.2.3,Win32,60.24096386,1,2,14,,,,,,,,3,07,,,,,,,,,,,,,3,16.558,1,,,,,,0.10462963,-0.262962963,1,0,0,16.5585,Diorite_rect,13,0,13,0,1,
5fc0c49264908d09e94c8cd7,SCR,2024-06-20_15h30.23.120,LearnStrategy,2023.2.3,Win32,60.24096386,1,2,15,,,,,,,,4,10,,,,,,,,,,,,,3,3.144,0,,,,,,0.126851852,-0.260185185,1,0,0,3.1435,Diorite_rect,14,0,14,0,1,
5fc0c49264908d09e94c8cd7,SCR,2024-06-20_15h30.23.120,LearnStrategy,2023.2.3,Win32,60.24096386,1,2,16,,,,,,,,4,15,,,,,,,,,,,,,3,4.141,0,,,,,,0.140740741,-0.267592593,1,0,0,4.1414,Diorite_rect,15,0,15,0,1,
5fc0c49264908d09e94c8cd7,SCR,2024-06-20_15h30.23.120,LearnStrategy,2023.2.3,Win32,60.24096386,2,1,1,0.267592593,0.106481481,1,0,0,3.1777,Pegmatite_03,6,03,4,6,3.178,7,02,-0.498148148,-0.252777778,1,0,0,6.0606,Andesite_rect,1,6.061,0,0,0,0,0,1,,,,,,,,,,,,,
5fc0c49264908d09e94c8cd7,SCR,2024-06-20_15h30.23.120,LearnStrategy,2023.2.3,Win32,60.24096386,2,1,2,-0.069444444,-0.113888889,1,0,0,1.6457,Andesite_14,1,14,3,4,1.646,2,16,0.061111111,-0.401851852,1,0,0,5.828,Peridotite_rect,7,5.828,0,1,0,1,0,1,,,,,,,,,,,,,
5fc0c49264908d09e94c8cd7,SCR,2024-06-20_15h30.23.120,LearnStrategy,2023.2.3,Win32,60.24096386,2,1,3,-0.094444444,0.068518519,1,0,0,1.3803,Gabbro_14,4,14,4,4,1.38,1,11,0.160185185,-0.237962963,1,0,0,1.7768,Diorite_rect,3,1.777,0,2,0,2,0,1,,,,,,,,,,,,,
5fc0c49264908d09e94c8cd7,SCR,2024-06-20_15h30.23.120,LearnStrategy,2023.2.3,Win32,60.24096386,2,1,4,0.424074074,-0.25462963,1,0,0,2.7306,Pegmatite_06,6,06,2,7,2.731,1,04,-0.421296296,-0.234259259,1,0,0,2.5608,Andesite_rect,1,2.561,0,3,0,3,0,1,,,,,,,,,,,,,
5fc0c49264908d09e94c8cd7,SCR,2024-06-20_15h30.23.120,LearnStrategy,2023.2.3,Win32,60.24096386,2,1,5,-0.376851852,0.394444444,1,0,0,3.0619,Gabbro_03,4,03,6,2,3.062,7,16,0.121296296,-0.231481481,1,0,0,3.8401,Diorite_rect,3,3.84,0,4,0,4,0,1,,,,,,,,,,,,,
5fc0c49264908d09e94c8cd7,SCR,2024-06-20_15h30.23.120,LearnStrategy,2023.2.3,Win32,60.24096386,2,1,6,-0.080555556,-0.280555556,1,0,0,2.6291,Pumice_16,8,16,2,4,2.629,3,14,0.365740741,-0.405555556,1,0,0,1.2392,Pumice_rect,8,1.239,1,5,0,5,0,1,,,,,,,,,,,,,
5fc0c49264908d09e94c8cd7,SCR,2024-06-20_15h30.23.120,LearnStrategy,2023.2.3,Win32,60.24096386,2,1,7,0.261111111,0.253703704,1,0,0,2.7805,Diorite_12,3,12,5,6,2.781,4,09,0.416666667,-0.262037037,1,0,0,2.3283,Gabbro_rect,4,2.328,0,6,0,6,0,1,,,,,,,,,,,,,
5fc0c49264908d09e94c8cd7,SCR,2024-06-20_15h30.23.120,LearnStrategy,2023.2.3,Win32,60.24096386,2,1,8,-0.574074074,-0.45,1,0,0,2.9279,Andesite_16,1,16,1,1,2.928,3,16,0.40462963,-0.237037037,1,0,0,3.8563,Gabbro_rect,4,3.856,0,7,0,7,0,1,,,,,,,,,,,,,
5fc0c49264908d09e94c8cd7,SCR,2024-06-20_15h30.23.120,LearnStrategy,2023.2.3,Win32,60.24096386,2,1,9,0.602777778,-0.412037037,1,0,0,0.93,Basalt_06,2,06,1,8,0.93,6,13,-0.422222222,-0.419444444,1,0,0,2.5776,Obsidian_rect,5,2.578,0,8,0,8,0,1,,,,,,,,,,,,,
5fc0c49264908d09e94c8cd7,SCR,2024-06-20_15h30.23.120,LearnStrategy,2023.2.3,Win32,60.24096386,2,1,10,0.058333333,0.064814815,1,0,0,1.7954,Basalt_04,2,04,4,5,1.795,2,05,-0.142592593,-0.262037037,1,0,0,1.7941,Basalt_rect,2,1.794,1,9,0,9,0,1,,,,,,,,,,,,,
5fc0c49264908d09e94c8cd7,SCR,2024-06-20_15h30.23.120,LearnStrategy,2023.2.3,Win32,60.24096386,2,1,11,-0.222222222,0.077777778,1,0,0,2.5278,Basalt_08,2,08,4,3,2.528,7,06,-0.136111111,-0.242592593,1,0,0,1.5778,Basalt_rect,2,1.578,1,10,0,10,0,1,,,,,,,,,,,,,
5fc0c49264908d09e94c8cd7,SCR,2024-06-20_15h30.23.120,LearnStrategy,2023.2.3,Win32,60.24096386,2,1,12,-0.552777778,0.392592593,1,0,0,1.1306,Basalt_05,2,05,6,1,1.131,7,02,-0.137962963,-0.241666667,1,0,0,0.6944,Basalt_rect,2,0.694,1,11,0,11,0,1,,,,,,,,,,,,,
5fc0c49264908d09e94c8cd7,SCR,2024-06-20_15h30.23.120,LearnStrategy,2023.2.3,Win32,60.24096386,2,1,13,0.368518519,0.388888889,1,0,0,2.4153,Andesite_04,1,04,6,7,2.415,1,16,0.319444444,-0.252777778,1,0,0,4.0606,Gabbro_rect,4,4.061,0,12,0,12,0,1,,,,,,,,,,,,,
5fc0c49264908d09e94c8cd7,SCR,2024-06-20_15h30.23.120,LearnStrategy,2023.2.3,Win32,60.24096386,2,1,14,0.557407407,0.25,1,0,0,4.2643,Pumice_06,8,06,5,8,4.264,4,03,0.405555556,-0.387037037,1,0,0,1.8553,Pumice_rect,8,1.855,1,13,0,13,0,1,,,,,,,,,,,,,
5fc0c49264908d09e94c8cd7,SCR,2024-06-20_15h30.23.120,LearnStrategy,2023.2.3,Win32,60.24096386,2,1,15,-0.248148148,-0.252777778,1,0,0,3.0631,Peridotite_05,7,05,2,3,3.063,4,11,-0.425,-0.240740741,1,0,0,7.6719,Andesite_rect,1,7.672,0,14,0,14,0,1,,,,,,,,,,,,,
5fc0c49264908d09e94c8cd7,SCR,2024-06-20_15h30.23.120,LearnStrategy,2023.2.3,Win32,60.24096386,2,1,16,-0.385185185,-0.423148148,1,0,0,5.7133,Pegmatite_09,6,09,1,2,5.713,2,16,-0.418518519,-0.260185185,1,0,0,0.8886,Andesite_rect,1,0.889,0,15,0,15,0,1,,,,,,,,,,,,,
5fc0c49264908d09e94c8cd7,SCR,2024-06-20_15h30.23.120,LearnStrategy,2023.2.3,Win32,60.24096386,2,2,1,,,,,,,,4,01,,,,,,,,,,,,,1,11.643,0,,,,,,-0.373148148,-0.269444444,1,0,0,11.6431,Andesite_rect,0,0,0,0,1,
5fc0c49264908d09e94c8cd7,SCR,2024-06-20_15h30.23.120,LearnStrategy,2023.2.3,Win32,60.24096386,2,2,2,,,,,,,,4,12,,,,,,,,,,,,,4,10.594,1,,,,,,0.434259259,-0.237962963,1,0,0,10.5943,Gabbro_rect,1,0,1,0,1,
5fc0c49264908d09e94c8cd7,SCR,2024-06-20_15h30.23.120,LearnStrategy,2023.2.3,Win32,60.24096386,2,2,3,,,,,,,,8,09,,,,,,,,,,,,,8,1.13,1,,,,,,0.382407407,-0.400925926,1,0,0,1.1299,Pumice_rect,2,0,2,0,1,
5fc0c49264908d09e94c8cd7,SCR,2024-06-20_15h30.23.120,LearnStrategy,2023.2.3,Win32,60.24096386,2,2,4,,,,,,,,3,08,,,,,,,,,,,,,1,26.043,0,,,,,,-0.326851852,-0.240740741,1,0,0,26.043,Andesite_rect,3,0,3,0,1,
5fc0c49264908d09e94c8cd7,SCR,2024-06-20_15h30.23.120,LearnStrategy,2023.2.3,Win32,60.24096386,2,2,5,,,,,,,,1,06,,,,,,,,,,,,,1,13.842,1,,,,,,-0.315740741,-0.236111111,1,0,0,13.8423,Andesite_rect,4,0,4,0,1,
5fc0c49264908d09e94c8cd7,SCR,2024-06-20_15h30.23.120,LearnStrategy,2023.2.3,Win32,60.24096386,2,2,6,,,,,,,,6,05,,,,,,,,,,,,,6,6.061,1,,,,,,-0.083333333,-0.390740741,1,0,0,6.0607,Pegmatite_rect,5,0,5,0,1,
5fc0c49264908d09e94c8cd7,SCR,2024-06-20_15h30.23.120,LearnStrategy,2023.2.3,Win32,60.24096386,2,2,7,,,,,,,,7,08,,,,,,,,,,,,,7,34.876,1,,,,,,0.089814815,-0.39537037,1,0,0,34.8761,Peridotite_rect,6,0,6,0,1,
5fc0c49264908d09e94c8cd7,SCR,2024-06-20_15h30.23.120,LearnStrategy,2023.2.3,Win32,60.24096386,2,2,8,,,,,,,,1,07,,,,,,,,,,,,,1,2.492,1,,,,,,-0.408333333,-0.235185185,1,0,0,2.4917,Andesite_rect,7,0,7,0,1,
5fc0c49264908d09e94c8cd7,SCR,2024-06-20_15h30.23.120,LearnStrategy,2023.2.3,Win32,60.24096386,2,2,9,,,,,,,,7,15,,,,,,,,,,,,,6,3.826,0,,,,,,-0.181481481,-0.396296296,1,0,0,3.8258,Pegmatite_rect,8,0,8,0,1,
5fc0c49264908d09e94c8cd7,SCR,2024-06-20_15h30.23.120,LearnStrategy,2023.2.3,Win32,60.24096386,2,2,10,,,,,,,,6,10,,,,,,,,,,,,,6,5.644,1,,,,,,-0.156481481,-0.402777778,1,0,0,5.6441,Pegmatite_rect,9,0,9,0,1,
5fc0c49264908d09e94c8cd7,SCR,2024-06-20_15h30.23.120,LearnStrategy,2023.2.3,Win32,60.24096386,2,2,11,,,,,,,,5,10,,,,,,,,,,,,,5,1.694,1,,,,,,-0.362037037,-0.389814815,1,0,0,1.6936,Obsidian_rect,10,0,10,0,1,
5fc0c49264908d09e94c8cd7,SCR,2024-06-20_15h30.23.120,LearnStrategy,2023.2.3,Win32,60.24096386,2,2,12,,,,,,,,2,11,,,,,,,,,,,,,8,8.709,0,,,,,,0.422222222,-0.4,1,0,0,8.7092,Pumice_rect,11,0,11,0,1,
5fc0c49264908d09e94c8cd7,SCR,2024-06-20_15h30.23.120,LearnStrategy,2023.2.3,Win32,60.24096386,2,2,13,,,,,,,,8,08,,,,,,,,,,,,,8,0.86,1,,,,,,0.418518519,-0.399074074,1,0,0,0.8604,Pumice_rect,12,0,12,0,1,
5fc0c49264908d09e94c8cd7,SCR,2024-06-20_15h30.23.120,LearnStrategy,2023.2.3,Win32,60.24096386,2,2,14,,,,,,,,3,11,,,,,,,,,,,,,3,10.329,1,,,,,,0.163888889,-0.259259259,1,0,0,10.3286,Diorite_rect,13,0,13,0,1,
5fc0c49264908d09e94c8cd7,SCR,2024-06-20_15h30.23.120,LearnStrategy,2023.2.3,Win32,60.24096386,2,2,15,,,,,,,,5,12,,,,,,,,,,,,,5,1.244,1,,,,,,-0.387962963,-0.400925926,1,0,0,1.2444,Obsidian_rect,14,0,14,0,1,
5fc0c49264908d09e94c8cd7,SCR,2024-06-20_15h30.23.120,LearnStrategy,2023.2.3,Win32,60.24096386,2,2,16,,,,,,,,2,12,,,,,,,,,,,,,8,1.595,0,,,,,,0.382407407,-0.393518519,1,0,0,1.5945,Pumice_rect,15,0,15,0,1,
5fc0c49264908d09e94c8cd7,SCR,2024-06-20_15h30.23.120,LearnStrategy,2023.2.3,Win32,60.24096386,3,1,1,0.258333333,0.069444444,1,0,0,2.1661,Pegmatite_03,6,03,4,6,2.166,7,16,-0.362962963,-0.267592593,1,0,0,2.7748,Andesite_rect,1,2.775,0,0,0,0,0,1,,,,,,,,,,,,,
5fc0c49264908d09e94c8cd7,SCR,2024-06-20_15h30.23.120,LearnStrategy,2023.2.3,Win32,60.24096386,3,1,2,-0.252777778,0.099074074,1,0,0,1.6953,Basalt_08,2,08,4,3,1.695,7,06,0.441666667,-0.243518519,1,0,0,2.1107,Gabbro_rect,4,2.111,0,1,0,1,0,1,,,,,,,,,,,,,
5fc0c49264908d09e94c8cd7,SCR,2024-06-20_15h30.23.120,LearnStrategy,2023.2.3,Win32,60.24096386,3,1,3,-0.37962963,0.063888889,1,0,0,3.8617,Andesite_05,1,05,4,2,3.862,3,13,-0.101851852,-0.258333333,1,0,0,3.3236,Basalt_rect,2,3.324,0,2,0,2,0,1,,,,,,,,,,,,,
5fc0c49264908d09e94c8cd7,SCR,2024-06-20_15h30.23.120,LearnStrategy,2023.2.3,Win32,60.24096386,3,1,4,-0.075925926,-0.100925926,1,0,0,1.1786,Andesite_14,1,14,3,4,1.179,2,09,-0.348148148,-0.253703704,1,0,0,1.1812,Andesite_rect,1,1.181,1,3,0,3,0,1,,,,,,,,,,,,,
5fc0c49264908d09e94c8cd7,SCR,2024-06-20_15h30.23.120,LearnStrategy,2023.2.3,Win32,60.24096386,3,1,5,0.037962963,-0.091666667,1,0,0,1.4154,Pumice_03,8,03,3,5,1.415,7,16,0.35,-0.405555556,1,0,0,1.1254,Pumice_rect,8,1.125,1,4,0,4,0,1,,,,,,,,,,,,,
5fc0c49264908d09e94c8cd7,SCR,2024-06-20_15h30.23.120,LearnStrategy,2023.2.3,Win32,60.24096386,3,1,6,0.214814815,-0.096296296,1,0,0,1.3151,Peridotite_06,7,06,3,6,1.315,8,03,-0.056481481,-0.381481481,1,0,0,3.7762,Pegmatite_rect,6,3.776,0,5,0,5,0,1,,,,,,,,,,,,,
5fc0c49264908d09e94c8cd7,SCR,2024-06-20_15h30.23.120,LearnStrategy,2023.2.3,Win32,60.24096386,3,1,7,0.226851852,0.082407407,1,0,0,1.2464,Pegmatite_03,6,03,4,6,1.246,2,06,0.102777778,-0.390740741,1,0,0,1.0433,Peridotite_rect,7,1.043,0,6,0,6,0,1,,,,,,,,,,,,,
5fc0c49264908d09e94c8cd7,SCR,2024-06-20_15h30.23.120,LearnStrategy,2023.2.3,Win32,60.24096386,3,1,8,-0.22037037,0.396296296,1,0,0,4.7126,Diorite_16,3,16,6,3,4.713,1,11,0.174074074,-0.385185185,1,0,0,0.9225,Peridotite_rect,7,0.922,0,7,0,7,0,1,,,,,,,,,,,,,
5fc0c49264908d09e94c8cd7,SCR,2024-06-20_15h30.23.120,LearnStrategy,2023.2.3,Win32,60.24096386,3,1,9,-0.096296296,-0.07962963,1,0,0,2.0645,Andesite_14,1,14,3,4,2.064,1,10,0.1,-0.234259259,1,0,0,3.1767,Diorite_rect,3,3.177,0,8,0,8,0,1,,,,,,,,,,,,,
5fc0c49264908d09e94c8cd7,SCR,2024-06-20_15h30.23.120,LearnStrategy,2023.2.3,Win32,60.24096386,3,1,10,0.369444444,0.230555556,1,0,0,11.7616,Gabbro_05,4,05,5,7,11.762,6,13,0.164814815,-0.250925926,1,0,0,2.5555,Diorite_rect,3,2.555,0,9,0,9,0,1,,,,,,,,,,,,,
5fc0c49264908d09e94c8cd7,SCR,2024-06-20_15h30.23.120,LearnStrategy,2023.2.3,Win32,60.24096386,3,1,11,0.412037037,0.400925926,1,0,0,2.4459,Andesite_04,1,04,6,7,2.446,4,03,0.382407407,-0.246296296,1,0,0,1.4273,Gabbro_rect,4,1.427,0,10,0,10,0,1,,,,,,,,,,,,,
5fc0c49264908d09e94c8cd7,SCR,2024-06-20_15h30.23.120,LearnStrategy,2023.2.3,Win32,60.24096386,3,1,12,-0.4,-0.080555556,1,0,0,2.2136,Gabbro_11,4,11,3,2,2.214,2,09,0.155555556,-0.251851852,1,0,0,2.2937,Diorite_rect,3,2.294,0,11,0,11,0,1,,,,,,,,,,,,,
5fc0c49264908d09e94c8cd7,SCR,2024-06-20_15h30.23.120,LearnStrategy,2023.2.3,Win32,60.24096386,3,1,13,-0.559259259,-0.112962963,1,0,0,2.0123,Diorite_06,3,06,3,1,2.012,4,13,-0.102777778,-0.262037037,1,0,0,2.8273,Basalt_rect,2,2.827,0,12,0,12,0,1,,,,,,,,,,,,,
5fc0c49264908d09e94c8cd7,SCR,2024-06-20_15h30.23.120,LearnStrategy,2023.2.3,Win32,60.24096386,3,1,14,-0.223148148,0.412037037,1,0,0,0.9294,Diorite_16,3,16,6,3,0.929,2,09,0.176851852,-0.251851852,1,0,0,0.7765,Diorite_rect,3,0.776,1,13,0,13,0,1,,,,,,,,,,,,,
5fc0c49264908d09e94c8cd7,SCR,2024-06-20_15h30.23.120,LearnStrategy,2023.2.3,Win32,60.24096386,3,1,15,0.242592593,0.076851852,1,0,0,2.3805,Pegmatite_03,6,03,4,6,2.38,3,12,0.086111111,-0.389814815,1,0,0,1.2222,Peridotite_rect,7,1.222,0,14,0,14,0,1,,,,,,,,,,,,,
5fc0c49264908d09e94c8cd7,SCR,2024-06-20_15h30.23.120,LearnStrategy,2023.2.3,Win32,60.24096386,3,1,16,-0.277777778,-0.255555556,1,0,0,2.3808,Peridotite_05,7,05,2,3,2.381,4,05,-0.183333333,-0.401851852,1,0,0,0.5582,Pegmatite_rect,6,0.558,0,15,0,15,0,1,,,,,,,,,,,,,
5fc0c49264908d09e94c8cd7,SCR,2024-06-20_15h30.23.120,LearnStrategy,2023.2.3,Win32,60.24096386,3,2,1,,,,,,,,1,02,,,,,,,,,,,,,1,18.377,1,,,,,,-0.401851852,-0.250925926,1,0,0,18.3774,Andesite_rect,0,0,0,0,1,
5fc0c49264908d09e94c8cd7,SCR,2024-06-20_15h30.23.120,LearnStrategy,2023.2.3,Win32,60.24096386,3,2,2,,,,,,,,5,09,,,,,,,,,,,,,5,1.278,1,,,,,,-0.377777778,-0.401851852,1,0,0,1.2783,Obsidian_rect,1,0,1,0,1,
5fc0c49264908d09e94c8cd7,SCR,2024-06-20_15h30.23.120,LearnStrategy,2023.2.3,Win32,60.24096386,3,2,3,,,,,,,,2,01,,,,,,,,,,,,,2,10.61,1,,,,,,-0.080555556,-0.256481481,1,0,0,10.6099,Basalt_rect,2,0,2,0,1,
5fc0c49264908d09e94c8cd7,SCR,2024-06-20_15h30.23.120,LearnStrategy,2023.2.3,Win32,60.24096386,3,2,4,,,,,,,,3,15,,,,,,,,,,,,,4,6.978,0,,,,,,0.402777778,-0.234259259,1,0,0,6.9783,Gabbro_rect,3,0,3,0,1,
5fc0c49264908d09e94c8cd7,SCR,2024-06-20_15h30.23.120,LearnStrategy,2023.2.3,Win32,60.24096386,3,2,5,,,,,,,,1,01,,,,,,,,,,,,,4,30.798,0,,,,,,0.45,-0.244444444,1,0,0,30.7976,Gabbro_rect,4,0,4,0,1,
5fc0c49264908d09e94c8cd7,SCR,2024-06-20_15h30.23.120,LearnStrategy,2023.2.3,Win32,60.24096386,3,2,6,,,,,,,,4,16,,,,,,,,,,,,,2,6.493,0,,,,,,-0.087962963,-0.22962963,1,0,0,6.4931,Basalt_rect,5,0,5,0,1,
5fc0c49264908d09e94c8cd7,SCR,2024-06-20_15h30.23.120,LearnStrategy,2023.2.3,Win32,60.24096386,3,2,7,,,,,,,,4,08,,,,,,,,,,,,,4,5.494,1,,,,,,0.441666667,-0.264814815,1,0,0,5.4939,Gabbro_rect,6,0,6,0,1,
5fc0c49264908d09e94c8cd7,SCR,2024-06-20_15h30.23.120,LearnStrategy,2023.2.3,Win32,60.24096386,3,2,8,,,,,,,,6,16,,,,,,,,,,,,,6,8.994,1,,,,,,-0.102777778,-0.383333333,1,0,0,8.9942,Pegmatite_rect,7,0,7,0,1,
5fc0c49264908d09e94c8cd7,SCR,2024-06-20_15h30.23.120,LearnStrategy,2023.2.3,Win32,60.24096386,3,2,9,,,,,,,,2,10,,,,,,,,,,,,,2,3.843,1,,,,,,-0.073148148,-0.234259259,1,0,0,3.8429,Basalt_rect,8,0,8,0,1,
5fc0c49264908d09e94c8cd7,SCR,2024-06-20_15h30.23.120,LearnStrategy,2023.2.3,Win32,60.24096386,3,2,10,,,,,,,,7,13,,,,,,,,,,,,,6,3.627,0,,,,,,-0.146296296,-0.413888889,1,0,0,3.6271,Pegmatite_rect,9,0,9,0,1,
5fc0c49264908d09e94c8cd7,SCR,2024-06-20_15h30.23.120,LearnStrategy,2023.2.3,Win32,60.24096386,3,2,11,,,,,,,,7,04,,,,,,,,,,,,,6,3.061,0,,,,,,-0.076851852,-0.406481481,1,0,0,3.0605,Pegmatite_rect,10,0,10,0,1,
5fc0c49264908d09e94c8cd7,SCR,2024-06-20_15h30.23.120,LearnStrategy,2023.2.3,Win32,60.24096386,3,2,12,,,,,,,,3,10,,,,,,,,,,,,,4,2.775,0,,,,,,0.416666667,-0.235185185,1,0,0,2.7752,Gabbro_rect,11,0,11,0,1,
5fc0c49264908d09e94c8cd7,SCR,2024-06-20_15h30.23.120,LearnStrategy,2023.2.3,Win32,60.24096386,3,2,13,,,,,,,,8,13,,,,,,,,,,,,,8,1.325,1,,,,,,0.387037037,-0.402777778,1,0,0,1.3246,Pumice_rect,12,0,12,0,1,
5fc0c49264908d09e94c8cd7,SCR,2024-06-20_15h30.23.120,LearnStrategy,2023.2.3,Win32,60.24096386,3,2,14,,,,,,,,6,11,,,,,,,,,,,,,5,2.927,0,,,,,,-0.368518519,-0.406481481,1,0,0,2.9268,Obsidian_rect,13,0,13,0,1,
5fc0c49264908d09e94c8cd7,SCR,2024-06-20_15h30.23.120,LearnStrategy,2023.2.3,Win32,60.24096386,3,2,15,,,,,,,,5,08,,,,,,,,,,,,,5,1.109,1,,,,,,-0.362037037,-0.411111111,1,0,0,1.1088,Obsidian_rect,14,0,14,0,1,
5fc0c49264908d09e94c8cd7,SCR,2024-06-20_15h30.23.120,LearnStrategy,2023.2.3,Win32,60.24096386,3,2,16,,,,,,,,8,10,,,,,,,,,,,,,8,1.36,1,,,,,,0.402777778,-0.390740741,1,0,0,1.3598,Pumice_rect,15,0,15,0,1,
5fc0c49264908d09e94c8cd7,SCR,2024-06-20_15h30.23.120,LearnStrategy,2023.2.3,Win32,60.24096386,4,1,1,-0.231481481,-0.440740741,1,0,0,5.8125,Andesite_11,1,11,1,3,5.813,1,16,-0.199074074,-0.398148148,1,0,0,1.157,Pegmatite_rect,6,1.157,0,0,0,0,0,1,,,,,,,,,,,,,
5fc0c49264908d09e94c8cd7,SCR,2024-06-20_15h30.23.120,LearnStrategy,2023.2.3,Win32,60.24096386,4,1,2,-0.075925926,0.07037037,1,0,0,1.2969,Gabbro_14,4,14,4,4,1.297,1,11,0.447222222,-0.256481481,1,0,0,1.361,Gabbro_rect,4,1.361,1,1,0,1,0,1,,,,,,,,,,,,,
5fc0c49264908d09e94c8cd7,SCR,2024-06-20_15h30.23.120,LearnStrategy,2023.2.3,Win32,60.24096386,4,1,3,0.064814815,0.057407407,1,0,0,1.9648,Basalt_04,2,04,4,5,1.965,2,04,-0.153703704,-0.243518519,1,0,0,1.5273,Basalt_rect,2,1.527,1,2,0,2,0,1,,,,,,,,,,,,,
5fc0c49264908d09e94c8cd7,SCR,2024-06-20_15h30.23.120,LearnStrategy,2023.2.3,Win32,60.24096386,4,1,4,-0.389814815,0.075925926,1,0,0,1.8805,Andesite_05,1,05,4,2,1.881,6,15,0.174074074,-0.237037037,1,0,0,1.2439,Diorite_rect,3,1.244,0,3,0,3,0,1,,,,,,,,,,,,,
5fc0c49264908d09e94c8cd7,SCR,2024-06-20_15h30.23.120,LearnStrategy,2023.2.3,Win32,60.24096386,4,1,5,-0.382407407,0.262962963,1,0,0,2.3649,Pegmatite_15,6,15,5,2,2.365,3,16,-0.156481481,-0.408333333,1,0,0,1.1109,Pegmatite_rect,6,1.111,1,4,0,4,0,1,,,,,,,,,,,,,
5fc0c49264908d09e94c8cd7,SCR,2024-06-20_15h30.23.120,LearnStrategy,2023.2.3,Win32,60.24096386,4,1,6,0.244444444,0.241666667,1,0,0,2.9291,Diorite_12,3,12,5,6,2.929,7,07,0.163888889,-0.258333333,1,0,0,1.2813,Diorite_rect,3,1.281,1,5,0,5,0,1,,,,,,,,,,,,,
5fc0c49264908d09e94c8cd7,SCR,2024-06-20_15h30.23.120,LearnStrategy,2023.2.3,Win32,60.24096386,4,1,7,-0.252777778,0.427777778,1,0,0,4.829,Diorite_16,3,16,6,3,4.829,6,03,0.132407407,-0.238888889,1,0,0,0.8405,Diorite_rect,3,0.841,1,6,0,6,0,1,,,,,,,,,,,,,
5fc0c49264908d09e94c8cd7,SCR,2024-06-20_15h30.23.120,LearnStrategy,2023.2.3,Win32,60.24096386,4,1,8,0.383333333,-0.277777778,1,0,0,7.181,Pegmatite_06,6,06,2,7,7.181,7,05,-0.116666667,-0.39537037,1,0,0,2.7219,Pegmatite_rect,6,2.722,1,7,0,7,0,1,,,,,,,,,,,,,
5fc0c49264908d09e94c8cd7,SCR,2024-06-20_15h30.23.120,LearnStrategy,2023.2.3,Win32,60.24096386,4,1,9,-0.094444444,-0.118518519,1,0,0,1.0312,Andesite_14,1,14,3,4,1.031,8,16,-0.387037037,-0.231481481,1,0,0,1.2085,Andesite_rect,1,1.208,1,8,0,8,0,1,,,,,,,,,,,,,
5fc0c49264908d09e94c8cd7,SCR,2024-06-20_15h30.23.120,LearnStrategy,2023.2.3,Win32,60.24096386,4,1,10,0.210185185,-0.099074074,1,0,0,2.0807,Peridotite_06,7,06,3,6,2.081,3,12,0.19537037,-0.4,1,0,0,3.2438,Peridotite_rect,7,3.244,1,9,0,9,0,1,,,,,,,,,,,,,
5fc0c49264908d09e94c8cd7,SCR,2024-06-20_15h30.23.120,LearnStrategy,2023.2.3,Win32,60.24096386,4,1,11,-0.575,0.089814815,1,0,0,1.9789,Diorite_02,3,02,4,1,1.979,4,09,0.162037037,-0.239814815,1,0,0,2.394,Diorite_rect,3,2.394,1,10,0,10,0,1,,,,,,,,,,,,,
5fc0c49264908d09e94c8cd7,SCR,2024-06-20_15h30.23.120,LearnStrategy,2023.2.3,Win32,60.24096386,4,1,12,0.102777778,0.259259259,1,0,0,1.3608,Diorite_14,3,14,5,5,1.361,3,12,0.142592593,-0.241666667,1,0,0,0.8449,Diorite_rect,3,0.845,1,11,0,11,0,1,,,,,,,,,,,,,
5fc0c49264908d09e94c8cd7,SCR,2024-06-20_15h30.23.120,LearnStrategy,2023.2.3,Win32,60.24096386,4,1,13,-0.057407407,0.078703704,1,0,0,1.3133,Gabbro_14,4,14,4,4,1.313,4,09,0.361111111,-0.230555556,1,0,0,1.3111,Gabbro_rect,4,1.311,1,12,0,12,0,1,,,,,,,,,,,,,
5fc0c49264908d09e94c8cd7,SCR,2024-06-20_15h30.23.120,LearnStrategy,2023.2.3,Win32,60.24096386,4,1,14,-0.209259259,0.094444444,1,0,0,1.0308,Basalt_08,2,08,4,3,1.031,4,05,-0.086111111,-0.25,1,0,0,0.8767,Basalt_rect,2,0.877,1,13,0,13,0,1,,,,,,,,,,,,,
5fc0c49264908d09e94c8cd7,SCR,2024-06-20_15h30.23.120,LearnStrategy,2023.2.3,Win32,60.24096386,4,1,15,-0.387962963,0.1,1,0,0,0.9482,Andesite_05,1,05,4,2,0.948,7,02,-0.4,-0.251851852,1,0,0,1.3435,Andesite_rect,1,1.343,1,14,0,14,0,1,,,,,,,,,,,,,
5fc0c49264908d09e94c8cd7,SCR,2024-06-20_15h30.23.120,LearnStrategy,2023.2.3,Win32,60.24096386,4,1,16,-0.533333333,0.106481481,1,0,0,1.1802,Diorite_02,3,02,4,1,1.18,2,04,0.175925926,-0.242592593,1,0,0,5.011,Diorite_rect,3,5.011,1,15,0,15,0,1,,,,,,,,,,,,,
5fc0c49264908d09e94c8cd7,SCR,2024-06-20_15h30.23.120,LearnStrategy,2023.2.3,Win32,60.24096386,4,2,1,,,,,,,,2,01,,,,,,,,,,,,,2,2.042,1,,,,,,-0.118518519,-0.25462963,1,0,0,2.0423,Basalt_rect,0,0,0,0,1,
5fc0c49264908d09e94c8cd7,SCR,2024-06-20_15h30.23.120,LearnStrategy,2023.2.3,Win32,60.24096386,4,2,2,,,,,,,,8,09,,,,,,,,,,,,,8,1.261,1,,,,,,0.357407407,-0.412962963,1,0,0,1.2608,Pumice_rect,1,0,1,0,1,
5fc0c49264908d09e94c8cd7,SCR,2024-06-20_15h30.23.120,LearnStrategy,2023.2.3,Win32,60.24096386,4,2,3,,,,,,,,6,05,,,,,,,,,,,,,6,24.276,1,,,,,,-0.089814815,-0.389814815,1,0,0,24.276,Pegmatite_rect,2,0,2,0,1,
5fc0c49264908d09e94c8cd7,SCR,2024-06-20_15h30.23.120,LearnStrategy,2023.2.3,Win32,60.24096386,4,2,4,,,,,,,,5,05,,,,,,,,,,,,,5,3.126,1,,,,,,-0.413888889,-0.389814815,1,0,0,3.126,Obsidian_rect,3,0,3,0,1,
5fc0c49264908d09e94c8cd7,SCR,2024-06-20_15h30.23.120,LearnStrategy,2023.2.3,Win32,60.24096386,4,2,5,,,,,,,,4,16,,,,,,,,,,,,,4,15.775,1,,,,,,0.363888889,-0.25462963,1,0,0,15.7753,Gabbro_rect,4,0,4,0,1,
5fc0c49264908d09e94c8cd7,SCR,2024-06-20_15h30.23.120,LearnStrategy,2023.2.3,Win32,60.24096386,4,2,6,,,,,,,,1,07,,,,,,,,,,,,,1,2.377,1,,,,,,-0.386111111,-0.263888889,1,0,0,2.3769,Andesite_rect,5,0,5,0,1,
5fc0c49264908d09e94c8cd7,SCR,2024-06-20_15h30.23.120,LearnStrategy,2023.2.3,Win32,60.24096386,4,2,7,,,,,,,,3,08,,,,,,,,,,,,,3,2.354,1,,,,,,0.150925926,-0.25462963,1,0,0,2.3538,Diorite_rect,6,0,6,0,1,
5fc0c49264908d09e94c8cd7,SCR,2024-06-20_15h30.23.120,LearnStrategy,2023.2.3,Win32,60.24096386,4,2,8,,,,,,,,7,08,,,,,,,,,,,,,7,18.378,1,,,,,,0.099074074,-0.399074074,1,0,0,18.3784,Peridotite_rect,7,0,7,0,1,
5fc0c49264908d09e94c8cd7,SCR,2024-06-20_15h30.23.120,LearnStrategy,2023.2.3,Win32,60.24096386,4,2,9,,,,,,,,3,11,,,,,,,,,,,,,2,2.277,0,,,,,,-0.07037037,-0.237962963,1,0,0,2.2769,Basalt_rect,8,0,8,0,1,
5fc0c49264908d09e94c8cd7,SCR,2024-06-20_15h30.23.120,LearnStrategy,2023.2.3,Win32,60.24096386,4,2,10,,,,,,,,4,01,,,,,,,,,,,,,3,4.508,0,,,,,,0.071296296,-0.25,1,0,0,4.5084,Diorite_rect,9,0,9,0,1,
5fc0c49264908d09e94c8cd7,SCR,2024-06-20_15h30.23.120,LearnStrategy,2023.2.3,Win32,60.24096386,4,2,11,,,,,,,,2,12,,,,,,,,,,,,,8,1.24,0,,,,,,0.463888889,-0.417592593,1,0,0,1.2403,Pumice_rect,10,0,10,0,1,
5fc0c49264908d09e94c8cd7,SCR,2024-06-20_15h30.23.120,LearnStrategy,2023.2.3,Win32,60.24096386,4,2,12,,,,,,,,6,07,,,,,,,,,,,,,7,7.328,0,,,,,,0.105555556,-0.407407407,1,0,0,7.3281,Peridotite_rect,11,0,11,0,1,
5fc0c49264908d09e94c8cd7,SCR,2024-06-20_15h30.23.120,LearnStrategy,2023.2.3,Win32,60.24096386,4,2,13,,,,,,,,1,09,,,,,,,,,,,,,1,1.903,1,,,,,,-0.438888889,-0.247222222,1,0,0,1.9035,Andesite_rect,12,0,12,0,1,
5fc0c49264908d09e94c8cd7,SCR,2024-06-20_15h30.23.120,LearnStrategy,2023.2.3,Win32,60.24096386,4,2,14,,,,,,,,5,08,,,,,,,,,,,,,5,1.325,1,,,,,,-0.422222222,-0.387037037,1,0,0,1.325,Obsidian_rect,13,0,13,0,1,
5fc0c49264908d09e94c8cd7,SCR,2024-06-20_15h30.23.120,LearnStrategy,2023.2.3,Win32,60.24096386,4,2,15,,,,,,,,7,12,,,,,,,,,,,,,7,5.312,1,,,,,,0.069444444,-0.394444444,1,0,0,5.3119,Peridotite_rect,14,0,14,0,1,
5fc0c49264908d09e94c8cd7,SCR,2024-06-20_15h30.23.120,LearnStrategy,2023.2.3,Win32,60.24096386,4,2,16,,,,,,,,8,08,,,,,,,,,,,,,8,1.338,1,,,,,,0.35462963,-0.397222222,1,0,0,1.3382,Pumice_rect,15,0,15,0,1,
5fc0c49264908d09e94c8cd7,SCR,2024-06-20_15h30.23.120,LearnStrategy,2023.2.3,Win32,60.24096386,5,1,1,0.061111111,-0.103703704,1,0,0,1.1124,Pumice_03,8,03,3,5,1.112,1,04,0.390740741,-0.410185185,1,0,0,1.0615,Pumice_rect,8,1.061,1,0,0,0,0,1,,,,,,,,,,,,,
5fc0c49264908d09e94c8cd7,SCR,2024-06-20_15h30.23.120,LearnStrategy,2023.2.3,Win32,60.24096386,5,1,2,-0.568518519,0.423148148,1,0,0,1.2634,Basalt_05,2,05,6,1,1.263,6,06,-0.131481481,-0.246296296,1,0,0,1.2784,Basalt_rect,2,1.278,1,1,0,1,0,1,,,,,,,,,,,,,
5fc0c49264908d09e94c8cd7,SCR,2024-06-20_15h30.23.120,LearnStrategy,2023.2.3,Win32,60.24096386,5,1,3,-0.400925926,0.409259259,1,0,0,1.1972,Gabbro_03,4,03,6,2,1.197,7,10,0.111111111,-0.250925926,1,0,0,3.7604,Diorite_rect,3,3.76,0,2,0,2,0,1,,,,,,,,,,,,,
5fc0c49264908d09e94c8cd7,SCR,2024-06-20_15h30.23.120,LearnStrategy,2023.2.3,Win32,60.24096386,5,1,4,-0.224074074,0.385185185,1,0,0,1.2465,Diorite_16,3,16,6,3,1.246,6,12,0.067592593,-0.249074074,1,0,0,1.361,Diorite_rect,3,1.361,1,3,0,3,0,1,,,,,,,,,,,,,
5fc0c49264908d09e94c8cd7,SCR,2024-06-20_15h30.23.120,LearnStrategy,2023.2.3,Win32,60.24096386,5,1,5,-0.109259259,0.405555556,1,0,0,1.0322,Pegmatite_12,6,12,6,4,1.032,2,16,0.099074074,-0.394444444,1,0,0,2.0434,Peridotite_rect,7,2.043,0,4,0,4,0,1,,,,,,,,,,,,,
5fc0c49264908d09e94c8cd7,SCR,2024-06-20_15h30.23.120,LearnStrategy,2023.2.3,Win32,60.24096386,5,1,6,-0.066666667,0.396296296,1,0,0,2.0954,Pegmatite_12,6,12,6,4,2.095,2,06,-0.075,-0.407407407,1,0,0,1.5495,Pegmatite_rect,6,1.55,1,5,0,5,0,1,,,,,,,,,,,,,
5fc0c49264908d09e94c8cd7,SCR,2024-06-20_15h30.23.120,LearnStrategy,2023.2.3,Win32,60.24096386,5,1,7,0.062962963,0.397222222,1,0,0,1.0145,Peridotite_02,7,02,6,5,1.014,7,10,0.082407407,-0.25462963,1,0,0,1.7604,Diorite_rect,3,1.76,0,6,0,6,0,1,,,,,,,,,,,,,
5fc0c49264908d09e94c8cd7,SCR,2024-06-20_15h30.23.120,LearnStrategy,2023.2.3,Win32,60.24096386,5,1,8,0.103703704,0.437962963,1,0,0,0.9303,Peridotite_02,7,02,6,5,0.93,3,16,0.053703704,-0.390740741,1,0,0,0.9442,Peridotite_rect,7,0.944,1,7,0,7,0,1,,,,,,,,,,,,,
5fc0c49264908d09e94c8cd7,SCR,2024-06-20_15h30.23.120,LearnStrategy,2023.2.3,Win32,60.24096386,5,1,9,0.238888889,0.42962963,1,0,0,0.8955,Gabbro_13,4,13,6,6,0.896,3,16,0.372222222,-0.237962963,1,0,0,2.1265,Gabbro_rect,4,2.127,1,8,0,8,0,1,,,,,,,,,,,,,
5fc0c49264908d09e94c8cd7,SCR,2024-06-20_15h30.23.120,LearnStrategy,2023.2.3,Win32,60.24096386,5,1,10,0.405555556,0.414814815,1,0,0,0.9793,Andesite_04,1,04,6,7,0.979,4,11,-0.363888889,-0.233333333,1,0,0,2.2775,Andesite_rect,1,2.277,1,9,0,9,0,1,,,,,,,,,,,,,
5fc0c49264908d09e94c8cd7,SCR,2024-06-20_15h30.23.120,LearnStrategy,2023.2.3,Win32,60.24096386,5,1,11,0.562037037,0.368518519,1,0,0,0.8456,Obsidian_02,5,02,6,8,0.846,5,11,-0.37962963,-0.411111111,1,0,0,0.8113,Obsidian_rect,5,0.811,1,10,0,10,0,1,,,,,,,,,,,,,
5fc0c49264908d09e94c8cd7,SCR,2024-06-20_15h30.23.120,LearnStrategy,2023.2.3,Win32,60.24096386,5,1,12,-0.562962963,0.247222222,1,0,0,1.0969,Pumice_15,8,15,5,1,1.097,3,02,0.428703704,-0.4,1,0,0,1.3274,Pumice_rect,8,1.327,1,11,0,11,0,1,,,,,,,,,,,,,
5fc0c49264908d09e94c8cd7,SCR,2024-06-20_15h30.23.120,LearnStrategy,2023.2.3,Win32,60.24096386,5,1,13,-0.397222222,0.248148148,1,0,0,0.9295,Pegmatite_15,6,15,5,2,0.929,2,08,0.091666667,-0.40462963,1,0,0,3.5268,Peridotite_rect,7,3.527,0,12,0,12,0,1,,,,,,,,,,,,,
5fc0c49264908d09e94c8cd7,SCR,2024-06-20_15h30.23.120,LearnStrategy,2023.2.3,Win32,60.24096386,5,1,14,-0.231481481,0.250925926,1,0,0,2.0771,Obsidian_07,5,07,5,3,2.077,4,11,-0.442592593,-0.390740741,1,0,0,1.7283,Obsidian_rect,5,1.728,1,13,0,13,0,1,,,,,,,,,,,,,
5fc0c49264908d09e94c8cd7,SCR,2024-06-20_15h30.23.120,LearnStrategy,2023.2.3,Win32,60.24096386,5,1,15,-0.090740741,0.25462963,1,0,0,0.9303,Gabbro_09,4,09,5,4,0.93,4,05,0.39537037,-0.244444444,1,0,0,2.0273,Gabbro_rect,4,2.027,1,14,0,14,0,1,,,,,,,,,,,,,
5fc0c49264908d09e94c8cd7,SCR,2024-06-20_15h30.23.120,LearnStrategy,2023.2.3,Win32,60.24096386,5,1,16,0.062037037,0.237962963,1,0,0,1.3469,Diorite_14,3,14,5,5,1.347,8,03,0.089814815,-0.24537037,1,0,0,1.2625,Diorite_rect,3,1.263,1,15,0,15,0,1,,,,,,,,,,,,,
5fc0c49264908d09e94c8cd7,SCR,2024-06-20_15h30.23.120,LearnStrategy,2023.2.3,Win32,60.24096386,5,2,1,,,,,,,,2,14,,,,,,,,,,,,,8,1.779,0,,,,,,0.359259259,-0.400925926,1,0,0,1.7788,Pumice_rect,0,0,0,0,1,
5fc0c49264908d09e94c8cd7,SCR,2024-06-20_15h30.23.120,LearnStrategy,2023.2.3,Win32,60.24096386,5,2,2,,,,,,,,3,10,,,,,,,,,,,,,3,28.061,1,,,,,,0.123148148,-0.24537037,1,0,0,28.0612,Diorite_rect,1,0,1,0,1,
5fc0c49264908d09e94c8cd7,SCR,2024-06-20_15h30.23.120,LearnStrategy,2023.2.3,Win32,60.24096386,5,2,3,,,,,,,,3,07,,,,,,,,,,,,,3,17.388,1,,,,,,0.136111111,-0.249074074,1,0,0,17.3882,Diorite_rect,2,0,2,0,1,
5fc0c49264908d09e94c8cd7,SCR,2024-06-20_15h30.23.120,LearnStrategy,2023.2.3,Win32,60.24096386,5,2,4,,,,,,,,7,15,,,,,,,,,,,,,7,8.004,1,,,,,,0.116666667,-0.391666667,1,0,0,8.0041,Peridotite_rect,3,0,3,0,1,
5fc0c49264908d09e94c8cd7,SCR,2024-06-20_15h30.23.120,LearnStrategy,2023.2.3,Win32,60.24096386,5,2,5,,,,,,,,4,15,,,,,,,,,,,,,4,2.709,1,,,,,,0.362037037,-0.262962963,1,0,0,2.7089,Gabbro_rect,4,0,4,0,1,
5fc0c49264908d09e94c8cd7,SCR,2024-06-20_15h30.23.120,LearnStrategy,2023.2.3,Win32,60.24096386,5,2,6,,,,,,,,7,04,,,,,,,,,,,,,4,109.141,0,,,,,,0.412037037,-0.259259259,1,0,0,109.141,Gabbro_rect,5,0,5,0,1,
5fc0c49264908d09e94c8cd7,SCR,2024-06-20_15h30.23.120,LearnStrategy,2023.2.3,Win32,60.24096386,5,2,7,,,,,,,,6,10,,,,,,,,,,,,,6,8.009,1,,,,,,-0.2,-0.409259259,1,0,0,8.0092,Pegmatite_rect,6,0,6,0,1,
5fc0c49264908d09e94c8cd7,SCR,2024-06-20_15h30.23.120,LearnStrategy,2023.2.3,Win32,60.24096386,5,2,8,,,,,,,,1,03,,,,,,,,,,,,,1,3.195,1,,,,,,-0.384259259,-0.252777778,1,0,0,3.1951,Andesite_rect,7,0,7,0,1,
5fc0c49264908d09e94c8cd7,SCR,2024-06-20_15h30.23.120,LearnStrategy,2023.2.3,Win32,60.24096386,5,2,9,,,,,,,,4,08,,,,,,,,,,,,,4,1.659,1,,,,,,0.386111111,-0.247222222,1,0,0,1.6586,Gabbro_rect,8,0,8,0,1,
5fc0c49264908d09e94c8cd7,SCR,2024-06-20_15h30.23.120,LearnStrategy,2023.2.3,Win32,60.24096386,5,2,10,,,,,,,,1,06,,,,,,,,,,,,,1,1.394,1,,,,,,-0.398148148,-0.262037037,1,0,0,1.3935,Andesite_rect,9,0,9,0,1,
5fc0c49264908d09e94c8cd7,SCR,2024-06-20_15h30.23.120,LearnStrategy,2023.2.3,Win32,60.24096386,5,2,11,,,,,,,,8,05,,,,,,,,,,,,,8,1.176,1,,,,,,0.362037037,-0.40462963,1,0,0,1.176,Pumice_rect,10,0,10,0,1,
5fc0c49264908d09e94c8cd7,SCR,2024-06-20_15h30.23.120,LearnStrategy,2023.2.3,Win32,60.24096386,5,2,12,,,,,,,,6,11,,,,,,,,,,,,,5,2.644,0,,,,,,-0.417592593,-0.384259259,1,0,0,2.6444,Obsidian_rect,11,0,11,0,1,
5fc0c49264908d09e94c8cd7,SCR,2024-06-20_15h30.23.120,LearnStrategy,2023.2.3,Win32,60.24096386,5,2,13,,,,,,,,5,09,,,,,,,,,,,,,5,0.739,1,,,,,,-0.417592593,-0.384259259,1,0,0,0.7395,Obsidian_rect,12,0,12,0,1,
5fc0c49264908d09e94c8cd7,SCR,2024-06-20_15h30.23.120,LearnStrategy,2023.2.3,Win32,60.24096386,5,2,14,,,,,,,,8,02,,,,,,,,,,,,,8,1.244,1,,,,,,0.39537037,-0.397222222,1,0,0,1.2435,Pumice_rect,13,0,13,0,1,
5fc0c49264908d09e94c8cd7,SCR,2024-06-20_15h30.23.120,LearnStrategy,2023.2.3,Win32,60.24096386,5,2,15,,,,,,,,2,11,,,,,,,,,,,,,8,2.461,0,,,,,,0.414814815,-0.407407407,1,0,0,2.4609,Pumice_rect,14,0,14,0,1,
5fc0c49264908d09e94c8cd7,SCR,2024-06-20_15h30.23.120,LearnStrategy,2023.2.3,Win32,60.24096386,5,2,16,,,,,,,,5,12,,,,,,,,,,,,,5,1.09,1,,,,,,-0.441666667,-0.381481481,1,0,0,1.0896,Obsidian_rect,15,0,15,0,1,
5fc0c49264908d09e94c8cd7,SCR,2024-06-20_15h30.23.120,LearnStrategy,2023.2.3,Win32,60.24096386,6,1,1,0.221296296,0.25462963,1,0,0,2.7475,Diorite_12,3,12,5,6,2.747,2,08,0.193518519,-0.246296296,1,0,0,1.6276,Diorite_rect,3,1.628,1,0,0,0,0,1,,,,,,,,,,,,,
5fc0c49264908d09e94c8cd7,SCR,2024-06-20_15h30.23.120,LearnStrategy,2023.2.3,Win32,60.24096386,6,1,2,0.417592593,0.248148148,1,0,0,1.015,Gabbro_05,4,05,5,7,1.015,3,06,0.424074074,-0.247222222,1,0,0,1.9771,Gabbro_rect,4,1.977,1,1,0,1,0,1,,,,,,,,,,,,,
5fc0c49264908d09e94c8cd7,SCR,2024-06-20_15h30.23.120,LearnStrategy,2023.2.3,Win32,60.24096386,6,1,3,0.558333333,0.235185185,1,0,0,0.9964,Pumice_06,8,06,5,8,0.996,7,02,0.380555556,-0.4,1,0,0,1.626,Pumice_rect,8,1.626,1,2,0,2,0,1,,,,,,,,,,,,,
5fc0c49264908d09e94c8cd7,SCR,2024-06-20_15h30.23.120,LearnStrategy,2023.2.3,Win32,60.24096386,6,1,4,-0.588888889,0.087962963,1,0,0,1.2308,Diorite_02,3,02,4,1,1.231,1,04,0.144444444,-0.247222222,1,0,0,1.8605,Diorite_rect,3,1.861,1,3,0,3,0,1,,,,,,,,,,,,,
5fc0c49264908d09e94c8cd7,SCR,2024-06-20_15h30.23.120,LearnStrategy,2023.2.3,Win32,60.24096386,6,1,5,-0.412962963,0.098148148,1,0,0,1.0304,Andesite_05,1,05,4,2,1.03,6,13,-0.409259259,-0.265740741,1,0,0,0.7439,Andesite_rect,1,0.744,1,4,0,4,0,1,,,,,,,,,,,,,
5fc0c49264908d09e94c8cd7,SCR,2024-06-20_15h30.23.120,LearnStrategy,2023.2.3,Win32,60.24096386,6,1,6,-0.251851852,0.064814815,1,0,0,0.9161,Basalt_08,2,08,4,3,0.916,2,06,-0.199074074,-0.238888889,1,0,0,1.7934,Basalt_rect,2,1.793,1,5,0,5,0,1,,,,,,,,,,,,,
5fc0c49264908d09e94c8cd7,SCR,2024-06-20_15h30.23.120,LearnStrategy,2023.2.3,Win32,60.24096386,6,1,7,-0.073148148,0.064814815,1,0,0,0.9308,Gabbro_14,4,14,4,4,0.931,2,16,0.396296296,-0.242592593,1,0,0,1.8776,Gabbro_rect,4,1.878,1,6,0,6,0,1,,,,,,,,,,,,,
5fc0c49264908d09e94c8cd7,SCR,2024-06-20_15h30.23.120,LearnStrategy,2023.2.3,Win32,60.24096386,6,1,8,0.043518519,0.069444444,1,0,0,0.8435,Basalt_04,2,04,4,5,0.844,4,09,-0.174074074,-0.24537037,1,0,0,1.0444,Basalt_rect,2,1.044,1,7,0,7,0,1,,,,,,,,,,,,,
5fc0c49264908d09e94c8cd7,SCR,2024-06-20_15h30.23.120,LearnStrategy,2023.2.3,Win32,60.24096386,6,1,9,0.233333333,0.075,1,0,0,0.8646,Pegmatite_03,6,03,4,6,0.865,7,07,-0.121296296,-0.411111111,1,0,0,0.9281,Pegmatite_rect,6,0.928,1,8,0,8,0,1,,,,,,,,,,,,,
5fc0c49264908d09e94c8cd7,SCR,2024-06-20_15h30.23.120,LearnStrategy,2023.2.3,Win32,60.24096386,6,1,10,0.406481481,0.081481481,1,0,0,1.1311,Obsidian_04,5,04,4,7,1.131,6,15,-0.337037037,-0.385185185,1,0,0,1.5445,Obsidian_rect,5,1.544,1,9,0,9,0,1,,,,,,,,,,,,,
5fc0c49264908d09e94c8cd7,SCR,2024-06-20_15h30.23.120,LearnStrategy,2023.2.3,Win32,60.24096386,6,1,11,0.581481481,0.111111111,1,0,0,0.9625,Andesite_10,1,10,4,8,0.962,3,13,-0.451851852,-0.257407407,1,0,0,1.7776,Andesite_rect,1,1.778,1,10,0,10,0,1,,,,,,,,,,,,,
5fc0c49264908d09e94c8cd7,SCR,2024-06-20_15h30.23.120,LearnStrategy,2023.2.3,Win32,60.24096386,6,1,12,-0.54537037,-0.123148148,1,0,0,1.0654,Diorite_06,3,06,3,1,1.065,2,08,0.084259259,-0.246296296,1,0,0,2.0271,Diorite_rect,3,2.027,1,11,0,11,0,1,,,,,,,,,,,,,
5fc0c49264908d09e94c8cd7,SCR,2024-06-20_15h30.23.120,LearnStrategy,2023.2.3,Win32,60.24096386,6,1,13,-0.381481481,-0.074074074,1,0,0,0.8957,Gabbro_11,4,11,3,2,0.896,7,05,0.422222222,-0.247222222,1,0,0,1.9609,Gabbro_rect,4,1.961,1,12,0,12,0,1,,,,,,,,,,,,,
5fc0c49264908d09e94c8cd7,SCR,2024-06-20_15h30.23.120,LearnStrategy,2023.2.3,Win32,60.24096386,6,1,14,-0.241666667,-0.114814815,1,0,0,1.0824,Obsidian_06,5,06,3,3,1.082,4,09,-0.388888889,-0.403703704,1,0,0,0.8105,Obsidian_rect,5,0.811,1,13,0,13,0,1,,,,,,,,,,,,,
5fc0c49264908d09e94c8cd7,SCR,2024-06-20_15h30.23.120,LearnStrategy,2023.2.3,Win32,60.24096386,6,1,15,-0.090740741,-0.086111111,1,0,0,0.9979,Andesite_14,1,14,3,4,0.998,8,16,-0.394444444,-0.238888889,1,0,0,0.9601,Andesite_rect,1,0.96,1,14,0,14,0,1,,,,,,,,,,,,,
5fc0c49264908d09e94c8cd7,SCR,2024-06-20_15h30.23.120,LearnStrategy,2023.2.3,Win32,60.24096386,6,1,16,0.107407407,-0.116666667,1,0,0,0.7311,Pumice_03,8,03,3,5,0.731,5,11,0.39537037,-0.412037037,1,0,0,1.7507,Pumice_rect,8,1.751,1,15,0,15,0,1,,,,,,,,,,,,,
5fc0c49264908d09e94c8cd7,SCR,2024-06-20_15h30.23.120,LearnStrategy,2023.2.3,Win32,60.24096386,6,2,1,,,,,,,,6,16,,,,,,,,,,,,,6,3.293,1,,,,,,-0.125,-0.408333333,1,0,0,3.2934,Pegmatite_rect,0,0,0,0,1,
5fc0c49264908d09e94c8cd7,SCR,2024-06-20_15h30.23.120,LearnStrategy,2023.2.3,Win32,60.24096386,6,2,2,,,,,,,,8,10,,,,,,,,,,,,,8,1.206,1,,,,,,0.401851852,-0.4,1,0,0,1.2059,Pumice_rect,1,0,1,0,1,
5fc0c49264908d09e94c8cd7,SCR,2024-06-20_15h30.23.120,LearnStrategy,2023.2.3,Win32,60.24096386,6,2,3,,,,,,,,8,13,,,,,,,,,,,,,8,1.624,1,,,,,,0.387037037,-0.402777778,1,0,0,1.6243,Pumice_rect,2,0,2,0,1,
5fc0c49264908d09e94c8cd7,SCR,2024-06-20_15h30.23.120,LearnStrategy,2023.2.3,Win32,60.24096386,6,2,4,,,,,,,,2,10,,,,,,,,,,,,,2,1.359,1,,,,,,-0.078703704,-0.260185185,1,0,0,1.359,Basalt_rect,3,0,3,0,1,
5fc0c49264908d09e94c8cd7,SCR,2024-06-20_15h30.23.120,LearnStrategy,2023.2.3,Win32,60.24096386,6,2,5,,,,,,,,7,14,,,,,,,,,,,,,3,14.644,0,,,,,,0.14537037,-0.262962963,1,0,0,14.6439,Diorite_rect,4,0,4,0,1,
5fc0c49264908d09e94c8cd7,SCR,2024-06-20_15h30.23.120,LearnStrategy,2023.2.3,Win32,60.24096386,6,2,6,,,,,,,,5,16,,,,,,,,,,,,,5,1.341,1,,,,,,-0.421296296,-0.398148148,1,0,0,1.3405,Obsidian_rect,5,0,5,0,1,
5fc0c49264908d09e94c8cd7,SCR,2024-06-20_15h30.23.120,LearnStrategy,2023.2.3,Win32,60.24096386,6,2,7,,,,,,,,2,02,,,,,,,,,,,,,2,3.292,1,,,,,,-0.127777778,-0.255555556,1,0,0,3.2915,Basalt_rect,6,0,6,0,1,
5fc0c49264908d09e94c8cd7,SCR,2024-06-20_15h30.23.120,LearnStrategy,2023.2.3,Win32,60.24096386,6,2,8,,,,,,,,5,10,,,,,,,,,,,,,5,0.956,1,,,,,,-0.394444444,-0.418518519,1,0,0,0.9558,Obsidian_rect,7,0,7,0,1,
5fc0c49264908d09e94c8cd7,SCR,2024-06-20_15h30.23.120,LearnStrategy,2023.2.3,Win32,60.24096386,6,2,9,,,,,,,,4,12,,,,,,,,,,,,,4,1.792,1,,,,,,0.474074074,-0.230555556,1,0,0,1.7916,Gabbro_rect,8,0,8,0,1,
5fc0c49264908d09e94c8cd7,SCR,2024-06-20_15h30.23.120,LearnStrategy,2023.2.3,Win32,60.24096386,6,2,10,,,,,,,,4,10,,,,,,,,,,,,,4,2.595,1,,,,,,0.364814815,-0.236111111,1,0,0,2.5947,Gabbro_rect,9,0,9,0,1,
5fc0c49264908d09e94c8cd7,SCR,2024-06-20_15h30.23.120,LearnStrategy,2023.2.3,Win32,60.24096386,6,2,11,,,,,,,,7,13,,,,,,,,,,,,,7,3.306,1,,,,,,0.1,-0.389814815,1,0,0,3.3063,Peridotite_rect,10,0,10,0,1,
5fc0c49264908d09e94c8cd7,SCR,2024-06-20_15h30.23.120,LearnStrategy,2023.2.3,Win32,60.24096386,6,2,12,,,,,,,,6,08,,,,,,,,,,,,,6,1.224,1,,,,,,-0.103703704,-0.384259259,1,0,0,1.2236,Pegmatite_rect,11,0,11,0,1,
5fc0c49264908d09e94c8cd7,SCR,2024-06-20_15h30.23.120,LearnStrategy,2023.2.3,Win32,60.24096386,6,2,13,,,,,,,,3,09,,,,,,,,,,,,,3,1.537,1,,,,,,0.126851852,-0.259259259,1,0,0,1.5374,Diorite_rect,12,0,12,0,1,
5fc0c49264908d09e94c8cd7,SCR,2024-06-20_15h30.23.120,LearnStrategy,2023.2.3,Win32,60.24096386,6,2,14,,,,,,,,1,01,,,,,,,,,,,,,1,7.71,1,,,,,,-0.446296296,-0.250925926,1,0,0,7.7103,Andesite_rect,13,0,13,0,1,
5fc0c49264908d09e94c8cd7,SCR,2024-06-20_15h30.23.120,LearnStrategy,2023.2.3,Win32,60.24096386,6,2,15,,,,,,,,3,15,,,,,,,,,,,,,3,1.324,1,,,,,,0.101851852,-0.252777778,1,0,0,1.3237,Diorite_rect,14,0,14,0,1,
5fc0c49264908d09e94c8cd7,SCR,2024-06-20_15h30.23.120,LearnStrategy,2023.2.3,Win32,60.24096386,6,2,16,,,,,,,,1,02,,,,,,,,,,,,,1,2.06,1,,,,,,-0.430555556,-0.252777778,1,0,0,2.0603,Andesite_rect,15,0,15,0,1,
5fc0c49264908d09e94c8cd7,SCR,2024-06-20_15h30.23.120,LearnStrategy,2023.2.3,Win32,60.24096386,7,1,1,0.07962963,-0.089814815,1,0,0,4.415,Pumice_03,8,03,3,5,4.415,7,06,0.447222222,-0.410185185,1,0,0,1.4383,Pumice_rect,8,1.438,1,0,0,0,0,1,,,,,,,,,,,,,
5fc0c49264908d09e94c8cd7,SCR,2024-06-20_15h30.23.120,LearnStrategy,2023.2.3,Win32,60.24096386,7,1,2,0.234259259,-0.088888889,1,0,0,0.7301,Peridotite_06,7,06,3,6,0.73,2,16,0.157407407,-0.393518519,1,0,0,2.044,Peridotite_rect,7,2.044,1,1,0,1,0,1,,,,,,,,,,,,,
5fc0c49264908d09e94c8cd7,SCR,2024-06-20_15h30.23.120,LearnStrategy,2023.2.3,Win32,60.24096386,7,1,3,0.425925926,-0.086111111,1,0,0,1.0292,Obsidian_11,5,11,3,7,1.029,8,15,-0.333333333,-0.418518519,1,0,0,0.6438,Obsidian_rect,5,0.644,1,2,0,2,0,1,,,,,,,,,,,,,
5fc0c49264908d09e94c8cd7,SCR,2024-06-20_15h30.23.120,LearnStrategy,2023.2.3,Win32,60.24096386,7,1,4,0.584259259,-0.087037037,1,0,0,1.6316,Peridotite_10,7,10,3,8,1.632,2,06,0.177777778,-0.408333333,1,0,0,3.0947,Peridotite_rect,7,3.095,1,3,0,3,0,1,,,,,,,,,,,,,
5fc0c49264908d09e94c8cd7,SCR,2024-06-20_15h30.23.120,LearnStrategy,2023.2.3,Win32,60.24096386,7,1,5,-0.569444444,-0.24537037,1,0,0,3.7625,Pumice_14,8,14,2,1,3.763,7,16,0.381481481,-0.400925926,1,0,0,0.7522,Pumice_rect,8,0.752,1,4,0,4,0,1,,,,,,,,,,,,,
5fc0c49264908d09e94c8cd7,SCR,2024-06-20_15h30.23.120,LearnStrategy,2023.2.3,Win32,60.24096386,7,1,6,-0.380555556,-0.272222222,1,0,0,0.798,Obsidian_14,5,14,2,2,0.798,7,02,-0.397222222,-0.388888889,1,0,0,1.8271,Obsidian_rect,5,1.827,1,5,0,5,0,1,,,,,,,,,,,,,
5fc0c49264908d09e94c8cd7,SCR,2024-06-20_15h30.23.120,LearnStrategy,2023.2.3,Win32,60.24096386,7,1,7,-0.246296296,-0.260185185,1,0,0,1.0814,Peridotite_05,7,05,2,3,1.081,4,05,0.076851852,-0.397222222,1,0,0,1.7939,Peridotite_rect,7,1.794,1,6,0,6,0,1,,,,,,,,,,,,,
5fc0c49264908d09e94c8cd7,SCR,2024-06-20_15h30.23.120,LearnStrategy,2023.2.3,Win32,60.24096386,7,1,8,-0.077777778,-0.253703704,1,0,0,1.1956,Pumice_16,8,16,2,4,1.196,1,14,0.352777778,-0.394444444,1,0,0,1.5601,Pumice_rect,8,1.56,1,7,0,7,0,1,,,,,,,,,,,,,
5fc0c49264908d09e94c8cd7,SCR,2024-06-20_15h30.23.120,LearnStrategy,2023.2.3,Win32,60.24096386,7,1,9,0.085185185,-0.266666667,1,0,0,1.113,Peridotite_07,7,07,2,5,1.113,2,08,0.076851852,-0.403703704,1,0,0,2.3034,Peridotite_rect,7,2.303,1,8,0,8,0,1,,,,,,,,,,,,,
5fc0c49264908d09e94c8cd7,SCR,2024-06-20_15h30.23.120,LearnStrategy,2023.2.3,Win32,60.24096386,7,1,10,0.225925926,-0.253703704,1,0,0,1.0811,Basalt_09,2,09,2,6,1.081,5,07,-0.080555556,-0.241666667,1,0,0,1.8592,Basalt_rect,2,1.859,1,9,0,9,0,1,,,,,,,,,,,,,
5fc0c49264908d09e94c8cd7,SCR,2024-06-20_15h30.23.120,LearnStrategy,2023.2.3,Win32,60.24096386,7,1,11,0.282407407,-0.271296296,1,0,0,0.8334,Basalt_09,2,09,2,6,0.833,7,07,-0.087962963,-0.244444444,1,0,0,3.6429,Basalt_rect,2,3.643,1,10,0,10,0,1,,,,,,,,,,,,,
5fc0c49264908d09e94c8cd7,SCR,2024-06-20_15h30.23.120,LearnStrategy,2023.2.3,Win32,60.24096386,7,1,12,0.396296296,-0.269444444,1,0,0,0.9629,Pegmatite_06,6,06,2,7,0.963,6,15,-0.102777778,-0.40462963,1,0,0,1.027,Pegmatite_rect,6,1.027,1,11,0,11,0,1,,,,,,,,,,,,,
5fc0c49264908d09e94c8cd7,SCR,2024-06-20_15h30.23.120,LearnStrategy,2023.2.3,Win32,60.24096386,7,1,13,0.591666667,-0.256481481,1,0,0,1.0974,Diorite_13,3,13,2,8,1.097,3,02,0.15,-0.22962963,1,0,0,1.2428,Diorite_rect,3,1.243,1,12,0,12,0,1,,,,,,,,,,,,,
5fc0c49264908d09e94c8cd7,SCR,2024-06-20_15h30.23.120,LearnStrategy,2023.2.3,Win32,60.24096386,7,1,14,-0.567592593,-0.387962963,1,0,0,1.7788,Andesite_16,1,16,1,1,1.779,6,09,-0.410185185,-0.253703704,1,0,0,1.1776,Andesite_rect,1,1.178,1,13,0,13,0,1,,,,,,,,,,,,,
5fc0c49264908d09e94c8cd7,SCR,2024-06-20_15h30.23.120,LearnStrategy,2023.2.3,Win32,60.24096386,7,1,15,-0.426851852,-0.424074074,1,0,0,0.8809,Pegmatite_09,6,09,1,2,0.881,4,09,-0.106481481,-0.421296296,1,0,0,0.6777,Pegmatite_rect,6,0.678,1,14,0,14,0,1,,,,,,,,,,,,,
5fc0c49264908d09e94c8cd7,SCR,2024-06-20_15h30.23.120,LearnStrategy,2023.2.3,Win32,60.24096386,7,1,16,-0.243518519,-0.418518519,1,0,0,0.9472,Andesite_11,1,11,1,3,0.947,3,14,-0.355555556,-0.262962963,1,0,0,3.81,Andesite_rect,1,3.81,1,15,0,15,0,1,,,,,,,,,,,,,
5fc0c49264908d09e94c8cd7,SCR,2024-06-20_15h30.23.120,LearnStrategy,2023.2.3,Win32,60.24096386,7,2,1,,,,,,,,7,12,,,,,,,,,,,,,7,10.945,1,,,,,,0.15,-0.399074074,1,0,0,10.9448,Peridotite_rect,0,0,0,0,1,
5fc0c49264908d09e94c8cd7,SCR,2024-06-20_15h30.23.120,LearnStrategy,2023.2.3,Win32,60.24096386,7,2,2,,,,,,,,5,10,,,,,,,,,,,,,5,1.109,1,,,,,,-0.362037037,-0.391666667,1,0,0,1.1092,Obsidian_rect,1,0,1,0,1,
5fc0c49264908d09e94c8cd7,SCR,2024-06-20_15h30.23.120,LearnStrategy,2023.2.3,Win32,60.24096386,7,2,3,,,,,,,,3,09,,,,,,,,,,,,,3,2.542,1,,,,,,0.082407407,-0.252777778,1,0,0,2.5421,Diorite_rect,2,0,2,0,1,
5fc0c49264908d09e94c8cd7,SCR,2024-06-20_15h30.23.120,LearnStrategy,2023.2.3,Win32,60.24096386,7,2,4,,,,,,,,4,10,,,,,,,,,,,,,4,3.927,1,,,,,,0.368518519,-0.24537037,1,0,0,3.9267,Gabbro_rect,3,0,3,0,1,
5fc0c49264908d09e94c8cd7,SCR,2024-06-20_15h30.23.120,LearnStrategy,2023.2.3,Win32,60.24096386,7,2,5,,,,,,,,4,16,,,,,,,,,,,,,2,2.036,0,,,,,,-0.101851852,-0.257407407,1,0,0,2.0359,Basalt_rect,4,0,4,0,1,
5fc0c49264908d09e94c8cd7,SCR,2024-06-20_15h30.23.120,LearnStrategy,2023.2.3,Win32,60.24096386,7,2,6,,,,,,,,2,01,,,,,,,,,,,,,2,1.171,1,,,,,,-0.087962963,-0.263888889,1,0,0,1.171,Basalt_rect,5,0,5,0,1,
5fc0c49264908d09e94c8cd7,SCR,2024-06-20_15h30.23.120,LearnStrategy,2023.2.3,Win32,60.24096386,7,2,7,,,,,,,,3,08,,,,,,,,,,,,,3,1.227,1,,,,,,0.133333333,-0.244444444,1,0,0,1.2268,Diorite_rect,6,0,6,0,1,
5fc0c49264908d09e94c8cd7,SCR,2024-06-20_15h30.23.120,LearnStrategy,2023.2.3,Win32,60.24096386,7,2,8,,,,,,,,7,08,,,,,,,,,,,,,7,1.461,1,,,,,,0.096296296,-0.4,1,0,0,1.4607,Peridotite_rect,7,0,7,0,1,
5fc0c49264908d09e94c8cd7,SCR,2024-06-20_15h30.23.120,LearnStrategy,2023.2.3,Win32,60.24096386,7,2,9,,,,,,,,1,01,,,,,,,,,,,,,4,4.593,0,,,,,,0.4,-0.247222222,1,0,0,4.5929,Gabbro_rect,8,0,8,0,1,
5fc0c49264908d09e94c8cd7,SCR,2024-06-20_15h30.23.120,LearnStrategy,2023.2.3,Win32,60.24096386,7,2,10,,,,,,,,8,05,,,,,,,,,,,,,8,1.138,1,,,,,,0.358333333,-0.400925926,1,0,0,1.1384,Pumice_rect,9,0,9,0,1,
5fc0c49264908d09e94c8cd7,SCR,2024-06-20_15h30.23.120,LearnStrategy,2023.2.3,Win32,60.24096386,7,2,11,,,,,,,,6,10,,,,,,,,,,,,,6,1.104,1,,,,,,-0.175,-0.383333333,1,0,0,1.1041,Pegmatite_rect,10,0,10,0,1,
5fc0c49264908d09e94c8cd7,SCR,2024-06-20_15h30.23.120,LearnStrategy,2023.2.3,Win32,60.24096386,7,2,12,,,,,,,,6,11,,,,,,,,,,,,,5,2.428,0,,,,,,-0.34537037,-0.396296296,1,0,0,2.4279,Obsidian_rect,11,0,11,0,1,
5fc0c49264908d09e94c8cd7,SCR,2024-06-20_15h30.23.120,LearnStrategy,2023.2.3,Win32,60.24096386,7,2,13,,,,,,,,8,10,,,,,,,,,,,,,8,1.206,1,,,,,,0.357407407,-0.381481481,1,0,0,1.2061,Pumice_rect,12,0,12,0,1,
5fc0c49264908d09e94c8cd7,SCR,2024-06-20_15h30.23.120,LearnStrategy,2023.2.3,Win32,60.24096386,7,2,14,,,,,,,,1,09,,,,,,,,,,,,,1,1.776,1,,,,,,-0.364814815,-0.242592593,1,0,0,1.7762,Andesite_rect,13,0,13,0,1,
5fc0c49264908d09e94c8cd7,SCR,2024-06-20_15h30.23.120,LearnStrategy,2023.2.3,Win32,60.24096386,7,2,15,,,,,,,,2,02,,,,,,,,,,,,,2,5.061,1,,,,,,-0.056481481,-0.233333333,1,0,0,5.0612,Basalt_rect,14,0,14,0,1,
5fc0c49264908d09e94c8cd7,SCR,2024-06-20_15h30.23.120,LearnStrategy,2023.2.3,Win32,60.24096386,7,2,16,,,,,,,,5,12,,,,,,,,,,,,,5,1.29,1,,,,,,-0.413888889,-0.40462963,1,0,0,1.2896,Obsidian_rect,15,0,15,0,1,
5fc0c49264908d09e94c8cd7,SCR,2024-06-20_15h30.23.120,LearnStrategy,2023.2.3,Win32,60.24096386,8,1,1,0.057407407,-0.438888889,1,0,0,2.679,Pegmatite_13,6,13,1,5,2.679,4,13,-0.080555556,-0.390740741,1,0,0,1.8233,Pegmatite_rect,6,1.823,1,0,0,0,0,1,,,,,,,,,,,,,
5fc0c49264908d09e94c8cd7,SCR,2024-06-20_15h30.23.120,LearnStrategy,2023.2.3,Win32,60.24096386,8,1,2,0.265740741,-0.409259259,1,0,0,0.8947,Pumice_04,8,04,1,6,0.895,3,16,0.352777778,-0.411111111,1,0,0,0.4771,Pumice_rect,8,0.477,1,1,0,1,0,1,,,,,,,,,,,,,
5fc0c49264908d09e94c8cd7,SCR,2024-06-20_15h30.23.120,LearnStrategy,2023.2.3,Win32,60.24096386,8,1,3,0.403703704,-0.419444444,1,0,0,0.8316,Peridotite_16,7,16,1,7,0.832,1,04,0.417592593,-0.241666667,1,0,0,2.7778,Gabbro_rect,4,2.778,0,2,0,2,0,1,,,,,,,,,,,,,
5fc0c49264908d09e94c8cd7,SCR,2024-06-20_15h30.23.120,LearnStrategy,2023.2.3,Win32,60.24096386,8,1,4,0.399074074,-0.437962963,1,0,0,0.8794,Peridotite_16,7,16,1,7,0.879,6,15,0.14537037,-0.401851852,1,0,0,0.9273,Peridotite_rect,7,0.927,1,3,0,3,0,1,,,,,,,,,,,,,
5fc0c49264908d09e94c8cd7,SCR,2024-06-20_15h30.23.120,LearnStrategy,2023.2.3,Win32,60.24096386,8,1,5,0.546296296,-0.405555556,1,0,0,1.0628,Basalt_06,2,06,1,8,1.063,8,14,-0.126851852,-0.263888889,1,0,0,2.5946,Basalt_rect,2,2.595,1,4,0,4,0,1,,,,,,,,,,,,,
5fc0c49264908d09e94c8cd7,SCR,2024-06-20_15h30.23.120,LearnStrategy,2023.2.3,Win32,60.24096386,8,1,6,-0.582407407,0.412962963,1,0,0,1.1974,Basalt_05,2,05,6,1,1.197,4,09,-0.073148148,-0.259259259,1,0,0,0.8441,Basalt_rect,2,0.844,1,5,0,5,0,1,,,,,,,,,,,,,
5fc0c49264908d09e94c8cd7,SCR,2024-06-20_15h30.23.120,LearnStrategy,2023.2.3,Win32,60.24096386,8,1,7,-0.412962963,0.398148148,1,0,0,1.0989,Gabbro_03,4,03,6,2,1.099,2,06,0.403703704,-0.251851852,1,0,0,5.0766,Gabbro_rect,4,5.077,1,6,0,6,0,1,,,,,,,,,,,,,
5fc0c49264908d09e94c8cd7,SCR,2024-06-20_15h30.23.120,LearnStrategy,2023.2.3,Win32,60.24096386,8,1,8,-0.208333333,0.378703704,1,0,0,1.1292,Diorite_16,3,16,6,3,1.129,6,09,0.10462963,-0.257407407,1,0,0,1.9281,Diorite_rect,3,1.928,1,7,0,7,0,1,,,,,,,,,,,,,
5fc0c49264908d09e94c8cd7,SCR,2024-06-20_15h30.23.120,LearnStrategy,2023.2.3,Win32,60.24096386,8,1,9,-0.096296296,0.405555556,1,0,0,0.9642,Pegmatite_12,6,12,6,4,0.964,5,04,-0.144444444,-0.394444444,1,0,0,2.1278,Pegmatite_rect,6,2.128,1,8,0,8,0,1,,,,,,,,,,,,,
5fc0c49264908d09e94c8cd7,SCR,2024-06-20_15h30.23.120,LearnStrategy,2023.2.3,Win32,60.24096386,8,1,10,0.062037037,0.39537037,1,0,0,1.1466,Peridotite_02,7,02,6,5,1.147,1,11,0.184259259,-0.403703704,1,0,0,0.7258,Peridotite_rect,7,0.726,1,9,0,9,0,1,,,,,,,,,,,,,
5fc0c49264908d09e94c8cd7,SCR,2024-06-20_15h30.23.120,LearnStrategy,2023.2.3,Win32,60.24096386,8,1,11,0.259259259,0.402777778,1,0,0,1.2702,Gabbro_13,4,13,6,6,1.27,7,10,0.353703704,-0.24537037,1,0,0,6.736,Gabbro_rect,4,6.736,1,10,0,10,0,1,,,,,,,,,,,,,
5fc0c49264908d09e94c8cd7,SCR,2024-06-20_15h30.23.120,LearnStrategy,2023.2.3,Win32,60.24096386,8,1,12,0.368518519,0.40462963,1,0,0,0.9317,Andesite_04,1,04,6,7,0.932,6,06,-0.390740741,-0.251851852,1,0,0,1.3607,Andesite_rect,1,1.361,1,11,0,11,0,1,,,,,,,,,,,,,
5fc0c49264908d09e94c8cd7,SCR,2024-06-20_15h30.23.120,LearnStrategy,2023.2.3,Win32,60.24096386,8,1,13,0.584259259,0.427777778,1,0,0,1.1028,Obsidian_02,5,02,6,8,1.103,7,07,-0.381481481,-0.417592593,1,0,0,1.8111,Obsidian_rect,5,1.811,1,12,0,12,0,1,,,,,,,,,,,,,
5fc0c49264908d09e94c8cd7,SCR,2024-06-20_15h30.23.120,LearnStrategy,2023.2.3,Win32,60.24096386,8,1,14,-0.574074074,0.241666667,1,0,0,0.9133,Pumice_15,8,15,5,1,0.913,4,05,0.339814815,-0.406481481,1,0,0,0.9445,Pumice_rect,8,0.944,1,13,0,13,0,1,,,,,,,,,,,,,
5fc0c49264908d09e94c8cd7,SCR,2024-06-20_15h30.23.120,LearnStrategy,2023.2.3,Win32,60.24096386,8,1,15,-0.408333333,0.266666667,1,0,0,0.8471,Pegmatite_15,6,15,5,2,0.847,2,05,-0.140740741,-0.397222222,1,0,0,0.8943,Pegmatite_rect,6,0.894,1,14,0,14,0,1,,,,,,,,,,,,,
5fc0c49264908d09e94c8cd7,SCR,2024-06-20_15h30.23.120,LearnStrategy,2023.2.3,Win32,60.24096386,8,1,16,-0.228703704,0.263888889,1,0,0,1.1981,Obsidian_07,5,07,5,3,1.198,3,16,-0.459259259,-0.40462963,1,0,0,0.6773,Obsidian_rect,5,0.677,1,15,0,15,0,1,,,,,,,,,,,,,
5fc0c49264908d09e94c8cd7,SCR,2024-06-20_15h30.23.120,LearnStrategy,2023.2.3,Win32,60.24096386,8,2,1,,,,,,,,7,13,,,,,,,,,,,,,7,2.71,1,,,,,,0.15,-0.413888889,1,0,0,2.7099,Peridotite_rect,0,0,0,0,1,
5fc0c49264908d09e94c8cd7,SCR,2024-06-20_15h30.23.120,LearnStrategy,2023.2.3,Win32,60.24096386,8,2,2,,,,,,,,1,07,,,,,,,,,,,,,1,1.505,1,,,,,,-0.444444444,-0.237037037,1,0,0,1.5046,Andesite_rect,1,0,1,0,1,
5fc0c49264908d09e94c8cd7,SCR,2024-06-20_15h30.23.120,LearnStrategy,2023.2.3,Win32,60.24096386,8,2,3,,,,,,,,5,08,,,,,,,,,,,,,5,1.045,1,,,,,,-0.378703704,-0.394444444,1,0,0,1.0452,Obsidian_rect,2,0,2,0,1,
5fc0c49264908d09e94c8cd7,SCR,2024-06-20_15h30.23.120,LearnStrategy,2023.2.3,Win32,60.24096386,8,2,4,,,,,,,,6,05,,,,,,,,,,,,,6,4.362,1,,,,,,-0.098148148,-0.37962963,1,0,0,4.3616,Pegmatite_rect,3,0,3,0,1,
5fc0c49264908d09e94c8cd7,SCR,2024-06-20_15h30.23.120,LearnStrategy,2023.2.3,Win32,60.24096386,8,2,5,,,,,,,,7,14,,,,,,,,,,,,,7,9.842,1,,,,,,0.098148148,-0.401851852,1,0,0,9.8416,Peridotite_rect,4,0,4,0,1,
5fc0c49264908d09e94c8cd7,SCR,2024-06-20_15h30.23.120,LearnStrategy,2023.2.3,Win32,60.24096386,8,2,6,,,,,,,,3,10,,,,,,,,,,,,,3,3.212,1,,,,,,0.116666667,-0.263888889,1,0,0,3.2124,Diorite_rect,5,0,5,0,1,
5fc0c49264908d09e94c8cd7,SCR,2024-06-20_15h30.23.120,LearnStrategy,2023.2.3,Win32,60.24096386,8,2,7,,,,,,,,8,02,,,,,,,,,,,,,8,1.24,1,,,,,,0.361111111,-0.384259259,1,0,0,1.24,Pumice_rect,6,0,6,0,1,
5fc0c49264908d09e94c8cd7,SCR,2024-06-20_15h30.23.120,LearnStrategy,2023.2.3,Win32,60.24096386,8,2,8,,,,,,,,5,05,,,,,,,,,,,,,5,1.21,1,,,,,,-0.453703704,-0.378703704,1,0,0,1.2105,Obsidian_rect,7,0,7,0,1,
5fc0c49264908d09e94c8cd7,SCR,2024-06-20_15h30.23.120,LearnStrategy,2023.2.3,Win32,60.24096386,8,2,9,,,,,,,,2,12,,,,,,,,,,,,,8,2.31,0,,,,,,0.385185185,-0.409259259,1,0,0,2.3099,Pumice_rect,8,0,8,0,1,
5fc0c49264908d09e94c8cd7,SCR,2024-06-20_15h30.23.120,LearnStrategy,2023.2.3,Win32,60.24096386,8,2,10,,,,,,,,6,16,,,,,,,,,,,,,6,1.191,1,,,,,,-0.111111111,-0.387962963,1,0,0,1.1909,Pegmatite_rect,9,0,9,0,1,
5fc0c49264908d09e94c8cd7,SCR,2024-06-20_15h30.23.120,LearnStrategy,2023.2.3,Win32,60.24096386,8,2,11,,,,,,,,8,13,,,,,,,,,,,,,8,1.23,1,,,,,,0.407407407,-0.397222222,1,0,0,1.2298,Pumice_rect,10,0,10,0,1,
5fc0c49264908d09e94c8cd7,SCR,2024-06-20_15h30.23.120,LearnStrategy,2023.2.3,Win32,60.24096386,8,2,12,,,,,,,,1,03,,,,,,,,,,,,,1,1.295,1,,,,,,-0.380555556,-0.233333333,1,0,0,1.2948,Andesite_rect,11,0,11,0,1,
5fc0c49264908d09e94c8cd7,SCR,2024-06-20_15h30.23.120,LearnStrategy,2023.2.3,Win32,60.24096386,8,2,13,,,,,,,,2,14,,,,,,,,,,,,,8,1.261,0,,,,,,0.412962963,-0.40462963,1,0,0,1.2608,Pumice_rect,12,0,12,0,1,
5fc0c49264908d09e94c8cd7,SCR,2024-06-20_15h30.23.120,LearnStrategy,2023.2.3,Win32,60.24096386,8,2,14,,,,,,,,4,08,,,,,,,,,,,,,4,4.811,1,,,,,,0.398148148,-0.24537037,1,0,0,4.8109,Gabbro_rect,13,0,13,0,1,
5fc0c49264908d09e94c8cd7,SCR,2024-06-20_15h30.23.120,LearnStrategy,2023.2.3,Win32,60.24096386,8,2,15,,,,,,,,3,07,,,,,,,,,,,,,3,2.239,1,,,,,,0.187962963,-0.261111111,1,0,0,2.2393,Diorite_rect,14,0,14,0,1,
5fc0c49264908d09e94c8cd7,SCR,2024-06-20_15h30.23.120,LearnStrategy,2023.2.3,Win32,60.24096386,8,2,16,,,,,,,,4,01,,,,,,,,,,,,,7,1.402,0,,,,,,0.155555556,-0.39537037,1,0,0,1.4016,Peridotite_rect,15,0,15,0,1,
5fc0c49264908d09e94c8cd7,SCR,2024-06-20_15h30.23.120,LearnStrategy,2023.2.3,Win32,60.24096386,9,1,1,0.042592593,0.40462963,1,0,0,2.5973,Peridotite_02,7,02,6,5,2.597,5,07,0.146296296,-0.393518519,1,0,0,6.239,Peridotite_rect,7,6.239,1,0,0,0,0,1,,,,,,,,,,,,,
5fc0c49264908d09e94c8cd7,SCR,2024-06-20_15h30.23.120,LearnStrategy,2023.2.3,Win32,60.24096386,9,1,2,0.22037037,0.412037037,1,0,0,1.3968,Gabbro_13,4,13,6,6,1.397,1,05,0.382407407,-0.228703704,1,0,0,4.1444,Gabbro_rect,4,4.144,1,1,0,1,0,1,,,,,,,,,,,,,
5fc0c49264908d09e94c8cd7,SCR,2024-06-20_15h30.23.120,LearnStrategy,2023.2.3,Win32,60.24096386,9,1,3,0.251851852,0.399074074,1,0,0,5.9143,Gabbro_13,4,13,6,6,5.914,2,08,0.421296296,-0.24537037,1,0,0,1.8208,Gabbro_rect,4,1.821,1,2,0,2,0,1,,,,,,,,,,,,,
5fc0c49264908d09e94c8cd7,SCR,2024-06-20_15h30.23.120,LearnStrategy,2023.2.3,Win32,60.24096386,9,1,4,0.361111111,0.409259259,1,0,0,0.9626,Andesite_04,1,04,6,7,0.963,6,12,-0.383333333,-0.242592593,1,0,0,1.5608,Andesite_rect,1,1.561,1,3,0,3,0,1,,,,,,,,,,,,,
5fc0c49264908d09e94c8cd7,SCR,2024-06-20_15h30.23.120,LearnStrategy,2023.2.3,Win32,60.24096386,9,1,5,0.542592593,0.400925926,1,0,0,0.9619,Obsidian_02,5,02,6,8,0.962,4,03,-0.357407407,-0.407407407,1,0,0,2.4444,Obsidian_rect,5,2.444,1,4,0,4,0,1,,,,,,,,,,,,,
5fc0c49264908d09e94c8cd7,SCR,2024-06-20_15h30.23.120,LearnStrategy,2023.2.3,Win32,60.24096386,9,1,6,-0.548148148,0.215740741,1,0,0,0.9783,Pumice_15,8,15,5,1,0.978,4,09,0.409259259,-0.381481481,1,0,0,0.8613,Pumice_rect,8,0.861,1,5,0,5,0,1,,,,,,,,,,,,,
5fc0c49264908d09e94c8cd7,SCR,2024-06-20_15h30.23.120,LearnStrategy,2023.2.3,Win32,60.24096386,9,1,7,-0.40462963,0.231481481,1,0,0,0.9817,Pegmatite_15,6,15,5,2,0.982,8,16,-0.139814815,-0.410185185,1,0,0,1.3756,Pegmatite_rect,6,1.376,1,6,0,6,0,1,,,,,,,,,,,,,
5fc0c49264908d09e94c8cd7,SCR,2024-06-20_15h30.23.120,LearnStrategy,2023.2.3,Win32,60.24096386,9,1,8,-0.250925926,0.242592593,1,0,0,1.2305,Obsidian_07,5,07,5,3,1.23,7,16,-0.374074074,-0.396296296,1,0,0,0.877,Obsidian_rect,5,0.877,1,7,0,7,0,1,,,,,,,,,,,,,
5fc0c49264908d09e94c8cd7,SCR,2024-06-20_15h30.23.120,LearnStrategy,2023.2.3,Win32,60.24096386,9,1,9,-0.116666667,0.231481481,1,0,0,1.3296,Gabbro_09,4,09,5,4,1.33,1,10,0.372222222,-0.241666667,1,0,0,3.3278,Gabbro_rect,4,3.328,1,8,0,8,0,1,,,,,,,,,,,,,
5fc0c49264908d09e94c8cd7,SCR,2024-06-20_15h30.23.120,LearnStrategy,2023.2.3,Win32,60.24096386,9,1,10,0.052777778,0.239814815,1,0,0,1.3293,Diorite_14,3,14,5,5,1.329,2,09,0.119444444,-0.232407407,1,0,0,1.6594,Diorite_rect,3,1.659,1,9,0,9,0,1,,,,,,,,,,,,,
5fc0c49264908d09e94c8cd7,SCR,2024-06-20_15h30.23.120,LearnStrategy,2023.2.3,Win32,60.24096386,9,1,11,0.250925926,0.263888889,1,0,0,1.1792,Diorite_12,3,12,5,6,1.179,4,14,0.126851852,-0.258333333,1,0,0,2.0614,Diorite_rect,3,2.061,1,10,0,10,0,1,,,,,,,,,,,,,
5fc0c49264908d09e94c8cd7,SCR,2024-06-20_15h30.23.120,LearnStrategy,2023.2.3,Win32,60.24096386,9,1,12,0.408333333,0.260185185,1,0,0,0.8649,Gabbro_05,4,05,5,7,0.865,7,02,0.377777778,-0.228703704,1,0,0,1.9587,Gabbro_rect,4,1.959,1,11,0,11,0,1,,,,,,,,,,,,,
5fc0c49264908d09e94c8cd7,SCR,2024-06-20_15h30.23.120,LearnStrategy,2023.2.3,Win32,60.24096386,9,1,13,0.525,0.252777778,1,0,0,2.9624,Pumice_06,8,06,5,8,2.962,2,06,0.447222222,-0.410185185,1,0,0,1.3609,Pumice_rect,8,1.361,1,12,0,12,0,1,,,,,,,,,,,,,
5fc0c49264908d09e94c8cd7,SCR,2024-06-20_15h30.23.120,LearnStrategy,2023.2.3,Win32,60.24096386,9,1,14,-0.519444444,0.09537037,1,0,0,1.6953,Diorite_02,3,02,4,1,1.695,2,05,0.114814815,-0.267592593,1,0,0,1.2952,Diorite_rect,3,1.295,1,13,0,13,0,1,,,,,,,,,,,,,
5fc0c49264908d09e94c8cd7,SCR,2024-06-20_15h30.23.120,LearnStrategy,2023.2.3,Win32,60.24096386,9,1,15,-0.382407407,0.087037037,1,0,0,1.7309,Andesite_05,1,05,4,2,1.731,3,06,-0.362962963,-0.258333333,1,0,0,3.6769,Andesite_rect,1,3.677,1,14,0,14,0,1,,,,,,,,,,,,,
5fc0c49264908d09e94c8cd7,SCR,2024-06-20_15h30.23.120,LearnStrategy,2023.2.3,Win32,60.24096386,9,1,16,-0.414814815,0.1,1,0,0,3.6455,Andesite_05,1,05,4,2,3.646,6,03,-0.325,-0.257407407,1,0,0,1.6404,Andesite_rect,1,1.64,1,15,0,15,0,1,,,,,,,,,,,,,
5fc0c49264908d09e94c8cd7,SCR,2024-06-20_15h30.23.120,LearnStrategy,2023.2.3,Win32,60.24096386,9,2,1,,,,,,,,5,16,,,,,,,,,,,,,5,1.127,1,,,,,,-0.367592593,-0.393518519,1,0,0,1.1273,Obsidian_rect,0,0,0,0,1,
5fc0c49264908d09e94c8cd7,SCR,2024-06-20_15h30.23.120,LearnStrategy,2023.2.3,Win32,60.24096386,9,2,2,,,,,,,,3,11,,,,,,,,,,,,,3,1.928,1,,,,,,0.086111111,-0.248148148,1,0,0,1.9278,Diorite_rect,1,0,1,0,1,
5fc0c49264908d09e94c8cd7,SCR,2024-06-20_15h30.23.120,LearnStrategy,2023.2.3,Win32,60.24096386,9,2,3,,,,,,,,7,15,,,,,,,,,,,,,7,1.16,1,,,,,,0.117592593,-0.410185185,1,0,0,1.1596,Peridotite_rect,2,0,2,0,1,
5fc0c49264908d09e94c8cd7,SCR,2024-06-20_15h30.23.120,LearnStrategy,2023.2.3,Win32,60.24096386,9,2,4,,,,,,,,6,08,,,,,,,,,,,,,6,1.443,1,,,,,,-0.114814815,-0.397222222,1,0,0,1.4435,Pegmatite_rect,3,0,3,0,1,
5fc0c49264908d09e94c8cd7,SCR,2024-06-20_15h30.23.120,LearnStrategy,2023.2.3,Win32,60.24096386,9,2,5,,,,,,,,8,09,,,,,,,,,,,,,8,1.16,1,,,,,,0.316666667,-0.378703704,1,0,0,1.1604,Pumice_rect,4,0,4,0,1,
5fc0c49264908d09e94c8cd7,SCR,2024-06-20_15h30.23.120,LearnStrategy,2023.2.3,Win32,60.24096386,9,2,6,,,,,,,,2,10,,,,,,,,,,,,,2,1.343,1,,,,,,-0.076851852,-0.249074074,1,0,0,1.3429,Basalt_rect,5,0,5,0,1,
5fc0c49264908d09e94c8cd7,SCR,2024-06-20_15h30.23.120,LearnStrategy,2023.2.3,Win32,60.24096386,9,2,7,,,,,,,,1,02,,,,,,,,,,,,,1,1.441,1,,,,,,-0.360185185,-0.246296296,1,0,0,1.4413,Andesite_rect,6,0,6,0,1,
5fc0c49264908d09e94c8cd7,SCR,2024-06-20_15h30.23.120,LearnStrategy,2023.2.3,Win32,60.24096386,9,2,8,,,,,,,,3,15,,,,,,,,,,,,,3,3.761,1,,,,,,0.171296296,-0.268518519,1,0,0,3.7609,Diorite_rect,7,0,7,0,1,
5fc0c49264908d09e94c8cd7,SCR,2024-06-20_15h30.23.120,LearnStrategy,2023.2.3,Win32,60.24096386,9,2,9,,,,,,,,2,11,,,,,,,,,,,,,8,1.906,0,,,,,,0.387037037,-0.400925926,1,0,0,1.9062,Pumice_rect,8,0,8,0,1,
5fc0c49264908d09e94c8cd7,SCR,2024-06-20_15h30.23.120,LearnStrategy,2023.2.3,Win32,60.24096386,9,2,10,,,,,,,,1,06,,,,,,,,,,,,,1,1.19,1,,,,,,-0.441666667,-0.24537037,1,0,0,1.19,Andesite_rect,9,0,9,0,1,
5fc0c49264908d09e94c8cd7,SCR,2024-06-20_15h30.23.120,LearnStrategy,2023.2.3,Win32,60.24096386,9,2,11,,,,,,,,5,09,,,,,,,,,,,,,5,1.212,1,,,,,,-0.461111111,-0.394444444,1,0,0,1.2115,Obsidian_rect,10,0,10,0,1,
5fc0c49264908d09e94c8cd7,SCR,2024-06-20_15h30.23.120,LearnStrategy,2023.2.3,Win32,60.24096386,9,2,12,,,,,,,,4,15,,,,,,,,,,,,,4,2.025,1,,,,,,0.423148148,-0.234259259,1,0,0,2.0255,Gabbro_rect,11,0,11,0,1,
5fc0c49264908d09e94c8cd7,SCR,2024-06-20_15h30.23.120,LearnStrategy,2023.2.3,Win32,60.24096386,9,2,13,,,,,,,,6,07,,,,,,,,,,,,,6,14.472,1,,,,,,-0.140740741,-0.410185185,1,0,0,14.4722,Pegmatite_rect,12,0,12,0,1,
5fc0c49264908d09e94c8cd7,SCR,2024-06-20_15h30.23.120,LearnStrategy,2023.2.3,Win32,60.24096386,9,2,14,,,,,,,,4,12,,,,,,,,,,,,,2,2.441,0,,,,,,-0.192592593,-0.248148148,1,0,0,2.4415,Basalt_rect,13,0,13,0,1,
5fc0c49264908d09e94c8cd7,SCR,2024-06-20_15h30.23.120,LearnStrategy,2023.2.3,Win32,60.24096386,9,2,15,,,,,,,,8,08,,,,,,,,,,,,,8,1.125,1,,,,,,0.377777778,-0.408333333,1,0,0,1.1254,Pumice_rect,14,0,14,0,1,
5fc0c49264908d09e94c8cd7,SCR,2024-06-20_15h30.23.120,LearnStrategy,2023.2.3,Win32,60.24096386,9,2,16,,,,,,,,7,04,,,,,,,,,,,,,4,10.377,0,,,,,,0.407407407,-0.248148148,1,0,0,10.3771,Gabbro_rect,15,0,15,0,1,
5fc0c49264908d09e94c8cd7,SCR,2024-06-20_15h30.23.120,LearnStrategy,2023.2.3,Win32,60.24096386,,,,,,,,,,,,,,,,,,,,,,,,,,,,,,,,,,,,,,,,,,,,,1
5fc0c49264908d09e94c8cd7,SCR,2024-06-20_15h30.23.120,LearnStrategy,2023.2.3,Win32,60.24096386,,,,,,,,,,,,,,,,,,,,,,,,,,,,,,,,,,,,,,,,,,,,,
5fc0c49264908d09e94c8cd7,SCR,2024-06-20_15h30.23.120,LearnStrategy,2023.2.3,Win32,60.24096386,,,,,,,,,,,1,16,1,1,,,,,,,,,,,,,,,,,,,,,,,,,,,,,,,
5fc0c49264908d09e94c8cd7,SCR,2024-06-20_15h30.23.120,LearnStrategy,2023.2.3,Win32,60.24096386,,,,,,,,,,,6,09,1,2,,,,,,,,,,,,,,,,,,,,,,,,,,,,,,,
5fc0c49264908d09e94c8cd7,SCR,2024-06-20_15h30.23.120,LearnStrategy,2023.2.3,Win32,60.24096386,,,,,,,,,,,1,11,1,3,,,,,,,,,,,,,,,,,,,,,,,,,,,,,,,
5fc0c49264908d09e94c8cd7,SCR,2024-06-20_15h30.23.120,LearnStrategy,2023.2.3,Win32,60.24096386,,,,,,,,,,,2,16,1,4,,,,,,,,,,,,,,,,,,,,,,,,,,,,,,,
5fc0c49264908d09e94c8cd7,SCR,2024-06-20_15h30.23.120,LearnStrategy,2023.2.3,Win32,60.24096386,,,,,,,,,,,6,13,1,5,,,,,,,,,,,,,,,,,,,,,,,,,,,,,,,
5fc0c49264908d09e94c8cd7,SCR,2024-06-20_15h30.23.120,LearnStrategy,2023.2.3,Win32,60.24096386,,,,,,,,,,,8,04,1,6,,,,,,,,,,,,,,,,,,,,,,,,,,,,,,,
5fc0c49264908d09e94c8cd7,SCR,2024-06-20_15h30.23.120,LearnStrategy,2023.2.3,Win32,60.24096386,,,,,,,,,,,7,16,1,7,,,,,,,,,,,,,,,,,,,,,,,,,,,,,,,
5fc0c49264908d09e94c8cd7,SCR,2024-06-20_15h30.23.120,LearnStrategy,2023.2.3,Win32,60.24096386,,,,,,,,,,,2,06,1,8,,,,,,,,,,,,,,,,,,,,,,,,,,,,,,,
5fc0c49264908d09e94c8cd7,SCR,2024-06-20_15h30.23.120,LearnStrategy,2023.2.3,Win32,60.24096386,,,,,,,,,,,8,14,2,1,,,,,,,,,,,,,,,,,,,,,,,,,,,,,,,
5fc0c49264908d09e94c8cd7,SCR,2024-06-20_15h30.23.120,LearnStrategy,2023.2.3,Win32,60.24096386,,,,,,,,,,,5,14,2,2,,,,,,,,,,,,,,,,,,,,,,,,,,,,,,,
5fc0c49264908d09e94c8cd7,SCR,2024-06-20_15h30.23.120,LearnStrategy,2023.2.3,Win32,60.24096386,,,,,,,,,,,7,05,2,3,,,,,,,,,,,,,,,,,,,,,,,,,,,,,,,
5fc0c49264908d09e94c8cd7,SCR,2024-06-20_15h30.23.120,LearnStrategy,2023.2.3,Win32,60.24096386,,,,,,,,,,,8,16,2,4,,,,,,,,,,,,,,,,,,,,,,,,,,,,,,,
5fc0c49264908d09e94c8cd7,SCR,2024-06-20_15h30.23.120,LearnStrategy,2023.2.3,Win32,60.24096386,,,,,,,,,,,7,07,2,5,,,,,,,,,,,,,,,,,,,,,,,,,,,,,,,
5fc0c49264908d09e94c8cd7,SCR,2024-06-20_15h30.23.120,LearnStrategy,2023.2.3,Win32,60.24096386,,,,,,,,,,,2,09,2,6,,,,,,,,,,,,,,,,,,,,,,,,,,,,,,,
5fc0c49264908d09e94c8cd7,SCR,2024-06-20_15h30.23.120,LearnStrategy,2023.2.3,Win32,60.24096386,,,,,,,,,,,6,06,2,7,,,,,,,,,,,,,,,,,,,,,,,,,,,,,,,
5fc0c49264908d09e94c8cd7,SCR,2024-06-20_15h30.23.120,LearnStrategy,2023.2.3,Win32,60.24096386,,,,,,,,,,,3,13,2,8,,,,,,,,,,,,,,,,,,,,,,,,,,,,,,,
5fc0c49264908d09e94c8cd7,SCR,2024-06-20_15h30.23.120,LearnStrategy,2023.2.3,Win32,60.24096386,,,,,,,,,,,3,06,3,1,,,,,,,,,,,,,,,,,,,,,,,,,,,,,,,
5fc0c49264908d09e94c8cd7,SCR,2024-06-20_15h30.23.120,LearnStrategy,2023.2.3,Win32,60.24096386,,,,,,,,,,,4,11,3,2,,,,,,,,,,,,,,,,,,,,,,,,,,,,,,,
5fc0c49264908d09e94c8cd7,SCR,2024-06-20_15h30.23.120,LearnStrategy,2023.2.3,Win32,60.24096386,,,,,,,,,,,5,06,3,3,,,,,,,,,,,,,,,,,,,,,,,,,,,,,,,
5fc0c49264908d09e94c8cd7,SCR,2024-06-20_15h30.23.120,LearnStrategy,2023.2.3,Win32,60.24096386,,,,,,,,,,,1,14,3,4,,,,,,,,,,,,,,,,,,,,,,,,,,,,,,,
5fc0c49264908d09e94c8cd7,SCR,2024-06-20_15h30.23.120,LearnStrategy,2023.2.3,Win32,60.24096386,,,,,,,,,,,8,03,3,5,,,,,,,,,,,,,,,,,,,,,,,,,,,,,,,
5fc0c49264908d09e94c8cd7,SCR,2024-06-20_15h30.23.120,LearnStrategy,2023.2.3,Win32,60.24096386,,,,,,,,,,,7,06,3,6,,,,,,,,,,,,,,,,,,,,,,,,,,,,,,,
5fc0c49264908d09e94c8cd7,SCR,2024-06-20_15h30.23.120,LearnStrategy,2023.2.3,Win32,60.24096386,,,,,,,,,,,5,11,3,7,,,,,,,,,,,,,,,,,,,,,,,,,,,,,,,
5fc0c49264908d09e94c8cd7,SCR,2024-06-20_15h30.23.120,LearnStrategy,2023.2.3,Win32,60.24096386,,,,,,,,,,,7,10,3,8,,,,,,,,,,,,,,,,,,,,,,,,,,,,,,,
5fc0c49264908d09e94c8cd7,SCR,2024-06-20_15h30.23.120,LearnStrategy,2023.2.3,Win32,60.24096386,,,,,,,,,,,3,02,4,1,,,,,,,,,,,,,,,,,,,,,,,,,,,,,,,
5fc0c49264908d09e94c8cd7,SCR,2024-06-20_15h30.23.120,LearnStrategy,2023.2.3,Win32,60.24096386,,,,,,,,,,,1,05,4,2,,,,,,,,,,,,,,,,,,,,,,,,,,,,,,,
5fc0c49264908d09e94c8cd7,SCR,2024-06-20_15h30.23.120,LearnStrategy,2023.2.3,Win32,60.24096386,,,,,,,,,,,2,08,4,3,,,,,,,,,,,,,,,,,,,,,,,,,,,,,,,
5fc0c49264908d09e94c8cd7,SCR,2024-06-20_15h30.23.120,LearnStrategy,2023.2.3,Win32,60.24096386,,,,,,,,,,,4,14,4,4,,,,,,,,,,,,,,,,,,,,,,,,,,,,,,,
5fc0c49264908d09e94c8cd7,SCR,2024-06-20_15h30.23.120,LearnStrategy,2023.2.3,Win32,60.24096386,,,,,,,,,,,2,04,4,5,,,,,,,,,,,,,,,,,,,,,,,,,,,,,,,
5fc0c49264908d09e94c8cd7,SCR,2024-06-20_15h30.23.120,LearnStrategy,2023.2.3,Win32,60.24096386,,,,,,,,,,,6,03,4,6,,,,,,,,,,,,,,,,,,,,,,,,,,,,,,,
5fc0c49264908d09e94c8cd7,SCR,2024-06-20_15h30.23.120,LearnStrategy,2023.2.3,Win32,60.24096386,,,,,,,,,,,5,04,4,7,,,,,,,,,,,,,,,,,,,,,,,,,,,,,,,
5fc0c49264908d09e94c8cd7,SCR,2024-06-20_15h30.23.120,LearnStrategy,2023.2.3,Win32,60.24096386,,,,,,,,,,,1,10,4,8,,,,,,,,,,,,,,,,,,,,,,,,,,,,,,,
5fc0c49264908d09e94c8cd7,SCR,2024-06-20_15h30.23.120,LearnStrategy,2023.2.3,Win32,60.24096386,,,,,,,,,,,8,15,5,1,,,,,,,,,,,,,,,,,,,,,,,,,,,,,,,
5fc0c49264908d09e94c8cd7,SCR,2024-06-20_15h30.23.120,LearnStrategy,2023.2.3,Win32,60.24096386,,,,,,,,,,,6,15,5,2,,,,,,,,,,,,,,,,,,,,,,,,,,,,,,,
5fc0c49264908d09e94c8cd7,SCR,2024-06-20_15h30.23.120,LearnStrategy,2023.2.3,Win32,60.24096386,,,,,,,,,,,5,07,5,3,,,,,,,,,,,,,,,,,,,,,,,,,,,,,,,
5fc0c49264908d09e94c8cd7,SCR,2024-06-20_15h30.23.120,LearnStrategy,2023.2.3,Win32,60.24096386,,,,,,,,,,,4,09,5,4,,,,,,,,,,,,,,,,,,,,,,,,,,,,,,,
5fc0c49264908d09e94c8cd7,SCR,2024-06-20_15h30.23.120,LearnStrategy,2023.2.3,Win32,60.24096386,,,,,,,,,,,3,14,5,5,,,,,,,,,,,,,,,,,,,,,,,,,,,,,,,
5fc0c49264908d09e94c8cd7,SCR,2024-06-20_15h30.23.120,LearnStrategy,2023.2.3,Win32,60.24096386,,,,,,,,,,,3,12,5,6,,,,,,,,,,,,,,,,,,,,,,,,,,,,,,,
5fc0c49264908d09e94c8cd7,SCR,2024-06-20_15h30.23.120,LearnStrategy,2023.2.3,Win32,60.24096386,,,,,,,,,,,4,05,5,7,,,,,,,,,,,,,,,,,,,,,,,,,,,,,,,
5fc0c49264908d09e94c8cd7,SCR,2024-06-20_15h30.23.120,LearnStrategy,2023.2.3,Win32,60.24096386,,,,,,,,,,,8,06,5,8,,,,,,,,,,,,,,,,,,,,,,,,,,,,,,,
5fc0c49264908d09e94c8cd7,SCR,2024-06-20_15h30.23.120,LearnStrategy,2023.2.3,Win32,60.24096386,,,,,,,,,,,2,05,6,1,,,,,,,,,,,,,,,,,,,,,,,,,,,,,,,
5fc0c49264908d09e94c8cd7,SCR,2024-06-20_15h30.23.120,LearnStrategy,2023.2.3,Win32,60.24096386,,,,,,,,,,,4,03,6,2,,,,,,,,,,,,,,,,,,,,,,,,,,,,,,,
5fc0c49264908d09e94c8cd7,SCR,2024-06-20_15h30.23.120,LearnStrategy,2023.2.3,Win32,60.24096386,,,,,,,,,,,3,16,6,3,,,,,,,,,,,,,,,,,,,,,,,,,,,,,,,
5fc0c49264908d09e94c8cd7,SCR,2024-06-20_15h30.23.120,LearnStrategy,2023.2.3,Win32,60.24096386,,,,,,,,,,,6,12,6,4,,,,,,,,,,,,,,,,,,,,,,,,,,,,,,,
5fc0c49264908d09e94c8cd7,SCR,2024-06-20_15h30.23.120,LearnStrategy,2023.2.3,Win32,60.24096386,,,,,,,,,,,7,02,6,5,,,,,,,,,,,,,,,,,,,,,,,,,,,,,,,
5fc0c49264908d09e94c8cd7,SCR,2024-06-20_15h30.23.120,LearnStrategy,2023.2.3,Win32,60.24096386,,,,,,,,,,,4,13,6,6,,,,,,,,,,,,,,,,,,,,,,,,,,,,,,,
5fc0c49264908d09e94c8cd7,SCR,2024-06-20_15h30.23.120,LearnStrategy,2023.2.3,Win32,60.24096386,,,,,,,,,,,1,04,6,7,,,,,,,,,,,,,,,,,,,,,,,,,,,,,,,
5fc0c49264908d09e94c8cd7,SCR,2024-06-20_15h30.23.120,LearnStrategy,2023.2.3,Win32,60.24096386,,,,,,,,,,,5,02,6,8,,,,,,,,,,,,,,,,,,,,,,,,,,,,,,,