participant,condition,date,expName,psychopyVersion,OS,frameRate,block,phase,trial,learn_mouse.x,learn_mouse.y,learn_mouse.leftButton,learn_mouse.midButton,learn_mouse.rightButton,learn_mouse.time,learn_mouse.clicked_name,cat,token,row,col,t_select,cat_mouse_l.x,cat_mouse_l.y,cat_mouse_l.leftButton,cat_mouse_l.midButton,cat_mouse_l.rightButton,cat_mouse_l.time,cat_mouse_l.clicked_name,resp,t_resp,corr,train_trials.thisRepN,train_trials.thisTrialN,train_trials.thisN,train_trials.thisIndex,train_trials.ran,cat_mouse_t.x,cat_mouse_t.y,cat_mouse_t.leftButton,cat_mouse_t.midButton,cat_mouse_t.rightButton,cat_mouse_t.time,cat_mouse_t.clicked_name,test_trials.thisRepN,test_trials.thisTrialN,test_trials.thisN,test_trials.thisIndex,test_trials.ran,Bonus
600c167e28de48080e812884,SCN,2024-06-21_12h49.20.368,LearnStrategy,2023.2.3,Win32,59.17159763,,,,,,,,,,,,,,,,,,,,,,,,,,,,,,,,,,,,,,,,,,,
600c167e28de48080e812884,SCN,2024-06-21_12h49.20.368,LearnStrategy,2023.2.3,Win32,59.17159763,1,1,1,-0.526041667,0.4296875,1,0,0,5.7238,Diorite_14,3,14,6,1,5.724,-0.369791667,-0.384114583,1,0,0,14.4889,Obsidian_rect,5,14.489,0,0,0,0,0,1,,,,,,,,,,,,,
600c167e28de48080e812884,SCN,2024-06-21_12h49.20.368,LearnStrategy,2023.2.3,Win32,59.17159763,1,1,2,-0.240885417,0.278645833,1,0,0,23.2929,Andesite_07,1,07,5,3,23.293,0.123697917,-0.25,1,0,0,7.8398,Diorite_rect,3,7.84,0,1,0,1,0,1,,,,,,,,,,,,,
600c167e28de48080e812884,SCN,2024-06-21_12h49.20.368,LearnStrategy,2023.2.3,Win32,59.17159763,1,1,3,0.545572917,0.100260417,1,0,0,31.9406,Diorite_11,3,11,4,8,31.941,0.143229167,-0.256510417,1,0,0,5.3048,Diorite_rect,3,5.305,1,2,0,2,0,1,,,,,,,,,,,,,
600c167e28de48080e812884,SCN,2024-06-21_12h49.20.368,LearnStrategy,2023.2.3,Win32,59.17159763,1,1,4,0.411458333,-0.102864583,1,0,0,12.5789,Andesite_06,1,06,3,7,12.579,-0.3515625,-0.234375,1,0,0,6.2122,Andesite_rect,1,6.212,1,3,0,3,0,1,,,,,,,,,,,,,
600c167e28de48080e812884,SCN,2024-06-21_12h49.20.368,LearnStrategy,2023.2.3,Win32,59.17159763,1,1,5,-0.080729167,-0.391927083,1,0,0,22.0721,Diorite_16,3,16,1,4,22.072,0.098958333,-0.236979167,1,0,0,6.9569,Diorite_rect,3,6.957,1,4,0,4,0,1,,,,,,,,,,,,,
600c167e28de48080e812884,SCN,2024-06-21_12h49.20.368,LearnStrategy,2023.2.3,Win32,59.17159763,1,1,6,-0.055989583,-0.421875,1,0,0,15.54,Diorite_16,3,16,1,4,15.54,0.153645833,-0.248697917,1,0,0,3.903,Diorite_rect,3,3.903,1,5,0,5,0,1,,,,,,,,,,,,,
600c167e28de48080e812884,SCN,2024-06-21_12h49.20.368,LearnStrategy,2023.2.3,Win32,59.17159763,1,1,7,0.516927083,0.264322917,1,0,0,4.6956,Gabbro_03,4,03,5,8,4.696,-0.407552083,-0.2421875,1,0,0,4.8556,Andesite_rect,1,4.856,0,6,0,6,0,1,,,,,,,,,,,,,
600c167e28de48080e812884,SCN,2024-06-21_12h49.20.368,LearnStrategy,2023.2.3,Win32,59.17159763,1,1,8,0.552083333,-0.2578125,1,0,0,4.1804,Gabbro_11,4,11,2,8,4.18,0.39453125,-0.248697917,1,0,0,2.0618,Gabbro_rect,4,2.062,1,7,0,7,0,1,,,,,,,,,,,,,
600c167e28de48080e812884,SCN,2024-06-21_12h49.20.368,LearnStrategy,2023.2.3,Win32,59.17159763,1,1,9,-0.2109375,0.229166667,1,0,0,2.4306,Andesite_07,1,07,5,3,2.431,-0.348958333,-0.247395833,1,0,0,3.8417,Andesite_rect,1,3.842,1,8,0,8,0,1,,,,,,,,,,,,,
600c167e28de48080e812884,SCN,2024-06-21_12h49.20.368,LearnStrategy,2023.2.3,Win32,59.17159763,1,1,10,0.415364583,-0.26171875,1,0,0,9.6948,Andesite_16,1,16,2,7,9.695,0.39453125,-0.251302083,1,0,0,6.8594,Gabbro_rect,4,6.859,0,9,0,9,0,1,,,,,,,,,,,,,
600c167e28de48080e812884,SCN,2024-06-21_12h49.20.368,LearnStrategy,2023.2.3,Win32,59.17159763,1,1,11,0.360677083,-0.08984375,1,0,0,6.1129,Andesite_06,1,06,3,7,6.113,-0.356770833,-0.25,1,0,0,4.3637,Andesite_rect,1,4.364,1,10,0,10,0,1,,,,,,,,,,,,,
600c167e28de48080e812884,SCN,2024-06-21_12h49.20.368,LearnStrategy,2023.2.3,Win32,59.17159763,1,1,12,0.563802083,-0.255208333,1,0,0,16.6778,Gabbro_11,4,11,2,8,16.678,0.442708333,-0.248697917,1,0,0,1.9384,Gabbro_rect,4,1.938,1,11,0,11,0,1,,,,,,,,,,,,,
600c167e28de48080e812884,SCN,2024-06-21_12h49.20.368,LearnStrategy,2023.2.3,Win32,59.17159763,1,1,13,0.069010417,-0.240885417,1,0,0,3.2699,Gabbro_10,4,10,2,5,3.27,-0.098958333,-0.229166667,1,0,0,4.1357,Basalt_rect,2,4.136,0,12,0,12,0,1,,,,,,,,,,,,,
600c167e28de48080e812884,SCN,2024-06-21_12h49.20.368,LearnStrategy,2023.2.3,Win32,59.17159763,1,1,14,0.3984375,-0.38671875,1,0,0,4.5808,Basalt_08,2,08,1,7,4.581,-0.092447917,-0.235677083,1,0,0,2.0944,Basalt_rect,2,2.094,1,13,0,13,0,1,,,,,,,,,,,,,
600c167e28de48080e812884,SCN,2024-06-21_12h49.20.368,LearnStrategy,2023.2.3,Win32,59.17159763,1,1,15,-0.24609375,-0.26171875,1,0,0,4.6551,Obsidian_09,5,09,2,3,4.655,0.390625,-0.41015625,1,0,0,8.2177,Pumice_rect,8,8.218,0,14,0,14,0,1,,,,,,,,,,,,,
600c167e28de48080e812884,SCN,2024-06-21_12h49.20.368,LearnStrategy,2023.2.3,Win32,59.17159763,1,1,16,-0.537760417,-0.084635417,1,0,0,5.0225,Gabbro_05,4,05,3,1,5.023,0.356770833,-0.251302083,1,0,0,5.2717,Gabbro_rect,4,5.272,1,15,0,15,0,1,,,,,,,,,,,,,
600c167e28de48080e812884,SCN,2024-06-21_12h49.20.368,LearnStrategy,2023.2.3,Win32,59.17159763,1,2,1,,,,,,,,5,16,,,,,,,,,,,5,5.558,1,,,,,,-0.373697917,-0.38671875,1,0,0,5.558,Obsidian_rect,0,0,0,0,1,
600c167e28de48080e812884,SCN,2024-06-21_12h49.20.368,LearnStrategy,2023.2.3,Win32,59.17159763,1,2,2,,,,,,,,5,02,,,,,,,,,,,5,2.666,1,,,,,,-0.388020833,-0.412760417,1,0,0,2.6659,Obsidian_rect,1,0,1,0,1,
600c167e28de48080e812884,SCN,2024-06-21_12h49.20.368,LearnStrategy,2023.2.3,Win32,59.17159763,1,2,3,,,,,,,,1,10,,,,,,,,,,,1,5.36,1,,,,,,-0.326822917,-0.263020833,1,0,0,5.3599,Andesite_rect,2,0,2,0,1,
600c167e28de48080e812884,SCN,2024-06-21_12h49.20.368,LearnStrategy,2023.2.3,Win32,59.17159763,1,2,4,,,,,,,,2,11,,,,,,,,,,,4,4.691,0,,,,,,0.395833333,-0.243489583,1,0,0,4.6908,Gabbro_rect,3,0,3,0,1,
600c167e28de48080e812884,SCN,2024-06-21_12h49.20.368,LearnStrategy,2023.2.3,Win32,59.17159763,1,2,5,,,,,,,,2,16,,,,,,,,,,,6,8.029,0,,,,,,-0.08203125,-0.40234375,1,0,0,8.0288,Pegmatite_rect,4,0,4,0,1,
600c167e28de48080e812884,SCN,2024-06-21_12h49.20.368,LearnStrategy,2023.2.3,Win32,59.17159763,1,2,6,,,,,,,,3,10,,,,,,,,,,,1,3.31,0,,,,,,-0.329427083,-0.255208333,1,0,0,3.3095,Andesite_rect,5,0,5,0,1,
600c167e28de48080e812884,SCN,2024-06-21_12h49.20.368,LearnStrategy,2023.2.3,Win32,59.17159763,1,2,7,,,,,,,,4,13,,,,,,,,,,,7,3.257,0,,,,,,0.069010417,-0.391927083,1,0,0,3.2571,Peridotite_rect,6,0,6,0,1,
600c167e28de48080e812884,SCN,2024-06-21_12h49.20.368,LearnStrategy,2023.2.3,Win32,59.17159763,1,2,8,,,,,,,,3,12,,,,,,,,,,,5,3.966,0,,,,,,-0.359375,-0.389322917,1,0,0,3.9661,Obsidian_rect,7,0,7,0,1,
600c167e28de48080e812884,SCN,2024-06-21_12h49.20.368,LearnStrategy,2023.2.3,Win32,59.17159763,1,2,9,,,,,,,,7,15,,,,,,,,,,,5,7.949,0,,,,,,-0.35546875,-0.401041667,1,0,0,7.9489,Obsidian_rect,8,0,8,0,1,
600c167e28de48080e812884,SCN,2024-06-21_12h49.20.368,LearnStrategy,2023.2.3,Win32,59.17159763,1,2,10,,,,,,,,8,05,,,,,,,,,,,7,3.931,0,,,,,,0.08203125,-0.3984375,1,0,0,3.9308,Peridotite_rect,9,0,9,0,1,
600c167e28de48080e812884,SCN,2024-06-21_12h49.20.368,LearnStrategy,2023.2.3,Win32,59.17159763,1,2,11,,,,,,,,4,16,,,,,,,,,,,6,2.172,0,,,,,,-0.10546875,-0.385416667,1,0,0,2.1717,Pegmatite_rect,10,0,10,0,1,
600c167e28de48080e812884,SCN,2024-06-21_12h49.20.368,LearnStrategy,2023.2.3,Win32,59.17159763,1,2,12,,,,,,,,6,05,,,,,,,,,,,3,4.361,0,,,,,,0.12109375,-0.233072917,1,0,0,4.3614,Diorite_rect,11,0,11,0,1,
600c167e28de48080e812884,SCN,2024-06-21_12h49.20.368,LearnStrategy,2023.2.3,Win32,59.17159763,1,2,13,,,,,,,,1,04,,,,,,,,,,,1,2.583,1,,,,,,-0.354166667,-0.2578125,1,0,0,2.583,Andesite_rect,12,0,12,0,1,
600c167e28de48080e812884,SCN,2024-06-21_12h49.20.368,LearnStrategy,2023.2.3,Win32,59.17159763,1,2,14,,,,,,,,7,16,,,,,,,,,,,5,2.277,0,,,,,,-0.39453125,-0.385416667,1,0,0,2.2769,Obsidian_rect,13,0,13,0,1,
600c167e28de48080e812884,SCN,2024-06-21_12h49.20.368,LearnStrategy,2023.2.3,Win32,59.17159763,1,2,15,,,,,,,,8,06,,,,,,,,,,,6,2.315,0,,,,,,-0.1484375,-0.39453125,1,0,0,2.3146,Pegmatite_rect,14,0,14,0,1,
600c167e28de48080e812884,SCN,2024-06-21_12h49.20.368,LearnStrategy,2023.2.3,Win32,59.17159763,1,2,16,,,,,,,,6,03,,,,,,,,,,,3,10.197,0,,,,,,0.126302083,-0.244791667,1,0,0,10.1968,Diorite_rect,15,0,15,0,1,
600c167e28de48080e812884,SCN,2024-06-21_12h49.20.368,LearnStrategy,2023.2.3,Win32,59.17159763,2,1,1,-0.5546875,0.40234375,1,0,0,4.9128,Diorite_14,3,14,6,1,4.913,0.110677083,-0.236979167,1,0,0,4.5229,Diorite_rect,3,4.523,1,0,0,0,0,1,,,,,,,,,,,,,
600c167e28de48080e812884,SCN,2024-06-21_12h49.20.368,LearnStrategy,2023.2.3,Win32,59.17159763,2,1,2,0.555989583,0.2734375,1,0,0,3.029,Gabbro_03,4,03,5,8,3.029,-0.407552083,-0.2421875,1,0,0,3.4334,Andesite_rect,1,3.433,0,1,0,1,0,1,,,,,,,,,,,,,
600c167e28de48080e812884,SCN,2024-06-21_12h49.20.368,LearnStrategy,2023.2.3,Win32,59.17159763,2,1,3,-0.263020833,0.24609375,1,0,0,2.3316,Andesite_07,1,07,5,3,2.332,-0.41015625,-0.2421875,1,0,0,4.7004,Andesite_rect,1,4.7,1,2,0,2,0,1,,,,,,,,,,,,,
600c167e28de48080e812884,SCN,2024-06-21_12h49.20.368,LearnStrategy,2023.2.3,Win32,59.17159763,2,1,4,-0.39453125,-0.12109375,1,0,0,6.9388,Obsidian_12,5,12,3,2,6.939,-0.372395833,-0.3828125,1,0,0,2.9357,Obsidian_rect,5,2.936,1,3,0,3,0,1,,,,,,,,,,,,,
600c167e28de48080e812884,SCN,2024-06-21_12h49.20.368,LearnStrategy,2023.2.3,Win32,59.17159763,2,1,5,-0.401041667,0.40234375,1,0,0,5.0775,Gabbro_14,4,14,6,2,5.078,-0.109375,-0.415364583,1,0,0,5.2924,Pegmatite_rect,6,5.292,0,4,0,4,0,1,,,,,,,,,,,,,
600c167e28de48080e812884,SCN,2024-06-21_12h49.20.368,LearnStrategy,2023.2.3,Win32,59.17159763,2,1,6,-0.08203125,0.3984375,1,0,0,5.9738,Pumice_14,8,14,6,4,5.974,-0.098958333,-0.388020833,1,0,0,3.6329,Pegmatite_rect,6,3.633,0,5,0,5,0,1,,,,,,,,,,,,,
600c167e28de48080e812884,SCN,2024-06-21_12h49.20.368,LearnStrategy,2023.2.3,Win32,59.17159763,2,1,7,0.55859375,0.403645833,1,0,0,5.1381,Pumice_16,8,16,6,8,5.138,0.401041667,-0.41796875,1,0,0,3.1909,Pumice_rect,8,3.191,1,6,0,6,0,1,,,,,,,,,,,,,
600c167e28de48080e812884,SCN,2024-06-21_12h49.20.368,LearnStrategy,2023.2.3,Win32,59.17159763,2,1,8,-0.544270833,-0.278645833,1,0,0,3.9913,Diorite_15,3,15,2,1,3.991,-0.20703125,-0.381510417,1,0,0,3.7758,Pegmatite_rect,6,3.776,0,7,0,7,0,1,,,,,,,,,,,,,
600c167e28de48080e812884,SCN,2024-06-21_12h49.20.368,LearnStrategy,2023.2.3,Win32,59.17159763,2,1,9,0.561197917,-0.119791667,1,0,0,9.2232,Peridotite_02,7,02,3,8,9.223,-0.333333333,-0.41796875,1,0,0,2.8387,Obsidian_rect,5,2.839,0,8,0,8,0,1,,,,,,,,,,,,,
600c167e28de48080e812884,SCN,2024-06-21_12h49.20.368,LearnStrategy,2023.2.3,Win32,59.17159763,2,1,10,0.52734375,-0.416666667,1,0,0,7.3382,Pegmatite_07,6,07,1,8,7.338,0.104166667,-0.415364583,1,0,0,2.3624,Peridotite_rect,7,2.362,0,9,0,9,0,1,,,,,,,,,,,,,
600c167e28de48080e812884,SCN,2024-06-21_12h49.20.368,LearnStrategy,2023.2.3,Win32,59.17159763,2,1,11,-0.36328125,-0.235677083,1,0,0,4.3731,Diorite_09,3,09,2,2,4.373,0.078125,-0.251302083,1,0,0,5.7403,Diorite_rect,3,5.74,1,10,0,10,0,1,,,,,,,,,,,,,
600c167e28de48080e812884,SCN,2024-06-21_12h49.20.368,LearnStrategy,2023.2.3,Win32,59.17159763,2,1,12,-0.227864583,-0.40234375,1,0,0,11.2017,Peridotite_08,7,08,1,3,11.202,0.104166667,-0.421875,1,0,0,10.9686,Peridotite_rect,7,10.969,1,11,0,11,0,1,,,,,,,,,,,,,
600c167e28de48080e812884,SCN,2024-06-21_12h49.20.368,LearnStrategy,2023.2.3,Win32,59.17159763,2,1,13,0.244791667,-0.421875,1,0,0,3.0058,Pumice_10,8,10,1,6,3.006,-0.083333333,-0.399739583,1,0,0,2.6976,Pegmatite_rect,6,2.698,0,12,0,12,0,1,,,,,,,,,,,,,
600c167e28de48080e812884,SCN,2024-06-21_12h49.20.368,LearnStrategy,2023.2.3,Win32,59.17159763,2,1,14,-0.212239583,-0.427083333,1,0,0,3.0421,Peridotite_08,7,08,1,3,3.042,0.11328125,-0.380208333,1,0,0,4.1896,Peridotite_rect,7,4.19,1,13,0,13,0,1,,,,,,,,,,,,,
600c167e28de48080e812884,SCN,2024-06-21_12h49.20.368,LearnStrategy,2023.2.3,Win32,59.17159763,2,1,15,-0.365885417,-0.41796875,1,0,0,2.3118,Peridotite_14,7,14,1,2,2.312,-0.139322917,-0.390625,1,0,0,3.6325,Pegmatite_rect,6,3.632,0,14,0,14,0,1,,,,,,,,,,,,,
600c167e28de48080e812884,SCN,2024-06-21_12h49.20.368,LearnStrategy,2023.2.3,Win32,59.17159763,2,1,16,-0.223958333,-0.42578125,1,0,0,2.8458,Peridotite_08,7,08,1,3,2.846,0.122395833,-0.399739583,1,0,0,2.3589,Peridotite_rect,7,2.359,1,15,0,15,0,1,,,,,,,,,,,,,
600c167e28de48080e812884,SCN,2024-06-21_12h49.20.368,LearnStrategy,2023.2.3,Win32,59.17159763,2,2,1,,,,,,,,3,06,,,,,,,,,,,3,5.408,1,,,,,,0.095052083,-0.26953125,1,0,0,5.408,Diorite_rect,0,0,0,0,1,
600c167e28de48080e812884,SCN,2024-06-21_12h49.20.368,LearnStrategy,2023.2.3,Win32,59.17159763,2,2,2,,,,,,,,6,13,,,,,,,,,,,7,2.848,0,,,,,,0.127604167,-0.39453125,1,0,0,2.8478,Peridotite_rect,1,0,1,0,1,
600c167e28de48080e812884,SCN,2024-06-21_12h49.20.368,LearnStrategy,2023.2.3,Win32,59.17159763,2,2,3,,,,,,,,5,10,,,,,,,,,,,5,2.397,1,,,,,,-0.333333333,-0.403645833,1,0,0,2.3975,Obsidian_rect,2,0,2,0,1,
600c167e28de48080e812884,SCN,2024-06-21_12h49.20.368,LearnStrategy,2023.2.3,Win32,59.17159763,2,2,4,,,,,,,,7,05,,,,,,,,,,,7,2.598,1,,,,,,0.11328125,-0.399739583,1,0,0,2.5979,Peridotite_rect,3,0,3,0,1,
600c167e28de48080e812884,SCN,2024-06-21_12h49.20.368,LearnStrategy,2023.2.3,Win32,59.17159763,2,2,5,,,,,,,,6,11,,,,,,,,,,,6,2.386,1,,,,,,-0.078125,-0.407552083,1,0,0,2.3862,Pegmatite_rect,4,0,4,0,1,
600c167e28de48080e812884,SCN,2024-06-21_12h49.20.368,LearnStrategy,2023.2.3,Win32,59.17159763,2,2,6,,,,,,,,8,09,,,,,,,,,,,8,2.834,1,,,,,,0.38671875,-0.388020833,1,0,0,2.8344,Pumice_rect,5,0,5,0,1,
600c167e28de48080e812884,SCN,2024-06-21_12h49.20.368,LearnStrategy,2023.2.3,Win32,59.17159763,2,2,7,,,,,,,,1,14,,,,,,,,,,,4,12.559,0,,,,,,0.37109375,-0.240885417,1,0,0,12.5587,Gabbro_rect,6,0,6,0,1,
600c167e28de48080e812884,SCN,2024-06-21_12h49.20.368,LearnStrategy,2023.2.3,Win32,59.17159763,2,2,8,,,,,,,,4,08,,,,,,,,,,,8,15.448,0,,,,,,0.401041667,-0.395833333,1,0,0,15.4476,Pumice_rect,7,0,7,0,1,
600c167e28de48080e812884,SCN,2024-06-21_12h49.20.368,LearnStrategy,2023.2.3,Win32,59.17159763,2,2,9,,,,,,,,1,11,,,,,,,,,,,4,4.093,0,,,,,,0.38671875,-0.2578125,1,0,0,4.0928,Gabbro_rect,8,0,8,0,1,
600c167e28de48080e812884,SCN,2024-06-21_12h49.20.368,LearnStrategy,2023.2.3,Win32,59.17159763,2,2,10,,,,,,,,2,09,,,,,,,,,,,4,1.402,0,,,,,,0.38671875,-0.2578125,1,0,0,1.4024,Gabbro_rect,9,0,9,0,1,
600c167e28de48080e812884,SCN,2024-06-21_12h49.20.368,LearnStrategy,2023.2.3,Win32,59.17159763,2,2,11,,,,,,,,8,08,,,,,,,,,,,8,4.485,1,,,,,,0.385416667,-0.412760417,1,0,0,4.485,Pumice_rect,10,0,10,0,1,
600c167e28de48080e812884,SCN,2024-06-21_12h49.20.368,LearnStrategy,2023.2.3,Win32,59.17159763,2,2,12,,,,,,,,7,13,,,,,,,,,,,7,2.478,1,,,,,,0.139322917,-0.391927083,1,0,0,2.4776,Peridotite_rect,11,0,11,0,1,
600c167e28de48080e812884,SCN,2024-06-21_12h49.20.368,LearnStrategy,2023.2.3,Win32,59.17159763,2,2,13,,,,,,,,3,07,,,,,,,,,,,3,4.208,1,,,,,,0.134114583,-0.25390625,1,0,0,4.2085,Diorite_rect,12,0,12,0,1,
600c167e28de48080e812884,SCN,2024-06-21_12h49.20.368,LearnStrategy,2023.2.3,Win32,59.17159763,2,2,14,,,,,,,,4,15,,,,,,,,,,,8,5.492,0,,,,,,0.372395833,-0.390625,1,0,0,5.492,Pumice_rect,13,0,13,0,1,
600c167e28de48080e812884,SCN,2024-06-21_12h49.20.368,LearnStrategy,2023.2.3,Win32,59.17159763,2,2,15,,,,,,,,2,02,,,,,,,,,,,2,3.408,1,,,,,,-0.110677083,-0.247395833,1,0,0,3.4084,Basalt_rect,14,0,14,0,1,
600c167e28de48080e812884,SCN,2024-06-21_12h49.20.368,LearnStrategy,2023.2.3,Win32,59.17159763,2,2,16,,,,,,,,5,08,,,,,,,,,,,5,2.527,1,,,,,,-0.364583333,-0.411458333,1,0,0,2.5271,Obsidian_rect,15,0,15,0,1,
600c167e28de48080e812884,SCN,2024-06-21_12h49.20.368,LearnStrategy,2023.2.3,Win32,59.17159763,3,1,1,-0.52734375,0.3984375,1,0,0,45.8072,Diorite_14,3,14,6,1,45.807,0.119791667,-0.244791667,1,0,0,2.1672,Diorite_rect,3,2.167,1,0,0,0,0,1,,,,,,,,,,,,,
600c167e28de48080e812884,SCN,2024-06-21_12h49.20.368,LearnStrategy,2023.2.3,Win32,59.17159763,3,1,2,-0.233072917,0.279947917,1,0,0,9.0145,Andesite_07,1,07,5,3,9.014,-0.393229167,-0.26953125,1,0,0,5.1,Andesite_rect,1,5.1,1,1,0,1,0,1,,,,,,,,,,,,,
600c167e28de48080e812884,SCN,2024-06-21_12h49.20.368,LearnStrategy,2023.2.3,Win32,59.17159763,3,1,3,0.544270833,0.2421875,1,0,0,4.9444,Gabbro_03,4,03,5,8,4.944,0.388020833,-0.244791667,1,0,0,3.8231,Gabbro_rect,4,3.823,1,2,0,2,0,1,,,,,,,,,,,,,
600c167e28de48080e812884,SCN,2024-06-21_12h49.20.368,LearnStrategy,2023.2.3,Win32,59.17159763,3,1,4,0.209635417,-0.12109375,1,0,0,6.6465,Andesite_01,1,01,3,6,6.646,-0.11328125,-0.243489583,1,0,0,3.7621,Basalt_rect,2,3.762,0,3,0,3,0,1,,,,,,,,,,,,,
600c167e28de48080e812884,SCN,2024-06-21_12h49.20.368,LearnStrategy,2023.2.3,Win32,59.17159763,3,1,5,0.3828125,-0.41796875,1,0,0,4.3281,Basalt_08,2,08,1,7,4.328,-0.088541667,-0.243489583,1,0,0,2.1029,Basalt_rect,2,2.103,1,4,0,4,0,1,,,,,,,,,,,,,
600c167e28de48080e812884,SCN,2024-06-21_12h49.20.368,LearnStrategy,2023.2.3,Win32,59.17159763,3,1,6,-0.07421875,-0.247395833,1,0,0,2.213,Pegmatite_12,6,12,2,4,2.213,0.139322917,-0.256510417,1,0,0,3.1672,Diorite_rect,3,3.167,0,5,0,5,0,1,,,,,,,,,,,,,
600c167e28de48080e812884,SCN,2024-06-21_12h49.20.368,LearnStrategy,2023.2.3,Win32,59.17159763,3,1,7,0.091145833,-0.239583333,1,0,0,3.3805,Gabbro_10,4,10,2,5,3.38,-0.096354167,-0.37890625,1,0,0,4.5369,Pegmatite_rect,6,4.537,0,6,0,6,0,1,,,,,,,,,,,,,
600c167e28de48080e812884,SCN,2024-06-21_12h49.20.368,LearnStrategy,2023.2.3,Win32,59.17159763,3,1,8,0.231770833,-0.240885417,1,0,0,3.4065,Basalt_06,2,06,2,6,3.406,0.231770833,-0.240885417,1,0,0,0.5646,Diorite_rect,3,0.565,0,7,0,7,0,1,,,,,,,,,,,,,
600c167e28de48080e812884,SCN,2024-06-21_12h49.20.368,LearnStrategy,2023.2.3,Win32,59.17159763,3,1,9,0.528645833,-0.25390625,1,0,0,4.4641,Gabbro_11,4,11,2,8,4.464,0.4609375,-0.24609375,1,0,0,1.8107,Gabbro_rect,4,1.811,1,8,0,8,0,1,,,,,,,,,,,,,
600c167e28de48080e812884,SCN,2024-06-21_12h49.20.368,LearnStrategy,2023.2.3,Win32,59.17159763,3,1,10,-0.0703125,-0.091145833,1,0,0,2.0295,Pumice_02,8,02,3,4,2.029,0.350260417,-0.3828125,1,0,0,2.7629,Pumice_rect,8,2.763,1,9,0,9,0,1,,,,,,,,,,,,,
600c167e28de48080e812884,SCN,2024-06-21_12h49.20.368,LearnStrategy,2023.2.3,Win32,59.17159763,3,1,11,-0.217447917,-0.102864583,1,0,0,1.9406,Andesite_02,1,02,3,3,1.941,0.37890625,-0.40625,1,0,0,10.0551,Pumice_rect,8,10.055,0,10,0,10,0,1,,,,,,,,,,,,,
600c167e28de48080e812884,SCN,2024-06-21_12h49.20.368,LearnStrategy,2023.2.3,Win32,59.17159763,3,1,12,-0.373697917,0.25,1,0,0,2.177,Basalt_10,2,10,5,2,2.177,-0.403645833,-0.234375,1,0,0,3.5541,Andesite_rect,1,3.554,0,11,0,11,0,1,,,,,,,,,,,,,
600c167e28de48080e812884,SCN,2024-06-21_12h49.20.368,LearnStrategy,2023.2.3,Win32,59.17159763,3,1,13,-0.09765625,0.243489583,1,0,0,3.6899,Peridotite_04,7,04,5,4,3.69,0.1171875,-0.40625,1,0,0,3.1622,Peridotite_rect,7,3.162,1,12,0,12,0,1,,,,,,,,,,,,,
600c167e28de48080e812884,SCN,2024-06-21_12h49.20.368,LearnStrategy,2023.2.3,Win32,59.17159763,3,1,14,-0.532552083,-0.08984375,1,0,0,3.5457,Gabbro_05,4,05,3,1,3.546,0.3984375,-0.239583333,1,0,0,20.049,Gabbro_rect,4,20.049,1,13,0,13,0,1,,,,,,,,,,,,,
600c167e28de48080e812884,SCN,2024-06-21_12h49.20.368,LearnStrategy,2023.2.3,Win32,59.17159763,3,1,15,0.39453125,-0.087239583,1,0,0,2.6327,Andesite_06,1,06,3,7,2.633,0.399739583,-0.244791667,1,0,0,4.8676,Gabbro_rect,4,4.868,0,14,0,14,0,1,,,,,,,,,,,,,
600c167e28de48080e812884,SCN,2024-06-21_12h49.20.368,LearnStrategy,2023.2.3,Win32,59.17159763,3,1,16,-0.2265625,-0.084635417,1,0,0,2.115,Andesite_02,1,02,3,3,2.115,0.37890625,-0.419270833,1,0,0,2.473,Pumice_rect,8,2.473,0,15,0,15,0,1,,,,,,,,,,,,,
600c167e28de48080e812884,SCN,2024-06-21_12h49.20.368,LearnStrategy,2023.2.3,Win32,59.17159763,3,2,1,,,,,,,,8,15,,,,,,,,,,,8,5.039,1,,,,,,0.3828125,-0.39453125,1,0,0,5.0391,Pumice_rect,0,0,0,0,1,
600c167e28de48080e812884,SCN,2024-06-21_12h49.20.368,LearnStrategy,2023.2.3,Win32,59.17159763,3,2,2,,,,,,,,6,15,,,,,,,,,,,7,2.191,0,,,,,,0.162760417,-0.403645833,1,0,0,2.1906,Peridotite_rect,1,0,1,0,1,
600c167e28de48080e812884,SCN,2024-06-21_12h49.20.368,LearnStrategy,2023.2.3,Win32,59.17159763,3,2,3,,,,,,,,5,11,,,,,,,,,,,5,2.252,1,,,,,,-0.322916667,-0.403645833,1,0,0,2.2524,Obsidian_rect,2,0,2,0,1,
600c167e28de48080e812884,SCN,2024-06-21_12h49.20.368,LearnStrategy,2023.2.3,Win32,59.17159763,3,2,4,,,,,,,,1,05,,,,,,,,,,,1,7.944,1,,,,,,-0.389322917,-0.256510417,1,0,0,7.9444,Andesite_rect,3,0,3,0,1,
600c167e28de48080e812884,SCN,2024-06-21_12h49.20.368,LearnStrategy,2023.2.3,Win32,59.17159763,3,2,5,,,,,,,,3,02,,,,,,,,,,,3,9.809,1,,,,,,0.16796875,-0.265625,1,0,0,9.8092,Diorite_rect,4,0,4,0,1,
600c167e28de48080e812884,SCN,2024-06-21_12h49.20.368,LearnStrategy,2023.2.3,Win32,59.17159763,3,2,6,,,,,,,,8,13,,,,,,,,,,,8,3.345,1,,,,,,0.368489583,-0.391927083,1,0,0,3.3454,Pumice_rect,5,0,5,0,1,
600c167e28de48080e812884,SCN,2024-06-21_12h49.20.368,LearnStrategy,2023.2.3,Win32,59.17159763,3,2,7,,,,,,,,1,09,,,,,,,,,,,4,2.118,0,,,,,,0.397135417,-0.252604167,1,0,0,2.1181,Gabbro_rect,6,0,6,0,1,
600c167e28de48080e812884,SCN,2024-06-21_12h49.20.368,LearnStrategy,2023.2.3,Win32,59.17159763,3,2,8,,,,,,,,3,08,,,,,,,,,,,3,2.64,1,,,,,,0.110677083,-0.243489583,1,0,0,2.64,Diorite_rect,7,0,7,0,1,
600c167e28de48080e812884,SCN,2024-06-21_12h49.20.368,LearnStrategy,2023.2.3,Win32,59.17159763,3,2,9,,,,,,,,2,05,,,,,,,,,,,2,2.456,1,,,,,,-0.098958333,-0.2421875,1,0,0,2.4563,Basalt_rect,8,0,8,0,1,
600c167e28de48080e812884,SCN,2024-06-21_12h49.20.368,LearnStrategy,2023.2.3,Win32,59.17159763,3,2,10,,,,,,,,5,07,,,,,,,,,,,5,4.576,1,,,,,,-0.330729167,-0.40625,1,0,0,4.5756,Obsidian_rect,9,0,9,0,1,
600c167e28de48080e812884,SCN,2024-06-21_12h49.20.368,LearnStrategy,2023.2.3,Win32,59.17159763,3,2,11,,,,,,,,7,06,,,,,,,,,,,7,2.941,1,,,,,,0.125,-0.388020833,1,0,0,2.9407,Peridotite_rect,10,0,10,0,1,
600c167e28de48080e812884,SCN,2024-06-21_12h49.20.368,LearnStrategy,2023.2.3,Win32,59.17159763,3,2,12,,,,,,,,7,12,,,,,,,,,,,7,2.571,1,,,,,,0.131510417,-0.399739583,1,0,0,2.5711,Peridotite_rect,11,0,11,0,1,
600c167e28de48080e812884,SCN,2024-06-21_12h49.20.368,LearnStrategy,2023.2.3,Win32,59.17159763,3,2,13,,,,,,,,2,04,,,,,,,,,,,2,3.218,1,,,,,,-0.131510417,-0.244791667,1,0,0,3.2185,Basalt_rect,12,0,12,0,1,
600c167e28de48080e812884,SCN,2024-06-21_12h49.20.368,LearnStrategy,2023.2.3,Win32,59.17159763,3,2,14,,,,,,,,4,01,,,,,,,,,,,1,4.606,0,,,,,,-0.328125,-0.244791667,1,0,0,4.6065,Andesite_rect,13,0,13,0,1,
600c167e28de48080e812884,SCN,2024-06-21_12h49.20.368,LearnStrategy,2023.2.3,Win32,59.17159763,3,2,15,,,,,,,,6,10,,,,,,,,,,,7,1.882,0,,,,,,0.1171875,-0.389322917,1,0,0,1.8818,Peridotite_rect,14,0,14,0,1,
600c167e28de48080e812884,SCN,2024-06-21_12h49.20.368,LearnStrategy,2023.2.3,Win32,59.17159763,3,2,16,,,,,,,,4,12,,,,,,,,,,,4,2.787,1,,,,,,0.399739583,-0.26953125,1,0,0,2.787,Gabbro_rect,15,0,15,0,1,
600c167e28de48080e812884,SCN,2024-06-21_12h49.20.368,LearnStrategy,2023.2.3,Win32,59.17159763,4,1,1,-0.516927083,0.233072917,1,0,0,45.2923,Pegmatite_06,6,06,5,1,45.292,0.15625,-0.385416667,1,0,0,4.2396,Peridotite_rect,7,4.24,0,0,0,0,0,1,,,,,,,,,,,,,
600c167e28de48080e812884,SCN,2024-06-21_12h49.20.368,LearnStrategy,2023.2.3,Win32,59.17159763,4,1,2,-0.533854167,0.234375,1,0,0,2.2627,Pegmatite_06,6,06,5,1,2.263,-0.115885417,-0.40234375,1,0,0,6.9172,Pegmatite_rect,6,6.917,1,1,0,1,0,1,,,,,,,,,,,,,
600c167e28de48080e812884,SCN,2024-06-21_12h49.20.368,LearnStrategy,2023.2.3,Win32,59.17159763,4,1,3,-0.39453125,0.251302083,1,0,0,1.9606,Basalt_10,2,10,5,2,1.961,-0.141927083,-0.252604167,1,0,0,4.6807,Basalt_rect,2,4.681,1,2,0,2,0,1,,,,,,,,,,,,,
600c167e28de48080e812884,SCN,2024-06-21_12h49.20.368,LearnStrategy,2023.2.3,Win32,59.17159763,4,1,4,-0.220052083,0.24609375,1,0,0,2.0277,Andesite_07,1,07,5,3,2.028,-0.368489583,-0.243489583,1,0,0,3.3837,Andesite_rect,1,3.384,1,3,0,3,0,1,,,,,,,,,,,,,
600c167e28de48080e812884,SCN,2024-06-21_12h49.20.368,LearnStrategy,2023.2.3,Win32,59.17159763,4,1,5,-0.087239583,0.2421875,1,0,0,2.63,Peridotite_04,7,04,5,4,2.63,0.14453125,-0.40625,1,0,0,4.0524,Peridotite_rect,7,4.052,1,4,0,4,0,1,,,,,,,,,,,,,
600c167e28de48080e812884,SCN,2024-06-21_12h49.20.368,LearnStrategy,2023.2.3,Win32,59.17159763,4,1,6,0.065104167,0.26171875,1,0,0,2.0634,Obsidian_04,5,04,5,5,2.063,-0.337239583,-0.391927083,1,0,0,1.9887,Obsidian_rect,5,1.989,1,5,0,5,0,1,,,,,,,,,,,,,
600c167e28de48080e812884,SCN,2024-06-21_12h49.20.368,LearnStrategy,2023.2.3,Win32,59.17159763,4,1,7,0.23828125,0.23828125,1,0,0,1.8976,Obsidian_14,5,14,5,6,1.898,-0.352864583,-0.41015625,1,0,0,10.8188,Obsidian_rect,5,10.819,1,6,0,6,0,1,,,,,,,,,,,,,
600c167e28de48080e812884,SCN,2024-06-21_12h49.20.368,LearnStrategy,2023.2.3,Win32,59.17159763,4,1,8,0.401041667,0.26171875,1,0,0,3.7255,Pumice_03,8,03,5,7,3.726,0.359375,-0.403645833,1,0,0,2.0766,Pumice_rect,8,2.077,1,7,0,7,0,1,,,,,,,,,,,,,
600c167e28de48080e812884,SCN,2024-06-21_12h49.20.368,LearnStrategy,2023.2.3,Win32,59.17159763,4,1,9,0.549479167,0.2578125,1,0,0,2.0311,Gabbro_03,4,03,5,8,2.031,0.421875,-0.251302083,1,0,0,3.549,Gabbro_rect,4,3.549,1,8,0,8,0,1,,,,,,,,,,,,,
600c167e28de48080e812884,SCN,2024-06-21_12h49.20.368,LearnStrategy,2023.2.3,Win32,59.17159763,4,1,10,-0.38671875,0.391927083,1,0,0,2.5294,Gabbro_14,4,14,6,2,2.529,-0.384114583,-0.23828125,1,0,0,8.7057,Andesite_rect,1,8.706,0,9,0,9,0,1,,,,,,,,,,,,,
600c167e28de48080e812884,SCN,2024-06-21_12h49.20.368,LearnStrategy,2023.2.3,Win32,59.17159763,4,1,11,-0.2421875,0.39453125,1,0,0,1.8273,Peridotite_10,7,10,6,3,1.827,0.125,-0.403645833,1,0,0,2.852,Peridotite_rect,7,2.852,1,10,0,10,0,1,,,,,,,,,,,,,
600c167e28de48080e812884,SCN,2024-06-21_12h49.20.368,LearnStrategy,2023.2.3,Win32,59.17159763,4,1,12,-0.071614583,0.42578125,1,0,0,2.0968,Pumice_14,8,14,6,4,2.097,0.404947917,-0.404947917,1,0,0,2.4868,Pumice_rect,8,2.487,1,11,0,11,0,1,,,,,,,,,,,,,
600c167e28de48080e812884,SCN,2024-06-21_12h49.20.368,LearnStrategy,2023.2.3,Win32,59.17159763,4,1,13,0.055989583,0.41015625,1,0,0,1.4303,Basalt_01,2,01,6,5,1.43,-0.110677083,-0.259114583,1,0,0,4.5844,Basalt_rect,2,4.584,1,12,0,12,0,1,,,,,,,,,,,,,
600c167e28de48080e812884,SCN,2024-06-21_12h49.20.368,LearnStrategy,2023.2.3,Win32,59.17159763,4,1,14,0.26953125,0.430989583,1,0,0,1.8928,Pegmatite_16,6,16,6,6,1.893,0.143229167,-0.407552083,1,0,0,3.4533,Peridotite_rect,7,3.453,0,13,0,13,0,1,,,,,,,,,,,,,
600c167e28de48080e812884,SCN,2024-06-21_12h49.20.368,LearnStrategy,2023.2.3,Win32,59.17159763,4,1,15,0.373697917,0.415364583,1,0,0,2.1638,Obsidian_05,5,05,6,7,2.164,-0.37890625,-0.38671875,1,0,0,3.5186,Obsidian_rect,5,3.519,1,14,0,14,0,1,,,,,,,,,,,,,
600c167e28de48080e812884,SCN,2024-06-21_12h49.20.368,LearnStrategy,2023.2.3,Win32,59.17159763,4,1,16,0.54296875,0.41796875,1,0,0,1.9653,Pumice_16,8,16,6,8,1.965,0.424479167,-0.397135417,1,0,0,2.1838,Pumice_rect,8,2.184,1,15,0,15,0,1,,,,,,,,,,,,,
600c167e28de48080e812884,SCN,2024-06-21_12h49.20.368,LearnStrategy,2023.2.3,Win32,59.17159763,4,2,1,,,,,,,,5,16,,,,,,,,,,,5,3.513,1,,,,,,-0.33984375,-0.404947917,1,0,0,3.513,Obsidian_rect,0,0,0,0,1,
600c167e28de48080e812884,SCN,2024-06-21_12h49.20.368,LearnStrategy,2023.2.3,Win32,59.17159763,4,2,2,,,,,,,,1,14,,,,,,,,,,,4,17.773,0,,,,,,0.3984375,-0.26171875,1,0,0,17.7729,Gabbro_rect,1,0,1,0,1,
600c167e28de48080e812884,SCN,2024-06-21_12h49.20.368,LearnStrategy,2023.2.3,Win32,59.17159763,4,2,3,,,,,,,,7,05,,,,,,,,,,,7,2.786,1,,,,,,0.1875,-0.39453125,1,0,0,2.7858,Peridotite_rect,2,0,2,0,1,
600c167e28de48080e812884,SCN,2024-06-21_12h49.20.368,LearnStrategy,2023.2.3,Win32,59.17159763,4,2,4,,,,,,,,4,16,,,,,,,,,,,2,5.472,0,,,,,,-0.08203125,-0.259114583,1,0,0,5.4722,Basalt_rect,3,0,3,0,1,
600c167e28de48080e812884,SCN,2024-06-21_12h49.20.368,LearnStrategy,2023.2.3,Win32,59.17159763,4,2,5,,,,,,,,6,03,,,,,,,,,,,6,5.113,1,,,,,,-0.088541667,-0.407552083,1,0,0,5.1133,Pegmatite_rect,4,0,4,0,1,
600c167e28de48080e812884,SCN,2024-06-21_12h49.20.368,LearnStrategy,2023.2.3,Win32,59.17159763,4,2,6,,,,,,,,4,12,,,,,,,,,,,4,3.483,1,,,,,,0.377604167,-0.255208333,1,0,0,3.4825,Gabbro_rect,5,0,5,0,1,
600c167e28de48080e812884,SCN,2024-06-21_12h49.20.368,LearnStrategy,2023.2.3,Win32,59.17159763,4,2,7,,,,,,,,3,02,,,,,,,,,,,1,5.78,0,,,,,,-0.372395833,-0.255208333,1,0,0,5.7798,Andesite_rect,6,0,6,0,1,
600c167e28de48080e812884,SCN,2024-06-21_12h49.20.368,LearnStrategy,2023.2.3,Win32,59.17159763,4,2,8,,,,,,,,8,15,,,,,,,,,,,8,3.919,1,,,,,,0.3984375,-0.407552083,1,0,0,3.919,Pumice_rect,7,0,7,0,1,
600c167e28de48080e812884,SCN,2024-06-21_12h49.20.368,LearnStrategy,2023.2.3,Win32,59.17159763,4,2,9,,,,,,,,2,05,,,,,,,,,,,2,2.337,1,,,,,,-0.1015625,-0.268229167,1,0,0,2.3369,Basalt_rect,8,0,8,0,1,
600c167e28de48080e812884,SCN,2024-06-21_12h49.20.368,LearnStrategy,2023.2.3,Win32,59.17159763,4,2,10,,,,,,,,6,05,,,,,,,,,,,6,4.939,1,,,,,,-0.091145833,-0.399739583,1,0,0,4.9395,Pegmatite_rect,9,0,9,0,1,
600c167e28de48080e812884,SCN,2024-06-21_12h49.20.368,LearnStrategy,2023.2.3,Win32,59.17159763,4,2,11,,,,,,,,1,10,,,,,,,,,,,4,5.676,0,,,,,,0.423177083,-0.231770833,1,0,0,5.676,Gabbro_rect,10,0,10,0,1,
600c167e28de48080e812884,SCN,2024-06-21_12h49.20.368,LearnStrategy,2023.2.3,Win32,59.17159763,4,2,12,,,,,,,,3,08,,,,,,,,,,,3,2.321,1,,,,,,0.16015625,-0.252604167,1,0,0,2.3214,Diorite_rect,11,0,11,0,1,
600c167e28de48080e812884,SCN,2024-06-21_12h49.20.368,LearnStrategy,2023.2.3,Win32,59.17159763,4,2,13,,,,,,,,7,15,,,,,,,,,,,7,4.022,1,,,,,,0.14453125,-0.39453125,1,0,0,4.022,Peridotite_rect,12,0,12,0,1,
600c167e28de48080e812884,SCN,2024-06-21_12h49.20.368,LearnStrategy,2023.2.3,Win32,59.17159763,4,2,14,,,,,,,,5,07,,,,,,,,,,,5,3.994,1,,,,,,-0.38671875,-0.395833333,1,0,0,3.9939,Obsidian_rect,13,0,13,0,1,
600c167e28de48080e812884,SCN,2024-06-21_12h49.20.368,LearnStrategy,2023.2.3,Win32,59.17159763,4,2,15,,,,,,,,2,04,,,,,,,,,,,2,4.041,1,,,,,,-0.14453125,-0.236979167,1,0,0,4.0411,Basalt_rect,14,0,14,0,1,
600c167e28de48080e812884,SCN,2024-06-21_12h49.20.368,LearnStrategy,2023.2.3,Win32,59.17159763,4,2,16,,,,,,,,8,13,,,,,,,,,,,8,2.14,1,,,,,,0.391927083,-0.399739583,1,0,0,2.1403,Pumice_rect,15,0,15,0,1,
600c167e28de48080e812884,SCN,2024-06-21_12h49.20.368,LearnStrategy,2023.2.3,Win32,59.17159763,5,1,1,-0.561197917,0.100260417,1,0,0,4.0631,Basalt_14,2,14,4,1,4.063,0.384114583,-0.243489583,1,0,0,8.0076,Gabbro_rect,4,8.008,0,0,0,0,0,1,,,,,,,,,,,,,
600c167e28de48080e812884,SCN,2024-06-21_12h49.20.368,LearnStrategy,2023.2.3,Win32,59.17159763,5,1,2,-0.358072917,0.08984375,1,0,0,2.0642,Pegmatite_09,6,09,4,2,2.064,0.130208333,-0.411458333,1,0,0,2.5837,Peridotite_rect,7,2.584,0,1,0,1,0,1,,,,,,,,,,,,,
600c167e28de48080e812884,SCN,2024-06-21_12h49.20.368,LearnStrategy,2023.2.3,Win32,59.17159763,5,1,3,-0.229166667,0.0703125,1,0,0,1.8311,Basalt_12,2,12,4,3,1.831,0.399739583,-0.407552083,1,0,0,6.0507,Pumice_rect,8,6.051,0,2,0,2,0,1,,,,,,,,,,,,,
600c167e28de48080e812884,SCN,2024-06-21_12h49.20.368,LearnStrategy,2023.2.3,Win32,59.17159763,5,1,4,-0.040364583,0.075520833,1,0,0,2.5951,Obsidian_06,5,06,4,4,2.595,-0.432291667,-0.391927083,1,0,0,1.9831,Obsidian_rect,5,1.983,1,3,0,3,0,1,,,,,,,,,,,,,
600c167e28de48080e812884,SCN,2024-06-21_12h49.20.368,LearnStrategy,2023.2.3,Win32,59.17159763,5,1,5,0.0703125,0.092447917,1,0,0,1.5956,Peridotite_07,7,07,4,5,1.596,0.38671875,-0.251302083,1,0,0,4.6859,Gabbro_rect,4,4.686,0,4,0,4,0,1,,,,,,,,,,,,,
600c167e28de48080e812884,SCN,2024-06-21_12h49.20.368,LearnStrategy,2023.2.3,Win32,59.17159763,5,1,6,0.21875,0.080729167,1,0,0,3.8637,Andesite_03,1,03,4,6,3.864,0.395833333,-0.266927083,1,0,0,8.14,Gabbro_rect,4,8.14,0,5,0,5,0,1,,,,,,,,,,,,,
600c167e28de48080e812884,SCN,2024-06-21_12h49.20.368,LearnStrategy,2023.2.3,Win32,59.17159763,5,1,7,0.36328125,0.098958333,1,0,0,1.8924,Gabbro_09,4,09,4,7,1.892,-0.12109375,-0.264322917,1,0,0,5.7519,Basalt_rect,2,5.752,0,6,0,6,0,1,,,,,,,,,,,,,
600c167e28de48080e812884,SCN,2024-06-21_12h49.20.368,LearnStrategy,2023.2.3,Win32,59.17159763,5,1,8,0.544270833,0.08984375,1,0,0,2.2265,Diorite_11,3,11,4,8,2.226,-0.401041667,-0.247395833,1,0,0,5.1528,Andesite_rect,1,5.153,0,7,0,7,0,1,,,,,,,,,,,,,
600c167e28de48080e812884,SCN,2024-06-21_12h49.20.368,LearnStrategy,2023.2.3,Win32,59.17159763,5,1,9,-0.544270833,0.083333333,1,0,0,2.9966,Basalt_14,2,14,4,1,2.997,-0.153645833,-0.243489583,1,0,0,4.1376,Basalt_rect,2,4.138,1,8,0,8,0,1,,,,,,,,,,,,,
600c167e28de48080e812884,SCN,2024-06-21_12h49.20.368,LearnStrategy,2023.2.3,Win32,59.17159763,5,1,10,-0.360677083,0.067708333,1,0,0,2.0638,Pegmatite_09,6,09,4,2,2.064,-0.131510417,-0.403645833,1,0,0,3.0788,Pegmatite_rect,6,3.079,1,9,0,9,0,1,,,,,,,,,,,,,
600c167e28de48080e812884,SCN,2024-06-21_12h49.20.368,LearnStrategy,2023.2.3,Win32,59.17159763,5,1,11,-0.216145833,0.084635417,1,0,0,1.996,Basalt_12,2,12,4,3,1.996,-0.130208333,-0.239583333,1,0,0,3.584,Basalt_rect,2,3.584,1,10,0,10,0,1,,,,,,,,,,,,,
600c167e28de48080e812884,SCN,2024-06-21_12h49.20.368,LearnStrategy,2023.2.3,Win32,59.17159763,5,1,12,-0.067708333,0.111979167,1,0,0,1.6978,Obsidian_06,5,06,4,4,1.698,-0.375,-0.389322917,1,0,0,1.6178,Obsidian_rect,5,1.618,1,11,0,11,0,1,,,,,,,,,,,,,
600c167e28de48080e812884,SCN,2024-06-21_12h49.20.368,LearnStrategy,2023.2.3,Win32,59.17159763,5,1,13,0.065104167,0.10546875,1,0,0,1.4968,Peridotite_07,7,07,4,5,1.497,0.123697917,-0.411458333,1,0,0,9.5846,Peridotite_rect,7,9.585,1,12,0,12,0,1,,,,,,,,,,,,,
600c167e28de48080e812884,SCN,2024-06-21_12h49.20.368,LearnStrategy,2023.2.3,Win32,59.17159763,5,1,14,0.227864583,0.09765625,1,0,0,1.7619,Andesite_03,1,03,4,6,1.762,-0.33984375,-0.248697917,1,0,0,7.9525,Andesite_rect,1,7.952,1,13,0,13,0,1,,,,,,,,,,,,,
600c167e28de48080e812884,SCN,2024-06-21_12h49.20.368,LearnStrategy,2023.2.3,Win32,59.17159763,5,1,15,0.399739583,0.100260417,1,0,0,2.1994,Gabbro_09,4,09,4,7,2.199,-0.095052083,-0.2421875,1,0,0,5.6138,Basalt_rect,2,5.614,0,14,0,14,0,1,,,,,,,,,,,,,
600c167e28de48080e812884,SCN,2024-06-21_12h49.20.368,LearnStrategy,2023.2.3,Win32,59.17159763,5,1,16,0.536458333,0.078125,1,0,0,1.8364,Diorite_11,3,11,4,8,1.836,0.135416667,-0.256510417,1,0,0,2.408,Diorite_rect,3,2.408,1,15,0,15,0,1,,,,,,,,,,,,,
600c167e28de48080e812884,SCN,2024-06-21_12h49.20.368,LearnStrategy,2023.2.3,Win32,59.17159763,5,2,1,,,,,,,,1,11,,,,,,,,,,,1,5.298,1,,,,,,-0.381510417,-0.2578125,1,0,0,5.2984,Andesite_rect,0,0,0,0,1,
600c167e28de48080e812884,SCN,2024-06-21_12h49.20.368,LearnStrategy,2023.2.3,Win32,59.17159763,5,2,2,,,,,,,,2,09,,,,,,,,,,,2,2.95,1,,,,,,-0.145833333,-0.255208333,1,0,0,2.9505,Basalt_rect,1,0,1,0,1,
600c167e28de48080e812884,SCN,2024-06-21_12h49.20.368,LearnStrategy,2023.2.3,Win32,59.17159763,5,2,3,,,,,,,,8,05,,,,,,,,,,,4,9.207,0,,,,,,0.380208333,-0.252604167,1,0,0,9.2068,Gabbro_rect,2,0,2,0,1,
600c167e28de48080e812884,SCN,2024-06-21_12h49.20.368,LearnStrategy,2023.2.3,Win32,59.17159763,5,2,4,,,,,,,,7,06,,,,,,,,,,,6,3.915,0,,,,,,-0.100260417,-0.401041667,1,0,0,3.9152,Pegmatite_rect,3,0,3,0,1,
600c167e28de48080e812884,SCN,2024-06-21_12h49.20.368,LearnStrategy,2023.2.3,Win32,59.17159763,5,2,5,,,,,,,,8,06,,,,,,,,,,,8,2.297,1,,,,,,0.348958333,-0.39453125,1,0,0,2.297,Pumice_rect,4,0,4,0,1,
600c167e28de48080e812884,SCN,2024-06-21_12h49.20.368,LearnStrategy,2023.2.3,Win32,59.17159763,5,2,6,,,,,,,,7,13,,,,,,,,,,,6,2.857,0,,,,,,-0.118489583,-0.408854167,1,0,0,2.8568,Pegmatite_rect,5,0,5,0,1,
600c167e28de48080e812884,SCN,2024-06-21_12h49.20.368,LearnStrategy,2023.2.3,Win32,59.17159763,5,2,7,,,,,,,,1,04,,,,,,,,,,,4,3.576,0,,,,,,0.393229167,-0.247395833,1,0,0,3.5762,Gabbro_rect,6,0,6,0,1,
600c167e28de48080e812884,SCN,2024-06-21_12h49.20.368,LearnStrategy,2023.2.3,Win32,59.17159763,5,2,8,,,,,,,,6,15,,,,,,,,,,,6,2.504,1,,,,,,-0.14453125,-0.41015625,1,0,0,2.5043,Pegmatite_rect,7,0,7,0,1,
600c167e28de48080e812884,SCN,2024-06-21_12h49.20.368,LearnStrategy,2023.2.3,Win32,59.17159763,5,2,9,,,,,,,,3,06,,,,,,,,,,,3,3.65,1,,,,,,0.100260417,-0.239583333,1,0,0,3.6504,Diorite_rect,8,0,8,0,1,
600c167e28de48080e812884,SCN,2024-06-21_12h49.20.368,LearnStrategy,2023.2.3,Win32,59.17159763,5,2,10,,,,,,,,5,11,,,,,,,,,,,5,1.774,1,,,,,,-0.33984375,-0.395833333,1,0,0,1.7738,Obsidian_rect,9,0,9,0,1,
600c167e28de48080e812884,SCN,2024-06-21_12h49.20.368,LearnStrategy,2023.2.3,Win32,59.17159763,5,2,11,,,,,,,,4,13,,,,,,,,,,,4,15.972,1,,,,,,0.412760417,-0.25,1,0,0,15.9715,Gabbro_rect,10,0,10,0,1,
600c167e28de48080e812884,SCN,2024-06-21_12h49.20.368,LearnStrategy,2023.2.3,Win32,59.17159763,5,2,12,,,,,,,,2,16,,,,,,,,,,,2,6.12,1,,,,,,-0.17578125,-0.259114583,1,0,0,6.1195,Basalt_rect,11,0,11,0,1,
600c167e28de48080e812884,SCN,2024-06-21_12h49.20.368,LearnStrategy,2023.2.3,Win32,59.17159763,5,2,13,,,,,,,,6,10,,,,,,,,,,,6,2.918,1,,,,,,-0.114583333,-0.393229167,1,0,0,2.9179,Pegmatite_rect,12,0,12,0,1,
600c167e28de48080e812884,SCN,2024-06-21_12h49.20.368,LearnStrategy,2023.2.3,Win32,59.17159763,5,2,14,,,,,,,,5,08,,,,,,,,,,,5,1.773,1,,,,,,-0.330729167,-0.391927083,1,0,0,1.7729,Obsidian_rect,13,0,13,0,1,
600c167e28de48080e812884,SCN,2024-06-21_12h49.20.368,LearnStrategy,2023.2.3,Win32,59.17159763,5,2,15,,,,,,,,4,15,,,,,,,,,,,1,5.189,0,,,,,,-0.348958333,-0.255208333,1,0,0,5.1887,Andesite_rect,14,0,14,0,1,
600c167e28de48080e812884,SCN,2024-06-21_12h49.20.368,LearnStrategy,2023.2.3,Win32,59.17159763,5,2,16,,,,,,,,3,07,,,,,,,,,,,3,3.718,1,,,,,,0.088541667,-0.233072917,1,0,0,3.7177,Diorite_rect,15,0,15,0,1,
600c167e28de48080e812884,SCN,2024-06-21_12h49.20.368,LearnStrategy,2023.2.3,Win32,59.17159763,6,1,1,-0.526041667,-0.098958333,1,0,0,7.2637,Gabbro_05,4,05,3,1,7.264,0.10546875,-0.416666667,1,0,0,8.1699,Peridotite_rect,7,8.17,0,0,0,0,0,1,,,,,,,,,,,,,
600c167e28de48080e812884,SCN,2024-06-21_12h49.20.368,LearnStrategy,2023.2.3,Win32,59.17159763,6,1,2,-0.23828125,-0.1015625,1,0,0,3.5956,Andesite_02,1,02,3,3,3.596,0.389322917,-0.2421875,1,0,0,3.1841,Gabbro_rect,4,3.184,0,1,0,1,0,1,,,,,,,,,,,,,
600c167e28de48080e812884,SCN,2024-06-21_12h49.20.368,LearnStrategy,2023.2.3,Win32,59.17159763,6,1,3,-0.0859375,-0.096354167,1,0,0,1.4982,Pumice_02,8,02,3,4,1.498,0.391927083,-0.395833333,1,0,0,2.5833,Pumice_rect,8,2.583,1,2,0,2,0,1,,,,,,,,,,,,,
600c167e28de48080e812884,SCN,2024-06-21_12h49.20.368,LearnStrategy,2023.2.3,Win32,59.17159763,6,1,4,0.1015625,-0.100260417,1,0,0,2.5624,Pumice_04,8,04,3,5,2.562,-0.10546875,-0.244791667,1,0,0,6.2846,Basalt_rect,2,6.285,0,3,0,3,0,1,,,,,,,,,,,,,
600c167e28de48080e812884,SCN,2024-06-21_12h49.20.368,LearnStrategy,2023.2.3,Win32,59.17159763,6,1,5,0.234375,-0.1171875,1,0,0,1.4291,Andesite_01,1,01,3,6,1.429,-0.388020833,-0.25,1,0,0,4.5499,Andesite_rect,1,4.55,1,4,0,4,0,1,,,,,,,,,,,,,
600c167e28de48080e812884,SCN,2024-06-21_12h49.20.368,LearnStrategy,2023.2.3,Win32,59.17159763,6,1,6,0.372395833,-0.09765625,1,0,0,1.7942,Andesite_06,1,06,3,7,1.794,-0.35546875,-0.243489583,1,0,0,4.7511,Andesite_rect,1,4.751,1,5,0,5,0,1,,,,,,,,,,,,,
600c167e28de48080e812884,SCN,2024-06-21_12h49.20.368,LearnStrategy,2023.2.3,Win32,59.17159763,6,1,7,0.595052083,-0.102864583,1,0,0,1.4959,Peridotite_02,7,02,3,8,1.496,0.079427083,-0.412760417,1,0,0,5.7856,Peridotite_rect,7,5.786,1,6,0,6,0,1,,,,,,,,,,,,,
600c167e28de48080e812884,SCN,2024-06-21_12h49.20.368,LearnStrategy,2023.2.3,Win32,59.17159763,6,1,8,-0.54296875,-0.282552083,1,0,0,4.7962,Diorite_15,3,15,2,1,4.796,-0.38671875,-0.248697917,1,0,0,2.1051,Andesite_rect,1,2.105,0,7,0,7,0,1,,,,,,,,,,,,,
600c167e28de48080e812884,SCN,2024-06-21_12h49.20.368,LearnStrategy,2023.2.3,Win32,59.17159763,6,1,9,-0.393229167,-0.25,1,0,0,2.1455,Diorite_09,3,09,2,2,2.145,0.083333333,-0.23828125,1,0,0,2.8772,Diorite_rect,3,2.877,1,8,0,8,0,1,,,,,,,,,,,,,
600c167e28de48080e812884,SCN,2024-06-21_12h49.20.368,LearnStrategy,2023.2.3,Win32,59.17159763,6,1,10,-0.0859375,-0.248697917,1,0,0,2.8637,Pegmatite_12,6,12,2,4,2.864,0.109375,-0.401041667,1,0,0,4.6851,Peridotite_rect,7,4.685,0,9,0,9,0,1,,,,,,,,,,,,,
600c167e28de48080e812884,SCN,2024-06-21_12h49.20.368,LearnStrategy,2023.2.3,Win32,59.17159763,6,1,11,0.076822917,-0.255208333,1,0,0,3.8964,Gabbro_10,4,10,2,5,3.896,-0.143229167,-0.24609375,1,0,0,2.2695,Basalt_rect,2,2.27,0,10,0,10,0,1,,,,,,,,,,,,,
600c167e28de48080e812884,SCN,2024-06-21_12h49.20.368,LearnStrategy,2023.2.3,Win32,59.17159763,6,1,12,0.204427083,-0.24609375,1,0,0,2.6958,Basalt_06,2,06,2,6,2.696,-0.118489583,-0.252604167,1,0,0,1.9499,Basalt_rect,2,1.95,1,11,0,11,0,1,,,,,,,,,,,,,
600c167e28de48080e812884,SCN,2024-06-21_12h49.20.368,LearnStrategy,2023.2.3,Win32,59.17159763,6,1,13,0.380208333,-0.243489583,1,0,0,1.831,Andesite_16,1,16,2,7,1.831,0.40234375,-0.239583333,1,0,0,8.5177,Gabbro_rect,4,8.518,0,12,0,12,0,1,,,,,,,,,,,,,
600c167e28de48080e812884,SCN,2024-06-21_12h49.20.368,LearnStrategy,2023.2.3,Win32,59.17159763,6,1,14,-0.552083333,-0.41015625,1,0,0,4.3316,Pegmatite_08,6,08,1,1,4.332,-0.08984375,-0.395833333,1,0,0,3.8382,Pegmatite_rect,6,3.838,1,13,0,13,0,1,,,,,,,,,,,,,
600c167e28de48080e812884,SCN,2024-06-21_12h49.20.368,LearnStrategy,2023.2.3,Win32,59.17159763,6,1,15,-0.37109375,-0.412760417,1,0,0,1.4968,Peridotite_14,7,14,1,2,1.497,0.1328125,-0.255208333,1,0,0,4.0498,Diorite_rect,3,4.05,0,14,0,14,0,1,,,,,,,,,,,,,
600c167e28de48080e812884,SCN,2024-06-21_12h49.20.368,LearnStrategy,2023.2.3,Win32,59.17159763,6,1,16,-0.2265625,-0.423177083,1,0,0,2.3276,Peridotite_08,7,08,1,3,2.328,0.369791667,-0.236979167,1,0,0,30.3849,Gabbro_rect,4,30.385,0,15,0,15,0,1,,,,,,,,,,,,,
600c167e28de48080e812884,SCN,2024-06-21_12h49.20.368,LearnStrategy,2023.2.3,Win32,59.17159763,6,2,1,,,,,,,,2,02,,,,,,,,,,,1,11.284,0,,,,,,-0.377604167,-0.25390625,1,0,0,11.2844,Andesite_rect,0,0,0,0,1,
600c167e28de48080e812884,SCN,2024-06-21_12h49.20.368,LearnStrategy,2023.2.3,Win32,59.17159763,6,2,2,,,,,,,,4,08,,,,,,,,,,,1,1.885,0,,,,,,-0.377604167,-0.25390625,1,0,0,1.8855,Andesite_rect,1,0,1,0,1,
600c167e28de48080e812884,SCN,2024-06-21_12h49.20.368,LearnStrategy,2023.2.3,Win32,59.17159763,6,2,3,,,,,,,,3,12,,,,,,,,,,,3,2.853,1,,,,,,0.131510417,-0.2421875,1,0,0,2.8534,Diorite_rect,2,0,2,0,1,
600c167e28de48080e812884,SCN,2024-06-21_12h49.20.368,LearnStrategy,2023.2.3,Win32,59.17159763,6,2,4,,,,,,,,6,11,,,,,,,,,,,6,2.105,1,,,,,,-0.111979167,-0.399739583,1,0,0,2.1055,Pegmatite_rect,3,0,3,0,1,
600c167e28de48080e812884,SCN,2024-06-21_12h49.20.368,LearnStrategy,2023.2.3,Win32,59.17159763,6,2,5,,,,,,,,7,12,,,,,,,,,,,3,10.554,0,,,,,,0.088541667,-0.247395833,1,0,0,10.5539,Diorite_rect,4,0,4,0,1,
600c167e28de48080e812884,SCN,2024-06-21_12h49.20.368,LearnStrategy,2023.2.3,Win32,59.17159763,6,2,6,,,,,,,,2,11,,,,,,,,,,,1,7.252,0,,,,,,-0.380208333,-0.256510417,1,0,0,7.2518,Andesite_rect,5,0,5,0,1,
600c167e28de48080e812884,SCN,2024-06-21_12h49.20.368,LearnStrategy,2023.2.3,Win32,59.17159763,6,2,7,,,,,,,,5,10,,,,,,,,,,,5,1.55,1,,,,,,-0.39453125,-0.381510417,1,0,0,1.5496,Obsidian_rect,6,0,6,0,1,
600c167e28de48080e812884,SCN,2024-06-21_12h49.20.368,LearnStrategy,2023.2.3,Win32,59.17159763,6,2,8,,,,,,,,7,16,,,,,,,,,,,7,8.158,1,,,,,,0.12109375,-0.408854167,1,0,0,8.1582,Peridotite_rect,7,0,7,0,1,
600c167e28de48080e812884,SCN,2024-06-21_12h49.20.368,LearnStrategy,2023.2.3,Win32,59.17159763,6,2,9,,,,,,,,5,02,,,,,,,,,,,5,1.848,1,,,,,,-0.3671875,-0.404947917,1,0,0,1.8484,Obsidian_rect,8,0,8,0,1,
600c167e28de48080e812884,SCN,2024-06-21_12h49.20.368,LearnStrategy,2023.2.3,Win32,59.17159763,6,2,10,,,,,,,,8,08,,,,,,,,,,,4,4.278,0,,,,,,0.368489583,-0.233072917,1,0,0,4.2775,Gabbro_rect,9,0,9,0,1,
600c167e28de48080e812884,SCN,2024-06-21_12h49.20.368,LearnStrategy,2023.2.3,Win32,59.17159763,6,2,11,,,,,,,,3,10,,,,,,,,,,,1,3.44,0,,,,,,-0.37890625,-0.233072917,1,0,0,3.4402,Andesite_rect,10,0,10,0,1,
600c167e28de48080e812884,SCN,2024-06-21_12h49.20.368,LearnStrategy,2023.2.3,Win32,59.17159763,6,2,12,,,,,,,,1,09,,,,,,,,,,,1,1.59,1,,,,,,-0.37890625,-0.233072917,1,0,0,1.5905,Andesite_rect,11,0,11,0,1,
600c167e28de48080e812884,SCN,2024-06-21_12h49.20.368,LearnStrategy,2023.2.3,Win32,59.17159763,6,2,13,,,,,,,,6,13,,,,,,,,,,,7,4.085,0,,,,,,0.115885417,-0.404947917,1,0,0,4.0853,Peridotite_rect,12,0,12,0,1,
600c167e28de48080e812884,SCN,2024-06-21_12h49.20.368,LearnStrategy,2023.2.3,Win32,59.17159763,6,2,14,,,,,,,,8,09,,,,,,,,,,,8,4.239,1,,,,,,0.364583333,-0.39453125,1,0,0,4.2391,Pumice_rect,13,0,13,0,1,
600c167e28de48080e812884,SCN,2024-06-21_12h49.20.368,LearnStrategy,2023.2.3,Win32,59.17159763,6,2,15,,,,,,,,4,01,,,,,,,,,,,7,5.617,0,,,,,,0.140625,-0.404947917,1,0,0,5.6172,Peridotite_rect,14,0,14,0,1,
600c167e28de48080e812884,SCN,2024-06-21_12h49.20.368,LearnStrategy,2023.2.3,Win32,59.17159763,6,2,16,,,,,,,,1,05,,,,,,,,,,,7,4.674,0,,,,,,0.140625,-0.404947917,1,0,0,4.6737,Peridotite_rect,15,0,15,0,1,
600c167e28de48080e812884,SCN,2024-06-21_12h49.20.368,LearnStrategy,2023.2.3,Win32,59.17159763,7,1,1,0.545572917,-0.399739583,1,0,0,8.9949,Pegmatite_07,6,07,1,8,8.995,-0.100260417,-0.40234375,1,0,0,3.7382,Pegmatite_rect,6,3.738,1,0,0,0,0,1,,,,,,,,,,,,,
600c167e28de48080e812884,SCN,2024-06-21_12h49.20.368,LearnStrategy,2023.2.3,Win32,59.17159763,7,1,2,0.397135417,-0.397135417,1,0,0,1.7241,Basalt_08,2,08,1,7,1.724,-0.110677083,-0.26953125,1,0,0,2.0664,Basalt_rect,2,2.066,1,1,0,1,0,1,,,,,,,,,,,,,
600c167e28de48080e812884,SCN,2024-06-21_12h49.20.368,LearnStrategy,2023.2.3,Win32,59.17159763,7,1,3,0.236979167,-0.412760417,1,0,0,2.4146,Pumice_10,8,10,1,6,2.415,0.364583333,-0.408854167,1,0,0,1.8194,Pumice_rect,8,1.819,1,2,0,2,0,1,,,,,,,,,,,,,
600c167e28de48080e812884,SCN,2024-06-21_12h49.20.368,LearnStrategy,2023.2.3,Win32,59.17159763,7,1,4,0.08984375,-0.407552083,1,0,0,1.9989,Diorite_13,3,13,1,5,1.999,0.151041667,-0.23046875,1,0,0,3.8506,Diorite_rect,3,3.851,1,3,0,3,0,1,,,,,,,,,,,,,
600c167e28de48080e812884,SCN,2024-06-21_12h49.20.368,LearnStrategy,2023.2.3,Win32,59.17159763,7,1,5,-0.06640625,-0.401041667,1,0,0,2.5306,Diorite_16,3,16,1,4,2.531,0.1015625,-0.240885417,1,0,0,3.0516,Diorite_rect,3,3.052,1,4,0,4,0,1,,,,,,,,,,,,,
600c167e28de48080e812884,SCN,2024-06-21_12h49.20.368,LearnStrategy,2023.2.3,Win32,59.17159763,7,1,6,-0.235677083,-0.427083333,1,0,0,1.9948,Peridotite_08,7,08,1,3,1.995,0.091145833,-0.40234375,1,0,0,3.4176,Peridotite_rect,7,3.418,1,5,0,5,0,1,,,,,,,,,,,,,
600c167e28de48080e812884,SCN,2024-06-21_12h49.20.368,LearnStrategy,2023.2.3,Win32,59.17159763,7,1,7,-0.38671875,-0.411458333,1,0,0,1.898,Peridotite_14,7,14,1,2,1.898,0.1015625,-0.243489583,1,0,0,2.7504,Diorite_rect,3,2.75,0,6,0,6,0,1,,,,,,,,,,,,,
600c167e28de48080e812884,SCN,2024-06-21_12h49.20.368,LearnStrategy,2023.2.3,Win32,59.17159763,7,1,8,-0.391927083,-0.430989583,1,0,0,2.2833,Peridotite_14,7,14,1,2,2.283,0.088541667,-0.399739583,1,0,0,2.551,Peridotite_rect,7,2.551,1,7,0,7,0,1,,,,,,,,,,,,,
600c167e28de48080e812884,SCN,2024-06-21_12h49.20.368,LearnStrategy,2023.2.3,Win32,59.17159763,7,1,9,-0.559895833,-0.415364583,1,0,0,2.0982,Pegmatite_08,6,08,1,1,2.098,-0.177083333,-0.393229167,1,0,0,2.0517,Pegmatite_rect,6,2.052,1,8,0,8,0,1,,,,,,,,,,,,,
600c167e28de48080e812884,SCN,2024-06-21_12h49.20.368,LearnStrategy,2023.2.3,Win32,59.17159763,7,1,10,-0.555989583,-0.251302083,1,0,0,4.031,Diorite_15,3,15,2,1,4.031,-0.420572917,-0.243489583,1,0,0,4.8729,Andesite_rect,1,4.873,0,9,0,9,0,1,,,,,,,,,,,,,
600c167e28de48080e812884,SCN,2024-06-21_12h49.20.368,LearnStrategy,2023.2.3,Win32,59.17159763,7,1,11,-0.393229167,-0.26171875,1,0,0,3.9174,Diorite_09,3,09,2,2,3.917,0.084635417,-0.240885417,1,0,0,2.4751,Diorite_rect,3,2.475,1,10,0,10,0,1,,,,,,,,,,,,,
600c167e28de48080e812884,SCN,2024-06-21_12h49.20.368,LearnStrategy,2023.2.3,Win32,59.17159763,7,1,12,-0.080729167,-0.259114583,1,0,0,2.4977,Pegmatite_12,6,12,2,4,2.498,-0.109375,-0.380208333,1,0,0,2.1189,Pegmatite_rect,6,2.119,1,11,0,11,0,1,,,,,,,,,,,,,
600c167e28de48080e812884,SCN,2024-06-21_12h49.20.368,LearnStrategy,2023.2.3,Win32,59.17159763,7,1,13,0.072916667,-0.243489583,1,0,0,1.6281,Gabbro_10,4,10,2,5,1.628,-0.313802083,-0.248697917,1,0,0,4.2871,Andesite_rect,1,4.287,0,12,0,12,0,1,,,,,,,,,,,,,
600c167e28de48080e812884,SCN,2024-06-21_12h49.20.368,LearnStrategy,2023.2.3,Win32,59.17159763,7,1,14,-0.526041667,-0.095052083,1,0,0,6.0967,Gabbro_05,4,05,3,1,6.097,-0.4140625,-0.24609375,1,0,0,3.307,Andesite_rect,1,3.307,0,13,0,13,0,1,,,,,,,,,,,,,
600c167e28de48080e812884,SCN,2024-06-21_12h49.20.368,LearnStrategy,2023.2.3,Win32,59.17159763,7,1,15,0.58203125,0.263020833,1,0,0,3.1311,Gabbro_03,4,03,5,8,3.131,0.421875,-0.259114583,1,0,0,2.9391,Gabbro_rect,4,2.939,1,14,0,14,0,1,,,,,,,,,,,,,
600c167e28de48080e812884,SCN,2024-06-21_12h49.20.368,LearnStrategy,2023.2.3,Win32,59.17159763,7,1,16,-0.501302083,-0.087239583,1,0,0,1.6967,Gabbro_05,4,05,3,1,1.697,0.41015625,-0.24609375,1,0,0,4.22,Gabbro_rect,4,4.22,1,15,0,15,0,1,,,,,,,,,,,,,
600c167e28de48080e812884,SCN,2024-06-21_12h49.20.368,LearnStrategy,2023.2.3,Win32,59.17159763,7,2,1,,,,,,,,1,14,,,,,,,,,,,3,0.04,0,,,,,,0.06640625,-0.23828125,1,0,0,0.0396,Diorite_rect,0,0,0,0,1,
600c167e28de48080e812884,SCN,2024-06-21_12h49.20.368,LearnStrategy,2023.2.3,Win32,59.17159763,7,2,2,,,,,,,,8,05,,,,,,,,,,,8,11.487,1,,,,,,0.42578125,-0.391927083,1,0,0,11.4867,Pumice_rect,1,0,1,0,1,
600c167e28de48080e812884,SCN,2024-06-21_12h49.20.368,LearnStrategy,2023.2.3,Win32,59.17159763,7,2,3,,,,,,,,3,10,,,,,,,,,,,1,8.672,0,,,,,,-0.3984375,-0.243489583,1,0,0,8.6718,Andesite_rect,2,0,2,0,1,
600c167e28de48080e812884,SCN,2024-06-21_12h49.20.368,LearnStrategy,2023.2.3,Win32,59.17159763,7,2,4,,,,,,,,8,06,,,,,,,,,,,8,2.476,1,,,,,,0.375,-0.419270833,1,0,0,2.4762,Pumice_rect,3,0,3,0,1,
600c167e28de48080e812884,SCN,2024-06-21_12h49.20.368,LearnStrategy,2023.2.3,Win32,59.17159763,7,2,5,,,,,,,,4,16,,,,,,,,,,,2,5.649,0,,,,,,-0.126302083,-0.2421875,1,0,0,5.6486,Basalt_rect,4,0,4,0,1,
600c167e28de48080e812884,SCN,2024-06-21_12h49.20.368,LearnStrategy,2023.2.3,Win32,59.17159763,7,2,6,,,,,,,,4,13,,,,,,,,,,,3,5.972,0,,,,,,0.118489583,-0.252604167,1,0,0,5.9723,Diorite_rect,5,0,5,0,1,
600c167e28de48080e812884,SCN,2024-06-21_12h49.20.368,LearnStrategy,2023.2.3,Win32,59.17159763,7,2,7,,,,,,,,2,02,,,,,,,,,,,2,2.574,1,,,,,,-0.092447917,-0.25390625,1,0,0,2.5739,Basalt_rect,6,0,6,0,1,
600c167e28de48080e812884,SCN,2024-06-21_12h49.20.368,LearnStrategy,2023.2.3,Win32,59.17159763,7,2,8,,,,,,,,5,16,,,,,,,,,,,5,1.747,1,,,,,,-0.390625,-0.412760417,1,0,0,1.7472,Obsidian_rect,7,0,7,0,1,
600c167e28de48080e812884,SCN,2024-06-21_12h49.20.368,LearnStrategy,2023.2.3,Win32,59.17159763,7,2,9,,,,,,,,2,05,,,,,,,,,,,2,3.018,1,,,,,,-0.130208333,-0.243489583,1,0,0,3.0178,Basalt_rect,8,0,8,0,1,
600c167e28de48080e812884,SCN,2024-06-21_12h49.20.368,LearnStrategy,2023.2.3,Win32,59.17159763,7,2,10,,,,,,,,7,12,,,,,,,,,,,4,6.467,0,,,,,,0.391927083,-0.247395833,1,0,0,6.4672,Gabbro_rect,9,0,9,0,1,
600c167e28de48080e812884,SCN,2024-06-21_12h49.20.368,LearnStrategy,2023.2.3,Win32,59.17159763,7,2,11,,,,,,,,3,08,,,,,,,,,,,3,3.102,1,,,,,,0.15234375,-0.25390625,1,0,0,3.1024,Diorite_rect,10,0,10,0,1,
600c167e28de48080e812884,SCN,2024-06-21_12h49.20.368,LearnStrategy,2023.2.3,Win32,59.17159763,7,2,12,,,,,,,,7,13,,,,,,,,,,,4,4.007,0,,,,,,0.365885417,-0.2578125,1,0,0,4.0073,Gabbro_rect,11,0,11,0,1,
600c167e28de48080e812884,SCN,2024-06-21_12h49.20.368,LearnStrategy,2023.2.3,Win32,59.17159763,7,2,13,,,,,,,,6,15,,,,,,,,,,,6,2.374,1,,,,,,-0.08984375,-0.412760417,1,0,0,2.374,Pegmatite_rect,12,0,12,0,1,
600c167e28de48080e812884,SCN,2024-06-21_12h49.20.368,LearnStrategy,2023.2.3,Win32,59.17159763,7,2,14,,,,,,,,1,04,,,,,,,,,,,4,5.474,0,,,,,,0.385416667,-0.240885417,1,0,0,5.4736,Gabbro_rect,13,0,13,0,1,
600c167e28de48080e812884,SCN,2024-06-21_12h49.20.368,LearnStrategy,2023.2.3,Win32,59.17159763,7,2,15,,,,,,,,5,02,,,,,,,,,,,5,2.268,1,,,,,,-0.365885417,-0.421875,1,0,0,2.2677,Obsidian_rect,14,0,14,0,1,
600c167e28de48080e812884,SCN,2024-06-21_12h49.20.368,LearnStrategy,2023.2.3,Win32,59.17159763,7,2,16,,,,,,,,6,03,,,,,,,,,,,6,3.586,1,,,,,,-0.15625,-0.411458333,1,0,0,3.5862,Pegmatite_rect,15,0,15,0,1,
600c167e28de48080e812884,SCN,2024-06-21_12h49.20.368,LearnStrategy,2023.2.3,Win32,59.17159763,8,1,1,0.537760417,-0.08984375,1,0,0,10.9393,Peridotite_02,7,02,3,8,10.939,0.407552083,-0.2421875,1,0,0,4.4351,Gabbro_rect,4,4.435,0,0,0,0,0,1,,,,,,,,,,,,,
600c167e28de48080e812884,SCN,2024-06-21_12h49.20.368,LearnStrategy,2023.2.3,Win32,59.17159763,8,1,2,0.549479167,-0.404947917,1,0,0,3.9958,Pegmatite_07,6,07,1,8,3.996,-0.08984375,-0.39453125,1,0,0,1.8922,Pegmatite_rect,6,1.892,1,1,0,1,0,1,,,,,,,,,,,,,
600c167e28de48080e812884,SCN,2024-06-21_12h49.20.368,LearnStrategy,2023.2.3,Win32,59.17159763,8,1,3,0.561197917,-0.126302083,1,0,0,5.0349,Peridotite_02,7,02,3,8,5.035,0.143229167,-0.4140625,1,0,0,3.0106,Peridotite_rect,7,3.011,1,2,0,2,0,1,,,,,,,,,,,,,
600c167e28de48080e812884,SCN,2024-06-21_12h49.20.368,LearnStrategy,2023.2.3,Win32,59.17159763,8,1,4,0.52734375,-0.416666667,1,0,0,2.3308,Pegmatite_07,6,07,1,8,2.331,-0.134114583,-0.411458333,1,0,0,1.4507,Pegmatite_rect,6,1.451,1,3,0,3,0,1,,,,,,,,,,,,,
600c167e28de48080e812884,SCN,2024-06-21_12h49.20.368,LearnStrategy,2023.2.3,Win32,59.17159763,8,1,5,0.38671875,-0.412760417,1,0,0,2.5974,Basalt_08,2,08,1,7,2.597,-0.111979167,-0.248697917,1,0,0,1.9015,Basalt_rect,2,1.902,1,4,0,4,0,1,,,,,,,,,,,,,
600c167e28de48080e812884,SCN,2024-06-21_12h49.20.368,LearnStrategy,2023.2.3,Win32,59.17159763,8,1,6,0.061197917,-0.095052083,1,0,0,3.1636,Pumice_04,8,04,3,5,3.164,0.411458333,-0.389322917,1,0,0,2.4254,Pumice_rect,8,2.425,1,5,0,5,0,1,,,,,,,,,,,,,
600c167e28de48080e812884,SCN,2024-06-21_12h49.20.368,LearnStrategy,2023.2.3,Win32,59.17159763,8,1,7,0.393229167,-0.09765625,1,0,0,3.1958,Andesite_06,1,06,3,7,3.196,-0.372395833,-0.255208333,1,0,0,2.7406,Andesite_rect,1,2.741,1,6,0,6,0,1,,,,,,,,,,,,,
600c167e28de48080e812884,SCN,2024-06-21_12h49.20.368,LearnStrategy,2023.2.3,Win32,59.17159763,8,1,8,0.37109375,-0.260416667,1,0,0,2.2654,Andesite_16,1,16,2,7,2.265,-0.397135417,-0.25390625,1,0,0,8.0509,Andesite_rect,1,8.051,1,7,0,7,0,1,,,,,,,,,,,,,
600c167e28de48080e812884,SCN,2024-06-21_12h49.20.368,LearnStrategy,2023.2.3,Win32,59.17159763,8,1,9,0.052083333,-0.095052083,0,0,1,1.8976,Pumice_04,8,04,3,5,1.898,0.391927083,-0.236979167,1,0,0,5.0967,Gabbro_rect,4,5.097,0,8,0,8,0,1,,,,,,,,,,,,,
600c167e28de48080e812884,SCN,2024-06-21_12h49.20.368,LearnStrategy,2023.2.3,Win32,59.17159763,8,1,10,-0.084635417,-0.1171875,1,0,0,1.7959,Pumice_02,8,02,3,4,1.796,0.380208333,-0.391927083,1,0,0,2.549,Pumice_rect,8,2.549,1,9,0,9,0,1,,,,,,,,,,,,,
600c167e28de48080e812884,SCN,2024-06-21_12h49.20.368,LearnStrategy,2023.2.3,Win32,59.17159763,8,1,11,-0.252604167,-0.08203125,1,0,0,1.765,Andesite_02,1,02,3,3,1.765,0.380208333,-0.252604167,1,0,0,4.5459,Gabbro_rect,4,4.546,0,10,0,10,0,1,,,,,,,,,,,,,
600c167e28de48080e812884,SCN,2024-06-21_12h49.20.368,LearnStrategy,2023.2.3,Win32,59.17159763,8,1,12,-0.52734375,-0.078125,1,0,0,3.1992,Gabbro_05,4,05,3,1,3.199,-0.40234375,-0.24609375,1,0,0,3.1046,Andesite_rect,1,3.105,0,11,0,11,0,1,,,,,,,,,,,,,
600c167e28de48080e812884,SCN,2024-06-21_12h49.20.368,LearnStrategy,2023.2.3,Win32,59.17159763,8,1,13,0.251302083,-0.095052083,1,0,0,2.9315,Andesite_01,1,01,3,6,2.932,-0.390625,-0.248697917,1,0,0,4.5176,Andesite_rect,1,4.518,1,12,0,12,0,1,,,,,,,,,,,,,
600c167e28de48080e812884,SCN,2024-06-21_12h49.20.368,LearnStrategy,2023.2.3,Win32,59.17159763,8,1,14,-0.5234375,-0.079427083,1,0,0,1.6951,Gabbro_05,4,05,3,1,1.695,0.388020833,-0.24609375,1,0,0,3.352,Gabbro_rect,4,3.352,1,13,0,13,0,1,,,,,,,,,,,,,
600c167e28de48080e812884,SCN,2024-06-21_12h49.20.368,LearnStrategy,2023.2.3,Win32,59.17159763,8,1,15,0.391927083,-0.091145833,1,0,0,2.8651,Andesite_06,1,06,3,7,2.865,-0.346354167,-0.23828125,1,0,0,9.5364,Andesite_rect,1,9.536,1,14,0,14,0,1,,,,,,,,,,,,,
600c167e28de48080e812884,SCN,2024-06-21_12h49.20.368,LearnStrategy,2023.2.3,Win32,59.17159763,8,1,16,-0.212239583,-0.11328125,1,0,0,2.2298,Andesite_02,1,02,3,3,2.23,0.41015625,-0.248697917,1,0,0,3.5522,Gabbro_rect,4,3.552,0,15,0,15,0,1,,,,,,,,,,,,,
600c167e28de48080e812884,SCN,2024-06-21_12h49.20.368,LearnStrategy,2023.2.3,Win32,59.17159763,8,2,1,,,,,,,,4,01,,,,,,,,,,,4,5.804,1,,,,,,0.419270833,-0.244791667,1,0,0,5.8043,Gabbro_rect,0,0,0,0,1,
600c167e28de48080e812884,SCN,2024-06-21_12h49.20.368,LearnStrategy,2023.2.3,Win32,59.17159763,8,2,2,,,,,,,,1,10,,,,,,,,,,,2,4.853,0,,,,,,-0.223958333,-0.243489583,1,0,0,4.8535,Basalt_rect,1,0,1,0,1,
600c167e28de48080e812884,SCN,2024-06-21_12h49.20.368,LearnStrategy,2023.2.3,Win32,59.17159763,8,2,3,,,,,,,,8,13,,,,,,,,,,,4,5.073,0,,,,,,0.37109375,-0.252604167,1,0,0,5.0731,Gabbro_rect,2,0,2,0,1,
600c167e28de48080e812884,SCN,2024-06-21_12h49.20.368,LearnStrategy,2023.2.3,Win32,59.17159763,8,2,4,,,,,,,,7,06,,,,,,,,,,,7,11.352,1,,,,,,0.108072917,-0.401041667,1,0,0,11.3524,Peridotite_rect,3,0,3,0,1,
600c167e28de48080e812884,SCN,2024-06-21_12h49.20.368,LearnStrategy,2023.2.3,Win32,59.17159763,8,2,5,,,,,,,,3,12,,,,,,,,,,,3,2.773,1,,,,,,0.125,-0.24609375,1,0,0,2.7729,Diorite_rect,4,0,4,0,1,
600c167e28de48080e812884,SCN,2024-06-21_12h49.20.368,LearnStrategy,2023.2.3,Win32,59.17159763,8,2,6,,,,,,,,7,15,,,,,,,,,,,4,4.386,0,,,,,,0.333333333,-0.252604167,1,0,0,4.3855,Gabbro_rect,5,0,5,0,1,
600c167e28de48080e812884,SCN,2024-06-21_12h49.20.368,LearnStrategy,2023.2.3,Win32,59.17159763,8,2,7,,,,,,,,5,07,,,,,,,,,,,5,3.005,1,,,,,,-0.360677083,-0.38671875,1,0,0,3.0053,Obsidian_rect,6,0,6,0,1,
600c167e28de48080e812884,SCN,2024-06-21_12h49.20.368,LearnStrategy,2023.2.3,Win32,59.17159763,8,2,8,,,,,,,,2,04,,,,,,,,,,,2,1.885,1,,,,,,-0.139322917,-0.2421875,1,0,0,1.8853,Basalt_rect,7,0,7,0,1,
600c167e28de48080e812884,SCN,2024-06-21_12h49.20.368,LearnStrategy,2023.2.3,Win32,59.17159763,8,2,9,,,,,,,,8,08,,,,,,,,,,,1,8.073,0,,,,,,-0.37109375,-0.24609375,1,0,0,8.0735,Andesite_rect,8,0,8,0,1,
600c167e28de48080e812884,SCN,2024-06-21_12h49.20.368,LearnStrategy,2023.2.3,Win32,59.17159763,8,2,10,,,,,,,,6,10,,,,,,,,,,,6,2.474,1,,,,,,-0.12109375,-0.415364583,1,0,0,2.4744,Pegmatite_rect,9,0,9,0,1,
600c167e28de48080e812884,SCN,2024-06-21_12h49.20.368,LearnStrategy,2023.2.3,Win32,59.17159763,8,2,11,,,,,,,,1,05,,,,,,,,,,,4,6.289,0,,,,,,0.3671875,-0.264322917,1,0,0,6.289,Gabbro_rect,10,0,10,0,1,
600c167e28de48080e812884,SCN,2024-06-21_12h49.20.368,LearnStrategy,2023.2.3,Win32,59.17159763,8,2,12,,,,,,,,3,02,,,,,,,,,,,1,3.168,0,,,,,,-0.3125,-0.256510417,1,0,0,3.1676,Andesite_rect,11,0,11,0,1,
600c167e28de48080e812884,SCN,2024-06-21_12h49.20.368,LearnStrategy,2023.2.3,Win32,59.17159763,8,2,13,,,,,,,,5,11,,,,,,,,,,,5,1.484,1,,,,,,-0.372395833,-0.401041667,1,0,0,1.4836,Obsidian_rect,12,0,12,0,1,
600c167e28de48080e812884,SCN,2024-06-21_12h49.20.368,LearnStrategy,2023.2.3,Win32,59.17159763,8,2,14,,,,,,,,6,13,,,,,,,,,,,6,2.085,1,,,,,,-0.190104167,-0.403645833,1,0,0,2.0852,Pegmatite_rect,13,0,13,0,1,
600c167e28de48080e812884,SCN,2024-06-21_12h49.20.368,LearnStrategy,2023.2.3,Win32,59.17159763,8,2,15,,,,,,,,4,08,,,,,,,,,,,1,8.539,0,,,,,,-0.360677083,-0.247395833,1,0,0,8.5387,Andesite_rect,14,0,14,0,1,
600c167e28de48080e812884,SCN,2024-06-21_12h49.20.368,LearnStrategy,2023.2.3,Win32,59.17159763,8,2,16,,,,,,,,2,11,,,,,,,,,,,2,4.285,1,,,,,,-0.149739583,-0.255208333,1,0,0,4.2848,Basalt_rect,15,0,15,0,1,
600c167e28de48080e812884,SCN,2024-06-21_12h49.20.368,LearnStrategy,2023.2.3,Win32,59.17159763,9,1,1,-0.514322917,0.071614583,1,0,0,3.4325,Basalt_14,2,14,4,1,3.432,-0.37890625,-0.25,1,0,0,4.0538,Andesite_rect,1,4.054,0,0,0,0,0,1,,,,,,,,,,,,,
600c167e28de48080e812884,SCN,2024-06-21_12h49.20.368,LearnStrategy,2023.2.3,Win32,59.17159763,9,1,2,-0.276041667,-0.057291667,1,0,0,1.6109,Andesite_02,1,02,3,3,1.611,-0.393229167,-0.260416667,1,0,0,3.4198,Andesite_rect,1,3.42,1,1,0,1,0,1,,,,,,,,,,,,,
600c167e28de48080e812884,SCN,2024-06-21_12h49.20.368,LearnStrategy,2023.2.3,Win32,59.17159763,9,1,3,-0.186197917,-0.088541667,1,0,0,2.2307,Andesite_02,1,02,3,3,2.231,-0.361979167,-0.244791667,1,0,0,2.9197,Andesite_rect,1,2.92,1,2,0,2,0,1,,,,,,,,,,,,,
600c167e28de48080e812884,SCN,2024-06-21_12h49.20.368,LearnStrategy,2023.2.3,Win32,59.17159763,9,1,4,-0.07421875,-0.096354167,1,0,0,1.2115,Pumice_02,8,02,3,4,1.211,0.411458333,-0.3828125,1,0,0,2.1792,Pumice_rect,8,2.179,1,3,0,3,0,1,,,,,,,,,,,,,
600c167e28de48080e812884,SCN,2024-06-21_12h49.20.368,LearnStrategy,2023.2.3,Win32,59.17159763,9,1,5,0.0546875,-0.110677083,1,0,0,1.2977,Pumice_04,8,04,3,5,1.298,0.361979167,-0.236979167,1,0,0,3.4503,Gabbro_rect,4,3.45,0,4,0,4,0,1,,,,,,,,,,,,,
600c167e28de48080e812884,SCN,2024-06-21_12h49.20.368,LearnStrategy,2023.2.3,Win32,59.17159763,9,1,6,0.194010417,-0.092447917,1,0,0,1.4956,Andesite_01,1,01,3,6,1.496,0.40625,-0.243489583,1,0,0,1.9195,Gabbro_rect,4,1.919,0,5,0,5,0,1,,,,,,,,,,,,,
600c167e28de48080e812884,SCN,2024-06-21_12h49.20.368,LearnStrategy,2023.2.3,Win32,59.17159763,9,1,7,0.384114583,-0.075520833,1,0,0,1.5187,Andesite_06,1,06,3,7,1.519,-0.4140625,-0.24609375,1,0,0,2.7508,Andesite_rect,1,2.751,1,6,0,6,0,1,,,,,,,,,,,,,
600c167e28de48080e812884,SCN,2024-06-21_12h49.20.368,LearnStrategy,2023.2.3,Win32,59.17159763,9,1,8,0.580729167,-0.091145833,1,0,0,1.794,Peridotite_02,7,02,3,8,1.794,0.40234375,-0.25,1,0,0,1.9843,Gabbro_rect,4,1.984,0,7,0,7,0,1,,,,,,,,,,,,,
600c167e28de48080e812884,SCN,2024-06-21_12h49.20.368,LearnStrategy,2023.2.3,Win32,59.17159763,9,1,9,0.553385417,-0.393229167,1,0,0,2.1304,Pegmatite_07,6,07,1,8,2.13,-0.140625,-0.41015625,1,0,0,1.7857,Pegmatite_rect,6,1.786,1,8,0,8,0,1,,,,,,,,,,,,,
600c167e28de48080e812884,SCN,2024-06-21_12h49.20.368,LearnStrategy,2023.2.3,Win32,59.17159763,9,1,10,-0.373697917,-0.255208333,1,0,0,3.3321,Diorite_09,3,09,2,2,3.332,0.09765625,-0.266927083,1,0,0,2.3397,Diorite_rect,3,2.34,1,9,0,9,0,1,,,,,,,,,,,,,
600c167e28de48080e812884,SCN,2024-06-21_12h49.20.368,LearnStrategy,2023.2.3,Win32,59.17159763,9,1,11,0.247395833,0.428385417,1,0,0,1.7299,Pegmatite_16,6,16,6,6,1.73,-0.108072917,-0.40234375,1,0,0,2.2869,Pegmatite_rect,6,2.287,1,10,0,10,0,1,,,,,,,,,,,,,
600c167e28de48080e812884,SCN,2024-06-21_12h49.20.368,LearnStrategy,2023.2.3,Win32,59.17159763,9,1,12,0.380208333,0.38671875,1,0,0,1.6272,Obsidian_05,5,05,6,7,1.627,-0.411458333,-0.401041667,1,0,0,2.3891,Obsidian_rect,5,2.389,1,11,0,11,0,1,,,,,,,,,,,,,
600c167e28de48080e812884,SCN,2024-06-21_12h49.20.368,LearnStrategy,2023.2.3,Win32,59.17159763,9,1,13,-0.36328125,0.111979167,1,0,0,1.9987,Pegmatite_09,6,09,4,2,1.999,-0.126302083,-0.38671875,1,0,0,2.8165,Pegmatite_rect,6,2.816,1,12,0,12,0,1,,,,,,,,,,,,,
600c167e28de48080e812884,SCN,2024-06-21_12h49.20.368,LearnStrategy,2023.2.3,Win32,59.17159763,9,1,14,-0.092447917,-0.102864583,1,0,0,1.1646,Pumice_02,8,02,3,4,1.165,0.381510417,-0.403645833,1,0,0,1.8017,Pumice_rect,8,1.802,1,13,0,13,0,1,,,,,,,,,,,,,
600c167e28de48080e812884,SCN,2024-06-21_12h49.20.368,LearnStrategy,2023.2.3,Win32,59.17159763,9,1,15,-0.244791667,-0.09765625,0,0,1,1.4517,Andesite_02,1,02,3,3,1.452,-0.380208333,-0.260416667,1,0,0,7.2481,Andesite_rect,1,7.248,1,14,0,14,0,1,,,,,,,,,,,,,
600c167e28de48080e812884,SCN,2024-06-21_12h49.20.368,LearnStrategy,2023.2.3,Win32,59.17159763,9,1,16,-0.5234375,-0.109375,1,0,0,2.4823,Gabbro_05,4,05,3,1,2.482,-0.381510417,-0.231770833,1,0,0,2.4181,Andesite_rect,1,2.418,0,15,0,15,0,1,,,,,,,,,,,,,
600c167e28de48080e812884,SCN,2024-06-21_12h49.20.368,LearnStrategy,2023.2.3,Win32,59.17159763,9,2,1,,,,,,,,6,05,,,,,,,,,,,3,2.685,0,,,,,,0.143229167,-0.2421875,1,0,0,2.685,Diorite_rect,0,0,0,0,1,
600c167e28de48080e812884,SCN,2024-06-21_12h49.20.368,LearnStrategy,2023.2.3,Win32,59.17159763,9,2,2,,,,,,,,3,06,,,,,,,,,,,3,6.307,1,,,,,,0.153645833,-0.252604167,1,0,0,6.3069,Diorite_rect,1,0,1,0,1,
600c167e28de48080e812884,SCN,2024-06-21_12h49.20.368,LearnStrategy,2023.2.3,Win32,59.17159763,9,2,3,,,,,,,,4,12,,,,,,,,,,,4,2.376,1,,,,,,0.36328125,-0.248697917,1,0,0,2.3763,Gabbro_rect,2,0,2,0,1,
600c167e28de48080e812884,SCN,2024-06-21_12h49.20.368,LearnStrategy,2023.2.3,Win32,59.17159763,9,2,4,,,,,,,,1,11,,,,,,,,,,,1,4.847,1,,,,,,-0.361979167,-0.2578125,1,0,0,4.8468,Andesite_rect,3,0,3,0,1,
600c167e28de48080e812884,SCN,2024-06-21_12h49.20.368,LearnStrategy,2023.2.3,Win32,59.17159763,9,2,5,,,,,,,,7,05,,,,,,,,,,,7,3.004,1,,,,,,0.123697917,-0.404947917,1,0,0,3.0038,Peridotite_rect,4,0,4,0,1,
600c167e28de48080e812884,SCN,2024-06-21_12h49.20.368,LearnStrategy,2023.2.3,Win32,59.17159763,9,2,6,,,,,,,,8,15,,,,,,,,,,,2,5.976,0,,,,,,-0.095052083,-0.248697917,1,0,0,5.9761,Basalt_rect,5,0,5,0,1,
600c167e28de48080e812884,SCN,2024-06-21_12h49.20.368,LearnStrategy,2023.2.3,Win32,59.17159763,9,2,7,,,,,,,,8,09,,,,,,,,,,,8,2.283,1,,,,,,0.376302083,-0.401041667,1,0,0,2.2834,Pumice_rect,6,0,6,0,1,
600c167e28de48080e812884,SCN,2024-06-21_12h49.20.368,LearnStrategy,2023.2.3,Win32,59.17159763,9,2,8,,,,,,,,2,09,,,,,,,,,,,2,1.786,1,,,,,,-0.145833333,-0.252604167,1,0,0,1.7856,Basalt_rect,7,0,7,0,1,
600c167e28de48080e812884,SCN,2024-06-21_12h49.20.368,LearnStrategy,2023.2.3,Win32,59.17159763,9,2,9,,,,,,,,5,10,,,,,,,,,,,5,1.507,1,,,,,,-0.446614583,-0.41796875,1,0,0,1.5068,Obsidian_rect,8,0,8,0,1,
600c167e28de48080e812884,SCN,2024-06-21_12h49.20.368,LearnStrategy,2023.2.3,Win32,59.17159763,9,2,10,,,,,,,,6,11,,,,,,,,,,,6,1.709,1,,,,,,-0.147135417,-0.401041667,1,0,0,1.7092,Pegmatite_rect,9,0,9,0,1,
600c167e28de48080e812884,SCN,2024-06-21_12h49.20.368,LearnStrategy,2023.2.3,Win32,59.17159763,9,2,11,,,,,,,,3,07,,,,,,,,,,,3,2.601,1,,,,,,0.12109375,-0.252604167,1,0,0,2.6009,Diorite_rect,10,0,10,0,1,
600c167e28de48080e812884,SCN,2024-06-21_12h49.20.368,LearnStrategy,2023.2.3,Win32,59.17159763,9,2,12,,,,,,,,2,16,,,,,,,,,,,2,4.287,1,,,,,,-0.119791667,-0.26171875,1,0,0,4.2866,Basalt_rect,11,0,11,0,1,
600c167e28de48080e812884,SCN,2024-06-21_12h49.20.368,LearnStrategy,2023.2.3,Win32,59.17159763,9,2,13,,,,,,,,5,08,,,,,,,,,,,5,1.67,1,,,,,,-0.407552083,-0.39453125,1,0,0,1.6695,Obsidian_rect,12,0,12,0,1,
600c167e28de48080e812884,SCN,2024-06-21_12h49.20.368,LearnStrategy,2023.2.3,Win32,59.17159763,9,2,14,,,,,,,,7,16,,,,,,,,,,,4,3.285,0,,,,,,0.373697917,-0.259114583,1,0,0,3.285,Gabbro_rect,13,0,13,0,1,
600c167e28de48080e812884,SCN,2024-06-21_12h49.20.368,LearnStrategy,2023.2.3,Win32,59.17159763,9,2,15,,,,,,,,1,09,,,,,,,,,,,1,2.356,1,,,,,,-0.346354167,-0.240885417,1,0,0,2.3556,Andesite_rect,14,0,14,0,1,
600c167e28de48080e812884,SCN,2024-06-21_12h49.20.368,LearnStrategy,2023.2.3,Win32,59.17159763,9,2,16,,,,,,,,4,15,,,,,,,,,,,1,1.72,0,,,,,,-0.346354167,-0.240885417,1,0,0,1.72,Andesite_rect,15,0,15,0,1,
600c167e28de48080e812884,SCN,2024-06-21_12h49.20.368,LearnStrategy,2023.2.3,Win32,59.17159763,,,,,,,,,,,,,,,,,,,,,,,,,,,,,,,,,,,,,,,,,,,0
600c167e28de48080e812884,SCN,2024-06-21_12h49.20.368,LearnStrategy,2023.2.3,Win32,59.17159763,,,,,,,,,,,,,,,,,,,,,,,,,,,,,,,,,,,,,,,,,,,
600c167e28de48080e812884,SCN,2024-06-21_12h49.20.368,LearnStrategy,2023.2.3,Win32,59.17159763,,,,,,,,,,,6,08,1,1,,,,,,,,,,,,,,,,,,,,,,,,,,,,,
600c167e28de48080e812884,SCN,2024-06-21_12h49.20.368,LearnStrategy,2023.2.3,Win32,59.17159763,,,,,,,,,,,7,14,1,2,,,,,,,,,,,,,,,,,,,,,,,,,,,,,
600c167e28de48080e812884,SCN,2024-06-21_12h49.20.368,LearnStrategy,2023.2.3,Win32,59.17159763,,,,,,,,,,,7,08,1,3,,,,,,,,,,,,,,,,,,,,,,,,,,,,,
600c167e28de48080e812884,SCN,2024-06-21_12h49.20.368,LearnStrategy,2023.2.3,Win32,59.17159763,,,,,,,,,,,3,16,1,4,,,,,,,,,,,,,,,,,,,,,,,,,,,,,
600c167e28de48080e812884,SCN,2024-06-21_12h49.20.368,LearnStrategy,2023.2.3,Win32,59.17159763,,,,,,,,,,,3,13,1,5,,,,,,,,,,,,,,,,,,,,,,,,,,,,,
600c167e28de48080e812884,SCN,2024-06-21_12h49.20.368,LearnStrategy,2023.2.3,Win32,59.17159763,,,,,,,,,,,8,10,1,6,,,,,,,,,,,,,,,,,,,,,,,,,,,,,
600c167e28de48080e812884,SCN,2024-06-21_12h49.20.368,LearnStrategy,2023.2.3,Win32,59.17159763,,,,,,,,,,,2,08,1,7,,,,,,,,,,,,,,,,,,,,,,,,,,,,,
600c167e28de48080e812884,SCN,2024-06-21_12h49.20.368,LearnStrategy,2023.2.3,Win32,59.17159763,,,,,,,,,,,6,07,1,8,,,,,,,,,,,,,,,,,,,,,,,,,,,,,
600c167e28de48080e812884,SCN,2024-06-21_12h49.20.368,LearnStrategy,2023.2.3,Win32,59.17159763,,,,,,,,,,,3,15,2,1,,,,,,,,,,,,,,,,,,,,,,,,,,,,,
600c167e28de48080e812884,SCN,2024-06-21_12h49.20.368,LearnStrategy,2023.2.3,Win32,59.17159763,,,,,,,,,,,3,09,2,2,,,,,,,,,,,,,,,,,,,,,,,,,,,,,
600c167e28de48080e812884,SCN,2024-06-21_12h49.20.368,LearnStrategy,2023.2.3,Win32,59.17159763,,,,,,,,,,,5,09,2,3,,,,,,,,,,,,,,,,,,,,,,,,,,,,,
600c167e28de48080e812884,SCN,2024-06-21_12h49.20.368,LearnStrategy,2023.2.3,Win32,59.17159763,,,,,,,,,,,6,12,2,4,,,,,,,,,,,,,,,,,,,,,,,,,,,,,
600c167e28de48080e812884,SCN,2024-06-21_12h49.20.368,LearnStrategy,2023.2.3,Win32,59.17159763,,,,,,,,,,,4,10,2,5,,,,,,,,,,,,,,,,,,,,,,,,,,,,,
600c167e28de48080e812884,SCN,2024-06-21_12h49.20.368,LearnStrategy,2023.2.3,Win32,59.17159763,,,,,,,,,,,2,06,2,6,,,,,,,,,,,,,,,,,,,,,,,,,,,,,
600c167e28de48080e812884,SCN,2024-06-21_12h49.20.368,LearnStrategy,2023.2.3,Win32,59.17159763,,,,,,,,,,,1,16,2,7,,,,,,,,,,,,,,,,,,,,,,,,,,,,,
600c167e28de48080e812884,SCN,2024-06-21_12h49.20.368,LearnStrategy,2023.2.3,Win32,59.17159763,,,,,,,,,,,4,11,2,8,,,,,,,,,,,,,,,,,,,,,,,,,,,,,
600c167e28de48080e812884,SCN,2024-06-21_12h49.20.368,LearnStrategy,2023.2.3,Win32,59.17159763,,,,,,,,,,,4,05,3,1,,,,,,,,,,,,,,,,,,,,,,,,,,,,,
600c167e28de48080e812884,SCN,2024-06-21_12h49.20.368,LearnStrategy,2023.2.3,Win32,59.17159763,,,,,,,,,,,5,12,3,2,,,,,,,,,,,,,,,,,,,,,,,,,,,,,
600c167e28de48080e812884,SCN,2024-06-21_12h49.20.368,LearnStrategy,2023.2.3,Win32,59.17159763,,,,,,,,,,,1,02,3,3,,,,,,,,,,,,,,,,,,,,,,,,,,,,,
600c167e28de48080e812884,SCN,2024-06-21_12h49.20.368,LearnStrategy,2023.2.3,Win32,59.17159763,,,,,,,,,,,8,02,3,4,,,,,,,,,,,,,,,,,,,,,,,,,,,,,
600c167e28de48080e812884,SCN,2024-06-21_12h49.20.368,LearnStrategy,2023.2.3,Win32,59.17159763,,,,,,,,,,,8,04,3,5,,,,,,,,,,,,,,,,,,,,,,,,,,,,,
600c167e28de48080e812884,SCN,2024-06-21_12h49.20.368,LearnStrategy,2023.2.3,Win32,59.17159763,,,,,,,,,,,1,01,3,6,,,,,,,,,,,,,,,,,,,,,,,,,,,,,
600c167e28de48080e812884,SCN,2024-06-21_12h49.20.368,LearnStrategy,2023.2.3,Win32,59.17159763,,,,,,,,,,,1,06,3,7,,,,,,,,,,,,,,,,,,,,,,,,,,,,,
600c167e28de48080e812884,SCN,2024-06-21_12h49.20.368,LearnStrategy,2023.2.3,Win32,59.17159763,,,,,,,,,,,7,02,3,8,,,,,,,,,,,,,,,,,,,,,,,,,,,,,
600c167e28de48080e812884,SCN,2024-06-21_12h49.20.368,LearnStrategy,2023.2.3,Win32,59.17159763,,,,,,,,,,,2,14,4,1,,,,,,,,,,,,,,,,,,,,,,,,,,,,,
600c167e28de48080e812884,SCN,2024-06-21_12h49.20.368,LearnStrategy,2023.2.3,Win32,59.17159763,,,,,,,,,,,6,09,4,2,,,,,,,,,,,,,,,,,,,,,,,,,,,,,
600c167e28de48080e812884,SCN,2024-06-21_12h49.20.368,LearnStrategy,2023.2.3,Win32,59.17159763,,,,,,,,,,,2,12,4,3,,,,,,,,,,,,,,,,,,,,,,,,,,,,,
600c167e28de48080e812884,SCN,2024-06-21_12h49.20.368,LearnStrategy,2023.2.3,Win32,59.17159763,,,,,,,,,,,5,06,4,4,,,,,,,,,,,,,,,,,,,,,,,,,,,,,
600c167e28de48080e812884,SCN,2024-06-21_12h49.20.368,LearnStrategy,2023.2.3,Win32,59.17159763,,,,,,,,,,,7,07,4,5,,,,,,,,,,,,,,,,,,,,,,,,,,,,,
600c167e28de48080e812884,SCN,2024-06-21_12h49.20.368,LearnStrategy,2023.2.3,Win32,59.17159763,,,,,,,,,,,1,03,4,6,,,,,,,,,,,,,,,,,,,,,,,,,,,,,
600c167e28de48080e812884,SCN,2024-06-21_12h49.20.368,LearnStrategy,2023.2.3,Win32,59.17159763,,,,,,,,,,,4,09,4,7,,,,,,,,,,,,,,,,,,,,,,,,,,,,,
600c167e28de48080e812884,SCN,2024-06-21_12h49.20.368,LearnStrategy,2023.2.3,Win32,59.17159763,,,,,,,,,,,3,11,4,8,,,,,,,,,,,,,,,,,,,,,,,,,,,,,
600c167e28de48080e812884,SCN,2024-06-21_12h49.20.368,LearnStrategy,2023.2.3,Win32,59.17159763,,,,,,,,,,,6,06,5,1,,,,,,,,,,,,,,,,,,,,,,,,,,,,,
600c167e28de48080e812884,SCN,2024-06-21_12h49.20.368,LearnStrategy,2023.2.3,Win32,59.17159763,,,,,,,,,,,2,10,5,2,,,,,,,,,,,,,,,,,,,,,,,,,,,,,
600c167e28de48080e812884,SCN,2024-06-21_12h49.20.368,LearnStrategy,2023.2.3,Win32,59.17159763,,,,,,,,,,,1,07,5,3,,,,,,,,,,,,,,,,,,,,,,,,,,,,,
600c167e28de48080e812884,SCN,2024-06-21_12h49.20.368,LearnStrategy,2023.2.3,Win32,59.17159763,,,,,,,,,,,7,04,5,4,,,,,,,,,,,,,,,,,,,,,,,,,,,,,
600c167e28de48080e812884,SCN,2024-06-21_12h49.20.368,LearnStrategy,2023.2.3,Win32,59.17159763,,,,,,,,,,,5,04,5,5,,,,,,,,,,,,,,,,,,,,,,,,,,,,,
600c167e28de48080e812884,SCN,2024-06-21_12h49.20.368,LearnStrategy,2023.2.3,Win32,59.17159763,,,,,,,,,,,5,14,5,6,,,,,,,,,,,,,,,,,,,,,,,,,,,,,
600c167e28de48080e812884,SCN,2024-06-21_12h49.20.368,LearnStrategy,2023.2.3,Win32,59.17159763,,,,,,,,,,,8,03,5,7,,,,,,,,,,,,,,,,,,,,,,,,,,,,,
600c167e28de48080e812884,SCN,2024-06-21_12h49.20.368,LearnStrategy,2023.2.3,Win32,59.17159763,,,,,,,,,,,4,03,5,8,,,,,,,,,,,,,,,,,,,,,,,,,,,,,
600c167e28de48080e812884,SCN,2024-06-21_12h49.20.368,LearnStrategy,2023.2.3,Win32,59.17159763,,,,,,,,,,,3,14,6,1,,,,,,,,,,,,,,,,,,,,,,,,,,,,,
600c167e28de48080e812884,SCN,2024-06-21_12h49.20.368,LearnStrategy,2023.2.3,Win32,59.17159763,,,,,,,,,,,4,14,6,2,,,,,,,,,,,,,,,,,,,,,,,,,,,,,
600c167e28de48080e812884,SCN,2024-06-21_12h49.20.368,LearnStrategy,2023.2.3,Win32,59.17159763,,,,,,,,,,,7,10,6,3,,,,,,,,,,,,,,,,,,,,,,,,,,,,,
600c167e28de48080e812884,SCN,2024-06-21_12h49.20.368,LearnStrategy,2023.2.3,Win32,59.17159763,,,,,,,,,,,8,14,6,4,,,,,,,,,,,,,,,,,,,,,,,,,,,,,
600c167e28de48080e812884,SCN,2024-06-21_12h49.20.368,LearnStrategy,2023.2.3,Win32,59.17159763,,,,,,,,,,,2,01,6,5,,,,,,,,,,,,,,,,,,,,,,,,,,,,,
600c167e28de48080e812884,SCN,2024-06-21_12h49.20.368,LearnStrategy,2023.2.3,Win32,59.17159763,,,,,,,,,,,6,16,6,6,,,,,,,,,,,,,,,,,,,,,,,,,,,,,
600c167e28de48080e812884,SCN,2024-06-21_12h49.20.368,LearnStrategy,2023.2.3,Win32,59.17159763,,,,,,,,,,,5,05,6,7,,,,,,,,,,,,,,,,,,,,,,,,,,,,,
600c167e28de48080e812884,SCN,2024-06-21_12h49.20.368,LearnStrategy,2023.2.3,Win32,59.17159763,,,,,,,,,,,8,16,6,8,,,,,,,,,,,,,,,,,,,,,,,,,,,,,