participant,condition,date,expName,psychopyVersion,OS,frameRate,block,phase,trial,learn_mouse.x,learn_mouse.y,learn_mouse.leftButton,learn_mouse.midButton,learn_mouse.rightButton,learn_mouse.time,learn_mouse.clicked_name,cat,token,row,col,t_select,cat_mouse_l.x,cat_mouse_l.y,cat_mouse_l.leftButton,cat_mouse_l.midButton,cat_mouse_l.rightButton,cat_mouse_l.time,cat_mouse_l.clicked_name,resp,t_resp,corr,train_trials.thisRepN,train_trials.thisTrialN,train_trials.thisN,train_trials.thisIndex,train_trials.ran,cat_mouse_t.x,cat_mouse_t.y,cat_mouse_t.leftButton,cat_mouse_t.midButton,cat_mouse_t.rightButton,cat_mouse_t.time,cat_mouse_t.clicked_name,test_trials.thisRepN,test_trials.thisTrialN,test_trials.thisN,test_trials.thisIndex,test_trials.ran,Bonus
6012e262527c380ccb2a6c74,SCN,2024-06-21_13h47.19.092,LearnStrategy,2023.2.3,Win32,59.88023952,,,,,,,,,,,,,,,,,,,,,,,,,,,,,,,,,,,,,,,,,,,
6012e262527c380ccb2a6c74,SCN,2024-06-21_13h47.19.092,LearnStrategy,2023.2.3,Win32,59.88023952,1,1,1,-0.39444443,0.387962959,1,0,0,7.1543,Pumice_08,8,08,6,2,7.154,-0.131481453,-0.249074088,1,0,0,3.3511,Basalt_rect,2,3.351,0,0,0,0,0,1,,,,,,,,,,,,,
6012e262527c380ccb2a6c74,SCN,2024-06-21_13h47.19.092,LearnStrategy,2023.2.3,Win32,59.88023952,1,1,2,0.587037122,-0.25462963,1,0,0,5.0822,Pumice_16,8,16,2,8,5.082,0.470370399,-0.23055557,1,0,0,1.82,Gabbro_rect,4,1.82,0,1,0,1,0,1,,,,,,,,,,,,,
6012e262527c380ccb2a6c74,SCN,2024-06-21_13h47.19.092,LearnStrategy,2023.2.3,Win32,59.88023952,1,1,3,0.509259259,-0.398148148,1,0,0,3.3458,Obsidian_10,5,10,1,8,3.346,0.124074088,-0.39907406,1,0,0,1.3753,Peridotite_rect,7,1.375,0,2,0,2,0,1,,,,,,,,,,,,,
6012e262527c380ccb2a6c74,SCN,2024-06-21_13h47.19.092,LearnStrategy,2023.2.3,Win32,59.88023952,1,1,4,-0.383333312,-0.239814829,1,0,0,4.6288,Obsidian_12,5,12,2,2,4.629,-0.39166666,-0.407407407,1,0,0,3.4697,Obsidian_rect,5,3.47,1,3,0,3,0,1,,,,,,,,,,,,,
6012e262527c380ccb2a6c74,SCN,2024-06-21_13h47.19.092,LearnStrategy,2023.2.3,Win32,59.88023952,1,1,5,-0.12037037,0.262962959,1,0,0,4.8064,Obsidian_02,5,02,5,4,4.806,-0.459259245,-0.385185171,1,0,0,2.3383,Obsidian_rect,5,2.338,1,4,0,4,0,1,,,,,,,,,,,,,
6012e262527c380ccb2a6c74,SCN,2024-06-21_13h47.19.092,LearnStrategy,2023.2.3,Win32,59.88023952,1,1,6,0.55277775,-0.086111104,1,0,0,2.8903,Basalt_09,2,09,3,8,2.89,0.351851852,-0.409259302,1,0,0,1.8703,Pumice_rect,8,1.87,0,5,0,5,0,1,,,,,,,,,,,,,
6012e262527c380ccb2a6c74,SCN,2024-06-21_13h47.19.092,LearnStrategy,2023.2.3,Win32,59.88023952,1,1,7,-0.223148134,-0.386111153,1,0,0,3.4331,Pegmatite_10,6,10,1,3,3.433,0.158333319,-0.238888917,1,0,0,1.6986,Diorite_rect,3,1.699,0,6,0,6,0,1,,,,,,,,,,,,,
6012e262527c380ccb2a6c74,SCN,2024-06-21_13h47.19.092,LearnStrategy,2023.2.3,Win32,59.88023952,1,1,8,-0.508333312,0.244444441,1,0,0,3.6279,Pegmatite_11,6,11,5,1,3.628,-0.097222222,-0.411111125,1,0,0,1.8628,Pegmatite_rect,6,1.863,1,7,0,7,0,1,,,,,,,,,,,,,
6012e262527c380ccb2a6c74,SCN,2024-06-21_13h47.19.092,LearnStrategy,2023.2.3,Win32,59.88023952,1,1,9,-0.425925926,0.096296275,1,0,0,4.7797,Basalt_12,2,12,4,2,4.78,0.352777834,-0.401851866,1,0,0,2.6037,Pumice_rect,8,2.604,0,8,0,8,0,1,,,,,,,,,,,,,
6012e262527c380ccb2a6c74,SCN,2024-06-21_13h47.19.092,LearnStrategy,2023.2.3,Win32,59.88023952,1,1,10,0.088888875,0.427777776,1,0,0,1.3991,Andesite_14,1,14,6,5,1.399,0.310185185,-0.391666695,1,0,0,1.731,Pumice_rect,8,1.731,0,9,0,9,0,1,,,,,,,,,,,,,
6012e262527c380ccb2a6c74,SCN,2024-06-21_13h47.19.092,LearnStrategy,2023.2.3,Win32,59.88023952,1,1,11,0.575000057,0.405555557,1,0,0,2.1492,Diorite_12,3,12,6,8,2.149,-0.329629616,-0.237037023,1,0,0,1.6208,Andesite_rect,1,1.621,0,10,0,10,0,1,,,,,,,,,,,,,
6012e262527c380ccb2a6c74,SCN,2024-06-21_13h47.19.092,LearnStrategy,2023.2.3,Win32,59.88023952,1,1,12,0.564814815,0.244444441,1,0,0,1.4829,Peridotite_14,7,14,5,8,1.483,0.079629616,-0.232407393,1,0,0,1.4437,Diorite_rect,3,1.444,0,11,0,11,0,1,,,,,,,,,,,,,
6012e262527c380ccb2a6c74,SCN,2024-06-21_13h47.19.092,LearnStrategy,2023.2.3,Win32,59.88023952,1,1,13,0.380555612,-0.265740783,1,0,0,2.3665,Pumice_06,8,06,2,7,2.366,0.12037037,-0.39444443,1,0,0,1.6265,Peridotite_rect,7,1.626,0,12,0,12,0,1,,,,,,,,,,,,,
6012e262527c380ccb2a6c74,SCN,2024-06-21_13h47.19.092,LearnStrategy,2023.2.3,Win32,59.88023952,1,1,14,-0.242592564,-0.234259288,1,0,0,2.4833,Basalt_06,2,06,2,3,2.483,0.030555584,-0.393518519,1,0,0,2.5016,Peridotite_rect,7,2.502,0,13,0,13,0,1,,,,,,,,,,,,,
6012e262527c380ccb2a6c74,SCN,2024-06-21_13h47.19.092,LearnStrategy,2023.2.3,Win32,59.88023952,1,1,15,-0.418518526,-0.109259288,1,0,0,2.0181,Pumice_09,8,09,3,2,2.018,0.359259288,-0.382407436,1,0,0,3.3596,Pumice_rect,8,3.36,1,14,0,14,0,1,,,,,,,,,,,,,
6012e262527c380ccb2a6c74,SCN,2024-06-21_13h47.19.092,LearnStrategy,2023.2.3,Win32,59.88023952,1,1,16,-0.52870369,0.086111104,1,0,0,1.7733,Gabbro_08,4,08,4,1,1.773,-0.161111125,-0.392592607,1,0,0,2.2211,Pegmatite_rect,6,2.221,0,15,0,15,0,1,,,,,,,,,,,,,
6012e262527c380ccb2a6c74,SCN,2024-06-21_13h47.19.092,LearnStrategy,2023.2.3,Win32,59.88023952,1,2,1,,,,,,,,5,07,,,,,,,,,,,5,3.868,1,,,,,,-0.339814822,-0.380555541,1,0,0,3.8682,Obsidian_rect,0,0,0,0,1,
6012e262527c380ccb2a6c74,SCN,2024-06-21_13h47.19.092,LearnStrategy,2023.2.3,Win32,59.88023952,1,2,2,,,,,,,,1,01,,,,,,,,,,,7,3.318,0,,,,,,0.109259288,-0.391666695,1,0,0,3.3176,Peridotite_rect,1,0,1,0,1,
6012e262527c380ccb2a6c74,SCN,2024-06-21_13h47.19.092,LearnStrategy,2023.2.3,Win32,59.88023952,1,2,3,,,,,,,,8,05,,,,,,,,,,,8,3.505,1,,,,,,0.343518575,-0.398148148,1,0,0,3.5054,Pumice_rect,2,0,2,0,1,
6012e262527c380ccb2a6c74,SCN,2024-06-21_13h47.19.092,LearnStrategy,2023.2.3,Win32,59.88023952,1,2,4,,,,,,,,4,01,,,,,,,,,,,7,6.783,0,,,,,,0.143518519,-0.392592607,1,0,0,6.7829,Peridotite_rect,3,0,3,0,1,
6012e262527c380ccb2a6c74,SCN,2024-06-21_13h47.19.092,LearnStrategy,2023.2.3,Win32,59.88023952,1,2,5,,,,,,,,8,13,,,,,,,,,,,2,2.935,0,,,,,,-0.046296296,-0.248148176,1,0,0,2.9351,Basalt_rect,4,0,4,0,1,
6012e262527c380ccb2a6c74,SCN,2024-06-21_13h47.19.092,LearnStrategy,2023.2.3,Win32,59.88023952,1,2,6,,,,,,,,7,05,,,,,,,,,,,4,2.498,0,,,,,,0.377777806,-0.229629658,1,0,0,2.4976,Gabbro_rect,5,0,5,0,1,
6012e262527c380ccb2a6c74,SCN,2024-06-21_13h47.19.092,LearnStrategy,2023.2.3,Win32,59.88023952,1,2,7,,,,,,,,1,07,,,,,,,,,,,6,2.411,0,,,,,,-0.179629644,-0.411111125,1,0,0,2.4105,Pegmatite_rect,6,0,6,0,1,
6012e262527c380ccb2a6c74,SCN,2024-06-21_13h47.19.092,LearnStrategy,2023.2.3,Win32,59.88023952,1,2,8,,,,,,,,7,06,,,,,,,,,,,1,2.767,0,,,,,,-0.388888889,-0.228703746,1,0,0,2.7666,Andesite_rect,7,0,7,0,1,
6012e262527c380ccb2a6c74,SCN,2024-06-21_13h47.19.092,LearnStrategy,2023.2.3,Win32,59.88023952,1,2,9,,,,,,,,2,04,,,,,,,,,,,5,2.386,0,,,,,,-0.369444423,-0.410185213,1,0,0,2.3857,Obsidian_rect,8,0,8,0,1,
6012e262527c380ccb2a6c74,SCN,2024-06-21_13h47.19.092,LearnStrategy,2023.2.3,Win32,59.88023952,1,2,10,,,,,,,,5,11,,,,,,,,,,,5,1.1,1,,,,,,-0.37037037,-0.391666695,1,0,0,1.0997,Obsidian_rect,9,0,9,0,1,
6012e262527c380ccb2a6c74,SCN,2024-06-21_13h47.19.092,LearnStrategy,2023.2.3,Win32,59.88023952,1,2,11,,,,,,,,3,16,,,,,,,,,,,8,2.43,0,,,,,,0.413888861,-0.392592607,1,0,0,2.4303,Pumice_rect,10,0,10,0,1,
6012e262527c380ccb2a6c74,SCN,2024-06-21_13h47.19.092,LearnStrategy,2023.2.3,Win32,59.88023952,1,2,12,,,,,,,,4,13,,,,,,,,,,,3,1.58,0,,,,,,0.15370369,-0.263888889,1,0,0,1.5796,Diorite_rect,11,0,11,0,1,
6012e262527c380ccb2a6c74,SCN,2024-06-21_13h47.19.092,LearnStrategy,2023.2.3,Win32,59.88023952,1,2,13,,,,,,,,6,08,,,,,,,,,,,6,4.818,1,,,,,,-0.082407422,-0.400000042,1,0,0,4.8178,Pegmatite_rect,12,0,12,0,1,
6012e262527c380ccb2a6c74,SCN,2024-06-21_13h47.19.092,LearnStrategy,2023.2.3,Win32,59.88023952,1,2,14,,,,,,,,2,08,,,,,,,,,,,8,2.405,0,,,,,,0.333333333,-0.392592607,1,0,0,2.4055,Pumice_rect,13,0,13,0,1,
6012e262527c380ccb2a6c74,SCN,2024-06-21_13h47.19.092,LearnStrategy,2023.2.3,Win32,59.88023952,1,2,15,,,,,,,,3,13,,,,,,,,,,,4,1.662,0,,,,,,0.306481538,-0.241666653,1,0,0,1.662,Gabbro_rect,14,0,14,0,1,
6012e262527c380ccb2a6c74,SCN,2024-06-21_13h47.19.092,LearnStrategy,2023.2.3,Win32,59.88023952,1,2,16,,,,,,,,6,09,,,,,,,,,,,7,2.113,0,,,,,,0.064814815,-0.378703718,1,0,0,2.1133,Peridotite_rect,15,0,15,0,1,
6012e262527c380ccb2a6c74,SCN,2024-06-21_13h47.19.092,LearnStrategy,2023.2.3,Win32,59.88023952,2,1,1,-0.377777771,0.093518504,1,0,0,3.9399,Basalt_12,2,12,4,2,3.94,0.332407492,-0.408333319,1,0,0,2.2722,Pumice_rect,8,2.272,0,0,0,0,0,1,,,,,,,,,,,,,
6012e262527c380ccb2a6c74,SCN,2024-06-21_13h47.19.092,LearnStrategy,2023.2.3,Win32,59.88023952,2,1,2,-0.261111083,-0.436111097,1,0,0,1.3023,Pegmatite_10,6,10,1,3,1.302,-0.184259273,-0.39444443,1,0,0,0.7736,Pegmatite_rect,6,0.774,1,1,0,1,0,1,,,,,,,,,,,,,
6012e262527c380ccb2a6c74,SCN,2024-06-21_13h47.19.092,LearnStrategy,2023.2.3,Win32,59.88023952,2,1,3,0.24537037,0.269444448,1,0,0,4.9661,Pegmatite_07,6,07,5,6,4.966,-0.15370369,-0.391666695,1,0,0,1.0826,Pegmatite_rect,6,1.083,1,2,0,2,0,1,,,,,,,,,,,,,
6012e262527c380ccb2a6c74,SCN,2024-06-21_13h47.19.092,LearnStrategy,2023.2.3,Win32,59.88023952,2,1,4,0.546296296,-0.419444473,1,0,0,3.0326,Obsidian_10,5,10,1,8,3.033,-0.324999986,-0.386111153,1,0,0,3.4264,Obsidian_rect,5,3.426,1,3,0,3,0,1,,,,,,,,,,,,,
6012e262527c380ccb2a6c74,SCN,2024-06-21_13h47.19.092,LearnStrategy,2023.2.3,Win32,59.88023952,2,1,5,-0.085185157,-0.069444444,1,0,0,2.7162,Obsidian_05,5,05,3,4,2.716,-0.136111083,-0.414814843,1,0,0,2.8705,Pegmatite_rect,6,2.87,0,4,0,4,0,1,,,,,,,,,,,,,
6012e262527c380ccb2a6c74,SCN,2024-06-21_13h47.19.092,LearnStrategy,2023.2.3,Win32,59.88023952,2,1,6,0.229629658,0.093518504,1,0,0,2.9454,Diorite_07,3,07,4,6,2.945,0.199074074,-0.395370413,1,0,0,1.0776,Peridotite_rect,7,1.078,0,5,0,5,0,1,,,,,,,,,,,,,
6012e262527c380ccb2a6c74,SCN,2024-06-21_13h47.19.092,LearnStrategy,2023.2.3,Win32,59.88023952,2,1,7,-0.529629637,0.250925929,1,0,0,2.9642,Pegmatite_11,6,11,5,1,2.964,0.186111097,-0.261111153,1,0,0,2.6942,Diorite_rect,3,2.694,0,6,0,6,0,1,,,,,,,,,,,,,
6012e262527c380ccb2a6c74,SCN,2024-06-21_13h47.19.092,LearnStrategy,2023.2.3,Win32,59.88023952,2,1,8,0.354629658,0.11296297,1,0,0,3.3157,Diorite_14,3,14,4,7,3.316,0.12962963,-0.233333376,1,0,0,2.2663,Diorite_rect,3,2.266,1,7,0,7,0,1,,,,,,,,,,,,,
6012e262527c380ccb2a6c74,SCN,2024-06-21_13h47.19.092,LearnStrategy,2023.2.3,Win32,59.88023952,2,1,9,0.074999986,0.107407393,1,0,0,2.7654,Pegmatite_13,6,13,4,5,2.765,0.061111097,-0.266666695,1,0,0,1.6802,Diorite_rect,3,1.68,0,8,0,8,0,1,,,,,,,,,,,,,
6012e262527c380ccb2a6c74,SCN,2024-06-21_13h47.19.092,LearnStrategy,2023.2.3,Win32,59.88023952,2,1,10,-0.218518504,-0.365740741,1,0,0,2.8194,Pegmatite_10,6,10,1,3,2.819,-0.207407422,-0.385185171,1,0,0,1.5468,Pegmatite_rect,6,1.547,1,9,0,9,0,1,,,,,,,,,,,,,
6012e262527c380ccb2a6c74,SCN,2024-06-21_13h47.19.092,LearnStrategy,2023.2.3,Win32,59.88023952,2,1,11,0.056481467,0.233333323,1,0,0,7.1339,Diorite_02,3,02,5,5,7.134,0.10555557,-0.229629658,1,0,0,2.6291,Diorite_rect,3,2.629,1,10,0,10,0,1,,,,,,,,,,,,,
6012e262527c380ccb2a6c74,SCN,2024-06-21_13h47.19.092,LearnStrategy,2023.2.3,Win32,59.88023952,2,1,12,0.532407407,0.237962952,1,0,0,4.2119,Peridotite_14,7,14,5,8,4.212,0.092592593,-0.249074088,1,0,0,1.7539,Diorite_rect,3,1.754,0,11,0,11,0,1,,,,,,,,,,,,,
6012e262527c380ccb2a6c74,SCN,2024-06-21_13h47.19.092,LearnStrategy,2023.2.3,Win32,59.88023952,2,1,13,0.070370356,-0.133333347,1,0,0,2.9076,Diorite_08,3,08,3,5,2.908,0.09629631,-0.237037023,1,0,0,2.3235,Diorite_rect,3,2.324,1,12,0,12,0,1,,,,,,,,,,,,,
6012e262527c380ccb2a6c74,SCN,2024-06-21_13h47.19.092,LearnStrategy,2023.2.3,Win32,59.88023952,2,1,14,0.49537037,0.092592593,1,0,0,1.3778,Basalt_10,2,10,4,8,1.378,0.387037065,-0.246296282,1,0,0,1.149,Gabbro_rect,4,1.149,0,13,0,13,0,1,,,,,,,,,,,,,
6012e262527c380ccb2a6c74,SCN,2024-06-21_13h47.19.092,LearnStrategy,2023.2.3,Win32,59.88023952,2,1,15,0.252777806,0.422222217,1,0,0,2.8738,Gabbro_12,4,12,6,6,2.874,-0.359259252,-0.261111153,1,0,0,2.7794,Andesite_rect,1,2.779,0,14,0,14,0,1,,,,,,,,,,,,,
6012e262527c380ccb2a6c74,SCN,2024-06-21_13h47.19.092,LearnStrategy,2023.2.3,Win32,59.88023952,2,1,16,0.571296268,0.421296296,1,0,0,1.5027,Diorite_12,3,12,6,8,1.503,0.146296325,-0.267592607,1,0,0,1.2103,Diorite_rect,3,1.21,1,15,0,15,0,1,,,,,,,,,,,,,
6012e262527c380ccb2a6c74,SCN,2024-06-21_13h47.19.092,LearnStrategy,2023.2.3,Win32,59.88023952,2,2,1,,,,,,,,8,04,,,,,,,,,,,8,3.575,1,,,,,,0.35555564,-0.39444443,1,0,0,3.5746,Pumice_rect,0,0,0,0,1,
6012e262527c380ccb2a6c74,SCN,2024-06-21_13h47.19.092,LearnStrategy,2023.2.3,Win32,59.88023952,2,2,2,,,,,,,,2,02,,,,,,,,,,,4,4.596,0,,,,,,0.36018527,-0.231481481,1,0,0,4.5962,Gabbro_rect,1,0,1,0,1,
6012e262527c380ccb2a6c74,SCN,2024-06-21_13h47.19.092,LearnStrategy,2023.2.3,Win32,59.88023952,2,2,3,,,,,,,,2,05,,,,,,,,,,,4,3.999,0,,,,,,0.314814815,-0.261111153,1,0,0,3.9988,Gabbro_rect,2,0,2,0,1,
6012e262527c380ccb2a6c74,SCN,2024-06-21_13h47.19.092,LearnStrategy,2023.2.3,Win32,59.88023952,2,2,4,,,,,,,,7,02,,,,,,,,,,,3,1.8,0,,,,,,0.14907406,-0.262962977,1,0,0,1.7998,Diorite_rect,3,0,3,0,1,
6012e262527c380ccb2a6c74,SCN,2024-06-21_13h47.19.092,LearnStrategy,2023.2.3,Win32,59.88023952,2,2,5,,,,,,,,4,14,,,,,,,,,,,1,3.71,0,,,,,,-0.339814822,-0.249074088,1,0,0,3.7104,Andesite_rect,4,0,4,0,1,
6012e262527c380ccb2a6c74,SCN,2024-06-21_13h47.19.092,LearnStrategy,2023.2.3,Win32,59.88023952,2,2,6,,,,,,,,3,06,,,,,,,,,,,3,2.264,1,,,,,,0.132407436,-0.249074088,1,0,0,2.2637,Diorite_rect,5,0,5,0,1,
6012e262527c380ccb2a6c74,SCN,2024-06-21_13h47.19.092,LearnStrategy,2023.2.3,Win32,59.88023952,2,2,7,,,,,,,,6,16,,,,,,,,,,,6,2.204,1,,,,,,-0.075925898,-0.415740755,1,0,0,2.2036,Pegmatite_rect,6,0,6,0,1,
6012e262527c380ccb2a6c74,SCN,2024-06-21_13h47.19.092,LearnStrategy,2023.2.3,Win32,59.88023952,2,2,8,,,,,,,,4,03,,,,,,,,,,,2,2.438,0,,,,,,-0.069444444,-0.24537037,1,0,0,2.4383,Basalt_rect,7,0,7,0,1,
6012e262527c380ccb2a6c74,SCN,2024-06-21_13h47.19.092,LearnStrategy,2023.2.3,Win32,59.88023952,2,2,9,,,,,,,,5,06,,,,,,,,,,,5,1.482,1,,,,,,-0.407407407,-0.390740783,1,0,0,1.4819,Obsidian_rect,8,0,8,0,1,
6012e262527c380ccb2a6c74,SCN,2024-06-21_13h47.19.092,LearnStrategy,2023.2.3,Win32,59.88023952,2,2,10,,,,,,,,5,14,,,,,,,,,,,5,2.009,1,,,,,,-0.380555541,-0.40370369,1,0,0,2.0089,Obsidian_rect,9,0,9,0,1,
6012e262527c380ccb2a6c74,SCN,2024-06-21_13h47.19.092,LearnStrategy,2023.2.3,Win32,59.88023952,2,2,11,,,,,,,,1,03,,,,,,,,,,,7,3.064,0,,,,,,0.208333333,-0.410185213,1,0,0,3.0636,Peridotite_rect,10,0,10,0,1,
6012e262527c380ccb2a6c74,SCN,2024-06-21_13h47.19.092,LearnStrategy,2023.2.3,Win32,59.88023952,2,2,12,,,,,,,,6,15,,,,,,,,,,,6,3.95,1,,,,,,-0.149999972,-0.416666667,1,0,0,3.9499,Pegmatite_rect,11,0,11,0,1,
6012e262527c380ccb2a6c74,SCN,2024-06-21_13h47.19.092,LearnStrategy,2023.2.3,Win32,59.88023952,2,2,13,,,,,,,,1,11,,,,,,,,,,,2,3.794,0,,,,,,-0.112962935,-0.231481481,1,0,0,3.7941,Basalt_rect,12,0,12,0,1,
6012e262527c380ccb2a6c74,SCN,2024-06-21_13h47.19.092,LearnStrategy,2023.2.3,Win32,59.88023952,2,2,14,,,,,,,,3,11,,,,,,,,,,,3,1.235,1,,,,,,0.062962991,-0.247222265,1,0,0,1.2351,Diorite_rect,13,0,13,0,1,
6012e262527c380ccb2a6c74,SCN,2024-06-21_13h47.19.092,LearnStrategy,2023.2.3,Win32,59.88023952,2,2,15,,,,,,,,8,15,,,,,,,,,,,8,1.671,1,,,,,,0.344444416,-0.386111153,1,0,0,1.6706,Pumice_rect,14,0,14,0,1,
6012e262527c380ccb2a6c74,SCN,2024-06-21_13h47.19.092,LearnStrategy,2023.2.3,Win32,59.88023952,2,2,16,,,,,,,,7,13,,,,,,,,,,,6,2.501,0,,,,,,-0.111111111,-0.389814801,1,0,0,2.5008,Pegmatite_rect,15,0,15,0,1,
6012e262527c380ccb2a6c74,SCN,2024-06-21_13h47.19.092,LearnStrategy,2023.2.3,Win32,59.88023952,3,1,1,-0.214814787,-0.397222236,1,0,0,2.0434,Pegmatite_10,6,10,1,3,2.043,-0.178703661,-0.398148148,1,0,0,1.3654,Pegmatite_rect,6,1.365,1,0,0,0,0,1,,,,,,,,,,,,,
6012e262527c380ccb2a6c74,SCN,2024-06-21_13h47.19.092,LearnStrategy,2023.2.3,Win32,59.88023952,3,1,2,-0.525000007,0.25,1,0,0,1.1828,Pegmatite_11,6,11,5,1,1.183,-0.113888847,-0.413888931,1,0,0,2.3269,Pegmatite_rect,6,2.327,1,1,0,1,0,1,,,,,,,,,,,,,
6012e262527c380ccb2a6c74,SCN,2024-06-21_13h47.19.092,LearnStrategy,2023.2.3,Win32,59.88023952,3,1,3,0.249074088,0.112037023,1,0,0,0.8898,Diorite_07,3,07,4,6,0.89,0.160185213,-0.248148176,1,0,0,1.0168,Diorite_rect,3,1.017,1,2,0,2,0,1,,,,,,,,,,,,,
6012e262527c380ccb2a6c74,SCN,2024-06-21_13h47.19.092,LearnStrategy,2023.2.3,Win32,59.88023952,3,1,4,0.569444444,0.38981481,1,0,0,3.2191,Diorite_12,3,12,6,8,3.219,0.190740727,-0.242592635,1,0,0,1.3502,Diorite_rect,3,1.35,1,3,0,3,0,1,,,,,,,,,,,,,
6012e262527c380ccb2a6c74,SCN,2024-06-21_13h47.19.092,LearnStrategy,2023.2.3,Win32,59.88023952,3,1,5,-0.3675926,0.395370369,1,0,0,1.6623,Pumice_08,8,08,6,2,1.662,0.356481481,-0.388888889,1,0,0,1.348,Pumice_rect,8,1.348,1,4,0,4,0,1,,,,,,,,,,,,,
6012e262527c380ccb2a6c74,SCN,2024-06-21_13h47.19.092,LearnStrategy,2023.2.3,Win32,59.88023952,3,1,6,-0.402777778,0.150000007,1,0,0,1.3912,Basalt_12,2,12,4,2,1.391,0.372222194,-0.382407436,1,0,0,1.4563,Pumice_rect,8,1.456,0,5,0,5,0,1,,,,,,,,,,,,,
6012e262527c380ccb2a6c74,SCN,2024-06-21_13h47.19.092,LearnStrategy,2023.2.3,Win32,59.88023952,3,1,7,-0.397222201,0.255555559,1,0,0,1.6695,Andesite_10,1,10,5,2,1.669,0.396296325,-0.413888931,1,0,0,1.6782,Pumice_rect,8,1.678,0,6,0,6,0,1,,,,,,,,,,,,,
6012e262527c380ccb2a6c74,SCN,2024-06-21_13h47.19.092,LearnStrategy,2023.2.3,Win32,59.88023952,3,1,8,-0.369444423,-0.082407422,1,0,0,4.27,Pumice_09,8,09,3,2,4.27,0.40370376,-0.381481524,1,0,0,1.2404,Pumice_rect,8,1.24,1,7,0,7,0,1,,,,,,,,,,,,,
6012e262527c380ccb2a6c74,SCN,2024-06-21_13h47.19.092,LearnStrategy,2023.2.3,Win32,59.88023952,3,1,9,0.219444487,0.114814794,1,0,0,2.0779,Diorite_07,3,07,4,6,2.078,0.050925926,-0.264814801,1,0,0,1.0594,Diorite_rect,3,1.059,1,8,0,8,0,1,,,,,,,,,,,,,
6012e262527c380ccb2a6c74,SCN,2024-06-21_13h47.19.092,LearnStrategy,2023.2.3,Win32,59.88023952,3,1,10,-0.231481481,-0.431481467,1,0,0,1.4647,Pegmatite_10,6,10,1,3,1.465,-0.209259245,-0.409259302,1,0,0,0.6434,Pegmatite_rect,6,0.643,1,9,0,9,0,1,,,,,,,,,,,,,
6012e262527c380ccb2a6c74,SCN,2024-06-21_13h47.19.092,LearnStrategy,2023.2.3,Win32,59.88023952,3,1,11,0.42777775,0.13703703,1,0,0,2.5328,Diorite_14,3,14,4,7,2.533,0.212037051,-0.244444459,1,0,0,1.144,Diorite_rect,3,1.144,1,10,0,10,0,1,,,,,,,,,,,,,
6012e262527c380ccb2a6c74,SCN,2024-06-21_13h47.19.092,LearnStrategy,2023.2.3,Win32,59.88023952,3,1,12,0.101851852,0.38055555,1,0,0,3.8831,Andesite_14,1,14,6,5,3.883,-0.337037016,-0.259259259,1,0,0,1.6508,Andesite_rect,1,1.651,1,11,0,11,0,1,,,,,,,,,,,,,
6012e262527c380ccb2a6c74,SCN,2024-06-21_13h47.19.092,LearnStrategy,2023.2.3,Win32,59.88023952,3,1,13,-0.38703703,0.25833333,1,0,0,3.7943,Andesite_10,1,10,5,2,3.794,-0.436111097,-0.251851894,1,0,0,1.2924,Andesite_rect,1,1.292,1,12,0,12,0,1,,,,,,,,,,,,,
6012e262527c380ccb2a6c74,SCN,2024-06-21_13h47.19.092,LearnStrategy,2023.2.3,Win32,59.88023952,3,1,14,0.404629601,0.097222222,1,0,0,1.566,Diorite_14,3,14,4,7,1.566,0.131481524,-0.243518547,1,0,0,5.8849,Diorite_rect,3,5.885,1,13,0,13,0,1,,,,,,,,,,,,,
6012e262527c380ccb2a6c74,SCN,2024-06-21_13h47.19.092,LearnStrategy,2023.2.3,Win32,59.88023952,3,1,15,0.412037037,0.109259252,1,0,0,4.3916,Diorite_14,3,14,4,7,4.392,0.187037079,-0.262037065,1,0,0,3.0699,Diorite_rect,3,3.07,1,14,0,14,0,1,,,,,,,,,,,,,
6012e262527c380ccb2a6c74,SCN,2024-06-21_13h47.19.092,LearnStrategy,2023.2.3,Win32,59.88023952,3,1,16,-0.400000007,0.26666666,1,0,0,1.7557,Andesite_10,1,10,5,2,1.756,-0.331481474,-0.252777806,1,0,0,2.0134,Andesite_rect,1,2.013,1,15,0,15,0,1,,,,,,,,,,,,,
6012e262527c380ccb2a6c74,SCN,2024-06-21_13h47.19.092,LearnStrategy,2023.2.3,Win32,59.88023952,3,2,1,,,,,,,,8,14,,,,,,,,,,,8,2.761,1,,,,,,0.304629714,-0.389814801,1,0,0,2.7609,Pumice_rect,0,0,0,0,1,
6012e262527c380ccb2a6c74,SCN,2024-06-21_13h47.19.092,LearnStrategy,2023.2.3,Win32,59.88023952,3,2,2,,,,,,,,1,09,,,,,,,,,,,1,2.349,1,,,,,,-0.408333319,-0.267592607,1,0,0,2.3493,Andesite_rect,1,0,1,0,1,
6012e262527c380ccb2a6c74,SCN,2024-06-21_13h47.19.092,LearnStrategy,2023.2.3,Win32,59.88023952,3,2,3,,,,,,,,5,08,,,,,,,,,,,5,1.159,1,,,,,,-0.435185185,-0.408333319,1,0,0,1.1594,Obsidian_rect,2,0,2,0,1,
6012e262527c380ccb2a6c74,SCN,2024-06-21_13h47.19.092,LearnStrategy,2023.2.3,Win32,59.88023952,3,2,4,,,,,,,,7,07,,,,,,,,,,,1,3.279,0,,,,,,-0.386111118,-0.240740741,1,0,0,3.2792,Andesite_rect,3,0,3,0,1,
6012e262527c380ccb2a6c74,SCN,2024-06-21_13h47.19.092,LearnStrategy,2023.2.3,Win32,59.88023952,3,2,5,,,,,,,,6,03,,,,,,,,,,,6,1.603,1,,,,,,-0.176851838,-0.400000042,1,0,0,1.6029,Pegmatite_rect,4,0,4,0,1,
6012e262527c380ccb2a6c74,SCN,2024-06-21_13h47.19.092,LearnStrategy,2023.2.3,Win32,59.88023952,3,2,6,,,,,,,,3,10,,,,,,,,,,,3,3.279,1,,,,,,0.098148134,-0.235185199,1,0,0,3.2794,Diorite_rect,5,0,5,0,1,
6012e262527c380ccb2a6c74,SCN,2024-06-21_13h47.19.092,LearnStrategy,2023.2.3,Win32,59.88023952,3,2,7,,,,,,,,6,06,,,,,,,,,,,6,1.614,1,,,,,,-0.080555527,-0.400000042,1,0,0,1.6136,Pegmatite_rect,6,0,6,0,1,
6012e262527c380ccb2a6c74,SCN,2024-06-21_13h47.19.092,LearnStrategy,2023.2.3,Win32,59.88023952,3,2,8,,,,,,,,1,05,,,,,,,,,,,3,2.715,0,,,,,,0.042592578,-0.250925912,1,0,0,2.715,Diorite_rect,7,0,7,0,1,
6012e262527c380ccb2a6c74,SCN,2024-06-21_13h47.19.092,LearnStrategy,2023.2.3,Win32,59.88023952,3,2,9,,,,,,,,4,10,,,,,,,,,,,8,2.73,0,,,,,,0.437962991,-0.386111153,1,0,0,2.7301,Pumice_rect,8,0,8,0,1,
6012e262527c380ccb2a6c74,SCN,2024-06-21_13h47.19.092,LearnStrategy,2023.2.3,Win32,59.88023952,3,2,10,,,,,,,,7,12,,,,,,,,,,,6,2.596,0,,,,,,-0.161111125,-0.410185213,1,0,0,2.5964,Pegmatite_rect,9,0,9,0,1,
6012e262527c380ccb2a6c74,SCN,2024-06-21_13h47.19.092,LearnStrategy,2023.2.3,Win32,59.88023952,3,2,11,,,,,,,,8,10,,,,,,,,,,,8,1.769,1,,,,,,0.349074046,-0.405555584,1,0,0,1.7693,Pumice_rect,10,0,10,0,1,
6012e262527c380ccb2a6c74,SCN,2024-06-21_13h47.19.092,LearnStrategy,2023.2.3,Win32,59.88023952,3,2,12,,,,,,,,2,01,,,,,,,,,,,2,2.034,1,,,,,,-0.112037023,-0.262037065,1,0,0,2.0341,Basalt_rect,11,0,11,0,1,
6012e262527c380ccb2a6c74,SCN,2024-06-21_13h47.19.092,LearnStrategy,2023.2.3,Win32,59.88023952,3,2,13,,,,,,,,3,15,,,,,,,,,,,3,2.29,1,,,,,,0.187037079,-0.267592607,1,0,0,2.2902,Diorite_rect,12,0,12,0,1,
6012e262527c380ccb2a6c74,SCN,2024-06-21_13h47.19.092,LearnStrategy,2023.2.3,Win32,59.88023952,3,2,14,,,,,,,,5,04,,,,,,,,,,,5,1.176,1,,,,,,-0.428703697,-0.393518519,1,0,0,1.1762,Obsidian_rect,13,0,13,0,1,
6012e262527c380ccb2a6c74,SCN,2024-06-21_13h47.19.092,LearnStrategy,2023.2.3,Win32,59.88023952,3,2,15,,,,,,,,4,09,,,,,,,,,,,3,1.486,0,,,,,,0.157407407,-0.235185199,1,0,0,1.486,Diorite_rect,14,0,14,0,1,
6012e262527c380ccb2a6c74,SCN,2024-06-21_13h47.19.092,LearnStrategy,2023.2.3,Win32,59.88023952,3,2,16,,,,,,,,2,14,,,,,,,,,,,2,1.894,1,,,,,,-0.193518533,-0.231481481,1,0,0,1.894,Basalt_rect,15,0,15,0,1,
6012e262527c380ccb2a6c74,SCN,2024-06-21_13h47.19.092,LearnStrategy,2023.2.3,Win32,59.88023952,4,1,1,-0.40370369,-0.233333376,1,0,0,1.9158,Obsidian_12,5,12,2,2,1.916,-0.451851845,-0.380555541,1,0,0,1.3253,Obsidian_rect,5,1.325,1,0,0,0,0,1,,,,,,,,,,,,,
6012e262527c380ccb2a6c74,SCN,2024-06-21_13h47.19.092,LearnStrategy,2023.2.3,Win32,59.88023952,4,1,2,0.090740769,0.086111104,1,0,0,3.4232,Pegmatite_13,6,13,4,5,3.423,-0.059259273,-0.417592578,1,0,0,2.1116,Pegmatite_rect,6,2.112,1,1,0,1,0,1,,,,,,,,,,,,,
6012e262527c380ccb2a6c74,SCN,2024-06-21_13h47.19.092,LearnStrategy,2023.2.3,Win32,59.88023952,4,1,3,-0.551851838,0.224999993,1,0,0,1.5989,Pegmatite_11,6,11,5,1,1.599,-0.166666667,-0.384259259,1,0,0,1.342,Pegmatite_rect,6,1.342,1,2,0,2,0,1,,,,,,,,,,,,,
6012e262527c380ccb2a6c74,SCN,2024-06-21_13h47.19.092,LearnStrategy,2023.2.3,Win32,59.88023952,4,1,4,0.272222236,0.109259252,1,0,0,2.2153,Diorite_07,3,07,4,6,2.215,0.125925912,-0.258333347,1,0,0,1.0563,Diorite_rect,3,1.056,1,3,0,3,0,1,,,,,,,,,,,,,
6012e262527c380ccb2a6c74,SCN,2024-06-21_13h47.19.092,LearnStrategy,2023.2.3,Win32,59.88023952,4,1,5,0.383333418,0.091666645,1,0,0,1.1359,Diorite_14,3,14,4,7,1.136,0.124074088,-0.239814829,1,0,0,1.0615,Diorite_rect,3,1.062,1,4,0,4,0,1,,,,,,,,,,,,,
6012e262527c380ccb2a6c74,SCN,2024-06-21_13h47.19.092,LearnStrategy,2023.2.3,Win32,59.88023952,4,1,6,0.536111196,0.405555557,1,0,0,6.2865,Diorite_12,3,12,6,8,6.287,0.150000042,-0.233333376,1,0,0,2.0632,Diorite_rect,3,2.063,1,5,0,5,0,1,,,,,,,,,,,,,
6012e262527c380ccb2a6c74,SCN,2024-06-21_13h47.19.092,LearnStrategy,2023.2.3,Win32,59.88023952,4,1,7,0.559259344,0.205555545,1,0,0,1.1489,Peridotite_14,7,14,5,8,1.149,-0.39444443,-0.239814829,1,0,0,1.8765,Andesite_rect,1,1.877,0,6,0,6,0,1,,,,,,,,,,,,,
6012e262527c380ccb2a6c74,SCN,2024-06-21_13h47.19.092,LearnStrategy,2023.2.3,Win32,59.88023952,4,1,8,0.550925926,0.2462963,1,0,0,1.0329,Peridotite_14,7,14,5,8,1.033,0.15370369,-0.39907406,1,0,0,1.735,Peridotite_rect,7,1.735,1,7,0,7,0,1,,,,,,,,,,,,,
6012e262527c380ccb2a6c74,SCN,2024-06-21_13h47.19.092,LearnStrategy,2023.2.3,Win32,59.88023952,4,1,9,-0.383333312,0.212037034,1,0,0,1.203,Andesite_10,1,10,5,2,1.203,0.357407464,-0.409259302,1,0,0,1.9031,Pumice_rect,8,1.903,0,8,0,8,0,1,,,,,,,,,,,,,
6012e262527c380ccb2a6c74,SCN,2024-06-21_13h47.19.092,LearnStrategy,2023.2.3,Win32,59.88023952,4,1,10,-0.384259259,0.098148134,1,0,0,1.5831,Basalt_12,2,12,4,2,1.583,0.387037065,-0.397222236,1,0,0,2.4494,Pumice_rect,8,2.449,0,9,0,9,0,1,,,,,,,,,,,,,
6012e262527c380ccb2a6c74,SCN,2024-06-21_13h47.19.092,LearnStrategy,2023.2.3,Win32,59.88023952,4,1,11,0.538888861,0.424999996,1,0,0,2.5669,Diorite_12,3,12,6,8,2.567,0.137962977,-0.240740741,1,0,0,1.3222,Diorite_rect,3,1.322,1,10,0,10,0,1,,,,,,,,,,,,,
6012e262527c380ccb2a6c74,SCN,2024-06-21_13h47.19.092,LearnStrategy,2023.2.3,Win32,59.88023952,4,1,12,0.350926011,-0.10092594,1,0,0,1.0657,Gabbro_11,4,11,3,7,1.066,-0.324999986,-0.25462963,1,0,0,2.0555,Andesite_rect,1,2.056,0,11,0,11,0,1,,,,,,,,,,,,,
6012e262527c380ccb2a6c74,SCN,2024-06-21_13h47.19.092,LearnStrategy,2023.2.3,Win32,59.88023952,4,1,13,0.416666667,-0.233333376,1,0,0,1.5383,Pumice_06,8,06,2,7,1.538,0.338888945,-0.417592578,1,0,0,1.9035,Pumice_rect,8,1.904,1,12,0,12,0,1,,,,,,,,,,,,,
6012e262527c380ccb2a6c74,SCN,2024-06-21_13h47.19.092,LearnStrategy,2023.2.3,Win32,59.88023952,4,1,14,0.091666681,-0.083333333,1,0,0,0.8993,Diorite_08,3,08,3,5,0.899,0.181481467,-0.255555541,1,0,0,1.5265,Diorite_rect,3,1.527,1,13,0,13,0,1,,,,,,,,,,,,,
6012e262527c380ccb2a6c74,SCN,2024-06-21_13h47.19.092,LearnStrategy,2023.2.3,Win32,59.88023952,4,1,15,-0.37037037,-0.072222215,1,0,0,2.0662,Pumice_09,8,09,3,2,2.066,0.341666751,-0.40370369,1,0,0,1.5231,Pumice_rect,8,1.523,1,14,0,14,0,1,,,,,,,,,,,,,
6012e262527c380ccb2a6c74,SCN,2024-06-21_13h47.19.092,LearnStrategy,2023.2.3,Win32,59.88023952,4,1,16,0.50462963,0.073148127,1,0,0,1.9323,Basalt_10,2,10,4,8,1.932,0.346296381,-0.248148176,1,0,0,0.7269,Gabbro_rect,4,0.727,0,15,0,15,0,1,,,,,,,,,,,,,
6012e262527c380ccb2a6c74,SCN,2024-06-21_13h47.19.092,LearnStrategy,2023.2.3,Win32,59.88023952,4,2,1,,,,,,,,7,12,,,,,,,,,,,3,1.443,0,,,,,,0.107407393,-0.238888917,1,0,0,1.4435,Diorite_rect,0,0,0,0,1,
6012e262527c380ccb2a6c74,SCN,2024-06-21_13h47.19.092,LearnStrategy,2023.2.3,Win32,59.88023952,4,2,2,,,,,,,,3,16,,,,,,,,,,,3,1.458,1,,,,,,0.083333333,-0.239814829,1,0,0,1.4583,Diorite_rect,1,0,1,0,1,
6012e262527c380ccb2a6c74,SCN,2024-06-21_13h47.19.092,LearnStrategy,2023.2.3,Win32,59.88023952,4,2,3,,,,,,,,3,06,,,,,,,,,,,1,4.834,0,,,,,,-0.349999993,-0.239814829,1,0,0,4.8339,Andesite_rect,2,0,2,0,1,
6012e262527c380ccb2a6c74,SCN,2024-06-21_13h47.19.092,LearnStrategy,2023.2.3,Win32,59.88023952,4,2,4,,,,,,,,6,08,,,,,,,,,,,6,1.26,1,,,,,,-0.142592607,-0.412962949,1,0,0,1.2601,Pegmatite_rect,3,0,3,0,1,
6012e262527c380ccb2a6c74,SCN,2024-06-21_13h47.19.092,LearnStrategy,2023.2.3,Win32,59.88023952,4,2,5,,,,,,,,2,02,,,,,,,,,,,2,1.762,1,,,,,,-0.175925926,-0.25462963,1,0,0,1.762,Basalt_rect,4,0,4,0,1,
6012e262527c380ccb2a6c74,SCN,2024-06-21_13h47.19.092,LearnStrategy,2023.2.3,Win32,59.88023952,4,2,6,,,,,,,,5,04,,,,,,,,,,,5,1.667,1,,,,,,-0.441666674,-0.398148148,1,0,0,1.6673,Obsidian_rect,5,0,5,0,1,
6012e262527c380ccb2a6c74,SCN,2024-06-21_13h47.19.092,LearnStrategy,2023.2.3,Win32,59.88023952,4,2,7,,,,,,,,4,14,,,,,,,,,,,3,2.758,0,,,,,,0.087037051,-0.232407393,1,0,0,2.758,Diorite_rect,6,0,6,0,1,
6012e262527c380ccb2a6c74,SCN,2024-06-21_13h47.19.092,LearnStrategy,2023.2.3,Win32,59.88023952,4,2,8,,,,,,,,7,06,,,,,,,,,,,6,1.259,0,,,,,,-0.083333333,-0.404629672,1,0,0,1.2585,Pegmatite_rect,7,0,7,0,1,
6012e262527c380ccb2a6c74,SCN,2024-06-21_13h47.19.092,LearnStrategy,2023.2.3,Win32,59.88023952,4,2,9,,,,,,,,8,10,,,,,,,,,,,8,1.503,1,,,,,,0.350000028,-0.397222236,1,0,0,1.5031,Pumice_rect,8,0,8,0,1,
6012e262527c380ccb2a6c74,SCN,2024-06-21_13h47.19.092,LearnStrategy,2023.2.3,Win32,59.88023952,4,2,10,,,,,,,,5,07,,,,,,,,,,,5,1.143,1,,,,,,-0.402777778,-0.421296296,1,0,0,1.1432,Obsidian_rect,9,0,9,0,1,
6012e262527c380ccb2a6c74,SCN,2024-06-21_13h47.19.092,LearnStrategy,2023.2.3,Win32,59.88023952,4,2,11,,,,,,,,8,15,,,,,,,,,,,2,1.618,0,,,,,,-0.113888847,-0.271296325,1,0,0,1.6181,Basalt_rect,10,0,10,0,1,
6012e262527c380ccb2a6c74,SCN,2024-06-21_13h47.19.092,LearnStrategy,2023.2.3,Win32,59.88023952,4,2,12,,,,,,,,1,11,,,,,,,,,,,7,3.651,0,,,,,,0.161111125,-0.412962949,1,0,0,3.6507,Peridotite_rect,11,0,11,0,1,
6012e262527c380ccb2a6c74,SCN,2024-06-21_13h47.19.092,LearnStrategy,2023.2.3,Win32,59.88023952,4,2,13,,,,,,,,6,15,,,,,,,,,,,6,1.222,1,,,,,,-0.241666653,-0.408333319,1,0,0,1.2219,Pegmatite_rect,12,0,12,0,1,
6012e262527c380ccb2a6c74,SCN,2024-06-21_13h47.19.092,LearnStrategy,2023.2.3,Win32,59.88023952,4,2,14,,,,,,,,2,05,,,,,,,,,,,1,1.556,0,,,,,,-0.326851845,-0.270370413,1,0,0,1.5564,Andesite_rect,13,0,13,0,1,
6012e262527c380ccb2a6c74,SCN,2024-06-21_13h47.19.092,LearnStrategy,2023.2.3,Win32,59.88023952,4,2,15,,,,,,,,4,09,,,,,,,,,,,2,2.534,0,,,,,,-0.064814815,-0.238888917,1,0,0,2.5335,Basalt_rect,14,0,14,0,1,
6012e262527c380ccb2a6c74,SCN,2024-06-21_13h47.19.092,LearnStrategy,2023.2.3,Win32,59.88023952,4,2,16,,,,,,,,1,09,,,,,,,,,,,1,3.767,1,,,,,,-0.392592571,-0.264814801,1,0,0,3.7672,Andesite_rect,15,0,15,0,1,
6012e262527c380ccb2a6c74,SCN,2024-06-21_13h47.19.092,LearnStrategy,2023.2.3,Win32,59.88023952,5,1,1,0.520370342,-0.08425928,1,0,0,1.8195,Basalt_09,2,09,3,8,1.82,0.472222222,-0.237037023,1,0,0,2.1348,Gabbro_rect,4,2.135,0,0,0,0,0,1,,,,,,,,,,,,,
6012e262527c380ccb2a6c74,SCN,2024-06-21_13h47.19.092,LearnStrategy,2023.2.3,Win32,59.88023952,5,1,2,0.429629714,-0.075925933,1,0,0,0.7827,Gabbro_11,4,11,3,7,0.783,0.314814815,-0.385185171,1,0,0,3.5482,Pumice_rect,8,3.548,0,1,0,1,0,1,,,,,,,,,,,,,
6012e262527c380ccb2a6c74,SCN,2024-06-21_13h47.19.092,LearnStrategy,2023.2.3,Win32,59.88023952,5,1,3,0.251851894,-0.273148148,1,0,0,1.3735,Andesite_02,1,02,2,6,1.373,0.397222307,-0.39444443,1,0,0,1.8922,Pumice_rect,8,1.892,0,2,0,2,0,1,,,,,,,,,,,,,
6012e262527c380ccb2a6c74,SCN,2024-06-21_13h47.19.092,LearnStrategy,2023.2.3,Win32,59.88023952,5,1,4,0.207407422,-0.275000042,1,0,0,1.1897,Andesite_02,1,02,2,6,1.19,0.362037094,-0.400925954,1,0,0,2.1038,Pumice_rect,8,2.104,0,3,0,3,0,1,,,,,,,,,,,,,
6012e262527c380ccb2a6c74,SCN,2024-06-21_13h47.19.092,LearnStrategy,2023.2.3,Win32,59.88023952,5,1,5,-0.088888875,-0.104629658,1,0,0,0.6827,Obsidian_05,5,05,3,4,0.683,-0.087962963,-0.421296296,1,0,0,1.4429,Pegmatite_rect,6,1.443,0,4,0,4,0,1,,,,,,,,,,,,,
6012e262527c380ccb2a6c74,SCN,2024-06-21_13h47.19.092,LearnStrategy,2023.2.3,Win32,59.88023952,5,1,6,0.047222208,0.11296297,1,0,0,0.8688,Pegmatite_13,6,13,4,5,0.869,-0.218518504,-0.381481524,1,0,0,1.0714,Pegmatite_rect,6,1.071,1,5,0,5,0,1,,,,,,,,,,,,,
6012e262527c380ccb2a6c74,SCN,2024-06-21_13h47.19.092,LearnStrategy,2023.2.3,Win32,59.88023952,5,1,7,0.220370399,0.123148141,1,0,0,1.0856,Diorite_07,3,07,4,6,1.086,0.20185188,-0.256481524,1,0,0,0.9467,Diorite_rect,3,0.947,1,6,0,6,0,1,,,,,,,,,,,,,
6012e262527c380ccb2a6c74,SCN,2024-06-21_13h47.19.092,LearnStrategy,2023.2.3,Win32,59.88023952,5,1,8,-0.208333333,0.066666674,1,0,0,0.9528,Pegmatite_12,6,12,4,3,0.953,-0.02870369,-0.405555584,1,0,0,2.0644,Pegmatite_rect,6,2.064,1,7,0,7,0,1,,,,,,,,,,,,,
6012e262527c380ccb2a6c74,SCN,2024-06-21_13h47.19.092,LearnStrategy,2023.2.3,Win32,59.88023952,5,1,9,0.283333319,0.439814815,1,0,0,2.8656,Gabbro_12,4,12,6,6,2.866,-0.085185157,-0.253703718,1,0,0,1.301,Basalt_rect,2,1.301,0,8,0,8,0,1,,,,,,,,,,,,,
6012e262527c380ccb2a6c74,SCN,2024-06-21_13h47.19.092,LearnStrategy,2023.2.3,Win32,59.88023952,5,1,10,-0.368518511,0.2462963,1,0,0,1.4483,Andesite_10,1,10,5,2,1.448,0.424074102,-0.247222265,1,0,0,1.3441,Gabbro_rect,4,1.344,0,9,0,9,0,1,,,,,,,,,,,,,
6012e262527c380ccb2a6c74,SCN,2024-06-21_13h47.19.092,LearnStrategy,2023.2.3,Win32,59.88023952,5,1,11,0.228703746,0.404629628,1,0,0,2.6231,Gabbro_12,4,12,6,6,2.623,0.381481453,-0.255555541,1,0,0,1.1502,Gabbro_rect,4,1.15,1,10,0,10,0,1,,,,,,,,,,,,,
6012e262527c380ccb2a6c74,SCN,2024-06-21_13h47.19.092,LearnStrategy,2023.2.3,Win32,59.88023952,5,1,12,0.394444501,0.366666661,1,0,0,0.9828,Gabbro_16,4,16,6,7,0.983,-0.420370349,-0.262037065,1,0,0,1.6696,Andesite_rect,1,1.67,0,11,0,11,0,1,,,,,,,,,,,,,
6012e262527c380ccb2a6c74,SCN,2024-06-21_13h47.19.092,LearnStrategy,2023.2.3,Win32,59.88023952,5,1,13,0.582407492,0.2537037,1,0,0,1.3531,Peridotite_14,7,14,5,8,1.353,-0.131481453,-0.250925912,1,0,0,1.4603,Basalt_rect,2,1.46,0,12,0,12,0,1,,,,,,,,,,,,,
6012e262527c380ccb2a6c74,SCN,2024-06-21_13h47.19.092,LearnStrategy,2023.2.3,Win32,59.88023952,5,1,14,0.545370455,0.25833333,1,0,0,1.6194,Peridotite_14,7,14,5,8,1.619,0.191666709,-0.390740783,1,0,0,1.4705,Peridotite_rect,7,1.471,1,13,0,13,0,1,,,,,,,,,,,,,
6012e262527c380ccb2a6c74,SCN,2024-06-21_13h47.19.092,LearnStrategy,2023.2.3,Win32,59.88023952,5,1,15,0.05277782,0.087962963,1,0,0,1.1819,Pegmatite_13,6,13,4,5,1.182,-0.161111125,-0.387962977,1,0,0,1.2881,Pegmatite_rect,6,1.288,1,14,0,14,0,1,,,,,,,,,,,,,
6012e262527c380ccb2a6c74,SCN,2024-06-21_13h47.19.092,LearnStrategy,2023.2.3,Win32,59.88023952,5,1,16,-0.232407393,-0.091666681,1,0,0,1.0533,Pumice_02,8,02,3,3,1.053,0.327777863,-0.385185171,1,0,0,1.531,Pumice_rect,8,1.531,1,15,0,15,0,1,,,,,,,,,,,,,
6012e262527c380ccb2a6c74,SCN,2024-06-21_13h47.19.092,LearnStrategy,2023.2.3,Win32,59.88023952,5,2,1,,,,,,,,6,16,,,,,,,,,,,6,1.449,1,,,,,,-0.082407422,-0.407407407,1,0,0,1.4486,Pegmatite_rect,0,0,0,0,1,
6012e262527c380ccb2a6c74,SCN,2024-06-21_13h47.19.092,LearnStrategy,2023.2.3,Win32,59.88023952,5,2,2,,,,,,,,2,04,,,,,,,,,,,4,2.023,0,,,,,,0.35555564,-0.240740741,1,0,0,2.0229,Gabbro_rect,1,0,1,0,1,
6012e262527c380ccb2a6c74,SCN,2024-06-21_13h47.19.092,LearnStrategy,2023.2.3,Win32,59.88023952,5,2,3,,,,,,,,2,01,,,,,,,,,,,4,1.704,0,,,,,,0.402777778,-0.266666695,1,0,0,1.7036,Gabbro_rect,2,0,2,0,1,
6012e262527c380ccb2a6c74,SCN,2024-06-21_13h47.19.092,LearnStrategy,2023.2.3,Win32,59.88023952,5,2,4,,,,,,,,5,06,,,,,,,,,,,5,1.614,1,,,,,,-0.356481481,-0.402777778,1,0,0,1.6139,Obsidian_rect,3,0,3,0,1,
6012e262527c380ccb2a6c74,SCN,2024-06-21_13h47.19.092,LearnStrategy,2023.2.3,Win32,59.88023952,5,2,5,,,,,,,,5,11,,,,,,,,,,,5,1.009,1,,,,,,-0.345370363,-0.400925954,1,0,0,1.0094,Obsidian_rect,4,0,4,0,1,
6012e262527c380ccb2a6c74,SCN,2024-06-21_13h47.19.092,LearnStrategy,2023.2.3,Win32,59.88023952,5,2,6,,,,,,,,1,03,,,,,,,,,,,2,1.783,0,,,,,,-0.12962963,-0.234259288,1,0,0,1.7827,Basalt_rect,5,0,5,0,1,
6012e262527c380ccb2a6c74,SCN,2024-06-21_13h47.19.092,LearnStrategy,2023.2.3,Win32,59.88023952,5,2,7,,,,,,,,6,09,,,,,,,,,,,6,1.611,1,,,,,,-0.142592607,-0.409259302,1,0,0,1.6108,Pegmatite_rect,6,0,6,0,1,
6012e262527c380ccb2a6c74,SCN,2024-06-21_13h47.19.092,LearnStrategy,2023.2.3,Win32,59.88023952,5,2,8,,,,,,,,4,13,,,,,,,,,,,3,1.843,0,,,,,,0.064814815,-0.234259288,1,0,0,1.8426,Diorite_rect,7,0,7,0,1,
6012e262527c380ccb2a6c74,SCN,2024-06-21_13h47.19.092,LearnStrategy,2023.2.3,Win32,59.88023952,5,2,9,,,,,,,,8,13,,,,,,,,,,,4,4.038,0,,,,,,0.386111083,-0.232407393,1,0,0,4.0377,Gabbro_rect,8,0,8,0,1,
6012e262527c380ccb2a6c74,SCN,2024-06-21_13h47.19.092,LearnStrategy,2023.2.3,Win32,59.88023952,5,2,10,,,,,,,,3,13,,,,,,,,,,,3,1.25,1,,,,,,0.155555584,-0.255555541,1,0,0,1.2504,Diorite_rect,9,0,9,0,1,
6012e262527c380ccb2a6c74,SCN,2024-06-21_13h47.19.092,LearnStrategy,2023.2.3,Win32,59.88023952,5,2,11,,,,,,,,3,11,,,,,,,,,,,3,0.873,1,,,,,,0.15370369,-0.250925912,1,0,0,0.8735,Diorite_rect,10,0,10,0,1,
6012e262527c380ccb2a6c74,SCN,2024-06-21_13h47.19.092,LearnStrategy,2023.2.3,Win32,59.88023952,5,2,12,,,,,,,,4,03,,,,,,,,,,,4,2.642,1,,,,,,0.342592593,-0.242592635,1,0,0,2.6422,Gabbro_rect,11,0,11,0,1,
6012e262527c380ccb2a6c74,SCN,2024-06-21_13h47.19.092,LearnStrategy,2023.2.3,Win32,59.88023952,5,2,13,,,,,,,,7,02,,,,,,,,,,,3,0.845,0,,,,,,0.172222208,-0.258333347,1,0,0,0.8455,Diorite_rect,12,0,12,0,1,
6012e262527c380ccb2a6c74,SCN,2024-06-21_13h47.19.092,LearnStrategy,2023.2.3,Win32,59.88023952,5,2,14,,,,,,,,7,05,,,,,,,,,,,2,2.727,0,,,,,,-0.131481453,-0.271296325,1,0,0,2.727,Basalt_rect,13,0,13,0,1,
6012e262527c380ccb2a6c74,SCN,2024-06-21_13h47.19.092,LearnStrategy,2023.2.3,Win32,59.88023952,5,2,15,,,,,,,,8,14,,,,,,,,,,,8,1.275,1,,,,,,0.32222225,-0.412037037,1,0,0,1.275,Pumice_rect,14,0,14,0,1,
6012e262527c380ccb2a6c74,SCN,2024-06-21_13h47.19.092,LearnStrategy,2023.2.3,Win32,59.88023952,5,2,16,,,,,,,,1,07,,,,,,,,,,,3,1.238,0,,,,,,0.12962963,-0.251851894,1,0,0,1.2377,Diorite_rect,15,0,15,0,1,
6012e262527c380ccb2a6c74,SCN,2024-06-21_13h47.19.092,LearnStrategy,2023.2.3,Win32,59.88023952,6,1,1,0.564814815,-0.377777806,1,0,0,1.6391,Obsidian_10,5,10,1,8,1.639,-0.301851838,-0.381481524,1,0,0,1.9295,Obsidian_rect,5,1.93,1,0,0,0,0,1,,,,,,,,,,,,,
6012e262527c380ccb2a6c74,SCN,2024-06-21_13h47.19.092,LearnStrategy,2023.2.3,Win32,59.88023952,6,1,2,0.352777834,-0.266666695,1,0,0,1.702,Pumice_06,8,06,2,7,1.702,0.352777834,-0.39444443,1,0,0,0.9186,Pumice_rect,8,0.919,1,1,0,1,0,1,,,,,,,,,,,,,
6012e262527c380ccb2a6c74,SCN,2024-06-21_13h47.19.092,LearnStrategy,2023.2.3,Win32,59.88023952,6,1,3,0.063888903,-0.10092594,1,0,0,1.1826,Diorite_08,3,08,3,5,1.183,0.133333347,-0.261111153,1,0,0,1.4638,Diorite_rect,3,1.464,1,2,0,2,0,1,,,,,,,,,,,,,
6012e262527c380ccb2a6c74,SCN,2024-06-21_13h47.19.092,LearnStrategy,2023.2.3,Win32,59.88023952,6,1,4,0.222222222,0.133333312,1,0,0,1.0702,Diorite_07,3,07,4,6,1.07,0.140740783,-0.259259259,1,0,0,1.0803,Diorite_rect,3,1.08,1,3,0,3,0,1,,,,,,,,,,,,,
6012e262527c380ccb2a6c74,SCN,2024-06-21_13h47.19.092,LearnStrategy,2023.2.3,Win32,59.88023952,6,1,5,0.356481481,0.247222212,1,0,0,0.966,Gabbro_05,4,05,5,7,0.966,0.348148205,-0.263888889,1,0,0,1.4283,Gabbro_rect,4,1.428,1,4,0,4,0,1,,,,,,,,,,,,,
6012e262527c380ccb2a6c74,SCN,2024-06-21_13h47.19.092,LearnStrategy,2023.2.3,Win32,59.88023952,6,1,6,0.362037094,0.416666667,1,0,0,0.9821,Gabbro_16,4,16,6,7,0.982,0.358333305,-0.237037023,1,0,0,0.9424,Gabbro_rect,4,0.942,1,5,0,5,0,1,,,,,,,,,,,,,
6012e262527c380ccb2a6c74,SCN,2024-06-21_13h47.19.092,LearnStrategy,2023.2.3,Win32,59.88023952,6,1,7,0.214814857,0.412037037,1,0,0,1.0532,Gabbro_12,4,12,6,6,1.053,-0.349999993,-0.255555541,1,0,0,1.8454,Andesite_rect,1,1.845,0,6,0,6,0,1,,,,,,,,,,,,,
6012e262527c380ccb2a6c74,SCN,2024-06-21_13h47.19.092,LearnStrategy,2023.2.3,Win32,59.88023952,6,1,8,-0.079629616,0.453703704,1,0,0,1.0127,Pumice_03,8,03,6,4,1.013,0.410185213,-0.402777778,1,0,0,2.1163,Pumice_rect,8,2.116,1,7,0,7,0,1,,,,,,,,,,,,,
6012e262527c380ccb2a6c74,SCN,2024-06-21_13h47.19.092,LearnStrategy,2023.2.3,Win32,59.88023952,6,1,9,0.042592578,0.366666661,1,0,0,1.2157,Andesite_14,1,14,6,5,1.216,0.151851866,-0.400000042,1,0,0,1.5261,Peridotite_rect,7,1.526,0,8,0,8,0,1,,,,,,,,,,,,,
6012e262527c380ccb2a6c74,SCN,2024-06-21_13h47.19.092,LearnStrategy,2023.2.3,Win32,59.88023952,6,1,10,0.037037037,0.43611111,1,0,0,1.2825,Andesite_14,1,14,6,5,1.282,-0.430555556,-0.255555541,1,0,0,1.261,Andesite_rect,1,1.261,1,9,0,9,0,1,,,,,,,,,,,,,
6012e262527c380ccb2a6c74,SCN,2024-06-21_13h47.19.092,LearnStrategy,2023.2.3,Win32,59.88023952,6,1,11,0.068518533,0.26203703,1,0,0,0.9159,Diorite_02,3,02,5,5,0.916,0.087037051,-0.25462963,1,0,0,0.9196,Diorite_rect,3,0.92,1,10,0,10,0,1,,,,,,,,,,,,,
6012e262527c380ccb2a6c74,SCN,2024-06-21_13h47.19.092,LearnStrategy,2023.2.3,Win32,59.88023952,6,1,12,-0.393518519,-0.102777764,1,0,0,1.2889,Pumice_09,8,09,3,2,1.289,0.363888917,-0.40370369,1,0,0,1.1156,Pumice_rect,8,1.116,1,11,0,11,0,1,,,,,,,,,,,,,
6012e262527c380ccb2a6c74,SCN,2024-06-21_13h47.19.092,LearnStrategy,2023.2.3,Win32,59.88023952,6,1,13,-0.561111097,0.085185192,1,0,0,1.1325,Gabbro_08,4,08,4,1,1.133,0.465740769,-0.240740741,1,0,0,1.1781,Gabbro_rect,4,1.178,1,12,0,12,0,1,,,,,,,,,,,,,
6012e262527c380ccb2a6c74,SCN,2024-06-21_13h47.19.092,LearnStrategy,2023.2.3,Win32,59.88023952,6,1,14,0.443518603,-0.099074116,1,0,0,1.512,Gabbro_11,4,11,3,7,1.512,0.422222279,-0.228703746,1,0,0,0.6763,Gabbro_rect,4,0.676,1,13,0,13,0,1,,,,,,,,,,,,,
6012e262527c380ccb2a6c74,SCN,2024-06-21_13h47.19.092,LearnStrategy,2023.2.3,Win32,59.88023952,6,1,15,-0.39907406,0.419444446,1,0,0,1.3165,Pumice_08,8,08,6,2,1.317,0.375925982,-0.383333347,1,0,0,2.0192,Pumice_rect,8,2.019,1,14,0,14,0,1,,,,,,,,,,,,,
6012e262527c380ccb2a6c74,SCN,2024-06-21_13h47.19.092,LearnStrategy,2023.2.3,Win32,59.88023952,6,1,16,-0.101851852,0.276851848,1,0,0,1.2705,Obsidian_02,5,02,5,4,1.271,-0.324074074,-0.395370413,1,0,0,1.2326,Obsidian_rect,5,1.233,1,15,0,15,0,1,,,,,,,,,,,,,
6012e262527c380ccb2a6c74,SCN,2024-06-21_13h47.19.092,LearnStrategy,2023.2.3,Win32,59.88023952,6,2,1,,,,,,,,4,10,,,,,,,,,,,4,1.967,1,,,,,,0.424074102,-0.251851894,1,0,0,1.9671,Gabbro_rect,0,0,0,0,1,
6012e262527c380ccb2a6c74,SCN,2024-06-21_13h47.19.092,LearnStrategy,2023.2.3,Win32,59.88023952,6,2,2,,,,,,,,3,10,,,,,,,,,,,3,1.831,1,,,,,,0.121296282,-0.255555541,1,0,0,1.8314,Diorite_rect,1,0,1,0,1,
6012e262527c380ccb2a6c74,SCN,2024-06-21_13h47.19.092,LearnStrategy,2023.2.3,Win32,59.88023952,6,2,3,,,,,,,,7,13,,,,,,,,,,,6,4.902,0,,,,,,-0.074074074,-0.387962977,1,0,0,4.9022,Pegmatite_rect,2,0,2,0,1,
6012e262527c380ccb2a6c74,SCN,2024-06-21_13h47.19.092,LearnStrategy,2023.2.3,Win32,59.88023952,6,2,4,,,,,,,,5,08,,,,,,,,,,,5,1.963,1,,,,,,-0.348148134,-0.387037065,1,0,0,1.9631,Obsidian_rect,3,0,3,0,1,
6012e262527c380ccb2a6c74,SCN,2024-06-21_13h47.19.092,LearnStrategy,2023.2.3,Win32,59.88023952,6,2,5,,,,,,,,1,01,,,,,,,,,,,3,2.974,0,,,,,,0.111111111,-0.237037023,1,0,0,2.9736,Diorite_rect,4,0,4,0,1,
6012e262527c380ccb2a6c74,SCN,2024-06-21_13h47.19.092,LearnStrategy,2023.2.3,Win32,59.88023952,6,2,6,,,,,,,,6,06,,,,,,,,,,,6,1.83,1,,,,,,-0.089814787,-0.412037037,1,0,0,1.8299,Pegmatite_rect,5,0,5,0,1,
6012e262527c380ccb2a6c74,SCN,2024-06-21_13h47.19.092,LearnStrategy,2023.2.3,Win32,59.88023952,6,2,7,,,,,,,,3,15,,,,,,,,,,,3,3.352,1,,,,,,0.162037037,-0.261111153,1,0,0,3.3523,Diorite_rect,6,0,6,0,1,
6012e262527c380ccb2a6c74,SCN,2024-06-21_13h47.19.092,LearnStrategy,2023.2.3,Win32,59.88023952,6,2,8,,,,,,,,2,14,,,,,,,,,,,4,1.632,0,,,,,,0.36018527,-0.236111111,1,0,0,1.6316,Gabbro_rect,7,0,7,0,1,
6012e262527c380ccb2a6c74,SCN,2024-06-21_13h47.19.092,LearnStrategy,2023.2.3,Win32,59.88023952,6,2,9,,,,,,,,4,01,,,,,,,,,,,3,1.742,0,,,,,,0.171296296,-0.256481524,1,0,0,1.7418,Diorite_rect,8,0,8,0,1,
6012e262527c380ccb2a6c74,SCN,2024-06-21_13h47.19.092,LearnStrategy,2023.2.3,Win32,59.88023952,6,2,10,,,,,,,,5,14,,,,,,,,,,,5,1.287,1,,,,,,-0.356481481,-0.406481496,1,0,0,1.2873,Obsidian_rect,9,0,9,0,1,
6012e262527c380ccb2a6c74,SCN,2024-06-21_13h47.19.092,LearnStrategy,2023.2.3,Win32,59.88023952,6,2,11,,,,,,,,7,07,,,,,,,,,,,3,2.01,0,,,,,,0.109259288,-0.237963005,1,0,0,2.0099,Diorite_rect,10,0,10,0,1,
6012e262527c380ccb2a6c74,SCN,2024-06-21_13h47.19.092,LearnStrategy,2023.2.3,Win32,59.88023952,6,2,12,,,,,,,,6,03,,,,,,,,,,,6,1.191,1,,,,,,-0.157407407,-0.39907406,1,0,0,1.1907,Pegmatite_rect,11,0,11,0,1,
6012e262527c380ccb2a6c74,SCN,2024-06-21_13h47.19.092,LearnStrategy,2023.2.3,Win32,59.88023952,6,2,13,,,,,,,,1,05,,,,,,,,,,,3,2.011,0,,,,,,0.151851866,-0.248148176,1,0,0,2.0113,Diorite_rect,12,0,12,0,1,
6012e262527c380ccb2a6c74,SCN,2024-06-21_13h47.19.092,LearnStrategy,2023.2.3,Win32,59.88023952,6,2,14,,,,,,,,2,08,,,,,,,,,,,4,2.977,0,,,,,,0.383333418,-0.25462963,1,0,0,2.9769,Gabbro_rect,13,0,13,0,1,
6012e262527c380ccb2a6c74,SCN,2024-06-21_13h47.19.092,LearnStrategy,2023.2.3,Win32,59.88023952,6,2,15,,,,,,,,8,05,,,,,,,,,,,8,1.197,1,,,,,,0.346296381,-0.413888931,1,0,0,1.1969,Pumice_rect,14,0,14,0,1,
6012e262527c380ccb2a6c74,SCN,2024-06-21_13h47.19.092,LearnStrategy,2023.2.3,Win32,59.88023952,6,2,16,,,,,,,,8,04,,,,,,,,,,,8,0.928,1,,,,,,0.340740769,-0.390740783,1,0,0,0.9277,Pumice_rect,15,0,15,0,1,
6012e262527c380ccb2a6c74,SCN,2024-06-21_13h47.19.092,LearnStrategy,2023.2.3,Win32,59.88023952,7,1,1,-0.211111069,0.098148134,1,0,0,1.7891,Pegmatite_12,6,12,4,3,1.789,0.07222225,-0.237963005,1,0,0,1.171,Diorite_rect,3,1.171,0,0,0,0,0,1,,,,,,,,,,,,,
6012e262527c380ccb2a6c74,SCN,2024-06-21_13h47.19.092,LearnStrategy,2023.2.3,Win32,59.88023952,7,1,2,-0.187962921,0.103703711,1,0,0,1.4327,Pegmatite_12,6,12,4,3,1.433,-0.094444416,-0.407407407,1,0,0,2.0334,Pegmatite_rect,6,2.033,1,1,0,1,0,1,,,,,,,,,,,,,
6012e262527c380ccb2a6c74,SCN,2024-06-21_13h47.19.092,LearnStrategy,2023.2.3,Win32,59.88023952,7,1,3,-0.060185185,-0.074074074,1,0,0,1.2675,Obsidian_05,5,05,3,4,1.268,0.150925954,-0.241666653,1,0,0,1.0267,Diorite_rect,3,1.027,0,2,0,2,0,1,,,,,,,,,,,,,
6012e262527c380ccb2a6c74,SCN,2024-06-21_13h47.19.092,LearnStrategy,2023.2.3,Win32,59.88023952,7,1,4,0.237963005,0.096296275,1,0,0,1.3681,Diorite_07,3,07,4,6,1.368,0.165740755,-0.263888889,1,0,0,0.9867,Diorite_rect,3,0.987,1,3,0,3,0,1,,,,,,,,,,,,,
6012e262527c380ccb2a6c74,SCN,2024-06-21_13h47.19.092,LearnStrategy,2023.2.3,Win32,59.88023952,7,1,5,0.41851849,0.113888882,1,0,0,0.7995,Diorite_14,3,14,4,7,0.8,0.095370399,-0.265740783,1,0,0,0.7934,Diorite_rect,3,0.793,1,4,0,4,0,1,,,,,,,,,,,,,
6012e262527c380ccb2a6c74,SCN,2024-06-21_13h47.19.092,LearnStrategy,2023.2.3,Win32,59.88023952,7,1,6,0.228703746,0.301851855,1,0,0,1.0159,Pegmatite_07,6,07,5,6,1.016,-0.110185199,-0.412037037,1,0,0,1.5267,Pegmatite_rect,6,1.527,1,5,0,5,0,1,,,,,,,,,,,,,
6012e262527c380ccb2a6c74,SCN,2024-06-21_13h47.19.092,LearnStrategy,2023.2.3,Win32,59.88023952,7,1,7,0.410185213,0.360185182,1,0,0,1.1824,Gabbro_16,4,16,6,7,1.182,0.325000057,-0.251851894,1,0,0,1.3798,Gabbro_rect,4,1.38,1,6,0,6,0,1,,,,,,,,,,,,,
6012e262527c380ccb2a6c74,SCN,2024-06-21_13h47.19.092,LearnStrategy,2023.2.3,Win32,59.88023952,7,1,8,0.218518504,0.43611111,1,0,0,0.9823,Gabbro_12,4,12,6,6,0.982,0.314814815,-0.250925912,1,0,0,1.8314,Gabbro_rect,4,1.831,1,7,0,7,0,1,,,,,,,,,,,,,
6012e262527c380ccb2a6c74,SCN,2024-06-21_13h47.19.092,LearnStrategy,2023.2.3,Win32,59.88023952,7,1,9,0.587037122,-0.056481503,1,0,0,0.7847,Basalt_09,2,09,3,8,0.785,0.42777775,-0.270370413,1,0,0,1.2694,Gabbro_rect,4,1.269,0,8,0,8,0,1,,,,,,,,,,,,,
6012e262527c380ccb2a6c74,SCN,2024-06-21_13h47.19.092,LearnStrategy,2023.2.3,Win32,59.88023952,7,1,10,0.496296353,-0.133333347,1,0,0,0.966,Basalt_09,2,09,3,8,0.966,-0.070370356,-0.243518547,1,0,0,1.0438,Basalt_rect,2,1.044,1,9,0,9,0,1,,,,,,,,,,,,,
6012e262527c380ccb2a6c74,SCN,2024-06-21_13h47.19.092,LearnStrategy,2023.2.3,Win32,59.88023952,7,1,11,0.411111196,-0.106481481,1,0,0,0.6999,Gabbro_11,4,11,3,7,0.7,-0.145370342,-0.267592607,1,0,0,1.0259,Basalt_rect,2,1.026,0,10,0,10,0,1,,,,,,,,,,,,,
6012e262527c380ccb2a6c74,SCN,2024-06-21_13h47.19.092,LearnStrategy,2023.2.3,Win32,59.88023952,7,1,12,0.579629686,-0.244444459,1,0,0,1.0334,Pumice_16,8,16,2,8,1.033,0.434259344,-0.40370369,1,0,0,1.3117,Pumice_rect,8,1.312,1,11,0,11,0,1,,,,,,,,,,,,,
6012e262527c380ccb2a6c74,SCN,2024-06-21_13h47.19.092,LearnStrategy,2023.2.3,Win32,59.88023952,7,1,13,-0.546296296,0.2462963,1,0,0,1.4695,Pegmatite_11,6,11,5,1,1.47,-0.200925898,-0.388888889,1,0,0,1.0517,Pegmatite_rect,6,1.052,1,12,0,12,0,1,,,,,,,,,,,,,
6012e262527c380ccb2a6c74,SCN,2024-06-21_13h47.19.092,LearnStrategy,2023.2.3,Win32,59.88023952,7,1,14,-0.580555563,0.397222219,1,0,0,2.3995,Peridotite_04,7,04,6,1,2.399,0.074074074,-0.237963005,1,0,0,1.15,Diorite_rect,3,1.15,0,13,0,13,0,1,,,,,,,,,,,,,
6012e262527c380ccb2a6c74,SCN,2024-06-21_13h47.19.092,LearnStrategy,2023.2.3,Win32,59.88023952,7,1,15,0.366666723,0.24166667,1,0,0,1.4024,Gabbro_05,4,05,5,7,1.402,0.209259245,-0.24537037,1,0,0,1.1025,Diorite_rect,3,1.102,0,14,0,14,0,1,,,,,,,,,,,,,
6012e262527c380ccb2a6c74,SCN,2024-06-21_13h47.19.092,LearnStrategy,2023.2.3,Win32,59.88023952,7,1,16,0.442592621,0.227777781,1,0,0,1.1813,Gabbro_05,4,05,5,7,1.181,0.33148151,-0.239814829,1,0,0,1.1837,Gabbro_rect,4,1.184,1,15,0,15,0,1,,,,,,,,,,,,,
6012e262527c380ccb2a6c74,SCN,2024-06-21_13h47.19.092,LearnStrategy,2023.2.3,Win32,59.88023952,7,2,1,,,,,,,,5,14,,,,,,,,,,,5,1.534,1,,,,,,-0.327777757,-0.393518519,1,0,0,1.5339,Obsidian_rect,0,0,0,0,1,
6012e262527c380ccb2a6c74,SCN,2024-06-21_13h47.19.092,LearnStrategy,2023.2.3,Win32,59.88023952,7,2,2,,,,,,,,1,01,,,,,,,,,,,3,2.341,0,,,,,,0.097222222,-0.237037023,1,0,0,2.3415,Diorite_rect,1,0,1,0,1,
6012e262527c380ccb2a6c74,SCN,2024-06-21_13h47.19.092,LearnStrategy,2023.2.3,Win32,59.88023952,7,2,3,,,,,,,,4,03,,,,,,,,,,,4,2.196,1,,,,,,0.345370399,-0.233333376,1,0,0,2.1963,Gabbro_rect,2,0,2,0,1,
6012e262527c380ccb2a6c74,SCN,2024-06-21_13h47.19.092,LearnStrategy,2023.2.3,Win32,59.88023952,7,2,4,,,,,,,,3,06,,,,,,,,,,,3,1.886,1,,,,,,0.168518561,-0.251851894,1,0,0,1.8859,Diorite_rect,3,0,3,0,1,
6012e262527c380ccb2a6c74,SCN,2024-06-21_13h47.19.092,LearnStrategy,2023.2.3,Win32,59.88023952,7,2,5,,,,,,,,7,12,,,,,,,,,,,3,3.161,0,,,,,,0.137037065,-0.256481524,1,0,0,3.1611,Diorite_rect,4,0,4,0,1,
6012e262527c380ccb2a6c74,SCN,2024-06-21_13h47.19.092,LearnStrategy,2023.2.3,Win32,59.88023952,7,2,6,,,,,,,,2,04,,,,,,,,,,,2,3.476,1,,,,,,-0.180555556,-0.247222265,1,0,0,3.4761,Basalt_rect,5,0,5,0,1,
6012e262527c380ccb2a6c74,SCN,2024-06-21_13h47.19.092,LearnStrategy,2023.2.3,Win32,59.88023952,7,2,7,,,,,,,,1,03,,,,,,,,,,,4,2.2,0,,,,,,0.348148205,-0.257407436,1,0,0,2.2003,Gabbro_rect,6,0,6,0,1,
6012e262527c380ccb2a6c74,SCN,2024-06-21_13h47.19.092,LearnStrategy,2023.2.3,Win32,59.88023952,7,2,8,,,,,,,,3,11,,,,,,,,,,,3,1.1,1,,,,,,0.100000028,-0.25,1,0,0,1.1002,Diorite_rect,7,0,7,0,1,
6012e262527c380ccb2a6c74,SCN,2024-06-21_13h47.19.092,LearnStrategy,2023.2.3,Win32,59.88023952,7,2,9,,,,,,,,5,08,,,,,,,,,,,5,1.21,1,,,,,,-0.457407386,-0.40370369,1,0,0,1.2095,Obsidian_rect,8,0,8,0,1,
6012e262527c380ccb2a6c74,SCN,2024-06-21_13h47.19.092,LearnStrategy,2023.2.3,Win32,59.88023952,7,2,10,,,,,,,,6,16,,,,,,,,,,,6,1.212,1,,,,,,-0.117592564,-0.402777778,1,0,0,1.2125,Pegmatite_rect,9,0,9,0,1,
6012e262527c380ccb2a6c74,SCN,2024-06-21_13h47.19.092,LearnStrategy,2023.2.3,Win32,59.88023952,7,2,11,,,,,,,,6,15,,,,,,,,,,,6,1.019,1,,,,,,-0.093518504,-0.389814801,1,0,0,1.0194,Pegmatite_rect,10,0,10,0,1,
6012e262527c380ccb2a6c74,SCN,2024-06-21_13h47.19.092,LearnStrategy,2023.2.3,Win32,59.88023952,7,2,12,,,,,,,,8,14,,,,,,,,,,,8,1.373,1,,,,,,0.492592564,-0.387037065,1,0,0,1.3726,Pumice_rect,11,0,11,0,1,
6012e262527c380ccb2a6c74,SCN,2024-06-21_13h47.19.092,LearnStrategy,2023.2.3,Win32,59.88023952,7,2,13,,,,,,,,2,02,,,,,,,,,,,4,2.525,0,,,,,,0.336111139,-0.238888917,1,0,0,2.5251,Gabbro_rect,12,0,12,0,1,
6012e262527c380ccb2a6c74,SCN,2024-06-21_13h47.19.092,LearnStrategy,2023.2.3,Win32,59.88023952,7,2,14,,,,,,,,7,05,,,,,,,,,,,3,1.238,0,,,,,,0.139814801,-0.249074088,1,0,0,1.2378,Diorite_rect,13,0,13,0,1,
6012e262527c380ccb2a6c74,SCN,2024-06-21_13h47.19.092,LearnStrategy,2023.2.3,Win32,59.88023952,7,2,15,,,,,,,,8,10,,,,,,,,,,,8,1.23,1,,,,,,0.382407436,-0.391666695,1,0,0,1.2303,Pumice_rect,14,0,14,0,1,
6012e262527c380ccb2a6c74,SCN,2024-06-21_13h47.19.092,LearnStrategy,2023.2.3,Win32,59.88023952,7,2,16,,,,,,,,4,01,,,,,,,,,,,3,1.518,0,,,,,,0.132407436,-0.23055557,1,0,0,1.5176,Diorite_rect,15,0,15,0,1,
6012e262527c380ccb2a6c74,SCN,2024-06-21_13h47.19.092,LearnStrategy,2023.2.3,Win32,59.88023952,8,1,1,-0.080555527,0.136111118,1,0,0,1.1524,Basalt_16,2,16,4,4,1.152,0.334259316,-0.23055557,1,0,0,2.0687,Gabbro_rect,4,2.069,0,0,0,0,0,1,,,,,,,,,,,,,
6012e262527c380ccb2a6c74,SCN,2024-06-21_13h47.19.092,LearnStrategy,2023.2.3,Win32,59.88023952,8,1,2,0.224074116,0.382407409,1,0,0,1.0648,Gabbro_12,4,12,6,6,1.065,0.371296353,-0.23055557,1,0,0,1.1094,Gabbro_rect,4,1.109,1,1,0,1,0,1,,,,,,,,,,,,,
6012e262527c380ccb2a6c74,SCN,2024-06-21_13h47.19.092,LearnStrategy,2023.2.3,Win32,59.88023952,8,1,3,0.042592578,0.408333328,1,0,0,1.8186,Andesite_14,1,14,6,5,1.819,0.038888931,-0.396296325,1,0,0,1.9133,Peridotite_rect,7,1.913,0,2,0,2,0,1,,,,,,,,,,,,,
6012e262527c380ccb2a6c74,SCN,2024-06-21_13h47.19.092,LearnStrategy,2023.2.3,Win32,59.88023952,8,1,4,-0.261111083,0.387037039,1,0,0,1.5856,Peridotite_15,7,15,6,3,1.586,0.087962963,-0.241666653,1,0,0,1.1528,Diorite_rect,3,1.153,0,3,0,3,0,1,,,,,,,,,,,,,
6012e262527c380ccb2a6c74,SCN,2024-06-21_13h47.19.092,LearnStrategy,2023.2.3,Win32,59.88023952,8,1,5,-0.062962921,-0.101851852,1,0,0,1.0163,Obsidian_05,5,05,3,4,1.016,-0.377777771,-0.410185213,1,0,0,1.0597,Obsidian_rect,5,1.06,1,4,0,4,0,1,,,,,,,,,,,,,
6012e262527c380ccb2a6c74,SCN,2024-06-21_13h47.19.092,LearnStrategy,2023.2.3,Win32,59.88023952,8,1,6,0.542592649,0.084259245,1,0,0,1.1284,Basalt_10,2,10,4,8,1.128,0.412037037,-0.259259259,1,0,0,0.9579,Gabbro_rect,4,0.958,0,5,0,5,0,1,,,,,,,,,,,,,
6012e262527c380ccb2a6c74,SCN,2024-06-21_13h47.19.092,LearnStrategy,2023.2.3,Win32,59.88023952,8,1,7,0.550925926,0.224999993,1,0,0,1.116,Peridotite_14,7,14,5,8,1.116,0.337962963,-0.242592635,1,0,0,1.1689,Gabbro_rect,4,1.169,0,6,0,6,0,1,,,,,,,,,,,,,
6012e262527c380ccb2a6c74,SCN,2024-06-21_13h47.19.092,LearnStrategy,2023.2.3,Win32,59.88023952,8,1,8,0.41851849,0.249074071,1,0,0,1.0028,Gabbro_05,4,05,5,7,1.003,0.111111111,-0.237037023,1,0,0,0.8613,Diorite_rect,3,0.861,0,7,0,7,0,1,,,,,,,,,,,,,
6012e262527c380ccb2a6c74,SCN,2024-06-21_13h47.19.092,LearnStrategy,2023.2.3,Win32,59.88023952,8,1,9,0.262962977,0.236111111,1,0,0,1.0231,Pegmatite_07,6,07,5,6,1.023,-0.125925912,-0.402777778,1,0,0,0.9199,Pegmatite_rect,6,0.92,1,8,0,8,0,1,,,,,,,,,,,,,
6012e262527c380ccb2a6c74,SCN,2024-06-21_13h47.19.092,LearnStrategy,2023.2.3,Win32,59.88023952,8,1,10,0.051851838,0.264814818,1,0,0,0.8826,Diorite_02,3,02,5,5,0.883,0.334259316,-0.262962977,1,0,0,1.2603,Gabbro_rect,4,1.26,0,9,0,9,0,1,,,,,,,,,,,,,
6012e262527c380ccb2a6c74,SCN,2024-06-21_13h47.19.092,LearnStrategy,2023.2.3,Win32,59.88023952,8,1,11,-0.23055557,0.248148141,1,0,0,1.1364,Peridotite_16,7,16,5,3,1.136,0.098148134,-0.235185199,1,0,0,1.0019,Diorite_rect,3,1.002,0,10,0,10,0,1,,,,,,,,,,,,,
6012e262527c380ccb2a6c74,SCN,2024-06-21_13h47.19.092,LearnStrategy,2023.2.3,Win32,59.88023952,8,1,12,-0.383333312,0.231481481,1,0,0,1.3694,Andesite_10,1,10,5,2,1.369,0.334259316,-0.417592578,1,0,0,1.6196,Pumice_rect,8,1.62,0,11,0,11,0,1,,,,,,,,,,,,,
6012e262527c380ccb2a6c74,SCN,2024-06-21_13h47.19.092,LearnStrategy,2023.2.3,Win32,59.88023952,8,1,13,-0.337962963,0.273148148,1,0,0,1.1525,Andesite_10,1,10,5,2,1.153,0.359259288,-0.412962949,1,0,0,4.2052,Pumice_rect,8,4.205,0,12,0,12,0,1,,,,,,,,,,,,,
6012e262527c380ccb2a6c74,SCN,2024-06-21_13h47.19.092,LearnStrategy,2023.2.3,Win32,59.88023952,8,1,14,-0.401851831,0.113888882,1,0,0,1.7662,Basalt_12,2,12,4,2,1.766,0.352777834,-0.410185213,1,0,0,1.2263,Pumice_rect,8,1.226,0,13,0,13,0,1,,,,,,,,,,,,,
6012e262527c380ccb2a6c74,SCN,2024-06-21_13h47.19.092,LearnStrategy,2023.2.3,Win32,59.88023952,8,1,15,-0.570370356,0.133333312,1,0,0,0.9686,Gabbro_08,4,08,4,1,0.969,0.122222265,-0.249074088,1,0,0,2.037,Diorite_rect,3,2.037,0,14,0,14,0,1,,,,,,,,,,,,,
6012e262527c380ccb2a6c74,SCN,2024-06-21_13h47.19.092,LearnStrategy,2023.2.3,Win32,59.88023952,8,1,16,0.097222222,-0.094444487,1,0,0,1.4821,Diorite_08,3,08,3,5,1.482,0.181481467,-0.244444459,1,0,0,1.7598,Diorite_rect,3,1.76,1,15,0,15,0,1,,,,,,,,,,,,,
6012e262527c380ccb2a6c74,SCN,2024-06-21_13h47.19.092,LearnStrategy,2023.2.3,Win32,59.88023952,8,2,1,,,,,,,,4,13,,,,,,,,,,,3,1.46,0,,,,,,0.145370413,-0.239814829,1,0,0,1.4602,Diorite_rect,0,0,0,0,1,
6012e262527c380ccb2a6c74,SCN,2024-06-21_13h47.19.092,LearnStrategy,2023.2.3,Win32,59.88023952,8,2,2,,,,,,,,1,11,,,,,,,,,,,1,2.177,1,,,,,,-0.362037023,-0.229629658,1,0,0,2.1772,Andesite_rect,1,0,1,0,1,
6012e262527c380ccb2a6c74,SCN,2024-06-21_13h47.19.092,LearnStrategy,2023.2.3,Win32,59.88023952,8,2,3,,,,,,,,7,13,,,,,,,,,,,6,1.611,0,,,,,,-0.136111083,-0.391666695,1,0,0,1.6113,Pegmatite_rect,2,0,2,0,1,
6012e262527c380ccb2a6c74,SCN,2024-06-21_13h47.19.092,LearnStrategy,2023.2.3,Win32,59.88023952,8,2,4,,,,,,,,8,04,,,,,,,,,,,8,1.853,1,,,,,,0.373148176,-0.411111125,1,0,0,1.8535,Pumice_rect,3,0,3,0,1,
6012e262527c380ccb2a6c74,SCN,2024-06-21_13h47.19.092,LearnStrategy,2023.2.3,Win32,59.88023952,8,2,5,,,,,,,,4,09,,,,,,,,,,,7,2.344,0,,,,,,0.065740727,-0.384259259,1,0,0,2.3442,Peridotite_rect,4,0,4,0,1,
6012e262527c380ccb2a6c74,SCN,2024-06-21_13h47.19.092,LearnStrategy,2023.2.3,Win32,59.88023952,8,2,6,,,,,,,,2,08,,,,,,,,,,,4,1.693,0,,,,,,0.385185242,-0.249074088,1,0,0,1.6927,Gabbro_rect,5,0,5,0,1,
6012e262527c380ccb2a6c74,SCN,2024-06-21_13h47.19.092,LearnStrategy,2023.2.3,Win32,59.88023952,8,2,7,,,,,,,,3,16,,,,,,,,,,,3,1.241,1,,,,,,0.184259273,-0.237963005,1,0,0,1.2413,Diorite_rect,6,0,6,0,1,
6012e262527c380ccb2a6c74,SCN,2024-06-21_13h47.19.092,LearnStrategy,2023.2.3,Win32,59.88023952,8,2,8,,,,,,,,8,05,,,,,,,,,,,8,1.229,1,,,,,,0.36018527,-0.400000042,1,0,0,1.2289,Pumice_rect,7,0,7,0,1,
6012e262527c380ccb2a6c74,SCN,2024-06-21_13h47.19.092,LearnStrategy,2023.2.3,Win32,59.88023952,8,2,9,,,,,,,,1,07,,,,,,,,,,,3,1.766,0,,,,,,0.163888931,-0.25462963,1,0,0,1.7662,Diorite_rect,8,0,8,0,1,
6012e262527c380ccb2a6c74,SCN,2024-06-21_13h47.19.092,LearnStrategy,2023.2.3,Win32,59.88023952,8,2,10,,,,,,,,5,07,,,,,,,,,,,5,1.172,1,,,,,,-0.478703711,-0.386111153,1,0,0,1.1718,Obsidian_rect,9,0,9,0,1,
6012e262527c380ccb2a6c74,SCN,2024-06-21_13h47.19.092,LearnStrategy,2023.2.3,Win32,59.88023952,8,2,11,,,,,,,,5,04,,,,,,,,,,,5,1.026,1,,,,,,-0.35833334,-0.409259302,1,0,0,1.0263,Obsidian_rect,10,0,10,0,1,
6012e262527c380ccb2a6c74,SCN,2024-06-21_13h47.19.092,LearnStrategy,2023.2.3,Win32,59.88023952,8,2,12,,,,,,,,6,06,,,,,,,,,,,6,1.541,1,,,,,,-0.099074046,-0.405555584,1,0,0,1.5409,Pegmatite_rect,11,0,11,0,1,
6012e262527c380ccb2a6c74,SCN,2024-06-21_13h47.19.092,LearnStrategy,2023.2.3,Win32,59.88023952,8,2,13,,,,,,,,6,08,,,,,,,,,,,6,1.252,1,,,,,,-0.127777735,-0.402777778,1,0,0,1.2525,Pegmatite_rect,12,0,12,0,1,
6012e262527c380ccb2a6c74,SCN,2024-06-21_13h47.19.092,LearnStrategy,2023.2.3,Win32,59.88023952,8,2,14,,,,,,,,3,10,,,,,,,,,,,3,1.627,1,,,,,,0.07685188,-0.262962977,1,0,0,1.6272,Diorite_rect,13,0,13,0,1,
6012e262527c380ccb2a6c74,SCN,2024-06-21_13h47.19.092,LearnStrategy,2023.2.3,Win32,59.88023952,8,2,15,,,,,,,,7,07,,,,,,,,,,,3,2.294,0,,,,,,0.143518519,-0.258333347,1,0,0,2.2943,Diorite_rect,14,0,14,0,1,
6012e262527c380ccb2a6c74,SCN,2024-06-21_13h47.19.092,LearnStrategy,2023.2.3,Win32,59.88023952,8,2,16,,,,,,,,2,05,,,,,,,,,,,4,1.215,0,,,,,,0.324074074,-0.253703718,1,0,0,1.215,Gabbro_rect,15,0,15,0,1,
6012e262527c380ccb2a6c74,SCN,2024-06-21_13h47.19.092,LearnStrategy,2023.2.3,Win32,59.88023952,9,1,1,-0.212962963,0.096296275,1,0,0,1.3323,Pegmatite_12,6,12,4,3,1.332,-0.193518533,-0.397222236,1,0,0,1.2594,Pegmatite_rect,6,1.259,1,0,0,0,0,1,,,,,,,,,,,,,
6012e262527c380ccb2a6c74,SCN,2024-06-21_13h47.19.092,LearnStrategy,2023.2.3,Win32,59.88023952,9,1,2,-0.575925933,0.077777757,1,0,0,0.871,Gabbro_08,4,08,4,1,0.871,0.070370356,-0.232407393,1,0,0,1.1053,Diorite_rect,3,1.105,0,1,0,1,0,1,,,,,,,,,,,,,
6012e262527c380ccb2a6c74,SCN,2024-06-21_13h47.19.092,LearnStrategy,2023.2.3,Win32,59.88023952,9,1,3,0.226851852,0.087962963,1,0,0,1.8155,Diorite_07,3,07,4,6,1.815,0.145370413,-0.267592607,1,0,0,0.8584,Diorite_rect,3,0.858,1,2,0,2,0,1,,,,,,,,,,,,,
6012e262527c380ccb2a6c74,SCN,2024-06-21_13h47.19.092,LearnStrategy,2023.2.3,Win32,59.88023952,9,1,4,0.079629616,0.111111111,1,0,0,0.7033,Pegmatite_13,6,13,4,5,0.703,0.104629658,-0.243518547,1,0,0,0.6866,Diorite_rect,3,0.687,0,3,0,3,0,1,,,,,,,,,,,,,
6012e262527c380ccb2a6c74,SCN,2024-06-21_13h47.19.092,LearnStrategy,2023.2.3,Win32,59.88023952,9,1,5,0.209259245,0.212037034,1,0,0,0.8325,Pegmatite_07,6,07,5,6,0.832,-0.093518504,-0.407407407,1,0,0,1.443,Pegmatite_rect,6,1.443,1,4,0,4,0,1,,,,,,,,,,,,,
6012e262527c380ccb2a6c74,SCN,2024-06-21_13h47.19.092,LearnStrategy,2023.2.3,Win32,59.88023952,9,1,6,0.399999972,0.419444446,1,0,0,1.0163,Gabbro_16,4,16,6,7,1.016,0.361111111,-0.242592635,1,0,0,1.0935,Gabbro_rect,4,1.093,1,5,0,5,0,1,,,,,,,,,,,,,
6012e262527c380ccb2a6c74,SCN,2024-06-21_13h47.19.092,LearnStrategy,2023.2.3,Win32,59.88023952,9,1,7,0.271296325,0.388888889,1,0,0,1.8071,Gabbro_12,4,12,6,6,1.807,0.317592621,-0.248148176,1,0,0,1.1499,Gabbro_rect,4,1.15,1,6,0,6,0,1,,,,,,,,,,,,,
6012e262527c380ccb2a6c74,SCN,2024-06-21_13h47.19.092,LearnStrategy,2023.2.3,Win32,59.88023952,9,1,8,-0.099074046,0.43425926,1,0,0,0.8355,Pumice_03,8,03,6,4,0.835,0.402777778,-0.416666667,1,0,0,1.2526,Pumice_rect,8,1.253,1,7,0,7,0,1,,,,,,,,,,,,,
6012e262527c380ccb2a6c74,SCN,2024-06-21_13h47.19.092,LearnStrategy,2023.2.3,Win32,59.88023952,9,1,9,0.075925968,0.091666645,1,0,0,0.6323,Pegmatite_13,6,13,4,5,0.632,-0.093518504,-0.389814801,1,0,0,1.3928,Pegmatite_rect,6,1.393,1,8,0,8,0,1,,,,,,,,,,,,,
6012e262527c380ccb2a6c74,SCN,2024-06-21_13h47.19.092,LearnStrategy,2023.2.3,Win32,59.88023952,9,1,10,0.25,0.074074074,1,0,0,0.8996,Diorite_07,3,07,4,6,0.9,0.156481496,-0.244444459,1,0,0,0.9777,Diorite_rect,3,0.978,1,9,0,9,0,1,,,,,,,,,,,,,
6012e262527c380ccb2a6c74,SCN,2024-06-21_13h47.19.092,LearnStrategy,2023.2.3,Win32,59.88023952,9,1,11,-0.23055557,-0.115740741,1,0,0,0.7667,Pumice_02,8,02,3,3,0.767,0.32685188,-0.380555541,1,0,0,1.0023,Pumice_rect,8,1.002,1,10,0,10,0,1,,,,,,,,,,,,,
6012e262527c380ccb2a6c74,SCN,2024-06-21_13h47.19.092,LearnStrategy,2023.2.3,Win32,59.88023952,9,1,12,-0.045370384,-0.094444487,1,0,0,1.5322,Obsidian_05,5,05,3,4,1.532,-0.338888875,-0.409259302,1,0,0,1.5322,Obsidian_rect,5,1.532,1,11,0,11,0,1,,,,,,,,,,,,,
6012e262527c380ccb2a6c74,SCN,2024-06-21_13h47.19.092,LearnStrategy,2023.2.3,Win32,59.88023952,9,1,13,-0.5,-0.070370392,1,0,0,1.0347,Andesite_06,1,06,3,1,1.035,0.162037037,-0.248148176,1,0,0,1.2131,Diorite_rect,3,1.213,0,12,0,12,0,1,,,,,,,,,,,,,
6012e262527c380ccb2a6c74,SCN,2024-06-21_13h47.19.092,LearnStrategy,2023.2.3,Win32,59.88023952,9,1,14,0.410185213,-0.063888903,1,0,0,1.1593,Gabbro_11,4,11,3,7,1.159,0.318518603,-0.236111111,1,0,0,0.7354,Gabbro_rect,4,0.735,1,13,0,13,0,1,,,,,,,,,,,,,
6012e262527c380ccb2a6c74,SCN,2024-06-21_13h47.19.092,LearnStrategy,2023.2.3,Win32,59.88023952,9,1,15,0.530555584,0.213888892,1,0,0,1.319,Peridotite_14,7,14,5,8,1.319,0.375925982,-0.255555541,1,0,0,1.2702,Gabbro_rect,4,1.27,0,14,0,14,0,1,,,,,,,,,,,,,
6012e262527c380ccb2a6c74,SCN,2024-06-21_13h47.19.092,LearnStrategy,2023.2.3,Win32,59.88023952,9,1,16,0.600000028,0.211111104,1,0,0,2.1998,Peridotite_14,7,14,5,8,2.2,0.152777778,-0.401851866,1,0,0,1.1137,Peridotite_rect,7,1.114,1,15,0,15,0,1,,,,,,,,,,,,,
6012e262527c380ccb2a6c74,SCN,2024-06-21_13h47.19.092,LearnStrategy,2023.2.3,Win32,59.88023952,9,2,1,,,,,,,,1,09,,,,,,,,,,,7,1.786,0,,,,,,0.164814843,-0.40370369,1,0,0,1.7858,Peridotite_rect,0,0,0,0,1,
6012e262527c380ccb2a6c74,SCN,2024-06-21_13h47.19.092,LearnStrategy,2023.2.3,Win32,59.88023952,9,2,2,,,,,,,,6,09,,,,,,,,,,,6,1.238,1,,,,,,-0.056481467,-0.406481496,1,0,0,1.2382,Pegmatite_rect,1,0,1,0,1,
6012e262527c380ccb2a6c74,SCN,2024-06-21_13h47.19.092,LearnStrategy,2023.2.3,Win32,59.88023952,9,2,3,,,,,,,,2,01,,,,,,,,,,,4,1.277,0,,,,,,0.365740741,-0.250925912,1,0,0,1.2767,Gabbro_rect,2,0,2,0,1,
6012e262527c380ccb2a6c74,SCN,2024-06-21_13h47.19.092,LearnStrategy,2023.2.3,Win32,59.88023952,9,2,4,,,,,,,,4,14,,,,,,,,,,,3,2.119,0,,,,,,0.162962949,-0.246296282,1,0,0,2.1187,Diorite_rect,3,0,3,0,1,
6012e262527c380ccb2a6c74,SCN,2024-06-21_13h47.19.092,LearnStrategy,2023.2.3,Win32,59.88023952,9,2,5,,,,,,,,3,15,,,,,,,,,,,3,0.764,1,,,,,,0.162962949,-0.234259288,1,0,0,0.7645,Diorite_rect,4,0,4,0,1,
6012e262527c380ccb2a6c74,SCN,2024-06-21_13h47.19.092,LearnStrategy,2023.2.3,Win32,59.88023952,9,2,6,,,,,,,,3,13,,,,,,,,,,,3,1.486,1,,,,,,0.162962949,-0.234259288,1,0,0,1.4859,Diorite_rect,5,0,5,0,1,
6012e262527c380ccb2a6c74,SCN,2024-06-21_13h47.19.092,LearnStrategy,2023.2.3,Win32,59.88023952,9,2,7,,,,,,,,7,06,,,,,,,,,,,6,1.442,0,,,,,,-0.061111097,-0.381481524,1,0,0,1.4424,Pegmatite_rect,6,0,6,0,1,
6012e262527c380ccb2a6c74,SCN,2024-06-21_13h47.19.092,LearnStrategy,2023.2.3,Win32,59.88023952,9,2,8,,,,,,,,7,02,,,,,,,,,,,7,1.835,1,,,,,,0.146296325,-0.385185171,1,0,0,1.8355,Peridotite_rect,7,0,7,0,1,
6012e262527c380ccb2a6c74,SCN,2024-06-21_13h47.19.092,LearnStrategy,2023.2.3,Win32,59.88023952,9,2,9,,,,,,,,5,11,,,,,,,,,,,5,1.181,1,,,,,,-0.407407407,-0.393518519,1,0,0,1.1808,Obsidian_rect,8,0,8,0,1,
6012e262527c380ccb2a6c74,SCN,2024-06-21_13h47.19.092,LearnStrategy,2023.2.3,Win32,59.88023952,9,2,10,,,,,,,,8,15,,,,,,,,,,,8,1.894,1,,,,,,0.440740797,-0.415740755,1,0,0,1.8943,Pumice_rect,9,0,9,0,1,
6012e262527c380ccb2a6c74,SCN,2024-06-21_13h47.19.092,LearnStrategy,2023.2.3,Win32,59.88023952,9,2,11,,,,,,,,6,03,,,,,,,,,,,6,1.31,1,,,,,,-0.116666653,-0.409259302,1,0,0,1.31,Pegmatite_rect,10,0,10,0,1,
6012e262527c380ccb2a6c74,SCN,2024-06-21_13h47.19.092,LearnStrategy,2023.2.3,Win32,59.88023952,9,2,12,,,,,,,,5,06,,,,,,,,,,,5,0.978,1,,,,,,-0.355555534,-0.387962977,1,0,0,0.9783,Obsidian_rect,11,0,11,0,1,
6012e262527c380ccb2a6c74,SCN,2024-06-21_13h47.19.092,LearnStrategy,2023.2.3,Win32,59.88023952,9,2,13,,,,,,,,8,13,,,,,,,,,,,7,2.41,0,,,,,,0.162962949,-0.40370369,1,0,0,2.4098,Peridotite_rect,12,0,12,0,1,
6012e262527c380ccb2a6c74,SCN,2024-06-21_13h47.19.092,LearnStrategy,2023.2.3,Win32,59.88023952,9,2,14,,,,,,,,2,14,,,,,,,,,,,1,2.269,0,,,,,,-0.315740727,-0.247222265,1,0,0,2.269,Andesite_rect,13,0,13,0,1,
6012e262527c380ccb2a6c74,SCN,2024-06-21_13h47.19.092,LearnStrategy,2023.2.3,Win32,59.88023952,9,2,15,,,,,,,,1,05,,,,,,,,,,,3,1.144,0,,,,,,0.064814815,-0.252777806,1,0,0,1.1435,Diorite_rect,14,0,14,0,1,
6012e262527c380ccb2a6c74,SCN,2024-06-21_13h47.19.092,LearnStrategy,2023.2.3,Win32,59.88023952,9,2,16,,,,,,,,4,10,,,,,,,,,,,3,1.811,0,,,,,,0.195370356,-0.25462963,1,0,0,1.8108,Diorite_rect,15,0,15,0,1,
6012e262527c380ccb2a6c74,SCN,2024-06-21_13h47.19.092,LearnStrategy,2023.2.3,Win32,59.88023952,,,,,,,,,,,,,,,,,,,,,,,,,,,,,,,,,,,,,,,,,,,0
6012e262527c380ccb2a6c74,SCN,2024-06-21_13h47.19.092,LearnStrategy,2023.2.3,Win32,59.88023952,,,,,,,,,,,,,,,,,,,,,,,,,,,,,,,,,,,,,,,,,,,
6012e262527c380ccb2a6c74,SCN,2024-06-21_13h47.19.092,LearnStrategy,2023.2.3,Win32,59.88023952,,,,,,,,,,,5,16,1,1,,,,,,,,,,,,,,,,,,,,,,,,,,,,,
6012e262527c380ccb2a6c74,SCN,2024-06-21_13h47.19.092,LearnStrategy,2023.2.3,Win32,59.88023952,,,,,,,,,,,1,04,1,2,,,,,,,,,,,,,,,,,,,,,,,,,,,,,
6012e262527c380ccb2a6c74,SCN,2024-06-21_13h47.19.092,LearnStrategy,2023.2.3,Win32,59.88023952,,,,,,,,,,,6,10,1,3,,,,,,,,,,,,,,,,,,,,,,,,,,,,,
6012e262527c380ccb2a6c74,SCN,2024-06-21_13h47.19.092,LearnStrategy,2023.2.3,Win32,59.88023952,,,,,,,,,,,4,15,1,4,,,,,,,,,,,,,,,,,,,,,,,,,,,,,
6012e262527c380ccb2a6c74,SCN,2024-06-21_13h47.19.092,LearnStrategy,2023.2.3,Win32,59.88023952,,,,,,,,,,,5,09,1,5,,,,,,,,,,,,,,,,,,,,,,,,,,,,,
6012e262527c380ccb2a6c74,SCN,2024-06-21_13h47.19.092,LearnStrategy,2023.2.3,Win32,59.88023952,,,,,,,,,,,2,11,1,6,,,,,,,,,,,,,,,,,,,,,,,,,,,,,
6012e262527c380ccb2a6c74,SCN,2024-06-21_13h47.19.092,LearnStrategy,2023.2.3,Win32,59.88023952,,,,,,,,,,,6,05,1,7,,,,,,,,,,,,,,,,,,,,,,,,,,,,,
6012e262527c380ccb2a6c74,SCN,2024-06-21_13h47.19.092,LearnStrategy,2023.2.3,Win32,59.88023952,,,,,,,,,,,5,10,1,8,,,,,,,,,,,,,,,,,,,,,,,,,,,,,
6012e262527c380ccb2a6c74,SCN,2024-06-21_13h47.19.092,LearnStrategy,2023.2.3,Win32,59.88023952,,,,,,,,,,,1,16,2,1,,,,,,,,,,,,,,,,,,,,,,,,,,,,,
6012e262527c380ccb2a6c74,SCN,2024-06-21_13h47.19.092,LearnStrategy,2023.2.3,Win32,59.88023952,,,,,,,,,,,5,12,2,2,,,,,,,,,,,,,,,,,,,,,,,,,,,,,
6012e262527c380ccb2a6c74,SCN,2024-06-21_13h47.19.092,LearnStrategy,2023.2.3,Win32,59.88023952,,,,,,,,,,,2,06,2,3,,,,,,,,,,,,,,,,,,,,,,,,,,,,,
6012e262527c380ccb2a6c74,SCN,2024-06-21_13h47.19.092,LearnStrategy,2023.2.3,Win32,59.88023952,,,,,,,,,,,7,08,2,4,,,,,,,,,,,,,,,,,,,,,,,,,,,,,
6012e262527c380ccb2a6c74,SCN,2024-06-21_13h47.19.092,LearnStrategy,2023.2.3,Win32,59.88023952,,,,,,,,,,,3,09,2,5,,,,,,,,,,,,,,,,,,,,,,,,,,,,,
6012e262527c380ccb2a6c74,SCN,2024-06-21_13h47.19.092,LearnStrategy,2023.2.3,Win32,59.88023952,,,,,,,,,,,1,02,2,6,,,,,,,,,,,,,,,,,,,,,,,,,,,,,
6012e262527c380ccb2a6c74,SCN,2024-06-21_13h47.19.092,LearnStrategy,2023.2.3,Win32,59.88023952,,,,,,,,,,,8,06,2,7,,,,,,,,,,,,,,,,,,,,,,,,,,,,,
6012e262527c380ccb2a6c74,SCN,2024-06-21_13h47.19.092,LearnStrategy,2023.2.3,Win32,59.88023952,,,,,,,,,,,8,16,2,8,,,,,,,,,,,,,,,,,,,,,,,,,,,,,
6012e262527c380ccb2a6c74,SCN,2024-06-21_13h47.19.092,LearnStrategy,2023.2.3,Win32,59.88023952,,,,,,,,,,,1,06,3,1,,,,,,,,,,,,,,,,,,,,,,,,,,,,,
6012e262527c380ccb2a6c74,SCN,2024-06-21_13h47.19.092,LearnStrategy,2023.2.3,Win32,59.88023952,,,,,,,,,,,8,09,3,2,,,,,,,,,,,,,,,,,,,,,,,,,,,,,
6012e262527c380ccb2a6c74,SCN,2024-06-21_13h47.19.092,LearnStrategy,2023.2.3,Win32,59.88023952,,,,,,,,,,,8,02,3,3,,,,,,,,,,,,,,,,,,,,,,,,,,,,,
6012e262527c380ccb2a6c74,SCN,2024-06-21_13h47.19.092,LearnStrategy,2023.2.3,Win32,59.88023952,,,,,,,,,,,5,05,3,4,,,,,,,,,,,,,,,,,,,,,,,,,,,,,
6012e262527c380ccb2a6c74,SCN,2024-06-21_13h47.19.092,LearnStrategy,2023.2.3,Win32,59.88023952,,,,,,,,,,,3,08,3,5,,,,,,,,,,,,,,,,,,,,,,,,,,,,,
6012e262527c380ccb2a6c74,SCN,2024-06-21_13h47.19.092,LearnStrategy,2023.2.3,Win32,59.88023952,,,,,,,,,,,7,10,3,6,,,,,,,,,,,,,,,,,,,,,,,,,,,,,
6012e262527c380ccb2a6c74,SCN,2024-06-21_13h47.19.092,LearnStrategy,2023.2.3,Win32,59.88023952,,,,,,,,,,,4,11,3,7,,,,,,,,,,,,,,,,,,,,,,,,,,,,,
6012e262527c380ccb2a6c74,SCN,2024-06-21_13h47.19.092,LearnStrategy,2023.2.3,Win32,59.88023952,,,,,,,,,,,2,09,3,8,,,,,,,,,,,,,,,,,,,,,,,,,,,,,
6012e262527c380ccb2a6c74,SCN,2024-06-21_13h47.19.092,LearnStrategy,2023.2.3,Win32,59.88023952,,,,,,,,,,,4,08,4,1,,,,,,,,,,,,,,,,,,,,,,,,,,,,,
6012e262527c380ccb2a6c74,SCN,2024-06-21_13h47.19.092,LearnStrategy,2023.2.3,Win32,59.88023952,,,,,,,,,,,2,12,4,2,,,,,,,,,,,,,,,,,,,,,,,,,,,,,
6012e262527c380ccb2a6c74,SCN,2024-06-21_13h47.19.092,LearnStrategy,2023.2.3,Win32,59.88023952,,,,,,,,,,,6,12,4,3,,,,,,,,,,,,,,,,,,,,,,,,,,,,,
6012e262527c380ccb2a6c74,SCN,2024-06-21_13h47.19.092,LearnStrategy,2023.2.3,Win32,59.88023952,,,,,,,,,,,2,16,4,4,,,,,,,,,,,,,,,,,,,,,,,,,,,,,
6012e262527c380ccb2a6c74,SCN,2024-06-21_13h47.19.092,LearnStrategy,2023.2.3,Win32,59.88023952,,,,,,,,,,,6,13,4,5,,,,,,,,,,,,,,,,,,,,,,,,,,,,,
6012e262527c380ccb2a6c74,SCN,2024-06-21_13h47.19.092,LearnStrategy,2023.2.3,Win32,59.88023952,,,,,,,,,,,3,07,4,6,,,,,,,,,,,,,,,,,,,,,,,,,,,,,
6012e262527c380ccb2a6c74,SCN,2024-06-21_13h47.19.092,LearnStrategy,2023.2.3,Win32,59.88023952,,,,,,,,,,,3,14,4,7,,,,,,,,,,,,,,,,,,,,,,,,,,,,,
6012e262527c380ccb2a6c74,SCN,2024-06-21_13h47.19.092,LearnStrategy,2023.2.3,Win32,59.88023952,,,,,,,,,,,2,10,4,8,,,,,,,,,,,,,,,,,,,,,,,,,,,,,
6012e262527c380ccb2a6c74,SCN,2024-06-21_13h47.19.092,LearnStrategy,2023.2.3,Win32,59.88023952,,,,,,,,,,,6,11,5,1,,,,,,,,,,,,,,,,,,,,,,,,,,,,,
6012e262527c380ccb2a6c74,SCN,2024-06-21_13h47.19.092,LearnStrategy,2023.2.3,Win32,59.88023952,,,,,,,,,,,1,10,5,2,,,,,,,,,,,,,,,,,,,,,,,,,,,,,
6012e262527c380ccb2a6c74,SCN,2024-06-21_13h47.19.092,LearnStrategy,2023.2.3,Win32,59.88023952,,,,,,,,,,,7,16,5,3,,,,,,,,,,,,,,,,,,,,,,,,,,,,,
6012e262527c380ccb2a6c74,SCN,2024-06-21_13h47.19.092,LearnStrategy,2023.2.3,Win32,59.88023952,,,,,,,,,,,5,02,5,4,,,,,,,,,,,,,,,,,,,,,,,,,,,,,
6012e262527c380ccb2a6c74,SCN,2024-06-21_13h47.19.092,LearnStrategy,2023.2.3,Win32,59.88023952,,,,,,,,,,,3,02,5,5,,,,,,,,,,,,,,,,,,,,,,,,,,,,,
6012e262527c380ccb2a6c74,SCN,2024-06-21_13h47.19.092,LearnStrategy,2023.2.3,Win32,59.88023952,,,,,,,,,,,6,07,5,6,,,,,,,,,,,,,,,,,,,,,,,,,,,,,
6012e262527c380ccb2a6c74,SCN,2024-06-21_13h47.19.092,LearnStrategy,2023.2.3,Win32,59.88023952,,,,,,,,,,,4,05,5,7,,,,,,,,,,,,,,,,,,,,,,,,,,,,,
6012e262527c380ccb2a6c74,SCN,2024-06-21_13h47.19.092,LearnStrategy,2023.2.3,Win32,59.88023952,,,,,,,,,,,7,14,5,8,,,,,,,,,,,,,,,,,,,,,,,,,,,,,
6012e262527c380ccb2a6c74,SCN,2024-06-21_13h47.19.092,LearnStrategy,2023.2.3,Win32,59.88023952,,,,,,,,,,,7,04,6,1,,,,,,,,,,,,,,,,,,,,,,,,,,,,,
6012e262527c380ccb2a6c74,SCN,2024-06-21_13h47.19.092,LearnStrategy,2023.2.3,Win32,59.88023952,,,,,,,,,,,8,08,6,2,,,,,,,,,,,,,,,,,,,,,,,,,,,,,
6012e262527c380ccb2a6c74,SCN,2024-06-21_13h47.19.092,LearnStrategy,2023.2.3,Win32,59.88023952,,,,,,,,,,,7,15,6,3,,,,,,,,,,,,,,,,,,,,,,,,,,,,,
6012e262527c380ccb2a6c74,SCN,2024-06-21_13h47.19.092,LearnStrategy,2023.2.3,Win32,59.88023952,,,,,,,,,,,8,03,6,4,,,,,,,,,,,,,,,,,,,,,,,,,,,,,
6012e262527c380ccb2a6c74,SCN,2024-06-21_13h47.19.092,LearnStrategy,2023.2.3,Win32,59.88023952,,,,,,,,,,,1,14,6,5,,,,,,,,,,,,,,,,,,,,,,,,,,,,,
6012e262527c380ccb2a6c74,SCN,2024-06-21_13h47.19.092,LearnStrategy,2023.2.3,Win32,59.88023952,,,,,,,,,,,4,12,6,6,,,,,,,,,,,,,,,,,,,,,,,,,,,,,
6012e262527c380ccb2a6c74,SCN,2024-06-21_13h47.19.092,LearnStrategy,2023.2.3,Win32,59.88023952,,,,,,,,,,,4,16,6,7,,,,,,,,,,,,,,,,,,,,,,,,,,,,,
6012e262527c380ccb2a6c74,SCN,2024-06-21_13h47.19.092,LearnStrategy,2023.2.3,Win32,59.88023952,,,,,,,,,,,3,12,6,8,,,,,,,,,,,,,,,,,,,,,,,,,,,,,