participant,condition,date,expName,psychopyVersion,OS,frameRate,block,phase,trial,learn_mouse_2.x,learn_mouse_2.y,learn_mouse_2.leftButton,learn_mouse_2.midButton,learn_mouse_2.rightButton,learn_mouse_2.time,learn_mouse_2.clicked_name,cat,token,row,col,t_select,cat_mouse_l.x,cat_mouse_l.y,cat_mouse_l.leftButton,cat_mouse_l.midButton,cat_mouse_l.rightButton,cat_mouse_l.time,cat_mouse_l.clicked_name,resp,t_resp,corr,train_trials.thisRepN,train_trials.thisTrialN,train_trials.thisN,train_trials.thisIndex,train_trials.ran,cat_mouse_t.x,cat_mouse_t.y,cat_mouse_t.leftButton,cat_mouse_t.midButton,cat_mouse_t.rightButton,cat_mouse_t.time,cat_mouse_t.clicked_name,test_trials.thisRepN,test_trials.thisTrialN,test_trials.thisN,test_trials.thisIndex,test_trials.ran,Bonus
6016b656600dc185acab2cc1,TCN,2024-06-24_14h45.13.626,LearnStrategy,2023.2.3,Win32,60.24096386,,,,,,,,,,,,,,,,,,,,,,,,,,,,,,,,,,,,,,,,,,,
6016b656600dc185acab2cc1,TCN,2024-06-24_14h45.13.626,LearnStrategy,2023.2.3,Win32,60.24096386,1,1,1,-0.034259231,0.002777771,1,0,0,1.7066,rock_grid_rect_2,4,14,-1,-1,1.707,-0.205555527,-0.407407407,1,0,0,3.1968,Pegmatite_rect,6,3.197,0,0,0,0,0,1,,,,,,,,,,,,,
6016b656600dc185acab2cc1,TCN,2024-06-24_14h45.13.626,LearnStrategy,2023.2.3,Win32,60.24096386,1,1,2,0.012962977,0.003703683,1,0,0,1.4278,rock_grid_rect_2,7,07,-1,-1,1.428,0.159259302,-0.255555541,1,0,0,1.5589,Diorite_rect,3,1.559,0,1,0,1,0,1,,,,,,,,,,,,,
6016b656600dc185acab2cc1,TCN,2024-06-24_14h45.13.626,LearnStrategy,2023.2.3,Win32,60.24096386,1,1,3,0.039814843,-0.001851859,1,0,0,1.064,rock_grid_rect_2,1,01,-1,-1,1.064,-0.152777778,-0.393518519,1,0,0,3.2464,Pegmatite_rect,6,3.246,0,2,0,2,0,1,,,,,,,,,,,,,
6016b656600dc185acab2cc1,TCN,2024-06-24_14h45.13.626,LearnStrategy,2023.2.3,Win32,60.24096386,1,1,4,0.032407407,-0.01203703,1,0,0,0.9285,rock_grid_rect_2,1,11,-1,-1,0.928,0.115740741,-0.251851894,1,0,0,2.3244,Diorite_rect,3,2.324,0,3,0,3,0,1,,,,,,,,,,,,,
6016b656600dc185acab2cc1,TCN,2024-06-24_14h45.13.626,LearnStrategy,2023.2.3,Win32,60.24096386,1,1,5,0.135185171,0.010185171,1,0,0,0.975,rock_grid_rect_2,8,08,-1,-1,0.975,0.393518519,-0.409259302,1,0,0,2.315,Pumice_rect,8,2.315,1,4,0,4,0,1,,,,,,,,,,,,,
6016b656600dc185acab2cc1,TCN,2024-06-24_14h45.13.626,LearnStrategy,2023.2.3,Win32,60.24096386,1,1,6,0.08148151,-0.0074074,1,0,0,0.9889,rock_grid_rect_2,7,02,-1,-1,0.989,-0.076851809,-0.390740783,1,0,0,3.9226,Pegmatite_rect,6,3.923,0,5,0,5,0,1,,,,,,,,,,,,,
6016b656600dc185acab2cc1,TCN,2024-06-24_14h45.13.626,LearnStrategy,2023.2.3,Win32,60.24096386,1,1,7,0.085185228,-0.000925947,1,0,0,1.523,rock_grid_rect_2,5,12,-1,-1,1.523,-0.372222229,-0.420370384,1,0,0,3.9563,Obsidian_rect,5,3.956,1,6,0,6,0,1,,,,,,,,,,,,,
6016b656600dc185acab2cc1,TCN,2024-06-24_14h45.13.626,LearnStrategy,2023.2.3,Win32,60.24096386,1,1,8,0.084259245,-0.003703718,1,0,0,0.9312,rock_grid_rect_2,6,13,-1,-1,0.931,-0.126851824,-0.261111153,1,0,0,3.6718,Basalt_rect,2,3.672,0,7,0,7,0,1,,,,,,,,,,,,,
6016b656600dc185acab2cc1,TCN,2024-06-24_14h45.13.626,LearnStrategy,2023.2.3,Win32,60.24096386,1,1,9,0.125925912,-0.01666666,1,0,0,0.9059,rock_grid_rect_2,2,12,-1,-1,0.906,0.390740712,-0.404629672,1,0,0,4.7068,Pumice_rect,8,4.707,0,8,0,8,0,1,,,,,,,,,,,,,
6016b656600dc185acab2cc1,TCN,2024-06-24_14h45.13.626,LearnStrategy,2023.2.3,Win32,60.24096386,1,1,10,0.122222265,-0.012962977,1,0,0,0.9459,rock_grid_rect_2,3,15,-1,-1,0.946,-0.083333333,-0.268518519,1,0,0,3.9886,Basalt_rect,2,3.989,0,9,0,9,0,1,,,,,,,,,,,,,
6016b656600dc185acab2cc1,TCN,2024-06-24_14h45.13.626,LearnStrategy,2023.2.3,Win32,60.24096386,1,1,11,0.151851866,-0.0074074,1,0,0,1.0239,rock_grid_rect_2,8,04,-1,-1,1.024,0.45185188,-0.243518547,1,0,0,2.557,Gabbro_rect,4,2.557,0,10,0,10,0,1,,,,,,,,,,,,,
6016b656600dc185acab2cc1,TCN,2024-06-24_14h45.13.626,LearnStrategy,2023.2.3,Win32,60.24096386,1,1,12,0.118518547,-0.00462963,1,0,0,0.9462,rock_grid_rect_2,6,05,-1,-1,0.946,0.397222307,-0.267592607,1,0,0,37.7744,Gabbro_rect,4,37.774,0,11,0,11,0,1,,,,,,,,,,,,,
6016b656600dc185acab2cc1,TCN,2024-06-24_14h45.13.626,LearnStrategy,2023.2.3,Win32,60.24096386,1,1,13,0.118518547,-0.010185206,1,0,0,0.8727,rock_grid_rect_2,5,05,-1,-1,0.873,-0.373148141,-0.387037065,1,0,0,1.9236,Obsidian_rect,5,1.924,1,12,0,12,0,1,,,,,,,,,,,,,
6016b656600dc185acab2cc1,TCN,2024-06-24_14h45.13.626,LearnStrategy,2023.2.3,Win32,60.24096386,1,1,14,0.089814857,-0.010185206,1,0,0,0.8803,rock_grid_rect_2,4,12,-1,-1,0.88,-0.141666624,-0.25,1,0,0,5.5759,Basalt_rect,2,5.576,0,13,0,13,0,1,,,,,,,,,,,,,
6016b656600dc185acab2cc1,TCN,2024-06-24_14h45.13.626,LearnStrategy,2023.2.3,Win32,60.24096386,1,1,15,0.147222236,-0.012962977,1,0,0,0.9134,rock_grid_rect_2,2,10,-1,-1,0.913,0.204629616,-0.25462963,1,0,0,2.225,Diorite_rect,3,2.225,0,14,0,14,0,1,,,,,,,,,,,,,
6016b656600dc185acab2cc1,TCN,2024-06-24_14h45.13.626,LearnStrategy,2023.2.3,Win32,60.24096386,1,1,16,0.065740727,0.006481489,1,0,0,0.8807,rock_grid_rect_2,3,13,-1,-1,0.881,-0.400000007,-0.242592635,1,0,0,2.7066,Andesite_rect,1,2.707,0,15,0,15,0,1,,,,,,,,,,,,,
6016b656600dc185acab2cc1,TCN,2024-06-24_14h45.13.626,LearnStrategy,2023.2.3,Win32,60.24096386,1,2,1,,,,,,,,3,12,,,,,,,,,,,1,1.763,0,,,,,,-0.39166666,-0.240740741,1,0,0,1.7634,Andesite_rect,0,0,0,0,1,
6016b656600dc185acab2cc1,TCN,2024-06-24_14h45.13.626,LearnStrategy,2023.2.3,Win32,60.24096386,1,2,2,,,,,,,,2,01,,,,,,,,,,,2,2.739,1,,,,,,-0.114814829,-0.242592635,1,0,0,2.7388,Basalt_rect,1,0,1,0,1,
6016b656600dc185acab2cc1,TCN,2024-06-24_14h45.13.626,LearnStrategy,2023.2.3,Win32,60.24096386,1,2,3,,,,,,,,1,05,,,,,,,,,,,3,3.192,0,,,,,,0.176851838,-0.24537037,1,0,0,3.1917,Diorite_rect,2,0,2,0,1,
6016b656600dc185acab2cc1,TCN,2024-06-24_14h45.13.626,LearnStrategy,2023.2.3,Win32,60.24096386,1,2,4,,,,,,,,4,03,,,,,,,,,,,6,3.179,0,,,,,,-0.12037037,-0.414814843,1,0,0,3.1785,Pegmatite_rect,3,0,3,0,1,
6016b656600dc185acab2cc1,TCN,2024-06-24_14h45.13.626,LearnStrategy,2023.2.3,Win32,60.24096386,1,2,5,,,,,,,,5,10,,,,,,,,,,,5,1.09,1,,,,,,-0.396296289,-0.384259259,1,0,0,1.0905,Obsidian_rect,4,0,4,0,1,
6016b656600dc185acab2cc1,TCN,2024-06-24_14h45.13.626,LearnStrategy,2023.2.3,Win32,60.24096386,1,2,6,,,,,,,,1,03,,,,,,,,,,,4,3.374,0,,,,,,0.353703675,-0.242592635,1,0,0,3.3739,Gabbro_rect,5,0,5,0,1,
6016b656600dc185acab2cc1,TCN,2024-06-24_14h45.13.626,LearnStrategy,2023.2.3,Win32,60.24096386,1,2,7,,,,,,,,7,16,,,,,,,,,,,3,3.091,0,,,,,,0.124074088,-0.262037065,1,0,0,3.0908,Diorite_rect,6,0,6,0,1,
6016b656600dc185acab2cc1,TCN,2024-06-24_14h45.13.626,LearnStrategy,2023.2.3,Win32,60.24096386,1,2,8,,,,,,,,2,16,,,,,,,,,,,6,2.34,0,,,,,,-0.178703661,-0.392592607,1,0,0,2.34,Pegmatite_rect,7,0,7,0,1,
6016b656600dc185acab2cc1,TCN,2024-06-24_14h45.13.626,LearnStrategy,2023.2.3,Win32,60.24096386,1,2,9,,,,,,,,6,07,,,,,,,,,,,7,2.619,0,,,,,,0.158333319,-0.39444443,1,0,0,2.619,Peridotite_rect,8,0,8,0,1,
6016b656600dc185acab2cc1,TCN,2024-06-24_14h45.13.626,LearnStrategy,2023.2.3,Win32,60.24096386,1,2,10,,,,,,,,7,13,,,,,,,,,,,1,1.94,0,,,,,,-0.396296289,-0.246296282,1,0,0,1.94,Andesite_rect,9,0,9,0,1,
6016b656600dc185acab2cc1,TCN,2024-06-24_14h45.13.626,LearnStrategy,2023.2.3,Win32,60.24096386,1,2,11,,,,,,,,6,12,,,,,,,,,,,7,2.552,0,,,,,,0.162037037,-0.39444443,1,0,0,2.5518,Peridotite_rect,10,0,10,0,1,
6016b656600dc185acab2cc1,TCN,2024-06-24_14h45.13.626,LearnStrategy,2023.2.3,Win32,60.24096386,1,2,12,,,,,,,,8,16,,,,,,,,,,,3,2.658,0,,,,,,0.189814815,-0.251851894,1,0,0,2.6582,Diorite_rect,11,0,11,0,1,
6016b656600dc185acab2cc1,TCN,2024-06-24_14h45.13.626,LearnStrategy,2023.2.3,Win32,60.24096386,1,2,13,,,,,,,,5,14,,,,,,,,,,,5,2.249,1,,,,,,-0.412037037,-0.404629672,1,0,0,2.2491,Obsidian_rect,12,0,12,0,1,
6016b656600dc185acab2cc1,TCN,2024-06-24_14h45.13.626,LearnStrategy,2023.2.3,Win32,60.24096386,1,2,14,,,,,,,,3,16,,,,,,,,,,,6,3.725,0,,,,,,-0.160185143,-0.400925954,1,0,0,3.7249,Pegmatite_rect,13,0,13,0,1,
6016b656600dc185acab2cc1,TCN,2024-06-24_14h45.13.626,LearnStrategy,2023.2.3,Win32,60.24096386,1,2,15,,,,,,,,4,11,,,,,,,,,,,3,1.725,0,,,,,,0.119444459,-0.237037023,1,0,0,1.725,Diorite_rect,14,0,14,0,1,
6016b656600dc185acab2cc1,TCN,2024-06-24_14h45.13.626,LearnStrategy,2023.2.3,Win32,60.24096386,1,2,16,,,,,,,,8,10,,,,,,,,,,,8,2.141,1,,,,,,0.345370399,-0.380555541,1,0,0,2.1409,Pumice_rect,15,0,15,0,1,
6016b656600dc185acab2cc1,TCN,2024-06-24_14h45.13.626,LearnStrategy,2023.2.3,Win32,60.24096386,2,1,1,0.113888917,0.002777771,1,0,0,1.3129,rock_grid_rect_2,5,16,-1,-1,1.313,-0.463888875,-0.405555584,1,0,0,1.0258,Obsidian_rect,5,1.026,1,0,0,0,0,1,,,,,,,,,,,,,
6016b656600dc185acab2cc1,TCN,2024-06-24_14h45.13.626,LearnStrategy,2023.2.3,Win32,60.24096386,2,1,2,0.044444473,-0.0074074,1,0,0,0.8314,rock_grid_rect_2,4,09,-1,-1,0.831,0.420370455,-0.25,1,0,0,1.7747,Gabbro_rect,4,1.775,1,1,0,1,0,1,,,,,,,,,,,,,
6016b656600dc185acab2cc1,TCN,2024-06-24_14h45.13.626,LearnStrategy,2023.2.3,Win32,60.24096386,2,1,3,0.077777792,0.002777771,1,0,0,1.1801,rock_grid_rect_2,1,06,-1,-1,1.18,0.155555584,-0.255555541,1,0,0,3.3227,Diorite_rect,3,3.323,0,2,0,2,0,1,,,,,,,,,,,,,
6016b656600dc185acab2cc1,TCN,2024-06-24_14h45.13.626,LearnStrategy,2023.2.3,Win32,60.24096386,2,1,4,0.022222236,-0.011111118,1,0,0,0.763,rock_grid_rect_2,8,13,-1,-1,0.763,-0.116666653,-0.243518547,1,0,0,1.2423,Basalt_rect,2,1.242,0,3,0,3,0,1,,,,,,,,,,,,,
6016b656600dc185acab2cc1,TCN,2024-06-24_14h45.13.626,LearnStrategy,2023.2.3,Win32,60.24096386,2,1,5,0.10092594,-0.017592607,1,0,0,1.0969,rock_grid_rect_2,4,05,-1,-1,1.097,-0.108333305,-0.408333319,1,0,0,2.4094,Pegmatite_rect,6,2.409,0,4,0,4,0,1,,,,,,,,,,,,,
6016b656600dc185acab2cc1,TCN,2024-06-24_14h45.13.626,LearnStrategy,2023.2.3,Win32,60.24096386,2,1,6,0.033333319,-0.011111118,1,0,0,1.031,rock_grid_rect_2,1,04,-1,-1,1.031,-0.333333333,-0.238888917,1,0,0,1.9741,Andesite_rect,1,1.974,1,5,0,5,0,1,,,,,,,,,,,,,
6016b656600dc185acab2cc1,TCN,2024-06-24_14h45.13.626,LearnStrategy,2023.2.3,Win32,60.24096386,2,1,7,0.037037037,0.002777771,1,0,0,0.8135,rock_grid_rect_2,3,08,-1,-1,0.814,0.101851852,-0.250925912,1,0,0,3.0074,Diorite_rect,3,3.007,1,6,0,6,0,1,,,,,,,,,,,,,
6016b656600dc185acab2cc1,TCN,2024-06-24_14h45.13.626,LearnStrategy,2023.2.3,Win32,60.24096386,2,1,8,0.080555598,-0.012962977,1,0,0,1.0636,rock_grid_rect_2,2,09,-1,-1,1.064,-0.101851852,-0.247222265,1,0,0,1.4253,Basalt_rect,2,1.425,1,7,0,7,0,1,,,,,,,,,,,,,
6016b656600dc185acab2cc1,TCN,2024-06-24_14h45.13.626,LearnStrategy,2023.2.3,Win32,60.24096386,2,1,9,0.123148176,-0.003703718,1,0,0,0.9295,rock_grid_rect_2,8,02,-1,-1,0.93,0.372222194,-0.264814801,1,0,0,1.8574,Gabbro_rect,4,1.857,0,8,0,8,0,1,,,,,,,,,,,,,
6016b656600dc185acab2cc1,TCN,2024-06-24_14h45.13.626,LearnStrategy,2023.2.3,Win32,60.24096386,2,1,10,0.113888917,-0.001851859,1,0,0,1.0971,rock_grid_rect_2,6,16,-1,-1,1.097,0.116666653,-0.405555584,1,0,0,4.1056,Peridotite_rect,7,4.106,0,9,0,9,0,1,,,,,,,,,,,,,
6016b656600dc185acab2cc1,TCN,2024-06-24_14h45.13.626,LearnStrategy,2023.2.3,Win32,60.24096386,2,1,11,0.037037037,0.006481489,1,0,0,0.9132,rock_grid_rect_2,6,03,-1,-1,0.913,-0.386111118,-0.241666653,1,0,0,2.2734,Andesite_rect,1,2.273,0,10,0,10,0,1,,,,,,,,,,,,,
6016b656600dc185acab2cc1,TCN,2024-06-24_14h45.13.626,LearnStrategy,2023.2.3,Win32,60.24096386,2,1,12,0.025925954,0.001851859,1,0,0,0.6969,rock_grid_rect_2,7,08,-1,-1,0.697,-0.081481439,-0.270370413,1,0,0,2.8899,Basalt_rect,2,2.89,0,11,0,11,0,1,,,,,,,,,,,,,
6016b656600dc185acab2cc1,TCN,2024-06-24_14h45.13.626,LearnStrategy,2023.2.3,Win32,60.24096386,2,1,13,0.10092594,-0.006481489,1,0,0,1.2472,rock_grid_rect_2,3,14,-1,-1,1.247,0.063888903,-0.412037037,1,0,0,3.7228,Peridotite_rect,7,3.723,0,12,0,12,0,1,,,,,,,,,,,,,
6016b656600dc185acab2cc1,TCN,2024-06-24_14h45.13.626,LearnStrategy,2023.2.3,Win32,60.24096386,2,1,14,0.073148162,-0.006481489,1,0,0,0.7802,rock_grid_rect_2,5,11,-1,-1,0.78,-0.3675926,-0.388888889,1,0,0,0.8089,Obsidian_rect,5,0.809,1,13,0,13,0,1,,,,,,,,,,,,,
6016b656600dc185acab2cc1,TCN,2024-06-24_14h45.13.626,LearnStrategy,2023.2.3,Win32,60.24096386,2,1,15,0,0.012962942,1,0,0,0.6485,rock_grid_rect_2,2,14,-1,-1,0.649,0.317592621,-0.248148176,1,0,0,1.509,Gabbro_rect,4,1.509,0,14,0,14,0,1,,,,,,,,,,,,,
6016b656600dc185acab2cc1,TCN,2024-06-24_14h45.13.626,LearnStrategy,2023.2.3,Win32,60.24096386,2,1,16,0.068518533,0.021296289,1,0,0,0.6975,rock_grid_rect_2,7,05,-1,-1,0.698,-0.081481439,-0.408333319,1,0,0,2.9806,Pegmatite_rect,6,2.981,0,15,0,15,0,1,,,,,,,,,,,,,
6016b656600dc185acab2cc1,TCN,2024-06-24_14h45.13.626,LearnStrategy,2023.2.3,Win32,60.24096386,2,2,1,,,,,,,,6,10,,,,,,,,,,,7,3.961,0,,,,,,0.134259259,-0.401851866,1,0,0,3.9606,Peridotite_rect,0,0,0,0,1,
6016b656600dc185acab2cc1,TCN,2024-06-24_14h45.13.626,LearnStrategy,2023.2.3,Win32,60.24096386,2,2,2,,,,,,,,8,09,,,,,,,,,,,8,1.857,1,,,,,,0.339814787,-0.387962977,1,0,0,1.8573,Pumice_rect,1,0,1,0,1,
6016b656600dc185acab2cc1,TCN,2024-06-24_14h45.13.626,LearnStrategy,2023.2.3,Win32,60.24096386,2,2,3,,,,,,,,7,04,,,,,,,,,,,1,3.184,0,,,,,,-0.373148141,-0.260185171,1,0,0,3.184,Andesite_rect,2,0,2,0,1,
6016b656600dc185acab2cc1,TCN,2024-06-24_14h45.13.626,LearnStrategy,2023.2.3,Win32,60.24096386,2,2,4,,,,,,,,5,02,,,,,,,,,,,5,0.876,1,,,,,,-0.390740748,-0.400925954,1,0,0,0.8759,Obsidian_rect,3,0,3,0,1,
6016b656600dc185acab2cc1,TCN,2024-06-24_14h45.13.626,LearnStrategy,2023.2.3,Win32,60.24096386,2,2,5,,,,,,,,1,10,,,,,,,,,,,1,1.957,1,,,,,,-0.344444452,-0.264814801,1,0,0,1.9575,Andesite_rect,4,0,4,0,1,
6016b656600dc185acab2cc1,TCN,2024-06-24_14h45.13.626,LearnStrategy,2023.2.3,Win32,60.24096386,2,2,6,,,,,,,,2,08,,,,,,,,,,,5,1.474,0,,,,,,-0.380555541,-0.404629672,1,0,0,1.474,Obsidian_rect,5,0,5,0,1,
6016b656600dc185acab2cc1,TCN,2024-06-24_14h45.13.626,LearnStrategy,2023.2.3,Win32,60.24096386,2,2,7,,,,,,,,1,14,,,,,,,,,,,7,1.992,0,,,,,,0.125,-0.412037037,1,0,0,1.9919,Peridotite_rect,6,0,6,0,1,
6016b656600dc185acab2cc1,TCN,2024-06-24_14h45.13.626,LearnStrategy,2023.2.3,Win32,60.24096386,2,2,8,,,,,,,,6,15,,,,,,,,,,,6,2.403,1,,,,,,-0.091666681,-0.414814843,1,0,0,2.4031,Pegmatite_rect,7,0,7,0,1,
6016b656600dc185acab2cc1,TCN,2024-06-24_14h45.13.626,LearnStrategy,2023.2.3,Win32,60.24096386,2,2,9,,,,,,,,5,09,,,,,,,,,,,5,0.958,1,,,,,,-0.3675926,-0.387962977,1,0,0,0.9584,Obsidian_rect,8,0,8,0,1,
6016b656600dc185acab2cc1,TCN,2024-06-24_14h45.13.626,LearnStrategy,2023.2.3,Win32,60.24096386,2,2,10,,,,,,,,3,07,,,,,,,,,,,4,1.773,0,,,,,,0.375925982,-0.256481524,1,0,0,1.7734,Gabbro_rect,9,0,9,0,1,
6016b656600dc185acab2cc1,TCN,2024-06-24_14h45.13.626,LearnStrategy,2023.2.3,Win32,60.24096386,2,2,11,,,,,,,,4,10,,,,,,,,,,,3,2.69,0,,,,,,0.12962963,-0.256481524,1,0,0,2.69,Diorite_rect,10,0,10,0,1,
6016b656600dc185acab2cc1,TCN,2024-06-24_14h45.13.626,LearnStrategy,2023.2.3,Win32,60.24096386,2,2,12,,,,,,,,8,05,,,,,,,,,,,8,2.208,1,,,,,,0.363888917,-0.380555541,1,0,0,2.2082,Pumice_rect,11,0,11,0,1,
6016b656600dc185acab2cc1,TCN,2024-06-24_14h45.13.626,LearnStrategy,2023.2.3,Win32,60.24096386,2,2,13,,,,,,,,2,06,,,,,,,,,,,5,0.89,0,,,,,,-0.407407407,-0.397222236,1,0,0,0.89,Obsidian_rect,12,0,12,0,1,
6016b656600dc185acab2cc1,TCN,2024-06-24_14h45.13.626,LearnStrategy,2023.2.3,Win32,60.24096386,2,2,14,,,,,,,,3,09,,,,,,,,,,,7,1.823,0,,,,,,0.095370399,-0.401851866,1,0,0,1.8234,Peridotite_rect,13,0,13,0,1,
6016b656600dc185acab2cc1,TCN,2024-06-24_14h45.13.626,LearnStrategy,2023.2.3,Win32,60.24096386,2,2,15,,,,,,,,7,10,,,,,,,,,,,2,0.87,0,,,,,,-0.155555513,-0.259259259,1,0,0,0.8701,Basalt_rect,14,0,14,0,1,
6016b656600dc185acab2cc1,TCN,2024-06-24_14h45.13.626,LearnStrategy,2023.2.3,Win32,60.24096386,2,2,16,,,,,,,,4,15,,,,,,,,,,,1,0.925,0,,,,,,-0.36296297,-0.265740783,1,0,0,0.9247,Andesite_rect,15,0,15,0,1,
6016b656600dc185acab2cc1,TCN,2024-06-24_14h45.13.626,LearnStrategy,2023.2.3,Win32,60.24096386,3,1,1,-0.022222236,-0.0074074,1,0,0,1.1301,rock_grid_rect_2,7,14,-1,-1,1.13,-0.364814794,-0.252777806,1,0,0,1.7582,Andesite_rect,1,1.758,0,0,0,0,0,1,,,,,,,,,,,,,
6016b656600dc185acab2cc1,TCN,2024-06-24_14h45.13.626,LearnStrategy,2023.2.3,Win32,60.24096386,3,1,2,0.054629644,-0.01666666,1,0,0,0.781,rock_grid_rect_2,6,09,-1,-1,0.781,-0.065740727,-0.255555541,1,0,0,1.2136,Basalt_rect,2,1.214,0,1,0,1,0,1,,,,,,,,,,,,,
6016b656600dc185acab2cc1,TCN,2024-06-24_14h45.13.626,LearnStrategy,2023.2.3,Win32,60.24096386,3,1,3,0.079629616,-0.008333347,1,0,0,0.6799,rock_grid_rect_2,1,09,-1,-1,0.68,-0.146296254,-0.240740741,1,0,0,1.4427,Basalt_rect,2,1.443,0,2,0,2,0,1,,,,,,,,,,,,,
6016b656600dc185acab2cc1,TCN,2024-06-24_14h45.13.626,LearnStrategy,2023.2.3,Win32,60.24096386,3,1,4,0.003703718,-0.009259259,1,0,0,0.7655,rock_grid_rect_2,4,16,-1,-1,0.765,0.115740741,-0.266666695,1,0,0,1.3079,Diorite_rect,3,1.308,0,3,0,3,0,1,,,,,,,,,,,,,
6016b656600dc185acab2cc1,TCN,2024-06-24_14h45.13.626,LearnStrategy,2023.2.3,Win32,60.24096386,3,1,5,0.128703718,-0.019444466,1,0,0,0.8301,rock_grid_rect_2,2,05,-1,-1,0.83,0.203703704,-0.266666695,1,0,0,1.3747,Diorite_rect,3,1.375,0,4,0,4,0,1,,,,,,,,,,,,,
6016b656600dc185acab2cc1,TCN,2024-06-24_14h45.13.626,LearnStrategy,2023.2.3,Win32,60.24096386,3,1,6,0.068518533,-0.011111118,1,0,0,0.9641,rock_grid_rect_2,3,10,-1,-1,0.964,-0.121296282,-0.392592607,1,0,0,1.574,Pegmatite_rect,6,1.574,0,5,0,5,0,1,,,,,,,,,,,,,
6016b656600dc185acab2cc1,TCN,2024-06-24_14h45.13.626,LearnStrategy,2023.2.3,Win32,60.24096386,3,1,7,0.021296325,-0.008333347,1,0,0,0.7472,rock_grid_rect_2,7,12,-1,-1,0.747,0.169444473,-0.389814801,1,0,0,1.2746,Peridotite_rect,7,1.275,1,6,0,6,0,1,,,,,,,,,,,,,
6016b656600dc185acab2cc1,TCN,2024-06-24_14h45.13.626,LearnStrategy,2023.2.3,Win32,60.24096386,3,1,8,0.058333362,-0.0074074,1,0,0,0.7481,rock_grid_rect_2,5,07,-1,-1,0.748,-0.437962956,-0.401851866,1,0,0,4.2972,Obsidian_rect,5,4.297,1,7,0,7,0,1,,,,,,,,,,,,,
6016b656600dc185acab2cc1,TCN,2024-06-24_14h45.13.626,LearnStrategy,2023.2.3,Win32,60.24096386,3,1,9,-0.002777735,0.005555541,1,0,0,1.2938,rock_grid_rect_2,6,06,-1,-1,1.294,-0.360185164,-0.243518547,1,0,0,1.6333,Andesite_rect,1,1.633,0,8,0,8,0,1,,,,,,,,,,,,,
6016b656600dc185acab2cc1,TCN,2024-06-24_14h45.13.626,LearnStrategy,2023.2.3,Win32,60.24096386,3,1,10,0.085185228,-0.006481489,1,0,0,0.9526,rock_grid_rect_2,5,06,-1,-1,0.953,-0.404629637,-0.378703718,1,0,0,1.0795,Obsidian_rect,5,1.079,1,9,0,9,0,1,,,,,,,,,,,,,
6016b656600dc185acab2cc1,TCN,2024-06-24_14h45.13.626,LearnStrategy,2023.2.3,Win32,60.24096386,3,1,11,0.058333362,-0.008333347,1,0,0,0.9028,rock_grid_rect_2,1,16,-1,-1,0.903,-0.159259231,-0.247222265,1,0,0,2.5947,Basalt_rect,2,2.595,0,10,0,10,0,1,,,,,,,,,,,,,
6016b656600dc185acab2cc1,TCN,2024-06-24_14h45.13.626,LearnStrategy,2023.2.3,Win32,60.24096386,3,1,12,0.01944443,-0.01666666,1,0,0,0.6975,rock_grid_rect_2,3,02,-1,-1,0.697,-0.342592593,-0.392592607,1,0,0,1.6248,Obsidian_rect,5,1.625,0,11,0,11,0,1,,,,,,,,,,,,,
6016b656600dc185acab2cc1,TCN,2024-06-24_14h45.13.626,LearnStrategy,2023.2.3,Win32,60.24096386,3,1,13,0.034259302,-0.010185206,1,0,0,0.8969,rock_grid_rect_2,8,15,-1,-1,0.897,0.3648149,-0.387962977,1,0,0,1.9078,Pumice_rect,8,1.908,1,12,0,12,0,1,,,,,,,,,,,,,
6016b656600dc185acab2cc1,TCN,2024-06-24_14h45.13.626,LearnStrategy,2023.2.3,Win32,60.24096386,3,1,14,0.056481467,-0.010185206,1,0,0,0.7799,rock_grid_rect_2,4,13,-1,-1,0.78,0.426851908,-0.244444459,1,0,0,5.7219,Gabbro_rect,4,5.722,1,13,0,13,0,1,,,,,,,,,,,,,
6016b656600dc185acab2cc1,TCN,2024-06-24_14h45.13.626,LearnStrategy,2023.2.3,Win32,60.24096386,3,1,15,0.080555598,-0.013888889,1,0,0,0.7468,rock_grid_rect_2,2,02,-1,-1,0.747,-0.127777735,-0.268518519,1,0,0,2.2892,Basalt_rect,2,2.289,1,14,0,14,0,1,,,,,,,,,,,,,
6016b656600dc185acab2cc1,TCN,2024-06-24_14h45.13.626,LearnStrategy,2023.2.3,Win32,60.24096386,3,1,16,0.097222222,-0.024074095,1,0,0,0.83,rock_grid_rect_2,8,03,-1,-1,0.83,0.359259288,-0.388888889,1,0,0,1.6332,Pumice_rect,8,1.633,1,15,0,15,0,1,,,,,,,,,,,,,
6016b656600dc185acab2cc1,TCN,2024-06-24_14h45.13.626,LearnStrategy,2023.2.3,Win32,60.24096386,3,2,1,,,,,,,,4,08,,,,,,,,,,,1,1.556,0,,,,,,-0.397222201,-0.261111153,1,0,0,1.556,Andesite_rect,0,0,0,0,1,
6016b656600dc185acab2cc1,TCN,2024-06-24_14h45.13.626,LearnStrategy,2023.2.3,Win32,60.24096386,3,2,2,,,,,,,,2,11,,,,,,,,,,,1,1.059,0,,,,,,-0.331481474,-0.247222265,1,0,0,1.059,Andesite_rect,1,0,1,0,1,
6016b656600dc185acab2cc1,TCN,2024-06-24_14h45.13.626,LearnStrategy,2023.2.3,Win32,60.24096386,3,2,3,,,,,,,,7,15,,,,,,,,,,,2,1.091,0,,,,,,-0.081481439,-0.25,1,0,0,1.0907,Basalt_rect,2,0,2,0,1,
6016b656600dc185acab2cc1,TCN,2024-06-24_14h45.13.626,LearnStrategy,2023.2.3,Win32,60.24096386,3,2,4,,,,,,,,6,08,,,,,,,,,,,5,1.324,0,,,,,,-0.402777778,-0.408333319,1,0,0,1.3236,Obsidian_rect,3,0,3,0,1,
6016b656600dc185acab2cc1,TCN,2024-06-24_14h45.13.626,LearnStrategy,2023.2.3,Win32,60.24096386,3,2,5,,,,,,,,3,06,,,,,,,,,,,3,1.142,1,,,,,,0.142592607,-0.26944443,1,0,0,1.142,Diorite_rect,4,0,4,0,1,
6016b656600dc185acab2cc1,TCN,2024-06-24_14h45.13.626,LearnStrategy,2023.2.3,Win32,60.24096386,3,2,6,,,,,,,,4,01,,,,,,,,,,,4,0.892,1,,,,,,0.455555527,-0.238888917,1,0,0,0.8917,Gabbro_rect,5,0,5,0,1,
6016b656600dc185acab2cc1,TCN,2024-06-24_14h45.13.626,LearnStrategy,2023.2.3,Win32,60.24096386,3,2,7,,,,,,,,1,02,,,,,,,,,,,7,1.309,0,,,,,,0.111111111,-0.411111125,1,0,0,1.3089,Peridotite_rect,6,0,6,0,1,
6016b656600dc185acab2cc1,TCN,2024-06-24_14h45.13.626,LearnStrategy,2023.2.3,Win32,60.24096386,3,2,8,,,,,,,,7,06,,,,,,,,,,,6,2.082,0,,,,,,-0.151851866,-0.395370413,1,0,0,2.082,Pegmatite_rect,7,0,7,0,1,
6016b656600dc185acab2cc1,TCN,2024-06-24_14h45.13.626,LearnStrategy,2023.2.3,Win32,60.24096386,3,2,9,,,,,,,,3,11,,,,,,,,,,,3,2.048,1,,,,,,0.077777792,-0.252777806,1,0,0,2.0478,Diorite_rect,8,0,8,0,1,
6016b656600dc185acab2cc1,TCN,2024-06-24_14h45.13.626,LearnStrategy,2023.2.3,Win32,60.24096386,3,2,10,,,,,,,,6,11,,,,,,,,,,,5,1.083,0,,,,,,-0.428703697,-0.414814843,1,0,0,1.0826,Obsidian_rect,9,0,9,0,1,
6016b656600dc185acab2cc1,TCN,2024-06-24_14h45.13.626,LearnStrategy,2023.2.3,Win32,60.24096386,3,2,11,,,,,,,,1,07,,,,,,,,,,,2,1.741,0,,,,,,-0.213888875,-0.253703718,1,0,0,1.741,Basalt_rect,10,0,10,0,1,
6016b656600dc185acab2cc1,TCN,2024-06-24_14h45.13.626,LearnStrategy,2023.2.3,Win32,60.24096386,3,2,12,,,,,,,,8,06,,,,,,,,,,,8,0.943,1,,,,,,0.430555556,-0.390740783,1,0,0,0.9431,Pumice_rect,11,0,11,0,1,
6016b656600dc185acab2cc1,TCN,2024-06-24_14h45.13.626,LearnStrategy,2023.2.3,Win32,60.24096386,3,2,13,,,,,,,,5,04,,,,,,,,,,,5,0.892,1,,,,,,-0.413888896,-0.412037037,1,0,0,0.8921,Obsidian_rect,12,0,12,0,1,
6016b656600dc185acab2cc1,TCN,2024-06-24_14h45.13.626,LearnStrategy,2023.2.3,Win32,60.24096386,3,2,14,,,,,,,,8,14,,,,,,,,,,,8,0.892,1,,,,,,0.44722225,-0.387037065,1,0,0,0.8921,Pumice_rect,13,0,13,0,1,
6016b656600dc185acab2cc1,TCN,2024-06-24_14h45.13.626,LearnStrategy,2023.2.3,Win32,60.24096386,3,2,15,,,,,,,,2,04,,,,,,,,,,,5,0.741,0,,,,,,-0.401851831,-0.407407407,1,0,0,0.7413,Obsidian_rect,14,0,14,0,1,
6016b656600dc185acab2cc1,TCN,2024-06-24_14h45.13.626,LearnStrategy,2023.2.3,Win32,60.24096386,3,2,16,,,,,,,,5,08,,,,,,,,,,,5,0.873,1,,,,,,-0.318518497,-0.416666667,1,0,0,0.8734,Obsidian_rect,15,0,15,0,1,
6016b656600dc185acab2cc1,TCN,2024-06-24_14h45.13.626,LearnStrategy,2023.2.3,Win32,60.24096386,4,1,1,0.045370384,-0.000925947,1,0,0,1.2299,rock_grid_rect_2,7,12,-1,-1,1.23,-0.349074081,-0.261111153,1,0,0,0.9752,Andesite_rect,1,0.975,0,0,0,0,0,1,,,,,,,,,,,,,
6016b656600dc185acab2cc1,TCN,2024-06-24_14h45.13.626,LearnStrategy,2023.2.3,Win32,60.24096386,4,1,2,0.078703704,-0.013888889,1,0,0,1.2463,rock_grid_rect_2,7,05,-1,-1,1.246,-0.09629631,-0.237037023,1,0,0,3.4368,Basalt_rect,2,3.437,0,1,0,1,0,1,,,,,,,,,,,,,
6016b656600dc185acab2cc1,TCN,2024-06-24_14h45.13.626,LearnStrategy,2023.2.3,Win32,60.24096386,4,1,3,0.060185185,-0.019444466,1,0,0,0.781,rock_grid_rect_2,8,03,-1,-1,0.781,0.479629658,-0.407407407,1,0,0,0.9679,Pumice_rect,8,0.968,1,2,0,2,0,1,,,,,,,,,,,,,
6016b656600dc185acab2cc1,TCN,2024-06-24_14h45.13.626,LearnStrategy,2023.2.3,Win32,60.24096386,4,1,4,0.066666709,0.017592571,1,0,0,0.6867,rock_grid_rect_2,3,08,-1,-1,0.687,0.097222222,-0.397222236,1,0,0,2.3605,Peridotite_rect,7,2.361,0,3,0,3,0,1,,,,,,,,,,,,,
6016b656600dc185acab2cc1,TCN,2024-06-24_14h45.13.626,LearnStrategy,2023.2.3,Win32,60.24096386,4,1,5,0.043518561,-0.011111118,1,0,0,1.045,rock_grid_rect_2,8,15,-1,-1,1.045,0.37962963,-0.402777778,1,0,0,1.0726,Pumice_rect,8,1.073,1,4,0,4,0,1,,,,,,,,,,,,,
6016b656600dc185acab2cc1,TCN,2024-06-24_14h45.13.626,LearnStrategy,2023.2.3,Win32,60.24096386,4,1,6,0.100000028,-0.009259259,1,0,0,1.5494,rock_grid_rect_2,1,04,-1,-1,1.549,-0.333333333,-0.259259259,1,0,0,1.5955,Andesite_rect,1,1.595,1,5,0,5,0,1,,,,,,,,,,,,,
6016b656600dc185acab2cc1,TCN,2024-06-24_14h45.13.626,LearnStrategy,2023.2.3,Win32,60.24096386,4,1,7,-0.002777735,-0.011111118,1,0,0,0.8308,rock_grid_rect_2,6,03,-1,-1,0.831,0.05740745,-0.262037065,1,0,0,1.6997,Diorite_rect,3,1.7,0,6,0,6,0,1,,,,,,,,,,,,,
6016b656600dc185acab2cc1,TCN,2024-06-24_14h45.13.626,LearnStrategy,2023.2.3,Win32,60.24096386,4,1,8,0.008333347,-0.012962977,1,0,0,0.8858,rock_grid_rect_2,4,05,-1,-1,0.886,-0.170370384,-0.395370413,1,0,0,2.1364,Pegmatite_rect,6,2.136,0,7,0,7,0,1,,,,,,,,,,,,,
6016b656600dc185acab2cc1,TCN,2024-06-24_14h45.13.626,LearnStrategy,2023.2.3,Win32,60.24096386,4,1,9,0.085185228,0.0074074,1,0,0,0.7465,rock_grid_rect_2,4,14,-1,-1,0.746,-0.095370328,-0.259259259,1,0,0,2.1742,Basalt_rect,2,2.174,0,8,0,8,0,1,,,,,,,,,,,,,
6016b656600dc185acab2cc1,TCN,2024-06-24_14h45.13.626,LearnStrategy,2023.2.3,Win32,60.24096386,4,1,10,0.133333347,-0.021296289,1,0,0,0.7796,rock_grid_rect_2,5,06,-1,-1,0.78,-0.369444423,-0.392592607,1,0,0,0.9818,Obsidian_rect,5,0.982,1,9,0,9,0,1,,,,,,,,,,,,,
6016b656600dc185acab2cc1,TCN,2024-06-24_14h45.13.626,LearnStrategy,2023.2.3,Win32,60.24096386,4,1,11,0.046296296,0.00462963,1,0,0,0.6324,rock_grid_rect_2,1,09,-1,-1,0.632,-0.350925905,-0.259259259,1,0,0,1.6319,Andesite_rect,1,1.632,1,10,0,10,0,1,,,,,,,,,,,,,
6016b656600dc185acab2cc1,TCN,2024-06-24_14h45.13.626,LearnStrategy,2023.2.3,Win32,60.24096386,4,1,12,0.092592593,-0.0074074,1,0,0,0.9343,rock_grid_rect_2,5,12,-1,-1,0.934,-0.395370377,-0.389814801,1,0,0,1.0779,Obsidian_rect,5,1.078,1,11,0,11,0,1,,,,,,,,,,,,,
6016b656600dc185acab2cc1,TCN,2024-06-24_14h45.13.626,LearnStrategy,2023.2.3,Win32,60.24096386,4,1,13,-0.02870369,-0.012962977,1,0,0,1.0189,rock_grid_rect_2,6,16,-1,-1,1.019,0.136111153,-0.396296325,1,0,0,2.8444,Peridotite_rect,7,2.844,0,12,0,12,0,1,,,,,,,,,,,,,
6016b656600dc185acab2cc1,TCN,2024-06-24_14h45.13.626,LearnStrategy,2023.2.3,Win32,60.24096386,4,1,14,0.092592593,-0.012962977,1,0,0,0.8633,rock_grid_rect_2,2,05,-1,-1,0.863,-0.113888847,-0.229629658,1,0,0,1.067,Basalt_rect,2,1.067,1,13,0,13,0,1,,,,,,,,,,,,,
6016b656600dc185acab2cc1,TCN,2024-06-24_14h45.13.626,LearnStrategy,2023.2.3,Win32,60.24096386,4,1,15,-0.012036995,0.000925912,1,0,0,0.7307,rock_grid_rect_2,2,14,-1,-1,0.731,0.37962963,-0.271296325,1,0,0,2.0663,Gabbro_rect,4,2.066,0,14,0,14,0,1,,,,,,,,,,,,,
6016b656600dc185acab2cc1,TCN,2024-06-24_14h45.13.626,LearnStrategy,2023.2.3,Win32,60.24096386,4,1,16,0.123148176,-0.008333347,1,0,0,1.1295,rock_grid_rect_2,3,14,-1,-1,1.13,0.115740741,-0.25462963,1,0,0,1.2333,Diorite_rect,3,1.233,1,15,0,15,0,1,,,,,,,,,,,,,
6016b656600dc185acab2cc1,TCN,2024-06-24_14h45.13.626,LearnStrategy,2023.2.3,Win32,60.24096386,4,2,1,,,,,,,,6,11,,,,,,,,,,,5,1.167,0,,,,,,-0.364814794,-0.388888889,1,0,0,1.1672,Obsidian_rect,0,0,0,0,1,
6016b656600dc185acab2cc1,TCN,2024-06-24_14h45.13.626,LearnStrategy,2023.2.3,Win32,60.24096386,4,2,2,,,,,,,,5,04,,,,,,,,,,,5,0.848,1,,,,,,-0.442592586,-0.387962977,1,0,0,0.8484,Obsidian_rect,1,0,1,0,1,
6016b656600dc185acab2cc1,TCN,2024-06-24_14h45.13.626,LearnStrategy,2023.2.3,Win32,60.24096386,4,2,3,,,,,,,,3,06,,,,,,,,,,,3,1.532,1,,,,,,0.152777778,-0.244444459,1,0,0,1.5317,Diorite_rect,2,0,2,0,1,
6016b656600dc185acab2cc1,TCN,2024-06-24_14h45.13.626,LearnStrategy,2023.2.3,Win32,60.24096386,4,2,4,,,,,,,,1,07,,,,,,,,,,,2,2.516,0,,,,,,-0.112037023,-0.243518547,1,0,0,2.5158,Basalt_rect,3,0,3,0,1,
6016b656600dc185acab2cc1,TCN,2024-06-24_14h45.13.626,LearnStrategy,2023.2.3,Win32,60.24096386,4,2,5,,,,,,,,8,16,,,,,,,,,,,8,1.135,1,,,,,,0.368518547,-0.386111153,1,0,0,1.1346,Pumice_rect,4,0,4,0,1,
6016b656600dc185acab2cc1,TCN,2024-06-24_14h45.13.626,LearnStrategy,2023.2.3,Win32,60.24096386,4,2,6,,,,,,,,6,07,,,,,,,,,,,5,1.09,0,,,,,,-0.362037023,-0.39907406,1,0,0,1.0904,Obsidian_rect,5,0,5,0,1,
6016b656600dc185acab2cc1,TCN,2024-06-24_14h45.13.626,LearnStrategy,2023.2.3,Win32,60.24096386,4,2,7,,,,,,,,4,15,,,,,,,,,,,1,0.989,0,,,,,,-0.363888882,-0.268518519,1,0,0,0.9891,Andesite_rect,6,0,6,0,1,
6016b656600dc185acab2cc1,TCN,2024-06-24_14h45.13.626,LearnStrategy,2023.2.3,Win32,60.24096386,4,2,8,,,,,,,,4,01,,,,,,,,,,,3,0.691,0,,,,,,0.12962963,-0.258333347,1,0,0,0.6905,Diorite_rect,7,0,7,0,1,
6016b656600dc185acab2cc1,TCN,2024-06-24_14h45.13.626,LearnStrategy,2023.2.3,Win32,60.24096386,4,2,9,,,,,,,,5,02,,,,,,,,,,,5,0.957,1,,,,,,-0.3824074,-0.396296325,1,0,0,0.9566,Obsidian_rect,8,0,8,0,1,
6016b656600dc185acab2cc1,TCN,2024-06-24_14h45.13.626,LearnStrategy,2023.2.3,Win32,60.24096386,4,2,10,,,,,,,,8,06,,,,,,,,,,,8,1.308,1,,,,,,0.345370399,-0.386111153,1,0,0,1.308,Pumice_rect,9,0,9,0,1,
6016b656600dc185acab2cc1,TCN,2024-06-24_14h45.13.626,LearnStrategy,2023.2.3,Win32,60.24096386,4,2,11,,,,,,,,2,01,,,,,,,,,,,1,2.74,0,,,,,,-0.342592593,-0.264814801,1,0,0,2.7399,Andesite_rect,10,0,10,0,1,
6016b656600dc185acab2cc1,TCN,2024-06-24_14h45.13.626,LearnStrategy,2023.2.3,Win32,60.24096386,4,2,12,,,,,,,,7,06,,,,,,,,,,,7,2.299,1,,,,,,0.140740783,-0.40370369,1,0,0,2.2992,Peridotite_rect,11,0,11,0,1,
6016b656600dc185acab2cc1,TCN,2024-06-24_14h45.13.626,LearnStrategy,2023.2.3,Win32,60.24096386,4,2,13,,,,,,,,7,10,,,,,,,,,,,7,1.464,1,,,,,,0.063888903,-0.409259302,1,0,0,1.4635,Peridotite_rect,12,0,12,0,1,
6016b656600dc185acab2cc1,TCN,2024-06-24_14h45.13.626,LearnStrategy,2023.2.3,Win32,60.24096386,4,2,14,,,,,,,,3,07,,,,,,,,,,,3,0.908,1,,,,,,0.162962949,-0.265740783,1,0,0,0.9077,Diorite_rect,13,0,13,0,1,
6016b656600dc185acab2cc1,TCN,2024-06-24_14h45.13.626,LearnStrategy,2023.2.3,Win32,60.24096386,4,2,15,,,,,,,,1,05,,,,,,,,,,,2,0.793,0,,,,,,-0.135185171,-0.239814829,1,0,0,0.7931,Basalt_rect,14,0,14,0,1,
6016b656600dc185acab2cc1,TCN,2024-06-24_14h45.13.626,LearnStrategy,2023.2.3,Win32,60.24096386,4,2,16,,,,,,,,2,08,,,,,,,,,,,5,1.025,0,,,,,,-0.432407414,-0.392592607,1,0,0,1.0252,Obsidian_rect,15,0,15,0,1,
6016b656600dc185acab2cc1,TCN,2024-06-24_14h45.13.626,LearnStrategy,2023.2.3,Win32,60.24096386,5,1,1,0.060185185,0.01666666,1,0,0,0.8813,rock_grid_rect_2,6,09,-1,-1,0.881,0.087962963,-0.268518519,1,0,0,2.2473,Diorite_rect,3,2.247,0,0,0,0,0,1,,,,,,,,,,,,,
6016b656600dc185acab2cc1,TCN,2024-06-24_14h45.13.626,LearnStrategy,2023.2.3,Win32,60.24096386,5,1,2,0.054629644,-0.005555577,1,0,0,0.7302,rock_grid_rect_2,3,15,-1,-1,0.73,-0.135185171,-0.250925912,1,0,0,0.8013,Basalt_rect,2,0.801,0,1,0,1,0,1,,,,,,,,,,,,,
6016b656600dc185acab2cc1,TCN,2024-06-24_14h45.13.626,LearnStrategy,2023.2.3,Win32,60.24096386,5,1,3,0.063888903,-0.010185206,1,0,0,0.8535,rock_grid_rect_2,5,16,-1,-1,0.853,-0.393518519,-0.407407407,1,0,0,0.9959,Obsidian_rect,5,0.996,1,2,0,2,0,1,,,,,,,,,,,,,
6016b656600dc185acab2cc1,TCN,2024-06-24_14h45.13.626,LearnStrategy,2023.2.3,Win32,60.24096386,5,1,4,0.025000042,-0.011111118,1,0,0,0.8024,rock_grid_rect_2,1,16,-1,-1,0.802,-0.364814794,-0.25462963,1,0,0,1.0801,Andesite_rect,1,1.08,1,3,0,3,0,1,,,,,,,,,,,,,
6016b656600dc185acab2cc1,TCN,2024-06-24_14h45.13.626,LearnStrategy,2023.2.3,Win32,60.24096386,5,1,5,0.05277782,-0.001851859,1,0,0,0.948,rock_grid_rect_2,4,16,-1,-1,0.948,-0.389814801,-0.396296325,1,0,0,1.0351,Obsidian_rect,5,1.035,0,4,0,4,0,1,,,,,,,,,,,,,
6016b656600dc185acab2cc1,TCN,2024-06-24_14h45.13.626,LearnStrategy,2023.2.3,Win32,60.24096386,5,1,6,0.086111139,-0.005555577,1,0,0,0.7342,rock_grid_rect_2,4,12,-1,-1,0.734,0.132407436,-0.252777806,1,0,0,4.0249,Diorite_rect,3,4.025,0,5,0,5,0,1,,,,,,,,,,,,,
6016b656600dc185acab2cc1,TCN,2024-06-24_14h45.13.626,LearnStrategy,2023.2.3,Win32,60.24096386,5,1,7,0.099074116,0.0074074,1,0,0,0.7199,rock_grid_rect_2,3,02,-1,-1,0.72,-0.39907406,-0.411111125,1,0,0,1.0161,Obsidian_rect,5,1.016,0,6,0,6,0,1,,,,,,,,,,,,,
6016b656600dc185acab2cc1,TCN,2024-06-24_14h45.13.626,LearnStrategy,2023.2.3,Win32,60.24096386,5,1,8,0.117592635,-0.018518519,1,0,0,0.6949,rock_grid_rect_2,5,11,-1,-1,0.695,-0.37962963,-0.396296325,1,0,0,0.8676,Obsidian_rect,5,0.868,1,7,0,7,0,1,,,,,,,,,,,,,
6016b656600dc185acab2cc1,TCN,2024-06-24_14h45.13.626,LearnStrategy,2023.2.3,Win32,60.24096386,5,1,9,0.054629644,-0.006481489,1,0,0,0.7506,rock_grid_rect_2,8,08,-1,-1,0.751,0.414814843,-0.391666695,1,0,0,1.0951,Pumice_rect,8,1.095,1,8,0,8,0,1,,,,,,,,,,,,,
6016b656600dc185acab2cc1,TCN,2024-06-24_14h45.13.626,LearnStrategy,2023.2.3,Win32,60.24096386,5,1,10,0.109259288,0,1,0,0,0.6697,rock_grid_rect_2,6,06,-1,-1,0.67,-0.112037023,-0.411111125,1,0,0,2.261,Pegmatite_rect,6,2.261,1,9,0,9,0,1,,,,,,,,,,,,,
6016b656600dc185acab2cc1,TCN,2024-06-24_14h45.13.626,LearnStrategy,2023.2.3,Win32,60.24096386,5,1,11,0.065740727,-0.018518519,1,0,0,0.77,rock_grid_rect_2,7,02,-1,-1,0.77,0.150000042,-0.418518561,1,0,0,1.1783,Peridotite_rect,7,1.178,1,10,0,10,0,1,,,,,,,,,,,,,
6016b656600dc185acab2cc1,TCN,2024-06-24_14h45.13.626,LearnStrategy,2023.2.3,Win32,60.24096386,5,1,12,0.106481481,-0.010185206,1,0,0,0.7632,rock_grid_rect_2,2,02,-1,-1,0.763,-0.113888847,-0.236111111,1,0,0,0.9161,Basalt_rect,2,0.916,1,11,0,11,0,1,,,,,,,,,,,,,
6016b656600dc185acab2cc1,TCN,2024-06-24_14h45.13.626,LearnStrategy,2023.2.3,Win32,60.24096386,5,1,13,0.112037023,-0.010185206,1,0,0,0.8202,rock_grid_rect_2,1,06,-1,-1,0.82,0.171296296,-0.251851894,1,0,0,1.5283,Diorite_rect,3,1.528,0,12,0,12,0,1,,,,,,,,,,,,,
6016b656600dc185acab2cc1,TCN,2024-06-24_14h45.13.626,LearnStrategy,2023.2.3,Win32,60.24096386,5,1,14,0.078703704,0.003703683,1,0,0,0.853,rock_grid_rect_2,7,08,-1,-1,0.853,0.12962963,-0.237963005,1,0,0,0.9285,Diorite_rect,3,0.928,0,13,0,13,0,1,,,,,,,,,,,,,
6016b656600dc185acab2cc1,TCN,2024-06-24_14h45.13.626,LearnStrategy,2023.2.3,Win32,60.24096386,5,1,15,0.12037037,-0.020370377,1,0,0,0.7031,rock_grid_rect_2,8,13,-1,-1,0.703,0.386111083,-0.389814801,1,0,0,0.9455,Pumice_rect,8,0.945,1,14,0,14,0,1,,,,,,,,,,,,,
6016b656600dc185acab2cc1,TCN,2024-06-24_14h45.13.626,LearnStrategy,2023.2.3,Win32,60.24096386,5,1,16,0.137037065,0.013888889,1,0,0,0.6672,rock_grid_rect_2,2,10,-1,-1,0.667,-0.348148134,-0.410185213,1,0,0,0.9451,Obsidian_rect,5,0.945,0,15,0,15,0,1,,,,,,,,,,,,,
6016b656600dc185acab2cc1,TCN,2024-06-24_14h45.13.626,LearnStrategy,2023.2.3,Win32,60.24096386,5,2,1,,,,,,,,4,03,,,,,,,,,,,4,1.831,1,,,,,,0.398148148,-0.260185171,1,0,0,1.8308,Gabbro_rect,0,0,0,0,1,
6016b656600dc185acab2cc1,TCN,2024-06-24_14h45.13.626,LearnStrategy,2023.2.3,Win32,60.24096386,5,2,2,,,,,,,,5,08,,,,,,,,,,,5,1.088,1,,,,,,-0.441666674,-0.39444443,1,0,0,1.0879,Obsidian_rect,1,0,1,0,1,
6016b656600dc185acab2cc1,TCN,2024-06-24_14h45.13.626,LearnStrategy,2023.2.3,Win32,60.24096386,5,2,3,,,,,,,,3,11,,,,,,,,,,,7,1.616,0,,,,,,0.10092594,-0.39444443,1,0,0,1.616,Peridotite_rect,2,0,2,0,1,
6016b656600dc185acab2cc1,TCN,2024-06-24_14h45.13.626,LearnStrategy,2023.2.3,Win32,60.24096386,5,2,4,,,,,,,,6,10,,,,,,,,,,,3,1.59,0,,,,,,0.112963005,-0.240740741,1,0,0,1.5897,Diorite_rect,3,0,3,0,1,
6016b656600dc185acab2cc1,TCN,2024-06-24_14h45.13.626,LearnStrategy,2023.2.3,Win32,60.24096386,5,2,5,,,,,,,,8,09,,,,,,,,,,,8,1.773,1,,,,,,0.373148176,-0.400925954,1,0,0,1.7726,Pumice_rect,4,0,4,0,1,
6016b656600dc185acab2cc1,TCN,2024-06-24_14h45.13.626,LearnStrategy,2023.2.3,Win32,60.24096386,5,2,6,,,,,,,,8,10,,,,,,,,,,,8,1.091,1,,,,,,0.501851824,-0.408333319,1,0,0,1.0906,Pumice_rect,5,0,5,0,1,
6016b656600dc185acab2cc1,TCN,2024-06-24_14h45.13.626,LearnStrategy,2023.2.3,Win32,60.24096386,5,2,7,,,,,,,,7,16,,,,,,,,,,,7,2.324,1,,,,,,0.166666667,-0.414814843,1,0,0,2.3245,Peridotite_rect,6,0,6,0,1,
6016b656600dc185acab2cc1,TCN,2024-06-24_14h45.13.626,LearnStrategy,2023.2.3,Win32,60.24096386,5,2,8,,,,,,,,3,09,,,,,,,,,,,6,1.059,0,,,,,,-0.128703718,-0.404629672,1,0,0,1.0586,Pegmatite_rect,7,0,7,0,1,
6016b656600dc185acab2cc1,TCN,2024-06-24_14h45.13.626,LearnStrategy,2023.2.3,Win32,60.24096386,5,2,9,,,,,,,,1,14,,,,,,,,,,,2,0.893,0,,,,,,-0.10555557,-0.257407436,1,0,0,0.8931,Basalt_rect,8,0,8,0,1,
6016b656600dc185acab2cc1,TCN,2024-06-24_14h45.13.626,LearnStrategy,2023.2.3,Win32,60.24096386,5,2,10,,,,,,,,2,16,,,,,,,,,,,4,0.891,0,,,,,,0.414814843,-0.262962977,1,0,0,0.8914,Gabbro_rect,9,0,9,0,1,
6016b656600dc185acab2cc1,TCN,2024-06-24_14h45.13.626,LearnStrategy,2023.2.3,Win32,60.24096386,5,2,11,,,,,,,,7,13,,,,,,,,,,,3,2.857,0,,,,,,0.128703718,-0.238888917,1,0,0,2.8567,Diorite_rect,10,0,10,0,1,
6016b656600dc185acab2cc1,TCN,2024-06-24_14h45.13.626,LearnStrategy,2023.2.3,Win32,60.24096386,5,2,12,,,,,,,,5,10,,,,,,,,,,,5,0.754,1,,,,,,-0.375,-0.408333319,1,0,0,0.7535,Obsidian_rect,11,0,11,0,1,
6016b656600dc185acab2cc1,TCN,2024-06-24_14h45.13.626,LearnStrategy,2023.2.3,Win32,60.24096386,5,2,13,,,,,,,,6,15,,,,,,,,,,,7,2.19,0,,,,,,0.12037037,-0.401851866,1,0,0,2.1896,Peridotite_rect,12,0,12,0,1,
6016b656600dc185acab2cc1,TCN,2024-06-24_14h45.13.626,LearnStrategy,2023.2.3,Win32,60.24096386,5,2,14,,,,,,,,1,10,,,,,,,,,,,1,5.985,1,,,,,,-0.387962942,-0.248148176,1,0,0,5.9851,Andesite_rect,13,0,13,0,1,
6016b656600dc185acab2cc1,TCN,2024-06-24_14h45.13.626,LearnStrategy,2023.2.3,Win32,60.24096386,5,2,15,,,,,,,,2,04,,,,,,,,,,,5,1.637,0,,,,,,-0.397222201,-0.407407407,1,0,0,1.6375,Obsidian_rect,14,0,14,0,1,
6016b656600dc185acab2cc1,TCN,2024-06-24_14h45.13.626,LearnStrategy,2023.2.3,Win32,60.24096386,5,2,16,,,,,,,,4,08,,,,,,,,,,,3,2.057,0,,,,,,0.10555557,-0.259259259,1,0,0,2.057,Diorite_rect,15,0,15,0,1,
6016b656600dc185acab2cc1,TCN,2024-06-24_14h45.13.626,LearnStrategy,2023.2.3,Win32,60.24096386,6,1,1,0.131481524,0,1,0,0,0.7464,rock_grid_rect_2,4,09,-1,-1,0.746,-0.372222229,-0.414814843,1,0,0,1.3598,Obsidian_rect,5,1.36,0,0,0,0,0,1,,,,,,,,,,,,,
6016b656600dc185acab2cc1,TCN,2024-06-24_14h45.13.626,LearnStrategy,2023.2.3,Win32,60.24096386,6,1,2,0.136111153,0,1,0,0,0.7798,rock_grid_rect_2,3,13,-1,-1,0.78,0.162037037,-0.263888889,1,0,0,1.1757,Diorite_rect,3,1.176,1,1,0,1,0,1,,,,,,,,,,,,,
6016b656600dc185acab2cc1,TCN,2024-06-24_14h45.13.626,LearnStrategy,2023.2.3,Win32,60.24096386,6,1,3,0.062037079,0.013888889,1,0,0,0.8803,rock_grid_rect_2,6,05,-1,-1,0.88,-0.437962956,-0.412037037,1,0,0,4.3398,Obsidian_rect,5,4.34,0,2,0,2,0,1,,,,,,,,,,,,,
6016b656600dc185acab2cc1,TCN,2024-06-24_14h45.13.626,LearnStrategy,2023.2.3,Win32,60.24096386,6,1,4,0.067592621,-0.009259259,1,0,0,1.1462,rock_grid_rect_2,6,13,-1,-1,1.146,-0.341666645,-0.260185171,1,0,0,1.4906,Andesite_rect,1,1.491,0,3,0,3,0,1,,,,,,,,,,,,,
6016b656600dc185acab2cc1,TCN,2024-06-24_14h45.13.626,LearnStrategy,2023.2.3,Win32,60.24096386,6,1,5,0.049074102,-0.0074074,1,0,0,0.9462,rock_grid_rect_2,1,01,-1,-1,0.946,-0.426851838,-0.408333319,1,0,0,1.3923,Obsidian_rect,5,1.392,0,4,0,4,0,1,,,,,,,,,,,,,
6016b656600dc185acab2cc1,TCN,2024-06-24_14h45.13.626,LearnStrategy,2023.2.3,Win32,60.24096386,6,1,6,0.059259273,-0.006481489,1,0,0,0.9462,rock_grid_rect_2,8,02,-1,-1,0.946,0.344444416,-0.390740783,1,0,0,1.0755,Pumice_rect,8,1.076,1,5,0,5,0,1,,,,,,,,,,,,,
6016b656600dc185acab2cc1,TCN,2024-06-24_14h45.13.626,LearnStrategy,2023.2.3,Win32,60.24096386,6,1,7,0.102777764,-0.014814836,1,0,0,0.7799,rock_grid_rect_2,7,14,-1,-1,0.78,-0.413888896,-0.244444459,1,0,0,2.4124,Andesite_rect,1,2.412,0,6,0,6,0,1,,,,,,,,,,,,,
6016b656600dc185acab2cc1,TCN,2024-06-24_14h45.13.626,LearnStrategy,2023.2.3,Win32,60.24096386,6,1,8,0.023148148,-0.000925947,1,0,0,0.9798,rock_grid_rect_2,2,09,-1,-1,0.98,-0.174074032,-0.257407436,1,0,0,1.4756,Basalt_rect,2,1.476,1,7,0,7,0,1,,,,,,,,,,,,,
6016b656600dc185acab2cc1,TCN,2024-06-24_14h45.13.626,LearnStrategy,2023.2.3,Win32,60.24096386,6,1,9,-0.006481453,0.008333312,1,0,0,0.7158,rock_grid_rect_2,7,07,-1,-1,0.716,0.089814857,-0.24537037,1,0,0,0.778,Diorite_rect,3,0.778,0,8,0,8,0,1,,,,,,,,,,,,,
6016b656600dc185acab2cc1,TCN,2024-06-24_14h45.13.626,LearnStrategy,2023.2.3,Win32,60.24096386,6,1,10,0.056481467,0.0074074,1,0,0,0.6982,rock_grid_rect_2,3,10,-1,-1,0.698,0.421296296,-0.248148176,1,0,0,1.6242,Gabbro_rect,4,1.624,0,9,0,9,0,1,,,,,,,,,,,,,
6016b656600dc185acab2cc1,TCN,2024-06-24_14h45.13.626,LearnStrategy,2023.2.3,Win32,60.24096386,6,1,11,0.095370399,0.015740748,1,0,0,0.6307,rock_grid_rect_2,2,12,-1,-1,0.631,0.378703788,-0.247222265,1,0,0,2.3956,Gabbro_rect,4,2.396,0,10,0,10,0,1,,,,,,,,,,,,,
6016b656600dc185acab2cc1,TCN,2024-06-24_14h45.13.626,LearnStrategy,2023.2.3,Win32,60.24096386,6,1,12,0.066666709,-0.010185206,1,0,0,0.7972,rock_grid_rect_2,5,07,-1,-1,0.797,-0.365740741,-0.389814801,1,0,0,0.7578,Obsidian_rect,5,0.758,1,11,0,11,0,1,,,,,,,,,,,,,
6016b656600dc185acab2cc1,TCN,2024-06-24_14h45.13.626,LearnStrategy,2023.2.3,Win32,60.24096386,6,1,13,0.062037079,0.008333312,1,0,0,0.68,rock_grid_rect_2,8,04,-1,-1,0.68,0.425925926,-0.400000042,1,0,0,1.0089,Pumice_rect,8,1.009,1,12,0,12,0,1,,,,,,,,,,,,,
6016b656600dc185acab2cc1,TCN,2024-06-24_14h45.13.626,LearnStrategy,2023.2.3,Win32,60.24096386,6,1,14,0.012962977,-0.0074074,1,0,0,0.6976,rock_grid_rect_2,4,13,-1,-1,0.698,0.398148148,-0.247222265,1,0,0,1.4413,Gabbro_rect,4,1.441,1,13,0,13,0,1,,,,,,,,,,,,,
6016b656600dc185acab2cc1,TCN,2024-06-24_14h45.13.626,LearnStrategy,2023.2.3,Win32,60.24096386,6,1,15,0.14444443,-0.024074095,1,0,0,0.8634,rock_grid_rect_2,1,11,-1,-1,0.863,-0.369444423,-0.228703746,1,0,0,1.0581,Andesite_rect,1,1.058,1,14,0,14,0,1,,,,,,,,,,,,,
6016b656600dc185acab2cc1,TCN,2024-06-24_14h45.13.626,LearnStrategy,2023.2.3,Win32,60.24096386,6,1,16,0.054629644,-0.021296289,1,0,0,0.748,rock_grid_rect_2,5,05,-1,-1,0.748,-0.381481489,-0.412962949,1,0,0,1.3432,Obsidian_rect,5,1.343,1,15,0,15,0,1,,,,,,,,,,,,,
6016b656600dc185acab2cc1,TCN,2024-06-24_14h45.13.626,LearnStrategy,2023.2.3,Win32,60.24096386,6,2,1,,,,,,,,1,02,,,,,,,,,,,1,3.921,1,,,,,,-0.400925919,-0.25,1,0,0,3.9212,Andesite_rect,0,0,0,0,1,
6016b656600dc185acab2cc1,TCN,2024-06-24_14h45.13.626,LearnStrategy,2023.2.3,Win32,60.24096386,6,2,2,,,,,,,,3,12,,,,,,,,,,,3,1.088,1,,,,,,0.166666667,-0.263888889,1,0,0,1.0879,Diorite_rect,1,0,1,0,1,
6016b656600dc185acab2cc1,TCN,2024-06-24_14h45.13.626,LearnStrategy,2023.2.3,Win32,60.24096386,6,2,3,,,,,,,,8,05,,,,,,,,,,,8,0.974,1,,,,,,0.373148176,-0.392592607,1,0,0,0.9739,Pumice_rect,2,0,2,0,1,
6016b656600dc185acab2cc1,TCN,2024-06-24_14h45.13.626,LearnStrategy,2023.2.3,Win32,60.24096386,6,2,4,,,,,,,,2,11,,,,,,,,,,,1,1.223,0,,,,,,-0.407407407,-0.247222265,1,0,0,1.2235,Andesite_rect,3,0,3,0,1,
6016b656600dc185acab2cc1,TCN,2024-06-24_14h45.13.626,LearnStrategy,2023.2.3,Win32,60.24096386,6,2,5,,,,,,,,8,14,,,,,,,,,,,8,1.025,1,,,,,,0.432407379,-0.404629672,1,0,0,1.0248,Pumice_rect,4,0,4,0,1,
6016b656600dc185acab2cc1,TCN,2024-06-24_14h45.13.626,LearnStrategy,2023.2.3,Win32,60.24096386,6,2,6,,,,,,,,7,15,,,,,,,,,,,7,1.41,1,,,,,,0.074999986,-0.378703718,1,0,0,1.4104,Peridotite_rect,5,0,5,0,1,
6016b656600dc185acab2cc1,TCN,2024-06-24_14h45.13.626,LearnStrategy,2023.2.3,Win32,60.24096386,6,2,7,,,,,,,,4,10,,,,,,,,,,,2,2.59,0,,,,,,-0.103703675,-0.262037065,1,0,0,2.5903,Basalt_rect,6,0,6,0,1,
6016b656600dc185acab2cc1,TCN,2024-06-24_14h45.13.626,LearnStrategy,2023.2.3,Win32,60.24096386,6,2,8,,,,,,,,5,09,,,,,,,,,,,5,0.973,1,,,,,,-0.493518511,-0.421296296,1,0,0,0.9727,Obsidian_rect,7,0,7,0,1,
6016b656600dc185acab2cc1,TCN,2024-06-24_14h45.13.626,LearnStrategy,2023.2.3,Win32,60.24096386,6,2,9,,,,,,,,6,12,,,,,,,,,,,6,2.092,1,,,,,,-0.135185171,-0.410185213,1,0,0,2.092,Pegmatite_rect,8,0,8,0,1,
6016b656600dc185acab2cc1,TCN,2024-06-24_14h45.13.626,LearnStrategy,2023.2.3,Win32,60.24096386,6,2,10,,,,,,,,1,03,,,,,,,,,,,2,1.291,0,,,,,,-0.128703718,-0.25,1,0,0,1.2912,Basalt_rect,9,0,9,0,1,
6016b656600dc185acab2cc1,TCN,2024-06-24_14h45.13.626,LearnStrategy,2023.2.3,Win32,60.24096386,6,2,11,,,,,,,,3,16,,,,,,,,,,,3,0.892,1,,,,,,0.12962963,-0.264814801,1,0,0,0.8921,Diorite_rect,10,0,10,0,1,
6016b656600dc185acab2cc1,TCN,2024-06-24_14h45.13.626,LearnStrategy,2023.2.3,Win32,60.24096386,6,2,12,,,,,,,,7,04,,,,,,,,,,,7,0.923,1,,,,,,0.170370384,-0.390740783,1,0,0,0.9232,Peridotite_rect,11,0,11,0,1,
6016b656600dc185acab2cc1,TCN,2024-06-24_14h45.13.626,LearnStrategy,2023.2.3,Win32,60.24096386,6,2,13,,,,,,,,5,14,,,,,,,,,,,5,0.841,1,,,,,,-0.409259266,-0.420370384,1,0,0,0.8413,Obsidian_rect,12,0,12,0,1,
6016b656600dc185acab2cc1,TCN,2024-06-24_14h45.13.626,LearnStrategy,2023.2.3,Win32,60.24096386,6,2,14,,,,,,,,2,06,,,,,,,,,,,2,1.774,1,,,,,,-0.133333347,-0.257407436,1,0,0,1.7739,Basalt_rect,13,0,13,0,1,
6016b656600dc185acab2cc1,TCN,2024-06-24_14h45.13.626,LearnStrategy,2023.2.3,Win32,60.24096386,6,2,15,,,,,,,,4,11,,,,,,,,,,,4,1.242,1,,,,,,0.430555556,-0.247222265,1,0,0,1.2425,Gabbro_rect,14,0,14,0,1,
6016b656600dc185acab2cc1,TCN,2024-06-24_14h45.13.626,LearnStrategy,2023.2.3,Win32,60.24096386,6,2,16,,,,,,,,6,08,,,,,,,,,,,5,1.398,0,,,,,,-0.443518497,-0.405555584,1,0,0,1.3977,Obsidian_rect,15,0,15,0,1,
6016b656600dc185acab2cc1,TCN,2024-06-24_14h45.13.626,LearnStrategy,2023.2.3,Win32,60.24096386,7,1,1,-0.017592607,0.000925912,1,0,0,1.0648,rock_grid_rect_2,5,16,-1,-1,1.065,-0.385185171,-0.386111153,1,0,0,0.9339,Obsidian_rect,5,0.934,1,0,0,0,0,1,,,,,,,,,,,,,
6016b656600dc185acab2cc1,TCN,2024-06-24_14h45.13.626,LearnStrategy,2023.2.3,Win32,60.24096386,7,1,2,0.05740745,0.001851859,1,0,0,1.0358,rock_grid_rect_2,8,13,-1,-1,1.036,0.312037009,-0.383333347,1,0,0,1.0792,Pumice_rect,8,1.079,1,1,0,1,0,1,,,,,,,,,,,,,
6016b656600dc185acab2cc1,TCN,2024-06-24_14h45.13.626,LearnStrategy,2023.2.3,Win32,60.24096386,7,1,3,0.027777778,0,1,0,0,1.1306,rock_grid_rect_2,3,10,-1,-1,1.131,0.151851866,-0.256481524,1,0,0,1.4198,Diorite_rect,3,1.42,1,2,0,2,0,1,,,,,,,,,,,,,
6016b656600dc185acab2cc1,TCN,2024-06-24_14h45.13.626,LearnStrategy,2023.2.3,Win32,60.24096386,7,1,4,0.055555556,0.001851859,1,0,0,0.9631,rock_grid_rect_2,6,13,-1,-1,0.963,-0.199999986,-0.409259302,1,0,0,2.9986,Pegmatite_rect,6,2.999,1,3,0,3,0,1,,,,,,,,,,,,,
6016b656600dc185acab2cc1,TCN,2024-06-24_14h45.13.626,LearnStrategy,2023.2.3,Win32,60.24096386,7,1,5,-0.01944443,0.00462963,1,0,0,0.9138,rock_grid_rect_2,3,08,-1,-1,0.914,0.12037037,-0.391666695,1,0,0,2.8737,Peridotite_rect,7,2.874,0,4,0,4,0,1,,,,,,,,,,,,,
6016b656600dc185acab2cc1,TCN,2024-06-24_14h45.13.626,LearnStrategy,2023.2.3,Win32,60.24096386,7,1,6,0.092592593,-0.020370377,1,0,0,0.8968,rock_grid_rect_2,8,15,-1,-1,0.897,0.375925982,-0.39907406,1,0,0,0.8604,Pumice_rect,8,0.86,1,5,0,5,0,1,,,,,,,,,,,,,
6016b656600dc185acab2cc1,TCN,2024-06-24_14h45.13.626,LearnStrategy,2023.2.3,Win32,60.24096386,7,1,7,0.084259245,-0.005555577,1,0,0,0.7302,rock_grid_rect_2,2,02,-1,-1,0.73,-0.426851838,-0.231481481,1,0,0,1.8912,Andesite_rect,1,1.891,0,6,0,6,0,1,,,,,,,,,,,,,
6016b656600dc185acab2cc1,TCN,2024-06-24_14h45.13.626,LearnStrategy,2023.2.3,Win32,60.24096386,7,1,8,0.009259259,-0.005555577,1,0,0,0.6468,rock_grid_rect_2,1,06,-1,-1,0.647,-0.323148127,-0.256481524,1,0,0,0.7754,Andesite_rect,1,0.775,1,7,0,7,0,1,,,,,,,,,,,,,
6016b656600dc185acab2cc1,TCN,2024-06-24_14h45.13.626,LearnStrategy,2023.2.3,Win32,60.24096386,7,1,9,0.12962963,0.0074074,1,0,0,0.9248,rock_grid_rect_2,5,06,-1,-1,0.925,-0.396296289,-0.393518519,1,0,0,2.9061,Obsidian_rect,5,2.906,1,8,0,8,0,1,,,,,,,,,,,,,
6016b656600dc185acab2cc1,TCN,2024-06-24_14h45.13.626,LearnStrategy,2023.2.3,Win32,60.24096386,7,1,10,-0.012036995,0.003703683,1,0,0,1.1818,rock_grid_rect_2,2,09,-1,-1,1.182,-0.107407393,-0.262962977,1,0,0,1.2578,Basalt_rect,2,1.258,1,9,0,9,0,1,,,,,,,,,,,,,
6016b656600dc185acab2cc1,TCN,2024-06-24_14h45.13.626,LearnStrategy,2023.2.3,Win32,60.24096386,7,1,11,0.063888903,-0.008333347,1,0,0,0.7803,rock_grid_rect_2,7,08,-1,-1,0.78,-0.362037023,-0.244444459,1,0,0,1.3255,Andesite_rect,1,1.326,0,10,0,10,0,1,,,,,,,,,,,,,
6016b656600dc185acab2cc1,TCN,2024-06-24_14h45.13.626,LearnStrategy,2023.2.3,Win32,60.24096386,7,1,12,0.068518533,-0.00462963,1,0,0,0.8472,rock_grid_rect_2,7,02,-1,-1,0.847,0.128703718,-0.265740783,1,0,0,1.0765,Diorite_rect,3,1.076,0,11,0,11,0,1,,,,,,,,,,,,,
6016b656600dc185acab2cc1,TCN,2024-06-24_14h45.13.626,LearnStrategy,2023.2.3,Win32,60.24096386,7,1,13,0.061111097,-0.014814836,1,0,0,0.9135,rock_grid_rect_2,6,16,-1,-1,0.913,-0.04814812,-0.397222236,1,0,0,1.3631,Pegmatite_rect,6,1.363,1,12,0,12,0,1,,,,,,,,,,,,,
6016b656600dc185acab2cc1,TCN,2024-06-24_14h45.13.626,LearnStrategy,2023.2.3,Win32,60.24096386,7,1,14,-0.018518519,0.005555541,1,0,0,0.6821,rock_grid_rect_2,4,09,-1,-1,0.682,0.334259316,-0.247222265,1,0,0,1.7746,Gabbro_rect,4,1.775,1,13,0,13,0,1,,,,,,,,,,,,,
6016b656600dc185acab2cc1,TCN,2024-06-24_14h45.13.626,LearnStrategy,2023.2.3,Win32,60.24096386,7,1,15,0.066666709,-0.022222236,1,0,0,0.7958,rock_grid_rect_2,1,16,-1,-1,0.796,-0.15370369,-0.264814801,1,0,0,1.1921,Basalt_rect,2,1.192,0,14,0,14,0,1,,,,,,,,,,,,,
6016b656600dc185acab2cc1,TCN,2024-06-24_14h45.13.626,LearnStrategy,2023.2.3,Win32,60.24096386,7,1,16,0.041666667,-0.006481489,1,0,0,0.6634,rock_grid_rect_2,4,16,-1,-1,0.663,0.399999972,-0.261111153,1,0,0,1.0421,Gabbro_rect,4,1.042,1,15,0,15,0,1,,,,,,,,,,,,,
6016b656600dc185acab2cc1,TCN,2024-06-24_14h45.13.626,LearnStrategy,2023.2.3,Win32,60.24096386,7,2,1,,,,,,,,8,09,,,,,,,,,,,8,4.054,1,,,,,,0.372222194,-0.420370384,1,0,0,4.0544,Pumice_rect,0,0,0,0,1,
6016b656600dc185acab2cc1,TCN,2024-06-24_14h45.13.626,LearnStrategy,2023.2.3,Win32,60.24096386,7,2,2,,,,,,,,4,01,,,,,,,,,,,3,1.202,0,,,,,,0.154629672,-0.25,1,0,0,1.2019,Diorite_rect,1,0,1,0,1,
6016b656600dc185acab2cc1,TCN,2024-06-24_14h45.13.626,LearnStrategy,2023.2.3,Win32,60.24096386,7,2,3,,,,,,,,8,06,,,,,,,,,,,8,1.54,1,,,,,,0.402777778,-0.412037037,1,0,0,1.5403,Pumice_rect,2,0,2,0,1,
6016b656600dc185acab2cc1,TCN,2024-06-24_14h45.13.626,LearnStrategy,2023.2.3,Win32,60.24096386,7,2,4,,,,,,,,5,10,,,,,,,,,,,5,1.257,1,,,,,,-0.389814801,-0.416666667,1,0,0,1.2575,Obsidian_rect,3,0,3,0,1,
6016b656600dc185acab2cc1,TCN,2024-06-24_14h45.13.626,LearnStrategy,2023.2.3,Win32,60.24096386,7,2,5,,,,,,,,3,09,,,,,,,,,,,7,2.056,0,,,,,,0.104629658,-0.409259302,1,0,0,2.0563,Peridotite_rect,4,0,4,0,1,
6016b656600dc185acab2cc1,TCN,2024-06-24_14h45.13.626,LearnStrategy,2023.2.3,Win32,60.24096386,7,2,6,,,,,,,,2,11,,,,,,,,,,,3,1.12,0,,,,,,0.140740783,-0.238888917,1,0,0,1.1199,Diorite_rect,5,0,5,0,1,
6016b656600dc185acab2cc1,TCN,2024-06-24_14h45.13.626,LearnStrategy,2023.2.3,Win32,60.24096386,7,2,7,,,,,,,,4,03,,,,,,,,,,,1,1.425,0,,,,,,-0.335185192,-0.237963005,1,0,0,1.4248,Andesite_rect,6,0,6,0,1,
6016b656600dc185acab2cc1,TCN,2024-06-24_14h45.13.626,LearnStrategy,2023.2.3,Win32,60.24096386,7,2,8,,,,,,,,1,05,,,,,,,,,,,1,1.689,1,,,,,,-0.457407386,-0.237037023,1,0,0,1.6895,Andesite_rect,7,0,7,0,1,
6016b656600dc185acab2cc1,TCN,2024-06-24_14h45.13.626,LearnStrategy,2023.2.3,Win32,60.24096386,7,2,9,,,,,,,,1,07,,,,,,,,,,,3,1.374,0,,,,,,0.10092594,-0.252777806,1,0,0,1.3743,Diorite_rect,8,0,8,0,1,
6016b656600dc185acab2cc1,TCN,2024-06-24_14h45.13.626,LearnStrategy,2023.2.3,Win32,60.24096386,7,2,10,,,,,,,,2,01,,,,,,,,,,,4,1.423,0,,,,,,0.372222194,-0.248148176,1,0,0,1.423,Gabbro_rect,9,0,9,0,1,
6016b656600dc185acab2cc1,TCN,2024-06-24_14h45.13.626,LearnStrategy,2023.2.3,Win32,60.24096386,7,2,11,,,,,,,,7,15,,,,,,,,,,,7,1.173,1,,,,,,0.128703718,-0.388888889,1,0,0,1.1732,Peridotite_rect,10,0,10,0,1,
6016b656600dc185acab2cc1,TCN,2024-06-24_14h45.13.626,LearnStrategy,2023.2.3,Win32,60.24096386,7,2,12,,,,,,,,3,07,,,,,,,,,,,6,0.808,0,,,,,,-0.081481439,-0.411111125,1,0,0,0.8076,Pegmatite_rect,11,0,11,0,1,
6016b656600dc185acab2cc1,TCN,2024-06-24_14h45.13.626,LearnStrategy,2023.2.3,Win32,60.24096386,7,2,13,,,,,,,,7,06,,,,,,,,,,,3,1.151,0,,,,,,0.101851852,-0.25,1,0,0,1.1513,Diorite_rect,12,0,12,0,1,
6016b656600dc185acab2cc1,TCN,2024-06-24_14h45.13.626,LearnStrategy,2023.2.3,Win32,60.24096386,7,2,14,,,,,,,,5,02,,,,,,,,,,,5,0.9,1,,,,,,-0.374074053,-0.393518519,1,0,0,0.8998,Obsidian_rect,13,0,13,0,1,
6016b656600dc185acab2cc1,TCN,2024-06-24_14h45.13.626,LearnStrategy,2023.2.3,Win32,60.24096386,7,2,15,,,,,,,,6,11,,,,,,,,,,,6,3.213,1,,,,,,-0.146296254,-0.412037037,1,0,0,3.2129,Pegmatite_rect,14,0,14,0,1,
6016b656600dc185acab2cc1,TCN,2024-06-24_14h45.13.626,LearnStrategy,2023.2.3,Win32,60.24096386,7,2,16,,,,,,,,6,08,,,,,,,,,,,5,1.161,0,,,,,,-0.427777785,-0.410185213,1,0,0,1.1606,Obsidian_rect,15,0,15,0,1,
6016b656600dc185acab2cc1,TCN,2024-06-24_14h45.13.626,LearnStrategy,2023.2.3,Win32,60.24096386,8,1,1,0.040740755,-0.010185206,1,0,0,1.102,rock_grid_rect_2,4,12,-1,-1,1.102,0.124074088,-0.242592635,1,0,0,1.0148,Diorite_rect,3,1.015,0,0,0,0,0,1,,,,,,,,,,,,,
6016b656600dc185acab2cc1,TCN,2024-06-24_14h45.13.626,LearnStrategy,2023.2.3,Win32,60.24096386,8,1,2,0.044444473,-0.01203703,1,0,0,0.7981,rock_grid_rect_2,7,07,-1,-1,0.798,-0.062037009,-0.265740783,1,0,0,0.7674,Basalt_rect,2,0.767,0,1,0,1,0,1,,,,,,,,,,,,,
6016b656600dc185acab2cc1,TCN,2024-06-24_14h45.13.626,LearnStrategy,2023.2.3,Win32,60.24096386,8,1,3,0.050925926,-0.005555577,1,0,0,0.9133,rock_grid_rect_2,1,11,-1,-1,0.913,-0.368518511,-0.252777806,1,0,0,0.8511,Andesite_rect,1,0.851,1,2,0,2,0,1,,,,,,,,,,,,,
6016b656600dc185acab2cc1,TCN,2024-06-24_14h45.13.626,LearnStrategy,2023.2.3,Win32,60.24096386,8,1,4,0.013888889,-0.000925947,1,0,0,0.9521,rock_grid_rect_2,1,04,-1,-1,0.952,0.187037079,-0.25462963,1,0,0,1.9362,Diorite_rect,3,1.936,0,3,0,3,0,1,,,,,,,,,,,,,
6016b656600dc185acab2cc1,TCN,2024-06-24_14h45.13.626,LearnStrategy,2023.2.3,Win32,60.24096386,8,1,5,0.006481524,-0.020370377,1,0,0,0.9975,rock_grid_rect_2,3,15,-1,-1,0.998,-0.143518519,-0.263888889,1,0,0,0.809,Basalt_rect,2,0.809,0,4,0,4,0,1,,,,,,,,,,,,,
6016b656600dc185acab2cc1,TCN,2024-06-24_14h45.13.626,LearnStrategy,2023.2.3,Win32,60.24096386,8,1,6,0.029629672,0.01203703,1,0,0,0.7147,rock_grid_rect_2,3,02,-1,-1,0.715,0.136111153,-0.385185171,1,0,0,1.2577,Peridotite_rect,7,1.258,0,5,0,5,0,1,,,,,,,,,,,,,
6016b656600dc185acab2cc1,TCN,2024-06-24_14h45.13.626,LearnStrategy,2023.2.3,Win32,60.24096386,8,1,7,0.063888903,-0.001851859,1,0,0,0.9468,rock_grid_rect_2,6,03,-1,-1,0.947,-0.150925884,-0.387037065,1,0,0,0.9268,Pegmatite_rect,6,0.927,1,6,0,6,0,1,,,,,,,,,,,,,
6016b656600dc185acab2cc1,TCN,2024-06-24_14h45.13.626,LearnStrategy,2023.2.3,Win32,60.24096386,8,1,8,0.10092594,-0.020370377,1,0,0,1.563,rock_grid_rect_2,4,14,-1,-1,1.563,0.344444416,-0.237037023,1,0,0,1.9414,Gabbro_rect,4,1.941,1,7,0,7,0,1,,,,,,,,,,,,,
6016b656600dc185acab2cc1,TCN,2024-06-24_14h45.13.626,LearnStrategy,2023.2.3,Win32,60.24096386,8,1,9,0.089814857,0.001851859,1,0,0,1.0149,rock_grid_rect_2,8,02,-1,-1,1.015,0.362037094,-0.407407407,1,0,0,1.408,Pumice_rect,8,1.408,1,8,0,8,0,1,,,,,,,,,,,,,
6016b656600dc185acab2cc1,TCN,2024-06-24_14h45.13.626,LearnStrategy,2023.2.3,Win32,60.24096386,8,1,10,0.039814843,-0.012962977,1,0,0,1.1305,rock_grid_rect_2,2,14,-1,-1,1.13,0.400925954,-0.262037065,1,0,0,1.1263,Gabbro_rect,4,1.126,0,9,0,9,0,1,,,,,,,,,,,,,
6016b656600dc185acab2cc1,TCN,2024-06-24_14h45.13.626,LearnStrategy,2023.2.3,Win32,60.24096386,8,1,11,0.070370356,-0.017592607,1,0,0,0.715,rock_grid_rect_2,5,12,-1,-1,0.715,-0.424074067,-0.406481496,1,0,0,0.7817,Obsidian_rect,5,0.782,1,10,0,10,0,1,,,,,,,,,,,,,
6016b656600dc185acab2cc1,TCN,2024-06-24_14h45.13.626,LearnStrategy,2023.2.3,Win32,60.24096386,8,1,12,0.022222236,0.013888889,1,0,0,0.6802,rock_grid_rect_2,7,05,-1,-1,0.68,0.116666653,-0.256481524,1,0,0,1.9079,Diorite_rect,3,1.908,0,11,0,11,0,1,,,,,,,,,,,,,
6016b656600dc185acab2cc1,TCN,2024-06-24_14h45.13.626,LearnStrategy,2023.2.3,Win32,60.24096386,8,1,13,0.119444459,-0.0074074,1,0,0,0.666,rock_grid_rect_2,5,05,-1,-1,0.666,-0.381481489,-0.409259302,1,0,0,0.9078,Obsidian_rect,5,0.908,1,12,0,12,0,1,,,,,,,,,,,,,
6016b656600dc185acab2cc1,TCN,2024-06-24_14h45.13.626,LearnStrategy,2023.2.3,Win32,60.24096386,8,1,14,0.053703732,-0.011111118,1,0,0,0.6647,rock_grid_rect_2,2,12,-1,-1,0.665,-0.375,-0.252777806,1,0,0,1.3263,Andesite_rect,1,1.326,0,13,0,13,0,1,,,,,,,,,,,,,
6016b656600dc185acab2cc1,TCN,2024-06-24_14h45.13.626,LearnStrategy,2023.2.3,Win32,60.24096386,8,1,15,0.116666653,-0.010185206,1,0,0,0.6475,rock_grid_rect_2,8,04,-1,-1,0.647,0.373148176,-0.391666695,1,0,0,1.3765,Pumice_rect,8,1.376,1,14,0,14,0,1,,,,,,,,,,,,,
6016b656600dc185acab2cc1,TCN,2024-06-24_14h45.13.626,LearnStrategy,2023.2.3,Win32,60.24096386,8,1,16,0.062962991,-0.00462963,1,0,0,0.7979,rock_grid_rect_2,6,05,-1,-1,0.798,-0.37037037,-0.419444473,1,0,0,2.1905,Obsidian_rect,5,2.191,0,15,0,15,0,1,,,,,,,,,,,,,
6016b656600dc185acab2cc1,TCN,2024-06-24_14h45.13.626,LearnStrategy,2023.2.3,Win32,60.24096386,8,2,1,,,,,,,,4,08,,,,,,,,,,,2,3.971,0,,,,,,-0.108333305,-0.259259259,1,0,0,3.9713,Basalt_rect,0,0,0,0,1,
6016b656600dc185acab2cc1,TCN,2024-06-24_14h45.13.626,LearnStrategy,2023.2.3,Win32,60.24096386,8,2,2,,,,,,,,3,16,,,,,,,,,,,2,1.103,0,,,,,,-0.110185199,-0.265740783,1,0,0,1.1032,Basalt_rect,1,0,1,0,1,
6016b656600dc185acab2cc1,TCN,2024-06-24_14h45.13.626,LearnStrategy,2023.2.3,Win32,60.24096386,8,2,3,,,,,,,,7,13,,,,,,,,,,,3,1.575,0,,,,,,0.12962963,-0.264814801,1,0,0,1.5749,Diorite_rect,2,0,2,0,1,
6016b656600dc185acab2cc1,TCN,2024-06-24_14h45.13.626,LearnStrategy,2023.2.3,Win32,60.24096386,8,2,4,,,,,,,,1,10,,,,,,,,,,,2,1.673,0,,,,,,-0.188888903,-0.256481524,1,0,0,1.6735,Basalt_rect,3,0,3,0,1,
6016b656600dc185acab2cc1,TCN,2024-06-24_14h45.13.626,LearnStrategy,2023.2.3,Win32,60.24096386,8,2,5,,,,,,,,3,06,,,,,,,,,,,2,0.749,0,,,,,,-0.188888903,-0.257407436,1,0,0,0.7487,Basalt_rect,4,0,4,0,1,
6016b656600dc185acab2cc1,TCN,2024-06-24_14h45.13.626,LearnStrategy,2023.2.3,Win32,60.24096386,8,2,6,,,,,,,,5,04,,,,,,,,,,,5,0.832,1,,,,,,-0.386111118,-0.378703718,1,0,0,0.8324,Obsidian_rect,5,0,5,0,1,
6016b656600dc185acab2cc1,TCN,2024-06-24_14h45.13.626,LearnStrategy,2023.2.3,Win32,60.24096386,8,2,7,,,,,,,,2,06,,,,,,,,,,,5,2.149,0,,,,,,-0.416666667,-0.413888931,1,0,0,2.1494,Obsidian_rect,6,0,6,0,1,
6016b656600dc185acab2cc1,TCN,2024-06-24_14h45.13.626,LearnStrategy,2023.2.3,Win32,60.24096386,8,2,8,,,,,,,,7,10,,,,,,,,,,,6,2.148,0,,,,,,-0.136111083,-0.400000042,1,0,0,2.1481,Pegmatite_rect,7,0,7,0,1,
6016b656600dc185acab2cc1,TCN,2024-06-24_14h45.13.626,LearnStrategy,2023.2.3,Win32,60.24096386,8,2,9,,,,,,,,1,03,,,,,,,,,,,1,1.185,1,,,,,,-0.375925912,-0.250925912,1,0,0,1.1854,Andesite_rect,8,0,8,0,1,
6016b656600dc185acab2cc1,TCN,2024-06-24_14h45.13.626,LearnStrategy,2023.2.3,Win32,60.24096386,8,2,10,,,,,,,,2,04,,,,,,,,,,,5,0.826,0,,,,,,-0.35833334,-0.387037065,1,0,0,0.8257,Obsidian_rect,9,0,9,0,1,
6016b656600dc185acab2cc1,TCN,2024-06-24_14h45.13.626,LearnStrategy,2023.2.3,Win32,60.24096386,8,2,11,,,,,,,,5,14,,,,,,,,,,,5,0.79,1,,,,,,-0.351851852,-0.397222236,1,0,0,0.7903,Obsidian_rect,10,0,10,0,1,
6016b656600dc185acab2cc1,TCN,2024-06-24_14h45.13.626,LearnStrategy,2023.2.3,Win32,60.24096386,8,2,12,,,,,,,,8,05,,,,,,,,,,,8,5.37,1,,,,,,0.365740741,-0.409259302,1,0,0,5.3703,Pumice_rect,11,0,11,0,1,
6016b656600dc185acab2cc1,TCN,2024-06-24_14h45.13.626,LearnStrategy,2023.2.3,Win32,60.24096386,8,2,13,,,,,,,,6,10,,,,,,,,,,,7,1.195,0,,,,,,0.14444443,-0.39907406,1,0,0,1.1946,Peridotite_rect,12,0,12,0,1,
6016b656600dc185acab2cc1,TCN,2024-06-24_14h45.13.626,LearnStrategy,2023.2.3,Win32,60.24096386,8,2,14,,,,,,,,8,14,,,,,,,,,,,8,0.966,1,,,,,,0.387037065,-0.406481496,1,0,0,0.9655,Pumice_rect,13,0,13,0,1,
6016b656600dc185acab2cc1,TCN,2024-06-24_14h45.13.626,LearnStrategy,2023.2.3,Win32,60.24096386,8,2,15,,,,,,,,6,12,,,,,,,,,,,2,1.117,0,,,,,,-0.127777735,-0.261111153,1,0,0,1.1174,Basalt_rect,14,0,14,0,1,
6016b656600dc185acab2cc1,TCN,2024-06-24_14h45.13.626,LearnStrategy,2023.2.3,Win32,60.24096386,8,2,16,,,,,,,,4,11,,,,,,,,,,,7,1.615,0,,,,,,0.107407393,-0.396296325,1,0,0,1.6155,Peridotite_rect,15,0,15,0,1,
6016b656600dc185acab2cc1,TCN,2024-06-24_14h45.13.626,LearnStrategy,2023.2.3,Win32,60.24096386,9,1,1,0.032407407,-0.00462963,1,0,0,0.986,rock_grid_rect_2,6,06,-1,-1,0.986,-0.384259259,-0.255555541,1,0,0,1.1456,Andesite_rect,1,1.146,0,0,0,0,0,1,,,,,,,,,,,,,
6016b656600dc185acab2cc1,TCN,2024-06-24_14h45.13.626,LearnStrategy,2023.2.3,Win32,60.24096386,9,1,2,0.01944443,-0.010185206,1,0,0,0.8697,rock_grid_rect_2,4,05,-1,-1,0.87,0.091666681,-0.237963005,1,0,0,1.112,Diorite_rect,3,1.112,0,1,0,1,0,1,,,,,,,,,,,,,
6016b656600dc185acab2cc1,TCN,2024-06-24_14h45.13.626,LearnStrategy,2023.2.3,Win32,60.24096386,9,1,3,-0.031481496,-0.009259259,1,0,0,0.7849,rock_grid_rect_2,5,07,-1,-1,0.785,-0.423148155,-0.396296325,1,0,0,1.1845,Obsidian_rect,5,1.184,1,2,0,2,0,1,,,,,,,,,,,,,
6016b656600dc185acab2cc1,TCN,2024-06-24_14h45.13.626,LearnStrategy,2023.2.3,Win32,60.24096386,9,1,4,-0.04814812,-0.0074074,1,0,0,0.8966,rock_grid_rect_2,7,14,-1,-1,0.897,-0.156481496,-0.228703746,1,0,0,0.9251,Basalt_rect,2,0.925,0,3,0,3,0,1,,,,,,,,,,,,,
6016b656600dc185acab2cc1,TCN,2024-06-24_14h45.13.626,LearnStrategy,2023.2.3,Win32,60.24096386,9,1,5,-0.040740755,-0.011111118,1,0,0,0.7151,rock_grid_rect_2,8,03,-1,-1,0.715,0.140740783,-0.244444459,1,0,0,0.8494,Diorite_rect,3,0.849,0,4,0,4,0,1,,,,,,,,,,,,,
6016b656600dc185acab2cc1,TCN,2024-06-24_14h45.13.626,LearnStrategy,2023.2.3,Win32,60.24096386,9,1,6,0.049074102,-0.019444466,1,0,0,0.8127,rock_grid_rect_2,1,01,-1,-1,0.813,-0.448148127,-0.400000042,1,0,0,0.8602,Obsidian_rect,5,0.86,0,5,0,5,0,1,,,,,,,,,,,,,
6016b656600dc185acab2cc1,TCN,2024-06-24_14h45.13.626,LearnStrategy,2023.2.3,Win32,60.24096386,9,1,7,0.036111125,0.012962942,1,0,0,0.6642,rock_grid_rect_2,2,05,-1,-1,0.664,-0.369444423,-0.390740783,1,0,0,1.0586,Obsidian_rect,5,1.059,0,6,0,6,0,1,,,,,,,,,,,,,
6016b656600dc185acab2cc1,TCN,2024-06-24_14h45.13.626,LearnStrategy,2023.2.3,Win32,60.24096386,9,1,8,-0.050000014,-0.01203703,1,0,0,0.6467,rock_grid_rect_2,5,11,-1,-1,0.647,-0.376851859,-0.412962949,1,0,0,0.9105,Obsidian_rect,5,0.911,1,7,0,7,0,1,,,,,,,,,,,,,
6016b656600dc185acab2cc1,TCN,2024-06-24_14h45.13.626,LearnStrategy,2023.2.3,Win32,60.24096386,9,1,9,0.051851838,0.011111118,1,0,0,0.6652,rock_grid_rect_2,3,13,-1,-1,0.665,-0.137036995,-0.241666653,1,0,0,0.8138,Basalt_rect,2,0.814,0,8,0,8,0,1,,,,,,,,,,,,,
6016b656600dc185acab2cc1,TCN,2024-06-24_14h45.13.626,LearnStrategy,2023.2.3,Win32,60.24096386,9,1,10,0.065740727,-0.011111118,1,0,0,0.846,rock_grid_rect_2,8,08,-1,-1,0.846,0.405555584,-0.404629672,1,0,0,1.6901,Pumice_rect,8,1.69,1,9,0,9,0,1,,,,,,,,,,,,,
6016b656600dc185acab2cc1,TCN,2024-06-24_14h45.13.626,LearnStrategy,2023.2.3,Win32,60.24096386,9,1,11,0.099074116,-0.014814836,1,0,0,0.7982,rock_grid_rect_2,4,13,-1,-1,0.798,0.36018527,-0.271296325,1,0,0,1.5574,Gabbro_rect,4,1.557,1,10,0,10,0,1,,,,,,,,,,,,,
6016b656600dc185acab2cc1,TCN,2024-06-24_14h45.13.626,LearnStrategy,2023.2.3,Win32,60.24096386,9,1,12,0.059259273,-0.018518519,1,0,0,0.7981,rock_grid_rect_2,6,09,-1,-1,0.798,-0.102777764,-0.252777806,1,0,0,1.1422,Basalt_rect,2,1.142,0,11,0,11,0,1,,,,,,,,,,,,,
6016b656600dc185acab2cc1,TCN,2024-06-24_14h45.13.626,LearnStrategy,2023.2.3,Win32,60.24096386,9,1,13,0.125925912,-0.000925947,1,0,0,0.648,rock_grid_rect_2,3,14,-1,-1,0.648,0.15370369,-0.397222236,1,0,0,0.8097,Peridotite_rect,7,0.81,0,12,0,12,0,1,,,,,,,,,,,,,
6016b656600dc185acab2cc1,TCN,2024-06-24_14h45.13.626,LearnStrategy,2023.2.3,Win32,60.24096386,9,1,14,0.107407393,0.0074074,1,0,0,0.6645,rock_grid_rect_2,2,10,-1,-1,0.664,0.369444529,-0.253703718,1,0,0,2.0922,Gabbro_rect,4,2.092,0,13,0,13,0,1,,,,,,,,,,,,,
6016b656600dc185acab2cc1,TCN,2024-06-24_14h45.13.626,LearnStrategy,2023.2.3,Win32,60.24096386,9,1,15,0.054629644,0.005555541,1,0,0,0.6484,rock_grid_rect_2,7,12,-1,-1,0.648,-0.121296282,-0.258333347,1,0,0,0.8424,Basalt_rect,2,0.842,0,14,0,14,0,1,,,,,,,,,,,,,
6016b656600dc185acab2cc1,TCN,2024-06-24_14h45.13.626,LearnStrategy,2023.2.3,Win32,60.24096386,9,1,16,0.070370356,-0.005555577,1,0,0,0.6651,rock_grid_rect_2,1,09,-1,-1,0.665,-0.393518519,-0.267592607,1,0,0,0.9415,Andesite_rect,1,0.942,1,15,0,15,0,1,,,,,,,,,,,,,
6016b656600dc185acab2cc1,TCN,2024-06-24_14h45.13.626,LearnStrategy,2023.2.3,Win32,60.24096386,9,2,1,,,,,,,,2,16,,,,,,,,,,,4,1.706,0,,,,,,0.387963048,-0.24537037,1,0,0,1.7065,Gabbro_rect,0,0,0,0,1,
6016b656600dc185acab2cc1,TCN,2024-06-24_14h45.13.626,LearnStrategy,2023.2.3,Win32,60.24096386,9,2,2,,,,,,,,1,02,,,,,,,,,,,2,2.381,0,,,,,,-0.143518519,-0.262037065,1,0,0,2.381,Basalt_rect,1,0,1,0,1,
6016b656600dc185acab2cc1,TCN,2024-06-24_14h45.13.626,LearnStrategy,2023.2.3,Win32,60.24096386,9,2,3,,,,,,,,5,08,,,,,,,,,,,5,0.919,1,,,,,,-0.373148141,-0.420370384,1,0,0,0.9188,Obsidian_rect,2,0,2,0,1,
6016b656600dc185acab2cc1,TCN,2024-06-24_14h45.13.626,LearnStrategy,2023.2.3,Win32,60.24096386,9,2,4,,,,,,,,4,10,,,,,,,,,,,3,3.772,0,,,,,,0.082407422,-0.229629658,1,0,0,3.7717,Diorite_rect,3,0,3,0,1,
6016b656600dc185acab2cc1,TCN,2024-06-24_14h45.13.626,LearnStrategy,2023.2.3,Win32,60.24096386,9,2,5,,,,,,,,2,08,,,,,,,,,,,2,1.668,1,,,,,,-0.075925898,-0.260185171,1,0,0,1.6681,Basalt_rect,4,0,4,0,1,
6016b656600dc185acab2cc1,TCN,2024-06-24_14h45.13.626,LearnStrategy,2023.2.3,Win32,60.24096386,9,2,6,,,,,,,,8,16,,,,,,,,,,,4,2.166,0,,,,,,0.363888917,-0.252777806,1,0,0,2.1658,Gabbro_rect,5,0,5,0,1,
6016b656600dc185acab2cc1,TCN,2024-06-24_14h45.13.626,LearnStrategy,2023.2.3,Win32,60.24096386,9,2,7,,,,,,,,3,12,,,,,,,,,,,7,2.951,0,,,,,,0.126851894,-0.387962977,1,0,0,2.9508,Peridotite_rect,6,0,6,0,1,
6016b656600dc185acab2cc1,TCN,2024-06-24_14h45.13.626,LearnStrategy,2023.2.3,Win32,60.24096386,9,2,8,,,,,,,,3,11,,,,,,,,,,,7,1.008,0,,,,,,0.161111125,-0.400000042,1,0,0,1.0084,Peridotite_rect,7,0,7,0,1,
6016b656600dc185acab2cc1,TCN,2024-06-24_14h45.13.626,LearnStrategy,2023.2.3,Win32,60.24096386,9,2,9,,,,,,,,8,10,,,,,,,,,,,8,0.958,1,,,,,,0.396296325,-0.384259259,1,0,0,0.9581,Pumice_rect,8,0,8,0,1,
6016b656600dc185acab2cc1,TCN,2024-06-24_14h45.13.626,LearnStrategy,2023.2.3,Win32,60.24096386,9,2,10,,,,,,,,5,09,,,,,,,,,,,5,1.127,1,,,,,,-0.375925912,-0.406481496,1,0,0,1.1265,Obsidian_rect,9,0,9,0,1,
6016b656600dc185acab2cc1,TCN,2024-06-24_14h45.13.626,LearnStrategy,2023.2.3,Win32,60.24096386,9,2,11,,,,,,,,6,15,,,,,,,,,,,3,3.94,0,,,,,,0.140740783,-0.242592635,1,0,0,3.9404,Diorite_rect,10,0,10,0,1,
6016b656600dc185acab2cc1,TCN,2024-06-24_14h45.13.626,LearnStrategy,2023.2.3,Win32,60.24096386,9,2,12,,,,,,,,6,07,,,,,,,,,,,6,2.327,1,,,,,,-0.103703675,-0.400000042,1,0,0,2.3268,Pegmatite_rect,11,0,11,0,1,
6016b656600dc185acab2cc1,TCN,2024-06-24_14h45.13.626,LearnStrategy,2023.2.3,Win32,60.24096386,9,2,13,,,,,,,,1,14,,,,,,,,,,,1,1.165,1,,,,,,-0.365740741,-0.262962977,1,0,0,1.1649,Andesite_rect,12,0,12,0,1,
6016b656600dc185acab2cc1,TCN,2024-06-24_14h45.13.626,LearnStrategy,2023.2.3,Win32,60.24096386,9,2,14,,,,,,,,7,16,,,,,,,,,,,2,2.848,0,,,,,,-0.082407422,-0.266666695,1,0,0,2.8478,Basalt_rect,13,0,13,0,1,
6016b656600dc185acab2cc1,TCN,2024-06-24_14h45.13.626,LearnStrategy,2023.2.3,Win32,60.24096386,9,2,15,,,,,,,,4,15,,,,,,,,,,,4,1.418,1,,,,,,0.445370427,-0.237037023,1,0,0,1.418,Gabbro_rect,14,0,14,0,1,
6016b656600dc185acab2cc1,TCN,2024-06-24_14h45.13.626,LearnStrategy,2023.2.3,Win32,60.24096386,9,2,16,,,,,,,,7,04,,,,,,,,,,,7,1.059,1,,,,,,0.109259288,-0.39444443,1,0,0,1.0591,Peridotite_rect,15,0,15,0,1,
6016b656600dc185acab2cc1,TCN,2024-06-24_14h45.13.626,LearnStrategy,2023.2.3,Win32,60.24096386,,,,,,,,,,,,,,,,,,,,,,,,,,,,,,,,,,,,,,,,,,,0
6016b656600dc185acab2cc1,TCN,2024-06-24_14h45.13.626,LearnStrategy,2023.2.3,Win32,60.24096386,,,,,,,,,,,,,,,,,,,,,,,,,,,,,,,,,,,,,,,,,,,
6016b656600dc185acab2cc1,TCN,2024-06-24_14h45.13.626,LearnStrategy,2023.2.3,Win32,60.24096386,,,,,,,,,,,1,09,1,1,,,,,,,,,,,,,,,,,,,,,,,,,,,,,
6016b656600dc185acab2cc1,TCN,2024-06-24_14h45.13.626,LearnStrategy,2023.2.3,Win32,60.24096386,,,,,,,,,,,4,05,1,2,,,,,,,,,,,,,,,,,,,,,,,,,,,,,
6016b656600dc185acab2cc1,TCN,2024-06-24_14h45.13.626,LearnStrategy,2023.2.3,Win32,60.24096386,,,,,,,,,,,8,02,1,3,,,,,,,,,,,,,,,,,,,,,,,,,,,,,
6016b656600dc185acab2cc1,TCN,2024-06-24_14h45.13.626,LearnStrategy,2023.2.3,Win32,60.24096386,,,,,,,,,,,3,14,1,4,,,,,,,,,,,,,,,,,,,,,,,,,,,,,
6016b656600dc185acab2cc1,TCN,2024-06-24_14h45.13.626,LearnStrategy,2023.2.3,Win32,60.24096386,,,,,,,,,,,4,12,1,5,,,,,,,,,,,,,,,,,,,,,,,,,,,,,
6016b656600dc185acab2cc1,TCN,2024-06-24_14h45.13.626,LearnStrategy,2023.2.3,Win32,60.24096386,,,,,,,,,,,5,05,1,6,,,,,,,,,,,,,,,,,,,,,,,,,,,,,
6016b656600dc185acab2cc1,TCN,2024-06-24_14h45.13.626,LearnStrategy,2023.2.3,Win32,60.24096386,,,,,,,,,,,3,13,1,7,,,,,,,,,,,,,,,,,,,,,,,,,,,,,
6016b656600dc185acab2cc1,TCN,2024-06-24_14h45.13.626,LearnStrategy,2023.2.3,Win32,60.24096386,,,,,,,,,,,7,02,1,8,,,,,,,,,,,,,,,,,,,,,,,,,,,,,
6016b656600dc185acab2cc1,TCN,2024-06-24_14h45.13.626,LearnStrategy,2023.2.3,Win32,60.24096386,,,,,,,,,,,2,12,2,1,,,,,,,,,,,,,,,,,,,,,,,,,,,,,
6016b656600dc185acab2cc1,TCN,2024-06-24_14h45.13.626,LearnStrategy,2023.2.3,Win32,60.24096386,,,,,,,,,,,8,08,2,2,,,,,,,,,,,,,,,,,,,,,,,,,,,,,
6016b656600dc185acab2cc1,TCN,2024-06-24_14h45.13.626,LearnStrategy,2023.2.3,Win32,60.24096386,,,,,,,,,,,6,13,2,3,,,,,,,,,,,,,,,,,,,,,,,,,,,,,
6016b656600dc185acab2cc1,TCN,2024-06-24_14h45.13.626,LearnStrategy,2023.2.3,Win32,60.24096386,,,,,,,,,,,6,09,2,4,,,,,,,,,,,,,,,,,,,,,,,,,,,,,
6016b656600dc185acab2cc1,TCN,2024-06-24_14h45.13.626,LearnStrategy,2023.2.3,Win32,60.24096386,,,,,,,,,,,1,04,2,5,,,,,,,,,,,,,,,,,,,,,,,,,,,,,
6016b656600dc185acab2cc1,TCN,2024-06-24_14h45.13.626,LearnStrategy,2023.2.3,Win32,60.24096386,,,,,,,,,,,3,08,2,6,,,,,,,,,,,,,,,,,,,,,,,,,,,,,
6016b656600dc185acab2cc1,TCN,2024-06-24_14h45.13.626,LearnStrategy,2023.2.3,Win32,60.24096386,,,,,,,,,,,2,14,2,7,,,,,,,,,,,,,,,,,,,,,,,,,,,,,
6016b656600dc185acab2cc1,TCN,2024-06-24_14h45.13.626,LearnStrategy,2023.2.3,Win32,60.24096386,,,,,,,,,,,5,06,2,8,,,,,,,,,,,,,,,,,,,,,,,,,,,,,
6016b656600dc185acab2cc1,TCN,2024-06-24_14h45.13.626,LearnStrategy,2023.2.3,Win32,60.24096386,,,,,,,,,,,2,05,3,1,,,,,,,,,,,,,,,,,,,,,,,,,,,,,
6016b656600dc185acab2cc1,TCN,2024-06-24_14h45.13.626,LearnStrategy,2023.2.3,Win32,60.24096386,,,,,,,,,,,7,05,3,2,,,,,,,,,,,,,,,,,,,,,,,,,,,,,
6016b656600dc185acab2cc1,TCN,2024-06-24_14h45.13.626,LearnStrategy,2023.2.3,Win32,60.24096386,,,,,,,,,,,2,02,3,3,,,,,,,,,,,,,,,,,,,,,,,,,,,,,
6016b656600dc185acab2cc1,TCN,2024-06-24_14h45.13.626,LearnStrategy,2023.2.3,Win32,60.24096386,,,,,,,,,,,7,08,3,4,,,,,,,,,,,,,,,,,,,,,,,,,,,,,
6016b656600dc185acab2cc1,TCN,2024-06-24_14h45.13.626,LearnStrategy,2023.2.3,Win32,60.24096386,,,,,,,,,,,7,14,3,5,,,,,,,,,,,,,,,,,,,,,,,,,,,,,
6016b656600dc185acab2cc1,TCN,2024-06-24_14h45.13.626,LearnStrategy,2023.2.3,Win32,60.24096386,,,,,,,,,,,3,02,3,6,,,,,,,,,,,,,,,,,,,,,,,,,,,,,
6016b656600dc185acab2cc1,TCN,2024-06-24_14h45.13.626,LearnStrategy,2023.2.3,Win32,60.24096386,,,,,,,,,,,6,16,3,7,,,,,,,,,,,,,,,,,,,,,,,,,,,,,
6016b656600dc185acab2cc1,TCN,2024-06-24_14h45.13.626,LearnStrategy,2023.2.3,Win32,60.24096386,,,,,,,,,,,5,12,3,8,,,,,,,,,,,,,,,,,,,,,,,,,,,,,
6016b656600dc185acab2cc1,TCN,2024-06-24_14h45.13.626,LearnStrategy,2023.2.3,Win32,60.24096386,,,,,,,,,,,4,16,4,1,,,,,,,,,,,,,,,,,,,,,,,,,,,,,
6016b656600dc185acab2cc1,TCN,2024-06-24_14h45.13.626,LearnStrategy,2023.2.3,Win32,60.24096386,,,,,,,,,,,8,03,4,2,,,,,,,,,,,,,,,,,,,,,,,,,,,,,
6016b656600dc185acab2cc1,TCN,2024-06-24_14h45.13.626,LearnStrategy,2023.2.3,Win32,60.24096386,,,,,,,,,,,1,01,4,3,,,,,,,,,,,,,,,,,,,,,,,,,,,,,
6016b656600dc185acab2cc1,TCN,2024-06-24_14h45.13.626,LearnStrategy,2023.2.3,Win32,60.24096386,,,,,,,,,,,6,03,4,4,,,,,,,,,,,,,,,,,,,,,,,,,,,,,
6016b656600dc185acab2cc1,TCN,2024-06-24_14h45.13.626,LearnStrategy,2023.2.3,Win32,60.24096386,,,,,,,,,,,1,16,4,5,,,,,,,,,,,,,,,,,,,,,,,,,,,,,
6016b656600dc185acab2cc1,TCN,2024-06-24_14h45.13.626,LearnStrategy,2023.2.3,Win32,60.24096386,,,,,,,,,,,3,15,4,6,,,,,,,,,,,,,,,,,,,,,,,,,,,,,
6016b656600dc185acab2cc1,TCN,2024-06-24_14h45.13.626,LearnStrategy,2023.2.3,Win32,60.24096386,,,,,,,,,,,1,11,4,7,,,,,,,,,,,,,,,,,,,,,,,,,,,,,
6016b656600dc185acab2cc1,TCN,2024-06-24_14h45.13.626,LearnStrategy,2023.2.3,Win32,60.24096386,,,,,,,,,,,7,07,4,8,,,,,,,,,,,,,,,,,,,,,,,,,,,,,
6016b656600dc185acab2cc1,TCN,2024-06-24_14h45.13.626,LearnStrategy,2023.2.3,Win32,60.24096386,,,,,,,,,,,4,09,5,1,,,,,,,,,,,,,,,,,,,,,,,,,,,,,
6016b656600dc185acab2cc1,TCN,2024-06-24_14h45.13.626,LearnStrategy,2023.2.3,Win32,60.24096386,,,,,,,,,,,1,06,5,2,,,,,,,,,,,,,,,,,,,,,,,,,,,,,
6016b656600dc185acab2cc1,TCN,2024-06-24_14h45.13.626,LearnStrategy,2023.2.3,Win32,60.24096386,,,,,,,,,,,5,11,5,3,,,,,,,,,,,,,,,,,,,,,,,,,,,,,
6016b656600dc185acab2cc1,TCN,2024-06-24_14h45.13.626,LearnStrategy,2023.2.3,Win32,60.24096386,,,,,,,,,,,4,13,5,4,,,,,,,,,,,,,,,,,,,,,,,,,,,,,
6016b656600dc185acab2cc1,TCN,2024-06-24_14h45.13.626,LearnStrategy,2023.2.3,Win32,60.24096386,,,,,,,,,,,6,06,5,5,,,,,,,,,,,,,,,,,,,,,,,,,,,,,
6016b656600dc185acab2cc1,TCN,2024-06-24_14h45.13.626,LearnStrategy,2023.2.3,Win32,60.24096386,,,,,,,,,,,2,10,5,6,,,,,,,,,,,,,,,,,,,,,,,,,,,,,
6016b656600dc185acab2cc1,TCN,2024-06-24_14h45.13.626,LearnStrategy,2023.2.3,Win32,60.24096386,,,,,,,,,,,2,09,5,7,,,,,,,,,,,,,,,,,,,,,,,,,,,,,
6016b656600dc185acab2cc1,TCN,2024-06-24_14h45.13.626,LearnStrategy,2023.2.3,Win32,60.24096386,,,,,,,,,,,5,16,5,8,,,,,,,,,,,,,,,,,,,,,,,,,,,,,
6016b656600dc185acab2cc1,TCN,2024-06-24_14h45.13.626,LearnStrategy,2023.2.3,Win32,60.24096386,,,,,,,,,,,8,04,6,1,,,,,,,,,,,,,,,,,,,,,,,,,,,,,
6016b656600dc185acab2cc1,TCN,2024-06-24_14h45.13.626,LearnStrategy,2023.2.3,Win32,60.24096386,,,,,,,,,,,3,10,6,2,,,,,,,,,,,,,,,,,,,,,,,,,,,,,
6016b656600dc185acab2cc1,TCN,2024-06-24_14h45.13.626,LearnStrategy,2023.2.3,Win32,60.24096386,,,,,,,,,,,4,14,6,3,,,,,,,,,,,,,,,,,,,,,,,,,,,,,
6016b656600dc185acab2cc1,TCN,2024-06-24_14h45.13.626,LearnStrategy,2023.2.3,Win32,60.24096386,,,,,,,,,,,8,13,6,4,,,,,,,,,,,,,,,,,,,,,,,,,,,,,
6016b656600dc185acab2cc1,TCN,2024-06-24_14h45.13.626,LearnStrategy,2023.2.3,Win32,60.24096386,,,,,,,,,,,7,12,6,5,,,,,,,,,,,,,,,,,,,,,,,,,,,,,
6016b656600dc185acab2cc1,TCN,2024-06-24_14h45.13.626,LearnStrategy,2023.2.3,Win32,60.24096386,,,,,,,,,,,8,15,6,6,,,,,,,,,,,,,,,,,,,,,,,,,,,,,
6016b656600dc185acab2cc1,TCN,2024-06-24_14h45.13.626,LearnStrategy,2023.2.3,Win32,60.24096386,,,,,,,,,,,6,05,6,7,,,,,,,,,,,,,,,,,,,,,,,,,,,,,
6016b656600dc185acab2cc1,TCN,2024-06-24_14h45.13.626,LearnStrategy,2023.2.3,Win32,60.24096386,,,,,,,,,,,5,07,6,8,,,,,,,,,,,,,,,,,,,,,,,,,,,,,