participant,condition,date,expName,psychopyVersion,OS,frameRate,block,phase,trial,learn_mouse.x,learn_mouse.y,learn_mouse.leftButton,learn_mouse.midButton,learn_mouse.rightButton,learn_mouse.time,learn_mouse.clicked_name,cat,token,row,col,t_select,cat_rec,token_rec,cat_mouse_l.x,cat_mouse_l.y,cat_mouse_l.leftButton,cat_mouse_l.midButton,cat_mouse_l.rightButton,cat_mouse_l.time,cat_mouse_l.clicked_name,resp,t_resp,corr,train_trials.thisRepN,train_trials.thisTrialN,train_trials.thisN,train_trials.thisIndex,train_trials.ran,cat_mouse_t.x,cat_mouse_t.y,cat_mouse_t.leftButton,cat_mouse_t.midButton,cat_mouse_t.rightButton,cat_mouse_t.time,cat_mouse_t.clicked_name,test_trials.thisRepN,test_trials.thisTrialN,test_trials.thisN,test_trials.thisIndex,test_trials.ran,Bonus
6079ff1600ff2b7455e1c3e0,SCR,2024-06-20_15h31.41.554,LearnStrategy,2023.2.3,Win32,59.88023952,,,,,,,,,,,,,,,,,,,,,,,,,,,,,,,,,,,,,,,,,,,,,
6079ff1600ff2b7455e1c3e0,SCR,2024-06-20_15h31.41.554,LearnStrategy,2023.2.3,Win32,59.88023952,1,1,1,-0.39453125,0.072916667,1,0,0,8.9217,Peridotite_04,7,04,4,2,8.922,7,04,-0.342447917,-0.251302083,1,0,0,8.811,Andesite_rect,1,8.811,0,0,0,0,0,1,,,,,,,,,,,,,
6079ff1600ff2b7455e1c3e0,SCR,2024-06-20_15h31.41.554,LearnStrategy,2023.2.3,Win32,59.88023952,1,1,2,-0.506510417,0.100260417,1,0,0,6.8538,Pumice_13,8,13,4,1,6.854,8,15,0.067708333,-0.41796875,1,0,0,3.2398,Peridotite_rect,7,3.24,0,1,0,1,0,1,,,,,,,,,,,,,
6079ff1600ff2b7455e1c3e0,SCR,2024-06-20_15h31.41.554,LearnStrategy,2023.2.3,Win32,59.88023952,1,1,3,0.190104167,-0.23828125,1,0,0,3.4335,Gabbro_12,4,12,2,6,3.433,4,12,-0.076822917,-0.23828125,1,0,0,3.4312,Basalt_rect,2,3.431,0,2,0,2,0,1,,,,,,,,,,,,,
6079ff1600ff2b7455e1c3e0,SCR,2024-06-20_15h31.41.554,LearnStrategy,2023.2.3,Win32,59.88023952,1,1,4,0.506510417,-0.2265625,1,0,0,1.63,Diorite_07,3,07,2,8,1.63,3,07,-0.07421875,-0.247395833,1,0,0,3.6095,Basalt_rect,2,3.609,0,3,0,3,0,1,,,,,,,,,,,,,
6079ff1600ff2b7455e1c3e0,SCR,2024-06-20_15h31.41.554,LearnStrategy,2023.2.3,Win32,59.88023952,1,1,5,-0.049479167,-0.377604167,1,0,0,1.6051,Peridotite_06,7,06,1,4,1.605,7,06,0.0625,-0.252604167,1,0,0,1.2109,Diorite_rect,3,1.211,0,4,0,4,0,1,,,,,,,,,,,,,
6079ff1600ff2b7455e1c3e0,SCR,2024-06-20_15h31.41.554,LearnStrategy,2023.2.3,Win32,59.88023952,1,1,6,0.095052083,0.223958333,1,0,0,1.4907,Diorite_10,3,10,5,5,1.491,3,10,0.080729167,-0.231770833,1,0,0,1.8199,Diorite_rect,3,1.82,1,5,0,5,0,1,,,,,,,,,,,,,
6079ff1600ff2b7455e1c3e0,SCR,2024-06-20_15h31.41.554,LearnStrategy,2023.2.3,Win32,59.88023952,1,1,7,-0.212239583,-0.078125,1,0,0,1.2267,Andesite_14,1,14,3,3,1.227,1,14,0.0390625,-0.404947917,1,0,0,2.3857,Peridotite_rect,7,2.386,0,6,0,6,0,1,,,,,,,,,,,,,
6079ff1600ff2b7455e1c3e0,SCR,2024-06-20_15h31.41.554,LearnStrategy,2023.2.3,Win32,59.88023952,1,1,8,-0.220052083,0.399739583,1,0,0,1.6704,Basalt_10,2,10,6,3,1.67,2,10,-0.299479167,-0.397135417,1,0,0,1.8267,Obsidian_rect,5,1.827,0,7,0,7,0,1,,,,,,,,,,,,,
6079ff1600ff2b7455e1c3e0,SCR,2024-06-20_15h31.41.554,LearnStrategy,2023.2.3,Win32,59.88023952,1,1,9,0.359375,-0.0859375,1,0,0,1.6935,Obsidian_06,5,06,3,7,1.694,5,06,-0.407552083,-0.416666667,1,0,0,1.8576,Obsidian_rect,5,1.858,1,8,0,8,0,1,,,,,,,,,,,,,
6079ff1600ff2b7455e1c3e0,SCR,2024-06-20_15h31.41.554,LearnStrategy,2023.2.3,Win32,59.88023952,1,1,10,0.569010417,0.26171875,1,0,0,1.4981,Obsidian_09,5,09,5,8,1.498,5,09,-0.049479167,-0.229166667,1,0,0,2.5561,Basalt_rect,2,2.556,0,9,0,9,0,1,,,,,,,,,,,,,
6079ff1600ff2b7455e1c3e0,SCR,2024-06-20_15h31.41.554,LearnStrategy,2023.2.3,Win32,59.88023952,1,1,11,0.22265625,0.404947917,1,0,0,1.5469,Andesite_01,1,01,6,6,1.547,1,01,0.12109375,-0.252604167,1,0,0,5.6047,Diorite_rect,3,5.605,0,10,0,10,0,1,,,,,,,,,,,,,
6079ff1600ff2b7455e1c3e0,SCR,2024-06-20_15h31.41.554,LearnStrategy,2023.2.3,Win32,59.88023952,1,1,12,0.365885417,0.1328125,1,0,0,1.1794,Pegmatite_09,6,09,4,7,1.179,6,09,0.348958333,-0.2421875,1,0,0,5.3684,Gabbro_rect,4,5.368,0,11,0,11,0,1,,,,,,,,,,,,,
6079ff1600ff2b7455e1c3e0,SCR,2024-06-20_15h31.41.554,LearnStrategy,2023.2.3,Win32,59.88023952,1,1,13,0.248697917,0.091145833,1,0,0,1.051,Pegmatite_03,6,03,4,6,1.051,6,03,-0.07421875,-0.38671875,1,0,0,1.8578,Pegmatite_rect,6,1.858,1,12,0,12,0,1,,,,,,,,,,,,,
6079ff1600ff2b7455e1c3e0,SCR,2024-06-20_15h31.41.554,LearnStrategy,2023.2.3,Win32,59.88023952,1,1,14,-0.598958333,-0.28515625,1,0,0,1.9787,Basalt_01,2,01,2,1,1.979,2,01,-0.188802083,-0.243489583,1,0,0,1.1389,Basalt_rect,2,1.139,1,13,0,13,0,1,,,,,,,,,,,,,
6079ff1600ff2b7455e1c3e0,SCR,2024-06-20_15h31.41.554,LearnStrategy,2023.2.3,Win32,59.88023952,1,1,15,-0.204427083,0.408854167,1,0,0,1.5654,Basalt_10,2,10,6,3,1.565,8,13,-0.084635417,-0.240885417,1,0,0,1.5482,Basalt_rect,2,1.548,1,14,0,14,0,1,,,,,,,,,,,,,
6079ff1600ff2b7455e1c3e0,SCR,2024-06-20_15h31.41.554,LearnStrategy,2023.2.3,Win32,59.88023952,1,1,16,-0.0703125,0.444010417,1,0,0,1.0975,Gabbro_09,4,09,6,4,1.098,4,09,-0.341145833,-0.25390625,1,0,0,4.1282,Andesite_rect,1,4.128,0,15,0,15,0,1,,,,,,,,,,,,,
6079ff1600ff2b7455e1c3e0,SCR,2024-06-20_15h31.41.554,LearnStrategy,2023.2.3,Win32,59.88023952,1,2,1,,,,,,,,2,16,,,,,,,,,,,,,2,5.905,1,,,,,,-0.130208333,-0.24609375,1,0,0,5.9049,Basalt_rect,0,0,0,0,1,
6079ff1600ff2b7455e1c3e0,SCR,2024-06-20_15h31.41.554,LearnStrategy,2023.2.3,Win32,59.88023952,1,2,2,,,,,,,,8,03,,,,,,,,,,,,,8,2.835,1,,,,,,0.375,-0.393229167,1,0,0,2.8347,Pumice_rect,1,0,1,0,1,
6079ff1600ff2b7455e1c3e0,SCR,2024-06-20_15h31.41.554,LearnStrategy,2023.2.3,Win32,59.88023952,1,2,3,,,,,,,,4,11,,,,,,,,,,,,,3,5.16,0,,,,,,0.110677083,-0.256510417,1,0,0,5.1598,Diorite_rect,2,0,2,0,1,
6079ff1600ff2b7455e1c3e0,SCR,2024-06-20_15h31.41.554,LearnStrategy,2023.2.3,Win32,59.88023952,1,2,4,,,,,,,,4,03,,,,,,,,,,,,,7,6.287,0,,,,,,0.102864583,-0.385416667,1,0,0,6.2874,Peridotite_rect,3,0,3,0,1,
6079ff1600ff2b7455e1c3e0,SCR,2024-06-20_15h31.41.554,LearnStrategy,2023.2.3,Win32,59.88023952,1,2,5,,,,,,,,3,11,,,,,,,,,,,,,7,1.474,0,,,,,,0.102864583,-0.385416667,1,0,0,1.4739,Peridotite_rect,4,0,4,0,1,
6079ff1600ff2b7455e1c3e0,SCR,2024-06-20_15h31.41.554,LearnStrategy,2023.2.3,Win32,59.88023952,1,2,6,,,,,,,,1,11,,,,,,,,,,,,,1,3.933,1,,,,,,-0.334635417,-0.263020833,1,0,0,3.9333,Andesite_rect,5,0,5,0,1,
6079ff1600ff2b7455e1c3e0,SCR,2024-06-20_15h31.41.554,LearnStrategy,2023.2.3,Win32,59.88023952,1,2,7,,,,,,,,7,13,,,,,,,,,,,,,4,3.769,0,,,,,,0.342447917,-0.252604167,1,0,0,3.7695,Gabbro_rect,6,0,6,0,1,
6079ff1600ff2b7455e1c3e0,SCR,2024-06-20_15h31.41.554,LearnStrategy,2023.2.3,Win32,59.88023952,1,2,8,,,,,,,,8,04,,,,,,,,,,,,,8,1.66,1,,,,,,0.377604167,-0.3984375,1,0,0,1.6603,Pumice_rect,7,0,7,0,1,
6079ff1600ff2b7455e1c3e0,SCR,2024-06-20_15h31.41.554,LearnStrategy,2023.2.3,Win32,59.88023952,1,2,9,,,,,,,,3,12,,,,,,,,,,,,,7,2.905,0,,,,,,0.119791667,-0.38671875,1,0,0,2.9054,Peridotite_rect,8,0,8,0,1,
6079ff1600ff2b7455e1c3e0,SCR,2024-06-20_15h31.41.554,LearnStrategy,2023.2.3,Win32,59.88023952,1,2,10,,,,,,,,7,08,,,,,,,,,,,,,4,2.505,0,,,,,,0.315104167,-0.260416667,1,0,0,2.5048,Gabbro_rect,9,0,9,0,1,
6079ff1600ff2b7455e1c3e0,SCR,2024-06-20_15h31.41.554,LearnStrategy,2023.2.3,Win32,59.88023952,1,2,11,,,,,,,,6,08,,,,,,,,,,,,,1,2.132,0,,,,,,-0.359375,-0.239583333,1,0,0,2.1321,Andesite_rect,10,0,10,0,1,
6079ff1600ff2b7455e1c3e0,SCR,2024-06-20_15h31.41.554,LearnStrategy,2023.2.3,Win32,59.88023952,1,2,12,,,,,,,,5,02,,,,,,,,,,,,,5,1.674,1,,,,,,-0.33203125,-0.389322917,1,0,0,1.6743,Obsidian_rect,11,0,11,0,1,
6079ff1600ff2b7455e1c3e0,SCR,2024-06-20_15h31.41.554,LearnStrategy,2023.2.3,Win32,59.88023952,1,2,13,,,,,,,,2,05,,,,,,,,,,,,,2,1.293,1,,,,,,-0.149739583,-0.270833333,1,0,0,1.2929,Basalt_rect,12,0,12,0,1,
6079ff1600ff2b7455e1c3e0,SCR,2024-06-20_15h31.41.554,LearnStrategy,2023.2.3,Win32,59.88023952,1,2,14,,,,,,,,5,04,,,,,,,,,,,,,5,1.18,1,,,,,,-0.334635417,-0.393229167,1,0,0,1.1801,Obsidian_rect,13,0,13,0,1,
6079ff1600ff2b7455e1c3e0,SCR,2024-06-20_15h31.41.554,LearnStrategy,2023.2.3,Win32,59.88023952,1,2,15,,,,,,,,6,05,,,,,,,,,,,,,1,1.317,0,,,,,,-0.364583333,-0.255208333,1,0,0,1.3166,Andesite_rect,14,0,14,0,1,
6079ff1600ff2b7455e1c3e0,SCR,2024-06-20_15h31.41.554,LearnStrategy,2023.2.3,Win32,59.88023952,1,2,16,,,,,,,,1,05,,,,,,,,,,,,,3,3.29,0,,,,,,0.130208333,-0.236979167,1,0,0,3.29,Diorite_rect,15,0,15,0,1,
6079ff1600ff2b7455e1c3e0,SCR,2024-06-20_15h31.41.554,LearnStrategy,2023.2.3,Win32,59.88023952,2,1,1,0.51953125,-0.260416667,1,0,0,4.4438,Diorite_07,3,07,2,8,4.444,4,10,-0.30078125,-0.235677083,1,0,0,1.6479,Andesite_rect,1,1.648,0,0,0,0,0,1,,,,,,,,,,,,,
6079ff1600ff2b7455e1c3e0,SCR,2024-06-20_15h31.41.554,LearnStrategy,2023.2.3,Win32,59.88023952,2,1,2,0.2265625,0.287760417,1,0,0,1.6996,Diorite_14,3,14,5,6,1.7,7,06,0.096354167,-0.24609375,1,0,0,1.8999,Diorite_rect,3,1.9,1,1,0,1,0,1,,,,,,,,,,,,,
6079ff1600ff2b7455e1c3e0,SCR,2024-06-20_15h31.41.554,LearnStrategy,2023.2.3,Win32,59.88023952,2,1,3,0.361979167,0.391927083,1,0,0,3.1531,Pegmatite_12,6,12,6,7,3.153,5,16,0.12890625,-0.240885417,1,0,0,1.2822,Diorite_rect,3,1.282,0,2,0,2,0,1,,,,,,,,,,,,,
6079ff1600ff2b7455e1c3e0,SCR,2024-06-20_15h31.41.554,LearnStrategy,2023.2.3,Win32,59.88023952,2,1,4,-0.395833333,-0.290364583,1,0,0,5.5417,Diorite_08,3,08,2,2,5.542,7,07,0.125,-0.2578125,1,0,0,0.9678,Diorite_rect,3,0.968,1,3,0,3,0,1,,,,,,,,,,,,,
6079ff1600ff2b7455e1c3e0,SCR,2024-06-20_15h31.41.554,LearnStrategy,2023.2.3,Win32,59.88023952,2,1,5,-0.1875,-0.272135417,1,0,0,6.5306,Pegmatite_07,6,07,2,3,6.531,1,10,0.1796875,-0.401041667,1,0,0,2.2751,Peridotite_rect,7,2.275,0,4,0,4,0,1,,,,,,,,,,,,,
6079ff1600ff2b7455e1c3e0,SCR,2024-06-20_15h31.41.554,LearnStrategy,2023.2.3,Win32,59.88023952,2,1,6,0.5234375,-0.231770833,1,0,0,4.2286,Diorite_07,3,07,2,8,4.229,7,10,0.0859375,-0.244791667,1,0,0,1.5727,Diorite_rect,3,1.573,1,5,0,5,0,1,,,,,,,,,,,,,
6079ff1600ff2b7455e1c3e0,SCR,2024-06-20_15h31.41.554,LearnStrategy,2023.2.3,Win32,59.88023952,2,1,7,-0.51171875,0.096354167,1,0,0,1.7328,Pumice_13,8,13,4,1,1.733,6,11,0.329427083,-0.391927083,1,0,0,1.2512,Pumice_rect,8,1.251,1,6,0,6,0,1,,,,,,,,,,,,,
6079ff1600ff2b7455e1c3e0,SCR,2024-06-20_15h31.41.554,LearnStrategy,2023.2.3,Win32,59.88023952,2,1,8,-0.212239583,-0.39453125,1,0,0,1.318,Pumice_08,8,08,1,3,1.318,6,11,0.388020833,-0.395833333,1,0,0,0.9717,Pumice_rect,8,0.972,1,7,0,7,0,1,,,,,,,,,,,,,
6079ff1600ff2b7455e1c3e0,SCR,2024-06-20_15h31.41.554,LearnStrategy,2023.2.3,Win32,59.88023952,2,1,9,0.110677083,-0.420572917,1,0,0,1.6084,Pumice_02,8,02,1,5,1.608,3,15,0.364583333,-0.399739583,1,0,0,2.5405,Pumice_rect,8,2.541,1,8,0,8,0,1,,,,,,,,,,,,,
6079ff1600ff2b7455e1c3e0,SCR,2024-06-20_15h31.41.554,LearnStrategy,2023.2.3,Win32,59.88023952,2,1,10,0.555989583,0.11328125,1,0,0,2.0484,Pegmatite_15,6,15,4,8,2.048,6,09,-0.354166667,-0.24609375,1,0,0,1.3891,Andesite_rect,1,1.389,0,9,0,9,0,1,,,,,,,,,,,,,
6079ff1600ff2b7455e1c3e0,SCR,2024-06-20_15h31.41.554,LearnStrategy,2023.2.3,Win32,59.88023952,2,1,11,0.264322917,-0.104166667,1,0,0,8.149,Andesite_03,1,03,3,6,8.149,4,13,0.110677083,-0.3828125,1,0,0,2.4097,Peridotite_rect,7,2.41,0,10,0,10,0,1,,,,,,,,,,,,,
6079ff1600ff2b7455e1c3e0,SCR,2024-06-20_15h31.41.554,LearnStrategy,2023.2.3,Win32,59.88023952,2,1,12,0.533854167,0.08203125,1,0,0,1.7435,Pegmatite_15,6,15,4,8,1.743,4,12,-0.102864583,-0.38671875,1,0,0,1.8537,Pegmatite_rect,6,1.854,1,11,0,11,0,1,,,,,,,,,,,,,
6079ff1600ff2b7455e1c3e0,SCR,2024-06-20_15h31.41.554,LearnStrategy,2023.2.3,Win32,59.88023952,2,1,13,0.57421875,-0.399739583,1,0,0,4.3865,Basalt_14,2,14,1,8,4.387,3,06,0.442708333,-0.416666667,1,0,0,1.7608,Pumice_rect,8,1.761,0,12,0,12,0,1,,,,,,,,,,,,,
6079ff1600ff2b7455e1c3e0,SCR,2024-06-20_15h31.41.554,LearnStrategy,2023.2.3,Win32,59.88023952,2,1,14,-0.532552083,0.256510417,1,0,0,1.5894,Andesite_10,1,10,5,1,1.589,3,08,-0.173177083,-0.411458333,1,0,0,1.9154,Pegmatite_rect,6,1.915,0,13,0,13,0,1,,,,,,,,,,,,,
6079ff1600ff2b7455e1c3e0,SCR,2024-06-20_15h31.41.554,LearnStrategy,2023.2.3,Win32,59.88023952,2,1,15,-0.41796875,0.427083333,1,0,0,1.885,Basalt_12,2,12,6,2,1.885,7,10,0.330729167,-0.385416667,1,0,0,2.3505,Pumice_rect,8,2.351,0,14,0,14,0,1,,,,,,,,,,,,,
6079ff1600ff2b7455e1c3e0,SCR,2024-06-20_15h31.41.554,LearnStrategy,2023.2.3,Win32,59.88023952,2,1,16,-0.0859375,0.404947917,1,0,0,1.5308,Gabbro_09,4,09,6,4,1.531,1,10,-0.372395833,-0.390625,1,0,0,2.6147,Obsidian_rect,5,2.615,0,15,0,15,0,1,,,,,,,,,,,,,
6079ff1600ff2b7455e1c3e0,SCR,2024-06-20_15h31.41.554,LearnStrategy,2023.2.3,Win32,59.88023952,2,2,1,,,,,,,,1,09,,,,,,,,,,,,,6,10.041,0,,,,,,-0.130208333,-0.420572917,1,0,0,10.0413,Pegmatite_rect,0,0,0,0,1,
6079ff1600ff2b7455e1c3e0,SCR,2024-06-20_15h31.41.554,LearnStrategy,2023.2.3,Win32,59.88023952,2,2,2,,,,,,,,6,16,,,,,,,,,,,,,7,4.254,0,,,,,,0.110677083,-0.391927083,1,0,0,4.2544,Peridotite_rect,1,0,1,0,1,
6079ff1600ff2b7455e1c3e0,SCR,2024-06-20_15h31.41.554,LearnStrategy,2023.2.3,Win32,59.88023952,2,2,3,,,,,,,,1,02,,,,,,,,,,,,,6,5.643,0,,,,,,-0.145833333,-0.388020833,1,0,0,5.6428,Pegmatite_rect,2,0,2,0,1,
6079ff1600ff2b7455e1c3e0,SCR,2024-06-20_15h31.41.554,LearnStrategy,2023.2.3,Win32,59.88023952,2,2,4,,,,,,,,8,14,,,,,,,,,,,,,8,1.091,1,,,,,,0.375,-0.38671875,1,0,0,1.0907,Pumice_rect,3,0,3,0,1,
6079ff1600ff2b7455e1c3e0,SCR,2024-06-20_15h31.41.554,LearnStrategy,2023.2.3,Win32,59.88023952,2,2,5,,,,,,,,7,16,,,,,,,,,,,,,4,2.074,0,,,,,,0.346354167,-0.234375,1,0,0,2.0744,Gabbro_rect,4,0,4,0,1,
6079ff1600ff2b7455e1c3e0,SCR,2024-06-20_15h31.41.554,LearnStrategy,2023.2.3,Win32,59.88023952,2,2,6,,,,,,,,7,12,,,,,,,,,,,,,3,1.913,0,,,,,,0.084635417,-0.252604167,1,0,0,1.9133,Diorite_rect,5,0,5,0,1,
6079ff1600ff2b7455e1c3e0,SCR,2024-06-20_15h31.41.554,LearnStrategy,2023.2.3,Win32,59.88023952,2,2,7,,,,,,,,4,05,,,,,,,,,,,,,4,2.179,1,,,,,,0.41015625,-0.23828125,1,0,0,2.1791,Gabbro_rect,6,0,6,0,1,
6079ff1600ff2b7455e1c3e0,SCR,2024-06-20_15h31.41.554,LearnStrategy,2023.2.3,Win32,59.88023952,2,2,8,,,,,,,,5,14,,,,,,,,,,,,,5,3.024,1,,,,,,-0.369791667,-0.395833333,1,0,0,3.0242,Obsidian_rect,7,0,7,0,1,
6079ff1600ff2b7455e1c3e0,SCR,2024-06-20_15h31.41.554,LearnStrategy,2023.2.3,Win32,59.88023952,2,2,9,,,,,,,,5,12,,,,,,,,,,,,,5,0.952,1,,,,,,-0.393229167,-0.3984375,1,0,0,0.9524,Obsidian_rect,8,0,8,0,1,
6079ff1600ff2b7455e1c3e0,SCR,2024-06-20_15h31.41.554,LearnStrategy,2023.2.3,Win32,59.88023952,2,2,10,,,,,,,,3,09,,,,,,,,,,,,,3,1.394,1,,,,,,0.151041667,-0.259114583,1,0,0,1.3944,Diorite_rect,9,0,9,0,1,
6079ff1600ff2b7455e1c3e0,SCR,2024-06-20_15h31.41.554,LearnStrategy,2023.2.3,Win32,59.88023952,2,2,11,,,,,,,,4,01,,,,,,,,,,,,,7,7.55,0,,,,,,0.115885417,-0.412760417,1,0,0,7.5503,Peridotite_rect,10,0,10,0,1,
6079ff1600ff2b7455e1c3e0,SCR,2024-06-20_15h31.41.554,LearnStrategy,2023.2.3,Win32,59.88023952,2,2,12,,,,,,,,3,16,,,,,,,,,,,,,3,2.006,1,,,,,,0.109375,-0.268229167,1,0,0,2.0057,Diorite_rect,11,0,11,0,1,
6079ff1600ff2b7455e1c3e0,SCR,2024-06-20_15h31.41.554,LearnStrategy,2023.2.3,Win32,59.88023952,2,2,13,,,,,,,,8,06,,,,,,,,,,,,,8,1.153,1,,,,,,0.432291667,-0.37890625,1,0,0,1.153,Pumice_rect,12,0,12,0,1,
6079ff1600ff2b7455e1c3e0,SCR,2024-06-20_15h31.41.554,LearnStrategy,2023.2.3,Win32,59.88023952,2,2,14,,,,,,,,2,11,,,,,,,,,,,,,2,1.303,1,,,,,,-0.055989583,-0.26171875,1,0,0,1.3032,Basalt_rect,13,0,13,0,1,
6079ff1600ff2b7455e1c3e0,SCR,2024-06-20_15h31.41.554,LearnStrategy,2023.2.3,Win32,59.88023952,2,2,15,,,,,,,,2,04,,,,,,,,,,,,,2,0.992,1,,,,,,-0.087239583,-0.260416667,1,0,0,0.9917,Basalt_rect,14,0,14,0,1,
6079ff1600ff2b7455e1c3e0,SCR,2024-06-20_15h31.41.554,LearnStrategy,2023.2.3,Win32,59.88023952,2,2,16,,,,,,,,6,10,,,,,,,,,,,,,1,3.347,0,,,,,,-0.309895833,-0.259114583,1,0,0,3.3468,Andesite_rect,15,0,15,0,1,
6079ff1600ff2b7455e1c3e0,SCR,2024-06-20_15h31.41.554,LearnStrategy,2023.2.3,Win32,59.88023952,3,1,1,0.23046875,0.40625,1,0,0,2.4652,Andesite_01,1,01,6,6,2.465,6,09,0.084635417,-0.23828125,1,0,0,1.6499,Diorite_rect,3,1.65,0,0,0,0,0,1,,,,,,,,,,,,,
6079ff1600ff2b7455e1c3e0,SCR,2024-06-20_15h31.41.554,LearnStrategy,2023.2.3,Win32,59.88023952,3,1,2,0.0546875,0.428385417,1,0,0,0.8352,Gabbro_13,4,13,6,5,0.835,7,06,-0.368489583,-0.268229167,1,0,0,1.1712,Andesite_rect,1,1.171,0,1,0,1,0,1,,,,,,,,,,,,,
6079ff1600ff2b7455e1c3e0,SCR,2024-06-20_15h31.41.554,LearnStrategy,2023.2.3,Win32,59.88023952,3,1,3,-0.1015625,0.411458333,1,0,0,1.3699,Gabbro_09,4,09,6,4,1.37,4,08,-0.345052083,-0.252604167,1,0,0,1.5972,Andesite_rect,1,1.597,0,2,0,2,0,1,,,,,,,,,,,,,
6079ff1600ff2b7455e1c3e0,SCR,2024-06-20_15h31.41.554,LearnStrategy,2023.2.3,Win32,59.88023952,3,1,4,-0.345052083,0.27734375,1,0,0,2.9956,Gabbro_10,4,10,5,2,2.996,4,13,0.40234375,-0.260416667,1,0,0,1.0207,Gabbro_rect,4,1.021,1,3,0,3,0,1,,,,,,,,,,,,,
6079ff1600ff2b7455e1c3e0,SCR,2024-06-20_15h31.41.554,LearnStrategy,2023.2.3,Win32,59.88023952,3,1,5,-0.075520833,-0.115885417,1,0,0,1.0197,Peridotite_07,7,07,3,4,1.02,6,09,0.291666667,-0.2421875,1,0,0,1.2753,Gabbro_rect,4,1.275,0,4,0,4,0,1,,,,,,,,,,,,,
6079ff1600ff2b7455e1c3e0,SCR,2024-06-20_15h31.41.554,LearnStrategy,2023.2.3,Win32,59.88023952,3,1,6,-0.286458333,-0.268229167,1,0,0,2.0145,Pegmatite_07,6,07,2,3,2.014,7,15,-0.385416667,-0.263020833,1,0,0,0.6747,Andesite_rect,1,0.675,0,5,0,5,0,1,,,,,,,,,,,,,
6079ff1600ff2b7455e1c3e0,SCR,2024-06-20_15h31.41.554,LearnStrategy,2023.2.3,Win32,59.88023952,3,1,7,0.5390625,0.09765625,1,0,0,1.039,Pegmatite_15,6,15,4,8,1.039,7,07,-0.108072917,-0.39453125,1,0,0,0.9902,Pegmatite_rect,6,0.99,1,6,0,6,0,1,,,,,,,,,,,,,
6079ff1600ff2b7455e1c3e0,SCR,2024-06-20_15h31.41.554,LearnStrategy,2023.2.3,Win32,59.88023952,3,1,8,-0.044270833,-0.4140625,1,0,0,2.9129,Peridotite_06,7,06,1,4,2.913,1,03,-0.057291667,-0.255208333,1,0,0,2.079,Basalt_rect,2,2.079,0,7,0,7,0,1,,,,,,,,,,,,,
6079ff1600ff2b7455e1c3e0,SCR,2024-06-20_15h31.41.554,LearnStrategy,2023.2.3,Win32,59.88023952,3,1,9,-0.200520833,-0.270833333,1,0,0,2.0337,Pegmatite_07,6,07,2,3,2.034,3,15,0.055989583,-0.38671875,1,0,0,0.7569,Peridotite_rect,7,0.757,0,8,0,8,0,1,,,,,,,,,,,,,
6079ff1600ff2b7455e1c3e0,SCR,2024-06-20_15h31.41.554,LearnStrategy,2023.2.3,Win32,59.88023952,3,1,10,0.516927083,-0.26171875,1,0,0,2.6542,Diorite_07,3,07,2,8,2.654,6,15,0.205729167,-0.236979167,1,0,0,0.778,Diorite_rect,3,0.778,1,9,0,9,0,1,,,,,,,,,,,,,
6079ff1600ff2b7455e1c3e0,SCR,2024-06-20_15h31.41.554,LearnStrategy,2023.2.3,Win32,59.88023952,3,1,11,0.192708333,0.1015625,1,0,0,1.7741,Pegmatite_03,6,03,4,6,1.774,3,07,-0.361979167,-0.234375,1,0,0,1.4281,Andesite_rect,1,1.428,0,10,0,10,0,1,,,,,,,,,,,,,
6079ff1600ff2b7455e1c3e0,SCR,2024-06-20_15h31.41.554,LearnStrategy,2023.2.3,Win32,59.88023952,3,1,12,0.54296875,0.1171875,1,0,0,1.1688,Pegmatite_15,6,15,4,8,1.169,1,14,-0.06640625,-0.391927083,1,0,0,1.0306,Pegmatite_rect,6,1.031,1,11,0,11,0,1,,,,,,,,,,,,,
6079ff1600ff2b7455e1c3e0,SCR,2024-06-20_15h31.41.554,LearnStrategy,2023.2.3,Win32,59.88023952,3,1,13,0.368489583,0.091145833,1,0,0,1.9066,Pegmatite_09,6,09,4,7,1.907,7,10,-0.088541667,-0.4140625,1,0,0,1.0753,Pegmatite_rect,6,1.075,1,12,0,12,0,1,,,,,,,,,,,,,
6079ff1600ff2b7455e1c3e0,SCR,2024-06-20_15h31.41.554,LearnStrategy,2023.2.3,Win32,59.88023952,3,1,14,-0.201822917,0.08984375,1,0,0,2.4449,Diorite_06,3,06,4,3,2.445,1,10,0.126302083,-0.264322917,1,0,0,1.1904,Diorite_rect,3,1.19,1,13,0,13,0,1,,,,,,,,,,,,,
6079ff1600ff2b7455e1c3e0,SCR,2024-06-20_15h31.41.554,LearnStrategy,2023.2.3,Win32,59.88023952,3,1,15,0.100260417,-0.115885417,1,0,0,3.4162,Obsidian_10,5,10,3,5,3.416,6,12,-0.342447917,-0.401041667,1,0,0,1.0497,Obsidian_rect,5,1.05,1,14,0,14,0,1,,,,,,,,,,,,,
6079ff1600ff2b7455e1c3e0,SCR,2024-06-20_15h31.41.554,LearnStrategy,2023.2.3,Win32,59.88023952,3,1,16,0.045572917,0.244791667,1,0,0,2.7603,Diorite_10,3,10,5,5,2.76,4,12,0.111979167,-0.252604167,1,0,0,2.0631,Diorite_rect,3,2.063,1,15,0,15,0,1,,,,,,,,,,,,,
6079ff1600ff2b7455e1c3e0,SCR,2024-06-20_15h31.41.554,LearnStrategy,2023.2.3,Win32,59.88023952,3,2,1,,,,,,,,4,16,,,,,,,,,,,,,2,1.903,0,,,,,,-0.10546875,-0.244791667,1,0,0,1.9033,Basalt_rect,0,0,0,0,1,
6079ff1600ff2b7455e1c3e0,SCR,2024-06-20_15h31.41.554,LearnStrategy,2023.2.3,Win32,59.88023952,3,2,2,,,,,,,,2,02,,,,,,,,,,,,,2,4.133,1,,,,,,-0.10546875,-0.244791667,1,0,0,4.133,Basalt_rect,1,0,1,0,1,
6079ff1600ff2b7455e1c3e0,SCR,2024-06-20_15h31.41.554,LearnStrategy,2023.2.3,Win32,59.88023952,3,2,3,,,,,,,,7,05,,,,,,,,,,,,,4,5.388,0,,,,,,0.416666667,-0.260416667,1,0,0,5.3876,Gabbro_rect,2,0,2,0,1,
6079ff1600ff2b7455e1c3e0,SCR,2024-06-20_15h31.41.554,LearnStrategy,2023.2.3,Win32,59.88023952,3,2,4,,,,,,,,6,13,,,,,,,,,,,,,1,2.227,0,,,,,,-0.328125,-0.255208333,1,0,0,2.2275,Andesite_rect,3,0,3,0,1,
6079ff1600ff2b7455e1c3e0,SCR,2024-06-20_15h31.41.554,LearnStrategy,2023.2.3,Win32,59.88023952,3,2,5,,,,,,,,2,09,,,,,,,,,,,,,2,1.144,1,,,,,,-0.1484375,-0.2578125,1,0,0,1.1435,Basalt_rect,4,0,4,0,1,
6079ff1600ff2b7455e1c3e0,SCR,2024-06-20_15h31.41.554,LearnStrategy,2023.2.3,Win32,59.88023952,3,2,6,,,,,,,,8,09,,,,,,,,,,,,,8,1.422,1,,,,,,0.434895833,-0.381510417,1,0,0,1.422,Pumice_rect,5,0,5,0,1,
6079ff1600ff2b7455e1c3e0,SCR,2024-06-20_15h31.41.554,LearnStrategy,2023.2.3,Win32,59.88023952,3,2,7,,,,,,,,7,14,,,,,,,,,,,,,3,5.255,0,,,,,,0.14453125,-0.265625,1,0,0,5.2546,Diorite_rect,6,0,6,0,1,
6079ff1600ff2b7455e1c3e0,SCR,2024-06-20_15h31.41.554,LearnStrategy,2023.2.3,Win32,59.88023952,3,2,8,,,,,,,,3,13,,,,,,,,,,,,,3,1.726,1,,,,,,0.12109375,-0.236979167,1,0,0,1.7256,Diorite_rect,7,0,7,0,1,
6079ff1600ff2b7455e1c3e0,SCR,2024-06-20_15h31.41.554,LearnStrategy,2023.2.3,Win32,59.88023952,3,2,9,,,,,,,,3,02,,,,,,,,,,,,,3,0.974,1,,,,,,0.123697917,-0.233072917,1,0,0,0.9744,Diorite_rect,8,0,8,0,1,
6079ff1600ff2b7455e1c3e0,SCR,2024-06-20_15h31.41.554,LearnStrategy,2023.2.3,Win32,59.88023952,3,2,10,,,,,,,,5,05,,,,,,,,,,,,,5,1.996,1,,,,,,-0.34375,-0.399739583,1,0,0,1.9956,Obsidian_rect,9,0,9,0,1,
6079ff1600ff2b7455e1c3e0,SCR,2024-06-20_15h31.41.554,LearnStrategy,2023.2.3,Win32,59.88023952,3,2,11,,,,,,,,8,16,,,,,,,,,,,,,8,1.191,1,,,,,,0.37109375,-0.420572917,1,0,0,1.191,Pumice_rect,10,0,10,0,1,
6079ff1600ff2b7455e1c3e0,SCR,2024-06-20_15h31.41.554,LearnStrategy,2023.2.3,Win32,59.88023952,3,2,12,,,,,,,,6,06,,,,,,,,,,,,,1,1.854,0,,,,,,-0.330729167,-0.268229167,1,0,0,1.8539,Andesite_rect,11,0,11,0,1,
6079ff1600ff2b7455e1c3e0,SCR,2024-06-20_15h31.41.554,LearnStrategy,2023.2.3,Win32,59.88023952,3,2,13,,,,,,,,1,06,,,,,,,,,,,,,3,6.158,0,,,,,,0.111979167,-0.247395833,1,0,0,6.1582,Diorite_rect,12,0,12,0,1,
6079ff1600ff2b7455e1c3e0,SCR,2024-06-20_15h31.41.554,LearnStrategy,2023.2.3,Win32,59.88023952,3,2,14,,,,,,,,4,14,,,,,,,,,,,,,4,3.443,1,,,,,,0.376302083,-0.244791667,1,0,0,3.4428,Gabbro_rect,13,0,13,0,1,
6079ff1600ff2b7455e1c3e0,SCR,2024-06-20_15h31.41.554,LearnStrategy,2023.2.3,Win32,59.88023952,3,2,15,,,,,,,,5,07,,,,,,,,,,,,,5,1.167,1,,,,,,-0.372395833,-0.388020833,1,0,0,1.1667,Obsidian_rect,14,0,14,0,1,
6079ff1600ff2b7455e1c3e0,SCR,2024-06-20_15h31.41.554,LearnStrategy,2023.2.3,Win32,59.88023952,3,2,16,,,,,,,,1,07,,,,,,,,,,,,,3,1.117,0,,,,,,0.0390625,-0.24609375,1,0,0,1.1167,Diorite_rect,15,0,15,0,1,
6079ff1600ff2b7455e1c3e0,SCR,2024-06-20_15h31.41.554,LearnStrategy,2023.2.3,Win32,59.88023952,4,1,1,0.2109375,0.260416667,1,0,0,2.1186,Diorite_14,3,14,5,6,2.119,4,12,0.1328125,-0.239583333,1,0,0,1.3122,Diorite_rect,3,1.312,1,0,0,0,0,1,,,,,,,,,,,,,
6079ff1600ff2b7455e1c3e0,SCR,2024-06-20_15h31.41.554,LearnStrategy,2023.2.3,Win32,59.88023952,4,1,2,-0.263020833,0.065104167,1,0,0,1.2097,Diorite_06,3,06,4,3,1.21,1,14,0.118489583,-0.26953125,1,0,0,1.2819,Diorite_rect,3,1.282,1,1,0,1,0,1,,,,,,,,,,,,,
6079ff1600ff2b7455e1c3e0,SCR,2024-06-20_15h31.41.554,LearnStrategy,2023.2.3,Win32,59.88023952,4,1,3,-0.209635417,-0.25390625,1,0,0,1.125,Pegmatite_07,6,07,2,3,1.125,6,12,-0.391927083,-0.247395833,1,0,0,0.663,Andesite_rect,1,0.663,0,2,0,2,0,1,,,,,,,,,,,,,
6079ff1600ff2b7455e1c3e0,SCR,2024-06-20_15h31.41.554,LearnStrategy,2023.2.3,Win32,59.88023952,4,1,4,0.522135417,0.076822917,1,0,0,0.9731,Pegmatite_15,6,15,4,8,0.973,1,04,-0.061197917,-0.384114583,1,0,0,2.719,Pegmatite_rect,6,2.719,1,3,0,3,0,1,,,,,,,,,,,,,
6079ff1600ff2b7455e1c3e0,SCR,2024-06-20_15h31.41.554,LearnStrategy,2023.2.3,Win32,59.88023952,4,1,5,0.266927083,0.09375,1,0,0,1.2021,Pegmatite_03,6,03,4,6,1.202,3,08,-0.123697917,-0.395833333,1,0,0,1.5301,Pegmatite_rect,6,1.53,1,4,0,4,0,1,,,,,,,,,,,,,
6079ff1600ff2b7455e1c3e0,SCR,2024-06-20_15h31.41.554,LearnStrategy,2023.2.3,Win32,59.88023952,4,1,6,0.21484375,-0.088541667,1,0,0,2.2664,Andesite_03,1,03,3,6,2.266,1,10,0.119791667,-0.240885417,1,0,0,1.4992,Diorite_rect,3,1.499,0,5,0,5,0,1,,,,,,,,,,,,,
6079ff1600ff2b7455e1c3e0,SCR,2024-06-20_15h31.41.554,LearnStrategy,2023.2.3,Win32,59.88023952,4,1,7,-0.3828125,0.3984375,1,0,0,1.2617,Basalt_12,2,12,6,2,1.262,1,16,0.3203125,-0.39453125,1,0,0,1.2396,Pumice_rect,8,1.24,0,6,0,6,0,1,,,,,,,,,,,,,
6079ff1600ff2b7455e1c3e0,SCR,2024-06-20_15h31.41.554,LearnStrategy,2023.2.3,Win32,59.88023952,4,1,8,0.220052083,-0.303385417,1,0,0,1.9778,Gabbro_12,4,12,2,6,1.978,7,15,-0.350260417,-0.2421875,1,0,0,0.8465,Andesite_rect,1,0.846,0,7,0,7,0,1,,,,,,,,,,,,,
6079ff1600ff2b7455e1c3e0,SCR,2024-06-20_15h31.41.554,LearnStrategy,2023.2.3,Win32,59.88023952,4,1,9,0.384114583,-0.421875,1,0,0,2.1871,Gabbro_08,4,08,1,7,2.187,7,10,-0.388020833,-0.244791667,1,0,0,2.2588,Andesite_rect,1,2.259,0,8,0,8,0,1,,,,,,,,,,,,,
6079ff1600ff2b7455e1c3e0,SCR,2024-06-20_15h31.41.554,LearnStrategy,2023.2.3,Win32,59.88023952,4,1,10,-0.427083333,-0.104166667,1,0,0,2.3043,Basalt_08,2,08,3,2,2.304,6,09,-0.111979167,-0.263020833,1,0,0,1.4698,Basalt_rect,2,1.47,1,9,0,9,0,1,,,,,,,,,,,,,
6079ff1600ff2b7455e1c3e0,SCR,2024-06-20_15h31.41.554,LearnStrategy,2023.2.3,Win32,59.88023952,4,1,11,-0.506510417,-0.126302083,1,0,0,0.977,Basalt_06,2,06,3,1,0.977,7,07,-0.143229167,-0.244791667,1,0,0,1.9179,Basalt_rect,2,1.918,1,10,0,10,0,1,,,,,,,,,,,,,
6079ff1600ff2b7455e1c3e0,SCR,2024-06-20_15h31.41.554,LearnStrategy,2023.2.3,Win32,59.88023952,4,1,12,-0.533854167,-0.260416667,1,0,0,1.4872,Basalt_01,2,01,2,1,1.487,4,08,0.37890625,-0.244791667,1,0,0,0.9773,Gabbro_rect,4,0.977,0,11,0,11,0,1,,,,,,,,,,,,,
6079ff1600ff2b7455e1c3e0,SCR,2024-06-20_15h31.41.554,LearnStrategy,2023.2.3,Win32,59.88023952,4,1,13,-0.200520833,-0.432291667,1,0,0,1.0488,Pumice_08,8,08,1,3,1.049,7,02,0.346354167,-0.40234375,1,0,0,0.91,Pumice_rect,8,0.91,1,12,0,12,0,1,,,,,,,,,,,,,
6079ff1600ff2b7455e1c3e0,SCR,2024-06-20_15h31.41.554,LearnStrategy,2023.2.3,Win32,59.88023952,4,1,14,-0.501302083,0.266927083,1,0,0,6.794,Andesite_10,1,10,5,1,6.794,6,11,0.364583333,-0.390625,1,0,0,2.0826,Pumice_rect,8,2.083,0,13,0,13,0,1,,,,,,,,,,,,,
6079ff1600ff2b7455e1c3e0,SCR,2024-06-20_15h31.41.554,LearnStrategy,2023.2.3,Win32,59.88023952,4,1,15,-0.08203125,0.408854167,1,0,0,5.5654,Gabbro_09,4,09,6,4,5.565,2,01,0.326822917,-0.26171875,1,0,0,0.982,Gabbro_rect,4,0.982,1,14,0,14,0,1,,,,,,,,,,,,,
6079ff1600ff2b7455e1c3e0,SCR,2024-06-20_15h31.41.554,LearnStrategy,2023.2.3,Win32,59.88023952,4,1,16,-0.2421875,0.240885417,1,0,0,1.9815,Andesite_16,1,16,5,3,1.981,6,15,0.39453125,-0.252604167,1,0,0,1.1814,Gabbro_rect,4,1.181,0,15,0,15,0,1,,,,,,,,,,,,,
6079ff1600ff2b7455e1c3e0,SCR,2024-06-20_15h31.41.554,LearnStrategy,2023.2.3,Win32,59.88023952,4,2,1,,,,,,,,1,02,,,,,,,,,,,,,1,10.082,1,,,,,,-0.375,-0.247395833,1,0,0,10.0823,Andesite_rect,0,0,0,0,1,
6079ff1600ff2b7455e1c3e0,SCR,2024-06-20_15h31.41.554,LearnStrategy,2023.2.3,Win32,59.88023952,4,2,2,,,,,,,,7,14,,,,,,,,,,,,,3,3.932,0,,,,,,0.104166667,-0.26171875,1,0,0,3.9323,Diorite_rect,1,0,1,0,1,
6079ff1600ff2b7455e1c3e0,SCR,2024-06-20_15h31.41.554,LearnStrategy,2023.2.3,Win32,59.88023952,4,2,3,,,,,,,,4,14,,,,,,,,,,,,,4,2.073,1,,,,,,0.33203125,-0.26953125,1,0,0,2.073,Gabbro_rect,2,0,2,0,1,
6079ff1600ff2b7455e1c3e0,SCR,2024-06-20_15h31.41.554,LearnStrategy,2023.2.3,Win32,59.88023952,4,2,4,,,,,,,,1,07,,,,,,,,,,,,,3,1.07,0,,,,,,0.09375,-0.25,1,0,0,1.07,Diorite_rect,3,0,3,0,1,
6079ff1600ff2b7455e1c3e0,SCR,2024-06-20_15h31.41.554,LearnStrategy,2023.2.3,Win32,59.88023952,4,2,5,,,,,,,,6,13,,,,,,,,,,,,,1,2.57,0,,,,,,-0.3671875,-0.25390625,1,0,0,2.5703,Andesite_rect,4,0,4,0,1,
6079ff1600ff2b7455e1c3e0,SCR,2024-06-20_15h31.41.554,LearnStrategy,2023.2.3,Win32,59.88023952,4,2,6,,,,,,,,5,02,,,,,,,,,,,,,5,1.058,1,,,,,,-0.350260417,-0.391927083,1,0,0,1.0584,Obsidian_rect,5,0,5,0,1,
6079ff1600ff2b7455e1c3e0,SCR,2024-06-20_15h31.41.554,LearnStrategy,2023.2.3,Win32,59.88023952,4,2,7,,,,,,,,5,04,,,,,,,,,,,,,5,0.853,1,,,,,,-0.3828125,-0.399739583,1,0,0,0.8529,Obsidian_rect,6,0,6,0,1,
6079ff1600ff2b7455e1c3e0,SCR,2024-06-20_15h31.41.554,LearnStrategy,2023.2.3,Win32,59.88023952,4,2,8,,,,,,,,3,13,,,,,,,,,,,,,3,1.51,1,,,,,,0.141927083,-0.264322917,1,0,0,1.5098,Diorite_rect,7,0,7,0,1,
6079ff1600ff2b7455e1c3e0,SCR,2024-06-20_15h31.41.554,LearnStrategy,2023.2.3,Win32,59.88023952,4,2,9,,,,,,,,6,16,,,,,,,,,,,,,1,1.7,0,,,,,,-0.365885417,-0.268229167,1,0,0,1.7004,Andesite_rect,8,0,8,0,1,
6079ff1600ff2b7455e1c3e0,SCR,2024-06-20_15h31.41.554,LearnStrategy,2023.2.3,Win32,59.88023952,4,2,10,,,,,,,,4,11,,,,,,,,,,,,,4,2.675,1,,,,,,0.3984375,-0.255208333,1,0,0,2.6754,Gabbro_rect,9,0,9,0,1,
6079ff1600ff2b7455e1c3e0,SCR,2024-06-20_15h31.41.554,LearnStrategy,2023.2.3,Win32,59.88023952,4,2,11,,,,,,,,7,16,,,,,,,,,,,,,4,1.278,0,,,,,,0.364583333,-0.229166667,1,0,0,1.2782,Gabbro_rect,10,0,10,0,1,
6079ff1600ff2b7455e1c3e0,SCR,2024-06-20_15h31.41.554,LearnStrategy,2023.2.3,Win32,59.88023952,4,2,12,,,,,,,,8,03,,,,,,,,,,,,,8,1.634,1,,,,,,0.380208333,-0.3984375,1,0,0,1.6343,Pumice_rect,11,0,11,0,1,
6079ff1600ff2b7455e1c3e0,SCR,2024-06-20_15h31.41.554,LearnStrategy,2023.2.3,Win32,59.88023952,4,2,13,,,,,,,,2,02,,,,,,,,,,,,,4,5.496,0,,,,,,0.3671875,-0.234375,1,0,0,5.4963,Gabbro_rect,12,0,12,0,1,
6079ff1600ff2b7455e1c3e0,SCR,2024-06-20_15h31.41.554,LearnStrategy,2023.2.3,Win32,59.88023952,4,2,14,,,,,,,,8,16,,,,,,,,,,,,,8,1.587,1,,,,,,0.391927083,-0.399739583,1,0,0,1.587,Pumice_rect,13,0,13,0,1,
6079ff1600ff2b7455e1c3e0,SCR,2024-06-20_15h31.41.554,LearnStrategy,2023.2.3,Win32,59.88023952,4,2,15,,,,,,,,2,05,,,,,,,,,,,,,2,1.275,1,,,,,,-0.131510417,-0.248697917,1,0,0,1.2754,Basalt_rect,14,0,14,0,1,
6079ff1600ff2b7455e1c3e0,SCR,2024-06-20_15h31.41.554,LearnStrategy,2023.2.3,Win32,59.88023952,4,2,16,,,,,,,,3,16,,,,,,,,,,,,,3,0.953,1,,,,,,0.110677083,-0.264322917,1,0,0,0.9534,Diorite_rect,15,0,15,0,1,
6079ff1600ff2b7455e1c3e0,SCR,2024-06-20_15h31.41.554,LearnStrategy,2023.2.3,Win32,59.88023952,5,1,1,-0.26171875,-0.2265625,1,0,0,2.1957,Pegmatite_07,6,07,2,3,2.196,6,12,-0.412760417,-0.233072917,1,0,0,1.1651,Andesite_rect,1,1.165,0,0,0,0,0,1,,,,,,,,,,,,,
6079ff1600ff2b7455e1c3e0,SCR,2024-06-20_15h31.41.554,LearnStrategy,2023.2.3,Win32,59.88023952,5,1,2,0.381510417,0.12890625,1,0,0,0.9852,Pegmatite_09,6,09,4,7,0.985,6,03,-0.118489583,-0.385416667,1,0,0,0.9871,Pegmatite_rect,6,0.987,1,1,0,1,0,1,,,,,,,,,,,,,
6079ff1600ff2b7455e1c3e0,SCR,2024-06-20_15h31.41.554,LearnStrategy,2023.2.3,Win32,59.88023952,5,1,3,0.52734375,0.08984375,1,0,0,0.9673,Pegmatite_15,6,15,4,8,0.967,7,04,-0.06640625,-0.421875,1,0,0,0.8224,Pegmatite_rect,6,0.822,1,2,0,2,0,1,,,,,,,,,,,,,
6079ff1600ff2b7455e1c3e0,SCR,2024-06-20_15h31.41.554,LearnStrategy,2023.2.3,Win32,59.88023952,5,1,4,0.372395833,0.076822917,1,0,0,0.8016,Pegmatite_09,6,09,4,7,0.802,7,06,-0.095052083,-0.419270833,1,0,0,0.9425,Pegmatite_rect,6,0.942,1,3,0,3,0,1,,,,,,,,,,,,,
6079ff1600ff2b7455e1c3e0,SCR,2024-06-20_15h31.41.554,LearnStrategy,2023.2.3,Win32,59.88023952,5,1,5,0.233072917,-0.084635417,1,0,0,5.1864,Andesite_03,1,03,3,6,5.186,1,14,0.399739583,-0.240885417,1,0,0,1.1158,Gabbro_rect,4,1.116,0,4,0,4,0,1,,,,,,,,,,,,,
6079ff1600ff2b7455e1c3e0,SCR,2024-06-20_15h31.41.554,LearnStrategy,2023.2.3,Win32,59.88023952,5,1,6,-0.263020833,0.24609375,1,0,0,1.3976,Andesite_16,1,16,5,3,1.398,2,06,-0.34375,-0.233072917,1,0,0,1.0493,Andesite_rect,1,1.049,1,5,0,5,0,1,,,,,,,,,,,,,
6079ff1600ff2b7455e1c3e0,SCR,2024-06-20_15h31.41.554,LearnStrategy,2023.2.3,Win32,59.88023952,5,1,7,-0.544270833,0.266927083,1,0,0,1.6658,Andesite_10,1,10,5,1,1.666,4,09,-0.358072917,-0.25390625,1,0,0,2.1427,Andesite_rect,1,2.143,1,6,0,6,0,1,,,,,,,,,,,,,
6079ff1600ff2b7455e1c3e0,SCR,2024-06-20_15h31.41.554,LearnStrategy,2023.2.3,Win32,59.88023952,5,1,8,-0.244791667,-0.100260417,1,0,0,3.8502,Andesite_14,1,14,3,3,3.85,7,15,-0.36328125,-0.23046875,1,0,0,1.1216,Andesite_rect,1,1.122,1,7,0,7,0,1,,,,,,,,,,,,,
6079ff1600ff2b7455e1c3e0,SCR,2024-06-20_15h31.41.554,LearnStrategy,2023.2.3,Win32,59.88023952,5,1,9,0.541666667,-0.247395833,1,0,0,2.1916,Diorite_07,3,07,2,8,2.192,3,15,0.141927083,-0.233072917,1,0,0,1.4376,Diorite_rect,3,1.438,1,8,0,8,0,1,,,,,,,,,,,,,
6079ff1600ff2b7455e1c3e0,SCR,2024-06-20_15h31.41.554,LearnStrategy,2023.2.3,Win32,59.88023952,5,1,10,0.35546875,0.0859375,1,0,0,1.7893,Pegmatite_09,6,09,4,7,1.789,1,01,-0.13671875,-0.407552083,1,0,0,1.4572,Pegmatite_rect,6,1.457,1,9,0,9,0,1,,,,,,,,,,,,,
6079ff1600ff2b7455e1c3e0,SCR,2024-06-20_15h31.41.554,LearnStrategy,2023.2.3,Win32,59.88023952,5,1,11,-0.036458333,0.408854167,1,0,0,3.5458,Gabbro_09,4,09,6,4,3.546,4,10,-0.333333333,-0.24609375,1,0,0,1.3339,Andesite_rect,1,1.334,0,10,0,10,0,1,,,,,,,,,,,,,
6079ff1600ff2b7455e1c3e0,SCR,2024-06-20_15h31.41.554,LearnStrategy,2023.2.3,Win32,59.88023952,5,1,12,0.059895833,0.079427083,1,0,0,1.373,Pumice_15,8,15,4,5,1.373,6,03,0.34765625,-0.384114583,1,0,0,1.5546,Pumice_rect,8,1.555,1,11,0,11,0,1,,,,,,,,,,,,,
6079ff1600ff2b7455e1c3e0,SCR,2024-06-20_15h31.41.554,LearnStrategy,2023.2.3,Win32,59.88023952,5,1,13,0.078125,-0.403645833,1,0,0,1.0857,Pumice_02,8,02,1,5,1.086,8,02,0.088541667,-0.411458333,1,0,0,0.9598,Peridotite_rect,7,0.96,0,12,0,12,0,1,,,,,,,,,,,,,
6079ff1600ff2b7455e1c3e0,SCR,2024-06-20_15h31.41.554,LearnStrategy,2023.2.3,Win32,59.88023952,5,1,14,-0.55078125,0.23046875,1,0,0,1.2106,Andesite_10,1,10,5,1,1.211,1,10,-0.341145833,-0.244791667,1,0,0,1.604,Andesite_rect,1,1.604,1,13,0,13,0,1,,,,,,,,,,,,,
6079ff1600ff2b7455e1c3e0,SCR,2024-06-20_15h31.41.554,LearnStrategy,2023.2.3,Win32,59.88023952,5,1,15,-0.10546875,-0.095052083,1,0,0,3.4135,Peridotite_07,7,07,3,4,3.413,6,07,-0.375,-0.234375,1,0,0,2.2762,Andesite_rect,1,2.276,0,14,0,14,0,1,,,,,,,,,,,,,
6079ff1600ff2b7455e1c3e0,SCR,2024-06-20_15h31.41.554,LearnStrategy,2023.2.3,Win32,59.88023952,5,1,16,0.08203125,0.390625,1,0,0,3.7568,Gabbro_13,4,13,6,5,3.757,7,02,0.14453125,-0.401041667,1,0,0,1.6448,Peridotite_rect,7,1.645,0,15,0,15,0,1,,,,,,,,,,,,,
6079ff1600ff2b7455e1c3e0,SCR,2024-06-20_15h31.41.554,LearnStrategy,2023.2.3,Win32,59.88023952,5,2,1,,,,,,,,7,05,,,,,,,,,,,,,7,2.208,1,,,,,,0.102864583,-0.40234375,1,0,0,2.2079,Peridotite_rect,0,0,0,0,1,
6079ff1600ff2b7455e1c3e0,SCR,2024-06-20_15h31.41.554,LearnStrategy,2023.2.3,Win32,59.88023952,5,2,2,,,,,,,,4,05,,,,,,,,,,,,,4,5.091,1,,,,,,0.401041667,-0.24609375,1,0,0,5.0906,Gabbro_rect,1,0,1,0,1,
6079ff1600ff2b7455e1c3e0,SCR,2024-06-20_15h31.41.554,LearnStrategy,2023.2.3,Win32,59.88023952,5,2,3,,,,,,,,5,05,,,,,,,,,,,,,5,1.586,1,,,,,,-0.389322917,-0.4140625,1,0,0,1.5861,Obsidian_rect,2,0,2,0,1,
6079ff1600ff2b7455e1c3e0,SCR,2024-06-20_15h31.41.554,LearnStrategy,2023.2.3,Win32,59.88023952,5,2,4,,,,,,,,3,09,,,,,,,,,,,,,3,1.096,1,,,,,,0.104166667,-0.23046875,1,0,0,1.0961,Diorite_rect,3,0,3,0,1,
6079ff1600ff2b7455e1c3e0,SCR,2024-06-20_15h31.41.554,LearnStrategy,2023.2.3,Win32,59.88023952,5,2,5,,,,,,,,1,11,,,,,,,,,,,,,1,1.801,1,,,,,,-0.384114583,-0.252604167,1,0,0,1.8008,Andesite_rect,4,0,4,0,1,
6079ff1600ff2b7455e1c3e0,SCR,2024-06-20_15h31.41.554,LearnStrategy,2023.2.3,Win32,59.88023952,5,2,6,,,,,,,,6,05,,,,,,,,,,,,,6,4.608,1,,,,,,-0.096354167,-0.395833333,1,0,0,4.6084,Pegmatite_rect,5,0,5,0,1,
6079ff1600ff2b7455e1c3e0,SCR,2024-06-20_15h31.41.554,LearnStrategy,2023.2.3,Win32,59.88023952,5,2,7,,,,,,,,8,06,,,,,,,,,,,,,8,1.35,1,,,,,,0.440104167,-0.390625,1,0,0,1.3496,Pumice_rect,6,0,6,0,1,
6079ff1600ff2b7455e1c3e0,SCR,2024-06-20_15h31.41.554,LearnStrategy,2023.2.3,Win32,59.88023952,5,2,8,,,,,,,,1,05,,,,,,,,,,,,,1,3.004,1,,,,,,-0.37890625,-0.260416667,1,0,0,3.0036,Andesite_rect,7,0,7,0,1,
6079ff1600ff2b7455e1c3e0,SCR,2024-06-20_15h31.41.554,LearnStrategy,2023.2.3,Win32,59.88023952,5,2,9,,,,,,,,7,13,,,,,,,,,,,,,7,1.694,1,,,,,,0.157552083,-0.39453125,1,0,0,1.6941,Peridotite_rect,8,0,8,0,1,
6079ff1600ff2b7455e1c3e0,SCR,2024-06-20_15h31.41.554,LearnStrategy,2023.2.3,Win32,59.88023952,5,2,10,,,,,,,,4,03,,,,,,,,,,,,,1,4.862,0,,,,,,-0.368489583,-0.260416667,1,0,0,4.8619,Andesite_rect,9,0,9,0,1,
6079ff1600ff2b7455e1c3e0,SCR,2024-06-20_15h31.41.554,LearnStrategy,2023.2.3,Win32,59.88023952,5,2,11,,,,,,,,6,10,,,,,,,,,,,,,6,3.502,1,,,,,,-0.100260417,-0.397135417,1,0,0,3.5024,Pegmatite_rect,10,0,10,0,1,
6079ff1600ff2b7455e1c3e0,SCR,2024-06-20_15h31.41.554,LearnStrategy,2023.2.3,Win32,59.88023952,5,2,12,,,,,,,,2,04,,,,,,,,,,,,,2,1.221,1,,,,,,-0.118489583,-0.265625,1,0,0,1.2213,Basalt_rect,11,0,11,0,1,
6079ff1600ff2b7455e1c3e0,SCR,2024-06-20_15h31.41.554,LearnStrategy,2023.2.3,Win32,59.88023952,5,2,13,,,,,,,,3,02,,,,,,,,,,,,,3,1.016,1,,,,,,0.158854167,-0.2421875,1,0,0,1.0157,Diorite_rect,12,0,12,0,1,
6079ff1600ff2b7455e1c3e0,SCR,2024-06-20_15h31.41.554,LearnStrategy,2023.2.3,Win32,59.88023952,5,2,14,,,,,,,,8,14,,,,,,,,,,,,,8,2.27,1,,,,,,0.401041667,-0.395833333,1,0,0,2.2702,Pumice_rect,13,0,13,0,1,
6079ff1600ff2b7455e1c3e0,SCR,2024-06-20_15h31.41.554,LearnStrategy,2023.2.3,Win32,59.88023952,5,2,15,,,,,,,,2,11,,,,,,,,,,,,,1,6.444,0,,,,,,-0.3359375,-0.265625,1,0,0,6.4436,Andesite_rect,14,0,14,0,1,
6079ff1600ff2b7455e1c3e0,SCR,2024-06-20_15h31.41.554,LearnStrategy,2023.2.3,Win32,59.88023952,5,2,16,,,,,,,,5,14,,,,,,,,,,,,,5,1.187,1,,,,,,-0.399739583,-0.421875,1,0,0,1.1868,Obsidian_rect,15,0,15,0,1,
6079ff1600ff2b7455e1c3e0,SCR,2024-06-20_15h31.41.554,LearnStrategy,2023.2.3,Win32,59.88023952,6,1,1,0.563802083,-0.40625,1,0,0,1.1743,Basalt_14,2,14,1,8,1.174,4,13,0.354166667,-0.393229167,1,0,0,2.137,Pumice_rect,8,2.137,0,0,0,0,0,1,,,,,,,,,,,,,
6079ff1600ff2b7455e1c3e0,SCR,2024-06-20_15h31.41.554,LearnStrategy,2023.2.3,Win32,59.88023952,6,1,2,0.544270833,-0.40625,1,0,0,1.176,Basalt_14,2,14,1,8,1.176,1,03,-0.045572917,-0.25,1,0,0,0.9128,Basalt_rect,2,0.913,1,1,0,1,0,1,,,,,,,,,,,,,
6079ff1600ff2b7455e1c3e0,SCR,2024-06-20_15h31.41.554,LearnStrategy,2023.2.3,Win32,59.88023952,6,1,3,0.055989583,-0.26171875,1,0,0,2.1909,Gabbro_15,4,15,2,5,2.191,2,08,0.095052083,-0.390625,1,0,0,1.7054,Peridotite_rect,7,1.705,0,2,0,2,0,1,,,,,,,,,,,,,
6079ff1600ff2b7455e1c3e0,SCR,2024-06-20_15h31.41.554,LearnStrategy,2023.2.3,Win32,59.88023952,6,1,4,-0.071614583,-0.434895833,1,0,0,1.0744,Peridotite_06,7,06,1,4,1.074,7,02,-0.16015625,-0.395833333,1,0,0,2.6431,Pegmatite_rect,6,2.643,0,3,0,3,0,1,,,,,,,,,,,,,
6079ff1600ff2b7455e1c3e0,SCR,2024-06-20_15h31.41.554,LearnStrategy,2023.2.3,Win32,59.88023952,6,1,5,-0.40625,-0.419270833,1,0,0,1.4808,Peridotite_15,7,15,1,2,1.481,1,10,0.05859375,-0.380208333,1,0,0,1.1258,Peridotite_rect,7,1.126,1,4,0,4,0,1,,,,,,,,,,,,,
6079ff1600ff2b7455e1c3e0,SCR,2024-06-20_15h31.41.554,LearnStrategy,2023.2.3,Win32,59.88023952,6,1,6,-0.045572917,-0.06640625,1,0,0,0.8168,Peridotite_07,7,07,3,4,0.817,4,12,0.12890625,-0.404947917,1,0,0,1.6994,Peridotite_rect,7,1.699,1,5,0,5,0,1,,,,,,,,,,,,,
6079ff1600ff2b7455e1c3e0,SCR,2024-06-20_15h31.41.554,LearnStrategy,2023.2.3,Win32,59.88023952,6,1,7,0.364583333,0.114583333,1,0,0,1.5635,Pegmatite_09,6,09,4,7,1.563,7,15,-0.1484375,-0.404947917,1,0,0,1.6179,Pegmatite_rect,6,1.618,1,6,0,6,0,1,,,,,,,,,,,,,
6079ff1600ff2b7455e1c3e0,SCR,2024-06-20_15h31.41.554,LearnStrategy,2023.2.3,Win32,59.88023952,6,1,8,-0.221354167,0.067708333,1,0,0,0.9755,Diorite_06,3,06,4,3,0.976,7,04,0.100260417,-0.2421875,1,0,0,2.5672,Diorite_rect,3,2.567,1,7,0,7,0,1,,,,,,,,,,,,,
6079ff1600ff2b7455e1c3e0,SCR,2024-06-20_15h31.41.554,LearnStrategy,2023.2.3,Win32,59.88023952,6,1,9,-0.4296875,0.123697917,1,0,0,0.9909,Peridotite_04,7,04,4,2,0.991,6,09,0.12109375,-0.399739583,1,0,0,1.075,Peridotite_rect,7,1.075,1,8,0,8,0,1,,,,,,,,,,,,,
6079ff1600ff2b7455e1c3e0,SCR,2024-06-20_15h31.41.554,LearnStrategy,2023.2.3,Win32,59.88023952,6,1,10,-0.434895833,0.303385417,1,0,0,1.0749,Gabbro_10,4,10,5,2,1.075,4,08,-0.369791667,-0.25390625,1,0,0,1.8853,Andesite_rect,1,1.885,0,9,0,9,0,1,,,,,,,,,,,,,
6079ff1600ff2b7455e1c3e0,SCR,2024-06-20_15h31.41.554,LearnStrategy,2023.2.3,Win32,59.88023952,6,1,11,-0.55078125,0.256510417,1,0,0,1.1668,Andesite_10,1,10,5,1,1.167,2,08,-0.3828125,-0.266927083,1,0,0,1.6883,Andesite_rect,1,1.688,1,10,0,10,0,1,,,,,,,,,,,,,
6079ff1600ff2b7455e1c3e0,SCR,2024-06-20_15h31.41.554,LearnStrategy,2023.2.3,Win32,59.88023952,6,1,12,0.045572917,0.09375,1,0,0,1.1916,Pumice_15,8,15,4,5,1.192,8,02,0.403645833,-0.385416667,1,0,0,1.4794,Pumice_rect,8,1.479,1,11,0,11,0,1,,,,,,,,,,,,,
6079ff1600ff2b7455e1c3e0,SCR,2024-06-20_15h31.41.554,LearnStrategy,2023.2.3,Win32,59.88023952,6,1,13,0.372395833,0.251302083,1,0,0,1.8396,Peridotite_10,7,10,5,7,1.84,3,10,0.153645833,-0.380208333,1,0,0,1.0357,Peridotite_rect,7,1.036,1,12,0,12,0,1,,,,,,,,,,,,,
6079ff1600ff2b7455e1c3e0,SCR,2024-06-20_15h31.41.554,LearnStrategy,2023.2.3,Win32,59.88023952,6,1,14,-0.236979167,0.2578125,1,0,0,1.9016,Andesite_16,1,16,5,3,1.902,1,10,-0.35546875,-0.239583333,1,0,0,1.854,Andesite_rect,1,1.854,1,13,0,13,0,1,,,,,,,,,,,,,
6079ff1600ff2b7455e1c3e0,SCR,2024-06-20_15h31.41.554,LearnStrategy,2023.2.3,Win32,59.88023952,6,1,15,-0.046875,0.39453125,1,0,0,1.2314,Gabbro_09,4,09,6,4,1.231,6,11,-0.33984375,-0.247395833,1,0,0,2.145,Andesite_rect,1,2.145,0,14,0,14,0,1,,,,,,,,,,,,,
6079ff1600ff2b7455e1c3e0,SCR,2024-06-20_15h31.41.554,LearnStrategy,2023.2.3,Win32,59.88023952,6,1,16,-0.373697917,0.22265625,1,0,0,1.8251,Gabbro_10,4,10,5,2,1.825,6,15,0.40234375,-0.240885417,1,0,0,1.5417,Gabbro_rect,4,1.542,1,15,0,15,0,1,,,,,,,,,,,,,
6079ff1600ff2b7455e1c3e0,SCR,2024-06-20_15h31.41.554,LearnStrategy,2023.2.3,Win32,59.88023952,6,2,1,,,,,,,,6,06,,,,,,,,,,,,,6,6.602,1,,,,,,-0.134114583,-0.411458333,1,0,0,6.6024,Pegmatite_rect,0,0,0,0,1,
6079ff1600ff2b7455e1c3e0,SCR,2024-06-20_15h31.41.554,LearnStrategy,2023.2.3,Win32,59.88023952,6,2,2,,,,,,,,3,11,,,,,,,,,,,,,3,1.126,1,,,,,,0.08984375,-0.231770833,1,0,0,1.1256,Diorite_rect,1,0,1,0,1,
6079ff1600ff2b7455e1c3e0,SCR,2024-06-20_15h31.41.554,LearnStrategy,2023.2.3,Win32,59.88023952,6,2,3,,,,,,,,6,08,,,,,,,,,,,,,6,1.288,1,,,,,,-0.139322917,-0.41796875,1,0,0,1.2882,Pegmatite_rect,2,0,2,0,1,
6079ff1600ff2b7455e1c3e0,SCR,2024-06-20_15h31.41.554,LearnStrategy,2023.2.3,Win32,59.88023952,6,2,4,,,,,,,,2,09,,,,,,,,,,,,,2,1.576,1,,,,,,-0.154947917,-0.26171875,1,0,0,1.5756,Basalt_rect,3,0,3,0,1,
6079ff1600ff2b7455e1c3e0,SCR,2024-06-20_15h31.41.554,LearnStrategy,2023.2.3,Win32,59.88023952,6,2,5,,,,,,,,8,04,,,,,,,,,,,,,8,1.125,1,,,,,,0.423177083,-0.391927083,1,0,0,1.1251,Pumice_rect,4,0,4,0,1,
6079ff1600ff2b7455e1c3e0,SCR,2024-06-20_15h31.41.554,LearnStrategy,2023.2.3,Win32,59.88023952,6,2,6,,,,,,,,1,06,,,,,,,,,,,,,1,1.259,1,,,,,,-0.334635417,-0.26953125,1,0,0,1.259,Andesite_rect,5,0,5,0,1,
6079ff1600ff2b7455e1c3e0,SCR,2024-06-20_15h31.41.554,LearnStrategy,2023.2.3,Win32,59.88023952,6,2,7,,,,,,,,7,08,,,,,,,,,,,,,7,1.236,1,,,,,,0.053385417,-0.415364583,1,0,0,1.2362,Peridotite_rect,6,0,6,0,1,
6079ff1600ff2b7455e1c3e0,SCR,2024-06-20_15h31.41.554,LearnStrategy,2023.2.3,Win32,59.88023952,6,2,8,,,,,,,,4,16,,,,,,,,,,,,,2,1.936,0,,,,,,-0.114583333,-0.251302083,1,0,0,1.9363,Basalt_rect,7,0,7,0,1,
6079ff1600ff2b7455e1c3e0,SCR,2024-06-20_15h31.41.554,LearnStrategy,2023.2.3,Win32,59.88023952,6,2,9,,,,,,,,4,01,,,,,,,,,,,,,1,1.07,0,,,,,,-0.354166667,-0.26953125,1,0,0,1.07,Andesite_rect,8,0,8,0,1,
6079ff1600ff2b7455e1c3e0,SCR,2024-06-20_15h31.41.554,LearnStrategy,2023.2.3,Win32,59.88023952,6,2,10,,,,,,,,1,09,,,,,,,,,,,,,1,1.643,1,,,,,,-0.319010417,-0.268229167,1,0,0,1.6431,Andesite_rect,9,0,9,0,1,
6079ff1600ff2b7455e1c3e0,SCR,2024-06-20_15h31.41.554,LearnStrategy,2023.2.3,Win32,59.88023952,6,2,11,,,,,,,,2,16,,,,,,,,,,,,,2,1.063,1,,,,,,-0.143229167,-0.256510417,1,0,0,1.0632,Basalt_rect,10,0,10,0,1,
6079ff1600ff2b7455e1c3e0,SCR,2024-06-20_15h31.41.554,LearnStrategy,2023.2.3,Win32,59.88023952,6,2,12,,,,,,,,3,12,,,,,,,,,,,,,3,1.05,1,,,,,,0.143229167,-0.229166667,1,0,0,1.0496,Diorite_rect,11,0,11,0,1,
6079ff1600ff2b7455e1c3e0,SCR,2024-06-20_15h31.41.554,LearnStrategy,2023.2.3,Win32,59.88023952,6,2,13,,,,,,,,7,12,,,,,,,,,,,,,7,1.265,1,,,,,,0.161458333,-0.397135417,1,0,0,1.2652,Peridotite_rect,12,0,12,0,1,
6079ff1600ff2b7455e1c3e0,SCR,2024-06-20_15h31.41.554,LearnStrategy,2023.2.3,Win32,59.88023952,6,2,14,,,,,,,,5,07,,,,,,,,,,,,,5,1.148,1,,,,,,-0.364583333,-0.407552083,1,0,0,1.1477,Obsidian_rect,13,0,13,0,1,
6079ff1600ff2b7455e1c3e0,SCR,2024-06-20_15h31.41.554,LearnStrategy,2023.2.3,Win32,59.88023952,6,2,15,,,,,,,,8,09,,,,,,,,,,,,,8,1.12,1,,,,,,0.375,-0.403645833,1,0,0,1.12,Pumice_rect,14,0,14,0,1,
6079ff1600ff2b7455e1c3e0,SCR,2024-06-20_15h31.41.554,LearnStrategy,2023.2.3,Win32,59.88023952,6,2,16,,,,,,,,5,12,,,,,,,,,,,,,5,1.613,1,,,,,,-0.3984375,-0.38671875,1,0,0,1.6129,Obsidian_rect,15,0,15,0,1,
6079ff1600ff2b7455e1c3e0,SCR,2024-06-20_15h31.41.554,LearnStrategy,2023.2.3,Win32,59.88023952,7,1,1,0.227864583,0.408854167,1,0,0,1.365,Andesite_01,1,01,6,6,1.365,8,13,0.388020833,-0.26171875,1,0,0,1.25,Gabbro_rect,4,1.25,0,0,0,0,0,1,,,,,,,,,,,,,
6079ff1600ff2b7455e1c3e0,SCR,2024-06-20_15h31.41.554,LearnStrategy,2023.2.3,Win32,59.88023952,7,1,2,0.0625,0.3828125,1,0,0,1.0876,Gabbro_13,4,13,6,5,1.088,4,08,0.342447917,-0.2421875,1,0,0,6.2968,Gabbro_rect,4,6.297,1,1,0,1,0,1,,,,,,,,,,,,,
6079ff1600ff2b7455e1c3e0,SCR,2024-06-20_15h31.41.554,LearnStrategy,2023.2.3,Win32,59.88023952,7,1,3,-0.540364583,0.3828125,1,0,0,2.3729,Pegmatite_11,6,11,6,1,2.373,2,01,-0.1328125,-0.401041667,1,0,0,1.7704,Pegmatite_rect,6,1.77,1,2,0,2,0,1,,,,,,,,,,,,,
6079ff1600ff2b7455e1c3e0,SCR,2024-06-20_15h31.41.554,LearnStrategy,2023.2.3,Win32,59.88023952,7,1,4,-0.53515625,0.28515625,1,0,0,1.9678,Andesite_10,1,10,5,1,1.968,7,15,-0.356770833,-0.24609375,1,0,0,1.1382,Andesite_rect,1,1.138,1,3,0,3,0,1,,,,,,,,,,,,,
6079ff1600ff2b7455e1c3e0,SCR,2024-06-20_15h31.41.554,LearnStrategy,2023.2.3,Win32,59.88023952,7,1,5,-0.522135417,-0.283854167,1,0,0,0.8922,Basalt_01,2,01,2,1,0.892,2,12,-0.186197917,-0.239583333,1,0,0,1.1495,Basalt_rect,2,1.149,1,4,0,4,0,1,,,,,,,,,,,,,
6079ff1600ff2b7455e1c3e0,SCR,2024-06-20_15h31.41.554,LearnStrategy,2023.2.3,Win32,59.88023952,7,1,6,-0.40234375,-0.1015625,1,0,0,1.1009,Basalt_08,2,08,3,2,1.101,3,15,-0.119791667,-0.236979167,1,0,0,0.9765,Basalt_rect,2,0.976,1,5,0,5,0,1,,,,,,,,,,,,,
6079ff1600ff2b7455e1c3e0,SCR,2024-06-20_15h31.41.554,LearnStrategy,2023.2.3,Win32,59.88023952,7,1,7,-0.223958333,0.234375,1,0,0,3.8281,Andesite_16,1,16,5,3,3.828,1,04,-0.35546875,-0.229166667,1,0,0,1.0535,Andesite_rect,1,1.053,1,6,0,6,0,1,,,,,,,,,,,,,
6079ff1600ff2b7455e1c3e0,SCR,2024-06-20_15h31.41.554,LearnStrategy,2023.2.3,Win32,59.88023952,7,1,8,0.549479167,0.397135417,1,0,0,2.7892,Pumice_10,8,10,6,8,2.789,6,09,0.376302083,-0.388020833,1,0,0,1.5076,Pumice_rect,8,1.508,1,7,0,7,0,1,,,,,,,,,,,,,
6079ff1600ff2b7455e1c3e0,SCR,2024-06-20_15h31.41.554,LearnStrategy,2023.2.3,Win32,59.88023952,7,1,9,0.3671875,0.4140625,1,0,0,0.9981,Pegmatite_12,6,12,6,7,0.998,7,06,-0.15625,-0.40625,1,0,0,1.8652,Pegmatite_rect,6,1.865,1,8,0,8,0,1,,,,,,,,,,,,,
6079ff1600ff2b7455e1c3e0,SCR,2024-06-20_15h31.41.554,LearnStrategy,2023.2.3,Win32,59.88023952,7,1,10,0.087239583,0.216145833,1,0,0,1.672,Diorite_10,3,10,5,5,1.672,4,09,-0.373697917,-0.256510417,1,0,0,1.283,Andesite_rect,1,1.283,0,9,0,9,0,1,,,,,,,,,,,,,
6079ff1600ff2b7455e1c3e0,SCR,2024-06-20_15h31.41.554,LearnStrategy,2023.2.3,Win32,59.88023952,7,1,11,-0.052083333,-0.131510417,1,0,0,2.5141,Peridotite_07,7,07,3,4,2.514,1,01,0.10546875,-0.388020833,1,0,0,1.5287,Peridotite_rect,7,1.529,1,10,0,10,0,1,,,,,,,,,,,,,
6079ff1600ff2b7455e1c3e0,SCR,2024-06-20_15h31.41.554,LearnStrategy,2023.2.3,Win32,59.88023952,7,1,12,-0.223958333,-0.41796875,1,0,0,0.9669,Pumice_08,8,08,1,3,0.967,5,09,0.369791667,-0.399739583,1,0,0,2.1883,Pumice_rect,8,2.188,1,11,0,11,0,1,,,,,,,,,,,,,
6079ff1600ff2b7455e1c3e0,SCR,2024-06-20_15h31.41.554,LearnStrategy,2023.2.3,Win32,59.88023952,7,1,13,-0.075520833,-0.4296875,1,0,0,0.9812,Peridotite_06,7,06,1,4,0.981,6,03,0.100260417,-0.404947917,1,0,0,4.3773,Peridotite_rect,7,4.377,1,12,0,12,0,1,,,,,,,,,,,,,
6079ff1600ff2b7455e1c3e0,SCR,2024-06-20_15h31.41.554,LearnStrategy,2023.2.3,Win32,59.88023952,7,1,14,0.09765625,-0.424479167,1,0,0,1.402,Pumice_02,8,02,1,5,1.402,4,10,0.317708333,-0.421875,1,0,0,1.0904,Pumice_rect,8,1.09,1,13,0,13,0,1,,,,,,,,,,,,,
6079ff1600ff2b7455e1c3e0,SCR,2024-06-20_15h31.41.554,LearnStrategy,2023.2.3,Win32,59.88023952,7,1,15,0.427083333,-0.265625,1,0,0,1.155,Peridotite_02,7,02,2,7,1.155,1,14,0.130208333,-0.412760417,1,0,0,1.6261,Peridotite_rect,7,1.626,1,14,0,14,0,1,,,,,,,,,,,,,
6079ff1600ff2b7455e1c3e0,SCR,2024-06-20_15h31.41.554,LearnStrategy,2023.2.3,Win32,59.88023952,7,1,16,0.415364583,-0.076822917,1,0,0,1.5709,Obsidian_06,5,06,3,7,1.571,4,12,-0.389322917,-0.3828125,1,0,0,0.7659,Obsidian_rect,5,0.766,1,15,0,15,0,1,,,,,,,,,,,,,
6079ff1600ff2b7455e1c3e0,SCR,2024-06-20_15h31.41.554,LearnStrategy,2023.2.3,Win32,59.88023952,7,2,1,,,,,,,,6,13,,,,,,,,,,,,,6,3.319,1,,,,,,-0.135416667,-0.401041667,1,0,0,3.3192,Pegmatite_rect,0,0,0,0,1,
6079ff1600ff2b7455e1c3e0,SCR,2024-06-20_15h31.41.554,LearnStrategy,2023.2.3,Win32,59.88023952,7,2,2,,,,,,,,5,14,,,,,,,,,,,,,5,1.589,1,,,,,,-0.34765625,-0.389322917,1,0,0,1.5893,Obsidian_rect,1,0,1,0,1,
6079ff1600ff2b7455e1c3e0,SCR,2024-06-20_15h31.41.554,LearnStrategy,2023.2.3,Win32,59.88023952,7,2,3,,,,,,,,2,02,,,,,,,,,,,,,2,11.107,1,,,,,,-0.173177083,-0.259114583,1,0,0,11.1074,Basalt_rect,2,0,2,0,1,
6079ff1600ff2b7455e1c3e0,SCR,2024-06-20_15h31.41.554,LearnStrategy,2023.2.3,Win32,59.88023952,7,2,4,,,,,,,,8,04,,,,,,,,,,,,,8,1.841,1,,,,,,0.3984375,-0.40234375,1,0,0,1.8413,Pumice_rect,3,0,3,0,1,
6079ff1600ff2b7455e1c3e0,SCR,2024-06-20_15h31.41.554,LearnStrategy,2023.2.3,Win32,59.88023952,7,2,5,,,,,,,,1,07,,,,,,,,,,,,,3,1.621,0,,,,,,0.119791667,-0.2421875,1,0,0,1.6209,Diorite_rect,4,0,4,0,1,
6079ff1600ff2b7455e1c3e0,SCR,2024-06-20_15h31.41.554,LearnStrategy,2023.2.3,Win32,59.88023952,7,2,6,,,,,,,,1,05,,,,,,,,,,,,,1,1.16,1,,,,,,-0.337239583,-0.25390625,1,0,0,1.1597,Andesite_rect,5,0,5,0,1,
6079ff1600ff2b7455e1c3e0,SCR,2024-06-20_15h31.41.554,LearnStrategy,2023.2.3,Win32,59.88023952,7,2,7,,,,,,,,3,16,,,,,,,,,,,,,3,1.597,1,,,,,,0.12890625,-0.268229167,1,0,0,1.597,Diorite_rect,6,0,6,0,1,
6079ff1600ff2b7455e1c3e0,SCR,2024-06-20_15h31.41.554,LearnStrategy,2023.2.3,Win32,59.88023952,7,2,8,,,,,,,,2,04,,,,,,,,,,,,,2,0.952,1,,,,,,-0.08203125,-0.266927083,1,0,0,0.9517,Basalt_rect,7,0,7,0,1,
6079ff1600ff2b7455e1c3e0,SCR,2024-06-20_15h31.41.554,LearnStrategy,2023.2.3,Win32,59.88023952,7,2,9,,,,,,,,7,14,,,,,,,,,,,,,7,2.185,1,,,,,,0.115885417,-0.390625,1,0,0,2.1853,Peridotite_rect,8,0,8,0,1,
6079ff1600ff2b7455e1c3e0,SCR,2024-06-20_15h31.41.554,LearnStrategy,2023.2.3,Win32,59.88023952,7,2,10,,,,,,,,6,10,,,,,,,,,,,,,6,1.145,1,,,,,,-0.091145833,-0.407552083,1,0,0,1.1446,Pegmatite_rect,9,0,9,0,1,
6079ff1600ff2b7455e1c3e0,SCR,2024-06-20_15h31.41.554,LearnStrategy,2023.2.3,Win32,59.88023952,7,2,11,,,,,,,,8,06,,,,,,,,,,,,,8,1.411,1,,,,,,0.397135417,-0.408854167,1,0,0,1.4115,Pumice_rect,10,0,10,0,1,
6079ff1600ff2b7455e1c3e0,SCR,2024-06-20_15h31.41.554,LearnStrategy,2023.2.3,Win32,59.88023952,7,2,12,,,,,,,,4,14,,,,,,,,,,,,,4,1.625,1,,,,,,0.342447917,-0.234375,1,0,0,1.6248,Gabbro_rect,11,0,11,0,1,
6079ff1600ff2b7455e1c3e0,SCR,2024-06-20_15h31.41.554,LearnStrategy,2023.2.3,Win32,59.88023952,7,2,13,,,,,,,,7,13,,,,,,,,,,,,,7,1.062,1,,,,,,0.139322917,-0.40625,1,0,0,1.062,Peridotite_rect,12,0,12,0,1,
6079ff1600ff2b7455e1c3e0,SCR,2024-06-20_15h31.41.554,LearnStrategy,2023.2.3,Win32,59.88023952,7,2,14,,,,,,,,5,07,,,,,,,,,,,,,5,1.048,1,,,,,,-0.37109375,-0.401041667,1,0,0,1.0479,Obsidian_rect,13,0,13,0,1,
6079ff1600ff2b7455e1c3e0,SCR,2024-06-20_15h31.41.554,LearnStrategy,2023.2.3,Win32,59.88023952,7,2,15,,,,,,,,4,01,,,,,,,,,,,,,1,1.271,0,,,,,,-0.427083333,-0.23828125,1,0,0,1.2713,Andesite_rect,14,0,14,0,1,
6079ff1600ff2b7455e1c3e0,SCR,2024-06-20_15h31.41.554,LearnStrategy,2023.2.3,Win32,59.88023952,7,2,16,,,,,,,,3,09,,,,,,,,,,,,,3,1.404,1,,,,,,0.087239583,-0.248697917,1,0,0,1.4039,Diorite_rect,15,0,15,0,1,
6079ff1600ff2b7455e1c3e0,SCR,2024-06-20_15h31.41.554,LearnStrategy,2023.2.3,Win32,59.88023952,8,1,1,0.096354167,0.37890625,1,0,0,3.647,Gabbro_13,4,13,6,5,3.647,8,10,0.411458333,-0.2421875,1,0,0,1.1142,Gabbro_rect,4,1.114,1,0,0,0,0,1,,,,,,,,,,,,,
6079ff1600ff2b7455e1c3e0,SCR,2024-06-20_15h31.41.554,LearnStrategy,2023.2.3,Win32,59.88023952,8,1,2,-0.053385417,0.436197917,1,0,0,0.7477,Gabbro_09,4,09,6,4,0.748,2,14,0.377604167,-0.259114583,1,0,0,1.1327,Gabbro_rect,4,1.133,1,1,0,1,0,1,,,,,,,,,,,,,
6079ff1600ff2b7455e1c3e0,SCR,2024-06-20_15h31.41.554,LearnStrategy,2023.2.3,Win32,59.88023952,8,1,3,0.376302083,-0.393229167,1,0,0,5.0757,Gabbro_08,4,08,1,7,5.076,4,09,-0.373697917,-0.260416667,1,0,0,1.3713,Andesite_rect,1,1.371,0,2,0,2,0,1,,,,,,,,,,,,,
6079ff1600ff2b7455e1c3e0,SCR,2024-06-20_15h31.41.554,LearnStrategy,2023.2.3,Win32,59.88023952,8,1,4,0.123697917,0.411458333,1,0,0,1.7498,Gabbro_13,4,13,6,5,1.75,5,16,0.375,-0.266927083,1,0,0,1.0801,Gabbro_rect,4,1.08,1,3,0,3,0,1,,,,,,,,,,,,,
6079ff1600ff2b7455e1c3e0,SCR,2024-06-20_15h31.41.554,LearnStrategy,2023.2.3,Win32,59.88023952,8,1,5,0.2265625,0.385416667,1,0,0,0.8158,Andesite_01,1,01,6,6,0.816,7,02,0.1171875,-0.2421875,1,0,0,1.0439,Diorite_rect,3,1.044,0,4,0,4,0,1,,,,,,,,,,,,,
6079ff1600ff2b7455e1c3e0,SCR,2024-06-20_15h31.41.554,LearnStrategy,2023.2.3,Win32,59.88023952,8,1,6,-0.1015625,0.3984375,1,0,0,1.5257,Gabbro_09,4,09,6,4,1.526,2,01,0.360677083,-0.23046875,1,0,0,1.0566,Gabbro_rect,4,1.057,1,5,0,5,0,1,,,,,,,,,,,,,
6079ff1600ff2b7455e1c3e0,SCR,2024-06-20_15h31.41.554,LearnStrategy,2023.2.3,Win32,59.88023952,8,1,7,-0.22265625,-0.08203125,1,0,0,1.4847,Andesite_14,1,14,3,3,1.485,3,14,0.118489583,-0.244791667,1,0,0,3.3261,Diorite_rect,3,3.326,0,6,0,6,0,1,,,,,,,,,,,,,
6079ff1600ff2b7455e1c3e0,SCR,2024-06-20_15h31.41.554,LearnStrategy,2023.2.3,Win32,59.88023952,8,1,8,-0.27734375,-0.104166667,1,0,0,2.5509,Andesite_14,1,14,3,3,2.551,6,11,-0.365885417,-0.259114583,1,0,0,1.3832,Andesite_rect,1,1.383,1,7,0,7,0,1,,,,,,,,,,,,,
6079ff1600ff2b7455e1c3e0,SCR,2024-06-20_15h31.41.554,LearnStrategy,2023.2.3,Win32,59.88023952,8,1,9,-0.385416667,-0.38671875,1,0,0,1.778,Peridotite_15,7,15,1,2,1.778,6,03,0.153645833,-0.40234375,1,0,0,1.0274,Peridotite_rect,7,1.027,1,8,0,8,0,1,,,,,,,,,,,,,
6079ff1600ff2b7455e1c3e0,SCR,2024-06-20_15h31.41.554,LearnStrategy,2023.2.3,Win32,59.88023952,8,1,10,0.1015625,-0.424479167,1,0,0,0.9542,Pumice_02,8,02,1,5,0.954,4,13,0.342447917,-0.407552083,1,0,0,1.0949,Pumice_rect,8,1.095,1,9,0,9,0,1,,,,,,,,,,,,,
6079ff1600ff2b7455e1c3e0,SCR,2024-06-20_15h31.41.554,LearnStrategy,2023.2.3,Win32,59.88023952,8,1,11,-0.234375,0.248697917,1,0,0,1.0318,Andesite_16,1,16,5,3,1.032,1,16,-0.358072917,-0.244791667,1,0,0,1.6049,Andesite_rect,1,1.605,1,10,0,10,0,1,,,,,,,,,,,,,
6079ff1600ff2b7455e1c3e0,SCR,2024-06-20_15h31.41.554,LearnStrategy,2023.2.3,Win32,59.88023952,8,1,12,-0.255208333,0.080729167,1,0,0,1.2207,Diorite_06,3,06,4,3,1.221,1,04,0.16015625,-0.268229167,1,0,0,1.2157,Diorite_rect,3,1.216,1,11,0,11,0,1,,,,,,,,,,,,,
6079ff1600ff2b7455e1c3e0,SCR,2024-06-20_15h31.41.554,LearnStrategy,2023.2.3,Win32,59.88023952,8,1,13,-0.536458333,-0.08984375,1,0,0,1.0141,Basalt_06,2,06,3,1,1.014,7,15,-0.157552083,-0.236979167,1,0,0,0.8977,Basalt_rect,2,0.898,1,12,0,12,0,1,,,,,,,,,,,,,
6079ff1600ff2b7455e1c3e0,SCR,2024-06-20_15h31.41.554,LearnStrategy,2023.2.3,Win32,59.88023952,8,1,14,-0.411458333,-0.123697917,1,0,0,0.9599,Basalt_08,2,08,3,2,0.96,1,10,-0.072916667,-0.247395833,1,0,0,0.7618,Basalt_rect,2,0.762,1,13,0,13,0,1,,,,,,,,,,,,,
6079ff1600ff2b7455e1c3e0,SCR,2024-06-20_15h31.41.554,LearnStrategy,2023.2.3,Win32,59.88023952,8,1,15,-0.55859375,-0.268229167,1,0,0,1.8727,Basalt_01,2,01,2,1,1.873,4,10,-0.19921875,-0.236979167,1,0,0,0.7377,Basalt_rect,2,0.738,1,14,0,14,0,1,,,,,,,,,,,,,
6079ff1600ff2b7455e1c3e0,SCR,2024-06-20_15h31.41.554,LearnStrategy,2023.2.3,Win32,59.88023952,8,1,16,0.231770833,-0.07421875,1,0,0,2.483,Andesite_03,1,03,3,6,2.483,4,09,-0.397135417,-0.243489583,1,0,0,1.9138,Andesite_rect,1,1.914,1,15,0,15,0,1,,,,,,,,,,,,,
6079ff1600ff2b7455e1c3e0,SCR,2024-06-20_15h31.41.554,LearnStrategy,2023.2.3,Win32,59.88023952,8,2,1,,,,,,,,5,02,,,,,,,,,,,,,5,1.121,1,,,,,,-0.372395833,-0.407552083,1,0,0,1.1211,Obsidian_rect,0,0,0,0,1,
6079ff1600ff2b7455e1c3e0,SCR,2024-06-20_15h31.41.554,LearnStrategy,2023.2.3,Win32,59.88023952,8,2,2,,,,,,,,5,12,,,,,,,,,,,,,5,0.664,1,,,,,,-0.372395833,-0.407552083,1,0,0,0.6635,Obsidian_rect,1,0,1,0,1,
6079ff1600ff2b7455e1c3e0,SCR,2024-06-20_15h31.41.554,LearnStrategy,2023.2.3,Win32,59.88023952,8,2,3,,,,,,,,2,11,,,,,,,,,,,,,1,3.449,0,,,,,,-0.380208333,-0.264322917,1,0,0,3.449,Andesite_rect,2,0,2,0,1,
6079ff1600ff2b7455e1c3e0,SCR,2024-06-20_15h31.41.554,LearnStrategy,2023.2.3,Win32,59.88023952,8,2,4,,,,,,,,7,08,,,,,,,,,,,,,7,1.517,1,,,,,,0.139322917,-0.395833333,1,0,0,1.5174,Peridotite_rect,3,0,3,0,1,
6079ff1600ff2b7455e1c3e0,SCR,2024-06-20_15h31.41.554,LearnStrategy,2023.2.3,Win32,59.88023952,8,2,5,,,,,,,,6,08,,,,,,,,,,,,,6,1.021,1,,,,,,-0.065104167,-0.3984375,1,0,0,1.0213,Pegmatite_rect,4,0,4,0,1,
6079ff1600ff2b7455e1c3e0,SCR,2024-06-20_15h31.41.554,LearnStrategy,2023.2.3,Win32,59.88023952,8,2,6,,,,,,,,3,02,,,,,,,,,,,,,3,1.484,1,,,,,,0.115885417,-0.25390625,1,0,0,1.4841,Diorite_rect,5,0,5,0,1,
6079ff1600ff2b7455e1c3e0,SCR,2024-06-20_15h31.41.554,LearnStrategy,2023.2.3,Win32,59.88023952,8,2,7,,,,,,,,4,11,,,,,,,,,,,,,4,8.746,1,,,,,,0.359375,-0.233072917,1,0,0,8.7462,Gabbro_rect,6,0,6,0,1,
6079ff1600ff2b7455e1c3e0,SCR,2024-06-20_15h31.41.554,LearnStrategy,2023.2.3,Win32,59.88023952,8,2,8,,,,,,,,7,05,,,,,,,,,,,,,7,1.179,1,,,,,,0.15234375,-0.397135417,1,0,0,1.1791,Peridotite_rect,7,0,7,0,1,
6079ff1600ff2b7455e1c3e0,SCR,2024-06-20_15h31.41.554,LearnStrategy,2023.2.3,Win32,59.88023952,8,2,9,,,,,,,,6,05,,,,,,,,,,,,,6,4.073,1,,,,,,-0.109375,-0.38671875,1,0,0,4.0732,Pegmatite_rect,8,0,8,0,1,
6079ff1600ff2b7455e1c3e0,SCR,2024-06-20_15h31.41.554,LearnStrategy,2023.2.3,Win32,59.88023952,8,2,10,,,,,,,,1,06,,,,,,,,,,,,,1,1.33,1,,,,,,-0.359375,-0.251302083,1,0,0,1.3299,Andesite_rect,9,0,9,0,1,
6079ff1600ff2b7455e1c3e0,SCR,2024-06-20_15h31.41.554,LearnStrategy,2023.2.3,Win32,59.88023952,8,2,11,,,,,,,,4,03,,,,,,,,,,,,,1,1.161,0,,,,,,-0.356770833,-0.24609375,1,0,0,1.1608,Andesite_rect,10,0,10,0,1,
6079ff1600ff2b7455e1c3e0,SCR,2024-06-20_15h31.41.554,LearnStrategy,2023.2.3,Win32,59.88023952,8,2,12,,,,,,,,2,05,,,,,,,,,,,,,2,0.961,1,,,,,,-0.169270833,-0.248697917,1,0,0,0.961,Basalt_rect,11,0,11,0,1,
6079ff1600ff2b7455e1c3e0,SCR,2024-06-20_15h31.41.554,LearnStrategy,2023.2.3,Win32,59.88023952,8,2,13,,,,,,,,8,14,,,,,,,,,,,,,8,1.43,1,,,,,,0.436197917,-0.41015625,1,0,0,1.4299,Pumice_rect,12,0,12,0,1,
6079ff1600ff2b7455e1c3e0,SCR,2024-06-20_15h31.41.554,LearnStrategy,2023.2.3,Win32,59.88023952,8,2,14,,,,,,,,1,11,,,,,,,,,,,,,1,2.919,1,,,,,,-0.373697917,-0.25,1,0,0,2.9194,Andesite_rect,13,0,13,0,1,
6079ff1600ff2b7455e1c3e0,SCR,2024-06-20_15h31.41.554,LearnStrategy,2023.2.3,Win32,59.88023952,8,2,15,,,,,,,,3,12,,,,,,,,,,,,,3,1.015,1,,,,,,0.098958333,-0.244791667,1,0,0,1.0155,Diorite_rect,14,0,14,0,1,
6079ff1600ff2b7455e1c3e0,SCR,2024-06-20_15h31.41.554,LearnStrategy,2023.2.3,Win32,59.88023952,8,2,16,,,,,,,,8,09,,,,,,,,,,,,,8,1.116,1,,,,,,0.385416667,-0.412760417,1,0,0,1.1158,Pumice_rect,15,0,15,0,1,
6079ff1600ff2b7455e1c3e0,SCR,2024-06-20_15h31.41.554,LearnStrategy,2023.2.3,Win32,59.88023952,9,1,1,0.233072917,-0.135416667,1,0,0,2.9876,Andesite_03,1,03,3,6,2.988,1,01,-0.412760417,-0.247395833,1,0,0,0.8234,Andesite_rect,1,0.823,1,0,0,0,0,1,,,,,,,,,,,,,
6079ff1600ff2b7455e1c3e0,SCR,2024-06-20_15h31.41.554,LearnStrategy,2023.2.3,Win32,59.88023952,9,1,2,-0.205729167,0.078125,1,0,0,0.9477,Diorite_06,3,06,4,3,0.948,4,09,0.095052083,-0.2421875,1,0,0,1.9431,Diorite_rect,3,1.943,1,1,0,1,0,1,,,,,,,,,,,,,
6079ff1600ff2b7455e1c3e0,SCR,2024-06-20_15h31.41.554,LearnStrategy,2023.2.3,Win32,59.88023952,9,1,3,-0.389322917,-0.265625,1,0,0,2.7105,Diorite_08,3,08,2,2,2.711,2,06,0.135416667,-0.263020833,1,0,0,1.0934,Diorite_rect,3,1.093,1,2,0,2,0,1,,,,,,,,,,,,,
6079ff1600ff2b7455e1c3e0,SCR,2024-06-20_15h31.41.554,LearnStrategy,2023.2.3,Win32,59.88023952,9,1,4,0.372395833,0.420572917,1,0,0,2.0504,Pegmatite_12,6,12,6,7,2.05,1,10,-0.127604167,-0.3984375,1,0,0,1.0296,Pegmatite_rect,6,1.03,1,3,0,3,0,1,,,,,,,,,,,,,
6079ff1600ff2b7455e1c3e0,SCR,2024-06-20_15h31.41.554,LearnStrategy,2023.2.3,Win32,59.88023952,9,1,5,0.248697917,0.078125,1,0,0,2.3377,Pegmatite_03,6,03,4,6,2.338,7,02,-0.15625,-0.38671875,1,0,0,1.4291,Pegmatite_rect,6,1.429,1,4,0,4,0,1,,,,,,,,,,,,,
6079ff1600ff2b7455e1c3e0,SCR,2024-06-20_15h31.41.554,LearnStrategy,2023.2.3,Win32,59.88023952,9,1,6,0.041666667,-0.122395833,1,0,0,2.0924,Obsidian_10,5,10,3,5,2.092,5,10,-0.368489583,-0.40234375,1,0,0,0.7325,Obsidian_rect,5,0.732,1,5,0,5,0,1,,,,,,,,,,,,,
6079ff1600ff2b7455e1c3e0,SCR,2024-06-20_15h31.41.554,LearnStrategy,2023.2.3,Win32,59.88023952,9,1,7,0.559895833,0.420572917,1,0,0,1.1846,Pumice_10,8,10,6,8,1.185,8,10,0.40234375,-0.407552083,1,0,0,1.1816,Pumice_rect,8,1.182,1,6,0,6,0,1,,,,,,,,,,,,,
6079ff1600ff2b7455e1c3e0,SCR,2024-06-20_15h31.41.554,LearnStrategy,2023.2.3,Win32,59.88023952,9,1,8,-0.3984375,0.276041667,1,0,0,1.053,Gabbro_10,4,10,5,2,1.053,4,10,0.369791667,-0.23046875,1,0,0,1.7538,Gabbro_rect,4,1.754,1,7,0,7,0,1,,,,,,,,,,,,,
6079ff1600ff2b7455e1c3e0,SCR,2024-06-20_15h31.41.554,LearnStrategy,2023.2.3,Win32,59.88023952,9,1,9,-0.203125,-0.231770833,1,0,0,1.0272,Pegmatite_07,6,07,2,3,1.027,6,07,-0.147135417,-0.393229167,1,0,0,1.2065,Pegmatite_rect,6,1.207,1,8,0,8,0,1,,,,,,,,,,,,,
6079ff1600ff2b7455e1c3e0,SCR,2024-06-20_15h31.41.554,LearnStrategy,2023.2.3,Win32,59.88023952,9,1,10,0.25,-0.305989583,1,0,0,0.8094,Gabbro_12,4,12,2,6,0.809,4,12,-0.369791667,-0.2578125,1,0,0,2.0297,Andesite_rect,1,2.03,0,9,0,9,0,1,,,,,,,,,,,,,
6079ff1600ff2b7455e1c3e0,SCR,2024-06-20_15h31.41.554,LearnStrategy,2023.2.3,Win32,59.88023952,9,1,11,-0.19921875,-0.091145833,1,0,0,0.9536,Andesite_14,1,14,3,3,0.954,1,14,-0.360677083,-0.251302083,1,0,0,2.6078,Andesite_rect,1,2.608,1,10,0,10,0,1,,,,,,,,,,,,,
6079ff1600ff2b7455e1c3e0,SCR,2024-06-20_15h31.41.554,LearnStrategy,2023.2.3,Win32,59.88023952,9,1,12,-0.223958333,0.3828125,1,0,0,1.3344,Basalt_10,2,10,6,3,1.334,2,10,-0.096354167,-0.247395833,1,0,0,0.9768,Basalt_rect,2,0.977,1,11,0,11,0,1,,,,,,,,,,,,,
6079ff1600ff2b7455e1c3e0,SCR,2024-06-20_15h31.41.554,LearnStrategy,2023.2.3,Win32,59.88023952,9,1,13,0.5625,-0.450520833,1,0,0,1.0847,Basalt_14,2,14,1,8,1.085,2,14,-0.102864583,-0.23828125,1,0,0,2.0165,Basalt_rect,2,2.016,1,12,0,12,0,1,,,,,,,,,,,,,
6079ff1600ff2b7455e1c3e0,SCR,2024-06-20_15h31.41.554,LearnStrategy,2023.2.3,Win32,59.88023952,9,1,14,0.0546875,0.40625,1,0,0,1.0537,Gabbro_13,4,13,6,5,1.054,4,13,0.39453125,-0.256510417,1,0,0,0.8718,Gabbro_rect,4,0.872,1,13,0,13,0,1,,,,,,,,,,,,,
6079ff1600ff2b7455e1c3e0,SCR,2024-06-20_15h31.41.554,LearnStrategy,2023.2.3,Win32,59.88023952,9,1,15,-0.076822917,-0.408854167,1,0,0,1.0273,Peridotite_06,7,06,1,4,1.027,7,06,-0.153645833,-0.407552083,1,0,0,0.9676,Pegmatite_rect,6,0.968,0,14,0,14,0,1,,,,,,,,,,,,,
6079ff1600ff2b7455e1c3e0,SCR,2024-06-20_15h31.41.554,LearnStrategy,2023.2.3,Win32,59.88023952,9,1,16,-0.1953125,0.067708333,1,0,0,1.0897,Diorite_06,3,06,4,3,1.09,3,06,0.147135417,-0.264322917,1,0,0,1.1367,Diorite_rect,3,1.137,1,15,0,15,0,1,,,,,,,,,,,,,
6079ff1600ff2b7455e1c3e0,SCR,2024-06-20_15h31.41.554,LearnStrategy,2023.2.3,Win32,59.88023952,9,2,1,,,,,,,,8,16,,,,,,,,,,,,,2,7.002,0,,,,,,-0.083333333,-0.244791667,1,0,0,7.002,Basalt_rect,0,0,0,0,1,
6079ff1600ff2b7455e1c3e0,SCR,2024-06-20_15h31.41.554,LearnStrategy,2023.2.3,Win32,59.88023952,9,2,2,,,,,,,,5,05,,,,,,,,,,,,,5,1.756,1,,,,,,-0.416666667,-0.411458333,1,0,0,1.7559,Obsidian_rect,1,0,1,0,1,
6079ff1600ff2b7455e1c3e0,SCR,2024-06-20_15h31.41.554,LearnStrategy,2023.2.3,Win32,59.88023952,9,2,3,,,,,,,,8,03,,,,,,,,,,,,,8,1.281,1,,,,,,0.393229167,-0.408854167,1,0,0,1.2814,Pumice_rect,2,0,2,0,1,
6079ff1600ff2b7455e1c3e0,SCR,2024-06-20_15h31.41.554,LearnStrategy,2023.2.3,Win32,59.88023952,9,2,4,,,,,,,,7,16,,,,,,,,,,,,,7,1.229,1,,,,,,0.10546875,-0.390625,1,0,0,1.2293,Peridotite_rect,3,0,3,0,1,
6079ff1600ff2b7455e1c3e0,SCR,2024-06-20_15h31.41.554,LearnStrategy,2023.2.3,Win32,59.88023952,9,2,5,,,,,,,,6,16,,,,,,,,,,,,,6,2.003,1,,,,,,-0.102864583,-0.40625,1,0,0,2.0027,Pegmatite_rect,4,0,4,0,1,
6079ff1600ff2b7455e1c3e0,SCR,2024-06-20_15h31.41.554,LearnStrategy,2023.2.3,Win32,59.88023952,9,2,6,,,,,,,,5,04,,,,,,,,,,,,,5,1.147,1,,,,,,-0.360677083,-0.404947917,1,0,0,1.1465,Obsidian_rect,5,0,5,0,1,
6079ff1600ff2b7455e1c3e0,SCR,2024-06-20_15h31.41.554,LearnStrategy,2023.2.3,Win32,59.88023952,9,2,7,,,,,,,,1,09,,,,,,,,,,,,,1,1.287,1,,,,,,-0.377604167,-0.247395833,1,0,0,1.2865,Andesite_rect,6,0,6,0,1,
6079ff1600ff2b7455e1c3e0,SCR,2024-06-20_15h31.41.554,LearnStrategy,2023.2.3,Win32,59.88023952,9,2,8,,,,,,,,2,16,,,,,,,,,,,,,2,1.514,1,,,,,,-0.15234375,-0.252604167,1,0,0,1.514,Basalt_rect,7,0,7,0,1,
6079ff1600ff2b7455e1c3e0,SCR,2024-06-20_15h31.41.554,LearnStrategy,2023.2.3,Win32,59.88023952,9,2,9,,,,,,,,4,05,,,,,,,,,,,,,7,1.767,0,,,,,,0.1328125,-0.411458333,1,0,0,1.7671,Peridotite_rect,8,0,8,0,1,
6079ff1600ff2b7455e1c3e0,SCR,2024-06-20_15h31.41.554,LearnStrategy,2023.2.3,Win32,59.88023952,9,2,10,,,,,,,,7,12,,,,,,,,,,,,,3,9.368,0,,,,,,0.109375,-0.24609375,1,0,0,9.3677,Diorite_rect,9,0,9,0,1,
6079ff1600ff2b7455e1c3e0,SCR,2024-06-20_15h31.41.554,LearnStrategy,2023.2.3,Win32,59.88023952,9,2,11,,,,,,,,2,09,,,,,,,,,,,,,2,1.439,1,,,,,,-0.114583333,-0.260416667,1,0,0,1.4394,Basalt_rect,10,0,10,0,1,
6079ff1600ff2b7455e1c3e0,SCR,2024-06-20_15h31.41.554,LearnStrategy,2023.2.3,Win32,59.88023952,9,2,12,,,,,,,,4,16,,,,,,,,,,,,,2,1.379,0,,,,,,-0.115885417,-0.248697917,1,0,0,1.3788,Basalt_rect,11,0,11,0,1,
6079ff1600ff2b7455e1c3e0,SCR,2024-06-20_15h31.41.554,LearnStrategy,2023.2.3,Win32,59.88023952,9,2,13,,,,,,,,3,11,,,,,,,,,,,,,3,0.991,1,,,,,,0.0859375,-0.234375,1,0,0,0.9906,Diorite_rect,12,0,12,0,1,
6079ff1600ff2b7455e1c3e0,SCR,2024-06-20_15h31.41.554,LearnStrategy,2023.2.3,Win32,59.88023952,9,2,14,,,,,,,,3,13,,,,,,,,,,,,,3,1.05,1,,,,,,0.0859375,-0.234375,1,0,0,1.0495,Diorite_rect,13,0,13,0,1,
6079ff1600ff2b7455e1c3e0,SCR,2024-06-20_15h31.41.554,LearnStrategy,2023.2.3,Win32,59.88023952,9,2,15,,,,,,,,6,06,,,,,,,,,,,,,6,1.583,1,,,,,,-0.126302083,-0.404947917,1,0,0,1.5828,Pegmatite_rect,14,0,14,0,1,
6079ff1600ff2b7455e1c3e0,SCR,2024-06-20_15h31.41.554,LearnStrategy,2023.2.3,Win32,59.88023952,9,2,16,,,,,,,,1,02,,,,,,,,,,,,,1,5.133,1,,,,,,-0.346354167,-0.23828125,1,0,0,5.133,Andesite_rect,15,0,15,0,1,
6079ff1600ff2b7455e1c3e0,SCR,2024-06-20_15h31.41.554,LearnStrategy,2023.2.3,Win32,59.88023952,,,,,,,,,,,,,,,,,,,,,,,,,,,,,,,,,,,,,,,,,,,,,1
6079ff1600ff2b7455e1c3e0,SCR,2024-06-20_15h31.41.554,LearnStrategy,2023.2.3,Win32,59.88023952,,,,,,,,,,,,,,,,,,,,,,,,,,,,,,,,,,,,,,,,,,,,,
6079ff1600ff2b7455e1c3e0,SCR,2024-06-20_15h31.41.554,LearnStrategy,2023.2.3,Win32,59.88023952,,,,,,,,,,,5,11,1,1,,,,,,,,,,,,,,,,,,,,,,,,,,,,,,,
6079ff1600ff2b7455e1c3e0,SCR,2024-06-20_15h31.41.554,LearnStrategy,2023.2.3,Win32,59.88023952,,,,,,,,,,,7,15,1,2,,,,,,,,,,,,,,,,,,,,,,,,,,,,,,,
6079ff1600ff2b7455e1c3e0,SCR,2024-06-20_15h31.41.554,LearnStrategy,2023.2.3,Win32,59.88023952,,,,,,,,,,,8,08,1,3,,,,,,,,,,,,,,,,,,,,,,,,,,,,,,,
6079ff1600ff2b7455e1c3e0,SCR,2024-06-20_15h31.41.554,LearnStrategy,2023.2.3,Win32,59.88023952,,,,,,,,,,,7,06,1,4,,,,,,,,,,,,,,,,,,,,,,,,,,,,,,,
6079ff1600ff2b7455e1c3e0,SCR,2024-06-20_15h31.41.554,LearnStrategy,2023.2.3,Win32,59.88023952,,,,,,,,,,,8,02,1,5,,,,,,,,,,,,,,,,,,,,,,,,,,,,,,,
6079ff1600ff2b7455e1c3e0,SCR,2024-06-20_15h31.41.554,LearnStrategy,2023.2.3,Win32,59.88023952,,,,,,,,,,,3,15,1,6,,,,,,,,,,,,,,,,,,,,,,,,,,,,,,,
6079ff1600ff2b7455e1c3e0,SCR,2024-06-20_15h31.41.554,LearnStrategy,2023.2.3,Win32,59.88023952,,,,,,,,,,,4,08,1,7,,,,,,,,,,,,,,,,,,,,,,,,,,,,,,,
6079ff1600ff2b7455e1c3e0,SCR,2024-06-20_15h31.41.554,LearnStrategy,2023.2.3,Win32,59.88023952,,,,,,,,,,,2,14,1,8,,,,,,,,,,,,,,,,,,,,,,,,,,,,,,,
6079ff1600ff2b7455e1c3e0,SCR,2024-06-20_15h31.41.554,LearnStrategy,2023.2.3,Win32,59.88023952,,,,,,,,,,,2,01,2,1,,,,,,,,,,,,,,,,,,,,,,,,,,,,,,,
6079ff1600ff2b7455e1c3e0,SCR,2024-06-20_15h31.41.554,LearnStrategy,2023.2.3,Win32,59.88023952,,,,,,,,,,,3,08,2,2,,,,,,,,,,,,,,,,,,,,,,,,,,,,,,,
6079ff1600ff2b7455e1c3e0,SCR,2024-06-20_15h31.41.554,LearnStrategy,2023.2.3,Win32,59.88023952,,,,,,,,,,,6,07,2,3,,,,,,,,,,,,,,,,,,,,,,,,,,,,,,,
6079ff1600ff2b7455e1c3e0,SCR,2024-06-20_15h31.41.554,LearnStrategy,2023.2.3,Win32,59.88023952,,,,,,,,,,,1,04,2,4,,,,,,,,,,,,,,,,,,,,,,,,,,,,,,,
6079ff1600ff2b7455e1c3e0,SCR,2024-06-20_15h31.41.554,LearnStrategy,2023.2.3,Win32,59.88023952,,,,,,,,,,,4,15,2,5,,,,,,,,,,,,,,,,,,,,,,,,,,,,,,,
6079ff1600ff2b7455e1c3e0,SCR,2024-06-20_15h31.41.554,LearnStrategy,2023.2.3,Win32,59.88023952,,,,,,,,,,,4,12,2,6,,,,,,,,,,,,,,,,,,,,,,,,,,,,,,,
6079ff1600ff2b7455e1c3e0,SCR,2024-06-20_15h31.41.554,LearnStrategy,2023.2.3,Win32,59.88023952,,,,,,,,,,,7,02,2,7,,,,,,,,,,,,,,,,,,,,,,,,,,,,,,,
6079ff1600ff2b7455e1c3e0,SCR,2024-06-20_15h31.41.554,LearnStrategy,2023.2.3,Win32,59.88023952,,,,,,,,,,,3,07,2,8,,,,,,,,,,,,,,,,,,,,,,,,,,,,,,,
6079ff1600ff2b7455e1c3e0,SCR,2024-06-20_15h31.41.554,LearnStrategy,2023.2.3,Win32,59.88023952,,,,,,,,,,,2,06,3,1,,,,,,,,,,,,,,,,,,,,,,,,,,,,,,,
6079ff1600ff2b7455e1c3e0,SCR,2024-06-20_15h31.41.554,LearnStrategy,2023.2.3,Win32,59.88023952,,,,,,,,,,,2,08,3,2,,,,,,,,,,,,,,,,,,,,,,,,,,,,,,,
6079ff1600ff2b7455e1c3e0,SCR,2024-06-20_15h31.41.554,LearnStrategy,2023.2.3,Win32,59.88023952,,,,,,,,,,,1,14,3,3,,,,,,,,,,,,,,,,,,,,,,,,,,,,,,,
6079ff1600ff2b7455e1c3e0,SCR,2024-06-20_15h31.41.554,LearnStrategy,2023.2.3,Win32,59.88023952,,,,,,,,,,,7,07,3,4,,,,,,,,,,,,,,,,,,,,,,,,,,,,,,,
6079ff1600ff2b7455e1c3e0,SCR,2024-06-20_15h31.41.554,LearnStrategy,2023.2.3,Win32,59.88023952,,,,,,,,,,,5,10,3,5,,,,,,,,,,,,,,,,,,,,,,,,,,,,,,,
6079ff1600ff2b7455e1c3e0,SCR,2024-06-20_15h31.41.554,LearnStrategy,2023.2.3,Win32,59.88023952,,,,,,,,,,,1,03,3,6,,,,,,,,,,,,,,,,,,,,,,,,,,,,,,,
6079ff1600ff2b7455e1c3e0,SCR,2024-06-20_15h31.41.554,LearnStrategy,2023.2.3,Win32,59.88023952,,,,,,,,,,,5,06,3,7,,,,,,,,,,,,,,,,,,,,,,,,,,,,,,,
6079ff1600ff2b7455e1c3e0,SCR,2024-06-20_15h31.41.554,LearnStrategy,2023.2.3,Win32,59.88023952,,,,,,,,,,,5,08,3,8,,,,,,,,,,,,,,,,,,,,,,,,,,,,,,,
6079ff1600ff2b7455e1c3e0,SCR,2024-06-20_15h31.41.554,LearnStrategy,2023.2.3,Win32,59.88023952,,,,,,,,,,,8,13,4,1,,,,,,,,,,,,,,,,,,,,,,,,,,,,,,,
6079ff1600ff2b7455e1c3e0,SCR,2024-06-20_15h31.41.554,LearnStrategy,2023.2.3,Win32,59.88023952,,,,,,,,,,,7,04,4,2,,,,,,,,,,,,,,,,,,,,,,,,,,,,,,,
6079ff1600ff2b7455e1c3e0,SCR,2024-06-20_15h31.41.554,LearnStrategy,2023.2.3,Win32,59.88023952,,,,,,,,,,,3,06,4,3,,,,,,,,,,,,,,,,,,,,,,,,,,,,,,,
6079ff1600ff2b7455e1c3e0,SCR,2024-06-20_15h31.41.554,LearnStrategy,2023.2.3,Win32,59.88023952,,,,,,,,,,,5,16,4,4,,,,,,,,,,,,,,,,,,,,,,,,,,,,,,,
6079ff1600ff2b7455e1c3e0,SCR,2024-06-20_15h31.41.554,LearnStrategy,2023.2.3,Win32,59.88023952,,,,,,,,,,,8,15,4,5,,,,,,,,,,,,,,,,,,,,,,,,,,,,,,,
6079ff1600ff2b7455e1c3e0,SCR,2024-06-20_15h31.41.554,LearnStrategy,2023.2.3,Win32,59.88023952,,,,,,,,,,,6,03,4,6,,,,,,,,,,,,,,,,,,,,,,,,,,,,,,,
6079ff1600ff2b7455e1c3e0,SCR,2024-06-20_15h31.41.554,LearnStrategy,2023.2.3,Win32,59.88023952,,,,,,,,,,,6,09,4,7,,,,,,,,,,,,,,,,,,,,,,,,,,,,,,,
6079ff1600ff2b7455e1c3e0,SCR,2024-06-20_15h31.41.554,LearnStrategy,2023.2.3,Win32,59.88023952,,,,,,,,,,,6,15,4,8,,,,,,,,,,,,,,,,,,,,,,,,,,,,,,,
6079ff1600ff2b7455e1c3e0,SCR,2024-06-20_15h31.41.554,LearnStrategy,2023.2.3,Win32,59.88023952,,,,,,,,,,,1,10,5,1,,,,,,,,,,,,,,,,,,,,,,,,,,,,,,,
6079ff1600ff2b7455e1c3e0,SCR,2024-06-20_15h31.41.554,LearnStrategy,2023.2.3,Win32,59.88023952,,,,,,,,,,,4,10,5,2,,,,,,,,,,,,,,,,,,,,,,,,,,,,,,,
6079ff1600ff2b7455e1c3e0,SCR,2024-06-20_15h31.41.554,LearnStrategy,2023.2.3,Win32,59.88023952,,,,,,,,,,,1,16,5,3,,,,,,,,,,,,,,,,,,,,,,,,,,,,,,,
6079ff1600ff2b7455e1c3e0,SCR,2024-06-20_15h31.41.554,LearnStrategy,2023.2.3,Win32,59.88023952,,,,,,,,,,,8,05,5,4,,,,,,,,,,,,,,,,,,,,,,,,,,,,,,,
6079ff1600ff2b7455e1c3e0,SCR,2024-06-20_15h31.41.554,LearnStrategy,2023.2.3,Win32,59.88023952,,,,,,,,,,,3,10,5,5,,,,,,,,,,,,,,,,,,,,,,,,,,,,,,,
6079ff1600ff2b7455e1c3e0,SCR,2024-06-20_15h31.41.554,LearnStrategy,2023.2.3,Win32,59.88023952,,,,,,,,,,,3,14,5,6,,,,,,,,,,,,,,,,,,,,,,,,,,,,,,,
6079ff1600ff2b7455e1c3e0,SCR,2024-06-20_15h31.41.554,LearnStrategy,2023.2.3,Win32,59.88023952,,,,,,,,,,,7,10,5,7,,,,,,,,,,,,,,,,,,,,,,,,,,,,,,,
6079ff1600ff2b7455e1c3e0,SCR,2024-06-20_15h31.41.554,LearnStrategy,2023.2.3,Win32,59.88023952,,,,,,,,,,,5,09,5,8,,,,,,,,,,,,,,,,,,,,,,,,,,,,,,,
6079ff1600ff2b7455e1c3e0,SCR,2024-06-20_15h31.41.554,LearnStrategy,2023.2.3,Win32,59.88023952,,,,,,,,,,,6,11,6,1,,,,,,,,,,,,,,,,,,,,,,,,,,,,,,,
6079ff1600ff2b7455e1c3e0,SCR,2024-06-20_15h31.41.554,LearnStrategy,2023.2.3,Win32,59.88023952,,,,,,,,,,,2,12,6,2,,,,,,,,,,,,,,,,,,,,,,,,,,,,,,,
6079ff1600ff2b7455e1c3e0,SCR,2024-06-20_15h31.41.554,LearnStrategy,2023.2.3,Win32,59.88023952,,,,,,,,,,,2,10,6,3,,,,,,,,,,,,,,,,,,,,,,,,,,,,,,,
6079ff1600ff2b7455e1c3e0,SCR,2024-06-20_15h31.41.554,LearnStrategy,2023.2.3,Win32,59.88023952,,,,,,,,,,,4,09,6,4,,,,,,,,,,,,,,,,,,,,,,,,,,,,,,,
6079ff1600ff2b7455e1c3e0,SCR,2024-06-20_15h31.41.554,LearnStrategy,2023.2.3,Win32,59.88023952,,,,,,,,,,,4,13,6,5,,,,,,,,,,,,,,,,,,,,,,,,,,,,,,,
6079ff1600ff2b7455e1c3e0,SCR,2024-06-20_15h31.41.554,LearnStrategy,2023.2.3,Win32,59.88023952,,,,,,,,,,,1,01,6,6,,,,,,,,,,,,,,,,,,,,,,,,,,,,,,,
6079ff1600ff2b7455e1c3e0,SCR,2024-06-20_15h31.41.554,LearnStrategy,2023.2.3,Win32,59.88023952,,,,,,,,,,,6,12,6,7,,,,,,,,,,,,,,,,,,,,,,,,,,,,,,,
6079ff1600ff2b7455e1c3e0,SCR,2024-06-20_15h31.41.554,LearnStrategy,2023.2.3,Win32,59.88023952,,,,,,,,,,,8,10,6,8,,,,,,,,,,,,,,,,,,,,,,,,,,,,,,,