participant,condition,date,expName,psychopyVersion,OS,frameRate,block,phase,trial,learn_mouse.x,learn_mouse.y,learn_mouse.leftButton,learn_mouse.midButton,learn_mouse.rightButton,learn_mouse.time,learn_mouse.clicked_name,cat,token,row,col,t_select,cat_rec,token_rec,cat_mouse_l.x,cat_mouse_l.y,cat_mouse_l.leftButton,cat_mouse_l.midButton,cat_mouse_l.rightButton,cat_mouse_l.time,cat_mouse_l.clicked_name,resp,t_resp,corr,train_trials.thisRepN,train_trials.thisTrialN,train_trials.thisN,train_trials.thisIndex,train_trials.ran,cat_mouse_t.x,cat_mouse_t.y,cat_mouse_t.leftButton,cat_mouse_t.midButton,cat_mouse_t.rightButton,cat_mouse_t.time,cat_mouse_t.clicked_name,test_trials.thisRepN,test_trials.thisTrialN,test_trials.thisN,test_trials.thisIndex,test_trials.ran,Bonus
607cbf385d3202721e3f719f,SCR,2024-06-25_11h40.20.448,LearnStrategy,2023.2.3,MacIntel,60.24096386,,,,,,,,,,,,,,,,,,,,,,,,,,,,,,,,,,,,,,,,,,,,,
607cbf385d3202721e3f719f,SCR,2024-06-25_11h40.20.448,LearnStrategy,2023.2.3,MacIntel,60.24096386,1,1,1,0.388584527,0.089029202,1,0,0,65.3874,Obsidian_02,5,02,4,7,65.387,4,13,-0.391553955,-0.383240221,1,0,0,11.6849,Obsidian_rect,5,11.685,1,0,0,0,0,1,,,,,,,,,,,,,
607cbf385d3202721e3f719f,SCR,2024-06-25_11h40.20.448,LearnStrategy,2023.2.3,MacIntel,60.24096386,1,1,2,-0.396896125,-0.097423231,1,0,0,13.2305,Diorite_09,3,09,3,2,13.231,3,09,0.097856649,-0.247223646,1,0,0,19.0188,Diorite_rect,3,19.019,1,1,0,1,0,1,,,,,,,,,,,,,
607cbf385d3202721e3f719f,SCR,2024-06-25_11h40.20.448,LearnStrategy,2023.2.3,MacIntel,60.24096386,1,1,3,-0.079797228,-0.411172824,1,0,0,2.4297,Andesite_03,1,03,1,4,2.43,1,03,-0.134983588,-0.41620402,1,0,0,18.6076,Pegmatite_rect,6,18.608,0,2,0,2,0,1,,,,,,,,,,,,,
607cbf385d3202721e3f719f,SCR,2024-06-25_11h40.20.448,LearnStrategy,2023.2.3,MacIntel,60.24096386,1,1,4,0.067940538,-0.093442315,1,0,0,2.1622,Pumice_14,8,14,3,5,2.162,8,14,0.387387831,-0.396408624,1,0,0,3.7091,Pumice_rect,8,3.709,1,3,0,3,0,1,,,,,,,,,,,,,
607cbf385d3202721e3f719f,SCR,2024-06-25_11h40.20.448,LearnStrategy,2023.2.3,MacIntel,60.24096386,1,1,5,-0.542886353,-0.391054281,1,0,0,6.1313,Andesite_11,1,11,1,1,6.131,1,11,-0.157193943,-0.262684326,1,0,0,15.2823,Basalt_rect,2,15.282,0,4,0,4,0,1,,,,,,,,,,,,,
607cbf385d3202721e3f719f,SCR,2024-06-25_11h40.20.448,LearnStrategy,2023.2.3,MacIntel,60.24096386,1,1,6,-0.215618015,0.080957913,1,0,0,2.2129,Pegmatite_03,6,03,4,3,2.213,6,03,0.127937283,-0.416521606,1,0,0,15.5259,Peridotite_rect,7,15.526,0,5,0,5,0,1,,,,,,,,,,,,,
607cbf385d3202721e3f719f,SCR,2024-06-25_11h40.20.448,LearnStrategy,2023.2.3,MacIntel,60.24096386,1,1,7,0.228922729,-0.257955729,1,0,0,1.948,Basalt_05,2,05,2,6,1.948,2,05,0.36280504,-0.266848212,1,0,0,12.7213,Gabbro_rect,4,12.721,0,6,0,6,0,1,,,,,,,,,,,,,
607cbf385d3202721e3f719f,SCR,2024-06-25_11h40.20.448,LearnStrategy,2023.2.3,MacIntel,60.24096386,1,1,8,0.400515137,-0.106184557,1,0,0,5.9803,Obsidian_16,5,16,3,7,5.98,5,02,-0.40056939,-0.396697456,1,0,0,2.7508,Obsidian_rect,5,2.751,1,7,0,7,0,1,,,,,,,,,,,,,
607cbf385d3202721e3f719f,SCR,2024-06-25_11h40.20.448,LearnStrategy,2023.2.3,MacIntel,60.24096386,1,1,9,0.54327691,0.092080587,1,0,0,2.1806,Pumice_10,8,10,4,8,2.181,8,10,0.393200955,-0.382390679,1,0,0,2.4887,Pumice_rect,8,2.489,1,8,0,8,0,1,,,,,,,,,,,,,
607cbf385d3202721e3f719f,SCR,2024-06-25_11h40.20.448,LearnStrategy,2023.2.3,MacIntel,60.24096386,1,1,10,0.549208984,-0.422485894,1,0,0,4.0309,Pegmatite_10,6,10,1,8,4.031,6,10,-0.123362901,-0.39593099,1,0,0,5.081,Pegmatite_rect,6,5.081,1,9,0,9,0,1,,,,,,,,,,,,,
607cbf385d3202721e3f719f,SCR,2024-06-25_11h40.20.448,LearnStrategy,2023.2.3,MacIntel,60.24096386,1,1,11,-0.527848443,-0.241781684,1,0,0,3.2629,Diorite_07,3,07,2,1,3.263,3,07,0.143431736,-0.245818753,1,0,0,13.2644,Diorite_rect,3,13.264,1,10,0,10,0,1,,,,,,,,,,,,,
607cbf385d3202721e3f719f,SCR,2024-06-25_11h40.20.448,LearnStrategy,2023.2.3,MacIntel,60.24096386,1,1,12,-0.21857015,-0.086078695,1,0,0,2.0307,Peridotite_08,7,08,3,3,2.031,7,08,-0.128145616,-0.394688178,1,0,0,7.6066,Pegmatite_rect,6,7.607,0,11,0,11,0,1,,,,,,,,,,,,,
607cbf385d3202721e3f719f,SCR,2024-06-25_11h40.20.448,LearnStrategy,2023.2.3,MacIntel,60.24096386,1,1,13,-0.385639581,-0.238867662,1,0,0,10.1316,Andesite_09,1,09,2,2,10.132,5,16,-0.402452562,-0.254341092,1,0,0,10.9783,Andesite_rect,1,10.978,1,12,0,12,0,1,,,,,,,,,,,,,
607cbf385d3202721e3f719f,SCR,2024-06-25_11h40.20.448,LearnStrategy,2023.2.3,MacIntel,60.24096386,1,1,14,-0.390161811,0.398913523,1,0,0,11.0656,Peridotite_12,7,12,6,2,11.066,7,12,-0.111578369,-0.399621853,1,0,0,28.5276,Pegmatite_rect,6,28.528,0,13,0,13,0,1,,,,,,,,,,,,,
607cbf385d3202721e3f719f,SCR,2024-06-25_11h40.20.448,LearnStrategy,2023.2.3,MacIntel,60.24096386,1,1,15,-0.366103855,-0.40021837,1,0,0,2.1145,Basalt_14,2,14,1,2,2.115,2,14,-0.107690023,-0.240605672,1,0,0,8.3911,Basalt_rect,2,8.391,1,14,0,14,0,1,,,,,,,,,,,,,
607cbf385d3202721e3f719f,SCR,2024-06-25_11h40.20.448,LearnStrategy,2023.2.3,MacIntel,60.24096386,1,1,16,0.226670736,0.088543532,1,0,0,2.9974,Gabbro_03,4,03,4,6,2.997,4,03,0.129311456,-0.248694797,1,0,0,2.5545,Diorite_rect,3,2.554,0,15,0,15,0,1,,,,,,,,,,,,,
607cbf385d3202721e3f719f,SCR,2024-06-25_11h40.20.448,LearnStrategy,2023.2.3,MacIntel,60.24096386,1,2,1,,,,,,,,1,10,,,,,,,,,,,,,1,13.606,1,,,,,,-0.382117004,-0.253857761,1,0,0,13.6056,Andesite_rect,0,0,0,0,1,
607cbf385d3202721e3f719f,SCR,2024-06-25_11h40.20.448,LearnStrategy,2023.2.3,MacIntel,60.24096386,1,2,2,,,,,,,,7,10,,,,,,,,,,,,,7,7.012,1,,,,,,0.12255405,-0.405766669,1,0,0,7.0116,Peridotite_rect,1,0,1,0,1,
607cbf385d3202721e3f719f,SCR,2024-06-25_11h40.20.448,LearnStrategy,2023.2.3,MacIntel,60.24096386,1,2,3,,,,,,,,4,10,,,,,,,,,,,,,2,6.273,0,,,,,,-0.110792575,-0.25531406,1,0,0,6.2733,Basalt_rect,2,0,2,0,1,
607cbf385d3202721e3f719f,SCR,2024-06-25_11h40.20.448,LearnStrategy,2023.2.3,MacIntel,60.24096386,1,2,4,,,,,,,,6,06,,,,,,,,,,,,,6,37.219,1,,,,,,-0.080903388,-0.39944458,1,0,0,37.2194,Pegmatite_rect,3,0,3,0,1,
607cbf385d3202721e3f719f,SCR,2024-06-25_11h40.20.448,LearnStrategy,2023.2.3,MacIntel,60.24096386,1,2,5,,,,,,,,8,09,,,,,,,,,,,,,8,3.058,1,,,,,,0.350656196,-0.405227865,1,0,0,3.0578,Pumice_rect,4,0,4,0,1,
607cbf385d3202721e3f719f,SCR,2024-06-25_11h40.20.448,LearnStrategy,2023.2.3,MacIntel,60.24096386,1,2,6,,,,,,,,4,11,,,,,,,,,,,,,2,4.99,0,,,,,,-0.116623942,-0.24426039,1,0,0,4.9899,Basalt_rect,5,0,5,0,1,
607cbf385d3202721e3f719f,SCR,2024-06-25_11h40.20.448,LearnStrategy,2023.2.3,MacIntel,60.24096386,1,2,7,,,,,,,,5,14,,,,,,,,,,,,,5,2.392,1,,,,,,-0.364718051,-0.394626668,1,0,0,2.3922,Obsidian_rect,6,0,6,0,1,
607cbf385d3202721e3f719f,SCR,2024-06-25_11h40.20.448,LearnStrategy,2023.2.3,MacIntel,60.24096386,1,2,8,,,,,,,,2,11,,,,,,,,,,,,,2,11.185,1,,,,,,-0.152827284,-0.240728014,1,0,0,11.1846,Basalt_rect,7,0,7,0,1,
607cbf385d3202721e3f719f,SCR,2024-06-25_11h40.20.448,LearnStrategy,2023.2.3,MacIntel,60.24096386,1,2,9,,,,,,,,1,14,,,,,,,,,,,,,3,9.625,0,,,,,,0.101463555,-0.245994059,1,0,0,9.6245,Diorite_rect,8,0,8,0,1,
607cbf385d3202721e3f719f,SCR,2024-06-25_11h40.20.448,LearnStrategy,2023.2.3,MacIntel,60.24096386,1,2,10,,,,,,,,5,12,,,,,,,,,,,,,5,1.758,1,,,,,,-0.377932265,-0.397200996,1,0,0,1.7585,Obsidian_rect,9,0,9,0,1,
607cbf385d3202721e3f719f,SCR,2024-06-25_11h40.20.448,LearnStrategy,2023.2.3,MacIntel,60.24096386,1,2,11,,,,,,,,3,14,,,,,,,,,,,,,3,9.405,1,,,,,,0.13531901,-0.251026272,1,0,0,9.405,Diorite_rect,10,0,10,0,1,
607cbf385d3202721e3f719f,SCR,2024-06-25_11h40.20.448,LearnStrategy,2023.2.3,MacIntel,60.24096386,1,2,12,,,,,,,,2,09,,,,,,,,,,,,,1,21.891,0,,,,,,-0.352597521,-0.260522529,1,0,0,21.8911,Andesite_rect,11,0,11,0,1,
607cbf385d3202721e3f719f,SCR,2024-06-25_11h40.20.448,LearnStrategy,2023.2.3,MacIntel,60.24096386,1,2,13,,,,,,,,8,06,,,,,,,,,,,,,8,2.893,1,,,,,,0.363554552,-0.393617282,1,0,0,2.8935,Pumice_rect,12,0,12,0,1,
607cbf385d3202721e3f719f,SCR,2024-06-25_11h40.20.448,LearnStrategy,2023.2.3,MacIntel,60.24096386,1,2,14,,,,,,,,6,13,,,,,,,,,,,,,7,15.573,0,,,,,,0.148499146,-0.400719944,1,0,0,15.5732,Peridotite_rect,13,0,13,0,1,
607cbf385d3202721e3f719f,SCR,2024-06-25_11h40.20.448,LearnStrategy,2023.2.3,MacIntel,60.24096386,1,2,15,,,,,,,,7,06,,,,,,,,,,,,,7,23.176,1,,,,,,0.075423991,-0.408428141,1,0,0,23.1756,Peridotite_rect,14,0,14,0,1,
607cbf385d3202721e3f719f,SCR,2024-06-25_11h40.20.448,LearnStrategy,2023.2.3,MacIntel,60.24096386,1,2,16,,,,,,,,3,15,,,,,,,,,,,,,3,7.007,1,,,,,,0.155305786,-0.250041572,1,0,0,7.0075,Diorite_rect,15,0,15,0,1,
607cbf385d3202721e3f719f,SCR,2024-06-25_11h40.20.448,LearnStrategy,2023.2.3,MacIntel,60.24096386,2,1,1,-0.063207872,-0.395529785,1,0,0,13.9319,Andesite_03,1,03,1,4,13.932,1,03,-0.397190179,-0.247749837,1,0,0,4.7819,Andesite_rect,1,4.782,1,0,0,0,0,1,,,,,,,,,,,,,
607cbf385d3202721e3f719f,SCR,2024-06-25_11h40.20.448,LearnStrategy,2023.2.3,MacIntel,60.24096386,2,1,2,-0.063194716,-0.119564141,1,0,0,2.1316,Pegmatite_05,6,05,3,4,2.132,6,05,0.420768365,-0.234736532,1,0,0,7.3129,Gabbro_rect,4,7.313,0,1,0,1,0,1,,,,,,,,,,,,,
607cbf385d3202721e3f719f,SCR,2024-06-25_11h40.20.448,LearnStrategy,2023.2.3,MacIntel,60.24096386,2,1,3,0.074891425,-0.417035183,1,0,0,1.7967,Diorite_12,3,12,1,5,1.797,3,12,0.106498277,-0.245893487,1,0,0,2.9925,Diorite_rect,3,2.993,1,2,0,2,0,1,,,,,,,,,,,,,
607cbf385d3202721e3f719f,SCR,2024-06-25_11h40.20.448,LearnStrategy,2023.2.3,MacIntel,60.24096386,2,1,4,-0.083208143,-0.103535767,1,0,0,2.2655,Pegmatite_05,6,05,3,4,2.265,6,05,-0.145061849,-0.388999023,1,0,0,2.5434,Pegmatite_rect,6,2.543,1,3,0,3,0,1,,,,,,,,,,,,,
607cbf385d3202721e3f719f,SCR,2024-06-25_11h40.20.448,LearnStrategy,2023.2.3,MacIntel,60.24096386,2,1,5,0.084616699,0.394878608,1,0,0,5.914,Andesite_05,1,05,6,5,5.914,1,05,0.389568142,-0.242132501,1,0,0,10.4364,Gabbro_rect,4,10.436,0,4,0,4,0,1,,,,,,,,,,,,,
607cbf385d3202721e3f719f,SCR,2024-06-25_11h40.20.448,LearnStrategy,2023.2.3,MacIntel,60.24096386,2,1,6,0.06504069,0.400173526,1,0,0,3.7799,Andesite_05,1,05,6,5,3.78,1,05,-0.378370938,-0.241698405,1,0,0,4.5238,Andesite_rect,1,4.524,1,5,0,5,0,1,,,,,,,,,,,,,
607cbf385d3202721e3f719f,SCR,2024-06-25_11h40.20.448,LearnStrategy,2023.2.3,MacIntel,60.24096386,2,1,7,0.38906033,-0.407010091,1,0,0,2.899,Pegmatite_07,6,07,1,7,2.899,6,07,-0.133779772,-0.403653225,1,0,0,6.5212,Pegmatite_rect,6,6.521,1,6,0,6,0,1,,,,,,,,,,,,,
607cbf385d3202721e3f719f,SCR,2024-06-25_11h40.20.448,LearnStrategy,2023.2.3,MacIntel,60.24096386,2,1,8,-0.514566684,-0.088902927,1,0,0,1.9481,Peridotite_13,7,13,3,1,1.948,7,13,0.121619331,-0.39550666,1,0,0,9.2602,Peridotite_rect,7,9.26,1,7,0,7,0,1,,,,,,,,,,,,,
607cbf385d3202721e3f719f,SCR,2024-06-25_11h40.20.448,LearnStrategy,2023.2.3,MacIntel,60.24096386,2,1,9,-0.22971856,-0.409317356,1,0,0,1.5981,Gabbro_16,4,16,1,3,1.598,4,16,0.406244439,-0.238118015,1,0,0,7.4281,Gabbro_rect,4,7.428,1,8,0,8,0,1,,,,,,,,,,,,,
607cbf385d3202721e3f719f,SCR,2024-06-25_11h40.20.448,LearnStrategy,2023.2.3,MacIntel,60.24096386,2,1,10,-0.51476766,0.085429518,1,0,0,1.8133,Gabbro_05,4,05,4,1,1.813,4,05,0.107816094,-0.241668023,1,0,0,18.3575,Diorite_rect,3,18.358,0,9,0,9,0,1,,,,,,,,,,,,,
607cbf385d3202721e3f719f,SCR,2024-06-25_11h40.20.448,LearnStrategy,2023.2.3,MacIntel,60.24096386,2,1,11,-0.231918674,-0.401934882,1,0,0,1.5469,Gabbro_16,4,16,1,3,1.547,4,16,0.401314697,-0.262563205,1,0,0,2.2119,Gabbro_rect,4,2.212,1,10,0,10,0,1,,,,,,,,,,,,,
607cbf385d3202721e3f719f,SCR,2024-06-25_11h40.20.448,LearnStrategy,2023.2.3,MacIntel,60.24096386,2,1,12,-0.22939738,0.260477566,1,0,0,1.8151,Basalt_04,2,04,5,3,1.815,2,04,-0.143072238,-0.249268528,1,0,0,9.8427,Basalt_rect,2,9.843,1,11,0,11,0,1,,,,,,,,,,,,,
607cbf385d3202721e3f719f,SCR,2024-06-25_11h40.20.448,LearnStrategy,2023.2.3,MacIntel,60.24096386,2,1,13,0.094059041,0.099556647,1,0,0,1.4305,Gabbro_01,4,01,4,5,1.43,4,01,0.112550184,-0.240978461,1,0,0,8.1215,Diorite_rect,3,8.121,0,12,0,12,0,1,,,,,,,,,,,,,
607cbf385d3202721e3f719f,SCR,2024-06-25_11h40.20.448,LearnStrategy,2023.2.3,MacIntel,60.24096386,2,1,14,0.212263251,-0.239349365,1,0,0,1.4987,Basalt_05,2,05,2,6,1.499,2,05,-0.137351481,-0.242670559,1,0,0,2.7536,Basalt_rect,2,2.754,1,13,0,13,0,1,,,,,,,,,,,,,
607cbf385d3202721e3f719f,SCR,2024-06-25_11h40.20.448,LearnStrategy,2023.2.3,MacIntel,60.24096386,2,1,15,0.24883728,0.094345161,1,0,0,2.4649,Gabbro_03,4,03,4,6,2.465,4,03,0.392610948,-0.255551147,1,0,0,5.3059,Gabbro_rect,4,5.306,1,14,0,14,0,1,,,,,,,,,,,,,
607cbf385d3202721e3f719f,SCR,2024-06-25_11h40.20.448,LearnStrategy,2023.2.3,MacIntel,60.24096386,2,1,16,-0.234998949,0.250871277,1,0,0,1.9798,Basalt_04,2,04,5,3,1.98,2,04,-0.142801853,-0.241215956,1,0,0,2.2717,Basalt_rect,2,2.272,1,15,0,15,0,1,,,,,,,,,,,,,
607cbf385d3202721e3f719f,SCR,2024-06-25_11h40.20.448,LearnStrategy,2023.2.3,MacIntel,60.24096386,2,2,1,,,,,,,,4,15,,,,,,,,,,,,,4,8.926,1,,,,,,0.397329644,-0.238795912,1,0,0,8.9258,Gabbro_rect,0,0,0,0,1,
607cbf385d3202721e3f719f,SCR,2024-06-25_11h40.20.448,LearnStrategy,2023.2.3,MacIntel,60.24096386,2,2,2,,,,,,,,6,09,,,,,,,,,,,,,1,12.992,0,,,,,,-0.398839111,-0.241777954,1,0,0,12.9916,Andesite_rect,1,0,1,0,1,
607cbf385d3202721e3f719f,SCR,2024-06-25_11h40.20.448,LearnStrategy,2023.2.3,MacIntel,60.24096386,2,2,3,,,,,,,,5,06,,,,,,,,,,,,,5,2.605,1,,,,,,-0.419603068,-0.403477241,1,0,0,2.6048,Obsidian_rect,2,0,2,0,1,
607cbf385d3202721e3f719f,SCR,2024-06-25_11h40.20.448,LearnStrategy,2023.2.3,MacIntel,60.24096386,2,2,4,,,,,,,,3,13,,,,,,,,,,,,,3,5.092,1,,,,,,0.123528849,-0.244492527,1,0,0,5.092,Diorite_rect,3,0,3,0,1,
607cbf385d3202721e3f719f,SCR,2024-06-25_11h40.20.448,LearnStrategy,2023.2.3,MacIntel,60.24096386,2,2,5,,,,,,,,8,15,,,,,,,,,,,,,8,3.33,1,,,,,,0.363298475,-0.411537069,1,0,0,3.3297,Pumice_rect,4,0,4,0,1,
607cbf385d3202721e3f719f,SCR,2024-06-25_11h40.20.448,LearnStrategy,2023.2.3,MacIntel,60.24096386,2,2,6,,,,,,,,7,07,,,,,,,,,,,,,7,5.506,1,,,,,,0.118071289,-0.398332994,1,0,0,5.5056,Peridotite_rect,5,0,5,0,1,
607cbf385d3202721e3f719f,SCR,2024-06-25_11h40.20.448,LearnStrategy,2023.2.3,MacIntel,60.24096386,2,2,7,,,,,,,,7,05,,,,,,,,,,,,,1,32.639,0,,,,,,-0.368071628,-0.246504381,1,0,0,32.6386,Andesite_rect,6,0,6,0,1,
607cbf385d3202721e3f719f,SCR,2024-06-25_11h40.20.448,LearnStrategy,2023.2.3,MacIntel,60.24096386,2,2,8,,,,,,,,5,07,,,,,,,,,,,,,5,2.291,1,,,,,,-0.398602193,-0.403703681,1,0,0,2.2911,Obsidian_rect,7,0,7,0,1,
607cbf385d3202721e3f719f,SCR,2024-06-25_11h40.20.448,LearnStrategy,2023.2.3,MacIntel,60.24096386,2,2,9,,,,,,,,2,01,,,,,,,,,,,,,2,4.759,1,,,,,,-0.158996379,-0.249328613,1,0,0,4.759,Basalt_rect,8,0,8,0,1,
607cbf385d3202721e3f719f,SCR,2024-06-25_11h40.20.448,LearnStrategy,2023.2.3,MacIntel,60.24096386,2,2,10,,,,,,,,1,16,,,,,,,,,,,,,1,3.572,1,,,,,,-0.3831604,-0.248736844,1,0,0,3.5723,Andesite_rect,9,0,9,0,1,
607cbf385d3202721e3f719f,SCR,2024-06-25_11h40.20.448,LearnStrategy,2023.2.3,MacIntel,60.24096386,2,2,11,,,,,,,,2,02,,,,,,,,,,,,,2,2.723,1,,,,,,-0.149885796,-0.253028022,1,0,0,2.7231,Basalt_rect,10,0,10,0,1,
607cbf385d3202721e3f719f,SCR,2024-06-25_11h40.20.448,LearnStrategy,2023.2.3,MacIntel,60.24096386,2,2,12,,,,,,,,4,08,,,,,,,,,,,,,4,5.14,1,,,,,,0.43375217,-0.239893663,1,0,0,5.1399,Gabbro_rect,11,0,11,0,1,
607cbf385d3202721e3f719f,SCR,2024-06-25_11h40.20.448,LearnStrategy,2023.2.3,MacIntel,60.24096386,2,2,13,,,,,,,,1,07,,,,,,,,,,,,,1,2.224,1,,,,,,-0.424860535,-0.24274197,1,0,0,2.2237,Andesite_rect,12,0,12,0,1,
607cbf385d3202721e3f719f,SCR,2024-06-25_11h40.20.448,LearnStrategy,2023.2.3,MacIntel,60.24096386,2,2,14,,,,,,,,3,16,,,,,,,,,,,,,4,19.065,0,,,,,,0.387025825,-0.24523173,1,0,0,19.0651,Gabbro_rect,13,0,13,0,1,
607cbf385d3202721e3f719f,SCR,2024-06-25_11h40.20.448,LearnStrategy,2023.2.3,MacIntel,60.24096386,2,2,15,,,,,,,,8,05,,,,,,,,,,,,,8,1.638,1,,,,,,0.382947184,-0.400956217,1,0,0,1.6376,Pumice_rect,14,0,14,0,1,
607cbf385d3202721e3f719f,SCR,2024-06-25_11h40.20.448,LearnStrategy,2023.2.3,MacIntel,60.24096386,2,2,16,,,,,,,,6,11,,,,,,,,,,,,,6,17.894,1,,,,,,-0.129672377,-0.399240994,1,0,0,17.8937,Pegmatite_rect,15,0,15,0,1,
607cbf385d3202721e3f719f,SCR,2024-06-25_11h40.20.448,LearnStrategy,2023.2.3,MacIntel,60.24096386,3,1,1,-0.395255059,-0.401748657,1,0,0,2.8141,Basalt_14,2,14,1,2,2.814,2,14,0.381706814,-0.239502496,1,0,0,3.0803,Gabbro_rect,4,3.08,0,0,0,0,0,1,,,,,,,,,,,,,
607cbf385d3202721e3f719f,SCR,2024-06-25_11h40.20.448,LearnStrategy,2023.2.3,MacIntel,60.24096386,3,1,2,-0.369040426,0.411330889,1,0,0,2.1149,Peridotite_12,7,12,6,2,2.115,7,12,0.118837687,-0.389146796,1,0,0,3.0903,Peridotite_rect,7,3.09,1,1,0,1,0,1,,,,,,,,,,,,,
607cbf385d3202721e3f719f,SCR,2024-06-25_11h40.20.448,LearnStrategy,2023.2.3,MacIntel,60.24096386,3,1,3,-0.06824958,-0.262117784,1,0,0,5.2816,Pegmatite_08,6,08,2,4,5.282,4,16,-0.121421373,-0.404204848,1,0,0,6.3455,Pegmatite_rect,6,6.345,1,2,0,2,0,1,,,,,,,,,,,,,
607cbf385d3202721e3f719f,SCR,2024-06-25_11h40.20.448,LearnStrategy,2023.2.3,MacIntel,60.24096386,3,1,4,-0.079384359,-0.106612481,1,0,0,1.2813,Pegmatite_05,6,05,3,4,1.281,6,05,-0.133562012,-0.403994751,1,0,0,4.2777,Pegmatite_rect,6,4.278,1,3,0,3,0,1,,,,,,,,,,,,,
607cbf385d3202721e3f719f,SCR,2024-06-25_11h40.20.448,LearnStrategy,2023.2.3,MacIntel,60.24096386,3,1,5,-0.231685418,0.0909434,1,0,0,5.6976,Pegmatite_03,6,03,4,3,5.698,7,15,0.121649034,-0.395976969,1,0,0,2.4834,Peridotite_rect,7,2.483,0,4,0,4,0,1,,,,,,,,,,,,,
607cbf385d3202721e3f719f,SCR,2024-06-25_11h40.20.448,LearnStrategy,2023.2.3,MacIntel,60.24096386,3,1,6,0.544571398,-0.11605245,1,0,0,2.881,Gabbro_14,4,14,3,8,2.881,4,14,-0.111701525,-0.258127306,1,0,0,4.3294,Basalt_rect,2,4.329,0,5,0,5,0,1,,,,,,,,,,,,,
607cbf385d3202721e3f719f,SCR,2024-06-25_11h40.20.448,LearnStrategy,2023.2.3,MacIntel,60.24096386,3,1,7,-0.070192125,0.40609965,1,0,0,4.7962,Andesite_01,1,01,6,4,4.796,1,01,0.423018121,-0.24428555,1,0,0,5.2327,Gabbro_rect,4,5.233,0,6,0,6,0,1,,,,,,,,,,,,,
607cbf385d3202721e3f719f,SCR,2024-06-25_11h40.20.448,LearnStrategy,2023.2.3,MacIntel,60.24096386,3,1,8,-0.21809455,0.075517646,1,0,0,2.1294,Pegmatite_03,6,03,4,3,2.129,6,03,-0.144483914,-0.398471815,1,0,0,5.7457,Pegmatite_rect,6,5.746,1,7,0,7,0,1,,,,,,,,,,,,,
607cbf385d3202721e3f719f,SCR,2024-06-25_11h40.20.448,LearnStrategy,2023.2.3,MacIntel,60.24096386,3,1,9,0.225549452,0.249655117,1,0,0,6.6149,Diorite_11,3,11,5,6,6.615,2,10,0.101864285,-0.245291206,1,0,0,2.486,Diorite_rect,3,2.486,1,8,0,8,0,1,,,,,,,,,,,,,
607cbf385d3202721e3f719f,SCR,2024-06-25_11h40.20.448,LearnStrategy,2023.2.3,MacIntel,60.24096386,3,1,10,-0.533206872,0.256787974,1,0,0,2.4152,Pumice_03,8,03,5,1,2.415,8,03,0.377700738,-0.402028944,1,0,0,1.6672,Pumice_rect,8,1.667,1,9,0,9,0,1,,,,,,,,,,,,,
607cbf385d3202721e3f719f,SCR,2024-06-25_11h40.20.448,LearnStrategy,2023.2.3,MacIntel,60.24096386,3,1,11,0.545555556,0.412839898,1,0,0,2.3308,Andesite_04,1,04,6,8,2.331,1,04,-0.378150431,-0.240364583,1,0,0,2.0498,Andesite_rect,1,2.05,1,10,0,10,0,1,,,,,,,,,,,,,
607cbf385d3202721e3f719f,SCR,2024-06-25_11h40.20.448,LearnStrategy,2023.2.3,MacIntel,60.24096386,3,1,12,-0.227951592,-0.105831163,1,0,0,5.3156,Peridotite_08,7,08,3,3,5.316,3,11,0.125110474,-0.403471205,1,0,0,2.0308,Peridotite_rect,7,2.031,1,11,0,11,0,1,,,,,,,,,,,,,
607cbf385d3202721e3f719f,SCR,2024-06-25_11h40.20.448,LearnStrategy,2023.2.3,MacIntel,60.24096386,3,1,13,-0.545474904,0.379121619,1,0,0,2.4632,Diorite_02,3,02,6,1,2.463,3,02,0.407849528,-0.258834635,1,0,0,7.7287,Gabbro_rect,4,7.729,0,12,0,12,0,1,,,,,,,,,,,,,
607cbf385d3202721e3f719f,SCR,2024-06-25_11h40.20.448,LearnStrategy,2023.2.3,MacIntel,60.24096386,3,1,14,-0.400995517,-0.105769653,1,0,0,5.1477,Diorite_09,3,09,3,2,5.148,5,16,0.065567559,-0.243039551,1,0,0,2.7961,Diorite_rect,3,2.796,1,13,0,13,0,1,,,,,,,,,,,,,
607cbf385d3202721e3f719f,SCR,2024-06-25_11h40.20.448,LearnStrategy,2023.2.3,MacIntel,60.24096386,3,1,15,0.556672363,-0.409734904,1,0,0,5.5985,Pegmatite_10,6,10,1,8,5.599,6,10,0.160572171,-0.396794095,1,0,0,3.629,Peridotite_rect,7,3.629,0,14,0,14,0,1,,,,,,,,,,,,,
607cbf385d3202721e3f719f,SCR,2024-06-25_11h40.20.448,LearnStrategy,2023.2.3,MacIntel,60.24096386,3,1,16,0.391756456,-0.412557237,1,0,0,3.5809,Pegmatite_07,6,07,1,7,3.581,4,16,-0.128841892,-0.392985501,1,0,0,4.365,Pegmatite_rect,6,4.365,1,15,0,15,0,1,,,,,,,,,,,,,
607cbf385d3202721e3f719f,SCR,2024-06-25_11h40.20.448,LearnStrategy,2023.2.3,MacIntel,60.24096386,3,2,1,,,,,,,,4,09,,,,,,,,,,,,,4,31.204,1,,,,,,0.390346002,-0.250494588,1,0,0,31.2043,Gabbro_rect,0,0,0,0,1,
607cbf385d3202721e3f719f,SCR,2024-06-25_11h40.20.448,LearnStrategy,2023.2.3,MacIntel,60.24096386,3,2,2,,,,,,,,6,12,,,,,,,,,,,,,3,21.242,0,,,,,,0.115564914,-0.248167318,1,0,0,21.2418,Diorite_rect,1,0,1,0,1,
607cbf385d3202721e3f719f,SCR,2024-06-25_11h40.20.448,LearnStrategy,2023.2.3,MacIntel,60.24096386,3,2,3,,,,,,,,3,10,,,,,,,,,,,,,3,4.172,1,,,,,,0.135242038,-0.244190199,1,0,0,4.1724,Diorite_rect,2,0,2,0,1,
607cbf385d3202721e3f719f,SCR,2024-06-25_11h40.20.448,LearnStrategy,2023.2.3,MacIntel,60.24096386,3,2,4,,,,,,,,5,11,,,,,,,,,,,,,5,1.521,1,,,,,,-0.435892198,-0.407906562,1,0,0,1.5212,Obsidian_rect,3,0,3,0,1,
607cbf385d3202721e3f719f,SCR,2024-06-25_11h40.20.448,LearnStrategy,2023.2.3,MacIntel,60.24096386,3,2,5,,,,,,,,1,06,,,,,,,,,,,,,1,2.125,1,,,,,,-0.426563551,-0.246356744,1,0,0,2.125,Andesite_rect,4,0,4,0,1,
607cbf385d3202721e3f719f,SCR,2024-06-25_11h40.20.448,LearnStrategy,2023.2.3,MacIntel,60.24096386,3,2,6,,,,,,,,1,02,,,,,,,,,,,,,6,11.995,0,,,,,,-0.136794705,-0.411073337,1,0,0,11.9953,Pegmatite_rect,5,0,5,0,1,
607cbf385d3202721e3f719f,SCR,2024-06-25_11h40.20.448,LearnStrategy,2023.2.3,MacIntel,60.24096386,3,2,7,,,,,,,,3,06,,,,,,,,,,,,,3,19.673,1,,,,,,0.133606093,-0.259217055,1,0,0,19.6733,Diorite_rect,6,0,6,0,1,
607cbf385d3202721e3f719f,SCR,2024-06-25_11h40.20.448,LearnStrategy,2023.2.3,MacIntel,60.24096386,3,2,8,,,,,,,,5,05,,,,,,,,,,,,,5,2.125,1,,,,,,-0.413990173,-0.395423177,1,0,0,2.1248,Obsidian_rect,7,0,7,0,1,
607cbf385d3202721e3f719f,SCR,2024-06-25_11h40.20.448,LearnStrategy,2023.2.3,MacIntel,60.24096386,3,2,9,,,,,,,,7,04,,,,,,,,,,,,,7,5.609,1,,,,,,0.140935262,-0.402683105,1,0,0,5.6089,Peridotite_rect,8,0,8,0,1,
607cbf385d3202721e3f719f,SCR,2024-06-25_11h40.20.448,LearnStrategy,2023.2.3,MacIntel,60.24096386,3,2,10,,,,,,,,8,04,,,,,,,,,,,,,8,1.473,1,,,,,,0.436978217,-0.402767334,1,0,0,1.4731,Pumice_rect,9,0,9,0,1,
607cbf385d3202721e3f719f,SCR,2024-06-25_11h40.20.448,LearnStrategy,2023.2.3,MacIntel,60.24096386,3,2,11,,,,,,,,4,12,,,,,,,,,,,,,4,2.139,1,,,,,,0.387962104,-0.24901374,1,0,0,2.1389,Gabbro_rect,10,0,10,0,1,
607cbf385d3202721e3f719f,SCR,2024-06-25_11h40.20.448,LearnStrategy,2023.2.3,MacIntel,60.24096386,3,2,12,,,,,,,,2,12,,,,,,,,,,,,,8,22.061,0,,,,,,0.37345025,-0.39179423,1,0,0,22.0607,Pumice_rect,11,0,11,0,1,
607cbf385d3202721e3f719f,SCR,2024-06-25_11h40.20.448,LearnStrategy,2023.2.3,MacIntel,60.24096386,3,2,13,,,,,,,,8,08,,,,,,,,,,,,,2,3.455,0,,,,,,-0.137963392,-0.253246053,1,0,0,3.4548,Basalt_rect,12,0,12,0,1,
607cbf385d3202721e3f719f,SCR,2024-06-25_11h40.20.448,LearnStrategy,2023.2.3,MacIntel,60.24096386,3,2,14,,,,,,,,6,16,,,,,,,,,,,,,6,3.341,1,,,,,,-0.158117201,-0.392191705,1,0,0,3.3405,Pegmatite_rect,13,0,13,0,1,
607cbf385d3202721e3f719f,SCR,2024-06-25_11h40.20.448,LearnStrategy,2023.2.3,MacIntel,60.24096386,3,2,15,,,,,,,,2,16,,,,,,,,,,,,,4,2.707,0,,,,,,0.382902154,-0.241404826,1,0,0,2.7071,Gabbro_rect,14,0,14,0,1,
607cbf385d3202721e3f719f,SCR,2024-06-25_11h40.20.448,LearnStrategy,2023.2.3,MacIntel,60.24096386,3,2,16,,,,,,,,7,02,,,,,,,,,,,,,7,11.138,1,,,,,,0.099192844,-0.394508599,1,0,0,11.1377,Peridotite_rect,15,0,15,0,1,
607cbf385d3202721e3f719f,SCR,2024-06-25_11h40.20.448,LearnStrategy,2023.2.3,MacIntel,60.24096386,4,1,1,-0.372576362,-0.394987522,1,0,0,4.2648,Basalt_14,2,14,1,2,4.265,2,14,-0.125016073,-0.250938314,1,0,0,3.7111,Basalt_rect,2,3.711,1,0,0,0,0,1,,,,,,,,,,,,,
607cbf385d3202721e3f719f,SCR,2024-06-25_11h40.20.448,LearnStrategy,2023.2.3,MacIntel,60.24096386,4,1,2,-0.086050008,-0.114396973,1,0,0,2.4822,Pegmatite_05,6,05,3,4,2.482,6,05,-0.12572659,-0.39124098,1,0,0,3.2945,Pegmatite_rect,6,3.295,1,1,0,1,0,1,,,,,,,,,,,,,
607cbf385d3202721e3f719f,SCR,2024-06-25_11h40.20.448,LearnStrategy,2023.2.3,MacIntel,60.24096386,4,1,3,-0.540980648,-0.233387316,1,0,0,2.08,Diorite_07,3,07,2,1,2.08,3,07,0.107893812,-0.245368652,1,0,0,6.7182,Diorite_rect,3,6.718,1,2,0,2,0,1,,,,,,,,,,,,,
607cbf385d3202721e3f719f,SCR,2024-06-25_11h40.20.448,LearnStrategy,2023.2.3,MacIntel,60.24096386,4,1,4,-0.392533671,0.251827257,1,0,0,1.7145,Peridotite_16,7,16,5,2,1.715,7,16,0.131831868,-0.403315769,1,0,0,1.359,Peridotite_rect,7,1.359,1,3,0,3,0,1,,,,,,,,,,,,,
607cbf385d3202721e3f719f,SCR,2024-06-25_11h40.20.448,LearnStrategy,2023.2.3,MacIntel,60.24096386,4,1,5,0.387456326,0.236339552,1,0,0,3.1657,Basalt_10,2,10,5,7,3.166,2,10,-0.129009671,-0.247617594,1,0,0,9.9042,Basalt_rect,2,9.904,1,4,0,4,0,1,,,,,,,,,,,,,
607cbf385d3202721e3f719f,SCR,2024-06-25_11h40.20.448,LearnStrategy,2023.2.3,MacIntel,60.24096386,4,1,6,0.391916775,-0.414862061,1,0,0,2.8313,Pegmatite_07,6,07,1,7,2.831,6,07,-0.127783135,-0.394134454,1,0,0,2.7236,Pegmatite_rect,6,2.724,1,5,0,5,0,1,,,,,,,,,,,,,
607cbf385d3202721e3f719f,SCR,2024-06-25_11h40.20.448,LearnStrategy,2023.2.3,MacIntel,60.24096386,4,1,7,-0.390815769,-0.251594577,1,0,0,1.8132,Andesite_09,1,09,2,2,1.813,1,09,-0.390417718,-0.240696682,1,0,0,1.555,Andesite_rect,1,1.555,1,6,0,6,0,1,,,,,,,,,,,,,
607cbf385d3202721e3f719f,SCR,2024-06-25_11h40.20.448,LearnStrategy,2023.2.3,MacIntel,60.24096386,4,1,8,-0.224588284,0.420952606,1,0,0,2.5143,Pumice_02,8,02,6,3,2.514,8,02,0.355895589,-0.393052436,1,0,0,1.9263,Pumice_rect,8,1.926,1,7,0,7,0,1,,,,,,,,,,,,,
607cbf385d3202721e3f719f,SCR,2024-06-25_11h40.20.448,LearnStrategy,2023.2.3,MacIntel,60.24096386,4,1,9,0.394276666,0.3822897,1,0,0,5.3989,Obsidian_10,5,10,6,7,5.399,2,14,-0.401310391,-0.395904338,1,0,0,2.1812,Obsidian_rect,5,2.181,1,8,0,8,0,1,,,,,,,,,,,,,
607cbf385d3202721e3f719f,SCR,2024-06-25_11h40.20.448,LearnStrategy,2023.2.3,MacIntel,60.24096386,4,1,10,0.538646918,0.41104577,1,0,0,1.965,Andesite_04,1,04,6,8,1.965,1,04,-0.362557509,-0.24125373,1,0,0,1.8753,Andesite_rect,1,1.875,1,9,0,9,0,1,,,,,,,,,,,,,
607cbf385d3202721e3f719f,SCR,2024-06-25_11h40.20.448,LearnStrategy,2023.2.3,MacIntel,60.24096386,4,1,11,0.227241618,0.079055854,1,0,0,5.949,Gabbro_03,4,03,4,6,5.949,4,03,0.387731255,-0.250203654,1,0,0,1.5352,Gabbro_rect,4,1.535,1,10,0,10,0,1,,,,,,,,,,,,,
607cbf385d3202721e3f719f,SCR,2024-06-25_11h40.20.448,LearnStrategy,2023.2.3,MacIntel,60.24096386,4,1,12,-0.383825311,-0.095624932,1,0,0,5.4314,Diorite_09,3,09,3,2,5.431,8,03,0.115433146,-0.257733358,1,0,0,1.9655,Diorite_rect,3,1.966,1,11,0,11,0,1,,,,,,,,,,,,,
607cbf385d3202721e3f719f,SCR,2024-06-25_11h40.20.448,LearnStrategy,2023.2.3,MacIntel,60.24096386,4,1,13,-0.386455282,-0.264481269,1,0,0,10.6147,Andesite_09,1,09,2,2,10.615,2,10,-0.396333245,-0.254664917,1,0,0,1.4176,Andesite_rect,1,1.418,1,12,0,12,0,1,,,,,,,,,,,,,
607cbf385d3202721e3f719f,SCR,2024-06-25_11h40.20.448,LearnStrategy,2023.2.3,MacIntel,60.24096386,4,1,14,-0.222846476,0.392642975,1,0,0,4.0657,Pumice_02,8,02,6,3,4.066,5,04,0.386873915,-0.37982388,1,0,0,1.7831,Pumice_rect,8,1.783,1,13,0,13,0,1,,,,,,,,,,,,,
607cbf385d3202721e3f719f,SCR,2024-06-25_11h40.20.448,LearnStrategy,2023.2.3,MacIntel,60.24096386,4,1,15,-0.065067749,0.400609266,1,0,0,2.4986,Andesite_01,1,01,6,4,2.499,6,15,0.364593913,-0.247821927,1,0,0,10.7439,Gabbro_rect,4,10.744,0,14,0,14,0,1,,,,,,,,,,,,,
607cbf385d3202721e3f719f,SCR,2024-06-25_11h40.20.448,LearnStrategy,2023.2.3,MacIntel,60.24096386,4,1,16,-0.526915368,0.089374932,1,0,0,2.8653,Gabbro_05,4,05,4,1,2.865,4,05,0.385389133,-0.253492771,1,0,0,8.5264,Gabbro_rect,4,8.526,1,15,0,15,0,1,,,,,,,,,,,,,
607cbf385d3202721e3f719f,SCR,2024-06-25_11h40.20.448,LearnStrategy,2023.2.3,MacIntel,60.24096386,4,2,1,,,,,,,,2,11,,,,,,,,,,,,,4,22.087,0,,,,,,0.399902208,-0.268891059,1,0,0,22.087,Gabbro_rect,0,0,0,0,1,
607cbf385d3202721e3f719f,SCR,2024-06-25_11h40.20.448,LearnStrategy,2023.2.3,MacIntel,60.24096386,4,2,2,,,,,,,,5,12,,,,,,,,,,,,,5,1.46,1,,,,,,-0.433623759,-0.391871202,1,0,0,1.4603,Obsidian_rect,1,0,1,0,1,
607cbf385d3202721e3f719f,SCR,2024-06-25_11h40.20.448,LearnStrategy,2023.2.3,MacIntel,60.24096386,4,2,3,,,,,,,,1,06,,,,,,,,,,,,,1,1.638,1,,,,,,-0.383820563,-0.256360813,1,0,0,1.6375,Andesite_rect,2,0,2,0,1,
607cbf385d3202721e3f719f,SCR,2024-06-25_11h40.20.448,LearnStrategy,2023.2.3,MacIntel,60.24096386,4,2,4,,,,,,,,4,15,,,,,,,,,,,,,4,17.141,1,,,,,,0.369332954,-0.255200263,1,0,0,17.1407,Gabbro_rect,3,0,3,0,1,
607cbf385d3202721e3f719f,SCR,2024-06-25_11h40.20.448,LearnStrategy,2023.2.3,MacIntel,60.24096386,4,2,5,,,,,,,,7,07,,,,,,,,,,,,,7,5.276,1,,,,,,0.121995578,-0.402146946,1,0,0,5.2763,Peridotite_rect,4,0,4,0,1,
607cbf385d3202721e3f719f,SCR,2024-06-25_11h40.20.448,LearnStrategy,2023.2.3,MacIntel,60.24096386,4,2,6,,,,,,,,4,10,,,,,,,,,,,,,4,5.733,1,,,,,,0.364766981,-0.262927517,1,0,0,5.7329,Gabbro_rect,5,0,5,0,1,
607cbf385d3202721e3f719f,SCR,2024-06-25_11h40.20.448,LearnStrategy,2023.2.3,MacIntel,60.24096386,4,2,7,,,,,,,,1,16,,,,,,,,,,,,,1,14.223,1,,,,,,-0.363301697,-0.248321804,1,0,0,14.2229,Andesite_rect,6,0,6,0,1,
607cbf385d3202721e3f719f,SCR,2024-06-25_11h40.20.448,LearnStrategy,2023.2.3,MacIntel,60.24096386,4,2,8,,,,,,,,3,15,,,,,,,,,,,,,3,3.038,1,,,,,,0.142249891,-0.251504178,1,0,0,3.0382,Diorite_rect,7,0,7,0,1,
607cbf385d3202721e3f719f,SCR,2024-06-25_11h40.20.448,LearnStrategy,2023.2.3,MacIntel,60.24096386,4,2,9,,,,,,,,8,04,,,,,,,,,,,,,8,1.397,1,,,,,,0.384082031,-0.402638007,1,0,0,1.3966,Pumice_rect,8,0,8,0,1,
607cbf385d3202721e3f719f,SCR,2024-06-25_11h40.20.448,LearnStrategy,2023.2.3,MacIntel,60.24096386,4,2,10,,,,,,,,3,16,,,,,,,,,,,,,3,5.161,1,,,,,,0.113094279,-0.256870931,1,0,0,5.1612,Diorite_rect,9,0,9,0,1,
607cbf385d3202721e3f719f,SCR,2024-06-25_11h40.20.448,LearnStrategy,2023.2.3,MacIntel,60.24096386,4,2,11,,,,,,,,2,12,,,,,,,,,,,,,8,16.609,0,,,,,,0.399511719,-0.400882772,1,0,0,16.609,Pumice_rect,10,0,10,0,1,
607cbf385d3202721e3f719f,SCR,2024-06-25_11h40.20.448,LearnStrategy,2023.2.3,MacIntel,60.24096386,4,2,12,,,,,,,,5,14,,,,,,,,,,,,,5,1.341,1,,,,,,-0.378223538,-0.39275472,1,0,0,1.3407,Obsidian_rect,11,0,11,0,1,
607cbf385d3202721e3f719f,SCR,2024-06-25_11h40.20.448,LearnStrategy,2023.2.3,MacIntel,60.24096386,4,2,13,,,,,,,,7,05,,,,,,,,,,,,,7,16.24,1,,,,,,0.127353583,-0.39076728,1,0,0,16.2403,Peridotite_rect,12,0,12,0,1,
607cbf385d3202721e3f719f,SCR,2024-06-25_11h40.20.448,LearnStrategy,2023.2.3,MacIntel,60.24096386,4,2,14,,,,,,,,6,16,,,,,,,,,,,,,6,1.458,1,,,,,,-0.149487033,-0.399729953,1,0,0,1.4579,Pegmatite_rect,13,0,13,0,1,
607cbf385d3202721e3f719f,SCR,2024-06-25_11h40.20.448,LearnStrategy,2023.2.3,MacIntel,60.24096386,4,2,15,,,,,,,,8,08,,,,,,,,,,,,,2,3.01,0,,,,,,-0.121930474,-0.25997796,1,0,0,3.0099,Basalt_rect,14,0,14,0,1,
607cbf385d3202721e3f719f,SCR,2024-06-25_11h40.20.448,LearnStrategy,2023.2.3,MacIntel,60.24096386,4,2,16,,,,,,,,6,11,,,,,,,,,,,,,6,2.016,1,,,,,,-0.159460924,-0.387190213,1,0,0,2.0159,Pegmatite_rect,15,0,15,0,1,
607cbf385d3202721e3f719f,SCR,2024-06-25_11h40.20.448,LearnStrategy,2023.2.3,MacIntel,60.24096386,5,1,1,0.554950087,0.253572337,1,0,0,3.199,Basalt_06,2,06,5,8,3.199,2,06,-0.130682576,-0.236927829,1,0,0,2.2359,Basalt_rect,2,2.236,1,0,0,0,0,1,,,,,,,,,,,,,
607cbf385d3202721e3f719f,SCR,2024-06-25_11h40.20.448,LearnStrategy,2023.2.3,MacIntel,60.24096386,5,1,2,0.576635607,0.091525235,1,0,0,1.5499,Pumice_10,8,10,4,8,1.55,8,10,0.436571316,-0.39218472,1,0,0,2.0422,Pumice_rect,8,2.042,1,1,0,1,0,1,,,,,,,,,,,,,
607cbf385d3202721e3f719f,SCR,2024-06-25_11h40.20.448,LearnStrategy,2023.2.3,MacIntel,60.24096386,5,1,3,0.086684638,-0.102793647,1,0,0,4.5321,Pumice_14,8,14,3,5,4.532,5,02,0.378353407,-0.400177273,1,0,0,1.347,Pumice_rect,8,1.347,1,2,0,2,0,1,,,,,,,,,,,,,
607cbf385d3202721e3f719f,SCR,2024-06-25_11h40.20.448,LearnStrategy,2023.2.3,MacIntel,60.24096386,5,1,4,-0.076551717,-0.397791206,1,0,0,2.8309,Andesite_03,1,03,1,4,2.831,3,09,-0.372341275,-0.249947238,1,0,0,2.142,Andesite_rect,1,2.142,1,3,0,3,0,1,,,,,,,,,,,,,
607cbf385d3202721e3f719f,SCR,2024-06-25_11h40.20.448,LearnStrategy,2023.2.3,MacIntel,60.24096386,5,1,5,0.528947347,0.399205712,1,0,0,17.6319,Andesite_04,1,04,6,8,17.632,4,01,-0.407730103,-0.24045851,1,0,0,2.616,Andesite_rect,1,2.616,1,4,0,4,0,1,,,,,,,,,,,,,
607cbf385d3202721e3f719f,SCR,2024-06-25_11h40.20.448,LearnStrategy,2023.2.3,MacIntel,60.24096386,5,1,6,0.078269518,0.245085839,1,0,0,2.2142,Peridotite_15,7,15,5,5,2.214,6,08,0.126396077,-0.395425483,1,0,0,1.9557,Peridotite_rect,7,1.956,1,5,0,5,0,1,,,,,,,,,,,,,
607cbf385d3202721e3f719f,SCR,2024-06-25_11h40.20.448,LearnStrategy,2023.2.3,MacIntel,60.24096386,5,1,7,-0.086954617,0.09700175,1,0,0,2.9987,Pumice_16,8,16,4,4,2.999,2,10,0.386066623,-0.393539293,1,0,0,2.0659,Pumice_rect,8,2.066,1,6,0,6,0,1,,,,,,,,,,,,,
607cbf385d3202721e3f719f,SCR,2024-06-25_11h40.20.448,LearnStrategy,2023.2.3,MacIntel,60.24096386,5,1,8,-0.389688822,0.387729221,1,0,0,5.8651,Peridotite_12,7,12,6,2,5.865,1,04,0.081256985,-0.399768948,1,0,0,2.413,Peridotite_rect,7,2.413,1,7,0,7,0,1,,,,,,,,,,,,,
607cbf385d3202721e3f719f,SCR,2024-06-25_11h40.20.448,LearnStrategy,2023.2.3,MacIntel,60.24096386,5,1,9,-0.548339369,0.261710307,1,0,0,2.4306,Pumice_03,8,03,5,1,2.431,6,08,0.395903456,-0.401649848,1,0,0,1.9878,Pumice_rect,8,1.988,1,8,0,8,0,1,,,,,,,,,,,,,
607cbf385d3202721e3f719f,SCR,2024-06-25_11h40.20.448,LearnStrategy,2023.2.3,MacIntel,60.24096386,5,1,10,-0.543498908,0.078897366,1,0,0,2.8152,Gabbro_05,4,05,4,1,2.815,8,14,0.414274767,-0.247553914,1,0,0,3.3962,Gabbro_rect,4,3.396,1,9,0,9,0,1,,,,,,,,,,,,,
607cbf385d3202721e3f719f,SCR,2024-06-25_11h40.20.448,LearnStrategy,2023.2.3,MacIntel,60.24096386,5,1,11,-0.385074802,-0.248096178,1,0,0,6.5812,Andesite_09,1,09,2,2,6.581,8,10,-0.387068142,-0.244289958,1,0,0,1.9796,Andesite_rect,1,1.98,1,10,0,10,0,1,,,,,,,,,,,,,
607cbf385d3202721e3f719f,SCR,2024-06-25_11h40.20.448,LearnStrategy,2023.2.3,MacIntel,60.24096386,5,1,12,-0.213734809,-0.274122721,1,0,0,2.9987,Peridotite_14,7,14,2,3,2.999,1,05,0.134975518,-0.392124973,1,0,0,3.1068,Peridotite_rect,7,3.107,1,11,0,11,0,1,,,,,,,,,,,,,
607cbf385d3202721e3f719f,SCR,2024-06-25_11h40.20.448,LearnStrategy,2023.2.3,MacIntel,60.24096386,5,1,13,0.092392239,0.094119737,1,0,0,9.8976,Gabbro_01,4,01,4,5,9.898,7,15,0.352509494,-0.248293796,1,0,0,7.9652,Gabbro_rect,4,7.965,1,12,0,12,0,1,,,,,,,,,,,,,
607cbf385d3202721e3f719f,SCR,2024-06-25_11h40.20.448,LearnStrategy,2023.2.3,MacIntel,60.24096386,5,1,14,-0.064304403,-0.114029202,1,0,0,3.5491,Pegmatite_05,6,05,3,4,3.549,2,04,-0.126614719,-0.40389723,1,0,0,1.9,Pegmatite_rect,6,1.9,1,13,0,13,0,1,,,,,,,,,,,,,
607cbf385d3202721e3f719f,SCR,2024-06-25_11h40.20.448,LearnStrategy,2023.2.3,MacIntel,60.24096386,5,1,15,-0.223025716,0.087780389,1,0,0,3.5301,Pegmatite_03,6,03,4,3,3.53,2,14,-0.148022325,-0.4029442,1,0,0,1.8184,Pegmatite_rect,6,1.818,1,14,0,14,0,1,,,,,,,,,,,,,
607cbf385d3202721e3f719f,SCR,2024-06-25_11h40.20.448,LearnStrategy,2023.2.3,MacIntel,60.24096386,5,1,16,-0.078497111,-0.244761759,1,0,0,2.5145,Pegmatite_08,6,08,2,4,2.515,2,04,-0.138455946,-0.394496528,1,0,0,2.0769,Pegmatite_rect,6,2.077,1,15,0,15,0,1,,,,,,,,,,,,,
607cbf385d3202721e3f719f,SCR,2024-06-25_11h40.20.448,LearnStrategy,2023.2.3,MacIntel,60.24096386,5,2,1,,,,,,,,1,07,,,,,,,,,,,,,1,1.795,1,,,,,,-0.41486518,-0.241065538,1,0,0,1.7946,Andesite_rect,0,0,0,0,1,
607cbf385d3202721e3f719f,SCR,2024-06-25_11h40.20.448,LearnStrategy,2023.2.3,MacIntel,60.24096386,5,2,2,,,,,,,,2,16,,,,,,,,,,,,,4,5.208,0,,,,,,0.405811768,-0.228898519,1,0,0,5.2077,Gabbro_rect,1,0,1,0,1,
607cbf385d3202721e3f719f,SCR,2024-06-25_11h40.20.448,LearnStrategy,2023.2.3,MacIntel,60.24096386,5,2,3,,,,,,,,8,06,,,,,,,,,,,,,8,1.738,1,,,,,,0.387989502,-0.414502563,1,0,0,1.7383,Pumice_rect,2,0,2,0,1,
607cbf385d3202721e3f719f,SCR,2024-06-25_11h40.20.448,LearnStrategy,2023.2.3,MacIntel,60.24096386,5,2,4,,,,,,,,7,04,,,,,,,,,,,,,7,5.723,1,,,,,,0.150940687,-0.394440579,1,0,0,5.7226,Peridotite_rect,3,0,3,0,1,
607cbf385d3202721e3f719f,SCR,2024-06-25_11h40.20.448,LearnStrategy,2023.2.3,MacIntel,60.24096386,5,2,5,,,,,,,,7,06,,,,,,,,,,,,,6,13.337,0,,,,,,-0.098741794,-0.404883965,1,0,0,13.3375,Pegmatite_rect,4,0,4,0,1,
607cbf385d3202721e3f719f,SCR,2024-06-25_11h40.20.448,LearnStrategy,2023.2.3,MacIntel,60.24096386,5,2,6,,,,,,,,4,09,,,,,,,,,,,,,4,6.928,1,,,,,,0.403438992,-0.244276937,1,0,0,6.9283,Gabbro_rect,5,0,5,0,1,
607cbf385d3202721e3f719f,SCR,2024-06-25_11h40.20.448,LearnStrategy,2023.2.3,MacIntel,60.24096386,5,2,7,,,,,,,,2,01,,,,,,,,,,,,,2,1.893,1,,,,,,-0.143438856,-0.250693359,1,0,0,1.8929,Basalt_rect,6,0,6,0,1,
607cbf385d3202721e3f719f,SCR,2024-06-25_11h40.20.448,LearnStrategy,2023.2.3,MacIntel,60.24096386,5,2,8,,,,,,,,4,12,,,,,,,,,,,,,4,5.509,1,,,,,,0.430242649,-0.248307834,1,0,0,5.5089,Gabbro_rect,7,0,7,0,1,
607cbf385d3202721e3f719f,SCR,2024-06-25_11h40.20.448,LearnStrategy,2023.2.3,MacIntel,60.24096386,5,2,9,,,,,,,,5,06,,,,,,,,,,,,,5,1.805,1,,,,,,-0.400423008,-0.396632284,1,0,0,1.8054,Obsidian_rect,8,0,8,0,1,
607cbf385d3202721e3f719f,SCR,2024-06-25_11h40.20.448,LearnStrategy,2023.2.3,MacIntel,60.24096386,5,2,10,,,,,,,,3,14,,,,,,,,,,,,,3,1.822,1,,,,,,0.126665988,-0.24819892,1,0,0,1.822,Diorite_rect,9,0,9,0,1,
607cbf385d3202721e3f719f,SCR,2024-06-25_11h40.20.448,LearnStrategy,2023.2.3,MacIntel,60.24096386,5,2,11,,,,,,,,6,06,,,,,,,,,,,,,6,3.876,1,,,,,,-0.110045505,-0.402823893,1,0,0,3.8755,Pegmatite_rect,10,0,10,0,1,
607cbf385d3202721e3f719f,SCR,2024-06-25_11h40.20.448,LearnStrategy,2023.2.3,MacIntel,60.24096386,5,2,12,,,,,,,,3,10,,,,,,,,,,,,,3,3.28,1,,,,,,0.13125156,-0.251117282,1,0,0,3.2805,Diorite_rect,11,0,11,0,1,
607cbf385d3202721e3f719f,SCR,2024-06-25_11h40.20.448,LearnStrategy,2023.2.3,MacIntel,60.24096386,5,2,13,,,,,,,,5,05,,,,,,,,,,,,,5,2.122,1,,,,,,-0.417781609,-0.400521512,1,0,0,2.1218,Obsidian_rect,12,0,12,0,1,
607cbf385d3202721e3f719f,SCR,2024-06-25_11h40.20.448,LearnStrategy,2023.2.3,MacIntel,60.24096386,5,2,14,,,,,,,,8,15,,,,,,,,,,,,,8,1.947,1,,,,,,0.384250624,-0.395911662,1,0,0,1.947,Pumice_rect,13,0,13,0,1,
607cbf385d3202721e3f719f,SCR,2024-06-25_11h40.20.448,LearnStrategy,2023.2.3,MacIntel,60.24096386,5,2,15,,,,,,,,1,10,,,,,,,,,,,,,1,6.958,1,,,,,,-0.380665046,-0.249401109,1,0,0,6.9578,Andesite_rect,14,0,14,0,1,
607cbf385d3202721e3f719f,SCR,2024-06-25_11h40.20.448,LearnStrategy,2023.2.3,MacIntel,60.24096386,5,2,16,,,,,,,,6,12,,,,,,,,,,,,,6,11.193,1,,,,,,-0.126415744,-0.394241333,1,0,0,11.1928,Pegmatite_rect,15,0,15,0,1,
607cbf385d3202721e3f719f,SCR,2024-06-25_11h40.20.448,LearnStrategy,2023.2.3,MacIntel,60.24096386,6,1,1,-0.374580282,-0.412599013,1,0,0,11.048,Basalt_14,2,14,1,2,11.048,2,14,0.397357856,-0.256508586,1,0,0,2.7949,Gabbro_rect,4,2.795,0,0,0,0,0,1,,,,,,,,,,,,,
607cbf385d3202721e3f719f,SCR,2024-06-25_11h40.20.448,LearnStrategy,2023.2.3,MacIntel,60.24096386,6,1,2,-0.067404378,-0.088647325,1,0,0,1.4955,Pegmatite_05,6,05,3,4,1.495,6,05,-0.158189833,-0.39470832,1,0,0,3.1251,Pegmatite_rect,6,3.125,1,1,0,1,0,1,,,,,,,,,,,,,
607cbf385d3202721e3f719f,SCR,2024-06-25_11h40.20.448,LearnStrategy,2023.2.3,MacIntel,60.24096386,6,1,3,-0.397698839,-0.255412801,1,0,0,6.4663,Andesite_09,1,09,2,2,6.466,1,11,-0.39251909,-0.242376031,1,0,0,1.5469,Andesite_rect,1,1.547,1,2,0,2,0,1,,,,,,,,,,,,,
607cbf385d3202721e3f719f,SCR,2024-06-25_11h40.20.448,LearnStrategy,2023.2.3,MacIntel,60.24096386,6,1,4,-0.23075453,-0.101262953,1,0,0,1.449,Peridotite_08,7,08,3,3,1.449,3,11,0.1399646,-0.402276204,1,0,0,1.8411,Peridotite_rect,7,1.841,1,3,0,3,0,1,,,,,,,,,,,,,
607cbf385d3202721e3f719f,SCR,2024-06-25_11h40.20.448,LearnStrategy,2023.2.3,MacIntel,60.24096386,6,1,5,0.081301134,0.243867306,1,0,0,2.815,Peridotite_15,7,15,5,5,2.815,4,13,0.118779772,-0.398962402,1,0,0,1.6733,Peridotite_rect,7,1.673,1,4,0,4,0,1,,,,,,,,,,,,,
607cbf385d3202721e3f719f,SCR,2024-06-25_11h40.20.448,LearnStrategy,2023.2.3,MacIntel,60.24096386,6,1,6,-0.23888994,0.105454915,1,0,0,2.8321,Pegmatite_03,6,03,4,3,2.832,2,05,-0.173960571,-0.397757636,1,0,0,2.0913,Pegmatite_rect,6,2.091,1,5,0,5,0,1,,,,,,,,,,,,,
607cbf385d3202721e3f719f,SCR,2024-06-25_11h40.20.448,LearnStrategy,2023.2.3,MacIntel,60.24096386,6,1,7,-0.386593865,0.24645696,1,0,0,1.9813,Peridotite_16,7,16,5,2,1.981,6,15,0.116987915,-0.399034831,1,0,0,1.4204,Peridotite_rect,7,1.42,1,6,0,6,0,1,,,,,,,,,,,,,
607cbf385d3202721e3f719f,SCR,2024-06-25_11h40.20.448,LearnStrategy,2023.2.3,MacIntel,60.24096386,6,1,8,-0.056611532,0.405472768,1,0,0,2.2152,Andesite_01,1,01,6,4,2.215,2,04,-0.39938168,-0.251988525,1,0,0,5.987,Andesite_rect,1,5.987,1,7,0,7,0,1,,,,,,,,,,,,,
607cbf385d3202721e3f719f,SCR,2024-06-25_11h40.20.448,LearnStrategy,2023.2.3,MacIntel,60.24096386,6,1,9,0.532548557,0.399915398,1,0,0,5.5487,Andesite_04,1,04,6,8,5.549,1,04,-0.377691243,-0.25844652,1,0,0,1.5109,Andesite_rect,1,1.511,1,8,0,8,0,1,,,,,,,,,,,,,
607cbf385d3202721e3f719f,SCR,2024-06-25_11h40.20.448,LearnStrategy,2023.2.3,MacIntel,60.24096386,6,1,10,0.247834744,0.409741296,1,0,0,3.1979,Diorite_08,3,08,6,6,3.198,8,10,0.111657918,-0.253113268,1,0,0,1.6121,Diorite_rect,3,1.612,1,9,0,9,0,1,,,,,,,,,,,,,
607cbf385d3202721e3f719f,SCR,2024-06-25_11h40.20.448,LearnStrategy,2023.2.3,MacIntel,60.24096386,6,1,11,0.228291762,0.09221561,1,0,0,1.9482,Gabbro_03,4,03,4,6,1.948,8,13,0.384308404,-0.259137845,1,0,0,1.7067,Gabbro_rect,4,1.707,1,10,0,10,0,1,,,,,,,,,,,,,
607cbf385d3202721e3f719f,SCR,2024-06-25_11h40.20.448,LearnStrategy,2023.2.3,MacIntel,60.24096386,6,1,12,-0.078307495,0.096553921,1,0,0,2.5824,Pumice_16,8,16,4,4,2.582,2,06,0.374567735,-0.399647963,1,0,0,1.8054,Pumice_rect,8,1.805,1,11,0,11,0,1,,,,,,,,,,,,,
607cbf385d3202721e3f719f,SCR,2024-06-25_11h40.20.448,LearnStrategy,2023.2.3,MacIntel,60.24096386,6,1,13,-0.222996691,-0.103858236,1,0,0,3.0307,Peridotite_08,7,08,3,3,3.031,7,13,0.110956014,-0.391112332,1,0,0,1.778,Peridotite_rect,7,1.778,1,12,0,12,0,1,,,,,,,,,,,,,
607cbf385d3202721e3f719f,SCR,2024-06-25_11h40.20.448,LearnStrategy,2023.2.3,MacIntel,60.24096386,6,1,14,-0.072121785,-0.230489705,1,0,0,3.8476,Pegmatite_08,6,08,2,4,3.848,5,08,-0.114786716,-0.396126912,1,0,0,1.6131,Pegmatite_rect,6,1.613,1,13,0,13,0,1,,,,,,,,,,,,,
607cbf385d3202721e3f719f,SCR,2024-06-25_11h40.20.448,LearnStrategy,2023.2.3,MacIntel,60.24096386,6,1,15,0.236465115,-0.262268405,1,0,0,3.2655,Basalt_05,2,05,2,6,3.265,2,10,-0.128869968,-0.244513753,1,0,0,1.5735,Basalt_rect,2,1.573,1,14,0,14,0,1,,,,,,,,,,,,,
607cbf385d3202721e3f719f,SCR,2024-06-25_11h40.20.448,LearnStrategy,2023.2.3,MacIntel,60.24096386,6,1,16,-0.389978672,-0.107804972,1,0,0,17.7806,Diorite_09,3,09,3,2,17.781,7,08,0.131777683,-0.245118001,1,0,0,1.485,Diorite_rect,3,1.485,1,15,0,15,0,1,,,,,,,,,,,,,
607cbf385d3202721e3f719f,SCR,2024-06-25_11h40.20.448,LearnStrategy,2023.2.3,MacIntel,60.24096386,6,2,1,,,,,,,,6,09,,,,,,,,,,,,,6,4.424,1,,,,,,-0.151068183,-0.404054159,1,0,0,4.4244,Pegmatite_rect,0,0,0,0,1,
607cbf385d3202721e3f719f,SCR,2024-06-25_11h40.20.448,LearnStrategy,2023.2.3,MacIntel,60.24096386,6,2,2,,,,,,,,2,09,,,,,,,,,,,,,2,11.049,1,,,,,,-0.146615465,-0.243006795,1,0,0,11.0491,Basalt_rect,1,0,1,0,1,
607cbf385d3202721e3f719f,SCR,2024-06-25_11h40.20.448,LearnStrategy,2023.2.3,MacIntel,60.24096386,6,2,3,,,,,,,,4,11,,,,,,,,,,,,,4,3.559,1,,,,,,0.398975694,-0.265087687,1,0,0,3.5591,Gabbro_rect,2,0,2,0,1,
607cbf385d3202721e3f719f,SCR,2024-06-25_11h40.20.448,LearnStrategy,2023.2.3,MacIntel,60.24096386,6,2,4,,,,,,,,8,05,,,,,,,,,,,,,8,1.484,1,,,,,,0.406013862,-0.396294895,1,0,0,1.4838,Pumice_rect,3,0,3,0,1,
607cbf385d3202721e3f719f,SCR,2024-06-25_11h40.20.448,LearnStrategy,2023.2.3,MacIntel,60.24096386,6,2,5,,,,,,,,1,02,,,,,,,,,,,,,6,12.926,0,,,,,,-0.143414985,-0.401661106,1,0,0,12.9261,Pegmatite_rect,4,0,4,0,1,
607cbf385d3202721e3f719f,SCR,2024-06-25_11h40.20.448,LearnStrategy,2023.2.3,MacIntel,60.24096386,6,2,6,,,,,,,,6,13,,,,,,,,,,,,,6,1.751,1,,,,,,-0.154452243,-0.398065592,1,0,0,1.751,Pegmatite_rect,5,0,5,0,1,
607cbf385d3202721e3f719f,SCR,2024-06-25_11h40.20.448,LearnStrategy,2023.2.3,MacIntel,60.24096386,6,2,7,,,,,,,,7,02,,,,,,,,,,,,,7,1.46,1,,,,,,0.136657376,-0.392156236,1,0,0,1.4596,Peridotite_rect,6,0,6,0,1,
607cbf385d3202721e3f719f,SCR,2024-06-25_11h40.20.448,LearnStrategy,2023.2.3,MacIntel,60.24096386,6,2,8,,,,,,,,8,09,,,,,,,,,,,,,8,1.49,1,,,,,,0.382381185,-0.393974474,1,0,0,1.4897,Pumice_rect,7,0,7,0,1,
607cbf385d3202721e3f719f,SCR,2024-06-25_11h40.20.448,LearnStrategy,2023.2.3,MacIntel,60.24096386,6,2,9,,,,,,,,2,02,,,,,,,,,,,,,2,7.321,1,,,,,,-0.124627957,-0.247395087,1,0,0,7.3209,Basalt_rect,8,0,8,0,1,
607cbf385d3202721e3f719f,SCR,2024-06-25_11h40.20.448,LearnStrategy,2023.2.3,MacIntel,60.24096386,6,2,10,,,,,,,,4,08,,,,,,,,,,,,,4,2.915,1,,,,,,0.387546794,-0.242188382,1,0,0,2.9151,Gabbro_rect,9,0,9,0,1,
607cbf385d3202721e3f719f,SCR,2024-06-25_11h40.20.448,LearnStrategy,2023.2.3,MacIntel,60.24096386,6,2,11,,,,,,,,3,13,,,,,,,,,,,,,3,2.074,1,,,,,,0.149006212,-0.252860379,1,0,0,2.0735,Diorite_rect,10,0,10,0,1,
607cbf385d3202721e3f719f,SCR,2024-06-25_11h40.20.448,LearnStrategy,2023.2.3,MacIntel,60.24096386,6,2,12,,,,,,,,7,10,,,,,,,,,,,,,7,1.314,1,,,,,,0.122818264,-0.395841471,1,0,0,1.3137,Peridotite_rect,11,0,11,0,1,
607cbf385d3202721e3f719f,SCR,2024-06-25_11h40.20.448,LearnStrategy,2023.2.3,MacIntel,60.24096386,6,2,13,,,,,,,,5,07,,,,,,,,,,,,,5,1.376,1,,,,,,-0.406863403,-0.395274455,1,0,0,1.3763,Obsidian_rect,12,0,12,0,1,
607cbf385d3202721e3f719f,SCR,2024-06-25_11h40.20.448,LearnStrategy,2023.2.3,MacIntel,60.24096386,6,2,14,,,,,,,,5,11,,,,,,,,,,,,,5,1.122,1,,,,,,-0.433846469,-0.385717773,1,0,0,1.1225,Obsidian_rect,13,0,13,0,1,
607cbf385d3202721e3f719f,SCR,2024-06-25_11h40.20.448,LearnStrategy,2023.2.3,MacIntel,60.24096386,6,2,15,,,,,,,,1,14,,,,,,,,,,,,,1,14.906,1,,,,,,-0.383334791,-0.263733249,1,0,0,14.9056,Andesite_rect,14,0,14,0,1,
607cbf385d3202721e3f719f,SCR,2024-06-25_11h40.20.448,LearnStrategy,2023.2.3,MacIntel,60.24096386,6,2,16,,,,,,,,3,06,,,,,,,,,,,,,3,3.156,1,,,,,,0.125219591,-0.24949212,1,0,0,3.1563,Diorite_rect,15,0,15,0,1,
607cbf385d3202721e3f719f,SCR,2024-06-25_11h40.20.448,LearnStrategy,2023.2.3,MacIntel,60.24096386,7,1,1,-0.223114285,-0.111846585,1,0,0,2.8816,Peridotite_08,7,08,3,3,2.882,7,08,0.111239827,-0.398385552,1,0,0,1.5043,Peridotite_rect,7,1.504,1,0,0,0,0,1,,,,,,,,,,,,,
607cbf385d3202721e3f719f,SCR,2024-06-25_11h40.20.448,LearnStrategy,2023.2.3,MacIntel,60.24096386,7,1,2,-0.075448134,-0.256347249,1,0,0,2.6148,Pegmatite_08,6,08,2,4,2.615,6,08,-0.14464898,-0.392086182,1,0,0,1.8545,Pegmatite_rect,6,1.854,1,1,0,1,0,1,,,,,,,,,,,,,
607cbf385d3202721e3f719f,SCR,2024-06-25_11h40.20.448,LearnStrategy,2023.2.3,MacIntel,60.24096386,7,1,3,-0.403016324,0.419713169,1,0,0,7.3642,Peridotite_12,7,12,6,2,7.364,1,11,0.150785522,-0.401948649,1,0,0,1.9929,Peridotite_rect,7,1.993,1,2,0,2,0,1,,,,,,,,,,,,,
607cbf385d3202721e3f719f,SCR,2024-06-25_11h40.20.448,LearnStrategy,2023.2.3,MacIntel,60.24096386,7,1,4,0.088030396,0.097886726,1,0,0,1.4499,Gabbro_01,4,01,4,5,1.45,2,04,0.401851128,-0.248684557,1,0,0,3.8377,Gabbro_rect,4,3.838,1,3,0,3,0,1,,,,,,,,,,,,,
607cbf385d3202721e3f719f,SCR,2024-06-25_11h40.20.448,LearnStrategy,2023.2.3,MacIntel,60.24096386,7,1,5,-0.06720086,0.257070279,1,0,0,2.1981,Gabbro_13,4,13,5,4,2.198,2,05,0.390315348,-0.239439629,1,0,0,6.9873,Gabbro_rect,4,6.987,1,4,0,4,0,1,,,,,,,,,,,,,
607cbf385d3202721e3f719f,SCR,2024-06-25_11h40.20.448,LearnStrategy,2023.2.3,MacIntel,60.24096386,7,1,6,-0.2277398,0.253455132,1,0,0,3.6981,Basalt_04,2,04,5,3,3.698,8,13,-0.142024197,-0.236900024,1,0,0,1.9818,Basalt_rect,2,1.982,1,5,0,5,0,1,,,,,,,,,,,,,
607cbf385d3202721e3f719f,SCR,2024-06-25_11h40.20.448,LearnStrategy,2023.2.3,MacIntel,60.24096386,7,1,7,0.39733846,-0.267378404,1,0,0,3.5505,Basalt_08,2,08,2,7,3.55,3,12,-0.097071194,-0.245177341,1,0,0,2.4314,Basalt_rect,2,2.431,1,6,0,6,0,1,,,,,,,,,,,,,
607cbf385d3202721e3f719f,SCR,2024-06-25_11h40.20.448,LearnStrategy,2023.2.3,MacIntel,60.24096386,7,1,8,0.551976725,-0.098359104,1,0,0,2.8324,Gabbro_14,4,14,3,8,2.832,8,10,0.395163167,-0.241939087,1,0,0,5.2608,Gabbro_rect,4,5.261,1,7,0,7,0,1,,,,,,,,,,,,,
607cbf385d3202721e3f719f,SCR,2024-06-25_11h40.20.448,LearnStrategy,2023.2.3,MacIntel,60.24096386,7,1,9,0.539466688,0.387653232,1,0,0,5.1994,Andesite_04,1,04,6,8,5.199,2,04,-0.398676385,-0.240660875,1,0,0,1.7491,Andesite_rect,1,1.749,1,8,0,8,0,1,,,,,,,,,,,,,
607cbf385d3202721e3f719f,SCR,2024-06-25_11h40.20.448,LearnStrategy,2023.2.3,MacIntel,60.24096386,7,1,10,0.066655748,0.397186957,1,0,0,2.4323,Andesite_05,1,05,6,5,2.432,1,05,-0.385338609,-0.238642171,1,0,0,1.8487,Andesite_rect,1,1.849,1,9,0,9,0,1,,,,,,,,,,,,,
607cbf385d3202721e3f719f,SCR,2024-06-25_11h40.20.448,LearnStrategy,2023.2.3,MacIntel,60.24096386,7,1,11,-0.555589786,-0.247217,1,0,0,3.2314,Diorite_07,3,07,2,1,3.231,1,11,0.122294922,-0.248678318,1,0,0,1.9917,Diorite_rect,3,1.992,1,10,0,10,0,1,,,,,,,,,,,,,
607cbf385d3202721e3f719f,SCR,2024-06-25_11h40.20.448,LearnStrategy,2023.2.3,MacIntel,60.24096386,7,1,12,-0.37578871,-0.407191908,1,0,0,6.2321,Basalt_14,2,14,1,2,6.232,2,14,-0.123548245,-0.246004367,1,0,0,2.4172,Basalt_rect,2,2.417,1,11,0,11,0,1,,,,,,,,,,,,,
607cbf385d3202721e3f719f,SCR,2024-06-25_11h40.20.448,LearnStrategy,2023.2.3,MacIntel,60.24096386,7,1,13,-0.534488661,0.088614705,1,0,0,1.9315,Gabbro_05,4,05,4,1,1.932,4,05,0.414054226,-0.265035061,1,0,0,3.2934,Gabbro_rect,4,3.293,1,12,0,12,0,1,,,,,,,,,,,,,
607cbf385d3202721e3f719f,SCR,2024-06-25_11h40.20.448,LearnStrategy,2023.2.3,MacIntel,60.24096386,7,1,14,-0.22792806,0.092846951,1,0,0,6.266,Pegmatite_03,6,03,4,3,6.266,5,02,-0.133850911,-0.402581516,1,0,0,1.5463,Pegmatite_rect,6,1.546,1,13,0,13,0,1,,,,,,,,,,,,,
607cbf385d3202721e3f719f,SCR,2024-06-25_11h40.20.448,LearnStrategy,2023.2.3,MacIntel,60.24096386,7,1,15,-0.226545207,-0.116613295,1,0,0,7.2819,Peridotite_08,7,08,3,3,7.282,6,07,0.134190674,-0.384152222,1,0,0,1.9681,Peridotite_rect,7,1.968,1,14,0,14,0,1,,,,,,,,,,,,,
607cbf385d3202721e3f719f,SCR,2024-06-25_11h40.20.448,LearnStrategy,2023.2.3,MacIntel,60.24096386,7,1,16,-0.082141452,0.399953003,1,0,0,9.6813,Andesite_01,1,01,6,4,9.681,7,15,-0.405974121,-0.228448419,1,0,0,2.2152,Andesite_rect,1,2.215,1,15,0,15,0,1,,,,,,,,,,,,,
607cbf385d3202721e3f719f,SCR,2024-06-25_11h40.20.448,LearnStrategy,2023.2.3,MacIntel,60.24096386,7,2,1,,,,,,,,5,14,,,,,,,,,,,,,5,2.906,1,,,,,,-0.397114427,-0.392775133,1,0,0,2.9063,Obsidian_rect,0,0,0,0,1,
607cbf385d3202721e3f719f,SCR,2024-06-25_11h40.20.448,LearnStrategy,2023.2.3,MacIntel,60.24096386,7,2,2,,,,,,,,8,05,,,,,,,,,,,,,8,1.613,1,,,,,,0.40737698,-0.398256972,1,0,0,1.6132,Pumice_rect,1,0,1,0,1,
607cbf385d3202721e3f719f,SCR,2024-06-25_11h40.20.448,LearnStrategy,2023.2.3,MacIntel,60.24096386,7,2,3,,,,,,,,6,16,,,,,,,,,,,,,6,2.475,1,,,,,,-0.125024821,-0.393889025,1,0,0,2.4747,Pegmatite_rect,2,0,2,0,1,
607cbf385d3202721e3f719f,SCR,2024-06-25_11h40.20.448,LearnStrategy,2023.2.3,MacIntel,60.24096386,7,2,4,,,,,,,,5,05,,,,,,,,,,,,,5,2.022,1,,,,,,-0.383700222,-0.399549493,1,0,0,2.0224,Obsidian_rect,3,0,3,0,1,
607cbf385d3202721e3f719f,SCR,2024-06-25_11h40.20.448,LearnStrategy,2023.2.3,MacIntel,60.24096386,7,2,5,,,,,,,,8,04,,,,,,,,,,,,,8,1.944,1,,,,,,0.393218859,-0.397243652,1,0,0,1.9437,Pumice_rect,4,0,4,0,1,
607cbf385d3202721e3f719f,SCR,2024-06-25_11h40.20.448,LearnStrategy,2023.2.3,MacIntel,60.24096386,7,2,6,,,,,,,,4,09,,,,,,,,,,,,,4,9.897,1,,,,,,0.425297309,-0.253819648,1,0,0,9.8965,Gabbro_rect,5,0,5,0,1,
607cbf385d3202721e3f719f,SCR,2024-06-25_11h40.20.448,LearnStrategy,2023.2.3,MacIntel,60.24096386,7,2,7,,,,,,,,3,06,,,,,,,,,,,,,3,1.961,1,,,,,,0.130837402,-0.24648329,1,0,0,1.9609,Diorite_rect,6,0,6,0,1,
607cbf385d3202721e3f719f,SCR,2024-06-25_11h40.20.448,LearnStrategy,2023.2.3,MacIntel,60.24096386,7,2,8,,,,,,,,7,02,,,,,,,,,,,,,7,1.359,1,,,,,,0.119580078,-0.401000773,1,0,0,1.3593,Peridotite_rect,7,0,7,0,1,
607cbf385d3202721e3f719f,SCR,2024-06-25_11h40.20.448,LearnStrategy,2023.2.3,MacIntel,60.24096386,7,2,9,,,,,,,,6,06,,,,,,,,,,,,,6,4.593,1,,,,,,-0.126164686,-0.407267388,1,0,0,4.5935,Pegmatite_rect,8,0,8,0,1,
607cbf385d3202721e3f719f,SCR,2024-06-25_11h40.20.448,LearnStrategy,2023.2.3,MacIntel,60.24096386,7,2,10,,,,,,,,3,15,,,,,,,,,,,,,3,17.684,1,,,,,,0.111589898,-0.259057888,1,0,0,17.6835,Diorite_rect,9,0,9,0,1,
607cbf385d3202721e3f719f,SCR,2024-06-25_11h40.20.448,LearnStrategy,2023.2.3,MacIntel,60.24096386,7,2,11,,,,,,,,7,04,,,,,,,,,,,,,7,6.991,1,,,,,,0.086997138,-0.40393141,1,0,0,6.9913,Peridotite_rect,10,0,10,0,1,
607cbf385d3202721e3f719f,SCR,2024-06-25_11h40.20.448,LearnStrategy,2023.2.3,MacIntel,60.24096386,7,2,12,,,,,,,,1,07,,,,,,,,,,,,,1,1.55,1,,,,,,-0.364765828,-0.250787014,1,0,0,1.5504,Andesite_rect,11,0,11,0,1,
607cbf385d3202721e3f719f,SCR,2024-06-25_11h40.20.448,LearnStrategy,2023.2.3,MacIntel,60.24096386,7,2,13,,,,,,,,2,02,,,,,,,,,,,,,2,1.259,1,,,,,,-0.163285658,-0.238667196,1,0,0,1.2591,Basalt_rect,12,0,12,0,1,
607cbf385d3202721e3f719f,SCR,2024-06-25_11h40.20.448,LearnStrategy,2023.2.3,MacIntel,60.24096386,7,2,14,,,,,,,,2,09,,,,,,,,,,,,,2,1.825,1,,,,,,-0.149311659,-0.24691413,1,0,0,1.8255,Basalt_rect,13,0,13,0,1,
607cbf385d3202721e3f719f,SCR,2024-06-25_11h40.20.448,LearnStrategy,2023.2.3,MacIntel,60.24096386,7,2,15,,,,,,,,1,10,,,,,,,,,,,,,4,8.025,0,,,,,,0.373140462,-0.245550469,1,0,0,8.0251,Gabbro_rect,14,0,14,0,1,
607cbf385d3202721e3f719f,SCR,2024-06-25_11h40.20.448,LearnStrategy,2023.2.3,MacIntel,60.24096386,7,2,16,,,,,,,,4,08,,,,,,,,,,,,,4,6.393,1,,,,,,0.347698296,-0.239806112,1,0,0,6.3932,Gabbro_rect,15,0,15,0,1,
607cbf385d3202721e3f719f,SCR,2024-06-25_11h40.20.448,LearnStrategy,2023.2.3,MacIntel,60.24096386,8,1,1,0.226510824,0.255380622,1,0,0,9.3311,Diorite_11,3,11,5,6,9.331,3,11,0.112835558,-0.240923055,1,0,0,2.7987,Diorite_rect,3,2.799,1,0,0,0,0,1,,,,,,,,,,,,,
607cbf385d3202721e3f719f,SCR,2024-06-25_11h40.20.448,LearnStrategy,2023.2.3,MacIntel,60.24096386,8,1,2,-0.230918104,-0.2556073,1,0,0,2.297,Peridotite_14,7,14,2,3,2.297,7,14,0.148383721,-0.399462416,1,0,0,3.8331,Peridotite_rect,7,3.833,1,1,0,1,0,1,,,,,,,,,,,,,
607cbf385d3202721e3f719f,SCR,2024-06-25_11h40.20.448,LearnStrategy,2023.2.3,MacIntel,60.24096386,8,1,3,-0.220246921,-0.105731133,1,0,0,1.9646,Peridotite_08,7,08,3,3,1.965,7,08,0.117036879,-0.406266683,1,0,0,1.7139,Peridotite_rect,7,1.714,1,2,0,2,0,1,,,,,,,,,,,,,
607cbf385d3202721e3f719f,SCR,2024-06-25_11h40.20.448,LearnStrategy,2023.2.3,MacIntel,60.24096386,8,1,4,-0.068110148,-0.379926758,1,0,0,1.9323,Andesite_03,1,03,1,4,1.932,1,03,-0.388760071,-0.247788425,1,0,0,3.5862,Andesite_rect,1,3.586,1,3,0,3,0,1,,,,,,,,,,,,,
607cbf385d3202721e3f719f,SCR,2024-06-25_11h40.20.448,LearnStrategy,2023.2.3,MacIntel,60.24096386,8,1,5,0.251964315,-0.256243286,1,0,0,1.6309,Basalt_05,2,05,2,6,1.631,2,05,-0.139237942,-0.238495348,1,0,0,3.2094,Basalt_rect,2,3.209,1,4,0,4,0,1,,,,,,,,,,,,,
607cbf385d3202721e3f719f,SCR,2024-06-25_11h40.20.448,LearnStrategy,2023.2.3,MacIntel,60.24096386,8,1,6,0.568542616,-0.257829929,1,0,0,1.9709,Pumice_13,8,13,2,8,1.971,8,13,0.398871663,-0.385728014,1,0,0,3.6026,Pumice_rect,8,3.603,1,5,0,5,0,1,,,,,,,,,,,,,
607cbf385d3202721e3f719f,SCR,2024-06-25_11h40.20.448,LearnStrategy,2023.2.3,MacIntel,60.24096386,8,1,7,-0.559523909,-0.418978339,1,0,0,1.8326,Andesite_11,1,11,1,1,1.833,1,11,-0.399865417,-0.251447347,1,0,0,2.1915,Andesite_rect,1,2.191,1,6,0,6,0,1,,,,,,,,,,,,,
607cbf385d3202721e3f719f,SCR,2024-06-25_11h40.20.448,LearnStrategy,2023.2.3,MacIntel,60.24096386,8,1,8,-0.074474894,0.082589823,1,0,0,1.8987,Pumice_16,8,16,4,4,1.899,8,16,0.423887533,-0.393473782,1,0,0,1.46,Pumice_rect,8,1.46,1,7,0,7,0,1,,,,,,,,,,,,,
607cbf385d3202721e3f719f,SCR,2024-06-25_11h40.20.448,LearnStrategy,2023.2.3,MacIntel,60.24096386,8,1,9,0.543140191,0.257867533,1,0,0,3.631,Basalt_06,2,06,5,8,3.631,5,02,-0.130371772,-0.243533325,1,0,0,2.3521,Basalt_rect,2,2.352,1,8,0,8,0,1,,,,,,,,,,,,,
607cbf385d3202721e3f719f,SCR,2024-06-25_11h40.20.448,LearnStrategy,2023.2.3,MacIntel,60.24096386,8,1,10,0.079859077,-0.255904744,1,0,0,2.2327,Pegmatite_15,6,15,2,5,2.233,6,15,-0.137473755,-0.392580973,1,0,0,2.958,Pegmatite_rect,6,2.958,1,9,0,9,0,1,,,,,,,,,,,,,
607cbf385d3202721e3f719f,SCR,2024-06-25_11h40.20.448,LearnStrategy,2023.2.3,MacIntel,60.24096386,8,1,11,-0.233130561,0.413315786,1,0,0,6.6313,Pumice_02,8,02,6,3,6.631,2,04,0.382912462,-0.39349528,1,0,0,2.2832,Pumice_rect,8,2.283,1,10,0,10,0,1,,,,,,,,,,,,,
607cbf385d3202721e3f719f,SCR,2024-06-25_11h40.20.448,LearnStrategy,2023.2.3,MacIntel,60.24096386,8,1,12,-0.233229472,-0.399162598,1,0,0,2.1651,Gabbro_16,4,16,1,3,2.165,4,16,0.406941189,-0.249419217,1,0,0,3.1246,Gabbro_rect,4,3.125,1,11,0,11,0,1,,,,,,,,,,,,,
607cbf385d3202721e3f719f,SCR,2024-06-25_11h40.20.448,LearnStrategy,2023.2.3,MacIntel,60.24096386,8,1,13,-0.072540012,-0.422310588,1,0,0,2.3648,Andesite_03,1,03,1,4,2.365,1,03,-0.339550578,-0.238687676,1,0,0,1.3934,Andesite_rect,1,1.393,1,12,0,12,0,1,,,,,,,,,,,,,
607cbf385d3202721e3f719f,SCR,2024-06-25_11h40.20.448,LearnStrategy,2023.2.3,MacIntel,60.24096386,8,1,14,-0.39271681,-0.405402086,1,0,0,8.3046,Basalt_14,2,14,1,2,8.305,2,14,-0.140148587,-0.234549425,1,0,0,13.134,Basalt_rect,2,13.134,1,13,0,13,0,1,,,,,,,,,,,,,
607cbf385d3202721e3f719f,SCR,2024-06-25_11h40.20.448,LearnStrategy,2023.2.3,MacIntel,60.24096386,8,1,15,0.068627794,0.417495168,1,0,0,3.3176,Andesite_05,1,05,6,5,3.318,1,05,-0.372564324,-0.243410577,1,0,0,2.4536,Andesite_rect,1,2.454,1,14,0,14,0,1,,,,,,,,,,,,,
607cbf385d3202721e3f719f,SCR,2024-06-25_11h40.20.448,LearnStrategy,2023.2.3,MacIntel,60.24096386,8,1,16,-0.398506978,-0.103123169,1,0,0,6.0326,Diorite_09,3,09,3,2,6.033,6,08,0.108860609,-0.246154446,1,0,0,1.5704,Diorite_rect,3,1.57,1,15,0,15,0,1,,,,,,,,,,,,,
607cbf385d3202721e3f719f,SCR,2024-06-25_11h40.20.448,LearnStrategy,2023.2.3,MacIntel,60.24096386,8,2,1,,,,,,,,4,15,,,,,,,,,,,,,4,4.01,1,,,,,,0.397659776,-0.239443088,1,0,0,4.0101,Gabbro_rect,0,0,0,0,1,
607cbf385d3202721e3f719f,SCR,2024-06-25_11h40.20.448,LearnStrategy,2023.2.3,MacIntel,60.24096386,8,2,2,,,,,,,,1,02,,,,,,,,,,,,,6,8.218,0,,,,,,-0.14670634,-0.399894748,1,0,0,8.2181,Pegmatite_rect,1,0,1,0,1,
607cbf385d3202721e3f719f,SCR,2024-06-25_11h40.20.448,LearnStrategy,2023.2.3,MacIntel,60.24096386,8,2,3,,,,,,,,8,08,,,,,,,,,,,,,8,2.162,1,,,,,,0.400596381,-0.391935493,1,0,0,2.1618,Pumice_rect,2,0,2,0,1,
607cbf385d3202721e3f719f,SCR,2024-06-25_11h40.20.448,LearnStrategy,2023.2.3,MacIntel,60.24096386,8,2,4,,,,,,,,6,11,,,,,,,,,,,,,6,4.545,1,,,,,,-0.137544013,-0.411074219,1,0,0,4.5453,Pegmatite_rect,3,0,3,0,1,
607cbf385d3202721e3f719f,SCR,2024-06-25_11h40.20.448,LearnStrategy,2023.2.3,MacIntel,60.24096386,8,2,5,,,,,,,,7,05,,,,,,,,,,,,,7,29.285,1,,,,,,0.133612739,-0.386747437,1,0,0,29.2845,Peridotite_rect,4,0,4,0,1,
607cbf385d3202721e3f719f,SCR,2024-06-25_11h40.20.448,LearnStrategy,2023.2.3,MacIntel,60.24096386,8,2,6,,,,,,,,4,11,,,,,,,,,,,,,4,5.449,1,,,,,,0.381499973,-0.260079142,1,0,0,5.4489,Gabbro_rect,5,0,5,0,1,
607cbf385d3202721e3f719f,SCR,2024-06-25_11h40.20.448,LearnStrategy,2023.2.3,MacIntel,60.24096386,8,2,7,,,,,,,,3,14,,,,,,,,,,,,,3,4.449,1,,,,,,0.166573215,-0.237407159,1,0,0,4.4487,Diorite_rect,6,0,6,0,1,
607cbf385d3202721e3f719f,SCR,2024-06-25_11h40.20.448,LearnStrategy,2023.2.3,MacIntel,60.24096386,8,2,8,,,,,,,,2,16,,,,,,,,,,,,,2,10.664,1,,,,,,-0.128000014,-0.25086358,1,0,0,10.6638,Basalt_rect,7,0,7,0,1,
607cbf385d3202721e3f719f,SCR,2024-06-25_11h40.20.448,LearnStrategy,2023.2.3,MacIntel,60.24096386,8,2,9,,,,,,,,8,09,,,,,,,,,,,,,8,1.594,1,,,,,,0.373318685,-0.401616279,1,0,0,1.5942,Pumice_rect,8,0,8,0,1,
607cbf385d3202721e3f719f,SCR,2024-06-25_11h40.20.448,LearnStrategy,2023.2.3,MacIntel,60.24096386,8,2,10,,,,,,,,3,13,,,,,,,,,,,,,3,1.755,1,,,,,,0.126974487,-0.253342963,1,0,0,1.7548,Diorite_rect,9,0,9,0,1,
607cbf385d3202721e3f719f,SCR,2024-06-25_11h40.20.448,LearnStrategy,2023.2.3,MacIntel,60.24096386,8,2,11,,,,,,,,5,11,,,,,,,,,,,,,5,1.326,1,,,,,,-0.421674669,-0.385675524,1,0,0,1.3256,Obsidian_rect,10,0,10,0,1,
607cbf385d3202721e3f719f,SCR,2024-06-25_11h40.20.448,LearnStrategy,2023.2.3,MacIntel,60.24096386,8,2,12,,,,,,,,2,12,,,,,,,,,,,,,8,2.155,0,,,,,,0.426149495,-0.397680461,1,0,0,2.1553,Pumice_rect,11,0,11,0,1,
607cbf385d3202721e3f719f,SCR,2024-06-25_11h40.20.448,LearnStrategy,2023.2.3,MacIntel,60.24096386,8,2,13,,,,,,,,7,10,,,,,,,,,,,,,7,1.429,1,,,,,,0.176704169,-0.396185845,1,0,0,1.429,Peridotite_rect,12,0,12,0,1,
607cbf385d3202721e3f719f,SCR,2024-06-25_11h40.20.448,LearnStrategy,2023.2.3,MacIntel,60.24096386,8,2,14,,,,,,,,6,12,,,,,,,,,,,,,6,1.787,1,,,,,,-0.143322279,-0.395824856,1,0,0,1.7871,Pegmatite_rect,13,0,13,0,1,
607cbf385d3202721e3f719f,SCR,2024-06-25_11h40.20.448,LearnStrategy,2023.2.3,MacIntel,60.24096386,8,2,15,,,,,,,,5,06,,,,,,,,,,,,,5,1.157,1,,,,,,-0.372363112,-0.393937107,1,0,0,1.1574,Obsidian_rect,14,0,14,0,1,
607cbf385d3202721e3f719f,SCR,2024-06-25_11h40.20.448,LearnStrategy,2023.2.3,MacIntel,60.24096386,8,2,16,,,,,,,,1,06,,,,,,,,,,,,,1,1.489,1,,,,,,-0.400672438,-0.25302714,1,0,0,1.489,Andesite_rect,15,0,15,0,1,
607cbf385d3202721e3f719f,SCR,2024-06-25_11h40.20.448,LearnStrategy,2023.2.3,MacIntel,60.24096386,9,1,1,-0.54744244,0.236586778,1,0,0,2.4646,Pumice_03,8,03,5,1,2.465,8,03,0.451301405,-0.397281698,1,0,0,2.7549,Pumice_rect,8,2.755,1,0,0,0,0,1,,,,,,,,,,,,,
607cbf385d3202721e3f719f,SCR,2024-06-25_11h40.20.448,LearnStrategy,2023.2.3,MacIntel,60.24096386,9,1,2,0.077897203,-0.269835815,1,0,0,2.0476,Pegmatite_15,6,15,2,5,2.048,6,15,-0.129350179,-0.402134806,1,0,0,1.7902,Pegmatite_rect,6,1.79,1,1,0,1,0,1,,,,,,,,,,,,,
607cbf385d3202721e3f719f,SCR,2024-06-25_11h40.20.448,LearnStrategy,2023.2.3,MacIntel,60.24096386,9,1,3,0.382714437,0.241286214,1,0,0,2.0827,Basalt_10,2,10,5,7,2.083,2,10,-0.148163656,-0.248531698,1,0,0,3.4924,Basalt_rect,2,3.492,1,2,0,2,0,1,,,,,,,,,,,,,
607cbf385d3202721e3f719f,SCR,2024-06-25_11h40.20.448,LearnStrategy,2023.2.3,MacIntel,60.24096386,9,1,4,0.229891493,-0.24920973,1,0,0,1.5644,Basalt_05,2,05,2,6,1.564,2,05,-0.110070462,-0.246115384,1,0,0,2.1547,Basalt_rect,2,2.155,1,3,0,3,0,1,,,,,,,,,,,,,
607cbf385d3202721e3f719f,SCR,2024-06-25_11h40.20.448,LearnStrategy,2023.2.3,MacIntel,60.24096386,9,1,5,-0.399299418,-0.265262248,1,0,0,1.665,Andesite_09,1,09,2,2,1.665,1,09,-0.383784214,-0.24465705,1,0,0,3.3209,Andesite_rect,1,3.321,1,4,0,4,0,1,,,,,,,,,,,,,
607cbf385d3202721e3f719f,SCR,2024-06-25_11h40.20.448,LearnStrategy,2023.2.3,MacIntel,60.24096386,9,1,6,-0.05980367,0.402314741,1,0,0,1.6824,Andesite_01,1,01,6,4,1.682,1,01,-0.39120541,-0.246033122,1,0,0,1.8015,Andesite_rect,1,1.802,1,5,0,5,0,1,,,,,,,,,,,,,
607cbf385d3202721e3f719f,SCR,2024-06-25_11h40.20.448,LearnStrategy,2023.2.3,MacIntel,60.24096386,9,1,7,-0.382059631,-0.226246677,1,0,0,1.3822,Andesite_09,1,09,2,2,1.382,1,09,-0.398937276,-0.243800591,1,0,0,1.6216,Andesite_rect,1,1.622,1,6,0,6,0,1,,,,,,,,,,,,,
607cbf385d3202721e3f719f,SCR,2024-06-25_11h40.20.448,LearnStrategy,2023.2.3,MacIntel,60.24096386,9,1,8,-0.394105225,-0.411900431,1,0,0,1.5819,Basalt_14,2,14,1,2,1.582,2,14,-0.133589071,-0.242889743,1,0,0,2.9557,Basalt_rect,2,2.956,1,7,0,7,0,1,,,,,,,,,,,,,
607cbf385d3202721e3f719f,SCR,2024-06-25_11h40.20.448,LearnStrategy,2023.2.3,MacIntel,60.24096386,9,1,9,0.551442735,-0.384535726,1,0,0,2.1991,Pegmatite_10,6,10,1,8,2.199,6,10,0.142767673,-0.401338908,1,0,0,1.0901,Peridotite_rect,7,1.09,0,8,0,8,0,1,,,,,,,,,,,,,
607cbf385d3202721e3f719f,SCR,2024-06-25_11h40.20.448,LearnStrategy,2023.2.3,MacIntel,60.24096386,9,1,10,0.231089545,0.240674811,1,0,0,2.4495,Diorite_11,3,11,5,6,2.45,3,11,0.120614081,-0.233160333,1,0,0,1.5771,Diorite_rect,3,1.577,1,9,0,9,0,1,,,,,,,,,,,,,
607cbf385d3202721e3f719f,SCR,2024-06-25_11h40.20.448,LearnStrategy,2023.2.3,MacIntel,60.24096386,9,1,11,0.226991713,-0.111420559,1,0,0,8.016,Obsidian_04,5,04,3,6,8.016,5,04,-0.422527907,-0.410648397,1,0,0,1.3644,Obsidian_rect,5,1.364,1,10,0,10,0,1,,,,,,,,,,,,,
607cbf385d3202721e3f719f,SCR,2024-06-25_11h40.20.448,LearnStrategy,2023.2.3,MacIntel,60.24096386,9,1,12,-0.377700094,0.252237295,1,0,0,1.7637,Peridotite_16,7,16,5,2,1.764,7,16,0.118076511,-0.39761712,1,0,0,1.5882,Peridotite_rect,7,1.588,1,11,0,11,0,1,,,,,,,,,,,,,
607cbf385d3202721e3f719f,SCR,2024-06-25_11h40.20.448,LearnStrategy,2023.2.3,MacIntel,60.24096386,9,1,13,0.53053616,0.413719889,1,0,0,2.7828,Andesite_04,1,04,6,8,2.783,1,04,-0.410704922,-0.251499566,1,0,0,3.6903,Andesite_rect,1,3.69,1,12,0,12,0,1,,,,,,,,,,,,,
607cbf385d3202721e3f719f,SCR,2024-06-25_11h40.20.448,LearnStrategy,2023.2.3,MacIntel,60.24096386,9,1,14,0.553277181,0.100755039,1,0,0,3.6823,Pumice_10,8,10,4,8,3.682,2,06,0.380089383,-0.395310194,1,0,0,1.5119,Pumice_rect,8,1.512,1,13,0,13,0,1,,,,,,,,,,,,,
607cbf385d3202721e3f719f,SCR,2024-06-25_11h40.20.448,LearnStrategy,2023.2.3,MacIntel,60.24096386,9,1,15,-0.079204848,0.257390849,1,0,0,1.9141,Gabbro_13,4,13,5,4,1.914,4,13,0.41446696,-0.245445014,1,0,0,3.4741,Gabbro_rect,4,3.474,1,14,0,14,0,1,,,,,,,,,,,,,
607cbf385d3202721e3f719f,SCR,2024-06-25_11h40.20.448,LearnStrategy,2023.2.3,MacIntel,60.24096386,9,1,16,-0.075249566,0.086361152,1,0,0,2.0814,Pumice_16,8,16,4,4,2.081,8,16,0.395470649,-0.394230211,1,0,0,1.4104,Pumice_rect,8,1.41,1,15,0,15,0,1,,,,,,,,,,,,,
607cbf385d3202721e3f719f,SCR,2024-06-25_11h40.20.448,LearnStrategy,2023.2.3,MacIntel,60.24096386,9,2,1,,,,,,,,4,10,,,,,,,,,,,,,4,11.977,1,,,,,,0.404952528,-0.244884304,1,0,0,11.9767,Gabbro_rect,0,0,0,0,1,
607cbf385d3202721e3f719f,SCR,2024-06-25_11h40.20.448,LearnStrategy,2023.2.3,MacIntel,60.24096386,9,2,2,,,,,,,,1,14,,,,,,,,,,,,,6,16.7,0,,,,,,-0.131071777,-0.409768473,1,0,0,16.7001,Pegmatite_rect,1,0,1,0,1,
607cbf385d3202721e3f719f,SCR,2024-06-25_11h40.20.448,LearnStrategy,2023.2.3,MacIntel,60.24096386,9,2,3,,,,,,,,3,16,,,,,,,,,,,,,3,4.796,1,,,,,,0.132402683,-0.246999851,1,0,0,4.796,Diorite_rect,2,0,2,0,1,
607cbf385d3202721e3f719f,SCR,2024-06-25_11h40.20.448,LearnStrategy,2023.2.3,MacIntel,60.24096386,9,2,4,,,,,,,,5,07,,,,,,,,,,,,,5,1.353,1,,,,,,-0.422603014,-0.394300401,1,0,0,1.3528,Obsidian_rect,3,0,3,0,1,
607cbf385d3202721e3f719f,SCR,2024-06-25_11h40.20.448,LearnStrategy,2023.2.3,MacIntel,60.24096386,9,2,5,,,,,,,,6,13,,,,,,,,,,,,,6,2.024,1,,,,,,-0.15516961,-0.402999064,1,0,0,2.0236,Pegmatite_rect,4,0,4,0,1,
607cbf385d3202721e3f719f,SCR,2024-06-25_11h40.20.448,LearnStrategy,2023.2.3,MacIntel,60.24096386,9,2,6,,,,,,,,2,11,,,,,,,,,,,,,8,4.383,0,,,,,,0.399682617,-0.399059923,1,0,0,4.3825,Pumice_rect,5,0,5,0,1,
607cbf385d3202721e3f719f,SCR,2024-06-25_11h40.20.448,LearnStrategy,2023.2.3,MacIntel,60.24096386,9,2,7,,,,,,,,7,07,,,,,,,,,,,,,7,1.383,1,,,,,,0.151856622,-0.390158895,1,0,0,1.3826,Peridotite_rect,6,0,6,0,1,
607cbf385d3202721e3f719f,SCR,2024-06-25_11h40.20.448,LearnStrategy,2023.2.3,MacIntel,60.24096386,9,2,8,,,,,,,,6,09,,,,,,,,,,,,,6,11.338,1,,,,,,-0.098312514,-0.400417548,1,0,0,11.3382,Pegmatite_rect,7,0,7,0,1,
607cbf385d3202721e3f719f,SCR,2024-06-25_11h40.20.448,LearnStrategy,2023.2.3,MacIntel,60.24096386,9,2,9,,,,,,,,8,06,,,,,,,,,,,,,8,1.765,1,,,,,,0.392026774,-0.401397976,1,0,0,1.7651,Pumice_rect,8,0,8,0,1,
607cbf385d3202721e3f719f,SCR,2024-06-25_11h40.20.448,LearnStrategy,2023.2.3,MacIntel,60.24096386,9,2,10,,,,,,,,4,12,,,,,,,,,,,,,4,2.376,1,,,,,,0.377823215,-0.241656359,1,0,0,2.3762,Gabbro_rect,9,0,9,0,1,
607cbf385d3202721e3f719f,SCR,2024-06-25_11h40.20.448,LearnStrategy,2023.2.3,MacIntel,60.24096386,9,2,11,,,,,,,,1,16,,,,,,,,,,,,,1,3.638,1,,,,,,-0.407045627,-0.238425632,1,0,0,3.6383,Andesite_rect,10,0,10,0,1,
607cbf385d3202721e3f719f,SCR,2024-06-25_11h40.20.448,LearnStrategy,2023.2.3,MacIntel,60.24096386,9,2,12,,,,,,,,3,10,,,,,,,,,,,,,3,3.146,1,,,,,,0.137032945,-0.243193359,1,0,0,3.1461,Diorite_rect,11,0,11,0,1,
607cbf385d3202721e3f719f,SCR,2024-06-25_11h40.20.448,LearnStrategy,2023.2.3,MacIntel,60.24096386,9,2,13,,,,,,,,2,01,,,,,,,,,,,,,2,1.517,1,,,,,,-0.138068712,-0.256372952,1,0,0,1.5167,Basalt_rect,12,0,12,0,1,
607cbf385d3202721e3f719f,SCR,2024-06-25_11h40.20.448,LearnStrategy,2023.2.3,MacIntel,60.24096386,9,2,14,,,,,,,,5,12,,,,,,,,,,,,,5,1.325,1,,,,,,-0.392564528,-0.383839179,1,0,0,1.3252,Obsidian_rect,13,0,13,0,1,
607cbf385d3202721e3f719f,SCR,2024-06-25_11h40.20.448,LearnStrategy,2023.2.3,MacIntel,60.24096386,9,2,15,,,,,,,,8,15,,,,,,,,,,,,,8,13.172,1,,,,,,0.3700845,-0.405730794,1,0,0,13.1725,Pumice_rect,14,0,14,0,1,
607cbf385d3202721e3f719f,SCR,2024-06-25_11h40.20.448,LearnStrategy,2023.2.3,MacIntel,60.24096386,9,2,16,,,,,,,,7,06,,,,,,,,,,,,,7,15.463,1,,,,,,0.12570204,-0.394888713,1,0,0,15.4631,Peridotite_rect,15,0,15,0,1,
607cbf385d3202721e3f719f,SCR,2024-06-25_11h40.20.448,LearnStrategy,2023.2.3,MacIntel,60.24096386,,,,,,,,,,,,,,,,,,,,,,,,,,,,,,,,,,,,,,,,,,,,,1
607cbf385d3202721e3f719f,SCR,2024-06-25_11h40.20.448,LearnStrategy,2023.2.3,MacIntel,60.24096386,,,,,,,,,,,,,,,,,,,,,,,,,,,,,,,,,,,,,,,,,,,,,
607cbf385d3202721e3f719f,SCR,2024-06-25_11h40.20.448,LearnStrategy,2023.2.3,MacIntel,60.24096386,,,,,,,,,,,1,11,1,1,,,,,,,,,,,,,,,,,,,,,,,,,,,,,,,
607cbf385d3202721e3f719f,SCR,2024-06-25_11h40.20.448,LearnStrategy,2023.2.3,MacIntel,60.24096386,,,,,,,,,,,2,14,1,2,,,,,,,,,,,,,,,,,,,,,,,,,,,,,,,
607cbf385d3202721e3f719f,SCR,2024-06-25_11h40.20.448,LearnStrategy,2023.2.3,MacIntel,60.24096386,,,,,,,,,,,4,16,1,3,,,,,,,,,,,,,,,,,,,,,,,,,,,,,,,
607cbf385d3202721e3f719f,SCR,2024-06-25_11h40.20.448,LearnStrategy,2023.2.3,MacIntel,60.24096386,,,,,,,,,,,1,03,1,4,,,,,,,,,,,,,,,,,,,,,,,,,,,,,,,
607cbf385d3202721e3f719f,SCR,2024-06-25_11h40.20.448,LearnStrategy,2023.2.3,MacIntel,60.24096386,,,,,,,,,,,3,12,1,5,,,,,,,,,,,,,,,,,,,,,,,,,,,,,,,
607cbf385d3202721e3f719f,SCR,2024-06-25_11h40.20.448,LearnStrategy,2023.2.3,MacIntel,60.24096386,,,,,,,,,,,5,08,1,6,,,,,,,,,,,,,,,,,,,,,,,,,,,,,,,
607cbf385d3202721e3f719f,SCR,2024-06-25_11h40.20.448,LearnStrategy,2023.2.3,MacIntel,60.24096386,,,,,,,,,,,6,07,1,7,,,,,,,,,,,,,,,,,,,,,,,,,,,,,,,
607cbf385d3202721e3f719f,SCR,2024-06-25_11h40.20.448,LearnStrategy,2023.2.3,MacIntel,60.24096386,,,,,,,,,,,6,10,1,8,,,,,,,,,,,,,,,,,,,,,,,,,,,,,,,
607cbf385d3202721e3f719f,SCR,2024-06-25_11h40.20.448,LearnStrategy,2023.2.3,MacIntel,60.24096386,,,,,,,,,,,3,07,2,1,,,,,,,,,,,,,,,,,,,,,,,,,,,,,,,
607cbf385d3202721e3f719f,SCR,2024-06-25_11h40.20.448,LearnStrategy,2023.2.3,MacIntel,60.24096386,,,,,,,,,,,1,09,2,2,,,,,,,,,,,,,,,,,,,,,,,,,,,,,,,
607cbf385d3202721e3f719f,SCR,2024-06-25_11h40.20.448,LearnStrategy,2023.2.3,MacIntel,60.24096386,,,,,,,,,,,7,14,2,3,,,,,,,,,,,,,,,,,,,,,,,,,,,,,,,
607cbf385d3202721e3f719f,SCR,2024-06-25_11h40.20.448,LearnStrategy,2023.2.3,MacIntel,60.24096386,,,,,,,,,,,6,08,2,4,,,,,,,,,,,,,,,,,,,,,,,,,,,,,,,
607cbf385d3202721e3f719f,SCR,2024-06-25_11h40.20.448,LearnStrategy,2023.2.3,MacIntel,60.24096386,,,,,,,,,,,6,15,2,5,,,,,,,,,,,,,,,,,,,,,,,,,,,,,,,
607cbf385d3202721e3f719f,SCR,2024-06-25_11h40.20.448,LearnStrategy,2023.2.3,MacIntel,60.24096386,,,,,,,,,,,2,05,2,6,,,,,,,,,,,,,,,,,,,,,,,,,,,,,,,
607cbf385d3202721e3f719f,SCR,2024-06-25_11h40.20.448,LearnStrategy,2023.2.3,MacIntel,60.24096386,,,,,,,,,,,2,08,2,7,,,,,,,,,,,,,,,,,,,,,,,,,,,,,,,
607cbf385d3202721e3f719f,SCR,2024-06-25_11h40.20.448,LearnStrategy,2023.2.3,MacIntel,60.24096386,,,,,,,,,,,8,13,2,8,,,,,,,,,,,,,,,,,,,,,,,,,,,,,,,
607cbf385d3202721e3f719f,SCR,2024-06-25_11h40.20.448,LearnStrategy,2023.2.3,MacIntel,60.24096386,,,,,,,,,,,7,13,3,1,,,,,,,,,,,,,,,,,,,,,,,,,,,,,,,
607cbf385d3202721e3f719f,SCR,2024-06-25_11h40.20.448,LearnStrategy,2023.2.3,MacIntel,60.24096386,,,,,,,,,,,3,09,3,2,,,,,,,,,,,,,,,,,,,,,,,,,,,,,,,
607cbf385d3202721e3f719f,SCR,2024-06-25_11h40.20.448,LearnStrategy,2023.2.3,MacIntel,60.24096386,,,,,,,,,,,7,08,3,3,,,,,,,,,,,,,,,,,,,,,,,,,,,,,,,
607cbf385d3202721e3f719f,SCR,2024-06-25_11h40.20.448,LearnStrategy,2023.2.3,MacIntel,60.24096386,,,,,,,,,,,6,05,3,4,,,,,,,,,,,,,,,,,,,,,,,,,,,,,,,
607cbf385d3202721e3f719f,SCR,2024-06-25_11h40.20.448,LearnStrategy,2023.2.3,MacIntel,60.24096386,,,,,,,,,,,8,14,3,5,,,,,,,,,,,,,,,,,,,,,,,,,,,,,,,
607cbf385d3202721e3f719f,SCR,2024-06-25_11h40.20.448,LearnStrategy,2023.2.3,MacIntel,60.24096386,,,,,,,,,,,5,04,3,6,,,,,,,,,,,,,,,,,,,,,,,,,,,,,,,
607cbf385d3202721e3f719f,SCR,2024-06-25_11h40.20.448,LearnStrategy,2023.2.3,MacIntel,60.24096386,,,,,,,,,,,5,16,3,7,,,,,,,,,,,,,,,,,,,,,,,,,,,,,,,
607cbf385d3202721e3f719f,SCR,2024-06-25_11h40.20.448,LearnStrategy,2023.2.3,MacIntel,60.24096386,,,,,,,,,,,4,14,3,8,,,,,,,,,,,,,,,,,,,,,,,,,,,,,,,
607cbf385d3202721e3f719f,SCR,2024-06-25_11h40.20.448,LearnStrategy,2023.2.3,MacIntel,60.24096386,,,,,,,,,,,4,05,4,1,,,,,,,,,,,,,,,,,,,,,,,,,,,,,,,
607cbf385d3202721e3f719f,SCR,2024-06-25_11h40.20.448,LearnStrategy,2023.2.3,MacIntel,60.24096386,,,,,,,,,,,5,09,4,2,,,,,,,,,,,,,,,,,,,,,,,,,,,,,,,
607cbf385d3202721e3f719f,SCR,2024-06-25_11h40.20.448,LearnStrategy,2023.2.3,MacIntel,60.24096386,,,,,,,,,,,6,03,4,3,,,,,,,,,,,,,,,,,,,,,,,,,,,,,,,
607cbf385d3202721e3f719f,SCR,2024-06-25_11h40.20.448,LearnStrategy,2023.2.3,MacIntel,60.24096386,,,,,,,,,,,8,16,4,4,,,,,,,,,,,,,,,,,,,,,,,,,,,,,,,
607cbf385d3202721e3f719f,SCR,2024-06-25_11h40.20.448,LearnStrategy,2023.2.3,MacIntel,60.24096386,,,,,,,,,,,4,01,4,5,,,,,,,,,,,,,,,,,,,,,,,,,,,,,,,
607cbf385d3202721e3f719f,SCR,2024-06-25_11h40.20.448,LearnStrategy,2023.2.3,MacIntel,60.24096386,,,,,,,,,,,4,03,4,6,,,,,,,,,,,,,,,,,,,,,,,,,,,,,,,
607cbf385d3202721e3f719f,SCR,2024-06-25_11h40.20.448,LearnStrategy,2023.2.3,MacIntel,60.24096386,,,,,,,,,,,5,02,4,7,,,,,,,,,,,,,,,,,,,,,,,,,,,,,,,
607cbf385d3202721e3f719f,SCR,2024-06-25_11h40.20.448,LearnStrategy,2023.2.3,MacIntel,60.24096386,,,,,,,,,,,8,10,4,8,,,,,,,,,,,,,,,,,,,,,,,,,,,,,,,
607cbf385d3202721e3f719f,SCR,2024-06-25_11h40.20.448,LearnStrategy,2023.2.3,MacIntel,60.24096386,,,,,,,,,,,8,03,5,1,,,,,,,,,,,,,,,,,,,,,,,,,,,,,,,
607cbf385d3202721e3f719f,SCR,2024-06-25_11h40.20.448,LearnStrategy,2023.2.3,MacIntel,60.24096386,,,,,,,,,,,7,16,5,2,,,,,,,,,,,,,,,,,,,,,,,,,,,,,,,
607cbf385d3202721e3f719f,SCR,2024-06-25_11h40.20.448,LearnStrategy,2023.2.3,MacIntel,60.24096386,,,,,,,,,,,2,04,5,3,,,,,,,,,,,,,,,,,,,,,,,,,,,,,,,
607cbf385d3202721e3f719f,SCR,2024-06-25_11h40.20.448,LearnStrategy,2023.2.3,MacIntel,60.24096386,,,,,,,,,,,4,13,5,4,,,,,,,,,,,,,,,,,,,,,,,,,,,,,,,
607cbf385d3202721e3f719f,SCR,2024-06-25_11h40.20.448,LearnStrategy,2023.2.3,MacIntel,60.24096386,,,,,,,,,,,7,15,5,5,,,,,,,,,,,,,,,,,,,,,,,,,,,,,,,
607cbf385d3202721e3f719f,SCR,2024-06-25_11h40.20.448,LearnStrategy,2023.2.3,MacIntel,60.24096386,,,,,,,,,,,3,11,5,6,,,,,,,,,,,,,,,,,,,,,,,,,,,,,,,
607cbf385d3202721e3f719f,SCR,2024-06-25_11h40.20.448,LearnStrategy,2023.2.3,MacIntel,60.24096386,,,,,,,,,,,2,10,5,7,,,,,,,,,,,,,,,,,,,,,,,,,,,,,,,
607cbf385d3202721e3f719f,SCR,2024-06-25_11h40.20.448,LearnStrategy,2023.2.3,MacIntel,60.24096386,,,,,,,,,,,2,06,5,8,,,,,,,,,,,,,,,,,,,,,,,,,,,,,,,
607cbf385d3202721e3f719f,SCR,2024-06-25_11h40.20.448,LearnStrategy,2023.2.3,MacIntel,60.24096386,,,,,,,,,,,3,02,6,1,,,,,,,,,,,,,,,,,,,,,,,,,,,,,,,
607cbf385d3202721e3f719f,SCR,2024-06-25_11h40.20.448,LearnStrategy,2023.2.3,MacIntel,60.24096386,,,,,,,,,,,7,12,6,2,,,,,,,,,,,,,,,,,,,,,,,,,,,,,,,
607cbf385d3202721e3f719f,SCR,2024-06-25_11h40.20.448,LearnStrategy,2023.2.3,MacIntel,60.24096386,,,,,,,,,,,8,02,6,3,,,,,,,,,,,,,,,,,,,,,,,,,,,,,,,
607cbf385d3202721e3f719f,SCR,2024-06-25_11h40.20.448,LearnStrategy,2023.2.3,MacIntel,60.24096386,,,,,,,,,,,1,01,6,4,,,,,,,,,,,,,,,,,,,,,,,,,,,,,,,
607cbf385d3202721e3f719f,SCR,2024-06-25_11h40.20.448,LearnStrategy,2023.2.3,MacIntel,60.24096386,,,,,,,,,,,1,05,6,5,,,,,,,,,,,,,,,,,,,,,,,,,,,,,,,
607cbf385d3202721e3f719f,SCR,2024-06-25_11h40.20.448,LearnStrategy,2023.2.3,MacIntel,60.24096386,,,,,,,,,,,3,08,6,6,,,,,,,,,,,,,,,,,,,,,,,,,,,,,,,
607cbf385d3202721e3f719f,SCR,2024-06-25_11h40.20.448,LearnStrategy,2023.2.3,MacIntel,60.24096386,,,,,,,,,,,5,10,6,7,,,,,,,,,,,,,,,,,,,,,,,,,,,,,,,
607cbf385d3202721e3f719f,SCR,2024-06-25_11h40.20.448,LearnStrategy,2023.2.3,MacIntel,60.24096386,,,,,,,,,,,1,04,6,8,,,,,,,,,,,,,,,,,,,,,,,,,,,,,,,