participant,condition,date,expName,psychopyVersion,OS,frameRate,block,phase,trial,learn_mouse.x,learn_mouse.y,learn_mouse.leftButton,learn_mouse.midButton,learn_mouse.rightButton,learn_mouse.time,learn_mouse.clicked_name,cat,token,row,col,t_select,cat_rec,token_rec,cat_mouse_l.x,cat_mouse_l.y,cat_mouse_l.leftButton,cat_mouse_l.midButton,cat_mouse_l.rightButton,cat_mouse_l.time,cat_mouse_l.clicked_name,resp,t_resp,corr,train_trials.thisRepN,train_trials.thisTrialN,train_trials.thisN,train_trials.thisIndex,train_trials.ran,cat_mouse_t.x,cat_mouse_t.y,cat_mouse_t.leftButton,cat_mouse_t.midButton,cat_mouse_t.rightButton,cat_mouse_t.time,cat_mouse_t.clicked_name,test_trials.thisRepN,test_trials.thisTrialN,test_trials.thisN,test_trials.thisIndex,test_trials.ran,Bonus
60b7d18beb67181cd97d7ac5,SCR,2024-06-26_12h35.04.378,LearnStrategy,2023.2.3,MacIntel,58.82352941,,,,,,,,,,,,,,,,,,,,,,,,,,,,,,,,,,,,,,,,,,,,,
60b7d18beb67181cd97d7ac5,SCR,2024-06-26_12h35.04.378,LearnStrategy,2023.2.3,MacIntel,58.82352941,1,1,1,0.211111111,0.391111111,1,0,0,4.603,Diorite_13,3,13,6,6,4.603,3,16,0.361111111,-0.41,1,0,0,3.514,Pumice_rect,8,3.514,0,0,0,0,0,1,,,,,,,,,,,,,
60b7d18beb67181cd97d7ac5,SCR,2024-06-26_12h35.04.378,LearnStrategy,2023.2.3,MacIntel,58.82352941,1,1,2,-0.096666667,0.237777778,1,0,0,3.11,Andesite_07,1,07,5,4,3.11,1,07,-0.153333333,-0.404444444,1,0,0,6.271,Pegmatite_rect,6,6.271,0,1,0,1,0,1,,,,,,,,,,,,,
60b7d18beb67181cd97d7ac5,SCR,2024-06-26_12h35.04.378,LearnStrategy,2023.2.3,MacIntel,58.82352941,1,1,3,0.532222222,0.077777778,1,0,0,1.766,Pumice_14,8,14,4,8,1.766,8,14,0.414444444,-0.384444444,1,0,0,2.177,Pumice_rect,8,2.177,1,2,0,2,0,1,,,,,,,,,,,,,
60b7d18beb67181cd97d7ac5,SCR,2024-06-26_12h35.04.378,LearnStrategy,2023.2.3,MacIntel,58.82352941,1,1,4,-0.052222222,-0.258888889,1,0,0,3.332,Pumice_05,8,05,2,4,3.332,8,05,-0.053333333,-0.257777778,1,0,0,2.096,Basalt_rect,2,2.096,0,3,0,3,0,1,,,,,,,,,,,,,
60b7d18beb67181cd97d7ac5,SCR,2024-06-26_12h35.04.378,LearnStrategy,2023.2.3,MacIntel,58.82352941,1,1,5,0.073333333,-0.245555556,1,0,0,1.548,Peridotite_10,7,10,2,5,1.548,7,10,-0.338888889,-0.232222222,1,0,0,4.567,Andesite_rect,1,4.567,0,4,0,4,0,1,,,,,,,,,,,,,
60b7d18beb67181cd97d7ac5,SCR,2024-06-26_12h35.04.378,LearnStrategy,2023.2.3,MacIntel,58.82352941,1,1,6,0.252222222,-0.26,1,0,0,1.817,Gabbro_05,4,05,2,6,1.817,4,05,-0.133333333,-0.412222222,1,0,0,5.118,Pegmatite_rect,6,5.118,0,5,0,5,0,1,,,,,,,,,,,,,
60b7d18beb67181cd97d7ac5,SCR,2024-06-26_12h35.04.378,LearnStrategy,2023.2.3,MacIntel,58.82352941,1,1,7,-0.223333333,-0.228888889,1,0,0,1.417,Pegmatite_03,6,03,2,3,1.417,6,03,0.082222222,-0.252222222,1,0,0,3.118,Diorite_rect,3,3.118,0,6,0,6,0,1,,,,,,,,,,,,,
60b7d18beb67181cd97d7ac5,SCR,2024-06-26_12h35.04.378,LearnStrategy,2023.2.3,MacIntel,58.82352941,1,1,8,-0.536666667,-0.071111111,1,0,0,1.453,Pegmatite_05,6,05,3,1,1.453,6,05,-0.416666667,-0.387777778,1,0,0,3.306,Obsidian_rect,5,3.306,0,7,0,7,0,1,,,,,,,,,,,,,
60b7d18beb67181cd97d7ac5,SCR,2024-06-26_12h35.04.378,LearnStrategy,2023.2.3,MacIntel,58.82352941,1,1,9,0.39,-0.111111111,1,0,0,2.029,Obsidian_14,5,14,3,7,2.029,5,14,-0.38,-0.401111111,1,0,0,1.99,Obsidian_rect,5,1.99,1,8,0,8,0,1,,,,,,,,,,,,,
60b7d18beb67181cd97d7ac5,SCR,2024-06-26_12h35.04.378,LearnStrategy,2023.2.3,MacIntel,58.82352941,1,1,10,-0.044444444,0.083333333,1,0,0,1.097,Obsidian_16,5,16,4,4,1.097,5,16,-0.403333333,-0.407777778,1,0,0,1.714,Obsidian_rect,5,1.714,1,9,0,9,0,1,,,,,,,,,,,,,
60b7d18beb67181cd97d7ac5,SCR,2024-06-26_12h35.04.378,LearnStrategy,2023.2.3,MacIntel,58.82352941,1,1,11,0.256666667,0.246666667,1,0,0,1.213,Diorite_02,3,02,5,6,1.213,3,02,0.117777778,-0.405555556,1,0,0,3.145,Peridotite_rect,7,3.145,0,10,0,10,0,1,,,,,,,,,,,,,
60b7d18beb67181cd97d7ac5,SCR,2024-06-26_12h35.04.378,LearnStrategy,2023.2.3,MacIntel,58.82352941,1,1,12,-0.595555556,-0.41,1,0,0,1.464,Basalt_12,2,12,1,1,1.464,2,12,0.117777778,-0.245555556,1,0,0,3.16,Diorite_rect,3,3.16,0,11,0,11,0,1,,,,,,,,,,,,,
60b7d18beb67181cd97d7ac5,SCR,2024-06-26_12h35.04.378,LearnStrategy,2023.2.3,MacIntel,58.82352941,1,1,13,0.537777778,-0.381111111,1,0,0,1.349,Peridotite_12,7,12,1,8,1.349,7,12,-0.112222222,-0.23,1,0,0,4.388,Basalt_rect,2,4.388,0,12,0,12,0,1,,,,,,,,,,,,,
60b7d18beb67181cd97d7ac5,SCR,2024-06-26_12h35.04.378,LearnStrategy,2023.2.3,MacIntel,58.82352941,1,1,14,0.503333333,-0.083333333,1,0,0,1.118,Andesite_14,1,14,3,8,1.118,1,14,0.435555556,-0.242222222,1,0,0,3.099,Gabbro_rect,4,3.099,0,13,0,13,0,1,,,,,,,,,,,,,
60b7d18beb67181cd97d7ac5,SCR,2024-06-26_12h35.04.378,LearnStrategy,2023.2.3,MacIntel,58.82352941,1,1,15,0.385555556,0.42,1,0,0,1.465,Gabbro_15,4,15,6,7,1.465,4,15,-0.408888889,-0.254444444,1,0,0,6.519,Andesite_rect,1,6.519,0,14,0,14,0,1,,,,,,,,,,,,,
60b7d18beb67181cd97d7ac5,SCR,2024-06-26_12h35.04.378,LearnStrategy,2023.2.3,MacIntel,58.82352941,1,1,16,-0.056666667,0.39,1,0,0,1.208,Basalt_04,2,04,6,4,1.208,2,04,-0.396666667,-0.264444444,1,0,0,4.122,Andesite_rect,1,4.122,0,15,0,15,0,1,,,,,,,,,,,,,
60b7d18beb67181cd97d7ac5,SCR,2024-06-26_12h35.04.378,LearnStrategy,2023.2.3,MacIntel,58.82352941,1,2,1,,,,,,,,8,15,,,,,,,,,,,,,2,4.487,0,,,,,,-0.125555556,-0.26,1,0,0,4.487,Basalt_rect,0,0,0,0,1,
60b7d18beb67181cd97d7ac5,SCR,2024-06-26_12h35.04.378,LearnStrategy,2023.2.3,MacIntel,58.82352941,1,2,2,,,,,,,,3,10,,,,,,,,,,,,,3,2.19,1,,,,,,0.122222222,-0.261111111,1,0,0,2.19,Diorite_rect,1,0,1,0,1,
60b7d18beb67181cd97d7ac5,SCR,2024-06-26_12h35.04.378,LearnStrategy,2023.2.3,MacIntel,58.82352941,1,2,3,,,,,,,,6,06,,,,,,,,,,,,,1,2.181,0,,,,,,-0.461111111,-0.244444444,1,0,0,2.181,Andesite_rect,2,0,2,0,1,
60b7d18beb67181cd97d7ac5,SCR,2024-06-26_12h35.04.378,LearnStrategy,2023.2.3,MacIntel,58.82352941,1,2,4,,,,,,,,1,03,,,,,,,,,,,,,3,4.204,0,,,,,,0.125555556,-0.26,1,0,0,4.204,Diorite_rect,3,0,3,0,1,
60b7d18beb67181cd97d7ac5,SCR,2024-06-26_12h35.04.378,LearnStrategy,2023.2.3,MacIntel,58.82352941,1,2,5,,,,,,,,7,06,,,,,,,,,,,,,6,2.114,0,,,,,,-0.097777778,-0.391111111,1,0,0,2.114,Pegmatite_rect,4,0,4,0,1,
60b7d18beb67181cd97d7ac5,SCR,2024-06-26_12h35.04.378,LearnStrategy,2023.2.3,MacIntel,58.82352941,1,2,6,,,,,,,,5,12,,,,,,,,,,,,,5,4.841,1,,,,,,-0.41,-0.393333333,1,0,0,4.841,Obsidian_rect,5,0,5,0,1,
60b7d18beb67181cd97d7ac5,SCR,2024-06-26_12h35.04.378,LearnStrategy,2023.2.3,MacIntel,58.82352941,1,2,7,,,,,,,,2,09,,,,,,,,,,,,,7,4.962,0,,,,,,0.111111111,-0.397777778,1,0,0,4.962,Peridotite_rect,6,0,6,0,1,
60b7d18beb67181cd97d7ac5,SCR,2024-06-26_12h35.04.378,LearnStrategy,2023.2.3,MacIntel,58.82352941,1,2,8,,,,,,,,1,16,,,,,,,,,,,,,6,2.319,0,,,,,,-0.125555556,-0.421111111,1,0,0,2.319,Pegmatite_rect,7,0,7,0,1,
60b7d18beb67181cd97d7ac5,SCR,2024-06-26_12h35.04.378,LearnStrategy,2023.2.3,MacIntel,58.82352941,1,2,9,,,,,,,,6,09,,,,,,,,,,,,,1,2.333,0,,,,,,-0.35,-0.248888889,1,0,0,2.333,Andesite_rect,8,0,8,0,1,
60b7d18beb67181cd97d7ac5,SCR,2024-06-26_12h35.04.378,LearnStrategy,2023.2.3,MacIntel,58.82352941,1,2,10,,,,,,,,3,15,,,,,,,,,,,,,7,2.416,0,,,,,,0.104444444,-0.405555556,1,0,0,2.416,Peridotite_rect,9,0,9,0,1,
60b7d18beb67181cd97d7ac5,SCR,2024-06-26_12h35.04.378,LearnStrategy,2023.2.3,MacIntel,58.82352941,1,2,11,,,,,,,,4,14,,,,,,,,,,,,,7,1.357,0,,,,,,0.104444444,-0.405555556,1,0,0,1.357,Peridotite_rect,10,0,10,0,1,
60b7d18beb67181cd97d7ac5,SCR,2024-06-26_12h35.04.378,LearnStrategy,2023.2.3,MacIntel,58.82352941,1,2,12,,,,,,,,7,07,,,,,,,,,,,,,6,1.187,0,,,,,,-0.11,-0.41,1,0,0,1.187,Pegmatite_rect,11,0,11,0,1,
60b7d18beb67181cd97d7ac5,SCR,2024-06-26_12h35.04.378,LearnStrategy,2023.2.3,MacIntel,58.82352941,1,2,13,,,,,,,,2,08,,,,,,,,,,,,,5,2.712,0,,,,,,-0.368888889,-0.408888889,1,0,0,2.712,Obsidian_rect,12,0,12,0,1,
60b7d18beb67181cd97d7ac5,SCR,2024-06-26_12h35.04.378,LearnStrategy,2023.2.3,MacIntel,58.82352941,1,2,14,,,,,,,,5,02,,,,,,,,,,,,,5,0.922,1,,,,,,-0.376666667,-0.393333333,1,0,0,0.922,Obsidian_rect,13,0,13,0,1,
60b7d18beb67181cd97d7ac5,SCR,2024-06-26_12h35.04.378,LearnStrategy,2023.2.3,MacIntel,58.82352941,1,2,15,,,,,,,,4,08,,,,,,,,,,,,,1,1.747,0,,,,,,-0.421111111,-0.267777778,1,0,0,1.747,Andesite_rect,14,0,14,0,1,
60b7d18beb67181cd97d7ac5,SCR,2024-06-26_12h35.04.378,LearnStrategy,2023.2.3,MacIntel,58.82352941,1,2,16,,,,,,,,8,10,,,,,,,,,,,,,2,1.923,0,,,,,,-0.097777778,-0.248888889,1,0,0,1.923,Basalt_rect,15,0,15,0,1,
60b7d18beb67181cd97d7ac5,SCR,2024-06-26_12h35.04.378,LearnStrategy,2023.2.3,MacIntel,58.82352941,2,1,1,-0.241111111,-0.446666667,1,0,0,2.714,Diorite_08,3,08,1,3,2.714,3,08,-0.356666667,-0.261111111,1,0,0,2.419,Andesite_rect,1,2.419,0,0,0,0,0,1,,,,,,,,,,,,,
60b7d18beb67181cd97d7ac5,SCR,2024-06-26_12h35.04.378,LearnStrategy,2023.2.3,MacIntel,58.82352941,2,1,2,0.534444444,0.405555556,1,0,0,2.302,Pegmatite_15,6,15,6,8,2.302,6,15,-0.373333333,-0.256666667,1,0,0,1.964,Andesite_rect,1,1.964,0,1,0,1,0,1,,,,,,,,,,,,,
60b7d18beb67181cd97d7ac5,SCR,2024-06-26_12h35.04.378,LearnStrategy,2023.2.3,MacIntel,58.82352941,2,1,3,0.071111111,-0.244444444,1,0,0,1.229,Peridotite_10,7,10,2,5,1.229,7,10,0.39,-0.253333333,1,0,0,4.398,Gabbro_rect,4,4.398,0,2,0,2,0,1,,,,,,,,,,,,,
60b7d18beb67181cd97d7ac5,SCR,2024-06-26_12h35.04.378,LearnStrategy,2023.2.3,MacIntel,58.82352941,2,1,4,-0.06,-0.225555556,1,0,0,1.214,Pumice_05,8,05,2,4,1.214,8,05,0.364444444,-0.378888889,1,0,0,5.213,Pumice_rect,8,5.213,1,3,0,3,0,1,,,,,,,,,,,,,
60b7d18beb67181cd97d7ac5,SCR,2024-06-26_12h35.04.378,LearnStrategy,2023.2.3,MacIntel,58.82352941,2,1,5,-0.222222222,0.116666667,1,0,0,1.656,Gabbro_13,4,13,4,3,1.656,4,13,-0.367777778,-0.233333333,1,0,0,4.271,Andesite_rect,1,4.271,0,4,0,4,0,1,,,,,,,,,,,,,
60b7d18beb67181cd97d7ac5,SCR,2024-06-26_12h35.04.378,LearnStrategy,2023.2.3,MacIntel,58.82352941,2,1,6,-0.42,0.258888889,1,0,0,1.144,Andesite_10,1,10,5,2,1.144,1,10,-0.136666667,-0.252222222,1,0,0,3.096,Basalt_rect,2,3.096,0,5,0,5,0,1,,,,,,,,,,,,,
60b7d18beb67181cd97d7ac5,SCR,2024-06-26_12h35.04.378,LearnStrategy,2023.2.3,MacIntel,58.82352941,2,1,7,0.076666667,-0.092222222,1,0,0,0.919,Peridotite_14,7,14,3,5,0.919,7,14,-0.358888889,-0.243333333,1,0,0,2.659,Andesite_rect,1,2.659,0,6,0,6,0,1,,,,,,,,,,,,,
60b7d18beb67181cd97d7ac5,SCR,2024-06-26_12h35.04.378,LearnStrategy,2023.2.3,MacIntel,58.82352941,2,1,8,0.075555556,-0.245555556,1,0,0,0.971,Peridotite_10,7,10,2,5,0.971,7,10,-0.145555556,-0.243333333,1,0,0,2.478,Basalt_rect,2,2.478,0,7,0,7,0,1,,,,,,,,,,,,,
60b7d18beb67181cd97d7ac5,SCR,2024-06-26_12h35.04.378,LearnStrategy,2023.2.3,MacIntel,58.82352941,2,1,9,0.395555556,0.122222222,1,0,0,1.147,Basalt_01,2,01,4,7,1.147,2,01,0.417777778,-0.251111111,1,0,0,1.577,Gabbro_rect,4,1.577,0,8,0,8,0,1,,,,,,,,,,,,,
60b7d18beb67181cd97d7ac5,SCR,2024-06-26_12h35.04.378,LearnStrategy,2023.2.3,MacIntel,58.82352941,2,1,10,-0.376666667,-0.091111111,1,0,0,1.082,Pumice_13,8,13,3,2,1.082,8,13,0.333333333,-0.387777778,1,0,0,2.601,Pumice_rect,8,2.601,1,9,0,9,0,1,,,,,,,,,,,,,
60b7d18beb67181cd97d7ac5,SCR,2024-06-26_12h35.04.378,LearnStrategy,2023.2.3,MacIntel,58.82352941,2,1,11,-0.226666667,-0.267777778,1,0,0,1.149,Pegmatite_03,6,03,2,3,1.149,6,03,0.111111111,-0.251111111,1,0,0,2.036,Diorite_rect,3,2.036,0,10,0,10,0,1,,,,,,,,,,,,,
60b7d18beb67181cd97d7ac5,SCR,2024-06-26_12h35.04.378,LearnStrategy,2023.2.3,MacIntel,58.82352941,2,1,12,-0.546666667,-0.411111111,1,0,0,1.25,Basalt_12,2,12,1,1,1.25,2,12,-0.192222222,-0.238888889,1,0,0,3.39,Basalt_rect,2,3.39,1,11,0,11,0,1,,,,,,,,,,,,,
60b7d18beb67181cd97d7ac5,SCR,2024-06-26_12h35.04.378,LearnStrategy,2023.2.3,MacIntel,58.82352941,2,1,13,0.418888889,-0.246666667,1,0,0,1.319,Gabbro_03,4,03,2,7,1.319,4,03,0.145555556,-0.263333333,1,0,0,2.234,Diorite_rect,3,2.234,0,12,0,12,0,1,,,,,,,,,,,,,
60b7d18beb67181cd97d7ac5,SCR,2024-06-26_12h35.04.378,LearnStrategy,2023.2.3,MacIntel,58.82352941,2,1,14,-0.391111111,0.244444444,1,0,0,1.274,Andesite_10,1,10,5,2,1.274,1,10,0.325555556,-0.255555556,1,0,0,3.331,Gabbro_rect,4,3.331,0,13,0,13,0,1,,,,,,,,,,,,,
60b7d18beb67181cd97d7ac5,SCR,2024-06-26_12h35.04.378,LearnStrategy,2023.2.3,MacIntel,58.82352941,2,1,15,-0.237777778,-0.25,1,0,0,1.167,Pegmatite_03,6,03,2,3,1.167,6,03,-0.358888889,-0.237777778,1,0,0,4.588,Andesite_rect,1,4.588,0,14,0,14,0,1,,,,,,,,,,,,,
60b7d18beb67181cd97d7ac5,SCR,2024-06-26_12h35.04.378,LearnStrategy,2023.2.3,MacIntel,58.82352941,2,1,16,0.535555556,-0.091111111,1,0,0,1.801,Andesite_14,1,14,3,8,1.801,1,14,0.134444444,-0.241111111,1,0,0,1.629,Diorite_rect,3,1.629,0,15,0,15,0,1,,,,,,,,,,,,,
60b7d18beb67181cd97d7ac5,SCR,2024-06-26_12h35.04.378,LearnStrategy,2023.2.3,MacIntel,58.82352941,2,2,1,,,,,,,,4,10,,,,,,,,,,,,,2,2.745,0,,,,,,-0.113333333,-0.235555556,1,0,0,2.745,Basalt_rect,0,0,0,0,1,
60b7d18beb67181cd97d7ac5,SCR,2024-06-26_12h35.04.378,LearnStrategy,2023.2.3,MacIntel,58.82352941,2,2,2,,,,,,,,7,13,,,,,,,,,,,,,1,3.099,0,,,,,,-0.448888889,-0.237777778,1,0,0,3.099,Andesite_rect,1,0,1,0,1,
60b7d18beb67181cd97d7ac5,SCR,2024-06-26_12h35.04.378,LearnStrategy,2023.2.3,MacIntel,58.82352941,2,2,3,,,,,,,,3,11,,,,,,,,,,,,,1,0.892,0,,,,,,-0.434444444,-0.241111111,1,0,0,0.892,Andesite_rect,2,0,2,0,1,
60b7d18beb67181cd97d7ac5,SCR,2024-06-26_12h35.04.378,LearnStrategy,2023.2.3,MacIntel,58.82352941,2,2,4,,,,,,,,6,13,,,,,,,,,,,,,1,1.896,0,,,,,,-0.423333333,-0.241111111,1,0,0,1.896,Andesite_rect,3,0,3,0,1,
60b7d18beb67181cd97d7ac5,SCR,2024-06-26_12h35.04.378,LearnStrategy,2023.2.3,MacIntel,58.82352941,2,2,5,,,,,,,,5,10,,,,,,,,,,,,,6,2.18,0,,,,,,-0.187777778,-0.387777778,1,0,0,2.18,Pegmatite_rect,4,0,4,0,1,
60b7d18beb67181cd97d7ac5,SCR,2024-06-26_12h35.04.378,LearnStrategy,2023.2.3,MacIntel,58.82352941,2,2,6,,,,,,,,8,16,,,,,,,,,,,,,8,1.947,1,,,,,,0.368888889,-0.391111111,1,0,0,1.947,Pumice_rect,5,0,5,0,1,
60b7d18beb67181cd97d7ac5,SCR,2024-06-26_12h35.04.378,LearnStrategy,2023.2.3,MacIntel,58.82352941,2,2,7,,,,,,,,6,12,,,,,,,,,,,,,3,1.696,0,,,,,,0.097777778,-0.246666667,1,0,0,1.696,Diorite_rect,6,0,6,0,1,
60b7d18beb67181cd97d7ac5,SCR,2024-06-26_12h35.04.378,LearnStrategy,2023.2.3,MacIntel,58.82352941,2,2,8,,,,,,,,2,02,,,,,,,,,,,,,6,2.372,0,,,,,,-0.086666667,-0.401111111,1,0,0,2.372,Pegmatite_rect,7,0,7,0,1,
60b7d18beb67181cd97d7ac5,SCR,2024-06-26_12h35.04.378,LearnStrategy,2023.2.3,MacIntel,58.82352941,2,2,9,,,,,,,,8,02,,,,,,,,,,,,,8,2.267,1,,,,,,0.407777778,-0.398888889,1,0,0,2.267,Pumice_rect,8,0,8,0,1,
60b7d18beb67181cd97d7ac5,SCR,2024-06-26_12h35.04.378,LearnStrategy,2023.2.3,MacIntel,58.82352941,2,2,10,,,,,,,,1,06,,,,,,,,,,,,,4,2.372,0,,,,,,0.324444444,-0.247777778,1,0,0,2.372,Gabbro_rect,9,0,9,0,1,
60b7d18beb67181cd97d7ac5,SCR,2024-06-26_12h35.04.378,LearnStrategy,2023.2.3,MacIntel,58.82352941,2,2,11,,,,,,,,1,02,,,,,,,,,,,,,3,2.382,0,,,,,,0.121111111,-0.254444444,1,0,0,2.382,Diorite_rect,10,0,10,0,1,
60b7d18beb67181cd97d7ac5,SCR,2024-06-26_12h35.04.378,LearnStrategy,2023.2.3,MacIntel,58.82352941,2,2,12,,,,,,,,2,06,,,,,,,,,,,,,5,2.572,0,,,,,,-0.436666667,-0.394444444,1,0,0,2.572,Obsidian_rect,11,0,11,0,1,
60b7d18beb67181cd97d7ac5,SCR,2024-06-26_12h35.04.378,LearnStrategy,2023.2.3,MacIntel,58.82352941,2,2,13,,,,,,,,3,06,,,,,,,,,,,,,1,1.431,0,,,,,,-0.352222222,-0.266666667,1,0,0,1.431,Andesite_rect,12,0,12,0,1,
60b7d18beb67181cd97d7ac5,SCR,2024-06-26_12h35.04.378,LearnStrategy,2023.2.3,MacIntel,58.82352941,2,2,14,,,,,,,,5,11,,,,,,,,,,,,,5,1.15,1,,,,,,-0.364444444,-0.385555556,1,0,0,1.15,Obsidian_rect,13,0,13,0,1,
60b7d18beb67181cd97d7ac5,SCR,2024-06-26_12h35.04.378,LearnStrategy,2023.2.3,MacIntel,58.82352941,2,2,15,,,,,,,,7,05,,,,,,,,,,,,,6,5.933,0,,,,,,-0.182222222,-0.414444444,1,0,0,5.933,Pegmatite_rect,14,0,14,0,1,
60b7d18beb67181cd97d7ac5,SCR,2024-06-26_12h35.04.378,LearnStrategy,2023.2.3,MacIntel,58.82352941,2,2,16,,,,,,,,4,09,,,,,,,,,,,,,2,4.148,0,,,,,,-0.096666667,-0.26,1,0,0,4.148,Basalt_rect,15,0,15,0,1,
60b7d18beb67181cd97d7ac5,SCR,2024-06-26_12h35.04.378,LearnStrategy,2023.2.3,MacIntel,58.82352941,3,1,1,-0.21,-0.068888889,1,0,0,0.961,Gabbro_11,4,11,3,3,0.961,4,11,-0.393333333,-0.228888889,1,0,0,1.816,Andesite_rect,1,1.816,0,0,0,0,0,1,,,,,,,,,,,,,
60b7d18beb67181cd97d7ac5,SCR,2024-06-26_12h35.04.378,LearnStrategy,2023.2.3,MacIntel,58.82352941,3,1,2,-0.563333333,0.258888889,1,0,0,1.39,Obsidian_07,5,07,5,1,1.39,5,07,0.096666667,-0.246666667,1,0,0,2.991,Diorite_rect,3,2.991,0,1,0,1,0,1,,,,,,,,,,,,,
60b7d18beb67181cd97d7ac5,SCR,2024-06-26_12h35.04.378,LearnStrategy,2023.2.3,MacIntel,58.82352941,3,1,3,0.078888889,0.266666667,1,0,0,1.279,Pegmatite_10,6,10,5,5,1.279,6,10,0.088888889,-0.417777778,1,0,0,3.37,Peridotite_rect,7,3.37,0,2,0,2,0,1,,,,,,,,,,,,,
60b7d18beb67181cd97d7ac5,SCR,2024-06-26_12h35.04.378,LearnStrategy,2023.2.3,MacIntel,58.82352941,3,1,4,0.372222222,0.412222222,1,0,0,1.534,Gabbro_15,4,15,6,7,1.534,4,15,0.15,-0.251111111,1,0,0,2.113,Diorite_rect,3,2.113,0,3,0,3,0,1,,,,,,,,,,,,,
60b7d18beb67181cd97d7ac5,SCR,2024-06-26_12h35.04.378,LearnStrategy,2023.2.3,MacIntel,58.82352941,3,1,5,-0.242222222,-0.271111111,1,0,0,1.081,Pegmatite_03,6,03,2,3,1.081,6,03,-0.135555556,-0.417777778,1,0,0,1.824,Pegmatite_rect,6,1.824,1,4,0,4,0,1,,,,,,,,,,,,,
60b7d18beb67181cd97d7ac5,SCR,2024-06-26_12h35.04.378,LearnStrategy,2023.2.3,MacIntel,58.82352941,3,1,6,-0.085555556,-0.392222222,1,0,0,1.081,Basalt_10,2,10,1,4,1.081,2,10,-0.392222222,-0.384444444,1,0,0,2.924,Obsidian_rect,5,2.924,0,5,0,5,0,1,,,,,,,,,,,,,
60b7d18beb67181cd97d7ac5,SCR,2024-06-26_12h35.04.378,LearnStrategy,2023.2.3,MacIntel,58.82352941,3,1,7,0.085555556,-0.4,1,0,0,1.036,Andesite_11,1,11,1,5,1.036,1,11,0.113333333,-0.412222222,1,0,0,3.079,Peridotite_rect,7,3.079,0,6,0,6,0,1,,,,,,,,,,,,,
60b7d18beb67181cd97d7ac5,SCR,2024-06-26_12h35.04.378,LearnStrategy,2023.2.3,MacIntel,58.82352941,3,1,8,-0.567777778,0.411111111,1,0,0,1.397,Pegmatite_07,6,07,6,1,1.397,6,07,-0.391111111,-0.232222222,1,0,0,2.124,Andesite_rect,1,2.124,0,7,0,7,0,1,,,,,,,,,,,,,
60b7d18beb67181cd97d7ac5,SCR,2024-06-26_12h35.04.378,LearnStrategy,2023.2.3,MacIntel,58.82352941,3,1,9,-0.401111111,-0.266666667,1,0,0,1.432,Basalt_14,2,14,2,2,1.432,2,14,0.393333333,-0.392222222,1,0,0,2.759,Pumice_rect,8,2.759,0,8,0,8,0,1,,,,,,,,,,,,,
60b7d18beb67181cd97d7ac5,SCR,2024-06-26_12h35.04.378,LearnStrategy,2023.2.3,MacIntel,58.82352941,3,1,10,0.242222222,0.301111111,1,0,0,1.359,Diorite_02,3,02,5,6,1.359,3,02,0.144444444,-0.231111111,1,0,0,2.203,Diorite_rect,3,2.203,1,9,0,9,0,1,,,,,,,,,,,,,
60b7d18beb67181cd97d7ac5,SCR,2024-06-26_12h35.04.378,LearnStrategy,2023.2.3,MacIntel,58.82352941,3,1,11,0.076666667,-0.101111111,1,0,0,0.815,Peridotite_14,7,14,3,5,0.815,7,14,0.087777778,-0.405555556,1,0,0,2.288,Peridotite_rect,7,2.288,1,10,0,10,0,1,,,,,,,,,,,,,
60b7d18beb67181cd97d7ac5,SCR,2024-06-26_12h35.04.378,LearnStrategy,2023.2.3,MacIntel,58.82352941,3,1,12,-0.386666667,0.436666667,1,0,0,1.352,Diorite_09,3,09,6,2,1.352,3,09,-0.122222222,-0.403333333,1,0,0,2.211,Pegmatite_rect,6,2.211,0,11,0,11,0,1,,,,,,,,,,,,,
60b7d18beb67181cd97d7ac5,SCR,2024-06-26_12h35.04.378,LearnStrategy,2023.2.3,MacIntel,58.82352941,3,1,13,-0.217777778,0.411111111,1,0,0,0.948,Andesite_01,1,01,6,3,0.948,1,01,-0.384444444,-0.398888889,1,0,0,1.455,Obsidian_rect,5,1.455,0,12,0,12,0,1,,,,,,,,,,,,,
60b7d18beb67181cd97d7ac5,SCR,2024-06-26_12h35.04.378,LearnStrategy,2023.2.3,MacIntel,58.82352941,3,1,14,-0.118888889,0.278888889,1,0,0,0.816,Andesite_07,1,07,5,4,0.816,1,07,0.106666667,-0.232222222,1,0,0,2.187,Diorite_rect,3,2.187,0,13,0,13,0,1,,,,,,,,,,,,,
60b7d18beb67181cd97d7ac5,SCR,2024-06-26_12h35.04.378,LearnStrategy,2023.2.3,MacIntel,58.82352941,3,1,15,0.382222222,-0.395555556,1,0,0,1.082,Peridotite_15,7,15,1,7,1.082,7,15,0.114444444,-0.388888889,1,0,0,1.354,Peridotite_rect,7,1.354,1,14,0,14,0,1,,,,,,,,,,,,,
60b7d18beb67181cd97d7ac5,SCR,2024-06-26_12h35.04.378,LearnStrategy,2023.2.3,MacIntel,58.82352941,3,1,16,-0.37,-0.096666667,1,0,0,0.966,Pumice_13,8,13,3,2,0.966,8,13,-0.16,-0.232222222,1,0,0,2.09,Basalt_rect,2,2.09,0,15,0,15,0,1,,,,,,,,,,,,,
60b7d18beb67181cd97d7ac5,SCR,2024-06-26_12h35.04.378,LearnStrategy,2023.2.3,MacIntel,58.82352941,3,2,1,,,,,,,,5,08,,,,,,,,,,,,,5,2.381,1,,,,,,-0.376666667,-0.397777778,1,0,0,2.381,Obsidian_rect,0,0,0,0,1,
60b7d18beb67181cd97d7ac5,SCR,2024-06-26_12h35.04.378,LearnStrategy,2023.2.3,MacIntel,58.82352941,3,2,2,,,,,,,,6,16,,,,,,,,,,,,,6,1.792,1,,,,,,-0.16,-0.416666667,1,0,0,1.792,Pegmatite_rect,1,0,1,0,1,
60b7d18beb67181cd97d7ac5,SCR,2024-06-26_12h35.04.378,LearnStrategy,2023.2.3,MacIntel,58.82352941,3,2,3,,,,,,,,6,08,,,,,,,,,,,,,6,1.263,1,,,,,,-0.16,-0.416666667,1,0,0,1.263,Pegmatite_rect,2,0,2,0,1,
60b7d18beb67181cd97d7ac5,SCR,2024-06-26_12h35.04.378,LearnStrategy,2023.2.3,MacIntel,58.82352941,3,2,4,,,,,,,,5,04,,,,,,,,,,,,,5,1.091,1,,,,,,-0.368888889,-0.403333333,1,0,0,1.091,Obsidian_rect,3,0,3,0,1,
60b7d18beb67181cd97d7ac5,SCR,2024-06-26_12h35.04.378,LearnStrategy,2023.2.3,MacIntel,58.82352941,3,2,5,,,,,,,,4,12,,,,,,,,,,,,,7,3.713,0,,,,,,0.127777778,-0.398888889,1,0,0,3.713,Peridotite_rect,4,0,4,0,1,
60b7d18beb67181cd97d7ac5,SCR,2024-06-26_12h35.04.378,LearnStrategy,2023.2.3,MacIntel,58.82352941,3,2,6,,,,,,,,8,06,,,,,,,,,,,,,2,3.249,0,,,,,,-0.106666667,-0.26,1,0,0,3.249,Basalt_rect,5,0,5,0,1,
60b7d18beb67181cd97d7ac5,SCR,2024-06-26_12h35.04.378,LearnStrategy,2023.2.3,MacIntel,58.82352941,3,2,7,,,,,,,,4,16,,,,,,,,,,,,,1,1.785,0,,,,,,-0.352222222,-0.237777778,1,0,0,1.785,Andesite_rect,6,0,6,0,1,
60b7d18beb67181cd97d7ac5,SCR,2024-06-26_12h35.04.378,LearnStrategy,2023.2.3,MacIntel,58.82352941,3,2,8,,,,,,,,3,12,,,,,,,,,,,,,1,2.924,0,,,,,,-0.392222222,-0.251111111,1,0,0,2.924,Andesite_rect,7,0,7,0,1,
60b7d18beb67181cd97d7ac5,SCR,2024-06-26_12h35.04.378,LearnStrategy,2023.2.3,MacIntel,58.82352941,3,2,9,,,,,,,,2,05,,,,,,,,,,,,,6,1.349,0,,,,,,-0.135555556,-0.397777778,1,0,0,1.349,Pegmatite_rect,8,0,8,0,1,
60b7d18beb67181cd97d7ac5,SCR,2024-06-26_12h35.04.378,LearnStrategy,2023.2.3,MacIntel,58.82352941,3,2,10,,,,,,,,8,04,,,,,,,,,,,,,8,3.678,1,,,,,,0.366666667,-0.396666667,1,0,0,3.678,Pumice_rect,9,0,9,0,1,
60b7d18beb67181cd97d7ac5,SCR,2024-06-26_12h35.04.378,LearnStrategy,2023.2.3,MacIntel,58.82352941,3,2,11,,,,,,,,1,04,,,,,,,,,,,,,4,1.758,0,,,,,,0.36,-0.25,1,0,0,1.758,Gabbro_rect,10,0,10,0,1,
60b7d18beb67181cd97d7ac5,SCR,2024-06-26_12h35.04.378,LearnStrategy,2023.2.3,MacIntel,58.82352941,3,2,12,,,,,,,,1,05,,,,,,,,,,,,,3,1.197,0,,,,,,0.177777778,-0.261111111,1,0,0,1.197,Diorite_rect,11,0,11,0,1,
60b7d18beb67181cd97d7ac5,SCR,2024-06-26_12h35.04.378,LearnStrategy,2023.2.3,MacIntel,58.82352941,3,2,13,,,,,,,,2,16,,,,,,,,,,,,,2,1.157,1,,,,,,-0.067777778,-0.253333333,1,0,0,1.157,Basalt_rect,12,0,12,0,1,
60b7d18beb67181cd97d7ac5,SCR,2024-06-26_12h35.04.378,LearnStrategy,2023.2.3,MacIntel,58.82352941,3,2,14,,,,,,,,3,07,,,,,,,,,,,,,3,2.275,1,,,,,,0.097777778,-0.254444444,1,0,0,2.275,Diorite_rect,13,0,13,0,1,
60b7d18beb67181cd97d7ac5,SCR,2024-06-26_12h35.04.378,LearnStrategy,2023.2.3,MacIntel,58.82352941,3,2,15,,,,,,,,7,02,,,,,,,,,,,,,3,0.849,0,,,,,,0.097777778,-0.254444444,1,0,0,0.849,Diorite_rect,14,0,14,0,1,
60b7d18beb67181cd97d7ac5,SCR,2024-06-26_12h35.04.378,LearnStrategy,2023.2.3,MacIntel,58.82352941,3,2,16,,,,,,,,7,08,,,,,,,,,,,,,3,0.787,0,,,,,,0.097777778,-0.254444444,1,0,0,0.787,Diorite_rect,15,0,15,0,1,
60b7d18beb67181cd97d7ac5,SCR,2024-06-26_12h35.04.378,LearnStrategy,2023.2.3,MacIntel,58.82352941,4,1,1,-0.237777778,-0.375555556,1,0,0,1.183,Diorite_08,3,08,1,3,1.183,3,08,-0.414444444,-0.242222222,1,0,0,1.896,Andesite_rect,1,1.896,0,0,0,0,0,1,,,,,,,,,,,,,
60b7d18beb67181cd97d7ac5,SCR,2024-06-26_12h35.04.378,LearnStrategy,2023.2.3,MacIntel,58.82352941,4,1,2,-0.353333333,-0.287777778,1,0,0,0.918,Basalt_14,2,14,2,2,0.918,2,14,-0.167777778,-0.26,1,0,0,1.509,Basalt_rect,2,1.509,1,1,0,1,0,1,,,,,,,,,,,,,
60b7d18beb67181cd97d7ac5,SCR,2024-06-26_12h35.04.378,LearnStrategy,2023.2.3,MacIntel,58.82352941,4,1,3,0.213333333,-0.102222222,1,0,0,0.962,Obsidian_06,5,06,3,6,0.962,5,06,-0.375555556,-0.418888889,1,0,0,1.692,Obsidian_rect,5,1.692,1,2,0,2,0,1,,,,,,,,,,,,,
60b7d18beb67181cd97d7ac5,SCR,2024-06-26_12h35.04.378,LearnStrategy,2023.2.3,MacIntel,58.82352941,4,1,4,-0.423333333,-0.106666667,1,0,0,1.065,Pumice_13,8,13,3,2,1.065,8,13,-0.147777778,-0.261111111,1,0,0,1.975,Basalt_rect,2,1.975,0,3,0,3,0,1,,,,,,,,,,,,,
60b7d18beb67181cd97d7ac5,SCR,2024-06-26_12h35.04.378,LearnStrategy,2023.2.3,MacIntel,58.82352941,4,1,5,0.402222222,0.404444444,1,0,0,1.381,Gabbro_15,4,15,6,7,1.381,4,15,0.355555556,-0.25,1,0,0,2.694,Gabbro_rect,4,2.694,1,4,0,4,0,1,,,,,,,,,,,,,
60b7d18beb67181cd97d7ac5,SCR,2024-06-26_12h35.04.378,LearnStrategy,2023.2.3,MacIntel,58.82352941,4,1,6,0.537777778,-0.398888889,1,0,0,1.332,Peridotite_12,7,12,1,8,1.332,7,12,-0.397777778,-0.236666667,1,0,0,2.475,Andesite_rect,1,2.475,0,5,0,5,0,1,,,,,,,,,,,,,
60b7d18beb67181cd97d7ac5,SCR,2024-06-26_12h35.04.378,LearnStrategy,2023.2.3,MacIntel,58.82352941,4,1,7,-0.211111111,-0.084444444,1,0,0,0.867,Gabbro_11,4,11,3,3,0.867,4,11,0.135555556,-0.241111111,1,0,0,3.35,Diorite_rect,3,3.35,0,6,0,6,0,1,,,,,,,,,,,,,
60b7d18beb67181cd97d7ac5,SCR,2024-06-26_12h35.04.378,LearnStrategy,2023.2.3,MacIntel,58.82352941,4,1,8,-0.534444444,0.092222222,1,0,0,2.046,Andesite_09,1,09,4,1,2.046,1,09,0.372222222,-0.254444444,1,0,0,2.214,Gabbro_rect,4,2.214,0,7,0,7,0,1,,,,,,,,,,,,,
60b7d18beb67181cd97d7ac5,SCR,2024-06-26_12h35.04.378,LearnStrategy,2023.2.3,MacIntel,58.82352941,4,1,9,0.24,0.096666667,1,0,0,1.065,Peridotite_04,7,04,4,6,1.065,7,04,-0.152222222,-0.405555556,1,0,0,3.866,Pegmatite_rect,6,3.866,0,8,0,8,0,1,,,,,,,,,,,,,
60b7d18beb67181cd97d7ac5,SCR,2024-06-26_12h35.04.378,LearnStrategy,2023.2.3,MacIntel,58.82352941,4,1,10,-0.577777778,0.06,1,0,0,1.148,Andesite_09,1,09,4,1,1.148,1,09,0.347777778,-0.243333333,1,0,0,1.889,Gabbro_rect,4,1.889,0,9,0,9,0,1,,,,,,,,,,,,,
60b7d18beb67181cd97d7ac5,SCR,2024-06-26_12h35.04.378,LearnStrategy,2023.2.3,MacIntel,58.82352941,4,1,11,0.207777778,0.24,1,0,0,1.214,Diorite_02,3,02,5,6,1.214,3,02,0.35,-0.233333333,1,0,0,1.189,Gabbro_rect,4,1.189,0,10,0,10,0,1,,,,,,,,,,,,,
60b7d18beb67181cd97d7ac5,SCR,2024-06-26_12h35.04.378,LearnStrategy,2023.2.3,MacIntel,58.82352941,4,1,12,-0.212222222,0.435555556,1,0,0,1.249,Andesite_01,1,01,6,3,1.249,1,01,0.174444444,-0.251111111,1,0,0,1.387,Diorite_rect,3,1.387,0,11,0,11,0,1,,,,,,,,,,,,,
60b7d18beb67181cd97d7ac5,SCR,2024-06-26_12h35.04.378,LearnStrategy,2023.2.3,MacIntel,58.82352941,4,1,13,-0.54,0.402222222,1,0,0,0.996,Pegmatite_07,6,07,6,1,0.996,6,07,-0.124444444,-0.402222222,1,0,0,2.731,Pegmatite_rect,6,2.731,1,12,0,12,0,1,,,,,,,,,,,,,
60b7d18beb67181cd97d7ac5,SCR,2024-06-26_12h35.04.378,LearnStrategy,2023.2.3,MacIntel,58.82352941,4,1,14,0.26,0.126666667,1,0,0,0.868,Peridotite_04,7,04,4,6,0.868,7,04,0.077777778,-0.391111111,1,0,0,1.726,Peridotite_rect,7,1.726,1,13,0,13,0,1,,,,,,,,,,,,,
60b7d18beb67181cd97d7ac5,SCR,2024-06-26_12h35.04.378,LearnStrategy,2023.2.3,MacIntel,58.82352941,4,1,15,-0.242222222,-0.228888889,1,0,0,0.955,Pegmatite_03,6,03,2,3,0.955,6,03,-0.16,-0.39,1,0,0,1.502,Pegmatite_rect,6,1.502,1,14,0,14,0,1,,,,,,,,,,,,,
60b7d18beb67181cd97d7ac5,SCR,2024-06-26_12h35.04.378,LearnStrategy,2023.2.3,MacIntel,58.82352941,4,1,16,0.38,0.146666667,1,0,0,1,Basalt_01,2,01,4,7,1,2,01,-0.362222222,-0.248888889,1,0,0,2.768,Andesite_rect,1,2.768,0,15,0,15,0,1,,,,,,,,,,,,,
60b7d18beb67181cd97d7ac5,SCR,2024-06-26_12h35.04.378,LearnStrategy,2023.2.3,MacIntel,58.82352941,4,2,1,,,,,,,,3,15,,,,,,,,,,,,,4,4.923,0,,,,,,0.345555556,-0.25,1,0,0,4.923,Gabbro_rect,0,0,0,0,1,
60b7d18beb67181cd97d7ac5,SCR,2024-06-26_12h35.04.378,LearnStrategy,2023.2.3,MacIntel,58.82352941,4,2,2,,,,,,,,7,08,,,,,,,,,,,,,3,1.383,0,,,,,,0.193333333,-0.245555556,1,0,0,1.383,Diorite_rect,1,0,1,0,1,
60b7d18beb67181cd97d7ac5,SCR,2024-06-26_12h35.04.378,LearnStrategy,2023.2.3,MacIntel,58.82352941,4,2,3,,,,,,,,6,06,,,,,,,,,,,,,3,1.176,0,,,,,,0.142222222,-0.256666667,1,0,0,1.176,Diorite_rect,2,0,2,0,1,
60b7d18beb67181cd97d7ac5,SCR,2024-06-26_12h35.04.378,LearnStrategy,2023.2.3,MacIntel,58.82352941,4,2,4,,,,,,,,5,04,,,,,,,,,,,,,5,1.205,1,,,,,,-0.463333333,-0.405555556,1,0,0,1.205,Obsidian_rect,3,0,3,0,1,
60b7d18beb67181cd97d7ac5,SCR,2024-06-26_12h35.04.378,LearnStrategy,2023.2.3,MacIntel,58.82352941,4,2,5,,,,,,,,8,10,,,,,,,,,,,,,8,2.222,1,,,,,,0.355555556,-0.406666667,1,0,0,2.222,Pumice_rect,4,0,4,0,1,
60b7d18beb67181cd97d7ac5,SCR,2024-06-26_12h35.04.378,LearnStrategy,2023.2.3,MacIntel,58.82352941,4,2,6,,,,,,,,4,12,,,,,,,,,,,,,1,2.662,0,,,,,,-0.402222222,-0.251111111,1,0,0,2.662,Andesite_rect,5,0,5,0,1,
60b7d18beb67181cd97d7ac5,SCR,2024-06-26_12h35.04.378,LearnStrategy,2023.2.3,MacIntel,58.82352941,4,2,7,,,,,,,,1,06,,,,,,,,,,,,,4,2.137,0,,,,,,0.415555556,-0.258888889,1,0,0,2.137,Gabbro_rect,6,0,6,0,1,
60b7d18beb67181cd97d7ac5,SCR,2024-06-26_12h35.04.378,LearnStrategy,2023.2.3,MacIntel,58.82352941,4,2,8,,,,,,,,4,09,,,,,,,,,,,,,6,4.236,0,,,,,,-0.114444444,-0.412222222,1,0,0,4.236,Pegmatite_rect,7,0,7,0,1,
60b7d18beb67181cd97d7ac5,SCR,2024-06-26_12h35.04.378,LearnStrategy,2023.2.3,MacIntel,58.82352941,4,2,9,,,,,,,,7,07,,,,,,,,,,,,,7,1.157,1,,,,,,0.114444444,-0.39,1,0,0,1.157,Peridotite_rect,8,0,8,0,1,
60b7d18beb67181cd97d7ac5,SCR,2024-06-26_12h35.04.378,LearnStrategy,2023.2.3,MacIntel,58.82352941,4,2,10,,,,,,,,2,05,,,,,,,,,,,,,3,2.664,0,,,,,,0.122222222,-0.257777778,1,0,0,2.664,Diorite_rect,9,0,9,0,1,
60b7d18beb67181cd97d7ac5,SCR,2024-06-26_12h35.04.378,LearnStrategy,2023.2.3,MacIntel,58.82352941,4,2,11,,,,,,,,5,12,,,,,,,,,,,,,5,1.284,1,,,,,,-0.358888889,-0.408888889,1,0,0,1.284,Obsidian_rect,10,0,10,0,1,
60b7d18beb67181cd97d7ac5,SCR,2024-06-26_12h35.04.378,LearnStrategy,2023.2.3,MacIntel,58.82352941,4,2,12,,,,,,,,2,08,,,,,,,,,,,,,2,2.989,1,,,,,,-0.182222222,-0.252222222,1,0,0,2.989,Basalt_rect,11,0,11,0,1,
60b7d18beb67181cd97d7ac5,SCR,2024-06-26_12h35.04.378,LearnStrategy,2023.2.3,MacIntel,58.82352941,4,2,13,,,,,,,,1,02,,,,,,,,,,,,,3,1.869,0,,,,,,0.118888889,-0.257777778,1,0,0,1.869,Diorite_rect,12,0,12,0,1,
60b7d18beb67181cd97d7ac5,SCR,2024-06-26_12h35.04.378,LearnStrategy,2023.2.3,MacIntel,58.82352941,4,2,14,,,,,,,,6,16,,,,,,,,,,,,,6,1.415,1,,,,,,-0.102222222,-0.398888889,1,0,0,1.415,Pegmatite_rect,13,0,13,0,1,
60b7d18beb67181cd97d7ac5,SCR,2024-06-26_12h35.04.378,LearnStrategy,2023.2.3,MacIntel,58.82352941,4,2,15,,,,,,,,3,10,,,,,,,,,,,,,7,0.959,0,,,,,,0.136666667,-0.418888889,1,0,0,0.959,Peridotite_rect,14,0,14,0,1,
60b7d18beb67181cd97d7ac5,SCR,2024-06-26_12h35.04.378,LearnStrategy,2023.2.3,MacIntel,58.82352941,4,2,16,,,,,,,,8,06,,,,,,,,,,,,,8,2.282,1,,,,,,0.33,-0.388888889,1,0,0,2.282,Pumice_rect,15,0,15,0,1,
60b7d18beb67181cd97d7ac5,SCR,2024-06-26_12h35.04.378,LearnStrategy,2023.2.3,MacIntel,58.82352941,5,1,1,-0.403333333,-0.096666667,1,0,0,1.012,Pumice_13,8,13,3,2,1.012,8,13,-0.178888889,-0.228888889,1,0,0,2.382,Basalt_rect,2,2.382,0,0,0,0,0,1,,,,,,,,,,,,,
60b7d18beb67181cd97d7ac5,SCR,2024-06-26_12h35.04.378,LearnStrategy,2023.2.3,MacIntel,58.82352941,5,1,2,0.544444444,0.294444444,1,0,0,1.586,Diorite_14,3,14,5,8,1.586,3,14,0.4,-0.257777778,1,0,0,1.67,Gabbro_rect,4,1.67,0,1,0,1,0,1,,,,,,,,,,,,,
60b7d18beb67181cd97d7ac5,SCR,2024-06-26_12h35.04.378,LearnStrategy,2023.2.3,MacIntel,58.82352941,5,1,3,-0.232222222,0.107777778,1,0,0,1.169,Gabbro_13,4,13,4,3,1.169,4,13,0.12,-0.253333333,1,0,0,1.716,Diorite_rect,3,1.716,0,2,0,2,0,1,,,,,,,,,,,,,
60b7d18beb67181cd97d7ac5,SCR,2024-06-26_12h35.04.378,LearnStrategy,2023.2.3,MacIntel,58.82352941,5,1,4,-0.23,0.095555556,1,0,0,0.929,Gabbro_13,4,13,4,3,0.929,6,05,0.375555556,-0.241111111,1,0,0,2.415,Gabbro_rect,4,2.415,1,3,0,3,0,1,,,,,,,,,,,,,
60b7d18beb67181cd97d7ac5,SCR,2024-06-26_12h35.04.378,LearnStrategy,2023.2.3,MacIntel,58.82352941,5,1,5,-0.358888889,0.408888889,1,0,0,1.759,Diorite_09,3,09,6,2,1.759,3,09,-0.376666667,-0.238888889,1,0,0,1.776,Andesite_rect,1,1.776,0,4,0,4,0,1,,,,,,,,,,,,,
60b7d18beb67181cd97d7ac5,SCR,2024-06-26_12h35.04.378,LearnStrategy,2023.2.3,MacIntel,58.82352941,5,1,6,-0.397777778,0.433333333,1,0,0,1.134,Diorite_09,3,09,6,2,1.134,7,10,0.144444444,-0.238888889,1,0,0,1.343,Diorite_rect,3,1.343,1,5,0,5,0,1,,,,,,,,,,,,,
60b7d18beb67181cd97d7ac5,SCR,2024-06-26_12h35.04.378,LearnStrategy,2023.2.3,MacIntel,58.82352941,5,1,7,0.067777778,0.228888889,1,0,0,1.417,Pegmatite_10,6,10,5,5,1.417,6,10,0.085555556,-0.398888889,1,0,0,1.258,Peridotite_rect,7,1.258,0,6,0,6,0,1,,,,,,,,,,,,,
60b7d18beb67181cd97d7ac5,SCR,2024-06-26_12h35.04.378,LearnStrategy,2023.2.3,MacIntel,58.82352941,5,1,8,0.085555556,0.227777778,1,0,0,1.645,Pegmatite_10,6,10,5,5,1.645,2,04,-0.132222222,-0.414444444,1,0,0,2.51,Pegmatite_rect,6,2.51,1,7,0,7,0,1,,,,,,,,,,,,,
60b7d18beb67181cd97d7ac5,SCR,2024-06-26_12h35.04.378,LearnStrategy,2023.2.3,MacIntel,58.82352941,5,1,9,-0.4,-0.422222222,1,0,0,1.58,Peridotite_16,7,16,1,2,1.58,7,16,-0.388888889,-0.26,1,0,0,1.973,Andesite_rect,1,1.973,0,8,0,8,0,1,,,,,,,,,,,,,
60b7d18beb67181cd97d7ac5,SCR,2024-06-26_12h35.04.378,LearnStrategy,2023.2.3,MacIntel,58.82352941,5,1,10,-0.527777778,-0.105555556,1,0,0,2.703,Pegmatite_05,6,05,3,1,2.703,3,16,0.173333333,-0.394444444,1,0,0,1.488,Peridotite_rect,7,1.488,0,9,0,9,0,1,,,,,,,,,,,,,
60b7d18beb67181cd97d7ac5,SCR,2024-06-26_12h35.04.378,LearnStrategy,2023.2.3,MacIntel,58.82352941,5,1,11,-0.398888889,0.12,1,0,0,1.689,Basalt_11,2,11,4,2,1.689,2,11,0.362222222,-0.381111111,1,0,0,2.606,Pumice_rect,8,2.606,0,10,0,10,0,1,,,,,,,,,,,,,
60b7d18beb67181cd97d7ac5,SCR,2024-06-26_12h35.04.378,LearnStrategy,2023.2.3,MacIntel,58.82352941,5,1,12,0.516666667,-0.071111111,1,0,0,1.399,Andesite_14,1,14,3,8,1.399,1,14,0.353333333,-0.24,1,0,0,1.989,Gabbro_rect,4,1.989,0,11,0,11,0,1,,,,,,,,,,,,,
60b7d18beb67181cd97d7ac5,SCR,2024-06-26_12h35.04.378,LearnStrategy,2023.2.3,MacIntel,58.82352941,5,1,13,-0.574444444,0.128888889,1,0,0,1.47,Andesite_09,1,09,4,1,1.47,1,09,-0.395555556,-0.246666667,1,0,0,1.703,Andesite_rect,1,1.703,1,12,0,12,0,1,,,,,,,,,,,,,
60b7d18beb67181cd97d7ac5,SCR,2024-06-26_12h35.04.378,LearnStrategy,2023.2.3,MacIntel,58.82352941,5,1,14,-0.234444444,0.264444444,1,0,0,1.133,Gabbro_01,4,01,5,3,1.133,4,01,-0.366666667,-0.268888889,1,0,0,1.787,Andesite_rect,1,1.787,0,13,0,13,0,1,,,,,,,,,,,,,
60b7d18beb67181cd97d7ac5,SCR,2024-06-26_12h35.04.378,LearnStrategy,2023.2.3,MacIntel,58.82352941,5,1,15,-0.213333333,-0.074444444,1,0,0,0.906,Gabbro_11,4,11,3,3,0.906,4,11,0.081111111,-0.254444444,1,0,0,1.455,Diorite_rect,3,1.455,0,14,0,14,0,1,,,,,,,,,,,,,
60b7d18beb67181cd97d7ac5,SCR,2024-06-26_12h35.04.378,LearnStrategy,2023.2.3,MacIntel,58.82352941,5,1,16,-0.354444444,0.107777778,1,0,0,2.268,Basalt_11,2,11,4,2,2.268,1,09,-0.145555556,-0.25,1,0,0,3.313,Basalt_rect,2,3.313,1,15,0,15,0,1,,,,,,,,,,,,,
60b7d18beb67181cd97d7ac5,SCR,2024-06-26_12h35.04.378,LearnStrategy,2023.2.3,MacIntel,58.82352941,5,2,1,,,,,,,,7,02,,,,,,,,,,,,,4,3.707,0,,,,,,0.376666667,-0.246666667,1,0,0,3.707,Gabbro_rect,0,0,0,0,1,
60b7d18beb67181cd97d7ac5,SCR,2024-06-26_12h35.04.378,LearnStrategy,2023.2.3,MacIntel,58.82352941,5,2,2,,,,,,,,1,03,,,,,,,,,,,,,3,1.642,0,,,,,,0.125555556,-0.238888889,1,0,0,1.642,Diorite_rect,1,0,1,0,1,
60b7d18beb67181cd97d7ac5,SCR,2024-06-26_12h35.04.378,LearnStrategy,2023.2.3,MacIntel,58.82352941,5,2,3,,,,,,,,8,15,,,,,,,,,,,,,8,3.435,1,,,,,,0.437777778,-0.4,1,0,0,3.435,Pumice_rect,2,0,2,0,1,
60b7d18beb67181cd97d7ac5,SCR,2024-06-26_12h35.04.378,LearnStrategy,2023.2.3,MacIntel,58.82352941,5,2,4,,,,,,,,2,06,,,,,,,,,,,,,2,2.635,1,,,,,,-0.171111111,-0.257777778,1,0,0,2.635,Basalt_rect,3,0,3,0,1,
60b7d18beb67181cd97d7ac5,SCR,2024-06-26_12h35.04.378,LearnStrategy,2023.2.3,MacIntel,58.82352941,5,2,5,,,,,,,,2,09,,,,,,,,,,,,,3,1.263,0,,,,,,0.116666667,-0.271111111,1,0,0,1.263,Diorite_rect,4,0,4,0,1,
60b7d18beb67181cd97d7ac5,SCR,2024-06-26_12h35.04.378,LearnStrategy,2023.2.3,MacIntel,58.82352941,5,2,6,,,,,,,,8,16,,,,,,,,,,,,,8,2.012,1,,,,,,0.413333333,-0.398888889,1,0,0,2.012,Pumice_rect,5,0,5,0,1,
60b7d18beb67181cd97d7ac5,SCR,2024-06-26_12h35.04.378,LearnStrategy,2023.2.3,MacIntel,58.82352941,5,2,7,,,,,,,,4,10,,,,,,,,,,,,,2,4.597,0,,,,,,-0.141111111,-0.246666667,1,0,0,4.597,Basalt_rect,6,0,6,0,1,
60b7d18beb67181cd97d7ac5,SCR,2024-06-26_12h35.04.378,LearnStrategy,2023.2.3,MacIntel,58.82352941,5,2,8,,,,,,,,4,08,,,,,,,,,,,,,1,1.937,0,,,,,,-0.453333333,-0.257777778,1,0,0,1.937,Andesite_rect,7,0,7,0,1,
60b7d18beb67181cd97d7ac5,SCR,2024-06-26_12h35.04.378,LearnStrategy,2023.2.3,MacIntel,58.82352941,5,2,9,,,,,,,,3,06,,,,,,,,,,,,,6,2.274,0,,,,,,-0.174444444,-0.402222222,1,0,0,2.274,Pegmatite_rect,8,0,8,0,1,
60b7d18beb67181cd97d7ac5,SCR,2024-06-26_12h35.04.378,LearnStrategy,2023.2.3,MacIntel,58.82352941,5,2,10,,,,,,,,5,08,,,,,,,,,,,,,5,1.617,1,,,,,,-0.412222222,-0.398888889,1,0,0,1.617,Obsidian_rect,9,0,9,0,1,
60b7d18beb67181cd97d7ac5,SCR,2024-06-26_12h35.04.378,LearnStrategy,2023.2.3,MacIntel,58.82352941,5,2,11,,,,,,,,6,08,,,,,,,,,,,,,6,2.765,1,,,,,,-0.2,-0.405555556,1,0,0,2.765,Pegmatite_rect,10,0,10,0,1,
60b7d18beb67181cd97d7ac5,SCR,2024-06-26_12h35.04.378,LearnStrategy,2023.2.3,MacIntel,58.82352941,5,2,12,,,,,,,,6,09,,,,,,,,,,,,,7,1.419,0,,,,,,0.047777778,-0.407777778,1,0,0,1.419,Peridotite_rect,11,0,11,0,1,
60b7d18beb67181cd97d7ac5,SCR,2024-06-26_12h35.04.378,LearnStrategy,2023.2.3,MacIntel,58.82352941,5,2,13,,,,,,,,3,07,,,,,,,,,,,,,6,0.948,0,,,,,,-0.072222222,-0.4,1,0,0,0.948,Pegmatite_rect,12,0,12,0,1,
60b7d18beb67181cd97d7ac5,SCR,2024-06-26_12h35.04.378,LearnStrategy,2023.2.3,MacIntel,58.82352941,5,2,14,,,,,,,,5,10,,,,,,,,,,,,,5,1.561,1,,,,,,-0.323333333,-0.393333333,1,0,0,1.561,Obsidian_rect,13,0,13,0,1,
60b7d18beb67181cd97d7ac5,SCR,2024-06-26_12h35.04.378,LearnStrategy,2023.2.3,MacIntel,58.82352941,5,2,15,,,,,,,,1,16,,,,,,,,,,,,,3,2.867,0,,,,,,0.137777778,-0.255555556,1,0,0,2.867,Diorite_rect,14,0,14,0,1,
60b7d18beb67181cd97d7ac5,SCR,2024-06-26_12h35.04.378,LearnStrategy,2023.2.3,MacIntel,58.82352941,5,2,16,,,,,,,,7,13,,,,,,,,,,,,,7,1.716,1,,,,,,0.15,-0.416666667,1,0,0,1.716,Peridotite_rect,15,0,15,0,1,
60b7d18beb67181cd97d7ac5,SCR,2024-06-26_12h35.04.378,LearnStrategy,2023.2.3,MacIntel,58.82352941,6,1,1,0.098888889,-0.398888889,1,0,0,1.25,Andesite_11,1,11,1,5,1.25,1,11,0.12,-0.26,1,0,0,1.56,Diorite_rect,3,1.56,0,0,0,0,0,1,,,,,,,,,,,,,
60b7d18beb67181cd97d7ac5,SCR,2024-06-26_12h35.04.378,LearnStrategy,2023.2.3,MacIntel,58.82352941,6,1,2,0.092222222,-0.431111111,1,0,0,1.123,Andesite_11,1,11,1,5,1.123,1,07,-0.495555556,-0.233333333,1,0,0,0.872,Andesite_rect,1,0.872,1,1,0,1,0,1,,,,,,,,,,,,,
60b7d18beb67181cd97d7ac5,SCR,2024-06-26_12h35.04.378,LearnStrategy,2023.2.3,MacIntel,58.82352941,6,1,3,0.084444444,-0.4,1,0,0,0.88,Andesite_11,1,11,1,5,0.88,2,14,-0.395555556,-0.243333333,1,0,0,0.943,Andesite_rect,1,0.943,1,2,0,2,0,1,,,,,,,,,,,,,
60b7d18beb67181cd97d7ac5,SCR,2024-06-26_12h35.04.378,LearnStrategy,2023.2.3,MacIntel,58.82352941,6,1,4,0.235555556,-0.116666667,1,0,0,2.249,Obsidian_06,5,06,3,6,2.249,3,09,0.124444444,-0.396666667,1,0,0,1.717,Peridotite_rect,7,1.717,0,3,0,3,0,1,,,,,,,,,,,,,
60b7d18beb67181cd97d7ac5,SCR,2024-06-26_12h35.04.378,LearnStrategy,2023.2.3,MacIntel,58.82352941,6,1,5,0.236666667,-0.247777778,1,0,0,2.131,Gabbro_05,4,05,2,6,2.131,4,11,-0.147777778,-0.25,1,0,0,1.945,Basalt_rect,2,1.945,0,4,0,4,0,1,,,,,,,,,,,,,
60b7d18beb67181cd97d7ac5,SCR,2024-06-26_12h35.04.378,LearnStrategy,2023.2.3,MacIntel,58.82352941,6,1,6,-0.206666667,-0.122222222,1,0,0,1.218,Gabbro_11,4,11,3,3,1.218,1,09,0.404444444,-0.25,1,0,0,1.208,Gabbro_rect,4,1.208,1,5,0,5,0,1,,,,,,,,,,,,,
60b7d18beb67181cd97d7ac5,SCR,2024-06-26_12h35.04.378,LearnStrategy,2023.2.3,MacIntel,58.82352941,6,1,7,0.253333333,0.232222222,1,0,0,1.44,Diorite_02,3,02,5,6,1.44,3,02,0.214444444,-0.251111111,1,0,0,0.779,Diorite_rect,3,0.779,1,6,0,6,0,1,,,,,,,,,,,,,
60b7d18beb67181cd97d7ac5,SCR,2024-06-26_12h35.04.378,LearnStrategy,2023.2.3,MacIntel,58.82352941,6,1,8,-0.376666667,-0.445555556,1,0,0,1.724,Peridotite_16,7,16,1,2,1.724,7,16,-0.373333333,-0.233333333,1,0,0,1.07,Andesite_rect,1,1.07,0,7,0,7,0,1,,,,,,,,,,,,,
60b7d18beb67181cd97d7ac5,SCR,2024-06-26_12h35.04.378,LearnStrategy,2023.2.3,MacIntel,58.82352941,6,1,9,-0.415555556,-0.428888889,1,0,0,1.117,Peridotite_16,7,16,1,2,1.117,4,03,0.136666667,-0.388888889,1,0,0,1.269,Peridotite_rect,7,1.269,1,8,0,8,0,1,,,,,,,,,,,,,
60b7d18beb67181cd97d7ac5,SCR,2024-06-26_12h35.04.378,LearnStrategy,2023.2.3,MacIntel,58.82352941,6,1,10,0.546666667,-0.264444444,1,0,0,2.839,Pegmatite_11,6,11,2,8,2.839,4,13,-0.14,-0.417777778,1,0,0,2.379,Pegmatite_rect,6,2.379,1,9,0,9,0,1,,,,,,,,,,,,,
60b7d18beb67181cd97d7ac5,SCR,2024-06-26_12h35.04.378,LearnStrategy,2023.2.3,MacIntel,58.82352941,6,1,11,0.345555556,0.103333333,1,0,0,1.572,Basalt_01,2,01,4,7,1.572,2,01,0.074444444,-0.253333333,1,0,0,2.88,Diorite_rect,3,2.88,0,10,0,10,0,1,,,,,,,,,,,,,
60b7d18beb67181cd97d7ac5,SCR,2024-06-26_12h35.04.378,LearnStrategy,2023.2.3,MacIntel,58.82352941,6,1,12,0.377777778,0.098888889,1,0,0,0.758,Basalt_01,2,01,4,7,0.758,8,05,-0.107777778,-0.257777778,1,0,0,0.849,Basalt_rect,2,0.849,1,11,0,11,0,1,,,,,,,,,,,,,
60b7d18beb67181cd97d7ac5,SCR,2024-06-26_12h35.04.378,LearnStrategy,2023.2.3,MacIntel,58.82352941,6,1,13,-0.358888889,-0.406666667,1,0,0,1.512,Peridotite_16,7,16,1,2,1.512,7,16,-0.135555556,-0.396666667,1,0,0,2.452,Pegmatite_rect,6,2.452,0,12,0,12,0,1,,,,,,,,,,,,,
60b7d18beb67181cd97d7ac5,SCR,2024-06-26_12h35.04.378,LearnStrategy,2023.2.3,MacIntel,58.82352941,6,1,14,-0.364444444,-0.415555556,1,0,0,1.203,Peridotite_16,7,16,1,2,1.203,3,16,0.113333333,-0.388888889,1,0,0,1.281,Peridotite_rect,7,1.281,1,13,0,13,0,1,,,,,,,,,,,,,
60b7d18beb67181cd97d7ac5,SCR,2024-06-26_12h35.04.378,LearnStrategy,2023.2.3,MacIntel,58.82352941,6,1,15,-0.531111111,0.407777778,1,0,0,1.7,Pegmatite_07,6,07,6,1,1.7,6,07,-0.101111111,-0.396666667,1,0,0,1.404,Pegmatite_rect,6,1.404,1,14,0,14,0,1,,,,,,,,,,,,,
60b7d18beb67181cd97d7ac5,SCR,2024-06-26_12h35.04.378,LearnStrategy,2023.2.3,MacIntel,58.82352941,6,1,16,-0.364444444,0.415555556,1,0,0,1.282,Diorite_09,3,09,6,2,1.282,6,07,0.348888889,-0.245555556,1,0,0,2.981,Gabbro_rect,4,2.981,0,15,0,15,0,1,,,,,,,,,,,,,
60b7d18beb67181cd97d7ac5,SCR,2024-06-26_12h35.04.378,LearnStrategy,2023.2.3,MacIntel,58.82352941,6,2,1,,,,,,,,4,14,,,,,,,,,,,,,1,20.957,0,,,,,,-0.354444444,-0.248888889,1,0,0,20.957,Andesite_rect,0,0,0,0,1,
60b7d18beb67181cd97d7ac5,SCR,2024-06-26_12h35.04.378,LearnStrategy,2023.2.3,MacIntel,58.82352941,6,2,2,,,,,,,,5,11,,,,,,,,,,,,,5,1.556,1,,,,,,-0.394444444,-0.398888889,1,0,0,1.556,Obsidian_rect,1,0,1,0,1,
60b7d18beb67181cd97d7ac5,SCR,2024-06-26_12h35.04.378,LearnStrategy,2023.2.3,MacIntel,58.82352941,6,2,3,,,,,,,,2,16,,,,,,,,,,,,,2,1.471,1,,,,,,-0.12,-0.245555556,1,0,0,1.471,Basalt_rect,2,0,2,0,1,
60b7d18beb67181cd97d7ac5,SCR,2024-06-26_12h35.04.378,LearnStrategy,2023.2.3,MacIntel,58.82352941,6,2,4,,,,,,,,3,12,,,,,,,,,,,,,3,1.796,1,,,,,,0.191111111,-0.248888889,1,0,0,1.796,Diorite_rect,3,0,3,0,1,
60b7d18beb67181cd97d7ac5,SCR,2024-06-26_12h35.04.378,LearnStrategy,2023.2.3,MacIntel,58.82352941,6,2,5,,,,,,,,4,16,,,,,,,,,,,,,2,2.058,0,,,,,,-0.067777778,-0.26,1,0,0,2.058,Basalt_rect,4,0,4,0,1,
60b7d18beb67181cd97d7ac5,SCR,2024-06-26_12h35.04.378,LearnStrategy,2023.2.3,MacIntel,58.82352941,6,2,6,,,,,,,,5,02,,,,,,,,,,,,,5,1.152,1,,,,,,-0.416666667,-0.408888889,1,0,0,1.152,Obsidian_rect,5,0,5,0,1,
60b7d18beb67181cd97d7ac5,SCR,2024-06-26_12h35.04.378,LearnStrategy,2023.2.3,MacIntel,58.82352941,6,2,7,,,,,,,,7,05,,,,,,,,,,,,,7,3.391,1,,,,,,0.066666667,-0.401111111,1,0,0,3.391,Peridotite_rect,6,0,6,0,1,
60b7d18beb67181cd97d7ac5,SCR,2024-06-26_12h35.04.378,LearnStrategy,2023.2.3,MacIntel,58.82352941,6,2,8,,,,,,,,6,12,,,,,,,,,,,,,6,0.939,1,,,,,,-0.084444444,-0.403333333,1,0,0,0.939,Pegmatite_rect,7,0,7,0,1,
60b7d18beb67181cd97d7ac5,SCR,2024-06-26_12h35.04.378,LearnStrategy,2023.2.3,MacIntel,58.82352941,6,2,9,,,,,,,,3,11,,,,,,,,,,,,,6,0.911,0,,,,,,-0.082222222,-0.403333333,1,0,0,0.911,Pegmatite_rect,8,0,8,0,1,
60b7d18beb67181cd97d7ac5,SCR,2024-06-26_12h35.04.378,LearnStrategy,2023.2.3,MacIntel,58.82352941,6,2,10,,,,,,,,7,06,,,,,,,,,,,,,7,1.482,1,,,,,,0.098888889,-0.396666667,1,0,0,1.482,Peridotite_rect,9,0,9,0,1,
60b7d18beb67181cd97d7ac5,SCR,2024-06-26_12h35.04.378,LearnStrategy,2023.2.3,MacIntel,58.82352941,6,2,11,,,,,,,,1,05,,,,,,,,,,,,,7,1.575,0,,,,,,0.134444444,-0.404444444,1,0,0,1.575,Peridotite_rect,10,0,10,0,1,
60b7d18beb67181cd97d7ac5,SCR,2024-06-26_12h35.04.378,LearnStrategy,2023.2.3,MacIntel,58.82352941,6,2,12,,,,,,,,2,02,,,,,,,,,,,,,1,1.476,0,,,,,,-0.422222222,-0.252222222,1,0,0,1.476,Andesite_rect,11,0,11,0,1,
60b7d18beb67181cd97d7ac5,SCR,2024-06-26_12h35.04.378,LearnStrategy,2023.2.3,MacIntel,58.82352941,6,2,13,,,,,,,,6,13,,,,,,,,,,,,,3,2.864,0,,,,,,0.158888889,-0.245555556,1,0,0,2.864,Diorite_rect,12,0,12,0,1,
60b7d18beb67181cd97d7ac5,SCR,2024-06-26_12h35.04.378,LearnStrategy,2023.2.3,MacIntel,58.82352941,6,2,14,,,,,,,,8,04,,,,,,,,,,,,,8,2.612,1,,,,,,0.357777778,-0.405555556,1,0,0,2.612,Pumice_rect,13,0,13,0,1,
60b7d18beb67181cd97d7ac5,SCR,2024-06-26_12h35.04.378,LearnStrategy,2023.2.3,MacIntel,58.82352941,6,2,15,,,,,,,,1,04,,,,,,,,,,,,,7,3.282,0,,,,,,0.15,-0.397777778,1,0,0,3.282,Peridotite_rect,14,0,14,0,1,
60b7d18beb67181cd97d7ac5,SCR,2024-06-26_12h35.04.378,LearnStrategy,2023.2.3,MacIntel,58.82352941,6,2,16,,,,,,,,8,02,,,,,,,,,,,,,8,1.204,1,,,,,,0.323333333,-0.39,1,0,0,1.204,Pumice_rect,15,0,15,0,1,
60b7d18beb67181cd97d7ac5,SCR,2024-06-26_12h35.04.378,LearnStrategy,2023.2.3,MacIntel,58.82352941,7,1,1,0.214444444,0.093333333,1,0,0,1.332,Peridotite_04,7,04,4,6,1.332,7,04,0.135555556,-0.23,1,0,0,1.311,Diorite_rect,3,1.311,0,0,0,0,0,1,,,,,,,,,,,,,
60b7d18beb67181cd97d7ac5,SCR,2024-06-26_12h35.04.378,LearnStrategy,2023.2.3,MacIntel,58.82352941,7,1,2,0.22,0.088888889,1,0,0,1.215,Peridotite_04,7,04,4,6,1.215,4,03,0.088888889,-0.416666667,1,0,0,0.871,Peridotite_rect,7,0.871,1,1,0,1,0,1,,,,,,,,,,,,,
60b7d18beb67181cd97d7ac5,SCR,2024-06-26_12h35.04.378,LearnStrategy,2023.2.3,MacIntel,58.82352941,7,1,3,0.101111111,-0.104444444,1,0,0,1.844,Peridotite_14,7,14,3,5,1.844,2,11,-0.11,-0.394444444,1,0,0,1.613,Pegmatite_rect,6,1.613,0,2,0,2,0,1,,,,,,,,,,,,,
60b7d18beb67181cd97d7ac5,SCR,2024-06-26_12h35.04.378,LearnStrategy,2023.2.3,MacIntel,58.82352941,7,1,4,0.058888889,-0.044444444,1,0,0,1.038,Peridotite_14,7,14,3,5,1.038,1,10,0.083333333,-0.396666667,1,0,0,0.893,Peridotite_rect,7,0.893,1,3,0,3,0,1,,,,,,,,,,,,,
60b7d18beb67181cd97d7ac5,SCR,2024-06-26_12h35.04.378,LearnStrategy,2023.2.3,MacIntel,58.82352941,7,1,5,0.225555556,0.072222222,1,0,0,1.388,Peridotite_04,7,04,4,6,1.388,6,11,0.135555556,-0.413333333,1,0,0,1.1,Peridotite_rect,7,1.1,1,4,0,4,0,1,,,,,,,,,,,,,
60b7d18beb67181cd97d7ac5,SCR,2024-06-26_12h35.04.378,LearnStrategy,2023.2.3,MacIntel,58.82352941,7,1,6,0.382222222,0.094444444,1,0,0,3.316,Basalt_01,2,01,4,7,3.316,3,09,-0.153333333,-0.27,1,0,0,1.627,Basalt_rect,2,1.627,1,5,0,5,0,1,,,,,,,,,,,,,
60b7d18beb67181cd97d7ac5,SCR,2024-06-26_12h35.04.378,LearnStrategy,2023.2.3,MacIntel,58.82352941,7,1,7,-0.066666667,0.286666667,1,0,0,1.304,Andesite_07,1,07,5,4,1.304,4,15,0.092222222,-0.248888889,1,0,0,2.774,Diorite_rect,3,2.774,0,6,0,6,0,1,,,,,,,,,,,,,
60b7d18beb67181cd97d7ac5,SCR,2024-06-26_12h35.04.378,LearnStrategy,2023.2.3,MacIntel,58.82352941,7,1,8,-0.081111111,0.271111111,1,0,0,1.009,Andesite_07,1,07,5,4,1.009,8,03,-0.4,-0.237777778,1,0,0,0.848,Andesite_rect,1,0.848,1,7,0,7,0,1,,,,,,,,,,,,,
60b7d18beb67181cd97d7ac5,SCR,2024-06-26_12h35.04.378,LearnStrategy,2023.2.3,MacIntel,58.82352941,7,1,9,0.504444444,0.385555556,1,0,0,1.951,Pegmatite_15,6,15,6,8,1.951,4,13,-0.127777778,-0.405555556,1,0,0,2.705,Pegmatite_rect,6,2.705,1,8,0,8,0,1,,,,,,,,,,,,,
60b7d18beb67181cd97d7ac5,SCR,2024-06-26_12h35.04.378,LearnStrategy,2023.2.3,MacIntel,58.82352941,7,1,10,0.068888889,0.266666667,1,0,0,1.828,Pegmatite_10,6,10,5,5,1.828,6,10,-0.141111111,-0.41,1,0,0,1.756,Pegmatite_rect,6,1.756,1,9,0,9,0,1,,,,,,,,,,,,,
60b7d18beb67181cd97d7ac5,SCR,2024-06-26_12h35.04.378,LearnStrategy,2023.2.3,MacIntel,58.82352941,7,1,11,0.557777778,0.297777778,1,0,0,3.412,Diorite_14,3,14,5,8,3.412,3,14,-0.156666667,-0.396666667,1,0,0,1.321,Pegmatite_rect,6,1.321,0,10,0,10,0,1,,,,,,,,,,,,,
60b7d18beb67181cd97d7ac5,SCR,2024-06-26_12h35.04.378,LearnStrategy,2023.2.3,MacIntel,58.82352941,7,1,12,0.563333333,0.262222222,1,0,0,0.915,Diorite_14,3,14,5,8,0.915,1,11,0.158888889,-0.253333333,1,0,0,0.872,Diorite_rect,3,0.872,1,11,0,11,0,1,,,,,,,,,,,,,
60b7d18beb67181cd97d7ac5,SCR,2024-06-26_12h35.04.378,LearnStrategy,2023.2.3,MacIntel,58.82352941,7,1,13,0.37,0.107777778,1,0,0,1.087,Basalt_01,2,01,4,7,1.087,2,01,-0.13,-0.23,1,0,0,1.035,Basalt_rect,2,1.035,1,12,0,12,0,1,,,,,,,,,,,,,
60b7d18beb67181cd97d7ac5,SCR,2024-06-26_12h35.04.378,LearnStrategy,2023.2.3,MacIntel,58.82352941,7,1,14,0.572222222,-0.096666667,1,0,0,8.08,Andesite_14,1,14,3,8,8.08,1,10,0.137777778,-0.247777778,1,0,0,3.78,Diorite_rect,3,3.78,0,13,0,13,0,1,,,,,,,,,,,,,
60b7d18beb67181cd97d7ac5,SCR,2024-06-26_12h35.04.378,LearnStrategy,2023.2.3,MacIntel,58.82352941,7,1,15,-0.421111111,-0.403333333,1,0,0,1.562,Peridotite_16,7,16,1,2,1.562,7,16,-0.135555556,-0.392222222,1,0,0,1.249,Pegmatite_rect,6,1.249,0,14,0,14,0,1,,,,,,,,,,,,,
60b7d18beb67181cd97d7ac5,SCR,2024-06-26_12h35.04.378,LearnStrategy,2023.2.3,MacIntel,58.82352941,7,1,16,-0.552222222,-0.257777778,1,0,0,1.304,Diorite_16,3,16,2,1,1.304,3,16,-0.176666667,-0.248888889,1,0,0,1.193,Basalt_rect,2,1.193,0,15,0,15,0,1,,,,,,,,,,,,,
60b7d18beb67181cd97d7ac5,SCR,2024-06-26_12h35.04.378,LearnStrategy,2023.2.3,MacIntel,58.82352941,7,2,1,,,,,,,,1,02,,,,,,,,,,,,,3,3.72,0,,,,,,0.157777778,-0.242222222,1,0,0,3.72,Diorite_rect,0,0,0,0,1,
60b7d18beb67181cd97d7ac5,SCR,2024-06-26_12h35.04.378,LearnStrategy,2023.2.3,MacIntel,58.82352941,7,2,2,,,,,,,,5,12,,,,,,,,,,,,,5,1.24,1,,,,,,-0.34,-0.392222222,1,0,0,1.24,Obsidian_rect,1,0,1,0,1,
60b7d18beb67181cd97d7ac5,SCR,2024-06-26_12h35.04.378,LearnStrategy,2023.2.3,MacIntel,58.82352941,7,2,3,,,,,,,,6,08,,,,,,,,,,,,,6,1.308,1,,,,,,-0.154444444,-0.416666667,1,0,0,1.308,Pegmatite_rect,2,0,2,0,1,
60b7d18beb67181cd97d7ac5,SCR,2024-06-26_12h35.04.378,LearnStrategy,2023.2.3,MacIntel,58.82352941,7,2,4,,,,,,,,3,07,,,,,,,,,,,,,3,3.688,1,,,,,,0.104444444,-0.261111111,1,0,0,3.688,Diorite_rect,3,0,3,0,1,
60b7d18beb67181cd97d7ac5,SCR,2024-06-26_12h35.04.378,LearnStrategy,2023.2.3,MacIntel,58.82352941,7,2,5,,,,,,,,2,09,,,,,,,,,,,,,2,1.352,1,,,,,,-0.156666667,-0.235555556,1,0,0,1.352,Basalt_rect,4,0,4,0,1,
60b7d18beb67181cd97d7ac5,SCR,2024-06-26_12h35.04.378,LearnStrategy,2023.2.3,MacIntel,58.82352941,7,2,6,,,,,,,,8,16,,,,,,,,,,,,,8,1.308,1,,,,,,0.348888889,-0.414444444,1,0,0,1.308,Pumice_rect,5,0,5,0,1,
60b7d18beb67181cd97d7ac5,SCR,2024-06-26_12h35.04.378,LearnStrategy,2023.2.3,MacIntel,58.82352941,7,2,7,,,,,,,,1,03,,,,,,,,,,,,,3,2.475,0,,,,,,0.106666667,-0.245555556,1,0,0,2.475,Diorite_rect,6,0,6,0,1,
60b7d18beb67181cd97d7ac5,SCR,2024-06-26_12h35.04.378,LearnStrategy,2023.2.3,MacIntel,58.82352941,7,2,8,,,,,,,,5,04,,,,,,,,,,,,,5,3.533,1,,,,,,-0.391111111,-0.403333333,1,0,0,3.533,Obsidian_rect,7,0,7,0,1,
60b7d18beb67181cd97d7ac5,SCR,2024-06-26_12h35.04.378,LearnStrategy,2023.2.3,MacIntel,58.82352941,7,2,9,,,,,,,,4,08,,,,,,,,,,,,,6,1.797,0,,,,,,-0.156666667,-0.404444444,1,0,0,1.797,Pegmatite_rect,8,0,8,0,1,
60b7d18beb67181cd97d7ac5,SCR,2024-06-26_12h35.04.378,LearnStrategy,2023.2.3,MacIntel,58.82352941,7,2,10,,,,,,,,7,13,,,,,,,,,,,,,7,7.278,1,,,,,,0.096666667,-0.412222222,1,0,0,7.278,Peridotite_rect,9,0,9,0,1,
60b7d18beb67181cd97d7ac5,SCR,2024-06-26_12h35.04.378,LearnStrategy,2023.2.3,MacIntel,58.82352941,7,2,11,,,,,,,,7,08,,,,,,,,,,,,,6,2.699,0,,,,,,-0.141111111,-0.386666667,1,0,0,2.699,Pegmatite_rect,10,0,10,0,1,
60b7d18beb67181cd97d7ac5,SCR,2024-06-26_12h35.04.378,LearnStrategy,2023.2.3,MacIntel,58.82352941,7,2,12,,,,,,,,4,10,,,,,,,,,,,,,2,3.916,0,,,,,,-0.143333333,-0.266666667,1,0,0,3.916,Basalt_rect,11,0,11,0,1,
60b7d18beb67181cd97d7ac5,SCR,2024-06-26_12h35.04.378,LearnStrategy,2023.2.3,MacIntel,58.82352941,7,2,13,,,,,,,,2,08,,,,,,,,,,,,,2,2.165,1,,,,,,-0.106666667,-0.256666667,1,0,0,2.165,Basalt_rect,12,0,12,0,1,
60b7d18beb67181cd97d7ac5,SCR,2024-06-26_12h35.04.378,LearnStrategy,2023.2.3,MacIntel,58.82352941,7,2,14,,,,,,,,8,06,,,,,,,,,,,,,8,1.202,1,,,,,,0.436666667,-0.391111111,1,0,0,1.202,Pumice_rect,13,0,13,0,1,
60b7d18beb67181cd97d7ac5,SCR,2024-06-26_12h35.04.378,LearnStrategy,2023.2.3,MacIntel,58.82352941,7,2,15,,,,,,,,6,06,,,,,,,,,,,,,7,1.656,0,,,,,,0.195555556,-0.394444444,1,0,0,1.656,Peridotite_rect,14,0,14,0,1,
60b7d18beb67181cd97d7ac5,SCR,2024-06-26_12h35.04.378,LearnStrategy,2023.2.3,MacIntel,58.82352941,7,2,16,,,,,,,,3,06,,,,,,,,,,,,,3,1.376,1,,,,,,0.167777778,-0.257777778,1,0,0,1.376,Diorite_rect,15,0,15,0,1,
60b7d18beb67181cd97d7ac5,SCR,2024-06-26_12h35.04.378,LearnStrategy,2023.2.3,MacIntel,58.82352941,8,1,1,0.243333333,-0.25,1,0,0,0.921,Gabbro_05,4,05,2,6,0.921,4,05,-0.398888889,-0.243333333,1,0,0,1.683,Andesite_rect,1,1.683,0,0,0,0,0,1,,,,,,,,,,,,,
60b7d18beb67181cd97d7ac5,SCR,2024-06-26_12h35.04.378,LearnStrategy,2023.2.3,MacIntel,58.82352941,8,1,2,-0.557777778,-0.412222222,1,0,0,1.165,Basalt_12,2,12,1,1,1.165,2,12,-0.414444444,-0.252222222,1,0,0,1.696,Andesite_rect,1,1.696,0,1,0,1,0,1,,,,,,,,,,,,,
60b7d18beb67181cd97d7ac5,SCR,2024-06-26_12h35.04.378,LearnStrategy,2023.2.3,MacIntel,58.82352941,8,1,3,0.252222222,0.384444444,1,0,0,1.281,Diorite_13,3,13,6,6,1.281,3,13,-0.386666667,-0.253333333,1,0,0,1.289,Andesite_rect,1,1.289,0,2,0,2,0,1,,,,,,,,,,,,,
60b7d18beb67181cd97d7ac5,SCR,2024-06-26_12h35.04.378,LearnStrategy,2023.2.3,MacIntel,58.82352941,8,1,4,-0.544444444,0.083333333,1,0,0,1.119,Andesite_09,1,09,4,1,1.119,1,09,0.393333333,-0.26,1,0,0,1.256,Gabbro_rect,4,1.256,0,3,0,3,0,1,,,,,,,,,,,,,
60b7d18beb67181cd97d7ac5,SCR,2024-06-26_12h35.04.378,LearnStrategy,2023.2.3,MacIntel,58.82352941,8,1,5,-0.094444444,0.256666667,1,0,0,0.771,Andesite_07,1,07,5,4,0.771,1,07,-0.423333333,-0.254444444,1,0,0,0.94,Andesite_rect,1,0.94,1,4,0,4,0,1,,,,,,,,,,,,,
60b7d18beb67181cd97d7ac5,SCR,2024-06-26_12h35.04.378,LearnStrategy,2023.2.3,MacIntel,58.82352941,8,1,6,-0.394444444,-0.417777778,1,0,0,1.208,Peridotite_16,7,16,1,2,1.208,7,16,-0.427777778,-0.378888889,1,0,0,1.098,Obsidian_rect,5,1.098,0,5,0,5,0,1,,,,,,,,,,,,,
60b7d18beb67181cd97d7ac5,SCR,2024-06-26_12h35.04.378,LearnStrategy,2023.2.3,MacIntel,58.82352941,8,1,7,0.253333333,0.086666667,1,0,0,1.143,Peridotite_04,7,04,4,6,1.143,7,04,0.108888889,-0.25,1,0,0,2.03,Diorite_rect,3,2.03,0,6,0,6,0,1,,,,,,,,,,,,,
60b7d18beb67181cd97d7ac5,SCR,2024-06-26_12h35.04.378,LearnStrategy,2023.2.3,MacIntel,58.82352941,8,1,8,-0.092222222,0.418888889,1,0,0,1.126,Basalt_04,2,04,6,4,1.126,2,04,0.124444444,-0.251111111,1,0,0,1.928,Diorite_rect,3,1.928,0,7,0,7,0,1,,,,,,,,,,,,,
60b7d18beb67181cd97d7ac5,SCR,2024-06-26_12h35.04.378,LearnStrategy,2023.2.3,MacIntel,58.82352941,8,1,9,-0.546666667,-0.25,1,0,0,1.242,Diorite_16,3,16,2,1,1.242,3,16,-0.162222222,-0.266666667,1,0,0,1.739,Basalt_rect,2,1.739,0,8,0,8,0,1,,,,,,,,,,,,,
60b7d18beb67181cd97d7ac5,SCR,2024-06-26_12h35.04.378,LearnStrategy,2023.2.3,MacIntel,58.82352941,8,1,10,0.071111111,-0.405555556,1,0,0,1.056,Andesite_11,1,11,1,5,1.056,1,11,0.133333333,-0.403333333,1,0,0,1.319,Peridotite_rect,7,1.319,0,9,0,9,0,1,,,,,,,,,,,,,
60b7d18beb67181cd97d7ac5,SCR,2024-06-26_12h35.04.378,LearnStrategy,2023.2.3,MacIntel,58.82352941,8,1,11,-0.22,-0.084444444,1,0,0,0.774,Gabbro_11,4,11,3,3,0.774,4,11,-0.138888889,-0.236666667,1,0,0,0.957,Basalt_rect,2,0.957,0,10,0,10,0,1,,,,,,,,,,,,,
60b7d18beb67181cd97d7ac5,SCR,2024-06-26_12h35.04.378,LearnStrategy,2023.2.3,MacIntel,58.82352941,8,1,12,-0.541111111,-0.107777778,1,0,0,1.568,Pegmatite_05,6,05,3,1,1.568,6,05,-0.155555556,-0.256666667,1,0,0,1.024,Basalt_rect,2,1.024,0,11,0,11,0,1,,,,,,,,,,,,,
60b7d18beb67181cd97d7ac5,SCR,2024-06-26_12h35.04.378,LearnStrategy,2023.2.3,MacIntel,58.82352941,8,1,13,-0.26,0.387777778,1,0,0,1.172,Andesite_01,1,01,6,3,1.172,1,01,-0.172222222,-0.231111111,1,0,0,0.985,Basalt_rect,2,0.985,0,12,0,12,0,1,,,,,,,,,,,,,
60b7d18beb67181cd97d7ac5,SCR,2024-06-26_12h35.04.378,LearnStrategy,2023.2.3,MacIntel,58.82352941,8,1,14,0.264444444,-0.25,1,0,0,1.217,Gabbro_05,4,05,2,6,1.217,4,05,-0.143333333,-0.251111111,1,0,0,1.432,Basalt_rect,2,1.432,0,13,0,13,0,1,,,,,,,,,,,,,
60b7d18beb67181cd97d7ac5,SCR,2024-06-26_12h35.04.378,LearnStrategy,2023.2.3,MacIntel,58.82352941,8,1,15,0.37,0.257777778,1,0,0,0.993,Pumice_03,8,03,5,7,0.993,8,03,0.375555556,-0.398888889,1,0,0,1.311,Pumice_rect,8,1.311,1,14,0,14,0,1,,,,,,,,,,,,,
60b7d18beb67181cd97d7ac5,SCR,2024-06-26_12h35.04.378,LearnStrategy,2023.2.3,MacIntel,58.82352941,8,1,16,-0.565555556,-0.09,1,0,0,0.914,Pegmatite_05,6,05,3,1,0.914,6,05,-0.125555556,-0.418888889,1,0,0,1.31,Pegmatite_rect,6,1.31,1,15,0,15,0,1,,,,,,,,,,,,,
60b7d18beb67181cd97d7ac5,SCR,2024-06-26_12h35.04.378,LearnStrategy,2023.2.3,MacIntel,58.82352941,8,2,1,,,,,,,,6,09,,,,,,,,,,,,,3,2.012,0,,,,,,0.154444444,-0.238888889,1,0,0,2.012,Diorite_rect,0,0,0,0,1,
60b7d18beb67181cd97d7ac5,SCR,2024-06-26_12h35.04.378,LearnStrategy,2023.2.3,MacIntel,58.82352941,8,2,2,,,,,,,,5,10,,,,,,,,,,,,,5,1.26,1,,,,,,-0.435555556,-0.406666667,1,0,0,1.26,Obsidian_rect,1,0,1,0,1,
60b7d18beb67181cd97d7ac5,SCR,2024-06-26_12h35.04.378,LearnStrategy,2023.2.3,MacIntel,58.82352941,8,2,3,,,,,,,,1,06,,,,,,,,,,,,,4,3.746,0,,,,,,0.311111111,-0.267777778,1,0,0,3.746,Gabbro_rect,2,0,2,0,1,
60b7d18beb67181cd97d7ac5,SCR,2024-06-26_12h35.04.378,LearnStrategy,2023.2.3,MacIntel,58.82352941,8,2,4,,,,,,,,4,12,,,,,,,,,,,,,2,1.896,0,,,,,,-0.094444444,-0.248888889,1,0,0,1.896,Basalt_rect,3,0,3,0,1,
60b7d18beb67181cd97d7ac5,SCR,2024-06-26_12h35.04.378,LearnStrategy,2023.2.3,MacIntel,58.82352941,8,2,5,,,,,,,,5,02,,,,,,,,,,,,,5,1.015,1,,,,,,-0.44,-0.416666667,1,0,0,1.015,Obsidian_rect,4,0,4,0,1,
60b7d18beb67181cd97d7ac5,SCR,2024-06-26_12h35.04.378,LearnStrategy,2023.2.3,MacIntel,58.82352941,8,2,6,,,,,,,,7,05,,,,,,,,,,,,,1,2.717,0,,,,,,-0.348888889,-0.268888889,1,0,0,2.717,Andesite_rect,5,0,5,0,1,
60b7d18beb67181cd97d7ac5,SCR,2024-06-26_12h35.04.378,LearnStrategy,2023.2.3,MacIntel,58.82352941,8,2,7,,,,,,,,8,15,,,,,,,,,,,,,8,1.509,1,,,,,,0.365555556,-0.392222222,1,0,0,1.509,Pumice_rect,6,0,6,0,1,
60b7d18beb67181cd97d7ac5,SCR,2024-06-26_12h35.04.378,LearnStrategy,2023.2.3,MacIntel,58.82352941,8,2,8,,,,,,,,3,11,,,,,,,,,,,,,7,1.506,0,,,,,,0.158888889,-0.391111111,1,0,0,1.506,Peridotite_rect,7,0,7,0,1,
60b7d18beb67181cd97d7ac5,SCR,2024-06-26_12h35.04.378,LearnStrategy,2023.2.3,MacIntel,58.82352941,8,2,9,,,,,,,,6,16,,,,,,,,,,,,,6,1.485,1,,,,,,-0.08,-0.393333333,1,0,0,1.485,Pegmatite_rect,8,0,8,0,1,
60b7d18beb67181cd97d7ac5,SCR,2024-06-26_12h35.04.378,LearnStrategy,2023.2.3,MacIntel,58.82352941,8,2,10,,,,,,,,3,15,,,,,,,,,,,,,2,0.941,0,,,,,,-0.16,-0.25,1,0,0,0.941,Basalt_rect,9,0,9,0,1,
60b7d18beb67181cd97d7ac5,SCR,2024-06-26_12h35.04.378,LearnStrategy,2023.2.3,MacIntel,58.82352941,8,2,11,,,,,,,,8,02,,,,,,,,,,,,,8,2.212,1,,,,,,0.382222222,-0.4,1,0,0,2.212,Pumice_rect,10,0,10,0,1,
60b7d18beb67181cd97d7ac5,SCR,2024-06-26_12h35.04.378,LearnStrategy,2023.2.3,MacIntel,58.82352941,8,2,12,,,,,,,,2,05,,,,,,,,,,,,,2,1.331,1,,,,,,-0.1,-0.27,1,0,0,1.331,Basalt_rect,11,0,11,0,1,
60b7d18beb67181cd97d7ac5,SCR,2024-06-26_12h35.04.378,LearnStrategy,2023.2.3,MacIntel,58.82352941,8,2,13,,,,,,,,7,07,,,,,,,,,,,,,3,1.625,0,,,,,,0.15,-0.241111111,1,0,0,1.625,Diorite_rect,12,0,12,0,1,
60b7d18beb67181cd97d7ac5,SCR,2024-06-26_12h35.04.378,LearnStrategy,2023.2.3,MacIntel,58.82352941,8,2,14,,,,,,,,2,02,,,,,,,,,,,,,2,2.245,1,,,,,,-0.126666667,-0.23,1,0,0,2.245,Basalt_rect,13,0,13,0,1,
60b7d18beb67181cd97d7ac5,SCR,2024-06-26_12h35.04.378,LearnStrategy,2023.2.3,MacIntel,58.82352941,8,2,15,,,,,,,,1,05,,,,,,,,,,,,,7,2.335,0,,,,,,0.114444444,-0.402222222,1,0,0,2.335,Peridotite_rect,14,0,14,0,1,
60b7d18beb67181cd97d7ac5,SCR,2024-06-26_12h35.04.378,LearnStrategy,2023.2.3,MacIntel,58.82352941,8,2,16,,,,,,,,4,16,,,,,,,,,,,,,6,3.074,0,,,,,,-0.178888889,-0.41,1,0,0,3.074,Pegmatite_rect,15,0,15,0,1,
60b7d18beb67181cd97d7ac5,SCR,2024-06-26_12h35.04.378,LearnStrategy,2023.2.3,MacIntel,58.82352941,9,1,1,-0.564444444,0.097777778,1,0,0,2.19,Andesite_09,1,09,4,1,2.19,1,09,-0.145555556,-0.231111111,1,0,0,1.185,Basalt_rect,2,1.185,0,0,0,0,0,1,,,,,,,,,,,,,
60b7d18beb67181cd97d7ac5,SCR,2024-06-26_12h35.04.378,LearnStrategy,2023.2.3,MacIntel,58.82352941,9,1,2,0.55,-0.077777778,1,0,0,1.111,Andesite_14,1,14,3,8,1.111,1,14,0.123333333,-0.268888889,1,0,0,0.814,Diorite_rect,3,0.814,0,1,0,1,0,1,,,,,,,,,,,,,
60b7d18beb67181cd97d7ac5,SCR,2024-06-26_12h35.04.378,LearnStrategy,2023.2.3,MacIntel,58.82352941,9,1,3,0.396666667,-0.271111111,1,0,0,0.787,Gabbro_03,4,03,2,7,0.787,4,03,0.116666667,-0.253333333,1,0,0,0.634,Diorite_rect,3,0.634,0,2,0,2,0,1,,,,,,,,,,,,,
60b7d18beb67181cd97d7ac5,SCR,2024-06-26_12h35.04.378,LearnStrategy,2023.2.3,MacIntel,58.82352941,9,1,4,0.1,-0.128888889,1,0,0,0.537,Peridotite_14,7,14,3,5,0.537,3,09,0.054444444,-0.237777778,1,0,0,0.784,Diorite_rect,3,0.784,0,3,0,3,0,1,,,,,,,,,,,,,
60b7d18beb67181cd97d7ac5,SCR,2024-06-26_12h35.04.378,LearnStrategy,2023.2.3,MacIntel,58.82352941,9,1,5,0.024444444,-0.146666667,1,0,0,0.544,Peridotite_14,7,14,3,5,0.544,7,04,-0.093333333,-0.252222222,1,0,0,0.865,Basalt_rect,2,0.865,0,4,0,4,0,1,,,,,,,,,,,,,
60b7d18beb67181cd97d7ac5,SCR,2024-06-26_12h35.04.378,LearnStrategy,2023.2.3,MacIntel,58.82352941,9,1,6,0.118888889,-0.145555556,1,0,0,0.518,Peridotite_14,7,14,3,5,0.518,2,11,0.062222222,-0.258888889,1,0,0,1.185,Diorite_rect,3,1.185,0,5,0,5,0,1,,,,,,,,,,,,,
60b7d18beb67181cd97d7ac5,SCR,2024-06-26_12h35.04.378,LearnStrategy,2023.2.3,MacIntel,58.82352941,9,1,7,-0.054444444,-0.094444444,1,0,0,0.648,Obsidian_05,5,05,3,4,0.648,6,15,-0.083333333,-0.248888889,1,0,0,0.903,Basalt_rect,2,0.903,0,6,0,6,0,1,,,,,,,,,,,,,
60b7d18beb67181cd97d7ac5,SCR,2024-06-26_12h35.04.378,LearnStrategy,2023.2.3,MacIntel,58.82352941,9,1,8,-0.081111111,-0.135555556,1,0,0,0.813,Obsidian_05,5,05,3,4,0.813,4,11,-0.103333333,-0.252222222,1,0,0,0.733,Basalt_rect,2,0.733,0,7,0,7,0,1,,,,,,,,,,,,,
60b7d18beb67181cd97d7ac5,SCR,2024-06-26_12h35.04.378,LearnStrategy,2023.2.3,MacIntel,58.82352941,9,1,9,0.058888889,-0.093333333,1,0,0,0.599,Peridotite_14,7,14,3,5,0.599,6,03,0.12,-0.254444444,1,0,0,1.611,Diorite_rect,3,1.611,0,8,0,8,0,1,,,,,,,,,,,,,
60b7d18beb67181cd97d7ac5,SCR,2024-06-26_12h35.04.378,LearnStrategy,2023.2.3,MacIntel,58.82352941,9,1,10,0.063333333,-0.233333333,1,0,0,0.931,Peridotite_10,7,10,2,5,0.931,8,09,0.046666667,-0.27,1,0,0,0.796,Diorite_rect,3,0.796,0,9,0,9,0,1,,,,,,,,,,,,,
60b7d18beb67181cd97d7ac5,SCR,2024-06-26_12h35.04.378,LearnStrategy,2023.2.3,MacIntel,58.82352941,9,1,11,-0.074444444,-0.272222222,1,0,0,0.908,Pumice_05,8,05,2,4,0.908,7,12,0.417777778,-0.414444444,1,0,0,1.295,Pumice_rect,8,1.295,1,10,0,10,0,1,,,,,,,,,,,,,
60b7d18beb67181cd97d7ac5,SCR,2024-06-26_12h35.04.378,LearnStrategy,2023.2.3,MacIntel,58.82352941,9,1,12,0.246666667,-0.242222222,1,0,0,1.292,Gabbro_05,4,05,2,6,1.292,3,09,0.132222222,-0.243333333,1,0,0,0.735,Diorite_rect,3,0.735,0,11,0,11,0,1,,,,,,,,,,,,,
60b7d18beb67181cd97d7ac5,SCR,2024-06-26_12h35.04.378,LearnStrategy,2023.2.3,MacIntel,58.82352941,9,1,13,0.285555556,-0.267777778,1,0,0,0.77,Gabbro_05,4,05,2,6,0.77,4,05,0.123333333,-0.243333333,1,0,0,1.241,Diorite_rect,3,1.241,0,12,0,12,0,1,,,,,,,,,,,,,
60b7d18beb67181cd97d7ac5,SCR,2024-06-26_12h35.04.378,LearnStrategy,2023.2.3,MacIntel,58.82352941,9,1,14,0.227777778,-0.22,1,0,0,0.701,Gabbro_05,4,05,2,6,0.701,1,01,0.38,-0.261111111,1,0,0,0.694,Gabbro_rect,4,0.694,1,13,0,13,0,1,,,,,,,,,,,,,
60b7d18beb67181cd97d7ac5,SCR,2024-06-26_12h35.04.378,LearnStrategy,2023.2.3,MacIntel,58.82352941,9,1,15,0.223333333,-0.238888889,1,0,0,1.098,Gabbro_05,4,05,2,6,1.098,3,16,0.372222222,-0.232222222,1,0,0,0.669,Gabbro_rect,4,0.669,1,14,0,14,0,1,,,,,,,,,,,,,
60b7d18beb67181cd97d7ac5,SCR,2024-06-26_12h35.04.378,LearnStrategy,2023.2.3,MacIntel,58.82352941,9,1,16,0.518888889,-0.372222222,1,0,0,1.793,Peridotite_12,7,12,1,8,1.793,7,12,0.395555556,-0.24,1,0,0,1.269,Gabbro_rect,4,1.269,0,15,0,15,0,1,,,,,,,,,,,,,
60b7d18beb67181cd97d7ac5,SCR,2024-06-26_12h35.04.378,LearnStrategy,2023.2.3,MacIntel,58.82352941,9,2,1,,,,,,,,1,16,,,,,,,,,,,,,7,3.934,0,,,,,,0.073333333,-0.4,1,0,0,3.934,Peridotite_rect,0,0,0,0,1,
60b7d18beb67181cd97d7ac5,SCR,2024-06-26_12h35.04.378,LearnStrategy,2023.2.3,MacIntel,58.82352941,9,2,2,,,,,,,,2,16,,,,,,,,,,,,,2,1.795,1,,,,,,-0.15,-0.238888889,1,0,0,1.795,Basalt_rect,1,0,1,0,1,
60b7d18beb67181cd97d7ac5,SCR,2024-06-26_12h35.04.378,LearnStrategy,2023.2.3,MacIntel,58.82352941,9,2,3,,,,,,,,8,10,,,,,,,,,,,,,8,1.33,1,,,,,,0.353333333,-0.403333333,1,0,0,1.33,Pumice_rect,2,0,2,0,1,
60b7d18beb67181cd97d7ac5,SCR,2024-06-26_12h35.04.378,LearnStrategy,2023.2.3,MacIntel,58.82352941,9,2,4,,,,,,,,3,12,,,,,,,,,,,,,4,2.133,0,,,,,,0.422222222,-0.255555556,1,0,0,2.133,Gabbro_rect,3,0,3,0,1,
60b7d18beb67181cd97d7ac5,SCR,2024-06-26_12h35.04.378,LearnStrategy,2023.2.3,MacIntel,58.82352941,9,2,5,,,,,,,,6,13,,,,,,,,,,,,,6,1.946,1,,,,,,-0.18,-0.4,1,0,0,1.946,Pegmatite_rect,4,0,4,0,1,
60b7d18beb67181cd97d7ac5,SCR,2024-06-26_12h35.04.378,LearnStrategy,2023.2.3,MacIntel,58.82352941,9,2,6,,,,,,,,7,02,,,,,,,,,,,,,7,2.742,1,,,,,,0.112222222,-0.407777778,1,0,0,2.742,Peridotite_rect,5,0,5,0,1,
60b7d18beb67181cd97d7ac5,SCR,2024-06-26_12h35.04.378,LearnStrategy,2023.2.3,MacIntel,58.82352941,9,2,7,,,,,,,,4,09,,,,,,,,,,,,,5,1.857,0,,,,,,-0.461111111,-0.411111111,1,0,0,1.857,Obsidian_rect,6,0,6,0,1,
60b7d18beb67181cd97d7ac5,SCR,2024-06-26_12h35.04.378,LearnStrategy,2023.2.3,MacIntel,58.82352941,9,2,8,,,,,,,,6,12,,,,,,,,,,,,,1,1.53,0,,,,,,-0.417777778,-0.228888889,1,0,0,1.53,Andesite_rect,7,0,7,0,1,
60b7d18beb67181cd97d7ac5,SCR,2024-06-26_12h35.04.378,LearnStrategy,2023.2.3,MacIntel,58.82352941,9,2,9,,,,,,,,1,04,,,,,,,,,,,,,2,3.16,0,,,,,,-0.141111111,-0.268888889,1,0,0,3.16,Basalt_rect,8,0,8,0,1,
60b7d18beb67181cd97d7ac5,SCR,2024-06-26_12h35.04.378,LearnStrategy,2023.2.3,MacIntel,58.82352941,9,2,10,,,,,,,,5,11,,,,,,,,,,,,,5,1.198,1,,,,,,-0.41,-0.408888889,1,0,0,1.198,Obsidian_rect,9,0,9,0,1,
60b7d18beb67181cd97d7ac5,SCR,2024-06-26_12h35.04.378,LearnStrategy,2023.2.3,MacIntel,58.82352941,9,2,11,,,,,,,,8,04,,,,,,,,,,,,,8,1.409,1,,,,,,0.347777778,-0.411111111,1,0,0,1.409,Pumice_rect,10,0,10,0,1,
60b7d18beb67181cd97d7ac5,SCR,2024-06-26_12h35.04.378,LearnStrategy,2023.2.3,MacIntel,58.82352941,9,2,12,,,,,,,,5,08,,,,,,,,,,,,,5,1.098,1,,,,,,-0.394444444,-0.393333333,1,0,0,1.098,Obsidian_rect,11,0,11,0,1,
60b7d18beb67181cd97d7ac5,SCR,2024-06-26_12h35.04.378,LearnStrategy,2023.2.3,MacIntel,58.82352941,9,2,13,,,,,,,,7,06,,,,,,,,,,,,,7,1.889,1,,,,,,0.093333333,-0.392222222,1,0,0,1.889,Peridotite_rect,12,0,12,0,1,
60b7d18beb67181cd97d7ac5,SCR,2024-06-26_12h35.04.378,LearnStrategy,2023.2.3,MacIntel,58.82352941,9,2,14,,,,,,,,2,06,,,,,,,,,,,,,2,1.892,1,,,,,,-0.162222222,-0.252222222,1,0,0,1.892,Basalt_rect,13,0,13,0,1,
60b7d18beb67181cd97d7ac5,SCR,2024-06-26_12h35.04.378,LearnStrategy,2023.2.3,MacIntel,58.82352941,9,2,15,,,,,,,,3,10,,,,,,,,,,,,,7,2.726,0,,,,,,0.085555556,-0.408888889,1,0,0,2.726,Peridotite_rect,14,0,14,0,1,
60b7d18beb67181cd97d7ac5,SCR,2024-06-26_12h35.04.378,LearnStrategy,2023.2.3,MacIntel,58.82352941,9,2,16,,,,,,,,4,14,,,,,,,,,,,,,6,1.745,0,,,,,,-0.142222222,-0.41,1,0,0,1.745,Pegmatite_rect,15,0,15,0,1,
60b7d18beb67181cd97d7ac5,SCR,2024-06-26_12h35.04.378,LearnStrategy,2023.2.3,MacIntel,58.82352941,,,,,,,,,,,,,,,,,,,,,,,,,,,,,,,,,,,,,,,,,,,,,0
60b7d18beb67181cd97d7ac5,SCR,2024-06-26_12h35.04.378,LearnStrategy,2023.2.3,MacIntel,58.82352941,,,,,,,,,,,,,,,,,,,,,,,,,,,,,,,,,,,,,,,,,,,,,
60b7d18beb67181cd97d7ac5,SCR,2024-06-26_12h35.04.378,LearnStrategy,2023.2.3,MacIntel,58.82352941,,,,,,,,,,,2,12,1,1,,,,,,,,,,,,,,,,,,,,,,,,,,,,,,,
60b7d18beb67181cd97d7ac5,SCR,2024-06-26_12h35.04.378,LearnStrategy,2023.2.3,MacIntel,58.82352941,,,,,,,,,,,7,16,1,2,,,,,,,,,,,,,,,,,,,,,,,,,,,,,,,
60b7d18beb67181cd97d7ac5,SCR,2024-06-26_12h35.04.378,LearnStrategy,2023.2.3,MacIntel,58.82352941,,,,,,,,,,,3,08,1,3,,,,,,,,,,,,,,,,,,,,,,,,,,,,,,,
60b7d18beb67181cd97d7ac5,SCR,2024-06-26_12h35.04.378,LearnStrategy,2023.2.3,MacIntel,58.82352941,,,,,,,,,,,2,10,1,4,,,,,,,,,,,,,,,,,,,,,,,,,,,,,,,
60b7d18beb67181cd97d7ac5,SCR,2024-06-26_12h35.04.378,LearnStrategy,2023.2.3,MacIntel,58.82352941,,,,,,,,,,,1,11,1,5,,,,,,,,,,,,,,,,,,,,,,,,,,,,,,,
60b7d18beb67181cd97d7ac5,SCR,2024-06-26_12h35.04.378,LearnStrategy,2023.2.3,MacIntel,58.82352941,,,,,,,,,,,8,08,1,6,,,,,,,,,,,,,,,,,,,,,,,,,,,,,,,
60b7d18beb67181cd97d7ac5,SCR,2024-06-26_12h35.04.378,LearnStrategy,2023.2.3,MacIntel,58.82352941,,,,,,,,,,,7,15,1,7,,,,,,,,,,,,,,,,,,,,,,,,,,,,,,,
60b7d18beb67181cd97d7ac5,SCR,2024-06-26_12h35.04.378,LearnStrategy,2023.2.3,MacIntel,58.82352941,,,,,,,,,,,7,12,1,8,,,,,,,,,,,,,,,,,,,,,,,,,,,,,,,
60b7d18beb67181cd97d7ac5,SCR,2024-06-26_12h35.04.378,LearnStrategy,2023.2.3,MacIntel,58.82352941,,,,,,,,,,,3,16,2,1,,,,,,,,,,,,,,,,,,,,,,,,,,,,,,,
60b7d18beb67181cd97d7ac5,SCR,2024-06-26_12h35.04.378,LearnStrategy,2023.2.3,MacIntel,58.82352941,,,,,,,,,,,2,14,2,2,,,,,,,,,,,,,,,,,,,,,,,,,,,,,,,
60b7d18beb67181cd97d7ac5,SCR,2024-06-26_12h35.04.378,LearnStrategy,2023.2.3,MacIntel,58.82352941,,,,,,,,,,,6,03,2,3,,,,,,,,,,,,,,,,,,,,,,,,,,,,,,,
60b7d18beb67181cd97d7ac5,SCR,2024-06-26_12h35.04.378,LearnStrategy,2023.2.3,MacIntel,58.82352941,,,,,,,,,,,8,05,2,4,,,,,,,,,,,,,,,,,,,,,,,,,,,,,,,
60b7d18beb67181cd97d7ac5,SCR,2024-06-26_12h35.04.378,LearnStrategy,2023.2.3,MacIntel,58.82352941,,,,,,,,,,,7,10,2,5,,,,,,,,,,,,,,,,,,,,,,,,,,,,,,,
60b7d18beb67181cd97d7ac5,SCR,2024-06-26_12h35.04.378,LearnStrategy,2023.2.3,MacIntel,58.82352941,,,,,,,,,,,4,05,2,6,,,,,,,,,,,,,,,,,,,,,,,,,,,,,,,
60b7d18beb67181cd97d7ac5,SCR,2024-06-26_12h35.04.378,LearnStrategy,2023.2.3,MacIntel,58.82352941,,,,,,,,,,,4,03,2,7,,,,,,,,,,,,,,,,,,,,,,,,,,,,,,,
60b7d18beb67181cd97d7ac5,SCR,2024-06-26_12h35.04.378,LearnStrategy,2023.2.3,MacIntel,58.82352941,,,,,,,,,,,6,11,2,8,,,,,,,,,,,,,,,,,,,,,,,,,,,,,,,
60b7d18beb67181cd97d7ac5,SCR,2024-06-26_12h35.04.378,LearnStrategy,2023.2.3,MacIntel,58.82352941,,,,,,,,,,,6,05,3,1,,,,,,,,,,,,,,,,,,,,,,,,,,,,,,,
60b7d18beb67181cd97d7ac5,SCR,2024-06-26_12h35.04.378,LearnStrategy,2023.2.3,MacIntel,58.82352941,,,,,,,,,,,8,13,3,2,,,,,,,,,,,,,,,,,,,,,,,,,,,,,,,
60b7d18beb67181cd97d7ac5,SCR,2024-06-26_12h35.04.378,LearnStrategy,2023.2.3,MacIntel,58.82352941,,,,,,,,,,,4,11,3,3,,,,,,,,,,,,,,,,,,,,,,,,,,,,,,,
60b7d18beb67181cd97d7ac5,SCR,2024-06-26_12h35.04.378,LearnStrategy,2023.2.3,MacIntel,58.82352941,,,,,,,,,,,5,05,3,4,,,,,,,,,,,,,,,,,,,,,,,,,,,,,,,
60b7d18beb67181cd97d7ac5,SCR,2024-06-26_12h35.04.378,LearnStrategy,2023.2.3,MacIntel,58.82352941,,,,,,,,,,,7,14,3,5,,,,,,,,,,,,,,,,,,,,,,,,,,,,,,,
60b7d18beb67181cd97d7ac5,SCR,2024-06-26_12h35.04.378,LearnStrategy,2023.2.3,MacIntel,58.82352941,,,,,,,,,,,5,06,3,6,,,,,,,,,,,,,,,,,,,,,,,,,,,,,,,
60b7d18beb67181cd97d7ac5,SCR,2024-06-26_12h35.04.378,LearnStrategy,2023.2.3,MacIntel,58.82352941,,,,,,,,,,,5,14,3,7,,,,,,,,,,,,,,,,,,,,,,,,,,,,,,,
60b7d18beb67181cd97d7ac5,SCR,2024-06-26_12h35.04.378,LearnStrategy,2023.2.3,MacIntel,58.82352941,,,,,,,,,,,1,14,3,8,,,,,,,,,,,,,,,,,,,,,,,,,,,,,,,
60b7d18beb67181cd97d7ac5,SCR,2024-06-26_12h35.04.378,LearnStrategy,2023.2.3,MacIntel,58.82352941,,,,,,,,,,,1,09,4,1,,,,,,,,,,,,,,,,,,,,,,,,,,,,,,,
60b7d18beb67181cd97d7ac5,SCR,2024-06-26_12h35.04.378,LearnStrategy,2023.2.3,MacIntel,58.82352941,,,,,,,,,,,2,11,4,2,,,,,,,,,,,,,,,,,,,,,,,,,,,,,,,
60b7d18beb67181cd97d7ac5,SCR,2024-06-26_12h35.04.378,LearnStrategy,2023.2.3,MacIntel,58.82352941,,,,,,,,,,,4,13,4,3,,,,,,,,,,,,,,,,,,,,,,,,,,,,,,,
60b7d18beb67181cd97d7ac5,SCR,2024-06-26_12h35.04.378,LearnStrategy,2023.2.3,MacIntel,58.82352941,,,,,,,,,,,5,16,4,4,,,,,,,,,,,,,,,,,,,,,,,,,,,,,,,
60b7d18beb67181cd97d7ac5,SCR,2024-06-26_12h35.04.378,LearnStrategy,2023.2.3,MacIntel,58.82352941,,,,,,,,,,,5,09,4,5,,,,,,,,,,,,,,,,,,,,,,,,,,,,,,,
60b7d18beb67181cd97d7ac5,SCR,2024-06-26_12h35.04.378,LearnStrategy,2023.2.3,MacIntel,58.82352941,,,,,,,,,,,7,04,4,6,,,,,,,,,,,,,,,,,,,,,,,,,,,,,,,
60b7d18beb67181cd97d7ac5,SCR,2024-06-26_12h35.04.378,LearnStrategy,2023.2.3,MacIntel,58.82352941,,,,,,,,,,,2,01,4,7,,,,,,,,,,,,,,,,,,,,,,,,,,,,,,,
60b7d18beb67181cd97d7ac5,SCR,2024-06-26_12h35.04.378,LearnStrategy,2023.2.3,MacIntel,58.82352941,,,,,,,,,,,8,14,4,8,,,,,,,,,,,,,,,,,,,,,,,,,,,,,,,
60b7d18beb67181cd97d7ac5,SCR,2024-06-26_12h35.04.378,LearnStrategy,2023.2.3,MacIntel,58.82352941,,,,,,,,,,,5,07,5,1,,,,,,,,,,,,,,,,,,,,,,,,,,,,,,,
60b7d18beb67181cd97d7ac5,SCR,2024-06-26_12h35.04.378,LearnStrategy,2023.2.3,MacIntel,58.82352941,,,,,,,,,,,1,10,5,2,,,,,,,,,,,,,,,,,,,,,,,,,,,,,,,
60b7d18beb67181cd97d7ac5,SCR,2024-06-26_12h35.04.378,LearnStrategy,2023.2.3,MacIntel,58.82352941,,,,,,,,,,,4,01,5,3,,,,,,,,,,,,,,,,,,,,,,,,,,,,,,,
60b7d18beb67181cd97d7ac5,SCR,2024-06-26_12h35.04.378,LearnStrategy,2023.2.3,MacIntel,58.82352941,,,,,,,,,,,1,07,5,4,,,,,,,,,,,,,,,,,,,,,,,,,,,,,,,
60b7d18beb67181cd97d7ac5,SCR,2024-06-26_12h35.04.378,LearnStrategy,2023.2.3,MacIntel,58.82352941,,,,,,,,,,,6,10,5,5,,,,,,,,,,,,,,,,,,,,,,,,,,,,,,,
60b7d18beb67181cd97d7ac5,SCR,2024-06-26_12h35.04.378,LearnStrategy,2023.2.3,MacIntel,58.82352941,,,,,,,,,,,3,02,5,6,,,,,,,,,,,,,,,,,,,,,,,,,,,,,,,
60b7d18beb67181cd97d7ac5,SCR,2024-06-26_12h35.04.378,LearnStrategy,2023.2.3,MacIntel,58.82352941,,,,,,,,,,,8,03,5,7,,,,,,,,,,,,,,,,,,,,,,,,,,,,,,,
60b7d18beb67181cd97d7ac5,SCR,2024-06-26_12h35.04.378,LearnStrategy,2023.2.3,MacIntel,58.82352941,,,,,,,,,,,3,14,5,8,,,,,,,,,,,,,,,,,,,,,,,,,,,,,,,
60b7d18beb67181cd97d7ac5,SCR,2024-06-26_12h35.04.378,LearnStrategy,2023.2.3,MacIntel,58.82352941,,,,,,,,,,,6,07,6,1,,,,,,,,,,,,,,,,,,,,,,,,,,,,,,,
60b7d18beb67181cd97d7ac5,SCR,2024-06-26_12h35.04.378,LearnStrategy,2023.2.3,MacIntel,58.82352941,,,,,,,,,,,3,09,6,2,,,,,,,,,,,,,,,,,,,,,,,,,,,,,,,
60b7d18beb67181cd97d7ac5,SCR,2024-06-26_12h35.04.378,LearnStrategy,2023.2.3,MacIntel,58.82352941,,,,,,,,,,,1,01,6,3,,,,,,,,,,,,,,,,,,,,,,,,,,,,,,,
60b7d18beb67181cd97d7ac5,SCR,2024-06-26_12h35.04.378,LearnStrategy,2023.2.3,MacIntel,58.82352941,,,,,,,,,,,2,04,6,4,,,,,,,,,,,,,,,,,,,,,,,,,,,,,,,
60b7d18beb67181cd97d7ac5,SCR,2024-06-26_12h35.04.378,LearnStrategy,2023.2.3,MacIntel,58.82352941,,,,,,,,,,,8,09,6,5,,,,,,,,,,,,,,,,,,,,,,,,,,,,,,,
60b7d18beb67181cd97d7ac5,SCR,2024-06-26_12h35.04.378,LearnStrategy,2023.2.3,MacIntel,58.82352941,,,,,,,,,,,3,13,6,6,,,,,,,,,,,,,,,,,,,,,,,,,,,,,,,
60b7d18beb67181cd97d7ac5,SCR,2024-06-26_12h35.04.378,LearnStrategy,2023.2.3,MacIntel,58.82352941,,,,,,,,,,,4,15,6,7,,,,,,,,,,,,,,,,,,,,,,,,,,,,,,,
60b7d18beb67181cd97d7ac5,SCR,2024-06-26_12h35.04.378,LearnStrategy,2023.2.3,MacIntel,58.82352941,,,,,,,,,,,6,15,6,8,,,,,,,,,,,,,,,,,,,,,,,,,,,,,,,