participant,condition,date,expName,psychopyVersion,OS,frameRate,block,phase,trial,learn_mouse.x,learn_mouse.y,learn_mouse.leftButton,learn_mouse.midButton,learn_mouse.rightButton,learn_mouse.time,learn_mouse.clicked_name,cat,token,row,col,t_select,cat_rec,token_rec,cat_mouse_l.x,cat_mouse_l.y,cat_mouse_l.leftButton,cat_mouse_l.midButton,cat_mouse_l.rightButton,cat_mouse_l.time,cat_mouse_l.clicked_name,resp,t_resp,corr,train_trials.thisRepN,train_trials.thisTrialN,train_trials.thisN,train_trials.thisIndex,train_trials.ran,cat_mouse_t.x,cat_mouse_t.y,cat_mouse_t.leftButton,cat_mouse_t.midButton,cat_mouse_t.rightButton,cat_mouse_t.time,cat_mouse_t.clicked_name,test_trials.thisRepN,test_trials.thisTrialN,test_trials.thisN,test_trials.thisIndex,test_trials.ran,Bonus
60c4e1091b936c7b812e5af4,SCR,2024-06-11_13h12.26.374,LearnStrategy,2023.2.3,Win32,60.24096386,,,,,,,,,,,,,,,,,,,,,,,,,,,,,,,,,,,,,,,,,,,,,
60c4e1091b936c7b812e5af4,SCR,2024-06-11_13h12.26.374,LearnStrategy,2023.2.3,Win32,60.24096386,1,1,1,-0.564814815,0.262962963,1,0,0,4.9915,Obsidian_02,5,02,5,1,4.992,1,10,-0.380555556,-0.402777778,1,0,0,4.272,Obsidian_rect,5,4.272,1,0,0,0,0,1,,,,,,,,,,,,,
60c4e1091b936c7b812e5af4,SCR,2024-06-11_13h12.26.374,LearnStrategy,2023.2.3,Win32,60.24096386,1,1,2,-0.405555556,-0.408333333,1,0,0,6.7132,Diorite_15,3,15,1,2,6.713,5,16,0.377777778,-0.411111111,1,0,0,6.3673,Pumice_rect,8,6.367,0,1,0,1,0,1,,,,,,,,,,,,,
60c4e1091b936c7b812e5af4,SCR,2024-06-11_13h12.26.374,LearnStrategy,2023.2.3,Win32,60.24096386,1,1,3,0.061111111,-0.241666667,1,0,0,7.3339,Pumice_10,8,10,2,5,7.334,4,13,0.365740741,-0.396296296,1,0,0,5.5982,Pumice_rect,8,5.598,1,2,0,2,0,1,,,,,,,,,,,,,
60c4e1091b936c7b812e5af4,SCR,2024-06-11_13h12.26.374,LearnStrategy,2023.2.3,Win32,60.24096386,1,1,4,0.54537037,-0.402777778,1,0,0,2.8261,Pumice_16,8,16,1,8,2.826,1,04,0.392592593,-0.398148148,1,0,0,5.9609,Pumice_rect,8,5.961,1,3,0,3,0,1,,,,,,,,,,,,,
60c4e1091b936c7b812e5af4,SCR,2024-06-11_13h12.26.374,LearnStrategy,2023.2.3,Win32,60.24096386,1,1,5,-0.224074074,0.09537037,1,0,0,1.4939,Andesite_07,1,07,4,3,1.494,2,02,-0.161111111,-0.393518519,1,0,0,7.8573,Pegmatite_rect,6,7.857,0,4,0,4,0,1,,,,,,,,,,,,,
60c4e1091b936c7b812e5af4,SCR,2024-06-11_13h12.26.374,LearnStrategy,2023.2.3,Win32,60.24096386,1,1,6,-0.224074074,-0.25462963,1,0,0,1.5959,Gabbro_11,4,11,2,3,1.596,3,14,-0.078703704,-0.249074074,1,0,0,3.0153,Basalt_rect,2,3.015,0,5,0,5,0,1,,,,,,,,,,,,,
60c4e1091b936c7b812e5af4,SCR,2024-06-11_13h12.26.374,LearnStrategy,2023.2.3,Win32,60.24096386,1,1,7,0.108333333,-0.415740741,1,0,0,2.4573,Pegmatite_13,6,13,1,5,2.457,5,07,-0.106481481,-0.399074074,1,0,0,6.5234,Pegmatite_rect,6,6.523,1,6,0,6,0,1,,,,,,,,,,,,,
60c4e1091b936c7b812e5af4,SCR,2024-06-11_13h12.26.374,LearnStrategy,2023.2.3,Win32,60.24096386,1,1,8,-0.401851852,-0.258333333,1,0,0,3.4937,Pumice_15,8,15,2,2,3.494,7,12,0.375,-0.24537037,1,0,0,2.6115,Gabbro_rect,4,2.612,0,7,0,7,0,1,,,,,,,,,,,,,
60c4e1091b936c7b812e5af4,SCR,2024-06-11_13h12.26.374,LearnStrategy,2023.2.3,Win32,60.24096386,1,1,9,0.541666667,0.27962963,1,0,0,2.1346,Gabbro_13,4,13,5,8,2.135,6,05,-0.118518519,-0.237037037,1,0,0,4.5591,Basalt_rect,2,4.559,0,8,0,8,0,1,,,,,,,,,,,,,
60c4e1091b936c7b812e5af4,SCR,2024-06-11_13h12.26.374,LearnStrategy,2023.2.3,Win32,60.24096386,1,1,10,-0.081481481,0.116666667,1,0,0,1.5755,Obsidian_16,5,16,4,4,1.575,4,16,-0.348148148,-0.390740741,1,0,0,1.9885,Obsidian_rect,5,1.988,1,9,0,9,0,1,,,,,,,,,,,,,
60c4e1091b936c7b812e5af4,SCR,2024-06-11_13h12.26.374,LearnStrategy,2023.2.3,Win32,60.24096386,1,1,11,0.378703704,-0.417592593,1,0,0,1.3442,Obsidian_12,5,12,1,7,1.344,8,16,-0.375,-0.410185185,1,0,0,1.0313,Obsidian_rect,5,1.031,1,10,0,10,0,1,,,,,,,,,,,,,
60c4e1091b936c7b812e5af4,SCR,2024-06-11_13h12.26.374,LearnStrategy,2023.2.3,Win32,60.24096386,1,1,12,-0.058333333,-0.425,1,0,0,1.1111,Obsidian_11,5,11,1,4,1.111,6,06,-0.427777778,-0.391666667,1,0,0,0.9518,Obsidian_rect,5,0.952,1,11,0,11,0,1,,,,,,,,,,,,,
60c4e1091b936c7b812e5af4,SCR,2024-06-11_13h12.26.374,LearnStrategy,2023.2.3,Win32,60.24096386,1,1,13,-0.519444444,-0.396296296,1,0,0,2.2614,Andesite_10,1,10,1,1,2.261,2,04,0.143518519,-0.257407407,1,0,0,1.8452,Diorite_rect,3,1.845,0,12,0,12,0,1,,,,,,,,,,,,,
60c4e1091b936c7b812e5af4,SCR,2024-06-11_13h12.26.374,LearnStrategy,2023.2.3,Win32,60.24096386,1,1,14,0.242592593,0.25462963,1,0,0,2.4097,Andesite_03,1,03,5,6,2.41,8,04,-0.069444444,-0.387962963,1,0,0,3.4012,Pegmatite_rect,6,3.401,0,13,0,13,0,1,,,,,,,,,,,,,
60c4e1091b936c7b812e5af4,SCR,2024-06-11_13h12.26.374,LearnStrategy,2023.2.3,Win32,60.24096386,1,1,15,-0.201851852,0.074074074,1,0,0,1.6815,Andesite_07,1,07,4,3,1.681,3,09,0.435185185,-0.25462963,1,0,0,2.5892,Gabbro_rect,4,2.589,0,14,0,14,0,1,,,,,,,,,,,,,
60c4e1091b936c7b812e5af4,SCR,2024-06-11_13h12.26.374,LearnStrategy,2023.2.3,Win32,60.24096386,1,1,16,0.100925926,-0.113888889,1,0,0,3.8452,Peridotite_12,7,12,3,5,3.845,7,04,-0.350925926,-0.259259259,1,0,0,2.4892,Andesite_rect,1,2.489,0,15,0,15,0,1,,,,,,,,,,,,,
60c4e1091b936c7b812e5af4,SCR,2024-06-11_13h12.26.374,LearnStrategy,2023.2.3,Win32,60.24096386,1,2,1,,,,,,,,2,06,,,,,,,,,,,,,5,4.81,0,,,,,,-0.363888889,-0.390740741,1,0,0,4.8099,Obsidian_rect,0,0,0,0,1,
60c4e1091b936c7b812e5af4,SCR,2024-06-11_13h12.26.374,LearnStrategy,2023.2.3,Win32,60.24096386,1,2,2,,,,,,,,4,10,,,,,,,,,,,,,3,4.947,0,,,,,,0.075925926,-0.248148148,1,0,0,4.9468,Diorite_rect,1,0,1,0,1,
60c4e1091b936c7b812e5af4,SCR,2024-06-11_13h12.26.374,LearnStrategy,2023.2.3,Win32,60.24096386,1,2,3,,,,,,,,8,08,,,,,,,,,,,,,8,2.044,1,,,,,,0.35462963,-0.387962963,1,0,0,2.0445,Pumice_rect,2,0,2,0,1,
60c4e1091b936c7b812e5af4,SCR,2024-06-11_13h12.26.374,LearnStrategy,2023.2.3,Win32,60.24096386,1,2,4,,,,,,,,1,02,,,,,,,,,,,,,3,3.288,0,,,,,,0.108333333,-0.261111111,1,0,0,3.288,Diorite_rect,3,0,3,0,1,
60c4e1091b936c7b812e5af4,SCR,2024-06-11_13h12.26.374,LearnStrategy,2023.2.3,Win32,60.24096386,1,2,5,,,,,,,,3,08,,,,,,,,,,,,,4,2.214,0,,,,,,0.313888889,-0.246296296,1,0,0,2.2141,Gabbro_rect,4,0,4,0,1,
60c4e1091b936c7b812e5af4,SCR,2024-06-11_13h12.26.374,LearnStrategy,2023.2.3,Win32,60.24096386,1,2,6,,,,,,,,7,06,,,,,,,,,,,,,6,2.402,0,,,,,,-0.159259259,-0.386111111,1,0,0,2.402,Pegmatite_rect,5,0,5,0,1,
60c4e1091b936c7b812e5af4,SCR,2024-06-11_13h12.26.374,LearnStrategy,2023.2.3,Win32,60.24096386,1,2,7,,,,,,,,4,12,,,,,,,,,,,,,7,3.121,0,,,,,,0.092592593,-0.400925926,1,0,0,3.1206,Peridotite_rect,6,0,6,0,1,
60c4e1091b936c7b812e5af4,SCR,2024-06-11_13h12.26.374,LearnStrategy,2023.2.3,Win32,60.24096386,1,2,8,,,,,,,,5,09,,,,,,,,,,,,,5,1.533,1,,,,,,-0.39537037,-0.39537037,1,0,0,1.533,Obsidian_rect,7,0,7,0,1,
60c4e1091b936c7b812e5af4,SCR,2024-06-11_13h12.26.374,LearnStrategy,2023.2.3,Win32,60.24096386,1,2,9,,,,,,,,6,08,,,,,,,,,,,,,1,4.142,0,,,,,,-0.389814815,-0.262037037,1,0,0,4.142,Andesite_rect,8,0,8,0,1,
60c4e1091b936c7b812e5af4,SCR,2024-06-11_13h12.26.374,LearnStrategy,2023.2.3,Win32,60.24096386,1,2,10,,,,,,,,7,05,,,,,,,,,,,,,2,1.645,0,,,,,,-0.116666667,-0.240740741,1,0,0,1.6454,Basalt_rect,9,0,9,0,1,
60c4e1091b936c7b812e5af4,SCR,2024-06-11_13h12.26.374,LearnStrategy,2023.2.3,Win32,60.24096386,1,2,11,,,,,,,,1,06,,,,,,,,,,,,,3,1.762,0,,,,,,0.123148148,-0.252777778,1,0,0,1.7623,Diorite_rect,10,0,10,0,1,
60c4e1091b936c7b812e5af4,SCR,2024-06-11_13h12.26.374,LearnStrategy,2023.2.3,Win32,60.24096386,1,2,12,,,,,,,,8,14,,,,,,,,,,,,,8,1.565,1,,,,,,0.423148148,-0.39537037,1,0,0,1.5651,Pumice_rect,11,0,11,0,1,
60c4e1091b936c7b812e5af4,SCR,2024-06-11_13h12.26.374,LearnStrategy,2023.2.3,Win32,60.24096386,1,2,13,,,,,,,,6,11,,,,,,,,,,,,,3,1.36,0,,,,,,0.132407407,-0.261111111,1,0,0,1.3604,Diorite_rect,12,0,12,0,1,
60c4e1091b936c7b812e5af4,SCR,2024-06-11_13h12.26.374,LearnStrategy,2023.2.3,Win32,60.24096386,1,2,14,,,,,,,,3,13,,,,,,,,,,,,,4,3.11,0,,,,,,0.32962963,-0.246296296,1,0,0,3.1097,Gabbro_rect,13,0,13,0,1,
60c4e1091b936c7b812e5af4,SCR,2024-06-11_13h12.26.374,LearnStrategy,2023.2.3,Win32,60.24096386,1,2,15,,,,,,,,2,08,,,,,,,,,,,,,5,1.302,0,,,,,,-0.344444444,-0.392592593,1,0,0,1.3015,Obsidian_rect,14,0,14,0,1,
60c4e1091b936c7b812e5af4,SCR,2024-06-11_13h12.26.374,LearnStrategy,2023.2.3,Win32,60.24096386,1,2,16,,,,,,,,5,05,,,,,,,,,,,,,5,1.137,1,,,,,,-0.452777778,-0.407407407,1,0,0,1.1374,Obsidian_rect,15,0,15,0,1,
60c4e1091b936c7b812e5af4,SCR,2024-06-11_13h12.26.374,LearnStrategy,2023.2.3,Win32,60.24096386,2,1,1,-0.068518519,0.069444444,1,0,0,2.1429,Obsidian_16,5,16,4,4,2.143,3,15,-0.419444444,-0.380555556,1,0,0,1.4126,Obsidian_rect,5,1.413,1,0,0,0,0,1,,,,,,,,,,,,,
60c4e1091b936c7b812e5af4,SCR,2024-06-11_13h12.26.374,LearnStrategy,2023.2.3,Win32,60.24096386,2,1,2,0.089814815,-0.093518519,1,0,0,1.0787,Peridotite_12,7,12,3,5,1.079,6,12,0.409259259,-0.255555556,1,0,0,3.9764,Gabbro_rect,4,3.976,0,1,0,1,0,1,,,,,,,,,,,,,
60c4e1091b936c7b812e5af4,SCR,2024-06-11_13h12.26.374,LearnStrategy,2023.2.3,Win32,60.24096386,2,1,3,0.087037037,-0.390740741,1,0,0,6.3124,Pegmatite_13,6,13,1,5,6.312,4,16,0.124074074,-0.399074074,1,0,0,0.9521,Peridotite_rect,7,0.952,0,2,0,2,0,1,,,,,,,,,,,,,
60c4e1091b936c7b812e5af4,SCR,2024-06-11_13h12.26.374,LearnStrategy,2023.2.3,Win32,60.24096386,2,1,4,-0.361111111,-0.405555556,1,0,0,1.4111,Diorite_15,3,15,1,2,1.411,4,14,-0.358333333,-0.256481481,1,0,0,3.0513,Andesite_rect,1,3.051,0,3,0,3,0,1,,,,,,,,,,,,,
60c4e1091b936c7b812e5af4,SCR,2024-06-11_13h12.26.374,LearnStrategy,2023.2.3,Win32,60.24096386,2,1,5,0.55,0.262962963,1,0,0,4.3791,Gabbro_13,4,13,5,8,4.379,7,04,0.098148148,-0.255555556,1,0,0,1.7816,Diorite_rect,3,1.782,0,4,0,4,0,1,,,,,,,,,,,,,
60c4e1091b936c7b812e5af4,SCR,2024-06-11_13h12.26.374,LearnStrategy,2023.2.3,Win32,60.24096386,2,1,6,0.382407407,-0.258333333,1,0,0,1.4467,Peridotite_02,7,02,2,7,1.447,2,04,0.160185185,-0.25462963,1,0,0,1.9691,Diorite_rect,3,1.969,0,5,0,5,0,1,,,,,,,,,,,,,
60c4e1091b936c7b812e5af4,SCR,2024-06-11_13h12.26.374,LearnStrategy,2023.2.3,Win32,60.24096386,2,1,7,-0.237037037,0.094444444,1,0,0,1.0842,Andesite_07,1,07,4,3,1.084,7,02,0.124074074,-0.243518519,1,0,0,0.8867,Diorite_rect,3,0.887,0,6,0,6,0,1,,,,,,,,,,,,,
60c4e1091b936c7b812e5af4,SCR,2024-06-11_13h12.26.374,LearnStrategy,2023.2.3,Win32,60.24096386,2,1,8,0.233333333,-0.393518519,1,0,0,1.2644,Diorite_07,3,07,1,6,1.264,3,14,-0.394444444,-0.234259259,1,0,0,1.452,Andesite_rect,1,1.452,0,7,0,7,0,1,,,,,,,,,,,,,
60c4e1091b936c7b812e5af4,SCR,2024-06-11_13h12.26.374,LearnStrategy,2023.2.3,Win32,60.24096386,2,1,9,-0.222222222,-0.247222222,1,0,0,1.7605,Gabbro_11,4,11,2,3,1.761,1,05,-0.161111111,-0.388888889,1,0,0,3.8069,Pegmatite_rect,6,3.807,0,8,0,8,0,1,,,,,,,,,,,,,
60c4e1091b936c7b812e5af4,SCR,2024-06-11_13h12.26.374,LearnStrategy,2023.2.3,Win32,60.24096386,2,1,10,0.387962963,0.257407407,1,0,0,3.5991,Basalt_11,2,11,5,7,3.599,5,02,0.377777778,-0.388888889,1,0,0,3.227,Pumice_rect,8,3.227,0,9,0,9,0,1,,,,,,,,,,,,,
60c4e1091b936c7b812e5af4,SCR,2024-06-11_13h12.26.374,LearnStrategy,2023.2.3,Win32,60.24096386,2,1,11,-0.193518519,0.086111111,1,0,0,1.2613,Andesite_07,1,07,4,3,1.261,4,13,0.107407407,-0.262962963,1,0,0,1.4289,Diorite_rect,3,1.429,0,10,0,10,0,1,,,,,,,,,,,,,
60c4e1091b936c7b812e5af4,SCR,2024-06-11_13h12.26.374,LearnStrategy,2023.2.3,Win32,60.24096386,2,1,12,-0.063888889,0.268518519,1,0,0,1.7441,Andesite_14,1,14,5,4,1.744,1,14,-0.099074074,-0.263888889,1,0,0,3.3745,Basalt_rect,2,3.374,0,11,0,11,0,1,,,,,,,,,,,,,
60c4e1091b936c7b812e5af4,SCR,2024-06-11_13h12.26.374,LearnStrategy,2023.2.3,Win32,60.24096386,2,1,13,-0.510185185,0.09537037,1,0,0,1.2464,Pumice_04,8,04,4,1,1.246,6,05,0.446296296,-0.400925926,1,0,0,1.8715,Pumice_rect,8,1.872,1,12,0,12,0,1,,,,,,,,,,,,,
60c4e1091b936c7b812e5af4,SCR,2024-06-11_13h12.26.374,LearnStrategy,2023.2.3,Win32,60.24096386,2,1,14,-0.541666667,-0.249074074,1,0,0,1.1124,Peridotite_08,7,08,2,1,1.112,2,16,0.134259259,-0.240740741,1,0,0,1.7698,Diorite_rect,3,1.77,0,13,0,13,0,1,,,,,,,,,,,,,
60c4e1091b936c7b812e5af4,SCR,2024-06-11_13h12.26.374,LearnStrategy,2023.2.3,Win32,60.24096386,2,1,15,-0.232407407,-0.108333333,1,0,0,1.3957,Peridotite_16,7,16,3,3,1.396,3,07,-0.182407407,-0.399074074,1,0,0,1.2262,Pegmatite_rect,6,1.226,0,14,0,14,0,1,,,,,,,,,,,,,
60c4e1091b936c7b812e5af4,SCR,2024-06-11_13h12.26.374,LearnStrategy,2023.2.3,Win32,60.24096386,2,1,16,0.071296296,0.091666667,1,0,0,2.1365,Gabbro_05,4,05,4,5,2.137,1,04,-0.132407407,-0.389814815,1,0,0,1.2471,Pegmatite_rect,6,1.247,0,15,0,15,0,1,,,,,,,,,,,,,
60c4e1091b936c7b812e5af4,SCR,2024-06-11_13h12.26.374,LearnStrategy,2023.2.3,Win32,60.24096386,2,2,1,,,,,,,,7,15,,,,,,,,,,,,,3,4.012,0,,,,,,0.128703704,-0.249074074,1,0,0,4.0125,Diorite_rect,0,0,0,0,1,
60c4e1091b936c7b812e5af4,SCR,2024-06-11_13h12.26.374,LearnStrategy,2023.2.3,Win32,60.24096386,2,2,2,,,,,,,,4,08,,,,,,,,,,,,,4,4.847,1,,,,,,0.408333333,-0.247222222,1,0,0,4.8469,Gabbro_rect,1,0,1,0,1,
60c4e1091b936c7b812e5af4,SCR,2024-06-11_13h12.26.374,LearnStrategy,2023.2.3,Win32,60.24096386,2,2,3,,,,,,,,5,14,,,,,,,,,,,,,5,1.194,1,,,,,,-0.369444444,-0.388888889,1,0,0,1.1942,Obsidian_rect,2,0,2,0,1,
60c4e1091b936c7b812e5af4,SCR,2024-06-11_13h12.26.374,LearnStrategy,2023.2.3,Win32,60.24096386,2,2,4,,,,,,,,1,09,,,,,,,,,,,,,2,2.686,0,,,,,,-0.110185185,-0.255555556,1,0,0,2.6858,Basalt_rect,3,0,3,0,1,
60c4e1091b936c7b812e5af4,SCR,2024-06-11_13h12.26.374,LearnStrategy,2023.2.3,Win32,60.24096386,2,2,5,,,,,,,,3,16,,,,,,,,,,,,,7,3.758,0,,,,,,0.146296296,-0.4,1,0,0,3.7577,Peridotite_rect,4,0,4,0,1,
60c4e1091b936c7b812e5af4,SCR,2024-06-11_13h12.26.374,LearnStrategy,2023.2.3,Win32,60.24096386,2,2,6,,,,,,,,4,01,,,,,,,,,,,,,7,1.96,0,,,,,,0.12962963,-0.406481481,1,0,0,1.9597,Peridotite_rect,5,0,5,0,1,
60c4e1091b936c7b812e5af4,SCR,2024-06-11_13h12.26.374,LearnStrategy,2023.2.3,Win32,60.24096386,2,2,7,,,,,,,,3,11,,,,,,,,,,,,,6,2.193,0,,,,,,-0.166666667,-0.405555556,1,0,0,2.1934,Pegmatite_rect,6,0,6,0,1,
60c4e1091b936c7b812e5af4,SCR,2024-06-11_13h12.26.374,LearnStrategy,2023.2.3,Win32,60.24096386,2,2,8,,,,,,,,2,05,,,,,,,,,,,,,5,2.438,0,,,,,,-0.306481481,-0.389814815,1,0,0,2.4383,Obsidian_rect,7,0,7,0,1,
60c4e1091b936c7b812e5af4,SCR,2024-06-11_13h12.26.374,LearnStrategy,2023.2.3,Win32,60.24096386,2,2,9,,,,,,,,8,03,,,,,,,,,,,,,8,1.323,1,,,,,,0.407407407,-0.393518519,1,0,0,1.3234,Pumice_rect,8,0,8,0,1,
60c4e1091b936c7b812e5af4,SCR,2024-06-11_13h12.26.374,LearnStrategy,2023.2.3,Win32,60.24096386,2,2,10,,,,,,,,1,16,,,,,,,,,,,,,3,2.527,0,,,,,,0.090740741,-0.248148148,1,0,0,2.527,Diorite_rect,9,0,9,0,1,
60c4e1091b936c7b812e5af4,SCR,2024-06-11_13h12.26.374,LearnStrategy,2023.2.3,Win32,60.24096386,2,2,11,,,,,,,,6,03,,,,,,,,,,,,,6,3.894,1,,,,,,-0.117592593,-0.413888889,1,0,0,3.894,Pegmatite_rect,10,0,10,0,1,
60c4e1091b936c7b812e5af4,SCR,2024-06-11_13h12.26.374,LearnStrategy,2023.2.3,Win32,60.24096386,2,2,12,,,,,,,,8,02,,,,,,,,,,,,,8,2.266,1,,,,,,0.416666667,-0.40462963,1,0,0,2.2659,Pumice_rect,11,0,11,0,1,
60c4e1091b936c7b812e5af4,SCR,2024-06-11_13h12.26.374,LearnStrategy,2023.2.3,Win32,60.24096386,2,2,13,,,,,,,,7,13,,,,,,,,,,,,,4,2.345,0,,,,,,0.353703704,-0.247222222,1,0,0,2.345,Gabbro_rect,12,0,12,0,1,
60c4e1091b936c7b812e5af4,SCR,2024-06-11_13h12.26.374,LearnStrategy,2023.2.3,Win32,60.24096386,2,2,14,,,,,,,,6,16,,,,,,,,,,,,,6,2.583,1,,,,,,-0.188888889,-0.411111111,1,0,0,2.5829,Pegmatite_rect,13,0,13,0,1,
60c4e1091b936c7b812e5af4,SCR,2024-06-11_13h12.26.374,LearnStrategy,2023.2.3,Win32,60.24096386,2,2,15,,,,,,,,5,10,,,,,,,,,,,,,5,1.317,1,,,,,,-0.414814815,-0.411111111,1,0,0,1.3174,Obsidian_rect,14,0,14,0,1,
60c4e1091b936c7b812e5af4,SCR,2024-06-11_13h12.26.374,LearnStrategy,2023.2.3,Win32,60.24096386,2,2,16,,,,,,,,2,14,,,,,,,,,,,,,2,7.121,1,,,,,,-0.137962963,-0.261111111,1,0,0,7.1211,Basalt_rect,15,0,15,0,1,
60c4e1091b936c7b812e5af4,SCR,2024-06-11_13h12.26.374,LearnStrategy,2023.2.3,Win32,60.24096386,3,1,1,-0.048148148,0.098148148,1,0,0,1.3195,Obsidian_16,5,16,4,4,1.32,7,02,-0.422222222,-0.37962963,1,0,0,1.1871,Obsidian_rect,5,1.187,1,0,0,0,0,1,,,,,,,,,,,,,
60c4e1091b936c7b812e5af4,SCR,2024-06-11_13h12.26.374,LearnStrategy,2023.2.3,Win32,60.24096386,3,1,2,-0.20462963,0.088888889,1,0,0,0.9951,Andesite_07,1,07,4,3,0.995,2,10,-0.355555556,-0.248148148,1,0,0,6.3624,Andesite_rect,1,6.362,1,1,0,1,0,1,,,,,,,,,,,,,
60c4e1091b936c7b812e5af4,SCR,2024-06-11_13h12.26.374,LearnStrategy,2023.2.3,Win32,60.24096386,3,1,3,0.235185185,0.407407407,1,0,0,3.302,Diorite_02,3,02,6,6,3.302,4,13,-0.393518519,-0.250925926,1,0,0,1.0992,Andesite_rect,1,1.099,0,2,0,2,0,1,,,,,,,,,,,,,
60c4e1091b936c7b812e5af4,SCR,2024-06-11_13h12.26.374,LearnStrategy,2023.2.3,Win32,60.24096386,3,1,4,-0.350925926,0.262037037,1,0,0,1.3042,Diorite_14,3,14,5,2,1.304,7,12,-0.372222222,-0.240740741,1,0,0,1.0502,Andesite_rect,1,1.05,0,3,0,3,0,1,,,,,,,,,,,,,
60c4e1091b936c7b812e5af4,SCR,2024-06-11_13h12.26.374,LearnStrategy,2023.2.3,Win32,60.24096386,3,1,5,-0.238888889,0.087962963,1,0,0,1.3292,Andesite_07,1,07,4,3,1.329,7,04,0.14537037,-0.244444444,1,0,0,1.9,Diorite_rect,3,1.9,0,4,0,4,0,1,,,,,,,,,,,,,
60c4e1091b936c7b812e5af4,SCR,2024-06-11_13h12.26.374,LearnStrategy,2023.2.3,Win32,60.24096386,3,1,6,-0.387962963,-0.399074074,1,0,0,2.7641,Diorite_15,3,15,1,2,2.764,5,16,0.103703704,-0.252777778,1,0,0,1.4891,Diorite_rect,3,1.489,1,5,0,5,0,1,,,,,,,,,,,,,
60c4e1091b936c7b812e5af4,SCR,2024-06-11_13h12.26.374,LearnStrategy,2023.2.3,Win32,60.24096386,3,1,7,0.356481481,-0.077777778,1,0,0,1.4626,Diorite_06,3,06,3,7,1.463,4,11,-0.412962963,-0.231481481,1,0,0,0.9846,Andesite_rect,1,0.985,0,6,0,6,0,1,,,,,,,,,,,,,
60c4e1091b936c7b812e5af4,SCR,2024-06-11_13h12.26.374,LearnStrategy,2023.2.3,Win32,60.24096386,3,1,8,0.392592593,-0.252777778,1,0,0,1.163,Peridotite_02,7,02,2,7,1.163,6,12,-0.4,-0.247222222,1,0,0,2.1666,Andesite_rect,1,2.167,0,7,0,7,0,1,,,,,,,,,,,,,
60c4e1091b936c7b812e5af4,SCR,2024-06-11_13h12.26.374,LearnStrategy,2023.2.3,Win32,60.24096386,3,1,9,0.047222222,-0.258333333,1,0,0,2.3791,Pumice_10,8,10,2,5,2.379,3,06,0.352777778,-0.389814815,1,0,0,1.7145,Pumice_rect,8,1.715,1,8,0,8,0,1,,,,,,,,,,,,,
60c4e1091b936c7b812e5af4,SCR,2024-06-11_13h12.26.374,LearnStrategy,2023.2.3,Win32,60.24096386,3,1,10,-0.400925926,0.428703704,1,0,0,2.6455,Basalt_04,2,04,6,2,2.645,1,04,-0.409259259,-0.390740741,1,0,0,1.8271,Obsidian_rect,5,1.827,0,9,0,9,0,1,,,,,,,,,,,,,
60c4e1091b936c7b812e5af4,SCR,2024-06-11_13h12.26.374,LearnStrategy,2023.2.3,Win32,60.24096386,3,1,11,0.091666667,0.25,1,0,0,1.2991,Basalt_10,2,10,5,5,1.299,1,05,-0.187962963,-0.243518519,1,0,0,1.6254,Basalt_rect,2,1.625,1,10,0,10,0,1,,,,,,,,,,,,,
60c4e1091b936c7b812e5af4,SCR,2024-06-11_13h12.26.374,LearnStrategy,2023.2.3,Win32,60.24096386,3,1,12,0.237962963,-0.075925926,1,0,0,4.036,Gabbro_16,4,16,3,6,4.036,3,02,-0.130555556,-0.249074074,1,0,0,1.202,Basalt_rect,2,1.202,0,11,0,11,0,1,,,,,,,,,,,,,
60c4e1091b936c7b812e5af4,SCR,2024-06-11_13h12.26.374,LearnStrategy,2023.2.3,Win32,60.24096386,3,1,13,0.235185185,-0.258333333,1,0,0,1.2141,Basalt_16,2,16,2,6,1.214,3,15,0.314814815,-0.25,1,0,0,3.2113,Gabbro_rect,4,3.211,0,12,0,12,0,1,,,,,,,,,,,,,
60c4e1091b936c7b812e5af4,SCR,2024-06-11_13h12.26.374,LearnStrategy,2023.2.3,Win32,60.24096386,3,1,14,-0.349074074,0.407407407,1,0,0,4.2646,Basalt_04,2,04,6,2,4.265,2,10,-0.12962963,-0.255555556,1,0,0,1.0137,Basalt_rect,2,1.014,1,13,0,13,0,1,,,,,,,,,,,,,
60c4e1091b936c7b812e5af4,SCR,2024-06-11_13h12.26.374,LearnStrategy,2023.2.3,Win32,60.24096386,3,1,15,0.059259259,0.248148148,1,0,0,1.7945,Basalt_10,2,10,5,5,1.795,1,07,0.387037037,-0.25462963,1,0,0,1.5025,Gabbro_rect,4,1.502,0,14,0,14,0,1,,,,,,,,,,,,,
60c4e1091b936c7b812e5af4,SCR,2024-06-11_13h12.26.374,LearnStrategy,2023.2.3,Win32,60.24096386,3,1,16,-0.225925926,-0.087962963,1,0,0,1.9106,Peridotite_16,7,16,3,3,1.911,2,11,-0.103703704,-0.238888889,1,0,0,3.006,Basalt_rect,2,3.006,0,15,0,15,0,1,,,,,,,,,,,,,
60c4e1091b936c7b812e5af4,SCR,2024-06-11_13h12.26.374,LearnStrategy,2023.2.3,Win32,60.24096386,3,2,1,,,,,,,,5,06,,,,,,,,,,,,,5,3.261,1,,,,,,-0.412037037,-0.416666667,1,0,0,3.261,Obsidian_rect,0,0,0,0,1,
60c4e1091b936c7b812e5af4,SCR,2024-06-11_13h12.26.374,LearnStrategy,2023.2.3,Win32,60.24096386,3,2,2,,,,,,,,2,09,,,,,,,,,,,,,4,1.769,0,,,,,,0.406481481,-0.24537037,1,0,0,1.7693,Gabbro_rect,1,0,1,0,1,
60c4e1091b936c7b812e5af4,SCR,2024-06-11_13h12.26.374,LearnStrategy,2023.2.3,Win32,60.24096386,3,2,3,,,,,,,,3,10,,,,,,,,,,,,,7,2.451,0,,,,,,0.123148148,-0.405555556,1,0,0,2.4506,Peridotite_rect,2,0,2,0,1,
60c4e1091b936c7b812e5af4,SCR,2024-06-11_13h12.26.374,LearnStrategy,2023.2.3,Win32,60.24096386,3,2,4,,,,,,,,4,09,,,,,,,,,,,,,2,5.928,0,,,,,,-0.103703704,-0.252777778,1,0,0,5.9275,Basalt_rect,3,0,3,0,1,
60c4e1091b936c7b812e5af4,SCR,2024-06-11_13h12.26.374,LearnStrategy,2023.2.3,Win32,60.24096386,3,2,5,,,,,,,,3,12,,,,,,,,,,,,,7,4.378,0,,,,,,0.083333333,-0.390740741,1,0,0,4.3783,Peridotite_rect,4,0,4,0,1,
60c4e1091b936c7b812e5af4,SCR,2024-06-11_13h12.26.374,LearnStrategy,2023.2.3,Win32,60.24096386,3,2,6,,,,,,,,6,07,,,,,,,,,,,,,6,1.303,1,,,,,,-0.097222222,-0.390740741,1,0,0,1.3035,Pegmatite_rect,5,0,5,0,1,
60c4e1091b936c7b812e5af4,SCR,2024-06-11_13h12.26.374,LearnStrategy,2023.2.3,Win32,60.24096386,3,2,7,,,,,,,,1,11,,,,,,,,,,,,,6,1.244,0,,,,,,-0.113888889,-0.394444444,1,0,0,1.2441,Pegmatite_rect,6,0,6,0,1,
60c4e1091b936c7b812e5af4,SCR,2024-06-11_13h12.26.374,LearnStrategy,2023.2.3,Win32,60.24096386,3,2,8,,,,,,,,8,05,,,,,,,,,,,,,8,1.168,1,,,,,,0.410185185,-0.39537037,1,0,0,1.1678,Pumice_rect,7,0,7,0,1,
60c4e1091b936c7b812e5af4,SCR,2024-06-11_13h12.26.374,LearnStrategy,2023.2.3,Win32,60.24096386,3,2,9,,,,,,,,7,07,,,,,,,,,,,,,4,6.313,0,,,,,,0.367592593,-0.259259259,1,0,0,6.3135,Gabbro_rect,8,0,8,0,1,
60c4e1091b936c7b812e5af4,SCR,2024-06-11_13h12.26.374,LearnStrategy,2023.2.3,Win32,60.24096386,3,2,10,,,,,,,,8,06,,,,,,,,,,,,,8,1.978,1,,,,,,0.369444444,-0.386111111,1,0,0,1.9776,Pumice_rect,9,0,9,0,1,
60c4e1091b936c7b812e5af4,SCR,2024-06-11_13h12.26.374,LearnStrategy,2023.2.3,Win32,60.24096386,3,2,11,,,,,,,,6,10,,,,,,,,,,,,,7,2.564,0,,,,,,0.133333333,-0.397222222,1,0,0,2.5643,Peridotite_rect,10,0,10,0,1,
60c4e1091b936c7b812e5af4,SCR,2024-06-11_13h12.26.374,LearnStrategy,2023.2.3,Win32,60.24096386,3,2,12,,,,,,,,1,01,,,,,,,,,,,,,7,3.524,0,,,,,,0.119444444,-0.401851852,1,0,0,3.5244,Peridotite_rect,11,0,11,0,1,
60c4e1091b936c7b812e5af4,SCR,2024-06-11_13h12.26.374,LearnStrategy,2023.2.3,Win32,60.24096386,3,2,13,,,,,,,,2,01,,,,,,,,,,,,,2,1.428,1,,,,,,-0.089814815,-0.27037037,1,0,0,1.4277,Basalt_rect,12,0,12,0,1,
60c4e1091b936c7b812e5af4,SCR,2024-06-11_13h12.26.374,LearnStrategy,2023.2.3,Win32,60.24096386,3,2,14,,,,,,,,4,15,,,,,,,,,,,,,7,5.111,0,,,,,,0.181481481,-0.390740741,1,0,0,5.111,Peridotite_rect,13,0,13,0,1,
60c4e1091b936c7b812e5af4,SCR,2024-06-11_13h12.26.374,LearnStrategy,2023.2.3,Win32,60.24096386,3,2,15,,,,,,,,7,14,,,,,,,,,,,,,3,6.636,0,,,,,,0.109259259,-0.249074074,1,0,0,6.6361,Diorite_rect,14,0,14,0,1,
60c4e1091b936c7b812e5af4,SCR,2024-06-11_13h12.26.374,LearnStrategy,2023.2.3,Win32,60.24096386,3,2,16,,,,,,,,5,08,,,,,,,,,,,,,5,1.223,1,,,,,,-0.40462963,-0.388888889,1,0,0,1.2233,Obsidian_rect,15,0,15,0,1,
60c4e1091b936c7b812e5af4,SCR,2024-06-11_13h12.26.374,LearnStrategy,2023.2.3,Win32,60.24096386,4,1,1,-0.392592593,0.250925926,1,0,0,20.0292,Diorite_14,3,14,5,2,20.029,7,08,0.072222222,-0.393518519,1,0,0,1.7899,Peridotite_rect,7,1.79,0,0,0,0,0,1,,,,,,,,,,,,,
60c4e1091b936c7b812e5af4,SCR,2024-06-11_13h12.26.374,LearnStrategy,2023.2.3,Win32,60.24096386,4,1,2,0.258333333,0.417592593,1,0,0,2.6793,Diorite_02,3,02,6,6,2.679,6,13,0.030555556,-0.234259259,1,0,0,1.0757,Diorite_rect,3,1.076,1,1,0,1,0,1,,,,,,,,,,,,,
60c4e1091b936c7b812e5af4,SCR,2024-06-11_13h12.26.374,LearnStrategy,2023.2.3,Win32,60.24096386,4,1,3,-0.059259259,0.410185185,1,0,0,1.5618,Diorite_09,3,09,6,4,1.562,7,16,0.184259259,-0.256481481,1,0,0,1.1539,Diorite_rect,3,1.154,1,2,0,2,0,1,,,,,,,,,,,,,
60c4e1091b936c7b812e5af4,SCR,2024-06-11_13h12.26.374,LearnStrategy,2023.2.3,Win32,60.24096386,4,1,4,0.098148148,-0.12962963,1,0,0,1.3125,Peridotite_12,7,12,3,5,1.313,4,16,0.121296296,-0.233333333,1,0,0,0.7067,Diorite_rect,3,0.707,0,3,0,3,0,1,,,,,,,,,,,,,
60c4e1091b936c7b812e5af4,SCR,2024-06-11_13h12.26.374,LearnStrategy,2023.2.3,Win32,60.24096386,4,1,5,0.246296296,-0.437037037,1,0,0,2.1969,Diorite_07,3,07,1,6,2.197,1,14,0.175925926,-0.259259259,1,0,0,1.357,Diorite_rect,3,1.357,1,4,0,4,0,1,,,,,,,,,,,,,
60c4e1091b936c7b812e5af4,SCR,2024-06-11_13h12.26.374,LearnStrategy,2023.2.3,Win32,60.24096386,4,1,6,-0.387962963,-0.37962963,1,0,0,2.5125,Diorite_15,3,15,1,2,2.513,3,02,0.150925926,-0.243518519,1,0,0,1.0093,Diorite_rect,3,1.009,1,5,0,5,0,1,,,,,,,,,,,,,
60c4e1091b936c7b812e5af4,SCR,2024-06-11_13h12.26.374,LearnStrategy,2023.2.3,Win32,60.24096386,4,1,7,-0.060185185,0.414814815,1,0,0,2.581,Diorite_09,3,09,6,4,2.581,2,04,0.12962963,-0.264814815,1,0,0,1.1156,Diorite_rect,3,1.116,1,6,0,6,0,1,,,,,,,,,,,,,
60c4e1091b936c7b812e5af4,SCR,2024-06-11_13h12.26.374,LearnStrategy,2023.2.3,Win32,60.24096386,4,1,8,0.262037037,0.417592593,1,0,0,1.1341,Diorite_02,3,02,6,6,1.134,6,06,0.148148148,-0.258333333,1,0,0,1.9097,Diorite_rect,3,1.91,1,7,0,7,0,1,,,,,,,,,,,,,
60c4e1091b936c7b812e5af4,SCR,2024-06-11_13h12.26.374,LearnStrategy,2023.2.3,Win32,60.24096386,4,1,9,-0.385185185,0.262962963,1,0,0,1.5306,Diorite_14,3,14,5,2,1.531,4,03,0.099074074,-0.235185185,1,0,0,1.02,Diorite_rect,3,1.02,1,8,0,8,0,1,,,,,,,,,,,,,
60c4e1091b936c7b812e5af4,SCR,2024-06-11_13h12.26.374,LearnStrategy,2023.2.3,Win32,60.24096386,4,1,10,-0.208333333,0.091666667,1,0,0,3.7546,Andesite_07,1,07,4,3,3.755,7,02,0.15462963,-0.242592593,1,0,0,0.926,Diorite_rect,3,0.926,0,9,0,9,0,1,,,,,,,,,,,,,
60c4e1091b936c7b812e5af4,SCR,2024-06-11_13h12.26.374,LearnStrategy,2023.2.3,Win32,60.24096386,4,1,11,0.100925926,-0.09537037,1,0,0,1.8099,Peridotite_12,7,12,3,5,1.81,1,14,0.155555556,-0.247222222,1,0,0,0.8528,Diorite_rect,3,0.853,0,10,0,10,0,1,,,,,,,,,,,,,
60c4e1091b936c7b812e5af4,SCR,2024-06-11_13h12.26.374,LearnStrategy,2023.2.3,Win32,60.24096386,4,1,12,-0.089814815,-0.248148148,1,0,0,1.9817,Peridotite_10,7,10,2,4,1.982,3,07,0.113888889,-0.391666667,1,0,0,2.0356,Peridotite_rect,7,2.036,1,11,0,11,0,1,,,,,,,,,,,,,
60c4e1091b936c7b812e5af4,SCR,2024-06-11_13h12.26.374,LearnStrategy,2023.2.3,Win32,60.24096386,4,1,13,-0.212962963,-0.107407407,1,0,0,2.4815,Peridotite_16,7,16,3,3,2.481,1,10,0.140740741,-0.401851852,1,0,0,1.1331,Peridotite_rect,7,1.133,1,12,0,12,0,1,,,,,,,,,,,,,
60c4e1091b936c7b812e5af4,SCR,2024-06-11_13h12.26.374,LearnStrategy,2023.2.3,Win32,60.24096386,4,1,14,0.242592593,-0.377777778,1,0,0,1.0795,Diorite_07,3,07,1,6,1.08,4,03,0.131481481,-0.390740741,1,0,0,1.1531,Peridotite_rect,7,1.153,0,13,0,13,0,1,,,,,,,,,,,,,
60c4e1091b936c7b812e5af4,SCR,2024-06-11_13h12.26.374,LearnStrategy,2023.2.3,Win32,60.24096386,4,1,15,-0.402777778,-0.394444444,1,0,0,1.9463,Diorite_15,3,15,1,2,1.946,2,10,0.103703704,-0.253703704,1,0,0,1.3229,Diorite_rect,3,1.323,1,14,0,14,0,1,,,,,,,,,,,,,
60c4e1091b936c7b812e5af4,SCR,2024-06-11_13h12.26.374,LearnStrategy,2023.2.3,Win32,60.24096386,4,1,16,0.402777778,-0.249074074,1,0,0,1.7302,Peridotite_02,7,02,2,7,1.73,3,09,0.09537037,-0.4,1,0,0,2.3636,Peridotite_rect,7,2.364,1,15,0,15,0,1,,,,,,,,,,,,,
60c4e1091b936c7b812e5af4,SCR,2024-06-11_13h12.26.374,LearnStrategy,2023.2.3,Win32,60.24096386,4,2,1,,,,,,,,6,10,,,,,,,,,,,,,6,4.452,1,,,,,,-0.125925926,-0.394444444,1,0,0,4.4521,Pegmatite_rect,0,0,0,0,1,
60c4e1091b936c7b812e5af4,SCR,2024-06-11_13h12.26.374,LearnStrategy,2023.2.3,Win32,60.24096386,4,2,2,,,,,,,,8,05,,,,,,,,,,,,,8,1.261,1,,,,,,0.35,-0.387962963,1,0,0,1.261,Pumice_rect,1,0,1,0,1,
60c4e1091b936c7b812e5af4,SCR,2024-06-11_13h12.26.374,LearnStrategy,2023.2.3,Win32,60.24096386,4,2,3,,,,,,,,5,09,,,,,,,,,,,,,5,0.944,1,,,,,,-0.360185185,-0.414814815,1,0,0,0.9444,Obsidian_rect,2,0,2,0,1,
60c4e1091b936c7b812e5af4,SCR,2024-06-11_13h12.26.374,LearnStrategy,2023.2.3,Win32,60.24096386,4,2,4,,,,,,,,8,14,,,,,,,,,,,,,8,1.231,1,,,,,,0.358333333,-0.393518519,1,0,0,1.2305,Pumice_rect,3,0,3,0,1,
60c4e1091b936c7b812e5af4,SCR,2024-06-11_13h12.26.374,LearnStrategy,2023.2.3,Win32,60.24096386,4,2,5,,,,,,,,1,09,,,,,,,,,,,,,4,3.494,0,,,,,,0.337962963,-0.234259259,1,0,0,3.4943,Gabbro_rect,4,0,4,0,1,
60c4e1091b936c7b812e5af4,SCR,2024-06-11_13h12.26.374,LearnStrategy,2023.2.3,Win32,60.24096386,4,2,6,,,,,,,,7,05,,,,,,,,,,,,,4,1.544,0,,,,,,0.364814815,-0.230555556,1,0,0,1.544,Gabbro_rect,5,0,5,0,1,
60c4e1091b936c7b812e5af4,SCR,2024-06-11_13h12.26.374,LearnStrategy,2023.2.3,Win32,60.24096386,4,2,7,,,,,,,,4,10,,,,,,,,,,,,,4,1.3,1,,,,,,0.368518519,-0.237037037,1,0,0,1.3005,Gabbro_rect,6,0,6,0,1,
60c4e1091b936c7b812e5af4,SCR,2024-06-11_13h12.26.374,LearnStrategy,2023.2.3,Win32,60.24096386,4,2,8,,,,,,,,2,05,,,,,,,,,,,,,2,3.261,1,,,,,,-0.116666667,-0.244444444,1,0,0,3.2611,Basalt_rect,7,0,7,0,1,
60c4e1091b936c7b812e5af4,SCR,2024-06-11_13h12.26.374,LearnStrategy,2023.2.3,Win32,60.24096386,4,2,9,,,,,,,,2,08,,,,,,,,,,,,,2,0.802,1,,,,,,-0.114814815,-0.246296296,1,0,0,0.8024,Basalt_rect,8,0,8,0,1,
60c4e1091b936c7b812e5af4,SCR,2024-06-11_13h12.26.374,LearnStrategy,2023.2.3,Win32,60.24096386,4,2,10,,,,,,,,4,15,,,,,,,,,,,,,7,3.761,0,,,,,,0.12962963,-0.399074074,1,0,0,3.7611,Peridotite_rect,9,0,9,0,1,
60c4e1091b936c7b812e5af4,SCR,2024-06-11_13h12.26.374,LearnStrategy,2023.2.3,Win32,60.24096386,4,2,11,,,,,,,,3,16,,,,,,,,,,,,,7,1.086,0,,,,,,0.110185185,-0.39537037,1,0,0,1.0855,Peridotite_rect,10,0,10,0,1,
60c4e1091b936c7b812e5af4,SCR,2024-06-11_13h12.26.374,LearnStrategy,2023.2.3,Win32,60.24096386,4,2,12,,,,,,,,3,13,,,,,,,,,,,,,6,1.311,0,,,,,,-0.087037037,-0.415740741,1,0,0,1.3109,Pegmatite_rect,11,0,11,0,1,
60c4e1091b936c7b812e5af4,SCR,2024-06-11_13h12.26.374,LearnStrategy,2023.2.3,Win32,60.24096386,4,2,13,,,,,,,,6,11,,,,,,,,,,,,,6,0.976,1,,,,,,-0.138888889,-0.400925926,1,0,0,0.9762,Pegmatite_rect,12,0,12,0,1,
60c4e1091b936c7b812e5af4,SCR,2024-06-11_13h12.26.374,LearnStrategy,2023.2.3,Win32,60.24096386,4,2,14,,,,,,,,1,16,,,,,,,,,,,,,7,1.054,0,,,,,,0.083333333,-0.412962963,1,0,0,1.0541,Peridotite_rect,13,0,13,0,1,
60c4e1091b936c7b812e5af4,SCR,2024-06-11_13h12.26.374,LearnStrategy,2023.2.3,Win32,60.24096386,4,2,15,,,,,,,,7,06,,,,,,,,,,,,,6,1.73,0,,,,,,-0.093518519,-0.414814815,1,0,0,1.7304,Pegmatite_rect,14,0,14,0,1,
60c4e1091b936c7b812e5af4,SCR,2024-06-11_13h12.26.374,LearnStrategy,2023.2.3,Win32,60.24096386,4,2,16,,,,,,,,5,05,,,,,,,,,,,,,5,1.371,1,,,,,,-0.356481481,-0.389814815,1,0,0,1.3709,Obsidian_rect,15,0,15,0,1,
60c4e1091b936c7b812e5af4,SCR,2024-06-11_13h12.26.374,LearnStrategy,2023.2.3,Win32,60.24096386,5,1,1,-0.537037037,0.405555556,1,0,0,2.3196,Andesite_04,1,04,6,1,2.32,4,13,0.375,-0.258333333,1,0,0,3.5505,Gabbro_rect,4,3.55,0,0,0,0,0,1,,,,,,,,,,,,,
60c4e1091b936c7b812e5af4,SCR,2024-06-11_13h12.26.374,LearnStrategy,2023.2.3,Win32,60.24096386,5,1,2,0.087037037,0.398148148,1,0,0,2.282,Peridotite_04,7,04,6,5,2.282,3,06,-0.353703704,-0.25462963,1,0,0,1.6971,Andesite_rect,1,1.697,0,1,0,1,0,1,,,,,,,,,,,,,
60c4e1091b936c7b812e5af4,SCR,2024-06-11_13h12.26.374,LearnStrategy,2023.2.3,Win32,60.24096386,5,1,3,-0.537962963,-0.09537037,1,0,0,4.2986,Basalt_12,2,12,3,1,4.299,7,16,0.375925926,-0.393518519,1,0,0,2.2981,Pumice_rect,8,2.298,0,2,0,2,0,1,,,,,,,,,,,,,
60c4e1091b936c7b812e5af4,SCR,2024-06-11_13h12.26.374,LearnStrategy,2023.2.3,Win32,60.24096386,5,1,4,-0.535185185,-0.374074074,1,0,0,3.1311,Andesite_10,1,10,1,1,3.131,1,07,-0.374074074,-0.248148148,1,0,0,2.6443,Andesite_rect,1,2.644,1,3,0,3,0,1,,,,,,,,,,,,,
60c4e1091b936c7b812e5af4,SCR,2024-06-11_13h12.26.374,LearnStrategy,2023.2.3,Win32,60.24096386,5,1,5,-0.234259259,-0.259259259,1,0,0,1.6277,Gabbro_11,4,11,2,3,1.628,4,05,-0.357407407,-0.246296296,1,0,0,0.6531,Andesite_rect,1,0.653,0,4,0,4,0,1,,,,,,,,,,,,,
60c4e1091b936c7b812e5af4,SCR,2024-06-11_13h12.26.374,LearnStrategy,2023.2.3,Win32,60.24096386,5,1,6,-0.089814815,-0.226851852,1,0,0,1.2976,Peridotite_10,7,10,2,4,1.298,3,14,-0.376851852,-0.241666667,1,0,0,1.0306,Andesite_rect,1,1.031,0,5,0,5,0,1,,,,,,,,,,,,,
60c4e1091b936c7b812e5af4,SCR,2024-06-11_13h12.26.374,LearnStrategy,2023.2.3,Win32,60.24096386,5,1,7,0.537962963,-0.088888889,1,0,0,2.0126,Basalt_02,2,02,3,8,2.013,1,07,0.394444444,-0.22962963,1,0,0,1.0286,Gabbro_rect,4,1.029,0,6,0,6,0,1,,,,,,,,,,,,,
60c4e1091b936c7b812e5af4,SCR,2024-06-11_13h12.26.374,LearnStrategy,2023.2.3,Win32,60.24096386,5,1,8,0.37962963,-0.093518519,1,0,0,2.3827,Diorite_06,3,06,3,7,2.383,4,11,-0.394444444,-0.236111111,1,0,0,1.6919,Andesite_rect,1,1.692,0,7,0,7,0,1,,,,,,,,,,,,,
60c4e1091b936c7b812e5af4,SCR,2024-06-11_13h12.26.374,LearnStrategy,2023.2.3,Win32,60.24096386,5,1,9,0.086111111,-0.39537037,1,0,0,2.9657,Pegmatite_13,6,13,1,5,2.966,2,12,-0.139814815,-0.411111111,1,0,0,1.288,Pegmatite_rect,6,1.288,1,8,0,8,0,1,,,,,,,,,,,,,
60c4e1091b936c7b812e5af4,SCR,2024-06-11_13h12.26.374,LearnStrategy,2023.2.3,Win32,60.24096386,5,1,10,0.537037037,-0.243518519,1,0,0,3.9681,Pegmatite_06,6,06,2,8,3.968,7,04,-0.10462963,-0.4,1,0,0,1.1632,Pegmatite_rect,6,1.163,1,9,0,9,0,1,,,,,,,,,,,,,
60c4e1091b936c7b812e5af4,SCR,2024-06-11_13h12.26.374,LearnStrategy,2023.2.3,Win32,60.24096386,5,1,11,0.231481481,-0.400925926,1,0,0,1.8442,Diorite_07,3,07,1,6,1.844,7,10,0.073148148,-0.398148148,1,0,0,2.3775,Peridotite_rect,7,2.377,0,10,0,10,0,1,,,,,,,,,,,,,
60c4e1091b936c7b812e5af4,SCR,2024-06-11_13h12.26.374,LearnStrategy,2023.2.3,Win32,60.24096386,5,1,12,-0.085185185,0.412962963,1,0,0,4.0784,Diorite_09,3,09,6,4,4.078,1,03,0.162037037,-0.244444444,1,0,0,1.1865,Diorite_rect,3,1.187,1,11,0,11,0,1,,,,,,,,,,,,,
60c4e1091b936c7b812e5af4,SCR,2024-06-11_13h12.26.374,LearnStrategy,2023.2.3,Win32,60.24096386,5,1,13,0.077777778,-0.096296296,1,0,0,1.4442,Peridotite_12,7,12,3,5,1.444,7,16,0.166666667,-0.241666667,1,0,0,1.4833,Diorite_rect,3,1.483,0,12,0,12,0,1,,,,,,,,,,,,,
60c4e1091b936c7b812e5af4,SCR,2024-06-11_13h12.26.374,LearnStrategy,2023.2.3,Win32,60.24096386,5,1,14,-0.22037037,0.083333333,1,0,0,2.8482,Andesite_07,1,07,4,3,2.848,6,13,0.127777778,-0.237962963,1,0,0,1.3755,Diorite_rect,3,1.375,0,13,0,13,0,1,,,,,,,,,,,,,
60c4e1091b936c7b812e5af4,SCR,2024-06-11_13h12.26.374,LearnStrategy,2023.2.3,Win32,60.24096386,5,1,15,-0.372222222,0.252777778,1,0,0,1.9237,Diorite_14,3,14,5,2,1.924,1,14,-0.374074074,-0.243518519,1,0,0,0.9755,Andesite_rect,1,0.976,0,14,0,14,0,1,,,,,,,,,,,,,
60c4e1091b936c7b812e5af4,SCR,2024-06-11_13h12.26.374,LearnStrategy,2023.2.3,Win32,60.24096386,5,1,16,0.55462963,0.1,1,0,0,2.1047,Pegmatite_12,6,12,4,8,2.105,3,02,-0.12962963,-0.392592593,1,0,0,5.1171,Pegmatite_rect,6,5.117,1,15,0,15,0,1,,,,,,,,,,,,,
60c4e1091b936c7b812e5af4,SCR,2024-06-11_13h12.26.374,LearnStrategy,2023.2.3,Win32,60.24096386,5,2,1,,,,,,,,2,14,,,,,,,,,,,,,4,8.18,0,,,,,,0.368518519,-0.262037037,1,0,0,8.1799,Gabbro_rect,0,0,0,0,1,
60c4e1091b936c7b812e5af4,SCR,2024-06-11_13h12.26.374,LearnStrategy,2023.2.3,Win32,60.24096386,5,2,2,,,,,,,,7,07,,,,,,,,,,,,,1,2.024,0,,,,,,-0.362962963,-0.236111111,1,0,0,2.0241,Andesite_rect,1,0,1,0,1,
60c4e1091b936c7b812e5af4,SCR,2024-06-11_13h12.26.374,LearnStrategy,2023.2.3,Win32,60.24096386,5,2,3,,,,,,,,6,16,,,,,,,,,,,,,6,1.293,1,,,,,,-0.097222222,-0.398148148,1,0,0,1.2931,Pegmatite_rect,2,0,2,0,1,
60c4e1091b936c7b812e5af4,SCR,2024-06-11_13h12.26.374,LearnStrategy,2023.2.3,Win32,60.24096386,5,2,4,,,,,,,,6,03,,,,,,,,,,,,,6,1.01,1,,,,,,-0.142592593,-0.399074074,1,0,0,1.0103,Pegmatite_rect,3,0,3,0,1,
60c4e1091b936c7b812e5af4,SCR,2024-06-11_13h12.26.374,LearnStrategy,2023.2.3,Win32,60.24096386,5,2,5,,,,,,,,5,14,,,,,,,,,,,,,5,1.096,1,,,,,,-0.456481481,-0.391666667,1,0,0,1.0957,Obsidian_rect,4,0,4,0,1,
60c4e1091b936c7b812e5af4,SCR,2024-06-11_13h12.26.374,LearnStrategy,2023.2.3,Win32,60.24096386,5,2,6,,,,,,,,1,11,,,,,,,,,,,,,3,4.682,0,,,,,,0.137037037,-0.246296296,1,0,0,4.6818,Diorite_rect,5,0,5,0,1,
60c4e1091b936c7b812e5af4,SCR,2024-06-11_13h12.26.374,LearnStrategy,2023.2.3,Win32,60.24096386,5,2,7,,,,,,,,4,09,,,,,,,,,,,,,5,2.173,0,,,,,,-0.387962963,-0.405555556,1,0,0,2.1734,Obsidian_rect,6,0,6,0,1,
60c4e1091b936c7b812e5af4,SCR,2024-06-11_13h12.26.374,LearnStrategy,2023.2.3,Win32,60.24096386,5,2,8,,,,,,,,3,11,,,,,,,,,,,,,1,4.765,0,,,,,,-0.359259259,-0.248148148,1,0,0,4.7646,Andesite_rect,7,0,7,0,1,
60c4e1091b936c7b812e5af4,SCR,2024-06-11_13h12.26.374,LearnStrategy,2023.2.3,Win32,60.24096386,5,2,9,,,,,,,,8,03,,,,,,,,,,,,,8,1.336,1,,,,,,0.363888889,-0.414814815,1,0,0,1.3358,Pumice_rect,8,0,8,0,1,
60c4e1091b936c7b812e5af4,SCR,2024-06-11_13h12.26.374,LearnStrategy,2023.2.3,Win32,60.24096386,5,2,10,,,,,,,,5,06,,,,,,,,,,,,,5,1.072,1,,,,,,-0.375,-0.402777778,1,0,0,1.0715,Obsidian_rect,9,0,9,0,1,
60c4e1091b936c7b812e5af4,SCR,2024-06-11_13h12.26.374,LearnStrategy,2023.2.3,Win32,60.24096386,5,2,11,,,,,,,,2,01,,,,,,,,,,,,,2,1.535,1,,,,,,-0.147222222,-0.253703704,1,0,0,1.5349,Basalt_rect,10,0,10,0,1,
60c4e1091b936c7b812e5af4,SCR,2024-06-11_13h12.26.374,LearnStrategy,2023.2.3,Win32,60.24096386,5,2,12,,,,,,,,4,12,,,,,,,,,,,,,2,1.994,0,,,,,,-0.127777778,-0.238888889,1,0,0,1.9938,Basalt_rect,11,0,11,0,1,
60c4e1091b936c7b812e5af4,SCR,2024-06-11_13h12.26.374,LearnStrategy,2023.2.3,Win32,60.24096386,5,2,13,,,,,,,,1,02,,,,,,,,,,,,,1,3.094,1,,,,,,-0.352777778,-0.232407407,1,0,0,3.0945,Andesite_rect,12,0,12,0,1,
60c4e1091b936c7b812e5af4,SCR,2024-06-11_13h12.26.374,LearnStrategy,2023.2.3,Win32,60.24096386,5,2,14,,,,,,,,3,08,,,,,,,,,,,,,1,1.041,0,,,,,,-0.353703704,-0.262962963,1,0,0,1.0414,Andesite_rect,13,0,13,0,1,
60c4e1091b936c7b812e5af4,SCR,2024-06-11_13h12.26.374,LearnStrategy,2023.2.3,Win32,60.24096386,5,2,15,,,,,,,,8,06,,,,,,,,,,,,,8,1.05,1,,,,,,0.401851852,-0.406481481,1,0,0,1.0497,Pumice_rect,14,0,14,0,1,
60c4e1091b936c7b812e5af4,SCR,2024-06-11_13h12.26.374,LearnStrategy,2023.2.3,Win32,60.24096386,5,2,16,,,,,,,,7,15,,,,,,,,,,,,,1,6.065,0,,,,,,-0.333333333,-0.248148148,1,0,0,6.0649,Andesite_rect,15,0,15,0,1,
60c4e1091b936c7b812e5af4,SCR,2024-06-11_13h12.26.374,LearnStrategy,2023.2.3,Win32,60.24096386,6,1,1,-0.525,0.40462963,1,0,0,1.4009,Andesite_04,1,04,6,1,1.401,6,09,0.131481481,-0.248148148,1,0,0,3.7093,Diorite_rect,3,3.709,0,0,0,0,0,1,,,,,,,,,,,,,
60c4e1091b936c7b812e5af4,SCR,2024-06-11_13h12.26.374,LearnStrategy,2023.2.3,Win32,60.24096386,6,1,2,-0.407407407,0.403703704,1,0,0,1.0292,Basalt_04,2,04,6,2,1.029,2,02,-0.157407407,-0.239814815,1,0,0,1.9701,Basalt_rect,2,1.97,1,1,0,1,0,1,,,,,,,,,,,,,
60c4e1091b936c7b812e5af4,SCR,2024-06-11_13h12.26.374,LearnStrategy,2023.2.3,Win32,60.24096386,6,1,3,-0.253703704,0.410185185,1,0,0,0.93,Obsidian_07,5,07,6,3,0.93,7,10,-0.432407407,-0.402777778,1,0,0,0.9244,Obsidian_rect,5,0.924,1,2,0,2,0,1,,,,,,,,,,,,,
60c4e1091b936c7b812e5af4,SCR,2024-06-11_13h12.26.374,LearnStrategy,2023.2.3,Win32,60.24096386,6,1,4,-0.087037037,0.42037037,1,0,0,0.9735,Diorite_09,3,09,6,4,0.973,4,14,0.086111111,-0.400925926,1,0,0,5.4457,Peridotite_rect,7,5.446,0,3,0,3,0,1,,,,,,,,,,,,,
60c4e1091b936c7b812e5af4,SCR,2024-06-11_13h12.26.374,LearnStrategy,2023.2.3,Win32,60.24096386,6,1,5,0.099074074,0.402777778,1,0,0,1.2536,Peridotite_04,7,04,6,5,1.254,2,16,0.137962963,-0.266666667,1,0,0,3.8475,Diorite_rect,3,3.847,0,4,0,4,0,1,,,,,,,,,,,,,
60c4e1091b936c7b812e5af4,SCR,2024-06-11_13h12.26.374,LearnStrategy,2023.2.3,Win32,60.24096386,6,1,6,0.263888889,0.443518519,1,0,0,0.9318,Diorite_02,3,02,6,6,0.932,3,15,0.112037037,-0.407407407,1,0,0,3.4732,Peridotite_rect,7,3.473,0,5,0,5,0,1,,,,,,,,,,,,,
60c4e1091b936c7b812e5af4,SCR,2024-06-11_13h12.26.374,LearnStrategy,2023.2.3,Win32,60.24096386,6,1,7,0.392592593,0.435185185,1,0,0,0.9127,Gabbro_03,4,03,6,7,0.913,7,16,0.088888889,-0.241666667,1,0,0,1.99,Diorite_rect,3,1.99,0,6,0,6,0,1,,,,,,,,,,,,,
60c4e1091b936c7b812e5af4,SCR,2024-06-11_13h12.26.374,LearnStrategy,2023.2.3,Win32,60.24096386,6,1,8,0.561111111,0.399074074,1,0,0,1.1257,Pegmatite_09,6,09,6,8,1.126,1,07,-0.171296296,-0.414814815,1,0,0,1.6007,Pegmatite_rect,6,1.601,1,7,0,7,0,1,,,,,,,,,,,,,
60c4e1091b936c7b812e5af4,SCR,2024-06-11_13h12.26.374,LearnStrategy,2023.2.3,Win32,60.24096386,6,1,9,-0.386111111,0.250925926,1,0,0,1.3377,Diorite_14,3,14,5,2,1.338,4,14,0.112037037,-0.409259259,1,0,0,3.3761,Peridotite_rect,7,3.376,0,8,0,8,0,1,,,,,,,,,,,,,
60c4e1091b936c7b812e5af4,SCR,2024-06-11_13h12.26.374,LearnStrategy,2023.2.3,Win32,60.24096386,6,1,10,-0.233333333,0.258333333,1,0,0,0.8327,Pegmatite_05,6,05,5,3,0.833,4,11,-0.114814815,-0.414814815,1,0,0,1.3565,Pegmatite_rect,6,1.357,1,9,0,9,0,1,,,,,,,,,,,,,
60c4e1091b936c7b812e5af4,SCR,2024-06-11_13h12.26.374,LearnStrategy,2023.2.3,Win32,60.24096386,6,1,11,-0.05462963,0.241666667,1,0,0,0.7124,Andesite_14,1,14,5,4,0.712,7,02,-0.099074074,-0.410185185,1,0,0,2.2368,Pegmatite_rect,6,2.237,0,10,0,10,0,1,,,,,,,,,,,,,
60c4e1091b936c7b812e5af4,SCR,2024-06-11_13h12.26.374,LearnStrategy,2023.2.3,Win32,60.24096386,6,1,12,0.061111111,0.249074074,1,0,0,1.1986,Basalt_10,2,10,5,5,1.199,1,05,-0.146296296,-0.238888889,1,0,0,1.0906,Basalt_rect,2,1.091,1,11,0,11,0,1,,,,,,,,,,,,,
60c4e1091b936c7b812e5af4,SCR,2024-06-11_13h12.26.374,LearnStrategy,2023.2.3,Win32,60.24096386,6,1,13,0.262962963,0.242592593,1,0,0,0.7075,Andesite_03,1,03,5,6,0.708,1,03,0.119444444,-0.255555556,1,0,0,5.9142,Diorite_rect,3,5.914,0,12,0,12,0,1,,,,,,,,,,,,,
60c4e1091b936c7b812e5af4,SCR,2024-06-11_13h12.26.374,LearnStrategy,2023.2.3,Win32,60.24096386,6,1,14,0.402777778,0.25,1,0,0,1.0136,Basalt_11,2,11,5,7,1.014,3,15,0.385185185,-0.394444444,1,0,0,1.9456,Pumice_rect,8,1.946,0,13,0,13,0,1,,,,,,,,,,,,,
60c4e1091b936c7b812e5af4,SCR,2024-06-11_13h12.26.374,LearnStrategy,2023.2.3,Win32,60.24096386,6,1,15,0.552777778,0.258333333,1,0,0,0.9704,Gabbro_13,4,13,5,8,0.97,7,10,0.086111111,-0.247222222,1,0,0,4.4771,Diorite_rect,3,4.477,0,14,0,14,0,1,,,,,,,,,,,,,
60c4e1091b936c7b812e5af4,SCR,2024-06-11_13h12.26.374,LearnStrategy,2023.2.3,Win32,60.24096386,6,1,16,-0.567592593,0.09537037,1,0,0,1.3791,Pumice_04,8,04,4,1,1.379,3,06,0.446296296,-0.405555556,1,0,0,1.6197,Pumice_rect,8,1.62,1,15,0,15,0,1,,,,,,,,,,,,,
60c4e1091b936c7b812e5af4,SCR,2024-06-11_13h12.26.374,LearnStrategy,2023.2.3,Win32,60.24096386,6,2,1,,,,,,,,4,01,,,,,,,,,,,,,4,3.871,1,,,,,,0.372222222,-0.25,1,0,0,3.8706,Gabbro_rect,0,0,0,0,1,
60c4e1091b936c7b812e5af4,SCR,2024-06-11_13h12.26.374,LearnStrategy,2023.2.3,Win32,60.24096386,6,2,2,,,,,,,,8,08,,,,,,,,,,,,,8,1.341,1,,,,,,0.424074074,-0.413888889,1,0,0,1.341,Pumice_rect,1,0,1,0,1,
60c4e1091b936c7b812e5af4,SCR,2024-06-11_13h12.26.374,LearnStrategy,2023.2.3,Win32,60.24096386,6,2,3,,,,,,,,7,13,,,,,,,,,,,,,3,1.908,0,,,,,,0.165740741,-0.235185185,1,0,0,1.9082,Diorite_rect,2,0,2,0,1,
60c4e1091b936c7b812e5af4,SCR,2024-06-11_13h12.26.374,LearnStrategy,2023.2.3,Win32,60.24096386,6,2,4,,,,,,,,6,07,,,,,,,,,,,,,6,1.162,1,,,,,,-0.15,-0.417592593,1,0,0,1.1617,Pegmatite_rect,3,0,3,0,1,
60c4e1091b936c7b812e5af4,SCR,2024-06-11_13h12.26.374,LearnStrategy,2023.2.3,Win32,60.24096386,6,2,5,,,,,,,,2,06,,,,,,,,,,,,,2,2.346,1,,,,,,-0.153703704,-0.253703704,1,0,0,2.3463,Basalt_rect,4,0,4,0,1,
60c4e1091b936c7b812e5af4,SCR,2024-06-11_13h12.26.374,LearnStrategy,2023.2.3,Win32,60.24096386,6,2,6,,,,,,,,3,12,,,,,,,,,,,,,7,2.943,0,,,,,,0.111111111,-0.419444444,1,0,0,2.9434,Peridotite_rect,5,0,5,0,1,
60c4e1091b936c7b812e5af4,SCR,2024-06-11_13h12.26.374,LearnStrategy,2023.2.3,Win32,60.24096386,6,2,7,,,,,,,,6,08,,,,,,,,,,,,,6,1.378,1,,,,,,-0.133333333,-0.392592593,1,0,0,1.3779,Pegmatite_rect,6,0,6,0,1,
60c4e1091b936c7b812e5af4,SCR,2024-06-11_13h12.26.374,LearnStrategy,2023.2.3,Win32,60.24096386,6,2,8,,,,,,,,7,14,,,,,,,,,,,,,3,2.527,0,,,,,,0.122222222,-0.232407407,1,0,0,2.5268,Diorite_rect,7,0,7,0,1,
60c4e1091b936c7b812e5af4,SCR,2024-06-11_13h12.26.374,LearnStrategy,2023.2.3,Win32,60.24096386,6,2,9,,,,,,,,5,10,,,,,,,,,,,,,5,1.207,1,,,,,,-0.343518519,-0.384259259,1,0,0,1.2072,Obsidian_rect,8,0,8,0,1,
60c4e1091b936c7b812e5af4,SCR,2024-06-11_13h12.26.374,LearnStrategy,2023.2.3,Win32,60.24096386,6,2,10,,,,,,,,2,09,,,,,,,,,,,,,2,1.105,1,,,,,,-0.153703704,-0.243518519,1,0,0,1.1047,Basalt_rect,9,0,9,0,1,
60c4e1091b936c7b812e5af4,SCR,2024-06-11_13h12.26.374,LearnStrategy,2023.2.3,Win32,60.24096386,6,2,11,,,,,,,,1,06,,,,,,,,,,,,,1,5.963,1,,,,,,-0.383333333,-0.242592593,1,0,0,5.9629,Andesite_rect,10,0,10,0,1,
60c4e1091b936c7b812e5af4,SCR,2024-06-11_13h12.26.374,LearnStrategy,2023.2.3,Win32,60.24096386,6,2,12,,,,,,,,3,10,,,,,,,,,,,,,1,2.035,0,,,,,,-0.393518519,-0.242592593,1,0,0,2.0351,Andesite_rect,11,0,11,0,1,
60c4e1091b936c7b812e5af4,SCR,2024-06-11_13h12.26.374,LearnStrategy,2023.2.3,Win32,60.24096386,6,2,13,,,,,,,,5,08,,,,,,,,,,,,,5,1.044,1,,,,,,-0.382407407,-0.383333333,1,0,0,1.0442,Obsidian_rect,12,0,12,0,1,
60c4e1091b936c7b812e5af4,SCR,2024-06-11_13h12.26.374,LearnStrategy,2023.2.3,Win32,60.24096386,6,2,14,,,,,,,,8,02,,,,,,,,,,,,,8,1.397,1,,,,,,0.37962963,-0.399074074,1,0,0,1.3971,Pumice_rect,13,0,13,0,1,
60c4e1091b936c7b812e5af4,SCR,2024-06-11_13h12.26.374,LearnStrategy,2023.2.3,Win32,60.24096386,6,2,15,,,,,,,,4,08,,,,,,,,,,,,,4,2.676,1,,,,,,0.373148148,-0.259259259,1,0,0,2.6757,Gabbro_rect,14,0,14,0,1,
60c4e1091b936c7b812e5af4,SCR,2024-06-11_13h12.26.374,LearnStrategy,2023.2.3,Win32,60.24096386,6,2,16,,,,,,,,1,01,,,,,,,,,,,,,1,4.513,1,,,,,,-0.357407407,-0.244444444,1,0,0,4.5131,Andesite_rect,15,0,15,0,1,
60c4e1091b936c7b812e5af4,SCR,2024-06-11_13h12.26.374,LearnStrategy,2023.2.3,Win32,60.24096386,7,1,1,-0.543518519,0.409259259,1,0,0,1.4038,Andesite_04,1,04,6,1,1.404,1,07,0.147222222,-0.262037037,1,0,0,4.9667,Diorite_rect,3,4.967,0,0,0,0,0,1,,,,,,,,,,,,,
60c4e1091b936c7b812e5af4,SCR,2024-06-11_13h12.26.374,LearnStrategy,2023.2.3,Win32,60.24096386,7,1,2,-0.385185185,0.401851852,1,0,0,1.0128,Basalt_04,2,04,6,2,1.013,5,07,-0.119444444,-0.259259259,1,0,0,1.0221,Basalt_rect,2,1.022,1,1,0,1,0,1,,,,,,,,,,,,,
60c4e1091b936c7b812e5af4,SCR,2024-06-11_13h12.26.374,LearnStrategy,2023.2.3,Win32,60.24096386,7,1,3,-0.226851852,0.401851852,1,0,0,0.8602,Obsidian_07,5,07,6,3,0.86,3,06,-0.451851852,-0.409259259,1,0,0,1.2828,Obsidian_rect,5,1.283,1,2,0,2,0,1,,,,,,,,,,,,,
60c4e1091b936c7b812e5af4,SCR,2024-06-11_13h12.26.374,LearnStrategy,2023.2.3,Win32,60.24096386,7,1,4,-0.07962963,0.411111111,1,0,0,0.8128,Diorite_09,3,09,6,4,0.813,1,14,-0.388888889,-0.25,1,0,0,2.6016,Andesite_rect,1,2.602,0,3,0,3,0,1,,,,,,,,,,,,,
60c4e1091b936c7b812e5af4,SCR,2024-06-11_13h12.26.374,LearnStrategy,2023.2.3,Win32,60.24096386,7,1,5,0.101851852,0.425925926,1,0,0,1.0452,Peridotite_04,7,04,6,5,1.045,3,02,-0.394444444,-0.247222222,1,0,0,1.1931,Andesite_rect,1,1.193,0,4,0,4,0,1,,,,,,,,,,,,,
60c4e1091b936c7b812e5af4,SCR,2024-06-11_13h12.26.374,LearnStrategy,2023.2.3,Win32,60.24096386,7,1,6,0.249074074,0.442592593,1,0,0,0.8135,Diorite_02,3,02,6,6,0.813,3,06,-0.368518519,-0.231481481,1,0,0,2.7365,Andesite_rect,1,2.736,0,5,0,5,0,1,,,,,,,,,,,,,
60c4e1091b936c7b812e5af4,SCR,2024-06-11_13h12.26.374,LearnStrategy,2023.2.3,Win32,60.24096386,7,1,7,0.390740741,0.402777778,1,0,0,1.1783,Gabbro_03,4,03,6,7,1.178,2,11,-0.394444444,-0.248148148,1,0,0,2.2344,Andesite_rect,1,2.234,0,6,0,6,0,1,,,,,,,,,,,,,
60c4e1091b936c7b812e5af4,SCR,2024-06-11_13h12.26.374,LearnStrategy,2023.2.3,Win32,60.24096386,7,1,8,0.593518519,0.437037037,1,0,0,0.8531,Pegmatite_09,6,09,6,8,0.853,7,16,-0.125,-0.418518519,1,0,0,1.3287,Pegmatite_rect,6,1.329,1,7,0,7,0,1,,,,,,,,,,,,,
60c4e1091b936c7b812e5af4,SCR,2024-06-11_13h12.26.374,LearnStrategy,2023.2.3,Win32,60.24096386,7,1,9,-0.387037037,0.252777778,1,0,0,1.332,Diorite_14,3,14,5,2,1.332,4,03,0.12037037,-0.378703704,1,0,0,2.8028,Peridotite_rect,7,2.803,0,8,0,8,0,1,,,,,,,,,,,,,
60c4e1091b936c7b812e5af4,SCR,2024-06-11_13h12.26.374,LearnStrategy,2023.2.3,Win32,60.24096386,7,1,10,-0.227777778,0.256481481,1,0,0,0.8135,Pegmatite_05,6,05,5,3,0.813,3,15,-0.122222222,-0.418518519,1,0,0,1.3602,Pegmatite_rect,6,1.36,1,9,0,9,0,1,,,,,,,,,,,,,
60c4e1091b936c7b812e5af4,SCR,2024-06-11_13h12.26.374,LearnStrategy,2023.2.3,Win32,60.24096386,7,1,11,-0.073148148,0.256481481,1,0,0,0.8293,Andesite_14,1,14,5,4,0.829,7,10,0.397222222,-0.242592593,1,0,0,5.0101,Gabbro_rect,4,5.01,0,10,0,10,0,1,,,,,,,,,,,,,
60c4e1091b936c7b812e5af4,SCR,2024-06-11_13h12.26.374,LearnStrategy,2023.2.3,Win32,60.24096386,7,1,12,0.091666667,0.224074074,1,0,0,1.3642,Basalt_10,2,10,5,5,1.364,6,09,-0.15462963,-0.235185185,1,0,0,1.0439,Basalt_rect,2,1.044,1,11,0,11,0,1,,,,,,,,,,,,,
60c4e1091b936c7b812e5af4,SCR,2024-06-11_13h12.26.374,LearnStrategy,2023.2.3,Win32,60.24096386,7,1,13,0.252777778,0.248148148,1,0,0,0.7796,Andesite_03,1,03,5,6,0.78,7,12,-0.374074074,-0.228703704,1,0,0,2.2469,Andesite_rect,1,2.247,1,12,0,12,0,1,,,,,,,,,,,,,
60c4e1091b936c7b812e5af4,SCR,2024-06-11_13h12.26.374,LearnStrategy,2023.2.3,Win32,60.24096386,7,1,14,0.403703704,0.251851852,1,0,0,0.9133,Basalt_11,2,11,5,7,0.913,1,03,0.377777778,-0.264814815,1,0,0,3.8924,Gabbro_rect,4,3.892,0,13,0,13,0,1,,,,,,,,,,,,,
60c4e1091b936c7b812e5af4,SCR,2024-06-11_13h12.26.374,LearnStrategy,2023.2.3,Win32,60.24096386,7,1,15,0.569444444,0.271296296,1,0,0,1.0798,Gabbro_13,4,13,5,8,1.08,4,11,0.10462963,-0.399074074,1,0,0,5.7948,Peridotite_rect,7,5.795,0,14,0,14,0,1,,,,,,,,,,,,,
60c4e1091b936c7b812e5af4,SCR,2024-06-11_13h12.26.374,LearnStrategy,2023.2.3,Win32,60.24096386,7,1,16,-0.400925926,0.09537037,1,0,0,1.8457,Andesite_05,1,05,4,2,1.846,7,04,-0.378703704,-0.257407407,1,0,0,4.2478,Andesite_rect,1,4.248,1,15,0,15,0,1,,,,,,,,,,,,,
60c4e1091b936c7b812e5af4,SCR,2024-06-11_13h12.26.374,LearnStrategy,2023.2.3,Win32,60.24096386,7,2,1,,,,,,,,3,11,,,,,,,,,,,,,3,5.33,1,,,,,,0.149074074,-0.241666667,1,0,0,5.3303,Diorite_rect,0,0,0,0,1,
60c4e1091b936c7b812e5af4,SCR,2024-06-11_13h12.26.374,LearnStrategy,2023.2.3,Win32,60.24096386,7,2,2,,,,,,,,5,14,,,,,,,,,,,,,5,1.061,1,,,,,,-0.411111111,-0.384259259,1,0,0,1.0614,Obsidian_rect,1,0,1,0,1,
60c4e1091b936c7b812e5af4,SCR,2024-06-11_13h12.26.374,LearnStrategy,2023.2.3,Win32,60.24096386,7,2,3,,,,,,,,3,08,,,,,,,,,,,,,7,2.893,0,,,,,,0.138888889,-0.405555556,1,0,0,2.8927,Peridotite_rect,2,0,2,0,1,
60c4e1091b936c7b812e5af4,SCR,2024-06-11_13h12.26.374,LearnStrategy,2023.2.3,Win32,60.24096386,7,2,4,,,,,,,,6,08,,,,,,,,,,,,,6,0.98,1,,,,,,-0.094444444,-0.385185185,1,0,0,0.9801,Pegmatite_rect,3,0,3,0,1,
60c4e1091b936c7b812e5af4,SCR,2024-06-11_13h12.26.374,LearnStrategy,2023.2.3,Win32,60.24096386,7,2,5,,,,,,,,1,09,,,,,,,,,,,,,7,1.313,0,,,,,,0.132407407,-0.410185185,1,0,0,1.3128,Peridotite_rect,4,0,4,0,1,
60c4e1091b936c7b812e5af4,SCR,2024-06-11_13h12.26.374,LearnStrategy,2023.2.3,Win32,60.24096386,7,2,6,,,,,,,,4,08,,,,,,,,,,,,,7,1.334,0,,,,,,0.125925926,-0.402777778,1,0,0,1.3342,Peridotite_rect,5,0,5,0,1,
60c4e1091b936c7b812e5af4,SCR,2024-06-11_13h12.26.374,LearnStrategy,2023.2.3,Win32,60.24096386,7,2,7,,,,,,,,4,12,,,,,,,,,,,,,2,2.145,0,,,,,,-0.103703704,-0.261111111,1,0,0,2.1448,Basalt_rect,6,0,6,0,1,
60c4e1091b936c7b812e5af4,SCR,2024-06-11_13h12.26.374,LearnStrategy,2023.2.3,Win32,60.24096386,7,2,8,,,,,,,,6,11,,,,,,,,,,,,,6,1.006,1,,,,,,-0.17037037,-0.405555556,1,0,0,1.0059,Pegmatite_rect,7,0,7,0,1,
60c4e1091b936c7b812e5af4,SCR,2024-06-11_13h12.26.374,LearnStrategy,2023.2.3,Win32,60.24096386,7,2,9,,,,,,,,5,10,,,,,,,,,,,,,5,1.046,1,,,,,,-0.368518519,-0.39537037,1,0,0,1.0459,Obsidian_rect,8,0,8,0,1,
60c4e1091b936c7b812e5af4,SCR,2024-06-11_13h12.26.374,LearnStrategy,2023.2.3,Win32,60.24096386,7,2,10,,,,,,,,7,05,,,,,,,,,,,,,3,4.53,0,,,,,,0.121296296,-0.263888889,1,0,0,4.53,Diorite_rect,9,0,9,0,1,
60c4e1091b936c7b812e5af4,SCR,2024-06-11_13h12.26.374,LearnStrategy,2023.2.3,Win32,60.24096386,7,2,11,,,,,,,,1,02,,,,,,,,,,,,,1,1.16,1,,,,,,-0.367592593,-0.237037037,1,0,0,1.1603,Andesite_rect,10,0,10,0,1,
60c4e1091b936c7b812e5af4,SCR,2024-06-11_13h12.26.374,LearnStrategy,2023.2.3,Win32,60.24096386,7,2,12,,,,,,,,2,14,,,,,,,,,,,,,4,6.331,0,,,,,,0.337037037,-0.244444444,1,0,0,6.3307,Gabbro_rect,11,0,11,0,1,
60c4e1091b936c7b812e5af4,SCR,2024-06-11_13h12.26.374,LearnStrategy,2023.2.3,Win32,60.24096386,7,2,13,,,,,,,,2,05,,,,,,,,,,,,,2,2.05,1,,,,,,-0.138888889,-0.231481481,1,0,0,2.0505,Basalt_rect,12,0,12,0,1,
60c4e1091b936c7b812e5af4,SCR,2024-06-11_13h12.26.374,LearnStrategy,2023.2.3,Win32,60.24096386,7,2,14,,,,,,,,8,06,,,,,,,,,,,,,8,2.211,1,,,,,,0.411111111,-0.387962963,1,0,0,2.2112,Pumice_rect,13,0,13,0,1,
60c4e1091b936c7b812e5af4,SCR,2024-06-11_13h12.26.374,LearnStrategy,2023.2.3,Win32,60.24096386,7,2,15,,,,,,,,7,13,,,,,,,,,,,,,3,4.662,0,,,,,,0.102777778,-0.252777778,1,0,0,4.6624,Diorite_rect,14,0,14,0,1,
60c4e1091b936c7b812e5af4,SCR,2024-06-11_13h12.26.374,LearnStrategy,2023.2.3,Win32,60.24096386,7,2,16,,,,,,,,8,02,,,,,,,,,,,,,8,6.193,1,,,,,,0.37037037,-0.389814815,1,0,0,6.1933,Pumice_rect,15,0,15,0,1,
60c4e1091b936c7b812e5af4,SCR,2024-06-11_13h12.26.374,LearnStrategy,2023.2.3,Win32,60.24096386,8,1,1,-0.547222222,-0.424074074,1,0,0,2.1994,Andesite_10,1,10,1,1,2.199,7,04,-0.490740741,-0.253703704,1,0,0,5.171,Andesite_rect,1,5.171,1,0,0,0,0,1,,,,,,,,,,,,,
60c4e1091b936c7b812e5af4,SCR,2024-06-11_13h12.26.374,LearnStrategy,2023.2.3,Win32,60.24096386,8,1,2,-0.384259259,-0.412037037,1,0,0,0.8632,Diorite_15,3,15,1,2,0.863,3,15,0.124074074,-0.24537037,1,0,0,4.0598,Diorite_rect,3,4.06,1,1,0,1,0,1,,,,,,,,,,,,,
60c4e1091b936c7b812e5af4,SCR,2024-06-11_13h12.26.374,LearnStrategy,2023.2.3,Win32,60.24096386,8,1,3,0.075925926,-0.408333333,1,0,0,1.9591,Pegmatite_13,6,13,1,5,1.959,1,05,-0.101851852,-0.402777778,1,0,0,1.2972,Pegmatite_rect,6,1.297,1,2,0,2,0,1,,,,,,,,,,,,,
60c4e1091b936c7b812e5af4,SCR,2024-06-11_13h12.26.374,LearnStrategy,2023.2.3,Win32,60.24096386,8,1,4,0.237962963,-0.418518519,1,0,0,0.9143,Diorite_07,3,07,1,6,0.914,7,04,-0.349074074,-0.253703704,1,0,0,3.1741,Andesite_rect,1,3.174,0,3,0,3,0,1,,,,,,,,,,,,,
60c4e1091b936c7b812e5af4,SCR,2024-06-11_13h12.26.374,LearnStrategy,2023.2.3,Win32,60.24096386,8,1,5,0.552777778,-0.264814815,1,0,0,2.7464,Pegmatite_06,6,06,2,8,2.746,4,11,-0.066666667,-0.400925926,1,0,0,1.2139,Pegmatite_rect,6,1.214,1,4,0,4,0,1,,,,,,,,,,,,,
60c4e1091b936c7b812e5af4,SCR,2024-06-11_13h12.26.374,LearnStrategy,2023.2.3,Win32,60.24096386,8,1,6,0.418518519,-0.258333333,1,0,0,0.8925,Peridotite_02,7,02,2,7,0.892,4,05,0.146296296,-0.259259259,1,0,0,1.454,Diorite_rect,3,1.454,0,5,0,5,0,1,,,,,,,,,,,,,
60c4e1091b936c7b812e5af4,SCR,2024-06-11_13h12.26.374,LearnStrategy,2023.2.3,Win32,60.24096386,8,1,7,0.073148148,-0.246296296,1,0,0,1.7094,Pumice_10,8,10,2,5,1.709,4,11,-0.362962963,-0.248148148,1,0,0,4.6626,Andesite_rect,1,4.663,0,6,0,6,0,1,,,,,,,,,,,,,
60c4e1091b936c7b812e5af4,SCR,2024-06-11_13h12.26.374,LearnStrategy,2023.2.3,Win32,60.24096386,8,1,8,-0.077777778,-0.243518519,1,0,0,1.1092,Peridotite_10,7,10,2,4,1.109,2,04,0.178703704,-0.237962963,1,0,0,3.0557,Diorite_rect,3,3.056,0,7,0,7,0,1,,,,,,,,,,,,,
60c4e1091b936c7b812e5af4,SCR,2024-06-11_13h12.26.374,LearnStrategy,2023.2.3,Win32,60.24096386,8,1,9,-0.225,-0.237037037,1,0,0,1.2959,Gabbro_11,4,11,2,3,1.296,7,08,-0.172222222,-0.246296296,1,0,0,1.4986,Basalt_rect,2,1.499,0,8,0,8,0,1,,,,,,,,,,,,,
60c4e1091b936c7b812e5af4,SCR,2024-06-11_13h12.26.374,LearnStrategy,2023.2.3,Win32,60.24096386,8,1,10,-0.385185185,-0.237037037,1,0,0,1.295,Pumice_15,8,15,2,2,1.295,6,15,0.462037037,-0.400925926,1,0,0,1.1308,Pumice_rect,8,1.131,1,9,0,9,0,1,,,,,,,,,,,,,
60c4e1091b936c7b812e5af4,SCR,2024-06-11_13h12.26.374,LearnStrategy,2023.2.3,Win32,60.24096386,8,1,11,-0.541666667,-0.262962963,1,0,0,0.8788,Peridotite_08,7,08,2,1,0.879,2,11,-0.464814815,-0.244444444,1,0,0,6.2429,Andesite_rect,1,6.243,0,10,0,10,0,1,,,,,,,,,,,,,
60c4e1091b936c7b812e5af4,SCR,2024-06-11_13h12.26.374,LearnStrategy,2023.2.3,Win32,60.24096386,8,1,12,0.560185185,-0.115740741,1,0,0,2.5379,Basalt_02,2,02,3,8,2.538,1,05,-0.089814815,-0.262037037,1,0,0,1.3845,Basalt_rect,2,1.384,1,11,0,11,0,1,,,,,,,,,,,,,
60c4e1091b936c7b812e5af4,SCR,2024-06-11_13h12.26.374,LearnStrategy,2023.2.3,Win32,60.24096386,8,1,13,0.362037037,-0.098148148,1,0,0,1.6133,Diorite_06,3,06,3,7,1.613,3,09,-0.40462963,-0.238888889,1,0,0,2.1041,Andesite_rect,1,2.104,0,12,0,12,0,1,,,,,,,,,,,,,
60c4e1091b936c7b812e5af4,SCR,2024-06-11_13h12.26.374,LearnStrategy,2023.2.3,Win32,60.24096386,8,1,14,0.4,0.426851852,1,0,0,4.5297,Gabbro_03,4,03,6,7,4.53,7,04,0.12962963,-0.243518519,1,0,0,1.0236,Diorite_rect,3,1.024,0,13,0,13,0,1,,,,,,,,,,,,,
60c4e1091b936c7b812e5af4,SCR,2024-06-11_13h12.26.374,LearnStrategy,2023.2.3,Win32,60.24096386,8,1,15,-0.069444444,0.419444444,1,0,0,1.4285,Diorite_09,3,09,6,4,1.428,3,06,0.112962963,-0.25,1,0,0,1.7319,Diorite_rect,3,1.732,1,14,0,14,0,1,,,,,,,,,,,,,
60c4e1091b936c7b812e5af4,SCR,2024-06-11_13h12.26.374,LearnStrategy,2023.2.3,Win32,60.24096386,8,1,16,-0.389814815,0.263888889,1,0,0,1.596,Diorite_14,3,14,5,2,1.596,1,04,0.157407407,-0.232407407,1,0,0,0.8935,Diorite_rect,3,0.894,1,15,0,15,0,1,,,,,,,,,,,,,
60c4e1091b936c7b812e5af4,SCR,2024-06-11_13h12.26.374,LearnStrategy,2023.2.3,Win32,60.24096386,8,2,1,,,,,,,,8,03,,,,,,,,,,,,,8,2.377,1,,,,,,0.340740741,-0.384259259,1,0,0,2.3773,Pumice_rect,0,0,0,0,1,
60c4e1091b936c7b812e5af4,SCR,2024-06-11_13h12.26.374,LearnStrategy,2023.2.3,Win32,60.24096386,8,2,2,,,,,,,,1,06,,,,,,,,,,,,,4,7.163,0,,,,,,0.410185185,-0.243518519,1,0,0,7.1625,Gabbro_rect,1,0,1,0,1,
60c4e1091b936c7b812e5af4,SCR,2024-06-11_13h12.26.374,LearnStrategy,2023.2.3,Win32,60.24096386,8,2,3,,,,,,,,2,01,,,,,,,,,,,,,2,1.52,1,,,,,,-0.085185185,-0.253703704,1,0,0,1.5199,Basalt_rect,2,0,2,0,1,
60c4e1091b936c7b812e5af4,SCR,2024-06-11_13h12.26.374,LearnStrategy,2023.2.3,Win32,60.24096386,8,2,4,,,,,,,,1,16,,,,,,,,,,,,,1,4.999,1,,,,,,-0.337037037,-0.244444444,1,0,0,4.9992,Andesite_rect,3,0,3,0,1,
60c4e1091b936c7b812e5af4,SCR,2024-06-11_13h12.26.374,LearnStrategy,2023.2.3,Win32,60.24096386,8,2,5,,,,,,,,2,08,,,,,,,,,,,,,2,2.375,1,,,,,,-0.106481481,-0.242592593,1,0,0,2.3749,Basalt_rect,4,0,4,0,1,
60c4e1091b936c7b812e5af4,SCR,2024-06-11_13h12.26.374,LearnStrategy,2023.2.3,Win32,60.24096386,8,2,6,,,,,,,,5,06,,,,,,,,,,,,,5,1.456,1,,,,,,-0.380555556,-0.387962963,1,0,0,1.4562,Obsidian_rect,5,0,5,0,1,
60c4e1091b936c7b812e5af4,SCR,2024-06-11_13h12.26.374,LearnStrategy,2023.2.3,Win32,60.24096386,8,2,7,,,,,,,,7,14,,,,,,,,,,,,,3,9.98,0,,,,,,0.110185185,-0.243518519,1,0,0,9.9801,Diorite_rect,6,0,6,0,1,
60c4e1091b936c7b812e5af4,SCR,2024-06-11_13h12.26.374,LearnStrategy,2023.2.3,Win32,60.24096386,8,2,8,,,,,,,,5,08,,,,,,,,,,,,,5,2.694,1,,,,,,-0.398148148,-0.380555556,1,0,0,2.6942,Obsidian_rect,7,0,7,0,1,
60c4e1091b936c7b812e5af4,SCR,2024-06-11_13h12.26.374,LearnStrategy,2023.2.3,Win32,60.24096386,8,2,9,,,,,,,,3,13,,,,,,,,,,,,,7,2.63,0,,,,,,0.077777778,-0.401851852,1,0,0,2.6299,Peridotite_rect,8,0,8,0,1,
60c4e1091b936c7b812e5af4,SCR,2024-06-11_13h12.26.374,LearnStrategy,2023.2.3,Win32,60.24096386,8,2,10,,,,,,,,4,15,,,,,,,,,,,,,7,4.305,0,,,,,,0.074074074,-0.381481481,1,0,0,4.3054,Peridotite_rect,9,0,9,0,1,
60c4e1091b936c7b812e5af4,SCR,2024-06-11_13h12.26.374,LearnStrategy,2023.2.3,Win32,60.24096386,8,2,11,,,,,,,,4,09,,,,,,,,,,,,,5,2.671,0,,,,,,-0.369444444,-0.410185185,1,0,0,2.671,Obsidian_rect,10,0,10,0,1,
60c4e1091b936c7b812e5af4,SCR,2024-06-11_13h12.26.374,LearnStrategy,2023.2.3,Win32,60.24096386,8,2,12,,,,,,,,7,06,,,,,,,,,,,,,6,1.663,0,,,,,,-0.158333333,-0.396296296,1,0,0,1.663,Pegmatite_rect,11,0,11,0,1,
60c4e1091b936c7b812e5af4,SCR,2024-06-11_13h12.26.374,LearnStrategy,2023.2.3,Win32,60.24096386,8,2,13,,,,,,,,6,07,,,,,,,,,,,,,6,0.962,1,,,,,,-0.158333333,-0.396296296,1,0,0,0.9621,Pegmatite_rect,12,0,12,0,1,
60c4e1091b936c7b812e5af4,SCR,2024-06-11_13h12.26.374,LearnStrategy,2023.2.3,Win32,60.24096386,8,2,14,,,,,,,,8,08,,,,,,,,,,,,,8,1.329,1,,,,,,0.392592593,-0.382407407,1,0,0,1.3289,Pumice_rect,13,0,13,0,1,
60c4e1091b936c7b812e5af4,SCR,2024-06-11_13h12.26.374,LearnStrategy,2023.2.3,Win32,60.24096386,8,2,15,,,,,,,,6,03,,,,,,,,,,,,,6,1.327,1,,,,,,-0.167592593,-0.39537037,1,0,0,1.327,Pegmatite_rect,14,0,14,0,1,
60c4e1091b936c7b812e5af4,SCR,2024-06-11_13h12.26.374,LearnStrategy,2023.2.3,Win32,60.24096386,8,2,16,,,,,,,,3,16,,,,,,,,,,,,,1,1.695,0,,,,,,-0.355555556,-0.259259259,1,0,0,1.6949,Andesite_rect,15,0,15,0,1,
60c4e1091b936c7b812e5af4,SCR,2024-06-11_13h12.26.374,LearnStrategy,2023.2.3,Win32,60.24096386,9,1,1,-0.542592593,0.399074074,1,0,0,2.4994,Andesite_04,1,04,6,1,2.499,3,09,0.106481481,-0.258333333,1,0,0,3.7677,Diorite_rect,3,3.768,0,0,0,0,0,1,,,,,,,,,,,,,
60c4e1091b936c7b812e5af4,SCR,2024-06-11_13h12.26.374,LearnStrategy,2023.2.3,Win32,60.24096386,9,1,2,-0.551851852,0.414814815,1,0,0,1.5122,Andesite_04,1,04,6,1,1.512,1,05,-0.437962963,-0.234259259,1,0,0,0.9907,Andesite_rect,1,0.991,1,1,0,1,0,1,,,,,,,,,,,,,
60c4e1091b936c7b812e5af4,SCR,2024-06-11_13h12.26.374,LearnStrategy,2023.2.3,Win32,60.24096386,9,1,3,-0.383333333,0.400925926,1,0,0,0.812,Basalt_04,2,04,6,2,0.812,6,15,-0.147222222,-0.253703704,1,0,0,1.5191,Basalt_rect,2,1.519,1,2,0,2,0,1,,,,,,,,,,,,,
60c4e1091b936c7b812e5af4,SCR,2024-06-11_13h12.26.374,LearnStrategy,2023.2.3,Win32,60.24096386,9,1,4,-0.227777778,0.400925926,1,0,0,0.8373,Obsidian_07,5,07,6,3,0.837,7,10,-0.410185185,-0.385185185,1,0,0,1.1746,Obsidian_rect,5,1.175,1,3,0,3,0,1,,,,,,,,,,,,,
60c4e1091b936c7b812e5af4,SCR,2024-06-11_13h12.26.374,LearnStrategy,2023.2.3,Win32,60.24096386,9,1,5,-0.058333333,0.40462963,1,0,0,1.2528,Diorite_09,3,09,6,4,1.253,7,16,0.130555556,-0.385185185,1,0,0,5.1257,Peridotite_rect,7,5.126,0,4,0,4,0,1,,,,,,,,,,,,,
60c4e1091b936c7b812e5af4,SCR,2024-06-11_13h12.26.374,LearnStrategy,2023.2.3,Win32,60.24096386,9,1,6,-0.089814815,0.419444444,1,0,0,0.8802,Diorite_09,3,09,6,4,0.88,4,03,0.12962963,-0.268518519,1,0,0,0.9612,Diorite_rect,3,0.961,1,5,0,5,0,1,,,,,,,,,,,,,
60c4e1091b936c7b812e5af4,SCR,2024-06-11_13h12.26.374,LearnStrategy,2023.2.3,Win32,60.24096386,9,1,7,0.078703704,0.387962963,1,0,0,1.0121,Peridotite_04,7,04,6,5,1.012,3,06,-0.388888889,-0.252777778,1,0,0,3.4901,Andesite_rect,1,3.49,0,6,0,6,0,1,,,,,,,,,,,,,
60c4e1091b936c7b812e5af4,SCR,2024-06-11_13h12.26.374,LearnStrategy,2023.2.3,Win32,60.24096386,9,1,8,0.078703704,0.388888889,1,0,0,0.7628,Peridotite_04,7,04,6,5,0.763,5,02,0.165740741,-0.40462963,1,0,0,1.615,Peridotite_rect,7,1.615,1,7,0,7,0,1,,,,,,,,,,,,,
60c4e1091b936c7b812e5af4,SCR,2024-06-11_13h12.26.374,LearnStrategy,2023.2.3,Win32,60.24096386,9,1,9,0.27962963,0.448148148,1,0,0,0.8965,Diorite_02,3,02,6,6,0.897,7,10,-0.344444444,-0.246296296,1,0,0,3.2955,Andesite_rect,1,3.295,0,8,0,8,0,1,,,,,,,,,,,,,
60c4e1091b936c7b812e5af4,SCR,2024-06-11_13h12.26.374,LearnStrategy,2023.2.3,Win32,60.24096386,9,1,10,-0.371296296,0.272222222,1,0,0,2.7961,Diorite_14,3,14,5,2,2.796,1,03,0.187037037,-0.260185185,1,0,0,0.9761,Diorite_rect,3,0.976,1,9,0,9,0,1,,,,,,,,,,,,,
60c4e1091b936c7b812e5af4,SCR,2024-06-11_13h12.26.374,LearnStrategy,2023.2.3,Win32,60.24096386,9,1,11,0.233333333,-0.392592593,1,0,0,5.9817,Diorite_07,3,07,1,6,5.982,4,11,0.150925926,-0.265740741,1,0,0,0.711,Diorite_rect,3,0.711,1,10,0,10,0,1,,,,,,,,,,,,,
60c4e1091b936c7b812e5af4,SCR,2024-06-11_13h12.26.374,LearnStrategy,2023.2.3,Win32,60.24096386,9,1,12,0.548148148,0.099074074,1,0,0,4.5641,Pegmatite_12,6,12,4,8,4.564,3,09,-0.353703704,-0.253703704,1,0,0,2.9539,Andesite_rect,1,2.954,0,11,0,11,0,1,,,,,,,,,,,,,
60c4e1091b936c7b812e5af4,SCR,2024-06-11_13h12.26.374,LearnStrategy,2023.2.3,Win32,60.24096386,9,1,13,0.57037037,0.089814815,1,0,0,0.9946,Pegmatite_12,6,12,4,8,0.995,3,06,-0.113888889,-0.39537037,1,0,0,1.6771,Pegmatite_rect,6,1.677,1,12,0,12,0,1,,,,,,,,,,,,,
60c4e1091b936c7b812e5af4,SCR,2024-06-11_13h12.26.374,LearnStrategy,2023.2.3,Win32,60.24096386,9,1,14,-0.064814815,-0.106481481,1,0,0,2.8304,Pegmatite_15,6,15,3,4,2.83,4,05,-0.118518519,-0.42037037,1,0,0,3.8004,Pegmatite_rect,6,3.8,1,13,0,13,0,1,,,,,,,,,,,,,
60c4e1091b936c7b812e5af4,SCR,2024-06-11_13h12.26.374,LearnStrategy,2023.2.3,Win32,60.24096386,9,1,15,0.106481481,-0.267592593,1,0,0,3.432,Pumice_10,8,10,2,5,3.432,2,04,0.380555556,-0.386111111,1,0,0,1.1387,Pumice_rect,8,1.139,1,14,0,14,0,1,,,,,,,,,,,,,
60c4e1091b936c7b812e5af4,SCR,2024-06-11_13h12.26.374,LearnStrategy,2023.2.3,Win32,60.24096386,9,1,16,0.072222222,-0.403703704,1,0,0,1.5493,Pegmatite_13,6,13,1,5,1.549,7,12,-0.138888889,-0.40462963,1,0,0,1.13,Pegmatite_rect,6,1.13,1,15,0,15,0,1,,,,,,,,,,,,,
60c4e1091b936c7b812e5af4,SCR,2024-06-11_13h12.26.374,LearnStrategy,2023.2.3,Win32,60.24096386,9,2,1,,,,,,,,8,05,,,,,,,,,,,,,8,1.729,1,,,,,,0.383333333,-0.400925926,1,0,0,1.7289,Pumice_rect,0,0,0,0,1,
60c4e1091b936c7b812e5af4,SCR,2024-06-11_13h12.26.374,LearnStrategy,2023.2.3,Win32,60.24096386,9,2,2,,,,,,,,2,09,,,,,,,,,,,,,2,1.381,1,,,,,,-0.118518519,-0.24537037,1,0,0,1.3815,Basalt_rect,1,0,1,0,1,
60c4e1091b936c7b812e5af4,SCR,2024-06-11_13h12.26.374,LearnStrategy,2023.2.3,Win32,60.24096386,9,2,3,,,,,,,,7,15,,,,,,,,,,,,,3,7.669,0,,,,,,0.126851852,-0.250925926,1,0,0,7.6691,Diorite_rect,2,0,2,0,1,
60c4e1091b936c7b812e5af4,SCR,2024-06-11_13h12.26.374,LearnStrategy,2023.2.3,Win32,60.24096386,9,2,4,,,,,,,,3,12,,,,,,,,,,,,,1,3.851,0,,,,,,-0.372222222,-0.257407407,1,0,0,3.8513,Andesite_rect,3,0,3,0,1,
60c4e1091b936c7b812e5af4,SCR,2024-06-11_13h12.26.374,LearnStrategy,2023.2.3,Win32,60.24096386,9,2,5,,,,,,,,6,10,,,,,,,,,,,,,6,2.499,1,,,,,,-0.102777778,-0.389814815,1,0,0,2.499,Pegmatite_rect,4,0,4,0,1,
60c4e1091b936c7b812e5af4,SCR,2024-06-11_13h12.26.374,LearnStrategy,2023.2.3,Win32,60.24096386,9,2,6,,,,,,,,3,10,,,,,,,,,,,,,7,4.662,0,,,,,,0.091666667,-0.402777778,1,0,0,4.6621,Peridotite_rect,5,0,5,0,1,
60c4e1091b936c7b812e5af4,SCR,2024-06-11_13h12.26.374,LearnStrategy,2023.2.3,Win32,60.24096386,9,2,7,,,,,,,,2,06,,,,,,,,,,,,,2,1.921,1,,,,,,-0.149074074,-0.251851852,1,0,0,1.921,Basalt_rect,6,0,6,0,1,
60c4e1091b936c7b812e5af4,SCR,2024-06-11_13h12.26.374,LearnStrategy,2023.2.3,Win32,60.24096386,9,2,8,,,,,,,,5,09,,,,,,,,,,,,,5,1.629,1,,,,,,-0.415740741,-0.406481481,1,0,0,1.6292,Obsidian_rect,7,0,7,0,1,
60c4e1091b936c7b812e5af4,SCR,2024-06-11_13h12.26.374,LearnStrategy,2023.2.3,Win32,60.24096386,9,2,9,,,,,,,,4,10,,,,,,,,,,,,,2,1.167,0,,,,,,-0.118518519,-0.271296296,1,0,0,1.1669,Basalt_rect,8,0,8,0,1,
60c4e1091b936c7b812e5af4,SCR,2024-06-11_13h12.26.374,LearnStrategy,2023.2.3,Win32,60.24096386,9,2,10,,,,,,,,8,14,,,,,,,,,,,,,8,1.079,1,,,,,,0.365740741,-0.401851852,1,0,0,1.0789,Pumice_rect,9,0,9,0,1,
60c4e1091b936c7b812e5af4,SCR,2024-06-11_13h12.26.374,LearnStrategy,2023.2.3,Win32,60.24096386,9,2,11,,,,,,,,7,07,,,,,,,,,,,,,3,6.108,0,,,,,,0.175925926,-0.241666667,1,0,0,6.1082,Diorite_rect,10,0,10,0,1,
60c4e1091b936c7b812e5af4,SCR,2024-06-11_13h12.26.374,LearnStrategy,2023.2.3,Win32,60.24096386,9,2,12,,,,,,,,5,05,,,,,,,,,,,,,5,1.184,1,,,,,,-0.408333333,-0.392592593,1,0,0,1.1837,Obsidian_rect,11,0,11,0,1,
60c4e1091b936c7b812e5af4,SCR,2024-06-11_13h12.26.374,LearnStrategy,2023.2.3,Win32,60.24096386,9,2,13,,,,,,,,1,11,,,,,,,,,,,,,6,2.043,0,,,,,,-0.15462963,-0.407407407,1,0,0,2.0431,Pegmatite_rect,12,0,12,0,1,
60c4e1091b936c7b812e5af4,SCR,2024-06-11_13h12.26.374,LearnStrategy,2023.2.3,Win32,60.24096386,9,2,14,,,,,,,,6,16,,,,,,,,,,,,,6,0.978,1,,,,,,-0.152777778,-0.401851852,1,0,0,0.978,Pegmatite_rect,13,0,13,0,1,
60c4e1091b936c7b812e5af4,SCR,2024-06-11_13h12.26.374,LearnStrategy,2023.2.3,Win32,60.24096386,9,2,15,,,,,,,,4,01,,,,,,,,,,,,,4,2.912,1,,,,,,0.294444444,-0.242592593,1,0,0,2.9115,Gabbro_rect,14,0,14,0,1,
60c4e1091b936c7b812e5af4,SCR,2024-06-11_13h12.26.374,LearnStrategy,2023.2.3,Win32,60.24096386,9,2,16,,,,,,,,1,01,,,,,,,,,,,,,2,1.295,0,,,,,,-0.14537037,-0.241666667,1,0,0,1.2951,Basalt_rect,15,0,15,0,1,
60c4e1091b936c7b812e5af4,SCR,2024-06-11_13h12.26.374,LearnStrategy,2023.2.3,Win32,60.24096386,,,,,,,,,,,,,,,,,,,,,,,,,,,,,,,,,,,,,,,,,,,,,0
60c4e1091b936c7b812e5af4,SCR,2024-06-11_13h12.26.374,LearnStrategy,2023.2.3,Win32,60.24096386,,,,,,,,,,,,,,,,,,,,,,,,,,,,,,,,,,,,,,,,,,,,,
60c4e1091b936c7b812e5af4,SCR,2024-06-11_13h12.26.374,LearnStrategy,2023.2.3,Win32,60.24096386,,,,,,,,,,,1,10,1,1,,,,,,,,,,,,,,,,,,,,,,,,,,,,,,,
60c4e1091b936c7b812e5af4,SCR,2024-06-11_13h12.26.374,LearnStrategy,2023.2.3,Win32,60.24096386,,,,,,,,,,,3,15,1,2,,,,,,,,,,,,,,,,,,,,,,,,,,,,,,,
60c4e1091b936c7b812e5af4,SCR,2024-06-11_13h12.26.374,LearnStrategy,2023.2.3,Win32,60.24096386,,,,,,,,,,,5,04,1,3,,,,,,,,,,,,,,,,,,,,,,,,,,,,,,,
60c4e1091b936c7b812e5af4,SCR,2024-06-11_13h12.26.374,LearnStrategy,2023.2.3,Win32,60.24096386,,,,,,,,,,,5,11,1,4,,,,,,,,,,,,,,,,,,,,,,,,,,,,,,,
60c4e1091b936c7b812e5af4,SCR,2024-06-11_13h12.26.374,LearnStrategy,2023.2.3,Win32,60.24096386,,,,,,,,,,,6,13,1,5,,,,,,,,,,,,,,,,,,,,,,,,,,,,,,,
60c4e1091b936c7b812e5af4,SCR,2024-06-11_13h12.26.374,LearnStrategy,2023.2.3,Win32,60.24096386,,,,,,,,,,,3,07,1,6,,,,,,,,,,,,,,,,,,,,,,,,,,,,,,,
60c4e1091b936c7b812e5af4,SCR,2024-06-11_13h12.26.374,LearnStrategy,2023.2.3,Win32,60.24096386,,,,,,,,,,,5,12,1,7,,,,,,,,,,,,,,,,,,,,,,,,,,,,,,,
60c4e1091b936c7b812e5af4,SCR,2024-06-11_13h12.26.374,LearnStrategy,2023.2.3,Win32,60.24096386,,,,,,,,,,,8,16,1,8,,,,,,,,,,,,,,,,,,,,,,,,,,,,,,,
60c4e1091b936c7b812e5af4,SCR,2024-06-11_13h12.26.374,LearnStrategy,2023.2.3,Win32,60.24096386,,,,,,,,,,,7,08,2,1,,,,,,,,,,,,,,,,,,,,,,,,,,,,,,,
60c4e1091b936c7b812e5af4,SCR,2024-06-11_13h12.26.374,LearnStrategy,2023.2.3,Win32,60.24096386,,,,,,,,,,,8,15,2,2,,,,,,,,,,,,,,,,,,,,,,,,,,,,,,,
60c4e1091b936c7b812e5af4,SCR,2024-06-11_13h12.26.374,LearnStrategy,2023.2.3,Win32,60.24096386,,,,,,,,,,,4,11,2,3,,,,,,,,,,,,,,,,,,,,,,,,,,,,,,,
60c4e1091b936c7b812e5af4,SCR,2024-06-11_13h12.26.374,LearnStrategy,2023.2.3,Win32,60.24096386,,,,,,,,,,,7,10,2,4,,,,,,,,,,,,,,,,,,,,,,,,,,,,,,,
60c4e1091b936c7b812e5af4,SCR,2024-06-11_13h12.26.374,LearnStrategy,2023.2.3,Win32,60.24096386,,,,,,,,,,,8,10,2,5,,,,,,,,,,,,,,,,,,,,,,,,,,,,,,,
60c4e1091b936c7b812e5af4,SCR,2024-06-11_13h12.26.374,LearnStrategy,2023.2.3,Win32,60.24096386,,,,,,,,,,,2,16,2,6,,,,,,,,,,,,,,,,,,,,,,,,,,,,,,,
60c4e1091b936c7b812e5af4,SCR,2024-06-11_13h12.26.374,LearnStrategy,2023.2.3,Win32,60.24096386,,,,,,,,,,,7,02,2,7,,,,,,,,,,,,,,,,,,,,,,,,,,,,,,,
60c4e1091b936c7b812e5af4,SCR,2024-06-11_13h12.26.374,LearnStrategy,2023.2.3,Win32,60.24096386,,,,,,,,,,,6,06,2,8,,,,,,,,,,,,,,,,,,,,,,,,,,,,,,,
60c4e1091b936c7b812e5af4,SCR,2024-06-11_13h12.26.374,LearnStrategy,2023.2.3,Win32,60.24096386,,,,,,,,,,,2,12,3,1,,,,,,,,,,,,,,,,,,,,,,,,,,,,,,,
60c4e1091b936c7b812e5af4,SCR,2024-06-11_13h12.26.374,LearnStrategy,2023.2.3,Win32,60.24096386,,,,,,,,,,,8,13,3,2,,,,,,,,,,,,,,,,,,,,,,,,,,,,,,,
60c4e1091b936c7b812e5af4,SCR,2024-06-11_13h12.26.374,LearnStrategy,2023.2.3,Win32,60.24096386,,,,,,,,,,,7,16,3,3,,,,,,,,,,,,,,,,,,,,,,,,,,,,,,,
60c4e1091b936c7b812e5af4,SCR,2024-06-11_13h12.26.374,LearnStrategy,2023.2.3,Win32,60.24096386,,,,,,,,,,,6,15,3,4,,,,,,,,,,,,,,,,,,,,,,,,,,,,,,,
60c4e1091b936c7b812e5af4,SCR,2024-06-11_13h12.26.374,LearnStrategy,2023.2.3,Win32,60.24096386,,,,,,,,,,,7,12,3,5,,,,,,,,,,,,,,,,,,,,,,,,,,,,,,,
60c4e1091b936c7b812e5af4,SCR,2024-06-11_13h12.26.374,LearnStrategy,2023.2.3,Win32,60.24096386,,,,,,,,,,,4,16,3,6,,,,,,,,,,,,,,,,,,,,,,,,,,,,,,,
60c4e1091b936c7b812e5af4,SCR,2024-06-11_13h12.26.374,LearnStrategy,2023.2.3,Win32,60.24096386,,,,,,,,,,,3,06,3,7,,,,,,,,,,,,,,,,,,,,,,,,,,,,,,,
60c4e1091b936c7b812e5af4,SCR,2024-06-11_13h12.26.374,LearnStrategy,2023.2.3,Win32,60.24096386,,,,,,,,,,,2,02,3,8,,,,,,,,,,,,,,,,,,,,,,,,,,,,,,,
60c4e1091b936c7b812e5af4,SCR,2024-06-11_13h12.26.374,LearnStrategy,2023.2.3,Win32,60.24096386,,,,,,,,,,,8,04,4,1,,,,,,,,,,,,,,,,,,,,,,,,,,,,,,,
60c4e1091b936c7b812e5af4,SCR,2024-06-11_13h12.26.374,LearnStrategy,2023.2.3,Win32,60.24096386,,,,,,,,,,,1,05,4,2,,,,,,,,,,,,,,,,,,,,,,,,,,,,,,,
60c4e1091b936c7b812e5af4,SCR,2024-06-11_13h12.26.374,LearnStrategy,2023.2.3,Win32,60.24096386,,,,,,,,,,,1,07,4,3,,,,,,,,,,,,,,,,,,,,,,,,,,,,,,,
60c4e1091b936c7b812e5af4,SCR,2024-06-11_13h12.26.374,LearnStrategy,2023.2.3,Win32,60.24096386,,,,,,,,,,,5,16,4,4,,,,,,,,,,,,,,,,,,,,,,,,,,,,,,,
60c4e1091b936c7b812e5af4,SCR,2024-06-11_13h12.26.374,LearnStrategy,2023.2.3,Win32,60.24096386,,,,,,,,,,,4,05,4,5,,,,,,,,,,,,,,,,,,,,,,,,,,,,,,,
60c4e1091b936c7b812e5af4,SCR,2024-06-11_13h12.26.374,LearnStrategy,2023.2.3,Win32,60.24096386,,,,,,,,,,,8,09,4,6,,,,,,,,,,,,,,,,,,,,,,,,,,,,,,,
60c4e1091b936c7b812e5af4,SCR,2024-06-11_13h12.26.374,LearnStrategy,2023.2.3,Win32,60.24096386,,,,,,,,,,,4,14,4,7,,,,,,,,,,,,,,,,,,,,,,,,,,,,,,,
60c4e1091b936c7b812e5af4,SCR,2024-06-11_13h12.26.374,LearnStrategy,2023.2.3,Win32,60.24096386,,,,,,,,,,,6,12,4,8,,,,,,,,,,,,,,,,,,,,,,,,,,,,,,,
60c4e1091b936c7b812e5af4,SCR,2024-06-11_13h12.26.374,LearnStrategy,2023.2.3,Win32,60.24096386,,,,,,,,,,,5,02,5,1,,,,,,,,,,,,,,,,,,,,,,,,,,,,,,,
60c4e1091b936c7b812e5af4,SCR,2024-06-11_13h12.26.374,LearnStrategy,2023.2.3,Win32,60.24096386,,,,,,,,,,,3,14,5,2,,,,,,,,,,,,,,,,,,,,,,,,,,,,,,,
60c4e1091b936c7b812e5af4,SCR,2024-06-11_13h12.26.374,LearnStrategy,2023.2.3,Win32,60.24096386,,,,,,,,,,,6,05,5,3,,,,,,,,,,,,,,,,,,,,,,,,,,,,,,,
60c4e1091b936c7b812e5af4,SCR,2024-06-11_13h12.26.374,LearnStrategy,2023.2.3,Win32,60.24096386,,,,,,,,,,,1,14,5,4,,,,,,,,,,,,,,,,,,,,,,,,,,,,,,,
60c4e1091b936c7b812e5af4,SCR,2024-06-11_13h12.26.374,LearnStrategy,2023.2.3,Win32,60.24096386,,,,,,,,,,,2,10,5,5,,,,,,,,,,,,,,,,,,,,,,,,,,,,,,,
60c4e1091b936c7b812e5af4,SCR,2024-06-11_13h12.26.374,LearnStrategy,2023.2.3,Win32,60.24096386,,,,,,,,,,,1,03,5,6,,,,,,,,,,,,,,,,,,,,,,,,,,,,,,,
60c4e1091b936c7b812e5af4,SCR,2024-06-11_13h12.26.374,LearnStrategy,2023.2.3,Win32,60.24096386,,,,,,,,,,,2,11,5,7,,,,,,,,,,,,,,,,,,,,,,,,,,,,,,,
60c4e1091b936c7b812e5af4,SCR,2024-06-11_13h12.26.374,LearnStrategy,2023.2.3,Win32,60.24096386,,,,,,,,,,,4,13,5,8,,,,,,,,,,,,,,,,,,,,,,,,,,,,,,,
60c4e1091b936c7b812e5af4,SCR,2024-06-11_13h12.26.374,LearnStrategy,2023.2.3,Win32,60.24096386,,,,,,,,,,,1,04,6,1,,,,,,,,,,,,,,,,,,,,,,,,,,,,,,,
60c4e1091b936c7b812e5af4,SCR,2024-06-11_13h12.26.374,LearnStrategy,2023.2.3,Win32,60.24096386,,,,,,,,,,,2,04,6,2,,,,,,,,,,,,,,,,,,,,,,,,,,,,,,,
60c4e1091b936c7b812e5af4,SCR,2024-06-11_13h12.26.374,LearnStrategy,2023.2.3,Win32,60.24096386,,,,,,,,,,,5,07,6,3,,,,,,,,,,,,,,,,,,,,,,,,,,,,,,,
60c4e1091b936c7b812e5af4,SCR,2024-06-11_13h12.26.374,LearnStrategy,2023.2.3,Win32,60.24096386,,,,,,,,,,,3,09,6,4,,,,,,,,,,,,,,,,,,,,,,,,,,,,,,,
60c4e1091b936c7b812e5af4,SCR,2024-06-11_13h12.26.374,LearnStrategy,2023.2.3,Win32,60.24096386,,,,,,,,,,,7,04,6,5,,,,,,,,,,,,,,,,,,,,,,,,,,,,,,,
60c4e1091b936c7b812e5af4,SCR,2024-06-11_13h12.26.374,LearnStrategy,2023.2.3,Win32,60.24096386,,,,,,,,,,,3,02,6,6,,,,,,,,,,,,,,,,,,,,,,,,,,,,,,,
60c4e1091b936c7b812e5af4,SCR,2024-06-11_13h12.26.374,LearnStrategy,2023.2.3,Win32,60.24096386,,,,,,,,,,,4,03,6,7,,,,,,,,,,,,,,,,,,,,,,,,,,,,,,,
60c4e1091b936c7b812e5af4,SCR,2024-06-11_13h12.26.374,LearnStrategy,2023.2.3,Win32,60.24096386,,,,,,,,,,,6,09,6,8,,,,,,,,,,,,,,,,,,,,,,,,,,,,,,,