participant,condition,date,expName,psychopyVersion,OS,frameRate,block,phase,trial,learn_mouse.x,learn_mouse.y,learn_mouse.leftButton,learn_mouse.midButton,learn_mouse.rightButton,learn_mouse.time,learn_mouse.clicked_name,cat,token,row,col,t_select,cat_rec,token_rec,cat_mouse_l.x,cat_mouse_l.y,cat_mouse_l.leftButton,cat_mouse_l.midButton,cat_mouse_l.rightButton,cat_mouse_l.time,cat_mouse_l.clicked_name,resp,t_resp,corr,train_trials.thisRepN,train_trials.thisTrialN,train_trials.thisN,train_trials.thisIndex,train_trials.ran,cat_mouse_t.x,cat_mouse_t.y,cat_mouse_t.leftButton,cat_mouse_t.midButton,cat_mouse_t.rightButton,cat_mouse_t.time,cat_mouse_t.clicked_name,test_trials.thisRepN,test_trials.thisTrialN,test_trials.thisN,test_trials.thisIndex,test_trials.ran,Bonus
60ccbffae161aadb1880ad6c,SCR,2024-06-11_13h23.05.748,LearnStrategy,2023.2.3,Win32,59.88023952,,,,,,,,,,,,,,,,,,,,,,,,,,,,,,,,,,,,,,,,,,,,,
60ccbffae161aadb1880ad6c,SCR,2024-06-11_13h23.05.748,LearnStrategy,2023.2.3,Win32,59.88023952,1,1,1,-0.382407407,-0.081481481,1,0,0,3.6204,Peridotite_07,7,07,3,2,3.62,7,07,-0.325,-0.239814815,1,0,0,4.666,Andesite_rect,1,4.666,0,0,0,0,0,1,,,,,,,,,,,,,
60ccbffae161aadb1880ad6c,SCR,2024-06-11_13h23.05.748,LearnStrategy,2023.2.3,Win32,59.88023952,1,1,2,0.219444444,-0.103703704,1,0,0,3.6704,Diorite_14,3,14,3,6,3.67,1,03,0.164814815,-0.262037037,1,0,0,4.3958,Diorite_rect,3,4.396,1,1,0,1,0,1,,,,,,,,,,,,,
60ccbffae161aadb1880ad6c,SCR,2024-06-11_13h23.05.748,LearnStrategy,2023.2.3,Win32,59.88023952,1,1,3,0.062037037,0.242592593,1,0,0,1.652,Obsidian_11,5,11,5,5,1.652,8,10,-0.390740741,-0.413888889,1,0,0,7.0004,Obsidian_rect,5,7,1,2,0,2,0,1,,,,,,,,,,,,,
60ccbffae161aadb1880ad6c,SCR,2024-06-11_13h23.05.748,LearnStrategy,2023.2.3,Win32,59.88023952,1,1,4,-0.401851852,-0.25,1,0,0,3.7214,Pegmatite_10,6,10,2,2,3.721,8,15,-0.174074074,-0.410185185,1,0,0,3.6887,Pegmatite_rect,6,3.689,1,3,0,3,0,1,,,,,,,,,,,,,
60ccbffae161aadb1880ad6c,SCR,2024-06-11_13h23.05.748,LearnStrategy,2023.2.3,Win32,59.88023952,1,1,5,0.252777778,0.403703704,1,0,0,1.4835,Pegmatite_15,6,15,6,6,1.483,4,05,-0.353703704,-0.236111111,1,0,0,4.8526,Andesite_rect,1,4.853,0,4,0,4,0,1,,,,,,,,,,,,,
60ccbffae161aadb1880ad6c,SCR,2024-06-11_13h23.05.748,LearnStrategy,2023.2.3,Win32,59.88023952,1,1,6,0.550925926,0.37037037,1,0,0,2.5606,Pumice_13,8,13,6,8,2.561,5,14,-0.212962963,-0.259259259,1,0,0,5.5058,Basalt_rect,2,5.506,0,5,0,5,0,1,,,,,,,,,,,,,
60ccbffae161aadb1880ad6c,SCR,2024-06-11_13h23.05.748,LearnStrategy,2023.2.3,Win32,59.88023952,1,1,7,0.19537037,-0.260185185,1,0,0,1.6913,Andesite_03,1,03,2,6,1.691,6,05,0.055555556,-0.255555556,1,0,0,5.2329,Diorite_rect,3,5.233,0,6,0,6,0,1,,,,,,,,,,,,,
60ccbffae161aadb1880ad6c,SCR,2024-06-11_13h23.05.748,LearnStrategy,2023.2.3,Win32,59.88023952,1,1,8,0.550925926,-0.103703704,1,0,0,1.5866,Basalt_14,2,14,3,8,1.587,2,10,0.402777778,-0.262037037,1,0,0,2.5161,Gabbro_rect,4,2.516,0,7,0,7,0,1,,,,,,,,,,,,,
60ccbffae161aadb1880ad6c,SCR,2024-06-11_13h23.05.748,LearnStrategy,2023.2.3,Win32,59.88023952,1,1,9,-0.043518519,-0.081481481,1,0,0,1.1852,Andesite_07,1,07,3,4,1.185,4,08,0.071296296,-0.264814815,1,0,0,4.1089,Diorite_rect,3,4.109,0,8,0,8,0,1,,,,,,,,,,,,,
60ccbffae161aadb1880ad6c,SCR,2024-06-11_13h23.05.748,LearnStrategy,2023.2.3,Win32,59.88023952,1,1,10,0.039814815,-0.417592593,1,0,0,1.3813,Diorite_08,3,08,1,5,1.381,3,08,-0.058333333,-0.269444444,1,0,0,1.9411,Basalt_rect,2,1.941,0,9,0,9,0,1,,,,,,,,,,,,,
60ccbffae161aadb1880ad6c,SCR,2024-06-11_13h23.05.748,LearnStrategy,2023.2.3,Win32,59.88023952,1,1,11,-0.214814815,0.072222222,1,0,0,3.0478,Peridotite_16,7,16,4,3,3.048,5,11,0.343518519,-0.228703704,1,0,0,4.3411,Gabbro_rect,4,4.341,0,10,0,10,0,1,,,,,,,,,,,,,
60ccbffae161aadb1880ad6c,SCR,2024-06-11_13h23.05.748,LearnStrategy,2023.2.3,Win32,59.88023952,1,1,12,-0.35462963,-0.097222222,1,0,0,1.2862,Peridotite_07,7,07,3,2,1.286,1,16,-0.173148148,-0.25,1,0,0,1.9911,Basalt_rect,2,1.991,0,11,0,11,0,1,,,,,,,,,,,,,
60ccbffae161aadb1880ad6c,SCR,2024-06-11_13h23.05.748,LearnStrategy,2023.2.3,Win32,59.88023952,1,1,13,0.415740741,0.407407407,1,0,0,1.7106,Gabbro_12,4,12,6,7,1.711,6,10,-0.358333333,-0.265740741,1,0,0,1.8294,Andesite_rect,1,1.829,0,12,0,12,0,1,,,,,,,,,,,,,
60ccbffae161aadb1880ad6c,SCR,2024-06-11_13h23.05.748,LearnStrategy,2023.2.3,Win32,59.88023952,1,1,14,-0.419444444,-0.263888889,1,0,0,1.8652,Pegmatite_10,6,10,2,2,1.865,3,02,-0.075925926,-0.378703704,1,0,0,3.03,Pegmatite_rect,6,3.03,1,13,0,13,0,1,,,,,,,,,,,,,
60ccbffae161aadb1880ad6c,SCR,2024-06-11_13h23.05.748,LearnStrategy,2023.2.3,Win32,59.88023952,1,1,15,-0.348148148,-0.111111111,1,0,0,1.4175,Peridotite_07,7,07,3,2,1.418,7,13,-0.118518519,-0.228703704,1,0,0,1.3966,Basalt_rect,2,1.397,0,14,0,14,0,1,,,,,,,,,,,,,
60ccbffae161aadb1880ad6c,SCR,2024-06-11_13h23.05.748,LearnStrategy,2023.2.3,Win32,59.88023952,1,1,16,0.078703704,0.268518519,1,0,0,1.6802,Obsidian_11,5,11,5,5,1.68,2,11,-0.072222222,-0.240740741,1,0,0,1.738,Basalt_rect,2,1.738,0,15,0,15,0,1,,,,,,,,,,,,,
60ccbffae161aadb1880ad6c,SCR,2024-06-11_13h23.05.748,LearnStrategy,2023.2.3,Win32,59.88023952,1,2,1,,,,,,,,6,11,,,,,,,,,,,,,5,6.401,0,,,,,,-0.409259259,-0.40462963,1,0,0,6.4008,Obsidian_rect,0,0,0,0,1,
60ccbffae161aadb1880ad6c,SCR,2024-06-11_13h23.05.748,LearnStrategy,2023.2.3,Win32,59.88023952,1,2,2,,,,,,,,4,15,,,,,,,,,,,,,2,4.847,0,,,,,,-0.156481481,-0.257407407,1,0,0,4.8472,Basalt_rect,1,0,1,0,1,
60ccbffae161aadb1880ad6c,SCR,2024-06-11_13h23.05.748,LearnStrategy,2023.2.3,Win32,59.88023952,1,2,3,,,,,,,,8,16,,,,,,,,,,,,,8,4.876,1,,,,,,0.401851852,-0.414814815,1,0,0,4.8759,Pumice_rect,2,0,2,0,1,
60ccbffae161aadb1880ad6c,SCR,2024-06-11_13h23.05.748,LearnStrategy,2023.2.3,Win32,59.88023952,1,2,4,,,,,,,,4,09,,,,,,,,,,,,,7,3.766,0,,,,,,0.162037037,-0.386111111,1,0,0,3.7656,Peridotite_rect,3,0,3,0,1,
60ccbffae161aadb1880ad6c,SCR,2024-06-11_13h23.05.748,LearnStrategy,2023.2.3,Win32,59.88023952,1,2,5,,,,,,,,7,12,,,,,,,,,,,,,3,4.656,0,,,,,,0.119444444,-0.260185185,1,0,0,4.6557,Diorite_rect,4,0,4,0,1,
60ccbffae161aadb1880ad6c,SCR,2024-06-11_13h23.05.748,LearnStrategy,2023.2.3,Win32,59.88023952,1,2,6,,,,,,,,2,04,,,,,,,,,,,,,1,5.949,0,,,,,,-0.303703704,-0.250925926,1,0,0,5.9493,Andesite_rect,5,0,5,0,1,
60ccbffae161aadb1880ad6c,SCR,2024-06-11_13h23.05.748,LearnStrategy,2023.2.3,Win32,59.88023952,1,2,7,,,,,,,,7,04,,,,,,,,,,,,,2,5.3,0,,,,,,-0.116666667,-0.249074074,1,0,0,5.3005,Basalt_rect,6,0,6,0,1,
60ccbffae161aadb1880ad6c,SCR,2024-06-11_13h23.05.748,LearnStrategy,2023.2.3,Win32,59.88023952,1,2,8,,,,,,,,1,10,,,,,,,,,,,,,7,3.853,0,,,,,,0.237962963,-0.391666667,1,0,0,3.8529,Peridotite_rect,7,0,7,0,1,
60ccbffae161aadb1880ad6c,SCR,2024-06-11_13h23.05.748,LearnStrategy,2023.2.3,Win32,59.88023952,1,2,9,,,,,,,,6,08,,,,,,,,,,,,,6,4.212,1,,,,,,-0.061111111,-0.39537037,1,0,0,4.2122,Pegmatite_rect,8,0,8,0,1,
60ccbffae161aadb1880ad6c,SCR,2024-06-11_13h23.05.748,LearnStrategy,2023.2.3,Win32,59.88023952,1,2,10,,,,,,,,2,01,,,,,,,,,,,,,4,4.569,0,,,,,,0.334259259,-0.265740741,1,0,0,4.569,Gabbro_rect,9,0,9,0,1,
60ccbffae161aadb1880ad6c,SCR,2024-06-11_13h23.05.748,LearnStrategy,2023.2.3,Win32,59.88023952,1,2,11,,,,,,,,1,11,,,,,,,,,,,,,1,4.052,1,,,,,,-0.396296296,-0.253703704,1,0,0,4.052,Andesite_rect,10,0,10,0,1,
60ccbffae161aadb1880ad6c,SCR,2024-06-11_13h23.05.748,LearnStrategy,2023.2.3,Win32,59.88023952,1,2,12,,,,,,,,3,12,,,,,,,,,,,,,5,3.638,0,,,,,,-0.339814815,-0.412037037,1,0,0,3.6382,Obsidian_rect,11,0,11,0,1,
60ccbffae161aadb1880ad6c,SCR,2024-06-11_13h23.05.748,LearnStrategy,2023.2.3,Win32,59.88023952,1,2,13,,,,,,,,3,07,,,,,,,,,,,,,7,4.787,0,,,,,,0.078703704,-0.412962963,1,0,0,4.7867,Peridotite_rect,12,0,12,0,1,
60ccbffae161aadb1880ad6c,SCR,2024-06-11_13h23.05.748,LearnStrategy,2023.2.3,Win32,59.88023952,1,2,14,,,,,,,,8,06,,,,,,,,,,,,,8,2.346,1,,,,,,0.39537037,-0.398148148,1,0,0,2.3461,Pumice_rect,13,0,13,0,1,
60ccbffae161aadb1880ad6c,SCR,2024-06-11_13h23.05.748,LearnStrategy,2023.2.3,Win32,59.88023952,1,2,15,,,,,,,,5,10,,,,,,,,,,,,,6,3.162,0,,,,,,-0.063888889,-0.387962963,1,0,0,3.1617,Pegmatite_rect,14,0,14,0,1,
60ccbffae161aadb1880ad6c,SCR,2024-06-11_13h23.05.748,LearnStrategy,2023.2.3,Win32,59.88023952,1,2,16,,,,,,,,5,07,,,,,,,,,,,,,6,2.518,0,,,,,,-0.063888889,-0.387962963,1,0,0,2.5179,Pegmatite_rect,15,0,15,0,1,
60ccbffae161aadb1880ad6c,SCR,2024-06-11_13h23.05.748,LearnStrategy,2023.2.3,Win32,59.88023952,2,1,1,-0.533333333,0.437037037,1,0,0,4.8931,Peridotite_15,7,15,6,1,4.893,7,15,-0.133333333,-0.243518519,1,0,0,1.5491,Basalt_rect,2,1.549,0,0,0,0,0,1,,,,,,,,,,,,,
60ccbffae161aadb1880ad6c,SCR,2024-06-11_13h23.05.748,LearnStrategy,2023.2.3,Win32,59.88023952,2,1,2,0.402777778,0.262962963,1,0,0,1.3582,Obsidian_04,5,04,5,7,1.358,5,04,0.37037037,-0.394444444,1,0,0,2.0634,Pumice_rect,8,2.063,0,1,0,1,0,1,,,,,,,,,,,,,
60ccbffae161aadb1880ad6c,SCR,2024-06-11_13h23.05.748,LearnStrategy,2023.2.3,Win32,59.88023952,2,1,3,0.124074074,0.102777778,1,0,0,1.0906,Obsidian_09,5,09,4,5,1.091,5,11,-0.352777778,-0.392592593,1,0,0,1.9644,Obsidian_rect,5,1.964,1,2,0,2,0,1,,,,,,,,,,,,,
60ccbffae161aadb1880ad6c,SCR,2024-06-11_13h23.05.748,LearnStrategy,2023.2.3,Win32,59.88023952,2,1,4,0.247222222,0.4,1,0,0,1.7047,Pegmatite_15,6,15,6,6,1.705,3,15,-0.366666667,-0.246296296,1,0,0,2.8133,Andesite_rect,1,2.813,0,3,0,3,0,1,,,,,,,,,,,,,
60ccbffae161aadb1880ad6c,SCR,2024-06-11_13h23.05.748,LearnStrategy,2023.2.3,Win32,59.88023952,2,1,5,-0.541666667,-0.087037037,1,0,0,2.2032,Basalt_06,2,06,3,1,2.203,2,06,-0.369444444,-0.255555556,1,0,0,2.2031,Andesite_rect,1,2.203,0,4,0,4,0,1,,,,,,,,,,,,,
60ccbffae161aadb1880ad6c,SCR,2024-06-11_13h23.05.748,LearnStrategy,2023.2.3,Win32,59.88023952,2,1,6,-0.443518519,-0.399074074,1,0,0,1.522,Gabbro_05,4,05,1,2,1.522,4,05,0.398148148,-0.244444444,1,0,0,2.3946,Gabbro_rect,4,2.395,1,5,0,5,0,1,,,,,,,,,,,,,
60ccbffae161aadb1880ad6c,SCR,2024-06-11_13h23.05.748,LearnStrategy,2023.2.3,Win32,59.88023952,2,1,7,0.368518519,0.231481481,1,0,0,1.6685,Obsidian_04,5,04,5,7,1.668,6,12,0.398148148,-0.40462963,1,0,0,1.5268,Pumice_rect,8,1.527,0,6,0,6,0,1,,,,,,,,,,,,,
60ccbffae161aadb1880ad6c,SCR,2024-06-11_13h23.05.748,LearnStrategy,2023.2.3,Win32,59.88023952,2,1,8,-0.375,-0.243518519,1,0,0,2.8323,Pegmatite_10,6,10,2,2,2.832,3,02,-0.109259259,-0.389814815,1,0,0,10.3821,Pegmatite_rect,6,10.382,1,7,0,7,0,1,,,,,,,,,,,,,
60ccbffae161aadb1880ad6c,SCR,2024-06-11_13h23.05.748,LearnStrategy,2023.2.3,Win32,59.88023952,2,1,9,-0.403703704,-0.294444444,1,0,0,2.1055,Pegmatite_10,6,10,2,2,2.106,6,10,-0.168518519,-0.394444444,1,0,0,1.0716,Pegmatite_rect,6,1.072,1,8,0,8,0,1,,,,,,,,,,,,,
60ccbffae161aadb1880ad6c,SCR,2024-06-11_13h23.05.748,LearnStrategy,2023.2.3,Win32,59.88023952,2,1,10,-0.091666667,0.235185185,1,0,0,1.4207,Peridotite_05,7,05,5,4,1.421,2,12,-0.056481481,-0.25462963,1,0,0,1.2638,Basalt_rect,2,1.264,0,9,0,9,0,1,,,,,,,,,,,,,
60ccbffae161aadb1880ad6c,SCR,2024-06-11_13h23.05.748,LearnStrategy,2023.2.3,Win32,59.88023952,2,1,11,0.526851852,0.080555556,1,0,0,1.3664,Basalt_02,2,02,4,8,1.366,7,15,0.321296296,-0.398148148,1,0,0,1.7513,Pumice_rect,8,1.751,0,10,0,10,0,1,,,,,,,,,,,,,
60ccbffae161aadb1880ad6c,SCR,2024-06-11_13h23.05.748,LearnStrategy,2023.2.3,Win32,59.88023952,2,1,12,-0.275925926,0.115740741,1,0,0,1.1763,Peridotite_16,7,16,4,3,1.176,7,16,0.111111111,-0.260185185,1,0,0,1.5681,Diorite_rect,3,1.568,0,11,0,11,0,1,,,,,,,,,,,,,
60ccbffae161aadb1880ad6c,SCR,2024-06-11_13h23.05.748,LearnStrategy,2023.2.3,Win32,59.88023952,2,1,13,-0.102777778,-0.111111111,1,0,0,1.1902,Andesite_07,1,07,3,4,1.19,5,16,-0.091666667,-0.387037037,1,0,0,2.7959,Pegmatite_rect,6,2.796,0,12,0,12,0,1,,,,,,,,,,,,,
60ccbffae161aadb1880ad6c,SCR,2024-06-11_13h23.05.748,LearnStrategy,2023.2.3,Win32,59.88023952,2,1,14,-0.221296296,0.375,1,0,0,2.4179,Pumice_02,8,02,6,3,2.418,4,14,-0.062037037,-0.394444444,1,0,0,2.4525,Pegmatite_rect,6,2.452,0,13,0,13,0,1,,,,,,,,,,,,,
60ccbffae161aadb1880ad6c,SCR,2024-06-11_13h23.05.748,LearnStrategy,2023.2.3,Win32,59.88023952,2,1,15,-0.574074074,0.251851852,1,0,0,1.9469,Peridotite_10,7,10,5,1,1.947,1,16,-0.109259259,-0.244444444,1,0,0,1.2223,Basalt_rect,2,1.222,0,14,0,14,0,1,,,,,,,,,,,,,
60ccbffae161aadb1880ad6c,SCR,2024-06-11_13h23.05.748,LearnStrategy,2023.2.3,Win32,59.88023952,2,1,16,0.559259259,0.07037037,1,0,0,1.66,Basalt_02,2,02,4,8,1.66,2,14,0.435185185,-0.247222222,1,0,0,3.4721,Gabbro_rect,4,3.472,0,15,0,15,0,1,,,,,,,,,,,,,
60ccbffae161aadb1880ad6c,SCR,2024-06-11_13h23.05.748,LearnStrategy,2023.2.3,Win32,59.88023952,2,2,1,,,,,,,,6,13,,,,,,,,,,,,,3,1.946,0,,,,,,0.15462963,-0.255555556,1,0,0,1.9463,Diorite_rect,0,0,0,0,1,
60ccbffae161aadb1880ad6c,SCR,2024-06-11_13h23.05.748,LearnStrategy,2023.2.3,Win32,59.88023952,2,2,2,,,,,,,,4,13,,,,,,,,,,,,,8,7.554,0,,,,,,0.383333333,-0.4,1,0,0,7.5544,Pumice_rect,1,0,1,0,1,
60ccbffae161aadb1880ad6c,SCR,2024-06-11_13h23.05.748,LearnStrategy,2023.2.3,Win32,59.88023952,2,2,3,,,,,,,,7,06,,,,,,,,,,,,,6,4.742,0,,,,,,-0.086111111,-0.380555556,1,0,0,4.7417,Pegmatite_rect,2,0,2,0,1,
60ccbffae161aadb1880ad6c,SCR,2024-06-11_13h23.05.748,LearnStrategy,2023.2.3,Win32,59.88023952,2,2,4,,,,,,,,2,09,,,,,,,,,,,,,7,4.254,0,,,,,,0.128703704,-0.402777778,1,0,0,4.2537,Peridotite_rect,3,0,3,0,1,
60ccbffae161aadb1880ad6c,SCR,2024-06-11_13h23.05.748,LearnStrategy,2023.2.3,Win32,59.88023952,2,2,5,,,,,,,,8,09,,,,,,,,,,,,,3,5.079,0,,,,,,0.093518519,-0.266666667,1,0,0,5.079,Diorite_rect,4,0,4,0,1,
60ccbffae161aadb1880ad6c,SCR,2024-06-11_13h23.05.748,LearnStrategy,2023.2.3,Win32,59.88023952,2,2,6,,,,,,,,5,05,,,,,,,,,,,,,7,6.474,0,,,,,,0.117592593,-0.398148148,1,0,0,6.4739,Peridotite_rect,5,0,5,0,1,
60ccbffae161aadb1880ad6c,SCR,2024-06-11_13h23.05.748,LearnStrategy,2023.2.3,Win32,59.88023952,2,2,7,,,,,,,,5,02,,,,,,,,,,,,,5,1.575,1,,,,,,-0.34537037,-0.387037037,1,0,0,1.5745,Obsidian_rect,6,0,6,0,1,
60ccbffae161aadb1880ad6c,SCR,2024-06-11_13h23.05.748,LearnStrategy,2023.2.3,Win32,59.88023952,2,2,8,,,,,,,,4,03,,,,,,,,,,,,,6,1.968,0,,,,,,-0.147222222,-0.402777778,1,0,0,1.9682,Pegmatite_rect,7,0,7,0,1,
60ccbffae161aadb1880ad6c,SCR,2024-06-11_13h23.05.748,LearnStrategy,2023.2.3,Win32,59.88023952,2,2,9,,,,,,,,2,16,,,,,,,,,,,,,2,5.282,1,,,,,,-0.084259259,-0.268518519,1,0,0,5.2818,Basalt_rect,8,0,8,0,1,
60ccbffae161aadb1880ad6c,SCR,2024-06-11_13h23.05.748,LearnStrategy,2023.2.3,Win32,59.88023952,2,2,10,,,,,,,,3,11,,,,,,,,,,,,,1,7.228,0,,,,,,-0.416666667,-0.256481481,1,0,0,7.2279,Andesite_rect,9,0,9,0,1,
60ccbffae161aadb1880ad6c,SCR,2024-06-11_13h23.05.748,LearnStrategy,2023.2.3,Win32,59.88023952,2,2,11,,,,,,,,1,01,,,,,,,,,,,,,8,4.849,0,,,,,,0.361111111,-0.414814815,1,0,0,4.8486,Pumice_rect,10,0,10,0,1,
60ccbffae161aadb1880ad6c,SCR,2024-06-11_13h23.05.748,LearnStrategy,2023.2.3,Win32,59.88023952,2,2,12,,,,,,,,3,16,,,,,,,,,,,,,1,1.913,0,,,,,,-0.374074074,-0.258333333,1,0,0,1.913,Andesite_rect,11,0,11,0,1,
60ccbffae161aadb1880ad6c,SCR,2024-06-11_13h23.05.748,LearnStrategy,2023.2.3,Win32,59.88023952,2,2,13,,,,,,,,8,05,,,,,,,,,,,,,4,4.008,0,,,,,,0.336111111,-0.260185185,1,0,0,4.0084,Gabbro_rect,12,0,12,0,1,
60ccbffae161aadb1880ad6c,SCR,2024-06-11_13h23.05.748,LearnStrategy,2023.2.3,Win32,59.88023952,2,2,14,,,,,,,,6,06,,,,,,,,,,,,,6,1.791,1,,,,,,-0.092592593,-0.398148148,1,0,0,1.7913,Pegmatite_rect,13,0,13,0,1,
60ccbffae161aadb1880ad6c,SCR,2024-06-11_13h23.05.748,LearnStrategy,2023.2.3,Win32,59.88023952,2,2,15,,,,,,,,1,14,,,,,,,,,,,,,2,1.243,0,,,,,,-0.158333333,-0.265740741,1,0,0,1.2428,Basalt_rect,14,0,14,0,1,
60ccbffae161aadb1880ad6c,SCR,2024-06-11_13h23.05.748,LearnStrategy,2023.2.3,Win32,59.88023952,2,2,16,,,,,,,,7,08,,,,,,,,,,,,,1,1.032,0,,,,,,-0.337037037,-0.265740741,1,0,0,1.0318,Andesite_rect,15,0,15,0,1,
60ccbffae161aadb1880ad6c,SCR,2024-06-11_13h23.05.748,LearnStrategy,2023.2.3,Win32,59.88023952,3,1,1,0.272222222,-0.1,1,0,0,1.5225,Diorite_14,3,14,3,6,1.522,3,14,0.121296296,-0.262962963,1,0,0,1.3111,Diorite_rect,3,1.311,1,0,0,0,0,1,,,,,,,,,,,,,
60ccbffae161aadb1880ad6c,SCR,2024-06-11_13h23.05.748,LearnStrategy,2023.2.3,Win32,59.88023952,3,1,2,0.519444444,-0.417592593,1,0,0,1.6632,Andesite_02,1,02,1,8,1.663,1,02,0.42962963,-0.402777778,1,0,0,2.4761,Pumice_rect,8,2.476,0,1,0,1,0,1,,,,,,,,,,,,,
60ccbffae161aadb1880ad6c,SCR,2024-06-11_13h23.05.748,LearnStrategy,2023.2.3,Win32,59.88023952,3,1,3,-0.22962963,-0.093518519,1,0,0,1.0927,Gabbro_14,4,14,3,3,1.093,4,14,-0.169444444,-0.24537037,1,0,0,1.7537,Basalt_rect,2,1.754,0,2,0,2,0,1,,,,,,,,,,,,,
60ccbffae161aadb1880ad6c,SCR,2024-06-11_13h23.05.748,LearnStrategy,2023.2.3,Win32,59.88023952,3,1,4,-0.057407407,-0.438888889,1,0,0,1.084,Andesite_06,1,06,1,4,1.084,1,06,0.166666667,-0.400925926,1,0,0,2.7,Peridotite_rect,7,2.7,0,3,0,3,0,1,,,,,,,,,,,,,
60ccbffae161aadb1880ad6c,SCR,2024-06-11_13h23.05.748,LearnStrategy,2023.2.3,Win32,59.88023952,3,1,5,-0.384259259,0.101851852,1,0,0,1.222,Peridotite_13,7,13,4,2,1.222,7,13,-0.327777778,-0.384259259,1,0,0,4.0055,Obsidian_rect,5,4.005,0,4,0,4,0,1,,,,,,,,,,,,,
60ccbffae161aadb1880ad6c,SCR,2024-06-11_13h23.05.748,LearnStrategy,2023.2.3,Win32,59.88023952,3,1,6,-0.546296296,-0.259259259,1,0,0,1.1631,Pegmatite_16,6,16,2,1,1.163,6,16,-0.421296296,-0.263888889,1,0,0,1.5626,Andesite_rect,1,1.563,0,5,0,5,0,1,,,,,,,,,,,,,
60ccbffae161aadb1880ad6c,SCR,2024-06-11_13h23.05.748,LearnStrategy,2023.2.3,Win32,59.88023952,3,1,7,0.356481481,0.085185185,1,0,0,1.394,Basalt_12,2,12,4,7,1.394,2,12,0.367592593,-0.25,1,0,0,2.1202,Gabbro_rect,4,2.12,0,6,0,6,0,1,,,,,,,,,,,,,
60ccbffae161aadb1880ad6c,SCR,2024-06-11_13h23.05.748,LearnStrategy,2023.2.3,Win32,59.88023952,3,1,8,-0.07962963,0.422222222,1,0,0,1.3273,Diorite_02,3,02,6,4,1.327,3,02,-0.410185185,-0.409259259,1,0,0,1.5875,Obsidian_rect,5,1.587,0,7,0,7,0,1,,,,,,,,,,,,,
60ccbffae161aadb1880ad6c,SCR,2024-06-11_13h23.05.748,LearnStrategy,2023.2.3,Win32,59.88023952,3,1,9,-0.236111111,0.422222222,1,0,0,1.0324,Pumice_02,8,02,6,3,1.032,8,02,-0.353703704,-0.412037037,1,0,0,7.576,Obsidian_rect,5,7.576,0,8,0,8,0,1,,,,,,,,,,,,,
60ccbffae161aadb1880ad6c,SCR,2024-06-11_13h23.05.748,LearnStrategy,2023.2.3,Win32,59.88023952,3,1,10,0.367592593,0.1,1,0,0,1.2913,Basalt_12,2,12,4,7,1.291,2,12,0.339814815,-0.396296296,1,0,0,2.2167,Pumice_rect,8,2.217,0,9,0,9,0,1,,,,,,,,,,,,,
60ccbffae161aadb1880ad6c,SCR,2024-06-11_13h23.05.748,LearnStrategy,2023.2.3,Win32,59.88023952,3,1,11,-0.203703704,0.087962963,1,0,0,1.4532,Peridotite_16,7,16,4,3,1.453,7,16,0.100925926,-0.234259259,1,0,0,1.615,Diorite_rect,3,1.615,0,10,0,10,0,1,,,,,,,,,,,,,
60ccbffae161aadb1880ad6c,SCR,2024-06-11_13h23.05.748,LearnStrategy,2023.2.3,Win32,59.88023952,3,1,12,-0.228703704,0.25462963,1,0,0,0.978,Obsidian_14,5,14,5,3,0.978,5,14,-0.365740741,-0.403703704,1,0,0,1.5794,Obsidian_rect,5,1.579,1,11,0,11,0,1,,,,,,,,,,,,,
60ccbffae161aadb1880ad6c,SCR,2024-06-11_13h23.05.748,LearnStrategy,2023.2.3,Win32,59.88023952,3,1,13,-0.526851852,0.40462963,1,0,0,1.2394,Peridotite_15,7,15,6,1,1.239,7,15,0.373148148,-0.408333333,1,0,0,3.8964,Pumice_rect,8,3.896,0,12,0,12,0,1,,,,,,,,,,,,,
60ccbffae161aadb1880ad6c,SCR,2024-06-11_13h23.05.748,LearnStrategy,2023.2.3,Win32,59.88023952,3,1,14,-0.064814815,0.073148148,1,0,0,0.8251,Gabbro_08,4,08,4,4,0.825,4,08,0.039814815,-0.263888889,1,0,0,7.8368,Diorite_rect,3,7.837,0,13,0,13,0,1,,,,,,,,,,,,,
60ccbffae161aadb1880ad6c,SCR,2024-06-11_13h23.05.748,LearnStrategy,2023.2.3,Win32,59.88023952,3,1,15,0.082407407,-0.078703704,1,0,0,0.8169,Pumice_10,8,10,3,5,0.817,8,10,-0.110185185,-0.263888889,1,0,0,1.5759,Basalt_rect,2,1.576,0,14,0,14,0,1,,,,,,,,,,,,,
60ccbffae161aadb1880ad6c,SCR,2024-06-11_13h23.05.748,LearnStrategy,2023.2.3,Win32,59.88023952,3,1,16,0.064814815,0.127777778,1,0,0,0.8351,Obsidian_09,5,09,4,5,0.835,5,09,-0.424074074,-0.413888889,1,0,0,1.0704,Obsidian_rect,5,1.07,1,15,0,15,0,1,,,,,,,,,,,,,
60ccbffae161aadb1880ad6c,SCR,2024-06-11_13h23.05.748,LearnStrategy,2023.2.3,Win32,59.88023952,3,2,1,,,,,,,,3,10,,,,,,,,,,,,,2,2,0,,,,,,-0.084259259,-0.260185185,1,0,0,1.9998,Basalt_rect,0,0,0,0,1,
60ccbffae161aadb1880ad6c,SCR,2024-06-11_13h23.05.748,LearnStrategy,2023.2.3,Win32,59.88023952,3,2,2,,,,,,,,3,09,,,,,,,,,,,,,1,2.432,0,,,,,,-0.367592593,-0.231481481,1,0,0,2.4324,Andesite_rect,1,0,1,0,1,
60ccbffae161aadb1880ad6c,SCR,2024-06-11_13h23.05.748,LearnStrategy,2023.2.3,Win32,59.88023952,3,2,3,,,,,,,,5,12,,,,,,,,,,,,,5,1.263,1,,,,,,-0.339814815,-0.393518519,1,0,0,1.2629,Obsidian_rect,2,0,2,0,1,
60ccbffae161aadb1880ad6c,SCR,2024-06-11_13h23.05.748,LearnStrategy,2023.2.3,Win32,59.88023952,3,2,4,,,,,,,,8,03,,,,,,,,,,,,,2,1.572,0,,,,,,-0.10462963,-0.259259259,1,0,0,1.5719,Basalt_rect,3,0,3,0,1,
60ccbffae161aadb1880ad6c,SCR,2024-06-11_13h23.05.748,LearnStrategy,2023.2.3,Win32,59.88023952,3,2,5,,,,,,,,2,08,,,,,,,,,,,,,7,19.83,0,,,,,,0.155555556,-0.408333333,1,0,0,19.8295,Peridotite_rect,4,0,4,0,1,
60ccbffae161aadb1880ad6c,SCR,2024-06-11_13h23.05.748,LearnStrategy,2023.2.3,Win32,59.88023952,3,2,6,,,,,,,,7,02,,,,,,,,,,,,,1,7.185,0,,,,,,-0.40462963,-0.260185185,1,0,0,7.185,Andesite_rect,5,0,5,0,1,
60ccbffae161aadb1880ad6c,SCR,2024-06-11_13h23.05.748,LearnStrategy,2023.2.3,Win32,59.88023952,3,2,7,,,,,,,,7,14,,,,,,,,,,,,,6,4.507,0,,,,,,-0.137962963,-0.408333333,1,0,0,4.5072,Pegmatite_rect,6,0,6,0,1,
60ccbffae161aadb1880ad6c,SCR,2024-06-11_13h23.05.748,LearnStrategy,2023.2.3,Win32,59.88023952,3,2,8,,,,,,,,6,09,,,,,,,,,,,,,2,3.652,0,,,,,,-0.112962963,-0.27037037,1,0,0,3.6525,Basalt_rect,7,0,7,0,1,
60ccbffae161aadb1880ad6c,SCR,2024-06-11_13h23.05.748,LearnStrategy,2023.2.3,Win32,59.88023952,3,2,9,,,,,,,,8,14,,,,,,,,,,,,,2,2.251,0,,,,,,-0.112962963,-0.261111111,1,0,0,2.251,Basalt_rect,8,0,8,0,1,
60ccbffae161aadb1880ad6c,SCR,2024-06-11_13h23.05.748,LearnStrategy,2023.2.3,Win32,59.88023952,3,2,10,,,,,,,,4,16,,,,,,,,,,,,,6,2.045,0,,,,,,-0.156481481,-0.405555556,1,0,0,2.0452,Pegmatite_rect,9,0,9,0,1,
60ccbffae161aadb1880ad6c,SCR,2024-06-11_13h23.05.748,LearnStrategy,2023.2.3,Win32,59.88023952,3,2,11,,,,,,,,2,05,,,,,,,,,,,,,3,3.088,0,,,,,,0.137962963,-0.249074074,1,0,0,3.0881,Diorite_rect,10,0,10,0,1,
60ccbffae161aadb1880ad6c,SCR,2024-06-11_13h23.05.748,LearnStrategy,2023.2.3,Win32,59.88023952,3,2,12,,,,,,,,4,11,,,,,,,,,,,,,7,8.014,0,,,,,,0.237037037,-0.414814815,1,0,0,8.0141,Peridotite_rect,11,0,11,0,1,
60ccbffae161aadb1880ad6c,SCR,2024-06-11_13h23.05.748,LearnStrategy,2023.2.3,Win32,59.88023952,3,2,13,,,,,,,,5,08,,,,,,,,,,,,,5,1.348,1,,,,,,-0.398148148,-0.398148148,1,0,0,1.3482,Obsidian_rect,12,0,12,0,1,
60ccbffae161aadb1880ad6c,SCR,2024-06-11_13h23.05.748,LearnStrategy,2023.2.3,Win32,59.88023952,3,2,14,,,,,,,,1,05,,,,,,,,,,,,,8,3.335,0,,,,,,0.419444444,-0.398148148,1,0,0,3.3351,Pumice_rect,13,0,13,0,1,
60ccbffae161aadb1880ad6c,SCR,2024-06-11_13h23.05.748,LearnStrategy,2023.2.3,Win32,59.88023952,3,2,15,,,,,,,,6,07,,,,,,,,,,,,,4,2.195,0,,,,,,0.352777778,-0.248148148,1,0,0,2.1947,Gabbro_rect,14,0,14,0,1,
60ccbffae161aadb1880ad6c,SCR,2024-06-11_13h23.05.748,LearnStrategy,2023.2.3,Win32,59.88023952,3,2,16,,,,,,,,1,09,,,,,,,,,,,,,2,1.722,0,,,,,,-0.14537037,-0.253703704,1,0,0,1.7223,Basalt_rect,15,0,15,0,1,
60ccbffae161aadb1880ad6c,SCR,2024-06-11_13h23.05.748,LearnStrategy,2023.2.3,Win32,59.88023952,4,1,1,-0.42037037,-0.097222222,1,0,0,0.7758,Peridotite_07,7,07,3,2,0.776,7,07,-0.137962963,-0.25462963,1,0,0,1.4078,Basalt_rect,2,1.408,0,0,0,0,0,1,,,,,,,,,,,,,
60ccbffae161aadb1880ad6c,SCR,2024-06-11_13h23.05.748,LearnStrategy,2023.2.3,Win32,59.88023952,4,1,2,0.436111111,0.434259259,1,0,0,1.1694,Gabbro_12,4,12,6,7,1.169,4,12,-0.121296296,-0.267592593,1,0,0,1.2858,Basalt_rect,2,1.286,0,1,0,1,0,1,,,,,,,,,,,,,
60ccbffae161aadb1880ad6c,SCR,2024-06-11_13h23.05.748,LearnStrategy,2023.2.3,Win32,59.88023952,4,1,3,0.219444444,-0.22962963,1,0,0,0.951,Andesite_03,1,03,2,6,0.951,1,03,-0.443518519,-0.25462963,1,0,0,1.7317,Andesite_rect,1,1.732,1,2,0,2,0,1,,,,,,,,,,,,,
60ccbffae161aadb1880ad6c,SCR,2024-06-11_13h23.05.748,LearnStrategy,2023.2.3,Win32,59.88023952,4,1,4,-0.225,0.268518519,1,0,0,1.4876,Obsidian_14,5,14,5,3,1.488,5,14,-0.434259259,-0.407407407,1,0,0,1.1281,Obsidian_rect,5,1.128,1,3,0,3,0,1,,,,,,,,,,,,,
60ccbffae161aadb1880ad6c,SCR,2024-06-11_13h23.05.748,LearnStrategy,2023.2.3,Win32,59.88023952,4,1,5,0.535185185,0.083333333,1,0,0,1.1036,Basalt_02,2,02,4,8,1.104,2,02,0.122222222,-0.409259259,1,0,0,2.6755,Peridotite_rect,7,2.676,0,4,0,4,0,1,,,,,,,,,,,,,
60ccbffae161aadb1880ad6c,SCR,2024-06-11_13h23.05.748,LearnStrategy,2023.2.3,Win32,59.88023952,4,1,6,0.598148148,0.366666667,1,0,0,1.0861,Pumice_13,8,13,6,8,1.086,8,13,-0.087037037,-0.252777778,1,0,0,1.0039,Basalt_rect,2,1.004,0,5,0,5,0,1,,,,,,,,,,,,,
60ccbffae161aadb1880ad6c,SCR,2024-06-11_13h23.05.748,LearnStrategy,2023.2.3,Win32,59.88023952,4,1,7,0.549074074,0.077777778,1,0,0,0.8973,Basalt_02,2,02,4,8,0.897,2,02,-0.108333333,-0.259259259,1,0,0,1.3752,Basalt_rect,2,1.375,1,6,0,6,0,1,,,,,,,,,,,,,
60ccbffae161aadb1880ad6c,SCR,2024-06-11_13h23.05.748,LearnStrategy,2023.2.3,Win32,59.88023952,4,1,8,0.392592593,-0.107407407,1,0,0,0.9445,Diorite_15,3,15,3,7,0.945,3,15,-0.393518519,-0.262037037,1,0,0,1.8933,Andesite_rect,1,1.893,0,7,0,7,0,1,,,,,,,,,,,,,
60ccbffae161aadb1880ad6c,SCR,2024-06-11_13h23.05.748,LearnStrategy,2023.2.3,Win32,59.88023952,4,1,9,-0.22962963,-0.109259259,1,0,0,0.9619,Gabbro_14,4,14,3,3,0.962,4,14,-0.353703704,-0.237037037,1,0,0,1.3867,Andesite_rect,1,1.387,0,8,0,8,0,1,,,,,,,,,,,,,
60ccbffae161aadb1880ad6c,SCR,2024-06-11_13h23.05.748,LearnStrategy,2023.2.3,Win32,59.88023952,4,1,10,-0.085185185,-0.388888889,1,0,0,0.9982,Andesite_06,1,06,1,4,0.998,1,06,0.365740741,-0.391666667,1,0,0,1.216,Pumice_rect,8,1.216,0,9,0,9,0,1,,,,,,,,,,,,,
60ccbffae161aadb1880ad6c,SCR,2024-06-11_13h23.05.748,LearnStrategy,2023.2.3,Win32,59.88023952,4,1,11,-0.549074074,0.091666667,1,0,0,1.0654,Pegmatite_12,6,12,4,1,1.065,6,12,-0.425,-0.249074074,1,0,0,2.0985,Andesite_rect,1,2.098,0,10,0,10,0,1,,,,,,,,,,,,,
60ccbffae161aadb1880ad6c,SCR,2024-06-11_13h23.05.748,LearnStrategy,2023.2.3,Win32,59.88023952,4,1,12,0.530555556,0.383333333,1,0,0,1.2135,Pumice_13,8,13,6,8,1.213,8,13,-0.100925926,-0.257407407,1,0,0,11.1252,Basalt_rect,2,11.125,0,11,0,11,0,1,,,,,,,,,,,,,
60ccbffae161aadb1880ad6c,SCR,2024-06-11_13h23.05.748,LearnStrategy,2023.2.3,Win32,59.88023952,4,1,13,-0.121296296,0.417592593,1,0,0,1.1098,Diorite_02,3,02,6,4,1.11,3,02,0.35,-0.250925926,1,0,0,2.0578,Gabbro_rect,4,2.058,0,12,0,12,0,1,,,,,,,,,,,,,
60ccbffae161aadb1880ad6c,SCR,2024-06-11_13h23.05.748,LearnStrategy,2023.2.3,Win32,59.88023952,4,1,14,-0.376851852,-0.274074074,1,0,0,0.9587,Pegmatite_10,6,10,2,2,0.959,6,10,0.385185185,-0.255555556,1,0,0,1.7627,Gabbro_rect,4,1.763,0,13,0,13,0,1,,,,,,,,,,,,,
60ccbffae161aadb1880ad6c,SCR,2024-06-11_13h23.05.748,LearnStrategy,2023.2.3,Win32,59.88023952,4,1,15,-0.267592593,-0.262037037,1,0,0,0.848,Andesite_16,1,16,2,3,0.848,1,16,-0.218518519,-0.25462963,1,0,0,0.6388,Basalt_rect,2,0.639,0,14,0,14,0,1,,,,,,,,,,,,,
60ccbffae161aadb1880ad6c,SCR,2024-06-11_13h23.05.748,LearnStrategy,2023.2.3,Win32,59.88023952,4,1,16,-0.543518519,0.405555556,1,0,0,1.442,Peridotite_15,7,15,6,1,1.442,7,15,0.128703704,-0.409259259,1,0,0,2.7452,Peridotite_rect,7,2.745,1,15,0,15,0,1,,,,,,,,,,,,,
60ccbffae161aadb1880ad6c,SCR,2024-06-11_13h23.05.748,LearnStrategy,2023.2.3,Win32,59.88023952,4,2,1,,,,,,,,8,05,,,,,,,,,,,,,2,2.601,0,,,,,,-0.061111111,-0.258333333,1,0,0,2.6005,Basalt_rect,0,0,0,0,1,
60ccbffae161aadb1880ad6c,SCR,2024-06-11_13h23.05.748,LearnStrategy,2023.2.3,Win32,59.88023952,4,2,2,,,,,,,,4,03,,,,,,,,,,,,,1,1.664,0,,,,,,-0.315740741,-0.260185185,1,0,0,1.6639,Andesite_rect,1,0,1,0,1,
60ccbffae161aadb1880ad6c,SCR,2024-06-11_13h23.05.748,LearnStrategy,2023.2.3,Win32,59.88023952,4,2,3,,,,,,,,8,03,,,,,,,,,,,,,2,5.344,0,,,,,,-0.124074074,-0.261111111,1,0,0,5.3439,Basalt_rect,2,0,2,0,1,
60ccbffae161aadb1880ad6c,SCR,2024-06-11_13h23.05.748,LearnStrategy,2023.2.3,Win32,59.88023952,4,2,4,,,,,,,,1,10,,,,,,,,,,,,,4,1.056,0,,,,,,0.338888889,-0.262962963,1,0,0,1.0559,Gabbro_rect,3,0,3,0,1,
60ccbffae161aadb1880ad6c,SCR,2024-06-11_13h23.05.748,LearnStrategy,2023.2.3,Win32,59.88023952,4,2,5,,,,,,,,7,02,,,,,,,,,,,,,7,2.103,1,,,,,,0.15,-0.405555556,1,0,0,2.1034,Peridotite_rect,4,0,4,0,1,
60ccbffae161aadb1880ad6c,SCR,2024-06-11_13h23.05.748,LearnStrategy,2023.2.3,Win32,59.88023952,4,2,6,,,,,,,,3,12,,,,,,,,,,,,,2,1.497,0,,,,,,-0.069444444,-0.271296296,1,0,0,1.4968,Basalt_rect,5,0,5,0,1,
60ccbffae161aadb1880ad6c,SCR,2024-06-11_13h23.05.748,LearnStrategy,2023.2.3,Win32,59.88023952,4,2,7,,,,,,,,1,09,,,,,,,,,,,,,7,1.936,0,,,,,,0.169444444,-0.410185185,1,0,0,1.9358,Peridotite_rect,6,0,6,0,1,
60ccbffae161aadb1880ad6c,SCR,2024-06-11_13h23.05.748,LearnStrategy,2023.2.3,Win32,59.88023952,4,2,8,,,,,,,,6,13,,,,,,,,,,,,,4,1.39,0,,,,,,0.374074074,-0.261111111,1,0,0,1.3898,Gabbro_rect,7,0,7,0,1,
60ccbffae161aadb1880ad6c,SCR,2024-06-11_13h23.05.748,LearnStrategy,2023.2.3,Win32,59.88023952,4,2,9,,,,,,,,2,09,,,,,,,,,,,,,1,2.516,0,,,,,,-0.324074074,-0.244444444,1,0,0,2.5156,Andesite_rect,8,0,8,0,1,
60ccbffae161aadb1880ad6c,SCR,2024-06-11_13h23.05.748,LearnStrategy,2023.2.3,Win32,59.88023952,4,2,10,,,,,,,,4,13,,,,,,,,,,,,,6,1.807,0,,,,,,-0.133333333,-0.394444444,1,0,0,1.8071,Pegmatite_rect,9,0,9,0,1,
60ccbffae161aadb1880ad6c,SCR,2024-06-11_13h23.05.748,LearnStrategy,2023.2.3,Win32,59.88023952,4,2,11,,,,,,,,5,10,,,,,,,,,,,,,5,1.255,1,,,,,,-0.339814815,-0.397222222,1,0,0,1.2555,Obsidian_rect,10,0,10,0,1,
60ccbffae161aadb1880ad6c,SCR,2024-06-11_13h23.05.748,LearnStrategy,2023.2.3,Win32,59.88023952,4,2,12,,,,,,,,3,07,,,,,,,,,,,,,7,2.209,0,,,,,,0.116666667,-0.403703704,1,0,0,2.209,Peridotite_rect,11,0,11,0,1,
60ccbffae161aadb1880ad6c,SCR,2024-06-11_13h23.05.748,LearnStrategy,2023.2.3,Win32,59.88023952,4,2,13,,,,,,,,7,14,,,,,,,,,,,,,3,3.244,0,,,,,,0.14537037,-0.266666667,1,0,0,3.2442,Diorite_rect,12,0,12,0,1,
60ccbffae161aadb1880ad6c,SCR,2024-06-11_13h23.05.748,LearnStrategy,2023.2.3,Win32,59.88023952,4,2,14,,,,,,,,5,12,,,,,,,,,,,,,5,1.289,1,,,,,,-0.356481481,-0.40462963,1,0,0,1.2894,Obsidian_rect,13,0,13,0,1,
60ccbffae161aadb1880ad6c,SCR,2024-06-11_13h23.05.748,LearnStrategy,2023.2.3,Win32,59.88023952,4,2,15,,,,,,,,6,07,,,,,,,,,,,,,4,1.499,0,,,,,,0.328703704,-0.271296296,1,0,0,1.4993,Gabbro_rect,14,0,14,0,1,
60ccbffae161aadb1880ad6c,SCR,2024-06-11_13h23.05.748,LearnStrategy,2023.2.3,Win32,59.88023952,4,2,16,,,,,,,,2,05,,,,,,,,,,,,,2,1.357,1,,,,,,-0.085185185,-0.256481481,1,0,0,1.3568,Basalt_rect,15,0,15,0,1,
60ccbffae161aadb1880ad6c,SCR,2024-06-11_13h23.05.748,LearnStrategy,2023.2.3,Win32,59.88023952,5,1,1,0.222222222,0.371296296,1,0,0,1.375,Pegmatite_15,6,15,6,6,1.375,6,15,0.134259259,-0.40462963,1,0,0,2.2098,Peridotite_rect,7,2.21,0,0,0,0,0,1,,,,,,,,,,,,,
60ccbffae161aadb1880ad6c,SCR,2024-06-11_13h23.05.748,LearnStrategy,2023.2.3,Win32,59.88023952,5,1,2,-0.227777778,-0.268518519,1,0,0,0.9947,Andesite_16,1,16,2,3,0.995,1,16,-0.180555556,-0.262962963,1,0,0,0.5419,Basalt_rect,2,0.542,0,1,0,1,0,1,,,,,,,,,,,,,
60ccbffae161aadb1880ad6c,SCR,2024-06-11_13h23.05.748,LearnStrategy,2023.2.3,Win32,59.88023952,5,1,3,0.568518519,0.09537037,1,0,0,1.1821,Basalt_02,2,02,4,8,1.182,2,02,-0.068518519,-0.235185185,1,0,0,1.2445,Basalt_rect,2,1.245,1,2,0,2,0,1,,,,,,,,,,,,,
60ccbffae161aadb1880ad6c,SCR,2024-06-11_13h23.05.748,LearnStrategy,2023.2.3,Win32,59.88023952,5,1,4,0.276851852,-0.277777778,1,0,0,0.9224,Andesite_03,1,03,2,6,0.922,1,03,0.207407407,-0.393518519,1,0,0,3.4182,Peridotite_rect,7,3.418,0,3,0,3,0,1,,,,,,,,,,,,,
60ccbffae161aadb1880ad6c,SCR,2024-06-11_13h23.05.748,LearnStrategy,2023.2.3,Win32,59.88023952,5,1,5,0.247222222,0.086111111,1,0,0,1.1673,Pumice_15,8,15,4,6,1.167,8,15,-0.121296296,-0.243518519,1,0,0,1.7519,Basalt_rect,2,1.752,0,4,0,4,0,1,,,,,,,,,,,,,
60ccbffae161aadb1880ad6c,SCR,2024-06-11_13h23.05.748,LearnStrategy,2023.2.3,Win32,59.88023952,5,1,6,-0.068518519,-0.366666667,1,0,0,1.0637,Andesite_06,1,06,1,4,1.064,1,06,0.412962963,-0.258333333,1,0,0,1.4859,Gabbro_rect,4,1.486,0,5,0,5,0,1,,,,,,,,,,,,,
60ccbffae161aadb1880ad6c,SCR,2024-06-11_13h23.05.748,LearnStrategy,2023.2.3,Win32,59.88023952,5,1,7,-0.223148148,-0.07962963,1,0,0,0.7948,Gabbro_14,4,14,3,3,0.795,4,14,-0.139814815,-0.27037037,1,0,0,1.0919,Basalt_rect,2,1.092,0,6,0,6,0,1,,,,,,,,,,,,,
60ccbffae161aadb1880ad6c,SCR,2024-06-11_13h23.05.748,LearnStrategy,2023.2.3,Win32,59.88023952,5,1,8,-0.523148148,0.402777778,1,0,0,1.213,Peridotite_15,7,15,6,1,1.213,7,15,-0.105555556,-0.400925926,1,0,0,3.2404,Pegmatite_rect,6,3.24,0,7,0,7,0,1,,,,,,,,,,,,,
60ccbffae161aadb1880ad6c,SCR,2024-06-11_13h23.05.748,LearnStrategy,2023.2.3,Win32,59.88023952,5,1,9,0.225925926,-0.393518519,1,0,0,1.1545,Obsidian_16,5,16,1,6,1.154,5,16,-0.356481481,-0.389814815,1,0,0,1.0657,Obsidian_rect,5,1.066,1,8,0,8,0,1,,,,,,,,,,,,,
60ccbffae161aadb1880ad6c,SCR,2024-06-11_13h23.05.748,LearnStrategy,2023.2.3,Win32,59.88023952,5,1,10,0.407407407,-0.222222222,1,0,0,1.0772,Basalt_11,2,11,2,7,1.077,2,11,-0.077777778,-0.240740741,1,0,0,1.3024,Basalt_rect,2,1.302,1,9,0,9,0,1,,,,,,,,,,,,,
60ccbffae161aadb1880ad6c,SCR,2024-06-11_13h23.05.748,LearnStrategy,2023.2.3,Win32,59.88023952,5,1,11,-0.412962963,0.12037037,1,0,0,0.9358,Peridotite_13,7,13,4,2,0.936,7,13,0.068518519,-0.414814815,1,0,0,2.1794,Peridotite_rect,7,2.179,1,10,0,10,0,1,,,,,,,,,,,,,
60ccbffae161aadb1880ad6c,SCR,2024-06-11_13h23.05.748,LearnStrategy,2023.2.3,Win32,59.88023952,5,1,12,-0.514814815,-0.24537037,1,0,0,0.9633,Pegmatite_16,6,16,2,1,0.963,6,16,0.351851852,-0.250925926,1,0,0,1.3362,Gabbro_rect,4,1.336,0,11,0,11,0,1,,,,,,,,,,,,,
60ccbffae161aadb1880ad6c,SCR,2024-06-11_13h23.05.748,LearnStrategy,2023.2.3,Win32,59.88023952,5,1,13,0.236111111,0.237037037,1,0,0,1.0963,Diorite_06,3,06,5,6,1.096,3,06,-0.142592593,-0.231481481,1,0,0,1.2332,Basalt_rect,2,1.233,0,12,0,12,0,1,,,,,,,,,,,,,
60ccbffae161aadb1880ad6c,SCR,2024-06-11_13h23.05.748,LearnStrategy,2023.2.3,Win32,59.88023952,5,1,14,-0.368518519,-0.426851852,1,0,0,1.2324,Gabbro_05,4,05,1,2,1.232,4,05,0.227777778,-0.391666667,1,0,0,1.2857,Peridotite_rect,7,1.286,0,13,0,13,0,1,,,,,,,,,,,,,
60ccbffae161aadb1880ad6c,SCR,2024-06-11_13h23.05.748,LearnStrategy,2023.2.3,Win32,59.88023952,5,1,15,-0.060185185,-0.248148148,1,0,0,1.152,Diorite_13,3,13,2,4,1.152,3,13,-0.125,-0.22962963,1,0,0,0.868,Basalt_rect,2,0.868,0,14,0,14,0,1,,,,,,,,,,,,,
60ccbffae161aadb1880ad6c,SCR,2024-06-11_13h23.05.748,LearnStrategy,2023.2.3,Win32,59.88023952,5,1,16,0.532407407,0.375925926,1,0,0,1.165,Pumice_13,8,13,6,8,1.165,8,13,0.418518519,-0.247222222,1,0,0,2.0981,Gabbro_rect,4,2.098,0,15,0,15,0,1,,,,,,,,,,,,,
60ccbffae161aadb1880ad6c,SCR,2024-06-11_13h23.05.748,LearnStrategy,2023.2.3,Win32,59.88023952,5,2,1,,,,,,,,3,16,,,,,,,,,,,,,4,2.105,0,,,,,,0.330555556,-0.253703704,1,0,0,2.1048,Gabbro_rect,0,0,0,0,1,
60ccbffae161aadb1880ad6c,SCR,2024-06-11_13h23.05.748,LearnStrategy,2023.2.3,Win32,59.88023952,5,2,2,,,,,,,,1,05,,,,,,,,,,,,,7,2.848,0,,,,,,0.165740741,-0.39537037,1,0,0,2.8477,Peridotite_rect,1,0,1,0,1,
60ccbffae161aadb1880ad6c,SCR,2024-06-11_13h23.05.748,LearnStrategy,2023.2.3,Win32,59.88023952,5,2,3,,,,,,,,3,10,,,,,,,,,,,,,2,1.873,0,,,,,,-0.143518519,-0.249074074,1,0,0,1.8726,Basalt_rect,2,0,2,0,1,
60ccbffae161aadb1880ad6c,SCR,2024-06-11_13h23.05.748,LearnStrategy,2023.2.3,Win32,59.88023952,5,2,4,,,,,,,,1,01,,,,,,,,,,,,,1,3.808,1,,,,,,-0.381481481,-0.261111111,1,0,0,3.8076,Andesite_rect,3,0,3,0,1,
60ccbffae161aadb1880ad6c,SCR,2024-06-11_13h23.05.748,LearnStrategy,2023.2.3,Win32,59.88023952,5,2,5,,,,,,,,5,08,,,,,,,,,,,,,5,1.158,1,,,,,,-0.389814815,-0.410185185,1,0,0,1.1581,Obsidian_rect,4,0,4,0,1,
60ccbffae161aadb1880ad6c,SCR,2024-06-11_13h23.05.748,LearnStrategy,2023.2.3,Win32,59.88023952,5,2,6,,,,,,,,6,09,,,,,,,,,,,,,7,2.004,0,,,,,,0.116666667,-0.413888889,1,0,0,2.0042,Peridotite_rect,5,0,5,0,1,
60ccbffae161aadb1880ad6c,SCR,2024-06-11_13h23.05.748,LearnStrategy,2023.2.3,Win32,59.88023952,5,2,7,,,,,,,,4,15,,,,,,,,,,,,,8,3.106,0,,,,,,0.412962963,-0.402777778,1,0,0,3.1064,Pumice_rect,6,0,6,0,1,
60ccbffae161aadb1880ad6c,SCR,2024-06-11_13h23.05.748,LearnStrategy,2023.2.3,Win32,59.88023952,5,2,8,,,,,,,,2,16,,,,,,,,,,,,,3,2.666,0,,,,,,0.14537037,-0.248148148,1,0,0,2.666,Diorite_rect,7,0,7,0,1,
60ccbffae161aadb1880ad6c,SCR,2024-06-11_13h23.05.748,LearnStrategy,2023.2.3,Win32,59.88023952,5,2,9,,,,,,,,8,06,,,,,,,,,,,,,2,1.208,0,,,,,,-0.088888889,-0.248148148,1,0,0,1.2076,Basalt_rect,8,0,8,0,1,
60ccbffae161aadb1880ad6c,SCR,2024-06-11_13h23.05.748,LearnStrategy,2023.2.3,Win32,59.88023952,5,2,10,,,,,,,,5,05,,,,,,,,,,,,,5,1.807,1,,,,,,-0.364814815,-0.393518519,1,0,0,1.8074,Obsidian_rect,9,0,9,0,1,
60ccbffae161aadb1880ad6c,SCR,2024-06-11_13h23.05.748,LearnStrategy,2023.2.3,Win32,59.88023952,5,2,11,,,,,,,,6,06,,,,,,,,,,,,,4,1.702,0,,,,,,0.410185185,-0.247222222,1,0,0,1.7017,Gabbro_rect,10,0,10,0,1,
60ccbffae161aadb1880ad6c,SCR,2024-06-11_13h23.05.748,LearnStrategy,2023.2.3,Win32,59.88023952,5,2,12,,,,,,,,2,01,,,,,,,,,,,,,1,3.833,0,,,,,,-0.323148148,-0.24537037,1,0,0,3.8326,Andesite_rect,11,0,11,0,1,
60ccbffae161aadb1880ad6c,SCR,2024-06-11_13h23.05.748,LearnStrategy,2023.2.3,Win32,59.88023952,5,2,13,,,,,,,,7,04,,,,,,,,,,,,,4,2.131,0,,,,,,0.424074074,-0.264814815,1,0,0,2.131,Gabbro_rect,12,0,12,0,1,
60ccbffae161aadb1880ad6c,SCR,2024-06-11_13h23.05.748,LearnStrategy,2023.2.3,Win32,59.88023952,5,2,14,,,,,,,,8,14,,,,,,,,,,,,,2,1.458,0,,,,,,-0.152777778,-0.253703704,1,0,0,1.4577,Basalt_rect,13,0,13,0,1,
60ccbffae161aadb1880ad6c,SCR,2024-06-11_13h23.05.748,LearnStrategy,2023.2.3,Win32,59.88023952,5,2,15,,,,,,,,4,09,,,,,,,,,,,,,7,1.433,0,,,,,,0.141666667,-0.400925926,1,0,0,1.4325,Peridotite_rect,14,0,14,0,1,
60ccbffae161aadb1880ad6c,SCR,2024-06-11_13h23.05.748,LearnStrategy,2023.2.3,Win32,59.88023952,5,2,16,,,,,,,,7,12,,,,,,,,,,,,,6,0.962,0,,,,,,-0.099074074,-0.417592593,1,0,0,0.9617,Pegmatite_rect,15,0,15,0,1,
60ccbffae161aadb1880ad6c,SCR,2024-06-11_13h23.05.748,LearnStrategy,2023.2.3,Win32,59.88023952,6,1,1,0.256481481,-0.090740741,1,0,0,1.21,Diorite_14,3,14,3,6,1.21,3,14,0.32962963,-0.237037037,1,0,0,1.1167,Gabbro_rect,4,1.117,0,0,0,0,0,1,,,,,,,,,,,,,
60ccbffae161aadb1880ad6c,SCR,2024-06-11_13h23.05.748,LearnStrategy,2023.2.3,Win32,59.88023952,6,1,2,0.05462963,-0.222222222,1,0,0,1.0185,Pumice_08,8,08,2,5,1.019,8,08,-0.100925926,-0.238888889,1,0,0,1.0313,Basalt_rect,2,1.031,0,1,0,1,0,1,,,,,,,,,,,,,
60ccbffae161aadb1880ad6c,SCR,2024-06-11_13h23.05.748,LearnStrategy,2023.2.3,Win32,59.88023952,6,1,3,0.559259259,-0.400925926,1,0,0,1.2849,Andesite_02,1,02,1,8,1.285,1,02,0.437037037,-0.401851852,1,0,0,2.3373,Pumice_rect,8,2.337,0,2,0,2,0,1,,,,,,,,,,,,,
60ccbffae161aadb1880ad6c,SCR,2024-06-11_13h23.05.748,LearnStrategy,2023.2.3,Win32,59.88023952,6,1,4,0.385185185,-0.419444444,1,0,0,1.0376,Basalt_10,2,10,1,7,1.038,2,10,-0.137037037,-0.258333333,1,0,0,1.7319,Basalt_rect,2,1.732,1,3,0,3,0,1,,,,,,,,,,,,,
60ccbffae161aadb1880ad6c,SCR,2024-06-11_13h23.05.748,LearnStrategy,2023.2.3,Win32,59.88023952,6,1,5,-0.507407407,0.088888889,1,0,0,1.197,Pegmatite_12,6,12,4,1,1.197,6,12,0.125925926,-0.267592593,1,0,0,1.1618,Diorite_rect,3,1.162,0,4,0,4,0,1,,,,,,,,,,,,,
60ccbffae161aadb1880ad6c,SCR,2024-06-11_13h23.05.748,LearnStrategy,2023.2.3,Win32,59.88023952,6,1,6,0.092592593,0.367592593,1,0,0,1.6219,Gabbro_10,4,10,6,5,1.622,4,10,-0.148148148,-0.263888889,1,0,0,1.4213,Basalt_rect,2,1.421,0,5,0,5,0,1,,,,,,,,,,,,,
60ccbffae161aadb1880ad6c,SCR,2024-06-11_13h23.05.748,LearnStrategy,2023.2.3,Win32,59.88023952,6,1,7,0.052777778,-0.277777778,1,0,0,0.8059,Pumice_08,8,08,2,5,0.806,8,08,-0.101851852,-0.233333333,1,0,0,0.7588,Basalt_rect,2,0.759,0,6,0,6,0,1,,,,,,,,,,,,,
60ccbffae161aadb1880ad6c,SCR,2024-06-11_13h23.05.748,LearnStrategy,2023.2.3,Win32,59.88023952,6,1,8,-0.260185185,0.113888889,1,0,0,1.2053,Peridotite_16,7,16,4,3,1.205,7,16,0.459259259,-0.257407407,1,0,0,1.4691,Gabbro_rect,4,1.469,0,7,0,7,0,1,,,,,,,,,,,,,
60ccbffae161aadb1880ad6c,SCR,2024-06-11_13h23.05.748,LearnStrategy,2023.2.3,Win32,59.88023952,6,1,9,-0.055555556,0.085185185,1,0,0,0.8878,Gabbro_08,4,08,4,4,0.888,4,08,-0.362962963,-0.236111111,1,0,0,1.0345,Andesite_rect,1,1.034,0,8,0,8,0,1,,,,,,,,,,,,,
60ccbffae161aadb1880ad6c,SCR,2024-06-11_13h23.05.748,LearnStrategy,2023.2.3,Win32,59.88023952,6,1,10,0.528703704,-0.080555556,1,0,0,2.0544,Basalt_14,2,14,3,8,2.054,2,14,0.336111111,-0.231481481,1,0,0,1.5338,Gabbro_rect,4,1.534,0,9,0,9,0,1,,,,,,,,,,,,,
60ccbffae161aadb1880ad6c,SCR,2024-06-11_13h23.05.748,LearnStrategy,2023.2.3,Win32,59.88023952,6,1,11,0.396296296,0.073148148,1,0,0,1.0805,Basalt_12,2,12,4,7,1.081,2,12,-0.12962963,-0.232407407,1,0,0,1.1867,Basalt_rect,2,1.187,1,10,0,10,0,1,,,,,,,,,,,,,
60ccbffae161aadb1880ad6c,SCR,2024-06-11_13h23.05.748,LearnStrategy,2023.2.3,Win32,59.88023952,6,1,12,0.546296296,-0.27962963,1,0,0,1.2035,Pegmatite_03,6,03,2,8,1.204,6,03,0.439814815,-0.261111111,1,0,0,1.6546,Gabbro_rect,4,1.655,0,11,0,11,0,1,,,,,,,,,,,,,
60ccbffae161aadb1880ad6c,SCR,2024-06-11_13h23.05.748,LearnStrategy,2023.2.3,Win32,59.88023952,6,1,13,-0.073148148,-0.24537037,1,0,0,0.9332,Diorite_13,3,13,2,4,0.933,3,13,0.448148148,-0.262962963,1,0,0,1.1522,Gabbro_rect,4,1.152,0,12,0,12,0,1,,,,,,,,,,,,,
60ccbffae161aadb1880ad6c,SCR,2024-06-11_13h23.05.748,LearnStrategy,2023.2.3,Win32,59.88023952,6,1,14,-0.076851852,0.463888889,1,0,0,1.1095,Diorite_02,3,02,6,4,1.109,3,02,-0.139814815,-0.263888889,1,0,0,1.3387,Basalt_rect,2,1.339,0,13,0,13,0,1,,,,,,,,,,,,,
60ccbffae161aadb1880ad6c,SCR,2024-06-11_13h23.05.748,LearnStrategy,2023.2.3,Win32,59.88023952,6,1,15,-0.225,-0.284259259,1,0,0,0.99,Andesite_16,1,16,2,3,0.99,1,16,0.150925926,-0.256481481,1,0,0,1.5045,Diorite_rect,3,1.505,0,14,0,14,0,1,,,,,,,,,,,,,
60ccbffae161aadb1880ad6c,SCR,2024-06-11_13h23.05.748,LearnStrategy,2023.2.3,Win32,59.88023952,6,1,16,-0.380555556,-0.075925926,1,0,0,0.8641,Peridotite_07,7,07,3,2,0.864,7,07,-0.137037037,-0.248148148,1,0,0,0.9466,Basalt_rect,2,0.947,0,15,0,15,0,1,,,,,,,,,,,,,
60ccbffae161aadb1880ad6c,SCR,2024-06-11_13h23.05.748,LearnStrategy,2023.2.3,Win32,59.88023952,6,2,1,,,,,,,,4,11,,,,,,,,,,,,,2,2.563,0,,,,,,-0.090740741,-0.259259259,1,0,0,2.5625,Basalt_rect,0,0,0,0,1,
60ccbffae161aadb1880ad6c,SCR,2024-06-11_13h23.05.748,LearnStrategy,2023.2.3,Win32,59.88023952,6,2,2,,,,,,,,8,09,,,,,,,,,,,,,2,3.485,0,,,,,,-0.109259259,-0.271296296,1,0,0,3.4848,Basalt_rect,1,0,1,0,1,
60ccbffae161aadb1880ad6c,SCR,2024-06-11_13h23.05.748,LearnStrategy,2023.2.3,Win32,59.88023952,6,2,3,,,,,,,,7,08,,,,,,,,,,,,,7,2.095,1,,,,,,0.097222222,-0.397222222,1,0,0,2.0951,Peridotite_rect,2,0,2,0,1,
60ccbffae161aadb1880ad6c,SCR,2024-06-11_13h23.05.748,LearnStrategy,2023.2.3,Win32,59.88023952,6,2,4,,,,,,,,7,06,,,,,,,,,,,,,4,1.691,0,,,,,,0.371296296,-0.25,1,0,0,1.6912,Gabbro_rect,3,0,3,0,1,
60ccbffae161aadb1880ad6c,SCR,2024-06-11_13h23.05.748,LearnStrategy,2023.2.3,Win32,59.88023952,6,2,5,,,,,,,,5,07,,,,,,,,,,,,,5,1.251,1,,,,,,-0.362962963,-0.381481481,1,0,0,1.2509,Obsidian_rect,4,0,4,0,1,
60ccbffae161aadb1880ad6c,SCR,2024-06-11_13h23.05.748,LearnStrategy,2023.2.3,Win32,59.88023952,6,2,6,,,,,,,,2,04,,,,,,,,,,,,,2,1.475,1,,,,,,-0.175,-0.262962963,1,0,0,1.4746,Basalt_rect,5,0,5,0,1,
60ccbffae161aadb1880ad6c,SCR,2024-06-11_13h23.05.748,LearnStrategy,2023.2.3,Win32,59.88023952,6,2,7,,,,,,,,3,11,,,,,,,,,,,,,1,2.645,0,,,,,,-0.366666667,-0.256481481,1,0,0,2.6454,Andesite_rect,6,0,6,0,1,
60ccbffae161aadb1880ad6c,SCR,2024-06-11_13h23.05.748,LearnStrategy,2023.2.3,Win32,59.88023952,6,2,8,,,,,,,,1,14,,,,,,,,,,,,,6,3.46,0,,,,,,-0.12962963,-0.384259259,1,0,0,3.4605,Pegmatite_rect,7,0,7,0,1,
60ccbffae161aadb1880ad6c,SCR,2024-06-11_13h23.05.748,LearnStrategy,2023.2.3,Win32,59.88023952,6,2,9,,,,,,,,3,09,,,,,,,,,,,,,7,1.381,0,,,,,,0.164814815,-0.393518519,1,0,0,1.3805,Peridotite_rect,8,0,8,0,1,
60ccbffae161aadb1880ad6c,SCR,2024-06-11_13h23.05.748,LearnStrategy,2023.2.3,Win32,59.88023952,6,2,10,,,,,,,,1,11,,,,,,,,,,,,,8,0.925,0,,,,,,0.392592593,-0.388888889,1,0,0,0.925,Pumice_rect,9,0,9,0,1,
60ccbffae161aadb1880ad6c,SCR,2024-06-11_13h23.05.748,LearnStrategy,2023.2.3,Win32,59.88023952,6,2,11,,,,,,,,2,08,,,,,,,,,,,,,2,1.48,1,,,,,,-0.090740741,-0.268518519,1,0,0,1.4803,Basalt_rect,10,0,10,0,1,
60ccbffae161aadb1880ad6c,SCR,2024-06-11_13h23.05.748,LearnStrategy,2023.2.3,Win32,59.88023952,6,2,12,,,,,,,,8,16,,,,,,,,,,,,,7,4.155,0,,,,,,0.124074074,-0.381481481,1,0,0,4.155,Peridotite_rect,11,0,11,0,1,
60ccbffae161aadb1880ad6c,SCR,2024-06-11_13h23.05.748,LearnStrategy,2023.2.3,Win32,59.88023952,6,2,13,,,,,,,,5,02,,,,,,,,,,,,,5,3.246,1,,,,,,-0.365740741,-0.390740741,1,0,0,3.2462,Obsidian_rect,12,0,12,0,1,
60ccbffae161aadb1880ad6c,SCR,2024-06-11_13h23.05.748,LearnStrategy,2023.2.3,Win32,59.88023952,6,2,14,,,,,,,,4,16,,,,,,,,,,,,,2,3.263,0,,,,,,-0.148148148,-0.260185185,1,0,0,3.263,Basalt_rect,13,0,13,0,1,
60ccbffae161aadb1880ad6c,SCR,2024-06-11_13h23.05.748,LearnStrategy,2023.2.3,Win32,59.88023952,6,2,15,,,,,,,,6,11,,,,,,,,,,,,,5,1.346,0,,,,,,-0.417592593,-0.399074074,1,0,0,1.3465,Obsidian_rect,14,0,14,0,1,
60ccbffae161aadb1880ad6c,SCR,2024-06-11_13h23.05.748,LearnStrategy,2023.2.3,Win32,59.88023952,6,2,16,,,,,,,,6,08,,,,,,,,,,,,,5,1.774,0,,,,,,-0.381481481,-0.396296296,1,0,0,1.7743,Obsidian_rect,15,0,15,0,1,
60ccbffae161aadb1880ad6c,SCR,2024-06-11_13h23.05.748,LearnStrategy,2023.2.3,Win32,59.88023952,7,1,1,0.556481481,0.415740741,1,0,0,1.2595,Pumice_13,8,13,6,8,1.259,8,13,-0.099074074,-0.243518519,1,0,0,1.5819,Basalt_rect,2,1.582,0,0,0,0,0,1,,,,,,,,,,,,,
60ccbffae161aadb1880ad6c,SCR,2024-06-11_13h23.05.748,LearnStrategy,2023.2.3,Win32,59.88023952,7,1,2,-0.049074074,-0.098148148,1,0,0,0.7096,Andesite_07,1,07,3,4,0.71,1,07,0.437962963,-0.258333333,1,0,0,0.9902,Gabbro_rect,4,0.99,0,1,0,1,0,1,,,,,,,,,,,,,
60ccbffae161aadb1880ad6c,SCR,2024-06-11_13h23.05.748,LearnStrategy,2023.2.3,Win32,59.88023952,7,1,3,-0.391666667,-0.127777778,1,0,0,0.9827,Peridotite_07,7,07,3,2,0.983,7,07,-0.371296296,-0.264814815,1,0,0,2.1632,Andesite_rect,1,2.163,0,2,0,2,0,1,,,,,,,,,,,,,
60ccbffae161aadb1880ad6c,SCR,2024-06-11_13h23.05.748,LearnStrategy,2023.2.3,Win32,59.88023952,7,1,4,-0.22037037,-0.415740741,1,0,0,0.9968,Gabbro_01,4,01,1,3,0.997,4,01,-0.076851852,-0.394444444,1,0,0,1.0962,Pegmatite_rect,6,1.096,0,3,0,3,0,1,,,,,,,,,,,,,
60ccbffae161aadb1880ad6c,SCR,2024-06-11_13h23.05.748,LearnStrategy,2023.2.3,Win32,59.88023952,7,1,5,0.215740741,0.082407407,1,0,0,1.4076,Pumice_15,8,15,4,6,1.408,8,15,0.387037037,-0.238888889,1,0,0,3.6909,Gabbro_rect,4,3.691,0,4,0,4,0,1,,,,,,,,,,,,,
60ccbffae161aadb1880ad6c,SCR,2024-06-11_13h23.05.748,LearnStrategy,2023.2.3,Win32,59.88023952,7,1,6,0.575,-0.093518519,1,0,0,1.7949,Basalt_14,2,14,3,8,1.795,2,14,-0.378703704,-0.258333333,1,0,0,37.4704,Andesite_rect,1,37.47,0,5,0,5,0,1,,,,,,,,,,,,,
60ccbffae161aadb1880ad6c,SCR,2024-06-11_13h23.05.748,LearnStrategy,2023.2.3,Win32,59.88023952,7,1,7,0.398148148,0.418518519,1,0,0,3.2216,Gabbro_12,4,12,6,7,3.222,4,12,-0.062962963,-0.25462963,1,0,0,6.6851,Basalt_rect,2,6.685,0,6,0,6,0,1,,,,,,,,,,,,,
60ccbffae161aadb1880ad6c,SCR,2024-06-11_13h23.05.748,LearnStrategy,2023.2.3,Win32,59.88023952,7,1,8,-0.090740741,0.403703704,1,0,0,1.3136,Diorite_02,3,02,6,4,1.314,3,02,0.418518519,-0.262037037,1,0,0,2.8344,Gabbro_rect,4,2.834,0,7,0,7,0,1,,,,,,,,,,,,,
60ccbffae161aadb1880ad6c,SCR,2024-06-11_13h23.05.748,LearnStrategy,2023.2.3,Win32,59.88023952,7,1,9,-0.569444444,-0.240740741,1,0,0,0.9569,Pegmatite_16,6,16,2,1,0.957,6,16,0.494444444,-0.25462963,1,0,0,1.0304,Gabbro_rect,4,1.03,0,8,0,8,0,1,,,,,,,,,,,,,
60ccbffae161aadb1880ad6c,SCR,2024-06-11_13h23.05.748,LearnStrategy,2023.2.3,Win32,59.88023952,7,1,10,-0.52962963,0.253703704,1,0,0,1.221,Peridotite_10,7,10,5,1,1.221,7,10,-0.361111111,-0.248148148,1,0,0,1.9928,Andesite_rect,1,1.993,0,9,0,9,0,1,,,,,,,,,,,,,
60ccbffae161aadb1880ad6c,SCR,2024-06-11_13h23.05.748,LearnStrategy,2023.2.3,Win32,59.88023952,7,1,11,-0.534259259,0.112962963,1,0,0,1.0132,Pegmatite_12,6,12,4,1,1.013,6,12,0.403703704,-0.398148148,1,0,0,3.3159,Pumice_rect,8,3.316,0,10,0,10,0,1,,,,,,,,,,,,,
60ccbffae161aadb1880ad6c,SCR,2024-06-11_13h23.05.748,LearnStrategy,2023.2.3,Win32,59.88023952,7,1,12,0.234259259,-0.385185185,1,0,0,1.3842,Obsidian_16,5,16,1,6,1.384,5,16,-0.396296296,-0.386111111,1,0,0,0.9173,Obsidian_rect,5,0.917,1,11,0,11,0,1,,,,,,,,,,,,,
60ccbffae161aadb1880ad6c,SCR,2024-06-11_13h23.05.748,LearnStrategy,2023.2.3,Win32,59.88023952,7,1,13,0.392592593,-0.078703704,1,0,0,1.0341,Diorite_15,3,15,3,7,1.034,3,15,-0.173148148,-0.402777778,1,0,0,2.0727,Pegmatite_rect,6,2.073,0,12,0,12,0,1,,,,,,,,,,,,,
60ccbffae161aadb1880ad6c,SCR,2024-06-11_13h23.05.748,LearnStrategy,2023.2.3,Win32,59.88023952,7,1,14,-0.237037037,-0.112037037,1,0,0,0.8135,Gabbro_14,4,14,3,3,0.813,4,14,-0.063888889,-0.244444444,1,0,0,1.9981,Basalt_rect,2,1.998,0,13,0,13,0,1,,,,,,,,,,,,,
60ccbffae161aadb1880ad6c,SCR,2024-06-11_13h23.05.748,LearnStrategy,2023.2.3,Win32,59.88023952,7,1,15,0.526851852,0.073148148,1,0,0,1.7701,Basalt_02,2,02,4,8,1.77,2,02,-0.10462963,-0.24537037,1,0,0,4.9168,Basalt_rect,2,4.917,1,14,0,14,0,1,,,,,,,,,,,,,
60ccbffae161aadb1880ad6c,SCR,2024-06-11_13h23.05.748,LearnStrategy,2023.2.3,Win32,59.88023952,7,1,16,0.519444444,-0.432407407,1,0,0,1.1297,Andesite_02,1,02,1,8,1.13,1,02,0.428703704,-0.231481481,1,0,0,1.2328,Gabbro_rect,4,1.233,0,15,0,15,0,1,,,,,,,,,,,,,
60ccbffae161aadb1880ad6c,SCR,2024-06-11_13h23.05.748,LearnStrategy,2023.2.3,Win32,59.88023952,7,2,1,,,,,,,,6,07,,,,,,,,,,,,,7,3.055,0,,,,,,0.122222222,-0.406481481,1,0,0,3.0548,Peridotite_rect,0,0,0,0,1,
60ccbffae161aadb1880ad6c,SCR,2024-06-11_13h23.05.748,LearnStrategy,2023.2.3,Win32,59.88023952,7,2,2,,,,,,,,5,02,,,,,,,,,,,,,5,1.218,1,,,,,,-0.422222222,-0.394444444,1,0,0,1.2184,Obsidian_rect,1,0,1,0,1,
60ccbffae161aadb1880ad6c,SCR,2024-06-11_13h23.05.748,LearnStrategy,2023.2.3,Win32,59.88023952,7,2,3,,,,,,,,3,16,,,,,,,,,,,,,4,1.335,0,,,,,,0.353703704,-0.256481481,1,0,0,1.3348,Gabbro_rect,2,0,2,0,1,
60ccbffae161aadb1880ad6c,SCR,2024-06-11_13h23.05.748,LearnStrategy,2023.2.3,Win32,59.88023952,7,2,4,,,,,,,,8,03,,,,,,,,,,,,,2,1.083,0,,,,,,-0.125,-0.240740741,1,0,0,1.0829,Basalt_rect,3,0,3,0,1,
60ccbffae161aadb1880ad6c,SCR,2024-06-11_13h23.05.748,LearnStrategy,2023.2.3,Win32,59.88023952,7,2,5,,,,,,,,1,10,,,,,,,,,,,,,7,1.875,0,,,,,,0.109259259,-0.391666667,1,0,0,1.8752,Peridotite_rect,4,0,4,0,1,
60ccbffae161aadb1880ad6c,SCR,2024-06-11_13h23.05.748,LearnStrategy,2023.2.3,Win32,59.88023952,7,2,6,,,,,,,,5,07,,,,,,,,,,,,,5,1.101,1,,,,,,-0.364814815,-0.387962963,1,0,0,1.1012,Obsidian_rect,5,0,5,0,1,
60ccbffae161aadb1880ad6c,SCR,2024-06-11_13h23.05.748,LearnStrategy,2023.2.3,Win32,59.88023952,7,2,7,,,,,,,,6,11,,,,,,,,,,,,,4,1.405,0,,,,,,0.422222222,-0.25,1,0,0,1.4047,Gabbro_rect,6,0,6,0,1,
60ccbffae161aadb1880ad6c,SCR,2024-06-11_13h23.05.748,LearnStrategy,2023.2.3,Win32,59.88023952,7,2,8,,,,,,,,2,09,,,,,,,,,,,,,2,1.494,1,,,,,,-0.126851852,-0.257407407,1,0,0,1.4941,Basalt_rect,7,0,7,0,1,
60ccbffae161aadb1880ad6c,SCR,2024-06-11_13h23.05.748,LearnStrategy,2023.2.3,Win32,59.88023952,7,2,9,,,,,,,,7,14,,,,,,,,,,,,,8,1.146,0,,,,,,0.330555556,-0.39537037,1,0,0,1.1457,Pumice_rect,8,0,8,0,1,
60ccbffae161aadb1880ad6c,SCR,2024-06-11_13h23.05.748,LearnStrategy,2023.2.3,Win32,59.88023952,7,2,10,,,,,,,,4,11,,,,,,,,,,,,,1,1.035,0,,,,,,-0.374074074,-0.250925926,1,0,0,1.0353,Andesite_rect,9,0,9,0,1,
60ccbffae161aadb1880ad6c,SCR,2024-06-11_13h23.05.748,LearnStrategy,2023.2.3,Win32,59.88023952,7,2,11,,,,,,,,8,05,,,,,,,,,,,,,7,3.075,0,,,,,,0.111111111,-0.381481481,1,0,0,3.0749,Peridotite_rect,10,0,10,0,1,
60ccbffae161aadb1880ad6c,SCR,2024-06-11_13h23.05.748,LearnStrategy,2023.2.3,Win32,59.88023952,7,2,12,,,,,,,,7,02,,,,,,,,,,,,,6,1.138,0,,,,,,-0.102777778,-0.387037037,1,0,0,1.1379,Pegmatite_rect,11,0,11,0,1,
60ccbffae161aadb1880ad6c,SCR,2024-06-11_13h23.05.748,LearnStrategy,2023.2.3,Win32,59.88023952,7,2,13,,,,,,,,2,01,,,,,,,,,,,,,2,1.149,1,,,,,,-0.119444444,-0.266666667,1,0,0,1.149,Basalt_rect,12,0,12,0,1,
60ccbffae161aadb1880ad6c,SCR,2024-06-11_13h23.05.748,LearnStrategy,2023.2.3,Win32,59.88023952,7,2,14,,,,,,,,3,09,,,,,,,,,,,,,4,1.171,0,,,,,,0.436111111,-0.262962963,1,0,0,1.1707,Gabbro_rect,13,0,13,0,1,
60ccbffae161aadb1880ad6c,SCR,2024-06-11_13h23.05.748,LearnStrategy,2023.2.3,Win32,59.88023952,7,2,15,,,,,,,,1,14,,,,,,,,,,,,,3,1.227,0,,,,,,0.175925926,-0.262037037,1,0,0,1.2274,Diorite_rect,14,0,14,0,1,
60ccbffae161aadb1880ad6c,SCR,2024-06-11_13h23.05.748,LearnStrategy,2023.2.3,Win32,59.88023952,7,2,16,,,,,,,,4,16,,,,,,,,,,,,,3,0.828,0,,,,,,0.175,-0.260185185,1,0,0,0.8277,Diorite_rect,15,0,15,0,1,
60ccbffae161aadb1880ad6c,SCR,2024-06-11_13h23.05.748,LearnStrategy,2023.2.3,Win32,59.88023952,8,1,1,-0.265740741,-0.134259259,1,0,0,0.8751,Gabbro_14,4,14,3,3,0.875,4,14,-0.05462963,-0.25,1,0,0,1.9217,Basalt_rect,2,1.922,0,0,0,0,0,1,,,,,,,,,,,,,
60ccbffae161aadb1880ad6c,SCR,2024-06-11_13h23.05.748,LearnStrategy,2023.2.3,Win32,59.88023952,8,1,2,0.531481481,-0.099074074,1,0,0,1.0089,Basalt_14,2,14,3,8,1.009,2,14,0.17962963,-0.256481481,1,0,0,1.9767,Diorite_rect,3,1.977,0,1,0,1,0,1,,,,,,,,,,,,,
60ccbffae161aadb1880ad6c,SCR,2024-06-11_13h23.05.748,LearnStrategy,2023.2.3,Win32,59.88023952,8,1,3,0.072222222,0.09537037,1,0,0,1.1521,Obsidian_09,5,09,4,5,1.152,6,05,-0.398148148,-0.419444444,1,0,0,1.7153,Obsidian_rect,5,1.715,1,2,0,2,0,1,,,,,,,,,,,,,
60ccbffae161aadb1880ad6c,SCR,2024-06-11_13h23.05.748,LearnStrategy,2023.2.3,Win32,59.88023952,8,1,4,-0.082407407,-0.407407407,1,0,0,1.3914,Andesite_06,1,06,1,4,1.391,1,06,-0.113888889,-0.396296296,1,0,0,0.9671,Pegmatite_rect,6,0.967,0,3,0,3,0,1,,,,,,,,,,,,,
60ccbffae161aadb1880ad6c,SCR,2024-06-11_13h23.05.748,LearnStrategy,2023.2.3,Win32,59.88023952,8,1,5,-0.403703704,-0.114814815,1,0,0,1.4063,Peridotite_07,7,07,3,2,1.406,7,07,-0.12037037,-0.248148148,1,0,0,3.8519,Basalt_rect,2,3.852,0,4,0,4,0,1,,,,,,,,,,,,,
60ccbffae161aadb1880ad6c,SCR,2024-06-11_13h23.05.748,LearnStrategy,2023.2.3,Win32,59.88023952,8,1,6,-0.575925926,-0.122222222,1,0,0,1.0466,Basalt_06,2,06,3,1,1.047,2,06,-0.124074074,-0.251851852,1,0,0,1.3482,Basalt_rect,2,1.348,1,5,0,5,0,1,,,,,,,,,,,,,
60ccbffae161aadb1880ad6c,SCR,2024-06-11_13h23.05.748,LearnStrategy,2023.2.3,Win32,59.88023952,8,1,7,-0.553703704,0.07962963,1,0,0,1.0348,Pegmatite_12,6,12,4,1,1.035,6,12,0.338888889,-0.394444444,1,0,0,1.3731,Pumice_rect,8,1.373,0,6,0,6,0,1,,,,,,,,,,,,,
60ccbffae161aadb1880ad6c,SCR,2024-06-11_13h23.05.748,LearnStrategy,2023.2.3,Win32,59.88023952,8,1,8,-0.574074074,0.400925926,1,0,0,1.1952,Peridotite_15,7,15,6,1,1.195,7,15,-0.340740741,-0.260185185,1,0,0,1.0302,Andesite_rect,1,1.03,0,7,0,7,0,1,,,,,,,,,,,,,
60ccbffae161aadb1880ad6c,SCR,2024-06-11_13h23.05.748,LearnStrategy,2023.2.3,Win32,59.88023952,8,1,9,0.524074074,-0.377777778,1,0,0,1.0044,Andesite_02,1,02,1,8,1.004,1,02,-0.107407407,-0.257407407,1,0,0,0.8153,Basalt_rect,2,0.815,0,8,0,8,0,1,,,,,,,,,,,,,
60ccbffae161aadb1880ad6c,SCR,2024-06-11_13h23.05.748,LearnStrategy,2023.2.3,Win32,59.88023952,8,1,10,-0.24537037,-0.112962963,1,0,0,1.2694,Gabbro_14,4,14,3,3,1.269,4,14,-0.101851852,-0.394444444,1,0,0,0.92,Pegmatite_rect,6,0.92,0,9,0,9,0,1,,,,,,,,,,,,,
60ccbffae161aadb1880ad6c,SCR,2024-06-11_13h23.05.748,LearnStrategy,2023.2.3,Win32,59.88023952,8,1,11,-0.387037037,0.232407407,1,0,0,1.0669,Pumice_04,8,04,5,2,1.067,8,04,0.157407407,-0.402777778,1,0,0,1.0941,Peridotite_rect,7,1.094,0,10,0,10,0,1,,,,,,,,,,,,,
60ccbffae161aadb1880ad6c,SCR,2024-06-11_13h23.05.748,LearnStrategy,2023.2.3,Win32,59.88023952,8,1,12,-0.242592593,-0.094444444,1,0,0,0.6689,Gabbro_14,4,14,3,3,0.669,4,14,-0.119444444,-0.244444444,1,0,0,0.9066,Basalt_rect,2,0.907,0,11,0,11,0,1,,,,,,,,,,,,,
60ccbffae161aadb1880ad6c,SCR,2024-06-11_13h23.05.748,LearnStrategy,2023.2.3,Win32,59.88023952,8,1,13,0.066666667,-0.260185185,1,0,0,0.6971,Pumice_08,8,08,2,5,0.697,8,08,0.382407407,-0.236111111,1,0,0,0.7658,Gabbro_rect,4,0.766,0,12,0,12,0,1,,,,,,,,,,,,,
60ccbffae161aadb1880ad6c,SCR,2024-06-11_13h23.05.748,LearnStrategy,2023.2.3,Win32,59.88023952,8,1,14,-0.058333333,0.438888889,1,0,0,1.1161,Diorite_02,3,02,6,4,1.116,3,02,0.408333333,-0.241666667,1,0,0,0.8477,Gabbro_rect,4,0.848,0,13,0,13,0,1,,,,,,,,,,,,,
60ccbffae161aadb1880ad6c,SCR,2024-06-11_13h23.05.748,LearnStrategy,2023.2.3,Win32,59.88023952,8,1,15,0.389814815,-0.099074074,1,0,0,1.1434,Diorite_15,3,15,3,7,1.143,3,15,-0.076851852,-0.271296296,1,0,0,1.0775,Basalt_rect,2,1.078,0,14,0,14,0,1,,,,,,,,,,,,,
60ccbffae161aadb1880ad6c,SCR,2024-06-11_13h23.05.748,LearnStrategy,2023.2.3,Win32,59.88023952,8,1,16,-0.030555556,-0.12037037,1,0,0,0.6891,Andesite_07,1,07,3,4,0.689,1,07,-0.082407407,-0.257407407,1,0,0,0.6861,Basalt_rect,2,0.686,0,15,0,15,0,1,,,,,,,,,,,,,
60ccbffae161aadb1880ad6c,SCR,2024-06-11_13h23.05.748,LearnStrategy,2023.2.3,Win32,59.88023952,8,2,1,,,,,,,,1,05,,,,,,,,,,,,,3,1.935,0,,,,,,0.09537037,-0.250925926,1,0,0,1.9352,Diorite_rect,0,0,0,0,1,
60ccbffae161aadb1880ad6c,SCR,2024-06-11_13h23.05.748,LearnStrategy,2023.2.3,Win32,59.88023952,8,2,2,,,,,,,,5,05,,,,,,,,,,,,,5,1.124,1,,,,,,-0.373148148,-0.387962963,1,0,0,1.1242,Obsidian_rect,1,0,1,0,1,
60ccbffae161aadb1880ad6c,SCR,2024-06-11_13h23.05.748,LearnStrategy,2023.2.3,Win32,59.88023952,8,2,3,,,,,,,,4,15,,,,,,,,,,,,,1,3.147,0,,,,,,-0.372222222,-0.249074074,1,0,0,3.1469,Andesite_rect,2,0,2,0,1,
60ccbffae161aadb1880ad6c,SCR,2024-06-11_13h23.05.748,LearnStrategy,2023.2.3,Win32,59.88023952,8,2,4,,,,,,,,2,08,,,,,,,,,,,,,2,1.205,1,,,,,,-0.150925926,-0.25,1,0,0,1.2054,Basalt_rect,3,0,3,0,1,
60ccbffae161aadb1880ad6c,SCR,2024-06-11_13h23.05.748,LearnStrategy,2023.2.3,Win32,59.88023952,8,2,5,,,,,,,,1,01,,,,,,,,,,,,,3,1.439,0,,,,,,0.112962963,-0.261111111,1,0,0,1.4395,Diorite_rect,4,0,4,0,1,
60ccbffae161aadb1880ad6c,SCR,2024-06-11_13h23.05.748,LearnStrategy,2023.2.3,Win32,59.88023952,8,2,6,,,,,,,,4,13,,,,,,,,,,,,,7,1.512,0,,,,,,0.188888889,-0.418518519,1,0,0,1.5123,Peridotite_rect,5,0,5,0,1,
60ccbffae161aadb1880ad6c,SCR,2024-06-11_13h23.05.748,LearnStrategy,2023.2.3,Win32,59.88023952,8,2,7,,,,,,,,2,04,,,,,,,,,,,,,2,1.616,1,,,,,,-0.086111111,-0.258333333,1,0,0,1.6161,Basalt_rect,6,0,6,0,1,
60ccbffae161aadb1880ad6c,SCR,2024-06-11_13h23.05.748,LearnStrategy,2023.2.3,Win32,59.88023952,8,2,8,,,,,,,,6,08,,,,,,,,,,,,,4,1.39,0,,,,,,0.363888889,-0.242592593,1,0,0,1.3898,Gabbro_rect,7,0,7,0,1,
60ccbffae161aadb1880ad6c,SCR,2024-06-11_13h23.05.748,LearnStrategy,2023.2.3,Win32,59.88023952,8,2,9,,,,,,,,6,09,,,,,,,,,,,,,5,1.299,0,,,,,,-0.412037037,-0.408333333,1,0,0,1.2985,Obsidian_rect,8,0,8,0,1,
60ccbffae161aadb1880ad6c,SCR,2024-06-11_13h23.05.748,LearnStrategy,2023.2.3,Win32,59.88023952,8,2,10,,,,,,,,8,09,,,,,,,,,,,,,3,9.116,0,,,,,,0.084259259,-0.266666667,1,0,0,9.1157,Diorite_rect,9,0,9,0,1,
60ccbffae161aadb1880ad6c,SCR,2024-06-11_13h23.05.748,LearnStrategy,2023.2.3,Win32,59.88023952,8,2,11,,,,,,,,5,10,,,,,,,,,,,,,5,1.188,1,,,,,,-0.375,-0.389814815,1,0,0,1.1883,Obsidian_rect,10,0,10,0,1,
60ccbffae161aadb1880ad6c,SCR,2024-06-11_13h23.05.748,LearnStrategy,2023.2.3,Win32,59.88023952,8,2,12,,,,,,,,3,12,,,,,,,,,,,,,2,1.332,0,,,,,,-0.132407407,-0.253703704,1,0,0,1.3317,Basalt_rect,11,0,11,0,1,
60ccbffae161aadb1880ad6c,SCR,2024-06-11_13h23.05.748,LearnStrategy,2023.2.3,Win32,59.88023952,8,2,13,,,,,,,,3,10,,,,,,,,,,,,,7,1.31,0,,,,,,0.136111111,-0.400925926,1,0,0,1.3101,Peridotite_rect,12,0,12,0,1,
60ccbffae161aadb1880ad6c,SCR,2024-06-11_13h23.05.748,LearnStrategy,2023.2.3,Win32,59.88023952,8,2,14,,,,,,,,8,16,,,,,,,,,,,,,2,1.752,0,,,,,,-0.101851852,-0.256481481,1,0,0,1.752,Basalt_rect,13,0,13,0,1,
60ccbffae161aadb1880ad6c,SCR,2024-06-11_13h23.05.748,LearnStrategy,2023.2.3,Win32,59.88023952,8,2,15,,,,,,,,7,06,,,,,,,,,,,,,4,1.346,0,,,,,,0.410185185,-0.232407407,1,0,0,1.3462,Gabbro_rect,14,0,14,0,1,
60ccbffae161aadb1880ad6c,SCR,2024-06-11_13h23.05.748,LearnStrategy,2023.2.3,Win32,59.88023952,8,2,16,,,,,,,,7,08,,,,,,,,,,,,,4,1.43,0,,,,,,0.422222222,-0.232407407,1,0,0,1.4302,Gabbro_rect,15,0,15,0,1,
60ccbffae161aadb1880ad6c,SCR,2024-06-11_13h23.05.748,LearnStrategy,2023.2.3,Win32,59.88023952,9,1,1,0.069444444,-0.256481481,1,0,0,1.0458,Pumice_08,8,08,2,5,1.046,8,08,-0.078703704,-0.25462963,1,0,0,1.2075,Basalt_rect,2,1.207,0,0,0,0,0,1,,,,,,,,,,,,,
60ccbffae161aadb1880ad6c,SCR,2024-06-11_13h23.05.748,LearnStrategy,2023.2.3,Win32,59.88023952,9,1,2,0.367592593,0.090740741,1,0,0,1.1581,Basalt_12,2,12,4,7,1.158,2,12,-0.085185185,-0.268518519,1,0,0,1.0408,Basalt_rect,2,1.041,1,1,0,1,0,1,,,,,,,,,,,,,
60ccbffae161aadb1880ad6c,SCR,2024-06-11_13h23.05.748,LearnStrategy,2023.2.3,Win32,59.88023952,9,1,3,0.058333333,-0.42037037,1,0,0,1.1438,Diorite_08,3,08,1,5,1.144,3,08,0.164814815,-0.421296296,1,0,0,1.426,Peridotite_rect,7,1.426,0,2,0,2,0,1,,,,,,,,,,,,,
60ccbffae161aadb1880ad6c,SCR,2024-06-11_13h23.05.748,LearnStrategy,2023.2.3,Win32,59.88023952,9,1,4,-0.37037037,-0.25462963,1,0,0,1.0096,Pegmatite_10,6,10,2,2,1.01,6,10,0.090740741,-0.4,1,0,0,2.3937,Peridotite_rect,7,2.394,0,3,0,3,0,1,,,,,,,,,,,,,
60ccbffae161aadb1880ad6c,SCR,2024-06-11_13h23.05.748,LearnStrategy,2023.2.3,Win32,59.88023952,9,1,5,0.239814815,-0.275,1,0,0,1.2427,Andesite_03,1,03,2,6,1.243,1,03,-0.121296296,-0.271296296,1,0,0,1.1988,Basalt_rect,2,1.199,0,4,0,4,0,1,,,,,,,,,,,,,
60ccbffae161aadb1880ad6c,SCR,2024-06-11_13h23.05.748,LearnStrategy,2023.2.3,Win32,59.88023952,9,1,6,-0.062962963,-0.102777778,1,0,0,1.001,Andesite_07,1,07,3,4,1.001,1,07,0.398148148,-0.247222222,1,0,0,1.9575,Gabbro_rect,4,1.957,0,5,0,5,0,1,,,,,,,,,,,,,
60ccbffae161aadb1880ad6c,SCR,2024-06-11_13h23.05.748,LearnStrategy,2023.2.3,Win32,59.88023952,9,1,7,-0.047222222,0.233333333,1,0,0,1.1619,Peridotite_05,7,05,5,4,1.162,7,05,-0.103703704,-0.27037037,1,0,0,2.6687,Basalt_rect,2,2.669,0,6,0,6,0,1,,,,,,,,,,,,,
60ccbffae161aadb1880ad6c,SCR,2024-06-11_13h23.05.748,LearnStrategy,2023.2.3,Win32,59.88023952,9,1,8,-0.378703704,-0.421296296,1,0,0,1.2179,Gabbro_05,4,05,1,2,1.218,4,05,0.334259259,-0.403703704,1,0,0,0.9749,Pumice_rect,8,0.975,0,7,0,7,0,1,,,,,,,,,,,,,
60ccbffae161aadb1880ad6c,SCR,2024-06-11_13h23.05.748,LearnStrategy,2023.2.3,Win32,59.88023952,9,1,9,-0.093518519,-0.400925926,1,0,0,0.9862,Andesite_06,1,06,1,4,0.986,1,06,-0.164814815,-0.258333333,1,0,0,0.5905,Basalt_rect,2,0.591,0,8,0,8,0,1,,,,,,,,,,,,,
60ccbffae161aadb1880ad6c,SCR,2024-06-11_13h23.05.748,LearnStrategy,2023.2.3,Win32,59.88023952,9,1,10,-0.524074074,-0.25462963,1,0,0,1.145,Pegmatite_16,6,16,2,1,1.145,6,16,0.112962963,-0.380555556,1,0,0,1.9171,Peridotite_rect,7,1.917,0,9,0,9,0,1,,,,,,,,,,,,,
60ccbffae161aadb1880ad6c,SCR,2024-06-11_13h23.05.748,LearnStrategy,2023.2.3,Win32,59.88023952,9,1,11,-0.096296296,0.089814815,1,0,0,0.8274,Gabbro_08,4,08,4,4,0.827,4,08,-0.153703704,-0.263888889,1,0,0,0.9769,Basalt_rect,2,0.977,0,10,0,10,0,1,,,,,,,,,,,,,
60ccbffae161aadb1880ad6c,SCR,2024-06-11_13h23.05.748,LearnStrategy,2023.2.3,Win32,59.88023952,9,1,12,-0.37962963,0.25,1,0,0,2.1216,Pumice_04,8,04,5,2,2.122,7,13,-0.115740741,-0.239814815,1,0,0,0.9268,Basalt_rect,2,0.927,0,11,0,11,0,1,,,,,,,,,,,,,
60ccbffae161aadb1880ad6c,SCR,2024-06-11_13h23.05.748,LearnStrategy,2023.2.3,Win32,59.88023952,9,1,13,-0.394444444,0.237037037,1,0,0,0.7405,Pumice_04,8,04,5,2,0.741,3,14,0.369444444,-0.407407407,1,0,0,1.6111,Pumice_rect,8,1.611,1,12,0,12,0,1,,,,,,,,,,,,,
60ccbffae161aadb1880ad6c,SCR,2024-06-11_13h23.05.748,LearnStrategy,2023.2.3,Win32,59.88023952,9,1,14,0.261111111,-0.107407407,1,0,0,1.2744,Diorite_14,3,14,3,6,1.274,3,14,-0.092592593,-0.27037037,1,0,0,0.8885,Basalt_rect,2,0.889,0,13,0,13,0,1,,,,,,,,,,,,,
60ccbffae161aadb1880ad6c,SCR,2024-06-11_13h23.05.748,LearnStrategy,2023.2.3,Win32,59.88023952,9,1,15,0.07037037,0.356481481,1,0,0,1.2002,Gabbro_10,4,10,6,5,1.2,4,10,0.390740741,-0.238888889,1,0,0,0.9065,Gabbro_rect,4,0.907,1,14,0,14,0,1,,,,,,,,,,,,,
60ccbffae161aadb1880ad6c,SCR,2024-06-11_13h23.05.748,LearnStrategy,2023.2.3,Win32,59.88023952,9,1,16,-0.346296296,0.243518519,1,0,0,1.2294,Pumice_04,8,04,5,2,1.229,8,04,-0.114814815,-0.247222222,1,0,0,1.1024,Basalt_rect,2,1.102,0,15,0,15,0,1,,,,,,,,,,,,,
60ccbffae161aadb1880ad6c,SCR,2024-06-11_13h23.05.748,LearnStrategy,2023.2.3,Win32,59.88023952,9,2,1,,,,,,,,7,12,,,,,,,,,,,,,7,2.045,1,,,,,,0.14537037,-0.416666667,1,0,0,2.0452,Peridotite_rect,0,0,0,0,1,
60ccbffae161aadb1880ad6c,SCR,2024-06-11_13h23.05.748,LearnStrategy,2023.2.3,Win32,59.88023952,9,2,2,,,,,,,,5,08,,,,,,,,,,,,,5,1.109,1,,,,,,-0.367592593,-0.394444444,1,0,0,1.1092,Obsidian_rect,1,0,1,0,1,
60ccbffae161aadb1880ad6c,SCR,2024-06-11_13h23.05.748,LearnStrategy,2023.2.3,Win32,59.88023952,9,2,3,,,,,,,,1,11,,,,,,,,,,,,,2,1.733,0,,,,,,-0.17962963,-0.256481481,1,0,0,1.7327,Basalt_rect,2,0,2,0,1,
60ccbffae161aadb1880ad6c,SCR,2024-06-11_13h23.05.748,LearnStrategy,2023.2.3,Win32,59.88023952,9,2,4,,,,,,,,4,09,,,,,,,,,,,,,6,2.05,0,,,,,,-0.087037037,-0.407407407,1,0,0,2.05,Pegmatite_rect,3,0,3,0,1,
60ccbffae161aadb1880ad6c,SCR,2024-06-11_13h23.05.748,LearnStrategy,2023.2.3,Win32,59.88023952,9,2,5,,,,,,,,8,14,,,,,,,,,,,,,2,1.544,0,,,,,,-0.141666667,-0.253703704,1,0,0,1.5441,Basalt_rect,4,0,4,0,1,
60ccbffae161aadb1880ad6c,SCR,2024-06-11_13h23.05.748,LearnStrategy,2023.2.3,Win32,59.88023952,9,2,6,,,,,,,,7,04,,,,,,,,,,,,,1,2.975,0,,,,,,-0.42037037,-0.263888889,1,0,0,2.9748,Andesite_rect,5,0,5,0,1,
60ccbffae161aadb1880ad6c,SCR,2024-06-11_13h23.05.748,LearnStrategy,2023.2.3,Win32,59.88023952,9,2,7,,,,,,,,5,12,,,,,,,,,,,,,5,1.048,1,,,,,,-0.378703704,-0.396296296,1,0,0,1.0482,Obsidian_rect,6,0,6,0,1,
60ccbffae161aadb1880ad6c,SCR,2024-06-11_13h23.05.748,LearnStrategy,2023.2.3,Win32,59.88023952,9,2,8,,,,,,,,3,07,,,,,,,,,,,,,6,1.529,0,,,,,,-0.138888889,-0.401851852,1,0,0,1.5291,Pegmatite_rect,7,0,7,0,1,
60ccbffae161aadb1880ad6c,SCR,2024-06-11_13h23.05.748,LearnStrategy,2023.2.3,Win32,59.88023952,9,2,9,,,,,,,,6,06,,,,,,,,,,,,,4,1.615,0,,,,,,0.416666667,-0.24537037,1,0,0,1.6154,Gabbro_rect,8,0,8,0,1,
60ccbffae161aadb1880ad6c,SCR,2024-06-11_13h23.05.748,LearnStrategy,2023.2.3,Win32,59.88023952,9,2,10,,,,,,,,2,16,,,,,,,,,,,,,2,1.218,1,,,,,,-0.089814815,-0.258333333,1,0,0,1.2183,Basalt_rect,9,0,9,0,1,
60ccbffae161aadb1880ad6c,SCR,2024-06-11_13h23.05.748,LearnStrategy,2023.2.3,Win32,59.88023952,9,2,11,,,,,,,,4,03,,,,,,,,,,,,,8,2.696,0,,,,,,0.380555556,-0.390740741,1,0,0,2.6962,Pumice_rect,10,0,10,0,1,
60ccbffae161aadb1880ad6c,SCR,2024-06-11_13h23.05.748,LearnStrategy,2023.2.3,Win32,59.88023952,9,2,12,,,,,,,,2,05,,,,,,,,,,,,,2,1.274,1,,,,,,-0.062962963,-0.258333333,1,0,0,1.2745,Basalt_rect,11,0,11,0,1,
60ccbffae161aadb1880ad6c,SCR,2024-06-11_13h23.05.748,LearnStrategy,2023.2.3,Win32,59.88023952,9,2,13,,,,,,,,1,09,,,,,,,,,,,,,6,2.229,0,,,,,,-0.126851852,-0.402777778,1,0,0,2.229,Pegmatite_rect,12,0,12,0,1,
60ccbffae161aadb1880ad6c,SCR,2024-06-11_13h23.05.748,LearnStrategy,2023.2.3,Win32,59.88023952,9,2,14,,,,,,,,6,13,,,,,,,,,,,,,3,1.214,0,,,,,,0.112962963,-0.266666667,1,0,0,1.2138,Diorite_rect,13,0,13,0,1,
60ccbffae161aadb1880ad6c,SCR,2024-06-11_13h23.05.748,LearnStrategy,2023.2.3,Win32,59.88023952,9,2,15,,,,,,,,3,11,,,,,,,,,,,,,3,1.22,1,,,,,,0.093518519,-0.263888889,1,0,0,1.2196,Diorite_rect,14,0,14,0,1,
60ccbffae161aadb1880ad6c,SCR,2024-06-11_13h23.05.748,LearnStrategy,2023.2.3,Win32,59.88023952,9,2,16,,,,,,,,8,06,,,,,,,,,,,,,2,1.043,0,,,,,,-0.119444444,-0.242592593,1,0,0,1.043,Basalt_rect,15,0,15,0,1,
60ccbffae161aadb1880ad6c,SCR,2024-06-11_13h23.05.748,LearnStrategy,2023.2.3,Win32,59.88023952,,,,,,,,,,,,,,,,,,,,,,,,,,,,,,,,,,,,,,,,,,,,,0
60ccbffae161aadb1880ad6c,SCR,2024-06-11_13h23.05.748,LearnStrategy,2023.2.3,Win32,59.88023952,,,,,,,,,,,,,,,,,,,,,,,,,,,,,,,,,,,,,,,,,,,,,
60ccbffae161aadb1880ad6c,SCR,2024-06-11_13h23.05.748,LearnStrategy,2023.2.3,Win32,59.88023952,,,,,,,,,,,5,06,1,1,,,,,,,,,,,,,,,,,,,,,,,,,,,,,,,
60ccbffae161aadb1880ad6c,SCR,2024-06-11_13h23.05.748,LearnStrategy,2023.2.3,Win32,59.88023952,,,,,,,,,,,4,05,1,2,,,,,,,,,,,,,,,,,,,,,,,,,,,,,,,
60ccbffae161aadb1880ad6c,SCR,2024-06-11_13h23.05.748,LearnStrategy,2023.2.3,Win32,59.88023952,,,,,,,,,,,4,01,1,3,,,,,,,,,,,,,,,,,,,,,,,,,,,,,,,
60ccbffae161aadb1880ad6c,SCR,2024-06-11_13h23.05.748,LearnStrategy,2023.2.3,Win32,59.88023952,,,,,,,,,,,1,06,1,4,,,,,,,,,,,,,,,,,,,,,,,,,,,,,,,
60ccbffae161aadb1880ad6c,SCR,2024-06-11_13h23.05.748,LearnStrategy,2023.2.3,Win32,59.88023952,,,,,,,,,,,3,08,1,5,,,,,,,,,,,,,,,,,,,,,,,,,,,,,,,
60ccbffae161aadb1880ad6c,SCR,2024-06-11_13h23.05.748,LearnStrategy,2023.2.3,Win32,59.88023952,,,,,,,,,,,5,16,1,6,,,,,,,,,,,,,,,,,,,,,,,,,,,,,,,
60ccbffae161aadb1880ad6c,SCR,2024-06-11_13h23.05.748,LearnStrategy,2023.2.3,Win32,59.88023952,,,,,,,,,,,2,10,1,7,,,,,,,,,,,,,,,,,,,,,,,,,,,,,,,
60ccbffae161aadb1880ad6c,SCR,2024-06-11_13h23.05.748,LearnStrategy,2023.2.3,Win32,59.88023952,,,,,,,,,,,1,02,1,8,,,,,,,,,,,,,,,,,,,,,,,,,,,,,,,
60ccbffae161aadb1880ad6c,SCR,2024-06-11_13h23.05.748,LearnStrategy,2023.2.3,Win32,59.88023952,,,,,,,,,,,6,16,2,1,,,,,,,,,,,,,,,,,,,,,,,,,,,,,,,
60ccbffae161aadb1880ad6c,SCR,2024-06-11_13h23.05.748,LearnStrategy,2023.2.3,Win32,59.88023952,,,,,,,,,,,6,10,2,2,,,,,,,,,,,,,,,,,,,,,,,,,,,,,,,
60ccbffae161aadb1880ad6c,SCR,2024-06-11_13h23.05.748,LearnStrategy,2023.2.3,Win32,59.88023952,,,,,,,,,,,1,16,2,3,,,,,,,,,,,,,,,,,,,,,,,,,,,,,,,
60ccbffae161aadb1880ad6c,SCR,2024-06-11_13h23.05.748,LearnStrategy,2023.2.3,Win32,59.88023952,,,,,,,,,,,3,13,2,4,,,,,,,,,,,,,,,,,,,,,,,,,,,,,,,
60ccbffae161aadb1880ad6c,SCR,2024-06-11_13h23.05.748,LearnStrategy,2023.2.3,Win32,59.88023952,,,,,,,,,,,8,08,2,5,,,,,,,,,,,,,,,,,,,,,,,,,,,,,,,
60ccbffae161aadb1880ad6c,SCR,2024-06-11_13h23.05.748,LearnStrategy,2023.2.3,Win32,59.88023952,,,,,,,,,,,1,03,2,6,,,,,,,,,,,,,,,,,,,,,,,,,,,,,,,
60ccbffae161aadb1880ad6c,SCR,2024-06-11_13h23.05.748,LearnStrategy,2023.2.3,Win32,59.88023952,,,,,,,,,,,2,11,2,7,,,,,,,,,,,,,,,,,,,,,,,,,,,,,,,
60ccbffae161aadb1880ad6c,SCR,2024-06-11_13h23.05.748,LearnStrategy,2023.2.3,Win32,59.88023952,,,,,,,,,,,6,03,2,8,,,,,,,,,,,,,,,,,,,,,,,,,,,,,,,
60ccbffae161aadb1880ad6c,SCR,2024-06-11_13h23.05.748,LearnStrategy,2023.2.3,Win32,59.88023952,,,,,,,,,,,2,06,3,1,,,,,,,,,,,,,,,,,,,,,,,,,,,,,,,
60ccbffae161aadb1880ad6c,SCR,2024-06-11_13h23.05.748,LearnStrategy,2023.2.3,Win32,59.88023952,,,,,,,,,,,7,07,3,2,,,,,,,,,,,,,,,,,,,,,,,,,,,,,,,
60ccbffae161aadb1880ad6c,SCR,2024-06-11_13h23.05.748,LearnStrategy,2023.2.3,Win32,59.88023952,,,,,,,,,,,4,14,3,3,,,,,,,,,,,,,,,,,,,,,,,,,,,,,,,
60ccbffae161aadb1880ad6c,SCR,2024-06-11_13h23.05.748,LearnStrategy,2023.2.3,Win32,59.88023952,,,,,,,,,,,1,07,3,4,,,,,,,,,,,,,,,,,,,,,,,,,,,,,,,
60ccbffae161aadb1880ad6c,SCR,2024-06-11_13h23.05.748,LearnStrategy,2023.2.3,Win32,59.88023952,,,,,,,,,,,8,10,3,5,,,,,,,,,,,,,,,,,,,,,,,,,,,,,,,
60ccbffae161aadb1880ad6c,SCR,2024-06-11_13h23.05.748,LearnStrategy,2023.2.3,Win32,59.88023952,,,,,,,,,,,3,14,3,6,,,,,,,,,,,,,,,,,,,,,,,,,,,,,,,
60ccbffae161aadb1880ad6c,SCR,2024-06-11_13h23.05.748,LearnStrategy,2023.2.3,Win32,59.88023952,,,,,,,,,,,3,15,3,7,,,,,,,,,,,,,,,,,,,,,,,,,,,,,,,
60ccbffae161aadb1880ad6c,SCR,2024-06-11_13h23.05.748,LearnStrategy,2023.2.3,Win32,59.88023952,,,,,,,,,,,2,14,3,8,,,,,,,,,,,,,,,,,,,,,,,,,,,,,,,
60ccbffae161aadb1880ad6c,SCR,2024-06-11_13h23.05.748,LearnStrategy,2023.2.3,Win32,59.88023952,,,,,,,,,,,6,12,4,1,,,,,,,,,,,,,,,,,,,,,,,,,,,,,,,
60ccbffae161aadb1880ad6c,SCR,2024-06-11_13h23.05.748,LearnStrategy,2023.2.3,Win32,59.88023952,,,,,,,,,,,7,13,4,2,,,,,,,,,,,,,,,,,,,,,,,,,,,,,,,
60ccbffae161aadb1880ad6c,SCR,2024-06-11_13h23.05.748,LearnStrategy,2023.2.3,Win32,59.88023952,,,,,,,,,,,7,16,4,3,,,,,,,,,,,,,,,,,,,,,,,,,,,,,,,
60ccbffae161aadb1880ad6c,SCR,2024-06-11_13h23.05.748,LearnStrategy,2023.2.3,Win32,59.88023952,,,,,,,,,,,4,08,4,4,,,,,,,,,,,,,,,,,,,,,,,,,,,,,,,
60ccbffae161aadb1880ad6c,SCR,2024-06-11_13h23.05.748,LearnStrategy,2023.2.3,Win32,59.88023952,,,,,,,,,,,5,09,4,5,,,,,,,,,,,,,,,,,,,,,,,,,,,,,,,
60ccbffae161aadb1880ad6c,SCR,2024-06-11_13h23.05.748,LearnStrategy,2023.2.3,Win32,59.88023952,,,,,,,,,,,8,15,4,6,,,,,,,,,,,,,,,,,,,,,,,,,,,,,,,
60ccbffae161aadb1880ad6c,SCR,2024-06-11_13h23.05.748,LearnStrategy,2023.2.3,Win32,59.88023952,,,,,,,,,,,2,12,4,7,,,,,,,,,,,,,,,,,,,,,,,,,,,,,,,
60ccbffae161aadb1880ad6c,SCR,2024-06-11_13h23.05.748,LearnStrategy,2023.2.3,Win32,59.88023952,,,,,,,,,,,2,02,4,8,,,,,,,,,,,,,,,,,,,,,,,,,,,,,,,
60ccbffae161aadb1880ad6c,SCR,2024-06-11_13h23.05.748,LearnStrategy,2023.2.3,Win32,59.88023952,,,,,,,,,,,7,10,5,1,,,,,,,,,,,,,,,,,,,,,,,,,,,,,,,
60ccbffae161aadb1880ad6c,SCR,2024-06-11_13h23.05.748,LearnStrategy,2023.2.3,Win32,59.88023952,,,,,,,,,,,8,04,5,2,,,,,,,,,,,,,,,,,,,,,,,,,,,,,,,
60ccbffae161aadb1880ad6c,SCR,2024-06-11_13h23.05.748,LearnStrategy,2023.2.3,Win32,59.88023952,,,,,,,,,,,5,14,5,3,,,,,,,,,,,,,,,,,,,,,,,,,,,,,,,
60ccbffae161aadb1880ad6c,SCR,2024-06-11_13h23.05.748,LearnStrategy,2023.2.3,Win32,59.88023952,,,,,,,,,,,7,05,5,4,,,,,,,,,,,,,,,,,,,,,,,,,,,,,,,
60ccbffae161aadb1880ad6c,SCR,2024-06-11_13h23.05.748,LearnStrategy,2023.2.3,Win32,59.88023952,,,,,,,,,,,5,11,5,5,,,,,,,,,,,,,,,,,,,,,,,,,,,,,,,
60ccbffae161aadb1880ad6c,SCR,2024-06-11_13h23.05.748,LearnStrategy,2023.2.3,Win32,59.88023952,,,,,,,,,,,3,06,5,6,,,,,,,,,,,,,,,,,,,,,,,,,,,,,,,
60ccbffae161aadb1880ad6c,SCR,2024-06-11_13h23.05.748,LearnStrategy,2023.2.3,Win32,59.88023952,,,,,,,,,,,5,04,5,7,,,,,,,,,,,,,,,,,,,,,,,,,,,,,,,
60ccbffae161aadb1880ad6c,SCR,2024-06-11_13h23.05.748,LearnStrategy,2023.2.3,Win32,59.88023952,,,,,,,,,,,1,04,5,8,,,,,,,,,,,,,,,,,,,,,,,,,,,,,,,
60ccbffae161aadb1880ad6c,SCR,2024-06-11_13h23.05.748,LearnStrategy,2023.2.3,Win32,59.88023952,,,,,,,,,,,7,15,6,1,,,,,,,,,,,,,,,,,,,,,,,,,,,,,,,
60ccbffae161aadb1880ad6c,SCR,2024-06-11_13h23.05.748,LearnStrategy,2023.2.3,Win32,59.88023952,,,,,,,,,,,6,05,6,2,,,,,,,,,,,,,,,,,,,,,,,,,,,,,,,
60ccbffae161aadb1880ad6c,SCR,2024-06-11_13h23.05.748,LearnStrategy,2023.2.3,Win32,59.88023952,,,,,,,,,,,8,02,6,3,,,,,,,,,,,,,,,,,,,,,,,,,,,,,,,
60ccbffae161aadb1880ad6c,SCR,2024-06-11_13h23.05.748,LearnStrategy,2023.2.3,Win32,59.88023952,,,,,,,,,,,3,02,6,4,,,,,,,,,,,,,,,,,,,,,,,,,,,,,,,
60ccbffae161aadb1880ad6c,SCR,2024-06-11_13h23.05.748,LearnStrategy,2023.2.3,Win32,59.88023952,,,,,,,,,,,4,10,6,5,,,,,,,,,,,,,,,,,,,,,,,,,,,,,,,
60ccbffae161aadb1880ad6c,SCR,2024-06-11_13h23.05.748,LearnStrategy,2023.2.3,Win32,59.88023952,,,,,,,,,,,6,15,6,6,,,,,,,,,,,,,,,,,,,,,,,,,,,,,,,
60ccbffae161aadb1880ad6c,SCR,2024-06-11_13h23.05.748,LearnStrategy,2023.2.3,Win32,59.88023952,,,,,,,,,,,4,12,6,7,,,,,,,,,,,,,,,,,,,,,,,,,,,,,,,
60ccbffae161aadb1880ad6c,SCR,2024-06-11_13h23.05.748,LearnStrategy,2023.2.3,Win32,59.88023952,,,,,,,,,,,8,13,6,8,,,,,,,,,,,,,,,,,,,,,,,,,,,,,,,