participant,condition,date,expName,psychopyVersion,OS,frameRate,block,phase,trial,learn_mouse.x,learn_mouse.y,learn_mouse.leftButton,learn_mouse.midButton,learn_mouse.rightButton,learn_mouse.time,learn_mouse.clicked_name,cat,token,row,col,t_select,cat_mouse_l.x,cat_mouse_l.y,cat_mouse_l.leftButton,cat_mouse_l.midButton,cat_mouse_l.rightButton,cat_mouse_l.time,cat_mouse_l.clicked_name,resp,t_resp,corr,train_trials.thisRepN,train_trials.thisTrialN,train_trials.thisN,train_trials.thisIndex,train_trials.ran,cat_mouse_t.x,cat_mouse_t.y,cat_mouse_t.leftButton,cat_mouse_t.midButton,cat_mouse_t.rightButton,cat_mouse_t.time,cat_mouse_t.clicked_name,test_trials.thisRepN,test_trials.thisTrialN,test_trials.thisN,test_trials.thisIndex,test_trials.ran,Bonus
60d50ceb7c563c73f91d9ec5,SCN,2024-06-25_11h39.03.650,LearnStrategy,2023.2.3,Win32,60.24096386,,,,,,,,,,,,,,,,,,,,,,,,,,,,,,,,,,,,,,,,,,,
60d50ceb7c563c73f91d9ec5,SCN,2024-06-25_11h39.03.650,LearnStrategy,2023.2.3,Win32,60.24096386,1,1,1,-0.518518519,0.39537037,1,0,0,3.8362,Gabbro_13,4,13,6,1,3.836,-0.360185185,-0.235185185,1,0,0,3.1192,Andesite_rect,1,3.119,0,0,0,0,0,1,,,,,,,,,,,,,
60d50ceb7c563c73f91d9ec5,SCN,2024-06-25_11h39.03.650,LearnStrategy,2023.2.3,Win32,60.24096386,1,1,2,-0.396296296,0.380555556,1,0,0,2.1153,Obsidian_06,5,06,6,2,2.115,0.128703704,-0.261111111,1,0,0,3.8102,Diorite_rect,3,3.81,0,1,0,1,0,1,,,,,,,,,,,,,
60d50ceb7c563c73f91d9ec5,SCN,2024-06-25_11h39.03.650,LearnStrategy,2023.2.3,Win32,60.24096386,1,1,3,-0.237962963,0.37962963,1,0,0,2.0488,Gabbro_05,4,05,6,3,2.049,0.390740741,-0.248148148,1,0,0,0.9755,Gabbro_rect,4,0.976,1,2,0,2,0,1,,,,,,,,,,,,,
60d50ceb7c563c73f91d9ec5,SCN,2024-06-25_11h39.03.650,LearnStrategy,2023.2.3,Win32,60.24096386,1,1,4,-0.081481481,0.391666667,1,0,0,1.7655,Basalt_06,2,06,6,4,1.766,-0.096296296,-0.257407407,1,0,0,1.4272,Basalt_rect,2,1.427,1,3,0,3,0,1,,,,,,,,,,,,,
60d50ceb7c563c73f91d9ec5,SCN,2024-06-25_11h39.03.650,LearnStrategy,2023.2.3,Win32,60.24096386,1,1,5,0.078703704,0.388888889,1,0,0,1.0658,Diorite_08,3,08,6,5,1.066,0.334259259,-0.412037037,1,0,0,2.5437,Pumice_rect,8,2.544,0,4,0,4,0,1,,,,,,,,,,,,,
60d50ceb7c563c73f91d9ec5,SCN,2024-06-25_11h39.03.650,LearnStrategy,2023.2.3,Win32,60.24096386,1,1,6,0.212037037,0.385185185,1,0,0,1.1153,Pegmatite_15,6,15,6,6,1.115,-0.108333333,-0.387037037,1,0,0,2.4606,Pegmatite_rect,6,2.461,1,5,0,5,0,1,,,,,,,,,,,,,
60d50ceb7c563c73f91d9ec5,SCN,2024-06-25_11h39.03.650,LearnStrategy,2023.2.3,Win32,60.24096386,1,1,7,0.37037037,0.401851852,1,0,0,1.2652,Pumice_15,8,15,6,7,1.265,0.137037037,-0.407407407,1,0,0,3.11,Peridotite_rect,7,3.11,0,6,0,6,0,1,,,,,,,,,,,,,
60d50ceb7c563c73f91d9ec5,SCN,2024-06-25_11h39.03.650,LearnStrategy,2023.2.3,Win32,60.24096386,1,1,8,0.574074074,0.374074074,1,0,0,1.1652,Andesite_09,1,09,6,8,1.165,-0.121296296,-0.389814815,1,0,0,1.7607,Pegmatite_rect,6,1.761,0,7,0,7,0,1,,,,,,,,,,,,,
60d50ceb7c563c73f91d9ec5,SCN,2024-06-25_11h39.03.650,LearnStrategy,2023.2.3,Win32,60.24096386,1,1,9,0.556481481,0.238888889,1,0,0,1.8145,Pumice_09,8,09,5,8,1.815,0.371296296,-0.399074074,1,0,0,1.0439,Pumice_rect,8,1.044,1,8,0,8,0,1,,,,,,,,,,,,,
60d50ceb7c563c73f91d9ec5,SCN,2024-06-25_11h39.03.650,LearnStrategy,2023.2.3,Win32,60.24096386,1,1,10,0.237037037,0.22962963,1,0,0,1.0491,Obsidian_11,5,11,5,6,1.049,-0.366666667,-0.409259259,1,0,0,1.5772,Obsidian_rect,5,1.577,1,9,0,9,0,1,,,,,,,,,,,,,
60d50ceb7c563c73f91d9ec5,SCN,2024-06-25_11h39.03.650,LearnStrategy,2023.2.3,Win32,60.24096386,1,1,11,0.062962963,0.241666667,1,0,0,3.3651,Peridotite_07,7,07,5,5,3.365,-0.105555556,-0.240740741,1,0,0,2.0272,Basalt_rect,2,2.027,0,10,0,10,0,1,,,,,,,,,,,,,
60d50ceb7c563c73f91d9ec5,SCN,2024-06-25_11h39.03.650,LearnStrategy,2023.2.3,Win32,60.24096386,1,1,12,-0.239814815,0.230555556,1,0,0,3.4489,Gabbro_11,4,11,5,3,3.449,-0.142592593,-0.407407407,1,0,0,2.0212,Pegmatite_rect,6,2.021,0,11,0,11,0,1,,,,,,,,,,,,,
60d50ceb7c563c73f91d9ec5,SCN,2024-06-25_11h39.03.650,LearnStrategy,2023.2.3,Win32,60.24096386,1,1,13,-0.246296296,0.066666667,1,0,0,2.1316,Diorite_15,3,15,4,3,2.132,0.364814815,-0.24537037,1,0,0,0.8103,Gabbro_rect,4,0.81,0,12,0,12,0,1,,,,,,,,,,,,,
60d50ceb7c563c73f91d9ec5,SCN,2024-06-25_11h39.03.650,LearnStrategy,2023.2.3,Win32,60.24096386,1,1,14,0.07962963,-0.110185185,1,0,0,0.9324,Diorite_14,3,14,3,5,0.932,0.10462963,-0.237037037,1,0,0,1.9273,Diorite_rect,3,1.927,1,13,0,13,0,1,,,,,,,,,,,,,
60d50ceb7c563c73f91d9ec5,SCN,2024-06-25_11h39.03.650,LearnStrategy,2023.2.3,Win32,60.24096386,1,1,15,-0.076851852,-0.403703704,1,0,0,2.3986,Pegmatite_07,6,07,1,4,2.399,0.131481481,-0.396296296,1,0,0,2.1941,Peridotite_rect,7,2.194,0,14,0,14,0,1,,,,,,,,,,,,,
60d50ceb7c563c73f91d9ec5,SCN,2024-06-25_11h39.03.650,LearnStrategy,2023.2.3,Win32,60.24096386,1,1,16,-0.393518519,-0.292592593,1,0,0,1.6821,Peridotite_04,7,04,2,2,1.682,0.389814815,-0.39537037,1,0,0,1.5768,Pumice_rect,8,1.577,0,15,0,15,0,1,,,,,,,,,,,,,
60d50ceb7c563c73f91d9ec5,SCN,2024-06-25_11h39.03.650,LearnStrategy,2023.2.3,Win32,60.24096386,1,2,1,,,,,,,,8,14,,,,,,,,,,,8,2.71,1,,,,,,0.369444444,-0.409259259,1,0,0,2.7102,Pumice_rect,0,0,0,0,1,
60d50ceb7c563c73f91d9ec5,SCN,2024-06-25_11h39.03.650,LearnStrategy,2023.2.3,Win32,60.24096386,1,2,2,,,,,,,,1,04,,,,,,,,,,,3,4.427,0,,,,,,0.123148148,-0.263888889,1,0,0,4.4266,Diorite_rect,1,0,1,0,1,
60d50ceb7c563c73f91d9ec5,SCN,2024-06-25_11h39.03.650,LearnStrategy,2023.2.3,Win32,60.24096386,1,2,3,,,,,,,,5,09,,,,,,,,,,,5,2.961,1,,,,,,-0.410185185,-0.393518519,1,0,0,2.9608,Obsidian_rect,2,0,2,0,1,
60d50ceb7c563c73f91d9ec5,SCN,2024-06-25_11h39.03.650,LearnStrategy,2023.2.3,Win32,60.24096386,1,2,4,,,,,,,,6,06,,,,,,,,,,,6,2.211,1,,,,,,-0.087037037,-0.400925926,1,0,0,2.2108,Pegmatite_rect,3,0,3,0,1,
60d50ceb7c563c73f91d9ec5,SCN,2024-06-25_11h39.03.650,LearnStrategy,2023.2.3,Win32,60.24096386,1,2,5,,,,,,,,1,11,,,,,,,,,,,3,4.344,0,,,,,,0.222222222,-0.264814815,1,0,0,4.3442,Diorite_rect,4,0,4,0,1,
60d50ceb7c563c73f91d9ec5,SCN,2024-06-25_11h39.03.650,LearnStrategy,2023.2.3,Win32,60.24096386,1,2,6,,,,,,,,3,02,,,,,,,,,,,7,2.161,0,,,,,,0.198148148,-0.389814815,1,0,0,2.1609,Peridotite_rect,5,0,5,0,1,
60d50ceb7c563c73f91d9ec5,SCN,2024-06-25_11h39.03.650,LearnStrategy,2023.2.3,Win32,60.24096386,1,2,7,,,,,,,,7,15,,,,,,,,,,,2,1.809,0,,,,,,-0.094444444,-0.267592593,1,0,0,1.8095,Basalt_rect,6,0,6,0,1,
60d50ceb7c563c73f91d9ec5,SCN,2024-06-25_11h39.03.650,LearnStrategy,2023.2.3,Win32,60.24096386,1,2,8,,,,,,,,8,05,,,,,,,,,,,8,1.211,1,,,,,,0.362037037,-0.382407407,1,0,0,1.2108,Pumice_rect,7,0,7,0,1,
60d50ceb7c563c73f91d9ec5,SCN,2024-06-25_11h39.03.650,LearnStrategy,2023.2.3,Win32,60.24096386,1,2,9,,,,,,,,6,09,,,,,,,,,,,3,2.228,0,,,,,,0.125925926,-0.264814815,1,0,0,2.2279,Diorite_rect,8,0,8,0,1,
60d50ceb7c563c73f91d9ec5,SCN,2024-06-25_11h39.03.650,LearnStrategy,2023.2.3,Win32,60.24096386,1,2,10,,,,,,,,4,03,,,,,,,,,,,6,1.577,0,,,,,,-0.062962963,-0.412037037,1,0,0,1.5772,Pegmatite_rect,9,0,9,0,1,
60d50ceb7c563c73f91d9ec5,SCN,2024-06-25_11h39.03.650,LearnStrategy,2023.2.3,Win32,60.24096386,1,2,11,,,,,,,,7,06,,,,,,,,,,,7,1.677,1,,,,,,0.171296296,-0.396296296,1,0,0,1.6774,Peridotite_rect,10,0,10,0,1,
60d50ceb7c563c73f91d9ec5,SCN,2024-06-25_11h39.03.650,LearnStrategy,2023.2.3,Win32,60.24096386,1,2,12,,,,,,,,2,10,,,,,,,,,,,1,3.861,0,,,,,,-0.376851852,-0.255555556,1,0,0,3.8611,Andesite_rect,11,0,11,0,1,
60d50ceb7c563c73f91d9ec5,SCN,2024-06-25_11h39.03.650,LearnStrategy,2023.2.3,Win32,60.24096386,1,2,13,,,,,,,,5,04,,,,,,,,,,,5,1.044,1,,,,,,-0.338888889,-0.398148148,1,0,0,1.0443,Obsidian_rect,12,0,12,0,1,
60d50ceb7c563c73f91d9ec5,SCN,2024-06-25_11h39.03.650,LearnStrategy,2023.2.3,Win32,60.24096386,1,2,14,,,,,,,,4,08,,,,,,,,,,,3,2.728,0,,,,,,0.131481481,-0.263888889,1,0,0,2.7279,Diorite_rect,13,0,13,0,1,
60d50ceb7c563c73f91d9ec5,SCN,2024-06-25_11h39.03.650,LearnStrategy,2023.2.3,Win32,60.24096386,1,2,15,,,,,,,,2,01,,,,,,,,,,,7,3.111,0,,,,,,0.115740741,-0.412037037,1,0,0,3.1106,Peridotite_rect,14,0,14,0,1,
60d50ceb7c563c73f91d9ec5,SCN,2024-06-25_11h39.03.650,LearnStrategy,2023.2.3,Win32,60.24096386,1,2,16,,,,,,,,3,12,,,,,,,,,,,6,2.278,0,,,,,,-0.077777778,-0.409259259,1,0,0,2.2778,Pegmatite_rect,15,0,15,0,1,
60d50ceb7c563c73f91d9ec5,SCN,2024-06-25_11h39.03.650,LearnStrategy,2023.2.3,Win32,60.24096386,2,1,1,0.581481481,-0.387037037,1,0,0,2.1823,Andesite_05,1,05,1,8,2.182,0.075925926,-0.269444444,1,0,0,1.509,Diorite_rect,3,1.509,0,0,0,0,0,1,,,,,,,,,,,,,
60d50ceb7c563c73f91d9ec5,SCN,2024-06-25_11h39.03.650,LearnStrategy,2023.2.3,Win32,60.24096386,2,1,2,0.084259259,-0.442592593,1,0,0,2.7153,Andesite_01,1,01,1,5,2.715,-0.390740741,-0.262037037,1,0,0,1.9106,Andesite_rect,1,1.911,1,1,0,1,0,1,,,,,,,,,,,,,
60d50ceb7c563c73f91d9ec5,SCN,2024-06-25_11h39.03.650,LearnStrategy,2023.2.3,Win32,60.24096386,2,1,3,-0.562037037,-0.423148148,1,0,0,4.149,Peridotite_13,7,13,1,1,4.149,-0.362962963,-0.262037037,1,0,0,1.4714,Andesite_rect,1,1.471,0,2,0,2,0,1,,,,,,,,,,,,,
60d50ceb7c563c73f91d9ec5,SCN,2024-06-25_11h39.03.650,LearnStrategy,2023.2.3,Win32,60.24096386,2,1,4,-0.535185185,-0.283333333,1,0,0,3.5323,Peridotite_14,7,14,2,1,3.532,-0.361111111,-0.252777778,1,0,0,2.5886,Andesite_rect,1,2.589,0,3,0,3,0,1,,,,,,,,,,,,,
60d50ceb7c563c73f91d9ec5,SCN,2024-06-25_11h39.03.650,LearnStrategy,2023.2.3,Win32,60.24096386,2,1,5,0.256481481,-0.272222222,1,0,0,2.1487,Pegmatite_05,6,05,2,6,2.149,-0.335185185,-0.389814815,1,0,0,1.5545,Obsidian_rect,5,1.555,0,4,0,4,0,1,,,,,,,,,,,,,
60d50ceb7c563c73f91d9ec5,SCN,2024-06-25_11h39.03.650,LearnStrategy,2023.2.3,Win32,60.24096386,2,1,6,-0.032407407,-0.064814815,1,0,0,0.749,Pegmatite_08,6,08,3,4,0.749,-0.083333333,-0.409259259,1,0,0,1.0272,Pegmatite_rect,6,1.027,1,5,0,5,0,1,,,,,,,,,,,,,
60d50ceb7c563c73f91d9ec5,SCN,2024-06-25_11h39.03.650,LearnStrategy,2023.2.3,Win32,60.24096386,2,1,7,0.434259259,-0.133333333,1,0,0,1.299,Obsidian_10,5,10,3,7,1.299,-0.407407407,-0.419444444,1,0,0,1.1607,Obsidian_rect,5,1.161,1,6,0,6,0,1,,,,,,,,,,,,,
60d50ceb7c563c73f91d9ec5,SCN,2024-06-25_11h39.03.650,LearnStrategy,2023.2.3,Win32,60.24096386,2,1,8,0.518518519,-0.106481481,1,0,0,1.0653,Obsidian_05,5,05,3,8,1.065,-0.088888889,-0.390740741,1,0,0,0.9607,Pegmatite_rect,6,0.961,0,7,0,7,0,1,,,,,,,,,,,,,
60d50ceb7c563c73f91d9ec5,SCN,2024-06-25_11h39.03.650,LearnStrategy,2023.2.3,Win32,60.24096386,2,1,9,0.407407407,-0.125925926,1,0,0,0.7659,Obsidian_10,5,10,3,7,0.766,-0.076851852,-0.396296296,1,0,0,0.8439,Pegmatite_rect,6,0.844,0,8,0,8,0,1,,,,,,,,,,,,,
60d50ceb7c563c73f91d9ec5,SCN,2024-06-25_11h39.03.650,LearnStrategy,2023.2.3,Win32,60.24096386,2,1,10,-0.39537037,-0.096296296,1,0,0,4.9991,Pegmatite_12,6,12,3,2,4.999,0.106481481,-0.267592593,1,0,0,1.0711,Diorite_rect,3,1.071,0,9,0,9,0,1,,,,,,,,,,,,,
60d50ceb7c563c73f91d9ec5,SCN,2024-06-25_11h39.03.650,LearnStrategy,2023.2.3,Win32,60.24096386,2,1,11,-0.20462963,-0.281481481,1,0,0,3.9158,Pegmatite_10,6,10,2,3,3.916,-0.072222222,-0.37962963,1,0,0,1.3274,Pegmatite_rect,6,1.327,1,10,0,10,0,1,,,,,,,,,,,,,
60d50ceb7c563c73f91d9ec5,SCN,2024-06-25_11h39.03.650,LearnStrategy,2023.2.3,Win32,60.24096386,2,1,12,0.562037037,-0.281481481,1,0,0,3.799,Peridotite_16,7,16,2,8,3.799,-0.099074074,-0.396296296,1,0,0,1.1547,Pegmatite_rect,6,1.155,0,11,0,11,0,1,,,,,,,,,,,,,
60d50ceb7c563c73f91d9ec5,SCN,2024-06-25_11h39.03.650,LearnStrategy,2023.2.3,Win32,60.24096386,2,1,13,0.090740741,0.089814815,1,0,0,4.0822,Pumice_02,8,02,4,5,4.082,0.423148148,-0.414814815,1,0,0,1.3385,Pumice_rect,8,1.338,1,12,0,12,0,1,,,,,,,,,,,,,
60d50ceb7c563c73f91d9ec5,SCN,2024-06-25_11h39.03.650,LearnStrategy,2023.2.3,Win32,60.24096386,2,1,14,-0.428703704,-0.137037037,1,0,0,3.9491,Pegmatite_12,6,12,3,2,3.949,0.134259259,-0.410185185,1,0,0,1.5216,Peridotite_rect,7,1.522,0,13,0,13,0,1,,,,,,,,,,,,,
60d50ceb7c563c73f91d9ec5,SCN,2024-06-25_11h39.03.650,LearnStrategy,2023.2.3,Win32,60.24096386,2,1,15,-0.075,-0.110185185,1,0,0,0.899,Pegmatite_08,6,08,3,4,0.899,-0.334259259,-0.403703704,1,0,0,1.3773,Obsidian_rect,5,1.377,0,14,0,14,0,1,,,,,,,,,,,,,
60d50ceb7c563c73f91d9ec5,SCN,2024-06-25_11h39.03.650,LearnStrategy,2023.2.3,Win32,60.24096386,2,1,16,-0.047222222,-0.24537037,1,0,0,0.9162,Diorite_11,3,11,2,4,0.916,-0.057407407,-0.387962963,1,0,0,1.6102,Pegmatite_rect,6,1.61,0,15,0,15,0,1,,,,,,,,,,,,,
60d50ceb7c563c73f91d9ec5,SCN,2024-06-25_11h39.03.650,LearnStrategy,2023.2.3,Win32,60.24096386,2,2,1,,,,,,,,5,08,,,,,,,,,,,5,2.344,1,,,,,,-0.360185185,-0.412962963,1,0,0,2.3444,Obsidian_rect,0,0,0,0,1,
60d50ceb7c563c73f91d9ec5,SCN,2024-06-25_11h39.03.650,LearnStrategy,2023.2.3,Win32,60.24096386,2,2,2,,,,,,,,8,04,,,,,,,,,,,8,1.361,1,,,,,,0.442592593,-0.414814815,1,0,0,1.3606,Pumice_rect,1,0,1,0,1,
60d50ceb7c563c73f91d9ec5,SCN,2024-06-25_11h39.03.650,LearnStrategy,2023.2.3,Win32,60.24096386,2,2,3,,,,,,,,4,10,,,,,,,,,,,2,3.361,0,,,,,,-0.101851852,-0.237037037,1,0,0,3.361,Basalt_rect,2,0,2,0,1,
60d50ceb7c563c73f91d9ec5,SCN,2024-06-25_11h39.03.650,LearnStrategy,2023.2.3,Win32,60.24096386,2,2,4,,,,,,,,7,08,,,,,,,,,,,6,2.861,0,,,,,,-0.07962963,-0.39537037,1,0,0,2.861,Pegmatite_rect,3,0,3,0,1,
60d50ceb7c563c73f91d9ec5,SCN,2024-06-25_11h39.03.650,LearnStrategy,2023.2.3,Win32,60.24096386,2,2,5,,,,,,,,2,04,,,,,,,,,,,1,4.828,0,,,,,,-0.352777778,-0.262037037,1,0,0,4.8281,Andesite_rect,4,0,4,0,1,
60d50ceb7c563c73f91d9ec5,SCN,2024-06-25_11h39.03.650,LearnStrategy,2023.2.3,Win32,60.24096386,2,2,6,,,,,,,,5,14,,,,,,,,,,,5,1.527,1,,,,,,-0.322222222,-0.40462963,1,0,0,1.5274,Obsidian_rect,5,0,5,0,1,
60d50ceb7c563c73f91d9ec5,SCN,2024-06-25_11h39.03.650,LearnStrategy,2023.2.3,Win32,60.24096386,2,2,7,,,,,,,,1,03,,,,,,,,,,,7,5.128,0,,,,,,0.121296296,-0.409259259,1,0,0,5.1277,Peridotite_rect,6,0,6,0,1,
60d50ceb7c563c73f91d9ec5,SCN,2024-06-25_11h39.03.650,LearnStrategy,2023.2.3,Win32,60.24096386,2,2,8,,,,,,,,3,06,,,,,,,,,,,7,3.023,0,,,,,,0.165740741,-0.415740741,1,0,0,3.0226,Peridotite_rect,7,0,7,0,1,
60d50ceb7c563c73f91d9ec5,SCN,2024-06-25_11h39.03.650,LearnStrategy,2023.2.3,Win32,60.24096386,2,2,9,,,,,,,,1,10,,,,,,,,,,,3,2.145,0,,,,,,0.115740741,-0.250925926,1,0,0,2.1446,Diorite_rect,8,0,8,0,1,
60d50ceb7c563c73f91d9ec5,SCN,2024-06-25_11h39.03.650,LearnStrategy,2023.2.3,Win32,60.24096386,2,2,10,,,,,,,,6,16,,,,,,,,,,,3,1.361,0,,,,,,0.15462963,-0.259259259,1,0,0,1.3612,Diorite_rect,9,0,9,0,1,
60d50ceb7c563c73f91d9ec5,SCN,2024-06-25_11h39.03.650,LearnStrategy,2023.2.3,Win32,60.24096386,2,2,11,,,,,,,,4,09,,,,,,,,,,,4,1.828,1,,,,,,0.382407407,-0.247222222,1,0,0,1.828,Gabbro_rect,10,0,10,0,1,
60d50ceb7c563c73f91d9ec5,SCN,2024-06-25_11h39.03.650,LearnStrategy,2023.2.3,Win32,60.24096386,2,2,12,,,,,,,,7,10,,,,,,,,,,,7,2.044,1,,,,,,0.115740741,-0.414814815,1,0,0,2.0444,Peridotite_rect,11,0,11,0,1,
60d50ceb7c563c73f91d9ec5,SCN,2024-06-25_11h39.03.650,LearnStrategy,2023.2.3,Win32,60.24096386,2,2,13,,,,,,,,3,09,,,,,,,,,,,7,0.961,0,,,,,,0.134259259,-0.42037037,1,0,0,0.9611,Peridotite_rect,12,0,12,0,1,
60d50ceb7c563c73f91d9ec5,SCN,2024-06-25_11h39.03.650,LearnStrategy,2023.2.3,Win32,60.24096386,2,2,14,,,,,,,,2,16,,,,,,,,,,,8,3.544,0,,,,,,0.393518519,-0.412037037,1,0,0,3.5442,Pumice_rect,13,0,13,0,1,
60d50ceb7c563c73f91d9ec5,SCN,2024-06-25_11h39.03.650,LearnStrategy,2023.2.3,Win32,60.24096386,2,2,15,,,,,,,,8,13,,,,,,,,,,,3,1.344,0,,,,,,0.156481481,-0.252777778,1,0,0,1.3441,Diorite_rect,14,0,14,0,1,
60d50ceb7c563c73f91d9ec5,SCN,2024-06-25_11h39.03.650,LearnStrategy,2023.2.3,Win32,60.24096386,2,2,16,,,,,,,,6,11,,,,,,,,,,,6,1.394,1,,,,,,-0.094444444,-0.399074074,1,0,0,1.3944,Pegmatite_rect,15,0,15,0,1,
60d50ceb7c563c73f91d9ec5,SCN,2024-06-25_11h39.03.650,LearnStrategy,2023.2.3,Win32,60.24096386,3,1,1,-0.568518519,-0.42037037,1,0,0,2.5161,Peridotite_13,7,13,1,1,2.516,0.122222222,-0.409259259,1,0,0,1.7604,Peridotite_rect,7,1.76,1,0,0,0,0,1,,,,,,,,,,,,,
60d50ceb7c563c73f91d9ec5,SCN,2024-06-25_11h39.03.650,LearnStrategy,2023.2.3,Win32,60.24096386,3,1,2,-0.385185185,-0.410185185,1,0,0,1.2489,Pumice_06,8,06,1,2,1.249,0.134259259,-0.24537037,1,0,0,1.4942,Diorite_rect,3,1.494,0,1,0,1,0,1,,,,,,,,,,,,,
60d50ceb7c563c73f91d9ec5,SCN,2024-06-25_11h39.03.650,LearnStrategy,2023.2.3,Win32,60.24096386,3,1,3,-0.205555556,-0.403703704,1,0,0,0.8159,Basalt_14,2,14,1,3,0.816,0.099074074,-0.262037037,1,0,0,0.9603,Diorite_rect,3,0.96,0,2,0,2,0,1,,,,,,,,,,,,,
60d50ceb7c563c73f91d9ec5,SCN,2024-06-25_11h39.03.650,LearnStrategy,2023.2.3,Win32,60.24096386,3,1,4,-0.369444444,0.107407407,1,0,0,2.9325,Gabbro_16,4,16,4,2,2.933,0.092592593,-0.25462963,1,0,0,1.3274,Diorite_rect,3,1.327,0,3,0,3,0,1,,,,,,,,,,,,,
60d50ceb7c563c73f91d9ec5,SCN,2024-06-25_11h39.03.650,LearnStrategy,2023.2.3,Win32,60.24096386,3,1,5,-0.422222222,0.224074074,1,0,0,2.299,Basalt_08,2,08,5,2,2.299,0.376851852,-0.258333333,1,0,0,1.1103,Gabbro_rect,4,1.11,0,4,0,4,0,1,,,,,,,,,,,,,
60d50ceb7c563c73f91d9ec5,SCN,2024-06-25_11h39.03.650,LearnStrategy,2023.2.3,Win32,60.24096386,3,1,6,-0.548148148,0.083333333,1,0,0,0.7994,Peridotite_05,7,05,4,1,0.799,0.106481481,-0.403703704,1,0,0,1.394,Peridotite_rect,7,1.394,1,5,0,5,0,1,,,,,,,,,,,,,
60d50ceb7c563c73f91d9ec5,SCN,2024-06-25_11h39.03.650,LearnStrategy,2023.2.3,Win32,60.24096386,3,1,7,-0.219444444,0.077777778,1,0,0,0.7659,Diorite_15,3,15,4,3,0.766,0.177777778,-0.39537037,1,0,0,0.7107,Peridotite_rect,7,0.711,0,6,0,6,0,1,,,,,,,,,,,,,
60d50ceb7c563c73f91d9ec5,SCN,2024-06-25_11h39.03.650,LearnStrategy,2023.2.3,Win32,60.24096386,3,1,8,-0.093518519,0.069444444,1,0,0,0.7158,Diorite_10,3,10,4,4,0.716,0.162962963,-0.389814815,1,0,0,1.1772,Peridotite_rect,7,1.177,0,7,0,7,0,1,,,,,,,,,,,,,
60d50ceb7c563c73f91d9ec5,SCN,2024-06-25_11h39.03.650,LearnStrategy,2023.2.3,Win32,60.24096386,3,1,9,0.096296296,0.086111111,1,0,0,0.8489,Pumice_02,8,02,4,5,0.849,0.386111111,-0.403703704,1,0,0,1.3605,Pumice_rect,8,1.361,1,8,0,8,0,1,,,,,,,,,,,,,
60d50ceb7c563c73f91d9ec5,SCN,2024-06-25_11h39.03.650,LearnStrategy,2023.2.3,Win32,60.24096386,3,1,10,0.239814815,0.068518519,1,0,0,0.7991,Andesite_06,1,06,4,6,0.799,0.163888889,-0.409259259,1,0,0,1.0268,Peridotite_rect,7,1.027,0,9,0,9,0,1,,,,,,,,,,,,,
60d50ceb7c563c73f91d9ec5,SCN,2024-06-25_11h39.03.650,LearnStrategy,2023.2.3,Win32,60.24096386,3,1,11,0.25462963,-0.103703704,1,0,0,0.9657,Andesite_16,1,16,3,6,0.966,-0.45462963,-0.24537037,1,0,0,1.4605,Andesite_rect,1,1.461,1,10,0,10,0,1,,,,,,,,,,,,,
60d50ceb7c563c73f91d9ec5,SCN,2024-06-25_11h39.03.650,LearnStrategy,2023.2.3,Win32,60.24096386,3,1,12,0.568518519,-0.437037037,1,0,0,1.3157,Andesite_05,1,05,1,8,1.316,-0.365740741,-0.258333333,1,0,0,1.1274,Andesite_rect,1,1.127,1,11,0,11,0,1,,,,,,,,,,,,,
60d50ceb7c563c73f91d9ec5,SCN,2024-06-25_11h39.03.650,LearnStrategy,2023.2.3,Win32,60.24096386,3,1,13,0.387037037,0.118518519,1,0,0,0.9824,Pumice_08,8,08,4,7,0.982,0.123148148,-0.390740741,1,0,0,2.4948,Peridotite_rect,7,2.495,0,12,0,12,0,1,,,,,,,,,,,,,
60d50ceb7c563c73f91d9ec5,SCN,2024-06-25_11h39.03.650,LearnStrategy,2023.2.3,Win32,60.24096386,3,1,14,0.568518519,0.092592593,1,0,0,1.4491,Diorite_13,3,13,4,8,1.449,-0.060185185,-0.387037037,1,0,0,1.5608,Pegmatite_rect,6,1.561,0,13,0,13,0,1,,,,,,,,,,,,,
60d50ceb7c563c73f91d9ec5,SCN,2024-06-25_11h39.03.650,LearnStrategy,2023.2.3,Win32,60.24096386,3,1,15,0.062962963,-0.099074074,1,0,0,0.7823,Diorite_14,3,14,3,5,0.782,0.117592593,-0.233333333,1,0,0,1.5938,Diorite_rect,3,1.594,1,14,0,14,0,1,,,,,,,,,,,,,
60d50ceb7c563c73f91d9ec5,SCN,2024-06-25_11h39.03.650,LearnStrategy,2023.2.3,Win32,60.24096386,3,1,16,0.060185185,0.380555556,1,0,0,1.647,Diorite_08,3,08,6,5,1.647,0.178703704,-0.246296296,1,0,0,0.9267,Diorite_rect,3,0.927,1,15,0,15,0,1,,,,,,,,,,,,,
60d50ceb7c563c73f91d9ec5,SCN,2024-06-25_11h39.03.650,LearnStrategy,2023.2.3,Win32,60.24096386,3,2,1,,,,,,,,4,15,,,,,,,,,,,3,1.576,0,,,,,,0.12962963,-0.257407407,1,0,0,1.5763,Diorite_rect,0,0,0,0,1,
60d50ceb7c563c73f91d9ec5,SCN,2024-06-25_11h39.03.650,LearnStrategy,2023.2.3,Win32,60.24096386,3,2,2,,,,,,,,8,16,,,,,,,,,,,8,1.793,1,,,,,,0.439814815,-0.411111111,1,0,0,1.7931,Pumice_rect,1,0,1,0,1,
60d50ceb7c563c73f91d9ec5,SCN,2024-06-25_11h39.03.650,LearnStrategy,2023.2.3,Win32,60.24096386,3,2,3,,,,,,,,7,02,,,,,,,,,,,6,3.461,0,,,,,,-0.065740741,-0.418518519,1,0,0,3.4608,Pegmatite_rect,2,0,2,0,1,
60d50ceb7c563c73f91d9ec5,SCN,2024-06-25_11h39.03.650,LearnStrategy,2023.2.3,Win32,60.24096386,3,2,4,,,,,,,,2,02,,,,,,,,,,,4,2.289,0,,,,,,0.42037037,-0.255555556,1,0,0,2.2888,Gabbro_rect,3,0,3,0,1,
60d50ceb7c563c73f91d9ec5,SCN,2024-06-25_11h39.03.650,LearnStrategy,2023.2.3,Win32,60.24096386,3,2,5,,,,,,,,6,13,,,,,,,,,,,6,1.889,1,,,,,,-0.066666667,-0.410185185,1,0,0,1.889,Pegmatite_rect,4,0,4,0,1,
60d50ceb7c563c73f91d9ec5,SCN,2024-06-25_11h39.03.650,LearnStrategy,2023.2.3,Win32,60.24096386,3,2,6,,,,,,,,1,07,,,,,,,,,,,7,1.194,0,,,,,,0.137037037,-0.419444444,1,0,0,1.1944,Peridotite_rect,5,0,5,0,1,
60d50ceb7c563c73f91d9ec5,SCN,2024-06-25_11h39.03.650,LearnStrategy,2023.2.3,Win32,60.24096386,3,2,7,,,,,,,,5,16,,,,,,,,,,,5,0.995,1,,,,,,-0.393518519,-0.398148148,1,0,0,0.9945,Obsidian_rect,6,0,6,0,1,
60d50ceb7c563c73f91d9ec5,SCN,2024-06-25_11h39.03.650,LearnStrategy,2023.2.3,Win32,60.24096386,3,2,8,,,,,,,,7,12,,,,,,,,,,,7,0.977,1,,,,,,0.101851852,-0.414814815,1,0,0,0.9774,Peridotite_rect,7,0,7,0,1,
60d50ceb7c563c73f91d9ec5,SCN,2024-06-25_11h39.03.650,LearnStrategy,2023.2.3,Win32,60.24096386,3,2,9,,,,,,,,8,10,,,,,,,,,,,8,1.111,1,,,,,,0.401851852,-0.414814815,1,0,0,1.111,Pumice_rect,8,0,8,0,1,
60d50ceb7c563c73f91d9ec5,SCN,2024-06-25_11h39.03.650,LearnStrategy,2023.2.3,Win32,60.24096386,3,2,10,,,,,,,,2,09,,,,,,,,,,,1,2.644,0,,,,,,-0.335185185,-0.24537037,1,0,0,2.6443,Andesite_rect,9,0,9,0,1,
60d50ceb7c563c73f91d9ec5,SCN,2024-06-25_11h39.03.650,LearnStrategy,2023.2.3,Win32,60.24096386,3,2,11,,,,,,,,6,03,,,,,,,,,,,7,1.087,0,,,,,,0.137962963,-0.403703704,1,0,0,1.0873,Peridotite_rect,10,0,10,0,1,
60d50ceb7c563c73f91d9ec5,SCN,2024-06-25_11h39.03.650,LearnStrategy,2023.2.3,Win32,60.24096386,3,2,12,,,,,,,,3,16,,,,,,,,,,,7,1.211,0,,,,,,0.136111111,-0.403703704,1,0,0,1.2111,Peridotite_rect,11,0,11,0,1,
60d50ceb7c563c73f91d9ec5,SCN,2024-06-25_11h39.03.650,LearnStrategy,2023.2.3,Win32,60.24096386,3,2,13,,,,,,,,1,14,,,,,,,,,,,1,2.011,1,,,,,,-0.361111111,-0.267592593,1,0,0,2.0112,Andesite_rect,12,0,12,0,1,
60d50ceb7c563c73f91d9ec5,SCN,2024-06-25_11h39.03.650,LearnStrategy,2023.2.3,Win32,60.24096386,3,2,14,,,,,,,,3,07,,,,,,,,,,,3,2.594,1,,,,,,0.152777778,-0.248148148,1,0,0,2.5944,Diorite_rect,13,0,13,0,1,
60d50ceb7c563c73f91d9ec5,SCN,2024-06-25_11h39.03.650,LearnStrategy,2023.2.3,Win32,60.24096386,3,2,15,,,,,,,,5,07,,,,,,,,,,,5,1.056,1,,,,,,-0.386111111,-0.381481481,1,0,0,1.0557,Obsidian_rect,14,0,14,0,1,
60d50ceb7c563c73f91d9ec5,SCN,2024-06-25_11h39.03.650,LearnStrategy,2023.2.3,Win32,60.24096386,3,2,16,,,,,,,,4,01,,,,,,,,,,,7,1.794,0,,,,,,0.153703704,-0.381481481,1,0,0,1.794,Peridotite_rect,15,0,15,0,1,
60d50ceb7c563c73f91d9ec5,SCN,2024-06-25_11h39.03.650,LearnStrategy,2023.2.3,Win32,60.24096386,4,1,1,-0.560185185,0.403703704,1,0,0,4.6661,Gabbro_13,4,13,6,1,4.666,0.118518519,-0.253703704,1,0,0,1.4885,Diorite_rect,3,1.489,0,0,0,0,0,1,,,,,,,,,,,,,
60d50ceb7c563c73f91d9ec5,SCN,2024-06-25_11h39.03.650,LearnStrategy,2023.2.3,Win32,60.24096386,4,1,2,-0.362962963,0.112037037,1,0,0,1.6992,Gabbro_16,4,16,4,2,1.699,0.509259259,-0.24537037,1,0,0,0.7604,Gabbro_rect,4,0.76,1,1,0,1,0,1,,,,,,,,,,,,,
60d50ceb7c563c73f91d9ec5,SCN,2024-06-25_11h39.03.650,LearnStrategy,2023.2.3,Win32,60.24096386,4,1,3,-0.505555556,0.106481481,1,0,0,3.8156,Peridotite_05,7,05,4,1,3.816,0.142592593,-0.392592593,1,0,0,2.1105,Peridotite_rect,7,2.111,1,2,0,2,0,1,,,,,,,,,,,,,
60d50ceb7c563c73f91d9ec5,SCN,2024-06-25_11h39.03.650,LearnStrategy,2023.2.3,Win32,60.24096386,4,1,4,0.368518519,-0.251851852,1,0,0,1.1825,Gabbro_14,4,14,2,7,1.183,0.384259259,-0.240740741,1,0,0,1.159,Gabbro_rect,4,1.159,1,3,0,3,0,1,,,,,,,,,,,,,
60d50ceb7c563c73f91d9ec5,SCN,2024-06-25_11h39.03.650,LearnStrategy,2023.2.3,Win32,60.24096386,4,1,5,-0.187962963,-0.406481481,1,0,0,1.1158,Basalt_14,2,14,1,3,1.116,0.412962963,-0.25,1,0,0,0.777,Gabbro_rect,4,0.777,0,4,0,4,0,1,,,,,,,,,,,,,
60d50ceb7c563c73f91d9ec5,SCN,2024-06-25_11h39.03.650,LearnStrategy,2023.2.3,Win32,60.24096386,4,1,6,0.555555556,-0.267592593,1,0,0,1.0493,Peridotite_16,7,16,2,8,1.049,-0.107407407,-0.403703704,1,0,0,0.994,Pegmatite_rect,6,0.994,0,5,0,5,0,1,,,,,,,,,,,,,
60d50ceb7c563c73f91d9ec5,SCN,2024-06-25_11h39.03.650,LearnStrategy,2023.2.3,Win32,60.24096386,4,1,7,-0.383333333,-0.12037037,1,0,0,3.9992,Pegmatite_12,6,12,3,2,3.999,0.130555556,-0.397222222,1,0,0,1.2886,Peridotite_rect,7,1.289,0,6,0,6,0,1,,,,,,,,,,,,,
60d50ceb7c563c73f91d9ec5,SCN,2024-06-25_11h39.03.650,LearnStrategy,2023.2.3,Win32,60.24096386,4,1,8,-0.040740741,-0.098148148,1,0,0,0.699,Pegmatite_08,6,08,3,4,0.699,-0.143518519,-0.398148148,1,0,0,0.8439,Pegmatite_rect,6,0.844,1,7,0,7,0,1,,,,,,,,,,,,,
60d50ceb7c563c73f91d9ec5,SCN,2024-06-25_11h39.03.650,LearnStrategy,2023.2.3,Win32,60.24096386,4,1,9,0.564814815,0.091666667,1,0,0,1.499,Diorite_13,3,13,4,8,1.499,0.09537037,-0.381481481,1,0,0,1.1773,Peridotite_rect,7,1.177,0,8,0,8,0,1,,,,,,,,,,,,,
60d50ceb7c563c73f91d9ec5,SCN,2024-06-25_11h39.03.650,LearnStrategy,2023.2.3,Win32,60.24096386,4,1,10,0.214814815,0.068518519,1,0,0,1.7155,Andesite_06,1,06,4,6,1.716,-0.375925926,-0.251851852,1,0,0,1.2108,Andesite_rect,1,1.211,1,9,0,9,0,1,,,,,,,,,,,,,
60d50ceb7c563c73f91d9ec5,SCN,2024-06-25_11h39.03.650,LearnStrategy,2023.2.3,Win32,60.24096386,4,1,11,0.433333333,0.081481481,1,0,0,1.0154,Pumice_08,8,08,4,7,1.015,0.405555556,-0.384259259,1,0,0,1.8939,Pumice_rect,8,1.894,1,10,0,10,0,1,,,,,,,,,,,,,
60d50ceb7c563c73f91d9ec5,SCN,2024-06-25_11h39.03.650,LearnStrategy,2023.2.3,Win32,60.24096386,4,1,12,0.556481481,0.224074074,1,0,0,1.6325,Pumice_09,8,09,5,8,1.632,0.380555556,-0.418518519,1,0,0,0.9774,Pumice_rect,8,0.977,1,11,0,11,0,1,,,,,,,,,,,,,
60d50ceb7c563c73f91d9ec5,SCN,2024-06-25_11h39.03.650,LearnStrategy,2023.2.3,Win32,60.24096386,4,1,13,0.387962963,0.240740741,1,0,0,0.799,Basalt_12,2,12,5,7,0.799,0.098148148,-0.248148148,1,0,0,1.4938,Diorite_rect,3,1.494,0,12,0,12,0,1,,,,,,,,,,,,,
60d50ceb7c563c73f91d9ec5,SCN,2024-06-25_11h39.03.650,LearnStrategy,2023.2.3,Win32,60.24096386,4,1,14,-0.526851852,0.22962963,1,0,0,1.4323,Basalt_11,2,11,5,1,1.432,-0.119444444,-0.249074074,1,0,0,1.0776,Basalt_rect,2,1.078,1,13,0,13,0,1,,,,,,,,,,,,,
60d50ceb7c563c73f91d9ec5,SCN,2024-06-25_11h39.03.650,LearnStrategy,2023.2.3,Win32,60.24096386,4,1,15,-0.540740741,-0.105555556,1,0,0,1.2657,Gabbro_12,4,12,3,1,1.266,-0.376851852,-0.24537037,1,0,0,1.5275,Andesite_rect,1,1.528,0,14,0,14,0,1,,,,,,,,,,,,,
60d50ceb7c563c73f91d9ec5,SCN,2024-06-25_11h39.03.650,LearnStrategy,2023.2.3,Win32,60.24096386,4,1,16,0.102777778,-0.273148148,1,0,0,3.2487,Andesite_02,1,02,2,5,3.249,0.085185185,-0.248148148,1,0,0,1.0272,Diorite_rect,3,1.027,0,15,0,15,0,1,,,,,,,,,,,,,
60d50ceb7c563c73f91d9ec5,SCN,2024-06-25_11h39.03.650,LearnStrategy,2023.2.3,Win32,60.24096386,4,2,1,,,,,,,,1,14,,,,,,,,,,,1,1.961,1,,,,,,-0.358333333,-0.231481481,1,0,0,1.9608,Andesite_rect,0,0,0,0,1,
60d50ceb7c563c73f91d9ec5,SCN,2024-06-25_11h39.03.650,LearnStrategy,2023.2.3,Win32,60.24096386,4,2,2,,,,,,,,5,04,,,,,,,,,,,5,0.911,1,,,,,,-0.346296296,-0.394444444,1,0,0,0.9111,Obsidian_rect,1,0,1,0,1,
60d50ceb7c563c73f91d9ec5,SCN,2024-06-25_11h39.03.650,LearnStrategy,2023.2.3,Win32,60.24096386,4,2,3,,,,,,,,4,10,,,,,,,,,,,8,1.777,0,,,,,,0.439814815,-0.396296296,1,0,0,1.7773,Pumice_rect,2,0,2,0,1,
60d50ceb7c563c73f91d9ec5,SCN,2024-06-25_11h39.03.650,LearnStrategy,2023.2.3,Win32,60.24096386,4,2,4,,,,,,,,4,09,,,,,,,,,,,2,3.06,0,,,,,,-0.093518519,-0.262037037,1,0,0,3.0604,Basalt_rect,3,0,3,0,1,
60d50ceb7c563c73f91d9ec5,SCN,2024-06-25_11h39.03.650,LearnStrategy,2023.2.3,Win32,60.24096386,4,2,5,,,,,,,,3,07,,,,,,,,,,,7,1.255,0,,,,,,0.146296296,-0.398148148,1,0,0,1.2553,Peridotite_rect,4,0,4,0,1,
60d50ceb7c563c73f91d9ec5,SCN,2024-06-25_11h39.03.650,LearnStrategy,2023.2.3,Win32,60.24096386,4,2,6,,,,,,,,6,11,,,,,,,,,,,6,0.911,1,,,,,,-0.085185185,-0.400925926,1,0,0,0.911,Pegmatite_rect,5,0,5,0,1,
60d50ceb7c563c73f91d9ec5,SCN,2024-06-25_11h39.03.650,LearnStrategy,2023.2.3,Win32,60.24096386,4,2,7,,,,,,,,7,15,,,,,,,,,,,7,0.995,1,,,,,,0.110185185,-0.409259259,1,0,0,0.9953,Peridotite_rect,6,0,6,0,1,
60d50ceb7c563c73f91d9ec5,SCN,2024-06-25_11h39.03.650,LearnStrategy,2023.2.3,Win32,60.24096386,4,2,8,,,,,,,,3,02,,,,,,,,,,,7,1.227,0,,,,,,0.107407407,-0.402777778,1,0,0,1.2273,Peridotite_rect,7,0,7,0,1,
60d50ceb7c563c73f91d9ec5,SCN,2024-06-25_11h39.03.650,LearnStrategy,2023.2.3,Win32,60.24096386,4,2,9,,,,,,,,6,09,,,,,,,,,,,7,1.995,0,,,,,,0.114814815,-0.403703704,1,0,0,1.9945,Peridotite_rect,8,0,8,0,1,
60d50ceb7c563c73f91d9ec5,SCN,2024-06-25_11h39.03.650,LearnStrategy,2023.2.3,Win32,60.24096386,4,2,10,,,,,,,,8,16,,,,,,,,,,,8,1.211,1,,,,,,0.394444444,-0.410185185,1,0,0,1.2111,Pumice_rect,9,0,9,0,1,
60d50ceb7c563c73f91d9ec5,SCN,2024-06-25_11h39.03.650,LearnStrategy,2023.2.3,Win32,60.24096386,4,2,11,,,,,,,,1,07,,,,,,,,,,,7,1.394,0,,,,,,0.07037037,-0.4,1,0,0,1.394,Peridotite_rect,10,0,10,0,1,
60d50ceb7c563c73f91d9ec5,SCN,2024-06-25_11h39.03.650,LearnStrategy,2023.2.3,Win32,60.24096386,4,2,12,,,,,,,,2,04,,,,,,,,,,,3,4.111,0,,,,,,0.092592593,-0.266666667,1,0,0,4.111,Diorite_rect,11,0,11,0,1,
60d50ceb7c563c73f91d9ec5,SCN,2024-06-25_11h39.03.650,LearnStrategy,2023.2.3,Win32,60.24096386,4,2,13,,,,,,,,7,10,,,,,,,,,,,7,1.072,1,,,,,,0.078703704,-0.417592593,1,0,0,1.0724,Peridotite_rect,12,0,12,0,1,
60d50ceb7c563c73f91d9ec5,SCN,2024-06-25_11h39.03.650,LearnStrategy,2023.2.3,Win32,60.24096386,4,2,14,,,,,,,,5,08,,,,,,,,,,,5,0.845,1,,,,,,-0.408333333,-0.392592593,1,0,0,0.8448,Obsidian_rect,13,0,13,0,1,
60d50ceb7c563c73f91d9ec5,SCN,2024-06-25_11h39.03.650,LearnStrategy,2023.2.3,Win32,60.24096386,4,2,15,,,,,,,,8,04,,,,,,,,,,,8,0.928,1,,,,,,0.418518519,-0.412037037,1,0,0,0.928,Pumice_rect,14,0,14,0,1,
60d50ceb7c563c73f91d9ec5,SCN,2024-06-25_11h39.03.650,LearnStrategy,2023.2.3,Win32,60.24096386,4,2,16,,,,,,,,2,10,,,,,,,,,,,2,2.178,1,,,,,,-0.113888889,-0.24537037,1,0,0,2.1777,Basalt_rect,15,0,15,0,1,
60d50ceb7c563c73f91d9ec5,SCN,2024-06-25_11h39.03.650,LearnStrategy,2023.2.3,Win32,60.24096386,5,1,1,0.087037037,-0.39537037,1,0,0,1.4995,Andesite_01,1,01,1,5,1.5,0.089814815,-0.256481481,1,0,0,1.3274,Diorite_rect,3,1.327,0,0,0,0,0,1,,,,,,,,,,,,,
60d50ceb7c563c73f91d9ec5,SCN,2024-06-25_11h39.03.650,LearnStrategy,2023.2.3,Win32,60.24096386,5,1,2,-0.055555556,-0.289814815,1,0,0,1.7492,Diorite_11,3,11,2,4,1.749,-0.377777778,-0.248148148,1,0,0,1.4106,Andesite_rect,1,1.411,0,1,0,1,0,1,,,,,,,,,,,,,
60d50ceb7c563c73f91d9ec5,SCN,2024-06-25_11h39.03.650,LearnStrategy,2023.2.3,Win32,60.24096386,5,1,3,0.52037037,-0.263888889,1,0,0,1.6323,Peridotite_16,7,16,2,8,1.632,0.148148148,-0.384259259,1,0,0,1.8938,Peridotite_rect,7,1.894,1,2,0,2,0,1,,,,,,,,,,,,,
60d50ceb7c563c73f91d9ec5,SCN,2024-06-25_11h39.03.650,LearnStrategy,2023.2.3,Win32,60.24096386,5,1,4,0.431481481,-0.239814815,1,0,0,0.9657,Gabbro_14,4,14,2,7,0.966,0.198148148,-0.234259259,1,0,0,1.0441,Diorite_rect,3,1.044,0,3,0,3,0,1,,,,,,,,,,,,,
60d50ceb7c563c73f91d9ec5,SCN,2024-06-25_11h39.03.650,LearnStrategy,2023.2.3,Win32,60.24096386,5,1,5,-0.365740741,0.099074074,1,0,0,2.1323,Gabbro_16,4,16,4,2,2.132,0.465740741,-0.267592593,1,0,0,0.5769,Gabbro_rect,4,0.577,1,4,0,4,0,1,,,,,,,,,,,,,
60d50ceb7c563c73f91d9ec5,SCN,2024-06-25_11h39.03.650,LearnStrategy,2023.2.3,Win32,60.24096386,5,1,6,-0.078703704,0.372222222,1,0,0,1.6493,Basalt_06,2,06,6,4,1.649,-0.126851852,-0.25,1,0,0,1.8108,Basalt_rect,2,1.811,1,5,0,5,0,1,,,,,,,,,,,,,
60d50ceb7c563c73f91d9ec5,SCN,2024-06-25_11h39.03.650,LearnStrategy,2023.2.3,Win32,60.24096386,5,1,7,0.224074074,0.121296296,1,0,0,1.899,Andesite_06,1,06,4,6,1.899,-0.076851852,-0.378703704,1,0,0,0.9276,Pegmatite_rect,6,0.928,0,6,0,6,0,1,,,,,,,,,,,,,
60d50ceb7c563c73f91d9ec5,SCN,2024-06-25_11h39.03.650,LearnStrategy,2023.2.3,Win32,60.24096386,5,1,8,-0.228703704,-0.278703704,1,0,0,1.7988,Pegmatite_10,6,10,2,3,1.799,0.12037037,-0.387962963,1,0,0,0.594,Peridotite_rect,7,0.594,0,7,0,7,0,1,,,,,,,,,,,,,
60d50ceb7c563c73f91d9ec5,SCN,2024-06-25_11h39.03.650,LearnStrategy,2023.2.3,Win32,60.24096386,5,1,9,-0.060185185,-0.407407407,1,0,0,3.4658,Pegmatite_07,6,07,1,4,3.466,0.112037037,-0.256481481,1,0,0,1.0106,Diorite_rect,3,1.011,0,8,0,8,0,1,,,,,,,,,,,,,
60d50ceb7c563c73f91d9ec5,SCN,2024-06-25_11h39.03.650,LearnStrategy,2023.2.3,Win32,60.24096386,5,1,10,-0.390740741,-0.267592593,1,0,0,1.2991,Peridotite_04,7,04,2,2,1.299,-0.109259259,-0.37962963,1,0,0,0.7775,Pegmatite_rect,6,0.778,0,9,0,9,0,1,,,,,,,,,,,,,
60d50ceb7c563c73f91d9ec5,SCN,2024-06-25_11h39.03.650,LearnStrategy,2023.2.3,Win32,60.24096386,5,1,11,0.390740741,-0.287962963,1,0,0,1.1657,Gabbro_14,4,14,2,7,1.166,0.175925926,-0.237037037,1,0,0,0.8607,Diorite_rect,3,0.861,0,10,0,10,0,1,,,,,,,,,,,,,
60d50ceb7c563c73f91d9ec5,SCN,2024-06-25_11h39.03.650,LearnStrategy,2023.2.3,Win32,60.24096386,5,1,12,0.567592593,0.230555556,1,0,0,1.8821,Pumice_09,8,09,5,8,1.882,0.366666667,-0.39537037,1,0,0,0.7439,Pumice_rect,8,0.744,1,11,0,11,0,1,,,,,,,,,,,,,
60d50ceb7c563c73f91d9ec5,SCN,2024-06-25_11h39.03.650,LearnStrategy,2023.2.3,Win32,60.24096386,5,1,13,0.575925926,0.382407407,1,0,0,1.0821,Andesite_09,1,09,6,8,1.082,-0.357407407,-0.25462963,1,0,0,1.2939,Andesite_rect,1,1.294,1,12,0,12,0,1,,,,,,,,,,,,,
60d50ceb7c563c73f91d9ec5,SCN,2024-06-25_11h39.03.650,LearnStrategy,2023.2.3,Win32,60.24096386,5,1,14,-0.058333333,0.060185185,1,0,0,0.8661,Diorite_10,3,10,4,4,0.866,0.155555556,-0.248148148,1,0,0,1.9106,Diorite_rect,3,1.911,1,13,0,13,0,1,,,,,,,,,,,,,
60d50ceb7c563c73f91d9ec5,SCN,2024-06-25_11h39.03.650,LearnStrategy,2023.2.3,Win32,60.24096386,5,1,15,-0.241666667,0.076851852,1,0,0,0.9988,Diorite_15,3,15,4,3,0.999,0.131481481,-0.243518519,1,0,0,0.6607,Diorite_rect,3,0.661,1,14,0,14,0,1,,,,,,,,,,,,,
60d50ceb7c563c73f91d9ec5,SCN,2024-06-25_11h39.03.650,LearnStrategy,2023.2.3,Win32,60.24096386,5,1,16,0.105555556,0.275,1,0,0,0.8992,Peridotite_07,7,07,5,5,0.899,0.162037037,-0.240740741,1,0,0,1.0273,Diorite_rect,3,1.027,0,15,0,15,0,1,,,,,,,,,,,,,
60d50ceb7c563c73f91d9ec5,SCN,2024-06-25_11h39.03.650,LearnStrategy,2023.2.3,Win32,60.24096386,5,2,1,,,,,,,,3,09,,,,,,,,,,,7,0.978,0,,,,,,0.127777778,-0.39537037,1,0,0,0.9779,Peridotite_rect,0,0,0,0,1,
60d50ceb7c563c73f91d9ec5,SCN,2024-06-25_11h39.03.650,LearnStrategy,2023.2.3,Win32,60.24096386,5,2,2,,,,,,,,1,10,,,,,,,,,,,1,1.794,1,,,,,,-0.343518519,-0.256481481,1,0,0,1.794,Andesite_rect,1,0,1,0,1,
60d50ceb7c563c73f91d9ec5,SCN,2024-06-25_11h39.03.650,LearnStrategy,2023.2.3,Win32,60.24096386,5,2,3,,,,,,,,6,03,,,,,,,,,,,7,1.078,0,,,,,,0.139814815,-0.39537037,1,0,0,1.0779,Peridotite_rect,2,0,2,0,1,
60d50ceb7c563c73f91d9ec5,SCN,2024-06-25_11h39.03.650,LearnStrategy,2023.2.3,Win32,60.24096386,5,2,4,,,,,,,,4,01,,,,,,,,,,,3,2.028,0,,,,,,0.12037037,-0.266666667,1,0,0,2.0276,Diorite_rect,3,0,3,0,1,
60d50ceb7c563c73f91d9ec5,SCN,2024-06-25_11h39.03.650,LearnStrategy,2023.2.3,Win32,60.24096386,5,2,5,,,,,,,,3,16,,,,,,,,,,,7,0.911,0,,,,,,0.087037037,-0.389814815,1,0,0,0.9109,Peridotite_rect,4,0,4,0,1,
60d50ceb7c563c73f91d9ec5,SCN,2024-06-25_11h39.03.650,LearnStrategy,2023.2.3,Win32,60.24096386,5,2,6,,,,,,,,6,13,,,,,,,,,,,7,0.778,0,,,,,,0.087037037,-0.389814815,1,0,0,0.778,Peridotite_rect,5,0,5,0,1,
60d50ceb7c563c73f91d9ec5,SCN,2024-06-25_11h39.03.650,LearnStrategy,2023.2.3,Win32,60.24096386,5,2,7,,,,,,,,5,14,,,,,,,,,,,5,1.628,1,,,,,,-0.361111111,-0.398148148,1,0,0,1.628,Obsidian_rect,6,0,6,0,1,
60d50ceb7c563c73f91d9ec5,SCN,2024-06-25_11h39.03.650,LearnStrategy,2023.2.3,Win32,60.24096386,5,2,8,,,,,,,,7,08,,,,,,,,,,,7,1.644,1,,,,,,0.092592593,-0.393518519,1,0,0,1.6438,Peridotite_rect,7,0,7,0,1,
60d50ceb7c563c73f91d9ec5,SCN,2024-06-25_11h39.03.650,LearnStrategy,2023.2.3,Win32,60.24096386,5,2,9,,,,,,,,7,12,,,,,,,,,,,7,0.661,1,,,,,,0.092592593,-0.393518519,1,0,0,0.6612,Peridotite_rect,8,0,8,0,1,
60d50ceb7c563c73f91d9ec5,SCN,2024-06-25_11h39.03.650,LearnStrategy,2023.2.3,Win32,60.24096386,5,2,10,,,,,,,,2,16,,,,,,,,,,,4,1.827,0,,,,,,0.382407407,-0.252777778,1,0,0,1.8274,Gabbro_rect,9,0,9,0,1,
60d50ceb7c563c73f91d9ec5,SCN,2024-06-25_11h39.03.650,LearnStrategy,2023.2.3,Win32,60.24096386,5,2,11,,,,,,,,5,09,,,,,,,,,,,5,1.039,1,,,,,,-0.347222222,-0.387037037,1,0,0,1.0391,Obsidian_rect,10,0,10,0,1,
60d50ceb7c563c73f91d9ec5,SCN,2024-06-25_11h39.03.650,LearnStrategy,2023.2.3,Win32,60.24096386,5,2,12,,,,,,,,8,14,,,,,,,,,,,8,1.043,1,,,,,,0.462962963,-0.409259259,1,0,0,1.0434,Pumice_rect,11,0,11,0,1,
60d50ceb7c563c73f91d9ec5,SCN,2024-06-25_11h39.03.650,LearnStrategy,2023.2.3,Win32,60.24096386,5,2,13,,,,,,,,4,15,,,,,,,,,,,7,1.661,0,,,,,,0.087037037,-0.406481481,1,0,0,1.661,Peridotite_rect,12,0,12,0,1,
60d50ceb7c563c73f91d9ec5,SCN,2024-06-25_11h39.03.650,LearnStrategy,2023.2.3,Win32,60.24096386,5,2,14,,,,,,,,2,01,,,,,,,,,,,2,1.528,1,,,,,,-0.119444444,-0.242592593,1,0,0,1.5279,Basalt_rect,13,0,13,0,1,
60d50ceb7c563c73f91d9ec5,SCN,2024-06-25_11h39.03.650,LearnStrategy,2023.2.3,Win32,60.24096386,5,2,15,,,,,,,,1,03,,,,,,,,,,,1,2.044,1,,,,,,-0.37962963,-0.255555556,1,0,0,2.0443,Andesite_rect,14,0,14,0,1,
60d50ceb7c563c73f91d9ec5,SCN,2024-06-25_11h39.03.650,LearnStrategy,2023.2.3,Win32,60.24096386,5,2,16,,,,,,,,8,10,,,,,,,,,,,8,0.861,1,,,,,,0.437037037,-0.414814815,1,0,0,0.8607,Pumice_rect,15,0,15,0,1,
60d50ceb7c563c73f91d9ec5,SCN,2024-06-25_11h39.03.650,LearnStrategy,2023.2.3,Win32,60.24096386,6,1,1,-0.558333333,0.376851852,1,0,0,1.2159,Gabbro_13,4,13,6,1,1.216,0.082407407,-0.239814815,1,0,0,4.0438,Diorite_rect,3,4.044,0,0,0,0,0,1,,,,,,,,,,,,,
60d50ceb7c563c73f91d9ec5,SCN,2024-06-25_11h39.03.650,LearnStrategy,2023.2.3,Win32,60.24096386,6,1,2,-0.388888889,0.374074074,1,0,0,0.9323,Obsidian_06,5,06,6,2,0.932,-0.361111111,-0.392592593,1,0,0,0.944,Obsidian_rect,5,0.944,1,1,0,1,0,1,,,,,,,,,,,,,
60d50ceb7c563c73f91d9ec5,SCN,2024-06-25_11h39.03.650,LearnStrategy,2023.2.3,Win32,60.24096386,6,1,3,-0.213888889,0.391666667,1,0,0,0.7825,Gabbro_05,4,05,6,3,0.783,0.114814815,-0.387962963,1,0,0,1.3107,Peridotite_rect,7,1.311,0,2,0,2,0,1,,,,,,,,,,,,,
60d50ceb7c563c73f91d9ec5,SCN,2024-06-25_11h39.03.650,LearnStrategy,2023.2.3,Win32,60.24096386,6,1,4,-0.098148148,0.387962963,1,0,0,1.899,Basalt_06,2,06,6,4,1.899,-0.087962963,-0.228703704,1,0,0,0.8442,Basalt_rect,2,0.844,1,3,0,3,0,1,,,,,,,,,,,,,
60d50ceb7c563c73f91d9ec5,SCN,2024-06-25_11h39.03.650,LearnStrategy,2023.2.3,Win32,60.24096386,6,1,5,0.089814815,0.394444444,1,0,0,1.8157,Diorite_08,3,08,6,5,1.816,0.14537037,-0.387962963,1,0,0,1.2275,Peridotite_rect,7,1.228,0,4,0,4,0,1,,,,,,,,,,,,,
60d50ceb7c563c73f91d9ec5,SCN,2024-06-25_11h39.03.650,LearnStrategy,2023.2.3,Win32,60.24096386,6,1,6,0.226851852,0.382407407,1,0,0,1.5657,Pegmatite_15,6,15,6,6,1.566,-0.337962963,-0.387037037,1,0,0,0.8276,Obsidian_rect,5,0.828,0,5,0,5,0,1,,,,,,,,,,,,,
60d50ceb7c563c73f91d9ec5,SCN,2024-06-25_11h39.03.650,LearnStrategy,2023.2.3,Win32,60.24096386,6,1,7,-0.388888889,0.099074074,1,0,0,3.4823,Gabbro_16,4,16,4,2,3.482,0.09537037,-0.253703704,1,0,0,1.2381,Diorite_rect,3,1.238,0,6,0,6,0,1,,,,,,,,,,,,,
60d50ceb7c563c73f91d9ec5,SCN,2024-06-25_11h39.03.650,LearnStrategy,2023.2.3,Win32,60.24096386,6,1,8,0.427777778,-0.125,1,0,0,0.9491,Obsidian_10,5,10,3,7,0.949,-0.355555556,-0.385185185,1,0,0,0.9487,Obsidian_rect,5,0.949,1,7,0,7,0,1,,,,,,,,,,,,,
60d50ceb7c563c73f91d9ec5,SCN,2024-06-25_11h39.03.650,LearnStrategy,2023.2.3,Win32,60.24096386,6,1,9,0.548148148,-0.12037037,1,0,0,0.9158,Obsidian_05,5,05,3,8,0.916,-0.07962963,-0.403703704,1,0,0,1.0939,Pegmatite_rect,6,1.094,0,8,0,8,0,1,,,,,,,,,,,,,
60d50ceb7c563c73f91d9ec5,SCN,2024-06-25_11h39.03.650,LearnStrategy,2023.2.3,Win32,60.24096386,6,1,10,-0.231481481,-0.091666667,1,0,0,1.0655,Obsidian_02,5,02,3,3,1.065,-0.362962963,-0.390740741,1,0,0,1.8107,Obsidian_rect,5,1.811,1,9,0,9,0,1,,,,,,,,,,,,,
60d50ceb7c563c73f91d9ec5,SCN,2024-06-25_11h39.03.650,LearnStrategy,2023.2.3,Win32,60.24096386,6,1,11,-0.066666667,-0.287037037,1,0,0,1.1657,Diorite_11,3,11,2,4,1.166,0.157407407,-0.259259259,1,0,0,2.0437,Diorite_rect,3,2.044,1,10,0,10,0,1,,,,,,,,,,,,,
60d50ceb7c563c73f91d9ec5,SCN,2024-06-25_11h39.03.650,LearnStrategy,2023.2.3,Win32,60.24096386,6,1,12,0.084259259,-0.100925926,1,0,0,0.7156,Diorite_14,3,14,3,5,0.716,0.137962963,-0.235185185,1,0,0,0.5606,Diorite_rect,3,0.561,1,11,0,11,0,1,,,,,,,,,,,,,
60d50ceb7c563c73f91d9ec5,SCN,2024-06-25_11h39.03.650,LearnStrategy,2023.2.3,Win32,60.24096386,6,1,13,-0.091666667,0.071296296,1,0,0,0.9157,Diorite_10,3,10,4,4,0.916,0.12962963,-0.24537037,1,0,0,1.3107,Diorite_rect,3,1.311,1,12,0,12,0,1,,,,,,,,,,,,,
60d50ceb7c563c73f91d9ec5,SCN,2024-06-25_11h39.03.650,LearnStrategy,2023.2.3,Win32,60.24096386,6,1,14,-0.219444444,0.062962963,1,0,0,1.2823,Diorite_15,3,15,4,3,1.282,0.124074074,-0.257407407,1,0,0,1.1775,Diorite_rect,3,1.178,1,13,0,13,0,1,,,,,,,,,,,,,
60d50ceb7c563c73f91d9ec5,SCN,2024-06-25_11h39.03.650,LearnStrategy,2023.2.3,Win32,60.24096386,6,1,15,-0.393518519,0.082407407,1,0,0,1.9822,Gabbro_16,4,16,4,2,1.982,0.428703704,-0.24537037,1,0,0,0.7772,Gabbro_rect,4,0.777,1,14,0,14,0,1,,,,,,,,,,,,,
60d50ceb7c563c73f91d9ec5,SCN,2024-06-25_11h39.03.650,LearnStrategy,2023.2.3,Win32,60.24096386,6,1,16,-0.217592593,0.224074074,1,0,0,1.5157,Gabbro_11,4,11,5,3,1.516,-0.106481481,-0.264814815,1,0,0,1.0942,Basalt_rect,2,1.094,0,15,0,15,0,1,,,,,,,,,,,,,
60d50ceb7c563c73f91d9ec5,SCN,2024-06-25_11h39.03.650,LearnStrategy,2023.2.3,Win32,60.24096386,6,2,1,,,,,,,,2,09,,,,,,,,,,,4,1.328,0,,,,,,0.407407407,-0.248148148,1,0,0,1.3281,Gabbro_rect,0,0,0,0,1,
60d50ceb7c563c73f91d9ec5,SCN,2024-06-25_11h39.03.650,LearnStrategy,2023.2.3,Win32,60.24096386,6,2,2,,,,,,,,7,06,,,,,,,,,,,6,2.077,0,,,,,,-0.071296296,-0.406481481,1,0,0,2.0774,Pegmatite_rect,1,0,1,0,1,
60d50ceb7c563c73f91d9ec5,SCN,2024-06-25_11h39.03.650,LearnStrategy,2023.2.3,Win32,60.24096386,6,2,3,,,,,,,,5,07,,,,,,,,,,,5,1.128,1,,,,,,-0.327777778,-0.392592593,1,0,0,1.1276,Obsidian_rect,2,0,2,0,1,
60d50ceb7c563c73f91d9ec5,SCN,2024-06-25_11h39.03.650,LearnStrategy,2023.2.3,Win32,60.24096386,6,2,4,,,,,,,,4,08,,,,,,,,,,,4,4.011,1,,,,,,0.42962963,-0.239814815,1,0,0,4.0113,Gabbro_rect,3,0,3,0,1,
60d50ceb7c563c73f91d9ec5,SCN,2024-06-25_11h39.03.650,LearnStrategy,2023.2.3,Win32,60.24096386,6,2,5,,,,,,,,7,02,,,,,,,,,,,7,0.956,1,,,,,,0.17962963,-0.414814815,1,0,0,0.9559,Peridotite_rect,4,0,4,0,1,
60d50ceb7c563c73f91d9ec5,SCN,2024-06-25_11h39.03.650,LearnStrategy,2023.2.3,Win32,60.24096386,6,2,6,,,,,,,,3,06,,,,,,,,,,,3,2.344,1,,,,,,0.142592593,-0.24537037,1,0,0,2.3442,Diorite_rect,5,0,5,0,1,
60d50ceb7c563c73f91d9ec5,SCN,2024-06-25_11h39.03.650,LearnStrategy,2023.2.3,Win32,60.24096386,6,2,7,,,,,,,,1,11,,,,,,,,,,,1,1.444,1,,,,,,-0.376851852,-0.249074074,1,0,0,1.4443,Andesite_rect,6,0,6,0,1,
60d50ceb7c563c73f91d9ec5,SCN,2024-06-25_11h39.03.650,LearnStrategy,2023.2.3,Win32,60.24096386,6,2,8,,,,,,,,3,12,,,,,,,,,,,7,1.078,0,,,,,,0.12962963,-0.394444444,1,0,0,1.0776,Peridotite_rect,7,0,7,0,1,
60d50ceb7c563c73f91d9ec5,SCN,2024-06-25_11h39.03.650,LearnStrategy,2023.2.3,Win32,60.24096386,6,2,9,,,,,,,,5,16,,,,,,,,,,,5,0.995,1,,,,,,-0.352777778,-0.389814815,1,0,0,0.9945,Obsidian_rect,8,0,8,0,1,
60d50ceb7c563c73f91d9ec5,SCN,2024-06-25_11h39.03.650,LearnStrategy,2023.2.3,Win32,60.24096386,6,2,10,,,,,,,,6,16,,,,,,,,,,,3,3.278,0,,,,,,0.150925926,-0.24537037,1,0,0,3.278,Diorite_rect,9,0,9,0,1,
60d50ceb7c563c73f91d9ec5,SCN,2024-06-25_11h39.03.650,LearnStrategy,2023.2.3,Win32,60.24096386,6,2,11,,,,,,,,4,03,,,,,,,,,,,7,2.789,0,,,,,,0.12962963,-0.403703704,1,0,0,2.7891,Peridotite_rect,10,0,10,0,1,
60d50ceb7c563c73f91d9ec5,SCN,2024-06-25_11h39.03.650,LearnStrategy,2023.2.3,Win32,60.24096386,6,2,12,,,,,,,,1,04,,,,,,,,,,,4,3.511,0,,,,,,0.371296296,-0.258333333,1,0,0,3.5111,Gabbro_rect,11,0,11,0,1,
60d50ceb7c563c73f91d9ec5,SCN,2024-06-25_11h39.03.650,LearnStrategy,2023.2.3,Win32,60.24096386,6,2,13,,,,,,,,8,05,,,,,,,,,,,8,0.923,1,,,,,,0.389814815,-0.411111111,1,0,0,0.9226,Pumice_rect,12,0,12,0,1,
60d50ceb7c563c73f91d9ec5,SCN,2024-06-25_11h39.03.650,LearnStrategy,2023.2.3,Win32,60.24096386,6,2,14,,,,,,,,8,13,,,,,,,,,,,8,0.678,1,,,,,,0.403703704,-0.391666667,1,0,0,0.6781,Pumice_rect,13,0,13,0,1,
60d50ceb7c563c73f91d9ec5,SCN,2024-06-25_11h39.03.650,LearnStrategy,2023.2.3,Win32,60.24096386,6,2,15,,,,,,,,6,06,,,,,,,,,,,2,1.876,0,,,,,,-0.126851852,-0.263888889,1,0,0,1.8763,Basalt_rect,14,0,14,0,1,
60d50ceb7c563c73f91d9ec5,SCN,2024-06-25_11h39.03.650,LearnStrategy,2023.2.3,Win32,60.24096386,6,2,16,,,,,,,,2,02,,,,,,,,,,,2,0.722,1,,,,,,-0.101851852,-0.230555556,1,0,0,0.7223,Basalt_rect,15,0,15,0,1,
60d50ceb7c563c73f91d9ec5,SCN,2024-06-25_11h39.03.650,LearnStrategy,2023.2.3,Win32,60.24096386,7,1,1,0.075925926,0.076851852,1,0,0,0.9325,Pumice_02,8,02,4,5,0.933,0.42037037,-0.37962963,1,0,0,0.7272,Pumice_rect,8,0.727,1,0,0,0,0,1,,,,,,,,,,,,,
60d50ceb7c563c73f91d9ec5,SCN,2024-06-25_11h39.03.650,LearnStrategy,2023.2.3,Win32,60.24096386,7,1,2,0.55,-0.281481481,1,0,0,1.0819,Peridotite_16,7,16,2,8,1.082,-0.103703704,-0.392592593,1,0,0,2.8939,Pegmatite_rect,6,2.894,0,1,0,1,0,1,,,,,,,,,,,,,
60d50ceb7c563c73f91d9ec5,SCN,2024-06-25_11h39.03.650,LearnStrategy,2023.2.3,Win32,60.24096386,7,1,3,0.097222222,-0.436111111,1,0,0,2.1324,Andesite_01,1,01,1,5,2.132,0.112962963,-0.258333333,1,0,0,1.6109,Diorite_rect,3,1.611,0,2,0,2,0,1,,,,,,,,,,,,,
60d50ceb7c563c73f91d9ec5,SCN,2024-06-25_11h39.03.650,LearnStrategy,2023.2.3,Win32,60.24096386,7,1,4,-0.247222222,-0.415740741,1,0,0,1.149,Basalt_14,2,14,1,3,1.149,0.439814815,-0.401851852,1,0,0,0.8773,Pumice_rect,8,0.877,0,3,0,3,0,1,,,,,,,,,,,,,
60d50ceb7c563c73f91d9ec5,SCN,2024-06-25_11h39.03.650,LearnStrategy,2023.2.3,Win32,60.24096386,7,1,5,-0.410185185,-0.396296296,1,0,0,1.2656,Pumice_06,8,06,1,2,1.266,0.393518519,-0.408333333,1,0,0,1.0941,Pumice_rect,8,1.094,1,4,0,4,0,1,,,,,,,,,,,,,
60d50ceb7c563c73f91d9ec5,SCN,2024-06-25_11h39.03.650,LearnStrategy,2023.2.3,Win32,60.24096386,7,1,6,-0.515740741,-0.407407407,1,0,0,1.2325,Peridotite_13,7,13,1,1,1.232,0.124074074,-0.414814815,1,0,0,0.5605,Peridotite_rect,7,0.561,1,5,0,5,0,1,,,,,,,,,,,,,
60d50ceb7c563c73f91d9ec5,SCN,2024-06-25_11h39.03.650,LearnStrategy,2023.2.3,Win32,60.24096386,7,1,7,-0.533333333,-0.256481481,1,0,0,0.6655,Peridotite_14,7,14,2,1,0.666,0.092592593,-0.256481481,1,0,0,1.761,Diorite_rect,3,1.761,0,6,0,6,0,1,,,,,,,,,,,,,
60d50ceb7c563c73f91d9ec5,SCN,2024-06-25_11h39.03.650,LearnStrategy,2023.2.3,Win32,60.24096386,7,1,8,-0.435185185,-0.301851852,1,0,0,0.749,Peridotite_04,7,04,2,2,0.749,0.090740741,-0.39537037,1,0,0,1.744,Peridotite_rect,7,1.744,1,7,0,7,0,1,,,,,,,,,,,,,
60d50ceb7c563c73f91d9ec5,SCN,2024-06-25_11h39.03.650,LearnStrategy,2023.2.3,Win32,60.24096386,7,1,9,-0.199074074,-0.292592593,1,0,0,1.0327,Pegmatite_10,6,10,2,3,1.033,-0.094444444,-0.410185185,1,0,0,1.177,Pegmatite_rect,6,1.177,1,8,0,8,0,1,,,,,,,,,,,,,
60d50ceb7c563c73f91d9ec5,SCN,2024-06-25_11h39.03.650,LearnStrategy,2023.2.3,Win32,60.24096386,7,1,10,-0.049074074,-0.27037037,1,0,0,0.9993,Diorite_11,3,11,2,4,0.999,0.151851852,-0.261111111,1,0,0,1.3437,Diorite_rect,3,1.344,1,9,0,9,0,1,,,,,,,,,,,,,
60d50ceb7c563c73f91d9ec5,SCN,2024-06-25_11h39.03.650,LearnStrategy,2023.2.3,Win32,60.24096386,7,1,11,0.103703704,-0.267592593,1,0,0,0.9491,Andesite_02,1,02,2,5,0.949,0.156481481,-0.261111111,1,0,0,1.194,Diorite_rect,3,1.194,0,10,0,10,0,1,,,,,,,,,,,,,
60d50ceb7c563c73f91d9ec5,SCN,2024-06-25_11h39.03.650,LearnStrategy,2023.2.3,Win32,60.24096386,7,1,12,0.267592593,-0.273148148,1,0,0,0.9312,Pegmatite_05,6,05,2,6,0.931,-0.350925926,-0.396296296,1,0,0,1.011,Obsidian_rect,5,1.011,0,11,0,11,0,1,,,,,,,,,,,,,
60d50ceb7c563c73f91d9ec5,SCN,2024-06-25_11h39.03.650,LearnStrategy,2023.2.3,Win32,60.24096386,7,1,13,0.412962963,-0.276851852,1,0,0,0.8153,Gabbro_14,4,14,2,7,0.815,0.431481481,-0.248148148,1,0,0,1.4939,Gabbro_rect,4,1.494,1,12,0,12,0,1,,,,,,,,,,,,,
60d50ceb7c563c73f91d9ec5,SCN,2024-06-25_11h39.03.650,LearnStrategy,2023.2.3,Win32,60.24096386,7,1,14,0.562037037,-0.102777778,1,0,0,0.8658,Obsidian_05,5,05,3,8,0.866,-0.383333333,-0.39537037,1,0,0,0.6776,Obsidian_rect,5,0.678,1,13,0,13,0,1,,,,,,,,,,,,,
60d50ceb7c563c73f91d9ec5,SCN,2024-06-25_11h39.03.650,LearnStrategy,2023.2.3,Win32,60.24096386,7,1,15,0.407407407,-0.122222222,1,0,0,0.9491,Obsidian_10,5,10,3,7,0.949,-0.394444444,-0.385185185,1,0,0,0.6775,Obsidian_rect,5,0.678,1,14,0,14,0,1,,,,,,,,,,,,,
60d50ceb7c563c73f91d9ec5,SCN,2024-06-25_11h39.03.650,LearnStrategy,2023.2.3,Win32,60.24096386,7,1,16,0.235185185,-0.100925926,1,0,0,0.6659,Andesite_16,1,16,3,6,0.666,0.375925926,-0.235185185,1,0,0,1.3773,Gabbro_rect,4,1.377,0,15,0,15,0,1,,,,,,,,,,,,,
60d50ceb7c563c73f91d9ec5,SCN,2024-06-25_11h39.03.650,LearnStrategy,2023.2.3,Win32,60.24096386,7,2,1,,,,,,,,1,14,,,,,,,,,,,1,2.111,1,,,,,,-0.358333333,-0.267592593,1,0,0,2.111,Andesite_rect,0,0,0,0,1,
60d50ceb7c563c73f91d9ec5,SCN,2024-06-25_11h39.03.650,LearnStrategy,2023.2.3,Win32,60.24096386,7,2,2,,,,,,,,8,05,,,,,,,,,,,8,0.844,1,,,,,,0.442592593,-0.401851852,1,0,0,0.8441,Pumice_rect,1,0,1,0,1,
60d50ceb7c563c73f91d9ec5,SCN,2024-06-25_11h39.03.650,LearnStrategy,2023.2.3,Win32,60.24096386,7,2,3,,,,,,,,3,09,,,,,,,,,,,6,1.378,0,,,,,,-0.090740741,-0.42037037,1,0,0,1.3779,Pegmatite_rect,2,0,2,0,1,
60d50ceb7c563c73f91d9ec5,SCN,2024-06-25_11h39.03.650,LearnStrategy,2023.2.3,Win32,60.24096386,7,2,4,,,,,,,,3,07,,,,,,,,,,,3,2.711,1,,,,,,0.09537037,-0.253703704,1,0,0,2.7108,Diorite_rect,3,0,3,0,1,
60d50ceb7c563c73f91d9ec5,SCN,2024-06-25_11h39.03.650,LearnStrategy,2023.2.3,Win32,60.24096386,7,2,5,,,,,,,,2,01,,,,,,,,,,,2,1.239,1,,,,,,-0.134259259,-0.253703704,1,0,0,1.2388,Basalt_rect,4,0,4,0,1,
60d50ceb7c563c73f91d9ec5,SCN,2024-06-25_11h39.03.650,LearnStrategy,2023.2.3,Win32,60.24096386,7,2,6,,,,,,,,1,11,,,,,,,,,,,3,1.128,0,,,,,,0.117592593,-0.256481481,1,0,0,1.1278,Diorite_rect,5,0,5,0,1,
60d50ceb7c563c73f91d9ec5,SCN,2024-06-25_11h39.03.650,LearnStrategy,2023.2.3,Win32,60.24096386,7,2,7,,,,,,,,4,03,,,,,,,,,,,6,1.694,0,,,,,,-0.093518519,-0.42037037,1,0,0,1.6943,Pegmatite_rect,6,0,6,0,1,
60d50ceb7c563c73f91d9ec5,SCN,2024-06-25_11h39.03.650,LearnStrategy,2023.2.3,Win32,60.24096386,7,2,8,,,,,,,,6,06,,,,,,,,,,,3,1.511,0,,,,,,0.14537037,-0.258333333,1,0,0,1.5112,Diorite_rect,7,0,7,0,1,
60d50ceb7c563c73f91d9ec5,SCN,2024-06-25_11h39.03.650,LearnStrategy,2023.2.3,Win32,60.24096386,7,2,9,,,,,,,,4,10,,,,,,,,,,,6,2.378,0,,,,,,-0.087037037,-0.389814815,1,0,0,2.3776,Pegmatite_rect,8,0,8,0,1,
60d50ceb7c563c73f91d9ec5,SCN,2024-06-25_11h39.03.650,LearnStrategy,2023.2.3,Win32,60.24096386,7,2,10,,,,,,,,7,12,,,,,,,,,,,6,0.739,0,,,,,,-0.090740741,-0.380555556,1,0,0,0.7387,Pegmatite_rect,9,0,9,0,1,
60d50ceb7c563c73f91d9ec5,SCN,2024-06-25_11h39.03.650,LearnStrategy,2023.2.3,Win32,60.24096386,7,2,11,,,,,,,,6,13,,,,,,,,,,,3,3.645,0,,,,,,0.161111111,-0.259259259,1,0,0,3.6446,Diorite_rect,10,0,10,0,1,
60d50ceb7c563c73f91d9ec5,SCN,2024-06-25_11h39.03.650,LearnStrategy,2023.2.3,Win32,60.24096386,7,2,12,,,,,,,,5,07,,,,,,,,,,,5,1.389,1,,,,,,-0.378703704,-0.388888889,1,0,0,1.3888,Obsidian_rect,11,0,11,0,1,
60d50ceb7c563c73f91d9ec5,SCN,2024-06-25_11h39.03.650,LearnStrategy,2023.2.3,Win32,60.24096386,7,2,13,,,,,,,,5,08,,,,,,,,,,,5,0.927,1,,,,,,-0.386111111,-0.39537037,1,0,0,0.9269,Obsidian_rect,12,0,12,0,1,
60d50ceb7c563c73f91d9ec5,SCN,2024-06-25_11h39.03.650,LearnStrategy,2023.2.3,Win32,60.24096386,7,2,14,,,,,,,,8,04,,,,,,,,,,,8,0.878,1,,,,,,0.398148148,-0.4,1,0,0,0.8779,Pumice_rect,13,0,13,0,1,
60d50ceb7c563c73f91d9ec5,SCN,2024-06-25_11h39.03.650,LearnStrategy,2023.2.3,Win32,60.24096386,7,2,15,,,,,,,,2,10,,,,,,,,,,,2,1.894,1,,,,,,-0.115740741,-0.261111111,1,0,0,1.8945,Basalt_rect,14,0,14,0,1,
60d50ceb7c563c73f91d9ec5,SCN,2024-06-25_11h39.03.650,LearnStrategy,2023.2.3,Win32,60.24096386,7,2,16,,,,,,,,7,10,,,,,,,,,,,3,1.861,0,,,,,,0.148148148,-0.233333333,1,0,0,1.8608,Diorite_rect,15,0,15,0,1,
60d50ceb7c563c73f91d9ec5,SCN,2024-06-25_11h39.03.650,LearnStrategy,2023.2.3,Win32,60.24096386,8,1,1,-0.074074074,0.090740741,1,0,0,1.7662,Diorite_10,3,10,4,4,1.766,0.109259259,-0.256481481,1,0,0,0.8771,Diorite_rect,3,0.877,1,0,0,0,0,1,,,,,,,,,,,,,
60d50ceb7c563c73f91d9ec5,SCN,2024-06-25_11h39.03.650,LearnStrategy,2023.2.3,Win32,60.24096386,8,1,2,0.07962963,0.085185185,1,0,0,0.6992,Pumice_02,8,02,4,5,0.699,0.391666667,-0.409259259,1,0,0,0.9442,Pumice_rect,8,0.944,1,1,0,1,0,1,,,,,,,,,,,,,
60d50ceb7c563c73f91d9ec5,SCN,2024-06-25_11h39.03.650,LearnStrategy,2023.2.3,Win32,60.24096386,8,1,3,0.375925926,0.071296296,1,0,0,1.0658,Pumice_08,8,08,4,7,1.066,-0.369444444,-0.244444444,1,0,0,0.8441,Andesite_rect,1,0.844,0,2,0,2,0,1,,,,,,,,,,,,,
60d50ceb7c563c73f91d9ec5,SCN,2024-06-25_11h39.03.650,LearnStrategy,2023.2.3,Win32,60.24096386,8,1,4,0.559259259,0.077777778,1,0,0,0.9658,Diorite_13,3,13,4,8,0.966,-0.080555556,-0.384259259,1,0,0,1.1766,Pegmatite_rect,6,1.177,0,3,0,3,0,1,,,,,,,,,,,,,
60d50ceb7c563c73f91d9ec5,SCN,2024-06-25_11h39.03.650,LearnStrategy,2023.2.3,Win32,60.24096386,8,1,5,-0.544444444,-0.127777778,1,0,0,1.2992,Gabbro_12,4,12,3,1,1.299,-0.062962963,-0.22962963,1,0,0,1.4276,Basalt_rect,2,1.428,0,4,0,4,0,1,,,,,,,,,,,,,
60d50ceb7c563c73f91d9ec5,SCN,2024-06-25_11h39.03.650,LearnStrategy,2023.2.3,Win32,60.24096386,8,1,6,-0.372222222,-0.125925926,1,0,0,0.7657,Pegmatite_12,6,12,3,2,0.766,-0.101851852,-0.401851852,1,0,0,1.6107,Pegmatite_rect,6,1.611,1,5,0,5,0,1,,,,,,,,,,,,,
60d50ceb7c563c73f91d9ec5,SCN,2024-06-25_11h39.03.650,LearnStrategy,2023.2.3,Win32,60.24096386,8,1,7,-0.100925926,-0.1,1,0,0,1.3993,Pegmatite_08,6,08,3,4,1.399,-0.098148148,-0.412037037,1,0,0,0.4617,Pegmatite_rect,6,0.462,1,6,0,6,0,1,,,,,,,,,,,,,
60d50ceb7c563c73f91d9ec5,SCN,2024-06-25_11h39.03.650,LearnStrategy,2023.2.3,Win32,60.24096386,8,1,8,0.062037037,-0.116666667,1,0,0,0.7992,Diorite_14,3,14,3,5,0.799,0.181481481,-0.24537037,1,0,0,1.3106,Diorite_rect,3,1.311,1,7,0,7,0,1,,,,,,,,,,,,,
60d50ceb7c563c73f91d9ec5,SCN,2024-06-25_11h39.03.650,LearnStrategy,2023.2.3,Win32,60.24096386,8,1,9,0.262037037,-0.12037037,1,0,0,0.9654,Andesite_16,1,16,3,6,0.965,0.181481481,-0.242592593,1,0,0,1.0442,Diorite_rect,3,1.044,0,8,0,8,0,1,,,,,,,,,,,,,
60d50ceb7c563c73f91d9ec5,SCN,2024-06-25_11h39.03.650,LearnStrategy,2023.2.3,Win32,60.24096386,8,1,10,0.392592593,-0.106481481,1,0,0,0.8824,Obsidian_10,5,10,3,7,0.882,-0.375,-0.421296296,1,0,0,0.6941,Obsidian_rect,5,0.694,1,9,0,9,0,1,,,,,,,,,,,,,
60d50ceb7c563c73f91d9ec5,SCN,2024-06-25_11h39.03.650,LearnStrategy,2023.2.3,Win32,60.24096386,8,1,11,0.562037037,-0.274074074,1,0,0,1.466,Peridotite_16,7,16,2,8,1.466,0.146296296,-0.413888889,1,0,0,0.927,Peridotite_rect,7,0.927,1,10,0,10,0,1,,,,,,,,,,,,,
60d50ceb7c563c73f91d9ec5,SCN,2024-06-25_11h39.03.650,LearnStrategy,2023.2.3,Win32,60.24096386,8,1,12,-0.244444444,-0.443518519,1,0,0,1.4991,Basalt_14,2,14,1,3,1.499,0.349074074,-0.42037037,1,0,0,1.0277,Pumice_rect,8,1.028,0,11,0,11,0,1,,,,,,,,,,,,,
60d50ceb7c563c73f91d9ec5,SCN,2024-06-25_11h39.03.650,LearnStrategy,2023.2.3,Win32,60.24096386,8,1,13,-0.416666667,0.087962963,1,0,0,0.9823,Gabbro_16,4,16,4,2,0.982,-0.132407407,-0.261111111,1,0,0,0.8775,Basalt_rect,2,0.878,0,12,0,12,0,1,,,,,,,,,,,,,
60d50ceb7c563c73f91d9ec5,SCN,2024-06-25_11h39.03.650,LearnStrategy,2023.2.3,Win32,60.24096386,8,1,14,-0.212962963,0.083333333,1,0,0,1.3825,Diorite_15,3,15,4,3,1.383,0.184259259,-0.239814815,1,0,0,1.3443,Diorite_rect,3,1.344,1,13,0,13,0,1,,,,,,,,,,,,,
60d50ceb7c563c73f91d9ec5,SCN,2024-06-25_11h39.03.650,LearnStrategy,2023.2.3,Win32,60.24096386,8,1,15,-0.078703704,0.215740741,1,0,0,1.6323,Obsidian_12,5,12,5,4,1.632,-0.402777778,-0.392592593,1,0,0,0.6108,Obsidian_rect,5,0.611,1,14,0,14,0,1,,,,,,,,,,,,,
60d50ceb7c563c73f91d9ec5,SCN,2024-06-25_11h39.03.650,LearnStrategy,2023.2.3,Win32,60.24096386,8,1,16,-0.251851852,0.22962963,1,0,0,1.0326,Gabbro_11,4,11,5,3,1.033,0.109259259,-0.237962963,1,0,0,0.9773,Diorite_rect,3,0.977,0,15,0,15,0,1,,,,,,,,,,,,,
60d50ceb7c563c73f91d9ec5,SCN,2024-06-25_11h39.03.650,LearnStrategy,2023.2.3,Win32,60.24096386,8,2,1,,,,,,,,2,02,,,,,,,,,,,4,0.861,0,,,,,,0.409259259,-0.246296296,1,0,0,0.861,Gabbro_rect,0,0,0,0,1,
60d50ceb7c563c73f91d9ec5,SCN,2024-06-25_11h39.03.650,LearnStrategy,2023.2.3,Win32,60.24096386,8,2,2,,,,,,,,2,09,,,,,,,,,,,4,1.461,0,,,,,,0.387962963,-0.256481481,1,0,0,1.4612,Gabbro_rect,1,0,1,0,1,
60d50ceb7c563c73f91d9ec5,SCN,2024-06-25_11h39.03.650,LearnStrategy,2023.2.3,Win32,60.24096386,8,2,3,,,,,,,,6,09,,,,,,,,,,,7,2.845,0,,,,,,0.139814815,-0.413888889,1,0,0,2.8446,Peridotite_rect,2,0,2,0,1,
60d50ceb7c563c73f91d9ec5,SCN,2024-06-25_11h39.03.650,LearnStrategy,2023.2.3,Win32,60.24096386,8,2,4,,,,,,,,8,14,,,,,,,,,,,8,0.839,1,,,,,,0.350925926,-0.410185185,1,0,0,0.8391,Pumice_rect,3,0,3,0,1,
60d50ceb7c563c73f91d9ec5,SCN,2024-06-25_11h39.03.650,LearnStrategy,2023.2.3,Win32,60.24096386,8,2,5,,,,,,,,5,14,,,,,,,,,,,5,0.944,1,,,,,,-0.340740741,-0.42037037,1,0,0,0.9445,Obsidian_rect,4,0,4,0,1,
60d50ceb7c563c73f91d9ec5,SCN,2024-06-25_11h39.03.650,LearnStrategy,2023.2.3,Win32,60.24096386,8,2,6,,,,,,,,4,01,,,,,,,,,,,3,2.128,0,,,,,,0.12037037,-0.263888889,1,0,0,2.1278,Diorite_rect,5,0,5,0,1,
60d50ceb7c563c73f91d9ec5,SCN,2024-06-25_11h39.03.650,LearnStrategy,2023.2.3,Win32,60.24096386,8,2,7,,,,,,,,1,10,,,,,,,,,,,3,1.078,0,,,,,,0.09537037,-0.261111111,1,0,0,1.0776,Diorite_rect,6,0,6,0,1,
60d50ceb7c563c73f91d9ec5,SCN,2024-06-25_11h39.03.650,LearnStrategy,2023.2.3,Win32,60.24096386,8,2,8,,,,,,,,4,15,,,,,,,,,,,3,0.928,0,,,,,,0.101851852,-0.252777778,1,0,0,0.9277,Diorite_rect,7,0,7,0,1,
60d50ceb7c563c73f91d9ec5,SCN,2024-06-25_11h39.03.650,LearnStrategy,2023.2.3,Win32,60.24096386,8,2,9,,,,,,,,1,07,,,,,,,,,,,3,0.745,0,,,,,,0.106481481,-0.238888889,1,0,0,0.7445,Diorite_rect,8,0,8,0,1,
60d50ceb7c563c73f91d9ec5,SCN,2024-06-25_11h39.03.650,LearnStrategy,2023.2.3,Win32,60.24096386,8,2,10,,,,,,,,6,03,,,,,,,,,,,7,1.561,0,,,,,,0.089814815,-0.387037037,1,0,0,1.561,Peridotite_rect,9,0,9,0,1,
60d50ceb7c563c73f91d9ec5,SCN,2024-06-25_11h39.03.650,LearnStrategy,2023.2.3,Win32,60.24096386,8,2,11,,,,,,,,7,02,,,,,,,,,,,7,1.012,1,,,,,,0.090740741,-0.387962963,1,0,0,1.0119,Peridotite_rect,10,0,10,0,1,
60d50ceb7c563c73f91d9ec5,SCN,2024-06-25_11h39.03.650,LearnStrategy,2023.2.3,Win32,60.24096386,8,2,12,,,,,,,,8,16,,,,,,,,,,,8,0.878,1,,,,,,0.335185185,-0.399074074,1,0,0,0.8777,Pumice_rect,11,0,11,0,1,
60d50ceb7c563c73f91d9ec5,SCN,2024-06-25_11h39.03.650,LearnStrategy,2023.2.3,Win32,60.24096386,8,2,13,,,,,,,,7,06,,,,,,,,,,,7,1.745,1,,,,,,0.163888889,-0.411111111,1,0,0,1.7446,Peridotite_rect,12,0,12,0,1,
60d50ceb7c563c73f91d9ec5,SCN,2024-06-25_11h39.03.650,LearnStrategy,2023.2.3,Win32,60.24096386,8,2,14,,,,,,,,3,12,,,,,,,,,,,3,1.044,1,,,,,,0.17037037,-0.258333333,1,0,0,1.0443,Diorite_rect,13,0,13,0,1,
60d50ceb7c563c73f91d9ec5,SCN,2024-06-25_11h39.03.650,LearnStrategy,2023.2.3,Win32,60.24096386,8,2,15,,,,,,,,5,16,,,,,,,,,,,5,0.944,1,,,,,,-0.362962963,-0.417592593,1,0,0,0.9442,Obsidian_rect,14,0,14,0,1,
60d50ceb7c563c73f91d9ec5,SCN,2024-06-25_11h39.03.650,LearnStrategy,2023.2.3,Win32,60.24096386,8,2,16,,,,,,,,3,16,,,,,,,,,,,3,1.278,1,,,,,,0.159259259,-0.233333333,1,0,0,1.2779,Diorite_rect,15,0,15,0,1,
60d50ceb7c563c73f91d9ec5,SCN,2024-06-25_11h39.03.650,LearnStrategy,2023.2.3,Win32,60.24096386,9,1,1,-0.544444444,-0.414814815,1,0,0,2.8662,Peridotite_13,7,13,1,1,2.866,0.107407407,-0.405555556,1,0,0,1.6274,Peridotite_rect,7,1.627,1,0,0,0,0,1,,,,,,,,,,,,,
60d50ceb7c563c73f91d9ec5,SCN,2024-06-25_11h39.03.650,LearnStrategy,2023.2.3,Win32,60.24096386,9,1,2,-0.558333333,-0.256481481,1,0,0,0.9158,Peridotite_14,7,14,2,1,0.916,0.106481481,-0.22962963,1,0,0,1.8941,Diorite_rect,3,1.894,0,1,0,1,0,1,,,,,,,,,,,,,
60d50ceb7c563c73f91d9ec5,SCN,2024-06-25_11h39.03.650,LearnStrategy,2023.2.3,Win32,60.24096386,9,1,3,-0.532407407,-0.09537037,1,0,0,0.8992,Gabbro_12,4,12,3,1,0.899,-0.373148148,-0.249074074,1,0,0,1.0275,Andesite_rect,1,1.027,0,2,0,2,0,1,,,,,,,,,,,,,
60d50ceb7c563c73f91d9ec5,SCN,2024-06-25_11h39.03.650,LearnStrategy,2023.2.3,Win32,60.24096386,9,1,4,-0.399074074,-0.092592593,1,0,0,1.1326,Pegmatite_12,6,12,3,2,1.133,-0.093518519,-0.405555556,1,0,0,1.2931,Pegmatite_rect,6,1.293,1,3,0,3,0,1,,,,,,,,,,,,,
60d50ceb7c563c73f91d9ec5,SCN,2024-06-25_11h39.03.650,LearnStrategy,2023.2.3,Win32,60.24096386,9,1,5,-0.22962963,-0.101851852,1,0,0,0.8494,Obsidian_02,5,02,3,3,0.849,-0.343518519,-0.406481481,1,0,0,0.6653,Obsidian_rect,5,0.665,1,4,0,4,0,1,,,,,,,,,,,,,
60d50ceb7c563c73f91d9ec5,SCN,2024-06-25_11h39.03.650,LearnStrategy,2023.2.3,Win32,60.24096386,9,1,6,-0.201851852,-0.265740741,1,0,0,0.8495,Pegmatite_10,6,10,2,3,0.85,0.131481481,-0.394444444,1,0,0,1.0154,Peridotite_rect,7,1.015,0,5,0,5,0,1,,,,,,,,,,,,,
60d50ceb7c563c73f91d9ec5,SCN,2024-06-25_11h39.03.650,LearnStrategy,2023.2.3,Win32,60.24096386,9,1,7,-0.201851852,-0.398148148,1,0,0,0.983,Basalt_14,2,14,1,3,0.983,-0.137962963,-0.253703704,1,0,0,0.999,Basalt_rect,2,0.999,1,6,0,6,0,1,,,,,,,,,,,,,
60d50ceb7c563c73f91d9ec5,SCN,2024-06-25_11h39.03.650,LearnStrategy,2023.2.3,Win32,60.24096386,9,1,8,-0.075925926,-0.410185185,1,0,0,0.9995,Pegmatite_07,6,07,1,4,1,0.148148148,-0.266666667,1,0,0,1.2984,Diorite_rect,3,1.298,0,7,0,7,0,1,,,,,,,,,,,,,
60d50ceb7c563c73f91d9ec5,SCN,2024-06-25_11h39.03.650,LearnStrategy,2023.2.3,Win32,60.24096386,9,1,9,0.09537037,-0.433333333,1,0,0,1.0326,Andesite_01,1,01,1,5,1.033,-0.107407407,-0.414814815,1,0,0,0.6818,Pegmatite_rect,6,0.682,0,8,0,8,0,1,,,,,,,,,,,,,
60d50ceb7c563c73f91d9ec5,SCN,2024-06-25_11h39.03.650,LearnStrategy,2023.2.3,Win32,60.24096386,9,1,10,-0.073148148,0.072222222,1,0,0,2.3163,Diorite_10,3,10,4,4,2.316,-0.097222222,-0.390740741,1,0,0,1.1652,Pegmatite_rect,6,1.165,0,9,0,9,0,1,,,,,,,,,,,,,
60d50ceb7c563c73f91d9ec5,SCN,2024-06-25_11h39.03.650,LearnStrategy,2023.2.3,Win32,60.24096386,9,1,11,0.092592593,0.068518519,1,0,0,0.5997,Pumice_02,8,02,4,5,0.6,0.387037037,-0.412037037,1,0,0,0.7664,Pumice_rect,8,0.766,1,10,0,10,0,1,,,,,,,,,,,,,
60d50ceb7c563c73f91d9ec5,SCN,2024-06-25_11h39.03.650,LearnStrategy,2023.2.3,Win32,60.24096386,9,1,12,0.242592593,0.080555556,1,0,0,0.6494,Andesite_06,1,06,4,6,0.649,0.159259259,-0.239814815,1,0,0,0.6657,Diorite_rect,3,0.666,0,11,0,11,0,1,,,,,,,,,,,,,
60d50ceb7c563c73f91d9ec5,SCN,2024-06-25_11h39.03.650,LearnStrategy,2023.2.3,Win32,60.24096386,9,1,13,0.523148148,0.078703704,1,0,0,1.5827,Diorite_13,3,13,4,8,1.583,0.159259259,-0.257407407,1,0,0,1.0489,Diorite_rect,3,1.049,1,12,0,12,0,1,,,,,,,,,,,,,
60d50ceb7c563c73f91d9ec5,SCN,2024-06-25_11h39.03.650,LearnStrategy,2023.2.3,Win32,60.24096386,9,1,14,-0.096296296,-0.275,1,0,0,3.0662,Diorite_11,3,11,2,4,3.066,0.115740741,-0.231481481,1,0,0,1.2828,Diorite_rect,3,1.283,1,13,0,13,0,1,,,,,,,,,,,,,
60d50ceb7c563c73f91d9ec5,SCN,2024-06-25_11h39.03.650,LearnStrategy,2023.2.3,Win32,60.24096386,9,1,15,-0.081481481,-0.103703704,1,0,0,1.0328,Pegmatite_08,6,08,3,4,1.033,0.140740741,-0.412962963,1,0,0,0.6815,Peridotite_rect,7,0.681,0,14,0,14,0,1,,,,,,,,,,,,,
60d50ceb7c563c73f91d9ec5,SCN,2024-06-25_11h39.03.650,LearnStrategy,2023.2.3,Win32,60.24096386,9,1,16,-0.082407407,-0.412037037,1,0,0,1.2496,Pegmatite_07,6,07,1,4,1.25,-0.160185185,-0.384259259,1,0,0,0.3821,Pegmatite_rect,6,0.382,1,15,0,15,0,1,,,,,,,,,,,,,
60d50ceb7c563c73f91d9ec5,SCN,2024-06-25_11h39.03.650,LearnStrategy,2023.2.3,Win32,60.24096386,9,2,1,,,,,,,,8,10,,,,,,,,,,,8,1.383,1,,,,,,0.378703704,-0.403703704,1,0,0,1.3833,Pumice_rect,0,0,0,0,1,
60d50ceb7c563c73f91d9ec5,SCN,2024-06-25_11h39.03.650,LearnStrategy,2023.2.3,Win32,60.24096386,9,2,2,,,,,,,,4,08,,,,,,,,,,,4,2.249,1,,,,,,0.403703704,-0.269444444,1,0,0,2.2488,Gabbro_rect,1,0,1,0,1,
60d50ceb7c563c73f91d9ec5,SCN,2024-06-25_11h39.03.650,LearnStrategy,2023.2.3,Win32,60.24096386,9,2,3,,,,,,,,7,08,,,,,,,,,,,6,2.678,0,,,,,,-0.061111111,-0.381481481,1,0,0,2.6776,Pegmatite_rect,2,0,2,0,1,
60d50ceb7c563c73f91d9ec5,SCN,2024-06-25_11h39.03.650,LearnStrategy,2023.2.3,Win32,60.24096386,9,2,4,,,,,,,,2,16,,,,,,,,,,,2,1.8,1,,,,,,-0.088888889,-0.27037037,1,0,0,1.7998,Basalt_rect,3,0,3,0,1,
60d50ceb7c563c73f91d9ec5,SCN,2024-06-25_11h39.03.650,LearnStrategy,2023.2.3,Win32,60.24096386,9,2,5,,,,,,,,7,15,,,,,,,,,,,7,1.316,1,,,,,,0.114814815,-0.421296296,1,0,0,1.3159,Peridotite_rect,4,0,4,0,1,
60d50ceb7c563c73f91d9ec5,SCN,2024-06-25_11h39.03.650,LearnStrategy,2023.2.3,Win32,60.24096386,9,2,6,,,,,,,,1,04,,,,,,,,,,,3,2.167,0,,,,,,0.090740741,-0.264814815,1,0,0,2.167,Diorite_rect,5,0,5,0,1,
60d50ceb7c563c73f91d9ec5,SCN,2024-06-25_11h39.03.650,LearnStrategy,2023.2.3,Win32,60.24096386,9,2,7,,,,,,,,8,13,,,,,,,,,,,8,3.495,1,,,,,,0.353703704,-0.4,1,0,0,3.4947,Pumice_rect,6,0,6,0,1,
60d50ceb7c563c73f91d9ec5,SCN,2024-06-25_11h39.03.650,LearnStrategy,2023.2.3,Win32,60.24096386,9,2,8,,,,,,,,5,09,,,,,,,,,,,5,1.211,1,,,,,,-0.412962963,-0.39537037,1,0,0,1.211,Obsidian_rect,7,0,7,0,1,
60d50ceb7c563c73f91d9ec5,SCN,2024-06-25_11h39.03.650,LearnStrategy,2023.2.3,Win32,60.24096386,9,2,9,,,,,,,,4,09,,,,,,,,,,,2,3.834,0,,,,,,-0.148148148,-0.251851852,1,0,0,3.8336,Basalt_rect,8,0,8,0,1,
60d50ceb7c563c73f91d9ec5,SCN,2024-06-25_11h39.03.650,LearnStrategy,2023.2.3,Win32,60.24096386,9,2,10,,,,,,,,3,06,,,,,,,,,,,3,1.111,1,,,,,,0.149074074,-0.262962963,1,0,0,1.1112,Diorite_rect,9,0,9,0,1,
60d50ceb7c563c73f91d9ec5,SCN,2024-06-25_11h39.03.650,LearnStrategy,2023.2.3,Win32,60.24096386,9,2,11,,,,,,,,6,16,,,,,,,,,,,4,2.732,0,,,,,,0.376851852,-0.253703704,1,0,0,2.7324,Gabbro_rect,10,0,10,0,1,
60d50ceb7c563c73f91d9ec5,SCN,2024-06-25_11h39.03.650,LearnStrategy,2023.2.3,Win32,60.24096386,9,2,12,,,,,,,,6,11,,,,,,,,,,,3,3.278,0,,,,,,0.124074074,-0.241666667,1,0,0,3.2776,Diorite_rect,11,0,11,0,1,
60d50ceb7c563c73f91d9ec5,SCN,2024-06-25_11h39.03.650,LearnStrategy,2023.2.3,Win32,60.24096386,9,2,13,,,,,,,,3,02,,,,,,,,,,,3,0.812,1,,,,,,0.142592593,-0.252777778,1,0,0,0.8116,Diorite_rect,12,0,12,0,1,
60d50ceb7c563c73f91d9ec5,SCN,2024-06-25_11h39.03.650,LearnStrategy,2023.2.3,Win32,60.24096386,9,2,14,,,,,,,,2,04,,,,,,,,,,,2,2.916,1,,,,,,-0.160185185,-0.259259259,1,0,0,2.9164,Basalt_rect,13,0,13,0,1,
60d50ceb7c563c73f91d9ec5,SCN,2024-06-25_11h39.03.650,LearnStrategy,2023.2.3,Win32,60.24096386,9,2,15,,,,,,,,5,04,,,,,,,,,,,5,0.85,1,,,,,,-0.330555556,-0.382407407,1,0,0,0.8501,Obsidian_rect,14,0,14,0,1,
60d50ceb7c563c73f91d9ec5,SCN,2024-06-25_11h39.03.650,LearnStrategy,2023.2.3,Win32,60.24096386,9,2,16,,,,,,,,1,03,,,,,,,,,,,1,1.916,1,,,,,,-0.371296296,-0.24537037,1,0,0,1.916,Andesite_rect,15,0,15,0,1,
60d50ceb7c563c73f91d9ec5,SCN,2024-06-25_11h39.03.650,LearnStrategy,2023.2.3,Win32,60.24096386,,,,,,,,,,,,,,,,,,,,,,,,,,,,,,,,,,,,,,,,,,,0
60d50ceb7c563c73f91d9ec5,SCN,2024-06-25_11h39.03.650,LearnStrategy,2023.2.3,Win32,60.24096386,,,,,,,,,,,,,,,,,,,,,,,,,,,,,,,,,,,,,,,,,,,
60d50ceb7c563c73f91d9ec5,SCN,2024-06-25_11h39.03.650,LearnStrategy,2023.2.3,Win32,60.24096386,,,,,,,,,,,7,13,1,1,,,,,,,,,,,,,,,,,,,,,,,,,,,,,
60d50ceb7c563c73f91d9ec5,SCN,2024-06-25_11h39.03.650,LearnStrategy,2023.2.3,Win32,60.24096386,,,,,,,,,,,8,06,1,2,,,,,,,,,,,,,,,,,,,,,,,,,,,,,
60d50ceb7c563c73f91d9ec5,SCN,2024-06-25_11h39.03.650,LearnStrategy,2023.2.3,Win32,60.24096386,,,,,,,,,,,2,14,1,3,,,,,,,,,,,,,,,,,,,,,,,,,,,,,
60d50ceb7c563c73f91d9ec5,SCN,2024-06-25_11h39.03.650,LearnStrategy,2023.2.3,Win32,60.24096386,,,,,,,,,,,6,07,1,4,,,,,,,,,,,,,,,,,,,,,,,,,,,,,
60d50ceb7c563c73f91d9ec5,SCN,2024-06-25_11h39.03.650,LearnStrategy,2023.2.3,Win32,60.24096386,,,,,,,,,,,1,01,1,5,,,,,,,,,,,,,,,,,,,,,,,,,,,,,
60d50ceb7c563c73f91d9ec5,SCN,2024-06-25_11h39.03.650,LearnStrategy,2023.2.3,Win32,60.24096386,,,,,,,,,,,8,03,1,6,,,,,,,,,,,,,,,,,,,,,,,,,,,,,
60d50ceb7c563c73f91d9ec5,SCN,2024-06-25_11h39.03.650,LearnStrategy,2023.2.3,Win32,60.24096386,,,,,,,,,,,2,05,1,7,,,,,,,,,,,,,,,,,,,,,,,,,,,,,
60d50ceb7c563c73f91d9ec5,SCN,2024-06-25_11h39.03.650,LearnStrategy,2023.2.3,Win32,60.24096386,,,,,,,,,,,1,05,1,8,,,,,,,,,,,,,,,,,,,,,,,,,,,,,
60d50ceb7c563c73f91d9ec5,SCN,2024-06-25_11h39.03.650,LearnStrategy,2023.2.3,Win32,60.24096386,,,,,,,,,,,7,14,2,1,,,,,,,,,,,,,,,,,,,,,,,,,,,,,
60d50ceb7c563c73f91d9ec5,SCN,2024-06-25_11h39.03.650,LearnStrategy,2023.2.3,Win32,60.24096386,,,,,,,,,,,7,04,2,2,,,,,,,,,,,,,,,,,,,,,,,,,,,,,
60d50ceb7c563c73f91d9ec5,SCN,2024-06-25_11h39.03.650,LearnStrategy,2023.2.3,Win32,60.24096386,,,,,,,,,,,6,10,2,3,,,,,,,,,,,,,,,,,,,,,,,,,,,,,
60d50ceb7c563c73f91d9ec5,SCN,2024-06-25_11h39.03.650,LearnStrategy,2023.2.3,Win32,60.24096386,,,,,,,,,,,3,11,2,4,,,,,,,,,,,,,,,,,,,,,,,,,,,,,
60d50ceb7c563c73f91d9ec5,SCN,2024-06-25_11h39.03.650,LearnStrategy,2023.2.3,Win32,60.24096386,,,,,,,,,,,1,02,2,5,,,,,,,,,,,,,,,,,,,,,,,,,,,,,
60d50ceb7c563c73f91d9ec5,SCN,2024-06-25_11h39.03.650,LearnStrategy,2023.2.3,Win32,60.24096386,,,,,,,,,,,6,05,2,6,,,,,,,,,,,,,,,,,,,,,,,,,,,,,
60d50ceb7c563c73f91d9ec5,SCN,2024-06-25_11h39.03.650,LearnStrategy,2023.2.3,Win32,60.24096386,,,,,,,,,,,4,14,2,7,,,,,,,,,,,,,,,,,,,,,,,,,,,,,
60d50ceb7c563c73f91d9ec5,SCN,2024-06-25_11h39.03.650,LearnStrategy,2023.2.3,Win32,60.24096386,,,,,,,,,,,7,16,2,8,,,,,,,,,,,,,,,,,,,,,,,,,,,,,
60d50ceb7c563c73f91d9ec5,SCN,2024-06-25_11h39.03.650,LearnStrategy,2023.2.3,Win32,60.24096386,,,,,,,,,,,4,12,3,1,,,,,,,,,,,,,,,,,,,,,,,,,,,,,
60d50ceb7c563c73f91d9ec5,SCN,2024-06-25_11h39.03.650,LearnStrategy,2023.2.3,Win32,60.24096386,,,,,,,,,,,6,12,3,2,,,,,,,,,,,,,,,,,,,,,,,,,,,,,
60d50ceb7c563c73f91d9ec5,SCN,2024-06-25_11h39.03.650,LearnStrategy,2023.2.3,Win32,60.24096386,,,,,,,,,,,5,02,3,3,,,,,,,,,,,,,,,,,,,,,,,,,,,,,
60d50ceb7c563c73f91d9ec5,SCN,2024-06-25_11h39.03.650,LearnStrategy,2023.2.3,Win32,60.24096386,,,,,,,,,,,6,08,3,4,,,,,,,,,,,,,,,,,,,,,,,,,,,,,
60d50ceb7c563c73f91d9ec5,SCN,2024-06-25_11h39.03.650,LearnStrategy,2023.2.3,Win32,60.24096386,,,,,,,,,,,3,14,3,5,,,,,,,,,,,,,,,,,,,,,,,,,,,,,
60d50ceb7c563c73f91d9ec5,SCN,2024-06-25_11h39.03.650,LearnStrategy,2023.2.3,Win32,60.24096386,,,,,,,,,,,1,16,3,6,,,,,,,,,,,,,,,,,,,,,,,,,,,,,
60d50ceb7c563c73f91d9ec5,SCN,2024-06-25_11h39.03.650,LearnStrategy,2023.2.3,Win32,60.24096386,,,,,,,,,,,5,10,3,7,,,,,,,,,,,,,,,,,,,,,,,,,,,,,
60d50ceb7c563c73f91d9ec5,SCN,2024-06-25_11h39.03.650,LearnStrategy,2023.2.3,Win32,60.24096386,,,,,,,,,,,5,05,3,8,,,,,,,,,,,,,,,,,,,,,,,,,,,,,
60d50ceb7c563c73f91d9ec5,SCN,2024-06-25_11h39.03.650,LearnStrategy,2023.2.3,Win32,60.24096386,,,,,,,,,,,7,05,4,1,,,,,,,,,,,,,,,,,,,,,,,,,,,,,
60d50ceb7c563c73f91d9ec5,SCN,2024-06-25_11h39.03.650,LearnStrategy,2023.2.3,Win32,60.24096386,,,,,,,,,,,4,16,4,2,,,,,,,,,,,,,,,,,,,,,,,,,,,,,
60d50ceb7c563c73f91d9ec5,SCN,2024-06-25_11h39.03.650,LearnStrategy,2023.2.3,Win32,60.24096386,,,,,,,,,,,3,15,4,3,,,,,,,,,,,,,,,,,,,,,,,,,,,,,
60d50ceb7c563c73f91d9ec5,SCN,2024-06-25_11h39.03.650,LearnStrategy,2023.2.3,Win32,60.24096386,,,,,,,,,,,3,10,4,4,,,,,,,,,,,,,,,,,,,,,,,,,,,,,
60d50ceb7c563c73f91d9ec5,SCN,2024-06-25_11h39.03.650,LearnStrategy,2023.2.3,Win32,60.24096386,,,,,,,,,,,8,02,4,5,,,,,,,,,,,,,,,,,,,,,,,,,,,,,
60d50ceb7c563c73f91d9ec5,SCN,2024-06-25_11h39.03.650,LearnStrategy,2023.2.3,Win32,60.24096386,,,,,,,,,,,1,06,4,6,,,,,,,,,,,,,,,,,,,,,,,,,,,,,
60d50ceb7c563c73f91d9ec5,SCN,2024-06-25_11h39.03.650,LearnStrategy,2023.2.3,Win32,60.24096386,,,,,,,,,,,8,08,4,7,,,,,,,,,,,,,,,,,,,,,,,,,,,,,
60d50ceb7c563c73f91d9ec5,SCN,2024-06-25_11h39.03.650,LearnStrategy,2023.2.3,Win32,60.24096386,,,,,,,,,,,3,13,4,8,,,,,,,,,,,,,,,,,,,,,,,,,,,,,
60d50ceb7c563c73f91d9ec5,SCN,2024-06-25_11h39.03.650,LearnStrategy,2023.2.3,Win32,60.24096386,,,,,,,,,,,2,11,5,1,,,,,,,,,,,,,,,,,,,,,,,,,,,,,
60d50ceb7c563c73f91d9ec5,SCN,2024-06-25_11h39.03.650,LearnStrategy,2023.2.3,Win32,60.24096386,,,,,,,,,,,2,08,5,2,,,,,,,,,,,,,,,,,,,,,,,,,,,,,
60d50ceb7c563c73f91d9ec5,SCN,2024-06-25_11h39.03.650,LearnStrategy,2023.2.3,Win32,60.24096386,,,,,,,,,,,4,11,5,3,,,,,,,,,,,,,,,,,,,,,,,,,,,,,
60d50ceb7c563c73f91d9ec5,SCN,2024-06-25_11h39.03.650,LearnStrategy,2023.2.3,Win32,60.24096386,,,,,,,,,,,5,12,5,4,,,,,,,,,,,,,,,,,,,,,,,,,,,,,
60d50ceb7c563c73f91d9ec5,SCN,2024-06-25_11h39.03.650,LearnStrategy,2023.2.3,Win32,60.24096386,,,,,,,,,,,7,07,5,5,,,,,,,,,,,,,,,,,,,,,,,,,,,,,
60d50ceb7c563c73f91d9ec5,SCN,2024-06-25_11h39.03.650,LearnStrategy,2023.2.3,Win32,60.24096386,,,,,,,,,,,5,11,5,6,,,,,,,,,,,,,,,,,,,,,,,,,,,,,
60d50ceb7c563c73f91d9ec5,SCN,2024-06-25_11h39.03.650,LearnStrategy,2023.2.3,Win32,60.24096386,,,,,,,,,,,2,12,5,7,,,,,,,,,,,,,,,,,,,,,,,,,,,,,
60d50ceb7c563c73f91d9ec5,SCN,2024-06-25_11h39.03.650,LearnStrategy,2023.2.3,Win32,60.24096386,,,,,,,,,,,8,09,5,8,,,,,,,,,,,,,,,,,,,,,,,,,,,,,
60d50ceb7c563c73f91d9ec5,SCN,2024-06-25_11h39.03.650,LearnStrategy,2023.2.3,Win32,60.24096386,,,,,,,,,,,4,13,6,1,,,,,,,,,,,,,,,,,,,,,,,,,,,,,
60d50ceb7c563c73f91d9ec5,SCN,2024-06-25_11h39.03.650,LearnStrategy,2023.2.3,Win32,60.24096386,,,,,,,,,,,5,06,6,2,,,,,,,,,,,,,,,,,,,,,,,,,,,,,
60d50ceb7c563c73f91d9ec5,SCN,2024-06-25_11h39.03.650,LearnStrategy,2023.2.3,Win32,60.24096386,,,,,,,,,,,4,05,6,3,,,,,,,,,,,,,,,,,,,,,,,,,,,,,
60d50ceb7c563c73f91d9ec5,SCN,2024-06-25_11h39.03.650,LearnStrategy,2023.2.3,Win32,60.24096386,,,,,,,,,,,2,06,6,4,,,,,,,,,,,,,,,,,,,,,,,,,,,,,
60d50ceb7c563c73f91d9ec5,SCN,2024-06-25_11h39.03.650,LearnStrategy,2023.2.3,Win32,60.24096386,,,,,,,,,,,3,08,6,5,,,,,,,,,,,,,,,,,,,,,,,,,,,,,
60d50ceb7c563c73f91d9ec5,SCN,2024-06-25_11h39.03.650,LearnStrategy,2023.2.3,Win32,60.24096386,,,,,,,,,,,6,15,6,6,,,,,,,,,,,,,,,,,,,,,,,,,,,,,
60d50ceb7c563c73f91d9ec5,SCN,2024-06-25_11h39.03.650,LearnStrategy,2023.2.3,Win32,60.24096386,,,,,,,,,,,8,15,6,7,,,,,,,,,,,,,,,,,,,,,,,,,,,,,
60d50ceb7c563c73f91d9ec5,SCN,2024-06-25_11h39.03.650,LearnStrategy,2023.2.3,Win32,60.24096386,,,,,,,,,,,1,09,6,8,,,,,,,,,,,,,,,,,,,,,,,,,,,,,