participant,condition,date,expName,psychopyVersion,OS,frameRate,block,phase,trial,learn_mouse.x,learn_mouse.y,learn_mouse.leftButton,learn_mouse.midButton,learn_mouse.rightButton,learn_mouse.time,learn_mouse.clicked_name,cat,token,row,col,t_select,cat_rec,token_rec,cat_mouse_l.x,cat_mouse_l.y,cat_mouse_l.leftButton,cat_mouse_l.midButton,cat_mouse_l.rightButton,cat_mouse_l.time,cat_mouse_l.clicked_name,resp,t_resp,corr,train_trials.thisRepN,train_trials.thisTrialN,train_trials.thisN,train_trials.thisIndex,train_trials.ran,cat_mouse_t.x,cat_mouse_t.y,cat_mouse_t.leftButton,cat_mouse_t.midButton,cat_mouse_t.rightButton,cat_mouse_t.time,cat_mouse_t.clicked_name,test_trials.thisRepN,test_trials.thisTrialN,test_trials.thisN,test_trials.thisIndex,test_trials.ran,Bonus
60d8c6bc9686529cdc824a49,SCR,2024-06-24_17h32.58.164,LearnStrategy,2023.2.3,Win32,15.15151515,,,,,,,,,,,,,,,,,,,,,,,,,,,,,,,,,,,,,,,,,,,,,
60d8c6bc9686529cdc824a49,SCR,2024-06-24_17h32.58.164,LearnStrategy,2023.2.3,Win32,15.15151515,1,1,1,-0.234910207,-0.255415658,1,0,0,4.139,Gabbro_05,4,05,2,3,4.139,4,05,-0.095121302,-0.402610515,1,0,0,13.445,Pegmatite_rect,6,13.445,0,0,0,0,0,1,,,,,,,,,,,,,
60d8c6bc9686529cdc824a49,SCR,2024-06-24_17h32.58.164,LearnStrategy,2023.2.3,Win32,15.15151515,1,1,2,0.220560793,0.401870028,1,0,0,1.88,Diorite_07,3,07,6,6,1.88,3,07,0.411266443,-0.40353636,1,0,0,10.594,Pumice_rect,8,10.594,0,1,0,1,0,1,,,,,,,,,,,,,
60d8c6bc9686529cdc824a49,SCR,2024-06-24_17h32.58.164,LearnStrategy,2023.2.3,Win32,15.15151515,1,1,3,-0.54503801,0.245417531,1,0,0,1.816,Basalt_02,2,02,5,1,1.816,2,02,-0.139557506,-0.251712589,1,0,0,8.474,Basalt_rect,2,8.474,1,2,0,2,0,1,,,,,,,,,,,,,
60d8c6bc9686529cdc824a49,SCR,2024-06-24_17h32.58.164,LearnStrategy,2023.2.3,Win32,15.15151515,1,1,4,0.381642266,-0.096185875,1,0,0,1.788,Peridotite_06,7,06,3,7,1.788,7,06,0.161312686,-0.410016652,1,0,0,3.389,Peridotite_rect,7,3.389,1,3,0,3,0,1,,,,,,,,,,,,,
60d8c6bc9686529cdc824a49,SCR,2024-06-24_17h32.58.164,LearnStrategy,2023.2.3,Win32,15.15151515,1,1,5,-0.245093507,-0.096185875,1,0,0,1.527,Diorite_14,3,14,3,3,1.527,3,14,-0.147889302,-0.399833353,1,0,0,8.608,Pegmatite_rect,6,8.608,0,4,0,4,0,1,,,,,,,,,,,,,
60d8c6bc9686529cdc824a49,SCR,2024-06-24_17h32.58.164,LearnStrategy,2023.2.3,Win32,15.15151515,1,1,6,-0.079383493,0.240788757,1,0,0,1.662,Pumice_08,8,08,5,4,1.662,8,08,0.396454292,-0.386872767,1,0,0,1.455,Pumice_rect,8,1.455,1,5,0,5,0,1,,,,,,,,,,,,,
60d8c6bc9686529cdc824a49,SCR,2024-06-24_17h32.58.164,LearnStrategy,2023.2.3,Win32,15.15151515,1,1,7,-0.219172398,0.417607853,1,0,0,3.521,Pegmatite_06,6,06,6,3,3.521,6,06,-0.382105188,-0.255415658,1,0,0,7.623,Andesite_rect,1,7.623,0,6,0,6,0,1,,,,,,,,,,,,,
60d8c6bc9686529cdc824a49,SCR,2024-06-24_17h32.58.164,LearnStrategy,2023.2.3,Win32,15.15151515,1,1,8,-0.23028148,-0.422051455,1,0,0,1.545,Obsidian_08,5,08,1,3,1.545,5,08,-0.418209596,-0.39890757,1,0,0,2.163,Obsidian_rect,5,2.163,1,7,0,7,0,1,,,,,,,,,,,,,
60d8c6bc9686529cdc824a49,SCR,2024-06-24_17h32.58.164,LearnStrategy,2023.2.3,Win32,15.15151515,1,1,9,-0.391362736,0.40649881,1,0,0,2.103,Obsidian_02,5,02,6,2,2.103,5,02,-0.401546035,-0.40353636,1,0,0,1.264,Obsidian_rect,5,1.264,1,8,0,8,0,1,,,,,,,,,,,,,
60d8c6bc9686529cdc824a49,SCR,2024-06-24_17h32.58.164,LearnStrategy,2023.2.3,Win32,15.15151515,1,1,10,0.229818496,-0.405387863,1,0,0,1.457,Basalt_06,2,06,1,6,1.457,2,06,-0.104378819,-0.250786869,1,0,0,1.854,Basalt_rect,2,1.854,1,9,0,9,0,1,,,,,,,,,,,,,
60d8c6bc9686529cdc824a49,SCR,2024-06-24_17h32.58.164,LearnStrategy,2023.2.3,Win32,15.15151515,1,1,11,-0.389511233,0.102851324,1,0,0,1.732,Andesite_02,1,02,4,2,1.732,1,02,-0.408026297,-0.260970168,1,0,0,3.878,Andesite_rect,1,3.878,1,10,0,10,0,1,,,,,,,,,,,,,
60d8c6bc9686529cdc824a49,SCR,2024-06-24_17h32.58.164,LearnStrategy,2023.2.3,Win32,15.15151515,1,1,12,-0.066422907,-0.413719659,1,0,0,1.532,Gabbro_01,4,01,1,4,1.532,4,01,0.425152749,-0.256341379,1,0,0,4.712,Gabbro_rect,4,4.712,1,11,0,11,0,1,,,,,,,,,,,,,
60d8c6bc9686529cdc824a49,SCR,2024-06-24_17h32.58.164,LearnStrategy,2023.2.3,Win32,15.15151515,1,1,13,0.559387083,-0.100814664,1,0,0,1.461,Pumice_04,8,04,3,8,1.461,8,04,0.41496945,-0.410016652,1,0,0,1.264,Pumice_rect,8,1.264,1,12,0,12,0,1,,,,,,,,,,,,,
60d8c6bc9686529cdc824a49,SCR,2024-06-24_17h32.58.164,LearnStrategy,2023.2.3,Win32,15.15151515,1,1,14,-0.068274411,0.107480113,1,0,0,1.732,Gabbro_03,4,03,4,4,1.732,1,11,0.075217501,-0.24800952,1,0,0,8.823,Diorite_rect,3,8.823,0,13,0,13,0,1,,,,,,,,,,,,,
60d8c6bc9686529cdc824a49,SCR,2024-06-24_17h32.58.164,LearnStrategy,2023.2.3,Win32,15.15151515,1,1,15,0.045593386,-0.256341379,1,0,0,1.535,Peridotite_10,7,10,2,5,1.535,7,10,0.137243081,-0.408165149,1,0,0,1.905,Peridotite_rect,7,1.905,1,14,0,14,0,1,,,,,,,,,,,,,
60d8c6bc9686529cdc824a49,SCR,2024-06-24_17h32.58.164,LearnStrategy,2023.2.3,Win32,15.15151515,1,1,16,0.387196714,0.410201817,1,0,0,1.776,Pegmatite_12,6,12,6,7,1.776,6,12,0.157609679,-0.263747454,1,0,0,6.002,Diorite_rect,3,6.002,0,15,0,15,0,1,,,,,,,,,,,,,
60d8c6bc9686529cdc824a49,SCR,2024-06-24_17h32.58.164,LearnStrategy,2023.2.3,Win32,15.15151515,1,2,1,,,,,,,,8,15,,,,,,,,,,,,,8,2.353,1,,,,,,0.411266443,-0.39890757,1,0,0,2.353,Pumice_rect,0,0,0,0,1,
60d8c6bc9686529cdc824a49,SCR,2024-06-24_17h32.58.164,LearnStrategy,2023.2.3,Win32,15.15151515,1,2,2,,,,,,,,1,05,,,,,,,,,,,,,4,6.57,0,,,,,,0.420523898,-0.243380855,1,0,0,6.57,Gabbro_rect,1,0,1,0,1,
60d8c6bc9686529cdc824a49,SCR,2024-06-24_17h32.58.164,LearnStrategy,2023.2.3,Win32,15.15151515,1,2,3,,,,,,,,7,08,,,,,,,,,,,,,7,2.4,1,,,,,,0.140946087,-0.414645317,1,0,0,2.4,Peridotite_rect,2,0,2,0,1,
60d8c6bc9686529cdc824a49,SCR,2024-06-24_17h32.58.164,LearnStrategy,2023.2.3,Win32,15.15151515,1,2,4,,,,,,,,5,14,,,,,,,,,,,,,5,1.728,1,,,,,,-0.421912665,-0.394278719,1,0,0,1.728,Obsidian_rect,3,0,3,0,1,
60d8c6bc9686529cdc824a49,SCR,2024-06-24_17h32.58.164,LearnStrategy,2023.2.3,Win32,15.15151515,1,2,5,,,,,,,,3,06,,,,,,,,,,,,,3,3.202,1,,,,,,0.144649094,-0.253564155,1,0,0,3.202,Diorite_rect,4,0,4,0,1,
60d8c6bc9686529cdc824a49,SCR,2024-06-24_17h32.58.164,LearnStrategy,2023.2.3,Win32,15.15151515,1,2,6,,,,,,,,4,14,,,,,,,,,,,,,4,6.97,1,,,,,,0.37886498,-0.24152929,1,0,0,6.97,Gabbro_rect,5,0,5,0,1,
60d8c6bc9686529cdc824a49,SCR,2024-06-24_17h32.58.164,LearnStrategy,2023.2.3,Win32,15.15151515,1,2,7,,,,,,,,3,09,,,,,,,,,,,,,3,3.492,1,,,,,,0.117802202,-0.252638372,1,0,0,3.492,Diorite_rect,6,0,6,0,1,
60d8c6bc9686529cdc824a49,SCR,2024-06-24_17h32.58.164,LearnStrategy,2023.2.3,Win32,15.15151515,1,2,8,,,,,,,,4,16,,,,,,,,,,,,,2,6.604,0,,,,,,-0.158072602,-0.255415658,1,0,0,6.604,Basalt_rect,7,0,7,0,1,
60d8c6bc9686529cdc824a49,SCR,2024-06-24_17h32.58.164,LearnStrategy,2023.2.3,Win32,15.15151515,1,2,9,,,,,,,,8,14,,,,,,,,,,,,,8,1.728,1,,,,,,0.420523898,-0.415571162,1,0,0,1.728,Pumice_rect,8,0,8,0,1,
60d8c6bc9686529cdc824a49,SCR,2024-06-24_17h32.58.164,LearnStrategy,2023.2.3,Win32,15.15151515,1,2,10,,,,,,,,5,05,,,,,,,,,,,,,5,2.286,1,,,,,,-0.412655086,-0.400759073,1,0,0,2.286,Obsidian_rect,9,0,9,0,1,
60d8c6bc9686529cdc824a49,SCR,2024-06-24_17h32.58.164,LearnStrategy,2023.2.3,Win32,15.15151515,1,2,11,,,,,,,,2,09,,,,,,,,,,,,,2,1.785,1,,,,,,-0.151592309,-0.245232359,1,0,0,1.785,Basalt_rect,10,0,10,0,1,
60d8c6bc9686529cdc824a49,SCR,2024-06-24_17h32.58.164,LearnStrategy,2023.2.3,Win32,15.15151515,1,2,12,,,,,,,,1,09,,,,,,,,,,,,,2,3.422,0,,,,,,-0.149740806,-0.244306576,1,0,0,3.422,Basalt_rect,11,0,11,0,1,
60d8c6bc9686529cdc824a49,SCR,2024-06-24_17h32.58.164,LearnStrategy,2023.2.3,Win32,15.15151515,1,2,13,,,,,,,,6,16,,,,,,,,,,,,,1,3.483,0,,,,,,-0.394139991,-0.250786869,1,0,0,3.483,Andesite_rect,12,0,12,0,1,
60d8c6bc9686529cdc824a49,SCR,2024-06-24_17h32.58.164,LearnStrategy,2023.2.3,Win32,15.15151515,1,2,14,,,,,,,,2,08,,,,,,,,,,,,,2,2.858,1,,,,,,-0.140483351,-0.255415658,1,0,0,2.858,Basalt_rect,13,0,13,0,1,
60d8c6bc9686529cdc824a49,SCR,2024-06-24_17h32.58.164,LearnStrategy,2023.2.3,Win32,15.15151515,1,2,15,,,,,,,,7,05,,,,,,,,,,,,,7,2.212,1,,,,,,0.153906673,-0.408165149,1,0,0,2.212,Peridotite_rect,14,0,14,0,1,
60d8c6bc9686529cdc824a49,SCR,2024-06-24_17h32.58.164,LearnStrategy,2023.2.3,Win32,15.15151515,1,2,16,,,,,,,,6,08,,,,,,,,,,,,,6,2.324,1,,,,,,-0.154369595,-0.390575774,1,0,0,2.324,Pegmatite_rect,15,0,15,0,1,
60d8c6bc9686529cdc824a49,SCR,2024-06-24_17h32.58.164,LearnStrategy,2023.2.3,Win32,15.15151515,2,1,1,-0.077532052,0.091742273,1,0,0,8.794,Gabbro_03,4,03,4,4,8.794,4,03,0.387196714,-0.238752066,1,0,0,2.024,Gabbro_rect,4,2.024,1,0,0,0,0,1,,,,,,,,,,,,,
60d8c6bc9686529cdc824a49,SCR,2024-06-24_17h32.58.164,LearnStrategy,2023.2.3,Win32,15.15151515,2,1,2,-0.233984487,0.401870028,1,0,0,1.865,Pegmatite_06,6,06,6,3,1.865,6,06,-0.401546035,-0.259118665,1,0,0,6.869,Andesite_rect,1,6.869,0,1,0,1,0,1,,,,,,,,,,,,,
60d8c6bc9686529cdc824a49,SCR,2024-06-24_17h32.58.164,LearnStrategy,2023.2.3,Win32,15.15151515,2,1,3,-0.541334941,-0.40353636,1,0,0,2.09,Pegmatite_13,6,13,1,1,2.09,6,13,0.140946087,-0.233197556,1,0,0,3.824,Diorite_rect,3,3.824,0,2,0,2,0,1,,,,,,,,,,,,,
60d8c6bc9686529cdc824a49,SCR,2024-06-24_17h32.58.164,LearnStrategy,2023.2.3,Win32,15.15151515,2,1,4,0.092806876,0.259303837,1,0,0,1.72,Peridotite_16,7,16,5,5,1.72,7,16,0.146500597,-0.39798185,1,0,0,2.366,Peridotite_rect,7,2.366,1,3,0,3,0,1,,,,,,,,,,,,,
60d8c6bc9686529cdc824a49,SCR,2024-06-24_17h32.58.164,LearnStrategy,2023.2.3,Win32,15.15151515,2,1,5,0.407563312,-0.432234754,1,0,0,1.475,Gabbro_08,4,08,1,7,1.475,4,08,0.394602851,-0.239677724,1,0,0,3.461,Gabbro_rect,4,3.461,1,4,0,4,0,1,,,,,,,,,,,,,
60d8c6bc9686529cdc824a49,SCR,2024-06-24_17h32.58.164,LearnStrategy,2023.2.3,Win32,15.15151515,2,1,6,-0.407100545,0.250046289,1,0,0,1.546,Andesite_03,1,03,5,2,1.546,1,03,-0.142334792,-0.251712589,1,0,0,2.444,Basalt_rect,2,2.444,0,5,0,5,0,1,,,,,,,,,,,,,
60d8c6bc9686529cdc824a49,SCR,2024-06-24_17h32.58.164,LearnStrategy,2023.2.3,Win32,15.15151515,2,1,7,0.253888101,-0.110072181,1,0,0,1.664,Andesite_04,1,04,3,6,1.664,1,04,-0.40432329,-0.25819282,1,0,0,2.384,Andesite_rect,1,2.384,1,6,0,6,0,1,,,,,,,,,,,,,
60d8c6bc9686529cdc824a49,SCR,2024-06-24_17h32.58.164,LearnStrategy,2023.2.3,Win32,15.15151515,2,1,8,-0.392288488,-0.404462018,1,0,0,1.553,Gabbro_13,4,13,1,2,1.553,4,13,0.407563312,-0.25819282,1,0,0,3.636,Gabbro_rect,4,3.636,1,7,0,7,0,1,,,,,,,,,,,,,
60d8c6bc9686529cdc824a49,SCR,2024-06-24_17h32.58.164,LearnStrategy,2023.2.3,Win32,15.15151515,2,1,9,-0.528374386,-0.249861024,1,0,0,1.431,Andesite_01,1,01,2,1,1.431,1,01,0.122430992,-0.248935365,1,0,0,5.115,Diorite_rect,3,5.115,0,8,0,8,0,1,,,,,,,,,,,,,
60d8c6bc9686529cdc824a49,SCR,2024-06-24_17h32.58.164,LearnStrategy,2023.2.3,Win32,15.15151515,2,1,10,-0.529300138,-0.419274169,1,0,0,1.792,Pegmatite_13,6,13,1,1,1.792,6,13,-0.129374207,-0.410942373,1,0,0,2.231,Pegmatite_rect,6,2.231,1,9,0,9,0,1,,,,,,,,,,,,,
60d8c6bc9686529cdc824a49,SCR,2024-06-24_17h32.58.164,LearnStrategy,2023.2.3,Win32,15.15151515,2,1,11,-0.376550647,0.11581194,1,0,0,1.464,Andesite_02,1,02,4,2,1.464,1,02,0.138168801,-0.239677724,1,0,0,5.883,Diorite_rect,3,5.883,0,10,0,10,0,1,,,,,,,,,,,,,
60d8c6bc9686529cdc824a49,SCR,2024-06-24_17h32.58.164,LearnStrategy,2023.2.3,Win32,15.15151515,2,1,12,-0.524671411,0.244491764,1,0,0,1.553,Basalt_02,2,02,5,1,1.553,2,02,-0.121042411,-0.252638372,1,0,0,1.604,Basalt_rect,2,1.604,1,11,0,11,0,1,,,,,,,,,,,,,
60d8c6bc9686529cdc824a49,SCR,2024-06-24_17h32.58.164,LearnStrategy,2023.2.3,Win32,15.15151515,2,1,13,-0.068274411,0.397241254,1,0,0,1.568,Obsidian_10,5,10,6,4,1.568,5,10,-0.418209596,-0.40909087,1,0,0,5.662,Obsidian_rect,5,5.662,1,12,0,12,0,1,,,,,,,,,,,,,
60d8c6bc9686529cdc824a49,SCR,2024-06-24_17h32.58.164,LearnStrategy,2023.2.3,Win32,15.15151515,2,1,14,0.53994608,-0.090631365,1,0,0,1.426,Pumice_04,8,04,3,8,1.426,8,04,0.427929911,-0.407239366,1,0,0,0.997,Pumice_rect,8,0.997,1,13,0,13,0,1,,,,,,,,,,,,,
60d8c6bc9686529cdc824a49,SCR,2024-06-24_17h32.58.164,LearnStrategy,2023.2.3,Win32,15.15151515,2,1,15,-0.554295526,-0.260044323,1,0,0,1.638,Andesite_01,1,01,2,1,1.638,1,01,-0.424689889,-0.235049059,1,0,0,2.639,Andesite_rect,1,2.639,1,14,0,14,0,1,,,,,,,,,,,,,
60d8c6bc9686529cdc824a49,SCR,2024-06-24_17h32.58.164,LearnStrategy,2023.2.3,Win32,15.15151515,2,1,16,-0.386733947,0.26578413,1,0,0,1.333,Andesite_03,1,03,5,2,1.333,1,03,-0.395991494,-0.247083862,1,0,0,1.517,Andesite_rect,1,1.517,1,15,0,15,0,1,,,,,,,,,,,,,
60d8c6bc9686529cdc824a49,SCR,2024-06-24_17h32.58.164,LearnStrategy,2023.2.3,Win32,15.15151515,2,2,1,,,,,,,,6,15,,,,,,,,,,,,,6,2.988,1,,,,,,-0.112710615,-0.397056067,1,0,0,2.988,Pegmatite_rect,0,0,0,0,1,
60d8c6bc9686529cdc824a49,SCR,2024-06-24_17h32.58.164,LearnStrategy,2023.2.3,Win32,15.15151515,2,2,2,,,,,,,,2,16,,,,,,,,,,,,,2,6.828,1,,,,,,-0.121968194,-0.248935365,1,0,0,6.828,Basalt_rect,1,0,1,0,1,
60d8c6bc9686529cdc824a49,SCR,2024-06-24_17h32.58.164,LearnStrategy,2023.2.3,Win32,15.15151515,2,2,3,,,,,,,,1,14,,,,,,,,,,,,,1,4.299,1,,,,,,-0.439501947,-0.246158079,1,0,0,4.299,Andesite_rect,2,0,2,0,1,
60d8c6bc9686529cdc824a49,SCR,2024-06-24_17h32.58.164,LearnStrategy,2023.2.3,Win32,15.15151515,2,2,4,,,,,,,,7,15,,,,,,,,,,,,,7,1.866,1,,,,,,0.130762788,-0.410016652,1,0,0,1.866,Peridotite_rect,3,0,3,0,1,
60d8c6bc9686529cdc824a49,SCR,2024-06-24_17h32.58.164,LearnStrategy,2023.2.3,Win32,15.15151515,2,2,5,,,,,,,,2,04,,,,,,,,,,,,,2,1.605,1,,,,,,-0.071051697,-0.243380855,1,0,0,1.605,Basalt_rect,4,0,4,0,1,
60d8c6bc9686529cdc824a49,SCR,2024-06-24_17h32.58.164,LearnStrategy,2023.2.3,Win32,15.15151515,2,2,6,,,,,,,,3,13,,,,,,,,,,,,,1,3.078,0,,,,,,-0.336743201,-0.248935365,1,0,0,3.078,Andesite_rect,5,0,5,0,1,
60d8c6bc9686529cdc824a49,SCR,2024-06-24_17h32.58.164,LearnStrategy,2023.2.3,Win32,15.15151515,2,2,7,,,,,,,,6,10,,,,,,,,,,,,,7,3.084,0,,,,,,0.117802202,-0.408165149,1,0,0,3.084,Peridotite_rect,6,0,6,0,1,
60d8c6bc9686529cdc824a49,SCR,2024-06-24_17h32.58.164,LearnStrategy,2023.2.3,Win32,15.15151515,2,2,8,,,,,,,,1,10,,,,,,,,,,,,,1,2.444,1,,,,,,-0.38303094,-0.251712589,1,0,0,2.444,Andesite_rect,7,0,7,0,1,
60d8c6bc9686529cdc824a49,SCR,2024-06-24_17h32.58.164,LearnStrategy,2023.2.3,Win32,15.15151515,2,2,9,,,,,,,,5,12,,,,,,,,,,,,,5,1.873,1,,,,,,-0.401546035,-0.390575774,1,0,0,1.873,Obsidian_rect,8,0,8,0,1,
60d8c6bc9686529cdc824a49,SCR,2024-06-24_17h32.58.164,LearnStrategy,2023.2.3,Win32,15.15151515,2,2,10,,,,,,,,5,06,,,,,,,,,,,,,5,4.211,1,,,,,,-0.385808195,-0.399833353,1,0,0,4.211,Obsidian_rect,9,0,9,0,1,
60d8c6bc9686529cdc824a49,SCR,2024-06-24_17h32.58.164,LearnStrategy,2023.2.3,Win32,15.15151515,2,2,11,,,,,,,,3,15,,,,,,,,,,,,,4,4.547,0,,,,,,0.422375463,-0.245232359,1,0,0,4.547,Gabbro_rect,10,0,10,0,1,
60d8c6bc9686529cdc824a49,SCR,2024-06-24_17h32.58.164,LearnStrategy,2023.2.3,Win32,15.15151515,2,2,12,,,,,,,,4,12,,,,,,,,,,,,,4,6.955,1,,,,,,0.427004191,-0.260970168,1,0,0,6.955,Gabbro_rect,11,0,11,0,1,
60d8c6bc9686529cdc824a49,SCR,2024-06-24_17h32.58.164,LearnStrategy,2023.2.3,Win32,15.15151515,2,2,13,,,,,,,,4,09,,,,,,,,,,,,,4,8.534,1,,,,,,0.399231579,-0.244306576,1,0,0,8.534,Gabbro_rect,12,0,12,0,1,
60d8c6bc9686529cdc824a49,SCR,2024-06-24_17h32.58.164,LearnStrategy,2023.2.3,Win32,15.15151515,2,2,14,,,,,,,,8,06,,,,,,,,,,,,,8,1.503,1,,,,,,0.411266443,-0.415571162,1,0,0,1.503,Pumice_rect,13,0,13,0,1,
60d8c6bc9686529cdc824a49,SCR,2024-06-24_17h32.58.164,LearnStrategy,2023.2.3,Win32,15.15151515,2,2,15,,,,,,,,7,14,,,,,,,,,,,,,7,1.737,1,,,,,,0.116876482,-0.400759073,1,0,0,1.737,Peridotite_rect,14,0,14,0,1,
60d8c6bc9686529cdc824a49,SCR,2024-06-24_17h32.58.164,LearnStrategy,2023.2.3,Win32,15.15151515,2,2,16,,,,,,,,8,16,,,,,,,,,,,,,8,1.758,1,,,,,,0.402934585,-0.40353636,1,0,0,1.758,Pumice_rect,15,0,15,0,1,
60d8c6bc9686529cdc824a49,SCR,2024-06-24_17h32.58.164,LearnStrategy,2023.2.3,Win32,15.15151515,3,1,1,-0.546889482,-0.438715047,1,0,0,1.556,Pegmatite_13,6,13,1,1,1.556,6,13,-0.132151493,-0.404462018,1,0,0,1.777,Pegmatite_rect,6,1.777,1,0,0,0,0,1,,,,,,,,,,,,,
60d8c6bc9686529cdc824a49,SCR,2024-06-24_17h32.58.164,LearnStrategy,2023.2.3,Win32,15.15151515,3,1,2,0.220560793,-0.10914646,1,0,0,1.333,Andesite_04,1,04,3,6,1.333,1,04,-0.386733947,-0.248935365,1,0,0,2.277,Andesite_rect,1,2.277,1,1,0,1,0,1,,,,,,,,,,,,,
60d8c6bc9686529cdc824a49,SCR,2024-06-24_17h32.58.164,LearnStrategy,2023.2.3,Win32,15.15151515,3,1,3,0.400157299,-0.265598958,1,0,0,6.957,Pegmatite_11,6,11,2,7,6.957,1,04,-0.117339404,-0.395204563,1,0,0,2.703,Pegmatite_rect,6,2.703,1,2,0,2,0,1,,,,,,,,,,,,,
60d8c6bc9686529cdc824a49,SCR,2024-06-24_17h32.58.164,LearnStrategy,2023.2.3,Win32,15.15151515,3,1,4,0.562164369,0.237085719,1,0,0,4.836,Diorite_02,3,02,5,8,4.836,6,05,0.140946087,-0.249861024,1,0,0,3.411,Diorite_rect,3,3.411,1,3,0,3,0,1,,,,,,,,,,,,,
60d8c6bc9686529cdc824a49,SCR,2024-06-24_17h32.58.164,LearnStrategy,2023.2.3,Win32,15.15151515,3,1,5,0.10021289,0.409276065,1,0,0,4.967,Diorite_11,3,11,6,5,4.967,3,14,0.167792979,-0.255415658,1,0,0,2.637,Diorite_rect,3,2.637,1,4,0,4,0,1,,,,,,,,,,,,,
60d8c6bc9686529cdc824a49,SCR,2024-06-24_17h32.58.164,LearnStrategy,2023.2.3,Win32,15.15151515,3,1,6,0.563090089,0.410201817,1,0,0,5.833,Gabbro_15,4,15,6,8,5.833,3,11,0.418672457,-0.255415658,1,0,0,2.434,Gabbro_rect,4,2.434,1,5,0,5,0,1,,,,,,,,,,,,,
60d8c6bc9686529cdc824a49,SCR,2024-06-24_17h32.58.164,LearnStrategy,2023.2.3,Win32,15.15151515,3,1,7,-0.526522883,0.38150343,1,0,0,11.654,Andesite_11,1,11,6,1,11.654,7,16,-0.38303094,-0.244306576,1,0,0,2.975,Andesite_rect,1,2.975,1,6,0,6,0,1,,,,,,,,,,,,,
60d8c6bc9686529cdc824a49,SCR,2024-06-24_17h32.58.164,LearnStrategy,2023.2.3,Win32,15.15151515,3,1,8,0.236298788,0.236159968,1,0,0,3.482,Basalt_14,2,14,5,6,3.482,8,02,0.435336049,-0.397056067,1,0,0,2.304,Pumice_rect,8,2.304,0,7,0,7,0,1,,,,,,,,,,,,,
60d8c6bc9686529cdc824a49,SCR,2024-06-24_17h32.58.164,LearnStrategy,2023.2.3,Win32,15.15151515,3,1,9,0.254813822,-0.257267161,1,0,0,7.065,Pumice_10,8,10,2,6,7.065,4,08,0.396454292,-0.405387863,1,0,0,1.797,Pumice_rect,8,1.797,1,8,0,8,0,1,,,,,,,,,,,,,
60d8c6bc9686529cdc824a49,SCR,2024-06-24_17h32.58.164,LearnStrategy,2023.2.3,Win32,15.15151515,3,1,10,-0.547815234,0.076004463,1,0,0,12.831,Basalt_10,2,10,4,1,12.831,2,05,-0.134928717,-0.252638372,1,0,0,2.834,Basalt_rect,2,2.834,1,9,0,9,0,1,,,,,,,,,,,,,
60d8c6bc9686529cdc824a49,SCR,2024-06-24_17h32.58.164,LearnStrategy,2023.2.3,Win32,15.15151515,3,1,11,-0.558924285,-0.119329759,1,0,0,2.312,Pegmatite_05,6,05,3,1,2.312,3,11,0.101138672,-0.251712589,1,0,0,5.302,Diorite_rect,3,5.302,0,10,0,10,0,1,,,,,,,,,,,,,
60d8c6bc9686529cdc824a49,SCR,2024-06-24_17h32.58.164,LearnStrategy,2023.2.3,Win32,15.15151515,3,1,12,-0.390436984,-0.11470097,1,0,0,4.823,Pumice_02,8,02,3,2,4.823,1,11,0.397380013,-0.402610515,1,0,0,1.943,Pumice_rect,8,1.943,1,11,0,11,0,1,,,,,,,,,,,,,
60d8c6bc9686529cdc824a49,SCR,2024-06-24_17h32.58.164,LearnStrategy,2023.2.3,Win32,15.15151515,3,1,13,0.429781477,-0.122106983,1,0,0,4.628,Peridotite_06,7,06,3,7,4.628,4,08,0.161312686,-0.414645317,1,0,0,2.26,Peridotite_rect,7,2.26,1,12,0,12,0,1,,,,,,,,,,,,,
60d8c6bc9686529cdc824a49,SCR,2024-06-24_17h32.58.164,LearnStrategy,2023.2.3,Win32,15.15151515,3,1,14,0.561238648,0.070449922,1,0,0,11.932,Peridotite_12,7,12,4,8,11.932,6,06,0.156683959,-0.400759073,1,0,0,2.121,Peridotite_rect,7,2.121,1,13,0,13,0,1,,,,,,,,,,,,,
60d8c6bc9686529cdc824a49,SCR,2024-06-24_17h32.58.164,LearnStrategy,2023.2.3,Win32,15.15151515,3,1,15,-0.391362736,-0.123958487,1,0,0,3.848,Pumice_02,8,02,3,2,3.848,5,16,0.401083144,-0.410016652,1,0,0,1.903,Pumice_rect,8,1.903,1,14,0,14,0,1,,,,,,,,,,,,,
60d8c6bc9686529cdc824a49,SCR,2024-06-24_17h32.58.164,LearnStrategy,2023.2.3,Win32,15.15151515,3,1,16,-0.079383493,-0.108220677,1,0,0,4.21,Pumice_13,8,13,3,4,4.21,3,02,0.389048279,-0.406313583,1,0,0,2.819,Pumice_rect,8,2.819,1,15,0,15,0,1,,,,,,,,,,,,,
60d8c6bc9686529cdc824a49,SCR,2024-06-24_17h32.58.164,LearnStrategy,2023.2.3,Win32,15.15151515,3,2,1,,,,,,,,4,11,,,,,,,,,,,,,4,7.286,1,,,,,,0.412192164,-0.243380855,1,0,0,7.286,Gabbro_rect,0,0,0,0,1,
60d8c6bc9686529cdc824a49,SCR,2024-06-24_17h32.58.164,LearnStrategy,2023.2.3,Win32,15.15151515,3,2,2,,,,,,,,6,07,,,,,,,,,,,,,6,2.329,1,,,,,,-0.148815147,-0.400759073,1,0,0,2.329,Pegmatite_rect,1,0,1,0,1,
60d8c6bc9686529cdc824a49,SCR,2024-06-24_17h32.58.164,LearnStrategy,2023.2.3,Win32,15.15151515,3,2,3,,,,,,,,1,06,,,,,,,,,,,,,1,2.288,1,,,,,,-0.393214239,-0.259118665,1,0,0,2.288,Andesite_rect,2,0,2,0,1,
60d8c6bc9686529cdc824a49,SCR,2024-06-24_17h32.58.164,LearnStrategy,2023.2.3,Win32,15.15151515,3,2,4,,,,,,,,2,12,,,,,,,,,,,,,2,5.192,1,,,,,,-0.134928717,-0.251712589,1,0,0,5.192,Basalt_rect,3,0,3,0,1,
60d8c6bc9686529cdc824a49,SCR,2024-06-24_17h32.58.164,LearnStrategy,2023.2.3,Win32,15.15151515,3,2,5,,,,,,,,8,03,,,,,,,,,,,,,8,2.045,1,,,,,,0.42607847,-0.407239366,1,0,0,2.045,Pumice_rect,4,0,4,0,1,
60d8c6bc9686529cdc824a49,SCR,2024-06-24_17h32.58.164,LearnStrategy,2023.2.3,Win32,15.15151515,3,2,6,,,,,,,,8,05,,,,,,,,,,,,,8,2.96,1,,,,,,0.414043481,-0.401684856,1,0,0,2.96,Pumice_rect,5,0,5,0,1,
60d8c6bc9686529cdc824a49,SCR,2024-06-24_17h32.58.164,LearnStrategy,2023.2.3,Win32,15.15151515,3,2,7,,,,,,,,1,07,,,,,,,,,,,,,1,4.435,1,,,,,,-0.34600078,-0.25819282,1,0,0,4.435,Andesite_rect,6,0,6,0,1,
60d8c6bc9686529cdc824a49,SCR,2024-06-24_17h32.58.164,LearnStrategy,2023.2.3,Win32,15.15151515,3,2,8,,,,,,,,3,10,,,,,,,,,,,,,4,3.965,0,,,,,,0.389974,-0.239677724,1,0,0,3.965,Gabbro_rect,7,0,7,0,1,
60d8c6bc9686529cdc824a49,SCR,2024-06-24_17h32.58.164,LearnStrategy,2023.2.3,Win32,15.15151515,3,2,9,,,,,,,,4,10,,,,,,,,,,,,,2,4.862,0,,,,,,-0.081234996,-0.260970168,1,0,0,4.862,Basalt_rect,8,0,8,0,1,
60d8c6bc9686529cdc824a49,SCR,2024-06-24_17h32.58.164,LearnStrategy,2023.2.3,Win32,15.15151515,3,2,10,,,,,,,,7,02,,,,,,,,,,,,,7,1.947,1,,,,,,0.132614291,-0.400759073,1,0,0,1.947,Peridotite_rect,9,0,9,0,1,
60d8c6bc9686529cdc824a49,SCR,2024-06-24_17h32.58.164,LearnStrategy,2023.2.3,Win32,15.15151515,3,2,11,,,,,,,,5,04,,,,,,,,,,,,,5,2.346,1,,,,,,-0.390436984,-0.410016652,1,0,0,2.346,Obsidian_rect,10,0,10,0,1,
60d8c6bc9686529cdc824a49,SCR,2024-06-24_17h32.58.164,LearnStrategy,2023.2.3,Win32,15.15151515,3,2,12,,,,,,,,7,04,,,,,,,,,,,,,1,8.497,0,,,,,,-0.364515876,-0.250786869,1,0,0,8.497,Andesite_rect,11,0,11,0,1,
60d8c6bc9686529cdc824a49,SCR,2024-06-24_17h32.58.164,LearnStrategy,2023.2.3,Win32,15.15151515,3,2,13,,,,,,,,6,03,,,,,,,,,,,,,6,6.096,1,,,,,,-0.074754703,-0.402610515,1,0,0,6.096,Pegmatite_rect,12,0,12,0,1,
60d8c6bc9686529cdc824a49,SCR,2024-06-24_17h32.58.164,LearnStrategy,2023.2.3,Win32,15.15151515,3,2,14,,,,,,,,5,07,,,,,,,,,,,,,5,2.477,1,,,,,,-0.370070386,-0.405387863,1,0,0,2.477,Obsidian_rect,13,0,13,0,1,
60d8c6bc9686529cdc824a49,SCR,2024-06-24_17h32.58.164,LearnStrategy,2023.2.3,Win32,15.15151515,3,2,15,,,,,,,,3,08,,,,,,,,,,,,,3,1.968,1,,,,,,0.124282495,-0.245232359,1,0,0,1.968,Diorite_rect,14,0,14,0,1,
60d8c6bc9686529cdc824a49,SCR,2024-06-24_17h32.58.164,LearnStrategy,2023.2.3,Win32,15.15151515,3,2,16,,,,,,,,2,11,,,,,,,,,,,,,2,3.533,1,,,,,,-0.095121302,-0.260044323,1,0,0,3.533,Basalt_rect,15,0,15,0,1,
60d8c6bc9686529cdc824a49,SCR,2024-06-24_17h32.58.164,LearnStrategy,2023.2.3,Win32,15.15151515,4,1,1,0.240927391,0.417607853,1,0,0,3.581,Diorite_07,3,07,6,6,3.581,3,07,-0.346926501,-0.249861024,1,0,0,4.28,Andesite_rect,1,4.28,0,0,0,0,0,1,,,,,,,,,,,,,
60d8c6bc9686529cdc824a49,SCR,2024-06-24_17h32.58.164,LearnStrategy,2023.2.3,Win32,15.15151515,4,1,2,0.414043481,0.423162379,1,0,0,2.191,Pegmatite_12,6,12,6,7,2.191,6,12,-0.143260513,-0.420199952,1,0,0,2.751,Pegmatite_rect,6,2.751,1,1,0,1,0,1,,,,,,,,,,,,,
60d8c6bc9686529cdc824a49,SCR,2024-06-24_17h32.58.164,LearnStrategy,2023.2.3,Win32,15.15151515,4,1,3,0.549203783,0.412053328,1,0,0,1.549,Gabbro_15,4,15,6,8,1.549,4,15,0.42607847,-0.243380855,1,0,0,4.036,Gabbro_rect,4,4.036,1,2,0,2,0,1,,,,,,,,,,,,,
60d8c6bc9686529cdc824a49,SCR,2024-06-24_17h32.58.164,LearnStrategy,2023.2.3,Win32,15.15151515,4,1,4,-0.060868397,-0.118403977,1,0,0,1.227,Pumice_13,8,13,3,4,1.227,8,13,0.392751286,-0.411868156,1,0,0,1.246,Pumice_rect,8,1.246,1,3,0,3,0,1,,,,,,,,,,,,,
60d8c6bc9686529cdc824a49,SCR,2024-06-24_17h32.58.164,LearnStrategy,2023.2.3,Win32,15.15151515,4,1,5,-0.370070386,-0.406313583,1,0,0,1.896,Gabbro_13,4,13,1,2,1.896,4,13,0.425152749,-0.251712589,1,0,0,1.885,Gabbro_rect,4,1.885,1,4,0,4,0,1,,,,,,,,,,,,,
60d8c6bc9686529cdc824a49,SCR,2024-06-24_17h32.58.164,LearnStrategy,2023.2.3,Win32,15.15151515,4,1,6,0.255739667,-0.12025548,1,0,0,2.224,Andesite_04,1,04,3,6,2.224,1,04,-0.392288488,-0.248935365,1,0,0,1.505,Andesite_rect,1,1.505,1,5,0,5,0,1,,,,,,,,,,,,,
60d8c6bc9686529cdc824a49,SCR,2024-06-24_17h32.58.164,LearnStrategy,2023.2.3,Win32,15.15151515,4,1,7,0.080772074,-0.106369174,1,0,0,1.11,Obsidian_16,5,16,3,5,1.11,5,16,-0.401546035,-0.39798185,1,0,0,1.352,Obsidian_rect,5,1.352,1,6,0,6,0,1,,,,,,,,,,,,,
60d8c6bc9686529cdc824a49,SCR,2024-06-24_17h32.58.164,LearnStrategy,2023.2.3,Win32,15.15151515,4,1,8,0.547352342,0.092668024,1,0,0,1.429,Peridotite_12,7,12,4,8,1.429,7,12,0.142797591,-0.395204563,1,0,0,1.593,Peridotite_rect,7,1.593,1,7,0,7,0,1,,,,,,,,,,,,,
60d8c6bc9686529cdc824a49,SCR,2024-06-24_17h32.58.164,LearnStrategy,2023.2.3,Win32,15.15151515,4,1,9,0.227967054,-0.39335306,1,0,0,1.669,Basalt_06,2,06,1,6,1.669,2,06,-0.098824309,-0.246158079,1,0,0,1.709,Basalt_rect,2,1.709,1,8,0,8,0,1,,,,,,,,,,,,,
60d8c6bc9686529cdc824a49,SCR,2024-06-24_17h32.58.164,LearnStrategy,2023.2.3,Win32,15.15151515,4,1,10,-0.066422907,-0.256341379,1,0,0,1.384,Diorite_12,3,12,2,4,1.384,3,12,0.146500597,-0.249861024,1,0,0,2.22,Diorite_rect,3,2.22,1,9,0,9,0,1,,,,,,,,,,,,,
60d8c6bc9686529cdc824a49,SCR,2024-06-24_17h32.58.164,LearnStrategy,2023.2.3,Win32,15.15151515,4,1,11,0.384419552,-0.097111595,1,0,0,1.127,Peridotite_06,7,06,3,7,1.127,7,06,0.115024978,-0.392427215,1,0,0,1.351,Peridotite_rect,7,1.351,1,10,0,10,0,1,,,,,,,,,,,,,
60d8c6bc9686529cdc824a49,SCR,2024-06-24_17h32.58.164,LearnStrategy,2023.2.3,Win32,15.15151515,4,1,12,-0.220098181,-0.294297352,1,0,0,1.231,Gabbro_05,4,05,2,3,1.231,4,05,0.416820891,-0.249861024,1,0,0,4.312,Gabbro_rect,4,4.312,1,11,0,11,0,1,,,,,,,,,,,,,
60d8c6bc9686529cdc824a49,SCR,2024-06-24_17h32.58.164,LearnStrategy,2023.2.3,Win32,15.15151515,4,1,13,-0.524671411,-0.264673175,1,0,0,1.34,Andesite_01,1,01,2,1,1.34,1,01,-0.425615641,-0.249861024,1,0,0,2.142,Andesite_rect,1,2.142,1,12,0,12,0,1,,,,,,,,,,,,,
60d8c6bc9686529cdc824a49,SCR,2024-06-24_17h32.58.164,LearnStrategy,2023.2.3,Win32,15.15151515,4,1,14,0.087252304,0.389835218,1,0,0,1.359,Diorite_11,3,11,6,5,1.359,3,11,0.106693182,-0.259118665,1,0,0,1.845,Diorite_rect,3,1.845,1,13,0,13,0,1,,,,,,,,,,,,,
60d8c6bc9686529cdc824a49,SCR,2024-06-24_17h32.58.164,LearnStrategy,2023.2.3,Win32,15.15151515,4,1,15,0.554758355,0.238937254,1,0,0,1.359,Diorite_02,3,02,5,8,1.359,3,02,0.123356774,-0.252638372,1,0,0,1.499,Diorite_rect,3,1.499,1,14,0,14,0,1,,,,,,,,,,,,,
60d8c6bc9686529cdc824a49,SCR,2024-06-24_17h32.58.164,LearnStrategy,2023.2.3,Win32,15.15151515,4,1,16,0.394602851,-0.268376119,1,0,0,1.242,Pegmatite_11,6,11,2,7,1.242,6,11,-0.124745418,-0.408165149,1,0,0,1.357,Pegmatite_rect,6,1.357,1,15,0,15,0,1,,,,,,,,,,,,,
60d8c6bc9686529cdc824a49,SCR,2024-06-24_17h32.58.164,LearnStrategy,2023.2.3,Win32,15.15151515,4,2,1,,,,,,,,6,08,,,,,,,,,,,,,6,1.271,1,,,,,,-0.1256712,-0.400759073,1,0,0,1.271,Pegmatite_rect,0,0,0,0,1,
60d8c6bc9686529cdc824a49,SCR,2024-06-24_17h32.58.164,LearnStrategy,2023.2.3,Win32,15.15151515,4,2,2,,,,,,,,5,06,,,,,,,,,,,,,5,1.614,1,,,,,,-0.40432329,-0.396130284,1,0,0,1.614,Obsidian_rect,1,0,1,0,1,
60d8c6bc9686529cdc824a49,SCR,2024-06-24_17h32.58.164,LearnStrategy,2023.2.3,Win32,15.15151515,4,2,3,,,,,,,,2,04,,,,,,,,,,,,,2,1.584,1,,,,,,-0.155295316,-0.251712589,1,0,0,1.584,Basalt_rect,2,0,2,0,1,
60d8c6bc9686529cdc824a49,SCR,2024-06-24_17h32.58.164,LearnStrategy,2023.2.3,Win32,15.15151515,4,2,4,,,,,,,,3,08,,,,,,,,,,,,,3,1.263,1,,,,,,0.15298089,-0.254489875,1,0,0,1.263,Diorite_rect,3,0,3,0,1,
60d8c6bc9686529cdc824a49,SCR,2024-06-24_17h32.58.164,LearnStrategy,2023.2.3,Win32,15.15151515,4,2,5,,,,,,,,5,07,,,,,,,,,,,,,5,1.479,1,,,,,,-0.393214239,-0.407239366,1,0,0,1.479,Obsidian_rect,4,0,4,0,1,
60d8c6bc9686529cdc824a49,SCR,2024-06-24_17h32.58.164,LearnStrategy,2023.2.3,Win32,15.15151515,4,2,6,,,,,,,,7,15,,,,,,,,,,,,,7,1.403,1,,,,,,0.129837005,-0.39798185,1,0,0,1.403,Peridotite_rect,5,0,5,0,1,
60d8c6bc9686529cdc824a49,SCR,2024-06-24_17h32.58.164,LearnStrategy,2023.2.3,Win32,15.15151515,4,2,7,,,,,,,,8,16,,,,,,,,,,,,,8,1.353,1,,,,,,0.396454292,-0.386872767,1,0,0,1.353,Pumice_rect,6,0,6,0,1,
60d8c6bc9686529cdc824a49,SCR,2024-06-24_17h32.58.164,LearnStrategy,2023.2.3,Win32,15.15151515,4,2,8,,,,,,,,4,09,,,,,,,,,,,,,4,4.993,1,,,,,,0.417746612,-0.24152929,1,0,0,4.993,Gabbro_rect,7,0,7,0,1,
60d8c6bc9686529cdc824a49,SCR,2024-06-24_17h32.58.164,LearnStrategy,2023.2.3,Win32,15.15151515,4,2,9,,,,,,,,7,14,,,,,,,,,,,,,7,8.894,1,,,,,,0.116876482,-0.405387863,1,0,0,8.894,Peridotite_rect,8,0,8,0,1,
60d8c6bc9686529cdc824a49,SCR,2024-06-24_17h32.58.164,LearnStrategy,2023.2.3,Win32,15.15151515,4,2,10,,,,,,,,4,11,,,,,,,,,,,,,2,3.095,0,,,,,,-0.089566792,-0.250786869,1,0,0,3.095,Basalt_rect,9,0,9,0,1,
60d8c6bc9686529cdc824a49,SCR,2024-06-24_17h32.58.164,LearnStrategy,2023.2.3,Win32,15.15151515,4,2,11,,,,,,,,1,10,,,,,,,,,,,,,1,1.553,1,,,,,,-0.420061131,-0.248935365,1,0,0,1.553,Andesite_rect,10,0,10,0,1,
60d8c6bc9686529cdc824a49,SCR,2024-06-24_17h32.58.164,LearnStrategy,2023.2.3,Win32,15.15151515,4,2,12,,,,,,,,8,14,,,,,,,,,,,,,8,1.657,1,,,,,,0.372384687,-0.400759073,1,0,0,1.657,Pumice_rect,11,0,11,0,1,
60d8c6bc9686529cdc824a49,SCR,2024-06-24_17h32.58.164,LearnStrategy,2023.2.3,Win32,15.15151515,4,2,13,,,,,,,,2,12,,,,,,,,,,,,,2,7.426,1,,,,,,-0.10808195,-0.250786869,1,0,0,7.426,Basalt_rect,12,0,12,0,1,
60d8c6bc9686529cdc824a49,SCR,2024-06-24_17h32.58.164,LearnStrategy,2023.2.3,Win32,15.15151515,4,2,14,,,,,,,,3,15,,,,,,,,,,,,,3,2.447,1,,,,,,0.137243081,-0.264673175,1,0,0,2.447,Diorite_rect,13,0,13,0,1,
60d8c6bc9686529cdc824a49,SCR,2024-06-24_17h32.58.164,LearnStrategy,2023.2.3,Win32,15.15151515,4,2,15,,,,,,,,1,07,,,,,,,,,,,,,1,1.783,1,,,,,,-0.406174794,-0.247083862,1,0,0,1.783,Andesite_rect,14,0,14,0,1,
60d8c6bc9686529cdc824a49,SCR,2024-06-24_17h32.58.164,LearnStrategy,2023.2.3,Win32,15.15151515,4,2,16,,,,,,,,6,16,,,,,,,,,,,,,6,1.664,1,,,,,,-0.149740806,-0.411868156,1,0,0,1.664,Pegmatite_rect,15,0,15,0,1,
60d8c6bc9686529cdc824a49,SCR,2024-06-24_17h32.58.164,LearnStrategy,2023.2.3,Win32,15.15151515,5,1,1,0.248333653,-0.433160413,1,0,0,1.782,Basalt_06,2,06,1,6,1.782,2,06,-0.121042411,-0.249861024,1,0,0,1.621,Basalt_rect,2,1.621,1,0,0,0,0,1,,,,,,,,,,,,,
60d8c6bc9686529cdc824a49,SCR,2024-06-24_17h32.58.164,LearnStrategy,2023.2.3,Win32,15.15151515,5,1,2,0.071514495,0.241714509,1,0,0,1.237,Peridotite_16,7,16,5,5,1.237,7,16,0.124282495,-0.402610515,1,0,0,1.703,Peridotite_rect,7,1.703,1,1,0,1,0,1,,,,,,,,,,,,,
60d8c6bc9686529cdc824a49,SCR,2024-06-24_17h32.58.164,LearnStrategy,2023.2.3,Win32,15.15151515,5,1,3,0.559387083,0.411127576,1,0,0,1.585,Gabbro_15,4,15,6,8,1.585,4,15,0.398305858,-0.251712589,1,0,0,2.13,Gabbro_rect,4,2.13,1,2,0,2,0,1,,,,,,,,,,,,,
60d8c6bc9686529cdc824a49,SCR,2024-06-24_17h32.58.164,LearnStrategy,2023.2.3,Win32,15.15151515,5,1,4,0.089103807,0.405573043,1,0,0,1.198,Diorite_11,3,11,6,5,1.198,3,11,0.143723373,-0.257267161,1,0,0,1.612,Diorite_rect,3,1.612,1,3,0,3,0,1,,,,,,,,,,,,,
60d8c6bc9686529cdc824a49,SCR,2024-06-24_17h32.58.164,LearnStrategy,2023.2.3,Win32,15.15151515,5,1,5,-0.220098181,0.383354948,1,0,0,1.129,Pegmatite_06,6,06,6,3,1.129,6,06,-0.147889302,-0.402610515,1,0,0,2.125,Pegmatite_rect,6,2.125,1,4,0,4,0,1,,,,,,,,,,,,,
60d8c6bc9686529cdc824a49,SCR,2024-06-24_17h32.58.164,LearnStrategy,2023.2.3,Win32,15.15151515,5,1,6,0.385345273,-0.264673175,1,0,0,1.335,Pegmatite_11,6,11,2,7,1.335,6,11,-0.100675812,-0.414645317,1,0,0,1.124,Pegmatite_rect,6,1.124,1,5,0,5,0,1,,,,,,,,,,,,,
60d8c6bc9686529cdc824a49,SCR,2024-06-24_17h32.58.164,LearnStrategy,2023.2.3,Win32,15.15151515,5,1,7,-0.208989099,-0.102666167,1,0,0,1.076,Diorite_14,3,14,3,3,1.076,3,14,0.120579488,-0.245232359,1,0,0,1.513,Diorite_rect,3,1.513,1,6,0,6,0,1,,,,,,,,,,,,,
60d8c6bc9686529cdc824a49,SCR,2024-06-24_17h32.58.164,LearnStrategy,2023.2.3,Win32,15.15151515,5,1,8,-0.543186444,-0.257267161,1,0,0,1.32,Andesite_01,1,01,2,1,1.32,1,01,-0.428392896,-0.24152929,1,0,0,1.61,Andesite_rect,1,1.61,1,7,0,7,0,1,,,,,,,,,,,,,
60d8c6bc9686529cdc824a49,SCR,2024-06-24_17h32.58.164,LearnStrategy,2023.2.3,Win32,15.15151515,5,1,9,-0.208989099,0.074152991,1,0,0,1.517,Obsidian_11,5,11,4,3,1.517,5,11,-0.411729335,-0.405387863,1,0,0,2.473,Obsidian_rect,5,2.473,1,8,0,8,0,1,,,,,,,,,,,,,
60d8c6bc9686529cdc824a49,SCR,2024-06-24_17h32.58.164,LearnStrategy,2023.2.3,Win32,15.15151515,5,1,10,0.399231579,-0.39798185,1,0,0,1.393,Gabbro_08,4,08,1,7,1.393,4,08,0.425152749,-0.246158079,1,0,0,1.945,Gabbro_rect,4,1.945,1,9,0,9,0,1,,,,,,,,,,,,,
60d8c6bc9686529cdc824a49,SCR,2024-06-24_17h32.58.164,LearnStrategy,2023.2.3,Win32,15.15151515,5,1,11,0.224263923,0.409276065,1,0,0,1.442,Diorite_07,3,07,6,6,1.442,3,07,0.154832393,-0.245232359,1,0,0,1.731,Diorite_rect,3,1.731,1,10,0,10,0,1,,,,,,,,,,,,,
60d8c6bc9686529cdc824a49,SCR,2024-06-24_17h32.58.164,LearnStrategy,2023.2.3,Win32,15.15151515,5,1,12,0.253888101,-0.281336767,1,0,0,1.248,Pumice_10,8,10,2,6,1.248,8,10,0.41496945,-0.391501557,1,0,0,1.491,Pumice_rect,8,1.491,1,11,0,11,0,1,,,,,,,,,,,,,
60d8c6bc9686529cdc824a49,SCR,2024-06-24_17h32.58.164,LearnStrategy,2023.2.3,Win32,15.15151515,5,1,13,-0.526522883,0.391686729,1,0,0,1.351,Andesite_11,1,11,6,1,1.351,1,11,-0.44598224,-0.235049059,1,0,0,1.419,Andesite_rect,1,1.419,1,12,0,12,0,1,,,,,,,,,,,,,
60d8c6bc9686529cdc824a49,SCR,2024-06-24_17h32.58.164,LearnStrategy,2023.2.3,Win32,15.15151515,5,1,14,-0.376550647,-0.425754462,1,0,0,4.131,Gabbro_13,4,13,1,2,4.131,4,13,0.42422678,-0.245232359,1,0,0,1.807,Gabbro_rect,4,1.807,1,13,0,13,0,1,,,,,,,,,,,,,
60d8c6bc9686529cdc824a49,SCR,2024-06-24_17h32.58.164,LearnStrategy,2023.2.3,Win32,15.15151515,5,1,15,0.401083144,-0.418348448,1,0,0,1.302,Gabbro_08,4,08,1,7,1.302,4,08,0.420523898,-0.246158079,1,0,0,2.064,Gabbro_rect,4,2.064,1,14,0,14,0,1,,,,,,,,,,,,,
60d8c6bc9686529cdc824a49,SCR,2024-06-24_17h32.58.164,LearnStrategy,2023.2.3,Win32,15.15151515,5,1,16,0.408489157,-0.129513059,1,0,0,1.35,Peridotite_06,7,06,3,7,1.35,7,06,0.163164251,-0.421125672,1,0,0,1.35,Peridotite_rect,7,1.35,1,15,0,15,0,1,,,,,,,,,,,,,
60d8c6bc9686529cdc824a49,SCR,2024-06-24_17h32.58.164,LearnStrategy,2023.2.3,Win32,15.15151515,5,2,1,,,,,,,,6,03,,,,,,,,,,,,,6,5.169,1,,,,,,-0.116413684,-0.39798185,1,0,0,5.169,Pegmatite_rect,0,0,0,0,1,
60d8c6bc9686529cdc824a49,SCR,2024-06-24_17h32.58.164,LearnStrategy,2023.2.3,Win32,15.15151515,5,2,2,,,,,,,,8,15,,,,,,,,,,,,,8,1.718,1,,,,,,0.399231579,-0.388724271,1,0,0,1.718,Pumice_rect,1,0,1,0,1,
60d8c6bc9686529cdc824a49,SCR,2024-06-24_17h32.58.164,LearnStrategy,2023.2.3,Win32,15.15151515,5,2,3,,,,,,,,3,06,,,,,,,,,,,,,4,3.543,0,,,,,,0.433484483,-0.237826221,1,0,0,3.543,Gabbro_rect,2,0,2,0,1,
60d8c6bc9686529cdc824a49,SCR,2024-06-24_17h32.58.164,LearnStrategy,2023.2.3,Win32,15.15151515,5,2,4,,,,,,,,2,11,,,,,,,,,,,,,2,2.298,1,,,,,,-0.111784894,-0.257267161,1,0,0,2.298,Basalt_rect,3,0,3,0,1,
60d8c6bc9686529cdc824a49,SCR,2024-06-24_17h32.58.164,LearnStrategy,2023.2.3,Win32,15.15151515,5,2,5,,,,,,,,3,09,,,,,,,,,,,,,3,1.884,1,,,,,,0.19463987,-0.266524678,1,0,0,1.884,Diorite_rect,4,0,4,0,1,
60d8c6bc9686529cdc824a49,SCR,2024-06-24_17h32.58.164,LearnStrategy,2023.2.3,Win32,15.15151515,5,2,6,,,,,,,,4,14,,,,,,,,,,,,,4,2.715,1,,,,,,0.369607401,-0.267450461,1,0,0,2.715,Gabbro_rect,5,0,5,0,1,
60d8c6bc9686529cdc824a49,SCR,2024-06-24_17h32.58.164,LearnStrategy,2023.2.3,Win32,15.15151515,5,2,7,,,,,,,,5,04,,,,,,,,,,,,,5,1.51,1,,,,,,-0.384882443,-0.408165149,1,0,0,1.51,Obsidian_rect,6,0,6,0,1,
60d8c6bc9686529cdc824a49,SCR,2024-06-24_17h32.58.164,LearnStrategy,2023.2.3,Win32,15.15151515,5,2,8,,,,,,,,4,12,,,,,,,,,,,,,4,7.483,1,,,,,,0.432558763,-0.254489875,1,0,0,7.483,Gabbro_rect,7,0,7,0,1,
60d8c6bc9686529cdc824a49,SCR,2024-06-24_17h32.58.164,LearnStrategy,2023.2.3,Win32,15.15151515,5,2,9,,,,,,,,1,09,,,,,,,,,,,,,1,1.626,1,,,,,,-0.376550647,-0.252638372,1,0,0,1.626,Andesite_rect,8,0,8,0,1,
60d8c6bc9686529cdc824a49,SCR,2024-06-24_17h32.58.164,LearnStrategy,2023.2.3,Win32,15.15151515,5,2,10,,,,,,,,6,10,,,,,,,,,,,,,7,1.615,0,,,,,,0.190011019,-0.410016652,1,0,0,1.615,Peridotite_rect,9,0,9,0,1,
60d8c6bc9686529cdc824a49,SCR,2024-06-24_17h32.58.164,LearnStrategy,2023.2.3,Win32,15.15151515,5,2,11,,,,,,,,1,06,,,,,,,,,,,,,1,1.47,1,,,,,,-0.371921889,-0.253564155,1,0,0,1.47,Andesite_rect,10,0,10,0,1,
60d8c6bc9686529cdc824a49,SCR,2024-06-24_17h32.58.164,LearnStrategy,2023.2.3,Win32,15.15151515,5,2,12,,,,,,,,2,08,,,,,,,,,,,,,2,1.458,1,,,,,,-0.150666651,-0.254489875,1,0,0,1.458,Basalt_rect,11,0,11,0,1,
60d8c6bc9686529cdc824a49,SCR,2024-06-24_17h32.58.164,LearnStrategy,2023.2.3,Win32,15.15151515,5,2,13,,,,,,,,7,02,,,,,,,,,,,,,7,1.617,1,,,,,,0.155758114,-0.404462018,1,0,0,1.617,Peridotite_rect,12,0,12,0,1,
60d8c6bc9686529cdc824a49,SCR,2024-06-24_17h32.58.164,LearnStrategy,2023.2.3,Win32,15.15151515,5,2,14,,,,,,,,7,04,,,,,,,,,,,,,4,6.211,0,,,,,,0.41496945,-0.251712589,1,0,0,6.211,Gabbro_rect,13,0,13,0,1,
60d8c6bc9686529cdc824a49,SCR,2024-06-24_17h32.58.164,LearnStrategy,2023.2.3,Win32,15.15151515,5,2,15,,,,,,,,5,05,,,,,,,,,,,,,5,1.647,1,,,,,,-0.393214239,-0.400759073,1,0,0,1.647,Obsidian_rect,14,0,14,0,1,
60d8c6bc9686529cdc824a49,SCR,2024-06-24_17h32.58.164,LearnStrategy,2023.2.3,Win32,15.15151515,5,2,16,,,,,,,,8,03,,,,,,,,,,,,,8,1.65,1,,,,,,0.449222355,-0.39798185,1,0,0,1.65,Pumice_rect,15,0,15,0,1,
60d8c6bc9686529cdc824a49,SCR,2024-06-24_17h32.58.164,LearnStrategy,2023.2.3,Win32,15.15151515,6,1,1,0.391825565,0.400944277,1,0,0,11.526,Pegmatite_12,6,12,6,7,11.526,6,12,-0.165478615,-0.397056067,1,0,0,1.721,Pegmatite_rect,6,1.721,1,0,0,0,0,1,,,,,,,,,,,,,
60d8c6bc9686529cdc824a49,SCR,2024-06-24_17h32.58.164,LearnStrategy,2023.2.3,Win32,15.15151515,6,1,2,-0.247870793,-0.285039774,1,0,0,1.241,Gabbro_05,4,05,2,3,1.241,4,05,0.397380013,-0.260970168,1,0,0,2.015,Gabbro_rect,4,2.015,1,1,0,1,0,1,,,,,,,,,,,,,
60d8c6bc9686529cdc824a49,SCR,2024-06-24_17h32.58.164,LearnStrategy,2023.2.3,Win32,15.15151515,6,1,3,-0.566330329,0.412979079,1,0,0,1.785,Andesite_11,1,11,6,1,1.785,1,11,-0.395065743,-0.235049059,1,0,0,1.35,Andesite_rect,1,1.35,1,2,0,2,0,1,,,,,,,,,,,,,
60d8c6bc9686529cdc824a49,SCR,2024-06-24_17h32.58.164,LearnStrategy,2023.2.3,Win32,15.15151515,6,1,4,-0.542260692,0.092668024,1,0,0,1.558,Basalt_10,2,10,4,1,1.558,2,10,-0.109007608,-0.24800952,1,0,0,1.979,Basalt_rect,2,1.979,1,3,0,3,0,1,,,,,,,,,,,,,
60d8c6bc9686529cdc824a49,SCR,2024-06-24_17h32.58.164,LearnStrategy,2023.2.3,Win32,15.15151515,6,1,5,0.22704121,0.370394378,1,0,0,1.218,Diorite_07,3,07,6,6,1.218,3,07,0.136317298,-0.253564155,1,0,0,1.105,Diorite_rect,3,1.105,1,4,0,4,0,1,,,,,,,,,,,,,
60d8c6bc9686529cdc824a49,SCR,2024-06-24_17h32.58.164,LearnStrategy,2023.2.3,Win32,15.15151515,6,1,6,0.065959985,0.234308464,1,0,0,1.043,Peridotite_16,7,16,5,5,1.043,7,16,0.0955841,-0.39335306,1,0,0,1.216,Peridotite_rect,7,1.216,1,5,0,5,0,1,,,,,,,,,,,,,
60d8c6bc9686529cdc824a49,SCR,2024-06-24_17h32.58.164,LearnStrategy,2023.2.3,Win32,15.15151515,6,1,7,0.418672457,-0.410016652,1,0,0,1.237,Gabbro_08,4,08,1,7,1.237,4,08,0.399231579,-0.262821671,1,0,0,1.524,Gabbro_rect,4,1.524,1,6,0,6,0,1,,,,,,,,,,,,,
60d8c6bc9686529cdc824a49,SCR,2024-06-24_17h32.58.164,LearnStrategy,2023.2.3,Win32,15.15151515,6,1,8,-0.067348752,-0.432234754,1,0,0,2.884,Gabbro_01,4,01,1,4,2.884,4,08,0.393676882,-0.233197556,1,0,0,2.205,Gabbro_rect,4,2.205,1,7,0,7,0,1,,,,,,,,,,,,,
60d8c6bc9686529cdc824a49,SCR,2024-06-24_17h32.58.164,LearnStrategy,2023.2.3,Win32,15.15151515,6,1,9,-0.253425303,0.102851324,1,0,0,1.319,Obsidian_11,5,11,4,3,1.319,5,11,-0.456165539,-0.408165149,1,0,0,1,Obsidian_rect,5,1,1,8,0,8,0,1,,,,,,,,,,,,,
60d8c6bc9686529cdc824a49,SCR,2024-06-24_17h32.58.164,LearnStrategy,2023.2.3,Win32,15.15151515,6,1,10,-0.233984487,0.238011502,1,0,0,11.713,Pegmatite_09,6,09,5,3,11.713,7,13,0.136317298,-0.394278719,1,0,0,1.581,Peridotite_rect,7,1.581,0,9,0,9,0,1,,,,,,,,,,,,,
60d8c6bc9686529cdc824a49,SCR,2024-06-24_17h32.58.164,LearnStrategy,2023.2.3,Win32,15.15151515,6,1,11,-0.391362736,0.089890769,1,0,0,3.687,Andesite_02,1,02,4,2,3.687,6,06,-0.462645863,-0.244306576,1,0,0,1.482,Andesite_rect,1,1.482,1,10,0,10,0,1,,,,,,,,,,,,,
60d8c6bc9686529cdc824a49,SCR,2024-06-24_17h32.58.164,LearnStrategy,2023.2.3,Win32,15.15151515,6,1,12,0.584382409,0.067672667,1,0,0,1.307,Peridotite_12,7,12,4,8,1.307,7,12,0.136317298,-0.408165149,1,0,0,2.155,Peridotite_rect,7,2.155,1,11,0,11,0,1,,,,,,,,,,,,,
60d8c6bc9686529cdc824a49,SCR,2024-06-24_17h32.58.164,LearnStrategy,2023.2.3,Win32,15.15151515,6,1,13,0.083549298,-0.25819282,1,0,0,3.148,Peridotite_10,7,10,2,5,3.148,8,10,0.150203604,-0.407239366,1,0,0,3.406,Peridotite_rect,7,3.406,1,12,0,12,0,1,,,,,,,,,,,,,
60d8c6bc9686529cdc824a49,SCR,2024-06-24_17h32.58.164,LearnStrategy,2023.2.3,Win32,15.15151515,6,1,14,0.56401581,0.245417531,1,0,0,2.023,Diorite_02,3,02,5,8,2.023,3,02,0.139094584,-0.23597478,1,0,0,1.172,Diorite_rect,3,1.172,1,13,0,13,0,1,,,,,,,,,,,,,
60d8c6bc9686529cdc824a49,SCR,2024-06-24_17h32.58.164,LearnStrategy,2023.2.3,Win32,15.15151515,6,1,15,-0.08401222,-0.260044323,1,0,0,1.369,Diorite_12,3,12,2,4,1.369,3,12,0.144649094,-0.245232359,1,0,0,1.617,Diorite_rect,3,1.617,1,14,0,14,0,1,,,,,,,,,,,,,
60d8c6bc9686529cdc824a49,SCR,2024-06-24_17h32.58.164,LearnStrategy,2023.2.3,Win32,15.15151515,6,1,16,0.364978674,0.398167006,1,0,0,1.798,Pegmatite_12,6,12,6,7,1.798,6,12,-0.154369595,-0.390575774,1,0,0,1.333,Pegmatite_rect,6,1.333,1,15,0,15,0,1,,,,,,,,,,,,,
60d8c6bc9686529cdc824a49,SCR,2024-06-24_17h32.58.164,LearnStrategy,2023.2.3,Win32,15.15151515,6,2,1,,,,,,,,6,15,,,,,,,,,,,,,6,1.453,1,,,,,,-0.103453098,-0.402610515,1,0,0,1.453,Pegmatite_rect,0,0,0,0,1,
60d8c6bc9686529cdc824a49,SCR,2024-06-24_17h32.58.164,LearnStrategy,2023.2.3,Win32,15.15151515,6,2,2,,,,,,,,8,05,,,,,,,,,,,,,8,1.538,1,,,,,,0.388122559,-0.390575774,1,0,0,1.538,Pumice_rect,1,0,1,0,1,
60d8c6bc9686529cdc824a49,SCR,2024-06-24_17h32.58.164,LearnStrategy,2023.2.3,Win32,15.15151515,6,2,3,,,,,,,,7,05,,,,,,,,,,,,,7,4.175,1,,,,,,0.111321972,-0.405387863,1,0,0,4.175,Peridotite_rect,2,0,2,0,1,
60d8c6bc9686529cdc824a49,SCR,2024-06-24_17h32.58.164,LearnStrategy,2023.2.3,Win32,15.15151515,6,2,4,,,,,,,,2,16,,,,,,,,,,,,,2,2.046,1,,,,,,-0.100675812,-0.25819282,1,0,0,2.046,Basalt_rect,3,0,3,0,1,
60d8c6bc9686529cdc824a49,SCR,2024-06-24_17h32.58.164,LearnStrategy,2023.2.3,Win32,15.15151515,6,2,5,,,,,,,,4,10,,,,,,,,,,,,,4,1.991,1,,,,,,0.389974,-0.247083862,1,0,0,1.991,Gabbro_rect,4,0,4,0,1,
60d8c6bc9686529cdc824a49,SCR,2024-06-24_17h32.58.164,LearnStrategy,2023.2.3,Win32,15.15151515,6,2,6,,,,,,,,1,14,,,,,,,,,,,,,1,1.786,1,,,,,,-0.36266431,-0.265598958,1,0,0,1.786,Andesite_rect,5,0,5,0,1,
60d8c6bc9686529cdc824a49,SCR,2024-06-24_17h32.58.164,LearnStrategy,2023.2.3,Win32,15.15151515,6,2,7,,,,,,,,7,08,,,,,,,,,,,,,7,1.856,1,,,,,,0.160386965,-0.413719659,1,0,0,1.856,Peridotite_rect,6,0,6,0,1,
60d8c6bc9686529cdc824a49,SCR,2024-06-24_17h32.58.164,LearnStrategy,2023.2.3,Win32,15.15151515,6,2,8,,,,,,,,4,16,,,,,,,,,,,,,4,2.436,1,,,,,,0.405711871,-0.257267161,1,0,0,2.436,Gabbro_rect,7,0,7,0,1,
60d8c6bc9686529cdc824a49,SCR,2024-06-24_17h32.58.164,LearnStrategy,2023.2.3,Win32,15.15151515,6,2,9,,,,,,,,1,05,,,,,,,,,,,,,1,1.495,1,,,,,,-0.408026297,-0.251712589,1,0,0,1.495,Andesite_rect,8,0,8,0,1,
60d8c6bc9686529cdc824a49,SCR,2024-06-24_17h32.58.164,LearnStrategy,2023.2.3,Win32,15.15151515,6,2,10,,,,,,,,5,14,,,,,,,,,,,,,5,1.406,1,,,,,,-0.376550647,-0.400759073,1,0,0,1.406,Obsidian_rect,9,0,9,0,1,
60d8c6bc9686529cdc824a49,SCR,2024-06-24_17h32.58.164,LearnStrategy,2023.2.3,Win32,15.15151515,6,2,11,,,,,,,,3,10,,,,,,,,,,,,,3,2.118,1,,,,,,0.176124713,-0.245232359,1,0,0,2.118,Diorite_rect,10,0,10,0,1,
60d8c6bc9686529cdc824a49,SCR,2024-06-24_17h32.58.164,LearnStrategy,2023.2.3,Win32,15.15151515,6,2,12,,,,,,,,6,07,,,,,,,,,,,,,6,1.481,1,,,,,,-0.128448548,-0.408165149,1,0,0,1.481,Pegmatite_rect,11,0,11,0,1,
60d8c6bc9686529cdc824a49,SCR,2024-06-24_17h32.58.164,LearnStrategy,2023.2.3,Win32,15.15151515,6,2,13,,,,,,,,8,06,,,,,,,,,,,,,8,3.303,1,,,,,,0.405711871,-0.399833353,1,0,0,3.303,Pumice_rect,12,0,12,0,1,
60d8c6bc9686529cdc824a49,SCR,2024-06-24_17h32.58.164,LearnStrategy,2023.2.3,Win32,15.15151515,6,2,14,,,,,,,,2,09,,,,,,,,,,,,,2,1.453,1,,,,,,-0.13122571,-0.261895889,1,0,0,1.453,Basalt_rect,13,0,13,0,1,
60d8c6bc9686529cdc824a49,SCR,2024-06-24_17h32.58.164,LearnStrategy,2023.2.3,Win32,15.15151515,6,2,15,,,,,,,,5,12,,,,,,,,,,,,,5,2.877,1,,,,,,-0.395991494,-0.419274169,1,0,0,2.877,Obsidian_rect,14,0,14,0,1,
60d8c6bc9686529cdc824a49,SCR,2024-06-24_17h32.58.164,LearnStrategy,2023.2.3,Win32,15.15151515,6,2,16,,,,,,,,3,13,,,,,,,,,,,,,3,1.51,1,,,,,,0.176124713,-0.239677724,1,0,0,1.51,Diorite_rect,15,0,15,0,1,
60d8c6bc9686529cdc824a49,SCR,2024-06-24_17h32.58.164,LearnStrategy,2023.2.3,Win32,15.15151515,7,1,1,0.063182699,0.36854286,1,0,0,1.75,Diorite_11,3,11,6,5,1.75,3,11,0.1585354,-0.243380855,1,0,0,1.285,Diorite_rect,3,1.285,1,0,0,0,0,1,,,,,,,,,,,,,
60d8c6bc9686529cdc824a49,SCR,2024-06-24_17h32.58.164,LearnStrategy,2023.2.3,Win32,15.15151515,7,1,2,-0.059942615,0.25560083,1,0,0,2.441,Pumice_08,8,08,5,4,2.441,3,11,0.42422678,-0.407239366,1,0,0,1.458,Pumice_rect,8,1.458,1,1,0,1,0,1,,,,,,,,,,,,,
60d8c6bc9686529cdc824a49,SCR,2024-06-24_17h32.58.164,LearnStrategy,2023.2.3,Win32,15.15151515,7,1,3,-0.232133046,0.262081107,1,0,0,1.227,Pegmatite_09,6,09,5,3,1.227,6,09,-0.157146881,-0.407239366,1,0,0,1.349,Pegmatite_rect,6,1.349,1,2,0,2,0,1,,,,,,,,,,,,,
60d8c6bc9686529cdc824a49,SCR,2024-06-24_17h32.58.164,LearnStrategy,2023.2.3,Win32,15.15151515,7,1,4,-0.395991494,0.230605458,1,0,0,1.119,Andesite_03,1,03,5,2,1.119,1,03,-0.413580838,-0.249861024,1,0,0,1.501,Andesite_rect,1,1.501,1,3,0,3,0,1,,,,,,,,,,,,,
60d8c6bc9686529cdc824a49,SCR,2024-06-24_17h32.58.164,LearnStrategy,2023.2.3,Win32,15.15151515,7,1,5,-0.234910207,-0.28781706,1,0,0,1.255,Gabbro_05,4,05,2,3,1.255,4,05,0.438113211,-0.23597478,1,0,0,1.84,Gabbro_rect,4,1.84,1,4,0,4,0,1,,,,,,,,,,,,,
60d8c6bc9686529cdc824a49,SCR,2024-06-24_17h32.58.164,LearnStrategy,2023.2.3,Win32,15.15151515,7,1,6,0.243704802,0.113960406,1,0,0,1.017,Obsidian_09,5,09,4,6,1.017,5,09,-0.405249042,-0.400759073,1,0,0,2.617,Obsidian_rect,5,2.617,1,5,0,5,0,1,,,,,,,,,,,,,
60d8c6bc9686529cdc824a49,SCR,2024-06-24_17h32.58.164,LearnStrategy,2023.2.3,Win32,15.15151515,7,1,7,-0.576513628,-0.108220677,1,0,0,1.126,Pegmatite_05,6,05,3,1,1.126,6,05,-0.145112016,-0.410942373,1,0,0,3.079,Pegmatite_rect,6,3.079,1,6,0,6,0,1,,,,,,,,,,,,,
60d8c6bc9686529cdc824a49,SCR,2024-06-24_17h32.58.164,LearnStrategy,2023.2.3,Win32,15.15151515,7,1,8,-0.256202589,-0.090631365,1,0,0,1.097,Diorite_14,3,14,3,3,1.097,3,14,0.157609679,-0.246158079,1,0,0,1.367,Diorite_rect,3,1.367,1,7,0,7,0,1,,,,,,,,,,,,,
60d8c6bc9686529cdc824a49,SCR,2024-06-24_17h32.58.164,LearnStrategy,2023.2.3,Win32,15.15151515,7,1,9,-0.383956692,-0.101740385,1,0,0,1.226,Pumice_02,8,02,3,2,1.226,8,02,0.411266443,-0.399833353,1,0,0,1.711,Pumice_rect,8,1.711,1,8,0,8,0,1,,,,,,,,,,,,,
60d8c6bc9686529cdc824a49,SCR,2024-06-24_17h32.58.164,LearnStrategy,2023.2.3,Win32,15.15151515,7,1,10,0.099287107,-0.269301964,1,0,0,1.637,Peridotite_10,7,10,2,5,1.637,7,10,0.151129387,-0.416496883,1,0,0,1.465,Peridotite_rect,7,1.465,1,9,0,9,0,1,,,,,,,,,,,,,
60d8c6bc9686529cdc824a49,SCR,2024-06-24_17h32.58.164,LearnStrategy,2023.2.3,Win32,15.15151515,7,1,11,0.553832511,0.090816521,1,0,0,1.216,Peridotite_12,7,12,4,8,1.216,7,12,0.150203604,-0.421125672,1,0,0,1.473,Peridotite_rect,7,1.473,1,10,0,10,0,1,,,,,,,,,,,,,
60d8c6bc9686529cdc824a49,SCR,2024-06-24_17h32.58.164,LearnStrategy,2023.2.3,Win32,15.15151515,7,1,12,0.375161973,-0.415571162,1,0,0,1.374,Gabbro_08,4,08,1,7,1.374,4,08,0.417746612,-0.231345991,1,0,0,1.863,Gabbro_rect,4,1.863,1,11,0,11,0,1,,,,,,,,,,,,,
60d8c6bc9686529cdc824a49,SCR,2024-06-24_17h32.58.164,LearnStrategy,2023.2.3,Win32,15.15151515,7,1,13,-0.547815234,-0.111923684,1,0,0,1.231,Pegmatite_05,6,05,3,1,1.231,6,05,-0.117339404,-0.408165149,1,0,0,3.674,Pegmatite_rect,6,3.674,1,12,0,12,0,1,,,,,,,,,,,,,
60d8c6bc9686529cdc824a49,SCR,2024-06-24_17h32.58.164,LearnStrategy,2023.2.3,Win32,15.15151515,7,1,14,0.08447508,-0.396130284,1,0,0,1.24,Basalt_01,2,01,1,5,1.24,2,01,-0.153443812,-0.260044323,1,0,0,1.507,Basalt_rect,2,1.507,1,13,0,13,0,1,,,,,,,,,,,,,
60d8c6bc9686529cdc824a49,SCR,2024-06-24_17h32.58.164,LearnStrategy,2023.2.3,Win32,15.15151515,7,1,15,0.575124954,0.080633222,1,0,0,5.181,Peridotite_12,7,12,4,8,5.181,7,12,0.172421706,-0.414645317,1,0,0,1.038,Peridotite_rect,7,1.038,1,14,0,14,0,1,,,,,,,,,,,,,
60d8c6bc9686529cdc824a49,SCR,2024-06-24_17h32.58.164,LearnStrategy,2023.2.3,Win32,15.15151515,7,1,16,-0.080309213,0.098222566,1,0,0,1.203,Gabbro_03,4,03,4,4,1.203,4,03,0.442742062,-0.260044323,1,0,0,4.982,Gabbro_rect,4,4.982,1,15,0,15,0,1,,,,,,,,,,,,,
60d8c6bc9686529cdc824a49,SCR,2024-06-24_17h32.58.164,LearnStrategy,2023.2.3,Win32,15.15151515,7,2,1,,,,,,,,1,09,,,,,,,,,,,,,1,1.955,1,,,,,,-0.421912665,-0.254489875,1,0,0,1.955,Andesite_rect,0,0,0,0,1,
60d8c6bc9686529cdc824a49,SCR,2024-06-24_17h32.58.164,LearnStrategy,2023.2.3,Win32,15.15151515,7,2,2,,,,,,,,3,08,,,,,,,,,,,,,3,1.617,1,,,,,,0.165941413,-0.246158079,1,0,0,1.617,Diorite_rect,1,0,1,0,1,
60d8c6bc9686529cdc824a49,SCR,2024-06-24_17h32.58.164,LearnStrategy,2023.2.3,Win32,15.15151515,7,2,3,,,,,,,,6,10,,,,,,,,,,,,,7,8.232,0,,,,,,0.123356774,-0.400759073,1,0,0,8.232,Peridotite_rect,2,0,2,0,1,
60d8c6bc9686529cdc824a49,SCR,2024-06-24_17h32.58.164,LearnStrategy,2023.2.3,Win32,15.15151515,7,2,4,,,,,,,,4,12,,,,,,,,,,,,,4,1.754,1,,,,,,0.43441008,-0.239677724,1,0,0,1.754,Gabbro_rect,3,0,3,0,1,
60d8c6bc9686529cdc824a49,SCR,2024-06-24_17h32.58.164,LearnStrategy,2023.2.3,Win32,15.15151515,7,2,5,,,,,,,,7,15,,,,,,,,,,,,,7,1.285,1,,,,,,0.137243081,-0.40353636,1,0,0,1.285,Peridotite_rect,4,0,4,0,1,
60d8c6bc9686529cdc824a49,SCR,2024-06-24_17h32.58.164,LearnStrategy,2023.2.3,Win32,15.15151515,7,2,6,,,,,,,,4,10,,,,,,,,,,,,,4,3.989,1,,,,,,0.393676882,-0.248935365,1,0,0,3.989,Gabbro_rect,5,0,5,0,1,
60d8c6bc9686529cdc824a49,SCR,2024-06-24_17h32.58.164,LearnStrategy,2023.2.3,Win32,15.15151515,7,2,7,,,,,,,,5,07,,,,,,,,,,,,,5,1.762,1,,,,,,-0.370996137,-0.399833353,1,0,0,1.762,Obsidian_rect,6,0,6,0,1,
60d8c6bc9686529cdc824a49,SCR,2024-06-24_17h32.58.164,LearnStrategy,2023.2.3,Win32,15.15151515,7,2,8,,,,,,,,2,12,,,,,,,,,,,,,8,2.423,0,,,,,,0.429781477,-0.388724271,1,0,0,2.423,Pumice_rect,7,0,7,0,1,
60d8c6bc9686529cdc824a49,SCR,2024-06-24_17h32.58.164,LearnStrategy,2023.2.3,Win32,15.15151515,7,2,9,,,,,,,,5,05,,,,,,,,,,,,,5,1.416,1,,,,,,-0.394139991,-0.39890757,1,0,0,1.416,Obsidian_rect,8,0,8,0,1,
60d8c6bc9686529cdc824a49,SCR,2024-06-24_17h32.58.164,LearnStrategy,2023.2.3,Win32,15.15151515,7,2,10,,,,,,,,1,06,,,,,,,,,,,,,1,1.493,1,,,,,,-0.424689889,-0.252638372,1,0,0,1.493,Andesite_rect,9,0,9,0,1,
60d8c6bc9686529cdc824a49,SCR,2024-06-24_17h32.58.164,LearnStrategy,2023.2.3,Win32,15.15151515,7,2,11,,,,,,,,2,16,,,,,,,,,,,,,2,1.48,1,,,,,,-0.169181746,-0.247083862,1,0,0,1.48,Basalt_rect,10,0,10,0,1,
60d8c6bc9686529cdc824a49,SCR,2024-06-24_17h32.58.164,LearnStrategy,2023.2.3,Win32,15.15151515,7,2,12,,,,,,,,7,04,,,,,,,,,,,,,4,3.264,0,,,,,,0.366830115,-0.247083862,1,0,0,3.264,Gabbro_rect,11,0,11,0,1,
60d8c6bc9686529cdc824a49,SCR,2024-06-24_17h32.58.164,LearnStrategy,2023.2.3,Win32,15.15151515,7,2,13,,,,,,,,6,16,,,,,,,,,,,,,6,1.305,1,,,,,,-0.136780282,-0.414645317,1,0,0,1.305,Pegmatite_rect,12,0,12,0,1,
60d8c6bc9686529cdc824a49,SCR,2024-06-24_17h32.58.164,LearnStrategy,2023.2.3,Win32,15.15151515,7,2,14,,,,,,,,8,03,,,,,,,,,,,,,8,1.376,1,,,,,,0.402008865,-0.404462018,1,0,0,1.376,Pumice_rect,13,0,13,0,1,
60d8c6bc9686529cdc824a49,SCR,2024-06-24_17h32.58.164,LearnStrategy,2023.2.3,Win32,15.15151515,7,2,15,,,,,,,,3,06,,,,,,,,,,,,,3,3.294,1,,,,,,0.136317298,-0.243380855,1,0,0,3.294,Diorite_rect,14,0,14,0,1,
60d8c6bc9686529cdc824a49,SCR,2024-06-24_17h32.58.164,LearnStrategy,2023.2.3,Win32,15.15151515,7,2,16,,,,,,,,8,06,,,,,,,,,,,,,8,1.283,1,,,,,,0.405711871,-0.39890757,1,0,0,1.283,Pumice_rect,15,0,15,0,1,
60d8c6bc9686529cdc824a49,SCR,2024-06-24_17h32.58.164,LearnStrategy,2023.2.3,Win32,15.15151515,8,1,1,-0.529300138,-0.423902958,1,0,0,1.788,Pegmatite_13,6,13,1,1,1.788,6,13,-0.1358545,-0.408165149,1,0,0,2.496,Pegmatite_rect,6,2.496,1,0,0,0,0,1,,,,,,,,,,,,,
60d8c6bc9686529cdc824a49,SCR,2024-06-24_17h32.58.164,LearnStrategy,2023.2.3,Win32,15.15151515,8,1,2,-0.090492513,0.106554362,1,0,0,0.863,Gabbro_03,4,03,4,4,0.863,4,03,0.43441008,-0.254489875,1,0,0,1.685,Gabbro_rect,4,1.685,1,1,0,1,0,1,,,,,,,,,,,,,
60d8c6bc9686529cdc824a49,SCR,2024-06-24_17h32.58.164,LearnStrategy,2023.2.3,Win32,15.15151515,8,1,3,-0.396917246,-0.098963161,1,0,0,1.556,Pumice_02,8,02,3,2,1.556,8,02,0.432558763,-0.401684856,1,0,0,2.288,Pumice_rect,8,2.288,1,2,0,2,0,1,,,,,,,,,,,,,
60d8c6bc9686529cdc824a49,SCR,2024-06-24_17h32.58.164,LearnStrategy,2023.2.3,Win32,15.15151515,8,1,4,-0.237687494,0.365765605,1,0,0,1.228,Pegmatite_06,6,06,6,3,1.228,6,06,-0.085863785,-0.404462018,1,0,0,3.46,Pegmatite_rect,6,3.46,1,3,0,3,0,1,,,,,,,,,,,,,
60d8c6bc9686529cdc824a49,SCR,2024-06-24_17h32.58.164,LearnStrategy,2023.2.3,Win32,15.15151515,8,1,5,-0.086789506,0.106554362,1,0,0,0.985,Gabbro_03,4,03,4,4,0.985,4,03,0.388122559,-0.244306576,1,0,0,1.108,Gabbro_rect,4,1.108,1,4,0,4,0,1,,,,,,,,,,,,,
60d8c6bc9686529cdc824a49,SCR,2024-06-24_17h32.58.164,LearnStrategy,2023.2.3,Win32,15.15151515,8,1,6,-0.397842998,-0.260970168,1,0,0,1.201,Peridotite_07,7,07,2,2,1.201,7,07,0.161312686,-0.395204563,1,0,0,1.417,Peridotite_rect,7,1.417,1,5,0,5,0,1,,,,,,,,,,,,,
60d8c6bc9686529cdc824a49,SCR,2024-06-24_17h32.58.164,LearnStrategy,2023.2.3,Win32,15.15151515,8,1,7,0.229818496,-0.39798185,1,0,0,1.231,Basalt_06,2,06,1,6,1.231,2,06,-0.123819697,-0.256341379,1,0,0,1.814,Basalt_rect,2,1.814,1,6,0,6,0,1,,,,,,,,,,,,,
60d8c6bc9686529cdc824a49,SCR,2024-06-24_17h32.58.164,LearnStrategy,2023.2.3,Win32,15.15151515,8,1,8,0.077069005,0.383354948,1,0,0,1.196,Diorite_11,3,11,6,5,1.196,3,11,0.141871808,-0.243380855,1,0,0,1.151,Diorite_rect,3,1.151,1,7,0,7,0,1,,,,,,,,,,,,,
60d8c6bc9686529cdc824a49,SCR,2024-06-24_17h32.58.164,LearnStrategy,2023.2.3,Win32,15.15151515,8,1,9,-0.531151641,0.399092766,1,0,0,1.228,Andesite_11,1,11,6,1,1.228,1,11,-0.391362736,-0.264673175,1,0,0,1.19,Andesite_rect,1,1.19,1,8,0,8,0,1,,,,,,,,,,,,,
60d8c6bc9686529cdc824a49,SCR,2024-06-24_17h32.58.164,LearnStrategy,2023.2.3,Win32,15.15151515,8,1,10,-0.095121302,0.413904839,1,0,0,1.099,Obsidian_10,5,10,6,4,1.099,5,10,-0.371921889,-0.383169761,1,0,0,1.886,Obsidian_rect,5,1.886,1,9,0,9,0,1,,,,,,,,,,,,,
60d8c6bc9686529cdc824a49,SCR,2024-06-24_17h32.58.164,LearnStrategy,2023.2.3,Win32,15.15151515,8,1,11,0.221486762,-0.414645317,1,0,0,1.323,Basalt_06,2,06,1,6,1.323,2,06,-0.092344016,-0.252638372,1,0,0,1.031,Basalt_rect,2,1.031,1,10,0,10,0,1,,,,,,,,,,,,,
60d8c6bc9686529cdc824a49,SCR,2024-06-24_17h32.58.164,LearnStrategy,2023.2.3,Win32,15.15151515,8,1,12,-0.239538997,0.40649881,1,0,0,1.345,Pegmatite_06,6,06,6,3,1.345,6,06,-0.150666651,-0.413719659,1,0,0,1.144,Pegmatite_rect,6,1.144,1,11,0,11,0,1,,,,,,,,,,,,,
60d8c6bc9686529cdc824a49,SCR,2024-06-24_17h32.58.164,LearnStrategy,2023.2.3,Win32,15.15151515,8,1,13,0.406637592,-0.111923684,1,0,0,1.008,Peridotite_06,7,06,3,7,1.008,7,06,0.160386965,-0.399833353,1,0,0,1.271,Peridotite_rect,7,1.271,1,12,0,12,0,1,,,,,,,,,,,,,
60d8c6bc9686529cdc824a49,SCR,2024-06-24_17h32.58.164,LearnStrategy,2023.2.3,Win32,15.15151515,8,1,14,-0.232133046,-0.118403977,1,0,0,1.105,Diorite_14,3,14,3,3,1.105,3,14,0.120579488,-0.245232359,1,0,0,1.159,Diorite_rect,3,1.159,1,13,0,13,0,1,,,,,,,,,,,,,
60d8c6bc9686529cdc824a49,SCR,2024-06-24_17h32.58.164,LearnStrategy,2023.2.3,Win32,15.15151515,8,1,15,0.53994608,0.093593807,1,0,0,1.232,Peridotite_12,7,12,4,8,1.232,7,12,0.126133998,-0.410942373,1,0,0,1.234,Peridotite_rect,7,1.234,1,14,0,14,0,1,,,,,,,,,,,,,
60d8c6bc9686529cdc824a49,SCR,2024-06-24_17h32.58.164,LearnStrategy,2023.2.3,Win32,15.15151515,8,1,16,0.421449743,0.253749311,1,0,0,2.184,Basalt_05,2,05,5,7,2.184,2,05,-0.106230384,-0.234123277,1,0,0,1.811,Basalt_rect,2,1.811,1,15,0,15,0,1,,,,,,,,,,,,,
60d8c6bc9686529cdc824a49,SCR,2024-06-24_17h32.58.164,LearnStrategy,2023.2.3,Win32,15.15151515,8,2,1,,,,,,,,5,14,,,,,,,,,,,,,5,1.607,1,,,,,,-0.420986914,-0.39335306,1,0,0,1.607,Obsidian_rect,0,0,0,0,1,
60d8c6bc9686529cdc824a49,SCR,2024-06-24_17h32.58.164,LearnStrategy,2023.2.3,Win32,15.15151515,8,2,2,,,,,,,,1,05,,,,,,,,,,,,,1,1.363,1,,,,,,-0.421912665,-0.236900563,1,0,0,1.363,Andesite_rect,1,0,1,0,1,
60d8c6bc9686529cdc824a49,SCR,2024-06-24_17h32.58.164,LearnStrategy,2023.2.3,Win32,15.15151515,8,2,3,,,,,,,,5,12,,,,,,,,,,,,,5,1.279,1,,,,,,-0.387659698,-0.396130284,1,0,0,1.279,Obsidian_rect,2,0,2,0,1,
60d8c6bc9686529cdc824a49,SCR,2024-06-24_17h32.58.164,LearnStrategy,2023.2.3,Win32,15.15151515,8,2,4,,,,,,,,3,10,,,,,,,,,,,,,3,3.243,1,,,,,,0.144649094,-0.259118665,1,0,0,3.243,Diorite_rect,3,0,3,0,1,
60d8c6bc9686529cdc824a49,SCR,2024-06-24_17h32.58.164,LearnStrategy,2023.2.3,Win32,15.15151515,8,2,5,,,,,,,,4,16,,,,,,,,,,,,,4,1.756,1,,,,,,0.3797907,-0.250786869,1,0,0,1.756,Gabbro_rect,4,0,4,0,1,
60d8c6bc9686529cdc824a49,SCR,2024-06-24_17h32.58.164,LearnStrategy,2023.2.3,Win32,15.15151515,8,2,6,,,,,,,,1,10,,,,,,,,,,,,,1,1.457,1,,,,,,-0.365441596,-0.238752066,1,0,0,1.457,Andesite_rect,5,0,5,0,1,
60d8c6bc9686529cdc824a49,SCR,2024-06-24_17h32.58.164,LearnStrategy,2023.2.3,Win32,15.15151515,8,2,7,,,,,,,,8,05,,,,,,,,,,,,,8,1.358,1,,,,,,0.464959978,-0.396130284,1,0,0,1.358,Pumice_rect,6,0,6,0,1,
60d8c6bc9686529cdc824a49,SCR,2024-06-24_17h32.58.164,LearnStrategy,2023.2.3,Win32,15.15151515,8,2,8,,,,,,,,3,09,,,,,,,,,,,,,3,2.039,1,,,,,,0.166867258,-0.247083862,1,0,0,2.039,Diorite_rect,7,0,7,0,1,
60d8c6bc9686529cdc824a49,SCR,2024-06-24_17h32.58.164,LearnStrategy,2023.2.3,Win32,15.15151515,8,2,9,,,,,,,,4,09,,,,,,,,,,,,,4,2.747,1,,,,,,0.408489157,-0.248935365,1,0,0,2.747,Gabbro_rect,8,0,8,0,1,
60d8c6bc9686529cdc824a49,SCR,2024-06-24_17h32.58.164,LearnStrategy,2023.2.3,Win32,15.15151515,8,2,10,,,,,,,,7,05,,,,,,,,,,,,,7,1.402,1,,,,,,0.189085298,-0.388724271,1,0,0,1.402,Peridotite_rect,9,0,9,0,1,
60d8c6bc9686529cdc824a49,SCR,2024-06-24_17h32.58.164,LearnStrategy,2023.2.3,Win32,15.15151515,8,2,11,,,,,,,,2,09,,,,,,,,,,,,,2,1.385,1,,,,,,-0.155295316,-0.237826221,1,0,0,1.385,Basalt_rect,10,0,10,0,1,
60d8c6bc9686529cdc824a49,SCR,2024-06-24_17h32.58.164,LearnStrategy,2023.2.3,Win32,15.15151515,8,2,12,,,,,,,,2,11,,,,,,,,,,,,,2,1.86,1,,,,,,-0.1256712,-0.259118665,1,0,0,1.86,Basalt_rect,11,0,11,0,1,
60d8c6bc9686529cdc824a49,SCR,2024-06-24_17h32.58.164,LearnStrategy,2023.2.3,Win32,15.15151515,8,2,13,,,,,,,,8,16,,,,,,,,,,,,,8,4.399,1,,,,,,0.416820891,-0.388724271,1,0,0,4.399,Pumice_rect,12,0,12,0,1,
60d8c6bc9686529cdc824a49,SCR,2024-06-24_17h32.58.164,LearnStrategy,2023.2.3,Win32,15.15151515,8,2,14,,,,,,,,6,08,,,,,,,,,,,,,6,1.196,1,,,,,,-0.116413684,-0.38779855,1,0,0,1.196,Pegmatite_rect,13,0,13,0,1,
60d8c6bc9686529cdc824a49,SCR,2024-06-24_17h32.58.164,LearnStrategy,2023.2.3,Win32,15.15151515,8,2,15,,,,,,,,7,02,,,,,,,,,,,,,7,1.298,1,,,,,,0.173347551,-0.400759073,1,0,0,1.298,Peridotite_rect,14,0,14,0,1,
60d8c6bc9686529cdc824a49,SCR,2024-06-24_17h32.58.164,LearnStrategy,2023.2.3,Win32,15.15151515,8,2,16,,,,,,,,6,07,,,,,,,,,,,,,6,1.6,1,,,,,,-0.13122571,-0.415571162,1,0,0,1.6,Pegmatite_rect,15,0,15,0,1,
60d8c6bc9686529cdc824a49,SCR,2024-06-24_17h32.58.164,LearnStrategy,2023.2.3,Win32,15.15151515,9,1,1,-0.057165453,0.391686729,1,0,0,1.673,Obsidian_10,5,10,6,4,1.673,5,10,-0.40432329,-0.384095419,1,0,0,1.244,Obsidian_rect,5,1.244,1,0,0,0,0,1,,,,,,,,,,,,,
60d8c6bc9686529cdc824a49,SCR,2024-06-24_17h32.58.164,LearnStrategy,2023.2.3,Win32,15.15151515,9,1,2,-0.274717684,0.41483059,1,0,0,1.437,Pegmatite_06,6,06,6,3,1.437,6,06,-0.117339404,-0.39335306,1,0,0,1.617,Pegmatite_rect,6,1.617,1,1,0,1,0,1,,,,,,,,,,,,,
60d8c6bc9686529cdc824a49,SCR,2024-06-24_17h32.58.164,LearnStrategy,2023.2.3,Win32,15.15151515,9,1,3,-0.071977417,-0.262821671,1,0,0,1.381,Diorite_12,3,12,2,4,1.381,3,12,0.148352101,-0.235049059,1,0,0,1.168,Diorite_rect,3,1.168,1,2,0,2,0,1,,,,,,,,,,,,,
60d8c6bc9686529cdc824a49,SCR,2024-06-24_17h32.58.164,LearnStrategy,2023.2.3,Win32,15.15151515,9,1,4,0.567718941,0.098222566,1,0,0,1.226,Peridotite_12,7,12,4,8,1.226,7,12,0.126133998,-0.39890757,1,0,0,1.071,Peridotite_rect,7,1.071,1,3,0,3,0,1,,,,,,,,,,,,,
60d8c6bc9686529cdc824a49,SCR,2024-06-24_17h32.58.164,LearnStrategy,2023.2.3,Win32,15.15151515,9,1,5,0.202045884,-0.410016652,1,0,0,1.14,Basalt_06,2,06,1,6,1.14,2,06,-0.145112016,-0.256341379,1,0,0,1.823,Basalt_rect,2,1.823,1,4,0,4,0,1,,,,,,,,,,,,,
60d8c6bc9686529cdc824a49,SCR,2024-06-24_17h32.58.164,LearnStrategy,2023.2.3,Win32,15.15151515,9,1,6,-0.260831378,0.383354948,1,0,0,1.231,Pegmatite_06,6,06,6,3,1.231,6,06,-0.099750091,-0.38779855,1,0,0,1.306,Pegmatite_rect,6,1.306,1,5,0,5,0,1,,,,,,,,,,,,,
60d8c6bc9686529cdc824a49,SCR,2024-06-24_17h32.58.164,LearnStrategy,2023.2.3,Win32,15.15151515,9,1,7,0.574199109,-0.101740385,1,0,0,1.135,Pumice_04,8,04,3,8,1.135,8,04,0.429781477,-0.410016652,1,0,0,1.085,Pumice_rect,8,1.085,1,6,0,6,0,1,,,,,,,,,,,,,
60d8c6bc9686529cdc824a49,SCR,2024-06-24_17h32.58.164,LearnStrategy,2023.2.3,Win32,15.15151515,9,1,8,0.073365998,0.204684318,1,0,0,1.001,Peridotite_16,7,16,5,5,1.001,7,16,0.122430992,-0.39335306,1,0,0,1.13,Peridotite_rect,7,1.13,1,7,0,7,0,1,,,,,,,,,,,,,
60d8c6bc9686529cdc824a49,SCR,2024-06-24_17h32.58.164,LearnStrategy,2023.2.3,Win32,15.15151515,9,1,9,-0.190474003,-0.220236971,1,0,0,1.029,Gabbro_05,4,05,2,3,1.029,4,05,0.405711871,-0.267450461,1,0,0,1.571,Gabbro_rect,4,1.571,1,8,0,8,0,1,,,,,,,,,,,,,
60d8c6bc9686529cdc824a49,SCR,2024-06-24_17h32.58.164,LearnStrategy,2023.2.3,Win32,15.15151515,9,1,10,0.227967054,-0.40353636,1,0,0,1.096,Basalt_06,2,06,1,6,1.096,2,06,-0.13122571,-0.235049059,1,0,0,1.504,Basalt_rect,2,1.504,1,9,0,9,0,1,,,,,,,,,,,,,
60d8c6bc9686529cdc824a49,SCR,2024-06-24_17h32.58.164,LearnStrategy,2023.2.3,Win32,15.15151515,9,1,11,0.54179777,-0.242455073,1,0,0,1.12,Diorite_16,3,16,2,8,1.12,3,16,0.170570265,-0.245232359,1,0,0,1.16,Diorite_rect,3,1.16,1,10,0,10,0,1,,,,,,,,,,,,,
60d8c6bc9686529cdc824a49,SCR,2024-06-24_17h32.58.164,LearnStrategy,2023.2.3,Win32,15.15151515,9,1,12,0.244630522,0.246343282,1,0,0,1.013,Basalt_14,2,14,5,6,1.013,2,14,0.419598177,-0.402610515,1,0,0,2.463,Pumice_rect,8,2.463,0,11,0,11,0,1,,,,,,,,,,,,,
60d8c6bc9686529cdc824a49,SCR,2024-06-24_17h32.58.164,LearnStrategy,2023.2.3,Win32,15.15151515,9,1,13,-0.368218882,-0.394278719,1,0,0,1.573,Gabbro_13,4,13,1,2,1.573,4,13,0.399231579,-0.234123277,1,0,0,1.304,Gabbro_rect,4,1.304,1,12,0,12,0,1,,,,,,,,,,,,,
60d8c6bc9686529cdc824a49,SCR,2024-06-24_17h32.58.164,LearnStrategy,2023.2.3,Win32,15.15151515,9,1,14,-0.525597131,0.413904839,1,0,0,1.983,Andesite_11,1,11,6,1,1.983,1,11,-0.380253685,-0.239677724,1,0,0,0.91,Andesite_rect,1,0.91,1,13,0,13,0,1,,,,,,,,,,,,,
60d8c6bc9686529cdc824a49,SCR,2024-06-24_17h32.58.164,LearnStrategy,2023.2.3,Win32,15.15151515,9,1,15,0.42607847,-0.28781706,1,0,0,1.118,Pegmatite_11,6,11,2,7,1.118,6,11,-0.167330181,-0.408165149,1,0,0,0.818,Pegmatite_rect,6,0.818,1,14,0,14,0,1,,,,,,,,,,,,,
60d8c6bc9686529cdc824a49,SCR,2024-06-24_17h32.58.164,LearnStrategy,2023.2.3,Win32,15.15151515,9,1,16,-0.384882443,-0.250786869,1,0,0,1.236,Peridotite_07,7,07,2,2,1.236,7,07,0.15946112,-0.411868156,1,0,0,1.177,Peridotite_rect,7,1.177,1,15,0,15,0,1,,,,,,,,,,,,,
60d8c6bc9686529cdc824a49,SCR,2024-06-24_17h32.58.164,LearnStrategy,2023.2.3,Win32,15.15151515,9,2,1,,,,,,,,6,03,,,,,,,,,,,,,6,2.748,1,,,,,,-0.124745418,-0.417422666,1,0,0,2.748,Pegmatite_rect,0,0,0,0,1,
60d8c6bc9686529cdc824a49,SCR,2024-06-24_17h32.58.164,LearnStrategy,2023.2.3,Win32,15.15151515,9,2,2,,,,,,,,8,14,,,,,,,,,,,,,8,1.517,1,,,,,,0.384419552,-0.40909087,1,0,0,1.517,Pumice_rect,1,0,1,0,1,
60d8c6bc9686529cdc824a49,SCR,2024-06-24_17h32.58.164,LearnStrategy,2023.2.3,Win32,15.15151515,9,2,3,,,,,,,,2,08,,,,,,,,,,,,,2,1.132,1,,,,,,-0.124745418,-0.255415658,1,0,0,1.132,Basalt_rect,2,0,2,0,1,
60d8c6bc9686529cdc824a49,SCR,2024-06-24_17h32.58.164,LearnStrategy,2023.2.3,Win32,15.15151515,9,2,4,,,,,,,,5,06,,,,,,,,,,,,,5,1.23,1,,,,,,-0.398768749,-0.402610515,1,0,0,1.23,Obsidian_rect,3,0,3,0,1,
60d8c6bc9686529cdc824a49,SCR,2024-06-24_17h32.58.164,LearnStrategy,2023.2.3,Win32,15.15151515,9,2,5,,,,,,,,1,14,,,,,,,,,,,,,1,1.76,1,,,,,,-0.433021685,-0.24800952,1,0,0,1.76,Andesite_rect,4,0,4,0,1,
60d8c6bc9686529cdc824a49,SCR,2024-06-24_17h32.58.164,LearnStrategy,2023.2.3,Win32,15.15151515,9,2,6,,,,,,,,2,04,,,,,,,,,,,,,2,1.846,1,,,,,,-0.118265249,-0.23597478,1,0,0,1.846,Basalt_rect,5,0,5,0,1,
60d8c6bc9686529cdc824a49,SCR,2024-06-24_17h32.58.164,LearnStrategy,2023.2.3,Win32,15.15151515,9,2,7,,,,,,,,5,04,,,,,,,,,,,,,5,1.338,1,,,,,,-0.408952049,-0.40909087,1,0,0,1.338,Obsidian_rect,6,0,6,0,1,
60d8c6bc9686529cdc824a49,SCR,2024-06-24_17h32.58.164,LearnStrategy,2023.2.3,Win32,15.15151515,9,2,8,,,,,,,,1,07,,,,,,,,,,,,,1,1.149,1,,,,,,-0.41450659,-0.253564155,1,0,0,1.149,Andesite_rect,7,0,7,0,1,
60d8c6bc9686529cdc824a49,SCR,2024-06-24_17h32.58.164,LearnStrategy,2023.2.3,Win32,15.15151515,9,2,9,,,,,,,,7,08,,,,,,,,,,,,,7,1.514,1,,,,,,0.140020304,-0.388724271,1,0,0,1.514,Peridotite_rect,8,0,8,0,1,
60d8c6bc9686529cdc824a49,SCR,2024-06-24_17h32.58.164,LearnStrategy,2023.2.3,Win32,15.15151515,9,2,10,,,,,,,,4,14,,,,,,,,,,,,,4,1.536,1,,,,,,0.402008865,-0.240603569,1,0,0,1.536,Gabbro_rect,9,0,9,0,1,
60d8c6bc9686529cdc824a49,SCR,2024-06-24_17h32.58.164,LearnStrategy,2023.2.3,Win32,15.15151515,9,2,11,,,,,,,,8,15,,,,,,,,,,,,,8,1.794,1,,,,,,0.411266443,-0.392427215,1,0,0,1.794,Pumice_rect,10,0,10,0,1,
60d8c6bc9686529cdc824a49,SCR,2024-06-24_17h32.58.164,LearnStrategy,2023.2.3,Win32,15.15151515,9,2,12,,,,,,,,4,11,,,,,,,,,,,,,4,1.555,1,,,,,,0.403860182,-0.234123277,1,0,0,1.555,Gabbro_rect,11,0,11,0,1,
60d8c6bc9686529cdc824a49,SCR,2024-06-24_17h32.58.164,LearnStrategy,2023.2.3,Win32,15.15151515,9,2,13,,,,,,,,7,14,,,,,,,,,,,,,7,5.859,1,,,,,,0.134465794,-0.388724271,1,0,0,5.859,Peridotite_rect,12,0,12,0,1,
60d8c6bc9686529cdc824a49,SCR,2024-06-24_17h32.58.164,LearnStrategy,2023.2.3,Win32,15.15151515,9,2,14,,,,,,,,6,15,,,,,,,,,,,,,6,1.194,1,,,,,,-0.139557506,-0.405387863,1,0,0,1.194,Pegmatite_rect,13,0,13,0,1,
60d8c6bc9686529cdc824a49,SCR,2024-06-24_17h32.58.164,LearnStrategy,2023.2.3,Win32,15.15151515,9,2,15,,,,,,,,3,15,,,,,,,,,,,,,3,1.408,1,,,,,,0.145574877,-0.248935365,1,0,0,1.408,Diorite_rect,14,0,14,0,1,
60d8c6bc9686529cdc824a49,SCR,2024-06-24_17h32.58.164,LearnStrategy,2023.2.3,Win32,15.15151515,9,2,16,,,,,,,,3,13,,,,,,,,,,,,,3,1.549,1,,,,,,0.140946087,-0.251712589,1,0,0,1.549,Diorite_rect,15,0,15,0,1,
60d8c6bc9686529cdc824a49,SCR,2024-06-24_17h32.58.164,LearnStrategy,2023.2.3,Win32,15.15151515,,,,,,,,,,,,,,,,,,,,,,,,,,,,,,,,,,,,,,,,,,,,,1
60d8c6bc9686529cdc824a49,SCR,2024-06-24_17h32.58.164,LearnStrategy,2023.2.3,Win32,15.15151515,,,,,,,,,,,,,,,,,,,,,,,,,,,,,,,,,,,,,,,,,,,,,
60d8c6bc9686529cdc824a49,SCR,2024-06-24_17h32.58.164,LearnStrategy,2023.2.3,Win32,15.15151515,,,,,,,,,,,6,13,1,1,,,,,,,,,,,,,,,,,,,,,,,,,,,,,,,
60d8c6bc9686529cdc824a49,SCR,2024-06-24_17h32.58.164,LearnStrategy,2023.2.3,Win32,15.15151515,,,,,,,,,,,4,13,1,2,,,,,,,,,,,,,,,,,,,,,,,,,,,,,,,
60d8c6bc9686529cdc824a49,SCR,2024-06-24_17h32.58.164,LearnStrategy,2023.2.3,Win32,15.15151515,,,,,,,,,,,5,08,1,3,,,,,,,,,,,,,,,,,,,,,,,,,,,,,,,
60d8c6bc9686529cdc824a49,SCR,2024-06-24_17h32.58.164,LearnStrategy,2023.2.3,Win32,15.15151515,,,,,,,,,,,4,01,1,4,,,,,,,,,,,,,,,,,,,,,,,,,,,,,,,
60d8c6bc9686529cdc824a49,SCR,2024-06-24_17h32.58.164,LearnStrategy,2023.2.3,Win32,15.15151515,,,,,,,,,,,2,01,1,5,,,,,,,,,,,,,,,,,,,,,,,,,,,,,,,
60d8c6bc9686529cdc824a49,SCR,2024-06-24_17h32.58.164,LearnStrategy,2023.2.3,Win32,15.15151515,,,,,,,,,,,2,06,1,6,,,,,,,,,,,,,,,,,,,,,,,,,,,,,,,
60d8c6bc9686529cdc824a49,SCR,2024-06-24_17h32.58.164,LearnStrategy,2023.2.3,Win32,15.15151515,,,,,,,,,,,4,08,1,7,,,,,,,,,,,,,,,,,,,,,,,,,,,,,,,
60d8c6bc9686529cdc824a49,SCR,2024-06-24_17h32.58.164,LearnStrategy,2023.2.3,Win32,15.15151515,,,,,,,,,,,7,13,1,8,,,,,,,,,,,,,,,,,,,,,,,,,,,,,,,
60d8c6bc9686529cdc824a49,SCR,2024-06-24_17h32.58.164,LearnStrategy,2023.2.3,Win32,15.15151515,,,,,,,,,,,1,01,2,1,,,,,,,,,,,,,,,,,,,,,,,,,,,,,,,
60d8c6bc9686529cdc824a49,SCR,2024-06-24_17h32.58.164,LearnStrategy,2023.2.3,Win32,15.15151515,,,,,,,,,,,7,07,2,2,,,,,,,,,,,,,,,,,,,,,,,,,,,,,,,
60d8c6bc9686529cdc824a49,SCR,2024-06-24_17h32.58.164,LearnStrategy,2023.2.3,Win32,15.15151515,,,,,,,,,,,4,05,2,3,,,,,,,,,,,,,,,,,,,,,,,,,,,,,,,
60d8c6bc9686529cdc824a49,SCR,2024-06-24_17h32.58.164,LearnStrategy,2023.2.3,Win32,15.15151515,,,,,,,,,,,3,12,2,4,,,,,,,,,,,,,,,,,,,,,,,,,,,,,,,
60d8c6bc9686529cdc824a49,SCR,2024-06-24_17h32.58.164,LearnStrategy,2023.2.3,Win32,15.15151515,,,,,,,,,,,7,10,2,5,,,,,,,,,,,,,,,,,,,,,,,,,,,,,,,
60d8c6bc9686529cdc824a49,SCR,2024-06-24_17h32.58.164,LearnStrategy,2023.2.3,Win32,15.15151515,,,,,,,,,,,8,10,2,6,,,,,,,,,,,,,,,,,,,,,,,,,,,,,,,
60d8c6bc9686529cdc824a49,SCR,2024-06-24_17h32.58.164,LearnStrategy,2023.2.3,Win32,15.15151515,,,,,,,,,,,6,11,2,7,,,,,,,,,,,,,,,,,,,,,,,,,,,,,,,
60d8c6bc9686529cdc824a49,SCR,2024-06-24_17h32.58.164,LearnStrategy,2023.2.3,Win32,15.15151515,,,,,,,,,,,3,16,2,8,,,,,,,,,,,,,,,,,,,,,,,,,,,,,,,
60d8c6bc9686529cdc824a49,SCR,2024-06-24_17h32.58.164,LearnStrategy,2023.2.3,Win32,15.15151515,,,,,,,,,,,6,05,3,1,,,,,,,,,,,,,,,,,,,,,,,,,,,,,,,
60d8c6bc9686529cdc824a49,SCR,2024-06-24_17h32.58.164,LearnStrategy,2023.2.3,Win32,15.15151515,,,,,,,,,,,8,02,3,2,,,,,,,,,,,,,,,,,,,,,,,,,,,,,,,
60d8c6bc9686529cdc824a49,SCR,2024-06-24_17h32.58.164,LearnStrategy,2023.2.3,Win32,15.15151515,,,,,,,,,,,3,14,3,3,,,,,,,,,,,,,,,,,,,,,,,,,,,,,,,
60d8c6bc9686529cdc824a49,SCR,2024-06-24_17h32.58.164,LearnStrategy,2023.2.3,Win32,15.15151515,,,,,,,,,,,8,13,3,4,,,,,,,,,,,,,,,,,,,,,,,,,,,,,,,
60d8c6bc9686529cdc824a49,SCR,2024-06-24_17h32.58.164,LearnStrategy,2023.2.3,Win32,15.15151515,,,,,,,,,,,5,16,3,5,,,,,,,,,,,,,,,,,,,,,,,,,,,,,,,
60d8c6bc9686529cdc824a49,SCR,2024-06-24_17h32.58.164,LearnStrategy,2023.2.3,Win32,15.15151515,,,,,,,,,,,1,04,3,6,,,,,,,,,,,,,,,,,,,,,,,,,,,,,,,
60d8c6bc9686529cdc824a49,SCR,2024-06-24_17h32.58.164,LearnStrategy,2023.2.3,Win32,15.15151515,,,,,,,,,,,7,06,3,7,,,,,,,,,,,,,,,,,,,,,,,,,,,,,,,
60d8c6bc9686529cdc824a49,SCR,2024-06-24_17h32.58.164,LearnStrategy,2023.2.3,Win32,15.15151515,,,,,,,,,,,8,04,3,8,,,,,,,,,,,,,,,,,,,,,,,,,,,,,,,
60d8c6bc9686529cdc824a49,SCR,2024-06-24_17h32.58.164,LearnStrategy,2023.2.3,Win32,15.15151515,,,,,,,,,,,2,10,4,1,,,,,,,,,,,,,,,,,,,,,,,,,,,,,,,
60d8c6bc9686529cdc824a49,SCR,2024-06-24_17h32.58.164,LearnStrategy,2023.2.3,Win32,15.15151515,,,,,,,,,,,1,02,4,2,,,,,,,,,,,,,,,,,,,,,,,,,,,,,,,
60d8c6bc9686529cdc824a49,SCR,2024-06-24_17h32.58.164,LearnStrategy,2023.2.3,Win32,15.15151515,,,,,,,,,,,5,11,4,3,,,,,,,,,,,,,,,,,,,,,,,,,,,,,,,
60d8c6bc9686529cdc824a49,SCR,2024-06-24_17h32.58.164,LearnStrategy,2023.2.3,Win32,15.15151515,,,,,,,,,,,4,03,4,4,,,,,,,,,,,,,,,,,,,,,,,,,,,,,,,
60d8c6bc9686529cdc824a49,SCR,2024-06-24_17h32.58.164,LearnStrategy,2023.2.3,Win32,15.15151515,,,,,,,,,,,8,09,4,5,,,,,,,,,,,,,,,,,,,,,,,,,,,,,,,
60d8c6bc9686529cdc824a49,SCR,2024-06-24_17h32.58.164,LearnStrategy,2023.2.3,Win32,15.15151515,,,,,,,,,,,5,09,4,6,,,,,,,,,,,,,,,,,,,,,,,,,,,,,,,
60d8c6bc9686529cdc824a49,SCR,2024-06-24_17h32.58.164,LearnStrategy,2023.2.3,Win32,15.15151515,,,,,,,,,,,1,16,4,7,,,,,,,,,,,,,,,,,,,,,,,,,,,,,,,
60d8c6bc9686529cdc824a49,SCR,2024-06-24_17h32.58.164,LearnStrategy,2023.2.3,Win32,15.15151515,,,,,,,,,,,7,12,4,8,,,,,,,,,,,,,,,,,,,,,,,,,,,,,,,
60d8c6bc9686529cdc824a49,SCR,2024-06-24_17h32.58.164,LearnStrategy,2023.2.3,Win32,15.15151515,,,,,,,,,,,2,02,5,1,,,,,,,,,,,,,,,,,,,,,,,,,,,,,,,
60d8c6bc9686529cdc824a49,SCR,2024-06-24_17h32.58.164,LearnStrategy,2023.2.3,Win32,15.15151515,,,,,,,,,,,1,03,5,2,,,,,,,,,,,,,,,,,,,,,,,,,,,,,,,
60d8c6bc9686529cdc824a49,SCR,2024-06-24_17h32.58.164,LearnStrategy,2023.2.3,Win32,15.15151515,,,,,,,,,,,6,09,5,3,,,,,,,,,,,,,,,,,,,,,,,,,,,,,,,
60d8c6bc9686529cdc824a49,SCR,2024-06-24_17h32.58.164,LearnStrategy,2023.2.3,Win32,15.15151515,,,,,,,,,,,8,08,5,4,,,,,,,,,,,,,,,,,,,,,,,,,,,,,,,
60d8c6bc9686529cdc824a49,SCR,2024-06-24_17h32.58.164,LearnStrategy,2023.2.3,Win32,15.15151515,,,,,,,,,,,7,16,5,5,,,,,,,,,,,,,,,,,,,,,,,,,,,,,,,
60d8c6bc9686529cdc824a49,SCR,2024-06-24_17h32.58.164,LearnStrategy,2023.2.3,Win32,15.15151515,,,,,,,,,,,2,14,5,6,,,,,,,,,,,,,,,,,,,,,,,,,,,,,,,
60d8c6bc9686529cdc824a49,SCR,2024-06-24_17h32.58.164,LearnStrategy,2023.2.3,Win32,15.15151515,,,,,,,,,,,2,05,5,7,,,,,,,,,,,,,,,,,,,,,,,,,,,,,,,
60d8c6bc9686529cdc824a49,SCR,2024-06-24_17h32.58.164,LearnStrategy,2023.2.3,Win32,15.15151515,,,,,,,,,,,3,02,5,8,,,,,,,,,,,,,,,,,,,,,,,,,,,,,,,
60d8c6bc9686529cdc824a49,SCR,2024-06-24_17h32.58.164,LearnStrategy,2023.2.3,Win32,15.15151515,,,,,,,,,,,1,11,6,1,,,,,,,,,,,,,,,,,,,,,,,,,,,,,,,
60d8c6bc9686529cdc824a49,SCR,2024-06-24_17h32.58.164,LearnStrategy,2023.2.3,Win32,15.15151515,,,,,,,,,,,5,02,6,2,,,,,,,,,,,,,,,,,,,,,,,,,,,,,,,
60d8c6bc9686529cdc824a49,SCR,2024-06-24_17h32.58.164,LearnStrategy,2023.2.3,Win32,15.15151515,,,,,,,,,,,6,06,6,3,,,,,,,,,,,,,,,,,,,,,,,,,,,,,,,
60d8c6bc9686529cdc824a49,SCR,2024-06-24_17h32.58.164,LearnStrategy,2023.2.3,Win32,15.15151515,,,,,,,,,,,5,10,6,4,,,,,,,,,,,,,,,,,,,,,,,,,,,,,,,
60d8c6bc9686529cdc824a49,SCR,2024-06-24_17h32.58.164,LearnStrategy,2023.2.3,Win32,15.15151515,,,,,,,,,,,3,11,6,5,,,,,,,,,,,,,,,,,,,,,,,,,,,,,,,
60d8c6bc9686529cdc824a49,SCR,2024-06-24_17h32.58.164,LearnStrategy,2023.2.3,Win32,15.15151515,,,,,,,,,,,3,07,6,6,,,,,,,,,,,,,,,,,,,,,,,,,,,,,,,
60d8c6bc9686529cdc824a49,SCR,2024-06-24_17h32.58.164,LearnStrategy,2023.2.3,Win32,15.15151515,,,,,,,,,,,6,12,6,7,,,,,,,,,,,,,,,,,,,,,,,,,,,,,,,
60d8c6bc9686529cdc824a49,SCR,2024-06-24_17h32.58.164,LearnStrategy,2023.2.3,Win32,15.15151515,,,,,,,,,,,4,15,6,8,,,,,,,,,,,,,,,,,,,,,,,,,,,,,,,