participant,condition,date,expName,psychopyVersion,OS,frameRate,block,phase,trial,learn_mouse.x,learn_mouse.y,learn_mouse.leftButton,learn_mouse.midButton,learn_mouse.rightButton,learn_mouse.time,learn_mouse.clicked_name,cat,token,row,col,t_select,cat_mouse_l.x,cat_mouse_l.y,cat_mouse_l.leftButton,cat_mouse_l.midButton,cat_mouse_l.rightButton,cat_mouse_l.time,cat_mouse_l.clicked_name,resp,t_resp,corr,train_trials.thisRepN,train_trials.thisTrialN,train_trials.thisN,train_trials.thisIndex,train_trials.ran,cat_mouse_t.x,cat_mouse_t.y,cat_mouse_t.leftButton,cat_mouse_t.midButton,cat_mouse_t.rightButton,cat_mouse_t.time,cat_mouse_t.clicked_name,test_trials.thisRepN,test_trials.thisTrialN,test_trials.thisN,test_trials.thisIndex,test_trials.ran,Bonus
60e36d56350e661cf50f2c7e,SCN,2024-06-20_10h31.09.539,LearnStrategy,2023.2.3,Win32,60.24096386,,,,,,,,,,,,,,,,,,,,,,,,,,,,,,,,,,,,,,,,,,,
60e36d56350e661cf50f2c7e,SCN,2024-06-20_10h31.09.539,LearnStrategy,2023.2.3,Win32,60.24096386,1,1,1,-0.548177083,0.40234375,1,0,0,1.9161,Obsidian_16,5,16,6,1,1.916,-0.341145833,-0.40625,1,0,0,2.396,Obsidian_rect,5,2.396,1,0,0,0,0,1,,,,,,,,,,,,,
60e36d56350e661cf50f2c7e,SCN,2024-06-20_10h31.09.539,LearnStrategy,2023.2.3,Win32,60.24096386,1,1,2,-0.346354167,0.381510417,1,0,0,0.7819,Pumice_02,8,02,6,2,0.782,0.169270833,-0.381510417,1,0,0,3.9925,Peridotite_rect,7,3.992,0,1,0,1,0,1,,,,,,,,,,,,,
60e36d56350e661cf50f2c7e,SCN,2024-06-20_10h31.09.539,LearnStrategy,2023.2.3,Win32,60.24096386,1,1,3,-0.213541667,0.372395833,1,0,0,0.6959,Basalt_02,2,02,6,3,0.696,-0.373697917,-0.259114583,1,0,0,3.2003,Andesite_rect,1,3.2,0,2,0,2,0,1,,,,,,,,,,,,,
60e36d56350e661cf50f2c7e,SCN,2024-06-20_10h31.09.539,LearnStrategy,2023.2.3,Win32,60.24096386,1,1,4,-0.087239583,0.381510417,1,0,0,0.7502,Basalt_09,2,09,6,4,0.75,0.38671875,-0.243489583,1,0,0,9.0476,Gabbro_rect,4,9.048,0,3,0,3,0,1,,,,,,,,,,,,,
60e36d56350e661cf50f2c7e,SCN,2024-06-20_10h31.09.539,LearnStrategy,2023.2.3,Win32,60.24096386,1,1,5,0.095052083,0.391927083,1,0,0,1.7358,Basalt_05,2,05,6,5,1.736,-0.075520833,-0.404947917,1,0,0,2.9557,Pegmatite_rect,6,2.956,0,4,0,4,0,1,,,,,,,,,,,,,
60e36d56350e661cf50f2c7e,SCN,2024-06-20_10h31.09.539,LearnStrategy,2023.2.3,Win32,60.24096386,1,1,6,0.25,0.40234375,1,0,0,1.7799,Diorite_07,3,07,6,6,1.78,0.0859375,-0.239583333,1,0,0,1.3067,Diorite_rect,3,1.307,1,5,0,5,0,1,,,,,,,,,,,,,
60e36d56350e661cf50f2c7e,SCN,2024-06-20_10h31.09.539,LearnStrategy,2023.2.3,Win32,60.24096386,1,1,7,0.41796875,0.3984375,1,0,0,0.9681,Pegmatite_09,6,09,6,7,0.968,0.302083333,-0.236979167,1,0,0,8.2565,Gabbro_rect,4,8.256,0,6,0,6,0,1,,,,,,,,,,,,,
60e36d56350e661cf50f2c7e,SCN,2024-06-20_10h31.09.539,LearnStrategy,2023.2.3,Win32,60.24096386,1,1,8,0.545572917,0.424479167,1,0,0,0.7645,Obsidian_05,5,05,6,8,0.764,-0.364583333,-0.390625,1,0,0,2.7694,Obsidian_rect,5,2.769,1,7,0,7,0,1,,,,,,,,,,,,,
60e36d56350e661cf50f2c7e,SCN,2024-06-20_10h31.09.539,LearnStrategy,2023.2.3,Win32,60.24096386,1,1,9,-0.515625,0.252604167,1,0,0,0.6144,Gabbro_08,4,08,5,1,0.614,-0.171875,-0.266927083,1,0,0,10.3488,Basalt_rect,2,10.349,0,8,0,8,0,1,,,,,,,,,,,,,
60e36d56350e661cf50f2c7e,SCN,2024-06-20_10h31.09.539,LearnStrategy,2023.2.3,Win32,60.24096386,1,1,10,-0.384114583,0.235677083,1,0,0,0.6345,Gabbro_16,4,16,5,2,0.635,0.13671875,-0.412760417,1,0,0,3.2524,Peridotite_rect,7,3.252,0,9,0,9,0,1,,,,,,,,,,,,,
60e36d56350e661cf50f2c7e,SCN,2024-06-20_10h31.09.539,LearnStrategy,2023.2.3,Win32,60.24096386,1,1,11,-0.233072917,0.247395833,1,0,0,4.2132,Peridotite_08,7,08,5,3,4.213,-0.037760417,-0.264322917,1,0,0,3.357,Basalt_rect,2,3.357,0,10,0,10,0,1,,,,,,,,,,,,,
60e36d56350e661cf50f2c7e,SCN,2024-06-20_10h31.09.539,LearnStrategy,2023.2.3,Win32,60.24096386,1,1,12,-0.06640625,0.255208333,1,0,0,0.6636,Gabbro_11,4,11,5,4,0.664,-0.125,-0.233072917,1,0,0,1.3453,Basalt_rect,2,1.345,0,11,0,11,0,1,,,,,,,,,,,,,
60e36d56350e661cf50f2c7e,SCN,2024-06-20_10h31.09.539,LearnStrategy,2023.2.3,Win32,60.24096386,1,1,13,0.071614583,0.259114583,1,0,0,0.5136,Pegmatite_08,6,08,5,5,0.514,0.315104167,-0.412760417,1,0,0,2.6654,Pumice_rect,8,2.665,0,12,0,12,0,1,,,,,,,,,,,,,
60e36d56350e661cf50f2c7e,SCN,2024-06-20_10h31.09.539,LearnStrategy,2023.2.3,Win32,60.24096386,1,1,14,0.235677083,0.248697917,1,0,0,0.6004,Pegmatite_06,6,06,5,6,0.6,0.059895833,-0.393229167,1,0,0,11.6083,Peridotite_rect,7,11.608,0,13,0,13,0,1,,,,,,,,,,,,,
60e36d56350e661cf50f2c7e,SCN,2024-06-20_10h31.09.539,LearnStrategy,2023.2.3,Win32,60.24096386,1,1,15,0.376302083,0.247395833,1,0,0,1.0802,Pegmatite_03,6,03,5,7,1.08,-0.127604167,-0.41796875,1,0,0,1.5043,Pegmatite_rect,6,1.504,1,14,0,14,0,1,,,,,,,,,,,,,
60e36d56350e661cf50f2c7e,SCN,2024-06-20_10h31.09.539,LearnStrategy,2023.2.3,Win32,60.24096386,1,1,16,0.545572917,0.265625,1,0,0,1.0814,Basalt_04,2,04,5,8,1.081,-0.106770833,-0.259114583,1,0,0,2.6761,Basalt_rect,2,2.676,1,15,0,15,0,1,,,,,,,,,,,,,
60e36d56350e661cf50f2c7e,SCN,2024-06-20_10h31.09.539,LearnStrategy,2023.2.3,Win32,60.24096386,1,2,1,,,,,,,,2,10,,,,,,,,,,,2,5.515,1,,,,,,-0.080729167,-0.256510417,1,0,0,5.515,Basalt_rect,0,0,0,0,1,
60e36d56350e661cf50f2c7e,SCN,2024-06-20_10h31.09.539,LearnStrategy,2023.2.3,Win32,60.24096386,1,2,2,,,,,,,,7,13,,,,,,,,,,,6,4.207,0,,,,,,-0.078125,-0.380208333,1,0,0,4.2066,Pegmatite_rect,1,0,1,0,1,
60e36d56350e661cf50f2c7e,SCN,2024-06-20_10h31.09.539,LearnStrategy,2023.2.3,Win32,60.24096386,1,2,3,,,,,,,,3,14,,,,,,,,,,,3,1.318,1,,,,,,0.180989583,-0.255208333,1,0,0,1.3184,Diorite_rect,2,0,2,0,1,
60e36d56350e661cf50f2c7e,SCN,2024-06-20_10h31.09.539,LearnStrategy,2023.2.3,Win32,60.24096386,1,2,4,,,,,,,,1,07,,,,,,,,,,,3,0.993,0,,,,,,0.07421875,-0.26953125,1,0,0,0.9927,Diorite_rect,3,0,3,0,1,
60e36d56350e661cf50f2c7e,SCN,2024-06-20_10h31.09.539,LearnStrategy,2023.2.3,Win32,60.24096386,1,2,5,,,,,,,,1,02,,,,,,,,,,,1,4.146,1,,,,,,-0.420572917,-0.268229167,1,0,0,4.1457,Andesite_rect,4,0,4,0,1,
60e36d56350e661cf50f2c7e,SCN,2024-06-20_10h31.09.539,LearnStrategy,2023.2.3,Win32,60.24096386,1,2,6,,,,,,,,7,05,,,,,,,,,,,6,3.154,0,,,,,,-0.0546875,-0.399739583,1,0,0,3.1538,Pegmatite_rect,5,0,5,0,1,
60e36d56350e661cf50f2c7e,SCN,2024-06-20_10h31.09.539,LearnStrategy,2023.2.3,Win32,60.24096386,1,2,7,,,,,,,,5,08,,,,,,,,,,,5,1.106,1,,,,,,-0.375,-0.3828125,1,0,0,1.1057,Obsidian_rect,6,0,6,0,1,
60e36d56350e661cf50f2c7e,SCN,2024-06-20_10h31.09.539,LearnStrategy,2023.2.3,Win32,60.24096386,1,2,8,,,,,,,,5,12,,,,,,,,,,,5,1.289,1,,,,,,-0.358072917,-0.4140625,1,0,0,1.289,Obsidian_rect,7,0,7,0,1,
60e36d56350e661cf50f2c7e,SCN,2024-06-20_10h31.09.539,LearnStrategy,2023.2.3,Win32,60.24096386,1,2,9,,,,,,,,8,10,,,,,,,,,,,8,7.881,1,,,,,,0.350260417,-0.40625,1,0,0,7.8806,Pumice_rect,8,0,8,0,1,
60e36d56350e661cf50f2c7e,SCN,2024-06-20_10h31.09.539,LearnStrategy,2023.2.3,Win32,60.24096386,1,2,10,,,,,,,,4,13,,,,,,,,,,,4,2.858,1,,,,,,0.325520833,-0.252604167,1,0,0,2.8578,Gabbro_rect,9,0,9,0,1,
60e36d56350e661cf50f2c7e,SCN,2024-06-20_10h31.09.539,LearnStrategy,2023.2.3,Win32,60.24096386,1,2,11,,,,,,,,3,12,,,,,,,,,,,4,2.382,0,,,,,,0.325520833,-0.255208333,1,0,0,2.3817,Gabbro_rect,10,0,10,0,1,
60e36d56350e661cf50f2c7e,SCN,2024-06-20_10h31.09.539,LearnStrategy,2023.2.3,Win32,60.24096386,1,2,12,,,,,,,,2,14,,,,,,,,,,,4,1.693,0,,,,,,0.303385417,-0.2578125,1,0,0,1.693,Gabbro_rect,11,0,11,0,1,
60e36d56350e661cf50f2c7e,SCN,2024-06-20_10h31.09.539,LearnStrategy,2023.2.3,Win32,60.24096386,1,2,13,,,,,,,,6,12,,,,,,,,,,,3,2.528,0,,,,,,0.127604167,-0.243489583,1,0,0,2.5284,Diorite_rect,12,0,12,0,1,
60e36d56350e661cf50f2c7e,SCN,2024-06-20_10h31.09.539,LearnStrategy,2023.2.3,Win32,60.24096386,1,2,14,,,,,,,,4,10,,,,,,,,,,,2,2.774,0,,,,,,-0.102864583,-0.25390625,1,0,0,2.7738,Basalt_rect,13,0,13,0,1,
60e36d56350e661cf50f2c7e,SCN,2024-06-20_10h31.09.539,LearnStrategy,2023.2.3,Win32,60.24096386,1,2,15,,,,,,,,8,16,,,,,,,,,,,7,2.827,0,,,,,,0.17578125,-0.41015625,1,0,0,2.8266,Peridotite_rect,14,0,14,0,1,
60e36d56350e661cf50f2c7e,SCN,2024-06-20_10h31.09.539,LearnStrategy,2023.2.3,Win32,60.24096386,1,2,16,,,,,,,,6,16,,,,,,,,,,,1,4.504,0,,,,,,-0.330729167,-0.270833333,1,0,0,4.5036,Andesite_rect,15,0,15,0,1,
60e36d56350e661cf50f2c7e,SCN,2024-06-20_10h31.09.539,LearnStrategy,2023.2.3,Win32,60.24096386,2,1,1,-0.0625,-0.26953125,1,0,0,3.5318,Peridotite_16,7,16,2,4,3.532,-0.123697917,-0.40234375,1,0,0,5.4851,Pegmatite_rect,6,5.485,0,0,0,0,0,1,,,,,,,,,,,,,
60e36d56350e661cf50f2c7e,SCN,2024-06-20_10h31.09.539,LearnStrategy,2023.2.3,Win32,60.24096386,2,1,2,0.552083333,0.084635417,1,0,0,3.4461,Peridotite_04,7,04,4,8,3.446,0.326822917,-0.404947917,1,0,0,3.9701,Pumice_rect,8,3.97,0,1,0,1,0,1,,,,,,,,,,,,,
60e36d56350e661cf50f2c7e,SCN,2024-06-20_10h31.09.539,LearnStrategy,2023.2.3,Win32,60.24096386,2,1,3,-0.419270833,-0.095052083,1,0,0,1.0782,Pumice_06,8,06,3,2,1.078,0.420572917,-0.240885417,1,0,0,1.9619,Gabbro_rect,4,1.962,0,2,0,2,0,1,,,,,,,,,,,,,
60e36d56350e661cf50f2c7e,SCN,2024-06-20_10h31.09.539,LearnStrategy,2023.2.3,Win32,60.24096386,2,1,4,-0.26953125,-0.131510417,1,0,0,0.5136,Pegmatite_07,6,07,3,3,0.514,-0.076822917,-0.39453125,1,0,0,1.8732,Pegmatite_rect,6,1.873,1,3,0,3,0,1,,,,,,,,,,,,,
60e36d56350e661cf50f2c7e,SCN,2024-06-20_10h31.09.539,LearnStrategy,2023.2.3,Win32,60.24096386,2,1,5,-0.358072917,-0.272135417,1,0,0,1.9647,Pumice_04,8,04,2,2,1.965,-0.09375,-0.3828125,1,0,0,3.5991,Pegmatite_rect,6,3.599,0,4,0,4,0,1,,,,,,,,,,,,,
60e36d56350e661cf50f2c7e,SCN,2024-06-20_10h31.09.539,LearnStrategy,2023.2.3,Win32,60.24096386,2,1,6,0.563802083,-0.091145833,1,0,0,0.8793,Pumice_08,8,08,3,8,0.879,0.412760417,-0.384114583,1,0,0,0.9986,Pumice_rect,8,0.999,1,5,0,5,0,1,,,,,,,,,,,,,
60e36d56350e661cf50f2c7e,SCN,2024-06-20_10h31.09.539,LearnStrategy,2023.2.3,Win32,60.24096386,2,1,7,0.419270833,-0.263020833,1,0,0,1.5491,Gabbro_15,4,15,2,7,1.549,-0.19140625,-0.266927083,1,0,0,3.1689,Basalt_rect,2,3.169,0,6,0,6,0,1,,,,,,,,,,,,,
60e36d56350e661cf50f2c7e,SCN,2024-06-20_10h31.09.539,LearnStrategy,2023.2.3,Win32,60.24096386,2,1,8,-0.229166667,0.096354167,1,0,0,1.379,Pumice_15,8,15,4,3,1.379,-0.067708333,-0.412760417,1,0,0,4.8007,Pegmatite_rect,6,4.801,0,7,0,7,0,1,,,,,,,,,,,,,
60e36d56350e661cf50f2c7e,SCN,2024-06-20_10h31.09.539,LearnStrategy,2023.2.3,Win32,60.24096386,2,1,9,-0.572916667,0.240885417,1,0,0,3.5307,Gabbro_08,4,08,5,1,3.531,-0.178385417,-0.25390625,1,0,0,1.7628,Basalt_rect,2,1.763,0,8,0,8,0,1,,,,,,,,,,,,,
60e36d56350e661cf50f2c7e,SCN,2024-06-20_10h31.09.539,LearnStrategy,2023.2.3,Win32,60.24096386,2,1,10,-0.393229167,0.108072917,1,0,0,1.5476,Diorite_08,3,08,4,2,1.548,0.09375,-0.25390625,1,0,0,3.1983,Diorite_rect,3,3.198,1,9,0,9,0,1,,,,,,,,,,,,,
60e36d56350e661cf50f2c7e,SCN,2024-06-20_10h31.09.539,LearnStrategy,2023.2.3,Win32,60.24096386,2,1,11,0.061197917,-0.389322917,1,0,0,1.4787,Gabbro_03,4,03,1,5,1.479,-0.359375,-0.233072917,1,0,0,2.0346,Andesite_rect,1,2.035,0,10,0,10,0,1,,,,,,,,,,,,,
60e36d56350e661cf50f2c7e,SCN,2024-06-20_10h31.09.539,LearnStrategy,2023.2.3,Win32,60.24096386,2,1,12,-0.529947917,-0.390625,1,0,0,1.1476,Andesite_09,1,09,1,1,1.148,0.350260417,-0.26953125,1,0,0,1.3817,Gabbro_rect,4,1.382,0,11,0,11,0,1,,,,,,,,,,,,,
60e36d56350e661cf50f2c7e,SCN,2024-06-20_10h31.09.539,LearnStrategy,2023.2.3,Win32,60.24096386,2,1,13,0.59375,-0.091145833,1,0,0,0.681,Pumice_08,8,08,3,8,0.681,0.061197917,-0.390625,1,0,0,1.8497,Peridotite_rect,7,1.85,0,12,0,12,0,1,,,,,,,,,,,,,
60e36d56350e661cf50f2c7e,SCN,2024-06-20_10h31.09.539,LearnStrategy,2023.2.3,Win32,60.24096386,2,1,14,-0.111979167,0.079427083,1,0,0,3.4137,Andesite_04,1,04,4,4,3.414,-0.39453125,-0.248697917,1,0,0,3.0208,Andesite_rect,1,3.021,1,13,0,13,0,1,,,,,,,,,,,,,
60e36d56350e661cf50f2c7e,SCN,2024-06-20_10h31.09.539,LearnStrategy,2023.2.3,Win32,60.24096386,2,1,15,-0.220052083,-0.110677083,1,0,0,0.8976,Pegmatite_07,6,07,3,3,0.898,-0.079427083,-0.389322917,1,0,0,2.1482,Pegmatite_rect,6,2.148,1,14,0,14,0,1,,,,,,,,,,,,,
60e36d56350e661cf50f2c7e,SCN,2024-06-20_10h31.09.539,LearnStrategy,2023.2.3,Win32,60.24096386,2,1,16,-0.067708333,-0.423177083,1,0,0,3.43,Basalt_11,2,11,1,4,3.43,-0.200520833,-0.235677083,1,0,0,1.7451,Basalt_rect,2,1.745,1,15,0,15,0,1,,,,,,,,,,,,,
60e36d56350e661cf50f2c7e,SCN,2024-06-20_10h31.09.539,LearnStrategy,2023.2.3,Win32,60.24096386,2,2,1,,,,,,,,2,12,,,,,,,,,,,2,2.867,1,,,,,,-0.1875,-0.255208333,1,0,0,2.8667,Basalt_rect,0,0,0,0,1,
60e36d56350e661cf50f2c7e,SCN,2024-06-20_10h31.09.539,LearnStrategy,2023.2.3,Win32,60.24096386,2,2,2,,,,,,,,5,10,,,,,,,,,,,5,1.252,1,,,,,,-0.37890625,-0.39453125,1,0,0,1.2524,Obsidian_rect,1,0,1,0,1,
60e36d56350e661cf50f2c7e,SCN,2024-06-20_10h31.09.539,LearnStrategy,2023.2.3,Win32,60.24096386,2,2,3,,,,,,,,8,14,,,,,,,,,,,8,2.949,1,,,,,,0.376302083,-0.391927083,1,0,0,2.9493,Pumice_rect,2,0,2,0,1,
60e36d56350e661cf50f2c7e,SCN,2024-06-20_10h31.09.539,LearnStrategy,2023.2.3,Win32,60.24096386,2,2,4,,,,,,,,3,16,,,,,,,,,,,3,2.068,1,,,,,,0.075520833,-0.25390625,1,0,0,2.0678,Diorite_rect,3,0,3,0,1,
60e36d56350e661cf50f2c7e,SCN,2024-06-20_10h31.09.539,LearnStrategy,2023.2.3,Win32,60.24096386,2,2,5,,,,,,,,1,01,,,,,,,,,,,3,3.187,0,,,,,,0.07421875,-0.25390625,1,0,0,3.187,Diorite_rect,4,0,4,0,1,
60e36d56350e661cf50f2c7e,SCN,2024-06-20_10h31.09.539,LearnStrategy,2023.2.3,Win32,60.24096386,2,2,6,,,,,,,,6,15,,,,,,,,,,,6,4.536,1,,,,,,-0.091145833,-0.411458333,1,0,0,4.536,Pegmatite_rect,5,0,5,0,1,
60e36d56350e661cf50f2c7e,SCN,2024-06-20_10h31.09.539,LearnStrategy,2023.2.3,Win32,60.24096386,2,2,7,,,,,,,,2,06,,,,,,,,,,,2,2.683,1,,,,,,-0.1171875,-0.2578125,1,0,0,2.683,Basalt_rect,6,0,6,0,1,
60e36d56350e661cf50f2c7e,SCN,2024-06-20_10h31.09.539,LearnStrategy,2023.2.3,Win32,60.24096386,2,2,8,,,,,,,,5,09,,,,,,,,,,,5,0.996,1,,,,,,-0.309895833,-0.390625,1,0,0,0.9964,Obsidian_rect,7,0,7,0,1,
60e36d56350e661cf50f2c7e,SCN,2024-06-20_10h31.09.539,LearnStrategy,2023.2.3,Win32,60.24096386,2,2,9,,,,,,,,7,07,,,,,,,,,,,6,4.278,0,,,,,,-0.096354167,-0.41015625,1,0,0,4.2778,Pegmatite_rect,8,0,8,0,1,
60e36d56350e661cf50f2c7e,SCN,2024-06-20_10h31.09.539,LearnStrategy,2023.2.3,Win32,60.24096386,2,2,10,,,,,,,,6,10,,,,,,,,,,,6,1.662,1,,,,,,-0.079427083,-0.4140625,1,0,0,1.6623,Pegmatite_rect,9,0,9,0,1,
60e36d56350e661cf50f2c7e,SCN,2024-06-20_10h31.09.539,LearnStrategy,2023.2.3,Win32,60.24096386,2,2,11,,,,,,,,7,02,,,,,,,,,,,7,1.082,1,,,,,,0.033854167,-0.389322917,1,0,0,1.0817,Peridotite_rect,10,0,10,0,1,
60e36d56350e661cf50f2c7e,SCN,2024-06-20_10h31.09.539,LearnStrategy,2023.2.3,Win32,60.24096386,2,2,12,,,,,,,,4,12,,,,,,,,,,,4,3.61,1,,,,,,0.384114583,-0.243489583,1,0,0,3.6095,Gabbro_rect,11,0,11,0,1,
60e36d56350e661cf50f2c7e,SCN,2024-06-20_10h31.09.539,LearnStrategy,2023.2.3,Win32,60.24096386,2,2,13,,,,,,,,1,16,,,,,,,,,,,8,11.657,0,,,,,,0.436197917,-0.4140625,1,0,0,11.657,Pumice_rect,12,0,12,0,1,
60e36d56350e661cf50f2c7e,SCN,2024-06-20_10h31.09.539,LearnStrategy,2023.2.3,Win32,60.24096386,2,2,14,,,,,,,,8,13,,,,,,,,,,,8,0.799,1,,,,,,0.358072917,-0.401041667,1,0,0,0.7986,Pumice_rect,13,0,13,0,1,
60e36d56350e661cf50f2c7e,SCN,2024-06-20_10h31.09.539,LearnStrategy,2023.2.3,Win32,60.24096386,2,2,15,,,,,,,,4,05,,,,,,,,,,,4,4.58,1,,,,,,0.368489583,-0.26171875,1,0,0,4.5797,Gabbro_rect,14,0,14,0,1,
60e36d56350e661cf50f2c7e,SCN,2024-06-20_10h31.09.539,LearnStrategy,2023.2.3,Win32,60.24096386,2,2,16,,,,,,,,3,10,,,,,,,,,,,1,1.787,0,,,,,,-0.401041667,-0.248697917,1,0,0,1.7874,Andesite_rect,15,0,15,0,1,
60e36d56350e661cf50f2c7e,SCN,2024-06-20_10h31.09.539,LearnStrategy,2023.2.3,Win32,60.24096386,3,1,1,-0.548177083,-0.122395833,1,0,0,1.7494,Obsidian_14,5,14,3,1,1.749,-0.388020833,-0.40625,1,0,0,0.9122,Obsidian_rect,5,0.912,1,0,0,0,0,1,,,,,,,,,,,,,
60e36d56350e661cf50f2c7e,SCN,2024-06-20_10h31.09.539,LearnStrategy,2023.2.3,Win32,60.24096386,3,1,2,0.561197917,-0.092447917,1,0,0,1.1131,Pumice_08,8,08,3,8,1.113,0.428385417,-0.420572917,1,0,0,2.5536,Pumice_rect,8,2.554,1,1,0,1,0,1,,,,,,,,,,,,,
60e36d56350e661cf50f2c7e,SCN,2024-06-20_10h31.09.539,LearnStrategy,2023.2.3,Win32,60.24096386,3,1,3,0.079427083,-0.270833333,1,0,0,0.595,Pegmatite_13,6,13,2,5,0.595,-0.072916667,-0.397135417,1,0,0,2.2457,Pegmatite_rect,6,2.246,1,2,0,2,0,1,,,,,,,,,,,,,
60e36d56350e661cf50f2c7e,SCN,2024-06-20_10h31.09.539,LearnStrategy,2023.2.3,Win32,60.24096386,3,1,4,-0.229166667,-0.25,1,0,0,1.0638,Andesite_03,1,03,2,3,1.064,0.14453125,-0.3984375,1,0,0,0.5034,Peridotite_rect,7,0.503,0,3,0,3,0,1,,,,,,,,,,,,,
60e36d56350e661cf50f2c7e,SCN,2024-06-20_10h31.09.539,LearnStrategy,2023.2.3,Win32,60.24096386,3,1,5,0.22265625,0.108072917,1,0,0,0.5475,Diorite_13,3,13,4,6,0.548,0.071614583,-0.235677083,1,0,0,0.9483,Diorite_rect,3,0.948,1,4,0,4,0,1,,,,,,,,,,,,,
60e36d56350e661cf50f2c7e,SCN,2024-06-20_10h31.09.539,LearnStrategy,2023.2.3,Win32,60.24096386,3,1,6,-0.428385417,0.10546875,1,0,0,0.5451,Diorite_08,3,08,4,2,0.545,0.083333333,-0.23046875,1,0,0,2.4565,Diorite_rect,3,2.457,1,5,0,5,0,1,,,,,,,,,,,,,
60e36d56350e661cf50f2c7e,SCN,2024-06-20_10h31.09.539,LearnStrategy,2023.2.3,Win32,60.24096386,3,1,7,-0.364583333,-0.438802083,1,0,0,1.1865,Peridotite_14,7,14,1,2,1.187,0.384114583,-0.399739583,1,0,0,1.3096,Pumice_rect,8,1.31,0,6,0,6,0,1,,,,,,,,,,,,,
60e36d56350e661cf50f2c7e,SCN,2024-06-20_10h31.09.539,LearnStrategy,2023.2.3,Win32,60.24096386,3,1,8,0.080729167,-0.263020833,1,0,0,0.9476,Pegmatite_13,6,13,2,5,0.948,0.109375,-0.40234375,1,0,0,0.408,Peridotite_rect,7,0.408,0,7,0,7,0,1,,,,,,,,,,,,,
60e36d56350e661cf50f2c7e,SCN,2024-06-20_10h31.09.539,LearnStrategy,2023.2.3,Win32,60.24096386,3,1,9,-0.223958333,-0.118489583,1,0,0,0.9482,Pegmatite_07,6,07,3,3,0.948,-0.083333333,-0.390625,1,0,0,0.9534,Pegmatite_rect,6,0.953,1,8,0,8,0,1,,,,,,,,,,,,,
60e36d56350e661cf50f2c7e,SCN,2024-06-20_10h31.09.539,LearnStrategy,2023.2.3,Win32,60.24096386,3,1,10,0.58203125,-0.092447917,1,0,0,0.6792,Pumice_08,8,08,3,8,0.679,0.359375,-0.381510417,1,0,0,1.0111,Pumice_rect,8,1.011,1,9,0,9,0,1,,,,,,,,,,,,,
60e36d56350e661cf50f2c7e,SCN,2024-06-20_10h31.09.539,LearnStrategy,2023.2.3,Win32,60.24096386,3,1,11,0.563802083,0.091145833,1,0,0,0.7144,Peridotite_04,7,04,4,8,0.714,-0.140625,-0.407552083,1,0,0,2.3818,Pegmatite_rect,6,2.382,0,10,0,10,0,1,,,,,,,,,,,,,
60e36d56350e661cf50f2c7e,SCN,2024-06-20_10h31.09.539,LearnStrategy,2023.2.3,Win32,60.24096386,3,1,12,-0.234375,-0.109375,1,0,0,2.0137,Pegmatite_07,6,07,3,3,2.014,-0.076822917,-0.3828125,1,0,0,1.249,Pegmatite_rect,6,1.249,1,11,0,11,0,1,,,,,,,,,,,,,
60e36d56350e661cf50f2c7e,SCN,2024-06-20_10h31.09.539,LearnStrategy,2023.2.3,Win32,60.24096386,3,1,13,0.565104167,0.078125,1,0,0,3.3632,Peridotite_04,7,04,4,8,3.363,0.161458333,-0.385416667,1,0,0,0.5901,Peridotite_rect,7,0.59,1,12,0,12,0,1,,,,,,,,,,,,,
60e36d56350e661cf50f2c7e,SCN,2024-06-20_10h31.09.539,LearnStrategy,2023.2.3,Win32,60.24096386,3,1,14,0.11328125,-0.106770833,1,0,0,0.7795,Andesite_11,1,11,3,5,0.779,-0.09375,-0.251302083,1,0,0,7.3744,Basalt_rect,2,7.374,0,13,0,13,0,1,,,,,,,,,,,,,
60e36d56350e661cf50f2c7e,SCN,2024-06-20_10h31.09.539,LearnStrategy,2023.2.3,Win32,60.24096386,3,1,15,0.080729167,0.395833333,1,0,0,2.9956,Basalt_05,2,05,6,5,2.996,-0.122395833,-0.266927083,1,0,0,1.6481,Basalt_rect,2,1.648,1,14,0,14,0,1,,,,,,,,,,,,,
60e36d56350e661cf50f2c7e,SCN,2024-06-20_10h31.09.539,LearnStrategy,2023.2.3,Win32,60.24096386,3,1,16,-0.1953125,0.407552083,1,0,0,0.6298,Basalt_02,2,02,6,3,0.63,-0.184895833,-0.259114583,1,0,0,0.843,Basalt_rect,2,0.843,1,15,0,15,0,1,,,,,,,,,,,,,
60e36d56350e661cf50f2c7e,SCN,2024-06-20_10h31.09.539,LearnStrategy,2023.2.3,Win32,60.24096386,3,2,1,,,,,,,,2,08,,,,,,,,,,,2,1.08,1,,,,,,-0.0859375,-0.268229167,1,0,0,1.0803,Basalt_rect,0,0,0,0,1,
60e36d56350e661cf50f2c7e,SCN,2024-06-20_10h31.09.539,LearnStrategy,2023.2.3,Win32,60.24096386,3,2,2,,,,,,,,5,07,,,,,,,,,,,5,1.737,1,,,,,,-0.345052083,-0.391927083,1,0,0,1.7372,Obsidian_rect,1,0,1,0,1,
60e36d56350e661cf50f2c7e,SCN,2024-06-20_10h31.09.539,LearnStrategy,2023.2.3,Win32,60.24096386,3,2,3,,,,,,,,7,10,,,,,,,,,,,7,8.494,1,,,,,,0.08203125,-0.40234375,1,0,0,8.4937,Peridotite_rect,2,0,2,0,1,
60e36d56350e661cf50f2c7e,SCN,2024-06-20_10h31.09.539,LearnStrategy,2023.2.3,Win32,60.24096386,3,2,4,,,,,,,,4,09,,,,,,,,,,,4,7.144,1,,,,,,0.377604167,-0.23828125,1,0,0,7.1443,Gabbro_rect,3,0,3,0,1,
60e36d56350e661cf50f2c7e,SCN,2024-06-20_10h31.09.539,LearnStrategy,2023.2.3,Win32,60.24096386,3,2,5,,,,,,,,1,05,,,,,,,,,,,1,2.829,1,,,,,,-0.33203125,-0.23828125,1,0,0,2.8289,Andesite_rect,4,0,4,0,1,
60e36d56350e661cf50f2c7e,SCN,2024-06-20_10h31.09.539,LearnStrategy,2023.2.3,Win32,60.24096386,3,2,6,,,,,,,,6,11,,,,,,,,,,,7,7.548,0,,,,,,0.045572917,-0.404947917,1,0,0,7.5485,Peridotite_rect,5,0,5,0,1,
60e36d56350e661cf50f2c7e,SCN,2024-06-20_10h31.09.539,LearnStrategy,2023.2.3,Win32,60.24096386,3,2,7,,,,,,,,4,14,,,,,,,,,,,4,3.751,1,,,,,,0.390625,-0.260416667,1,0,0,3.7507,Gabbro_rect,6,0,6,0,1,
60e36d56350e661cf50f2c7e,SCN,2024-06-20_10h31.09.539,LearnStrategy,2023.2.3,Win32,60.24096386,3,2,8,,,,,,,,7,06,,,,,,,,,,,6,1.837,0,,,,,,-0.05078125,-0.38671875,1,0,0,1.8365,Pegmatite_rect,7,0,7,0,1,
60e36d56350e661cf50f2c7e,SCN,2024-06-20_10h31.09.539,LearnStrategy,2023.2.3,Win32,60.24096386,3,2,9,,,,,,,,8,03,,,,,,,,,,,8,1.74,1,,,,,,0.352864583,-0.395833333,1,0,0,1.7399,Pumice_rect,8,0,8,0,1,
60e36d56350e661cf50f2c7e,SCN,2024-06-20_10h31.09.539,LearnStrategy,2023.2.3,Win32,60.24096386,3,2,10,,,,,,,,3,02,,,,,,,,,,,3,5.894,1,,,,,,0.069010417,-0.260416667,1,0,0,5.8945,Diorite_rect,9,0,9,0,1,
60e36d56350e661cf50f2c7e,SCN,2024-06-20_10h31.09.539,LearnStrategy,2023.2.3,Win32,60.24096386,3,2,11,,,,,,,,5,06,,,,,,,,,,,5,1.76,1,,,,,,-0.375,-0.384114583,1,0,0,1.7597,Obsidian_rect,10,0,10,0,1,
60e36d56350e661cf50f2c7e,SCN,2024-06-20_10h31.09.539,LearnStrategy,2023.2.3,Win32,60.24096386,3,2,12,,,,,,,,3,09,,,,,,,,,,,3,1.487,1,,,,,,0.092447917,-0.263020833,1,0,0,1.4873,Diorite_rect,11,0,11,0,1,
60e36d56350e661cf50f2c7e,SCN,2024-06-20_10h31.09.539,LearnStrategy,2023.2.3,Win32,60.24096386,3,2,13,,,,,,,,2,01,,,,,,,,,,,2,1.759,1,,,,,,-0.201822917,-0.25,1,0,0,1.7593,Basalt_rect,12,0,12,0,1,
60e36d56350e661cf50f2c7e,SCN,2024-06-20_10h31.09.539,LearnStrategy,2023.2.3,Win32,60.24096386,3,2,14,,,,,,,,8,05,,,,,,,,,,,8,1.131,1,,,,,,0.401041667,-0.40625,1,0,0,1.1308,Pumice_rect,13,0,13,0,1,
60e36d56350e661cf50f2c7e,SCN,2024-06-20_10h31.09.539,LearnStrategy,2023.2.3,Win32,60.24096386,3,2,15,,,,,,,,1,06,,,,,,,,,,,1,1.496,1,,,,,,-0.329427083,-0.268229167,1,0,0,1.4962,Andesite_rect,14,0,14,0,1,
60e36d56350e661cf50f2c7e,SCN,2024-06-20_10h31.09.539,LearnStrategy,2023.2.3,Win32,60.24096386,3,2,16,,,,,,,,6,05,,,,,,,,,,,3,1.946,0,,,,,,0.091145833,-0.248697917,1,0,0,1.9462,Diorite_rect,15,0,15,0,1,
60e36d56350e661cf50f2c7e,SCN,2024-06-20_10h31.09.539,LearnStrategy,2023.2.3,Win32,60.24096386,4,1,1,-0.364583333,-0.26953125,1,0,0,1.7979,Pumice_04,8,04,2,2,1.798,0.365885417,-0.41015625,1,0,0,1.3311,Pumice_rect,8,1.331,1,0,0,0,0,1,,,,,,,,,,,,,
60e36d56350e661cf50f2c7e,SCN,2024-06-20_10h31.09.539,LearnStrategy,2023.2.3,Win32,60.24096386,4,1,2,-0.205729167,-0.265625,1,0,0,0.4961,Andesite_03,1,03,2,3,0.496,-0.32421875,-0.26953125,1,0,0,1.6201,Andesite_rect,1,1.62,1,1,0,1,0,1,,,,,,,,,,,,,
60e36d56350e661cf50f2c7e,SCN,2024-06-20_10h31.09.539,LearnStrategy,2023.2.3,Win32,60.24096386,4,1,3,-0.065104167,-0.270833333,1,0,0,0.5986,Peridotite_16,7,16,2,4,0.599,0.3203125,-0.243489583,1,0,0,6.7616,Gabbro_rect,4,6.762,0,2,0,2,0,1,,,,,,,,,,,,,
60e36d56350e661cf50f2c7e,SCN,2024-06-20_10h31.09.539,LearnStrategy,2023.2.3,Win32,60.24096386,4,1,4,0.05859375,-0.268229167,1,0,0,0.7809,Pegmatite_13,6,13,2,5,0.781,0.040364583,-0.393229167,1,0,0,1.9077,Peridotite_rect,7,1.908,0,3,0,3,0,1,,,,,,,,,,,,,
60e36d56350e661cf50f2c7e,SCN,2024-06-20_10h31.09.539,LearnStrategy,2023.2.3,Win32,60.24096386,4,1,5,0.56640625,-0.401041667,1,0,0,3.1807,Basalt_16,2,16,1,8,3.181,0.37109375,-0.4140625,1,0,0,2.6823,Pumice_rect,8,2.682,0,4,0,4,0,1,,,,,,,,,,,,,
60e36d56350e661cf50f2c7e,SCN,2024-06-20_10h31.09.539,LearnStrategy,2023.2.3,Win32,60.24096386,4,1,6,0.579427083,-0.268229167,1,0,0,2.6158,Andesite_10,1,10,2,8,2.616,-0.360677083,-0.25,1,0,0,2.1157,Andesite_rect,1,2.116,1,5,0,5,0,1,,,,,,,,,,,,,
60e36d56350e661cf50f2c7e,SCN,2024-06-20_10h31.09.539,LearnStrategy,2023.2.3,Win32,60.24096386,4,1,7,0.575520833,-0.131510417,1,0,0,0.696,Pumice_08,8,08,3,8,0.696,0.385416667,-0.37890625,1,0,0,0.7772,Pumice_rect,8,0.777,1,6,0,6,0,1,,,,,,,,,,,,,
60e36d56350e661cf50f2c7e,SCN,2024-06-20_10h31.09.539,LearnStrategy,2023.2.3,Win32,60.24096386,4,1,8,0.430989583,0.2578125,1,0,0,1.9638,Pegmatite_03,6,03,5,7,1.964,0.044270833,-0.41796875,1,0,0,1.041,Peridotite_rect,7,1.041,0,7,0,7,0,1,,,,,,,,,,,,,
60e36d56350e661cf50f2c7e,SCN,2024-06-20_10h31.09.539,LearnStrategy,2023.2.3,Win32,60.24096386,4,1,9,0.231770833,0.26953125,1,0,0,0.8309,Pegmatite_06,6,06,5,6,0.831,0.078125,-0.415364583,1,0,0,1.2081,Peridotite_rect,7,1.208,0,8,0,8,0,1,,,,,,,,,,,,,
60e36d56350e661cf50f2c7e,SCN,2024-06-20_10h31.09.539,LearnStrategy,2023.2.3,Win32,60.24096386,4,1,10,0.25390625,0.298177083,1,0,0,0.5477,Pegmatite_06,6,06,5,6,0.548,-0.126302083,-0.412760417,1,0,0,0.8535,Pegmatite_rect,6,0.854,1,9,0,9,0,1,,,,,,,,,,,,,
60e36d56350e661cf50f2c7e,SCN,2024-06-20_10h31.09.539,LearnStrategy,2023.2.3,Win32,60.24096386,4,1,11,0.3984375,0.264322917,1,0,0,0.4999,Pegmatite_03,6,03,5,7,0.5,-0.14453125,-0.408854167,1,0,0,0.644,Pegmatite_rect,6,0.644,1,10,0,10,0,1,,,,,,,,,,,,,
60e36d56350e661cf50f2c7e,SCN,2024-06-20_10h31.09.539,LearnStrategy,2023.2.3,Win32,60.24096386,4,1,12,0.38671875,0.380208333,1,0,0,1.1972,Pegmatite_09,6,09,6,7,1.197,0.166666667,-0.384114583,1,0,0,1.4995,Peridotite_rect,7,1.5,0,11,0,11,0,1,,,,,,,,,,,,,
60e36d56350e661cf50f2c7e,SCN,2024-06-20_10h31.09.539,LearnStrategy,2023.2.3,Win32,60.24096386,4,1,13,-0.25390625,-0.111979167,1,0,0,3.3474,Pegmatite_07,6,07,3,3,3.347,-0.166666667,-0.40625,1,0,0,0.9022,Pegmatite_rect,6,0.902,1,12,0,12,0,1,,,,,,,,,,,,,
60e36d56350e661cf50f2c7e,SCN,2024-06-20_10h31.09.539,LearnStrategy,2023.2.3,Win32,60.24096386,4,1,14,0.040364583,-0.255208333,1,0,0,2.132,Pegmatite_13,6,13,2,5,2.132,0.067708333,-0.401041667,1,0,0,1.0172,Peridotite_rect,7,1.017,0,13,0,13,0,1,,,,,,,,,,,,,
60e36d56350e661cf50f2c7e,SCN,2024-06-20_10h31.09.539,LearnStrategy,2023.2.3,Win32,60.24096386,4,1,15,-0.37109375,0.248697917,1,0,0,5.0469,Gabbro_16,4,16,5,2,5.047,0.338541667,-0.247395833,1,0,0,3.3737,Gabbro_rect,4,3.374,1,14,0,14,0,1,,,,,,,,,,,,,
60e36d56350e661cf50f2c7e,SCN,2024-06-20_10h31.09.539,LearnStrategy,2023.2.3,Win32,60.24096386,4,1,16,-0.587239583,0.247395833,1,0,0,3.7626,Gabbro_08,4,08,5,1,3.763,0.334635417,-0.2421875,1,0,0,3.4697,Gabbro_rect,4,3.47,1,15,0,15,0,1,,,,,,,,,,,,,
60e36d56350e661cf50f2c7e,SCN,2024-06-20_10h31.09.539,LearnStrategy,2023.2.3,Win32,60.24096386,4,2,1,,,,,,,,4,12,,,,,,,,,,,4,1.657,1,,,,,,0.342447917,-0.229166667,1,0,0,1.6569,Gabbro_rect,0,0,0,0,1,
60e36d56350e661cf50f2c7e,SCN,2024-06-20_10h31.09.539,LearnStrategy,2023.2.3,Win32,60.24096386,4,2,2,,,,,,,,1,06,,,,,,,,,,,1,1.423,1,,,,,,-0.381510417,-0.240885417,1,0,0,1.4227,Andesite_rect,1,0,1,0,1,
60e36d56350e661cf50f2c7e,SCN,2024-06-20_10h31.09.539,LearnStrategy,2023.2.3,Win32,60.24096386,4,2,3,,,,,,,,1,07,,,,,,,,,,,3,1.281,0,,,,,,0.095052083,-0.251302083,1,0,0,1.2805,Diorite_rect,2,0,2,0,1,
60e36d56350e661cf50f2c7e,SCN,2024-06-20_10h31.09.539,LearnStrategy,2023.2.3,Win32,60.24096386,4,2,4,,,,,,,,2,08,,,,,,,,,,,2,2.084,1,,,,,,-0.075520833,-0.263020833,1,0,0,2.0841,Basalt_rect,3,0,3,0,1,
60e36d56350e661cf50f2c7e,SCN,2024-06-20_10h31.09.539,LearnStrategy,2023.2.3,Win32,60.24096386,4,2,5,,,,,,,,8,13,,,,,,,,,,,8,0.917,1,,,,,,0.3828125,-0.397135417,1,0,0,0.9174,Pumice_rect,4,0,4,0,1,
60e36d56350e661cf50f2c7e,SCN,2024-06-20_10h31.09.539,LearnStrategy,2023.2.3,Win32,60.24096386,4,2,6,,,,,,,,7,05,,,,,,,,,,,6,3.802,0,,,,,,-0.1171875,-0.391927083,1,0,0,3.8016,Pegmatite_rect,5,0,5,0,1,
60e36d56350e661cf50f2c7e,SCN,2024-06-20_10h31.09.539,LearnStrategy,2023.2.3,Win32,60.24096386,4,2,7,,,,,,,,2,10,,,,,,,,,,,2,1.798,1,,,,,,-0.173177083,-0.2578125,1,0,0,1.7975,Basalt_rect,6,0,6,0,1,
60e36d56350e661cf50f2c7e,SCN,2024-06-20_10h31.09.539,LearnStrategy,2023.2.3,Win32,60.24096386,4,2,8,,,,,,,,5,06,,,,,,,,,,,5,0.774,1,,,,,,-0.361979167,-0.40234375,1,0,0,0.7741,Obsidian_rect,7,0,7,0,1,
60e36d56350e661cf50f2c7e,SCN,2024-06-20_10h31.09.539,LearnStrategy,2023.2.3,Win32,60.24096386,4,2,9,,,,,,,,8,03,,,,,,,,,,,8,0.983,1,,,,,,0.34375,-0.390625,1,0,0,0.9834,Pumice_rect,8,0,8,0,1,
60e36d56350e661cf50f2c7e,SCN,2024-06-20_10h31.09.539,LearnStrategy,2023.2.3,Win32,60.24096386,4,2,10,,,,,,,,3,02,,,,,,,,,,,3,1.328,1,,,,,,0.10546875,-0.248697917,1,0,0,1.3279,Diorite_rect,9,0,9,0,1,
60e36d56350e661cf50f2c7e,SCN,2024-06-20_10h31.09.539,LearnStrategy,2023.2.3,Win32,60.24096386,4,2,11,,,,,,,,4,05,,,,,,,,,,,4,2.103,1,,,,,,0.3359375,-0.247395833,1,0,0,2.1025,Gabbro_rect,10,0,10,0,1,
60e36d56350e661cf50f2c7e,SCN,2024-06-20_10h31.09.539,LearnStrategy,2023.2.3,Win32,60.24096386,4,2,12,,,,,,,,5,09,,,,,,,,,,,5,0.929,1,,,,,,-0.380208333,-0.408854167,1,0,0,0.9289,Obsidian_rect,11,0,11,0,1,
60e36d56350e661cf50f2c7e,SCN,2024-06-20_10h31.09.539,LearnStrategy,2023.2.3,Win32,60.24096386,4,2,13,,,,,,,,3,09,,,,,,,,,,,3,1.615,1,,,,,,0.065104167,-0.247395833,1,0,0,1.6155,Diorite_rect,12,0,12,0,1,
60e36d56350e661cf50f2c7e,SCN,2024-06-20_10h31.09.539,LearnStrategy,2023.2.3,Win32,60.24096386,4,2,14,,,,,,,,7,06,,,,,,,,,,,6,1.17,0,,,,,,-0.083333333,-0.399739583,1,0,0,1.1703,Pegmatite_rect,13,0,13,0,1,
60e36d56350e661cf50f2c7e,SCN,2024-06-20_10h31.09.539,LearnStrategy,2023.2.3,Win32,60.24096386,4,2,15,,,,,,,,6,10,,,,,,,,,,,6,2.658,1,,,,,,-0.092447917,-0.416666667,1,0,0,2.6582,Pegmatite_rect,14,0,14,0,1,
60e36d56350e661cf50f2c7e,SCN,2024-06-20_10h31.09.539,LearnStrategy,2023.2.3,Win32,60.24096386,4,2,16,,,,,,,,6,16,,,,,,,,,,,3,19.557,0,,,,,,0.12890625,-0.25390625,1,0,0,19.5573,Diorite_rect,15,0,15,0,1,
60e36d56350e661cf50f2c7e,SCN,2024-06-20_10h31.09.539,LearnStrategy,2023.2.3,Win32,60.24096386,5,1,1,-0.360677083,-0.412760417,1,0,0,3.697,Peridotite_14,7,14,1,2,3.697,-0.067708333,-0.4140625,1,0,0,1.8334,Pegmatite_rect,6,1.833,0,0,0,0,0,1,,,,,,,,,,,,,
60e36d56350e661cf50f2c7e,SCN,2024-06-20_10h31.09.539,LearnStrategy,2023.2.3,Win32,60.24096386,5,1,2,-0.390625,-0.303385417,1,0,0,0.831,Pumice_04,8,04,2,2,0.831,0.078125,-0.40625,1,0,0,0.5513,Peridotite_rect,7,0.551,0,1,0,1,0,1,,,,,,,,,,,,,
60e36d56350e661cf50f2c7e,SCN,2024-06-20_10h31.09.539,LearnStrategy,2023.2.3,Win32,60.24096386,5,1,3,0.251302083,-0.41796875,1,0,0,1.9978,Gabbro_01,4,01,1,6,1.998,0.330729167,-0.236979167,1,0,0,1.9918,Gabbro_rect,4,1.992,1,2,0,2,0,1,,,,,,,,,,,,,
60e36d56350e661cf50f2c7e,SCN,2024-06-20_10h31.09.539,LearnStrategy,2023.2.3,Win32,60.24096386,5,1,4,0.243489583,-0.40625,1,0,0,0.7641,Gabbro_01,4,01,1,6,0.764,0.372395833,-0.244791667,1,0,0,1.5955,Gabbro_rect,4,1.596,1,3,0,3,0,1,,,,,,,,,,,,,
60e36d56350e661cf50f2c7e,SCN,2024-06-20_10h31.09.539,LearnStrategy,2023.2.3,Win32,60.24096386,5,1,5,0.416666667,0.279947917,1,0,0,0.9655,Pegmatite_03,6,03,5,7,0.966,-0.104166667,-0.403645833,1,0,0,1.1955,Pegmatite_rect,6,1.196,1,4,0,4,0,1,,,,,,,,,,,,,
60e36d56350e661cf50f2c7e,SCN,2024-06-20_10h31.09.539,LearnStrategy,2023.2.3,Win32,60.24096386,5,1,6,0.236979167,0.26953125,1,0,0,0.5972,Pegmatite_06,6,06,5,6,0.597,-0.119791667,-0.403645833,1,0,0,0.5526,Pegmatite_rect,6,0.553,1,5,0,5,0,1,,,,,,,,,,,,,
60e36d56350e661cf50f2c7e,SCN,2024-06-20_10h31.09.539,LearnStrategy,2023.2.3,Win32,60.24096386,5,1,7,0.08984375,-0.278645833,1,0,0,2.5813,Pegmatite_13,6,13,2,5,2.581,-0.09375,-0.4140625,1,0,0,1.4086,Pegmatite_rect,6,1.409,1,6,0,6,0,1,,,,,,,,,,,,,
60e36d56350e661cf50f2c7e,SCN,2024-06-20_10h31.09.539,LearnStrategy,2023.2.3,Win32,60.24096386,5,1,8,-0.083333333,-0.265625,1,0,0,2.3811,Peridotite_16,7,16,2,4,2.381,0.087239583,-0.395833333,1,0,0,1.3214,Peridotite_rect,7,1.321,1,7,0,7,0,1,,,,,,,,,,,,,
60e36d56350e661cf50f2c7e,SCN,2024-06-20_10h31.09.539,LearnStrategy,2023.2.3,Win32,60.24096386,5,1,9,-0.248697917,0.0625,1,0,0,5.7807,Pumice_15,8,15,4,3,5.781,0.421875,-0.419270833,1,0,0,0.8794,Pumice_rect,8,0.879,1,8,0,8,0,1,,,,,,,,,,,,,
60e36d56350e661cf50f2c7e,SCN,2024-06-20_10h31.09.539,LearnStrategy,2023.2.3,Win32,60.24096386,5,1,10,0.588541667,0.083333333,1,0,0,0.7758,Peridotite_04,7,04,4,8,0.776,-0.127604167,-0.408854167,1,0,0,2.855,Pegmatite_rect,6,2.855,0,9,0,9,0,1,,,,,,,,,,,,,
60e36d56350e661cf50f2c7e,SCN,2024-06-20_10h31.09.539,LearnStrategy,2023.2.3,Win32,60.24096386,5,1,11,0.424479167,0.087239583,1,0,0,3.2132,Peridotite_15,7,15,4,7,3.213,-0.134114583,-0.416666667,1,0,0,1.555,Pegmatite_rect,6,1.555,0,10,0,10,0,1,,,,,,,,,,,,,
60e36d56350e661cf50f2c7e,SCN,2024-06-20_10h31.09.539,LearnStrategy,2023.2.3,Win32,60.24096386,5,1,12,0.416666667,0.252604167,1,0,0,2.8311,Pegmatite_03,6,03,5,7,2.831,0.10546875,-0.390625,1,0,0,1.2134,Peridotite_rect,7,1.213,0,11,0,11,0,1,,,,,,,,,,,,,
60e36d56350e661cf50f2c7e,SCN,2024-06-20_10h31.09.539,LearnStrategy,2023.2.3,Win32,60.24096386,5,1,13,-0.244791667,-0.098958333,1,0,0,3.379,Pegmatite_07,6,07,3,3,3.379,0.0546875,-0.412760417,1,0,0,0.9756,Peridotite_rect,7,0.976,0,12,0,12,0,1,,,,,,,,,,,,,
60e36d56350e661cf50f2c7e,SCN,2024-06-20_10h31.09.539,LearnStrategy,2023.2.3,Win32,60.24096386,5,1,14,-0.255208333,0.256510417,1,0,0,2.7804,Peridotite_08,7,08,5,3,2.78,0.096354167,-0.40234375,1,0,0,1.5877,Peridotite_rect,7,1.588,1,13,0,13,0,1,,,,,,,,,,,,,
60e36d56350e661cf50f2c7e,SCN,2024-06-20_10h31.09.539,LearnStrategy,2023.2.3,Win32,60.24096386,5,1,15,0.575520833,-0.416666667,1,0,0,0.9644,Basalt_16,2,16,1,8,0.964,-0.109375,-0.25,1,0,0,5.3984,Basalt_rect,2,5.398,1,14,0,14,0,1,,,,,,,,,,,,,
60e36d56350e661cf50f2c7e,SCN,2024-06-20_10h31.09.539,LearnStrategy,2023.2.3,Win32,60.24096386,5,1,16,-0.5625,-0.111979167,1,0,0,0.8659,Obsidian_14,5,14,3,1,0.866,-0.35546875,-0.389322917,1,0,0,1.3607,Obsidian_rect,5,1.361,1,15,0,15,0,1,,,,,,,,,,,,,
60e36d56350e661cf50f2c7e,SCN,2024-06-20_10h31.09.539,LearnStrategy,2023.2.3,Win32,60.24096386,5,2,1,,,,,,,,2,14,,,,,,,,,,,8,6.07,0,,,,,,0.434895833,-0.403645833,1,0,0,6.0701,Pumice_rect,0,0,0,0,1,
60e36d56350e661cf50f2c7e,SCN,2024-06-20_10h31.09.539,LearnStrategy,2023.2.3,Win32,60.24096386,5,2,2,,,,,,,,1,01,,,,,,,,,,,3,2.516,0,,,,,,0.127604167,-0.256510417,1,0,0,2.5165,Diorite_rect,1,0,1,0,1,
60e36d56350e661cf50f2c7e,SCN,2024-06-20_10h31.09.539,LearnStrategy,2023.2.3,Win32,60.24096386,5,2,3,,,,,,,,7,10,,,,,,,,,,,7,2.228,1,,,,,,0.1640625,-0.407552083,1,0,0,2.2281,Peridotite_rect,2,0,2,0,1,
60e36d56350e661cf50f2c7e,SCN,2024-06-20_10h31.09.539,LearnStrategy,2023.2.3,Win32,60.24096386,5,2,4,,,,,,,,6,11,,,,,,,,,,,6,1.209,1,,,,,,-0.0859375,-0.393229167,1,0,0,1.2088,Pegmatite_rect,3,0,3,0,1,
60e36d56350e661cf50f2c7e,SCN,2024-06-20_10h31.09.539,LearnStrategy,2023.2.3,Win32,60.24096386,5,2,5,,,,,,,,3,16,,,,,,,,,,,3,0.995,1,,,,,,0.069010417,-0.2421875,1,0,0,0.9945,Diorite_rect,4,0,4,0,1,
60e36d56350e661cf50f2c7e,SCN,2024-06-20_10h31.09.539,LearnStrategy,2023.2.3,Win32,60.24096386,5,2,6,,,,,,,,4,13,,,,,,,,,,,4,8.632,1,,,,,,0.375,-0.2421875,1,0,0,8.6324,Gabbro_rect,5,0,5,0,1,
60e36d56350e661cf50f2c7e,SCN,2024-06-20_10h31.09.539,LearnStrategy,2023.2.3,Win32,60.24096386,5,2,7,,,,,,,,3,10,,,,,,,,,,,3,1.789,1,,,,,,0.104166667,-0.239583333,1,0,0,1.7889,Diorite_rect,6,0,6,0,1,
60e36d56350e661cf50f2c7e,SCN,2024-06-20_10h31.09.539,LearnStrategy,2023.2.3,Win32,60.24096386,5,2,8,,,,,,,,8,16,,,,,,,,,,,8,1.331,1,,,,,,0.384114583,-0.403645833,1,0,0,1.331,Pumice_rect,7,0,7,0,1,
60e36d56350e661cf50f2c7e,SCN,2024-06-20_10h31.09.539,LearnStrategy,2023.2.3,Win32,60.24096386,5,2,9,,,,,,,,5,12,,,,,,,,,,,5,1.544,1,,,,,,-0.375,-0.389322917,1,0,0,1.5437,Obsidian_rect,8,0,8,0,1,
60e36d56350e661cf50f2c7e,SCN,2024-06-20_10h31.09.539,LearnStrategy,2023.2.3,Win32,60.24096386,5,2,10,,,,,,,,5,07,,,,,,,,,,,5,0.946,1,,,,,,-0.328125,-0.4140625,1,0,0,0.9462,Obsidian_rect,9,0,9,0,1,
60e36d56350e661cf50f2c7e,SCN,2024-06-20_10h31.09.539,LearnStrategy,2023.2.3,Win32,60.24096386,5,2,11,,,,,,,,4,14,,,,,,,,,,,4,2.947,1,,,,,,0.393229167,-0.2578125,1,0,0,2.9475,Gabbro_rect,10,0,10,0,1,
60e36d56350e661cf50f2c7e,SCN,2024-06-20_10h31.09.539,LearnStrategy,2023.2.3,Win32,60.24096386,5,2,12,,,,,,,,2,12,,,,,,,,,,,8,1.167,0,,,,,,0.423177083,-0.389322917,1,0,0,1.1672,Pumice_rect,11,0,11,0,1,
60e36d56350e661cf50f2c7e,SCN,2024-06-20_10h31.09.539,LearnStrategy,2023.2.3,Win32,60.24096386,5,2,13,,,,,,,,1,02,,,,,,,,,,,1,1.655,1,,,,,,-0.411458333,-0.25390625,1,0,0,1.6549,Andesite_rect,12,0,12,0,1,
60e36d56350e661cf50f2c7e,SCN,2024-06-20_10h31.09.539,LearnStrategy,2023.2.3,Win32,60.24096386,5,2,14,,,,,,,,7,02,,,,,,,,,,,7,1.612,1,,,,,,0.104166667,-0.408854167,1,0,0,1.6121,Peridotite_rect,13,0,13,0,1,
60e36d56350e661cf50f2c7e,SCN,2024-06-20_10h31.09.539,LearnStrategy,2023.2.3,Win32,60.24096386,5,2,15,,,,,,,,8,14,,,,,,,,,,,8,1.679,1,,,,,,0.3515625,-0.41796875,1,0,0,1.6786,Pumice_rect,14,0,14,0,1,
60e36d56350e661cf50f2c7e,SCN,2024-06-20_10h31.09.539,LearnStrategy,2023.2.3,Win32,60.24096386,5,2,16,,,,,,,,6,12,,,,,,,,,,,1,3.349,0,,,,,,-0.361979167,-0.270833333,1,0,0,3.3491,Andesite_rect,15,0,15,0,1,
60e36d56350e661cf50f2c7e,SCN,2024-06-20_10h31.09.539,LearnStrategy,2023.2.3,Win32,60.24096386,6,1,1,0.557291667,-0.110677083,1,0,0,0.7125,Pumice_08,8,08,3,8,0.713,0.403645833,-0.40234375,1,0,0,2.213,Pumice_rect,8,2.213,1,0,0,0,0,1,,,,,,,,,,,,,
60e36d56350e661cf50f2c7e,SCN,2024-06-20_10h31.09.539,LearnStrategy,2023.2.3,Win32,60.24096386,6,1,2,-0.264322917,-0.268229167,1,0,0,1.9971,Andesite_03,1,03,2,3,1.997,-0.365885417,-0.243489583,1,0,0,1.3503,Andesite_rect,1,1.35,1,1,0,1,0,1,,,,,,,,,,,,,
60e36d56350e661cf50f2c7e,SCN,2024-06-20_10h31.09.539,LearnStrategy,2023.2.3,Win32,60.24096386,6,1,3,-0.108072917,-0.235677083,1,0,0,0.4469,Peridotite_16,7,16,2,4,0.447,0.049479167,-0.412760417,1,0,0,1.9934,Peridotite_rect,7,1.993,1,2,0,2,0,1,,,,,,,,,,,,,
60e36d56350e661cf50f2c7e,SCN,2024-06-20_10h31.09.539,LearnStrategy,2023.2.3,Win32,60.24096386,6,1,4,0.100260417,-0.279947917,1,0,0,0.4627,Pegmatite_13,6,13,2,5,0.463,-0.0625,-0.40625,1,0,0,2.6652,Pegmatite_rect,6,2.665,1,3,0,3,0,1,,,,,,,,,,,,,
60e36d56350e661cf50f2c7e,SCN,2024-06-20_10h31.09.539,LearnStrategy,2023.2.3,Win32,60.24096386,6,1,5,0.264322917,-0.283854167,1,0,0,0.5818,Peridotite_12,7,12,2,6,0.582,0.111979167,-0.399739583,1,0,0,2.8311,Peridotite_rect,7,2.831,1,4,0,4,0,1,,,,,,,,,,,,,
60e36d56350e661cf50f2c7e,SCN,2024-06-20_10h31.09.539,LearnStrategy,2023.2.3,Win32,60.24096386,6,1,6,0.380208333,-0.28515625,1,0,0,0.6841,Gabbro_15,4,15,2,7,0.684,0.326822917,-0.251302083,1,0,0,2.0607,Gabbro_rect,4,2.061,1,5,0,5,0,1,,,,,,,,,,,,,
60e36d56350e661cf50f2c7e,SCN,2024-06-20_10h31.09.539,LearnStrategy,2023.2.3,Win32,60.24096386,6,1,7,0.572916667,-0.294270833,1,0,0,0.5811,Andesite_10,1,10,2,8,0.581,-0.33984375,-0.255208333,1,0,0,1.0517,Andesite_rect,1,1.052,1,6,0,6,0,1,,,,,,,,,,,,,
60e36d56350e661cf50f2c7e,SCN,2024-06-20_10h31.09.539,LearnStrategy,2023.2.3,Win32,60.24096386,6,1,8,-0.227864583,0.240885417,1,0,0,2.8804,Peridotite_08,7,08,5,3,2.88,0.09375,-0.412760417,1,0,0,1.9411,Peridotite_rect,7,1.941,1,7,0,7,0,1,,,,,,,,,,,,,
60e36d56350e661cf50f2c7e,SCN,2024-06-20_10h31.09.539,LearnStrategy,2023.2.3,Win32,60.24096386,6,1,9,-0.053385417,0.24609375,1,0,0,0.4805,Gabbro_11,4,11,5,4,0.481,-0.359375,-0.25390625,1,0,0,3.9829,Andesite_rect,1,3.983,0,8,0,8,0,1,,,,,,,,,,,,,
60e36d56350e661cf50f2c7e,SCN,2024-06-20_10h31.09.539,LearnStrategy,2023.2.3,Win32,60.24096386,6,1,10,-0.260416667,0.373697917,1,0,0,1.5135,Basalt_02,2,02,6,3,1.514,-0.423177083,-0.265625,1,0,0,0.7,Andesite_rect,1,0.7,0,9,0,9,0,1,,,,,,,,,,,,,
60e36d56350e661cf50f2c7e,SCN,2024-06-20_10h31.09.539,LearnStrategy,2023.2.3,Win32,60.24096386,6,1,11,0.08203125,0.421875,1,0,0,1.6804,Basalt_05,2,05,6,5,1.68,-0.127604167,-0.234375,1,0,0,0.9091,Basalt_rect,2,0.909,1,10,0,10,0,1,,,,,,,,,,,,,
60e36d56350e661cf50f2c7e,SCN,2024-06-20_10h31.09.539,LearnStrategy,2023.2.3,Win32,60.24096386,6,1,12,-0.184895833,0.376302083,1,0,0,0.7293,Basalt_02,2,02,6,3,0.729,-0.11328125,-0.248697917,1,0,0,1.2781,Basalt_rect,2,1.278,1,11,0,11,0,1,,,,,,,,,,,,,
60e36d56350e661cf50f2c7e,SCN,2024-06-20_10h31.09.539,LearnStrategy,2023.2.3,Win32,60.24096386,6,1,13,0.5859375,0.231770833,1,0,0,2.2975,Basalt_04,2,04,5,8,2.297,-0.083333333,-0.266927083,1,0,0,0.8416,Basalt_rect,2,0.842,1,12,0,12,0,1,,,,,,,,,,,,,
60e36d56350e661cf50f2c7e,SCN,2024-06-20_10h31.09.539,LearnStrategy,2023.2.3,Win32,60.24096386,6,1,14,0.548177083,-0.08984375,1,0,0,0.6311,Pumice_08,8,08,3,8,0.631,0.41796875,-0.391927083,1,0,0,0.8943,Pumice_rect,8,0.894,1,13,0,13,0,1,,,,,,,,,,,,,
60e36d56350e661cf50f2c7e,SCN,2024-06-20_10h31.09.539,LearnStrategy,2023.2.3,Win32,60.24096386,6,1,15,0.3828125,-0.096354167,1,0,0,0.5645,Diorite_11,3,11,3,7,0.564,0.0859375,-0.263020833,1,0,0,1.5211,Diorite_rect,3,1.521,1,14,0,14,0,1,,,,,,,,,,,,,
60e36d56350e661cf50f2c7e,SCN,2024-06-20_10h31.09.539,LearnStrategy,2023.2.3,Win32,60.24096386,6,1,16,0.524739583,0.072916667,1,0,0,0.6303,Peridotite_04,7,04,4,8,0.63,0.0546875,-0.407552083,1,0,0,5.198,Peridotite_rect,7,5.198,1,15,0,15,0,1,,,,,,,,,,,,,
60e36d56350e661cf50f2c7e,SCN,2024-06-20_10h31.09.539,LearnStrategy,2023.2.3,Win32,60.24096386,6,2,1,,,,,,,,3,14,,,,,,,,,,,3,1.557,1,,,,,,0.151041667,-0.23828125,1,0,0,1.5565,Diorite_rect,0,0,0,0,1,
60e36d56350e661cf50f2c7e,SCN,2024-06-20_10h31.09.539,LearnStrategy,2023.2.3,Win32,60.24096386,6,2,2,,,,,,,,2,06,,,,,,,,,,,2,0.993,1,,,,,,-0.157552083,-0.23828125,1,0,0,0.9931,Basalt_rect,1,0,1,0,1,
60e36d56350e661cf50f2c7e,SCN,2024-06-20_10h31.09.539,LearnStrategy,2023.2.3,Win32,60.24096386,6,2,3,,,,,,,,3,12,,,,,,,,,,,4,3.321,0,,,,,,0.338541667,-0.2421875,1,0,0,3.3211,Gabbro_rect,2,0,2,0,1,
60e36d56350e661cf50f2c7e,SCN,2024-06-20_10h31.09.539,LearnStrategy,2023.2.3,Win32,60.24096386,6,2,4,,,,,,,,7,13,,,,,,,,,,,7,6.089,1,,,,,,0.149739583,-0.420572917,1,0,0,6.0887,Peridotite_rect,3,0,3,0,1,
60e36d56350e661cf50f2c7e,SCN,2024-06-20_10h31.09.539,LearnStrategy,2023.2.3,Win32,60.24096386,6,2,5,,,,,,,,6,05,,,,,,,,,,,2,7.734,0,,,,,,-0.174479167,-0.243489583,1,0,0,7.7342,Basalt_rect,4,0,4,0,1,
60e36d56350e661cf50f2c7e,SCN,2024-06-20_10h31.09.539,LearnStrategy,2023.2.3,Win32,60.24096386,6,2,6,,,,,,,,7,07,,,,,,,,,,,7,1.727,1,,,,,,0.1171875,-0.401041667,1,0,0,1.7269,Peridotite_rect,5,0,5,0,1,
60e36d56350e661cf50f2c7e,SCN,2024-06-20_10h31.09.539,LearnStrategy,2023.2.3,Win32,60.24096386,6,2,7,,,,,,,,1,16,,,,,,,,,,,7,3.28,0,,,,,,0.147135417,-0.401041667,1,0,0,3.2802,Peridotite_rect,6,0,6,0,1,
60e36d56350e661cf50f2c7e,SCN,2024-06-20_10h31.09.539,LearnStrategy,2023.2.3,Win32,60.24096386,6,2,8,,,,,,,,6,15,,,,,,,,,,,4,7.876,0,,,,,,0.37109375,-0.23828125,1,0,0,7.8761,Gabbro_rect,7,0,7,0,1,
60e36d56350e661cf50f2c7e,SCN,2024-06-20_10h31.09.539,LearnStrategy,2023.2.3,Win32,60.24096386,6,2,9,,,,,,,,4,09,,,,,,,,,,,4,5.321,1,,,,,,0.37109375,-0.236979167,1,0,0,5.3206,Gabbro_rect,8,0,8,0,1,
60e36d56350e661cf50f2c7e,SCN,2024-06-20_10h31.09.539,LearnStrategy,2023.2.3,Win32,60.24096386,6,2,10,,,,,,,,2,01,,,,,,,,,,,2,0.899,1,,,,,,-0.075520833,-0.25390625,1,0,0,0.8994,Basalt_rect,9,0,9,0,1,
60e36d56350e661cf50f2c7e,SCN,2024-06-20_10h31.09.539,LearnStrategy,2023.2.3,Win32,60.24096386,6,2,11,,,,,,,,5,10,,,,,,,,,,,5,0.926,1,,,,,,-0.40625,-0.40234375,1,0,0,0.9257,Obsidian_rect,10,0,10,0,1,
60e36d56350e661cf50f2c7e,SCN,2024-06-20_10h31.09.539,LearnStrategy,2023.2.3,Win32,60.24096386,6,2,12,,,,,,,,5,08,,,,,,,,,,,5,0.531,1,,,,,,-0.403645833,-0.401041667,1,0,0,0.5314,Obsidian_rect,11,0,11,0,1,
60e36d56350e661cf50f2c7e,SCN,2024-06-20_10h31.09.539,LearnStrategy,2023.2.3,Win32,60.24096386,6,2,13,,,,,,,,8,05,,,,,,,,,,,8,1.041,1,,,,,,0.3203125,-0.407552083,1,0,0,1.0413,Pumice_rect,12,0,12,0,1,
60e36d56350e661cf50f2c7e,SCN,2024-06-20_10h31.09.539,LearnStrategy,2023.2.3,Win32,60.24096386,6,2,14,,,,,,,,4,10,,,,,,,,,,,4,3.78,1,,,,,,0.330729167,-0.265625,1,0,0,3.7798,Gabbro_rect,13,0,13,0,1,
60e36d56350e661cf50f2c7e,SCN,2024-06-20_10h31.09.539,LearnStrategy,2023.2.3,Win32,60.24096386,6,2,15,,,,,,,,8,10,,,,,,,,,,,8,1.659,1,,,,,,0.372395833,-0.415364583,1,0,0,1.6593,Pumice_rect,14,0,14,0,1,
60e36d56350e661cf50f2c7e,SCN,2024-06-20_10h31.09.539,LearnStrategy,2023.2.3,Win32,60.24096386,6,2,16,,,,,,,,1,05,,,,,,,,,,,7,1.788,0,,,,,,0.088541667,-0.381510417,1,0,0,1.7879,Peridotite_rect,15,0,15,0,1,
60e36d56350e661cf50f2c7e,SCN,2024-06-20_10h31.09.539,LearnStrategy,2023.2.3,Win32,60.24096386,7,1,1,-0.53515625,0.098958333,1,0,0,1.278,Pumice_09,8,09,4,1,1.278,0.334635417,-0.380208333,1,0,0,0.8775,Pumice_rect,8,0.878,1,0,0,0,0,1,,,,,,,,,,,,,
60e36d56350e661cf50f2c7e,SCN,2024-06-20_10h31.09.539,LearnStrategy,2023.2.3,Win32,60.24096386,7,1,2,-0.407552083,0.09765625,1,0,0,0.58,Diorite_08,3,08,4,2,0.58,0.095052083,-0.240885417,1,0,0,0.8182,Diorite_rect,3,0.818,1,1,0,1,0,1,,,,,,,,,,,,,
60e36d56350e661cf50f2c7e,SCN,2024-06-20_10h31.09.539,LearnStrategy,2023.2.3,Win32,60.24096386,7,1,3,-0.235677083,0.11328125,1,0,0,0.547,Pumice_15,8,15,4,3,0.547,0.364583333,-0.393229167,1,0,0,1.0225,Pumice_rect,8,1.022,1,2,0,2,0,1,,,,,,,,,,,,,
60e36d56350e661cf50f2c7e,SCN,2024-06-20_10h31.09.539,LearnStrategy,2023.2.3,Win32,60.24096386,7,1,4,-0.059895833,0.08203125,1,0,0,0.5848,Andesite_04,1,04,4,4,0.585,-0.342447917,-0.255208333,1,0,0,1.3038,Andesite_rect,1,1.304,1,3,0,3,0,1,,,,,,,,,,,,,
60e36d56350e661cf50f2c7e,SCN,2024-06-20_10h31.09.539,LearnStrategy,2023.2.3,Win32,60.24096386,7,1,5,0.0625,0.108072917,1,0,0,0.5153,Andesite_14,1,14,4,5,0.515,0.138020833,-0.25,1,0,0,1.7706,Diorite_rect,3,1.771,0,4,0,4,0,1,,,,,,,,,,,,,
60e36d56350e661cf50f2c7e,SCN,2024-06-20_10h31.09.539,LearnStrategy,2023.2.3,Win32,60.24096386,7,1,6,0.236979167,0.096354167,1,0,0,0.6146,Diorite_13,3,13,4,6,0.615,0.08984375,-0.244791667,1,0,0,1.8833,Diorite_rect,3,1.883,1,5,0,5,0,1,,,,,,,,,,,,,
60e36d56350e661cf50f2c7e,SCN,2024-06-20_10h31.09.539,LearnStrategy,2023.2.3,Win32,60.24096386,7,1,7,0.419270833,0.102864583,1,0,0,0.6145,Peridotite_15,7,15,4,7,0.615,0.0625,-0.41015625,1,0,0,1.1141,Peridotite_rect,7,1.114,1,6,0,6,0,1,,,,,,,,,,,,,
60e36d56350e661cf50f2c7e,SCN,2024-06-20_10h31.09.539,LearnStrategy,2023.2.3,Win32,60.24096386,7,1,8,0.5078125,0.075520833,1,0,0,0.8154,Peridotite_04,7,04,4,8,0.815,0.083333333,-0.407552083,1,0,0,0.8801,Peridotite_rect,7,0.88,1,7,0,7,0,1,,,,,,,,,,,,,
60e36d56350e661cf50f2c7e,SCN,2024-06-20_10h31.09.539,LearnStrategy,2023.2.3,Win32,60.24096386,7,1,9,-0.52734375,-0.109375,1,0,0,1.2628,Obsidian_14,5,14,3,1,1.263,-0.393229167,-0.41015625,1,0,0,0.9407,Obsidian_rect,5,0.941,1,8,0,8,0,1,,,,,,,,,,,,,
60e36d56350e661cf50f2c7e,SCN,2024-06-20_10h31.09.539,LearnStrategy,2023.2.3,Win32,60.24096386,7,1,10,-0.376302083,-0.110677083,1,0,0,0.6141,Pumice_06,8,06,3,2,0.614,0.34765625,-0.38671875,1,0,0,1.0324,Pumice_rect,8,1.032,1,9,0,9,0,1,,,,,,,,,,,,,
60e36d56350e661cf50f2c7e,SCN,2024-06-20_10h31.09.539,LearnStrategy,2023.2.3,Win32,60.24096386,7,1,11,-0.23828125,-0.11328125,1,0,0,0.4138,Pegmatite_07,6,07,3,3,0.414,-0.125,-0.41796875,1,0,0,3.0105,Pegmatite_rect,6,3.01,1,10,0,10,0,1,,,,,,,,,,,,,
60e36d56350e661cf50f2c7e,SCN,2024-06-20_10h31.09.539,LearnStrategy,2023.2.3,Win32,60.24096386,7,1,12,-0.080729167,-0.109375,1,0,0,0.3984,Diorite_06,3,06,3,4,0.398,0.052083333,-0.229166667,1,0,0,2.4447,Diorite_rect,3,2.445,1,11,0,11,0,1,,,,,,,,,,,,,
60e36d56350e661cf50f2c7e,SCN,2024-06-20_10h31.09.539,LearnStrategy,2023.2.3,Win32,60.24096386,7,1,13,0.1171875,-0.08984375,1,0,0,0.7153,Andesite_11,1,11,3,5,0.715,-0.365885417,-0.231770833,1,0,0,5.8422,Andesite_rect,1,5.842,1,12,0,12,0,1,,,,,,,,,,,,,
60e36d56350e661cf50f2c7e,SCN,2024-06-20_10h31.09.539,LearnStrategy,2023.2.3,Win32,60.24096386,7,1,14,0.282552083,-0.08203125,1,0,0,0.4977,Diorite_15,3,15,3,6,0.498,0.091145833,-0.240885417,1,0,0,1.9174,Diorite_rect,3,1.917,1,13,0,13,0,1,,,,,,,,,,,,,
60e36d56350e661cf50f2c7e,SCN,2024-06-20_10h31.09.539,LearnStrategy,2023.2.3,Win32,60.24096386,7,1,15,0.408854167,-0.075520833,1,0,0,0.6802,Diorite_11,3,11,3,7,0.68,0.123697917,-0.243489583,1,0,0,0.7174,Diorite_rect,3,0.717,1,14,0,14,0,1,,,,,,,,,,,,,
60e36d56350e661cf50f2c7e,SCN,2024-06-20_10h31.09.539,LearnStrategy,2023.2.3,Win32,60.24096386,7,1,16,0.571614583,-0.057291667,1,0,0,0.5309,Pumice_08,8,08,3,8,0.531,0.376302083,-0.415364583,1,0,0,0.7474,Pumice_rect,8,0.747,1,15,0,15,0,1,,,,,,,,,,,,,
60e36d56350e661cf50f2c7e,SCN,2024-06-20_10h31.09.539,LearnStrategy,2023.2.3,Win32,60.24096386,7,2,1,,,,,,,,8,03,,,,,,,,,,,8,1.568,1,,,,,,0.444010417,-0.39453125,1,0,0,1.5681,Pumice_rect,0,0,0,0,1,
60e36d56350e661cf50f2c7e,SCN,2024-06-20_10h31.09.539,LearnStrategy,2023.2.3,Win32,60.24096386,7,2,2,,,,,,,,6,15,,,,,,,,,,,5,12.889,0,,,,,,-0.384114583,-0.397135417,1,0,0,12.8892,Obsidian_rect,1,0,1,0,1,
60e36d56350e661cf50f2c7e,SCN,2024-06-20_10h31.09.539,LearnStrategy,2023.2.3,Win32,60.24096386,7,2,3,,,,,,,,2,12,,,,,,,,,,,1,2.882,0,,,,,,-0.338541667,-0.256510417,1,0,0,2.8819,Andesite_rect,2,0,2,0,1,
60e36d56350e661cf50f2c7e,SCN,2024-06-20_10h31.09.539,LearnStrategy,2023.2.3,Win32,60.24096386,7,2,4,,,,,,,,1,01,,,,,,,,,,,3,1.151,0,,,,,,0.1875,-0.248697917,1,0,0,1.1507,Diorite_rect,3,0,3,0,1,
60e36d56350e661cf50f2c7e,SCN,2024-06-20_10h31.09.539,LearnStrategy,2023.2.3,Win32,60.24096386,7,2,5,,,,,,,,5,08,,,,,,,,,,,5,0.897,1,,,,,,-0.3671875,-0.403645833,1,0,0,0.8968,Obsidian_rect,4,0,4,0,1,
60e36d56350e661cf50f2c7e,SCN,2024-06-20_10h31.09.539,LearnStrategy,2023.2.3,Win32,60.24096386,7,2,6,,,,,,,,4,05,,,,,,,,,,,4,6.546,1,,,,,,0.403645833,-0.270833333,1,0,0,6.5459,Gabbro_rect,5,0,5,0,1,
60e36d56350e661cf50f2c7e,SCN,2024-06-20_10h31.09.539,LearnStrategy,2023.2.3,Win32,60.24096386,7,2,7,,,,,,,,8,10,,,,,,,,,,,8,3.729,1,,,,,,0.393229167,-0.412760417,1,0,0,3.7291,Pumice_rect,6,0,6,0,1,
60e36d56350e661cf50f2c7e,SCN,2024-06-20_10h31.09.539,LearnStrategy,2023.2.3,Win32,60.24096386,7,2,8,,,,,,,,7,02,,,,,,,,,,,7,2.375,1,,,,,,0.079427083,-0.399739583,1,0,0,2.3753,Peridotite_rect,7,0,7,0,1,
60e36d56350e661cf50f2c7e,SCN,2024-06-20_10h31.09.539,LearnStrategy,2023.2.3,Win32,60.24096386,7,2,9,,,,,,,,7,07,,,,,,,,,,,7,1.013,1,,,,,,0.076822917,-0.389322917,1,0,0,1.0128,Peridotite_rect,8,0,8,0,1,
60e36d56350e661cf50f2c7e,SCN,2024-06-20_10h31.09.539,LearnStrategy,2023.2.3,Win32,60.24096386,7,2,10,,,,,,,,5,10,,,,,,,,,,,5,0.9,1,,,,,,-0.34375,-0.393229167,1,0,0,0.8999,Obsidian_rect,9,0,9,0,1,
60e36d56350e661cf50f2c7e,SCN,2024-06-20_10h31.09.539,LearnStrategy,2023.2.3,Win32,60.24096386,7,2,11,,,,,,,,2,08,,,,,,,,,,,2,1.894,1,,,,,,-0.23046875,-0.234375,1,0,0,1.8936,Basalt_rect,10,0,10,0,1,
60e36d56350e661cf50f2c7e,SCN,2024-06-20_10h31.09.539,LearnStrategy,2023.2.3,Win32,60.24096386,7,2,12,,,,,,,,6,10,,,,,,,,,,,6,3.4,1,,,,,,-0.177083333,-0.40234375,1,0,0,3.3999,Pegmatite_rect,11,0,11,0,1,
60e36d56350e661cf50f2c7e,SCN,2024-06-20_10h31.09.539,LearnStrategy,2023.2.3,Win32,60.24096386,7,2,13,,,,,,,,3,09,,,,,,,,,,,3,2.053,1,,,,,,0.052083333,-0.259114583,1,0,0,2.0529,Diorite_rect,12,0,12,0,1,
60e36d56350e661cf50f2c7e,SCN,2024-06-20_10h31.09.539,LearnStrategy,2023.2.3,Win32,60.24096386,7,2,14,,,,,,,,4,14,,,,,,,,,,,4,1.764,1,,,,,,0.329427083,-0.255208333,1,0,0,1.7636,Gabbro_rect,13,0,13,0,1,
60e36d56350e661cf50f2c7e,SCN,2024-06-20_10h31.09.539,LearnStrategy,2023.2.3,Win32,60.24096386,7,2,15,,,,,,,,3,12,,,,,,,,,,,3,1.557,1,,,,,,0.059895833,-0.243489583,1,0,0,1.5572,Diorite_rect,14,0,14,0,1,
60e36d56350e661cf50f2c7e,SCN,2024-06-20_10h31.09.539,LearnStrategy,2023.2.3,Win32,60.24096386,7,2,16,,,,,,,,1,07,,,,,,,,,,,3,0.687,0,,,,,,0.092447917,-0.252604167,1,0,0,0.687,Diorite_rect,15,0,15,0,1,
60e36d56350e661cf50f2c7e,SCN,2024-06-20_10h31.09.539,LearnStrategy,2023.2.3,Win32,60.24096386,8,1,1,0.380208333,-0.274739583,1,0,0,1.6853,Gabbro_15,4,15,2,7,1.685,0.106770833,-0.252604167,1,0,0,2.1432,Diorite_rect,3,2.143,0,0,0,0,0,1,,,,,,,,,,,,,
60e36d56350e661cf50f2c7e,SCN,2024-06-20_10h31.09.539,LearnStrategy,2023.2.3,Win32,60.24096386,8,1,2,0.57421875,-0.23828125,1,0,0,0.631,Andesite_10,1,10,2,8,0.631,-0.356770833,-0.25390625,1,0,0,3.2333,Andesite_rect,1,3.233,1,1,0,1,0,1,,,,,,,,,,,,,
60e36d56350e661cf50f2c7e,SCN,2024-06-20_10h31.09.539,LearnStrategy,2023.2.3,Win32,60.24096386,8,1,3,0.223958333,-0.428385417,1,0,0,1.6299,Gabbro_01,4,01,1,6,1.63,0.333333333,-0.264322917,1,0,0,2.2853,Gabbro_rect,4,2.285,1,2,0,2,0,1,,,,,,,,,,,,,
60e36d56350e661cf50f2c7e,SCN,2024-06-20_10h31.09.539,LearnStrategy,2023.2.3,Win32,60.24096386,8,1,4,0.0625,-0.42578125,1,0,0,0.5969,Gabbro_03,4,03,1,5,0.597,0.184895833,-0.244791667,1,0,0,0.9414,Diorite_rect,3,0.941,0,3,0,3,0,1,,,,,,,,,,,,,
60e36d56350e661cf50f2c7e,SCN,2024-06-20_10h31.09.539,LearnStrategy,2023.2.3,Win32,60.24096386,8,1,5,-0.06640625,-0.420572917,1,0,0,3.93,Basalt_11,2,11,1,4,3.93,0.350260417,-0.251302083,1,0,0,4.1272,Gabbro_rect,4,4.127,0,4,0,4,0,1,,,,,,,,,,,,,
60e36d56350e661cf50f2c7e,SCN,2024-06-20_10h31.09.539,LearnStrategy,2023.2.3,Win32,60.24096386,8,1,6,-0.34765625,-0.444010417,1,0,0,0.9635,Peridotite_14,7,14,1,2,0.963,0.05859375,-0.407552083,1,0,0,1.7279,Peridotite_rect,7,1.728,1,5,0,5,0,1,,,,,,,,,,,,,
60e36d56350e661cf50f2c7e,SCN,2024-06-20_10h31.09.539,LearnStrategy,2023.2.3,Win32,60.24096386,8,1,7,-0.546875,-0.40625,1,0,0,1.0974,Andesite_09,1,09,1,1,1.097,-0.368489583,-0.270833333,1,0,0,1.1249,Andesite_rect,1,1.125,1,6,0,6,0,1,,,,,,,,,,,,,
60e36d56350e661cf50f2c7e,SCN,2024-06-20_10h31.09.539,LearnStrategy,2023.2.3,Win32,60.24096386,8,1,8,-0.59375,-0.119791667,1,0,0,0.6525,Obsidian_14,5,14,3,1,0.653,-0.399739583,-0.395833333,1,0,0,1.5581,Obsidian_rect,5,1.558,1,7,0,7,0,1,,,,,,,,,,,,,
60e36d56350e661cf50f2c7e,SCN,2024-06-20_10h31.09.539,LearnStrategy,2023.2.3,Win32,60.24096386,8,1,9,-0.536458333,0.076822917,1,0,0,0.6645,Pumice_09,8,09,4,1,0.665,0.322916667,-0.393229167,1,0,0,1.2765,Pumice_rect,8,1.277,1,8,0,8,0,1,,,,,,,,,,,,,
60e36d56350e661cf50f2c7e,SCN,2024-06-20_10h31.09.539,LearnStrategy,2023.2.3,Win32,60.24096386,8,1,10,0.390625,-0.25390625,1,0,0,0.7474,Gabbro_15,4,15,2,7,0.747,0.399739583,-0.260416667,1,0,0,11.0664,Gabbro_rect,4,11.066,1,9,0,9,0,1,,,,,,,,,,,,,
60e36d56350e661cf50f2c7e,SCN,2024-06-20_10h31.09.539,LearnStrategy,2023.2.3,Win32,60.24096386,8,1,11,0.091145833,0.217447917,1,0,0,0.9968,Pegmatite_08,6,08,5,5,0.997,0.055989583,-0.25,1,0,0,1.7307,Diorite_rect,3,1.731,0,10,0,10,0,1,,,,,,,,,,,,,
60e36d56350e661cf50f2c7e,SCN,2024-06-20_10h31.09.539,LearnStrategy,2023.2.3,Win32,60.24096386,8,1,12,0.251302083,0.235677083,1,0,0,1.8648,Pegmatite_06,6,06,5,6,1.865,-0.087239583,-0.420572917,1,0,0,0.6084,Pegmatite_rect,6,0.608,1,11,0,11,0,1,,,,,,,,,,,,,
60e36d56350e661cf50f2c7e,SCN,2024-06-20_10h31.09.539,LearnStrategy,2023.2.3,Win32,60.24096386,8,1,13,-0.209635417,0.21484375,1,0,0,0.4813,Peridotite_08,7,08,5,3,0.481,0.1015625,-0.40625,1,0,0,1.1993,Peridotite_rect,7,1.199,1,12,0,12,0,1,,,,,,,,,,,,,
60e36d56350e661cf50f2c7e,SCN,2024-06-20_10h31.09.539,LearnStrategy,2023.2.3,Win32,60.24096386,8,1,14,-0.20703125,0.087239583,1,0,0,0.4481,Pumice_15,8,15,4,3,0.448,0.325520833,-0.3984375,1,0,0,1.0546,Pumice_rect,8,1.055,1,13,0,13,0,1,,,,,,,,,,,,,
60e36d56350e661cf50f2c7e,SCN,2024-06-20_10h31.09.539,LearnStrategy,2023.2.3,Win32,60.24096386,8,1,15,-0.029947917,0.092447917,1,0,0,0.6358,Andesite_04,1,04,4,4,0.636,-0.352864583,-0.268229167,1,0,0,1.0585,Andesite_rect,1,1.058,1,14,0,14,0,1,,,,,,,,,,,,,
60e36d56350e661cf50f2c7e,SCN,2024-06-20_10h31.09.539,LearnStrategy,2023.2.3,Win32,60.24096386,8,1,16,0.506510417,0.247395833,1,0,0,0.9467,Basalt_04,2,04,5,8,0.947,-0.1484375,-0.259114583,1,0,0,0.763,Basalt_rect,2,0.763,1,15,0,15,0,1,,,,,,,,,,,,,
60e36d56350e661cf50f2c7e,SCN,2024-06-20_10h31.09.539,LearnStrategy,2023.2.3,Win32,60.24096386,8,2,1,,,,,,,,8,16,,,,,,,,,,,8,1.631,1,,,,,,0.364583333,-0.395833333,1,0,0,1.6312,Pumice_rect,0,0,0,0,1,
60e36d56350e661cf50f2c7e,SCN,2024-06-20_10h31.09.539,LearnStrategy,2023.2.3,Win32,60.24096386,8,2,2,,,,,,,,7,06,,,,,,,,,,,7,8.545,1,,,,,,0.071614583,-0.391927083,1,0,0,8.5447,Peridotite_rect,1,0,1,0,1,
60e36d56350e661cf50f2c7e,SCN,2024-06-20_10h31.09.539,LearnStrategy,2023.2.3,Win32,60.24096386,8,2,3,,,,,,,,6,11,,,,,,,,,,,6,0.887,1,,,,,,-0.08984375,-0.391927083,1,0,0,0.8866,Pegmatite_rect,2,0,2,0,1,
60e36d56350e661cf50f2c7e,SCN,2024-06-20_10h31.09.539,LearnStrategy,2023.2.3,Win32,60.24096386,8,2,4,,,,,,,,1,16,,,,,,,,,,,4,10.941,0,,,,,,0.407552083,-0.25,1,0,0,10.9414,Gabbro_rect,3,0,3,0,1,
60e36d56350e661cf50f2c7e,SCN,2024-06-20_10h31.09.539,LearnStrategy,2023.2.3,Win32,60.24096386,8,2,5,,,,,,,,2,01,,,,,,,,,,,2,0.762,1,,,,,,-0.083333333,-0.251302083,1,0,0,0.7617,Basalt_rect,4,0,4,0,1,
60e36d56350e661cf50f2c7e,SCN,2024-06-20_10h31.09.539,LearnStrategy,2023.2.3,Win32,60.24096386,8,2,6,,,,,,,,4,13,,,,,,,,,,,4,3.328,1,,,,,,0.356770833,-0.25390625,1,0,0,3.3282,Gabbro_rect,5,0,5,0,1,
60e36d56350e661cf50f2c7e,SCN,2024-06-20_10h31.09.539,LearnStrategy,2023.2.3,Win32,60.24096386,8,2,7,,,,,,,,4,10,,,,,,,,,,,4,0.886,1,,,,,,0.368489583,-0.264322917,1,0,0,0.8861,Gabbro_rect,6,0,6,0,1,
60e36d56350e661cf50f2c7e,SCN,2024-06-20_10h31.09.539,LearnStrategy,2023.2.3,Win32,60.24096386,8,2,8,,,,,,,,5,06,,,,,,,,,,,5,0.838,1,,,,,,-0.385416667,-0.395833333,1,0,0,0.838,Obsidian_rect,7,0,7,0,1,
60e36d56350e661cf50f2c7e,SCN,2024-06-20_10h31.09.539,LearnStrategy,2023.2.3,Win32,60.24096386,8,2,9,,,,,,,,6,16,,,,,,,,,,,6,3.82,1,,,,,,-0.13671875,-0.40234375,1,0,0,3.8198,Pegmatite_rect,8,0,8,0,1,
60e36d56350e661cf50f2c7e,SCN,2024-06-20_10h31.09.539,LearnStrategy,2023.2.3,Win32,60.24096386,8,2,10,,,,,,,,3,02,,,,,,,,,,,3,1.107,1,,,,,,0.138020833,-0.255208333,1,0,0,1.1071,Diorite_rect,9,0,9,0,1,
60e36d56350e661cf50f2c7e,SCN,2024-06-20_10h31.09.539,LearnStrategy,2023.2.3,Win32,60.24096386,8,2,11,,,,,,,,8,14,,,,,,,,,,,8,1.006,1,,,,,,0.391927083,-0.390625,1,0,0,1.0058,Pumice_rect,10,0,10,0,1,
60e36d56350e661cf50f2c7e,SCN,2024-06-20_10h31.09.539,LearnStrategy,2023.2.3,Win32,60.24096386,8,2,12,,,,,,,,3,16,,,,,,,,,,,3,1.361,1,,,,,,0.046875,-0.234375,1,0,0,1.3612,Diorite_rect,11,0,11,0,1,
60e36d56350e661cf50f2c7e,SCN,2024-06-20_10h31.09.539,LearnStrategy,2023.2.3,Win32,60.24096386,8,2,13,,,,,,,,5,09,,,,,,,,,,,5,0.96,1,,,,,,-0.390625,-0.40234375,1,0,0,0.9598,Obsidian_rect,12,0,12,0,1,
60e36d56350e661cf50f2c7e,SCN,2024-06-20_10h31.09.539,LearnStrategy,2023.2.3,Win32,60.24096386,8,2,14,,,,,,,,1,05,,,,,,,,,,,1,6.679,1,,,,,,-0.352864583,-0.255208333,1,0,0,6.6791,Andesite_rect,13,0,13,0,1,
60e36d56350e661cf50f2c7e,SCN,2024-06-20_10h31.09.539,LearnStrategy,2023.2.3,Win32,60.24096386,8,2,15,,,,,,,,2,10,,,,,,,,,,,5,1.775,0,,,,,,-0.350260417,-0.411458333,1,0,0,1.7755,Obsidian_rect,14,0,14,0,1,
60e36d56350e661cf50f2c7e,SCN,2024-06-20_10h31.09.539,LearnStrategy,2023.2.3,Win32,60.24096386,8,2,16,,,,,,,,7,13,,,,,,,,,,,6,3.72,0,,,,,,-0.158854167,-0.411458333,1,0,0,3.7201,Pegmatite_rect,15,0,15,0,1,
60e36d56350e661cf50f2c7e,SCN,2024-06-20_10h31.09.539,LearnStrategy,2023.2.3,Win32,60.24096386,9,1,1,-0.223958333,-0.108072917,1,0,0,0.6857,Pegmatite_07,6,07,3,3,0.686,-0.057291667,-0.41015625,1,0,0,2.6138,Pegmatite_rect,6,2.614,1,0,0,0,0,1,,,,,,,,,,,,,
60e36d56350e661cf50f2c7e,SCN,2024-06-20_10h31.09.539,LearnStrategy,2023.2.3,Win32,60.24096386,9,1,2,0.41796875,0.07421875,1,0,0,1.0138,Peridotite_15,7,15,4,7,1.014,0.16015625,-0.399739583,1,0,0,0.8151,Peridotite_rect,7,0.815,1,1,0,1,0,1,,,,,,,,,,,,,
60e36d56350e661cf50f2c7e,SCN,2024-06-20_10h31.09.539,LearnStrategy,2023.2.3,Win32,60.24096386,9,1,3,0.109375,-0.09765625,1,0,0,0.5157,Andesite_11,1,11,3,5,0.516,-0.342447917,-0.25,1,0,0,1.3989,Andesite_rect,1,1.399,1,2,0,2,0,1,,,,,,,,,,,,,
60e36d56350e661cf50f2c7e,SCN,2024-06-20_10h31.09.539,LearnStrategy,2023.2.3,Win32,60.24096386,9,1,4,0.546875,-0.109375,1,0,0,0.6798,Pumice_08,8,08,3,8,0.68,0.397135417,-0.40234375,1,0,0,0.785,Pumice_rect,8,0.785,1,3,0,3,0,1,,,,,,,,,,,,,
60e36d56350e661cf50f2c7e,SCN,2024-06-20_10h31.09.539,LearnStrategy,2023.2.3,Win32,60.24096386,9,1,5,0.240885417,-0.2890625,1,0,0,0.5638,Peridotite_12,7,12,2,6,0.564,-0.166666667,-0.404947917,1,0,0,1.1307,Pegmatite_rect,6,1.131,0,4,0,4,0,1,,,,,,,,,,,,,
60e36d56350e661cf50f2c7e,SCN,2024-06-20_10h31.09.539,LearnStrategy,2023.2.3,Win32,60.24096386,9,1,6,-0.110677083,-0.259114583,1,0,0,2.0151,Peridotite_16,7,16,2,4,2.015,-0.05078125,-0.415364583,1,0,0,1.9257,Pegmatite_rect,6,1.926,0,5,0,5,0,1,,,,,,,,,,,,,
60e36d56350e661cf50f2c7e,SCN,2024-06-20_10h31.09.539,LearnStrategy,2023.2.3,Win32,60.24096386,9,1,7,-0.233072917,-0.123697917,1,0,0,0.8801,Pegmatite_07,6,07,3,3,0.88,0.095052083,-0.37890625,1,0,0,0.5766,Peridotite_rect,7,0.577,0,6,0,6,0,1,,,,,,,,,,,,,
60e36d56350e661cf50f2c7e,SCN,2024-06-20_10h31.09.539,LearnStrategy,2023.2.3,Win32,60.24096386,9,1,8,-0.212239583,-0.125,1,0,0,0.7641,Pegmatite_07,6,07,3,3,0.764,-0.165364583,-0.40234375,1,0,0,0.6482,Pegmatite_rect,6,0.648,1,7,0,7,0,1,,,,,,,,,,,,,
60e36d56350e661cf50f2c7e,SCN,2024-06-20_10h31.09.539,LearnStrategy,2023.2.3,Win32,60.24096386,9,1,9,-0.110677083,-0.282552083,1,0,0,0.4481,Peridotite_16,7,16,2,4,0.448,0.059895833,-0.404947917,1,0,0,0.6255,Peridotite_rect,7,0.625,1,8,0,8,0,1,,,,,,,,,,,,,
60e36d56350e661cf50f2c7e,SCN,2024-06-20_10h31.09.539,LearnStrategy,2023.2.3,Win32,60.24096386,9,1,10,0.404947917,0.227864583,1,0,0,0.8794,Pegmatite_03,6,03,5,7,0.879,0.166666667,-0.411458333,1,0,0,0.5928,Peridotite_rect,7,0.593,0,9,0,9,0,1,,,,,,,,,,,,,
60e36d56350e661cf50f2c7e,SCN,2024-06-20_10h31.09.539,LearnStrategy,2023.2.3,Win32,60.24096386,9,1,11,0.259114583,0.236979167,1,0,0,0.8966,Pegmatite_06,6,06,5,6,0.897,-0.061197917,-0.40234375,1,0,0,1.0562,Pegmatite_rect,6,1.056,1,10,0,10,0,1,,,,,,,,,,,,,
60e36d56350e661cf50f2c7e,SCN,2024-06-20_10h31.09.539,LearnStrategy,2023.2.3,Win32,60.24096386,9,1,12,0.075520833,0.272135417,1,0,0,1.3182,Pegmatite_08,6,08,5,5,1.318,-0.12109375,-0.401041667,1,0,0,0.7949,Pegmatite_rect,6,0.795,1,11,0,11,0,1,,,,,,,,,,,,,
60e36d56350e661cf50f2c7e,SCN,2024-06-20_10h31.09.539,LearnStrategy,2023.2.3,Win32,60.24096386,9,1,13,-0.22265625,0.216145833,1,0,0,0.5643,Peridotite_08,7,08,5,3,0.564,-0.065104167,-0.407552083,1,0,0,3.9525,Pegmatite_rect,6,3.953,0,12,0,12,0,1,,,,,,,,,,,,,
60e36d56350e661cf50f2c7e,SCN,2024-06-20_10h31.09.539,LearnStrategy,2023.2.3,Win32,60.24096386,9,1,14,-0.197916667,0.2109375,1,0,0,0.7802,Peridotite_08,7,08,5,3,0.78,0.131510417,-0.416666667,1,0,0,0.766,Peridotite_rect,7,0.766,1,13,0,13,0,1,,,,,,,,,,,,,
60e36d56350e661cf50f2c7e,SCN,2024-06-20_10h31.09.539,LearnStrategy,2023.2.3,Win32,60.24096386,9,1,15,-0.415364583,0.233072917,1,0,0,0.7301,Gabbro_16,4,16,5,2,0.73,-0.15625,-0.24609375,1,0,0,1.6808,Basalt_rect,2,1.681,0,14,0,14,0,1,,,,,,,,,,,,,
60e36d56350e661cf50f2c7e,SCN,2024-06-20_10h31.09.539,LearnStrategy,2023.2.3,Win32,60.24096386,9,1,16,-0.55859375,0.23828125,1,0,0,0.6368,Gabbro_08,4,08,5,1,0.637,0.33984375,-0.264322917,1,0,0,1.1358,Gabbro_rect,4,1.136,1,15,0,15,0,1,,,,,,,,,,,,,
60e36d56350e661cf50f2c7e,SCN,2024-06-20_10h31.09.539,LearnStrategy,2023.2.3,Win32,60.24096386,9,2,1,,,,,,,,1,06,,,,,,,,,,,1,5.344,1,,,,,,-0.365885417,-0.244791667,1,0,0,5.3443,Andesite_rect,0,0,0,0,1,
60e36d56350e661cf50f2c7e,SCN,2024-06-20_10h31.09.539,LearnStrategy,2023.2.3,Win32,60.24096386,9,2,2,,,,,,,,5,12,,,,,,,,,,,5,0.927,1,,,,,,-0.337239583,-0.403645833,1,0,0,0.927,Obsidian_rect,1,0,1,0,1,
60e36d56350e661cf50f2c7e,SCN,2024-06-20_10h31.09.539,LearnStrategy,2023.2.3,Win32,60.24096386,9,2,3,,,,,,,,6,05,,,,,,,,,,,2,6.46,0,,,,,,-0.157552083,-0.25,1,0,0,6.4601,Basalt_rect,2,0,2,0,1,
60e36d56350e661cf50f2c7e,SCN,2024-06-20_10h31.09.539,LearnStrategy,2023.2.3,Win32,60.24096386,9,2,4,,,,,,,,8,13,,,,,,,,,,,8,1.323,1,,,,,,0.361979167,-0.403645833,1,0,0,1.3228,Pumice_rect,3,0,3,0,1,
60e36d56350e661cf50f2c7e,SCN,2024-06-20_10h31.09.539,LearnStrategy,2023.2.3,Win32,60.24096386,9,2,5,,,,,,,,4,09,,,,,,,,,,,4,1.121,1,,,,,,0.388020833,-0.231770833,1,0,0,1.121,Gabbro_rect,4,0,4,0,1,
60e36d56350e661cf50f2c7e,SCN,2024-06-20_10h31.09.539,LearnStrategy,2023.2.3,Win32,60.24096386,9,2,6,,,,,,,,6,12,,,,,,,,,,,1,1.702,0,,,,,,-0.34765625,-0.268229167,1,0,0,1.7017,Andesite_rect,5,0,5,0,1,
60e36d56350e661cf50f2c7e,SCN,2024-06-20_10h31.09.539,LearnStrategy,2023.2.3,Win32,60.24096386,9,2,7,,,,,,,,7,05,,,,,,,,,,,7,3.27,1,,,,,,0.098958333,-0.390625,1,0,0,3.2699,Peridotite_rect,6,0,6,0,1,
60e36d56350e661cf50f2c7e,SCN,2024-06-20_10h31.09.539,LearnStrategy,2023.2.3,Win32,60.24096386,9,2,8,,,,,,,,3,10,,,,,,,,,,,3,1.725,1,,,,,,0.09375,-0.259114583,1,0,0,1.7249,Diorite_rect,7,0,7,0,1,
60e36d56350e661cf50f2c7e,SCN,2024-06-20_10h31.09.539,LearnStrategy,2023.2.3,Win32,60.24096386,9,2,9,,,,,,,,4,12,,,,,,,,,,,1,7.331,0,,,,,,-0.375,-0.265625,1,0,0,7.3309,Andesite_rect,8,0,8,0,1,
60e36d56350e661cf50f2c7e,SCN,2024-06-20_10h31.09.539,LearnStrategy,2023.2.3,Win32,60.24096386,9,2,10,,,,,,,,8,05,,,,,,,,,,,8,2.061,1,,,,,,0.458333333,-0.412760417,1,0,0,2.0612,Pumice_rect,9,0,9,0,1,
60e36d56350e661cf50f2c7e,SCN,2024-06-20_10h31.09.539,LearnStrategy,2023.2.3,Win32,60.24096386,9,2,11,,,,,,,,2,06,,,,,,,,,,,2,1.072,1,,,,,,-0.158854167,-0.243489583,1,0,0,1.0722,Basalt_rect,10,0,10,0,1,
60e36d56350e661cf50f2c7e,SCN,2024-06-20_10h31.09.539,LearnStrategy,2023.2.3,Win32,60.24096386,9,2,12,,,,,,,,5,07,,,,,,,,,,,5,0.898,1,,,,,,-0.376302083,-0.404947917,1,0,0,0.8979,Obsidian_rect,11,0,11,0,1,
60e36d56350e661cf50f2c7e,SCN,2024-06-20_10h31.09.539,LearnStrategy,2023.2.3,Win32,60.24096386,9,2,13,,,,,,,,1,02,,,,,,,,,,,1,2.918,1,,,,,,-0.34375,-0.264322917,1,0,0,2.9183,Andesite_rect,12,0,12,0,1,
60e36d56350e661cf50f2c7e,SCN,2024-06-20_10h31.09.539,LearnStrategy,2023.2.3,Win32,60.24096386,9,2,14,,,,,,,,2,14,,,,,,,,,,,4,0.894,0,,,,,,0.37109375,-0.26171875,1,0,0,0.8938,Gabbro_rect,13,0,13,0,1,
60e36d56350e661cf50f2c7e,SCN,2024-06-20_10h31.09.539,LearnStrategy,2023.2.3,Win32,60.24096386,9,2,15,,,,,,,,3,14,,,,,,,,,,,3,2.021,1,,,,,,0.118489583,-0.255208333,1,0,0,2.0207,Diorite_rect,14,0,14,0,1,
60e36d56350e661cf50f2c7e,SCN,2024-06-20_10h31.09.539,LearnStrategy,2023.2.3,Win32,60.24096386,9,2,16,,,,,,,,7,10,,,,,,,,,,,7,4.3,1,,,,,,0.088541667,-0.395833333,1,0,0,4.2996,Peridotite_rect,15,0,15,0,1,
60e36d56350e661cf50f2c7e,SCN,2024-06-20_10h31.09.539,LearnStrategy,2023.2.3,Win32,60.24096386,,,,,,,,,,,,,,,,,,,,,,,,,,,,,,,,,,,,,,,,,,,1
60e36d56350e661cf50f2c7e,SCN,2024-06-20_10h31.09.539,LearnStrategy,2023.2.3,Win32,60.24096386,,,,,,,,,,,,,,,,,,,,,,,,,,,,,,,,,,,,,,,,,,,
60e36d56350e661cf50f2c7e,SCN,2024-06-20_10h31.09.539,LearnStrategy,2023.2.3,Win32,60.24096386,,,,,,,,,,,1,09,1,1,,,,,,,,,,,,,,,,,,,,,,,,,,,,,
60e36d56350e661cf50f2c7e,SCN,2024-06-20_10h31.09.539,LearnStrategy,2023.2.3,Win32,60.24096386,,,,,,,,,,,7,14,1,2,,,,,,,,,,,,,,,,,,,,,,,,,,,,,
60e36d56350e661cf50f2c7e,SCN,2024-06-20_10h31.09.539,LearnStrategy,2023.2.3,Win32,60.24096386,,,,,,,,,,,5,04,1,3,,,,,,,,,,,,,,,,,,,,,,,,,,,,,
60e36d56350e661cf50f2c7e,SCN,2024-06-20_10h31.09.539,LearnStrategy,2023.2.3,Win32,60.24096386,,,,,,,,,,,2,11,1,4,,,,,,,,,,,,,,,,,,,,,,,,,,,,,
60e36d56350e661cf50f2c7e,SCN,2024-06-20_10h31.09.539,LearnStrategy,2023.2.3,Win32,60.24096386,,,,,,,,,,,4,03,1,5,,,,,,,,,,,,,,,,,,,,,,,,,,,,,
60e36d56350e661cf50f2c7e,SCN,2024-06-20_10h31.09.539,LearnStrategy,2023.2.3,Win32,60.24096386,,,,,,,,,,,4,01,1,6,,,,,,,,,,,,,,,,,,,,,,,,,,,,,
60e36d56350e661cf50f2c7e,SCN,2024-06-20_10h31.09.539,LearnStrategy,2023.2.3,Win32,60.24096386,,,,,,,,,,,5,02,1,7,,,,,,,,,,,,,,,,,,,,,,,,,,,,,
60e36d56350e661cf50f2c7e,SCN,2024-06-20_10h31.09.539,LearnStrategy,2023.2.3,Win32,60.24096386,,,,,,,,,,,2,16,1,8,,,,,,,,,,,,,,,,,,,,,,,,,,,,,
60e36d56350e661cf50f2c7e,SCN,2024-06-20_10h31.09.539,LearnStrategy,2023.2.3,Win32,60.24096386,,,,,,,,,,,5,11,2,1,,,,,,,,,,,,,,,,,,,,,,,,,,,,,
60e36d56350e661cf50f2c7e,SCN,2024-06-20_10h31.09.539,LearnStrategy,2023.2.3,Win32,60.24096386,,,,,,,,,,,8,04,2,2,,,,,,,,,,,,,,,,,,,,,,,,,,,,,
60e36d56350e661cf50f2c7e,SCN,2024-06-20_10h31.09.539,LearnStrategy,2023.2.3,Win32,60.24096386,,,,,,,,,,,1,03,2,3,,,,,,,,,,,,,,,,,,,,,,,,,,,,,
60e36d56350e661cf50f2c7e,SCN,2024-06-20_10h31.09.539,LearnStrategy,2023.2.3,Win32,60.24096386,,,,,,,,,,,7,16,2,4,,,,,,,,,,,,,,,,,,,,,,,,,,,,,
60e36d56350e661cf50f2c7e,SCN,2024-06-20_10h31.09.539,LearnStrategy,2023.2.3,Win32,60.24096386,,,,,,,,,,,6,13,2,5,,,,,,,,,,,,,,,,,,,,,,,,,,,,,
60e36d56350e661cf50f2c7e,SCN,2024-06-20_10h31.09.539,LearnStrategy,2023.2.3,Win32,60.24096386,,,,,,,,,,,7,12,2,6,,,,,,,,,,,,,,,,,,,,,,,,,,,,,
60e36d56350e661cf50f2c7e,SCN,2024-06-20_10h31.09.539,LearnStrategy,2023.2.3,Win32,60.24096386,,,,,,,,,,,4,15,2,7,,,,,,,,,,,,,,,,,,,,,,,,,,,,,
60e36d56350e661cf50f2c7e,SCN,2024-06-20_10h31.09.539,LearnStrategy,2023.2.3,Win32,60.24096386,,,,,,,,,,,1,10,2,8,,,,,,,,,,,,,,,,,,,,,,,,,,,,,
60e36d56350e661cf50f2c7e,SCN,2024-06-20_10h31.09.539,LearnStrategy,2023.2.3,Win32,60.24096386,,,,,,,,,,,5,14,3,1,,,,,,,,,,,,,,,,,,,,,,,,,,,,,
60e36d56350e661cf50f2c7e,SCN,2024-06-20_10h31.09.539,LearnStrategy,2023.2.3,Win32,60.24096386,,,,,,,,,,,8,06,3,2,,,,,,,,,,,,,,,,,,,,,,,,,,,,,
60e36d56350e661cf50f2c7e,SCN,2024-06-20_10h31.09.539,LearnStrategy,2023.2.3,Win32,60.24096386,,,,,,,,,,,6,07,3,3,,,,,,,,,,,,,,,,,,,,,,,,,,,,,
60e36d56350e661cf50f2c7e,SCN,2024-06-20_10h31.09.539,LearnStrategy,2023.2.3,Win32,60.24096386,,,,,,,,,,,3,06,3,4,,,,,,,,,,,,,,,,,,,,,,,,,,,,,
60e36d56350e661cf50f2c7e,SCN,2024-06-20_10h31.09.539,LearnStrategy,2023.2.3,Win32,60.24096386,,,,,,,,,,,1,11,3,5,,,,,,,,,,,,,,,,,,,,,,,,,,,,,
60e36d56350e661cf50f2c7e,SCN,2024-06-20_10h31.09.539,LearnStrategy,2023.2.3,Win32,60.24096386,,,,,,,,,,,3,15,3,6,,,,,,,,,,,,,,,,,,,,,,,,,,,,,
60e36d56350e661cf50f2c7e,SCN,2024-06-20_10h31.09.539,LearnStrategy,2023.2.3,Win32,60.24096386,,,,,,,,,,,3,11,3,7,,,,,,,,,,,,,,,,,,,,,,,,,,,,,
60e36d56350e661cf50f2c7e,SCN,2024-06-20_10h31.09.539,LearnStrategy,2023.2.3,Win32,60.24096386,,,,,,,,,,,8,08,3,8,,,,,,,,,,,,,,,,,,,,,,,,,,,,,
60e36d56350e661cf50f2c7e,SCN,2024-06-20_10h31.09.539,LearnStrategy,2023.2.3,Win32,60.24096386,,,,,,,,,,,8,09,4,1,,,,,,,,,,,,,,,,,,,,,,,,,,,,,
60e36d56350e661cf50f2c7e,SCN,2024-06-20_10h31.09.539,LearnStrategy,2023.2.3,Win32,60.24096386,,,,,,,,,,,3,08,4,2,,,,,,,,,,,,,,,,,,,,,,,,,,,,,
60e36d56350e661cf50f2c7e,SCN,2024-06-20_10h31.09.539,LearnStrategy,2023.2.3,Win32,60.24096386,,,,,,,,,,,8,15,4,3,,,,,,,,,,,,,,,,,,,,,,,,,,,,,
60e36d56350e661cf50f2c7e,SCN,2024-06-20_10h31.09.539,LearnStrategy,2023.2.3,Win32,60.24096386,,,,,,,,,,,1,04,4,4,,,,,,,,,,,,,,,,,,,,,,,,,,,,,
60e36d56350e661cf50f2c7e,SCN,2024-06-20_10h31.09.539,LearnStrategy,2023.2.3,Win32,60.24096386,,,,,,,,,,,1,14,4,5,,,,,,,,,,,,,,,,,,,,,,,,,,,,,
60e36d56350e661cf50f2c7e,SCN,2024-06-20_10h31.09.539,LearnStrategy,2023.2.3,Win32,60.24096386,,,,,,,,,,,3,13,4,6,,,,,,,,,,,,,,,,,,,,,,,,,,,,,
60e36d56350e661cf50f2c7e,SCN,2024-06-20_10h31.09.539,LearnStrategy,2023.2.3,Win32,60.24096386,,,,,,,,,,,7,15,4,7,,,,,,,,,,,,,,,,,,,,,,,,,,,,,
60e36d56350e661cf50f2c7e,SCN,2024-06-20_10h31.09.539,LearnStrategy,2023.2.3,Win32,60.24096386,,,,,,,,,,,7,04,4,8,,,,,,,,,,,,,,,,,,,,,,,,,,,,,
60e36d56350e661cf50f2c7e,SCN,2024-06-20_10h31.09.539,LearnStrategy,2023.2.3,Win32,60.24096386,,,,,,,,,,,4,08,5,1,,,,,,,,,,,,,,,,,,,,,,,,,,,,,
60e36d56350e661cf50f2c7e,SCN,2024-06-20_10h31.09.539,LearnStrategy,2023.2.3,Win32,60.24096386,,,,,,,,,,,4,16,5,2,,,,,,,,,,,,,,,,,,,,,,,,,,,,,
60e36d56350e661cf50f2c7e,SCN,2024-06-20_10h31.09.539,LearnStrategy,2023.2.3,Win32,60.24096386,,,,,,,,,,,7,08,5,3,,,,,,,,,,,,,,,,,,,,,,,,,,,,,
60e36d56350e661cf50f2c7e,SCN,2024-06-20_10h31.09.539,LearnStrategy,2023.2.3,Win32,60.24096386,,,,,,,,,,,4,11,5,4,,,,,,,,,,,,,,,,,,,,,,,,,,,,,
60e36d56350e661cf50f2c7e,SCN,2024-06-20_10h31.09.539,LearnStrategy,2023.2.3,Win32,60.24096386,,,,,,,,,,,6,08,5,5,,,,,,,,,,,,,,,,,,,,,,,,,,,,,
60e36d56350e661cf50f2c7e,SCN,2024-06-20_10h31.09.539,LearnStrategy,2023.2.3,Win32,60.24096386,,,,,,,,,,,6,06,5,6,,,,,,,,,,,,,,,,,,,,,,,,,,,,,
60e36d56350e661cf50f2c7e,SCN,2024-06-20_10h31.09.539,LearnStrategy,2023.2.3,Win32,60.24096386,,,,,,,,,,,6,03,5,7,,,,,,,,,,,,,,,,,,,,,,,,,,,,,
60e36d56350e661cf50f2c7e,SCN,2024-06-20_10h31.09.539,LearnStrategy,2023.2.3,Win32,60.24096386,,,,,,,,,,,2,04,5,8,,,,,,,,,,,,,,,,,,,,,,,,,,,,,
60e36d56350e661cf50f2c7e,SCN,2024-06-20_10h31.09.539,LearnStrategy,2023.2.3,Win32,60.24096386,,,,,,,,,,,5,16,6,1,,,,,,,,,,,,,,,,,,,,,,,,,,,,,
60e36d56350e661cf50f2c7e,SCN,2024-06-20_10h31.09.539,LearnStrategy,2023.2.3,Win32,60.24096386,,,,,,,,,,,8,02,6,2,,,,,,,,,,,,,,,,,,,,,,,,,,,,,
60e36d56350e661cf50f2c7e,SCN,2024-06-20_10h31.09.539,LearnStrategy,2023.2.3,Win32,60.24096386,,,,,,,,,,,2,02,6,3,,,,,,,,,,,,,,,,,,,,,,,,,,,,,
60e36d56350e661cf50f2c7e,SCN,2024-06-20_10h31.09.539,LearnStrategy,2023.2.3,Win32,60.24096386,,,,,,,,,,,2,09,6,4,,,,,,,,,,,,,,,,,,,,,,,,,,,,,
60e36d56350e661cf50f2c7e,SCN,2024-06-20_10h31.09.539,LearnStrategy,2023.2.3,Win32,60.24096386,,,,,,,,,,,2,05,6,5,,,,,,,,,,,,,,,,,,,,,,,,,,,,,
60e36d56350e661cf50f2c7e,SCN,2024-06-20_10h31.09.539,LearnStrategy,2023.2.3,Win32,60.24096386,,,,,,,,,,,3,07,6,6,,,,,,,,,,,,,,,,,,,,,,,,,,,,,
60e36d56350e661cf50f2c7e,SCN,2024-06-20_10h31.09.539,LearnStrategy,2023.2.3,Win32,60.24096386,,,,,,,,,,,6,09,6,7,,,,,,,,,,,,,,,,,,,,,,,,,,,,,
60e36d56350e661cf50f2c7e,SCN,2024-06-20_10h31.09.539,LearnStrategy,2023.2.3,Win32,60.24096386,,,,,,,,,,,5,05,6,8,,,,,,,,,,,,,,,,,,,,,,,,,,,,,