participant,condition,date,expName,psychopyVersion,OS,frameRate,block,phase,trial,learn_mouse.x,learn_mouse.y,learn_mouse.leftButton,learn_mouse.midButton,learn_mouse.rightButton,learn_mouse.time,learn_mouse.clicked_name,cat,token,row,col,t_select,cat_rec,token_rec,cat_mouse_l.x,cat_mouse_l.y,cat_mouse_l.leftButton,cat_mouse_l.midButton,cat_mouse_l.rightButton,cat_mouse_l.time,cat_mouse_l.clicked_name,resp,t_resp,corr,train_trials.thisRepN,train_trials.thisTrialN,train_trials.thisN,train_trials.thisIndex,train_trials.ran,cat_mouse_t.x,cat_mouse_t.y,cat_mouse_t.leftButton,cat_mouse_t.midButton,cat_mouse_t.rightButton,cat_mouse_t.time,cat_mouse_t.clicked_name,test_trials.thisRepN,test_trials.thisTrialN,test_trials.thisN,test_trials.thisIndex,test_trials.ran,Bonus
60fe3a34f7f4d5e48ad56af2,SCR,2024-06-21_12h47.17.586,LearnStrategy,2023.2.3,Win32,59.88023952,,,,,,,,,,,,,,,,,,,,,,,,,,,,,,,,,,,,,,,,,,,,,
60fe3a34f7f4d5e48ad56af2,SCR,2024-06-21_12h47.17.586,LearnStrategy,2023.2.3,Win32,59.88023952,1,1,1,0.55078125,0.102864583,1,0,0,6.4681,Pegmatite_16,6,16,4,8,6.468,8,02,0.13671875,-0.234375,1,0,0,3.89,Diorite_rect,3,3.89,0,0,0,0,0,1,,,,,,,,,,,,,
60fe3a34f7f4d5e48ad56af2,SCR,2024-06-21_12h47.17.586,LearnStrategy,2023.2.3,Win32,59.88023952,1,1,2,0.0859375,0.239583333,1,0,0,8.9366,Pegmatite_11,6,11,5,5,8.937,1,10,0.131510417,-0.3984375,1,0,0,3.8811,Peridotite_rect,7,3.881,0,1,0,1,0,1,,,,,,,,,,,,,
60fe3a34f7f4d5e48ad56af2,SCR,2024-06-21_12h47.17.586,LearnStrategy,2023.2.3,Win32,59.88023952,1,1,3,-0.376302083,-0.236979167,1,0,0,6.1066,Pegmatite_08,6,08,2,2,6.107,8,15,-0.131510417,-0.3828125,1,0,0,3.9494,Pegmatite_rect,6,3.949,1,2,0,2,0,1,,,,,,,,,,,,,
60fe3a34f7f4d5e48ad56af2,SCR,2024-06-21_12h47.17.586,LearnStrategy,2023.2.3,Win32,59.88023952,1,1,4,0.247395833,0.40234375,1,0,0,5.2242,Pegmatite_07,6,07,6,6,5.224,3,13,-0.151041667,-0.4140625,1,0,0,1.0683,Pegmatite_rect,6,1.068,1,3,0,3,0,1,,,,,,,,,,,,,
60fe3a34f7f4d5e48ad56af2,SCR,2024-06-21_12h47.17.586,LearnStrategy,2023.2.3,Win32,59.88023952,1,1,5,0.572916667,0.416666667,1,0,0,6.5058,Pegmatite_09,6,09,6,8,6.506,5,12,-0.12109375,-0.399739583,1,0,0,1.0004,Pegmatite_rect,6,1,1,4,0,4,0,1,,,,,,,,,,,,,
60fe3a34f7f4d5e48ad56af2,SCR,2024-06-21_12h47.17.586,LearnStrategy,2023.2.3,Win32,59.88023952,1,1,6,-0.233072917,-0.09765625,1,0,0,8.8541,Peridotite_06,7,06,3,3,8.854,1,07,-0.078125,-0.411458333,1,0,0,1.0681,Pegmatite_rect,6,1.068,0,5,0,5,0,1,,,,,,,,,,,,,
60fe3a34f7f4d5e48ad56af2,SCR,2024-06-21_12h47.17.586,LearnStrategy,2023.2.3,Win32,59.88023952,1,1,7,0.096354167,0.411458333,1,0,0,6.5395,Obsidian_06,5,06,6,5,6.539,2,09,-0.174479167,-0.24609375,1,0,0,4.2145,Basalt_rect,2,4.214,0,6,0,6,0,1,,,,,,,,,,,,,
60fe3a34f7f4d5e48ad56af2,SCR,2024-06-21_12h47.17.586,LearnStrategy,2023.2.3,Win32,59.88023952,1,1,8,-0.07421875,0.40234375,1,0,0,1.3781,Obsidian_12,5,12,6,4,1.378,4,01,-0.375,-0.389322917,1,0,0,1.1764,Obsidian_rect,5,1.176,1,7,0,7,0,1,,,,,,,,,,,,,
60fe3a34f7f4d5e48ad56af2,SCR,2024-06-21_12h47.17.586,LearnStrategy,2023.2.3,Win32,59.88023952,1,1,9,-0.381510417,0.42578125,1,0,0,1.073,Obsidian_04,5,04,6,2,1.073,4,13,-0.3671875,-0.395833333,1,0,0,1.6222,Obsidian_rect,5,1.622,1,8,0,8,0,1,,,,,,,,,,,,,
60fe3a34f7f4d5e48ad56af2,SCR,2024-06-21_12h47.17.586,LearnStrategy,2023.2.3,Win32,59.88023952,1,1,10,-0.375,0.095052083,1,0,0,0.8787,Obsidian_09,5,09,4,2,0.879,7,06,-0.34375,-0.40625,1,0,0,1.1096,Obsidian_rect,5,1.11,1,9,0,9,0,1,,,,,,,,,,,,,
60fe3a34f7f4d5e48ad56af2,SCR,2024-06-21_12h47.17.586,LearnStrategy,2023.2.3,Win32,59.88023952,1,1,11,-0.3984375,-0.1015625,1,0,0,0.928,Obsidian_11,5,11,3,2,0.928,5,08,-0.352864583,-0.404947917,1,0,0,1.2592,Obsidian_rect,5,1.259,1,10,0,10,0,1,,,,,,,,,,,,,
60fe3a34f7f4d5e48ad56af2,SCR,2024-06-21_12h47.17.586,LearnStrategy,2023.2.3,Win32,59.88023952,1,1,12,0.55859375,-0.106770833,1,0,0,1.311,Obsidian_08,5,08,3,8,1.311,3,06,-0.34375,-0.397135417,1,0,0,1.1927,Obsidian_rect,5,1.193,1,11,0,11,0,1,,,,,,,,,,,,,
60fe3a34f7f4d5e48ad56af2,SCR,2024-06-21_12h47.17.586,LearnStrategy,2023.2.3,Win32,59.88023952,1,1,13,0.384114583,0.395833333,1,0,0,13.1833,Basalt_04,2,04,6,7,13.183,2,16,-0.34375,-0.408854167,1,0,0,1.0248,Obsidian_rect,5,1.025,0,12,0,12,0,1,,,,,,,,,,,,,
60fe3a34f7f4d5e48ad56af2,SCR,2024-06-21_12h47.17.586,LearnStrategy,2023.2.3,Win32,59.88023952,1,1,14,-0.54296875,0.408854167,1,0,0,3.709,Basalt_01,2,01,6,1,3.709,6,11,-0.138020833,-0.2578125,1,0,0,1.947,Basalt_rect,2,1.947,1,13,0,13,0,1,,,,,,,,,,,,,
60fe3a34f7f4d5e48ad56af2,SCR,2024-06-21_12h47.17.586,LearnStrategy,2023.2.3,Win32,59.88023952,1,1,15,0.0859375,0.0703125,1,0,0,1.7938,Basalt_09,2,09,4,5,1.794,6,12,-0.091145833,-0.243489583,1,0,0,1.3592,Basalt_rect,2,1.359,1,14,0,14,0,1,,,,,,,,,,,,,
60fe3a34f7f4d5e48ad56af2,SCR,2024-06-21_12h47.17.586,LearnStrategy,2023.2.3,Win32,59.88023952,1,1,16,-0.240885417,-0.432291667,1,0,0,4.1751,Basalt_05,2,05,1,3,4.175,7,15,-0.079427083,-0.24609375,1,0,0,1.4353,Basalt_rect,2,1.435,1,15,0,15,0,1,,,,,,,,,,,,,
60fe3a34f7f4d5e48ad56af2,SCR,2024-06-21_12h47.17.586,LearnStrategy,2023.2.3,Win32,59.88023952,1,2,1,,,,,,,,1,11,,,,,,,,,,,,,4,2.223,0,,,,,,0.39453125,-0.26953125,1,0,0,2.2227,Gabbro_rect,0,0,0,0,1,
60fe3a34f7f4d5e48ad56af2,SCR,2024-06-21_12h47.17.586,LearnStrategy,2023.2.3,Win32,59.88023952,1,2,2,,,,,,,,8,05,,,,,,,,,,,,,8,3.785,1,,,,,,0.39453125,-0.412760417,1,0,0,3.7853,Pumice_rect,1,0,1,0,1,
60fe3a34f7f4d5e48ad56af2,SCR,2024-06-21_12h47.17.586,LearnStrategy,2023.2.3,Win32,59.88023952,1,2,3,,,,,,,,7,13,,,,,,,,,,,,,7,2.554,1,,,,,,0.15625,-0.408854167,1,0,0,2.554,Peridotite_rect,2,0,2,0,1,
60fe3a34f7f4d5e48ad56af2,SCR,2024-06-21_12h47.17.586,LearnStrategy,2023.2.3,Win32,59.88023952,1,2,4,,,,,,,,7,16,,,,,,,,,,,,,6,3.17,0,,,,,,-0.09375,-0.408854167,1,0,0,3.1696,Pegmatite_rect,3,0,3,0,1,
60fe3a34f7f4d5e48ad56af2,SCR,2024-06-21_12h47.17.586,LearnStrategy,2023.2.3,Win32,59.88023952,1,2,5,,,,,,,,2,08,,,,,,,,,,,,,2,2.886,1,,,,,,-0.096354167,-0.252604167,1,0,0,2.8862,Basalt_rect,4,0,4,0,1,
60fe3a34f7f4d5e48ad56af2,SCR,2024-06-21_12h47.17.586,LearnStrategy,2023.2.3,Win32,59.88023952,1,2,6,,,,,,,,4,09,,,,,,,,,,,,,1,2.872,0,,,,,,-0.37109375,-0.243489583,1,0,0,2.8718,Andesite_rect,5,0,5,0,1,
60fe3a34f7f4d5e48ad56af2,SCR,2024-06-21_12h47.17.586,LearnStrategy,2023.2.3,Win32,59.88023952,1,2,7,,,,,,,,5,14,,,,,,,,,,,,,5,1.471,1,,,,,,-0.432291667,-0.41015625,1,0,0,1.4709,Obsidian_rect,6,0,6,0,1,
60fe3a34f7f4d5e48ad56af2,SCR,2024-06-21_12h47.17.586,LearnStrategy,2023.2.3,Win32,59.88023952,1,2,8,,,,,,,,1,09,,,,,,,,,,,,,2,1.622,0,,,,,,-0.125,-0.23828125,1,0,0,1.6225,Basalt_rect,7,0,7,0,1,
60fe3a34f7f4d5e48ad56af2,SCR,2024-06-21_12h47.17.586,LearnStrategy,2023.2.3,Win32,59.88023952,1,2,9,,,,,,,,6,05,,,,,,,,,,,,,6,2.019,1,,,,,,-0.079427083,-0.391927083,1,0,0,2.0189,Pegmatite_rect,8,0,8,0,1,
60fe3a34f7f4d5e48ad56af2,SCR,2024-06-21_12h47.17.586,LearnStrategy,2023.2.3,Win32,59.88023952,1,2,10,,,,,,,,3,02,,,,,,,,,,,,,6,1.507,0,,,,,,-0.111979167,-0.390625,1,0,0,1.5072,Pegmatite_rect,9,0,9,0,1,
60fe3a34f7f4d5e48ad56af2,SCR,2024-06-21_12h47.17.586,LearnStrategy,2023.2.3,Win32,59.88023952,1,2,11,,,,,,,,4,15,,,,,,,,,,,,,6,1.587,0,,,,,,-0.138020833,-0.415364583,1,0,0,1.5875,Pegmatite_rect,10,0,10,0,1,
60fe3a34f7f4d5e48ad56af2,SCR,2024-06-21_12h47.17.586,LearnStrategy,2023.2.3,Win32,59.88023952,1,2,12,,,,,,,,6,13,,,,,,,,,,,,,6,2.371,1,,,,,,-0.106770833,-0.395833333,1,0,0,2.3713,Pegmatite_rect,11,0,11,0,1,
60fe3a34f7f4d5e48ad56af2,SCR,2024-06-21_12h47.17.586,LearnStrategy,2023.2.3,Win32,59.88023952,1,2,13,,,,,,,,2,02,,,,,,,,,,,,,2,3.386,1,,,,,,-0.138020833,-0.240885417,1,0,0,3.3861,Basalt_rect,12,0,12,0,1,
60fe3a34f7f4d5e48ad56af2,SCR,2024-06-21_12h47.17.586,LearnStrategy,2023.2.3,Win32,59.88023952,1,2,14,,,,,,,,5,10,,,,,,,,,,,,,5,1.388,1,,,,,,-0.375,-0.391927083,1,0,0,1.3881,Obsidian_rect,13,0,13,0,1,
60fe3a34f7f4d5e48ad56af2,SCR,2024-06-21_12h47.17.586,LearnStrategy,2023.2.3,Win32,59.88023952,1,2,15,,,,,,,,8,08,,,,,,,,,,,,,8,1.407,1,,,,,,0.401041667,-0.39453125,1,0,0,1.4071,Pumice_rect,14,0,14,0,1,
60fe3a34f7f4d5e48ad56af2,SCR,2024-06-21_12h47.17.586,LearnStrategy,2023.2.3,Win32,59.88023952,1,2,16,,,,,,,,3,14,,,,,,,,,,,,,3,1.471,1,,,,,,0.1796875,-0.26171875,1,0,0,1.4708,Diorite_rect,15,0,15,0,1,
60fe3a34f7f4d5e48ad56af2,SCR,2024-06-21_12h47.17.586,LearnStrategy,2023.2.3,Win32,59.88023952,2,1,1,0.234375,0.25,1,0,0,4.7258,Pumice_06,8,06,5,6,4.726,4,13,0.3671875,-0.3984375,1,0,0,1.319,Pumice_rect,8,1.319,1,0,0,0,0,1,,,,,,,,,,,,,
60fe3a34f7f4d5e48ad56af2,SCR,2024-06-21_12h47.17.586,LearnStrategy,2023.2.3,Win32,59.88023952,2,1,2,-0.541666667,0.24609375,1,0,0,1.5628,Pumice_03,8,03,5,1,1.563,1,05,0.385416667,-0.397135417,1,0,0,1.9252,Pumice_rect,8,1.925,1,1,0,1,0,1,,,,,,,,,,,,,
60fe3a34f7f4d5e48ad56af2,SCR,2024-06-21_12h47.17.586,LearnStrategy,2023.2.3,Win32,59.88023952,2,1,3,-0.072916667,-0.095052083,1,0,0,3.0925,Peridotite_15,7,15,3,4,3.092,8,06,0.161458333,-0.408854167,1,0,0,1.8833,Peridotite_rect,7,1.883,1,2,0,2,0,1,,,,,,,,,,,,,
60fe3a34f7f4d5e48ad56af2,SCR,2024-06-21_12h47.17.586,LearnStrategy,2023.2.3,Win32,59.88023952,2,1,4,0.552083333,0.243489583,1,0,0,3.3088,Andesite_07,1,07,5,8,3.309,1,06,0.463541667,-0.24609375,1,0,0,1.313,Gabbro_rect,4,1.313,0,3,0,3,0,1,,,,,,,,,,,,,
60fe3a34f7f4d5e48ad56af2,SCR,2024-06-21_12h47.17.586,LearnStrategy,2023.2.3,Win32,59.88023952,2,1,5,-0.533854167,0.12109375,1,0,0,2.8926,Diorite_09,3,09,4,1,2.893,3,10,-0.35546875,-0.251302083,1,0,0,0.97,Andesite_rect,1,0.97,0,4,0,4,0,1,,,,,,,,,,,,,
60fe3a34f7f4d5e48ad56af2,SCR,2024-06-21_12h47.17.586,LearnStrategy,2023.2.3,Win32,59.88023952,2,1,6,-0.526041667,-0.415364583,1,0,0,1.527,Diorite_06,3,06,1,1,1.527,1,04,0.153645833,-0.243489583,1,0,0,0.9782,Diorite_rect,3,0.978,1,5,0,5,0,1,,,,,,,,,,,,,
60fe3a34f7f4d5e48ad56af2,SCR,2024-06-21_12h47.17.586,LearnStrategy,2023.2.3,Win32,59.88023952,2,1,7,-0.236979167,0.088541667,1,0,0,5.7742,Diorite_10,3,10,4,3,5.774,5,08,-0.34375,-0.236979167,1,0,0,1.0508,Andesite_rect,1,1.051,0,6,0,6,0,1,,,,,,,,,,,,,
60fe3a34f7f4d5e48ad56af2,SCR,2024-06-21_12h47.17.586,LearnStrategy,2023.2.3,Win32,59.88023952,2,1,8,0.079427083,-0.26171875,1,0,0,2.876,Pegmatite_12,6,12,2,5,2.876,4,12,-0.352864583,-0.2421875,1,0,0,0.8353,Andesite_rect,1,0.835,0,7,0,7,0,1,,,,,,,,,,,,,
60fe3a34f7f4d5e48ad56af2,SCR,2024-06-21_12h47.17.586,LearnStrategy,2023.2.3,Win32,59.88023952,2,1,9,-0.067708333,-0.408854167,1,0,0,2.7092,Diorite_15,3,15,1,4,2.709,7,02,-0.352864583,-0.24609375,1,0,0,0.8595,Andesite_rect,1,0.86,0,8,0,8,0,1,,,,,,,,,,,,,
60fe3a34f7f4d5e48ad56af2,SCR,2024-06-21_12h47.17.586,LearnStrategy,2023.2.3,Win32,59.88023952,2,1,10,0.229166667,0.0859375,1,0,0,1.7757,Basalt_16,2,16,4,6,1.776,7,07,0.416666667,-0.2578125,1,0,0,2.0776,Gabbro_rect,4,2.078,0,9,0,9,0,1,,,,,,,,,,,,,
60fe3a34f7f4d5e48ad56af2,SCR,2024-06-21_12h47.17.586,LearnStrategy,2023.2.3,Win32,59.88023952,2,1,11,-0.227864583,0.091145833,1,0,0,1.6788,Diorite_10,3,10,4,3,1.679,2,16,0.16015625,-0.243489583,1,0,0,2.2076,Diorite_rect,3,2.208,1,10,0,10,0,1,,,,,,,,,,,,,
60fe3a34f7f4d5e48ad56af2,SCR,2024-06-21_12h47.17.586,LearnStrategy,2023.2.3,Win32,59.88023952,2,1,12,-0.220052083,0.408854167,1,0,0,2.793,Andesite_06,1,06,6,3,2.793,4,11,0.076822917,-0.24609375,1,0,0,1.5928,Diorite_rect,3,1.593,0,11,0,11,0,1,,,,,,,,,,,,,
60fe3a34f7f4d5e48ad56af2,SCR,2024-06-21_12h47.17.586,LearnStrategy,2023.2.3,Win32,59.88023952,2,1,13,-0.3984375,-0.389322917,1,0,0,4.826,Peridotite_08,7,08,1,2,4.826,4,01,0.125,-0.401041667,1,0,0,1.9374,Peridotite_rect,7,1.937,1,12,0,12,0,1,,,,,,,,,,,,,
60fe3a34f7f4d5e48ad56af2,SCR,2024-06-21_12h47.17.586,LearnStrategy,2023.2.3,Win32,59.88023952,2,1,14,0.092447917,0.092447917,1,0,0,1.6611,Basalt_09,2,09,4,5,1.661,1,16,-0.126302083,-0.25,1,0,0,3.3173,Basalt_rect,2,3.317,1,13,0,13,0,1,,,,,,,,,,,,,
60fe3a34f7f4d5e48ad56af2,SCR,2024-06-21_12h47.17.586,LearnStrategy,2023.2.3,Win32,59.88023952,2,1,15,-0.052083333,0.115885417,1,0,0,4.4268,Andesite_10,1,10,4,4,4.427,6,12,0.393229167,-0.25390625,1,0,0,1.7708,Gabbro_rect,4,1.771,0,14,0,14,0,1,,,,,,,,,,,,,
60fe3a34f7f4d5e48ad56af2,SCR,2024-06-21_12h47.17.586,LearnStrategy,2023.2.3,Win32,59.88023952,2,1,16,0.54296875,-0.287760417,1,0,0,1.546,Gabbro_12,4,12,2,8,1.546,3,09,0.348958333,-0.240885417,1,0,0,2.2031,Gabbro_rect,4,2.203,1,15,0,15,0,1,,,,,,,,,,,,,
60fe3a34f7f4d5e48ad56af2,SCR,2024-06-21_12h47.17.586,LearnStrategy,2023.2.3,Win32,59.88023952,2,2,1,,,,,,,,1,02,,,,,,,,,,,,,1,6.599,1,,,,,,-0.390625,-0.231770833,1,0,0,6.5995,Andesite_rect,0,0,0,0,1,
60fe3a34f7f4d5e48ad56af2,SCR,2024-06-21_12h47.17.586,LearnStrategy,2023.2.3,Win32,59.88023952,2,2,2,,,,,,,,2,10,,,,,,,,,,,,,2,2.772,1,,,,,,-0.10546875,-0.236979167,1,0,0,2.7722,Basalt_rect,1,0,1,0,1,
60fe3a34f7f4d5e48ad56af2,SCR,2024-06-21_12h47.17.586,LearnStrategy,2023.2.3,Win32,59.88023952,2,2,3,,,,,,,,6,15,,,,,,,,,,,,,6,1.514,1,,,,,,-0.138020833,-0.408854167,1,0,0,1.5142,Pegmatite_rect,2,0,2,0,1,
60fe3a34f7f4d5e48ad56af2,SCR,2024-06-21_12h47.17.586,LearnStrategy,2023.2.3,Win32,59.88023952,2,2,4,,,,,,,,8,04,,,,,,,,,,,,,8,1.821,1,,,,,,0.397135417,-0.389322917,1,0,0,1.8206,Pumice_rect,3,0,3,0,1,
60fe3a34f7f4d5e48ad56af2,SCR,2024-06-21_12h47.17.586,LearnStrategy,2023.2.3,Win32,59.88023952,2,2,5,,,,,,,,4,08,,,,,,,,,,,,,4,2.469,1,,,,,,0.4453125,-0.24609375,1,0,0,2.4693,Gabbro_rect,4,0,4,0,1,
60fe3a34f7f4d5e48ad56af2,SCR,2024-06-21_12h47.17.586,LearnStrategy,2023.2.3,Win32,59.88023952,2,2,6,,,,,,,,5,07,,,,,,,,,,,,,5,1.206,1,,,,,,-0.395833333,-0.38671875,1,0,0,1.2056,Obsidian_rect,5,0,5,0,1,
60fe3a34f7f4d5e48ad56af2,SCR,2024-06-21_12h47.17.586,LearnStrategy,2023.2.3,Win32,59.88023952,2,2,7,,,,,,,,7,12,,,,,,,,,,,,,7,1.238,1,,,,,,0.111979167,-0.395833333,1,0,0,1.2382,Peridotite_rect,6,0,6,0,1,
60fe3a34f7f4d5e48ad56af2,SCR,2024-06-21_12h47.17.586,LearnStrategy,2023.2.3,Win32,59.88023952,2,2,8,,,,,,,,8,10,,,,,,,,,,,,,8,1.172,1,,,,,,0.380208333,-0.403645833,1,0,0,1.1719,Pumice_rect,7,0,7,0,1,
60fe3a34f7f4d5e48ad56af2,SCR,2024-06-21_12h47.17.586,LearnStrategy,2023.2.3,Win32,59.88023952,2,2,9,,,,,,,,4,03,,,,,,,,,,,,,4,1.905,1,,,,,,0.388020833,-0.234375,1,0,0,1.9052,Gabbro_rect,8,0,8,0,1,
60fe3a34f7f4d5e48ad56af2,SCR,2024-06-21_12h47.17.586,LearnStrategy,2023.2.3,Win32,59.88023952,2,2,10,,,,,,,,1,14,,,,,,,,,,,,,3,3.317,0,,,,,,0.157552083,-0.26171875,1,0,0,3.3171,Diorite_rect,9,0,9,0,1,
60fe3a34f7f4d5e48ad56af2,SCR,2024-06-21_12h47.17.586,LearnStrategy,2023.2.3,Win32,59.88023952,2,2,11,,,,,,,,3,12,,,,,,,,,,,,,3,1.638,1,,,,,,0.135416667,-0.24609375,1,0,0,1.6381,Diorite_rect,10,0,10,0,1,
60fe3a34f7f4d5e48ad56af2,SCR,2024-06-21_12h47.17.586,LearnStrategy,2023.2.3,Win32,59.88023952,2,2,12,,,,,,,,6,06,,,,,,,,,,,,,7,1.505,0,,,,,,0.098958333,-0.40234375,1,0,0,1.5048,Peridotite_rect,11,0,11,0,1,
60fe3a34f7f4d5e48ad56af2,SCR,2024-06-21_12h47.17.586,LearnStrategy,2023.2.3,Win32,59.88023952,2,2,13,,,,,,,,5,16,,,,,,,,,,,,,5,0.905,1,,,,,,-0.434895833,-0.40234375,1,0,0,0.9052,Obsidian_rect,12,0,12,0,1,
60fe3a34f7f4d5e48ad56af2,SCR,2024-06-21_12h47.17.586,LearnStrategy,2023.2.3,Win32,59.88023952,2,2,14,,,,,,,,3,07,,,,,,,,,,,,,1,1.822,0,,,,,,-0.397135417,-0.270833333,1,0,0,1.8222,Andesite_rect,13,0,13,0,1,
60fe3a34f7f4d5e48ad56af2,SCR,2024-06-21_12h47.17.586,LearnStrategy,2023.2.3,Win32,59.88023952,2,2,15,,,,,,,,2,12,,,,,,,,,,,,,8,0.989,0,,,,,,0.377604167,-0.393229167,1,0,0,0.9892,Pumice_rect,14,0,14,0,1,
60fe3a34f7f4d5e48ad56af2,SCR,2024-06-21_12h47.17.586,LearnStrategy,2023.2.3,Win32,59.88023952,2,2,16,,,,,,,,7,05,,,,,,,,,,,,,1,1.688,0,,,,,,-0.373697917,-0.229166667,1,0,0,1.688,Andesite_rect,15,0,15,0,1,
60fe3a34f7f4d5e48ad56af2,SCR,2024-06-21_12h47.17.586,LearnStrategy,2023.2.3,Win32,59.88023952,3,1,1,0.5703125,-0.40625,1,0,0,1.6633,Pumice_02,8,02,1,8,1.663,1,04,0.395833333,-0.3984375,1,0,0,1.1199,Pumice_rect,8,1.12,1,0,0,0,0,1,,,,,,,,,,,,,
60fe3a34f7f4d5e48ad56af2,SCR,2024-06-21_12h47.17.586,LearnStrategy,2023.2.3,Win32,59.88023952,3,1,2,-0.08984375,-0.283854167,1,0,0,2.4107,Andesite_04,1,04,2,4,2.411,7,14,0.147135417,-0.251302083,1,0,0,1.906,Diorite_rect,3,1.906,0,1,0,1,0,1,,,,,,,,,,,,,
60fe3a34f7f4d5e48ad56af2,SCR,2024-06-21_12h47.17.586,LearnStrategy,2023.2.3,Win32,59.88023952,3,1,3,-0.243489583,-0.411458333,1,0,0,3.1954,Basalt_05,2,05,1,3,3.195,3,15,-0.10546875,-0.234375,1,0,0,2.7828,Basalt_rect,2,2.783,1,2,0,2,0,1,,,,,,,,,,,,,
60fe3a34f7f4d5e48ad56af2,SCR,2024-06-21_12h47.17.586,LearnStrategy,2023.2.3,Win32,59.88023952,3,1,4,-0.528645833,0.286458333,1,0,0,2.4119,Pumice_03,8,03,5,1,2.412,7,08,0.42578125,-0.390625,1,0,0,1.9362,Pumice_rect,8,1.936,1,3,0,3,0,1,,,,,,,,,,,,,
60fe3a34f7f4d5e48ad56af2,SCR,2024-06-21_12h47.17.586,LearnStrategy,2023.2.3,Win32,59.88023952,3,1,5,-0.51171875,-0.102864583,1,0,0,1.9425,Peridotite_02,7,02,3,1,1.942,6,09,0.1171875,-0.40234375,1,0,0,1.6536,Peridotite_rect,7,1.654,1,4,0,4,0,1,,,,,,,,,,,,,
60fe3a34f7f4d5e48ad56af2,SCR,2024-06-21_12h47.17.586,LearnStrategy,2023.2.3,Win32,59.88023952,3,1,6,0.260416667,-0.111979167,1,0,0,2.0618,Gabbro_13,4,13,3,6,2.062,1,07,-0.3828125,-0.251302083,1,0,0,3.0682,Andesite_rect,1,3.068,0,5,0,5,0,1,,,,,,,,,,,,,
60fe3a34f7f4d5e48ad56af2,SCR,2024-06-21_12h47.17.586,LearnStrategy,2023.2.3,Win32,59.88023952,3,1,7,0.569010417,-0.2578125,1,0,0,1.4299,Gabbro_12,4,12,2,8,1.43,3,10,0.3671875,-0.24609375,1,0,0,2.7507,Gabbro_rect,4,2.751,1,6,0,6,0,1,,,,,,,,,,,,,
60fe3a34f7f4d5e48ad56af2,SCR,2024-06-21_12h47.17.586,LearnStrategy,2023.2.3,Win32,59.88023952,3,1,8,0.251302083,-0.111979167,1,0,0,2.496,Gabbro_13,4,13,3,6,2.496,2,09,0.122395833,-0.248697917,1,0,0,3.7149,Diorite_rect,3,3.715,0,7,0,7,0,1,,,,,,,,,,,,,
60fe3a34f7f4d5e48ad56af2,SCR,2024-06-21_12h47.17.586,LearnStrategy,2023.2.3,Win32,59.88023952,3,1,9,-0.225260417,-0.088541667,1,0,0,1.762,Peridotite_06,7,06,3,3,1.762,1,06,0.114583333,-0.3984375,1,0,0,2.7238,Peridotite_rect,7,2.724,1,8,0,8,0,1,,,,,,,,,,,,,
60fe3a34f7f4d5e48ad56af2,SCR,2024-06-21_12h47.17.586,LearnStrategy,2023.2.3,Win32,59.88023952,3,1,10,-0.067708333,-0.2578125,1,0,0,1.5621,Andesite_04,1,04,2,4,1.562,6,09,-0.37890625,-0.244791667,1,0,0,2.2369,Andesite_rect,1,2.237,1,9,0,9,0,1,,,,,,,,,,,,,
60fe3a34f7f4d5e48ad56af2,SCR,2024-06-21_12h47.17.586,LearnStrategy,2023.2.3,Win32,59.88023952,3,1,11,-0.24609375,0.075520833,1,0,0,2.0459,Diorite_10,3,10,4,3,2.046,7,07,0.14453125,-0.252604167,1,0,0,2.3561,Diorite_rect,3,2.356,1,10,0,10,0,1,,,,,,,,,,,,,
60fe3a34f7f4d5e48ad56af2,SCR,2024-06-21_12h47.17.586,LearnStrategy,2023.2.3,Win32,59.88023952,3,1,12,0.415364583,0.087239583,1,0,0,1.7957,Diorite_08,3,08,4,7,1.796,1,05,-0.104166667,-0.391927083,1,0,0,3.3657,Pegmatite_rect,6,3.366,0,11,0,11,0,1,,,,,,,,,,,,,
60fe3a34f7f4d5e48ad56af2,SCR,2024-06-21_12h47.17.586,LearnStrategy,2023.2.3,Win32,59.88023952,3,1,13,0.083333333,0.079427083,1,0,0,2.7285,Basalt_09,2,09,4,5,2.728,2,09,-0.180989583,-0.243489583,1,0,0,2.0547,Basalt_rect,2,2.055,1,12,0,12,0,1,,,,,,,,,,,,,
60fe3a34f7f4d5e48ad56af2,SCR,2024-06-21_12h47.17.586,LearnStrategy,2023.2.3,Win32,59.88023952,3,1,14,0.209635417,-0.0859375,1,0,0,2.0458,Gabbro_13,4,13,3,6,2.046,4,13,0.141927083,-0.251302083,1,0,0,2.6965,Diorite_rect,3,2.697,0,13,0,13,0,1,,,,,,,,,,,,,
60fe3a34f7f4d5e48ad56af2,SCR,2024-06-21_12h47.17.586,LearnStrategy,2023.2.3,Win32,59.88023952,3,1,15,-0.553385417,0.26953125,1,0,0,1.6601,Pumice_03,8,03,5,1,1.66,8,03,0.3984375,-0.40234375,1,0,0,2.4692,Pumice_rect,8,2.469,1,14,0,14,0,1,,,,,,,,,,,,,
60fe3a34f7f4d5e48ad56af2,SCR,2024-06-21_12h47.17.586,LearnStrategy,2023.2.3,Win32,59.88023952,3,1,16,0.1015625,-0.427083333,1,0,0,1.5663,Gabbro_14,4,14,1,5,1.566,4,14,-0.403645833,-0.248697917,1,0,0,1.4834,Andesite_rect,1,1.483,0,15,0,15,0,1,,,,,,,,,,,,,
60fe3a34f7f4d5e48ad56af2,SCR,2024-06-21_12h47.17.586,LearnStrategy,2023.2.3,Win32,59.88023952,3,2,1,,,,,,,,2,06,,,,,,,,,,,,,2,2.605,1,,,,,,-0.095052083,-0.244791667,1,0,0,2.6048,Basalt_rect,0,0,0,0,1,
60fe3a34f7f4d5e48ad56af2,SCR,2024-06-21_12h47.17.586,LearnStrategy,2023.2.3,Win32,59.88023952,3,2,2,,,,,,,,5,05,,,,,,,,,,,,,5,4.452,1,,,,,,-0.39453125,-0.404947917,1,0,0,4.4519,Obsidian_rect,1,0,1,0,1,
60fe3a34f7f4d5e48ad56af2,SCR,2024-06-21_12h47.17.586,LearnStrategy,2023.2.3,Win32,59.88023952,3,2,3,,,,,,,,4,10,,,,,,,,,,,,,4,2.055,1,,,,,,0.397135417,-0.239583333,1,0,0,2.0552,Gabbro_rect,2,0,2,0,1,
60fe3a34f7f4d5e48ad56af2,SCR,2024-06-21_12h47.17.586,LearnStrategy,2023.2.3,Win32,59.88023952,3,2,4,,,,,,,,7,10,,,,,,,,,,,,,7,1.022,1,,,,,,0.162760417,-0.40234375,1,0,0,1.0216,Peridotite_rect,3,0,3,0,1,
60fe3a34f7f4d5e48ad56af2,SCR,2024-06-21_12h47.17.586,LearnStrategy,2023.2.3,Win32,59.88023952,3,2,5,,,,,,,,6,10,,,,,,,,,,,,,6,1.272,1,,,,,,-0.12890625,-0.395833333,1,0,0,1.2722,Pegmatite_rect,4,0,4,0,1,
60fe3a34f7f4d5e48ad56af2,SCR,2024-06-21_12h47.17.586,LearnStrategy,2023.2.3,Win32,59.88023952,3,2,6,,,,,,,,2,14,,,,,,,,,,,,,2,1.572,1,,,,,,-0.098958333,-0.24609375,1,0,0,1.5719,Basalt_rect,5,0,5,0,1,
60fe3a34f7f4d5e48ad56af2,SCR,2024-06-21_12h47.17.586,LearnStrategy,2023.2.3,Win32,59.88023952,3,2,7,,,,,,,,5,02,,,,,,,,,,,,,5,0.971,1,,,,,,-0.346354167,-0.401041667,1,0,0,0.9706,Obsidian_rect,6,0,6,0,1,
60fe3a34f7f4d5e48ad56af2,SCR,2024-06-21_12h47.17.586,LearnStrategy,2023.2.3,Win32,59.88023952,3,2,8,,,,,,,,3,16,,,,,,,,,,,,,3,2.187,1,,,,,,0.11328125,-0.236979167,1,0,0,2.1871,Diorite_rect,7,0,7,0,1,
60fe3a34f7f4d5e48ad56af2,SCR,2024-06-21_12h47.17.586,LearnStrategy,2023.2.3,Win32,59.88023952,3,2,9,,,,,,,,8,16,,,,,,,,,,,,,8,1.261,1,,,,,,0.3671875,-0.393229167,1,0,0,1.2611,Pumice_rect,8,0,8,0,1,
60fe3a34f7f4d5e48ad56af2,SCR,2024-06-21_12h47.17.586,LearnStrategy,2023.2.3,Win32,59.88023952,3,2,10,,,,,,,,8,09,,,,,,,,,,,,,8,0.889,1,,,,,,0.365885417,-0.404947917,1,0,0,0.8885,Pumice_rect,9,0,9,0,1,
60fe3a34f7f4d5e48ad56af2,SCR,2024-06-21_12h47.17.586,LearnStrategy,2023.2.3,Win32,59.88023952,3,2,11,,,,,,,,4,16,,,,,,,,,,,,,4,1.422,1,,,,,,0.37109375,-0.244791667,1,0,0,1.4217,Gabbro_rect,10,0,10,0,1,
60fe3a34f7f4d5e48ad56af2,SCR,2024-06-21_12h47.17.586,LearnStrategy,2023.2.3,Win32,59.88023952,3,2,12,,,,,,,,3,11,,,,,,,,,,,,,3,3.157,1,,,,,,0.098958333,-0.252604167,1,0,0,3.1571,Diorite_rect,11,0,11,0,1,
60fe3a34f7f4d5e48ad56af2,SCR,2024-06-21_12h47.17.586,LearnStrategy,2023.2.3,Win32,59.88023952,3,2,13,,,,,,,,6,03,,,,,,,,,,,,,6,1.959,1,,,,,,-0.109375,-0.390625,1,0,0,1.9593,Pegmatite_rect,12,0,12,0,1,
60fe3a34f7f4d5e48ad56af2,SCR,2024-06-21_12h47.17.586,LearnStrategy,2023.2.3,Win32,59.88023952,3,2,14,,,,,,,,1,01,,,,,,,,,,,,,1,1.712,1,,,,,,-0.36328125,-0.233072917,1,0,0,1.7117,Andesite_rect,13,0,13,0,1,
60fe3a34f7f4d5e48ad56af2,SCR,2024-06-21_12h47.17.586,LearnStrategy,2023.2.3,Win32,59.88023952,3,2,15,,,,,,,,7,04,,,,,,,,,,,,,1,1.27,0,,,,,,-0.36328125,-0.233072917,1,0,0,1.2697,Andesite_rect,14,0,14,0,1,
60fe3a34f7f4d5e48ad56af2,SCR,2024-06-21_12h47.17.586,LearnStrategy,2023.2.3,Win32,59.88023952,3,2,16,,,,,,,,1,03,,,,,,,,,,,,,2,1.455,0,,,,,,-0.10546875,-0.234375,1,0,0,1.4547,Basalt_rect,15,0,15,0,1,
60fe3a34f7f4d5e48ad56af2,SCR,2024-06-21_12h47.17.586,LearnStrategy,2023.2.3,Win32,59.88023952,4,1,1,-0.536458333,-0.11328125,1,0,0,2.2287,Peridotite_02,7,02,3,1,2.229,2,09,0.131510417,-0.384114583,1,0,0,1.4428,Peridotite_rect,7,1.443,1,0,0,0,0,1,,,,,,,,,,,,,
60fe3a34f7f4d5e48ad56af2,SCR,2024-06-21_12h47.17.586,LearnStrategy,2023.2.3,Win32,59.88023952,4,1,2,0.079427083,-0.40625,1,0,0,2.611,Gabbro_14,4,14,1,5,2.611,4,14,0.388020833,-0.251302083,1,0,0,2.0085,Gabbro_rect,4,2.008,1,1,0,1,0,1,,,,,,,,,,,,,
60fe3a34f7f4d5e48ad56af2,SCR,2024-06-21_12h47.17.586,LearnStrategy,2023.2.3,Win32,59.88023952,4,1,3,0.243489583,0.255208333,1,0,0,1.2119,Pumice_06,8,06,5,6,1.212,2,01,0.384114583,-0.395833333,1,0,0,0.6102,Pumice_rect,8,0.61,1,2,0,2,0,1,,,,,,,,,,,,,
60fe3a34f7f4d5e48ad56af2,SCR,2024-06-21_12h47.17.586,LearnStrategy,2023.2.3,Win32,59.88023952,4,1,4,0.0859375,0.255208333,1,0,0,1.3955,Pegmatite_11,6,11,5,5,1.395,6,11,-0.106770833,-0.395833333,1,0,0,1.093,Pegmatite_rect,6,1.093,1,3,0,3,0,1,,,,,,,,,,,,,
60fe3a34f7f4d5e48ad56af2,SCR,2024-06-21_12h47.17.586,LearnStrategy,2023.2.3,Win32,59.88023952,4,1,5,-0.217447917,0.26171875,1,0,0,0.8794,Gabbro_01,4,01,5,3,0.879,1,07,-0.375,-0.235677083,1,0,0,1.6589,Andesite_rect,1,1.659,0,4,0,4,0,1,,,,,,,,,,,,,
60fe3a34f7f4d5e48ad56af2,SCR,2024-06-21_12h47.17.586,LearnStrategy,2023.2.3,Win32,59.88023952,4,1,6,-0.223958333,0.092447917,1,0,0,1.1629,Diorite_10,3,10,4,3,1.163,7,06,0.12890625,-0.243489583,1,0,0,1.6095,Diorite_rect,3,1.61,1,5,0,5,0,1,,,,,,,,,,,,,
60fe3a34f7f4d5e48ad56af2,SCR,2024-06-21_12h47.17.586,LearnStrategy,2023.2.3,Win32,59.88023952,4,1,7,0.57421875,0.243489583,1,0,0,1.6785,Andesite_07,1,07,5,8,1.678,7,08,0.100260417,-0.239583333,1,0,0,1.9202,Diorite_rect,3,1.92,0,6,0,6,0,1,,,,,,,,,,,,,
60fe3a34f7f4d5e48ad56af2,SCR,2024-06-21_12h47.17.586,LearnStrategy,2023.2.3,Win32,59.88023952,4,1,8,-0.536458333,0.08984375,1,0,0,1.8128,Diorite_09,3,09,4,1,1.813,8,06,-0.356770833,-0.23046875,1,0,0,0.8368,Andesite_rect,1,0.837,0,7,0,7,0,1,,,,,,,,,,,,,
60fe3a34f7f4d5e48ad56af2,SCR,2024-06-21_12h47.17.586,LearnStrategy,2023.2.3,Win32,59.88023952,4,1,9,0.388020833,-0.23828125,1,0,0,1.7156,Gabbro_05,4,05,2,7,1.716,1,05,0.381510417,-0.255208333,1,0,0,1.6797,Gabbro_rect,4,1.68,1,8,0,8,0,1,,,,,,,,,,,,,
60fe3a34f7f4d5e48ad56af2,SCR,2024-06-21_12h47.17.586,LearnStrategy,2023.2.3,Win32,59.88023952,4,1,10,0.388020833,0.24609375,1,0,0,1.7136,Gabbro_11,4,11,5,7,1.714,3,13,-0.096354167,-0.24609375,1,0,0,0.8595,Basalt_rect,2,0.86,0,9,0,9,0,1,,,,,,,,,,,,,
60fe3a34f7f4d5e48ad56af2,SCR,2024-06-21_12h47.17.586,LearnStrategy,2023.2.3,Win32,59.88023952,4,1,11,0.408854167,0.43359375,1,0,0,2.5459,Basalt_04,2,04,6,7,2.546,1,07,-0.102864583,-0.248697917,1,0,0,0.8525,Basalt_rect,2,0.852,1,10,0,10,0,1,,,,,,,,,,,,,
60fe3a34f7f4d5e48ad56af2,SCR,2024-06-21_12h47.17.586,LearnStrategy,2023.2.3,Win32,59.88023952,4,1,12,0.252604167,-0.223958333,1,0,0,1.3472,Basalt_11,2,11,2,6,1.347,4,14,0.438802083,-0.399739583,1,0,0,1.3393,Pumice_rect,8,1.339,0,11,0,11,0,1,,,,,,,,,,,,,
60fe3a34f7f4d5e48ad56af2,SCR,2024-06-21_12h47.17.586,LearnStrategy,2023.2.3,Win32,59.88023952,4,1,13,-0.233072917,-0.389322917,1,0,0,1.7811,Basalt_05,2,05,1,3,1.781,1,06,-0.104166667,-0.235677083,1,0,0,1.9698,Basalt_rect,2,1.97,1,12,0,12,0,1,,,,,,,,,,,,,
60fe3a34f7f4d5e48ad56af2,SCR,2024-06-21_12h47.17.586,LearnStrategy,2023.2.3,Win32,59.88023952,4,1,14,-0.552083333,-0.067708333,1,0,0,2.0793,Peridotite_02,7,02,3,1,2.079,7,08,0.139322917,-0.397135417,1,0,0,1.3497,Peridotite_rect,7,1.35,1,13,0,13,0,1,,,,,,,,,,,,,
60fe3a34f7f4d5e48ad56af2,SCR,2024-06-21_12h47.17.586,LearnStrategy,2023.2.3,Win32,59.88023952,4,1,15,-0.5703125,-0.399739583,1,0,0,2.2802,Diorite_06,3,06,1,1,2.28,3,06,-0.37890625,-0.229166667,1,0,0,1.4834,Andesite_rect,1,1.483,0,14,0,14,0,1,,,,,,,,,,,,,
60fe3a34f7f4d5e48ad56af2,SCR,2024-06-21_12h47.17.586,LearnStrategy,2023.2.3,Win32,59.88023952,4,1,16,0.05078125,-0.424479167,1,0,0,2.3613,Gabbro_14,4,14,1,5,2.361,6,07,0.407552083,-0.236979167,1,0,0,2.6498,Gabbro_rect,4,2.65,1,15,0,15,0,1,,,,,,,,,,,,,
60fe3a34f7f4d5e48ad56af2,SCR,2024-06-21_12h47.17.586,LearnStrategy,2023.2.3,Win32,59.88023952,4,2,1,,,,,,,,6,13,,,,,,,,,,,,,6,2.869,1,,,,,,-0.122395833,-0.38671875,1,0,0,2.8694,Pegmatite_rect,0,0,0,0,1,
60fe3a34f7f4d5e48ad56af2,SCR,2024-06-21_12h47.17.586,LearnStrategy,2023.2.3,Win32,59.88023952,4,2,2,,,,,,,,3,14,,,,,,,,,,,,,3,5.531,1,,,,,,0.109375,-0.235677083,1,0,0,5.5315,Diorite_rect,1,0,1,0,1,
60fe3a34f7f4d5e48ad56af2,SCR,2024-06-21_12h47.17.586,LearnStrategy,2023.2.3,Win32,59.88023952,4,2,3,,,,,,,,2,06,,,,,,,,,,,,,2,1.338,1,,,,,,-0.126302083,-0.244791667,1,0,0,1.3385,Basalt_rect,2,0,2,0,1,
60fe3a34f7f4d5e48ad56af2,SCR,2024-06-21_12h47.17.586,LearnStrategy,2023.2.3,Win32,59.88023952,4,2,4,,,,,,,,3,07,,,,,,,,,,,,,1,1.555,0,,,,,,-0.39453125,-0.24609375,1,0,0,1.5546,Andesite_rect,3,0,3,0,1,
60fe3a34f7f4d5e48ad56af2,SCR,2024-06-21_12h47.17.586,LearnStrategy,2023.2.3,Win32,59.88023952,4,2,5,,,,,,,,8,08,,,,,,,,,,,,,8,1.028,1,,,,,,0.338541667,-0.3828125,1,0,0,1.028,Pumice_rect,4,0,4,0,1,
60fe3a34f7f4d5e48ad56af2,SCR,2024-06-21_12h47.17.586,LearnStrategy,2023.2.3,Win32,59.88023952,4,2,6,,,,,,,,4,09,,,,,,,,,,,,,5,1.737,0,,,,,,-0.403645833,-0.3984375,1,0,0,1.7373,Obsidian_rect,5,0,5,0,1,
60fe3a34f7f4d5e48ad56af2,SCR,2024-06-21_12h47.17.586,LearnStrategy,2023.2.3,Win32,59.88023952,4,2,7,,,,,,,,2,14,,,,,,,,,,,,,8,0.942,0,,,,,,0.384114583,-0.401041667,1,0,0,0.9424,Pumice_rect,6,0,6,0,1,
60fe3a34f7f4d5e48ad56af2,SCR,2024-06-21_12h47.17.586,LearnStrategy,2023.2.3,Win32,59.88023952,4,2,8,,,,,,,,5,10,,,,,,,,,,,,,5,0.956,1,,,,,,-0.423177083,-0.408854167,1,0,0,0.9556,Obsidian_rect,7,0,7,0,1,
60fe3a34f7f4d5e48ad56af2,SCR,2024-06-21_12h47.17.586,LearnStrategy,2023.2.3,Win32,59.88023952,4,2,9,,,,,,,,4,10,,,,,,,,,,,,,4,2.021,1,,,,,,0.390625,-0.256510417,1,0,0,2.0211,Gabbro_rect,8,0,8,0,1,
60fe3a34f7f4d5e48ad56af2,SCR,2024-06-21_12h47.17.586,LearnStrategy,2023.2.3,Win32,59.88023952,4,2,10,,,,,,,,7,12,,,,,,,,,,,,,7,1.088,1,,,,,,0.108072917,-0.40625,1,0,0,1.0883,Peridotite_rect,9,0,9,0,1,
60fe3a34f7f4d5e48ad56af2,SCR,2024-06-21_12h47.17.586,LearnStrategy,2023.2.3,Win32,59.88023952,4,2,11,,,,,,,,8,05,,,,,,,,,,,,,8,0.938,1,,,,,,0.3671875,-0.395833333,1,0,0,0.938,Pumice_rect,10,0,10,0,1,
60fe3a34f7f4d5e48ad56af2,SCR,2024-06-21_12h47.17.586,LearnStrategy,2023.2.3,Win32,59.88023952,4,2,12,,,,,,,,5,16,,,,,,,,,,,,,5,0.756,1,,,,,,-0.403645833,-0.385416667,1,0,0,0.7562,Obsidian_rect,11,0,11,0,1,
60fe3a34f7f4d5e48ad56af2,SCR,2024-06-21_12h47.17.586,LearnStrategy,2023.2.3,Win32,59.88023952,4,2,13,,,,,,,,1,01,,,,,,,,,,,,,3,2.969,0,,,,,,0.100260417,-0.256510417,1,0,0,2.9694,Diorite_rect,12,0,12,0,1,
60fe3a34f7f4d5e48ad56af2,SCR,2024-06-21_12h47.17.586,LearnStrategy,2023.2.3,Win32,59.88023952,4,2,14,,,,,,,,1,11,,,,,,,,,,,,,4,3.802,0,,,,,,0.358072917,-0.268229167,1,0,0,3.8017,Gabbro_rect,13,0,13,0,1,
60fe3a34f7f4d5e48ad56af2,SCR,2024-06-21_12h47.17.586,LearnStrategy,2023.2.3,Win32,59.88023952,4,2,15,,,,,,,,6,06,,,,,,,,,,,,,6,1.971,1,,,,,,-0.138020833,-0.41796875,1,0,0,1.9707,Pegmatite_rect,14,0,14,0,1,
60fe3a34f7f4d5e48ad56af2,SCR,2024-06-21_12h47.17.586,LearnStrategy,2023.2.3,Win32,59.88023952,4,2,16,,,,,,,,7,13,,,,,,,,,,,,,7,1.754,1,,,,,,0.127604167,-0.389322917,1,0,0,1.7539,Peridotite_rect,15,0,15,0,1,
60fe3a34f7f4d5e48ad56af2,SCR,2024-06-21_12h47.17.586,LearnStrategy,2023.2.3,Win32,59.88023952,5,1,1,-0.578125,0.278645833,1,0,0,2.0292,Pumice_03,8,03,5,1,2.029,2,09,0.352864583,-0.399739583,1,0,0,0.9441,Pumice_rect,8,0.944,1,0,0,0,0,1,,,,,,,,,,,,,
60fe3a34f7f4d5e48ad56af2,SCR,2024-06-21_12h47.17.586,LearnStrategy,2023.2.3,Win32,59.88023952,5,1,2,-0.079427083,-0.118489583,1,0,0,1.6968,Peridotite_15,7,15,3,4,1.697,1,04,0.13671875,-0.384114583,1,0,0,0.7934,Peridotite_rect,7,0.793,1,1,0,1,0,1,,,,,,,,,,,,,
60fe3a34f7f4d5e48ad56af2,SCR,2024-06-21_12h47.17.586,LearnStrategy,2023.2.3,Win32,59.88023952,5,1,3,0.078125,-0.130208333,1,0,0,2.1803,Pumice_13,8,13,3,5,2.18,2,01,-0.388020833,-0.23046875,1,0,0,1.7255,Andesite_rect,1,1.726,0,2,0,2,0,1,,,,,,,,,,,,,
60fe3a34f7f4d5e48ad56af2,SCR,2024-06-21_12h47.17.586,LearnStrategy,2023.2.3,Win32,59.88023952,5,1,4,-0.063802083,0.24609375,1,0,0,2.1472,Peridotite_07,7,07,5,4,2.147,4,13,0.16015625,-0.40234375,1,0,0,0.8706,Peridotite_rect,7,0.871,1,3,0,3,0,1,,,,,,,,,,,,,
60fe3a34f7f4d5e48ad56af2,SCR,2024-06-21_12h47.17.586,LearnStrategy,2023.2.3,Win32,59.88023952,5,1,5,-0.235677083,0.083333333,1,0,0,1.1479,Diorite_10,3,10,4,3,1.148,3,10,0.125,-0.239583333,1,0,0,1.0336,Diorite_rect,3,1.034,1,4,0,4,0,1,,,,,,,,,,,,,
60fe3a34f7f4d5e48ad56af2,SCR,2024-06-21_12h47.17.586,LearnStrategy,2023.2.3,Win32,59.88023952,5,1,6,0.08984375,0.255208333,1,0,0,0.9813,Pegmatite_11,6,11,5,5,0.981,6,11,-0.111979167,-0.37890625,1,0,0,0.8263,Pegmatite_rect,6,0.826,1,5,0,5,0,1,,,,,,,,,,,,,
60fe3a34f7f4d5e48ad56af2,SCR,2024-06-21_12h47.17.586,LearnStrategy,2023.2.3,Win32,59.88023952,5,1,7,0.3671875,0.091145833,1,0,0,1.147,Diorite_08,3,08,4,7,1.147,3,08,0.153645833,-0.243489583,1,0,0,1.623,Diorite_rect,3,1.623,1,6,0,6,0,1,,,,,,,,,,,,,
60fe3a34f7f4d5e48ad56af2,SCR,2024-06-21_12h47.17.586,LearnStrategy,2023.2.3,Win32,59.88023952,5,1,8,-0.54296875,-0.096354167,1,0,0,1.097,Peridotite_02,7,02,3,1,1.097,7,02,0.125,-0.389322917,1,0,0,0.8831,Peridotite_rect,7,0.883,1,7,0,7,0,1,,,,,,,,,,,,,
60fe3a34f7f4d5e48ad56af2,SCR,2024-06-21_12h47.17.586,LearnStrategy,2023.2.3,Win32,59.88023952,5,1,9,-0.075520833,0.40234375,1,0,0,1.5165,Obsidian_12,5,12,6,4,1.516,5,12,-0.389322917,-0.395833333,1,0,0,0.7563,Obsidian_rect,5,0.756,1,8,0,8,0,1,,,,,,,,,,,,,
60fe3a34f7f4d5e48ad56af2,SCR,2024-06-21_12h47.17.586,LearnStrategy,2023.2.3,Win32,59.88023952,5,1,10,-0.078125,-0.236979167,1,0,0,0.8644,Andesite_04,1,04,2,4,0.864,1,04,-0.403645833,-0.235677083,1,0,0,2.278,Andesite_rect,1,2.278,1,9,0,9,0,1,,,,,,,,,,,,,
60fe3a34f7f4d5e48ad56af2,SCR,2024-06-21_12h47.17.586,LearnStrategy,2023.2.3,Win32,59.88023952,5,1,11,0.557291667,0.265625,1,0,0,0.8973,Andesite_07,1,07,5,8,0.897,1,07,-0.403645833,-0.235677083,1,0,0,0.7601,Andesite_rect,1,0.76,1,10,0,10,0,1,,,,,,,,,,,,,
60fe3a34f7f4d5e48ad56af2,SCR,2024-06-21_12h47.17.586,LearnStrategy,2023.2.3,Win32,59.88023952,5,1,12,0.25390625,0.236979167,1,0,0,0.8979,Pumice_06,8,06,5,6,0.898,8,06,0.419270833,-0.411458333,1,0,0,0.5604,Pumice_rect,8,0.56,1,11,0,11,0,1,,,,,,,,,,,,,
60fe3a34f7f4d5e48ad56af2,SCR,2024-06-21_12h47.17.586,LearnStrategy,2023.2.3,Win32,59.88023952,5,1,13,-0.059895833,0.227864583,1,0,0,0.8982,Peridotite_07,7,07,5,4,0.898,7,07,0.134114583,-0.419270833,1,0,0,0.8494,Peridotite_rect,7,0.849,1,12,0,12,0,1,,,,,,,,,,,,,
60fe3a34f7f4d5e48ad56af2,SCR,2024-06-21_12h47.17.586,LearnStrategy,2023.2.3,Win32,59.88023952,5,1,14,-0.552083333,-0.233072917,1,0,0,0.9347,Andesite_05,1,05,2,1,0.935,1,05,0.166666667,-0.239583333,1,0,0,2.2566,Diorite_rect,3,2.257,0,13,0,13,0,1,,,,,,,,,,,,,
60fe3a34f7f4d5e48ad56af2,SCR,2024-06-21_12h47.17.586,LearnStrategy,2023.2.3,Win32,59.88023952,5,1,15,-0.201822917,0.391927083,1,0,0,1.3145,Andesite_06,1,06,6,3,1.315,1,06,0.130208333,-0.252604167,1,0,0,1.0753,Diorite_rect,3,1.075,0,14,0,14,0,1,,,,,,,,,,,,,
60fe3a34f7f4d5e48ad56af2,SCR,2024-06-21_12h47.17.586,LearnStrategy,2023.2.3,Win32,59.88023952,5,1,16,-0.236979167,0.229166667,1,0,0,1.2803,Gabbro_01,4,01,5,3,1.28,4,01,-0.354166667,-0.24609375,1,0,0,0.8097,Andesite_rect,1,0.81,0,15,0,15,0,1,,,,,,,,,,,,,
60fe3a34f7f4d5e48ad56af2,SCR,2024-06-21_12h47.17.586,LearnStrategy,2023.2.3,Win32,59.88023952,5,2,1,,,,,,,,1,14,,,,,,,,,,,,,1,2.188,1,,,,,,-0.434895833,-0.264322917,1,0,0,2.1878,Andesite_rect,0,0,0,0,1,
60fe3a34f7f4d5e48ad56af2,SCR,2024-06-21_12h47.17.586,LearnStrategy,2023.2.3,Win32,59.88023952,5,2,2,,,,,,,,7,10,,,,,,,,,,,,,7,1.089,1,,,,,,0.12890625,-0.40234375,1,0,0,1.0889,Peridotite_rect,1,0,1,0,1,
60fe3a34f7f4d5e48ad56af2,SCR,2024-06-21_12h47.17.586,LearnStrategy,2023.2.3,Win32,59.88023952,5,2,3,,,,,,,,8,16,,,,,,,,,,,,,8,1.223,1,,,,,,0.427083333,-0.407552083,1,0,0,1.223,Pumice_rect,2,0,2,0,1,
60fe3a34f7f4d5e48ad56af2,SCR,2024-06-21_12h47.17.586,LearnStrategy,2023.2.3,Win32,59.88023952,5,2,4,,,,,,,,2,02,,,,,,,,,,,,,2,1.88,1,,,,,,-0.16015625,-0.2421875,1,0,0,1.8797,Basalt_rect,3,0,3,0,1,
60fe3a34f7f4d5e48ad56af2,SCR,2024-06-21_12h47.17.586,LearnStrategy,2023.2.3,Win32,59.88023952,5,2,5,,,,,,,,3,02,,,,,,,,,,,,,3,1.051,1,,,,,,0.157552083,-0.240885417,1,0,0,1.0509,Diorite_rect,4,0,4,0,1,
60fe3a34f7f4d5e48ad56af2,SCR,2024-06-21_12h47.17.586,LearnStrategy,2023.2.3,Win32,59.88023952,5,2,6,,,,,,,,1,09,,,,,,,,,,,,,1,2.021,1,,,,,,-0.385416667,-0.252604167,1,0,0,2.0208,Andesite_rect,5,0,5,0,1,
60fe3a34f7f4d5e48ad56af2,SCR,2024-06-21_12h47.17.586,LearnStrategy,2023.2.3,Win32,59.88023952,5,2,7,,,,,,,,7,05,,,,,,,,,,,,,7,1.223,1,,,,,,0.162760417,-0.38671875,1,0,0,1.2229,Peridotite_rect,6,0,6,0,1,
60fe3a34f7f4d5e48ad56af2,SCR,2024-06-21_12h47.17.586,LearnStrategy,2023.2.3,Win32,59.88023952,5,2,8,,,,,,,,8,10,,,,,,,,,,,,,8,0.921,1,,,,,,0.369791667,-0.38671875,1,0,0,0.9213,Pumice_rect,7,0,7,0,1,
60fe3a34f7f4d5e48ad56af2,SCR,2024-06-21_12h47.17.586,LearnStrategy,2023.2.3,Win32,59.88023952,5,2,9,,,,,,,,4,15,,,,,,,,,,,,,4,1.006,1,,,,,,0.415364583,-0.248697917,1,0,0,1.0057,Gabbro_rect,8,0,8,0,1,
60fe3a34f7f4d5e48ad56af2,SCR,2024-06-21_12h47.17.586,LearnStrategy,2023.2.3,Win32,59.88023952,5,2,10,,,,,,,,3,16,,,,,,,,,,,,,3,1.078,1,,,,,,0.071614583,-0.24609375,1,0,0,1.0783,Diorite_rect,9,0,9,0,1,
60fe3a34f7f4d5e48ad56af2,SCR,2024-06-21_12h47.17.586,LearnStrategy,2023.2.3,Win32,59.88023952,5,2,11,,,,,,,,2,08,,,,,,,,,,,,,2,1.638,1,,,,,,-0.1171875,-0.252604167,1,0,0,1.638,Basalt_rect,10,0,10,0,1,
60fe3a34f7f4d5e48ad56af2,SCR,2024-06-21_12h47.17.586,LearnStrategy,2023.2.3,Win32,59.88023952,5,2,12,,,,,,,,6,03,,,,,,,,,,,,,6,1.105,1,,,,,,-0.076822917,-0.390625,1,0,0,1.105,Pegmatite_rect,11,0,11,0,1,
60fe3a34f7f4d5e48ad56af2,SCR,2024-06-21_12h47.17.586,LearnStrategy,2023.2.3,Win32,59.88023952,5,2,13,,,,,,,,5,07,,,,,,,,,,,,,5,1.587,1,,,,,,-0.388020833,-0.40234375,1,0,0,1.5873,Obsidian_rect,12,0,12,0,1,
60fe3a34f7f4d5e48ad56af2,SCR,2024-06-21_12h47.17.586,LearnStrategy,2023.2.3,Win32,59.88023952,5,2,14,,,,,,,,4,03,,,,,,,,,,,,,4,3.07,1,,,,,,0.395833333,-0.243489583,1,0,0,3.0699,Gabbro_rect,13,0,13,0,1,
60fe3a34f7f4d5e48ad56af2,SCR,2024-06-21_12h47.17.586,LearnStrategy,2023.2.3,Win32,59.88023952,5,2,15,,,,,,,,6,15,,,,,,,,,,,,,6,6.159,1,,,,,,-0.115885417,-0.393229167,1,0,0,6.1594,Pegmatite_rect,14,0,14,0,1,
60fe3a34f7f4d5e48ad56af2,SCR,2024-06-21_12h47.17.586,LearnStrategy,2023.2.3,Win32,59.88023952,5,2,16,,,,,,,,5,02,,,,,,,,,,,,,5,0.787,1,,,,,,-0.346354167,-0.399739583,1,0,0,0.7867,Obsidian_rect,15,0,15,0,1,
60fe3a34f7f4d5e48ad56af2,SCR,2024-06-21_12h47.17.586,LearnStrategy,2023.2.3,Win32,59.88023952,6,1,1,-0.0546875,0.098958333,1,0,0,1.3635,Andesite_10,1,10,4,4,1.364,1,10,0.412760417,-0.2421875,1,0,0,1.3595,Gabbro_rect,4,1.36,0,0,0,0,0,1,,,,,,,,,,,,,
60fe3a34f7f4d5e48ad56af2,SCR,2024-06-21_12h47.17.586,LearnStrategy,2023.2.3,Win32,59.88023952,6,1,2,-0.057291667,0.2578125,1,0,0,0.8826,Peridotite_07,7,07,5,4,0.883,7,07,0.100260417,-0.3828125,1,0,0,0.8641,Peridotite_rect,7,0.864,1,1,0,1,0,1,,,,,,,,,,,,,
60fe3a34f7f4d5e48ad56af2,SCR,2024-06-21_12h47.17.586,LearnStrategy,2023.2.3,Win32,59.88023952,6,1,3,-0.252604167,-0.407552083,1,0,0,0.8846,Basalt_05,2,05,1,3,0.885,2,05,-0.122395833,-0.236979167,1,0,0,0.9555,Basalt_rect,2,0.956,1,2,0,2,0,1,,,,,,,,,,,,,
60fe3a34f7f4d5e48ad56af2,SCR,2024-06-21_12h47.17.586,LearnStrategy,2023.2.3,Win32,59.88023952,6,1,4,-0.079427083,-0.233072917,1,0,0,0.8806,Andesite_04,1,04,2,4,0.881,1,04,-0.40234375,-0.23046875,1,0,0,0.9436,Andesite_rect,1,0.944,1,3,0,3,0,1,,,,,,,,,,,,,
60fe3a34f7f4d5e48ad56af2,SCR,2024-06-21_12h47.17.586,LearnStrategy,2023.2.3,Win32,59.88023952,6,1,5,-0.2421875,0.079427083,1,0,0,0.7482,Diorite_10,3,10,4,3,0.748,3,10,0.147135417,-0.252604167,1,0,0,1.5253,Diorite_rect,3,1.525,1,4,0,4,0,1,,,,,,,,,,,,,
60fe3a34f7f4d5e48ad56af2,SCR,2024-06-21_12h47.17.586,LearnStrategy,2023.2.3,Win32,59.88023952,6,1,6,-0.3828125,-0.083333333,1,0,0,0.7643,Obsidian_11,5,11,3,2,0.764,5,11,-0.3984375,-0.385416667,1,0,0,0.6935,Obsidian_rect,5,0.694,1,5,0,5,0,1,,,,,,,,,,,,,
60fe3a34f7f4d5e48ad56af2,SCR,2024-06-21_12h47.17.586,LearnStrategy,2023.2.3,Win32,59.88023952,6,1,7,0.09765625,-0.109375,1,0,0,0.7971,Pumice_13,8,13,3,5,0.797,8,13,0.36328125,-0.393229167,1,0,0,0.6435,Pumice_rect,8,0.643,1,6,0,6,0,1,,,,,,,,,,,,,
60fe3a34f7f4d5e48ad56af2,SCR,2024-06-21_12h47.17.586,LearnStrategy,2023.2.3,Win32,59.88023952,6,1,8,-0.236979167,-0.236979167,1,0,0,0.715,Diorite_13,3,13,2,3,0.715,3,13,0.138020833,-0.24609375,1,0,0,3.2745,Diorite_rect,3,3.274,1,7,0,7,0,1,,,,,,,,,,,,,
60fe3a34f7f4d5e48ad56af2,SCR,2024-06-21_12h47.17.586,LearnStrategy,2023.2.3,Win32,59.88023952,6,1,9,0.404947917,0.415364583,1,0,0,1.0307,Basalt_04,2,04,6,7,1.031,2,04,-0.096354167,-0.236979167,1,0,0,1.1261,Basalt_rect,2,1.126,1,8,0,8,0,1,,,,,,,,,,,,,
60fe3a34f7f4d5e48ad56af2,SCR,2024-06-21_12h47.17.586,LearnStrategy,2023.2.3,Win32,59.88023952,6,1,10,0.247395833,-0.098958333,1,0,0,0.6985,Gabbro_13,4,13,3,6,0.698,4,13,0.401041667,-0.248697917,1,0,0,3.208,Gabbro_rect,4,3.208,1,9,0,9,0,1,,,,,,,,,,,,,
60fe3a34f7f4d5e48ad56af2,SCR,2024-06-21_12h47.17.586,LearnStrategy,2023.2.3,Win32,59.88023952,6,1,11,-0.092447917,-0.276041667,1,0,0,0.648,Andesite_04,1,04,2,4,0.648,1,04,-0.388020833,-0.233072917,1,0,0,1.4096,Andesite_rect,1,1.41,1,10,0,10,0,1,,,,,,,,,,,,,
60fe3a34f7f4d5e48ad56af2,SCR,2024-06-21_12h47.17.586,LearnStrategy,2023.2.3,Win32,59.88023952,6,1,12,-0.079427083,-0.384114583,1,0,0,0.7406,Diorite_15,3,15,1,4,0.741,3,15,0.110677083,-0.240885417,1,0,0,1.51,Diorite_rect,3,1.51,1,11,0,11,0,1,,,,,,,,,,,,,
60fe3a34f7f4d5e48ad56af2,SCR,2024-06-21_12h47.17.586,LearnStrategy,2023.2.3,Win32,59.88023952,6,1,13,-0.197916667,0.420572917,1,0,0,0.9644,Andesite_06,1,06,6,3,0.964,1,06,-0.345052083,-0.244791667,1,0,0,1.2595,Andesite_rect,1,1.259,1,12,0,12,0,1,,,,,,,,,,,,,
60fe3a34f7f4d5e48ad56af2,SCR,2024-06-21_12h47.17.586,LearnStrategy,2023.2.3,Win32,59.88023952,6,1,14,0.067708333,-0.421875,1,0,0,0.857,Gabbro_14,4,14,1,5,0.857,4,14,0.376302083,-0.239583333,1,0,0,2.1921,Gabbro_rect,4,2.192,1,13,0,13,0,1,,,,,,,,,,,,,
60fe3a34f7f4d5e48ad56af2,SCR,2024-06-21_12h47.17.586,LearnStrategy,2023.2.3,Win32,59.88023952,6,1,15,0.0703125,-0.252604167,1,0,0,0.6319,Pegmatite_12,6,12,2,5,0.632,6,12,-0.122395833,-0.408854167,1,0,0,2.7752,Pegmatite_rect,6,2.775,1,14,0,14,0,1,,,,,,,,,,,,,
60fe3a34f7f4d5e48ad56af2,SCR,2024-06-21_12h47.17.586,LearnStrategy,2023.2.3,Win32,59.88023952,6,1,16,-0.223958333,-0.118489583,1,0,0,0.6484,Peridotite_06,7,06,3,3,0.648,7,06,0.08984375,-0.390625,1,0,0,0.8268,Peridotite_rect,7,0.827,1,15,0,15,0,1,,,,,,,,,,,,,
60fe3a34f7f4d5e48ad56af2,SCR,2024-06-21_12h47.17.586,LearnStrategy,2023.2.3,Win32,59.88023952,6,2,1,,,,,,,,3,11,,,,,,,,,,,,,1,3.169,0,,,,,,-0.369791667,-0.23828125,1,0,0,3.1686,Andesite_rect,0,0,0,0,1,
60fe3a34f7f4d5e48ad56af2,SCR,2024-06-21_12h47.17.586,LearnStrategy,2023.2.3,Win32,59.88023952,6,2,2,,,,,,,,5,05,,,,,,,,,,,,,5,1.708,1,,,,,,-0.3671875,-0.40625,1,0,0,1.7077,Obsidian_rect,1,0,1,0,1,
60fe3a34f7f4d5e48ad56af2,SCR,2024-06-21_12h47.17.586,LearnStrategy,2023.2.3,Win32,59.88023952,6,2,3,,,,,,,,3,12,,,,,,,,,,,,,3,1.955,1,,,,,,0.134114583,-0.231770833,1,0,0,1.9547,Diorite_rect,2,0,2,0,1,
60fe3a34f7f4d5e48ad56af2,SCR,2024-06-21_12h47.17.586,LearnStrategy,2023.2.3,Win32,59.88023952,6,2,4,,,,,,,,4,08,,,,,,,,,,,,,2,1.422,0,,,,,,-0.131510417,-0.239583333,1,0,0,1.4216,Basalt_rect,3,0,3,0,1,
60fe3a34f7f4d5e48ad56af2,SCR,2024-06-21_12h47.17.586,LearnStrategy,2023.2.3,Win32,59.88023952,6,2,5,,,,,,,,1,02,,,,,,,,,,,,,4,2.288,0,,,,,,0.352864583,-0.248697917,1,0,0,2.2883,Gabbro_rect,4,0,4,0,1,
60fe3a34f7f4d5e48ad56af2,SCR,2024-06-21_12h47.17.586,LearnStrategy,2023.2.3,Win32,59.88023952,6,2,6,,,,,,,,8,09,,,,,,,,,,,,,8,0.973,1,,,,,,0.3359375,-0.391927083,1,0,0,0.9728,Pumice_rect,5,0,5,0,1,
60fe3a34f7f4d5e48ad56af2,SCR,2024-06-21_12h47.17.586,LearnStrategy,2023.2.3,Win32,59.88023952,6,2,7,,,,,,,,6,05,,,,,,,,,,,,,6,2.706,1,,,,,,-0.083333333,-0.403645833,1,0,0,2.7055,Pegmatite_rect,6,0,6,0,1,
60fe3a34f7f4d5e48ad56af2,SCR,2024-06-21_12h47.17.586,LearnStrategy,2023.2.3,Win32,59.88023952,6,2,8,,,,,,,,8,04,,,,,,,,,,,,,8,0.889,1,,,,,,0.341145833,-0.40234375,1,0,0,0.8888,Pumice_rect,7,0,7,0,1,
60fe3a34f7f4d5e48ad56af2,SCR,2024-06-21_12h47.17.586,LearnStrategy,2023.2.3,Win32,59.88023952,6,2,9,,,,,,,,1,03,,,,,,,,,,,,,4,1.655,0,,,,,,0.376302083,-0.239583333,1,0,0,1.655,Gabbro_rect,8,0,8,0,1,
60fe3a34f7f4d5e48ad56af2,SCR,2024-06-21_12h47.17.586,LearnStrategy,2023.2.3,Win32,59.88023952,6,2,10,,,,,,,,2,12,,,,,,,,,,,,,8,1.58,0,,,,,,0.342447917,-0.407552083,1,0,0,1.5801,Pumice_rect,9,0,9,0,1,
60fe3a34f7f4d5e48ad56af2,SCR,2024-06-21_12h47.17.586,LearnStrategy,2023.2.3,Win32,59.88023952,6,2,11,,,,,,,,7,16,,,,,,,,,,,,,7,3.253,1,,,,,,0.10546875,-0.412760417,1,0,0,3.2534,Peridotite_rect,10,0,10,0,1,
60fe3a34f7f4d5e48ad56af2,SCR,2024-06-21_12h47.17.586,LearnStrategy,2023.2.3,Win32,59.88023952,6,2,12,,,,,,,,4,16,,,,,,,,,,,,,2,1.638,0,,,,,,-0.122395833,-0.2421875,1,0,0,1.6384,Basalt_rect,11,0,11,0,1,
60fe3a34f7f4d5e48ad56af2,SCR,2024-06-21_12h47.17.586,LearnStrategy,2023.2.3,Win32,59.88023952,6,2,13,,,,,,,,7,04,,,,,,,,,,,,,1,2.339,0,,,,,,-0.369791667,-0.2578125,1,0,0,2.339,Andesite_rect,12,0,12,0,1,
60fe3a34f7f4d5e48ad56af2,SCR,2024-06-21_12h47.17.586,LearnStrategy,2023.2.3,Win32,59.88023952,6,2,14,,,,,,,,5,14,,,,,,,,,,,,,5,0.822,1,,,,,,-0.373697917,-0.381510417,1,0,0,0.8219,Obsidian_rect,13,0,13,0,1,
60fe3a34f7f4d5e48ad56af2,SCR,2024-06-21_12h47.17.586,LearnStrategy,2023.2.3,Win32,59.88023952,6,2,15,,,,,,,,2,10,,,,,,,,,,,,,2,1.538,1,,,,,,-0.138020833,-0.252604167,1,0,0,1.5381,Basalt_rect,14,0,14,0,1,
60fe3a34f7f4d5e48ad56af2,SCR,2024-06-21_12h47.17.586,LearnStrategy,2023.2.3,Win32,59.88023952,6,2,16,,,,,,,,6,10,,,,,,,,,,,,,6,3.819,1,,,,,,-0.134114583,-0.401041667,1,0,0,3.8188,Pegmatite_rect,15,0,15,0,1,
60fe3a34f7f4d5e48ad56af2,SCR,2024-06-21_12h47.17.586,LearnStrategy,2023.2.3,Win32,59.88023952,7,1,1,0.079427083,0.118489583,1,0,0,0.7649,Basalt_09,2,09,4,5,0.765,2,09,0.342447917,-0.255208333,1,0,0,2.4751,Gabbro_rect,4,2.475,0,0,0,0,0,1,,,,,,,,,,,,,
60fe3a34f7f4d5e48ad56af2,SCR,2024-06-21_12h47.17.586,LearnStrategy,2023.2.3,Win32,59.88023952,7,1,2,0.3671875,-0.244791667,1,0,0,0.981,Gabbro_05,4,05,2,7,0.981,4,05,0.3671875,-0.244791667,1,0,0,2.4919,Gabbro_rect,4,2.492,1,1,0,1,0,1,,,,,,,,,,,,,
60fe3a34f7f4d5e48ad56af2,SCR,2024-06-21_12h47.17.586,LearnStrategy,2023.2.3,Win32,59.88023952,7,1,3,-0.0703125,0.244791667,1,0,0,1.0809,Peridotite_07,7,07,5,4,1.081,7,07,0.102864583,-0.393229167,1,0,0,1.3589,Peridotite_rect,7,1.359,1,2,0,2,0,1,,,,,,,,,,,,,
60fe3a34f7f4d5e48ad56af2,SCR,2024-06-21_12h47.17.586,LearnStrategy,2023.2.3,Win32,59.88023952,7,1,4,-0.526041667,-0.380208333,1,0,0,0.7476,Diorite_06,3,06,1,1,0.748,3,06,-0.377604167,-0.251302083,1,0,0,1.5748,Andesite_rect,1,1.575,0,3,0,3,0,1,,,,,,,,,,,,,
60fe3a34f7f4d5e48ad56af2,SCR,2024-06-21_12h47.17.586,LearnStrategy,2023.2.3,Win32,59.88023952,7,1,5,0.557291667,0.252604167,1,0,0,0.998,Andesite_07,1,07,5,8,0.998,1,07,-0.380208333,-0.23828125,1,0,0,1.4028,Andesite_rect,1,1.403,1,4,0,4,0,1,,,,,,,,,,,,,
60fe3a34f7f4d5e48ad56af2,SCR,2024-06-21_12h47.17.586,LearnStrategy,2023.2.3,Win32,59.88023952,7,1,6,-0.10546875,0.078125,1,0,0,0.6643,Andesite_10,1,10,4,4,0.664,1,10,0.384114583,-0.236979167,1,0,0,1.8431,Gabbro_rect,4,1.843,0,5,0,5,0,1,,,,,,,,,,,,,
60fe3a34f7f4d5e48ad56af2,SCR,2024-06-21_12h47.17.586,LearnStrategy,2023.2.3,Win32,59.88023952,7,1,7,0.23046875,0.098958333,1,0,0,0.798,Basalt_16,2,16,4,6,0.798,2,16,0.359375,-0.24609375,1,0,0,1.6968,Gabbro_rect,4,1.697,0,6,0,6,0,1,,,,,,,,,,,,,
60fe3a34f7f4d5e48ad56af2,SCR,2024-06-21_12h47.17.586,LearnStrategy,2023.2.3,Win32,59.88023952,7,1,8,-0.076822917,-0.096354167,1,0,0,0.5985,Peridotite_15,7,15,3,4,0.598,7,15,0.151041667,-0.391927083,1,0,0,0.6435,Peridotite_rect,7,0.643,1,7,0,7,0,1,,,,,,,,,,,,,
60fe3a34f7f4d5e48ad56af2,SCR,2024-06-21_12h47.17.586,LearnStrategy,2023.2.3,Win32,59.88023952,7,1,9,-0.209635417,0.108072917,1,0,0,0.6985,Diorite_10,3,10,4,3,0.698,3,10,-0.342447917,-0.244791667,1,0,0,7.653,Andesite_rect,1,7.653,0,8,0,8,0,1,,,,,,,,,,,,,
60fe3a34f7f4d5e48ad56af2,SCR,2024-06-21_12h47.17.586,LearnStrategy,2023.2.3,Win32,59.88023952,7,1,10,0.057291667,-0.393229167,1,0,0,1.3641,Gabbro_14,4,14,1,5,1.364,4,14,0.365885417,-0.236979167,1,0,0,1.2646,Gabbro_rect,4,1.265,1,9,0,9,0,1,,,,,,,,,,,,,
60fe3a34f7f4d5e48ad56af2,SCR,2024-06-21_12h47.17.586,LearnStrategy,2023.2.3,Win32,59.88023952,7,1,11,0.110677083,0.26953125,1,0,0,0.8316,Pegmatite_11,6,11,5,5,0.832,6,11,-0.079427083,-0.395833333,1,0,0,0.6927,Pegmatite_rect,6,0.693,1,10,0,10,0,1,,,,,,,,,,,,,
60fe3a34f7f4d5e48ad56af2,SCR,2024-06-21_12h47.17.586,LearnStrategy,2023.2.3,Win32,59.88023952,7,1,12,-0.348958333,0.118489583,1,0,0,0.897,Obsidian_09,5,09,4,2,0.897,5,09,-0.3671875,-0.404947917,1,0,0,0.5101,Obsidian_rect,5,0.51,1,11,0,11,0,1,,,,,,,,,,,,,
60fe3a34f7f4d5e48ad56af2,SCR,2024-06-21_12h47.17.586,LearnStrategy,2023.2.3,Win32,59.88023952,7,1,13,0.26953125,0.263020833,1,0,0,0.7976,Pumice_06,8,06,5,6,0.798,8,06,0.397135417,-0.40234375,1,0,0,0.6768,Pumice_rect,8,0.677,1,12,0,12,0,1,,,,,,,,,,,,,
60fe3a34f7f4d5e48ad56af2,SCR,2024-06-21_12h47.17.586,LearnStrategy,2023.2.3,Win32,59.88023952,7,1,14,-0.403645833,0.24609375,1,0,0,0.9141,Andesite_16,1,16,5,2,0.914,1,16,0.0859375,-0.24609375,1,0,0,1.1265,Diorite_rect,3,1.126,0,13,0,13,0,1,,,,,,,,,,,,,
60fe3a34f7f4d5e48ad56af2,SCR,2024-06-21_12h47.17.586,LearnStrategy,2023.2.3,Win32,59.88023952,7,1,15,-0.091145833,-0.268229167,1,0,0,0.8145,Andesite_04,1,04,2,4,0.814,1,04,-0.375,-0.251302083,1,0,0,1.9255,Andesite_rect,1,1.925,1,14,0,14,0,1,,,,,,,,,,,,,
60fe3a34f7f4d5e48ad56af2,SCR,2024-06-21_12h47.17.586,LearnStrategy,2023.2.3,Win32,59.88023952,7,1,16,0.407552083,0.231770833,1,0,0,0.8311,Gabbro_11,4,11,5,7,0.831,4,11,-0.102864583,-0.2421875,1,0,0,1.3595,Basalt_rect,2,1.36,0,15,0,15,0,1,,,,,,,,,,,,,
60fe3a34f7f4d5e48ad56af2,SCR,2024-06-21_12h47.17.586,LearnStrategy,2023.2.3,Win32,59.88023952,7,2,1,,,,,,,,1,02,,,,,,,,,,,,,4,2.122,0,,,,,,0.3984375,-0.235677083,1,0,0,2.1223,Gabbro_rect,0,0,0,0,1,
60fe3a34f7f4d5e48ad56af2,SCR,2024-06-21_12h47.17.586,LearnStrategy,2023.2.3,Win32,59.88023952,7,2,2,,,,,,,,3,12,,,,,,,,,,,,,3,1.955,1,,,,,,0.119791667,-0.25,1,0,0,1.9546,Diorite_rect,1,0,1,0,1,
60fe3a34f7f4d5e48ad56af2,SCR,2024-06-21_12h47.17.586,LearnStrategy,2023.2.3,Win32,59.88023952,7,2,3,,,,,,,,6,10,,,,,,,,,,,,,7,2.654,0,,,,,,0.127604167,-0.3984375,1,0,0,2.6539,Peridotite_rect,2,0,2,0,1,
60fe3a34f7f4d5e48ad56af2,SCR,2024-06-21_12h47.17.586,LearnStrategy,2023.2.3,Win32,59.88023952,7,2,4,,,,,,,,7,05,,,,,,,,,,,,,7,1.288,1,,,,,,0.127604167,-0.3984375,1,0,0,1.288,Peridotite_rect,3,0,3,0,1,
60fe3a34f7f4d5e48ad56af2,SCR,2024-06-21_12h47.17.586,LearnStrategy,2023.2.3,Win32,59.88023952,7,2,5,,,,,,,,4,08,,,,,,,,,,,,,2,3.32,0,,,,,,-0.141927083,-0.234375,1,0,0,3.32,Basalt_rect,4,0,4,0,1,
60fe3a34f7f4d5e48ad56af2,SCR,2024-06-21_12h47.17.586,LearnStrategy,2023.2.3,Win32,59.88023952,7,2,6,,,,,,,,6,13,,,,,,,,,,,,,6,1.208,1,,,,,,-0.108072917,-0.399739583,1,0,0,1.2076,Pegmatite_rect,5,0,5,0,1,
60fe3a34f7f4d5e48ad56af2,SCR,2024-06-21_12h47.17.586,LearnStrategy,2023.2.3,Win32,59.88023952,7,2,7,,,,,,,,8,05,,,,,,,,,,,,,8,0.889,1,,,,,,0.380208333,-0.40234375,1,0,0,0.8887,Pumice_rect,6,0,6,0,1,
60fe3a34f7f4d5e48ad56af2,SCR,2024-06-21_12h47.17.586,LearnStrategy,2023.2.3,Win32,59.88023952,7,2,8,,,,,,,,2,10,,,,,,,,,,,,,2,2.47,1,,,,,,-0.134114583,-0.25,1,0,0,2.4699,Basalt_rect,7,0,7,0,1,
60fe3a34f7f4d5e48ad56af2,SCR,2024-06-21_12h47.17.586,LearnStrategy,2023.2.3,Win32,59.88023952,7,2,9,,,,,,,,1,11,,,,,,,,,,,,,4,2.171,0,,,,,,0.365885417,-0.252604167,1,0,0,2.1713,Gabbro_rect,8,0,8,0,1,
60fe3a34f7f4d5e48ad56af2,SCR,2024-06-21_12h47.17.586,LearnStrategy,2023.2.3,Win32,59.88023952,7,2,10,,,,,,,,7,12,,,,,,,,,,,,,7,0.922,1,,,,,,0.092447917,-0.408854167,1,0,0,0.9216,Peridotite_rect,9,0,9,0,1,
60fe3a34f7f4d5e48ad56af2,SCR,2024-06-21_12h47.17.586,LearnStrategy,2023.2.3,Win32,59.88023952,7,2,11,,,,,,,,5,05,,,,,,,,,,,,,5,0.823,1,,,,,,-0.348958333,-0.399739583,1,0,0,0.8234,Obsidian_rect,10,0,10,0,1,
60fe3a34f7f4d5e48ad56af2,SCR,2024-06-21_12h47.17.586,LearnStrategy,2023.2.3,Win32,59.88023952,7,2,12,,,,,,,,2,06,,,,,,,,,,,,,2,1.122,1,,,,,,-0.11328125,-0.239583333,1,0,0,1.1218,Basalt_rect,11,0,11,0,1,
60fe3a34f7f4d5e48ad56af2,SCR,2024-06-21_12h47.17.586,LearnStrategy,2023.2.3,Win32,59.88023952,7,2,13,,,,,,,,4,10,,,,,,,,,,,,,1,1.638,0,,,,,,-0.35546875,-0.239583333,1,0,0,1.638,Andesite_rect,12,0,12,0,1,
60fe3a34f7f4d5e48ad56af2,SCR,2024-06-21_12h47.17.586,LearnStrategy,2023.2.3,Win32,59.88023952,7,2,14,,,,,,,,8,16,,,,,,,,,,,,,8,1.505,1,,,,,,0.34765625,-0.388020833,1,0,0,1.5049,Pumice_rect,13,0,13,0,1,
60fe3a34f7f4d5e48ad56af2,SCR,2024-06-21_12h47.17.586,LearnStrategy,2023.2.3,Win32,59.88023952,7,2,15,,,,,,,,3,07,,,,,,,,,,,,,3,1.238,1,,,,,,0.10546875,-0.25,1,0,0,1.238,Diorite_rect,14,0,14,0,1,
60fe3a34f7f4d5e48ad56af2,SCR,2024-06-21_12h47.17.586,LearnStrategy,2023.2.3,Win32,59.88023952,7,2,16,,,,,,,,5,02,,,,,,,,,,,,,5,0.772,1,,,,,,-0.356770833,-0.3984375,1,0,0,0.7723,Obsidian_rect,15,0,15,0,1,
60fe3a34f7f4d5e48ad56af2,SCR,2024-06-21_12h47.17.586,LearnStrategy,2023.2.3,Win32,59.88023952,8,1,1,0.067708333,-0.415364583,1,0,0,0.7634,Gabbro_14,4,14,1,5,0.763,4,14,0.404947917,-0.259114583,1,0,0,2.3583,Gabbro_rect,4,2.358,1,0,0,0,0,1,,,,,,,,,,,,,
60fe3a34f7f4d5e48ad56af2,SCR,2024-06-21_12h47.17.586,LearnStrategy,2023.2.3,Win32,59.88023952,8,1,2,-0.376302083,0.239583333,1,0,0,1.0783,Andesite_16,1,16,5,2,1.078,1,16,-0.365885417,-0.240885417,1,0,0,1.9921,Andesite_rect,1,1.992,1,1,0,1,0,1,,,,,,,,,,,,,
60fe3a34f7f4d5e48ad56af2,SCR,2024-06-21_12h47.17.586,LearnStrategy,2023.2.3,Win32,59.88023952,8,1,3,0.092447917,0.08984375,1,0,0,0.8318,Basalt_09,2,09,4,5,0.832,2,09,-0.1328125,-0.231770833,1,0,0,1.0427,Basalt_rect,2,1.043,1,2,0,2,0,1,,,,,,,,,,,,,
60fe3a34f7f4d5e48ad56af2,SCR,2024-06-21_12h47.17.586,LearnStrategy,2023.2.3,Win32,59.88023952,8,1,4,-0.368489583,0.08984375,1,0,0,0.9146,Obsidian_09,5,09,4,2,0.915,5,09,-0.368489583,-0.399739583,1,0,0,0.6608,Obsidian_rect,5,0.661,1,3,0,3,0,1,,,,,,,,,,,,,
60fe3a34f7f4d5e48ad56af2,SCR,2024-06-21_12h47.17.586,LearnStrategy,2023.2.3,Win32,59.88023952,8,1,5,0.06640625,0.263020833,1,0,0,2.1972,Pegmatite_11,6,11,5,5,2.197,6,11,-0.109375,-0.416666667,1,0,0,0.594,Pegmatite_rect,6,0.594,1,4,0,4,0,1,,,,,,,,,,,,,
60fe3a34f7f4d5e48ad56af2,SCR,2024-06-21_12h47.17.586,LearnStrategy,2023.2.3,Win32,59.88023952,8,1,6,0.408854167,-0.264322917,1,0,0,1.1477,Gabbro_05,4,05,2,7,1.148,4,05,-0.364583333,-0.236979167,1,0,0,2.4919,Andesite_rect,1,2.492,0,5,0,5,0,1,,,,,,,,,,,,,
60fe3a34f7f4d5e48ad56af2,SCR,2024-06-21_12h47.17.586,LearnStrategy,2023.2.3,Win32,59.88023952,8,1,7,-0.22265625,0.057291667,1,0,0,0.7239,Diorite_10,3,10,4,3,0.724,3,10,-0.384114583,-0.244791667,1,0,0,2.5248,Andesite_rect,1,2.525,0,6,0,6,0,1,,,,,,,,,,,,,
60fe3a34f7f4d5e48ad56af2,SCR,2024-06-21_12h47.17.586,LearnStrategy,2023.2.3,Win32,59.88023952,8,1,8,-0.536458333,0.434895833,1,0,0,1.1475,Basalt_01,2,01,6,1,1.147,2,01,-0.114583333,-0.2421875,1,0,0,1.1269,Basalt_rect,2,1.127,1,7,0,7,0,1,,,,,,,,,,,,,
60fe3a34f7f4d5e48ad56af2,SCR,2024-06-21_12h47.17.586,LearnStrategy,2023.2.3,Win32,59.88023952,8,1,9,0.092447917,-0.40234375,1,0,0,0.7487,Gabbro_14,4,14,1,5,0.749,4,14,0.372395833,-0.25390625,1,0,0,2.3581,Gabbro_rect,4,2.358,1,8,0,8,0,1,,,,,,,,,,,,,
60fe3a34f7f4d5e48ad56af2,SCR,2024-06-21_12h47.17.586,LearnStrategy,2023.2.3,Win32,59.88023952,8,1,10,-0.059895833,0.098958333,1,0,0,0.682,Andesite_10,1,10,4,4,0.682,1,10,-0.419270833,-0.234375,1,0,0,1.8299,Andesite_rect,1,1.83,1,9,0,9,0,1,,,,,,,,,,,,,
60fe3a34f7f4d5e48ad56af2,SCR,2024-06-21_12h47.17.586,LearnStrategy,2023.2.3,Win32,59.88023952,8,1,11,0.571614583,-0.395833333,1,0,0,1.1644,Pumice_02,8,02,1,8,1.164,8,02,0.390625,-0.412760417,1,0,0,1.0238,Pumice_rect,8,1.024,1,10,0,10,0,1,,,,,,,,,,,,,
60fe3a34f7f4d5e48ad56af2,SCR,2024-06-21_12h47.17.586,LearnStrategy,2023.2.3,Win32,59.88023952,8,1,12,-0.225260417,0.252604167,1,0,0,1.0312,Gabbro_01,4,01,5,3,1.031,4,01,-0.361979167,-0.23828125,1,0,0,1.1987,Andesite_rect,1,1.199,0,11,0,11,0,1,,,,,,,,,,,,,
60fe3a34f7f4d5e48ad56af2,SCR,2024-06-21_12h47.17.586,LearnStrategy,2023.2.3,Win32,59.88023952,8,1,13,-0.375,-0.401041667,1,0,0,1.5601,Peridotite_08,7,08,1,2,1.56,7,08,0.11328125,-0.415364583,1,0,0,0.6302,Peridotite_rect,7,0.63,1,12,0,12,0,1,,,,,,,,,,,,,
60fe3a34f7f4d5e48ad56af2,SCR,2024-06-21_12h47.17.586,LearnStrategy,2023.2.3,Win32,59.88023952,8,1,14,-0.549479167,-0.25,1,0,0,0.9183,Andesite_05,1,05,2,1,0.918,1,05,-0.3671875,-0.25,1,0,0,1.4888,Andesite_rect,1,1.489,1,13,0,13,0,1,,,,,,,,,,,,,
60fe3a34f7f4d5e48ad56af2,SCR,2024-06-21_12h47.17.586,LearnStrategy,2023.2.3,Win32,59.88023952,8,1,15,-0.375,-0.252604167,1,0,0,0.8643,Pegmatite_08,6,08,2,2,0.864,6,08,-0.08203125,-0.41015625,1,0,0,0.9268,Pegmatite_rect,6,0.927,1,14,0,14,0,1,,,,,,,,,,,,,
60fe3a34f7f4d5e48ad56af2,SCR,2024-06-21_12h47.17.586,LearnStrategy,2023.2.3,Win32,59.88023952,8,1,16,-0.048177083,-0.25390625,1,0,0,0.9145,Andesite_04,1,04,2,4,0.914,1,04,0.377604167,-0.26171875,1,0,0,1.7763,Gabbro_rect,4,1.776,0,15,0,15,0,1,,,,,,,,,,,,,
60fe3a34f7f4d5e48ad56af2,SCR,2024-06-21_12h47.17.586,LearnStrategy,2023.2.3,Win32,59.88023952,8,2,1,,,,,,,,1,09,,,,,,,,,,,,,4,1.471,0,,,,,,0.381510417,-0.24609375,1,0,0,1.4715,Gabbro_rect,0,0,0,0,1,
60fe3a34f7f4d5e48ad56af2,SCR,2024-06-21_12h47.17.586,LearnStrategy,2023.2.3,Win32,59.88023952,8,2,2,,,,,,,,2,12,,,,,,,,,,,,,8,0.955,0,,,,,,0.397135417,-0.399739583,1,0,0,0.9555,Pumice_rect,1,0,1,0,1,
60fe3a34f7f4d5e48ad56af2,SCR,2024-06-21_12h47.17.586,LearnStrategy,2023.2.3,Win32,59.88023952,8,2,3,,,,,,,,8,08,,,,,,,,,,,,,8,1.019,1,,,,,,0.361979167,-0.389322917,1,0,0,1.019,Pumice_rect,2,0,2,0,1,
60fe3a34f7f4d5e48ad56af2,SCR,2024-06-21_12h47.17.586,LearnStrategy,2023.2.3,Win32,59.88023952,8,2,4,,,,,,,,7,10,,,,,,,,,,,,,7,0.955,1,,,,,,0.114583333,-0.401041667,1,0,0,0.9554,Peridotite_rect,3,0,3,0,1,
60fe3a34f7f4d5e48ad56af2,SCR,2024-06-21_12h47.17.586,LearnStrategy,2023.2.3,Win32,59.88023952,8,2,5,,,,,,,,8,10,,,,,,,,,,,,,8,1.156,1,,,,,,0.385416667,-0.38671875,1,0,0,1.1557,Pumice_rect,4,0,4,0,1,
60fe3a34f7f4d5e48ad56af2,SCR,2024-06-21_12h47.17.586,LearnStrategy,2023.2.3,Win32,59.88023952,8,2,6,,,,,,,,4,09,,,,,,,,,,,,,4,2.721,1,,,,,,0.388020833,-0.233072917,1,0,0,2.7206,Gabbro_rect,5,0,5,0,1,
60fe3a34f7f4d5e48ad56af2,SCR,2024-06-21_12h47.17.586,LearnStrategy,2023.2.3,Win32,59.88023952,8,2,7,,,,,,,,5,07,,,,,,,,,,,,,5,0.988,1,,,,,,-0.388020833,-0.399739583,1,0,0,0.9885,Obsidian_rect,6,0,6,0,1,
60fe3a34f7f4d5e48ad56af2,SCR,2024-06-21_12h47.17.586,LearnStrategy,2023.2.3,Win32,59.88023952,8,2,8,,,,,,,,6,05,,,,,,,,,,,,,6,1.187,1,,,,,,-0.125,-0.393229167,1,0,0,1.1874,Pegmatite_rect,7,0,7,0,1,
60fe3a34f7f4d5e48ad56af2,SCR,2024-06-21_12h47.17.586,LearnStrategy,2023.2.3,Win32,59.88023952,8,2,9,,,,,,,,6,15,,,,,,,,,,,,,6,1.038,1,,,,,,-0.125,-0.393229167,1,0,0,1.0384,Pegmatite_rect,8,0,8,0,1,
60fe3a34f7f4d5e48ad56af2,SCR,2024-06-21_12h47.17.586,LearnStrategy,2023.2.3,Win32,59.88023952,8,2,10,,,,,,,,1,14,,,,,,,,,,,,,1,1.156,1,,,,,,-0.375,-0.2421875,1,0,0,1.1556,Andesite_rect,9,0,9,0,1,
60fe3a34f7f4d5e48ad56af2,SCR,2024-06-21_12h47.17.586,LearnStrategy,2023.2.3,Win32,59.88023952,8,2,11,,,,,,,,7,16,,,,,,,,,,,,,7,0.989,1,,,,,,0.14453125,-0.399739583,1,0,0,0.9886,Peridotite_rect,10,0,10,0,1,
60fe3a34f7f4d5e48ad56af2,SCR,2024-06-21_12h47.17.586,LearnStrategy,2023.2.3,Win32,59.88023952,8,2,12,,,,,,,,4,03,,,,,,,,,,,,,2,1.205,0,,,,,,-0.108072917,-0.233072917,1,0,0,1.2051,Basalt_rect,11,0,11,0,1,
60fe3a34f7f4d5e48ad56af2,SCR,2024-06-21_12h47.17.586,LearnStrategy,2023.2.3,Win32,59.88023952,8,2,13,,,,,,,,5,16,,,,,,,,,,,,,5,0.922,1,,,,,,-0.375,-0.390625,1,0,0,0.9216,Obsidian_rect,12,0,12,0,1,
60fe3a34f7f4d5e48ad56af2,SCR,2024-06-21_12h47.17.586,LearnStrategy,2023.2.3,Win32,59.88023952,8,2,14,,,,,,,,3,14,,,,,,,,,,,,,3,1.171,1,,,,,,0.127604167,-0.247395833,1,0,0,1.1713,Diorite_rect,13,0,13,0,1,
60fe3a34f7f4d5e48ad56af2,SCR,2024-06-21_12h47.17.586,LearnStrategy,2023.2.3,Win32,59.88023952,8,2,15,,,,,,,,2,08,,,,,,,,,,,,,2,1.255,1,,,,,,-0.13671875,-0.243489583,1,0,0,1.2555,Basalt_rect,14,0,14,0,1,
60fe3a34f7f4d5e48ad56af2,SCR,2024-06-21_12h47.17.586,LearnStrategy,2023.2.3,Win32,59.88023952,8,2,16,,,,,,,,3,11,,,,,,,,,,,,,3,1.306,1,,,,,,0.102864583,-0.236979167,1,0,0,1.3058,Diorite_rect,15,0,15,0,1,
60fe3a34f7f4d5e48ad56af2,SCR,2024-06-21_12h47.17.586,LearnStrategy,2023.2.3,Win32,59.88023952,9,1,1,0.561197917,-0.268229167,1,0,0,2.2531,Gabbro_12,4,12,2,8,2.253,7,14,0.397135417,-0.236979167,1,0,0,1.0746,Gabbro_rect,4,1.075,1,0,0,0,0,1,,,,,,,,,,,,,
60fe3a34f7f4d5e48ad56af2,SCR,2024-06-21_12h47.17.586,LearnStrategy,2023.2.3,Win32,59.88023952,9,1,2,0.40625,0.268229167,1,0,0,1.3807,Gabbro_11,4,11,5,7,1.381,5,09,-0.098958333,-0.240885417,1,0,0,1.5485,Basalt_rect,2,1.548,0,1,0,1,0,1,,,,,,,,,,,,,
60fe3a34f7f4d5e48ad56af2,SCR,2024-06-21_12h47.17.586,LearnStrategy,2023.2.3,Win32,59.88023952,9,1,3,0.397135417,0.420572917,1,0,0,1.4141,Basalt_04,2,04,6,7,1.414,1,05,-0.11328125,-0.255208333,1,0,0,0.7993,Basalt_rect,2,0.799,1,2,0,2,0,1,,,,,,,,,,,,,
60fe3a34f7f4d5e48ad56af2,SCR,2024-06-21_12h47.17.586,LearnStrategy,2023.2.3,Win32,59.88023952,9,1,4,-0.368489583,0.239583333,1,0,0,2.0163,Andesite_16,1,16,5,2,2.016,1,04,-0.364583333,-0.25390625,1,0,0,1.3228,Andesite_rect,1,1.323,1,3,0,3,0,1,,,,,,,,,,,,,
60fe3a34f7f4d5e48ad56af2,SCR,2024-06-21_12h47.17.586,LearnStrategy,2023.2.3,Win32,59.88023952,9,1,5,-0.22265625,0.399739583,1,0,0,0.9812,Andesite_06,1,06,6,3,0.981,6,12,-0.359375,-0.239583333,1,0,0,1.559,Andesite_rect,1,1.559,1,4,0,4,0,1,,,,,,,,,,,,,
60fe3a34f7f4d5e48ad56af2,SCR,2024-06-21_12h47.17.586,LearnStrategy,2023.2.3,Win32,59.88023952,9,1,6,0.065104167,0.09375,1,0,0,1.5467,Basalt_09,2,09,4,5,1.547,4,14,-0.118489583,-0.259114583,1,0,0,0.7436,Basalt_rect,2,0.744,1,5,0,5,0,1,,,,,,,,,,,,,
60fe3a34f7f4d5e48ad56af2,SCR,2024-06-21_12h47.17.586,LearnStrategy,2023.2.3,Win32,59.88023952,9,1,7,-0.223958333,0.0859375,1,0,0,0.9813,Diorite_10,3,10,4,3,0.981,2,04,0.10546875,-0.239583333,1,0,0,1.2594,Diorite_rect,3,1.259,1,6,0,6,0,1,,,,,,,,,,,,,
60fe3a34f7f4d5e48ad56af2,SCR,2024-06-21_12h47.17.586,LearnStrategy,2023.2.3,Win32,59.88023952,9,1,8,0.3984375,0.072916667,1,0,0,1.048,Diorite_08,3,08,4,7,1.048,3,08,0.139322917,-0.243489583,1,0,0,6.5046,Diorite_rect,3,6.505,1,7,0,7,0,1,,,,,,,,,,,,,
60fe3a34f7f4d5e48ad56af2,SCR,2024-06-21_12h47.17.586,LearnStrategy,2023.2.3,Win32,59.88023952,9,1,9,-0.235677083,-0.2734375,1,0,0,2.8631,Diorite_13,3,13,2,3,2.863,2,16,0.098958333,-0.239583333,1,0,0,1.4087,Diorite_rect,3,1.409,1,8,0,8,0,1,,,,,,,,,,,,,
60fe3a34f7f4d5e48ad56af2,SCR,2024-06-21_12h47.17.586,LearnStrategy,2023.2.3,Win32,59.88023952,9,1,10,0.548177083,-0.3984375,1,0,0,1.2644,Pumice_02,8,02,1,8,1.264,8,02,0.365885417,-0.41015625,1,0,0,2.7421,Pumice_rect,8,2.742,1,9,0,9,0,1,,,,,,,,,,,,,
60fe3a34f7f4d5e48ad56af2,SCR,2024-06-21_12h47.17.586,LearnStrategy,2023.2.3,Win32,59.88023952,9,1,11,-0.07421875,0.061197917,1,0,0,1.8472,Andesite_10,1,10,4,4,1.847,1,10,-0.399739583,-0.240885417,1,0,0,1.8756,Andesite_rect,1,1.876,1,10,0,10,0,1,,,,,,,,,,,,,
60fe3a34f7f4d5e48ad56af2,SCR,2024-06-21_12h47.17.586,LearnStrategy,2023.2.3,Win32,59.88023952,9,1,12,-0.234375,-0.399739583,1,0,0,2.7297,Basalt_05,2,05,1,3,2.73,4,13,-0.145833333,-0.25390625,1,0,0,0.8181,Basalt_rect,2,0.818,1,11,0,11,0,1,,,,,,,,,,,,,
60fe3a34f7f4d5e48ad56af2,SCR,2024-06-21_12h47.17.586,LearnStrategy,2023.2.3,Win32,59.88023952,9,1,13,-0.360677083,-0.40234375,1,0,0,1.3477,Peridotite_08,7,08,1,2,1.348,4,14,0.122395833,-0.380208333,1,0,0,0.6654,Peridotite_rect,7,0.665,1,12,0,12,0,1,,,,,,,,,,,,,
60fe3a34f7f4d5e48ad56af2,SCR,2024-06-21_12h47.17.586,LearnStrategy,2023.2.3,Win32,59.88023952,9,1,14,0.2265625,-0.2734375,1,0,0,1.8156,Basalt_11,2,11,2,6,1.816,1,06,0.376302083,-0.26171875,1,0,0,1.2896,Gabbro_rect,4,1.29,0,13,0,13,0,1,,,,,,,,,,,,,
60fe3a34f7f4d5e48ad56af2,SCR,2024-06-21_12h47.17.586,LearnStrategy,2023.2.3,Win32,59.88023952,9,1,15,-0.0859375,0.259114583,1,0,0,1.5974,Peridotite_07,7,07,5,4,1.597,4,11,0.158854167,-0.404947917,1,0,0,0.9095,Peridotite_rect,7,0.909,1,14,0,14,0,1,,,,,,,,,,,,,
60fe3a34f7f4d5e48ad56af2,SCR,2024-06-21_12h47.17.586,LearnStrategy,2023.2.3,Win32,59.88023952,9,1,16,-0.21875,0.391927083,1,0,0,1.4308,Andesite_06,1,06,6,3,1.431,2,04,-0.372395833,-0.243489583,1,0,0,2.1835,Andesite_rect,1,2.184,1,15,0,15,0,1,,,,,,,,,,,,,
60fe3a34f7f4d5e48ad56af2,SCR,2024-06-21_12h47.17.586,LearnStrategy,2023.2.3,Win32,59.88023952,9,2,1,,,,,,,,5,14,,,,,,,,,,,,,5,1.023,1,,,,,,-0.403645833,-0.395833333,1,0,0,1.0232,Obsidian_rect,0,0,0,0,1,
60fe3a34f7f4d5e48ad56af2,SCR,2024-06-21_12h47.17.586,LearnStrategy,2023.2.3,Win32,59.88023952,9,2,2,,,,,,,,2,14,,,,,,,,,,,,,8,1.696,0,,,,,,0.42578125,-0.416666667,1,0,0,1.6959,Pumice_rect,1,0,1,0,1,
60fe3a34f7f4d5e48ad56af2,SCR,2024-06-21_12h47.17.586,LearnStrategy,2023.2.3,Win32,59.88023952,9,2,3,,,,,,,,4,16,,,,,,,,,,,,,4,1.912,1,,,,,,0.369791667,-0.24609375,1,0,0,1.9116,Gabbro_rect,2,0,2,0,1,
60fe3a34f7f4d5e48ad56af2,SCR,2024-06-21_12h47.17.586,LearnStrategy,2023.2.3,Win32,59.88023952,9,2,4,,,,,,,,6,03,,,,,,,,,,,,,6,2.188,1,,,,,,-0.109375,-0.399739583,1,0,0,2.1876,Pegmatite_rect,3,0,3,0,1,
60fe3a34f7f4d5e48ad56af2,SCR,2024-06-21_12h47.17.586,LearnStrategy,2023.2.3,Win32,59.88023952,9,2,5,,,,,,,,1,03,,,,,,,,,,,,,1,1.888,1,,,,,,-0.37109375,-0.233072917,1,0,0,1.8878,Andesite_rect,4,0,4,0,1,
60fe3a34f7f4d5e48ad56af2,SCR,2024-06-21_12h47.17.586,LearnStrategy,2023.2.3,Win32,59.88023952,9,2,6,,,,,,,,7,04,,,,,,,,,,,,,1,0.99,0,,,,,,-0.34765625,-0.233072917,1,0,0,0.9901,Andesite_rect,5,0,5,0,1,
60fe3a34f7f4d5e48ad56af2,SCR,2024-06-21_12h47.17.586,LearnStrategy,2023.2.3,Win32,59.88023952,9,2,7,,,,,,,,7,13,,,,,,,,,,,,,7,0.873,1,,,,,,0.14453125,-0.399739583,1,0,0,0.8733,Peridotite_rect,6,0,6,0,1,
60fe3a34f7f4d5e48ad56af2,SCR,2024-06-21_12h47.17.586,LearnStrategy,2023.2.3,Win32,59.88023952,9,2,8,,,,,,,,1,01,,,,,,,,,,,,,3,2.055,0,,,,,,0.127604167,-0.255208333,1,0,0,2.0547,Diorite_rect,7,0,7,0,1,
60fe3a34f7f4d5e48ad56af2,SCR,2024-06-21_12h47.17.586,LearnStrategy,2023.2.3,Win32,59.88023952,9,2,9,,,,,,,,3,02,,,,,,,,,,,,,3,0.74,1,,,,,,0.115885417,-0.23046875,1,0,0,0.7404,Diorite_rect,8,0,8,0,1,
60fe3a34f7f4d5e48ad56af2,SCR,2024-06-21_12h47.17.586,LearnStrategy,2023.2.3,Win32,59.88023952,9,2,10,,,,,,,,4,15,,,,,,,,,,,,,3,1.255,0,,,,,,0.098958333,-0.24609375,1,0,0,1.2545,Diorite_rect,9,0,9,0,1,
60fe3a34f7f4d5e48ad56af2,SCR,2024-06-21_12h47.17.586,LearnStrategy,2023.2.3,Win32,59.88023952,9,2,11,,,,,,,,3,16,,,,,,,,,,,,,3,1.621,1,,,,,,0.10546875,-0.25390625,1,0,0,1.6213,Diorite_rect,10,0,10,0,1,
60fe3a34f7f4d5e48ad56af2,SCR,2024-06-21_12h47.17.586,LearnStrategy,2023.2.3,Win32,59.88023952,9,2,12,,,,,,,,8,09,,,,,,,,,,,,,8,1.006,1,,,,,,0.3359375,-0.380208333,1,0,0,1.0058,Pumice_rect,11,0,11,0,1,
60fe3a34f7f4d5e48ad56af2,SCR,2024-06-21_12h47.17.586,LearnStrategy,2023.2.3,Win32,59.88023952,9,2,13,,,,,,,,5,10,,,,,,,,,,,,,5,0.864,1,,,,,,-0.375,-0.3828125,1,0,0,0.8644,Obsidian_rect,12,0,12,0,1,
60fe3a34f7f4d5e48ad56af2,SCR,2024-06-21_12h47.17.586,LearnStrategy,2023.2.3,Win32,59.88023952,9,2,14,,,,,,,,2,02,,,,,,,,,,,,,2,1.189,1,,,,,,-0.109375,-0.239583333,1,0,0,1.1886,Basalt_rect,13,0,13,0,1,
60fe3a34f7f4d5e48ad56af2,SCR,2024-06-21_12h47.17.586,LearnStrategy,2023.2.3,Win32,59.88023952,9,2,15,,,,,,,,6,06,,,,,,,,,,,,,7,1.022,0,,,,,,0.104166667,-0.399739583,1,0,0,1.0222,Peridotite_rect,14,0,14,0,1,
60fe3a34f7f4d5e48ad56af2,SCR,2024-06-21_12h47.17.586,LearnStrategy,2023.2.3,Win32,59.88023952,9,2,16,,,,,,,,8,04,,,,,,,,,,,,,8,1.505,1,,,,,,0.38671875,-0.411458333,1,0,0,1.5047,Pumice_rect,15,0,15,0,1,
60fe3a34f7f4d5e48ad56af2,SCR,2024-06-21_12h47.17.586,LearnStrategy,2023.2.3,Win32,59.88023952,,,,,,,,,,,,,,,,,,,,,,,,,,,,,,,,,,,,,,,,,,,,,1
60fe3a34f7f4d5e48ad56af2,SCR,2024-06-21_12h47.17.586,LearnStrategy,2023.2.3,Win32,59.88023952,,,,,,,,,,,,,,,,,,,,,,,,,,,,,,,,,,,,,,,,,,,,,
60fe3a34f7f4d5e48ad56af2,SCR,2024-06-21_12h47.17.586,LearnStrategy,2023.2.3,Win32,59.88023952,,,,,,,,,,,3,06,1,1,,,,,,,,,,,,,,,,,,,,,,,,,,,,,,,
60fe3a34f7f4d5e48ad56af2,SCR,2024-06-21_12h47.17.586,LearnStrategy,2023.2.3,Win32,59.88023952,,,,,,,,,,,7,08,1,2,,,,,,,,,,,,,,,,,,,,,,,,,,,,,,,
60fe3a34f7f4d5e48ad56af2,SCR,2024-06-21_12h47.17.586,LearnStrategy,2023.2.3,Win32,59.88023952,,,,,,,,,,,2,05,1,3,,,,,,,,,,,,,,,,,,,,,,,,,,,,,,,
60fe3a34f7f4d5e48ad56af2,SCR,2024-06-21_12h47.17.586,LearnStrategy,2023.2.3,Win32,59.88023952,,,,,,,,,,,3,15,1,4,,,,,,,,,,,,,,,,,,,,,,,,,,,,,,,
60fe3a34f7f4d5e48ad56af2,SCR,2024-06-21_12h47.17.586,LearnStrategy,2023.2.3,Win32,59.88023952,,,,,,,,,,,4,14,1,5,,,,,,,,,,,,,,,,,,,,,,,,,,,,,,,
60fe3a34f7f4d5e48ad56af2,SCR,2024-06-21_12h47.17.586,LearnStrategy,2023.2.3,Win32,59.88023952,,,,,,,,,,,8,14,1,6,,,,,,,,,,,,,,,,,,,,,,,,,,,,,,,
60fe3a34f7f4d5e48ad56af2,SCR,2024-06-21_12h47.17.586,LearnStrategy,2023.2.3,Win32,59.88023952,,,,,,,,,,,7,14,1,7,,,,,,,,,,,,,,,,,,,,,,,,,,,,,,,
60fe3a34f7f4d5e48ad56af2,SCR,2024-06-21_12h47.17.586,LearnStrategy,2023.2.3,Win32,59.88023952,,,,,,,,,,,8,02,1,8,,,,,,,,,,,,,,,,,,,,,,,,,,,,,,,
60fe3a34f7f4d5e48ad56af2,SCR,2024-06-21_12h47.17.586,LearnStrategy,2023.2.3,Win32,59.88023952,,,,,,,,,,,1,05,2,1,,,,,,,,,,,,,,,,,,,,,,,,,,,,,,,
60fe3a34f7f4d5e48ad56af2,SCR,2024-06-21_12h47.17.586,LearnStrategy,2023.2.3,Win32,59.88023952,,,,,,,,,,,6,08,2,2,,,,,,,,,,,,,,,,,,,,,,,,,,,,,,,
60fe3a34f7f4d5e48ad56af2,SCR,2024-06-21_12h47.17.586,LearnStrategy,2023.2.3,Win32,59.88023952,,,,,,,,,,,3,13,2,3,,,,,,,,,,,,,,,,,,,,,,,,,,,,,,,
60fe3a34f7f4d5e48ad56af2,SCR,2024-06-21_12h47.17.586,LearnStrategy,2023.2.3,Win32,59.88023952,,,,,,,,,,,1,04,2,4,,,,,,,,,,,,,,,,,,,,,,,,,,,,,,,
60fe3a34f7f4d5e48ad56af2,SCR,2024-06-21_12h47.17.586,LearnStrategy,2023.2.3,Win32,59.88023952,,,,,,,,,,,6,12,2,5,,,,,,,,,,,,,,,,,,,,,,,,,,,,,,,
60fe3a34f7f4d5e48ad56af2,SCR,2024-06-21_12h47.17.586,LearnStrategy,2023.2.3,Win32,59.88023952,,,,,,,,,,,2,11,2,6,,,,,,,,,,,,,,,,,,,,,,,,,,,,,,,
60fe3a34f7f4d5e48ad56af2,SCR,2024-06-21_12h47.17.586,LearnStrategy,2023.2.3,Win32,59.88023952,,,,,,,,,,,4,05,2,7,,,,,,,,,,,,,,,,,,,,,,,,,,,,,,,
60fe3a34f7f4d5e48ad56af2,SCR,2024-06-21_12h47.17.586,LearnStrategy,2023.2.3,Win32,59.88023952,,,,,,,,,,,4,12,2,8,,,,,,,,,,,,,,,,,,,,,,,,,,,,,,,
60fe3a34f7f4d5e48ad56af2,SCR,2024-06-21_12h47.17.586,LearnStrategy,2023.2.3,Win32,59.88023952,,,,,,,,,,,7,02,3,1,,,,,,,,,,,,,,,,,,,,,,,,,,,,,,,
60fe3a34f7f4d5e48ad56af2,SCR,2024-06-21_12h47.17.586,LearnStrategy,2023.2.3,Win32,59.88023952,,,,,,,,,,,5,11,3,2,,,,,,,,,,,,,,,,,,,,,,,,,,,,,,,
60fe3a34f7f4d5e48ad56af2,SCR,2024-06-21_12h47.17.586,LearnStrategy,2023.2.3,Win32,59.88023952,,,,,,,,,,,7,06,3,3,,,,,,,,,,,,,,,,,,,,,,,,,,,,,,,
60fe3a34f7f4d5e48ad56af2,SCR,2024-06-21_12h47.17.586,LearnStrategy,2023.2.3,Win32,59.88023952,,,,,,,,,,,7,15,3,4,,,,,,,,,,,,,,,,,,,,,,,,,,,,,,,
60fe3a34f7f4d5e48ad56af2,SCR,2024-06-21_12h47.17.586,LearnStrategy,2023.2.3,Win32,59.88023952,,,,,,,,,,,8,13,3,5,,,,,,,,,,,,,,,,,,,,,,,,,,,,,,,
60fe3a34f7f4d5e48ad56af2,SCR,2024-06-21_12h47.17.586,LearnStrategy,2023.2.3,Win32,59.88023952,,,,,,,,,,,4,13,3,6,,,,,,,,,,,,,,,,,,,,,,,,,,,,,,,
60fe3a34f7f4d5e48ad56af2,SCR,2024-06-21_12h47.17.586,LearnStrategy,2023.2.3,Win32,59.88023952,,,,,,,,,,,8,15,3,7,,,,,,,,,,,,,,,,,,,,,,,,,,,,,,,
60fe3a34f7f4d5e48ad56af2,SCR,2024-06-21_12h47.17.586,LearnStrategy,2023.2.3,Win32,59.88023952,,,,,,,,,,,5,08,3,8,,,,,,,,,,,,,,,,,,,,,,,,,,,,,,,
60fe3a34f7f4d5e48ad56af2,SCR,2024-06-21_12h47.17.586,LearnStrategy,2023.2.3,Win32,59.88023952,,,,,,,,,,,3,09,4,1,,,,,,,,,,,,,,,,,,,,,,,,,,,,,,,
60fe3a34f7f4d5e48ad56af2,SCR,2024-06-21_12h47.17.586,LearnStrategy,2023.2.3,Win32,59.88023952,,,,,,,,,,,5,09,4,2,,,,,,,,,,,,,,,,,,,,,,,,,,,,,,,
60fe3a34f7f4d5e48ad56af2,SCR,2024-06-21_12h47.17.586,LearnStrategy,2023.2.3,Win32,59.88023952,,,,,,,,,,,3,10,4,3,,,,,,,,,,,,,,,,,,,,,,,,,,,,,,,
60fe3a34f7f4d5e48ad56af2,SCR,2024-06-21_12h47.17.586,LearnStrategy,2023.2.3,Win32,59.88023952,,,,,,,,,,,1,10,4,4,,,,,,,,,,,,,,,,,,,,,,,,,,,,,,,
60fe3a34f7f4d5e48ad56af2,SCR,2024-06-21_12h47.17.586,LearnStrategy,2023.2.3,Win32,59.88023952,,,,,,,,,,,2,09,4,5,,,,,,,,,,,,,,,,,,,,,,,,,,,,,,,
60fe3a34f7f4d5e48ad56af2,SCR,2024-06-21_12h47.17.586,LearnStrategy,2023.2.3,Win32,59.88023952,,,,,,,,,,,2,16,4,6,,,,,,,,,,,,,,,,,,,,,,,,,,,,,,,
60fe3a34f7f4d5e48ad56af2,SCR,2024-06-21_12h47.17.586,LearnStrategy,2023.2.3,Win32,59.88023952,,,,,,,,,,,3,08,4,7,,,,,,,,,,,,,,,,,,,,,,,,,,,,,,,
60fe3a34f7f4d5e48ad56af2,SCR,2024-06-21_12h47.17.586,LearnStrategy,2023.2.3,Win32,59.88023952,,,,,,,,,,,6,16,4,8,,,,,,,,,,,,,,,,,,,,,,,,,,,,,,,
60fe3a34f7f4d5e48ad56af2,SCR,2024-06-21_12h47.17.586,LearnStrategy,2023.2.3,Win32,59.88023952,,,,,,,,,,,8,03,5,1,,,,,,,,,,,,,,,,,,,,,,,,,,,,,,,
60fe3a34f7f4d5e48ad56af2,SCR,2024-06-21_12h47.17.586,LearnStrategy,2023.2.3,Win32,59.88023952,,,,,,,,,,,1,16,5,2,,,,,,,,,,,,,,,,,,,,,,,,,,,,,,,
60fe3a34f7f4d5e48ad56af2,SCR,2024-06-21_12h47.17.586,LearnStrategy,2023.2.3,Win32,59.88023952,,,,,,,,,,,4,01,5,3,,,,,,,,,,,,,,,,,,,,,,,,,,,,,,,
60fe3a34f7f4d5e48ad56af2,SCR,2024-06-21_12h47.17.586,LearnStrategy,2023.2.3,Win32,59.88023952,,,,,,,,,,,7,07,5,4,,,,,,,,,,,,,,,,,,,,,,,,,,,,,,,
60fe3a34f7f4d5e48ad56af2,SCR,2024-06-21_12h47.17.586,LearnStrategy,2023.2.3,Win32,59.88023952,,,,,,,,,,,6,11,5,5,,,,,,,,,,,,,,,,,,,,,,,,,,,,,,,
60fe3a34f7f4d5e48ad56af2,SCR,2024-06-21_12h47.17.586,LearnStrategy,2023.2.3,Win32,59.88023952,,,,,,,,,,,8,06,5,6,,,,,,,,,,,,,,,,,,,,,,,,,,,,,,,
60fe3a34f7f4d5e48ad56af2,SCR,2024-06-21_12h47.17.586,LearnStrategy,2023.2.3,Win32,59.88023952,,,,,,,,,,,4,11,5,7,,,,,,,,,,,,,,,,,,,,,,,,,,,,,,,
60fe3a34f7f4d5e48ad56af2,SCR,2024-06-21_12h47.17.586,LearnStrategy,2023.2.3,Win32,59.88023952,,,,,,,,,,,1,07,5,8,,,,,,,,,,,,,,,,,,,,,,,,,,,,,,,
60fe3a34f7f4d5e48ad56af2,SCR,2024-06-21_12h47.17.586,LearnStrategy,2023.2.3,Win32,59.88023952,,,,,,,,,,,2,01,6,1,,,,,,,,,,,,,,,,,,,,,,,,,,,,,,,
60fe3a34f7f4d5e48ad56af2,SCR,2024-06-21_12h47.17.586,LearnStrategy,2023.2.3,Win32,59.88023952,,,,,,,,,,,5,04,6,2,,,,,,,,,,,,,,,,,,,,,,,,,,,,,,,
60fe3a34f7f4d5e48ad56af2,SCR,2024-06-21_12h47.17.586,LearnStrategy,2023.2.3,Win32,59.88023952,,,,,,,,,,,1,06,6,3,,,,,,,,,,,,,,,,,,,,,,,,,,,,,,,
60fe3a34f7f4d5e48ad56af2,SCR,2024-06-21_12h47.17.586,LearnStrategy,2023.2.3,Win32,59.88023952,,,,,,,,,,,5,12,6,4,,,,,,,,,,,,,,,,,,,,,,,,,,,,,,,
60fe3a34f7f4d5e48ad56af2,SCR,2024-06-21_12h47.17.586,LearnStrategy,2023.2.3,Win32,59.88023952,,,,,,,,,,,5,06,6,5,,,,,,,,,,,,,,,,,,,,,,,,,,,,,,,
60fe3a34f7f4d5e48ad56af2,SCR,2024-06-21_12h47.17.586,LearnStrategy,2023.2.3,Win32,59.88023952,,,,,,,,,,,6,07,6,6,,,,,,,,,,,,,,,,,,,,,,,,,,,,,,,
60fe3a34f7f4d5e48ad56af2,SCR,2024-06-21_12h47.17.586,LearnStrategy,2023.2.3,Win32,59.88023952,,,,,,,,,,,2,04,6,7,,,,,,,,,,,,,,,,,,,,,,,,,,,,,,,
60fe3a34f7f4d5e48ad56af2,SCR,2024-06-21_12h47.17.586,LearnStrategy,2023.2.3,Win32,59.88023952,,,,,,,,,,,6,09,6,8,,,,,,,,,,,,,,,,,,,,,,,,,,,,,,,