participant,condition,date,expName,psychopyVersion,OS,frameRate,block,phase,trial,learn_mouse.x,learn_mouse.y,learn_mouse.leftButton,learn_mouse.midButton,learn_mouse.rightButton,learn_mouse.time,learn_mouse.clicked_name,cat,token,row,col,t_select,cat_mouse_l.x,cat_mouse_l.y,cat_mouse_l.leftButton,cat_mouse_l.midButton,cat_mouse_l.rightButton,cat_mouse_l.time,cat_mouse_l.clicked_name,resp,t_resp,corr,train_trials.thisRepN,train_trials.thisTrialN,train_trials.thisN,train_trials.thisIndex,train_trials.ran,cat_mouse_t.x,cat_mouse_t.y,cat_mouse_t.leftButton,cat_mouse_t.midButton,cat_mouse_t.rightButton,cat_mouse_t.time,cat_mouse_t.clicked_name,test_trials.thisRepN,test_trials.thisTrialN,test_trials.thisN,test_trials.thisIndex,test_trials.ran,Bonus
60ff7c8f4f066ccf6fe05587,SCN,2024-06-21_13h07.09.904,LearnStrategy,2023.2.3,Win32,59.88023952,,,,,,,,,,,,,,,,,,,,,,,,,,,,,,,,,,,,,,,,,,,
60ff7c8f4f066ccf6fe05587,SCN,2024-06-21_13h07.09.904,LearnStrategy,2023.2.3,Win32,59.88023952,1,1,1,-0.519,0.4115,1,0,0,3.536300001,Diorite_16,3,16,6,1,3.536,0.3415,-0.42,1,0,0,4.380199999,Pumice_rect,8,4.38,0,0,0,0,0,1,,,,,,,,,,,,,
60ff7c8f4f066ccf6fe05587,SCN,2024-06-21_13h07.09.904,LearnStrategy,2023.2.3,Win32,59.88023952,1,1,2,-0.3755,0.414,1,0,0,1.537,Pegmatite_16,6,16,6,2,1.537,0.3565,-0.4215,1,0,0,5.408,Pumice_rect,8,5.408,0,1,0,1,0,1,,,,,,,,,,,,,
60ff7c8f4f066ccf6fe05587,SCN,2024-06-21_13h07.09.904,LearnStrategy,2023.2.3,Win32,59.88023952,1,1,3,-0.228,0.395,1,0,0,2.015400002,Pegmatite_10,6,10,6,3,2.015,-0.3435,-0.396,1,0,0,7.2079,Obsidian_rect,5,7.208,0,2,0,2,0,1,,,,,,,,,,,,,
60ff7c8f4f066ccf6fe05587,SCN,2024-06-21_13h07.09.904,LearnStrategy,2023.2.3,Win32,59.88023952,1,1,4,-0.0655,0.387,1,0,0,3.486799999,Pegmatite_13,6,13,6,4,3.487,0.1115,-0.2315,1,0,0,1.978199999,Diorite_rect,3,1.978,0,3,0,3,0,1,,,,,,,,,,,,,
60ff7c8f4f066ccf6fe05587,SCN,2024-06-21_13h07.09.904,LearnStrategy,2023.2.3,Win32,59.88023952,1,1,5,0.056,0.365,1,0,0,1.7724,Peridotite_06,7,06,6,5,1.772,-0.1345,-0.25,1,0,0,4.031800001,Basalt_rect,2,4.032,0,4,0,4,0,1,,,,,,,,,,,,,
60ff7c8f4f066ccf6fe05587,SCN,2024-06-21_13h07.09.904,LearnStrategy,2023.2.3,Win32,59.88023952,1,1,6,0.2335,0.403,1,0,0,1.566700001,Diorite_12,3,12,6,6,1.567,0.338,-0.416,1,0,0,2.712,Pumice_rect,8,2.712,0,5,0,5,0,1,,,,,,,,,,,,,
60ff7c8f4f066ccf6fe05587,SCN,2024-06-21_13h07.09.904,LearnStrategy,2023.2.3,Win32,59.88023952,1,1,7,0.4395,0.4145,1,0,0,1.291599998,Gabbro_08,4,08,6,7,1.292,0.153,-0.2495,1,0,0,2.534199999,Diorite_rect,3,2.534,0,6,0,6,0,1,,,,,,,,,,,,,
60ff7c8f4f066ccf6fe05587,SCN,2024-06-21_13h07.09.904,LearnStrategy,2023.2.3,Win32,59.88023952,1,1,8,0.5185,0.3735,1,0,0,1.130700001,Basalt_06,2,06,6,8,1.131,-0.423,-0.4055,1,0,0,4.125300001,Obsidian_rect,5,4.125,0,7,0,7,0,1,,,,,,,,,,,,,
60ff7c8f4f066ccf6fe05587,SCN,2024-06-21_13h07.09.904,LearnStrategy,2023.2.3,Win32,59.88023952,1,1,9,-0.5505,0.2335,1,0,0,0.998300001,Pumice_04,8,04,5,1,0.998,0.3345,-0.4185,1,0,0,1.229699999,Pumice_rect,8,1.23,1,8,0,8,0,1,,,,,,,,,,,,,
60ff7c8f4f066ccf6fe05587,SCN,2024-06-21_13h07.09.904,LearnStrategy,2023.2.3,Win32,59.88023952,1,1,10,-0.399,0.2475,1,0,0,1.1331,Andesite_16,1,16,5,2,1.133,0.088,-0.2525,1,0,0,5.1819,Diorite_rect,3,5.182,0,9,0,9,0,1,,,,,,,,,,,,,
60ff7c8f4f066ccf6fe05587,SCN,2024-06-21_13h07.09.904,LearnStrategy,2023.2.3,Win32,59.88023952,1,1,11,-0.2145,0.269,1,0,0,0.6534,Pumice_14,8,14,5,3,0.653,0.3715,-0.388,1,0,0,1.338700001,Pumice_rect,8,1.339,1,10,0,10,0,1,,,,,,,,,,,,,
60ff7c8f4f066ccf6fe05587,SCN,2024-06-21_13h07.09.904,LearnStrategy,2023.2.3,Win32,59.88023952,1,1,12,-0.0685,0.2485,1,0,0,1.2069,Basalt_10,2,10,5,4,1.207,-0.406,-0.4215,1,0,0,3.4569,Obsidian_rect,5,3.457,0,11,0,11,0,1,,,,,,,,,,,,,
60ff7c8f4f066ccf6fe05587,SCN,2024-06-21_13h07.09.904,LearnStrategy,2023.2.3,Win32,59.88023952,1,1,13,0.0745,0.2655,1,0,0,1.1739,Gabbro_01,4,01,5,5,1.174,-0.095,-0.4065,1,0,0,4.319200001,Pegmatite_rect,6,4.319,0,12,0,12,0,1,,,,,,,,,,,,,
60ff7c8f4f066ccf6fe05587,SCN,2024-06-21_13h07.09.904,LearnStrategy,2023.2.3,Win32,59.88023952,1,1,14,0.2455,0.292,1,0,0,1.0546,Pumice_08,8,08,5,6,1.055,0.395,-0.408,1,0,0,1.632799999,Pumice_rect,8,1.633,1,13,0,13,0,1,,,,,,,,,,,,,
60ff7c8f4f066ccf6fe05587,SCN,2024-06-21_13h07.09.904,LearnStrategy,2023.2.3,Win32,59.88023952,1,1,15,0.444,0.2585,1,0,0,1.055300001,Basalt_14,2,14,5,7,1.055,-0.1245,-0.25,1,0,0,3.837299999,Basalt_rect,2,3.837,1,14,0,14,0,1,,,,,,,,,,,,,
60ff7c8f4f066ccf6fe05587,SCN,2024-06-21_13h07.09.904,LearnStrategy,2023.2.3,Win32,59.88023952,1,1,16,0.535,0.2505,1,0,0,1.3959,Obsidian_11,5,11,5,8,1.396,-0.373,-0.4145,1,0,0,2.1684,Obsidian_rect,5,2.168,1,15,0,15,0,1,,,,,,,,,,,,,
60ff7c8f4f066ccf6fe05587,SCN,2024-06-21_13h07.09.904,LearnStrategy,2023.2.3,Win32,59.88023952,1,2,1,,,,,,,,1,05,,,,,,,,,,,7,5.546,0,,,,,,0.15,-0.409,1,0,0,5.545599998,Peridotite_rect,0,0,0,0,1,
60ff7c8f4f066ccf6fe05587,SCN,2024-06-21_13h07.09.904,LearnStrategy,2023.2.3,Win32,59.88023952,1,2,2,,,,,,,,6,09,,,,,,,,,,,4,4.316,0,,,,,,0.341,-0.264,1,0,0,4.316200001,Gabbro_rect,1,0,1,0,1,
60ff7c8f4f066ccf6fe05587,SCN,2024-06-21_13h07.09.904,LearnStrategy,2023.2.3,Win32,59.88023952,1,2,3,,,,,,,,2,01,,,,,,,,,,,2,5.706,1,,,,,,-0.153,-0.2555,1,0,0,5.706,Basalt_rect,2,0,2,0,1,
60ff7c8f4f066ccf6fe05587,SCN,2024-06-21_13h07.09.904,LearnStrategy,2023.2.3,Win32,59.88023952,1,2,4,,,,,,,,7,15,,,,,,,,,,,6,3.217,0,,,,,,-0.079,-0.4085,1,0,0,3.217,Pegmatite_rect,3,0,3,0,1,
60ff7c8f4f066ccf6fe05587,SCN,2024-06-21_13h07.09.904,LearnStrategy,2023.2.3,Win32,59.88023952,1,2,5,,,,,,,,8,09,,,,,,,,,,,8,1.761,1,,,,,,0.4345,-0.4085,1,0,0,1.760599998,Pumice_rect,4,0,4,0,1,
60ff7c8f4f066ccf6fe05587,SCN,2024-06-21_13h07.09.904,LearnStrategy,2023.2.3,Win32,59.88023952,1,2,6,,,,,,,,5,10,,,,,,,,,,,5,1.562,1,,,,,,-0.4045,-0.4135,1,0,0,1.562,Obsidian_rect,5,0,5,0,1,
60ff7c8f4f066ccf6fe05587,SCN,2024-06-21_13h07.09.904,LearnStrategy,2023.2.3,Win32,59.88023952,1,2,7,,,,,,,,4,13,,,,,,,,,,,3,2.933,0,,,,,,0.07,-0.2665,1,0,0,2.933199999,Diorite_rect,6,0,6,0,1,
60ff7c8f4f066ccf6fe05587,SCN,2024-06-21_13h07.09.904,LearnStrategy,2023.2.3,Win32,59.88023952,1,2,8,,,,,,,,8,10,,,,,,,,,,,8,1.542,1,,,,,,0.3855,-0.4085,1,0,0,1.541799999,Pumice_rect,7,0,7,0,1,
60ff7c8f4f066ccf6fe05587,SCN,2024-06-21_13h07.09.904,LearnStrategy,2023.2.3,Win32,59.88023952,1,2,9,,,,,,,,2,04,,,,,,,,,,,5,1.325,0,,,,,,-0.3965,-0.3905,1,0,0,1.3249,Obsidian_rect,8,0,8,0,1,
60ff7c8f4f066ccf6fe05587,SCN,2024-06-21_13h07.09.904,LearnStrategy,2023.2.3,Win32,59.88023952,1,2,10,,,,,,,,3,11,,,,,,,,,,,4,2.62,0,,,,,,0.4225,-0.256,1,0,0,2.6205,Gabbro_rect,9,0,9,0,1,
60ff7c8f4f066ccf6fe05587,SCN,2024-06-21_13h07.09.904,LearnStrategy,2023.2.3,Win32,59.88023952,1,2,11,,,,,,,,7,12,,,,,,,,,,,4,2.532,0,,,,,,0.3745,-0.2545,1,0,0,2.5316,Gabbro_rect,10,0,10,0,1,
60ff7c8f4f066ccf6fe05587,SCN,2024-06-21_13h07.09.904,LearnStrategy,2023.2.3,Win32,59.88023952,1,2,12,,,,,,,,6,05,,,,,,,,,,,3,3.183,0,,,,,,0.118,-0.268,1,0,0,3.1825,Diorite_rect,11,0,11,0,1,
60ff7c8f4f066ccf6fe05587,SCN,2024-06-21_13h07.09.904,LearnStrategy,2023.2.3,Win32,59.88023952,1,2,13,,,,,,,,3,15,,,,,,,,,,,7,1.997,0,,,,,,0.095,-0.406,1,0,0,1.997,Peridotite_rect,12,0,12,0,1,
60ff7c8f4f066ccf6fe05587,SCN,2024-06-21_13h07.09.904,LearnStrategy,2023.2.3,Win32,59.88023952,1,2,14,,,,,,,,4,14,,,,,,,,,,,7,2.26,0,,,,,,0.097,-0.4025,1,0,0,2.260099998,Peridotite_rect,13,0,13,0,1,
60ff7c8f4f066ccf6fe05587,SCN,2024-06-21_13h07.09.904,LearnStrategy,2023.2.3,Win32,59.88023952,1,2,15,,,,,,,,1,02,,,,,,,,,,,1,4.446,1,,,,,,-0.366,-0.2585,1,0,0,4.445700001,Andesite_rect,14,0,14,0,1,
60ff7c8f4f066ccf6fe05587,SCN,2024-06-21_13h07.09.904,LearnStrategy,2023.2.3,Win32,59.88023952,1,2,16,,,,,,,,5,09,,,,,,,,,,,5,1.331,1,,,,,,-0.396,-0.408,1,0,0,1.3311,Obsidian_rect,15,0,15,0,1,
60ff7c8f4f066ccf6fe05587,SCN,2024-06-21_13h07.09.904,LearnStrategy,2023.2.3,Win32,59.88023952,2,1,1,-0.5345,-0.095,1,0,0,4.8955,Diorite_09,3,09,3,1,4.896,0.12,-0.386,1,0,0,4.974,Peridotite_rect,7,4.974,0,0,0,0,0,1,,,,,,,,,,,,,
60ff7c8f4f066ccf6fe05587,SCN,2024-06-21_13h07.09.904,LearnStrategy,2023.2.3,Win32,59.88023952,2,1,2,0.56,-0.1055,1,0,0,2.470400002,Diorite_02,3,02,3,8,2.47,0.117,-0.2515,1,0,0,1.7421,Diorite_rect,3,1.742,1,1,0,1,0,1,,,,,,,,,,,,,
60ff7c8f4f066ccf6fe05587,SCN,2024-06-21_13h07.09.904,LearnStrategy,2023.2.3,Win32,59.88023952,2,1,3,-0.3925,0.238,1,0,0,9.014800001,Andesite_16,1,16,5,2,9.015,0.082,-0.245,1,0,0,2.5826,Diorite_rect,3,2.583,0,2,0,2,0,1,,,,,,,,,,,,,
60ff7c8f4f066ccf6fe05587,SCN,2024-06-21_13h07.09.904,LearnStrategy,2023.2.3,Win32,59.88023952,2,1,4,0.384,0.084,1,0,0,1.8731,Peridotite_07,7,07,4,7,1.873,-0.3705,-0.251,1,0,0,2.3494,Andesite_rect,1,2.349,0,3,0,3,0,1,,,,,,,,,,,,,
60ff7c8f4f066ccf6fe05587,SCN,2024-06-21_13h07.09.904,LearnStrategy,2023.2.3,Win32,59.88023952,2,1,5,-0.2735,-0.2575,1,0,0,6.257699999,Peridotite_13,7,13,2,3,6.258,-0.1425,-0.3955,1,0,0,5.765200001,Pegmatite_rect,6,5.765,0,4,0,4,0,1,,,,,,,,,,,,,
60ff7c8f4f066ccf6fe05587,SCN,2024-06-21_13h07.09.904,LearnStrategy,2023.2.3,Win32,59.88023952,2,1,6,-0.5265,-0.4125,1,0,0,2.711400002,Andesite_09,1,09,1,1,2.711,-0.4225,-0.2585,1,0,0,2.410299999,Andesite_rect,1,2.41,1,5,0,5,0,1,,,,,,,,,,,,,
60ff7c8f4f066ccf6fe05587,SCN,2024-06-21_13h07.09.904,LearnStrategy,2023.2.3,Win32,59.88023952,2,1,7,-0.404,-0.1245,1,0,0,1.3026,Basalt_02,2,02,3,2,1.303,-0.3565,-0.252,1,0,0,1.359,Andesite_rect,1,1.359,0,6,0,6,0,1,,,,,,,,,,,,,
60ff7c8f4f066ccf6fe05587,SCN,2024-06-21_13h07.09.904,LearnStrategy,2023.2.3,Win32,59.88023952,2,1,8,0.06,-0.09,1,0,0,1.896199999,Pegmatite_15,6,15,3,5,1.896,0.37,-0.2425,1,0,0,2.768,Gabbro_rect,4,2.768,0,7,0,7,0,1,,,,,,,,,,,,,
60ff7c8f4f066ccf6fe05587,SCN,2024-06-21_13h07.09.904,LearnStrategy,2023.2.3,Win32,59.88023952,2,1,9,-0.035,-0.0925,1,0,0,2.183200001,Pegmatite_03,6,03,3,4,2.183,-0.073,-0.385,1,0,0,1.364200001,Pegmatite_rect,6,1.364,1,8,0,8,0,1,,,,,,,,,,,,,
60ff7c8f4f066ccf6fe05587,SCN,2024-06-21_13h07.09.904,LearnStrategy,2023.2.3,Win32,59.88023952,2,1,10,0.2305,0.0915,1,0,0,2.3639,Obsidian_06,5,06,4,6,2.364,-0.359,-0.4015,1,0,0,2.424199999,Obsidian_rect,5,2.424,1,9,0,9,0,1,,,,,,,,,,,,,
60ff7c8f4f066ccf6fe05587,SCN,2024-06-21_13h07.09.904,LearnStrategy,2023.2.3,Win32,59.88023952,2,1,11,-0.089,-0.381,1,0,0,8.5539,Gabbro_09,4,09,1,4,8.554,0.052,-0.259,1,0,0,2.051,Diorite_rect,3,2.051,0,10,0,10,0,1,,,,,,,,,,,,,
60ff7c8f4f066ccf6fe05587,SCN,2024-06-21_13h07.09.904,LearnStrategy,2023.2.3,Win32,59.88023952,2,1,12,0.38,0.229,1,0,0,4.648700001,Basalt_14,2,14,5,7,4.649,0.4195,-0.256,1,0,0,1.104799999,Gabbro_rect,4,1.105,0,11,0,11,0,1,,,,,,,,,,,,,
60ff7c8f4f066ccf6fe05587,SCN,2024-06-21_13h07.09.904,LearnStrategy,2023.2.3,Win32,59.88023952,2,1,13,0.5095,0.083,1,0,0,1.892299999,Andesite_04,1,04,4,8,1.892,0.314,-0.2575,1,0,0,1.619699999,Gabbro_rect,4,1.62,0,12,0,12,0,1,,,,,,,,,,,,,
60ff7c8f4f066ccf6fe05587,SCN,2024-06-21_13h07.09.904,LearnStrategy,2023.2.3,Win32,59.88023952,2,1,14,0.049,-0.297,1,0,0,2.9145,Gabbro_16,4,16,2,5,2.915,0.352,-0.264,1,0,0,3.571,Gabbro_rect,4,3.571,1,13,0,13,0,1,,,,,,,,,,,,,
60ff7c8f4f066ccf6fe05587,SCN,2024-06-21_13h07.09.904,LearnStrategy,2023.2.3,Win32,59.88023952,2,1,15,0.0565,-0.0975,1,0,0,1.5876,Pegmatite_15,6,15,3,5,1.588,0.062,-0.256,1,0,0,4.176,Diorite_rect,3,4.176,0,14,0,14,0,1,,,,,,,,,,,,,
60ff7c8f4f066ccf6fe05587,SCN,2024-06-21_13h07.09.904,LearnStrategy,2023.2.3,Win32,59.88023952,2,1,16,-0.2315,0.412,1,0,0,2.241,Pegmatite_10,6,10,6,3,2.241,-0.073,-0.4115,1,0,0,1.521300001,Pegmatite_rect,6,1.521,1,15,0,15,0,1,,,,,,,,,,,,,
60ff7c8f4f066ccf6fe05587,SCN,2024-06-21_13h07.09.904,LearnStrategy,2023.2.3,Win32,59.88023952,2,2,1,,,,,,,,3,14,,,,,,,,,,,3,3.543,1,,,,,,0.087,-0.236,1,0,0,3.542799999,Diorite_rect,0,0,0,0,1,
60ff7c8f4f066ccf6fe05587,SCN,2024-06-21_13h07.09.904,LearnStrategy,2023.2.3,Win32,59.88023952,2,2,2,,,,,,,,8,03,,,,,,,,,,,8,1.597,1,,,,,,0.3765,-0.4165,1,0,0,1.596799999,Pumice_rect,1,0,1,0,1,
60ff7c8f4f066ccf6fe05587,SCN,2024-06-21_13h07.09.904,LearnStrategy,2023.2.3,Win32,59.88023952,2,2,3,,,,,,,,3,06,,,,,,,,,,,6,6.36,0,,,,,,-0.075,-0.415,1,0,0,6.36,Pegmatite_rect,2,0,2,0,1,
60ff7c8f4f066ccf6fe05587,SCN,2024-06-21_13h07.09.904,LearnStrategy,2023.2.3,Win32,59.88023952,2,2,4,,,,,,,,1,11,,,,,,,,,,,1,1.295,1,,,,,,-0.338,-0.251,1,0,0,1.2949,Andesite_rect,3,0,3,0,1,
60ff7c8f4f066ccf6fe05587,SCN,2024-06-21_13h07.09.904,LearnStrategy,2023.2.3,Win32,59.88023952,2,2,5,,,,,,,,4,10,,,,,,,,,,,2,2.7,0,,,,,,-0.136,-0.264,1,0,0,2.6996,Basalt_rect,4,0,4,0,1,
60ff7c8f4f066ccf6fe05587,SCN,2024-06-21_13h07.09.904,LearnStrategy,2023.2.3,Win32,59.88023952,2,2,6,,,,,,,,5,07,,,,,,,,,,,5,1.816,1,,,,,,-0.364,-0.406,1,0,0,1.8164,Obsidian_rect,5,0,5,0,1,
60ff7c8f4f066ccf6fe05587,SCN,2024-06-21_13h07.09.904,LearnStrategy,2023.2.3,Win32,59.88023952,2,2,7,,,,,,,,4,12,,,,,,,,,,,2,4.095,0,,,,,,-0.061,-0.258,1,0,0,4.0951,Basalt_rect,6,0,6,0,1,
60ff7c8f4f066ccf6fe05587,SCN,2024-06-21_13h07.09.904,LearnStrategy,2023.2.3,Win32,59.88023952,2,2,8,,,,,,,,1,01,,,,,,,,,,,7,2.002,0,,,,,,0.081,-0.4125,1,0,0,2.0021,Peridotite_rect,7,0,7,0,1,
60ff7c8f4f066ccf6fe05587,SCN,2024-06-21_13h07.09.904,LearnStrategy,2023.2.3,Win32,59.88023952,2,2,9,,,,,,,,6,12,,,,,,,,,,,6,6.566,1,,,,,,-0.06,-0.4135,1,0,0,6.566,Pegmatite_rect,8,0,8,0,1,
60ff7c8f4f066ccf6fe05587,SCN,2024-06-21_13h07.09.904,LearnStrategy,2023.2.3,Win32,59.88023952,2,2,10,,,,,,,,5,02,,,,,,,,,,,5,2.001,1,,,,,,-0.3485,-0.3875,1,0,0,2.0006,Obsidian_rect,9,0,9,0,1,
60ff7c8f4f066ccf6fe05587,SCN,2024-06-21_13h07.09.904,LearnStrategy,2023.2.3,Win32,59.88023952,2,2,11,,,,,,,,7,04,,,,,,,,,,,7,3.572,1,,,,,,0.1465,-0.422,1,0,0,3.5721,Peridotite_rect,10,0,10,0,1,
60ff7c8f4f066ccf6fe05587,SCN,2024-06-21_13h07.09.904,LearnStrategy,2023.2.3,Win32,59.88023952,2,2,12,,,,,,,,6,11,,,,,,,,,,,7,3.108,0,,,,,,0.127,-0.39,1,0,0,3.108300001,Peridotite_rect,11,0,11,0,1,
60ff7c8f4f066ccf6fe05587,SCN,2024-06-21_13h07.09.904,LearnStrategy,2023.2.3,Win32,59.88023952,2,2,13,,,,,,,,2,05,,,,,,,,,,,4,3.608,0,,,,,,0.3405,-0.244,1,0,0,3.608300001,Gabbro_rect,12,0,12,0,1,
60ff7c8f4f066ccf6fe05587,SCN,2024-06-21_13h07.09.904,LearnStrategy,2023.2.3,Win32,59.88023952,2,2,14,,,,,,,,7,02,,,,,,,,,,,3,1.254,0,,,,,,0.1635,-0.2595,1,0,0,1.2535,Diorite_rect,13,0,13,0,1,
60ff7c8f4f066ccf6fe05587,SCN,2024-06-21_13h07.09.904,LearnStrategy,2023.2.3,Win32,59.88023952,2,2,15,,,,,,,,2,16,,,,,,,,,,,3,4.78,0,,,,,,0.115,-0.25,1,0,0,4.7805,Diorite_rect,14,0,14,0,1,
60ff7c8f4f066ccf6fe05587,SCN,2024-06-21_13h07.09.904,LearnStrategy,2023.2.3,Win32,59.88023952,2,2,16,,,,,,,,8,02,,,,,,,,,,,8,1.392,1,,,,,,0.4205,-0.4095,1,0,0,1.3916,Pumice_rect,15,0,15,0,1,
60ff7c8f4f066ccf6fe05587,SCN,2024-06-21_13h07.09.904,LearnStrategy,2023.2.3,Win32,59.88023952,3,1,1,0.265,0.423,1,0,0,2.0319,Diorite_12,3,12,6,6,2.032,0.3875,-0.231,1,0,0,1.215199999,Gabbro_rect,4,1.215,0,0,0,0,0,1,,,,,,,,,,,,,
60ff7c8f4f066ccf6fe05587,SCN,2024-06-21_13h07.09.904,LearnStrategy,2023.2.3,Win32,59.88023952,3,1,2,0.5315,0.1115,1,0,0,2.004799999,Andesite_04,1,04,4,8,2.005,0.12,-0.2445,1,0,0,2.414200001,Diorite_rect,3,2.414,0,1,0,1,0,1,,,,,,,,,,,,,
60ff7c8f4f066ccf6fe05587,SCN,2024-06-21_13h07.09.904,LearnStrategy,2023.2.3,Win32,59.88023952,3,1,3,-0.5105,0.0825,1,0,0,2.611699999,Basalt_12,2,12,4,1,2.612,-0.351,-0.2425,1,0,0,0.985800001,Andesite_rect,1,0.986,0,2,0,2,0,1,,,,,,,,,,,,,
60ff7c8f4f066ccf6fe05587,SCN,2024-06-21_13h07.09.904,LearnStrategy,2023.2.3,Win32,59.88023952,3,1,4,-0.37,-0.1305,1,0,0,1.7794,Basalt_02,2,02,3,2,1.779,-0.3475,-0.2495,1,0,0,1.2691,Andesite_rect,1,1.269,0,3,0,3,0,1,,,,,,,,,,,,,
60ff7c8f4f066ccf6fe05587,SCN,2024-06-21_13h07.09.904,LearnStrategy,2023.2.3,Win32,59.88023952,3,1,5,-0.055,-0.266,1,0,0,1.5681,Basalt_09,2,09,2,4,1.568,-0.314,-0.24,1,0,0,2.091200001,Andesite_rect,1,2.091,0,4,0,4,0,1,,,,,,,,,,,,,
60ff7c8f4f066ccf6fe05587,SCN,2024-06-21_13h07.09.904,LearnStrategy,2023.2.3,Win32,59.88023952,3,1,6,-0.5735,-0.4235,1,0,0,3.7864,Andesite_09,1,09,1,1,3.786,-0.1305,-0.2585,1,0,0,0.7611,Basalt_rect,2,0.761,0,5,0,5,0,1,,,,,,,,,,,,,
60ff7c8f4f066ccf6fe05587,SCN,2024-06-21_13h07.09.904,LearnStrategy,2023.2.3,Win32,59.88023952,3,1,7,-0.531,-0.273,1,0,0,116.161,Pumice_13,8,13,2,1,116.161,-0.131,-0.258,1,0,0,1.19,Basalt_rect,2,1.19,0,6,0,6,0,1,,,,,,,,,,,,,
60ff7c8f4f066ccf6fe05587,SCN,2024-06-21_13h07.09.904,LearnStrategy,2023.2.3,Win32,59.88023952,3,1,8,0.5475,0.3975,1,0,0,2.297900002,Basalt_06,2,06,6,8,2.298,0.3715,-0.2545,1,0,0,1.817400002,Gabbro_rect,4,1.817,0,7,0,7,0,1,,,,,,,,,,,,,
60ff7c8f4f066ccf6fe05587,SCN,2024-06-21_13h07.09.904,LearnStrategy,2023.2.3,Win32,59.88023952,3,1,9,-0.245,-0.258,1,0,0,15.605,Peridotite_13,7,13,2,3,15.605,0.081,-0.2565,1,0,0,1.826200001,Diorite_rect,3,1.826,0,8,0,8,0,1,,,,,,,,,,,,,
60ff7c8f4f066ccf6fe05587,SCN,2024-06-21_13h07.09.904,LearnStrategy,2023.2.3,Win32,59.88023952,3,1,10,-0.0555,-0.113,1,0,0,2.262799999,Pegmatite_03,6,03,3,4,2.263,0.132,-0.405,1,0,0,1.6384,Peridotite_rect,7,1.638,0,9,0,9,0,1,,,,,,,,,,,,,
60ff7c8f4f066ccf6fe05587,SCN,2024-06-21_13h07.09.904,LearnStrategy,2023.2.3,Win32,59.88023952,3,1,11,-0.4085,-0.405,1,0,0,3.657200001,Peridotite_16,7,16,1,2,3.657,0.1315,-0.4185,1,0,0,3.6389,Peridotite_rect,7,3.639,1,10,0,10,0,1,,,,,,,,,,,,,
60ff7c8f4f066ccf6fe05587,SCN,2024-06-21_13h07.09.904,LearnStrategy,2023.2.3,Win32,59.88023952,3,1,12,-0.2115,0.3855,1,0,0,3.8914,Pegmatite_10,6,10,6,3,3.891,0.1475,-0.405,1,0,0,4.235799999,Peridotite_rect,7,4.236,0,11,0,11,0,1,,,,,,,,,,,,,
60ff7c8f4f066ccf6fe05587,SCN,2024-06-21_13h07.09.904,LearnStrategy,2023.2.3,Win32,59.88023952,3,1,13,-0.536,0.3895,1,0,0,36.3787,Diorite_16,3,16,6,1,36.379,0.1235,-0.4085,1,0,0,2.4685,Peridotite_rect,7,2.468,0,12,0,12,0,1,,,,,,,,,,,,,
60ff7c8f4f066ccf6fe05587,SCN,2024-06-21_13h07.09.904,LearnStrategy,2023.2.3,Win32,59.88023952,3,1,14,0.5795,0.2775,1,0,0,3.183199999,Obsidian_11,5,11,5,8,3.183,-0.338,-0.389,1,0,0,1.8155,Obsidian_rect,5,1.816,1,13,0,13,0,1,,,,,,,,,,,,,
60ff7c8f4f066ccf6fe05587,SCN,2024-06-21_13h07.09.904,LearnStrategy,2023.2.3,Win32,59.88023952,3,1,15,-0.368,-0.0985,1,0,0,1.180699999,Basalt_02,2,02,3,2,1.181,-0.3735,-0.2385,1,0,0,6.799300001,Andesite_rect,1,6.799,0,14,0,14,0,1,,,,,,,,,,,,,
60ff7c8f4f066ccf6fe05587,SCN,2024-06-21_13h07.09.904,LearnStrategy,2023.2.3,Win32,59.88023952,3,1,16,-0.2015,-0.26,1,0,0,2.339700001,Peridotite_13,7,13,2,3,2.34,0.101,-0.4035,1,0,0,2.611800001,Peridotite_rect,7,2.612,1,15,0,15,0,1,,,,,,,,,,,,,
60ff7c8f4f066ccf6fe05587,SCN,2024-06-21_13h07.09.904,LearnStrategy,2023.2.3,Win32,59.88023952,3,2,1,,,,,,,,8,15,,,,,,,,,,,8,2.601,1,,,,,,0.445,-0.4135,1,0,0,2.6009,Pumice_rect,0,0,0,0,1,
60ff7c8f4f066ccf6fe05587,SCN,2024-06-21_13h07.09.904,LearnStrategy,2023.2.3,Win32,59.88023952,3,2,2,,,,,,,,4,05,,,,,,,,,,,3,3.898,0,,,,,,0.136,-0.2525,1,0,0,3.8981,Diorite_rect,1,0,1,0,1,
60ff7c8f4f066ccf6fe05587,SCN,2024-06-21_13h07.09.904,LearnStrategy,2023.2.3,Win32,59.88023952,3,2,3,,,,,,,,2,08,,,,,,,,,,,2,6.431,1,,,,,,-0.141,-0.2645,1,0,0,6.4309,Basalt_rect,2,0,2,0,1,
60ff7c8f4f066ccf6fe05587,SCN,2024-06-21_13h07.09.904,LearnStrategy,2023.2.3,Win32,59.88023952,3,2,4,,,,,,,,3,08,,,,,,,,,,,6,4.913,0,,,,,,-0.0605,-0.3975,1,0,0,4.9126,Pegmatite_rect,3,0,3,0,1,
60ff7c8f4f066ccf6fe05587,SCN,2024-06-21_13h07.09.904,LearnStrategy,2023.2.3,Win32,59.88023952,3,2,5,,,,,,,,6,07,,,,,,,,,,,6,4.937,1,,,,,,-0.1,-0.382,1,0,0,4.937,Pegmatite_rect,4,0,4,0,1,
60ff7c8f4f066ccf6fe05587,SCN,2024-06-21_13h07.09.904,LearnStrategy,2023.2.3,Win32,59.88023952,3,2,6,,,,,,,,3,07,,,,,,,,,,,3,1.615,1,,,,,,0.139,-0.265,1,0,0,1.615200001,Diorite_rect,5,0,5,0,1,
60ff7c8f4f066ccf6fe05587,SCN,2024-06-21_13h07.09.904,LearnStrategy,2023.2.3,Win32,59.88023952,3,2,7,,,,,,,,8,06,,,,,,,,,,,8,2.611,1,,,,,,0.4015,-0.3945,1,0,0,2.611200001,Pumice_rect,6,0,6,0,1,
60ff7c8f4f066ccf6fe05587,SCN,2024-06-21_13h07.09.904,LearnStrategy,2023.2.3,Win32,59.88023952,3,2,8,,,,,,,,6,06,,,,,,,,,,,7,5.925,0,,,,,,0.1105,-0.408,1,0,0,5.9251,Peridotite_rect,7,0,7,0,1,
60ff7c8f4f066ccf6fe05587,SCN,2024-06-21_13h07.09.904,LearnStrategy,2023.2.3,Win32,59.88023952,3,2,9,,,,,,,,5,05,,,,,,,,,,,7,2.344,0,,,,,,0.1105,-0.408,1,0,0,2.3444,Peridotite_rect,8,0,8,0,1,
60ff7c8f4f066ccf6fe05587,SCN,2024-06-21_13h07.09.904,LearnStrategy,2023.2.3,Win32,59.88023952,3,2,10,,,,,,,,7,05,,,,,,,,,,,7,2.435,1,,,,,,0.088,-0.396,1,0,0,2.4354,Peridotite_rect,9,0,9,0,1,
60ff7c8f4f066ccf6fe05587,SCN,2024-06-21_13h07.09.904,LearnStrategy,2023.2.3,Win32,59.88023952,3,2,11,,,,,,,,5,14,,,,,,,,,,,5,1.344,1,,,,,,-0.467,-0.404,1,0,0,1.3445,Obsidian_rect,10,0,10,0,1,
60ff7c8f4f066ccf6fe05587,SCN,2024-06-21_13h07.09.904,LearnStrategy,2023.2.3,Win32,59.88023952,3,2,12,,,,,,,,7,10,,,,,,,,,,,6,2.681,0,,,,,,-0.1285,-0.4,1,0,0,2.680700001,Pegmatite_rect,11,0,11,0,1,
60ff7c8f4f066ccf6fe05587,SCN,2024-06-21_13h07.09.904,LearnStrategy,2023.2.3,Win32,59.88023952,3,2,13,,,,,,,,4,11,,,,,,,,,,,2,3.135,0,,,,,,-0.1465,-0.2545,1,0,0,3.135400002,Basalt_rect,12,0,12,0,1,
60ff7c8f4f066ccf6fe05587,SCN,2024-06-21_13h07.09.904,LearnStrategy,2023.2.3,Win32,59.88023952,3,2,14,,,,,,,,1,07,,,,,,,,,,,6,3.875,0,,,,,,-0.1425,-0.407,1,0,0,3.874900002,Pegmatite_rect,13,0,13,0,1,
60ff7c8f4f066ccf6fe05587,SCN,2024-06-21_13h07.09.904,LearnStrategy,2023.2.3,Win32,59.88023952,3,2,15,,,,,,,,1,06,,,,,,,,,,,4,3.009,0,,,,,,0.4205,-0.237,1,0,0,3.009400002,Gabbro_rect,14,0,14,0,1,
60ff7c8f4f066ccf6fe05587,SCN,2024-06-21_13h07.09.904,LearnStrategy,2023.2.3,Win32,59.88023952,3,2,16,,,,,,,,2,11,,,,,,,,,,,8,1.244,0,,,,,,0.4085,-0.3975,1,0,0,1.243700001,Pumice_rect,15,0,15,0,1,
60ff7c8f4f066ccf6fe05587,SCN,2024-06-21_13h07.09.904,LearnStrategy,2023.2.3,Win32,59.88023952,4,1,1,-0.368,0.214,1,0,0,4.7924,Andesite_16,1,16,5,2,4.792,0.096,-0.4185,1,0,0,2.043299999,Peridotite_rect,7,2.043,0,0,0,0,0,1,,,,,,,,,,,,,
60ff7c8f4f066ccf6fe05587,SCN,2024-06-21_13h07.09.904,LearnStrategy,2023.2.3,Win32,59.88023952,4,1,2,0.198,0.3825,1,0,0,2.9756,Diorite_12,3,12,6,6,2.976,0.1295,-0.4055,1,0,0,1.173700001,Peridotite_rect,7,1.174,0,1,0,1,0,1,,,,,,,,,,,,,
60ff7c8f4f066ccf6fe05587,SCN,2024-06-21_13h07.09.904,LearnStrategy,2023.2.3,Win32,59.88023952,4,1,3,0.537,-0.0895,1,0,0,53.4023,Diorite_02,3,02,3,8,53.402,0.092,-0.386,1,0,0,1.500300001,Peridotite_rect,7,1.5,0,2,0,2,0,1,,,,,,,,,,,,,
60ff7c8f4f066ccf6fe05587,SCN,2024-06-21_13h07.09.904,LearnStrategy,2023.2.3,Win32,59.88023952,4,1,4,-0.4125,-0.4275,1,0,0,4.792199999,Peridotite_16,7,16,1,2,4.792,0.118,-0.404,1,0,0,1.273,Peridotite_rect,7,1.273,1,3,0,3,0,1,,,,,,,,,,,,,
60ff7c8f4f066ccf6fe05587,SCN,2024-06-21_13h07.09.904,LearnStrategy,2023.2.3,Win32,59.88023952,4,1,5,-0.0655,-0.1195,1,0,0,2.8405,Pegmatite_03,6,03,3,4,2.841,0.099,-0.3895,1,0,0,2.650400002,Peridotite_rect,7,2.65,0,4,0,4,0,1,,,,,,,,,,,,,
60ff7c8f4f066ccf6fe05587,SCN,2024-06-21_13h07.09.904,LearnStrategy,2023.2.3,Win32,59.88023952,4,1,6,0.383,0.0885,1,0,0,2.147300001,Peridotite_07,7,07,4,7,2.147,0.191,-0.412,1,0,0,1.9839,Peridotite_rect,7,1.984,1,5,0,5,0,1,,,,,,,,,,,,,
60ff7c8f4f066ccf6fe05587,SCN,2024-06-21_13h07.09.904,LearnStrategy,2023.2.3,Win32,59.88023952,4,1,7,0.0865,0.374,1,0,0,2.1569,Peridotite_06,7,06,6,5,2.157,-0.0935,-0.379,1,0,0,2.2674,Pegmatite_rect,6,2.267,0,6,0,6,0,1,,,,,,,,,,,,,
60ff7c8f4f066ccf6fe05587,SCN,2024-06-21_13h07.09.904,LearnStrategy,2023.2.3,Win32,59.88023952,4,1,8,-0.271,0.0665,1,0,0,1.134199999,Peridotite_14,7,14,4,3,1.134,0.1345,-0.235,1,0,0,2.6664,Diorite_rect,3,2.666,0,7,0,7,0,1,,,,,,,,,,,,,
60ff7c8f4f066ccf6fe05587,SCN,2024-06-21_13h07.09.904,LearnStrategy,2023.2.3,Win32,59.88023952,4,1,9,-0.408,0.22,1,0,0,1.6804,Andesite_16,1,16,5,2,1.68,0.1575,-0.23,1,0,0,1.979,Diorite_rect,3,1.979,0,8,0,8,0,1,,,,,,,,,,,,,
60ff7c8f4f066ccf6fe05587,SCN,2024-06-21_13h07.09.904,LearnStrategy,2023.2.3,Win32,59.88023952,4,1,10,0.093,0.2895,1,0,0,1.323200001,Gabbro_01,4,01,5,5,1.323,0.149,-0.2555,1,0,0,0.920799999,Diorite_rect,3,0.921,0,9,0,9,0,1,,,,,,,,,,,,,
60ff7c8f4f066ccf6fe05587,SCN,2024-06-21_13h07.09.904,LearnStrategy,2023.2.3,Win32,59.88023952,4,1,11,0.567,-0.0965,1,0,0,1.0759,Diorite_02,3,02,3,8,1.076,0.1975,-0.271,1,0,0,2.869,Diorite_rect,3,2.869,1,10,0,10,0,1,,,,,,,,,,,,,
60ff7c8f4f066ccf6fe05587,SCN,2024-06-21_13h07.09.904,LearnStrategy,2023.2.3,Win32,59.88023952,4,1,12,-0.539,-0.1095,1,0,0,5.826400002,Diorite_09,3,09,3,1,5.826,0.1055,-0.2545,1,0,0,2.282900002,Diorite_rect,3,2.283,1,11,0,11,0,1,,,,,,,,,,,,,
60ff7c8f4f066ccf6fe05587,SCN,2024-06-21_13h07.09.904,LearnStrategy,2023.2.3,Win32,59.88023952,4,1,13,-0.226,-0.2545,1,0,0,5.176699999,Peridotite_13,7,13,2,3,5.177,0.1355,-0.396,1,0,0,1.615,Peridotite_rect,7,1.615,1,12,0,12,0,1,,,,,,,,,,,,,
60ff7c8f4f066ccf6fe05587,SCN,2024-06-21_13h07.09.904,LearnStrategy,2023.2.3,Win32,59.88023952,4,1,14,0.217,0.3915,1,0,0,3.8141,Diorite_12,3,12,6,6,3.814,0.159,-0.403,1,0,0,5.8615,Peridotite_rect,7,5.861,0,13,0,13,0,1,,,,,,,,,,,,,
60ff7c8f4f066ccf6fe05587,SCN,2024-06-21_13h07.09.904,LearnStrategy,2023.2.3,Win32,59.88023952,4,1,15,0.545,-0.0905,1,0,0,10.8641,Diorite_02,3,02,3,8,10.864,0.182,-0.268,1,0,0,1.6984,Diorite_rect,3,1.698,1,14,0,14,0,1,,,,,,,,,,,,,
60ff7c8f4f066ccf6fe05587,SCN,2024-06-21_13h07.09.904,LearnStrategy,2023.2.3,Win32,59.88023952,4,1,16,0.2105,0.427,1,0,0,4.4925,Diorite_12,3,12,6,6,4.492,0.134,-0.2615,1,0,0,1.5404,Diorite_rect,3,1.54,1,15,0,15,0,1,,,,,,,,,,,,,
60ff7c8f4f066ccf6fe05587,SCN,2024-06-21_13h07.09.904,LearnStrategy,2023.2.3,Win32,59.88023952,4,2,1,,,,,,,,6,06,,,,,,,,,,,7,4.503,0,,,,,,0.04,-0.3935,1,0,0,4.5034,Peridotite_rect,0,0,0,0,1,
60ff7c8f4f066ccf6fe05587,SCN,2024-06-21_13h07.09.904,LearnStrategy,2023.2.3,Win32,59.88023952,4,2,2,,,,,,,,4,05,,,,,,,,,,,3,3.204,0,,,,,,0.0785,-0.255,1,0,0,3.2041,Diorite_rect,1,0,1,0,1,
60ff7c8f4f066ccf6fe05587,SCN,2024-06-21_13h07.09.904,LearnStrategy,2023.2.3,Win32,59.88023952,4,2,3,,,,,,,,2,04,,,,,,,,,,,4,7.197,0,,,,,,0.4495,-0.24,1,0,0,7.197299999,Gabbro_rect,2,0,2,0,1,
60ff7c8f4f066ccf6fe05587,SCN,2024-06-21_13h07.09.904,LearnStrategy,2023.2.3,Win32,59.88023952,4,2,4,,,,,,,,1,01,,,,,,,,,,,3,9.922,0,,,,,,0.1435,-0.2595,1,0,0,9.9219,Diorite_rect,3,0,3,0,1,
60ff7c8f4f066ccf6fe05587,SCN,2024-06-21_13h07.09.904,LearnStrategy,2023.2.3,Win32,59.88023952,4,2,5,,,,,,,,5,10,,,,,,,,,,,5,2.758,1,,,,,,-0.359,-0.3995,1,0,0,2.757799999,Obsidian_rect,4,0,4,0,1,
60ff7c8f4f066ccf6fe05587,SCN,2024-06-21_13h07.09.904,LearnStrategy,2023.2.3,Win32,59.88023952,4,2,6,,,,,,,,8,09,,,,,,,,,,,8,1.576,1,,,,,,0.387,-0.397,1,0,0,1.576,Pumice_rect,5,0,5,0,1,
60ff7c8f4f066ccf6fe05587,SCN,2024-06-21_13h07.09.904,LearnStrategy,2023.2.3,Win32,59.88023952,4,2,7,,,,,,,,5,02,,,,,,,,,,,5,1.945,1,,,,,,-0.345,-0.4045,1,0,0,1.944700001,Obsidian_rect,6,0,6,0,1,
60ff7c8f4f066ccf6fe05587,SCN,2024-06-21_13h07.09.904,LearnStrategy,2023.2.3,Win32,59.88023952,4,2,8,,,,,,,,3,08,,,,,,,,,,,7,3.018,0,,,,,,0.0605,-0.3985,1,0,0,3.018299999,Peridotite_rect,7,0,7,0,1,
60ff7c8f4f066ccf6fe05587,SCN,2024-06-21_13h07.09.904,LearnStrategy,2023.2.3,Win32,59.88023952,4,2,9,,,,,,,,6,05,,,,,,,,,,,7,5.328,0,,,,,,0.079,-0.384,1,0,0,5.328299999,Peridotite_rect,8,0,8,0,1,
60ff7c8f4f066ccf6fe05587,SCN,2024-06-21_13h07.09.904,LearnStrategy,2023.2.3,Win32,59.88023952,4,2,10,,,,,,,,3,15,,,,,,,,,,,6,4.236,0,,,,,,-0.1135,-0.403,1,0,0,4.2364,Pegmatite_rect,9,0,9,0,1,
60ff7c8f4f066ccf6fe05587,SCN,2024-06-21_13h07.09.904,LearnStrategy,2023.2.3,Win32,59.88023952,4,2,11,,,,,,,,7,02,,,,,,,,,,,7,2.46,1,,,,,,0.186,-0.419,1,0,0,2.4605,Peridotite_rect,10,0,10,0,1,
60ff7c8f4f066ccf6fe05587,SCN,2024-06-21_13h07.09.904,LearnStrategy,2023.2.3,Win32,59.88023952,4,2,12,,,,,,,,7,10,,,,,,,,,,,4,2.823,0,,,,,,0.439,-0.2545,1,0,0,2.822799999,Gabbro_rect,11,0,11,0,1,
60ff7c8f4f066ccf6fe05587,SCN,2024-06-21_13h07.09.904,LearnStrategy,2023.2.3,Win32,59.88023952,4,2,13,,,,,,,,2,11,,,,,,,,,,,8,2.87,0,,,,,,0.4185,-0.3975,1,0,0,2.869700001,Pumice_rect,12,0,12,0,1,
60ff7c8f4f066ccf6fe05587,SCN,2024-06-21_13h07.09.904,LearnStrategy,2023.2.3,Win32,59.88023952,4,2,14,,,,,,,,1,05,,,,,,,,,,,1,5.041,1,,,,,,-0.306,-0.2695,1,0,0,5.040800001,Andesite_rect,13,0,13,0,1,
60ff7c8f4f066ccf6fe05587,SCN,2024-06-21_13h07.09.904,LearnStrategy,2023.2.3,Win32,59.88023952,4,2,15,,,,,,,,8,10,,,,,,,,,,,4,4.674,0,,,,,,0.351,-0.2455,1,0,0,4.674,Gabbro_rect,14,0,14,0,1,
60ff7c8f4f066ccf6fe05587,SCN,2024-06-21_13h07.09.904,LearnStrategy,2023.2.3,Win32,59.88023952,4,2,16,,,,,,,,4,11,,,,,,,,,,,1,3.158,0,,,,,,-0.3505,-0.263,1,0,0,3.158200001,Andesite_rect,15,0,15,0,1,
60ff7c8f4f066ccf6fe05587,SCN,2024-06-21_13h07.09.904,LearnStrategy,2023.2.3,Win32,59.88023952,5,1,1,-0.5555,0.4145,1,0,0,6.4314,Diorite_16,3,16,6,1,6.431,0.075,-0.401,1,0,0,1.575799999,Peridotite_rect,7,1.576,0,0,0,0,0,1,,,,,,,,,,,,,
60ff7c8f4f066ccf6fe05587,SCN,2024-06-21_13h07.09.904,LearnStrategy,2023.2.3,Win32,59.88023952,5,1,2,-0.083,0.381,1,0,0,2.949700001,Pegmatite_13,6,13,6,4,2.95,0.166,-0.256,1,0,0,1.488800001,Diorite_rect,3,1.489,0,1,0,1,0,1,,,,,,,,,,,,,
60ff7c8f4f066ccf6fe05587,SCN,2024-06-21_13h07.09.904,LearnStrategy,2023.2.3,Win32,59.88023952,5,1,3,-0.381,0.431,1,0,0,1.839299999,Pegmatite_16,6,16,6,2,1.839,-0.09,-0.405,1,0,0,1.814900002,Pegmatite_rect,6,1.815,1,2,0,2,0,1,,,,,,,,,,,,,
60ff7c8f4f066ccf6fe05587,SCN,2024-06-21_13h07.09.904,LearnStrategy,2023.2.3,Win32,59.88023952,5,1,4,0.2195,0.3935,1,0,0,8.277,Diorite_12,3,12,6,6,8.277,0.192,-0.25,1,0,0,1.11,Diorite_rect,3,1.11,1,3,0,3,0,1,,,,,,,,,,,,,
60ff7c8f4f066ccf6fe05587,SCN,2024-06-21_13h07.09.904,LearnStrategy,2023.2.3,Win32,59.88023952,5,1,5,-0.5655,-0.069,1,0,0,4.364200001,Diorite_09,3,09,3,1,4.364,0.078,-0.251,1,0,0,1.3236,Diorite_rect,3,1.324,1,4,0,4,0,1,,,,,,,,,,,,,
60ff7c8f4f066ccf6fe05587,SCN,2024-06-21_13h07.09.904,LearnStrategy,2023.2.3,Win32,59.88023952,5,1,6,-0.387,0.398,1,0,0,2.107300001,Pegmatite_16,6,16,6,2,2.107,-0.126,-0.386,1,0,0,1.8811,Pegmatite_rect,6,1.881,1,5,0,5,0,1,,,,,,,,,,,,,
60ff7c8f4f066ccf6fe05587,SCN,2024-06-21_13h07.09.904,LearnStrategy,2023.2.3,Win32,59.88023952,5,1,7,-0.2295,0.08,1,0,0,1.9135,Peridotite_14,7,14,4,3,1.913,-0.3375,-0.24,1,0,0,5.210700001,Andesite_rect,1,5.211,0,6,0,6,0,1,,,,,,,,,,,,,
60ff7c8f4f066ccf6fe05587,SCN,2024-06-21_13h07.09.904,LearnStrategy,2023.2.3,Win32,59.88023952,5,1,8,0.5315,0.4255,1,0,0,2.1281,Basalt_06,2,06,6,8,2.128,0.3375,-0.2635,1,0,0,2.239699999,Gabbro_rect,4,2.24,0,7,0,7,0,1,,,,,,,,,,,,,
60ff7c8f4f066ccf6fe05587,SCN,2024-06-21_13h07.09.904,LearnStrategy,2023.2.3,Win32,59.88023952,5,1,9,0.5715,0.0845,1,0,0,2.317900002,Andesite_04,1,04,4,8,2.318,0.463,-0.2415,1,0,0,0.907299999,Gabbro_rect,4,0.907,0,8,0,8,0,1,,,,,,,,,,,,,
60ff7c8f4f066ccf6fe05587,SCN,2024-06-21_13h07.09.904,LearnStrategy,2023.2.3,Win32,59.88023952,5,1,10,0.065,-0.1495,1,0,0,5.0499,Pegmatite_15,6,15,3,5,5.05,0.167,-0.413,1,0,0,2.514,Peridotite_rect,7,2.514,0,9,0,9,0,1,,,,,,,,,,,,,
60ff7c8f4f066ccf6fe05587,SCN,2024-06-21_13h07.09.904,LearnStrategy,2023.2.3,Win32,59.88023952,5,1,11,0.5525,-0.275,1,0,0,6.762300001,Gabbro_03,4,03,2,8,6.762,-0.3025,-0.271,1,0,0,2.425700001,Andesite_rect,1,2.426,0,10,0,10,0,1,,,,,,,,,,,,,
60ff7c8f4f066ccf6fe05587,SCN,2024-06-21_13h07.09.904,LearnStrategy,2023.2.3,Win32,59.88023952,5,1,12,-0.0945,0.2075,1,0,0,5.698799999,Basalt_10,2,10,5,4,5.699,-0.361,-0.2425,1,0,0,0.925200001,Andesite_rect,1,0.925,0,11,0,11,0,1,,,,,,,,,,,,,
60ff7c8f4f066ccf6fe05587,SCN,2024-06-21_13h07.09.904,LearnStrategy,2023.2.3,Win32,59.88023952,5,1,13,-0.3685,-0.095,1,0,0,1.909599998,Basalt_02,2,02,3,2,1.91,-0.3485,-0.2635,1,0,0,3.208700001,Andesite_rect,1,3.209,0,12,0,12,0,1,,,,,,,,,,,,,
60ff7c8f4f066ccf6fe05587,SCN,2024-06-21_13h07.09.904,LearnStrategy,2023.2.3,Win32,59.88023952,5,1,14,-0.559,-0.401,1,0,0,0.9891,Andesite_09,1,09,1,1,0.989,-0.3875,-0.2585,1,0,0,1.508,Andesite_rect,1,1.508,1,13,0,13,0,1,,,,,,,,,,,,,
60ff7c8f4f066ccf6fe05587,SCN,2024-06-21_13h07.09.904,LearnStrategy,2023.2.3,Win32,59.88023952,5,1,15,0.081,0.253,1,0,0,2.9235,Gabbro_01,4,01,5,5,2.923,0.3555,-0.2405,1,0,0,1.4104,Gabbro_rect,4,1.41,1,14,0,14,0,1,,,,,,,,,,,,,
60ff7c8f4f066ccf6fe05587,SCN,2024-06-21_13h07.09.904,LearnStrategy,2023.2.3,Win32,59.88023952,5,1,16,-0.217,0.0805,1,0,0,2.081,Peridotite_14,7,14,4,3,2.081,0.099,-0.2705,1,0,0,6.154799999,Diorite_rect,3,6.155,0,15,0,15,0,1,,,,,,,,,,,,,
60ff7c8f4f066ccf6fe05587,SCN,2024-06-21_13h07.09.904,LearnStrategy,2023.2.3,Win32,59.88023952,5,2,1,,,,,,,,2,08,,,,,,,,,,,2,7.866,1,,,,,,-0.1205,-0.2485,1,0,0,7.8661,Basalt_rect,0,0,0,0,1,
60ff7c8f4f066ccf6fe05587,SCN,2024-06-21_13h07.09.904,LearnStrategy,2023.2.3,Win32,59.88023952,5,2,2,,,,,,,,4,12,,,,,,,,,,,4,21.699,1,,,,,,0.405,-0.268,1,0,0,21.6993,Gabbro_rect,1,0,1,0,1,
60ff7c8f4f066ccf6fe05587,SCN,2024-06-21_13h07.09.904,LearnStrategy,2023.2.3,Win32,59.88023952,5,2,3,,,,,,,,1,06,,,,,,,,,,,1,4.88,1,,,,,,-0.408,-0.2285,1,0,0,4.8801,Andesite_rect,2,0,2,0,1,
60ff7c8f4f066ccf6fe05587,SCN,2024-06-21_13h07.09.904,LearnStrategy,2023.2.3,Win32,59.88023952,5,2,4,,,,,,,,5,07,,,,,,,,,,,5,2.362,1,,,,,,-0.4185,-0.3945,1,0,0,2.3616,Obsidian_rect,3,0,3,0,1,
60ff7c8f4f066ccf6fe05587,SCN,2024-06-21_13h07.09.904,LearnStrategy,2023.2.3,Win32,59.88023952,5,2,5,,,,,,,,5,14,,,,,,,,,,,5,1.557,1,,,,,,-0.4015,-0.3945,1,0,0,1.557299999,Obsidian_rect,4,0,4,0,1,
60ff7c8f4f066ccf6fe05587,SCN,2024-06-21_13h07.09.904,LearnStrategy,2023.2.3,Win32,59.88023952,5,2,6,,,,,,,,6,07,,,,,,,,,,,6,7.767,1,,,,,,-0.1365,-0.4195,1,0,0,7.767299999,Pegmatite_rect,5,0,5,0,1,
60ff7c8f4f066ccf6fe05587,SCN,2024-06-21_13h07.09.904,LearnStrategy,2023.2.3,Win32,59.88023952,5,2,7,,,,,,,,4,14,,,,,,,,,,,1,13.33,0,,,,,,-0.4135,-0.2695,1,0,0,13.3296,Andesite_rect,6,0,6,0,1,
60ff7c8f4f066ccf6fe05587,SCN,2024-06-21_13h07.09.904,LearnStrategy,2023.2.3,Win32,59.88023952,5,2,8,,,,,,,,6,11,,,,,,,,,,,6,2.039,1,,,,,,-0.0975,-0.394,1,0,0,2.0391,Pegmatite_rect,7,0,7,0,1,
60ff7c8f4f066ccf6fe05587,SCN,2024-06-21_13h07.09.904,LearnStrategy,2023.2.3,Win32,59.88023952,5,2,9,,,,,,,,7,12,,,,,,,,,,,7,13.062,1,,,,,,0.1145,-0.3805,1,0,0,13.0618,Peridotite_rect,8,0,8,0,1,
60ff7c8f4f066ccf6fe05587,SCN,2024-06-21_13h07.09.904,LearnStrategy,2023.2.3,Win32,59.88023952,5,2,10,,,,,,,,3,14,,,,,,,,,,,3,4.138,1,,,,,,0.121,-0.2455,1,0,0,4.137799999,Diorite_rect,9,0,9,0,1,
60ff7c8f4f066ccf6fe05587,SCN,2024-06-21_13h07.09.904,LearnStrategy,2023.2.3,Win32,59.88023952,5,2,11,,,,,,,,8,15,,,,,,,,,,,8,4.742,1,,,,,,0.462,-0.3805,1,0,0,4.7424,Pumice_rect,10,0,10,0,1,
60ff7c8f4f066ccf6fe05587,SCN,2024-06-21_13h07.09.904,LearnStrategy,2023.2.3,Win32,59.88023952,5,2,12,,,,,,,,3,07,,,,,,,,,,,3,10.905,1,,,,,,0.1715,-0.233,1,0,0,10.9055,Diorite_rect,11,0,11,0,1,
60ff7c8f4f066ccf6fe05587,SCN,2024-06-21_13h07.09.904,LearnStrategy,2023.2.3,Win32,59.88023952,5,2,13,,,,,,,,2,05,,,,,,,,,,,2,1.556,1,,,,,,-0.081,-0.267,1,0,0,1.5559,Basalt_rect,12,0,12,0,1,
60ff7c8f4f066ccf6fe05587,SCN,2024-06-21_13h07.09.904,LearnStrategy,2023.2.3,Win32,59.88023952,5,2,14,,,,,,,,7,15,,,,,,,,,,,4,8.863,0,,,,,,0.4075,-0.243,1,0,0,8.8634,Gabbro_rect,13,0,13,0,1,
60ff7c8f4f066ccf6fe05587,SCN,2024-06-21_13h07.09.904,LearnStrategy,2023.2.3,Win32,59.88023952,5,2,15,,,,,,,,1,07,,,,,,,,,,,3,14.593,0,,,,,,0.165,-0.2535,1,0,0,14.593,Diorite_rect,14,0,14,0,1,
60ff7c8f4f066ccf6fe05587,SCN,2024-06-21_13h07.09.904,LearnStrategy,2023.2.3,Win32,59.88023952,5,2,16,,,,,,,,8,03,,,,,,,,,,,8,2.042,1,,,,,,0.437,-0.4105,1,0,0,2.042,Pumice_rect,15,0,15,0,1,
60ff7c8f4f066ccf6fe05587,SCN,2024-06-21_13h07.09.904,LearnStrategy,2023.2.3,Win32,59.88023952,6,1,1,0.371,-0.4,1,0,0,9.430699999,Diorite_13,3,13,1,7,9.431,0.1925,-0.409,1,0,0,2.587900002,Peridotite_rect,7,2.588,0,0,0,0,0,1,,,,,,,,,,,,,
60ff7c8f4f066ccf6fe05587,SCN,2024-06-21_13h07.09.904,LearnStrategy,2023.2.3,Win32,59.88023952,6,1,2,0.352,-0.2535,1,0,0,6.894199999,Diorite_10,3,10,2,7,6.894,-0.3715,-0.2495,1,0,0,13.8347,Andesite_rect,1,13.835,0,1,0,1,0,1,,,,,,,,,,,,,
60ff7c8f4f066ccf6fe05587,SCN,2024-06-21_13h07.09.904,LearnStrategy,2023.2.3,Win32,59.88023952,6,1,3,-0.2185,-0.125,1,0,0,2.7195,Andesite_10,1,10,3,3,2.72,0.3755,-0.259,1,0,0,6.0819,Gabbro_rect,4,6.082,0,2,0,2,0,1,,,,,,,,,,,,,
60ff7c8f4f066ccf6fe05587,SCN,2024-06-21_13h07.09.904,LearnStrategy,2023.2.3,Win32,59.88023952,6,1,4,-0.396,-0.4195,1,0,0,1.5544,Peridotite_16,7,16,1,2,1.554,0.1465,-0.3915,1,0,0,2.061699999,Peridotite_rect,7,2.062,1,3,0,3,0,1,,,,,,,,,,,,,
60ff7c8f4f066ccf6fe05587,SCN,2024-06-21_13h07.09.904,LearnStrategy,2023.2.3,Win32,59.88023952,6,1,5,0.0595,-0.2615,1,0,0,2.6861,Gabbro_16,4,16,2,5,2.686,-0.1075,-0.2635,1,0,0,2.0716,Basalt_rect,2,2.072,0,4,0,4,0,1,,,,,,,,,,,,,
60ff7c8f4f066ccf6fe05587,SCN,2024-06-21_13h07.09.904,LearnStrategy,2023.2.3,Win32,59.88023952,6,1,6,0.2385,0.2475,1,0,0,3.434699999,Pumice_08,8,08,5,6,3.435,0.468,-0.4215,1,0,0,1.331199999,Pumice_rect,8,1.331,1,5,0,5,0,1,,,,,,,,,,,,,
60ff7c8f4f066ccf6fe05587,SCN,2024-06-21_13h07.09.904,LearnStrategy,2023.2.3,Win32,59.88023952,6,1,7,-0.234,0.077,1,0,0,1.1461,Peridotite_14,7,14,4,3,1.146,0.086,-0.4095,1,0,0,1.115900002,Peridotite_rect,7,1.116,1,6,0,6,0,1,,,,,,,,,,,,,
60ff7c8f4f066ccf6fe05587,SCN,2024-06-21_13h07.09.904,LearnStrategy,2023.2.3,Win32,59.88023952,6,1,8,0.214,0.24,1,0,0,3.3745,Pumice_08,8,08,5,6,3.374,0.4135,-0.4,1,0,0,2.5184,Pumice_rect,8,2.518,1,7,0,7,0,1,,,,,,,,,,,,,
60ff7c8f4f066ccf6fe05587,SCN,2024-06-21_13h07.09.904,LearnStrategy,2023.2.3,Win32,59.88023952,6,1,9,-0.214,0.3975,1,0,0,1.785300001,Pegmatite_10,6,10,6,3,1.785,0.173,-0.3815,1,0,0,1.056299999,Peridotite_rect,7,1.056,0,8,0,8,0,1,,,,,,,,,,,,,
60ff7c8f4f066ccf6fe05587,SCN,2024-06-21_13h07.09.904,LearnStrategy,2023.2.3,Win32,59.88023952,6,1,10,-0.0615,0.382,1,0,0,1.258,Pegmatite_13,6,13,6,4,1.258,-0.0605,-0.3855,1,0,0,1.570900002,Pegmatite_rect,6,1.571,1,9,0,9,0,1,,,,,,,,,,,,,
60ff7c8f4f066ccf6fe05587,SCN,2024-06-21_13h07.09.904,LearnStrategy,2023.2.3,Win32,59.88023952,6,1,11,0.1085,0.3915,1,0,0,0.954800001,Peridotite_06,7,06,6,5,0.955,0.1345,-0.391,1,0,0,3.475,Peridotite_rect,7,3.475,1,10,0,10,0,1,,,,,,,,,,,,,
60ff7c8f4f066ccf6fe05587,SCN,2024-06-21_13h07.09.904,LearnStrategy,2023.2.3,Win32,59.88023952,6,1,12,0.245,0.3815,1,0,0,1.291800001,Diorite_12,3,12,6,6,1.292,0.15,-0.2625,1,0,0,14.7479,Diorite_rect,3,14.748,1,11,0,11,0,1,,,,,,,,,,,,,
60ff7c8f4f066ccf6fe05587,SCN,2024-06-21_13h07.09.904,LearnStrategy,2023.2.3,Win32,59.88023952,6,1,13,0.0865,-0.4335,1,0,0,4.438300001,Peridotite_08,7,08,1,5,4.438,0.1245,-0.406,1,0,0,18.7964,Peridotite_rect,7,18.796,1,12,0,12,0,1,,,,,,,,,,,,,
60ff7c8f4f066ccf6fe05587,SCN,2024-06-21_13h07.09.904,LearnStrategy,2023.2.3,Win32,59.88023952,6,1,14,0.087,-0.4145,1,0,0,9.460700001,Peridotite_08,7,08,1,5,9.461,0.4055,-0.2425,1,0,0,1.026,Gabbro_rect,4,1.026,0,13,0,13,0,1,,,,,,,,,,,,,
60ff7c8f4f066ccf6fe05587,SCN,2024-06-21_13h07.09.904,LearnStrategy,2023.2.3,Win32,59.88023952,6,1,15,-0.389,-0.414,1,0,0,3.5015,Peridotite_16,7,16,1,2,3.501,0.126,-0.4005,1,0,0,3.2085,Peridotite_rect,7,3.208,1,14,0,14,0,1,,,,,,,,,,,,,
60ff7c8f4f066ccf6fe05587,SCN,2024-06-21_13h07.09.904,LearnStrategy,2023.2.3,Win32,59.88023952,6,1,16,-0.0555,-0.1395,1,0,0,1.5296,Pegmatite_03,6,03,3,4,1.53,-0.0775,-0.407,1,0,0,2.2824,Pegmatite_rect,6,2.282,1,15,0,15,0,1,,,,,,,,,,,,,
60ff7c8f4f066ccf6fe05587,SCN,2024-06-21_13h07.09.904,LearnStrategy,2023.2.3,Win32,59.88023952,6,2,1,,,,,,,,7,05,,,,,,,,,,,7,20.897,1,,,,,,0.1475,-0.4185,1,0,0,20.8966,Peridotite_rect,0,0,0,0,1,
60ff7c8f4f066ccf6fe05587,SCN,2024-06-21_13h07.09.904,LearnStrategy,2023.2.3,Win32,59.88023952,6,2,2,,,,,,,,1,02,,,,,,,,,,,1,8.627,1,,,,,,-0.357,-0.255,1,0,0,8.627199999,Andesite_rect,1,0,1,0,1,
60ff7c8f4f066ccf6fe05587,SCN,2024-06-21_13h07.09.904,LearnStrategy,2023.2.3,Win32,59.88023952,6,2,3,,,,,,,,2,01,,,,,,,,,,,2,16.745,1,,,,,,-0.129,-0.259,1,0,0,16.7453,Basalt_rect,2,0,2,0,1,
60ff7c8f4f066ccf6fe05587,SCN,2024-06-21_13h07.09.904,LearnStrategy,2023.2.3,Win32,59.88023952,6,2,4,,,,,,,,7,04,,,,,,,,,,,7,23.846,1,,,,,,0.1415,-0.409,1,0,0,23.8456,Peridotite_rect,3,0,3,0,1,
60ff7c8f4f066ccf6fe05587,SCN,2024-06-21_13h07.09.904,LearnStrategy,2023.2.3,Win32,59.88023952,6,2,5,,,,,,,,6,12,,,,,,,,,,,7,18.559,0,,,,,,0.1115,-0.4055,1,0,0,18.559,Peridotite_rect,4,0,4,0,1,
60ff7c8f4f066ccf6fe05587,SCN,2024-06-21_13h07.09.904,LearnStrategy,2023.2.3,Win32,59.88023952,6,2,6,,,,,,,,5,09,,,,,,,,,,,5,1.561,1,,,,,,-0.3655,-0.389,1,0,0,1.560800001,Obsidian_rect,5,0,5,0,1,
60ff7c8f4f066ccf6fe05587,SCN,2024-06-21_13h07.09.904,LearnStrategy,2023.2.3,Win32,59.88023952,6,2,7,,,,,,,,8,02,,,,,,,,,,,8,1.46,1,,,,,,0.368,-0.381,1,0,0,1.460299999,Pumice_rect,6,0,6,0,1,
60ff7c8f4f066ccf6fe05587,SCN,2024-06-21_13h07.09.904,LearnStrategy,2023.2.3,Win32,59.88023952,6,2,8,,,,,,,,4,13,,,,,,,,,,,4,16.393,1,,,,,,0.422,-0.265,1,0,0,16.3925,Gabbro_rect,7,0,7,0,1,
60ff7c8f4f066ccf6fe05587,SCN,2024-06-21_13h07.09.904,LearnStrategy,2023.2.3,Win32,59.88023952,6,2,9,,,,,,,,6,09,,,,,,,,,,,6,3.895,1,,,,,,-0.087,-0.3795,1,0,0,3.8954,Pegmatite_rect,8,0,8,0,1,
60ff7c8f4f066ccf6fe05587,SCN,2024-06-21_13h07.09.904,LearnStrategy,2023.2.3,Win32,59.88023952,6,2,10,,,,,,,,5,05,,,,,,,,,,,5,2.083,1,,,,,,-0.4495,-0.4055,1,0,0,2.0831,Obsidian_rect,9,0,9,0,1,
60ff7c8f4f066ccf6fe05587,SCN,2024-06-21_13h07.09.904,LearnStrategy,2023.2.3,Win32,59.88023952,6,2,11,,,,,,,,8,06,,,,,,,,,,,8,1.454,1,,,,,,0.3535,-0.388,1,0,0,1.4545,Pumice_rect,10,0,10,0,1,
60ff7c8f4f066ccf6fe05587,SCN,2024-06-21_13h07.09.904,LearnStrategy,2023.2.3,Win32,59.88023952,6,2,12,,,,,,,,3,06,,,,,,,,,,,3,8.378,1,,,,,,0.16,-0.238,1,0,0,8.377599998,Diorite_rect,11,0,11,0,1,
60ff7c8f4f066ccf6fe05587,SCN,2024-06-21_13h07.09.904,LearnStrategy,2023.2.3,Win32,59.88023952,6,2,13,,,,,,,,3,11,,,,,,,,,,,3,2.337,1,,,,,,0.1115,-0.241,1,0,0,2.337,Diorite_rect,12,0,12,0,1,
60ff7c8f4f066ccf6fe05587,SCN,2024-06-21_13h07.09.904,LearnStrategy,2023.2.3,Win32,59.88023952,6,2,14,,,,,,,,1,11,,,,,,,,,,,1,5.489,1,,,,,,-0.3515,-0.2455,1,0,0,5.489200001,Andesite_rect,13,0,13,0,1,
60ff7c8f4f066ccf6fe05587,SCN,2024-06-21_13h07.09.904,LearnStrategy,2023.2.3,Win32,59.88023952,6,2,15,,,,,,,,4,10,,,,,,,,,,,1,15.597,0,,,,,,-0.3735,-0.2555,1,0,0,15.5974,Andesite_rect,14,0,14,0,1,
60ff7c8f4f066ccf6fe05587,SCN,2024-06-21_13h07.09.904,LearnStrategy,2023.2.3,Win32,59.88023952,6,2,16,,,,,,,,2,16,,,,,,,,,,,4,3.131,0,,,,,,0.343,-0.2445,1,0,0,3.1306,Gabbro_rect,15,0,15,0,1,
60ff7c8f4f066ccf6fe05587,SCN,2024-06-21_13h07.09.904,LearnStrategy,2023.2.3,Win32,59.88023952,7,1,1,0.528,-0.0855,1,0,0,10.3459,Diorite_02,3,02,3,8,10.346,0.412,-0.2315,1,0,0,1.2785,Gabbro_rect,4,1.278,0,0,0,0,0,1,,,,,,,,,,,,,
60ff7c8f4f066ccf6fe05587,SCN,2024-06-21_13h07.09.904,LearnStrategy,2023.2.3,Win32,59.88023952,7,1,2,0.081,-0.114,1,0,0,2.134300001,Pegmatite_15,6,15,3,5,2.134,-0.082,-0.4035,1,0,0,1.3034,Pegmatite_rect,6,1.303,1,1,0,1,0,1,,,,,,,,,,,,,
60ff7c8f4f066ccf6fe05587,SCN,2024-06-21_13h07.09.904,LearnStrategy,2023.2.3,Win32,59.88023952,7,1,3,-0.262,0.07,1,0,0,3.3471,Peridotite_14,7,14,4,3,3.347,0.118,-0.3825,1,0,0,6.407199999,Peridotite_rect,7,6.407,1,2,0,2,0,1,,,,,,,,,,,,,
60ff7c8f4f066ccf6fe05587,SCN,2024-06-21_13h07.09.904,LearnStrategy,2023.2.3,Win32,59.88023952,7,1,4,0.3645,0.215,1,0,0,2.861,Basalt_14,2,14,5,7,2.861,0.3775,-0.249,1,0,0,1.2365,Gabbro_rect,4,1.236,0,3,0,3,0,1,,,,,,,,,,,,,
60ff7c8f4f066ccf6fe05587,SCN,2024-06-21_13h07.09.904,LearnStrategy,2023.2.3,Win32,59.88023952,7,1,5,-0.207,0.249,1,0,0,2.4099,Pumice_14,8,14,5,3,2.41,0.3125,-0.3925,1,0,0,1.940699999,Pumice_rect,8,1.941,1,4,0,4,0,1,,,,,,,,,,,,,
60ff7c8f4f066ccf6fe05587,SCN,2024-06-21_13h07.09.904,LearnStrategy,2023.2.3,Win32,59.88023952,7,1,6,-0.5205,-0.4085,1,0,0,1.674300001,Andesite_09,1,09,1,1,1.674,-0.427,-0.2575,1,0,0,1.277700001,Andesite_rect,1,1.278,1,5,0,5,0,1,,,,,,,,,,,,,
60ff7c8f4f066ccf6fe05587,SCN,2024-06-21_13h07.09.904,LearnStrategy,2023.2.3,Win32,59.88023952,7,1,7,-0.418,-0.4395,1,0,0,2.1011,Peridotite_16,7,16,1,2,2.101,0.179,-0.3925,1,0,0,6.783299999,Peridotite_rect,7,6.783,1,6,0,6,0,1,,,,,,,,,,,,,
60ff7c8f4f066ccf6fe05587,SCN,2024-06-21_13h07.09.904,LearnStrategy,2023.2.3,Win32,59.88023952,7,1,8,0.2155,-0.4385,1,0,0,1.8595,Pumice_16,8,16,1,6,1.86,0.369,-0.4085,1,0,0,2.569300001,Pumice_rect,8,2.569,1,7,0,7,0,1,,,,,,,,,,,,,
60ff7c8f4f066ccf6fe05587,SCN,2024-06-21_13h07.09.904,LearnStrategy,2023.2.3,Win32,59.88023952,7,1,9,0.19,-0.267,1,0,0,1.2894,Obsidian_08,5,08,2,6,1.289,-0.3705,-0.402,1,0,0,1.585799999,Obsidian_rect,5,1.586,1,8,0,8,0,1,,,,,,,,,,,,,
60ff7c8f4f066ccf6fe05587,SCN,2024-06-21_13h07.09.904,LearnStrategy,2023.2.3,Win32,59.88023952,7,1,10,0.076,-0.2545,1,0,0,1.8756,Gabbro_16,4,16,2,5,1.876,0.353,-0.254,1,0,0,5.0219,Gabbro_rect,4,5.022,1,9,0,9,0,1,,,,,,,,,,,,,
60ff7c8f4f066ccf6fe05587,SCN,2024-06-21_13h07.09.904,LearnStrategy,2023.2.3,Win32,59.88023952,7,1,11,0.517,0.062,1,0,0,4.6045,Andesite_04,1,04,4,8,4.604,-0.3835,-0.245,1,0,0,10.7007,Andesite_rect,1,10.701,1,10,0,10,0,1,,,,,,,,,,,,,
60ff7c8f4f066ccf6fe05587,SCN,2024-06-21_13h07.09.904,LearnStrategy,2023.2.3,Win32,59.88023952,7,1,12,-0.369,-0.067,1,0,0,1.8741,Basalt_02,2,02,3,2,1.874,-0.0935,-0.2495,1,0,0,1.364300001,Basalt_rect,2,1.364,1,11,0,11,0,1,,,,,,,,,,,,,
60ff7c8f4f066ccf6fe05587,SCN,2024-06-21_13h07.09.904,LearnStrategy,2023.2.3,Win32,59.88023952,7,1,13,0.3775,0.0855,1,0,0,2.0775,Peridotite_07,7,07,4,7,2.078,-0.041,-0.382,1,0,0,2.3164,Pegmatite_rect,6,2.316,0,12,0,12,0,1,,,,,,,,,,,,,
60ff7c8f4f066ccf6fe05587,SCN,2024-06-21_13h07.09.904,LearnStrategy,2023.2.3,Win32,59.88023952,7,1,14,0.548,0.3915,1,0,0,2.392,Basalt_06,2,06,6,8,2.392,-0.1685,-0.2405,1,0,0,2.1809,Basalt_rect,2,2.181,1,13,0,13,0,1,,,,,,,,,,,,,
60ff7c8f4f066ccf6fe05587,SCN,2024-06-21_13h07.09.904,LearnStrategy,2023.2.3,Win32,59.88023952,7,1,15,-0.0785,0.228,1,0,0,2.264,Basalt_10,2,10,5,4,2.264,0.3735,-0.257,1,0,0,1.204800001,Gabbro_rect,4,1.205,0,14,0,14,0,1,,,,,,,,,,,,,
60ff7c8f4f066ccf6fe05587,SCN,2024-06-21_13h07.09.904,LearnStrategy,2023.2.3,Win32,59.88023952,7,1,16,0.5305,0.4205,1,0,0,3.017800001,Basalt_06,2,06,6,8,3.018,-0.17,-0.2565,1,0,0,2.222699999,Basalt_rect,2,2.223,1,15,0,15,0,1,,,,,,,,,,,,,
60ff7c8f4f066ccf6fe05587,SCN,2024-06-21_13h07.09.904,LearnStrategy,2023.2.3,Win32,59.88023952,7,2,1,,,,,,,,8,03,,,,,,,,,,,8,1.608,1,,,,,,0.4395,-0.42,1,0,0,1.607700001,Pumice_rect,0,0,0,0,1,
60ff7c8f4f066ccf6fe05587,SCN,2024-06-21_13h07.09.904,LearnStrategy,2023.2.3,Win32,59.88023952,7,2,2,,,,,,,,2,11,,,,,,,,,,,1,19.004,0,,,,,,-0.3605,-0.2285,1,0,0,19.004,Andesite_rect,1,0,1,0,1,
60ff7c8f4f066ccf6fe05587,SCN,2024-06-21_13h07.09.904,LearnStrategy,2023.2.3,Win32,59.88023952,7,2,3,,,,,,,,4,14,,,,,,,,,,,4,4.799,1,,,,,,0.3835,-0.2495,1,0,0,4.799200001,Gabbro_rect,2,0,2,0,1,
60ff7c8f4f066ccf6fe05587,SCN,2024-06-21_13h07.09.904,LearnStrategy,2023.2.3,Win32,59.88023952,7,2,4,,,,,,,,2,04,,,,,,,,,,,2,7.813,1,,,,,,-0.122,-0.2515,1,0,0,7.813200001,Basalt_rect,3,0,3,0,1,
60ff7c8f4f066ccf6fe05587,SCN,2024-06-21_13h07.09.904,LearnStrategy,2023.2.3,Win32,59.88023952,7,2,5,,,,,,,,6,11,,,,,,,,,,,6,4.839,1,,,,,,-0.15,-0.3955,1,0,0,4.839199999,Pegmatite_rect,4,0,4,0,1,
60ff7c8f4f066ccf6fe05587,SCN,2024-06-21_13h07.09.904,LearnStrategy,2023.2.3,Win32,59.88023952,7,2,6,,,,,,,,7,05,,,,,,,,,,,7,11.326,1,,,,,,0.0855,-0.4005,1,0,0,11.3264,Peridotite_rect,5,0,5,0,1,
60ff7c8f4f066ccf6fe05587,SCN,2024-06-21_13h07.09.904,LearnStrategy,2023.2.3,Win32,59.88023952,7,2,7,,,,,,,,5,09,,,,,,,,,,,5,1.61,1,,,,,,-0.4615,-0.4205,1,0,0,1.6099,Obsidian_rect,6,0,6,0,1,
60ff7c8f4f066ccf6fe05587,SCN,2024-06-21_13h07.09.904,LearnStrategy,2023.2.3,Win32,59.88023952,7,2,8,,,,,,,,3,14,,,,,,,,,,,3,8.782,1,,,,,,0.07,-0.254,1,0,0,8.782099998,Diorite_rect,7,0,7,0,1,
60ff7c8f4f066ccf6fe05587,SCN,2024-06-21_13h07.09.904,LearnStrategy,2023.2.3,Win32,59.88023952,7,2,9,,,,,,,,8,06,,,,,,,,,,,8,1.162,1,,,,,,0.386,-0.3785,1,0,0,1.161699999,Pumice_rect,8,0,8,0,1,
60ff7c8f4f066ccf6fe05587,SCN,2024-06-21_13h07.09.904,LearnStrategy,2023.2.3,Win32,59.88023952,7,2,10,,,,,,,,6,09,,,,,,,,,,,6,14.665,1,,,,,,-0.059,-0.4015,1,0,0,14.6652,Pegmatite_rect,9,0,9,0,1,
60ff7c8f4f066ccf6fe05587,SCN,2024-06-21_13h07.09.904,LearnStrategy,2023.2.3,Win32,59.88023952,7,2,11,,,,,,,,3,07,,,,,,,,,,,3,2.563,1,,,,,,0.1455,-0.251,1,0,0,2.562800001,Diorite_rect,10,0,10,0,1,
60ff7c8f4f066ccf6fe05587,SCN,2024-06-21_13h07.09.904,LearnStrategy,2023.2.3,Win32,59.88023952,7,2,12,,,,,,,,4,12,,,,,,,,,,,4,12.461,1,,,,,,0.358,-0.247,1,0,0,12.4605,Gabbro_rect,11,0,11,0,1,
60ff7c8f4f066ccf6fe05587,SCN,2024-06-21_13h07.09.904,LearnStrategy,2023.2.3,Win32,59.88023952,7,2,13,,,,,,,,1,02,,,,,,,,,,,1,4.813,1,,,,,,-0.3325,-0.256,1,0,0,4.813199999,Andesite_rect,12,0,12,0,1,
60ff7c8f4f066ccf6fe05587,SCN,2024-06-21_13h07.09.904,LearnStrategy,2023.2.3,Win32,59.88023952,7,2,14,,,,,,,,7,02,,,,,,,,,,,7,3.755,1,,,,,,0.062,-0.4055,1,0,0,3.7545,Peridotite_rect,13,0,13,0,1,
60ff7c8f4f066ccf6fe05587,SCN,2024-06-21_13h07.09.904,LearnStrategy,2023.2.3,Win32,59.88023952,7,2,15,,,,,,,,5,10,,,,,,,,,,,5,1.364,1,,,,,,-0.399,-0.417,1,0,0,1.364200001,Obsidian_rect,14,0,14,0,1,
60ff7c8f4f066ccf6fe05587,SCN,2024-06-21_13h07.09.904,LearnStrategy,2023.2.3,Win32,59.88023952,7,2,16,,,,,,,,1,07,,,,,,,,,,,1,14.523,1,,,,,,-0.3645,-0.236,1,0,0,14.5226,Andesite_rect,15,0,15,0,1,
60ff7c8f4f066ccf6fe05587,SCN,2024-06-21_13h07.09.904,LearnStrategy,2023.2.3,Win32,59.88023952,8,1,1,-0.5105,0.1125,1,0,0,12.2311,Basalt_12,2,12,4,1,12.231,-0.1475,-0.249,1,0,0,1.0446,Basalt_rect,2,1.045,1,0,0,0,0,1,,,,,,,,,,,,,
60ff7c8f4f066ccf6fe05587,SCN,2024-06-21_13h07.09.904,LearnStrategy,2023.2.3,Win32,59.88023952,8,1,2,-0.4035,0.2245,1,0,0,2.0169,Andesite_16,1,16,5,2,2.017,0.152,-0.384,1,0,0,5.945799999,Peridotite_rect,7,5.946,0,1,0,1,0,1,,,,,,,,,,,,,
60ff7c8f4f066ccf6fe05587,SCN,2024-06-21_13h07.09.904,LearnStrategy,2023.2.3,Win32,59.88023952,8,1,3,0.3485,0.2465,1,0,0,1.1505,Basalt_14,2,14,5,7,1.15,0.371,-0.2595,1,0,0,2.232700001,Gabbro_rect,4,2.233,0,2,0,2,0,1,,,,,,,,,,,,,
60ff7c8f4f066ccf6fe05587,SCN,2024-06-21_13h07.09.904,LearnStrategy,2023.2.3,Win32,59.88023952,8,1,4,-0.083,-0.421,1,0,0,3.8796,Gabbro_09,4,09,1,4,3.88,0.3685,-0.2405,1,0,0,7.9981,Gabbro_rect,4,7.998,1,3,0,3,0,1,,,,,,,,,,,,,
60ff7c8f4f066ccf6fe05587,SCN,2024-06-21_13h07.09.904,LearnStrategy,2023.2.3,Win32,59.88023952,8,1,5,-0.232,-0.062,1,0,0,1.018700001,Andesite_10,1,10,3,3,1.019,-0.3325,-0.253,1,0,0,4.927799999,Andesite_rect,1,4.928,1,4,0,4,0,1,,,,,,,,,,,,,
60ff7c8f4f066ccf6fe05587,SCN,2024-06-21_13h07.09.904,LearnStrategy,2023.2.3,Win32,59.88023952,8,1,6,-0.4175,-0.4355,1,0,0,1.1769,Peridotite_16,7,16,1,2,1.177,0.0665,-0.408,1,0,0,1.409700001,Peridotite_rect,7,1.41,1,5,0,5,0,1,,,,,,,,,,,,,
60ff7c8f4f066ccf6fe05587,SCN,2024-06-21_13h07.09.904,LearnStrategy,2023.2.3,Win32,59.88023952,8,1,7,0.2185,0.072,1,0,0,2.757800001,Obsidian_06,5,06,4,6,2.758,-0.3885,-0.415,1,0,0,0.972300001,Obsidian_rect,5,0.972,1,6,0,6,0,1,,,,,,,,,,,,,
60ff7c8f4f066ccf6fe05587,SCN,2024-06-21_13h07.09.904,LearnStrategy,2023.2.3,Win32,59.88023952,8,1,8,0.0495,0.0695,1,0,0,0.713700001,Obsidian_16,5,16,4,5,0.714,-0.388,-0.3905,1,0,0,1.7035,Obsidian_rect,5,1.704,1,7,0,7,0,1,,,,,,,,,,,,,
60ff7c8f4f066ccf6fe05587,SCN,2024-06-21_13h07.09.904,LearnStrategy,2023.2.3,Win32,59.88023952,8,1,9,-0.068,0.062,1,0,0,0.654700001,Obsidian_12,5,12,4,4,0.655,-0.392,-0.417,1,0,0,1.016300001,Obsidian_rect,5,1.016,1,8,0,8,0,1,,,,,,,,,,,,,
60ff7c8f4f066ccf6fe05587,SCN,2024-06-21_13h07.09.904,LearnStrategy,2023.2.3,Win32,59.88023952,8,1,10,-0.1845,0.063,1,0,0,1.307299999,Peridotite_14,7,14,4,3,1.307,0.1295,-0.401,1,0,0,0.827300001,Peridotite_rect,7,0.827,1,9,0,9,0,1,,,,,,,,,,,,,
60ff7c8f4f066ccf6fe05587,SCN,2024-06-21_13h07.09.904,LearnStrategy,2023.2.3,Win32,59.88023952,8,1,11,-0.3835,0.1015,1,0,0,1.3966,Andesite_14,1,14,4,2,1.397,-0.39,-0.2365,1,0,0,5.638700001,Andesite_rect,1,5.639,1,10,0,10,0,1,,,,,,,,,,,,,
60ff7c8f4f066ccf6fe05587,SCN,2024-06-21_13h07.09.904,LearnStrategy,2023.2.3,Win32,59.88023952,8,1,12,-0.391,0.2325,1,0,0,1.146300001,Andesite_16,1,16,5,2,1.146,-0.42,-0.2515,1,0,0,7.332699999,Andesite_rect,1,7.333,1,11,0,11,0,1,,,,,,,,,,,,,
60ff7c8f4f066ccf6fe05587,SCN,2024-06-21_13h07.09.904,LearnStrategy,2023.2.3,Win32,59.88023952,8,1,13,0.55,0.251,1,0,0,1.189,Obsidian_11,5,11,5,8,1.189,-0.3405,-0.397,1,0,0,1.346700001,Obsidian_rect,5,1.347,1,12,0,12,0,1,,,,,,,,,,,,,
60ff7c8f4f066ccf6fe05587,SCN,2024-06-21_13h07.09.904,LearnStrategy,2023.2.3,Win32,59.88023952,8,1,14,-0.069,0.228,1,0,0,0.863199999,Basalt_10,2,10,5,4,0.863,-0.165,-0.2585,1,0,0,0.9894,Basalt_rect,2,0.989,1,13,0,13,0,1,,,,,,,,,,,,,
60ff7c8f4f066ccf6fe05587,SCN,2024-06-21_13h07.09.904,LearnStrategy,2023.2.3,Win32,59.88023952,8,1,15,0.534,0.415,1,0,0,1.7639,Basalt_06,2,06,6,8,1.764,-0.1145,-0.2465,1,0,0,3.1315,Basalt_rect,2,3.131,1,14,0,14,0,1,,,,,,,,,,,,,
60ff7c8f4f066ccf6fe05587,SCN,2024-06-21_13h07.09.904,LearnStrategy,2023.2.3,Win32,59.88023952,8,1,16,-0.0535,-0.2955,1,0,0,5.4266,Basalt_09,2,09,2,4,5.427,-0.092,-0.233,1,0,0,1.591299999,Basalt_rect,2,1.591,1,15,0,15,0,1,,,,,,,,,,,,,
60ff7c8f4f066ccf6fe05587,SCN,2024-06-21_13h07.09.904,LearnStrategy,2023.2.3,Win32,59.88023952,8,2,1,,,,,,,,2,16,,,,,,,,,,,4,8.378,0,,,,,,0.4115,-0.262,1,0,0,8.378,Gabbro_rect,0,0,0,0,1,
60ff7c8f4f066ccf6fe05587,SCN,2024-06-21_13h07.09.904,LearnStrategy,2023.2.3,Win32,59.88023952,8,2,2,,,,,,,,2,05,,,,,,,,,,,2,1.726,1,,,,,,-0.1275,-0.2535,1,0,0,1.7255,Basalt_rect,1,0,1,0,1,
60ff7c8f4f066ccf6fe05587,SCN,2024-06-21_13h07.09.904,LearnStrategy,2023.2.3,Win32,59.88023952,8,2,3,,,,,,,,4,05,,,,,,,,,,,4,21.445,1,,,,,,0.377,-0.2435,1,0,0,21.445,Gabbro_rect,2,0,2,0,1,
60ff7c8f4f066ccf6fe05587,SCN,2024-06-21_13h07.09.904,LearnStrategy,2023.2.3,Win32,59.88023952,8,2,4,,,,,,,,6,12,,,,,,,,,,,6,5.153,1,,,,,,-0.0905,-0.3945,1,0,0,5.153,Pegmatite_rect,3,0,3,0,1,
60ff7c8f4f066ccf6fe05587,SCN,2024-06-21_13h07.09.904,LearnStrategy,2023.2.3,Win32,59.88023952,8,2,5,,,,,,,,6,06,,,,,,,,,,,6,1.2,1,,,,,,-0.088,-0.41,1,0,0,1.200200001,Pegmatite_rect,4,0,4,0,1,
60ff7c8f4f066ccf6fe05587,SCN,2024-06-21_13h07.09.904,LearnStrategy,2023.2.3,Win32,59.88023952,8,2,6,,,,,,,,4,11,,,,,,,,,,,1,9.883,0,,,,,,-0.355,-0.25,1,0,0,9.8825,Andesite_rect,5,0,5,0,1,
60ff7c8f4f066ccf6fe05587,SCN,2024-06-21_13h07.09.904,LearnStrategy,2023.2.3,Win32,59.88023952,8,2,7,,,,,,,,1,11,,,,,,,,,,,1,6.595,1,,,,,,-0.3325,-0.244,1,0,0,6.5949,Andesite_rect,6,0,6,0,1,
60ff7c8f4f066ccf6fe05587,SCN,2024-06-21_13h07.09.904,LearnStrategy,2023.2.3,Win32,59.88023952,8,2,8,,,,,,,,8,10,,,,,,,,,,,8,2.21,1,,,,,,0.403,-0.4105,1,0,0,2.209800001,Pumice_rect,7,0,7,0,1,
60ff7c8f4f066ccf6fe05587,SCN,2024-06-21_13h07.09.904,LearnStrategy,2023.2.3,Win32,59.88023952,8,2,9,,,,,,,,7,04,,,,,,,,,,,7,5.424,1,,,,,,0.1385,-0.394,1,0,0,5.423700001,Peridotite_rect,8,0,8,0,1,
60ff7c8f4f066ccf6fe05587,SCN,2024-06-21_13h07.09.904,LearnStrategy,2023.2.3,Win32,59.88023952,8,2,10,,,,,,,,3,06,,,,,,,,,,,3,5.775,1,,,,,,0.0845,-0.2435,1,0,0,5.774900002,Diorite_rect,9,0,9,0,1,
60ff7c8f4f066ccf6fe05587,SCN,2024-06-21_13h07.09.904,LearnStrategy,2023.2.3,Win32,59.88023952,8,2,11,,,,,,,,3,15,,,,,,,,,,,3,1.338,1,,,,,,0.0845,-0.2295,1,0,0,1.338300001,Diorite_rect,10,0,10,0,1,
60ff7c8f4f066ccf6fe05587,SCN,2024-06-21_13h07.09.904,LearnStrategy,2023.2.3,Win32,59.88023952,8,2,12,,,,,,,,7,12,,,,,,,,,,,3,0.98,0,,,,,,0.0845,-0.2295,1,0,0,0.9804,Diorite_rect,11,0,11,0,1,
60ff7c8f4f066ccf6fe05587,SCN,2024-06-21_13h07.09.904,LearnStrategy,2023.2.3,Win32,59.88023952,8,2,13,,,,,,,,5,05,,,,,,,,,,,6,2.034,0,,,,,,-0.0665,-0.394,1,0,0,2.0339,Pegmatite_rect,12,0,12,0,1,
60ff7c8f4f066ccf6fe05587,SCN,2024-06-21_13h07.09.904,LearnStrategy,2023.2.3,Win32,59.88023952,8,2,14,,,,,,,,5,07,,,,,,,,,,,5,1.259,1,,,,,,-0.4005,-0.409,1,0,0,1.259400002,Obsidian_rect,13,0,13,0,1,
60ff7c8f4f066ccf6fe05587,SCN,2024-06-21_13h07.09.904,LearnStrategy,2023.2.3,Win32,59.88023952,8,2,15,,,,,,,,1,01,,,,,,,,,,,3,19.907,0,,,,,,0.148,-0.2515,1,0,0,19.9066,Diorite_rect,14,0,14,0,1,
60ff7c8f4f066ccf6fe05587,SCN,2024-06-21_13h07.09.904,LearnStrategy,2023.2.3,Win32,59.88023952,8,2,16,,,,,,,,8,02,,,,,,,,,,,8,1.416,1,,,,,,0.424,-0.392,1,0,0,1.4155,Pumice_rect,15,0,15,0,1,
60ff7c8f4f066ccf6fe05587,SCN,2024-06-21_13h07.09.904,LearnStrategy,2023.2.3,Win32,59.88023952,9,1,1,0.3995,0.078,1,0,0,1.197200001,Peridotite_07,7,07,4,7,1.197,0.1845,-0.247,1,0,0,1.5129,Diorite_rect,3,1.513,0,0,0,0,0,1,,,,,,,,,,,,,
60ff7c8f4f066ccf6fe05587,SCN,2024-06-21_13h07.09.904,LearnStrategy,2023.2.3,Win32,59.88023952,9,1,2,0.54,0.091,1,0,0,1.242,Andesite_04,1,04,4,8,1.242,0.191,-0.231,1,0,0,6.807799999,Diorite_rect,3,6.808,0,1,0,1,0,1,,,,,,,,,,,,,
60ff7c8f4f066ccf6fe05587,SCN,2024-06-21_13h07.09.904,LearnStrategy,2023.2.3,Win32,59.88023952,9,1,3,-0.251,-0.2545,1,0,0,0.923799999,Peridotite_13,7,13,2,3,0.924,0.092,-0.404,1,0,0,1.795200001,Peridotite_rect,7,1.795,1,2,0,2,0,1,,,,,,,,,,,,,
60ff7c8f4f066ccf6fe05587,SCN,2024-06-21_13h07.09.904,LearnStrategy,2023.2.3,Win32,59.88023952,9,1,4,0.116,-0.2485,1,0,0,1.4724,Gabbro_16,4,16,2,5,1.472,0.385,-0.239,1,0,0,1.5606,Gabbro_rect,4,1.561,1,3,0,3,0,1,,,,,,,,,,,,,
60ff7c8f4f066ccf6fe05587,SCN,2024-06-21_13h07.09.904,LearnStrategy,2023.2.3,Win32,59.88023952,9,1,5,0.5845,-0.4315,1,0,0,0.855700001,Pegmatite_08,6,08,1,8,0.856,0.097,-0.4035,1,0,0,1.431,Peridotite_rect,7,1.431,0,4,0,4,0,1,,,,,,,,,,,,,
60ff7c8f4f066ccf6fe05587,SCN,2024-06-21_13h07.09.904,LearnStrategy,2023.2.3,Win32,59.88023952,9,1,6,-0.43,-0.3875,1,0,0,0.9656,Peridotite_16,7,16,1,2,0.966,-0.0725,-0.4005,1,0,0,1.709799999,Pegmatite_rect,6,1.71,0,5,0,5,0,1,,,,,,,,,,,,,
60ff7c8f4f066ccf6fe05587,SCN,2024-06-21_13h07.09.904,LearnStrategy,2023.2.3,Win32,59.88023952,9,1,7,-0.4185,-0.11,1,0,0,0.737699999,Basalt_02,2,02,3,2,0.738,-0.1685,-0.272,1,0,0,0.8926,Basalt_rect,2,0.893,1,6,0,6,0,1,,,,,,,,,,,,,
60ff7c8f4f066ccf6fe05587,SCN,2024-06-21_13h07.09.904,LearnStrategy,2023.2.3,Win32,59.88023952,9,1,8,-0.574,-0.24,1,0,0,3.6381,Pumice_13,8,13,2,1,3.638,0.4165,-0.403,1,0,0,1.153200001,Pumice_rect,8,1.153,1,7,0,7,0,1,,,,,,,,,,,,,
60ff7c8f4f066ccf6fe05587,SCN,2024-06-21_13h07.09.904,LearnStrategy,2023.2.3,Win32,59.88023952,9,1,9,0.5845,0.111,1,0,0,1.0994,Andesite_04,1,04,4,8,1.099,-0.3365,-0.2385,1,0,0,3.831199999,Andesite_rect,1,3.831,1,8,0,8,0,1,,,,,,,,,,,,,
60ff7c8f4f066ccf6fe05587,SCN,2024-06-21_13h07.09.904,LearnStrategy,2023.2.3,Win32,59.88023952,9,1,10,0.5585,-0.2995,1,0,0,1.641299999,Gabbro_03,4,03,2,8,1.641,0.4375,-0.2465,1,0,0,10.467,Gabbro_rect,4,10.467,1,9,0,9,0,1,,,,,,,,,,,,,
60ff7c8f4f066ccf6fe05587,SCN,2024-06-21_13h07.09.904,LearnStrategy,2023.2.3,Win32,59.88023952,9,1,11,-0.4035,0.0745,1,0,0,2.5766,Andesite_14,1,14,4,2,2.577,0.367,-0.247,1,0,0,3.4385,Gabbro_rect,4,3.439,0,10,0,10,0,1,,,,,,,,,,,,,
60ff7c8f4f066ccf6fe05587,SCN,2024-06-21_13h07.09.904,LearnStrategy,2023.2.3,Win32,59.88023952,9,1,12,0.536,0.2125,1,0,0,1.1324,Obsidian_11,5,11,5,8,1.132,-0.4155,-0.414,1,0,0,1.806299999,Obsidian_rect,5,1.806,1,11,0,11,0,1,,,,,,,,,,,,,
60ff7c8f4f066ccf6fe05587,SCN,2024-06-21_13h07.09.904,LearnStrategy,2023.2.3,Win32,59.88023952,9,1,13,0.243,0.394,1,0,0,3.1429,Diorite_12,3,12,6,6,3.143,0.0845,-0.2325,1,0,0,1.8666,Diorite_rect,3,1.867,1,12,0,12,0,1,,,,,,,,,,,,,
60ff7c8f4f066ccf6fe05587,SCN,2024-06-21_13h07.09.904,LearnStrategy,2023.2.3,Win32,59.88023952,9,1,14,-0.0745,-0.412,1,0,0,4.2814,Gabbro_09,4,09,1,4,4.281,-0.3405,-0.23,1,0,0,6.08,Andesite_rect,1,6.08,0,13,0,13,0,1,,,,,,,,,,,,,
60ff7c8f4f066ccf6fe05587,SCN,2024-06-21_13h07.09.904,LearnStrategy,2023.2.3,Win32,59.88023952,9,1,15,0.2385,-0.117,1,0,0,1.191,Gabbro_15,4,15,3,6,1.191,0.3775,-0.2595,1,0,0,1.0164,Gabbro_rect,4,1.016,1,14,0,14,0,1,,,,,,,,,,,,,
60ff7c8f4f066ccf6fe05587,SCN,2024-06-21_13h07.09.904,LearnStrategy,2023.2.3,Win32,59.88023952,9,1,16,-0.2485,-0.3995,1,0,0,2.543200001,Andesite_03,1,03,1,3,2.543,0.386,-0.2535,1,0,0,2.865199999,Gabbro_rect,4,2.865,0,15,0,15,0,1,,,,,,,,,,,,,
60ff7c8f4f066ccf6fe05587,SCN,2024-06-21_13h07.09.904,LearnStrategy,2023.2.3,Win32,59.88023952,9,2,1,,,,,,,,3,11,,,,,,,,,,,3,23.371,1,,,,,,0.1195,-0.257,1,0,0,23.3713,Diorite_rect,0,0,0,0,1,
60ff7c8f4f066ccf6fe05587,SCN,2024-06-21_13h07.09.904,LearnStrategy,2023.2.3,Win32,59.88023952,9,2,2,,,,,,,,2,01,,,,,,,,,,,2,6.531,1,,,,,,-0.1485,-0.254,1,0,0,6.530700001,Basalt_rect,1,0,1,0,1,
60ff7c8f4f066ccf6fe05587,SCN,2024-06-21_13h07.09.904,LearnStrategy,2023.2.3,Win32,59.88023952,9,2,3,,,,,,,,6,07,,,,,,,,,,,6,9.363,1,,,,,,-0.0825,-0.4145,1,0,0,9.362900002,Pegmatite_rect,2,0,2,0,1,
60ff7c8f4f066ccf6fe05587,SCN,2024-06-21_13h07.09.904,LearnStrategy,2023.2.3,Win32,59.88023952,9,2,4,,,,,,,,5,14,,,,,,,,,,,5,2.189,1,,,,,,-0.3345,-0.4135,1,0,0,2.188599998,Obsidian_rect,3,0,3,0,1,
60ff7c8f4f066ccf6fe05587,SCN,2024-06-21_13h07.09.904,LearnStrategy,2023.2.3,Win32,59.88023952,9,2,5,,,,,,,,2,08,,,,,,,,,,,2,2.31,1,,,,,,-0.166,-0.2395,1,0,0,2.310199999,Basalt_rect,4,0,4,0,1,
60ff7c8f4f066ccf6fe05587,SCN,2024-06-21_13h07.09.904,LearnStrategy,2023.2.3,Win32,59.88023952,9,2,6,,,,,,,,6,05,,,,,,,,,,,6,13.72,1,,,,,,-0.1835,-0.4075,1,0,0,13.72,Pegmatite_rect,5,0,5,0,1,
60ff7c8f4f066ccf6fe05587,SCN,2024-06-21_13h07.09.904,LearnStrategy,2023.2.3,Win32,59.88023952,9,2,7,,,,,,,,4,10,,,,,,,,,,,1,16.177,0,,,,,,-0.377,-0.254,1,0,0,16.177,Andesite_rect,6,0,6,0,1,
60ff7c8f4f066ccf6fe05587,SCN,2024-06-21_13h07.09.904,LearnStrategy,2023.2.3,Win32,59.88023952,9,2,8,,,,,,,,7,10,,,,,,,,,,,7,4.463,1,,,,,,0.098,-0.396,1,0,0,4.4634,Peridotite_rect,7,0,7,0,1,
60ff7c8f4f066ccf6fe05587,SCN,2024-06-21_13h07.09.904,LearnStrategy,2023.2.3,Win32,59.88023952,9,2,9,,,,,,,,7,15,,,,,,,,,,,7,1.188,1,,,,,,0.098,-0.396,1,0,0,1.188099998,Peridotite_rect,8,0,8,0,1,
60ff7c8f4f066ccf6fe05587,SCN,2024-06-21_13h07.09.904,LearnStrategy,2023.2.3,Win32,59.88023952,9,2,10,,,,,,,,8,09,,,,,,,,,,,8,1.203,1,,,,,,0.3605,-0.398,1,0,0,1.202800001,Pumice_rect,9,0,9,0,1,
60ff7c8f4f066ccf6fe05587,SCN,2024-06-21_13h07.09.904,LearnStrategy,2023.2.3,Win32,59.88023952,9,2,11,,,,,,,,4,13,,,,,,,,,,,4,10.872,1,,,,,,0.3125,-0.2615,1,0,0,10.8716,Gabbro_rect,10,0,10,0,1,
60ff7c8f4f066ccf6fe05587,SCN,2024-06-21_13h07.09.904,LearnStrategy,2023.2.3,Win32,59.88023952,9,2,12,,,,,,,,1,06,,,,,,,,,,,1,2.917,1,,,,,,-0.4095,-0.24,1,0,0,2.916900002,Andesite_rect,11,0,11,0,1,
60ff7c8f4f066ccf6fe05587,SCN,2024-06-21_13h07.09.904,LearnStrategy,2023.2.3,Win32,59.88023952,9,2,13,,,,,,,,5,02,,,,,,,,,,,5,1.165,1,,,,,,-0.3755,-0.3955,1,0,0,1.165200001,Obsidian_rect,12,0,12,0,1,
60ff7c8f4f066ccf6fe05587,SCN,2024-06-21_13h07.09.904,LearnStrategy,2023.2.3,Win32,59.88023952,9,2,14,,,,,,,,8,15,,,,,,,,,,,8,2.006,1,,,,,,0.3325,-0.404,1,0,0,2.0059,Pumice_rect,13,0,13,0,1,
60ff7c8f4f066ccf6fe05587,SCN,2024-06-21_13h07.09.904,LearnStrategy,2023.2.3,Win32,59.88023952,9,2,15,,,,,,,,3,08,,,,,,,,,,,3,6.133,1,,,,,,0.168,-0.2565,1,0,0,6.132799999,Diorite_rect,14,0,14,0,1,
60ff7c8f4f066ccf6fe05587,SCN,2024-06-21_13h07.09.904,LearnStrategy,2023.2.3,Win32,59.88023952,9,2,16,,,,,,,,1,05,,,,,,,,,,,1,7.858,1,,,,,,-0.3985,-0.2645,1,0,0,7.858,Andesite_rect,15,0,15,0,1,
60ff7c8f4f066ccf6fe05587,SCN,2024-06-21_13h07.09.904,LearnStrategy,2023.2.3,Win32,59.88023952,,,,,,,,,,,,,,,,,,,,,,,,,,,,,,,,,,,,,,,,,,,1
60ff7c8f4f066ccf6fe05587,SCN,2024-06-21_13h07.09.904,LearnStrategy,2023.2.3,Win32,59.88023952,,,,,,,,,,,,,,,,,,,,,,,,,,,,,,,,,,,,,,,,,,,
60ff7c8f4f066ccf6fe05587,SCN,2024-06-21_13h07.09.904,LearnStrategy,2023.2.3,Win32,59.88023952,,,,,,,,,,,1,09,1,1,,,,,,,,,,,,,,,,,,,,,,,,,,,,,
60ff7c8f4f066ccf6fe05587,SCN,2024-06-21_13h07.09.904,LearnStrategy,2023.2.3,Win32,59.88023952,,,,,,,,,,,7,16,1,2,,,,,,,,,,,,,,,,,,,,,,,,,,,,,
60ff7c8f4f066ccf6fe05587,SCN,2024-06-21_13h07.09.904,LearnStrategy,2023.2.3,Win32,59.88023952,,,,,,,,,,,1,03,1,3,,,,,,,,,,,,,,,,,,,,,,,,,,,,,
60ff7c8f4f066ccf6fe05587,SCN,2024-06-21_13h07.09.904,LearnStrategy,2023.2.3,Win32,59.88023952,,,,,,,,,,,4,09,1,4,,,,,,,,,,,,,,,,,,,,,,,,,,,,,
60ff7c8f4f066ccf6fe05587,SCN,2024-06-21_13h07.09.904,LearnStrategy,2023.2.3,Win32,59.88023952,,,,,,,,,,,7,08,1,5,,,,,,,,,,,,,,,,,,,,,,,,,,,,,
60ff7c8f4f066ccf6fe05587,SCN,2024-06-21_13h07.09.904,LearnStrategy,2023.2.3,Win32,59.88023952,,,,,,,,,,,8,16,1,6,,,,,,,,,,,,,,,,,,,,,,,,,,,,,
60ff7c8f4f066ccf6fe05587,SCN,2024-06-21_13h07.09.904,LearnStrategy,2023.2.3,Win32,59.88023952,,,,,,,,,,,3,13,1,7,,,,,,,,,,,,,,,,,,,,,,,,,,,,,
60ff7c8f4f066ccf6fe05587,SCN,2024-06-21_13h07.09.904,LearnStrategy,2023.2.3,Win32,59.88023952,,,,,,,,,,,6,08,1,8,,,,,,,,,,,,,,,,,,,,,,,,,,,,,
60ff7c8f4f066ccf6fe05587,SCN,2024-06-21_13h07.09.904,LearnStrategy,2023.2.3,Win32,59.88023952,,,,,,,,,,,8,13,2,1,,,,,,,,,,,,,,,,,,,,,,,,,,,,,
60ff7c8f4f066ccf6fe05587,SCN,2024-06-21_13h07.09.904,LearnStrategy,2023.2.3,Win32,59.88023952,,,,,,,,,,,5,04,2,2,,,,,,,,,,,,,,,,,,,,,,,,,,,,,
60ff7c8f4f066ccf6fe05587,SCN,2024-06-21_13h07.09.904,LearnStrategy,2023.2.3,Win32,59.88023952,,,,,,,,,,,7,13,2,3,,,,,,,,,,,,,,,,,,,,,,,,,,,,,
60ff7c8f4f066ccf6fe05587,SCN,2024-06-21_13h07.09.904,LearnStrategy,2023.2.3,Win32,59.88023952,,,,,,,,,,,2,09,2,4,,,,,,,,,,,,,,,,,,,,,,,,,,,,,
60ff7c8f4f066ccf6fe05587,SCN,2024-06-21_13h07.09.904,LearnStrategy,2023.2.3,Win32,59.88023952,,,,,,,,,,,4,16,2,5,,,,,,,,,,,,,,,,,,,,,,,,,,,,,
60ff7c8f4f066ccf6fe05587,SCN,2024-06-21_13h07.09.904,LearnStrategy,2023.2.3,Win32,59.88023952,,,,,,,,,,,5,08,2,6,,,,,,,,,,,,,,,,,,,,,,,,,,,,,
60ff7c8f4f066ccf6fe05587,SCN,2024-06-21_13h07.09.904,LearnStrategy,2023.2.3,Win32,59.88023952,,,,,,,,,,,3,10,2,7,,,,,,,,,,,,,,,,,,,,,,,,,,,,,
60ff7c8f4f066ccf6fe05587,SCN,2024-06-21_13h07.09.904,LearnStrategy,2023.2.3,Win32,59.88023952,,,,,,,,,,,4,03,2,8,,,,,,,,,,,,,,,,,,,,,,,,,,,,,
60ff7c8f4f066ccf6fe05587,SCN,2024-06-21_13h07.09.904,LearnStrategy,2023.2.3,Win32,59.88023952,,,,,,,,,,,3,09,3,1,,,,,,,,,,,,,,,,,,,,,,,,,,,,,
60ff7c8f4f066ccf6fe05587,SCN,2024-06-21_13h07.09.904,LearnStrategy,2023.2.3,Win32,59.88023952,,,,,,,,,,,2,02,3,2,,,,,,,,,,,,,,,,,,,,,,,,,,,,,
60ff7c8f4f066ccf6fe05587,SCN,2024-06-21_13h07.09.904,LearnStrategy,2023.2.3,Win32,59.88023952,,,,,,,,,,,1,10,3,3,,,,,,,,,,,,,,,,,,,,,,,,,,,,,
60ff7c8f4f066ccf6fe05587,SCN,2024-06-21_13h07.09.904,LearnStrategy,2023.2.3,Win32,59.88023952,,,,,,,,,,,6,03,3,4,,,,,,,,,,,,,,,,,,,,,,,,,,,,,
60ff7c8f4f066ccf6fe05587,SCN,2024-06-21_13h07.09.904,LearnStrategy,2023.2.3,Win32,59.88023952,,,,,,,,,,,6,15,3,5,,,,,,,,,,,,,,,,,,,,,,,,,,,,,
60ff7c8f4f066ccf6fe05587,SCN,2024-06-21_13h07.09.904,LearnStrategy,2023.2.3,Win32,59.88023952,,,,,,,,,,,4,15,3,6,,,,,,,,,,,,,,,,,,,,,,,,,,,,,
60ff7c8f4f066ccf6fe05587,SCN,2024-06-21_13h07.09.904,LearnStrategy,2023.2.3,Win32,59.88023952,,,,,,,,,,,8,05,3,7,,,,,,,,,,,,,,,,,,,,,,,,,,,,,
60ff7c8f4f066ccf6fe05587,SCN,2024-06-21_13h07.09.904,LearnStrategy,2023.2.3,Win32,59.88023952,,,,,,,,,,,3,02,3,8,,,,,,,,,,,,,,,,,,,,,,,,,,,,,
60ff7c8f4f066ccf6fe05587,SCN,2024-06-21_13h07.09.904,LearnStrategy,2023.2.3,Win32,59.88023952,,,,,,,,,,,2,12,4,1,,,,,,,,,,,,,,,,,,,,,,,,,,,,,
60ff7c8f4f066ccf6fe05587,SCN,2024-06-21_13h07.09.904,LearnStrategy,2023.2.3,Win32,59.88023952,,,,,,,,,,,1,14,4,2,,,,,,,,,,,,,,,,,,,,,,,,,,,,,
60ff7c8f4f066ccf6fe05587,SCN,2024-06-21_13h07.09.904,LearnStrategy,2023.2.3,Win32,59.88023952,,,,,,,,,,,7,14,4,3,,,,,,,,,,,,,,,,,,,,,,,,,,,,,
60ff7c8f4f066ccf6fe05587,SCN,2024-06-21_13h07.09.904,LearnStrategy,2023.2.3,Win32,59.88023952,,,,,,,,,,,5,12,4,4,,,,,,,,,,,,,,,,,,,,,,,,,,,,,
60ff7c8f4f066ccf6fe05587,SCN,2024-06-21_13h07.09.904,LearnStrategy,2023.2.3,Win32,59.88023952,,,,,,,,,,,5,16,4,5,,,,,,,,,,,,,,,,,,,,,,,,,,,,,
60ff7c8f4f066ccf6fe05587,SCN,2024-06-21_13h07.09.904,LearnStrategy,2023.2.3,Win32,59.88023952,,,,,,,,,,,5,06,4,6,,,,,,,,,,,,,,,,,,,,,,,,,,,,,
60ff7c8f4f066ccf6fe05587,SCN,2024-06-21_13h07.09.904,LearnStrategy,2023.2.3,Win32,59.88023952,,,,,,,,,,,7,07,4,7,,,,,,,,,,,,,,,,,,,,,,,,,,,,,
60ff7c8f4f066ccf6fe05587,SCN,2024-06-21_13h07.09.904,LearnStrategy,2023.2.3,Win32,59.88023952,,,,,,,,,,,1,04,4,8,,,,,,,,,,,,,,,,,,,,,,,,,,,,,
60ff7c8f4f066ccf6fe05587,SCN,2024-06-21_13h07.09.904,LearnStrategy,2023.2.3,Win32,59.88023952,,,,,,,,,,,8,04,5,1,,,,,,,,,,,,,,,,,,,,,,,,,,,,,
60ff7c8f4f066ccf6fe05587,SCN,2024-06-21_13h07.09.904,LearnStrategy,2023.2.3,Win32,59.88023952,,,,,,,,,,,1,16,5,2,,,,,,,,,,,,,,,,,,,,,,,,,,,,,
60ff7c8f4f066ccf6fe05587,SCN,2024-06-21_13h07.09.904,LearnStrategy,2023.2.3,Win32,59.88023952,,,,,,,,,,,8,14,5,3,,,,,,,,,,,,,,,,,,,,,,,,,,,,,
60ff7c8f4f066ccf6fe05587,SCN,2024-06-21_13h07.09.904,LearnStrategy,2023.2.3,Win32,59.88023952,,,,,,,,,,,2,10,5,4,,,,,,,,,,,,,,,,,,,,,,,,,,,,,
60ff7c8f4f066ccf6fe05587,SCN,2024-06-21_13h07.09.904,LearnStrategy,2023.2.3,Win32,59.88023952,,,,,,,,,,,4,01,5,5,,,,,,,,,,,,,,,,,,,,,,,,,,,,,
60ff7c8f4f066ccf6fe05587,SCN,2024-06-21_13h07.09.904,LearnStrategy,2023.2.3,Win32,59.88023952,,,,,,,,,,,8,08,5,6,,,,,,,,,,,,,,,,,,,,,,,,,,,,,
60ff7c8f4f066ccf6fe05587,SCN,2024-06-21_13h07.09.904,LearnStrategy,2023.2.3,Win32,59.88023952,,,,,,,,,,,2,14,5,7,,,,,,,,,,,,,,,,,,,,,,,,,,,,,
60ff7c8f4f066ccf6fe05587,SCN,2024-06-21_13h07.09.904,LearnStrategy,2023.2.3,Win32,59.88023952,,,,,,,,,,,5,11,5,8,,,,,,,,,,,,,,,,,,,,,,,,,,,,,
60ff7c8f4f066ccf6fe05587,SCN,2024-06-21_13h07.09.904,LearnStrategy,2023.2.3,Win32,59.88023952,,,,,,,,,,,3,16,6,1,,,,,,,,,,,,,,,,,,,,,,,,,,,,,
60ff7c8f4f066ccf6fe05587,SCN,2024-06-21_13h07.09.904,LearnStrategy,2023.2.3,Win32,59.88023952,,,,,,,,,,,6,16,6,2,,,,,,,,,,,,,,,,,,,,,,,,,,,,,
60ff7c8f4f066ccf6fe05587,SCN,2024-06-21_13h07.09.904,LearnStrategy,2023.2.3,Win32,59.88023952,,,,,,,,,,,6,10,6,3,,,,,,,,,,,,,,,,,,,,,,,,,,,,,
60ff7c8f4f066ccf6fe05587,SCN,2024-06-21_13h07.09.904,LearnStrategy,2023.2.3,Win32,59.88023952,,,,,,,,,,,6,13,6,4,,,,,,,,,,,,,,,,,,,,,,,,,,,,,
60ff7c8f4f066ccf6fe05587,SCN,2024-06-21_13h07.09.904,LearnStrategy,2023.2.3,Win32,59.88023952,,,,,,,,,,,7,06,6,5,,,,,,,,,,,,,,,,,,,,,,,,,,,,,
60ff7c8f4f066ccf6fe05587,SCN,2024-06-21_13h07.09.904,LearnStrategy,2023.2.3,Win32,59.88023952,,,,,,,,,,,3,12,6,6,,,,,,,,,,,,,,,,,,,,,,,,,,,,,
60ff7c8f4f066ccf6fe05587,SCN,2024-06-21_13h07.09.904,LearnStrategy,2023.2.3,Win32,59.88023952,,,,,,,,,,,4,08,6,7,,,,,,,,,,,,,,,,,,,,,,,,,,,,,
60ff7c8f4f066ccf6fe05587,SCN,2024-06-21_13h07.09.904,LearnStrategy,2023.2.3,Win32,59.88023952,,,,,,,,,,,2,06,6,8,,,,,,,,,,,,,,,,,,,,,,,,,,,,,