participant,condition,date,expName,psychopyVersion,OS,frameRate,block,phase,trial,learn_mouse_2.x,learn_mouse_2.y,learn_mouse_2.leftButton,learn_mouse_2.midButton,learn_mouse_2.rightButton,learn_mouse_2.time,learn_mouse_2.clicked_name,cat,token,row,col,t_select,cat_mouse_l.x,cat_mouse_l.y,cat_mouse_l.leftButton,cat_mouse_l.midButton,cat_mouse_l.rightButton,cat_mouse_l.time,cat_mouse_l.clicked_name,resp,t_resp,corr,train_trials.thisRepN,train_trials.thisTrialN,train_trials.thisN,train_trials.thisIndex,train_trials.ran,cat_mouse_t.x,cat_mouse_t.y,cat_mouse_t.leftButton,cat_mouse_t.midButton,cat_mouse_t.rightButton,cat_mouse_t.time,cat_mouse_t.clicked_name,test_trials.thisRepN,test_trials.thisTrialN,test_trials.thisN,test_trials.thisIndex,test_trials.ran,Bonus
6107acfe97c63575a2344e36,TCN,2024-06-20_16h31.26.165,LearnStrategy,2023.2.3,MacIntel,60.24096386,,,,,,,,,,,,,,,,,,,,,,,,,,,,,,,,,,,,,,,,,,,
6107acfe97c63575a2344e36,TCN,2024-06-20_16h31.26.165,LearnStrategy,2023.2.3,MacIntel,60.24096386,1,1,1,-0.013956299,-0.002227919,1,0,0,4.316,rock_grid_rect_2,2,05,-1,-1,4.316,-0.182646417,-0.415337524,1,0,0,5.6489,Pegmatite_rect,6,5.649,0,0,0,0,0,1,,,,,,,,,,,,,
6107acfe97c63575a2344e36,TCN,2024-06-20_16h31.26.165,LearnStrategy,2023.2.3,MacIntel,60.24096386,1,1,2,0.01718316,-0.012592265,1,0,0,1.5635,rock_grid_rect_2,3,16,-1,-1,1.564,0.372220866,-0.405468614,1,0,0,1.9265,Pumice_rect,8,1.927,0,1,0,1,0,1,,,,,,,,,,,,,
6107acfe97c63575a2344e36,TCN,2024-06-20_16h31.26.165,LearnStrategy,2023.2.3,MacIntel,60.24096386,1,1,3,0.054910075,-0.000179545,1,0,0,1.3646,rock_grid_rect_2,5,09,-1,-1,1.365,-0.360748291,-0.410307888,1,0,0,1.5934,Obsidian_rect,5,1.593,1,2,0,2,0,1,,,,,,,,,,,,,
6107acfe97c63575a2344e36,TCN,2024-06-20_16h31.26.165,LearnStrategy,2023.2.3,MacIntel,60.24096386,1,1,4,0.004874132,-0.004445903,1,0,0,1.2308,rock_grid_rect_2,7,02,-1,-1,1.231,0.376209174,-0.389400431,1,0,0,2.5256,Pumice_rect,8,2.526,0,3,0,3,0,1,,,,,,,,,,,,,
6107acfe97c63575a2344e36,TCN,2024-06-20_16h31.26.165,LearnStrategy,2023.2.3,MacIntel,60.24096386,1,1,5,0.065394287,0.011748827,1,0,0,1.1965,rock_grid_rect_2,1,03,-1,-1,1.197,-0.086238132,-0.399858263,1,0,0,4.4629,Pegmatite_rect,6,4.463,0,4,0,4,0,1,,,,,,,,,,,,,
6107acfe97c63575a2344e36,TCN,2024-06-20_16h31.26.165,LearnStrategy,2023.2.3,MacIntel,60.24096386,1,1,6,0.005525648,-1.42415E-06,1,0,0,1.1636,rock_grid_rect_2,5,11,-1,-1,1.164,-0.435715603,-0.393039347,1,0,0,1.6767,Obsidian_rect,5,1.677,1,5,0,5,0,1,,,,,,,,,,,,,
6107acfe97c63575a2344e36,TCN,2024-06-20_16h31.26.165,LearnStrategy,2023.2.3,MacIntel,60.24096386,1,1,7,-0.007557576,-0.01433353,1,0,0,1.2315,rock_grid_rect_2,4,05,-1,-1,1.231,0.09840922,-0.397306044,1,0,0,6.6085,Peridotite_rect,7,6.608,0,6,0,6,0,1,,,,,,,,,,,,,
6107acfe97c63575a2344e36,TCN,2024-06-20_16h31.26.165,LearnStrategy,2023.2.3,MacIntel,60.24096386,1,1,8,0.017848918,-0.017569648,1,0,0,1.1306,rock_grid_rect_2,3,13,-1,-1,1.131,0.380621338,-0.229089491,1,0,0,1.8082,Gabbro_rect,4,1.808,0,7,0,7,0,1,,,,,,,,,,,,,
6107acfe97c63575a2344e36,TCN,2024-06-20_16h31.26.165,LearnStrategy,2023.2.3,MacIntel,60.24096386,1,1,9,0.029536743,-0.017383898,1,0,0,0.9993,rock_grid_rect_2,1,11,-1,-1,0.999,-0.152002835,-0.412701687,1,0,0,3.8071,Pegmatite_rect,6,3.807,0,8,0,8,0,1,,,,,,,,,,,,,
6107acfe97c63575a2344e36,TCN,2024-06-20_16h31.26.165,LearnStrategy,2023.2.3,MacIntel,60.24096386,1,1,10,0.062311605,-0.019005669,1,0,0,1.1145,rock_grid_rect_2,6,08,-1,-1,1.114,-0.387783949,-0.382669203,1,0,0,4.3352,Obsidian_rect,5,4.335,0,9,0,9,0,1,,,,,,,,,,,,,
6107acfe97c63575a2344e36,TCN,2024-06-20_16h31.26.165,LearnStrategy,2023.2.3,MacIntel,60.24096386,1,1,11,0.047924398,-0.004161072,1,0,0,1.182,rock_grid_rect_2,7,14,-1,-1,1.182,-0.33221327,-0.263169013,1,0,0,4.466,Andesite_rect,1,4.466,0,10,0,10,0,1,,,,,,,,,,,,,
6107acfe97c63575a2344e36,TCN,2024-06-20_16h31.26.165,LearnStrategy,2023.2.3,MacIntel,60.24096386,1,1,12,0.014244859,-0.005459934,1,0,0,1.9634,rock_grid_rect_2,6,11,-1,-1,1.963,0.102528008,-0.38240899,1,0,0,4.8748,Peridotite_rect,7,4.875,0,11,0,11,0,1,,,,,,,,,,,,,
6107acfe97c63575a2344e36,TCN,2024-06-20_16h31.26.165,LearnStrategy,2023.2.3,MacIntel,60.24096386,1,1,13,-0.049365913,-0.004109124,1,0,0,4.5317,rock_grid_rect_2,4,16,-1,-1,4.532,-0.123183322,-0.248198785,1,0,0,3.8423,Basalt_rect,2,3.842,0,12,0,12,0,1,,,,,,,,,,,,,
6107acfe97c63575a2344e36,TCN,2024-06-20_16h31.26.165,LearnStrategy,2023.2.3,MacIntel,60.24096386,1,1,14,0.040199449,-0.015312093,1,0,0,1.3472,rock_grid_rect_2,8,16,-1,-1,1.347,0.305917562,-0.394413859,1,0,0,2.5592,Pumice_rect,8,2.559,1,13,0,13,0,1,,,,,,,,,,,,,
6107acfe97c63575a2344e36,TCN,2024-06-20_16h31.26.165,LearnStrategy,2023.2.3,MacIntel,60.24096386,1,1,15,0.03066725,-0.013966064,1,0,0,10.198,rock_grid_rect_2,2,16,-1,-1,10.198,0.092616577,-0.407974311,1,0,0,4.8755,Peridotite_rect,7,4.875,0,14,0,14,0,1,,,,,,,,,,,,,
6107acfe97c63575a2344e36,TCN,2024-06-20_16h31.26.165,LearnStrategy,2023.2.3,MacIntel,60.24096386,1,1,16,0.045955268,-0.020471259,1,0,0,1.9485,rock_grid_rect_2,8,14,-1,-1,1.948,0.362851563,-0.253674113,1,0,0,4.4397,Gabbro_rect,4,4.44,0,15,0,15,0,1,,,,,,,,,,,,,
6107acfe97c63575a2344e36,TCN,2024-06-20_16h31.26.165,LearnStrategy,2023.2.3,MacIntel,60.24096386,1,2,1,,,,,,,,4,08,,,,,,,,,,,4,107.195,1,,,,,,0.353793132,-0.241135457,1,0,0,107.1953,Gabbro_rect,0,0,0,0,1,
6107acfe97c63575a2344e36,TCN,2024-06-20_16h31.26.165,LearnStrategy,2023.2.3,MacIntel,60.24096386,1,2,2,,,,,,,,7,08,,,,,,,,,,,8,12.022,0,,,,,,0.392102865,-0.416384616,1,0,0,12.0221,Pumice_rect,1,0,1,0,1,
6107acfe97c63575a2344e36,TCN,2024-06-20_16h31.26.165,LearnStrategy,2023.2.3,MacIntel,60.24096386,1,2,3,,,,,,,,2,09,,,,,,,,,,,2,3.549,1,,,,,,-0.107852648,-0.256414727,1,0,0,3.5495,Basalt_rect,2,0,2,0,1,
6107acfe97c63575a2344e36,TCN,2024-06-20_16h31.26.165,LearnStrategy,2023.2.3,MacIntel,60.24096386,1,2,4,,,,,,,,8,03,,,,,,,,,,,6,14.957,0,,,,,,-0.152410346,-0.394233805,1,0,0,14.957,Pegmatite_rect,3,0,3,0,1,
6107acfe97c63575a2344e36,TCN,2024-06-20_16h31.26.165,LearnStrategy,2023.2.3,MacIntel,60.24096386,1,2,5,,,,,,,,5,08,,,,,,,,,,,5,2.233,1,,,,,,-0.336771681,-0.413109334,1,0,0,2.2331,Obsidian_rect,4,0,4,0,1,
6107acfe97c63575a2344e36,TCN,2024-06-20_16h31.26.165,LearnStrategy,2023.2.3,MacIntel,60.24096386,1,2,6,,,,,,,,3,10,,,,,,,,,,,8,6.557,0,,,,,,0.409598389,-0.401498752,1,0,0,6.5571,Pumice_rect,5,0,5,0,1,
6107acfe97c63575a2344e36,TCN,2024-06-20_16h31.26.165,LearnStrategy,2023.2.3,MacIntel,60.24096386,1,2,7,,,,,,,,2,01,,,,,,,,,,,2,4.973,1,,,,,,-0.149227431,-0.248484429,1,0,0,4.9729,Basalt_rect,6,0,6,0,1,
6107acfe97c63575a2344e36,TCN,2024-06-20_16h31.26.165,LearnStrategy,2023.2.3,MacIntel,60.24096386,1,2,8,,,,,,,,6,03,,,,,,,,,,,6,10.974,1,,,,,,-0.161532254,-0.398559909,1,0,0,10.9737,Pegmatite_rect,7,0,7,0,1,
6107acfe97c63575a2344e36,TCN,2024-06-20_16h31.26.165,LearnStrategy,2023.2.3,MacIntel,60.24096386,1,2,9,,,,,,,,7,04,,,,,,,,,,,6,4.35,0,,,,,,-0.160976698,-0.398559909,1,0,0,4.3502,Pegmatite_rect,8,0,8,0,1,
6107acfe97c63575a2344e36,TCN,2024-06-20_16h31.26.165,LearnStrategy,2023.2.3,MacIntel,60.24096386,1,2,10,,,,,,,,4,09,,,,,,,,,,,2,5.807,0,,,,,,-0.125109524,-0.246424561,1,0,0,5.8074,Basalt_rect,9,0,9,0,1,
6107acfe97c63575a2344e36,TCN,2024-06-20_16h31.26.165,LearnStrategy,2023.2.3,MacIntel,60.24096386,1,2,11,,,,,,,,1,09,,,,,,,,,,,1,7.013,1,,,,,,-0.375198025,-0.258314616,1,0,0,7.0134,Andesite_rect,10,0,10,0,1,
6107acfe97c63575a2344e36,TCN,2024-06-20_16h31.26.165,LearnStrategy,2023.2.3,MacIntel,60.24096386,1,2,12,,,,,,,,5,10,,,,,,,,,,,6,8.55,0,,,,,,-0.087791612,-0.399342787,1,0,0,8.5504,Pegmatite_rect,11,0,11,0,1,
6107acfe97c63575a2344e36,TCN,2024-06-20_16h31.26.165,LearnStrategy,2023.2.3,MacIntel,60.24096386,1,2,13,,,,,,,,3,14,,,,,,,,,,,7,28.256,0,,,,,,0.086265937,-0.378691813,1,0,0,28.2563,Peridotite_rect,12,0,12,0,1,
6107acfe97c63575a2344e36,TCN,2024-06-20_16h31.26.165,LearnStrategy,2023.2.3,MacIntel,60.24096386,1,2,14,,,,,,,,6,15,,,,,,,,,,,3,4.633,0,,,,,,0.048208415,-0.263662245,1,0,0,4.6331,Diorite_rect,13,0,13,0,1,
6107acfe97c63575a2344e36,TCN,2024-06-20_16h31.26.165,LearnStrategy,2023.2.3,MacIntel,60.24096386,1,2,15,,,,,,,,8,06,,,,,,,,,,,8,6.15,1,,,,,,0.396302762,-0.399279989,1,0,0,6.1497,Pumice_rect,14,0,14,0,1,
6107acfe97c63575a2344e36,TCN,2024-06-20_16h31.26.165,LearnStrategy,2023.2.3,MacIntel,60.24096386,1,2,16,,,,,,,,1,10,,,,,,,,,,,4,9.614,0,,,,,,0.380431993,-0.26279168,1,0,0,9.6143,Gabbro_rect,15,0,15,0,1,
6107acfe97c63575a2344e36,TCN,2024-06-20_16h31.26.165,LearnStrategy,2023.2.3,MacIntel,60.24096386,2,1,1,0.052544895,-0.009025709,1,0,0,4.5642,rock_grid_rect_2,6,13,-1,-1,4.564,0.127862549,-0.251507094,1,0,0,236.7574,Diorite_rect,3,236.757,0,0,0,0,0,1,,,,,,,,,,,,,
6107acfe97c63575a2344e36,TCN,2024-06-20_16h31.26.165,LearnStrategy,2023.2.3,MacIntel,60.24096386,2,1,2,0.028036024,-0.001738688,1,0,0,1.8804,rock_grid_rect_2,5,07,-1,-1,1.88,-0.423668145,-0.40213033,1,0,0,4.3261,Obsidian_rect,5,4.326,1,1,0,1,0,1,,,,,,,,,,,,,
6107acfe97c63575a2344e36,TCN,2024-06-20_16h31.26.165,LearnStrategy,2023.2.3,MacIntel,60.24096386,2,1,3,0.073866781,-0.000462545,1,0,0,4.9139,rock_grid_rect_2,1,04,-1,-1,4.914,0.502801242,-0.253812052,1,0,0,17.5933,Gabbro_rect,4,17.593,0,2,0,2,0,1,,,,,,,,,,,,,
6107acfe97c63575a2344e36,TCN,2024-06-20_16h31.26.165,LearnStrategy,2023.2.3,MacIntel,60.24096386,2,1,4,-0.046238946,0.013838806,1,0,0,1.8146,rock_grid_rect_2,1,01,-1,-1,1.815,0.14536499,-0.253154297,1,0,0,4.3595,Diorite_rect,3,4.36,0,3,0,3,0,1,,,,,,,,,,,,,
6107acfe97c63575a2344e36,TCN,2024-06-20_16h31.26.165,LearnStrategy,2023.2.3,MacIntel,60.24096386,2,1,5,0.068109945,0.005346341,1,0,0,1.2313,rock_grid_rect_2,5,06,-1,-1,1.231,-0.435109795,-0.402007989,1,0,0,1.3745,Obsidian_rect,5,1.375,1,4,0,4,0,1,,,,,,,,,,,,,
6107acfe97c63575a2344e36,TCN,2024-06-20_16h31.26.165,LearnStrategy,2023.2.3,MacIntel,60.24096386,2,1,6,0.091514621,-0.008556044,1,0,0,1.9817,rock_grid_rect_2,4,03,-1,-1,1.982,-0.380236884,-0.25909078,1,0,0,9.1932,Andesite_rect,1,9.193,0,5,0,5,0,1,,,,,,,,,,,,,
6107acfe97c63575a2344e36,TCN,2024-06-20_16h31.26.165,LearnStrategy,2023.2.3,MacIntel,60.24096386,2,1,7,0.031653103,0.013132392,1,0,0,1.2477,rock_grid_rect_2,3,08,-1,-1,1.248,0.120881619,-0.244100138,1,0,0,4.5093,Diorite_rect,3,4.509,1,6,0,6,0,1,,,,,,,,,,,,,
6107acfe97c63575a2344e36,TCN,2024-06-20_16h31.26.165,LearnStrategy,2023.2.3,MacIntel,60.24096386,2,1,8,-0.006004096,0.002903781,1,0,0,1.7988,rock_grid_rect_2,8,05,-1,-1,1.799,0.361844076,-0.398709785,1,0,0,1.8256,Pumice_rect,8,1.826,1,7,0,7,0,1,,,,,,,,,,,,,
6107acfe97c63575a2344e36,TCN,2024-06-20_16h31.26.165,LearnStrategy,2023.2.3,MacIntel,60.24096386,2,1,9,0.033334893,0.010032857,1,0,0,1.0653,rock_grid_rect_2,2,11,-1,-1,1.065,-0.403044569,-0.25453125,1,0,0,13.409,Andesite_rect,1,13.409,0,8,0,8,0,1,,,,,,,,,,,,,
6107acfe97c63575a2344e36,TCN,2024-06-20_16h31.26.165,LearnStrategy,2023.2.3,MacIntel,60.24096386,2,1,10,0.031607395,0.01467275,1,0,0,1.5984,rock_grid_rect_2,2,02,-1,-1,1.598,-0.13429145,-0.243035617,1,0,0,16.4926,Basalt_rect,2,16.493,1,9,0,9,0,1,,,,,,,,,,,,,
6107acfe97c63575a2344e36,TCN,2024-06-20_16h31.26.165,LearnStrategy,2023.2.3,MacIntel,60.24096386,2,1,11,0.001539307,-0.008017239,1,0,0,1.2979,rock_grid_rect_2,7,07,-1,-1,1.298,0.360154758,-0.236692437,1,0,0,3.1099,Gabbro_rect,4,3.11,0,10,0,10,0,1,,,,,,,,,,,,,
6107acfe97c63575a2344e36,TCN,2024-06-20_16h31.26.165,LearnStrategy,2023.2.3,MacIntel,60.24096386,2,1,12,0.01389384,-0.020843709,1,0,0,0.9823,rock_grid_rect_2,8,04,-1,-1,0.982,0.410674778,-0.407857937,1,0,0,1.3758,Pumice_rect,8,1.376,1,11,0,11,0,1,,,,,,,,,,,,,
6107acfe97c63575a2344e36,TCN,2024-06-20_16h31.26.165,LearnStrategy,2023.2.3,MacIntel,60.24096386,2,1,13,0.068946737,-0.004104784,1,0,0,1.0312,rock_grid_rect_2,4,14,-1,-1,1.031,0.443278673,-0.239234958,1,0,0,12.0392,Gabbro_rect,4,12.039,1,12,0,12,0,1,,,,,,,,,,,,,
6107acfe97c63575a2344e36,TCN,2024-06-20_16h31.26.165,LearnStrategy,2023.2.3,MacIntel,60.24096386,2,1,14,-0.000160251,-0.001515401,1,0,0,1.8971,rock_grid_rect_2,3,06,-1,-1,1.897,0.11079834,-0.256474474,1,0,0,45.0098,Diorite_rect,3,45.01,1,13,0,13,0,1,,,,,,,,,,,,,
6107acfe97c63575a2344e36,TCN,2024-06-20_16h31.26.165,LearnStrategy,2023.2.3,MacIntel,60.24096386,2,1,15,0.013035821,-0.004245029,1,0,0,1.2975,rock_grid_rect_2,6,05,-1,-1,1.297,0.137251858,-0.400889486,1,0,0,20.8004,Peridotite_rect,7,20.8,0,14,0,14,0,1,,,,,,,,,,,,,
6107acfe97c63575a2344e36,TCN,2024-06-20_16h31.26.165,LearnStrategy,2023.2.3,MacIntel,60.24096386,2,1,16,0.03761556,-0.009865316,1,0,0,1.1143,rock_grid_rect_2,7,12,-1,-1,1.114,0.353224691,-0.23628791,1,0,0,5.2902,Gabbro_rect,4,5.29,0,15,0,15,0,1,,,,,,,,,,,,,
6107acfe97c63575a2344e36,TCN,2024-06-20_16h31.26.165,LearnStrategy,2023.2.3,MacIntel,60.24096386,2,2,1,,,,,,,,4,15,,,,,,,,,,,3,23.735,0,,,,,,0.160097521,-0.251270413,1,0,0,23.7346,Diorite_rect,0,0,0,0,1,
6107acfe97c63575a2344e36,TCN,2024-06-20_16h31.26.165,LearnStrategy,2023.2.3,MacIntel,60.24096386,2,2,2,,,,,,,,4,10,,,,,,,,,,,6,5.101,0,,,,,,-0.136730347,-0.416014065,1,0,0,5.1006,Pegmatite_rect,1,0,1,0,1,
6107acfe97c63575a2344e36,TCN,2024-06-20_16h31.26.165,LearnStrategy,2023.2.3,MacIntel,60.24096386,2,2,3,,,,,,,,2,10,,,,,,,,,,,2,21.014,1,,,,,,-0.097686157,-0.25681132,1,0,0,21.0143,Basalt_rect,2,0,2,0,1,
6107acfe97c63575a2344e36,TCN,2024-06-20_16h31.26.165,LearnStrategy,2023.2.3,MacIntel,60.24096386,2,2,4,,,,,,,,7,13,,,,,,,,,,,4,41.706,0,,,,,,0.404726834,-0.26364502,1,0,0,41.7059,Gabbro_rect,3,0,3,0,1,
6107acfe97c63575a2344e36,TCN,2024-06-20_16h31.26.165,LearnStrategy,2023.2.3,MacIntel,60.24096386,2,2,5,,,,,,,,6,10,,,,,,,,,,,1,6.584,0,,,,,,-0.41201138,-0.255688816,1,0,0,6.584,Andesite_rect,4,0,4,0,1,
6107acfe97c63575a2344e36,TCN,2024-06-20_16h31.26.165,LearnStrategy,2023.2.3,MacIntel,60.24096386,2,2,6,,,,,,,,5,12,,,,,,,,,,,5,1.973,1,,,,,,-0.373785672,-0.407276408,1,0,0,1.9734,Obsidian_rect,5,0,5,0,1,
6107acfe97c63575a2344e36,TCN,2024-06-20_16h31.26.165,LearnStrategy,2023.2.3,MacIntel,60.24096386,2,2,7,,,,,,,,8,13,,,,,,,,,,,4,6.374,0,,,,,,0.447572835,-0.236852824,1,0,0,6.3736,Gabbro_rect,6,0,6,0,1,
6107acfe97c63575a2344e36,TCN,2024-06-20_16h31.26.165,LearnStrategy,2023.2.3,MacIntel,60.24096386,2,2,8,,,,,,,,1,07,,,,,,,,,,,3,3.766,0,,,,,,0.123250597,-0.269959649,1,0,0,3.7664,Diorite_rect,7,0,7,0,1,
6107acfe97c63575a2344e36,TCN,2024-06-20_16h31.26.165,LearnStrategy,2023.2.3,MacIntel,60.24096386,2,2,9,,,,,,,,5,05,,,,,,,,,,,5,3.536,1,,,,,,-0.425002848,-0.394812419,1,0,0,3.5358,Obsidian_rect,8,0,8,0,1,
6107acfe97c63575a2344e36,TCN,2024-06-20_16h31.26.165,LearnStrategy,2023.2.3,MacIntel,60.24096386,2,2,10,,,,,,,,7,15,,,,,,,,,,,3,31.029,0,,,,,,0.137526177,-0.235013156,1,0,0,31.0289,Diorite_rect,9,0,9,0,1,
6107acfe97c63575a2344e36,TCN,2024-06-20_16h31.26.165,LearnStrategy,2023.2.3,MacIntel,60.24096386,2,2,11,,,,,,,,1,02,,,,,,,,,,,1,33.318,1,,,,,,-0.3887559,-0.25245558,1,0,0,33.3185,Andesite_rect,10,0,10,0,1,
6107acfe97c63575a2344e36,TCN,2024-06-20_16h31.26.165,LearnStrategy,2023.2.3,MacIntel,60.24096386,2,2,12,,,,,,,,3,02,,,,,,,,,,,3,3.865,1,,,,,,0.103051893,-0.255316298,1,0,0,3.8653,Diorite_rect,11,0,11,0,1,
6107acfe97c63575a2344e36,TCN,2024-06-20_16h31.26.165,LearnStrategy,2023.2.3,MacIntel,60.24096386,2,2,13,,,,,,,,2,14,,,,,,,,,,,6,18.157,0,,,,,,-0.0678361,-0.415567356,1,0,0,18.1565,Pegmatite_rect,12,0,12,0,1,
6107acfe97c63575a2344e36,TCN,2024-06-20_16h31.26.165,LearnStrategy,2023.2.3,MacIntel,60.24096386,2,2,14,,,,,,,,3,09,,,,,,,,,,,4,3.133,0,,,,,,0.395757243,-0.245231255,1,0,0,3.1326,Gabbro_rect,13,0,13,0,1,
6107acfe97c63575a2344e36,TCN,2024-06-20_16h31.26.165,LearnStrategy,2023.2.3,MacIntel,60.24096386,2,2,15,,,,,,,,8,02,,,,,,,,,,,8,2.257,1,,,,,,0.397336833,-0.393023003,1,0,0,2.2567,Pumice_rect,14,0,14,0,1,
6107acfe97c63575a2344e36,TCN,2024-06-20_16h31.26.165,LearnStrategy,2023.2.3,MacIntel,60.24096386,2,2,16,,,,,,,,6,06,,,,,,,,,,,2,2.183,0,,,,,,-0.121044718,-0.23436537,1,0,0,2.1832,Basalt_rect,15,0,15,0,1,
6107acfe97c63575a2344e36,TCN,2024-06-20_16h31.26.165,LearnStrategy,2023.2.3,MacIntel,60.24096386,3,1,1,0.049409383,0.013192037,1,0,0,30.3642,rock_grid_rect_2,5,14,-1,-1,30.364,-0.358265754,-0.389722968,1,0,0,28.4272,Obsidian_rect,5,28.427,1,0,0,0,0,1,,,,,,,,,,,,,
6107acfe97c63575a2344e36,TCN,2024-06-20_16h31.26.165,LearnStrategy,2023.2.3,MacIntel,60.24096386,3,1,2,0.042167833,-0.006448195,1,0,0,1.7475,rock_grid_rect_2,4,11,-1,-1,1.747,0.345729438,-0.241307916,1,0,0,7.2267,Gabbro_rect,4,7.227,1,1,0,1,0,1,,,,,,,,,,,,,
6107acfe97c63575a2344e36,TCN,2024-06-20_16h31.26.165,LearnStrategy,2023.2.3,MacIntel,60.24096386,3,1,3,-0.039578586,-0.009021166,1,0,0,1.2659,rock_grid_rect_2,1,05,-1,-1,1.266,0.132037557,-0.237760959,1,0,0,5.9426,Diorite_rect,3,5.943,0,2,0,2,0,1,,,,,,,,,,,,,
6107acfe97c63575a2344e36,TCN,2024-06-20_16h31.26.165,LearnStrategy,2023.2.3,MacIntel,60.24096386,3,1,4,0.050637953,0.013040365,1,0,0,4.9644,rock_grid_rect_2,6,09,-1,-1,4.964,0.060758057,-0.411534966,1,0,0,61.6592,Peridotite_rect,7,61.659,0,3,0,3,0,1,,,,,,,,,,,,,
6107acfe97c63575a2344e36,TCN,2024-06-20_16h31.26.165,LearnStrategy,2023.2.3,MacIntel,60.24096386,3,1,5,0.049555325,-0.008851149,1,0,0,2.1814,rock_grid_rect_2,7,06,-1,-1,2.181,0.113755968,-0.267970852,1,0,0,21.1084,Diorite_rect,3,21.108,0,4,0,4,0,1,,,,,,,,,,,,,
6107acfe97c63575a2344e36,TCN,2024-06-20_16h31.26.165,LearnStrategy,2023.2.3,MacIntel,60.24096386,3,1,6,0.100047336,-0.002244466,1,0,0,3.4312,rock_grid_rect_2,1,14,-1,-1,3.431,0.310697564,-0.259191216,1,0,0,10.1913,Gabbro_rect,4,10.191,0,5,0,5,0,1,,,,,,,,,,,,,
6107acfe97c63575a2344e36,TCN,2024-06-20_16h31.26.165,LearnStrategy,2023.2.3,MacIntel,60.24096386,3,1,7,-0.004378866,0.000103285,1,0,0,5.0651,rock_grid_rect_2,6,12,-1,-1,5.065,0.097059597,-0.406248779,1,0,0,60.1412,Peridotite_rect,7,60.141,0,6,0,6,0,1,,,,,,,,,,,,,
6107acfe97c63575a2344e36,TCN,2024-06-20_16h31.26.165,LearnStrategy,2023.2.3,MacIntel,60.24096386,3,1,8,-0.018398166,-0.020032688,1,0,0,1.3632,rock_grid_rect_2,2,04,-1,-1,1.363,-0.368770209,-0.252782457,1,0,0,70.4868,Andesite_rect,1,70.487,0,7,0,7,0,1,,,,,,,,,,,,,
6107acfe97c63575a2344e36,TCN,2024-06-20_16h31.26.165,LearnStrategy,2023.2.3,MacIntel,60.24096386,3,1,9,-0.032483114,-0.000716892,1,0,0,4.0152,rock_grid_rect_2,3,07,-1,-1,4.015,0.145952827,-0.259120348,1,0,0,45.1558,Diorite_rect,3,45.156,1,8,0,8,0,1,,,,,,,,,,,,,
6107acfe97c63575a2344e36,TCN,2024-06-20_16h31.26.165,LearnStrategy,2023.2.3,MacIntel,60.24096386,3,1,10,0.028857761,-0.006511875,1,0,0,2.2469,rock_grid_rect_2,3,12,-1,-1,2.247,-0.150543755,-0.412828166,1,0,0,14.2576,Pegmatite_rect,6,14.258,0,9,0,9,0,1,,,,,,,,,,,,,
6107acfe97c63575a2344e36,TCN,2024-06-20_16h31.26.165,LearnStrategy,2023.2.3,MacIntel,60.24096386,3,1,11,0.003177965,0.001658766,1,0,0,4.7474,rock_grid_rect_2,4,13,-1,-1,4.747,0.14571696,-0.394767456,1,0,0,19.6258,Peridotite_rect,7,19.626,0,10,0,10,0,1,,,,,,,,,,,,,
6107acfe97c63575a2344e36,TCN,2024-06-20_16h31.26.165,LearnStrategy,2023.2.3,MacIntel,60.24096386,3,1,12,-0.044344347,-0.008120761,1,0,0,3.5974,rock_grid_rect_2,5,16,-1,-1,3.597,-0.406062554,-0.401012166,1,0,0,2.7428,Obsidian_rect,5,2.743,1,11,0,11,0,1,,,,,,,,,,,,,
6107acfe97c63575a2344e36,TCN,2024-06-20_16h31.26.165,LearnStrategy,2023.2.3,MacIntel,60.24096386,3,1,13,0.011133016,0.000501607,1,0,0,1.7316,rock_grid_rect_2,2,06,-1,-1,1.732,-0.152727661,-0.271916775,1,0,0,45.3245,Basalt_rect,2,45.324,1,12,0,12,0,1,,,,,,,,,,,,,
6107acfe97c63575a2344e36,TCN,2024-06-20_16h31.26.165,LearnStrategy,2023.2.3,MacIntel,60.24096386,3,1,14,0.070256483,-0.01731781,1,0,0,11.9476,rock_grid_rect_2,8,10,-1,-1,11.948,0.351097955,-0.417385525,1,0,0,2.9758,Pumice_rect,8,2.976,1,13,0,13,0,1,,,,,,,,,,,,,
6107acfe97c63575a2344e36,TCN,2024-06-20_16h31.26.165,LearnStrategy,2023.2.3,MacIntel,60.24096386,3,1,15,0.046066691,0.01031762,1,0,0,1.6817,rock_grid_rect_2,8,09,-1,-1,1.682,0.369083794,-0.383319024,1,0,0,4.2759,Pumice_rect,8,4.276,1,14,0,14,0,1,,,,,,,,,,,,,
6107acfe97c63575a2344e36,TCN,2024-06-20_16h31.26.165,LearnStrategy,2023.2.3,MacIntel,60.24096386,3,1,16,0.0494949,-0.013153856,1,0,0,1.7643,rock_grid_rect_2,7,16,-1,-1,1.764,0.072813314,-0.398058946,1,0,0,17.492,Peridotite_rect,7,17.492,1,15,0,15,0,1,,,,,,,,,,,,,
6107acfe97c63575a2344e36,TCN,2024-06-20_16h31.26.165,LearnStrategy,2023.2.3,MacIntel,60.24096386,3,2,1,,,,,,,,3,15,,,,,,,,,,,6,15.622,0,,,,,,-0.17685947,-0.397648519,1,0,0,15.6219,Pegmatite_rect,0,0,0,0,1,
6107acfe97c63575a2344e36,TCN,2024-06-20_16h31.26.165,LearnStrategy,2023.2.3,MacIntel,60.24096386,3,2,2,,,,,,,,7,05,,,,,,,,,,,4,10.256,0,,,,,,0.423887804,-0.234266086,1,0,0,10.2561,Gabbro_rect,1,0,1,0,1,
6107acfe97c63575a2344e36,TCN,2024-06-20_16h31.26.165,LearnStrategy,2023.2.3,MacIntel,60.24096386,3,2,3,,,,,,,,1,16,,,,,,,,,,,3,9.305,0,,,,,,0.150146756,-0.263996582,1,0,0,9.3053,Diorite_rect,2,0,2,0,1,
6107acfe97c63575a2344e36,TCN,2024-06-20_16h31.26.165,LearnStrategy,2023.2.3,MacIntel,60.24096386,3,2,4,,,,,,,,1,06,,,,,,,,,,,7,29.549,0,,,,,,0.140028754,-0.395808919,1,0,0,29.5492,Peridotite_rect,3,0,3,0,1,
6107acfe97c63575a2344e36,TCN,2024-06-20_16h31.26.165,LearnStrategy,2023.2.3,MacIntel,60.24096386,3,2,5,,,,,,,,3,11,,,,,,,,,,,6,7.59,0,,,,,,-0.152151286,-0.403022597,1,0,0,7.59,Pegmatite_rect,4,0,4,0,1,
6107acfe97c63575a2344e36,TCN,2024-06-20_16h31.26.165,LearnStrategy,2023.2.3,MacIntel,60.24096386,3,2,6,,,,,,,,5,04,,,,,,,,,,,5,1.557,1,,,,,,-0.343124017,-0.396790432,1,0,0,1.5567,Obsidian_rect,5,0,5,0,1,
6107acfe97c63575a2344e36,TCN,2024-06-20_16h31.26.165,LearnStrategy,2023.2.3,MacIntel,60.24096386,3,2,7,,,,,,,,8,15,,,,,,,,,,,8,30.99,1,,,,,,0.378456896,-0.389354655,1,0,0,30.9896,Pumice_rect,6,0,6,0,1,
6107acfe97c63575a2344e36,TCN,2024-06-20_16h31.26.165,LearnStrategy,2023.2.3,MacIntel,60.24096386,3,2,8,,,,,,,,4,01,,,,,,,,,,,6,15.956,0,,,,,,-0.163089735,-0.417478502,1,0,0,15.956,Pegmatite_rect,7,0,7,0,1,
6107acfe97c63575a2344e36,TCN,2024-06-20_16h31.26.165,LearnStrategy,2023.2.3,MacIntel,60.24096386,3,2,9,,,,,,,,4,12,,,,,,,,,,,1,8.789,0,,,,,,-0.42625234,-0.271801419,1,0,0,8.7888,Andesite_rect,8,0,8,0,1,
6107acfe97c63575a2344e36,TCN,2024-06-20_16h31.26.165,LearnStrategy,2023.2.3,MacIntel,60.24096386,3,2,10,,,,,,,,2,08,,,,,,,,,,,4,5.223,0,,,,,,0.368542752,-0.237140571,1,0,0,5.2235,Gabbro_rect,9,0,9,0,1,
6107acfe97c63575a2344e36,TCN,2024-06-20_16h31.26.165,LearnStrategy,2023.2.3,MacIntel,60.24096386,3,2,11,,,,,,,,7,10,,,,,,,,,,,3,65.689,0,,,,,,0.10413208,-0.252555271,1,0,0,65.6885,Diorite_rect,10,0,10,0,1,
6107acfe97c63575a2344e36,TCN,2024-06-20_16h31.26.165,LearnStrategy,2023.2.3,MacIntel,60.24096386,3,2,12,,,,,,,,2,12,,,,,,,,,,,2,62.658,1,,,,,,-0.125555895,-0.254720052,1,0,0,62.6582,Basalt_rect,11,0,11,0,1,
6107acfe97c63575a2344e36,TCN,2024-06-20_16h31.26.165,LearnStrategy,2023.2.3,MacIntel,60.24096386,3,2,13,,,,,,,,8,08,,,,,,,,,,,8,3.189,1,,,,,,0.350935601,-0.412196587,1,0,0,3.1886,Pumice_rect,12,0,12,0,1,
6107acfe97c63575a2344e36,TCN,2024-06-20_16h31.26.165,LearnStrategy,2023.2.3,MacIntel,60.24096386,3,2,14,,,,,,,,6,16,,,,,,,,,,,7,2.822,0,,,,,,0.060825602,-0.420148112,1,0,0,2.8224,Peridotite_rect,13,0,13,0,1,
6107acfe97c63575a2344e36,TCN,2024-06-20_16h31.26.165,LearnStrategy,2023.2.3,MacIntel,60.24096386,3,2,15,,,,,,,,5,02,,,,,,,,,,,5,1.29,1,,,,,,-0.388869527,-0.407182888,1,0,0,1.2898,Obsidian_rect,14,0,14,0,1,
6107acfe97c63575a2344e36,TCN,2024-06-20_16h31.26.165,LearnStrategy,2023.2.3,MacIntel,60.24096386,3,2,16,,,,,,,,6,07,,,,,,,,,,,3,15.256,0,,,,,,0.182945557,-0.262049425,1,0,0,15.2559,Diorite_rect,15,0,15,0,1,
6107acfe97c63575a2344e36,TCN,2024-06-20_16h31.26.165,LearnStrategy,2023.2.3,MacIntel,60.24096386,4,1,1,0.006055501,0.007357042,1,0,0,7.9642,rock_grid_rect_2,7,07,-1,-1,7.964,0.432384304,-0.228635593,1,0,0,86.4889,Gabbro_rect,4,86.489,0,0,0,0,0,1,,,,,,,,,,,,,
6107acfe97c63575a2344e36,TCN,2024-06-20_16h31.26.165,LearnStrategy,2023.2.3,MacIntel,60.24096386,4,1,2,-0.041180759,-0.000693461,1,0,0,1.1963,rock_grid_rect_2,3,12,-1,-1,1.196,0.089955783,-0.257068617,1,0,0,3.5268,Diorite_rect,3,3.527,1,1,0,1,0,1,,,,,,,,,,,,,
6107acfe97c63575a2344e36,TCN,2024-06-20_16h31.26.165,LearnStrategy,2023.2.3,MacIntel,60.24096386,4,1,3,-0.019720595,-0.006700473,1,0,0,20.7973,rock_grid_rect_2,2,06,-1,-1,20.797,-0.121142171,-0.257902561,1,0,0,4.2923,Basalt_rect,2,4.292,1,2,0,2,0,1,,,,,,,,,,,,,
6107acfe97c63575a2344e36,TCN,2024-06-20_16h31.26.165,LearnStrategy,2023.2.3,MacIntel,60.24096386,4,1,4,0.051963976,0.004110379,1,0,0,2.2974,rock_grid_rect_2,6,09,-1,-1,2.297,-0.427074755,-0.419274156,1,0,0,32.7925,Obsidian_rect,5,32.793,0,3,0,3,0,1,,,,,,,,,,,,,
6107acfe97c63575a2344e36,TCN,2024-06-20_16h31.26.165,LearnStrategy,2023.2.3,MacIntel,60.24096386,4,1,5,0.032485012,-0.010993483,1,0,0,1.5641,rock_grid_rect_2,1,03,-1,-1,1.564,-0.385754768,-0.237502441,1,0,0,5.1938,Andesite_rect,1,5.194,1,4,0,4,0,1,,,,,,,,,,,,,
6107acfe97c63575a2344e36,TCN,2024-06-20_16h31.26.165,LearnStrategy,2023.2.3,MacIntel,60.24096386,4,1,6,0.010514052,0.002738647,1,0,0,1.2979,rock_grid_rect_2,6,12,-1,-1,1.298,-0.058389553,-0.395795085,1,0,0,3.1595,Pegmatite_rect,6,3.16,1,5,0,5,0,1,,,,,,,,,,,,,
6107acfe97c63575a2344e36,TCN,2024-06-20_16h31.26.165,LearnStrategy,2023.2.3,MacIntel,60.24096386,4,1,7,0.028822089,0.011571655,1,0,0,1.2658,rock_grid_rect_2,8,16,-1,-1,1.266,0.358413357,-0.395060154,1,0,0,4.891,Pumice_rect,8,4.891,1,6,0,6,0,1,,,,,,,,,,,,,
6107acfe97c63575a2344e36,TCN,2024-06-20_16h31.26.165,LearnStrategy,2023.2.3,MacIntel,60.24096386,4,1,8,0.016160143,-0.000678914,1,0,0,1.1316,rock_grid_rect_2,3,06,-1,-1,1.132,0.123289727,-0.236585015,1,0,0,10.8898,Diorite_rect,3,10.89,1,7,0,7,0,1,,,,,,,,,,,,,
6107acfe97c63575a2344e36,TCN,2024-06-20_16h31.26.165,LearnStrategy,2023.2.3,MacIntel,60.24096386,4,1,9,0.050976969,-0.018829108,1,0,0,1.1635,rock_grid_rect_2,8,09,-1,-1,1.164,0.372902561,-0.388862712,1,0,0,2.2609,Pumice_rect,8,2.261,1,8,0,8,0,1,,,,,,,,,,,,,
6107acfe97c63575a2344e36,TCN,2024-06-20_16h31.26.165,LearnStrategy,2023.2.3,MacIntel,60.24096386,4,1,10,0.009292331,-0.015902846,1,0,0,13.0639,rock_grid_rect_2,5,11,-1,-1,13.064,-0.390779249,-0.414115533,1,0,0,2.3238,Obsidian_rect,5,2.324,1,9,0,9,0,1,,,,,,,,,,,,,
6107acfe97c63575a2344e36,TCN,2024-06-20_16h31.26.165,LearnStrategy,2023.2.3,MacIntel,60.24096386,4,1,11,0.034352349,-0.002290073,1,0,0,1.232,rock_grid_rect_2,4,16,-1,-1,1.232,-0.413118456,-0.251497125,1,0,0,18.2563,Andesite_rect,1,18.256,0,10,0,10,0,1,,,,,,,,,,,,,
6107acfe97c63575a2344e36,TCN,2024-06-20_16h31.26.165,LearnStrategy,2023.2.3,MacIntel,60.24096386,4,1,12,0.00176256,0.02247467,1,0,0,2.3294,rock_grid_rect_2,4,03,-1,-1,2.329,0.127701145,-0.389358792,1,0,0,5.2927,Peridotite_rect,7,5.293,0,11,0,11,0,1,,,,,,,,,,,,,
6107acfe97c63575a2344e36,TCN,2024-06-20_16h31.26.165,LearnStrategy,2023.2.3,MacIntel,60.24096386,4,1,13,0.023427667,-0.003487379,1,0,0,1.0297,rock_grid_rect_2,2,11,-1,-1,1.03,0.336809557,-0.26479343,1,0,0,10.3925,Gabbro_rect,4,10.392,0,12,0,12,0,1,,,,,,,,,,,,,
6107acfe97c63575a2344e36,TCN,2024-06-20_16h31.26.165,LearnStrategy,2023.2.3,MacIntel,60.24096386,4,1,14,0.028352593,-0.018082004,1,0,0,1.6642,rock_grid_rect_2,5,06,-1,-1,1.664,-0.38473409,-0.392861192,1,0,0,1.7238,Obsidian_rect,5,1.724,1,13,0,13,0,1,,,,,,,,,,,,,
6107acfe97c63575a2344e36,TCN,2024-06-20_16h31.26.165,LearnStrategy,2023.2.3,MacIntel,60.24096386,4,1,15,0.018877157,-0.009385071,1,0,0,1.0971,rock_grid_rect_2,7,06,-1,-1,1.097,0.342089844,-0.266022881,1,0,0,6.7593,Gabbro_rect,4,6.759,0,14,0,14,0,1,,,,,,,,,,,,,
6107acfe97c63575a2344e36,TCN,2024-06-20_16h31.26.165,LearnStrategy,2023.2.3,MacIntel,60.24096386,4,1,16,0.021545207,0.010206231,1,0,0,1.0294,rock_grid_rect_2,1,11,-1,-1,1.029,-0.436281399,-0.23622172,1,0,0,4.7921,Andesite_rect,1,4.792,1,15,0,15,0,1,,,,,,,,,,,,,
6107acfe97c63575a2344e36,TCN,2024-06-20_16h31.26.165,LearnStrategy,2023.2.3,MacIntel,60.24096386,4,2,1,,,,,,,,4,10,,,,,,,,,,,7,10.99,0,,,,,,0.147518311,-0.408644816,1,0,0,10.9897,Peridotite_rect,0,0,0,0,1,
6107acfe97c63575a2344e36,TCN,2024-06-20_16h31.26.165,LearnStrategy,2023.2.3,MacIntel,60.24096386,4,2,2,,,,,,,,2,12,,,,,,,,,,,4,9.056,0,,,,,,0.416797553,-0.250627306,1,0,0,9.0564,Gabbro_rect,1,0,1,0,1,
6107acfe97c63575a2344e36,TCN,2024-06-20_16h31.26.165,LearnStrategy,2023.2.3,MacIntel,60.24096386,4,2,3,,,,,,,,1,09,,,,,,,,,,,1,5.156,1,,,,,,-0.34998057,-0.256295098,1,0,0,5.1559,Andesite_rect,2,0,2,0,1,
6107acfe97c63575a2344e36,TCN,2024-06-20_16h31.26.165,LearnStrategy,2023.2.3,MacIntel,60.24096386,4,2,4,,,,,,,,6,10,,,,,,,,,,,4,17.222,0,,,,,,0.419672445,-0.260253364,1,0,0,17.2223,Gabbro_rect,3,0,3,0,1,
6107acfe97c63575a2344e36,TCN,2024-06-20_16h31.26.165,LearnStrategy,2023.2.3,MacIntel,60.24096386,4,2,5,,,,,,,,6,15,,,,,,,,,,,6,3.691,1,,,,,,-0.120054796,-0.391368679,1,0,0,3.6905,Pegmatite_rect,4,0,4,0,1,
6107acfe97c63575a2344e36,TCN,2024-06-20_16h31.26.165,LearnStrategy,2023.2.3,MacIntel,60.24096386,4,2,6,,,,,,,,8,06,,,,,,,,,,,8,1.922,1,,,,,,0.37903361,-0.395018243,1,0,0,1.9221,Pumice_rect,5,0,5,0,1,
6107acfe97c63575a2344e36,TCN,2024-06-20_16h31.26.165,LearnStrategy,2023.2.3,MacIntel,60.24096386,4,2,7,,,,,,,,7,10,,,,,,,,,,,3,67.822,0,,,,,,0.119992676,-0.246180149,1,0,0,67.8221,Diorite_rect,6,0,6,0,1,
6107acfe97c63575a2344e36,TCN,2024-06-20_16h31.26.165,LearnStrategy,2023.2.3,MacIntel,60.24096386,4,2,8,,,,,,,,8,13,,,,,,,,,,,8,13.125,1,,,,,,0.359943169,-0.400840454,1,0,0,13.1246,Pumice_rect,7,0,7,0,1,
6107acfe97c63575a2344e36,TCN,2024-06-20_16h31.26.165,LearnStrategy,2023.2.3,MacIntel,60.24096386,4,2,9,,,,,,,,5,08,,,,,,,,,,,5,2.756,1,,,,,,-0.39478909,-0.403155992,1,0,0,2.7557,Obsidian_rect,8,0,8,0,1,
6107acfe97c63575a2344e36,TCN,2024-06-20_16h31.26.165,LearnStrategy,2023.2.3,MacIntel,60.24096386,4,2,10,,,,,,,,7,05,,,,,,,,,,,7,6.756,1,,,,,,0.133867391,-0.388723619,1,0,0,6.7559,Peridotite_rect,9,0,9,0,1,
6107acfe97c63575a2344e36,TCN,2024-06-20_16h31.26.165,LearnStrategy,2023.2.3,MacIntel,60.24096386,4,2,11,,,,,,,,5,12,,,,,,,,,,,5,1.656,1,,,,,,-0.39289622,-0.400815633,1,0,0,1.6562,Obsidian_rect,10,0,10,0,1,
6107acfe97c63575a2344e36,TCN,2024-06-20_16h31.26.165,LearnStrategy,2023.2.3,MacIntel,60.24096386,4,2,12,,,,,,,,3,09,,,,,,,,,,,3,190.053,1,,,,,,0.204276869,-0.245726183,1,0,0,190.0534,Diorite_rect,11,0,11,0,1,
6107acfe97c63575a2344e36,TCN,2024-06-20_16h31.26.165,LearnStrategy,2023.2.3,MacIntel,60.24096386,4,2,13,,,,,,,,1,02,,,,,,,,,,,1,5.755,1,,,,,,-0.416439039,-0.260975274,1,0,0,5.7554,Andesite_rect,12,0,12,0,1,
6107acfe97c63575a2344e36,TCN,2024-06-20_16h31.26.165,LearnStrategy,2023.2.3,MacIntel,60.24096386,4,2,14,,,,,,,,4,12,,,,,,,,,,,2,2.789,0,,,,,,-0.128513319,-0.260371297,1,0,0,2.7895,Basalt_rect,13,0,13,0,1,
6107acfe97c63575a2344e36,TCN,2024-06-20_16h31.26.165,LearnStrategy,2023.2.3,MacIntel,60.24096386,4,2,15,,,,,,,,2,01,,,,,,,,,,,2,1.222,1,,,,,,-0.131487766,-0.254840156,1,0,0,1.2225,Basalt_rect,14,0,14,0,1,
6107acfe97c63575a2344e36,TCN,2024-06-20_16h31.26.165,LearnStrategy,2023.2.3,MacIntel,60.24096386,4,2,16,,,,,,,,3,14,,,,,,,,,,,3,2.79,1,,,,,,0.099015842,-0.241930135,1,0,0,2.7898,Diorite_rect,15,0,15,0,1,
6107acfe97c63575a2344e36,TCN,2024-06-20_16h31.26.165,LearnStrategy,2023.2.3,MacIntel,60.24096386,5,1,1,-0.026062758,0.002305298,1,0,0,9.7969,rock_grid_rect_2,1,05,-1,-1,9.797,0.415940755,-0.245209283,1,0,0,9.3582,Gabbro_rect,4,9.358,0,0,0,0,0,1,,,,,,,,,,,,,
6107acfe97c63575a2344e36,TCN,2024-06-20_16h31.26.165,LearnStrategy,2023.2.3,MacIntel,60.24096386,5,1,2,0.034681871,-0.010028415,1,0,0,10.8304,rock_grid_rect_2,1,04,-1,-1,10.83,0.103798828,-0.400598958,1,0,0,8.9932,Peridotite_rect,7,8.993,0,1,0,1,0,1,,,,,,,,,,,,,
6107acfe97c63575a2344e36,TCN,2024-06-20_16h31.26.165,LearnStrategy,2023.2.3,MacIntel,60.24096386,5,1,3,0.027746853,0.002630683,1,0,0,1.0978,rock_grid_rect_2,8,05,-1,-1,1.098,0.358893094,-0.390855442,1,0,0,1.7919,Pumice_rect,8,1.792,1,2,0,2,0,1,,,,,,,,,,,,,
6107acfe97c63575a2344e36,TCN,2024-06-20_16h31.26.165,LearnStrategy,2023.2.3,MacIntel,60.24096386,5,1,4,0.002275187,0.008600294,1,0,0,1.3973,rock_grid_rect_2,7,16,-1,-1,1.397,0.331813219,-0.245183377,1,0,0,34.0574,Gabbro_rect,4,34.057,0,3,0,3,0,1,,,,,,,,,,,,,
6107acfe97c63575a2344e36,TCN,2024-06-20_16h31.26.165,LearnStrategy,2023.2.3,MacIntel,60.24096386,5,1,5,0.052667982,-0.017336121,1,0,0,1.131,rock_grid_rect_2,2,16,-1,-1,1.131,-0.355976902,-0.265922852,1,0,0,5.3273,Andesite_rect,1,5.327,0,4,0,4,0,1,,,,,,,,,,,,,
6107acfe97c63575a2344e36,TCN,2024-06-20_16h31.26.165,LearnStrategy,2023.2.3,MacIntel,60.24096386,5,1,6,0.083030124,-0.012071567,1,0,0,0.9638,rock_grid_rect_2,8,14,-1,-1,0.964,0.337221205,-0.393718126,1,0,0,1.5269,Pumice_rect,8,1.527,1,5,0,5,0,1,,,,,,,,,,,,,
6107acfe97c63575a2344e36,TCN,2024-06-20_16h31.26.165,LearnStrategy,2023.2.3,MacIntel,60.24096386,5,1,7,-0.014339532,0.000521478,1,0,0,1.1294,rock_grid_rect_2,6,13,-1,-1,1.129,-0.148286065,-0.414709947,1,0,0,6.0264,Pegmatite_rect,6,6.026,1,6,0,6,0,1,,,,,,,,,,,,,
6107acfe97c63575a2344e36,TCN,2024-06-20_16h31.26.165,LearnStrategy,2023.2.3,MacIntel,60.24096386,5,1,8,0.033423598,-0.022984009,1,0,0,1.264,rock_grid_rect_2,5,09,-1,-1,1.264,-0.448340522,-0.411732449,1,0,0,1.5935,Obsidian_rect,5,1.593,1,7,0,7,0,1,,,,,,,,,,,,,
6107acfe97c63575a2344e36,TCN,2024-06-20_16h31.26.165,LearnStrategy,2023.2.3,MacIntel,60.24096386,5,1,9,0.077781101,-0.017723117,1,0,0,1.2302,rock_grid_rect_2,6,08,-1,-1,1.23,-0.381396586,-0.393037584,1,0,0,19.0584,Obsidian_rect,5,19.058,0,8,0,8,0,1,,,,,,,,,,,,,
6107acfe97c63575a2344e36,TCN,2024-06-20_16h31.26.165,LearnStrategy,2023.2.3,MacIntel,60.24096386,5,1,10,0.051180827,-0.007388916,1,0,0,1.2308,rock_grid_rect_2,4,14,-1,-1,1.231,-0.348157315,-0.265052897,1,0,0,3.9928,Andesite_rect,1,3.993,0,9,0,9,0,1,,,,,,,,,,,,,
6107acfe97c63575a2344e36,TCN,2024-06-20_16h31.26.165,LearnStrategy,2023.2.3,MacIntel,60.24096386,5,1,11,0.124595133,-0.020089315,1,0,0,2.0971,rock_grid_rect_2,5,07,-1,-1,2.097,-0.368984782,-0.405127224,1,0,0,1.6585,Obsidian_rect,5,1.659,1,10,0,10,0,1,,,,,,,,,,,,,
6107acfe97c63575a2344e36,TCN,2024-06-20_16h31.26.165,LearnStrategy,2023.2.3,MacIntel,60.24096386,5,1,12,-0.001546224,-0.003657328,1,0,0,0.9315,rock_grid_rect_2,3,16,-1,-1,0.932,0.153004693,-0.256667413,1,0,0,2.6243,Diorite_rect,3,2.624,1,11,0,11,0,1,,,,,,,,,,,,,
6107acfe97c63575a2344e36,TCN,2024-06-20_16h31.26.165,LearnStrategy,2023.2.3,MacIntel,60.24096386,5,1,13,0.009415554,-0.000536635,1,0,0,1.2977,rock_grid_rect_2,4,13,-1,-1,1.298,-0.1611714,-0.395863512,1,0,0,4.192,Pegmatite_rect,6,4.192,0,12,0,12,0,1,,,,,,,,,,,,,
6107acfe97c63575a2344e36,TCN,2024-06-20_16h31.26.165,LearnStrategy,2023.2.3,MacIntel,60.24096386,5,1,14,0.001577894,-0.010620388,1,0,0,1.496,rock_grid_rect_2,3,08,-1,-1,1.496,-0.141687554,-0.391248915,1,0,0,3.9599,Pegmatite_rect,6,3.96,0,13,0,13,0,1,,,,,,,,,,,,,
6107acfe97c63575a2344e36,TCN,2024-06-20_16h31.26.165,LearnStrategy,2023.2.3,MacIntel,60.24096386,5,1,15,0.023771634,-0.008730333,1,0,0,1.1647,rock_grid_rect_2,7,02,-1,-1,1.165,0.37625529,-0.244512939,1,0,0,5.9258,Gabbro_rect,4,5.926,0,14,0,14,0,1,,,,,,,,,,,,,
6107acfe97c63575a2344e36,TCN,2024-06-20_16h31.26.165,LearnStrategy,2023.2.3,MacIntel,60.24096386,5,1,16,0.043927409,0.000532905,1,0,0,1.9644,rock_grid_rect_2,2,04,-1,-1,1.964,-0.145940891,-0.259525689,1,0,0,2.0569,Basalt_rect,2,2.057,1,15,0,15,0,1,,,,,,,,,,,,,
6107acfe97c63575a2344e36,TCN,2024-06-20_16h31.26.165,LearnStrategy,2023.2.3,MacIntel,60.24096386,5,2,1,,,,,,,,8,15,,,,,,,,,,,8,14.588,1,,,,,,0.366129015,-0.382392171,1,0,0,14.5885,Pumice_rect,0,0,0,0,1,
6107acfe97c63575a2344e36,TCN,2024-06-20_16h31.26.165,LearnStrategy,2023.2.3,MacIntel,60.24096386,5,2,2,,,,,,,,1,16,,,,,,,,,,,3,7.69,0,,,,,,0.07005778,-0.246412557,1,0,0,7.6902,Diorite_rect,1,0,1,0,1,
6107acfe97c63575a2344e36,TCN,2024-06-20_16h31.26.165,LearnStrategy,2023.2.3,MacIntel,60.24096386,5,2,3,,,,,,,,3,11,,,,,,,,,,,6,4.355,0,,,,,,-0.084362318,-0.408329468,1,0,0,4.355,Pegmatite_rect,2,0,2,0,1,
6107acfe97c63575a2344e36,TCN,2024-06-20_16h31.26.165,LearnStrategy,2023.2.3,MacIntel,60.24096386,5,2,4,,,,,,,,5,02,,,,,,,,,,,5,1.59,1,,,,,,-0.395653619,-0.404736938,1,0,0,1.5899,Obsidian_rect,3,0,3,0,1,
6107acfe97c63575a2344e36,TCN,2024-06-20_16h31.26.165,LearnStrategy,2023.2.3,MacIntel,60.24096386,5,2,5,,,,,,,,4,01,,,,,,,,,,,7,5.39,0,,,,,,0.136698676,-0.388427395,1,0,0,5.3897,Peridotite_rect,4,0,4,0,1,
6107acfe97c63575a2344e36,TCN,2024-06-20_16h31.26.165,LearnStrategy,2023.2.3,MacIntel,60.24096386,5,2,6,,,,,,,,4,09,,,,,,,,,,,7,8.589,0,,,,,,0.080489095,-0.392571682,1,0,0,8.589,Peridotite_rect,5,0,5,0,1,
6107acfe97c63575a2344e36,TCN,2024-06-20_16h31.26.165,LearnStrategy,2023.2.3,MacIntel,60.24096386,5,2,7,,,,,,,,3,15,,,,,,,,,,,7,26.388,0,,,,,,0.09768948,-0.413387587,1,0,0,26.3882,Peridotite_rect,6,0,6,0,1,
6107acfe97c63575a2344e36,TCN,2024-06-20_16h31.26.165,LearnStrategy,2023.2.3,MacIntel,60.24096386,5,2,8,,,,,,,,2,08,,,,,,,,,,,2,1.656,1,,,,,,-0.127632785,-0.248999023,1,0,0,1.6556,Basalt_rect,7,0,7,0,1,
6107acfe97c63575a2344e36,TCN,2024-06-20_16h31.26.165,LearnStrategy,2023.2.3,MacIntel,60.24096386,5,2,9,,,,,,,,5,10,,,,,,,,,,,4,20.957,0,,,,,,0.420689155,-0.248781942,1,0,0,20.9565,Gabbro_rect,8,0,8,0,1,
6107acfe97c63575a2344e36,TCN,2024-06-20_16h31.26.165,LearnStrategy,2023.2.3,MacIntel,60.24096386,5,2,10,,,,,,,,1,10,,,,,,,,,,,1,4.023,1,,,,,,-0.42298801,-0.248692084,1,0,0,4.0233,Andesite_rect,9,0,9,0,1,
6107acfe97c63575a2344e36,TCN,2024-06-20_16h31.26.165,LearnStrategy,2023.2.3,MacIntel,60.24096386,5,2,11,,,,,,,,7,13,,,,,,,,,,,4,68.022,0,,,,,,0.351303033,-0.250781793,1,0,0,68.0222,Gabbro_rect,10,0,10,0,1,
6107acfe97c63575a2344e36,TCN,2024-06-20_16h31.26.165,LearnStrategy,2023.2.3,MacIntel,60.24096386,5,2,12,,,,,,,,7,08,,,,,,,,,,,7,8.658,1,,,,,,0.128186849,-0.396768799,1,0,0,8.6575,Peridotite_rect,11,0,11,0,1,
6107acfe97c63575a2344e36,TCN,2024-06-20_16h31.26.165,LearnStrategy,2023.2.3,MacIntel,60.24096386,5,2,13,,,,,,,,2,09,,,,,,,,,,,2,3.49,1,,,,,,-0.174345771,-0.244412571,1,0,0,3.4898,Basalt_rect,12,0,12,0,1,
6107acfe97c63575a2344e36,TCN,2024-06-20_16h31.26.165,LearnStrategy,2023.2.3,MacIntel,60.24096386,5,2,14,,,,,,,,6,06,,,,,,,,,,,7,11.39,0,,,,,,0.073063829,-0.410664605,1,0,0,11.3895,Peridotite_rect,13,0,13,0,1,
6107acfe97c63575a2344e36,TCN,2024-06-20_16h31.26.165,LearnStrategy,2023.2.3,MacIntel,60.24096386,5,2,15,,,,,,,,8,03,,,,,,,,,,,8,2.023,1,,,,,,0.344078098,-0.407803413,1,0,0,2.0232,Pumice_rect,14,0,14,0,1,
6107acfe97c63575a2344e36,TCN,2024-06-20_16h31.26.165,LearnStrategy,2023.2.3,MacIntel,60.24096386,5,2,16,,,,,,,,6,16,,,,,,,,,,,6,1.923,1,,,,,,-0.119663086,-0.393821479,1,0,0,1.9228,Pegmatite_rect,15,0,15,0,1,
6107acfe97c63575a2344e36,TCN,2024-06-20_16h31.26.165,LearnStrategy,2023.2.3,MacIntel,60.24096386,6,1,1,0.031740519,-0.004769864,1,0,0,13.3641,rock_grid_rect_2,7,12,-1,-1,13.364,0.157929281,-0.256346571,1,0,0,18.3227,Diorite_rect,3,18.323,0,0,0,0,0,1,,,,,,,,,,,,,
6107acfe97c63575a2344e36,TCN,2024-06-20_16h31.26.165,LearnStrategy,2023.2.3,MacIntel,60.24096386,6,1,2,0.000726657,-0.012283223,1,0,0,1.2304,rock_grid_rect_2,4,05,-1,-1,1.23,0.079269884,-0.380427043,1,0,0,3.691,Peridotite_rect,7,3.691,0,1,0,1,0,1,,,,,,,,,,,,,
6107acfe97c63575a2344e36,TCN,2024-06-20_16h31.26.165,LearnStrategy,2023.2.3,MacIntel,60.24096386,6,1,3,0.086498413,-0.001347453,1,0,0,1.1643,rock_grid_rect_2,4,11,-1,-1,1.164,-0.180037774,-0.242189941,1,0,0,3.5228,Basalt_rect,2,3.523,0,2,0,2,0,1,,,,,,,,,,,,,
6107acfe97c63575a2344e36,TCN,2024-06-20_16h31.26.165,LearnStrategy,2023.2.3,MacIntel,60.24096386,6,1,4,0.082794868,-0.011566671,1,0,0,3.3302,rock_grid_rect_2,6,05,-1,-1,3.33,0.142233276,-0.2364308,1,0,0,12.2266,Diorite_rect,3,12.227,0,3,0,3,0,1,,,,,,,,,,,,,
6107acfe97c63575a2344e36,TCN,2024-06-20_16h31.26.165,LearnStrategy,2023.2.3,MacIntel,60.24096386,6,1,5,0.073888075,-0.014816589,1,0,0,2.5314,rock_grid_rect_2,6,11,-1,-1,2.531,0.099050361,-0.267334052,1,0,0,19.2251,Diorite_rect,3,19.225,0,4,0,4,0,1,,,,,,,,,,,,,
6107acfe97c63575a2344e36,TCN,2024-06-20_16h31.26.165,LearnStrategy,2023.2.3,MacIntel,60.24096386,6,1,6,0.09393731,-0.00641649,1,0,0,2.031,rock_grid_rect_2,5,14,-1,-1,2.031,-0.094600355,-0.251629706,1,0,0,4.2896,Basalt_rect,2,4.29,0,5,0,5,0,1,,,,,,,,,,,,,
6107acfe97c63575a2344e36,TCN,2024-06-20_16h31.26.165,LearnStrategy,2023.2.3,MacIntel,60.24096386,6,1,7,0.043630439,0.009910719,1,0,0,1.1312,rock_grid_rect_2,2,05,-1,-1,1.131,-0.143256836,-0.231868693,1,0,0,1.3585,Basalt_rect,2,1.359,1,6,0,6,0,1,,,,,,,,,,,,,
6107acfe97c63575a2344e36,TCN,2024-06-20_16h31.26.165,LearnStrategy,2023.2.3,MacIntel,60.24096386,6,1,8,0.129061957,0.006717665,1,0,0,3.5982,rock_grid_rect_2,1,01,-1,-1,3.598,0.335771417,-0.247594944,1,0,0,5.6575,Gabbro_rect,4,5.657,0,7,0,7,0,1,,,,,,,,,,,,,
6107acfe97c63575a2344e36,TCN,2024-06-20_16h31.26.165,LearnStrategy,2023.2.3,MacIntel,60.24096386,6,1,9,0.037785238,0.01189955,1,0,0,9.7976,rock_grid_rect_2,5,16,-1,-1,9.798,-0.398416477,-0.407879978,1,0,0,1.5257,Obsidian_rect,5,1.526,1,8,0,8,0,1,,,,,,,,,,,,,
6107acfe97c63575a2344e36,TCN,2024-06-20_16h31.26.165,LearnStrategy,2023.2.3,MacIntel,60.24096386,6,1,10,-0.024667426,-0.002127414,1,0,0,5.5316,rock_grid_rect_2,3,07,-1,-1,5.532,-0.108423394,-0.385413411,1,0,0,9.0918,Pegmatite_rect,6,9.092,0,9,0,9,0,1,,,,,,,,,,,,,
6107acfe97c63575a2344e36,TCN,2024-06-20_16h31.26.165,LearnStrategy,2023.2.3,MacIntel,60.24096386,6,1,11,0.070741713,0.001554192,1,0,0,1.131,rock_grid_rect_2,3,13,-1,-1,1.131,-0.157221002,-0.383111233,1,0,0,4.5241,Pegmatite_rect,6,4.524,0,10,0,10,0,1,,,,,,,,,,,,,
6107acfe97c63575a2344e36,TCN,2024-06-20_16h31.26.165,LearnStrategy,2023.2.3,MacIntel,60.24096386,6,1,12,0.081053942,0.00021715,1,0,0,4.0955,rock_grid_rect_2,1,14,-1,-1,4.096,0.101954888,-0.388325331,1,0,0,14.6274,Peridotite_rect,7,14.627,0,11,0,11,0,1,,,,,,,,,,,,,
6107acfe97c63575a2344e36,TCN,2024-06-20_16h31.26.165,LearnStrategy,2023.2.3,MacIntel,60.24096386,6,1,13,-0.017085843,-0.009365065,1,0,0,6.8978,rock_grid_rect_2,2,02,-1,-1,6.898,-0.081139933,-0.249892171,1,0,0,4.9241,Basalt_rect,2,4.924,1,12,0,12,0,1,,,,,,,,,,,,,
6107acfe97c63575a2344e36,TCN,2024-06-20_16h31.26.165,LearnStrategy,2023.2.3,MacIntel,60.24096386,6,1,14,-0.014167752,0.003310479,1,0,0,1.9321,rock_grid_rect_2,8,04,-1,-1,1.932,0.353928087,-0.389626668,1,0,0,3.2571,Pumice_rect,8,3.257,1,13,0,13,0,1,,,,,,,,,,,,,
6107acfe97c63575a2344e36,TCN,2024-06-20_16h31.26.165,LearnStrategy,2023.2.3,MacIntel,60.24096386,6,1,15,0.052132636,-0.020964288,1,0,0,1.1977,rock_grid_rect_2,8,10,-1,-1,1.198,0.362048069,-0.411703966,1,0,0,2.3917,Pumice_rect,8,2.392,1,14,0,14,0,1,,,,,,,,,,,,,
6107acfe97c63575a2344e36,TCN,2024-06-20_16h31.26.165,LearnStrategy,2023.2.3,MacIntel,60.24096386,6,1,16,-0.02958903,0.009647081,1,0,0,1.3313,rock_grid_rect_2,7,14,-1,-1,1.331,-0.418098958,-0.245244073,1,0,0,12.6593,Andesite_rect,1,12.659,0,15,0,15,0,1,,,,,,,,,,,,,
6107acfe97c63575a2344e36,TCN,2024-06-20_16h31.26.165,LearnStrategy,2023.2.3,MacIntel,60.24096386,6,2,1,,,,,,,,6,03,,,,,,,,,,,4,96.821,0,,,,,,0.34253323,-0.265687324,1,0,0,96.8205,Gabbro_rect,0,0,0,0,1,
6107acfe97c63575a2344e36,TCN,2024-06-20_16h31.26.165,LearnStrategy,2023.2.3,MacIntel,60.24096386,6,2,2,,,,,,,,8,02,,,,,,,,,,,8,1.335,1,,,,,,0.315544298,-0.409094645,1,0,0,1.3346,Pumice_rect,1,0,1,0,1,
6107acfe97c63575a2344e36,TCN,2024-06-20_16h31.26.165,LearnStrategy,2023.2.3,MacIntel,60.24096386,6,2,3,,,,,,,,7,04,,,,,,,,,,,7,119.222,1,,,,,,0.07609436,-0.398470662,1,0,0,119.2225,Peridotite_rect,2,0,2,0,1,
6107acfe97c63575a2344e36,TCN,2024-06-20_16h31.26.165,LearnStrategy,2023.2.3,MacIntel,60.24096386,6,2,4,,,,,,,,6,07,,,,,,,,,,,6,10.706,1,,,,,,-0.102432861,-0.40531996,1,0,0,10.7064,Pegmatite_rect,3,0,3,0,1,
6107acfe97c63575a2344e36,TCN,2024-06-20_16h31.26.165,LearnStrategy,2023.2.3,MacIntel,60.24096386,6,2,5,,,,,,,,7,15,,,,,,,,,,,6,4.384,0,,,,,,-0.105933024,-0.404451565,1,0,0,4.3839,Pegmatite_rect,4,0,4,0,1,
6107acfe97c63575a2344e36,TCN,2024-06-20_16h31.26.165,LearnStrategy,2023.2.3,MacIntel,60.24096386,6,2,6,,,,,,,,4,08,,,,,,,,,,,7,5.05,0,,,,,,0.112013821,-0.412564087,1,0,0,5.0499,Peridotite_rect,5,0,5,0,1,
6107acfe97c63575a2344e36,TCN,2024-06-20_16h31.26.165,LearnStrategy,2023.2.3,MacIntel,60.24096386,6,2,7,,,,,,,,2,14,,,,,,,,,,,4,2.889,0,,,,,,0.414908583,-0.265674981,1,0,0,2.8894,Gabbro_rect,6,0,6,0,1,
6107acfe97c63575a2344e36,TCN,2024-06-20_16h31.26.165,LearnStrategy,2023.2.3,MacIntel,60.24096386,6,2,8,,,,,,,,1,06,,,,,,,,,,,6,8.25,0,,,,,,-0.13275038,-0.40918613,1,0,0,8.2501,Pegmatite_rect,7,0,7,0,1,
6107acfe97c63575a2344e36,TCN,2024-06-20_16h31.26.165,LearnStrategy,2023.2.3,MacIntel,60.24096386,6,2,9,,,,,,,,5,05,,,,,,,,,,,5,1.718,1,,,,,,-0.383173387,-0.405243056,1,0,0,1.7176,Obsidian_rect,8,0,8,0,1,
6107acfe97c63575a2344e36,TCN,2024-06-20_16h31.26.165,LearnStrategy,2023.2.3,MacIntel,60.24096386,6,2,10,,,,,,,,8,08,,,,,,,,,,,8,1.481,1,,,,,,0.406412489,-0.421673381,1,0,0,1.4812,Pumice_rect,9,0,9,0,1,
6107acfe97c63575a2344e36,TCN,2024-06-20_16h31.26.165,LearnStrategy,2023.2.3,MacIntel,60.24096386,6,2,11,,,,,,,,3,02,,,,,,,,,,,3,2.801,1,,,,,,0.124121568,-0.252731527,1,0,0,2.8014,Diorite_rect,10,0,10,0,1,
6107acfe97c63575a2344e36,TCN,2024-06-20_16h31.26.165,LearnStrategy,2023.2.3,MacIntel,60.24096386,6,2,12,,,,,,,,2,10,,,,,,,,,,,1,5.041,0,,,,,,-0.359478319,-0.246600884,1,0,0,5.0405,Andesite_rect,11,0,11,0,1,
6107acfe97c63575a2344e36,TCN,2024-06-20_16h31.26.165,LearnStrategy,2023.2.3,MacIntel,60.24096386,6,2,13,,,,,,,,4,15,,,,,,,,,,,4,16.089,1,,,,,,0.392161323,-0.254512058,1,0,0,16.0891,Gabbro_rect,12,0,12,0,1,
6107acfe97c63575a2344e36,TCN,2024-06-20_16h31.26.165,LearnStrategy,2023.2.3,MacIntel,60.24096386,6,2,14,,,,,,,,1,07,,,,,,,,,,,6,4.57,0,,,,,,-0.059079997,-0.414155206,1,0,0,4.5699,Pegmatite_rect,13,0,13,0,1,
6107acfe97c63575a2344e36,TCN,2024-06-20_16h31.26.165,LearnStrategy,2023.2.3,MacIntel,60.24096386,6,2,15,,,,,,,,5,04,,,,,,,,,,,5,1.675,1,,,,,,-0.357752787,-0.410735202,1,0,0,1.6752,Obsidian_rect,14,0,14,0,1,
6107acfe97c63575a2344e36,TCN,2024-06-20_16h31.26.165,LearnStrategy,2023.2.3,MacIntel,60.24096386,6,2,16,,,,,,,,3,10,,,,,,,,,,,3,3.633,1,,,,,,0.138546482,-0.257572564,1,0,0,3.6333,Diorite_rect,15,0,15,0,1,
6107acfe97c63575a2344e36,TCN,2024-06-20_16h31.26.165,LearnStrategy,2023.2.3,MacIntel,60.24096386,7,1,1,-0.071760796,-0.010733236,1,0,0,4.8483,rock_grid_rect_2,5,16,-1,-1,4.848,-0.406243049,-0.38122172,1,0,0,1.4336,Obsidian_rect,5,1.434,1,0,0,0,0,1,,,,,,,,,,,,,
6107acfe97c63575a2344e36,TCN,2024-06-20_16h31.26.165,LearnStrategy,2023.2.3,MacIntel,60.24096386,7,1,2,0.011021118,-0.019372457,1,0,0,1.6328,rock_grid_rect_2,2,02,-1,-1,1.633,-0.154694689,-0.249690687,1,0,0,8.4411,Basalt_rect,2,8.441,1,1,0,1,0,1,,,,,,,,,,,,,
6107acfe97c63575a2344e36,TCN,2024-06-20_16h31.26.165,LearnStrategy,2023.2.3,MacIntel,60.24096386,7,1,3,0.041960856,-0.017278307,1,0,0,1.115,rock_grid_rect_2,7,16,-1,-1,1.115,0.34691352,-0.248499417,1,0,0,5.1248,Gabbro_rect,4,5.125,0,2,0,2,0,1,,,,,,,,,,,,,
6107acfe97c63575a2344e36,TCN,2024-06-20_16h31.26.165,LearnStrategy,2023.2.3,MacIntel,60.24096386,7,1,4,0.066504178,0.015036655,1,0,0,4.615,rock_grid_rect_2,3,07,-1,-1,4.615,0.134911567,-0.242725966,1,0,0,5.7266,Diorite_rect,3,5.727,1,3,0,3,0,1,,,,,,,,,,,,,
6107acfe97c63575a2344e36,TCN,2024-06-20_16h31.26.165,LearnStrategy,2023.2.3,MacIntel,60.24096386,7,1,5,0.054972466,-0.008761292,1,0,0,1.2979,rock_grid_rect_2,1,04,-1,-1,1.298,-0.141078491,-0.410426093,1,0,0,13.2433,Pegmatite_rect,6,13.243,0,4,0,4,0,1,,,,,,,,,,,,,
6107acfe97c63575a2344e36,TCN,2024-06-20_16h31.26.165,LearnStrategy,2023.2.3,MacIntel,60.24096386,7,1,6,0.0645008,-0.001823459,1,0,0,1.1812,rock_grid_rect_2,4,16,-1,-1,1.181,0.122064819,-0.386551175,1,0,0,5.1757,Peridotite_rect,7,5.176,0,5,0,5,0,1,,,,,,,,,,,,,
6107acfe97c63575a2344e36,TCN,2024-06-20_16h31.26.165,LearnStrategy,2023.2.3,MacIntel,60.24096386,7,1,7,0.070860664,-0.015821296,1,0,0,0.899,rock_grid_rect_2,8,09,-1,-1,0.899,0.343376872,-0.397954983,1,0,0,1.9325,Pumice_rect,8,1.932,1,6,0,6,0,1,,,,,,,,,,,,,
6107acfe97c63575a2344e36,TCN,2024-06-20_16h31.26.165,LearnStrategy,2023.2.3,MacIntel,60.24096386,7,1,8,0.048283963,-0.018197903,1,0,0,1.2641,rock_grid_rect_2,1,11,-1,-1,1.264,0.41320109,-0.265084635,1,0,0,6.3598,Gabbro_rect,4,6.36,0,7,0,7,0,1,,,,,,,,,,,,,
6107acfe97c63575a2344e36,TCN,2024-06-20_16h31.26.165,LearnStrategy,2023.2.3,MacIntel,60.24096386,7,1,9,0.073384942,-0.024829881,1,0,0,8.5466,rock_grid_rect_2,3,08,-1,-1,8.547,0.129494493,-0.250960219,1,0,0,2.3334,Diorite_rect,3,2.333,1,8,0,8,0,1,,,,,,,,,,,,,
6107acfe97c63575a2344e36,TCN,2024-06-20_16h31.26.165,LearnStrategy,2023.2.3,MacIntel,60.24096386,7,1,10,0.047257419,-0.007141283,1,0,0,1.0474,rock_grid_rect_2,8,16,-1,-1,1.047,0.345789931,-0.385945028,1,0,0,2.0517,Pumice_rect,8,2.052,1,9,0,9,0,1,,,,,,,,,,,,,
6107acfe97c63575a2344e36,TCN,2024-06-20_16h31.26.165,LearnStrategy,2023.2.3,MacIntel,60.24096386,7,1,11,0.059700385,-0.010217963,1,0,0,1.3481,rock_grid_rect_2,6,05,-1,-1,1.348,0.377556695,-0.236119453,1,0,0,5.8264,Gabbro_rect,4,5.826,0,10,0,10,0,1,,,,,,,,,,,,,
6107acfe97c63575a2344e36,TCN,2024-06-20_16h31.26.165,LearnStrategy,2023.2.3,MacIntel,60.24096386,7,1,12,0.03190823,-0.004927707,1,0,0,1.1811,rock_grid_rect_2,4,03,-1,-1,1.181,-0.400019328,-0.252949354,1,0,0,6.376,Andesite_rect,1,6.376,0,11,0,11,0,1,,,,,,,,,,,,,
6107acfe97c63575a2344e36,TCN,2024-06-20_16h31.26.165,LearnStrategy,2023.2.3,MacIntel,60.24096386,7,1,13,0.128839993,0.015006307,1,0,0,1.5657,rock_grid_rect_2,5,11,-1,-1,1.566,-0.348947754,-0.400159437,1,0,0,2.0661,Obsidian_rect,5,2.066,1,12,0,12,0,1,,,,,,,,,,,,,
6107acfe97c63575a2344e36,TCN,2024-06-20_16h31.26.165,LearnStrategy,2023.2.3,MacIntel,60.24096386,7,1,14,0.080541924,-0.0030287,1,0,0,1.4978,rock_grid_rect_2,6,11,-1,-1,1.498,0.354219293,-0.24103007,1,0,0,12.9426,Gabbro_rect,4,12.943,0,13,0,13,0,1,,,,,,,,,,,,,
6107acfe97c63575a2344e36,TCN,2024-06-20_16h31.26.165,LearnStrategy,2023.2.3,MacIntel,60.24096386,7,1,15,0.086182658,-0.004956665,1,0,0,3.1483,rock_grid_rect_2,2,16,-1,-1,3.148,-0.363059082,-0.263924289,1,0,0,3.4421,Andesite_rect,1,3.442,0,14,0,14,0,1,,,,,,,,,,,,,
6107acfe97c63575a2344e36,TCN,2024-06-20_16h31.26.165,LearnStrategy,2023.2.3,MacIntel,60.24096386,7,1,16,0.127971259,0.002440287,1,0,0,1.0481,rock_grid_rect_2,7,02,-1,-1,1.048,0.367384847,-0.245107422,1,0,0,7.867,Gabbro_rect,4,7.867,0,15,0,15,0,1,,,,,,,,,,,,,
6107acfe97c63575a2344e36,TCN,2024-06-20_16h31.26.165,LearnStrategy,2023.2.3,MacIntel,60.24096386,7,2,1,,,,,,,,4,10,,,,,,,,,,,6,6.782,0,,,,,,-0.097684394,-0.393243408,1,0,0,6.7818,Pegmatite_rect,0,0,0,0,1,
6107acfe97c63575a2344e36,TCN,2024-06-20_16h31.26.165,LearnStrategy,2023.2.3,MacIntel,60.24096386,7,2,2,,,,,,,,8,02,,,,,,,,,,,8,1.347,1,,,,,,0.350405138,-0.387186483,1,0,0,1.3474,Pumice_rect,1,0,1,0,1,
6107acfe97c63575a2344e36,TCN,2024-06-20_16h31.26.165,LearnStrategy,2023.2.3,MacIntel,60.24096386,7,2,3,,,,,,,,2,10,,,,,,,,,,,1,12.306,0,,,,,,-0.386221822,-0.259600423,1,0,0,12.3064,Andesite_rect,2,0,2,0,1,
6107acfe97c63575a2344e36,TCN,2024-06-20_16h31.26.165,LearnStrategy,2023.2.3,MacIntel,60.24096386,7,2,4,,,,,,,,3,11,,,,,,,,,,,5,5.415,0,,,,,,-0.393448351,-0.403134155,1,0,0,5.4152,Obsidian_rect,3,0,3,0,1,
6107acfe97c63575a2344e36,TCN,2024-06-20_16h31.26.165,LearnStrategy,2023.2.3,MacIntel,60.24096386,7,2,5,,,,,,,,5,04,,,,,,,,,,,5,1.174,1,,,,,,-0.369545051,-0.403803847,1,0,0,1.1736,Obsidian_rect,4,0,4,0,1,
6107acfe97c63575a2344e36,TCN,2024-06-20_16h31.26.165,LearnStrategy,2023.2.3,MacIntel,60.24096386,7,2,6,,,,,,,,7,08,,,,,,,,,,,7,7.468,1,,,,,,0.115509033,-0.410525241,1,0,0,7.4679,Peridotite_rect,5,0,5,0,1,
6107acfe97c63575a2344e36,TCN,2024-06-20_16h31.26.165,LearnStrategy,2023.2.3,MacIntel,60.24096386,7,2,7,,,,,,,,5,10,,,,,,,,,,,4,5.69,0,,,,,,0.380747613,-0.26173211,1,0,0,5.6897,Gabbro_rect,6,0,6,0,1,
6107acfe97c63575a2344e36,TCN,2024-06-20_16h31.26.165,LearnStrategy,2023.2.3,MacIntel,60.24096386,7,2,8,,,,,,,,3,14,,,,,,,,,,,3,6.141,1,,,,,,0.149137166,-0.262667982,1,0,0,6.1409,Diorite_rect,7,0,7,0,1,
6107acfe97c63575a2344e36,TCN,2024-06-20_16h31.26.165,LearnStrategy,2023.2.3,MacIntel,60.24096386,7,2,9,,,,,,,,7,10,,,,,,,,,,,7,8.933,1,,,,,,0.094834256,-0.410607096,1,0,0,8.9328,Peridotite_rect,8,0,8,0,1,
6107acfe97c63575a2344e36,TCN,2024-06-20_16h31.26.165,LearnStrategy,2023.2.3,MacIntel,60.24096386,7,2,10,,,,,,,,4,09,,,,,,,,,,,7,3.234,0,,,,,,0.128826565,-0.383135105,1,0,0,3.2345,Peridotite_rect,9,0,9,0,1,
6107acfe97c63575a2344e36,TCN,2024-06-20_16h31.26.165,LearnStrategy,2023.2.3,MacIntel,60.24096386,7,2,11,,,,,,,,2,14,,,,,,,,,,,1,7.3,0,,,,,,-0.36678677,-0.244809028,1,0,0,7.2998,Andesite_rect,10,0,10,0,1,
6107acfe97c63575a2344e36,TCN,2024-06-20_16h31.26.165,LearnStrategy,2023.2.3,MacIntel,60.24096386,7,2,12,,,,,,,,1,09,,,,,,,,,,,1,3.301,1,,,,,,-0.415883009,-0.238915541,1,0,0,3.3005,Andesite_rect,11,0,11,0,1,
6107acfe97c63575a2344e36,TCN,2024-06-20_16h31.26.165,LearnStrategy,2023.2.3,MacIntel,60.24096386,7,2,13,,,,,,,,6,03,,,,,,,,,,,4,5.69,0,,,,,,0.383365207,-0.266285604,1,0,0,5.69,Gabbro_rect,12,0,12,0,1,
6107acfe97c63575a2344e36,TCN,2024-06-20_16h31.26.165,LearnStrategy,2023.2.3,MacIntel,60.24096386,7,2,14,,,,,,,,1,02,,,,,,,,,,,8,3.983,0,,,,,,0.400479465,-0.411155396,1,0,0,3.9833,Pumice_rect,13,0,13,0,1,
6107acfe97c63575a2344e36,TCN,2024-06-20_16h31.26.165,LearnStrategy,2023.2.3,MacIntel,60.24096386,7,2,15,,,,,,,,6,07,,,,,,,,,,,4,2.005,0,,,,,,0.349315186,-0.240178358,1,0,0,2.005,Gabbro_rect,14,0,14,0,1,
6107acfe97c63575a2344e36,TCN,2024-06-20_16h31.26.165,LearnStrategy,2023.2.3,MacIntel,60.24096386,7,2,16,,,,,,,,8,03,,,,,,,,,,,8,1.334,1,,,,,,0.33141371,-0.395968628,1,0,0,1.3338,Pumice_rect,15,0,15,0,1,
6107acfe97c63575a2344e36,TCN,2024-06-20_16h31.26.165,LearnStrategy,2023.2.3,MacIntel,60.24096386,8,1,1,-0.033656548,-0.004450514,1,0,0,10.7641,rock_grid_rect_2,5,09,-1,-1,10.764,-0.427470127,-0.399980197,1,0,0,1.8126,Obsidian_rect,5,1.813,1,0,0,0,0,1,,,,,,,,,,,,,
6107acfe97c63575a2344e36,TCN,2024-06-20_16h31.26.165,LearnStrategy,2023.2.3,MacIntel,60.24096386,8,1,2,0.00929145,-0.020302361,1,0,0,1.3478,rock_grid_rect_2,4,14,-1,-1,1.348,0.365984972,-0.239944594,1,0,0,8.9743,Gabbro_rect,4,8.974,1,1,0,1,0,1,,,,,,,,,,,,,
6107acfe97c63575a2344e36,TCN,2024-06-20_16h31.26.165,LearnStrategy,2023.2.3,MacIntel,60.24096386,8,1,3,0.075146552,-0.021204563,1,0,0,1.0977,rock_grid_rect_2,5,07,-1,-1,1.098,-0.349522773,-0.409381578,1,0,0,1.4236,Obsidian_rect,5,1.424,1,2,0,2,0,1,,,,,,,,,,,,,
6107acfe97c63575a2344e36,TCN,2024-06-20_16h31.26.165,LearnStrategy,2023.2.3,MacIntel,60.24096386,8,1,4,0.018040568,-0.007527432,1,0,0,1.1151,rock_grid_rect_2,6,13,-1,-1,1.115,0.332355008,-0.271685248,1,0,0,8.5582,Gabbro_rect,4,8.558,0,3,0,3,0,1,,,,,,,,,,,,,
6107acfe97c63575a2344e36,TCN,2024-06-20_16h31.26.165,LearnStrategy,2023.2.3,MacIntel,60.24096386,8,1,5,0.082920871,0.003885057,1,0,0,1.2314,rock_grid_rect_2,2,05,-1,-1,1.231,-0.12620029,-0.252638414,1,0,0,3.0153,Basalt_rect,2,3.015,1,4,0,4,0,1,,,,,,,,,,,,,
6107acfe97c63575a2344e36,TCN,2024-06-20_16h31.26.165,LearnStrategy,2023.2.3,MacIntel,60.24096386,8,1,6,0.093809068,0.002712674,1,0,0,0.8989,rock_grid_rect_2,6,12,-1,-1,0.899,0.102208184,-0.392772149,1,0,0,5.1589,Peridotite_rect,7,5.159,0,5,0,5,0,1,,,,,,,,,,,,,
6107acfe97c63575a2344e36,TCN,2024-06-20_16h31.26.165,LearnStrategy,2023.2.3,MacIntel,60.24096386,8,1,7,0.068156874,0.018402574,1,0,0,1.0982,rock_grid_rect_2,1,14,-1,-1,1.098,0.069394124,-0.387830404,1,0,0,5.0422,Peridotite_rect,7,5.042,0,6,0,6,0,1,,,,,,,,,,,,,
6107acfe97c63575a2344e36,TCN,2024-06-20_16h31.26.165,LearnStrategy,2023.2.3,MacIntel,60.24096386,8,1,8,0.030811293,0.007412075,1,0,0,0.8149,rock_grid_rect_2,8,04,-1,-1,0.815,0.367714572,-0.384145847,1,0,0,1.6604,Pumice_rect,8,1.66,1,7,0,7,0,1,,,,,,,,,,,,,
6107acfe97c63575a2344e36,TCN,2024-06-20_16h31.26.165,LearnStrategy,2023.2.3,MacIntel,60.24096386,8,1,9,0.086660767,0.010276015,1,0,0,0.8981,rock_grid_rect_2,8,14,-1,-1,0.898,0.352650011,-0.398413764,1,0,0,1.4273,Pumice_rect,8,1.427,1,8,0,8,0,1,,,,,,,,,,,,,
6107acfe97c63575a2344e36,TCN,2024-06-20_16h31.26.165,LearnStrategy,2023.2.3,MacIntel,60.24096386,8,1,10,-0.008093465,-0.00756958,1,0,0,0.9321,rock_grid_rect_2,7,06,-1,-1,0.932,-0.156532593,-0.395209283,1,0,0,4.2274,Pegmatite_rect,6,4.227,0,9,0,9,0,1,,,,,,,,,,,,,
6107acfe97c63575a2344e36,TCN,2024-06-20_16h31.26.165,LearnStrategy,2023.2.3,MacIntel,60.24096386,8,1,11,0.031697252,-0.002045186,1,0,0,0.8493,rock_grid_rect_2,4,11,-1,-1,0.849,-0.357211202,-0.251195814,1,0,0,2.0732,Andesite_rect,1,2.073,0,10,0,10,0,1,,,,,,,,,,,,,
6107acfe97c63575a2344e36,TCN,2024-06-20_16h31.26.165,LearnStrategy,2023.2.3,MacIntel,60.24096386,8,1,12,0.045871514,0.002332933,1,0,0,0.8991,rock_grid_rect_2,3,12,-1,-1,0.899,0.111433648,-0.249912584,1,0,0,8.5077,Diorite_rect,3,8.508,1,11,0,11,0,1,,,,,,,,,,,,,
6107acfe97c63575a2344e36,TCN,2024-06-20_16h31.26.165,LearnStrategy,2023.2.3,MacIntel,60.24096386,8,1,13,0.067886285,0.00171146,1,0,0,1.3822,rock_grid_rect_2,2,06,-1,-1,1.382,-0.142197333,-0.235420261,1,0,0,2.2628,Basalt_rect,2,2.263,1,12,0,12,0,1,,,,,,,,,,,,,
6107acfe97c63575a2344e36,TCN,2024-06-20_16h31.26.165,LearnStrategy,2023.2.3,MacIntel,60.24096386,8,1,14,-0.004266086,-0.019659865,1,0,0,0.9493,rock_grid_rect_2,1,03,-1,-1,0.949,-0.078602973,-0.397192044,1,0,0,4.4908,Pegmatite_rect,6,4.491,0,13,0,13,0,1,,,,,,,,,,,,,
6107acfe97c63575a2344e36,TCN,2024-06-20_16h31.26.165,LearnStrategy,2023.2.3,MacIntel,60.24096386,8,1,15,0.044142185,-0.009247979,1,0,0,0.8309,rock_grid_rect_2,7,12,-1,-1,0.831,0.162823079,-0.270487874,1,0,0,9.9771,Diorite_rect,3,9.977,0,14,0,14,0,1,,,,,,,,,,,,,
6107acfe97c63575a2344e36,TCN,2024-06-20_16h31.26.165,LearnStrategy,2023.2.3,MacIntel,60.24096386,8,1,16,-0.007138672,0.012530077,1,0,0,1.3817,rock_grid_rect_2,3,06,-1,-1,1.382,0.060909085,-0.401819661,1,0,0,5.251,Peridotite_rect,7,5.251,0,15,0,15,0,1,,,,,,,,,,,,,
6107acfe97c63575a2344e36,TCN,2024-06-20_16h31.26.165,LearnStrategy,2023.2.3,MacIntel,60.24096386,8,2,1,,,,,,,,1,06,,,,,,,,,,,6,4.848,0,,,,,,-0.12575921,-0.42050198,1,0,0,4.8482,Pegmatite_rect,0,0,0,0,1,
6107acfe97c63575a2344e36,TCN,2024-06-20_16h31.26.165,LearnStrategy,2023.2.3,MacIntel,60.24096386,8,2,2,,,,,,,,6,06,,,,,,,,,,,4,2.388,0,,,,,,0.392416585,-0.236870049,1,0,0,2.3883,Gabbro_rect,1,0,1,0,1,
6107acfe97c63575a2344e36,TCN,2024-06-20_16h31.26.165,LearnStrategy,2023.2.3,MacIntel,60.24096386,8,2,3,,,,,,,,2,12,,,,,,,,,,,6,2.232,0,,,,,,-0.112192925,-0.407480265,1,0,0,2.2317,Pegmatite_rect,2,0,2,0,1,
6107acfe97c63575a2344e36,TCN,2024-06-20_16h31.26.165,LearnStrategy,2023.2.3,MacIntel,60.24096386,8,2,4,,,,,,,,4,01,,,,,,,,,,,3,8.923,0,,,,,,0.153973592,-0.250942993,1,0,0,8.9232,Diorite_rect,3,0,3,0,1,
6107acfe97c63575a2344e36,TCN,2024-06-20_16h31.26.165,LearnStrategy,2023.2.3,MacIntel,60.24096386,8,2,5,,,,,,,,5,08,,,,,,,,,,,5,3.983,1,,,,,,-0.415420532,-0.401582438,1,0,0,3.9829,Obsidian_rect,4,0,4,0,1,
6107acfe97c63575a2344e36,TCN,2024-06-20_16h31.26.165,LearnStrategy,2023.2.3,MacIntel,60.24096386,8,2,6,,,,,,,,3,09,,,,,,,,,,,5,8.274,0,,,,,,-0.392116496,-0.39336853,1,0,0,8.2736,Obsidian_rect,5,0,5,0,1,
6107acfe97c63575a2344e36,TCN,2024-06-20_16h31.26.165,LearnStrategy,2023.2.3,MacIntel,60.24096386,8,2,7,,,,,,,,4,12,,,,,,,,,,,1,4.501,0,,,,,,-0.413011814,-0.242638414,1,0,0,4.5012,Andesite_rect,6,0,6,0,1,
6107acfe97c63575a2344e36,TCN,2024-06-20_16h31.26.165,LearnStrategy,2023.2.3,MacIntel,60.24096386,8,2,8,,,,,,,,5,02,,,,,,,,,,,5,1.247,1,,,,,,-0.378213942,-0.409701538,1,0,0,1.247,Obsidian_rect,7,0,7,0,1,
6107acfe97c63575a2344e36,TCN,2024-06-20_16h31.26.165,LearnStrategy,2023.2.3,MacIntel,60.24096386,8,2,9,,,,,,,,8,08,,,,,,,,,,,8,1.501,1,,,,,,0.383419596,-0.394068807,1,0,0,1.501,Pumice_rect,8,0,8,0,1,
6107acfe97c63575a2344e36,TCN,2024-06-20_16h31.26.165,LearnStrategy,2023.2.3,MacIntel,60.24096386,8,2,10,,,,,,,,8,15,,,,,,,,,,,8,1.216,1,,,,,,0.33187283,-0.394088813,1,0,0,1.2162,Pumice_rect,9,0,9,0,1,
6107acfe97c63575a2344e36,TCN,2024-06-20_16h31.26.165,LearnStrategy,2023.2.3,MacIntel,60.24096386,8,2,11,,,,,,,,2,01,,,,,,,,,,,2,4.307,1,,,,,,-0.143673638,-0.254854194,1,0,0,4.3074,Basalt_rect,10,0,10,0,1,
6107acfe97c63575a2344e36,TCN,2024-06-20_16h31.26.165,LearnStrategy,2023.2.3,MacIntel,60.24096386,8,2,12,,,,,,,,7,15,,,,,,,,,,,3,3.866,0,,,,,,0.09117079,-0.241247762,1,0,0,3.8658,Diorite_rect,11,0,11,0,1,
6107acfe97c63575a2344e36,TCN,2024-06-20_16h31.26.165,LearnStrategy,2023.2.3,MacIntel,60.24096386,8,2,13,,,,,,,,6,15,,,,,,,,,,,4,1.6,0,,,,,,0.322390476,-0.248906996,1,0,0,1.6002,Gabbro_rect,12,0,12,0,1,
6107acfe97c63575a2344e36,TCN,2024-06-20_16h31.26.165,LearnStrategy,2023.2.3,MacIntel,60.24096386,8,2,14,,,,,,,,3,10,,,,,,,,,,,6,4.799,0,,,,,,-0.107186686,-0.392321438,1,0,0,4.7989,Pegmatite_rect,13,0,13,0,1,
6107acfe97c63575a2344e36,TCN,2024-06-20_16h31.26.165,LearnStrategy,2023.2.3,MacIntel,60.24096386,8,2,15,,,,,,,,7,04,,,,,,,,,,,4,9.207,0,,,,,,0.364561225,-0.245337457,1,0,0,9.207,Gabbro_rect,14,0,14,0,1,
6107acfe97c63575a2344e36,TCN,2024-06-20_16h31.26.165,LearnStrategy,2023.2.3,MacIntel,60.24096386,8,2,16,,,,,,,,1,16,,,,,,,,,,,7,11.473,0,,,,,,0.128215671,-0.392753771,1,0,0,11.4726,Peridotite_rect,15,0,15,0,1,
6107acfe97c63575a2344e36,TCN,2024-06-20_16h31.26.165,LearnStrategy,2023.2.3,MacIntel,60.24096386,9,1,1,0.071979167,-0.000429416,1,0,0,2.5643,rock_grid_rect_2,4,13,-1,-1,2.564,0.408578016,-0.247004191,1,0,0,7.2083,Gabbro_rect,4,7.208,1,0,0,0,0,1,,,,,,,,,,,,,
6107acfe97c63575a2344e36,TCN,2024-06-20_16h31.26.165,LearnStrategy,2023.2.3,MacIntel,60.24096386,9,1,2,0.104024929,0.021086188,1,0,0,1.0315,rock_grid_rect_2,6,09,-1,-1,1.032,0.088148939,-0.394917128,1,0,0,12.5428,Peridotite_rect,7,12.543,0,1,0,1,0,1,,,,,,,,,,,,,
6107acfe97c63575a2344e36,TCN,2024-06-20_16h31.26.165,LearnStrategy,2023.2.3,MacIntel,60.24096386,9,1,3,0.024760742,-0.017565002,1,0,0,1.0313,rock_grid_rect_2,4,05,-1,-1,1.031,0.375887044,-0.258554959,1,0,0,3.1412,Gabbro_rect,4,3.141,1,2,0,2,0,1,,,,,,,,,,,,,
6107acfe97c63575a2344e36,TCN,2024-06-20_16h31.26.165,LearnStrategy,2023.2.3,MacIntel,60.24096386,9,1,4,0.055695326,0.000983276,1,0,0,1.0149,rock_grid_rect_2,8,10,-1,-1,1.015,0.36023763,-0.395902642,1,0,0,1.6581,Pumice_rect,8,1.658,1,3,0,3,0,1,,,,,,,,,,,,,
6107acfe97c63575a2344e36,TCN,2024-06-20_16h31.26.165,LearnStrategy,2023.2.3,MacIntel,60.24096386,9,1,5,-0.022539944,0.008040839,1,0,0,1.0153,rock_grid_rect_2,8,05,-1,-1,1.015,0.325116781,-0.387420519,1,0,0,1.6927,Pumice_rect,8,1.693,1,4,0,4,0,1,,,,,,,,,,,,,
6107acfe97c63575a2344e36,TCN,2024-06-20_16h31.26.165,LearnStrategy,2023.2.3,MacIntel,60.24096386,9,1,6,-0.011033732,0.003474562,1,0,0,2.3982,rock_grid_rect_2,5,06,-1,-1,2.398,-0.405427992,-0.405893894,1,0,0,1.3594,Obsidian_rect,5,1.359,1,5,0,5,0,1,,,,,,,,,,,,,
6107acfe97c63575a2344e36,TCN,2024-06-20_16h31.26.165,LearnStrategy,2023.2.3,MacIntel,60.24096386,9,1,7,0.00224528,0.000853339,1,0,0,0.8319,rock_grid_rect_2,5,14,-1,-1,0.832,-0.161744792,-0.246089817,1,0,0,5.0757,Basalt_rect,2,5.076,0,6,0,6,0,1,,,,,,,,,,,,,
6107acfe97c63575a2344e36,TCN,2024-06-20_16h31.26.165,LearnStrategy,2023.2.3,MacIntel,60.24096386,9,1,8,-0.031260783,0.003103366,1,0,0,1.5806,rock_grid_rect_2,3,16,-1,-1,1.581,-0.074261271,-0.398068712,1,0,0,4.3254,Pegmatite_rect,6,4.325,0,7,0,7,0,1,,,,,,,,,,,,,
6107acfe97c63575a2344e36,TCN,2024-06-20_16h31.26.165,LearnStrategy,2023.2.3,MacIntel,60.24096386,9,1,9,0.041657918,-0.003998718,1,0,0,0.9308,rock_grid_rect_2,7,14,-1,-1,0.931,0.114071045,-0.400509983,1,0,0,5.4575,Peridotite_rect,7,5.458,1,8,0,8,0,1,,,,,,,,,,,,,
6107acfe97c63575a2344e36,TCN,2024-06-20_16h31.26.165,LearnStrategy,2023.2.3,MacIntel,60.24096386,9,1,10,0.034336955,0.000463528,1,0,0,2.9321,rock_grid_rect_2,3,13,-1,-1,2.932,-0.087331475,-0.405621134,1,0,0,12.5411,Pegmatite_rect,6,12.541,0,9,0,9,0,1,,,,,,,,,,,,,
6107acfe97c63575a2344e36,TCN,2024-06-20_16h31.26.165,LearnStrategy,2023.2.3,MacIntel,60.24096386,9,1,11,0.000883789,0.001688538,1,0,0,1.0808,rock_grid_rect_2,1,01,-1,-1,1.081,-0.155774129,-0.3932508,1,0,0,5.5749,Pegmatite_rect,6,5.575,0,10,0,10,0,1,,,,,,,,,,,,,
6107acfe97c63575a2344e36,TCN,2024-06-20_16h31.26.165,LearnStrategy,2023.2.3,MacIntel,60.24096386,9,1,12,0.06690077,-0.00660909,1,0,0,0.8308,rock_grid_rect_2,2,04,-1,-1,0.831,-0.360087145,-0.253505113,1,0,0,2.7762,Andesite_rect,1,2.776,0,11,0,11,0,1,,,,,,,,,,,,,
6107acfe97c63575a2344e36,TCN,2024-06-20_16h31.26.165,LearnStrategy,2023.2.3,MacIntel,60.24096386,9,1,13,0.036992527,-0.020394965,1,0,0,0.8323,rock_grid_rect_2,7,07,-1,-1,0.832,0.393974881,-0.242705621,1,0,0,6.8413,Gabbro_rect,4,6.841,0,12,0,12,0,1,,,,,,,,,,,,,
6107acfe97c63575a2344e36,TCN,2024-06-20_16h31.26.165,LearnStrategy,2023.2.3,MacIntel,60.24096386,9,1,14,0.008627184,-0.023768548,1,0,0,20.2822,rock_grid_rect_2,2,11,-1,-1,20.282,-0.367863024,-0.24179952,1,0,0,17.1756,Andesite_rect,1,17.176,0,13,0,13,0,1,,,,,,,,,,,,,
6107acfe97c63575a2344e36,TCN,2024-06-20_16h31.26.165,LearnStrategy,2023.2.3,MacIntel,60.24096386,9,1,15,0.072386475,0.008030667,1,0,0,0.8973,rock_grid_rect_2,1,05,-1,-1,0.897,0.173289049,-0.253036702,1,0,0,7.8766,Diorite_rect,3,7.877,0,14,0,14,0,1,,,,,,,,,,,,,
6107acfe97c63575a2344e36,TCN,2024-06-20_16h31.26.165,LearnStrategy,2023.2.3,MacIntel,60.24096386,9,1,16,0.044605035,0.01649509,1,0,0,1.0321,rock_grid_rect_2,6,08,-1,-1,1.032,0.35956231,-0.255703328,1,0,0,1.709,Gabbro_rect,4,1.709,0,15,0,15,0,1,,,,,,,,,,,,,
6107acfe97c63575a2344e36,TCN,2024-06-20_16h31.26.165,LearnStrategy,2023.2.3,MacIntel,60.24096386,9,2,1,,,,,,,,4,15,,,,,,,,,,,4,6.023,1,,,,,,0.318889635,-0.2563109,1,0,0,6.0226,Gabbro_rect,0,0,0,0,1,
6107acfe97c63575a2344e36,TCN,2024-06-20_16h31.26.165,LearnStrategy,2023.2.3,MacIntel,60.24096386,9,2,2,,,,,,,,7,05,,,,,,,,,,,1,4.683,0,,,,,,-0.38325592,-0.24952223,1,0,0,4.6834,Andesite_rect,1,0,1,0,1,
6107acfe97c63575a2344e36,TCN,2024-06-20_16h31.26.165,LearnStrategy,2023.2.3,MacIntel,60.24096386,9,2,3,,,,,,,,4,08,,,,,,,,,,,4,81.891,1,,,,,,0.398957926,-0.260436266,1,0,0,81.8912,Gabbro_rect,2,0,2,0,1,
6107acfe97c63575a2344e36,TCN,2024-06-20_16h31.26.165,LearnStrategy,2023.2.3,MacIntel,60.24096386,9,2,4,,,,,,,,5,12,,,,,,,,,,,5,1.288,1,,,,,,-0.393199972,-0.404863824,1,0,0,1.2884,Obsidian_rect,3,0,3,0,1,
6107acfe97c63575a2344e36,TCN,2024-06-20_16h31.26.165,LearnStrategy,2023.2.3,MacIntel,60.24096386,9,2,5,,,,,,,,6,10,,,,,,,,,,,7,5.708,0,,,,,,0.07419732,-0.396471558,1,0,0,5.7076,Peridotite_rect,4,0,4,0,1,
6107acfe97c63575a2344e36,TCN,2024-06-20_16h31.26.165,LearnStrategy,2023.2.3,MacIntel,60.24096386,9,2,6,,,,,,,,1,10,,,,,,,,,,,4,8.272,0,,,,,,0.461749403,-0.248846571,1,0,0,8.2724,Gabbro_rect,5,0,5,0,1,
6107acfe97c63575a2344e36,TCN,2024-06-20_16h31.26.165,LearnStrategy,2023.2.3,MacIntel,60.24096386,9,2,7,,,,,,,,2,08,,,,,,,,,,,2,3.693,1,,,,,,-0.173053928,-0.255975884,1,0,0,3.6927,Basalt_rect,6,0,6,0,1,
6107acfe97c63575a2344e36,TCN,2024-06-20_16h31.26.165,LearnStrategy,2023.2.3,MacIntel,60.24096386,9,2,8,,,,,,,,8,06,,,,,,,,,,,8,1.126,1,,,,,,0.306329414,-0.405210571,1,0,0,1.1256,Pumice_rect,7,0,7,0,1,
6107acfe97c63575a2344e36,TCN,2024-06-20_16h31.26.165,LearnStrategy,2023.2.3,MacIntel,60.24096386,9,2,9,,,,,,,,3,02,,,,,,,,,,,3,37.055,1,,,,,,0.106492852,-0.25565233,1,0,0,37.0549,Diorite_rect,8,0,8,0,1,
6107acfe97c63575a2344e36,TCN,2024-06-20_16h31.26.165,LearnStrategy,2023.2.3,MacIntel,60.24096386,9,2,10,,,,,,,,8,13,,,,,,,,,,,8,2.235,1,,,,,,0.4101317,-0.402400852,1,0,0,2.235,Pumice_rect,9,0,9,0,1,
6107acfe97c63575a2344e36,TCN,2024-06-20_16h31.26.165,LearnStrategy,2023.2.3,MacIntel,60.24096386,9,2,11,,,,,,,,6,16,,,,,,,,,,,7,5.914,0,,,,,,0.107191569,-0.395936076,1,0,0,5.9145,Peridotite_rect,10,0,10,0,1,
6107acfe97c63575a2344e36,TCN,2024-06-20_16h31.26.165,LearnStrategy,2023.2.3,MacIntel,60.24096386,9,2,12,,,,,,,,2,09,,,,,,,,,,,1,3.083,0,,,,,,-0.410647074,-0.24303928,1,0,0,3.0829,Andesite_rect,11,0,11,0,1,
6107acfe97c63575a2344e36,TCN,2024-06-20_16h31.26.165,LearnStrategy,2023.2.3,MacIntel,60.24096386,9,2,13,,,,,,,,7,13,,,,,,,,,,,4,3.4,0,,,,,,0.344871555,-0.245831095,1,0,0,3.4005,Gabbro_rect,12,0,12,0,1,
6107acfe97c63575a2344e36,TCN,2024-06-20_16h31.26.165,LearnStrategy,2023.2.3,MacIntel,60.24096386,9,2,14,,,,,,,,3,15,,,,,,,,,,,8,3.249,0,,,,,,0.396690131,-0.40322659,1,0,0,3.2495,Pumice_rect,13,0,13,0,1,
6107acfe97c63575a2344e36,TCN,2024-06-20_16h31.26.165,LearnStrategy,2023.2.3,MacIntel,60.24096386,9,2,15,,,,,,,,5,05,,,,,,,,,,,5,1.282,1,,,,,,-0.378121406,-0.401993815,1,0,0,1.2817,Obsidian_rect,14,0,14,0,1,
6107acfe97c63575a2344e36,TCN,2024-06-20_16h31.26.165,LearnStrategy,2023.2.3,MacIntel,60.24096386,9,2,16,,,,,,,,1,07,,,,,,,,,,,3,3.215,0,,,,,,0.092413059,-0.242672458,1,0,0,3.215,Diorite_rect,15,0,15,0,1,
6107acfe97c63575a2344e36,TCN,2024-06-20_16h31.26.165,LearnStrategy,2023.2.3,MacIntel,60.24096386,,,,,,,,,,,,,,,,,,,,,,,,,,,,,,,,,,,,,,,,,,,0
6107acfe97c63575a2344e36,TCN,2024-06-20_16h31.26.165,LearnStrategy,2023.2.3,MacIntel,60.24096386,,,,,,,,,,,,,,,,,,,,,,,,,,,,,,,,,,,,,,,,,,,
6107acfe97c63575a2344e36,TCN,2024-06-20_16h31.26.165,LearnStrategy,2023.2.3,MacIntel,60.24096386,,,,,,,,,,,8,10,1,1,,,,,,,,,,,,,,,,,,,,,,,,,,,,,
6107acfe97c63575a2344e36,TCN,2024-06-20_16h31.26.165,LearnStrategy,2023.2.3,MacIntel,60.24096386,,,,,,,,,,,1,03,1,2,,,,,,,,,,,,,,,,,,,,,,,,,,,,,
6107acfe97c63575a2344e36,TCN,2024-06-20_16h31.26.165,LearnStrategy,2023.2.3,MacIntel,60.24096386,,,,,,,,,,,3,06,1,3,,,,,,,,,,,,,,,,,,,,,,,,,,,,,
6107acfe97c63575a2344e36,TCN,2024-06-20_16h31.26.165,LearnStrategy,2023.2.3,MacIntel,60.24096386,,,,,,,,,,,4,03,1,4,,,,,,,,,,,,,,,,,,,,,,,,,,,,,
6107acfe97c63575a2344e36,TCN,2024-06-20_16h31.26.165,LearnStrategy,2023.2.3,MacIntel,60.24096386,,,,,,,,,,,7,14,1,5,,,,,,,,,,,,,,,,,,,,,,,,,,,,,
6107acfe97c63575a2344e36,TCN,2024-06-20_16h31.26.165,LearnStrategy,2023.2.3,MacIntel,60.24096386,,,,,,,,,,,1,11,1,6,,,,,,,,,,,,,,,,,,,,,,,,,,,,,
6107acfe97c63575a2344e36,TCN,2024-06-20_16h31.26.165,LearnStrategy,2023.2.3,MacIntel,60.24096386,,,,,,,,,,,8,09,1,7,,,,,,,,,,,,,,,,,,,,,,,,,,,,,
6107acfe97c63575a2344e36,TCN,2024-06-20_16h31.26.165,LearnStrategy,2023.2.3,MacIntel,60.24096386,,,,,,,,,,,5,07,1,8,,,,,,,,,,,,,,,,,,,,,,,,,,,,,
6107acfe97c63575a2344e36,TCN,2024-06-20_16h31.26.165,LearnStrategy,2023.2.3,MacIntel,60.24096386,,,,,,,,,,,1,04,2,1,,,,,,,,,,,,,,,,,,,,,,,,,,,,,
6107acfe97c63575a2344e36,TCN,2024-06-20_16h31.26.165,LearnStrategy,2023.2.3,MacIntel,60.24096386,,,,,,,,,,,3,12,2,2,,,,,,,,,,,,,,,,,,,,,,,,,,,,,
6107acfe97c63575a2344e36,TCN,2024-06-20_16h31.26.165,LearnStrategy,2023.2.3,MacIntel,60.24096386,,,,,,,,,,,3,08,2,3,,,,,,,,,,,,,,,,,,,,,,,,,,,,,
6107acfe97c63575a2344e36,TCN,2024-06-20_16h31.26.165,LearnStrategy,2023.2.3,MacIntel,60.24096386,,,,,,,,,,,7,16,2,4,,,,,,,,,,,,,,,,,,,,,,,,,,,,,
6107acfe97c63575a2344e36,TCN,2024-06-20_16h31.26.165,LearnStrategy,2023.2.3,MacIntel,60.24096386,,,,,,,,,,,8,14,2,5,,,,,,,,,,,,,,,,,,,,,,,,,,,,,
6107acfe97c63575a2344e36,TCN,2024-06-20_16h31.26.165,LearnStrategy,2023.2.3,MacIntel,60.24096386,,,,,,,,,,,2,05,2,6,,,,,,,,,,,,,,,,,,,,,,,,,,,,,
6107acfe97c63575a2344e36,TCN,2024-06-20_16h31.26.165,LearnStrategy,2023.2.3,MacIntel,60.24096386,,,,,,,,,,,7,06,2,7,,,,,,,,,,,,,,,,,,,,,,,,,,,,,
6107acfe97c63575a2344e36,TCN,2024-06-20_16h31.26.165,LearnStrategy,2023.2.3,MacIntel,60.24096386,,,,,,,,,,,7,12,2,8,,,,,,,,,,,,,,,,,,,,,,,,,,,,,
6107acfe97c63575a2344e36,TCN,2024-06-20_16h31.26.165,LearnStrategy,2023.2.3,MacIntel,60.24096386,,,,,,,,,,,8,16,3,1,,,,,,,,,,,,,,,,,,,,,,,,,,,,,
6107acfe97c63575a2344e36,TCN,2024-06-20_16h31.26.165,LearnStrategy,2023.2.3,MacIntel,60.24096386,,,,,,,,,,,6,05,3,2,,,,,,,,,,,,,,,,,,,,,,,,,,,,,
6107acfe97c63575a2344e36,TCN,2024-06-20_16h31.26.165,LearnStrategy,2023.2.3,MacIntel,60.24096386,,,,,,,,,,,1,01,3,3,,,,,,,,,,,,,,,,,,,,,,,,,,,,,
6107acfe97c63575a2344e36,TCN,2024-06-20_16h31.26.165,LearnStrategy,2023.2.3,MacIntel,60.24096386,,,,,,,,,,,4,16,3,4,,,,,,,,,,,,,,,,,,,,,,,,,,,,,
6107acfe97c63575a2344e36,TCN,2024-06-20_16h31.26.165,LearnStrategy,2023.2.3,MacIntel,60.24096386,,,,,,,,,,,3,07,3,5,,,,,,,,,,,,,,,,,,,,,,,,,,,,,
6107acfe97c63575a2344e36,TCN,2024-06-20_16h31.26.165,LearnStrategy,2023.2.3,MacIntel,60.24096386,,,,,,,,,,,3,13,3,6,,,,,,,,,,,,,,,,,,,,,,,,,,,,,
6107acfe97c63575a2344e36,TCN,2024-06-20_16h31.26.165,LearnStrategy,2023.2.3,MacIntel,60.24096386,,,,,,,,,,,4,11,3,7,,,,,,,,,,,,,,,,,,,,,,,,,,,,,
6107acfe97c63575a2344e36,TCN,2024-06-20_16h31.26.165,LearnStrategy,2023.2.3,MacIntel,60.24096386,,,,,,,,,,,6,09,3,8,,,,,,,,,,,,,,,,,,,,,,,,,,,,,
6107acfe97c63575a2344e36,TCN,2024-06-20_16h31.26.165,LearnStrategy,2023.2.3,MacIntel,60.24096386,,,,,,,,,,,2,16,4,1,,,,,,,,,,,,,,,,,,,,,,,,,,,,,
6107acfe97c63575a2344e36,TCN,2024-06-20_16h31.26.165,LearnStrategy,2023.2.3,MacIntel,60.24096386,,,,,,,,,,,2,04,4,2,,,,,,,,,,,,,,,,,,,,,,,,,,,,,
6107acfe97c63575a2344e36,TCN,2024-06-20_16h31.26.165,LearnStrategy,2023.2.3,MacIntel,60.24096386,,,,,,,,,,,7,07,4,3,,,,,,,,,,,,,,,,,,,,,,,,,,,,,
6107acfe97c63575a2344e36,TCN,2024-06-20_16h31.26.165,LearnStrategy,2023.2.3,MacIntel,60.24096386,,,,,,,,,,,4,05,4,4,,,,,,,,,,,,,,,,,,,,,,,,,,,,,
6107acfe97c63575a2344e36,TCN,2024-06-20_16h31.26.165,LearnStrategy,2023.2.3,MacIntel,60.24096386,,,,,,,,,,,6,13,4,5,,,,,,,,,,,,,,,,,,,,,,,,,,,,,
6107acfe97c63575a2344e36,TCN,2024-06-20_16h31.26.165,LearnStrategy,2023.2.3,MacIntel,60.24096386,,,,,,,,,,,3,16,4,6,,,,,,,,,,,,,,,,,,,,,,,,,,,,,
6107acfe97c63575a2344e36,TCN,2024-06-20_16h31.26.165,LearnStrategy,2023.2.3,MacIntel,60.24096386,,,,,,,,,,,2,11,4,7,,,,,,,,,,,,,,,,,,,,,,,,,,,,,
6107acfe97c63575a2344e36,TCN,2024-06-20_16h31.26.165,LearnStrategy,2023.2.3,MacIntel,60.24096386,,,,,,,,,,,6,08,4,8,,,,,,,,,,,,,,,,,,,,,,,,,,,,,
6107acfe97c63575a2344e36,TCN,2024-06-20_16h31.26.165,LearnStrategy,2023.2.3,MacIntel,60.24096386,,,,,,,,,,,6,11,5,1,,,,,,,,,,,,,,,,,,,,,,,,,,,,,
6107acfe97c63575a2344e36,TCN,2024-06-20_16h31.26.165,LearnStrategy,2023.2.3,MacIntel,60.24096386,,,,,,,,,,,8,04,5,2,,,,,,,,,,,,,,,,,,,,,,,,,,,,,
6107acfe97c63575a2344e36,TCN,2024-06-20_16h31.26.165,LearnStrategy,2023.2.3,MacIntel,60.24096386,,,,,,,,,,,5,11,5,3,,,,,,,,,,,,,,,,,,,,,,,,,,,,,
6107acfe97c63575a2344e36,TCN,2024-06-20_16h31.26.165,LearnStrategy,2023.2.3,MacIntel,60.24096386,,,,,,,,,,,4,13,5,4,,,,,,,,,,,,,,,,,,,,,,,,,,,,,
6107acfe97c63575a2344e36,TCN,2024-06-20_16h31.26.165,LearnStrategy,2023.2.3,MacIntel,60.24096386,,,,,,,,,,,4,14,5,5,,,,,,,,,,,,,,,,,,,,,,,,,,,,,
6107acfe97c63575a2344e36,TCN,2024-06-20_16h31.26.165,LearnStrategy,2023.2.3,MacIntel,60.24096386,,,,,,,,,,,5,16,5,6,,,,,,,,,,,,,,,,,,,,,,,,,,,,,
6107acfe97c63575a2344e36,TCN,2024-06-20_16h31.26.165,LearnStrategy,2023.2.3,MacIntel,60.24096386,,,,,,,,,,,5,14,5,7,,,,,,,,,,,,,,,,,,,,,,,,,,,,,
6107acfe97c63575a2344e36,TCN,2024-06-20_16h31.26.165,LearnStrategy,2023.2.3,MacIntel,60.24096386,,,,,,,,,,,8,05,5,8,,,,,,,,,,,,,,,,,,,,,,,,,,,,,
6107acfe97c63575a2344e36,TCN,2024-06-20_16h31.26.165,LearnStrategy,2023.2.3,MacIntel,60.24096386,,,,,,,,,,,1,05,6,1,,,,,,,,,,,,,,,,,,,,,,,,,,,,,
6107acfe97c63575a2344e36,TCN,2024-06-20_16h31.26.165,LearnStrategy,2023.2.3,MacIntel,60.24096386,,,,,,,,,,,6,12,6,2,,,,,,,,,,,,,,,,,,,,,,,,,,,,,
6107acfe97c63575a2344e36,TCN,2024-06-20_16h31.26.165,LearnStrategy,2023.2.3,MacIntel,60.24096386,,,,,,,,,,,7,02,6,3,,,,,,,,,,,,,,,,,,,,,,,,,,,,,
6107acfe97c63575a2344e36,TCN,2024-06-20_16h31.26.165,LearnStrategy,2023.2.3,MacIntel,60.24096386,,,,,,,,,,,5,06,6,4,,,,,,,,,,,,,,,,,,,,,,,,,,,,,
6107acfe97c63575a2344e36,TCN,2024-06-20_16h31.26.165,LearnStrategy,2023.2.3,MacIntel,60.24096386,,,,,,,,,,,1,14,6,5,,,,,,,,,,,,,,,,,,,,,,,,,,,,,
6107acfe97c63575a2344e36,TCN,2024-06-20_16h31.26.165,LearnStrategy,2023.2.3,MacIntel,60.24096386,,,,,,,,,,,2,02,6,6,,,,,,,,,,,,,,,,,,,,,,,,,,,,,
6107acfe97c63575a2344e36,TCN,2024-06-20_16h31.26.165,LearnStrategy,2023.2.3,MacIntel,60.24096386,,,,,,,,,,,5,09,6,7,,,,,,,,,,,,,,,,,,,,,,,,,,,,,
6107acfe97c63575a2344e36,TCN,2024-06-20_16h31.26.165,LearnStrategy,2023.2.3,MacIntel,60.24096386,,,,,,,,,,,2,06,6,8,,,,,,,,,,,,,,,,,,,,,,,,,,,,,