participant,condition,date,expName,psychopyVersion,OS,frameRate,block,phase,trial,learn_mouse_2.x,learn_mouse_2.y,learn_mouse_2.leftButton,learn_mouse_2.midButton,learn_mouse_2.rightButton,learn_mouse_2.time,learn_mouse_2.clicked_name,cat,token,row,col,t_select,cat_mouse_l.x,cat_mouse_l.y,cat_mouse_l.leftButton,cat_mouse_l.midButton,cat_mouse_l.rightButton,cat_mouse_l.time,cat_mouse_l.clicked_name,resp,t_resp,corr,train_trials.thisRepN,train_trials.thisTrialN,train_trials.thisN,train_trials.thisIndex,train_trials.ran,cat_mouse_t.x,cat_mouse_t.y,cat_mouse_t.leftButton,cat_mouse_t.midButton,cat_mouse_t.rightButton,cat_mouse_t.time,cat_mouse_t.clicked_name,test_trials.thisRepN,test_trials.thisTrialN,test_trials.thisN,test_trials.thisIndex,test_trials.ran,Bonus
61155a7ed7bb8ba7da579301,TCN,2024-06-20_15h28.09.664,LearnStrategy,2023.2.3,Win32,59.88023952,,,,,,,,,,,,,,,,,,,,,,,,,,,,,,,,,,,,,,,,,,,
61155a7ed7bb8ba7da579301,TCN,2024-06-20_15h28.09.664,LearnStrategy,2023.2.3,Win32,59.88023952,1,1,1,0.025000057,-0.001851852,1,0,0,1.9771,rock_grid_rect_2,7,16,-1,-1,1.977,-0.077777778,-0.252777778,1,0,0,4.3432,Basalt_rect,2,4.343,0,0,0,0,0,1,,,,,,,,,,,,,
61155a7ed7bb8ba7da579301,TCN,2024-06-20_15h28.09.664,LearnStrategy,2023.2.3,Win32,59.88023952,1,1,2,0.000925926,-0.00462963,1,0,0,1.2873,rock_grid_rect_2,5,05,-1,-1,1.287,-0.34537037,-0.253703704,1,0,0,3.1498,Andesite_rect,1,3.15,0,1,0,1,0,1,,,,,,,,,,,,,
61155a7ed7bb8ba7da579301,TCN,2024-06-20_15h28.09.664,LearnStrategy,2023.2.3,Win32,59.88023952,1,1,3,0.07037037,-0.012037037,1,0,0,1.0189,rock_grid_rect_2,6,15,-1,-1,1.019,-0.363888889,-0.248148148,1,0,0,2.4432,Andesite_rect,1,2.443,0,2,0,2,0,1,,,,,,,,,,,,,
61155a7ed7bb8ba7da579301,TCN,2024-06-20_15h28.09.664,LearnStrategy,2023.2.3,Win32,59.88023952,1,1,4,0.053703704,-0.006481481,1,0,0,0.9895,rock_grid_rect_2,7,04,-1,-1,0.99,0.15462963,-0.239814815,1,0,0,2.931,Diorite_rect,3,2.931,0,3,0,3,0,1,,,,,,,,,,,,,
61155a7ed7bb8ba7da579301,TCN,2024-06-20_15h28.09.664,LearnStrategy,2023.2.3,Win32,59.88023952,1,1,5,-0.017592593,0.008333333,1,0,0,5.1564,rock_grid_rect_2,5,11,-1,-1,5.156,-0.362962963,-0.414814815,1,0,0,1.5839,Obsidian_rect,5,1.584,1,4,0,4,0,1,,,,,,,,,,,,,
61155a7ed7bb8ba7da579301,TCN,2024-06-20_15h28.09.664,LearnStrategy,2023.2.3,Win32,59.88023952,1,1,6,0.057407464,-0.00462963,1,0,0,0.896,rock_grid_rect_2,2,14,-1,-1,0.896,0.377777778,-0.417592593,1,0,0,2.4425,Pumice_rect,8,2.442,0,5,0,5,0,1,,,,,,,,,,,,,
61155a7ed7bb8ba7da579301,TCN,2024-06-20_15h28.09.664,LearnStrategy,2023.2.3,Win32,59.88023952,1,1,7,0,0.013888889,1,0,0,0.85,rock_grid_rect_2,1,01,-1,-1,0.85,0.087962963,-0.25,1,0,0,3.4008,Diorite_rect,3,3.401,0,6,0,6,0,1,,,,,,,,,,,,,
61155a7ed7bb8ba7da579301,TCN,2024-06-20_15h28.09.664,LearnStrategy,2023.2.3,Win32,59.88023952,1,1,8,0.037962963,0.000925926,1,0,0,0.824,rock_grid_rect_2,1,04,-1,-1,0.824,-0.339814815,-0.237037037,1,0,0,2.5093,Andesite_rect,1,2.509,1,7,0,7,0,1,,,,,,,,,,,,,
61155a7ed7bb8ba7da579301,TCN,2024-06-20_15h28.09.664,LearnStrategy,2023.2.3,Win32,59.88023952,1,1,9,0.006481538,-0.006481481,1,0,0,1.2272,rock_grid_rect_2,8,08,-1,-1,1.227,0.356481481,-0.412037037,1,0,0,1.4014,Pumice_rect,8,1.401,1,8,0,8,0,1,,,,,,,,,,,,,
61155a7ed7bb8ba7da579301,TCN,2024-06-20_15h28.09.664,LearnStrategy,2023.2.3,Win32,59.88023952,1,1,10,-0.039814758,-0.003703704,1,0,0,0.8426,rock_grid_rect_2,4,13,-1,-1,0.843,0.108333333,-0.237037037,1,0,0,5.9006,Diorite_rect,3,5.901,0,9,0,9,0,1,,,,,,,,,,,,,
61155a7ed7bb8ba7da579301,TCN,2024-06-20_15h28.09.664,LearnStrategy,2023.2.3,Win32,59.88023952,1,1,11,0.034259316,0.011111111,1,0,0,1.0296,rock_grid_rect_2,6,03,-1,-1,1.03,-0.112962963,-0.404629686,1,0,0,5.0072,Pegmatite_rect,6,5.007,1,10,0,10,0,1,,,,,,,,,,,,,
61155a7ed7bb8ba7da579301,TCN,2024-06-20_15h28.09.664,LearnStrategy,2023.2.3,Win32,59.88023952,1,1,12,-0.00462963,-0.003703704,1,0,0,0.811,rock_grid_rect_2,3,09,-1,-1,0.811,0.386111111,-0.261111168,1,0,0,2.761,Gabbro_rect,4,2.761,0,11,0,11,0,1,,,,,,,,,,,,,
61155a7ed7bb8ba7da579301,TCN,2024-06-20_15h28.09.664,LearnStrategy,2023.2.3,Win32,59.88023952,1,1,13,0.025000057,0.013888889,1,0,0,1.8439,rock_grid_rect_2,2,02,-1,-1,1.844,-0.05,-0.246296296,1,0,0,2.8834,Basalt_rect,2,2.883,1,12,0,12,0,1,,,,,,,,,,,,,
61155a7ed7bb8ba7da579301,TCN,2024-06-20_15h28.09.664,LearnStrategy,2023.2.3,Win32,59.88023952,1,1,14,0.076851852,-0.005555556,1,0,0,0.7761,rock_grid_rect_2,4,09,-1,-1,0.776,-0.331481481,-0.400925926,1,0,0,2.3773,Obsidian_rect,5,2.377,0,13,0,13,0,1,,,,,,,,,,,,,
61155a7ed7bb8ba7da579301,TCN,2024-06-20_15h28.09.664,LearnStrategy,2023.2.3,Win32,59.88023952,1,1,15,0.023148148,0.015740741,1,0,0,1.4627,rock_grid_rect_2,3,11,-1,-1,1.463,0.103703704,-0.25462963,1,0,0,2.7413,Diorite_rect,3,2.741,1,14,0,14,0,1,,,,,,,,,,,,,
61155a7ed7bb8ba7da579301,TCN,2024-06-20_15h28.09.664,LearnStrategy,2023.2.3,Win32,59.88023952,1,1,16,0.043518575,0.014814815,1,0,0,0.7137,rock_grid_rect_2,8,04,-1,-1,0.714,0.350926039,-0.405555556,1,0,0,1.4419,Pumice_rect,8,1.442,1,15,0,15,0,1,,,,,,,,,,,,,
61155a7ed7bb8ba7da579301,TCN,2024-06-20_15h28.09.664,LearnStrategy,2023.2.3,Win32,59.88023952,1,2,1,,,,,,,,1,05,,,,,,,,,,,7,9.018,0,,,,,,0.087962963,-0.403703704,1,0,0,9.0176,Peridotite_rect,0,0,0,0,1,
61155a7ed7bb8ba7da579301,TCN,2024-06-20_15h28.09.664,LearnStrategy,2023.2.3,Win32,59.88023952,1,2,2,,,,,,,,4,01,,,,,,,,,,,1,5.012,0,,,,,,-0.309259259,-0.257407407,1,0,0,5.0117,Andesite_rect,1,0,1,0,1,
61155a7ed7bb8ba7da579301,TCN,2024-06-20_15h28.09.664,LearnStrategy,2023.2.3,Win32,59.88023952,1,2,3,,,,,,,,4,05,,,,,,,,,,,1,5.182,0,,,,,,-0.377777778,-0.243518519,1,0,0,5.1824,Andesite_rect,2,0,2,0,1,
61155a7ed7bb8ba7da579301,TCN,2024-06-20_15h28.09.664,LearnStrategy,2023.2.3,Win32,59.88023952,1,2,4,,,,,,,,5,14,,,,,,,,,,,5,1.379,1,,,,,,-0.332407407,-0.388888889,1,0,0,1.3787,Obsidian_rect,3,0,3,0,1,
61155a7ed7bb8ba7da579301,TCN,2024-06-20_15h28.09.664,LearnStrategy,2023.2.3,Win32,59.88023952,1,2,5,,,,,,,,3,16,,,,,,,,,,,4,4.04,0,,,,,,0.33703715,-0.25462963,1,0,0,4.04,Gabbro_rect,4,0,4,0,1,
61155a7ed7bb8ba7da579301,TCN,2024-06-20_15h28.09.664,LearnStrategy,2023.2.3,Win32,59.88023952,1,2,6,,,,,,,,2,04,,,,,,,,,,,3,5.822,0,,,,,,0.144444444,-0.260185185,1,0,0,5.8222,Diorite_rect,5,0,5,0,1,
61155a7ed7bb8ba7da579301,TCN,2024-06-20_15h28.09.664,LearnStrategy,2023.2.3,Win32,59.88023952,1,2,7,,,,,,,,8,10,,,,,,,,,,,8,2.184,1,,,,,,0.359259259,-0.406481481,1,0,0,2.1841,Pumice_rect,6,0,6,0,1,
61155a7ed7bb8ba7da579301,TCN,2024-06-20_15h28.09.664,LearnStrategy,2023.2.3,Win32,59.88023952,1,2,8,,,,,,,,5,16,,,,,,,,,,,5,1.231,1,,,,,,-0.391666667,-0.404629686,1,0,0,1.2306,Obsidian_rect,7,0,7,0,1,
61155a7ed7bb8ba7da579301,TCN,2024-06-20_15h28.09.664,LearnStrategy,2023.2.3,Win32,59.88023952,1,2,9,,,,,,,,2,06,,,,,,,,,,,3,2.698,0,,,,,,0.114814815,-0.244444444,1,0,0,2.6976,Diorite_rect,8,0,8,0,1,
61155a7ed7bb8ba7da579301,TCN,2024-06-20_15h28.09.664,LearnStrategy,2023.2.3,Win32,59.88023952,1,2,10,,,,,,,,7,13,,,,,,,,,,,7,6.717,1,,,,,,0.062962963,-0.401851852,1,0,0,6.7171,Peridotite_rect,9,0,9,0,1,
61155a7ed7bb8ba7da579301,TCN,2024-06-20_15h28.09.664,LearnStrategy,2023.2.3,Win32,59.88023952,1,2,11,,,,,,,,8,14,,,,,,,,,,,8,5.785,1,,,,,,0.352777778,-0.401851852,1,0,0,5.785,Pumice_rect,10,0,10,0,1,
61155a7ed7bb8ba7da579301,TCN,2024-06-20_15h28.09.664,LearnStrategy,2023.2.3,Win32,59.88023952,1,2,12,,,,,,,,7,02,,,,,,,,,,,7,3.466,1,,,,,,0.159259259,-0.392592593,1,0,0,3.4664,Peridotite_rect,11,0,11,0,1,
61155a7ed7bb8ba7da579301,TCN,2024-06-20_15h28.09.664,LearnStrategy,2023.2.3,Win32,59.88023952,1,2,13,,,,,,,,1,16,,,,,,,,,,,1,1.589,1,,,,,,-0.407407407,-0.269444444,1,0,0,1.5891,Andesite_rect,12,0,12,0,1,
61155a7ed7bb8ba7da579301,TCN,2024-06-20_15h28.09.664,LearnStrategy,2023.2.3,Win32,59.88023952,1,2,14,,,,,,,,6,05,,,,,,,,,,,5,1.628,0,,,,,,-0.32037037,-0.380555556,1,0,0,1.6282,Obsidian_rect,13,0,13,0,1,
61155a7ed7bb8ba7da579301,TCN,2024-06-20_15h28.09.664,LearnStrategy,2023.2.3,Win32,59.88023952,1,2,15,,,,,,,,6,10,,,,,,,,,,,6,5.689,1,,,,,,-0.149074074,-0.402777778,1,0,0,5.6887,Pegmatite_rect,14,0,14,0,1,
61155a7ed7bb8ba7da579301,TCN,2024-06-20_15h28.09.664,LearnStrategy,2023.2.3,Win32,59.88023952,1,2,16,,,,,,,,3,12,,,,,,,,,,,1,2.937,0,,,,,,-0.401851852,-0.267592593,1,0,0,2.9368,Andesite_rect,15,0,15,0,1,
61155a7ed7bb8ba7da579301,TCN,2024-06-20_15h28.09.664,LearnStrategy,2023.2.3,Win32,59.88023952,2,1,1,0.031481481,-0.002777778,1,0,0,1.5911,rock_grid_rect_2,4,10,-1,-1,1.591,0.082407407,-0.265740797,1,0,0,5.7161,Diorite_rect,3,5.716,0,0,0,0,0,1,,,,,,,,,,,,,
61155a7ed7bb8ba7da579301,TCN,2024-06-20_15h28.09.664,LearnStrategy,2023.2.3,Win32,59.88023952,2,1,2,0.088888889,0.023148148,1,0,0,1.0618,rock_grid_rect_2,7,15,-1,-1,1.062,-0.118518462,-0.397222222,1,0,0,2.2429,Pegmatite_rect,6,2.243,0,1,0,1,0,1,,,,,,,,,,,,,
61155a7ed7bb8ba7da579301,TCN,2024-06-20_15h28.09.664,LearnStrategy,2023.2.3,Win32,59.88023952,2,1,3,0.075,-0.00462963,1,0,0,1.9783,rock_grid_rect_2,8,03,-1,-1,1.978,0.359259259,-0.388888889,1,0,0,1.8379,Pumice_rect,8,1.838,1,2,0,2,0,1,,,,,,,,,,,,,
61155a7ed7bb8ba7da579301,TCN,2024-06-20_15h28.09.664,LearnStrategy,2023.2.3,Win32,59.88023952,2,1,4,0.049074074,0.001851852,1,0,0,0.6477,rock_grid_rect_2,7,10,-1,-1,0.648,-0.088888889,-0.397222222,1,0,0,2.8759,Pegmatite_rect,6,2.876,0,3,0,3,0,1,,,,,,,,,,,,,
61155a7ed7bb8ba7da579301,TCN,2024-06-20_15h28.09.664,LearnStrategy,2023.2.3,Win32,59.88023952,2,1,5,0.008333333,-0.011111111,1,0,0,0.7771,rock_grid_rect_2,6,09,-1,-1,0.777,-0.101851852,-0.397222222,1,0,0,1.5933,Pegmatite_rect,6,1.593,1,4,0,4,0,1,,,,,,,,,,,,,
61155a7ed7bb8ba7da579301,TCN,2024-06-20_15h28.09.664,LearnStrategy,2023.2.3,Win32,59.88023952,2,1,6,0.025000057,-0.013888889,1,0,0,0.7961,rock_grid_rect_2,4,15,-1,-1,0.796,-0.317592593,-0.232407407,1,0,0,2.0009,Andesite_rect,1,2.001,0,5,0,5,0,1,,,,,,,,,,,,,
61155a7ed7bb8ba7da579301,TCN,2024-06-20_15h28.09.664,LearnStrategy,2023.2.3,Win32,59.88023952,2,1,7,0,-0.013888889,1,0,0,1.0284,rock_grid_rect_2,1,07,-1,-1,1.028,0.05,-0.247222279,1,0,0,1.6976,Diorite_rect,3,1.698,0,6,0,6,0,1,,,,,,,,,,,,,
61155a7ed7bb8ba7da579301,TCN,2024-06-20_15h28.09.664,LearnStrategy,2023.2.3,Win32,59.88023952,2,1,8,-0.009259259,-0.009259259,1,0,0,0.8152,rock_grid_rect_2,3,14,-1,-1,0.815,-0.362037037,-0.256481538,1,0,0,1.3473,Andesite_rect,1,1.347,0,7,0,7,0,1,,,,,,,,,,,,,
61155a7ed7bb8ba7da579301,TCN,2024-06-20_15h28.09.664,LearnStrategy,2023.2.3,Win32,59.88023952,2,1,9,0.087962963,-0.014814815,1,0,0,1.0212,rock_grid_rect_2,6,11,-1,-1,1.021,-0.347222222,-0.400925926,1,0,0,3.585,Obsidian_rect,5,3.585,0,8,0,8,0,1,,,,,,,,,,,,,
61155a7ed7bb8ba7da579301,TCN,2024-06-20_15h28.09.664,LearnStrategy,2023.2.3,Win32,59.88023952,2,1,10,0.025000057,-0.007407407,1,0,0,0.8891,rock_grid_rect_2,3,02,-1,-1,0.889,0.402777778,-0.243518519,1,0,0,2.1793,Gabbro_rect,4,2.179,0,9,0,9,0,1,,,,,,,,,,,,,
61155a7ed7bb8ba7da579301,TCN,2024-06-20_15h28.09.664,LearnStrategy,2023.2.3,Win32,59.88023952,2,1,11,-0.007407351,-0.007407407,1,0,0,0.9961,rock_grid_rect_2,2,11,-1,-1,0.996,-0.077777778,-0.242592649,1,0,0,2.2865,Basalt_rect,2,2.286,1,10,0,10,0,1,,,,,,,,,,,,,
61155a7ed7bb8ba7da579301,TCN,2024-06-20_15h28.09.664,LearnStrategy,2023.2.3,Win32,59.88023952,2,1,12,-0.01666661,-0.012962963,1,0,0,1.0788,rock_grid_rect_2,2,12,-1,-1,1.079,-0.107407407,-0.270370427,1,0,0,1.244,Basalt_rect,2,1.244,1,11,0,11,0,1,,,,,,,,,,,,,
61155a7ed7bb8ba7da579301,TCN,2024-06-20_15h28.09.664,LearnStrategy,2023.2.3,Win32,59.88023952,2,1,13,0.036111111,-0.006481481,1,0,0,0.766,rock_grid_rect_2,5,04,-1,-1,0.766,-0.352777778,-0.404629686,1,0,0,1.6949,Obsidian_rect,5,1.695,1,12,0,12,0,1,,,,,,,,,,,,,
61155a7ed7bb8ba7da579301,TCN,2024-06-20_15h28.09.664,LearnStrategy,2023.2.3,Win32,59.88023952,2,1,14,0.094444444,-0.012962963,1,0,0,0.7692,rock_grid_rect_2,1,06,-1,-1,0.769,-0.325925926,-0.237037037,1,0,0,5.6745,Andesite_rect,1,5.675,1,13,0,13,0,1,,,,,,,,,,,,,
61155a7ed7bb8ba7da579301,TCN,2024-06-20_15h28.09.664,LearnStrategy,2023.2.3,Win32,59.88023952,2,1,15,-0.010185185,0.006481481,1,0,0,0.9122,rock_grid_rect_2,8,05,-1,-1,0.912,0.348148148,-0.412962963,1,0,0,1.7074,Pumice_rect,8,1.707,1,14,0,14,0,1,,,,,,,,,,,,,
61155a7ed7bb8ba7da579301,TCN,2024-06-20_15h28.09.664,LearnStrategy,2023.2.3,Win32,59.88023952,2,1,16,0.056481481,0.003703704,1,0,0,1.1294,rock_grid_rect_2,5,06,-1,-1,1.129,-0.328703704,-0.400925926,1,0,0,1.9771,Obsidian_rect,5,1.977,1,15,0,15,0,1,,,,,,,,,,,,,
61155a7ed7bb8ba7da579301,TCN,2024-06-20_15h28.09.664,LearnStrategy,2023.2.3,Win32,59.88023952,2,2,1,,,,,,,,5,02,,,,,,,,,,,5,1.399,1,,,,,,-0.393518519,-0.411111111,1,0,0,1.3986,Obsidian_rect,0,0,0,0,1,
61155a7ed7bb8ba7da579301,TCN,2024-06-20_15h28.09.664,LearnStrategy,2023.2.3,Win32,59.88023952,2,2,2,,,,,,,,5,10,,,,,,,,,,,5,1.078,1,,,,,,-0.44351849,-0.389814815,1,0,0,1.0778,Obsidian_rect,1,0,1,0,1,
61155a7ed7bb8ba7da579301,TCN,2024-06-20_15h28.09.664,LearnStrategy,2023.2.3,Win32,59.88023952,2,2,3,,,,,,,,6,06,,,,,,,,,,,6,2.536,1,,,,,,-0.148148148,-0.413888945,1,0,0,2.5359,Pegmatite_rect,2,0,2,0,1,
61155a7ed7bb8ba7da579301,TCN,2024-06-20_15h28.09.664,LearnStrategy,2023.2.3,Win32,59.88023952,2,2,4,,,,,,,,4,16,,,,,,,,,,,2,3.841,0,,,,,,-0.161111111,-0.253703704,1,0,0,3.8414,Basalt_rect,3,0,3,0,1,
61155a7ed7bb8ba7da579301,TCN,2024-06-20_15h28.09.664,LearnStrategy,2023.2.3,Win32,59.88023952,2,2,5,,,,,,,,2,16,,,,,,,,,,,2,1.465,1,,,,,,-0.124074074,-0.22962963,1,0,0,1.4651,Basalt_rect,4,0,4,0,1,
61155a7ed7bb8ba7da579301,TCN,2024-06-20_15h28.09.664,LearnStrategy,2023.2.3,Win32,59.88023952,2,2,6,,,,,,,,7,05,,,,,,,,,,,7,2.542,1,,,,,,0.067592593,-0.415740741,1,0,0,2.5421,Peridotite_rect,5,0,5,0,1,
61155a7ed7bb8ba7da579301,TCN,2024-06-20_15h28.09.664,LearnStrategy,2023.2.3,Win32,59.88023952,2,2,7,,,,,,,,3,10,,,,,,,,,,,1,2.372,0,,,,,,-0.357407407,-0.234259259,1,0,0,2.3721,Andesite_rect,6,0,6,0,1,
61155a7ed7bb8ba7da579301,TCN,2024-06-20_15h28.09.664,LearnStrategy,2023.2.3,Win32,59.88023952,2,2,8,,,,,,,,8,13,,,,,,,,,,,8,4.817,1,,,,,,0.414814815,-0.413888945,1,0,0,4.8169,Pumice_rect,7,0,7,0,1,
61155a7ed7bb8ba7da579301,TCN,2024-06-20_15h28.09.664,LearnStrategy,2023.2.3,Win32,59.88023952,2,2,9,,,,,,,,7,07,,,,,,,,,,,7,3.929,1,,,,,,0.156481481,-0.393518519,1,0,0,3.9293,Peridotite_rect,8,0,8,0,1,
61155a7ed7bb8ba7da579301,TCN,2024-06-20_15h28.09.664,LearnStrategy,2023.2.3,Win32,59.88023952,2,2,10,,,,,,,,3,13,,,,,,,,,,,1,6.841,0,,,,,,-0.32037037,-0.258333333,1,0,0,6.8413,Andesite_rect,9,0,9,0,1,
61155a7ed7bb8ba7da579301,TCN,2024-06-20_15h28.09.664,LearnStrategy,2023.2.3,Win32,59.88023952,2,2,11,,,,,,,,4,08,,,,,,,,,,,4,8.698,1,,,,,,0.357407407,-0.268518519,1,0,0,8.6983,Gabbro_rect,10,0,10,0,1,
61155a7ed7bb8ba7da579301,TCN,2024-06-20_15h28.09.664,LearnStrategy,2023.2.3,Win32,59.88023952,2,2,12,,,,,,,,1,11,,,,,,,,,,,3,2.998,0,,,,,,0.125925926,-0.25,1,0,0,2.9985,Diorite_rect,11,0,11,0,1,
61155a7ed7bb8ba7da579301,TCN,2024-06-20_15h28.09.664,LearnStrategy,2023.2.3,Win32,59.88023952,2,2,13,,,,,,,,1,03,,,,,,,,,,,3,2.951,0,,,,,,0.121296296,-0.23333339,1,0,0,2.9509,Diorite_rect,12,0,12,0,1,
61155a7ed7bb8ba7da579301,TCN,2024-06-20_15h28.09.664,LearnStrategy,2023.2.3,Win32,59.88023952,2,2,14,,,,,,,,8,09,,,,,,,,,,,8,1.804,1,,,,,,0.35,-0.385185185,1,0,0,1.8043,Pumice_rect,13,0,13,0,1,
61155a7ed7bb8ba7da579301,TCN,2024-06-20_15h28.09.664,LearnStrategy,2023.2.3,Win32,59.88023952,2,2,15,,,,,,,,2,05,,,,,,,,,,,2,1.126,1,,,,,,-0.048148148,-0.231481481,1,0,0,1.1262,Basalt_rect,14,0,14,0,1,
61155a7ed7bb8ba7da579301,TCN,2024-06-20_15h28.09.664,LearnStrategy,2023.2.3,Win32,59.88023952,2,2,16,,,,,,,,6,13,,,,,,,,,,,6,1.605,1,,,,,,-0.162962963,-0.407407407,1,0,0,1.6047,Pegmatite_rect,15,0,15,0,1,
61155a7ed7bb8ba7da579301,TCN,2024-06-20_15h28.09.664,LearnStrategy,2023.2.3,Win32,59.88023952,3,1,1,-0.014814815,-0.014814815,1,0,0,1.3462,rock_grid_rect_2,4,11,-1,-1,1.346,-0.087037037,-0.241666667,1,0,0,3.0848,Basalt_rect,2,3.085,0,0,0,0,0,1,,,,,,,,,,,,,
61155a7ed7bb8ba7da579301,TCN,2024-06-20_15h28.09.664,LearnStrategy,2023.2.3,Win32,59.88023952,3,1,2,0.074074074,-0.008333333,1,0,0,0.8861,rock_grid_rect_2,5,09,-1,-1,0.886,-0.351851852,-0.398148148,1,0,0,1.2922,Obsidian_rect,5,1.292,1,1,0,1,0,1,,,,,,,,,,,,,
61155a7ed7bb8ba7da579301,TCN,2024-06-20_15h28.09.664,LearnStrategy,2023.2.3,Win32,59.88023952,3,1,3,-0.011111111,-0.006481481,1,0,0,0.9484,rock_grid_rect_2,3,15,-1,-1,0.948,0.153703704,-0.234259259,1,0,0,3.8324,Diorite_rect,3,3.832,1,2,0,2,0,1,,,,,,,,,,,,,
61155a7ed7bb8ba7da579301,TCN,2024-06-20_15h28.09.664,LearnStrategy,2023.2.3,Win32,59.88023952,3,1,4,-0.006481481,-0.012037037,1,0,0,1.3617,rock_grid_rect_2,7,14,-1,-1,1.362,0.424074074,-0.251851908,1,0,0,4.4422,Gabbro_rect,4,4.442,0,3,0,3,0,1,,,,,,,,,,,,,
61155a7ed7bb8ba7da579301,TCN,2024-06-20_15h28.09.664,LearnStrategy,2023.2.3,Win32,59.88023952,3,1,5,0.044444444,-0.00462963,1,0,0,1.0082,rock_grid_rect_2,4,12,-1,-1,1.008,-0.100925926,-0.24537037,1,0,0,3.9762,Basalt_rect,2,3.976,0,4,0,4,0,1,,,,,,,,,,,,,
61155a7ed7bb8ba7da579301,TCN,2024-06-20_15h28.09.664,LearnStrategy,2023.2.3,Win32,59.88023952,3,1,6,0.042592593,-0.007407407,1,0,0,0.925,rock_grid_rect_2,8,16,-1,-1,0.925,0.396296296,-0.407407407,1,0,0,1.9595,Pumice_rect,8,1.959,1,5,0,5,0,1,,,,,,,,,,,,,
61155a7ed7bb8ba7da579301,TCN,2024-06-20_15h28.09.664,LearnStrategy,2023.2.3,Win32,59.88023952,3,1,7,0.099074074,0.003703704,1,0,0,0.8654,rock_grid_rect_2,5,08,-1,-1,0.865,-0.410185185,-0.412962963,1,0,0,1.0988,Obsidian_rect,5,1.099,1,6,0,6,0,1,,,,,,,,,,,,,
61155a7ed7bb8ba7da579301,TCN,2024-06-20_15h28.09.664,LearnStrategy,2023.2.3,Win32,59.88023952,3,1,8,-0.008333333,0.006481481,1,0,0,1.0314,rock_grid_rect_2,1,10,-1,-1,1.031,-0.14166661,-0.251851908,1,0,0,2.5595,Basalt_rect,2,2.56,0,7,0,7,0,1,,,,,,,,,,,,,
61155a7ed7bb8ba7da579301,TCN,2024-06-20_15h28.09.664,LearnStrategy,2023.2.3,Win32,59.88023952,3,1,9,0.024074074,0.005555556,1,0,0,0.9255,rock_grid_rect_2,6,08,-1,-1,0.925,-0.117592593,-0.410185185,1,0,0,1.5828,Pegmatite_rect,6,1.583,1,8,0,8,0,1,,,,,,,,,,,,,
61155a7ed7bb8ba7da579301,TCN,2024-06-20_15h28.09.664,LearnStrategy,2023.2.3,Win32,59.88023952,3,1,10,0.049074074,0.001851852,1,0,0,1.5731,rock_grid_rect_2,1,09,-1,-1,1.573,-0.090740684,-0.232407407,1,0,0,2.1696,Basalt_rect,2,2.17,0,9,0,9,0,1,,,,,,,,,,,,,
61155a7ed7bb8ba7da579301,TCN,2024-06-20_15h28.09.664,LearnStrategy,2023.2.3,Win32,59.88023952,3,1,11,0.030555556,0.012037037,1,0,0,0.9895,rock_grid_rect_2,6,07,-1,-1,0.99,-0.126851852,-0.390740797,1,0,0,1.6093,Pegmatite_rect,6,1.609,1,10,0,10,0,1,,,,,,,,,,,,,
61155a7ed7bb8ba7da579301,TCN,2024-06-20_15h28.09.664,LearnStrategy,2023.2.3,Win32,59.88023952,3,1,12,0.05,-0.011111111,1,0,0,0.7234,rock_grid_rect_2,8,15,-1,-1,0.723,0.35462963,-0.406481481,1,0,0,1.3963,Pumice_rect,8,1.396,1,11,0,11,0,1,,,,,,,,,,,,,
61155a7ed7bb8ba7da579301,TCN,2024-06-20_15h28.09.664,LearnStrategy,2023.2.3,Win32,59.88023952,3,1,13,0.062962963,0.012037037,1,0,0,0.6634,rock_grid_rect_2,3,06,-1,-1,0.663,-0.325,-0.235185185,1,0,0,1.7961,Andesite_rect,1,1.796,0,12,0,12,0,1,,,,,,,,,,,,,
61155a7ed7bb8ba7da579301,TCN,2024-06-20_15h28.09.664,LearnStrategy,2023.2.3,Win32,59.88023952,3,1,14,0.059259259,-0.005555556,1,0,0,0.9398,rock_grid_rect_2,7,06,-1,-1,0.94,-0.078703704,-0.395370427,1,0,0,1.5109,Pegmatite_rect,6,1.511,0,13,0,13,0,1,,,,,,,,,,,,,
61155a7ed7bb8ba7da579301,TCN,2024-06-20_15h28.09.664,LearnStrategy,2023.2.3,Win32,59.88023952,3,1,15,0.011111168,-0.012037037,1,0,0,0.9863,rock_grid_rect_2,2,01,-1,-1,0.986,-0.092592593,-0.266666667,1,0,0,1.2326,Basalt_rect,2,1.233,1,14,0,14,0,1,,,,,,,,,,,,,
61155a7ed7bb8ba7da579301,TCN,2024-06-20_15h28.09.664,LearnStrategy,2023.2.3,Win32,59.88023952,3,1,16,0.002777778,-0.007407407,1,0,0,0.9618,rock_grid_rect_2,2,10,-1,-1,0.962,-0.099999943,-0.258333333,1,0,0,1.5077,Basalt_rect,2,1.508,1,15,0,15,0,1,,,,,,,,,,,,,
61155a7ed7bb8ba7da579301,TCN,2024-06-20_15h28.09.664,LearnStrategy,2023.2.3,Win32,59.88023952,3,2,1,,,,,,,,6,16,,,,,,,,,,,6,1.814,1,,,,,,-0.101851852,-0.404629686,1,0,0,1.8137,Pegmatite_rect,0,0,0,0,1,
61155a7ed7bb8ba7da579301,TCN,2024-06-20_15h28.09.664,LearnStrategy,2023.2.3,Win32,59.88023952,3,2,2,,,,,,,,2,09,,,,,,,,,,,2,1.034,1,,,,,,-0.077777778,-0.232407407,1,0,0,1.0336,Basalt_rect,1,0,1,0,1,
61155a7ed7bb8ba7da579301,TCN,2024-06-20_15h28.09.664,LearnStrategy,2023.2.3,Win32,59.88023952,3,2,3,,,,,,,,4,14,,,,,,,,,,,4,3.765,1,,,,,,0.374074187,-0.232407407,1,0,0,3.7647,Gabbro_rect,2,0,2,0,1,
61155a7ed7bb8ba7da579301,TCN,2024-06-20_15h28.09.664,LearnStrategy,2023.2.3,Win32,59.88023952,3,2,4,,,,,,,,2,08,,,,,,,,,,,2,1.486,1,,,,,,-0.062037037,-0.237963019,1,0,0,1.4858,Basalt_rect,3,0,3,0,1,
61155a7ed7bb8ba7da579301,TCN,2024-06-20_15h28.09.664,LearnStrategy,2023.2.3,Win32,59.88023952,3,2,5,,,,,,,,4,03,,,,,,,,,,,4,6.43,1,,,,,,0.33240752,-0.252777778,1,0,0,6.4298,Gabbro_rect,4,0,4,0,1,
61155a7ed7bb8ba7da579301,TCN,2024-06-20_15h28.09.664,LearnStrategy,2023.2.3,Win32,59.88023952,3,2,6,,,,,,,,8,02,,,,,,,,,,,8,1.559,1,,,,,,0.360185298,-0.396296296,1,0,0,1.5595,Pumice_rect,5,0,5,0,1,
61155a7ed7bb8ba7da579301,TCN,2024-06-20_15h28.09.664,LearnStrategy,2023.2.3,Win32,59.88023952,3,2,7,,,,,,,,5,12,,,,,,,,,,,5,1.536,1,,,,,,-0.335185185,-0.382407407,1,0,0,1.5358,Obsidian_rect,6,0,6,0,1,
61155a7ed7bb8ba7da579301,TCN,2024-06-20_15h28.09.664,LearnStrategy,2023.2.3,Win32,59.88023952,3,2,8,,,,,,,,3,07,,,,,,,,,,,6,2.925,0,,,,,,-0.207407407,-0.395370427,1,0,0,2.9251,Pegmatite_rect,7,0,7,0,1,
61155a7ed7bb8ba7da579301,TCN,2024-06-20_15h28.09.664,LearnStrategy,2023.2.3,Win32,59.88023952,3,2,9,,,,,,,,8,06,,,,,,,,,,,8,1.759,1,,,,,,0.423148148,-0.413888945,1,0,0,1.7587,Pumice_rect,8,0,8,0,1,
61155a7ed7bb8ba7da579301,TCN,2024-06-20_15h28.09.664,LearnStrategy,2023.2.3,Win32,59.88023952,3,2,10,,,,,,,,5,07,,,,,,,,,,,5,2.041,1,,,,,,-0.346296296,-0.37962963,1,0,0,2.041,Obsidian_rect,9,0,9,0,1,
61155a7ed7bb8ba7da579301,TCN,2024-06-20_15h28.09.664,LearnStrategy,2023.2.3,Win32,59.88023952,3,2,11,,,,,,,,6,12,,,,,,,,,,,6,1.409,1,,,,,,-0.113888832,-0.387037037,1,0,0,1.4086,Pegmatite_rect,10,0,10,0,1,
61155a7ed7bb8ba7da579301,TCN,2024-06-20_15h28.09.664,LearnStrategy,2023.2.3,Win32,59.88023952,3,2,12,,,,,,,,3,08,,,,,,,,,,,7,3.542,0,,,,,,0.115740741,-0.391666667,1,0,0,3.542,Peridotite_rect,11,0,11,0,1,
61155a7ed7bb8ba7da579301,TCN,2024-06-20_15h28.09.664,LearnStrategy,2023.2.3,Win32,59.88023952,3,2,13,,,,,,,,7,08,,,,,,,,,,,7,1.167,1,,,,,,0.085185185,-0.414814815,1,0,0,1.1665,Peridotite_rect,12,0,12,0,1,
61155a7ed7bb8ba7da579301,TCN,2024-06-20_15h28.09.664,LearnStrategy,2023.2.3,Win32,59.88023952,3,2,14,,,,,,,,1,14,,,,,,,,,,,1,2.867,1,,,,,,-0.365740741,-0.242592649,1,0,0,2.867,Andesite_rect,13,0,13,0,1,
61155a7ed7bb8ba7da579301,TCN,2024-06-20_15h28.09.664,LearnStrategy,2023.2.3,Win32,59.88023952,3,2,15,,,,,,,,7,12,,,,,,,,,,,7,1.45,1,,,,,,0.097222222,-0.394444444,1,0,0,1.4503,Peridotite_rect,14,0,14,0,1,
61155a7ed7bb8ba7da579301,TCN,2024-06-20_15h28.09.664,LearnStrategy,2023.2.3,Win32,59.88023952,3,2,16,,,,,,,,1,02,,,,,,,,,,,6,1.571,0,,,,,,-0.062037037,-0.404629686,1,0,0,1.5714,Pegmatite_rect,15,0,15,0,1,
61155a7ed7bb8ba7da579301,TCN,2024-06-20_15h28.09.664,LearnStrategy,2023.2.3,Win32,59.88023952,4,1,1,0.009259259,0.000925926,1,0,0,1.7644,rock_grid_rect_2,4,12,-1,-1,1.764,0.371296296,-0.248148148,1,0,0,2.173,Gabbro_rect,4,2.173,1,0,0,0,0,1,,,,,,,,,,,,,
61155a7ed7bb8ba7da579301,TCN,2024-06-20_15h28.09.664,LearnStrategy,2023.2.3,Win32,59.88023952,4,1,2,0.058333333,-0.013888889,1,0,0,0.9453,rock_grid_rect_2,2,10,-1,-1,0.945,-0.084259259,-0.235185185,1,0,0,1.3596,Basalt_rect,2,1.36,1,1,0,1,0,1,,,,,,,,,,,,,
61155a7ed7bb8ba7da579301,TCN,2024-06-20_15h28.09.664,LearnStrategy,2023.2.3,Win32,59.88023952,4,1,3,-0.007407351,-0.015740741,1,0,0,0.8959,rock_grid_rect_2,3,09,-1,-1,0.896,-0.363888889,-0.237963019,1,0,0,2.8753,Andesite_rect,1,2.875,0,2,0,2,0,1,,,,,,,,,,,,,
61155a7ed7bb8ba7da579301,TCN,2024-06-20_15h28.09.664,LearnStrategy,2023.2.3,Win32,59.88023952,4,1,4,0.037037037,-0.023148148,1,0,0,0.935,rock_grid_rect_2,5,05,-1,-1,0.935,-0.34537037,-0.388888889,1,0,0,1.4085,Obsidian_rect,5,1.409,1,3,0,3,0,1,,,,,,,,,,,,,
61155a7ed7bb8ba7da579301,TCN,2024-06-20_15h28.09.664,LearnStrategy,2023.2.3,Win32,59.88023952,4,1,5,0.05462963,-0.007407407,1,0,0,0.9314,rock_grid_rect_2,6,11,-1,-1,0.931,-0.164814758,-0.400925926,1,0,0,1.2055,Pegmatite_rect,6,1.206,1,4,0,4,0,1,,,,,,,,,,,,,
61155a7ed7bb8ba7da579301,TCN,2024-06-20_15h28.09.664,LearnStrategy,2023.2.3,Win32,59.88023952,4,1,6,0.035185185,0,1,0,0,0.6799,rock_grid_rect_2,7,06,-1,-1,0.68,0.112962963,-0.415740741,1,0,0,1.063,Peridotite_rect,7,1.063,1,5,0,5,0,1,,,,,,,,,,,,,
61155a7ed7bb8ba7da579301,TCN,2024-06-20_15h28.09.664,LearnStrategy,2023.2.3,Win32,59.88023952,4,1,7,0.035185185,0.002777778,1,0,0,0.781,rock_grid_rect_2,7,16,-1,-1,0.781,0.092592593,-0.387037037,1,0,0,1.2396,Peridotite_rect,7,1.24,1,6,0,6,0,1,,,,,,,,,,,,,
61155a7ed7bb8ba7da579301,TCN,2024-06-20_15h28.09.664,LearnStrategy,2023.2.3,Win32,59.88023952,4,1,8,0.077777778,0.007407407,1,0,0,0.9611,rock_grid_rect_2,3,15,-1,-1,0.961,0.085185185,-0.24537037,1,0,0,2.5409,Diorite_rect,3,2.541,1,7,0,7,0,1,,,,,,,,,,,,,
61155a7ed7bb8ba7da579301,TCN,2024-06-20_15h28.09.664,LearnStrategy,2023.2.3,Win32,59.88023952,4,1,9,-0.022222222,-0.008333333,1,0,0,0.9768,rock_grid_rect_2,1,07,-1,-1,0.977,-0.331481481,-0.235185185,1,0,0,1.7769,Andesite_rect,1,1.777,1,8,0,8,0,1,,,,,,,,,,,,,
61155a7ed7bb8ba7da579301,TCN,2024-06-20_15h28.09.664,LearnStrategy,2023.2.3,Win32,59.88023952,4,1,10,0.102777778,-0.021296296,1,0,0,0.7631,rock_grid_rect_2,5,04,-1,-1,0.763,-0.324074074,-0.388888889,1,0,0,1.1184,Obsidian_rect,5,1.118,1,9,0,9,0,1,,,,,,,,,,,,,
61155a7ed7bb8ba7da579301,TCN,2024-06-20_15h28.09.664,LearnStrategy,2023.2.3,Win32,59.88023952,4,1,11,0.087962963,0.006481481,1,0,0,0.7788,rock_grid_rect_2,8,16,-1,-1,0.779,0.361111111,-0.395370427,1,0,0,1.3774,Pumice_rect,8,1.377,1,10,0,10,0,1,,,,,,,,,,,,,
61155a7ed7bb8ba7da579301,TCN,2024-06-20_15h28.09.664,LearnStrategy,2023.2.3,Win32,59.88023952,4,1,12,-0.026851852,0.002777778,1,0,0,1.0348,rock_grid_rect_2,1,06,-1,-1,1.035,0.336111111,-0.268518519,1,0,0,9.0913,Gabbro_rect,4,9.091,0,11,0,11,0,1,,,,,,,,,,,,,
61155a7ed7bb8ba7da579301,TCN,2024-06-20_15h28.09.664,LearnStrategy,2023.2.3,Win32,59.88023952,4,1,13,-0.012036981,-0.00462963,1,0,0,0.7749,rock_grid_rect_2,2,12,-1,-1,0.775,0.343518519,-0.380555556,1,0,0,1.61,Pumice_rect,8,1.61,0,12,0,12,0,1,,,,,,,,,,,,,
61155a7ed7bb8ba7da579301,TCN,2024-06-20_15h28.09.664,LearnStrategy,2023.2.3,Win32,59.88023952,4,1,14,0.017592593,-0.002777778,1,0,0,0.8652,rock_grid_rect_2,6,07,-1,-1,0.865,-0.160185129,-0.417592593,1,0,0,1.3584,Pegmatite_rect,6,1.358,1,13,0,13,0,1,,,,,,,,,,,,,
61155a7ed7bb8ba7da579301,TCN,2024-06-20_15h28.09.664,LearnStrategy,2023.2.3,Win32,59.88023952,4,1,15,0.047222222,0.007407407,1,0,0,0.7816,rock_grid_rect_2,4,11,-1,-1,0.782,-0.075,-0.258333333,1,0,0,0.9936,Basalt_rect,2,0.994,0,14,0,14,0,1,,,,,,,,,,,,,
61155a7ed7bb8ba7da579301,TCN,2024-06-20_15h28.09.664,LearnStrategy,2023.2.3,Win32,59.88023952,4,1,16,0.078703704,-0.011111111,1,0,0,0.7245,rock_grid_rect_2,8,05,-1,-1,0.725,0.361111111,-0.395370427,1,0,0,1.2161,Pumice_rect,8,1.216,1,15,0,15,0,1,,,,,,,,,,,,,
61155a7ed7bb8ba7da579301,TCN,2024-06-20_15h28.09.664,LearnStrategy,2023.2.3,Win32,59.88023952,4,2,1,,,,,,,,1,05,,,,,,,,,,,1,5.098,1,,,,,,-0.328703704,-0.253703704,1,0,0,5.0978,Andesite_rect,0,0,0,0,1,
61155a7ed7bb8ba7da579301,TCN,2024-06-20_15h28.09.664,LearnStrategy,2023.2.3,Win32,59.88023952,4,2,2,,,,,,,,6,06,,,,,,,,,,,6,1.52,1,,,,,,-0.163888889,-0.404629686,1,0,0,1.5197,Pegmatite_rect,1,0,1,0,1,
61155a7ed7bb8ba7da579301,TCN,2024-06-20_15h28.09.664,LearnStrategy,2023.2.3,Win32,59.88023952,4,2,3,,,,,,,,8,06,,,,,,,,,,,8,2.584,1,,,,,,0.369444557,-0.398148148,1,0,0,2.5838,Pumice_rect,2,0,2,0,1,
61155a7ed7bb8ba7da579301,TCN,2024-06-20_15h28.09.664,LearnStrategy,2023.2.3,Win32,59.88023952,4,2,4,,,,,,,,6,10,,,,,,,,,,,6,2.91,1,,,,,,-0.07962963,-0.387037037,1,0,0,2.9096,Pegmatite_rect,3,0,3,0,1,
61155a7ed7bb8ba7da579301,TCN,2024-06-20_15h28.09.664,LearnStrategy,2023.2.3,Win32,59.88023952,4,2,5,,,,,,,,7,12,,,,,,,,,,,7,1.308,1,,,,,,0.072222222,-0.398148148,1,0,0,1.3076,Peridotite_rect,4,0,4,0,1,
61155a7ed7bb8ba7da579301,TCN,2024-06-20_15h28.09.664,LearnStrategy,2023.2.3,Win32,59.88023952,4,2,6,,,,,,,,1,16,,,,,,,,,,,3,6.045,0,,,,,,0.140740741,-0.247222279,1,0,0,6.0449,Diorite_rect,5,0,5,0,1,
61155a7ed7bb8ba7da579301,TCN,2024-06-20_15h28.09.664,LearnStrategy,2023.2.3,Win32,59.88023952,4,2,7,,,,,,,,5,07,,,,,,,,,,,5,1.188,1,,,,,,-0.399074074,-0.408333333,1,0,0,1.1881,Obsidian_rect,6,0,6,0,1,
61155a7ed7bb8ba7da579301,TCN,2024-06-20_15h28.09.664,LearnStrategy,2023.2.3,Win32,59.88023952,4,2,8,,,,,,,,8,09,,,,,,,,,,,8,1.394,1,,,,,,0.387963076,-0.397222222,1,0,0,1.3938,Pumice_rect,7,0,7,0,1,
61155a7ed7bb8ba7da579301,TCN,2024-06-20_15h28.09.664,LearnStrategy,2023.2.3,Win32,59.88023952,4,2,9,,,,,,,,2,08,,,,,,,,,,,2,1.271,1,,,,,,-0.131481481,-0.260185185,1,0,0,1.2712,Basalt_rect,8,0,8,0,1,
61155a7ed7bb8ba7da579301,TCN,2024-06-20_15h28.09.664,LearnStrategy,2023.2.3,Win32,59.88023952,4,2,10,,,,,,,,2,06,,,,,,,,,,,2,1.306,1,,,,,,-0.106481481,-0.25462963,1,0,0,1.306,Basalt_rect,9,0,9,0,1,
61155a7ed7bb8ba7da579301,TCN,2024-06-20_15h28.09.664,LearnStrategy,2023.2.3,Win32,59.88023952,4,2,11,,,,,,,,7,08,,,,,,,,,,,7,1.6,1,,,,,,0.097222222,-0.401851852,1,0,0,1.5999,Peridotite_rect,10,0,10,0,1,
61155a7ed7bb8ba7da579301,TCN,2024-06-20_15h28.09.664,LearnStrategy,2023.2.3,Win32,59.88023952,4,2,12,,,,,,,,4,14,,,,,,,,,,,4,2.923,1,,,,,,0.383333446,-0.262962963,1,0,0,2.9227,Gabbro_rect,11,0,11,0,1,
61155a7ed7bb8ba7da579301,TCN,2024-06-20_15h28.09.664,LearnStrategy,2023.2.3,Win32,59.88023952,4,2,13,,,,,,,,5,14,,,,,,,,,,,5,1.293,1,,,,,,-0.375,-0.400925926,1,0,0,1.2929,Obsidian_rect,12,0,12,0,1,
61155a7ed7bb8ba7da579301,TCN,2024-06-20_15h28.09.664,LearnStrategy,2023.2.3,Win32,59.88023952,4,2,14,,,,,,,,3,08,,,,,,,,,,,1,2.707,0,,,,,,-0.330555556,-0.239814815,1,0,0,2.7071,Andesite_rect,13,0,13,0,1,
61155a7ed7bb8ba7da579301,TCN,2024-06-20_15h28.09.664,LearnStrategy,2023.2.3,Win32,59.88023952,4,2,15,,,,,,,,4,03,,,,,,,,,,,4,3.431,1,,,,,,0.357407407,-0.252777778,1,0,0,3.431,Gabbro_rect,14,0,14,0,1,
61155a7ed7bb8ba7da579301,TCN,2024-06-20_15h28.09.664,LearnStrategy,2023.2.3,Win32,59.88023952,4,2,16,,,,,,,,3,10,,,,,,,,,,,3,6.616,1,,,,,,0.14537037,-0.25,1,0,0,6.616,Diorite_rect,15,0,15,0,1,
61155a7ed7bb8ba7da579301,TCN,2024-06-20_15h28.09.664,LearnStrategy,2023.2.3,Win32,59.88023952,5,1,1,0.040740741,0.003703704,1,0,0,1.3792,rock_grid_rect_2,4,09,-1,-1,1.379,0.422222222,-0.243518519,1,0,0,3.6761,Gabbro_rect,4,3.676,1,0,0,0,0,1,,,,,,,,,,,,,
61155a7ed7bb8ba7da579301,TCN,2024-06-20_15h28.09.664,LearnStrategy,2023.2.3,Win32,59.88023952,5,1,2,0.072222222,-0.001851852,1,0,0,0.829,rock_grid_rect_2,3,06,-1,-1,0.829,0.090740741,-0.243518519,1,0,0,2.1768,Diorite_rect,3,2.177,1,1,0,1,0,1,,,,,,,,,,,,,
61155a7ed7bb8ba7da579301,TCN,2024-06-20_15h28.09.664,LearnStrategy,2023.2.3,Win32,59.88023952,5,1,3,-0.024074074,-0.018518519,1,0,0,0.9268,rock_grid_rect_2,4,15,-1,-1,0.927,-0.326851852,-0.230555556,1,0,0,2.2264,Andesite_rect,1,2.226,0,2,0,2,0,1,,,,,,,,,,,,,
61155a7ed7bb8ba7da579301,TCN,2024-06-20_15h28.09.664,LearnStrategy,2023.2.3,Win32,59.88023952,5,1,4,0.130555556,-0.016666667,1,0,0,1.0428,rock_grid_rect_2,6,03,-1,-1,1.043,-0.071296296,-0.393518519,1,0,0,1.6984,Pegmatite_rect,6,1.698,1,3,0,3,0,1,,,,,,,,,,,,,
61155a7ed7bb8ba7da579301,TCN,2024-06-20_15h28.09.664,LearnStrategy,2023.2.3,Win32,59.88023952,5,1,5,0.075,0.003703704,1,0,0,0.7274,rock_grid_rect_2,1,09,-1,-1,0.727,0.373148148,-0.263888889,1,0,0,4.2215,Gabbro_rect,4,4.221,0,4,0,4,0,1,,,,,,,,,,,,,
61155a7ed7bb8ba7da579301,TCN,2024-06-20_15h28.09.664,LearnStrategy,2023.2.3,Win32,59.88023952,5,1,6,-0.028703704,0.00462963,1,0,0,1.0432,rock_grid_rect_2,5,09,-1,-1,1.043,-0.352777778,-0.402777778,1,0,0,1.8767,Obsidian_rect,5,1.877,1,5,0,5,0,1,,,,,,,,,,,,,
61155a7ed7bb8ba7da579301,TCN,2024-06-20_15h28.09.664,LearnStrategy,2023.2.3,Win32,59.88023952,5,1,7,0.005555556,-0.011111111,1,0,0,1.6453,rock_grid_rect_2,2,01,-1,-1,1.645,-0.119444444,-0.253703704,1,0,0,1.5365,Basalt_rect,2,1.537,1,6,0,6,0,1,,,,,,,,,,,,,
61155a7ed7bb8ba7da579301,TCN,2024-06-20_15h28.09.664,LearnStrategy,2023.2.3,Win32,59.88023952,5,1,8,0.075,0.018518519,1,0,0,0.8479,rock_grid_rect_2,1,04,-1,-1,0.848,0.111111111,-0.256481538,1,0,0,2.0357,Diorite_rect,3,2.036,0,7,0,7,0,1,,,,,,,,,,,,,
61155a7ed7bb8ba7da579301,TCN,2024-06-20_15h28.09.664,LearnStrategy,2023.2.3,Win32,59.88023952,5,1,9,0.027777778,-0.011111111,1,0,0,0.748,rock_grid_rect_2,5,08,-1,-1,0.748,-0.366666667,-0.383333333,1,0,0,1.1589,Obsidian_rect,5,1.159,1,8,0,8,0,1,,,,,,,,,,,,,
61155a7ed7bb8ba7da579301,TCN,2024-06-20_15h28.09.664,LearnStrategy,2023.2.3,Win32,59.88023952,5,1,10,0.020370427,-0.010185185,1,0,0,0.8639,rock_grid_rect_2,2,02,-1,-1,0.864,-0.084259259,-0.237963019,1,0,0,1.3227,Basalt_rect,2,1.323,1,9,0,9,0,1,,,,,,,,,,,,,
61155a7ed7bb8ba7da579301,TCN,2024-06-20_15h28.09.664,LearnStrategy,2023.2.3,Win32,59.88023952,5,1,11,0.002777778,-0.015740741,1,0,0,0.9466,rock_grid_rect_2,6,09,-1,-1,0.947,-0.076851795,-0.412037037,1,0,0,1.8756,Pegmatite_rect,6,1.876,1,10,0,10,0,1,,,,,,,,,,,,,
61155a7ed7bb8ba7da579301,TCN,2024-06-20_15h28.09.664,LearnStrategy,2023.2.3,Win32,59.88023952,5,1,12,0.04537037,0.000925926,1,0,0,0.7306,rock_grid_rect_2,8,04,-1,-1,0.731,0.346296409,-0.380555556,1,0,0,1.3179,Pumice_rect,8,1.318,1,11,0,11,0,1,,,,,,,,,,,,,
61155a7ed7bb8ba7da579301,TCN,2024-06-20_15h28.09.664,LearnStrategy,2023.2.3,Win32,59.88023952,5,1,13,0.037962963,-0.013888889,1,0,0,0.6978,rock_grid_rect_2,8,15,-1,-1,0.698,0.362037037,-0.401851852,1,0,0,1.3986,Pumice_rect,8,1.399,1,12,0,12,0,1,,,,,,,,,,,,,
61155a7ed7bb8ba7da579301,TCN,2024-06-20_15h28.09.664,LearnStrategy,2023.2.3,Win32,59.88023952,5,1,14,-0.047222222,0.007407407,1,0,0,0.7235,rock_grid_rect_2,3,11,-1,-1,0.723,0.085185185,-0.234259259,1,0,0,4.8483,Diorite_rect,3,4.848,1,13,0,13,0,1,,,,,,,,,,,,,
61155a7ed7bb8ba7da579301,TCN,2024-06-20_15h28.09.664,LearnStrategy,2023.2.3,Win32,59.88023952,5,1,15,-0.032407407,0.001851852,1,0,0,0.9808,rock_grid_rect_2,7,14,-1,-1,0.981,0.048148205,-0.24537037,1,0,0,2.642,Diorite_rect,3,2.642,0,14,0,14,0,1,,,,,,,,,,,,,
61155a7ed7bb8ba7da579301,TCN,2024-06-20_15h28.09.664,LearnStrategy,2023.2.3,Win32,59.88023952,5,1,16,0.001851908,-0.006481481,1,0,0,0.9212,rock_grid_rect_2,7,04,-1,-1,0.921,0.087037037,-0.405555556,1,0,0,1.4961,Peridotite_rect,7,1.496,1,15,0,15,0,1,,,,,,,,,,,,,
61155a7ed7bb8ba7da579301,TCN,2024-06-20_15h28.09.664,LearnStrategy,2023.2.3,Win32,59.88023952,5,2,1,,,,,,,,7,13,,,,,,,,,,,7,1.237,1,,,,,,0.122222222,-0.398148148,1,0,0,1.2374,Peridotite_rect,0,0,0,0,1,
61155a7ed7bb8ba7da579301,TCN,2024-06-20_15h28.09.664,LearnStrategy,2023.2.3,Win32,59.88023952,5,2,2,,,,,,,,6,12,,,,,,,,,,,1,3.77,0,,,,,,-0.348148148,-0.239814815,1,0,0,3.7704,Andesite_rect,1,0,1,0,1,
61155a7ed7bb8ba7da579301,TCN,2024-06-20_15h28.09.664,LearnStrategy,2023.2.3,Win32,59.88023952,5,2,3,,,,,,,,8,10,,,,,,,,,,,8,1.561,1,,,,,,0.412037037,-0.414814815,1,0,0,1.5609,Pumice_rect,2,0,2,0,1,
61155a7ed7bb8ba7da579301,TCN,2024-06-20_15h28.09.664,LearnStrategy,2023.2.3,Win32,59.88023952,5,2,4,,,,,,,,3,12,,,,,,,,,,,3,1.784,1,,,,,,0.07037037,-0.251851908,1,0,0,1.7845,Diorite_rect,3,0,3,0,1,
61155a7ed7bb8ba7da579301,TCN,2024-06-20_15h28.09.664,LearnStrategy,2023.2.3,Win32,59.88023952,5,2,5,,,,,,,,7,07,,,,,,,,,,,7,1.752,1,,,,,,0.091666667,-0.412037037,1,0,0,1.7519,Peridotite_rect,4,0,4,0,1,
61155a7ed7bb8ba7da579301,TCN,2024-06-20_15h28.09.664,LearnStrategy,2023.2.3,Win32,59.88023952,5,2,6,,,,,,,,5,10,,,,,,,,,,,5,1.824,1,,,,,,-0.334259259,-0.380555556,1,0,0,1.8244,Obsidian_rect,5,0,5,0,1,
61155a7ed7bb8ba7da579301,TCN,2024-06-20_15h28.09.664,LearnStrategy,2023.2.3,Win32,59.88023952,5,2,7,,,,,,,,5,12,,,,,,,,,,,5,1.055,1,,,,,,-0.423148148,-0.383333333,1,0,0,1.0548,Obsidian_rect,6,0,6,0,1,
61155a7ed7bb8ba7da579301,TCN,2024-06-20_15h28.09.664,LearnStrategy,2023.2.3,Win32,59.88023952,5,2,8,,,,,,,,1,02,,,,,,,,,,,6,2.426,0,,,,,,-0.086111055,-0.398148148,1,0,0,2.4259,Pegmatite_rect,7,0,7,0,1,
61155a7ed7bb8ba7da579301,TCN,2024-06-20_15h28.09.664,LearnStrategy,2023.2.3,Win32,59.88023952,5,2,9,,,,,,,,3,07,,,,,,,,,,,4,4.373,0,,,,,,0.363888889,-0.262962963,1,0,0,4.3731,Gabbro_rect,8,0,8,0,1,
61155a7ed7bb8ba7da579301,TCN,2024-06-20_15h28.09.664,LearnStrategy,2023.2.3,Win32,59.88023952,5,2,10,,,,,,,,6,13,,,,,,,,,,,6,1.143,1,,,,,,-0.118518462,-0.393518519,1,0,0,1.1433,Pegmatite_rect,9,0,9,0,1,
61155a7ed7bb8ba7da579301,TCN,2024-06-20_15h28.09.664,LearnStrategy,2023.2.3,Win32,59.88023952,5,2,11,,,,,,,,2,16,,,,,,,,,,,2,1.504,1,,,,,,-0.112037037,-0.230555556,1,0,0,1.5043,Basalt_rect,10,0,10,0,1,
61155a7ed7bb8ba7da579301,TCN,2024-06-20_15h28.09.664,LearnStrategy,2023.2.3,Win32,59.88023952,5,2,12,,,,,,,,4,01,,,,,,,,,,,3,3.156,0,,,,,,0.124074074,-0.232407407,1,0,0,3.156,Diorite_rect,11,0,11,0,1,
61155a7ed7bb8ba7da579301,TCN,2024-06-20_15h28.09.664,LearnStrategy,2023.2.3,Win32,59.88023952,5,2,13,,,,,,,,2,09,,,,,,,,,,,2,1.154,1,,,,,,-0.075925926,-0.239814815,1,0,0,1.1542,Basalt_rect,12,0,12,0,1,
61155a7ed7bb8ba7da579301,TCN,2024-06-20_15h28.09.664,LearnStrategy,2023.2.3,Win32,59.88023952,5,2,14,,,,,,,,4,16,,,,,,,,,,,4,1.772,1,,,,,,0.418518519,-0.232407407,1,0,0,1.7715,Gabbro_rect,13,0,13,0,1,
61155a7ed7bb8ba7da579301,TCN,2024-06-20_15h28.09.664,LearnStrategy,2023.2.3,Win32,59.88023952,5,2,15,,,,,,,,1,03,,,,,,,,,,,1,2.467,1,,,,,,-0.353703704,-0.232407407,1,0,0,2.467,Andesite_rect,14,0,14,0,1,
61155a7ed7bb8ba7da579301,TCN,2024-06-20_15h28.09.664,LearnStrategy,2023.2.3,Win32,59.88023952,5,2,16,,,,,,,,8,02,,,,,,,,,,,8,3.234,1,,,,,,0.35,-0.391666667,1,0,0,3.2342,Pumice_rect,15,0,15,0,1,
61155a7ed7bb8ba7da579301,TCN,2024-06-20_15h28.09.664,LearnStrategy,2023.2.3,Win32,59.88023952,6,1,1,0.005555556,-0.007407407,1,0,0,3.6607,rock_grid_rect_2,6,15,-1,-1,3.661,-0.324074074,-0.256481538,1,0,0,5.1909,Andesite_rect,1,5.191,0,0,0,0,0,1,,,,,,,,,,,,,
61155a7ed7bb8ba7da579301,TCN,2024-06-20_15h28.09.664,LearnStrategy,2023.2.3,Win32,59.88023952,6,1,2,0.022222222,0,1,0,0,3.1179,rock_grid_rect_2,1,10,-1,-1,3.118,0.348148148,-0.248148148,1,0,0,4.0421,Gabbro_rect,4,4.042,0,1,0,1,0,1,,,,,,,,,,,,,
61155a7ed7bb8ba7da579301,TCN,2024-06-20_15h28.09.664,LearnStrategy,2023.2.3,Win32,59.88023952,6,1,3,0.021296296,-0.010185185,1,0,0,1.2424,rock_grid_rect_2,8,08,-1,-1,1.242,0.384259259,-0.387037037,1,0,0,1.211,Pumice_rect,8,1.211,1,2,0,2,0,1,,,,,,,,,,,,,
61155a7ed7bb8ba7da579301,TCN,2024-06-20_15h28.09.664,LearnStrategy,2023.2.3,Win32,59.88023952,6,1,4,-0.007407351,0.009259259,1,0,0,0.9544,rock_grid_rect_2,2,14,-1,-1,0.954,-0.131481481,-0.256481538,1,0,0,2.2262,Basalt_rect,2,2.226,1,3,0,3,0,1,,,,,,,,,,,,,
61155a7ed7bb8ba7da579301,TCN,2024-06-20_15h28.09.664,LearnStrategy,2023.2.3,Win32,59.88023952,6,1,5,0.022222222,-0.006481481,1,0,0,0.9861,rock_grid_rect_2,8,03,-1,-1,0.986,0.32962963,-0.395370427,1,0,0,1.3289,Pumice_rect,8,1.329,1,4,0,4,0,1,,,,,,,,,,,,,
61155a7ed7bb8ba7da579301,TCN,2024-06-20_15h28.09.664,LearnStrategy,2023.2.3,Win32,59.88023952,6,1,6,0.019444444,-0.003703704,1,0,0,0.8152,rock_grid_rect_2,3,14,-1,-1,0.815,0.378703817,-0.243518519,1,0,0,5.2399,Gabbro_rect,4,5.24,0,5,0,5,0,1,,,,,,,,,,,,,
61155a7ed7bb8ba7da579301,TCN,2024-06-20_15h28.09.664,LearnStrategy,2023.2.3,Win32,59.88023952,6,1,7,0.018518519,-0.001851852,1,0,0,3.9105,rock_grid_rect_2,2,11,-1,-1,3.91,-0.100925926,-0.253703704,1,0,0,1.6763,Basalt_rect,2,1.676,1,6,0,6,0,1,,,,,,,,,,,,,
61155a7ed7bb8ba7da579301,TCN,2024-06-20_15h28.09.664,LearnStrategy,2023.2.3,Win32,59.88023952,6,1,8,0.05,-0.000925926,1,0,0,0.7635,rock_grid_rect_2,4,10,-1,-1,0.764,0.343518519,-0.25462963,1,0,0,1.8522,Gabbro_rect,4,1.852,1,7,0,7,0,1,,,,,,,,,,,,,
61155a7ed7bb8ba7da579301,TCN,2024-06-20_15h28.09.664,LearnStrategy,2023.2.3,Win32,59.88023952,6,1,9,0.052777834,-0.008333333,1,0,0,0.9118,rock_grid_rect_2,5,06,-1,-1,0.912,-0.337962963,-0.400000057,1,0,0,1.2608,Obsidian_rect,5,1.261,1,8,0,8,0,1,,,,,,,,,,,,,
61155a7ed7bb8ba7da579301,TCN,2024-06-20_15h28.09.664,LearnStrategy,2023.2.3,Win32,59.88023952,6,1,10,0.030555556,-0.001851852,1,0,0,0.7792,rock_grid_rect_2,4,13,-1,-1,0.779,-0.334259259,-0.246296296,1,0,0,5.2269,Andesite_rect,1,5.227,0,9,0,9,0,1,,,,,,,,,,,,,
61155a7ed7bb8ba7da579301,TCN,2024-06-20_15h28.09.664,LearnStrategy,2023.2.3,Win32,59.88023952,6,1,11,0.008333333,-0.010185185,1,0,0,0.9271,rock_grid_rect_2,6,08,-1,-1,0.927,-0.066666667,-0.409259316,1,0,0,3.4854,Pegmatite_rect,6,3.485,1,10,0,10,0,1,,,,,,,,,,,,,
61155a7ed7bb8ba7da579301,TCN,2024-06-20_15h28.09.664,LearnStrategy,2023.2.3,Win32,59.88023952,6,1,12,0.110185185,0.003703704,1,0,0,0.6435,rock_grid_rect_2,3,02,-1,-1,0.644,-0.343518519,-0.262037037,1,0,0,2.0909,Andesite_rect,1,2.091,0,11,0,11,0,1,,,,,,,,,,,,,
61155a7ed7bb8ba7da579301,TCN,2024-06-20_15h28.09.664,LearnStrategy,2023.2.3,Win32,59.88023952,6,1,13,0.025000057,-0.001851852,1,0,0,0.8779,rock_grid_rect_2,1,01,-1,-1,0.878,-0.362037037,-0.258333333,1,0,0,6.6459,Andesite_rect,1,6.646,1,12,0,12,0,1,,,,,,,,,,,,,
61155a7ed7bb8ba7da579301,TCN,2024-06-20_15h28.09.664,LearnStrategy,2023.2.3,Win32,59.88023952,6,1,14,0.144444444,0.002777778,1,0,0,1.2266,rock_grid_rect_2,5,11,-1,-1,1.227,-0.318518519,-0.387037037,1,0,0,1.2681,Obsidian_rect,5,1.268,1,13,0,13,0,1,,,,,,,,,,,,,
61155a7ed7bb8ba7da579301,TCN,2024-06-20_15h28.09.664,LearnStrategy,2023.2.3,Win32,59.88023952,6,1,15,0.030555556,0.001851852,1,0,0,0.8155,rock_grid_rect_2,7,15,-1,-1,0.816,0.056481481,-0.417592593,1,0,0,1.1986,Peridotite_rect,7,1.199,1,14,0,14,0,1,,,,,,,,,,,,,
61155a7ed7bb8ba7da579301,TCN,2024-06-20_15h28.09.664,LearnStrategy,2023.2.3,Win32,59.88023952,6,1,16,0.04537037,-0.017592593,1,0,0,0.814,rock_grid_rect_2,7,10,-1,-1,0.814,0.093518519,-0.404629686,1,0,0,0.9661,Peridotite_rect,7,0.966,1,15,0,15,0,1,,,,,,,,,,,,,
61155a7ed7bb8ba7da579301,TCN,2024-06-20_15h28.09.664,LearnStrategy,2023.2.3,Win32,59.88023952,6,2,1,,,,,,,,4,05,,,,,,,,,,,4,6.463,1,,,,,,0.362037037,-0.25,1,0,0,6.4628,Gabbro_rect,0,0,0,0,1,
61155a7ed7bb8ba7da579301,TCN,2024-06-20_15h28.09.664,LearnStrategy,2023.2.3,Win32,59.88023952,6,2,2,,,,,,,,5,02,,,,,,,,,,,5,1.287,1,,,,,,-0.375925926,-0.382407407,1,0,0,1.287,Obsidian_rect,1,0,1,0,1,
61155a7ed7bb8ba7da579301,TCN,2024-06-20_15h28.09.664,LearnStrategy,2023.2.3,Win32,59.88023952,6,2,3,,,,,,,,1,11,,,,,,,,,,,6,11.886,0,,,,,,-0.186111111,-0.401851852,1,0,0,11.8864,Pegmatite_rect,2,0,2,0,1,
61155a7ed7bb8ba7da579301,TCN,2024-06-20_15h28.09.664,LearnStrategy,2023.2.3,Win32,59.88023952,6,2,4,,,,,,,,3,16,,,,,,,,,,,3,2.397,1,,,,,,0.130555556,-0.249074074,1,0,0,2.3973,Diorite_rect,3,0,3,0,1,
61155a7ed7bb8ba7da579301,TCN,2024-06-20_15h28.09.664,LearnStrategy,2023.2.3,Win32,59.88023952,6,2,5,,,,,,,,6,05,,,,,,,,,,,6,1.935,1,,,,,,-0.096296296,-0.397222222,1,0,0,1.935,Pegmatite_rect,4,0,4,0,1,
61155a7ed7bb8ba7da579301,TCN,2024-06-20_15h28.09.664,LearnStrategy,2023.2.3,Win32,59.88023952,6,2,6,,,,,,,,7,02,,,,,,,,,,,7,1.876,1,,,,,,0.1,-0.394444444,1,0,0,1.876,Peridotite_rect,5,0,5,0,1,
61155a7ed7bb8ba7da579301,TCN,2024-06-20_15h28.09.664,LearnStrategy,2023.2.3,Win32,59.88023952,6,2,7,,,,,,,,6,16,,,,,,,,,,,6,1.511,1,,,,,,-0.071296296,-0.398148148,1,0,0,1.5112,Pegmatite_rect,6,0,6,0,1,
61155a7ed7bb8ba7da579301,TCN,2024-06-20_15h28.09.664,LearnStrategy,2023.2.3,Win32,59.88023952,6,2,8,,,,,,,,8,13,,,,,,,,,,,8,1.31,1,,,,,,0.364814928,-0.408333333,1,0,0,1.3095,Pumice_rect,7,0,7,0,1,
61155a7ed7bb8ba7da579301,TCN,2024-06-20_15h28.09.664,LearnStrategy,2023.2.3,Win32,59.88023952,6,2,9,,,,,,,,4,08,,,,,,,,,,,4,2.381,1,,,,,,0.383333446,-0.240740741,1,0,0,2.3809,Gabbro_rect,8,0,8,0,1,
61155a7ed7bb8ba7da579301,TCN,2024-06-20_15h28.09.664,LearnStrategy,2023.2.3,Win32,59.88023952,6,2,10,,,,,,,,5,16,,,,,,,,,,,5,1.1,1,,,,,,-0.315740741,-0.389814815,1,0,0,1.0996,Obsidian_rect,9,0,9,0,1,
61155a7ed7bb8ba7da579301,TCN,2024-06-20_15h28.09.664,LearnStrategy,2023.2.3,Win32,59.88023952,6,2,11,,,,,,,,2,04,,,,,,,,,,,2,1.023,1,,,,,,-0.066666667,-0.240740741,1,0,0,1.0232,Basalt_rect,10,0,10,0,1,
61155a7ed7bb8ba7da579301,TCN,2024-06-20_15h28.09.664,LearnStrategy,2023.2.3,Win32,59.88023952,6,2,12,,,,,,,,2,05,,,,,,,,,,,2,0.872,1,,,,,,-0.078703704,-0.247222279,1,0,0,0.8725,Basalt_rect,11,0,11,0,1,
61155a7ed7bb8ba7da579301,TCN,2024-06-20_15h28.09.664,LearnStrategy,2023.2.3,Win32,59.88023952,6,2,13,,,,,,,,1,14,,,,,,,,,,,1,2.8,1,,,,,,-0.401851852,-0.246296296,1,0,0,2.8004,Andesite_rect,12,0,12,0,1,
61155a7ed7bb8ba7da579301,TCN,2024-06-20_15h28.09.664,LearnStrategy,2023.2.3,Win32,59.88023952,6,2,14,,,,,,,,3,13,,,,,,,,,,,3,2.438,1,,,,,,0.092592593,-0.242592649,1,0,0,2.4377,Diorite_rect,13,0,13,0,1,
61155a7ed7bb8ba7da579301,TCN,2024-06-20_15h28.09.664,LearnStrategy,2023.2.3,Win32,59.88023952,6,2,15,,,,,,,,8,14,,,,,,,,,,,8,1.471,1,,,,,,0.355555669,-0.408333333,1,0,0,1.4715,Pumice_rect,14,0,14,0,1,
61155a7ed7bb8ba7da579301,TCN,2024-06-20_15h28.09.664,LearnStrategy,2023.2.3,Win32,59.88023952,6,2,16,,,,,,,,7,05,,,,,,,,,,,7,1.645,1,,,,,,0.123148148,-0.383333333,1,0,0,1.6446,Peridotite_rect,15,0,15,0,1,
61155a7ed7bb8ba7da579301,TCN,2024-06-20_15h28.09.664,LearnStrategy,2023.2.3,Win32,59.88023952,7,1,1,-0.009259259,-0.016666667,1,0,0,1.4118,rock_grid_rect_2,1,07,-1,-1,1.412,0.160185185,-0.239814815,1,0,0,2.6193,Diorite_rect,3,2.619,0,0,0,0,0,1,,,,,,,,,,,,,
61155a7ed7bb8ba7da579301,TCN,2024-06-20_15h28.09.664,LearnStrategy,2023.2.3,Win32,59.88023952,7,1,2,0.018518519,-0.011111111,1,0,0,0.8068,rock_grid_rect_2,2,12,-1,-1,0.807,0.337962963,-0.391666667,1,0,0,1.7999,Pumice_rect,8,1.8,0,1,0,1,0,1,,,,,,,,,,,,,
61155a7ed7bb8ba7da579301,TCN,2024-06-20_15h28.09.664,LearnStrategy,2023.2.3,Win32,59.88023952,7,1,3,0.024074074,-0.005555556,1,0,0,0.8289,rock_grid_rect_2,4,10,-1,-1,0.829,-0.082407407,-0.238888889,1,0,0,1.4506,Basalt_rect,2,1.451,0,2,0,2,0,1,,,,,,,,,,,,,
61155a7ed7bb8ba7da579301,TCN,2024-06-20_15h28.09.664,LearnStrategy,2023.2.3,Win32,59.88023952,7,1,4,0.024074074,0.000925926,1,0,0,0.7985,rock_grid_rect_2,6,03,-1,-1,0.799,-0.143518519,-0.392592593,1,0,0,1.1444,Pegmatite_rect,6,1.144,1,3,0,3,0,1,,,,,,,,,,,,,
61155a7ed7bb8ba7da579301,TCN,2024-06-20_15h28.09.664,LearnStrategy,2023.2.3,Win32,59.88023952,7,1,5,0.019444444,0.008333333,1,0,0,0.8295,rock_grid_rect_2,8,16,-1,-1,0.83,0.35,-0.404629686,1,0,0,1.193,Pumice_rect,8,1.193,1,4,0,4,0,1,,,,,,,,,,,,,
61155a7ed7bb8ba7da579301,TCN,2024-06-20_15h28.09.664,LearnStrategy,2023.2.3,Win32,59.88023952,7,1,6,0.003703704,-0.002777778,1,0,0,0.6619,rock_grid_rect_2,4,12,-1,-1,0.662,-0.121296296,-0.255555556,1,0,0,2.7118,Basalt_rect,2,2.712,0,5,0,5,0,1,,,,,,,,,,,,,
61155a7ed7bb8ba7da579301,TCN,2024-06-20_15h28.09.664,LearnStrategy,2023.2.3,Win32,59.88023952,7,1,7,0.050925926,-0.00462963,1,0,0,0.908,rock_grid_rect_2,1,10,-1,-1,0.908,0.310185185,-0.240740741,1,0,0,1.632,Gabbro_rect,4,1.632,0,6,0,6,0,1,,,,,,,,,,,,,
61155a7ed7bb8ba7da579301,TCN,2024-06-20_15h28.09.664,LearnStrategy,2023.2.3,Win32,59.88023952,7,1,8,0.044444444,0.022222222,1,0,0,0.7373,rock_grid_rect_2,8,08,-1,-1,0.737,0.419444444,-0.378703704,1,0,0,1.4587,Pumice_rect,8,1.459,1,7,0,7,0,1,,,,,,,,,,,,,
61155a7ed7bb8ba7da579301,TCN,2024-06-20_15h28.09.664,LearnStrategy,2023.2.3,Win32,59.88023952,7,1,9,0,0.011111111,1,0,0,0.7826,rock_grid_rect_2,7,16,-1,-1,0.783,0.126851852,-0.389814815,1,0,0,1.9762,Peridotite_rect,7,1.976,1,8,0,8,0,1,,,,,,,,,,,,,
61155a7ed7bb8ba7da579301,TCN,2024-06-20_15h28.09.664,LearnStrategy,2023.2.3,Win32,59.88023952,7,1,10,0.017592593,0.005555556,1,0,0,0.8203,rock_grid_rect_2,3,09,-1,-1,0.82,0.117592593,-0.25462963,1,0,0,1.8215,Diorite_rect,3,1.822,1,9,0,9,0,1,,,,,,,,,,,,,
61155a7ed7bb8ba7da579301,TCN,2024-06-20_15h28.09.664,LearnStrategy,2023.2.3,Win32,59.88023952,7,1,11,0.008333333,0.001851852,1,0,0,0.7654,rock_grid_rect_2,5,09,-1,-1,0.765,-0.337962963,-0.415740741,1,0,0,1.0543,Obsidian_rect,5,1.054,1,10,0,10,0,1,,,,,,,,,,,,,
61155a7ed7bb8ba7da579301,TCN,2024-06-20_15h28.09.664,LearnStrategy,2023.2.3,Win32,59.88023952,7,1,12,0.052777834,0,1,0,0,0.8969,rock_grid_rect_2,3,11,-1,-1,0.897,0.073148148,-0.236111111,1,0,0,1.66,Diorite_rect,3,1.66,1,11,0,11,0,1,,,,,,,,,,,,,
61155a7ed7bb8ba7da579301,TCN,2024-06-20_15h28.09.664,LearnStrategy,2023.2.3,Win32,59.88023952,7,1,13,0.030555556,-0.012962963,1,0,0,0.8493,rock_grid_rect_2,2,14,-1,-1,0.849,-0.086111055,-0.260185185,1,0,0,1.4655,Basalt_rect,2,1.466,1,12,0,12,0,1,,,,,,,,,,,,,
61155a7ed7bb8ba7da579301,TCN,2024-06-20_15h28.09.664,LearnStrategy,2023.2.3,Win32,59.88023952,7,1,14,0.057407464,-0.011111111,1,0,0,0.8447,rock_grid_rect_2,5,06,-1,-1,0.845,-0.400925926,-0.42037037,1,0,0,1.0557,Obsidian_rect,5,1.056,1,13,0,13,0,1,,,,,,,,,,,,,
61155a7ed7bb8ba7da579301,TCN,2024-06-20_15h28.09.664,LearnStrategy,2023.2.3,Win32,59.88023952,7,1,15,0.078703704,-0.00462963,1,0,0,0.7811,rock_grid_rect_2,7,04,-1,-1,0.781,0.098148148,-0.398148148,1,0,0,2.0695,Peridotite_rect,7,2.069,1,14,0,14,0,1,,,,,,,,,,,,,
61155a7ed7bb8ba7da579301,TCN,2024-06-20_15h28.09.664,LearnStrategy,2023.2.3,Win32,59.88023952,7,1,16,-0.000925926,-0.006481481,1,0,0,0.8135,rock_grid_rect_2,6,07,-1,-1,0.813,-0.125,-0.407407407,1,0,0,1.6938,Pegmatite_rect,6,1.694,1,15,0,15,0,1,,,,,,,,,,,,,
61155a7ed7bb8ba7da579301,TCN,2024-06-20_15h28.09.664,LearnStrategy,2023.2.3,Win32,59.88023952,7,2,1,,,,,,,,7,07,,,,,,,,,,,7,2.298,1,,,,,,0.112037037,-0.392592593,1,0,0,2.2979,Peridotite_rect,0,0,0,0,1,
61155a7ed7bb8ba7da579301,TCN,2024-06-20_15h28.09.664,LearnStrategy,2023.2.3,Win32,59.88023952,7,2,2,,,,,,,,4,05,,,,,,,,,,,4,4.296,1,,,,,,0.421296296,-0.258333333,1,0,0,4.2965,Gabbro_rect,1,0,1,0,1,
61155a7ed7bb8ba7da579301,TCN,2024-06-20_15h28.09.664,LearnStrategy,2023.2.3,Win32,59.88023952,7,2,3,,,,,,,,7,05,,,,,,,,,,,7,6.102,1,,,,,,0.108333333,-0.386111168,1,0,0,6.102,Peridotite_rect,2,0,2,0,1,
61155a7ed7bb8ba7da579301,TCN,2024-06-20_15h28.09.664,LearnStrategy,2023.2.3,Win32,59.88023952,7,2,4,,,,,,,,2,04,,,,,,,,,,,2,2.007,1,,,,,,-0.082407407,-0.252777778,1,0,0,2.0069,Basalt_rect,3,0,3,0,1,
61155a7ed7bb8ba7da579301,TCN,2024-06-20_15h28.09.664,LearnStrategy,2023.2.3,Win32,59.88023952,7,2,5,,,,,,,,6,16,,,,,,,,,,,6,1.319,1,,,,,,-0.123148092,-0.395370427,1,0,0,1.3193,Pegmatite_rect,4,0,4,0,1,
61155a7ed7bb8ba7da579301,TCN,2024-06-20_15h28.09.664,LearnStrategy,2023.2.3,Win32,59.88023952,7,2,6,,,,,,,,5,12,,,,,,,,,,,5,0.969,1,,,,,,-0.360185185,-0.406481481,1,0,0,0.9688,Obsidian_rect,5,0,5,0,1,
61155a7ed7bb8ba7da579301,TCN,2024-06-20_15h28.09.664,LearnStrategy,2023.2.3,Win32,59.88023952,7,2,7,,,,,,,,5,02,,,,,,,,,,,5,1.593,1,,,,,,-0.363888889,-0.394444444,1,0,0,1.5927,Obsidian_rect,6,0,6,0,1,
61155a7ed7bb8ba7da579301,TCN,2024-06-20_15h28.09.664,LearnStrategy,2023.2.3,Win32,59.88023952,7,2,8,,,,,,,,1,14,,,,,,,,,,,1,3.774,1,,,,,,-0.376851852,-0.260185185,1,0,0,3.7735,Andesite_rect,7,0,7,0,1,
61155a7ed7bb8ba7da579301,TCN,2024-06-20_15h28.09.664,LearnStrategy,2023.2.3,Win32,59.88023952,7,2,9,,,,,,,,6,13,,,,,,,,,,,6,2.511,1,,,,,,-0.162037037,-0.391666667,1,0,0,2.5112,Pegmatite_rect,8,0,8,0,1,
61155a7ed7bb8ba7da579301,TCN,2024-06-20_15h28.09.664,LearnStrategy,2023.2.3,Win32,59.88023952,7,2,10,,,,,,,,8,09,,,,,,,,,,,8,1.294,1,,,,,,0.325925926,-0.388888889,1,0,0,1.2936,Pumice_rect,9,0,9,0,1,
61155a7ed7bb8ba7da579301,TCN,2024-06-20_15h28.09.664,LearnStrategy,2023.2.3,Win32,59.88023952,7,2,11,,,,,,,,2,06,,,,,,,,,,,2,1.181,1,,,,,,-0.123148092,-0.252777778,1,0,0,1.1808,Basalt_rect,10,0,10,0,1,
61155a7ed7bb8ba7da579301,TCN,2024-06-20_15h28.09.664,LearnStrategy,2023.2.3,Win32,59.88023952,7,2,12,,,,,,,,4,16,,,,,,,,,,,4,11.946,1,,,,,,0.459259259,-0.250925926,1,0,0,11.9458,Gabbro_rect,11,0,11,0,1,
61155a7ed7bb8ba7da579301,TCN,2024-06-20_15h28.09.664,LearnStrategy,2023.2.3,Win32,59.88023952,7,2,13,,,,,,,,3,12,,,,,,,,,,,3,1.955,1,,,,,,0.127777778,-0.253703704,1,0,0,1.9548,Diorite_rect,12,0,12,0,1,
61155a7ed7bb8ba7da579301,TCN,2024-06-20_15h28.09.664,LearnStrategy,2023.2.3,Win32,59.88023952,7,2,14,,,,,,,,8,13,,,,,,,,,,,8,1.762,1,,,,,,0.34166678,-0.394444444,1,0,0,1.7625,Pumice_rect,13,0,13,0,1,
61155a7ed7bb8ba7da579301,TCN,2024-06-20_15h28.09.664,LearnStrategy,2023.2.3,Win32,59.88023952,7,2,15,,,,,,,,1,02,,,,,,,,,,,1,4.389,1,,,,,,-0.376851852,-0.247222279,1,0,0,4.3893,Andesite_rect,14,0,14,0,1,
61155a7ed7bb8ba7da579301,TCN,2024-06-20_15h28.09.664,LearnStrategy,2023.2.3,Win32,59.88023952,7,2,16,,,,,,,,3,16,,,,,,,,,,,3,1.053,1,,,,,,0.110185185,-0.231481481,1,0,0,1.0526,Diorite_rect,15,0,15,0,1,
61155a7ed7bb8ba7da579301,TCN,2024-06-20_15h28.09.664,LearnStrategy,2023.2.3,Win32,59.88023952,8,1,1,0.027777778,0.009259259,1,0,0,0.9127,rock_grid_rect_2,1,04,-1,-1,0.913,-0.309259259,-0.247222279,1,0,0,3.916,Andesite_rect,1,3.916,1,0,0,0,0,1,,,,,,,,,,,,,
61155a7ed7bb8ba7da579301,TCN,2024-06-20_15h28.09.664,LearnStrategy,2023.2.3,Win32,59.88023952,8,1,2,-0.000925926,-0.009259259,1,0,0,0.9281,rock_grid_rect_2,3,14,-1,-1,0.928,0.103703704,-0.234259259,1,0,0,1.1338,Diorite_rect,3,1.134,1,1,0,1,0,1,,,,,,,,,,,,,
61155a7ed7bb8ba7da579301,TCN,2024-06-20_15h28.09.664,LearnStrategy,2023.2.3,Win32,59.88023952,8,1,3,-0.007407351,-0.013888889,1,0,0,0.8793,rock_grid_rect_2,6,15,-1,-1,0.879,-0.162962963,-0.407407407,1,0,0,1.168,Pegmatite_rect,6,1.168,1,2,0,2,0,1,,,,,,,,,,,,,
61155a7ed7bb8ba7da579301,TCN,2024-06-20_15h28.09.664,LearnStrategy,2023.2.3,Win32,59.88023952,8,1,4,-0.031481481,-0.005555556,1,0,0,0.8792,rock_grid_rect_2,3,06,-1,-1,0.879,0.118518519,-0.242592649,1,0,0,2.418,Diorite_rect,3,2.418,1,3,0,3,0,1,,,,,,,,,,,,,
61155a7ed7bb8ba7da579301,TCN,2024-06-20_15h28.09.664,LearnStrategy,2023.2.3,Win32,59.88023952,8,1,5,0.049074074,-0.005555556,1,0,0,0.7562,rock_grid_rect_2,6,08,-1,-1,0.756,-0.083333333,-0.395370427,1,0,0,2.0608,Pegmatite_rect,6,2.061,1,4,0,4,0,1,,,,,,,,,,,,,
61155a7ed7bb8ba7da579301,TCN,2024-06-20_15h28.09.664,LearnStrategy,2023.2.3,Win32,59.88023952,8,1,6,0.075925926,0.010185185,1,0,0,0.6485,rock_grid_rect_2,8,05,-1,-1,0.649,0.342592593,-0.389814815,1,0,0,1.3522,Pumice_rect,8,1.352,1,5,0,5,0,1,,,,,,,,,,,,,
61155a7ed7bb8ba7da579301,TCN,2024-06-20_15h28.09.664,LearnStrategy,2023.2.3,Win32,59.88023952,8,1,7,0.081481481,-0.005555556,1,0,0,0.779,rock_grid_rect_2,1,09,-1,-1,0.779,0.362037037,-0.256481538,1,0,0,1.8327,Gabbro_rect,4,1.833,0,6,0,6,0,1,,,,,,,,,,,,,
61155a7ed7bb8ba7da579301,TCN,2024-06-20_15h28.09.664,LearnStrategy,2023.2.3,Win32,59.88023952,8,1,8,0.012962963,0.003703704,1,0,0,0.8455,rock_grid_rect_2,2,10,-1,-1,0.845,-0.119444444,-0.261111168,1,0,0,1.927,Basalt_rect,2,1.927,1,7,0,7,0,1,,,,,,,,,,,,,
61155a7ed7bb8ba7da579301,TCN,2024-06-20_15h28.09.664,LearnStrategy,2023.2.3,Win32,59.88023952,8,1,9,0.033333333,-0.001851852,1,0,0,0.8117,rock_grid_rect_2,5,05,-1,-1,0.812,-0.350925926,-0.392592593,1,0,0,1.2706,Obsidian_rect,5,1.271,1,8,0,8,0,1,,,,,,,,,,,,,
61155a7ed7bb8ba7da579301,TCN,2024-06-20_15h28.09.664,LearnStrategy,2023.2.3,Win32,59.88023952,8,1,10,0.056481481,0.00462963,1,0,0,0.7448,rock_grid_rect_2,8,04,-1,-1,0.745,0.373148148,-0.413888945,1,0,0,0.9422,Pumice_rect,8,0.942,1,9,0,9,0,1,,,,,,,,,,,,,
61155a7ed7bb8ba7da579301,TCN,2024-06-20_15h28.09.664,LearnStrategy,2023.2.3,Win32,59.88023952,8,1,11,-0.05,0.005555556,1,0,0,0.8485,rock_grid_rect_2,4,09,-1,-1,0.849,0.353703704,-0.265740797,1,0,0,2.7217,Gabbro_rect,4,2.722,1,10,0,10,0,1,,,,,,,,,,,,,
61155a7ed7bb8ba7da579301,TCN,2024-06-20_15h28.09.664,LearnStrategy,2023.2.3,Win32,59.88023952,8,1,12,0.007407407,0.013888889,1,0,0,0.6473,rock_grid_rect_2,7,06,-1,-1,0.647,0.101851852,-0.387962963,1,0,0,1.3221,Peridotite_rect,7,1.322,1,11,0,11,0,1,,,,,,,,,,,,,
61155a7ed7bb8ba7da579301,TCN,2024-06-20_15h28.09.664,LearnStrategy,2023.2.3,Win32,59.88023952,8,1,13,0.015740797,-0.013888889,1,0,0,0.6442,rock_grid_rect_2,4,13,-1,-1,0.644,0.084259259,-0.25462963,1,0,0,3.2423,Diorite_rect,3,3.242,0,12,0,12,0,1,,,,,,,,,,,,,
61155a7ed7bb8ba7da579301,TCN,2024-06-20_15h28.09.664,LearnStrategy,2023.2.3,Win32,59.88023952,8,1,14,-0.01666661,-0.012962963,1,0,0,0.8265,rock_grid_rect_2,7,14,-1,-1,0.826,0.090740741,-0.382407407,1,0,0,1.3051,Peridotite_rect,7,1.305,1,13,0,13,0,1,,,,,,,,,,,,,
61155a7ed7bb8ba7da579301,TCN,2024-06-20_15h28.09.664,LearnStrategy,2023.2.3,Win32,59.88023952,8,1,15,0.040740741,-0.002777778,1,0,0,0.7953,rock_grid_rect_2,2,11,-1,-1,0.795,-0.068518519,-0.263888889,1,0,0,2.5536,Basalt_rect,2,2.554,1,14,0,14,0,1,,,,,,,,,,,,,
61155a7ed7bb8ba7da579301,TCN,2024-06-20_15h28.09.664,LearnStrategy,2023.2.3,Win32,59.88023952,8,1,16,0.012962963,0,1,0,0,0.7964,rock_grid_rect_2,5,11,-1,-1,0.796,-0.337037037,-0.402777778,1,0,0,1.0437,Obsidian_rect,5,1.044,1,15,0,15,0,1,,,,,,,,,,,,,
61155a7ed7bb8ba7da579301,TCN,2024-06-20_15h28.09.664,LearnStrategy,2023.2.3,Win32,59.88023952,8,2,1,,,,,,,,8,14,,,,,,,,,,,8,1.481,1,,,,,,0.356481481,-0.387962963,1,0,0,1.4806,Pumice_rect,0,0,0,0,1,
61155a7ed7bb8ba7da579301,TCN,2024-06-20_15h28.09.664,LearnStrategy,2023.2.3,Win32,59.88023952,8,2,2,,,,,,,,1,05,,,,,,,,,,,1,24.953,1,,,,,,-0.391666667,-0.257407407,1,0,0,24.953,Andesite_rect,1,0,1,0,1,
61155a7ed7bb8ba7da579301,TCN,2024-06-20_15h28.09.664,LearnStrategy,2023.2.3,Win32,59.88023952,8,2,3,,,,,,,,7,13,,,,,,,,,,,7,1.652,1,,,,,,0.059259259,-0.378703704,1,0,0,1.6522,Peridotite_rect,2,0,2,0,1,
61155a7ed7bb8ba7da579301,TCN,2024-06-20_15h28.09.664,LearnStrategy,2023.2.3,Win32,59.88023952,8,2,4,,,,,,,,4,14,,,,,,,,,,,4,2.382,1,,,,,,0.384259259,-0.247222279,1,0,0,2.3819,Gabbro_rect,3,0,3,0,1,
61155a7ed7bb8ba7da579301,TCN,2024-06-20_15h28.09.664,LearnStrategy,2023.2.3,Win32,59.88023952,8,2,5,,,,,,,,4,03,,,,,,,,,,,3,7.527,0,,,,,,0.208333333,-0.265740797,1,0,0,7.5272,Diorite_rect,4,0,4,0,1,
61155a7ed7bb8ba7da579301,TCN,2024-06-20_15h28.09.664,LearnStrategy,2023.2.3,Win32,59.88023952,8,2,6,,,,,,,,6,10,,,,,,,,,,,6,1.861,1,,,,,,-0.080555556,-0.397222222,1,0,0,1.8612,Pegmatite_rect,5,0,5,0,1,
61155a7ed7bb8ba7da579301,TCN,2024-06-20_15h28.09.664,LearnStrategy,2023.2.3,Win32,59.88023952,8,2,7,,,,,,,,2,09,,,,,,,,,,,2,0.875,1,,,,,,-0.069444444,-0.252777778,1,0,0,0.8753,Basalt_rect,6,0,6,0,1,
61155a7ed7bb8ba7da579301,TCN,2024-06-20_15h28.09.664,LearnStrategy,2023.2.3,Win32,59.88023952,8,2,8,,,,,,,,8,06,,,,,,,,,,,8,1.159,1,,,,,,0.383333446,-0.389814815,1,0,0,1.1592,Pumice_rect,7,0,7,0,1,
61155a7ed7bb8ba7da579301,TCN,2024-06-20_15h28.09.664,LearnStrategy,2023.2.3,Win32,59.88023952,8,2,9,,,,,,,,6,12,,,,,,,,,,,1,6.957,0,,,,,,-0.375925926,-0.24537037,1,0,0,6.9567,Andesite_rect,8,0,8,0,1,
61155a7ed7bb8ba7da579301,TCN,2024-06-20_15h28.09.664,LearnStrategy,2023.2.3,Win32,59.88023952,8,2,10,,,,,,,,7,12,,,,,,,,,,,3,11.92,0,,,,,,0.124074074,-0.255555556,1,0,0,11.9204,Diorite_rect,9,0,9,0,1,
61155a7ed7bb8ba7da579301,TCN,2024-06-20_15h28.09.664,LearnStrategy,2023.2.3,Win32,59.88023952,8,2,11,,,,,,,,1,03,,,,,,,,,,,4,2.68,0,,,,,,0.376851852,-0.247222279,1,0,0,2.6799,Gabbro_rect,10,0,10,0,1,
61155a7ed7bb8ba7da579301,TCN,2024-06-20_15h28.09.664,LearnStrategy,2023.2.3,Win32,59.88023952,8,2,12,,,,,,,,5,10,,,,,,,,,,,5,1.383,1,,,,,,-0.305555556,-0.385185185,1,0,0,1.3828,Obsidian_rect,11,0,11,0,1,
61155a7ed7bb8ba7da579301,TCN,2024-06-20_15h28.09.664,LearnStrategy,2023.2.3,Win32,59.88023952,8,2,13,,,,,,,,5,14,,,,,,,,,,,5,1.238,1,,,,,,-0.347222222,-0.383333333,1,0,0,1.2383,Obsidian_rect,12,0,12,0,1,
61155a7ed7bb8ba7da579301,TCN,2024-06-20_15h28.09.664,LearnStrategy,2023.2.3,Win32,59.88023952,8,2,14,,,,,,,,2,05,,,,,,,,,,,2,0.873,1,,,,,,-0.098148148,-0.246296296,1,0,0,0.873,Basalt_rect,13,0,13,0,1,
61155a7ed7bb8ba7da579301,TCN,2024-06-20_15h28.09.664,LearnStrategy,2023.2.3,Win32,59.88023952,8,2,15,,,,,,,,3,07,,,,,,,,,,,6,1.398,0,,,,,,-0.073148148,-0.402777778,1,0,0,1.3976,Pegmatite_rect,14,0,14,0,1,
61155a7ed7bb8ba7da579301,TCN,2024-06-20_15h28.09.664,LearnStrategy,2023.2.3,Win32,59.88023952,8,2,16,,,,,,,,3,08,,,,,,,,,,,3,1.278,1,,,,,,0.124074074,-0.250925926,1,0,0,1.2783,Diorite_rect,15,0,15,0,1,
61155a7ed7bb8ba7da579301,TCN,2024-06-20_15h28.09.664,LearnStrategy,2023.2.3,Win32,59.88023952,9,1,1,-0.003703704,-0.016666667,1,0,0,1.3642,rock_grid_rect_2,2,02,-1,-1,1.364,-0.082407407,-0.259259259,1,0,0,1.2769,Basalt_rect,2,1.277,1,0,0,0,0,1,,,,,,,,,,,,,
61155a7ed7bb8ba7da579301,TCN,2024-06-20_15h28.09.664,LearnStrategy,2023.2.3,Win32,59.88023952,9,1,2,-0.028703704,-0.013888889,1,0,0,1.0788,rock_grid_rect_2,4,15,-1,-1,1.079,0.417592593,-0.237963019,1,0,0,2.4667,Gabbro_rect,4,2.467,1,1,0,1,0,1,,,,,,,,,,,,,
61155a7ed7bb8ba7da579301,TCN,2024-06-20_15h28.09.664,LearnStrategy,2023.2.3,Win32,59.88023952,9,1,3,0.025000057,-0.017592593,1,0,0,0.9119,rock_grid_rect_2,3,02,-1,-1,0.912,0.090740741,-0.239814815,1,0,0,1.3074,Diorite_rect,3,1.307,1,2,0,2,0,1,,,,,,,,,,,,,
61155a7ed7bb8ba7da579301,TCN,2024-06-20_15h28.09.664,LearnStrategy,2023.2.3,Win32,59.88023952,9,1,4,-0.002777721,0.021296296,1,0,0,0.6311,rock_grid_rect_2,7,10,-1,-1,0.631,0.096296296,-0.399074074,1,0,0,1.319,Peridotite_rect,7,1.319,1,3,0,3,0,1,,,,,,,,,,,,,
61155a7ed7bb8ba7da579301,TCN,2024-06-20_15h28.09.664,LearnStrategy,2023.2.3,Win32,59.88023952,9,1,5,0.007407407,-0.000925926,1,0,0,1.0288,rock_grid_rect_2,8,15,-1,-1,1.029,0.372222222,-0.413888945,1,0,0,3.3859,Pumice_rect,8,3.386,1,4,0,4,0,1,,,,,,,,,,,,,
61155a7ed7bb8ba7da579301,TCN,2024-06-20_15h28.09.664,LearnStrategy,2023.2.3,Win32,59.88023952,9,1,6,0.062037037,0,1,0,0,0.5989,rock_grid_rect_2,8,03,-1,-1,0.599,0.339814815,-0.395370427,1,0,0,1.6833,Pumice_rect,8,1.683,1,5,0,5,0,1,,,,,,,,,,,,,
61155a7ed7bb8ba7da579301,TCN,2024-06-20_15h28.09.664,LearnStrategy,2023.2.3,Win32,59.88023952,9,1,7,0.044444444,0.012037037,1,0,0,0.7067,rock_grid_rect_2,1,06,-1,-1,0.707,-0.338888889,-0.237963019,1,0,0,2.0102,Andesite_rect,1,2.01,1,6,0,6,0,1,,,,,,,,,,,,,
61155a7ed7bb8ba7da579301,TCN,2024-06-20_15h28.09.664,LearnStrategy,2023.2.3,Win32,59.88023952,9,1,8,0.018518519,0.003703704,1,0,0,0.8831,rock_grid_rect_2,1,01,-1,-1,0.883,0.113888889,-0.259259259,1,0,0,1.4759,Diorite_rect,3,1.476,0,7,0,7,0,1,,,,,,,,,,,,,
61155a7ed7bb8ba7da579301,TCN,2024-06-20_15h28.09.664,LearnStrategy,2023.2.3,Win32,59.88023952,9,1,9,-0.01666661,-0.005555556,1,0,0,0.7022,rock_grid_rect_2,5,04,-1,-1,0.702,-0.32037037,-0.411111111,1,0,0,1.1752,Obsidian_rect,5,1.175,1,8,0,8,0,1,,,,,,,,,,,,,
61155a7ed7bb8ba7da579301,TCN,2024-06-20_15h28.09.664,LearnStrategy,2023.2.3,Win32,59.88023952,9,1,10,-0.057407407,-0.010185185,1,0,0,0.8861,rock_grid_rect_2,6,09,-1,-1,0.886,-0.109259203,-0.399074074,1,0,0,2.4362,Pegmatite_rect,6,2.436,1,9,0,9,0,1,,,,,,,,,,,,,
61155a7ed7bb8ba7da579301,TCN,2024-06-20_15h28.09.664,LearnStrategy,2023.2.3,Win32,59.88023952,9,1,11,0.020370427,-0.00462963,1,0,0,0.8314,rock_grid_rect_2,6,11,-1,-1,0.831,-0.184259259,-0.401851852,1,0,0,3.039,Pegmatite_rect,6,3.039,1,10,0,10,0,1,,,,,,,,,,,,,
61155a7ed7bb8ba7da579301,TCN,2024-06-20_15h28.09.664,LearnStrategy,2023.2.3,Win32,59.88023952,9,1,12,0.069444444,-0.009259259,1,0,0,0.7315,rock_grid_rect_2,7,15,-1,-1,0.731,0.077777778,-0.380555556,1,0,0,1.093,Peridotite_rect,7,1.093,1,11,0,11,0,1,,,,,,,,,,,,,
61155a7ed7bb8ba7da579301,TCN,2024-06-20_15h28.09.664,LearnStrategy,2023.2.3,Win32,59.88023952,9,1,13,0.012962963,-0.015740741,1,0,0,1.2301,rock_grid_rect_2,2,01,-1,-1,1.23,-0.12962963,-0.235185185,1,0,0,0.8313,Basalt_rect,2,0.831,1,12,0,12,0,1,,,,,,,,,,,,,
61155a7ed7bb8ba7da579301,TCN,2024-06-20_15h28.09.664,LearnStrategy,2023.2.3,Win32,59.88023952,9,1,14,0.015740797,-0.002777778,1,0,0,0.7293,rock_grid_rect_2,5,08,-1,-1,0.729,-0.362037037,-0.408333333,1,0,0,1.0003,Obsidian_rect,5,1,1,13,0,13,0,1,,,,,,,,,,,,,
61155a7ed7bb8ba7da579301,TCN,2024-06-20_15h28.09.664,LearnStrategy,2023.2.3,Win32,59.88023952,9,1,15,0.037962963,0.002777778,1,0,0,0.6975,rock_grid_rect_2,4,11,-1,-1,0.697,0.361111111,-0.260185185,1,0,0,1.5259,Gabbro_rect,4,1.526,1,14,0,14,0,1,,,,,,,,,,,,,
61155a7ed7bb8ba7da579301,TCN,2024-06-20_15h28.09.664,LearnStrategy,2023.2.3,Win32,59.88023952,9,1,16,0.020370427,-0.00462963,1,0,0,0.7308,rock_grid_rect_2,3,15,-1,-1,0.731,0.088888889,-0.252777778,1,0,0,1.7325,Diorite_rect,3,1.733,1,15,0,15,0,1,,,,,,,,,,,,,
61155a7ed7bb8ba7da579301,TCN,2024-06-20_15h28.09.664,LearnStrategy,2023.2.3,Win32,59.88023952,9,2,1,,,,,,,,2,08,,,,,,,,,,,2,1.394,1,,,,,,-0.152777778,-0.256481538,1,0,0,1.3941,Basalt_rect,0,0,0,0,1,
61155a7ed7bb8ba7da579301,TCN,2024-06-20_15h28.09.664,LearnStrategy,2023.2.3,Win32,59.88023952,9,2,2,,,,,,,,6,06,,,,,,,,,,,6,1.276,1,,,,,,-0.091666667,-0.389814815,1,0,0,1.2762,Pegmatite_rect,1,0,1,0,1,
61155a7ed7bb8ba7da579301,TCN,2024-06-20_15h28.09.664,LearnStrategy,2023.2.3,Win32,59.88023952,9,2,3,,,,,,,,6,05,,,,,,,,,,,6,1.415,1,,,,,,-0.060185185,-0.393518519,1,0,0,1.4145,Pegmatite_rect,2,0,2,0,1,
61155a7ed7bb8ba7da579301,TCN,2024-06-20_15h28.09.664,LearnStrategy,2023.2.3,Win32,59.88023952,9,2,4,,,,,,,,1,11,,,,,,,,,,,1,1.814,1,,,,,,-0.347222222,-0.251851908,1,0,0,1.814,Andesite_rect,3,0,3,0,1,
61155a7ed7bb8ba7da579301,TCN,2024-06-20_15h28.09.664,LearnStrategy,2023.2.3,Win32,59.88023952,9,2,5,,,,,,,,7,02,,,,,,,,,,,7,1.698,1,,,,,,0.062962963,-0.402777778,1,0,0,1.6985,Peridotite_rect,4,0,4,0,1,
61155a7ed7bb8ba7da579301,TCN,2024-06-20_15h28.09.664,LearnStrategy,2023.2.3,Win32,59.88023952,9,2,6,,,,,,,,3,10,,,,,,,,,,,3,1.725,1,,,,,,0.148148148,-0.252777778,1,0,0,1.7245,Diorite_rect,5,0,5,0,1,
61155a7ed7bb8ba7da579301,TCN,2024-06-20_15h28.09.664,LearnStrategy,2023.2.3,Win32,59.88023952,9,2,7,,,,,,,,8,10,,,,,,,,,,,8,1.118,1,,,,,,0.34537037,-0.391666667,1,0,0,1.1183,Pumice_rect,6,0,6,0,1,
61155a7ed7bb8ba7da579301,TCN,2024-06-20_15h28.09.664,LearnStrategy,2023.2.3,Win32,59.88023952,9,2,8,,,,,,,,3,13,,,,,,,,,,,3,1.391,1,,,,,,0.048148205,-0.255555556,1,0,0,1.3909,Diorite_rect,7,0,7,0,1,
61155a7ed7bb8ba7da579301,TCN,2024-06-20_15h28.09.664,LearnStrategy,2023.2.3,Win32,59.88023952,9,2,9,,,,,,,,4,01,,,,,,,,,,,4,2.938,1,,,,,,0.401851965,-0.24537037,1,0,0,2.938,Gabbro_rect,8,0,8,0,1,
61155a7ed7bb8ba7da579301,TCN,2024-06-20_15h28.09.664,LearnStrategy,2023.2.3,Win32,59.88023952,9,2,10,,,,,,,,8,02,,,,,,,,,,,8,2.646,1,,,,,,0.339814815,-0.395370427,1,0,0,2.6455,Pumice_rect,9,0,9,0,1,
61155a7ed7bb8ba7da579301,TCN,2024-06-20_15h28.09.664,LearnStrategy,2023.2.3,Win32,59.88023952,9,2,11,,,,,,,,7,08,,,,,,,,,,,7,1.314,1,,,,,,0.089814815,-0.403703704,1,0,0,1.3144,Peridotite_rect,10,0,10,0,1,
61155a7ed7bb8ba7da579301,TCN,2024-06-20_15h28.09.664,LearnStrategy,2023.2.3,Win32,59.88023952,9,2,12,,,,,,,,5,07,,,,,,,,,,,5,1.77,1,,,,,,-0.339814815,-0.390740797,1,0,0,1.7701,Obsidian_rect,11,0,11,0,1,
61155a7ed7bb8ba7da579301,TCN,2024-06-20_15h28.09.664,LearnStrategy,2023.2.3,Win32,59.88023952,9,2,13,,,,,,,,1,16,,,,,,,,,,,1,3.607,1,,,,,,-0.384259259,-0.251851908,1,0,0,3.6074,Andesite_rect,12,0,12,0,1,
61155a7ed7bb8ba7da579301,TCN,2024-06-20_15h28.09.664,LearnStrategy,2023.2.3,Win32,59.88023952,9,2,14,,,,,,,,5,16,,,,,,,,,,,5,1.497,1,,,,,,-0.347222222,-0.386111168,1,0,0,1.4973,Obsidian_rect,13,0,13,0,1,
61155a7ed7bb8ba7da579301,TCN,2024-06-20_15h28.09.664,LearnStrategy,2023.2.3,Win32,59.88023952,9,2,15,,,,,,,,4,08,,,,,,,,,,,4,2.028,1,,,,,,0.375,-0.243518519,1,0,0,2.0282,Gabbro_rect,14,0,14,0,1,
61155a7ed7bb8ba7da579301,TCN,2024-06-20_15h28.09.664,LearnStrategy,2023.2.3,Win32,59.88023952,9,2,16,,,,,,,,2,16,,,,,,,,,,,2,1.16,1,,,,,,-0.095370314,-0.261111168,1,0,0,1.1598,Basalt_rect,15,0,15,0,1,
61155a7ed7bb8ba7da579301,TCN,2024-06-20_15h28.09.664,LearnStrategy,2023.2.3,Win32,59.88023952,,,,,,,,,,,,,,,,,,,,,,,,,,,,,,,,,,,,,,,,,,,1
61155a7ed7bb8ba7da579301,TCN,2024-06-20_15h28.09.664,LearnStrategy,2023.2.3,Win32,59.88023952,,,,,,,,,,,,,,,,,,,,,,,,,,,,,,,,,,,,,,,,,,,
61155a7ed7bb8ba7da579301,TCN,2024-06-20_15h28.09.664,LearnStrategy,2023.2.3,Win32,59.88023952,,,,,,,,,,,7,06,1,1,,,,,,,,,,,,,,,,,,,,,,,,,,,,,
61155a7ed7bb8ba7da579301,TCN,2024-06-20_15h28.09.664,LearnStrategy,2023.2.3,Win32,59.88023952,,,,,,,,,,,7,04,1,2,,,,,,,,,,,,,,,,,,,,,,,,,,,,,
61155a7ed7bb8ba7da579301,TCN,2024-06-20_15h28.09.664,LearnStrategy,2023.2.3,Win32,59.88023952,,,,,,,,,,,3,09,1,3,,,,,,,,,,,,,,,,,,,,,,,,,,,,,
61155a7ed7bb8ba7da579301,TCN,2024-06-20_15h28.09.664,LearnStrategy,2023.2.3,Win32,59.88023952,,,,,,,,,,,1,07,1,4,,,,,,,,,,,,,,,,,,,,,,,,,,,,,
61155a7ed7bb8ba7da579301,TCN,2024-06-20_15h28.09.664,LearnStrategy,2023.2.3,Win32,59.88023952,,,,,,,,,,,1,04,1,5,,,,,,,,,,,,,,,,,,,,,,,,,,,,,
61155a7ed7bb8ba7da579301,TCN,2024-06-20_15h28.09.664,LearnStrategy,2023.2.3,Win32,59.88023952,,,,,,,,,,,8,05,1,6,,,,,,,,,,,,,,,,,,,,,,,,,,,,,
61155a7ed7bb8ba7da579301,TCN,2024-06-20_15h28.09.664,LearnStrategy,2023.2.3,Win32,59.88023952,,,,,,,,,,,1,01,1,7,,,,,,,,,,,,,,,,,,,,,,,,,,,,,
61155a7ed7bb8ba7da579301,TCN,2024-06-20_15h28.09.664,LearnStrategy,2023.2.3,Win32,59.88023952,,,,,,,,,,,3,11,1,8,,,,,,,,,,,,,,,,,,,,,,,,,,,,,
61155a7ed7bb8ba7da579301,TCN,2024-06-20_15h28.09.664,LearnStrategy,2023.2.3,Win32,59.88023952,,,,,,,,,,,2,10,2,1,,,,,,,,,,,,,,,,,,,,,,,,,,,,,
61155a7ed7bb8ba7da579301,TCN,2024-06-20_15h28.09.664,LearnStrategy,2023.2.3,Win32,59.88023952,,,,,,,,,,,5,04,2,2,,,,,,,,,,,,,,,,,,,,,,,,,,,,,
61155a7ed7bb8ba7da579301,TCN,2024-06-20_15h28.09.664,LearnStrategy,2023.2.3,Win32,59.88023952,,,,,,,,,,,4,09,2,3,,,,,,,,,,,,,,,,,,,,,,,,,,,,,
61155a7ed7bb8ba7da579301,TCN,2024-06-20_15h28.09.664,LearnStrategy,2023.2.3,Win32,59.88023952,,,,,,,,,,,6,09,2,4,,,,,,,,,,,,,,,,,,,,,,,,,,,,,
61155a7ed7bb8ba7da579301,TCN,2024-06-20_15h28.09.664,LearnStrategy,2023.2.3,Win32,59.88023952,,,,,,,,,,,7,14,2,5,,,,,,,,,,,,,,,,,,,,,,,,,,,,,
61155a7ed7bb8ba7da579301,TCN,2024-06-20_15h28.09.664,LearnStrategy,2023.2.3,Win32,59.88023952,,,,,,,,,,,6,15,2,6,,,,,,,,,,,,,,,,,,,,,,,,,,,,,
61155a7ed7bb8ba7da579301,TCN,2024-06-20_15h28.09.664,LearnStrategy,2023.2.3,Win32,59.88023952,,,,,,,,,,,1,10,2,7,,,,,,,,,,,,,,,,,,,,,,,,,,,,,
61155a7ed7bb8ba7da579301,TCN,2024-06-20_15h28.09.664,LearnStrategy,2023.2.3,Win32,59.88023952,,,,,,,,,,,1,09,2,8,,,,,,,,,,,,,,,,,,,,,,,,,,,,,
61155a7ed7bb8ba7da579301,TCN,2024-06-20_15h28.09.664,LearnStrategy,2023.2.3,Win32,59.88023952,,,,,,,,,,,8,04,3,1,,,,,,,,,,,,,,,,,,,,,,,,,,,,,
61155a7ed7bb8ba7da579301,TCN,2024-06-20_15h28.09.664,LearnStrategy,2023.2.3,Win32,59.88023952,,,,,,,,,,,5,06,3,2,,,,,,,,,,,,,,,,,,,,,,,,,,,,,
61155a7ed7bb8ba7da579301,TCN,2024-06-20_15h28.09.664,LearnStrategy,2023.2.3,Win32,59.88023952,,,,,,,,,,,5,05,3,3,,,,,,,,,,,,,,,,,,,,,,,,,,,,,
61155a7ed7bb8ba7da579301,TCN,2024-06-20_15h28.09.664,LearnStrategy,2023.2.3,Win32,59.88023952,,,,,,,,,,,6,11,3,4,,,,,,,,,,,,,,,,,,,,,,,,,,,,,
61155a7ed7bb8ba7da579301,TCN,2024-06-20_15h28.09.664,LearnStrategy,2023.2.3,Win32,59.88023952,,,,,,,,,,,3,15,3,5,,,,,,,,,,,,,,,,,,,,,,,,,,,,,
61155a7ed7bb8ba7da579301,TCN,2024-06-20_15h28.09.664,LearnStrategy,2023.2.3,Win32,59.88023952,,,,,,,,,,,7,16,3,6,,,,,,,,,,,,,,,,,,,,,,,,,,,,,
61155a7ed7bb8ba7da579301,TCN,2024-06-20_15h28.09.664,LearnStrategy,2023.2.3,Win32,59.88023952,,,,,,,,,,,8,08,3,7,,,,,,,,,,,,,,,,,,,,,,,,,,,,,
61155a7ed7bb8ba7da579301,TCN,2024-06-20_15h28.09.664,LearnStrategy,2023.2.3,Win32,59.88023952,,,,,,,,,,,2,01,3,8,,,,,,,,,,,,,,,,,,,,,,,,,,,,,
61155a7ed7bb8ba7da579301,TCN,2024-06-20_15h28.09.664,LearnStrategy,2023.2.3,Win32,59.88023952,,,,,,,,,,,8,03,4,1,,,,,,,,,,,,,,,,,,,,,,,,,,,,,
61155a7ed7bb8ba7da579301,TCN,2024-06-20_15h28.09.664,LearnStrategy,2023.2.3,Win32,59.88023952,,,,,,,,,,,4,12,4,2,,,,,,,,,,,,,,,,,,,,,,,,,,,,,
61155a7ed7bb8ba7da579301,TCN,2024-06-20_15h28.09.664,LearnStrategy,2023.2.3,Win32,59.88023952,,,,,,,,,,,4,13,4,3,,,,,,,,,,,,,,,,,,,,,,,,,,,,,
61155a7ed7bb8ba7da579301,TCN,2024-06-20_15h28.09.664,LearnStrategy,2023.2.3,Win32,59.88023952,,,,,,,,,,,3,02,4,4,,,,,,,,,,,,,,,,,,,,,,,,,,,,,
61155a7ed7bb8ba7da579301,TCN,2024-06-20_15h28.09.664,LearnStrategy,2023.2.3,Win32,59.88023952,,,,,,,,,,,6,07,4,5,,,,,,,,,,,,,,,,,,,,,,,,,,,,,
61155a7ed7bb8ba7da579301,TCN,2024-06-20_15h28.09.664,LearnStrategy,2023.2.3,Win32,59.88023952,,,,,,,,,,,4,11,4,6,,,,,,,,,,,,,,,,,,,,,,,,,,,,,
61155a7ed7bb8ba7da579301,TCN,2024-06-20_15h28.09.664,LearnStrategy,2023.2.3,Win32,59.88023952,,,,,,,,,,,2,02,4,7,,,,,,,,,,,,,,,,,,,,,,,,,,,,,
61155a7ed7bb8ba7da579301,TCN,2024-06-20_15h28.09.664,LearnStrategy,2023.2.3,Win32,59.88023952,,,,,,,,,,,3,06,4,8,,,,,,,,,,,,,,,,,,,,,,,,,,,,,
61155a7ed7bb8ba7da579301,TCN,2024-06-20_15h28.09.664,LearnStrategy,2023.2.3,Win32,59.88023952,,,,,,,,,,,5,08,5,1,,,,,,,,,,,,,,,,,,,,,,,,,,,,,
61155a7ed7bb8ba7da579301,TCN,2024-06-20_15h28.09.664,LearnStrategy,2023.2.3,Win32,59.88023952,,,,,,,,,,,3,14,5,2,,,,,,,,,,,,,,,,,,,,,,,,,,,,,
61155a7ed7bb8ba7da579301,TCN,2024-06-20_15h28.09.664,LearnStrategy,2023.2.3,Win32,59.88023952,,,,,,,,,,,8,15,5,3,,,,,,,,,,,,,,,,,,,,,,,,,,,,,
61155a7ed7bb8ba7da579301,TCN,2024-06-20_15h28.09.664,LearnStrategy,2023.2.3,Win32,59.88023952,,,,,,,,,,,2,11,5,4,,,,,,,,,,,,,,,,,,,,,,,,,,,,,
61155a7ed7bb8ba7da579301,TCN,2024-06-20_15h28.09.664,LearnStrategy,2023.2.3,Win32,59.88023952,,,,,,,,,,,7,10,5,5,,,,,,,,,,,,,,,,,,,,,,,,,,,,,
61155a7ed7bb8ba7da579301,TCN,2024-06-20_15h28.09.664,LearnStrategy,2023.2.3,Win32,59.88023952,,,,,,,,,,,7,15,5,6,,,,,,,,,,,,,,,,,,,,,,,,,,,,,
61155a7ed7bb8ba7da579301,TCN,2024-06-20_15h28.09.664,LearnStrategy,2023.2.3,Win32,59.88023952,,,,,,,,,,,6,08,5,7,,,,,,,,,,,,,,,,,,,,,,,,,,,,,
61155a7ed7bb8ba7da579301,TCN,2024-06-20_15h28.09.664,LearnStrategy,2023.2.3,Win32,59.88023952,,,,,,,,,,,1,06,5,8,,,,,,,,,,,,,,,,,,,,,,,,,,,,,
61155a7ed7bb8ba7da579301,TCN,2024-06-20_15h28.09.664,LearnStrategy,2023.2.3,Win32,59.88023952,,,,,,,,,,,6,03,6,1,,,,,,,,,,,,,,,,,,,,,,,,,,,,,
61155a7ed7bb8ba7da579301,TCN,2024-06-20_15h28.09.664,LearnStrategy,2023.2.3,Win32,59.88023952,,,,,,,,,,,4,15,6,2,,,,,,,,,,,,,,,,,,,,,,,,,,,,,
61155a7ed7bb8ba7da579301,TCN,2024-06-20_15h28.09.664,LearnStrategy,2023.2.3,Win32,59.88023952,,,,,,,,,,,2,14,6,3,,,,,,,,,,,,,,,,,,,,,,,,,,,,,
61155a7ed7bb8ba7da579301,TCN,2024-06-20_15h28.09.664,LearnStrategy,2023.2.3,Win32,59.88023952,,,,,,,,,,,5,09,6,4,,,,,,,,,,,,,,,,,,,,,,,,,,,,,
61155a7ed7bb8ba7da579301,TCN,2024-06-20_15h28.09.664,LearnStrategy,2023.2.3,Win32,59.88023952,,,,,,,,,,,2,12,6,5,,,,,,,,,,,,,,,,,,,,,,,,,,,,,
61155a7ed7bb8ba7da579301,TCN,2024-06-20_15h28.09.664,LearnStrategy,2023.2.3,Win32,59.88023952,,,,,,,,,,,4,10,6,6,,,,,,,,,,,,,,,,,,,,,,,,,,,,,
61155a7ed7bb8ba7da579301,TCN,2024-06-20_15h28.09.664,LearnStrategy,2023.2.3,Win32,59.88023952,,,,,,,,,,,5,11,6,7,,,,,,,,,,,,,,,,,,,,,,,,,,,,,
61155a7ed7bb8ba7da579301,TCN,2024-06-20_15h28.09.664,LearnStrategy,2023.2.3,Win32,59.88023952,,,,,,,,,,,8,16,6,8,,,,,,,,,,,,,,,,,,,,,,,,,,,,,