participant,condition,date,expName,psychopyVersion,OS,frameRate,block,phase,trial,learn_mouse.x,learn_mouse.y,learn_mouse.leftButton,learn_mouse.midButton,learn_mouse.rightButton,learn_mouse.time,learn_mouse.clicked_name,cat,token,row,col,t_select,cat_mouse_l.x,cat_mouse_l.y,cat_mouse_l.leftButton,cat_mouse_l.midButton,cat_mouse_l.rightButton,cat_mouse_l.time,cat_mouse_l.clicked_name,resp,t_resp,corr,train_trials.thisRepN,train_trials.thisTrialN,train_trials.thisN,train_trials.thisIndex,train_trials.ran,cat_mouse_t.x,cat_mouse_t.y,cat_mouse_t.leftButton,cat_mouse_t.midButton,cat_mouse_t.rightButton,cat_mouse_t.time,cat_mouse_t.clicked_name,test_trials.thisRepN,test_trials.thisTrialN,test_trials.thisN,test_trials.thisIndex,test_trials.ran
61267e282a445af9eb95beae,SCN,2024-06-10_15h02.18.257,LearnStrategy,2023.2.3,Win32,59.88023952,,,,,,,,,,,,,,,,,,,,,,,,,,,,,,,,,,,,,,,,,,
61267e282a445af9eb95beae,SCN,2024-06-10_15h02.18.257,LearnStrategy,2023.2.3,Win32,59.88023952,1,1,1,0.080555556,0.058333333,1,0,0,3.8252,Obsidian_12,5,12,4,5,3.825,-0.421296296,-0.408333333,1,0,0,12.3931,Obsidian_rect,5,12.393,1,0,0,0,0,1,,,,,,,,,,,,
61267e282a445af9eb95beae,SCN,2024-06-10_15h02.18.257,LearnStrategy,2023.2.3,Win32,59.88023952,1,1,2,-0.519444444,-0.27962963,1,0,0,9.0249,Diorite_06,3,06,2,1,9.025,-0.168518519,-0.238888889,1,0,0,14.9694,Basalt_rect,2,14.969,0,1,0,1,0,1,,,,,,,,,,,,
61267e282a445af9eb95beae,SCN,2024-06-10_15h02.18.257,LearnStrategy,2023.2.3,Win32,59.88023952,1,1,3,-0.213888889,-0.223148148,1,0,0,5.5043,Diorite_08,3,08,2,3,5.504,-0.432407407,-0.236111111,1,0,0,17.9231,Andesite_rect,1,17.923,0,2,0,2,0,1,,,,,,,,,,,,
61267e282a445af9eb95beae,SCN,2024-06-10_15h02.18.257,LearnStrategy,2023.2.3,Win32,59.88023952,1,1,4,0.077777778,-0.07962963,1,0,0,5.7378,Andesite_03,1,03,3,5,5.738,-0.181481481,-0.262037037,1,0,0,11.7827,Basalt_rect,2,11.783,0,3,0,3,0,1,,,,,,,,,,,,
61267e282a445af9eb95beae,SCN,2024-06-10_15h02.18.257,LearnStrategy,2023.2.3,Win32,59.88023952,1,1,5,0.242592593,-0.415740741,1,0,0,3.3521,Pumice_14,8,14,1,6,3.352,-0.04537037,-0.248148148,1,0,0,12.6401,Basalt_rect,2,12.64,0,4,0,4,0,1,,,,,,,,,,,,
61267e282a445af9eb95beae,SCN,2024-06-10_15h02.18.257,LearnStrategy,2023.2.3,Win32,59.88023952,1,1,6,-0.432407407,-0.082407407,1,0,0,1.717,Pegmatite_13,6,13,3,2,1.717,-0.156481481,-0.390740741,1,0,0,6.9174,Pegmatite_rect,6,6.917,1,5,0,5,0,1,,,,,,,,,,,,
61267e282a445af9eb95beae,SCN,2024-06-10_15h02.18.257,LearnStrategy,2023.2.3,Win32,59.88023952,1,1,7,-0.562037037,0.25462963,1,0,0,5.3542,Pumice_16,8,16,5,1,5.354,-0.12962963,-0.244444444,1,0,0,2.6908,Basalt_rect,2,2.691,0,6,0,6,0,1,,,,,,,,,,,,
61267e282a445af9eb95beae,SCN,2024-06-10_15h02.18.257,LearnStrategy,2023.2.3,Win32,59.88023952,1,1,8,0.099074074,0.397222222,1,0,0,4.8703,Basalt_08,2,08,6,5,4.87,-0.100925926,-0.232407407,1,0,0,1.9235,Basalt_rect,2,1.923,1,7,0,7,0,1,,,,,,,,,,,,
61267e282a445af9eb95beae,SCN,2024-06-10_15h02.18.257,LearnStrategy,2023.2.3,Win32,59.88023952,1,1,9,0.390740741,-0.391666667,1,0,0,2.768,Peridotite_13,7,13,1,7,2.768,0.125,-0.383333333,1,0,0,3.1974,Peridotite_rect,7,3.197,1,8,0,8,0,1,,,,,,,,,,,,
61267e282a445af9eb95beae,SCN,2024-06-10_15h02.18.257,LearnStrategy,2023.2.3,Win32,59.88023952,1,1,10,0.525,-0.242592593,1,0,0,5.204,Peridotite_16,7,16,2,8,5.204,0.474074074,-0.262962963,1,0,0,6.7119,Gabbro_rect,4,6.712,0,9,0,9,0,1,,,,,,,,,,,,
61267e282a445af9eb95beae,SCN,2024-06-10_15h02.18.257,LearnStrategy,2023.2.3,Win32,59.88023952,1,1,11,-0.110185185,0.383333333,1,0,0,33.3825,Gabbro_01,4,01,6,4,33.382,0.340740741,-0.251851852,1,0,0,1.4387,Gabbro_rect,4,1.439,1,10,0,10,0,1,,,,,,,,,,,,
61267e282a445af9eb95beae,SCN,2024-06-10_15h02.18.257,LearnStrategy,2023.2.3,Win32,59.88023952,1,1,12,-0.227777778,0.056481481,1,0,0,2.0501,Obsidian_10,5,10,4,3,2.05,-0.32962963,-0.378703704,1,0,0,3.3313,Obsidian_rect,5,3.331,1,11,0,11,0,1,,,,,,,,,,,,
61267e282a445af9eb95beae,SCN,2024-06-10_15h02.18.257,LearnStrategy,2023.2.3,Win32,59.88023952,1,1,13,-0.383333333,-0.248148148,1,0,0,6.6056,Diorite_15,3,15,2,2,6.606,0.135185185,-0.247222222,1,0,0,10.8324,Diorite_rect,3,10.832,1,12,0,12,0,1,,,,,,,,,,,,
61267e282a445af9eb95beae,SCN,2024-06-10_15h02.18.257,LearnStrategy,2023.2.3,Win32,59.88023952,1,1,14,0.374074074,-0.262962963,1,0,0,2.952,Pumice_09,8,09,2,7,2.952,-0.1,-0.246296296,1,0,0,2.1897,Basalt_rect,2,2.19,0,13,0,13,0,1,,,,,,,,,,,,
61267e282a445af9eb95beae,SCN,2024-06-10_15h02.18.257,LearnStrategy,2023.2.3,Win32,59.88023952,1,1,15,0.223148148,-0.264814815,1,0,0,2.7013,Pegmatite_10,6,10,2,6,2.701,0.060185185,-0.402777778,1,0,0,2.3298,Peridotite_rect,7,2.33,0,14,0,14,0,1,,,,,,,,,,,,
61267e282a445af9eb95beae,SCN,2024-06-10_15h02.18.257,LearnStrategy,2023.2.3,Win32,59.88023952,1,1,16,-0.364814815,-0.12962963,1,0,0,1.7836,Pegmatite_13,6,13,3,2,1.784,-0.165740741,-0.39537037,1,0,0,1.162,Pegmatite_rect,6,1.162,1,15,0,15,0,1,,,,,,,,,,,,
61267e282a445af9eb95beae,SCN,2024-06-10_15h02.18.257,LearnStrategy,2023.2.3,Win32,59.88023952,1,2,1,,,,,,,,8,06,,,,,,,,,,,8,5.533,1,,,,,,0.371296296,-0.391666667,1,0,0,5.533,Pumice_rect,0,0,0,0,1
61267e282a445af9eb95beae,SCN,2024-06-10_15h02.18.257,LearnStrategy,2023.2.3,Win32,59.88023952,1,2,2,,,,,,,,6,05,,,,,,,,,,,2,9.237,0,,,,,,-0.132407407,-0.262962963,1,0,0,9.237,Basalt_rect,1,0,1,0,1
61267e282a445af9eb95beae,SCN,2024-06-10_15h02.18.257,LearnStrategy,2023.2.3,Win32,59.88023952,1,2,3,,,,,,,,3,13,,,,,,,,,,,3,9.087,1,,,,,,0.080555556,-0.269444444,1,0,0,9.087,Diorite_rect,2,0,2,0,1
61267e282a445af9eb95beae,SCN,2024-06-10_15h02.18.257,LearnStrategy,2023.2.3,Win32,59.88023952,1,2,4,,,,,,,,6,07,,,,,,,,,,,6,2.53,1,,,,,,-0.100925926,-0.399074074,1,0,0,2.5304,Pegmatite_rect,3,0,3,0,1
61267e282a445af9eb95beae,SCN,2024-06-10_15h02.18.257,LearnStrategy,2023.2.3,Win32,59.88023952,1,2,5,,,,,,,,2,10,,,,,,,,,,,2,8.637,1,,,,,,-0.105555556,-0.264814815,1,0,0,8.6367,Basalt_rect,4,0,4,0,1
61267e282a445af9eb95beae,SCN,2024-06-10_15h02.18.257,LearnStrategy,2023.2.3,Win32,59.88023952,1,2,6,,,,,,,,5,11,,,,,,,,,,,5,1.512,1,,,,,,-0.333333333,-0.388888889,1,0,0,1.5124,Obsidian_rect,5,0,5,0,1
61267e282a445af9eb95beae,SCN,2024-06-10_15h02.18.257,LearnStrategy,2023.2.3,Win32,59.88023952,1,2,7,,,,,,,,5,07,,,,,,,,,,,5,14.493,1,,,,,,-0.363888889,-0.405555556,1,0,0,14.4931,Obsidian_rect,6,0,6,0,1
61267e282a445af9eb95beae,SCN,2024-06-10_15h02.18.257,LearnStrategy,2023.2.3,Win32,59.88023952,1,2,8,,,,,,,,8,05,,,,,,,,,,,8,4.349,1,,,,,,0.346296296,-0.39537037,1,0,0,4.3488,Pumice_rect,7,0,7,0,1
61267e282a445af9eb95beae,SCN,2024-06-10_15h02.18.257,LearnStrategy,2023.2.3,Win32,59.88023952,1,2,9,,,,,,,,4,10,,,,,,,,,,,4,14.826,1,,,,,,0.408333333,-0.25462963,1,0,0,14.8262,Gabbro_rect,8,0,8,0,1
61267e282a445af9eb95beae,SCN,2024-06-10_15h02.18.257,LearnStrategy,2023.2.3,Win32,59.88023952,1,2,10,,,,,,,,7,02,,,,,,,,,,,7,2.497,1,,,,,,0.131481481,-0.386111111,1,0,0,2.497,Peridotite_rect,9,0,9,0,1
61267e282a445af9eb95beae,SCN,2024-06-10_15h02.18.257,LearnStrategy,2023.2.3,Win32,59.88023952,1,2,11,,,,,,,,1,06,,,,,,,,,,,3,16.228,0,,,,,,0.077777778,-0.242592593,1,0,0,16.2275,Diorite_rect,10,0,10,0,1
61267e282a445af9eb95beae,SCN,2024-06-10_15h02.18.257,LearnStrategy,2023.2.3,Win32,59.88023952,1,2,12,,,,,,,,3,02,,,,,,,,,,,3,13.891,1,,,,,,0.178703704,-0.238888889,1,0,0,13.8914,Diorite_rect,11,0,11,0,1
61267e282a445af9eb95beae,SCN,2024-06-10_15h02.18.257,LearnStrategy,2023.2.3,Win32,59.88023952,1,2,13,,,,,,,,7,07,,,,,,,,,,,4,6.851,0,,,,,,0.335185185,-0.24537037,1,0,0,6.8511,Gabbro_rect,12,0,12,0,1
61267e282a445af9eb95beae,SCN,2024-06-10_15h02.18.257,LearnStrategy,2023.2.3,Win32,59.88023952,1,2,14,,,,,,,,4,13,,,,,,,,,,,4,8.52,1,,,,,,0.35,-0.262037037,1,0,0,8.5201,Gabbro_rect,13,0,13,0,1
61267e282a445af9eb95beae,SCN,2024-06-10_15h02.18.257,LearnStrategy,2023.2.3,Win32,59.88023952,1,2,15,,,,,,,,2,12,,,,,,,,,,,8,7.752,0,,,,,,0.410185185,-0.421296296,1,0,0,7.752,Pumice_rect,14,0,14,0,1
61267e282a445af9eb95beae,SCN,2024-06-10_15h02.18.257,LearnStrategy,2023.2.3,Win32,59.88023952,1,2,16,,,,,,,,1,14,,,,,,,,,,,6,2.947,0,,,,,,-0.071296296,-0.385185185,1,0,0,2.9474,Pegmatite_rect,15,0,15,0,1
61267e282a445af9eb95beae,SCN,2024-06-10_15h02.18.257,LearnStrategy,2023.2.3,Win32,59.88023952,2,1,1,-0.536111111,0.113888889,1,0,0,4.1867,Pegmatite_15,6,15,4,1,4.187,0.387037037,-0.242592593,1,0,0,3.959,Gabbro_rect,4,3.959,0,0,0,0,0,1,,,,,,,,,,,,
61267e282a445af9eb95beae,SCN,2024-06-10_15h02.18.257,LearnStrategy,2023.2.3,Win32,59.88023952,2,1,2,-0.373148148,0.062962963,1,0,0,2.9017,Gabbro_09,4,09,4,2,2.902,-0.165740741,-0.246296296,1,0,0,1.6961,Basalt_rect,2,1.696,0,1,0,1,0,1,,,,,,,,,,,,
61267e282a445af9eb95beae,SCN,2024-06-10_15h02.18.257,LearnStrategy,2023.2.3,Win32,59.88023952,2,1,3,-0.058333333,-0.387962963,1,0,0,2.9021,Pumice_13,8,13,1,4,2.902,0.406481481,-0.413888889,1,0,0,2.2634,Pumice_rect,8,2.263,1,2,0,2,0,1,,,,,,,,,,,,
61267e282a445af9eb95beae,SCN,2024-06-10_15h02.18.257,LearnStrategy,2023.2.3,Win32,59.88023952,2,1,4,-0.405555556,0.387037037,1,0,0,3.5693,Andesite_11,1,11,6,2,3.569,-0.378703704,-0.242592593,1,0,0,2.2405,Andesite_rect,1,2.24,1,3,0,3,0,1,,,,,,,,,,,,
61267e282a445af9eb95beae,SCN,2024-06-10_15h02.18.257,LearnStrategy,2023.2.3,Win32,59.88023952,2,1,5,-0.551851852,0.385185185,1,0,0,1.1331,Pegmatite_06,6,06,6,1,1.133,-0.115740741,-0.419444444,1,0,0,4.7493,Pegmatite_rect,6,4.749,1,4,0,4,0,1,,,,,,,,,,,,
61267e282a445af9eb95beae,SCN,2024-06-10_15h02.18.257,LearnStrategy,2023.2.3,Win32,59.88023952,2,1,6,-0.212037037,0.408333333,1,0,0,1.417,Gabbro_08,4,08,6,3,1.417,0.376851852,-0.236111111,1,0,0,2.0961,Gabbro_rect,4,2.096,1,5,0,5,0,1,,,,,,,,,,,,
61267e282a445af9eb95beae,SCN,2024-06-10_15h02.18.257,LearnStrategy,2023.2.3,Win32,59.88023952,2,1,7,-0.072222222,0.4,1,0,0,0.733,Gabbro_01,4,01,6,4,0.733,0.344444444,-0.230555556,1,0,0,4.8491,Gabbro_rect,4,4.849,1,6,0,6,0,1,,,,,,,,,,,,
61267e282a445af9eb95beae,SCN,2024-06-10_15h02.18.257,LearnStrategy,2023.2.3,Win32,59.88023952,2,1,8,0.075,0.387037037,1,0,0,0.8498,Basalt_08,2,08,6,5,0.85,-0.189814815,-0.268518519,1,0,0,1.0951,Basalt_rect,2,1.095,1,7,0,7,0,1,,,,,,,,,,,,
61267e282a445af9eb95beae,SCN,2024-06-10_15h02.18.257,LearnStrategy,2023.2.3,Win32,59.88023952,2,1,9,0.219444444,0.387037037,1,0,0,0.8668,Basalt_16,2,16,6,6,0.867,0.411111111,-0.405555556,1,0,0,3.1667,Pumice_rect,8,3.167,0,8,0,8,0,1,,,,,,,,,,,,
61267e282a445af9eb95beae,SCN,2024-06-10_15h02.18.257,LearnStrategy,2023.2.3,Win32,59.88023952,2,1,10,0.402777778,0.4,1,0,0,0.8999,Obsidian_04,5,04,6,7,0.9,-0.359259259,-0.391666667,1,0,0,1.1791,Obsidian_rect,5,1.179,1,9,0,9,0,1,,,,,,,,,,,,
61267e282a445af9eb95beae,SCN,2024-06-10_15h02.18.257,LearnStrategy,2023.2.3,Win32,59.88023952,2,1,11,0.542592593,0.399074074,1,0,0,0.7498,Peridotite_12,7,12,6,8,0.75,0.150925926,-0.252777778,1,0,0,12.5238,Diorite_rect,3,12.524,0,10,0,10,0,1,,,,,,,,,,,,
61267e282a445af9eb95beae,SCN,2024-06-10_15h02.18.257,LearnStrategy,2023.2.3,Win32,59.88023952,2,1,12,-0.553703704,0.218518519,1,0,0,1.617,Pumice_16,8,16,5,1,1.617,0.403703704,-0.408333333,1,0,0,1.6624,Pumice_rect,8,1.662,1,11,0,11,0,1,,,,,,,,,,,,
61267e282a445af9eb95beae,SCN,2024-06-10_15h02.18.257,LearnStrategy,2023.2.3,Win32,59.88023952,2,1,13,-0.424074074,0.251851852,1,0,0,0.6496,Diorite_07,3,07,5,2,0.65,-0.362962963,-0.246296296,1,0,0,39.6672,Andesite_rect,1,39.667,0,12,0,12,0,1,,,,,,,,,,,,
61267e282a445af9eb95beae,SCN,2024-06-10_15h02.18.257,LearnStrategy,2023.2.3,Win32,59.88023952,2,1,14,-0.206481481,0.24537037,1,0,0,0.7829,Andesite_07,1,07,5,3,0.783,-0.393518519,-0.244444444,1,0,0,3.2977,Andesite_rect,1,3.298,1,13,0,13,0,1,,,,,,,,,,,,
61267e282a445af9eb95beae,SCN,2024-06-10_15h02.18.257,LearnStrategy,2023.2.3,Win32,59.88023952,2,1,15,-0.068518519,0.228703704,1,0,0,0.7497,Andesite_16,1,16,5,4,0.75,0.1,-0.247222222,1,0,0,33.6109,Diorite_rect,3,33.611,0,14,0,14,0,1,,,,,,,,,,,,
61267e282a445af9eb95beae,SCN,2024-06-10_15h02.18.257,LearnStrategy,2023.2.3,Win32,59.88023952,2,1,16,0.086111111,0.226851852,1,0,0,1.4169,Basalt_02,2,02,5,5,1.417,-0.409259259,-0.239814815,1,0,0,23.9515,Andesite_rect,1,23.952,0,15,0,15,0,1,,,,,,,,,,,,
61267e282a445af9eb95beae,SCN,2024-06-10_15h02.18.257,LearnStrategy,2023.2.3,Win32,59.88023952,2,2,1,,,,,,,,6,16,,,,,,,,,,,6,2.43,1,,,,,,-0.115740741,-0.400925926,1,0,0,2.4303,Pegmatite_rect,0,0,0,0,1
61267e282a445af9eb95beae,SCN,2024-06-10_15h02.18.257,LearnStrategy,2023.2.3,Win32,59.88023952,2,2,2,,,,,,,,8,15,,,,,,,,,,,8,2.813,1,,,,,,0.416666667,-0.40462963,1,0,0,2.8135,Pumice_rect,1,0,1,0,1
61267e282a445af9eb95beae,SCN,2024-06-10_15h02.18.257,LearnStrategy,2023.2.3,Win32,59.88023952,2,2,3,,,,,,,,4,16,,,,,,,,,,,2,3.197,0,,,,,,-0.098148148,-0.247222222,1,0,0,3.1975,Basalt_rect,2,0,2,0,1
61267e282a445af9eb95beae,SCN,2024-06-10_15h02.18.257,LearnStrategy,2023.2.3,Win32,59.88023952,2,2,4,,,,,,,,8,02,,,,,,,,,,,8,1.479,1,,,,,,0.416666667,-0.413888889,1,0,0,1.4793,Pumice_rect,3,0,3,0,1
61267e282a445af9eb95beae,SCN,2024-06-10_15h02.18.257,LearnStrategy,2023.2.3,Win32,59.88023952,2,2,5,,,,,,,,1,01,,,,,,,,,,,2,8.419,0,,,,,,-0.086111111,-0.253703704,1,0,0,8.419,Basalt_rect,4,0,4,0,1
61267e282a445af9eb95beae,SCN,2024-06-10_15h02.18.257,LearnStrategy,2023.2.3,Win32,59.88023952,2,2,6,,,,,,,,1,02,,,,,,,,,,,6,5.733,0,,,,,,-0.101851852,-0.406481481,1,0,0,5.7331,Pegmatite_rect,5,0,5,0,1
61267e282a445af9eb95beae,SCN,2024-06-10_15h02.18.257,LearnStrategy,2023.2.3,Win32,59.88023952,2,2,7,,,,,,,,7,04,,,,,,,,,,,6,11.556,0,,,,,,-0.088888889,-0.381481481,1,0,0,11.556,Pegmatite_rect,6,0,6,0,1
61267e282a445af9eb95beae,SCN,2024-06-10_15h02.18.257,LearnStrategy,2023.2.3,Win32,59.88023952,2,2,8,,,,,,,,5,16,,,,,,,,,,,5,2.081,1,,,,,,-0.411111111,-0.407407407,1,0,0,2.0808,Obsidian_rect,7,0,7,0,1
61267e282a445af9eb95beae,SCN,2024-06-10_15h02.18.257,LearnStrategy,2023.2.3,Win32,59.88023952,2,2,9,,,,,,,,6,09,,,,,,,,,,,6,3.098,1,,,,,,-0.060185185,-0.390740741,1,0,0,3.0976,Pegmatite_rect,8,0,8,0,1
61267e282a445af9eb95beae,SCN,2024-06-10_15h02.18.257,LearnStrategy,2023.2.3,Win32,59.88023952,2,2,10,,,,,,,,2,09,,,,,,,,,,,2,1.913,1,,,,,,-0.130555556,-0.25,1,0,0,1.9129,Basalt_rect,9,0,9,0,1
61267e282a445af9eb95beae,SCN,2024-06-10_15h02.18.257,LearnStrategy,2023.2.3,Win32,59.88023952,2,2,11,,,,,,,,7,05,,,,,,,,,,,7,2.88,1,,,,,,0.121296296,-0.397222222,1,0,0,2.8805,Peridotite_rect,10,0,10,0,1
61267e282a445af9eb95beae,SCN,2024-06-10_15h02.18.257,LearnStrategy,2023.2.3,Win32,59.88023952,2,2,12,,,,,,,,3,14,,,,,,,,,,,3,26.721,1,,,,,,0.12962963,-0.243518519,1,0,0,26.721,Diorite_rect,11,0,11,0,1
61267e282a445af9eb95beae,SCN,2024-06-10_15h02.18.257,LearnStrategy,2023.2.3,Win32,59.88023952,2,2,13,,,,,,,,3,09,,,,,,,,,,,3,2.013,1,,,,,,0.138888889,-0.253703704,1,0,0,2.0133,Diorite_rect,12,0,12,0,1
61267e282a445af9eb95beae,SCN,2024-06-10_15h02.18.257,LearnStrategy,2023.2.3,Win32,59.88023952,2,2,14,,,,,,,,2,05,,,,,,,,,,,2,2.681,1,,,,,,-0.106481481,-0.257407407,1,0,0,2.6807,Basalt_rect,13,0,13,0,1
61267e282a445af9eb95beae,SCN,2024-06-10_15h02.18.257,LearnStrategy,2023.2.3,Win32,59.88023952,2,2,15,,,,,,,,4,14,,,,,,,,,,,4,12.39,1,,,,,,0.437962963,-0.271296296,1,0,0,12.3902,Gabbro_rect,14,0,14,0,1
61267e282a445af9eb95beae,SCN,2024-06-10_15h02.18.257,LearnStrategy,2023.2.3,Win32,59.88023952,2,2,16,,,,,,,,5,09,,,,,,,,,,,5,1.246,1,,,,,,-0.428703704,-0.387037037,1,0,0,1.2458,Obsidian_rect,15,0,15,0,1
61267e282a445af9eb95beae,SCN,2024-06-10_15h02.18.257,LearnStrategy,2023.2.3,Win32,59.88023952,3,1,1,0.22962963,0.253703704,1,0,0,5.1375,Diorite_10,3,10,5,6,5.138,0.149074074,-0.246296296,1,0,0,1.8396,Diorite_rect,3,1.84,1,0,0,0,0,1,,,,,,,,,,,,
61267e282a445af9eb95beae,SCN,2024-06-10_15h02.18.257,LearnStrategy,2023.2.3,Win32,59.88023952,3,1,2,0.530555556,0.246296296,1,0,0,1.0839,Obsidian_14,5,14,5,8,1.084,-0.406481481,-0.391666667,1,0,0,1.1954,Obsidian_rect,5,1.195,1,1,0,1,0,1,,,,,,,,,,,,
61267e282a445af9eb95beae,SCN,2024-06-10_15h02.18.257,LearnStrategy,2023.2.3,Win32,59.88023952,3,1,3,-0.567592593,0.063888889,1,0,0,2.7352,Pegmatite_15,6,15,4,1,2.735,-0.187962963,-0.408333333,1,0,0,1.7626,Pegmatite_rect,6,1.763,1,2,0,2,0,1,,,,,,,,,,,,
61267e282a445af9eb95beae,SCN,2024-06-10_15h02.18.257,LearnStrategy,2023.2.3,Win32,59.88023952,3,1,4,-0.380555556,0.067592593,1,0,0,0.6997,Gabbro_09,4,09,4,2,0.7,-0.125,-0.234259259,1,0,0,1.6629,Basalt_rect,2,1.663,0,3,0,3,0,1,,,,,,,,,,,,
61267e282a445af9eb95beae,SCN,2024-06-10_15h02.18.257,LearnStrategy,2023.2.3,Win32,59.88023952,3,1,5,-0.223148148,0.066666667,1,0,0,0.9001,Obsidian_10,5,10,4,3,0.9,-0.357407407,-0.417592593,1,0,0,1.012,Obsidian_rect,5,1.012,1,4,0,4,0,1,,,,,,,,,,,,
61267e282a445af9eb95beae,SCN,2024-06-10_15h02.18.257,LearnStrategy,2023.2.3,Win32,59.88023952,3,1,6,-0.065740741,0.078703704,1,0,0,0.5663,Peridotite_06,7,06,4,4,0.566,0.12962963,-0.413888889,1,0,0,1.6793,Peridotite_rect,7,1.679,1,5,0,5,0,1,,,,,,,,,,,,
61267e282a445af9eb95beae,SCN,2024-06-10_15h02.18.257,LearnStrategy,2023.2.3,Win32,59.88023952,3,1,7,0.092592593,0.090740741,1,0,0,0.5328,Obsidian_12,5,12,4,5,0.533,-0.381481481,-0.385185185,1,0,0,0.7119,Obsidian_rect,5,0.712,1,6,0,6,0,1,,,,,,,,,,,,
61267e282a445af9eb95beae,SCN,2024-06-10_15h02.18.257,LearnStrategy,2023.2.3,Win32,59.88023952,3,1,8,0.200925926,0.090740741,1,0,0,0.5497,Andesite_04,1,04,4,6,0.55,0.37962963,-0.24537037,1,0,0,6.9035,Gabbro_rect,4,6.903,0,7,0,7,0,1,,,,,,,,,,,,
61267e282a445af9eb95beae,SCN,2024-06-10_15h02.18.257,LearnStrategy,2023.2.3,Win32,59.88023952,3,1,9,0.355555556,0.107407407,1,0,0,10.1756,Basalt_06,2,06,4,7,10.176,-0.140740741,-0.250925926,1,0,0,0.8392,Basalt_rect,2,0.839,1,8,0,8,0,1,,,,,,,,,,,,
61267e282a445af9eb95beae,SCN,2024-06-10_15h02.18.257,LearnStrategy,2023.2.3,Win32,59.88023952,3,1,10,0.535185185,0.105555556,1,0,0,0.6665,Diorite_11,3,11,4,8,0.666,-0.415740741,-0.262962963,1,0,0,6.0501,Andesite_rect,1,6.05,0,9,0,9,0,1,,,,,,,,,,,,
61267e282a445af9eb95beae,SCN,2024-06-10_15h02.18.257,LearnStrategy,2023.2.3,Win32,59.88023952,3,1,11,-0.515740741,-0.132407407,1,0,0,0.9162,Pegmatite_12,6,12,3,1,0.916,-0.174074074,-0.393518519,1,0,0,1.6792,Pegmatite_rect,6,1.679,1,10,0,10,0,1,,,,,,,,,,,,
61267e282a445af9eb95beae,SCN,2024-06-10_15h02.18.257,LearnStrategy,2023.2.3,Win32,59.88023952,3,1,12,-0.346296296,-0.110185185,1,0,0,0.8001,Pegmatite_13,6,13,3,2,0.8,-0.092592593,-0.415740741,1,0,0,0.9629,Pegmatite_rect,6,0.963,1,11,0,11,0,1,,,,,,,,,,,,
61267e282a445af9eb95beae,SCN,2024-06-10_15h02.18.257,LearnStrategy,2023.2.3,Win32,59.88023952,3,1,13,-0.217592593,-0.093518519,1,0,0,0.5667,Basalt_04,2,04,3,3,0.567,-0.14537037,-0.250925926,1,0,0,1.7456,Basalt_rect,2,1.746,1,12,0,12,0,1,,,,,,,,,,,,
61267e282a445af9eb95beae,SCN,2024-06-10_15h02.18.257,LearnStrategy,2023.2.3,Win32,59.88023952,3,1,14,-0.077777778,-0.09537037,1,0,0,0.7835,Gabbro_11,4,11,3,4,0.784,0.030555556,-0.268518519,1,0,0,2.2467,Diorite_rect,3,2.247,0,13,0,13,0,1,,,,,,,,,,,,
61267e282a445af9eb95beae,SCN,2024-06-10_15h02.18.257,LearnStrategy,2023.2.3,Win32,59.88023952,3,1,15,0.086111111,-0.088888889,1,0,0,0.5323,Andesite_03,1,03,3,5,0.532,-0.349074074,-0.239814815,1,0,0,1.3459,Andesite_rect,1,1.346,1,14,0,14,0,1,,,,,,,,,,,,
61267e282a445af9eb95beae,SCN,2024-06-10_15h02.18.257,LearnStrategy,2023.2.3,Win32,59.88023952,3,1,16,0.217592593,-0.105555556,1,0,0,1.1337,Obsidian_08,5,08,3,6,1.134,-0.431481481,-0.387962963,1,0,0,0.7786,Obsidian_rect,5,0.779,1,15,0,15,0,1,,,,,,,,,,,,
61267e282a445af9eb95beae,SCN,2024-06-10_15h02.18.257,LearnStrategy,2023.2.3,Win32,59.88023952,3,2,1,,,,,,,,3,12,,,,,,,,,,,3,15.793,1,,,,,,0.112962963,-0.255555556,1,0,0,15.7934,Diorite_rect,0,0,0,0,1
61267e282a445af9eb95beae,SCN,2024-06-10_15h02.18.257,LearnStrategy,2023.2.3,Win32,59.88023952,3,2,2,,,,,,,,5,06,,,,,,,,,,,5,1.596,1,,,,,,-0.380555556,-0.405555556,1,0,0,1.5962,Obsidian_rect,1,0,1,0,1
61267e282a445af9eb95beae,SCN,2024-06-10_15h02.18.257,LearnStrategy,2023.2.3,Win32,59.88023952,3,2,3,,,,,,,,5,02,,,,,,,,,,,5,0.723,1,,,,,,-0.380555556,-0.405555556,1,0,0,0.7228,Obsidian_rect,2,0,2,0,1
61267e282a445af9eb95beae,SCN,2024-06-10_15h02.18.257,LearnStrategy,2023.2.3,Win32,59.88023952,3,2,4,,,,,,,,2,11,,,,,,,,,,,2,2.598,1,,,,,,-0.131481481,-0.246296296,1,0,0,2.5975,Basalt_rect,3,0,3,0,1
61267e282a445af9eb95beae,SCN,2024-06-10_15h02.18.257,LearnStrategy,2023.2.3,Win32,59.88023952,3,2,5,,,,,,,,3,16,,,,,,,,,,,1,2.113,0,,,,,,-0.473148148,-0.251851852,1,0,0,2.1134,Andesite_rect,4,0,4,0,1
61267e282a445af9eb95beae,SCN,2024-06-10_15h02.18.257,LearnStrategy,2023.2.3,Win32,59.88023952,3,2,6,,,,,,,,1,10,,,,,,,,,,,1,9.824,1,,,,,,-0.389814815,-0.262037037,1,0,0,9.8239,Andesite_rect,5,0,5,0,1
61267e282a445af9eb95beae,SCN,2024-06-10_15h02.18.257,LearnStrategy,2023.2.3,Win32,59.88023952,3,2,7,,,,,,,,8,03,,,,,,,,,,,8,2.747,1,,,,,,0.388888889,-0.408333333,1,0,0,2.7473,Pumice_rect,6,0,6,0,1
61267e282a445af9eb95beae,SCN,2024-06-10_15h02.18.257,LearnStrategy,2023.2.3,Win32,59.88023952,3,2,8,,,,,,,,6,03,,,,,,,,,,,7,2.948,0,,,,,,0.114814815,-0.408333333,1,0,0,2.9479,Peridotite_rect,7,0,7,0,1
61267e282a445af9eb95beae,SCN,2024-06-10_15h02.18.257,LearnStrategy,2023.2.3,Win32,59.88023952,3,2,9,,,,,,,,6,08,,,,,,,,,,,6,1.246,1,,,,,,-0.162962963,-0.405555556,1,0,0,1.246,Pegmatite_rect,8,0,8,0,1
61267e282a445af9eb95beae,SCN,2024-06-10_15h02.18.257,LearnStrategy,2023.2.3,Win32,59.88023952,3,2,10,,,,,,,,4,05,,,,,,,,,,,4,5.834,1,,,,,,0.369444444,-0.239814815,1,0,0,5.8341,Gabbro_rect,9,0,9,0,1
61267e282a445af9eb95beae,SCN,2024-06-10_15h02.18.257,LearnStrategy,2023.2.3,Win32,59.88023952,3,2,11,,,,,,,,7,14,,,,,,,,,,,3,6.368,0,,,,,,0.189814815,-0.253703704,1,0,0,6.3678,Diorite_rect,10,0,10,0,1
61267e282a445af9eb95beae,SCN,2024-06-10_15h02.18.257,LearnStrategy,2023.2.3,Win32,59.88023952,3,2,12,,,,,,,,2,14,,,,,,,,,,,2,3.551,1,,,,,,-0.138888889,-0.246296296,1,0,0,3.5506,Basalt_rect,11,0,11,0,1
61267e282a445af9eb95beae,SCN,2024-06-10_15h02.18.257,LearnStrategy,2023.2.3,Win32,59.88023952,3,2,13,,,,,,,,7,10,,,,,,,,,,,3,2.914,0,,,,,,0.10462963,-0.257407407,1,0,0,2.914,Diorite_rect,12,0,12,0,1
61267e282a445af9eb95beae,SCN,2024-06-10_15h02.18.257,LearnStrategy,2023.2.3,Win32,59.88023952,3,2,14,,,,,,,,4,12,,,,,,,,,,,3,3.264,0,,,,,,0.096296296,-0.261111111,1,0,0,3.2644,Diorite_rect,13,0,13,0,1
61267e282a445af9eb95beae,SCN,2024-06-10_15h02.18.257,LearnStrategy,2023.2.3,Win32,59.88023952,3,2,15,,,,,,,,8,08,,,,,,,,,,,8,4.533,1,,,,,,0.369444444,-0.386111111,1,0,0,4.5325,Pumice_rect,14,0,14,0,1
61267e282a445af9eb95beae,SCN,2024-06-10_15h02.18.257,LearnStrategy,2023.2.3,Win32,59.88023952,3,2,16,,,,,,,,1,05,,,,,,,,,,,7,1.63,0,,,,,,0.19537037,-0.403703704,1,0,0,1.6301,Peridotite_rect,15,0,15,0,1
61267e282a445af9eb95beae,SCN,2024-06-10_15h02.18.257,LearnStrategy,2023.2.3,Win32,59.88023952,4,1,1,0.399074074,-0.119444444,1,0,0,1.5676,Obsidian_05,5,05,3,7,1.568,-0.425,-0.414814815,1,0,0,1.1453,Obsidian_rect,5,1.145,1,0,0,0,0,1,,,,,,,,,,,,
61267e282a445af9eb95beae,SCN,2024-06-10_15h02.18.257,LearnStrategy,2023.2.3,Win32,59.88023952,4,1,2,0.501851852,-0.081481481,1,0,0,1.2169,Pumice_10,8,10,3,8,1.217,0.389814815,-0.409259259,1,0,0,1.7296,Pumice_rect,8,1.73,1,1,0,1,0,1,,,,,,,,,,,,
61267e282a445af9eb95beae,SCN,2024-06-10_15h02.18.257,LearnStrategy,2023.2.3,Win32,59.88023952,4,1,3,-0.531481481,-0.268518519,1,0,0,1.0336,Diorite_06,3,06,2,1,1.034,0.118518519,-0.260185185,1,0,0,1.5124,Diorite_rect,3,1.512,1,2,0,2,0,1,,,,,,,,,,,,
61267e282a445af9eb95beae,SCN,2024-06-10_15h02.18.257,LearnStrategy,2023.2.3,Win32,59.88023952,4,1,4,-0.409259259,-0.260185185,1,0,0,0.6998,Diorite_15,3,15,2,2,0.7,0.164814815,-0.249074074,1,0,0,2.8966,Diorite_rect,3,2.897,1,3,0,3,0,1,,,,,,,,,,,,
61267e282a445af9eb95beae,SCN,2024-06-10_15h02.18.257,LearnStrategy,2023.2.3,Win32,59.88023952,4,1,5,-0.25462963,-0.24537037,1,0,0,0.7492,Diorite_08,3,08,2,3,0.749,0.110185185,-0.248148148,1,0,0,1.5292,Diorite_rect,3,1.529,1,4,0,4,0,1,,,,,,,,,,,,
61267e282a445af9eb95beae,SCN,2024-06-10_15h02.18.257,LearnStrategy,2023.2.3,Win32,59.88023952,4,1,6,-0.074074074,-0.262962963,1,0,0,1.2171,Gabbro_03,4,03,2,4,1.217,0.076851852,-0.236111111,1,0,0,2.4967,Diorite_rect,3,2.497,0,5,0,5,0,1,,,,,,,,,,,,
61267e282a445af9eb95beae,SCN,2024-06-10_15h02.18.257,LearnStrategy,2023.2.3,Win32,59.88023952,4,1,7,0.063888889,-0.272222222,1,0,0,1.1498,Gabbro_15,4,15,2,5,1.15,-0.361111111,-0.24537037,1,0,0,18.4954,Andesite_rect,1,18.495,0,6,0,6,0,1,,,,,,,,,,,,
61267e282a445af9eb95beae,SCN,2024-06-10_15h02.18.257,LearnStrategy,2023.2.3,Win32,59.88023952,4,1,8,0.225925926,-0.275925926,1,0,0,1.3165,Pegmatite_10,6,10,2,6,1.317,-0.065740741,-0.399074074,1,0,0,2.6142,Pegmatite_rect,6,2.614,1,7,0,7,0,1,,,,,,,,,,,,
61267e282a445af9eb95beae,SCN,2024-06-10_15h02.18.257,LearnStrategy,2023.2.3,Win32,59.88023952,4,1,9,0.396296296,-0.244444444,1,0,0,0.8997,Pumice_09,8,09,2,7,0.9,0.385185185,-0.385185185,1,0,0,0.8951,Pumice_rect,8,0.895,1,8,0,8,0,1,,,,,,,,,,,,
61267e282a445af9eb95beae,SCN,2024-06-10_15h02.18.257,LearnStrategy,2023.2.3,Win32,59.88023952,4,1,10,0.534259259,-0.271296296,1,0,0,0.7999,Peridotite_16,7,16,2,8,0.8,0.185185185,-0.378703704,1,0,0,1.5959,Peridotite_rect,7,1.596,1,9,0,9,0,1,,,,,,,,,,,,
61267e282a445af9eb95beae,SCN,2024-06-10_15h02.18.257,LearnStrategy,2023.2.3,Win32,59.88023952,4,1,11,-0.558333333,-0.367592593,1,0,0,1.4173,Pumice_04,8,04,1,1,1.417,0.438888889,-0.382407407,1,0,0,0.7116,Pumice_rect,8,0.712,1,10,0,10,0,1,,,,,,,,,,,,
61267e282a445af9eb95beae,SCN,2024-06-10_15h02.18.257,LearnStrategy,2023.2.3,Win32,59.88023952,4,1,12,-0.381481481,-0.414814815,1,0,0,1.067,Peridotite_08,7,08,1,2,1.067,0.149074074,-0.411111111,1,0,0,2.213,Peridotite_rect,7,2.213,1,11,0,11,0,1,,,,,,,,,,,,
61267e282a445af9eb95beae,SCN,2024-06-10_15h02.18.257,LearnStrategy,2023.2.3,Win32,59.88023952,4,1,13,-0.234259259,-0.435185185,1,0,0,0.6994,Pegmatite_11,6,11,1,3,0.699,-0.200925926,-0.383333333,1,0,0,1.1455,Pegmatite_rect,6,1.146,1,12,0,12,0,1,,,,,,,,,,,,
61267e282a445af9eb95beae,SCN,2024-06-10_15h02.18.257,LearnStrategy,2023.2.3,Win32,59.88023952,4,1,14,-0.087037037,-0.417592593,1,0,0,0.6832,Pumice_13,8,13,1,4,0.683,0.369444444,-0.394444444,1,0,0,1.0951,Pumice_rect,8,1.095,1,13,0,13,0,1,,,,,,,,,,,,
61267e282a445af9eb95beae,SCN,2024-06-10_15h02.18.257,LearnStrategy,2023.2.3,Win32,59.88023952,4,1,15,0.077777778,-0.406481481,1,0,0,0.7169,Basalt_01,2,01,1,5,0.717,-0.160185185,-0.250925926,1,0,0,2.0795,Basalt_rect,2,2.08,1,14,0,14,0,1,,,,,,,,,,,,
61267e282a445af9eb95beae,SCN,2024-06-10_15h02.18.257,LearnStrategy,2023.2.3,Win32,59.88023952,4,1,16,0.227777778,-0.419444444,1,0,0,0.8829,Pumice_14,8,14,1,6,0.883,0.389814815,-0.391666667,1,0,0,1.1287,Pumice_rect,8,1.129,1,15,0,15,0,1,,,,,,,,,,,,
61267e282a445af9eb95beae,SCN,2024-06-10_15h02.18.257,LearnStrategy,2023.2.3,Win32,59.88023952,4,2,1,,,,,,,,2,05,,,,,,,,,,,2,1.379,1,,,,,,-0.135185185,-0.242592593,1,0,0,1.3794,Basalt_rect,0,0,0,0,1
61267e282a445af9eb95beae,SCN,2024-06-10_15h02.18.257,LearnStrategy,2023.2.3,Win32,59.88023952,4,2,2,,,,,,,,2,12,,,,,,,,,,,8,4.883,0,,,,,,0.408333333,-0.394444444,1,0,0,4.8828,Pumice_rect,1,0,1,0,1
61267e282a445af9eb95beae,SCN,2024-06-10_15h02.18.257,LearnStrategy,2023.2.3,Win32,59.88023952,4,2,3,,,,,,,,7,04,,,,,,,,,,,3,4.666,0,,,,,,0.136111111,-0.256481481,1,0,0,4.666,Diorite_rect,2,0,2,0,1
61267e282a445af9eb95beae,SCN,2024-06-10_15h02.18.257,LearnStrategy,2023.2.3,Win32,59.88023952,4,2,4,,,,,,,,3,12,,,,,,,,,,,3,2.864,1,,,,,,0.136111111,-0.256481481,1,0,0,2.8643,Diorite_rect,3,0,3,0,1
61267e282a445af9eb95beae,SCN,2024-06-10_15h02.18.257,LearnStrategy,2023.2.3,Win32,59.88023952,4,2,5,,,,,,,,4,16,,,,,,,,,,,4,9.488,1,,,,,,0.437037037,-0.267592593,1,0,0,9.4875,Gabbro_rect,4,0,4,0,1
61267e282a445af9eb95beae,SCN,2024-06-10_15h02.18.257,LearnStrategy,2023.2.3,Win32,59.88023952,4,2,6,,,,,,,,8,06,,,,,,,,,,,8,1.012,1,,,,,,0.459259259,-0.42037037,1,0,0,1.0123,Pumice_rect,5,0,5,0,1
61267e282a445af9eb95beae,SCN,2024-06-10_15h02.18.257,LearnStrategy,2023.2.3,Win32,59.88023952,4,2,7,,,,,,,,5,07,,,,,,,,,,,5,1.146,1,,,,,,-0.424074074,-0.398148148,1,0,0,1.1458,Obsidian_rect,6,0,6,0,1
61267e282a445af9eb95beae,SCN,2024-06-10_15h02.18.257,LearnStrategy,2023.2.3,Win32,59.88023952,4,2,8,,,,,,,,8,08,,,,,,,,,,,8,2.652,1,,,,,,0.418518519,-0.397222222,1,0,0,2.6517,Pumice_rect,7,0,7,0,1
61267e282a445af9eb95beae,SCN,2024-06-10_15h02.18.257,LearnStrategy,2023.2.3,Win32,59.88023952,4,2,9,,,,,,,,1,14,,,,,,,,,,,6,2.235,0,,,,,,-0.102777778,-0.386111111,1,0,0,2.235,Pegmatite_rect,8,0,8,0,1
61267e282a445af9eb95beae,SCN,2024-06-10_15h02.18.257,LearnStrategy,2023.2.3,Win32,59.88023952,4,2,10,,,,,,,,7,10,,,,,,,,,,,7,3.302,1,,,,,,0.175,-0.389814815,1,0,0,3.3023,Peridotite_rect,9,0,9,0,1
61267e282a445af9eb95beae,SCN,2024-06-10_15h02.18.257,LearnStrategy,2023.2.3,Win32,59.88023952,4,2,11,,,,,,,,5,16,,,,,,,,,,,5,1.101,1,,,,,,-0.392592593,-0.383333333,1,0,0,1.101,Obsidian_rect,10,0,10,0,1
61267e282a445af9eb95beae,SCN,2024-06-10_15h02.18.257,LearnStrategy,2023.2.3,Win32,59.88023952,4,2,12,,,,,,,,1,05,,,,,,,,,,,7,2.018,0,,,,,,0.159259259,-0.405555556,1,0,0,2.0181,Peridotite_rect,11,0,11,0,1
61267e282a445af9eb95beae,SCN,2024-06-10_15h02.18.257,LearnStrategy,2023.2.3,Win32,59.88023952,4,2,13,,,,,,,,6,03,,,,,,,,,,,6,1.511,1,,,,,,-0.134259259,-0.388888889,1,0,0,1.5112,Pegmatite_rect,12,0,12,0,1
61267e282a445af9eb95beae,SCN,2024-06-10_15h02.18.257,LearnStrategy,2023.2.3,Win32,59.88023952,4,2,14,,,,,,,,3,14,,,,,,,,,,,3,3.503,1,,,,,,0.073148148,-0.264814815,1,0,0,3.503,Diorite_rect,13,0,13,0,1
61267e282a445af9eb95beae,SCN,2024-06-10_15h02.18.257,LearnStrategy,2023.2.3,Win32,59.88023952,4,2,15,,,,,,,,4,05,,,,,,,,,,,4,2.255,1,,,,,,0.352777778,-0.244444444,1,0,0,2.2548,Gabbro_rect,14,0,14,0,1
61267e282a445af9eb95beae,SCN,2024-06-10_15h02.18.257,LearnStrategy,2023.2.3,Win32,59.88023952,4,2,16,,,,,,,,6,16,,,,,,,,,,,6,1.184,1,,,,,,-0.176851852,-0.408333333,1,0,0,1.1839,Pegmatite_rect,15,0,15,0,1
61267e282a445af9eb95beae,SCN,2024-06-10_15h02.18.257,LearnStrategy,2023.2.3,Win32,59.88023952,5,1,1,0.382407407,-0.427777778,1,0,0,1.184,Peridotite_13,7,13,1,7,1.184,0.172222222,-0.40462963,1,0,0,1.1943,Peridotite_rect,7,1.194,1,0,0,0,0,1,,,,,,,,,,,,
61267e282a445af9eb95beae,SCN,2024-06-10_15h02.18.257,LearnStrategy,2023.2.3,Win32,59.88023952,5,1,2,0.260185185,-0.437962963,1,0,0,0.8333,Pumice_14,8,14,1,6,0.833,0.324074074,-0.382407407,1,0,0,1.0118,Pumice_rect,8,1.012,1,1,0,1,0,1,,,,,,,,,,,,
61267e282a445af9eb95beae,SCN,2024-06-10_15h02.18.257,LearnStrategy,2023.2.3,Win32,59.88023952,5,1,3,0.533333333,-0.441666667,1,0,0,0.7667,Andesite_09,1,09,1,8,0.767,0.15,-0.267592593,1,0,0,2.8301,Diorite_rect,3,2.83,0,2,0,2,0,1,,,,,,,,,,,,
61267e282a445af9eb95beae,SCN,2024-06-10_15h02.18.257,LearnStrategy,2023.2.3,Win32,59.88023952,5,1,4,0.521296296,-0.407407407,1,0,0,0.7158,Andesite_09,1,09,1,8,0.716,-0.328703704,-0.250925926,1,0,0,1.0288,Andesite_rect,1,1.029,1,3,0,3,0,1,,,,,,,,,,,,
61267e282a445af9eb95beae,SCN,2024-06-10_15h02.18.257,LearnStrategy,2023.2.3,Win32,59.88023952,5,1,5,0.069444444,0.213888889,1,0,0,2.7185,Basalt_02,2,02,5,5,2.718,-0.419444444,-0.259259259,1,0,0,0.7286,Andesite_rect,1,0.729,0,4,0,4,0,1,,,,,,,,,,,,
61267e282a445af9eb95beae,SCN,2024-06-10_15h02.18.257,LearnStrategy,2023.2.3,Win32,59.88023952,5,1,6,-0.415740741,0.409259259,1,0,0,2.0345,Andesite_11,1,11,6,2,2.034,-0.372222222,-0.240740741,1,0,0,0.9118,Andesite_rect,1,0.912,1,5,0,5,0,1,,,,,,,,,,,,
61267e282a445af9eb95beae,SCN,2024-06-10_15h02.18.257,LearnStrategy,2023.2.3,Win32,59.88023952,5,1,7,0.235185185,0.091666667,1,0,0,2.4015,Andesite_04,1,04,4,6,2.402,-0.377777778,-0.252777778,1,0,0,1.3735,Andesite_rect,1,1.373,1,6,0,6,0,1,,,,,,,,,,,,
61267e282a445af9eb95beae,SCN,2024-06-10_15h02.18.257,LearnStrategy,2023.2.3,Win32,59.88023952,5,1,8,-0.374074074,-0.12962963,1,0,0,3.2358,Pegmatite_13,6,13,3,2,3.236,-0.158333333,-0.401851852,1,0,0,0.6446,Pegmatite_rect,6,0.645,1,7,0,7,0,1,,,,,,,,,,,,
61267e282a445af9eb95beae,SCN,2024-06-10_15h02.18.257,LearnStrategy,2023.2.3,Win32,59.88023952,5,1,9,-0.05,0.412962963,1,0,0,8.1241,Gabbro_01,4,01,6,4,8.124,0.34537037,-0.238888889,1,0,0,2.0899,Gabbro_rect,4,2.09,1,8,0,8,0,1,,,,,,,,,,,,
61267e282a445af9eb95beae,SCN,2024-06-10_15h02.18.257,LearnStrategy,2023.2.3,Win32,59.88023952,5,1,10,-0.051851852,0.073148148,1,0,0,1.9006,Peridotite_06,7,06,4,4,1.901,-0.092592593,-0.394444444,1,0,0,0.9786,Pegmatite_rect,6,0.979,0,9,0,9,0,1,,,,,,,,,,,,
61267e282a445af9eb95beae,SCN,2024-06-10_15h02.18.257,LearnStrategy,2023.2.3,Win32,59.88023952,5,1,11,0.064814815,0.075,1,0,0,1.1337,Obsidian_12,5,12,4,5,1.134,-0.326851852,-0.40462963,1,0,0,0.8116,Obsidian_rect,5,0.812,1,10,0,10,0,1,,,,,,,,,,,,
61267e282a445af9eb95beae,SCN,2024-06-10_15h02.18.257,LearnStrategy,2023.2.3,Win32,59.88023952,5,1,12,-0.399074074,-0.140740741,1,0,0,1.701,Pegmatite_13,6,13,3,2,1.701,-0.1,-0.403703704,1,0,0,0.812,Pegmatite_rect,6,0.812,1,11,0,11,0,1,,,,,,,,,,,,
61267e282a445af9eb95beae,SCN,2024-06-10_15h02.18.257,LearnStrategy,2023.2.3,Win32,59.88023952,5,1,13,-0.541666667,-0.099074074,1,0,0,0.7834,Pegmatite_12,6,12,3,1,0.783,-0.142592593,-0.385185185,1,0,0,1.3624,Pegmatite_rect,6,1.362,1,12,0,12,0,1,,,,,,,,,,,,
61267e282a445af9eb95beae,SCN,2024-06-10_15h02.18.257,LearnStrategy,2023.2.3,Win32,59.88023952,5,1,14,-0.251851852,-0.288888889,1,0,0,1.0337,Diorite_08,3,08,2,3,1.034,0.05,-0.257407407,1,0,0,1.0954,Diorite_rect,3,1.095,1,13,0,13,0,1,,,,,,,,,,,,
61267e282a445af9eb95beae,SCN,2024-06-10_15h02.18.257,LearnStrategy,2023.2.3,Win32,59.88023952,5,1,15,-0.543518519,-0.266666667,1,0,0,2.5851,Diorite_06,3,06,2,1,2.585,0.094444444,-0.248148148,1,0,0,1.1564,Diorite_rect,3,1.156,1,14,0,14,0,1,,,,,,,,,,,,
61267e282a445af9eb95beae,SCN,2024-06-10_15h02.18.257,LearnStrategy,2023.2.3,Win32,59.88023952,5,1,16,0.101851852,-0.260185185,1,0,0,1.2172,Gabbro_15,4,15,2,5,1.217,0.414814815,-0.256481481,1,0,0,1.5122,Gabbro_rect,4,1.512,1,15,0,15,0,1,,,,,,,,,,,,
61267e282a445af9eb95beae,SCN,2024-06-10_15h02.18.257,LearnStrategy,2023.2.3,Win32,59.88023952,5,2,1,,,,,,,,4,12,,,,,,,,,,,3,4.399,0,,,,,,0.085185185,-0.239814815,1,0,0,4.3987,Diorite_rect,0,0,0,0,1
61267e282a445af9eb95beae,SCN,2024-06-10_15h02.18.257,LearnStrategy,2023.2.3,Win32,59.88023952,5,2,2,,,,,,,,6,05,,,,,,,,,,,6,4.132,1,,,,,,-0.139814815,-0.390740741,1,0,0,4.1322,Pegmatite_rect,1,0,1,0,1
61267e282a445af9eb95beae,SCN,2024-06-10_15h02.18.257,LearnStrategy,2023.2.3,Win32,59.88023952,5,2,3,,,,,,,,2,09,,,,,,,,,,,2,1.48,1,,,,,,-0.099074074,-0.241666667,1,0,0,1.4797,Basalt_rect,2,0,2,0,1
61267e282a445af9eb95beae,SCN,2024-06-10_15h02.18.257,LearnStrategy,2023.2.3,Win32,59.88023952,5,2,4,,,,,,,,7,07,,,,,,,,,,,3,3.432,0,,,,,,0.135185185,-0.267592593,1,0,0,3.4316,Diorite_rect,3,0,3,0,1
61267e282a445af9eb95beae,SCN,2024-06-10_15h02.18.257,LearnStrategy,2023.2.3,Win32,59.88023952,5,2,5,,,,,,,,8,15,,,,,,,,,,,2,4.599,0,,,,,,-0.138888889,-0.253703704,1,0,0,4.5991,Basalt_rect,4,0,4,0,1
61267e282a445af9eb95beae,SCN,2024-06-10_15h02.18.257,LearnStrategy,2023.2.3,Win32,59.88023952,5,2,6,,,,,,,,4,14,,,,,,,,,,,4,1.479,1,,,,,,0.419444444,-0.247222222,1,0,0,1.4794,Gabbro_rect,5,0,5,0,1
61267e282a445af9eb95beae,SCN,2024-06-10_15h02.18.257,LearnStrategy,2023.2.3,Win32,59.88023952,5,2,7,,,,,,,,7,05,,,,,,,,,,,7,2.364,1,,,,,,0.156481481,-0.414814815,1,0,0,2.3637,Peridotite_rect,6,0,6,0,1
61267e282a445af9eb95beae,SCN,2024-06-10_15h02.18.257,LearnStrategy,2023.2.3,Win32,59.88023952,5,2,8,,,,,,,,3,02,,,,,,,,,,,3,3.532,1,,,,,,0.081481481,-0.258333333,1,0,0,3.5316,Diorite_rect,7,0,7,0,1
61267e282a445af9eb95beae,SCN,2024-06-10_15h02.18.257,LearnStrategy,2023.2.3,Win32,59.88023952,5,2,9,,,,,,,,5,02,,,,,,,,,,,5,1.346,1,,,,,,-0.362037037,-0.391666667,1,0,0,1.3462,Obsidian_rect,8,0,8,0,1
61267e282a445af9eb95beae,SCN,2024-06-10_15h02.18.257,LearnStrategy,2023.2.3,Win32,59.88023952,5,2,10,,,,,,,,8,02,,,,,,,,,,,8,1.029,1,,,,,,0.346296296,-0.410185185,1,0,0,1.0291,Pumice_rect,9,0,9,0,1
61267e282a445af9eb95beae,SCN,2024-06-10_15h02.18.257,LearnStrategy,2023.2.3,Win32,59.88023952,5,2,11,,,,,,,,3,13,,,,,,,,,,,3,1.896,1,,,,,,0.092592593,-0.240740741,1,0,0,1.8964,Diorite_rect,10,0,10,0,1
61267e282a445af9eb95beae,SCN,2024-06-10_15h02.18.257,LearnStrategy,2023.2.3,Win32,59.88023952,5,2,12,,,,,,,,2,14,,,,,,,,,,,8,4.733,0,,,,,,0.383333333,-0.409259259,1,0,0,4.7331,Pumice_rect,11,0,11,0,1
61267e282a445af9eb95beae,SCN,2024-06-10_15h02.18.257,LearnStrategy,2023.2.3,Win32,59.88023952,5,2,13,,,,,,,,6,08,,,,,,,,,,,6,1.145,1,,,,,,-0.103703704,-0.382407407,1,0,0,1.1453,Pegmatite_rect,12,0,12,0,1
61267e282a445af9eb95beae,SCN,2024-06-10_15h02.18.257,LearnStrategy,2023.2.3,Win32,59.88023952,5,2,14,,,,,,,,1,01,,,,,,,,,,,1,3.681,1,,,,,,-0.411111111,-0.230555556,1,0,0,3.6812,Andesite_rect,13,0,13,0,1
61267e282a445af9eb95beae,SCN,2024-06-10_15h02.18.257,LearnStrategy,2023.2.3,Win32,59.88023952,5,2,15,,,,,,,,1,10,,,,,,,,,,,1,3.298,1,,,,,,-0.412962963,-0.247222222,1,0,0,3.298,Andesite_rect,14,0,14,0,1
61267e282a445af9eb95beae,SCN,2024-06-10_15h02.18.257,LearnStrategy,2023.2.3,Win32,59.88023952,5,2,16,,,,,,,,5,11,,,,,,,,,,,5,1.179,1,,,,,,-0.386111111,-0.397222222,1,0,0,1.1789,Obsidian_rect,15,0,15,0,1
61267e282a445af9eb95beae,SCN,2024-06-10_15h02.18.257,LearnStrategy,2023.2.3,Win32,59.88023952,6,1,1,0.049074074,0.092592593,1,0,0,0.6166,Obsidian_12,5,12,4,5,0.617,-0.4,-0.384259259,1,0,0,0.9285,Obsidian_rect,5,0.928,1,0,0,0,0,1,,,,,,,,,,,,
61267e282a445af9eb95beae,SCN,2024-06-10_15h02.18.257,LearnStrategy,2023.2.3,Win32,59.88023952,6,1,2,-0.235185185,0.388888889,1,0,0,1.484,Gabbro_08,4,08,6,3,1.484,0.433333333,-0.232407407,1,0,0,3.5812,Gabbro_rect,4,3.581,1,1,0,1,0,1,,,,,,,,,,,,
61267e282a445af9eb95beae,SCN,2024-06-10_15h02.18.257,LearnStrategy,2023.2.3,Win32,59.88023952,6,1,3,0.566666667,0.456481481,1,0,0,1.7001,Peridotite_12,7,12,6,8,1.7,0.15462963,-0.240740741,1,0,0,1.3621,Diorite_rect,3,1.362,0,2,0,2,0,1,,,,,,,,,,,,
61267e282a445af9eb95beae,SCN,2024-06-10_15h02.18.257,LearnStrategy,2023.2.3,Win32,59.88023952,6,1,4,0.37037037,0.268518519,1,0,0,0.967,Peridotite_15,7,15,5,7,0.967,0.117592593,-0.393518519,1,0,0,1.0622,Peridotite_rect,7,1.062,1,3,0,3,0,1,,,,,,,,,,,,
61267e282a445af9eb95beae,SCN,2024-06-10_15h02.18.257,LearnStrategy,2023.2.3,Win32,59.88023952,6,1,5,0.239814815,0.236111111,1,0,0,0.6663,Diorite_10,3,10,5,6,0.666,0.110185185,-0.24537037,1,0,0,1.8127,Diorite_rect,3,1.813,1,4,0,4,0,1,,,,,,,,,,,,
61267e282a445af9eb95beae,SCN,2024-06-10_15h02.18.257,LearnStrategy,2023.2.3,Win32,59.88023952,6,1,6,0.065740741,0.239814815,1,0,0,0.833,Basalt_02,2,02,5,5,0.833,-0.15462963,-0.264814815,1,0,0,1.0285,Basalt_rect,2,1.029,1,5,0,5,0,1,,,,,,,,,,,,
61267e282a445af9eb95beae,SCN,2024-06-10_15h02.18.257,LearnStrategy,2023.2.3,Win32,59.88023952,6,1,7,-0.234259259,0.224074074,1,0,0,0.8835,Andesite_07,1,07,5,3,0.884,-0.367592593,-0.262962963,1,0,0,1.2789,Andesite_rect,1,1.279,1,6,0,6,0,1,,,,,,,,,,,,
61267e282a445af9eb95beae,SCN,2024-06-10_15h02.18.257,LearnStrategy,2023.2.3,Win32,59.88023952,6,1,8,-0.396296296,0.237037037,1,0,0,1.2005,Diorite_07,3,07,5,2,1.2,-0.384259259,-0.251851852,1,0,0,2.013,Andesite_rect,1,2.013,0,7,0,7,0,1,,,,,,,,,,,,
61267e282a445af9eb95beae,SCN,2024-06-10_15h02.18.257,LearnStrategy,2023.2.3,Win32,59.88023952,6,1,9,-0.37037037,0.262962963,1,0,0,0.6666,Diorite_07,3,07,5,2,0.667,0.113888889,-0.244444444,1,0,0,1.9965,Diorite_rect,3,1.996,1,8,0,8,0,1,,,,,,,,,,,,
61267e282a445af9eb95beae,SCN,2024-06-10_15h02.18.257,LearnStrategy,2023.2.3,Win32,59.88023952,6,1,10,0.212962963,0.07962963,1,0,0,2.8348,Andesite_04,1,04,4,6,2.835,-0.417592593,-0.240740741,1,0,0,1.3121,Andesite_rect,1,1.312,1,9,0,9,0,1,,,,,,,,,,,,
61267e282a445af9eb95beae,SCN,2024-06-10_15h02.18.257,LearnStrategy,2023.2.3,Win32,59.88023952,6,1,11,0.423148148,0.078703704,1,0,0,0.7501,Basalt_06,2,06,4,7,0.75,-0.128703704,-0.251851852,1,0,0,1.2455,Basalt_rect,2,1.245,1,10,0,10,0,1,,,,,,,,,,,,
61267e282a445af9eb95beae,SCN,2024-06-10_15h02.18.257,LearnStrategy,2023.2.3,Win32,59.88023952,6,1,12,0.535185185,0.07962963,1,0,0,0.8501,Diorite_11,3,11,4,8,0.85,0.087037037,-0.236111111,1,0,0,1.2625,Diorite_rect,3,1.263,1,11,0,11,0,1,,,,,,,,,,,,
61267e282a445af9eb95beae,SCN,2024-06-10_15h02.18.257,LearnStrategy,2023.2.3,Win32,59.88023952,6,1,13,0.42962963,-0.114814815,1,0,0,1.1002,Obsidian_05,5,05,3,7,1.1,-0.407407407,-0.382407407,1,0,0,0.7117,Obsidian_rect,5,0.712,1,12,0,12,0,1,,,,,,,,,,,,
61267e282a445af9eb95beae,SCN,2024-06-10_15h02.18.257,LearnStrategy,2023.2.3,Win32,59.88023952,6,1,14,0.084259259,-0.081481481,1,0,0,1.2507,Andesite_03,1,03,3,5,1.251,-0.412037037,-0.241666667,1,0,0,1.0952,Andesite_rect,1,1.095,1,13,0,13,0,1,,,,,,,,,,,,
61267e282a445af9eb95beae,SCN,2024-06-10_15h02.18.257,LearnStrategy,2023.2.3,Win32,59.88023952,6,1,15,-0.27037037,-0.265740741,1,0,0,2.8353,Diorite_08,3,08,2,3,2.835,0.092592593,-0.22962963,1,0,0,0.8117,Diorite_rect,3,0.812,1,14,0,14,0,1,,,,,,,,,,,,
61267e282a445af9eb95beae,SCN,2024-06-10_15h02.18.257,LearnStrategy,2023.2.3,Win32,59.88023952,6,1,16,0.242592593,-0.259259259,1,0,0,1.5508,Pegmatite_10,6,10,2,6,1.551,-0.175925926,-0.407407407,1,0,0,0.7945,Pegmatite_rect,6,0.794,1,15,0,15,0,1,,,,,,,,,,,,
61267e282a445af9eb95beae,SCN,2024-06-10_15h02.18.257,LearnStrategy,2023.2.3,Win32,59.88023952,6,2,1,,,,,,,,7,02,,,,,,,,,,,7,7.836,1,,,,,,0.162962963,-0.4,1,0,0,7.8358,Peridotite_rect,0,0,0,0,1
61267e282a445af9eb95beae,SCN,2024-06-10_15h02.18.257,LearnStrategy,2023.2.3,Win32,59.88023952,6,2,2,,,,,,,,2,10,,,,,,,,,,,2,2.881,1,,,,,,-0.138888889,-0.252777778,1,0,0,2.8812,Basalt_rect,1,0,1,0,1
61267e282a445af9eb95beae,SCN,2024-06-10_15h02.18.257,LearnStrategy,2023.2.3,Win32,59.88023952,6,2,3,,,,,,,,2,11,,,,,,,,,,,2,2.247,1,,,,,,-0.137037037,-0.252777778,1,0,0,2.2469,Basalt_rect,2,0,2,0,1
61267e282a445af9eb95beae,SCN,2024-06-10_15h02.18.257,LearnStrategy,2023.2.3,Win32,59.88023952,6,2,4,,,,,,,,8,05,,,,,,,,,,,8,1.663,1,,,,,,0.375,-0.398148148,1,0,0,1.6632,Pumice_rect,3,0,3,0,1
61267e282a445af9eb95beae,SCN,2024-06-10_15h02.18.257,LearnStrategy,2023.2.3,Win32,59.88023952,6,2,5,,,,,,,,5,09,,,,,,,,,,,5,1.065,1,,,,,,-0.367592593,-0.394444444,1,0,0,1.0648,Obsidian_rect,4,0,4,0,1
61267e282a445af9eb95beae,SCN,2024-06-10_15h02.18.257,LearnStrategy,2023.2.3,Win32,59.88023952,6,2,6,,,,,,,,1,02,,,,,,,,,,,1,1.313,1,,,,,,-0.407407407,-0.234259259,1,0,0,1.3128,Andesite_rect,5,0,5,0,1
61267e282a445af9eb95beae,SCN,2024-06-10_15h02.18.257,LearnStrategy,2023.2.3,Win32,59.88023952,6,2,7,,,,,,,,3,09,,,,,,,,,,,3,1.88,1,,,,,,0.073148148,-0.249074074,1,0,0,1.8799,Diorite_rect,6,0,6,0,1
61267e282a445af9eb95beae,SCN,2024-06-10_15h02.18.257,LearnStrategy,2023.2.3,Win32,59.88023952,6,2,8,,,,,,,,8,03,,,,,,,,,,,2,5.467,0,,,,,,-0.101851852,-0.257407407,1,0,0,5.4669,Basalt_rect,7,0,7,0,1
61267e282a445af9eb95beae,SCN,2024-06-10_15h02.18.257,LearnStrategy,2023.2.3,Win32,59.88023952,6,2,9,,,,,,,,6,07,,,,,,,,,,,6,1.063,1,,,,,,-0.081481481,-0.396296296,1,0,0,1.0631,Pegmatite_rect,8,0,8,0,1
61267e282a445af9eb95beae,SCN,2024-06-10_15h02.18.257,LearnStrategy,2023.2.3,Win32,59.88023952,6,2,10,,,,,,,,1,06,,,,,,,,,,,1,1.563,1,,,,,,-0.416666667,-0.238888889,1,0,0,1.5625,Andesite_rect,9,0,9,0,1
61267e282a445af9eb95beae,SCN,2024-06-10_15h02.18.257,LearnStrategy,2023.2.3,Win32,59.88023952,6,2,11,,,,,,,,5,06,,,,,,,,,,,5,1.012,1,,,,,,-0.406481481,-0.392592593,1,0,0,1.0121,Obsidian_rect,10,0,10,0,1
61267e282a445af9eb95beae,SCN,2024-06-10_15h02.18.257,LearnStrategy,2023.2.3,Win32,59.88023952,6,2,12,,,,,,,,6,09,,,,,,,,,,,6,3.949,1,,,,,,-0.156481481,-0.412962963,1,0,0,3.9488,Pegmatite_rect,11,0,11,0,1
61267e282a445af9eb95beae,SCN,2024-06-10_15h02.18.257,LearnStrategy,2023.2.3,Win32,59.88023952,6,2,13,,,,,,,,3,16,,,,,,,,,,,3,3.815,1,,,,,,0.15462963,-0.259259259,1,0,0,3.815,Diorite_rect,12,0,12,0,1
61267e282a445af9eb95beae,SCN,2024-06-10_15h02.18.257,LearnStrategy,2023.2.3,Win32,59.88023952,6,2,14,,,,,,,,4,13,,,,,,,,,,,4,0.996,1,,,,,,0.35462963,-0.249074074,1,0,0,0.996,Gabbro_rect,13,0,13,0,1
61267e282a445af9eb95beae,SCN,2024-06-10_15h02.18.257,LearnStrategy,2023.2.3,Win32,59.88023952,6,2,15,,,,,,,,7,14,,,,,,,,,,,3,4.917,0,,,,,,0.126851852,-0.256481481,1,0,0,4.9165,Diorite_rect,14,0,14,0,1
61267e282a445af9eb95beae,SCN,2024-06-10_15h02.18.257,LearnStrategy,2023.2.3,Win32,59.88023952,6,2,16,,,,,,,,4,10,,,,,,,,,,,4,7.252,1,,,,,,0.393518519,-0.24537037,1,0,0,7.2519,Gabbro_rect,15,0,15,0,1
61267e282a445af9eb95beae,SCN,2024-06-10_15h02.18.257,LearnStrategy,2023.2.3,Win32,59.88023952,7,1,1,-0.216666667,0.219444444,1,0,0,2.0192,Andesite_07,1,07,5,3,2.019,-0.377777778,-0.249074074,1,0,0,1.2664,Andesite_rect,1,1.266,1,0,0,0,0,1,,,,,,,,,,,,
61267e282a445af9eb95beae,SCN,2024-06-10_15h02.18.257,LearnStrategy,2023.2.3,Win32,59.88023952,7,1,2,0.37037037,-0.273148148,1,0,0,1.8515,Pumice_09,8,09,2,7,1.851,0.383333333,-0.396296296,1,0,0,0.6824,Pumice_rect,8,0.682,1,1,0,1,0,1,,,,,,,,,,,,
61267e282a445af9eb95beae,SCN,2024-06-10_15h02.18.257,LearnStrategy,2023.2.3,Win32,59.88023952,7,1,3,-0.564814815,-0.418518519,1,0,0,2.9359,Pumice_04,8,04,1,1,2.936,0.334259259,-0.413888889,1,0,0,0.6651,Pumice_rect,8,0.665,1,2,0,2,0,1,,,,,,,,,,,,
61267e282a445af9eb95beae,SCN,2024-06-10_15h02.18.257,LearnStrategy,2023.2.3,Win32,59.88023952,7,1,4,0.576851852,-0.117592593,1,0,0,3.103,Pumice_10,8,10,3,8,3.103,0.333333333,-0.387962963,1,0,0,0.8289,Pumice_rect,8,0.829,1,3,0,3,0,1,,,,,,,,,,,,
61267e282a445af9eb95beae,SCN,2024-06-10_15h02.18.257,LearnStrategy,2023.2.3,Win32,59.88023952,7,1,5,-0.233333333,-0.121296296,1,0,0,4.2539,Basalt_04,2,04,3,3,4.254,-0.072222222,-0.25,1,0,0,0.9454,Basalt_rect,2,0.945,1,4,0,4,0,1,,,,,,,,,,,,
61267e282a445af9eb95beae,SCN,2024-06-10_15h02.18.257,LearnStrategy,2023.2.3,Win32,59.88023952,7,1,6,0.063888889,-0.057407407,1,0,0,0.6663,Andesite_03,1,03,3,5,0.666,-0.376851852,-0.240740741,1,0,0,0.8323,Andesite_rect,1,0.832,1,5,0,5,0,1,,,,,,,,,,,,
61267e282a445af9eb95beae,SCN,2024-06-10_15h02.18.257,LearnStrategy,2023.2.3,Win32,59.88023952,7,1,7,-0.109259259,-0.116666667,1,0,0,0.8004,Gabbro_11,4,11,3,4,0.8,0.122222222,-0.267592593,1,0,0,3.285,Diorite_rect,3,3.285,0,6,0,6,0,1,,,,,,,,,,,,
61267e282a445af9eb95beae,SCN,2024-06-10_15h02.18.257,LearnStrategy,2023.2.3,Win32,59.88023952,7,1,8,-0.050925926,-0.115740741,1,0,0,0.7498,Gabbro_11,4,11,3,4,0.75,0.359259259,-0.260185185,1,0,0,0.9993,Gabbro_rect,4,0.999,1,7,0,7,0,1,,,,,,,,,,,,
61267e282a445af9eb95beae,SCN,2024-06-10_15h02.18.257,LearnStrategy,2023.2.3,Win32,59.88023952,7,1,9,-0.380555556,0.087962963,1,0,0,1.8017,Gabbro_09,4,09,4,2,1.802,0.441666667,-0.261111111,1,0,0,0.9675,Gabbro_rect,4,0.967,1,8,0,8,0,1,,,,,,,,,,,,
61267e282a445af9eb95beae,SCN,2024-06-10_15h02.18.257,LearnStrategy,2023.2.3,Win32,59.88023952,7,1,10,-0.534259259,0.074074074,1,0,0,1.0006,Pegmatite_15,6,15,4,1,1.001,-0.174074074,-0.414814815,1,0,0,0.5825,Pegmatite_rect,6,0.582,1,9,0,9,0,1,,,,,,,,,,,,
61267e282a445af9eb95beae,SCN,2024-06-10_15h02.18.257,LearnStrategy,2023.2.3,Win32,59.88023952,7,1,11,-0.542592593,0.24537037,1,0,0,1.3513,Pumice_16,8,16,5,1,1.351,0.400925926,-0.396296296,1,0,0,0.7185,Pumice_rect,8,0.718,1,10,0,10,0,1,,,,,,,,,,,,
61267e282a445af9eb95beae,SCN,2024-06-10_15h02.18.257,LearnStrategy,2023.2.3,Win32,59.88023952,7,1,12,-0.056481481,0.094444444,1,0,0,1.049,Peridotite_06,7,06,4,4,1.049,-0.164814815,-0.394444444,1,0,0,1.3345,Pegmatite_rect,6,1.334,0,11,0,11,0,1,,,,,,,,,,,,
61267e282a445af9eb95beae,SCN,2024-06-10_15h02.18.257,LearnStrategy,2023.2.3,Win32,59.88023952,7,1,13,-0.052777778,0.07037037,1,0,0,1.0002,Peridotite_06,7,06,4,4,1,0.203703704,-0.398148148,1,0,0,1.182,Peridotite_rect,7,1.182,1,12,0,12,0,1,,,,,,,,,,,,
61267e282a445af9eb95beae,SCN,2024-06-10_15h02.18.257,LearnStrategy,2023.2.3,Win32,59.88023952,7,1,14,0.040740741,0.086111111,1,0,0,0.8672,Obsidian_12,5,12,4,5,0.867,-0.372222222,-0.405555556,1,0,0,0.6988,Obsidian_rect,5,0.699,1,13,0,13,0,1,,,,,,,,,,,,
61267e282a445af9eb95beae,SCN,2024-06-10_15h02.18.257,LearnStrategy,2023.2.3,Win32,59.88023952,7,1,15,0.213888889,0.087962963,1,0,0,1.1342,Andesite_04,1,04,4,6,1.134,-0.381481481,-0.257407407,1,0,0,0.6826,Andesite_rect,1,0.683,1,14,0,14,0,1,,,,,,,,,,,,
61267e282a445af9eb95beae,SCN,2024-06-10_15h02.18.257,LearnStrategy,2023.2.3,Win32,59.88023952,7,1,16,0.4,0.081481481,1,0,0,0.8339,Basalt_06,2,06,4,7,0.834,-0.163888889,-0.240740741,1,0,0,0.8161,Basalt_rect,2,0.816,1,15,0,15,0,1,,,,,,,,,,,,
61267e282a445af9eb95beae,SCN,2024-06-10_15h02.18.257,LearnStrategy,2023.2.3,Win32,59.88023952,7,2,1,,,,,,,,6,09,,,,,,,,,,,6,4.104,1,,,,,,-0.119444444,-0.402777778,1,0,0,4.1039,Pegmatite_rect,0,0,0,0,1
61267e282a445af9eb95beae,SCN,2024-06-10_15h02.18.257,LearnStrategy,2023.2.3,Win32,59.88023952,7,2,2,,,,,,,,5,02,,,,,,,,,,,5,0.967,1,,,,,,-0.378703704,-0.396296296,1,0,0,0.9668,Obsidian_rect,1,0,1,0,1
61267e282a445af9eb95beae,SCN,2024-06-10_15h02.18.257,LearnStrategy,2023.2.3,Win32,59.88023952,7,2,3,,,,,,,,5,07,,,,,,,,,,,5,0.667,1,,,,,,-0.378703704,-0.396296296,1,0,0,0.6673,Obsidian_rect,2,0,2,0,1
61267e282a445af9eb95beae,SCN,2024-06-10_15h02.18.257,LearnStrategy,2023.2.3,Win32,59.88023952,7,2,4,,,,,,,,3,13,,,,,,,,,,,3,3.837,1,,,,,,0.109259259,-0.239814815,1,0,0,3.8373,Diorite_rect,3,0,3,0,1
61267e282a445af9eb95beae,SCN,2024-06-10_15h02.18.257,LearnStrategy,2023.2.3,Win32,59.88023952,7,2,5,,,,,,,,2,11,,,,,,,,,,,8,4.182,0,,,,,,0.473148148,-0.413888889,1,0,0,4.1817,Pumice_rect,4,0,4,0,1
61267e282a445af9eb95beae,SCN,2024-06-10_15h02.18.257,LearnStrategy,2023.2.3,Win32,59.88023952,7,2,6,,,,,,,,8,05,,,,,,,,,,,8,1.118,1,,,,,,0.473148148,-0.417592593,1,0,0,1.1179,Pumice_rect,5,0,5,0,1
61267e282a445af9eb95beae,SCN,2024-06-10_15h02.18.257,LearnStrategy,2023.2.3,Win32,59.88023952,7,2,7,,,,,,,,4,16,,,,,,,,,,,4,1.435,1,,,,,,0.453703704,-0.247222222,1,0,0,1.435,Gabbro_rect,6,0,6,0,1
61267e282a445af9eb95beae,SCN,2024-06-10_15h02.18.257,LearnStrategy,2023.2.3,Win32,59.88023952,7,2,8,,,,,,,,7,05,,,,,,,,,,,7,1.522,1,,,,,,0.125925926,-0.39537037,1,0,0,1.5217,Peridotite_rect,7,0,7,0,1
61267e282a445af9eb95beae,SCN,2024-06-10_15h02.18.257,LearnStrategy,2023.2.3,Win32,59.88023952,7,2,9,,,,,,,,3,16,,,,,,,,,,,1,2.021,0,,,,,,-0.411111111,-0.228703704,1,0,0,2.0211,Andesite_rect,8,0,8,0,1
61267e282a445af9eb95beae,SCN,2024-06-10_15h02.18.257,LearnStrategy,2023.2.3,Win32,59.88023952,7,2,10,,,,,,,,1,06,,,,,,,,,,,1,1.15,1,,,,,,-0.37037037,-0.242592593,1,0,0,1.1503,Andesite_rect,9,0,9,0,1
61267e282a445af9eb95beae,SCN,2024-06-10_15h02.18.257,LearnStrategy,2023.2.3,Win32,59.88023952,7,2,11,,,,,,,,4,10,,,,,,,,,,,4,1.154,1,,,,,,0.351851852,-0.235185185,1,0,0,1.1544,Gabbro_rect,10,0,10,0,1
61267e282a445af9eb95beae,SCN,2024-06-10_15h02.18.257,LearnStrategy,2023.2.3,Win32,59.88023952,7,2,12,,,,,,,,2,10,,,,,,,,,,,2,2.652,1,,,,,,-0.12037037,-0.249074074,1,0,0,2.6516,Basalt_rect,11,0,11,0,1
61267e282a445af9eb95beae,SCN,2024-06-10_15h02.18.257,LearnStrategy,2023.2.3,Win32,59.88023952,7,2,13,,,,,,,,6,08,,,,,,,,,,,6,1.768,1,,,,,,-0.158333333,-0.412037037,1,0,0,1.7683,Pegmatite_rect,12,0,12,0,1
61267e282a445af9eb95beae,SCN,2024-06-10_15h02.18.257,LearnStrategy,2023.2.3,Win32,59.88023952,7,2,14,,,,,,,,8,15,,,,,,,,,,,8,1.138,1,,,,,,0.330555556,-0.413888889,1,0,0,1.1377,Pumice_rect,13,0,13,0,1
61267e282a445af9eb95beae,SCN,2024-06-10_15h02.18.257,LearnStrategy,2023.2.3,Win32,59.88023952,7,2,15,,,,,,,,1,02,,,,,,,,,,,1,0.95,1,,,,,,-0.396296296,-0.25462963,1,0,0,0.9504,Andesite_rect,14,0,14,0,1
61267e282a445af9eb95beae,SCN,2024-06-10_15h02.18.257,LearnStrategy,2023.2.3,Win32,59.88023952,7,2,16,,,,,,,,7,07,,,,,,,,,,,7,2.372,1,,,,,,0.177777778,-0.405555556,1,0,0,2.3721,Peridotite_rect,15,0,15,0,1
61267e282a445af9eb95beae,SCN,2024-06-10_15h02.18.257,LearnStrategy,2023.2.3,Win32,59.88023952,8,1,1,-0.053703704,0.07037037,1,0,0,0.7675,Peridotite_06,7,06,4,4,0.767,0.099074074,-0.387962963,1,0,0,1.3994,Peridotite_rect,7,1.399,1,0,0,0,0,1,,,,,,,,,,,,
61267e282a445af9eb95beae,SCN,2024-06-10_15h02.18.257,LearnStrategy,2023.2.3,Win32,59.88023952,8,1,2,0.07037037,0.080555556,1,0,0,0.6002,Obsidian_12,5,12,4,5,0.6,-0.348148148,-0.410185185,1,0,0,0.632,Obsidian_rect,5,0.632,1,1,0,1,0,1,,,,,,,,,,,,
61267e282a445af9eb95beae,SCN,2024-06-10_15h02.18.257,LearnStrategy,2023.2.3,Win32,59.88023952,8,1,3,0.225925926,0.083333333,1,0,0,0.6503,Andesite_04,1,04,4,6,0.65,-0.455555556,-0.252777778,1,0,0,0.7488,Andesite_rect,1,0.749,1,2,0,2,0,1,,,,,,,,,,,,
61267e282a445af9eb95beae,SCN,2024-06-10_15h02.18.257,LearnStrategy,2023.2.3,Win32,59.88023952,8,1,4,0.34537037,0.065740741,1,0,0,0.7999,Basalt_06,2,06,4,7,0.8,-0.155555556,-0.256481481,1,0,0,0.8964,Basalt_rect,2,0.896,1,3,0,3,0,1,,,,,,,,,,,,
61267e282a445af9eb95beae,SCN,2024-06-10_15h02.18.257,LearnStrategy,2023.2.3,Win32,59.88023952,8,1,5,0.519444444,0.096296296,1,0,0,0.6503,Diorite_11,3,11,4,8,0.65,0.172222222,-0.256481481,1,0,0,1.1998,Diorite_rect,3,1.2,1,4,0,4,0,1,,,,,,,,,,,,
61267e282a445af9eb95beae,SCN,2024-06-10_15h02.18.257,LearnStrategy,2023.2.3,Win32,59.88023952,8,1,6,0.400925926,-0.087962963,1,0,0,1.1674,Obsidian_05,5,05,3,7,1.167,-0.361111111,-0.418518519,1,0,0,1.016,Obsidian_rect,5,1.016,1,5,0,5,0,1,,,,,,,,,,,,
61267e282a445af9eb95beae,SCN,2024-06-10_15h02.18.257,LearnStrategy,2023.2.3,Win32,59.88023952,8,1,7,0.556481481,-0.281481481,1,0,0,0.7171,Peridotite_16,7,16,2,8,0.717,0.116666667,-0.39537037,1,0,0,1.5,Peridotite_rect,7,1.5,1,6,0,6,0,1,,,,,,,,,,,,
61267e282a445af9eb95beae,SCN,2024-06-10_15h02.18.257,LearnStrategy,2023.2.3,Win32,59.88023952,8,1,8,0.376851852,-0.274074074,1,0,0,0.8507,Pumice_09,8,09,2,7,0.851,0.380555556,-0.393518519,1,0,0,0.4817,Pumice_rect,8,0.482,1,7,0,7,0,1,,,,,,,,,,,,
61267e282a445af9eb95beae,SCN,2024-06-10_15h02.18.257,LearnStrategy,2023.2.3,Win32,59.88023952,8,1,9,0.244444444,0.228703704,1,0,0,2.6525,Diorite_10,3,10,5,6,2.653,0.093518519,-0.25,1,0,0,1.6335,Diorite_rect,3,1.633,1,8,0,8,0,1,,,,,,,,,,,,
61267e282a445af9eb95beae,SCN,2024-06-10_15h02.18.257,LearnStrategy,2023.2.3,Win32,59.88023952,8,1,10,0.387037037,0.242592593,1,0,0,0.7003,Peridotite_15,7,15,5,7,0.7,0.147222222,-0.399074074,1,0,0,1.3832,Peridotite_rect,7,1.383,1,9,0,9,0,1,,,,,,,,,,,,
61267e282a445af9eb95beae,SCN,2024-06-10_15h02.18.257,LearnStrategy,2023.2.3,Win32,59.88023952,8,1,11,-0.074074074,0.24537037,1,0,0,0.7504,Andesite_16,1,16,5,4,0.75,0.118518519,-0.258333333,1,0,0,1.2648,Diorite_rect,3,1.265,0,10,0,10,0,1,,,,,,,,,,,,
61267e282a445af9eb95beae,SCN,2024-06-10_15h02.18.257,LearnStrategy,2023.2.3,Win32,59.88023952,8,1,12,-0.248148148,0.247222222,1,0,0,1.0676,Andesite_07,1,07,5,3,1.068,-0.332407407,-0.262037037,1,0,0,1.2172,Andesite_rect,1,1.217,1,11,0,11,0,1,,,,,,,,,,,,
61267e282a445af9eb95beae,SCN,2024-06-10_15h02.18.257,LearnStrategy,2023.2.3,Win32,59.88023952,8,1,13,-0.407407407,0.239814815,1,0,0,1.0674,Diorite_07,3,07,5,2,1.067,0.134259259,-0.238888889,1,0,0,0.8992,Diorite_rect,3,0.899,1,12,0,12,0,1,,,,,,,,,,,,
61267e282a445af9eb95beae,SCN,2024-06-10_15h02.18.257,LearnStrategy,2023.2.3,Win32,59.88023952,8,1,14,-0.534259259,0.237962963,1,0,0,0.7837,Pumice_16,8,16,5,1,0.784,0.42037037,-0.397222222,1,0,0,0.7325,Pumice_rect,8,0.733,1,13,0,13,0,1,,,,,,,,,,,,
61267e282a445af9eb95beae,SCN,2024-06-10_15h02.18.257,LearnStrategy,2023.2.3,Win32,59.88023952,8,1,15,-0.54537037,0.086111111,1,0,0,0.9145,Pegmatite_15,6,15,4,1,0.914,-0.107407407,-0.389814815,1,0,0,0.5838,Pegmatite_rect,6,0.584,1,14,0,14,0,1,,,,,,,,,,,,
61267e282a445af9eb95beae,SCN,2024-06-10_15h02.18.257,LearnStrategy,2023.2.3,Win32,59.88023952,8,1,16,-0.219444444,0.05462963,1,0,0,1.0173,Obsidian_10,5,10,4,3,1.017,-0.431481481,-0.39537037,1,0,0,1.0331,Obsidian_rect,5,1.033,1,15,0,15,0,1,,,,,,,,,,,,
61267e282a445af9eb95beae,SCN,2024-06-10_15h02.18.257,LearnStrategy,2023.2.3,Win32,59.88023952,8,2,1,,,,,,,,1,05,,,,,,,,,,,7,10.614,0,,,,,,0.122222222,-0.405555556,1,0,0,10.6136,Peridotite_rect,0,0,0,0,1
61267e282a445af9eb95beae,SCN,2024-06-10_15h02.18.257,LearnStrategy,2023.2.3,Win32,59.88023952,8,2,2,,,,,,,,7,04,,,,,,,,,,,1,5.7,0,,,,,,-0.337962963,-0.264814815,1,0,0,5.7003,Andesite_rect,1,0,1,0,1
61267e282a445af9eb95beae,SCN,2024-06-10_15h02.18.257,LearnStrategy,2023.2.3,Win32,59.88023952,8,2,3,,,,,,,,8,03,,,,,,,,,,,8,1.062,1,,,,,,0.356481481,-0.406481481,1,0,0,1.0619,Pumice_rect,2,0,2,0,1
61267e282a445af9eb95beae,SCN,2024-06-10_15h02.18.257,LearnStrategy,2023.2.3,Win32,59.88023952,8,2,4,,,,,,,,8,06,,,,,,,,,,,8,0.95,1,,,,,,0.361111111,-0.393518519,1,0,0,0.9501,Pumice_rect,3,0,3,0,1
61267e282a445af9eb95beae,SCN,2024-06-10_15h02.18.257,LearnStrategy,2023.2.3,Win32,59.88023952,8,2,5,,,,,,,,1,14,,,,,,,,,,,6,2.003,0,,,,,,-0.137962963,-0.400925926,1,0,0,2.0026,Pegmatite_rect,4,0,4,0,1
61267e282a445af9eb95beae,SCN,2024-06-10_15h02.18.257,LearnStrategy,2023.2.3,Win32,59.88023952,8,2,6,,,,,,,,2,14,,,,,,,,,,,8,4.672,0,,,,,,0.427777778,-0.408333333,1,0,0,4.6717,Pumice_rect,5,0,5,0,1
61267e282a445af9eb95beae,SCN,2024-06-10_15h02.18.257,LearnStrategy,2023.2.3,Win32,59.88023952,8,2,7,,,,,,,,5,09,,,,,,,,,,,5,1.062,1,,,,,,-0.474074074,-0.386111111,1,0,0,1.062,Obsidian_rect,6,0,6,0,1
61267e282a445af9eb95beae,SCN,2024-06-10_15h02.18.257,LearnStrategy,2023.2.3,Win32,59.88023952,8,2,8,,,,,,,,4,12,,,,,,,,,,,4,6.59,1,,,,,,0.476851852,-0.267592593,1,0,0,6.5897,Gabbro_rect,7,0,7,0,1
61267e282a445af9eb95beae,SCN,2024-06-10_15h02.18.257,LearnStrategy,2023.2.3,Win32,59.88023952,8,2,9,,,,,,,,2,05,,,,,,,,,,,2,1.328,1,,,,,,-0.12037037,-0.248148148,1,0,0,1.3285,Basalt_rect,8,0,8,0,1
61267e282a445af9eb95beae,SCN,2024-06-10_15h02.18.257,LearnStrategy,2023.2.3,Win32,59.88023952,8,2,10,,,,,,,,3,02,,,,,,,,,,,3,2.701,1,,,,,,0.112037037,-0.247222222,1,0,0,2.7014,Diorite_rect,9,0,9,0,1
61267e282a445af9eb95beae,SCN,2024-06-10_15h02.18.257,LearnStrategy,2023.2.3,Win32,59.88023952,8,2,11,,,,,,,,7,14,,,,,,,,,,,3,0.911,0,,,,,,0.109259259,-0.255555556,1,0,0,0.9114,Diorite_rect,10,0,10,0,1
61267e282a445af9eb95beae,SCN,2024-06-10_15h02.18.257,LearnStrategy,2023.2.3,Win32,59.88023952,8,2,12,,,,,,,,5,16,,,,,,,,,,,5,1.168,1,,,,,,-0.448148148,-0.415740741,1,0,0,1.1675,Obsidian_rect,11,0,11,0,1
61267e282a445af9eb95beae,SCN,2024-06-10_15h02.18.257,LearnStrategy,2023.2.3,Win32,59.88023952,8,2,13,,,,,,,,6,16,,,,,,,,,,,6,1.302,1,,,,,,-0.105555556,-0.37962963,1,0,0,1.3016,Pegmatite_rect,12,0,12,0,1
61267e282a445af9eb95beae,SCN,2024-06-10_15h02.18.257,LearnStrategy,2023.2.3,Win32,59.88023952,8,2,14,,,,,,,,6,07,,,,,,,,,,,6,1.4,1,,,,,,-0.117592593,-0.397222222,1,0,0,1.4004,Pegmatite_rect,13,0,13,0,1
61267e282a445af9eb95beae,SCN,2024-06-10_15h02.18.257,LearnStrategy,2023.2.3,Win32,59.88023952,8,2,15,,,,,,,,3,14,,,,,,,,,,,3,4.187,1,,,,,,0.07037037,-0.256481481,1,0,0,4.1868,Diorite_rect,14,0,14,0,1
61267e282a445af9eb95beae,SCN,2024-06-10_15h02.18.257,LearnStrategy,2023.2.3,Win32,59.88023952,8,2,16,,,,,,,,4,13,,,,,,,,,,,4,1.112,1,,,,,,0.385185185,-0.27037037,1,0,0,1.1122,Gabbro_rect,15,0,15,0,1
61267e282a445af9eb95beae,SCN,2024-06-10_15h02.18.257,LearnStrategy,2023.2.3,Win32,59.88023952,9,1,1,-0.074074074,0.237037037,1,0,0,0.7509,Andesite_16,1,16,5,4,0.751,-0.35,-0.233333333,1,0,0,0.9995,Andesite_rect,1,0.999,1,0,0,0,0,1,,,,,,,,,,,,
61267e282a445af9eb95beae,SCN,2024-06-10_15h02.18.257,LearnStrategy,2023.2.3,Win32,59.88023952,9,1,2,-0.259259259,0.261111111,1,0,0,0.8666,Andesite_07,1,07,5,3,0.867,-0.368518519,-0.25,1,0,0,0.7657,Andesite_rect,1,0.766,1,1,0,1,0,1,,,,,,,,,,,,
61267e282a445af9eb95beae,SCN,2024-06-10_15h02.18.257,LearnStrategy,2023.2.3,Win32,59.88023952,9,1,3,-0.051851852,0.101851852,1,0,0,0.9673,Peridotite_06,7,06,4,4,0.967,0.133333333,-0.407407407,1,0,0,1.0826,Peridotite_rect,7,1.083,1,2,0,2,0,1,,,,,,,,,,,,
61267e282a445af9eb95beae,SCN,2024-06-10_15h02.18.257,LearnStrategy,2023.2.3,Win32,59.88023952,9,1,4,-0.249074074,-0.112037037,1,0,0,1.4678,Basalt_04,2,04,3,3,1.468,-0.138888889,-0.255555556,1,0,0,1.0496,Basalt_rect,2,1.05,1,3,0,3,0,1,,,,,,,,,,,,
61267e282a445af9eb95beae,SCN,2024-06-10_15h02.18.257,LearnStrategy,2023.2.3,Win32,59.88023952,9,1,5,-0.386111111,-0.108333333,1,0,0,0.6504,Pegmatite_13,6,13,3,2,0.65,-0.112962963,-0.394444444,1,0,0,0.6824,Pegmatite_rect,6,0.682,1,4,0,4,0,1,,,,,,,,,,,,
61267e282a445af9eb95beae,SCN,2024-06-10_15h02.18.257,LearnStrategy,2023.2.3,Win32,59.88023952,9,1,6,-0.592592593,-0.10462963,1,0,0,0.6674,Pegmatite_12,6,12,3,1,0.667,-0.094444444,-0.407407407,1,0,0,1.3997,Pegmatite_rect,6,1.4,1,5,0,5,0,1,,,,,,,,,,,,
61267e282a445af9eb95beae,SCN,2024-06-10_15h02.18.257,LearnStrategy,2023.2.3,Win32,59.88023952,9,1,7,-0.198148148,-0.275,1,0,0,1.1676,Diorite_08,3,08,2,3,1.168,0.126851852,-0.240740741,1,0,0,0.5992,Diorite_rect,3,0.599,1,6,0,6,0,1,,,,,,,,,,,,
61267e282a445af9eb95beae,SCN,2024-06-10_15h02.18.257,LearnStrategy,2023.2.3,Win32,59.88023952,9,1,8,0.093518519,-0.278703704,1,0,0,1.1509,Gabbro_15,4,15,2,5,1.151,0.366666667,-0.22962963,1,0,0,0.8828,Gabbro_rect,4,0.883,1,7,0,7,0,1,,,,,,,,,,,,
61267e282a445af9eb95beae,SCN,2024-06-10_15h02.18.257,LearnStrategy,2023.2.3,Win32,59.88023952,9,1,9,0.526851852,-0.275,1,0,0,0.834,Peridotite_16,7,16,2,8,0.834,0.114814815,-0.39537037,1,0,0,1.9336,Peridotite_rect,7,1.934,1,8,0,8,0,1,,,,,,,,,,,,
61267e282a445af9eb95beae,SCN,2024-06-10_15h02.18.257,LearnStrategy,2023.2.3,Win32,59.88023952,9,1,10,0.394444444,-0.417592593,1,0,0,0.8341,Peridotite_13,7,13,1,7,0.834,0.137962963,-0.399074074,1,0,0,1.1992,Peridotite_rect,7,1.199,1,9,0,9,0,1,,,,,,,,,,,,
61267e282a445af9eb95beae,SCN,2024-06-10_15h02.18.257,LearnStrategy,2023.2.3,Win32,59.88023952,9,1,11,0.227777778,-0.437037037,1,0,0,0.7841,Pumice_14,8,14,1,6,0.784,0.423148148,-0.392592593,1,0,0,0.5988,Pumice_rect,8,0.599,1,10,0,10,0,1,,,,,,,,,,,,
61267e282a445af9eb95beae,SCN,2024-06-10_15h02.18.257,LearnStrategy,2023.2.3,Win32,59.88023952,9,1,12,0.552777778,-0.406481481,1,0,0,0.884,Andesite_09,1,09,1,8,0.884,-0.362037037,-0.250925926,1,0,0,1.3675,Andesite_rect,1,1.368,1,11,0,11,0,1,,,,,,,,,,,,
61267e282a445af9eb95beae,SCN,2024-06-10_15h02.18.257,LearnStrategy,2023.2.3,Win32,59.88023952,9,1,13,0.076851852,-0.437037037,1,0,0,0.7812,Basalt_01,2,01,1,5,0.781,-0.108333333,-0.242592593,1,0,0,0.9827,Basalt_rect,2,0.983,1,12,0,12,0,1,,,,,,,,,,,,
61267e282a445af9eb95beae,SCN,2024-06-10_15h02.18.257,LearnStrategy,2023.2.3,Win32,59.88023952,9,1,14,-0.251851852,-0.402777778,1,0,0,0.8842,Pegmatite_11,6,11,1,3,0.884,-0.131481481,-0.387962963,1,0,0,0.6158,Pegmatite_rect,6,0.616,1,13,0,13,0,1,,,,,,,,,,,,
61267e282a445af9eb95beae,SCN,2024-06-10_15h02.18.257,LearnStrategy,2023.2.3,Win32,59.88023952,9,1,15,-0.387962963,-0.387037037,1,0,0,0.8673,Peridotite_08,7,08,1,2,0.867,0.125925926,-0.391666667,1,0,0,1.1831,Peridotite_rect,7,1.183,1,14,0,14,0,1,,,,,,,,,,,,
61267e282a445af9eb95beae,SCN,2024-06-10_15h02.18.257,LearnStrategy,2023.2.3,Win32,59.88023952,9,1,16,-0.543518519,-0.42962963,1,0,0,0.8328,Pumice_04,8,04,1,1,0.833,0.322222222,-0.411111111,1,0,0,1.1498,Pumice_rect,8,1.15,1,15,0,15,0,1,,,,,,,,,,,,
61267e282a445af9eb95beae,SCN,2024-06-10_15h02.18.257,LearnStrategy,2023.2.3,Win32,59.88023952,9,2,1,,,,,,,,2,12,,,,,,,,,,,8,4.048,0,,,,,,0.388888889,-0.398148148,1,0,0,4.0484,Pumice_rect,0,0,0,0,1
61267e282a445af9eb95beae,SCN,2024-06-10_15h02.18.257,LearnStrategy,2023.2.3,Win32,59.88023952,9,2,2,,,,,,,,1,10,,,,,,,,,,,1,6.028,1,,,,,,-0.378703704,-0.25462963,1,0,0,6.0285,Andesite_rect,1,0,1,0,1
61267e282a445af9eb95beae,SCN,2024-06-10_15h02.18.257,LearnStrategy,2023.2.3,Win32,59.88023952,9,2,3,,,,,,,,8,08,,,,,,,,,,,8,1.641,1,,,,,,0.425925926,-0.413888889,1,0,0,1.6408,Pumice_rect,2,0,2,0,1
61267e282a445af9eb95beae,SCN,2024-06-10_15h02.18.257,LearnStrategy,2023.2.3,Win32,59.88023952,9,2,4,,,,,,,,6,03,,,,,,,,,,,7,1.88,0,,,,,,0.112962963,-0.409259259,1,0,0,1.8796,Peridotite_rect,3,0,3,0,1
61267e282a445af9eb95beae,SCN,2024-06-10_15h02.18.257,LearnStrategy,2023.2.3,Win32,59.88023952,9,2,5,,,,,,,,4,05,,,,,,,,,,,4,1.346,1,,,,,,0.375925926,-0.255555556,1,0,0,1.3458,Gabbro_rect,4,0,4,0,1
61267e282a445af9eb95beae,SCN,2024-06-10_15h02.18.257,LearnStrategy,2023.2.3,Win32,59.88023952,9,2,6,,,,,,,,5,11,,,,,,,,,,,5,1.046,1,,,,,,-0.385185185,-0.400925926,1,0,0,1.046,Obsidian_rect,5,0,5,0,1
61267e282a445af9eb95beae,SCN,2024-06-10_15h02.18.257,LearnStrategy,2023.2.3,Win32,59.88023952,9,2,7,,,,,,,,2,09,,,,,,,,,,,2,3.565,1,,,,,,-0.094444444,-0.262962963,1,0,0,3.565,Basalt_rect,6,0,6,0,1
61267e282a445af9eb95beae,SCN,2024-06-10_15h02.18.257,LearnStrategy,2023.2.3,Win32,59.88023952,9,2,8,,,,,,,,3,09,,,,,,,,,,,3,2.608,1,,,,,,0.142592593,-0.25462963,1,0,0,2.6083,Diorite_rect,7,0,7,0,1
61267e282a445af9eb95beae,SCN,2024-06-10_15h02.18.257,LearnStrategy,2023.2.3,Win32,59.88023952,9,2,9,,,,,,,,6,05,,,,,,,,,,,6,1.574,1,,,,,,-0.096296296,-0.407407407,1,0,0,1.5742,Pegmatite_rect,8,0,8,0,1
61267e282a445af9eb95beae,SCN,2024-06-10_15h02.18.257,LearnStrategy,2023.2.3,Win32,59.88023952,9,2,10,,,,,,,,8,02,,,,,,,,,,,8,1.129,1,,,,,,0.417592593,-0.391666667,1,0,0,1.1292,Pumice_rect,9,0,9,0,1
61267e282a445af9eb95beae,SCN,2024-06-10_15h02.18.257,LearnStrategy,2023.2.3,Win32,59.88023952,9,2,11,,,,,,,,1,01,,,,,,,,,,,1,4.048,1,,,,,,-0.342592593,-0.230555556,1,0,0,4.0484,Andesite_rect,10,0,10,0,1
61267e282a445af9eb95beae,SCN,2024-06-10_15h02.18.257,LearnStrategy,2023.2.3,Win32,59.88023952,9,2,12,,,,,,,,7,10,,,,,,,,,,,7,2.542,1,,,,,,0.137037037,-0.412037037,1,0,0,2.5424,Peridotite_rect,11,0,11,0,1
61267e282a445af9eb95beae,SCN,2024-06-10_15h02.18.257,LearnStrategy,2023.2.3,Win32,59.88023952,9,2,13,,,,,,,,7,02,,,,,,,,,,,7,1.413,1,,,,,,0.124074074,-0.39537037,1,0,0,1.4129,Peridotite_rect,12,0,12,0,1
61267e282a445af9eb95beae,SCN,2024-06-10_15h02.18.257,LearnStrategy,2023.2.3,Win32,59.88023952,9,2,14,,,,,,,,4,14,,,,,,,,,,,4,1.413,1,,,,,,0.384259259,-0.256481481,1,0,0,1.4127,Gabbro_rect,13,0,13,0,1
61267e282a445af9eb95beae,SCN,2024-06-10_15h02.18.257,LearnStrategy,2023.2.3,Win32,59.88023952,9,2,15,,,,,,,,5,06,,,,,,,,,,,5,1.329,1,,,,,,-0.37962963,-0.405555556,1,0,0,1.3289,Obsidian_rect,14,0,14,0,1
61267e282a445af9eb95beae,SCN,2024-06-10_15h02.18.257,LearnStrategy,2023.2.3,Win32,59.88023952,9,2,16,,,,,,,,3,12,,,,,,,,,,,3,4.8,1,,,,,,0.152777778,-0.255555556,1,0,0,4.7995,Diorite_rect,15,0,15,0,1
61267e282a445af9eb95beae,SCN,2024-06-10_15h02.18.257,LearnStrategy,2023.2.3,Win32,59.88023952,,,,,,,,,,,,,,,,,,,,,,,,,,,,,,,,,,,,,,,,,,
61267e282a445af9eb95beae,SCN,2024-06-10_15h02.18.257,LearnStrategy,2023.2.3,Win32,59.88023952,,,,,,,,,,,,,,,,,,,,,,,,,,,,,,,,,,,,,,,,,,
61267e282a445af9eb95beae,SCN,2024-06-10_15h02.18.257,LearnStrategy,2023.2.3,Win32,59.88023952,,,,,,,,,,,8,04,1,1,,,,,,,,,,,,,,,,,,,,,,,,,,,,
61267e282a445af9eb95beae,SCN,2024-06-10_15h02.18.257,LearnStrategy,2023.2.3,Win32,59.88023952,,,,,,,,,,,7,08,1,2,,,,,,,,,,,,,,,,,,,,,,,,,,,,
61267e282a445af9eb95beae,SCN,2024-06-10_15h02.18.257,LearnStrategy,2023.2.3,Win32,59.88023952,,,,,,,,,,,6,11,1,3,,,,,,,,,,,,,,,,,,,,,,,,,,,,
61267e282a445af9eb95beae,SCN,2024-06-10_15h02.18.257,LearnStrategy,2023.2.3,Win32,59.88023952,,,,,,,,,,,8,13,1,4,,,,,,,,,,,,,,,,,,,,,,,,,,,,
61267e282a445af9eb95beae,SCN,2024-06-10_15h02.18.257,LearnStrategy,2023.2.3,Win32,59.88023952,,,,,,,,,,,2,01,1,5,,,,,,,,,,,,,,,,,,,,,,,,,,,,
61267e282a445af9eb95beae,SCN,2024-06-10_15h02.18.257,LearnStrategy,2023.2.3,Win32,59.88023952,,,,,,,,,,,8,14,1,6,,,,,,,,,,,,,,,,,,,,,,,,,,,,
61267e282a445af9eb95beae,SCN,2024-06-10_15h02.18.257,LearnStrategy,2023.2.3,Win32,59.88023952,,,,,,,,,,,7,13,1,7,,,,,,,,,,,,,,,,,,,,,,,,,,,,
61267e282a445af9eb95beae,SCN,2024-06-10_15h02.18.257,LearnStrategy,2023.2.3,Win32,59.88023952,,,,,,,,,,,1,09,1,8,,,,,,,,,,,,,,,,,,,,,,,,,,,,
61267e282a445af9eb95beae,SCN,2024-06-10_15h02.18.257,LearnStrategy,2023.2.3,Win32,59.88023952,,,,,,,,,,,3,06,2,1,,,,,,,,,,,,,,,,,,,,,,,,,,,,
61267e282a445af9eb95beae,SCN,2024-06-10_15h02.18.257,LearnStrategy,2023.2.3,Win32,59.88023952,,,,,,,,,,,3,15,2,2,,,,,,,,,,,,,,,,,,,,,,,,,,,,
61267e282a445af9eb95beae,SCN,2024-06-10_15h02.18.257,LearnStrategy,2023.2.3,Win32,59.88023952,,,,,,,,,,,3,08,2,3,,,,,,,,,,,,,,,,,,,,,,,,,,,,
61267e282a445af9eb95beae,SCN,2024-06-10_15h02.18.257,LearnStrategy,2023.2.3,Win32,59.88023952,,,,,,,,,,,4,03,2,4,,,,,,,,,,,,,,,,,,,,,,,,,,,,
61267e282a445af9eb95beae,SCN,2024-06-10_15h02.18.257,LearnStrategy,2023.2.3,Win32,59.88023952,,,,,,,,,,,4,15,2,5,,,,,,,,,,,,,,,,,,,,,,,,,,,,
61267e282a445af9eb95beae,SCN,2024-06-10_15h02.18.257,LearnStrategy,2023.2.3,Win32,59.88023952,,,,,,,,,,,6,10,2,6,,,,,,,,,,,,,,,,,,,,,,,,,,,,
61267e282a445af9eb95beae,SCN,2024-06-10_15h02.18.257,LearnStrategy,2023.2.3,Win32,59.88023952,,,,,,,,,,,8,09,2,7,,,,,,,,,,,,,,,,,,,,,,,,,,,,
61267e282a445af9eb95beae,SCN,2024-06-10_15h02.18.257,LearnStrategy,2023.2.3,Win32,59.88023952,,,,,,,,,,,7,16,2,8,,,,,,,,,,,,,,,,,,,,,,,,,,,,
61267e282a445af9eb95beae,SCN,2024-06-10_15h02.18.257,LearnStrategy,2023.2.3,Win32,59.88023952,,,,,,,,,,,6,12,3,1,,,,,,,,,,,,,,,,,,,,,,,,,,,,
61267e282a445af9eb95beae,SCN,2024-06-10_15h02.18.257,LearnStrategy,2023.2.3,Win32,59.88023952,,,,,,,,,,,6,13,3,2,,,,,,,,,,,,,,,,,,,,,,,,,,,,
61267e282a445af9eb95beae,SCN,2024-06-10_15h02.18.257,LearnStrategy,2023.2.3,Win32,59.88023952,,,,,,,,,,,2,04,3,3,,,,,,,,,,,,,,,,,,,,,,,,,,,,
61267e282a445af9eb95beae,SCN,2024-06-10_15h02.18.257,LearnStrategy,2023.2.3,Win32,59.88023952,,,,,,,,,,,4,11,3,4,,,,,,,,,,,,,,,,,,,,,,,,,,,,
61267e282a445af9eb95beae,SCN,2024-06-10_15h02.18.257,LearnStrategy,2023.2.3,Win32,59.88023952,,,,,,,,,,,1,03,3,5,,,,,,,,,,,,,,,,,,,,,,,,,,,,
61267e282a445af9eb95beae,SCN,2024-06-10_15h02.18.257,LearnStrategy,2023.2.3,Win32,59.88023952,,,,,,,,,,,5,08,3,6,,,,,,,,,,,,,,,,,,,,,,,,,,,,
61267e282a445af9eb95beae,SCN,2024-06-10_15h02.18.257,LearnStrategy,2023.2.3,Win32,59.88023952,,,,,,,,,,,5,05,3,7,,,,,,,,,,,,,,,,,,,,,,,,,,,,
61267e282a445af9eb95beae,SCN,2024-06-10_15h02.18.257,LearnStrategy,2023.2.3,Win32,59.88023952,,,,,,,,,,,8,10,3,8,,,,,,,,,,,,,,,,,,,,,,,,,,,,
61267e282a445af9eb95beae,SCN,2024-06-10_15h02.18.257,LearnStrategy,2023.2.3,Win32,59.88023952,,,,,,,,,,,6,15,4,1,,,,,,,,,,,,,,,,,,,,,,,,,,,,
61267e282a445af9eb95beae,SCN,2024-06-10_15h02.18.257,LearnStrategy,2023.2.3,Win32,59.88023952,,,,,,,,,,,4,09,4,2,,,,,,,,,,,,,,,,,,,,,,,,,,,,
61267e282a445af9eb95beae,SCN,2024-06-10_15h02.18.257,LearnStrategy,2023.2.3,Win32,59.88023952,,,,,,,,,,,5,10,4,3,,,,,,,,,,,,,,,,,,,,,,,,,,,,
61267e282a445af9eb95beae,SCN,2024-06-10_15h02.18.257,LearnStrategy,2023.2.3,Win32,59.88023952,,,,,,,,,,,7,06,4,4,,,,,,,,,,,,,,,,,,,,,,,,,,,,
61267e282a445af9eb95beae,SCN,2024-06-10_15h02.18.257,LearnStrategy,2023.2.3,Win32,59.88023952,,,,,,,,,,,5,12,4,5,,,,,,,,,,,,,,,,,,,,,,,,,,,,
61267e282a445af9eb95beae,SCN,2024-06-10_15h02.18.257,LearnStrategy,2023.2.3,Win32,59.88023952,,,,,,,,,,,1,04,4,6,,,,,,,,,,,,,,,,,,,,,,,,,,,,
61267e282a445af9eb95beae,SCN,2024-06-10_15h02.18.257,LearnStrategy,2023.2.3,Win32,59.88023952,,,,,,,,,,,2,06,4,7,,,,,,,,,,,,,,,,,,,,,,,,,,,,
61267e282a445af9eb95beae,SCN,2024-06-10_15h02.18.257,LearnStrategy,2023.2.3,Win32,59.88023952,,,,,,,,,,,3,11,4,8,,,,,,,,,,,,,,,,,,,,,,,,,,,,
61267e282a445af9eb95beae,SCN,2024-06-10_15h02.18.257,LearnStrategy,2023.2.3,Win32,59.88023952,,,,,,,,,,,8,16,5,1,,,,,,,,,,,,,,,,,,,,,,,,,,,,
61267e282a445af9eb95beae,SCN,2024-06-10_15h02.18.257,LearnStrategy,2023.2.3,Win32,59.88023952,,,,,,,,,,,3,07,5,2,,,,,,,,,,,,,,,,,,,,,,,,,,,,
61267e282a445af9eb95beae,SCN,2024-06-10_15h02.18.257,LearnStrategy,2023.2.3,Win32,59.88023952,,,,,,,,,,,1,07,5,3,,,,,,,,,,,,,,,,,,,,,,,,,,,,
61267e282a445af9eb95beae,SCN,2024-06-10_15h02.18.257,LearnStrategy,2023.2.3,Win32,59.88023952,,,,,,,,,,,1,16,5,4,,,,,,,,,,,,,,,,,,,,,,,,,,,,
61267e282a445af9eb95beae,SCN,2024-06-10_15h02.18.257,LearnStrategy,2023.2.3,Win32,59.88023952,,,,,,,,,,,2,02,5,5,,,,,,,,,,,,,,,,,,,,,,,,,,,,
61267e282a445af9eb95beae,SCN,2024-06-10_15h02.18.257,LearnStrategy,2023.2.3,Win32,59.88023952,,,,,,,,,,,3,10,5,6,,,,,,,,,,,,,,,,,,,,,,,,,,,,
61267e282a445af9eb95beae,SCN,2024-06-10_15h02.18.257,LearnStrategy,2023.2.3,Win32,59.88023952,,,,,,,,,,,7,15,5,7,,,,,,,,,,,,,,,,,,,,,,,,,,,,
61267e282a445af9eb95beae,SCN,2024-06-10_15h02.18.257,LearnStrategy,2023.2.3,Win32,59.88023952,,,,,,,,,,,5,14,5,8,,,,,,,,,,,,,,,,,,,,,,,,,,,,
61267e282a445af9eb95beae,SCN,2024-06-10_15h02.18.257,LearnStrategy,2023.2.3,Win32,59.88023952,,,,,,,,,,,6,06,6,1,,,,,,,,,,,,,,,,,,,,,,,,,,,,
61267e282a445af9eb95beae,SCN,2024-06-10_15h02.18.257,LearnStrategy,2023.2.3,Win32,59.88023952,,,,,,,,,,,1,11,6,2,,,,,,,,,,,,,,,,,,,,,,,,,,,,
61267e282a445af9eb95beae,SCN,2024-06-10_15h02.18.257,LearnStrategy,2023.2.3,Win32,59.88023952,,,,,,,,,,,4,08,6,3,,,,,,,,,,,,,,,,,,,,,,,,,,,,
61267e282a445af9eb95beae,SCN,2024-06-10_15h02.18.257,LearnStrategy,2023.2.3,Win32,59.88023952,,,,,,,,,,,4,01,6,4,,,,,,,,,,,,,,,,,,,,,,,,,,,,
61267e282a445af9eb95beae,SCN,2024-06-10_15h02.18.257,LearnStrategy,2023.2.3,Win32,59.88023952,,,,,,,,,,,2,08,6,5,,,,,,,,,,,,,,,,,,,,,,,,,,,,
61267e282a445af9eb95beae,SCN,2024-06-10_15h02.18.257,LearnStrategy,2023.2.3,Win32,59.88023952,,,,,,,,,,,2,16,6,6,,,,,,,,,,,,,,,,,,,,,,,,,,,,
61267e282a445af9eb95beae,SCN,2024-06-10_15h02.18.257,LearnStrategy,2023.2.3,Win32,59.88023952,,,,,,,,,,,5,04,6,7,,,,,,,,,,,,,,,,,,,,,,,,,,,,
61267e282a445af9eb95beae,SCN,2024-06-10_15h02.18.257,LearnStrategy,2023.2.3,Win32,59.88023952,,,,,,,,,,,7,12,6,8,,,,,,,,,,,,,,,,,,,,,,,,,,,,