participant,condition,date,expName,psychopyVersion,OS,frameRate,block,phase,trial,learn_mouse_2.x,learn_mouse_2.y,learn_mouse_2.leftButton,learn_mouse_2.midButton,learn_mouse_2.rightButton,learn_mouse_2.time,learn_mouse_2.clicked_name,cat,token,row,col,t_select,cat_mouse_l.x,cat_mouse_l.y,cat_mouse_l.leftButton,cat_mouse_l.midButton,cat_mouse_l.rightButton,cat_mouse_l.time,cat_mouse_l.clicked_name,resp,t_resp,corr,train_trials.thisRepN,train_trials.thisTrialN,train_trials.thisN,train_trials.thisIndex,train_trials.ran,cat_mouse_t.x,cat_mouse_t.y,cat_mouse_t.leftButton,cat_mouse_t.midButton,cat_mouse_t.rightButton,cat_mouse_t.time,cat_mouse_t.clicked_name,test_trials.thisRepN,test_trials.thisTrialN,test_trials.thisN,test_trials.thisIndex,test_trials.ran,Bonus
612962f44f151ddfd0298c52,TCR,2024-06-25_12h39.57.087,LearnStrategy,2023.2.3,Win32,29.9940012,,,,,,,,,,,,,,,,,,,,,,,,,,,,,,,,,,,,,,,,,,,
612962f44f151ddfd0298c52,TCR,2024-06-25_12h39.57.087,LearnStrategy,2023.2.3,Win32,29.9940012,1,1,1,-0.066666667,0.003333333,1,0,0,2.676,rock_grid_rect_2,3,16,-1,-1,2.676,-0.168888889,-0.263333333,1,0,0,5.585,Basalt_rect,2,5.585,0,0,0,0,0,1,,,,,,,,,,,,,
612962f44f151ddfd0298c52,TCR,2024-06-25_12h39.57.087,LearnStrategy,2023.2.3,Win32,29.9940012,1,1,2,0.008888889,-0.013333333,1,0,0,1.649,rock_grid_rect_2,4,14,-1,-1,1.649,-0.113333333,-0.246666667,1,0,0,6.522,Basalt_rect,2,6.522,0,1,0,1,0,1,,,,,,,,,,,,,
612962f44f151ddfd0298c52,TCR,2024-06-25_12h39.57.087,LearnStrategy,2023.2.3,Win32,29.9940012,1,1,3,0.02,0,1,0,0,4.478,rock_grid_rect_2,1,05,-1,-1,4.478,-0.443333333,-0.407777778,1,0,0,10.986,Obsidian_rect,5,10.986,0,2,0,2,0,1,,,,,,,,,,,,,
612962f44f151ddfd0298c52,TCR,2024-06-25_12h39.57.087,LearnStrategy,2023.2.3,Win32,29.9940012,1,1,4,-0.023333333,-0.002222222,1,0,0,2.367,rock_grid_rect_2,7,14,-1,-1,2.367,-0.086666667,-0.267777778,1,0,0,2.229,Basalt_rect,2,2.229,0,3,0,3,0,1,,,,,,,,,,,,,
612962f44f151ddfd0298c52,TCR,2024-06-25_12h39.57.087,LearnStrategy,2023.2.3,Win32,29.9940012,1,1,5,0.057777778,0.006666667,1,0,0,1.473,rock_grid_rect_2,5,04,-1,-1,1.473,-0.35,-0.412222222,1,0,0,3.975,Obsidian_rect,5,3.975,1,4,0,4,0,1,,,,,,,,,,,,,
612962f44f151ddfd0298c52,TCR,2024-06-25_12h39.57.087,LearnStrategy,2023.2.3,Win32,29.9940012,1,1,6,-0.018888889,-0.007777778,1,0,0,2.2,rock_grid_rect_2,8,08,-1,-1,2.2,-0.144444444,-0.243333333,1,0,0,2.323,Basalt_rect,2,2.323,0,5,0,5,0,1,,,,,,,,,,,,,
612962f44f151ddfd0298c52,TCR,2024-06-25_12h39.57.087,LearnStrategy,2023.2.3,Win32,29.9940012,1,1,7,0.141111111,-0.002222222,1,0,0,1.756,rock_grid_rect_2,5,16,-1,-1,1.756,-0.367777778,-0.416666667,1,0,0,1.952,Obsidian_rect,5,1.952,1,6,0,6,0,1,,,,,,,,,,,,,
612962f44f151ddfd0298c52,TCR,2024-06-25_12h39.57.087,LearnStrategy,2023.2.3,Win32,29.9940012,1,1,8,-0.015555556,-0.014444444,1,0,0,1.645,rock_grid_rect_2,2,16,-1,-1,1.645,-0.2,-0.261111111,1,0,0,4.356,Basalt_rect,2,4.356,1,7,0,7,0,1,,,,,,,,,,,,,
612962f44f151ddfd0298c52,TCR,2024-06-25_12h39.57.087,LearnStrategy,2023.2.3,Win32,29.9940012,1,1,9,-0.03,-0.007777778,1,0,0,1.559,rock_grid_rect_2,7,08,-1,-1,1.559,0.114444444,-0.254444444,1,0,0,7.668,Diorite_rect,3,7.668,0,8,0,8,0,1,,,,,,,,,,,,,
612962f44f151ddfd0298c52,TCR,2024-06-25_12h39.57.087,LearnStrategy,2023.2.3,Win32,29.9940012,1,1,10,-0.017777778,-0.021111111,1,0,0,2.983,rock_grid_rect_2,1,02,-1,-1,2.983,-0.486666667,-0.257777778,1,0,0,2.666,Andesite_rect,1,2.666,1,9,0,9,0,1,,,,,,,,,,,,,
612962f44f151ddfd0298c52,TCR,2024-06-25_12h39.57.087,LearnStrategy,2023.2.3,Win32,29.9940012,1,1,11,-0.004444444,0.001111111,1,0,0,1.818,rock_grid_rect_2,8,05,-1,-1,1.818,0.357777778,-0.406666667,1,0,0,3.877,Pumice_rect,8,3.877,1,10,0,10,0,1,,,,,,,,,,,,,
612962f44f151ddfd0298c52,TCR,2024-06-25_12h39.57.087,LearnStrategy,2023.2.3,Win32,29.9940012,1,1,12,-0.022222222,-0.005555556,1,0,0,1.393,rock_grid_rect_2,6,16,-1,-1,1.393,0.081111111,-0.231111111,1,0,0,4.272,Diorite_rect,3,4.272,0,11,0,11,0,1,,,,,,,,,,,,,
612962f44f151ddfd0298c52,TCR,2024-06-25_12h39.57.087,LearnStrategy,2023.2.3,Win32,29.9940012,1,1,13,0.04,-0.004444444,1,0,0,1.451,rock_grid_rect_2,3,02,-1,-1,1.451,0.34,-0.262222222,1,0,0,3.05,Gabbro_rect,4,3.05,0,12,0,12,0,1,,,,,,,,,,,,,
612962f44f151ddfd0298c52,TCR,2024-06-25_12h39.57.087,LearnStrategy,2023.2.3,Win32,29.9940012,1,1,14,0.01,-0.016666667,1,0,0,1.573,rock_grid_rect_2,4,11,-1,-1,1.573,-0.078888889,-0.388888889,1,0,0,6.527,Pegmatite_rect,6,6.527,0,13,0,13,0,1,,,,,,,,,,,,,
612962f44f151ddfd0298c52,TCR,2024-06-25_12h39.57.087,LearnStrategy,2023.2.3,Win32,29.9940012,1,1,15,0.018888889,-0.008888889,1,0,0,1.84,rock_grid_rect_2,2,09,-1,-1,1.84,0.377777778,-0.251111111,1,0,0,4.006,Gabbro_rect,4,4.006,0,14,0,14,0,1,,,,,,,,,,,,,
612962f44f151ddfd0298c52,TCR,2024-06-25_12h39.57.087,LearnStrategy,2023.2.3,Win32,29.9940012,1,1,16,0.02,-0.003333333,1,0,0,1.801,rock_grid_rect_2,6,11,-1,-1,1.801,-0.138888889,-0.418888889,1,0,0,13.575,Pegmatite_rect,6,13.575,1,15,0,15,0,1,,,,,,,,,,,,,
612962f44f151ddfd0298c52,TCR,2024-06-25_12h39.57.087,LearnStrategy,2023.2.3,Win32,29.9940012,1,2,1,,,,,,,,4,09,,,,,,,,,,,2,10.567,0,,,,,,-0.184444444,-0.234444444,1,0,0,10.567,Basalt_rect,0,0,0,0,1,
612962f44f151ddfd0298c52,TCR,2024-06-25_12h39.57.087,LearnStrategy,2023.2.3,Win32,29.9940012,1,2,2,,,,,,,,1,01,,,,,,,,,,,6,3.81,0,,,,,,-0.186666667,-0.388888889,1,0,0,3.81,Pegmatite_rect,1,0,1,0,1,
612962f44f151ddfd0298c52,TCR,2024-06-25_12h39.57.087,LearnStrategy,2023.2.3,Win32,29.9940012,1,2,3,,,,,,,,5,08,,,,,,,,,,,5,1.887,1,,,,,,-0.322222222,-0.398888889,1,0,0,1.887,Obsidian_rect,2,0,2,0,1,
612962f44f151ddfd0298c52,TCR,2024-06-25_12h39.57.087,LearnStrategy,2023.2.3,Win32,29.9940012,1,2,4,,,,,,,,5,10,,,,,,,,,,,5,1.175,1,,,,,,-0.323333333,-0.382222222,1,0,0,1.175,Obsidian_rect,3,0,3,0,1,
612962f44f151ddfd0298c52,TCR,2024-06-25_12h39.57.087,LearnStrategy,2023.2.3,Win32,29.9940012,1,2,5,,,,,,,,3,06,,,,,,,,,,,6,2.129,0,,,,,,-0.138888889,-0.388888889,1,0,0,2.129,Pegmatite_rect,4,0,4,0,1,
612962f44f151ddfd0298c52,TCR,2024-06-25_12h39.57.087,LearnStrategy,2023.2.3,Win32,29.9940012,1,2,6,,,,,,,,8,15,,,,,,,,,,,8,3.534,1,,,,,,0.376666667,-0.397777778,1,0,0,3.534,Pumice_rect,5,0,5,0,1,
612962f44f151ddfd0298c52,TCR,2024-06-25_12h39.57.087,LearnStrategy,2023.2.3,Win32,29.9940012,1,2,7,,,,,,,,7,02,,,,,,,,,,,3,10.057,0,,,,,,0.144444444,-0.235555556,1,0,0,10.057,Diorite_rect,6,0,6,0,1,
612962f44f151ddfd0298c52,TCR,2024-06-25_12h39.57.087,LearnStrategy,2023.2.3,Win32,29.9940012,1,2,8,,,,,,,,2,01,,,,,,,,,,,2,1.848,1,,,,,,-0.085555556,-0.238888889,1,0,0,1.848,Basalt_rect,7,0,7,0,1,
612962f44f151ddfd0298c52,TCR,2024-06-25_12h39.57.087,LearnStrategy,2023.2.3,Win32,29.9940012,1,2,9,,,,,,,,1,06,,,,,,,,,,,2,2.888,0,,,,,,-0.085555556,-0.238888889,1,0,0,2.888,Basalt_rect,8,0,8,0,1,
612962f44f151ddfd0298c52,TCR,2024-06-25_12h39.57.087,LearnStrategy,2023.2.3,Win32,29.9940012,1,2,10,,,,,,,,2,06,,,,,,,,,,,5,2.112,0,,,,,,-0.361111111,-0.421111111,1,0,0,2.112,Obsidian_rect,9,0,9,0,1,
612962f44f151ddfd0298c52,TCR,2024-06-25_12h39.57.087,LearnStrategy,2023.2.3,Win32,29.9940012,1,2,11,,,,,,,,6,09,,,,,,,,,,,6,9.4,1,,,,,,-0.068888889,-0.408888889,1,0,0,9.4,Pegmatite_rect,10,0,10,0,1,
612962f44f151ddfd0298c52,TCR,2024-06-25_12h39.57.087,LearnStrategy,2023.2.3,Win32,29.9940012,1,2,12,,,,,,,,4,03,,,,,,,,,,,1,2.499,0,,,,,,-0.398888889,-0.26,1,0,0,2.499,Andesite_rect,11,0,11,0,1,
612962f44f151ddfd0298c52,TCR,2024-06-25_12h39.57.087,LearnStrategy,2023.2.3,Win32,29.9940012,1,2,13,,,,,,,,8,06,,,,,,,,,,,8,1.9,1,,,,,,0.354444444,-0.39,1,0,0,1.9,Pumice_rect,12,0,12,0,1,
612962f44f151ddfd0298c52,TCR,2024-06-25_12h39.57.087,LearnStrategy,2023.2.3,Win32,29.9940012,1,2,14,,,,,,,,6,05,,,,,,,,,,,6,1.952,1,,,,,,-0.177777778,-0.411111111,1,0,0,1.952,Pegmatite_rect,13,0,13,0,1,
612962f44f151ddfd0298c52,TCR,2024-06-25_12h39.57.087,LearnStrategy,2023.2.3,Win32,29.9940012,1,2,15,,,,,,,,7,13,,,,,,,,,,,3,2.604,0,,,,,,0.194444444,-0.238888889,1,0,0,2.604,Diorite_rect,14,0,14,0,1,
612962f44f151ddfd0298c52,TCR,2024-06-25_12h39.57.087,LearnStrategy,2023.2.3,Win32,29.9940012,1,2,16,,,,,,,,3,14,,,,,,,,,,,6,2.048,0,,,,,,-0.177777778,-0.408888889,1,0,0,2.048,Pegmatite_rect,15,0,15,0,1,
612962f44f151ddfd0298c52,TCR,2024-06-25_12h39.57.087,LearnStrategy,2023.2.3,Win32,29.9940012,2,1,1,-0.07,-0.022222222,1,0,0,2.542,rock_grid_rect_2,1,09,-1,-1,2.542,-0.161111111,-0.265555556,1,0,0,11.308,Basalt_rect,2,11.308,0,0,0,0,0,1,,,,,,,,,,,,,
612962f44f151ddfd0298c52,TCR,2024-06-25_12h39.57.087,LearnStrategy,2023.2.3,Win32,29.9940012,2,1,2,0.027777778,-0.01,1,0,0,1.504,rock_grid_rect_2,5,09,-1,-1,1.504,-0.344444444,-0.388888889,1,0,0,2.556,Obsidian_rect,5,2.556,1,1,0,1,0,1,,,,,,,,,,,,,
612962f44f151ddfd0298c52,TCR,2024-06-25_12h39.57.087,LearnStrategy,2023.2.3,Win32,29.9940012,2,1,3,0.026666667,-0.011111111,1,0,0,1.367,rock_grid_rect_2,3,12,-1,-1,1.367,-0.13,-0.402222222,1,0,0,1.522,Pegmatite_rect,6,1.522,0,2,0,2,0,1,,,,,,,,,,,,,
612962f44f151ddfd0298c52,TCR,2024-06-25_12h39.57.087,LearnStrategy,2023.2.3,Win32,29.9940012,2,1,4,-0.122222222,0.002222222,1,0,0,2.091,rock_grid_rect_2,1,14,-1,-1,2.091,-0.073333333,-0.411111111,1,0,0,5.664,Pegmatite_rect,6,5.664,0,3,0,3,0,1,,,,,,,,,,,,,
612962f44f151ddfd0298c52,TCR,2024-06-25_12h39.57.087,LearnStrategy,2023.2.3,Win32,29.9940012,2,1,5,-0.088888889,0,1,0,0,1.637,rock_grid_rect_2,3,16,-1,-1,1.637,-0.444444444,-0.251111111,1,0,0,3.267,Andesite_rect,1,3.267,0,4,0,4,0,1,,,,,,,,,,,,,
612962f44f151ddfd0298c52,TCR,2024-06-25_12h39.57.087,LearnStrategy,2023.2.3,Win32,29.9940012,2,1,6,0.047777778,-0.007777778,1,0,0,1.541,rock_grid_rect_2,7,05,-1,-1,1.541,-0.121111111,-0.258888889,1,0,0,1.59,Basalt_rect,2,1.59,0,5,0,5,0,1,,,,,,,,,,,,,
612962f44f151ddfd0298c52,TCR,2024-06-25_12h39.57.087,LearnStrategy,2023.2.3,Win32,29.9940012,2,1,7,-0.09,-0.011111111,1,0,0,1.242,rock_grid_rect_2,1,11,-1,-1,1.242,-0.162222222,-0.418888889,1,0,0,3.769,Pegmatite_rect,6,3.769,0,6,0,6,0,1,,,,,,,,,,,,,
612962f44f151ddfd0298c52,TCR,2024-06-25_12h39.57.087,LearnStrategy,2023.2.3,Win32,29.9940012,2,1,8,-0.113333333,-0.003333333,1,0,0,1.208,rock_grid_rect_2,4,13,-1,-1,1.208,0.207777778,-0.266666667,1,0,0,3.393,Diorite_rect,3,3.393,0,7,0,7,0,1,,,,,,,,,,,,,
612962f44f151ddfd0298c52,TCR,2024-06-25_12h39.57.087,LearnStrategy,2023.2.3,Win32,29.9940012,2,1,9,0.013333333,-0.012222222,1,0,0,1.318,rock_grid_rect_2,4,10,-1,-1,1.318,0.053333333,-0.407777778,1,0,0,3.807,Peridotite_rect,7,3.807,0,8,0,8,0,1,,,,,,,,,,,,,
612962f44f151ddfd0298c52,TCR,2024-06-25_12h39.57.087,LearnStrategy,2023.2.3,Win32,29.9940012,2,1,10,-0.064444444,-0.014444444,1,0,0,1.1,rock_grid_rect_2,2,02,-1,-1,1.1,-0.115555556,-0.251111111,1,0,0,2.071,Basalt_rect,2,2.071,1,9,0,9,0,1,,,,,,,,,,,,,
612962f44f151ddfd0298c52,TCR,2024-06-25_12h39.57.087,LearnStrategy,2023.2.3,Win32,29.9940012,2,1,11,-0.082222222,-0.012222222,1,0,0,1.116,rock_grid_rect_2,3,12,-1,-1,1.116,0.387777778,-0.261111111,1,0,0,5.51,Gabbro_rect,4,5.51,0,10,0,10,0,1,,,,,,,,,,,,,
612962f44f151ddfd0298c52,TCR,2024-06-25_12h39.57.087,LearnStrategy,2023.2.3,Win32,29.9940012,2,1,12,0.03,0,1,0,0,1.244,rock_grid_rect_2,6,15,-1,-1,1.244,-0.128888889,-0.383333333,1,0,0,1.618,Pegmatite_rect,6,1.618,1,11,0,11,0,1,,,,,,,,,,,,,
612962f44f151ddfd0298c52,TCR,2024-06-25_12h39.57.087,LearnStrategy,2023.2.3,Win32,29.9940012,2,1,13,-0.104444444,-0.01,1,0,0,1.285,rock_grid_rect_2,7,14,-1,-1,1.285,0.135555556,-0.251111111,1,0,0,3.382,Diorite_rect,3,3.382,0,12,0,12,0,1,,,,,,,,,,,,,
612962f44f151ddfd0298c52,TCR,2024-06-25_12h39.57.087,LearnStrategy,2023.2.3,Win32,29.9940012,2,1,14,0.045555556,-0.007777778,1,0,0,1.721,rock_grid_rect_2,2,12,-1,-1,1.721,0.334444444,-0.395555556,1,0,0,2.214,Pumice_rect,8,2.214,0,13,0,13,0,1,,,,,,,,,,,,,
612962f44f151ddfd0298c52,TCR,2024-06-25_12h39.57.087,LearnStrategy,2023.2.3,Win32,29.9940012,2,1,15,-0.043333333,-0.012222222,1,0,0,1.291,rock_grid_rect_2,4,14,-1,-1,1.291,0.354444444,-0.243333333,1,0,0,2.968,Gabbro_rect,4,2.968,1,14,0,14,0,1,,,,,,,,,,,,,
612962f44f151ddfd0298c52,TCR,2024-06-25_12h39.57.087,LearnStrategy,2023.2.3,Win32,29.9940012,2,1,16,-0.008888889,-0.007777778,1,0,0,1.319,rock_grid_rect_2,7,14,-1,-1,1.319,0.383333333,-0.257777778,1,0,0,7.11,Gabbro_rect,4,7.11,0,15,0,15,0,1,,,,,,,,,,,,,
612962f44f151ddfd0298c52,TCR,2024-06-25_12h39.57.087,LearnStrategy,2023.2.3,Win32,29.9940012,2,2,1,,,,,,,,2,14,,,,,,,,,,,1,3.422,0,,,,,,-0.425555556,-0.238888889,1,0,0,3.422,Andesite_rect,0,0,0,0,1,
612962f44f151ddfd0298c52,TCR,2024-06-25_12h39.57.087,LearnStrategy,2023.2.3,Win32,29.9940012,2,2,2,,,,,,,,1,07,,,,,,,,,,,3,4.488,0,,,,,,0.087777778,-0.262222222,1,0,0,4.488,Diorite_rect,1,0,1,0,1,
612962f44f151ddfd0298c52,TCR,2024-06-25_12h39.57.087,LearnStrategy,2023.2.3,Win32,29.9940012,2,2,3,,,,,,,,7,06,,,,,,,,,,,7,5.246,1,,,,,,0.075555556,-0.407777778,1,0,0,5.246,Peridotite_rect,2,0,2,0,1,
612962f44f151ddfd0298c52,TCR,2024-06-25_12h39.57.087,LearnStrategy,2023.2.3,Win32,29.9940012,2,2,4,,,,,,,,6,13,,,,,,,,,,,6,3.393,1,,,,,,-0.131111111,-0.394444444,1,0,0,3.393,Pegmatite_rect,3,0,3,0,1,
612962f44f151ddfd0298c52,TCR,2024-06-25_12h39.57.087,LearnStrategy,2023.2.3,Win32,29.9940012,2,2,5,,,,,,,,3,07,,,,,,,,,,,3,3.532,1,,,,,,0.166666667,-0.256666667,1,0,0,3.532,Diorite_rect,4,0,4,0,1,
612962f44f151ddfd0298c52,TCR,2024-06-25_12h39.57.087,LearnStrategy,2023.2.3,Win32,29.9940012,2,2,6,,,,,,,,8,09,,,,,,,,,,,8,1.658,1,,,,,,0.356666667,-0.396666667,1,0,0,1.658,Pumice_rect,5,0,5,0,1,
612962f44f151ddfd0298c52,TCR,2024-06-25_12h39.57.087,LearnStrategy,2023.2.3,Win32,29.9940012,2,2,7,,,,,,,,2,08,,,,,,,,,,,5,1.879,0,,,,,,-0.347777778,-0.418888889,1,0,0,1.879,Obsidian_rect,6,0,6,0,1,
612962f44f151ddfd0298c52,TCR,2024-06-25_12h39.57.087,LearnStrategy,2023.2.3,Win32,29.9940012,2,2,8,,,,,,,,4,05,,,,,,,,,,,1,2.086,0,,,,,,-0.388888889,-0.261111111,1,0,0,2.086,Andesite_rect,7,0,7,0,1,
612962f44f151ddfd0298c52,TCR,2024-06-25_12h39.57.087,LearnStrategy,2023.2.3,Win32,29.9940012,2,2,9,,,,,,,,6,06,,,,,,,,,,,6,2.397,1,,,,,,-0.185555556,-0.393333333,1,0,0,2.397,Pegmatite_rect,8,0,8,0,1,
612962f44f151ddfd0298c52,TCR,2024-06-25_12h39.57.087,LearnStrategy,2023.2.3,Win32,29.9940012,2,2,10,,,,,,,,8,02,,,,,,,,,,,8,1.592,1,,,,,,0.323333333,-0.394444444,1,0,0,1.592,Pumice_rect,9,0,9,0,1,
612962f44f151ddfd0298c52,TCR,2024-06-25_12h39.57.087,LearnStrategy,2023.2.3,Win32,29.9940012,2,2,11,,,,,,,,7,16,,,,,,,,,,,4,2.102,0,,,,,,0.332222222,-0.252222222,1,0,0,2.102,Gabbro_rect,10,0,10,0,1,
612962f44f151ddfd0298c52,TCR,2024-06-25_12h39.57.087,LearnStrategy,2023.2.3,Win32,29.9940012,2,2,12,,,,,,,,4,15,,,,,,,,,,,3,1.509,0,,,,,,0.187777778,-0.255555556,1,0,0,1.509,Diorite_rect,11,0,11,0,1,
612962f44f151ddfd0298c52,TCR,2024-06-25_12h39.57.087,LearnStrategy,2023.2.3,Win32,29.9940012,2,2,13,,,,,,,,5,11,,,,,,,,,,,5,1.374,1,,,,,,-0.415555556,-0.42,1,0,0,1.374,Obsidian_rect,12,0,12,0,1,
612962f44f151ddfd0298c52,TCR,2024-06-25_12h39.57.087,LearnStrategy,2023.2.3,Win32,29.9940012,2,2,14,,,,,,,,1,04,,,,,,,,,,,1,3.983,1,,,,,,-0.355555556,-0.251111111,1,0,0,3.983,Andesite_rect,13,0,13,0,1,
612962f44f151ddfd0298c52,TCR,2024-06-25_12h39.57.087,LearnStrategy,2023.2.3,Win32,29.9940012,2,2,15,,,,,,,,3,15,,,,,,,,,,,3,2.965,1,,,,,,0.156666667,-0.257777778,1,0,0,2.965,Diorite_rect,14,0,14,0,1,
612962f44f151ddfd0298c52,TCR,2024-06-25_12h39.57.087,LearnStrategy,2023.2.3,Win32,29.9940012,2,2,16,,,,,,,,5,12,,,,,,,,,,,5,2.109,1,,,,,,-0.352222222,-0.414444444,1,0,0,2.109,Obsidian_rect,15,0,15,0,1,
612962f44f151ddfd0298c52,TCR,2024-06-25_12h39.57.087,LearnStrategy,2023.2.3,Win32,29.9940012,3,1,1,-0.017777778,-0.002222222,1,0,0,1.691,rock_grid_rect_2,5,16,-1,-1,1.691,-0.357777778,-0.402222222,1,0,0,1.429,Obsidian_rect,5,1.429,1,0,0,0,0,1,,,,,,,,,,,,,
612962f44f151ddfd0298c52,TCR,2024-06-25_12h39.57.087,LearnStrategy,2023.2.3,Win32,29.9940012,3,1,2,-0.096666667,-0.01,1,0,0,1.211,rock_grid_rect_2,4,12,-1,-1,1.211,-0.181111111,-0.244444444,1,0,0,3.649,Basalt_rect,2,3.649,0,1,0,1,0,1,,,,,,,,,,,,,
612962f44f151ddfd0298c52,TCR,2024-06-25_12h39.57.087,LearnStrategy,2023.2.3,Win32,29.9940012,3,1,3,0.03,-0.005555556,1,0,0,1.768,rock_grid_rect_2,7,07,-1,-1,1.768,0.175555556,-0.256666667,1,0,0,3.281,Diorite_rect,3,3.281,0,2,0,2,0,1,,,,,,,,,,,,,
612962f44f151ddfd0298c52,TCR,2024-06-25_12h39.57.087,LearnStrategy,2023.2.3,Win32,29.9940012,3,1,4,0.045555556,-0.014444444,1,0,0,1.489,rock_grid_rect_2,2,09,-1,-1,1.489,-0.097777778,-0.26,1,0,0,1.744,Basalt_rect,2,1.744,1,3,0,3,0,1,,,,,,,,,,,,,
612962f44f151ddfd0298c52,TCR,2024-06-25_12h39.57.087,LearnStrategy,2023.2.3,Win32,29.9940012,3,1,5,0.002222222,0.004444444,1,0,0,1.103,rock_grid_rect_2,1,02,-1,-1,1.103,0.08,-0.401111111,1,0,0,2.908,Peridotite_rect,7,2.908,0,4,0,4,0,1,,,,,,,,,,,,,
612962f44f151ddfd0298c52,TCR,2024-06-25_12h39.57.087,LearnStrategy,2023.2.3,Win32,29.9940012,3,1,6,-0.09,0.003333333,1,0,0,1.45,rock_grid_rect_2,4,13,-1,-1,1.45,-0.37,-0.255555556,1,0,0,1.228,Andesite_rect,1,1.228,0,5,0,5,0,1,,,,,,,,,,,,,
612962f44f151ddfd0298c52,TCR,2024-06-25_12h39.57.087,LearnStrategy,2023.2.3,Win32,29.9940012,3,1,7,0.015555556,-0.014444444,1,0,0,1.161,rock_grid_rect_2,6,12,-1,-1,1.161,-0.186666667,-0.402222222,1,0,0,5.307,Pegmatite_rect,6,5.307,1,6,0,6,0,1,,,,,,,,,,,,,
612962f44f151ddfd0298c52,TCR,2024-06-25_12h39.57.087,LearnStrategy,2023.2.3,Win32,29.9940012,3,1,8,-0.037777778,-0.006666667,1,0,0,1.304,rock_grid_rect_2,4,10,-1,-1,1.304,0.301111111,-0.26,1,0,0,7.118,Gabbro_rect,4,7.118,1,7,0,7,0,1,,,,,,,,,,,,,
612962f44f151ddfd0298c52,TCR,2024-06-25_12h39.57.087,LearnStrategy,2023.2.3,Win32,29.9940012,3,1,9,-0.091111111,0.012222222,1,0,0,1.22,rock_grid_rect_2,4,11,-1,-1,1.22,-0.144444444,-0.252222222,1,0,0,1.329,Basalt_rect,2,1.329,0,8,0,8,0,1,,,,,,,,,,,,,
612962f44f151ddfd0298c52,TCR,2024-06-25_12h39.57.087,LearnStrategy,2023.2.3,Win32,29.9940012,3,1,10,-0.016666667,0.003333333,1,0,0,1.069,rock_grid_rect_2,3,10,-1,-1,1.069,-0.368888889,-0.265555556,1,0,0,4.163,Andesite_rect,1,4.163,0,9,0,9,0,1,,,,,,,,,,,,,
612962f44f151ddfd0298c52,TCR,2024-06-25_12h39.57.087,LearnStrategy,2023.2.3,Win32,29.9940012,3,1,11,-0.011111111,-0.014444444,1,0,0,1.051,rock_grid_rect_2,1,05,-1,-1,1.051,-0.383333333,-0.253333333,1,0,0,2.98,Andesite_rect,1,2.98,1,10,0,10,0,1,,,,,,,,,,,,,
612962f44f151ddfd0298c52,TCR,2024-06-25_12h39.57.087,LearnStrategy,2023.2.3,Win32,29.9940012,3,1,12,-0.152222222,0.013333333,1,0,0,1.208,rock_grid_rect_2,1,10,-1,-1,1.208,-0.364444444,-0.233333333,1,0,0,3.498,Andesite_rect,1,3.498,1,11,0,11,0,1,,,,,,,,,,,,,
612962f44f151ddfd0298c52,TCR,2024-06-25_12h39.57.087,LearnStrategy,2023.2.3,Win32,29.9940012,3,1,13,-0.011111111,0,1,0,0,1.19,rock_grid_rect_2,7,14,-1,-1,1.19,0.164444444,-0.262222222,1,0,0,4.558,Diorite_rect,3,4.558,0,12,0,12,0,1,,,,,,,,,,,,,
612962f44f151ddfd0298c52,TCR,2024-06-25_12h39.57.087,LearnStrategy,2023.2.3,Win32,29.9940012,3,1,14,-0.033333333,-0.014444444,1,0,0,1.411,rock_grid_rect_2,2,02,-1,-1,1.411,-0.094444444,-0.262222222,1,0,0,3.326,Basalt_rect,2,3.326,1,13,0,13,0,1,,,,,,,,,,,,,
612962f44f151ddfd0298c52,TCR,2024-06-25_12h39.57.087,LearnStrategy,2023.2.3,Win32,29.9940012,3,1,15,0.035555556,-0.013333333,1,0,0,1.274,rock_grid_rect_2,2,10,-1,-1,1.274,-0.117777778,-0.261111111,1,0,0,2.181,Basalt_rect,2,2.181,1,14,0,14,0,1,,,,,,,,,,,,,
612962f44f151ddfd0298c52,TCR,2024-06-25_12h39.57.087,LearnStrategy,2023.2.3,Win32,29.9940012,3,1,16,-0.035555556,0.001111111,1,0,0,1.213,rock_grid_rect_2,3,02,-1,-1,1.213,0.334444444,-0.268888889,1,0,0,4.406,Gabbro_rect,4,4.406,0,15,0,15,0,1,,,,,,,,,,,,,
612962f44f151ddfd0298c52,TCR,2024-06-25_12h39.57.087,LearnStrategy,2023.2.3,Win32,29.9940012,3,2,1,,,,,,,,3,11,,,,,,,,,,,7,5.255,0,,,,,,0.111111111,-0.414444444,1,0,0,5.255,Peridotite_rect,0,0,0,0,1,
612962f44f151ddfd0298c52,TCR,2024-06-25_12h39.57.087,LearnStrategy,2023.2.3,Win32,29.9940012,3,2,2,,,,,,,,7,10,,,,,,,,,,,1,3.422,0,,,,,,-0.36,-0.238888889,1,0,0,3.422,Andesite_rect,1,0,1,0,1,
612962f44f151ddfd0298c52,TCR,2024-06-25_12h39.57.087,LearnStrategy,2023.2.3,Win32,29.9940012,3,2,3,,,,,,,,2,04,,,,,,,,,,,2,4.886,1,,,,,,-0.133333333,-0.258888889,1,0,0,4.886,Basalt_rect,2,0,2,0,1,
612962f44f151ddfd0298c52,TCR,2024-06-25_12h39.57.087,LearnStrategy,2023.2.3,Win32,29.9940012,3,2,4,,,,,,,,3,09,,,,,,,,,,,1,2.581,0,,,,,,-0.36,-0.256666667,1,0,0,2.581,Andesite_rect,3,0,3,0,1,
612962f44f151ddfd0298c52,TCR,2024-06-25_12h39.57.087,LearnStrategy,2023.2.3,Win32,29.9940012,3,2,5,,,,,,,,1,03,,,,,,,,,,,2,2.577,0,,,,,,-0.09,-0.264444444,1,0,0,2.577,Basalt_rect,4,0,4,0,1,
612962f44f151ddfd0298c52,TCR,2024-06-25_12h39.57.087,LearnStrategy,2023.2.3,Win32,29.9940012,3,2,6,,,,,,,,1,16,,,,,,,,,,,3,2.724,0,,,,,,0.168888889,-0.25,1,0,0,2.724,Diorite_rect,5,0,5,0,1,
612962f44f151ddfd0298c52,TCR,2024-06-25_12h39.57.087,LearnStrategy,2023.2.3,Win32,29.9940012,3,2,7,,,,,,,,2,05,,,,,,,,,,,2,2.103,1,,,,,,-0.061111111,-0.262222222,1,0,0,2.103,Basalt_rect,6,0,6,0,1,
612962f44f151ddfd0298c52,TCR,2024-06-25_12h39.57.087,LearnStrategy,2023.2.3,Win32,29.9940012,3,2,8,,,,,,,,4,08,,,,,,,,,,,3,3.722,0,,,,,,0.083333333,-0.244444444,1,0,0,3.722,Diorite_rect,7,0,7,0,1,
612962f44f151ddfd0298c52,TCR,2024-06-25_12h39.57.087,LearnStrategy,2023.2.3,Win32,29.9940012,3,2,9,,,,,,,,5,07,,,,,,,,,,,6,2.321,0,,,,,,-0.181111111,-0.382222222,1,0,0,2.321,Pegmatite_rect,8,0,8,0,1,
612962f44f151ddfd0298c52,TCR,2024-06-25_12h39.57.087,LearnStrategy,2023.2.3,Win32,29.9940012,3,2,10,,,,,,,,6,07,,,,,,,,,,,6,1.555,1,,,,,,-0.135555556,-0.392222222,1,0,0,1.555,Pegmatite_rect,9,0,9,0,1,
612962f44f151ddfd0298c52,TCR,2024-06-25_12h39.57.087,LearnStrategy,2023.2.3,Win32,29.9940012,3,2,11,,,,,,,,8,03,,,,,,,,,,,8,1.687,1,,,,,,0.353333333,-0.397777778,1,0,0,1.687,Pumice_rect,10,0,10,0,1,
612962f44f151ddfd0298c52,TCR,2024-06-25_12h39.57.087,LearnStrategy,2023.2.3,Win32,29.9940012,3,2,12,,,,,,,,5,02,,,,,,,,,,,5,2.222,1,,,,,,-0.373333333,-0.393333333,1,0,0,2.222,Obsidian_rect,11,0,11,0,1,
612962f44f151ddfd0298c52,TCR,2024-06-25_12h39.57.087,LearnStrategy,2023.2.3,Win32,29.9940012,3,2,13,,,,,,,,4,16,,,,,,,,,,,4,4.826,1,,,,,,0.346666667,-0.263333333,1,0,0,4.826,Gabbro_rect,12,0,12,0,1,
612962f44f151ddfd0298c52,TCR,2024-06-25_12h39.57.087,LearnStrategy,2023.2.3,Win32,29.9940012,3,2,14,,,,,,,,7,04,,,,,,,,,,,6,1.66,0,,,,,,-0.078888889,-0.411111111,1,0,0,1.66,Pegmatite_rect,13,0,13,0,1,
612962f44f151ddfd0298c52,TCR,2024-06-25_12h39.57.087,LearnStrategy,2023.2.3,Win32,29.9940012,3,2,15,,,,,,,,6,08,,,,,,,,,,,6,2.094,1,,,,,,-0.08,-0.41,1,0,0,2.094,Pegmatite_rect,14,0,14,0,1,
612962f44f151ddfd0298c52,TCR,2024-06-25_12h39.57.087,LearnStrategy,2023.2.3,Win32,29.9940012,3,2,16,,,,,,,,8,14,,,,,,,,,,,8,2.156,1,,,,,,0.37,-0.398888889,1,0,0,2.156,Pumice_rect,15,0,15,0,1,
612962f44f151ddfd0298c52,TCR,2024-06-25_12h39.57.087,LearnStrategy,2023.2.3,Win32,29.9940012,4,1,1,-0.06,-0.011111111,1,0,0,1.674,rock_grid_rect_2,7,08,-1,-1,1.674,-0.327777778,-0.256666667,1,0,0,6.606,Andesite_rect,1,6.606,0,0,0,0,0,1,,,,,,,,,,,,,
612962f44f151ddfd0298c52,TCR,2024-06-25_12h39.57.087,LearnStrategy,2023.2.3,Win32,29.9940012,4,1,2,-0.027777778,-0.007777778,1,0,0,1.772,rock_grid_rect_2,3,12,-1,-1,1.772,0.131111111,-0.412222222,1,0,0,2.878,Peridotite_rect,7,2.878,0,1,0,1,0,1,,,,,,,,,,,,,
612962f44f151ddfd0298c52,TCR,2024-06-25_12h39.57.087,LearnStrategy,2023.2.3,Win32,29.9940012,4,1,3,-0.071111111,0.017777778,1,0,0,1.69,rock_grid_rect_2,1,11,-1,-1,1.69,-0.125555556,-0.408888889,1,0,0,3.292,Pegmatite_rect,6,3.292,0,2,0,2,0,1,,,,,,,,,,,,,
612962f44f151ddfd0298c52,TCR,2024-06-25_12h39.57.087,LearnStrategy,2023.2.3,Win32,29.9940012,4,1,4,-0.034444444,-0.017777778,1,0,0,1.195,rock_grid_rect_2,3,12,-1,-1,1.195,0.088888889,-0.41,1,0,0,2.484,Peridotite_rect,7,2.484,0,3,0,3,0,1,,,,,,,,,,,,,
612962f44f151ddfd0298c52,TCR,2024-06-25_12h39.57.087,LearnStrategy,2023.2.3,Win32,29.9940012,4,1,5,-0.133333333,-0.015555556,1,0,0,1.233,rock_grid_rect_2,4,14,-1,-1,1.233,0.388888889,-0.255555556,1,0,0,4.004,Gabbro_rect,4,4.004,1,4,0,4,0,1,,,,,,,,,,,,,
612962f44f151ddfd0298c52,TCR,2024-06-25_12h39.57.087,LearnStrategy,2023.2.3,Win32,29.9940012,4,1,6,-0.051111111,-0.005555556,1,0,0,1.096,rock_grid_rect_2,1,02,-1,-1,1.096,-0.391111111,-0.25,1,0,0,4.999,Andesite_rect,1,4.999,1,5,0,5,0,1,,,,,,,,,,,,,
612962f44f151ddfd0298c52,TCR,2024-06-25_12h39.57.087,LearnStrategy,2023.2.3,Win32,29.9940012,4,1,7,0.004444444,0.001111111,1,0,0,1.225,rock_grid_rect_2,7,14,-1,-1,1.225,0.136666667,-0.393333333,1,0,0,2.061,Peridotite_rect,7,2.061,1,6,0,6,0,1,,,,,,,,,,,,,
612962f44f151ddfd0298c52,TCR,2024-06-25_12h39.57.087,LearnStrategy,2023.2.3,Win32,29.9940012,4,1,8,-0.036666667,-0.015555556,1,0,0,1.251,rock_grid_rect_2,6,11,-1,-1,1.251,-0.094444444,-0.402222222,1,0,0,1.452,Pegmatite_rect,6,1.452,1,7,0,7,0,1,,,,,,,,,,,,,
612962f44f151ddfd0298c52,TCR,2024-06-25_12h39.57.087,LearnStrategy,2023.2.3,Win32,29.9940012,4,1,9,-0.02,-0.012222222,1,0,0,1.016,rock_grid_rect_2,3,16,-1,-1,1.016,0.107777778,-0.398888889,1,0,0,5.466,Peridotite_rect,7,5.466,0,8,0,8,0,1,,,,,,,,,,,,,
612962f44f151ddfd0298c52,TCR,2024-06-25_12h39.57.087,LearnStrategy,2023.2.3,Win32,29.9940012,4,1,10,-0.028888889,-0.018888889,1,0,0,1.183,rock_grid_rect_2,4,12,-1,-1,1.183,-0.133333333,-0.262222222,1,0,0,1.789,Basalt_rect,2,1.789,0,9,0,9,0,1,,,,,,,,,,,,,
612962f44f151ddfd0298c52,TCR,2024-06-25_12h39.57.087,LearnStrategy,2023.2.3,Win32,29.9940012,4,1,11,-0.073333333,-0.003333333,1,0,0,1.079,rock_grid_rect_2,1,05,-1,-1,1.079,0.096666667,-0.258888889,1,0,0,3.348,Diorite_rect,3,3.348,0,10,0,10,0,1,,,,,,,,,,,,,
612962f44f151ddfd0298c52,TCR,2024-06-25_12h39.57.087,LearnStrategy,2023.2.3,Win32,29.9940012,4,1,12,-0.123333333,-0.007777778,1,0,0,1.037,rock_grid_rect_2,5,14,-1,-1,1.037,-0.374444444,-0.391111111,1,0,0,1.799,Obsidian_rect,5,1.799,1,11,0,11,0,1,,,,,,,,,,,,,
612962f44f151ddfd0298c52,TCR,2024-06-25_12h39.57.087,LearnStrategy,2023.2.3,Win32,29.9940012,4,1,13,-0.037777778,-0.01,1,0,0,1.177,rock_grid_rect_2,4,10,-1,-1,1.177,-0.385555556,-0.267777778,1,0,0,4.077,Andesite_rect,1,4.077,0,12,0,12,0,1,,,,,,,,,,,,,
612962f44f151ddfd0298c52,TCR,2024-06-25_12h39.57.087,LearnStrategy,2023.2.3,Win32,29.9940012,4,1,14,-0.054444444,-0.003333333,1,0,0,1.265,rock_grid_rect_2,7,14,-1,-1,1.265,0.124444444,-0.392222222,1,0,0,1.792,Peridotite_rect,7,1.792,1,13,0,13,0,1,,,,,,,,,,,,,
612962f44f151ddfd0298c52,TCR,2024-06-25_12h39.57.087,LearnStrategy,2023.2.3,Win32,29.9940012,4,1,15,-0.037777778,-0.01,1,0,0,1.136,rock_grid_rect_2,2,02,-1,-1,1.136,-0.145555556,-0.264444444,1,0,0,1.612,Basalt_rect,2,1.612,1,14,0,14,0,1,,,,,,,,,,,,,
612962f44f151ddfd0298c52,TCR,2024-06-25_12h39.57.087,LearnStrategy,2023.2.3,Win32,29.9940012,4,1,16,-0.027777778,0.005555556,1,0,0,1.495,rock_grid_rect_2,2,10,-1,-1,1.495,0.351111111,-0.253333333,1,0,0,5.618,Gabbro_rect,4,5.618,0,15,0,15,0,1,,,,,,,,,,,,,
612962f44f151ddfd0298c52,TCR,2024-06-25_12h39.57.087,LearnStrategy,2023.2.3,Win32,29.9940012,4,2,1,,,,,,,,3,07,,,,,,,,,,,7,2.04,0,,,,,,0.075555556,-0.407777778,1,0,0,2.04,Peridotite_rect,0,0,0,0,1,
612962f44f151ddfd0298c52,TCR,2024-06-25_12h39.57.087,LearnStrategy,2023.2.3,Win32,29.9940012,4,2,2,,,,,,,,3,15,,,,,,,,,,,1,3.533,0,,,,,,-0.345555556,-0.265555556,1,0,0,3.533,Andesite_rect,1,0,1,0,1,
612962f44f151ddfd0298c52,TCR,2024-06-25_12h39.57.087,LearnStrategy,2023.2.3,Win32,29.9940012,4,2,3,,,,,,,,7,04,,,,,,,,,,,6,1.586,0,,,,,,-0.183333333,-0.391111111,1,0,0,1.586,Pegmatite_rect,2,0,2,0,1,
612962f44f151ddfd0298c52,TCR,2024-06-25_12h39.57.087,LearnStrategy,2023.2.3,Win32,29.9940012,4,2,4,,,,,,,,8,14,,,,,,,,,,,8,2.331,1,,,,,,0.361111111,-0.41,1,0,0,2.331,Pumice_rect,3,0,3,0,1,
612962f44f151ddfd0298c52,TCR,2024-06-25_12h39.57.087,LearnStrategy,2023.2.3,Win32,29.9940012,4,2,5,,,,,,,,4,09,,,,,,,,,,,4,3.38,1,,,,,,0.337777778,-0.251111111,1,0,0,3.38,Gabbro_rect,4,0,4,0,1,
612962f44f151ddfd0298c52,TCR,2024-06-25_12h39.57.087,LearnStrategy,2023.2.3,Win32,29.9940012,4,2,6,,,,,,,,4,15,,,,,,,,,,,7,2.365,0,,,,,,0.07,-0.394444444,1,0,0,2.365,Peridotite_rect,5,0,5,0,1,
612962f44f151ddfd0298c52,TCR,2024-06-25_12h39.57.087,LearnStrategy,2023.2.3,Win32,29.9940012,4,2,7,,,,,,,,7,16,,,,,,,,,,,1,1.789,0,,,,,,-0.383333333,-0.236666667,1,0,0,1.789,Andesite_rect,6,0,6,0,1,
612962f44f151ddfd0298c52,TCR,2024-06-25_12h39.57.087,LearnStrategy,2023.2.3,Win32,29.9940012,4,2,8,,,,,,,,1,06,,,,,,,,,,,2,1.48,0,,,,,,-0.1,-0.238888889,1,0,0,1.48,Basalt_rect,7,0,7,0,1,
612962f44f151ddfd0298c52,TCR,2024-06-25_12h39.57.087,LearnStrategy,2023.2.3,Win32,29.9940012,4,2,9,,,,,,,,8,02,,,,,,,,,,,8,1.488,1,,,,,,0.321111111,-0.396666667,1,0,0,1.488,Pumice_rect,8,0,8,0,1,
612962f44f151ddfd0298c52,TCR,2024-06-25_12h39.57.087,LearnStrategy,2023.2.3,Win32,29.9940012,4,2,10,,,,,,,,5,07,,,,,,,,,,,6,1.622,0,,,,,,-0.072222222,-0.411111111,1,0,0,1.622,Pegmatite_rect,9,0,9,0,1,
612962f44f151ddfd0298c52,TCR,2024-06-25_12h39.57.087,LearnStrategy,2023.2.3,Win32,29.9940012,4,2,11,,,,,,,,2,08,,,,,,,,,,,2,1.631,1,,,,,,-0.101111111,-0.25,1,0,0,1.631,Basalt_rect,10,0,10,0,1,
612962f44f151ddfd0298c52,TCR,2024-06-25_12h39.57.087,LearnStrategy,2023.2.3,Win32,29.9940012,4,2,12,,,,,,,,5,11,,,,,,,,,,,5,1.418,1,,,,,,-0.335555556,-0.381111111,1,0,0,1.418,Obsidian_rect,11,0,11,0,1,
612962f44f151ddfd0298c52,TCR,2024-06-25_12h39.57.087,LearnStrategy,2023.2.3,Win32,29.9940012,4,2,13,,,,,,,,2,04,,,,,,,,,,,2,1.479,1,,,,,,-0.161111111,-0.251111111,1,0,0,1.479,Basalt_rect,12,0,12,0,1,
612962f44f151ddfd0298c52,TCR,2024-06-25_12h39.57.087,LearnStrategy,2023.2.3,Win32,29.9940012,4,2,14,,,,,,,,6,07,,,,,,,,,,,6,1.355,1,,,,,,-0.122222222,-0.38,1,0,0,1.355,Pegmatite_rect,13,0,13,0,1,
612962f44f151ddfd0298c52,TCR,2024-06-25_12h39.57.087,LearnStrategy,2023.2.3,Win32,29.9940012,4,2,15,,,,,,,,6,13,,,,,,,,,,,7,1.728,0,,,,,,0.118888889,-0.407777778,1,0,0,1.728,Peridotite_rect,14,0,14,0,1,
612962f44f151ddfd0298c52,TCR,2024-06-25_12h39.57.087,LearnStrategy,2023.2.3,Win32,29.9940012,4,2,16,,,,,,,,1,16,,,,,,,,,,,3,2.183,0,,,,,,0.136666667,-0.241111111,1,0,0,2.183,Diorite_rect,15,0,15,0,1,
612962f44f151ddfd0298c52,TCR,2024-06-25_12h39.57.087,LearnStrategy,2023.2.3,Win32,29.9940012,5,1,1,0.021111111,0.008888889,1,0,0,1.512,rock_grid_rect_2,3,13,-1,-1,1.512,0.145555556,-0.405555556,1,0,0,8.399,Peridotite_rect,7,8.399,0,0,0,0,0,1,,,,,,,,,,,,,
612962f44f151ddfd0298c52,TCR,2024-06-25_12h39.57.087,LearnStrategy,2023.2.3,Win32,29.9940012,5,1,2,-0.042222222,-0.017777778,1,0,0,1.642,rock_grid_rect_2,4,12,-1,-1,1.642,-0.082222222,-0.26,1,0,0,1.628,Basalt_rect,2,1.628,0,1,0,1,0,1,,,,,,,,,,,,,
612962f44f151ddfd0298c52,TCR,2024-06-25_12h39.57.087,LearnStrategy,2023.2.3,Win32,29.9940012,5,1,3,-0.045555556,0.01,1,0,0,1.044,rock_grid_rect_2,8,04,-1,-1,1.044,0.357777778,-0.404444444,1,0,0,1.441,Pumice_rect,8,1.441,1,2,0,2,0,1,,,,,,,,,,,,,
612962f44f151ddfd0298c52,TCR,2024-06-25_12h39.57.087,LearnStrategy,2023.2.3,Win32,29.9940012,5,1,4,-0.008888889,-0.007777778,1,0,0,1.133,rock_grid_rect_2,1,10,-1,-1,1.133,0.338888889,-0.242222222,1,0,0,5.126,Gabbro_rect,4,5.126,0,3,0,3,0,1,,,,,,,,,,,,,
612962f44f151ddfd0298c52,TCR,2024-06-25_12h39.57.087,LearnStrategy,2023.2.3,Win32,29.9940012,5,1,5,-0.033333333,-0.007777778,1,0,0,0.996,rock_grid_rect_2,1,11,-1,-1,0.996,-0.344444444,-0.236666667,1,0,0,3.083,Andesite_rect,1,3.083,1,4,0,4,0,1,,,,,,,,,,,,,
612962f44f151ddfd0298c52,TCR,2024-06-25_12h39.57.087,LearnStrategy,2023.2.3,Win32,29.9940012,5,1,6,-0.093333333,0.002222222,1,0,0,1.043,rock_grid_rect_2,7,05,-1,-1,1.043,-0.35,-0.253333333,1,0,0,1.476,Andesite_rect,1,1.476,0,5,0,5,0,1,,,,,,,,,,,,,
612962f44f151ddfd0298c52,TCR,2024-06-25_12h39.57.087,LearnStrategy,2023.2.3,Win32,29.9940012,5,1,7,0.002222222,-0.01,1,0,0,1.055,rock_grid_rect_2,5,04,-1,-1,1.055,-0.343333333,-0.402222222,1,0,0,1.607,Obsidian_rect,5,1.607,1,6,0,6,0,1,,,,,,,,,,,,,
612962f44f151ddfd0298c52,TCR,2024-06-25_12h39.57.087,LearnStrategy,2023.2.3,Win32,29.9940012,5,1,8,-0.033333333,-0.01,1,0,0,1.025,rock_grid_rect_2,3,02,-1,-1,1.025,0.126666667,-0.396666667,1,0,0,2.062,Peridotite_rect,7,2.062,0,7,0,7,0,1,,,,,,,,,,,,,
612962f44f151ddfd0298c52,TCR,2024-06-25_12h39.57.087,LearnStrategy,2023.2.3,Win32,29.9940012,5,1,9,-0.166666667,-0.002222222,1,0,0,1.113,rock_grid_rect_2,5,16,-1,-1,1.113,-0.345555556,-0.378888889,1,0,0,1.899,Obsidian_rect,5,1.899,1,8,0,8,0,1,,,,,,,,,,,,,
612962f44f151ddfd0298c52,TCR,2024-06-25_12h39.57.087,LearnStrategy,2023.2.3,Win32,29.9940012,5,1,10,0.031111111,-0.007777778,1,0,0,1.291,rock_grid_rect_2,7,08,-1,-1,1.291,0.096666667,-0.387777778,1,0,0,4.59,Peridotite_rect,7,4.59,1,9,0,9,0,1,,,,,,,,,,,,,
612962f44f151ddfd0298c52,TCR,2024-06-25_12h39.57.087,LearnStrategy,2023.2.3,Win32,29.9940012,5,1,11,-0.024444444,0.001111111,1,0,0,1.043,rock_grid_rect_2,6,10,-1,-1,1.043,-0.077777778,-0.397777778,1,0,0,1.569,Pegmatite_rect,6,1.569,1,10,0,10,0,1,,,,,,,,,,,,,
612962f44f151ddfd0298c52,TCR,2024-06-25_12h39.57.087,LearnStrategy,2023.2.3,Win32,29.9940012,5,1,12,-0.025555556,-0.002222222,1,0,0,1.209,rock_grid_rect_2,3,10,-1,-1,1.209,0.095555556,-0.408888889,1,0,0,5.298,Peridotite_rect,7,5.298,0,11,0,11,0,1,,,,,,,,,,,,,
612962f44f151ddfd0298c52,TCR,2024-06-25_12h39.57.087,LearnStrategy,2023.2.3,Win32,29.9940012,5,1,13,-0.096666667,-0.015555556,1,0,0,1.032,rock_grid_rect_2,4,14,-1,-1,1.032,0.112222222,-0.25,1,0,0,3.552,Diorite_rect,3,3.552,0,12,0,12,0,1,,,,,,,,,,,,,
612962f44f151ddfd0298c52,TCR,2024-06-25_12h39.57.087,LearnStrategy,2023.2.3,Win32,29.9940012,5,1,14,0.012222222,-0.012222222,1,0,0,1.11,rock_grid_rect_2,2,10,-1,-1,1.11,-0.085555556,-0.268888889,1,0,0,1.546,Basalt_rect,2,1.546,1,13,0,13,0,1,,,,,,,,,,,,,
612962f44f151ddfd0298c52,TCR,2024-06-25_12h39.57.087,LearnStrategy,2023.2.3,Win32,29.9940012,5,1,15,-0.072222222,-0.005555556,1,0,0,1.068,rock_grid_rect_2,1,02,-1,-1,1.068,0.094444444,-0.408888889,1,0,0,2.419,Peridotite_rect,7,2.419,0,14,0,14,0,1,,,,,,,,,,,,,
612962f44f151ddfd0298c52,TCR,2024-06-25_12h39.57.087,LearnStrategy,2023.2.3,Win32,29.9940012,5,1,16,-0.02,-0.001111111,1,0,0,0.992,rock_grid_rect_2,7,07,-1,-1,0.992,0.073333333,-0.395555556,1,0,0,3.268,Peridotite_rect,7,3.268,1,15,0,15,0,1,,,,,,,,,,,,,
612962f44f151ddfd0298c52,TCR,2024-06-25_12h39.57.087,LearnStrategy,2023.2.3,Win32,29.9940012,5,2,1,,,,,,,,6,08,,,,,,,,,,,6,2.038,1,,,,,,-0.106666667,-0.386666667,1,0,0,2.038,Pegmatite_rect,0,0,0,0,1,
612962f44f151ddfd0298c52,TCR,2024-06-25_12h39.57.087,LearnStrategy,2023.2.3,Win32,29.9940012,5,2,2,,,,,,,,5,08,,,,,,,,,,,5,1.35,1,,,,,,-0.341111111,-0.404444444,1,0,0,1.35,Obsidian_rect,1,0,1,0,1,
612962f44f151ddfd0298c52,TCR,2024-06-25_12h39.57.087,LearnStrategy,2023.2.3,Win32,29.9940012,5,2,3,,,,,,,,2,14,,,,,,,,,,,1,3.094,0,,,,,,-0.371111111,-0.253333333,1,0,0,3.094,Andesite_rect,2,0,2,0,1,
612962f44f151ddfd0298c52,TCR,2024-06-25_12h39.57.087,LearnStrategy,2023.2.3,Win32,29.9940012,5,2,4,,,,,,,,2,01,,,,,,,,,,,2,1.635,1,,,,,,-0.127777778,-0.253333333,1,0,0,1.635,Basalt_rect,3,0,3,0,1,
612962f44f151ddfd0298c52,TCR,2024-06-25_12h39.57.087,LearnStrategy,2023.2.3,Win32,29.9940012,5,2,5,,,,,,,,5,10,,,,,,,,,,,5,1.395,1,,,,,,-0.364444444,-0.413333333,1,0,0,1.395,Obsidian_rect,4,0,4,0,1,
612962f44f151ddfd0298c52,TCR,2024-06-25_12h39.57.087,LearnStrategy,2023.2.3,Win32,29.9940012,5,2,6,,,,,,,,3,09,,,,,,,,,,,7,1.96,0,,,,,,0.092222222,-0.402222222,1,0,0,1.96,Peridotite_rect,5,0,5,0,1,
612962f44f151ddfd0298c52,TCR,2024-06-25_12h39.57.087,LearnStrategy,2023.2.3,Win32,29.9940012,5,2,7,,,,,,,,4,05,,,,,,,,,,,1,1.428,0,,,,,,-0.405555556,-0.242222222,1,0,0,1.428,Andesite_rect,6,0,6,0,1,
612962f44f151ddfd0298c52,TCR,2024-06-25_12h39.57.087,LearnStrategy,2023.2.3,Win32,29.9940012,5,2,8,,,,,,,,8,06,,,,,,,,,,,8,1.578,1,,,,,,0.338888889,-0.39,1,0,0,1.578,Pumice_rect,7,0,7,0,1,
612962f44f151ddfd0298c52,TCR,2024-06-25_12h39.57.087,LearnStrategy,2023.2.3,Win32,29.9940012,5,2,9,,,,,,,,6,09,,,,,,,,,,,6,1.403,1,,,,,,-0.105555556,-0.411111111,1,0,0,1.403,Pegmatite_rect,8,0,8,0,1,
612962f44f151ddfd0298c52,TCR,2024-06-25_12h39.57.087,LearnStrategy,2023.2.3,Win32,29.9940012,5,2,10,,,,,,,,7,06,,,,,,,,,,,6,1.963,0,,,,,,-0.105555556,-0.411111111,1,0,0,1.963,Pegmatite_rect,9,0,9,0,1,
612962f44f151ddfd0298c52,TCR,2024-06-25_12h39.57.087,LearnStrategy,2023.2.3,Win32,29.9940012,5,2,11,,,,,,,,7,13,,,,,,,,,,,6,0.889,0,,,,,,-0.105555556,-0.411111111,1,0,0,0.889,Pegmatite_rect,10,0,10,0,1,
612962f44f151ddfd0298c52,TCR,2024-06-25_12h39.57.087,LearnStrategy,2023.2.3,Win32,29.9940012,5,2,12,,,,,,,,3,06,,,,,,,,,,,3,1.956,1,,,,,,0.093333333,-0.253333333,1,0,0,1.956,Diorite_rect,11,0,11,0,1,
612962f44f151ddfd0298c52,TCR,2024-06-25_12h39.57.087,LearnStrategy,2023.2.3,Win32,29.9940012,5,2,13,,,,,,,,1,03,,,,,,,,,,,2,1.651,0,,,,,,-0.11,-0.257777778,1,0,0,1.651,Basalt_rect,12,0,12,0,1,
612962f44f151ddfd0298c52,TCR,2024-06-25_12h39.57.087,LearnStrategy,2023.2.3,Win32,29.9940012,5,2,14,,,,,,,,4,16,,,,,,,,,,,4,2.324,1,,,,,,0.407777778,-0.233333333,1,0,0,2.324,Gabbro_rect,13,0,13,0,1,
612962f44f151ddfd0298c52,TCR,2024-06-25_12h39.57.087,LearnStrategy,2023.2.3,Win32,29.9940012,5,2,15,,,,,,,,8,09,,,,,,,,,,,8,1.69,1,,,,,,0.373333333,-0.39,1,0,0,1.69,Pumice_rect,14,0,14,0,1,
612962f44f151ddfd0298c52,TCR,2024-06-25_12h39.57.087,LearnStrategy,2023.2.3,Win32,29.9940012,5,2,16,,,,,,,,1,04,,,,,,,,,,,1,1.944,1,,,,,,-0.378888889,-0.245555556,1,0,0,1.944,Andesite_rect,15,0,15,0,1,
612962f44f151ddfd0298c52,TCR,2024-06-25_12h39.57.087,LearnStrategy,2023.2.3,Win32,29.9940012,6,1,1,0.001111111,-0.005555556,1,0,0,2.711,rock_grid_rect_2,2,10,-1,-1,2.711,-0.107777778,-0.235555556,1,0,0,1.325,Basalt_rect,2,1.325,1,0,0,0,0,1,,,,,,,,,,,,,
612962f44f151ddfd0298c52,TCR,2024-06-25_12h39.57.087,LearnStrategy,2023.2.3,Win32,29.9940012,6,1,2,0.003333333,0.001111111,1,0,0,1.701,rock_grid_rect_2,4,10,-1,-1,1.701,-0.434444444,-0.271111111,1,0,0,2.394,Andesite_rect,1,2.394,0,1,0,1,0,1,,,,,,,,,,,,,
612962f44f151ddfd0298c52,TCR,2024-06-25_12h39.57.087,LearnStrategy,2023.2.3,Win32,29.9940012,6,1,3,-0.025555556,-0.016666667,1,0,0,1.191,rock_grid_rect_2,1,10,-1,-1,1.191,0.386666667,-0.242222222,1,0,0,1.64,Gabbro_rect,4,1.64,0,2,0,2,0,1,,,,,,,,,,,,,
612962f44f151ddfd0298c52,TCR,2024-06-25_12h39.57.087,LearnStrategy,2023.2.3,Win32,29.9940012,6,1,4,-0.071111111,-0.014444444,1,0,0,1.097,rock_grid_rect_2,7,15,-1,-1,1.097,-0.108888889,-0.395555556,1,0,0,1.375,Pegmatite_rect,6,1.375,0,3,0,3,0,1,,,,,,,,,,,,,
612962f44f151ddfd0298c52,TCR,2024-06-25_12h39.57.087,LearnStrategy,2023.2.3,Win32,29.9940012,6,1,5,-0.096666667,-0.02,1,0,0,1.258,rock_grid_rect_2,4,01,-1,-1,1.258,0.053333333,-0.408888889,1,0,0,2.186,Peridotite_rect,7,2.186,0,4,0,4,0,1,,,,,,,,,,,,,
612962f44f151ddfd0298c52,TCR,2024-06-25_12h39.57.087,LearnStrategy,2023.2.3,Win32,29.9940012,6,1,6,-0.12,-0.011111111,1,0,0,1.047,rock_grid_rect_2,3,12,-1,-1,1.047,0.078888889,-0.408888889,1,0,0,1.677,Peridotite_rect,7,1.677,0,5,0,5,0,1,,,,,,,,,,,,,
612962f44f151ddfd0298c52,TCR,2024-06-25_12h39.57.087,LearnStrategy,2023.2.3,Win32,29.9940012,6,1,7,-0.122222222,0.003333333,1,0,0,0.866,rock_grid_rect_2,1,14,-1,-1,0.866,-0.383333333,-0.242222222,1,0,0,2.934,Andesite_rect,1,2.934,1,6,0,6,0,1,,,,,,,,,,,,,
612962f44f151ddfd0298c52,TCR,2024-06-25_12h39.57.087,LearnStrategy,2023.2.3,Win32,29.9940012,6,1,8,-0.03,-0.007777778,1,0,0,1.173,rock_grid_rect_2,7,12,-1,-1,1.173,-0.362222222,-0.253333333,1,0,0,1.565,Andesite_rect,1,1.565,0,7,0,7,0,1,,,,,,,,,,,,,
612962f44f151ddfd0298c52,TCR,2024-06-25_12h39.57.087,LearnStrategy,2023.2.3,Win32,29.9940012,6,1,9,-0.002222222,0.004444444,1,0,0,1.141,rock_grid_rect_2,7,14,-1,-1,1.141,0.126666667,-0.391111111,1,0,0,1.809,Peridotite_rect,7,1.809,1,8,0,8,0,1,,,,,,,,,,,,,
612962f44f151ddfd0298c52,TCR,2024-06-25_12h39.57.087,LearnStrategy,2023.2.3,Win32,29.9940012,6,1,10,0.001111111,0,1,0,0,1.057,rock_grid_rect_2,3,12,-1,-1,1.057,0.08,-0.382222222,1,0,0,1.669,Peridotite_rect,7,1.669,0,9,0,9,0,1,,,,,,,,,,,,,
612962f44f151ddfd0298c52,TCR,2024-06-25_12h39.57.087,LearnStrategy,2023.2.3,Win32,29.9940012,6,1,11,0.003333333,-0.01,1,0,0,0.967,rock_grid_rect_2,7,07,-1,-1,0.967,-0.386666667,-0.256666667,1,0,0,2.568,Andesite_rect,1,2.568,0,10,0,10,0,1,,,,,,,,,,,,,
612962f44f151ddfd0298c52,TCR,2024-06-25_12h39.57.087,LearnStrategy,2023.2.3,Win32,29.9940012,6,1,12,0.011111111,-0.011111111,1,0,0,1.182,rock_grid_rect_2,3,02,-1,-1,1.182,0.083333333,-0.237777778,1,0,0,3.06,Diorite_rect,3,3.06,1,11,0,11,0,1,,,,,,,,,,,,,
612962f44f151ddfd0298c52,TCR,2024-06-25_12h39.57.087,LearnStrategy,2023.2.3,Win32,29.9940012,6,1,13,-0.036666667,-0.007777778,1,0,0,1.323,rock_grid_rect_2,5,16,-1,-1,1.323,-0.394444444,-0.4,1,0,0,1.466,Obsidian_rect,5,1.466,1,12,0,12,0,1,,,,,,,,,,,,,
612962f44f151ddfd0298c52,TCR,2024-06-25_12h39.57.087,LearnStrategy,2023.2.3,Win32,29.9940012,6,1,14,0.018888889,0.007777778,1,0,0,0.932,rock_grid_rect_2,1,05,-1,-1,0.932,-0.366666667,-0.247777778,1,0,0,4.261,Andesite_rect,1,4.261,1,13,0,13,0,1,,,,,,,,,,,,,
612962f44f151ddfd0298c52,TCR,2024-06-25_12h39.57.087,LearnStrategy,2023.2.3,Win32,29.9940012,6,1,15,-0.034444444,-0.002222222,1,0,0,1.035,rock_grid_rect_2,2,02,-1,-1,1.035,-0.141111111,-0.247777778,1,0,0,3.217,Basalt_rect,2,3.217,1,14,0,14,0,1,,,,,,,,,,,,,
612962f44f151ddfd0298c52,TCR,2024-06-25_12h39.57.087,LearnStrategy,2023.2.3,Win32,29.9940012,6,1,16,-0.047777778,0.008888889,1,0,0,0.894,rock_grid_rect_2,6,15,-1,-1,0.894,-0.11,-0.393333333,1,0,0,1.62,Pegmatite_rect,6,1.62,1,15,0,15,0,1,,,,,,,,,,,,,
612962f44f151ddfd0298c52,TCR,2024-06-25_12h39.57.087,LearnStrategy,2023.2.3,Win32,29.9940012,6,2,1,,,,,,,,7,10,,,,,,,,,,,1,3.716,0,,,,,,-0.377777778,-0.246666667,1,0,0,3.716,Andesite_rect,0,0,0,0,1,
612962f44f151ddfd0298c52,TCR,2024-06-25_12h39.57.087,LearnStrategy,2023.2.3,Win32,29.9940012,6,2,2,,,,,,,,3,11,,,,,,,,,,,1,1.57,0,,,,,,-0.378888889,-0.245555556,1,0,0,1.57,Andesite_rect,1,0,1,0,1,
612962f44f151ddfd0298c52,TCR,2024-06-25_12h39.57.087,LearnStrategy,2023.2.3,Win32,29.9940012,6,2,3,,,,,,,,6,06,,,,,,,,,,,6,2.329,1,,,,,,-0.124444444,-0.393333333,1,0,0,2.329,Pegmatite_rect,2,0,2,0,1,
612962f44f151ddfd0298c52,TCR,2024-06-25_12h39.57.087,LearnStrategy,2023.2.3,Win32,29.9940012,6,2,4,,,,,,,,2,05,,,,,,,,,,,2,1.109,1,,,,,,-0.137777778,-0.228888889,1,0,0,1.109,Basalt_rect,3,0,3,0,1,
612962f44f151ddfd0298c52,TCR,2024-06-25_12h39.57.087,LearnStrategy,2023.2.3,Win32,29.9940012,6,2,5,,,,,,,,5,02,,,,,,,,,,,5,1.146,1,,,,,,-0.357777778,-0.383333333,1,0,0,1.146,Obsidian_rect,4,0,4,0,1,
612962f44f151ddfd0298c52,TCR,2024-06-25_12h39.57.087,LearnStrategy,2023.2.3,Win32,29.9940012,6,2,6,,,,,,,,1,07,,,,,,,,,,,7,1.864,0,,,,,,0.081111111,-0.392222222,1,0,0,1.864,Peridotite_rect,5,0,5,0,1,
612962f44f151ddfd0298c52,TCR,2024-06-25_12h39.57.087,LearnStrategy,2023.2.3,Win32,29.9940012,6,2,7,,,,,,,,1,01,,,,,,,,,,,4,1.476,0,,,,,,0.353333333,-0.256666667,1,0,0,1.476,Gabbro_rect,6,0,6,0,1,
612962f44f151ddfd0298c52,TCR,2024-06-25_12h39.57.087,LearnStrategy,2023.2.3,Win32,29.9940012,6,2,8,,,,,,,,4,03,,,,,,,,,,,7,6.703,0,,,,,,0.097777778,-0.404444444,1,0,0,6.703,Peridotite_rect,7,0,7,0,1,
612962f44f151ddfd0298c52,TCR,2024-06-25_12h39.57.087,LearnStrategy,2023.2.3,Win32,29.9940012,6,2,9,,,,,,,,4,08,,,,,,,,,,,1,1.399,0,,,,,,-0.338888889,-0.238888889,1,0,0,1.399,Andesite_rect,8,0,8,0,1,
612962f44f151ddfd0298c52,TCR,2024-06-25_12h39.57.087,LearnStrategy,2023.2.3,Win32,29.9940012,6,2,10,,,,,,,,8,15,,,,,,,,,,,8,1.612,1,,,,,,0.355555556,-0.4,1,0,0,1.612,Pumice_rect,9,0,9,0,1,
612962f44f151ddfd0298c52,TCR,2024-06-25_12h39.57.087,LearnStrategy,2023.2.3,Win32,29.9940012,6,2,11,,,,,,,,5,12,,,,,,,,,,,5,1.566,1,,,,,,-0.374444444,-0.402222222,1,0,0,1.566,Obsidian_rect,10,0,10,0,1,
612962f44f151ddfd0298c52,TCR,2024-06-25_12h39.57.087,LearnStrategy,2023.2.3,Win32,29.9940012,6,2,12,,,,,,,,8,03,,,,,,,,,,,8,1.382,1,,,,,,0.407777778,-0.39,1,0,0,1.382,Pumice_rect,11,0,11,0,1,
612962f44f151ddfd0298c52,TCR,2024-06-25_12h39.57.087,LearnStrategy,2023.2.3,Win32,29.9940012,6,2,13,,,,,,,,6,05,,,,,,,,,,,6,1.909,1,,,,,,-0.07,-0.411111111,1,0,0,1.909,Pegmatite_rect,12,0,12,0,1,
612962f44f151ddfd0298c52,TCR,2024-06-25_12h39.57.087,LearnStrategy,2023.2.3,Win32,29.9940012,6,2,14,,,,,,,,7,02,,,,,,,,,,,7,1.761,1,,,,,,0.121111111,-0.397777778,1,0,0,1.761,Peridotite_rect,13,0,13,0,1,
612962f44f151ddfd0298c52,TCR,2024-06-25_12h39.57.087,LearnStrategy,2023.2.3,Win32,29.9940012,6,2,15,,,,,,,,3,14,,,,,,,,,,,1,2.065,0,,,,,,-0.336666667,-0.234444444,1,0,0,2.065,Andesite_rect,14,0,14,0,1,
612962f44f151ddfd0298c52,TCR,2024-06-25_12h39.57.087,LearnStrategy,2023.2.3,Win32,29.9940012,6,2,16,,,,,,,,2,06,,,,,,,,,,,2,1.79,1,,,,,,-0.173333333,-0.267777778,1,0,0,1.79,Basalt_rect,15,0,15,0,1,
612962f44f151ddfd0298c52,TCR,2024-06-25_12h39.57.087,LearnStrategy,2023.2.3,Win32,29.9940012,7,1,1,0.17,0,1,0,0,5.174,rock_grid_rect_2,6,03,-1,-1,5.174,-0.198888889,-0.391111111,1,0,0,1.761,Pegmatite_rect,6,1.761,1,0,0,0,0,1,,,,,,,,,,,,,
612962f44f151ddfd0298c52,TCR,2024-06-25_12h39.57.087,LearnStrategy,2023.2.3,Win32,29.9940012,7,1,2,-0.096666667,0.014444444,1,0,0,1.939,rock_grid_rect_2,3,08,-1,-1,1.939,-0.368888889,-0.256666667,1,0,0,2.586,Andesite_rect,1,2.586,0,1,0,1,0,1,,,,,,,,,,,,,
612962f44f151ddfd0298c52,TCR,2024-06-25_12h39.57.087,LearnStrategy,2023.2.3,Win32,29.9940012,7,1,3,-0.064444444,0.002222222,1,0,0,1.238,rock_grid_rect_2,1,11,-1,-1,1.238,-0.425555556,-0.252222222,1,0,0,3.196,Andesite_rect,1,3.196,1,2,0,2,0,1,,,,,,,,,,,,,
612962f44f151ddfd0298c52,TCR,2024-06-25_12h39.57.087,LearnStrategy,2023.2.3,Win32,29.9940012,7,1,4,-0.005555556,-0.006666667,1,0,0,1.339,rock_grid_rect_2,4,01,-1,-1,1.339,0.08,-0.257777778,1,0,0,1.947,Diorite_rect,3,1.947,0,3,0,3,0,1,,,,,,,,,,,,,
612962f44f151ddfd0298c52,TCR,2024-06-25_12h39.57.087,LearnStrategy,2023.2.3,Win32,29.9940012,7,1,5,0.041111111,-0.008888889,1,0,0,1.182,rock_grid_rect_2,4,11,-1,-1,1.182,0.324444444,-0.266666667,1,0,0,2.688,Gabbro_rect,4,2.688,1,4,0,4,0,1,,,,,,,,,,,,,
612962f44f151ddfd0298c52,TCR,2024-06-25_12h39.57.087,LearnStrategy,2023.2.3,Win32,29.9940012,7,1,6,0.008888889,-0.007777778,1,0,0,1.141,rock_grid_rect_2,7,14,-1,-1,1.141,0.08,-0.411111111,1,0,0,1.388,Peridotite_rect,7,1.388,1,5,0,5,0,1,,,,,,,,,,,,,
612962f44f151ddfd0298c52,TCR,2024-06-25_12h39.57.087,LearnStrategy,2023.2.3,Win32,29.9940012,7,1,7,0.004444444,-0.022222222,1,0,0,0.959,rock_grid_rect_2,1,10,-1,-1,0.959,0.324444444,-0.262222222,1,0,0,2.123,Gabbro_rect,4,2.123,0,6,0,6,0,1,,,,,,,,,,,,,
612962f44f151ddfd0298c52,TCR,2024-06-25_12h39.57.087,LearnStrategy,2023.2.3,Win32,29.9940012,7,1,8,0.01,-0.007777778,1,0,0,1.039,rock_grid_rect_2,7,08,-1,-1,1.039,-0.368888889,-0.246666667,1,0,0,1.945,Andesite_rect,1,1.945,0,7,0,7,0,1,,,,,,,,,,,,,
612962f44f151ddfd0298c52,TCR,2024-06-25_12h39.57.087,LearnStrategy,2023.2.3,Win32,29.9940012,7,1,9,0.014444444,0.005555556,1,0,0,1.167,rock_grid_rect_2,7,14,-1,-1,1.167,0.101111111,-0.386666667,1,0,0,1.293,Peridotite_rect,7,1.293,1,8,0,8,0,1,,,,,,,,,,,,,
612962f44f151ddfd0298c52,TCR,2024-06-25_12h39.57.087,LearnStrategy,2023.2.3,Win32,29.9940012,7,1,10,-0.106666667,-0.003333333,1,0,0,0.968,rock_grid_rect_2,4,11,-1,-1,0.968,-0.167777778,-0.25,1,0,0,2.45,Basalt_rect,2,2.45,0,9,0,9,0,1,,,,,,,,,,,,,
612962f44f151ddfd0298c52,TCR,2024-06-25_12h39.57.087,LearnStrategy,2023.2.3,Win32,29.9940012,7,1,11,-0.003333333,-0.006666667,1,0,0,1.055,rock_grid_rect_2,3,10,-1,-1,1.055,-0.391111111,-0.252222222,1,0,0,1.84,Andesite_rect,1,1.84,0,10,0,10,0,1,,,,,,,,,,,,,
612962f44f151ddfd0298c52,TCR,2024-06-25_12h39.57.087,LearnStrategy,2023.2.3,Win32,29.9940012,7,1,12,0.014444444,-0.011111111,1,0,0,1.769,rock_grid_rect_2,3,12,-1,-1,1.769,0.09,-0.378888889,1,0,0,2.214,Peridotite_rect,7,2.214,0,11,0,11,0,1,,,,,,,,,,,,,
612962f44f151ddfd0298c52,TCR,2024-06-25_12h39.57.087,LearnStrategy,2023.2.3,Win32,29.9940012,7,1,13,-0.013333333,-0.005555556,1,0,0,1.047,rock_grid_rect_2,1,09,-1,-1,1.047,0.335555556,-0.26,1,0,0,2.508,Gabbro_rect,4,2.508,0,12,0,12,0,1,,,,,,,,,,,,,
612962f44f151ddfd0298c52,TCR,2024-06-25_12h39.57.087,LearnStrategy,2023.2.3,Win32,29.9940012,7,1,14,0,-0.013333333,1,0,0,1.12,rock_grid_rect_2,2,02,-1,-1,1.12,-0.125555556,-0.247777778,1,0,0,2.008,Basalt_rect,2,2.008,1,13,0,13,0,1,,,,,,,,,,,,,
612962f44f151ddfd0298c52,TCR,2024-06-25_12h39.57.087,LearnStrategy,2023.2.3,Win32,29.9940012,7,1,15,-0.041111111,-0.023333333,1,0,0,0.992,rock_grid_rect_2,5,09,-1,-1,0.992,-0.318888889,-0.395555556,1,0,0,1.298,Obsidian_rect,5,1.298,1,14,0,14,0,1,,,,,,,,,,,,,
612962f44f151ddfd0298c52,TCR,2024-06-25_12h39.57.087,LearnStrategy,2023.2.3,Win32,29.9940012,7,1,16,-0.003333333,-0.005555556,1,0,0,0.881,rock_grid_rect_2,1,14,-1,-1,0.881,-0.353333333,-0.258888889,1,0,0,3.217,Andesite_rect,1,3.217,1,15,0,15,0,1,,,,,,,,,,,,,
612962f44f151ddfd0298c52,TCR,2024-06-25_12h39.57.087,LearnStrategy,2023.2.3,Win32,29.9940012,7,2,1,,,,,,,,8,14,,,,,,,,,,,8,3.786,1,,,,,,0.372222222,-0.386666667,1,0,0,3.786,Pumice_rect,0,0,0,0,1,
612962f44f151ddfd0298c52,TCR,2024-06-25_12h39.57.087,LearnStrategy,2023.2.3,Win32,29.9940012,7,2,2,,,,,,,,6,08,,,,,,,,,,,6,1.213,1,,,,,,-0.198888889,-0.408888889,1,0,0,1.213,Pegmatite_rect,1,0,1,0,1,
612962f44f151ddfd0298c52,TCR,2024-06-25_12h39.57.087,LearnStrategy,2023.2.3,Win32,29.9940012,7,2,3,,,,,,,,2,08,,,,,,,,,,,2,1.145,1,,,,,,-0.144444444,-0.243333333,1,0,0,1.145,Basalt_rect,2,0,2,0,1,
612962f44f151ddfd0298c52,TCR,2024-06-25_12h39.57.087,LearnStrategy,2023.2.3,Win32,29.9940012,7,2,4,,,,,,,,5,07,,,,,,,,,,,6,1.028,0,,,,,,-0.121111111,-0.414444444,1,0,0,1.028,Pegmatite_rect,3,0,3,0,1,
612962f44f151ddfd0298c52,TCR,2024-06-25_12h39.57.087,LearnStrategy,2023.2.3,Win32,29.9940012,7,2,5,,,,,,,,3,11,,,,,,,,,,,7,1.546,0,,,,,,0.076666667,-0.405555556,1,0,0,1.546,Peridotite_rect,4,0,4,0,1,
612962f44f151ddfd0298c52,TCR,2024-06-25_12h39.57.087,LearnStrategy,2023.2.3,Win32,29.9940012,7,2,6,,,,,,,,2,14,,,,,,,,,,,1,1.502,0,,,,,,-0.364444444,-0.255555556,1,0,0,1.502,Andesite_rect,5,0,5,0,1,
612962f44f151ddfd0298c52,TCR,2024-06-25_12h39.57.087,LearnStrategy,2023.2.3,Win32,29.9940012,7,2,7,,,,,,,,7,10,,,,,,,,,,,1,1.746,0,,,,,,-0.34,-0.263333333,1,0,0,1.746,Andesite_rect,6,0,6,0,1,
612962f44f151ddfd0298c52,TCR,2024-06-25_12h39.57.087,LearnStrategy,2023.2.3,Win32,29.9940012,7,2,8,,,,,,,,7,16,,,,,,,,,,,6,1.682,0,,,,,,-0.102222222,-0.412222222,1,0,0,1.682,Pegmatite_rect,7,0,7,0,1,
612962f44f151ddfd0298c52,TCR,2024-06-25_12h39.57.087,LearnStrategy,2023.2.3,Win32,29.9940012,7,2,9,,,,,,,,4,08,,,,,,,,,,,3,1.679,0,,,,,,0.073333333,-0.265555556,1,0,0,1.679,Diorite_rect,8,0,8,0,1,
612962f44f151ddfd0298c52,TCR,2024-06-25_12h39.57.087,LearnStrategy,2023.2.3,Win32,29.9940012,7,2,10,,,,,,,,1,16,,,,,,,,,,,1,2.377,1,,,,,,-0.34,-0.265555556,1,0,0,2.377,Andesite_rect,9,0,9,0,1,
612962f44f151ddfd0298c52,TCR,2024-06-25_12h39.57.087,LearnStrategy,2023.2.3,Win32,29.9940012,7,2,11,,,,,,,,4,05,,,,,,,,,,,1,1.814,0,,,,,,-0.357777778,-0.254444444,1,0,0,1.814,Andesite_rect,10,0,10,0,1,
612962f44f151ddfd0298c52,TCR,2024-06-25_12h39.57.087,LearnStrategy,2023.2.3,Win32,29.9940012,7,2,12,,,,,,,,5,10,,,,,,,,,,,5,1.353,1,,,,,,-0.367777778,-0.398888889,1,0,0,1.353,Obsidian_rect,11,0,11,0,1,
612962f44f151ddfd0298c52,TCR,2024-06-25_12h39.57.087,LearnStrategy,2023.2.3,Win32,29.9940012,7,2,13,,,,,,,,8,03,,,,,,,,,,,8,1.389,1,,,,,,0.327777778,-0.388888889,1,0,0,1.389,Pumice_rect,12,0,12,0,1,
612962f44f151ddfd0298c52,TCR,2024-06-25_12h39.57.087,LearnStrategy,2023.2.3,Win32,29.9940012,7,2,14,,,,,,,,6,06,,,,,,,,,,,6,1.681,1,,,,,,-0.116666667,-0.4,1,0,0,1.681,Pegmatite_rect,13,0,13,0,1,
612962f44f151ddfd0298c52,TCR,2024-06-25_12h39.57.087,LearnStrategy,2023.2.3,Win32,29.9940012,7,2,15,,,,,,,,3,06,,,,,,,,,,,7,1.834,0,,,,,,0.09,-0.411111111,1,0,0,1.834,Peridotite_rect,14,0,14,0,1,
612962f44f151ddfd0298c52,TCR,2024-06-25_12h39.57.087,LearnStrategy,2023.2.3,Win32,29.9940012,7,2,16,,,,,,,,1,06,,,,,,,,,,,4,2.224,0,,,,,,0.367777778,-0.248888889,1,0,0,2.224,Gabbro_rect,15,0,15,0,1,
612962f44f151ddfd0298c52,TCR,2024-06-25_12h39.57.087,LearnStrategy,2023.2.3,Win32,29.9940012,8,1,1,0.092222222,0.008888889,1,0,0,1.368,rock_grid_rect_2,3,10,-1,-1,1.368,0.127777778,-0.246666667,1,0,0,2.23,Diorite_rect,3,2.23,1,0,0,0,0,1,,,,,,,,,,,,,
612962f44f151ddfd0298c52,TCR,2024-06-25_12h39.57.087,LearnStrategy,2023.2.3,Win32,29.9940012,8,1,2,0.061111111,-0.01,1,0,0,1.129,rock_grid_rect_2,7,08,-1,-1,1.129,0.085555556,-0.247777778,1,0,0,1.166,Diorite_rect,3,1.166,0,1,0,1,0,1,,,,,,,,,,,,,
612962f44f151ddfd0298c52,TCR,2024-06-25_12h39.57.087,LearnStrategy,2023.2.3,Win32,29.9940012,8,1,3,0.028888889,-0.001111111,1,0,0,1.011,rock_grid_rect_2,7,15,-1,-1,1.011,-0.175555556,-0.404444444,1,0,0,2.264,Pegmatite_rect,6,2.264,0,2,0,2,0,1,,,,,,,,,,,,,
612962f44f151ddfd0298c52,TCR,2024-06-25_12h39.57.087,LearnStrategy,2023.2.3,Win32,29.9940012,8,1,4,-0.16,0.003333333,1,0,0,1.535,rock_grid_rect_2,5,05,-1,-1,1.535,-0.148888889,-0.382222222,1,0,0,1.484,Pegmatite_rect,6,1.484,0,3,0,3,0,1,,,,,,,,,,,,,
612962f44f151ddfd0298c52,TCR,2024-06-25_12h39.57.087,LearnStrategy,2023.2.3,Win32,29.9940012,8,1,5,-0.064444444,-0.012222222,1,0,0,1.224,rock_grid_rect_2,2,11,-1,-1,1.224,0.365555556,-0.256666667,1,0,0,2.885,Gabbro_rect,4,2.885,0,4,0,4,0,1,,,,,,,,,,,,,
612962f44f151ddfd0298c52,TCR,2024-06-25_12h39.57.087,LearnStrategy,2023.2.3,Win32,29.9940012,8,1,6,-0.036666667,0.001111111,1,0,0,1.45,rock_grid_rect_2,1,05,-1,-1,1.45,0.103333333,-0.231111111,1,0,0,4.46,Diorite_rect,3,4.46,0,5,0,5,0,1,,,,,,,,,,,,,
612962f44f151ddfd0298c52,TCR,2024-06-25_12h39.57.087,LearnStrategy,2023.2.3,Win32,29.9940012,8,1,7,0.027777778,-0.012222222,1,0,0,0.946,rock_grid_rect_2,6,11,-1,-1,0.946,-0.072222222,-0.413333333,1,0,0,1.21,Pegmatite_rect,6,1.21,1,6,0,6,0,1,,,,,,,,,,,,,
612962f44f151ddfd0298c52,TCR,2024-06-25_12h39.57.087,LearnStrategy,2023.2.3,Win32,29.9940012,8,1,8,-0.065555556,-0.016666667,1,0,0,1.011,rock_grid_rect_2,3,13,-1,-1,1.011,0.092222222,-0.262222222,1,0,0,3.563,Diorite_rect,3,3.563,1,7,0,7,0,1,,,,,,,,,,,,,
612962f44f151ddfd0298c52,TCR,2024-06-25_12h39.57.087,LearnStrategy,2023.2.3,Win32,29.9940012,8,1,9,0.012222222,-0.022222222,1,0,0,1.027,rock_grid_rect_2,4,01,-1,-1,1.027,0.067777778,-0.237777778,1,0,0,1.176,Diorite_rect,3,1.176,0,8,0,8,0,1,,,,,,,,,,,,,
612962f44f151ddfd0298c52,TCR,2024-06-25_12h39.57.087,LearnStrategy,2023.2.3,Win32,29.9940012,8,1,10,0.063333333,-0.007777778,1,0,0,1.191,rock_grid_rect_2,8,13,-1,-1,1.191,0.345555556,-0.387777778,1,0,0,2.554,Pumice_rect,8,2.554,1,9,0,9,0,1,,,,,,,,,,,,,
612962f44f151ddfd0298c52,TCR,2024-06-25_12h39.57.087,LearnStrategy,2023.2.3,Win32,29.9940012,8,1,11,0.051111111,0.002222222,1,0,0,1.025,rock_grid_rect_2,1,02,-1,-1,1.025,0.323333333,-0.395555556,1,0,0,1.984,Pumice_rect,8,1.984,0,10,0,10,0,1,,,,,,,,,,,,,
612962f44f151ddfd0298c52,TCR,2024-06-25_12h39.57.087,LearnStrategy,2023.2.3,Win32,29.9940012,8,1,12,-0.041111111,-0.004444444,1,0,0,0.982,rock_grid_rect_2,4,11,-1,-1,0.982,-0.094444444,-0.241111111,1,0,0,1.074,Basalt_rect,2,1.074,0,11,0,11,0,1,,,,,,,,,,,,,
612962f44f151ddfd0298c52,TCR,2024-06-25_12h39.57.087,LearnStrategy,2023.2.3,Win32,29.9940012,8,1,13,-0.01,0.003333333,1,0,0,0.952,rock_grid_rect_2,3,16,-1,-1,0.952,0.092222222,-0.387777778,1,0,0,7.832,Peridotite_rect,7,7.832,0,12,0,12,0,1,,,,,,,,,,,,,
612962f44f151ddfd0298c52,TCR,2024-06-25_12h39.57.087,LearnStrategy,2023.2.3,Win32,29.9940012,8,1,14,0.02,-0.018888889,1,0,0,1.172,rock_grid_rect_2,4,11,-1,-1,1.172,-0.1,-0.254444444,1,0,0,1.109,Basalt_rect,2,1.109,0,13,0,13,0,1,,,,,,,,,,,,,
612962f44f151ddfd0298c52,TCR,2024-06-25_12h39.57.087,LearnStrategy,2023.2.3,Win32,29.9940012,8,1,15,-0.057777778,-0.012222222,1,0,0,0.944,rock_grid_rect_2,7,05,-1,-1,0.944,-0.077777778,-0.26,1,0,0,4.315,Basalt_rect,2,4.315,0,14,0,14,0,1,,,,,,,,,,,,,
612962f44f151ddfd0298c52,TCR,2024-06-25_12h39.57.087,LearnStrategy,2023.2.3,Win32,29.9940012,8,1,16,-0.07,0.007777778,1,0,0,1.349,rock_grid_rect_2,1,09,-1,-1,1.349,0.201111111,-0.261111111,1,0,0,2.234,Diorite_rect,3,2.234,0,15,0,15,0,1,,,,,,,,,,,,,
612962f44f151ddfd0298c52,TCR,2024-06-25_12h39.57.087,LearnStrategy,2023.2.3,Win32,29.9940012,8,2,1,,,,,,,,5,11,,,,,,,,,,,5,1.365,1,,,,,,-0.366666667,-0.396666667,1,0,0,1.365,Obsidian_rect,0,0,0,0,1,
612962f44f151ddfd0298c52,TCR,2024-06-25_12h39.57.087,LearnStrategy,2023.2.3,Win32,29.9940012,8,2,2,,,,,,,,2,05,,,,,,,,,,,2,1.349,1,,,,,,-0.17,-0.258888889,1,0,0,1.349,Basalt_rect,1,0,1,0,1,
612962f44f151ddfd0298c52,TCR,2024-06-25_12h39.57.087,LearnStrategy,2023.2.3,Win32,29.9940012,8,2,3,,,,,,,,6,13,,,,,,,,,,,6,1.254,1,,,,,,-0.175555556,-0.417777778,1,0,0,1.254,Pegmatite_rect,2,0,2,0,1,
612962f44f151ddfd0298c52,TCR,2024-06-25_12h39.57.087,LearnStrategy,2023.2.3,Win32,29.9940012,8,2,4,,,,,,,,6,05,,,,,,,,,,,6,1.369,1,,,,,,-0.166666667,-0.407777778,1,0,0,1.369,Pegmatite_rect,3,0,3,0,1,
612962f44f151ddfd0298c52,TCR,2024-06-25_12h39.57.087,LearnStrategy,2023.2.3,Win32,29.9940012,8,2,5,,,,,,,,1,07,,,,,,,,,,,3,1.803,0,,,,,,0.076666667,-0.264444444,1,0,0,1.803,Diorite_rect,4,0,4,0,1,
612962f44f151ddfd0298c52,TCR,2024-06-25_12h39.57.087,LearnStrategy,2023.2.3,Win32,29.9940012,8,2,6,,,,,,,,8,15,,,,,,,,,,,8,1.922,1,,,,,,0.334444444,-0.388888889,1,0,0,1.922,Pumice_rect,5,0,5,0,1,
612962f44f151ddfd0298c52,TCR,2024-06-25_12h39.57.087,LearnStrategy,2023.2.3,Win32,29.9940012,8,2,7,,,,,,,,5,12,,,,,,,,,,,5,1.423,1,,,,,,-0.351111111,-0.388888889,1,0,0,1.423,Obsidian_rect,6,0,6,0,1,
612962f44f151ddfd0298c52,TCR,2024-06-25_12h39.57.087,LearnStrategy,2023.2.3,Win32,29.9940012,8,2,8,,,,,,,,7,02,,,,,,,,,,,3,1.775,0,,,,,,0.096666667,-0.231111111,1,0,0,1.775,Diorite_rect,7,0,7,0,1,
612962f44f151ddfd0298c52,TCR,2024-06-25_12h39.57.087,LearnStrategy,2023.2.3,Win32,29.9940012,8,2,9,,,,,,,,4,16,,,,,,,,,,,4,2.156,1,,,,,,0.39,-0.246666667,1,0,0,2.156,Gabbro_rect,8,0,8,0,1,
612962f44f151ddfd0298c52,TCR,2024-06-25_12h39.57.087,LearnStrategy,2023.2.3,Win32,29.9940012,8,2,10,,,,,,,,3,14,,,,,,,,,,,1,2.642,0,,,,,,-0.342222222,-0.26,1,0,0,2.642,Andesite_rect,9,0,9,0,1,
612962f44f151ddfd0298c52,TCR,2024-06-25_12h39.57.087,LearnStrategy,2023.2.3,Win32,29.9940012,8,2,11,,,,,,,,8,06,,,,,,,,,,,8,1.868,1,,,,,,0.373333333,-0.385555556,1,0,0,1.868,Pumice_rect,10,0,10,0,1,
612962f44f151ddfd0298c52,TCR,2024-06-25_12h39.57.087,LearnStrategy,2023.2.3,Win32,29.9940012,8,2,12,,,,,,,,1,01,,,,,,,,,,,7,2.023,0,,,,,,0.186666667,-0.395555556,1,0,0,2.023,Peridotite_rect,11,0,11,0,1,
612962f44f151ddfd0298c52,TCR,2024-06-25_12h39.57.087,LearnStrategy,2023.2.3,Win32,29.9940012,8,2,13,,,,,,,,2,04,,,,,,,,,,,2,1.824,1,,,,,,-0.143333333,-0.246666667,1,0,0,1.824,Basalt_rect,12,0,12,0,1,
612962f44f151ddfd0298c52,TCR,2024-06-25_12h39.57.087,LearnStrategy,2023.2.3,Win32,29.9940012,8,2,14,,,,,,,,7,13,,,,,,,,,,,6,1.506,0,,,,,,-0.106666667,-0.404444444,1,0,0,1.506,Pegmatite_rect,13,0,13,0,1,
612962f44f151ddfd0298c52,TCR,2024-06-25_12h39.57.087,LearnStrategy,2023.2.3,Win32,29.9940012,8,2,15,,,,,,,,3,15,,,,,,,,,,,3,1.757,1,,,,,,0.158888889,-0.26,1,0,0,1.757,Diorite_rect,14,0,14,0,1,
612962f44f151ddfd0298c52,TCR,2024-06-25_12h39.57.087,LearnStrategy,2023.2.3,Win32,29.9940012,8,2,16,,,,,,,,4,09,,,,,,,,,,,5,1.513,0,,,,,,-0.424444444,-0.414444444,1,0,0,1.513,Obsidian_rect,15,0,15,0,1,
612962f44f151ddfd0298c52,TCR,2024-06-25_12h39.57.087,LearnStrategy,2023.2.3,Win32,29.9940012,9,1,1,-0.015555556,-0.005555556,1,0,0,4.749,rock_grid_rect_2,7,08,-1,-1,4.749,-0.36,-0.267777778,1,0,0,4.492,Andesite_rect,1,4.492,0,0,0,0,0,1,,,,,,,,,,,,,
612962f44f151ddfd0298c52,TCR,2024-06-25_12h39.57.087,LearnStrategy,2023.2.3,Win32,29.9940012,9,1,2,-0.092222222,0.008888889,1,0,0,1.244,rock_grid_rect_2,6,15,-1,-1,1.244,-0.133333333,-0.407777778,1,0,0,2.538,Pegmatite_rect,6,2.538,1,1,0,1,0,1,,,,,,,,,,,,,
612962f44f151ddfd0298c52,TCR,2024-06-25_12h39.57.087,LearnStrategy,2023.2.3,Win32,29.9940012,9,1,3,-0.042222222,-0.013333333,1,0,0,1.128,rock_grid_rect_2,1,09,-1,-1,1.128,-0.135555556,-0.233333333,1,0,0,4.112,Basalt_rect,2,4.112,0,2,0,2,0,1,,,,,,,,,,,,,
612962f44f151ddfd0298c52,TCR,2024-06-25_12h39.57.087,LearnStrategy,2023.2.3,Win32,29.9940012,9,1,4,-0.04,0.006666667,1,0,0,1.054,rock_grid_rect_2,2,10,-1,-1,1.054,0.36,-0.246666667,1,0,0,2.186,Gabbro_rect,4,2.186,0,3,0,3,0,1,,,,,,,,,,,,,
612962f44f151ddfd0298c52,TCR,2024-06-25_12h39.57.087,LearnStrategy,2023.2.3,Win32,29.9940012,9,1,5,-0.04,0.017777778,1,0,0,1.05,rock_grid_rect_2,7,12,-1,-1,1.05,-0.403333333,-0.247777778,1,0,0,3.488,Andesite_rect,1,3.488,0,4,0,4,0,1,,,,,,,,,,,,,
612962f44f151ddfd0298c52,TCR,2024-06-25_12h39.57.087,LearnStrategy,2023.2.3,Win32,29.9940012,9,1,6,-0.078888889,0.004444444,1,0,0,0.957,rock_grid_rect_2,1,09,-1,-1,0.957,-0.167777778,-0.265555556,1,0,0,4.126,Basalt_rect,2,4.126,0,5,0,5,0,1,,,,,,,,,,,,,
612962f44f151ddfd0298c52,TCR,2024-06-25_12h39.57.087,LearnStrategy,2023.2.3,Win32,29.9940012,9,1,7,-0.05,-0.022222222,1,0,0,1.065,rock_grid_rect_2,3,16,-1,-1,1.065,0.062222222,-0.412222222,1,0,0,2.642,Peridotite_rect,7,2.642,0,6,0,6,0,1,,,,,,,,,,,,,
612962f44f151ddfd0298c52,TCR,2024-06-25_12h39.57.087,LearnStrategy,2023.2.3,Win32,29.9940012,9,1,8,-0.081111111,-0.013333333,1,0,0,0.977,rock_grid_rect_2,4,10,-1,-1,0.977,0.383333333,-0.253333333,1,0,0,3.895,Gabbro_rect,4,3.895,1,7,0,7,0,1,,,,,,,,,,,,,
612962f44f151ddfd0298c52,TCR,2024-06-25_12h39.57.087,LearnStrategy,2023.2.3,Win32,29.9940012,9,1,9,0.061111111,-0.017777778,1,0,0,0.976,rock_grid_rect_2,4,12,-1,-1,0.976,0.401111111,-0.257777778,1,0,0,1.954,Gabbro_rect,4,1.954,1,8,0,8,0,1,,,,,,,,,,,,,
612962f44f151ddfd0298c52,TCR,2024-06-25_12h39.57.087,LearnStrategy,2023.2.3,Win32,29.9940012,9,1,10,0.046666667,0,1,0,0,1.032,rock_grid_rect_2,5,04,-1,-1,1.032,-0.307777778,-0.404444444,1,0,0,1.223,Obsidian_rect,5,1.223,1,9,0,9,0,1,,,,,,,,,,,,,
612962f44f151ddfd0298c52,TCR,2024-06-25_12h39.57.087,LearnStrategy,2023.2.3,Win32,29.9940012,9,1,11,-0.055555556,0.011111111,1,0,0,0.817,rock_grid_rect_2,4,14,-1,-1,0.817,0.083333333,-0.243333333,1,0,0,4.432,Diorite_rect,3,4.432,0,10,0,10,0,1,,,,,,,,,,,,,
612962f44f151ddfd0298c52,TCR,2024-06-25_12h39.57.087,LearnStrategy,2023.2.3,Win32,29.9940012,9,1,12,0.063333333,-0.016666667,1,0,0,0.993,rock_grid_rect_2,3,02,-1,-1,0.993,-0.376666667,-0.27,1,0,0,6.31,Andesite_rect,1,6.31,0,11,0,11,0,1,,,,,,,,,,,,,
612962f44f151ddfd0298c52,TCR,2024-06-25_12h39.57.087,LearnStrategy,2023.2.3,Win32,29.9940012,9,1,13,0.054444444,-0.022222222,1,0,0,1.114,rock_grid_rect_2,1,11,-1,-1,1.114,0.098888889,-0.257777778,1,0,0,6.727,Diorite_rect,3,6.727,0,12,0,12,0,1,,,,,,,,,,,,,
612962f44f151ddfd0298c52,TCR,2024-06-25_12h39.57.087,LearnStrategy,2023.2.3,Win32,29.9940012,9,1,14,-0.054444444,0.016666667,1,0,0,1.045,rock_grid_rect_2,3,10,-1,-1,1.045,-0.348888889,-0.258888889,1,0,0,2.573,Andesite_rect,1,2.573,0,13,0,13,0,1,,,,,,,,,,,,,
612962f44f151ddfd0298c52,TCR,2024-06-25_12h39.57.087,LearnStrategy,2023.2.3,Win32,29.9940012,9,1,15,0,-0.002222222,1,0,0,1.04,rock_grid_rect_2,7,08,-1,-1,1.04,-0.341111111,-0.255555556,1,0,0,1.7,Andesite_rect,1,1.7,0,14,0,14,0,1,,,,,,,,,,,,,
612962f44f151ddfd0298c52,TCR,2024-06-25_12h39.57.087,LearnStrategy,2023.2.3,Win32,29.9940012,9,1,16,0.045555556,-0.007777778,1,0,0,1.044,rock_grid_rect_2,7,15,-1,-1,1.044,0.094444444,-0.386666667,1,0,0,1.156,Peridotite_rect,7,1.156,1,15,0,15,0,1,,,,,,,,,,,,,
612962f44f151ddfd0298c52,TCR,2024-06-25_12h39.57.087,LearnStrategy,2023.2.3,Win32,29.9940012,9,2,1,,,,,,,,7,04,,,,,,,,,,,6,2.602,0,,,,,,-0.186666667,-0.42,1,0,0,2.602,Pegmatite_rect,0,0,0,0,1,
612962f44f151ddfd0298c52,TCR,2024-06-25_12h39.57.087,LearnStrategy,2023.2.3,Win32,29.9940012,9,2,2,,,,,,,,2,06,,,,,,,,,,,2,2.784,1,,,,,,-0.167777778,-0.235555556,1,0,0,2.784,Basalt_rect,1,0,1,0,1,
612962f44f151ddfd0298c52,TCR,2024-06-25_12h39.57.087,LearnStrategy,2023.2.3,Win32,29.9940012,9,2,3,,,,,,,,7,06,,,,,,,,,,,6,1.436,0,,,,,,-0.143333333,-0.394444444,1,0,0,1.436,Pegmatite_rect,2,0,2,0,1,
612962f44f151ddfd0298c52,TCR,2024-06-25_12h39.57.087,LearnStrategy,2023.2.3,Win32,29.9940012,9,2,4,,,,,,,,3,07,,,,,,,,,,,1,5.052,0,,,,,,-0.403333333,-0.263333333,1,0,0,5.052,Andesite_rect,3,0,3,0,1,
612962f44f151ddfd0298c52,TCR,2024-06-25_12h39.57.087,LearnStrategy,2023.2.3,Win32,29.9940012,9,2,5,,,,,,,,1,03,,,,,,,,,,,2,1.389,0,,,,,,-0.164444444,-0.244444444,1,0,0,1.389,Basalt_rect,4,0,4,0,1,
612962f44f151ddfd0298c52,TCR,2024-06-25_12h39.57.087,LearnStrategy,2023.2.3,Win32,29.9940012,9,2,6,,,,,,,,4,03,,,,,,,,,,,2,1.206,0,,,,,,-0.183333333,-0.235555556,1,0,0,1.206,Basalt_rect,5,0,5,0,1,
612962f44f151ddfd0298c52,TCR,2024-06-25_12h39.57.087,LearnStrategy,2023.2.3,Win32,29.9940012,9,2,7,,,,,,,,1,04,,,,,,,,,,,3,3.12,0,,,,,,0.098888889,-0.252222222,1,0,0,3.12,Diorite_rect,6,0,6,0,1,
612962f44f151ddfd0298c52,TCR,2024-06-25_12h39.57.087,LearnStrategy,2023.2.3,Win32,29.9940012,9,2,8,,,,,,,,4,15,,,,,,,,,,,3,2.522,0,,,,,,0.14,-0.254444444,1,0,0,2.522,Diorite_rect,7,0,7,0,1,
612962f44f151ddfd0298c52,TCR,2024-06-25_12h39.57.087,LearnStrategy,2023.2.3,Win32,29.9940012,9,2,9,,,,,,,,2,01,,,,,,,,,,,2,2.186,1,,,,,,-0.092222222,-0.238888889,1,0,0,2.186,Basalt_rect,8,0,8,0,1,
612962f44f151ddfd0298c52,TCR,2024-06-25_12h39.57.087,LearnStrategy,2023.2.3,Win32,29.9940012,9,2,10,,,,,,,,8,09,,,,,,,,,,,8,2.343,1,,,,,,0.346666667,-0.418888889,1,0,0,2.343,Pumice_rect,9,0,9,0,1,
612962f44f151ddfd0298c52,TCR,2024-06-25_12h39.57.087,LearnStrategy,2023.2.3,Win32,29.9940012,9,2,11,,,,,,,,6,07,,,,,,,,,,,6,1.564,1,,,,,,-0.193333333,-0.386666667,1,0,0,1.564,Pegmatite_rect,10,0,10,0,1,
612962f44f151ddfd0298c52,TCR,2024-06-25_12h39.57.087,LearnStrategy,2023.2.3,Win32,29.9940012,9,2,12,,,,,,,,5,02,,,,,,,,,,,5,1.203,1,,,,,,-0.366666667,-0.39,1,0,0,1.203,Obsidian_rect,11,0,11,0,1,
612962f44f151ddfd0298c52,TCR,2024-06-25_12h39.57.087,LearnStrategy,2023.2.3,Win32,29.9940012,9,2,13,,,,,,,,5,08,,,,,,,,,,,5,1.47,1,,,,,,-0.364444444,-0.386666667,1,0,0,1.47,Obsidian_rect,12,0,12,0,1,
612962f44f151ddfd0298c52,TCR,2024-06-25_12h39.57.087,LearnStrategy,2023.2.3,Win32,29.9940012,9,2,14,,,,,,,,6,09,,,,,,,,,,,6,1.929,1,,,,,,-0.161111111,-0.392222222,1,0,0,1.929,Pegmatite_rect,13,0,13,0,1,
612962f44f151ddfd0298c52,TCR,2024-06-25_12h39.57.087,LearnStrategy,2023.2.3,Win32,29.9940012,9,2,15,,,,,,,,3,09,,,,,,,,,,,2,1.834,0,,,,,,-0.088888889,-0.257777778,1,0,0,1.834,Basalt_rect,14,0,14,0,1,
612962f44f151ddfd0298c52,TCR,2024-06-25_12h39.57.087,LearnStrategy,2023.2.3,Win32,29.9940012,9,2,16,,,,,,,,8,02,,,,,,,,,,,8,2.069,1,,,,,,0.384444444,-0.383333333,1,0,0,2.069,Pumice_rect,15,0,15,0,1,
612962f44f151ddfd0298c52,TCR,2024-06-25_12h39.57.087,LearnStrategy,2023.2.3,Win32,29.9940012,,,,,,,,,,,,,,,,,,,,,,,,,,,,,,,,,,,,,,,,,,,0
612962f44f151ddfd0298c52,TCR,2024-06-25_12h39.57.087,LearnStrategy,2023.2.3,Win32,29.9940012,,,,,,,,,,,,,,,,,,,,,,,,,,,,,,,,,,,,,,,,,,,
612962f44f151ddfd0298c52,TCR,2024-06-25_12h39.57.087,LearnStrategy,2023.2.3,Win32,29.9940012,,,,,,,,,,,1,09,1,1,,,,,,,,,,,,,,,,,,,,,,,,,,,,,
612962f44f151ddfd0298c52,TCR,2024-06-25_12h39.57.087,LearnStrategy,2023.2.3,Win32,29.9940012,,,,,,,,,,,4,14,1,2,,,,,,,,,,,,,,,,,,,,,,,,,,,,,
612962f44f151ddfd0298c52,TCR,2024-06-25_12h39.57.087,LearnStrategy,2023.2.3,Win32,29.9940012,,,,,,,,,,,2,02,1,3,,,,,,,,,,,,,,,,,,,,,,,,,,,,,
612962f44f151ddfd0298c52,TCR,2024-06-25_12h39.57.087,LearnStrategy,2023.2.3,Win32,29.9940012,,,,,,,,,,,4,13,1,4,,,,,,,,,,,,,,,,,,,,,,,,,,,,,
612962f44f151ddfd0298c52,TCR,2024-06-25_12h39.57.087,LearnStrategy,2023.2.3,Win32,29.9940012,,,,,,,,,,,6,03,1,5,,,,,,,,,,,,,,,,,,,,,,,,,,,,,
612962f44f151ddfd0298c52,TCR,2024-06-25_12h39.57.087,LearnStrategy,2023.2.3,Win32,29.9940012,,,,,,,,,,,2,09,1,6,,,,,,,,,,,,,,,,,,,,,,,,,,,,,
612962f44f151ddfd0298c52,TCR,2024-06-25_12h39.57.087,LearnStrategy,2023.2.3,Win32,29.9940012,,,,,,,,,,,6,16,1,7,,,,,,,,,,,,,,,,,,,,,,,,,,,,,
612962f44f151ddfd0298c52,TCR,2024-06-25_12h39.57.087,LearnStrategy,2023.2.3,Win32,29.9940012,,,,,,,,,,,4,01,1,8,,,,,,,,,,,,,,,,,,,,,,,,,,,,,
612962f44f151ddfd0298c52,TCR,2024-06-25_12h39.57.087,LearnStrategy,2023.2.3,Win32,29.9940012,,,,,,,,,,,5,14,2,1,,,,,,,,,,,,,,,,,,,,,,,,,,,,,
612962f44f151ddfd0298c52,TCR,2024-06-25_12h39.57.087,LearnStrategy,2023.2.3,Win32,29.9940012,,,,,,,,,,,3,12,2,2,,,,,,,,,,,,,,,,,,,,,,,,,,,,,
612962f44f151ddfd0298c52,TCR,2024-06-25_12h39.57.087,LearnStrategy,2023.2.3,Win32,29.9940012,,,,,,,,,,,7,07,2,3,,,,,,,,,,,,,,,,,,,,,,,,,,,,,
612962f44f151ddfd0298c52,TCR,2024-06-25_12h39.57.087,LearnStrategy,2023.2.3,Win32,29.9940012,,,,,,,,,,,5,16,2,4,,,,,,,,,,,,,,,,,,,,,,,,,,,,,
612962f44f151ddfd0298c52,TCR,2024-06-25_12h39.57.087,LearnStrategy,2023.2.3,Win32,29.9940012,,,,,,,,,,,3,08,2,5,,,,,,,,,,,,,,,,,,,,,,,,,,,,,
612962f44f151ddfd0298c52,TCR,2024-06-25_12h39.57.087,LearnStrategy,2023.2.3,Win32,29.9940012,,,,,,,,,,,2,11,2,6,,,,,,,,,,,,,,,,,,,,,,,,,,,,,
612962f44f151ddfd0298c52,TCR,2024-06-25_12h39.57.087,LearnStrategy,2023.2.3,Win32,29.9940012,,,,,,,,,,,4,12,2,7,,,,,,,,,,,,,,,,,,,,,,,,,,,,,
612962f44f151ddfd0298c52,TCR,2024-06-25_12h39.57.087,LearnStrategy,2023.2.3,Win32,29.9940012,,,,,,,,,,,4,11,2,8,,,,,,,,,,,,,,,,,,,,,,,,,,,,,
612962f44f151ddfd0298c52,TCR,2024-06-25_12h39.57.087,LearnStrategy,2023.2.3,Win32,29.9940012,,,,,,,,,,,8,16,3,1,,,,,,,,,,,,,,,,,,,,,,,,,,,,,
612962f44f151ddfd0298c52,TCR,2024-06-25_12h39.57.087,LearnStrategy,2023.2.3,Win32,29.9940012,,,,,,,,,,,4,10,3,2,,,,,,,,,,,,,,,,,,,,,,,,,,,,,
612962f44f151ddfd0298c52,TCR,2024-06-25_12h39.57.087,LearnStrategy,2023.2.3,Win32,29.9940012,,,,,,,,,,,1,02,3,3,,,,,,,,,,,,,,,,,,,,,,,,,,,,,
612962f44f151ddfd0298c52,TCR,2024-06-25_12h39.57.087,LearnStrategy,2023.2.3,Win32,29.9940012,,,,,,,,,,,8,13,3,4,,,,,,,,,,,,,,,,,,,,,,,,,,,,,
612962f44f151ddfd0298c52,TCR,2024-06-25_12h39.57.087,LearnStrategy,2023.2.3,Win32,29.9940012,,,,,,,,,,,8,08,3,5,,,,,,,,,,,,,,,,,,,,,,,,,,,,,
612962f44f151ddfd0298c52,TCR,2024-06-25_12h39.57.087,LearnStrategy,2023.2.3,Win32,29.9940012,,,,,,,,,,,5,04,3,6,,,,,,,,,,,,,,,,,,,,,,,,,,,,,
612962f44f151ddfd0298c52,TCR,2024-06-25_12h39.57.087,LearnStrategy,2023.2.3,Win32,29.9940012,,,,,,,,,,,6,12,3,7,,,,,,,,,,,,,,,,,,,,,,,,,,,,,
612962f44f151ddfd0298c52,TCR,2024-06-25_12h39.57.087,LearnStrategy,2023.2.3,Win32,29.9940012,,,,,,,,,,,5,06,3,8,,,,,,,,,,,,,,,,,,,,,,,,,,,,,
612962f44f151ddfd0298c52,TCR,2024-06-25_12h39.57.087,LearnStrategy,2023.2.3,Win32,29.9940012,,,,,,,,,,,8,05,4,1,,,,,,,,,,,,,,,,,,,,,,,,,,,,,
612962f44f151ddfd0298c52,TCR,2024-06-25_12h39.57.087,LearnStrategy,2023.2.3,Win32,29.9940012,,,,,,,,,,,1,10,4,2,,,,,,,,,,,,,,,,,,,,,,,,,,,,,
612962f44f151ddfd0298c52,TCR,2024-06-25_12h39.57.087,LearnStrategy,2023.2.3,Win32,29.9940012,,,,,,,,,,,1,14,4,3,,,,,,,,,,,,,,,,,,,,,,,,,,,,,
612962f44f151ddfd0298c52,TCR,2024-06-25_12h39.57.087,LearnStrategy,2023.2.3,Win32,29.9940012,,,,,,,,,,,7,14,4,4,,,,,,,,,,,,,,,,,,,,,,,,,,,,,
612962f44f151ddfd0298c52,TCR,2024-06-25_12h39.57.087,LearnStrategy,2023.2.3,Win32,29.9940012,,,,,,,,,,,3,02,4,5,,,,,,,,,,,,,,,,,,,,,,,,,,,,,
612962f44f151ddfd0298c52,TCR,2024-06-25_12h39.57.087,LearnStrategy,2023.2.3,Win32,29.9940012,,,,,,,,,,,8,10,4,6,,,,,,,,,,,,,,,,,,,,,,,,,,,,,
612962f44f151ddfd0298c52,TCR,2024-06-25_12h39.57.087,LearnStrategy,2023.2.3,Win32,29.9940012,,,,,,,,,,,7,12,4,7,,,,,,,,,,,,,,,,,,,,,,,,,,,,,
612962f44f151ddfd0298c52,TCR,2024-06-25_12h39.57.087,LearnStrategy,2023.2.3,Win32,29.9940012,,,,,,,,,,,3,10,4,8,,,,,,,,,,,,,,,,,,,,,,,,,,,,,
612962f44f151ddfd0298c52,TCR,2024-06-25_12h39.57.087,LearnStrategy,2023.2.3,Win32,29.9940012,,,,,,,,,,,6,10,5,1,,,,,,,,,,,,,,,,,,,,,,,,,,,,,
612962f44f151ddfd0298c52,TCR,2024-06-25_12h39.57.087,LearnStrategy,2023.2.3,Win32,29.9940012,,,,,,,,,,,3,16,5,2,,,,,,,,,,,,,,,,,,,,,,,,,,,,,
612962f44f151ddfd0298c52,TCR,2024-06-25_12h39.57.087,LearnStrategy,2023.2.3,Win32,29.9940012,,,,,,,,,,,1,05,5,3,,,,,,,,,,,,,,,,,,,,,,,,,,,,,
612962f44f151ddfd0298c52,TCR,2024-06-25_12h39.57.087,LearnStrategy,2023.2.3,Win32,29.9940012,,,,,,,,,,,6,15,5,4,,,,,,,,,,,,,,,,,,,,,,,,,,,,,
612962f44f151ddfd0298c52,TCR,2024-06-25_12h39.57.087,LearnStrategy,2023.2.3,Win32,29.9940012,,,,,,,,,,,7,05,5,5,,,,,,,,,,,,,,,,,,,,,,,,,,,,,
612962f44f151ddfd0298c52,TCR,2024-06-25_12h39.57.087,LearnStrategy,2023.2.3,Win32,29.9940012,,,,,,,,,,,6,11,5,6,,,,,,,,,,,,,,,,,,,,,,,,,,,,,
612962f44f151ddfd0298c52,TCR,2024-06-25_12h39.57.087,LearnStrategy,2023.2.3,Win32,29.9940012,,,,,,,,,,,1,11,5,7,,,,,,,,,,,,,,,,,,,,,,,,,,,,,
612962f44f151ddfd0298c52,TCR,2024-06-25_12h39.57.087,LearnStrategy,2023.2.3,Win32,29.9940012,,,,,,,,,,,2,12,5,8,,,,,,,,,,,,,,,,,,,,,,,,,,,,,
612962f44f151ddfd0298c52,TCR,2024-06-25_12h39.57.087,LearnStrategy,2023.2.3,Win32,29.9940012,,,,,,,,,,,8,04,6,1,,,,,,,,,,,,,,,,,,,,,,,,,,,,,
612962f44f151ddfd0298c52,TCR,2024-06-25_12h39.57.087,LearnStrategy,2023.2.3,Win32,29.9940012,,,,,,,,,,,7,08,6,2,,,,,,,,,,,,,,,,,,,,,,,,,,,,,
612962f44f151ddfd0298c52,TCR,2024-06-25_12h39.57.087,LearnStrategy,2023.2.3,Win32,29.9940012,,,,,,,,,,,7,15,6,3,,,,,,,,,,,,,,,,,,,,,,,,,,,,,
612962f44f151ddfd0298c52,TCR,2024-06-25_12h39.57.087,LearnStrategy,2023.2.3,Win32,29.9940012,,,,,,,,,,,5,05,6,4,,,,,,,,,,,,,,,,,,,,,,,,,,,,,
612962f44f151ddfd0298c52,TCR,2024-06-25_12h39.57.087,LearnStrategy,2023.2.3,Win32,29.9940012,,,,,,,,,,,2,16,6,5,,,,,,,,,,,,,,,,,,,,,,,,,,,,,
612962f44f151ddfd0298c52,TCR,2024-06-25_12h39.57.087,LearnStrategy,2023.2.3,Win32,29.9940012,,,,,,,,,,,2,10,6,6,,,,,,,,,,,,,,,,,,,,,,,,,,,,,
612962f44f151ddfd0298c52,TCR,2024-06-25_12h39.57.087,LearnStrategy,2023.2.3,Win32,29.9940012,,,,,,,,,,,3,13,6,7,,,,,,,,,,,,,,,,,,,,,,,,,,,,,
612962f44f151ddfd0298c52,TCR,2024-06-25_12h39.57.087,LearnStrategy,2023.2.3,Win32,29.9940012,,,,,,,,,,,5,09,6,8,,,,,,,,,,,,,,,,,,,,,,,,,,,,,