participant,condition,date,expName,psychopyVersion,OS,frameRate,block,phase,trial,learn_mouse.x,learn_mouse.y,learn_mouse.leftButton,learn_mouse.midButton,learn_mouse.rightButton,learn_mouse.time,learn_mouse.clicked_name,cat,token,row,col,t_select,cat_mouse_l.x,cat_mouse_l.y,cat_mouse_l.leftButton,cat_mouse_l.midButton,cat_mouse_l.rightButton,cat_mouse_l.time,cat_mouse_l.clicked_name,resp,t_resp,corr,train_trials.thisRepN,train_trials.thisTrialN,train_trials.thisN,train_trials.thisIndex,train_trials.ran,cat_mouse_t.x,cat_mouse_t.y,cat_mouse_t.leftButton,cat_mouse_t.midButton,cat_mouse_t.rightButton,cat_mouse_t.time,cat_mouse_t.clicked_name,test_trials.thisRepN,test_trials.thisTrialN,test_trials.thisN,test_trials.thisIndex,test_trials.ran,Bonus
612b86da38f96808af7bb1da,SCN,2024-06-25_11h40.05.550,LearnStrategy,2023.2.3,Win32,60.24096386,,,,,,,,,,,,,,,,,,,,,,,,,,,,,,,,,,,,,,,,,,,
612b86da38f96808af7bb1da,SCN,2024-06-25_11h40.05.550,LearnStrategy,2023.2.3,Win32,60.24096386,1,1,1,-0.223958333,-0.095052083,1,0,0,3.6677,Pegmatite_08,6,08,3,3,3.668,-0.337239583,-0.380208333,1,0,0,6.1122,Obsidian_rect,5,6.112,0,0,0,0,0,1,,,,,,,,,,,,,
612b86da38f96808af7bb1da,SCN,2024-06-25_11h40.05.550,LearnStrategy,2023.2.3,Win32,60.24096386,1,1,2,-0.518229167,0.087239583,1,0,0,4.6177,Pegmatite_16,6,16,4,1,4.618,-0.138020833,-0.384114583,1,0,0,1.7577,Pegmatite_rect,6,1.758,1,1,0,1,0,1,,,,,,,,,,,,,
612b86da38f96808af7bb1da,SCN,2024-06-25_11h40.05.550,LearnStrategy,2023.2.3,Win32,60.24096386,1,1,3,0.38671875,-0.098958333,1,0,0,1.6381,Diorite_06,3,06,3,7,1.638,0.369791667,-0.231770833,1,0,0,2.6132,Gabbro_rect,4,2.613,0,2,0,2,0,1,,,,,,,,,,,,,
612b86da38f96808af7bb1da,SCN,2024-06-25_11h40.05.550,LearnStrategy,2023.2.3,Win32,60.24096386,1,1,4,-0.05859375,-0.122395833,1,0,0,1.5328,Pumice_02,8,02,3,4,1.533,0.100260417,-0.416666667,1,0,0,2.9477,Peridotite_rect,7,2.948,0,3,0,3,0,1,,,,,,,,,,,,,
612b86da38f96808af7bb1da,SCN,2024-06-25_11h40.05.550,LearnStrategy,2023.2.3,Win32,60.24096386,1,1,5,0.544270833,-0.244791667,1,0,0,4.816,Obsidian_04,5,04,2,8,4.816,-0.358072917,-0.411458333,1,0,0,4.9686,Obsidian_rect,5,4.969,1,4,0,4,0,1,,,,,,,,,,,,,
612b86da38f96808af7bb1da,SCN,2024-06-25_11h40.05.550,LearnStrategy,2023.2.3,Win32,60.24096386,1,1,6,-0.375,0.2421875,1,0,0,3.8164,Pumice_08,8,08,5,2,3.816,0.158854167,-0.37890625,1,0,0,2.5881,Peridotite_rect,7,2.588,0,5,0,5,0,1,,,,,,,,,,,,,
612b86da38f96808af7bb1da,SCN,2024-06-25_11h40.05.550,LearnStrategy,2023.2.3,Win32,60.24096386,1,1,7,0.076822917,0.09765625,1,0,0,1.9167,Andesite_03,1,03,4,5,1.917,0.38671875,-0.252604167,1,0,0,1.4009,Gabbro_rect,4,1.401,0,6,0,6,0,1,,,,,,,,,,,,,
612b86da38f96808af7bb1da,SCN,2024-06-25_11h40.05.550,LearnStrategy,2023.2.3,Win32,60.24096386,1,1,8,0.201822917,-0.399739583,1,0,0,1.5664,Diorite_02,3,02,1,6,1.566,-0.346354167,-0.252604167,1,0,0,2.9912,Andesite_rect,1,2.991,0,7,0,7,0,1,,,,,,,,,,,,,
612b86da38f96808af7bb1da,SCN,2024-06-25_11h40.05.550,LearnStrategy,2023.2.3,Win32,60.24096386,1,1,9,0.576822917,-0.09375,1,0,0,2.517,Gabbro_12,4,12,3,8,2.517,0.352864583,-0.236979167,1,0,0,1.672,Gabbro_rect,4,1.672,1,8,0,8,0,1,,,,,,,,,,,,,
612b86da38f96808af7bb1da,SCN,2024-06-25_11h40.05.550,LearnStrategy,2023.2.3,Win32,60.24096386,1,1,10,-0.07421875,-0.3828125,1,0,0,2.6548,Gabbro_16,4,16,1,4,2.655,-0.080729167,-0.385416667,1,0,0,1.6037,Pegmatite_rect,6,1.604,0,9,0,9,0,1,,,,,,,,,,,,,
612b86da38f96808af7bb1da,SCN,2024-06-25_11h40.05.550,LearnStrategy,2023.2.3,Win32,60.24096386,1,1,11,0.40234375,0.095052083,1,0,0,2.8339,Pumice_14,8,14,4,7,2.834,0.390625,-0.3984375,1,0,0,2.458,Pumice_rect,8,2.458,1,10,0,10,0,1,,,,,,,,,,,,,
612b86da38f96808af7bb1da,SCN,2024-06-25_11h40.05.550,LearnStrategy,2023.2.3,Win32,60.24096386,1,1,12,-0.53515625,-0.26171875,1,0,0,3.1214,Gabbro_10,4,10,2,1,3.121,0.354166667,-0.25390625,1,0,0,1.7925,Gabbro_rect,4,1.792,1,11,0,11,0,1,,,,,,,,,,,,,
612b86da38f96808af7bb1da,SCN,2024-06-25_11h40.05.550,LearnStrategy,2023.2.3,Win32,60.24096386,1,1,13,-0.212239583,-0.397135417,1,0,0,1.9999,Pegmatite_10,6,10,1,3,2,-0.341145833,-0.270833333,1,0,0,2.8715,Andesite_rect,1,2.871,0,12,0,12,0,1,,,,,,,,,,,,,
612b86da38f96808af7bb1da,SCN,2024-06-25_11h40.05.550,LearnStrategy,2023.2.3,Win32,60.24096386,1,1,14,-0.065104167,-0.25390625,1,0,0,3.2469,Pegmatite_12,6,12,2,4,3.247,-0.088541667,-0.39453125,1,0,0,3.0089,Pegmatite_rect,6,3.009,1,13,0,13,0,1,,,,,,,,,,,,,
612b86da38f96808af7bb1da,SCN,2024-06-25_11h40.05.550,LearnStrategy,2023.2.3,Win32,60.24096386,1,1,15,-0.548177083,-0.243489583,1,0,0,2.5827,Gabbro_10,4,10,2,1,2.583,0.380208333,-0.252604167,1,0,0,2.112,Gabbro_rect,4,2.112,1,14,0,14,0,1,,,,,,,,,,,,,
612b86da38f96808af7bb1da,SCN,2024-06-25_11h40.05.550,LearnStrategy,2023.2.3,Win32,60.24096386,1,1,16,-0.0625,0.231770833,1,0,0,3.3802,Basalt_09,2,09,5,4,3.38,0.403645833,-0.260416667,1,0,0,3.5686,Gabbro_rect,4,3.569,0,15,0,15,0,1,,,,,,,,,,,,,
612b86da38f96808af7bb1da,SCN,2024-06-25_11h40.05.550,LearnStrategy,2023.2.3,Win32,60.24096386,1,2,1,,,,,,,,3,14,,,,,,,,,,,6,2.73,0,,,,,,-0.079427083,-0.393229167,1,0,0,2.7301,Pegmatite_rect,0,0,0,0,1,
612b86da38f96808af7bb1da,SCN,2024-06-25_11h40.05.550,LearnStrategy,2023.2.3,Win32,60.24096386,1,2,2,,,,,,,,7,05,,,,,,,,,,,3,3.554,0,,,,,,0.209635417,-0.243489583,1,0,0,3.5538,Diorite_rect,1,0,1,0,1,
612b86da38f96808af7bb1da,SCN,2024-06-25_11h40.05.550,LearnStrategy,2023.2.3,Win32,60.24096386,1,2,3,,,,,,,,6,09,,,,,,,,,,,7,4.015,0,,,,,,0.171875,-0.39453125,1,0,0,4.0154,Peridotite_rect,2,0,2,0,1,
612b86da38f96808af7bb1da,SCN,2024-06-25_11h40.05.550,LearnStrategy,2023.2.3,Win32,60.24096386,1,2,4,,,,,,,,5,07,,,,,,,,,,,5,4.412,1,,,,,,-0.319010417,-0.39453125,1,0,0,4.4123,Obsidian_rect,3,0,3,0,1,
612b86da38f96808af7bb1da,SCN,2024-06-25_11h40.05.550,LearnStrategy,2023.2.3,Win32,60.24096386,1,2,5,,,,,,,,7,02,,,,,,,,,,,2,3.414,0,,,,,,-0.170572917,-0.243489583,1,0,0,3.4145,Basalt_rect,4,0,4,0,1,
612b86da38f96808af7bb1da,SCN,2024-06-25_11h40.05.550,LearnStrategy,2023.2.3,Win32,60.24096386,1,2,6,,,,,,,,2,02,,,,,,,,,,,4,1.834,0,,,,,,0.329427083,-0.25,1,0,0,1.8338,Gabbro_rect,5,0,5,0,1,
612b86da38f96808af7bb1da,SCN,2024-06-25_11h40.05.550,LearnStrategy,2023.2.3,Win32,60.24096386,1,2,7,,,,,,,,4,05,,,,,,,,,,,2,2.317,0,,,,,,-0.153645833,-0.251302083,1,0,0,2.3169,Basalt_rect,6,0,6,0,1,
612b86da38f96808af7bb1da,SCN,2024-06-25_11h40.05.550,LearnStrategy,2023.2.3,Win32,60.24096386,1,2,8,,,,,,,,8,09,,,,,,,,,,,8,1.575,1,,,,,,0.411458333,-0.404947917,1,0,0,1.575,Pumice_rect,7,0,7,0,1,
612b86da38f96808af7bb1da,SCN,2024-06-25_11h40.05.550,LearnStrategy,2023.2.3,Win32,60.24096386,1,2,9,,,,,,,,1,09,,,,,,,,,,,4,1.514,0,,,,,,0.35546875,-0.259114583,1,0,0,1.5142,Gabbro_rect,8,0,8,0,1,
612b86da38f96808af7bb1da,SCN,2024-06-25_11h40.05.550,LearnStrategy,2023.2.3,Win32,60.24096386,1,2,10,,,,,,,,1,01,,,,,,,,,,,5,2.354,0,,,,,,-0.369791667,-0.403645833,1,0,0,2.3538,Obsidian_rect,9,0,9,0,1,
612b86da38f96808af7bb1da,SCN,2024-06-25_11h40.05.550,LearnStrategy,2023.2.3,Win32,60.24096386,1,2,11,,,,,,,,6,03,,,,,,,,,,,6,2.065,1,,,,,,-0.173177083,-0.390625,1,0,0,2.0647,Pegmatite_rect,10,0,10,0,1,
612b86da38f96808af7bb1da,SCN,2024-06-25_11h40.05.550,LearnStrategy,2023.2.3,Win32,60.24096386,1,2,12,,,,,,,,4,11,,,,,,,,,,,4,1.552,1,,,,,,0.421875,-0.25390625,1,0,0,1.5521,Gabbro_rect,11,0,11,0,1,
612b86da38f96808af7bb1da,SCN,2024-06-25_11h40.05.550,LearnStrategy,2023.2.3,Win32,60.24096386,1,2,13,,,,,,,,5,05,,,,,,,,,,,6,2.174,0,,,,,,-0.158854167,-0.390625,1,0,0,2.1739,Pegmatite_rect,12,0,12,0,1,
612b86da38f96808af7bb1da,SCN,2024-06-25_11h40.05.550,LearnStrategy,2023.2.3,Win32,60.24096386,1,2,14,,,,,,,,2,12,,,,,,,,,,,8,3.015,0,,,,,,0.341145833,-0.408854167,1,0,0,3.0153,Pumice_rect,13,0,13,0,1,
612b86da38f96808af7bb1da,SCN,2024-06-25_11h40.05.550,LearnStrategy,2023.2.3,Win32,60.24096386,1,2,15,,,,,,,,8,06,,,,,,,,,,,8,1.258,1,,,,,,0.341145833,-0.408854167,1,0,0,1.2581,Pumice_rect,14,0,14,0,1,
612b86da38f96808af7bb1da,SCN,2024-06-25_11h40.05.550,LearnStrategy,2023.2.3,Win32,60.24096386,1,2,16,,,,,,,,3,11,,,,,,,,,,,6,1.813,0,,,,,,-0.188802083,-0.389322917,1,0,0,1.8129,Pegmatite_rect,15,0,15,0,1,
612b86da38f96808af7bb1da,SCN,2024-06-25_11h40.05.550,LearnStrategy,2023.2.3,Win32,60.24096386,2,1,1,-0.52734375,0.23828125,1,0,0,3.2816,Diorite_10,3,10,5,1,3.282,-0.37890625,-0.239583333,1,0,0,1.9697,Andesite_rect,1,1.97,0,0,0,0,0,1,,,,,,,,,,,,,
612b86da38f96808af7bb1da,SCN,2024-06-25_11h40.05.550,LearnStrategy,2023.2.3,Win32,60.24096386,2,1,2,0.225260417,-0.118489583,1,0,0,2.2947,Pumice_16,8,16,3,6,2.295,0.368489583,-0.411458333,1,0,0,2.6451,Pumice_rect,8,2.645,1,1,0,1,0,1,,,,,,,,,,,,,
612b86da38f96808af7bb1da,SCN,2024-06-25_11h40.05.550,LearnStrategy,2023.2.3,Win32,60.24096386,2,1,3,-0.541666667,-0.255208333,1,0,0,1.7802,Gabbro_10,4,10,2,1,1.78,-0.458333333,-0.24609375,1,0,0,1.5236,Andesite_rect,1,1.524,0,2,0,2,0,1,,,,,,,,,,,,,
612b86da38f96808af7bb1da,SCN,2024-06-25_11h40.05.550,LearnStrategy,2023.2.3,Win32,60.24096386,2,1,4,-0.549479167,-0.401041667,1,0,0,1.4067,Andesite_14,1,14,1,1,1.407,-0.201822917,-0.391927083,1,0,0,2.247,Pegmatite_rect,6,2.247,0,3,0,3,0,1,,,,,,,,,,,,,
612b86da38f96808af7bb1da,SCN,2024-06-25_11h40.05.550,LearnStrategy,2023.2.3,Win32,60.24096386,2,1,5,-0.55078125,-0.098958333,1,0,0,2.3172,Andesite_16,1,16,3,1,2.317,-0.359375,-0.25390625,1,0,0,1.7555,Andesite_rect,1,1.755,1,4,0,4,0,1,,,,,,,,,,,,,
612b86da38f96808af7bb1da,SCN,2024-06-25_11h40.05.550,LearnStrategy,2023.2.3,Win32,60.24096386,2,1,6,-0.552083333,0.092447917,1,0,0,1.2198,Pegmatite_16,6,16,4,1,1.22,-0.145833333,-0.395833333,1,0,0,2.9338,Pegmatite_rect,6,2.934,1,5,0,5,0,1,,,,,,,,,,,,,
612b86da38f96808af7bb1da,SCN,2024-06-25_11h40.05.550,LearnStrategy,2023.2.3,Win32,60.24096386,2,1,7,-0.401041667,-0.233072917,1,0,0,4.1502,Diorite_12,3,12,2,2,4.15,-0.126302083,-0.248697917,1,0,0,1.7507,Basalt_rect,2,1.751,0,6,0,6,0,1,,,,,,,,,,,,,
612b86da38f96808af7bb1da,SCN,2024-06-25_11h40.05.550,LearnStrategy,2023.2.3,Win32,60.24096386,2,1,8,0.084635417,-0.264322917,1,0,0,1.5319,Peridotite_08,7,08,2,5,1.532,0.1171875,-0.255208333,1,0,0,2.5482,Diorite_rect,3,2.548,0,7,0,7,0,1,,,,,,,,,,,,,
612b86da38f96808af7bb1da,SCN,2024-06-25_11h40.05.550,LearnStrategy,2023.2.3,Win32,60.24096386,2,1,9,0.268229167,-0.424479167,1,0,0,1.3685,Diorite_02,3,02,1,6,1.369,-0.091145833,-0.37890625,1,0,0,2.6059,Pegmatite_rect,6,2.606,0,8,0,8,0,1,,,,,,,,,,,,,
612b86da38f96808af7bb1da,SCN,2024-06-25_11h40.05.550,LearnStrategy,2023.2.3,Win32,60.24096386,2,1,10,0.098958333,0.24609375,1,0,0,3.8509,Peridotite_16,7,16,5,5,3.851,0.158854167,-0.24609375,1,0,0,3.6021,Diorite_rect,3,3.602,0,9,0,9,0,1,,,,,,,,,,,,,
612b86da38f96808af7bb1da,SCN,2024-06-25_11h40.05.550,LearnStrategy,2023.2.3,Win32,60.24096386,2,1,11,0.545572917,0.291666667,1,0,0,3.4001,Obsidian_12,5,12,5,8,3.4,-0.36328125,-0.420572917,1,0,0,1.4923,Obsidian_rect,5,1.492,1,10,0,10,0,1,,,,,,,,,,,,,
612b86da38f96808af7bb1da,SCN,2024-06-25_11h40.05.550,LearnStrategy,2023.2.3,Win32,60.24096386,2,1,12,-0.216145833,0.2421875,1,0,0,1.9536,Peridotite_15,7,15,5,3,1.954,0.13671875,-0.25,1,0,0,1.6036,Diorite_rect,3,1.604,0,11,0,11,0,1,,,,,,,,,,,,,
612b86da38f96808af7bb1da,SCN,2024-06-25_11h40.05.550,LearnStrategy,2023.2.3,Win32,60.24096386,2,1,13,-0.229166667,-0.274739583,1,0,0,1.5327,Diorite_15,3,15,2,3,1.533,0.080729167,-0.26171875,1,0,0,2.7825,Diorite_rect,3,2.783,1,12,0,12,0,1,,,,,,,,,,,,,
612b86da38f96808af7bb1da,SCN,2024-06-25_11h40.05.550,LearnStrategy,2023.2.3,Win32,60.24096386,2,1,14,-0.415364583,-0.243489583,1,0,0,2.5326,Diorite_12,3,12,2,2,2.533,0.059895833,-0.243489583,1,0,0,1.6454,Diorite_rect,3,1.645,1,13,0,13,0,1,,,,,,,,,,,,,
612b86da38f96808af7bb1da,SCN,2024-06-25_11h40.05.550,LearnStrategy,2023.2.3,Win32,60.24096386,2,1,15,0.397135417,-0.12109375,1,0,0,1.8893,Diorite_06,3,06,3,7,1.889,0.169270833,-0.255208333,1,0,0,1.5053,Diorite_rect,3,1.505,1,14,0,14,0,1,,,,,,,,,,,,,
612b86da38f96808af7bb1da,SCN,2024-06-25_11h40.05.550,LearnStrategy,2023.2.3,Win32,60.24096386,2,1,16,0.416666667,-0.4375,1,0,0,1.1829,Basalt_05,2,05,1,7,1.183,0.415364583,-0.248697917,1,0,0,1.3642,Gabbro_rect,4,1.364,0,15,0,15,0,1,,,,,,,,,,,,,
612b86da38f96808af7bb1da,SCN,2024-06-25_11h40.05.550,LearnStrategy,2023.2.3,Win32,60.24096386,2,2,1,,,,,,,,4,09,,,,,,,,,,,5,4.261,0,,,,,,-0.328125,-0.384114583,1,0,0,4.2611,Obsidian_rect,0,0,0,0,1,
612b86da38f96808af7bb1da,SCN,2024-06-25_11h40.05.550,LearnStrategy,2023.2.3,Win32,60.24096386,2,2,2,,,,,,,,2,14,,,,,,,,,,,2,3.521,1,,,,,,-0.134114583,-0.259114583,1,0,0,3.5211,Basalt_rect,1,0,1,0,1,
612b86da38f96808af7bb1da,SCN,2024-06-25_11h40.05.550,LearnStrategy,2023.2.3,Win32,60.24096386,2,2,3,,,,,,,,4,15,,,,,,,,,,,3,1.904,0,,,,,,0.07421875,-0.252604167,1,0,0,1.9041,Diorite_rect,2,0,2,0,1,
612b86da38f96808af7bb1da,SCN,2024-06-25_11h40.05.550,LearnStrategy,2023.2.3,Win32,60.24096386,2,2,4,,,,,,,,8,10,,,,,,,,,,,8,3.742,1,,,,,,0.368489583,-0.397135417,1,0,0,3.7417,Pumice_rect,3,0,3,0,1,
612b86da38f96808af7bb1da,SCN,2024-06-25_11h40.05.550,LearnStrategy,2023.2.3,Win32,60.24096386,2,2,5,,,,,,,,1,04,,,,,,,,,,,3,2.734,0,,,,,,0.139322917,-0.263020833,1,0,0,2.7343,Diorite_rect,4,0,4,0,1,
612b86da38f96808af7bb1da,SCN,2024-06-25_11h40.05.550,LearnStrategy,2023.2.3,Win32,60.24096386,2,2,6,,,,,,,,7,04,,,,,,,,,,,6,3.987,0,,,,,,-0.092447917,-0.408854167,1,0,0,3.9867,Pegmatite_rect,5,0,5,0,1,
612b86da38f96808af7bb1da,SCN,2024-06-25_11h40.05.550,LearnStrategy,2023.2.3,Win32,60.24096386,2,2,7,,,,,,,,6,11,,,,,,,,,,,6,0.805,1,,,,,,-0.092447917,-0.408854167,1,0,0,0.8049,Pegmatite_rect,6,0,6,0,1,
612b86da38f96808af7bb1da,SCN,2024-06-25_11h40.05.550,LearnStrategy,2023.2.3,Win32,60.24096386,2,2,8,,,,,,,,7,13,,,,,,,,,,,1,2.637,0,,,,,,-0.33984375,-0.244791667,1,0,0,2.6366,Andesite_rect,7,0,7,0,1,
612b86da38f96808af7bb1da,SCN,2024-06-25_11h40.05.550,LearnStrategy,2023.2.3,Win32,60.24096386,2,2,9,,,,,,,,1,06,,,,,,,,,,,3,1.822,0,,,,,,0.09765625,-0.264322917,1,0,0,1.8217,Diorite_rect,8,0,8,0,1,
612b86da38f96808af7bb1da,SCN,2024-06-25_11h40.05.550,LearnStrategy,2023.2.3,Win32,60.24096386,2,2,10,,,,,,,,6,05,,,,,,,,,,,6,1.537,1,,,,,,-0.110677083,-0.397135417,1,0,0,1.5371,Pegmatite_rect,9,0,9,0,1,
612b86da38f96808af7bb1da,SCN,2024-06-25_11h40.05.550,LearnStrategy,2023.2.3,Win32,60.24096386,2,2,11,,,,,,,,5,10,,,,,,,,,,,6,0.772,0,,,,,,-0.110677083,-0.397135417,1,0,0,0.7722,Pegmatite_rect,10,0,10,0,1,
612b86da38f96808af7bb1da,SCN,2024-06-25_11h40.05.550,LearnStrategy,2023.2.3,Win32,60.24096386,2,2,12,,,,,,,,5,06,,,,,,,,,,,5,1.205,1,,,,,,-0.359375,-0.381510417,1,0,0,1.2051,Obsidian_rect,11,0,11,0,1,
612b86da38f96808af7bb1da,SCN,2024-06-25_11h40.05.550,LearnStrategy,2023.2.3,Win32,60.24096386,2,2,13,,,,,,,,8,04,,,,,,,,,,,8,1.323,1,,,,,,0.37890625,-0.37890625,1,0,0,1.3232,Pumice_rect,12,0,12,0,1,
612b86da38f96808af7bb1da,SCN,2024-06-25_11h40.05.550,LearnStrategy,2023.2.3,Win32,60.24096386,2,2,14,,,,,,,,3,09,,,,,,,,,,,3,1.562,1,,,,,,0.1328125,-0.248697917,1,0,0,1.5616,Diorite_rect,13,0,13,0,1,
612b86da38f96808af7bb1da,SCN,2024-06-25_11h40.05.550,LearnStrategy,2023.2.3,Win32,60.24096386,2,2,15,,,,,,,,2,04,,,,,,,,,,,2,2.916,1,,,,,,-0.182291667,-0.24609375,1,0,0,2.9161,Basalt_rect,14,0,14,0,1,
612b86da38f96808af7bb1da,SCN,2024-06-25_11h40.05.550,LearnStrategy,2023.2.3,Win32,60.24096386,2,2,16,,,,,,,,3,08,,,,,,,,,,,3,1.543,1,,,,,,0.080729167,-0.255208333,1,0,0,1.543,Diorite_rect,15,0,15,0,1,
612b86da38f96808af7bb1da,SCN,2024-06-25_11h40.05.550,LearnStrategy,2023.2.3,Win32,60.24096386,3,1,1,-0.05859375,0.087239583,1,0,0,1.1982,Basalt_10,2,10,4,4,1.198,-0.13671875,-0.248697917,1,0,0,1.3951,Basalt_rect,2,1.395,1,0,0,0,0,1,,,,,,,,,,,,,
612b86da38f96808af7bb1da,SCN,2024-06-25_11h40.05.550,LearnStrategy,2023.2.3,Win32,60.24096386,3,1,2,-0.083333333,-0.111979167,1,0,0,1.6839,Pumice_02,8,02,3,4,1.684,0.381510417,-0.397135417,1,0,0,1.9631,Pumice_rect,8,1.963,1,1,0,1,0,1,,,,,,,,,,,,,
612b86da38f96808af7bb1da,SCN,2024-06-25_11h40.05.550,LearnStrategy,2023.2.3,Win32,60.24096386,3,1,3,0.067708333,-0.256510417,1,0,0,1.7497,Peridotite_08,7,08,2,5,1.75,0.118489583,-0.24609375,1,0,0,2.2683,Diorite_rect,3,2.268,0,2,0,2,0,1,,,,,,,,,,,,,
612b86da38f96808af7bb1da,SCN,2024-06-25_11h40.05.550,LearnStrategy,2023.2.3,Win32,60.24096386,3,1,4,0.231770833,-0.416666667,1,0,0,1.9901,Diorite_02,3,02,1,6,1.99,0.184895833,-0.247395833,1,0,0,1.0638,Diorite_rect,3,1.064,1,3,0,3,0,1,,,,,,,,,,,,,
612b86da38f96808af7bb1da,SCN,2024-06-25_11h40.05.550,LearnStrategy,2023.2.3,Win32,60.24096386,3,1,5,-0.247395833,-0.2578125,1,0,0,1.5001,Diorite_15,3,15,2,3,1.5,0.0546875,-0.244791667,1,0,0,1.4212,Diorite_rect,3,1.421,1,4,0,4,0,1,,,,,,,,,,,,,
612b86da38f96808af7bb1da,SCN,2024-06-25_11h40.05.550,LearnStrategy,2023.2.3,Win32,60.24096386,3,1,6,-0.0859375,0.248697917,1,0,0,1.6819,Basalt_09,2,09,5,4,1.682,0.412760417,-0.240885417,1,0,0,1.4569,Gabbro_rect,4,1.457,0,5,0,5,0,1,,,,,,,,,,,,,
612b86da38f96808af7bb1da,SCN,2024-06-25_11h40.05.550,LearnStrategy,2023.2.3,Win32,60.24096386,3,1,7,0.071614583,0.1015625,1,0,0,1.6015,Andesite_03,1,03,4,5,1.601,-0.087239583,-0.233072917,1,0,0,1.1321,Basalt_rect,2,1.132,0,6,0,6,0,1,,,,,,,,,,,,,
612b86da38f96808af7bb1da,SCN,2024-06-25_11h40.05.550,LearnStrategy,2023.2.3,Win32,60.24096386,3,1,8,-0.381510417,0.248697917,1,0,0,2.4227,Pumice_08,8,08,5,2,2.423,-0.380208333,-0.255208333,1,0,0,2.2037,Andesite_rect,1,2.204,0,7,0,7,0,1,,,,,,,,,,,,,
612b86da38f96808af7bb1da,SCN,2024-06-25_11h40.05.550,LearnStrategy,2023.2.3,Win32,60.24096386,3,1,9,0.25390625,0.416666667,1,0,0,3.1227,Peridotite_06,7,06,6,6,3.123,-0.0625,-0.38671875,1,0,0,2.537,Pegmatite_rect,6,2.537,0,8,0,8,0,1,,,,,,,,,,,,,
612b86da38f96808af7bb1da,SCN,2024-06-25_11h40.05.550,LearnStrategy,2023.2.3,Win32,60.24096386,3,1,10,-0.221354167,0.109375,1,0,0,1.642,Andesite_11,1,11,4,3,1.642,-0.138020833,-0.234375,1,0,0,2.0984,Basalt_rect,2,2.098,0,9,0,9,0,1,,,,,,,,,,,,,
612b86da38f96808af7bb1da,SCN,2024-06-25_11h40.05.550,LearnStrategy,2023.2.3,Win32,60.24096386,3,1,11,-0.256510417,0.108072917,1,0,0,0.9941,Andesite_11,1,11,4,3,0.994,-0.346354167,-0.25390625,1,0,0,1.0023,Andesite_rect,1,1.002,1,10,0,10,0,1,,,,,,,,,,,,,
612b86da38f96808af7bb1da,SCN,2024-06-25_11h40.05.550,LearnStrategy,2023.2.3,Win32,60.24096386,3,1,12,0.235677083,-0.25,1,0,0,4.7169,Andesite_10,1,10,2,6,4.717,-0.3515625,-0.235677083,1,0,0,2.2558,Andesite_rect,1,2.256,1,11,0,11,0,1,,,,,,,,,,,,,
612b86da38f96808af7bb1da,SCN,2024-06-25_11h40.05.550,LearnStrategy,2023.2.3,Win32,60.24096386,3,1,13,-0.55859375,-0.40625,1,0,0,2.4171,Andesite_14,1,14,1,1,2.417,0.100260417,-0.26171875,1,0,0,2.4574,Diorite_rect,3,2.457,0,12,0,12,0,1,,,,,,,,,,,,,
612b86da38f96808af7bb1da,SCN,2024-06-25_11h40.05.550,LearnStrategy,2023.2.3,Win32,60.24096386,3,1,14,0.537760417,-0.44140625,1,0,0,2.4619,Basalt_06,2,06,1,8,2.462,-0.08984375,-0.239583333,1,0,0,1.4531,Basalt_rect,2,1.453,1,13,0,13,0,1,,,,,,,,,,,,,
612b86da38f96808af7bb1da,SCN,2024-06-25_11h40.05.550,LearnStrategy,2023.2.3,Win32,60.24096386,3,1,15,0.381510417,-0.428385417,1,0,0,1.0329,Basalt_05,2,05,1,7,1.033,-0.100260417,-0.25,1,0,0,1.7196,Basalt_rect,2,1.72,1,14,0,14,0,1,,,,,,,,,,,,,
612b86da38f96808af7bb1da,SCN,2024-06-25_11h40.05.550,LearnStrategy,2023.2.3,Win32,60.24096386,3,1,16,0.061197917,-0.407552083,1,0,0,1.4496,Basalt_16,2,16,1,5,1.45,0.337239583,-0.243489583,1,0,0,1.5658,Gabbro_rect,4,1.566,0,15,0,15,0,1,,,,,,,,,,,,,
612b86da38f96808af7bb1da,SCN,2024-06-25_11h40.05.550,LearnStrategy,2023.2.3,Win32,60.24096386,3,2,1,,,,,,,,8,03,,,,,,,,,,,8,2.506,1,,,,,,0.34375,-0.37890625,1,0,0,2.5057,Pumice_rect,0,0,0,0,1,
612b86da38f96808af7bb1da,SCN,2024-06-25_11h40.05.550,LearnStrategy,2023.2.3,Win32,60.24096386,3,2,2,,,,,,,,3,13,,,,,,,,,,,3,2.053,1,,,,,,0.108072917,-0.248697917,1,0,0,2.0527,Diorite_rect,1,0,1,0,1,
612b86da38f96808af7bb1da,SCN,2024-06-25_11h40.05.550,LearnStrategy,2023.2.3,Win32,60.24096386,3,2,3,,,,,,,,4,01,,,,,,,,,,,4,4.365,1,,,,,,0.436197917,-0.265625,1,0,0,4.3654,Gabbro_rect,2,0,2,0,1,
612b86da38f96808af7bb1da,SCN,2024-06-25_11h40.05.550,LearnStrategy,2023.2.3,Win32,60.24096386,3,2,4,,,,,,,,6,06,,,,,,,,,,,6,1.779,1,,,,,,-0.15625,-0.389322917,1,0,0,1.7788,Pegmatite_rect,3,0,3,0,1,
612b86da38f96808af7bb1da,SCN,2024-06-25_11h40.05.550,LearnStrategy,2023.2.3,Win32,60.24096386,3,2,5,,,,,,,,1,07,,,,,,,,,,,3,2.031,0,,,,,,0.080729167,-0.234375,1,0,0,2.0308,Diorite_rect,4,0,4,0,1,
612b86da38f96808af7bb1da,SCN,2024-06-25_11h40.05.550,LearnStrategy,2023.2.3,Win32,60.24096386,3,2,6,,,,,,,,5,14,,,,,,,,,,,5,1.814,1,,,,,,-0.447916667,-0.395833333,1,0,0,1.8142,Obsidian_rect,5,0,5,0,1,
612b86da38f96808af7bb1da,SCN,2024-06-25_11h40.05.550,LearnStrategy,2023.2.3,Win32,60.24096386,3,2,7,,,,,,,,6,07,,,,,,,,,,,6,2.142,1,,,,,,-0.205729167,-0.395833333,1,0,0,2.1417,Pegmatite_rect,6,0,6,0,1,
612b86da38f96808af7bb1da,SCN,2024-06-25_11h40.05.550,LearnStrategy,2023.2.3,Win32,60.24096386,3,2,8,,,,,,,,4,03,,,,,,,,,,,3,2.357,0,,,,,,0.079427083,-0.243489583,1,0,0,2.3566,Diorite_rect,7,0,7,0,1,
612b86da38f96808af7bb1da,SCN,2024-06-25_11h40.05.550,LearnStrategy,2023.2.3,Win32,60.24096386,3,2,9,,,,,,,,7,10,,,,,,,,,,,7,7.344,1,,,,,,0.180989583,-0.421875,1,0,0,7.3442,Peridotite_rect,8,0,8,0,1,
612b86da38f96808af7bb1da,SCN,2024-06-25_11h40.05.550,LearnStrategy,2023.2.3,Win32,60.24096386,3,2,10,,,,,,,,2,11,,,,,,,,,,,4,3.16,0,,,,,,0.403645833,-0.251302083,1,0,0,3.1602,Gabbro_rect,9,0,9,0,1,
612b86da38f96808af7bb1da,SCN,2024-06-25_11h40.05.550,LearnStrategy,2023.2.3,Win32,60.24096386,3,2,11,,,,,,,,8,13,,,,,,,,,,,4,9.115,0,,,,,,0.364583333,-0.264322917,1,0,0,9.1146,Gabbro_rect,10,0,10,0,1,
612b86da38f96808af7bb1da,SCN,2024-06-25_11h40.05.550,LearnStrategy,2023.2.3,Win32,60.24096386,3,2,12,,,,,,,,2,08,,,,,,,,,,,2,3.119,1,,,,,,-0.080729167,-0.266927083,1,0,0,3.1188,Basalt_rect,11,0,11,0,1,
612b86da38f96808af7bb1da,SCN,2024-06-25_11h40.05.550,LearnStrategy,2023.2.3,Win32,60.24096386,3,2,13,,,,,,,,7,14,,,,,,,,,,,3,1.921,0,,,,,,0.092447917,-0.24609375,1,0,0,1.9215,Diorite_rect,12,0,12,0,1,
612b86da38f96808af7bb1da,SCN,2024-06-25_11h40.05.550,LearnStrategy,2023.2.3,Win32,60.24096386,3,2,14,,,,,,,,3,07,,,,,,,,,,,7,2.84,0,,,,,,0.08203125,-0.40234375,1,0,0,2.8396,Peridotite_rect,13,0,13,0,1,
612b86da38f96808af7bb1da,SCN,2024-06-25_11h40.05.550,LearnStrategy,2023.2.3,Win32,60.24096386,3,2,15,,,,,,,,1,02,,,,,,,,,,,1,4.911,1,,,,,,-0.30859375,-0.264322917,1,0,0,4.9115,Andesite_rect,14,0,14,0,1,
612b86da38f96808af7bb1da,SCN,2024-06-25_11h40.05.550,LearnStrategy,2023.2.3,Win32,60.24096386,3,2,16,,,,,,,,5,02,,,,,,,,,,,5,1.345,1,,,,,,-0.348958333,-0.408854167,1,0,0,1.3453,Obsidian_rect,15,0,15,0,1,
612b86da38f96808af7bb1da,SCN,2024-06-25_11h40.05.550,LearnStrategy,2023.2.3,Win32,60.24096386,4,1,1,-0.063802083,0.072916667,1,0,0,2.2636,Basalt_10,2,10,4,4,2.264,-0.127604167,-0.247395833,1,0,0,1.447,Basalt_rect,2,1.447,1,0,0,0,0,1,,,,,,,,,,,,,
612b86da38f96808af7bb1da,SCN,2024-06-25_11h40.05.550,LearnStrategy,2023.2.3,Win32,60.24096386,4,1,2,-0.067708333,0.2265625,1,0,0,1.5659,Basalt_09,2,09,5,4,1.566,0.38671875,-0.265625,1,0,0,1.8622,Gabbro_rect,4,1.862,0,1,0,1,0,1,,,,,,,,,,,,,
612b86da38f96808af7bb1da,SCN,2024-06-25_11h40.05.550,LearnStrategy,2023.2.3,Win32,60.24096386,4,1,3,0.23046875,0.088541667,1,0,0,1.6911,Gabbro_14,4,14,4,6,1.691,0.1015625,-0.247395833,1,0,0,2.2933,Diorite_rect,3,2.293,0,2,0,2,0,1,,,,,,,,,,,,,
612b86da38f96808af7bb1da,SCN,2024-06-25_11h40.05.550,LearnStrategy,2023.2.3,Win32,60.24096386,4,1,4,0.243489583,-0.115885417,1,0,0,1.7314,Pumice_16,8,16,3,6,1.731,0.384114583,-0.231770833,1,0,0,1.178,Gabbro_rect,4,1.178,0,3,0,3,0,1,,,,,,,,,,,,,
612b86da38f96808af7bb1da,SCN,2024-06-25_11h40.05.550,LearnStrategy,2023.2.3,Win32,60.24096386,4,1,5,0.395833333,0.07421875,1,0,0,2.4668,Pumice_14,8,14,4,7,2.467,0.376302083,-0.419270833,1,0,0,1.3882,Pumice_rect,8,1.388,1,4,0,4,0,1,,,,,,,,,,,,,
612b86da38f96808af7bb1da,SCN,2024-06-25_11h40.05.550,LearnStrategy,2023.2.3,Win32,60.24096386,4,1,6,0.0625,0.096354167,1,0,0,0.8689,Andesite_03,1,03,4,5,0.869,0.381510417,-0.252604167,1,0,0,4.2409,Gabbro_rect,4,4.241,0,5,0,5,0,1,,,,,,,,,,,,,
612b86da38f96808af7bb1da,SCN,2024-06-25_11h40.05.550,LearnStrategy,2023.2.3,Win32,60.24096386,4,1,7,0.0546875,0.087239583,1,0,0,1.1686,Andesite_03,1,03,4,5,1.169,-0.412760417,-0.239583333,1,0,0,1.2723,Andesite_rect,1,1.272,1,6,0,6,0,1,,,,,,,,,,,,,
612b86da38f96808af7bb1da,SCN,2024-06-25_11h40.05.550,LearnStrategy,2023.2.3,Win32,60.24096386,4,1,8,-0.559895833,-0.11328125,1,0,0,3.5428,Andesite_16,1,16,3,1,3.543,-0.419270833,-0.25390625,1,0,0,2.6734,Andesite_rect,1,2.673,1,7,0,7,0,1,,,,,,,,,,,,,
612b86da38f96808af7bb1da,SCN,2024-06-25_11h40.05.550,LearnStrategy,2023.2.3,Win32,60.24096386,4,1,9,0.2421875,0.102864583,1,0,0,1.6667,Gabbro_14,4,14,4,6,1.667,-0.114583333,-0.229166667,1,0,0,1.3842,Basalt_rect,2,1.384,0,8,0,8,0,1,,,,,,,,,,,,,
612b86da38f96808af7bb1da,SCN,2024-06-25_11h40.05.550,LearnStrategy,2023.2.3,Win32,60.24096386,4,1,10,0.411458333,0.091145833,1,0,0,1.4891,Pumice_14,8,14,4,7,1.489,0.3828125,-0.390625,1,0,0,2.0888,Pumice_rect,8,2.089,1,9,0,9,0,1,,,,,,,,,,,,,
612b86da38f96808af7bb1da,SCN,2024-06-25_11h40.05.550,LearnStrategy,2023.2.3,Win32,60.24096386,4,1,11,-0.385416667,0.08984375,1,0,0,1.7656,Obsidian_16,5,16,4,2,1.766,-0.380208333,-0.38671875,1,0,0,1.4992,Obsidian_rect,5,1.499,1,10,0,10,0,1,,,,,,,,,,,,,
612b86da38f96808af7bb1da,SCN,2024-06-25_11h40.05.550,LearnStrategy,2023.2.3,Win32,60.24096386,4,1,12,-0.376302083,0.263020833,1,0,0,1.7939,Pumice_08,8,08,5,2,1.794,0.391927083,-0.26171875,1,0,0,1.828,Gabbro_rect,4,1.828,0,11,0,11,0,1,,,,,,,,,,,,,
612b86da38f96808af7bb1da,SCN,2024-06-25_11h40.05.550,LearnStrategy,2023.2.3,Win32,60.24096386,4,1,13,-0.545572917,-0.106770833,1,0,0,1.6325,Andesite_16,1,16,3,1,1.632,-0.407552083,-0.247395833,1,0,0,2.3013,Andesite_rect,1,2.301,1,12,0,12,0,1,,,,,,,,,,,,,
612b86da38f96808af7bb1da,SCN,2024-06-25_11h40.05.550,LearnStrategy,2023.2.3,Win32,60.24096386,4,1,14,-0.255208333,-0.298177083,1,0,0,1.5537,Diorite_15,3,15,2,3,1.554,0.095052083,-0.260416667,1,0,0,1.8499,Diorite_rect,3,1.85,1,13,0,13,0,1,,,,,,,,,,,,,
612b86da38f96808af7bb1da,SCN,2024-06-25_11h40.05.550,LearnStrategy,2023.2.3,Win32,60.24096386,4,1,15,-0.196614583,-0.403645833,1,0,0,1.4328,Pegmatite_10,6,10,1,3,1.433,0.088541667,-0.395833333,1,0,0,1.2361,Peridotite_rect,7,1.236,0,14,0,14,0,1,,,,,,,,,,,,,
612b86da38f96808af7bb1da,SCN,2024-06-25_11h40.05.550,LearnStrategy,2023.2.3,Win32,60.24096386,4,1,16,-0.236979167,-0.428385417,1,0,0,1.3832,Pegmatite_10,6,10,1,3,1.383,-0.1796875,-0.4140625,1,0,0,0.9834,Pegmatite_rect,6,0.983,1,15,0,15,0,1,,,,,,,,,,,,,
612b86da38f96808af7bb1da,SCN,2024-06-25_11h40.05.550,LearnStrategy,2023.2.3,Win32,60.24096386,4,2,1,,,,,,,,4,01,,,,,,,,,,,7,3.073,0,,,,,,0.102864583,-0.395833333,1,0,0,3.0731,Peridotite_rect,0,0,0,0,1,
612b86da38f96808af7bb1da,SCN,2024-06-25_11h40.05.550,LearnStrategy,2023.2.3,Win32,60.24096386,4,2,2,,,,,,,,2,04,,,,,,,,,,,2,4.032,1,,,,,,-0.118489583,-0.2578125,1,0,0,4.0319,Basalt_rect,1,0,1,0,1,
612b86da38f96808af7bb1da,SCN,2024-06-25_11h40.05.550,LearnStrategy,2023.2.3,Win32,60.24096386,4,2,3,,,,,,,,5,10,,,,,,,,,,,5,3.951,1,,,,,,-0.372395833,-0.408854167,1,0,0,3.9515,Obsidian_rect,2,0,2,0,1,
612b86da38f96808af7bb1da,SCN,2024-06-25_11h40.05.550,LearnStrategy,2023.2.3,Win32,60.24096386,4,2,4,,,,,,,,7,02,,,,,,,,,,,3,1.832,0,,,,,,0.154947917,-0.252604167,1,0,0,1.8323,Diorite_rect,3,0,3,0,1,
612b86da38f96808af7bb1da,SCN,2024-06-25_11h40.05.550,LearnStrategy,2023.2.3,Win32,60.24096386,4,2,5,,,,,,,,5,05,,,,,,,,,,,6,2.094,0,,,,,,-0.09375,-0.393229167,1,0,0,2.0941,Pegmatite_rect,4,0,4,0,1,
612b86da38f96808af7bb1da,SCN,2024-06-25_11h40.05.550,LearnStrategy,2023.2.3,Win32,60.24096386,4,2,6,,,,,,,,8,04,,,,,,,,,,,8,1.446,1,,,,,,0.389322917,-0.397135417,1,0,0,1.4462,Pumice_rect,5,0,5,0,1,
612b86da38f96808af7bb1da,SCN,2024-06-25_11h40.05.550,LearnStrategy,2023.2.3,Win32,60.24096386,4,2,7,,,,,,,,4,09,,,,,,,,,,,2,4.796,0,,,,,,-0.154947917,-0.248697917,1,0,0,4.7956,Basalt_rect,6,0,6,0,1,
612b86da38f96808af7bb1da,SCN,2024-06-25_11h40.05.550,LearnStrategy,2023.2.3,Win32,60.24096386,4,2,8,,,,,,,,8,13,,,,,,,,,,,8,2.639,1,,,,,,0.380208333,-0.397135417,1,0,0,2.6387,Pumice_rect,7,0,7,0,1,
612b86da38f96808af7bb1da,SCN,2024-06-25_11h40.05.550,LearnStrategy,2023.2.3,Win32,60.24096386,4,2,9,,,,,,,,2,12,,,,,,,,,,,4,2.042,0,,,,,,0.3828125,-0.264322917,1,0,0,2.0423,Gabbro_rect,8,0,8,0,1,
612b86da38f96808af7bb1da,SCN,2024-06-25_11h40.05.550,LearnStrategy,2023.2.3,Win32,60.24096386,4,2,10,,,,,,,,3,09,,,,,,,,,,,3,1.559,1,,,,,,0.1015625,-0.2421875,1,0,0,1.5591,Diorite_rect,9,0,9,0,1,
612b86da38f96808af7bb1da,SCN,2024-06-25_11h40.05.550,LearnStrategy,2023.2.3,Win32,60.24096386,4,2,11,,,,,,,,1,09,,,,,,,,,,,4,1.941,0,,,,,,0.40234375,-0.236979167,1,0,0,1.9405,Gabbro_rect,10,0,10,0,1,
612b86da38f96808af7bb1da,SCN,2024-06-25_11h40.05.550,LearnStrategy,2023.2.3,Win32,60.24096386,4,2,12,,,,,,,,1,04,,,,,,,,,,,1,5.195,1,,,,,,-0.470052083,-0.260416667,1,0,0,5.1948,Andesite_rect,11,0,11,0,1,
612b86da38f96808af7bb1da,SCN,2024-06-25_11h40.05.550,LearnStrategy,2023.2.3,Win32,60.24096386,4,2,13,,,,,,,,3,13,,,,,,,,,,,3,1.652,1,,,,,,0.147135417,-0.25390625,1,0,0,1.6524,Diorite_rect,12,0,12,0,1,
612b86da38f96808af7bb1da,SCN,2024-06-25_11h40.05.550,LearnStrategy,2023.2.3,Win32,60.24096386,4,2,14,,,,,,,,6,11,,,,,,,,,,,6,3.288,1,,,,,,-0.145833333,-0.407552083,1,0,0,3.2877,Pegmatite_rect,13,0,13,0,1,
612b86da38f96808af7bb1da,SCN,2024-06-25_11h40.05.550,LearnStrategy,2023.2.3,Win32,60.24096386,4,2,15,,,,,,,,6,06,,,,,,,,,,,7,2.235,0,,,,,,0.059895833,-0.40234375,1,0,0,2.2346,Peridotite_rect,14,0,14,0,1,
612b86da38f96808af7bb1da,SCN,2024-06-25_11h40.05.550,LearnStrategy,2023.2.3,Win32,60.24096386,4,2,16,,,,,,,,7,14,,,,,,,,,,,3,2.111,0,,,,,,0.084635417,-0.255208333,1,0,0,2.1107,Diorite_rect,15,0,15,0,1,
612b86da38f96808af7bb1da,SCN,2024-06-25_11h40.05.550,LearnStrategy,2023.2.3,Win32,60.24096386,5,1,1,-0.091145833,0.092447917,1,0,0,1.593,Basalt_10,2,10,4,4,1.593,-0.147135417,-0.244791667,1,0,0,1.2662,Basalt_rect,2,1.266,1,0,0,0,0,1,,,,,,,,,,,,,
612b86da38f96808af7bb1da,SCN,2024-06-25_11h40.05.550,LearnStrategy,2023.2.3,Win32,60.24096386,5,1,2,-0.541666667,0.423177083,1,0,0,1.7505,Diorite_16,3,16,6,1,1.75,0.088541667,-0.2578125,1,0,0,2.156,Diorite_rect,3,2.156,1,1,0,1,0,1,,,,,,,,,,,,,
612b86da38f96808af7bb1da,SCN,2024-06-25_11h40.05.550,LearnStrategy,2023.2.3,Win32,60.24096386,5,1,3,-0.54296875,0.244791667,1,0,0,1.4167,Diorite_10,3,10,5,1,1.417,0.11328125,-0.260416667,1,0,0,1.7882,Diorite_rect,3,1.788,1,2,0,2,0,1,,,,,,,,,,,,,
612b86da38f96808af7bb1da,SCN,2024-06-25_11h40.05.550,LearnStrategy,2023.2.3,Win32,60.24096386,5,1,4,-0.557291667,0.104166667,1,0,0,1.3032,Pegmatite_16,6,16,4,1,1.303,-0.084635417,-0.391927083,1,0,0,1.282,Pegmatite_rect,6,1.282,1,3,0,3,0,1,,,,,,,,,,,,,
612b86da38f96808af7bb1da,SCN,2024-06-25_11h40.05.550,LearnStrategy,2023.2.3,Win32,60.24096386,5,1,5,-0.549479167,-0.1171875,1,0,0,1.3534,Andesite_16,1,16,3,1,1.353,0.078125,-0.252604167,1,0,0,1.8005,Diorite_rect,3,1.8,0,4,0,4,0,1,,,,,,,,,,,,,
612b86da38f96808af7bb1da,SCN,2024-06-25_11h40.05.550,LearnStrategy,2023.2.3,Win32,60.24096386,5,1,6,-0.537760417,-0.080729167,1,0,0,1.4117,Andesite_16,1,16,3,1,1.412,-0.3984375,-0.23046875,1,0,0,1.081,Andesite_rect,1,1.081,1,5,0,5,0,1,,,,,,,,,,,,,
612b86da38f96808af7bb1da,SCN,2024-06-25_11h40.05.550,LearnStrategy,2023.2.3,Win32,60.24096386,5,1,7,-0.540364583,-0.265625,1,0,0,1.3893,Gabbro_10,4,10,2,1,1.389,-0.104166667,-0.243489583,1,0,0,4.2106,Basalt_rect,2,4.211,0,6,0,6,0,1,,,,,,,,,,,,,
612b86da38f96808af7bb1da,SCN,2024-06-25_11h40.05.550,LearnStrategy,2023.2.3,Win32,60.24096386,5,1,8,-0.54296875,-0.411458333,1,0,0,1.399,Andesite_14,1,14,1,1,1.399,0.111979167,-0.256510417,1,0,0,3.0634,Diorite_rect,3,3.063,0,7,0,7,0,1,,,,,,,,,,,,,
612b86da38f96808af7bb1da,SCN,2024-06-25_11h40.05.550,LearnStrategy,2023.2.3,Win32,60.24096386,5,1,9,-0.567708333,-0.41015625,1,0,0,1.6337,Andesite_14,1,14,1,1,1.634,-0.075520833,-0.404947917,1,0,0,1.3105,Pegmatite_rect,6,1.31,0,8,0,8,0,1,,,,,,,,,,,,,
612b86da38f96808af7bb1da,SCN,2024-06-25_11h40.05.550,LearnStrategy,2023.2.3,Win32,60.24096386,5,1,10,-0.505208333,-0.421875,1,0,0,1.6322,Andesite_14,1,14,1,1,1.632,0.1171875,-0.403645833,1,0,0,1.4034,Peridotite_rect,7,1.403,0,9,0,9,0,1,,,,,,,,,,,,,
612b86da38f96808af7bb1da,SCN,2024-06-25_11h40.05.550,LearnStrategy,2023.2.3,Win32,60.24096386,5,1,11,-0.565104167,-0.368489583,1,0,0,1.5332,Andesite_14,1,14,1,1,1.533,-0.100260417,-0.244791667,1,0,0,3.0209,Basalt_rect,2,3.021,0,10,0,10,0,1,,,,,,,,,,,,,
612b86da38f96808af7bb1da,SCN,2024-06-25_11h40.05.550,LearnStrategy,2023.2.3,Win32,60.24096386,5,1,12,-0.53515625,-0.40234375,1,0,0,1.8665,Andesite_14,1,14,1,1,1.866,-0.41796875,-0.247395833,1,0,0,0.9652,Andesite_rect,1,0.965,1,11,0,11,0,1,,,,,,,,,,,,,
612b86da38f96808af7bb1da,SCN,2024-06-25_11h40.05.550,LearnStrategy,2023.2.3,Win32,60.24096386,5,1,13,-0.389322917,-0.399739583,1,0,0,1.928,Peridotite_07,7,07,1,2,1.928,0.12109375,-0.240885417,1,0,0,2.005,Diorite_rect,3,2.005,0,12,0,12,0,1,,,,,,,,,,,,,
612b86da38f96808af7bb1da,SCN,2024-06-25_11h40.05.550,LearnStrategy,2023.2.3,Win32,60.24096386,5,1,14,-0.225260417,-0.24609375,1,0,0,1.9329,Diorite_15,3,15,2,3,1.933,0.076822917,-0.24609375,1,0,0,1.5286,Diorite_rect,3,1.529,1,13,0,13,0,1,,,,,,,,,,,,,
612b86da38f96808af7bb1da,SCN,2024-06-25_11h40.05.550,LearnStrategy,2023.2.3,Win32,60.24096386,5,1,15,-0.072916667,-0.240885417,1,0,0,1.5183,Pegmatite_12,6,12,2,4,1.518,0.12109375,-0.397135417,1,0,0,1.9134,Peridotite_rect,7,1.913,0,14,0,14,0,1,,,,,,,,,,,,,
612b86da38f96808af7bb1da,SCN,2024-06-25_11h40.05.550,LearnStrategy,2023.2.3,Win32,60.24096386,5,1,16,-0.399739583,-0.255208333,1,0,0,1.6638,Diorite_12,3,12,2,2,1.664,0.115885417,-0.259114583,1,0,0,2.3477,Diorite_rect,3,2.348,1,15,0,15,0,1,,,,,,,,,,,,,
612b86da38f96808af7bb1da,SCN,2024-06-25_11h40.05.550,LearnStrategy,2023.2.3,Win32,60.24096386,5,2,1,,,,,,,,6,07,,,,,,,,,,,6,2.608,1,,,,,,-0.118489583,-0.388020833,1,0,0,2.6077,Pegmatite_rect,0,0,0,0,1,
612b86da38f96808af7bb1da,SCN,2024-06-25_11h40.05.550,LearnStrategy,2023.2.3,Win32,60.24096386,5,2,2,,,,,,,,7,10,,,,,,,,,,,3,5.176,0,,,,,,0.125,-0.244791667,1,0,0,5.176,Diorite_rect,1,0,1,0,1,
612b86da38f96808af7bb1da,SCN,2024-06-25_11h40.05.550,LearnStrategy,2023.2.3,Win32,60.24096386,5,2,3,,,,,,,,8,10,,,,,,,,,,,8,2.089,1,,,,,,0.403645833,-0.401041667,1,0,0,2.0886,Pumice_rect,2,0,2,0,1,
612b86da38f96808af7bb1da,SCN,2024-06-25_11h40.05.550,LearnStrategy,2023.2.3,Win32,60.24096386,5,2,4,,,,,,,,5,06,,,,,,,,,,,5,1.753,1,,,,,,-0.3515625,-0.388020833,1,0,0,1.7525,Obsidian_rect,3,0,3,0,1,
612b86da38f96808af7bb1da,SCN,2024-06-25_11h40.05.550,LearnStrategy,2023.2.3,Win32,60.24096386,5,2,5,,,,,,,,8,06,,,,,,,,,,,8,1.826,1,,,,,,0.38671875,-0.388020833,1,0,0,1.8257,Pumice_rect,4,0,4,0,1,
612b86da38f96808af7bb1da,SCN,2024-06-25_11h40.05.550,LearnStrategy,2023.2.3,Win32,60.24096386,5,2,6,,,,,,,,5,02,,,,,,,,,,,5,1.416,1,,,,,,-0.345052083,-0.381510417,1,0,0,1.4157,Obsidian_rect,5,0,5,0,1,
612b86da38f96808af7bb1da,SCN,2024-06-25_11h40.05.550,LearnStrategy,2023.2.3,Win32,60.24096386,5,2,7,,,,,,,,7,13,,,,,,,,,,,3,3.077,0,,,,,,0.151041667,-0.23828125,1,0,0,3.0766,Diorite_rect,6,0,6,0,1,
612b86da38f96808af7bb1da,SCN,2024-06-25_11h40.05.550,LearnStrategy,2023.2.3,Win32,60.24096386,5,2,8,,,,,,,,3,07,,,,,,,,,,,6,2.854,0,,,,,,-0.111979167,-0.40625,1,0,0,2.8536,Pegmatite_rect,7,0,7,0,1,
612b86da38f96808af7bb1da,SCN,2024-06-25_11h40.05.550,LearnStrategy,2023.2.3,Win32,60.24096386,5,2,9,,,,,,,,1,01,,,,,,,,,,,5,5.274,0,,,,,,-0.34375,-0.38671875,1,0,0,5.2736,Obsidian_rect,8,0,8,0,1,
612b86da38f96808af7bb1da,SCN,2024-06-25_11h40.05.550,LearnStrategy,2023.2.3,Win32,60.24096386,5,2,10,,,,,,,,6,05,,,,,,,,,,,6,4.997,1,,,,,,-0.088541667,-0.384114583,1,0,0,4.9972,Pegmatite_rect,9,0,9,0,1,
612b86da38f96808af7bb1da,SCN,2024-06-25_11h40.05.550,LearnStrategy,2023.2.3,Win32,60.24096386,5,2,11,,,,,,,,1,06,,,,,,,,,,,4,2.381,0,,,,,,0.453125,-0.244791667,1,0,0,2.3815,Gabbro_rect,10,0,10,0,1,
612b86da38f96808af7bb1da,SCN,2024-06-25_11h40.05.550,LearnStrategy,2023.2.3,Win32,60.24096386,5,2,12,,,,,,,,2,11,,,,,,,,,,,4,2.68,0,,,,,,0.44921875,-0.23828125,1,0,0,2.6805,Gabbro_rect,11,0,11,0,1,
612b86da38f96808af7bb1da,SCN,2024-06-25_11h40.05.550,LearnStrategy,2023.2.3,Win32,60.24096386,5,2,13,,,,,,,,4,03,,,,,,,,,,,3,1.628,0,,,,,,0.197916667,-0.25390625,1,0,0,1.6279,Diorite_rect,12,0,12,0,1,
612b86da38f96808af7bb1da,SCN,2024-06-25_11h40.05.550,LearnStrategy,2023.2.3,Win32,60.24096386,5,2,14,,,,,,,,4,15,,,,,,,,,,,3,1.028,0,,,,,,0.192708333,-0.247395833,1,0,0,1.0284,Diorite_rect,13,0,13,0,1,
612b86da38f96808af7bb1da,SCN,2024-06-25_11h40.05.550,LearnStrategy,2023.2.3,Win32,60.24096386,5,2,15,,,,,,,,2,14,,,,,,,,,,,2,2.784,1,,,,,,-0.055989583,-0.24609375,1,0,0,2.7841,Basalt_rect,14,0,14,0,1,
612b86da38f96808af7bb1da,SCN,2024-06-25_11h40.05.550,LearnStrategy,2023.2.3,Win32,60.24096386,5,2,16,,,,,,,,3,11,,,,,,,,,,,3,1.437,1,,,,,,0.147135417,-0.2421875,1,0,0,1.4367,Diorite_rect,15,0,15,0,1,
612b86da38f96808af7bb1da,SCN,2024-06-25_11h40.05.550,LearnStrategy,2023.2.3,Win32,60.24096386,6,1,1,0.065104167,-0.091145833,1,0,0,2.8068,Basalt_01,2,01,3,5,2.807,-0.100260417,-0.25,1,0,0,1.5825,Basalt_rect,2,1.582,1,0,0,0,0,1,,,,,,,,,,,,,
612b86da38f96808af7bb1da,SCN,2024-06-25_11h40.05.550,LearnStrategy,2023.2.3,Win32,60.24096386,6,1,2,-0.079427083,0.098958333,1,0,0,1.7414,Basalt_10,2,10,4,4,1.741,-0.11328125,-0.2578125,1,0,0,1.6265,Basalt_rect,2,1.627,1,1,0,1,0,1,,,,,,,,,,,,,
612b86da38f96808af7bb1da,SCN,2024-06-25_11h40.05.550,LearnStrategy,2023.2.3,Win32,60.24096386,6,1,3,-0.052083333,0.233072917,1,0,0,1.62,Basalt_09,2,09,5,4,1.62,-0.108072917,-0.247395833,1,0,0,1.8743,Basalt_rect,2,1.874,1,2,0,2,0,1,,,,,,,,,,,,,
612b86da38f96808af7bb1da,SCN,2024-06-25_11h40.05.550,LearnStrategy,2023.2.3,Win32,60.24096386,6,1,4,-0.3828125,0.234375,1,0,0,2.6249,Pumice_08,8,08,5,2,2.625,0.377604167,-0.4140625,1,0,0,1.6818,Pumice_rect,8,1.682,1,3,0,3,0,1,,,,,,,,,,,,,
612b86da38f96808af7bb1da,SCN,2024-06-25_11h40.05.550,LearnStrategy,2023.2.3,Win32,60.24096386,6,1,5,0.24609375,-0.098958333,1,0,0,1.5646,Pumice_16,8,16,3,6,1.565,0.37890625,-0.397135417,1,0,0,1.4797,Pumice_rect,8,1.48,1,4,0,4,0,1,,,,,,,,,,,,,
612b86da38f96808af7bb1da,SCN,2024-06-25_11h40.05.550,LearnStrategy,2023.2.3,Win32,60.24096386,6,1,6,-0.231770833,-0.421875,1,0,0,3.6826,Pegmatite_10,6,10,1,3,3.683,-0.096354167,-0.399739583,1,0,0,2.1403,Pegmatite_rect,6,2.14,1,5,0,5,0,1,,,,,,,,,,,,,
612b86da38f96808af7bb1da,SCN,2024-06-25_11h40.05.550,LearnStrategy,2023.2.3,Win32,60.24096386,6,1,7,-0.38671875,-0.240885417,1,0,0,2.5807,Diorite_12,3,12,2,2,2.581,0.096354167,-0.248697917,1,0,0,1.69,Diorite_rect,3,1.69,1,6,0,6,0,1,,,,,,,,,,,,,
612b86da38f96808af7bb1da,SCN,2024-06-25_11h40.05.550,LearnStrategy,2023.2.3,Win32,60.24096386,6,1,8,0.23046875,-0.4375,1,0,0,1.6828,Diorite_02,3,02,1,6,1.683,-0.4140625,-0.24609375,1,0,0,1.0497,Andesite_rect,1,1.05,0,7,0,7,0,1,,,,,,,,,,,,,
612b86da38f96808af7bb1da,SCN,2024-06-25_11h40.05.550,LearnStrategy,2023.2.3,Win32,60.24096386,6,1,9,0.524739583,-0.122395833,1,0,0,2.0552,Gabbro_12,4,12,3,8,2.055,0.40234375,-0.256510417,1,0,0,1.3122,Gabbro_rect,4,1.312,1,8,0,8,0,1,,,,,,,,,,,,,
612b86da38f96808af7bb1da,SCN,2024-06-25_11h40.05.550,LearnStrategy,2023.2.3,Win32,60.24096386,6,1,10,-0.553385417,-0.3984375,1,0,0,3.3257,Andesite_14,1,14,1,1,3.326,0.033854167,-0.263020833,1,0,0,3.6308,Diorite_rect,3,3.631,0,9,0,9,0,1,,,,,,,,,,,,,
612b86da38f96808af7bb1da,SCN,2024-06-25_11h40.05.550,LearnStrategy,2023.2.3,Win32,60.24096386,6,1,11,-0.083333333,0.106770833,1,0,0,1.8433,Basalt_10,2,10,4,4,1.843,-0.134114583,-0.234375,1,0,0,2.0387,Basalt_rect,2,2.039,1,10,0,10,0,1,,,,,,,,,,,,,
612b86da38f96808af7bb1da,SCN,2024-06-25_11h40.05.550,LearnStrategy,2023.2.3,Win32,60.24096386,6,1,12,0.080729167,0.102864583,1,0,0,1.4668,Andesite_03,1,03,4,5,1.467,-0.40234375,-0.255208333,1,0,0,2.2949,Andesite_rect,1,2.295,1,11,0,11,0,1,,,,,,,,,,,,,
612b86da38f96808af7bb1da,SCN,2024-06-25_11h40.05.550,LearnStrategy,2023.2.3,Win32,60.24096386,6,1,13,0.223958333,0.075520833,1,0,0,1.7022,Gabbro_14,4,14,4,6,1.702,0.115885417,-0.23046875,1,0,0,3.0698,Diorite_rect,3,3.07,0,12,0,12,0,1,,,,,,,,,,,,,
612b86da38f96808af7bb1da,SCN,2024-06-25_11h40.05.550,LearnStrategy,2023.2.3,Win32,60.24096386,6,1,14,-0.06640625,0.236979167,1,0,0,1.8856,Basalt_09,2,09,5,4,1.886,-0.0703125,-0.263020833,1,0,0,2.0436,Basalt_rect,2,2.044,1,13,0,13,0,1,,,,,,,,,,,,,
612b86da38f96808af7bb1da,SCN,2024-06-25_11h40.05.550,LearnStrategy,2023.2.3,Win32,60.24096386,6,1,15,0.09375,0.08203125,1,0,0,1.7157,Andesite_03,1,03,4,5,1.716,-0.36328125,-0.248697917,1,0,0,3.6578,Andesite_rect,1,3.658,1,14,0,14,0,1,,,,,,,,,,,,,
612b86da38f96808af7bb1da,SCN,2024-06-25_11h40.05.550,LearnStrategy,2023.2.3,Win32,60.24096386,6,1,16,0.41796875,-0.126302083,1,0,0,1.9497,Diorite_06,3,06,3,7,1.95,0.17578125,-0.236979167,1,0,0,1.2551,Diorite_rect,3,1.255,1,15,0,15,0,1,,,,,,,,,,,,,
612b86da38f96808af7bb1da,SCN,2024-06-25_11h40.05.550,LearnStrategy,2023.2.3,Win32,60.24096386,6,2,1,,,,,,,,2,08,,,,,,,,,,,2,9.575,1,,,,,,-0.07421875,-0.240885417,1,0,0,9.5746,Basalt_rect,0,0,0,0,1,
612b86da38f96808af7bb1da,SCN,2024-06-25_11h40.05.550,LearnStrategy,2023.2.3,Win32,60.24096386,6,2,2,,,,,,,,1,02,,,,,,,,,,,8,1.798,0,,,,,,0.428385417,-0.393229167,1,0,0,1.798,Pumice_rect,1,0,1,0,1,
612b86da38f96808af7bb1da,SCN,2024-06-25_11h40.05.550,LearnStrategy,2023.2.3,Win32,60.24096386,6,2,3,,,,,,,,6,09,,,,,,,,,,,6,2.033,1,,,,,,-0.078125,-0.37890625,1,0,0,2.0325,Pegmatite_rect,2,0,2,0,1,
612b86da38f96808af7bb1da,SCN,2024-06-25_11h40.05.550,LearnStrategy,2023.2.3,Win32,60.24096386,6,2,4,,,,,,,,8,09,,,,,,,,,,,8,1.515,1,,,,,,0.436197917,-0.38671875,1,0,0,1.5154,Pumice_rect,3,0,3,0,1,
612b86da38f96808af7bb1da,SCN,2024-06-25_11h40.05.550,LearnStrategy,2023.2.3,Win32,60.24096386,6,2,5,,,,,,,,7,05,,,,,,,,,,,1,2.148,0,,,,,,-0.36328125,-0.251302083,1,0,0,2.1475,Andesite_rect,4,0,4,0,1,
612b86da38f96808af7bb1da,SCN,2024-06-25_11h40.05.550,LearnStrategy,2023.2.3,Win32,60.24096386,6,2,6,,,,,,,,7,04,,,,,,,,,,,6,2.366,0,,,,,,-0.05859375,-0.391927083,1,0,0,2.366,Pegmatite_rect,5,0,5,0,1,
612b86da38f96808af7bb1da,SCN,2024-06-25_11h40.05.550,LearnStrategy,2023.2.3,Win32,60.24096386,6,2,7,,,,,,,,4,11,,,,,,,,,,,1,3.913,0,,,,,,-0.3125,-0.2578125,1,0,0,3.9127,Andesite_rect,6,0,6,0,1,
612b86da38f96808af7bb1da,SCN,2024-06-25_11h40.05.550,LearnStrategy,2023.2.3,Win32,60.24096386,6,2,8,,,,,,,,6,03,,,,,,,,,,,6,5.118,1,,,,,,-0.1171875,-0.421875,1,0,0,5.1179,Pegmatite_rect,7,0,7,0,1,
612b86da38f96808af7bb1da,SCN,2024-06-25_11h40.05.550,LearnStrategy,2023.2.3,Win32,60.24096386,6,2,9,,,,,,,,8,03,,,,,,,,,,,8,3.755,1,,,,,,0.399739583,-0.404947917,1,0,0,3.755,Pumice_rect,8,0,8,0,1,
612b86da38f96808af7bb1da,SCN,2024-06-25_11h40.05.550,LearnStrategy,2023.2.3,Win32,60.24096386,6,2,10,,,,,,,,4,05,,,,,,,,,,,1,6.847,0,,,,,,-0.354166667,-0.255208333,1,0,0,6.8466,Andesite_rect,9,0,9,0,1,
612b86da38f96808af7bb1da,SCN,2024-06-25_11h40.05.550,LearnStrategy,2023.2.3,Win32,60.24096386,6,2,11,,,,,,,,3,14,,,,,,,,,,,3,4.967,1,,,,,,0.075520833,-0.263020833,1,0,0,4.9667,Diorite_rect,10,0,10,0,1,
612b86da38f96808af7bb1da,SCN,2024-06-25_11h40.05.550,LearnStrategy,2023.2.3,Win32,60.24096386,6,2,12,,,,,,,,5,07,,,,,,,,,,,5,2.059,1,,,,,,-0.4296875,-0.39453125,1,0,0,2.0587,Obsidian_rect,11,0,11,0,1,
612b86da38f96808af7bb1da,SCN,2024-06-25_11h40.05.550,LearnStrategy,2023.2.3,Win32,60.24096386,6,2,13,,,,,,,,2,02,,,,,,,,,,,2,2.055,1,,,,,,-0.127604167,-0.255208333,1,0,0,2.0548,Basalt_rect,12,0,12,0,1,
612b86da38f96808af7bb1da,SCN,2024-06-25_11h40.05.550,LearnStrategy,2023.2.3,Win32,60.24096386,6,2,14,,,,,,,,5,14,,,,,,,,,,,5,1.539,1,,,,,,-0.34765625,-0.38671875,1,0,0,1.5389,Obsidian_rect,13,0,13,0,1,
612b86da38f96808af7bb1da,SCN,2024-06-25_11h40.05.550,LearnStrategy,2023.2.3,Win32,60.24096386,6,2,15,,,,,,,,1,07,,,,,,,,,,,3,3.466,0,,,,,,0.157552083,-0.260416667,1,0,0,3.4659,Diorite_rect,14,0,14,0,1,
612b86da38f96808af7bb1da,SCN,2024-06-25_11h40.05.550,LearnStrategy,2023.2.3,Win32,60.24096386,6,2,16,,,,,,,,3,08,,,,,,,,,,,3,1.025,1,,,,,,0.157552083,-0.260416667,1,0,0,1.0248,Diorite_rect,15,0,15,0,1,
612b86da38f96808af7bb1da,SCN,2024-06-25_11h40.05.550,LearnStrategy,2023.2.3,Win32,60.24096386,7,1,1,-0.2421875,-0.390625,1,0,0,4.5811,Pegmatite_10,6,10,1,3,4.581,-0.084635417,-0.399739583,1,0,0,2.2728,Pegmatite_rect,6,2.273,1,0,0,0,0,1,,,,,,,,,,,,,
612b86da38f96808af7bb1da,SCN,2024-06-25_11h40.05.550,LearnStrategy,2023.2.3,Win32,60.24096386,7,1,2,0.231770833,-0.08203125,1,0,0,1.4986,Pumice_16,8,16,3,6,1.499,0.403645833,-0.407552083,1,0,0,1.7619,Pumice_rect,8,1.762,1,1,0,1,0,1,,,,,,,,,,,,,
612b86da38f96808af7bb1da,SCN,2024-06-25_11h40.05.550,LearnStrategy,2023.2.3,Win32,60.24096386,7,1,3,-0.2421875,-0.07421875,1,0,0,1.95,Pegmatite_08,6,08,3,3,1.95,0.08203125,-0.41015625,1,0,0,2.296,Peridotite_rect,7,2.296,0,2,0,2,0,1,,,,,,,,,,,,,
612b86da38f96808af7bb1da,SCN,2024-06-25_11h40.05.550,LearnStrategy,2023.2.3,Win32,60.24096386,7,1,4,-0.37890625,0.0859375,1,0,0,2.7691,Obsidian_16,5,16,4,2,2.769,-0.372395833,-0.41015625,1,0,0,1.8115,Obsidian_rect,5,1.811,1,3,0,3,0,1,,,,,,,,,,,,,
612b86da38f96808af7bb1da,SCN,2024-06-25_11h40.05.550,LearnStrategy,2023.2.3,Win32,60.24096386,7,1,5,-0.37890625,0.252604167,1,0,0,1.9819,Pumice_08,8,08,5,2,1.982,0.372395833,-0.420572917,1,0,0,1.8656,Pumice_rect,8,1.866,1,4,0,4,0,1,,,,,,,,,,,,,
612b86da38f96808af7bb1da,SCN,2024-06-25_11h40.05.550,LearnStrategy,2023.2.3,Win32,60.24096386,7,1,6,0.244791667,0.091145833,1,0,0,1.2471,Gabbro_14,4,14,4,6,1.247,0.127604167,-0.234375,1,0,0,1.7744,Diorite_rect,3,1.774,0,5,0,5,0,1,,,,,,,,,,,,,
612b86da38f96808af7bb1da,SCN,2024-06-25_11h40.05.550,LearnStrategy,2023.2.3,Win32,60.24096386,7,1,7,0.220052083,0.078125,1,0,0,1.1493,Gabbro_14,4,14,4,6,1.149,0.41015625,-0.243489583,1,0,0,1.082,Gabbro_rect,4,1.082,1,6,0,6,0,1,,,,,,,,,,,,,
612b86da38f96808af7bb1da,SCN,2024-06-25_11h40.05.550,LearnStrategy,2023.2.3,Win32,60.24096386,7,1,8,-0.0703125,0.266927083,1,0,0,1.7332,Basalt_09,2,09,5,4,1.733,0.38671875,-0.23828125,1,0,0,1.4282,Gabbro_rect,4,1.428,0,7,0,7,0,1,,,,,,,,,,,,,
612b86da38f96808af7bb1da,SCN,2024-06-25_11h40.05.550,LearnStrategy,2023.2.3,Win32,60.24096386,7,1,9,-0.09375,0.2421875,1,0,0,1.3242,Basalt_09,2,09,5,4,1.324,-0.09375,-0.243489583,1,0,0,2.0615,Basalt_rect,2,2.062,1,8,0,8,0,1,,,,,,,,,,,,,
612b86da38f96808af7bb1da,SCN,2024-06-25_11h40.05.550,LearnStrategy,2023.2.3,Win32,60.24096386,7,1,10,-0.080729167,0.450520833,1,0,0,2.4322,Pegmatite_13,6,13,6,4,2.432,0.1015625,-0.391927083,1,0,0,1.6993,Peridotite_rect,7,1.699,0,9,0,9,0,1,,,,,,,,,,,,,
612b86da38f96808af7bb1da,SCN,2024-06-25_11h40.05.550,LearnStrategy,2023.2.3,Win32,60.24096386,7,1,11,0.184895833,0.266927083,1,0,0,1.5998,Pumice_15,8,15,5,6,1.6,0.08203125,-0.3828125,1,0,0,1.6392,Peridotite_rect,7,1.639,0,10,0,10,0,1,,,,,,,,,,,,,
612b86da38f96808af7bb1da,SCN,2024-06-25_11h40.05.550,LearnStrategy,2023.2.3,Win32,60.24096386,7,1,12,-0.240885417,0.11328125,1,0,0,4.2665,Andesite_11,1,11,4,3,4.266,0.083333333,-0.248697917,1,0,0,1.6754,Diorite_rect,3,1.675,0,11,0,11,0,1,,,,,,,,,,,,,
612b86da38f96808af7bb1da,SCN,2024-06-25_11h40.05.550,LearnStrategy,2023.2.3,Win32,60.24096386,7,1,13,-0.395833333,-0.247395833,1,0,0,2.4178,Diorite_12,3,12,2,2,2.418,0.104166667,-0.256510417,1,0,0,2.2166,Diorite_rect,3,2.217,1,12,0,12,0,1,,,,,,,,,,,,,
612b86da38f96808af7bb1da,SCN,2024-06-25_11h40.05.550,LearnStrategy,2023.2.3,Win32,60.24096386,7,1,14,-0.216145833,-0.407552083,1,0,0,2.961,Pegmatite_10,6,10,1,3,2.961,-0.06640625,-0.416666667,1,0,0,2.4304,Pegmatite_rect,6,2.43,1,13,0,13,0,1,,,,,,,,,,,,,
612b86da38f96808af7bb1da,SCN,2024-06-25_11h40.05.550,LearnStrategy,2023.2.3,Win32,60.24096386,7,1,15,0.548177083,-0.389322917,1,0,0,2.63,Basalt_06,2,06,1,8,2.63,-0.13671875,-0.248697917,1,0,0,1.3729,Basalt_rect,2,1.373,1,14,0,14,0,1,,,,,,,,,,,,,
612b86da38f96808af7bb1da,SCN,2024-06-25_11h40.05.550,LearnStrategy,2023.2.3,Win32,60.24096386,7,1,16,0.235677083,0.079427083,1,0,0,1.8575,Gabbro_14,4,14,4,6,1.857,0.139322917,-0.247395833,1,0,0,1.574,Diorite_rect,3,1.574,0,15,0,15,0,1,,,,,,,,,,,,,
612b86da38f96808af7bb1da,SCN,2024-06-25_11h40.05.550,LearnStrategy,2023.2.3,Win32,60.24096386,7,2,1,,,,,,,,6,05,,,,,,,,,,,6,2.601,1,,,,,,-0.084635417,-0.380208333,1,0,0,2.6006,Pegmatite_rect,0,0,0,0,1,
612b86da38f96808af7bb1da,SCN,2024-06-25_11h40.05.550,LearnStrategy,2023.2.3,Win32,60.24096386,7,2,2,,,,,,,,6,07,,,,,,,,,,,6,1.377,1,,,,,,-0.084635417,-0.380208333,1,0,0,1.3773,Pegmatite_rect,1,0,1,0,1,
612b86da38f96808af7bb1da,SCN,2024-06-25_11h40.05.550,LearnStrategy,2023.2.3,Win32,60.24096386,7,2,3,,,,,,,,7,13,,,,,,,,,,,1,2.916,0,,,,,,-0.352864583,-0.248697917,1,0,0,2.9156,Andesite_rect,2,0,2,0,1,
612b86da38f96808af7bb1da,SCN,2024-06-25_11h40.05.550,LearnStrategy,2023.2.3,Win32,60.24096386,7,2,4,,,,,,,,7,14,,,,,,,,,,,1,1.909,0,,,,,,-0.352864583,-0.248697917,1,0,0,1.9088,Andesite_rect,3,0,3,0,1,
612b86da38f96808af7bb1da,SCN,2024-06-25_11h40.05.550,LearnStrategy,2023.2.3,Win32,60.24096386,7,2,5,,,,,,,,2,04,,,,,,,,,,,2,1.635,1,,,,,,-0.126302083,-0.25390625,1,0,0,1.6352,Basalt_rect,4,0,4,0,1,
612b86da38f96808af7bb1da,SCN,2024-06-25_11h40.05.550,LearnStrategy,2023.2.3,Win32,60.24096386,7,2,6,,,,,,,,1,04,,,,,,,,,,,3,3.051,0,,,,,,0.171875,-0.26171875,1,0,0,3.0514,Diorite_rect,5,0,5,0,1,
612b86da38f96808af7bb1da,SCN,2024-06-25_11h40.05.550,LearnStrategy,2023.2.3,Win32,60.24096386,7,2,7,,,,,,,,8,10,,,,,,,,,,,8,1.539,1,,,,,,0.368489583,-0.38671875,1,0,0,1.539,Pumice_rect,6,0,6,0,1,
612b86da38f96808af7bb1da,SCN,2024-06-25_11h40.05.550,LearnStrategy,2023.2.3,Win32,60.24096386,7,2,8,,,,,,,,8,03,,,,,,,,,,,8,0.774,1,,,,,,0.368489583,-0.38671875,1,0,0,0.7736,Pumice_rect,7,0,7,0,1,
612b86da38f96808af7bb1da,SCN,2024-06-25_11h40.05.550,LearnStrategy,2023.2.3,Win32,60.24096386,7,2,9,,,,,,,,1,02,,,,,,,,,,,6,2.749,0,,,,,,-0.11328125,-0.391927083,1,0,0,2.749,Pegmatite_rect,8,0,8,0,1,
612b86da38f96808af7bb1da,SCN,2024-06-25_11h40.05.550,LearnStrategy,2023.2.3,Win32,60.24096386,7,2,10,,,,,,,,3,14,,,,,,,,,,,3,2.392,1,,,,,,0.075520833,-0.235677083,1,0,0,2.3916,Diorite_rect,9,0,9,0,1,
612b86da38f96808af7bb1da,SCN,2024-06-25_11h40.05.550,LearnStrategy,2023.2.3,Win32,60.24096386,7,2,11,,,,,,,,4,05,,,,,,,,,,,1,3.869,0,,,,,,-0.313802083,-0.251302083,1,0,0,3.8695,Andesite_rect,10,0,10,0,1,
612b86da38f96808af7bb1da,SCN,2024-06-25_11h40.05.550,LearnStrategy,2023.2.3,Win32,60.24096386,7,2,12,,,,,,,,3,13,,,,,,,,,,,3,3.569,1,,,,,,0.154947917,-0.243489583,1,0,0,3.5687,Diorite_rect,11,0,11,0,1,
612b86da38f96808af7bb1da,SCN,2024-06-25_11h40.05.550,LearnStrategy,2023.2.3,Win32,60.24096386,7,2,13,,,,,,,,5,02,,,,,,,,,,,5,1.343,1,,,,,,-0.38671875,-0.420572917,1,0,0,1.3428,Obsidian_rect,12,0,12,0,1,
612b86da38f96808af7bb1da,SCN,2024-06-25_11h40.05.550,LearnStrategy,2023.2.3,Win32,60.24096386,7,2,14,,,,,,,,2,12,,,,,,,,,,,7,3.479,0,,,,,,0.071614583,-0.399739583,1,0,0,3.4787,Peridotite_rect,13,0,13,0,1,
612b86da38f96808af7bb1da,SCN,2024-06-25_11h40.05.550,LearnStrategy,2023.2.3,Win32,60.24096386,7,2,15,,,,,,,,4,09,,,,,,,,,,,2,2.514,0,,,,,,-0.079427083,-0.2578125,1,0,0,2.5143,Basalt_rect,14,0,14,0,1,
612b86da38f96808af7bb1da,SCN,2024-06-25_11h40.05.550,LearnStrategy,2023.2.3,Win32,60.24096386,7,2,16,,,,,,,,5,10,,,,,,,,,,,5,3.795,1,,,,,,-0.369791667,-0.40234375,1,0,0,3.7946,Obsidian_rect,15,0,15,0,1,
612b86da38f96808af7bb1da,SCN,2024-06-25_11h40.05.550,LearnStrategy,2023.2.3,Win32,60.24096386,8,1,1,0.078125,0.3984375,1,0,0,2.9827,Gabbro_13,4,13,6,5,2.983,0.071614583,-0.25390625,1,0,0,1.5561,Diorite_rect,3,1.556,0,0,0,0,0,1,,,,,,,,,,,,,
612b86da38f96808af7bb1da,SCN,2024-06-25_11h40.05.550,LearnStrategy,2023.2.3,Win32,60.24096386,8,1,2,0.09375,0.390625,1,0,0,1.4846,Gabbro_13,4,13,6,5,1.485,0.428385417,-0.239583333,1,0,0,1.3599,Gabbro_rect,4,1.36,1,1,0,1,0,1,,,,,,,,,,,,,
612b86da38f96808af7bb1da,SCN,2024-06-25_11h40.05.550,LearnStrategy,2023.2.3,Win32,60.24096386,8,1,3,0.09375,0.22265625,1,0,0,1.1796,Peridotite_16,7,16,5,5,1.18,-0.31640625,-0.233072917,1,0,0,3.0444,Andesite_rect,1,3.044,0,2,0,2,0,1,,,,,,,,,,,,,
612b86da38f96808af7bb1da,SCN,2024-06-25_11h40.05.550,LearnStrategy,2023.2.3,Win32,60.24096386,8,1,4,0.063802083,0.220052083,1,0,0,1.728,Peridotite_16,7,16,5,5,1.728,0.1015625,-0.40234375,1,0,0,1.3569,Peridotite_rect,7,1.357,1,3,0,3,0,1,,,,,,,,,,,,,
612b86da38f96808af7bb1da,SCN,2024-06-25_11h40.05.550,LearnStrategy,2023.2.3,Win32,60.24096386,8,1,5,0.084635417,0.233072917,1,0,0,3.6012,Peridotite_16,7,16,5,5,3.601,0.154947917,-0.3828125,1,0,0,1.1935,Peridotite_rect,7,1.193,1,4,0,4,0,1,,,,,,,,,,,,,
612b86da38f96808af7bb1da,SCN,2024-06-25_11h40.05.550,LearnStrategy,2023.2.3,Win32,60.24096386,8,1,6,0.076822917,0.109375,1,0,0,1.0754,Andesite_03,1,03,4,5,1.075,-0.108072917,-0.248697917,1,0,0,2.3763,Basalt_rect,2,2.376,0,5,0,5,0,1,,,,,,,,,,,,,
612b86da38f96808af7bb1da,SCN,2024-06-25_11h40.05.550,LearnStrategy,2023.2.3,Win32,60.24096386,8,1,7,0.08203125,0.098958333,1,0,0,1.4649,Andesite_03,1,03,4,5,1.465,-0.42578125,-0.234375,1,0,0,1.0779,Andesite_rect,1,1.078,1,6,0,6,0,1,,,,,,,,,,,,,
612b86da38f96808af7bb1da,SCN,2024-06-25_11h40.05.550,LearnStrategy,2023.2.3,Win32,60.24096386,8,1,8,0.09375,0.147135417,1,0,0,1.1162,Andesite_03,1,03,4,5,1.116,-0.3984375,-0.236979167,1,0,0,0.978,Andesite_rect,1,0.978,1,7,0,7,0,1,,,,,,,,,,,,,
612b86da38f96808af7bb1da,SCN,2024-06-25_11h40.05.550,LearnStrategy,2023.2.3,Win32,60.24096386,8,1,9,0.076822917,0.259114583,1,0,0,1.6816,Peridotite_16,7,16,5,5,1.682,0.169270833,-0.40234375,1,0,0,1.1505,Peridotite_rect,7,1.15,1,8,0,8,0,1,,,,,,,,,,,,,
612b86da38f96808af7bb1da,SCN,2024-06-25_11h40.05.550,LearnStrategy,2023.2.3,Win32,60.24096386,8,1,10,0.25,-0.42578125,1,0,0,4.0165,Diorite_02,3,02,1,6,4.017,0.153645833,-0.26171875,1,0,0,1.7497,Diorite_rect,3,1.75,1,9,0,9,0,1,,,,,,,,,,,,,
612b86da38f96808af7bb1da,SCN,2024-06-25_11h40.05.550,LearnStrategy,2023.2.3,Win32,60.24096386,8,1,11,0.5390625,0.100260417,1,0,0,3.0521,Gabbro_08,4,08,4,8,3.052,0.170572917,-0.381510417,1,0,0,2.019,Peridotite_rect,7,2.019,0,10,0,10,0,1,,,,,,,,,,,,,
612b86da38f96808af7bb1da,SCN,2024-06-25_11h40.05.550,LearnStrategy,2023.2.3,Win32,60.24096386,8,1,12,0.540364583,0.087239583,1,0,0,1.2827,Gabbro_08,4,08,4,8,1.283,0.381510417,-0.23828125,1,0,0,1.0426,Gabbro_rect,4,1.043,1,11,0,11,0,1,,,,,,,,,,,,,
612b86da38f96808af7bb1da,SCN,2024-06-25_11h40.05.550,LearnStrategy,2023.2.3,Win32,60.24096386,8,1,13,0.5703125,0.381510417,1,0,0,2.1329,Andesite_05,1,05,6,8,2.133,0.35546875,-0.2421875,1,0,0,1.6429,Gabbro_rect,4,1.643,0,12,0,12,0,1,,,,,,,,,,,,,
612b86da38f96808af7bb1da,SCN,2024-06-25_11h40.05.550,LearnStrategy,2023.2.3,Win32,60.24096386,8,1,14,0.393229167,0.3984375,1,0,0,1.2474,Peridotite_12,7,12,6,7,1.247,0.17578125,-0.244791667,1,0,0,1.8444,Diorite_rect,3,1.844,0,13,0,13,0,1,,,,,,,,,,,,,
612b86da38f96808af7bb1da,SCN,2024-06-25_11h40.05.550,LearnStrategy,2023.2.3,Win32,60.24096386,8,1,15,0.526041667,0.407552083,1,0,0,1.846,Andesite_05,1,05,6,8,1.846,-0.3359375,-0.24609375,1,0,0,2.6069,Andesite_rect,1,2.607,1,14,0,14,0,1,,,,,,,,,,,,,
612b86da38f96808af7bb1da,SCN,2024-06-25_11h40.05.550,LearnStrategy,2023.2.3,Win32,60.24096386,8,1,16,0.579427083,0.407552083,1,0,0,1.4652,Andesite_05,1,05,6,8,1.465,-0.4375,-0.255208333,1,0,0,1.6405,Andesite_rect,1,1.64,1,15,0,15,0,1,,,,,,,,,,,,,
612b86da38f96808af7bb1da,SCN,2024-06-25_11h40.05.550,LearnStrategy,2023.2.3,Win32,60.24096386,8,2,1,,,,,,,,7,04,,,,,,,,,,,6,2.152,0,,,,,,-0.083333333,-0.3984375,1,0,0,2.1521,Pegmatite_rect,0,0,0,0,1,
612b86da38f96808af7bb1da,SCN,2024-06-25_11h40.05.550,LearnStrategy,2023.2.3,Win32,60.24096386,8,2,2,,,,,,,,6,06,,,,,,,,,,,6,1.015,1,,,,,,-0.083333333,-0.3984375,1,0,0,1.0153,Pegmatite_rect,1,0,1,0,1,
612b86da38f96808af7bb1da,SCN,2024-06-25_11h40.05.550,LearnStrategy,2023.2.3,Win32,60.24096386,8,2,3,,,,,,,,3,11,,,,,,,,,,,3,1.95,1,,,,,,0.098958333,-0.2421875,1,0,0,1.9498,Diorite_rect,2,0,2,0,1,
612b86da38f96808af7bb1da,SCN,2024-06-25_11h40.05.550,LearnStrategy,2023.2.3,Win32,60.24096386,8,2,4,,,,,,,,5,05,,,,,,,,,,,5,2.179,1,,,,,,-0.423177083,-0.3828125,1,0,0,2.1789,Obsidian_rect,3,0,3,0,1,
612b86da38f96808af7bb1da,SCN,2024-06-25_11h40.05.550,LearnStrategy,2023.2.3,Win32,60.24096386,8,2,5,,,,,,,,1,01,,,,,,,,,,,5,0.474,0,,,,,,-0.423177083,-0.3828125,1,0,0,0.4739,Obsidian_rect,4,0,4,0,1,
612b86da38f96808af7bb1da,SCN,2024-06-25_11h40.05.550,LearnStrategy,2023.2.3,Win32,60.24096386,8,2,6,,,,,,,,2,02,,,,,,,,,,,2,1.439,1,,,,,,-0.2109375,-0.244791667,1,0,0,1.439,Basalt_rect,5,0,5,0,1,
612b86da38f96808af7bb1da,SCN,2024-06-25_11h40.05.550,LearnStrategy,2023.2.3,Win32,60.24096386,8,2,7,,,,,,,,1,07,,,,,,,,,,,3,1.579,0,,,,,,0.0390625,-0.256510417,1,0,0,1.5795,Diorite_rect,6,0,6,0,1,
612b86da38f96808af7bb1da,SCN,2024-06-25_11h40.05.550,LearnStrategy,2023.2.3,Win32,60.24096386,8,2,8,,,,,,,,8,04,,,,,,,,,,,8,1.384,1,,,,,,0.369791667,-0.39453125,1,0,0,1.3839,Pumice_rect,7,0,7,0,1,
612b86da38f96808af7bb1da,SCN,2024-06-25_11h40.05.550,LearnStrategy,2023.2.3,Win32,60.24096386,8,2,9,,,,,,,,4,11,,,,,,,,,,,2,1.814,0,,,,,,-0.061197917,-0.233072917,1,0,0,1.8143,Basalt_rect,8,0,8,0,1,
612b86da38f96808af7bb1da,SCN,2024-06-25_11h40.05.550,LearnStrategy,2023.2.3,Win32,60.24096386,8,2,10,,,,,,,,8,13,,,,,,,,,,,8,1.349,1,,,,,,0.450520833,-0.407552083,1,0,0,1.3492,Pumice_rect,9,0,9,0,1,
612b86da38f96808af7bb1da,SCN,2024-06-25_11h40.05.550,LearnStrategy,2023.2.3,Win32,60.24096386,8,2,11,,,,,,,,7,05,,,,,,,,,,,7,2.136,1,,,,,,0.140625,-0.404947917,1,0,0,2.1358,Peridotite_rect,10,0,10,0,1,
612b86da38f96808af7bb1da,SCN,2024-06-25_11h40.05.550,LearnStrategy,2023.2.3,Win32,60.24096386,8,2,12,,,,,,,,5,07,,,,,,,,,,,5,1.542,1,,,,,,-0.408854167,-0.3984375,1,0,0,1.5418,Obsidian_rect,11,0,11,0,1,
612b86da38f96808af7bb1da,SCN,2024-06-25_11h40.05.550,LearnStrategy,2023.2.3,Win32,60.24096386,8,2,13,,,,,,,,3,08,,,,,,,,,,,3,1.579,1,,,,,,0.119791667,-0.23046875,1,0,0,1.5795,Diorite_rect,12,0,12,0,1,
612b86da38f96808af7bb1da,SCN,2024-06-25_11h40.05.550,LearnStrategy,2023.2.3,Win32,60.24096386,8,2,14,,,,,,,,6,09,,,,,,,,,,,6,2.365,1,,,,,,-0.126302083,-0.395833333,1,0,0,2.365,Pegmatite_rect,13,0,13,0,1,
612b86da38f96808af7bb1da,SCN,2024-06-25_11h40.05.550,LearnStrategy,2023.2.3,Win32,60.24096386,8,2,15,,,,,,,,4,15,,,,,,,,,,,3,2.137,0,,,,,,0.114583333,-0.243489583,1,0,0,2.1373,Diorite_rect,14,0,14,0,1,
612b86da38f96808af7bb1da,SCN,2024-06-25_11h40.05.550,LearnStrategy,2023.2.3,Win32,60.24096386,8,2,16,,,,,,,,2,11,,,,,,,,,,,8,2.356,0,,,,,,0.3359375,-0.388020833,1,0,0,2.3563,Pumice_rect,15,0,15,0,1,
612b86da38f96808af7bb1da,SCN,2024-06-25_11h40.05.550,LearnStrategy,2023.2.3,Win32,60.24096386,9,1,1,-0.22265625,0.092447917,1,0,0,1.2333,Andesite_11,1,11,4,3,1.233,-0.3515625,-0.252604167,1,0,0,1.2896,Andesite_rect,1,1.29,1,0,0,0,0,1,,,,,,,,,,,,,
612b86da38f96808af7bb1da,SCN,2024-06-25_11h40.05.550,LearnStrategy,2023.2.3,Win32,60.24096386,9,1,2,-0.537760417,0.26171875,1,0,0,1.6283,Diorite_10,3,10,5,1,1.628,-0.348958333,-0.233072917,1,0,0,1.1443,Andesite_rect,1,1.144,0,1,0,1,0,1,,,,,,,,,,,,,
612b86da38f96808af7bb1da,SCN,2024-06-25_11h40.05.550,LearnStrategy,2023.2.3,Win32,60.24096386,9,1,3,-0.046875,-0.256510417,1,0,0,1.9499,Pegmatite_12,6,12,2,4,1.95,-0.350260417,-0.231770833,1,0,0,1.5548,Andesite_rect,1,1.555,0,2,0,2,0,1,,,,,,,,,,,,,
612b86da38f96808af7bb1da,SCN,2024-06-25_11h40.05.550,LearnStrategy,2023.2.3,Win32,60.24096386,9,1,4,-0.084635417,-0.233072917,1,0,0,1.0813,Pegmatite_12,6,12,2,4,1.081,-0.166666667,-0.390625,1,0,0,0.8996,Pegmatite_rect,6,0.9,1,3,0,3,0,1,,,,,,,,,,,,,
612b86da38f96808af7bb1da,SCN,2024-06-25_11h40.05.550,LearnStrategy,2023.2.3,Win32,60.24096386,9,1,5,-0.087239583,-0.256510417,1,0,0,1.3497,Pegmatite_12,6,12,2,4,1.35,-0.16015625,-0.41015625,1,0,0,1.1798,Pegmatite_rect,6,1.18,1,4,0,4,0,1,,,,,,,,,,,,,
612b86da38f96808af7bb1da,SCN,2024-06-25_11h40.05.550,LearnStrategy,2023.2.3,Win32,60.24096386,9,1,6,0.080729167,-0.08984375,1,0,0,1.1149,Basalt_01,2,01,3,5,1.115,-0.083333333,-0.24609375,1,0,0,2.1854,Basalt_rect,2,2.185,1,5,0,5,0,1,,,,,,,,,,,,,
612b86da38f96808af7bb1da,SCN,2024-06-25_11h40.05.550,LearnStrategy,2023.2.3,Win32,60.24096386,9,1,7,0.229166667,-0.102864583,1,0,0,1.4493,Pumice_16,8,16,3,6,1.449,0.361979167,-0.416666667,1,0,0,1.7342,Pumice_rect,8,1.734,1,6,0,6,0,1,,,,,,,,,,,,,
612b86da38f96808af7bb1da,SCN,2024-06-25_11h40.05.550,LearnStrategy,2023.2.3,Win32,60.24096386,9,1,8,0.541666667,0.080729167,1,0,0,1.9826,Gabbro_08,4,08,4,8,1.983,0.391927083,-0.244791667,1,0,0,1.3243,Gabbro_rect,4,1.324,1,7,0,7,0,1,,,,,,,,,,,,,
612b86da38f96808af7bb1da,SCN,2024-06-25_11h40.05.550,LearnStrategy,2023.2.3,Win32,60.24096386,9,1,9,0.381510417,0.385416667,1,0,0,1.35,Peridotite_12,7,12,6,7,1.35,0.12109375,-0.239583333,1,0,0,2.8632,Diorite_rect,3,2.863,0,8,0,8,0,1,,,,,,,,,,,,,
612b86da38f96808af7bb1da,SCN,2024-06-25_11h40.05.550,LearnStrategy,2023.2.3,Win32,60.24096386,9,1,10,0.404947917,0.40234375,1,0,0,1.8844,Peridotite_12,7,12,6,7,1.884,0.15625,-0.380208333,1,0,0,1.4512,Peridotite_rect,7,1.451,1,9,0,9,0,1,,,,,,,,,,,,,
612b86da38f96808af7bb1da,SCN,2024-06-25_11h40.05.550,LearnStrategy,2023.2.3,Win32,60.24096386,9,1,11,0.393229167,0.389322917,1,0,0,2.3316,Peridotite_12,7,12,6,7,2.332,0.131510417,-0.404947917,1,0,0,2.2298,Peridotite_rect,7,2.23,1,10,0,10,0,1,,,,,,,,,,,,,
612b86da38f96808af7bb1da,SCN,2024-06-25_11h40.05.550,LearnStrategy,2023.2.3,Win32,60.24096386,9,1,12,0.255208333,0.415364583,1,0,0,1.6309,Peridotite_06,7,06,6,6,1.631,0.052083333,-0.260416667,1,0,0,2.5584,Diorite_rect,3,2.558,0,11,0,11,0,1,,,,,,,,,,,,,
612b86da38f96808af7bb1da,SCN,2024-06-25_11h40.05.550,LearnStrategy,2023.2.3,Win32,60.24096386,9,1,13,-0.227864583,0.2265625,1,0,0,1.9002,Peridotite_15,7,15,5,3,1.9,0.083333333,-0.252604167,1,0,0,1.7003,Diorite_rect,3,1.7,0,12,0,12,0,1,,,,,,,,,,,,,
612b86da38f96808af7bb1da,SCN,2024-06-25_11h40.05.550,LearnStrategy,2023.2.3,Win32,60.24096386,9,1,14,-0.20703125,0.236979167,1,0,0,2.1994,Peridotite_15,7,15,5,3,2.199,0.127604167,-0.2578125,1,0,0,1.5933,Diorite_rect,3,1.593,0,13,0,13,0,1,,,,,,,,,,,,,
612b86da38f96808af7bb1da,SCN,2024-06-25_11h40.05.550,LearnStrategy,2023.2.3,Win32,60.24096386,9,1,15,-0.23828125,0.2265625,1,0,0,1.4379,Peridotite_15,7,15,5,3,1.438,0.095052083,-0.39453125,1,0,0,1.292,Peridotite_rect,7,1.292,1,14,0,14,0,1,,,,,,,,,,,,,
612b86da38f96808af7bb1da,SCN,2024-06-25_11h40.05.550,LearnStrategy,2023.2.3,Win32,60.24096386,9,1,16,-0.25390625,0.247395833,1,0,0,1.3486,Peridotite_15,7,15,5,3,1.349,0.106770833,-0.401041667,1,0,0,1.2042,Peridotite_rect,7,1.204,1,15,0,15,0,1,,,,,,,,,,,,,
612b86da38f96808af7bb1da,SCN,2024-06-25_11h40.05.550,LearnStrategy,2023.2.3,Win32,60.24096386,9,2,1,,,,,,,,6,11,,,,,,,,,,,6,2.691,1,,,,,,-0.166666667,-0.399739583,1,0,0,2.6914,Pegmatite_rect,0,0,0,0,1,
612b86da38f96808af7bb1da,SCN,2024-06-25_11h40.05.550,LearnStrategy,2023.2.3,Win32,60.24096386,9,2,2,,,,,,,,1,06,,,,,,,,,,,1,2.938,1,,,,,,-0.309895833,-0.259114583,1,0,0,2.9382,Andesite_rect,1,0,1,0,1,
612b86da38f96808af7bb1da,SCN,2024-06-25_11h40.05.550,LearnStrategy,2023.2.3,Win32,60.24096386,9,2,3,,,,,,,,8,09,,,,,,,,,,,8,1.604,1,,,,,,0.458333333,-0.404947917,1,0,0,1.6037,Pumice_rect,2,0,2,0,1,
612b86da38f96808af7bb1da,SCN,2024-06-25_11h40.05.550,LearnStrategy,2023.2.3,Win32,60.24096386,9,2,4,,,,,,,,6,03,,,,,,,,,,,6,3.482,1,,,,,,-0.065104167,-0.389322917,1,0,0,3.482,Pegmatite_rect,3,0,3,0,1,
612b86da38f96808af7bb1da,SCN,2024-06-25_11h40.05.550,LearnStrategy,2023.2.3,Win32,60.24096386,9,2,5,,,,,,,,1,09,,,,,,,,,,,2,1.441,0,,,,,,-0.072916667,-0.23828125,1,0,0,1.4412,Basalt_rect,4,0,4,0,1,
612b86da38f96808af7bb1da,SCN,2024-06-25_11h40.05.550,LearnStrategy,2023.2.3,Win32,60.24096386,9,2,6,,,,,,,,5,14,,,,,,,,,,,5,1.601,1,,,,,,-0.38671875,-0.381510417,1,0,0,1.6007,Obsidian_rect,5,0,5,0,1,
612b86da38f96808af7bb1da,SCN,2024-06-25_11h40.05.550,LearnStrategy,2023.2.3,Win32,60.24096386,9,2,7,,,,,,,,4,03,,,,,,,,,,,1,2.843,0,,,,,,-0.407552083,-0.240885417,1,0,0,2.8429,Andesite_rect,6,0,6,0,1,
612b86da38f96808af7bb1da,SCN,2024-06-25_11h40.05.550,LearnStrategy,2023.2.3,Win32,60.24096386,9,2,8,,,,,,,,2,08,,,,,,,,,,,2,3.188,1,,,,,,-0.106770833,-0.247395833,1,0,0,3.1881,Basalt_rect,7,0,7,0,1,
612b86da38f96808af7bb1da,SCN,2024-06-25_11h40.05.550,LearnStrategy,2023.2.3,Win32,60.24096386,9,2,9,,,,,,,,5,06,,,,,,,,,,,5,2.623,1,,,,,,-0.350260417,-0.3984375,1,0,0,2.6226,Obsidian_rect,8,0,8,0,1,
612b86da38f96808af7bb1da,SCN,2024-06-25_11h40.05.550,LearnStrategy,2023.2.3,Win32,60.24096386,9,2,10,,,,,,,,3,07,,,,,,,,,,,3,1.774,1,,,,,,0.11328125,-0.263020833,1,0,0,1.7744,Diorite_rect,9,0,9,0,1,
612b86da38f96808af7bb1da,SCN,2024-06-25_11h40.05.550,LearnStrategy,2023.2.3,Win32,60.24096386,9,2,11,,,,,,,,3,09,,,,,,,,,,,3,1.916,1,,,,,,0.11328125,-0.263020833,1,0,0,1.9161,Diorite_rect,10,0,10,0,1,
612b86da38f96808af7bb1da,SCN,2024-06-25_11h40.05.550,LearnStrategy,2023.2.3,Win32,60.24096386,9,2,12,,,,,,,,7,02,,,,,,,,,,,7,2.385,1,,,,,,0.084635417,-0.389322917,1,0,0,2.385,Peridotite_rect,11,0,11,0,1,
612b86da38f96808af7bb1da,SCN,2024-06-25_11h40.05.550,LearnStrategy,2023.2.3,Win32,60.24096386,9,2,13,,,,,,,,2,14,,,,,,,,,,,8,1.942,0,,,,,,0.34765625,-0.390625,1,0,0,1.9415,Pumice_rect,12,0,12,0,1,
612b86da38f96808af7bb1da,SCN,2024-06-25_11h40.05.550,LearnStrategy,2023.2.3,Win32,60.24096386,9,2,14,,,,,,,,7,10,,,,,,,,,,,7,2.601,1,,,,,,0.08984375,-0.403645833,1,0,0,2.6011,Peridotite_rect,13,0,13,0,1,
612b86da38f96808af7bb1da,SCN,2024-06-25_11h40.05.550,LearnStrategy,2023.2.3,Win32,60.24096386,9,2,15,,,,,,,,4,01,,,,,,,,,,,4,5.439,1,,,,,,0.39453125,-0.25390625,1,0,0,5.439,Gabbro_rect,14,0,14,0,1,
612b86da38f96808af7bb1da,SCN,2024-06-25_11h40.05.550,LearnStrategy,2023.2.3,Win32,60.24096386,9,2,16,,,,,,,,8,06,,,,,,,,,,,8,1.428,1,,,,,,0.368489583,-0.385416667,1,0,0,1.4285,Pumice_rect,15,0,15,0,1,
612b86da38f96808af7bb1da,SCN,2024-06-25_11h40.05.550,LearnStrategy,2023.2.3,Win32,60.24096386,,,,,,,,,,,,,,,,,,,,,,,,,,,,,,,,,,,,,,,,,,,1
612b86da38f96808af7bb1da,SCN,2024-06-25_11h40.05.550,LearnStrategy,2023.2.3,Win32,60.24096386,,,,,,,,,,,,,,,,,,,,,,,,,,,,,,,,,,,,,,,,,,,
612b86da38f96808af7bb1da,SCN,2024-06-25_11h40.05.550,LearnStrategy,2023.2.3,Win32,60.24096386,,,,,,,,,,,1,14,1,1,,,,,,,,,,,,,,,,,,,,,,,,,,,,,
612b86da38f96808af7bb1da,SCN,2024-06-25_11h40.05.550,LearnStrategy,2023.2.3,Win32,60.24096386,,,,,,,,,,,7,07,1,2,,,,,,,,,,,,,,,,,,,,,,,,,,,,,
612b86da38f96808af7bb1da,SCN,2024-06-25_11h40.05.550,LearnStrategy,2023.2.3,Win32,60.24096386,,,,,,,,,,,6,10,1,3,,,,,,,,,,,,,,,,,,,,,,,,,,,,,
612b86da38f96808af7bb1da,SCN,2024-06-25_11h40.05.550,LearnStrategy,2023.2.3,Win32,60.24096386,,,,,,,,,,,4,16,1,4,,,,,,,,,,,,,,,,,,,,,,,,,,,,,
612b86da38f96808af7bb1da,SCN,2024-06-25_11h40.05.550,LearnStrategy,2023.2.3,Win32,60.24096386,,,,,,,,,,,2,16,1,5,,,,,,,,,,,,,,,,,,,,,,,,,,,,,
612b86da38f96808af7bb1da,SCN,2024-06-25_11h40.05.550,LearnStrategy,2023.2.3,Win32,60.24096386,,,,,,,,,,,3,02,1,6,,,,,,,,,,,,,,,,,,,,,,,,,,,,,
612b86da38f96808af7bb1da,SCN,2024-06-25_11h40.05.550,LearnStrategy,2023.2.3,Win32,60.24096386,,,,,,,,,,,2,05,1,7,,,,,,,,,,,,,,,,,,,,,,,,,,,,,
612b86da38f96808af7bb1da,SCN,2024-06-25_11h40.05.550,LearnStrategy,2023.2.3,Win32,60.24096386,,,,,,,,,,,2,06,1,8,,,,,,,,,,,,,,,,,,,,,,,,,,,,,
612b86da38f96808af7bb1da,SCN,2024-06-25_11h40.05.550,LearnStrategy,2023.2.3,Win32,60.24096386,,,,,,,,,,,4,10,2,1,,,,,,,,,,,,,,,,,,,,,,,,,,,,,
612b86da38f96808af7bb1da,SCN,2024-06-25_11h40.05.550,LearnStrategy,2023.2.3,Win32,60.24096386,,,,,,,,,,,3,12,2,2,,,,,,,,,,,,,,,,,,,,,,,,,,,,,
612b86da38f96808af7bb1da,SCN,2024-06-25_11h40.05.550,LearnStrategy,2023.2.3,Win32,60.24096386,,,,,,,,,,,3,15,2,3,,,,,,,,,,,,,,,,,,,,,,,,,,,,,
612b86da38f96808af7bb1da,SCN,2024-06-25_11h40.05.550,LearnStrategy,2023.2.3,Win32,60.24096386,,,,,,,,,,,6,12,2,4,,,,,,,,,,,,,,,,,,,,,,,,,,,,,
612b86da38f96808af7bb1da,SCN,2024-06-25_11h40.05.550,LearnStrategy,2023.2.3,Win32,60.24096386,,,,,,,,,,,7,08,2,5,,,,,,,,,,,,,,,,,,,,,,,,,,,,,
612b86da38f96808af7bb1da,SCN,2024-06-25_11h40.05.550,LearnStrategy,2023.2.3,Win32,60.24096386,,,,,,,,,,,1,10,2,6,,,,,,,,,,,,,,,,,,,,,,,,,,,,,
612b86da38f96808af7bb1da,SCN,2024-06-25_11h40.05.550,LearnStrategy,2023.2.3,Win32,60.24096386,,,,,,,,,,,5,09,2,7,,,,,,,,,,,,,,,,,,,,,,,,,,,,,
612b86da38f96808af7bb1da,SCN,2024-06-25_11h40.05.550,LearnStrategy,2023.2.3,Win32,60.24096386,,,,,,,,,,,5,04,2,8,,,,,,,,,,,,,,,,,,,,,,,,,,,,,
612b86da38f96808af7bb1da,SCN,2024-06-25_11h40.05.550,LearnStrategy,2023.2.3,Win32,60.24096386,,,,,,,,,,,1,16,3,1,,,,,,,,,,,,,,,,,,,,,,,,,,,,,
612b86da38f96808af7bb1da,SCN,2024-06-25_11h40.05.550,LearnStrategy,2023.2.3,Win32,60.24096386,,,,,,,,,,,8,05,3,2,,,,,,,,,,,,,,,,,,,,,,,,,,,,,
612b86da38f96808af7bb1da,SCN,2024-06-25_11h40.05.550,LearnStrategy,2023.2.3,Win32,60.24096386,,,,,,,,,,,6,08,3,3,,,,,,,,,,,,,,,,,,,,,,,,,,,,,
612b86da38f96808af7bb1da,SCN,2024-06-25_11h40.05.550,LearnStrategy,2023.2.3,Win32,60.24096386,,,,,,,,,,,8,02,3,4,,,,,,,,,,,,,,,,,,,,,,,,,,,,,
612b86da38f96808af7bb1da,SCN,2024-06-25_11h40.05.550,LearnStrategy,2023.2.3,Win32,60.24096386,,,,,,,,,,,2,01,3,5,,,,,,,,,,,,,,,,,,,,,,,,,,,,,
612b86da38f96808af7bb1da,SCN,2024-06-25_11h40.05.550,LearnStrategy,2023.2.3,Win32,60.24096386,,,,,,,,,,,8,16,3,6,,,,,,,,,,,,,,,,,,,,,,,,,,,,,
612b86da38f96808af7bb1da,SCN,2024-06-25_11h40.05.550,LearnStrategy,2023.2.3,Win32,60.24096386,,,,,,,,,,,3,06,3,7,,,,,,,,,,,,,,,,,,,,,,,,,,,,,
612b86da38f96808af7bb1da,SCN,2024-06-25_11h40.05.550,LearnStrategy,2023.2.3,Win32,60.24096386,,,,,,,,,,,4,12,3,8,,,,,,,,,,,,,,,,,,,,,,,,,,,,,
612b86da38f96808af7bb1da,SCN,2024-06-25_11h40.05.550,LearnStrategy,2023.2.3,Win32,60.24096386,,,,,,,,,,,6,16,4,1,,,,,,,,,,,,,,,,,,,,,,,,,,,,,
612b86da38f96808af7bb1da,SCN,2024-06-25_11h40.05.550,LearnStrategy,2023.2.3,Win32,60.24096386,,,,,,,,,,,5,16,4,2,,,,,,,,,,,,,,,,,,,,,,,,,,,,,
612b86da38f96808af7bb1da,SCN,2024-06-25_11h40.05.550,LearnStrategy,2023.2.3,Win32,60.24096386,,,,,,,,,,,1,11,4,3,,,,,,,,,,,,,,,,,,,,,,,,,,,,,
612b86da38f96808af7bb1da,SCN,2024-06-25_11h40.05.550,LearnStrategy,2023.2.3,Win32,60.24096386,,,,,,,,,,,2,10,4,4,,,,,,,,,,,,,,,,,,,,,,,,,,,,,
612b86da38f96808af7bb1da,SCN,2024-06-25_11h40.05.550,LearnStrategy,2023.2.3,Win32,60.24096386,,,,,,,,,,,1,03,4,5,,,,,,,,,,,,,,,,,,,,,,,,,,,,,
612b86da38f96808af7bb1da,SCN,2024-06-25_11h40.05.550,LearnStrategy,2023.2.3,Win32,60.24096386,,,,,,,,,,,4,14,4,6,,,,,,,,,,,,,,,,,,,,,,,,,,,,,
612b86da38f96808af7bb1da,SCN,2024-06-25_11h40.05.550,LearnStrategy,2023.2.3,Win32,60.24096386,,,,,,,,,,,8,14,4,7,,,,,,,,,,,,,,,,,,,,,,,,,,,,,
612b86da38f96808af7bb1da,SCN,2024-06-25_11h40.05.550,LearnStrategy,2023.2.3,Win32,60.24096386,,,,,,,,,,,4,08,4,8,,,,,,,,,,,,,,,,,,,,,,,,,,,,,
612b86da38f96808af7bb1da,SCN,2024-06-25_11h40.05.550,LearnStrategy,2023.2.3,Win32,60.24096386,,,,,,,,,,,3,10,5,1,,,,,,,,,,,,,,,,,,,,,,,,,,,,,
612b86da38f96808af7bb1da,SCN,2024-06-25_11h40.05.550,LearnStrategy,2023.2.3,Win32,60.24096386,,,,,,,,,,,8,08,5,2,,,,,,,,,,,,,,,,,,,,,,,,,,,,,
612b86da38f96808af7bb1da,SCN,2024-06-25_11h40.05.550,LearnStrategy,2023.2.3,Win32,60.24096386,,,,,,,,,,,7,15,5,3,,,,,,,,,,,,,,,,,,,,,,,,,,,,,
612b86da38f96808af7bb1da,SCN,2024-06-25_11h40.05.550,LearnStrategy,2023.2.3,Win32,60.24096386,,,,,,,,,,,2,09,5,4,,,,,,,,,,,,,,,,,,,,,,,,,,,,,
612b86da38f96808af7bb1da,SCN,2024-06-25_11h40.05.550,LearnStrategy,2023.2.3,Win32,60.24096386,,,,,,,,,,,7,16,5,5,,,,,,,,,,,,,,,,,,,,,,,,,,,,,
612b86da38f96808af7bb1da,SCN,2024-06-25_11h40.05.550,LearnStrategy,2023.2.3,Win32,60.24096386,,,,,,,,,,,8,15,5,6,,,,,,,,,,,,,,,,,,,,,,,,,,,,,
612b86da38f96808af7bb1da,SCN,2024-06-25_11h40.05.550,LearnStrategy,2023.2.3,Win32,60.24096386,,,,,,,,,,,5,08,5,7,,,,,,,,,,,,,,,,,,,,,,,,,,,,,
612b86da38f96808af7bb1da,SCN,2024-06-25_11h40.05.550,LearnStrategy,2023.2.3,Win32,60.24096386,,,,,,,,,,,5,12,5,8,,,,,,,,,,,,,,,,,,,,,,,,,,,,,
612b86da38f96808af7bb1da,SCN,2024-06-25_11h40.05.550,LearnStrategy,2023.2.3,Win32,60.24096386,,,,,,,,,,,3,16,6,1,,,,,,,,,,,,,,,,,,,,,,,,,,,,,
612b86da38f96808af7bb1da,SCN,2024-06-25_11h40.05.550,LearnStrategy,2023.2.3,Win32,60.24096386,,,,,,,,,,,6,15,6,2,,,,,,,,,,,,,,,,,,,,,,,,,,,,,
612b86da38f96808af7bb1da,SCN,2024-06-25_11h40.05.550,LearnStrategy,2023.2.3,Win32,60.24096386,,,,,,,,,,,5,11,6,3,,,,,,,,,,,,,,,,,,,,,,,,,,,,,
612b86da38f96808af7bb1da,SCN,2024-06-25_11h40.05.550,LearnStrategy,2023.2.3,Win32,60.24096386,,,,,,,,,,,6,13,6,4,,,,,,,,,,,,,,,,,,,,,,,,,,,,,
612b86da38f96808af7bb1da,SCN,2024-06-25_11h40.05.550,LearnStrategy,2023.2.3,Win32,60.24096386,,,,,,,,,,,4,13,6,5,,,,,,,,,,,,,,,,,,,,,,,,,,,,,
612b86da38f96808af7bb1da,SCN,2024-06-25_11h40.05.550,LearnStrategy,2023.2.3,Win32,60.24096386,,,,,,,,,,,7,06,6,6,,,,,,,,,,,,,,,,,,,,,,,,,,,,,
612b86da38f96808af7bb1da,SCN,2024-06-25_11h40.05.550,LearnStrategy,2023.2.3,Win32,60.24096386,,,,,,,,,,,7,12,6,7,,,,,,,,,,,,,,,,,,,,,,,,,,,,,
612b86da38f96808af7bb1da,SCN,2024-06-25_11h40.05.550,LearnStrategy,2023.2.3,Win32,60.24096386,,,,,,,,,,,1,05,6,8,,,,,,,,,,,,,,,,,,,,,,,,,,,,,