participant,condition,date,expName,psychopyVersion,OS,frameRate,block,phase,trial,learn_mouse_2.x,learn_mouse_2.y,learn_mouse_2.leftButton,learn_mouse_2.midButton,learn_mouse_2.rightButton,learn_mouse_2.time,learn_mouse_2.clicked_name,cat,token,row,col,t_select,cat_mouse_l.x,cat_mouse_l.y,cat_mouse_l.leftButton,cat_mouse_l.midButton,cat_mouse_l.rightButton,cat_mouse_l.time,cat_mouse_l.clicked_name,resp,t_resp,corr,train_trials.thisRepN,train_trials.thisTrialN,train_trials.thisN,train_trials.thisIndex,train_trials.ran,cat_mouse_t.x,cat_mouse_t.y,cat_mouse_t.leftButton,cat_mouse_t.midButton,cat_mouse_t.rightButton,cat_mouse_t.time,cat_mouse_t.clicked_name,test_trials.thisRepN,test_trials.thisTrialN,test_trials.thisN,test_trials.thisIndex,test_trials.ran,Bonus
6132542039ead71f30971bd6,TCN,2024-06-11_14h55.29.142,LearnStrategy,2023.2.3,Win32,59.88023952,,,,,,,,,,,,,,,,,,,,,,,,,,,,,,,,,,,,,,,,,,,
6132542039ead71f30971bd6,TCN,2024-06-11_14h55.29.142,LearnStrategy,2023.2.3,Win32,59.88023952,1,1,1,-0.003703718,0.003703683,1,0,0,1.229,rock_grid_rect_2,2,11,-1,-1,1.229,0.380555612,-0.262037065,1,0,0,2.0799,Gabbro_rect,4,2.08,0,0,0,0,0,1,,,,,,,,,,,,,
6132542039ead71f30971bd6,TCN,2024-06-11_14h55.29.142,LearnStrategy,2023.2.3,Win32,59.88023952,1,1,2,-0.012962977,-0.005555577,1,0,0,0.9073,rock_grid_rect_2,6,11,-1,-1,0.907,0.404629601,-0.412037037,1,0,0,1.1433,Pumice_rect,8,1.143,0,1,0,1,0,1,,,,,,,,,,,,,
6132542039ead71f30971bd6,TCN,2024-06-11_14h55.29.142,LearnStrategy,2023.2.3,Win32,59.88023952,1,1,3,-0.041666667,0,1,0,0,1.3632,rock_grid_rect_2,8,16,-1,-1,1.363,0.396296325,-0.406481496,1,0,0,1.2422,Pumice_rect,8,1.242,1,2,0,2,0,1,,,,,,,,,,,,,
6132542039ead71f30971bd6,TCN,2024-06-11_14h55.29.142,LearnStrategy,2023.2.3,Win32,59.88023952,1,1,4,-0.037037037,-0.002777771,1,0,0,1.3819,rock_grid_rect_2,8,05,-1,-1,1.382,0.393518519,-0.244444459,1,0,0,1.0257,Gabbro_rect,4,1.026,0,3,0,3,0,1,,,,,,,,,,,,,
6132542039ead71f30971bd6,TCN,2024-06-11_14h55.29.142,LearnStrategy,2023.2.3,Win32,59.88023952,1,1,5,-0.001851824,0.009259259,1,0,0,1.0647,rock_grid_rect_2,6,07,-1,-1,1.065,0.329629686,-0.261111153,1,0,0,1.3782,Gabbro_rect,4,1.378,0,4,0,4,0,1,,,,,,,,,,,,,
6132542039ead71f30971bd6,TCN,2024-06-11_14h55.29.142,LearnStrategy,2023.2.3,Win32,59.88023952,1,1,6,0.005555541,0.014814801,1,0,0,0.764,rock_grid_rect_2,1,01,-1,-1,0.764,0.082407422,-0.397222236,1,0,0,1.2078,Peridotite_rect,7,1.208,0,5,0,5,0,1,,,,,,,,,,,,,
6132542039ead71f30971bd6,TCN,2024-06-11_14h55.29.142,LearnStrategy,2023.2.3,Win32,59.88023952,1,1,7,-0.064814815,-0.005555577,1,0,0,0.8469,rock_grid_rect_2,4,12,-1,-1,0.847,-0.128703718,-0.266666695,1,0,0,1.128,Basalt_rect,2,1.128,0,6,0,6,0,1,,,,,,,,,,,,,
6132542039ead71f30971bd6,TCN,2024-06-11_14h55.29.142,LearnStrategy,2023.2.3,Win32,59.88023952,1,1,8,-0.003703718,-0.005555577,1,0,0,0.7497,rock_grid_rect_2,2,02,-1,-1,0.75,0.398148148,-0.25462963,1,0,0,1.7927,Gabbro_rect,4,1.793,0,7,0,7,0,1,,,,,,,,,,,,,
6132542039ead71f30971bd6,TCN,2024-06-11_14h55.29.142,LearnStrategy,2023.2.3,Win32,59.88023952,1,1,9,-0.036111125,0.012962942,1,0,0,0.797,rock_grid_rect_2,5,07,-1,-1,0.797,-0.422222208,-0.387037065,1,0,0,0.9766,Obsidian_rect,5,0.977,1,8,0,8,0,1,,,,,,,,,,,,,
6132542039ead71f30971bd6,TCN,2024-06-11_14h55.29.142,LearnStrategy,2023.2.3,Win32,59.88023952,1,1,10,0.025000042,0.006481489,1,0,0,0.9482,rock_grid_rect_2,3,09,-1,-1,0.948,-0.102777764,-0.256481524,1,0,0,0.8941,Basalt_rect,2,0.894,0,9,0,9,0,1,,,,,,,,,,,,,
6132542039ead71f30971bd6,TCN,2024-06-11_14h55.29.142,LearnStrategy,2023.2.3,Win32,59.88023952,1,1,11,0.043518561,-0.005555577,1,0,0,1.2648,rock_grid_rect_2,5,12,-1,-1,1.265,-0.372222229,-0.420370384,1,0,0,1.1268,Obsidian_rect,5,1.127,1,10,0,10,0,1,,,,,,,,,,,,,
6132542039ead71f30971bd6,TCN,2024-06-11_14h55.29.142,LearnStrategy,2023.2.3,Win32,59.88023952,1,1,12,-0.020370342,-0.008333347,1,0,0,0.7994,rock_grid_rect_2,3,11,-1,-1,0.799,0.119444459,-0.37962963,1,0,0,0.8244,Peridotite_rect,7,0.824,0,11,0,11,0,1,,,,,,,,,,,,,
6132542039ead71f30971bd6,TCN,2024-06-11_14h55.29.142,LearnStrategy,2023.2.3,Win32,59.88023952,1,1,13,-0.007407365,0.009259259,1,0,0,0.8147,rock_grid_rect_2,1,06,-1,-1,0.815,-0.080555527,-0.388888889,1,0,0,0.7587,Pegmatite_rect,6,0.759,0,12,0,12,0,1,,,,,,,,,,,,,
6132542039ead71f30971bd6,TCN,2024-06-11_14h55.29.142,LearnStrategy,2023.2.3,Win32,59.88023952,1,1,14,-0.006481453,-0.005555577,1,0,0,0.8981,rock_grid_rect_2,7,06,-1,-1,0.898,0.080555598,-0.395370413,1,0,0,2.915,Peridotite_rect,7,2.915,1,13,0,13,0,1,,,,,,,,,,,,,
6132542039ead71f30971bd6,TCN,2024-06-11_14h55.29.142,LearnStrategy,2023.2.3,Win32,59.88023952,1,1,15,0.001851894,-0.003703718,1,0,0,0.881,rock_grid_rect_2,7,15,-1,-1,0.881,-0.102777764,-0.37962963,1,0,0,0.8264,Pegmatite_rect,6,0.826,0,14,0,14,0,1,,,,,,,,,,,,,
6132542039ead71f30971bd6,TCN,2024-06-11_14h55.29.142,LearnStrategy,2023.2.3,Win32,59.88023952,1,1,16,-0.015740712,0.001851859,1,0,0,0.7806,rock_grid_rect_2,4,11,-1,-1,0.781,-0.314814815,-0.263888889,1,0,0,1.2763,Andesite_rect,1,1.276,0,15,0,15,0,1,,,,,,,,,,,,,
6132542039ead71f30971bd6,TCN,2024-06-11_14h55.29.142,LearnStrategy,2023.2.3,Win32,59.88023952,1,2,1,,,,,,,,1,07,,,,,,,,,,,7,1.505,0,,,,,,0.134259259,-0.382407436,1,0,0,1.5047,Peridotite_rect,0,0,0,0,1,
6132542039ead71f30971bd6,TCN,2024-06-11_14h55.29.142,LearnStrategy,2023.2.3,Win32,59.88023952,1,2,2,,,,,,,,4,14,,,,,,,,,,,2,0.975,0,,,,,,-0.073148162,-0.259259259,1,0,0,0.9747,Basalt_rect,1,0,1,0,1,
6132542039ead71f30971bd6,TCN,2024-06-11_14h55.29.142,LearnStrategy,2023.2.3,Win32,59.88023952,1,2,3,,,,,,,,8,02,,,,,,,,,,,8,1.492,1,,,,,,0.415740826,-0.398148148,1,0,0,1.4923,Pumice_rect,2,0,2,0,1,
6132542039ead71f30971bd6,TCN,2024-06-11_14h55.29.142,LearnStrategy,2023.2.3,Win32,59.88023952,1,2,4,,,,,,,,2,10,,,,,,,,,,,4,1.075,0,,,,,,0.359259288,-0.262037065,1,0,0,1.0751,Gabbro_rect,3,0,3,0,1,
6132542039ead71f30971bd6,TCN,2024-06-11_14h55.29.142,LearnStrategy,2023.2.3,Win32,59.88023952,1,2,5,,,,,,,,5,14,,,,,,,,,,,5,1.728,1,,,,,,-0.407407407,-0.410185213,1,0,0,1.728,Obsidian_rect,4,0,4,0,1,
6132542039ead71f30971bd6,TCN,2024-06-11_14h55.29.142,LearnStrategy,2023.2.3,Win32,59.88023952,1,2,6,,,,,,,,5,16,,,,,,,,,,,5,1.016,1,,,,,,-0.397222201,-0.402777778,1,0,0,1.016,Obsidian_rect,5,0,5,0,1,
6132542039ead71f30971bd6,TCN,2024-06-11_14h55.29.142,LearnStrategy,2023.2.3,Win32,59.88023952,1,2,7,,,,,,,,6,08,,,,,,,,,,,3,1.274,0,,,,,,0.09629631,-0.25,1,0,0,1.2743,Diorite_rect,6,0,6,0,1,
6132542039ead71f30971bd6,TCN,2024-06-11_14h55.29.142,LearnStrategy,2023.2.3,Win32,59.88023952,1,2,8,,,,,,,,3,08,,,,,,,,,,,2,0.909,0,,,,,,-0.10555557,-0.24537037,1,0,0,0.9089,Basalt_rect,7,0,7,0,1,
6132542039ead71f30971bd6,TCN,2024-06-11_14h55.29.142,LearnStrategy,2023.2.3,Win32,59.88023952,1,2,9,,,,,,,,2,12,,,,,,,,,,,4,1.975,0,,,,,,0.405555584,-0.266666695,1,0,0,1.9754,Gabbro_rect,8,0,8,0,1,
6132542039ead71f30971bd6,TCN,2024-06-11_14h55.29.142,LearnStrategy,2023.2.3,Win32,59.88023952,1,2,10,,,,,,,,8,04,,,,,,,,,,,8,0.992,1,,,,,,0.369444529,-0.387037065,1,0,0,0.992,Pumice_rect,9,0,9,0,1,
6132542039ead71f30971bd6,TCN,2024-06-11_14h55.29.142,LearnStrategy,2023.2.3,Win32,59.88023952,1,2,11,,,,,,,,6,15,,,,,,,,,,,4,1.509,0,,,,,,0.390740712,-0.268518519,1,0,0,1.5091,Gabbro_rect,10,0,10,0,1,
6132542039ead71f30971bd6,TCN,2024-06-11_14h55.29.142,LearnStrategy,2023.2.3,Win32,59.88023952,1,2,12,,,,,,,,1,11,,,,,,,,,,,2,2.693,0,,,,,,-0.090740698,-0.26944443,1,0,0,2.6925,Basalt_rect,11,0,11,0,1,
6132542039ead71f30971bd6,TCN,2024-06-11_14h55.29.142,LearnStrategy,2023.2.3,Win32,59.88023952,1,2,13,,,,,,,,3,15,,,,,,,,,,,4,1.171,0,,,,,,0.394444501,-0.251851894,1,0,0,1.1713,Gabbro_rect,12,0,12,0,1,
6132542039ead71f30971bd6,TCN,2024-06-11_14h55.29.142,LearnStrategy,2023.2.3,Win32,59.88023952,1,2,14,,,,,,,,7,07,,,,,,,,,,,6,2.958,0,,,,,,-0.091666681,-0.409259302,1,0,0,2.9578,Pegmatite_rect,13,0,13,0,1,
6132542039ead71f30971bd6,TCN,2024-06-11_14h55.29.142,LearnStrategy,2023.2.3,Win32,59.88023952,1,2,15,,,,,,,,7,10,,,,,,,,,,,7,0.588,1,,,,,,0.07222225,-0.378703718,1,0,0,0.5879,Peridotite_rect,14,0,14,0,1,
6132542039ead71f30971bd6,TCN,2024-06-11_14h55.29.142,LearnStrategy,2023.2.3,Win32,59.88023952,1,2,16,,,,,,,,4,05,,,,,,,,,,,7,0.775,0,,,,,,0.125925912,-0.400000042,1,0,0,0.7752,Peridotite_rect,15,0,15,0,1,
6132542039ead71f30971bd6,TCN,2024-06-11_14h55.29.142,LearnStrategy,2023.2.3,Win32,59.88023952,2,1,1,-0.021296254,-0.01666666,1,0,0,1.0472,rock_grid_rect_2,1,10,-1,-1,1.047,-0.078703704,-0.247222265,1,0,0,1.0093,Basalt_rect,2,1.009,0,0,0,0,0,1,,,,,,,,,,,,,
6132542039ead71f30971bd6,TCN,2024-06-11_14h55.29.142,LearnStrategy,2023.2.3,Win32,59.88023952,2,1,2,0.034259302,0.006481489,1,0,0,1.4142,rock_grid_rect_2,2,04,-1,-1,1.414,0.148148148,-0.25,1,0,0,0.8919,Diorite_rect,3,0.892,0,1,0,1,0,1,,,,,,,,,,,,,
6132542039ead71f30971bd6,TCN,2024-06-11_14h55.29.142,LearnStrategy,2023.2.3,Win32,59.88023952,2,1,3,0.01944443,-0.0074074,1,0,0,1.0477,rock_grid_rect_2,3,12,-1,-1,1.048,-0.074074074,-0.387962977,1,0,0,0.8093,Pegmatite_rect,6,0.809,0,2,0,2,0,1,,,,,,,,,,,,,
6132542039ead71f30971bd6,TCN,2024-06-11_14h55.29.142,LearnStrategy,2023.2.3,Win32,59.88023952,2,1,4,0.082407422,-0.014814836,1,0,0,0.8809,rock_grid_rect_2,6,10,-1,-1,0.881,0.165740755,-0.396296325,1,0,0,0.8948,Peridotite_rect,7,0.895,0,3,0,3,0,1,,,,,,,,,,,,,
6132542039ead71f30971bd6,TCN,2024-06-11_14h55.29.142,LearnStrategy,2023.2.3,Win32,59.88023952,2,1,5,-0.003703718,-0.015740748,1,0,0,0.9317,rock_grid_rect_2,4,15,-1,-1,0.932,0.398148148,-0.397222236,1,0,0,0.8261,Pumice_rect,8,0.826,0,4,0,4,0,1,,,,,,,,,,,,,
6132542039ead71f30971bd6,TCN,2024-06-11_14h55.29.142,LearnStrategy,2023.2.3,Win32,59.88023952,2,1,6,0.02870369,0.0074074,1,0,0,0.8812,rock_grid_rect_2,3,02,-1,-1,0.881,0.373148176,-0.250925912,1,0,0,1.0271,Gabbro_rect,4,1.027,0,5,0,5,0,1,,,,,,,,,,,,,
6132542039ead71f30971bd6,TCN,2024-06-11_14h55.29.142,LearnStrategy,2023.2.3,Win32,59.88023952,2,1,7,0.023148148,0.011111118,1,0,0,0.9133,rock_grid_rect_2,1,05,-1,-1,0.913,-0.09629631,-0.385185171,1,0,0,2.7075,Pegmatite_rect,6,2.707,0,6,0,6,0,1,,,,,,,,,,,,,
6132542039ead71f30971bd6,TCN,2024-06-11_14h55.29.142,LearnStrategy,2023.2.3,Win32,59.88023952,2,1,8,0.022222236,0.001851859,1,0,0,0.8629,rock_grid_rect_2,8,03,-1,-1,0.863,0.329629686,-0.386111153,1,0,0,1.0695,Pumice_rect,8,1.07,1,7,0,7,0,1,,,,,,,,,,,,,
6132542039ead71f30971bd6,TCN,2024-06-11_14h55.29.142,LearnStrategy,2023.2.3,Win32,59.88023952,2,1,9,0.050000014,-0.01203703,1,0,0,0.8792,rock_grid_rect_2,4,13,-1,-1,0.879,0.404629601,-0.237963005,1,0,0,1.4792,Gabbro_rect,4,1.479,1,8,0,8,0,1,,,,,,,,,,,,,
6132542039ead71f30971bd6,TCN,2024-06-11_14h55.29.142,LearnStrategy,2023.2.3,Win32,59.88023952,2,1,10,0.013888889,0.008333312,1,0,0,0.9345,rock_grid_rect_2,7,14,-1,-1,0.935,-0.127777735,-0.400925954,1,0,0,1.2172,Pegmatite_rect,6,1.217,0,9,0,9,0,1,,,,,,,,,,,,,
6132542039ead71f30971bd6,TCN,2024-06-11_14h55.29.142,LearnStrategy,2023.2.3,Win32,59.88023952,2,1,11,-0.034259231,0.002777771,1,0,0,0.8648,rock_grid_rect_2,5,11,-1,-1,0.865,-0.393518519,-0.39907406,1,0,0,1.0285,Obsidian_rect,5,1.029,1,10,0,10,0,1,,,,,,,,,,,,,
6132542039ead71f30971bd6,TCN,2024-06-11_14h55.29.142,LearnStrategy,2023.2.3,Win32,59.88023952,2,1,12,-0.009259259,-0.013888889,1,0,0,0.7976,rock_grid_rect_2,8,10,-1,-1,0.798,0.375,-0.392592607,1,0,0,1.1591,Pumice_rect,8,1.159,1,11,0,11,0,1,,,,,,,,,,,,,
6132542039ead71f30971bd6,TCN,2024-06-11_14h55.29.142,LearnStrategy,2023.2.3,Win32,59.88023952,2,1,13,0.014814801,-0.009259259,1,0,0,0.8153,rock_grid_rect_2,7,05,-1,-1,0.815,0.134259259,-0.393518519,1,0,0,1.659,Peridotite_rect,7,1.659,1,12,0,12,0,1,,,,,,,,,,,,,
6132542039ead71f30971bd6,TCN,2024-06-11_14h55.29.142,LearnStrategy,2023.2.3,Win32,59.88023952,2,1,14,0.030555584,-0.008333347,1,0,0,0.916,rock_grid_rect_2,5,10,-1,-1,0.916,-0.339814822,-0.414814843,1,0,0,1.0582,Obsidian_rect,5,1.058,1,13,0,13,0,1,,,,,,,,,,,,,
6132542039ead71f30971bd6,TCN,2024-06-11_14h55.29.142,LearnStrategy,2023.2.3,Win32,59.88023952,2,1,15,-0.034259231,0.009259259,1,0,0,0.964,rock_grid_rect_2,2,06,-1,-1,0.964,-0.369444423,-0.236111111,1,0,0,2.1275,Andesite_rect,1,2.127,0,14,0,14,0,1,,,,,,,,,,,,,
6132542039ead71f30971bd6,TCN,2024-06-11_14h55.29.142,LearnStrategy,2023.2.3,Win32,59.88023952,2,1,16,-0.00462963,-0.008333347,1,0,0,0.7777,rock_grid_rect_2,6,05,-1,-1,0.778,-0.390740748,-0.248148176,1,0,0,1.4272,Andesite_rect,1,1.427,0,15,0,15,0,1,,,,,,,,,,,,,
6132542039ead71f30971bd6,TCN,2024-06-11_14h55.29.142,LearnStrategy,2023.2.3,Win32,59.88023952,2,2,1,,,,,,,,8,13,,,,,,,,,,,8,1.224,1,,,,,,0.388888889,-0.387037065,1,0,0,1.2241,Pumice_rect,0,0,0,0,1,
6132542039ead71f30971bd6,TCN,2024-06-11_14h55.29.142,LearnStrategy,2023.2.3,Win32,59.88023952,2,2,2,,,,,,,,6,03,,,,,,,,,,,3,0.893,0,,,,,,0.12037037,-0.25462963,1,0,0,0.8926,Diorite_rect,1,0,1,0,1,
6132542039ead71f30971bd6,TCN,2024-06-11_14h55.29.142,LearnStrategy,2023.2.3,Win32,59.88023952,2,2,3,,,,,,,,4,03,,,,,,,,,,,4,1.012,1,,,,,,0.340740769,-0.237037023,1,0,0,1.0117,Gabbro_rect,2,0,2,0,1,
6132542039ead71f30971bd6,TCN,2024-06-11_14h55.29.142,LearnStrategy,2023.2.3,Win32,59.88023952,2,2,4,,,,,,,,2,08,,,,,,,,,,,4,1.985,0,,,,,,0.412963019,-0.267592607,1,0,0,1.9851,Gabbro_rect,3,0,3,0,1,
6132542039ead71f30971bd6,TCN,2024-06-11_14h55.29.142,LearnStrategy,2023.2.3,Win32,59.88023952,2,2,5,,,,,,,,6,09,,,,,,,,,,,7,0.99,0,,,,,,0.141666695,-0.39444443,1,0,0,0.9902,Peridotite_rect,4,0,4,0,1,
6132542039ead71f30971bd6,TCN,2024-06-11_14h55.29.142,LearnStrategy,2023.2.3,Win32,59.88023952,2,2,6,,,,,,,,5,04,,,,,,,,,,,5,0.991,1,,,,,,-0.300925926,-0.407407407,1,0,0,0.9906,Obsidian_rect,5,0,5,0,1,
6132542039ead71f30971bd6,TCN,2024-06-11_14h55.29.142,LearnStrategy,2023.2.3,Win32,59.88023952,2,2,7,,,,,,,,7,16,,,,,,,,,,,6,0.791,0,,,,,,-0.123148106,-0.40370369,1,0,0,0.7909,Pegmatite_rect,6,0,6,0,1,
6132542039ead71f30971bd6,TCN,2024-06-11_14h55.29.142,LearnStrategy,2023.2.3,Win32,59.88023952,2,2,8,,,,,,,,7,13,,,,,,,,,,,7,0.792,1,,,,,,0.139814801,-0.408333319,1,0,0,0.7921,Peridotite_rect,7,0,7,0,1,
6132542039ead71f30971bd6,TCN,2024-06-11_14h55.29.142,LearnStrategy,2023.2.3,Win32,59.88023952,2,2,9,,,,,,,,3,14,,,,,,,,,,,7,1.661,0,,,,,,0.127777806,-0.393518519,1,0,0,1.6608,Peridotite_rect,8,0,8,0,1,
6132542039ead71f30971bd6,TCN,2024-06-11_14h55.29.142,LearnStrategy,2023.2.3,Win32,59.88023952,2,2,10,,,,,,,,4,10,,,,,,,,,,,2,0.86,0,,,,,,-0.063888903,-0.244444459,1,0,0,0.8598,Basalt_rect,9,0,9,0,1,
6132542039ead71f30971bd6,TCN,2024-06-11_14h55.29.142,LearnStrategy,2023.2.3,Win32,59.88023952,2,2,11,,,,,,,,3,13,,,,,,,,,,,3,0.978,1,,,,,,0.141666695,-0.251851894,1,0,0,0.9783,Diorite_rect,10,0,10,0,1,
6132542039ead71f30971bd6,TCN,2024-06-11_14h55.29.142,LearnStrategy,2023.2.3,Win32,59.88023952,2,2,12,,,,,,,,8,06,,,,,,,,,,,8,2.463,1,,,,,,0.396296325,-0.382407436,1,0,0,2.4632,Pumice_rect,11,0,11,0,1,
6132542039ead71f30971bd6,TCN,2024-06-11_14h55.29.142,LearnStrategy,2023.2.3,Win32,59.88023952,2,2,13,,,,,,,,5,06,,,,,,,,,,,5,1.012,1,,,,,,-0.346296275,-0.387037065,1,0,0,1.0122,Obsidian_rect,12,0,12,0,1,
6132542039ead71f30971bd6,TCN,2024-06-11_14h55.29.142,LearnStrategy,2023.2.3,Win32,59.88023952,2,2,14,,,,,,,,2,09,,,,,,,,,,,2,1.876,1,,,,,,-0.078703704,-0.244444459,1,0,0,1.8761,Basalt_rect,13,0,13,0,1,
6132542039ead71f30971bd6,TCN,2024-06-11_14h55.29.142,LearnStrategy,2023.2.3,Win32,59.88023952,2,2,15,,,,,,,,1,16,,,,,,,,,,,7,0.895,0,,,,,,0.142592607,-0.382407436,1,0,0,0.8948,Peridotite_rect,14,0,14,0,1,
6132542039ead71f30971bd6,TCN,2024-06-11_14h55.29.142,LearnStrategy,2023.2.3,Win32,59.88023952,2,2,16,,,,,,,,1,04,,,,,,,,,,,6,0.643,0,,,,,,-0.064814815,-0.39444443,1,0,0,0.6429,Pegmatite_rect,15,0,15,0,1,
6132542039ead71f30971bd6,TCN,2024-06-11_14h55.29.142,LearnStrategy,2023.2.3,Win32,59.88023952,3,1,1,-0.01944443,0.003703683,1,0,0,1.1812,rock_grid_rect_2,8,15,-1,-1,1.181,0.466666751,-0.410185213,1,0,0,2.1275,Pumice_rect,8,2.127,1,0,0,0,0,1,,,,,,,,,,,,,
6132542039ead71f30971bd6,TCN,2024-06-11_14h55.29.142,LearnStrategy,2023.2.3,Win32,59.88023952,3,1,2,0.002777806,-0.013888889,1,0,0,1.0812,rock_grid_rect_2,5,08,-1,-1,1.081,-0.392592571,-0.407407407,1,0,0,1.0101,Obsidian_rect,5,1.01,1,1,0,1,0,1,,,,,,,,,,,,,
6132542039ead71f30971bd6,TCN,2024-06-11_14h55.29.142,LearnStrategy,2023.2.3,Win32,59.88023952,3,1,3,-0.003703718,-0.002777771,1,0,0,1.0149,rock_grid_rect_2,6,06,-1,-1,1.015,0.12962963,-0.258333347,1,0,0,2.5779,Diorite_rect,3,2.578,0,2,0,2,0,1,,,,,,,,,,,,,
6132542039ead71f30971bd6,TCN,2024-06-11_14h55.29.142,LearnStrategy,2023.2.3,Win32,59.88023952,3,1,4,0.023148148,-0.017592607,1,0,0,1.0468,rock_grid_rect_2,4,16,-1,-1,1.047,-0.04814812,-0.407407407,1,0,0,1.1952,Pegmatite_rect,6,1.195,0,3,0,3,0,1,,,,,,,,,,,,,
6132542039ead71f30971bd6,TCN,2024-06-11_14h55.29.142,LearnStrategy,2023.2.3,Win32,59.88023952,3,1,5,0.055555556,-0.012962977,1,0,0,0.9658,rock_grid_rect_2,2,01,-1,-1,0.966,0.421296296,-0.241666653,1,0,0,1.3934,Gabbro_rect,4,1.393,0,4,0,4,0,1,,,,,,,,,,,,,
6132542039ead71f30971bd6,TCN,2024-06-11_14h55.29.142,LearnStrategy,2023.2.3,Win32,59.88023952,3,1,6,0.003703718,-0.01203703,1,0,0,1.064,rock_grid_rect_2,6,12,-1,-1,1.064,0.154629672,-0.249074088,1,0,0,1.8416,Diorite_rect,3,1.842,0,5,0,5,0,1,,,,,,,,,,,,,
6132542039ead71f30971bd6,TCN,2024-06-11_14h55.29.142,LearnStrategy,2023.2.3,Win32,59.88023952,3,1,7,0.021296325,-0.008333347,1,0,0,1.1963,rock_grid_rect_2,2,14,-1,-1,1.196,0.12962963,-0.398148148,1,0,0,0.8116,Peridotite_rect,7,0.812,0,6,0,6,0,1,,,,,,,,,,,,,
6132542039ead71f30971bd6,TCN,2024-06-11_14h55.29.142,LearnStrategy,2023.2.3,Win32,59.88023952,3,1,8,-0.027777778,-0.006481489,1,0,0,1.1306,rock_grid_rect_2,5,09,-1,-1,1.131,-0.317592586,-0.395370413,1,0,0,0.9929,Obsidian_rect,5,0.993,1,7,0,7,0,1,,,,,,,,,,,,,
6132542039ead71f30971bd6,TCN,2024-06-11_14h55.29.142,LearnStrategy,2023.2.3,Win32,59.88023952,3,1,9,-0.020370342,-0.01666666,1,0,0,0.9472,rock_grid_rect_2,7,04,-1,-1,0.947,-0.125925912,-0.381481524,1,0,0,1.124,Pegmatite_rect,6,1.124,0,8,0,8,0,1,,,,,,,,,,,,,
6132542039ead71f30971bd6,TCN,2024-06-11_14h55.29.142,LearnStrategy,2023.2.3,Win32,59.88023952,3,1,10,0.006481524,-0.008333347,1,0,0,1.0139,rock_grid_rect_2,1,09,-1,-1,1.014,-0.17777775,-0.235185199,1,0,0,2.4778,Basalt_rect,2,2.478,0,9,0,9,0,1,,,,,,,,,,,,,
6132542039ead71f30971bd6,TCN,2024-06-11_14h55.29.142,LearnStrategy,2023.2.3,Win32,59.88023952,3,1,11,0.029629672,-0.015740748,1,0,0,1.0969,rock_grid_rect_2,1,02,-1,-1,1.097,0.382407436,-0.39444443,1,0,0,1.1752,Pumice_rect,8,1.175,0,10,0,10,0,1,,,,,,,,,,,,,
6132542039ead71f30971bd6,TCN,2024-06-11_14h55.29.142,LearnStrategy,2023.2.3,Win32,59.88023952,3,1,12,0.001851894,-0.00462963,1,0,0,0.9982,rock_grid_rect_2,4,09,-1,-1,0.998,-0.074999986,-0.39444443,1,0,0,1.693,Pegmatite_rect,6,1.693,0,11,0,11,0,1,,,,,,,,,,,,,
6132542039ead71f30971bd6,TCN,2024-06-11_14h55.29.142,LearnStrategy,2023.2.3,Win32,59.88023952,3,1,13,0.006481524,-0.01203703,1,0,0,0.9988,rock_grid_rect_2,3,07,-1,-1,0.999,0.12962963,-0.400000042,1,0,0,0.9589,Peridotite_rect,7,0.959,0,12,0,12,0,1,,,,,,,,,,,,,
6132542039ead71f30971bd6,TCN,2024-06-11_14h55.29.142,LearnStrategy,2023.2.3,Win32,59.88023952,3,1,14,0.012037065,-0.009259259,1,0,0,1.032,rock_grid_rect_2,3,06,-1,-1,1.032,-0.093518504,-0.248148176,1,0,0,0.9093,Basalt_rect,2,0.909,0,13,0,13,0,1,,,,,,,,,,,,,
6132542039ead71f30971bd6,TCN,2024-06-11_14h55.29.142,LearnStrategy,2023.2.3,Win32,59.88023952,3,1,15,0.035185213,-0.000925947,1,0,0,0.9971,rock_grid_rect_2,8,09,-1,-1,0.997,0.374074159,-0.410185213,1,0,0,0.975,Pumice_rect,8,0.975,1,14,0,14,0,1,,,,,,,,,,,,,
6132542039ead71f30971bd6,TCN,2024-06-11_14h55.29.142,LearnStrategy,2023.2.3,Win32,59.88023952,3,1,16,-0.015740712,-0.003703718,1,0,0,0.914,rock_grid_rect_2,7,12,-1,-1,0.914,0.119444459,-0.404629672,1,0,0,1.1452,Peridotite_rect,7,1.145,1,15,0,15,0,1,,,,,,,,,,,,,
6132542039ead71f30971bd6,TCN,2024-06-11_14h55.29.142,LearnStrategy,2023.2.3,Win32,59.88023952,3,2,1,,,,,,,,3,16,,,,,,,,,,,7,1.891,0,,,,,,0.122222265,-0.408333319,1,0,0,1.8912,Peridotite_rect,0,0,0,0,1,
6132542039ead71f30971bd6,TCN,2024-06-11_14h55.29.142,LearnStrategy,2023.2.3,Win32,59.88023952,3,2,2,,,,,,,,8,14,,,,,,,,,,,8,1.241,1,,,,,,0.395370342,-0.414814843,1,0,0,1.241,Pumice_rect,1,0,1,0,1,
6132542039ead71f30971bd6,TCN,2024-06-11_14h55.29.142,LearnStrategy,2023.2.3,Win32,59.88023952,3,2,3,,,,,,,,6,13,,,,,,,,,,,4,0.774,0,,,,,,0.422222279,-0.233333376,1,0,0,0.7739,Gabbro_rect,2,0,2,0,1,
6132542039ead71f30971bd6,TCN,2024-06-11_14h55.29.142,LearnStrategy,2023.2.3,Win32,59.88023952,3,2,4,,,,,,,,5,02,,,,,,,,,,,5,1.209,1,,,,,,-0.417592578,-0.400925954,1,0,0,1.2093,Obsidian_rect,3,0,3,0,1,
6132542039ead71f30971bd6,TCN,2024-06-11_14h55.29.142,LearnStrategy,2023.2.3,Win32,59.88023952,3,2,5,,,,,,,,8,08,,,,,,,,,,,8,1.042,1,,,,,,0.349074046,-0.395370413,1,0,0,1.0421,Pumice_rect,4,0,4,0,1,
6132542039ead71f30971bd6,TCN,2024-06-11_14h55.29.142,LearnStrategy,2023.2.3,Win32,59.88023952,3,2,6,,,,,,,,1,14,,,,,,,,,,,4,1.261,0,,,,,,0.362037094,-0.260185171,1,0,0,1.2608,Gabbro_rect,5,0,5,0,1,
6132542039ead71f30971bd6,TCN,2024-06-11_14h55.29.142,LearnStrategy,2023.2.3,Win32,59.88023952,3,2,7,,,,,,,,7,02,,,,,,,,,,,7,1.341,1,,,,,,0.12037037,-0.413888931,1,0,0,1.341,Peridotite_rect,6,0,6,0,1,
6132542039ead71f30971bd6,TCN,2024-06-11_14h55.29.142,LearnStrategy,2023.2.3,Win32,59.88023952,3,2,8,,,,,,,,3,10,,,,,,,,,,,6,1.128,0,,,,,,-0.10092594,-0.39907406,1,0,0,1.1281,Pegmatite_rect,7,0,7,0,1,
6132542039ead71f30971bd6,TCN,2024-06-11_14h55.29.142,LearnStrategy,2023.2.3,Win32,59.88023952,3,2,9,,,,,,,,5,05,,,,,,,,,,,5,0.891,1,,,,,,-0.366666653,-0.392592607,1,0,0,0.8906,Obsidian_rect,8,0,8,0,1,
6132542039ead71f30971bd6,TCN,2024-06-11_14h55.29.142,LearnStrategy,2023.2.3,Win32,59.88023952,3,2,10,,,,,,,,4,01,,,,,,,,,,,7,0.925,0,,,,,,0.135185171,-0.405555584,1,0,0,0.9251,Peridotite_rect,9,0,9,0,1,
6132542039ead71f30971bd6,TCN,2024-06-11_14h55.29.142,LearnStrategy,2023.2.3,Win32,59.88023952,3,2,11,,,,,,,,2,05,,,,,,,,,,,1,2.376,0,,,,,,-0.352777764,-0.258333347,1,0,0,2.3764,Andesite_rect,10,0,10,0,1,
6132542039ead71f30971bd6,TCN,2024-06-11_14h55.29.142,LearnStrategy,2023.2.3,Win32,59.88023952,3,2,12,,,,,,,,2,16,,,,,,,,,,,4,2.543,0,,,,,,0.42314812,-0.251851894,1,0,0,2.5431,Gabbro_rect,11,0,11,0,1,
6132542039ead71f30971bd6,TCN,2024-06-11_14h55.29.142,LearnStrategy,2023.2.3,Win32,59.88023952,3,2,13,,,,,,,,7,08,,,,,,,,,,,7,1.988,1,,,,,,0.14907406,-0.39907406,1,0,0,1.9875,Peridotite_rect,12,0,12,0,1,
6132542039ead71f30971bd6,TCN,2024-06-11_14h55.29.142,LearnStrategy,2023.2.3,Win32,59.88023952,3,2,14,,,,,,,,1,03,,,,,,,,,,,6,0.309,0,,,,,,-0.073148162,-0.391666695,1,0,0,0.3086,Pegmatite_rect,13,0,13,0,1,
6132542039ead71f30971bd6,TCN,2024-06-11_14h55.29.142,LearnStrategy,2023.2.3,Win32,59.88023952,3,2,15,,,,,,,,6,16,,,,,,,,,,,2,0.791,0,,,,,,-0.099074046,-0.260185171,1,0,0,0.7907,Basalt_rect,14,0,14,0,1,
6132542039ead71f30971bd6,TCN,2024-06-11_14h55.29.142,LearnStrategy,2023.2.3,Win32,59.88023952,3,2,16,,,,,,,,4,08,,,,,,,,,,,7,0.792,0,,,,,,0.141666695,-0.390740783,1,0,0,0.7922,Peridotite_rect,15,0,15,0,1,
6132542039ead71f30971bd6,TCN,2024-06-11_14h55.29.142,LearnStrategy,2023.2.3,Win32,59.88023952,4,1,1,-0.044444402,-0.002777771,1,0,0,1.1138,rock_grid_rect_2,1,05,-1,-1,1.114,-0.088888875,-0.24537037,1,0,0,0.8591,Basalt_rect,2,0.859,0,0,0,0,0,1,,,,,,,,,,,,,
6132542039ead71f30971bd6,TCN,2024-06-11_14h55.29.142,LearnStrategy,2023.2.3,Win32,59.88023952,4,1,2,0.060185185,-0.011111118,1,0,0,1.0485,rock_grid_rect_2,2,11,-1,-1,1.049,0.165740755,-0.397222236,1,0,0,0.8064,Peridotite_rect,7,0.806,0,1,0,1,0,1,,,,,,,,,,,,,
6132542039ead71f30971bd6,TCN,2024-06-11_14h55.29.142,LearnStrategy,2023.2.3,Win32,59.88023952,4,1,3,0.117592635,-0.0074074,1,0,0,1.0488,rock_grid_rect_2,6,12,-1,-1,1.049,0.412963019,-0.267592607,1,0,0,1.842,Gabbro_rect,4,1.842,0,2,0,2,0,1,,,,,,,,,,,,,
6132542039ead71f30971bd6,TCN,2024-06-11_14h55.29.142,LearnStrategy,2023.2.3,Win32,59.88023952,4,1,4,0.053703732,-0.011111118,1,0,0,0.9804,rock_grid_rect_2,7,12,-1,-1,0.98,0.093518504,-0.410185213,1,0,0,1.642,Peridotite_rect,7,1.642,1,3,0,3,0,1,,,,,,,,,,,,,
6132542039ead71f30971bd6,TCN,2024-06-11_14h55.29.142,LearnStrategy,2023.2.3,Win32,59.88023952,4,1,5,0.074074074,-0.018518519,1,0,0,0.9306,rock_grid_rect_2,8,05,-1,-1,0.931,0.375925982,-0.409259302,1,0,0,1.0769,Pumice_rect,8,1.077,1,4,0,4,0,1,,,,,,,,,,,,,
6132542039ead71f30971bd6,TCN,2024-06-11_14h55.29.142,LearnStrategy,2023.2.3,Win32,59.88023952,4,1,6,0.037962949,-0.008333347,1,0,0,0.8308,rock_grid_rect_2,4,16,-1,-1,0.831,0.401851937,-0.244444459,1,0,0,1.409,Gabbro_rect,4,1.409,1,5,0,5,0,1,,,,,,,,,,,,,
6132542039ead71f30971bd6,TCN,2024-06-11_14h55.29.142,LearnStrategy,2023.2.3,Win32,59.88023952,4,1,7,0.037962949,-0.0074074,1,0,0,0.8138,rock_grid_rect_2,8,03,-1,-1,0.814,0.393518519,-0.381481524,1,0,0,1.1285,Pumice_rect,8,1.128,1,6,0,6,0,1,,,,,,,,,,,,,
6132542039ead71f30971bd6,TCN,2024-06-11_14h55.29.142,LearnStrategy,2023.2.3,Win32,59.88023952,4,1,8,-0.006481453,-0.017592607,1,0,0,1.1978,rock_grid_rect_2,5,07,-1,-1,1.198,-0.35833334,-0.407407407,1,0,0,0.9255,Obsidian_rect,5,0.925,1,7,0,7,0,1,,,,,,,,,,,,,
6132542039ead71f30971bd6,TCN,2024-06-11_14h55.29.142,LearnStrategy,2023.2.3,Win32,59.88023952,4,1,9,-0.02407406,-0.006481489,1,0,0,1.1643,rock_grid_rect_2,5,10,-1,-1,1.164,-0.306481467,-0.37962963,1,0,0,1.0589,Obsidian_rect,5,1.059,1,8,0,8,0,1,,,,,,,,,,,,,
6132542039ead71f30971bd6,TCN,2024-06-11_14h55.29.142,LearnStrategy,2023.2.3,Win32,59.88023952,4,1,10,-0.005555541,-0.01203703,1,0,0,0.9642,rock_grid_rect_2,1,02,-1,-1,0.964,0.389814871,-0.414814843,1,0,0,1.4612,Pumice_rect,8,1.461,0,9,0,9,0,1,,,,,,,,,,,,,
6132542039ead71f30971bd6,TCN,2024-06-11_14h55.29.142,LearnStrategy,2023.2.3,Win32,59.88023952,4,1,11,-0.013888889,-0.020370377,1,0,0,0.9318,rock_grid_rect_2,4,12,-1,-1,0.932,-0.349074081,-0.232407393,1,0,0,1.3093,Andesite_rect,1,1.309,0,10,0,10,0,1,,,,,,,,,,,,,
6132542039ead71f30971bd6,TCN,2024-06-11_14h55.29.142,LearnStrategy,2023.2.3,Win32,59.88023952,4,1,12,-0.020370342,0.00462963,1,0,0,1.0644,rock_grid_rect_2,2,04,-1,-1,1.064,0.386111083,-0.228703746,1,0,0,1.0433,Gabbro_rect,4,1.043,0,11,0,11,0,1,,,,,,,,,,,,,
6132542039ead71f30971bd6,TCN,2024-06-11_14h55.29.142,LearnStrategy,2023.2.3,Win32,59.88023952,4,1,13,-0.016666624,-0.005555577,1,0,0,1.0978,rock_grid_rect_2,7,15,-1,-1,1.098,-0.030555513,-0.390740783,1,0,0,1.4614,Pegmatite_rect,6,1.461,0,12,0,12,0,1,,,,,,,,,,,,,
6132542039ead71f30971bd6,TCN,2024-06-11_14h55.29.142,LearnStrategy,2023.2.3,Win32,59.88023952,4,1,14,0.018518519,0.006481489,1,0,0,0.9482,rock_grid_rect_2,3,12,-1,-1,0.948,0.116666653,-0.389814801,1,0,0,0.7903,Peridotite_rect,7,0.79,0,13,0,13,0,1,,,,,,,,,,,,,
6132542039ead71f30971bd6,TCN,2024-06-11_14h55.29.142,LearnStrategy,2023.2.3,Win32,59.88023952,4,1,15,0.009259259,-0.006481489,1,0,0,0.8486,rock_grid_rect_2,3,06,-1,-1,0.849,-0.062037009,-0.390740783,1,0,0,4.0758,Pegmatite_rect,6,4.076,0,14,0,14,0,1,,,,,,,,,,,,,
6132542039ead71f30971bd6,TCN,2024-06-11_14h55.29.142,LearnStrategy,2023.2.3,Win32,59.88023952,4,1,16,-0.00462963,-0.008333347,1,0,0,1.0655,rock_grid_rect_2,6,07,-1,-1,1.065,0.340740769,-0.260185171,1,0,0,1.4953,Gabbro_rect,4,1.495,0,15,0,15,0,1,,,,,,,,,,,,,
6132542039ead71f30971bd6,TCN,2024-06-11_14h55.29.142,LearnStrategy,2023.2.3,Win32,59.88023952,4,2,1,,,,,,,,7,13,,,,,,,,,,,7,1.508,1,,,,,,0.150000042,-0.414814843,1,0,0,1.5079,Peridotite_rect,0,0,0,0,1,
6132542039ead71f30971bd6,TCN,2024-06-11_14h55.29.142,LearnStrategy,2023.2.3,Win32,59.88023952,4,2,2,,,,,,,,5,16,,,,,,,,,,,5,0.957,1,,,,,,-0.318518497,-0.39907406,1,0,0,0.9575,Obsidian_rect,1,0,1,0,1,
6132542039ead71f30971bd6,TCN,2024-06-11_14h55.29.142,LearnStrategy,2023.2.3,Win32,59.88023952,4,2,3,,,,,,,,8,13,,,,,,,,,,,8,1.191,1,,,,,,0.366666723,-0.405555584,1,0,0,1.191,Pumice_rect,2,0,2,0,1,
6132542039ead71f30971bd6,TCN,2024-06-11_14h55.29.142,LearnStrategy,2023.2.3,Win32,59.88023952,4,2,4,,,,,,,,8,04,,,,,,,,,,,8,0.943,1,,,,,,0.362962935,-0.40370369,1,0,0,0.9426,Pumice_rect,3,0,3,0,1,
6132542039ead71f30971bd6,TCN,2024-06-11_14h55.29.142,LearnStrategy,2023.2.3,Win32,59.88023952,4,2,5,,,,,,,,3,15,,,,,,,,,,,6,0.909,0,,,,,,-0.086111069,-0.380555541,1,0,0,0.9089,Pegmatite_rect,4,0,4,0,1,
6132542039ead71f30971bd6,TCN,2024-06-11_14h55.29.142,LearnStrategy,2023.2.3,Win32,59.88023952,4,2,6,,,,,,,,1,14,,,,,,,,,,,4,1.127,0,,,,,,0.377777806,-0.246296282,1,0,0,1.1267,Gabbro_rect,5,0,5,0,1,
6132542039ead71f30971bd6,TCN,2024-06-11_14h55.29.142,LearnStrategy,2023.2.3,Win32,59.88023952,4,2,7,,,,,,,,4,05,,,,,,,,,,,3,0.976,0,,,,,,0.112037023,-0.258333347,1,0,0,0.9757,Diorite_rect,6,0,6,0,1,
6132542039ead71f30971bd6,TCN,2024-06-11_14h55.29.142,LearnStrategy,2023.2.3,Win32,59.88023952,4,2,8,,,,,,,,7,08,,,,,,,,,,,7,1.392,1,,,,,,0.09629631,-0.401851866,1,0,0,1.3922,Peridotite_rect,7,0,7,0,1,
6132542039ead71f30971bd6,TCN,2024-06-11_14h55.29.142,LearnStrategy,2023.2.3,Win32,59.88023952,4,2,9,,,,,,,,4,08,,,,,,,,,,,6,0.629,0,,,,,,-0.047222208,-0.400000042,1,0,0,0.6286,Pegmatite_rect,8,0,8,0,1,
6132542039ead71f30971bd6,TCN,2024-06-11_14h55.29.142,LearnStrategy,2023.2.3,Win32,59.88023952,4,2,10,,,,,,,,5,02,,,,,,,,,,,5,1.025,1,,,,,,-0.322222215,-0.400000042,1,0,0,1.0253,Obsidian_rect,9,0,9,0,1,
6132542039ead71f30971bd6,TCN,2024-06-11_14h55.29.142,LearnStrategy,2023.2.3,Win32,59.88023952,4,2,11,,,,,,,,6,08,,,,,,,,,,,6,0.907,1,,,,,,-0.161111125,-0.400000042,1,0,0,0.9072,Pegmatite_rect,10,0,10,0,1,
6132542039ead71f30971bd6,TCN,2024-06-11_14h55.29.142,LearnStrategy,2023.2.3,Win32,59.88023952,4,2,12,,,,,,,,2,08,,,,,,,,,,,4,1.09,0,,,,,,0.368518547,-0.234259288,1,0,0,1.0901,Gabbro_rect,11,0,11,0,1,
6132542039ead71f30971bd6,TCN,2024-06-11_14h55.29.142,LearnStrategy,2023.2.3,Win32,59.88023952,4,2,13,,,,,,,,6,16,,,,,,,,,,,1,2.026,0,,,,,,-0.290740755,-0.255555541,1,0,0,2.0258,Andesite_rect,12,0,12,0,1,
6132542039ead71f30971bd6,TCN,2024-06-11_14h55.29.142,LearnStrategy,2023.2.3,Win32,59.88023952,4,2,14,,,,,,,,1,04,,,,,,,,,,,2,0.791,0,,,,,,-0.098148134,-0.232407393,1,0,0,0.7909,Basalt_rect,13,0,13,0,1,
6132542039ead71f30971bd6,TCN,2024-06-11_14h55.29.142,LearnStrategy,2023.2.3,Win32,59.88023952,4,2,15,,,,,,,,3,10,,,,,,,,,,,6,0.774,0,,,,,,-0.108333305,-0.404629672,1,0,0,0.774,Pegmatite_rect,14,0,14,0,1,
6132542039ead71f30971bd6,TCN,2024-06-11_14h55.29.142,LearnStrategy,2023.2.3,Win32,59.88023952,4,2,16,,,,,,,,2,10,,,,,,,,,,,4,1.637,0,,,,,,0.404629601,-0.228703746,1,0,0,1.6373,Gabbro_rect,15,0,15,0,1,
6132542039ead71f30971bd6,TCN,2024-06-11_14h55.29.142,LearnStrategy,2023.2.3,Win32,59.88023952,5,1,1,-0.045370384,0.001851859,1,0,0,1.0816,rock_grid_rect_2,3,02,-1,-1,1.082,-0.087037051,-0.393518519,1,0,0,2.6082,Pegmatite_rect,6,2.608,0,0,0,0,0,1,,,,,,,,,,,,,
6132542039ead71f30971bd6,TCN,2024-06-11_14h55.29.142,LearnStrategy,2023.2.3,Win32,59.88023952,5,1,2,0.012962977,-0.019444466,1,0,0,1.0468,rock_grid_rect_2,2,06,-1,-1,1.047,0.109259288,-0.244444459,1,0,0,0.7255,Diorite_rect,3,0.725,0,1,0,1,0,1,,,,,,,,,,,,,
6132542039ead71f30971bd6,TCN,2024-06-11_14h55.29.142,LearnStrategy,2023.2.3,Win32,59.88023952,5,1,3,0.022222236,-0.010185206,1,0,0,1.0973,rock_grid_rect_2,6,10,-1,-1,1.097,-0.071296268,-0.233333376,1,0,0,1.5764,Basalt_rect,2,1.576,0,2,0,2,0,1,,,,,,,,,,,,,
6132542039ead71f30971bd6,TCN,2024-06-11_14h55.29.142,LearnStrategy,2023.2.3,Win32,59.88023952,5,1,4,-0.031481496,0.002777771,1,0,0,0.9142,rock_grid_rect_2,5,09,-1,-1,0.914,-0.392592571,-0.406481496,1,0,0,1.0597,Obsidian_rect,5,1.06,1,3,0,3,0,1,,,,,,,,,,,,,
6132542039ead71f30971bd6,TCN,2024-06-11_14h55.29.142,LearnStrategy,2023.2.3,Win32,59.88023952,5,1,5,0.007407436,-0.014814836,1,0,0,0.9806,rock_grid_rect_2,6,11,-1,-1,0.981,0.154629672,-0.415740755,1,0,0,1.576,Peridotite_rect,7,1.576,0,4,0,4,0,1,,,,,,,,,,,,,
6132542039ead71f30971bd6,TCN,2024-06-11_14h55.29.142,LearnStrategy,2023.2.3,Win32,59.88023952,5,1,6,0.083333333,-0.021296289,1,0,0,0.9481,rock_grid_rect_2,7,14,-1,-1,0.948,-0.075925898,-0.400925954,1,0,0,0.9601,Pegmatite_rect,6,0.96,0,5,0,5,0,1,,,,,,,,,,,,,
6132542039ead71f30971bd6,TCN,2024-06-11_14h55.29.142,LearnStrategy,2023.2.3,Win32,59.88023952,5,1,7,0.083333333,-0.010185206,1,0,0,1.0153,rock_grid_rect_2,2,14,-1,-1,1.015,0.368518547,-0.239814829,1,0,0,1.0609,Gabbro_rect,4,1.061,0,6,0,6,0,1,,,,,,,,,,,,,
6132542039ead71f30971bd6,TCN,2024-06-11_14h55.29.142,LearnStrategy,2023.2.3,Win32,59.88023952,5,1,8,0.039814843,0.000925912,1,0,0,0.815,rock_grid_rect_2,7,04,-1,-1,0.815,-0.364814794,-0.406481496,1,0,0,2.6335,Obsidian_rect,5,2.633,0,7,0,7,0,1,,,,,,,,,,,,,
6132542039ead71f30971bd6,TCN,2024-06-11_14h55.29.142,LearnStrategy,2023.2.3,Win32,59.88023952,5,1,9,-0.012036995,0.00462963,1,0,0,1.1324,rock_grid_rect_2,5,12,-1,-1,1.132,-0.348148134,-0.381481524,1,0,0,2.142,Obsidian_rect,5,2.142,1,8,0,8,0,1,,,,,,,,,,,,,
6132542039ead71f30971bd6,TCN,2024-06-11_14h55.29.142,LearnStrategy,2023.2.3,Win32,59.88023952,5,1,10,0.005555541,-0.017592607,1,0,0,0.8994,rock_grid_rect_2,3,09,-1,-1,0.899,-0.340740734,-0.259259259,1,0,0,1.3748,Andesite_rect,1,1.375,0,9,0,9,0,1,,,,,,,,,,,,,
6132542039ead71f30971bd6,TCN,2024-06-11_14h55.29.142,LearnStrategy,2023.2.3,Win32,59.88023952,5,1,11,-0.002777735,-0.020370377,1,0,0,1.3147,rock_grid_rect_2,4,15,-1,-1,1.315,0.147222236,-0.244444459,1,0,0,1.177,Diorite_rect,3,1.177,0,10,0,10,0,1,,,,,,,,,,,,,
6132542039ead71f30971bd6,TCN,2024-06-11_14h55.29.142,LearnStrategy,2023.2.3,Win32,59.88023952,5,1,12,0.034259302,0,1,0,0,0.8645,rock_grid_rect_2,8,10,-1,-1,0.865,0.393518519,-0.39444443,1,0,0,1.0782,Pumice_rect,8,1.078,1,11,0,11,0,1,,,,,,,,,,,,,
6132542039ead71f30971bd6,TCN,2024-06-11_14h55.29.142,LearnStrategy,2023.2.3,Win32,59.88023952,5,1,13,0.041666667,-0.0074074,1,0,0,0.8646,rock_grid_rect_2,8,09,-1,-1,0.865,0.369444529,-0.412037037,1,0,0,1.1737,Pumice_rect,8,1.174,1,12,0,12,0,1,,,,,,,,,,,,,
6132542039ead71f30971bd6,TCN,2024-06-11_14h55.29.142,LearnStrategy,2023.2.3,Win32,59.88023952,5,1,14,-0.008333347,-0.012962977,1,0,0,0.7992,rock_grid_rect_2,1,09,-1,-1,0.799,-0.135185171,-0.244444459,1,0,0,3.309,Basalt_rect,2,3.309,0,13,0,13,0,1,,,,,,,,,,,,,
6132542039ead71f30971bd6,TCN,2024-06-11_14h55.29.142,LearnStrategy,2023.2.3,Win32,59.88023952,5,1,15,-0.003703718,0.00462963,1,0,0,1.1153,rock_grid_rect_2,1,06,-1,-1,1.115,-0.076851809,-0.262962977,1,0,0,1.6098,Basalt_rect,2,1.61,0,14,0,14,0,1,,,,,,,,,,,,,
6132542039ead71f30971bd6,TCN,2024-06-11_14h55.29.142,LearnStrategy,2023.2.3,Win32,59.88023952,5,1,16,0.001851894,-0.0074074,1,0,0,1.5316,rock_grid_rect_2,4,09,-1,-1,1.532,-0.35833334,-0.247222265,1,0,0,1.0197,Andesite_rect,1,1.02,0,15,0,15,0,1,,,,,,,,,,,,,
6132542039ead71f30971bd6,TCN,2024-06-11_14h55.29.142,LearnStrategy,2023.2.3,Win32,59.88023952,5,2,1,,,,,,,,5,05,,,,,,,,,,,5,2.126,1,,,,,,-0.384259259,-0.391666695,1,0,0,2.126,Obsidian_rect,0,0,0,0,1,
6132542039ead71f30971bd6,TCN,2024-06-11_14h55.29.142,LearnStrategy,2023.2.3,Win32,59.88023952,5,2,2,,,,,,,,4,14,,,,,,,,,,,4,2.071,1,,,,,,0.443518603,-0.258333347,1,0,0,2.0708,Gabbro_rect,1,0,1,0,1,
6132542039ead71f30971bd6,TCN,2024-06-11_14h55.29.142,LearnStrategy,2023.2.3,Win32,59.88023952,5,2,3,,,,,,,,2,12,,,,,,,,,,,8,2.189,0,,,,,,0.388888889,-0.402777778,1,0,0,2.1888,Pumice_rect,2,0,2,0,1,
6132542039ead71f30971bd6,TCN,2024-06-11_14h55.29.142,LearnStrategy,2023.2.3,Win32,59.88023952,5,2,4,,,,,,,,6,13,,,,,,,,,,,8,3.225,0,,,,,,0.384259259,-0.398148148,1,0,0,3.2249,Pumice_rect,3,0,3,0,1,
6132542039ead71f30971bd6,TCN,2024-06-11_14h55.29.142,LearnStrategy,2023.2.3,Win32,59.88023952,5,2,5,,,,,,,,5,04,,,,,,,,,,,5,0.971,1,,,,,,-0.309259238,-0.415740755,1,0,0,0.9713,Obsidian_rect,4,0,4,0,1,
6132542039ead71f30971bd6,TCN,2024-06-11_14h55.29.142,LearnStrategy,2023.2.3,Win32,59.88023952,5,2,6,,,,,,,,8,02,,,,,,,,,,,8,0.992,1,,,,,,0.474074046,-0.410185213,1,0,0,0.9923,Pumice_rect,5,0,5,0,1,
6132542039ead71f30971bd6,TCN,2024-06-11_14h55.29.142,LearnStrategy,2023.2.3,Win32,59.88023952,5,2,7,,,,,,,,7,07,,,,,,,,,,,6,1.59,0,,,,,,-0.058333291,-0.411111125,1,0,0,1.5902,Pegmatite_rect,6,0,6,0,1,
6132542039ead71f30971bd6,TCN,2024-06-11_14h55.29.142,LearnStrategy,2023.2.3,Win32,59.88023952,5,2,8,,,,,,,,8,14,,,,,,,,,,,8,1.242,1,,,,,,0.381481453,-0.417592578,1,0,0,1.2418,Pumice_rect,7,0,7,0,1,
6132542039ead71f30971bd6,TCN,2024-06-11_14h55.29.142,LearnStrategy,2023.2.3,Win32,59.88023952,5,2,9,,,,,,,,2,16,,,,,,,,,,,4,1.358,0,,,,,,0.406481566,-0.246296282,1,0,0,1.3579,Gabbro_rect,8,0,8,0,1,
6132542039ead71f30971bd6,TCN,2024-06-11_14h55.29.142,LearnStrategy,2023.2.3,Win32,59.88023952,5,2,10,,,,,,,,7,10,,,,,,,,,,,7,1.126,1,,,,,,0.157407407,-0.383333347,1,0,0,1.1265,Peridotite_rect,9,0,9,0,1,
6132542039ead71f30971bd6,TCN,2024-06-11_14h55.29.142,LearnStrategy,2023.2.3,Win32,59.88023952,5,2,11,,,,,,,,3,08,,,,,,,,,,,6,0.773,0,,,,,,-0.079629616,-0.390740783,1,0,0,0.7728,Pegmatite_rect,10,0,10,0,1,
6132542039ead71f30971bd6,TCN,2024-06-11_14h55.29.142,LearnStrategy,2023.2.3,Win32,59.88023952,5,2,12,,,,,,,,4,10,,,,,,,,,,,2,1.928,0,,,,,,-0.102777764,-0.264814801,1,0,0,1.9275,Basalt_rect,11,0,11,0,1,
6132542039ead71f30971bd6,TCN,2024-06-11_14h55.29.142,LearnStrategy,2023.2.3,Win32,59.88023952,5,2,13,,,,,,,,1,03,,,,,,,,,,,2,0.992,0,,,,,,-0.099999958,-0.261111153,1,0,0,0.9918,Basalt_rect,12,0,12,0,1,
6132542039ead71f30971bd6,TCN,2024-06-11_14h55.29.142,LearnStrategy,2023.2.3,Win32,59.88023952,5,2,14,,,,,,,,3,14,,,,,,,,,,,1,1.026,0,,,,,,-0.361111111,-0.237963005,1,0,0,1.0259,Andesite_rect,13,0,13,0,1,
6132542039ead71f30971bd6,TCN,2024-06-11_14h55.29.142,LearnStrategy,2023.2.3,Win32,59.88023952,5,2,15,,,,,,,,6,03,,,,,,,,,,,1,1.774,0,,,,,,-0.355555534,-0.256481524,1,0,0,1.7741,Andesite_rect,14,0,14,0,1,
6132542039ead71f30971bd6,TCN,2024-06-11_14h55.29.142,LearnStrategy,2023.2.3,Win32,59.88023952,5,2,16,,,,,,,,1,11,,,,,,,,,,,7,0.626,0,,,,,,0.156481496,-0.39907406,1,0,0,0.6258,Peridotite_rect,15,0,15,0,1,
6132542039ead71f30971bd6,TCN,2024-06-11_14h55.29.142,LearnStrategy,2023.2.3,Win32,59.88023952,6,1,1,-0.023148148,-0.00462963,1,0,0,0.9812,rock_grid_rect_2,6,06,-1,-1,0.981,-0.130555541,-0.262962977,1,0,0,0.6592,Basalt_rect,2,0.659,0,0,0,0,0,1,,,,,,,,,,,,,
6132542039ead71f30971bd6,TCN,2024-06-11_14h55.29.142,LearnStrategy,2023.2.3,Win32,59.88023952,6,1,2,0.102777764,0.005555541,1,0,0,1.6481,rock_grid_rect_2,7,05,-1,-1,1.648,0.347222222,-0.387037065,1,0,0,0.7913,Pumice_rect,8,0.791,0,1,0,1,0,1,,,,,,,,,,,,,
6132542039ead71f30971bd6,TCN,2024-06-11_14h55.29.142,LearnStrategy,2023.2.3,Win32,59.88023952,6,1,3,0.018518519,-0.001851859,1,0,0,0.9304,rock_grid_rect_2,1,01,-1,-1,0.93,0.093518504,-0.258333347,1,0,0,3.4417,Diorite_rect,3,3.442,0,2,0,2,0,1,,,,,,,,,,,,,
6132542039ead71f30971bd6,TCN,2024-06-11_14h55.29.142,LearnStrategy,2023.2.3,Win32,59.88023952,6,1,4,0.02407406,-0.008333347,1,0,0,0.9636,rock_grid_rect_2,8,16,-1,-1,0.964,0.401851937,-0.402777778,1,0,0,1.8264,Pumice_rect,8,1.826,1,3,0,3,0,1,,,,,,,,,,,,,
6132542039ead71f30971bd6,TCN,2024-06-11_14h55.29.142,LearnStrategy,2023.2.3,Win32,59.88023952,6,1,5,0.035185213,0,1,0,0,0.6808,rock_grid_rect_2,3,07,-1,-1,0.681,0.128703718,-0.400000042,1,0,0,1.1603,Peridotite_rect,7,1.16,0,4,0,4,0,1,,,,,,,,,,,,,
6132542039ead71f30971bd6,TCN,2024-06-11_14h55.29.142,LearnStrategy,2023.2.3,Win32,59.88023952,6,1,6,0.086111139,-0.022222236,1,0,0,0.9477,rock_grid_rect_2,5,11,-1,-1,0.948,-0.377777771,-0.389814801,1,0,0,1.1258,Obsidian_rect,5,1.126,1,5,0,5,0,1,,,,,,,,,,,,,
6132542039ead71f30971bd6,TCN,2024-06-11_14h55.29.142,LearnStrategy,2023.2.3,Win32,59.88023952,6,1,7,0.036111125,0.000925912,1,0,0,0.8483,rock_grid_rect_2,6,05,-1,-1,0.848,-0.086111069,-0.387962977,1,0,0,1.96,Pegmatite_rect,6,1.96,1,6,0,6,0,1,,,,,,,,,,,,,
6132542039ead71f30971bd6,TCN,2024-06-11_14h55.29.142,LearnStrategy,2023.2.3,Win32,59.88023952,6,1,8,-0.046296296,0.006481489,1,0,0,0.7311,rock_grid_rect_2,7,06,-1,-1,0.731,-0.07222218,-0.389814801,1,0,0,0.9428,Pegmatite_rect,6,0.943,0,7,0,7,0,1,,,,,,,,,,,,,
6132542039ead71f30971bd6,TCN,2024-06-11_14h55.29.142,LearnStrategy,2023.2.3,Win32,59.88023952,6,1,9,0.005555541,0.001851859,1,0,0,0.9643,rock_grid_rect_2,5,08,-1,-1,0.964,-0.368518511,-0.417592578,1,0,0,1.012,Obsidian_rect,5,1.012,1,8,0,8,0,1,,,,,,,,,,,,,
6132542039ead71f30971bd6,TCN,2024-06-11_14h55.29.142,LearnStrategy,2023.2.3,Win32,59.88023952,6,1,10,-0.018518519,-0.020370377,1,0,0,0.6155,rock_grid_rect_2,1,10,-1,-1,0.615,0.179629644,-0.264814801,1,0,0,2.3099,Diorite_rect,3,2.31,0,9,0,9,0,1,,,,,,,,,,,,,
6132542039ead71f30971bd6,TCN,2024-06-11_14h55.29.142,LearnStrategy,2023.2.3,Win32,59.88023952,6,1,11,0.001851894,0.020370377,1,0,0,0.8644,rock_grid_rect_2,4,11,-1,-1,0.864,-0.327777757,-0.25,1,0,0,1.2942,Andesite_rect,1,1.294,0,10,0,10,0,1,,,,,,,,,,,,,
6132542039ead71f30971bd6,TCN,2024-06-11_14h55.29.142,LearnStrategy,2023.2.3,Win32,59.88023952,6,1,12,-0.002777735,-0.013888889,1,0,0,1.6651,rock_grid_rect_2,4,13,-1,-1,1.665,0.377777806,-0.260185171,1,0,0,1.2577,Gabbro_rect,4,1.258,1,11,0,11,0,1,,,,,,,,,,,,,
6132542039ead71f30971bd6,TCN,2024-06-11_14h55.29.142,LearnStrategy,2023.2.3,Win32,59.88023952,6,1,13,0.008333347,0.00462963,1,0,0,0.9146,rock_grid_rect_2,3,11,-1,-1,0.915,0.133333347,-0.264814801,1,0,0,1.7265,Diorite_rect,3,1.726,1,12,0,12,0,1,,,,,,,,,,,,,
6132542039ead71f30971bd6,TCN,2024-06-11_14h55.29.142,LearnStrategy,2023.2.3,Win32,59.88023952,6,1,14,0.029629672,0,1,0,0,0.9317,rock_grid_rect_2,2,02,-1,-1,0.932,-0.056481467,-0.260185171,1,0,0,1.5746,Basalt_rect,2,1.575,1,13,0,13,0,1,,,,,,,,,,,,,
6132542039ead71f30971bd6,TCN,2024-06-11_14h55.29.142,LearnStrategy,2023.2.3,Win32,59.88023952,6,1,15,-0.012036995,0.003703683,1,0,0,0.7648,rock_grid_rect_2,2,01,-1,-1,0.765,-0.051851838,-0.261111153,1,0,0,0.9747,Basalt_rect,2,0.975,1,14,0,14,0,1,,,,,,,,,,,,,
6132542039ead71f30971bd6,TCN,2024-06-11_14h55.29.142,LearnStrategy,2023.2.3,Win32,59.88023952,6,1,16,-0.012962977,-0.014814836,1,0,0,0.7825,rock_grid_rect_2,8,15,-1,-1,0.782,0.436111168,-0.382407436,1,0,0,1.0257,Pumice_rect,8,1.026,1,15,0,15,0,1,,,,,,,,,,,,,
6132542039ead71f30971bd6,TCN,2024-06-11_14h55.29.142,LearnStrategy,2023.2.3,Win32,59.88023952,6,2,1,,,,,,,,3,16,,,,,,,,,,,4,4.908,0,,,,,,0.345370399,-0.261111153,1,0,0,4.908,Gabbro_rect,0,0,0,0,1,
6132542039ead71f30971bd6,TCN,2024-06-11_14h55.29.142,LearnStrategy,2023.2.3,Win32,59.88023952,6,2,2,,,,,,,,4,01,,,,,,,,,,,4,1.804,1,,,,,,0.3648149,-0.258333347,1,0,0,1.8036,Gabbro_rect,1,0,1,0,1,
6132542039ead71f30971bd6,TCN,2024-06-11_14h55.29.142,LearnStrategy,2023.2.3,Win32,59.88023952,6,2,3,,,,,,,,6,09,,,,,,,,,,,3,2.175,0,,,,,,0.140740783,-0.25462963,1,0,0,2.1753,Diorite_rect,2,0,2,0,1,
6132542039ead71f30971bd6,TCN,2024-06-11_14h55.29.142,LearnStrategy,2023.2.3,Win32,59.88023952,6,2,4,,,,,,,,3,13,,,,,,,,,,,7,2.758,0,,,,,,0.112963005,-0.406481496,1,0,0,2.7581,Peridotite_rect,3,0,3,0,1,
6132542039ead71f30971bd6,TCN,2024-06-11_14h55.29.142,LearnStrategy,2023.2.3,Win32,59.88023952,6,2,5,,,,,,,,8,06,,,,,,,,,,,8,2.57,1,,,,,,0.402777778,-0.396296325,1,0,0,2.5701,Pumice_rect,4,0,4,0,1,
6132542039ead71f30971bd6,TCN,2024-06-11_14h55.29.142,LearnStrategy,2023.2.3,Win32,59.88023952,6,2,6,,,,,,,,2,05,,,,,,,,,,,4,1.572,0,,,,,,0.454629686,-0.255555541,1,0,0,1.5724,Gabbro_rect,5,0,5,0,1,
6132542039ead71f30971bd6,TCN,2024-06-11_14h55.29.142,LearnStrategy,2023.2.3,Win32,59.88023952,6,2,7,,,,,,,,8,08,,,,,,,,,,,8,0.925,1,,,,,,0.353703675,-0.387962977,1,0,0,0.9253,Pumice_rect,6,0,6,0,1,
6132542039ead71f30971bd6,TCN,2024-06-11_14h55.29.142,LearnStrategy,2023.2.3,Win32,59.88023952,6,2,8,,,,,,,,5,14,,,,,,,,,,,5,1.074,1,,,,,,-0.356481481,-0.420370384,1,0,0,1.0742,Obsidian_rect,7,0,7,0,1,
6132542039ead71f30971bd6,TCN,2024-06-11_14h55.29.142,LearnStrategy,2023.2.3,Win32,59.88023952,6,2,9,,,,,,,,5,06,,,,,,,,,,,5,0.974,1,,,,,,-0.340740734,-0.395370413,1,0,0,0.974,Obsidian_rect,8,0,8,0,1,
6132542039ead71f30971bd6,TCN,2024-06-11_14h55.29.142,LearnStrategy,2023.2.3,Win32,59.88023952,6,2,10,,,,,,,,1,07,,,,,,,,,,,7,1.074,0,,,,,,0.116666653,-0.391666695,1,0,0,1.0742,Peridotite_rect,9,0,9,0,1,
6132542039ead71f30971bd6,TCN,2024-06-11_14h55.29.142,LearnStrategy,2023.2.3,Win32,59.88023952,6,2,11,,,,,,,,1,16,,,,,,,,,,,3,0.824,0,,,,,,0.143518519,-0.270370413,1,0,0,0.8239,Diorite_rect,10,0,10,0,1,
6132542039ead71f30971bd6,TCN,2024-06-11_14h55.29.142,LearnStrategy,2023.2.3,Win32,59.88023952,6,2,12,,,,,,,,2,09,,,,,,,,,,,2,1.675,1,,,,,,-0.088888875,-0.255555541,1,0,0,1.6753,Basalt_rect,11,0,11,0,1,
6132542039ead71f30971bd6,TCN,2024-06-11_14h55.29.142,LearnStrategy,2023.2.3,Win32,59.88023952,6,2,13,,,,,,,,7,02,,,,,,,,,,,6,1.96,0,,,,,,-0.076851809,-0.405555584,1,0,0,1.9603,Pegmatite_rect,12,0,12,0,1,
6132542039ead71f30971bd6,TCN,2024-06-11_14h55.29.142,LearnStrategy,2023.2.3,Win32,59.88023952,6,2,14,,,,,,,,4,03,,,,,,,,,,,4,1.839,1,,,,,,0.399074131,-0.26944443,1,0,0,1.8389,Gabbro_rect,13,0,13,0,1,
6132542039ead71f30971bd6,TCN,2024-06-11_14h55.29.142,LearnStrategy,2023.2.3,Win32,59.88023952,6,2,15,,,,,,,,6,15,,,,,,,,,,,7,1.008,0,,,,,,0.119444459,-0.396296325,1,0,0,1.0081,Peridotite_rect,14,0,14,0,1,
6132542039ead71f30971bd6,TCN,2024-06-11_14h55.29.142,LearnStrategy,2023.2.3,Win32,59.88023952,6,2,16,,,,,,,,7,16,,,,,,,,,,,6,0.608,0,,,,,,-0.060185185,-0.404629672,1,0,0,0.6075,Pegmatite_rect,15,0,15,0,1,
6132542039ead71f30971bd6,TCN,2024-06-11_14h55.29.142,LearnStrategy,2023.2.3,Win32,59.88023952,7,1,1,-0.049074032,0.018518519,1,0,0,0.9987,rock_grid_rect_2,7,04,-1,-1,0.999,-0.110185199,-0.231481481,1,0,0,0.8755,Basalt_rect,2,0.875,0,0,0,0,0,1,,,,,,,,,,,,,
6132542039ead71f30971bd6,TCN,2024-06-11_14h55.29.142,LearnStrategy,2023.2.3,Win32,59.88023952,7,1,2,0.037962949,0.001851859,1,0,0,0.9637,rock_grid_rect_2,7,06,-1,-1,0.964,0.127777806,-0.389814801,1,0,0,0.9104,Peridotite_rect,7,0.91,1,1,0,1,0,1,,,,,,,,,,,,,
6132542039ead71f30971bd6,TCN,2024-06-11_14h55.29.142,LearnStrategy,2023.2.3,Win32,59.88023952,7,1,3,0.064814815,-0.014814836,1,0,0,0.8307,rock_grid_rect_2,5,09,-1,-1,0.831,-0.324074074,-0.406481496,1,0,0,1.5934,Obsidian_rect,5,1.593,1,2,0,2,0,1,,,,,,,,,,,,,
6132542039ead71f30971bd6,TCN,2024-06-11_14h55.29.142,LearnStrategy,2023.2.3,Win32,59.88023952,7,1,4,-0.00462963,-0.020370377,1,0,0,0.8494,rock_grid_rect_2,4,12,-1,-1,0.849,-0.070370356,-0.260185171,1,0,0,1.7438,Basalt_rect,2,1.744,0,3,0,3,0,1,,,,,,,,,,,,,
6132542039ead71f30971bd6,TCN,2024-06-11_14h55.29.142,LearnStrategy,2023.2.3,Win32,59.88023952,7,1,5,0.012037065,-0.0074074,1,0,0,0.9482,rock_grid_rect_2,3,02,-1,-1,0.948,-0.125,-0.405555584,1,0,0,2.1271,Pegmatite_rect,6,2.127,0,4,0,4,0,1,,,,,,,,,,,,,
6132542039ead71f30971bd6,TCN,2024-06-11_14h55.29.142,LearnStrategy,2023.2.3,Win32,59.88023952,7,1,6,0.060185185,-0.009259259,1,0,0,0.9967,rock_grid_rect_2,3,11,-1,-1,0.997,0.136111153,-0.388888889,1,0,0,0.695,Peridotite_rect,7,0.695,0,5,0,5,0,1,,,,,,,,,,,,,
6132542039ead71f30971bd6,TCN,2024-06-11_14h55.29.142,LearnStrategy,2023.2.3,Win32,59.88023952,7,1,7,-0.051851838,-0.012962977,1,0,0,0.8994,rock_grid_rect_2,1,06,-1,-1,0.899,-0.10555557,-0.237037023,1,0,0,1.5782,Basalt_rect,2,1.578,0,6,0,6,0,1,,,,,,,,,,,,,
6132542039ead71f30971bd6,TCN,2024-06-11_14h55.29.142,LearnStrategy,2023.2.3,Win32,59.88023952,7,1,8,0.018518519,-0.015740748,1,0,0,0.8806,rock_grid_rect_2,5,07,-1,-1,0.881,-0.314814815,-0.378703718,1,0,0,1.0451,Obsidian_rect,5,1.045,1,7,0,7,0,1,,,,,,,,,,,,,
6132542039ead71f30971bd6,TCN,2024-06-11_14h55.29.142,LearnStrategy,2023.2.3,Win32,59.88023952,7,1,9,0.010185171,-0.006481489,1,0,0,0.8661,rock_grid_rect_2,1,01,-1,-1,0.866,0.394444501,-0.390740783,1,0,0,1.2776,Pumice_rect,8,1.278,0,8,0,8,0,1,,,,,,,,,,,,,
6132542039ead71f30971bd6,TCN,2024-06-11_14h55.29.142,LearnStrategy,2023.2.3,Win32,59.88023952,7,1,10,0.050925926,-0.01203703,1,0,0,4.7969,rock_grid_rect_2,6,12,-1,-1,4.797,-0.094444416,-0.26944443,1,0,0,1.9595,Basalt_rect,2,1.959,0,9,0,9,0,1,,,,,,,,,,,,,
6132542039ead71f30971bd6,TCN,2024-06-11_14h55.29.142,LearnStrategy,2023.2.3,Win32,59.88023952,7,1,11,0.012962977,-0.0074074,1,0,0,1.0307,rock_grid_rect_2,2,14,-1,-1,1.031,0.390740712,-0.253703718,1,0,0,1.158,Gabbro_rect,4,1.158,0,10,0,10,0,1,,,,,,,,,,,,,
6132542039ead71f30971bd6,TCN,2024-06-11_14h55.29.142,LearnStrategy,2023.2.3,Win32,59.88023952,7,1,12,0.051851838,-0.006481489,1,0,0,1.031,rock_grid_rect_2,4,09,-1,-1,1.031,0.115740741,-0.412037037,1,0,0,1.143,Peridotite_rect,7,1.143,0,11,0,11,0,1,,,,,,,,,,,,,
6132542039ead71f30971bd6,TCN,2024-06-11_14h55.29.142,LearnStrategy,2023.2.3,Win32,59.88023952,7,1,13,0.086111139,-0.001851859,1,0,0,0.9822,rock_grid_rect_2,8,10,-1,-1,0.982,0.3648149,-0.39907406,1,0,0,1.81,Pumice_rect,8,1.81,1,12,0,12,0,1,,,,,,,,,,,,,
6132542039ead71f30971bd6,TCN,2024-06-11_14h55.29.142,LearnStrategy,2023.2.3,Win32,59.88023952,7,1,14,0.02407406,0.010185171,1,0,0,0.8138,rock_grid_rect_2,6,07,-1,-1,0.814,-0.112962935,-0.387962977,1,0,0,1.9267,Pegmatite_rect,6,1.927,1,13,0,13,0,1,,,,,,,,,,,,,
6132542039ead71f30971bd6,TCN,2024-06-11_14h55.29.142,LearnStrategy,2023.2.3,Win32,59.88023952,7,1,15,0.015740783,-0.0074074,1,0,0,0.8304,rock_grid_rect_2,2,06,-1,-1,0.83,-0.085185157,-0.242592635,1,0,0,1.0767,Basalt_rect,2,1.077,1,14,0,14,0,1,,,,,,,,,,,,,
6132542039ead71f30971bd6,TCN,2024-06-11_14h55.29.142,LearnStrategy,2023.2.3,Win32,59.88023952,7,1,16,0.030555584,0.005555541,1,0,0,0.7817,rock_grid_rect_2,8,05,-1,-1,0.782,0.397222307,-0.397222236,1,0,0,1.0617,Pumice_rect,8,1.062,1,15,0,15,0,1,,,,,,,,,,,,,
6132542039ead71f30971bd6,TCN,2024-06-11_14h55.29.142,LearnStrategy,2023.2.3,Win32,59.88023952,7,2,1,,,,,,,,4,08,,,,,,,,,,,4,3.31,1,,,,,,0.435185185,-0.264814801,1,0,0,3.3099,Gabbro_rect,0,0,0,0,1,
6132542039ead71f30971bd6,TCN,2024-06-11_14h55.29.142,LearnStrategy,2023.2.3,Win32,59.88023952,7,2,2,,,,,,,,5,02,,,,,,,,,,,5,0.994,1,,,,,,-0.384259259,-0.404629672,1,0,0,0.9944,Obsidian_rect,1,0,1,0,1,
6132542039ead71f30971bd6,TCN,2024-06-11_14h55.29.142,LearnStrategy,2023.2.3,Win32,59.88023952,7,2,3,,,,,,,,6,08,,,,,,,,,,,7,1.226,0,,,,,,0.125,-0.400925954,1,0,0,1.2257,Peridotite_rect,2,0,2,0,1,
6132542039ead71f30971bd6,TCN,2024-06-11_14h55.29.142,LearnStrategy,2023.2.3,Win32,59.88023952,7,2,4,,,,,,,,8,08,,,,,,,,,,,8,0.994,1,,,,,,0.381481453,-0.386111153,1,0,0,0.9939,Pumice_rect,3,0,3,0,1,
6132542039ead71f30971bd6,TCN,2024-06-11_14h55.29.142,LearnStrategy,2023.2.3,Win32,59.88023952,7,2,5,,,,,,,,3,13,,,,,,,,,,,4,1.993,0,,,,,,0.40833339,-0.252777806,1,0,0,1.9933,Gabbro_rect,4,0,4,0,1,
6132542039ead71f30971bd6,TCN,2024-06-11_14h55.29.142,LearnStrategy,2023.2.3,Win32,59.88023952,7,2,6,,,,,,,,5,04,,,,,,,,,,,5,1.142,1,,,,,,-0.412962949,-0.414814843,1,0,0,1.1419,Obsidian_rect,5,0,5,0,1,
6132542039ead71f30971bd6,TCN,2024-06-11_14h55.29.142,LearnStrategy,2023.2.3,Win32,59.88023952,7,2,7,,,,,,,,1,04,,,,,,,,,,,1,2.992,1,,,,,,-0.392592571,-0.252777806,1,0,0,2.9919,Andesite_rect,6,0,6,0,1,
6132542039ead71f30971bd6,TCN,2024-06-11_14h55.29.142,LearnStrategy,2023.2.3,Win32,59.88023952,7,2,8,,,,,,,,8,06,,,,,,,,,,,8,1.856,1,,,,,,0.339814787,-0.395370413,1,0,0,1.8559,Pumice_rect,7,0,7,0,1,
6132542039ead71f30971bd6,TCN,2024-06-11_14h55.29.142,LearnStrategy,2023.2.3,Win32,59.88023952,7,2,9,,,,,,,,1,03,,,,,,,,,,,2,1.157,0,,,,,,-0.099999958,-0.25462963,1,0,0,1.1569,Basalt_rect,8,0,8,0,1,
6132542039ead71f30971bd6,TCN,2024-06-11_14h55.29.142,LearnStrategy,2023.2.3,Win32,59.88023952,7,2,10,,,,,,,,6,03,,,,,,,,,,,1,2.023,0,,,,,,-0.388888889,-0.255555541,1,0,0,2.0226,Andesite_rect,9,0,9,0,1,
6132542039ead71f30971bd6,TCN,2024-06-11_14h55.29.142,LearnStrategy,2023.2.3,Win32,59.88023952,7,2,11,,,,,,,,7,08,,,,,,,,,,,7,1.141,1,,,,,,0.186111097,-0.378703718,1,0,0,1.1406,Peridotite_rect,10,0,10,0,1,
6132542039ead71f30971bd6,TCN,2024-06-11_14h55.29.142,LearnStrategy,2023.2.3,Win32,59.88023952,7,2,12,,,,,,,,7,16,,,,,,,,,,,6,0.673,0,,,,,,-0.057407379,-0.392592607,1,0,0,0.6725,Pegmatite_rect,11,0,11,0,1,
6132542039ead71f30971bd6,TCN,2024-06-11_14h55.29.142,LearnStrategy,2023.2.3,Win32,59.88023952,7,2,13,,,,,,,,2,12,,,,,,,,,,,2,1.257,1,,,,,,-0.130555541,-0.241666653,1,0,0,1.257,Basalt_rect,12,0,12,0,1,
6132542039ead71f30971bd6,TCN,2024-06-11_14h55.29.142,LearnStrategy,2023.2.3,Win32,59.88023952,7,2,14,,,,,,,,4,01,,,,,,,,,,,3,2.191,0,,,,,,0.150000042,-0.243518547,1,0,0,2.1906,Diorite_rect,13,0,13,0,1,
6132542039ead71f30971bd6,TCN,2024-06-11_14h55.29.142,LearnStrategy,2023.2.3,Win32,59.88023952,7,2,15,,,,,,,,2,05,,,,,,,,,,,7,0.87,0,,,,,,0.090740769,-0.383333347,1,0,0,0.8695,Peridotite_rect,14,0,14,0,1,
6132542039ead71f30971bd6,TCN,2024-06-11_14h55.29.142,LearnStrategy,2023.2.3,Win32,59.88023952,7,2,16,,,,,,,,3,08,,,,,,,,,,,6,0.991,0,,,,,,-0.077777792,-0.398148148,1,0,0,0.9911,Pegmatite_rect,15,0,15,0,1,
6132542039ead71f30971bd6,TCN,2024-06-11_14h55.29.142,LearnStrategy,2023.2.3,Win32,59.88023952,8,1,1,-0.034259231,0.001851859,1,0,0,0.8483,rock_grid_rect_2,4,11,-1,-1,0.848,-0.088888875,-0.240740741,1,0,0,1.1241,Basalt_rect,2,1.124,0,0,0,0,0,1,,,,,,,,,,,,,
6132542039ead71f30971bd6,TCN,2024-06-11_14h55.29.142,LearnStrategy,2023.2.3,Win32,59.88023952,8,1,2,0.01944443,-0.013888889,1,0,0,0.9314,rock_grid_rect_2,8,03,-1,-1,0.931,0.376851824,-0.386111153,1,0,0,1.0928,Pumice_rect,8,1.093,1,1,0,1,0,1,,,,,,,,,,,,,
6132542039ead71f30971bd6,TCN,2024-06-11_14h55.29.142,LearnStrategy,2023.2.3,Win32,59.88023952,8,1,3,0.02407406,-0.017592607,1,0,0,1.2327,rock_grid_rect_2,8,15,-1,-1,1.233,0.417592649,-0.406481496,1,0,0,0.9584,Pumice_rect,8,0.958,1,2,0,2,0,1,,,,,,,,,,,,,
6132542039ead71f30971bd6,TCN,2024-06-11_14h55.29.142,LearnStrategy,2023.2.3,Win32,59.88023952,8,1,4,0.010185171,-0.013888889,1,0,0,1.364,rock_grid_rect_2,7,14,-1,-1,1.364,0.131481524,-0.393518519,1,0,0,8.2427,Peridotite_rect,7,8.243,1,3,0,3,0,1,,,,,,,,,,,,,
6132542039ead71f30971bd6,TCN,2024-06-11_14h55.29.142,LearnStrategy,2023.2.3,Win32,59.88023952,8,1,5,-0.006481453,-0.005555577,1,0,0,0.9979,rock_grid_rect_2,6,06,-1,-1,0.998,-0.082407422,-0.395370413,1,0,0,2.1097,Pegmatite_rect,6,2.11,1,4,0,4,0,1,,,,,,,,,,,,,
6132542039ead71f30971bd6,TCN,2024-06-11_14h55.29.142,LearnStrategy,2023.2.3,Win32,59.88023952,8,1,6,0.002777806,0.003703683,1,0,0,0.999,rock_grid_rect_2,5,11,-1,-1,0.999,-0.393518519,-0.397222236,1,0,0,0.993,Obsidian_rect,5,0.993,1,5,0,5,0,1,,,,,,,,,,,,,
6132542039ead71f30971bd6,TCN,2024-06-11_14h55.29.142,LearnStrategy,2023.2.3,Win32,59.88023952,8,1,7,-0.007407365,-0.006481489,1,0,0,0.8478,rock_grid_rect_2,1,02,-1,-1,0.848,0.409259231,-0.416666667,1,0,0,1.9608,Pumice_rect,8,1.961,0,6,0,6,0,1,,,,,,,,,,,,,
6132542039ead71f30971bd6,TCN,2024-06-11_14h55.29.142,LearnStrategy,2023.2.3,Win32,59.88023952,8,1,8,-0.020370342,-0.002777771,1,0,0,0.9305,rock_grid_rect_2,5,12,-1,-1,0.931,-0.343518504,-0.390740783,1,0,0,0.9904,Obsidian_rect,5,0.99,1,7,0,7,0,1,,,,,,,,,,,,,
6132542039ead71f30971bd6,TCN,2024-06-11_14h55.29.142,LearnStrategy,2023.2.3,Win32,59.88023952,8,1,9,0.013888889,-0.015740748,1,0,0,1.0477,rock_grid_rect_2,3,06,-1,-1,1.048,0.136111153,-0.236111111,1,0,0,8.6609,Diorite_rect,3,8.661,1,8,0,8,0,1,,,,,,,,,,,,,
6132542039ead71f30971bd6,TCN,2024-06-11_14h55.29.142,LearnStrategy,2023.2.3,Win32,59.88023952,8,1,10,-0.012962977,0,1,0,0,0.9493,rock_grid_rect_2,1,09,-1,-1,0.949,-0.036111125,-0.260185171,1,0,0,1.4117,Basalt_rect,2,1.412,0,9,0,9,0,1,,,,,,,,,,,,,
6132542039ead71f30971bd6,TCN,2024-06-11_14h55.29.142,LearnStrategy,2023.2.3,Win32,59.88023952,8,1,11,-0.010185171,-0.003703718,1,0,0,0.8323,rock_grid_rect_2,7,15,-1,-1,0.832,-0.125,-0.382407436,1,0,0,3.9452,Pegmatite_rect,6,3.945,0,10,0,10,0,1,,,,,,,,,,,,,
6132542039ead71f30971bd6,TCN,2024-06-11_14h55.29.142,LearnStrategy,2023.2.3,Win32,59.88023952,8,1,12,0.021296325,0.003703683,1,0,0,1.1141,rock_grid_rect_2,2,02,-1,-1,1.114,-0.097222222,-0.255555541,1,0,0,2.0782,Basalt_rect,2,2.078,1,11,0,11,0,1,,,,,,,,,,,,,
6132542039ead71f30971bd6,TCN,2024-06-11_14h55.29.142,LearnStrategy,2023.2.3,Win32,59.88023952,8,1,13,-0.034259231,-0.003703718,1,0,0,0.8997,rock_grid_rect_2,2,04,-1,-1,0.9,0.362962935,-0.271296325,1,0,0,1.307,Gabbro_rect,4,1.307,0,12,0,12,0,1,,,,,,,,,,,,,
6132542039ead71f30971bd6,TCN,2024-06-11_14h55.29.142,LearnStrategy,2023.2.3,Win32,59.88023952,8,1,14,-0.01944443,-0.015740748,1,0,0,0.8647,rock_grid_rect_2,6,10,-1,-1,0.865,0.099074116,-0.271296325,1,0,0,1.773,Diorite_rect,3,1.773,0,13,0,13,0,1,,,,,,,,,,,,,
6132542039ead71f30971bd6,TCN,2024-06-11_14h55.29.142,LearnStrategy,2023.2.3,Win32,59.88023952,8,1,15,-0.034259231,-0.013888889,1,0,0,0.964,rock_grid_rect_2,4,15,-1,-1,0.964,0.124074088,-0.393518519,1,0,0,0.9924,Peridotite_rect,7,0.992,0,14,0,14,0,1,,,,,,,,,,,,,
6132542039ead71f30971bd6,TCN,2024-06-11_14h55.29.142,LearnStrategy,2023.2.3,Win32,59.88023952,8,1,16,0.02407406,-0.017592607,1,0,0,0.8486,rock_grid_rect_2,3,07,-1,-1,0.849,-0.127777735,-0.419444473,1,0,0,0.8909,Pegmatite_rect,6,0.891,0,15,0,15,0,1,,,,,,,,,,,,,
6132542039ead71f30971bd6,TCN,2024-06-11_14h55.29.142,LearnStrategy,2023.2.3,Win32,59.88023952,8,2,1,,,,,,,,7,10,,,,,,,,,,,7,1.606,1,,,,,,0.127777806,-0.413888931,1,0,0,1.6063,Peridotite_rect,0,0,0,0,1,
6132542039ead71f30971bd6,TCN,2024-06-11_14h55.29.142,LearnStrategy,2023.2.3,Win32,59.88023952,8,2,2,,,,,,,,4,03,,,,,,,,,,,6,0.696,0,,,,,,-0.047222208,-0.381481524,1,0,0,0.6959,Pegmatite_rect,1,0,1,0,1,
6132542039ead71f30971bd6,TCN,2024-06-11_14h55.29.142,LearnStrategy,2023.2.3,Win32,59.88023952,8,2,3,,,,,,,,3,14,,,,,,,,,,,1,4.774,0,,,,,,-0.347222222,-0.236111111,1,0,0,4.7743,Andesite_rect,2,0,2,0,1,
6132542039ead71f30971bd6,TCN,2024-06-11_14h55.29.142,LearnStrategy,2023.2.3,Win32,59.88023952,8,2,4,,,,,,,,6,13,,,,,,,,,,,8,1.937,0,,,,,,0.382407436,-0.411111125,1,0,0,1.9374,Pumice_rect,3,0,3,0,1,
6132542039ead71f30971bd6,TCN,2024-06-11_14h55.29.142,LearnStrategy,2023.2.3,Win32,59.88023952,8,2,5,,,,,,,,1,07,,,,,,,,,,,6,2.69,0,,,,,,-0.064814815,-0.393518519,1,0,0,2.6901,Pegmatite_rect,4,0,4,0,1,
6132542039ead71f30971bd6,TCN,2024-06-11_14h55.29.142,LearnStrategy,2023.2.3,Win32,59.88023952,8,2,6,,,,,,,,8,02,,,,,,,,,,,8,1.153,1,,,,,,0.500925982,-0.410185213,1,0,0,1.1534,Pumice_rect,5,0,5,0,1,
6132542039ead71f30971bd6,TCN,2024-06-11_14h55.29.142,LearnStrategy,2023.2.3,Win32,59.88023952,8,2,7,,,,,,,,5,14,,,,,,,,,,,5,1.774,1,,,,,,-0.365740741,-0.396296325,1,0,0,1.7745,Obsidian_rect,6,0,6,0,1,
6132542039ead71f30971bd6,TCN,2024-06-11_14h55.29.142,LearnStrategy,2023.2.3,Win32,59.88023952,8,2,8,,,,,,,,4,10,,,,,,,,,,,2,5.24,0,,,,,,-0.123148106,-0.246296282,1,0,0,5.2405,Basalt_rect,7,0,7,0,1,
6132542039ead71f30971bd6,TCN,2024-06-11_14h55.29.142,LearnStrategy,2023.2.3,Win32,59.88023952,8,2,9,,,,,,,,1,11,,,,,,,,,,,2,1.472,0,,,,,,-0.125925912,-0.249074088,1,0,0,1.4718,Basalt_rect,8,0,8,0,1,
6132542039ead71f30971bd6,TCN,2024-06-11_14h55.29.142,LearnStrategy,2023.2.3,Win32,59.88023952,8,2,10,,,,,,,,8,14,,,,,,,,,,,8,1.778,1,,,,,,0.365740741,-0.401851866,1,0,0,1.7783,Pumice_rect,9,0,9,0,1,
6132542039ead71f30971bd6,TCN,2024-06-11_14h55.29.142,LearnStrategy,2023.2.3,Win32,59.88023952,8,2,11,,,,,,,,5,06,,,,,,,,,,,5,1.245,1,,,,,,-0.407407407,-0.40370369,1,0,0,1.2451,Obsidian_rect,10,0,10,0,1,
6132542039ead71f30971bd6,TCN,2024-06-11_14h55.29.142,LearnStrategy,2023.2.3,Win32,59.88023952,8,2,12,,,,,,,,2,10,,,,,,,,,,,4,1.694,0,,,,,,0.406481566,-0.237963005,1,0,0,1.6942,Gabbro_rect,11,0,11,0,1,
6132542039ead71f30971bd6,TCN,2024-06-11_14h55.29.142,LearnStrategy,2023.2.3,Win32,59.88023952,8,2,13,,,,,,,,6,15,,,,,,,,,,,3,2.642,0,,,,,,0.132407436,-0.229629658,1,0,0,2.6424,Diorite_rect,12,0,12,0,1,
6132542039ead71f30971bd6,TCN,2024-06-11_14h55.29.142,LearnStrategy,2023.2.3,Win32,59.88023952,8,2,14,,,,,,,,3,15,,,,,,,,,,,4,2.441,0,,,,,,0.37962963,-0.271296325,1,0,0,2.441,Gabbro_rect,13,0,13,0,1,
6132542039ead71f30971bd6,TCN,2024-06-11_14h55.29.142,LearnStrategy,2023.2.3,Win32,59.88023952,8,2,15,,,,,,,,7,13,,,,,,,,,,,7,2.94,1,,,,,,0.050925926,-0.404629672,1,0,0,2.9397,Peridotite_rect,14,0,14,0,1,
6132542039ead71f30971bd6,TCN,2024-06-11_14h55.29.142,LearnStrategy,2023.2.3,Win32,59.88023952,8,2,16,,,,,,,,2,08,,,,,,,,,,,2,1.97,1,,,,,,-0.10555557,-0.26944443,1,0,0,1.9695,Basalt_rect,15,0,15,0,1,
6132542039ead71f30971bd6,TCN,2024-06-11_14h55.29.142,LearnStrategy,2023.2.3,Win32,59.88023952,9,1,1,-0.04814812,0.013888889,1,0,0,1.0482,rock_grid_rect_2,2,11,-1,-1,1.048,-0.091666681,-0.248148176,1,0,0,1.4599,Basalt_rect,2,1.46,1,0,0,0,0,1,,,,,,,,,,,,,
6132542039ead71f30971bd6,TCN,2024-06-11_14h55.29.142,LearnStrategy,2023.2.3,Win32,59.88023952,9,1,2,-0.011111083,-0.021296289,1,0,0,1.7146,rock_grid_rect_2,6,11,-1,-1,1.715,0.140740783,-0.238888917,1,0,0,2.0598,Diorite_rect,3,2.06,0,1,0,1,0,1,,,,,,,,,,,,,
6132542039ead71f30971bd6,TCN,2024-06-11_14h55.29.142,LearnStrategy,2023.2.3,Win32,59.88023952,9,1,3,0.014814801,-0.000925947,1,0,0,1.0988,rock_grid_rect_2,5,08,-1,-1,1.099,-0.333333333,-0.382407436,1,0,0,1.3608,Obsidian_rect,5,1.361,1,2,0,2,0,1,,,,,,,,,,,,,
6132542039ead71f30971bd6,TCN,2024-06-11_14h55.29.142,LearnStrategy,2023.2.3,Win32,59.88023952,9,1,4,-0.026851866,-0.015740748,1,0,0,0.9325,rock_grid_rect_2,4,13,-1,-1,0.933,0.362962935,-0.253703718,1,0,0,1.2414,Gabbro_rect,4,1.241,1,3,0,3,0,1,,,,,,,,,,,,,
6132542039ead71f30971bd6,TCN,2024-06-11_14h55.29.142,LearnStrategy,2023.2.3,Win32,59.88023952,9,1,5,0.000925912,-0.005555577,1,0,0,0.8819,rock_grid_rect_2,7,05,-1,-1,0.882,-0.088888875,-0.389814801,1,0,0,1.426,Pegmatite_rect,6,1.426,0,4,0,4,0,1,,,,,,,,,,,,,
6132542039ead71f30971bd6,TCN,2024-06-11_14h55.29.142,LearnStrategy,2023.2.3,Win32,59.88023952,9,1,6,0.014814801,-0.015740748,1,0,0,1.4307,rock_grid_rect_2,3,12,-1,-1,1.431,0.087037051,-0.383333347,1,0,0,1.4579,Peridotite_rect,7,1.458,0,5,0,5,0,1,,,,,,,,,,,,,
6132542039ead71f30971bd6,TCN,2024-06-11_14h55.29.142,LearnStrategy,2023.2.3,Win32,59.88023952,9,1,7,0.035185213,-0.01666666,1,0,0,0.964,rock_grid_rect_2,4,16,-1,-1,0.964,0.392592677,-0.239814829,1,0,0,1.2262,Gabbro_rect,4,1.226,1,6,0,6,0,1,,,,,,,,,,,,,
6132542039ead71f30971bd6,TCN,2024-06-11_14h55.29.142,LearnStrategy,2023.2.3,Win32,59.88023952,9,1,8,0.006481524,-0.022222236,1,0,0,0.9821,rock_grid_rect_2,2,01,-1,-1,0.982,-0.091666681,-0.25462963,1,0,0,1.0424,Basalt_rect,2,1.042,1,7,0,7,0,1,,,,,,,,,,,,,
6132542039ead71f30971bd6,TCN,2024-06-11_14h55.29.142,LearnStrategy,2023.2.3,Win32,59.88023952,9,1,9,0.021296325,-0.024074095,1,0,0,0.8473,rock_grid_rect_2,1,10,-1,-1,0.847,-0.065740727,-0.253703718,1,0,0,1.0624,Basalt_rect,2,1.062,0,8,0,8,0,1,,,,,,,,,,,,,
6132542039ead71f30971bd6,TCN,2024-06-11_14h55.29.142,LearnStrategy,2023.2.3,Win32,59.88023952,9,1,10,-0.011111083,-0.019444466,1,0,0,0.8991,rock_grid_rect_2,3,09,-1,-1,0.899,-0.297222208,-0.265740783,1,0,0,1.5431,Andesite_rect,1,1.543,0,9,0,9,0,1,,,,,,,,,,,,,
6132542039ead71f30971bd6,TCN,2024-06-11_14h55.29.142,LearnStrategy,2023.2.3,Win32,59.88023952,9,1,11,0.001851894,-0.013888889,1,0,0,0.8976,rock_grid_rect_2,5,10,-1,-1,0.898,-0.344444452,-0.37962963,1,0,0,1.0413,Obsidian_rect,5,1.041,1,10,0,10,0,1,,,,,,,,,,,,,
6132542039ead71f30971bd6,TCN,2024-06-11_14h55.29.142,LearnStrategy,2023.2.3,Win32,59.88023952,9,1,12,0.032407407,0.010185171,1,0,0,1.0322,rock_grid_rect_2,7,12,-1,-1,1.032,-0.089814787,-0.408333319,1,0,0,1.9769,Pegmatite_rect,6,1.977,0,11,0,11,0,1,,,,,,,,,,,,,
6132542039ead71f30971bd6,TCN,2024-06-11_14h55.29.142,LearnStrategy,2023.2.3,Win32,59.88023952,9,1,13,0.044444473,-0.019444466,1,0,0,0.7804,rock_grid_rect_2,8,09,-1,-1,0.78,0.501851824,-0.420370384,1,0,0,1.874,Pumice_rect,8,1.874,1,12,0,12,0,1,,,,,,,,,,,,,
6132542039ead71f30971bd6,TCN,2024-06-11_14h55.29.142,LearnStrategy,2023.2.3,Win32,59.88023952,9,1,14,0.005555541,-0.00462963,1,0,0,1.1315,rock_grid_rect_2,8,16,-1,-1,1.131,0.369444529,-0.397222236,1,0,0,1.3434,Pumice_rect,8,1.343,1,13,0,13,0,1,,,,,,,,,,,,,
6132542039ead71f30971bd6,TCN,2024-06-11_14h55.29.142,LearnStrategy,2023.2.3,Win32,59.88023952,9,1,15,0.002777806,-0.021296289,1,0,0,0.7807,rock_grid_rect_2,6,05,-1,-1,0.781,0.12962963,-0.247222265,1,0,0,1.7604,Diorite_rect,3,1.76,0,14,0,14,0,1,,,,,,,,,,,,,
6132542039ead71f30971bd6,TCN,2024-06-11_14h55.29.142,LearnStrategy,2023.2.3,Win32,59.88023952,9,1,16,0.003703718,-0.01203703,1,0,0,1.0484,rock_grid_rect_2,1,05,-1,-1,1.048,0.10555557,-0.406481496,1,0,0,0.978,Peridotite_rect,7,0.978,0,15,0,15,0,1,,,,,,,,,,,,,
6132542039ead71f30971bd6,TCN,2024-06-11_14h55.29.142,LearnStrategy,2023.2.3,Win32,59.88023952,9,2,1,,,,,,,,3,16,,,,,,,,,,,2,2.458,0,,,,,,-0.119444459,-0.248148176,1,0,0,2.4584,Basalt_rect,0,0,0,0,1,
6132542039ead71f30971bd6,TCN,2024-06-11_14h55.29.142,LearnStrategy,2023.2.3,Win32,59.88023952,9,2,2,,,,,,,,3,10,,,,,,,,,,,7,2.135,0,,,,,,0.132407436,-0.400925954,1,0,0,2.1355,Peridotite_rect,1,0,1,0,1,
6132542039ead71f30971bd6,TCN,2024-06-11_14h55.29.142,LearnStrategy,2023.2.3,Win32,59.88023952,9,2,3,,,,,,,,7,07,,,,,,,,,,,6,0.609,0,,,,,,-0.050925926,-0.386111153,1,0,0,0.6087,Pegmatite_rect,2,0,2,0,1,
6132542039ead71f30971bd6,TCN,2024-06-11_14h55.29.142,LearnStrategy,2023.2.3,Win32,59.88023952,9,2,4,,,,,,,,8,13,,,,,,,,,,,8,1.075,1,,,,,,0.37037037,-0.395370413,1,0,0,1.0749,Pumice_rect,3,0,3,0,1,
6132542039ead71f30971bd6,TCN,2024-06-11_14h55.29.142,LearnStrategy,2023.2.3,Win32,59.88023952,9,2,5,,,,,,,,5,05,,,,,,,,,,,5,1.643,1,,,,,,-0.375,-0.402777778,1,0,0,1.6428,Obsidian_rect,4,0,4,0,1,
6132542039ead71f30971bd6,TCN,2024-06-11_14h55.29.142,LearnStrategy,2023.2.3,Win32,59.88023952,9,2,6,,,,,,,,2,16,,,,,,,,,,,4,1.143,0,,,,,,0.3648149,-0.252777806,1,0,0,1.1425,Gabbro_rect,5,0,5,0,1,
6132542039ead71f30971bd6,TCN,2024-06-11_14h55.29.142,LearnStrategy,2023.2.3,Win32,59.88023952,9,2,7,,,,,,,,6,09,,,,,,,,,,,7,1.625,0,,,,,,0.094444487,-0.392592607,1,0,0,1.6253,Peridotite_rect,6,0,6,0,1,
6132542039ead71f30971bd6,TCN,2024-06-11_14h55.29.142,LearnStrategy,2023.2.3,Win32,59.88023952,9,2,8,,,,,,,,1,16,,,,,,,,,,,6,0.788,0,,,,,,-0.045370384,-0.39907406,1,0,0,0.7879,Pegmatite_rect,7,0,7,0,1,
6132542039ead71f30971bd6,TCN,2024-06-11_14h55.29.142,LearnStrategy,2023.2.3,Win32,59.88023952,9,2,9,,,,,,,,7,02,,,,,,,,,,,6,0.624,0,,,,,,-0.045370384,-0.400000042,1,0,0,0.6241,Pegmatite_rect,8,0,8,0,1,
6132542039ead71f30971bd6,TCN,2024-06-11_14h55.29.142,LearnStrategy,2023.2.3,Win32,59.88023952,9,2,10,,,,,,,,1,14,,,,,,,,,,,7,1.04,0,,,,,,0.121296282,-0.409259302,1,0,0,1.0402,Peridotite_rect,9,0,9,0,1,
6132542039ead71f30971bd6,TCN,2024-06-11_14h55.29.142,LearnStrategy,2023.2.3,Win32,59.88023952,9,2,11,,,,,,,,6,16,,,,,,,,,,,3,1.543,0,,,,,,0.150000042,-0.250925912,1,0,0,1.5431,Diorite_rect,10,0,10,0,1,
6132542039ead71f30971bd6,TCN,2024-06-11_14h55.29.142,LearnStrategy,2023.2.3,Win32,59.88023952,9,2,12,,,,,,,,2,09,,,,,,,,,,,2,0.961,1,,,,,,-0.088888875,-0.250925912,1,0,0,0.9607,Basalt_rect,11,0,11,0,1,
6132542039ead71f30971bd6,TCN,2024-06-11_14h55.29.142,LearnStrategy,2023.2.3,Win32,59.88023952,9,2,13,,,,,,,,4,05,,,,,,,,,,,6,1.306,0,,,,,,-0.04814812,-0.391666695,1,0,0,1.3061,Pegmatite_rect,12,0,12,0,1,
6132542039ead71f30971bd6,TCN,2024-06-11_14h55.29.142,LearnStrategy,2023.2.3,Win32,59.88023952,9,2,14,,,,,,,,4,14,,,,,,,,,,,4,1.426,1,,,,,,0.392592677,-0.24537037,1,0,0,1.426,Gabbro_rect,13,0,13,0,1,
6132542039ead71f30971bd6,TCN,2024-06-11_14h55.29.142,LearnStrategy,2023.2.3,Win32,59.88023952,9,2,15,,,,,,,,5,16,,,,,,,,,,,5,1.041,1,,,,,,-0.291666667,-0.388888889,1,0,0,1.0412,Obsidian_rect,14,0,14,0,1,
6132542039ead71f30971bd6,TCN,2024-06-11_14h55.29.142,LearnStrategy,2023.2.3,Win32,59.88023952,9,2,16,,,,,,,,8,04,,,,,,,,,,,8,1.022,1,,,,,,0.390740712,-0.420370384,1,0,0,1.022,Pumice_rect,15,0,15,0,1,
6132542039ead71f30971bd6,TCN,2024-06-11_14h55.29.142,LearnStrategy,2023.2.3,Win32,59.88023952,,,,,,,,,,,,,,,,,,,,,,,,,,,,,,,,,,,,,,,,,,,0
6132542039ead71f30971bd6,TCN,2024-06-11_14h55.29.142,LearnStrategy,2023.2.3,Win32,59.88023952,,,,,,,,,,,,,,,,,,,,,,,,,,,,,,,,,,,,,,,,,,,
6132542039ead71f30971bd6,TCN,2024-06-11_14h55.29.142,LearnStrategy,2023.2.3,Win32,59.88023952,,,,,,,,,,,4,15,1,1,,,,,,,,,,,,,,,,,,,,,,,,,,,,,
6132542039ead71f30971bd6,TCN,2024-06-11_14h55.29.142,LearnStrategy,2023.2.3,Win32,59.88023952,,,,,,,,,,,4,11,1,2,,,,,,,,,,,,,,,,,,,,,,,,,,,,,
6132542039ead71f30971bd6,TCN,2024-06-11_14h55.29.142,LearnStrategy,2023.2.3,Win32,59.88023952,,,,,,,,,,,8,05,1,3,,,,,,,,,,,,,,,,,,,,,,,,,,,,,
6132542039ead71f30971bd6,TCN,2024-06-11_14h55.29.142,LearnStrategy,2023.2.3,Win32,59.88023952,,,,,,,,,,,1,06,1,4,,,,,,,,,,,,,,,,,,,,,,,,,,,,,
6132542039ead71f30971bd6,TCN,2024-06-11_14h55.29.142,LearnStrategy,2023.2.3,Win32,59.88023952,,,,,,,,,,,3,09,1,5,,,,,,,,,,,,,,,,,,,,,,,,,,,,,
6132542039ead71f30971bd6,TCN,2024-06-11_14h55.29.142,LearnStrategy,2023.2.3,Win32,59.88023952,,,,,,,,,,,1,01,1,6,,,,,,,,,,,,,,,,,,,,,,,,,,,,,
6132542039ead71f30971bd6,TCN,2024-06-11_14h55.29.142,LearnStrategy,2023.2.3,Win32,59.88023952,,,,,,,,,,,8,10,1,7,,,,,,,,,,,,,,,,,,,,,,,,,,,,,
6132542039ead71f30971bd6,TCN,2024-06-11_14h55.29.142,LearnStrategy,2023.2.3,Win32,59.88023952,,,,,,,,,,,5,07,1,8,,,,,,,,,,,,,,,,,,,,,,,,,,,,,
6132542039ead71f30971bd6,TCN,2024-06-11_14h55.29.142,LearnStrategy,2023.2.3,Win32,59.88023952,,,,,,,,,,,3,02,2,1,,,,,,,,,,,,,,,,,,,,,,,,,,,,,
6132542039ead71f30971bd6,TCN,2024-06-11_14h55.29.142,LearnStrategy,2023.2.3,Win32,59.88023952,,,,,,,,,,,4,13,2,2,,,,,,,,,,,,,,,,,,,,,,,,,,,,,
6132542039ead71f30971bd6,TCN,2024-06-11_14h55.29.142,LearnStrategy,2023.2.3,Win32,59.88023952,,,,,,,,,,,7,06,2,3,,,,,,,,,,,,,,,,,,,,,,,,,,,,,
6132542039ead71f30971bd6,TCN,2024-06-11_14h55.29.142,LearnStrategy,2023.2.3,Win32,59.88023952,,,,,,,,,,,6,10,2,4,,,,,,,,,,,,,,,,,,,,,,,,,,,,,
6132542039ead71f30971bd6,TCN,2024-06-11_14h55.29.142,LearnStrategy,2023.2.3,Win32,59.88023952,,,,,,,,,,,5,12,2,5,,,,,,,,,,,,,,,,,,,,,,,,,,,,,
6132542039ead71f30971bd6,TCN,2024-06-11_14h55.29.142,LearnStrategy,2023.2.3,Win32,59.88023952,,,,,,,,,,,3,11,2,6,,,,,,,,,,,,,,,,,,,,,,,,,,,,,
6132542039ead71f30971bd6,TCN,2024-06-11_14h55.29.142,LearnStrategy,2023.2.3,Win32,59.88023952,,,,,,,,,,,2,06,2,7,,,,,,,,,,,,,,,,,,,,,,,,,,,,,
6132542039ead71f30971bd6,TCN,2024-06-11_14h55.29.142,LearnStrategy,2023.2.3,Win32,59.88023952,,,,,,,,,,,1,10,2,8,,,,,,,,,,,,,,,,,,,,,,,,,,,,,
6132542039ead71f30971bd6,TCN,2024-06-11_14h55.29.142,LearnStrategy,2023.2.3,Win32,59.88023952,,,,,,,,,,,6,07,3,1,,,,,,,,,,,,,,,,,,,,,,,,,,,,,
6132542039ead71f30971bd6,TCN,2024-06-11_14h55.29.142,LearnStrategy,2023.2.3,Win32,59.88023952,,,,,,,,,,,5,08,3,2,,,,,,,,,,,,,,,,,,,,,,,,,,,,,
6132542039ead71f30971bd6,TCN,2024-06-11_14h55.29.142,LearnStrategy,2023.2.3,Win32,59.88023952,,,,,,,,,,,8,15,3,3,,,,,,,,,,,,,,,,,,,,,,,,,,,,,
6132542039ead71f30971bd6,TCN,2024-06-11_14h55.29.142,LearnStrategy,2023.2.3,Win32,59.88023952,,,,,,,,,,,3,06,3,4,,,,,,,,,,,,,,,,,,,,,,,,,,,,,
6132542039ead71f30971bd6,TCN,2024-06-11_14h55.29.142,LearnStrategy,2023.2.3,Win32,59.88023952,,,,,,,,,,,1,09,3,5,,,,,,,,,,,,,,,,,,,,,,,,,,,,,
6132542039ead71f30971bd6,TCN,2024-06-11_14h55.29.142,LearnStrategy,2023.2.3,Win32,59.88023952,,,,,,,,,,,2,11,3,6,,,,,,,,,,,,,,,,,,,,,,,,,,,,,
6132542039ead71f30971bd6,TCN,2024-06-11_14h55.29.142,LearnStrategy,2023.2.3,Win32,59.88023952,,,,,,,,,,,7,15,3,7,,,,,,,,,,,,,,,,,,,,,,,,,,,,,
6132542039ead71f30971bd6,TCN,2024-06-11_14h55.29.142,LearnStrategy,2023.2.3,Win32,59.88023952,,,,,,,,,,,2,14,3,8,,,,,,,,,,,,,,,,,,,,,,,,,,,,,
6132542039ead71f30971bd6,TCN,2024-06-11_14h55.29.142,LearnStrategy,2023.2.3,Win32,59.88023952,,,,,,,,,,,1,05,4,1,,,,,,,,,,,,,,,,,,,,,,,,,,,,,
6132542039ead71f30971bd6,TCN,2024-06-11_14h55.29.142,LearnStrategy,2023.2.3,Win32,59.88023952,,,,,,,,,,,6,06,4,2,,,,,,,,,,,,,,,,,,,,,,,,,,,,,
6132542039ead71f30971bd6,TCN,2024-06-11_14h55.29.142,LearnStrategy,2023.2.3,Win32,59.88023952,,,,,,,,,,,7,04,4,3,,,,,,,,,,,,,,,,,,,,,,,,,,,,,
6132542039ead71f30971bd6,TCN,2024-06-11_14h55.29.142,LearnStrategy,2023.2.3,Win32,59.88023952,,,,,,,,,,,4,09,4,4,,,,,,,,,,,,,,,,,,,,,,,,,,,,,
6132542039ead71f30971bd6,TCN,2024-06-11_14h55.29.142,LearnStrategy,2023.2.3,Win32,59.88023952,,,,,,,,,,,7,14,4,5,,,,,,,,,,,,,,,,,,,,,,,,,,,,,
6132542039ead71f30971bd6,TCN,2024-06-11_14h55.29.142,LearnStrategy,2023.2.3,Win32,59.88023952,,,,,,,,,,,3,07,4,6,,,,,,,,,,,,,,,,,,,,,,,,,,,,,
6132542039ead71f30971bd6,TCN,2024-06-11_14h55.29.142,LearnStrategy,2023.2.3,Win32,59.88023952,,,,,,,,,,,8,09,4,7,,,,,,,,,,,,,,,,,,,,,,,,,,,,,
6132542039ead71f30971bd6,TCN,2024-06-11_14h55.29.142,LearnStrategy,2023.2.3,Win32,59.88023952,,,,,,,,,,,2,01,4,8,,,,,,,,,,,,,,,,,,,,,,,,,,,,,
6132542039ead71f30971bd6,TCN,2024-06-11_14h55.29.142,LearnStrategy,2023.2.3,Win32,59.88023952,,,,,,,,,,,3,12,5,1,,,,,,,,,,,,,,,,,,,,,,,,,,,,,
6132542039ead71f30971bd6,TCN,2024-06-11_14h55.29.142,LearnStrategy,2023.2.3,Win32,59.88023952,,,,,,,,,,,5,10,5,2,,,,,,,,,,,,,,,,,,,,,,,,,,,,,
6132542039ead71f30971bd6,TCN,2024-06-11_14h55.29.142,LearnStrategy,2023.2.3,Win32,59.88023952,,,,,,,,,,,4,16,5,3,,,,,,,,,,,,,,,,,,,,,,,,,,,,,
6132542039ead71f30971bd6,TCN,2024-06-11_14h55.29.142,LearnStrategy,2023.2.3,Win32,59.88023952,,,,,,,,,,,4,12,5,4,,,,,,,,,,,,,,,,,,,,,,,,,,,,,
6132542039ead71f30971bd6,TCN,2024-06-11_14h55.29.142,LearnStrategy,2023.2.3,Win32,59.88023952,,,,,,,,,,,6,05,5,5,,,,,,,,,,,,,,,,,,,,,,,,,,,,,
6132542039ead71f30971bd6,TCN,2024-06-11_14h55.29.142,LearnStrategy,2023.2.3,Win32,59.88023952,,,,,,,,,,,1,02,5,6,,,,,,,,,,,,,,,,,,,,,,,,,,,,,
6132542039ead71f30971bd6,TCN,2024-06-11_14h55.29.142,LearnStrategy,2023.2.3,Win32,59.88023952,,,,,,,,,,,6,11,5,7,,,,,,,,,,,,,,,,,,,,,,,,,,,,,
6132542039ead71f30971bd6,TCN,2024-06-11_14h55.29.142,LearnStrategy,2023.2.3,Win32,59.88023952,,,,,,,,,,,8,16,5,8,,,,,,,,,,,,,,,,,,,,,,,,,,,,,
6132542039ead71f30971bd6,TCN,2024-06-11_14h55.29.142,LearnStrategy,2023.2.3,Win32,59.88023952,,,,,,,,,,,7,12,6,1,,,,,,,,,,,,,,,,,,,,,,,,,,,,,
6132542039ead71f30971bd6,TCN,2024-06-11_14h55.29.142,LearnStrategy,2023.2.3,Win32,59.88023952,,,,,,,,,,,5,11,6,2,,,,,,,,,,,,,,,,,,,,,,,,,,,,,
6132542039ead71f30971bd6,TCN,2024-06-11_14h55.29.142,LearnStrategy,2023.2.3,Win32,59.88023952,,,,,,,,,,,2,04,6,3,,,,,,,,,,,,,,,,,,,,,,,,,,,,,
6132542039ead71f30971bd6,TCN,2024-06-11_14h55.29.142,LearnStrategy,2023.2.3,Win32,59.88023952,,,,,,,,,,,5,09,6,4,,,,,,,,,,,,,,,,,,,,,,,,,,,,,
6132542039ead71f30971bd6,TCN,2024-06-11_14h55.29.142,LearnStrategy,2023.2.3,Win32,59.88023952,,,,,,,,,,,2,02,6,5,,,,,,,,,,,,,,,,,,,,,,,,,,,,,
6132542039ead71f30971bd6,TCN,2024-06-11_14h55.29.142,LearnStrategy,2023.2.3,Win32,59.88023952,,,,,,,,,,,8,03,6,6,,,,,,,,,,,,,,,,,,,,,,,,,,,,,
6132542039ead71f30971bd6,TCN,2024-06-11_14h55.29.142,LearnStrategy,2023.2.3,Win32,59.88023952,,,,,,,,,,,6,12,6,7,,,,,,,,,,,,,,,,,,,,,,,,,,,,,
6132542039ead71f30971bd6,TCN,2024-06-11_14h55.29.142,LearnStrategy,2023.2.3,Win32,59.88023952,,,,,,,,,,,7,05,6,8,,,,,,,,,,,,,,,,,,,,,,,,,,,,,