participant,condition,date,expName,psychopyVersion,OS,frameRate,block,phase,trial,learn_mouse.x,learn_mouse.y,learn_mouse.leftButton,learn_mouse.midButton,learn_mouse.rightButton,learn_mouse.time,learn_mouse.clicked_name,cat,token,row,col,t_select,cat_mouse_l.x,cat_mouse_l.y,cat_mouse_l.leftButton,cat_mouse_l.midButton,cat_mouse_l.rightButton,cat_mouse_l.time,cat_mouse_l.clicked_name,resp,t_resp,corr,train_trials.thisRepN,train_trials.thisTrialN,train_trials.thisN,train_trials.thisIndex,train_trials.ran,cat_mouse_t.x,cat_mouse_t.y,cat_mouse_t.leftButton,cat_mouse_t.midButton,cat_mouse_t.rightButton,cat_mouse_t.time,cat_mouse_t.clicked_name,test_trials.thisRepN,test_trials.thisTrialN,test_trials.thisN,test_trials.thisIndex,test_trials.ran
614eb0a92921d8c1e64f4873,SCN,2024-06-10_14h55.13.191,LearnStrategy,2023.2.3,Linux x86_64,59.96282305,,,,,,,,,,,,,,,,,,,,,,,,,,,,,,,,,,,,,,,,,,
614eb0a92921d8c1e64f4873,SCN,2024-06-10_14h55.13.191,LearnStrategy,2023.2.3,Linux x86_64,59.96282305,1,1,1,-0.256644263,0.11938446,1,0,0,6.9531,Obsidian_08,5,08,4,3,6.953,-0.393295988,-0.398173947,1,0,0,9.1059,Obsidian_rect,5,9.106,1,0,0,0,0,1,,,,,,,,,,,,
614eb0a92921d8c1e64f4873,SCN,2024-06-10_14h55.13.191,LearnStrategy,2023.2.3,Linux x86_64,59.96282305,1,1,2,0.396343679,0.260582539,1,0,0,8.031,Pumice_16,8,16,5,7,8.031,0.365707441,-0.408212394,1,0,0,7.4959,Pumice_rect,8,7.496,1,1,0,1,0,1,,,,,,,,,,,,
614eb0a92921d8c1e64f4873,SCN,2024-06-10_14h55.13.191,LearnStrategy,2023.2.3,Linux x86_64,59.96282305,1,1,3,-0.38236711,0.239023422,1,0,0,4.8506,Pegmatite_10,6,10,5,2,4.851,0.126981981,-0.231704887,1,0,0,12.5362,Diorite_rect,3,12.536,0,2,0,2,0,1,,,,,,,,,,,,
614eb0a92921d8c1e64f4873,SCN,2024-06-10_14h55.13.191,LearnStrategy,2023.2.3,Linux x86_64,59.96282305,1,1,4,-0.082986214,-0.268868345,1,0,0,10.0732,Pumice_10,8,10,2,4,10.073,-0.176211294,-0.24801662,1,0,0,7.774,Basalt_rect,2,7.774,0,3,0,3,0,1,,,,,,,,,,,,
614eb0a92921d8c1e64f4873,SCN,2024-06-10_14h55.13.191,LearnStrategy,2023.2.3,Linux x86_64,59.96282305,1,1,5,0.37685755,0.406707796,1,0,0,3.5684,Pegmatite_15,6,15,6,7,3.568,0.123023091,-0.398504918,1,0,0,10.6915,Peridotite_rect,7,10.692,0,4,0,4,0,1,,,,,,,,,,,,
614eb0a92921d8c1e64f4873,SCN,2024-06-10_14h55.13.191,LearnStrategy,2023.2.3,Linux x86_64,59.96282305,1,1,6,-0.406987843,-0.08841502,1,0,0,5.1806,Andesite_03,1,03,3,2,5.181,0.138674149,-0.397288937,1,0,0,9.244,Peridotite_rect,7,9.244,0,5,0,5,0,1,,,,,,,,,,,,
614eb0a92921d8c1e64f4873,SCN,2024-06-10_14h55.13.191,LearnStrategy,2023.2.3,Linux x86_64,59.96282305,1,1,7,0.254573877,-0.415075614,1,0,0,15.6589,Peridotite_05,7,05,1,6,15.659,0.156624431,-0.23518341,1,0,0,9.3137,Diorite_rect,3,9.314,0,6,0,6,0,1,,,,,,,,,,,,
614eb0a92921d8c1e64f4873,SCN,2024-06-10_14h55.13.191,LearnStrategy,2023.2.3,Linux x86_64,59.96282305,1,1,8,0.218412383,0.105762034,1,0,0,11.0915,Gabbro_12,4,12,4,6,11.091,-0.382750372,-0.248378109,1,0,0,14.5204,Andesite_rect,1,14.52,0,7,0,7,0,1,,,,,,,,,,,,
614eb0a92921d8c1e64f4873,SCN,2024-06-10_14h55.13.191,LearnStrategy,2023.2.3,Linux x86_64,59.96282305,1,1,9,-0.545847589,0.25468705,1,0,0,3.4594,Basalt_05,2,05,5,1,3.459,-0.127610608,-0.250484609,1,0,0,7.493,Basalt_rect,2,7.493,1,8,0,8,0,1,,,,,,,,,,,,
614eb0a92921d8c1e64f4873,SCN,2024-06-10_14h55.13.191,LearnStrategy,2023.2.3,Linux x86_64,59.96282305,1,1,10,-0.07290492,0.398663824,1,0,0,10.067,Pegmatite_08,6,08,6,4,10.067,-0.14250887,-0.400039542,1,0,0,2.5074,Pegmatite_rect,6,2.507,1,9,0,9,0,1,,,,,,,,,,,,
614eb0a92921d8c1e64f4873,SCN,2024-06-10_14h55.13.191,LearnStrategy,2023.2.3,Linux x86_64,59.96282305,1,1,11,0.564763985,-0.120689764,1,0,0,4.7333,Diorite_06,3,06,3,8,4.733,0.419744453,-0.241140109,1,0,0,3.5655,Gabbro_rect,4,3.565,0,10,0,10,0,1,,,,,,,,,,,,
614eb0a92921d8c1e64f4873,SCN,2024-06-10_14h55.13.191,LearnStrategy,2023.2.3,Linux x86_64,59.96282305,1,1,12,0.392750213,-0.099212515,1,0,0,2.7095,Obsidian_05,5,05,3,7,2.709,-0.405678779,-0.412074485,1,0,0,7.9061,Obsidian_rect,5,7.906,1,11,0,11,0,1,,,,,,,,,,,,
614eb0a92921d8c1e64f4873,SCN,2024-06-10_14h55.13.191,LearnStrategy,2023.2.3,Linux x86_64,59.96282305,1,1,13,0.244644121,-0.261877197,1,0,0,6.4216,Obsidian_14,5,14,2,6,6.422,-0.411328204,-0.396955867,1,0,0,3.7898,Obsidian_rect,5,3.79,1,12,0,12,0,1,,,,,,,,,,,,
614eb0a92921d8c1e64f4873,SCN,2024-06-10_14h55.13.191,LearnStrategy,2023.2.3,Linux x86_64,59.96282305,1,1,14,0.390485529,-0.411326149,1,0,0,4.5644,Pegmatite_12,6,12,1,7,4.564,0.389834079,-0.238229309,1,0,0,11.6123,Gabbro_rect,4,11.612,0,13,0,13,0,1,,,,,,,,,,,,
614eb0a92921d8c1e64f4873,SCN,2024-06-10_14h55.13.191,LearnStrategy,2023.2.3,Linux x86_64,59.96282305,1,1,15,-0.550217003,-0.400802044,1,0,0,4.6111,Diorite_08,3,08,1,1,4.611,0.124001664,-0.254269226,1,0,0,5.5305,Diorite_rect,3,5.531,1,14,0,14,0,1,,,,,,,,,,,,
614eb0a92921d8c1e64f4873,SCN,2024-06-10_14h55.13.191,LearnStrategy,2023.2.3,Linux x86_64,59.96282305,1,1,16,0.066078864,-0.234252667,1,0,0,24.9999,Gabbro_14,4,14,2,5,25,-0.422005858,-0.251896287,1,0,0,15.3466,Andesite_rect,1,15.347,0,15,0,15,0,1,,,,,,,,,,,,
614eb0a92921d8c1e64f4873,SCN,2024-06-10_14h55.13.191,LearnStrategy,2023.2.3,Linux x86_64,59.96282305,1,2,1,,,,,,,,2,16,,,,,,,,,,,4,14.549,0,,,,,,0.419432632,-0.249139999,1,0,0,14.5488,Gabbro_rect,0,0,0,0,1
614eb0a92921d8c1e64f4873,SCN,2024-06-10_14h55.13.191,LearnStrategy,2023.2.3,Linux x86_64,59.96282305,1,2,2,,,,,,,,8,06,,,,,,,,,,,8,3.424,1,,,,,,0.404731117,-0.400521352,1,0,0,3.424,Pumice_rect,1,0,1,0,1
614eb0a92921d8c1e64f4873,SCN,2024-06-10_14h55.13.191,LearnStrategy,2023.2.3,Linux x86_64,59.96282305,1,2,3,,,,,,,,1,05,,,,,,,,,,,3,7.945,0,,,,,,0.138599909,-0.251241077,1,0,0,7.9446,Diorite_rect,2,0,2,0,1
614eb0a92921d8c1e64f4873,SCN,2024-06-10_14h55.13.191,LearnStrategy,2023.2.3,Linux x86_64,59.96282305,1,2,4,,,,,,,,4,11,,,,,,,,,,,4,17.149,1,,,,,,0.413298511,-0.235724507,1,0,0,17.1495,Gabbro_rect,3,0,3,0,1
614eb0a92921d8c1e64f4873,SCN,2024-06-10_14h55.13.191,LearnStrategy,2023.2.3,Linux x86_64,59.96282305,1,2,5,,,,,,,,7,13,,,,,,,,,,,7,10.968,1,,,,,,0.111157874,-0.399539718,1,0,0,10.9679,Peridotite_rect,4,0,4,0,1
614eb0a92921d8c1e64f4873,SCN,2024-06-10_14h55.13.191,LearnStrategy,2023.2.3,Linux x86_64,59.96282305,1,2,6,,,,,,,,5,06,,,,,,,,,,,5,3.17,1,,,,,,-0.38366979,-0.39442081,1,0,0,3.1701,Obsidian_rect,5,0,5,0,1
614eb0a92921d8c1e64f4873,SCN,2024-06-10_14h55.13.191,LearnStrategy,2023.2.3,Linux x86_64,59.96282305,1,2,7,,,,,,,,7,15,,,,,,,,,,,7,19.805,1,,,,,,0.122452001,-0.396741807,1,0,0,19.8047,Peridotite_rect,6,0,6,0,1
614eb0a92921d8c1e64f4873,SCN,2024-06-10_14h55.13.191,LearnStrategy,2023.2.3,Linux x86_64,59.96282305,1,2,8,,,,,,,,6,11,,,,,,,,,,,5,4.01,0,,,,,,-0.411926401,-0.406532965,1,0,0,4.0095,Obsidian_rect,7,0,7,0,1
614eb0a92921d8c1e64f4873,SCN,2024-06-10_14h55.13.191,LearnStrategy,2023.2.3,Linux x86_64,59.96282305,1,2,9,,,,,,,,4,15,,,,,,,,,,,3,12.449,0,,,,,,0.147368073,-0.241697557,1,0,0,12.4487,Diorite_rect,8,0,8,0,1
614eb0a92921d8c1e64f4873,SCN,2024-06-10_14h55.13.191,LearnStrategy,2023.2.3,Linux x86_64,59.96282305,1,2,10,,,,,,,,6,06,,,,,,,,,,,1,11.484,0,,,,,,-0.401931938,-0.250654773,1,0,0,11.4836,Andesite_rect,9,0,9,0,1
614eb0a92921d8c1e64f4873,SCN,2024-06-10_14h55.13.191,LearnStrategy,2023.2.3,Linux x86_64,59.96282305,1,2,11,,,,,,,,3,15,,,,,,,,,,,3,12.253,1,,,,,,0.149077582,-0.241809484,1,0,0,12.2534,Diorite_rect,10,0,10,0,1
614eb0a92921d8c1e64f4873,SCN,2024-06-10_14h55.13.191,LearnStrategy,2023.2.3,Linux x86_64,59.96282305,1,2,12,,,,,,,,3,07,,,,,,,,,,,5,4.619,0,,,,,,-0.396411491,-0.386934996,1,0,0,4.6186,Obsidian_rect,11,0,11,0,1
614eb0a92921d8c1e64f4873,SCN,2024-06-10_14h55.13.191,LearnStrategy,2023.2.3,Linux x86_64,59.96282305,1,2,13,,,,,,,,5,04,,,,,,,,,,,5,1.918,1,,,,,,-0.402086056,-0.404165273,1,0,0,1.9184,Obsidian_rect,12,0,12,0,1
614eb0a92921d8c1e64f4873,SCN,2024-06-10_14h55.13.191,LearnStrategy,2023.2.3,Linux x86_64,59.96282305,1,2,14,,,,,,,,2,12,,,,,,,,,,,2,12.555,1,,,,,,-0.150013746,-0.236694511,1,0,0,12.5552,Basalt_rect,13,0,13,0,1
614eb0a92921d8c1e64f4873,SCN,2024-06-10_14h55.13.191,LearnStrategy,2023.2.3,Linux x86_64,59.96282305,1,2,15,,,,,,,,1,09,,,,,,,,,,,3,18.787,0,,,,,,0.14118446,-0.246376453,1,0,0,18.7875,Diorite_rect,14,0,14,0,1
614eb0a92921d8c1e64f4873,SCN,2024-06-10_14h55.13.191,LearnStrategy,2023.2.3,Linux x86_64,59.96282305,1,2,16,,,,,,,,8,13,,,,,,,,,,,8,4.476,1,,,,,,0.430455074,-0.410790561,1,0,0,4.4764,Pumice_rect,15,0,15,0,1
614eb0a92921d8c1e64f4873,SCN,2024-06-10_14h55.13.191,LearnStrategy,2023.2.3,Linux x86_64,59.96282305,2,1,1,-0.064340499,-0.414051919,1,0,0,6.4859,Gabbro_13,4,13,1,4,6.486,0.410563821,-0.236040088,1,0,0,12.0288,Gabbro_rect,4,12.029,1,0,0,0,0,1,,,,,,,,,,,,
614eb0a92921d8c1e64f4873,SCN,2024-06-10_14h55.13.191,LearnStrategy,2023.2.3,Linux x86_64,59.96282305,2,1,2,-0.239263453,-0.419828923,1,0,0,7.7365,Gabbro_10,4,10,1,3,7.736,0.13393072,-0.246884234,1,0,0,5.8886,Diorite_rect,3,5.889,0,1,0,1,0,1,,,,,,,,,,,,
614eb0a92921d8c1e64f4873,SCN,2024-06-10_14h55.13.191,LearnStrategy,2023.2.3,Linux x86_64,59.96282305,2,1,3,-0.40233435,-0.259495689,1,0,0,3.3949,Peridotite_10,7,10,2,2,3.395,0.165491317,-0.400289891,1,0,0,2.6463,Peridotite_rect,7,2.646,1,2,0,2,0,1,,,,,,,,,,,,
614eb0a92921d8c1e64f4873,SCN,2024-06-10_14h55.13.191,LearnStrategy,2023.2.3,Linux x86_64,59.96282305,2,1,4,-0.572233533,-0.086802529,1,0,0,9.073,Andesite_14,1,14,3,1,9.073,0.130169013,-0.249371023,1,0,0,6.0042,Diorite_rect,3,6.004,0,3,0,3,0,1,,,,,,,,,,,,
614eb0a92921d8c1e64f4873,SCN,2024-06-10_14h55.13.191,LearnStrategy,2023.2.3,Linux x86_64,59.96282305,2,1,5,-0.394164427,-0.088173853,1,0,0,2.3926,Andesite_03,1,03,3,2,2.393,0.132922241,-0.233640392,1,0,0,2.7178,Diorite_rect,3,2.718,0,4,0,4,0,1,,,,,,,,,,,,
614eb0a92921d8c1e64f4873,SCN,2024-06-10_14h55.13.191,LearnStrategy,2023.2.3,Linux x86_64,59.96282305,2,1,6,-0.065514245,-0.418666195,1,0,0,9.7751,Gabbro_13,4,13,1,4,9.775,0.365512706,-0.249419204,1,0,0,2.6556,Gabbro_rect,4,2.656,1,5,0,5,0,1,,,,,,,,,,,,
614eb0a92921d8c1e64f4873,SCN,2024-06-10_14h55.13.191,LearnStrategy,2023.2.3,Linux x86_64,59.96282305,2,1,7,0.074975044,0.111421033,1,0,0,4.6815,Peridotite_08,7,08,4,5,4.681,0.154421131,-0.405809025,1,0,0,2.4451,Peridotite_rect,7,2.445,1,6,0,6,0,1,,,,,,,,,,,,
614eb0a92921d8c1e64f4873,SCN,2024-06-10_14h55.13.191,LearnStrategy,2023.2.3,Linux x86_64,59.96282305,2,1,8,0.573414013,0.095870972,1,0,0,1.6338,Pegmatite_05,6,05,4,8,1.634,-0.424344781,-0.400769952,1,0,0,5.2181,Obsidian_rect,5,5.218,0,7,0,7,0,1,,,,,,,,,,,,
614eb0a92921d8c1e64f4873,SCN,2024-06-10_14h55.13.191,LearnStrategy,2023.2.3,Linux x86_64,59.96282305,2,1,9,-0.062653637,0.081873372,1,0,0,4.5163,Basalt_11,2,11,4,4,4.516,-0.124164745,-0.241346824,1,0,0,4.8671,Basalt_rect,2,4.867,1,8,0,8,0,1,,,,,,,,,,,,
614eb0a92921d8c1e64f4873,SCN,2024-06-10_14h55.13.191,LearnStrategy,2023.2.3,Linux x86_64,59.96282305,2,1,10,-0.561720818,0.081573836,1,0,0,3.9411,Diorite_10,3,10,4,1,3.941,0.134399939,-0.248932847,1,0,0,5.1237,Diorite_rect,3,5.124,1,9,0,9,0,1,,,,,,,,,,,,
614eb0a92921d8c1e64f4873,SCN,2024-06-10_14h55.13.191,LearnStrategy,2023.2.3,Linux x86_64,59.96282305,2,1,11,-0.517772073,0.228945123,1,0,0,2.3519,Basalt_05,2,05,5,1,2.352,-0.149767419,-0.241904884,1,0,0,4.5618,Basalt_rect,2,4.562,1,10,0,10,0,1,,,,,,,,,,,,
614eb0a92921d8c1e64f4873,SCN,2024-06-10_14h55.13.191,LearnStrategy,2023.2.3,Linux x86_64,59.96282305,2,1,12,-0.090967479,0.251703628,1,0,0,5.2587,Andesite_01,1,01,5,4,5.259,0.12409278,-0.246379164,1,0,0,4.4202,Diorite_rect,3,4.42,0,11,0,11,0,1,,,,,,,,,,,,
614eb0a92921d8c1e64f4873,SCN,2024-06-10_14h55.13.191,LearnStrategy,2023.2.3,Linux x86_64,59.96282305,2,1,13,0.231244194,0.392753164,1,0,0,8.4926,Diorite_11,3,11,6,6,8.493,0.143214535,-0.243644824,1,0,0,4.8227,Diorite_rect,3,4.823,1,12,0,12,0,1,,,,,,,,,,,,
614eb0a92921d8c1e64f4873,SCN,2024-06-10_14h55.13.191,LearnStrategy,2023.2.3,Linux x86_64,59.96282305,2,1,14,-0.524294309,0.404087384,1,0,0,5.8573,Peridotite_07,7,07,6,1,5.857,0.124905474,-0.397850758,1,0,0,6.2061,Peridotite_rect,7,6.206,1,13,0,13,0,1,,,,,,,,,,,,
614eb0a92921d8c1e64f4873,SCN,2024-06-10_14h55.13.191,LearnStrategy,2023.2.3,Linux x86_64,59.96282305,2,1,15,0.118311054,0.390614835,1,0,0,3.953,Peridotite_14,7,14,6,5,3.953,-0.131735291,-0.394092112,1,0,0,12.3285,Pegmatite_rect,6,12.329,0,14,0,14,0,1,,,,,,,,,,,,
614eb0a92921d8c1e64f4873,SCN,2024-06-10_14h55.13.191,LearnStrategy,2023.2.3,Linux x86_64,59.96282305,2,1,16,-0.240323523,-0.090895688,1,0,0,6.1379,Basalt_14,2,14,3,3,6.138,0.398510165,-0.40345034,1,0,0,5.6456,Pumice_rect,8,5.646,0,15,0,15,0,1,,,,,,,,,,,,
614eb0a92921d8c1e64f4873,SCN,2024-06-10_14h55.13.191,LearnStrategy,2023.2.3,Linux x86_64,59.96282305,2,2,1,,,,,,,,2,06,,,,,,,,,,,2,4.938,1,,,,,,-0.128999901,-0.253399343,1,0,0,4.9377,Basalt_rect,0,0,0,0,1
614eb0a92921d8c1e64f4873,SCN,2024-06-10_14h55.13.191,LearnStrategy,2023.2.3,Linux x86_64,59.96282305,2,2,2,,,,,,,,5,16,,,,,,,,,,,5,2.002,1,,,,,,-0.399769212,-0.40562592,1,0,0,2.0019,Obsidian_rect,1,0,1,0,1
614eb0a92921d8c1e64f4873,SCN,2024-06-10_14h55.13.191,LearnStrategy,2023.2.3,Linux x86_64,59.96282305,2,2,3,,,,,,,,6,03,,,,,,,,,,,6,7.684,1,,,,,,-0.150732527,-0.407290134,1,0,0,7.684,Pegmatite_rect,2,0,2,0,1
614eb0a92921d8c1e64f4873,SCN,2024-06-10_14h55.13.191,LearnStrategy,2023.2.3,Linux x86_64,59.96282305,2,2,4,,,,,,,,2,08,,,,,,,,,,,2,5.879,1,,,,,,-0.183044565,-0.243446853,1,0,0,5.8791,Basalt_rect,3,0,3,0,1
614eb0a92921d8c1e64f4873,SCN,2024-06-10_14h55.13.191,LearnStrategy,2023.2.3,Linux x86_64,59.96282305,2,2,5,,,,,,,,3,16,,,,,,,,,,,3,4.057,1,,,,,,0.125186866,-0.241227464,1,0,0,4.0569,Diorite_rect,4,0,4,0,1
614eb0a92921d8c1e64f4873,SCN,2024-06-10_14h55.13.191,LearnStrategy,2023.2.3,Linux x86_64,59.96282305,2,2,6,,,,,,,,4,03,,,,,,,,,,,4,8.005,1,,,,,,0.400735587,-0.241350147,1,0,0,8.0053,Gabbro_rect,5,0,5,0,1
614eb0a92921d8c1e64f4873,SCN,2024-06-10_14h55.13.191,LearnStrategy,2023.2.3,Linux x86_64,59.96282305,2,2,7,,,,,,,,5,12,,,,,,,,,,,5,3.311,1,,,,,,-0.457332797,-0.388881301,1,0,0,3.311,Obsidian_rect,6,0,6,0,1
614eb0a92921d8c1e64f4873,SCN,2024-06-10_14h55.13.191,LearnStrategy,2023.2.3,Linux x86_64,59.96282305,2,2,8,,,,,,,,4,16,,,,,,,,,,,4,18.016,1,,,,,,0.380220255,-0.250901187,1,0,0,18.0162,Gabbro_rect,7,0,7,0,1
614eb0a92921d8c1e64f4873,SCN,2024-06-10_14h55.13.191,LearnStrategy,2023.2.3,Linux x86_64,59.96282305,2,2,9,,,,,,,,6,09,,,,,,,,,,,6,4.624,1,,,,,,-0.155476305,-0.401730688,1,0,0,4.6236,Pegmatite_rect,8,0,8,0,1
614eb0a92921d8c1e64f4873,SCN,2024-06-10_14h55.13.191,LearnStrategy,2023.2.3,Linux x86_64,59.96282305,2,2,10,,,,,,,,8,14,,,,,,,,,,,8,4.055,1,,,,,,0.372635281,-0.404340422,1,0,0,4.0553,Pumice_rect,9,0,9,0,1
614eb0a92921d8c1e64f4873,SCN,2024-06-10_14h55.13.191,LearnStrategy,2023.2.3,Linux x86_64,59.96282305,2,2,11,,,,,,,,3,14,,,,,,,,,,,3,7.779,1,,,,,,0.117795753,-0.237637145,1,0,0,7.7789,Diorite_rect,10,0,10,0,1
614eb0a92921d8c1e64f4873,SCN,2024-06-10_14h55.13.191,LearnStrategy,2023.2.3,Linux x86_64,59.96282305,2,2,12,,,,,,,,7,16,,,,,,,,,,,7,11.279,1,,,,,,0.105884366,-0.399608011,1,0,0,11.2786,Peridotite_rect,11,0,11,0,1
614eb0a92921d8c1e64f4873,SCN,2024-06-10_14h55.13.191,LearnStrategy,2023.2.3,Linux x86_64,59.96282305,2,2,13,,,,,,,,1,04,,,,,,,,,,,1,7.023,1,,,,,,-0.403605202,-0.243174118,1,0,0,7.0225,Andesite_rect,12,0,12,0,1
614eb0a92921d8c1e64f4873,SCN,2024-06-10_14h55.13.191,LearnStrategy,2023.2.3,Linux x86_64,59.96282305,2,2,14,,,,,,,,1,07,,,,,,,,,,,6,19.118,0,,,,,,-0.139224864,-0.400587109,1,0,0,19.1184,Pegmatite_rect,13,0,13,0,1
614eb0a92921d8c1e64f4873,SCN,2024-06-10_14h55.13.191,LearnStrategy,2023.2.3,Linux x86_64,59.96282305,2,2,15,,,,,,,,8,08,,,,,,,,,,,2,7.358,0,,,,,,-0.191265773,-0.238337563,1,0,0,7.3581,Basalt_rect,14,0,14,0,1
614eb0a92921d8c1e64f4873,SCN,2024-06-10_14h55.13.191,LearnStrategy,2023.2.3,Linux x86_64,59.96282305,2,2,16,,,,,,,,7,04,,,,,,,,,,,7,6.6,1,,,,,,0.105169783,-0.405418156,1,0,0,6.6001,Peridotite_rect,15,0,15,0,1
614eb0a92921d8c1e64f4873,SCN,2024-06-10_14h55.13.191,LearnStrategy,2023.2.3,Linux x86_64,59.96282305,3,1,1,-0.561112696,0.414721874,1,0,0,3.6811,Peridotite_07,7,07,6,1,3.681,0.105178702,-0.398707174,1,0,0,4.1869,Peridotite_rect,7,4.187,1,0,0,0,0,1,,,,,,,,,,,,
614eb0a92921d8c1e64f4873,SCN,2024-06-10_14h55.13.191,LearnStrategy,2023.2.3,Linux x86_64,59.96282305,3,1,2,-0.390040794,0.402319692,1,0,0,1.9315,Gabbro_09,4,09,6,2,1.931,-0.442314607,-0.239103826,1,0,0,10.5034,Andesite_rect,1,10.503,0,1,0,1,0,1,,,,,,,,,,,,
614eb0a92921d8c1e64f4873,SCN,2024-06-10_14h55.13.191,LearnStrategy,2023.2.3,Linux x86_64,59.96282305,3,1,3,-0.252626042,0.393209321,1,0,0,1.6683,Basalt_01,2,01,6,3,1.668,-0.140682188,-0.257740534,1,0,0,3.364,Basalt_rect,2,3.364,1,2,0,2,0,1,,,,,,,,,,,,
614eb0a92921d8c1e64f4873,SCN,2024-06-10_14h55.13.191,LearnStrategy,2023.2.3,Linux x86_64,59.96282305,3,1,4,0.07454465,0.392455071,1,0,0,5.2376,Peridotite_14,7,14,6,5,5.238,0.134200919,-0.392347975,1,0,0,4.8737,Peridotite_rect,7,4.874,1,3,0,3,0,1,,,,,,,,,,,,
614eb0a92921d8c1e64f4873,SCN,2024-06-10_14h55.13.191,LearnStrategy,2023.2.3,Linux x86_64,59.96282305,3,1,5,0.222002877,0.4132955,1,0,0,1.766,Diorite_11,3,11,6,6,1.766,0.077599031,-0.247988988,1,0,0,5.2479,Diorite_rect,3,5.248,1,4,0,4,0,1,,,,,,,,,,,,
614eb0a92921d8c1e64f4873,SCN,2024-06-10_14h55.13.191,LearnStrategy,2023.2.3,Linux x86_64,59.96282305,3,1,6,0.569688158,0.405844505,1,0,0,6.3132,Peridotite_12,7,12,6,8,6.313,0.081033964,-0.395154106,1,0,0,5.5567,Peridotite_rect,7,5.557,1,5,0,5,0,1,,,,,,,,,,,,
614eb0a92921d8c1e64f4873,SCN,2024-06-10_14h55.13.191,LearnStrategy,2023.2.3,Linux x86_64,59.96282305,3,1,7,-0.226269304,0.240126361,1,0,0,10.1342,Andesite_02,1,02,5,3,10.134,-0.407851779,-0.238004143,1,0,0,7.5066,Andesite_rect,1,7.507,1,6,0,6,0,1,,,,,,,,,,,,
614eb0a92921d8c1e64f4873,SCN,2024-06-10_14h55.13.191,LearnStrategy,2023.2.3,Linux x86_64,59.96282305,3,1,8,-0.086773367,0.237634216,1,0,0,2.342,Andesite_01,1,01,5,4,2.342,0.401247828,-0.245375406,1,0,0,8.3073,Gabbro_rect,4,8.307,0,7,0,7,0,1,,,,,,,,,,,,
614eb0a92921d8c1e64f4873,SCN,2024-06-10_14h55.13.191,LearnStrategy,2023.2.3,Linux x86_64,59.96282305,3,1,9,0.06537556,0.248214241,1,0,0,2.5472,Gabbro_08,4,08,5,5,2.547,-0.409354486,-0.238867905,1,0,0,8.6744,Andesite_rect,1,8.674,0,8,0,8,0,1,,,,,,,,,,,,
614eb0a92921d8c1e64f4873,SCN,2024-06-10_14h55.13.191,LearnStrategy,2023.2.3,Linux x86_64,59.96282305,3,1,10,0.571198209,0.089509237,1,0,0,16.7908,Pegmatite_05,6,05,4,8,16.791,-0.38477332,-0.389549889,1,0,0,4.7314,Obsidian_rect,5,4.731,0,9,0,9,0,1,,,,,,,,,,,,
614eb0a92921d8c1e64f4873,SCN,2024-06-10_14h55.13.191,LearnStrategy,2023.2.3,Linux x86_64,59.96282305,3,1,11,0.385535472,0.091348162,1,0,0,4.1112,Pumice_02,8,02,4,7,4.111,0.415649851,-0.399225448,1,0,0,5.2149,Pumice_rect,8,5.215,1,10,0,10,0,1,,,,,,,,,,,,
614eb0a92921d8c1e64f4873,SCN,2024-06-10_14h55.13.191,LearnStrategy,2023.2.3,Linux x86_64,59.96282305,3,1,12,-0.548942107,0.089734009,1,0,0,9.4312,Diorite_10,3,10,4,1,9.431,0.13817791,-0.24686386,1,0,0,6.1874,Diorite_rect,3,6.187,1,11,0,11,0,1,,,,,,,,,,,,
614eb0a92921d8c1e64f4873,SCN,2024-06-10_14h55.13.191,LearnStrategy,2023.2.3,Linux x86_64,59.96282305,3,1,13,-0.384434173,0.097950102,1,0,0,1.8823,Diorite_13,3,13,4,2,1.882,0.133016067,-0.230856997,1,0,0,14.113,Diorite_rect,3,14.113,1,12,0,12,0,1,,,,,,,,,,,,
614eb0a92921d8c1e64f4873,SCN,2024-06-10_14h55.13.191,LearnStrategy,2023.2.3,Linux x86_64,59.96282305,3,1,14,-0.09155562,0.085053233,1,0,0,3.6309,Basalt_11,2,11,4,4,3.631,-0.136623262,-0.241074177,1,0,0,3.1686,Basalt_rect,2,3.169,1,13,0,13,0,1,,,,,,,,,,,,
614eb0a92921d8c1e64f4873,SCN,2024-06-10_14h55.13.191,LearnStrategy,2023.2.3,Linux x86_64,59.96282305,3,1,15,0.087365705,0.093340024,1,0,0,2.4933,Peridotite_08,7,08,4,5,2.493,0.129666129,-0.398282813,1,0,0,2.8727,Peridotite_rect,7,2.873,1,14,0,14,0,1,,,,,,,,,,,,
614eb0a92921d8c1e64f4873,SCN,2024-06-10_14h55.13.191,LearnStrategy,2023.2.3,Linux x86_64,59.96282305,3,1,16,0.231749614,0.091942905,1,0,0,2.459,Gabbro_12,4,12,4,6,2.459,-0.436366303,-0.25412888,1,0,0,4.4657,Andesite_rect,1,4.466,0,15,0,15,0,1,,,,,,,,,,,,
614eb0a92921d8c1e64f4873,SCN,2024-06-10_14h55.13.191,LearnStrategy,2023.2.3,Linux x86_64,59.96282305,3,2,1,,,,,,,,1,06,,,,,,,,,,,1,17.475,1,,,,,,-0.393829695,-0.239761659,1,0,0,17.4746,Andesite_rect,0,0,0,0,1
614eb0a92921d8c1e64f4873,SCN,2024-06-10_14h55.13.191,LearnStrategy,2023.2.3,Linux x86_64,59.96282305,3,2,2,,,,,,,,8,03,,,,,,,,,,,8,5.523,1,,,,,,0.437279294,-0.390821309,1,0,0,5.5229,Pumice_rect,1,0,1,0,1
614eb0a92921d8c1e64f4873,SCN,2024-06-10_14h55.13.191,LearnStrategy,2023.2.3,Linux x86_64,59.96282305,3,2,3,,,,,,,,4,05,,,,,,,,,,,4,8.487,1,,,,,,0.383679234,-0.248510235,1,0,0,8.4872,Gabbro_rect,2,0,2,0,1
614eb0a92921d8c1e64f4873,SCN,2024-06-10_14h55.13.191,LearnStrategy,2023.2.3,Linux x86_64,59.96282305,3,2,4,,,,,,,,2,04,,,,,,,,,,,2,5.146,1,,,,,,-0.147787362,-0.245509719,1,0,0,5.1462,Basalt_rect,3,0,3,0,1
614eb0a92921d8c1e64f4873,SCN,2024-06-10_14h55.13.191,LearnStrategy,2023.2.3,Linux x86_64,59.96282305,3,2,5,,,,,,,,3,09,,,,,,,,,,,3,4.951,1,,,,,,0.129215623,-0.244255,1,0,0,4.9514,Diorite_rect,4,0,4,0,1
614eb0a92921d8c1e64f4873,SCN,2024-06-10_14h55.13.191,LearnStrategy,2023.2.3,Linux x86_64,59.96282305,3,2,6,,,,,,,,1,11,,,,,,,,,,,1,5.645,1,,,,,,-0.39686086,-0.2444855,1,0,0,5.6445,Andesite_rect,5,0,5,0,1
614eb0a92921d8c1e64f4873,SCN,2024-06-10_14h55.13.191,LearnStrategy,2023.2.3,Linux x86_64,59.96282305,3,2,7,,,,,,,,5,07,,,,,,,,,,,5,2.937,1,,,,,,-0.450944917,-0.398370956,1,0,0,2.9366,Obsidian_rect,6,0,6,0,1
614eb0a92921d8c1e64f4873,SCN,2024-06-10_14h55.13.191,LearnStrategy,2023.2.3,Linux x86_64,59.96282305,3,2,8,,,,,,,,3,02,,,,,,,,,,,3,8.803,1,,,,,,0.088567521,-0.249804915,1,0,0,8.8025,Diorite_rect,7,0,7,0,1
614eb0a92921d8c1e64f4873,SCN,2024-06-10_14h55.13.191,LearnStrategy,2023.2.3,Linux x86_64,59.96282305,3,2,9,,,,,,,,5,10,,,,,,,,,,,5,3.473,1,,,,,,-0.463105035,-0.391869488,1,0,0,3.4729,Obsidian_rect,8,0,8,0,1
614eb0a92921d8c1e64f4873,SCN,2024-06-10_14h55.13.191,LearnStrategy,2023.2.3,Linux x86_64,59.96282305,3,2,10,,,,,,,,6,16,,,,,,,,,,,6,10.16,1,,,,,,-0.13254781,-0.397909869,1,0,0,10.1604,Pegmatite_rect,9,0,9,0,1
614eb0a92921d8c1e64f4873,SCN,2024-06-10_14h55.13.191,LearnStrategy,2023.2.3,Linux x86_64,59.96282305,3,2,11,,,,,,,,8,05,,,,,,,,,,,8,10.238,1,,,,,,0.406962223,-0.387715774,1,0,0,10.2377,Pumice_rect,10,0,10,0,1
614eb0a92921d8c1e64f4873,SCN,2024-06-10_14h55.13.191,LearnStrategy,2023.2.3,Linux x86_64,59.96282305,3,2,12,,,,,,,,2,10,,,,,,,,,,,2,5.082,1,,,,,,-0.128243433,-0.246931978,1,0,0,5.0818,Basalt_rect,11,0,11,0,1
614eb0a92921d8c1e64f4873,SCN,2024-06-10_14h55.13.191,LearnStrategy,2023.2.3,Linux x86_64,59.96282305,3,2,13,,,,,,,,7,06,,,,,,,,,,,7,3.811,1,,,,,,0.108797877,-0.401980512,1,0,0,3.8114,Peridotite_rect,12,0,12,0,1
614eb0a92921d8c1e64f4873,SCN,2024-06-10_14h55.13.191,LearnStrategy,2023.2.3,Linux x86_64,59.96282305,3,2,14,,,,,,,,7,02,,,,,,,,,,,7,5.018,1,,,,,,0.13771901,-0.396316485,1,0,0,5.0178,Peridotite_rect,13,0,13,0,1
614eb0a92921d8c1e64f4873,SCN,2024-06-10_14h55.13.191,LearnStrategy,2023.2.3,Linux x86_64,59.96282305,3,2,15,,,,,,,,6,13,,,,,,,,,,,6,28.821,1,,,,,,-0.147142558,-0.404639039,1,0,0,28.8214,Pegmatite_rect,14,0,14,0,1
614eb0a92921d8c1e64f4873,SCN,2024-06-10_14h55.13.191,LearnStrategy,2023.2.3,Linux x86_64,59.96282305,3,2,16,,,,,,,,4,01,,,,,,,,,,,4,5.409,1,,,,,,0.411250948,-0.246933202,1,0,0,5.4087,Gabbro_rect,15,0,15,0,1
614eb0a92921d8c1e64f4873,SCN,2024-06-10_14h55.13.191,LearnStrategy,2023.2.3,Linux x86_64,59.96282305,4,1,1,0.549066582,0.084735816,1,0,0,12.1707,Pegmatite_05,6,05,4,8,12.171,-0.375201512,-0.398824697,1,0,0,3.342,Obsidian_rect,5,3.342,0,0,0,0,0,1,,,,,,,,,,,,
614eb0a92921d8c1e64f4873,SCN,2024-06-10_14h55.13.191,LearnStrategy,2023.2.3,Linux x86_64,59.96282305,4,1,2,0.389777591,0.081127834,1,0,0,1.7012,Pumice_02,8,02,4,7,1.701,0.390749081,-0.389919423,1,0,0,2.3861,Pumice_rect,8,2.386,1,1,0,1,0,1,,,,,,,,,,,,
614eb0a92921d8c1e64f4873,SCN,2024-06-10_14h55.13.191,LearnStrategy,2023.2.3,Linux x86_64,59.96282305,4,1,3,0.231512381,0.090860361,1,0,0,2.0178,Gabbro_12,4,12,4,6,2.018,0.394132598,-0.243847954,1,0,0,5.8375,Gabbro_rect,4,5.837,1,2,0,2,0,1,,,,,,,,,,,,
614eb0a92921d8c1e64f4873,SCN,2024-06-10_14h55.13.191,LearnStrategy,2023.2.3,Linux x86_64,59.96282305,4,1,4,0.067282078,0.082319287,1,0,0,2.1817,Peridotite_08,7,08,4,5,2.182,0.138615299,-0.391887239,1,0,0,2.9316,Peridotite_rect,7,2.932,1,3,0,3,0,1,,,,,,,,,,,,
614eb0a92921d8c1e64f4873,SCN,2024-06-10_14h55.13.191,LearnStrategy,2023.2.3,Linux x86_64,59.96282305,4,1,5,0.560085351,-0.11467732,1,0,0,1.9545,Diorite_06,3,06,3,8,1.954,0.405753587,-0.252504365,1,0,0,4.7568,Gabbro_rect,4,4.757,0,4,0,4,0,1,,,,,,,,,,,,
614eb0a92921d8c1e64f4873,SCN,2024-06-10_14h55.13.191,LearnStrategy,2023.2.3,Linux x86_64,59.96282305,4,1,6,0.075917416,-0.101672416,1,0,0,4.5467,Andesite_10,1,10,3,5,4.547,-0.413818228,-0.23759185,1,0,0,4.1694,Andesite_rect,1,4.169,1,5,0,5,0,1,,,,,,,,,,,,
614eb0a92921d8c1e64f4873,SCN,2024-06-10_14h55.13.191,LearnStrategy,2023.2.3,Linux x86_64,59.96282305,4,1,7,-0.085510779,-0.117561974,1,0,0,2.3676,Pumice_15,8,15,3,4,2.368,0.390783184,-0.404837535,1,0,0,4.258,Pumice_rect,8,4.258,1,6,0,6,0,1,,,,,,,,,,,,
614eb0a92921d8c1e64f4873,SCN,2024-06-10_14h55.13.191,LearnStrategy,2023.2.3,Linux x86_64,59.96282305,4,1,8,-0.22833899,-0.110229011,1,0,0,2.8627,Basalt_14,2,14,3,3,2.863,0.392051894,-0.407017137,1,0,0,9.4566,Pumice_rect,8,9.457,0,7,0,7,0,1,,,,,,,,,,,,
614eb0a92921d8c1e64f4873,SCN,2024-06-10_14h55.13.191,LearnStrategy,2023.2.3,Linux x86_64,59.96282305,4,1,9,-0.382469112,-0.083990146,1,0,0,1.7435,Andesite_03,1,03,3,2,1.744,-0.405341118,-0.243886254,1,0,0,4.0148,Andesite_rect,1,4.015,1,8,0,8,0,1,,,,,,,,,,,,
614eb0a92921d8c1e64f4873,SCN,2024-06-10_14h55.13.191,LearnStrategy,2023.2.3,Linux x86_64,59.96282305,4,1,10,-0.548475927,-0.100814994,1,0,0,2.0032,Andesite_14,1,14,3,1,2.003,0.12137689,-0.259382538,1,0,0,11.5294,Diorite_rect,3,11.529,0,9,0,9,0,1,,,,,,,,,,,,
614eb0a92921d8c1e64f4873,SCN,2024-06-10_14h55.13.191,LearnStrategy,2023.2.3,Linux x86_64,59.96282305,4,1,11,0.080747326,-0.258471907,1,0,0,7.4784,Gabbro_14,4,14,2,5,7.478,0.378723232,-0.240012882,1,0,0,3.2789,Gabbro_rect,4,3.279,1,10,0,10,0,1,,,,,,,,,,,,
614eb0a92921d8c1e64f4873,SCN,2024-06-10_14h55.13.191,LearnStrategy,2023.2.3,Linux x86_64,59.96282305,4,1,12,-0.075373434,-0.262639524,1,0,0,1.871,Pumice_10,8,10,2,4,1.871,0.116964171,-0.408183888,1,0,0,13.8584,Peridotite_rect,7,13.858,0,11,0,11,0,1,,,,,,,,,,,,
614eb0a92921d8c1e64f4873,SCN,2024-06-10_14h55.13.191,LearnStrategy,2023.2.3,Linux x86_64,59.96282305,4,1,13,-0.414324392,-0.263214024,1,0,0,2.9309,Peridotite_10,7,10,2,2,2.931,0.12060031,-0.38562309,1,0,0,2.1186,Peridotite_rect,7,2.119,1,12,0,12,0,1,,,,,,,,,,,,
614eb0a92921d8c1e64f4873,SCN,2024-06-10_14h55.13.191,LearnStrategy,2023.2.3,Linux x86_64,59.96282305,4,1,14,-0.545073676,-0.279941067,1,0,0,1.9822,Andesite_16,1,16,2,1,1.982,-0.420417283,-0.257757761,1,0,0,2.8839,Andesite_rect,1,2.884,1,13,0,13,0,1,,,,,,,,,,,,
614eb0a92921d8c1e64f4873,SCN,2024-06-10_14h55.13.191,LearnStrategy,2023.2.3,Linux x86_64,59.96282305,4,1,15,-0.546349271,-0.423257997,1,0,0,5.6857,Diorite_08,3,08,1,1,5.686,0.124856856,-0.253943588,1,0,0,2.7599,Diorite_rect,3,2.76,1,14,0,14,0,1,,,,,,,,,,,,
614eb0a92921d8c1e64f4873,SCN,2024-06-10_14h55.13.191,LearnStrategy,2023.2.3,Linux x86_64,59.96282305,4,1,16,-0.247058245,-0.432613515,1,0,0,2.9095,Gabbro_10,4,10,1,3,2.909,0.406008832,-0.240203158,1,0,0,6.8204,Gabbro_rect,4,6.82,1,15,0,15,0,1,,,,,,,,,,,,
614eb0a92921d8c1e64f4873,SCN,2024-06-10_14h55.13.191,LearnStrategy,2023.2.3,Linux x86_64,59.96282305,4,2,1,,,,,,,,6,06,,,,,,,,,,,1,18.953,0,,,,,,-0.394830042,-0.257126773,1,0,0,18.9531,Andesite_rect,0,0,0,0,1
614eb0a92921d8c1e64f4873,SCN,2024-06-10_14h55.13.191,LearnStrategy,2023.2.3,Linux x86_64,59.96282305,4,2,2,,,,,,,,2,10,,,,,,,,,,,2,4.007,1,,,,,,-0.152338678,-0.259879825,1,0,0,4.0069,Basalt_rect,1,0,1,0,1
614eb0a92921d8c1e64f4873,SCN,2024-06-10_14h55.13.191,LearnStrategy,2023.2.3,Linux x86_64,59.96282305,4,2,3,,,,,,,,7,06,,,,,,,,,,,7,4.429,1,,,,,,0.11957303,-0.402856865,1,0,0,4.4294,Peridotite_rect,2,0,2,0,1
614eb0a92921d8c1e64f4873,SCN,2024-06-10_14h55.13.191,LearnStrategy,2023.2.3,Linux x86_64,59.96282305,4,2,4,,,,,,,,7,16,,,,,,,,,,,4,7.366,0,,,,,,0.416538796,-0.244982438,1,0,0,7.3664,Gabbro_rect,3,0,3,0,1
614eb0a92921d8c1e64f4873,SCN,2024-06-10_14h55.13.191,LearnStrategy,2023.2.3,Linux x86_64,59.96282305,4,2,5,,,,,,,,5,04,,,,,,,,,,,5,5.2,1,,,,,,-0.433105119,-0.382347216,1,0,0,5.2004,Obsidian_rect,4,0,4,0,1
614eb0a92921d8c1e64f4873,SCN,2024-06-10_14h55.13.191,LearnStrategy,2023.2.3,Linux x86_64,59.96282305,4,2,6,,,,,,,,1,06,,,,,,,,,,,1,27.795,1,,,,,,-0.401341916,-0.243172982,1,0,0,27.7951,Andesite_rect,5,0,5,0,1
614eb0a92921d8c1e64f4873,SCN,2024-06-10_14h55.13.191,LearnStrategy,2023.2.3,Linux x86_64,59.96282305,4,2,7,,,,,,,,4,01,,,,,,,,,,,1,7.038,0,,,,,,-0.449819352,-0.243675166,1,0,0,7.0382,Andesite_rect,6,0,6,0,1
614eb0a92921d8c1e64f4873,SCN,2024-06-10_14h55.13.191,LearnStrategy,2023.2.3,Linux x86_64,59.96282305,4,2,8,,,,,,,,1,04,,,,,,,,,,,4,12.176,0,,,,,,0.373094794,-0.263417941,1,0,0,12.1755,Gabbro_rect,7,0,7,0,1
614eb0a92921d8c1e64f4873,SCN,2024-06-10_14h55.13.191,LearnStrategy,2023.2.3,Linux x86_64,59.96282305,4,2,9,,,,,,,,8,05,,,,,,,,,,,8,2.6,1,,,,,,0.416771744,-0.3920999,1,0,0,2.6003,Pumice_rect,8,0,8,0,1
614eb0a92921d8c1e64f4873,SCN,2024-06-10_14h55.13.191,LearnStrategy,2023.2.3,Linux x86_64,59.96282305,4,2,10,,,,,,,,3,15,,,,,,,,,,,4,13.605,0,,,,,,0.404936345,-0.243432687,1,0,0,13.6047,Gabbro_rect,9,0,9,0,1
614eb0a92921d8c1e64f4873,SCN,2024-06-10_14h55.13.191,LearnStrategy,2023.2.3,Linux x86_64,59.96282305,4,2,11,,,,,,,,4,15,,,,,,,,,,,3,18.035,0,,,,,,0.122301074,-0.251325722,1,0,0,18.0355,Diorite_rect,10,0,10,0,1
614eb0a92921d8c1e64f4873,SCN,2024-06-10_14h55.13.191,LearnStrategy,2023.2.3,Linux x86_64,59.96282305,4,2,12,,,,,,,,6,11,,,,,,,,,,,5,10.134,0,,,,,,-0.431160563,-0.400853635,1,0,0,10.134,Obsidian_rect,11,0,11,0,1
614eb0a92921d8c1e64f4873,SCN,2024-06-10_14h55.13.191,LearnStrategy,2023.2.3,Linux x86_64,59.96282305,4,2,13,,,,,,,,2,06,,,,,,,,,,,2,3.332,1,,,,,,-0.159953732,-0.250066194,1,0,0,3.3324,Basalt_rect,12,0,12,0,1
614eb0a92921d8c1e64f4873,SCN,2024-06-10_14h55.13.191,LearnStrategy,2023.2.3,Linux x86_64,59.96282305,4,2,14,,,,,,,,3,07,,,,,,,,,,,3,3.342,1,,,,,,0.140492349,-0.24907328,1,0,0,3.3418,Diorite_rect,13,0,13,0,1
614eb0a92921d8c1e64f4873,SCN,2024-06-10_14h55.13.191,LearnStrategy,2023.2.3,Linux x86_64,59.96282305,4,2,15,,,,,,,,5,10,,,,,,,,,,,5,2.743,1,,,,,,-0.444252167,-0.398892291,1,0,0,2.7433,Obsidian_rect,14,0,14,0,1
614eb0a92921d8c1e64f4873,SCN,2024-06-10_14h55.13.191,LearnStrategy,2023.2.3,Linux x86_64,59.96282305,4,2,16,,,,,,,,8,13,,,,,,,,,,,8,6.552,1,,,,,,0.410847486,-0.398931203,1,0,0,6.5517,Pumice_rect,15,0,15,0,1
614eb0a92921d8c1e64f4873,SCN,2024-06-10_14h55.13.191,LearnStrategy,2023.2.3,Linux x86_64,59.96282305,5,1,1,0.555789456,-0.440469649,1,0,0,6.876,Basalt_09,2,09,1,8,6.876,-0.11928683,-0.253842854,1,0,0,2.6406,Basalt_rect,2,2.641,1,0,0,0,0,1,,,,,,,,,,,,
614eb0a92921d8c1e64f4873,SCN,2024-06-10_14h55.13.191,LearnStrategy,2023.2.3,Linux x86_64,59.96282305,5,1,2,0.394030027,-0.405469047,1,0,0,1.5097,Pegmatite_12,6,12,1,7,1.51,-0.159698792,-0.405808763,1,0,0,3.4435,Pegmatite_rect,6,3.444,1,1,0,1,0,1,,,,,,,,,,,,
614eb0a92921d8c1e64f4873,SCN,2024-06-10_14h55.13.191,LearnStrategy,2023.2.3,Linux x86_64,59.96282305,5,1,3,0.236498901,-0.415401951,1,0,0,1.4438,Peridotite_05,7,05,1,6,1.444,0.126829131,-0.404767755,1,0,0,4.0011,Peridotite_rect,7,4.001,1,2,0,2,0,1,,,,,,,,,,,,
614eb0a92921d8c1e64f4873,SCN,2024-06-10_14h55.13.191,LearnStrategy,2023.2.3,Linux x86_64,59.96282305,5,1,4,0.071901862,-0.41500767,1,0,0,2.1242,Diorite_12,3,12,1,5,2.124,0.373944564,-0.233220447,1,0,0,6.7945,Gabbro_rect,4,6.794,0,3,0,3,0,1,,,,,,,,,,,,
614eb0a92921d8c1e64f4873,SCN,2024-06-10_14h55.13.191,LearnStrategy,2023.2.3,Linux x86_64,59.96282305,5,1,5,-0.086409342,-0.416793605,1,0,0,1.7758,Gabbro_13,4,13,1,4,1.776,0.390967077,-0.237072964,1,0,0,5.0448,Gabbro_rect,4,5.045,1,4,0,4,0,1,,,,,,,,,,,,
614eb0a92921d8c1e64f4873,SCN,2024-06-10_14h55.13.191,LearnStrategy,2023.2.3,Linux x86_64,59.96282305,5,1,6,-0.229896174,-0.441896368,1,0,0,1.8824,Gabbro_10,4,10,1,3,1.882,-0.398652872,-0.239025826,1,0,0,3.9562,Andesite_rect,1,3.956,0,5,0,5,0,1,,,,,,,,,,,,
614eb0a92921d8c1e64f4873,SCN,2024-06-10_14h55.13.191,LearnStrategy,2023.2.3,Linux x86_64,59.96282305,5,1,7,-0.546483103,-0.409020629,1,0,0,2.7927,Diorite_08,3,08,1,1,2.793,0.111702206,-0.24250859,1,0,0,3.092,Diorite_rect,3,3.092,1,6,0,6,0,1,,,,,,,,,,,,
614eb0a92921d8c1e64f4873,SCN,2024-06-10_14h55.13.191,LearnStrategy,2023.2.3,Linux x86_64,59.96282305,5,1,8,0.400324606,-0.266998903,1,0,0,5.0057,Pumice_04,8,04,2,7,5.006,0.395805118,-0.401268902,1,0,0,2.893,Pumice_rect,8,2.893,1,7,0,7,0,1,,,,,,,,,,,,
614eb0a92921d8c1e64f4873,SCN,2024-06-10_14h55.13.191,LearnStrategy,2023.2.3,Linux x86_64,59.96282305,5,1,9,0.259862512,-0.265706409,1,0,0,2.173,Obsidian_14,5,14,2,6,2.173,-0.438730715,-0.405787777,1,0,0,2.3948,Obsidian_rect,5,2.395,1,8,0,8,0,1,,,,,,,,,,,,
614eb0a92921d8c1e64f4873,SCN,2024-06-10_14h55.13.191,LearnStrategy,2023.2.3,Linux x86_64,59.96282305,5,1,10,-0.065038555,-0.26280584,1,0,0,3.6654,Pumice_10,8,10,2,4,3.665,0.11943592,-0.395724933,1,0,0,5.2934,Peridotite_rect,7,5.293,0,9,0,9,0,1,,,,,,,,,,,,
614eb0a92921d8c1e64f4873,SCN,2024-06-10_14h55.13.191,LearnStrategy,2023.2.3,Linux x86_64,59.96282305,5,1,11,-0.385710358,-0.254926009,1,0,0,2.3794,Peridotite_10,7,10,2,2,2.379,0.131800611,-0.39104595,1,0,0,2.2182,Peridotite_rect,7,2.218,1,10,0,10,0,1,,,,,,,,,,,,
614eb0a92921d8c1e64f4873,SCN,2024-06-10_14h55.13.191,LearnStrategy,2023.2.3,Linux x86_64,59.96282305,5,1,12,-0.550484731,-0.254403975,1,0,0,1.4802,Andesite_16,1,16,2,1,1.48,0.388739206,-0.235571919,1,0,0,6.7449,Gabbro_rect,4,6.745,0,11,0,11,0,1,,,,,,,,,,,,
614eb0a92921d8c1e64f4873,SCN,2024-06-10_14h55.13.191,LearnStrategy,2023.2.3,Linux x86_64,59.96282305,5,1,13,-0.598979808,-0.103006314,1,0,0,3.3711,Andesite_14,1,14,3,1,3.371,-0.424723366,-0.246575036,1,0,0,2.629,Andesite_rect,1,2.629,1,12,0,12,0,1,,,,,,,,,,,,
614eb0a92921d8c1e64f4873,SCN,2024-06-10_14h55.13.191,LearnStrategy,2023.2.3,Linux x86_64,59.96282305,5,1,14,-0.400612162,-0.079716942,1,0,0,1.449,Andesite_03,1,03,3,2,1.449,-0.393002442,-0.241737256,1,0,0,3.8479,Andesite_rect,1,3.848,1,13,0,13,0,1,,,,,,,,,,,,
614eb0a92921d8c1e64f4873,SCN,2024-06-10_14h55.13.191,LearnStrategy,2023.2.3,Linux x86_64,59.96282305,5,1,15,-0.232819653,-0.096990853,1,0,0,1.7863,Basalt_14,2,14,3,3,1.786,0.397550829,-0.390551111,1,0,0,3.834,Pumice_rect,8,3.834,0,14,0,14,0,1,,,,,,,,,,,,
614eb0a92921d8c1e64f4873,SCN,2024-06-10_14h55.13.191,LearnStrategy,2023.2.3,Linux x86_64,59.96282305,5,1,16,0.100437984,-0.118436447,1,0,0,3.1007,Andesite_10,1,10,3,5,3.101,-0.382191043,-0.232151501,1,0,0,3.8292,Andesite_rect,1,3.829,1,15,0,15,0,1,,,,,,,,,,,,
614eb0a92921d8c1e64f4873,SCN,2024-06-10_14h55.13.191,LearnStrategy,2023.2.3,Linux x86_64,59.96282305,5,2,1,,,,,,,,8,08,,,,,,,,,,,2,4.321,0,,,,,,-0.146144222,-0.249481726,1,0,0,4.3213,Basalt_rect,0,0,0,0,1
614eb0a92921d8c1e64f4873,SCN,2024-06-10_14h55.13.191,LearnStrategy,2023.2.3,Linux x86_64,59.96282305,5,2,2,,,,,,,,4,16,,,,,,,,,,,4,4.812,1,,,,,,0.428183394,-0.240633727,1,0,0,4.8116,Gabbro_rect,1,0,1,0,1
614eb0a92921d8c1e64f4873,SCN,2024-06-10_14h55.13.191,LearnStrategy,2023.2.3,Linux x86_64,59.96282305,5,2,3,,,,,,,,2,16,,,,,,,,,,,2,12.036,1,,,,,,-0.187339367,-0.250151976,1,0,0,12.0357,Basalt_rect,2,0,2,0,1
614eb0a92921d8c1e64f4873,SCN,2024-06-10_14h55.13.191,LearnStrategy,2023.2.3,Linux x86_64,59.96282305,5,2,4,,,,,,,,8,06,,,,,,,,,,,8,3.139,1,,,,,,0.402491703,-0.403182153,1,0,0,3.1387,Pumice_rect,3,0,3,0,1
614eb0a92921d8c1e64f4873,SCN,2024-06-10_14h55.13.191,LearnStrategy,2023.2.3,Linux x86_64,59.96282305,5,2,5,,,,,,,,7,13,,,,,,,,,,,7,2.602,1,,,,,,0.117768733,-0.411734157,1,0,0,2.6021,Peridotite_rect,4,0,4,0,1
614eb0a92921d8c1e64f4873,SCN,2024-06-10_14h55.13.191,LearnStrategy,2023.2.3,Linux x86_64,59.96282305,5,2,6,,,,,,,,3,09,,,,,,,,,,,3,3.096,1,,,,,,0.149350054,-0.244394035,1,0,0,3.0964,Diorite_rect,5,0,5,0,1
614eb0a92921d8c1e64f4873,SCN,2024-06-10_14h55.13.191,LearnStrategy,2023.2.3,Linux x86_64,59.96282305,5,2,7,,,,,,,,3,16,,,,,,,,,,,3,5.075,1,,,,,,0.09737241,-0.247283936,1,0,0,5.0746,Diorite_rect,6,0,6,0,1
614eb0a92921d8c1e64f4873,SCN,2024-06-10_14h55.13.191,LearnStrategy,2023.2.3,Linux x86_64,59.96282305,5,2,8,,,,,,,,6,13,,,,,,,,,,,6,13.177,1,,,,,,-0.15941762,-0.397251162,1,0,0,13.1772,Pegmatite_rect,7,0,7,0,1
614eb0a92921d8c1e64f4873,SCN,2024-06-10_14h55.13.191,LearnStrategy,2023.2.3,Linux x86_64,59.96282305,5,2,9,,,,,,,,6,16,,,,,,,,,,,6,5.829,1,,,,,,-0.15191493,-0.408654768,1,0,0,5.8292,Pegmatite_rect,8,0,8,0,1
614eb0a92921d8c1e64f4873,SCN,2024-06-10_14h55.13.191,LearnStrategy,2023.2.3,Linux x86_64,59.96282305,5,2,10,,,,,,,,2,04,,,,,,,,,,,2,2.972,1,,,,,,-0.142926935,-0.244055281,1,0,0,2.9715,Basalt_rect,9,0,9,0,1
614eb0a92921d8c1e64f4873,SCN,2024-06-10_14h55.13.191,LearnStrategy,2023.2.3,Linux x86_64,59.96282305,5,2,11,,,,,,,,1,05,,,,,,,,,,,1,13.802,1,,,,,,-0.425505936,-0.265947577,1,0,0,13.8015,Andesite_rect,10,0,10,0,1
614eb0a92921d8c1e64f4873,SCN,2024-06-10_14h55.13.191,LearnStrategy,2023.2.3,Linux x86_64,59.96282305,5,2,12,,,,,,,,5,06,,,,,,,,,,,5,2.447,1,,,,,,-0.452674363,-0.396563686,1,0,0,2.447,Obsidian_rect,11,0,11,0,1
614eb0a92921d8c1e64f4873,SCN,2024-06-10_14h55.13.191,LearnStrategy,2023.2.3,Linux x86_64,59.96282305,5,2,13,,,,,,,,5,12,,,,,,,,,,,5,2.112,1,,,,,,-0.429043352,-0.394230971,1,0,0,2.1121,Obsidian_rect,12,0,12,0,1
614eb0a92921d8c1e64f4873,SCN,2024-06-10_14h55.13.191,LearnStrategy,2023.2.3,Linux x86_64,59.96282305,5,2,14,,,,,,,,1,11,,,,,,,,,,,1,4.646,1,,,,,,-0.44526327,-0.243059743,1,0,0,4.6461,Andesite_rect,13,0,13,0,1
614eb0a92921d8c1e64f4873,SCN,2024-06-10_14h55.13.191,LearnStrategy,2023.2.3,Linux x86_64,59.96282305,5,2,15,,,,,,,,7,15,,,,,,,,,,,7,2.856,1,,,,,,0.106638999,-0.407195783,1,0,0,2.8557,Peridotite_rect,14,0,14,0,1
614eb0a92921d8c1e64f4873,SCN,2024-06-10_14h55.13.191,LearnStrategy,2023.2.3,Linux x86_64,59.96282305,5,2,16,,,,,,,,4,05,,,,,,,,,,,4,3.201,1,,,,,,0.434024844,-0.257028312,1,0,0,3.2008,Gabbro_rect,15,0,15,0,1
614eb0a92921d8c1e64f4873,SCN,2024-06-10_14h55.13.191,LearnStrategy,2023.2.3,Linux x86_64,59.96282305,6,1,1,-0.531062194,-0.095430172,1,0,0,20.0171,Andesite_14,1,14,3,1,20.017,-0.396018348,-0.25945153,1,0,0,3.0774,Andesite_rect,1,3.077,1,0,0,0,0,1,,,,,,,,,,,,
614eb0a92921d8c1e64f4873,SCN,2024-06-10_14h55.13.191,LearnStrategy,2023.2.3,Linux x86_64,59.96282305,6,1,2,-0.224741807,-0.104135246,1,0,0,5.73,Basalt_14,2,14,3,3,5.73,-0.131838736,-0.234479582,1,0,0,2.8851,Basalt_rect,2,2.885,1,1,0,1,0,1,,,,,,,,,,,,
614eb0a92921d8c1e64f4873,SCN,2024-06-10_14h55.13.191,LearnStrategy,2023.2.3,Linux x86_64,59.96282305,6,1,3,-0.429106617,-0.119800032,1,0,0,1.3551,Andesite_03,1,03,3,2,1.355,-0.407537422,-0.249217124,1,0,0,3.6281,Andesite_rect,1,3.628,1,2,0,2,0,1,,,,,,,,,,,,
614eb0a92921d8c1e64f4873,SCN,2024-06-10_14h55.13.191,LearnStrategy,2023.2.3,Linux x86_64,59.96282305,6,1,4,-0.07541287,-0.134081253,1,0,0,2.453,Pumice_15,8,15,3,4,2.453,-0.128239498,-0.240817182,1,0,0,4.2417,Basalt_rect,2,4.242,0,3,0,3,0,1,,,,,,,,,,,,
614eb0a92921d8c1e64f4873,SCN,2024-06-10_14h55.13.191,LearnStrategy,2023.2.3,Linux x86_64,59.96282305,6,1,5,0.092520902,-0.098594862,1,0,0,1.5269,Andesite_10,1,10,3,5,1.527,-0.429843454,-0.242201578,1,0,0,5.5289,Andesite_rect,1,5.529,1,4,0,4,0,1,,,,,,,,,,,,
614eb0a92921d8c1e64f4873,SCN,2024-06-10_14h55.13.191,LearnStrategy,2023.2.3,Linux x86_64,59.96282305,6,1,6,0.557392197,-0.113728914,1,0,0,4.5811,Diorite_06,3,06,3,8,4.581,0.39616993,-0.235855321,1,0,0,3.9489,Gabbro_rect,4,3.949,0,5,0,5,0,1,,,,,,,,,,,,
614eb0a92921d8c1e64f4873,SCN,2024-06-10_14h55.13.191,LearnStrategy,2023.2.3,Linux x86_64,59.96282305,6,1,7,-0.094858339,-0.253004801,1,0,0,7.2134,Pumice_10,8,10,2,4,7.213,0.404256039,-0.398095248,1,0,0,2.6184,Pumice_rect,8,2.618,1,6,0,6,0,1,,,,,,,,,,,,
614eb0a92921d8c1e64f4873,SCN,2024-06-10_14h55.13.191,LearnStrategy,2023.2.3,Linux x86_64,59.96282305,6,1,8,-0.39955725,-0.256398898,1,0,0,2.3644,Peridotite_10,7,10,2,2,2.364,0.126759002,-0.394659704,1,0,0,2.0991,Peridotite_rect,7,2.099,1,7,0,7,0,1,,,,,,,,,,,,
614eb0a92921d8c1e64f4873,SCN,2024-06-10_14h55.13.191,LearnStrategy,2023.2.3,Linux x86_64,59.96282305,6,1,9,-0.577173075,-0.28895888,1,0,0,1.9733,Andesite_16,1,16,2,1,1.973,-0.408427372,-0.24928804,1,0,0,2.8273,Andesite_rect,1,2.827,1,8,0,8,0,1,,,,,,,,,,,,
614eb0a92921d8c1e64f4873,SCN,2024-06-10_14h55.13.191,LearnStrategy,2023.2.3,Linux x86_64,59.96282305,6,1,10,-0.547536877,-0.423891609,1,0,0,2.7319,Diorite_08,3,08,1,1,2.732,0.124619536,-0.254441401,1,0,0,3.2652,Diorite_rect,3,3.265,1,9,0,9,0,1,,,,,,,,,,,,
614eb0a92921d8c1e64f4873,SCN,2024-06-10_14h55.13.191,LearnStrategy,2023.2.3,Linux x86_64,59.96282305,6,1,11,-0.236924355,-0.416477761,1,0,0,2.5689,Gabbro_10,4,10,1,3,2.569,0.383985022,-0.256561542,1,0,0,4.2346,Gabbro_rect,4,4.235,1,10,0,10,0,1,,,,,,,,,,,,
614eb0a92921d8c1e64f4873,SCN,2024-06-10_14h55.13.191,LearnStrategy,2023.2.3,Linux x86_64,59.96282305,6,1,12,-0.066741681,-0.427884252,1,0,0,1.9615,Gabbro_13,4,13,1,4,1.961,0.402155311,-0.244842442,1,0,0,2.3209,Gabbro_rect,4,2.321,1,11,0,11,0,1,,,,,,,,,,,,
614eb0a92921d8c1e64f4873,SCN,2024-06-10_14h55.13.191,LearnStrategy,2023.2.3,Linux x86_64,59.96282305,6,1,13,0.078062566,-0.450860491,1,0,0,3.3092,Diorite_12,3,12,1,5,3.309,0.136628334,-0.235054257,1,0,0,2.5901,Diorite_rect,3,2.59,1,12,0,12,0,1,,,,,,,,,,,,
614eb0a92921d8c1e64f4873,SCN,2024-06-10_14h55.13.191,LearnStrategy,2023.2.3,Linux x86_64,59.96282305,6,1,14,0.241775819,-0.405297747,1,0,0,2.5009,Peridotite_05,7,05,1,6,2.501,0.12866893,-0.41027456,1,0,0,1.8105,Peridotite_rect,7,1.811,1,13,0,13,0,1,,,,,,,,,,,,
614eb0a92921d8c1e64f4873,SCN,2024-06-10_14h55.13.191,LearnStrategy,2023.2.3,Linux x86_64,59.96282305,6,1,15,0.396830387,-0.412368731,1,0,0,1.6943,Pegmatite_12,6,12,1,7,1.694,0.129235385,-0.243480344,1,0,0,3.2248,Diorite_rect,3,3.225,0,14,0,14,0,1,,,,,,,,,,,,
614eb0a92921d8c1e64f4873,SCN,2024-06-10_14h55.13.191,LearnStrategy,2023.2.3,Linux x86_64,59.96282305,6,1,16,0.542019907,0.24190495,1,0,0,11.0571,Pegmatite_07,6,07,5,8,11.057,-0.07898264,-0.391338884,1,0,0,2.6228,Pegmatite_rect,6,2.623,1,15,0,15,0,1,,,,,,,,,,,,
614eb0a92921d8c1e64f4873,SCN,2024-06-10_14h55.13.191,LearnStrategy,2023.2.3,Linux x86_64,59.96282305,6,2,1,,,,,,,,6,09,,,,,,,,,,,6,1.78,1,,,,,,-0.070253389,-0.382609458,1,0,0,1.7801,Pegmatite_rect,0,0,0,0,1
614eb0a92921d8c1e64f4873,SCN,2024-06-10_14h55.13.191,LearnStrategy,2023.2.3,Linux x86_64,59.96282305,6,2,2,,,,,,,,7,04,,,,,,,,,,,7,5.913,1,,,,,,0.131027091,-0.39563478,1,0,0,5.9133,Peridotite_rect,1,0,1,0,1
614eb0a92921d8c1e64f4873,SCN,2024-06-10_14h55.13.191,LearnStrategy,2023.2.3,Linux x86_64,59.96282305,6,2,3,,,,,,,,5,07,,,,,,,,,,,5,2.604,1,,,,,,-0.436423884,-0.391908662,1,0,0,2.604,Obsidian_rect,2,0,2,0,1
614eb0a92921d8c1e64f4873,SCN,2024-06-10_14h55.13.191,LearnStrategy,2023.2.3,Linux x86_64,59.96282305,6,2,4,,,,,,,,1,09,,,,,,,,,,,1,2.835,1,,,,,,-0.407648693,-0.233091425,1,0,0,2.8349,Andesite_rect,3,0,3,0,1
614eb0a92921d8c1e64f4873,SCN,2024-06-10_14h55.13.191,LearnStrategy,2023.2.3,Linux x86_64,59.96282305,6,2,5,,,,,,,,8,14,,,,,,,,,,,8,4.057,1,,,,,,0.438801938,-0.394222402,1,0,0,4.0572,Pumice_rect,4,0,4,0,1
614eb0a92921d8c1e64f4873,SCN,2024-06-10_14h55.13.191,LearnStrategy,2023.2.3,Linux x86_64,59.96282305,6,2,6,,,,,,,,3,02,,,,,,,,,,,3,12.614,1,,,,,,0.128401967,-0.237952465,1,0,0,12.6139,Diorite_rect,5,0,5,0,1
614eb0a92921d8c1e64f4873,SCN,2024-06-10_14h55.13.191,LearnStrategy,2023.2.3,Linux x86_64,59.96282305,6,2,7,,,,,,,,8,03,,,,,,,,,,,8,5.057,1,,,,,,0.382498055,-0.389293682,1,0,0,5.0574,Pumice_rect,6,0,6,0,1
614eb0a92921d8c1e64f4873,SCN,2024-06-10_14h55.13.191,LearnStrategy,2023.2.3,Linux x86_64,59.96282305,6,2,8,,,,,,,,7,02,,,,,,,,,,,7,2.593,1,,,,,,0.112812469,-0.409113056,1,0,0,2.5934,Peridotite_rect,7,0,7,0,1
614eb0a92921d8c1e64f4873,SCN,2024-06-10_14h55.13.191,LearnStrategy,2023.2.3,Linux x86_64,59.96282305,6,2,9,,,,,,,,2,12,,,,,,,,,,,2,10.356,1,,,,,,-0.160428635,-0.237256419,1,0,0,10.356,Basalt_rect,8,0,8,0,1
614eb0a92921d8c1e64f4873,SCN,2024-06-10_14h55.13.191,LearnStrategy,2023.2.3,Linux x86_64,59.96282305,6,2,10,,,,,,,,1,07,,,,,,,,,,,3,4.029,0,,,,,,0.124911333,-0.243753428,1,0,0,4.0294,Diorite_rect,9,0,9,0,1
614eb0a92921d8c1e64f4873,SCN,2024-06-10_14h55.13.191,LearnStrategy,2023.2.3,Linux x86_64,59.96282305,6,2,11,,,,,,,,3,14,,,,,,,,,,,3,3.028,1,,,,,,0.143883298,-0.269776527,1,0,0,3.0276,Diorite_rect,10,0,10,0,1
614eb0a92921d8c1e64f4873,SCN,2024-06-10_14h55.13.191,LearnStrategy,2023.2.3,Linux x86_64,59.96282305,6,2,12,,,,,,,,4,03,,,,,,,,,,,4,3.949,1,,,,,,0.401372259,-0.245505609,1,0,0,3.9493,Gabbro_rect,11,0,11,0,1
614eb0a92921d8c1e64f4873,SCN,2024-06-10_14h55.13.191,LearnStrategy,2023.2.3,Linux x86_64,59.96282305,6,2,13,,,,,,,,2,08,,,,,,,,,,,2,2.781,1,,,,,,-0.141917844,-0.251543105,1,0,0,2.7812,Basalt_rect,12,0,12,0,1
614eb0a92921d8c1e64f4873,SCN,2024-06-10_14h55.13.191,LearnStrategy,2023.2.3,Linux x86_64,59.96282305,6,2,14,,,,,,,,4,11,,,,,,,,,,,4,4.382,1,,,,,,0.402183117,-0.246080021,1,0,0,4.3822,Gabbro_rect,13,0,13,0,1
614eb0a92921d8c1e64f4873,SCN,2024-06-10_14h55.13.191,LearnStrategy,2023.2.3,Linux x86_64,59.96282305,6,2,15,,,,,,,,5,16,,,,,,,,,,,5,2.487,1,,,,,,-0.434945486,-0.380816003,1,0,0,2.4867,Obsidian_rect,14,0,14,0,1
614eb0a92921d8c1e64f4873,SCN,2024-06-10_14h55.13.191,LearnStrategy,2023.2.3,Linux x86_64,59.96282305,6,2,16,,,,,,,,6,03,,,,,,,,,,,6,3.104,1,,,,,,-0.118234367,-0.407398126,1,0,0,3.1043,Pegmatite_rect,15,0,15,0,1
614eb0a92921d8c1e64f4873,SCN,2024-06-10_14h55.13.191,LearnStrategy,2023.2.3,Linux x86_64,59.96282305,7,1,1,0.219552464,0.410059456,1,0,0,2.8735,Diorite_11,3,11,6,6,2.874,0.379612264,-0.242418524,1,0,0,4.7279,Gabbro_rect,4,4.728,0,0,0,0,0,1,,,,,,,,,,,,
614eb0a92921d8c1e64f4873,SCN,2024-06-10_14h55.13.191,LearnStrategy,2023.2.3,Linux x86_64,59.96282305,7,1,2,0.569967625,0.450730436,1,0,0,2.9182,Peridotite_12,7,12,6,8,2.918,0.139108215,-0.399808955,1,0,0,3.0535,Peridotite_rect,7,3.053,1,1,0,1,0,1,,,,,,,,,,,,
614eb0a92921d8c1e64f4873,SCN,2024-06-10_14h55.13.191,LearnStrategy,2023.2.3,Linux x86_64,59.96282305,7,1,3,0.05322423,0.373503349,1,0,0,2.443,Peridotite_14,7,14,6,5,2.443,-0.139753107,-0.24227538,1,0,0,7.3116,Basalt_rect,2,7.312,0,2,0,2,0,1,,,,,,,,,,,,
614eb0a92921d8c1e64f4873,SCN,2024-06-10_14h55.13.191,LearnStrategy,2023.2.3,Linux x86_64,59.96282305,7,1,4,-0.534956771,0.40212229,1,0,0,5.8478,Peridotite_07,7,07,6,1,5.848,0.119097865,-0.419888209,1,0,0,2.2624,Peridotite_rect,7,2.262,1,3,0,3,0,1,,,,,,,,,,,,
614eb0a92921d8c1e64f4873,SCN,2024-06-10_14h55.13.191,LearnStrategy,2023.2.3,Linux x86_64,59.96282305,7,1,5,-0.241840046,0.248231511,1,0,0,4.7678,Andesite_02,1,02,5,3,4.768,-0.405428386,-0.233678867,1,0,0,2.057,Andesite_rect,1,2.057,1,4,0,4,0,1,,,,,,,,,,,,
614eb0a92921d8c1e64f4873,SCN,2024-06-10_14h55.13.191,LearnStrategy,2023.2.3,Linux x86_64,59.96282305,7,1,6,-0.080635311,0.252484822,1,0,0,1.4813,Andesite_01,1,01,5,4,1.481,0.390608561,-0.269250208,1,0,0,4.4542,Gabbro_rect,4,4.454,0,5,0,5,0,1,,,,,,,,,,,,
614eb0a92921d8c1e64f4873,SCN,2024-06-10_14h55.13.191,LearnStrategy,2023.2.3,Linux x86_64,59.96282305,7,1,7,0.065553332,0.247361366,1,0,0,2.2044,Gabbro_08,4,08,5,5,2.204,0.390263424,-0.254830084,1,0,0,5.9735,Gabbro_rect,4,5.974,1,6,0,6,0,1,,,,,,,,,,,,
614eb0a92921d8c1e64f4873,SCN,2024-06-10_14h55.13.191,LearnStrategy,2023.2.3,Linux x86_64,59.96282305,7,1,8,0.238150698,0.240823653,1,0,0,5.4373,Basalt_02,2,02,5,6,5.437,-0.162397456,-0.228919699,1,0,0,3.131,Basalt_rect,2,3.131,1,7,0,7,0,1,,,,,,,,,,,,
614eb0a92921d8c1e64f4873,SCN,2024-06-10_14h55.13.191,LearnStrategy,2023.2.3,Linux x86_64,59.96282305,7,1,9,0.083858807,0.114294888,1,0,0,8.9991,Peridotite_08,7,08,4,5,8.999,0.15129802,-0.380598795,1,0,0,1.5202,Peridotite_rect,7,1.52,1,8,0,8,0,1,,,,,,,,,,,,
614eb0a92921d8c1e64f4873,SCN,2024-06-10_14h55.13.191,LearnStrategy,2023.2.3,Linux x86_64,59.96282305,7,1,10,0.221239675,0.099078028,1,0,0,2.0503,Gabbro_12,4,12,4,6,2.05,-0.37939781,-0.232029956,1,0,0,3.4006,Andesite_rect,1,3.401,0,9,0,9,0,1,,,,,,,,,,,,
614eb0a92921d8c1e64f4873,SCN,2024-06-10_14h55.13.191,LearnStrategy,2023.2.3,Linux x86_64,59.96282305,7,1,11,-0.072846333,0.086434001,1,0,0,2.3795,Basalt_11,2,11,4,4,2.38,-0.128051233,-0.241122445,1,0,0,2.1971,Basalt_rect,2,2.197,1,10,0,10,0,1,,,,,,,,,,,,
614eb0a92921d8c1e64f4873,SCN,2024-06-10_14h55.13.191,LearnStrategy,2023.2.3,Linux x86_64,59.96282305,7,1,12,-0.381115233,0.107948194,1,0,0,1.6663,Diorite_13,3,13,4,2,1.666,0.142875256,-0.238793403,1,0,0,4.3352,Diorite_rect,3,4.335,1,11,0,11,0,1,,,,,,,,,,,,
614eb0a92921d8c1e64f4873,SCN,2024-06-10_14h55.13.191,LearnStrategy,2023.2.3,Linux x86_64,59.96282305,7,1,13,-0.559105357,0.069598572,1,0,0,1.5209,Diorite_10,3,10,4,1,1.521,0.126876438,-0.235754762,1,0,0,5.203,Diorite_rect,3,5.203,1,12,0,12,0,1,,,,,,,,,,,,
614eb0a92921d8c1e64f4873,SCN,2024-06-10_14h55.13.191,LearnStrategy,2023.2.3,Linux x86_64,59.96282305,7,1,14,-0.214854199,-0.08873563,1,0,0,7.4947,Basalt_14,2,14,3,3,7.495,-0.140316501,-0.239411362,1,0,0,3.3787,Basalt_rect,2,3.379,1,13,0,13,0,1,,,,,,,,,,,,
614eb0a92921d8c1e64f4873,SCN,2024-06-10_14h55.13.191,LearnStrategy,2023.2.3,Linux x86_64,59.96282305,7,1,15,0.084436892,-0.113797163,1,0,0,2.4163,Andesite_10,1,10,3,5,2.416,-0.368809479,-0.26975353,1,0,0,5.4827,Andesite_rect,1,5.483,1,14,0,14,0,1,,,,,,,,,,,,
614eb0a92921d8c1e64f4873,SCN,2024-06-10_14h55.13.191,LearnStrategy,2023.2.3,Linux x86_64,59.96282305,7,1,16,0.561829837,-0.090675026,1,0,0,5.6264,Diorite_06,3,06,3,8,5.626,0.137501801,-0.252661937,1,0,0,2.1885,Diorite_rect,3,2.189,1,15,0,15,0,1,,,,,,,,,,,,
614eb0a92921d8c1e64f4873,SCN,2024-06-10_14h55.13.191,LearnStrategy,2023.2.3,Linux x86_64,59.96282305,7,2,1,,,,,,,,4,15,,,,,,,,,,,4,2.376,1,,,,,,0.394349631,-0.232826167,1,0,0,2.3757,Gabbro_rect,0,0,0,0,1
614eb0a92921d8c1e64f4873,SCN,2024-06-10_14h55.13.191,LearnStrategy,2023.2.3,Linux x86_64,59.96282305,7,2,2,,,,,,,,7,13,,,,,,,,,,,7,2.183,1,,,,,,0.11756709,-0.396886962,1,0,0,2.1827,Peridotite_rect,1,0,1,0,1
614eb0a92921d8c1e64f4873,SCN,2024-06-10_14h55.13.191,LearnStrategy,2023.2.3,Linux x86_64,59.96282305,7,2,3,,,,,,,,3,09,,,,,,,,,,,3,2.74,1,,,,,,0.140284672,-0.25698905,1,0,0,2.7397,Diorite_rect,2,0,2,0,1
614eb0a92921d8c1e64f4873,SCN,2024-06-10_14h55.13.191,LearnStrategy,2023.2.3,Linux x86_64,59.96282305,7,2,4,,,,,,,,7,02,,,,,,,,,,,7,3.446,1,,,,,,0.125426459,-0.404064889,1,0,0,3.4459,Peridotite_rect,3,0,3,0,1
614eb0a92921d8c1e64f4873,SCN,2024-06-10_14h55.13.191,LearnStrategy,2023.2.3,Linux x86_64,59.96282305,7,2,5,,,,,,,,2,06,,,,,,,,,,,2,2.535,1,,,,,,-0.150538928,-0.244761732,1,0,0,2.5348,Basalt_rect,4,0,4,0,1
614eb0a92921d8c1e64f4873,SCN,2024-06-10_14h55.13.191,LearnStrategy,2023.2.3,Linux x86_64,59.96282305,7,2,6,,,,,,,,8,05,,,,,,,,,,,8,6.29,1,,,,,,0.38629299,-0.416563892,1,0,0,6.29,Pumice_rect,5,0,5,0,1
614eb0a92921d8c1e64f4873,SCN,2024-06-10_14h55.13.191,LearnStrategy,2023.2.3,Linux x86_64,59.96282305,7,2,7,,,,,,,,1,07,,,,,,,,,,,6,16.332,0,,,,,,-0.143452642,-0.403437224,1,0,0,16.3321,Pegmatite_rect,6,0,6,0,1
614eb0a92921d8c1e64f4873,SCN,2024-06-10_14h55.13.191,LearnStrategy,2023.2.3,Linux x86_64,59.96282305,7,2,8,,,,,,,,1,11,,,,,,,,,,,1,2.597,1,,,,,,-0.400996123,-0.236812646,1,0,0,2.5969,Andesite_rect,7,0,7,0,1
614eb0a92921d8c1e64f4873,SCN,2024-06-10_14h55.13.191,LearnStrategy,2023.2.3,Linux x86_64,59.96282305,7,2,9,,,,,,,,4,16,,,,,,,,,,,4,18.297,1,,,,,,0.365440828,-0.256794227,1,0,0,18.2974,Gabbro_rect,8,0,8,0,1
614eb0a92921d8c1e64f4873,SCN,2024-06-10_14h55.13.191,LearnStrategy,2023.2.3,Linux x86_64,59.96282305,7,2,10,,,,,,,,8,06,,,,,,,,,,,8,2.353,1,,,,,,0.398916425,-0.391869138,1,0,0,2.3526,Pumice_rect,9,0,9,0,1
614eb0a92921d8c1e64f4873,SCN,2024-06-10_14h55.13.191,LearnStrategy,2023.2.3,Linux x86_64,59.96282305,7,2,11,,,,,,,,6,06,,,,,,,,,,,6,22.187,1,,,,,,-0.161078336,-0.399634069,1,0,0,22.1874,Pegmatite_rect,10,0,10,0,1
614eb0a92921d8c1e64f4873,SCN,2024-06-10_14h55.13.191,LearnStrategy,2023.2.3,Linux x86_64,59.96282305,7,2,12,,,,,,,,6,11,,,,,,,,,,,5,3.495,0,,,,,,-0.432441996,-0.393089754,1,0,0,3.4954,Obsidian_rect,11,0,11,0,1
614eb0a92921d8c1e64f4873,SCN,2024-06-10_14h55.13.191,LearnStrategy,2023.2.3,Linux x86_64,59.96282305,7,2,13,,,,,,,,5,16,,,,,,,,,,,5,2.015,1,,,,,,-0.434691465,-0.395891512,1,0,0,2.0147,Obsidian_rect,12,0,12,0,1
614eb0a92921d8c1e64f4873,SCN,2024-06-10_14h55.13.191,LearnStrategy,2023.2.3,Linux x86_64,59.96282305,7,2,14,,,,,,,,5,10,,,,,,,,,,,5,2.131,1,,,,,,-0.405471714,-0.397817005,1,0,0,2.131,Obsidian_rect,13,0,13,0,1
614eb0a92921d8c1e64f4873,SCN,2024-06-10_14h55.13.191,LearnStrategy,2023.2.3,Linux x86_64,59.96282305,7,2,15,,,,,,,,2,08,,,,,,,,,,,2,2.767,1,,,,,,-0.159524781,-0.239423342,1,0,0,2.7669,Basalt_rect,14,0,14,0,1
614eb0a92921d8c1e64f4873,SCN,2024-06-10_14h55.13.191,LearnStrategy,2023.2.3,Linux x86_64,59.96282305,7,2,16,,,,,,,,3,15,,,,,,,,,,,4,4.017,0,,,,,,0.39001937,-0.238732368,1,0,0,4.0167,Gabbro_rect,15,0,15,0,1
614eb0a92921d8c1e64f4873,SCN,2024-06-10_14h55.13.191,LearnStrategy,2023.2.3,Linux x86_64,59.96282305,8,1,1,0.385925031,-0.098778318,1,0,0,5.6708,Obsidian_05,5,05,3,7,5.671,-0.406737538,-0.393935414,1,0,0,3.0064,Obsidian_rect,5,3.006,1,0,0,0,0,1,,,,,,,,,,,,
614eb0a92921d8c1e64f4873,SCN,2024-06-10_14h55.13.191,LearnStrategy,2023.2.3,Linux x86_64,59.96282305,8,1,2,0.544257484,-0.093996327,1,0,0,2.24,Diorite_06,3,06,3,8,2.24,0.138910594,-0.254026397,1,0,0,3.0183,Diorite_rect,3,3.018,1,1,0,1,0,1,,,,,,,,,,,,
614eb0a92921d8c1e64f4873,SCN,2024-06-10_14h55.13.191,LearnStrategy,2023.2.3,Linux x86_64,59.96282305,8,1,3,0.088218448,-0.117187981,1,0,0,3.368,Andesite_10,1,10,3,5,3.368,-0.367669179,-0.232384406,1,0,0,2.5971,Andesite_rect,1,2.597,1,2,0,2,0,1,,,,,,,,,,,,
614eb0a92921d8c1e64f4873,SCN,2024-06-10_14h55.13.191,LearnStrategy,2023.2.3,Linux x86_64,59.96282305,8,1,4,-0.386915715,-0.10603232,1,0,0,5.2589,Andesite_03,1,03,3,2,5.259,-0.402032541,-0.258144783,1,0,0,2.1104,Andesite_rect,1,2.11,1,3,0,3,0,1,,,,,,,,,,,,
614eb0a92921d8c1e64f4873,SCN,2024-06-10_14h55.13.191,LearnStrategy,2023.2.3,Linux x86_64,59.96282305,8,1,5,-0.527704212,-0.059249922,1,0,0,2.0933,Andesite_14,1,14,3,1,2.093,-0.156875261,-0.382487125,1,0,0,4.2643,Pegmatite_rect,6,4.264,0,4,0,4,0,1,,,,,,,,,,,,
614eb0a92921d8c1e64f4873,SCN,2024-06-10_14h55.13.191,LearnStrategy,2023.2.3,Linux x86_64,59.96282305,8,1,6,0.225574395,-0.241378828,1,0,0,4.751,Obsidian_14,5,14,2,6,4.751,-0.362602125,-0.394658742,1,0,0,2.0031,Obsidian_rect,5,2.003,1,5,0,5,0,1,,,,,,,,,,,,
614eb0a92921d8c1e64f4873,SCN,2024-06-10_14h55.13.191,LearnStrategy,2023.2.3,Linux x86_64,59.96282305,8,1,7,0.073439109,-0.257389189,1,0,0,1.5702,Gabbro_14,4,14,2,5,1.57,0.402076524,-0.246978847,1,0,0,2.0955,Gabbro_rect,4,2.095,1,6,0,6,0,1,,,,,,,,,,,,
614eb0a92921d8c1e64f4873,SCN,2024-06-10_14h55.13.191,LearnStrategy,2023.2.3,Linux x86_64,59.96282305,8,1,8,-0.069124588,-0.261457995,1,0,0,2.035,Pumice_10,8,10,2,4,2.035,0.417757226,-0.395854174,1,0,0,2.7784,Pumice_rect,8,2.778,1,7,0,7,0,1,,,,,,,,,,,,
614eb0a92921d8c1e64f4873,SCN,2024-06-10_14h55.13.191,LearnStrategy,2023.2.3,Linux x86_64,59.96282305,8,1,9,-0.413909038,-0.249673925,1,0,0,1.9719,Peridotite_10,7,10,2,2,1.972,0.105291503,-0.388068169,1,0,0,1.963,Peridotite_rect,7,1.963,1,8,0,8,0,1,,,,,,,,,,,,
614eb0a92921d8c1e64f4873,SCN,2024-06-10_14h55.13.191,LearnStrategy,2023.2.3,Linux x86_64,59.96282305,8,1,10,-0.548192655,-0.248857646,1,0,0,1.3916,Andesite_16,1,16,2,1,1.392,-0.418513301,-0.268008869,1,0,0,2.4941,Andesite_rect,1,2.494,1,9,0,9,0,1,,,,,,,,,,,,
614eb0a92921d8c1e64f4873,SCN,2024-06-10_14h55.13.191,LearnStrategy,2023.2.3,Linux x86_64,59.96282305,8,1,11,0.412287146,-0.415564157,1,0,0,4.0448,Pegmatite_12,6,12,1,7,4.045,-0.128563037,-0.390078045,1,0,0,2.4937,Pegmatite_rect,6,2.494,1,10,0,10,0,1,,,,,,,,,,,,
614eb0a92921d8c1e64f4873,SCN,2024-06-10_14h55.13.191,LearnStrategy,2023.2.3,Linux x86_64,59.96282305,8,1,12,0.082516121,-0.414347214,1,0,0,2.7447,Diorite_12,3,12,1,5,2.745,0.155535242,-0.244024938,1,0,0,3.1938,Diorite_rect,3,3.194,1,11,0,11,0,1,,,,,,,,,,,,
614eb0a92921d8c1e64f4873,SCN,2024-06-10_14h55.13.191,LearnStrategy,2023.2.3,Linux x86_64,59.96282305,8,1,13,-0.087018644,-0.417883755,1,0,0,1.3222,Gabbro_13,4,13,1,4,1.322,0.396942139,-0.247328531,1,0,0,1.9113,Gabbro_rect,4,1.911,1,12,0,12,0,1,,,,,,,,,,,,
614eb0a92921d8c1e64f4873,SCN,2024-06-10_14h55.13.191,LearnStrategy,2023.2.3,Linux x86_64,59.96282305,8,1,14,-0.234952779,-0.422433673,1,0,0,1.5569,Gabbro_10,4,10,1,3,1.557,-0.142116864,-0.251049228,1,0,0,4.7085,Basalt_rect,2,4.709,0,13,0,13,0,1,,,,,,,,,,,,
614eb0a92921d8c1e64f4873,SCN,2024-06-10_14h55.13.191,LearnStrategy,2023.2.3,Linux x86_64,59.96282305,8,1,15,-0.531888049,-0.422736663,1,0,0,2.3153,Diorite_08,3,08,1,1,2.315,0.104781711,-0.249595139,1,0,0,5.1283,Diorite_rect,3,5.128,1,14,0,14,0,1,,,,,,,,,,,,
614eb0a92921d8c1e64f4873,SCN,2024-06-10_14h55.13.191,LearnStrategy,2023.2.3,Linux x86_64,59.96282305,8,1,16,-0.547511781,-0.290832694,1,0,0,4.9911,Andesite_16,1,16,2,1,4.991,-0.394107458,-0.233626664,1,0,0,2.5164,Andesite_rect,1,2.516,1,15,0,15,0,1,,,,,,,,,,,,
614eb0a92921d8c1e64f4873,SCN,2024-06-10_14h55.13.191,LearnStrategy,2023.2.3,Linux x86_64,59.96282305,8,2,1,,,,,,,,8,08,,,,,,,,,,,2,7.24,0,,,,,,-0.15878685,-0.24975481,1,0,0,7.2397,Basalt_rect,0,0,0,0,1
614eb0a92921d8c1e64f4873,SCN,2024-06-10_14h55.13.191,LearnStrategy,2023.2.3,Linux x86_64,59.96282305,8,2,2,,,,,,,,7,06,,,,,,,,,,,7,8.41,1,,,,,,0.133369686,-0.399444055,1,0,0,8.4104,Peridotite_rect,1,0,1,0,1
614eb0a92921d8c1e64f4873,SCN,2024-06-10_14h55.13.191,LearnStrategy,2023.2.3,Linux x86_64,59.96282305,8,2,3,,,,,,,,8,13,,,,,,,,,,,2,13.854,0,,,,,,-0.178176705,-0.243792777,1,0,0,13.8538,Basalt_rect,2,0,2,0,1
614eb0a92921d8c1e64f4873,SCN,2024-06-10_14h55.13.191,LearnStrategy,2023.2.3,Linux x86_64,59.96282305,8,2,4,,,,,,,,1,09,,,,,,,,,,,1,2.661,1,,,,,,-0.423065317,-0.241235422,1,0,0,2.6613,Andesite_rect,3,0,3,0,1
614eb0a92921d8c1e64f4873,SCN,2024-06-10_14h55.13.191,LearnStrategy,2023.2.3,Linux x86_64,59.96282305,8,2,5,,,,,,,,3,16,,,,,,,,,,,3,3.038,1,,,,,,0.160022462,-0.24530554,1,0,0,3.0384,Diorite_rect,4,0,4,0,1
614eb0a92921d8c1e64f4873,SCN,2024-06-10_14h55.13.191,LearnStrategy,2023.2.3,Linux x86_64,59.96282305,8,2,6,,,,,,,,5,04,,,,,,,,,,,5,2.068,1,,,,,,-0.394068065,-0.399151122,1,0,0,2.0678,Obsidian_rect,5,0,5,0,1
614eb0a92921d8c1e64f4873,SCN,2024-06-10_14h55.13.191,LearnStrategy,2023.2.3,Linux x86_64,59.96282305,8,2,7,,,,,,,,6,09,,,,,,,,,,,6,6.452,1,,,,,,-0.113174045,-0.402511553,1,0,0,6.4524,Pegmatite_rect,6,0,6,0,1
614eb0a92921d8c1e64f4873,SCN,2024-06-10_14h55.13.191,LearnStrategy,2023.2.3,Linux x86_64,59.96282305,8,2,8,,,,,,,,2,04,,,,,,,,,,,2,5.528,1,,,,,,-0.162296809,-0.241253697,1,0,0,5.5278,Basalt_rect,7,0,7,0,1
614eb0a92921d8c1e64f4873,SCN,2024-06-10_14h55.13.191,LearnStrategy,2023.2.3,Linux x86_64,59.96282305,8,2,9,,,,,,,,4,11,,,,,,,,,,,4,5.18,1,,,,,,0.389539396,-0.245459352,1,0,0,5.1798,Gabbro_rect,8,0,8,0,1
614eb0a92921d8c1e64f4873,SCN,2024-06-10_14h55.13.191,LearnStrategy,2023.2.3,Linux x86_64,59.96282305,8,2,10,,,,,,,,2,10,,,,,,,,,,,2,3.936,1,,,,,,-0.144410229,-0.24963274,1,0,0,3.9355,Basalt_rect,9,0,9,0,1
614eb0a92921d8c1e64f4873,SCN,2024-06-10_14h55.13.191,LearnStrategy,2023.2.3,Linux x86_64,59.96282305,8,2,11,,,,,,,,6,16,,,,,,,,,,,6,13.164,1,,,,,,-0.132898719,-0.407804036,1,0,0,13.1637,Pegmatite_rect,10,0,10,0,1
614eb0a92921d8c1e64f4873,SCN,2024-06-10_14h55.13.191,LearnStrategy,2023.2.3,Linux x86_64,59.96282305,8,2,12,,,,,,,,4,01,,,,,,,,,,,4,8.528,1,,,,,,0.39499496,-0.242547502,1,0,0,8.5279,Gabbro_rect,11,0,11,0,1
614eb0a92921d8c1e64f4873,SCN,2024-06-10_14h55.13.191,LearnStrategy,2023.2.3,Linux x86_64,59.96282305,8,2,13,,,,,,,,7,04,,,,,,,,,,,7,2.465,1,,,,,,0.133627293,-0.399089649,1,0,0,2.4654,Peridotite_rect,12,0,12,0,1
614eb0a92921d8c1e64f4873,SCN,2024-06-10_14h55.13.191,LearnStrategy,2023.2.3,Linux x86_64,59.96282305,8,2,14,,,,,,,,1,06,,,,,,,,,,,4,6.004,0,,,,,,0.389398263,-0.256332091,1,0,0,6.0037,Gabbro_rect,13,0,13,0,1
614eb0a92921d8c1e64f4873,SCN,2024-06-10_14h55.13.191,LearnStrategy,2023.2.3,Linux x86_64,59.96282305,8,2,15,,,,,,,,3,02,,,,,,,,,,,3,2.435,1,,,,,,0.120476753,-0.250575374,1,0,0,2.4346,Diorite_rect,14,0,14,0,1
614eb0a92921d8c1e64f4873,SCN,2024-06-10_14h55.13.191,LearnStrategy,2023.2.3,Linux x86_64,59.96282305,8,2,16,,,,,,,,5,06,,,,,,,,,,,5,2.31,1,,,,,,-0.425859686,-0.395726245,1,0,0,2.31,Obsidian_rect,15,0,15,0,1
614eb0a92921d8c1e64f4873,SCN,2024-06-10_14h55.13.191,LearnStrategy,2023.2.3,Linux x86_64,59.96282305,9,1,1,0.562164394,0.22879389,1,0,0,9.7718,Pegmatite_07,6,07,5,8,9.772,-0.144415476,-0.401257272,1,0,0,2.0426,Pegmatite_rect,6,2.043,1,0,0,0,0,1,,,,,,,,,,,,
614eb0a92921d8c1e64f4873,SCN,2024-06-10_14h55.13.191,LearnStrategy,2023.2.3,Linux x86_64,59.96282305,9,1,2,0.397673424,0.254380038,1,0,0,1.6797,Pumice_16,8,16,5,7,1.68,0.40107644,-0.393115112,1,0,0,2.2487,Pumice_rect,8,2.249,1,1,0,1,0,1,,,,,,,,,,,,
614eb0a92921d8c1e64f4873,SCN,2024-06-10_14h55.13.191,LearnStrategy,2023.2.3,Linux x86_64,59.96282305,9,1,3,0.221895059,0.246770908,1,0,0,1.7482,Basalt_02,2,02,5,6,1.748,-0.165080204,-0.233248036,1,0,0,1.689,Basalt_rect,2,1.689,1,2,0,2,0,1,,,,,,,,,,,,
614eb0a92921d8c1e64f4873,SCN,2024-06-10_14h55.13.191,LearnStrategy,2023.2.3,Linux x86_64,59.96282305,9,1,4,0.06833183,0.253537219,1,0,0,1.337,Gabbro_08,4,08,5,5,1.337,0.361541835,-0.249020989,1,0,0,5.9199,Gabbro_rect,4,5.92,1,3,0,3,0,1,,,,,,,,,,,,
614eb0a92921d8c1e64f4873,SCN,2024-06-10_14h55.13.191,LearnStrategy,2023.2.3,Linux x86_64,59.96282305,9,1,5,-0.080775395,0.239890353,1,0,0,1.6675,Andesite_01,1,01,5,4,1.668,0.400837808,-0.240773111,1,0,0,3.1627,Gabbro_rect,4,3.163,0,4,0,4,0,1,,,,,,,,,,,,
614eb0a92921d8c1e64f4873,SCN,2024-06-10_14h55.13.191,LearnStrategy,2023.2.3,Linux x86_64,59.96282305,9,1,6,-0.229825782,0.264386349,1,0,0,1.7047,Andesite_02,1,02,5,3,1.705,-0.403346239,-0.249074329,1,0,0,4.3344,Andesite_rect,1,4.334,1,5,0,5,0,1,,,,,,,,,,,,
614eb0a92921d8c1e64f4873,SCN,2024-06-10_14h55.13.191,LearnStrategy,2023.2.3,Linux x86_64,59.96282305,9,1,7,-0.549743456,0.250117086,1,0,0,3.5413,Basalt_05,2,05,5,1,3.541,-0.11758213,-0.256123103,1,0,0,1.4566,Basalt_rect,2,1.457,1,6,0,6,0,1,,,,,,,,,,,,
614eb0a92921d8c1e64f4873,SCN,2024-06-10_14h55.13.191,LearnStrategy,2023.2.3,Linux x86_64,59.96282305,9,1,8,0.550287897,0.085402918,1,0,0,2.7727,Pegmatite_05,6,05,4,8,2.773,-0.427210723,-0.404015571,1,0,0,3.2381,Obsidian_rect,5,3.238,0,7,0,7,0,1,,,,,,,,,,,,
614eb0a92921d8c1e64f4873,SCN,2024-06-10_14h55.13.191,LearnStrategy,2023.2.3,Linux x86_64,59.96282305,9,1,9,0.401614826,0.094256513,1,0,0,1.6185,Pumice_02,8,02,4,7,1.619,0.397918177,-0.385061882,1,0,0,2.6076,Pumice_rect,8,2.608,1,8,0,8,0,1,,,,,,,,,,,,
614eb0a92921d8c1e64f4873,SCN,2024-06-10_14h55.13.191,LearnStrategy,2023.2.3,Linux x86_64,59.96282305,9,1,10,0.075998651,0.082732105,1,0,0,3.0426,Peridotite_08,7,08,4,5,3.043,0.064852477,-0.387332337,1,0,0,4.3362,Peridotite_rect,7,4.336,1,9,0,9,0,1,,,,,,,,,,,,
614eb0a92921d8c1e64f4873,SCN,2024-06-10_14h55.13.191,LearnStrategy,2023.2.3,Linux x86_64,59.96282305,9,1,11,-0.085403136,0.09070327,1,0,0,1.8754,Basalt_11,2,11,4,4,1.875,-0.132601675,-0.247778862,1,0,0,3.2167,Basalt_rect,2,3.217,1,10,0,10,0,1,,,,,,,,,,,,
614eb0a92921d8c1e64f4873,SCN,2024-06-10_14h55.13.191,LearnStrategy,2023.2.3,Linux x86_64,59.96282305,9,1,12,-0.395415342,0.097714924,1,0,0,1.6483,Diorite_13,3,13,4,2,1.648,0.114573219,-0.244110807,1,0,0,2.5017,Diorite_rect,3,2.502,1,11,0,11,0,1,,,,,,,,,,,,
614eb0a92921d8c1e64f4873,SCN,2024-06-10_14h55.13.191,LearnStrategy,2023.2.3,Linux x86_64,59.96282305,9,1,13,-0.532624231,0.072000979,1,0,0,1.692,Diorite_10,3,10,4,1,1.692,0.134841001,-0.240396319,1,0,0,2.4433,Diorite_rect,3,2.443,1,12,0,12,0,1,,,,,,,,,,,,
614eb0a92921d8c1e64f4873,SCN,2024-06-10_14h55.13.191,LearnStrategy,2023.2.3,Linux x86_64,59.96282305,9,1,14,0.244375846,-0.41474744,1,0,0,14.9578,Peridotite_05,7,05,1,6,14.958,0.160115939,-0.411296593,1,0,0,1.8472,Peridotite_rect,7,1.847,1,13,0,13,0,1,,,,,,,,,,,,
614eb0a92921d8c1e64f4873,SCN,2024-06-10_14h55.13.191,LearnStrategy,2023.2.3,Linux x86_64,59.96282305,9,1,15,-0.243646092,-0.403408542,1,0,0,6.7271,Gabbro_10,4,10,1,3,6.727,0.40132845,-0.259745251,1,0,0,2.9186,Gabbro_rect,4,2.919,1,14,0,14,0,1,,,,,,,,,,,,
614eb0a92921d8c1e64f4873,SCN,2024-06-10_14h55.13.191,LearnStrategy,2023.2.3,Linux x86_64,59.96282305,9,1,16,0.075344053,-0.432897092,1,0,0,3.5361,Diorite_12,3,12,1,5,3.536,0.167066689,-0.233910503,1,0,0,3.3626,Diorite_rect,3,3.363,1,15,0,15,0,1,,,,,,,,,,,,
614eb0a92921d8c1e64f4873,SCN,2024-06-10_14h55.13.191,LearnStrategy,2023.2.3,Linux x86_64,59.96282305,9,2,1,,,,,,,,3,14,,,,,,,,,,,3,2.44,1,,,,,,0.158696565,-0.228555936,1,0,0,2.4396,Diorite_rect,0,0,0,0,1
614eb0a92921d8c1e64f4873,SCN,2024-06-10_14h55.13.191,LearnStrategy,2023.2.3,Linux x86_64,59.96282305,9,2,2,,,,,,,,7,15,,,,,,,,,,,7,2.414,1,,,,,,0.147044884,-0.400198163,1,0,0,2.4135,Peridotite_rect,1,0,1,0,1
614eb0a92921d8c1e64f4873,SCN,2024-06-10_14h55.13.191,LearnStrategy,2023.2.3,Linux x86_64,59.96282305,9,2,3,,,,,,,,2,12,,,,,,,,,,,2,5.518,1,,,,,,-0.116305726,-0.23360489,1,0,0,5.5184,Basalt_rect,2,0,2,0,1
614eb0a92921d8c1e64f4873,SCN,2024-06-10_14h55.13.191,LearnStrategy,2023.2.3,Linux x86_64,59.96282305,9,2,4,,,,,,,,5,07,,,,,,,,,,,5,2.942,1,,,,,,-0.456669411,-0.390771904,1,0,0,2.9418,Obsidian_rect,3,0,3,0,1
614eb0a92921d8c1e64f4873,SCN,2024-06-10_14h55.13.191,LearnStrategy,2023.2.3,Linux x86_64,59.96282305,9,2,5,,,,,,,,4,03,,,,,,,,,,,4,11.122,1,,,,,,0.386716389,-0.235627882,1,0,0,11.1224,Gabbro_rect,4,0,4,0,1
614eb0a92921d8c1e64f4873,SCN,2024-06-10_14h55.13.191,LearnStrategy,2023.2.3,Linux x86_64,59.96282305,9,2,6,,,,,,,,2,16,,,,,,,,,,,2,5.277,1,,,,,,-0.1575804,-0.262073593,1,0,0,5.2768,Basalt_rect,5,0,5,0,1
614eb0a92921d8c1e64f4873,SCN,2024-06-10_14h55.13.191,LearnStrategy,2023.2.3,Linux x86_64,59.96282305,9,2,7,,,,,,,,8,03,,,,,,,,,,,8,3.019,1,,,,,,0.377404418,-0.386767456,1,0,0,3.0192,Pumice_rect,6,0,6,0,1
614eb0a92921d8c1e64f4873,SCN,2024-06-10_14h55.13.191,LearnStrategy,2023.2.3,Linux x86_64,59.96282305,9,2,8,,,,,,,,5,12,,,,,,,,,,,5,3.362,1,,,,,,-0.459433744,-0.398188375,1,0,0,3.3623,Obsidian_rect,7,0,7,0,1
614eb0a92921d8c1e64f4873,SCN,2024-06-10_14h55.13.191,LearnStrategy,2023.2.3,Linux x86_64,59.96282305,9,2,9,,,,,,,,6,13,,,,,,,,,,,5,24.223,0,,,,,,-0.424224547,-0.396596914,1,0,0,24.2234,Obsidian_rect,8,0,8,0,1
614eb0a92921d8c1e64f4873,SCN,2024-06-10_14h55.13.191,LearnStrategy,2023.2.3,Linux x86_64,59.96282305,9,2,10,,,,,,,,1,04,,,,,,,,,,,1,4.201,1,,,,,,-0.434446493,-0.248275451,1,0,0,4.2008,Andesite_rect,9,0,9,0,1
614eb0a92921d8c1e64f4873,SCN,2024-06-10_14h55.13.191,LearnStrategy,2023.2.3,Linux x86_64,59.96282305,9,2,11,,,,,,,,6,03,,,,,,,,,,,6,3.507,1,,,,,,-0.096605798,-0.404463978,1,0,0,3.5072,Pegmatite_rect,10,0,10,0,1
614eb0a92921d8c1e64f4873,SCN,2024-06-10_14h55.13.191,LearnStrategy,2023.2.3,Linux x86_64,59.96282305,9,2,12,,,,,,,,4,05,,,,,,,,,,,4,4.031,1,,,,,,0.408738363,-0.24899668,1,0,0,4.0307,Gabbro_rect,11,0,11,0,1
614eb0a92921d8c1e64f4873,SCN,2024-06-10_14h55.13.191,LearnStrategy,2023.2.3,Linux x86_64,59.96282305,9,2,13,,,,,,,,3,07,,,,,,,,,,,3,2.385,1,,,,,,0.155657399,-0.242850055,1,0,0,2.3851,Diorite_rect,12,0,12,0,1
614eb0a92921d8c1e64f4873,SCN,2024-06-10_14h55.13.191,LearnStrategy,2023.2.3,Linux x86_64,59.96282305,9,2,14,,,,,,,,1,05,,,,,,,,,,,1,9.166,1,,,,,,-0.41180997,-0.249158537,1,0,0,9.1656,Andesite_rect,13,0,13,0,1
614eb0a92921d8c1e64f4873,SCN,2024-06-10_14h55.13.191,LearnStrategy,2023.2.3,Linux x86_64,59.96282305,9,2,15,,,,,,,,7,16,,,,,,,,,,,4,7.21,0,,,,,,0.37774632,-0.244328278,1,0,0,7.2101,Gabbro_rect,14,0,14,0,1
614eb0a92921d8c1e64f4873,SCN,2024-06-10_14h55.13.191,LearnStrategy,2023.2.3,Linux x86_64,59.96282305,9,2,16,,,,,,,,8,14,,,,,,,,,,,8,2.44,1,,,,,,0.4162066,-0.388049369,1,0,0,2.4404,Pumice_rect,15,0,15,0,1
614eb0a92921d8c1e64f4873,SCN,2024-06-10_14h55.13.191,LearnStrategy,2023.2.3,Linux x86_64,59.96282305,,,,,,,,,,,,,,,,,,,,,,,,,,,,,,,,,,,,,,,,,,
614eb0a92921d8c1e64f4873,SCN,2024-06-10_14h55.13.191,LearnStrategy,2023.2.3,Linux x86_64,59.96282305,,,,,,,,,,,,,,,,,,,,,,,,,,,,,,,,,,,,,,,,,,
614eb0a92921d8c1e64f4873,SCN,2024-06-10_14h55.13.191,LearnStrategy,2023.2.3,Linux x86_64,59.96282305,,,,,,,,,,,3,08,1,1,,,,,,,,,,,,,,,,,,,,,,,,,,,,
614eb0a92921d8c1e64f4873,SCN,2024-06-10_14h55.13.191,LearnStrategy,2023.2.3,Linux x86_64,59.96282305,,,,,,,,,,,5,02,1,2,,,,,,,,,,,,,,,,,,,,,,,,,,,,
614eb0a92921d8c1e64f4873,SCN,2024-06-10_14h55.13.191,LearnStrategy,2023.2.3,Linux x86_64,59.96282305,,,,,,,,,,,4,10,1,3,,,,,,,,,,,,,,,,,,,,,,,,,,,,
614eb0a92921d8c1e64f4873,SCN,2024-06-10_14h55.13.191,LearnStrategy,2023.2.3,Linux x86_64,59.96282305,,,,,,,,,,,4,13,1,4,,,,,,,,,,,,,,,,,,,,,,,,,,,,
614eb0a92921d8c1e64f4873,SCN,2024-06-10_14h55.13.191,LearnStrategy,2023.2.3,Linux x86_64,59.96282305,,,,,,,,,,,3,12,1,5,,,,,,,,,,,,,,,,,,,,,,,,,,,,
614eb0a92921d8c1e64f4873,SCN,2024-06-10_14h55.13.191,LearnStrategy,2023.2.3,Linux x86_64,59.96282305,,,,,,,,,,,7,05,1,6,,,,,,,,,,,,,,,,,,,,,,,,,,,,
614eb0a92921d8c1e64f4873,SCN,2024-06-10_14h55.13.191,LearnStrategy,2023.2.3,Linux x86_64,59.96282305,,,,,,,,,,,6,12,1,7,,,,,,,,,,,,,,,,,,,,,,,,,,,,
614eb0a92921d8c1e64f4873,SCN,2024-06-10_14h55.13.191,LearnStrategy,2023.2.3,Linux x86_64,59.96282305,,,,,,,,,,,2,09,1,8,,,,,,,,,,,,,,,,,,,,,,,,,,,,
614eb0a92921d8c1e64f4873,SCN,2024-06-10_14h55.13.191,LearnStrategy,2023.2.3,Linux x86_64,59.96282305,,,,,,,,,,,1,16,2,1,,,,,,,,,,,,,,,,,,,,,,,,,,,,
614eb0a92921d8c1e64f4873,SCN,2024-06-10_14h55.13.191,LearnStrategy,2023.2.3,Linux x86_64,59.96282305,,,,,,,,,,,7,10,2,2,,,,,,,,,,,,,,,,,,,,,,,,,,,,
614eb0a92921d8c1e64f4873,SCN,2024-06-10_14h55.13.191,LearnStrategy,2023.2.3,Linux x86_64,59.96282305,,,,,,,,,,,5,09,2,3,,,,,,,,,,,,,,,,,,,,,,,,,,,,
614eb0a92921d8c1e64f4873,SCN,2024-06-10_14h55.13.191,LearnStrategy,2023.2.3,Linux x86_64,59.96282305,,,,,,,,,,,8,10,2,4,,,,,,,,,,,,,,,,,,,,,,,,,,,,
614eb0a92921d8c1e64f4873,SCN,2024-06-10_14h55.13.191,LearnStrategy,2023.2.3,Linux x86_64,59.96282305,,,,,,,,,,,4,14,2,5,,,,,,,,,,,,,,,,,,,,,,,,,,,,
614eb0a92921d8c1e64f4873,SCN,2024-06-10_14h55.13.191,LearnStrategy,2023.2.3,Linux x86_64,59.96282305,,,,,,,,,,,5,14,2,6,,,,,,,,,,,,,,,,,,,,,,,,,,,,
614eb0a92921d8c1e64f4873,SCN,2024-06-10_14h55.13.191,LearnStrategy,2023.2.3,Linux x86_64,59.96282305,,,,,,,,,,,8,04,2,7,,,,,,,,,,,,,,,,,,,,,,,,,,,,
614eb0a92921d8c1e64f4873,SCN,2024-06-10_14h55.13.191,LearnStrategy,2023.2.3,Linux x86_64,59.96282305,,,,,,,,,,,8,09,2,8,,,,,,,,,,,,,,,,,,,,,,,,,,,,
614eb0a92921d8c1e64f4873,SCN,2024-06-10_14h55.13.191,LearnStrategy,2023.2.3,Linux x86_64,59.96282305,,,,,,,,,,,1,14,3,1,,,,,,,,,,,,,,,,,,,,,,,,,,,,
614eb0a92921d8c1e64f4873,SCN,2024-06-10_14h55.13.191,LearnStrategy,2023.2.3,Linux x86_64,59.96282305,,,,,,,,,,,1,03,3,2,,,,,,,,,,,,,,,,,,,,,,,,,,,,
614eb0a92921d8c1e64f4873,SCN,2024-06-10_14h55.13.191,LearnStrategy,2023.2.3,Linux x86_64,59.96282305,,,,,,,,,,,2,14,3,3,,,,,,,,,,,,,,,,,,,,,,,,,,,,
614eb0a92921d8c1e64f4873,SCN,2024-06-10_14h55.13.191,LearnStrategy,2023.2.3,Linux x86_64,59.96282305,,,,,,,,,,,8,15,3,4,,,,,,,,,,,,,,,,,,,,,,,,,,,,
614eb0a92921d8c1e64f4873,SCN,2024-06-10_14h55.13.191,LearnStrategy,2023.2.3,Linux x86_64,59.96282305,,,,,,,,,,,1,10,3,5,,,,,,,,,,,,,,,,,,,,,,,,,,,,
614eb0a92921d8c1e64f4873,SCN,2024-06-10_14h55.13.191,LearnStrategy,2023.2.3,Linux x86_64,59.96282305,,,,,,,,,,,5,11,3,6,,,,,,,,,,,,,,,,,,,,,,,,,,,,
614eb0a92921d8c1e64f4873,SCN,2024-06-10_14h55.13.191,LearnStrategy,2023.2.3,Linux x86_64,59.96282305,,,,,,,,,,,5,05,3,7,,,,,,,,,,,,,,,,,,,,,,,,,,,,
614eb0a92921d8c1e64f4873,SCN,2024-06-10_14h55.13.191,LearnStrategy,2023.2.3,Linux x86_64,59.96282305,,,,,,,,,,,3,06,3,8,,,,,,,,,,,,,,,,,,,,,,,,,,,,
614eb0a92921d8c1e64f4873,SCN,2024-06-10_14h55.13.191,LearnStrategy,2023.2.3,Linux x86_64,59.96282305,,,,,,,,,,,3,10,4,1,,,,,,,,,,,,,,,,,,,,,,,,,,,,
614eb0a92921d8c1e64f4873,SCN,2024-06-10_14h55.13.191,LearnStrategy,2023.2.3,Linux x86_64,59.96282305,,,,,,,,,,,3,13,4,2,,,,,,,,,,,,,,,,,,,,,,,,,,,,
614eb0a92921d8c1e64f4873,SCN,2024-06-10_14h55.13.191,LearnStrategy,2023.2.3,Linux x86_64,59.96282305,,,,,,,,,,,5,08,4,3,,,,,,,,,,,,,,,,,,,,,,,,,,,,
614eb0a92921d8c1e64f4873,SCN,2024-06-10_14h55.13.191,LearnStrategy,2023.2.3,Linux x86_64,59.96282305,,,,,,,,,,,2,11,4,4,,,,,,,,,,,,,,,,,,,,,,,,,,,,
614eb0a92921d8c1e64f4873,SCN,2024-06-10_14h55.13.191,LearnStrategy,2023.2.3,Linux x86_64,59.96282305,,,,,,,,,,,7,08,4,5,,,,,,,,,,,,,,,,,,,,,,,,,,,,
614eb0a92921d8c1e64f4873,SCN,2024-06-10_14h55.13.191,LearnStrategy,2023.2.3,Linux x86_64,59.96282305,,,,,,,,,,,4,12,4,6,,,,,,,,,,,,,,,,,,,,,,,,,,,,
614eb0a92921d8c1e64f4873,SCN,2024-06-10_14h55.13.191,LearnStrategy,2023.2.3,Linux x86_64,59.96282305,,,,,,,,,,,8,02,4,7,,,,,,,,,,,,,,,,,,,,,,,,,,,,
614eb0a92921d8c1e64f4873,SCN,2024-06-10_14h55.13.191,LearnStrategy,2023.2.3,Linux x86_64,59.96282305,,,,,,,,,,,6,05,4,8,,,,,,,,,,,,,,,,,,,,,,,,,,,,
614eb0a92921d8c1e64f4873,SCN,2024-06-10_14h55.13.191,LearnStrategy,2023.2.3,Linux x86_64,59.96282305,,,,,,,,,,,2,05,5,1,,,,,,,,,,,,,,,,,,,,,,,,,,,,
614eb0a92921d8c1e64f4873,SCN,2024-06-10_14h55.13.191,LearnStrategy,2023.2.3,Linux x86_64,59.96282305,,,,,,,,,,,6,10,5,2,,,,,,,,,,,,,,,,,,,,,,,,,,,,
614eb0a92921d8c1e64f4873,SCN,2024-06-10_14h55.13.191,LearnStrategy,2023.2.3,Linux x86_64,59.96282305,,,,,,,,,,,1,02,5,3,,,,,,,,,,,,,,,,,,,,,,,,,,,,
614eb0a92921d8c1e64f4873,SCN,2024-06-10_14h55.13.191,LearnStrategy,2023.2.3,Linux x86_64,59.96282305,,,,,,,,,,,1,01,5,4,,,,,,,,,,,,,,,,,,,,,,,,,,,,
614eb0a92921d8c1e64f4873,SCN,2024-06-10_14h55.13.191,LearnStrategy,2023.2.3,Linux x86_64,59.96282305,,,,,,,,,,,4,08,5,5,,,,,,,,,,,,,,,,,,,,,,,,,,,,
614eb0a92921d8c1e64f4873,SCN,2024-06-10_14h55.13.191,LearnStrategy,2023.2.3,Linux x86_64,59.96282305,,,,,,,,,,,2,02,5,6,,,,,,,,,,,,,,,,,,,,,,,,,,,,
614eb0a92921d8c1e64f4873,SCN,2024-06-10_14h55.13.191,LearnStrategy,2023.2.3,Linux x86_64,59.96282305,,,,,,,,,,,8,16,5,7,,,,,,,,,,,,,,,,,,,,,,,,,,,,
614eb0a92921d8c1e64f4873,SCN,2024-06-10_14h55.13.191,LearnStrategy,2023.2.3,Linux x86_64,59.96282305,,,,,,,,,,,6,07,5,8,,,,,,,,,,,,,,,,,,,,,,,,,,,,
614eb0a92921d8c1e64f4873,SCN,2024-06-10_14h55.13.191,LearnStrategy,2023.2.3,Linux x86_64,59.96282305,,,,,,,,,,,7,07,6,1,,,,,,,,,,,,,,,,,,,,,,,,,,,,
614eb0a92921d8c1e64f4873,SCN,2024-06-10_14h55.13.191,LearnStrategy,2023.2.3,Linux x86_64,59.96282305,,,,,,,,,,,4,09,6,2,,,,,,,,,,,,,,,,,,,,,,,,,,,,
614eb0a92921d8c1e64f4873,SCN,2024-06-10_14h55.13.191,LearnStrategy,2023.2.3,Linux x86_64,59.96282305,,,,,,,,,,,2,01,6,3,,,,,,,,,,,,,,,,,,,,,,,,,,,,
614eb0a92921d8c1e64f4873,SCN,2024-06-10_14h55.13.191,LearnStrategy,2023.2.3,Linux x86_64,59.96282305,,,,,,,,,,,6,08,6,4,,,,,,,,,,,,,,,,,,,,,,,,,,,,
614eb0a92921d8c1e64f4873,SCN,2024-06-10_14h55.13.191,LearnStrategy,2023.2.3,Linux x86_64,59.96282305,,,,,,,,,,,7,14,6,5,,,,,,,,,,,,,,,,,,,,,,,,,,,,
614eb0a92921d8c1e64f4873,SCN,2024-06-10_14h55.13.191,LearnStrategy,2023.2.3,Linux x86_64,59.96282305,,,,,,,,,,,3,11,6,6,,,,,,,,,,,,,,,,,,,,,,,,,,,,
614eb0a92921d8c1e64f4873,SCN,2024-06-10_14h55.13.191,LearnStrategy,2023.2.3,Linux x86_64,59.96282305,,,,,,,,,,,6,15,6,7,,,,,,,,,,,,,,,,,,,,,,,,,,,,
614eb0a92921d8c1e64f4873,SCN,2024-06-10_14h55.13.191,LearnStrategy,2023.2.3,Linux x86_64,59.96282305,,,,,,,,,,,7,12,6,8,,,,,,,,,,,,,,,,,,,,,,,,,,,,