participant,condition,date,expName,psychopyVersion,OS,frameRate,block,phase,trial,learn_mouse_2.x,learn_mouse_2.y,learn_mouse_2.leftButton,learn_mouse_2.midButton,learn_mouse_2.rightButton,learn_mouse_2.time,learn_mouse_2.clicked_name,cat,token,row,col,t_select,cat_mouse_l.x,cat_mouse_l.y,cat_mouse_l.leftButton,cat_mouse_l.midButton,cat_mouse_l.rightButton,cat_mouse_l.time,cat_mouse_l.clicked_name,resp,t_resp,corr,train_trials.thisRepN,train_trials.thisTrialN,train_trials.thisN,train_trials.thisIndex,train_trials.ran,cat_mouse_t.x,cat_mouse_t.y,cat_mouse_t.leftButton,cat_mouse_t.midButton,cat_mouse_t.rightButton,cat_mouse_t.time,cat_mouse_t.clicked_name,test_trials.thisRepN,test_trials.thisTrialN,test_trials.thisN,test_trials.thisIndex,test_trials.ran,Bonus
615509a589a34f7cb9fb075f,TCR,2024-06-21_13h47.01.756,LearnStrategy,2023.2.3,Win32,59.88023952,,,,,,,,,,,,,,,,,,,,,,,,,,,,,,,,,,,,,,,,,,,
615509a589a34f7cb9fb075f,TCR,2024-06-21_13h47.01.756,LearnStrategy,2023.2.3,Win32,59.88023952,1,1,1,-0.030555513,-0.000925947,1,0,0,2.3057,rock_grid_rect_2,3,07,-1,-1,2.306,0.166666667,-0.253703718,1,0,0,3.5723,Diorite_rect,3,3.572,1,0,0,0,0,1,,,,,,,,,,,,,
615509a589a34f7cb9fb075f,TCR,2024-06-21_13h47.01.756,LearnStrategy,2023.2.3,Win32,59.88023952,1,1,2,-0.02870369,-0.011111118,1,0,0,1.0346,rock_grid_rect_2,8,05,-1,-1,1.035,-0.158333319,-0.236111111,1,0,0,1.5686,Basalt_rect,2,1.569,0,1,0,1,0,1,,,,,,,,,,,,,
615509a589a34f7cb9fb075f,TCR,2024-06-21_13h47.01.756,LearnStrategy,2023.2.3,Win32,59.88023952,1,1,3,-0.002777735,-0.00462963,1,0,0,0.9741,rock_grid_rect_2,6,03,-1,-1,0.974,-0.400925919,-0.396296325,1,0,0,3.8424,Obsidian_rect,5,3.842,0,2,0,2,0,1,,,,,,,,,,,,,
615509a589a34f7cb9fb075f,TCR,2024-06-21_13h47.01.756,LearnStrategy,2023.2.3,Win32,59.88023952,1,1,4,-0.022222236,0.002777771,1,0,0,1.1813,rock_grid_rect_2,1,03,-1,-1,1.181,0.384259259,-0.251851894,1,0,0,9.1789,Gabbro_rect,4,9.179,0,3,0,3,0,1,,,,,,,,,,,,,
615509a589a34f7cb9fb075f,TCR,2024-06-21_13h47.01.756,LearnStrategy,2023.2.3,Win32,59.88023952,1,1,5,-0.014814801,-0.008333347,1,0,0,1.0937,rock_grid_rect_2,6,10,-1,-1,1.094,-0.35833334,-0.39907406,1,0,0,2.5896,Obsidian_rect,5,2.59,0,4,0,4,0,1,,,,,,,,,,,,,
615509a589a34f7cb9fb075f,TCR,2024-06-21_13h47.01.756,LearnStrategy,2023.2.3,Win32,59.88023952,1,1,6,-0.008333347,-0.013888889,1,0,0,1.0895,rock_grid_rect_2,2,10,-1,-1,1.09,-0.39907406,-0.401851866,1,0,0,2.8535,Obsidian_rect,5,2.853,0,5,0,5,0,1,,,,,,,,,,,,,
615509a589a34f7cb9fb075f,TCR,2024-06-21_13h47.01.756,LearnStrategy,2023.2.3,Win32,59.88023952,1,1,7,-0.018518519,-0.010185206,1,0,0,0.9093,rock_grid_rect_2,1,11,-1,-1,0.909,0.134259259,-0.242592635,1,0,0,4.2307,Diorite_rect,3,4.231,0,6,0,6,0,1,,,,,,,,,,,,,
615509a589a34f7cb9fb075f,TCR,2024-06-21_13h47.01.756,LearnStrategy,2023.2.3,Win32,59.88023952,1,1,8,0.02870369,-0.024074095,1,0,0,0.9914,rock_grid_rect_2,5,02,-1,-1,0.991,-0.380555541,-0.378703718,1,0,0,1.4346,Obsidian_rect,5,1.435,1,7,0,7,0,1,,,,,,,,,,,,,
615509a589a34f7cb9fb075f,TCR,2024-06-21_13h47.01.756,LearnStrategy,2023.2.3,Win32,59.88023952,1,1,9,0.012037065,-0.011111118,1,0,0,1.0945,rock_grid_rect_2,3,14,-1,-1,1.095,0.114814829,-0.37962963,1,0,0,2.6848,Peridotite_rect,7,2.685,0,8,0,8,0,1,,,,,,,,,,,,,
615509a589a34f7cb9fb075f,TCR,2024-06-21_13h47.01.756,LearnStrategy,2023.2.3,Win32,59.88023952,1,1,10,0.016666695,0.01666666,1,0,0,0.9393,rock_grid_rect_2,4,01,-1,-1,0.939,0.047222208,-0.258333347,1,0,0,2.7464,Diorite_rect,3,2.746,0,9,0,9,0,1,,,,,,,,,,,,,
615509a589a34f7cb9fb075f,TCR,2024-06-21_13h47.01.756,LearnStrategy,2023.2.3,Win32,59.88023952,1,1,11,0.040740755,-0.006481489,1,0,0,0.9063,rock_grid_rect_2,4,10,-1,-1,0.906,0.362962935,-0.389814801,1,0,0,3.003,Pumice_rect,8,3.003,0,10,0,10,0,1,,,,,,,,,,,,,
615509a589a34f7cb9fb075f,TCR,2024-06-21_13h47.01.756,LearnStrategy,2023.2.3,Win32,59.88023952,1,1,12,0.087037051,-0.010185206,1,0,0,1.3837,rock_grid_rect_2,5,05,-1,-1,1.384,-0.400000007,-0.385185171,1,0,0,1.3189,Obsidian_rect,5,1.319,1,11,0,11,0,1,,,,,,,,,,,,,
615509a589a34f7cb9fb075f,TCR,2024-06-21_13h47.01.756,LearnStrategy,2023.2.3,Win32,59.88023952,1,1,13,0.058333362,0.013888889,1,0,0,1.1647,rock_grid_rect_2,7,13,-1,-1,1.165,0.357407464,-0.26944443,1,0,0,7.4158,Gabbro_rect,4,7.416,0,12,0,12,0,1,,,,,,,,,,,,,
615509a589a34f7cb9fb075f,TCR,2024-06-21_13h47.01.756,LearnStrategy,2023.2.3,Win32,59.88023952,1,1,14,0.036111125,-0.009259259,1,0,0,1.4608,rock_grid_rect_2,8,04,-1,-1,1.461,0.344444416,-0.385185171,1,0,0,1.539,Pumice_rect,8,1.539,1,13,0,13,0,1,,,,,,,,,,,,,
615509a589a34f7cb9fb075f,TCR,2024-06-21_13h47.01.756,LearnStrategy,2023.2.3,Win32,59.88023952,1,1,15,-0.011111083,-0.015740748,1,0,0,1.058,rock_grid_rect_2,2,01,-1,-1,1.058,-0.099074046,-0.241666653,1,0,0,1.853,Basalt_rect,2,1.853,1,14,0,14,0,1,,,,,,,,,,,,,
615509a589a34f7cb9fb075f,TCR,2024-06-21_13h47.01.756,LearnStrategy,2023.2.3,Win32,59.88023952,1,1,16,0.061111097,-0.015740748,1,0,0,1.0147,rock_grid_rect_2,7,07,-1,-1,1.015,0.404629601,-0.259259259,1,0,0,12.2143,Gabbro_rect,4,12.214,0,15,0,15,0,1,,,,,,,,,,,,,
615509a589a34f7cb9fb075f,TCR,2024-06-21_13h47.01.756,LearnStrategy,2023.2.3,Win32,59.88023952,1,2,1,,,,,,,,3,10,,,,,,,,,,,4,22.577,0,,,,,,0.41851849,-0.256481524,1,0,0,22.5772,Gabbro_rect,0,0,0,0,1,
615509a589a34f7cb9fb075f,TCR,2024-06-21_13h47.01.756,LearnStrategy,2023.2.3,Win32,59.88023952,1,2,2,,,,,,,,3,16,,,,,,,,,,,3,4.47,1,,,,,,0.132407436,-0.264814801,1,0,0,4.4699,Diorite_rect,1,0,1,0,1,
615509a589a34f7cb9fb075f,TCR,2024-06-21_13h47.01.756,LearnStrategy,2023.2.3,Win32,59.88023952,1,2,3,,,,,,,,6,13,,,,,,,,,,,6,12.588,1,,,,,,-0.166666667,-0.401851866,1,0,0,12.588,Pegmatite_rect,2,0,2,0,1,
615509a589a34f7cb9fb075f,TCR,2024-06-21_13h47.01.756,LearnStrategy,2023.2.3,Win32,59.88023952,1,2,4,,,,,,,,6,08,,,,,,,,,,,6,1.699,1,,,,,,-0.077777792,-0.400000042,1,0,0,1.6988,Pegmatite_rect,3,0,3,0,1,
615509a589a34f7cb9fb075f,TCR,2024-06-21_13h47.01.756,LearnStrategy,2023.2.3,Win32,59.88023952,1,2,5,,,,,,,,8,02,,,,,,,,,,,8,1.482,1,,,,,,0.424074102,-0.411111125,1,0,0,1.4816,Pumice_rect,4,0,4,0,1,
615509a589a34f7cb9fb075f,TCR,2024-06-21_13h47.01.756,LearnStrategy,2023.2.3,Win32,59.88023952,1,2,6,,,,,,,,2,06,,,,,,,,,,,2,2.85,1,,,,,,-0.091666681,-0.250925912,1,0,0,2.8501,Basalt_rect,5,0,5,0,1,
615509a589a34f7cb9fb075f,TCR,2024-06-21_13h47.01.756,LearnStrategy,2023.2.3,Win32,59.88023952,1,2,7,,,,,,,,5,04,,,,,,,,,,,5,1.085,1,,,,,,-0.342592593,-0.386111153,1,0,0,1.0851,Obsidian_rect,6,0,6,0,1,
615509a589a34f7cb9fb075f,TCR,2024-06-21_13h47.01.756,LearnStrategy,2023.2.3,Win32,59.88023952,1,2,8,,,,,,,,4,13,,,,,,,,,,,4,6.344,1,,,,,,0.353703675,-0.231481481,1,0,0,6.3437,Gabbro_rect,7,0,7,0,1,
615509a589a34f7cb9fb075f,TCR,2024-06-21_13h47.01.756,LearnStrategy,2023.2.3,Win32,59.88023952,1,2,9,,,,,,,,5,08,,,,,,,,,,,5,1.218,1,,,,,,-0.374074053,-0.381481524,1,0,0,1.2176,Obsidian_rect,8,0,8,0,1,
615509a589a34f7cb9fb075f,TCR,2024-06-21_13h47.01.756,LearnStrategy,2023.2.3,Win32,59.88023952,1,2,10,,,,,,,,7,04,,,,,,,,,,,2,1.764,0,,,,,,-0.103703675,-0.261111153,1,0,0,1.7639,Basalt_rect,9,0,9,0,1,
615509a589a34f7cb9fb075f,TCR,2024-06-21_13h47.01.756,LearnStrategy,2023.2.3,Win32,59.88023952,1,2,11,,,,,,,,4,05,,,,,,,,,,,4,5.47,1,,,,,,0.387037065,-0.257407436,1,0,0,5.4703,Gabbro_rect,10,0,10,0,1,
615509a589a34f7cb9fb075f,TCR,2024-06-21_13h47.01.756,LearnStrategy,2023.2.3,Win32,59.88023952,1,2,12,,,,,,,,7,12,,,,,,,,,,,4,1.38,0,,,,,,0.3648149,-0.234259288,1,0,0,1.3802,Gabbro_rect,11,0,11,0,1,
615509a589a34f7cb9fb075f,TCR,2024-06-21_13h47.01.756,LearnStrategy,2023.2.3,Win32,59.88023952,1,2,13,,,,,,,,1,04,,,,,,,,,,,2,1.115,0,,,,,,-0.149999972,-0.261111153,1,0,0,1.1155,Basalt_rect,12,0,12,0,1,
615509a589a34f7cb9fb075f,TCR,2024-06-21_13h47.01.756,LearnStrategy,2023.2.3,Win32,59.88023952,1,2,14,,,,,,,,2,08,,,,,,,,,,,1,4.234,0,,,,,,-0.368518511,-0.248148176,1,0,0,4.2339,Andesite_rect,13,0,13,0,1,
615509a589a34f7cb9fb075f,TCR,2024-06-21_13h47.01.756,LearnStrategy,2023.2.3,Win32,59.88023952,1,2,15,,,,,,,,8,03,,,,,,,,,,,8,2.119,1,,,,,,0.440740797,-0.418518561,1,0,0,2.1188,Pumice_rect,14,0,14,0,1,
615509a589a34f7cb9fb075f,TCR,2024-06-21_13h47.01.756,LearnStrategy,2023.2.3,Win32,59.88023952,1,2,16,,,,,,,,1,06,,,,,,,,,,,4,3.632,0,,,,,,0.400925954,-0.257407436,1,0,0,3.6324,Gabbro_rect,15,0,15,0,1,
615509a589a34f7cb9fb075f,TCR,2024-06-21_13h47.01.756,LearnStrategy,2023.2.3,Win32,59.88023952,2,1,1,-0.002777735,-0.022222236,1,0,0,1.1754,rock_grid_rect_2,6,07,-1,-1,1.175,-0.353703711,-0.261111153,1,0,0,1.4739,Andesite_rect,1,1.474,0,0,0,0,0,1,,,,,,,,,,,,,
615509a589a34f7cb9fb075f,TCR,2024-06-21_13h47.01.756,LearnStrategy,2023.2.3,Win32,59.88023952,2,1,2,0.020370413,-0.011111118,1,0,0,1.3516,rock_grid_rect_2,4,12,-1,-1,1.352,-0.117592564,-0.257407436,1,0,0,1.2552,Basalt_rect,2,1.255,0,1,0,1,0,1,,,,,,,,,,,,,
615509a589a34f7cb9fb075f,TCR,2024-06-21_13h47.01.756,LearnStrategy,2023.2.3,Win32,59.88023952,2,1,3,0.015740783,-0.024074095,1,0,0,1.0253,rock_grid_rect_2,2,02,-1,-1,1.025,-0.087962963,-0.238888917,1,0,0,0.9865,Basalt_rect,2,0.986,1,2,0,2,0,1,,,,,,,,,,,,,
615509a589a34f7cb9fb075f,TCR,2024-06-21_13h47.01.756,LearnStrategy,2023.2.3,Win32,59.88023952,2,1,4,0,0.009259259,1,0,0,1.048,rock_grid_rect_2,1,01,-1,-1,1.048,-0.346296275,-0.264814801,1,0,0,5.9404,Andesite_rect,1,5.94,1,3,0,3,0,1,,,,,,,,,,,,,
615509a589a34f7cb9fb075f,TCR,2024-06-21_13h47.01.756,LearnStrategy,2023.2.3,Win32,59.88023952,2,1,5,0.060185185,-0.010185206,1,0,0,0.8312,rock_grid_rect_2,1,07,-1,-1,0.831,0.172222208,-0.239814829,1,0,0,3.8836,Diorite_rect,3,3.884,0,4,0,4,0,1,,,,,,,,,,,,,
615509a589a34f7cb9fb075f,TCR,2024-06-21_13h47.01.756,LearnStrategy,2023.2.3,Win32,59.88023952,2,1,6,0.050925926,-0.020370377,1,0,0,0.9846,rock_grid_rect_2,7,16,-1,-1,0.985,0.413888861,-0.243518547,1,0,0,4.27,Gabbro_rect,4,4.27,0,5,0,5,0,1,,,,,,,,,,,,,
615509a589a34f7cb9fb075f,TCR,2024-06-21_13h47.01.756,LearnStrategy,2023.2.3,Win32,59.88023952,2,1,7,0.030555584,-0.006481489,1,0,0,2.3133,rock_grid_rect_2,2,09,-1,-1,2.313,-0.075925898,-0.246296282,1,0,0,1.1979,Basalt_rect,2,1.198,1,6,0,6,0,1,,,,,,,,,,,,,
615509a589a34f7cb9fb075f,TCR,2024-06-21_13h47.01.756,LearnStrategy,2023.2.3,Win32,59.88023952,2,1,8,-0.022222236,0.01944443,1,0,0,1.168,rock_grid_rect_2,3,07,-1,-1,1.168,0.112963005,-0.253703718,1,0,0,2.4139,Diorite_rect,3,2.414,1,7,0,7,0,1,,,,,,,,,,,,,
615509a589a34f7cb9fb075f,TCR,2024-06-21_13h47.01.756,LearnStrategy,2023.2.3,Win32,59.88023952,2,1,9,-0.023148148,-0.01666666,1,0,0,1.0008,rock_grid_rect_2,8,04,-1,-1,1.001,0.369444529,-0.395370413,1,0,0,1.244,Pumice_rect,8,1.244,1,8,0,8,0,1,,,,,,,,,,,,,
615509a589a34f7cb9fb075f,TCR,2024-06-21_13h47.01.756,LearnStrategy,2023.2.3,Win32,59.88023952,2,1,10,-0.031481496,0.00462963,1,0,0,0.9353,rock_grid_rect_2,7,07,-1,-1,0.935,0.087037051,-0.397222236,1,0,0,7.7808,Peridotite_rect,7,7.781,1,9,0,9,0,1,,,,,,,,,,,,,
615509a589a34f7cb9fb075f,TCR,2024-06-21_13h47.01.756,LearnStrategy,2023.2.3,Win32,59.88023952,2,1,11,0.073148162,0.02407406,1,0,0,1.7405,rock_grid_rect_2,3,12,-1,-1,1.74,0.150000042,-0.387037065,1,0,0,1.2021,Peridotite_rect,7,1.202,0,10,0,10,0,1,,,,,,,,,,,,,
615509a589a34f7cb9fb075f,TCR,2024-06-21_13h47.01.756,LearnStrategy,2023.2.3,Win32,59.88023952,2,1,12,0.063888903,0.005555541,1,0,0,1.0144,rock_grid_rect_2,1,05,-1,-1,1.014,0.099074116,-0.406481496,1,0,0,1.5496,Peridotite_rect,7,1.55,0,11,0,11,0,1,,,,,,,,,,,,,
615509a589a34f7cb9fb075f,TCR,2024-06-21_13h47.01.756,LearnStrategy,2023.2.3,Win32,59.88023952,2,1,13,0.031481496,-0.020370377,1,0,0,1.0321,rock_grid_rect_2,1,07,-1,-1,1.032,0.217592593,-0.401851866,1,0,0,1.381,Peridotite_rect,7,1.381,0,12,0,12,0,1,,,,,,,,,,,,,
615509a589a34f7cb9fb075f,TCR,2024-06-21_13h47.01.756,LearnStrategy,2023.2.3,Win32,59.88023952,2,1,14,0.091666681,-0.010185206,1,0,0,0.8644,rock_grid_rect_2,7,16,-1,-1,0.864,-0.162962949,-0.396296325,1,0,0,2.664,Pegmatite_rect,6,2.664,0,13,0,13,0,1,,,,,,,,,,,,,
615509a589a34f7cb9fb075f,TCR,2024-06-21_13h47.01.756,LearnStrategy,2023.2.3,Win32,59.88023952,2,1,15,0.006481524,-0.005555577,1,0,0,1.0348,rock_grid_rect_2,2,14,-1,-1,1.035,-0.086111069,-0.386111153,1,0,0,3.7127,Pegmatite_rect,6,3.713,0,14,0,14,0,1,,,,,,,,,,,,,
615509a589a34f7cb9fb075f,TCR,2024-06-21_13h47.01.756,LearnStrategy,2023.2.3,Win32,59.88023952,2,1,16,-0.04351849,-0.014814836,1,0,0,0.909,rock_grid_rect_2,7,15,-1,-1,0.909,0.125925912,-0.395370413,1,0,0,1.5289,Peridotite_rect,7,1.529,1,15,0,15,0,1,,,,,,,,,,,,,
615509a589a34f7cb9fb075f,TCR,2024-06-21_13h47.01.756,LearnStrategy,2023.2.3,Win32,59.88023952,2,2,1,,,,,,,,5,07,,,,,,,,,,,5,3.991,1,,,,,,-0.444444444,-0.411111125,1,0,0,3.9907,Obsidian_rect,0,0,0,0,1,
615509a589a34f7cb9fb075f,TCR,2024-06-21_13h47.01.756,LearnStrategy,2023.2.3,Win32,59.88023952,2,2,2,,,,,,,,8,08,,,,,,,,,,,8,1.418,1,,,,,,0.45185188,-0.389814801,1,0,0,1.4175,Pumice_rect,1,0,1,0,1,
615509a589a34f7cb9fb075f,TCR,2024-06-21_13h47.01.756,LearnStrategy,2023.2.3,Win32,59.88023952,2,2,3,,,,,,,,6,16,,,,,,,,,,,3,1.562,0,,,,,,0.085185228,-0.237037023,1,0,0,1.5619,Diorite_rect,2,0,2,0,1,
615509a589a34f7cb9fb075f,TCR,2024-06-21_13h47.01.756,LearnStrategy,2023.2.3,Win32,59.88023952,2,2,4,,,,,,,,4,03,,,,,,,,,,,1,2.482,0,,,,,,-0.365740741,-0.228703746,1,0,0,2.4821,Andesite_rect,3,0,3,0,1,
615509a589a34f7cb9fb075f,TCR,2024-06-21_13h47.01.756,LearnStrategy,2023.2.3,Win32,59.88023952,2,2,5,,,,,,,,3,11,,,,,,,,,,,7,1.948,0,,,,,,0.128703718,-0.395370413,1,0,0,1.9482,Peridotite_rect,4,0,4,0,1,
615509a589a34f7cb9fb075f,TCR,2024-06-21_13h47.01.756,LearnStrategy,2023.2.3,Win32,59.88023952,2,2,6,,,,,,,,3,13,,,,,,,,,,,7,1.104,0,,,,,,0.128703718,-0.400000042,1,0,0,1.104,Peridotite_rect,5,0,5,0,1,
615509a589a34f7cb9fb075f,TCR,2024-06-21_13h47.01.756,LearnStrategy,2023.2.3,Win32,59.88023952,2,2,7,,,,,,,,1,16,,,,,,,,,,,6,2.183,0,,,,,,-0.104629587,-0.405555584,1,0,0,2.1826,Pegmatite_rect,6,0,6,0,1,
615509a589a34f7cb9fb075f,TCR,2024-06-21_13h47.01.756,LearnStrategy,2023.2.3,Win32,59.88023952,2,2,8,,,,,,,,8,13,,,,,,,,,,,8,1.53,1,,,,,,0.444444444,-0.393518519,1,0,0,1.5295,Pumice_rect,7,0,7,0,1,
615509a589a34f7cb9fb075f,TCR,2024-06-21_13h47.01.756,LearnStrategy,2023.2.3,Win32,59.88023952,2,2,9,,,,,,,,4,09,,,,,,,,,,,2,1.411,0,,,,,,-0.162962949,-0.251851894,1,0,0,1.4111,Basalt_rect,8,0,8,0,1,
615509a589a34f7cb9fb075f,TCR,2024-06-21_13h47.01.756,LearnStrategy,2023.2.3,Win32,59.88023952,2,2,10,,,,,,,,7,02,,,,,,,,,,,7,1.115,1,,,,,,0.075925968,-0.392592607,1,0,0,1.1151,Peridotite_rect,9,0,9,0,1,
615509a589a34f7cb9fb075f,TCR,2024-06-21_13h47.01.756,LearnStrategy,2023.2.3,Win32,59.88023952,2,2,11,,,,,,,,6,09,,,,,,,,,,,3,1.532,0,,,,,,0.179629644,-0.257407436,1,0,0,1.5318,Diorite_rect,10,0,10,0,1,
615509a589a34f7cb9fb075f,TCR,2024-06-21_13h47.01.756,LearnStrategy,2023.2.3,Win32,59.88023952,2,2,12,,,,,,,,5,06,,,,,,,,,,,5,1.543,1,,,,,,-0.3675926,-0.400000042,1,0,0,1.5428,Obsidian_rect,11,0,11,0,1,
615509a589a34f7cb9fb075f,TCR,2024-06-21_13h47.01.756,LearnStrategy,2023.2.3,Win32,59.88023952,2,2,13,,,,,,,,7,08,,,,,,,,,,,7,1.779,1,,,,,,0.157407407,-0.404629672,1,0,0,1.7791,Peridotite_rect,12,0,12,0,1,
615509a589a34f7cb9fb075f,TCR,2024-06-21_13h47.01.756,LearnStrategy,2023.2.3,Win32,59.88023952,2,2,14,,,,,,,,2,12,,,,,,,,,,,2,2.786,1,,,,,,-0.119444459,-0.25,1,0,0,2.7863,Basalt_rect,13,0,13,0,1,
615509a589a34f7cb9fb075f,TCR,2024-06-21_13h47.01.756,LearnStrategy,2023.2.3,Win32,59.88023952,2,2,15,,,,,,,,2,05,,,,,,,,,,,2,2.912,1,,,,,,-0.113888847,-0.229629658,1,0,0,2.9123,Basalt_rect,14,0,14,0,1,
615509a589a34f7cb9fb075f,TCR,2024-06-21_13h47.01.756,LearnStrategy,2023.2.3,Win32,59.88023952,2,2,16,,,,,,,,1,09,,,,,,,,,,,2,1.284,0,,,,,,-0.135185171,-0.240740741,1,0,0,1.2841,Basalt_rect,15,0,15,0,1,
615509a589a34f7cb9fb075f,TCR,2024-06-21_13h47.01.756,LearnStrategy,2023.2.3,Win32,59.88023952,3,1,1,-0.014814801,0.008333312,1,0,0,1.732,rock_grid_rect_2,2,11,-1,-1,1.732,-0.117592564,-0.23055557,1,0,0,2.423,Basalt_rect,2,2.423,1,0,0,0,0,1,,,,,,,,,,,,,
615509a589a34f7cb9fb075f,TCR,2024-06-21_13h47.01.756,LearnStrategy,2023.2.3,Win32,59.88023952,3,1,2,-0.045370384,0,1,0,0,0.941,rock_grid_rect_2,4,11,-1,-1,0.941,-0.171296296,-0.411111125,1,0,0,3.2322,Pegmatite_rect,6,3.232,0,1,0,1,0,1,,,,,,,,,,,,,
615509a589a34f7cb9fb075f,TCR,2024-06-21_13h47.01.756,LearnStrategy,2023.2.3,Win32,59.88023952,3,1,3,-0.00462963,-0.00462963,1,0,0,0.7078,rock_grid_rect_2,7,07,-1,-1,0.708,0.119444459,-0.406481496,1,0,0,1.2852,Peridotite_rect,7,1.285,1,2,0,2,0,1,,,,,,,,,,,,,
615509a589a34f7cb9fb075f,TCR,2024-06-21_13h47.01.756,LearnStrategy,2023.2.3,Win32,59.88023952,3,1,4,0.020370413,-0.001851859,1,0,0,1.0148,rock_grid_rect_2,4,10,-1,-1,1.015,-0.348148134,-0.255555541,1,0,0,2.5125,Andesite_rect,1,2.512,0,3,0,3,0,1,,,,,,,,,,,,,
615509a589a34f7cb9fb075f,TCR,2024-06-21_13h47.01.756,LearnStrategy,2023.2.3,Win32,59.88023952,3,1,5,-0.002777735,-0.023148148,1,0,0,1.0804,rock_grid_rect_2,1,11,-1,-1,1.08,-0.107407393,-0.250925912,1,0,0,1.8794,Basalt_rect,2,1.879,0,4,0,4,0,1,,,,,,,,,,,,,
615509a589a34f7cb9fb075f,TCR,2024-06-21_13h47.01.756,LearnStrategy,2023.2.3,Win32,59.88023952,3,1,6,-0.018518519,-0.001851859,1,0,0,0.9354,rock_grid_rect_2,1,01,-1,-1,0.935,-0.361111111,-0.266666695,1,0,0,2.7638,Andesite_rect,1,2.764,1,5,0,5,0,1,,,,,,,,,,,,,
615509a589a34f7cb9fb075f,TCR,2024-06-21_13h47.01.756,LearnStrategy,2023.2.3,Win32,59.88023952,3,1,7,0.044444473,-0.014814836,1,0,0,1.3744,rock_grid_rect_2,7,14,-1,-1,1.374,0.367592564,-0.248148176,1,0,0,2.1249,Gabbro_rect,4,2.125,0,6,0,6,0,1,,,,,,,,,,,,,
615509a589a34f7cb9fb075f,TCR,2024-06-21_13h47.01.756,LearnStrategy,2023.2.3,Win32,59.88023952,3,1,8,0.023148148,0.01203703,1,0,0,1.1907,rock_grid_rect_2,6,10,-1,-1,1.191,0.185185185,-0.237037023,1,0,0,2.2331,Diorite_rect,3,2.233,0,7,0,7,0,1,,,,,,,,,,,,,
615509a589a34f7cb9fb075f,TCR,2024-06-21_13h47.01.756,LearnStrategy,2023.2.3,Win32,59.88023952,3,1,9,0.034259302,0.014814801,1,0,0,3.7352,rock_grid_rect_2,1,11,-1,-1,3.735,-0.074074074,-0.239814829,1,0,0,1.2235,Basalt_rect,2,1.224,0,8,0,8,0,1,,,,,,,,,,,,,
615509a589a34f7cb9fb075f,TCR,2024-06-21_13h47.01.756,LearnStrategy,2023.2.3,Win32,59.88023952,3,1,10,-0.022222236,0.011111118,1,0,0,1.1083,rock_grid_rect_2,3,09,-1,-1,1.108,0.115740741,-0.407407407,1,0,0,1.5349,Peridotite_rect,7,1.535,0,9,0,9,0,1,,,,,,,,,,,,,
615509a589a34f7cb9fb075f,TCR,2024-06-21_13h47.01.756,LearnStrategy,2023.2.3,Win32,59.88023952,3,1,11,0.055555556,-0.000925947,1,0,0,1.2474,rock_grid_rect_2,6,11,-1,-1,1.247,-0.102777764,-0.417592578,1,0,0,3.1219,Pegmatite_rect,6,3.122,1,10,0,10,0,1,,,,,,,,,,,,,
615509a589a34f7cb9fb075f,TCR,2024-06-21_13h47.01.756,LearnStrategy,2023.2.3,Win32,59.88023952,3,1,12,0.062962991,-0.012962977,1,0,0,1.7921,rock_grid_rect_2,3,07,-1,-1,1.792,0.107407393,-0.404629672,1,0,0,1.5212,Peridotite_rect,7,1.521,0,11,0,11,0,1,,,,,,,,,,,,,
615509a589a34f7cb9fb075f,TCR,2024-06-21_13h47.01.756,LearnStrategy,2023.2.3,Win32,59.88023952,3,1,13,0.042592578,-0.002777771,1,0,0,0.9989,rock_grid_rect_2,3,14,-1,-1,0.999,0.125925912,-0.397222236,1,0,0,1.7475,Peridotite_rect,7,1.747,0,12,0,12,0,1,,,,,,,,,,,,,
615509a589a34f7cb9fb075f,TCR,2024-06-21_13h47.01.756,LearnStrategy,2023.2.3,Win32,59.88023952,3,1,14,0.034259302,-0.024074095,1,0,0,0.7149,rock_grid_rect_2,1,14,-1,-1,0.715,-0.101851852,-0.237037023,1,0,0,1.2192,Basalt_rect,2,1.219,0,13,0,13,0,1,,,,,,,,,,,,,
615509a589a34f7cb9fb075f,TCR,2024-06-21_13h47.01.756,LearnStrategy,2023.2.3,Win32,59.88023952,3,1,15,0.003703718,-0.009259259,1,0,0,0.8757,rock_grid_rect_2,4,10,-1,-1,0.876,-0.068518533,-0.400925954,1,0,0,1.9792,Pegmatite_rect,6,1.979,0,14,0,14,0,1,,,,,,,,,,,,,
615509a589a34f7cb9fb075f,TCR,2024-06-21_13h47.01.756,LearnStrategy,2023.2.3,Win32,59.88023952,3,1,16,0.008333347,-0.01666666,1,0,0,0.7352,rock_grid_rect_2,6,10,-1,-1,0.735,-0.104629587,-0.417592578,1,0,0,1.7829,Pegmatite_rect,6,1.783,1,15,0,15,0,1,,,,,,,,,,,,,
615509a589a34f7cb9fb075f,TCR,2024-06-21_13h47.01.756,LearnStrategy,2023.2.3,Win32,59.88023952,3,2,1,,,,,,,,7,05,,,,,,,,,,,4,2.264,0,,,,,,0.314814815,-0.257407436,1,0,0,2.2644,Gabbro_rect,0,0,0,0,1,
615509a589a34f7cb9fb075f,TCR,2024-06-21_13h47.01.756,LearnStrategy,2023.2.3,Win32,59.88023952,3,2,2,,,,,,,,5,16,,,,,,,,,,,5,1.482,1,,,,,,-0.380555541,-0.37962963,1,0,0,1.4821,Obsidian_rect,1,0,1,0,1,
615509a589a34f7cb9fb075f,TCR,2024-06-21_13h47.01.756,LearnStrategy,2023.2.3,Win32,59.88023952,3,2,3,,,,,,,,3,08,,,,,,,,,,,7,1.199,0,,,,,,0.154629672,-0.39444443,1,0,0,1.1991,Peridotite_rect,2,0,2,0,1,
615509a589a34f7cb9fb075f,TCR,2024-06-21_13h47.01.756,LearnStrategy,2023.2.3,Win32,59.88023952,3,2,4,,,,,,,,1,02,,,,,,,,,,,3,6.657,0,,,,,,0.098148134,-0.237963005,1,0,0,6.6566,Diorite_rect,3,0,3,0,1,
615509a589a34f7cb9fb075f,TCR,2024-06-21_13h47.01.756,LearnStrategy,2023.2.3,Win32,59.88023952,3,2,5,,,,,,,,6,15,,,,,,,,,,,6,1.381,1,,,,,,-0.145370342,-0.391666695,1,0,0,1.3809,Pegmatite_rect,4,0,4,0,1,
615509a589a34f7cb9fb075f,TCR,2024-06-21_13h47.01.756,LearnStrategy,2023.2.3,Win32,59.88023952,3,2,6,,,,,,,,3,15,,,,,,,,,,,7,0.974,0,,,,,,0.12962963,-0.395370413,1,0,0,0.9743,Peridotite_rect,5,0,5,0,1,
615509a589a34f7cb9fb075f,TCR,2024-06-21_13h47.01.756,LearnStrategy,2023.2.3,Win32,59.88023952,3,2,7,,,,,,,,4,14,,,,,,,,,,,6,2.784,0,,,,,,-0.136111083,-0.386111153,1,0,0,2.7837,Pegmatite_rect,6,0,6,0,1,
615509a589a34f7cb9fb075f,TCR,2024-06-21_13h47.01.756,LearnStrategy,2023.2.3,Win32,59.88023952,3,2,8,,,,,,,,5,10,,,,,,,,,,,5,2.256,1,,,,,,-0.344444452,-0.397222236,1,0,0,2.2564,Obsidian_rect,7,0,7,0,1,
615509a589a34f7cb9fb075f,TCR,2024-06-21_13h47.01.756,LearnStrategy,2023.2.3,Win32,59.88023952,3,2,9,,,,,,,,7,10,,,,,,,,,,,7,2.03,1,,,,,,0.150925954,-0.413888931,1,0,0,2.0304,Peridotite_rect,8,0,8,0,1,
615509a589a34f7cb9fb075f,TCR,2024-06-21_13h47.01.756,LearnStrategy,2023.2.3,Win32,59.88023952,3,2,10,,,,,,,,8,09,,,,,,,,,,,8,1.023,1,,,,,,0.35555564,-0.402777778,1,0,0,1.0232,Pumice_rect,9,0,9,0,1,
615509a589a34f7cb9fb075f,TCR,2024-06-21_13h47.01.756,LearnStrategy,2023.2.3,Win32,59.88023952,3,2,11,,,,,,,,1,10,,,,,,,,,,,2,1.504,0,,,,,,-0.09629631,-0.257407436,1,0,0,1.5038,Basalt_rect,10,0,10,0,1,
615509a589a34f7cb9fb075f,TCR,2024-06-21_13h47.01.756,LearnStrategy,2023.2.3,Win32,59.88023952,3,2,12,,,,,,,,8,06,,,,,,,,,,,8,1.396,1,,,,,,0.421296296,-0.387962977,1,0,0,1.3965,Pumice_rect,11,0,11,0,1,
615509a589a34f7cb9fb075f,TCR,2024-06-21_13h47.01.756,LearnStrategy,2023.2.3,Win32,59.88023952,3,2,13,,,,,,,,6,12,,,,,,,,,,,6,1.394,1,,,,,,-0.117592564,-0.408333319,1,0,0,1.394,Pegmatite_rect,12,0,12,0,1,
615509a589a34f7cb9fb075f,TCR,2024-06-21_13h47.01.756,LearnStrategy,2023.2.3,Win32,59.88023952,3,2,14,,,,,,,,4,08,,,,,,,,,,,4,2.064,1,,,,,,0.387037065,-0.242592635,1,0,0,2.0637,Gabbro_rect,13,0,13,0,1,
615509a589a34f7cb9fb075f,TCR,2024-06-21_13h47.01.756,LearnStrategy,2023.2.3,Win32,59.88023952,3,2,15,,,,,,,,2,16,,,,,,,,,,,2,1.231,1,,,,,,-0.108333305,-0.257407436,1,0,0,1.2313,Basalt_rect,14,0,14,0,1,
615509a589a34f7cb9fb075f,TCR,2024-06-21_13h47.01.756,LearnStrategy,2023.2.3,Win32,59.88023952,3,2,16,,,,,,,,2,04,,,,,,,,,,,2,1.18,1,,,,,,-0.108333305,-0.257407436,1,0,0,1.1802,Basalt_rect,15,0,15,0,1,
615509a589a34f7cb9fb075f,TCR,2024-06-21_13h47.01.756,LearnStrategy,2023.2.3,Win32,59.88023952,4,1,1,0.040740755,-0.003703718,1,0,0,1.1097,rock_grid_rect_2,3,07,-1,-1,1.11,-0.321296303,-0.234259288,1,0,0,2.0352,Andesite_rect,1,2.035,0,0,0,0,0,1,,,,,,,,,,,,,
615509a589a34f7cb9fb075f,TCR,2024-06-21_13h47.01.756,LearnStrategy,2023.2.3,Win32,59.88023952,4,1,2,0.058333362,-0.003703718,1,0,0,0.9322,rock_grid_rect_2,4,16,-1,-1,0.932,0.405555584,-0.256481524,1,0,0,2.8905,Gabbro_rect,4,2.891,1,1,0,1,0,1,,,,,,,,,,,,,
615509a589a34f7cb9fb075f,TCR,2024-06-21_13h47.01.756,LearnStrategy,2023.2.3,Win32,59.88023952,4,1,3,-0.010185171,0.001851859,1,0,0,0.7632,rock_grid_rect_2,2,11,-1,-1,0.763,-0.10092594,-0.233333376,1,0,0,1.4882,Basalt_rect,2,1.488,1,2,0,2,0,1,,,,,,,,,,,,,
615509a589a34f7cb9fb075f,TCR,2024-06-21_13h47.01.756,LearnStrategy,2023.2.3,Win32,59.88023952,4,1,4,-0.012036995,-0.012962977,1,0,0,0.852,rock_grid_rect_2,1,07,-1,-1,0.852,-0.448148127,-0.240740741,1,0,0,2.2344,Andesite_rect,1,2.234,1,3,0,3,0,1,,,,,,,,,,,,,
615509a589a34f7cb9fb075f,TCR,2024-06-21_13h47.01.756,LearnStrategy,2023.2.3,Win32,59.88023952,4,1,5,-0.045370384,-0.014814836,1,0,0,1.5251,rock_grid_rect_2,3,07,-1,-1,1.525,0.165740755,-0.400925954,1,0,0,1.1531,Peridotite_rect,7,1.153,0,4,0,4,0,1,,,,,,,,,,,,,
615509a589a34f7cb9fb075f,TCR,2024-06-21_13h47.01.756,LearnStrategy,2023.2.3,Win32,59.88023952,4,1,6,0.031481496,-0.008333347,1,0,0,1.2921,rock_grid_rect_2,1,07,-1,-1,1.292,-0.387962942,-0.25462963,1,0,0,1.2731,Andesite_rect,1,1.273,1,5,0,5,0,1,,,,,,,,,,,,,
615509a589a34f7cb9fb075f,TCR,2024-06-21_13h47.01.756,LearnStrategy,2023.2.3,Win32,59.88023952,4,1,7,0.067592621,0.013888889,1,0,0,1.0185,rock_grid_rect_2,4,12,-1,-1,1.019,-0.126851824,-0.26944443,1,0,0,1.7916,Basalt_rect,2,1.792,0,6,0,6,0,1,,,,,,,,,,,,,
615509a589a34f7cb9fb075f,TCR,2024-06-21_13h47.01.756,LearnStrategy,2023.2.3,Win32,59.88023952,4,1,8,0.055555556,-0.009259259,1,0,0,1.1092,rock_grid_rect_2,1,11,-1,-1,1.109,-0.137036995,-0.232407393,1,0,0,1.2396,Basalt_rect,2,1.24,0,7,0,7,0,1,,,,,,,,,,,,,
615509a589a34f7cb9fb075f,TCR,2024-06-21_13h47.01.756,LearnStrategy,2023.2.3,Win32,59.88023952,4,1,9,0.022222236,-0.008333347,1,0,0,1.0751,rock_grid_rect_2,7,15,-1,-1,1.075,-0.172222208,-0.39907406,1,0,0,1.4899,Pegmatite_rect,6,1.49,0,8,0,8,0,1,,,,,,,,,,,,,
615509a589a34f7cb9fb075f,TCR,2024-06-21_13h47.01.756,LearnStrategy,2023.2.3,Win32,59.88023952,4,1,10,0.036111125,-0.010185206,1,0,0,0.8641,rock_grid_rect_2,1,05,-1,-1,0.864,-0.361111111,-0.262037065,1,0,0,1.6397,Andesite_rect,1,1.64,1,9,0,9,0,1,,,,,,,,,,,,,
615509a589a34f7cb9fb075f,TCR,2024-06-21_13h47.01.756,LearnStrategy,2023.2.3,Win32,59.88023952,4,1,11,0.043518561,0.001851859,1,0,0,0.9847,rock_grid_rect_2,7,07,-1,-1,0.985,0.159259302,-0.401851866,1,0,0,1.1754,Peridotite_rect,7,1.175,1,10,0,10,0,1,,,,,,,,,,,,,
615509a589a34f7cb9fb075f,TCR,2024-06-21_13h47.01.756,LearnStrategy,2023.2.3,Win32,59.88023952,4,1,12,0.018518519,-0.01666666,1,0,0,0.9985,rock_grid_rect_2,3,02,-1,-1,0.999,-0.108333305,-0.397222236,1,0,0,2.4628,Pegmatite_rect,6,2.463,0,11,0,11,0,1,,,,,,,,,,,,,
615509a589a34f7cb9fb075f,TCR,2024-06-21_13h47.01.756,LearnStrategy,2023.2.3,Win32,59.88023952,4,1,13,-0.012036995,0.01666666,1,0,0,1.2598,rock_grid_rect_2,4,12,-1,-1,1.26,-0.131481453,-0.237037023,1,0,0,1.4582,Basalt_rect,2,1.458,0,12,0,12,0,1,,,,,,,,,,,,,
615509a589a34f7cb9fb075f,TCR,2024-06-21_13h47.01.756,LearnStrategy,2023.2.3,Win32,59.88023952,4,1,14,-0.008333347,-0.013888889,1,0,0,1.4508,rock_grid_rect_2,3,14,-1,-1,1.451,-0.351851852,-0.237963005,1,0,0,2.254,Andesite_rect,1,2.254,0,13,0,13,0,1,,,,,,,,,,,,,
615509a589a34f7cb9fb075f,TCR,2024-06-21_13h47.01.756,LearnStrategy,2023.2.3,Win32,59.88023952,4,1,15,0.012037065,-0.014814836,1,0,0,1.0583,rock_grid_rect_2,6,05,-1,-1,1.058,-0.110185199,-0.382407436,1,0,0,2.412,Pegmatite_rect,6,2.412,1,14,0,14,0,1,,,,,,,,,,,,,
615509a589a34f7cb9fb075f,TCR,2024-06-21_13h47.01.756,LearnStrategy,2023.2.3,Win32,59.88023952,4,1,16,0.02407406,0.006481489,1,0,0,0.7634,rock_grid_rect_2,6,11,-1,-1,0.763,-0.076851809,-0.378703718,1,0,0,1.4531,Pegmatite_rect,6,1.453,1,15,0,15,0,1,,,,,,,,,,,,,
615509a589a34f7cb9fb075f,TCR,2024-06-21_13h47.01.756,LearnStrategy,2023.2.3,Win32,59.88023952,4,2,1,,,,,,,,1,02,,,,,,,,,,,1,1.579,1,,,,,,-0.361111111,-0.267592607,1,0,0,1.5793,Andesite_rect,0,0,0,0,1,
615509a589a34f7cb9fb075f,TCR,2024-06-21_13h47.01.756,LearnStrategy,2023.2.3,Win32,59.88023952,4,2,2,,,,,,,,5,16,,,,,,,,,,,5,1.648,1,,,,,,-0.369444423,-0.393518519,1,0,0,1.6477,Obsidian_rect,1,0,1,0,1,
615509a589a34f7cb9fb075f,TCR,2024-06-21_13h47.01.756,LearnStrategy,2023.2.3,Win32,59.88023952,4,2,3,,,,,,,,8,09,,,,,,,,,,,8,1.135,1,,,,,,0.402777778,-0.415740755,1,0,0,1.135,Pumice_rect,2,0,2,0,1,
615509a589a34f7cb9fb075f,TCR,2024-06-21_13h47.01.756,LearnStrategy,2023.2.3,Win32,59.88023952,4,2,4,,,,,,,,7,08,,,,,,,,,,,4,2.503,0,,,,,,0.40370376,-0.248148176,1,0,0,2.5027,Gabbro_rect,3,0,3,0,1,
615509a589a34f7cb9fb075f,TCR,2024-06-21_13h47.01.756,LearnStrategy,2023.2.3,Win32,59.88023952,4,2,5,,,,,,,,5,04,,,,,,,,,,,5,1.737,1,,,,,,-0.364814794,-0.387037065,1,0,0,1.7366,Obsidian_rect,4,0,4,0,1,
615509a589a34f7cb9fb075f,TCR,2024-06-21_13h47.01.756,LearnStrategy,2023.2.3,Win32,59.88023952,4,2,6,,,,,,,,7,04,,,,,,,,,,,6,1.525,0,,,,,,-0.115740741,-0.415740755,1,0,0,1.5251,Pegmatite_rect,5,0,5,0,1,
615509a589a34f7cb9fb075f,TCR,2024-06-21_13h47.01.756,LearnStrategy,2023.2.3,Win32,59.88023952,4,2,7,,,,,,,,3,13,,,,,,,,,,,1,1.506,0,,,,,,-0.366666653,-0.250925912,1,0,0,1.506,Andesite_rect,6,0,6,0,1,
615509a589a34f7cb9fb075f,TCR,2024-06-21_13h47.01.756,LearnStrategy,2023.2.3,Win32,59.88023952,4,2,8,,,,,,,,6,16,,,,,,,,,,,6,1.123,1,,,,,,-0.139814801,-0.400000042,1,0,0,1.1229,Pegmatite_rect,7,0,7,0,1,
615509a589a34f7cb9fb075f,TCR,2024-06-21_13h47.01.756,LearnStrategy,2023.2.3,Win32,59.88023952,4,2,9,,,,,,,,3,11,,,,,,,,,,,7,1.046,0,,,,,,0.125,-0.410185213,1,0,0,1.0462,Peridotite_rect,8,0,8,0,1,
615509a589a34f7cb9fb075f,TCR,2024-06-21_13h47.01.756,LearnStrategy,2023.2.3,Win32,59.88023952,4,2,10,,,,,,,,8,13,,,,,,,,,,,8,1.154,1,,,,,,0.334259316,-0.406481496,1,0,0,1.1537,Pumice_rect,9,0,9,0,1,
615509a589a34f7cb9fb075f,TCR,2024-06-21_13h47.01.756,LearnStrategy,2023.2.3,Win32,59.88023952,4,2,11,,,,,,,,1,06,,,,,,,,,,,3,3.949,0,,,,,,0.085185228,-0.242592635,1,0,0,3.9491,Diorite_rect,10,0,10,0,1,
615509a589a34f7cb9fb075f,TCR,2024-06-21_13h47.01.756,LearnStrategy,2023.2.3,Win32,59.88023952,4,2,12,,,,,,,,6,13,,,,,,,,,,,6,1.039,1,,,,,,-0.187037009,-0.413888931,1,0,0,1.0388,Pegmatite_rect,11,0,11,0,1,
615509a589a34f7cb9fb075f,TCR,2024-06-21_13h47.01.756,LearnStrategy,2023.2.3,Win32,59.88023952,4,2,13,,,,,,,,2,04,,,,,,,,,,,2,2.936,1,,,,,,-0.158333319,-0.250925912,1,0,0,2.9362,Basalt_rect,12,0,12,0,1,
615509a589a34f7cb9fb075f,TCR,2024-06-21_13h47.01.756,LearnStrategy,2023.2.3,Win32,59.88023952,4,2,14,,,,,,,,4,13,,,,,,,,,,,4,5.346,1,,,,,,0.460185157,-0.249074088,1,0,0,5.3462,Gabbro_rect,13,0,13,0,1,
615509a589a34f7cb9fb075f,TCR,2024-06-21_13h47.01.756,LearnStrategy,2023.2.3,Win32,59.88023952,4,2,15,,,,,,,,2,08,,,,,,,,,,,2,1.362,1,,,,,,-0.079629616,-0.259259259,1,0,0,1.3621,Basalt_rect,14,0,14,0,1,
615509a589a34f7cb9fb075f,TCR,2024-06-21_13h47.01.756,LearnStrategy,2023.2.3,Win32,59.88023952,4,2,16,,,,,,,,4,14,,,,,,,,,,,2,1.329,0,,,,,,-0.083333333,-0.244444459,1,0,0,1.3293,Basalt_rect,15,0,15,0,1,
615509a589a34f7cb9fb075f,TCR,2024-06-21_13h47.01.756,LearnStrategy,2023.2.3,Win32,59.88023952,5,1,1,-0.059259273,-0.015740748,1,0,0,0.9028,rock_grid_rect_2,3,09,-1,-1,0.903,-0.375,-0.264814801,1,0,0,1.1405,Andesite_rect,1,1.141,0,0,0,0,0,1,,,,,,,,,,,,,
615509a589a34f7cb9fb075f,TCR,2024-06-21_13h47.01.756,LearnStrategy,2023.2.3,Win32,59.88023952,5,1,2,0.005555541,-0.01666666,1,0,0,1.5924,rock_grid_rect_2,4,12,-1,-1,1.592,-0.12037037,-0.265740783,1,0,0,1.9604,Basalt_rect,2,1.96,0,1,0,1,0,1,,,,,,,,,,,,,
615509a589a34f7cb9fb075f,TCR,2024-06-21_13h47.01.756,LearnStrategy,2023.2.3,Win32,59.88023952,5,1,3,0.009259259,-0.011111118,1,0,0,1.031,rock_grid_rect_2,3,09,-1,-1,1.031,0.130555541,-0.402777778,1,0,0,1.3068,Peridotite_rect,7,1.307,0,2,0,2,0,1,,,,,,,,,,,,,
615509a589a34f7cb9fb075f,TCR,2024-06-21_13h47.01.756,LearnStrategy,2023.2.3,Win32,59.88023952,5,1,4,0.05740745,0.001851859,1,0,0,1.2317,rock_grid_rect_2,3,02,-1,-1,1.232,-0.314814815,-0.229629658,1,0,0,1.1656,Andesite_rect,1,1.166,0,3,0,3,0,1,,,,,,,,,,,,,
615509a589a34f7cb9fb075f,TCR,2024-06-21_13h47.01.756,LearnStrategy,2023.2.3,Win32,59.88023952,5,1,5,0.07222225,0.01666666,1,0,0,1.1419,rock_grid_rect_2,1,07,-1,-1,1.142,-0.363888882,-0.252777806,1,0,0,1.3523,Andesite_rect,1,1.352,1,4,0,4,0,1,,,,,,,,,,,,,
615509a589a34f7cb9fb075f,TCR,2024-06-21_13h47.01.756,LearnStrategy,2023.2.3,Win32,59.88023952,5,1,6,0.043518561,0.00462963,1,0,0,1.0974,rock_grid_rect_2,2,09,-1,-1,1.097,-0.117592564,-0.250925912,1,0,0,1.252,Basalt_rect,2,1.252,1,5,0,5,0,1,,,,,,,,,,,,,
615509a589a34f7cb9fb075f,TCR,2024-06-21_13h47.01.756,LearnStrategy,2023.2.3,Win32,59.88023952,5,1,7,-0.038888861,-0.012962977,1,0,0,1.0641,rock_grid_rect_2,5,11,-1,-1,1.064,-0.349074081,-0.382407436,1,0,0,1.3001,Obsidian_rect,5,1.3,1,6,0,6,0,1,,,,,,,,,,,,,
615509a589a34f7cb9fb075f,TCR,2024-06-21_13h47.01.756,LearnStrategy,2023.2.3,Win32,59.88023952,5,1,8,-0.015740712,-0.003703718,1,0,0,0.9016,rock_grid_rect_2,4,12,-1,-1,0.902,0.378703788,-0.235185199,1,0,0,2.1088,Gabbro_rect,4,2.109,1,7,0,7,0,1,,,,,,,,,,,,,
615509a589a34f7cb9fb075f,TCR,2024-06-21_13h47.01.756,LearnStrategy,2023.2.3,Win32,59.88023952,5,1,9,-0.012962977,-0.023148148,1,0,0,1.0401,rock_grid_rect_2,7,16,-1,-1,1.04,0.126851894,-0.267592607,1,0,0,3.2618,Diorite_rect,3,3.262,0,8,0,8,0,1,,,,,,,,,,,,,
615509a589a34f7cb9fb075f,TCR,2024-06-21_13h47.01.756,LearnStrategy,2023.2.3,Win32,59.88023952,5,1,10,0.027777778,-0.012962977,1,0,0,0.9971,rock_grid_rect_2,1,05,-1,-1,0.997,-0.41111109,-0.255555541,1,0,0,1.9656,Andesite_rect,1,1.966,1,9,0,9,0,1,,,,,,,,,,,,,
615509a589a34f7cb9fb075f,TCR,2024-06-21_13h47.01.756,LearnStrategy,2023.2.3,Win32,59.88023952,5,1,11,0.000925912,-0.010185206,1,0,0,1.1654,rock_grid_rect_2,4,15,-1,-1,1.165,0.119444459,-0.229629658,1,0,0,2.3962,Diorite_rect,3,2.396,0,10,0,10,0,1,,,,,,,,,,,,,
615509a589a34f7cb9fb075f,TCR,2024-06-21_13h47.01.756,LearnStrategy,2023.2.3,Win32,59.88023952,5,1,12,0.039814843,0.000925912,1,0,0,0.7298,rock_grid_rect_2,3,12,-1,-1,0.73,0.07685188,-0.412037037,1,0,0,2.1559,Peridotite_rect,7,2.156,0,11,0,11,0,1,,,,,,,,,,,,,
615509a589a34f7cb9fb075f,TCR,2024-06-21_13h47.01.756,LearnStrategy,2023.2.3,Win32,59.88023952,5,1,13,0.091666681,0.0074074,1,0,0,0.931,rock_grid_rect_2,7,07,-1,-1,0.931,0.12037037,-0.381481524,1,0,0,1.1254,Peridotite_rect,7,1.125,1,12,0,12,0,1,,,,,,,,,,,,,
615509a589a34f7cb9fb075f,TCR,2024-06-21_13h47.01.756,LearnStrategy,2023.2.3,Win32,59.88023952,5,1,14,0.006481524,-0.001851859,1,0,0,1.1751,rock_grid_rect_2,6,03,-1,-1,1.175,-0.12962963,-0.410185213,1,0,0,2.5686,Pegmatite_rect,6,2.569,1,13,0,13,0,1,,,,,,,,,,,,,
615509a589a34f7cb9fb075f,TCR,2024-06-21_13h47.01.756,LearnStrategy,2023.2.3,Win32,59.88023952,5,1,15,0.009259259,0.000925912,1,0,0,1.0254,rock_grid_rect_2,7,07,-1,-1,1.025,0.087962963,-0.401851866,1,0,0,2.4546,Peridotite_rect,7,2.455,1,14,0,14,0,1,,,,,,,,,,,,,
615509a589a34f7cb9fb075f,TCR,2024-06-21_13h47.01.756,LearnStrategy,2023.2.3,Win32,59.88023952,5,1,16,0.030555584,-0.015740748,1,0,0,1.1809,rock_grid_rect_2,1,11,-1,-1,1.181,-0.14444443,-0.234259288,1,0,0,1.0112,Basalt_rect,2,1.011,0,15,0,15,0,1,,,,,,,,,,,,,
615509a589a34f7cb9fb075f,TCR,2024-06-21_13h47.01.756,LearnStrategy,2023.2.3,Win32,59.88023952,5,2,1,,,,,,,,8,08,,,,,,,,,,,8,1.068,1,,,,,,0.367592564,-0.387037065,1,0,0,1.0676,Pumice_rect,0,0,0,0,1,
615509a589a34f7cb9fb075f,TCR,2024-06-21_13h47.01.756,LearnStrategy,2023.2.3,Win32,59.88023952,5,2,2,,,,,,,,3,10,,,,,,,,,,,7,4.908,0,,,,,,0.087037051,-0.417592578,1,0,0,4.9084,Peridotite_rect,1,0,1,0,1,
615509a589a34f7cb9fb075f,TCR,2024-06-21_13h47.01.756,LearnStrategy,2023.2.3,Win32,59.88023952,5,2,3,,,,,,,,5,06,,,,,,,,,,,5,2.197,1,,,,,,-0.41111109,-0.40370369,1,0,0,2.1972,Obsidian_rect,2,0,2,0,1,
615509a589a34f7cb9fb075f,TCR,2024-06-21_13h47.01.756,LearnStrategy,2023.2.3,Win32,59.88023952,5,2,4,,,,,,,,6,08,,,,,,,,,,,6,1.124,1,,,,,,-0.150925884,-0.413888931,1,0,0,1.1239,Pegmatite_rect,3,0,3,0,1,
615509a589a34f7cb9fb075f,TCR,2024-06-21_13h47.01.756,LearnStrategy,2023.2.3,Win32,59.88023952,5,2,5,,,,,,,,1,04,,,,,,,,,,,1,1.487,1,,,,,,-0.381481489,-0.256481524,1,0,0,1.4872,Andesite_rect,4,0,4,0,1,
615509a589a34f7cb9fb075f,TCR,2024-06-21_13h47.01.756,LearnStrategy,2023.2.3,Win32,59.88023952,5,2,6,,,,,,,,7,10,,,,,,,,,,,7,1.316,1,,,,,,0.085185228,-0.401851866,1,0,0,1.3162,Peridotite_rect,5,0,5,0,1,
615509a589a34f7cb9fb075f,TCR,2024-06-21_13h47.01.756,LearnStrategy,2023.2.3,Win32,59.88023952,5,2,7,,,,,,,,5,10,,,,,,,,,,,5,1.844,1,,,,,,-0.398148148,-0.39444443,1,0,0,1.844,Obsidian_rect,6,0,6,0,1,
615509a589a34f7cb9fb075f,TCR,2024-06-21_13h47.01.756,LearnStrategy,2023.2.3,Win32,59.88023952,5,2,8,,,,,,,,4,08,,,,,,,,,,,4,1.844,1,,,,,,0.412037037,-0.261111153,1,0,0,1.8435,Gabbro_rect,7,0,7,0,1,
615509a589a34f7cb9fb075f,TCR,2024-06-21_13h47.01.756,LearnStrategy,2023.2.3,Win32,59.88023952,5,2,9,,,,,,,,2,12,,,,,,,,,,,2,1.493,1,,,,,,-0.099074046,-0.234259288,1,0,0,1.4929,Basalt_rect,8,0,8,0,1,
615509a589a34f7cb9fb075f,TCR,2024-06-21_13h47.01.756,LearnStrategy,2023.2.3,Win32,59.88023952,5,2,10,,,,,,,,7,02,,,,,,,,,,,7,2.084,1,,,,,,0.112037023,-0.389814801,1,0,0,2.0835,Peridotite_rect,9,0,9,0,1,
615509a589a34f7cb9fb075f,TCR,2024-06-21_13h47.01.756,LearnStrategy,2023.2.3,Win32,59.88023952,5,2,11,,,,,,,,4,05,,,,,,,,,,,3,0.991,0,,,,,,0.107407393,-0.237963005,1,0,0,0.9906,Diorite_rect,10,0,10,0,1,
615509a589a34f7cb9fb075f,TCR,2024-06-21_13h47.01.756,LearnStrategy,2023.2.3,Win32,59.88023952,5,2,12,,,,,,,,1,10,,,,,,,,,,,2,1.238,0,,,,,,-0.115740741,-0.253703718,1,0,0,1.2378,Basalt_rect,11,0,11,0,1,
615509a589a34f7cb9fb075f,TCR,2024-06-21_13h47.01.756,LearnStrategy,2023.2.3,Win32,59.88023952,5,2,13,,,,,,,,3,15,,,,,,,,,,,7,2.184,0,,,,,,0.126851894,-0.410185213,1,0,0,2.1838,Peridotite_rect,12,0,12,0,1,
615509a589a34f7cb9fb075f,TCR,2024-06-21_13h47.01.756,LearnStrategy,2023.2.3,Win32,59.88023952,5,2,14,,,,,,,,2,16,,,,,,,,,,,2,2.001,1,,,,,,-0.133333347,-0.249074088,1,0,0,2.0013,Basalt_rect,13,0,13,0,1,
615509a589a34f7cb9fb075f,TCR,2024-06-21_13h47.01.756,LearnStrategy,2023.2.3,Win32,59.88023952,5,2,15,,,,,,,,6,12,,,,,,,,,,,6,1.281,1,,,,,,-0.101851852,-0.389814801,1,0,0,1.2814,Pegmatite_rect,14,0,14,0,1,
615509a589a34f7cb9fb075f,TCR,2024-06-21_13h47.01.756,LearnStrategy,2023.2.3,Win32,59.88023952,5,2,16,,,,,,,,8,02,,,,,,,,,,,8,1.131,1,,,,,,0.42314812,-0.408333319,1,0,0,1.1309,Pumice_rect,15,0,15,0,1,
615509a589a34f7cb9fb075f,TCR,2024-06-21_13h47.01.756,LearnStrategy,2023.2.3,Win32,59.88023952,6,1,1,0.045370384,-0.012962977,1,0,0,0.6253,rock_grid_rect_2,4,15,-1,-1,0.625,0.437037009,-0.236111111,1,0,0,2.9496,Gabbro_rect,4,2.95,1,0,0,0,0,1,,,,,,,,,,,,,
615509a589a34f7cb9fb075f,TCR,2024-06-21_13h47.01.756,LearnStrategy,2023.2.3,Win32,59.88023952,6,1,2,0.032407407,-0.010185206,1,0,0,0.8817,rock_grid_rect_2,3,14,-1,-1,0.882,-0.385185171,-0.24537037,1,0,0,1.8788,Andesite_rect,1,1.879,0,1,0,1,0,1,,,,,,,,,,,,,
615509a589a34f7cb9fb075f,TCR,2024-06-21_13h47.01.756,LearnStrategy,2023.2.3,Win32,59.88023952,6,1,3,0.029629672,-0.00462963,1,0,0,0.7977,rock_grid_rect_2,3,12,-1,-1,0.798,-0.429629608,-0.235185199,1,0,0,2.326,Andesite_rect,1,2.326,0,2,0,2,0,1,,,,,,,,,,,,,
615509a589a34f7cb9fb075f,TCR,2024-06-21_13h47.01.756,LearnStrategy,2023.2.3,Win32,59.88023952,6,1,4,-0.008333347,-0.015740748,1,0,0,0.8347,rock_grid_rect_2,3,02,-1,-1,0.835,-0.354629623,-0.270370413,1,0,0,2.6922,Andesite_rect,1,2.692,0,3,0,3,0,1,,,,,,,,,,,,,
615509a589a34f7cb9fb075f,TCR,2024-06-21_13h47.01.756,LearnStrategy,2023.2.3,Win32,59.88023952,6,1,5,0.077777792,0.009259259,1,0,0,0.7814,rock_grid_rect_2,3,12,-1,-1,0.781,0.136111153,-0.26944443,1,0,0,0.9179,Diorite_rect,3,0.918,1,4,0,4,0,1,,,,,,,,,,,,,
615509a589a34f7cb9fb075f,TCR,2024-06-21_13h47.01.756,LearnStrategy,2023.2.3,Win32,59.88023952,6,1,6,0.025925954,-0.000925947,1,0,0,0.8422,rock_grid_rect_2,4,01,-1,-1,0.842,0.151851866,-0.247222265,1,0,0,1.2489,Diorite_rect,3,1.249,0,5,0,5,0,1,,,,,,,,,,,,,
615509a589a34f7cb9fb075f,TCR,2024-06-21_13h47.01.756,LearnStrategy,2023.2.3,Win32,59.88023952,6,1,7,0.002777806,0.013888889,1,0,0,0.6646,rock_grid_rect_2,1,05,-1,-1,0.665,-0.376851859,-0.250925912,1,0,0,1.7087,Andesite_rect,1,1.709,1,6,0,6,0,1,,,,,,,,,,,,,
615509a589a34f7cb9fb075f,TCR,2024-06-21_13h47.01.756,LearnStrategy,2023.2.3,Win32,59.88023952,6,1,8,0.017592607,-0.013888889,1,0,0,1.035,rock_grid_rect_2,6,10,-1,-1,1.035,-0.135185171,-0.408333319,1,0,0,1.6798,Pegmatite_rect,6,1.68,1,7,0,7,0,1,,,,,,,,,,,,,
615509a589a34f7cb9fb075f,TCR,2024-06-21_13h47.01.756,LearnStrategy,2023.2.3,Win32,59.88023952,6,1,9,-0.00462963,-0.015740748,1,0,0,1.5853,rock_grid_rect_2,2,02,-1,-1,1.585,-0.113888847,-0.257407436,1,0,0,1.2678,Basalt_rect,2,1.268,1,8,0,8,0,1,,,,,,,,,,,,,
615509a589a34f7cb9fb075f,TCR,2024-06-21_13h47.01.756,LearnStrategy,2023.2.3,Win32,59.88023952,6,1,10,0.054629644,-0.003703718,1,0,0,0.5883,rock_grid_rect_2,1,14,-1,-1,0.588,-0.349999993,-0.259259259,1,0,0,3.4161,Andesite_rect,1,3.416,1,9,0,9,0,1,,,,,,,,,,,,,
615509a589a34f7cb9fb075f,TCR,2024-06-21_13h47.01.756,LearnStrategy,2023.2.3,Win32,59.88023952,6,1,11,0.063888903,-0.012962977,1,0,0,1.4138,rock_grid_rect_2,7,14,-1,-1,1.414,0.386111083,-0.264814801,1,0,0,3.8111,Gabbro_rect,4,3.811,0,10,0,10,0,1,,,,,,,,,,,,,
615509a589a34f7cb9fb075f,TCR,2024-06-21_13h47.01.756,LearnStrategy,2023.2.3,Win32,59.88023952,6,1,12,0.066666709,-0.001851859,1,0,0,0.7347,rock_grid_rect_2,4,01,-1,-1,0.735,0.091666681,-0.260185171,1,0,0,2.8766,Diorite_rect,3,2.877,0,11,0,11,0,1,,,,,,,,,,,,,
615509a589a34f7cb9fb075f,TCR,2024-06-21_13h47.01.756,LearnStrategy,2023.2.3,Win32,59.88023952,6,1,13,0.039814843,0.014814801,1,0,0,0.9679,rock_grid_rect_2,7,06,-1,-1,0.968,-0.12037037,-0.388888889,1,0,0,1.3838,Pegmatite_rect,6,1.384,0,12,0,12,0,1,,,,,,,,,,,,,
615509a589a34f7cb9fb075f,TCR,2024-06-21_13h47.01.756,LearnStrategy,2023.2.3,Win32,59.88023952,6,1,14,0.068518533,0.002777771,1,0,0,0.9143,rock_grid_rect_2,3,06,-1,-1,0.914,0.109259288,-0.232407393,1,0,0,2.4484,Diorite_rect,3,2.448,1,13,0,13,0,1,,,,,,,,,,,,,
615509a589a34f7cb9fb075f,TCR,2024-06-21_13h47.01.756,LearnStrategy,2023.2.3,Win32,59.88023952,6,1,15,0.022222236,-0.010185206,1,0,0,1.548,rock_grid_rect_2,1,05,-1,-1,1.548,-0.381481489,-0.237963005,1,0,0,1.3418,Andesite_rect,1,1.342,1,14,0,14,0,1,,,,,,,,,,,,,
615509a589a34f7cb9fb075f,TCR,2024-06-21_13h47.01.756,LearnStrategy,2023.2.3,Win32,59.88023952,6,1,16,0.038888931,0.015740748,1,0,0,0.9154,rock_grid_rect_2,7,14,-1,-1,0.915,0.142592607,-0.261111153,1,0,0,2.6823,Diorite_rect,3,2.682,0,15,0,15,0,1,,,,,,,,,,,,,
615509a589a34f7cb9fb075f,TCR,2024-06-21_13h47.01.756,LearnStrategy,2023.2.3,Win32,59.88023952,6,2,1,,,,,,,,1,16,,,,,,,,,,,6,2.031,0,,,,,,-0.148148148,-0.417592578,1,0,0,2.031,Pegmatite_rect,0,0,0,0,1,
615509a589a34f7cb9fb075f,TCR,2024-06-21_13h47.01.756,LearnStrategy,2023.2.3,Win32,59.88023952,6,2,2,,,,,,,,4,03,,,,,,,,,,,4,2.274,1,,,,,,0.346296381,-0.270370413,1,0,0,2.2744,Gabbro_rect,1,0,1,0,1,
615509a589a34f7cb9fb075f,TCR,2024-06-21_13h47.01.756,LearnStrategy,2023.2.3,Win32,59.88023952,6,2,3,,,,,,,,5,08,,,,,,,,,,,5,1.235,1,,,,,,-0.41111109,-0.415740755,1,0,0,1.2347,Obsidian_rect,2,0,2,0,1,
615509a589a34f7cb9fb075f,TCR,2024-06-21_13h47.01.756,LearnStrategy,2023.2.3,Win32,59.88023952,6,2,4,,,,,,,,3,08,,,,,,,,,,,3,5.395,1,,,,,,0.126851894,-0.237037023,1,0,0,5.3946,Diorite_rect,3,0,3,0,1,
615509a589a34f7cb9fb075f,TCR,2024-06-21_13h47.01.756,LearnStrategy,2023.2.3,Win32,59.88023952,6,2,5,,,,,,,,7,12,,,,,,,,,,,7,1.694,1,,,,,,0.135185171,-0.406481496,1,0,0,1.6938,Peridotite_rect,4,0,4,0,1,
615509a589a34f7cb9fb075f,TCR,2024-06-21_13h47.01.756,LearnStrategy,2023.2.3,Win32,59.88023952,6,2,6,,,,,,,,4,09,,,,,,,,,,,2,1.687,0,,,,,,-0.109259217,-0.259259259,1,0,0,1.6865,Basalt_rect,5,0,5,0,1,
615509a589a34f7cb9fb075f,TCR,2024-06-21_13h47.01.756,LearnStrategy,2023.2.3,Win32,59.88023952,6,2,7,,,,,,,,8,03,,,,,,,,,,,8,1.084,1,,,,,,0.434259344,-0.393518519,1,0,0,1.0844,Pumice_rect,6,0,6,0,1,
615509a589a34f7cb9fb075f,TCR,2024-06-21_13h47.01.756,LearnStrategy,2023.2.3,Win32,59.88023952,6,2,8,,,,,,,,6,09,,,,,,,,,,,6,1.216,1,,,,,,-0.080555527,-0.389814801,1,0,0,1.2159,Pegmatite_rect,7,0,7,0,1,
615509a589a34f7cb9fb075f,TCR,2024-06-21_13h47.01.756,LearnStrategy,2023.2.3,Win32,59.88023952,6,2,9,,,,,,,,6,15,,,,,,,,,,,6,1.461,1,,,,,,-0.114814829,-0.378703718,1,0,0,1.4607,Pegmatite_rect,8,0,8,0,1,
615509a589a34f7cb9fb075f,TCR,2024-06-21_13h47.01.756,LearnStrategy,2023.2.3,Win32,59.88023952,6,2,10,,,,,,,,2,06,,,,,,,,,,,2,1.739,1,,,,,,-0.159259231,-0.228703746,1,0,0,1.7389,Basalt_rect,9,0,9,0,1,
615509a589a34f7cb9fb075f,TCR,2024-06-21_13h47.01.756,LearnStrategy,2023.2.3,Win32,59.88023952,6,2,11,,,,,,,,2,05,,,,,,,,,,,2,0.934,1,,,,,,-0.12962963,-0.236111111,1,0,0,0.9345,Basalt_rect,10,0,10,0,1,
615509a589a34f7cb9fb075f,TCR,2024-06-21_13h47.01.756,LearnStrategy,2023.2.3,Win32,59.88023952,6,2,12,,,,,,,,3,16,,,,,,,,,,,7,2.511,0,,,,,,0.10555557,-0.381481524,1,0,0,2.5112,Peridotite_rect,11,0,11,0,1,
615509a589a34f7cb9fb075f,TCR,2024-06-21_13h47.01.756,LearnStrategy,2023.2.3,Win32,59.88023952,6,2,13,,,,,,,,8,06,,,,,,,,,,,8,1.336,1,,,,,,0.353703675,-0.40370369,1,0,0,1.3359,Pumice_rect,12,0,12,0,1,
615509a589a34f7cb9fb075f,TCR,2024-06-21_13h47.01.756,LearnStrategy,2023.2.3,Win32,59.88023952,6,2,14,,,,,,,,7,05,,,,,,,,,,,4,3.948,0,,,,,,0.394444501,-0.244444459,1,0,0,3.9476,Gabbro_rect,13,0,13,0,1,
615509a589a34f7cb9fb075f,TCR,2024-06-21_13h47.01.756,LearnStrategy,2023.2.3,Win32,59.88023952,6,2,15,,,,,,,,1,09,,,,,,,,,,,1,2.143,1,,,,,,-0.426851838,-0.257407436,1,0,0,2.1428,Andesite_rect,14,0,14,0,1,
615509a589a34f7cb9fb075f,TCR,2024-06-21_13h47.01.756,LearnStrategy,2023.2.3,Win32,59.88023952,6,2,16,,,,,,,,5,07,,,,,,,,,,,5,1.275,1,,,,,,-0.422222208,-0.415740755,1,0,0,1.275,Obsidian_rect,15,0,15,0,1,
615509a589a34f7cb9fb075f,TCR,2024-06-21_13h47.01.756,LearnStrategy,2023.2.3,Win32,59.88023952,7,1,1,0.056481467,0,1,0,0,0.6417,rock_grid_rect_2,4,11,-1,-1,0.642,0.369444529,-0.232407393,1,0,0,2.3227,Gabbro_rect,4,2.323,1,0,0,0,0,1,,,,,,,,,,,,,
615509a589a34f7cb9fb075f,TCR,2024-06-21_13h47.01.756,LearnStrategy,2023.2.3,Win32,59.88023952,7,1,2,0.05740745,-0.008333347,1,0,0,0.9012,rock_grid_rect_2,3,14,-1,-1,0.901,0.122222265,-0.239814829,1,0,0,4.3039,Diorite_rect,3,4.304,1,1,0,1,0,1,,,,,,,,,,,,,
615509a589a34f7cb9fb075f,TCR,2024-06-21_13h47.01.756,LearnStrategy,2023.2.3,Win32,59.88023952,7,1,3,0.10555557,-0.012962977,1,0,0,1.1017,rock_grid_rect_2,4,10,-1,-1,1.102,0.373148176,-0.255555541,1,0,0,1.606,Gabbro_rect,4,1.606,1,2,0,2,0,1,,,,,,,,,,,,,
615509a589a34f7cb9fb075f,TCR,2024-06-21_13h47.01.756,LearnStrategy,2023.2.3,Win32,59.88023952,7,1,4,0.049074102,0.003703683,1,0,0,0.9319,rock_grid_rect_2,7,14,-1,-1,0.932,0.087037051,-0.400000042,1,0,0,2.5824,Peridotite_rect,7,2.582,1,3,0,3,0,1,,,,,,,,,,,,,
615509a589a34f7cb9fb075f,TCR,2024-06-21_13h47.01.756,LearnStrategy,2023.2.3,Win32,59.88023952,7,1,5,0.058333362,0.010185171,1,0,0,1.8078,rock_grid_rect_2,4,01,-1,-1,1.808,0.125,-0.236111111,1,0,0,3.1252,Diorite_rect,3,3.125,0,4,0,4,0,1,,,,,,,,,,,,,
615509a589a34f7cb9fb075f,TCR,2024-06-21_13h47.01.756,LearnStrategy,2023.2.3,Win32,59.88023952,7,1,6,0.115740741,0.006481489,1,0,0,1.118,rock_grid_rect_2,7,13,-1,-1,1.118,-0.124074088,-0.396296325,1,0,0,1.5424,Pegmatite_rect,6,1.542,0,5,0,5,0,1,,,,,,,,,,,,,
615509a589a34f7cb9fb075f,TCR,2024-06-21_13h47.01.756,LearnStrategy,2023.2.3,Win32,59.88023952,7,1,7,0.025925954,-0.01666666,1,0,0,1.2685,rock_grid_rect_2,6,05,-1,-1,1.268,-0.109259217,-0.386111153,1,0,0,1.1776,Pegmatite_rect,6,1.178,1,6,0,6,0,1,,,,,,,,,,,,,
615509a589a34f7cb9fb075f,TCR,2024-06-21_13h47.01.756,LearnStrategy,2023.2.3,Win32,59.88023952,7,1,8,0.050000014,-0.014814836,1,0,0,1.0916,rock_grid_rect_2,2,02,-1,-1,1.092,-0.122222194,-0.255555541,1,0,0,1.7689,Basalt_rect,2,1.769,1,7,0,7,0,1,,,,,,,,,,,,,
615509a589a34f7cb9fb075f,TCR,2024-06-21_13h47.01.756,LearnStrategy,2023.2.3,Win32,59.88023952,7,1,9,0.068518533,0.01203703,1,0,0,0.7422,rock_grid_rect_2,7,06,-1,-1,0.742,-0.154629601,-0.409259302,1,0,0,1.2381,Pegmatite_rect,6,1.238,0,8,0,8,0,1,,,,,,,,,,,,,
615509a589a34f7cb9fb075f,TCR,2024-06-21_13h47.01.756,LearnStrategy,2023.2.3,Win32,59.88023952,7,1,10,-0.011111083,-0.018518519,1,0,0,1.0188,rock_grid_rect_2,1,11,-1,-1,1.019,-0.419444437,-0.237963005,1,0,0,1.7121,Andesite_rect,1,1.712,1,9,0,9,0,1,,,,,,,,,,,,,
615509a589a34f7cb9fb075f,TCR,2024-06-21_13h47.01.756,LearnStrategy,2023.2.3,Win32,59.88023952,7,1,11,-0.029629601,-0.002777771,1,0,0,0.708,rock_grid_rect_2,3,09,-1,-1,0.708,0.127777806,-0.39444443,1,0,0,2.1687,Peridotite_rect,7,2.169,0,10,0,10,0,1,,,,,,,,,,,,,
615509a589a34f7cb9fb075f,TCR,2024-06-21_13h47.01.756,LearnStrategy,2023.2.3,Win32,59.88023952,7,1,12,0.077777792,0.00462963,1,0,0,0.7977,rock_grid_rect_2,1,07,-1,-1,0.798,-0.381481489,-0.24537037,1,0,0,1.0498,Andesite_rect,1,1.05,1,11,0,11,0,1,,,,,,,,,,,,,
615509a589a34f7cb9fb075f,TCR,2024-06-21_13h47.01.756,LearnStrategy,2023.2.3,Win32,59.88023952,7,1,13,0.038888931,0.003703683,1,0,0,0.8485,rock_grid_rect_2,3,07,-1,-1,0.849,0.07685188,-0.234259288,1,0,0,1.1736,Diorite_rect,3,1.174,1,12,0,12,0,1,,,,,,,,,,,,,
615509a589a34f7cb9fb075f,TCR,2024-06-21_13h47.01.756,LearnStrategy,2023.2.3,Win32,59.88023952,7,1,14,0.010185171,0.018518519,1,0,0,0.5848,rock_grid_rect_2,3,09,-1,-1,0.585,0.12037037,-0.406481496,1,0,0,1.3029,Peridotite_rect,7,1.303,0,13,0,13,0,1,,,,,,,,,,,,,
615509a589a34f7cb9fb075f,TCR,2024-06-21_13h47.01.756,LearnStrategy,2023.2.3,Win32,59.88023952,7,1,15,0.016666695,-0.000925947,1,0,0,1.4491,rock_grid_rect_2,1,03,-1,-1,1.449,-0.112962935,-0.234259288,1,0,0,1.0095,Basalt_rect,2,1.009,0,14,0,14,0,1,,,,,,,,,,,,,
615509a589a34f7cb9fb075f,TCR,2024-06-21_13h47.01.756,LearnStrategy,2023.2.3,Win32,59.88023952,7,1,16,-0.037037037,0.010185171,1,0,0,1.2093,rock_grid_rect_2,5,02,-1,-1,1.209,-0.348148134,-0.391666695,1,0,0,1.1182,Obsidian_rect,5,1.118,1,15,0,15,0,1,,,,,,,,,,,,,
615509a589a34f7cb9fb075f,TCR,2024-06-21_13h47.01.756,LearnStrategy,2023.2.3,Win32,59.88023952,7,2,1,,,,,,,,2,04,,,,,,,,,,,2,2.359,1,,,,,,-0.127777735,-0.229629658,1,0,0,2.3594,Basalt_rect,0,0,0,0,1,
615509a589a34f7cb9fb075f,TCR,2024-06-21_13h47.01.756,LearnStrategy,2023.2.3,Win32,59.88023952,7,2,2,,,,,,,,8,03,,,,,,,,,,,8,1.117,1,,,,,,0.330555527,-0.39444443,1,0,0,1.117,Pumice_rect,1,0,1,0,1,
615509a589a34f7cb9fb075f,TCR,2024-06-21_13h47.01.756,LearnStrategy,2023.2.3,Win32,59.88023952,7,2,3,,,,,,,,2,08,,,,,,,,,,,2,1.129,1,,,,,,-0.109259217,-0.257407436,1,0,0,1.1289,Basalt_rect,2,0,2,0,1,
615509a589a34f7cb9fb075f,TCR,2024-06-21_13h47.01.756,LearnStrategy,2023.2.3,Win32,59.88023952,7,2,4,,,,,,,,6,16,,,,,,,,,,,6,1.075,1,,,,,,-0.132407365,-0.395370413,1,0,0,1.0753,Pegmatite_rect,3,0,3,0,1,
615509a589a34f7cb9fb075f,TCR,2024-06-21_13h47.01.756,LearnStrategy,2023.2.3,Win32,59.88023952,7,2,5,,,,,,,,5,07,,,,,,,,,,,5,1.061,1,,,,,,-0.364814794,-0.390740783,1,0,0,1.0606,Obsidian_rect,4,0,4,0,1,
615509a589a34f7cb9fb075f,TCR,2024-06-21_13h47.01.756,LearnStrategy,2023.2.3,Win32,59.88023952,7,2,6,,,,,,,,4,14,,,,,,,,,,,4,3.223,1,,,,,,0.45185188,-0.25,1,0,0,3.2231,Gabbro_rect,5,0,5,0,1,
615509a589a34f7cb9fb075f,TCR,2024-06-21_13h47.01.756,LearnStrategy,2023.2.3,Win32,59.88023952,7,2,7,,,,,,,,4,13,,,,,,,,,,,4,1.577,1,,,,,,0.437962991,-0.252777806,1,0,0,1.5768,Gabbro_rect,6,0,6,0,1,
615509a589a34f7cb9fb075f,TCR,2024-06-21_13h47.01.756,LearnStrategy,2023.2.3,Win32,59.88023952,7,2,8,,,,,,,,3,15,,,,,,,,,,,3,3.058,1,,,,,,0.126851894,-0.261111153,1,0,0,3.0582,Diorite_rect,7,0,7,0,1,
615509a589a34f7cb9fb075f,TCR,2024-06-21_13h47.01.756,LearnStrategy,2023.2.3,Win32,59.88023952,7,2,9,,,,,,,,1,02,,,,,,,,,,,6,4.236,0,,,,,,-0.099999958,-0.385185171,1,0,0,4.2356,Pegmatite_rect,8,0,8,0,1,
615509a589a34f7cb9fb075f,TCR,2024-06-21_13h47.01.756,LearnStrategy,2023.2.3,Win32,59.88023952,7,2,10,,,,,,,,7,02,,,,,,,,,,,7,1.9,1,,,,,,0.174074102,-0.397222236,1,0,0,1.9005,Peridotite_rect,9,0,9,0,1,
615509a589a34f7cb9fb075f,TCR,2024-06-21_13h47.01.756,LearnStrategy,2023.2.3,Win32,59.88023952,7,2,11,,,,,,,,3,10,,,,,,,,,,,3,1.047,1,,,,,,0.132407436,-0.248148176,1,0,0,1.0466,Diorite_rect,10,0,10,0,1,
615509a589a34f7cb9fb075f,TCR,2024-06-21_13h47.01.756,LearnStrategy,2023.2.3,Win32,59.88023952,7,2,12,,,,,,,,8,02,,,,,,,,,,,8,1.484,1,,,,,,0.362962935,-0.380555541,1,0,0,1.4844,Pumice_rect,11,0,11,0,1,
615509a589a34f7cb9fb075f,TCR,2024-06-21_13h47.01.756,LearnStrategy,2023.2.3,Win32,59.88023952,7,2,13,,,,,,,,1,04,,,,,,,,,,,1,1.245,1,,,,,,-0.36296297,-0.238888917,1,0,0,1.245,Andesite_rect,12,0,12,0,1,
615509a589a34f7cb9fb075f,TCR,2024-06-21_13h47.01.756,LearnStrategy,2023.2.3,Win32,59.88023952,7,2,14,,,,,,,,6,15,,,,,,,,,,,6,1.066,1,,,,,,-0.110185199,-0.407407407,1,0,0,1.0659,Pegmatite_rect,13,0,13,0,1,
615509a589a34f7cb9fb075f,TCR,2024-06-21_13h47.01.756,LearnStrategy,2023.2.3,Win32,59.88023952,7,2,15,,,,,,,,5,10,,,,,,,,,,,5,1.177,1,,,,,,-0.357407393,-0.409259302,1,0,0,1.1774,Obsidian_rect,14,0,14,0,1,
615509a589a34f7cb9fb075f,TCR,2024-06-21_13h47.01.756,LearnStrategy,2023.2.3,Win32,59.88023952,7,2,16,,,,,,,,7,05,,,,,,,,,,,4,2.067,0,,,,,,0.425925926,-0.228703746,1,0,0,2.0672,Gabbro_rect,15,0,15,0,1,
615509a589a34f7cb9fb075f,TCR,2024-06-21_13h47.01.756,LearnStrategy,2023.2.3,Win32,59.88023952,8,1,1,0.045370384,-0.001851859,1,0,0,0.9862,rock_grid_rect_2,7,07,-1,-1,0.986,0.094444487,-0.417592578,1,0,0,2.5758,Peridotite_rect,7,2.576,1,0,0,0,0,1,,,,,,,,,,,,,
615509a589a34f7cb9fb075f,TCR,2024-06-21_13h47.01.756,LearnStrategy,2023.2.3,Win32,59.88023952,8,1,2,0.001851894,-0.008333347,1,0,0,2.3348,rock_grid_rect_2,1,07,-1,-1,2.335,-0.455555563,-0.237963005,1,0,0,0.9568,Andesite_rect,1,0.957,1,1,0,1,0,1,,,,,,,,,,,,,
615509a589a34f7cb9fb075f,TCR,2024-06-21_13h47.01.756,LearnStrategy,2023.2.3,Win32,59.88023952,8,1,3,0.008333347,0.011111118,1,0,0,1.0247,rock_grid_rect_2,1,05,-1,-1,1.025,-0.360185164,-0.25,1,0,0,2.073,Andesite_rect,1,2.073,1,2,0,2,0,1,,,,,,,,,,,,,
615509a589a34f7cb9fb075f,TCR,2024-06-21_13h47.01.756,LearnStrategy,2023.2.3,Win32,59.88023952,8,1,4,0.05277782,0.006481489,1,0,0,0.8011,rock_grid_rect_2,4,12,-1,-1,0.801,-0.134259259,-0.238888917,1,0,0,1.1322,Basalt_rect,2,1.132,0,3,0,3,0,1,,,,,,,,,,,,,
615509a589a34f7cb9fb075f,TCR,2024-06-21_13h47.01.756,LearnStrategy,2023.2.3,Win32,59.88023952,8,1,5,0.032407407,-0.008333347,1,0,0,0.8471,rock_grid_rect_2,1,07,-1,-1,0.847,-0.371296282,-0.236111111,1,0,0,1.1388,Andesite_rect,1,1.139,1,4,0,4,0,1,,,,,,,,,,,,,
615509a589a34f7cb9fb075f,TCR,2024-06-21_13h47.01.756,LearnStrategy,2023.2.3,Win32,59.88023952,8,1,6,-0.006481453,0,1,0,0,0.8758,rock_grid_rect_2,7,15,-1,-1,0.876,0.124074088,-0.229629658,1,0,0,2.4081,Diorite_rect,3,2.408,0,5,0,5,0,1,,,,,,,,,,,,,
615509a589a34f7cb9fb075f,TCR,2024-06-21_13h47.01.756,LearnStrategy,2023.2.3,Win32,59.88023952,8,1,7,0.050000014,-0.009259259,1,0,0,0.942,rock_grid_rect_2,7,13,-1,-1,0.942,-0.103703675,-0.400925954,1,0,0,1.1176,Pegmatite_rect,6,1.118,0,6,0,6,0,1,,,,,,,,,,,,,
615509a589a34f7cb9fb075f,TCR,2024-06-21_13h47.01.756,LearnStrategy,2023.2.3,Win32,59.88023952,8,1,8,0.014814801,0.001851859,1,0,0,0.8817,rock_grid_rect_2,3,09,-1,-1,0.882,0.125925912,-0.251851894,1,0,0,2.0748,Diorite_rect,3,2.075,1,7,0,7,0,1,,,,,,,,,,,,,
615509a589a34f7cb9fb075f,TCR,2024-06-21_13h47.01.756,LearnStrategy,2023.2.3,Win32,59.88023952,8,1,9,-0.010185171,-0.013888889,1,0,0,1.1081,rock_grid_rect_2,4,15,-1,-1,1.108,0.332407492,-0.240740741,1,0,0,2.1513,Gabbro_rect,4,2.151,1,8,0,8,0,1,,,,,,,,,,,,,
615509a589a34f7cb9fb075f,TCR,2024-06-21_13h47.01.756,LearnStrategy,2023.2.3,Win32,59.88023952,8,1,10,0.093518504,-0.018518519,1,0,0,0.6808,rock_grid_rect_2,5,02,-1,-1,0.681,-0.343518504,-0.407407407,1,0,0,0.9955,Obsidian_rect,5,0.995,1,9,0,9,0,1,,,,,,,,,,,,,
615509a589a34f7cb9fb075f,TCR,2024-06-21_13h47.01.756,LearnStrategy,2023.2.3,Win32,59.88023952,8,1,11,0.056481467,-0.011111118,1,0,0,1.0145,rock_grid_rect_2,2,14,-1,-1,1.014,0.417592649,-0.248148176,1,0,0,2.0994,Gabbro_rect,4,2.099,0,10,0,10,0,1,,,,,,,,,,,,,
615509a589a34f7cb9fb075f,TCR,2024-06-21_13h47.01.756,LearnStrategy,2023.2.3,Win32,59.88023952,8,1,12,0.049074102,0.001851859,1,0,0,1.0849,rock_grid_rect_2,6,10,-1,-1,1.085,-0.146296254,-0.400925954,1,0,0,0.9139,Pegmatite_rect,6,0.914,1,11,0,11,0,1,,,,,,,,,,,,,
615509a589a34f7cb9fb075f,TCR,2024-06-21_13h47.01.756,LearnStrategy,2023.2.3,Win32,59.88023952,8,1,13,-0.001851824,-0.002777771,1,0,0,0.9252,rock_grid_rect_2,1,07,-1,-1,0.925,-0.416666667,-0.237037023,1,0,0,1.7028,Andesite_rect,1,1.703,1,12,0,12,0,1,,,,,,,,,,,,,
615509a589a34f7cb9fb075f,TCR,2024-06-21_13h47.01.756,LearnStrategy,2023.2.3,Win32,59.88023952,8,1,14,0.034259302,-0.0074074,1,0,0,0.9816,rock_grid_rect_2,8,14,-1,-1,0.982,0.381481453,-0.411111125,1,0,0,1.3795,Pumice_rect,8,1.38,1,13,0,13,0,1,,,,,,,,,,,,,
615509a589a34f7cb9fb075f,TCR,2024-06-21_13h47.01.756,LearnStrategy,2023.2.3,Win32,59.88023952,8,1,15,0.017592607,0.003703683,1,0,0,0.9853,rock_grid_rect_2,3,02,-1,-1,0.985,0.126851894,-0.263888889,1,0,0,2.7516,Diorite_rect,3,2.752,1,14,0,14,0,1,,,,,,,,,,,,,
615509a589a34f7cb9fb075f,TCR,2024-06-21_13h47.01.756,LearnStrategy,2023.2.3,Win32,59.88023952,8,1,16,0.05277782,-0.014814836,1,0,0,1.331,rock_grid_rect_2,3,06,-1,-1,1.331,0.12037037,-0.241666653,1,0,0,1.9673,Diorite_rect,3,1.967,1,15,0,15,0,1,,,,,,,,,,,,,
615509a589a34f7cb9fb075f,TCR,2024-06-21_13h47.01.756,LearnStrategy,2023.2.3,Win32,59.88023952,8,2,1,,,,,,,,4,09,,,,,,,,,,,2,6.586,0,,,,,,-0.145370342,-0.252777806,1,0,0,6.5862,Basalt_rect,0,0,0,0,1,
615509a589a34f7cb9fb075f,TCR,2024-06-21_13h47.01.756,LearnStrategy,2023.2.3,Win32,59.88023952,8,2,2,,,,,,,,5,04,,,,,,,,,,,5,1.004,1,,,,,,-0.360185164,-0.420370384,1,0,0,1.0039,Obsidian_rect,1,0,1,0,1,
615509a589a34f7cb9fb075f,TCR,2024-06-21_13h47.01.756,LearnStrategy,2023.2.3,Win32,59.88023952,8,2,3,,,,,,,,5,08,,,,,,,,,,,5,1.015,1,,,,,,-0.400000007,-0.404629672,1,0,0,1.0152,Obsidian_rect,2,0,2,0,1,
615509a589a34f7cb9fb075f,TCR,2024-06-21_13h47.01.756,LearnStrategy,2023.2.3,Win32,59.88023952,8,2,4,,,,,,,,2,16,,,,,,,,,,,2,1.113,1,,,,,,-0.162962949,-0.243518547,1,0,0,1.1132,Basalt_rect,3,0,3,0,1,
615509a589a34f7cb9fb075f,TCR,2024-06-21_13h47.01.756,LearnStrategy,2023.2.3,Win32,59.88023952,8,2,5,,,,,,,,7,08,,,,,,,,,,,4,4.834,0,,,,,,0.40833339,-0.246296282,1,0,0,4.8339,Gabbro_rect,4,0,4,0,1,
615509a589a34f7cb9fb075f,TCR,2024-06-21_13h47.01.756,LearnStrategy,2023.2.3,Win32,59.88023952,8,2,6,,,,,,,,8,06,,,,,,,,,,,8,1.218,1,,,,,,0.395370342,-0.393518519,1,0,0,1.2182,Pumice_rect,5,0,5,0,1,
615509a589a34f7cb9fb075f,TCR,2024-06-21_13h47.01.756,LearnStrategy,2023.2.3,Win32,59.88023952,8,2,7,,,,,,,,8,08,,,,,,,,,,,8,1.287,1,,,,,,0.399999972,-0.412037037,1,0,0,1.2865,Pumice_rect,6,0,6,0,1,
615509a589a34f7cb9fb075f,TCR,2024-06-21_13h47.01.756,LearnStrategy,2023.2.3,Win32,59.88023952,8,2,8,,,,,,,,7,04,,,,,,,,,,,6,2.23,0,,,,,,-0.12037037,-0.387037065,1,0,0,2.23,Pegmatite_rect,7,0,7,0,1,
615509a589a34f7cb9fb075f,TCR,2024-06-21_13h47.01.756,LearnStrategy,2023.2.3,Win32,59.88023952,8,2,9,,,,,,,,6,13,,,,,,,,,,,6,1.653,1,,,,,,-0.142592607,-0.412037037,1,0,0,1.6531,Pegmatite_rect,8,0,8,0,1,
615509a589a34f7cb9fb075f,TCR,2024-06-21_13h47.01.756,LearnStrategy,2023.2.3,Win32,59.88023952,8,2,10,,,,,,,,3,08,,,,,,,,,,,3,1.314,1,,,,,,0.163888931,-0.249074088,1,0,0,1.314,Diorite_rect,9,0,9,0,1,
615509a589a34f7cb9fb075f,TCR,2024-06-21_13h47.01.756,LearnStrategy,2023.2.3,Win32,59.88023952,8,2,11,,,,,,,,6,09,,,,,,,,,,,6,0.994,1,,,,,,-0.131481453,-0.392592607,1,0,0,0.9939,Pegmatite_rect,10,0,10,0,1,
615509a589a34f7cb9fb075f,TCR,2024-06-21_13h47.01.756,LearnStrategy,2023.2.3,Win32,59.88023952,8,2,12,,,,,,,,3,11,,,,,,,,,,,3,1.599,1,,,,,,0.121296282,-0.246296282,1,0,0,1.5988,Diorite_rect,11,0,11,0,1,
615509a589a34f7cb9fb075f,TCR,2024-06-21_13h47.01.756,LearnStrategy,2023.2.3,Win32,59.88023952,8,2,13,,,,,,,,1,06,,,,,,,,,,,1,1.977,1,,,,,,-0.386111118,-0.248148176,1,0,0,1.9769,Andesite_rect,12,0,12,0,1,
615509a589a34f7cb9fb075f,TCR,2024-06-21_13h47.01.756,LearnStrategy,2023.2.3,Win32,59.88023952,8,2,14,,,,,,,,4,05,,,,,,,,,,,4,1.465,1,,,,,,0.348148205,-0.250925912,1,0,0,1.4652,Gabbro_rect,13,0,13,0,1,
615509a589a34f7cb9fb075f,TCR,2024-06-21_13h47.01.756,LearnStrategy,2023.2.3,Win32,59.88023952,8,2,15,,,,,,,,1,10,,,,,,,,,,,4,3.151,0,,,,,,0.433333362,-0.247222265,1,0,0,3.1509,Gabbro_rect,14,0,14,0,1,
615509a589a34f7cb9fb075f,TCR,2024-06-21_13h47.01.756,LearnStrategy,2023.2.3,Win32,59.88023952,8,2,16,,,,,,,,2,12,,,,,,,,,,,2,1.121,1,,,,,,-0.112037023,-0.231481481,1,0,0,1.1214,Basalt_rect,15,0,15,0,1,
615509a589a34f7cb9fb075f,TCR,2024-06-21_13h47.01.756,LearnStrategy,2023.2.3,Win32,59.88023952,9,1,1,-0.014814801,0.001851859,1,0,0,0.332,rock_grid_rect_2,5,02,-1,-1,0.332,-0.402777778,-0.406481496,1,0,0,1.6188,Obsidian_rect,5,1.619,1,0,0,0,0,1,,,,,,,,,,,,,
615509a589a34f7cb9fb075f,TCR,2024-06-21_13h47.01.756,LearnStrategy,2023.2.3,Win32,59.88023952,9,1,2,-0.015740712,-0.005555577,1,0,0,1.1025,rock_grid_rect_2,7,07,-1,-1,1.102,0.147222236,-0.393518519,1,0,0,2.2962,Peridotite_rect,7,2.296,1,1,0,1,0,1,,,,,,,,,,,,,
615509a589a34f7cb9fb075f,TCR,2024-06-21_13h47.01.756,LearnStrategy,2023.2.3,Win32,59.88023952,9,1,3,0.01944443,-0.000925947,1,0,0,1.0094,rock_grid_rect_2,2,02,-1,-1,1.009,-0.125,-0.237037023,1,0,0,1.8579,Basalt_rect,2,1.858,1,2,0,2,0,1,,,,,,,,,,,,,
615509a589a34f7cb9fb075f,TCR,2024-06-21_13h47.01.756,LearnStrategy,2023.2.3,Win32,59.88023952,9,1,4,0.01944443,-0.006481489,1,0,0,0.7651,rock_grid_rect_2,3,14,-1,-1,0.765,0.123148176,-0.235185199,1,0,0,1.1345,Diorite_rect,3,1.135,1,3,0,3,0,1,,,,,,,,,,,,,
615509a589a34f7cb9fb075f,TCR,2024-06-21_13h47.01.756,LearnStrategy,2023.2.3,Win32,59.88023952,9,1,5,0.008333347,0.01203703,1,0,0,0.6918,rock_grid_rect_2,1,11,-1,-1,0.692,-0.408333319,-0.239814829,1,0,0,1.2402,Andesite_rect,1,1.24,1,4,0,4,0,1,,,,,,,,,,,,,
615509a589a34f7cb9fb075f,TCR,2024-06-21_13h47.01.756,LearnStrategy,2023.2.3,Win32,59.88023952,9,1,6,-0.022222236,-0.015740748,1,0,0,0.7318,rock_grid_rect_2,8,05,-1,-1,0.732,0.430555556,-0.404629672,1,0,0,1.3303,Pumice_rect,8,1.33,1,5,0,5,0,1,,,,,,,,,,,,,
615509a589a34f7cb9fb075f,TCR,2024-06-21_13h47.01.756,LearnStrategy,2023.2.3,Win32,59.88023952,9,1,7,0.020370413,-0.014814836,1,0,0,0.8749,rock_grid_rect_2,3,06,-1,-1,0.875,0.141666695,-0.381481524,1,0,0,3.0038,Peridotite_rect,7,3.004,0,6,0,6,0,1,,,,,,,,,,,,,
615509a589a34f7cb9fb075f,TCR,2024-06-21_13h47.01.756,LearnStrategy,2023.2.3,Win32,59.88023952,9,1,8,0.053703732,-0.018518519,1,0,0,0.6254,rock_grid_rect_2,6,06,-1,-1,0.625,-0.103703675,-0.388888889,1,0,0,1.7066,Pegmatite_rect,6,1.707,1,7,0,7,0,1,,,,,,,,,,,,,
615509a589a34f7cb9fb075f,TCR,2024-06-21_13h47.01.756,LearnStrategy,2023.2.3,Win32,59.88023952,9,1,9,0.009259259,-0.006481489,1,0,0,0.8479,rock_grid_rect_2,4,01,-1,-1,0.848,0.118518547,-0.412037037,1,0,0,2.5984,Peridotite_rect,7,2.598,0,8,0,8,0,1,,,,,,,,,,,,,
615509a589a34f7cb9fb075f,TCR,2024-06-21_13h47.01.756,LearnStrategy,2023.2.3,Win32,59.88023952,9,1,10,0.029629672,-0.01203703,1,0,0,0.8022,rock_grid_rect_2,4,12,-1,-1,0.802,-0.118518476,-0.242592635,1,0,0,1.7065,Basalt_rect,2,1.707,0,9,0,9,0,1,,,,,,,,,,,,,
615509a589a34f7cb9fb075f,TCR,2024-06-21_13h47.01.756,LearnStrategy,2023.2.3,Win32,59.88023952,9,1,11,-0.017592607,-0.002777771,1,0,0,1.5191,rock_grid_rect_2,7,13,-1,-1,1.519,-0.118518476,-0.39907406,1,0,0,1.2382,Pegmatite_rect,6,1.238,0,10,0,10,0,1,,,,,,,,,,,,,
615509a589a34f7cb9fb075f,TCR,2024-06-21_13h47.01.756,LearnStrategy,2023.2.3,Win32,59.88023952,9,1,12,0.00462963,0.003703683,1,0,0,0.8817,rock_grid_rect_2,7,16,-1,-1,0.882,-0.186111097,-0.243518547,1,0,0,1.7783,Basalt_rect,2,1.778,0,11,0,11,0,1,,,,,,,,,,,,,
615509a589a34f7cb9fb075f,TCR,2024-06-21_13h47.01.756,LearnStrategy,2023.2.3,Win32,59.88023952,9,1,13,0.07685188,0.002777771,1,0,0,1.2106,rock_grid_rect_2,4,16,-1,-1,1.211,-0.157407407,-0.25462963,1,0,0,1.3952,Basalt_rect,2,1.395,0,12,0,12,0,1,,,,,,,,,,,,,
615509a589a34f7cb9fb075f,TCR,2024-06-21_13h47.01.756,LearnStrategy,2023.2.3,Win32,59.88023952,9,1,14,0.027777778,-0.017592607,1,0,0,0.9691,rock_grid_rect_2,1,11,-1,-1,0.969,-0.384259259,-0.252777806,1,0,0,1.0401,Andesite_rect,1,1.04,1,13,0,13,0,1,,,,,,,,,,,,,
615509a589a34f7cb9fb075f,TCR,2024-06-21_13h47.01.756,LearnStrategy,2023.2.3,Win32,59.88023952,9,1,15,0.074999986,0.0074074,1,0,0,0.8989,rock_grid_rect_2,7,07,-1,-1,0.899,0.145370413,-0.389814801,1,0,0,1.4651,Peridotite_rect,7,1.465,1,14,0,14,0,1,,,,,,,,,,,,,
615509a589a34f7cb9fb075f,TCR,2024-06-21_13h47.01.756,LearnStrategy,2023.2.3,Win32,59.88023952,9,1,16,0.041666667,-0.006481489,1,0,0,1.3597,rock_grid_rect_2,1,14,-1,-1,1.36,-0.347222222,-0.233333376,1,0,0,2.6749,Andesite_rect,1,2.675,1,15,0,15,0,1,,,,,,,,,,,,,
615509a589a34f7cb9fb075f,TCR,2024-06-21_13h47.01.756,LearnStrategy,2023.2.3,Win32,59.88023952,9,2,1,,,,,,,,6,08,,,,,,,,,,,6,1.842,1,,,,,,-0.117592564,-0.390740783,1,0,0,1.8421,Pegmatite_rect,0,0,0,0,1,
615509a589a34f7cb9fb075f,TCR,2024-06-21_13h47.01.756,LearnStrategy,2023.2.3,Win32,59.88023952,9,2,2,,,,,,,,8,09,,,,,,,,,,,8,1.685,1,,,,,,0.386111083,-0.402777778,1,0,0,1.6849,Pumice_rect,1,0,1,0,1,
615509a589a34f7cb9fb075f,TCR,2024-06-21_13h47.01.756,LearnStrategy,2023.2.3,Win32,59.88023952,9,2,3,,,,,,,,5,16,,,,,,,,,,,5,1.411,1,,,,,,-0.376851859,-0.382407436,1,0,0,1.4113,Obsidian_rect,2,0,2,0,1,
615509a589a34f7cb9fb075f,TCR,2024-06-21_13h47.01.756,LearnStrategy,2023.2.3,Win32,59.88023952,9,2,4,,,,,,,,7,12,,,,,,,,,,,3,2.391,0,,,,,,0.157407407,-0.259259259,1,0,0,2.3906,Diorite_rect,3,0,3,0,1,
615509a589a34f7cb9fb075f,TCR,2024-06-21_13h47.01.756,LearnStrategy,2023.2.3,Win32,59.88023952,9,2,5,,,,,,,,2,05,,,,,,,,,,,2,2.552,1,,,,,,-0.113888847,-0.244444459,1,0,0,2.5519,Basalt_rect,4,0,4,0,1,
615509a589a34f7cb9fb075f,TCR,2024-06-21_13h47.01.756,LearnStrategy,2023.2.3,Win32,59.88023952,9,2,6,,,,,,,,8,13,,,,,,,,,,,8,1.185,1,,,,,,0.373148176,-0.401851866,1,0,0,1.1853,Pumice_rect,5,0,5,0,1,
615509a589a34f7cb9fb075f,TCR,2024-06-21_13h47.01.756,LearnStrategy,2023.2.3,Win32,59.88023952,9,2,7,,,,,,,,6,12,,,,,,,,,,,6,1.658,1,,,,,,-0.121296282,-0.390740783,1,0,0,1.6584,Pegmatite_rect,6,0,6,0,1,
615509a589a34f7cb9fb075f,TCR,2024-06-21_13h47.01.756,LearnStrategy,2023.2.3,Win32,59.88023952,9,2,8,,,,,,,,2,06,,,,,,,,,,,2,1.69,1,,,,,,-0.152777778,-0.262962977,1,0,0,1.6905,Basalt_rect,7,0,7,0,1,
615509a589a34f7cb9fb075f,TCR,2024-06-21_13h47.01.756,LearnStrategy,2023.2.3,Win32,59.88023952,9,2,9,,,,,,,,4,08,,,,,,,,,,,4,1.754,1,,,,,,0.351851852,-0.243518547,1,0,0,1.7542,Gabbro_rect,8,0,8,0,1,
615509a589a34f7cb9fb075f,TCR,2024-06-21_13h47.01.756,LearnStrategy,2023.2.3,Win32,59.88023952,9,2,10,,,,,,,,1,16,,,,,,,,,,,7,2.38,0,,,,,,0.116666653,-0.404629672,1,0,0,2.3796,Peridotite_rect,9,0,9,0,1,
615509a589a34f7cb9fb075f,TCR,2024-06-21_13h47.01.756,LearnStrategy,2023.2.3,Win32,59.88023952,9,2,11,,,,,,,,5,06,,,,,,,,,,,5,1.442,1,,,,,,-0.420370349,-0.411111125,1,0,0,1.4425,Obsidian_rect,10,0,10,0,1,
615509a589a34f7cb9fb075f,TCR,2024-06-21_13h47.01.756,LearnStrategy,2023.2.3,Win32,59.88023952,9,2,12,,,,,,,,7,10,,,,,,,,,,,3,2.165,0,,,,,,0.158333319,-0.240740741,1,0,0,2.1652,Diorite_rect,11,0,11,0,1,
615509a589a34f7cb9fb075f,TCR,2024-06-21_13h47.01.756,LearnStrategy,2023.2.3,Win32,59.88023952,9,2,13,,,,,,,,3,13,,,,,,,,,,,3,0.931,1,,,,,,0.124074088,-0.253703718,1,0,0,0.931,Diorite_rect,12,0,12,0,1,
615509a589a34f7cb9fb075f,TCR,2024-06-21_13h47.01.756,LearnStrategy,2023.2.3,Win32,59.88023952,9,2,14,,,,,,,,3,16,,,,,,,,,,,1,2.218,0,,,,,,-0.39166666,-0.236111111,1,0,0,2.218,Andesite_rect,13,0,13,0,1,
615509a589a34f7cb9fb075f,TCR,2024-06-21_13h47.01.756,LearnStrategy,2023.2.3,Win32,59.88023952,9,2,15,,,,,,,,4,03,,,,,,,,,,,4,3.218,1,,,,,,0.425925926,-0.24537037,1,0,0,3.218,Gabbro_rect,14,0,14,0,1,
615509a589a34f7cb9fb075f,TCR,2024-06-21_13h47.01.756,LearnStrategy,2023.2.3,Win32,59.88023952,9,2,16,,,,,,,,1,09,,,,,,,,,,,2,1.17,0,,,,,,-0.09629631,-0.236111111,1,0,0,1.1705,Basalt_rect,15,0,15,0,1,
615509a589a34f7cb9fb075f,TCR,2024-06-21_13h47.01.756,LearnStrategy,2023.2.3,Win32,59.88023952,,,,,,,,,,,,,,,,,,,,,,,,,,,,,,,,,,,,,,,,,,,1
615509a589a34f7cb9fb075f,TCR,2024-06-21_13h47.01.756,LearnStrategy,2023.2.3,Win32,59.88023952,,,,,,,,,,,,,,,,,,,,,,,,,,,,,,,,,,,,,,,,,,,
615509a589a34f7cb9fb075f,TCR,2024-06-21_13h47.01.756,LearnStrategy,2023.2.3,Win32,59.88023952,,,,,,,,,,,6,10,1,1,,,,,,,,,,,,,,,,,,,,,,,,,,,,,
615509a589a34f7cb9fb075f,TCR,2024-06-21_13h47.01.756,LearnStrategy,2023.2.3,Win32,59.88023952,,,,,,,,,,,6,06,1,2,,,,,,,,,,,,,,,,,,,,,,,,,,,,,
615509a589a34f7cb9fb075f,TCR,2024-06-21_13h47.01.756,LearnStrategy,2023.2.3,Win32,59.88023952,,,,,,,,,,,6,11,1,3,,,,,,,,,,,,,,,,,,,,,,,,,,,,,
615509a589a34f7cb9fb075f,TCR,2024-06-21_13h47.01.756,LearnStrategy,2023.2.3,Win32,59.88023952,,,,,,,,,,,4,16,1,4,,,,,,,,,,,,,,,,,,,,,,,,,,,,,
615509a589a34f7cb9fb075f,TCR,2024-06-21_13h47.01.756,LearnStrategy,2023.2.3,Win32,59.88023952,,,,,,,,,,,7,07,1,5,,,,,,,,,,,,,,,,,,,,,,,,,,,,,
615509a589a34f7cb9fb075f,TCR,2024-06-21_13h47.01.756,LearnStrategy,2023.2.3,Win32,59.88023952,,,,,,,,,,,8,05,1,6,,,,,,,,,,,,,,,,,,,,,,,,,,,,,
615509a589a34f7cb9fb075f,TCR,2024-06-21_13h47.01.756,LearnStrategy,2023.2.3,Win32,59.88023952,,,,,,,,,,,2,14,1,7,,,,,,,,,,,,,,,,,,,,,,,,,,,,,
615509a589a34f7cb9fb075f,TCR,2024-06-21_13h47.01.756,LearnStrategy,2023.2.3,Win32,59.88023952,,,,,,,,,,,4,01,1,8,,,,,,,,,,,,,,,,,,,,,,,,,,,,,
615509a589a34f7cb9fb075f,TCR,2024-06-21_13h47.01.756,LearnStrategy,2023.2.3,Win32,59.88023952,,,,,,,,,,,8,15,2,1,,,,,,,,,,,,,,,,,,,,,,,,,,,,,
615509a589a34f7cb9fb075f,TCR,2024-06-21_13h47.01.756,LearnStrategy,2023.2.3,Win32,59.88023952,,,,,,,,,,,1,07,2,2,,,,,,,,,,,,,,,,,,,,,,,,,,,,,
615509a589a34f7cb9fb075f,TCR,2024-06-21_13h47.01.756,LearnStrategy,2023.2.3,Win32,59.88023952,,,,,,,,,,,1,11,2,3,,,,,,,,,,,,,,,,,,,,,,,,,,,,,
615509a589a34f7cb9fb075f,TCR,2024-06-21_13h47.01.756,LearnStrategy,2023.2.3,Win32,59.88023952,,,,,,,,,,,8,16,2,4,,,,,,,,,,,,,,,,,,,,,,,,,,,,,
615509a589a34f7cb9fb075f,TCR,2024-06-21_13h47.01.756,LearnStrategy,2023.2.3,Win32,59.88023952,,,,,,,,,,,3,14,2,5,,,,,,,,,,,,,,,,,,,,,,,,,,,,,
615509a589a34f7cb9fb075f,TCR,2024-06-21_13h47.01.756,LearnStrategy,2023.2.3,Win32,59.88023952,,,,,,,,,,,3,07,2,6,,,,,,,,,,,,,,,,,,,,,,,,,,,,,
615509a589a34f7cb9fb075f,TCR,2024-06-21_13h47.01.756,LearnStrategy,2023.2.3,Win32,59.88023952,,,,,,,,,,,7,16,2,7,,,,,,,,,,,,,,,,,,,,,,,,,,,,,
615509a589a34f7cb9fb075f,TCR,2024-06-21_13h47.01.756,LearnStrategy,2023.2.3,Win32,59.88023952,,,,,,,,,,,4,12,2,8,,,,,,,,,,,,,,,,,,,,,,,,,,,,,
615509a589a34f7cb9fb075f,TCR,2024-06-21_13h47.01.756,LearnStrategy,2023.2.3,Win32,59.88023952,,,,,,,,,,,4,10,3,1,,,,,,,,,,,,,,,,,,,,,,,,,,,,,
615509a589a34f7cb9fb075f,TCR,2024-06-21_13h47.01.756,LearnStrategy,2023.2.3,Win32,59.88023952,,,,,,,,,,,2,02,3,2,,,,,,,,,,,,,,,,,,,,,,,,,,,,,
615509a589a34f7cb9fb075f,TCR,2024-06-21_13h47.01.756,LearnStrategy,2023.2.3,Win32,59.88023952,,,,,,,,,,,1,03,3,3,,,,,,,,,,,,,,,,,,,,,,,,,,,,,
615509a589a34f7cb9fb075f,TCR,2024-06-21_13h47.01.756,LearnStrategy,2023.2.3,Win32,59.88023952,,,,,,,,,,,4,11,3,4,,,,,,,,,,,,,,,,,,,,,,,,,,,,,
615509a589a34f7cb9fb075f,TCR,2024-06-21_13h47.01.756,LearnStrategy,2023.2.3,Win32,59.88023952,,,,,,,,,,,5,12,3,5,,,,,,,,,,,,,,,,,,,,,,,,,,,,,
615509a589a34f7cb9fb075f,TCR,2024-06-21_13h47.01.756,LearnStrategy,2023.2.3,Win32,59.88023952,,,,,,,,,,,5,09,3,6,,,,,,,,,,,,,,,,,,,,,,,,,,,,,
615509a589a34f7cb9fb075f,TCR,2024-06-21_13h47.01.756,LearnStrategy,2023.2.3,Win32,59.88023952,,,,,,,,,,,6,03,3,7,,,,,,,,,,,,,,,,,,,,,,,,,,,,,
615509a589a34f7cb9fb075f,TCR,2024-06-21_13h47.01.756,LearnStrategy,2023.2.3,Win32,59.88023952,,,,,,,,,,,8,14,3,8,,,,,,,,,,,,,,,,,,,,,,,,,,,,,
615509a589a34f7cb9fb075f,TCR,2024-06-21_13h47.01.756,LearnStrategy,2023.2.3,Win32,59.88023952,,,,,,,,,,,2,10,4,1,,,,,,,,,,,,,,,,,,,,,,,,,,,,,
615509a589a34f7cb9fb075f,TCR,2024-06-21_13h47.01.756,LearnStrategy,2023.2.3,Win32,59.88023952,,,,,,,,,,,6,07,4,2,,,,,,,,,,,,,,,,,,,,,,,,,,,,,
615509a589a34f7cb9fb075f,TCR,2024-06-21_13h47.01.756,LearnStrategy,2023.2.3,Win32,59.88023952,,,,,,,,,,,2,09,4,3,,,,,,,,,,,,,,,,,,,,,,,,,,,,,
615509a589a34f7cb9fb075f,TCR,2024-06-21_13h47.01.756,LearnStrategy,2023.2.3,Win32,59.88023952,,,,,,,,,,,3,02,4,4,,,,,,,,,,,,,,,,,,,,,,,,,,,,,
615509a589a34f7cb9fb075f,TCR,2024-06-21_13h47.01.756,LearnStrategy,2023.2.3,Win32,59.88023952,,,,,,,,,,,7,13,4,5,,,,,,,,,,,,,,,,,,,,,,,,,,,,,
615509a589a34f7cb9fb075f,TCR,2024-06-21_13h47.01.756,LearnStrategy,2023.2.3,Win32,59.88023952,,,,,,,,,,,5,11,4,6,,,,,,,,,,,,,,,,,,,,,,,,,,,,,
615509a589a34f7cb9fb075f,TCR,2024-06-21_13h47.01.756,LearnStrategy,2023.2.3,Win32,59.88023952,,,,,,,,,,,7,06,4,7,,,,,,,,,,,,,,,,,,,,,,,,,,,,,
615509a589a34f7cb9fb075f,TCR,2024-06-21_13h47.01.756,LearnStrategy,2023.2.3,Win32,59.88023952,,,,,,,,,,,3,09,4,8,,,,,,,,,,,,,,,,,,,,,,,,,,,,,
615509a589a34f7cb9fb075f,TCR,2024-06-21_13h47.01.756,LearnStrategy,2023.2.3,Win32,59.88023952,,,,,,,,,,,2,11,5,1,,,,,,,,,,,,,,,,,,,,,,,,,,,,,
615509a589a34f7cb9fb075f,TCR,2024-06-21_13h47.01.756,LearnStrategy,2023.2.3,Win32,59.88023952,,,,,,,,,,,7,15,5,2,,,,,,,,,,,,,,,,,,,,,,,,,,,,,
615509a589a34f7cb9fb075f,TCR,2024-06-21_13h47.01.756,LearnStrategy,2023.2.3,Win32,59.88023952,,,,,,,,,,,5,05,5,3,,,,,,,,,,,,,,,,,,,,,,,,,,,,,
615509a589a34f7cb9fb075f,TCR,2024-06-21_13h47.01.756,LearnStrategy,2023.2.3,Win32,59.88023952,,,,,,,,,,,3,06,5,4,,,,,,,,,,,,,,,,,,,,,,,,,,,,,
615509a589a34f7cb9fb075f,TCR,2024-06-21_13h47.01.756,LearnStrategy,2023.2.3,Win32,59.88023952,,,,,,,,,,,2,01,5,5,,,,,,,,,,,,,,,,,,,,,,,,,,,,,
615509a589a34f7cb9fb075f,TCR,2024-06-21_13h47.01.756,LearnStrategy,2023.2.3,Win32,59.88023952,,,,,,,,,,,6,05,5,6,,,,,,,,,,,,,,,,,,,,,,,,,,,,,
615509a589a34f7cb9fb075f,TCR,2024-06-21_13h47.01.756,LearnStrategy,2023.2.3,Win32,59.88023952,,,,,,,,,,,4,15,5,7,,,,,,,,,,,,,,,,,,,,,,,,,,,,,
615509a589a34f7cb9fb075f,TCR,2024-06-21_13h47.01.756,LearnStrategy,2023.2.3,Win32,59.88023952,,,,,,,,,,,8,10,5,8,,,,,,,,,,,,,,,,,,,,,,,,,,,,,
615509a589a34f7cb9fb075f,TCR,2024-06-21_13h47.01.756,LearnStrategy,2023.2.3,Win32,59.88023952,,,,,,,,,,,5,14,6,1,,,,,,,,,,,,,,,,,,,,,,,,,,,,,
615509a589a34f7cb9fb075f,TCR,2024-06-21_13h47.01.756,LearnStrategy,2023.2.3,Win32,59.88023952,,,,,,,,,,,3,12,6,2,,,,,,,,,,,,,,,,,,,,,,,,,,,,,
615509a589a34f7cb9fb075f,TCR,2024-06-21_13h47.01.756,LearnStrategy,2023.2.3,Win32,59.88023952,,,,,,,,,,,8,04,6,3,,,,,,,,,,,,,,,,,,,,,,,,,,,,,
615509a589a34f7cb9fb075f,TCR,2024-06-21_13h47.01.756,LearnStrategy,2023.2.3,Win32,59.88023952,,,,,,,,,,,1,01,6,4,,,,,,,,,,,,,,,,,,,,,,,,,,,,,
615509a589a34f7cb9fb075f,TCR,2024-06-21_13h47.01.756,LearnStrategy,2023.2.3,Win32,59.88023952,,,,,,,,,,,1,14,6,5,,,,,,,,,,,,,,,,,,,,,,,,,,,,,
615509a589a34f7cb9fb075f,TCR,2024-06-21_13h47.01.756,LearnStrategy,2023.2.3,Win32,59.88023952,,,,,,,,,,,1,05,6,6,,,,,,,,,,,,,,,,,,,,,,,,,,,,,
615509a589a34f7cb9fb075f,TCR,2024-06-21_13h47.01.756,LearnStrategy,2023.2.3,Win32,59.88023952,,,,,,,,,,,7,14,6,7,,,,,,,,,,,,,,,,,,,,,,,,,,,,,
615509a589a34f7cb9fb075f,TCR,2024-06-21_13h47.01.756,LearnStrategy,2023.2.3,Win32,59.88023952,,,,,,,,,,,5,02,6,8,,,,,,,,,,,,,,,,,,,,,,,,,,,,,