participant,condition,date,expName,psychopyVersion,OS,frameRate,block,phase,trial,learn_mouse.x,learn_mouse.y,learn_mouse.leftButton,learn_mouse.midButton,learn_mouse.rightButton,learn_mouse.time,learn_mouse.clicked_name,cat,token,row,col,t_select,cat_rec,token_rec,cat_mouse_l.x,cat_mouse_l.y,cat_mouse_l.leftButton,cat_mouse_l.midButton,cat_mouse_l.rightButton,cat_mouse_l.time,cat_mouse_l.clicked_name,resp,t_resp,corr,train_trials.thisRepN,train_trials.thisTrialN,train_trials.thisN,train_trials.thisIndex,train_trials.ran,cat_mouse_t.x,cat_mouse_t.y,cat_mouse_t.leftButton,cat_mouse_t.midButton,cat_mouse_t.rightButton,cat_mouse_t.time,cat_mouse_t.clicked_name,test_trials.thisRepN,test_trials.thisTrialN,test_trials.thisN,test_trials.thisIndex,test_trials.ran,Bonus
615d2de8bfd11d57af47423a,SCR,2024-06-20_16h30.58.232,LearnStrategy,2023.2.3,Win32,59.88023952,,,,,,,,,,,,,,,,,,,,,,,,,,,,,,,,,,,,,,,,,,,,,
615d2de8bfd11d57af47423a,SCR,2024-06-20_16h30.58.232,LearnStrategy,2023.2.3,Win32,59.88023952,1,1,1,-0.56640625,0.39453125,1,0,0,6.712,Gabbro_08,4,08,6,1,6.712,4,08,-0.35546875,-0.24609375,1,0,0,6.3073,Andesite_rect,1,6.307,0,0,0,0,0,1,,,,,,,,,,,,,
615d2de8bfd11d57af47423a,SCR,2024-06-20_16h30.58.232,LearnStrategy,2023.2.3,Win32,59.88023952,1,1,2,0.065104167,-0.247395833,1,0,0,3.5135,Basalt_16,2,16,2,5,3.514,2,16,-0.104166667,-0.260416667,1,0,0,8.0491,Basalt_rect,2,8.049,1,1,0,1,0,1,,,,,,,,,,,,,
615d2de8bfd11d57af47423a,SCR,2024-06-20_16h30.58.232,LearnStrategy,2023.2.3,Win32,59.88023952,1,1,3,0.516927083,0.092447917,1,0,0,3.2403,Diorite_11,3,11,4,8,3.24,3,11,-0.393229167,-0.393229167,1,0,0,3.764,Obsidian_rect,5,3.764,0,2,0,2,0,1,,,,,,,,,,,,,
615d2de8bfd11d57af47423a,SCR,2024-06-20_16h30.58.232,LearnStrategy,2023.2.3,Win32,59.88023952,1,1,4,-0.368489583,-0.235677083,1,0,0,2.801,Pegmatite_15,6,15,2,2,2.801,6,15,0.399739583,-0.408854167,1,0,0,11.6209,Pumice_rect,8,11.621,0,3,0,3,0,1,,,,,,,,,,,,,
615d2de8bfd11d57af47423a,SCR,2024-06-20_16h30.58.232,LearnStrategy,2023.2.3,Win32,59.88023952,1,1,5,-0.278645833,0.266927083,1,0,0,2.3134,Diorite_16,3,16,5,3,2.313,3,16,0.368489583,-0.240885417,1,0,0,4.463,Gabbro_rect,4,4.463,0,4,0,4,0,1,,,,,,,,,,,,,
615d2de8bfd11d57af47423a,SCR,2024-06-20_16h30.58.232,LearnStrategy,2023.2.3,Win32,59.88023952,1,1,6,-0.415364583,-0.096354167,1,0,0,1.7819,Pumice_16,8,16,3,2,1.782,8,16,0.3828125,-0.404947917,1,0,0,5.8437,Pumice_rect,8,5.844,1,5,0,5,0,1,,,,,,,,,,,,,
615d2de8bfd11d57af47423a,SCR,2024-06-20_16h30.58.232,LearnStrategy,2023.2.3,Win32,59.88023952,1,1,7,-0.2421875,-0.26171875,1,0,0,2.214,Pegmatite_10,6,10,2,3,2.214,6,10,-0.08984375,-0.388020833,1,0,0,6.8308,Pegmatite_rect,6,6.831,1,6,0,6,0,1,,,,,,,,,,,,,
615d2de8bfd11d57af47423a,SCR,2024-06-20_16h30.58.232,LearnStrategy,2023.2.3,Win32,59.88023952,1,1,8,-0.057291667,0.091145833,1,0,0,1.4474,Basalt_09,2,09,4,4,1.447,2,09,0.385416667,-0.411458333,1,0,0,3.5888,Pumice_rect,8,3.589,0,7,0,7,0,1,,,,,,,,,,,,,
615d2de8bfd11d57af47423a,SCR,2024-06-20_16h30.58.232,LearnStrategy,2023.2.3,Win32,59.88023952,1,1,9,0.397135417,0.399739583,1,0,0,2.72,Gabbro_11,4,11,6,7,2.72,4,11,0.345052083,-0.41015625,1,0,0,2.0203,Pumice_rect,8,2.02,0,8,0,8,0,1,,,,,,,,,,,,,
615d2de8bfd11d57af47423a,SCR,2024-06-20_16h30.58.232,LearnStrategy,2023.2.3,Win32,59.88023952,1,1,10,-0.5390625,0.404947917,1,0,0,2.0155,Gabbro_08,4,08,6,1,2.016,7,05,0.380208333,-0.247395833,1,0,0,2.2133,Gabbro_rect,4,2.213,1,9,0,9,0,1,,,,,,,,,,,,,
615d2de8bfd11d57af47423a,SCR,2024-06-20_16h30.58.232,LearnStrategy,2023.2.3,Win32,59.88023952,1,1,11,0.389322917,0.399739583,1,0,0,2.586,Gabbro_11,4,11,6,7,2.586,7,02,0.403645833,-0.240885417,1,0,0,1.6939,Gabbro_rect,4,1.694,1,10,0,10,0,1,,,,,,,,,,,,,
615d2de8bfd11d57af47423a,SCR,2024-06-20_16h30.58.232,LearnStrategy,2023.2.3,Win32,59.88023952,1,1,12,0.21484375,-0.28515625,1,0,0,4.7628,Obsidian_10,5,10,2,6,4.763,8,04,-0.354166667,-0.41015625,1,0,0,4.1484,Obsidian_rect,5,4.148,1,11,0,11,0,1,,,,,,,,,,,,,
615d2de8bfd11d57af47423a,SCR,2024-06-20_16h30.58.232,LearnStrategy,2023.2.3,Win32,59.88023952,1,1,13,0.088541667,0.096354167,1,0,0,2.4595,Obsidian_11,5,11,4,5,2.46,1,01,-0.376302083,-0.4140625,1,0,0,2.1445,Obsidian_rect,5,2.144,1,12,0,12,0,1,,,,,,,,,,,,,
615d2de8bfd11d57af47423a,SCR,2024-06-20_16h30.58.232,LearnStrategy,2023.2.3,Win32,59.88023952,1,1,14,0.055989583,-0.11328125,1,0,0,1.6473,Peridotite_15,7,15,3,5,1.647,5,12,0.13671875,-0.421875,1,0,0,3.4767,Peridotite_rect,7,3.477,1,13,0,13,0,1,,,,,,,,,,,,,
615d2de8bfd11d57af47423a,SCR,2024-06-20_16h30.58.232,LearnStrategy,2023.2.3,Win32,59.88023952,1,1,15,0.373697917,-0.266927083,1,0,0,6.5222,Obsidian_12,5,12,2,7,6.522,5,04,-0.342447917,-0.407552083,1,0,0,1.6992,Obsidian_rect,5,1.699,1,14,0,14,0,1,,,,,,,,,,,,,
615d2de8bfd11d57af47423a,SCR,2024-06-20_16h30.58.232,LearnStrategy,2023.2.3,Win32,59.88023952,1,1,16,0.397135417,-0.3984375,1,0,0,3.2035,Andesite_02,1,02,1,7,3.204,1,02,-0.12109375,-0.244791667,1,0,0,8.2314,Basalt_rect,2,8.231,0,15,0,15,0,1,,,,,,,,,,,,,
615d2de8bfd11d57af47423a,SCR,2024-06-20_16h30.58.232,LearnStrategy,2023.2.3,Win32,59.88023952,1,2,1,,,,,,,,2,05,,,,,,,,,,,,,2,10.315,1,,,,,,-0.171875,-0.25390625,1,0,0,10.3154,Basalt_rect,0,0,0,0,1,
615d2de8bfd11d57af47423a,SCR,2024-06-20_16h30.58.232,LearnStrategy,2023.2.3,Win32,59.88023952,1,2,2,,,,,,,,3,07,,,,,,,,,,,,,3,5.007,1,,,,,,0.19921875,-0.260416667,1,0,0,5.0068,Diorite_rect,1,0,1,0,1,
615d2de8bfd11d57af47423a,SCR,2024-06-20_16h30.58.232,LearnStrategy,2023.2.3,Win32,59.88023952,1,2,3,,,,,,,,8,03,,,,,,,,,,,,,8,3.512,1,,,,,,0.391927083,-0.403645833,1,0,0,3.5116,Pumice_rect,2,0,2,0,1,
615d2de8bfd11d57af47423a,SCR,2024-06-20_16h30.58.232,LearnStrategy,2023.2.3,Win32,59.88023952,1,2,4,,,,,,,,5,14,,,,,,,,,,,,,5,1.748,1,,,,,,-0.37109375,-0.381510417,1,0,0,1.7477,Obsidian_rect,3,0,3,0,1,
615d2de8bfd11d57af47423a,SCR,2024-06-20_16h30.58.232,LearnStrategy,2023.2.3,Win32,59.88023952,1,2,5,,,,,,,,6,12,,,,,,,,,,,,,7,4.569,0,,,,,,0.09765625,-0.411458333,1,0,0,4.5688,Peridotite_rect,4,0,4,0,1,
615d2de8bfd11d57af47423a,SCR,2024-06-20_16h30.58.232,LearnStrategy,2023.2.3,Win32,59.88023952,1,2,6,,,,,,,,7,12,,,,,,,,,,,,,3,2.478,0,,,,,,0.118489583,-0.25390625,1,0,0,2.4785,Diorite_rect,5,0,5,0,1,
615d2de8bfd11d57af47423a,SCR,2024-06-20_16h30.58.232,LearnStrategy,2023.2.3,Win32,59.88023952,1,2,7,,,,,,,,4,16,,,,,,,,,,,,,8,3.804,0,,,,,,0.391927083,-0.415364583,1,0,0,3.804,Pumice_rect,6,0,6,0,1,
615d2de8bfd11d57af47423a,SCR,2024-06-20_16h30.58.232,LearnStrategy,2023.2.3,Win32,59.88023952,1,2,8,,,,,,,,5,05,,,,,,,,,,,,,5,5.27,1,,,,,,-0.404947917,-0.3984375,1,0,0,5.2701,Obsidian_rect,7,0,7,0,1,
615d2de8bfd11d57af47423a,SCR,2024-06-20_16h30.58.232,LearnStrategy,2023.2.3,Win32,59.88023952,1,2,9,,,,,,,,8,10,,,,,,,,,,,,,8,3.144,1,,,,,,0.369791667,-0.393229167,1,0,0,3.1444,Pumice_rect,8,0,8,0,1,
615d2de8bfd11d57af47423a,SCR,2024-06-20_16h30.58.232,LearnStrategy,2023.2.3,Win32,59.88023952,1,2,10,,,,,,,,6,07,,,,,,,,,,,,,3,4.34,0,,,,,,0.110677083,-0.256510417,1,0,0,4.3398,Diorite_rect,9,0,9,0,1,
615d2de8bfd11d57af47423a,SCR,2024-06-20_16h30.58.232,LearnStrategy,2023.2.3,Win32,59.88023952,1,2,11,,,,,,,,2,14,,,,,,,,,,,,,8,3.447,0,,,,,,0.334635417,-0.3828125,1,0,0,3.4467,Pumice_rect,10,0,10,0,1,
615d2de8bfd11d57af47423a,SCR,2024-06-20_16h30.58.232,LearnStrategy,2023.2.3,Win32,59.88023952,1,2,12,,,,,,,,4,09,,,,,,,,,,,,,4,2.205,1,,,,,,0.34375,-0.248697917,1,0,0,2.2052,Gabbro_rect,11,0,11,0,1,
615d2de8bfd11d57af47423a,SCR,2024-06-20_16h30.58.232,LearnStrategy,2023.2.3,Win32,59.88023952,1,2,13,,,,,,,,1,11,,,,,,,,,,,,,6,2.953,0,,,,,,-0.109375,-0.395833333,1,0,0,2.953,Pegmatite_rect,12,0,12,0,1,
615d2de8bfd11d57af47423a,SCR,2024-06-20_16h30.58.232,LearnStrategy,2023.2.3,Win32,59.88023952,1,2,14,,,,,,,,3,06,,,,,,,,,,,,,3,2.562,1,,,,,,0.131510417,-0.243489583,1,0,0,2.5617,Diorite_rect,13,0,13,0,1,
615d2de8bfd11d57af47423a,SCR,2024-06-20_16h30.58.232,LearnStrategy,2023.2.3,Win32,59.88023952,1,2,15,,,,,,,,1,04,,,,,,,,,,,,,3,1.849,0,,,,,,0.131510417,-0.243489583,1,0,0,1.8486,Diorite_rect,14,0,14,0,1,
615d2de8bfd11d57af47423a,SCR,2024-06-20_16h30.58.232,LearnStrategy,2023.2.3,Win32,59.88023952,1,2,16,,,,,,,,7,08,,,,,,,,,,,,,2,5.628,0,,,,,,-0.204427083,-0.259114583,1,0,0,5.6279,Basalt_rect,15,0,15,0,1,
615d2de8bfd11d57af47423a,SCR,2024-06-20_16h30.58.232,LearnStrategy,2023.2.3,Win32,59.88023952,2,1,1,0.220052083,-0.104166667,1,0,0,6.018,Diorite_14,3,14,3,6,6.018,8,08,0.12890625,-0.243489583,1,0,0,3.5191,Diorite_rect,3,3.519,1,0,0,0,0,1,,,,,,,,,,,,,
615d2de8bfd11d57af47423a,SCR,2024-06-20_16h30.58.232,LearnStrategy,2023.2.3,Win32,59.88023952,2,1,2,0.549479167,-0.102864583,1,0,0,1.8371,Andesite_07,1,07,3,8,1.837,2,04,0.14453125,-0.233072917,1,0,0,1.2515,Diorite_rect,3,1.251,0,1,0,1,0,1,,,,,,,,,,,,,
615d2de8bfd11d57af47423a,SCR,2024-06-20_16h30.58.232,LearnStrategy,2023.2.3,Win32,59.88023952,2,1,3,-0.390625,-0.260416667,1,0,0,7.6866,Pegmatite_15,6,15,2,2,7.687,2,04,-0.092447917,-0.39453125,1,0,0,4.1534,Pegmatite_rect,6,4.153,1,2,0,2,0,1,,,,,,,,,,,,,
615d2de8bfd11d57af47423a,SCR,2024-06-20_16h30.58.232,LearnStrategy,2023.2.3,Win32,59.88023952,2,1,4,-0.25,-0.276041667,1,0,0,5.8158,Pegmatite_10,6,10,2,3,5.816,3,16,-0.106770833,-0.408854167,1,0,0,1.4023,Pegmatite_rect,6,1.402,1,3,0,3,0,1,,,,,,,,,,,,,
615d2de8bfd11d57af47423a,SCR,2024-06-20_16h30.58.232,LearnStrategy,2023.2.3,Win32,59.88023952,2,1,5,-0.364583333,-0.421875,1,0,0,8.6989,Pegmatite_05,6,05,1,2,8.699,4,08,-0.123697917,-0.397135417,1,0,0,1.5539,Pegmatite_rect,6,1.554,1,4,0,4,0,1,,,,,,,,,,,,,
615d2de8bfd11d57af47423a,SCR,2024-06-20_16h30.58.232,LearnStrategy,2023.2.3,Win32,59.88023952,2,1,6,-0.533854167,0.41796875,1,0,0,2.3801,Gabbro_08,4,08,6,1,2.38,1,09,0.419270833,-0.259114583,1,0,0,1.4517,Gabbro_rect,4,1.452,1,5,0,5,0,1,,,,,,,,,,,,,
615d2de8bfd11d57af47423a,SCR,2024-06-20_16h30.58.232,LearnStrategy,2023.2.3,Win32,59.88023952,2,1,7,0.252604167,0.41015625,1,0,0,1.7304,Gabbro_05,4,05,6,6,1.73,7,13,0.37109375,-0.240885417,1,0,0,1.3133,Gabbro_rect,4,1.313,1,6,0,6,0,1,,,,,,,,,,,,,
615d2de8bfd11d57af47423a,SCR,2024-06-20_16h30.58.232,LearnStrategy,2023.2.3,Win32,59.88023952,2,1,8,0.244791667,0.235677083,1,0,0,2.0619,Obsidian_06,5,06,5,6,2.062,6,03,-0.333333333,-0.403645833,1,0,0,2.4286,Obsidian_rect,5,2.429,1,7,0,7,0,1,,,,,,,,,,,,,
615d2de8bfd11d57af47423a,SCR,2024-06-20_16h30.58.232,LearnStrategy,2023.2.3,Win32,59.88023952,2,1,9,-0.393229167,-0.109375,1,0,0,2.1865,Pumice_16,8,16,3,2,2.187,7,05,0.359375,-0.420572917,1,0,0,1.4639,Pumice_rect,8,1.464,1,8,0,8,0,1,,,,,,,,,,,,,
615d2de8bfd11d57af47423a,SCR,2024-06-20_16h30.58.232,LearnStrategy,2023.2.3,Win32,59.88023952,2,1,10,0.078125,-0.40234375,1,0,0,12.3438,Basalt_06,2,06,1,5,12.344,6,05,0.078125,-0.40234375,1,0,0,4.4892,Peridotite_rect,7,4.489,0,9,0,9,0,1,,,,,,,,,,,,,
615d2de8bfd11d57af47423a,SCR,2024-06-20_16h30.58.232,LearnStrategy,2023.2.3,Win32,59.88023952,2,1,11,-0.088541667,-0.239583333,1,0,0,2.8691,Pumice_06,8,06,2,4,2.869,7,10,0.346354167,-0.408854167,1,0,0,1.8402,Pumice_rect,8,1.84,1,10,0,10,0,1,,,,,,,,,,,,,
615d2de8bfd11d57af47423a,SCR,2024-06-20_16h30.58.232,LearnStrategy,2023.2.3,Win32,59.88023952,2,1,12,-0.21484375,0.240885417,1,0,0,4.5133,Diorite_16,3,16,5,3,4.513,6,08,0.145833333,-0.240885417,1,0,0,1.5527,Diorite_rect,3,1.553,1,11,0,11,0,1,,,,,,,,,,,,,
615d2de8bfd11d57af47423a,SCR,2024-06-20_16h30.58.232,LearnStrategy,2023.2.3,Win32,59.88023952,2,1,13,0.072916667,0.239583333,1,0,0,2.325,Peridotite_06,7,06,5,5,2.325,7,06,-0.110677083,-0.41796875,1,0,0,3.6671,Pegmatite_rect,6,3.667,0,12,0,12,0,1,,,,,,,,,,,,,
615d2de8bfd11d57af47423a,SCR,2024-06-20_16h30.58.232,LearnStrategy,2023.2.3,Win32,59.88023952,2,1,14,0.235677083,-0.428385417,1,0,0,3.3678,Basalt_10,2,10,1,6,3.368,4,15,-0.111979167,-0.247395833,1,0,0,7.0406,Basalt_rect,2,7.041,1,13,0,13,0,1,,,,,,,,,,,,,
615d2de8bfd11d57af47423a,SCR,2024-06-20_16h30.58.232,LearnStrategy,2023.2.3,Win32,59.88023952,2,1,15,-0.576822917,-0.104166667,1,0,0,2.3845,Pegmatite_03,6,03,3,1,2.385,1,09,0.123697917,-0.256510417,1,0,0,4.3369,Diorite_rect,3,4.337,0,14,0,14,0,1,,,,,,,,,,,,,
615d2de8bfd11d57af47423a,SCR,2024-06-20_16h30.58.232,LearnStrategy,2023.2.3,Win32,59.88023952,2,1,16,0.571614583,-0.095052083,1,0,0,2.1151,Andesite_07,1,07,3,8,2.115,1,07,0.166666667,-0.2578125,1,0,0,5.1002,Diorite_rect,3,5.1,0,15,0,15,0,1,,,,,,,,,,,,,
615d2de8bfd11d57af47423a,SCR,2024-06-20_16h30.58.232,LearnStrategy,2023.2.3,Win32,59.88023952,2,2,1,,,,,,,,6,06,,,,,,,,,,,,,1,5.8,0,,,,,,-0.3828125,-0.25,1,0,0,5.7996,Andesite_rect,0,0,0,0,1,
615d2de8bfd11d57af47423a,SCR,2024-06-20_16h30.58.232,LearnStrategy,2023.2.3,Win32,59.88023952,2,2,2,,,,,,,,4,10,,,,,,,,,,,,,8,2.552,0,,,,,,0.40625,-0.41796875,1,0,0,2.5521,Pumice_rect,1,0,1,0,1,
615d2de8bfd11d57af47423a,SCR,2024-06-20_16h30.58.232,LearnStrategy,2023.2.3,Win32,59.88023952,2,2,3,,,,,,,,8,05,,,,,,,,,,,,,8,1.657,1,,,,,,0.40625,-0.41796875,1,0,0,1.6571,Pumice_rect,2,0,2,0,1,
615d2de8bfd11d57af47423a,SCR,2024-06-20_16h30.58.232,LearnStrategy,2023.2.3,Win32,59.88023952,2,2,4,,,,,,,,3,02,,,,,,,,,,,,,3,1.828,1,,,,,,0.1640625,-0.2578125,1,0,0,1.8281,Diorite_rect,3,0,3,0,1,
615d2de8bfd11d57af47423a,SCR,2024-06-20_16h30.58.232,LearnStrategy,2023.2.3,Win32,59.88023952,2,2,5,,,,,,,,8,15,,,,,,,,,,,,,8,2.939,1,,,,,,0.329427083,-0.389322917,1,0,0,2.9394,Pumice_rect,4,0,4,0,1,
615d2de8bfd11d57af47423a,SCR,2024-06-20_16h30.58.232,LearnStrategy,2023.2.3,Win32,59.88023952,2,2,6,,,,,,,,2,12,,,,,,,,,,,,,8,2.191,0,,,,,,0.329427083,-0.389322917,1,0,0,2.1905,Pumice_rect,5,0,5,0,1,
615d2de8bfd11d57af47423a,SCR,2024-06-20_16h30.58.232,LearnStrategy,2023.2.3,Win32,59.88023952,2,2,7,,,,,,,,3,15,,,,,,,,,,,,,3,2.431,1,,,,,,0.138020833,-0.256510417,1,0,0,2.4312,Diorite_rect,6,0,6,0,1,
615d2de8bfd11d57af47423a,SCR,2024-06-20_16h30.58.232,LearnStrategy,2023.2.3,Win32,59.88023952,2,2,8,,,,,,,,6,09,,,,,,,,,,,,,3,11.067,0,,,,,,0.16015625,-0.259114583,1,0,0,11.067,Diorite_rect,7,0,7,0,1,
615d2de8bfd11d57af47423a,SCR,2024-06-20_16h30.58.232,LearnStrategy,2023.2.3,Win32,59.88023952,2,2,9,,,,,,,,1,10,,,,,,,,,,,,,8,2.306,0,,,,,,0.360677083,-0.401041667,1,0,0,2.3056,Pumice_rect,8,0,8,0,1,
615d2de8bfd11d57af47423a,SCR,2024-06-20_16h30.58.232,LearnStrategy,2023.2.3,Win32,59.88023952,2,2,10,,,,,,,,5,07,,,,,,,,,,,,,5,1.751,1,,,,,,-0.380208333,-0.404947917,1,0,0,1.7508,Obsidian_rect,9,0,9,0,1,
615d2de8bfd11d57af47423a,SCR,2024-06-20_16h30.58.232,LearnStrategy,2023.2.3,Win32,59.88023952,2,2,11,,,,,,,,7,07,,,,,,,,,,,,,4,3.232,0,,,,,,0.317708333,-0.2578125,1,0,0,3.2319,Gabbro_rect,10,0,10,0,1,
615d2de8bfd11d57af47423a,SCR,2024-06-20_16h30.58.232,LearnStrategy,2023.2.3,Win32,59.88023952,2,2,12,,,,,,,,1,14,,,,,,,,,,,,,3,3.108,0,,,,,,0.104166667,-0.2578125,1,0,0,3.108,Diorite_rect,11,0,11,0,1,
615d2de8bfd11d57af47423a,SCR,2024-06-20_16h30.58.232,LearnStrategy,2023.2.3,Win32,59.88023952,2,2,13,,,,,,,,2,01,,,,,,,,,,,,,2,5.997,1,,,,,,-0.10546875,-0.26953125,1,0,0,5.9969,Basalt_rect,12,0,12,0,1,
615d2de8bfd11d57af47423a,SCR,2024-06-20_16h30.58.232,LearnStrategy,2023.2.3,Win32,59.88023952,2,2,14,,,,,,,,5,08,,,,,,,,,,,,,5,1.525,1,,,,,,-0.385416667,-0.390625,1,0,0,1.5253,Obsidian_rect,13,0,13,0,1,
615d2de8bfd11d57af47423a,SCR,2024-06-20_16h30.58.232,LearnStrategy,2023.2.3,Win32,59.88023952,2,2,15,,,,,,,,7,04,,,,,,,,,,,,,3,3.114,0,,,,,,0.127604167,-0.255208333,1,0,0,3.1138,Diorite_rect,14,0,14,0,1,
615d2de8bfd11d57af47423a,SCR,2024-06-20_16h30.58.232,LearnStrategy,2023.2.3,Win32,59.88023952,2,2,16,,,,,,,,4,14,,,,,,,,,,,,,2,5.465,0,,,,,,-0.127604167,-0.251302083,1,0,0,5.4649,Basalt_rect,15,0,15,0,1,
615d2de8bfd11d57af47423a,SCR,2024-06-20_16h30.58.232,LearnStrategy,2023.2.3,Win32,59.88023952,3,1,1,-0.270833333,0.087239583,1,0,0,2.5539,Gabbro_15,4,15,4,3,2.554,4,15,0.135416667,-0.240885417,1,0,0,3.0435,Diorite_rect,3,3.043,0,0,0,0,0,1,,,,,,,,,,,,,
615d2de8bfd11d57af47423a,SCR,2024-06-20_16h30.58.232,LearnStrategy,2023.2.3,Win32,59.88023952,3,1,2,-0.55078125,0.421875,1,0,0,1.6621,Gabbro_08,4,08,6,1,1.662,1,03,0.381510417,-0.240885417,1,0,0,1.4742,Gabbro_rect,4,1.474,1,1,0,1,0,1,,,,,,,,,,,,,
615d2de8bfd11d57af47423a,SCR,2024-06-20_16h30.58.232,LearnStrategy,2023.2.3,Win32,59.88023952,3,1,3,-0.095052083,-0.11328125,1,0,0,4.1738,Peridotite_10,7,10,3,4,4.174,7,10,0.122395833,-0.393229167,1,0,0,3.7121,Peridotite_rect,7,3.712,1,2,0,2,0,1,,,,,,,,,,,,,
615d2de8bfd11d57af47423a,SCR,2024-06-20_16h30.58.232,LearnStrategy,2023.2.3,Win32,59.88023952,3,1,4,-0.22265625,-0.4375,1,0,0,3.0724,Andesite_09,1,09,1,3,3.072,1,09,0.092447917,-0.251302083,1,0,0,1.9367,Diorite_rect,3,1.937,0,3,0,3,0,1,,,,,,,,,,,,,
615d2de8bfd11d57af47423a,SCR,2024-06-20_16h30.58.232,LearnStrategy,2023.2.3,Win32,59.88023952,3,1,5,0.220052083,-0.424479167,1,0,0,2.0069,Basalt_10,2,10,1,6,2.007,2,10,-0.12890625,-0.25,1,0,0,7.0698,Basalt_rect,2,7.07,1,4,0,4,0,1,,,,,,,,,,,,,
615d2de8bfd11d57af47423a,SCR,2024-06-20_16h30.58.232,LearnStrategy,2023.2.3,Win32,59.88023952,3,1,6,0.240885417,0.395833333,1,0,0,2.432,Gabbro_05,4,05,6,6,2.432,4,05,0.140625,-0.252604167,1,0,0,2.0529,Diorite_rect,3,2.053,0,5,0,5,0,1,,,,,,,,,,,,,
615d2de8bfd11d57af47423a,SCR,2024-06-20_16h30.58.232,LearnStrategy,2023.2.3,Win32,59.88023952,3,1,7,-0.108072917,0.100260417,1,0,0,1.6621,Basalt_09,2,09,4,4,1.662,2,09,-0.11328125,-0.252604167,1,0,0,2.6231,Basalt_rect,2,2.623,1,6,0,6,0,1,,,,,,,,,,,,,
615d2de8bfd11d57af47423a,SCR,2024-06-20_16h30.58.232,LearnStrategy,2023.2.3,Win32,59.88023952,3,1,8,0.555989583,-0.2578125,1,0,0,1.7812,Pumice_09,8,09,2,8,1.781,8,09,0.43359375,-0.403645833,1,0,0,1.9017,Pumice_rect,8,1.902,1,7,0,7,0,1,,,,,,,,,,,,,
615d2de8bfd11d57af47423a,SCR,2024-06-20_16h30.58.232,LearnStrategy,2023.2.3,Win32,59.88023952,3,1,9,-0.595052083,-0.069010417,1,0,0,1.9107,Pegmatite_03,6,03,3,1,1.911,6,03,-0.10546875,-0.399739583,1,0,0,5.4661,Pegmatite_rect,6,5.466,1,8,0,8,0,1,,,,,,,,,,,,,
615d2de8bfd11d57af47423a,SCR,2024-06-20_16h30.58.232,LearnStrategy,2023.2.3,Win32,59.88023952,3,1,10,0.067708333,0.248697917,1,0,0,1.5083,Peridotite_06,7,06,5,5,1.508,7,06,0.14453125,-0.389322917,1,0,0,2.7429,Peridotite_rect,7,2.743,1,9,0,9,0,1,,,,,,,,,,,,,
615d2de8bfd11d57af47423a,SCR,2024-06-20_16h30.58.232,LearnStrategy,2023.2.3,Win32,59.88023952,3,1,11,-0.4453125,0.243489583,1,0,0,1.4714,Andesite_03,1,03,5,2,1.471,1,03,0.111979167,-0.256510417,1,0,0,2.2069,Diorite_rect,3,2.207,0,10,0,10,0,1,,,,,,,,,,,,,
615d2de8bfd11d57af47423a,SCR,2024-06-20_16h30.58.232,LearnStrategy,2023.2.3,Win32,59.88023952,3,1,12,-0.404947917,-0.26953125,1,0,0,2.6486,Pegmatite_15,6,15,2,2,2.649,6,15,-0.171875,-0.399739583,1,0,0,3.8472,Pegmatite_rect,6,3.847,1,11,0,11,0,1,,,,,,,,,,,,,
615d2de8bfd11d57af47423a,SCR,2024-06-20_16h30.58.232,LearnStrategy,2023.2.3,Win32,59.88023952,3,1,13,0.098958333,-0.111979167,1,0,0,1.2607,Peridotite_15,7,15,3,5,1.261,7,15,0.125,-0.2578125,1,0,0,1.8048,Diorite_rect,3,1.805,0,12,0,12,0,1,,,,,,,,,,,,,
615d2de8bfd11d57af47423a,SCR,2024-06-20_16h30.58.232,LearnStrategy,2023.2.3,Win32,59.88023952,3,1,14,0.5078125,0.075520833,1,0,0,1.8793,Diorite_11,3,11,4,8,1.879,3,11,0.13671875,-0.252604167,1,0,0,2.7718,Diorite_rect,3,2.772,1,13,0,13,0,1,,,,,,,,,,,,,
615d2de8bfd11d57af47423a,SCR,2024-06-20_16h30.58.232,LearnStrategy,2023.2.3,Win32,59.88023952,3,1,15,-0.071614583,-0.393229167,1,0,0,1.5312,Pegmatite_13,6,13,1,4,1.531,6,13,-0.125,-0.40625,1,0,0,4.4523,Pegmatite_rect,6,4.452,1,14,0,14,0,1,,,,,,,,,,,,,
615d2de8bfd11d57af47423a,SCR,2024-06-20_16h30.58.232,LearnStrategy,2023.2.3,Win32,59.88023952,3,1,16,0.234375,0.395833333,1,0,0,1.6667,Gabbro_05,4,05,6,6,1.667,4,05,0.36328125,-0.236979167,1,0,0,3.8878,Gabbro_rect,4,3.888,1,15,0,15,0,1,,,,,,,,,,,,,
615d2de8bfd11d57af47423a,SCR,2024-06-20_16h30.58.232,LearnStrategy,2023.2.3,Win32,59.88023952,3,2,1,,,,,,,,8,14,,,,,,,,,,,,,8,1.468,1,,,,,,0.334635417,-0.407552083,1,0,0,1.4682,Pumice_rect,0,0,0,0,1,
615d2de8bfd11d57af47423a,SCR,2024-06-20_16h30.58.232,LearnStrategy,2023.2.3,Win32,59.88023952,3,2,2,,,,,,,,7,14,,,,,,,,,,,,,7,8.349,1,,,,,,0.147135417,-0.389322917,1,0,0,8.3487,Peridotite_rect,1,0,1,0,1,
615d2de8bfd11d57af47423a,SCR,2024-06-20_16h30.58.232,LearnStrategy,2023.2.3,Win32,59.88023952,3,2,3,,,,,,,,1,16,,,,,,,,,,,,,4,7.218,0,,,,,,0.356770833,-0.24609375,1,0,0,7.2183,Gabbro_rect,2,0,2,0,1,
615d2de8bfd11d57af47423a,SCR,2024-06-20_16h30.58.232,LearnStrategy,2023.2.3,Win32,59.88023952,3,2,4,,,,,,,,4,12,,,,,,,,,,,,,2,3.594,0,,,,,,-0.134114583,-0.264322917,1,0,0,3.5945,Basalt_rect,3,0,3,0,1,
615d2de8bfd11d57af47423a,SCR,2024-06-20_16h30.58.232,LearnStrategy,2023.2.3,Win32,59.88023952,3,2,5,,,,,,,,5,16,,,,,,,,,,,,,5,1.339,1,,,,,,-0.348958333,-0.40234375,1,0,0,1.3391,Obsidian_rect,4,0,4,0,1,
615d2de8bfd11d57af47423a,SCR,2024-06-20_16h30.58.232,LearnStrategy,2023.2.3,Win32,59.88023952,3,2,6,,,,,,,,3,08,,,,,,,,,,,,,3,7.37,1,,,,,,0.115885417,-0.2578125,1,0,0,7.3704,Diorite_rect,5,0,5,0,1,
615d2de8bfd11d57af47423a,SCR,2024-06-20_16h30.58.232,LearnStrategy,2023.2.3,Win32,59.88023952,3,2,7,,,,,,,,6,16,,,,,,,,,,,,,6,6.427,1,,,,,,-0.147135417,-0.390625,1,0,0,6.4273,Pegmatite_rect,6,0,6,0,1,
615d2de8bfd11d57af47423a,SCR,2024-06-20_16h30.58.232,LearnStrategy,2023.2.3,Win32,59.88023952,3,2,8,,,,,,,,8,13,,,,,,,,,,,,,8,2.469,1,,,,,,0.358072917,-0.37890625,1,0,0,2.4692,Pumice_rect,7,0,7,0,1,
615d2de8bfd11d57af47423a,SCR,2024-06-20_16h30.58.232,LearnStrategy,2023.2.3,Win32,59.88023952,3,2,9,,,,,,,,1,05,,,,,,,,,,,,,3,3.355,0,,,,,,0.13671875,-0.255208333,1,0,0,3.3554,Diorite_rect,8,0,8,0,1,
615d2de8bfd11d57af47423a,SCR,2024-06-20_16h30.58.232,LearnStrategy,2023.2.3,Win32,59.88023952,3,2,10,,,,,,,,7,16,,,,,,,,,,,,,4,7.726,0,,,,,,0.337239583,-0.23828125,1,0,0,7.7264,Gabbro_rect,9,0,9,0,1,
615d2de8bfd11d57af47423a,SCR,2024-06-20_16h30.58.232,LearnStrategy,2023.2.3,Win32,59.88023952,3,2,11,,,,,,,,3,13,,,,,,,,,,,,,3,1.641,1,,,,,,0.1640625,-0.252604167,1,0,0,1.6414,Diorite_rect,10,0,10,0,1,
615d2de8bfd11d57af47423a,SCR,2024-06-20_16h30.58.232,LearnStrategy,2023.2.3,Win32,59.88023952,3,2,12,,,,,,,,6,11,,,,,,,,,,,,,6,3.798,1,,,,,,-0.102864583,-0.395833333,1,0,0,3.7984,Pegmatite_rect,11,0,11,0,1,
615d2de8bfd11d57af47423a,SCR,2024-06-20_16h30.58.232,LearnStrategy,2023.2.3,Win32,59.88023952,3,2,13,,,,,,,,4,13,,,,,,,,,,,,,1,4.284,0,,,,,,-0.3828125,-0.26171875,1,0,0,4.2843,Andesite_rect,12,0,12,0,1,
615d2de8bfd11d57af47423a,SCR,2024-06-20_16h30.58.232,LearnStrategy,2023.2.3,Win32,59.88023952,3,2,14,,,,,,,,5,09,,,,,,,,,,,,,5,1.432,1,,,,,,-0.39453125,-0.390625,1,0,0,1.4321,Obsidian_rect,13,0,13,0,1,
615d2de8bfd11d57af47423a,SCR,2024-06-20_16h30.58.232,LearnStrategy,2023.2.3,Win32,59.88023952,3,2,15,,,,,,,,2,02,,,,,,,,,,,,,2,2.78,1,,,,,,-0.102864583,-0.23828125,1,0,0,2.7804,Basalt_rect,14,0,14,0,1,
615d2de8bfd11d57af47423a,SCR,2024-06-20_16h30.58.232,LearnStrategy,2023.2.3,Win32,59.88023952,3,2,16,,,,,,,,2,08,,,,,,,,,,,,,2,1.392,1,,,,,,-0.102864583,-0.23828125,1,0,0,1.3916,Basalt_rect,15,0,15,0,1,
615d2de8bfd11d57af47423a,SCR,2024-06-20_16h30.58.232,LearnStrategy,2023.2.3,Win32,59.88023952,4,1,1,-0.076822917,-0.25,1,0,0,2.4989,Pumice_06,8,06,2,4,2.499,8,06,0.399739583,-0.407552083,1,0,0,1.5328,Pumice_rect,8,1.533,1,0,0,0,0,1,,,,,,,,,,,,,
615d2de8bfd11d57af47423a,SCR,2024-06-20_16h30.58.232,LearnStrategy,2023.2.3,Win32,59.88023952,4,1,2,-0.26953125,0.083333333,1,0,0,1.7547,Gabbro_15,4,15,4,3,1.755,4,15,-0.325520833,-0.24609375,1,0,0,10.007,Andesite_rect,1,10.007,0,1,0,1,0,1,,,,,,,,,,,,,
615d2de8bfd11d57af47423a,SCR,2024-06-20_16h30.58.232,LearnStrategy,2023.2.3,Win32,59.88023952,4,1,3,-0.524739583,0.389322917,1,0,0,1.5116,Gabbro_08,4,08,6,1,1.512,4,08,0.34375,-0.240885417,1,0,0,1.7926,Gabbro_rect,4,1.793,1,2,0,2,0,1,,,,,,,,,,,,,
615d2de8bfd11d57af47423a,SCR,2024-06-20_16h30.58.232,LearnStrategy,2023.2.3,Win32,59.88023952,4,1,4,-0.233072917,-0.40234375,1,0,0,1.6142,Andesite_09,1,09,1,3,1.614,1,09,0.091145833,-0.26171875,1,0,0,2.1677,Diorite_rect,3,2.168,0,3,0,3,0,1,,,,,,,,,,,,,
615d2de8bfd11d57af47423a,SCR,2024-06-20_16h30.58.232,LearnStrategy,2023.2.3,Win32,59.88023952,4,1,5,0.528645833,-0.118489583,1,0,0,2.002,Andesite_07,1,07,3,8,2.002,1,07,-0.083333333,-0.408854167,1,0,0,5.3419,Pegmatite_rect,6,5.342,0,4,0,4,0,1,,,,,,,,,,,,,
615d2de8bfd11d57af47423a,SCR,2024-06-20_16h30.58.232,LearnStrategy,2023.2.3,Win32,59.88023952,4,1,6,0.059895833,-0.427083333,1,0,0,2.4593,Basalt_06,2,06,1,5,2.459,2,06,-0.095052083,-0.236979167,1,0,0,2.8496,Basalt_rect,2,2.85,1,5,0,5,0,1,,,,,,,,,,,,,
615d2de8bfd11d57af47423a,SCR,2024-06-20_16h30.58.232,LearnStrategy,2023.2.3,Win32,59.88023952,4,1,7,0.563802083,-0.42578125,1,0,0,2.0439,Diorite_10,3,10,1,8,2.044,3,10,0.352864583,-0.24609375,1,0,0,3.8076,Gabbro_rect,4,3.808,0,6,0,6,0,1,,,,,,,,,,,,,
615d2de8bfd11d57af47423a,SCR,2024-06-20_16h30.58.232,LearnStrategy,2023.2.3,Win32,59.88023952,4,1,8,-0.102864583,-0.110677083,1,0,0,1.8099,Peridotite_10,7,10,3,4,1.81,7,10,-0.143229167,-0.401041667,1,0,0,6.4941,Pegmatite_rect,6,6.494,0,7,0,7,0,1,,,,,,,,,,,,,
615d2de8bfd11d57af47423a,SCR,2024-06-20_16h30.58.232,LearnStrategy,2023.2.3,Win32,59.88023952,4,1,9,0.08203125,-0.111979167,1,0,0,2.2235,Peridotite_15,7,15,3,5,2.224,7,15,0.154947917,-0.4140625,1,0,0,1.6582,Peridotite_rect,7,1.658,1,8,0,8,0,1,,,,,,,,,,,,,
615d2de8bfd11d57af47423a,SCR,2024-06-20_16h30.58.232,LearnStrategy,2023.2.3,Win32,59.88023952,4,1,10,-0.384114583,-0.2734375,1,0,0,1.5198,Pegmatite_15,6,15,2,2,1.52,6,15,-0.09375,-0.407552083,1,0,0,1.5957,Pegmatite_rect,6,1.596,1,9,0,9,0,1,,,,,,,,,,,,,
615d2de8bfd11d57af47423a,SCR,2024-06-20_16h30.58.232,LearnStrategy,2023.2.3,Win32,59.88023952,4,1,11,-0.37890625,-0.4375,1,0,0,1.6186,Pegmatite_05,6,05,1,2,1.619,6,05,-0.0625,-0.420572917,1,0,0,4.3679,Pegmatite_rect,6,4.368,1,10,0,10,0,1,,,,,,,,,,,,,
615d2de8bfd11d57af47423a,SCR,2024-06-20_16h30.58.232,LearnStrategy,2023.2.3,Win32,59.88023952,4,1,12,-0.5078125,0.084635417,1,0,0,1.8579,Gabbro_01,4,01,4,1,1.858,4,01,0.361979167,-0.236979167,1,0,0,6.0255,Gabbro_rect,4,6.025,1,11,0,11,0,1,,,,,,,,,,,,,
615d2de8bfd11d57af47423a,SCR,2024-06-20_16h30.58.232,LearnStrategy,2023.2.3,Win32,59.88023952,4,1,13,0.36328125,-0.393229167,1,0,0,1.548,Andesite_02,1,02,1,7,1.548,1,02,0.365885417,-0.239583333,1,0,0,3.0703,Gabbro_rect,4,3.07,0,12,0,12,0,1,,,,,,,,,,,,,
615d2de8bfd11d57af47423a,SCR,2024-06-20_16h30.58.232,LearnStrategy,2023.2.3,Win32,59.88023952,4,1,14,0.415364583,-0.075520833,1,0,0,1.8306,Peridotite_05,7,05,3,7,1.831,7,05,0.119791667,-0.391927083,1,0,0,7.9392,Peridotite_rect,7,7.939,1,13,0,13,0,1,,,,,,,,,,,,,
615d2de8bfd11d57af47423a,SCR,2024-06-20_16h30.58.232,LearnStrategy,2023.2.3,Win32,59.88023952,4,1,15,0.354166667,0.3828125,1,0,0,1.553,Gabbro_11,4,11,6,7,1.553,4,11,-0.115885417,-0.252604167,1,0,0,1.9509,Basalt_rect,2,1.951,0,14,0,14,0,1,,,,,,,,,,,,,
615d2de8bfd11d57af47423a,SCR,2024-06-20_16h30.58.232,LearnStrategy,2023.2.3,Win32,59.88023952,4,1,16,-0.23046875,-0.447916667,1,0,0,1.4684,Andesite_09,1,09,1,3,1.468,1,09,0.076822917,-0.390625,1,0,0,3.9306,Peridotite_rect,7,3.931,0,15,0,15,0,1,,,,,,,,,,,,,
615d2de8bfd11d57af47423a,SCR,2024-06-20_16h30.58.232,LearnStrategy,2023.2.3,Win32,59.88023952,4,2,1,,,,,,,,2,05,,,,,,,,,,,,,2,1.931,1,,,,,,-0.1328125,-0.244791667,1,0,0,1.9312,Basalt_rect,0,0,0,0,1,
615d2de8bfd11d57af47423a,SCR,2024-06-20_16h30.58.232,LearnStrategy,2023.2.3,Win32,59.88023952,4,2,2,,,,,,,,8,15,,,,,,,,,,,,,8,1.563,1,,,,,,0.3515625,-0.401041667,1,0,0,1.5626,Pumice_rect,1,0,1,0,1,
615d2de8bfd11d57af47423a,SCR,2024-06-20_16h30.58.232,LearnStrategy,2023.2.3,Win32,59.88023952,4,2,3,,,,,,,,6,12,,,,,,,,,,,,,6,3.209,1,,,,,,-0.131510417,-0.391927083,1,0,0,3.2091,Pegmatite_rect,2,0,2,0,1,
615d2de8bfd11d57af47423a,SCR,2024-06-20_16h30.58.232,LearnStrategy,2023.2.3,Win32,59.88023952,4,2,4,,,,,,,,8,14,,,,,,,,,,,,,8,3.105,1,,,,,,0.360677083,-0.388020833,1,0,0,3.1049,Pumice_rect,3,0,3,0,1,
615d2de8bfd11d57af47423a,SCR,2024-06-20_16h30.58.232,LearnStrategy,2023.2.3,Win32,59.88023952,4,2,5,,,,,,,,5,05,,,,,,,,,,,,,5,4.435,1,,,,,,-0.352864583,-0.408854167,1,0,0,4.4349,Obsidian_rect,4,0,4,0,1,
615d2de8bfd11d57af47423a,SCR,2024-06-20_16h30.58.232,LearnStrategy,2023.2.3,Win32,59.88023952,4,2,6,,,,,,,,7,12,,,,,,,,,,,,,7,7.716,1,,,,,,0.111979167,-0.39453125,1,0,0,7.7156,Peridotite_rect,5,0,5,0,1,
615d2de8bfd11d57af47423a,SCR,2024-06-20_16h30.58.232,LearnStrategy,2023.2.3,Win32,59.88023952,4,2,7,,,,,,,,3,13,,,,,,,,,,,,,7,1.672,0,,,,,,0.111979167,-0.395833333,1,0,0,1.6725,Peridotite_rect,6,0,6,0,1,
615d2de8bfd11d57af47423a,SCR,2024-06-20_16h30.58.232,LearnStrategy,2023.2.3,Win32,59.88023952,4,2,8,,,,,,,,4,12,,,,,,,,,,,,,2,2.679,0,,,,,,-0.139322917,-0.233072917,1,0,0,2.6787,Basalt_rect,7,0,7,0,1,
615d2de8bfd11d57af47423a,SCR,2024-06-20_16h30.58.232,LearnStrategy,2023.2.3,Win32,59.88023952,4,2,9,,,,,,,,5,07,,,,,,,,,,,,,5,1.605,1,,,,,,-0.393229167,-0.397135417,1,0,0,1.6052,Obsidian_rect,8,0,8,0,1,
615d2de8bfd11d57af47423a,SCR,2024-06-20_16h30.58.232,LearnStrategy,2023.2.3,Win32,59.88023952,4,2,10,,,,,,,,2,08,,,,,,,,,,,,,2,3.094,1,,,,,,-0.151041667,-0.243489583,1,0,0,3.0936,Basalt_rect,9,0,9,0,1,
615d2de8bfd11d57af47423a,SCR,2024-06-20_16h30.58.232,LearnStrategy,2023.2.3,Win32,59.88023952,4,2,11,,,,,,,,6,16,,,,,,,,,,,,,6,2.179,1,,,,,,-0.1640625,-0.384114583,1,0,0,2.1788,Pegmatite_rect,10,0,10,0,1,
615d2de8bfd11d57af47423a,SCR,2024-06-20_16h30.58.232,LearnStrategy,2023.2.3,Win32,59.88023952,4,2,12,,,,,,,,1,05,,,,,,,,,,,,,7,6.176,0,,,,,,0.102864583,-0.397135417,1,0,0,6.1756,Peridotite_rect,11,0,11,0,1,
615d2de8bfd11d57af47423a,SCR,2024-06-20_16h30.58.232,LearnStrategy,2023.2.3,Win32,59.88023952,4,2,13,,,,,,,,7,07,,,,,,,,,,,,,6,4.288,0,,,,,,-0.108072917,-0.399739583,1,0,0,4.2878,Pegmatite_rect,12,0,12,0,1,
615d2de8bfd11d57af47423a,SCR,2024-06-20_16h30.58.232,LearnStrategy,2023.2.3,Win32,59.88023952,4,2,14,,,,,,,,1,11,,,,,,,,,,,,,2,5.383,0,,,,,,-0.115885417,-0.251302083,1,0,0,5.3835,Basalt_rect,13,0,13,0,1,
615d2de8bfd11d57af47423a,SCR,2024-06-20_16h30.58.232,LearnStrategy,2023.2.3,Win32,59.88023952,4,2,15,,,,,,,,4,13,,,,,,,,,,,,,1,7.539,0,,,,,,-0.348958333,-0.256510417,1,0,0,7.5394,Andesite_rect,14,0,14,0,1,
615d2de8bfd11d57af47423a,SCR,2024-06-20_16h30.58.232,LearnStrategy,2023.2.3,Win32,59.88023952,4,2,16,,,,,,,,3,15,,,,,,,,,,,,,7,2.987,0,,,,,,0.098958333,-0.39453125,1,0,0,2.9867,Peridotite_rect,15,0,15,0,1,
615d2de8bfd11d57af47423a,SCR,2024-06-20_16h30.58.232,LearnStrategy,2023.2.3,Win32,59.88023952,5,1,1,-0.23828125,-0.427083333,1,0,0,2.6603,Andesite_09,1,09,1,3,2.66,1,09,0.114583333,-0.407552083,1,0,0,3.6149,Peridotite_rect,7,3.615,0,0,0,0,0,1,,,,,,,,,,,,,
615d2de8bfd11d57af47423a,SCR,2024-06-20_16h30.58.232,LearnStrategy,2023.2.3,Win32,59.88023952,5,1,2,0.528645833,0.375,1,0,0,1.9698,Peridotite_13,7,13,6,8,1.97,7,13,-0.15234375,-0.244791667,1,0,0,2.6702,Basalt_rect,2,2.67,0,1,0,1,0,1,,,,,,,,,,,,,
615d2de8bfd11d57af47423a,SCR,2024-06-20_16h30.58.232,LearnStrategy,2023.2.3,Win32,59.88023952,5,1,3,-0.53125,0.06640625,1,0,0,1.5571,Gabbro_01,4,01,4,1,1.557,4,01,-0.134114583,-0.407552083,1,0,0,4.2386,Pegmatite_rect,6,4.239,0,2,0,2,0,1,,,,,,,,,,,,,
615d2de8bfd11d57af47423a,SCR,2024-06-20_16h30.58.232,LearnStrategy,2023.2.3,Win32,59.88023952,5,1,4,-0.524739583,0.399739583,1,0,0,1.6102,Gabbro_08,4,08,6,1,1.61,3,09,0.43359375,-0.265625,1,0,0,1.917,Gabbro_rect,4,1.917,1,3,0,3,0,1,,,,,,,,,,,,,
615d2de8bfd11d57af47423a,SCR,2024-06-20_16h30.58.232,LearnStrategy,2023.2.3,Win32,59.88023952,5,1,5,-0.43359375,0.28515625,1,0,0,1.3655,Andesite_03,1,03,5,2,1.365,1,03,-0.434895833,-0.233072917,1,0,0,5.3797,Andesite_rect,1,5.38,1,4,0,4,0,1,,,,,,,,,,,,,
615d2de8bfd11d57af47423a,SCR,2024-06-20_16h30.58.232,LearnStrategy,2023.2.3,Win32,59.88023952,5,1,6,0.39453125,-0.427083333,1,0,0,1.3314,Andesite_02,1,02,1,7,1.331,1,02,-0.348958333,-0.248697917,1,0,0,3.6306,Andesite_rect,1,3.631,1,5,0,5,0,1,,,,,,,,,,,,,
615d2de8bfd11d57af47423a,SCR,2024-06-20_16h30.58.232,LearnStrategy,2023.2.3,Win32,59.88023952,5,1,7,-0.09765625,0.248697917,1,0,0,1.282,Andesite_01,1,01,5,4,1.282,1,01,-0.384114583,-0.260416667,1,0,0,2.5473,Andesite_rect,1,2.547,1,6,0,6,0,1,,,,,,,,,,,,,
615d2de8bfd11d57af47423a,SCR,2024-06-20_16h30.58.232,LearnStrategy,2023.2.3,Win32,59.88023952,5,1,8,-0.541666667,-0.12109375,1,0,0,1.6298,Pegmatite_03,6,03,3,1,1.63,6,03,-0.201822917,-0.404947917,1,0,0,2.6184,Pegmatite_rect,6,2.618,1,7,0,7,0,1,,,,,,,,,,,,,
615d2de8bfd11d57af47423a,SCR,2024-06-20_16h30.58.232,LearnStrategy,2023.2.3,Win32,59.88023952,5,1,9,0.048177083,-0.252604167,1,0,0,1.2336,Basalt_16,2,16,2,5,1.234,2,16,0.373697917,-0.407552083,1,0,0,3.2235,Pumice_rect,8,3.224,0,8,0,8,0,1,,,,,,,,,,,,,
615d2de8bfd11d57af47423a,SCR,2024-06-20_16h30.58.232,LearnStrategy,2023.2.3,Win32,59.88023952,5,1,10,0.5390625,0.076822917,1,0,0,1.4644,Diorite_11,3,11,4,8,1.464,3,11,-0.399739583,-0.25390625,1,0,0,5.823,Andesite_rect,1,5.823,0,9,0,9,0,1,,,,,,,,,,,,,
615d2de8bfd11d57af47423a,SCR,2024-06-20_16h30.58.232,LearnStrategy,2023.2.3,Win32,59.88023952,5,1,11,0.09375,-0.110677083,1,0,0,0.9127,Peridotite_15,7,15,3,5,0.913,7,15,0.127604167,-0.388020833,1,0,0,2.9594,Peridotite_rect,7,2.959,1,10,0,10,0,1,,,,,,,,,,,,,
615d2de8bfd11d57af47423a,SCR,2024-06-20_16h30.58.232,LearnStrategy,2023.2.3,Win32,59.88023952,5,1,12,-0.256510417,0.102864583,1,0,0,1.3504,Gabbro_15,4,15,4,3,1.35,4,15,-0.123697917,-0.3828125,1,0,0,5.8561,Pegmatite_rect,6,5.856,0,11,0,11,0,1,,,,,,,,,,,,,
615d2de8bfd11d57af47423a,SCR,2024-06-20_16h30.58.232,LearnStrategy,2023.2.3,Win32,59.88023952,5,1,13,0.368489583,0.216145833,1,0,0,2.0985,Pumice_08,8,08,5,7,2.099,8,08,0.377604167,-0.403645833,1,0,0,1.2872,Pumice_rect,8,1.287,1,12,0,12,0,1,,,,,,,,,,,,,
615d2de8bfd11d57af47423a,SCR,2024-06-20_16h30.58.232,LearnStrategy,2023.2.3,Win32,59.88023952,5,1,14,-0.592447917,-0.29296875,1,0,0,1.2149,Gabbro_03,4,03,2,1,1.215,4,03,-0.39453125,-0.234375,1,0,0,5.1602,Andesite_rect,1,5.16,0,13,0,13,0,1,,,,,,,,,,,,,
615d2de8bfd11d57af47423a,SCR,2024-06-20_16h30.58.232,LearnStrategy,2023.2.3,Win32,59.88023952,5,1,15,-0.600260417,0.399739583,1,0,0,1.8534,Gabbro_08,4,08,6,1,1.853,4,08,0.42578125,-0.263020833,1,0,0,2.6031,Gabbro_rect,4,2.603,1,14,0,14,0,1,,,,,,,,,,,,,
615d2de8bfd11d57af47423a,SCR,2024-06-20_16h30.58.232,LearnStrategy,2023.2.3,Win32,59.88023952,5,1,16,0.071614583,0.235677083,1,0,0,2.9809,Peridotite_06,7,06,5,5,2.981,7,06,0.141927083,-0.38671875,1,0,0,2.6607,Peridotite_rect,7,2.661,1,15,0,15,0,1,,,,,,,,,,,,,
615d2de8bfd11d57af47423a,SCR,2024-06-20_16h30.58.232,LearnStrategy,2023.2.3,Win32,59.88023952,5,2,1,,,,,,,,2,02,,,,,,,,,,,,,2,4.081,1,,,,,,-0.130208333,-0.265625,1,0,0,4.0812,Basalt_rect,0,0,0,0,1,
615d2de8bfd11d57af47423a,SCR,2024-06-20_16h30.58.232,LearnStrategy,2023.2.3,Win32,59.88023952,5,2,2,,,,,,,,5,09,,,,,,,,,,,,,5,1.532,1,,,,,,-0.3515625,-0.39453125,1,0,0,1.5322,Obsidian_rect,1,0,1,0,1,
615d2de8bfd11d57af47423a,SCR,2024-06-20_16h30.58.232,LearnStrategy,2023.2.3,Win32,59.88023952,5,2,3,,,,,,,,7,04,,,,,,,,,,,,,6,8.538,0,,,,,,-0.1484375,-0.393229167,1,0,0,8.5382,Pegmatite_rect,2,0,2,0,1,
615d2de8bfd11d57af47423a,SCR,2024-06-20_16h30.58.232,LearnStrategy,2023.2.3,Win32,59.88023952,5,2,4,,,,,,,,4,09,,,,,,,,,,,,,2,2.901,0,,,,,,-0.135416667,-0.247395833,1,0,0,2.9005,Basalt_rect,3,0,3,0,1,
615d2de8bfd11d57af47423a,SCR,2024-06-20_16h30.58.232,LearnStrategy,2023.2.3,Win32,59.88023952,5,2,5,,,,,,,,4,10,,,,,,,,,,,,,2,3.693,0,,,,,,-0.135416667,-0.247395833,1,0,0,3.693,Basalt_rect,4,0,4,0,1,
615d2de8bfd11d57af47423a,SCR,2024-06-20_16h30.58.232,LearnStrategy,2023.2.3,Win32,59.88023952,5,2,6,,,,,,,,5,16,,,,,,,,,,,,,5,1.537,1,,,,,,-0.3359375,-0.3828125,1,0,0,1.5367,Obsidian_rect,5,0,5,0,1,
615d2de8bfd11d57af47423a,SCR,2024-06-20_16h30.58.232,LearnStrategy,2023.2.3,Win32,59.88023952,5,2,7,,,,,,,,7,16,,,,,,,,,,,,,1,4.393,0,,,,,,-0.365885417,-0.25,1,0,0,4.3934,Andesite_rect,6,0,6,0,1,
615d2de8bfd11d57af47423a,SCR,2024-06-20_16h30.58.232,LearnStrategy,2023.2.3,Win32,59.88023952,5,2,8,,,,,,,,1,04,,,,,,,,,,,,,1,2.844,1,,,,,,-0.365885417,-0.25,1,0,0,2.8444,Andesite_rect,7,0,7,0,1,
615d2de8bfd11d57af47423a,SCR,2024-06-20_16h30.58.232,LearnStrategy,2023.2.3,Win32,59.88023952,5,2,9,,,,,,,,6,07,,,,,,,,,,,,,6,2.289,1,,,,,,-0.1640625,-0.388020833,1,0,0,2.2893,Pegmatite_rect,8,0,8,0,1,
615d2de8bfd11d57af47423a,SCR,2024-06-20_16h30.58.232,LearnStrategy,2023.2.3,Win32,59.88023952,5,2,10,,,,,,,,6,09,,,,,,,,,,,,,6,1.118,1,,,,,,-0.1640625,-0.389322917,1,0,0,1.1184,Pegmatite_rect,9,0,9,0,1,
615d2de8bfd11d57af47423a,SCR,2024-06-20_16h30.58.232,LearnStrategy,2023.2.3,Win32,59.88023952,5,2,11,,,,,,,,3,07,,,,,,,,,,,,,7,7.787,0,,,,,,0.084635417,-0.38671875,1,0,0,7.7873,Peridotite_rect,10,0,10,0,1,
615d2de8bfd11d57af47423a,SCR,2024-06-20_16h30.58.232,LearnStrategy,2023.2.3,Win32,59.88023952,5,2,12,,,,,,,,8,13,,,,,,,,,,,,,8,1.713,1,,,,,,0.337239583,-0.395833333,1,0,0,1.713,Pumice_rect,11,0,11,0,1,
615d2de8bfd11d57af47423a,SCR,2024-06-20_16h30.58.232,LearnStrategy,2023.2.3,Win32,59.88023952,5,2,13,,,,,,,,2,14,,,,,,,,,,,,,8,2.175,0,,,,,,0.326822917,-0.40234375,1,0,0,2.1748,Pumice_rect,12,0,12,0,1,
615d2de8bfd11d57af47423a,SCR,2024-06-20_16h30.58.232,LearnStrategy,2023.2.3,Win32,59.88023952,5,2,14,,,,,,,,8,03,,,,,,,,,,,,,8,1.099,1,,,,,,0.326822917,-0.40234375,1,0,0,1.0986,Pumice_rect,13,0,13,0,1,
615d2de8bfd11d57af47423a,SCR,2024-06-20_16h30.58.232,LearnStrategy,2023.2.3,Win32,59.88023952,5,2,15,,,,,,,,1,10,,,,,,,,,,,,,1,3.623,1,,,,,,-0.37890625,-0.243489583,1,0,0,3.6228,Andesite_rect,14,0,14,0,1,
615d2de8bfd11d57af47423a,SCR,2024-06-20_16h30.58.232,LearnStrategy,2023.2.3,Win32,59.88023952,5,2,16,,,,,,,,3,02,,,,,,,,,,,,,4,2.462,0,,,,,,0.32421875,-0.248697917,1,0,0,2.4615,Gabbro_rect,15,0,15,0,1,
615d2de8bfd11d57af47423a,SCR,2024-06-20_16h30.58.232,LearnStrategy,2023.2.3,Win32,59.88023952,6,1,1,-0.217447917,0.388020833,1,0,0,1.8959,Peridotite_02,7,02,6,3,1.896,7,02,0.178385417,-0.39453125,1,0,0,4.5993,Peridotite_rect,7,4.599,1,0,0,0,0,1,,,,,,,,,,,,,
615d2de8bfd11d57af47423a,SCR,2024-06-20_16h30.58.232,LearnStrategy,2023.2.3,Win32,59.88023952,6,1,2,0.404947917,0.430989583,1,0,0,2.0014,Gabbro_11,4,11,6,7,2.001,4,11,0.361979167,-0.234375,1,0,0,3.8772,Gabbro_rect,4,3.877,1,1,0,1,0,1,,,,,,,,,,,,,
615d2de8bfd11d57af47423a,SCR,2024-06-20_16h30.58.232,LearnStrategy,2023.2.3,Win32,59.88023952,6,1,3,0.0546875,0.399739583,1,0,0,1.5445,Basalt_11,2,11,6,5,1.544,2,11,0.376302083,-0.41015625,1,0,0,1.9651,Pumice_rect,8,1.965,0,2,0,2,0,1,,,,,,,,,,,,,
615d2de8bfd11d57af47423a,SCR,2024-06-20_16h30.58.232,LearnStrategy,2023.2.3,Win32,59.88023952,6,1,4,-0.108072917,-0.104166667,1,0,0,1.1991,Peridotite_10,7,10,3,4,1.199,7,10,0.1015625,-0.389322917,1,0,0,1.6518,Peridotite_rect,7,1.652,1,3,0,3,0,1,,,,,,,,,,,,,
615d2de8bfd11d57af47423a,SCR,2024-06-20_16h30.58.232,LearnStrategy,2023.2.3,Win32,59.88023952,6,1,5,-0.548177083,-0.276041667,1,0,0,1.5655,Gabbro_03,4,03,2,1,1.565,4,03,-0.395833333,-0.2421875,1,0,0,2.1049,Andesite_rect,1,2.105,0,4,0,4,0,1,,,,,,,,,,,,,
615d2de8bfd11d57af47423a,SCR,2024-06-20_16h30.58.232,LearnStrategy,2023.2.3,Win32,59.88023952,6,1,6,0.348958333,0.048177083,1,0,0,1.4223,Diorite_12,3,12,4,7,1.422,3,12,-0.423177083,-0.255208333,1,0,0,4.0598,Andesite_rect,1,4.06,0,5,0,5,0,1,,,,,,,,,,,,,
615d2de8bfd11d57af47423a,SCR,2024-06-20_16h30.58.232,LearnStrategy,2023.2.3,Win32,59.88023952,6,1,7,-0.20703125,0.083333333,1,0,0,1.3482,Gabbro_15,4,15,4,3,1.348,4,15,0.106770833,-0.2578125,1,0,0,2.203,Diorite_rect,3,2.203,0,6,0,6,0,1,,,,,,,,,,,,,
615d2de8bfd11d57af47423a,SCR,2024-06-20_16h30.58.232,LearnStrategy,2023.2.3,Win32,59.88023952,6,1,8,-0.421875,0.247395833,1,0,0,1.7868,Andesite_03,1,03,5,2,1.787,1,03,-0.372395833,-0.25390625,1,0,0,1.9635,Andesite_rect,1,1.964,1,7,0,7,0,1,,,,,,,,,,,,,
615d2de8bfd11d57af47423a,SCR,2024-06-20_16h30.58.232,LearnStrategy,2023.2.3,Win32,59.88023952,6,1,9,0.541666667,0.0703125,1,0,0,1.8685,Diorite_11,3,11,4,8,1.868,3,11,0.139322917,-0.24609375,1,0,0,6.5594,Diorite_rect,3,6.559,1,8,0,8,0,1,,,,,,,,,,,,,
615d2de8bfd11d57af47423a,SCR,2024-06-20_16h30.58.232,LearnStrategy,2023.2.3,Win32,59.88023952,6,1,10,0.239583333,-0.11328125,1,0,0,1.4417,Diorite_14,3,14,3,6,1.442,3,14,-0.35546875,-0.240885417,1,0,0,6.1114,Andesite_rect,1,6.111,0,9,0,9,0,1,,,,,,,,,,,,,
615d2de8bfd11d57af47423a,SCR,2024-06-20_16h30.58.232,LearnStrategy,2023.2.3,Win32,59.88023952,6,1,11,0.223958333,0.384114583,1,0,0,2.181,Gabbro_05,4,05,6,6,2.181,4,05,-0.135416667,-0.248697917,1,0,0,7.0465,Basalt_rect,2,7.047,0,10,0,10,0,1,,,,,,,,,,,,,
615d2de8bfd11d57af47423a,SCR,2024-06-20_16h30.58.232,LearnStrategy,2023.2.3,Win32,59.88023952,6,1,12,0.555989583,0.39453125,1,0,0,1.8818,Peridotite_13,7,13,6,8,1.882,7,13,-0.075520833,-0.235677083,1,0,0,3.2529,Basalt_rect,2,3.253,0,11,0,11,0,1,,,,,,,,,,,,,
615d2de8bfd11d57af47423a,SCR,2024-06-20_16h30.58.232,LearnStrategy,2023.2.3,Win32,59.88023952,6,1,13,-0.578125,0.2421875,1,0,0,2.7622,Andesite_06,1,06,5,1,2.762,1,06,-0.432291667,-0.263020833,1,0,0,2.7643,Andesite_rect,1,2.764,1,12,0,12,0,1,,,,,,,,,,,,,
615d2de8bfd11d57af47423a,SCR,2024-06-20_16h30.58.232,LearnStrategy,2023.2.3,Win32,59.88023952,6,1,14,-0.229166667,-0.23828125,1,0,0,1.3472,Pegmatite_10,6,10,2,3,1.347,6,10,-0.192708333,-0.39453125,1,0,0,2.5321,Pegmatite_rect,6,2.532,1,13,0,13,0,1,,,,,,,,,,,,,
615d2de8bfd11d57af47423a,SCR,2024-06-20_16h30.58.232,LearnStrategy,2023.2.3,Win32,59.88023952,6,1,15,0.552083333,-0.252604167,1,0,0,1.7977,Pumice_09,8,09,2,8,1.798,8,09,0.391927083,-0.411458333,1,0,0,1.8148,Pumice_rect,8,1.815,1,14,0,14,0,1,,,,,,,,,,,,,
615d2de8bfd11d57af47423a,SCR,2024-06-20_16h30.58.232,LearnStrategy,2023.2.3,Win32,59.88023952,6,1,16,0.227864583,-0.423177083,1,0,0,1.2617,Basalt_10,2,10,1,6,1.262,2,10,-0.170572917,-0.255208333,1,0,0,1.5537,Basalt_rect,2,1.554,1,15,0,15,0,1,,,,,,,,,,,,,
615d2de8bfd11d57af47423a,SCR,2024-06-20_16h30.58.232,LearnStrategy,2023.2.3,Win32,59.88023952,6,2,1,,,,,,,,7,14,,,,,,,,,,,,,7,4.437,1,,,,,,0.13671875,-0.395833333,1,0,0,4.4371,Peridotite_rect,0,0,0,0,1,
615d2de8bfd11d57af47423a,SCR,2024-06-20_16h30.58.232,LearnStrategy,2023.2.3,Win32,59.88023952,6,2,2,,,,,,,,3,08,,,,,,,,,,,,,7,2.39,0,,,,,,0.13671875,-0.395833333,1,0,0,2.3901,Peridotite_rect,1,0,1,0,1,
615d2de8bfd11d57af47423a,SCR,2024-06-20_16h30.58.232,LearnStrategy,2023.2.3,Win32,59.88023952,6,2,3,,,,,,,,1,14,,,,,,,,,,,,,8,1.61,0,,,,,,0.39453125,-0.39453125,1,0,0,1.6097,Pumice_rect,2,0,2,0,1,
615d2de8bfd11d57af47423a,SCR,2024-06-20_16h30.58.232,LearnStrategy,2023.2.3,Win32,59.88023952,6,2,4,,,,,,,,6,11,,,,,,,,,,,,,6,2.125,1,,,,,,-0.114583333,-0.408854167,1,0,0,2.1251,Pegmatite_rect,3,0,3,0,1,
615d2de8bfd11d57af47423a,SCR,2024-06-20_16h30.58.232,LearnStrategy,2023.2.3,Win32,59.88023952,6,2,5,,,,,,,,7,08,,,,,,,,,,,,,8,3.985,0,,,,,,0.325520833,-0.38671875,1,0,0,3.9852,Pumice_rect,4,0,4,0,1,
615d2de8bfd11d57af47423a,SCR,2024-06-20_16h30.58.232,LearnStrategy,2023.2.3,Win32,59.88023952,6,2,6,,,,,,,,2,01,,,,,,,,,,,,,2,2.755,1,,,,,,-0.15625,-0.260416667,1,0,0,2.755,Basalt_rect,5,0,5,0,1,
615d2de8bfd11d57af47423a,SCR,2024-06-20_16h30.58.232,LearnStrategy,2023.2.3,Win32,59.88023952,6,2,7,,,,,,,,3,06,,,,,,,,,,,,,7,10.001,0,,,,,,0.1171875,-0.41015625,1,0,0,10.0009,Peridotite_rect,6,0,6,0,1,
615d2de8bfd11d57af47423a,SCR,2024-06-20_16h30.58.232,LearnStrategy,2023.2.3,Win32,59.88023952,6,2,8,,,,,,,,1,16,,,,,,,,,,,,,1,2.376,1,,,,,,-0.38671875,-0.25390625,1,0,0,2.3764,Andesite_rect,7,0,7,0,1,
615d2de8bfd11d57af47423a,SCR,2024-06-20_16h30.58.232,LearnStrategy,2023.2.3,Win32,59.88023952,6,2,9,,,,,,,,8,05,,,,,,,,,,,,,8,1.679,1,,,,,,0.360677083,-0.388020833,1,0,0,1.679,Pumice_rect,8,0,8,0,1,
615d2de8bfd11d57af47423a,SCR,2024-06-20_16h30.58.232,LearnStrategy,2023.2.3,Win32,59.88023952,6,2,10,,,,,,,,4,16,,,,,,,,,,,,,2,2.877,0,,,,,,-0.147135417,-0.247395833,1,0,0,2.8769,Basalt_rect,9,0,9,0,1,
615d2de8bfd11d57af47423a,SCR,2024-06-20_16h30.58.232,LearnStrategy,2023.2.3,Win32,59.88023952,6,2,11,,,,,,,,8,10,,,,,,,,,,,,,8,3.105,1,,,,,,0.348958333,-0.399739583,1,0,0,3.1048,Pumice_rect,10,0,10,0,1,
615d2de8bfd11d57af47423a,SCR,2024-06-20_16h30.58.232,LearnStrategy,2023.2.3,Win32,59.88023952,6,2,12,,,,,,,,2,12,,,,,,,,,,,,,8,14.884,0,,,,,,0.3359375,-0.397135417,1,0,0,14.8842,Pumice_rect,11,0,11,0,1,
615d2de8bfd11d57af47423a,SCR,2024-06-20_16h30.58.232,LearnStrategy,2023.2.3,Win32,59.88023952,6,2,13,,,,,,,,6,06,,,,,,,,,,,,,6,1.724,1,,,,,,-0.122395833,-0.393229167,1,0,0,1.7235,Pegmatite_rect,12,0,12,0,1,
615d2de8bfd11d57af47423a,SCR,2024-06-20_16h30.58.232,LearnStrategy,2023.2.3,Win32,59.88023952,6,2,14,,,,,,,,5,08,,,,,,,,,,,,,5,1.32,1,,,,,,-0.4140625,-0.397135417,1,0,0,1.3203,Obsidian_rect,13,0,13,0,1,
615d2de8bfd11d57af47423a,SCR,2024-06-20_16h30.58.232,LearnStrategy,2023.2.3,Win32,59.88023952,6,2,15,,,,,,,,4,14,,,,,,,,,,,,,2,1.852,0,,,,,,-0.139322917,-0.244791667,1,0,0,1.8521,Basalt_rect,14,0,14,0,1,
615d2de8bfd11d57af47423a,SCR,2024-06-20_16h30.58.232,LearnStrategy,2023.2.3,Win32,59.88023952,6,2,16,,,,,,,,5,14,,,,,,,,,,,,,5,2.597,1,,,,,,-0.35546875,-0.395833333,1,0,0,2.5971,Obsidian_rect,15,0,15,0,1,
615d2de8bfd11d57af47423a,SCR,2024-06-20_16h30.58.232,LearnStrategy,2023.2.3,Win32,59.88023952,7,1,1,-0.385416667,-0.395833333,1,0,0,1.7547,Pegmatite_05,6,05,1,2,1.755,6,05,-0.165364583,-0.38671875,1,0,0,2.6075,Pegmatite_rect,6,2.608,1,0,0,0,0,1,,,,,,,,,,,,,
615d2de8bfd11d57af47423a,SCR,2024-06-20_16h30.58.232,LearnStrategy,2023.2.3,Win32,59.88023952,7,1,2,0.10546875,-0.111979167,1,0,0,1.3425,Peridotite_15,7,15,3,5,1.343,7,15,0.157552083,-0.397135417,1,0,0,4.8455,Peridotite_rect,7,4.846,1,1,0,1,0,1,,,,,,,,,,,,,
615d2de8bfd11d57af47423a,SCR,2024-06-20_16h30.58.232,LearnStrategy,2023.2.3,Win32,59.88023952,7,1,3,-0.276041667,0.078125,1,0,0,1.201,Gabbro_15,4,15,4,3,1.201,4,15,0.153645833,-0.25390625,1,0,0,3.1554,Diorite_rect,3,3.155,0,2,0,2,0,1,,,,,,,,,,,,,
615d2de8bfd11d57af47423a,SCR,2024-06-20_16h30.58.232,LearnStrategy,2023.2.3,Win32,59.88023952,7,1,4,0.09375,0.243489583,1,0,0,1.558,Peridotite_06,7,06,5,5,1.558,7,06,0.158854167,-0.407552083,1,0,0,2.0184,Peridotite_rect,7,2.018,1,3,0,3,0,1,,,,,,,,,,,,,
615d2de8bfd11d57af47423a,SCR,2024-06-20_16h30.58.232,LearnStrategy,2023.2.3,Win32,59.88023952,7,1,5,0.092447917,-0.451822917,1,0,0,1.3413,Basalt_06,2,06,1,5,1.341,2,06,-0.095052083,-0.244791667,1,0,0,4.7944,Basalt_rect,2,4.794,1,4,0,4,0,1,,,,,,,,,,,,,
615d2de8bfd11d57af47423a,SCR,2024-06-20_16h30.58.232,LearnStrategy,2023.2.3,Win32,59.88023952,7,1,6,-0.39453125,0.235677083,1,0,0,2.0775,Andesite_03,1,03,5,2,2.078,1,03,-0.403645833,-0.243489583,1,0,0,1.6708,Andesite_rect,1,1.671,1,5,0,5,0,1,,,,,,,,,,,,,
615d2de8bfd11d57af47423a,SCR,2024-06-20_16h30.58.232,LearnStrategy,2023.2.3,Win32,59.88023952,7,1,7,-0.572916667,0.434895833,1,0,0,1.5742,Gabbro_08,4,08,6,1,1.574,4,08,0.3984375,-0.244791667,1,0,0,1.5813,Gabbro_rect,4,1.581,1,6,0,6,0,1,,,,,,,,,,,,,
615d2de8bfd11d57af47423a,SCR,2024-06-20_16h30.58.232,LearnStrategy,2023.2.3,Win32,59.88023952,7,1,8,0.51171875,0.106770833,1,0,0,1.471,Diorite_11,3,11,4,8,1.471,3,11,0.149739583,-0.407552083,1,0,0,2.0806,Peridotite_rect,7,2.081,0,7,0,7,0,1,,,,,,,,,,,,,
615d2de8bfd11d57af47423a,SCR,2024-06-20_16h30.58.232,LearnStrategy,2023.2.3,Win32,59.88023952,7,1,9,0.522135417,0.098958333,1,0,0,1.5706,Diorite_11,3,11,4,8,1.571,3,11,0.092447917,-0.26171875,1,0,0,2.0925,Diorite_rect,3,2.093,1,8,0,8,0,1,,,,,,,,,,,,,
615d2de8bfd11d57af47423a,SCR,2024-06-20_16h30.58.232,LearnStrategy,2023.2.3,Win32,59.88023952,7,1,10,-0.084635417,0.252604167,1,0,0,1.2966,Andesite_01,1,01,5,4,1.297,1,01,-0.377604167,-0.26953125,1,0,0,2.3138,Andesite_rect,1,2.314,1,9,0,9,0,1,,,,,,,,,,,,,
615d2de8bfd11d57af47423a,SCR,2024-06-20_16h30.58.232,LearnStrategy,2023.2.3,Win32,59.88023952,7,1,11,0.395833333,0.231770833,1,0,0,1.4024,Pumice_08,8,08,5,7,1.402,8,08,0.430989583,-0.395833333,1,0,0,1.2634,Pumice_rect,8,1.263,1,10,0,10,0,1,,,,,,,,,,,,,
615d2de8bfd11d57af47423a,SCR,2024-06-20_16h30.58.232,LearnStrategy,2023.2.3,Win32,59.88023952,7,1,12,0.190104167,0.389322917,1,0,0,1.3419,Gabbro_05,4,05,6,6,1.342,4,05,-0.393229167,-0.263020833,1,0,0,9.0736,Andesite_rect,1,9.074,0,11,0,11,0,1,,,,,,,,,,,,,
615d2de8bfd11d57af47423a,SCR,2024-06-20_16h30.58.232,LearnStrategy,2023.2.3,Win32,59.88023952,7,1,13,0.12890625,-0.407552083,1,0,0,1.5028,Basalt_06,2,06,1,5,1.503,2,06,-0.171875,-0.247395833,1,0,0,1.8319,Basalt_rect,2,1.832,1,12,0,12,0,1,,,,,,,,,,,,,
615d2de8bfd11d57af47423a,SCR,2024-06-20_16h30.58.232,LearnStrategy,2023.2.3,Win32,59.88023952,7,1,14,-0.05859375,-0.091145833,1,0,0,1.0398,Peridotite_10,7,10,3,4,1.04,7,10,0.122395833,-0.420572917,1,0,0,3.6761,Peridotite_rect,7,3.676,1,13,0,13,0,1,,,,,,,,,,,,,
615d2de8bfd11d57af47423a,SCR,2024-06-20_16h30.58.232,LearnStrategy,2023.2.3,Win32,59.88023952,7,1,15,-0.234375,0.2734375,1,0,0,1.3053,Diorite_16,3,16,5,3,1.305,3,16,-0.37109375,-0.259114583,1,0,0,1.7632,Andesite_rect,1,1.763,0,14,0,14,0,1,,,,,,,,,,,,,
615d2de8bfd11d57af47423a,SCR,2024-06-20_16h30.58.232,LearnStrategy,2023.2.3,Win32,59.88023952,7,1,16,-0.23828125,0.102864583,1,0,0,1.1146,Gabbro_15,4,15,4,3,1.115,4,15,0.140625,-0.268229167,1,0,0,1.5381,Diorite_rect,3,1.538,0,15,0,15,0,1,,,,,,,,,,,,,
615d2de8bfd11d57af47423a,SCR,2024-06-20_16h30.58.232,LearnStrategy,2023.2.3,Win32,59.88023952,7,2,1,,,,,,,,3,13,,,,,,,,,,,,,3,3.777,1,,,,,,0.140625,-0.256510417,1,0,0,3.7773,Diorite_rect,0,0,0,0,1,
615d2de8bfd11d57af47423a,SCR,2024-06-20_16h30.58.232,LearnStrategy,2023.2.3,Win32,59.88023952,7,2,2,,,,,,,,6,11,,,,,,,,,,,,,6,1.54,1,,,,,,-0.100260417,-0.403645833,1,0,0,1.5396,Pegmatite_rect,1,0,1,0,1,
615d2de8bfd11d57af47423a,SCR,2024-06-20_16h30.58.232,LearnStrategy,2023.2.3,Win32,59.88023952,7,2,3,,,,,,,,2,12,,,,,,,,,,,,,8,1.62,0,,,,,,0.33984375,-0.404947917,1,0,0,1.6196,Pumice_rect,2,0,2,0,1,
615d2de8bfd11d57af47423a,SCR,2024-06-20_16h30.58.232,LearnStrategy,2023.2.3,Win32,59.88023952,7,2,4,,,,,,,,6,07,,,,,,,,,,,,,6,1.665,1,,,,,,-0.139322917,-0.404947917,1,0,0,1.6649,Pegmatite_rect,3,0,3,0,1,
615d2de8bfd11d57af47423a,SCR,2024-06-20_16h30.58.232,LearnStrategy,2023.2.3,Win32,59.88023952,7,2,5,,,,,,,,1,10,,,,,,,,,,,,,1,1.794,1,,,,,,-0.334635417,-0.263020833,1,0,0,1.794,Andesite_rect,4,0,4,0,1,
615d2de8bfd11d57af47423a,SCR,2024-06-20_16h30.58.232,LearnStrategy,2023.2.3,Win32,59.88023952,7,2,6,,,,,,,,3,08,,,,,,,,,,,,,3,2.027,1,,,,,,0.178385417,-0.247395833,1,0,0,2.0268,Diorite_rect,5,0,5,0,1,
615d2de8bfd11d57af47423a,SCR,2024-06-20_16h30.58.232,LearnStrategy,2023.2.3,Win32,59.88023952,7,2,7,,,,,,,,8,03,,,,,,,,,,,,,8,1.701,1,,,,,,0.333333333,-0.399739583,1,0,0,1.7006,Pumice_rect,6,0,6,0,1,
615d2de8bfd11d57af47423a,SCR,2024-06-20_16h30.58.232,LearnStrategy,2023.2.3,Win32,59.88023952,7,2,8,,,,,,,,7,04,,,,,,,,,,,,,1,5.007,0,,,,,,-0.3828125,-0.264322917,1,0,0,5.0074,Andesite_rect,7,0,7,0,1,
615d2de8bfd11d57af47423a,SCR,2024-06-20_16h30.58.232,LearnStrategy,2023.2.3,Win32,59.88023952,7,2,9,,,,,,,,5,08,,,,,,,,,,,,,5,1.286,1,,,,,,-0.381510417,-0.38671875,1,0,0,1.2856,Obsidian_rect,8,0,8,0,1,
615d2de8bfd11d57af47423a,SCR,2024-06-20_16h30.58.232,LearnStrategy,2023.2.3,Win32,59.88023952,7,2,10,,,,,,,,1,05,,,,,,,,,,,,,1,1.735,1,,,,,,-0.377604167,-0.256510417,1,0,0,1.7353,Andesite_rect,9,0,9,0,1,
615d2de8bfd11d57af47423a,SCR,2024-06-20_16h30.58.232,LearnStrategy,2023.2.3,Win32,59.88023952,7,2,11,,,,,,,,4,10,,,,,,,,,,,,,4,3.87,1,,,,,,0.389322917,-0.231770833,1,0,0,3.8699,Gabbro_rect,10,0,10,0,1,
615d2de8bfd11d57af47423a,SCR,2024-06-20_16h30.58.232,LearnStrategy,2023.2.3,Win32,59.88023952,7,2,12,,,,,,,,7,16,,,,,,,,,,,,,4,1.902,0,,,,,,0.388020833,-0.231770833,1,0,0,1.9023,Gabbro_rect,11,0,11,0,1,
615d2de8bfd11d57af47423a,SCR,2024-06-20_16h30.58.232,LearnStrategy,2023.2.3,Win32,59.88023952,7,2,13,,,,,,,,2,08,,,,,,,,,,,,,2,1.74,1,,,,,,-0.110677083,-0.256510417,1,0,0,1.7398,Basalt_rect,12,0,12,0,1,
615d2de8bfd11d57af47423a,SCR,2024-06-20_16h30.58.232,LearnStrategy,2023.2.3,Win32,59.88023952,7,2,14,,,,,,,,4,13,,,,,,,,,,,,,4,4.254,1,,,,,,0.408854167,-0.255208333,1,0,0,4.2544,Gabbro_rect,13,0,13,0,1,
615d2de8bfd11d57af47423a,SCR,2024-06-20_16h30.58.232,LearnStrategy,2023.2.3,Win32,59.88023952,7,2,15,,,,,,,,8,10,,,,,,,,,,,,,8,1.265,1,,,,,,0.37109375,-0.407552083,1,0,0,1.2646,Pumice_rect,14,0,14,0,1,
615d2de8bfd11d57af47423a,SCR,2024-06-20_16h30.58.232,LearnStrategy,2023.2.3,Win32,59.88023952,7,2,16,,,,,,,,5,09,,,,,,,,,,,,,5,2.111,1,,,,,,-0.415364583,-0.41015625,1,0,0,2.1115,Obsidian_rect,15,0,15,0,1,
615d2de8bfd11d57af47423a,SCR,2024-06-20_16h30.58.232,LearnStrategy,2023.2.3,Win32,59.88023952,8,1,1,-0.20703125,0.399739583,1,0,0,1.8845,Peridotite_02,7,02,6,3,1.885,7,02,0.125,-0.37890625,1,0,0,3.6001,Peridotite_rect,7,3.6,1,0,0,0,0,1,,,,,,,,,,,,,
615d2de8bfd11d57af47423a,SCR,2024-06-20_16h30.58.232,LearnStrategy,2023.2.3,Win32,59.88023952,8,1,2,0.38671875,-0.092447917,1,0,0,1.5471,Peridotite_05,7,05,3,7,1.547,7,05,-0.092447917,-0.388020833,1,0,0,7.3196,Pegmatite_rect,6,7.32,0,1,0,1,0,1,,,,,,,,,,,,,
615d2de8bfd11d57af47423a,SCR,2024-06-20_16h30.58.232,LearnStrategy,2023.2.3,Win32,59.88023952,8,1,3,0.391927083,0.078125,1,0,0,1.5778,Diorite_12,3,12,4,7,1.578,3,12,0.111979167,-0.240885417,1,0,0,2.4795,Diorite_rect,3,2.479,1,2,0,2,0,1,,,,,,,,,,,,,
615d2de8bfd11d57af47423a,SCR,2024-06-20_16h30.58.232,LearnStrategy,2023.2.3,Win32,59.88023952,8,1,4,0.389322917,-0.084635417,1,0,0,1.2665,Peridotite_05,7,05,3,7,1.267,7,05,0.141927083,-0.39453125,1,0,0,2.5187,Peridotite_rect,7,2.519,1,3,0,3,0,1,,,,,,,,,,,,,
615d2de8bfd11d57af47423a,SCR,2024-06-20_16h30.58.232,LearnStrategy,2023.2.3,Win32,59.88023952,8,1,5,-0.37109375,-0.109375,1,0,0,1.5613,Pumice_16,8,16,3,2,1.561,8,16,0.423177083,-0.381510417,1,0,0,1.7924,Pumice_rect,8,1.792,1,4,0,4,0,1,,,,,,,,,,,,,
615d2de8bfd11d57af47423a,SCR,2024-06-20_16h30.58.232,LearnStrategy,2023.2.3,Win32,59.88023952,8,1,6,-0.567708333,-0.26953125,1,0,0,1.8804,Gabbro_03,4,03,2,1,1.88,4,03,0.356770833,-0.251302083,1,0,0,6.5924,Gabbro_rect,4,6.592,1,5,0,5,0,1,,,,,,,,,,,,,
615d2de8bfd11d57af47423a,SCR,2024-06-20_16h30.58.232,LearnStrategy,2023.2.3,Win32,59.88023952,8,1,7,-0.264322917,-0.095052083,1,0,0,1.4204,Basalt_04,2,04,3,3,1.42,2,04,-0.143229167,-0.265625,1,0,0,1.2046,Basalt_rect,2,1.205,1,6,0,6,0,1,,,,,,,,,,,,,
615d2de8bfd11d57af47423a,SCR,2024-06-20_16h30.58.232,LearnStrategy,2023.2.3,Win32,59.88023952,8,1,8,0.356770833,-0.247395833,1,0,0,1.5641,Obsidian_12,5,12,2,7,1.564,5,12,-0.3984375,-0.4140625,1,0,0,1.1432,Obsidian_rect,5,1.143,1,7,0,7,0,1,,,,,,,,,,,,,
615d2de8bfd11d57af47423a,SCR,2024-06-20_16h30.58.232,LearnStrategy,2023.2.3,Win32,59.88023952,8,1,9,0.0390625,-0.391927083,1,0,0,1.479,Basalt_06,2,06,1,5,1.479,2,06,-0.154947917,-0.244791667,1,0,0,1.2195,Basalt_rect,2,1.22,1,8,0,8,0,1,,,,,,,,,,,,,
615d2de8bfd11d57af47423a,SCR,2024-06-20_16h30.58.232,LearnStrategy,2023.2.3,Win32,59.88023952,8,1,10,0.529947917,-0.114583333,1,0,0,1.3139,Andesite_07,1,07,3,8,1.314,1,07,-0.432291667,-0.252604167,1,0,0,1.4388,Andesite_rect,1,1.439,1,9,0,9,0,1,,,,,,,,,,,,,
615d2de8bfd11d57af47423a,SCR,2024-06-20_16h30.58.232,LearnStrategy,2023.2.3,Win32,59.88023952,8,1,11,0.063802083,0.239583333,1,0,0,1.2289,Peridotite_06,7,06,5,5,1.229,7,06,0.14453125,-0.408854167,1,0,0,1.8404,Peridotite_rect,7,1.84,1,10,0,10,0,1,,,,,,,,,,,,,
615d2de8bfd11d57af47423a,SCR,2024-06-20_16h30.58.232,LearnStrategy,2023.2.3,Win32,59.88023952,8,1,12,-0.236979167,0.0859375,1,0,0,1.119,Gabbro_15,4,15,4,3,1.119,4,15,0.40234375,-0.248697917,1,0,0,2.6011,Gabbro_rect,4,2.601,1,11,0,11,0,1,,,,,,,,,,,,,
615d2de8bfd11d57af47423a,SCR,2024-06-20_16h30.58.232,LearnStrategy,2023.2.3,Win32,59.88023952,8,1,13,-0.4140625,0.251302083,1,0,0,1.3111,Andesite_03,1,03,5,2,1.311,1,03,-0.416666667,-0.243489583,1,0,0,1.3189,Andesite_rect,1,1.319,1,12,0,12,0,1,,,,,,,,,,,,,
615d2de8bfd11d57af47423a,SCR,2024-06-20_16h30.58.232,LearnStrategy,2023.2.3,Win32,59.88023952,8,1,14,-0.376302083,0.0703125,1,0,0,1.175,Diorite_09,3,09,4,2,1.175,3,09,0.114583333,-0.252604167,1,0,0,7.7295,Diorite_rect,3,7.729,1,13,0,13,0,1,,,,,,,,,,,,,
615d2de8bfd11d57af47423a,SCR,2024-06-20_16h30.58.232,LearnStrategy,2023.2.3,Win32,59.88023952,8,1,15,0.208333333,0.41015625,1,0,0,1.625,Gabbro_05,4,05,6,6,1.625,4,05,-0.166666667,-0.243489583,1,0,0,2.2228,Basalt_rect,2,2.223,0,14,0,14,0,1,,,,,,,,,,,,,
615d2de8bfd11d57af47423a,SCR,2024-06-20_16h30.58.232,LearnStrategy,2023.2.3,Win32,59.88023952,8,1,16,-0.220052083,-0.263020833,1,0,0,1.1806,Pegmatite_10,6,10,2,3,1.181,6,10,-0.1484375,-0.404947917,1,0,0,1.1937,Pegmatite_rect,6,1.194,1,15,0,15,0,1,,,,,,,,,,,,,
615d2de8bfd11d57af47423a,SCR,2024-06-20_16h30.58.232,LearnStrategy,2023.2.3,Win32,59.88023952,8,2,1,,,,,,,,1,04,,,,,,,,,,,,,1,1.666,1,,,,,,-0.36328125,-0.25390625,1,0,0,1.666,Andesite_rect,0,0,0,0,1,
615d2de8bfd11d57af47423a,SCR,2024-06-20_16h30.58.232,LearnStrategy,2023.2.3,Win32,59.88023952,8,2,2,,,,,,,,1,11,,,,,,,,,,,,,1,4.61,1,,,,,,-0.36328125,-0.25390625,1,0,0,4.6101,Andesite_rect,1,0,1,0,1,
615d2de8bfd11d57af47423a,SCR,2024-06-20_16h30.58.232,LearnStrategy,2023.2.3,Win32,59.88023952,8,2,3,,,,,,,,3,15,,,,,,,,,,,,,3,1.751,1,,,,,,0.126302083,-0.255208333,1,0,0,1.7508,Diorite_rect,2,0,2,0,1,
615d2de8bfd11d57af47423a,SCR,2024-06-20_16h30.58.232,LearnStrategy,2023.2.3,Win32,59.88023952,8,2,4,,,,,,,,8,13,,,,,,,,,,,,,8,1.766,1,,,,,,0.40625,-0.40625,1,0,0,1.7664,Pumice_rect,3,0,3,0,1,
615d2de8bfd11d57af47423a,SCR,2024-06-20_16h30.58.232,LearnStrategy,2023.2.3,Win32,59.88023952,8,2,5,,,,,,,,6,09,,,,,,,,,,,,,6,1.466,1,,,,,,-0.118489583,-0.403645833,1,0,0,1.4665,Pegmatite_rect,4,0,4,0,1,
615d2de8bfd11d57af47423a,SCR,2024-06-20_16h30.58.232,LearnStrategy,2023.2.3,Win32,59.88023952,8,2,6,,,,,,,,5,07,,,,,,,,,,,,,5,1.297,1,,,,,,-0.395833333,-0.39453125,1,0,0,1.2969,Obsidian_rect,5,0,5,0,1,
615d2de8bfd11d57af47423a,SCR,2024-06-20_16h30.58.232,LearnStrategy,2023.2.3,Win32,59.88023952,8,2,7,,,,,,,,7,07,,,,,,,,,,,,,3,6.332,0,,,,,,0.123697917,-0.251302083,1,0,0,6.3318,Diorite_rect,6,0,6,0,1,
615d2de8bfd11d57af47423a,SCR,2024-06-20_16h30.58.232,LearnStrategy,2023.2.3,Win32,59.88023952,8,2,8,,,,,,,,2,01,,,,,,,,,,,,,2,1.471,1,,,,,,-0.177083333,-0.251302083,1,0,0,1.4714,Basalt_rect,7,0,7,0,1,
615d2de8bfd11d57af47423a,SCR,2024-06-20_16h30.58.232,LearnStrategy,2023.2.3,Win32,59.88023952,8,2,9,,,,,,,,4,16,,,,,,,,,,,,,4,6.465,1,,,,,,0.348958333,-0.25,1,0,0,6.4653,Gabbro_rect,8,0,8,0,1,
615d2de8bfd11d57af47423a,SCR,2024-06-20_16h30.58.232,LearnStrategy,2023.2.3,Win32,59.88023952,8,2,10,,,,,,,,5,14,,,,,,,,,,,,,5,2.206,1,,,,,,-0.4375,-0.40625,1,0,0,2.2058,Obsidian_rect,9,0,9,0,1,
615d2de8bfd11d57af47423a,SCR,2024-06-20_16h30.58.232,LearnStrategy,2023.2.3,Win32,59.88023952,8,2,11,,,,,,,,2,14,,,,,,,,,,,,,8,1.875,0,,,,,,0.372395833,-0.395833333,1,0,0,1.8747,Pumice_rect,10,0,10,0,1,
615d2de8bfd11d57af47423a,SCR,2024-06-20_16h30.58.232,LearnStrategy,2023.2.3,Win32,59.88023952,8,2,12,,,,,,,,8,05,,,,,,,,,,,,,8,0.971,1,,,,,,0.372395833,-0.395833333,1,0,0,0.9714,Pumice_rect,11,0,11,0,1,
615d2de8bfd11d57af47423a,SCR,2024-06-20_16h30.58.232,LearnStrategy,2023.2.3,Win32,59.88023952,8,2,13,,,,,,,,6,12,,,,,,,,,,,,,6,2.133,1,,,,,,-0.104166667,-0.393229167,1,0,0,2.1334,Pegmatite_rect,12,0,12,0,1,
615d2de8bfd11d57af47423a,SCR,2024-06-20_16h30.58.232,LearnStrategy,2023.2.3,Win32,59.88023952,8,2,14,,,,,,,,3,02,,,,,,,,,,,,,3,1.577,1,,,,,,0.154947917,-0.248697917,1,0,0,1.5773,Diorite_rect,13,0,13,0,1,
615d2de8bfd11d57af47423a,SCR,2024-06-20_16h30.58.232,LearnStrategy,2023.2.3,Win32,59.88023952,8,2,15,,,,,,,,7,12,,,,,,,,,,,,,3,1.539,0,,,,,,0.154947917,-0.248697917,1,0,0,1.5386,Diorite_rect,14,0,14,0,1,
615d2de8bfd11d57af47423a,SCR,2024-06-20_16h30.58.232,LearnStrategy,2023.2.3,Win32,59.88023952,8,2,16,,,,,,,,4,09,,,,,,,,,,,,,4,3.791,1,,,,,,0.341145833,-0.233072917,1,0,0,3.7911,Gabbro_rect,15,0,15,0,1,
615d2de8bfd11d57af47423a,SCR,2024-06-20_16h30.58.232,LearnStrategy,2023.2.3,Win32,59.88023952,9,1,1,-0.549479167,-0.415364583,1,0,0,1.5335,Pumice_02,8,02,1,1,1.534,8,02,0.337239583,-0.401041667,1,0,0,1.8611,Pumice_rect,8,1.861,1,0,0,0,0,1,,,,,,,,,,,,,
615d2de8bfd11d57af47423a,SCR,2024-06-20_16h30.58.232,LearnStrategy,2023.2.3,Win32,59.88023952,9,1,2,0.240885417,-0.104166667,1,0,0,1.3474,Diorite_14,3,14,3,6,1.347,3,14,0.069010417,-0.243489583,1,0,0,2.1604,Diorite_rect,3,2.16,1,1,0,1,0,1,,,,,,,,,,,,,
615d2de8bfd11d57af47423a,SCR,2024-06-20_16h30.58.232,LearnStrategy,2023.2.3,Win32,59.88023952,9,1,3,-0.216145833,-0.095052083,1,0,0,1.5799,Basalt_04,2,04,3,3,1.58,2,04,-0.114583333,-0.243489583,1,0,0,1.3656,Basalt_rect,2,1.366,1,2,0,2,0,1,,,,,,,,,,,,,
615d2de8bfd11d57af47423a,SCR,2024-06-20_16h30.58.232,LearnStrategy,2023.2.3,Win32,59.88023952,9,1,4,0.088541667,-0.111979167,1,0,0,1.2295,Peridotite_15,7,15,3,5,1.23,7,15,0.15234375,-0.39453125,1,0,0,5.0753,Peridotite_rect,7,5.075,1,3,0,3,0,1,,,,,,,,,,,,,
615d2de8bfd11d57af47423a,SCR,2024-06-20_16h30.58.232,LearnStrategy,2023.2.3,Win32,59.88023952,9,1,5,0.526041667,0.084635417,1,0,0,1.4166,Diorite_11,3,11,4,8,1.417,3,11,0.108072917,-0.25390625,1,0,0,1.686,Diorite_rect,3,1.686,1,4,0,4,0,1,,,,,,,,,,,,,
615d2de8bfd11d57af47423a,SCR,2024-06-20_16h30.58.232,LearnStrategy,2023.2.3,Win32,59.88023952,9,1,6,-0.053385417,0.110677083,1,0,0,1.1461,Basalt_09,2,09,4,4,1.146,2,09,-0.1328125,-0.25,1,0,0,1.5918,Basalt_rect,2,1.592,1,5,0,5,0,1,,,,,,,,,,,,,
615d2de8bfd11d57af47423a,SCR,2024-06-20_16h30.58.232,LearnStrategy,2023.2.3,Win32,59.88023952,9,1,7,-0.548177083,-0.2890625,1,0,0,1.2655,Gabbro_03,4,03,2,1,1.265,4,03,0.369791667,-0.240885417,1,0,0,4.7618,Gabbro_rect,4,4.762,1,6,0,6,0,1,,,,,,,,,,,,,
615d2de8bfd11d57af47423a,SCR,2024-06-20_16h30.58.232,LearnStrategy,2023.2.3,Win32,59.88023952,9,1,8,0.041666667,0.2421875,1,0,0,1.2729,Peridotite_06,7,06,5,5,1.273,7,06,0.108072917,-0.390625,1,0,0,1.4887,Peridotite_rect,7,1.489,1,7,0,7,0,1,,,,,,,,,,,,,
615d2de8bfd11d57af47423a,SCR,2024-06-20_16h30.58.232,LearnStrategy,2023.2.3,Win32,59.88023952,9,1,9,0.563802083,0.381510417,1,0,0,1.2632,Peridotite_13,7,13,6,8,1.263,7,13,0.389322917,-0.235677083,1,0,0,3.2506,Gabbro_rect,4,3.251,0,8,0,8,0,1,,,,,,,,,,,,,
615d2de8bfd11d57af47423a,SCR,2024-06-20_16h30.58.232,LearnStrategy,2023.2.3,Win32,59.88023952,9,1,10,0.515625,0.419270833,1,0,0,1.7582,Peridotite_13,7,13,6,8,1.758,7,13,0.134114583,-0.388020833,1,0,0,1.2111,Peridotite_rect,7,1.211,1,9,0,9,0,1,,,,,,,,,,,,,
615d2de8bfd11d57af47423a,SCR,2024-06-20_16h30.58.232,LearnStrategy,2023.2.3,Win32,59.88023952,9,1,11,-0.0859375,0.235677083,1,0,0,1.7255,Andesite_01,1,01,5,4,1.726,1,01,-0.44921875,-0.236979167,1,0,0,1.3737,Andesite_rect,1,1.374,1,10,0,10,0,1,,,,,,,,,,,,,
615d2de8bfd11d57af47423a,SCR,2024-06-20_16h30.58.232,LearnStrategy,2023.2.3,Win32,59.88023952,9,1,12,-0.21875,0.07421875,1,0,0,1.0777,Gabbro_15,4,15,4,3,1.078,4,15,0.35546875,-0.25390625,1,0,0,1.7393,Gabbro_rect,4,1.739,1,11,0,11,0,1,,,,,,,,,,,,,
615d2de8bfd11d57af47423a,SCR,2024-06-20_16h30.58.232,LearnStrategy,2023.2.3,Win32,59.88023952,9,1,13,-0.06640625,0.088541667,1,0,0,0.882,Basalt_09,2,09,4,4,0.882,2,09,-0.096354167,-0.252604167,1,0,0,1.229,Basalt_rect,2,1.229,1,12,0,12,0,1,,,,,,,,,,,,,
615d2de8bfd11d57af47423a,SCR,2024-06-20_16h30.58.232,LearnStrategy,2023.2.3,Win32,59.88023952,9,1,14,-0.22265625,-0.252604167,1,0,0,1.2792,Pegmatite_10,6,10,2,3,1.279,6,10,-0.149739583,-0.415364583,1,0,0,1.698,Pegmatite_rect,6,1.698,1,13,0,13,0,1,,,,,,,,,,,,,
615d2de8bfd11d57af47423a,SCR,2024-06-20_16h30.58.232,LearnStrategy,2023.2.3,Win32,59.88023952,9,1,15,0.032552083,0.243489583,1,0,0,1.03,Peridotite_06,7,06,5,5,1.03,7,06,0.106770833,-0.390625,1,0,0,1.7436,Peridotite_rect,7,1.744,1,14,0,14,0,1,,,,,,,,,,,,,
615d2de8bfd11d57af47423a,SCR,2024-06-20_16h30.58.232,LearnStrategy,2023.2.3,Win32,59.88023952,9,1,16,-0.412760417,0.247395833,1,0,0,1.1584,Andesite_03,1,03,5,2,1.158,1,03,-0.411458333,-0.268229167,1,0,0,1.2128,Andesite_rect,1,1.213,1,15,0,15,0,1,,,,,,,,,,,,,
615d2de8bfd11d57af47423a,SCR,2024-06-20_16h30.58.232,LearnStrategy,2023.2.3,Win32,59.88023952,9,2,1,,,,,,,,2,05,,,,,,,,,,,,,2,1.623,1,,,,,,-0.122395833,-0.24609375,1,0,0,1.6233,Basalt_rect,0,0,0,0,1,
615d2de8bfd11d57af47423a,SCR,2024-06-20_16h30.58.232,LearnStrategy,2023.2.3,Win32,59.88023952,9,2,2,,,,,,,,6,16,,,,,,,,,,,,,6,2.037,1,,,,,,-0.17578125,-0.401041667,1,0,0,2.0372,Pegmatite_rect,1,0,1,0,1,
615d2de8bfd11d57af47423a,SCR,2024-06-20_16h30.58.232,LearnStrategy,2023.2.3,Win32,59.88023952,9,2,3,,,,,,,,1,14,,,,,,,,,,,,,6,7.857,0,,,,,,-0.17578125,-0.401041667,1,0,0,7.857,Pegmatite_rect,2,0,2,0,1,
615d2de8bfd11d57af47423a,SCR,2024-06-20_16h30.58.232,LearnStrategy,2023.2.3,Win32,59.88023952,9,2,4,,,,,,,,7,08,,,,,,,,,,,,,4,4.379,0,,,,,,0.41015625,-0.25390625,1,0,0,4.3794,Gabbro_rect,3,0,3,0,1,
615d2de8bfd11d57af47423a,SCR,2024-06-20_16h30.58.232,LearnStrategy,2023.2.3,Win32,59.88023952,9,2,5,,,,,,,,8,15,,,,,,,,,,,,,8,1.286,1,,,,,,0.408854167,-0.3984375,1,0,0,1.2859,Pumice_rect,4,0,4,0,1,
615d2de8bfd11d57af47423a,SCR,2024-06-20_16h30.58.232,LearnStrategy,2023.2.3,Win32,59.88023952,9,2,6,,,,,,,,3,07,,,,,,,,,,,,,3,3.008,1,,,,,,0.126302083,-0.244791667,1,0,0,3.0076,Diorite_rect,5,0,5,0,1,
615d2de8bfd11d57af47423a,SCR,2024-06-20_16h30.58.232,LearnStrategy,2023.2.3,Win32,59.88023952,9,2,7,,,,,,,,2,02,,,,,,,,,,,,,2,1.202,1,,,,,,-0.118489583,-0.248697917,1,0,0,1.2025,Basalt_rect,6,0,6,0,1,
615d2de8bfd11d57af47423a,SCR,2024-06-20_16h30.58.232,LearnStrategy,2023.2.3,Win32,59.88023952,9,2,8,,,,,,,,8,14,,,,,,,,,,,,,8,1.278,1,,,,,,0.427083333,-0.408854167,1,0,0,1.2779,Pumice_rect,7,0,7,0,1,
615d2de8bfd11d57af47423a,SCR,2024-06-20_16h30.58.232,LearnStrategy,2023.2.3,Win32,59.88023952,9,2,9,,,,,,,,3,06,,,,,,,,,,,,,3,2.364,1,,,,,,0.1328125,-0.239583333,1,0,0,2.3637,Diorite_rect,8,0,8,0,1,
615d2de8bfd11d57af47423a,SCR,2024-06-20_16h30.58.232,LearnStrategy,2023.2.3,Win32,59.88023952,9,2,10,,,,,,,,4,12,,,,,,,,,,,,,4,2.147,1,,,,,,0.3515625,-0.252604167,1,0,0,2.1468,Gabbro_rect,9,0,9,0,1,
615d2de8bfd11d57af47423a,SCR,2024-06-20_16h30.58.232,LearnStrategy,2023.2.3,Win32,59.88023952,9,2,11,,,,,,,,1,16,,,,,,,,,,,,,3,12.512,0,,,,,,0.141927083,-0.263020833,1,0,0,12.5119,Diorite_rect,10,0,10,0,1,
615d2de8bfd11d57af47423a,SCR,2024-06-20_16h30.58.232,LearnStrategy,2023.2.3,Win32,59.88023952,9,2,12,,,,,,,,4,14,,,,,,,,,,,,,4,2.541,1,,,,,,0.346354167,-0.2421875,1,0,0,2.5413,Gabbro_rect,11,0,11,0,1,
615d2de8bfd11d57af47423a,SCR,2024-06-20_16h30.58.232,LearnStrategy,2023.2.3,Win32,59.88023952,9,2,13,,,,,,,,6,06,,,,,,,,,,,,,6,1.702,1,,,,,,-0.131510417,-0.388020833,1,0,0,1.7021,Pegmatite_rect,12,0,12,0,1,
615d2de8bfd11d57af47423a,SCR,2024-06-20_16h30.58.232,LearnStrategy,2023.2.3,Win32,59.88023952,9,2,14,,,,,,,,7,14,,,,,,,,,,,,,3,5.91,0,,,,,,0.109375,-0.239583333,1,0,0,5.9103,Diorite_rect,13,0,13,0,1,
615d2de8bfd11d57af47423a,SCR,2024-06-20_16h30.58.232,LearnStrategy,2023.2.3,Win32,59.88023952,9,2,15,,,,,,,,5,05,,,,,,,,,,,,,5,1.524,1,,,,,,-0.364583333,-0.395833333,1,0,0,1.5237,Obsidian_rect,14,0,14,0,1,
615d2de8bfd11d57af47423a,SCR,2024-06-20_16h30.58.232,LearnStrategy,2023.2.3,Win32,59.88023952,9,2,16,,,,,,,,5,16,,,,,,,,,,,,,5,0.806,1,,,,,,-0.364583333,-0.395833333,1,0,0,0.8062,Obsidian_rect,15,0,15,0,1,
615d2de8bfd11d57af47423a,SCR,2024-06-20_16h30.58.232,LearnStrategy,2023.2.3,Win32,59.88023952,,,,,,,,,,,,,,,,,,,,,,,,,,,,,,,,,,,,,,,,,,,,,1
615d2de8bfd11d57af47423a,SCR,2024-06-20_16h30.58.232,LearnStrategy,2023.2.3,Win32,59.88023952,,,,,,,,,,,,,,,,,,,,,,,,,,,,,,,,,,,,,,,,,,,,,
615d2de8bfd11d57af47423a,SCR,2024-06-20_16h30.58.232,LearnStrategy,2023.2.3,Win32,59.88023952,,,,,,,,,,,8,02,1,1,,,,,,,,,,,,,,,,,,,,,,,,,,,,,,,
615d2de8bfd11d57af47423a,SCR,2024-06-20_16h30.58.232,LearnStrategy,2023.2.3,Win32,59.88023952,,,,,,,,,,,6,05,1,2,,,,,,,,,,,,,,,,,,,,,,,,,,,,,,,
615d2de8bfd11d57af47423a,SCR,2024-06-20_16h30.58.232,LearnStrategy,2023.2.3,Win32,59.88023952,,,,,,,,,,,1,09,1,3,,,,,,,,,,,,,,,,,,,,,,,,,,,,,,,
615d2de8bfd11d57af47423a,SCR,2024-06-20_16h30.58.232,LearnStrategy,2023.2.3,Win32,59.88023952,,,,,,,,,,,6,13,1,4,,,,,,,,,,,,,,,,,,,,,,,,,,,,,,,
615d2de8bfd11d57af47423a,SCR,2024-06-20_16h30.58.232,LearnStrategy,2023.2.3,Win32,59.88023952,,,,,,,,,,,2,06,1,5,,,,,,,,,,,,,,,,,,,,,,,,,,,,,,,
615d2de8bfd11d57af47423a,SCR,2024-06-20_16h30.58.232,LearnStrategy,2023.2.3,Win32,59.88023952,,,,,,,,,,,2,10,1,6,,,,,,,,,,,,,,,,,,,,,,,,,,,,,,,
615d2de8bfd11d57af47423a,SCR,2024-06-20_16h30.58.232,LearnStrategy,2023.2.3,Win32,59.88023952,,,,,,,,,,,1,02,1,7,,,,,,,,,,,,,,,,,,,,,,,,,,,,,,,
615d2de8bfd11d57af47423a,SCR,2024-06-20_16h30.58.232,LearnStrategy,2023.2.3,Win32,59.88023952,,,,,,,,,,,3,10,1,8,,,,,,,,,,,,,,,,,,,,,,,,,,,,,,,
615d2de8bfd11d57af47423a,SCR,2024-06-20_16h30.58.232,LearnStrategy,2023.2.3,Win32,59.88023952,,,,,,,,,,,4,03,2,1,,,,,,,,,,,,,,,,,,,,,,,,,,,,,,,
615d2de8bfd11d57af47423a,SCR,2024-06-20_16h30.58.232,LearnStrategy,2023.2.3,Win32,59.88023952,,,,,,,,,,,6,15,2,2,,,,,,,,,,,,,,,,,,,,,,,,,,,,,,,
615d2de8bfd11d57af47423a,SCR,2024-06-20_16h30.58.232,LearnStrategy,2023.2.3,Win32,59.88023952,,,,,,,,,,,6,10,2,3,,,,,,,,,,,,,,,,,,,,,,,,,,,,,,,
615d2de8bfd11d57af47423a,SCR,2024-06-20_16h30.58.232,LearnStrategy,2023.2.3,Win32,59.88023952,,,,,,,,,,,8,06,2,4,,,,,,,,,,,,,,,,,,,,,,,,,,,,,,,
615d2de8bfd11d57af47423a,SCR,2024-06-20_16h30.58.232,LearnStrategy,2023.2.3,Win32,59.88023952,,,,,,,,,,,2,16,2,5,,,,,,,,,,,,,,,,,,,,,,,,,,,,,,,
615d2de8bfd11d57af47423a,SCR,2024-06-20_16h30.58.232,LearnStrategy,2023.2.3,Win32,59.88023952,,,,,,,,,,,5,10,2,6,,,,,,,,,,,,,,,,,,,,,,,,,,,,,,,
615d2de8bfd11d57af47423a,SCR,2024-06-20_16h30.58.232,LearnStrategy,2023.2.3,Win32,59.88023952,,,,,,,,,,,5,12,2,7,,,,,,,,,,,,,,,,,,,,,,,,,,,,,,,
615d2de8bfd11d57af47423a,SCR,2024-06-20_16h30.58.232,LearnStrategy,2023.2.3,Win32,59.88023952,,,,,,,,,,,8,09,2,8,,,,,,,,,,,,,,,,,,,,,,,,,,,,,,,
615d2de8bfd11d57af47423a,SCR,2024-06-20_16h30.58.232,LearnStrategy,2023.2.3,Win32,59.88023952,,,,,,,,,,,6,03,3,1,,,,,,,,,,,,,,,,,,,,,,,,,,,,,,,
615d2de8bfd11d57af47423a,SCR,2024-06-20_16h30.58.232,LearnStrategy,2023.2.3,Win32,59.88023952,,,,,,,,,,,8,16,3,2,,,,,,,,,,,,,,,,,,,,,,,,,,,,,,,
615d2de8bfd11d57af47423a,SCR,2024-06-20_16h30.58.232,LearnStrategy,2023.2.3,Win32,59.88023952,,,,,,,,,,,2,04,3,3,,,,,,,,,,,,,,,,,,,,,,,,,,,,,,,
615d2de8bfd11d57af47423a,SCR,2024-06-20_16h30.58.232,LearnStrategy,2023.2.3,Win32,59.88023952,,,,,,,,,,,7,10,3,4,,,,,,,,,,,,,,,,,,,,,,,,,,,,,,,
615d2de8bfd11d57af47423a,SCR,2024-06-20_16h30.58.232,LearnStrategy,2023.2.3,Win32,59.88023952,,,,,,,,,,,7,15,3,5,,,,,,,,,,,,,,,,,,,,,,,,,,,,,,,
615d2de8bfd11d57af47423a,SCR,2024-06-20_16h30.58.232,LearnStrategy,2023.2.3,Win32,59.88023952,,,,,,,,,,,3,14,3,6,,,,,,,,,,,,,,,,,,,,,,,,,,,,,,,
615d2de8bfd11d57af47423a,SCR,2024-06-20_16h30.58.232,LearnStrategy,2023.2.3,Win32,59.88023952,,,,,,,,,,,7,05,3,7,,,,,,,,,,,,,,,,,,,,,,,,,,,,,,,
615d2de8bfd11d57af47423a,SCR,2024-06-20_16h30.58.232,LearnStrategy,2023.2.3,Win32,59.88023952,,,,,,,,,,,1,07,3,8,,,,,,,,,,,,,,,,,,,,,,,,,,,,,,,
615d2de8bfd11d57af47423a,SCR,2024-06-20_16h30.58.232,LearnStrategy,2023.2.3,Win32,59.88023952,,,,,,,,,,,4,01,4,1,,,,,,,,,,,,,,,,,,,,,,,,,,,,,,,
615d2de8bfd11d57af47423a,SCR,2024-06-20_16h30.58.232,LearnStrategy,2023.2.3,Win32,59.88023952,,,,,,,,,,,3,09,4,2,,,,,,,,,,,,,,,,,,,,,,,,,,,,,,,
615d2de8bfd11d57af47423a,SCR,2024-06-20_16h30.58.232,LearnStrategy,2023.2.3,Win32,59.88023952,,,,,,,,,,,4,15,4,3,,,,,,,,,,,,,,,,,,,,,,,,,,,,,,,
615d2de8bfd11d57af47423a,SCR,2024-06-20_16h30.58.232,LearnStrategy,2023.2.3,Win32,59.88023952,,,,,,,,,,,2,09,4,4,,,,,,,,,,,,,,,,,,,,,,,,,,,,,,,
615d2de8bfd11d57af47423a,SCR,2024-06-20_16h30.58.232,LearnStrategy,2023.2.3,Win32,59.88023952,,,,,,,,,,,5,11,4,5,,,,,,,,,,,,,,,,,,,,,,,,,,,,,,,
615d2de8bfd11d57af47423a,SCR,2024-06-20_16h30.58.232,LearnStrategy,2023.2.3,Win32,59.88023952,,,,,,,,,,,5,02,4,6,,,,,,,,,,,,,,,,,,,,,,,,,,,,,,,
615d2de8bfd11d57af47423a,SCR,2024-06-20_16h30.58.232,LearnStrategy,2023.2.3,Win32,59.88023952,,,,,,,,,,,3,12,4,7,,,,,,,,,,,,,,,,,,,,,,,,,,,,,,,
615d2de8bfd11d57af47423a,SCR,2024-06-20_16h30.58.232,LearnStrategy,2023.2.3,Win32,59.88023952,,,,,,,,,,,3,11,4,8,,,,,,,,,,,,,,,,,,,,,,,,,,,,,,,
615d2de8bfd11d57af47423a,SCR,2024-06-20_16h30.58.232,LearnStrategy,2023.2.3,Win32,59.88023952,,,,,,,,,,,1,06,5,1,,,,,,,,,,,,,,,,,,,,,,,,,,,,,,,
615d2de8bfd11d57af47423a,SCR,2024-06-20_16h30.58.232,LearnStrategy,2023.2.3,Win32,59.88023952,,,,,,,,,,,1,03,5,2,,,,,,,,,,,,,,,,,,,,,,,,,,,,,,,
615d2de8bfd11d57af47423a,SCR,2024-06-20_16h30.58.232,LearnStrategy,2023.2.3,Win32,59.88023952,,,,,,,,,,,3,16,5,3,,,,,,,,,,,,,,,,,,,,,,,,,,,,,,,
615d2de8bfd11d57af47423a,SCR,2024-06-20_16h30.58.232,LearnStrategy,2023.2.3,Win32,59.88023952,,,,,,,,,,,1,01,5,4,,,,,,,,,,,,,,,,,,,,,,,,,,,,,,,
615d2de8bfd11d57af47423a,SCR,2024-06-20_16h30.58.232,LearnStrategy,2023.2.3,Win32,59.88023952,,,,,,,,,,,7,06,5,5,,,,,,,,,,,,,,,,,,,,,,,,,,,,,,,
615d2de8bfd11d57af47423a,SCR,2024-06-20_16h30.58.232,LearnStrategy,2023.2.3,Win32,59.88023952,,,,,,,,,,,5,06,5,6,,,,,,,,,,,,,,,,,,,,,,,,,,,,,,,
615d2de8bfd11d57af47423a,SCR,2024-06-20_16h30.58.232,LearnStrategy,2023.2.3,Win32,59.88023952,,,,,,,,,,,8,08,5,7,,,,,,,,,,,,,,,,,,,,,,,,,,,,,,,
615d2de8bfd11d57af47423a,SCR,2024-06-20_16h30.58.232,LearnStrategy,2023.2.3,Win32,59.88023952,,,,,,,,,,,8,04,5,8,,,,,,,,,,,,,,,,,,,,,,,,,,,,,,,
615d2de8bfd11d57af47423a,SCR,2024-06-20_16h30.58.232,LearnStrategy,2023.2.3,Win32,59.88023952,,,,,,,,,,,4,08,6,1,,,,,,,,,,,,,,,,,,,,,,,,,,,,,,,
615d2de8bfd11d57af47423a,SCR,2024-06-20_16h30.58.232,LearnStrategy,2023.2.3,Win32,59.88023952,,,,,,,,,,,5,04,6,2,,,,,,,,,,,,,,,,,,,,,,,,,,,,,,,
615d2de8bfd11d57af47423a,SCR,2024-06-20_16h30.58.232,LearnStrategy,2023.2.3,Win32,59.88023952,,,,,,,,,,,7,02,6,3,,,,,,,,,,,,,,,,,,,,,,,,,,,,,,,
615d2de8bfd11d57af47423a,SCR,2024-06-20_16h30.58.232,LearnStrategy,2023.2.3,Win32,59.88023952,,,,,,,,,,,6,08,6,4,,,,,,,,,,,,,,,,,,,,,,,,,,,,,,,
615d2de8bfd11d57af47423a,SCR,2024-06-20_16h30.58.232,LearnStrategy,2023.2.3,Win32,59.88023952,,,,,,,,,,,2,11,6,5,,,,,,,,,,,,,,,,,,,,,,,,,,,,,,,
615d2de8bfd11d57af47423a,SCR,2024-06-20_16h30.58.232,LearnStrategy,2023.2.3,Win32,59.88023952,,,,,,,,,,,4,05,6,6,,,,,,,,,,,,,,,,,,,,,,,,,,,,,,,
615d2de8bfd11d57af47423a,SCR,2024-06-20_16h30.58.232,LearnStrategy,2023.2.3,Win32,59.88023952,,,,,,,,,,,4,11,6,7,,,,,,,,,,,,,,,,,,,,,,,,,,,,,,,
615d2de8bfd11d57af47423a,SCR,2024-06-20_16h30.58.232,LearnStrategy,2023.2.3,Win32,59.88023952,,,,,,,,,,,7,13,6,8,,,,,,,,,,,,,,,,,,,,,,,,,,,,,,,