participant,condition,date,expName,psychopyVersion,OS,frameRate,block,phase,trial,learn_mouse.x,learn_mouse.y,learn_mouse.leftButton,learn_mouse.midButton,learn_mouse.rightButton,learn_mouse.time,learn_mouse.clicked_name,cat,token,row,col,t_select,cat_mouse_l.x,cat_mouse_l.y,cat_mouse_l.leftButton,cat_mouse_l.midButton,cat_mouse_l.rightButton,cat_mouse_l.time,cat_mouse_l.clicked_name,resp,t_resp,corr,train_trials.thisRepN,train_trials.thisTrialN,train_trials.thisN,train_trials.thisIndex,train_trials.ran,cat_mouse_t.x,cat_mouse_t.y,cat_mouse_t.leftButton,cat_mouse_t.midButton,cat_mouse_t.rightButton,cat_mouse_t.time,cat_mouse_t.clicked_name,test_trials.thisRepN,test_trials.thisTrialN,test_trials.thisN,test_trials.thisIndex,test_trials.ran,Bonus
615d051e2366aeb051acb734,SCN,2024-06-25_12h39.26.989,LearnStrategy,2023.2.3,MacIntel,60.0240096,,,,,,,,,,,,,,,,,,,,,,,,,,,,,,,,,,,,,,,,,,,
615d051e2366aeb051acb734,SCN,2024-06-25_12h39.26.989,LearnStrategy,2023.2.3,MacIntel,60.0240096,1,1,1,-0.542592593,0.377777778,1,0,0,4.158,Pumice_13,8,13,6,1,4.158,-0.168518519,-0.25,1,0,0,4.536,Basalt_rect,2,4.536,0,0,0,0,0,1,,,,,,,,,,,,,
615d051e2366aeb051acb734,SCN,2024-06-25_12h39.26.989,LearnStrategy,2023.2.3,MacIntel,60.0240096,1,1,2,-0.407407407,-0.260185185,1,0,0,2.226,Pumice_05,8,05,2,2,2.226,0.373148148,-0.390740741,1,0,0,2.64,Pumice_rect,8,2.64,1,1,0,1,0,1,,,,,,,,,,,,,
615d051e2366aeb051acb734,SCN,2024-06-25_12h39.26.989,LearnStrategy,2023.2.3,MacIntel,60.0240096,1,1,3,0.400925926,-0.081481481,1,0,0,4.409,Pumice_03,8,03,3,7,4.409,0.340740741,-0.400925926,1,0,0,1.468,Pumice_rect,8,1.468,1,2,0,2,0,1,,,,,,,,,,,,,
615d051e2366aeb051acb734,SCN,2024-06-25_12h39.26.989,LearnStrategy,2023.2.3,MacIntel,60.0240096,1,1,4,0.416666667,0.243518519,1,0,0,6.778,Pumice_16,8,16,5,7,6.778,0.341666667,-0.396296296,1,0,0,1.305,Pumice_rect,8,1.305,1,3,0,3,0,1,,,,,,,,,,,,,
615d051e2366aeb051acb734,SCN,2024-06-25_12h39.26.989,LearnStrategy,2023.2.3,MacIntel,60.0240096,1,1,5,0.518518519,0.217592593,1,0,0,1.1,Basalt_16,2,16,5,8,1.1,0.357407407,-0.399074074,1,0,0,1.743,Pumice_rect,8,1.743,0,4,0,4,0,1,,,,,,,,,,,,,
615d051e2366aeb051acb734,SCN,2024-06-25_12h39.26.989,LearnStrategy,2023.2.3,MacIntel,60.0240096,1,1,6,-0.407407407,0.419444444,1,0,0,10.481,Basalt_05,2,05,6,2,10.481,-0.077777778,-0.262962963,1,0,0,1.572,Basalt_rect,2,1.572,1,5,0,5,0,1,,,,,,,,,,,,,
615d051e2366aeb051acb734,SCN,2024-06-25_12h39.26.989,LearnStrategy,2023.2.3,MacIntel,60.0240096,1,1,7,-0.225925926,0.398148148,1,0,0,1.234,Gabbro_03,4,03,6,3,1.234,-0.422222222,-0.381481481,1,0,0,3.911,Obsidian_rect,5,3.911,0,6,0,6,0,1,,,,,,,,,,,,,
615d051e2366aeb051acb734,SCN,2024-06-25_12h39.26.989,LearnStrategy,2023.2.3,MacIntel,60.0240096,1,1,8,-0.07037037,0.389814815,1,0,0,2.478,Pegmatite_07,6,07,6,4,2.478,-0.444444444,-0.237037037,1,0,0,1.232,Andesite_rect,1,1.232,0,7,0,7,0,1,,,,,,,,,,,,,
615d051e2366aeb051acb734,SCN,2024-06-25_12h39.26.989,LearnStrategy,2023.2.3,MacIntel,60.0240096,1,1,9,0.213888889,-0.267592593,1,0,0,3.711,Pegmatite_11,6,11,2,6,3.711,-0.125925926,-0.39537037,1,0,0,1.793,Pegmatite_rect,6,1.793,1,8,0,8,0,1,,,,,,,,,,,,,
615d051e2366aeb051acb734,SCN,2024-06-25_12h39.26.989,LearnStrategy,2023.2.3,MacIntel,60.0240096,1,1,10,0.087037037,0.108333333,1,0,0,1.956,Pegmatite_13,6,13,4,5,1.956,-0.135185185,-0.405555556,1,0,0,2.123,Pegmatite_rect,6,2.123,1,9,0,9,0,1,,,,,,,,,,,,,
615d051e2366aeb051acb734,SCN,2024-06-25_12h39.26.989,LearnStrategy,2023.2.3,MacIntel,60.0240096,1,1,11,-0.244444444,-0.080555556,1,0,0,3.347,Pegmatite_16,6,16,3,3,3.347,-0.17037037,-0.380555556,1,0,0,2.323,Pegmatite_rect,6,2.323,1,10,0,10,0,1,,,,,,,,,,,,,
615d051e2366aeb051acb734,SCN,2024-06-25_12h39.26.989,LearnStrategy,2023.2.3,MacIntel,60.0240096,1,1,12,-0.240740741,0.390740741,1,0,0,4.33,Gabbro_03,4,03,6,3,4.33,0.368518519,-0.242592593,1,0,0,3.855,Gabbro_rect,4,3.855,1,11,0,11,0,1,,,,,,,,,,,,,
615d051e2366aeb051acb734,SCN,2024-06-25_12h39.26.989,LearnStrategy,2023.2.3,MacIntel,60.0240096,1,1,13,-0.390740741,0.424074074,1,0,0,1.301,Basalt_05,2,05,6,2,1.301,-0.172222222,-0.262962963,1,0,0,1.43,Basalt_rect,2,1.43,1,12,0,12,0,1,,,,,,,,,,,,,
615d051e2366aeb051acb734,SCN,2024-06-25_12h39.26.989,LearnStrategy,2023.2.3,MacIntel,60.0240096,1,1,14,0.097222222,0.264814815,1,0,0,5.366,Diorite_16,3,16,5,5,5.366,0.392592593,-0.258333333,1,0,0,1.347,Gabbro_rect,4,1.347,0,13,0,13,0,1,,,,,,,,,,,,,
615d051e2366aeb051acb734,SCN,2024-06-25_12h39.26.989,LearnStrategy,2023.2.3,MacIntel,60.0240096,1,1,15,0.051851852,-0.400925926,1,0,0,5.598,Andesite_07,1,07,1,5,5.598,0.368518519,-0.248148148,1,0,0,1.064,Gabbro_rect,4,1.064,0,14,0,14,0,1,,,,,,,,,,,,,
615d051e2366aeb051acb734,SCN,2024-06-25_12h39.26.989,LearnStrategy,2023.2.3,MacIntel,60.0240096,1,1,16,-0.555555556,-0.252777778,1,0,0,1.063,Andesite_01,1,01,2,1,1.063,0.376851852,-0.235185185,1,0,0,1.333,Gabbro_rect,4,1.333,0,15,0,15,0,1,,,,,,,,,,,,,
615d051e2366aeb051acb734,SCN,2024-06-25_12h39.26.989,LearnStrategy,2023.2.3,MacIntel,60.0240096,1,2,1,,,,,,,,6,08,,,,,,,,,,,6,30.46,1,,,,,,-0.106481481,-0.39537037,1,0,0,30.46,Pegmatite_rect,0,0,0,0,1,
615d051e2366aeb051acb734,SCN,2024-06-25_12h39.26.989,LearnStrategy,2023.2.3,MacIntel,60.0240096,1,2,2,,,,,,,,4,14,,,,,,,,,,,2,39.849,0,,,,,,-0.138888889,-0.232407407,1,0,0,39.849,Basalt_rect,1,0,1,0,1,
615d051e2366aeb051acb734,SCN,2024-06-25_12h39.26.989,LearnStrategy,2023.2.3,MacIntel,60.0240096,1,2,3,,,,,,,,4,16,,,,,,,,,,,1,17.349,0,,,,,,-0.424074074,-0.235185185,1,0,0,17.349,Andesite_rect,2,0,2,0,1,
615d051e2366aeb051acb734,SCN,2024-06-25_12h39.26.989,LearnStrategy,2023.2.3,MacIntel,60.0240096,1,2,4,,,,,,,,6,10,,,,,,,,,,,6,34.208,1,,,,,,-0.168518519,-0.406481481,1,0,0,34.208,Pegmatite_rect,3,0,3,0,1,
615d051e2366aeb051acb734,SCN,2024-06-25_12h39.26.989,LearnStrategy,2023.2.3,MacIntel,60.0240096,1,2,5,,,,,,,,5,11,,,,,,,,,,,5,29.052,1,,,,,,-0.39537037,-0.388888889,1,0,0,29.052,Obsidian_rect,4,0,4,0,1,
615d051e2366aeb051acb734,SCN,2024-06-25_12h39.26.989,LearnStrategy,2023.2.3,MacIntel,60.0240096,1,2,6,,,,,,,,3,14,,,,,,,,,,,3,12.601,1,,,,,,0.125,-0.243518519,1,0,0,12.601,Diorite_rect,5,0,5,0,1,
615d051e2366aeb051acb734,SCN,2024-06-25_12h39.26.989,LearnStrategy,2023.2.3,MacIntel,60.0240096,1,2,7,,,,,,,,2,06,,,,,,,,,,,2,10.147,1,,,,,,-0.113888889,-0.242592593,1,0,0,10.147,Basalt_rect,6,0,6,0,1,
615d051e2366aeb051acb734,SCN,2024-06-25_12h39.26.989,LearnStrategy,2023.2.3,MacIntel,60.0240096,1,2,8,,,,,,,,5,06,,,,,,,,,,,5,10.06,1,,,,,,-0.37962963,-0.380555556,1,0,0,10.06,Obsidian_rect,7,0,7,0,1,
615d051e2366aeb051acb734,SCN,2024-06-25_12h39.26.989,LearnStrategy,2023.2.3,MacIntel,60.0240096,1,2,9,,,,,,,,8,04,,,,,,,,,,,8,9.523,1,,,,,,0.380555556,-0.413888889,1,0,0,9.523,Pumice_rect,8,0,8,0,1,
615d051e2366aeb051acb734,SCN,2024-06-25_12h39.26.989,LearnStrategy,2023.2.3,MacIntel,60.0240096,1,2,10,,,,,,,,7,04,,,,,,,,,,,7,46.132,1,,,,,,0.118518519,-0.400925926,1,0,0,46.132,Peridotite_rect,9,0,9,0,1,
615d051e2366aeb051acb734,SCN,2024-06-25_12h39.26.989,LearnStrategy,2023.2.3,MacIntel,60.0240096,1,2,11,,,,,,,,3,11,,,,,,,,,,,4,33.295,0,,,,,,0.383333333,-0.246296296,1,0,0,33.295,Gabbro_rect,10,0,10,0,1,
615d051e2366aeb051acb734,SCN,2024-06-25_12h39.26.989,LearnStrategy,2023.2.3,MacIntel,60.0240096,1,2,12,,,,,,,,8,15,,,,,,,,,,,8,2.831,1,,,,,,0.325925926,-0.393518519,1,0,0,2.831,Pumice_rect,11,0,11,0,1,
615d051e2366aeb051acb734,SCN,2024-06-25_12h39.26.989,LearnStrategy,2023.2.3,MacIntel,60.0240096,1,2,13,,,,,,,,2,01,,,,,,,,,,,2,1.758,1,,,,,,-0.175925926,-0.246296296,1,0,0,1.758,Basalt_rect,12,0,12,0,1,
615d051e2366aeb051acb734,SCN,2024-06-25_12h39.26.989,LearnStrategy,2023.2.3,MacIntel,60.0240096,1,2,14,,,,,,,,1,14,,,,,,,,,,,6,1.964,0,,,,,,-0.174074074,-0.382407407,1,0,0,1.964,Pegmatite_rect,13,0,13,0,1,
615d051e2366aeb051acb734,SCN,2024-06-25_12h39.26.989,LearnStrategy,2023.2.3,MacIntel,60.0240096,1,2,15,,,,,,,,1,16,,,,,,,,,,,4,4.904,0,,,,,,0.435185185,-0.230555556,1,0,0,4.904,Gabbro_rect,14,0,14,0,1,
615d051e2366aeb051acb734,SCN,2024-06-25_12h39.26.989,LearnStrategy,2023.2.3,MacIntel,60.0240096,1,2,16,,,,,,,,7,02,,,,,,,,,,,6,3.169,0,,,,,,-0.067592593,-0.408333333,1,0,0,3.169,Pegmatite_rect,15,0,15,0,1,
615d051e2366aeb051acb734,SCN,2024-06-25_12h39.26.989,LearnStrategy,2023.2.3,MacIntel,60.0240096,2,1,1,0.082407407,0.372222222,1,0,0,5.375,Obsidian_10,5,10,6,5,5.375,-0.358333333,-0.406481481,1,0,0,2.362,Obsidian_rect,5,2.362,1,0,0,0,0,1,,,,,,,,,,,,,
615d051e2366aeb051acb734,SCN,2024-06-25_12h39.26.989,LearnStrategy,2023.2.3,MacIntel,60.0240096,2,1,2,0.287962963,0.403703704,1,0,0,1.583,Diorite_09,3,09,6,6,1.583,-0.427777778,-0.248148148,1,0,0,1.833,Andesite_rect,1,1.833,0,1,0,1,0,1,,,,,,,,,,,,,
615d051e2366aeb051acb734,SCN,2024-06-25_12h39.26.989,LearnStrategy,2023.2.3,MacIntel,60.0240096,2,1,3,0.256481481,-0.42962963,1,0,0,5.247,Diorite_07,3,07,1,6,5.247,0.163888889,-0.251851852,1,0,0,2.139,Diorite_rect,3,2.139,1,2,0,2,0,1,,,,,,,,,,,,,
615d051e2366aeb051acb734,SCN,2024-06-25_12h39.26.989,LearnStrategy,2023.2.3,MacIntel,60.0240096,2,1,4,0.562962963,0.417592593,1,0,0,3.993,Pegmatite_09,6,09,6,8,3.993,-0.348148148,-0.239814815,1,0,0,1.584,Andesite_rect,1,1.584,0,3,0,3,0,1,,,,,,,,,,,,,
615d051e2366aeb051acb734,SCN,2024-06-25_12h39.26.989,LearnStrategy,2023.2.3,MacIntel,60.0240096,2,1,5,0.540740741,-0.244444444,1,0,0,2.331,Andesite_04,1,04,2,8,2.331,-0.114814815,-0.240740741,1,0,0,2.231,Basalt_rect,2,2.231,0,4,0,4,0,1,,,,,,,,,,,,,
615d051e2366aeb051acb734,SCN,2024-06-25_12h39.26.989,LearnStrategy,2023.2.3,MacIntel,60.0240096,2,1,6,0.401851852,-0.262962963,1,0,0,2.677,Peridotite_15,7,15,2,7,2.677,0.102777778,-0.417592593,1,0,0,2.64,Peridotite_rect,7,2.64,1,5,0,5,0,1,,,,,,,,,,,,,
615d051e2366aeb051acb734,SCN,2024-06-25_12h39.26.989,LearnStrategy,2023.2.3,MacIntel,60.0240096,2,1,7,0.399074074,0.386111111,1,0,0,3.132,Pegmatite_15,6,15,6,7,3.132,0.05462963,-0.417592593,1,0,0,1.295,Peridotite_rect,7,1.295,0,6,0,6,0,1,,,,,,,,,,,,,
615d051e2366aeb051acb734,SCN,2024-06-25_12h39.26.989,LearnStrategy,2023.2.3,MacIntel,60.0240096,2,1,8,-0.415740741,0.25,1,0,0,8.782,Gabbro_05,4,05,5,2,8.782,0.059259259,-0.419444444,1,0,0,2.446,Peridotite_rect,7,2.446,0,7,0,7,0,1,,,,,,,,,,,,,
615d051e2366aeb051acb734,SCN,2024-06-25_12h39.26.989,LearnStrategy,2023.2.3,MacIntel,60.0240096,2,1,9,0.534259259,-0.432407407,1,0,0,1.78,Diorite_10,3,10,1,8,1.78,0.437037037,-0.251851852,1,0,0,0.951,Gabbro_rect,4,0.951,0,8,0,8,0,1,,,,,,,,,,,,,
615d051e2366aeb051acb734,SCN,2024-06-25_12h39.26.989,LearnStrategy,2023.2.3,MacIntel,60.0240096,2,1,10,-0.092592593,-0.285185185,1,0,0,11.7,Obsidian_02,5,02,2,4,11.7,-0.390740741,-0.390740741,1,0,0,2.578,Obsidian_rect,5,2.578,1,9,0,9,0,1,,,,,,,,,,,,,
615d051e2366aeb051acb734,SCN,2024-06-25_12h39.26.989,LearnStrategy,2023.2.3,MacIntel,60.0240096,2,1,11,-0.409259259,0.268518519,1,0,0,1.214,Gabbro_05,4,05,5,2,1.214,0.337037037,-0.257407407,1,0,0,3.207,Gabbro_rect,4,3.207,1,10,0,10,0,1,,,,,,,,,,,,,
615d051e2366aeb051acb734,SCN,2024-06-25_12h39.26.989,LearnStrategy,2023.2.3,MacIntel,60.0240096,2,1,12,-0.05,0.249074074,1,0,0,1.076,Andesite_03,1,03,5,4,1.076,-0.209259259,-0.235185185,1,0,0,0.998,Basalt_rect,2,0.998,0,11,0,11,0,1,,,,,,,,,,,,,
615d051e2366aeb051acb734,SCN,2024-06-25_12h39.26.989,LearnStrategy,2023.2.3,MacIntel,60.0240096,2,1,13,0.090740741,0.222222222,1,0,0,0.912,Diorite_16,3,16,5,5,0.912,-0.397222222,-0.251851852,1,0,0,1.001,Andesite_rect,1,1.001,0,12,0,12,0,1,,,,,,,,,,,,,
615d051e2366aeb051acb734,SCN,2024-06-25_12h39.26.989,LearnStrategy,2023.2.3,MacIntel,60.0240096,2,1,14,0.272222222,0.252777778,1,0,0,0.881,Diorite_06,3,06,5,6,0.881,0.153703704,-0.246296296,1,0,0,1.334,Diorite_rect,3,1.334,1,13,0,13,0,1,,,,,,,,,,,,,
615d051e2366aeb051acb734,SCN,2024-06-25_12h39.26.989,LearnStrategy,2023.2.3,MacIntel,60.0240096,2,1,15,0.382407407,0.231481481,1,0,0,0.88,Pumice_16,8,16,5,7,0.88,0.331481481,-0.381481481,1,0,0,1.699,Pumice_rect,8,1.699,1,14,0,14,0,1,,,,,,,,,,,,,
615d051e2366aeb051acb734,SCN,2024-06-25_12h39.26.989,LearnStrategy,2023.2.3,MacIntel,60.0240096,2,1,16,0.563888889,0.25,1,0,0,0.994,Basalt_16,2,16,5,8,0.994,-0.185185185,-0.247222222,1,0,0,1.909,Basalt_rect,2,1.909,1,15,0,15,0,1,,,,,,,,,,,,,
615d051e2366aeb051acb734,SCN,2024-06-25_12h39.26.989,LearnStrategy,2023.2.3,MacIntel,60.0240096,2,2,1,,,,,,,,5,14,,,,,,,,,,,5,2.234,1,,,,,,-0.399074074,-0.412037037,1,0,0,2.234,Obsidian_rect,0,0,0,0,1,
615d051e2366aeb051acb734,SCN,2024-06-25_12h39.26.989,LearnStrategy,2023.2.3,MacIntel,60.0240096,2,2,2,,,,,,,,6,06,,,,,,,,,,,6,22.223,1,,,,,,-0.101851852,-0.397222222,1,0,0,22.223,Pegmatite_rect,1,0,1,0,1,
615d051e2366aeb051acb734,SCN,2024-06-25_12h39.26.989,LearnStrategy,2023.2.3,MacIntel,60.0240096,2,2,3,,,,,,,,4,01,,,,,,,,,,,4,56.997,1,,,,,,0.486111111,-0.242592593,1,0,0,56.997,Gabbro_rect,2,0,2,0,1,
615d051e2366aeb051acb734,SCN,2024-06-25_12h39.26.989,LearnStrategy,2023.2.3,MacIntel,60.0240096,2,2,4,,,,,,,,1,05,,,,,,,,,,,3,12.117,0,,,,,,0.099074074,-0.251851852,1,0,0,12.117,Diorite_rect,3,0,3,0,1,
615d051e2366aeb051acb734,SCN,2024-06-25_12h39.26.989,LearnStrategy,2023.2.3,MacIntel,60.0240096,2,2,5,,,,,,,,1,09,,,,,,,,,,,1,13.503,1,,,,,,-0.494444444,-0.258333333,1,0,0,13.503,Andesite_rect,4,0,4,0,1,
615d051e2366aeb051acb734,SCN,2024-06-25_12h39.26.989,LearnStrategy,2023.2.3,MacIntel,60.0240096,2,2,6,,,,,,,,2,09,,,,,,,,,,,2,1.162,1,,,,,,-0.17962963,-0.233333333,1,0,0,1.162,Basalt_rect,5,0,5,0,1,
615d051e2366aeb051acb734,SCN,2024-06-25_12h39.26.989,LearnStrategy,2023.2.3,MacIntel,60.0240096,2,2,7,,,,,,,,7,14,,,,,,,,,,,7,1.483,1,,,,,,0.102777778,-0.387037037,1,0,0,1.483,Peridotite_rect,6,0,6,0,1,
615d051e2366aeb051acb734,SCN,2024-06-25_12h39.26.989,LearnStrategy,2023.2.3,MacIntel,60.0240096,2,2,8,,,,,,,,3,08,,,,,,,,,,,3,7.951,1,,,,,,0.121296296,-0.247222222,1,0,0,7.951,Diorite_rect,7,0,7,0,1,
615d051e2366aeb051acb734,SCN,2024-06-25_12h39.26.989,LearnStrategy,2023.2.3,MacIntel,60.0240096,2,2,9,,,,,,,,3,02,,,,,,,,,,,3,1.419,1,,,,,,0.118518519,-0.24537037,1,0,0,1.419,Diorite_rect,8,0,8,0,1,
615d051e2366aeb051acb734,SCN,2024-06-25_12h39.26.989,LearnStrategy,2023.2.3,MacIntel,60.0240096,2,2,10,,,,,,,,6,05,,,,,,,,,,,6,1.545,1,,,,,,-0.099074074,-0.397222222,1,0,0,1.545,Pegmatite_rect,9,0,9,0,1,
615d051e2366aeb051acb734,SCN,2024-06-25_12h39.26.989,LearnStrategy,2023.2.3,MacIntel,60.0240096,2,2,11,,,,,,,,4,11,,,,,,,,,,,1,1.708,0,,,,,,-0.388888889,-0.241666667,1,0,0,1.708,Andesite_rect,10,0,10,0,1,
615d051e2366aeb051acb734,SCN,2024-06-25_12h39.26.989,LearnStrategy,2023.2.3,MacIntel,60.0240096,2,2,12,,,,,,,,7,13,,,,,,,,,,,7,1.087,1,,,,,,0.075925926,-0.409259259,1,0,0,1.087,Peridotite_rect,11,0,11,0,1,
615d051e2366aeb051acb734,SCN,2024-06-25_12h39.26.989,LearnStrategy,2023.2.3,MacIntel,60.0240096,2,2,13,,,,,,,,8,14,,,,,,,,,,,8,1.133,1,,,,,,0.387037037,-0.393518519,1,0,0,1.133,Pumice_rect,12,0,12,0,1,
615d051e2366aeb051acb734,SCN,2024-06-25_12h39.26.989,LearnStrategy,2023.2.3,MacIntel,60.0240096,2,2,14,,,,,,,,2,14,,,,,,,,,,,8,1.475,0,,,,,,0.331481481,-0.378703704,1,0,0,1.475,Pumice_rect,13,0,13,0,1,
615d051e2366aeb051acb734,SCN,2024-06-25_12h39.26.989,LearnStrategy,2023.2.3,MacIntel,60.0240096,2,2,15,,,,,,,,8,10,,,,,,,,,,,8,3.374,1,,,,,,0.315740741,-0.385185185,1,0,0,3.374,Pumice_rect,14,0,14,0,1,
615d051e2366aeb051acb734,SCN,2024-06-25_12h39.26.989,LearnStrategy,2023.2.3,MacIntel,60.0240096,2,2,16,,,,,,,,5,16,,,,,,,,,,,5,1.89,1,,,,,,-0.400925926,-0.40462963,1,0,0,1.89,Obsidian_rect,15,0,15,0,1,
615d051e2366aeb051acb734,SCN,2024-06-25_12h39.26.989,LearnStrategy,2023.2.3,MacIntel,60.0240096,3,1,1,-0.396296296,0.249074074,1,0,0,1.831,Gabbro_05,4,05,5,2,1.831,0.116666667,-0.415740741,1,0,0,1.381,Peridotite_rect,7,1.381,0,0,0,0,0,1,,,,,,,,,,,,,
615d051e2366aeb051acb734,SCN,2024-06-25_12h39.26.989,LearnStrategy,2023.2.3,MacIntel,60.0240096,3,1,2,-0.07037037,0.246296296,1,0,0,1.579,Andesite_03,1,03,5,4,1.579,-0.385185185,-0.238888889,1,0,0,0.972,Andesite_rect,1,0.972,1,1,0,1,0,1,,,,,,,,,,,,,
615d051e2366aeb051acb734,SCN,2024-06-25_12h39.26.989,LearnStrategy,2023.2.3,MacIntel,60.0240096,3,1,3,0.103703704,0.265740741,1,0,0,1.166,Diorite_16,3,16,5,5,1.166,0.136111111,-0.237037037,1,0,0,3.151,Diorite_rect,3,3.151,1,2,0,2,0,1,,,,,,,,,,,,,
615d051e2366aeb051acb734,SCN,2024-06-25_12h39.26.989,LearnStrategy,2023.2.3,MacIntel,60.0240096,3,1,4,0.25,0.24537037,1,0,0,0.897,Diorite_06,3,06,5,6,0.897,0.087037037,-0.27037037,1,0,0,1.078,Diorite_rect,3,1.078,1,3,0,3,0,1,,,,,,,,,,,,,
615d051e2366aeb051acb734,SCN,2024-06-25_12h39.26.989,LearnStrategy,2023.2.3,MacIntel,60.0240096,3,1,5,0.405555556,0.236111111,1,0,0,0.762,Pumice_16,8,16,5,7,0.762,0.358333333,-0.391666667,1,0,0,0.801,Pumice_rect,8,0.801,1,4,0,4,0,1,,,,,,,,,,,,,
615d051e2366aeb051acb734,SCN,2024-06-25_12h39.26.989,LearnStrategy,2023.2.3,MacIntel,60.0240096,3,1,6,0.549074074,0.262037037,1,0,0,1.082,Basalt_16,2,16,5,8,1.082,-0.202777778,-0.250925926,1,0,0,0.934,Basalt_rect,2,0.934,1,5,0,5,0,1,,,,,,,,,,,,,
615d051e2366aeb051acb734,SCN,2024-06-25_12h39.26.989,LearnStrategy,2023.2.3,MacIntel,60.0240096,3,1,7,-0.360185185,0.094444444,1,0,0,1.465,Peridotite_05,7,05,4,2,1.465,0.134259259,-0.411111111,1,0,0,1.181,Peridotite_rect,7,1.181,1,6,0,6,0,1,,,,,,,,,,,,,
615d051e2366aeb051acb734,SCN,2024-06-25_12h39.26.989,LearnStrategy,2023.2.3,MacIntel,60.0240096,3,1,8,-0.250925926,0.089814815,1,0,0,0.856,Basalt_12,2,12,4,3,0.856,0.342592593,-0.418518519,1,0,0,0.931,Pumice_rect,8,0.931,0,7,0,7,0,1,,,,,,,,,,,,,
615d051e2366aeb051acb734,SCN,2024-06-25_12h39.26.989,LearnStrategy,2023.2.3,MacIntel,60.0240096,3,1,9,-0.07037037,0.103703704,1,0,0,0.712,Gabbro_13,4,13,4,4,0.712,-0.385185185,-0.255555556,1,0,0,33.613,Andesite_rect,1,33.613,0,8,0,8,0,1,,,,,,,,,,,,,
615d051e2366aeb051acb734,SCN,2024-06-25_12h39.26.989,LearnStrategy,2023.2.3,MacIntel,60.0240096,3,1,10,-0.356481481,0.10462963,1,0,0,1.925,Peridotite_05,7,05,4,2,1.925,0.087962963,-0.415740741,1,0,0,1.14,Peridotite_rect,7,1.14,1,9,0,9,0,1,,,,,,,,,,,,,
615d051e2366aeb051acb734,SCN,2024-06-25_12h39.26.989,LearnStrategy,2023.2.3,MacIntel,60.0240096,3,1,11,-0.238888889,0.100925926,1,0,0,0.785,Basalt_12,2,12,4,3,0.785,-0.165740741,-0.263888889,1,0,0,1.393,Basalt_rect,2,1.393,1,10,0,10,0,1,,,,,,,,,,,,,
615d051e2366aeb051acb734,SCN,2024-06-25_12h39.26.989,LearnStrategy,2023.2.3,MacIntel,60.0240096,3,1,12,-0.07037037,0.080555556,1,0,0,0.735,Gabbro_13,4,13,4,4,0.735,0.365740741,-0.25462963,1,0,0,1.565,Gabbro_rect,4,1.565,1,11,0,11,0,1,,,,,,,,,,,,,
615d051e2366aeb051acb734,SCN,2024-06-25_12h39.26.989,LearnStrategy,2023.2.3,MacIntel,60.0240096,3,1,13,0.072222222,0.060185185,1,0,0,0.949,Pegmatite_13,6,13,4,5,0.949,-0.128703704,-0.39537037,1,0,0,6.217,Pegmatite_rect,6,6.217,1,12,0,12,0,1,,,,,,,,,,,,,
615d051e2366aeb051acb734,SCN,2024-06-25_12h39.26.989,LearnStrategy,2023.2.3,MacIntel,60.0240096,3,1,14,0.20462963,0.101851852,1,0,0,2.161,Andesite_10,1,10,4,6,2.161,-0.391666667,-0.25462963,1,0,0,1.411,Andesite_rect,1,1.411,1,13,0,13,0,1,,,,,,,,,,,,,
615d051e2366aeb051acb734,SCN,2024-06-25_12h39.26.989,LearnStrategy,2023.2.3,MacIntel,60.0240096,3,1,15,-0.403703704,-0.115740741,1,0,0,1.864,Pumice_02,8,02,3,2,1.864,0.381481481,-0.392592593,1,0,0,1.27,Pumice_rect,8,1.27,1,14,0,14,0,1,,,,,,,,,,,,,
615d051e2366aeb051acb734,SCN,2024-06-25_12h39.26.989,LearnStrategy,2023.2.3,MacIntel,60.0240096,3,1,16,-0.221296296,-0.112037037,1,0,0,0.867,Pegmatite_16,6,16,3,3,0.867,-0.142592593,-0.396296296,1,0,0,0.882,Pegmatite_rect,6,0.882,1,15,0,15,0,1,,,,,,,,,,,,,
615d051e2366aeb051acb734,SCN,2024-06-25_12h39.26.989,LearnStrategy,2023.2.3,MacIntel,60.0240096,3,2,1,,,,,,,,3,12,,,,,,,,,,,3,32.445,1,,,,,,0.175925926,-0.255555556,1,0,0,32.445,Diorite_rect,0,0,0,0,1,
615d051e2366aeb051acb734,SCN,2024-06-25_12h39.26.989,LearnStrategy,2023.2.3,MacIntel,60.0240096,3,2,2,,,,,,,,2,10,,,,,,,,,,,2,3.087,1,,,,,,-0.143518519,-0.257407407,1,0,0,3.087,Basalt_rect,1,0,1,0,1,
615d051e2366aeb051acb734,SCN,2024-06-25_12h39.26.989,LearnStrategy,2023.2.3,MacIntel,60.0240096,3,2,3,,,,,,,,1,11,,,,,,,,,,,4,7.089,0,,,,,,0.363888889,-0.244444444,1,0,0,7.089,Gabbro_rect,2,0,2,0,1,
615d051e2366aeb051acb734,SCN,2024-06-25_12h39.26.989,LearnStrategy,2023.2.3,MacIntel,60.0240096,3,2,4,,,,,,,,6,03,,,,,,,,,,,6,1.319,1,,,,,,-0.099074074,-0.392592593,1,0,0,1.319,Pegmatite_rect,3,0,3,0,1,
615d051e2366aeb051acb734,SCN,2024-06-25_12h39.26.989,LearnStrategy,2023.2.3,MacIntel,60.0240096,3,2,5,,,,,,,,4,10,,,,,,,,,,,1,9.006,0,,,,,,-0.350925926,-0.22962963,1,0,0,9.006,Andesite_rect,4,0,4,0,1,
615d051e2366aeb051acb734,SCN,2024-06-25_12h39.26.989,LearnStrategy,2023.2.3,MacIntel,60.0240096,3,2,6,,,,,,,,1,06,,,,,,,,,,,1,1.299,1,,,,,,-0.364814815,-0.256481481,1,0,0,1.299,Andesite_rect,5,0,5,0,1,
615d051e2366aeb051acb734,SCN,2024-06-25_12h39.26.989,LearnStrategy,2023.2.3,MacIntel,60.0240096,3,2,7,,,,,,,,8,09,,,,,,,,,,,8,2.125,1,,,,,,0.369444444,-0.410185185,1,0,0,2.125,Pumice_rect,6,0,6,0,1,
615d051e2366aeb051acb734,SCN,2024-06-25_12h39.26.989,LearnStrategy,2023.2.3,MacIntel,60.0240096,3,2,8,,,,,,,,5,05,,,,,,,,,,,5,1.35,1,,,,,,-0.394444444,-0.410185185,1,0,0,1.35,Obsidian_rect,7,0,7,0,1,
615d051e2366aeb051acb734,SCN,2024-06-25_12h39.26.989,LearnStrategy,2023.2.3,MacIntel,60.0240096,3,2,9,,,,,,,,3,15,,,,,,,,,,,3,3.614,1,,,,,,0.067592593,-0.236111111,1,0,0,3.614,Diorite_rect,8,0,8,0,1,
615d051e2366aeb051acb734,SCN,2024-06-25_12h39.26.989,LearnStrategy,2023.2.3,MacIntel,60.0240096,3,2,10,,,,,,,,2,02,,,,,,,,,,,2,1.274,1,,,,,,-0.175925926,-0.243518519,1,0,0,1.274,Basalt_rect,9,0,9,0,1,
615d051e2366aeb051acb734,SCN,2024-06-25_12h39.26.989,LearnStrategy,2023.2.3,MacIntel,60.0240096,3,2,11,,,,,,,,7,08,,,,,,,,,,,7,1.196,1,,,,,,0.131481481,-0.398148148,1,0,0,1.196,Peridotite_rect,10,0,10,0,1,
615d051e2366aeb051acb734,SCN,2024-06-25_12h39.26.989,LearnStrategy,2023.2.3,MacIntel,60.0240096,3,2,12,,,,,,,,6,12,,,,,,,,,,,6,1.088,1,,,,,,-0.134259259,-0.408333333,1,0,0,1.088,Pegmatite_rect,11,0,11,0,1,
615d051e2366aeb051acb734,SCN,2024-06-25_12h39.26.989,LearnStrategy,2023.2.3,MacIntel,60.0240096,3,2,13,,,,,,,,5,07,,,,,,,,,,,5,1.066,1,,,,,,-0.376851852,-0.384259259,1,0,0,1.066,Obsidian_rect,12,0,12,0,1,
615d051e2366aeb051acb734,SCN,2024-06-25_12h39.26.989,LearnStrategy,2023.2.3,MacIntel,60.0240096,3,2,14,,,,,,,,7,12,,,,,,,,,,,7,1.244,1,,,,,,0.069444444,-0.387962963,1,0,0,1.244,Peridotite_rect,13,0,13,0,1,
615d051e2366aeb051acb734,SCN,2024-06-25_12h39.26.989,LearnStrategy,2023.2.3,MacIntel,60.0240096,3,2,15,,,,,,,,8,06,,,,,,,,,,,8,3.458,1,,,,,,0.359259259,-0.401851852,1,0,0,3.458,Pumice_rect,14,0,14,0,1,
615d051e2366aeb051acb734,SCN,2024-06-25_12h39.26.989,LearnStrategy,2023.2.3,MacIntel,60.0240096,3,2,16,,,,,,,,4,12,,,,,,,,,,,1,2.945,0,,,,,,-0.350925926,-0.257407407,1,0,0,2.945,Andesite_rect,15,0,15,0,1,
615d051e2366aeb051acb734,SCN,2024-06-25_12h39.26.989,LearnStrategy,2023.2.3,MacIntel,60.0240096,4,1,1,-0.399074074,-0.102777778,1,0,0,2.031,Pumice_02,8,02,3,2,2.031,0.356481481,-0.413888889,1,0,0,1.071,Pumice_rect,8,1.071,1,0,0,0,0,1,,,,,,,,,,,,,
615d051e2366aeb051acb734,SCN,2024-06-25_12h39.26.989,LearnStrategy,2023.2.3,MacIntel,60.0240096,4,1,2,-0.094444444,-0.108333333,1,0,0,1.381,Gabbro_08,4,08,3,4,1.381,0.401851852,-0.244444444,1,0,0,3.84,Gabbro_rect,4,3.84,1,1,0,1,0,1,,,,,,,,,,,,,
615d051e2366aeb051acb734,SCN,2024-06-25_12h39.26.989,LearnStrategy,2023.2.3,MacIntel,60.0240096,4,1,3,0.061111111,-0.097222222,1,0,0,0.831,Gabbro_09,4,09,3,5,0.831,0.409259259,-0.237037037,1,0,0,1.369,Gabbro_rect,4,1.369,1,2,0,2,0,1,,,,,,,,,,,,,
615d051e2366aeb051acb734,SCN,2024-06-25_12h39.26.989,LearnStrategy,2023.2.3,MacIntel,60.0240096,4,1,4,0.25,-0.136111111,1,0,0,0.949,Peridotite_07,7,07,3,6,0.949,0.161111111,-0.407407407,1,0,0,1.49,Peridotite_rect,7,1.49,1,3,0,3,0,1,,,,,,,,,,,,,
615d051e2366aeb051acb734,SCN,2024-06-25_12h39.26.989,LearnStrategy,2023.2.3,MacIntel,60.0240096,4,1,5,0.39537037,-0.143518519,1,0,0,0.965,Pumice_03,8,03,3,7,0.965,0.369444444,-0.391666667,1,0,0,0.885,Pumice_rect,8,0.885,1,4,0,4,0,1,,,,,,,,,,,,,
615d051e2366aeb051acb734,SCN,2024-06-25_12h39.26.989,LearnStrategy,2023.2.3,MacIntel,60.0240096,4,1,6,0.571296296,-0.124074074,1,0,0,1.083,Gabbro_15,4,15,3,8,1.083,0.344444444,-0.249074074,1,0,0,2.396,Gabbro_rect,4,2.396,1,5,0,5,0,1,,,,,,,,,,,,,
615d051e2366aeb051acb734,SCN,2024-06-25_12h39.26.989,LearnStrategy,2023.2.3,MacIntel,60.0240096,4,1,7,-0.540740741,-0.280555556,1,0,0,1.494,Andesite_01,1,01,2,1,1.494,-0.407407407,-0.261111111,1,0,0,0.802,Andesite_rect,1,0.802,1,6,0,6,0,1,,,,,,,,,,,,,
615d051e2366aeb051acb734,SCN,2024-06-25_12h39.26.989,LearnStrategy,2023.2.3,MacIntel,60.0240096,4,1,8,-0.256481481,-0.232407407,1,0,0,1.031,Peridotite_16,7,16,2,3,1.031,0.183333333,-0.407407407,1,0,0,1.158,Peridotite_rect,7,1.158,1,7,0,7,0,1,,,,,,,,,,,,,
615d051e2366aeb051acb734,SCN,2024-06-25_12h39.26.989,LearnStrategy,2023.2.3,MacIntel,60.0240096,4,1,9,0.091666667,-0.249074074,1,0,0,1.081,Diorite_13,3,13,2,5,1.081,0.089814815,-0.248148148,1,0,0,0.612,Diorite_rect,3,0.612,1,8,0,8,0,1,,,,,,,,,,,,,
615d051e2366aeb051acb734,SCN,2024-06-25_12h39.26.989,LearnStrategy,2023.2.3,MacIntel,60.0240096,4,1,10,0.544444444,-0.288888889,1,0,0,1.067,Andesite_04,1,04,2,8,1.067,0.375,-0.244444444,1,0,0,2.671,Gabbro_rect,4,2.671,0,9,0,9,0,1,,,,,,,,,,,,,
615d051e2366aeb051acb734,SCN,2024-06-25_12h39.26.989,LearnStrategy,2023.2.3,MacIntel,60.0240096,4,1,11,-0.574074074,-0.408333333,1,0,0,1.109,Basalt_11,2,11,1,1,1.109,-0.152777778,-0.263888889,1,0,0,2.744,Basalt_rect,2,2.744,1,10,0,10,0,1,,,,,,,,,,,,,
615d051e2366aeb051acb734,SCN,2024-06-25_12h39.26.989,LearnStrategy,2023.2.3,MacIntel,60.0240096,4,1,12,-0.362962963,-0.415740741,1,0,0,0.896,Basalt_04,2,04,1,2,0.896,-0.140740741,-0.256481481,1,0,0,1.047,Basalt_rect,2,1.047,1,11,0,11,0,1,,,,,,,,,,,,,
615d051e2366aeb051acb734,SCN,2024-06-25_12h39.26.989,LearnStrategy,2023.2.3,MacIntel,60.0240096,4,1,13,-0.255555556,-0.400925926,1,0,0,0.873,Basalt_08,2,08,1,3,0.873,-0.17037037,-0.252777778,1,0,0,1.073,Basalt_rect,2,1.073,1,12,0,12,0,1,,,,,,,,,,,,,
615d051e2366aeb051acb734,SCN,2024-06-25_12h39.26.989,LearnStrategy,2023.2.3,MacIntel,60.0240096,4,1,14,-0.042592593,-0.437962963,1,0,0,0.731,Peridotite_06,7,06,1,4,0.731,0.150925926,-0.411111111,1,0,0,0.872,Peridotite_rect,7,0.872,1,13,0,13,0,1,,,,,,,,,,,,,
615d051e2366aeb051acb734,SCN,2024-06-25_12h39.26.989,LearnStrategy,2023.2.3,MacIntel,60.0240096,4,1,15,0.09537037,-0.412962963,1,0,0,1.081,Andesite_07,1,07,1,5,1.081,0.153703704,-0.239814815,1,0,0,2.714,Diorite_rect,3,2.714,0,14,0,14,0,1,,,,,,,,,,,,,
615d051e2366aeb051acb734,SCN,2024-06-25_12h39.26.989,LearnStrategy,2023.2.3,MacIntel,60.0240096,4,1,16,0.235185185,-0.375,1,0,0,0.857,Diorite_07,3,07,1,6,0.857,0.169444444,-0.237962963,1,0,0,0.605,Diorite_rect,3,0.605,1,15,0,15,0,1,,,,,,,,,,,,,
615d051e2366aeb051acb734,SCN,2024-06-25_12h39.26.989,LearnStrategy,2023.2.3,MacIntel,60.0240096,4,2,1,,,,,,,,8,06,,,,,,,,,,,8,1.073,1,,,,,,0.396296296,-0.400925926,1,0,0,1.073,Pumice_rect,0,0,0,0,1,
615d051e2366aeb051acb734,SCN,2024-06-25_12h39.26.989,LearnStrategy,2023.2.3,MacIntel,60.0240096,4,2,2,,,,,,,,3,11,,,,,,,,,,,7,1.199,0,,,,,,0.112962963,-0.394444444,1,0,0,1.199,Peridotite_rect,1,0,1,0,1,
615d051e2366aeb051acb734,SCN,2024-06-25_12h39.26.989,LearnStrategy,2023.2.3,MacIntel,60.0240096,4,2,3,,,,,,,,2,01,,,,,,,,,,,2,0.786,1,,,,,,-0.134259259,-0.262037037,1,0,0,0.786,Basalt_rect,2,0,2,0,1,
615d051e2366aeb051acb734,SCN,2024-06-25_12h39.26.989,LearnStrategy,2023.2.3,MacIntel,60.0240096,4,2,4,,,,,,,,6,10,,,,,,,,,,,7,0.892,0,,,,,,0.125925926,-0.397222222,1,0,0,0.892,Peridotite_rect,3,0,3,0,1,
615d051e2366aeb051acb734,SCN,2024-06-25_12h39.26.989,LearnStrategy,2023.2.3,MacIntel,60.0240096,4,2,5,,,,,,,,3,02,,,,,,,,,,,3,1.236,1,,,,,,0.115740741,-0.235185185,1,0,0,1.236,Diorite_rect,4,0,4,0,1,
615d051e2366aeb051acb734,SCN,2024-06-25_12h39.26.989,LearnStrategy,2023.2.3,MacIntel,60.0240096,4,2,6,,,,,,,,6,12,,,,,,,,,,,6,0.985,1,,,,,,-0.124074074,-0.408333333,1,0,0,0.985,Pegmatite_rect,5,0,5,0,1,
615d051e2366aeb051acb734,SCN,2024-06-25_12h39.26.989,LearnStrategy,2023.2.3,MacIntel,60.0240096,4,2,7,,,,,,,,7,02,,,,,,,,,,,7,0.806,1,,,,,,0.103703704,-0.417592593,1,0,0,0.806,Peridotite_rect,6,0,6,0,1,
615d051e2366aeb051acb734,SCN,2024-06-25_12h39.26.989,LearnStrategy,2023.2.3,MacIntel,60.0240096,4,2,8,,,,,,,,5,05,,,,,,,,,,,5,1.015,1,,,,,,-0.411111111,-0.42037037,1,0,0,1.015,Obsidian_rect,7,0,7,0,1,
615d051e2366aeb051acb734,SCN,2024-06-25_12h39.26.989,LearnStrategy,2023.2.3,MacIntel,60.0240096,4,2,9,,,,,,,,1,05,,,,,,,,,,,1,27.813,1,,,,,,-0.387037037,-0.259259259,1,0,0,27.813,Andesite_rect,8,0,8,0,1,
615d051e2366aeb051acb734,SCN,2024-06-25_12h39.26.989,LearnStrategy,2023.2.3,MacIntel,60.0240096,4,2,10,,,,,,,,1,11,,,,,,,,,,,2,53.861,0,,,,,,-0.119444444,-0.242592593,1,0,0,53.861,Basalt_rect,9,0,9,0,1,
615d051e2366aeb051acb734,SCN,2024-06-25_12h39.26.989,LearnStrategy,2023.2.3,MacIntel,60.0240096,4,2,11,,,,,,,,5,16,,,,,,,,,,,5,1,1,,,,,,-0.409259259,-0.401851852,1,0,0,1,Obsidian_rect,10,0,10,0,1,
615d051e2366aeb051acb734,SCN,2024-06-25_12h39.26.989,LearnStrategy,2023.2.3,MacIntel,60.0240096,4,2,12,,,,,,,,4,11,,,,,,,,,,,4,2.466,1,,,,,,0.40462963,-0.249074074,1,0,0,2.466,Gabbro_rect,11,0,11,0,1,
615d051e2366aeb051acb734,SCN,2024-06-25_12h39.26.989,LearnStrategy,2023.2.3,MacIntel,60.0240096,4,2,13,,,,,,,,4,16,,,,,,,,,,,4,2.216,1,,,,,,0.381481481,-0.248148148,1,0,0,2.216,Gabbro_rect,12,0,12,0,1,
615d051e2366aeb051acb734,SCN,2024-06-25_12h39.26.989,LearnStrategy,2023.2.3,MacIntel,60.0240096,4,2,14,,,,,,,,8,15,,,,,,,,,,,8,1.292,1,,,,,,0.312037037,-0.386111111,1,0,0,1.292,Pumice_rect,13,0,13,0,1,
615d051e2366aeb051acb734,SCN,2024-06-25_12h39.26.989,LearnStrategy,2023.2.3,MacIntel,60.0240096,4,2,15,,,,,,,,2,14,,,,,,,,,,,8,2.268,0,,,,,,0.360185185,-0.389814815,1,0,0,2.268,Pumice_rect,14,0,14,0,1,
615d051e2366aeb051acb734,SCN,2024-06-25_12h39.26.989,LearnStrategy,2023.2.3,MacIntel,60.0240096,4,2,16,,,,,,,,7,08,,,,,,,,,,,7,1.512,1,,,,,,0.05,-0.378703704,1,0,0,1.512,Peridotite_rect,15,0,15,0,1,
615d051e2366aeb051acb734,SCN,2024-06-25_12h39.26.989,LearnStrategy,2023.2.3,MacIntel,60.0240096,5,1,1,0.089814815,-0.407407407,1,0,0,1.619,Andesite_07,1,07,1,5,1.619,-0.349074074,-0.259259259,1,0,0,1.025,Andesite_rect,1,1.025,1,0,0,0,0,1,,,,,,,,,,,,,
615d051e2366aeb051acb734,SCN,2024-06-25_12h39.26.989,LearnStrategy,2023.2.3,MacIntel,60.0240096,5,1,2,0.401851852,-0.42037037,1,0,0,1.512,Peridotite_10,7,10,1,7,1.512,0.158333333,-0.399074074,1,0,0,0.822,Peridotite_rect,7,0.822,1,1,0,1,0,1,,,,,,,,,,,,,
615d051e2366aeb051acb734,SCN,2024-06-25_12h39.26.989,LearnStrategy,2023.2.3,MacIntel,60.0240096,5,1,3,-0.386111111,0.253703704,1,0,0,3.529,Gabbro_05,4,05,5,2,3.529,0.415740741,-0.233333333,1,0,0,1.755,Gabbro_rect,4,1.755,1,2,0,2,0,1,,,,,,,,,,,,,
615d051e2366aeb051acb734,SCN,2024-06-25_12h39.26.989,LearnStrategy,2023.2.3,MacIntel,60.0240096,5,1,4,-0.081481481,0.075925926,1,0,0,1.496,Gabbro_13,4,13,4,4,1.496,0.366666667,-0.233333333,1,0,0,1.479,Gabbro_rect,4,1.479,1,3,0,3,0,1,,,,,,,,,,,,,
615d051e2366aeb051acb734,SCN,2024-06-25_12h39.26.989,LearnStrategy,2023.2.3,MacIntel,60.0240096,5,1,5,0.549074074,-0.272222222,1,0,0,1.41,Andesite_04,1,04,2,8,1.41,-0.118518519,-0.247222222,1,0,0,1.268,Basalt_rect,2,1.268,0,4,0,4,0,1,,,,,,,,,,,,,
615d051e2366aeb051acb734,SCN,2024-06-25_12h39.26.989,LearnStrategy,2023.2.3,MacIntel,60.0240096,5,1,6,-0.55,0.230555556,1,0,0,1.662,Andesite_02,1,02,5,1,1.662,-0.128703704,-0.413888889,1,0,0,2.686,Pegmatite_rect,6,2.686,0,5,0,5,0,1,,,,,,,,,,,,,
615d051e2366aeb051acb734,SCN,2024-06-25_12h39.26.989,LearnStrategy,2023.2.3,MacIntel,60.0240096,5,1,7,-0.528703704,0.221296296,1,0,0,1.244,Andesite_02,1,02,5,1,1.244,-0.450925926,-0.236111111,1,0,0,2.452,Andesite_rect,1,2.452,1,6,0,6,0,1,,,,,,,,,,,,,
615d051e2366aeb051acb734,SCN,2024-06-25_12h39.26.989,LearnStrategy,2023.2.3,MacIntel,60.0240096,5,1,8,0.385185185,0.082407407,1,0,0,1.88,Pumice_08,8,08,4,7,1.88,0.366666667,-0.415740741,1,0,0,0.784,Pumice_rect,8,0.784,1,7,0,7,0,1,,,,,,,,,,,,,
615d051e2366aeb051acb734,SCN,2024-06-25_12h39.26.989,LearnStrategy,2023.2.3,MacIntel,60.0240096,5,1,9,-0.068518519,0.071296296,1,0,0,0.758,Gabbro_13,4,13,4,4,0.758,0.384259259,-0.22962963,1,0,0,4.647,Gabbro_rect,4,4.647,1,8,0,8,0,1,,,,,,,,,,,,,
615d051e2366aeb051acb734,SCN,2024-06-25_12h39.26.989,LearnStrategy,2023.2.3,MacIntel,60.0240096,5,1,10,-0.075925926,-0.078703704,1,0,0,1.65,Gabbro_08,4,08,3,4,1.65,-0.37962963,-0.234259259,1,0,0,3.428,Andesite_rect,1,3.428,0,9,0,9,0,1,,,,,,,,,,,,,
615d051e2366aeb051acb734,SCN,2024-06-25_12h39.26.989,LearnStrategy,2023.2.3,MacIntel,60.0240096,5,1,11,-0.240740741,0.384259259,1,0,0,2.414,Gabbro_03,4,03,6,3,2.414,0.071296296,-0.251851852,1,0,0,2.128,Diorite_rect,3,2.128,0,10,0,10,0,1,,,,,,,,,,,,,
615d051e2366aeb051acb734,SCN,2024-06-25_12h39.26.989,LearnStrategy,2023.2.3,MacIntel,60.0240096,5,1,12,-0.058333333,0.383333333,1,0,0,1.126,Pegmatite_07,6,07,6,4,1.126,-0.151851852,-0.394444444,1,0,0,1.167,Pegmatite_rect,6,1.167,1,11,0,11,0,1,,,,,,,,,,,,,
615d051e2366aeb051acb734,SCN,2024-06-25_12h39.26.989,LearnStrategy,2023.2.3,MacIntel,60.0240096,5,1,13,-0.073148148,0.064814815,1,0,0,3.628,Gabbro_13,4,13,4,4,3.628,-0.367592593,-0.264814815,1,0,0,3.022,Andesite_rect,1,3.022,0,12,0,12,0,1,,,,,,,,,,,,,
615d051e2366aeb051acb734,SCN,2024-06-25_12h39.26.989,LearnStrategy,2023.2.3,MacIntel,60.0240096,5,1,14,0.247222222,0.07962963,1,0,0,1.954,Andesite_10,1,10,4,6,1.954,0.361111111,-0.25,1,0,0,1.409,Gabbro_rect,4,1.409,0,13,0,13,0,1,,,,,,,,,,,,,
615d051e2366aeb051acb734,SCN,2024-06-25_12h39.26.989,LearnStrategy,2023.2.3,MacIntel,60.0240096,5,1,15,0.598148148,-0.100925926,1,0,0,2.449,Gabbro_15,4,15,3,8,2.449,0.330555556,-0.247222222,1,0,0,3.794,Gabbro_rect,4,3.794,1,14,0,14,0,1,,,,,,,,,,,,,
615d051e2366aeb051acb734,SCN,2024-06-25_12h39.26.989,LearnStrategy,2023.2.3,MacIntel,60.0240096,5,1,16,-0.55462963,-0.251851852,1,0,0,1.283,Andesite_01,1,01,2,1,1.283,-0.431481481,-0.263888889,1,0,0,1.976,Andesite_rect,1,1.976,1,15,0,15,0,1,,,,,,,,,,,,,
615d051e2366aeb051acb734,SCN,2024-06-25_12h39.26.989,LearnStrategy,2023.2.3,MacIntel,60.0240096,5,2,1,,,,,,,,2,10,,,,,,,,,,,2,1.37,1,,,,,,-0.166666667,-0.24537037,1,0,0,1.37,Basalt_rect,0,0,0,0,1,
615d051e2366aeb051acb734,SCN,2024-06-25_12h39.26.989,LearnStrategy,2023.2.3,MacIntel,60.0240096,5,2,2,,,,,,,,3,08,,,,,,,,,,,3,1.409,1,,,,,,0.136111111,-0.25462963,1,0,0,1.409,Diorite_rect,1,0,1,0,1,
615d051e2366aeb051acb734,SCN,2024-06-25_12h39.26.989,LearnStrategy,2023.2.3,MacIntel,60.0240096,5,2,3,,,,,,,,3,12,,,,,,,,,,,7,1.795,0,,,,,,0.07962963,-0.392592593,1,0,0,1.795,Peridotite_rect,2,0,2,0,1,
615d051e2366aeb051acb734,SCN,2024-06-25_12h39.26.989,LearnStrategy,2023.2.3,MacIntel,60.0240096,5,2,4,,,,,,,,1,09,,,,,,,,,,,4,3.759,0,,,,,,0.452777778,-0.241666667,1,0,0,3.759,Gabbro_rect,3,0,3,0,1,
615d051e2366aeb051acb734,SCN,2024-06-25_12h39.26.989,LearnStrategy,2023.2.3,MacIntel,60.0240096,5,2,5,,,,,,,,2,02,,,,,,,,,,,2,1.138,1,,,,,,-0.171296296,-0.262962963,1,0,0,1.138,Basalt_rect,4,0,4,0,1,
615d051e2366aeb051acb734,SCN,2024-06-25_12h39.26.989,LearnStrategy,2023.2.3,MacIntel,60.0240096,5,2,6,,,,,,,,4,01,,,,,,,,,,,1,2.813,0,,,,,,-0.325925926,-0.264814815,1,0,0,2.813,Andesite_rect,5,0,5,0,1,
615d051e2366aeb051acb734,SCN,2024-06-25_12h39.26.989,LearnStrategy,2023.2.3,MacIntel,60.0240096,5,2,7,,,,,,,,6,03,,,,,,,,,,,6,1.165,1,,,,,,-0.112962963,-0.407407407,1,0,0,1.165,Pegmatite_rect,6,0,6,0,1,
615d051e2366aeb051acb734,SCN,2024-06-25_12h39.26.989,LearnStrategy,2023.2.3,MacIntel,60.0240096,5,2,8,,,,,,,,8,14,,,,,,,,,,,8,1.231,1,,,,,,0.37037037,-0.414814815,1,0,0,1.231,Pumice_rect,7,0,7,0,1,
615d051e2366aeb051acb734,SCN,2024-06-25_12h39.26.989,LearnStrategy,2023.2.3,MacIntel,60.0240096,5,2,9,,,,,,,,1,16,,,,,,,,,,,6,5.077,0,,,,,,-0.076851852,-0.380555556,1,0,0,5.077,Pegmatite_rect,8,0,8,0,1,
615d051e2366aeb051acb734,SCN,2024-06-25_12h39.26.989,LearnStrategy,2023.2.3,MacIntel,60.0240096,5,2,10,,,,,,,,4,12,,,,,,,,,,,1,3.628,0,,,,,,-0.357407407,-0.241666667,1,0,0,3.628,Andesite_rect,9,0,9,0,1,
615d051e2366aeb051acb734,SCN,2024-06-25_12h39.26.989,LearnStrategy,2023.2.3,MacIntel,60.0240096,5,2,11,,,,,,,,7,04,,,,,,,,,,,7,1.204,1,,,,,,0.125925926,-0.406481481,1,0,0,1.204,Peridotite_rect,10,0,10,0,1,
615d051e2366aeb051acb734,SCN,2024-06-25_12h39.26.989,LearnStrategy,2023.2.3,MacIntel,60.0240096,5,2,12,,,,,,,,6,06,,,,,,,,,,,6,1.138,1,,,,,,-0.125,-0.39537037,1,0,0,1.138,Pegmatite_rect,11,0,11,0,1,
615d051e2366aeb051acb734,SCN,2024-06-25_12h39.26.989,LearnStrategy,2023.2.3,MacIntel,60.0240096,5,2,13,,,,,,,,5,14,,,,,,,,,,,5,1.056,1,,,,,,-0.400925926,-0.408333333,1,0,0,1.056,Obsidian_rect,12,0,12,0,1,
615d051e2366aeb051acb734,SCN,2024-06-25_12h39.26.989,LearnStrategy,2023.2.3,MacIntel,60.0240096,5,2,14,,,,,,,,5,06,,,,,,,,,,,5,0.697,1,,,,,,-0.401851852,-0.403703704,1,0,0,0.697,Obsidian_rect,13,0,13,0,1,
615d051e2366aeb051acb734,SCN,2024-06-25_12h39.26.989,LearnStrategy,2023.2.3,MacIntel,60.0240096,5,2,15,,,,,,,,8,04,,,,,,,,,,,8,1.204,1,,,,,,0.385185185,-0.388888889,1,0,0,1.204,Pumice_rect,14,0,14,0,1,
615d051e2366aeb051acb734,SCN,2024-06-25_12h39.26.989,LearnStrategy,2023.2.3,MacIntel,60.0240096,5,2,16,,,,,,,,7,14,,,,,,,,,,,7,1.417,1,,,,,,0.137962963,-0.402777778,1,0,0,1.417,Peridotite_rect,15,0,15,0,1,
615d051e2366aeb051acb734,SCN,2024-06-25_12h39.26.989,LearnStrategy,2023.2.3,MacIntel,60.0240096,6,1,1,0.090740741,0.142592593,1,0,0,1.328,Pegmatite_13,6,13,4,5,1.328,-0.106481481,-0.391666667,1,0,0,1.746,Pegmatite_rect,6,1.746,1,0,0,0,0,1,,,,,,,,,,,,,
615d051e2366aeb051acb734,SCN,2024-06-25_12h39.26.989,LearnStrategy,2023.2.3,MacIntel,60.0240096,6,1,2,-0.542592593,0.219444444,1,0,0,1.064,Andesite_02,1,02,5,1,1.064,0.341666667,-0.25462963,1,0,0,2.974,Gabbro_rect,4,2.974,0,1,0,1,0,1,,,,,,,,,,,,,
615d051e2366aeb051acb734,SCN,2024-06-25_12h39.26.989,LearnStrategy,2023.2.3,MacIntel,60.0240096,6,1,3,-0.387037037,0.237037037,1,0,0,1.057,Gabbro_05,4,05,5,2,1.057,-0.352777778,-0.240740741,1,0,0,1.333,Andesite_rect,1,1.333,0,2,0,2,0,1,,,,,,,,,,,,,
615d051e2366aeb051acb734,SCN,2024-06-25_12h39.26.989,LearnStrategy,2023.2.3,MacIntel,60.0240096,6,1,4,0.092592593,0.246296296,1,0,0,1.748,Diorite_16,3,16,5,5,1.748,0.060185185,-0.22962963,1,0,0,1.135,Diorite_rect,3,1.135,1,3,0,3,0,1,,,,,,,,,,,,,
615d051e2366aeb051acb734,SCN,2024-06-25_12h39.26.989,LearnStrategy,2023.2.3,MacIntel,60.0240096,6,1,5,0.242592593,0.258333333,1,0,0,0.833,Diorite_06,3,06,5,6,0.833,0.073148148,-0.249074074,1,0,0,1.117,Diorite_rect,3,1.117,1,4,0,4,0,1,,,,,,,,,,,,,
615d051e2366aeb051acb734,SCN,2024-06-25_12h39.26.989,LearnStrategy,2023.2.3,MacIntel,60.0240096,6,1,6,-0.430555556,0.100925926,1,0,0,2.656,Peridotite_05,7,05,4,2,2.656,0.108333333,-0.386111111,1,0,0,1.322,Peridotite_rect,7,1.322,1,5,0,5,0,1,,,,,,,,,,,,,
615d051e2366aeb051acb734,SCN,2024-06-25_12h39.26.989,LearnStrategy,2023.2.3,MacIntel,60.0240096,6,1,7,-0.053703704,0.106481481,1,0,0,1.419,Gabbro_13,4,13,4,4,1.419,0.371296296,-0.237962963,1,0,0,1.044,Gabbro_rect,4,1.044,1,6,0,6,0,1,,,,,,,,,,,,,
615d051e2366aeb051acb734,SCN,2024-06-25_12h39.26.989,LearnStrategy,2023.2.3,MacIntel,60.0240096,6,1,8,0.219444444,0.076851852,1,0,0,1.817,Andesite_10,1,10,4,6,1.817,0.325,-0.252777778,1,0,0,1.296,Gabbro_rect,4,1.296,0,7,0,7,0,1,,,,,,,,,,,,,
615d051e2366aeb051acb734,SCN,2024-06-25_12h39.26.989,LearnStrategy,2023.2.3,MacIntel,60.0240096,6,1,9,-0.044444444,-0.090740741,1,0,0,2.741,Gabbro_08,4,08,3,4,2.741,-0.452777778,-0.27037037,1,0,0,0.897,Andesite_rect,1,0.897,0,8,0,8,0,1,,,,,,,,,,,,,
615d051e2366aeb051acb734,SCN,2024-06-25_12h39.26.989,LearnStrategy,2023.2.3,MacIntel,60.0240096,6,1,10,0.055555556,-0.112962963,1,0,0,1.828,Gabbro_09,4,09,3,5,1.828,0.363888889,-0.253703704,1,0,0,1.314,Gabbro_rect,4,1.314,1,9,0,9,0,1,,,,,,,,,,,,,
615d051e2366aeb051acb734,SCN,2024-06-25_12h39.26.989,LearnStrategy,2023.2.3,MacIntel,60.0240096,6,1,11,0.552777778,-0.084259259,1,0,0,1.63,Gabbro_15,4,15,3,8,1.63,0.344444444,-0.248148148,1,0,0,1.318,Gabbro_rect,4,1.318,1,10,0,10,0,1,,,,,,,,,,,,,
615d051e2366aeb051acb734,SCN,2024-06-25_12h39.26.989,LearnStrategy,2023.2.3,MacIntel,60.0240096,6,1,12,-0.531481481,-0.251851852,1,0,0,1.062,Andesite_01,1,01,2,1,1.062,0.350925926,-0.251851852,1,0,0,1.136,Gabbro_rect,4,1.136,0,11,0,11,0,1,,,,,,,,,,,,,
615d051e2366aeb051acb734,SCN,2024-06-25_12h39.26.989,LearnStrategy,2023.2.3,MacIntel,60.0240096,6,1,13,-0.264814815,-0.243518519,1,0,0,1.034,Peridotite_16,7,16,2,3,1.034,0.1,-0.382407407,1,0,0,1.312,Peridotite_rect,7,1.312,1,12,0,12,0,1,,,,,,,,,,,,,
615d051e2366aeb051acb734,SCN,2024-06-25_12h39.26.989,LearnStrategy,2023.2.3,MacIntel,60.0240096,6,1,14,0.422222222,-0.24537037,1,0,0,2.032,Peridotite_15,7,15,2,7,2.032,0.135185185,-0.412962963,1,0,0,1.073,Peridotite_rect,7,1.073,1,13,0,13,0,1,,,,,,,,,,,,,
615d051e2366aeb051acb734,SCN,2024-06-25_12h39.26.989,LearnStrategy,2023.2.3,MacIntel,60.0240096,6,1,15,0.535185185,-0.275,1,0,0,0.897,Andesite_04,1,04,2,8,0.897,-0.335185185,-0.260185185,1,0,0,2.032,Andesite_rect,1,2.032,1,14,0,14,0,1,,,,,,,,,,,,,
615d051e2366aeb051acb734,SCN,2024-06-25_12h39.26.989,LearnStrategy,2023.2.3,MacIntel,60.0240096,6,1,16,-0.540740741,-0.433333333,1,0,0,1.247,Basalt_11,2,11,1,1,1.247,-0.084259259,-0.243518519,1,0,0,1.939,Basalt_rect,2,1.939,1,15,0,15,0,1,,,,,,,,,,,,,
615d051e2366aeb051acb734,SCN,2024-06-25_12h39.26.989,LearnStrategy,2023.2.3,MacIntel,60.0240096,6,2,1,,,,,,,,2,06,,,,,,,,,,,2,0.93,1,,,,,,-0.152777778,-0.246296296,1,0,0,0.93,Basalt_rect,0,0,0,0,1,
615d051e2366aeb051acb734,SCN,2024-06-25_12h39.26.989,LearnStrategy,2023.2.3,MacIntel,60.0240096,6,2,2,,,,,,,,7,13,,,,,,,,,,,7,1.044,1,,,,,,0.110185185,-0.406481481,1,0,0,1.044,Peridotite_rect,1,0,1,0,1,
615d051e2366aeb051acb734,SCN,2024-06-25_12h39.26.989,LearnStrategy,2023.2.3,MacIntel,60.0240096,6,2,3,,,,,,,,1,14,,,,,,,,,,,6,2.788,0,,,,,,-0.12962963,-0.393518519,1,0,0,2.788,Pegmatite_rect,2,0,2,0,1,
615d051e2366aeb051acb734,SCN,2024-06-25_12h39.26.989,LearnStrategy,2023.2.3,MacIntel,60.0240096,6,2,4,,,,,,,,8,09,,,,,,,,,,,8,1.339,1,,,,,,0.35,-0.401851852,1,0,0,1.339,Pumice_rect,3,0,3,0,1,
615d051e2366aeb051acb734,SCN,2024-06-25_12h39.26.989,LearnStrategy,2023.2.3,MacIntel,60.0240096,6,2,5,,,,,,,,4,10,,,,,,,,,,,4,3.706,1,,,,,,0.308333333,-0.236111111,1,0,0,3.706,Gabbro_rect,4,0,4,0,1,
615d051e2366aeb051acb734,SCN,2024-06-25_12h39.26.989,LearnStrategy,2023.2.3,MacIntel,60.0240096,6,2,6,,,,,,,,3,15,,,,,,,,,,,3,0.987,1,,,,,,0.109259259,-0.228703704,1,0,0,0.987,Diorite_rect,5,0,5,0,1,
615d051e2366aeb051acb734,SCN,2024-06-25_12h39.26.989,LearnStrategy,2023.2.3,MacIntel,60.0240096,6,2,7,,,,,,,,2,09,,,,,,,,,,,2,0.949,1,,,,,,-0.096296296,-0.250925926,1,0,0,0.949,Basalt_rect,6,0,6,0,1,
615d051e2366aeb051acb734,SCN,2024-06-25_12h39.26.989,LearnStrategy,2023.2.3,MacIntel,60.0240096,6,2,8,,,,,,,,4,14,,,,,,,,,,,1,2.477,0,,,,,,-0.361111111,-0.250925926,1,0,0,2.477,Andesite_rect,7,0,7,0,1,
615d051e2366aeb051acb734,SCN,2024-06-25_12h39.26.989,LearnStrategy,2023.2.3,MacIntel,60.0240096,6,2,9,,,,,,,,8,10,,,,,,,,,,,8,1.316,1,,,,,,0.315740741,-0.384259259,1,0,0,1.316,Pumice_rect,8,0,8,0,1,
615d051e2366aeb051acb734,SCN,2024-06-25_12h39.26.989,LearnStrategy,2023.2.3,MacIntel,60.0240096,6,2,10,,,,,,,,7,12,,,,,,,,,,,6,1.913,0,,,,,,-0.091666667,-0.39537037,1,0,0,1.913,Pegmatite_rect,9,0,9,0,1,
615d051e2366aeb051acb734,SCN,2024-06-25_12h39.26.989,LearnStrategy,2023.2.3,MacIntel,60.0240096,6,2,11,,,,,,,,1,06,,,,,,,,,,,1,2.365,1,,,,,,-0.335185185,-0.239814815,1,0,0,2.365,Andesite_rect,10,0,10,0,1,
615d051e2366aeb051acb734,SCN,2024-06-25_12h39.26.989,LearnStrategy,2023.2.3,MacIntel,60.0240096,6,2,12,,,,,,,,6,08,,,,,,,,,,,6,1.503,1,,,,,,-0.192592593,-0.399074074,1,0,0,1.503,Pegmatite_rect,11,0,11,0,1,
615d051e2366aeb051acb734,SCN,2024-06-25_12h39.26.989,LearnStrategy,2023.2.3,MacIntel,60.0240096,6,2,13,,,,,,,,5,07,,,,,,,,,,,5,1.056,1,,,,,,-0.365740741,-0.410185185,1,0,0,1.056,Obsidian_rect,12,0,12,0,1,
615d051e2366aeb051acb734,SCN,2024-06-25_12h39.26.989,LearnStrategy,2023.2.3,MacIntel,60.0240096,6,2,14,,,,,,,,5,11,,,,,,,,,,,5,1.13,1,,,,,,-0.368518519,-0.405555556,1,0,0,1.13,Obsidian_rect,13,0,13,0,1,
615d051e2366aeb051acb734,SCN,2024-06-25_12h39.26.989,LearnStrategy,2023.2.3,MacIntel,60.0240096,6,2,15,,,,,,,,6,05,,,,,,,,,,,6,2.247,1,,,,,,-0.177777778,-0.391666667,1,0,0,2.247,Pegmatite_rect,14,0,14,0,1,
615d051e2366aeb051acb734,SCN,2024-06-25_12h39.26.989,LearnStrategy,2023.2.3,MacIntel,60.0240096,6,2,16,,,,,,,,3,14,,,,,,,,,,,3,1.126,1,,,,,,0.119444444,-0.252777778,1,0,0,1.126,Diorite_rect,15,0,15,0,1,
615d051e2366aeb051acb734,SCN,2024-06-25_12h39.26.989,LearnStrategy,2023.2.3,MacIntel,60.0240096,7,1,1,-0.555555556,0.250925926,1,0,0,0.89,Andesite_02,1,02,5,1,0.89,-0.465740741,-0.247222222,1,0,0,1.44,Andesite_rect,1,1.44,1,0,0,0,0,1,,,,,,,,,,,,,
615d051e2366aeb051acb734,SCN,2024-06-25_12h39.26.989,LearnStrategy,2023.2.3,MacIntel,60.0240096,7,1,2,0.074074074,0.251851852,1,0,0,2.764,Diorite_16,3,16,5,5,2.764,0.127777778,-0.266666667,1,0,0,0.863,Diorite_rect,3,0.863,1,1,0,1,0,1,,,,,,,,,,,,,
615d051e2366aeb051acb734,SCN,2024-06-25_12h39.26.989,LearnStrategy,2023.2.3,MacIntel,60.0240096,7,1,3,-0.071296296,0.281481481,1,0,0,1.083,Andesite_03,1,03,5,4,1.083,-0.166666667,-0.251851852,1,0,0,1.598,Basalt_rect,2,1.598,0,2,0,2,0,1,,,,,,,,,,,,,
615d051e2366aeb051acb734,SCN,2024-06-25_12h39.26.989,LearnStrategy,2023.2.3,MacIntel,60.0240096,7,1,4,-0.362962963,0.111111111,1,0,0,1.983,Peridotite_05,7,05,4,2,1.983,0.151851852,-0.392592593,1,0,0,1.167,Peridotite_rect,7,1.167,1,3,0,3,0,1,,,,,,,,,,,,,
615d051e2366aeb051acb734,SCN,2024-06-25_12h39.26.989,LearnStrategy,2023.2.3,MacIntel,60.0240096,7,1,5,-0.034259259,0.075925926,1,0,0,0.994,Gabbro_13,4,13,4,4,0.994,0.386111111,-0.25,1,0,0,1.1,Gabbro_rect,4,1.1,1,4,0,4,0,1,,,,,,,,,,,,,
615d051e2366aeb051acb734,SCN,2024-06-25_12h39.26.989,LearnStrategy,2023.2.3,MacIntel,60.0240096,7,1,6,0.251851852,0.078703704,1,0,0,1.952,Andesite_10,1,10,4,6,1.952,0.346296296,-0.241666667,1,0,0,1.33,Gabbro_rect,4,1.33,0,5,0,5,0,1,,,,,,,,,,,,,
615d051e2366aeb051acb734,SCN,2024-06-25_12h39.26.989,LearnStrategy,2023.2.3,MacIntel,60.0240096,7,1,7,-0.382407407,-0.116666667,1,0,0,2.195,Pumice_02,8,02,3,2,2.195,0.324074074,-0.416666667,1,0,0,2.09,Pumice_rect,8,2.09,1,6,0,6,0,1,,,,,,,,,,,,,
615d051e2366aeb051acb734,SCN,2024-06-25_12h39.26.989,LearnStrategy,2023.2.3,MacIntel,60.0240096,7,1,8,-0.060185185,-0.105555556,1,0,0,1.647,Gabbro_08,4,08,3,4,1.647,0.350925926,-0.257407407,1,0,0,2.302,Gabbro_rect,4,2.302,1,7,0,7,0,1,,,,,,,,,,,,,
615d051e2366aeb051acb734,SCN,2024-06-25_12h39.26.989,LearnStrategy,2023.2.3,MacIntel,60.0240096,7,1,9,0.071296296,-0.099074074,1,0,0,1.78,Gabbro_09,4,09,3,5,1.78,0.372222222,-0.255555556,1,0,0,1.56,Gabbro_rect,4,1.56,1,8,0,8,0,1,,,,,,,,,,,,,
615d051e2366aeb051acb734,SCN,2024-06-25_12h39.26.989,LearnStrategy,2023.2.3,MacIntel,60.0240096,7,1,10,0.255555556,-0.1,1,0,0,2.147,Peridotite_07,7,07,3,6,2.147,0.084259259,-0.406481481,1,0,0,1.59,Peridotite_rect,7,1.59,1,9,0,9,0,1,,,,,,,,,,,,,
615d051e2366aeb051acb734,SCN,2024-06-25_12h39.26.989,LearnStrategy,2023.2.3,MacIntel,60.0240096,7,1,11,0.550925926,-0.130555556,1,0,0,1.047,Gabbro_15,4,15,3,8,1.047,-0.393518519,-0.243518519,1,0,0,1.281,Andesite_rect,1,1.281,0,10,0,10,0,1,,,,,,,,,,,,,
615d051e2366aeb051acb734,SCN,2024-06-25_12h39.26.989,LearnStrategy,2023.2.3,MacIntel,60.0240096,7,1,12,-0.544444444,-0.260185185,1,0,0,1.24,Andesite_01,1,01,2,1,1.24,-0.435185185,-0.252777778,1,0,0,0.975,Andesite_rect,1,0.975,1,11,0,11,0,1,,,,,,,,,,,,,
615d051e2366aeb051acb734,SCN,2024-06-25_12h39.26.989,LearnStrategy,2023.2.3,MacIntel,60.0240096,7,1,13,-0.266666667,-0.252777778,1,0,0,0.898,Peridotite_16,7,16,2,3,0.898,0.098148148,-0.406481481,1,0,0,0.816,Peridotite_rect,7,0.816,1,12,0,12,0,1,,,,,,,,,,,,,
615d051e2366aeb051acb734,SCN,2024-06-25_12h39.26.989,LearnStrategy,2023.2.3,MacIntel,60.0240096,7,1,14,0.243518519,-0.255555556,1,0,0,6.567,Pegmatite_11,6,11,2,6,6.567,-0.12037037,-0.394444444,1,0,0,1.281,Pegmatite_rect,6,1.281,1,13,0,13,0,1,,,,,,,,,,,,,
615d051e2366aeb051acb734,SCN,2024-06-25_12h39.26.989,LearnStrategy,2023.2.3,MacIntel,60.0240096,7,1,15,-0.218518519,-0.42962963,1,0,0,3.017,Basalt_08,2,08,1,3,3.017,-0.212037037,-0.253703704,1,0,0,0.993,Basalt_rect,2,0.993,1,14,0,14,0,1,,,,,,,,,,,,,
615d051e2366aeb051acb734,SCN,2024-06-25_12h39.26.989,LearnStrategy,2023.2.3,MacIntel,60.0240096,7,1,16,0.087037037,-0.437037037,1,0,0,1.876,Andesite_07,1,07,1,5,1.876,-0.375925926,-0.241666667,1,0,0,1.809,Andesite_rect,1,1.809,1,15,0,15,0,1,,,,,,,,,,,,,
615d051e2366aeb051acb734,SCN,2024-06-25_12h39.26.989,LearnStrategy,2023.2.3,MacIntel,60.0240096,7,2,1,,,,,,,,8,04,,,,,,,,,,,8,1.435,1,,,,,,0.346296296,-0.402777778,1,0,0,1.435,Pumice_rect,0,0,0,0,1,
615d051e2366aeb051acb734,SCN,2024-06-25_12h39.26.989,LearnStrategy,2023.2.3,MacIntel,60.0240096,7,2,2,,,,,,,,6,03,,,,,,,,,,,6,2.01,1,,,,,,-0.124074074,-0.40462963,1,0,0,2.01,Pegmatite_rect,1,0,1,0,1,
615d051e2366aeb051acb734,SCN,2024-06-25_12h39.26.989,LearnStrategy,2023.2.3,MacIntel,60.0240096,7,2,3,,,,,,,,7,04,,,,,,,,,,,7,0.983,1,,,,,,0.076851852,-0.416666667,1,0,0,0.983,Peridotite_rect,2,0,2,0,1,
615d051e2366aeb051acb734,SCN,2024-06-25_12h39.26.989,LearnStrategy,2023.2.3,MacIntel,60.0240096,7,2,4,,,,,,,,8,06,,,,,,,,,,,8,1.091,1,,,,,,0.339814815,-0.405555556,1,0,0,1.091,Pumice_rect,3,0,3,0,1,
615d051e2366aeb051acb734,SCN,2024-06-25_12h39.26.989,LearnStrategy,2023.2.3,MacIntel,60.0240096,7,2,5,,,,,,,,3,11,,,,,,,,,,,3,1.315,1,,,,,,0.135185185,-0.262037037,1,0,0,1.315,Diorite_rect,4,0,4,0,1,
615d051e2366aeb051acb734,SCN,2024-06-25_12h39.26.989,LearnStrategy,2023.2.3,MacIntel,60.0240096,7,2,6,,,,,,,,3,15,,,,,,,,,,,3,0.88,1,,,,,,0.135185185,-0.262037037,1,0,0,0.88,Diorite_rect,5,0,5,0,1,
615d051e2366aeb051acb734,SCN,2024-06-25_12h39.26.989,LearnStrategy,2023.2.3,MacIntel,60.0240096,7,2,7,,,,,,,,5,16,,,,,,,,,,,5,1.582,1,,,,,,-0.376851852,-0.414814815,1,0,0,1.582,Obsidian_rect,6,0,6,0,1,
615d051e2366aeb051acb734,SCN,2024-06-25_12h39.26.989,LearnStrategy,2023.2.3,MacIntel,60.0240096,7,2,8,,,,,,,,5,06,,,,,,,,,,,5,0.99,1,,,,,,-0.418518519,-0.399074074,1,0,0,0.99,Obsidian_rect,7,0,7,0,1,
615d051e2366aeb051acb734,SCN,2024-06-25_12h39.26.989,LearnStrategy,2023.2.3,MacIntel,60.0240096,7,2,9,,,,,,,,6,05,,,,,,,,,,,6,3.836,1,,,,,,-0.168518519,-0.417592593,1,0,0,3.836,Pegmatite_rect,8,0,8,0,1,
615d051e2366aeb051acb734,SCN,2024-06-25_12h39.26.989,LearnStrategy,2023.2.3,MacIntel,60.0240096,7,2,10,,,,,,,,2,02,,,,,,,,,,,2,1.361,1,,,,,,-0.176851852,-0.241666667,1,0,0,1.361,Basalt_rect,9,0,9,0,1,
615d051e2366aeb051acb734,SCN,2024-06-25_12h39.26.989,LearnStrategy,2023.2.3,MacIntel,60.0240096,7,2,11,,,,,,,,2,06,,,,,,,,,,,2,1.291,1,,,,,,-0.140740741,-0.265740741,1,0,0,1.291,Basalt_rect,10,0,10,0,1,
615d051e2366aeb051acb734,SCN,2024-06-25_12h39.26.989,LearnStrategy,2023.2.3,MacIntel,60.0240096,7,2,12,,,,,,,,1,16,,,,,,,,,,,1,1.405,1,,,,,,-0.397222222,-0.24537037,1,0,0,1.405,Andesite_rect,11,0,11,0,1,
615d051e2366aeb051acb734,SCN,2024-06-25_12h39.26.989,LearnStrategy,2023.2.3,MacIntel,60.0240096,7,2,13,,,,,,,,4,16,,,,,,,,,,,4,1.455,1,,,,,,0.362962963,-0.24537037,1,0,0,1.455,Gabbro_rect,12,0,12,0,1,
615d051e2366aeb051acb734,SCN,2024-06-25_12h39.26.989,LearnStrategy,2023.2.3,MacIntel,60.0240096,7,2,14,,,,,,,,1,11,,,,,,,,,,,1,1.344,1,,,,,,-0.425925926,-0.242592593,1,0,0,1.344,Andesite_rect,13,0,13,0,1,
615d051e2366aeb051acb734,SCN,2024-06-25_12h39.26.989,LearnStrategy,2023.2.3,MacIntel,60.0240096,7,2,15,,,,,,,,7,12,,,,,,,,,,,7,2.398,1,,,,,,0.157407407,-0.405555556,1,0,0,2.398,Peridotite_rect,14,0,14,0,1,
615d051e2366aeb051acb734,SCN,2024-06-25_12h39.26.989,LearnStrategy,2023.2.3,MacIntel,60.0240096,7,2,16,,,,,,,,4,14,,,,,,,,,,,1,2.619,0,,,,,,-0.381481481,-0.255555556,1,0,0,2.619,Andesite_rect,15,0,15,0,1,
615d051e2366aeb051acb734,SCN,2024-06-25_12h39.26.989,LearnStrategy,2023.2.3,MacIntel,60.0240096,8,1,1,-0.247222222,0.081481481,1,0,0,1.342,Basalt_12,2,12,4,3,1.342,-0.106481481,-0.262037037,1,0,0,1.175,Basalt_rect,2,1.175,1,0,0,0,0,1,,,,,,,,,,,,,
615d051e2366aeb051acb734,SCN,2024-06-25_12h39.26.989,LearnStrategy,2023.2.3,MacIntel,60.0240096,8,1,2,0.089814815,0.240740741,1,0,0,0.893,Diorite_16,3,16,5,5,0.893,0.108333333,-0.247222222,1,0,0,1.383,Diorite_rect,3,1.383,1,1,0,1,0,1,,,,,,,,,,,,,
615d051e2366aeb051acb734,SCN,2024-06-25_12h39.26.989,LearnStrategy,2023.2.3,MacIntel,60.0240096,8,1,3,-0.061111111,0.40462963,1,0,0,1.305,Pegmatite_07,6,07,6,4,1.305,-0.186111111,-0.388888889,1,0,0,1.073,Pegmatite_rect,6,1.073,1,2,0,2,0,1,,,,,,,,,,,,,
615d051e2366aeb051acb734,SCN,2024-06-25_12h39.26.989,LearnStrategy,2023.2.3,MacIntel,60.0240096,8,1,4,0.387037037,0.396296296,1,0,0,1.482,Pegmatite_15,6,15,6,7,1.482,0.078703704,-0.401851852,1,0,0,1.079,Peridotite_rect,7,1.079,0,3,0,3,0,1,,,,,,,,,,,,,
615d051e2366aeb051acb734,SCN,2024-06-25_12h39.26.989,LearnStrategy,2023.2.3,MacIntel,60.0240096,8,1,5,0.538888889,0.394444444,1,0,0,1.017,Pegmatite_09,6,09,6,8,1.017,-0.092592593,-0.394444444,1,0,0,2.057,Pegmatite_rect,6,2.057,1,4,0,4,0,1,,,,,,,,,,,,,
615d051e2366aeb051acb734,SCN,2024-06-25_12h39.26.989,LearnStrategy,2023.2.3,MacIntel,60.0240096,8,1,6,0.212037037,0.223148148,1,0,0,1.464,Diorite_06,3,06,5,6,1.464,0.130555556,-0.251851852,1,0,0,1.534,Diorite_rect,3,1.534,1,5,0,5,0,1,,,,,,,,,,,,,
615d051e2366aeb051acb734,SCN,2024-06-25_12h39.26.989,LearnStrategy,2023.2.3,MacIntel,60.0240096,8,1,7,-0.060185185,-0.106481481,1,0,0,1.891,Gabbro_08,4,08,3,4,1.891,0.37962963,-0.25462963,1,0,0,1.715,Gabbro_rect,4,1.715,1,6,0,6,0,1,,,,,,,,,,,,,
615d051e2366aeb051acb734,SCN,2024-06-25_12h39.26.989,LearnStrategy,2023.2.3,MacIntel,60.0240096,8,1,8,0.068518519,-0.12037037,1,0,0,0.865,Gabbro_09,4,09,3,5,0.865,0.365740741,-0.244444444,1,0,0,1.082,Gabbro_rect,4,1.082,1,7,0,7,0,1,,,,,,,,,,,,,
615d051e2366aeb051acb734,SCN,2024-06-25_12h39.26.989,LearnStrategy,2023.2.3,MacIntel,60.0240096,8,1,9,0.244444444,-0.106481481,1,0,0,0.913,Peridotite_07,7,07,3,6,0.913,0.080555556,-0.236111111,1,0,0,0.985,Diorite_rect,3,0.985,0,8,0,8,0,1,,,,,,,,,,,,,
615d051e2366aeb051acb734,SCN,2024-06-25_12h39.26.989,LearnStrategy,2023.2.3,MacIntel,60.0240096,8,1,10,0.528703704,-0.12037037,1,0,0,1.232,Gabbro_15,4,15,3,8,1.232,-0.390740741,-0.24537037,1,0,0,1.735,Andesite_rect,1,1.735,0,9,0,9,0,1,,,,,,,,,,,,,
615d051e2366aeb051acb734,SCN,2024-06-25_12h39.26.989,LearnStrategy,2023.2.3,MacIntel,60.0240096,8,1,11,-0.534259259,-0.256481481,1,0,0,1.363,Andesite_01,1,01,2,1,1.363,-0.376851852,-0.244444444,1,0,0,1.465,Andesite_rect,1,1.465,1,10,0,10,0,1,,,,,,,,,,,,,
615d051e2366aeb051acb734,SCN,2024-06-25_12h39.26.989,LearnStrategy,2023.2.3,MacIntel,60.0240096,8,1,12,-0.226851852,-0.289814815,1,0,0,3.746,Peridotite_16,7,16,2,3,3.746,0.109259259,-0.391666667,1,0,0,1.281,Peridotite_rect,7,1.281,1,11,0,11,0,1,,,,,,,,,,,,,
615d051e2366aeb051acb734,SCN,2024-06-25_12h39.26.989,LearnStrategy,2023.2.3,MacIntel,60.0240096,8,1,13,-0.412037037,-0.40462963,1,0,0,0.893,Basalt_04,2,04,1,2,0.893,-0.174074074,-0.253703704,1,0,0,1.085,Basalt_rect,2,1.085,1,12,0,12,0,1,,,,,,,,,,,,,
615d051e2366aeb051acb734,SCN,2024-06-25_12h39.26.989,LearnStrategy,2023.2.3,MacIntel,60.0240096,8,1,14,0.407407407,-0.274074074,1,0,0,1.097,Peridotite_15,7,15,2,7,1.097,0.201851852,-0.231481481,1,0,0,1.014,Diorite_rect,3,1.014,0,13,0,13,0,1,,,,,,,,,,,,,
615d051e2366aeb051acb734,SCN,2024-06-25_12h39.26.989,LearnStrategy,2023.2.3,MacIntel,60.0240096,8,1,15,0.573148148,-0.27962963,1,0,0,1.066,Andesite_04,1,04,2,8,1.066,-0.412962963,-0.238888889,1,0,0,0.863,Andesite_rect,1,0.863,1,14,0,14,0,1,,,,,,,,,,,,,
615d051e2366aeb051acb734,SCN,2024-06-25_12h39.26.989,LearnStrategy,2023.2.3,MacIntel,60.0240096,8,1,16,-0.068518519,-0.081481481,1,0,0,0.58,Gabbro_08,4,08,3,4,0.58,0.413888889,-0.241666667,1,0,0,1.358,Gabbro_rect,4,1.358,1,15,0,15,0,1,,,,,,,,,,,,,
615d051e2366aeb051acb734,SCN,2024-06-25_12h39.26.989,LearnStrategy,2023.2.3,MacIntel,60.0240096,8,2,1,,,,,,,,6,08,,,,,,,,,,,6,1.262,1,,,,,,-0.087962963,-0.387037037,1,0,0,1.262,Pegmatite_rect,0,0,0,0,1,
615d051e2366aeb051acb734,SCN,2024-06-25_12h39.26.989,LearnStrategy,2023.2.3,MacIntel,60.0240096,8,2,2,,,,,,,,1,05,,,,,,,,,,,1,1.692,1,,,,,,-0.407407407,-0.247222222,1,0,0,1.692,Andesite_rect,1,0,1,0,1,
615d051e2366aeb051acb734,SCN,2024-06-25_12h39.26.989,LearnStrategy,2023.2.3,MacIntel,60.0240096,8,2,3,,,,,,,,1,14,,,,,,,,,,,3,5.447,0,,,,,,0.078703704,-0.259259259,1,0,0,5.447,Diorite_rect,2,0,2,0,1,
615d051e2366aeb051acb734,SCN,2024-06-25_12h39.26.989,LearnStrategy,2023.2.3,MacIntel,60.0240096,8,2,4,,,,,,,,7,02,,,,,,,,,,,7,1.138,1,,,,,,0.107407407,-0.386111111,1,0,0,1.138,Peridotite_rect,3,0,3,0,1,
615d051e2366aeb051acb734,SCN,2024-06-25_12h39.26.989,LearnStrategy,2023.2.3,MacIntel,60.0240096,8,2,5,,,,,,,,7,14,,,,,,,,,,,7,0.84,1,,,,,,0.107407407,-0.387037037,1,0,0,0.84,Peridotite_rect,4,0,4,0,1,
615d051e2366aeb051acb734,SCN,2024-06-25_12h39.26.989,LearnStrategy,2023.2.3,MacIntel,60.0240096,8,2,6,,,,,,,,8,09,,,,,,,,,,,8,1.512,1,,,,,,0.431481481,-0.415740741,1,0,0,1.512,Pumice_rect,5,0,5,0,1,
615d051e2366aeb051acb734,SCN,2024-06-25_12h39.26.989,LearnStrategy,2023.2.3,MacIntel,60.0240096,8,2,7,,,,,,,,3,14,,,,,,,,,,,3,1.039,1,,,,,,0.108333333,-0.246296296,1,0,0,1.039,Diorite_rect,6,0,6,0,1,
615d051e2366aeb051acb734,SCN,2024-06-25_12h39.26.989,LearnStrategy,2023.2.3,MacIntel,60.0240096,8,2,8,,,,,,,,6,06,,,,,,,,,,,6,1.123,1,,,,,,-0.106481481,-0.396296296,1,0,0,1.123,Pegmatite_rect,7,0,7,0,1,
615d051e2366aeb051acb734,SCN,2024-06-25_12h39.26.989,LearnStrategy,2023.2.3,MacIntel,60.0240096,8,2,9,,,,,,,,5,05,,,,,,,,,,,5,1.792,1,,,,,,-0.40462963,-0.387037037,1,0,0,1.792,Obsidian_rect,8,0,8,0,1,
615d051e2366aeb051acb734,SCN,2024-06-25_12h39.26.989,LearnStrategy,2023.2.3,MacIntel,60.0240096,8,2,10,,,,,,,,2,01,,,,,,,,,,,2,0.978,1,,,,,,-0.174074074,-0.244444444,1,0,0,0.978,Basalt_rect,9,0,9,0,1,
615d051e2366aeb051acb734,SCN,2024-06-25_12h39.26.989,LearnStrategy,2023.2.3,MacIntel,60.0240096,8,2,11,,,,,,,,2,09,,,,,,,,,,,2,0.671,1,,,,,,-0.173148148,-0.243518519,1,0,0,0.671,Basalt_rect,10,0,10,0,1,
615d051e2366aeb051acb734,SCN,2024-06-25_12h39.26.989,LearnStrategy,2023.2.3,MacIntel,60.0240096,8,2,12,,,,,,,,8,10,,,,,,,,,,,8,2.237,1,,,,,,0.32962963,-0.390740741,1,0,0,2.237,Pumice_rect,11,0,11,0,1,
615d051e2366aeb051acb734,SCN,2024-06-25_12h39.26.989,LearnStrategy,2023.2.3,MacIntel,60.0240096,8,2,13,,,,,,,,4,11,,,,,,,,,,,1,1.872,0,,,,,,-0.362962963,-0.249074074,1,0,0,1.872,Andesite_rect,12,0,12,0,1,
615d051e2366aeb051acb734,SCN,2024-06-25_12h39.26.989,LearnStrategy,2023.2.3,MacIntel,60.0240096,8,2,14,,,,,,,,3,02,,,,,,,,,,,3,1.178,1,,,,,,0.088888889,-0.27037037,1,0,0,1.178,Diorite_rect,13,0,13,0,1,
615d051e2366aeb051acb734,SCN,2024-06-25_12h39.26.989,LearnStrategy,2023.2.3,MacIntel,60.0240096,8,2,15,,,,,,,,4,10,,,,,,,,,,,4,1.013,1,,,,,,0.32037037,-0.265740741,1,0,0,1.013,Gabbro_rect,14,0,14,0,1,
615d051e2366aeb051acb734,SCN,2024-06-25_12h39.26.989,LearnStrategy,2023.2.3,MacIntel,60.0240096,8,2,16,,,,,,,,5,14,,,,,,,,,,,5,1.052,1,,,,,,-0.357407407,-0.392592593,1,0,0,1.052,Obsidian_rect,15,0,15,0,1,
615d051e2366aeb051acb734,SCN,2024-06-25_12h39.26.989,LearnStrategy,2023.2.3,MacIntel,60.0240096,9,1,1,-0.542592593,0.387962963,1,0,0,0.765,Pumice_13,8,13,6,1,0.765,-0.186111111,-0.261111111,1,0,0,0.808,Basalt_rect,2,0.808,0,0,0,0,0,1,,,,,,,,,,,,,
615d051e2366aeb051acb734,SCN,2024-06-25_12h39.26.989,LearnStrategy,2023.2.3,MacIntel,60.0240096,9,1,2,-0.353703704,0.076851852,1,0,0,0.997,Peridotite_05,7,05,4,2,0.997,0.12962963,-0.392592593,1,0,0,1.368,Peridotite_rect,7,1.368,1,1,0,1,0,1,,,,,,,,,,,,,
615d051e2366aeb051acb734,SCN,2024-06-25_12h39.26.989,LearnStrategy,2023.2.3,MacIntel,60.0240096,9,1,3,-0.378703704,-0.087037037,1,0,0,2.616,Pumice_02,8,02,3,2,2.616,0.35,-0.411111111,1,0,0,0.98,Pumice_rect,8,0.98,1,2,0,2,0,1,,,,,,,,,,,,,
615d051e2366aeb051acb734,SCN,2024-06-25_12h39.26.989,LearnStrategy,2023.2.3,MacIntel,60.0240096,9,1,4,-0.056481481,-0.097222222,1,0,0,0.584,Gabbro_08,4,08,3,4,0.584,0.363888889,-0.24537037,1,0,0,1.182,Gabbro_rect,4,1.182,1,3,0,3,0,1,,,,,,,,,,,,,
615d051e2366aeb051acb734,SCN,2024-06-25_12h39.26.989,LearnStrategy,2023.2.3,MacIntel,60.0240096,9,1,5,0.225925926,0.099074074,1,0,0,0.627,Andesite_10,1,10,4,6,0.627,-0.448148148,-0.267592593,1,0,0,0.927,Andesite_rect,1,0.927,1,4,0,4,0,1,,,,,,,,,,,,,
615d051e2366aeb051acb734,SCN,2024-06-25_12h39.26.989,LearnStrategy,2023.2.3,MacIntel,60.0240096,9,1,6,0.438888889,0.131481481,1,0,0,0.765,Pumice_08,8,08,4,7,0.765,0.334259259,-0.388888889,1,0,0,1.368,Pumice_rect,8,1.368,1,5,0,5,0,1,,,,,,,,,,,,,
615d051e2366aeb051acb734,SCN,2024-06-25_12h39.26.989,LearnStrategy,2023.2.3,MacIntel,60.0240096,9,1,7,0.547222222,0.073148148,1,0,0,0.916,Obsidian_08,5,08,4,8,0.916,-0.419444444,-0.389814815,1,0,0,1.334,Obsidian_rect,5,1.334,1,6,0,6,0,1,,,,,,,,,,,,,
615d051e2366aeb051acb734,SCN,2024-06-25_12h39.26.989,LearnStrategy,2023.2.3,MacIntel,60.0240096,9,1,8,0.071296296,-0.107407407,1,0,0,0.633,Gabbro_09,4,09,3,5,0.633,0.326851852,-0.264814815,1,0,0,1.885,Gabbro_rect,4,1.885,1,7,0,7,0,1,,,,,,,,,,,,,
615d051e2366aeb051acb734,SCN,2024-06-25_12h39.26.989,LearnStrategy,2023.2.3,MacIntel,60.0240096,9,1,9,0.081481481,0.086111111,1,0,0,0.712,Pegmatite_13,6,13,4,5,0.712,-0.140740741,-0.400925926,1,0,0,1.047,Pegmatite_rect,6,1.047,1,8,0,8,0,1,,,,,,,,,,,,,
615d051e2366aeb051acb734,SCN,2024-06-25_12h39.26.989,LearnStrategy,2023.2.3,MacIntel,60.0240096,9,1,10,0.221296296,0.124074074,1,0,0,0.546,Andesite_10,1,10,4,6,0.546,-0.360185185,-0.249074074,1,0,0,1.656,Andesite_rect,1,1.656,1,9,0,9,0,1,,,,,,,,,,,,,
615d051e2366aeb051acb734,SCN,2024-06-25_12h39.26.989,LearnStrategy,2023.2.3,MacIntel,60.0240096,9,1,11,0.40462963,0.237037037,1,0,0,1.002,Pumice_16,8,16,5,7,1.002,0.356481481,-0.401851852,1,0,0,0.811,Pumice_rect,8,0.811,1,10,0,10,0,1,,,,,,,,,,,,,
615d051e2366aeb051acb734,SCN,2024-06-25_12h39.26.989,LearnStrategy,2023.2.3,MacIntel,60.0240096,9,1,12,-0.066666667,-0.239814815,1,0,0,0.899,Obsidian_02,5,02,2,4,0.899,-0.398148148,-0.412037037,1,0,0,2.18,Obsidian_rect,5,2.18,1,11,0,11,0,1,,,,,,,,,,,,,
615d051e2366aeb051acb734,SCN,2024-06-25_12h39.26.989,LearnStrategy,2023.2.3,MacIntel,60.0240096,9,1,13,0.087037037,-0.116666667,1,0,0,0.842,Gabbro_09,4,09,3,5,0.842,0.384259259,-0.24537037,1,0,0,1.385,Gabbro_rect,4,1.385,1,12,0,12,0,1,,,,,,,,,,,,,
615d051e2366aeb051acb734,SCN,2024-06-25_12h39.26.989,LearnStrategy,2023.2.3,MacIntel,60.0240096,9,1,14,0.077777778,0.087037037,1,0,0,0.914,Pegmatite_13,6,13,4,5,0.914,-0.137962963,-0.409259259,1,0,0,0.945,Pegmatite_rect,6,0.945,1,13,0,13,0,1,,,,,,,,,,,,,
615d051e2366aeb051acb734,SCN,2024-06-25_12h39.26.989,LearnStrategy,2023.2.3,MacIntel,60.0240096,9,1,15,-0.064814815,0.109259259,1,0,0,0.587,Gabbro_13,4,13,4,4,0.587,0.391666667,-0.267592593,1,0,0,2.402,Gabbro_rect,4,2.402,1,14,0,14,0,1,,,,,,,,,,,,,
615d051e2366aeb051acb734,SCN,2024-06-25_12h39.26.989,LearnStrategy,2023.2.3,MacIntel,60.0240096,9,1,16,-0.064814815,0.09537037,1,0,0,0.58,Gabbro_13,4,13,4,4,0.58,0.375,-0.231481481,1,0,0,0.7,Gabbro_rect,4,0.7,1,15,0,15,0,1,,,,,,,,,,,,,
615d051e2366aeb051acb734,SCN,2024-06-25_12h39.26.989,LearnStrategy,2023.2.3,MacIntel,60.0240096,9,2,1,,,,,,,,6,12,,,,,,,,,,,6,1.505,1,,,,,,-0.112962963,-0.394444444,1,0,0,1.505,Pegmatite_rect,0,0,0,0,1,
615d051e2366aeb051acb734,SCN,2024-06-25_12h39.26.989,LearnStrategy,2023.2.3,MacIntel,60.0240096,9,2,2,,,,,,,,7,08,,,,,,,,,,,7,1.472,1,,,,,,0.126851852,-0.40462963,1,0,0,1.472,Peridotite_rect,1,0,1,0,1,
615d051e2366aeb051acb734,SCN,2024-06-25_12h39.26.989,LearnStrategy,2023.2.3,MacIntel,60.0240096,9,2,3,,,,,,,,5,07,,,,,,,,,,,5,1.076,1,,,,,,-0.375925926,-0.388888889,1,0,0,1.076,Obsidian_rect,2,0,2,0,1,
615d051e2366aeb051acb734,SCN,2024-06-25_12h39.26.989,LearnStrategy,2023.2.3,MacIntel,60.0240096,9,2,4,,,,,,,,1,09,,,,,,,,,,,1,1.454,1,,,,,,-0.371296296,-0.247222222,1,0,0,1.454,Andesite_rect,3,0,3,0,1,
615d051e2366aeb051acb734,SCN,2024-06-25_12h39.26.989,LearnStrategy,2023.2.3,MacIntel,60.0240096,9,2,5,,,,,,,,6,10,,,,,,,,,,,6,1.035,1,,,,,,-0.100925926,-0.394444444,1,0,0,1.035,Pegmatite_rect,4,0,4,0,1,
615d051e2366aeb051acb734,SCN,2024-06-25_12h39.26.989,LearnStrategy,2023.2.3,MacIntel,60.0240096,9,2,6,,,,,,,,4,01,,,,,,,,,,,1,2.625,0,,,,,,-0.385185185,-0.251851852,1,0,0,2.625,Andesite_rect,5,0,5,0,1,
615d051e2366aeb051acb734,SCN,2024-06-25_12h39.26.989,LearnStrategy,2023.2.3,MacIntel,60.0240096,9,2,7,,,,,,,,3,08,,,,,,,,,,,3,1.035,1,,,,,,0.1,-0.240740741,1,0,0,1.035,Diorite_rect,6,0,6,0,1,
615d051e2366aeb051acb734,SCN,2024-06-25_12h39.26.989,LearnStrategy,2023.2.3,MacIntel,60.0240096,9,2,8,,,,,,,,2,10,,,,,,,,,,,2,0.857,1,,,,,,-0.134259259,-0.247222222,1,0,0,0.857,Basalt_rect,7,0,7,0,1,
615d051e2366aeb051acb734,SCN,2024-06-25_12h39.26.989,LearnStrategy,2023.2.3,MacIntel,60.0240096,9,2,9,,,,,,,,8,15,,,,,,,,,,,8,1.181,1,,,,,,0.382407407,-0.389814815,1,0,0,1.181,Pumice_rect,8,0,8,0,1,
615d051e2366aeb051acb734,SCN,2024-06-25_12h39.26.989,LearnStrategy,2023.2.3,MacIntel,60.0240096,9,2,10,,,,,,,,7,13,,,,,,,,,,,7,1.055,1,,,,,,0.078703704,-0.4,1,0,0,1.055,Peridotite_rect,9,0,9,0,1,
615d051e2366aeb051acb734,SCN,2024-06-25_12h39.26.989,LearnStrategy,2023.2.3,MacIntel,60.0240096,9,2,11,,,,,,,,5,11,,,,,,,,,,,5,0.986,1,,,,,,-0.415740741,-0.390740741,1,0,0,0.986,Obsidian_rect,10,0,10,0,1,
615d051e2366aeb051acb734,SCN,2024-06-25_12h39.26.989,LearnStrategy,2023.2.3,MacIntel,60.0240096,9,2,12,,,,,,,,1,06,,,,,,,,,,,1,1.447,1,,,,,,-0.343518519,-0.250925926,1,0,0,1.447,Andesite_rect,11,0,11,0,1,
615d051e2366aeb051acb734,SCN,2024-06-25_12h39.26.989,LearnStrategy,2023.2.3,MacIntel,60.0240096,9,2,13,,,,,,,,3,12,,,,,,,,,,,3,0.887,1,,,,,,0.091666667,-0.247222222,1,0,0,0.887,Diorite_rect,12,0,12,0,1,
615d051e2366aeb051acb734,SCN,2024-06-25_12h39.26.989,LearnStrategy,2023.2.3,MacIntel,60.0240096,9,2,14,,,,,,,,8,14,,,,,,,,,,,8,1.201,1,,,,,,0.396296296,-0.407407407,1,0,0,1.201,Pumice_rect,13,0,13,0,1,
615d051e2366aeb051acb734,SCN,2024-06-25_12h39.26.989,LearnStrategy,2023.2.3,MacIntel,60.0240096,9,2,15,,,,,,,,4,12,,,,,,,,,,,4,2.241,1,,,,,,0.408333333,-0.250925926,1,0,0,2.241,Gabbro_rect,14,0,14,0,1,
615d051e2366aeb051acb734,SCN,2024-06-25_12h39.26.989,LearnStrategy,2023.2.3,MacIntel,60.0240096,9,2,16,,,,,,,,2,14,,,,,,,,,,,8,1.872,0,,,,,,0.322222222,-0.415740741,1,0,0,1.872,Pumice_rect,15,0,15,0,1,
615d051e2366aeb051acb734,SCN,2024-06-25_12h39.26.989,LearnStrategy,2023.2.3,MacIntel,60.0240096,,,,,,,,,,,,,,,,,,,,,,,,,,,,,,,,,,,,,,,,,,,1
615d051e2366aeb051acb734,SCN,2024-06-25_12h39.26.989,LearnStrategy,2023.2.3,MacIntel,60.0240096,,,,,,,,,,,,,,,,,,,,,,,,,,,,,,,,,,,,,,,,,,,
615d051e2366aeb051acb734,SCN,2024-06-25_12h39.26.989,LearnStrategy,2023.2.3,MacIntel,60.0240096,,,,,,,,,,,2,11,1,1,,,,,,,,,,,,,,,,,,,,,,,,,,,,,
615d051e2366aeb051acb734,SCN,2024-06-25_12h39.26.989,LearnStrategy,2023.2.3,MacIntel,60.0240096,,,,,,,,,,,2,04,1,2,,,,,,,,,,,,,,,,,,,,,,,,,,,,,
615d051e2366aeb051acb734,SCN,2024-06-25_12h39.26.989,LearnStrategy,2023.2.3,MacIntel,60.0240096,,,,,,,,,,,2,08,1,3,,,,,,,,,,,,,,,,,,,,,,,,,,,,,
615d051e2366aeb051acb734,SCN,2024-06-25_12h39.26.989,LearnStrategy,2023.2.3,MacIntel,60.0240096,,,,,,,,,,,7,06,1,4,,,,,,,,,,,,,,,,,,,,,,,,,,,,,
615d051e2366aeb051acb734,SCN,2024-06-25_12h39.26.989,LearnStrategy,2023.2.3,MacIntel,60.0240096,,,,,,,,,,,1,07,1,5,,,,,,,,,,,,,,,,,,,,,,,,,,,,,
615d051e2366aeb051acb734,SCN,2024-06-25_12h39.26.989,LearnStrategy,2023.2.3,MacIntel,60.0240096,,,,,,,,,,,3,07,1,6,,,,,,,,,,,,,,,,,,,,,,,,,,,,,
615d051e2366aeb051acb734,SCN,2024-06-25_12h39.26.989,LearnStrategy,2023.2.3,MacIntel,60.0240096,,,,,,,,,,,7,10,1,7,,,,,,,,,,,,,,,,,,,,,,,,,,,,,
615d051e2366aeb051acb734,SCN,2024-06-25_12h39.26.989,LearnStrategy,2023.2.3,MacIntel,60.0240096,,,,,,,,,,,3,10,1,8,,,,,,,,,,,,,,,,,,,,,,,,,,,,,
615d051e2366aeb051acb734,SCN,2024-06-25_12h39.26.989,LearnStrategy,2023.2.3,MacIntel,60.0240096,,,,,,,,,,,1,01,2,1,,,,,,,,,,,,,,,,,,,,,,,,,,,,,
615d051e2366aeb051acb734,SCN,2024-06-25_12h39.26.989,LearnStrategy,2023.2.3,MacIntel,60.0240096,,,,,,,,,,,8,05,2,2,,,,,,,,,,,,,,,,,,,,,,,,,,,,,
615d051e2366aeb051acb734,SCN,2024-06-25_12h39.26.989,LearnStrategy,2023.2.3,MacIntel,60.0240096,,,,,,,,,,,7,16,2,3,,,,,,,,,,,,,,,,,,,,,,,,,,,,,
615d051e2366aeb051acb734,SCN,2024-06-25_12h39.26.989,LearnStrategy,2023.2.3,MacIntel,60.0240096,,,,,,,,,,,5,02,2,4,,,,,,,,,,,,,,,,,,,,,,,,,,,,,
615d051e2366aeb051acb734,SCN,2024-06-25_12h39.26.989,LearnStrategy,2023.2.3,MacIntel,60.0240096,,,,,,,,,,,3,13,2,5,,,,,,,,,,,,,,,,,,,,,,,,,,,,,
615d051e2366aeb051acb734,SCN,2024-06-25_12h39.26.989,LearnStrategy,2023.2.3,MacIntel,60.0240096,,,,,,,,,,,6,11,2,6,,,,,,,,,,,,,,,,,,,,,,,,,,,,,
615d051e2366aeb051acb734,SCN,2024-06-25_12h39.26.989,LearnStrategy,2023.2.3,MacIntel,60.0240096,,,,,,,,,,,7,15,2,7,,,,,,,,,,,,,,,,,,,,,,,,,,,,,
615d051e2366aeb051acb734,SCN,2024-06-25_12h39.26.989,LearnStrategy,2023.2.3,MacIntel,60.0240096,,,,,,,,,,,1,04,2,8,,,,,,,,,,,,,,,,,,,,,,,,,,,,,
615d051e2366aeb051acb734,SCN,2024-06-25_12h39.26.989,LearnStrategy,2023.2.3,MacIntel,60.0240096,,,,,,,,,,,5,04,3,1,,,,,,,,,,,,,,,,,,,,,,,,,,,,,
615d051e2366aeb051acb734,SCN,2024-06-25_12h39.26.989,LearnStrategy,2023.2.3,MacIntel,60.0240096,,,,,,,,,,,8,02,3,2,,,,,,,,,,,,,,,,,,,,,,,,,,,,,
615d051e2366aeb051acb734,SCN,2024-06-25_12h39.26.989,LearnStrategy,2023.2.3,MacIntel,60.0240096,,,,,,,,,,,6,16,3,3,,,,,,,,,,,,,,,,,,,,,,,,,,,,,
615d051e2366aeb051acb734,SCN,2024-06-25_12h39.26.989,LearnStrategy,2023.2.3,MacIntel,60.0240096,,,,,,,,,,,4,08,3,4,,,,,,,,,,,,,,,,,,,,,,,,,,,,,
615d051e2366aeb051acb734,SCN,2024-06-25_12h39.26.989,LearnStrategy,2023.2.3,MacIntel,60.0240096,,,,,,,,,,,4,09,3,5,,,,,,,,,,,,,,,,,,,,,,,,,,,,,
615d051e2366aeb051acb734,SCN,2024-06-25_12h39.26.989,LearnStrategy,2023.2.3,MacIntel,60.0240096,,,,,,,,,,,7,07,3,6,,,,,,,,,,,,,,,,,,,,,,,,,,,,,
615d051e2366aeb051acb734,SCN,2024-06-25_12h39.26.989,LearnStrategy,2023.2.3,MacIntel,60.0240096,,,,,,,,,,,8,03,3,7,,,,,,,,,,,,,,,,,,,,,,,,,,,,,
615d051e2366aeb051acb734,SCN,2024-06-25_12h39.26.989,LearnStrategy,2023.2.3,MacIntel,60.0240096,,,,,,,,,,,4,15,3,8,,,,,,,,,,,,,,,,,,,,,,,,,,,,,
615d051e2366aeb051acb734,SCN,2024-06-25_12h39.26.989,LearnStrategy,2023.2.3,MacIntel,60.0240096,,,,,,,,,,,5,09,4,1,,,,,,,,,,,,,,,,,,,,,,,,,,,,,
615d051e2366aeb051acb734,SCN,2024-06-25_12h39.26.989,LearnStrategy,2023.2.3,MacIntel,60.0240096,,,,,,,,,,,7,05,4,2,,,,,,,,,,,,,,,,,,,,,,,,,,,,,
615d051e2366aeb051acb734,SCN,2024-06-25_12h39.26.989,LearnStrategy,2023.2.3,MacIntel,60.0240096,,,,,,,,,,,2,12,4,3,,,,,,,,,,,,,,,,,,,,,,,,,,,,,
615d051e2366aeb051acb734,SCN,2024-06-25_12h39.26.989,LearnStrategy,2023.2.3,MacIntel,60.0240096,,,,,,,,,,,4,13,4,4,,,,,,,,,,,,,,,,,,,,,,,,,,,,,
615d051e2366aeb051acb734,SCN,2024-06-25_12h39.26.989,LearnStrategy,2023.2.3,MacIntel,60.0240096,,,,,,,,,,,6,13,4,5,,,,,,,,,,,,,,,,,,,,,,,,,,,,,
615d051e2366aeb051acb734,SCN,2024-06-25_12h39.26.989,LearnStrategy,2023.2.3,MacIntel,60.0240096,,,,,,,,,,,1,10,4,6,,,,,,,,,,,,,,,,,,,,,,,,,,,,,
615d051e2366aeb051acb734,SCN,2024-06-25_12h39.26.989,LearnStrategy,2023.2.3,MacIntel,60.0240096,,,,,,,,,,,8,08,4,7,,,,,,,,,,,,,,,,,,,,,,,,,,,,,
615d051e2366aeb051acb734,SCN,2024-06-25_12h39.26.989,LearnStrategy,2023.2.3,MacIntel,60.0240096,,,,,,,,,,,5,08,4,8,,,,,,,,,,,,,,,,,,,,,,,,,,,,,
615d051e2366aeb051acb734,SCN,2024-06-25_12h39.26.989,LearnStrategy,2023.2.3,MacIntel,60.0240096,,,,,,,,,,,1,02,5,1,,,,,,,,,,,,,,,,,,,,,,,,,,,,,
615d051e2366aeb051acb734,SCN,2024-06-25_12h39.26.989,LearnStrategy,2023.2.3,MacIntel,60.0240096,,,,,,,,,,,4,05,5,2,,,,,,,,,,,,,,,,,,,,,,,,,,,,,
615d051e2366aeb051acb734,SCN,2024-06-25_12h39.26.989,LearnStrategy,2023.2.3,MacIntel,60.0240096,,,,,,,,,,,5,12,5,3,,,,,,,,,,,,,,,,,,,,,,,,,,,,,
615d051e2366aeb051acb734,SCN,2024-06-25_12h39.26.989,LearnStrategy,2023.2.3,MacIntel,60.0240096,,,,,,,,,,,1,03,5,4,,,,,,,,,,,,,,,,,,,,,,,,,,,,,
615d051e2366aeb051acb734,SCN,2024-06-25_12h39.26.989,LearnStrategy,2023.2.3,MacIntel,60.0240096,,,,,,,,,,,3,16,5,5,,,,,,,,,,,,,,,,,,,,,,,,,,,,,
615d051e2366aeb051acb734,SCN,2024-06-25_12h39.26.989,LearnStrategy,2023.2.3,MacIntel,60.0240096,,,,,,,,,,,3,06,5,6,,,,,,,,,,,,,,,,,,,,,,,,,,,,,
615d051e2366aeb051acb734,SCN,2024-06-25_12h39.26.989,LearnStrategy,2023.2.3,MacIntel,60.0240096,,,,,,,,,,,8,16,5,7,,,,,,,,,,,,,,,,,,,,,,,,,,,,,
615d051e2366aeb051acb734,SCN,2024-06-25_12h39.26.989,LearnStrategy,2023.2.3,MacIntel,60.0240096,,,,,,,,,,,2,16,5,8,,,,,,,,,,,,,,,,,,,,,,,,,,,,,
615d051e2366aeb051acb734,SCN,2024-06-25_12h39.26.989,LearnStrategy,2023.2.3,MacIntel,60.0240096,,,,,,,,,,,8,13,6,1,,,,,,,,,,,,,,,,,,,,,,,,,,,,,
615d051e2366aeb051acb734,SCN,2024-06-25_12h39.26.989,LearnStrategy,2023.2.3,MacIntel,60.0240096,,,,,,,,,,,2,05,6,2,,,,,,,,,,,,,,,,,,,,,,,,,,,,,
615d051e2366aeb051acb734,SCN,2024-06-25_12h39.26.989,LearnStrategy,2023.2.3,MacIntel,60.0240096,,,,,,,,,,,4,03,6,3,,,,,,,,,,,,,,,,,,,,,,,,,,,,,
615d051e2366aeb051acb734,SCN,2024-06-25_12h39.26.989,LearnStrategy,2023.2.3,MacIntel,60.0240096,,,,,,,,,,,6,07,6,4,,,,,,,,,,,,,,,,,,,,,,,,,,,,,
615d051e2366aeb051acb734,SCN,2024-06-25_12h39.26.989,LearnStrategy,2023.2.3,MacIntel,60.0240096,,,,,,,,,,,5,10,6,5,,,,,,,,,,,,,,,,,,,,,,,,,,,,,
615d051e2366aeb051acb734,SCN,2024-06-25_12h39.26.989,LearnStrategy,2023.2.3,MacIntel,60.0240096,,,,,,,,,,,3,09,6,6,,,,,,,,,,,,,,,,,,,,,,,,,,,,,
615d051e2366aeb051acb734,SCN,2024-06-25_12h39.26.989,LearnStrategy,2023.2.3,MacIntel,60.0240096,,,,,,,,,,,6,15,6,7,,,,,,,,,,,,,,,,,,,,,,,,,,,,,
615d051e2366aeb051acb734,SCN,2024-06-25_12h39.26.989,LearnStrategy,2023.2.3,MacIntel,60.0240096,,,,,,,,,,,6,09,6,8,,,,,,,,,,,,,,,,,,,,,,,,,,,,,