participant,condition,date,expName,psychopyVersion,OS,frameRate,block,phase,trial,learn_mouse.x,learn_mouse.y,learn_mouse.leftButton,learn_mouse.midButton,learn_mouse.rightButton,learn_mouse.time,learn_mouse.clicked_name,cat,token,row,col,t_select,cat_mouse_l.x,cat_mouse_l.y,cat_mouse_l.leftButton,cat_mouse_l.midButton,cat_mouse_l.rightButton,cat_mouse_l.time,cat_mouse_l.clicked_name,resp,t_resp,corr,train_trials.thisRepN,train_trials.thisTrialN,train_trials.thisN,train_trials.thisIndex,train_trials.ran,cat_mouse_t.x,cat_mouse_t.y,cat_mouse_t.leftButton,cat_mouse_t.midButton,cat_mouse_t.rightButton,cat_mouse_t.time,cat_mouse_t.clicked_name,test_trials.thisRepN,test_trials.thisTrialN,test_trials.thisN,test_trials.thisIndex,test_trials.ran,Bonus
6238dfab577ecd4adb97a917,SCN,2024-06-12_12h39.26.781,LearnStrategy,2023.2.3,Win32,30.03003003,,,,,,,,,,,,,,,,,,,,,,,,,,,,,,,,,,,,,,,,,,,
6238dfab577ecd4adb97a917,SCN,2024-06-12_12h39.26.781,LearnStrategy,2023.2.3,Win32,30.03003003,1,1,1,-0.068654625,0.090383659,1,0,0,7.8758,Obsidian_06,5,06,4,4,7.876,0.162505807,-0.254507762,1,0,0,22.6605,Diorite_rect,3,22.661,0,0,0,0,0,1,,,,,,,,,,,,,
6238dfab577ecd4adb97a917,SCN,2024-06-12_12h39.26.781,LearnStrategy,2023.2.3,Win32,30.03003003,1,1,2,-0.104715539,-0.088996912,1,0,0,14.2641,Pegmatite_07,6,07,3,4,14.264,-0.109801061,-0.253120694,1,0,0,1.7306,Basalt_rect,2,1.731,0,1,0,1,0,1,,,,,,,,,,,,,
6238dfab577ecd4adb97a917,SCN,2024-06-12_12h39.26.781,LearnStrategy,2023.2.3,Win32,30.03003003,1,1,3,0.389043024,-0.113962118,1,0,0,6.5315,Pegmatite_15,6,15,3,7,6.531,0.395515516,-0.40707358,1,0,0,2.5654,Pumice_rect,8,2.565,0,2,0,2,0,1,,,,,,,,,,,,,
6238dfab577ecd4adb97a917,SCN,2024-06-12_12h39.26.781,LearnStrategy,2023.2.3,Win32,30.03003003,1,1,4,-0.276236574,0.254045307,1,0,0,23.3623,Peridotite_04,7,04,5,3,23.362,-0.371474775,-0.397364842,1,0,0,2.2966,Obsidian_rect,5,2.297,0,3,0,3,0,1,,,,,,,,,,,,,
6238dfab577ecd4adb97a917,SCN,2024-06-12_12h39.26.781,LearnStrategy,2023.2.3,Win32,30.03003003,1,1,5,-0.546694339,-0.253120694,1,0,0,14.6468,Diorite_14,3,14,2,1,14.647,-0.360841424,-0.239713502,1,0,0,1.6593,Andesite_rect,1,1.659,0,4,0,4,0,1,,,,,,,,,,,,,
6238dfab577ecd4adb97a917,SCN,2024-06-12_12h39.26.781,LearnStrategy,2023.2.3,Win32,30.03003003,1,1,6,0.379796593,-0.418631544,1,0,0,14.2338,Obsidian_14,5,14,1,7,14.234,0.373324101,-0.246185994,1,0,0,2.252,Gabbro_rect,4,2.252,0,5,0,5,0,1,,,,,,,,,,,,,
6238dfab577ecd4adb97a917,SCN,2024-06-12_12h39.26.781,LearnStrategy,2023.2.3,Win32,30.03003003,1,1,7,0.564725215,0.087609794,1,0,0,3.1311,Andesite_04,1,04,4,8,3.131,0.096394165,-0.255894732,1,0,0,1.6954,Diorite_rect,3,1.695,0,6,0,6,0,1,,,,,,,,,,,,,
6238dfab577ecd4adb97a917,SCN,2024-06-12_12h39.26.781,LearnStrategy,2023.2.3,Win32,30.03003003,1,1,8,-0.546232082,0.095006924,1,0,0,7.8392,Basalt_11,2,11,4,1,7.839,-0.137540305,-0.232778704,1,0,0,2.2497,Basalt_rect,2,2.25,1,7,0,7,0,1,,,,,,,,,,,,,
6238dfab577ecd4adb97a917,SCN,2024-06-12_12h39.26.781,LearnStrategy,2023.2.3,Win32,30.03003003,1,1,9,0.24110062,0.412159022,1,0,0,6.8635,Pumice_14,8,14,6,6,6.863,0.402450315,-0.387656104,1,0,0,3.2478,Pumice_rect,8,3.248,1,8,0,8,0,1,,,,,,,,,,,,,
6238dfab577ecd4adb97a917,SCN,2024-06-12_12h39.26.781,LearnStrategy,2023.2.3,Win32,30.03003003,1,1,10,-0.382570483,0.398289393,1,0,0,4.531,Obsidian_16,5,16,6,2,4.531,-0.401063197,-0.254507762,1,0,0,2.7989,Andesite_rect,1,2.799,0,9,0,9,0,1,,,,,,,,,,,,,
6238dfab577ecd4adb97a917,SCN,2024-06-12_12h39.26.781,LearnStrategy,2023.2.3,Win32,30.03003003,1,1,11,0.406149164,0.074202405,1,0,0,8.5311,Peridotite_16,7,16,4,7,8.531,0.086685428,-0.417244624,1,0,0,3.1063,Peridotite_rect,7,3.106,1,10,0,10,0,1,,,,,,,,,,,,,
6238dfab577ecd4adb97a917,SCN,2024-06-12_12h39.26.781,LearnStrategy,2023.2.3,Win32,30.03003003,1,1,12,-0.236014653,-0.236014949,1,0,0,3.9305,Obsidian_10,5,10,2,3,3.931,0.175450791,-0.25080921,1,0,0,2.8149,Diorite_rect,3,2.815,0,11,0,11,0,1,,,,,,,,,,,,,
6238dfab577ecd4adb97a917,SCN,2024-06-12_12h39.26.781,LearnStrategy,2023.2.3,Win32,30.03003003,1,1,13,-0.554091469,0.388580668,1,0,0,11.2651,Pumice_06,8,06,6,1,11.265,0.407535886,-0.414932992,1,0,0,2.4811,Pumice_rect,8,2.481,1,12,0,12,0,1,,,,,,,,,,,,,
6238dfab577ecd4adb97a917,SCN,2024-06-12_12h39.26.781,LearnStrategy,2023.2.3,Win32,30.03003003,1,1,14,0.061257569,-0.261442462,1,0,0,4.998,Basalt_16,2,16,2,5,4.998,0.115811641,-0.268839716,1,0,0,3.0655,Diorite_rect,3,3.065,0,13,0,13,0,1,,,,,,,,,,,,,
6238dfab577ecd4adb97a917,SCN,2024-06-12_12h39.26.781,LearnStrategy,2023.2.3,Win32,30.03003003,1,1,15,0.392741577,-0.408922807,1,0,0,5.0984,Obsidian_14,5,14,1,7,5.098,0.199029126,-0.254507762,1,0,0,1.4325,Diorite_rect,3,1.433,0,14,0,14,0,1,,,,,,,,,,,,,
6238dfab577ecd4adb97a917,SCN,2024-06-12_12h39.26.781,LearnStrategy,2023.2.3,Win32,30.03003003,1,1,16,0.403837531,0.377947292,1,0,0,7.5635,Peridotite_06,7,06,6,7,7.564,-0.083911093,-0.231391734,1,0,0,2.5158,Basalt_rect,2,2.516,0,15,0,15,0,1,,,,,,,,,,,,,
6238dfab577ecd4adb97a917,SCN,2024-06-12_12h39.26.781,LearnStrategy,2023.2.3,Win32,30.03003003,1,2,1,,,,,,,,2,14,,,,,,,,,,,6,10.024,0,,,,,,-0.101017085,-0.390430142,1,0,0,10.0243,Pegmatite_rect,0,0,0,0,1,
6238dfab577ecd4adb97a917,SCN,2024-06-12_12h39.26.781,LearnStrategy,2023.2.3,Win32,30.03003003,1,2,2,,,,,,,,4,16,,,,,,,,,,,3,2.382,0,,,,,,0.146324577,-0.238326533,1,0,0,2.3818,Diorite_rect,1,0,1,0,1,
6238dfab577ecd4adb97a917,SCN,2024-06-12_12h39.26.781,LearnStrategy,2023.2.3,Win32,30.03003003,1,2,3,,,,,,,,1,16,,,,,,,,,,,6,5.093,0,,,,,,-0.139852036,-0.408922807,1,0,0,5.0926,Pegmatite_rect,2,0,2,0,1,
6238dfab577ecd4adb97a917,SCN,2024-06-12_12h39.26.781,LearnStrategy,2023.2.3,Win32,30.03003003,1,2,4,,,,,,,,3,12,,,,,,,,,,,5,3.569,0,,,,,,-0.348358747,-0.387656104,1,0,0,3.5686,Obsidian_rect,3,0,3,0,1,
6238dfab577ecd4adb97a917,SCN,2024-06-12_12h39.26.781,LearnStrategy,2023.2.3,Win32,30.03003003,1,2,5,,,,,,,,4,12,,,,,,,,,,,1,2.363,0,,,,,,-0.365464491,-0.24803527,1,0,0,2.3634,Andesite_rect,4,0,4,0,1,
6238dfab577ecd4adb97a917,SCN,2024-06-12_12h39.26.781,LearnStrategy,2023.2.3,Win32,30.03003003,1,2,6,,,,,,,,6,13,,,,,,,,,,,4,1.992,0,,,,,,0.425566639,-0.259593186,1,0,0,1.9919,Gabbro_rect,5,0,5,0,1,
6238dfab577ecd4adb97a917,SCN,2024-06-12_12h39.26.781,LearnStrategy,2023.2.3,Win32,30.03003003,1,2,7,,,,,,,,6,03,,,,,,,,,,,7,2.808,0,,,,,,0.106102903,-0.395053308,1,0,0,2.8076,Peridotite_rect,6,0,6,0,1,
6238dfab577ecd4adb97a917,SCN,2024-06-12_12h39.26.781,LearnStrategy,2023.2.3,Win32,30.03003003,1,2,8,,,,,,,,2,04,,,,,,,,,,,5,5.883,0,,,,,,-0.334026793,-0.389043024,1,0,0,5.8827,Obsidian_rect,7,0,7,0,1,
6238dfab577ecd4adb97a917,SCN,2024-06-12_12h39.26.781,LearnStrategy,2023.2.3,Win32,30.03003003,1,2,9,,,,,,,,8,15,,,,,,,,,,,8,2.097,1,,,,,,0.319695136,-0.414932992,1,0,0,2.0972,Pumice_rect,8,0,8,0,1,
6238dfab577ecd4adb97a917,SCN,2024-06-12_12h39.26.781,LearnStrategy,2023.2.3,Win32,30.03003003,1,2,10,,,,,,,,5,07,,,,,,,,,,,1,2.509,0,,,,,,-0.299815058,-0.2642165,1,0,0,2.5086,Andesite_rect,9,0,9,0,1,
6238dfab577ecd4adb97a917,SCN,2024-06-12_12h39.26.781,LearnStrategy,2023.2.3,Win32,30.03003003,1,2,11,,,,,,,,5,12,,,,,,,,,,,2,2.151,0,,,,,,-0.170365219,-0.266990439,1,0,0,2.1513,Basalt_rect,10,0,10,0,1,
6238dfab577ecd4adb97a917,SCN,2024-06-12_12h39.26.781,LearnStrategy,2023.2.3,Win32,30.03003003,1,2,12,,,,,,,,7,12,,,,,,,,,,,5,2.092,0,,,,,,-0.32108181,-0.394128596,1,0,0,2.0922,Obsidian_rect,11,0,11,0,1,
6238dfab577ecd4adb97a917,SCN,2024-06-12_12h39.26.781,LearnStrategy,2023.2.3,Win32,30.03003003,1,2,13,,,,,,,,7,10,,,,,,,,,,,6,0.968,0,,,,,,-0.166666519,-0.389967638,1,0,0,0.9677,Pegmatite_rect,12,0,12,0,1,
6238dfab577ecd4adb97a917,SCN,2024-06-12_12h39.26.781,LearnStrategy,2023.2.3,Win32,30.03003003,1,2,14,,,,,,,,8,09,,,,,,,,,,,8,1.617,1,,,,,,0.499537693,-0.389967638,1,0,0,1.6171,Pumice_rect,13,0,13,0,1,
6238dfab577ecd4adb97a917,SCN,2024-06-12_12h39.26.781,LearnStrategy,2023.2.3,Win32,30.03003003,1,2,15,,,,,,,,3,02,,,,,,,,,,,7,1.185,0,,,,,,0.065418429,-0.401063394,1,0,0,1.185,Peridotite_rect,14,0,14,0,1,
6238dfab577ecd4adb97a917,SCN,2024-06-12_12h39.26.781,LearnStrategy,2023.2.3,Win32,30.03003003,1,2,16,,,,,,,,1,10,,,,,,,,,,,3,1.119,0,,,,,,0.209200467,-0.232778704,1,0,0,1.1187,Diorite_rect,15,0,15,0,1,
6238dfab577ecd4adb97a917,SCN,2024-06-12_12h39.26.781,LearnStrategy,2023.2.3,Win32,30.03003003,2,1,1,0.28687037,-0.09870565,1,0,0,2.066,Andesite_11,1,11,3,6,2.066,0.112575395,-0.265141163,1,0,0,1.3247,Diorite_rect,3,1.325,0,0,0,0,0,1,,,,,,,,,,,,,
6238dfab577ecd4adb97a917,SCN,2024-06-12_12h39.26.781,LearnStrategy,2023.2.3,Win32,30.03003003,2,1,2,0.090383783,-0.140314392,1,0,0,1.3981,Gabbro_14,4,14,3,5,1.398,0.100092521,-0.267452746,1,0,0,1.6517,Diorite_rect,3,1.652,0,1,0,1,0,1,,,,,,,,,,,,,
6238dfab577ecd4adb97a917,SCN,2024-06-12_12h39.26.781,LearnStrategy,2023.2.3,Win32,30.03003003,2,1,3,-0.122746045,-0.095469404,1,0,0,1.1647,Pegmatite_07,6,07,3,4,1.165,0.096394165,-0.387656104,1,0,0,3.3515,Peridotite_rect,7,3.351,0,2,0,2,0,1,,,,,,,,,,,,,
6238dfab577ecd4adb97a917,SCN,2024-06-12_12h39.26.781,LearnStrategy,2023.2.3,Win32,30.03003003,2,1,4,-0.246648153,-0.11488688,1,0,0,1.6994,Basalt_05,2,05,3,3,1.699,-0.308599034,-0.254507762,1,0,0,4.4183,Andesite_rect,1,4.418,0,3,0,3,0,1,,,,,,,,,,,,,
6238dfab577ecd4adb97a917,SCN,2024-06-12_12h39.26.781,LearnStrategy,2023.2.3,Win32,30.03003003,2,1,5,-0.05478488,-0.255432425,1,0,0,2.5667,Gabbro_03,4,03,2,4,2.567,-0.060795164,-0.3802589,1,0,0,2.0848,Pegmatite_rect,6,2.085,0,4,0,4,0,1,,,,,,,,,,,,,
6238dfab577ecd4adb97a917,SCN,2024-06-12_12h39.26.781,LearnStrategy,2023.2.3,Win32,30.03003003,2,1,6,0.542071494,-0.090383733,1,0,0,2.0661,Basalt_06,2,06,3,8,2.066,-0.119047591,-0.24017571,1,0,0,1.6068,Basalt_rect,2,1.607,1,5,0,5,0,1,,,,,,,,,,,,,
6238dfab577ecd4adb97a917,SCN,2024-06-12_12h39.26.781,LearnStrategy,2023.2.3,Win32,30.03003003,2,1,7,0.561488969,0.076514087,1,0,0,2.2411,Andesite_04,1,04,4,8,2.241,0.168515992,-0.249884448,1,0,0,3.098,Diorite_rect,3,3.098,0,6,0,6,0,1,,,,,,,,,,,,,
6238dfab577ecd4adb97a917,SCN,2024-06-12_12h39.26.781,LearnStrategy,2023.2.3,Win32,30.03003003,2,1,8,-0.072353079,0.102404054,1,0,0,2.7984,Obsidian_06,5,06,4,4,2.798,0.094082335,-0.397364842,1,0,0,2.9173,Peridotite_rect,7,2.917,0,7,0,7,0,1,,,,,,,,,,,,,
6238dfab577ecd4adb97a917,SCN,2024-06-12_12h39.26.781,LearnStrategy,2023.2.3,Win32,30.03003003,2,1,9,-0.402912621,-0.100092471,1,0,0,1.9655,Andesite_14,1,14,3,2,1.966,-0.338650009,-0.231391734,1,0,0,2.0176,Andesite_rect,1,2.018,1,8,0,8,0,1,,,,,,,,,,,,,
6238dfab577ecd4adb97a917,SCN,2024-06-12_12h39.26.781,LearnStrategy,2023.2.3,Win32,30.03003003,2,1,10,-0.376560199,0.08159956,1,0,0,2.2306,Diorite_15,3,15,4,2,2.231,-0.140314244,-0.397364842,1,0,0,3.6846,Pegmatite_rect,6,3.685,0,9,0,9,0,1,,,,,,,,,,,,,
6238dfab577ecd4adb97a917,SCN,2024-06-12_12h39.26.781,LearnStrategy,2023.2.3,Win32,30.03003003,2,1,11,0.274849802,0.215210282,1,0,0,2.5982,Diorite_06,3,06,5,6,2.598,-0.357142723,-0.391817062,1,0,0,2.686,Obsidian_rect,5,2.686,0,10,0,10,0,1,,,,,,,,,,,,,
6238dfab577ecd4adb97a917,SCN,2024-06-12_12h39.26.781,LearnStrategy,2023.2.3,Win32,30.03003003,2,1,12,0.415857901,0.072353178,1,0,0,2.9328,Peridotite_16,7,16,4,7,2.933,0.34882135,-0.243411956,1,0,0,2.008,Gabbro_rect,4,2.008,0,11,0,11,0,1,,,,,,,,,,,,,
6238dfab577ecd4adb97a917,SCN,2024-06-12_12h39.26.781,LearnStrategy,2023.2.3,Win32,30.03003003,2,1,13,-0.247110361,0.256819222,1,0,0,2.8987,Peridotite_04,7,04,5,3,2.899,-0.178686988,-0.395053308,1,0,0,2.8254,Pegmatite_rect,6,2.825,0,12,0,12,0,1,,,,,,,,,,,,,
6238dfab577ecd4adb97a917,SCN,2024-06-12_12h39.26.781,LearnStrategy,2023.2.3,Win32,30.03003003,2,1,14,0.419094147,-0.105178142,1,0,0,2.3651,Pegmatite_15,6,15,3,7,2.365,0.089459367,-0.42048087,1,0,0,2.0587,Peridotite_rect,7,2.059,0,13,0,13,0,1,,,,,,,,,,,,,
6238dfab577ecd4adb97a917,SCN,2024-06-12_12h39.26.781,LearnStrategy,2023.2.3,Win32,30.03003003,2,1,15,0.086685428,0.229542235,1,0,0,4.2329,Gabbro_10,4,10,5,5,4.233,-0.386268937,-0.38395765,1,0,0,1.9915,Obsidian_rect,5,1.991,0,14,0,14,0,1,,,,,,,,,,,,,
6238dfab577ecd4adb97a917,SCN,2024-06-12_12h39.26.781,LearnStrategy,2023.2.3,Win32,30.03003003,2,1,16,-0.567498834,0.107489527,1,0,0,2.5679,Basalt_11,2,11,4,1,2.568,0.231391882,-0.413546071,1,0,0,3.0977,Peridotite_rect,7,3.098,0,15,0,15,0,1,,,,,,,,,,,,,
6238dfab577ecd4adb97a917,SCN,2024-06-12_12h39.26.781,LearnStrategy,2023.2.3,Win32,30.03003003,2,2,1,,,,,,,,8,16,,,,,,,,,,,8,5.976,1,,,,,,0.366389302,-0.406148867,1,0,0,5.9756,Pumice_rect,0,0,0,0,1,
6238dfab577ecd4adb97a917,SCN,2024-06-12_12h39.26.781,LearnStrategy,2023.2.3,Win32,30.03003003,2,2,2,,,,,,,,5,08,,,,,,,,,,,2,4.334,0,,,,,,-0.133841752,-0.252196179,1,0,0,4.3345,Basalt_rect,1,0,1,0,1,
6238dfab577ecd4adb97a917,SCN,2024-06-12_12h39.26.781,LearnStrategy,2023.2.3,Win32,30.03003003,2,2,3,,,,,,,,4,09,,,,,,,,,,,5,3.359,0,,,,,,-0.355755754,-0.399676375,1,0,0,3.3593,Obsidian_rect,2,0,2,0,1,
6238dfab577ecd4adb97a917,SCN,2024-06-12_12h39.26.781,LearnStrategy,2023.2.3,Win32,30.03003003,2,2,4,,,,,,,,7,14,,,,,,,,,,,7,2.967,1,,,,,,0.172214545,-0.385806778,1,0,0,2.9667,Peridotite_rect,3,0,3,0,1,
6238dfab577ecd4adb97a917,SCN,2024-06-12_12h39.26.781,LearnStrategy,2023.2.3,Win32,30.03003003,2,2,5,,,,,,,,2,08,,,,,,,,,,,6,1.6,0,,,,,,-0.1056403,-0.385806778,1,0,0,1.5998,Pegmatite_rect,4,0,4,0,1,
6238dfab577ecd4adb97a917,SCN,2024-06-12_12h39.26.781,LearnStrategy,2023.2.3,Win32,30.03003003,2,2,6,,,,,,,,5,09,,,,,,,,,,,2,1.319,0,,,,,,-0.138465067,-0.241100472,1,0,0,1.3192,Basalt_rect,5,0,5,0,1,
6238dfab577ecd4adb97a917,SCN,2024-06-12_12h39.26.781,LearnStrategy,2023.2.3,Win32,30.03003003,2,2,7,,,,,,,,3,16,,,,,,,,,,,5,3.64,0,,,,,,-0.395977675,-0.402912621,1,0,0,3.64,Obsidian_rect,6,0,6,0,1,
6238dfab577ecd4adb97a917,SCN,2024-06-12_12h39.26.781,LearnStrategy,2023.2.3,Win32,30.03003003,2,2,8,,,,,,,,6,08,,,,,,,,,,,1,1.296,0,,,,,,-0.455154863,-0.247110509,1,0,0,1.2962,Andesite_rect,7,0,7,0,1,
6238dfab577ecd4adb97a917,SCN,2024-06-12_12h39.26.781,LearnStrategy,2023.2.3,Win32,30.03003003,2,2,9,,,,,,,,7,15,,,,,,,,,,,7,2.701,1,,,,,,0.208737864,-0.387656104,1,0,0,2.701,Peridotite_rect,8,0,8,0,1,
6238dfab577ecd4adb97a917,SCN,2024-06-12_12h39.26.781,LearnStrategy,2023.2.3,Win32,30.03003003,2,2,10,,,,,,,,4,15,,,,,,,,,,,3,1.149,0,,,,,,0.156033315,-0.238326533,1,0,0,1.1487,Diorite_rect,9,0,9,0,1,
6238dfab577ecd4adb97a917,SCN,2024-06-12_12h39.26.781,LearnStrategy,2023.2.3,Win32,30.03003003,2,2,11,,,,,,,,8,08,,,,,,,,,,,8,2.219,1,,,,,,0.384420055,-0.392741577,1,0,0,2.2193,Pumice_rect,10,0,10,0,1,
6238dfab577ecd4adb97a917,SCN,2024-06-12_12h39.26.781,LearnStrategy,2023.2.3,Win32,30.03003003,2,2,12,,,,,,,,2,09,,,,,,,,,,,2,1.626,1,,,,,,-0.108414091,-0.25080921,1,0,0,1.6256,Basalt_rect,11,0,11,0,1,
6238dfab577ecd4adb97a917,SCN,2024-06-12_12h39.26.781,LearnStrategy,2023.2.3,Win32,30.03003003,2,2,13,,,,,,,,1,06,,,,,,,,,,,1,4.334,1,,,,,,-0.461165049,-0.237864226,1,0,0,4.3341,Andesite_rect,12,0,12,0,1,
6238dfab577ecd4adb97a917,SCN,2024-06-12_12h39.26.781,LearnStrategy,2023.2.3,Win32,30.03003003,2,2,14,,,,,,,,3,07,,,,,,,,,,,6,2.563,0,,,,,,-0.217984147,-0.38534457,1,0,0,2.563,Pegmatite_rect,13,0,13,0,1,
6238dfab577ecd4adb97a917,SCN,2024-06-12_12h39.26.781,LearnStrategy,2023.2.3,Win32,30.03003003,2,2,15,,,,,,,,6,10,,,,,,,,,,,5,1.518,0,,,,,,-0.387193698,-0.416782317,1,0,0,1.5182,Obsidian_rect,14,0,14,0,1,
6238dfab577ecd4adb97a917,SCN,2024-06-12_12h39.26.781,LearnStrategy,2023.2.3,Win32,30.03003003,2,2,16,,,,,,,,1,03,,,,,,,,,,,3,2.052,0,,,,,,0.080675045,-0.263754193,1,0,0,2.0524,Diorite_rect,15,0,15,0,1,
6238dfab577ecd4adb97a917,SCN,2024-06-12_12h39.26.781,LearnStrategy,2023.2.3,Win32,30.03003003,3,1,1,-0.381183513,0.392279233,1,0,0,3.0995,Obsidian_16,5,16,6,2,3.1,0.094082335,-0.247110509,1,0,0,1.4144,Diorite_rect,3,1.414,0,0,0,0,0,1,,,,,,,,,,,,,
6238dfab577ecd4adb97a917,SCN,2024-06-12_12h39.26.781,LearnStrategy,2023.2.3,Win32,30.03003003,3,1,2,0.277623939,0.238326384,1,0,0,2.0649,Diorite_06,3,06,5,6,2.065,-0.166666519,-0.383032839,1,0,0,2.8172,Pegmatite_rect,6,2.817,0,1,0,1,0,1,,,,,,,,,,,,,
6238dfab577ecd4adb97a917,SCN,2024-06-12_12h39.26.781,LearnStrategy,2023.2.3,Win32,30.03003003,3,1,3,0.21289902,-0.086685181,1,0,0,1.5311,Andesite_11,1,11,3,6,1.531,0.127831715,-0.2642165,1,0,0,1.8586,Diorite_rect,3,1.859,0,2,0,2,0,1,,,,,,,,,,,,,
6238dfab577ecd4adb97a917,SCN,2024-06-12_12h39.26.781,LearnStrategy,2023.2.3,Win32,30.03003003,3,1,4,0.594313736,-0.115811394,1,0,0,2.0984,Basalt_06,2,06,3,8,2.098,-0.146324528,-0.231391734,1,0,0,3.7513,Basalt_rect,2,3.751,1,3,0,3,0,1,,,,,,,,,,,,,
6238dfab577ecd4adb97a917,SCN,2024-06-12_12h39.26.781,LearnStrategy,2023.2.3,Win32,30.03003003,3,1,5,-0.543920474,0.40568653,1,0,0,2.798,Pumice_06,8,06,6,1,2.798,0.399676672,-0.403375126,1,0,0,1.8916,Pumice_rect,8,1.892,1,4,0,4,0,1,,,,,,,,,,,,,
6238dfab577ecd4adb97a917,SCN,2024-06-12_12h39.26.781,LearnStrategy,2023.2.3,Win32,30.03003003,3,1,6,0.572122321,0.078363314,1,0,0,2.5672,Andesite_04,1,04,4,8,2.567,0.37702295,-0.249884448,1,0,0,2.2921,Gabbro_rect,4,2.292,0,5,0,5,0,1,,,,,,,,,,,,,
6238dfab577ecd4adb97a917,SCN,2024-06-12_12h39.26.781,LearnStrategy,2023.2.3,Win32,30.03003003,3,1,7,0.082061965,0.142625975,1,0,0,1.5673,Pumice_10,8,10,4,5,1.567,0.412621656,-0.395053308,1,0,0,2.0962,Pumice_rect,8,2.096,1,6,0,6,0,1,,,,,,,,,,,,,
6238dfab577ecd4adb97a917,SCN,2024-06-12_12h39.26.781,LearnStrategy,2023.2.3,Win32,30.03003003,3,1,8,-0.418169139,-0.254507762,1,0,0,2.2061,Obsidian_04,5,04,2,2,2.206,-0.358529791,-0.247572964,1,0,0,1.1179,Andesite_rect,1,1.118,0,7,0,7,0,1,,,,,,,,,,,,,
6238dfab577ecd4adb97a917,SCN,2024-06-12_12h39.26.781,LearnStrategy,2023.2.3,Win32,30.03003003,3,1,9,0.396440426,-0.413083863,1,0,0,3.1319,Obsidian_14,5,14,1,7,3.132,-0.369625499,-0.378409673,1,0,0,2.1818,Obsidian_rect,5,2.182,1,8,0,8,0,1,,,,,,,,,,,,,
6238dfab577ecd4adb97a917,SCN,2024-06-12_12h39.26.781,LearnStrategy,2023.2.3,Win32,30.03003003,3,1,10,-0.534673993,-0.103791172,1,0,0,3.4332,Diorite_13,3,13,3,1,3.433,-0.381183513,-0.260517947,1,0,0,1.9571,Andesite_rect,1,1.957,0,9,0,9,0,1,,,,,,,,,,,,,
6238dfab577ecd4adb97a917,SCN,2024-06-12_12h39.26.781,LearnStrategy,2023.2.3,Win32,30.03003003,3,1,11,-0.563800207,-0.260517947,1,0,0,3.7313,Diorite_14,3,14,2,1,3.731,0.073278137,-0.248497478,1,0,0,3.0239,Diorite_rect,3,3.024,1,10,0,10,0,1,,,,,,,,,,,,,
6238dfab577ecd4adb97a917,SCN,2024-06-12_12h39.26.781,LearnStrategy,2023.2.3,Win32,30.03003003,3,1,12,-0.087609646,0.070503902,1,0,0,2.4264,Obsidian_06,5,06,4,4,2.426,0.080675045,-0.261904917,1,0,0,3.3647,Diorite_rect,3,3.365,0,11,0,11,0,1,,,,,,,,,,,,,
6238dfab577ecd4adb97a917,SCN,2024-06-12_12h39.26.781,LearnStrategy,2023.2.3,Win32,30.03003003,3,1,13,0.197179899,-0.073277989,1,0,0,3.8318,Andesite_11,1,11,3,6,3.832,0.153721683,-0.23462798,1,0,0,4.2899,Diorite_rect,3,4.29,0,12,0,12,0,1,,,,,,,,,,,,,
6238dfab577ecd4adb97a917,SCN,2024-06-12_12h39.26.781,LearnStrategy,2023.2.3,Win32,30.03003003,3,1,14,0.524040741,-0.401063394,1,0,0,4.0653,Andesite_09,1,09,1,8,4.065,0.137078146,-0.248497478,1,0,0,1.949,Diorite_rect,3,1.949,0,13,0,13,0,1,,,,,,,,,,,,,
6238dfab577ecd4adb97a917,SCN,2024-06-12_12h39.26.781,LearnStrategy,2023.2.3,Win32,30.03003003,3,1,15,-0.219833423,-0.102404202,1,0,0,1.5331,Basalt_05,2,05,3,3,1.533,-0.389967638,-0.392741577,1,0,0,2.7846,Obsidian_rect,5,2.785,0,14,0,14,0,1,,,,,,,,,,,,,
6238dfab577ecd4adb97a917,SCN,2024-06-12_12h39.26.781,LearnStrategy,2023.2.3,Win32,30.03003003,3,1,16,0.063569399,-0.108414388,1,0,0,1.6654,Gabbro_14,4,14,3,5,1.665,0.09223301,-0.245723687,1,0,0,2.1179,Diorite_rect,3,2.118,0,15,0,15,0,1,,,,,,,,,,,,,
6238dfab577ecd4adb97a917,SCN,2024-06-12_12h39.26.781,LearnStrategy,2023.2.3,Win32,30.03003003,3,2,1,,,,,,,,7,08,,,,,,,,,,,3,5.076,0,,,,,,0.100092521,-0.244799024,1,0,0,5.0763,Diorite_rect,0,0,0,0,1,
6238dfab577ecd4adb97a917,SCN,2024-06-12_12h39.26.781,LearnStrategy,2023.2.3,Win32,30.03003003,3,2,2,,,,,,,,8,02,,,,,,,,,,,8,1.688,1,,,,,,0.301664383,-0.389043024,1,0,0,1.6883,Pumice_rect,1,0,1,0,1,
6238dfab577ecd4adb97a917,SCN,2024-06-12_12h39.26.781,LearnStrategy,2023.2.3,Win32,30.03003003,3,2,3,,,,,,,,4,13,,,,,,,,,,,5,2.786,0,,,,,,-0.393203883,-0.416782317,1,0,0,2.786,Obsidian_rect,2,0,2,0,1,
6238dfab577ecd4adb97a917,SCN,2024-06-12_12h39.26.781,LearnStrategy,2023.2.3,Win32,30.03003003,3,2,4,,,,,,,,4,08,,,,,,,,,,,1,4.291,0,,,,,,-0.375173229,-0.245723687,1,0,0,4.2907,Andesite_rect,3,0,3,0,1,
6238dfab577ecd4adb97a917,SCN,2024-06-12_12h39.26.781,LearnStrategy,2023.2.3,Win32,30.03003003,3,2,5,,,,,,,,5,11,,,,,,,,,,,2,2.654,0,,,,,,-0.121359075,-0.259130978,1,0,0,2.6543,Basalt_rect,4,0,4,0,1,
6238dfab577ecd4adb97a917,SCN,2024-06-12_12h39.26.781,LearnStrategy,2023.2.3,Win32,30.03003003,3,2,6,,,,,,,,6,11,,,,,,,,,,,6,2.473,1,,,,,,-0.137540305,-0.402450315,1,0,0,2.4734,Pegmatite_rect,5,0,5,0,1,
6238dfab577ecd4adb97a917,SCN,2024-06-12_12h39.26.781,LearnStrategy,2023.2.3,Win32,30.03003003,3,2,7,,,,,,,,3,08,,,,,,,,,,,3,1.426,1,,,,,,0.129218734,-0.25080921,1,0,0,1.4255,Diorite_rect,6,0,6,0,1,
6238dfab577ecd4adb97a917,SCN,2024-06-12_12h39.26.781,LearnStrategy,2023.2.3,Win32,30.03003003,3,2,8,,,,,,,,6,16,,,,,,,,,,,4,3.486,0,,,,,,0.329403874,-0.26560347,1,0,0,3.4861,Gabbro_rect,7,0,7,0,1,
6238dfab577ecd4adb97a917,SCN,2024-06-12_12h39.26.781,LearnStrategy,2023.2.3,Win32,30.03003003,3,2,9,,,,,,,,7,13,,,,,,,,,,,1,1.916,0,,,,,,-0.383495146,-0.253120694,1,0,0,1.9161,Andesite_rect,8,0,8,0,1,
6238dfab577ecd4adb97a917,SCN,2024-06-12_12h39.26.781,LearnStrategy,2023.2.3,Win32,30.03003003,3,2,10,,,,,,,,8,13,,,,,,,,,,,5,2.925,0,,,,,,-0.318307772,-0.384419858,1,0,0,2.9251,Obsidian_rect,9,0,9,0,1,
6238dfab577ecd4adb97a917,SCN,2024-06-12_12h39.26.781,LearnStrategy,2023.2.3,Win32,30.03003003,3,2,11,,,,,,,,1,07,,,,,,,,,,,6,1.333,0,,,,,,-0.119509799,-0.387656104,1,0,0,1.3334,Pegmatite_rect,10,0,10,0,1,
6238dfab577ecd4adb97a917,SCN,2024-06-12_12h39.26.781,LearnStrategy,2023.2.3,Win32,30.03003003,3,2,12,,,,,,,,5,02,,,,,,,,,,,2,2.452,0,,,,,,-0.138465067,-0.249884448,1,0,0,2.4524,Basalt_rect,11,0,11,0,1,
6238dfab577ecd4adb97a917,SCN,2024-06-12_12h39.26.781,LearnStrategy,2023.2.3,Win32,30.03003003,3,2,13,,,,,,,,2,12,,,,,,,,,,,8,2.288,0,,,,,,0.356218258,-0.387656104,1,0,0,2.2882,Pumice_rect,12,0,12,0,1,
6238dfab577ecd4adb97a917,SCN,2024-06-12_12h39.26.781,LearnStrategy,2023.2.3,Win32,30.03003003,3,2,14,,,,,,,,1,01,,,,,,,,,,,3,1.333,0,,,,,,0.101941748,-0.257281702,1,0,0,1.333,Diorite_rect,13,0,13,0,1,
6238dfab577ecd4adb97a917,SCN,2024-06-12_12h39.26.781,LearnStrategy,2023.2.3,Win32,30.03003003,3,2,15,,,,,,,,2,01,,,,,,,,,,,6,0.985,0,,,,,,-0.126444597,-0.38534457,1,0,0,0.985,Pegmatite_rect,14,0,14,0,1,
6238dfab577ecd4adb97a917,SCN,2024-06-12_12h39.26.781,LearnStrategy,2023.2.3,Win32,30.03003003,3,2,16,,,,,,,,3,10,,,,,,,,,,,5,1.519,0,,,,,,-0.357142723,-0.379334286,1,0,0,1.5186,Obsidian_rect,15,0,15,0,1,
6238dfab577ecd4adb97a917,SCN,2024-06-12_12h39.26.781,LearnStrategy,2023.2.3,Win32,30.03003003,4,1,1,-0.379334237,0.234627832,1,0,0,1.8479,Pegmatite_09,6,09,5,2,1.848,-0.140776551,-0.412159052,1,0,0,2.8842,Pegmatite_rect,6,2.884,1,0,0,0,0,1,,,,,,,,,,,,,
6238dfab577ecd4adb97a917,SCN,2024-06-12_12h39.26.781,LearnStrategy,2023.2.3,Win32,30.03003003,4,1,2,-0.266990143,-0.100092471,1,0,0,1.4321,Basalt_05,2,05,3,3,1.432,-0.137540305,-0.261442462,1,0,0,1.0511,Basalt_rect,2,1.051,1,1,0,1,0,1,,,,,,,,,,,,,
6238dfab577ecd4adb97a917,SCN,2024-06-12_12h39.26.781,LearnStrategy,2023.2.3,Win32,30.03003003,4,1,3,0.08807215,-0.129218685,1,0,0,1.6974,Gabbro_14,4,14,3,5,1.697,-0.36407767,-0.401063394,1,0,0,1.7182,Obsidian_rect,5,1.718,0,2,0,2,0,1,,,,,,,,,,,,,
6238dfab577ecd4adb97a917,SCN,2024-06-12_12h39.26.781,LearnStrategy,2023.2.3,Win32,30.03003003,4,1,4,0.247110509,-0.086685181,1,0,0,1.2662,Andesite_11,1,11,3,6,1.266,0.131530564,-0.24017571,1,0,0,3.5851,Diorite_rect,3,3.585,0,3,0,3,0,1,,,,,,,,,,,,,
6238dfab577ecd4adb97a917,SCN,2024-06-12_12h39.26.781,LearnStrategy,2023.2.3,Win32,30.03003003,4,1,5,-0.260980106,0.219833497,1,0,0,2.0315,Peridotite_04,7,04,5,3,2.032,-0.387193698,-0.42048087,1,0,0,2.0831,Obsidian_rect,5,2.083,0,4,0,4,0,1,,,,,,,,,,,,,
6238dfab577ecd4adb97a917,SCN,2024-06-12_12h39.26.781,LearnStrategy,2023.2.3,Win32,30.03003003,4,1,6,0.380259196,0.2429496,1,0,0,2.0997,Pegmatite_12,6,12,5,7,2.1,0.33448915,-0.239713502,1,0,0,2.1843,Gabbro_rect,4,2.184,0,5,0,5,0,1,,,,,,,,,,,,,
6238dfab577ecd4adb97a917,SCN,2024-06-12_12h39.26.781,LearnStrategy,2023.2.3,Win32,30.03003003,4,1,7,0.380259196,0.082524272,1,0,0,3.4653,Peridotite_16,7,16,4,7,3.465,-0.297503326,-0.241100472,1,0,0,2.8847,Andesite_rect,1,2.885,0,6,0,6,0,1,,,,,,,,,,,,,
6238dfab577ecd4adb97a917,SCN,2024-06-12_12h39.26.781,LearnStrategy,2023.2.3,Win32,30.03003003,4,1,8,-0.389967638,-0.395515516,1,0,0,30.9217,Gabbro_11,4,11,1,2,30.922,-0.387193698,-0.243874263,1,0,0,2.015,Andesite_rect,1,2.015,0,7,0,7,0,1,,,,,,,,,,,,,
6238dfab577ecd4adb97a917,SCN,2024-06-12_12h39.26.781,LearnStrategy,2023.2.3,Win32,30.03003003,4,1,9,0.601710644,-0.084835904,1,0,0,2.9907,Basalt_06,2,06,3,8,2.991,-0.024271845,-0.239713502,1,0,0,2.0845,Basalt_rect,2,2.085,1,8,0,8,0,1,,,,,,,,,,,,,
6238dfab577ecd4adb97a917,SCN,2024-06-12_12h39.26.781,LearnStrategy,2023.2.3,Win32,30.03003003,4,1,10,0.243874263,0.236939365,1,0,0,2.6658,Diorite_06,3,06,5,6,2.666,0.175913098,-0.238788741,1,0,0,4.3174,Diorite_rect,3,4.317,1,9,0,9,0,1,,,,,,,,,,,,,
6238dfab577ecd4adb97a917,SCN,2024-06-12_12h39.26.781,LearnStrategy,2023.2.3,Win32,30.03003003,4,1,11,-0.242024937,0.253120595,1,0,0,2.6998,Peridotite_04,7,04,5,3,2.7,0.315071674,-0.256819247,1,0,0,2.9509,Gabbro_rect,4,2.951,0,10,0,10,0,1,,,,,,,,,,,,,
6238dfab577ecd4adb97a917,SCN,2024-06-12_12h39.26.781,LearnStrategy,2023.2.3,Win32,30.03003003,4,1,12,0.52912651,0.234627832,1,0,0,5.1987,Pegmatite_05,6,05,5,8,5.199,-0.37887193,-0.411234538,1,0,0,2.3487,Obsidian_rect,5,2.349,0,11,0,11,0,1,,,,,,,,,,,,,
6238dfab577ecd4adb97a917,SCN,2024-06-12_12h39.26.781,LearnStrategy,2023.2.3,Win32,30.03003003,4,1,13,0.554554171,-0.227693033,1,0,0,5.0305,Andesite_02,1,02,2,8,5.031,0.146324577,-0.245723687,1,0,0,2.359,Diorite_rect,3,2.359,0,12,0,12,0,1,,,,,,,,,,,,,
6238dfab577ecd4adb97a917,SCN,2024-06-12_12h39.26.781,LearnStrategy,2023.2.3,Win32,30.03003003,4,1,14,0.256819247,0.24156263,1,0,0,6.0982,Diorite_06,3,06,5,6,6.098,-0.097318384,-0.239713502,1,0,0,1.4505,Basalt_rect,2,1.451,0,13,0,13,0,1,,,,,,,,,,,,,
6238dfab577ecd4adb97a917,SCN,2024-06-12_12h39.26.781,LearnStrategy,2023.2.3,Win32,30.03003003,4,1,15,-0.428802589,-0.086685181,1,0,0,1.6652,Andesite_14,1,14,3,2,1.665,-0.383957452,-0.395053308,1,0,0,2.8946,Obsidian_rect,5,2.895,0,14,0,14,0,1,,,,,,,,,,,,,
6238dfab577ecd4adb97a917,SCN,2024-06-12_12h39.26.781,LearnStrategy,2023.2.3,Win32,30.03003003,4,1,16,0.564725215,-0.095469404,1,0,0,2.1628,Basalt_06,2,06,3,8,2.163,-0.037679135,-0.4084605,1,0,0,1.7347,Pegmatite_rect,6,1.735,0,15,0,15,0,1,,,,,,,,,,,,,
6238dfab577ecd4adb97a917,SCN,2024-06-12_12h39.26.781,LearnStrategy,2023.2.3,Win32,30.03003003,4,2,1,,,,,,,,4,15,,,,,,,,,,,4,2.552,1,,,,,,0.36084172,-0.232316249,1,0,0,2.552,Gabbro_rect,0,0,0,0,1,
6238dfab577ecd4adb97a917,SCN,2024-06-12_12h39.26.781,LearnStrategy,2023.2.3,Win32,30.03003003,4,2,2,,,,,,,,7,13,,,,,,,,,,,3,1.149,0,,,,,,0.107489626,-0.238788741,1,0,0,1.1489,Diorite_rect,1,0,1,0,1,
6238dfab577ecd4adb97a917,SCN,2024-06-12_12h39.26.781,LearnStrategy,2023.2.3,Win32,30.03003003,4,2,3,,,,,,,,6,03,,,,,,,,,,,6,2.592,1,,,,,,-0.156033266,-0.42048087,1,0,0,2.5919,Pegmatite_rect,2,0,2,0,1,
6238dfab577ecd4adb97a917,SCN,2024-06-12_12h39.26.781,LearnStrategy,2023.2.3,Win32,30.03003003,4,2,4,,,,,,,,6,13,,,,,,,,,,,2,1.958,0,,,,,,-0.144012797,-0.260517947,1,0,0,1.9576,Basalt_rect,3,0,3,0,1,
6238dfab577ecd4adb97a917,SCN,2024-06-12_12h39.26.781,LearnStrategy,2023.2.3,Win32,30.03003003,4,2,5,,,,,,,,4,08,,,,,,,,,,,7,1.394,0,,,,,,0.063569399,-0.399676375,1,0,0,1.3938,Peridotite_rect,4,0,4,0,1,
6238dfab577ecd4adb97a917,SCN,2024-06-12_12h39.26.781,LearnStrategy,2023.2.3,Win32,30.03003003,4,2,6,,,,,,,,3,07,,,,,,,,,,,6,1.704,0,,,,,,-0.091308347,-0.410772132,1,0,0,1.7035,Pegmatite_rect,5,0,5,0,1,
6238dfab577ecd4adb97a917,SCN,2024-06-12_12h39.26.781,LearnStrategy,2023.2.3,Win32,30.03003003,4,2,7,,,,,,,,2,09,,,,,,,,,,,2,1.82,1,,,,,,-0.192556486,-0.247572964,1,0,0,1.8195,Basalt_rect,6,0,6,0,1,
6238dfab577ecd4adb97a917,SCN,2024-06-12_12h39.26.781,LearnStrategy,2023.2.3,Win32,30.03003003,4,2,8,,,,,,,,3,16,,,,,,,,,,,5,2.026,0,,,,,,-0.388580668,-0.412159052,1,0,0,2.0257,Obsidian_rect,7,0,7,0,1,
6238dfab577ecd4adb97a917,SCN,2024-06-12_12h39.26.781,LearnStrategy,2023.2.3,Win32,30.03003003,4,2,9,,,,,,,,8,02,,,,,,,,,,,8,1.92,1,,,,,,0.379796593,-0.393666388,1,0,0,1.92,Pumice_rect,8,0,8,0,1,
6238dfab577ecd4adb97a917,SCN,2024-06-12_12h39.26.781,LearnStrategy,2023.2.3,Win32,30.03003003,4,2,10,,,,,,,,5,07,,,,,,,,,,,6,2.757,0,,,,,,-0.138465067,-0.413083863,1,0,0,2.7572,Pegmatite_rect,9,0,9,0,1,
6238dfab577ecd4adb97a917,SCN,2024-06-12_12h39.26.781,LearnStrategy,2023.2.3,Win32,30.03003003,4,2,11,,,,,,,,2,12,,,,,,,,,,,8,2.392,0,,,,,,0.351132982,-0.413546071,1,0,0,2.392,Pumice_rect,10,0,10,0,1,
6238dfab577ecd4adb97a917,SCN,2024-06-12_12h39.26.781,LearnStrategy,2023.2.3,Win32,30.03003003,4,2,12,,,,,,,,5,09,,,,,,,,,,,2,5.335,0,,,,,,-0.141239006,-0.260517947,1,0,0,5.3347,Basalt_rect,11,0,11,0,1,
6238dfab577ecd4adb97a917,SCN,2024-06-12_12h39.26.781,LearnStrategy,2023.2.3,Win32,30.03003003,4,2,13,,,,,,,,1,03,,,,,,,,,,,3,1.358,0,,,,,,0.113499811,-0.230466972,1,0,0,1.3584,Diorite_rect,12,0,12,0,1,
6238dfab577ecd4adb97a917,SCN,2024-06-12_12h39.26.781,LearnStrategy,2023.2.3,Win32,30.03003003,4,2,14,,,,,,,,1,06,,,,,,,,,,,4,1.338,0,,,,,,0.406149164,-0.259593186,1,0,0,1.3381,Gabbro_rect,13,0,13,0,1,
6238dfab577ecd4adb97a917,SCN,2024-06-12_12h39.26.781,LearnStrategy,2023.2.3,Win32,30.03003003,4,2,15,,,,,,,,8,09,,,,,,,,,,,8,1.659,1,,,,,,0.340499335,-0.393666388,1,0,0,1.6589,Pumice_rect,14,0,14,0,1,
6238dfab577ecd4adb97a917,SCN,2024-06-12_12h39.26.781,LearnStrategy,2023.2.3,Win32,30.03003003,4,2,16,,,,,,,,7,12,,,,,,,,,,,7,1.684,1,,,,,,0.040453074,-0.389043024,1,0,0,1.6843,Peridotite_rect,15,0,15,0,1,
6238dfab577ecd4adb97a917,SCN,2024-06-12_12h39.26.781,LearnStrategy,2023.2.3,Win32,30.03003003,5,1,1,0.403837531,0.132917238,1,0,0,13.932,Peridotite_16,7,16,4,7,13.932,0.135691226,-0.251733724,1,0,0,1.3815,Diorite_rect,3,1.381,0,0,0,0,0,1,,,,,,,,,,,,,
6238dfab577ecd4adb97a917,SCN,2024-06-12_12h39.26.781,LearnStrategy,2023.2.3,Win32,30.03003003,5,1,2,0.399676672,-0.24942224,1,0,0,103.7611,Basalt_10,2,10,2,7,103.761,0.157420532,-0.404762046,1,0,0,1.1938,Peridotite_rect,7,1.194,0,1,0,1,0,1,,,,,,,,,,,,,
6238dfab577ecd4adb97a917,SCN,2024-06-12_12h39.26.781,LearnStrategy,2023.2.3,Win32,30.03003003,5,1,3,-0.03166895,-0.266527985,1,0,0,1.4332,Gabbro_03,4,03,2,4,1.433,-0.074202355,-0.395053308,1,0,0,2.1676,Pegmatite_rect,6,2.168,0,2,0,2,0,1,,,,,,,,,,,,,
6238dfab577ecd4adb97a917,SCN,2024-06-12_12h39.26.781,LearnStrategy,2023.2.3,Win32,30.03003003,5,1,4,-0.055247285,-0.108414388,1,0,0,1.9972,Pegmatite_07,6,07,3,4,1.997,0.131067961,-0.417244624,1,0,0,3.7914,Peridotite_rect,7,3.791,0,3,0,3,0,1,,,,,,,,,,,,,
6238dfab577ecd4adb97a917,SCN,2024-06-12_12h39.26.781,LearnStrategy,2023.2.3,Win32,30.03003003,5,1,5,0.067267952,-0.082061965,1,0,0,1.7973,Gabbro_14,4,14,3,5,1.797,-0.121359075,-0.249884448,1,0,0,1.7917,Basalt_rect,2,1.792,0,4,0,4,0,1,,,,,,,,,,,,,
6238dfab577ecd4adb97a917,SCN,2024-06-12_12h39.26.781,LearnStrategy,2023.2.3,Win32,30.03003003,5,1,6,-0.400600989,-0.267452746,1,0,0,1.5313,Obsidian_04,5,04,2,2,1.531,-0.150022982,-0.2711512,1,0,0,1.0514,Basalt_rect,2,1.051,0,5,0,5,0,1,,,,,,,,,,,,,
6238dfab577ecd4adb97a917,SCN,2024-06-12_12h39.26.781,LearnStrategy,2023.2.3,Win32,30.03003003,5,1,7,0.22399448,-0.107951933,1,0,0,2.9642,Andesite_11,1,11,3,6,2.964,0.155108702,-0.266527985,1,0,0,1.4488,Diorite_rect,3,1.449,0,6,0,6,0,1,,,,,,,,,,,,,
6238dfab577ecd4adb97a917,SCN,2024-06-12_12h39.26.781,LearnStrategy,2023.2.3,Win32,30.03003003,5,1,8,0.085760518,0.058483581,1,0,0,1.4993,Pumice_10,8,10,4,5,1.499,0.363615363,-0.401063394,1,0,0,1.5863,Pumice_rect,8,1.586,1,7,0,7,0,1,,,,,,,,,,,,,
6238dfab577ecd4adb97a917,SCN,2024-06-12_12h39.26.781,LearnStrategy,2023.2.3,Win32,30.03003003,5,1,9,-0.102404054,0.071890822,1,0,0,1.2983,Obsidian_06,5,06,4,4,1.298,0.1620435,-0.416782317,1,0,0,2.1573,Peridotite_rect,7,2.157,0,8,0,8,0,1,,,,,,,,,,,,,
6238dfab577ecd4adb97a917,SCN,2024-06-12_12h39.26.781,LearnStrategy,2023.2.3,Win32,30.03003003,5,1,10,-0.071890871,-0.289644161,1,0,0,1.3664,Gabbro_03,4,03,2,4,1.366,-0.082524124,-0.402912621,1,0,0,3.6181,Pegmatite_rect,6,3.618,0,9,0,9,0,1,,,,,,,,,,,,,
6238dfab577ecd4adb97a917,SCN,2024-06-12_12h39.26.781,LearnStrategy,2023.2.3,Win32,30.03003003,5,1,11,-0.115349038,-0.107489626,1,0,0,1.6651,Pegmatite_07,6,07,3,4,1.665,-0.095931562,-0.403375126,1,0,0,1.5717,Pegmatite_rect,6,1.572,1,10,0,10,0,1,,,,,,,,,,,,,
6238dfab577ecd4adb97a917,SCN,2024-06-12_12h39.26.781,LearnStrategy,2023.2.3,Win32,30.03003003,5,1,12,0.062644489,-0.062644489,1,0,0,1.634,Gabbro_14,4,14,3,5,1.634,0.407073777,-0.241100472,1,0,0,2.8318,Gabbro_rect,4,2.832,1,11,0,11,0,1,,,,,,,,,,,,,
6238dfab577ecd4adb97a917,SCN,2024-06-12_12h39.26.781,LearnStrategy,2023.2.3,Win32,30.03003003,5,1,13,0.206888637,-0.064031459,1,0,0,1.3005,Andesite_11,1,11,3,6,1.301,0.107489626,-0.416782317,1,0,0,2.6009,Peridotite_rect,7,2.601,0,12,0,12,0,1,,,,,,,,,,,,,
6238dfab577ecd4adb97a917,SCN,2024-06-12_12h39.26.781,LearnStrategy,2023.2.3,Win32,30.03003003,5,1,14,-0.230004616,-0.108414388,1,0,0,1.7653,Basalt_05,2,05,3,3,1.765,-0.322931086,-0.391817062,1,0,0,1.7202,Obsidian_rect,5,1.72,0,13,0,13,0,1,,,,,,,,,,,,,
6238dfab577ecd4adb97a917,SCN,2024-06-12_12h39.26.781,LearnStrategy,2023.2.3,Win32,30.03003003,5,1,15,-0.113037307,-0.069579436,1,0,0,1.4317,Pegmatite_07,6,07,3,4,1.432,0.078363412,-0.403375126,1,0,0,3.4179,Peridotite_rect,7,3.418,0,14,0,14,0,1,,,,,,,,,,,,,
6238dfab577ecd4adb97a917,SCN,2024-06-12_12h39.26.781,LearnStrategy,2023.2.3,Win32,30.03003003,5,1,16,0.398751762,0.079288026,1,0,0,2.931,Peridotite_16,7,16,4,7,2.931,-0.101017085,-0.397827148,1,0,0,2.3086,Pegmatite_rect,6,2.309,0,15,0,15,0,1,,,,,,,,,,,,,
6238dfab577ecd4adb97a917,SCN,2024-06-12_12h39.26.781,LearnStrategy,2023.2.3,Win32,30.03003003,5,2,1,,,,,,,,6,10,,,,,,,,,,,6,2.698,1,,,,,,-0.077900908,-0.396440129,1,0,0,2.6982,Pegmatite_rect,0,0,0,0,1,
6238dfab577ecd4adb97a917,SCN,2024-06-12_12h39.26.781,LearnStrategy,2023.2.3,Win32,30.03003003,5,2,2,,,,,,,,2,04,,,,,,,,,,,3,1.883,0,,,,,,0.237401771,-0.233703218,1,0,0,1.8827,Diorite_rect,1,0,1,0,1,
6238dfab577ecd4adb97a917,SCN,2024-06-12_12h39.26.781,LearnStrategy,2023.2.3,Win32,30.03003003,5,2,3,,,,,,,,4,16,,,,,,,,,,,4,2.241,1,,,,,,0.358992197,-0.253120694,1,0,0,2.2414,Gabbro_rect,2,0,2,0,1,
6238dfab577ecd4adb97a917,SCN,2024-06-12_12h39.26.781,LearnStrategy,2023.2.3,Win32,30.03003003,5,2,4,,,,,,,,2,01,,,,,,,,,,,5,2.449,0,,,,,,-0.375173229,-0.386731392,1,0,0,2.4491,Obsidian_rect,3,0,3,0,1,
6238dfab577ecd4adb97a917,SCN,2024-06-12_12h39.26.781,LearnStrategy,2023.2.3,Win32,30.03003003,5,2,5,,,,,,,,5,08,,,,,,,,,,,5,2.059,1,,,,,,-0.322006324,-0.396440129,1,0,0,2.0594,Obsidian_rect,4,0,4,0,1,
6238dfab577ecd4adb97a917,SCN,2024-06-12_12h39.26.781,LearnStrategy,2023.2.3,Win32,30.03003003,5,2,6,,,,,,,,5,12,,,,,,,,,,,5,1.317,1,,,,,,-0.347433985,-0.391354657,1,0,0,1.3165,Obsidian_rect,5,0,5,0,1,
6238dfab577ecd4adb97a917,SCN,2024-06-12_12h39.26.781,LearnStrategy,2023.2.3,Win32,30.03003003,5,2,7,,,,,,,,8,16,,,,,,,,,,,8,1.618,1,,,,,,0.460702742,-0.409385113,1,0,0,1.6179,Pumice_rect,6,0,6,0,1,
6238dfab577ecd4adb97a917,SCN,2024-06-12_12h39.26.781,LearnStrategy,2023.2.3,Win32,30.03003003,5,2,8,,,,,,,,6,16,,,,,,,,,,,6,2.606,1,,,,,,-0.070503902,-0.414470784,1,0,0,2.6055,Pegmatite_rect,7,0,7,0,1,
6238dfab577ecd4adb97a917,SCN,2024-06-12_12h39.26.781,LearnStrategy,2023.2.3,Win32,30.03003003,5,2,9,,,,,,,,4,13,,,,,,,,,,,1,2.558,0,,,,,,-0.322006324,-0.261904917,1,0,0,2.5584,Andesite_rect,8,0,8,0,1,
6238dfab577ecd4adb97a917,SCN,2024-06-12_12h39.26.781,LearnStrategy,2023.2.3,Win32,30.03003003,5,2,10,,,,,,,,7,14,,,,,,,,,,,7,2.189,1,,,,,,0.096394165,-0.4015258,1,0,0,2.1893,Peridotite_rect,9,0,9,0,1,
6238dfab577ecd4adb97a917,SCN,2024-06-12_12h39.26.781,LearnStrategy,2023.2.3,Win32,30.03003003,5,2,11,,,,,,,,7,15,,,,,,,,,,,6,2.447,0,,,,,,-0.075589325,-0.38534457,1,0,0,2.4471,Pegmatite_rect,10,0,10,0,1,
6238dfab577ecd4adb97a917,SCN,2024-06-12_12h39.26.781,LearnStrategy,2023.2.3,Win32,30.03003003,5,2,12,,,,,,,,1,01,,,,,,,,,,,2,2.332,0,,,,,,-0.136153335,-0.239713502,1,0,0,2.3323,Basalt_rect,11,0,11,0,1,
6238dfab577ecd4adb97a917,SCN,2024-06-12_12h39.26.781,LearnStrategy,2023.2.3,Win32,30.03003003,5,2,13,,,,,,,,8,15,,,,,,,,,,,8,2.715,1,,,,,,0.361304027,-0.389967638,1,0,0,2.7153,Pumice_rect,12,0,12,0,1,
6238dfab577ecd4adb97a917,SCN,2024-06-12_12h39.26.781,LearnStrategy,2023.2.3,Win32,30.03003003,5,2,14,,,,,,,,3,10,,,,,,,,,,,3,1.786,1,,,,,,0.193943653,-0.259130978,1,0,0,1.7859,Diorite_rect,13,0,13,0,1,
6238dfab577ecd4adb97a917,SCN,2024-06-12_12h39.26.781,LearnStrategy,2023.2.3,Win32,30.03003003,5,2,15,,,,,,,,1,16,,,,,,,,,,,7,1.558,0,,,,,,0.084835904,-0.399676375,1,0,0,1.5575,Peridotite_rect,14,0,14,0,1,
6238dfab577ecd4adb97a917,SCN,2024-06-12_12h39.26.781,LearnStrategy,2023.2.3,Win32,30.03003003,5,2,16,,,,,,,,3,12,,,,,,,,,,,6,1.314,0,,,,,,-0.082524124,-0.383032839,1,0,0,1.3142,Pegmatite_rect,15,0,15,0,1,
6238dfab577ecd4adb97a917,SCN,2024-06-12_12h39.26.781,LearnStrategy,2023.2.3,Win32,30.03003003,6,1,1,-0.353906477,0.236939365,1,0,0,2.9728,Pegmatite_09,6,09,5,2,2.973,-0.153259228,-0.42048087,1,0,0,1.7684,Pegmatite_rect,6,1.768,1,0,0,0,0,1,,,,,,,,,,,,,
6238dfab577ecd4adb97a917,SCN,2024-06-12_12h39.26.781,LearnStrategy,2023.2.3,Win32,30.03003003,6,1,2,-0.06957914,0.118122903,1,0,0,1.9004,Obsidian_06,5,06,4,4,1.9,-0.344197739,-0.396440129,1,0,0,3.8344,Obsidian_rect,5,3.834,1,1,0,1,0,1,,,,,,,,,,,,,
6238dfab577ecd4adb97a917,SCN,2024-06-12_12h39.26.781,LearnStrategy,2023.2.3,Win32,30.03003003,6,1,3,0.047850279,-0.121821678,1,0,0,1.1974,Gabbro_14,4,14,3,5,1.197,0.34650952,-0.254507762,1,0,0,2.2844,Gabbro_rect,4,2.284,1,2,0,2,0,1,,,,,,,,,,,,,
6238dfab577ecd4adb97a917,SCN,2024-06-12_12h39.26.781,LearnStrategy,2023.2.3,Win32,30.03003003,6,1,4,0.242025233,-0.232778704,1,0,0,1.6976,Peridotite_05,7,05,2,6,1.698,0.072353227,-0.410772132,1,0,0,2.3842,Peridotite_rect,7,2.384,1,3,0,3,0,1,,,,,,,,,,,,,
6238dfab577ecd4adb97a917,SCN,2024-06-12_12h39.26.781,LearnStrategy,2023.2.3,Win32,30.03003003,6,1,5,-0.062182133,-0.398751762,1,0,0,1.9327,Pumice_03,8,03,1,4,1.933,0.381645919,-0.4084605,1,0,0,1.285,Pumice_rect,8,1.285,1,4,0,4,0,1,,,,,,,,,,,,,
6238dfab577ecd4adb97a917,SCN,2024-06-12_12h39.26.781,LearnStrategy,2023.2.3,Win32,30.03003003,6,1,6,0.037216828,0.258668449,1,0,0,1.2979,Gabbro_10,4,10,5,5,1.298,-0.17313901,-0.270226685,1,0,0,2.085,Basalt_rect,2,2.085,0,5,0,5,0,1,,,,,,,,,,,,,
6238dfab577ecd4adb97a917,SCN,2024-06-12_12h39.26.781,LearnStrategy,2023.2.3,Win32,30.03003003,6,1,7,-0.379334237,0.398751731,1,0,0,2.9989,Obsidian_16,5,16,6,2,2.999,-0.354831239,-0.413546071,1,0,0,2.3816,Obsidian_rect,5,2.382,1,6,0,6,0,1,,,,,,,,,,,,,
6238dfab577ecd4adb97a917,SCN,2024-06-12_12h39.26.781,LearnStrategy,2023.2.3,Win32,30.03003003,6,1,8,0.114886731,0.230929254,1,0,0,2.4803,Gabbro_10,4,10,5,5,2.48,0.386731688,-0.236477256,1,0,0,1.592,Gabbro_rect,4,1.592,1,7,0,7,0,1,,,,,,,,,,,,,
6238dfab577ecd4adb97a917,SCN,2024-06-12_12h39.26.781,LearnStrategy,2023.2.3,Win32,30.03003003,6,1,9,0.383957749,-0.135691177,1,0,0,1.8312,Pegmatite_15,6,15,3,7,1.831,-0.118122829,-0.415857605,1,0,0,1.818,Pegmatite_rect,6,1.818,1,8,0,8,0,1,,,,,,,,,,,,,
6238dfab577ecd4adb97a917,SCN,2024-06-12_12h39.26.781,LearnStrategy,2023.2.3,Win32,30.03003003,6,1,10,-0.114424277,-0.105178142,1,0,0,2.132,Pegmatite_07,6,07,3,4,2.132,0.135691226,-0.38395765,1,0,0,1.2515,Peridotite_rect,7,1.252,0,9,0,9,0,1,,,,,,,,,,,,,
6238dfab577ecd4adb97a917,SCN,2024-06-12_12h39.26.781,LearnStrategy,2023.2.3,Win32,30.03003003,6,1,11,-0.223994431,-0.271613655,1,0,0,2.0976,Obsidian_10,5,10,2,3,2.098,0.308136875,-0.267914954,1,0,0,3.3949,Gabbro_rect,4,3.395,0,10,0,10,0,1,,,,,,,,,,,,,
6238dfab577ecd4adb97a917,SCN,2024-06-12_12h39.26.781,LearnStrategy,2023.2.3,Win32,30.03003003,6,1,12,0.254045604,0.21752189,1,0,0,3.1648,Diorite_06,3,06,5,6,3.165,0.124595469,-0.381645919,1,0,0,2.6811,Peridotite_rect,7,2.681,0,11,0,11,0,1,,,,,,,,,,,,,
6238dfab577ecd4adb97a917,SCN,2024-06-12_12h39.26.781,LearnStrategy,2023.2.3,Win32,30.03003003,6,1,13,-0.231853893,0.246648103,1,0,0,2.3993,Peridotite_04,7,04,5,3,2.399,-0.108414091,-0.40013888,1,0,0,1.5166,Pegmatite_rect,6,1.517,0,12,0,12,0,1,,,,,,,,,,,,,
6238dfab577ecd4adb97a917,SCN,2024-06-12_12h39.26.781,LearnStrategy,2023.2.3,Win32,30.03003003,6,1,14,0.082061965,-0.406148867,1,0,0,1.9328,Obsidian_05,5,05,1,5,1.933,-0.332639824,-0.412159052,1,0,0,3.7835,Obsidian_rect,5,3.784,1,13,0,13,0,1,,,,,,,,,,,,,
6238dfab577ecd4adb97a917,SCN,2024-06-12_12h39.26.781,LearnStrategy,2023.2.3,Win32,30.03003003,6,1,15,0.082524272,0.426028662,1,0,0,6.2645,Andesite_05,1,05,6,5,6.264,0.108876843,-0.391354657,1,0,0,2.8412,Peridotite_rect,7,2.841,0,14,0,14,0,1,,,,,,,,,,,,,
6238dfab577ecd4adb97a917,SCN,2024-06-12_12h39.26.781,LearnStrategy,2023.2.3,Win32,30.03003003,6,1,16,0.585991721,-0.094544642,1,0,0,1.7979,Basalt_06,2,06,3,8,1.798,0.442672483,-0.233703218,1,0,0,1.2512,Gabbro_rect,4,1.251,0,15,0,15,0,1,,,,,,,,,,,,,
6238dfab577ecd4adb97a917,SCN,2024-06-12_12h39.26.781,LearnStrategy,2023.2.3,Win32,30.03003003,6,2,1,,,,,,,,5,02,,,,,,,,,,,5,2.373,1,,,,,,-0.343735531,-0.384419858,1,0,0,2.3729,Obsidian_rect,0,0,0,0,1,
6238dfab577ecd4adb97a917,SCN,2024-06-12_12h39.26.781,LearnStrategy,2023.2.3,Win32,30.03003003,6,2,2,,,,,,,,5,11,,,,,,,,,,,5,4.189,1,,,,,,-0.36407767,-0.386731392,1,0,0,4.1892,Obsidian_rect,1,0,1,0,1,
6238dfab577ecd4adb97a917,SCN,2024-06-12_12h39.26.781,LearnStrategy,2023.2.3,Win32,30.03003003,6,2,3,,,,,,,,8,08,,,,,,,,,,,8,1.689,1,,,,,,0.358530088,-0.413083863,1,0,0,1.6888,Pumice_rect,2,0,2,0,1,
6238dfab577ecd4adb97a917,SCN,2024-06-12_12h39.26.781,LearnStrategy,2023.2.3,Win32,30.03003003,6,2,4,,,,,,,,8,13,,,,,,,,,,,8,1.453,1,,,,,,0.358530088,-0.413083863,1,0,0,1.4529,Pumice_rect,3,0,3,0,1,
6238dfab577ecd4adb97a917,SCN,2024-06-12_12h39.26.781,LearnStrategy,2023.2.3,Win32,30.03003003,6,2,5,,,,,,,,4,09,,,,,,,,,,,4,2.692,1,,,,,,0.342810967,-0.247572964,1,0,0,2.6918,Gabbro_rect,4,0,4,0,1,
6238dfab577ecd4adb97a917,SCN,2024-06-12_12h39.26.781,LearnStrategy,2023.2.3,Win32,30.03003003,6,2,6,,,,,,,,7,08,,,,,,,,,,,7,1.628,1,,,,,,0.050624317,-0.384419858,1,0,0,1.6282,Peridotite_rect,5,0,5,0,1,
6238dfab577ecd4adb97a917,SCN,2024-06-12_12h39.26.781,LearnStrategy,2023.2.3,Win32,30.03003003,6,2,7,,,,,,,,2,08,,,,,,,,,,,4,4.474,0,,,,,,0.351132982,-0.260517947,1,0,0,4.4739,Gabbro_rect,6,0,6,0,1,
6238dfab577ecd4adb97a917,SCN,2024-06-12_12h39.26.781,LearnStrategy,2023.2.3,Win32,30.03003003,6,2,8,,,,,,,,6,11,,,,,,,,,,,6,2.693,1,,,,,,-0.126444597,-0.396440129,1,0,0,2.6929,Pegmatite_rect,7,0,7,0,1,
6238dfab577ecd4adb97a917,SCN,2024-06-12_12h39.26.781,LearnStrategy,2023.2.3,Win32,30.03003003,6,2,9,,,,,,,,3,02,,,,,,,,,,,3,1.954,1,,,,,,0.158344948,-0.262829432,1,0,0,1.9544,Diorite_rect,8,0,8,0,1,
6238dfab577ecd4adb97a917,SCN,2024-06-12_12h39.26.781,LearnStrategy,2023.2.3,Win32,30.03003003,6,2,10,,,,,,,,2,14,,,,,,,,,,,1,4.029,0,,,,,,-0.359916761,-0.241100472,1,0,0,4.0289,Andesite_rect,9,0,9,0,1,
6238dfab577ecd4adb97a917,SCN,2024-06-12_12h39.26.781,LearnStrategy,2023.2.3,Win32,30.03003003,6,2,11,,,,,,,,4,12,,,,,,,,,,,3,2.459,0,,,,,,0.233703218,-0.257281702,1,0,0,2.4589,Diorite_rect,10,0,10,0,1,
6238dfab577ecd4adb97a917,SCN,2024-06-12_12h39.26.781,LearnStrategy,2023.2.3,Win32,30.03003003,6,2,12,,,,,,,,1,10,,,,,,,,,,,8,3.686,0,,,,,,0.4084605,-0.417244624,1,0,0,3.6861,Pumice_rect,11,0,11,0,1,
6238dfab577ecd4adb97a917,SCN,2024-06-12_12h39.26.781,LearnStrategy,2023.2.3,Win32,30.03003003,6,2,13,,,,,,,,3,08,,,,,,,,,,,7,1.626,0,,,,,,0.095469256,-0.402450315,1,0,0,1.626,Peridotite_rect,12,0,12,0,1,
6238dfab577ecd4adb97a917,SCN,2024-06-12_12h39.26.781,LearnStrategy,2023.2.3,Win32,30.03003003,6,2,14,,,,,,,,7,10,,,,,,,,,,,6,0.774,0,,,,,,-0.079287878,-0.402912621,1,0,0,0.7741,Pegmatite_rect,13,0,13,0,1,
6238dfab577ecd4adb97a917,SCN,2024-06-12_12h39.26.781,LearnStrategy,2023.2.3,Win32,30.03003003,6,2,15,,,,,,,,1,07,,,,,,,,,,,2,1.113,0,,,,,,-0.105177845,-0.247572964,1,0,0,1.1132,Basalt_rect,14,0,14,0,1,
6238dfab577ecd4adb97a917,SCN,2024-06-12_12h39.26.781,LearnStrategy,2023.2.3,Win32,30.03003003,6,2,16,,,,,,,,6,08,,,,,,,,,,,5,3.28,0,,,,,,-0.422330097,-0.416782317,1,0,0,3.2797,Obsidian_rect,15,0,15,0,1,
6238dfab577ecd4adb97a917,SCN,2024-06-12_12h39.26.781,LearnStrategy,2023.2.3,Win32,30.03003003,7,1,1,0.385806778,0.080674897,1,0,0,3.1723,Peridotite_16,7,16,4,7,3.172,0.350208073,-0.234165525,1,0,0,2.353,Gabbro_rect,4,2.353,0,0,0,0,0,1,,,,,,,,,,,,,
6238dfab577ecd4adb97a917,SCN,2024-06-12_12h39.26.781,LearnStrategy,2023.2.3,Win32,30.03003003,7,1,2,0.253120694,-0.101941896,1,0,0,1.4335,Andesite_11,1,11,3,6,1.434,-0.137540305,-0.414470784,1,0,0,1.4633,Pegmatite_rect,6,1.463,0,1,0,1,0,1,,,,,,,,,,,,,
6238dfab577ecd4adb97a917,SCN,2024-06-12_12h39.26.781,LearnStrategy,2023.2.3,Win32,30.03003003,7,1,3,-0.42602865,-0.084373696,1,0,0,1.6007,Andesite_14,1,14,3,2,1.601,-0.165742004,-0.405224254,1,0,0,2.5629,Pegmatite_rect,6,2.563,0,2,0,2,0,1,,,,,,,,,,,,,
6238dfab577ecd4adb97a917,SCN,2024-06-12_12h39.26.781,LearnStrategy,2023.2.3,Win32,30.03003003,7,1,4,-0.04368932,-0.127831863,1,0,0,1.6347,Pegmatite_07,6,07,3,4,1.635,-0.119047591,-0.412159052,1,0,0,1.1675,Pegmatite_rect,6,1.168,1,3,0,3,0,1,,,,,,,,,,,,,
6238dfab577ecd4adb97a917,SCN,2024-06-12_12h39.26.781,LearnStrategy,2023.2.3,Win32,30.03003003,7,1,5,0.092695613,-0.088996912,1,0,0,1.4641,Gabbro_14,4,14,3,5,1.464,0.419094147,-0.24942224,1,0,0,1.1917,Gabbro_rect,4,1.192,1,4,0,4,0,1,,,,,,,,,,,,,
6238dfab577ecd4adb97a917,SCN,2024-06-12_12h39.26.781,LearnStrategy,2023.2.3,Win32,30.03003003,7,1,6,-0.372861745,-0.259593186,1,0,0,2.3665,Obsidian_04,5,04,2,2,2.366,-0.328941271,-0.403375126,1,0,0,2.8056,Obsidian_rect,5,2.806,1,5,0,5,0,1,,,,,,,,,,,,,
6238dfab577ecd4adb97a917,SCN,2024-06-12_12h39.26.781,LearnStrategy,2023.2.3,Win32,30.03003003,7,1,7,-0.213823386,-0.117198364,1,0,0,2.115,Basalt_05,2,05,3,3,2.115,0.407535886,-0.230004764,1,0,0,1.4156,Gabbro_rect,4,1.416,0,6,0,6,0,1,,,,,,,,,,,,,
6238dfab577ecd4adb97a917,SCN,2024-06-12_12h39.26.781,LearnStrategy,2023.2.3,Win32,30.03003003,7,1,8,0.103791073,-0.074664958,1,0,0,1.0638,Gabbro_14,4,14,3,5,1.064,0.389967934,-0.265141163,1,0,0,2.2584,Gabbro_rect,4,2.258,1,7,0,7,0,1,,,,,,,,,,,,,
6238dfab577ecd4adb97a917,SCN,2024-06-12_12h39.26.781,LearnStrategy,2023.2.3,Win32,30.03003003,7,1,9,-0.05987055,0.057558918,1,0,0,2.2975,Obsidian_06,5,06,4,4,2.298,-0.115811345,-0.388118411,1,0,0,1.3913,Pegmatite_rect,6,1.391,0,8,0,8,0,1,,,,,,,,,,,,,
6238dfab577ecd4adb97a917,SCN,2024-06-12_12h39.26.781,LearnStrategy,2023.2.3,Win32,30.03003003,7,1,10,0.381645919,-0.068654675,1,0,0,2.7655,Pegmatite_15,6,15,3,7,2.765,-0.091770555,-0.399214069,1,0,0,1.4878,Pegmatite_rect,6,1.488,1,9,0,9,0,1,,,,,,,,,,,,,
6238dfab577ecd4adb97a917,SCN,2024-06-12_12h39.26.781,LearnStrategy,2023.2.3,Win32,30.03003003,7,1,11,0.237401771,-0.091770703,1,0,0,1.8008,Andesite_11,1,11,3,6,1.801,0.208737864,-0.254507762,1,0,0,1.2889,Diorite_rect,3,1.289,0,10,0,10,0,1,,,,,,,,,,,,,
6238dfab577ecd4adb97a917,SCN,2024-06-12_12h39.26.781,LearnStrategy,2023.2.3,Win32,30.03003003,7,1,12,-0.376560199,-0.377022654,1,0,0,4.0335,Gabbro_11,4,11,1,2,4.034,0.414470685,-0.235090287,1,0,0,2.1532,Gabbro_rect,4,2.153,1,11,0,11,0,1,,,,,,,,,,,,,
6238dfab577ecd4adb97a917,SCN,2024-06-12_12h39.26.781,LearnStrategy,2023.2.3,Win32,30.03003003,7,1,13,0.246185895,0.237864078,1,0,0,3.2679,Diorite_06,3,06,5,6,3.268,-0.334951308,-0.247110509,1,0,0,5.0893,Andesite_rect,1,5.089,0,12,0,12,0,1,,,,,,,,,,,,,
6238dfab577ecd4adb97a917,SCN,2024-06-12_12h39.26.781,LearnStrategy,2023.2.3,Win32,30.03003003,7,1,14,-0.244336421,0.129218611,1,0,0,2.4006,Pumice_05,8,05,4,3,2.401,0.406149164,-0.410772132,1,0,0,2.9622,Pumice_rect,8,2.962,1,13,0,13,0,1,,,,,,,,,,,,,
6238dfab577ecd4adb97a917,SCN,2024-06-12_12h39.26.781,LearnStrategy,2023.2.3,Win32,30.03003003,7,1,15,0.07697669,-0.103791172,1,0,0,1.3685,Gabbro_14,4,14,3,5,1.369,0.414932992,-0.25080921,1,0,0,2.0676,Gabbro_rect,4,2.068,1,14,0,14,0,1,,,,,,,,,,,,,
6238dfab577ecd4adb97a917,SCN,2024-06-12_12h39.26.781,LearnStrategy,2023.2.3,Win32,30.03003003,7,1,16,0.226306113,-0.073277989,1,0,0,1.9323,Andesite_11,1,11,3,6,1.932,-0.363153007,-0.234165525,1,0,0,3.6904,Andesite_rect,1,3.69,1,15,0,15,0,1,,,,,,,,,,,,,
6238dfab577ecd4adb97a917,SCN,2024-06-12_12h39.26.781,LearnStrategy,2023.2.3,Win32,30.03003003,7,2,1,,,,,,,,6,10,,,,,,,,,,,6,2.919,1,,,,,,-0.156957781,-0.393203883,1,0,0,2.9191,Pegmatite_rect,0,0,0,0,1,
6238dfab577ecd4adb97a917,SCN,2024-06-12_12h39.26.781,LearnStrategy,2023.2.3,Win32,30.03003003,7,2,2,,,,,,,,2,09,,,,,,,,,,,4,4.002,0,,,,,,0.389967934,-0.268839716,1,0,0,4.0016,Gabbro_rect,1,0,1,0,1,
6238dfab577ecd4adb97a917,SCN,2024-06-12_12h39.26.781,LearnStrategy,2023.2.3,Win32,30.03003003,7,2,3,,,,,,,,5,08,,,,,,,,,,,5,3.482,1,,,,,,-0.396440129,-0.396440129,1,0,0,3.4816,Obsidian_rect,2,0,2,0,1,
6238dfab577ecd4adb97a917,SCN,2024-06-12_12h39.26.781,LearnStrategy,2023.2.3,Win32,30.03003003,7,2,4,,,,,,,,4,13,,,,,,,,,,,1,2.515,0,,,,,,-0.394590705,-0.246185994,1,0,0,2.5148,Andesite_rect,3,0,3,0,1,
6238dfab577ecd4adb97a917,SCN,2024-06-12_12h39.26.781,LearnStrategy,2023.2.3,Win32,30.03003003,7,2,5,,,,,,,,6,11,,,,,,,,,,,6,3.057,1,,,,,,-0.101017085,-0.413546071,1,0,0,3.0569,Pegmatite_rect,4,0,4,0,1,
6238dfab577ecd4adb97a917,SCN,2024-06-12_12h39.26.781,LearnStrategy,2023.2.3,Win32,30.03003003,7,2,6,,,,,,,,7,12,,,,,,,,,,,7,2.092,1,,,,,,0.084373598,-0.402450315,1,0,0,2.0916,Peridotite_rect,5,0,5,0,1,
6238dfab577ecd4adb97a917,SCN,2024-06-12_12h39.26.781,LearnStrategy,2023.2.3,Win32,30.03003003,7,2,7,,,,,,,,3,12,,,,,,,,,,,3,1.636,1,,,,,,0.094544642,-0.24942224,1,0,0,1.6356,Diorite_rect,6,0,6,0,1,
6238dfab577ecd4adb97a917,SCN,2024-06-12_12h39.26.781,LearnStrategy,2023.2.3,Win32,30.03003003,7,2,8,,,,,,,,1,10,,,,,,,,,,,8,1.517,0,,,,,,0.444984115,-0.403375126,1,0,0,1.517,Pumice_rect,7,0,7,0,1,
6238dfab577ecd4adb97a917,SCN,2024-06-12_12h39.26.781,LearnStrategy,2023.2.3,Win32,30.03003003,7,2,9,,,,,,,,7,14,,,,,,,,,,,1,2.453,0,,,,,,-0.369163192,-0.242024986,1,0,0,2.4526,Andesite_rect,8,0,8,0,1,
6238dfab577ecd4adb97a917,SCN,2024-06-12_12h39.26.781,LearnStrategy,2023.2.3,Win32,30.03003003,7,2,10,,,,,,,,8,15,,,,,,,,,,,8,1.385,1,,,,,,0.505547878,-0.415857605,1,0,0,1.3848,Pumice_rect,9,0,9,0,1,
6238dfab577ecd4adb97a917,SCN,2024-06-12_12h39.26.781,LearnStrategy,2023.2.3,Win32,30.03003003,7,2,11,,,,,,,,5,11,,,,,,,,,,,5,1.752,1,,,,,,-0.32801651,-0.383032839,1,0,0,1.7519,Obsidian_rect,10,0,10,0,1,
6238dfab577ecd4adb97a917,SCN,2024-06-12_12h39.26.781,LearnStrategy,2023.2.3,Win32,30.03003003,7,2,12,,,,,,,,3,10,,,,,,,,,,,6,2.219,0,,,,,,-0.144012797,-0.401063394,1,0,0,2.219,Pegmatite_rect,11,0,11,0,1,
6238dfab577ecd4adb97a917,SCN,2024-06-12_12h39.26.781,LearnStrategy,2023.2.3,Win32,30.03003003,7,2,13,,,,,,,,4,15,,,,,,,,,,,7,1.308,0,,,,,,0.131530564,-0.38395765,1,0,0,1.3082,Peridotite_rect,12,0,12,0,1,
6238dfab577ecd4adb97a917,SCN,2024-06-12_12h39.26.781,LearnStrategy,2023.2.3,Win32,30.03003003,7,2,14,,,,,,,,1,01,,,,,,,,,,,1,4.219,1,,,,,,-0.353906477,-0.245723687,1,0,0,4.219,Andesite_rect,13,0,13,0,1,
6238dfab577ecd4adb97a917,SCN,2024-06-12_12h39.26.781,LearnStrategy,2023.2.3,Win32,30.03003003,7,2,15,,,,,,,,2,14,,,,,,,,,,,8,3.573,0,,,,,,0.397827148,-0.389967638,1,0,0,3.5728,Pumice_rect,14,0,14,0,1,
6238dfab577ecd4adb97a917,SCN,2024-06-12_12h39.26.781,LearnStrategy,2023.2.3,Win32,30.03003003,7,2,16,,,,,,,,8,13,,,,,,,,,,,8,3.756,1,,,,,,0.393666487,-0.398751762,1,0,0,3.7564,Pumice_rect,15,0,15,0,1,
6238dfab577ecd4adb97a917,SCN,2024-06-12_12h39.26.781,LearnStrategy,2023.2.3,Win32,30.03003003,8,1,1,0.274849802,-0.070966258,1,0,0,2.0813,Andesite_11,1,11,3,6,2.081,-0.347433985,-0.258206216,1,0,0,6.0671,Andesite_rect,1,6.067,1,0,0,0,0,1,,,,,,,,,,,,,
6238dfab577ecd4adb97a917,SCN,2024-06-12_12h39.26.781,LearnStrategy,2023.2.3,Win32,30.03003003,8,1,2,-0.103328569,0.07605178,1,0,0,2.5678,Obsidian_06,5,06,4,4,2.568,-0.354831239,-0.395515516,1,0,0,2.1913,Obsidian_rect,5,2.191,1,1,0,1,0,1,,,,,,,,,,,,,
6238dfab577ecd4adb97a917,SCN,2024-06-12_12h39.26.781,LearnStrategy,2023.2.3,Win32,30.03003003,8,1,3,-0.523116028,-0.412621359,1,0,0,3.0661,Gabbro_05,4,05,1,1,3.066,-0.125520083,-0.261904917,1,0,0,1.7178,Basalt_rect,2,1.718,0,2,0,2,0,1,,,,,,,,,,,,,
6238dfab577ecd4adb97a917,SCN,2024-06-12_12h39.26.781,LearnStrategy,2023.2.3,Win32,30.03003003,8,1,4,0.108414239,-0.11488688,1,0,0,1.0987,Gabbro_14,4,14,3,5,1.099,0.445908729,-0.24017571,1,0,0,2.4844,Gabbro_rect,4,2.484,1,3,0,3,0,1,,,,,,,,,,,,,
6238dfab577ecd4adb97a917,SCN,2024-06-12_12h39.26.781,LearnStrategy,2023.2.3,Win32,30.03003003,8,1,5,0.426491253,-0.119509947,1,0,0,2.3321,Pegmatite_15,6,15,3,7,2.332,-0.19070721,-0.385806778,1,0,0,2.5051,Pegmatite_rect,6,2.505,1,4,0,4,0,1,,,,,,,,,,,,,
6238dfab577ecd4adb97a917,SCN,2024-06-12_12h39.26.781,LearnStrategy,2023.2.3,Win32,30.03003003,8,1,6,-0.424179373,0.262367076,1,0,0,3.5973,Pegmatite_09,6,09,5,2,3.597,-0.141239006,-0.378409673,1,0,0,1.7484,Pegmatite_rect,6,1.748,1,5,0,5,0,1,,,,,,,,,,,,,
6238dfab577ecd4adb97a917,SCN,2024-06-12_12h39.26.781,LearnStrategy,2023.2.3,Win32,30.03003003,8,1,7,0.105177994,0.068192318,1,0,0,1.9649,Pumice_10,8,10,4,5,1.965,0.446370838,-0.40013888,1,0,0,1.6181,Pumice_rect,8,1.618,1,6,0,6,0,1,,,,,,,,,,,,,
6238dfab577ecd4adb97a917,SCN,2024-06-12_12h39.26.781,LearnStrategy,2023.2.3,Win32,30.03003003,8,1,8,0.389043024,0.066805349,1,0,0,2.0646,Peridotite_16,7,16,4,7,2.065,-0.36407767,-0.235090287,1,0,0,3.2185,Andesite_rect,1,3.218,0,7,0,7,0,1,,,,,,,,,,,,,
6238dfab577ecd4adb97a917,SCN,2024-06-12_12h39.26.781,LearnStrategy,2023.2.3,Win32,30.03003003,8,1,9,0.551780232,-0.091770703,1,0,0,2.0319,Basalt_06,2,06,3,8,2.032,-0.092695316,-0.261904917,1,0,0,2.3251,Basalt_rect,2,2.325,1,8,0,8,0,1,,,,,,,,,,,,,
6238dfab577ecd4adb97a917,SCN,2024-06-12_12h39.26.781,LearnStrategy,2023.2.3,Win32,30.03003003,8,1,10,0.411234439,-0.419556355,1,0,0,2.231,Obsidian_14,5,14,1,7,2.231,-0.354368932,-0.397364842,1,0,0,2.0563,Obsidian_rect,5,2.056,1,9,0,9,0,1,,,,,,,,,,,,,
6238dfab577ecd4adb97a917,SCN,2024-06-12_12h39.26.781,LearnStrategy,2023.2.3,Win32,30.03003003,8,1,11,0.108876843,-0.425566343,1,0,0,4.3685,Obsidian_05,5,05,1,5,4.368,-0.058483531,-0.406148867,1,0,0,4.7827,Pegmatite_rect,6,4.783,0,10,0,10,0,1,,,,,,,,,,,,,
6238dfab577ecd4adb97a917,SCN,2024-06-12_12h39.26.781,LearnStrategy,2023.2.3,Win32,30.03003003,8,1,12,0.072353227,-0.074664958,1,0,0,1.6325,Gabbro_14,4,14,3,5,1.633,0.42186779,-0.259593186,1,0,0,1.8851,Gabbro_rect,4,1.885,1,11,0,11,0,1,,,,,,,,,,,,,
6238dfab577ecd4adb97a917,SCN,2024-06-12_12h39.26.781,LearnStrategy,2023.2.3,Win32,30.03003003,8,1,13,-0.251271368,-0.105178142,1,0,0,1.6305,Basalt_05,2,05,3,3,1.63,-0.349745716,-0.397364842,1,0,0,5.591,Obsidian_rect,5,5.591,0,12,0,12,0,1,,,,,,,,,,,,,
6238dfab577ecd4adb97a917,SCN,2024-06-12_12h39.26.781,LearnStrategy,2023.2.3,Win32,30.03003003,8,1,14,0.577207892,-0.105178142,1,0,0,1.8637,Basalt_06,2,06,3,8,1.864,-0.052935554,-0.243411956,1,0,0,2.1587,Basalt_rect,2,2.159,1,13,0,13,0,1,,,,,,,,,,,,,
6238dfab577ecd4adb97a917,SCN,2024-06-12_12h39.26.781,LearnStrategy,2023.2.3,Win32,30.03003003,8,1,15,-0.423716968,-0.247110509,1,0,0,1.6978,Obsidian_04,5,04,2,2,1.698,-0.404761898,-0.403837334,1,0,0,1.5579,Obsidian_rect,5,1.558,1,14,0,14,0,1,,,,,,,,,,,,,
6238dfab577ecd4adb97a917,SCN,2024-06-12_12h39.26.781,LearnStrategy,2023.2.3,Win32,30.03003003,8,1,16,-0.072815386,-0.120896917,1,0,0,2.3332,Pegmatite_07,6,07,3,4,2.333,-0.06957914,-0.399214069,1,0,0,2.1233,Pegmatite_rect,6,2.123,1,15,0,15,0,1,,,,,,,,,,,,,
6238dfab577ecd4adb97a917,SCN,2024-06-12_12h39.26.781,LearnStrategy,2023.2.3,Win32,30.03003003,8,2,1,,,,,,,,5,12,,,,,,,,,,,5,2.486,1,,,,,,-0.364539977,-0.409847618,1,0,0,2.4858,Obsidian_rect,0,0,0,0,1,
6238dfab577ecd4adb97a917,SCN,2024-06-12_12h39.26.781,LearnStrategy,2023.2.3,Win32,30.03003003,8,2,2,,,,,,,,1,07,,,,,,,,,,,1,6.041,1,,,,,,-0.373323953,-0.24942224,1,0,0,6.0408,Andesite_rect,1,0,1,0,1,
6238dfab577ecd4adb97a917,SCN,2024-06-12_12h39.26.781,LearnStrategy,2023.2.3,Win32,30.03003003,8,2,3,,,,,,,,3,16,,,,,,,,,,,1,3.626,0,,,,,,-0.389967638,-0.228155488,1,0,0,3.6257,Andesite_rect,2,0,2,0,1,
6238dfab577ecd4adb97a917,SCN,2024-06-12_12h39.26.781,LearnStrategy,2023.2.3,Win32,30.03003003,8,2,4,,,,,,,,4,12,,,,,,,,,,,4,2.764,1,,,,,,0.378409673,-0.263291739,1,0,0,2.7635,Gabbro_rect,3,0,3,0,1,
6238dfab577ecd4adb97a917,SCN,2024-06-12_12h39.26.781,LearnStrategy,2023.2.3,Win32,30.03003003,8,2,5,,,,,,,,8,02,,,,,,,,,,,8,1.824,1,,,,,,0.397365039,-0.40707358,1,0,0,1.8238,Pumice_rect,4,0,4,0,1,
6238dfab577ecd4adb97a917,SCN,2024-06-12_12h39.26.781,LearnStrategy,2023.2.3,Win32,30.03003003,8,2,6,,,,,,,,2,12,,,,,,,,,,,8,0.877,0,,,,,,0.397365039,-0.40707358,1,0,0,0.8768,Pumice_rect,5,0,5,0,1,
6238dfab577ecd4adb97a917,SCN,2024-06-12_12h39.26.781,LearnStrategy,2023.2.3,Win32,30.03003003,8,2,7,,,,,,,,4,08,,,,,,,,,,,4,1.98,1,,,,,,0.363615363,-0.228155488,1,0,0,1.9797,Gabbro_rect,6,0,6,0,1,
6238dfab577ecd4adb97a917,SCN,2024-06-12_12h39.26.781,LearnStrategy,2023.2.3,Win32,30.03003003,8,2,8,,,,,,,,1,16,,,,,,,,,,,1,2.396,1,,,,,,-0.406148867,-0.232316249,1,0,0,2.3962,Andesite_rect,7,0,7,0,1,
6238dfab577ecd4adb97a917,SCN,2024-06-12_12h39.26.781,LearnStrategy,2023.2.3,Win32,30.03003003,8,2,9,,,,,,,,5,02,,,,,,,,,,,5,1.636,1,,,,,,-0.363153007,-0.387656104,1,0,0,1.6356,Obsidian_rect,8,0,8,0,1,
6238dfab577ecd4adb97a917,SCN,2024-06-12_12h39.26.781,LearnStrategy,2023.2.3,Win32,30.03003003,8,2,10,,,,,,,,3,07,,,,,,,,,,,6,1.518,0,,,,,,-0.05478488,-0.389967638,1,0,0,1.518,Pegmatite_rect,9,0,9,0,1,
6238dfab577ecd4adb97a917,SCN,2024-06-12_12h39.26.781,LearnStrategy,2023.2.3,Win32,30.03003003,8,2,11,,,,,,,,6,13,,,,,,,,,,,6,0.787,1,,,,,,-0.05478488,-0.389967638,1,0,0,0.7865,Pegmatite_rect,10,0,10,0,1,
6238dfab577ecd4adb97a917,SCN,2024-06-12_12h39.26.781,LearnStrategy,2023.2.3,Win32,30.03003003,8,2,12,,,,,,,,8,09,,,,,,,,,,,8,2.153,1,,,,,,0.385344471,-0.397364842,1,0,0,2.153,Pumice_rect,11,0,11,0,1,
6238dfab577ecd4adb97a917,SCN,2024-06-12_12h39.26.781,LearnStrategy,2023.2.3,Win32,30.03003003,8,2,13,,,,,,,,2,08,,,,,,,,,,,4,1.753,0,,,,,,0.370550458,-0.259593186,1,0,0,1.7525,Gabbro_rect,12,0,12,0,1,
6238dfab577ecd4adb97a917,SCN,2024-06-12_12h39.26.781,LearnStrategy,2023.2.3,Win32,30.03003003,8,2,14,,,,,,,,7,10,,,,,,,,,,,6,1.559,0,,,,,,-0.147249043,-0.389967638,1,0,0,1.5588,Pegmatite_rect,13,0,13,0,1,
6238dfab577ecd4adb97a917,SCN,2024-06-12_12h39.26.781,LearnStrategy,2023.2.3,Win32,30.03003003,8,2,15,,,,,,,,7,13,,,,,,,,,,,7,1.753,1,,,,,,0.095469256,-0.392741577,1,0,0,1.7533,Peridotite_rect,14,0,14,0,1,
6238dfab577ecd4adb97a917,SCN,2024-06-12_12h39.26.781,LearnStrategy,2023.2.3,Win32,30.03003003,8,2,16,,,,,,,,6,03,,,,,,,,,,,6,1.341,1,,,,,,-0.12043456,-0.386731392,1,0,0,1.3414,Pegmatite_rect,15,0,15,0,1,
6238dfab577ecd4adb97a917,SCN,2024-06-12_12h39.26.781,LearnStrategy,2023.2.3,Win32,30.03003003,9,1,1,-0.08576037,-0.103791172,1,0,0,1.6648,Pegmatite_07,6,07,3,4,1.665,-0.145862073,-0.404762046,1,0,0,1.2254,Pegmatite_rect,6,1.225,1,0,0,0,0,1,,,,,,,,,,,,,
6238dfab577ecd4adb97a917,SCN,2024-06-12_12h39.26.781,LearnStrategy,2023.2.3,Win32,30.03003003,9,1,2,0.080675045,-0.11488688,1,0,0,1.3986,Gabbro_14,4,14,3,5,1.399,0.31645889,-0.256819247,1,0,0,2.6517,Gabbro_rect,4,2.652,1,1,0,1,0,1,,,,,,,,,,,,,
6238dfab577ecd4adb97a917,SCN,2024-06-12_12h39.26.781,LearnStrategy,2023.2.3,Win32,30.03003003,9,1,3,0.259130879,0.234627832,1,0,0,3.7983,Diorite_06,3,06,5,6,3.798,-0.375173229,-0.244336718,1,0,0,2.3819,Andesite_rect,1,2.382,0,2,0,2,0,1,,,,,,,,,,,,,
6238dfab577ecd4adb97a917,SCN,2024-06-12_12h39.26.781,LearnStrategy,2023.2.3,Win32,30.03003003,9,1,4,0.072815534,0.446833101,1,0,0,2.7648,Andesite_05,1,05,6,5,2.765,0.184234915,-0.25080921,1,0,0,3.0849,Diorite_rect,3,3.085,0,3,0,3,0,1,,,,,,,,,,,,,
6238dfab577ecd4adb97a917,SCN,2024-06-12_12h39.26.781,LearnStrategy,2023.2.3,Win32,30.03003003,9,1,5,0.387656301,0.080674897,1,0,0,2.0323,Peridotite_16,7,16,4,7,2.032,-0.159269512,-0.40707358,1,0,0,3.0181,Pegmatite_rect,6,3.018,0,4,0,4,0,1,,,,,,,,,,,,,
6238dfab577ecd4adb97a917,SCN,2024-06-12_12h39.26.781,LearnStrategy,2023.2.3,Win32,30.03003003,9,1,6,-0.505085522,0.076514087,1,0,0,2.1648,Basalt_11,2,11,4,1,2.165,0.350208073,-0.392741577,1,0,0,2.3197,Pumice_rect,8,2.32,0,5,0,5,0,1,,,,,,,,,,,,,
6238dfab577ecd4adb97a917,SCN,2024-06-12_12h39.26.781,LearnStrategy,2023.2.3,Win32,30.03003003,9,1,7,0.363615363,0.237864078,1,0,0,2.9324,Pegmatite_12,6,12,5,7,2.932,-0.131067813,-0.404762046,1,0,0,2.4246,Pegmatite_rect,6,2.425,1,6,0,6,0,1,,,,,,,,,,,,,
6238dfab577ecd4adb97a917,SCN,2024-06-12_12h39.26.781,LearnStrategy,2023.2.3,Win32,30.03003003,9,1,8,-0.228155192,0.219833497,1,0,0,3.7639,Peridotite_04,7,04,5,3,3.764,0.159731868,-0.399214069,1,0,0,1.5821,Peridotite_rect,7,1.582,1,7,0,7,0,1,,,,,,,,,,,,,
6238dfab577ecd4adb97a917,SCN,2024-06-12_12h39.26.781,LearnStrategy,2023.2.3,Win32,30.03003003,9,1,9,0.368238826,-0.101941896,1,0,0,4.0806,Pegmatite_15,6,15,3,7,4.081,-0.095006801,-0.38534457,1,0,0,1.1728,Pegmatite_rect,6,1.173,1,8,0,8,0,1,,,,,,,,,,,,,
6238dfab577ecd4adb97a917,SCN,2024-06-12_12h39.26.781,LearnStrategy,2023.2.3,Win32,30.03003003,9,1,10,-0.416782219,-0.267452746,1,0,0,2.181,Obsidian_04,5,04,2,2,2.181,-0.398751713,-0.411234538,1,0,0,1.5217,Obsidian_rect,5,1.522,1,9,0,9,0,1,,,,,,,,,,,,,
6238dfab577ecd4adb97a917,SCN,2024-06-12_12h39.26.781,LearnStrategy,2023.2.3,Win32,30.03003003,9,1,11,0.094082335,-0.443596997,1,0,0,2.0151,Obsidian_05,5,05,1,5,2.015,-0.064493618,-0.398751762,1,0,0,2.3202,Pegmatite_rect,6,2.32,0,10,0,10,0,1,,,,,,,,,,,,,
6238dfab577ecd4adb97a917,SCN,2024-06-12_12h39.26.781,LearnStrategy,2023.2.3,Win32,30.03003003,9,1,12,0.073278137,-0.08807215,1,0,0,1.4,Gabbro_14,4,14,3,5,1.4,0.430189608,-0.270226685,1,0,0,1.226,Gabbro_rect,4,1.226,1,11,0,11,0,1,,,,,,,,,,,,,
6238dfab577ecd4adb97a917,SCN,2024-06-12_12h39.26.781,LearnStrategy,2023.2.3,Win32,30.03003003,9,1,13,0.055247483,0.093619905,1,0,0,1.2686,Pumice_10,8,10,4,5,1.269,0.408922807,-0.410772132,1,0,0,1.301,Pumice_rect,8,1.301,1,12,0,12,0,1,,,,,,,,,,,,,
6238dfab577ecd4adb97a917,SCN,2024-06-12_12h39.26.781,LearnStrategy,2023.2.3,Win32,30.03003003,9,1,14,-0.246648153,-0.42048087,1,0,0,1.3664,Pegmatite_06,6,06,1,3,1.366,-0.15973172,-0.387656104,1,0,0,1.5845,Pegmatite_rect,6,1.584,1,13,0,13,0,1,,,,,,,,,,,,,
6238dfab577ecd4adb97a917,SCN,2024-06-12_12h39.26.781,LearnStrategy,2023.2.3,Win32,30.03003003,9,1,15,0.063569399,-0.105178142,1,0,0,1.2643,Gabbro_14,4,14,3,5,1.264,0.43804902,-0.24942224,1,0,0,5.985,Gabbro_rect,4,5.985,1,14,0,14,0,1,,,,,,,,,,,,,
6238dfab577ecd4adb97a917,SCN,2024-06-12_12h39.26.781,LearnStrategy,2023.2.3,Win32,30.03003003,9,1,16,-0.05987055,0.05987055,1,0,0,2.7662,Obsidian_06,5,06,4,4,2.766,-0.387656005,-0.392741577,1,0,0,1.9899,Obsidian_rect,5,1.99,1,15,0,15,0,1,,,,,,,,,,,,,
6238dfab577ecd4adb97a917,SCN,2024-06-12_12h39.26.781,LearnStrategy,2023.2.3,Win32,30.03003003,9,2,1,,,,,,,,5,07,,,,,,,,,,,5,1.609,1,,,,,,-0.416319912,-0.42186779,1,0,0,1.6089,Obsidian_rect,0,0,0,0,1,
6238dfab577ecd4adb97a917,SCN,2024-06-12_12h39.26.781,LearnStrategy,2023.2.3,Win32,30.03003003,9,2,2,,,,,,,,1,03,,,,,,,,,,,1,2.774,1,,,,,,-0.394590705,-0.236477256,1,0,0,2.7741,Andesite_rect,1,0,1,0,1,
6238dfab577ecd4adb97a917,SCN,2024-06-12_12h39.26.781,LearnStrategy,2023.2.3,Win32,30.03003003,9,2,3,,,,,,,,1,06,,,,,,,,,,,3,3.558,0,,,,,,0.174526178,-0.248497478,1,0,0,3.5579,Diorite_rect,2,0,2,0,1,
6238dfab577ecd4adb97a917,SCN,2024-06-12_12h39.26.781,LearnStrategy,2023.2.3,Win32,30.03003003,9,2,4,,,,,,,,8,16,,,,,,,,,,,8,1.501,1,,,,,,0.367314212,-0.402450315,1,0,0,1.5005,Pumice_rect,3,0,3,0,1,
6238dfab577ecd4adb97a917,SCN,2024-06-12_12h39.26.781,LearnStrategy,2023.2.3,Win32,30.03003003,9,2,5,,,,,,,,8,08,,,,,,,,,,,8,0.966,1,,,,,,0.355293842,-0.395515516,1,0,0,0.9658,Pumice_rect,4,0,4,0,1,
6238dfab577ecd4adb97a917,SCN,2024-06-12_12h39.26.781,LearnStrategy,2023.2.3,Win32,30.03003003,9,2,6,,,,,,,,4,16,,,,,,,,,,,4,1.631,1,,,,,,0.350208073,-0.238788741,1,0,0,1.6309,Gabbro_rect,5,0,5,0,1,
6238dfab577ecd4adb97a917,SCN,2024-06-12_12h39.26.781,LearnStrategy,2023.2.3,Win32,30.03003003,9,2,7,,,,,,,,6,16,,,,,,,,,,,6,1.605,1,,,,,,-0.147249043,-0.389043024,1,0,0,1.6049,Pegmatite_rect,6,0,6,0,1,
6238dfab577ecd4adb97a917,SCN,2024-06-12_12h39.26.781,LearnStrategy,2023.2.3,Win32,30.03003003,9,2,8,,,,,,,,3,08,,,,,,,,,,,7,1.692,0,,,,,,0.114886731,-0.399676375,1,0,0,1.6917,Peridotite_rect,7,0,7,0,1,
6238dfab577ecd4adb97a917,SCN,2024-06-12_12h39.26.781,LearnStrategy,2023.2.3,Win32,30.03003003,9,2,9,,,,,,,,2,01,,,,,,,,,,,2,2.193,1,,,,,,-0.149560774,-0.234165525,1,0,0,2.1934,Basalt_rect,8,0,8,0,1,
6238dfab577ecd4adb97a917,SCN,2024-06-12_12h39.26.781,LearnStrategy,2023.2.3,Win32,30.03003003,9,2,10,,,,,,,,7,08,,,,,,,,,,,7,3.27,1,,,,,,0.130605654,-0.401063394,1,0,0,3.2697,Peridotite_rect,9,0,9,0,1,
6238dfab577ecd4adb97a917,SCN,2024-06-12_12h39.26.781,LearnStrategy,2023.2.3,Win32,30.03003003,9,2,11,,,,,,,,5,09,,,,,,,,,,,5,1.532,1,,,,,,-0.433425706,-0.394128596,1,0,0,1.5315,Obsidian_rect,10,0,10,0,1,
6238dfab577ecd4adb97a917,SCN,2024-06-12_12h39.26.781,LearnStrategy,2023.2.3,Win32,30.03003003,9,2,12,,,,,,,,4,09,,,,,,,,,,,2,5.495,0,,,,,,-0.172676704,-0.247110509,1,0,0,5.4952,Basalt_rect,11,0,11,0,1,
6238dfab577ecd4adb97a917,SCN,2024-06-12_12h39.26.781,LearnStrategy,2023.2.3,Win32,30.03003003,9,2,13,,,,,,,,7,15,,,,,,,,,,,7,1.757,1,,,,,,0.130605654,-0.389043024,1,0,0,1.7565,Peridotite_rect,12,0,12,0,1,
6238dfab577ecd4adb97a917,SCN,2024-06-12_12h39.26.781,LearnStrategy,2023.2.3,Win32,30.03003003,9,2,14,,,,,,,,3,02,,,,,,,,,,,6,0.885,0,,,,,,-0.093619831,-0.405224254,1,0,0,0.8851,Pegmatite_rect,13,0,13,0,1,
6238dfab577ecd4adb97a917,SCN,2024-06-12_12h39.26.781,LearnStrategy,2023.2.3,Win32,30.03003003,9,2,15,,,,,,,,6,08,,,,,,,,,,,6,2.287,1,,,,,,-0.095469108,-0.409847618,1,0,0,2.2866,Pegmatite_rect,14,0,14,0,1,
6238dfab577ecd4adb97a917,SCN,2024-06-12_12h39.26.781,LearnStrategy,2023.2.3,Win32,30.03003003,9,2,16,,,,,,,,2,04,,,,,,,,,,,4,1.785,0,,,,,,0.427877976,-0.267914954,1,0,0,1.7855,Gabbro_rect,15,0,15,0,1,
6238dfab577ecd4adb97a917,SCN,2024-06-12_12h39.26.781,LearnStrategy,2023.2.3,Win32,30.03003003,,,,,,,,,,,,,,,,,,,,,,,,,,,,,,,,,,,,,,,,,,,0
6238dfab577ecd4adb97a917,SCN,2024-06-12_12h39.26.781,LearnStrategy,2023.2.3,Win32,30.03003003,,,,,,,,,,,,,,,,,,,,,,,,,,,,,,,,,,,,,,,,,,,
6238dfab577ecd4adb97a917,SCN,2024-06-12_12h39.26.781,LearnStrategy,2023.2.3,Win32,30.03003003,,,,,,,,,,,4,05,1,1,,,,,,,,,,,,,,,,,,,,,,,,,,,,,
6238dfab577ecd4adb97a917,SCN,2024-06-12_12h39.26.781,LearnStrategy,2023.2.3,Win32,30.03003003,,,,,,,,,,,4,11,1,2,,,,,,,,,,,,,,,,,,,,,,,,,,,,,
6238dfab577ecd4adb97a917,SCN,2024-06-12_12h39.26.781,LearnStrategy,2023.2.3,Win32,30.03003003,,,,,,,,,,,6,06,1,3,,,,,,,,,,,,,,,,,,,,,,,,,,,,,
6238dfab577ecd4adb97a917,SCN,2024-06-12_12h39.26.781,LearnStrategy,2023.2.3,Win32,30.03003003,,,,,,,,,,,8,03,1,4,,,,,,,,,,,,,,,,,,,,,,,,,,,,,
6238dfab577ecd4adb97a917,SCN,2024-06-12_12h39.26.781,LearnStrategy,2023.2.3,Win32,30.03003003,,,,,,,,,,,5,05,1,5,,,,,,,,,,,,,,,,,,,,,,,,,,,,,
6238dfab577ecd4adb97a917,SCN,2024-06-12_12h39.26.781,LearnStrategy,2023.2.3,Win32,30.03003003,,,,,,,,,,,7,02,1,6,,,,,,,,,,,,,,,,,,,,,,,,,,,,,
6238dfab577ecd4adb97a917,SCN,2024-06-12_12h39.26.781,LearnStrategy,2023.2.3,Win32,30.03003003,,,,,,,,,,,5,14,1,7,,,,,,,,,,,,,,,,,,,,,,,,,,,,,
6238dfab577ecd4adb97a917,SCN,2024-06-12_12h39.26.781,LearnStrategy,2023.2.3,Win32,30.03003003,,,,,,,,,,,1,09,1,8,,,,,,,,,,,,,,,,,,,,,,,,,,,,,
6238dfab577ecd4adb97a917,SCN,2024-06-12_12h39.26.781,LearnStrategy,2023.2.3,Win32,30.03003003,,,,,,,,,,,3,14,2,1,,,,,,,,,,,,,,,,,,,,,,,,,,,,,
6238dfab577ecd4adb97a917,SCN,2024-06-12_12h39.26.781,LearnStrategy,2023.2.3,Win32,30.03003003,,,,,,,,,,,5,04,2,2,,,,,,,,,,,,,,,,,,,,,,,,,,,,,
6238dfab577ecd4adb97a917,SCN,2024-06-12_12h39.26.781,LearnStrategy,2023.2.3,Win32,30.03003003,,,,,,,,,,,5,10,2,3,,,,,,,,,,,,,,,,,,,,,,,,,,,,,
6238dfab577ecd4adb97a917,SCN,2024-06-12_12h39.26.781,LearnStrategy,2023.2.3,Win32,30.03003003,,,,,,,,,,,4,03,2,4,,,,,,,,,,,,,,,,,,,,,,,,,,,,,
6238dfab577ecd4adb97a917,SCN,2024-06-12_12h39.26.781,LearnStrategy,2023.2.3,Win32,30.03003003,,,,,,,,,,,2,16,2,5,,,,,,,,,,,,,,,,,,,,,,,,,,,,,
6238dfab577ecd4adb97a917,SCN,2024-06-12_12h39.26.781,LearnStrategy,2023.2.3,Win32,30.03003003,,,,,,,,,,,7,05,2,6,,,,,,,,,,,,,,,,,,,,,,,,,,,,,
6238dfab577ecd4adb97a917,SCN,2024-06-12_12h39.26.781,LearnStrategy,2023.2.3,Win32,30.03003003,,,,,,,,,,,2,10,2,7,,,,,,,,,,,,,,,,,,,,,,,,,,,,,
6238dfab577ecd4adb97a917,SCN,2024-06-12_12h39.26.781,LearnStrategy,2023.2.3,Win32,30.03003003,,,,,,,,,,,1,02,2,8,,,,,,,,,,,,,,,,,,,,,,,,,,,,,
6238dfab577ecd4adb97a917,SCN,2024-06-12_12h39.26.781,LearnStrategy,2023.2.3,Win32,30.03003003,,,,,,,,,,,3,13,3,1,,,,,,,,,,,,,,,,,,,,,,,,,,,,,
6238dfab577ecd4adb97a917,SCN,2024-06-12_12h39.26.781,LearnStrategy,2023.2.3,Win32,30.03003003,,,,,,,,,,,1,14,3,2,,,,,,,,,,,,,,,,,,,,,,,,,,,,,
6238dfab577ecd4adb97a917,SCN,2024-06-12_12h39.26.781,LearnStrategy,2023.2.3,Win32,30.03003003,,,,,,,,,,,2,05,3,3,,,,,,,,,,,,,,,,,,,,,,,,,,,,,
6238dfab577ecd4adb97a917,SCN,2024-06-12_12h39.26.781,LearnStrategy,2023.2.3,Win32,30.03003003,,,,,,,,,,,6,07,3,4,,,,,,,,,,,,,,,,,,,,,,,,,,,,,
6238dfab577ecd4adb97a917,SCN,2024-06-12_12h39.26.781,LearnStrategy,2023.2.3,Win32,30.03003003,,,,,,,,,,,4,14,3,5,,,,,,,,,,,,,,,,,,,,,,,,,,,,,
6238dfab577ecd4adb97a917,SCN,2024-06-12_12h39.26.781,LearnStrategy,2023.2.3,Win32,30.03003003,,,,,,,,,,,1,11,3,6,,,,,,,,,,,,,,,,,,,,,,,,,,,,,
6238dfab577ecd4adb97a917,SCN,2024-06-12_12h39.26.781,LearnStrategy,2023.2.3,Win32,30.03003003,,,,,,,,,,,6,15,3,7,,,,,,,,,,,,,,,,,,,,,,,,,,,,,
6238dfab577ecd4adb97a917,SCN,2024-06-12_12h39.26.781,LearnStrategy,2023.2.3,Win32,30.03003003,,,,,,,,,,,2,06,3,8,,,,,,,,,,,,,,,,,,,,,,,,,,,,,
6238dfab577ecd4adb97a917,SCN,2024-06-12_12h39.26.781,LearnStrategy,2023.2.3,Win32,30.03003003,,,,,,,,,,,2,11,4,1,,,,,,,,,,,,,,,,,,,,,,,,,,,,,
6238dfab577ecd4adb97a917,SCN,2024-06-12_12h39.26.781,LearnStrategy,2023.2.3,Win32,30.03003003,,,,,,,,,,,3,15,4,2,,,,,,,,,,,,,,,,,,,,,,,,,,,,,
6238dfab577ecd4adb97a917,SCN,2024-06-12_12h39.26.781,LearnStrategy,2023.2.3,Win32,30.03003003,,,,,,,,,,,8,05,4,3,,,,,,,,,,,,,,,,,,,,,,,,,,,,,
6238dfab577ecd4adb97a917,SCN,2024-06-12_12h39.26.781,LearnStrategy,2023.2.3,Win32,30.03003003,,,,,,,,,,,5,06,4,4,,,,,,,,,,,,,,,,,,,,,,,,,,,,,
6238dfab577ecd4adb97a917,SCN,2024-06-12_12h39.26.781,LearnStrategy,2023.2.3,Win32,30.03003003,,,,,,,,,,,8,10,4,5,,,,,,,,,,,,,,,,,,,,,,,,,,,,,
6238dfab577ecd4adb97a917,SCN,2024-06-12_12h39.26.781,LearnStrategy,2023.2.3,Win32,30.03003003,,,,,,,,,,,8,04,4,6,,,,,,,,,,,,,,,,,,,,,,,,,,,,,
6238dfab577ecd4adb97a917,SCN,2024-06-12_12h39.26.781,LearnStrategy,2023.2.3,Win32,30.03003003,,,,,,,,,,,7,16,4,7,,,,,,,,,,,,,,,,,,,,,,,,,,,,,
6238dfab577ecd4adb97a917,SCN,2024-06-12_12h39.26.781,LearnStrategy,2023.2.3,Win32,30.03003003,,,,,,,,,,,1,04,4,8,,,,,,,,,,,,,,,,,,,,,,,,,,,,,
6238dfab577ecd4adb97a917,SCN,2024-06-12_12h39.26.781,LearnStrategy,2023.2.3,Win32,30.03003003,,,,,,,,,,,3,11,5,1,,,,,,,,,,,,,,,,,,,,,,,,,,,,,
6238dfab577ecd4adb97a917,SCN,2024-06-12_12h39.26.781,LearnStrategy,2023.2.3,Win32,30.03003003,,,,,,,,,,,6,09,5,2,,,,,,,,,,,,,,,,,,,,,,,,,,,,,
6238dfab577ecd4adb97a917,SCN,2024-06-12_12h39.26.781,LearnStrategy,2023.2.3,Win32,30.03003003,,,,,,,,,,,7,04,5,3,,,,,,,,,,,,,,,,,,,,,,,,,,,,,
6238dfab577ecd4adb97a917,SCN,2024-06-12_12h39.26.781,LearnStrategy,2023.2.3,Win32,30.03003003,,,,,,,,,,,2,02,5,4,,,,,,,,,,,,,,,,,,,,,,,,,,,,,
6238dfab577ecd4adb97a917,SCN,2024-06-12_12h39.26.781,LearnStrategy,2023.2.3,Win32,30.03003003,,,,,,,,,,,4,10,5,5,,,,,,,,,,,,,,,,,,,,,,,,,,,,,
6238dfab577ecd4adb97a917,SCN,2024-06-12_12h39.26.781,LearnStrategy,2023.2.3,Win32,30.03003003,,,,,,,,,,,3,06,5,6,,,,,,,,,,,,,,,,,,,,,,,,,,,,,
6238dfab577ecd4adb97a917,SCN,2024-06-12_12h39.26.781,LearnStrategy,2023.2.3,Win32,30.03003003,,,,,,,,,,,6,12,5,7,,,,,,,,,,,,,,,,,,,,,,,,,,,,,
6238dfab577ecd4adb97a917,SCN,2024-06-12_12h39.26.781,LearnStrategy,2023.2.3,Win32,30.03003003,,,,,,,,,,,6,05,5,8,,,,,,,,,,,,,,,,,,,,,,,,,,,,,
6238dfab577ecd4adb97a917,SCN,2024-06-12_12h39.26.781,LearnStrategy,2023.2.3,Win32,30.03003003,,,,,,,,,,,8,06,6,1,,,,,,,,,,,,,,,,,,,,,,,,,,,,,
6238dfab577ecd4adb97a917,SCN,2024-06-12_12h39.26.781,LearnStrategy,2023.2.3,Win32,30.03003003,,,,,,,,,,,5,16,6,2,,,,,,,,,,,,,,,,,,,,,,,,,,,,,
6238dfab577ecd4adb97a917,SCN,2024-06-12_12h39.26.781,LearnStrategy,2023.2.3,Win32,30.03003003,,,,,,,,,,,4,01,6,3,,,,,,,,,,,,,,,,,,,,,,,,,,,,,
6238dfab577ecd4adb97a917,SCN,2024-06-12_12h39.26.781,LearnStrategy,2023.2.3,Win32,30.03003003,,,,,,,,,,,3,09,6,4,,,,,,,,,,,,,,,,,,,,,,,,,,,,,
6238dfab577ecd4adb97a917,SCN,2024-06-12_12h39.26.781,LearnStrategy,2023.2.3,Win32,30.03003003,,,,,,,,,,,1,05,6,5,,,,,,,,,,,,,,,,,,,,,,,,,,,,,
6238dfab577ecd4adb97a917,SCN,2024-06-12_12h39.26.781,LearnStrategy,2023.2.3,Win32,30.03003003,,,,,,,,,,,8,14,6,6,,,,,,,,,,,,,,,,,,,,,,,,,,,,,
6238dfab577ecd4adb97a917,SCN,2024-06-12_12h39.26.781,LearnStrategy,2023.2.3,Win32,30.03003003,,,,,,,,,,,7,06,6,7,,,,,,,,,,,,,,,,,,,,,,,,,,,,,
6238dfab577ecd4adb97a917,SCN,2024-06-12_12h39.26.781,LearnStrategy,2023.2.3,Win32,30.03003003,,,,,,,,,,,7,07,6,8,,,,,,,,,,,,,,,,,,,,,,,,,,,,,