participant,condition,date,expName,psychopyVersion,OS,frameRate,block,phase,trial,learn_mouse_2.x,learn_mouse_2.y,learn_mouse_2.leftButton,learn_mouse_2.midButton,learn_mouse_2.rightButton,learn_mouse_2.time,learn_mouse_2.clicked_name,cat,token,row,col,t_select,cat_mouse_l.x,cat_mouse_l.y,cat_mouse_l.leftButton,cat_mouse_l.midButton,cat_mouse_l.rightButton,cat_mouse_l.time,cat_mouse_l.clicked_name,resp,t_resp,corr,train_trials.thisRepN,train_trials.thisTrialN,train_trials.thisN,train_trials.thisIndex,train_trials.ran,cat_mouse_t.x,cat_mouse_t.y,cat_mouse_t.leftButton,cat_mouse_t.midButton,cat_mouse_t.rightButton,cat_mouse_t.time,cat_mouse_t.clicked_name,test_trials.thisRepN,test_trials.thisTrialN,test_trials.thisN,test_trials.thisIndex,test_trials.ran,Bonus
6266a599c7361af8b51a95e0,TCN,2024-06-21_10h48.13.353,LearnStrategy,2023.2.3,Linux x86_64,60.24096386,,,,,,,,,,,,,,,,,,,,,,,,,,,,,,,,,,,,,,,,,,,
6266a599c7361af8b51a95e0,TCN,2024-06-21_10h48.13.353,LearnStrategy,2023.2.3,Linux x86_64,60.24096386,1,1,1,0.003564358,0.009604375,1,0,0,6.0948,rock_grid_rect_2,3,13,-1,-1,6.095,-0.136139393,-0.255589644,1,0,0,9.2263,Basalt_rect,2,9.226,0,0,0,0,0,1,,,,,,,,,,,,,
6266a599c7361af8b51a95e0,TCN,2024-06-21_10h48.13.353,LearnStrategy,2023.2.3,Linux x86_64,60.24096386,1,1,2,0.02136604,-0.011464755,1,0,0,2.7628,rock_grid_rect_2,6,10,-1,-1,2.763,0.362571319,-0.244024833,1,0,0,9.4199,Gabbro_rect,4,9.42,0,1,0,1,0,1,,,,,,,,,,,,,
6266a599c7361af8b51a95e0,TCN,2024-06-21_10h48.13.353,LearnStrategy,2023.2.3,Linux x86_64,60.24096386,1,1,3,-0.009880702,0.024839322,1,0,0,2.1812,rock_grid_rect_2,8,04,-1,-1,2.181,0.404953957,-0.40616862,1,0,0,2.7123,Pumice_rect,8,2.712,1,2,0,2,0,1,,,,,,,,,,,,,
6266a599c7361af8b51a95e0,TCN,2024-06-21_10h48.13.353,LearnStrategy,2023.2.3,Linux x86_64,60.24096386,1,1,4,0.04392004,-0.00965337,1,0,0,1.2009,rock_grid_rect_2,1,05,-1,-1,1.201,-0.134655476,-0.255280654,1,0,0,3.5443,Basalt_rect,2,3.544,0,3,0,3,0,1,,,,,,,,,,,,,
6266a599c7361af8b51a95e0,TCN,2024-06-21_10h48.13.353,LearnStrategy,2023.2.3,Linux x86_64,60.24096386,1,1,5,-0.035122792,0.002507726,1,0,0,1.883,rock_grid_rect_2,6,11,-1,-1,1.883,-0.394083142,-0.415071487,1,0,0,9.5473,Obsidian_rect,5,9.547,0,4,0,4,0,1,,,,,,,,,,,,,
6266a599c7361af8b51a95e0,TCN,2024-06-21_10h48.13.353,LearnStrategy,2023.2.3,Linux x86_64,60.24096386,1,1,6,0.007179737,-0.003491402,1,0,0,1.8463,rock_grid_rect_2,2,10,-1,-1,1.846,-0.091645797,-0.261577845,1,0,0,5.8589,Basalt_rect,2,5.859,1,5,0,5,0,1,,,,,,,,,,,,,
6266a599c7361af8b51a95e0,TCN,2024-06-21_10h48.13.353,LearnStrategy,2023.2.3,Linux x86_64,60.24096386,1,1,7,0.033423265,-0.000265241,1,0,0,1.7142,rock_grid_rect_2,7,04,-1,-1,1.714,0.119719267,-0.378653288,1,0,0,3.7021,Peridotite_rect,7,3.702,1,6,0,6,0,1,,,,,,,,,,,,,
6266a599c7361af8b51a95e0,TCN,2024-06-21_10h48.13.353,LearnStrategy,2023.2.3,Linux x86_64,60.24096386,1,1,8,0.004514058,-0.004330993,1,0,0,1.4999,rock_grid_rect_2,2,16,-1,-1,1.5,0.395936012,-0.419849157,1,0,0,2.2648,Pumice_rect,8,2.265,0,7,0,7,0,1,,,,,,,,,,,,,
6266a599c7361af8b51a95e0,TCN,2024-06-21_10h48.13.353,LearnStrategy,2023.2.3,Linux x86_64,60.24096386,1,1,9,0.066356262,-0.011155089,1,0,0,2.6168,rock_grid_rect_2,7,07,-1,-1,2.617,0.055117448,-0.402976513,1,0,0,5.6576,Peridotite_rect,7,5.658,1,8,0,8,0,1,,,,,,,,,,,,,
6266a599c7361af8b51a95e0,TCN,2024-06-21_10h48.13.353,LearnStrategy,2023.2.3,Linux x86_64,60.24096386,1,1,10,0.045905034,-0.0137796,1,0,0,1.6313,rock_grid_rect_2,3,06,-1,-1,1.631,-0.41151762,-0.412869056,1,0,0,5.054,Obsidian_rect,5,5.054,0,9,0,9,0,1,,,,,,,,,,,,,
6266a599c7361af8b51a95e0,TCN,2024-06-21_10h48.13.353,LearnStrategy,2023.2.3,Linux x86_64,60.24096386,1,1,11,0.028854688,0.014515082,1,0,0,1.7004,rock_grid_rect_2,5,02,-1,-1,1.7,0.375094573,-0.251056751,1,0,0,6.3808,Gabbro_rect,4,6.381,0,10,0,10,0,1,,,,,,,,,,,,,
6266a599c7361af8b51a95e0,TCN,2024-06-21_10h48.13.353,LearnStrategy,2023.2.3,Linux x86_64,60.24096386,1,1,12,0.03269426,-0.003370762,1,0,0,2.3996,rock_grid_rect_2,8,14,-1,-1,2.4,0.392919779,-0.407318036,1,0,0,2.3223,Pumice_rect,8,2.322,1,11,0,11,0,1,,,,,,,,,,,,,
6266a599c7361af8b51a95e0,TCN,2024-06-21_10h48.13.353,LearnStrategy,2023.2.3,Linux x86_64,60.24096386,1,1,13,0.002423207,-0.003171325,1,0,0,1.7802,rock_grid_rect_2,4,14,-1,-1,1.78,0.129948378,-0.263805787,1,0,0,2.6625,Diorite_rect,3,2.663,0,12,0,12,0,1,,,,,,,,,,,,,
6266a599c7361af8b51a95e0,TCN,2024-06-21_10h48.13.353,LearnStrategy,2023.2.3,Linux x86_64,60.24096386,1,1,14,-0.022535324,0.016002576,1,0,0,1.7836,rock_grid_rect_2,5,10,-1,-1,1.784,0.138529062,-0.382457018,1,0,0,5.8678,Peridotite_rect,7,5.868,0,13,0,13,0,1,,,,,,,,,,,,,
6266a599c7361af8b51a95e0,TCN,2024-06-21_10h48.13.353,LearnStrategy,2023.2.3,Linux x86_64,60.24096386,1,1,15,0.05284516,0.007520556,1,0,0,2.0966,rock_grid_rect_2,4,09,-1,-1,2.097,-0.166186968,-0.400389194,1,0,0,3.6307,Pegmatite_rect,6,3.631,0,14,0,14,0,1,,,,,,,,,,,,,
6266a599c7361af8b51a95e0,TCN,2024-06-21_10h48.13.353,LearnStrategy,2023.2.3,Linux x86_64,60.24096386,1,1,16,0.043541114,0.015140136,1,0,0,1.8841,rock_grid_rect_2,1,09,-1,-1,1.884,-0.138855378,-0.261412938,1,0,0,3.827,Basalt_rect,2,3.827,0,15,0,15,0,1,,,,,,,,,,,,,
6266a599c7361af8b51a95e0,TCN,2024-06-21_10h48.13.353,LearnStrategy,2023.2.3,Linux x86_64,60.24096386,1,2,1,,,,,,,,1,16,,,,,,,,,,,7,37.259,0,,,,,,0.079359452,-0.403920809,1,0,0,37.2593,Peridotite_rect,0,0,0,0,1,
6266a599c7361af8b51a95e0,TCN,2024-06-21_10h48.13.353,LearnStrategy,2023.2.3,Linux x86_64,60.24096386,1,2,2,,,,,,,,4,16,,,,,,,,,,,2,9.49,0,,,,,,-0.104528904,-0.252364,1,0,0,9.49,Basalt_rect,1,0,1,0,1,
6266a599c7361af8b51a95e0,TCN,2024-06-21_10h48.13.353,LearnStrategy,2023.2.3,Linux x86_64,60.24096386,1,2,3,,,,,,,,5,12,,,,,,,,,,,5,6.017,1,,,,,,-0.374691685,-0.381452243,1,0,0,6.0169,Obsidian_rect,2,0,2,0,1,
6266a599c7361af8b51a95e0,TCN,2024-06-21_10h48.13.353,LearnStrategy,2023.2.3,Linux x86_64,60.24096386,1,2,4,,,,,,,,3,02,,,,,,,,,,,1,15.705,0,,,,,,-0.370912353,-0.253946622,1,0,0,15.705,Andesite_rect,3,0,3,0,1,
6266a599c7361af8b51a95e0,TCN,2024-06-21_10h48.13.353,LearnStrategy,2023.2.3,Linux x86_64,60.24096386,1,2,5,,,,,,,,2,06,,,,,,,,,,,2,18.779,1,,,,,,-0.126758337,-0.234967788,1,0,0,18.7791,Basalt_rect,4,0,4,0,1,
6266a599c7361af8b51a95e0,TCN,2024-06-21_10h48.13.353,LearnStrategy,2023.2.3,Linux x86_64,60.24096386,1,2,6,,,,,,,,5,04,,,,,,,,,,,5,8.262,1,,,,,,-0.363028765,-0.392710845,1,0,0,8.2619,Obsidian_rect,5,0,5,0,1,
6266a599c7361af8b51a95e0,TCN,2024-06-21_10h48.13.353,LearnStrategy,2023.2.3,Linux x86_64,60.24096386,1,2,7,,,,,,,,4,01,,,,,,,,,,,6,14.212,0,,,,,,-0.114063104,-0.382666349,1,0,0,14.2125,Pegmatite_rect,6,0,6,0,1,
6266a599c7361af8b51a95e0,TCN,2024-06-21_10h48.13.353,LearnStrategy,2023.2.3,Linux x86_64,60.24096386,1,2,8,,,,,,,,7,02,,,,,,,,,,,6,2.534,0,,,,,,-0.114063104,-0.382666349,1,0,0,2.5343,Pegmatite_rect,7,0,7,0,1,
6266a599c7361af8b51a95e0,TCN,2024-06-21_10h48.13.353,LearnStrategy,2023.2.3,Linux x86_64,60.24096386,1,2,9,,,,,,,,8,16,,,,,,,,,,,2,44.586,0,,,,,,-0.129396915,-0.231319189,1,0,0,44.5856,Basalt_rect,8,0,8,0,1,
6266a599c7361af8b51a95e0,TCN,2024-06-21_10h48.13.353,LearnStrategy,2023.2.3,Linux x86_64,60.24096386,1,2,10,,,,,,,,6,09,,,,,,,,,,,6,23.648,1,,,,,,-0.126376708,-0.386858622,1,0,0,23.6478,Pegmatite_rect,9,0,9,0,1,
6266a599c7361af8b51a95e0,TCN,2024-06-21_10h48.13.353,LearnStrategy,2023.2.3,Linux x86_64,60.24096386,1,2,11,,,,,,,,8,09,,,,,,,,,,,8,6.114,1,,,,,,0.427035729,-0.380928198,1,0,0,6.1137,Pumice_rect,10,0,10,0,1,
6266a599c7361af8b51a95e0,TCN,2024-06-21_10h48.13.353,LearnStrategy,2023.2.3,Linux x86_64,60.24096386,1,2,12,,,,,,,,3,11,,,,,,,,,,,1,11.564,0,,,,,,-0.424751083,-0.232111533,1,0,0,11.564,Andesite_rect,11,0,11,0,1,
6266a599c7361af8b51a95e0,TCN,2024-06-21_10h48.13.353,LearnStrategy,2023.2.3,Linux x86_64,60.24096386,1,2,13,,,,,,,,1,10,,,,,,,,,,,8,3.622,0,,,,,,0.344739993,-0.407179197,1,0,0,3.6222,Pumice_rect,12,0,12,0,1,
6266a599c7361af8b51a95e0,TCN,2024-06-21_10h48.13.353,LearnStrategy,2023.2.3,Linux x86_64,60.24096386,1,2,14,,,,,,,,6,16,,,,,,,,,,,6,4.836,1,,,,,,-0.1380229,-0.416491667,1,0,0,4.8362,Pegmatite_rect,13,0,13,0,1,
6266a599c7361af8b51a95e0,TCN,2024-06-21_10h48.13.353,LearnStrategy,2023.2.3,Linux x86_64,60.24096386,1,2,15,,,,,,,,7,06,,,,,,,,,,,6,1.478,0,,,,,,-0.1380229,-0.416491667,1,0,0,1.478,Pegmatite_rect,14,0,14,0,1,
6266a599c7361af8b51a95e0,TCN,2024-06-21_10h48.13.353,LearnStrategy,2023.2.3,Linux x86_64,60.24096386,1,2,16,,,,,,,,2,09,,,,,,,,,,,4,12.435,0,,,,,,0.371696154,-0.253177802,1,0,0,12.4352,Gabbro_rect,15,0,15,0,1,
6266a599c7361af8b51a95e0,TCN,2024-06-21_10h48.13.353,LearnStrategy,2023.2.3,Linux x86_64,60.24096386,2,1,1,0.030475537,0.001620134,1,0,0,2.9308,rock_grid_rect_2,6,13,-1,-1,2.931,0.414233685,-0.25718228,1,0,0,10.1219,Gabbro_rect,4,10.122,0,0,0,0,0,1,,,,,,,,,,,,,
6266a599c7361af8b51a95e0,TCN,2024-06-21_10h48.13.353,LearnStrategy,2023.2.3,Linux x86_64,60.24096386,2,1,2,0.037143946,0.009705027,1,0,0,3.8154,rock_grid_rect_2,7,16,-1,-1,3.815,-0.117397308,-0.389092684,1,0,0,3.9847,Pegmatite_rect,6,3.985,0,1,0,1,0,1,,,,,,,,,,,,,
6266a599c7361af8b51a95e0,TCN,2024-06-21_10h48.13.353,LearnStrategy,2023.2.3,Linux x86_64,60.24096386,2,1,3,-0.101712863,-0.005680879,1,0,0,1.5471,rock_grid_rect_2,5,07,-1,-1,1.547,-0.125361125,-0.392297665,1,0,0,5.4325,Pegmatite_rect,6,5.432,0,2,0,2,0,1,,,,,,,,,,,,,
6266a599c7361af8b51a95e0,TCN,2024-06-21_10h48.13.353,LearnStrategy,2023.2.3,Linux x86_64,60.24096386,2,1,4,0.044924498,0.005806764,1,0,0,3.2329,rock_grid_rect_2,2,05,-1,-1,3.233,0.402087132,-0.234639247,1,0,0,4.365,Gabbro_rect,4,4.365,0,3,0,3,0,1,,,,,,,,,,,,,
6266a599c7361af8b51a95e0,TCN,2024-06-21_10h48.13.353,LearnStrategy,2023.2.3,Linux x86_64,60.24096386,2,1,5,-0.117166917,-0.0126369,1,0,0,1.366,rock_grid_rect_2,3,14,-1,-1,1.366,-0.358238816,-0.237809738,1,0,0,14.9656,Andesite_rect,1,14.966,0,4,0,4,0,1,,,,,,,,,,,,,
6266a599c7361af8b51a95e0,TCN,2024-06-21_10h48.13.353,LearnStrategy,2023.2.3,Linux x86_64,60.24096386,2,1,6,-0.02828145,-0.016070724,1,0,0,1.9662,rock_grid_rect_2,3,07,-1,-1,1.966,0.095352332,-0.256747802,1,0,0,4.3085,Diorite_rect,3,4.308,1,5,0,5,0,1,,,,,,,,,,,,,
6266a599c7361af8b51a95e0,TCN,2024-06-21_10h48.13.353,LearnStrategy,2023.2.3,Linux x86_64,60.24096386,2,1,7,-0.014399131,-0.015726805,1,0,0,1.1778,rock_grid_rect_2,5,06,-1,-1,1.178,0.422115882,-0.238265038,1,0,0,3.2728,Gabbro_rect,4,3.273,0,6,0,6,0,1,,,,,,,,,,,,,
6266a599c7361af8b51a95e0,TCN,2024-06-21_10h48.13.353,LearnStrategy,2023.2.3,Linux x86_64,60.24096386,2,1,8,0.031311035,0.003673275,1,0,0,1.7175,rock_grid_rect_2,1,07,-1,-1,1.717,0.145821412,-0.265686512,1,0,0,7.5115,Diorite_rect,3,7.511,0,7,0,7,0,1,,,,,,,,,,,,,
6266a599c7361af8b51a95e0,TCN,2024-06-21_10h48.13.353,LearnStrategy,2023.2.3,Linux x86_64,60.24096386,2,1,9,-0.009703716,-0.005287886,1,0,0,2.5993,rock_grid_rect_2,7,08,-1,-1,2.599,0.403960784,-0.420397123,1,0,0,2.1145,Pumice_rect,8,2.114,0,8,0,8,0,1,,,,,,,,,,,,,
6266a599c7361af8b51a95e0,TCN,2024-06-21_10h48.13.353,LearnStrategy,2023.2.3,Linux x86_64,60.24096386,2,1,10,-0.004200935,0.006203254,1,0,0,1.8488,rock_grid_rect_2,4,03,-1,-1,1.849,0.089418093,-0.411822478,1,0,0,26.042,Peridotite_rect,7,26.042,0,9,0,9,0,1,,,,,,,,,,,,,
6266a599c7361af8b51a95e0,TCN,2024-06-21_10h48.13.353,LearnStrategy,2023.2.3,Linux x86_64,60.24096386,2,1,11,-0.012897094,-0.002902389,1,0,0,3.8974,rock_grid_rect_2,1,14,-1,-1,3.897,-0.383773049,-0.260121266,1,0,0,20.3801,Andesite_rect,1,20.38,1,10,0,10,0,1,,,,,,,,,,,,,
6266a599c7361af8b51a95e0,TCN,2024-06-21_10h48.13.353,LearnStrategy,2023.2.3,Linux x86_64,60.24096386,2,1,12,0.010164658,0.007290522,1,0,0,1.3119,rock_grid_rect_2,6,12,-1,-1,1.312,0.410830975,-0.228894711,1,0,0,7.0547,Gabbro_rect,4,7.055,0,11,0,11,0,1,,,,,,,,,,,,,
6266a599c7361af8b51a95e0,TCN,2024-06-21_10h48.13.353,LearnStrategy,2023.2.3,Linux x86_64,60.24096386,2,1,13,-0.083420277,0.013603489,1,0,0,1.4818,rock_grid_rect_2,8,02,-1,-1,1.482,0.438519319,-0.387981097,1,0,0,3.3294,Pumice_rect,8,3.329,1,12,0,12,0,1,,,,,,,,,,,,,
6266a599c7361af8b51a95e0,TCN,2024-06-21_10h48.13.353,LearnStrategy,2023.2.3,Linux x86_64,60.24096386,2,1,14,-0.019061963,0.012982686,1,0,0,1.7469,rock_grid_rect_2,8,05,-1,-1,1.747,-0.131621917,-0.257230202,1,0,0,26.1579,Basalt_rect,2,26.158,0,13,0,13,0,1,,,,,,,,,,,,,
6266a599c7361af8b51a95e0,TCN,2024-06-21_10h48.13.353,LearnStrategy,2023.2.3,Linux x86_64,60.24096386,2,1,15,-4.96705E-05,0.006897847,1,0,0,2.6324,rock_grid_rect_2,2,12,-1,-1,2.632,-0.127648115,-0.240966241,1,0,0,3.4173,Basalt_rect,2,3.417,1,14,0,14,0,1,,,,,,,,,,,,,
6266a599c7361af8b51a95e0,TCN,2024-06-21_10h48.13.353,LearnStrategy,2023.2.3,Linux x86_64,60.24096386,2,1,16,-0.036340872,-0.008558472,1,0,0,2.4506,rock_grid_rect_2,4,10,-1,-1,2.451,-0.138425112,-0.263207912,1,0,0,35.7592,Basalt_rect,2,35.759,0,15,0,15,0,1,,,,,,,,,,,,,
6266a599c7361af8b51a95e0,TCN,2024-06-21_10h48.13.353,LearnStrategy,2023.2.3,Linux x86_64,60.24096386,2,2,1,,,,,,,,1,04,,,,,,,,,,,6,3.483,0,,,,,,-0.199451844,-0.398577213,1,0,0,3.4831,Pegmatite_rect,0,0,0,0,1,
6266a599c7361af8b51a95e0,TCN,2024-06-21_10h48.13.353,LearnStrategy,2023.2.3,Linux x86_64,60.24096386,2,2,2,,,,,,,,2,02,,,,,,,,,,,2,23.683,1,,,,,,-0.164590915,-0.229391177,1,0,0,23.6829,Basalt_rect,1,0,1,0,1,
6266a599c7361af8b51a95e0,TCN,2024-06-21_10h48.13.353,LearnStrategy,2023.2.3,Linux x86_64,60.24096386,2,2,3,,,,,,,,5,08,,,,,,,,,,,5,4.757,1,,,,,,-0.382879655,-0.407414039,1,0,0,4.7571,Obsidian_rect,2,0,2,0,1,
6266a599c7361af8b51a95e0,TCN,2024-06-21_10h48.13.353,LearnStrategy,2023.2.3,Linux x86_64,60.24096386,2,2,4,,,,,,,,1,02,,,,,,,,,,,2,18.568,0,,,,,,-0.107814868,-0.253020843,1,0,0,18.5679,Basalt_rect,3,0,3,0,1,
6266a599c7361af8b51a95e0,TCN,2024-06-21_10h48.13.353,LearnStrategy,2023.2.3,Linux x86_64,60.24096386,2,2,5,,,,,,,,7,14,,,,,,,,,,,6,13.211,0,,,,,,-0.119861603,-0.395474195,1,0,0,13.2107,Pegmatite_rect,4,0,4,0,1,
6266a599c7361af8b51a95e0,TCN,2024-06-21_10h48.13.353,LearnStrategy,2023.2.3,Linux x86_64,60.24096386,2,2,6,,,,,,,,8,15,,,,,,,,,,,2,2.768,0,,,,,,-0.136820475,-0.242148081,1,0,0,2.7682,Basalt_rect,5,0,5,0,1,
6266a599c7361af8b51a95e0,TCN,2024-06-21_10h48.13.353,LearnStrategy,2023.2.3,Linux x86_64,60.24096386,2,2,7,,,,,,,,8,13,,,,,,,,,,,2,10.012,0,,,,,,-0.136820475,-0.242148081,1,0,0,10.0117,Basalt_rect,6,0,6,0,1,
6266a599c7361af8b51a95e0,TCN,2024-06-21_10h48.13.353,LearnStrategy,2023.2.3,Linux x86_64,60.24096386,2,2,8,,,,,,,,6,06,,,,,,,,,,,5,19.633,0,,,,,,-0.426638405,-0.409297705,1,0,0,19.6326,Obsidian_rect,7,0,7,0,1,
6266a599c7361af8b51a95e0,TCN,2024-06-21_10h48.13.353,LearnStrategy,2023.2.3,Linux x86_64,60.24096386,2,2,9,,,,,,,,4,08,,,,,,,,,,,7,18.175,0,,,,,,0.138599316,-0.383909782,1,0,0,18.1748,Peridotite_rect,8,0,8,0,1,
6266a599c7361af8b51a95e0,TCN,2024-06-21_10h48.13.353,LearnStrategy,2023.2.3,Linux x86_64,60.24096386,2,2,10,,,,,,,,7,05,,,,,,,,,,,4,10.91,0,,,,,,0.418428977,-0.239183029,1,0,0,10.9105,Gabbro_rect,9,0,9,0,1,
6266a599c7361af8b51a95e0,TCN,2024-06-21_10h48.13.353,LearnStrategy,2023.2.3,Linux x86_64,60.24096386,2,2,11,,,,,,,,6,07,,,,,,,,,,,6,7.744,1,,,,,,-0.156357765,-0.409698248,1,0,0,7.7444,Pegmatite_rect,10,0,10,0,1,
6266a599c7361af8b51a95e0,TCN,2024-06-21_10h48.13.353,LearnStrategy,2023.2.3,Linux x86_64,60.24096386,2,2,12,,,,,,,,4,05,,,,,,,,,,,7,11.209,0,,,,,,0.149020116,-0.386722247,1,0,0,11.209,Peridotite_rect,11,0,11,0,1,
6266a599c7361af8b51a95e0,TCN,2024-06-21_10h48.13.353,LearnStrategy,2023.2.3,Linux x86_64,60.24096386,2,2,13,,,,,,,,2,08,,,,,,,,,,,1,12.984,0,,,,,,-0.420860847,-0.244974216,1,0,0,12.9841,Andesite_rect,12,0,12,0,1,
6266a599c7361af8b51a95e0,TCN,2024-06-21_10h48.13.353,LearnStrategy,2023.2.3,Linux x86_64,60.24096386,2,2,14,,,,,,,,5,09,,,,,,,,,,,5,7.763,1,,,,,,-0.421205997,-0.409802198,1,0,0,7.7632,Obsidian_rect,13,0,13,0,1,
6266a599c7361af8b51a95e0,TCN,2024-06-21_10h48.13.353,LearnStrategy,2023.2.3,Linux x86_64,60.24096386,2,2,15,,,,,,,,3,12,,,,,,,,,,,3,7.326,1,,,,,,0.167060614,-0.243316174,1,0,0,7.3263,Diorite_rect,14,0,14,0,1,
6266a599c7361af8b51a95e0,TCN,2024-06-21_10h48.13.353,LearnStrategy,2023.2.3,Linux x86_64,60.24096386,2,2,16,,,,,,,,3,09,,,,,,,,,,,3,16.747,1,,,,,,0.167060614,-0.243316174,1,0,0,16.7473,Diorite_rect,15,0,15,0,1,
6266a599c7361af8b51a95e0,TCN,2024-06-21_10h48.13.353,LearnStrategy,2023.2.3,Linux x86_64,60.24096386,3,1,1,0.02083079,-0.008678476,1,0,0,2.831,rock_grid_rect_2,1,11,-1,-1,2.831,-0.111450036,-0.392356873,1,0,0,15.4587,Pegmatite_rect,6,15.459,0,0,0,0,0,1,,,,,,,,,,,,,
6266a599c7361af8b51a95e0,TCN,2024-06-21_10h48.13.353,LearnStrategy,2023.2.3,Linux x86_64,60.24096386,3,1,2,-0.037402312,0.014325897,1,0,0,1.382,rock_grid_rect_2,3,10,-1,-1,1.382,-0.413963238,-0.238910516,1,0,0,24.4315,Andesite_rect,1,24.431,0,1,0,1,0,1,,,,,,,,,,,,,
6266a599c7361af8b51a95e0,TCN,2024-06-21_10h48.13.353,LearnStrategy,2023.2.3,Linux x86_64,60.24096386,3,1,3,0.024115642,0.004282713,1,0,0,1.2813,rock_grid_rect_2,8,03,-1,-1,1.281,-0.121330102,-0.270753066,1,0,0,9.5117,Basalt_rect,2,9.512,0,2,0,2,0,1,,,,,,,,,,,,,
6266a599c7361af8b51a95e0,TCN,2024-06-21_10h48.13.353,LearnStrategy,2023.2.3,Linux x86_64,60.24096386,3,1,4,0.001629512,-0.014930725,1,0,0,1.6642,rock_grid_rect_2,8,08,-1,-1,1.664,-0.140236616,-0.245747884,1,0,0,24.3982,Basalt_rect,2,24.398,0,3,0,3,0,1,,,,,,,,,,,,,
6266a599c7361af8b51a95e0,TCN,2024-06-21_10h48.13.353,LearnStrategy,2023.2.3,Linux x86_64,60.24096386,3,1,5,0.030514956,-0.000332038,1,0,0,1.9667,rock_grid_rect_2,7,13,-1,-1,1.967,-0.138411204,-0.395951351,1,0,0,4.233,Pegmatite_rect,6,4.233,0,4,0,4,0,1,,,,,,,,,,,,,
6266a599c7361af8b51a95e0,TCN,2024-06-21_10h48.13.353,LearnStrategy,2023.2.3,Linux x86_64,60.24096386,3,1,6,0.056281885,-0.010531823,1,0,0,1.7635,rock_grid_rect_2,2,01,-1,-1,1.764,-0.43315506,-0.255738576,1,0,0,10.4873,Andesite_rect,1,10.487,0,5,0,5,0,1,,,,,,,,,,,,,
6266a599c7361af8b51a95e0,TCN,2024-06-21_10h48.13.353,LearnStrategy,2023.2.3,Linux x86_64,60.24096386,3,1,7,0.028134584,0.008396546,1,0,0,1.7641,rock_grid_rect_2,5,05,-1,-1,1.764,-0.085856835,-0.399229209,1,0,0,2.233,Pegmatite_rect,6,2.233,0,6,0,6,0,1,,,,,,,,,,,,,
6266a599c7361af8b51a95e0,TCN,2024-06-21_10h48.13.353,LearnStrategy,2023.2.3,Linux x86_64,60.24096386,3,1,8,-0.014115651,-0.005266468,1,0,0,2.5004,rock_grid_rect_2,7,12,-1,-1,2.5,0.133797248,-0.400952737,1,0,0,17.9905,Peridotite_rect,7,17.991,1,7,0,7,0,1,,,,,,,,,,,,,
6266a599c7361af8b51a95e0,TCN,2024-06-21_10h48.13.353,LearnStrategy,2023.2.3,Linux x86_64,60.24096386,3,1,9,-0.046730836,0.014370521,1,0,0,3.0795,rock_grid_rect_2,5,14,-1,-1,3.08,-0.380862276,-0.41374135,1,0,0,15.3122,Obsidian_rect,5,15.312,1,8,0,8,0,1,,,,,,,,,,,,,
6266a599c7361af8b51a95e0,TCN,2024-06-21_10h48.13.353,LearnStrategy,2023.2.3,Linux x86_64,60.24096386,3,1,10,0.03050518,-0.007952094,1,0,0,2.1292,rock_grid_rect_2,6,03,-1,-1,2.129,0.103065968,-0.395839214,1,0,0,6.9579,Peridotite_rect,7,6.958,0,9,0,9,0,1,,,,,,,,,,,,,
6266a599c7361af8b51a95e0,TCN,2024-06-21_10h48.13.353,LearnStrategy,2023.2.3,Linux x86_64,60.24096386,3,1,11,0.036197742,0.006035686,1,0,0,1.6462,rock_grid_rect_2,2,04,-1,-1,1.646,-0.367678165,-0.235795418,1,0,0,23.6449,Andesite_rect,1,23.645,0,10,0,10,0,1,,,,,,,,,,,,,
6266a599c7361af8b51a95e0,TCN,2024-06-21_10h48.13.353,LearnStrategy,2023.2.3,Linux x86_64,60.24096386,3,1,12,-0.033578475,-0.016178012,1,0,0,1.447,rock_grid_rect_2,3,16,-1,-1,1.447,0.068995635,-0.258706967,1,0,0,10.9599,Diorite_rect,3,10.96,1,11,0,11,0,1,,,,,,,,,,,,,
6266a599c7361af8b51a95e0,TCN,2024-06-21_10h48.13.353,LearnStrategy,2023.2.3,Linux x86_64,60.24096386,3,1,13,-0.007203897,-0.020569801,1,0,0,1.9455,rock_grid_rect_2,4,13,-1,-1,1.946,0.15797925,-0.403804302,1,0,0,14.7917,Peridotite_rect,7,14.792,0,12,0,12,0,1,,,,,,,,,,,,,
6266a599c7361af8b51a95e0,TCN,2024-06-21_10h48.13.353,LearnStrategy,2023.2.3,Linux x86_64,60.24096386,3,1,14,-0.05670929,-0.011995435,1,0,0,1.7168,rock_grid_rect_2,6,08,-1,-1,1.717,-0.349691113,-0.40174675,1,0,0,30.1021,Obsidian_rect,5,30.102,0,13,0,13,0,1,,,,,,,,,,,,,
6266a599c7361af8b51a95e0,TCN,2024-06-21_10h48.13.353,LearnStrategy,2023.2.3,Linux x86_64,60.24096386,3,1,15,0.013793945,0.007440766,1,0,0,1.9654,rock_grid_rect_2,1,01,-1,-1,1.965,0.397848368,-0.232383966,1,0,0,9.9404,Gabbro_rect,4,9.94,0,14,0,14,0,1,,,,,,,,,,,,,
6266a599c7361af8b51a95e0,TCN,2024-06-21_10h48.13.353,LearnStrategy,2023.2.3,Linux x86_64,60.24096386,3,1,16,0.0251472,0.012991071,1,0,0,1.5493,rock_grid_rect_2,4,11,-1,-1,1.549,-0.119647821,-0.260278622,1,0,0,3.5109,Basalt_rect,2,3.511,0,15,0,15,0,1,,,,,,,,,,,,,
6266a599c7361af8b51a95e0,TCN,2024-06-21_10h48.13.353,LearnStrategy,2023.2.3,Linux x86_64,60.24096386,3,2,1,,,,,,,,4,12,,,,,,,,,,,4,8.991,1,,,,,,0.420394262,-0.235821247,1,0,0,8.9906,Gabbro_rect,0,0,0,0,1,
6266a599c7361af8b51a95e0,TCN,2024-06-21_10h48.13.353,LearnStrategy,2023.2.3,Linux x86_64,60.24096386,3,2,2,,,,,,,,6,05,,,,,,,,,,,6,18.621,1,,,,,,-0.13565286,-0.404118935,1,0,0,18.6214,Pegmatite_rect,1,0,1,0,1,
6266a599c7361af8b51a95e0,TCN,2024-06-21_10h48.13.353,LearnStrategy,2023.2.3,Linux x86_64,60.24096386,3,2,3,,,,,,,,1,06,,,,,,,,,,,4,6.962,0,,,,,,0.403154691,-0.236464659,1,0,0,6.962,Gabbro_rect,2,0,2,0,1,
6266a599c7361af8b51a95e0,TCN,2024-06-21_10h48.13.353,LearnStrategy,2023.2.3,Linux x86_64,60.24096386,3,2,4,,,,,,,,3,08,,,,,,,,,,,3,16.922,1,,,,,,0.146271308,-0.241591612,1,0,0,16.9223,Diorite_rect,3,0,3,0,1,
6266a599c7361af8b51a95e0,TCN,2024-06-21_10h48.13.353,LearnStrategy,2023.2.3,Linux x86_64,60.24096386,3,2,5,,,,,,,,8,06,,,,,,,,,,,8,2.237,1,,,,,,0.390375932,-0.410332044,1,0,0,2.2365,Pumice_rect,4,0,4,0,1,
6266a599c7361af8b51a95e0,TCN,2024-06-21_10h48.13.353,LearnStrategy,2023.2.3,Linux x86_64,60.24096386,3,2,6,,,,,,,,3,15,,,,,,,,,,,7,6.247,0,,,,,,0.161457698,-0.407348235,1,0,0,6.247,Peridotite_rect,5,0,5,0,1,
6266a599c7361af8b51a95e0,TCN,2024-06-21_10h48.13.353,LearnStrategy,2023.2.3,Linux x86_64,60.24096386,3,2,7,,,,,,,,8,10,,,,,,,,,,,2,7.018,0,,,,,,-0.167993228,-0.243566354,1,0,0,7.0177,Basalt_rect,6,0,6,0,1,
6266a599c7361af8b51a95e0,TCN,2024-06-21_10h48.13.353,LearnStrategy,2023.2.3,Linux x86_64,60.24096386,3,2,8,,,,,,,,5,16,,,,,,,,,,,5,2.528,1,,,,,,-0.362303456,-0.396704356,1,0,0,2.5283,Obsidian_rect,7,0,7,0,1,
6266a599c7361af8b51a95e0,TCN,2024-06-21_10h48.13.353,LearnStrategy,2023.2.3,Linux x86_64,60.24096386,3,2,9,,,,,,,,6,15,,,,,,,,,,,6,5.233,1,,,,,,-0.088549376,-0.394929965,1,0,0,5.2325,Pegmatite_rect,8,0,8,0,1,
6266a599c7361af8b51a95e0,TCN,2024-06-21_10h48.13.353,LearnStrategy,2023.2.3,Linux x86_64,60.24096386,3,2,10,,,,,,,,2,11,,,,,,,,,,,8,2.929,0,,,,,,0.418709834,-0.395566781,1,0,0,2.9286,Pumice_rect,9,0,9,0,1,
6266a599c7361af8b51a95e0,TCN,2024-06-21_10h48.13.353,LearnStrategy,2023.2.3,Linux x86_64,60.24096386,3,2,11,,,,,,,,7,10,,,,,,,,,,,3,7.891,0,,,,,,0.116388083,-0.235120853,1,0,0,7.8907,Diorite_rect,10,0,10,0,1,
6266a599c7361af8b51a95e0,TCN,2024-06-21_10h48.13.353,LearnStrategy,2023.2.3,Linux x86_64,60.24096386,3,2,12,,,,,,,,7,15,,,,,,,,,,,7,9.456,1,,,,,,0.105430841,-0.390211105,1,0,0,9.4556,Peridotite_rect,11,0,11,0,1,
6266a599c7361af8b51a95e0,TCN,2024-06-21_10h48.13.353,LearnStrategy,2023.2.3,Linux x86_64,60.24096386,3,2,13,,,,,,,,1,03,,,,,,,,,,,1,13.057,1,,,,,,-0.436295112,-0.228991906,1,0,0,13.0572,Andesite_rect,12,0,12,0,1,
6266a599c7361af8b51a95e0,TCN,2024-06-21_10h48.13.353,LearnStrategy,2023.2.3,Linux x86_64,60.24096386,3,2,14,,,,,,,,2,14,,,,,,,,,,,4,30.435,0,,,,,,0.394823392,-0.260808706,1,0,0,30.4348,Gabbro_rect,13,0,13,0,1,
6266a599c7361af8b51a95e0,TCN,2024-06-21_10h48.13.353,LearnStrategy,2023.2.3,Linux x86_64,60.24096386,3,2,15,,,,,,,,4,15,,,,,,,,,,,4,12.305,1,,,,,,0.395386378,-0.262122313,1,0,0,12.305,Gabbro_rect,14,0,14,0,1,
6266a599c7361af8b51a95e0,TCN,2024-06-21_10h48.13.353,LearnStrategy,2023.2.3,Linux x86_64,60.24096386,3,2,16,,,,,,,,5,11,,,,,,,,,,,5,1.679,1,,,,,,-0.367453178,-0.413207134,1,0,0,1.6795,Obsidian_rect,15,0,15,0,1,
6266a599c7361af8b51a95e0,TCN,2024-06-21_10h48.13.353,LearnStrategy,2023.2.3,Linux x86_64,60.24096386,4,1,1,0.052884261,0.006339788,1,0,0,2.5453,rock_grid_rect_2,7,13,-1,-1,2.545,0.132428964,-0.395306031,1,0,0,5.939,Peridotite_rect,7,5.939,1,0,0,0,0,1,,,,,,,,,,,,,
6266a599c7361af8b51a95e0,TCN,2024-06-21_10h48.13.353,LearnStrategy,2023.2.3,Linux x86_64,60.24096386,4,1,2,0.056039174,0.010053356,1,0,0,1.0626,rock_grid_rect_2,4,13,-1,-1,1.063,0.386114597,-0.258597612,1,0,0,5.911,Gabbro_rect,4,5.911,1,1,0,1,0,1,,,,,,,,,,,,,
6266a599c7361af8b51a95e0,TCN,2024-06-21_10h48.13.353,LearnStrategy,2023.2.3,Linux x86_64,60.24096386,4,1,3,0.031227827,-0.003835042,1,0,0,2.0628,rock_grid_rect_2,2,16,-1,-1,2.063,0.399695158,-0.380069494,1,0,0,12.8453,Pumice_rect,8,12.845,0,2,0,2,0,1,,,,,,,,,,,,,
6266a599c7361af8b51a95e0,TCN,2024-06-21_10h48.13.353,LearnStrategy,2023.2.3,Linux x86_64,60.24096386,4,1,4,0.022592147,0.005768299,1,0,0,1.5622,rock_grid_rect_2,5,14,-1,-1,1.562,-0.39935565,-0.406113545,1,0,0,2.3921,Obsidian_rect,5,2.392,1,3,0,3,0,1,,,,,,,,,,,,,
6266a599c7361af8b51a95e0,TCN,2024-06-21_10h48.13.353,LearnStrategy,2023.2.3,Linux x86_64,60.24096386,4,1,5,0.04472208,0.02035749,1,0,0,1.0142,rock_grid_rect_2,3,10,-1,-1,1.014,0.402222792,-0.256924152,1,0,0,10.7264,Gabbro_rect,4,10.726,0,4,0,4,0,1,,,,,,,,,,,,,
6266a599c7361af8b51a95e0,TCN,2024-06-21_10h48.13.353,LearnStrategy,2023.2.3,Linux x86_64,60.24096386,4,1,6,-0.051918348,-0.018364231,1,0,0,1.4493,rock_grid_rect_2,1,07,-1,-1,1.449,-0.398395419,-0.256423235,1,0,0,10.0331,Andesite_rect,1,10.033,1,5,0,5,0,1,,,,,,,,,,,,,
6266a599c7361af8b51a95e0,TCN,2024-06-21_10h48.13.353,LearnStrategy,2023.2.3,Linux x86_64,60.24096386,4,1,7,0.04078873,0.001977285,1,0,0,1.1127,rock_grid_rect_2,7,16,-1,-1,1.113,0.182128032,-0.416013956,1,0,0,6.3094,Peridotite_rect,7,6.309,1,6,0,6,0,1,,,,,,,,,,,,,
6266a599c7361af8b51a95e0,TCN,2024-06-21_10h48.13.353,LearnStrategy,2023.2.3,Linux x86_64,60.24096386,4,1,8,-0.00465409,0.013333281,1,0,0,1.2627,rock_grid_rect_2,8,03,-1,-1,1.263,-0.123814265,-0.242702087,1,0,0,17.813,Basalt_rect,2,17.813,0,7,0,7,0,1,,,,,,,,,,,,,
6266a599c7361af8b51a95e0,TCN,2024-06-21_10h48.13.353,LearnStrategy,2023.2.3,Linux x86_64,60.24096386,4,1,9,0.074103514,-0.008028706,1,0,0,7.4147,rock_grid_rect_2,4,09,-1,-1,7.415,0.375639041,-0.244003932,1,0,0,22.5906,Gabbro_rect,4,22.591,1,8,0,8,0,1,,,,,,,,,,,,,
6266a599c7361af8b51a95e0,TCN,2024-06-21_10h48.13.353,LearnStrategy,2023.2.3,Linux x86_64,60.24096386,4,1,10,0.033491373,-0.01254495,1,0,0,2.9459,rock_grid_rect_2,6,13,-1,-1,2.946,-0.058971643,-0.388008912,1,0,0,12.3466,Pegmatite_rect,6,12.347,1,9,0,9,0,1,,,,,,,,,,,,,
6266a599c7361af8b51a95e0,TCN,2024-06-21_10h48.13.353,LearnStrategy,2023.2.3,Linux x86_64,60.24096386,4,1,11,0.044315497,0.01687479,1,0,0,1.3948,rock_grid_rect_2,1,01,-1,-1,1.395,0.428587039,-0.254288832,1,0,0,8.9311,Gabbro_rect,4,8.931,0,10,0,10,0,1,,,,,,,,,,,,,
6266a599c7361af8b51a95e0,TCN,2024-06-21_10h48.13.353,LearnStrategy,2023.2.3,Linux x86_64,60.24096386,4,1,12,0.062849045,0.01053528,1,0,0,1.9313,rock_grid_rect_2,2,01,-1,-1,1.931,-0.125405947,-0.261353572,1,0,0,16.0086,Basalt_rect,2,16.009,1,11,0,11,0,1,,,,,,,,,,,,,
6266a599c7361af8b51a95e0,TCN,2024-06-21_10h48.13.353,LearnStrategy,2023.2.3,Linux x86_64,60.24096386,4,1,13,0.060085217,0.00472184,1,0,0,1.5461,rock_grid_rect_2,3,16,-1,-1,1.546,-0.37678957,-0.239960988,1,0,0,6.1113,Andesite_rect,1,6.111,0,12,0,12,0,1,,,,,,,,,,,,,
6266a599c7361af8b51a95e0,TCN,2024-06-21_10h48.13.353,LearnStrategy,2023.2.3,Linux x86_64,60.24096386,4,1,14,-0.015476068,-0.000743667,1,0,0,1.343,rock_grid_rect_2,6,11,-1,-1,1.343,-0.069003979,-0.407453696,1,0,0,2.2737,Pegmatite_rect,6,2.274,1,13,0,13,0,1,,,,,,,,,,,,,
6266a599c7361af8b51a95e0,TCN,2024-06-21_10h48.13.353,LearnStrategy,2023.2.3,Linux x86_64,60.24096386,4,1,15,-0.043861866,-0.003784696,1,0,0,1.4792,rock_grid_rect_2,5,05,-1,-1,1.479,-0.381489078,-0.231928587,1,0,0,2.6791,Andesite_rect,1,2.679,0,14,0,14,0,1,,,,,,,,,,,,,
6266a599c7361af8b51a95e0,TCN,2024-06-21_10h48.13.353,LearnStrategy,2023.2.3,Linux x86_64,60.24096386,4,1,16,0.042309841,-0.010686119,1,0,0,1.7619,rock_grid_rect_2,8,04,-1,-1,1.762,0.367164214,-0.388886611,1,0,0,2.0127,Pumice_rect,8,2.013,1,15,0,15,0,1,,,,,,,,,,,,,
6266a599c7361af8b51a95e0,TCN,2024-06-21_10h48.13.353,LearnStrategy,2023.2.3,Linux x86_64,60.24096386,4,2,1,,,,,,,,3,12,,,,,,,,,,,3,13.062,1,,,,,,0.14014403,-0.237811565,1,0,0,13.0624,Diorite_rect,0,0,0,0,1,
6266a599c7361af8b51a95e0,TCN,2024-06-21_10h48.13.353,LearnStrategy,2023.2.3,Linux x86_64,60.24096386,4,2,2,,,,,,,,1,16,,,,,,,,,,,1,23.748,1,,,,,,-0.365932703,-0.229248285,1,0,0,23.7477,Andesite_rect,1,0,1,0,1,
6266a599c7361af8b51a95e0,TCN,2024-06-21_10h48.13.353,LearnStrategy,2023.2.3,Linux x86_64,60.24096386,4,2,3,,,,,,,,2,09,,,,,,,,,,,2,12.36,1,,,,,,-0.175354242,-0.258975824,1,0,0,12.3599,Basalt_rect,2,0,2,0,1,
6266a599c7361af8b51a95e0,TCN,2024-06-21_10h48.13.353,LearnStrategy,2023.2.3,Linux x86_64,60.24096386,4,2,4,,,,,,,,4,15,,,,,,,,,,,4,6.504,1,,,,,,0.416026513,-0.254090309,1,0,0,6.504,Gabbro_rect,3,0,3,0,1,
6266a599c7361af8b51a95e0,TCN,2024-06-21_10h48.13.353,LearnStrategy,2023.2.3,Linux x86_64,60.24096386,4,2,5,,,,,,,,5,16,,,,,,,,,,,5,1.388,1,,,,,,-0.354512572,-0.409812848,1,0,0,1.3877,Obsidian_rect,4,0,4,0,1,
6266a599c7361af8b51a95e0,TCN,2024-06-21_10h48.13.353,LearnStrategy,2023.2.3,Linux x86_64,60.24096386,4,2,6,,,,,,,,6,16,,,,,,,,,,,5,10.527,0,,,,,,-0.386100372,-0.412563006,1,0,0,10.5271,Obsidian_rect,5,0,5,0,1,
6266a599c7361af8b51a95e0,TCN,2024-06-21_10h48.13.353,LearnStrategy,2023.2.3,Linux x86_64,60.24096386,4,2,7,,,,,,,,7,10,,,,,,,,,,,7,21.078,1,,,,,,0.145816247,-0.39015158,1,0,0,21.0782,Peridotite_rect,6,0,6,0,1,
6266a599c7361af8b51a95e0,TCN,2024-06-21_10h48.13.353,LearnStrategy,2023.2.3,Linux x86_64,60.24096386,4,2,8,,,,,,,,5,11,,,,,,,,,,,5,2.107,1,,,,,,-0.43496871,-0.404303233,1,0,0,2.107,Obsidian_rect,7,0,7,0,1,
6266a599c7361af8b51a95e0,TCN,2024-06-21_10h48.13.353,LearnStrategy,2023.2.3,Linux x86_64,60.24096386,4,2,9,,,,,,,,3,02,,,,,,,,,,,3,24.258,1,,,,,,0.121740818,-0.260049184,1,0,0,24.2577,Diorite_rect,8,0,8,0,1,
6266a599c7361af8b51a95e0,TCN,2024-06-21_10h48.13.353,LearnStrategy,2023.2.3,Linux x86_64,60.24096386,4,2,10,,,,,,,,4,05,,,,,,,,,,,4,7.089,1,,,,,,0.38007617,-0.248122454,1,0,0,7.0895,Gabbro_rect,9,0,9,0,1,
6266a599c7361af8b51a95e0,TCN,2024-06-21_10h48.13.353,LearnStrategy,2023.2.3,Linux x86_64,60.24096386,4,2,11,,,,,,,,8,16,,,,,,,,,,,8,25.093,1,,,,,,0.425002813,-0.408938646,1,0,0,25.0925,Pumice_rect,10,0,10,0,1,
6266a599c7361af8b51a95e0,TCN,2024-06-21_10h48.13.353,LearnStrategy,2023.2.3,Linux x86_64,60.24096386,4,2,12,,,,,,,,2,11,,,,,,,,,,,2,1.669,1,,,,,,-0.131884495,-0.241784811,1,0,0,1.6685,Basalt_rect,11,0,11,0,1,
6266a599c7361af8b51a95e0,TCN,2024-06-21_10h48.13.353,LearnStrategy,2023.2.3,Linux x86_64,60.24096386,4,2,13,,,,,,,,8,15,,,,,,,,,,,8,3.126,1,,,,,,0.386575222,-0.399529934,1,0,0,3.1262,Pumice_rect,12,0,12,0,1,
6266a599c7361af8b51a95e0,TCN,2024-06-21_10h48.13.353,LearnStrategy,2023.2.3,Linux x86_64,60.24096386,4,2,14,,,,,,,,1,03,,,,,,,,,,,4,12.686,0,,,,,,0.446583589,-0.241210222,1,0,0,12.6863,Gabbro_rect,13,0,13,0,1,
6266a599c7361af8b51a95e0,TCN,2024-06-21_10h48.13.353,LearnStrategy,2023.2.3,Linux x86_64,60.24096386,4,2,15,,,,,,,,7,15,,,,,,,,,,,7,25.851,1,,,,,,0.171285868,-0.388098876,1,0,0,25.8505,Peridotite_rect,14,0,14,0,1,
6266a599c7361af8b51a95e0,TCN,2024-06-21_10h48.13.353,LearnStrategy,2023.2.3,Linux x86_64,60.24096386,4,2,16,,,,,,,,6,15,,,,,,,,,,,6,1.728,1,,,,,,-0.139514923,-0.398520231,1,0,0,1.7282,Pegmatite_rect,15,0,15,0,1,
6266a599c7361af8b51a95e0,TCN,2024-06-21_10h48.13.353,LearnStrategy,2023.2.3,Linux x86_64,60.24096386,5,1,1,0.069009225,-0.009538094,1,0,0,2.1949,rock_grid_rect_2,8,14,-1,-1,2.195,0.388129314,-0.417705536,1,0,0,2.0137,Pumice_rect,8,2.014,1,0,0,0,0,1,,,,,,,,,,,,,
6266a599c7361af8b51a95e0,TCN,2024-06-21_10h48.13.353,LearnStrategy,2023.2.3,Linux x86_64,60.24096386,5,1,2,0.05995822,0.008545597,1,0,0,2.4637,rock_grid_rect_2,5,06,-1,-1,2.464,-0.394611875,-0.396425486,1,0,0,2.8933,Obsidian_rect,5,2.893,1,1,0,1,0,1,,,,,,,,,,,,,
6266a599c7361af8b51a95e0,TCN,2024-06-21_10h48.13.353,LearnStrategy,2023.2.3,Linux x86_64,60.24096386,5,1,3,0.045571566,-0.000946283,1,0,0,2.2142,rock_grid_rect_2,3,07,-1,-1,2.214,-0.356634657,-0.250804027,1,0,0,2.3143,Andesite_rect,1,2.314,0,2,0,2,0,1,,,,,,,,,,,,,
6266a599c7361af8b51a95e0,TCN,2024-06-21_10h48.13.353,LearnStrategy,2023.2.3,Linux x86_64,60.24096386,5,1,4,-0.002267838,-0.000628233,1,0,0,1.5328,rock_grid_rect_2,5,10,-1,-1,1.533,-0.393565377,-0.387597879,1,0,0,1.4887,Obsidian_rect,5,1.489,1,3,0,3,0,1,,,,,,,,,,,,,
6266a599c7361af8b51a95e0,TCN,2024-06-21_10h48.13.353,LearnStrategy,2023.2.3,Linux x86_64,60.24096386,5,1,5,-0.023555915,0.012932738,1,0,0,1.1636,rock_grid_rect_2,4,10,-1,-1,1.164,-0.132294178,-0.247689644,1,0,0,1.6655,Basalt_rect,2,1.666,0,4,0,4,0,1,,,,,,,,,,,,,
6266a599c7361af8b51a95e0,TCN,2024-06-21_10h48.13.353,LearnStrategy,2023.2.3,Linux x86_64,60.24096386,5,1,6,0.025348902,-0.01097552,1,0,0,1.5176,rock_grid_rect_2,7,04,-1,-1,1.518,0.080489874,-0.385239442,1,0,0,2.7898,Peridotite_rect,7,2.79,1,5,0,5,0,1,,,,,,,,,,,,,
6266a599c7361af8b51a95e0,TCN,2024-06-21_10h48.13.353,LearnStrategy,2023.2.3,Linux x86_64,60.24096386,5,1,7,-0.043841441,-0.003780166,1,0,0,1.4799,rock_grid_rect_2,4,11,-1,-1,1.48,-0.099903027,-0.235057433,1,0,0,2.0171,Basalt_rect,2,2.017,0,6,0,6,0,1,,,,,,,,,,,,,
6266a599c7361af8b51a95e0,TCN,2024-06-21_10h48.13.353,LearnStrategy,2023.2.3,Linux x86_64,60.24096386,5,1,8,0.0241189,-0.017710606,1,0,0,1.2648,rock_grid_rect_2,8,08,-1,-1,1.265,-0.077584426,-0.249076525,1,0,0,1.9457,Basalt_rect,2,1.946,0,7,0,7,0,1,,,,,,,,,,,,,
6266a599c7361af8b51a95e0,TCN,2024-06-21_10h48.13.353,LearnStrategy,2023.2.3,Linux x86_64,60.24096386,5,1,9,0.009675026,0.007293781,1,0,0,1.5623,rock_grid_rect_2,2,12,-1,-1,1.562,-0.387380322,-0.265057564,1,0,0,14.2215,Andesite_rect,1,14.222,0,8,0,8,0,1,,,,,,,,,,,,,
6266a599c7361af8b51a95e0,TCN,2024-06-21_10h48.13.353,LearnStrategy,2023.2.3,Linux x86_64,60.24096386,5,1,10,0.024160862,0.010079106,1,0,0,1.5292,rock_grid_rect_2,6,10,-1,-1,1.529,-0.189279874,-0.403053681,1,0,0,1.528,Pegmatite_rect,6,1.528,1,9,0,9,0,1,,,,,,,,,,,,,
6266a599c7361af8b51a95e0,TCN,2024-06-21_10h48.13.353,LearnStrategy,2023.2.3,Linux x86_64,60.24096386,5,1,11,0.007854382,-0.000383814,1,0,0,1.6456,rock_grid_rect_2,2,04,-1,-1,1.646,-0.13075614,-0.248265743,1,0,0,8.6625,Basalt_rect,2,8.662,1,10,0,10,0,1,,,,,,,,,,,,,
6266a599c7361af8b51a95e0,TCN,2024-06-21_10h48.13.353,LearnStrategy,2023.2.3,Linux x86_64,60.24096386,5,1,12,0.055832942,0.007589857,1,0,0,2.0693,rock_grid_rect_2,3,06,-1,-1,2.069,0.10934035,-0.245508273,1,0,0,10.8374,Diorite_rect,3,10.837,1,11,0,11,0,1,,,,,,,,,,,,,
6266a599c7361af8b51a95e0,TCN,2024-06-21_10h48.13.353,LearnStrategy,2023.2.3,Linux x86_64,60.24096386,5,1,13,-0.070923726,-0.007650852,1,0,0,0.9449,rock_grid_rect_2,1,09,-1,-1,0.945,0.428222497,-0.253951867,1,0,0,4.3664,Gabbro_rect,4,4.366,0,12,0,12,0,1,,,,,,,,,,,,,
6266a599c7361af8b51a95e0,TCN,2024-06-21_10h48.13.353,LearnStrategy,2023.2.3,Linux x86_64,60.24096386,5,1,14,0.00518314,0.01012365,1,0,0,1.9842,rock_grid_rect_2,7,12,-1,-1,1.984,0.094890356,-0.420355797,1,0,0,1.7788,Peridotite_rect,7,1.779,1,13,0,13,0,1,,,,,,,,,,,,,
6266a599c7361af8b51a95e0,TCN,2024-06-21_10h48.13.353,LearnStrategy,2023.2.3,Linux x86_64,60.24096386,5,1,15,0.048693736,-0.006600022,1,0,0,1.3143,rock_grid_rect_2,1,05,-1,-1,1.314,0.424505313,-0.252728701,1,0,0,12.9259,Gabbro_rect,4,12.926,0,14,0,14,0,1,,,,,,,,,,,,,
6266a599c7361af8b51a95e0,TCN,2024-06-21_10h48.13.353,LearnStrategy,2023.2.3,Linux x86_64,60.24096386,5,1,16,0.01522549,0.00396196,1,0,0,1.2151,rock_grid_rect_2,6,03,-1,-1,1.215,-0.181361119,-0.405580521,1,0,0,1.5438,Pegmatite_rect,6,1.544,1,15,0,15,0,1,,,,,,,,,,,,,
6266a599c7361af8b51a95e0,TCN,2024-06-21_10h48.13.353,LearnStrategy,2023.2.3,Linux x86_64,60.24096386,5,2,1,,,,,,,,6,09,,,,,,,,,,,6,1.806,1,,,,,,-0.116360823,-0.387996435,1,0,0,1.8062,Pegmatite_rect,0,0,0,0,1,
6266a599c7361af8b51a95e0,TCN,2024-06-21_10h48.13.353,LearnStrategy,2023.2.3,Linux x86_64,60.24096386,5,2,2,,,,,,,,3,09,,,,,,,,,,,3,8.491,1,,,,,,0.128324429,-0.240723848,1,0,0,8.4906,Diorite_rect,1,0,1,0,1,
6266a599c7361af8b51a95e0,TCN,2024-06-21_10h48.13.353,LearnStrategy,2023.2.3,Linux x86_64,60.24096386,5,2,3,,,,,,,,4,08,,,,,,,,,,,4,5.658,1,,,,,,0.374796708,-0.243440787,1,0,0,5.6582,Gabbro_rect,2,0,2,0,1,
6266a599c7361af8b51a95e0,TCN,2024-06-21_10h48.13.353,LearnStrategy,2023.2.3,Linux x86_64,60.24096386,5,2,4,,,,,,,,6,07,,,,,,,,,,,7,1.666,0,,,,,,0.15726169,-0.41612943,1,0,0,1.6659,Peridotite_rect,3,0,3,0,1,
6266a599c7361af8b51a95e0,TCN,2024-06-21_10h48.13.353,LearnStrategy,2023.2.3,Linux x86_64,60.24096386,5,2,5,,,,,,,,7,14,,,,,,,,,,,7,2.501,1,,,,,,0.135451714,-0.41368413,1,0,0,2.5005,Peridotite_rect,4,0,4,0,1,
6266a599c7361af8b51a95e0,TCN,2024-06-21_10h48.13.353,LearnStrategy,2023.2.3,Linux x86_64,60.24096386,5,2,6,,,,,,,,2,14,,,,,,,,,,,2,12.32,1,,,,,,-0.102572759,-0.257146517,1,0,0,12.3195,Basalt_rect,5,0,5,0,1,
6266a599c7361af8b51a95e0,TCN,2024-06-21_10h48.13.353,LearnStrategy,2023.2.3,Linux x86_64,60.24096386,5,2,7,,,,,,,,5,04,,,,,,,,,,,6,1.224,0,,,,,,-0.129012346,-0.401268403,1,0,0,1.2241,Pegmatite_rect,6,0,6,0,1,
6266a599c7361af8b51a95e0,TCN,2024-06-21_10h48.13.353,LearnStrategy,2023.2.3,Linux x86_64,60.24096386,5,2,8,,,,,,,,8,10,,,,,,,,,,,8,2.719,1,,,,,,0.388822794,-0.401292006,1,0,0,2.7186,Pumice_rect,7,0,7,0,1,
6266a599c7361af8b51a95e0,TCN,2024-06-21_10h48.13.353,LearnStrategy,2023.2.3,Linux x86_64,60.24096386,5,2,9,,,,,,,,3,08,,,,,,,,,,,3,9.705,1,,,,,,0.146635294,-0.240426779,1,0,0,9.7049,Diorite_rect,8,0,8,0,1,
6266a599c7361af8b51a95e0,TCN,2024-06-21_10h48.13.353,LearnStrategy,2023.2.3,Linux x86_64,60.24096386,5,2,10,,,,,,,,1,04,,,,,,,,,,,7,3.477,0,,,,,,0.123744806,-0.392519871,1,0,0,3.4771,Peridotite_rect,9,0,9,0,1,
6266a599c7361af8b51a95e0,TCN,2024-06-21_10h48.13.353,LearnStrategy,2023.2.3,Linux x86_64,60.24096386,5,2,11,,,,,,,,1,02,,,,,,,,,,,1,5.685,1,,,,,,-0.42535456,-0.231782675,1,0,0,5.6852,Andesite_rect,10,0,10,0,1,
6266a599c7361af8b51a95e0,TCN,2024-06-21_10h48.13.353,LearnStrategy,2023.2.3,Linux x86_64,60.24096386,5,2,12,,,,,,,,8,13,,,,,,,,,,,8,3.222,1,,,,,,0.40160958,-0.406033198,1,0,0,3.2221,Pumice_rect,11,0,11,0,1,
6266a599c7361af8b51a95e0,TCN,2024-06-21_10h48.13.353,LearnStrategy,2023.2.3,Linux x86_64,60.24096386,5,2,13,,,,,,,,7,05,,,,,,,,,,,4,6.419,0,,,,,,0.415071408,-0.254772186,1,0,0,6.4195,Gabbro_rect,12,0,12,0,1,
6266a599c7361af8b51a95e0,TCN,2024-06-21_10h48.13.353,LearnStrategy,2023.2.3,Linux x86_64,60.24096386,5,2,14,,,,,,,,4,01,,,,,,,,,,,7,2.028,0,,,,,,0.147809505,-0.394936323,1,0,0,2.0276,Peridotite_rect,13,0,13,0,1,
6266a599c7361af8b51a95e0,TCN,2024-06-21_10h48.13.353,LearnStrategy,2023.2.3,Linux x86_64,60.24096386,5,2,15,,,,,,,,2,06,,,,,,,,,,,2,10.201,1,,,,,,-0.11625131,-0.244490306,1,0,0,10.2008,Basalt_rect,14,0,14,0,1,
6266a599c7361af8b51a95e0,TCN,2024-06-21_10h48.13.353,LearnStrategy,2023.2.3,Linux x86_64,60.24096386,5,2,16,,,,,,,,5,12,,,,,,,,,,,5,2.202,1,,,,,,-0.367689013,-0.391764959,1,0,0,2.2021,Obsidian_rect,15,0,15,0,1,
6266a599c7361af8b51a95e0,TCN,2024-06-21_10h48.13.353,LearnStrategy,2023.2.3,Linux x86_64,60.24096386,6,1,1,-0.014975468,0.008418361,1,0,0,2.1311,rock_grid_rect_2,3,14,-1,-1,2.131,0.128934701,-0.252164046,1,0,0,7.2405,Diorite_rect,3,7.241,1,0,0,0,0,1,,,,,,,,,,,,,
6266a599c7361af8b51a95e0,TCN,2024-06-21_10h48.13.353,LearnStrategy,2023.2.3,Linux x86_64,60.24096386,6,1,2,-0.035020192,0.004634817,1,0,0,1.6465,rock_grid_rect_2,2,05,-1,-1,1.647,-0.135214806,-0.247022788,1,0,0,1.7171,Basalt_rect,2,1.717,1,1,0,1,0,1,,,,,,,,,,,,,
6266a599c7361af8b51a95e0,TCN,2024-06-21_10h48.13.353,LearnStrategy,2023.2.3,Linux x86_64,60.24096386,6,1,3,0.012510379,0.003995577,1,0,0,1.3797,rock_grid_rect_2,6,12,-1,-1,1.38,-0.398219426,-0.256760597,1,0,0,3.0025,Andesite_rect,1,3.003,0,2,0,2,0,1,,,,,,,,,,,,,
6266a599c7361af8b51a95e0,TCN,2024-06-21_10h48.13.353,LearnStrategy,2023.2.3,Linux x86_64,60.24096386,6,1,4,0.047280629,-0.006671906,1,0,0,0.9996,rock_grid_rect_2,8,05,-1,-1,1,0.399000327,-0.403126081,1,0,0,1.3715,Pumice_rect,8,1.372,1,3,0,3,0,1,,,,,,,,,,,,,
6266a599c7361af8b51a95e0,TCN,2024-06-21_10h48.13.353,LearnStrategy,2023.2.3,Linux x86_64,60.24096386,6,1,5,0.006875912,-0.000576576,1,0,0,1.6139,rock_grid_rect_2,4,03,-1,-1,1.614,0.38788859,-0.264403184,1,0,0,21.9129,Gabbro_rect,4,21.913,1,4,0,4,0,1,,,,,,,,,,,,,
6266a599c7361af8b51a95e0,TCN,2024-06-21_10h48.13.353,LearnStrategy,2023.2.3,Linux x86_64,60.24096386,6,1,6,-0.017828703,-0.017427882,1,0,0,1.4298,rock_grid_rect_2,5,02,-1,-1,1.43,-0.433938146,-0.389640729,1,0,0,2.1012,Obsidian_rect,5,2.101,1,5,0,5,0,1,,,,,,,,,,,,,
6266a599c7361af8b51a95e0,TCN,2024-06-21_10h48.13.353,LearnStrategy,2023.2.3,Linux x86_64,60.24096386,6,1,7,0.014879306,0.011700908,1,0,0,1.2799,rock_grid_rect_2,7,07,-1,-1,1.28,0.168506543,-0.414864381,1,0,0,5.9081,Peridotite_rect,7,5.908,1,6,0,6,0,1,,,,,,,,,,,,,
6266a599c7361af8b51a95e0,TCN,2024-06-21_10h48.13.353,LearnStrategy,2023.2.3,Linux x86_64,60.24096386,6,1,8,0.017326593,-0.000677307,1,0,0,1.2973,rock_grid_rect_2,4,14,-1,-1,1.297,0.373515685,-0.267698129,1,0,0,13.7704,Gabbro_rect,4,13.77,1,7,0,7,0,1,,,,,,,,,,,,,
6266a599c7361af8b51a95e0,TCN,2024-06-21_10h48.13.353,LearnStrategy,2023.2.3,Linux x86_64,60.24096386,6,1,9,0.020941575,-0.011019627,1,0,0,1.6305,rock_grid_rect_2,8,02,-1,-1,1.63,-0.11483256,-0.252987385,1,0,0,1.9132,Basalt_rect,2,1.913,0,8,0,8,0,1,,,,,,,,,,,,,
6266a599c7361af8b51a95e0,TCN,2024-06-21_10h48.13.353,LearnStrategy,2023.2.3,Linux x86_64,60.24096386,6,1,10,0.054121653,-0.007923881,1,0,0,1.6968,rock_grid_rect_2,1,11,-1,-1,1.697,0.412745635,-0.242177327,1,0,0,5.6748,Gabbro_rect,4,5.675,0,9,0,9,0,1,,,,,,,,,,,,,
6266a599c7361af8b51a95e0,TCN,2024-06-21_10h48.13.353,LearnStrategy,2023.2.3,Linux x86_64,60.24096386,6,1,11,-0.009051402,-0.001651367,1,0,0,1.5496,rock_grid_rect_2,6,08,-1,-1,1.55,-0.142071803,-0.391675552,1,0,0,2.3287,Pegmatite_rect,6,2.329,1,10,0,10,0,1,,,,,,,,,,,,,
6266a599c7361af8b51a95e0,TCN,2024-06-21_10h48.13.353,LearnStrategy,2023.2.3,Linux x86_64,60.24096386,6,1,12,0.016461531,0.009733717,1,0,0,1.5149,rock_grid_rect_2,5,07,-1,-1,1.515,-0.36678644,-0.40540576,1,0,0,1.8204,Obsidian_rect,5,1.82,1,11,0,11,0,1,,,,,,,,,,,,,
6266a599c7361af8b51a95e0,TCN,2024-06-21_10h48.13.353,LearnStrategy,2023.2.3,Linux x86_64,60.24096386,6,1,13,0.023062229,0.011507909,1,0,0,0.8463,rock_grid_rect_2,1,14,-1,-1,0.846,-0.117661635,-0.398748239,1,0,0,1.8545,Pegmatite_rect,6,1.854,0,12,0,12,0,1,,,,,,,,,,,,,
6266a599c7361af8b51a95e0,TCN,2024-06-21_10h48.13.353,LearnStrategy,2023.2.3,Linux x86_64,60.24096386,6,1,14,-0.026322047,0.004227956,1,0,0,1.4134,rock_grid_rect_2,7,08,-1,-1,1.413,0.154276371,-0.382857243,1,0,0,4.869,Peridotite_rect,7,4.869,1,13,0,13,0,1,,,,,,,,,,,,,
6266a599c7361af8b51a95e0,TCN,2024-06-21_10h48.13.353,LearnStrategy,2023.2.3,Linux x86_64,60.24096386,6,1,15,0.008612951,-0.006228089,1,0,0,1.5476,rock_grid_rect_2,3,13,-1,-1,1.548,0.130934556,-0.258930047,1,0,0,6.0876,Diorite_rect,3,6.088,1,14,0,14,0,1,,,,,,,,,,,,,
6266a599c7361af8b51a95e0,TCN,2024-06-21_10h48.13.353,LearnStrategy,2023.2.3,Linux x86_64,60.24096386,6,1,16,-0.030178706,0.003912131,1,0,0,2.1137,rock_grid_rect_2,2,10,-1,-1,2.114,-0.115635792,-0.233716726,1,0,0,2.263,Basalt_rect,2,2.263,1,15,0,15,0,1,,,,,,,,,,,,,
6266a599c7361af8b51a95e0,TCN,2024-06-21_10h48.13.353,LearnStrategy,2023.2.3,Linux x86_64,60.24096386,6,2,1,,,,,,,,2,02,,,,,,,,,,,2,12.149,1,,,,,,-0.078281562,-0.23771437,1,0,0,12.1486,Basalt_rect,0,0,0,0,1,
6266a599c7361af8b51a95e0,TCN,2024-06-21_10h48.13.353,LearnStrategy,2023.2.3,Linux x86_64,60.24096386,6,2,2,,,,,,,,8,06,,,,,,,,,,,8,3.1,1,,,,,,0.345750491,-0.397534768,1,0,0,3.0998,Pumice_rect,1,0,1,0,1,
6266a599c7361af8b51a95e0,TCN,2024-06-21_10h48.13.353,LearnStrategy,2023.2.3,Linux x86_64,60.24096386,6,2,3,,,,,,,,7,06,,,,,,,,,,,6,6.98,0,,,,,,-0.068942706,-0.40543739,1,0,0,6.9805,Pegmatite_rect,2,0,2,0,1,
6266a599c7361af8b51a95e0,TCN,2024-06-21_10h48.13.353,LearnStrategy,2023.2.3,Linux x86_64,60.24096386,6,2,4,,,,,,,,5,08,,,,,,,,,,,5,1.343,1,,,,,,-0.393216888,-0.394351562,1,0,0,1.3434,Obsidian_rect,3,0,3,0,1,
6266a599c7361af8b51a95e0,TCN,2024-06-21_10h48.13.353,LearnStrategy,2023.2.3,Linux x86_64,60.24096386,6,2,5,,,,,,,,6,05,,,,,,,,,,,6,3.936,1,,,,,,-0.133726517,-0.403388659,1,0,0,3.9358,Pegmatite_rect,4,0,4,0,1,
6266a599c7361af8b51a95e0,TCN,2024-06-21_10h48.13.353,LearnStrategy,2023.2.3,Linux x86_64,60.24096386,6,2,6,,,,,,,,1,06,,,,,,,,,,,1,7.054,1,,,,,,-0.413469791,-0.230348349,1,0,0,7.054,Andesite_rect,5,0,5,0,1,
6266a599c7361af8b51a95e0,TCN,2024-06-21_10h48.13.353,LearnStrategy,2023.2.3,Linux x86_64,60.24096386,6,2,7,,,,,,,,7,02,,,,,,,,,,,6,4.381,0,,,,,,-0.064438105,-0.401709795,1,0,0,4.3811,Pegmatite_rect,6,0,6,0,1,
6266a599c7361af8b51a95e0,TCN,2024-06-21_10h48.13.353,LearnStrategy,2023.2.3,Linux x86_64,60.24096386,6,2,8,,,,,,,,8,09,,,,,,,,,,,8,2.977,1,,,,,,0.406808456,-0.39440012,1,0,0,2.977,Pumice_rect,7,0,7,0,1,
6266a599c7361af8b51a95e0,TCN,2024-06-21_10h48.13.353,LearnStrategy,2023.2.3,Linux x86_64,60.24096386,6,2,9,,,,,,,,1,10,,,,,,,,,,,3,17.881,0,,,,,,0.154664675,-0.242371082,1,0,0,17.8805,Diorite_rect,8,0,8,0,1,
6266a599c7361af8b51a95e0,TCN,2024-06-21_10h48.13.353,LearnStrategy,2023.2.3,Linux x86_64,60.24096386,6,2,10,,,,,,,,3,15,,,,,,,,,,,1,15.217,0,,,,,,-0.364243189,-0.257939816,1,0,0,15.2174,Andesite_rect,9,0,9,0,1,
6266a599c7361af8b51a95e0,TCN,2024-06-21_10h48.13.353,LearnStrategy,2023.2.3,Linux x86_64,60.24096386,6,2,11,,,,,,,,5,09,,,,,,,,,,,5,2.137,1,,,,,,-0.379513939,-0.400882006,1,0,0,2.1374,Obsidian_rect,10,0,10,0,1,
6266a599c7361af8b51a95e0,TCN,2024-06-21_10h48.13.353,LearnStrategy,2023.2.3,Linux x86_64,60.24096386,6,2,12,,,,,,,,4,16,,,,,,,,,,,4,12.476,1,,,,,,0.410516818,-0.254487832,1,0,0,12.4757,Gabbro_rect,11,0,11,0,1,
6266a599c7361af8b51a95e0,TCN,2024-06-21_10h48.13.353,LearnStrategy,2023.2.3,Linux x86_64,60.24096386,6,2,13,,,,,,,,2,08,,,,,,,,,,,2,11.567,1,,,,,,-0.122375727,-0.243587732,1,0,0,11.5667,Basalt_rect,12,0,12,0,1,
6266a599c7361af8b51a95e0,TCN,2024-06-21_10h48.13.353,LearnStrategy,2023.2.3,Linux x86_64,60.24096386,6,2,14,,,,,,,,3,11,,,,,,,,,,,7,2.907,0,,,,,,0.110774914,-0.392740091,1,0,0,2.9075,Peridotite_rect,13,0,13,0,1,
6266a599c7361af8b51a95e0,TCN,2024-06-21_10h48.13.353,LearnStrategy,2023.2.3,Linux x86_64,60.24096386,6,2,15,,,,,,,,6,06,,,,,,,,,,,6,3.231,1,,,,,,-0.086447636,-0.416903655,1,0,0,3.2306,Pegmatite_rect,14,0,14,0,1,
6266a599c7361af8b51a95e0,TCN,2024-06-21_10h48.13.353,LearnStrategy,2023.2.3,Linux x86_64,60.24096386,6,2,16,,,,,,,,4,12,,,,,,,,,,,4,5.885,1,,,,,,0.415951967,-0.244644006,1,0,0,5.8852,Gabbro_rect,15,0,15,0,1,
6266a599c7361af8b51a95e0,TCN,2024-06-21_10h48.13.353,LearnStrategy,2023.2.3,Linux x86_64,60.24096386,7,1,1,0.006390254,0.000673175,1,0,0,2.0802,rock_grid_rect_2,1,14,-1,-1,2.08,0.126622995,-0.3992908,1,0,0,2.5011,Peridotite_rect,7,2.501,0,0,0,0,0,1,,,,,,,,,,,,,
6266a599c7361af8b51a95e0,TCN,2024-06-21_10h48.13.353,LearnStrategy,2023.2.3,Linux x86_64,60.24096386,7,1,2,-0.031224887,0.003824155,1,0,0,1.7845,rock_grid_rect_2,4,09,-1,-1,1.785,0.165989637,-0.419308106,1,0,0,10.9538,Peridotite_rect,7,10.954,0,1,0,1,0,1,,,,,,,,,,,,,
6266a599c7361af8b51a95e0,TCN,2024-06-21_10h48.13.353,LearnStrategy,2023.2.3,Linux x86_64,60.24096386,7,1,3,0.032377323,-0.001030723,1,0,0,1.449,rock_grid_rect_2,3,14,-1,-1,1.449,-0.332640648,-0.251568317,1,0,0,4.2264,Andesite_rect,1,4.226,0,2,0,2,0,1,,,,,,,,,,,,,
6266a599c7361af8b51a95e0,TCN,2024-06-21_10h48.13.353,LearnStrategy,2023.2.3,Linux x86_64,60.24096386,7,1,4,0.020163616,4.94719E-05,1,0,0,1.6515,rock_grid_rect_2,3,13,-1,-1,1.651,0.128206809,-0.24162062,1,0,0,2.3205,Diorite_rect,3,2.32,1,3,0,3,0,1,,,,,,,,,,,,,
6266a599c7361af8b51a95e0,TCN,2024-06-21_10h48.13.353,LearnStrategy,2023.2.3,Linux x86_64,60.24096386,7,1,5,0.007166227,-0.002595305,1,0,0,0.9805,rock_grid_rect_2,6,11,-1,-1,0.98,-0.126902421,-0.37944897,1,0,0,2.1156,Pegmatite_rect,6,2.116,1,4,0,4,0,1,,,,,,,,,,,,,
6266a599c7361af8b51a95e0,TCN,2024-06-21_10h48.13.353,LearnStrategy,2023.2.3,Linux x86_64,60.24096386,7,1,6,0.048809052,0.00354441,1,0,0,1.7975,rock_grid_rect_2,7,13,-1,-1,1.797,-0.135181904,-0.405896266,1,0,0,2.2363,Pegmatite_rect,6,2.236,0,5,0,5,0,1,,,,,,,,,,,,,
6266a599c7361af8b51a95e0,TCN,2024-06-21_10h48.13.353,LearnStrategy,2023.2.3,Linux x86_64,60.24096386,7,1,7,0.038969596,0.005737185,1,0,0,1.1807,rock_grid_rect_2,2,16,-1,-1,1.181,0.339063009,-0.24466761,1,0,0,3.0372,Gabbro_rect,4,3.037,0,6,0,6,0,1,,,,,,,,,,,,,
6266a599c7361af8b51a95e0,TCN,2024-06-21_10h48.13.353,LearnStrategy,2023.2.3,Linux x86_64,60.24096386,7,1,8,-0.080199003,0.010080298,1,0,0,0.9317,rock_grid_rect_2,1,01,-1,-1,0.932,-0.379078309,-0.236741543,1,0,0,1.9296,Andesite_rect,1,1.93,1,7,0,7,0,1,,,,,,,,,,,,,
6266a599c7361af8b51a95e0,TCN,2024-06-21_10h48.13.353,LearnStrategy,2023.2.3,Linux x86_64,60.24096386,7,1,9,0.020517588,0.005090872,1,0,0,0.8804,rock_grid_rect_2,8,05,-1,-1,0.88,0.374634107,-0.387295564,1,0,0,1.7092,Pumice_rect,8,1.709,1,8,0,8,0,1,,,,,,,,,,,,,
6266a599c7361af8b51a95e0,TCN,2024-06-21_10h48.13.353,LearnStrategy,2023.2.3,Linux x86_64,60.24096386,7,1,10,0.007833719,0.014377713,1,0,0,1.147,rock_grid_rect_2,6,13,-1,-1,1.147,-0.104658604,-0.416341543,1,0,0,3.9152,Pegmatite_rect,6,3.915,1,9,0,9,0,1,,,,,,,,,,,,,
6266a599c7361af8b51a95e0,TCN,2024-06-21_10h48.13.353,LearnStrategy,2023.2.3,Linux x86_64,60.24096386,7,1,11,-0.005931218,-0.008562843,1,0,0,1.2478,rock_grid_rect_2,4,03,-1,-1,1.248,0.133847793,-0.239353657,1,0,0,2.2468,Diorite_rect,3,2.247,0,10,0,10,0,1,,,,,,,,,,,,,
6266a599c7361af8b51a95e0,TCN,2024-06-21_10h48.13.353,LearnStrategy,2023.2.3,Linux x86_64,60.24096386,7,1,12,0.056642056,-0.015171528,1,0,0,1.3638,rock_grid_rect_2,5,14,-1,-1,1.364,-0.367643793,-0.392823696,1,0,0,1.5072,Obsidian_rect,5,1.507,1,11,0,11,0,1,,,,,,,,,,,,,
6266a599c7361af8b51a95e0,TCN,2024-06-21_10h48.13.353,LearnStrategy,2023.2.3,Linux x86_64,60.24096386,7,1,13,0.051114559,0.00347507,1,0,0,0.9307,rock_grid_rect_2,2,12,-1,-1,0.931,0.405142228,-0.400540034,1,0,0,1.872,Pumice_rect,8,1.872,0,12,0,12,0,1,,,,,,,,,,,,,
6266a599c7361af8b51a95e0,TCN,2024-06-21_10h48.13.353,LearnStrategy,2023.2.3,Linux x86_64,60.24096386,7,1,14,-0.048740705,-0.008783023,1,0,0,1.2551,rock_grid_rect_2,7,12,-1,-1,1.255,0.113366365,-0.410143137,1,0,0,2.4977,Peridotite_rect,7,2.498,1,13,0,13,0,1,,,,,,,,,,,,,
6266a599c7361af8b51a95e0,TCN,2024-06-21_10h48.13.353,LearnStrategy,2023.2.3,Linux x86_64,60.24096386,7,1,15,0.033422947,0.000909487,1,0,0,1.113,rock_grid_rect_2,8,02,-1,-1,1.113,0.394169887,-0.394138257,1,0,0,2.3437,Pumice_rect,8,2.344,1,14,0,14,0,1,,,,,,,,,,,,,
6266a599c7361af8b51a95e0,TCN,2024-06-21_10h48.13.353,LearnStrategy,2023.2.3,Linux x86_64,60.24096386,7,1,16,0.035310427,0.004816254,1,0,0,1.2809,rock_grid_rect_2,5,06,-1,-1,1.281,-0.417694569,-0.410029093,1,0,0,1.208,Obsidian_rect,5,1.208,1,15,0,15,0,1,,,,,,,,,,,,,
6266a599c7361af8b51a95e0,TCN,2024-06-21_10h48.13.353,LearnStrategy,2023.2.3,Linux x86_64,60.24096386,7,2,1,,,,,,,,3,02,,,,,,,,,,,1,2.576,0,,,,,,-0.398738901,-0.265473684,1,0,0,2.5757,Andesite_rect,0,0,0,0,1,
6266a599c7361af8b51a95e0,TCN,2024-06-21_10h48.13.353,LearnStrategy,2023.2.3,Linux x86_64,60.24096386,7,2,2,,,,,,,,1,04,,,,,,,,,,,4,21.67,0,,,,,,0.441586892,-0.264409463,1,0,0,21.6703,Gabbro_rect,1,0,1,0,1,
6266a599c7361af8b51a95e0,TCN,2024-06-21_10h48.13.353,LearnStrategy,2023.2.3,Linux x86_64,60.24096386,7,2,3,,,,,,,,5,11,,,,,,,,,,,5,2.868,1,,,,,,-0.37618796,-0.404500643,1,0,0,2.868,Obsidian_rect,2,0,2,0,1,
6266a599c7361af8b51a95e0,TCN,2024-06-21_10h48.13.353,LearnStrategy,2023.2.3,Linux x86_64,60.24096386,7,2,4,,,,,,,,2,14,,,,,,,,,,,2,4.403,1,,,,,,-0.132408937,-0.247481664,1,0,0,4.4032,Basalt_rect,3,0,3,0,1,
6266a599c7361af8b51a95e0,TCN,2024-06-21_10h48.13.353,LearnStrategy,2023.2.3,Linux x86_64,60.24096386,7,2,5,,,,,,,,1,06,,,,,,,,,,,4,11.82,0,,,,,,0.337483883,-0.268380483,1,0,0,11.8197,Gabbro_rect,4,0,4,0,1,
6266a599c7361af8b51a95e0,TCN,2024-06-21_10h48.13.353,LearnStrategy,2023.2.3,Linux x86_64,60.24096386,7,2,6,,,,,,,,4,15,,,,,,,,,,,7,2.034,0,,,,,,0.151291609,-0.417363008,1,0,0,2.0341,Peridotite_rect,5,0,5,0,1,
6266a599c7361af8b51a95e0,TCN,2024-06-21_10h48.13.353,LearnStrategy,2023.2.3,Linux x86_64,60.24096386,7,2,7,,,,,,,,7,02,,,,,,,,,,,6,2.332,0,,,,,,-0.089580139,-0.410182158,1,0,0,2.332,Pegmatite_rect,6,0,6,0,1,
6266a599c7361af8b51a95e0,TCN,2024-06-21_10h48.13.353,LearnStrategy,2023.2.3,Linux x86_64,60.24096386,7,2,8,,,,,,,,8,15,,,,,,,,,,,2,1.399,0,,,,,,-0.10383455,-0.255979061,1,0,0,1.399,Basalt_rect,7,0,7,0,1,
6266a599c7361af8b51a95e0,TCN,2024-06-21_10h48.13.353,LearnStrategy,2023.2.3,Linux x86_64,60.24096386,7,2,9,,,,,,,,7,15,,,,,,,,,,,6,3.201,0,,,,,,-0.126215935,-0.406738679,1,0,0,3.2011,Pegmatite_rect,8,0,8,0,1,
6266a599c7361af8b51a95e0,TCN,2024-06-21_10h48.13.353,LearnStrategy,2023.2.3,Linux x86_64,60.24096386,7,2,10,,,,,,,,5,09,,,,,,,,,,,5,1.022,1,,,,,,-0.443396211,-0.389572461,1,0,0,1.0217,Obsidian_rect,9,0,9,0,1,
6266a599c7361af8b51a95e0,TCN,2024-06-21_10h48.13.353,LearnStrategy,2023.2.3,Linux x86_64,60.24096386,7,2,11,,,,,,,,4,12,,,,,,,,,,,4,9.41,1,,,,,,0.406955719,-0.247244835,1,0,0,9.4103,Gabbro_rect,10,0,10,0,1,
6266a599c7361af8b51a95e0,TCN,2024-06-21_10h48.13.353,LearnStrategy,2023.2.3,Linux x86_64,60.24096386,7,2,12,,,,,,,,3,08,,,,,,,,,,,1,2.102,0,,,,,,-0.374213815,-0.236413638,1,0,0,2.1019,Andesite_rect,11,0,11,0,1,
6266a599c7361af8b51a95e0,TCN,2024-06-21_10h48.13.353,LearnStrategy,2023.2.3,Linux x86_64,60.24096386,7,2,13,,,,,,,,8,13,,,,,,,,,,,2,1.581,0,,,,,,-0.153977474,-0.238773266,1,0,0,1.5808,Basalt_rect,12,0,12,0,1,
6266a599c7361af8b51a95e0,TCN,2024-06-21_10h48.13.353,LearnStrategy,2023.2.3,Linux x86_64,60.24096386,7,2,14,,,,,,,,6,07,,,,,,,,,,,6,1.767,1,,,,,,-0.103893439,-0.404489517,1,0,0,1.7674,Pegmatite_rect,13,0,13,0,1,
6266a599c7361af8b51a95e0,TCN,2024-06-21_10h48.13.353,LearnStrategy,2023.2.3,Linux x86_64,60.24096386,7,2,15,,,,,,,,2,06,,,,,,,,,,,2,11.841,1,,,,,,-0.12999924,-0.270537059,1,0,0,11.8409,Basalt_rect,14,0,14,0,1,
6266a599c7361af8b51a95e0,TCN,2024-06-21_10h48.13.353,LearnStrategy,2023.2.3,Linux x86_64,60.24096386,7,2,16,,,,,,,,6,05,,,,,,,,,,,6,1.233,1,,,,,,-0.128499587,-0.41552941,1,0,0,1.233,Pegmatite_rect,15,0,15,0,1,
6266a599c7361af8b51a95e0,TCN,2024-06-21_10h48.13.353,LearnStrategy,2023.2.3,Linux x86_64,60.24096386,8,1,1,0.048187812,0.00940307,1,0,0,1.9123,rock_grid_rect_2,3,06,-1,-1,1.912,-0.374505003,-0.244532903,1,0,0,2.3165,Andesite_rect,1,2.316,0,0,0,0,0,1,,,,,,,,,,,,,
6266a599c7361af8b51a95e0,TCN,2024-06-21_10h48.13.353,LearnStrategy,2023.2.3,Linux x86_64,60.24096386,8,1,2,0.05525136,0.006776015,1,0,0,1.5635,rock_grid_rect_2,2,04,-1,-1,1.564,-0.109508038,-0.248444239,1,0,0,2.0453,Basalt_rect,2,2.045,1,1,0,1,0,1,,,,,,,,,,,,,
6266a599c7361af8b51a95e0,TCN,2024-06-21_10h48.13.353,LearnStrategy,2023.2.3,Linux x86_64,60.24096386,8,1,3,-0.047357639,0.00766623,1,0,0,1.38,rock_grid_rect_2,6,10,-1,-1,1.38,-0.123984734,-0.389246543,1,0,0,1.2631,Pegmatite_rect,6,1.263,1,2,0,2,0,1,,,,,,,,,,,,,
6266a599c7361af8b51a95e0,TCN,2024-06-21_10h48.13.353,LearnStrategy,2023.2.3,Linux x86_64,60.24096386,8,1,4,-0.002045393,0.010591269,1,0,0,1.7142,rock_grid_rect_2,2,10,-1,-1,1.714,0.391448418,-0.244088093,1,0,0,1.7708,Gabbro_rect,4,1.771,0,3,0,3,0,1,,,,,,,,,,,,,
6266a599c7361af8b51a95e0,TCN,2024-06-21_10h48.13.353,LearnStrategy,2023.2.3,Linux x86_64,60.24096386,8,1,5,0.013178666,0.001913389,1,0,0,1.5643,rock_grid_rect_2,8,04,-1,-1,1.564,0.408415318,-0.389660915,1,0,0,1.3379,Pumice_rect,8,1.338,1,4,0,4,0,1,,,,,,,,,,,,,
6266a599c7361af8b51a95e0,TCN,2024-06-21_10h48.13.353,LearnStrategy,2023.2.3,Linux x86_64,60.24096386,8,1,6,-0.025118351,-0.011691809,1,0,0,0.8971,rock_grid_rect_2,3,10,-1,-1,0.897,-0.368932287,-0.256007353,1,0,0,1.5566,Andesite_rect,1,1.557,0,5,0,5,0,1,,,,,,,,,,,,,
6266a599c7361af8b51a95e0,TCN,2024-06-21_10h48.13.353,LearnStrategy,2023.2.3,Linux x86_64,60.24096386,8,1,7,0.070955118,-0.017263651,1,0,0,1.3632,rock_grid_rect_2,8,03,-1,-1,1.363,-0.160430431,-0.258833329,1,0,0,1.4227,Basalt_rect,2,1.423,0,6,0,6,0,1,,,,,,,,,,,,,
6266a599c7361af8b51a95e0,TCN,2024-06-21_10h48.13.353,LearnStrategy,2023.2.3,Linux x86_64,60.24096386,8,1,8,0.028042714,-0.014464736,1,0,0,0.9309,rock_grid_rect_2,4,11,-1,-1,0.931,0.422795931,-0.24166886,1,0,0,1.7566,Gabbro_rect,4,1.757,1,7,0,7,0,1,,,,,,,,,,,,,
6266a599c7361af8b51a95e0,TCN,2024-06-21_10h48.13.353,LearnStrategy,2023.2.3,Linux x86_64,60.24096386,8,1,9,0.004080057,-0.005388021,1,0,0,0.9647,rock_grid_rect_2,1,07,-1,-1,0.965,0.097172658,-0.25117437,1,0,0,2.7812,Diorite_rect,3,2.781,0,8,0,8,0,1,,,,,,,,,,,,,
6266a599c7361af8b51a95e0,TCN,2024-06-21_10h48.13.353,LearnStrategy,2023.2.3,Linux x86_64,60.24096386,8,1,10,-0.032168309,-0.012278557,1,0,0,1.2811,rock_grid_rect_2,1,05,-1,-1,1.281,0.101538261,-0.25707531,1,0,0,3.082,Diorite_rect,3,3.082,0,9,0,9,0,1,,,,,,,,,,,,,
6266a599c7361af8b51a95e0,TCN,2024-06-21_10h48.13.353,LearnStrategy,2023.2.3,Linux x86_64,60.24096386,8,1,11,-0.005128066,-0.007484714,1,0,0,1.3477,rock_grid_rect_2,5,10,-1,-1,1.348,-0.414328138,-0.388553858,1,0,0,1.7243,Obsidian_rect,5,1.724,1,10,0,10,0,1,,,,,,,,,,,,,
6266a599c7361af8b51a95e0,TCN,2024-06-21_10h48.13.353,LearnStrategy,2023.2.3,Linux x86_64,60.24096386,8,1,12,0.052690744,0.017070413,1,0,0,1.014,rock_grid_rect_2,6,08,-1,-1,1.014,-0.126073281,-0.393158595,1,0,0,1.4651,Pegmatite_rect,6,1.465,1,11,0,11,0,1,,,,,,,,,,,,,
6266a599c7361af8b51a95e0,TCN,2024-06-21_10h48.13.353,LearnStrategy,2023.2.3,Linux x86_64,60.24096386,8,1,13,-0.052393516,-0.009988626,1,0,0,1.231,rock_grid_rect_2,5,07,-1,-1,1.231,-0.387690226,-0.408604701,1,0,0,2.5925,Obsidian_rect,5,2.593,1,12,0,12,0,1,,,,,,,,,,,,,
6266a599c7361af8b51a95e0,TCN,2024-06-21_10h48.13.353,LearnStrategy,2023.2.3,Linux x86_64,60.24096386,8,1,14,-0.011494319,0.015870174,1,0,0,0.9305,rock_grid_rect_2,7,04,-1,-1,0.93,0.153521935,-0.388481299,1,0,0,1.6395,Peridotite_rect,7,1.64,1,13,0,13,0,1,,,,,,,,,,,,,
6266a599c7361af8b51a95e0,TCN,2024-06-21_10h48.13.353,LearnStrategy,2023.2.3,Linux x86_64,60.24096386,8,1,15,0.033865134,0.000582059,1,0,0,1.1143,rock_grid_rect_2,7,16,-1,-1,1.114,0.122488737,-0.40057524,1,0,0,1.7232,Peridotite_rect,7,1.723,1,14,0,14,0,1,,,,,,,,,,,,,
6266a599c7361af8b51a95e0,TCN,2024-06-21_10h48.13.353,LearnStrategy,2023.2.3,Linux x86_64,60.24096386,8,1,16,0.021279097,0.012221018,1,0,0,1.0974,rock_grid_rect_2,4,13,-1,-1,1.097,0.419326146,-0.244290193,1,0,0,6.0507,Gabbro_rect,4,6.051,1,15,0,15,0,1,,,,,,,,,,,,,
6266a599c7361af8b51a95e0,TCN,2024-06-21_10h48.13.353,LearnStrategy,2023.2.3,Linux x86_64,60.24096386,8,2,1,,,,,,,,7,10,,,,,,,,,,,7,2.734,1,,,,,,0.12730217,-0.401290337,1,0,0,2.7337,Peridotite_rect,0,0,0,0,1,
6266a599c7361af8b51a95e0,TCN,2024-06-21_10h48.13.353,LearnStrategy,2023.2.3,Linux x86_64,60.24096386,8,2,2,,,,,,,,4,05,,,,,,,,,,,4,4.253,1,,,,,,0.395103057,-0.265522242,1,0,0,4.2534,Gabbro_rect,1,0,1,0,1,
6266a599c7361af8b51a95e0,TCN,2024-06-21_10h48.13.353,LearnStrategy,2023.2.3,Linux x86_64,60.24096386,8,2,3,,,,,,,,6,06,,,,,,,,,,,6,1.889,1,,,,,,-0.110127608,-0.400738955,1,0,0,1.8886,Pegmatite_rect,2,0,2,0,1,
6266a599c7361af8b51a95e0,TCN,2024-06-21_10h48.13.353,LearnStrategy,2023.2.3,Linux x86_64,60.24096386,8,2,4,,,,,,,,8,06,,,,,,,,,,,8,1.866,1,,,,,,0.405321121,-0.407793204,1,0,0,1.8664,Pumice_rect,3,0,3,0,1,
6266a599c7361af8b51a95e0,TCN,2024-06-21_10h48.13.353,LearnStrategy,2023.2.3,Linux x86_64,60.24096386,8,2,5,,,,,,,,5,12,,,,,,,,,,,5,1.344,1,,,,,,-0.437821269,-0.385901133,1,0,0,1.3439,Obsidian_rect,4,0,4,0,1,
6266a599c7361af8b51a95e0,TCN,2024-06-21_10h48.13.353,LearnStrategy,2023.2.3,Linux x86_64,60.24096386,8,2,6,,,,,,,,3,09,,,,,,,,,,,3,4.1,1,,,,,,0.144035816,-0.258657773,1,0,0,4.0996,Diorite_rect,5,0,5,0,1,
6266a599c7361af8b51a95e0,TCN,2024-06-21_10h48.13.353,LearnStrategy,2023.2.3,Linux x86_64,60.24096386,8,2,7,,,,,,,,6,16,,,,,,,,,,,6,2.419,1,,,,,,-0.112528563,-0.416047255,1,0,0,2.4189,Pegmatite_rect,6,0,6,0,1,
6266a599c7361af8b51a95e0,TCN,2024-06-21_10h48.13.353,LearnStrategy,2023.2.3,Linux x86_64,60.24096386,8,2,8,,,,,,,,4,01,,,,,,,,,,,7,1.612,0,,,,,,0.110307932,-0.390099049,1,0,0,1.6119,Peridotite_rect,7,0,7,0,1,
6266a599c7361af8b51a95e0,TCN,2024-06-21_10h48.13.353,LearnStrategy,2023.2.3,Linux x86_64,60.24096386,8,2,9,,,,,,,,7,14,,,,,,,,,,,7,1.646,1,,,,,,0.110307932,-0.390099049,1,0,0,1.6461,Peridotite_rect,8,0,8,0,1,
6266a599c7361af8b51a95e0,TCN,2024-06-21_10h48.13.353,LearnStrategy,2023.2.3,Linux x86_64,60.24096386,8,2,10,,,,,,,,1,10,,,,,,,,,,,2,2.841,0,,,,,,-0.123004119,-0.252438943,1,0,0,2.8408,Basalt_rect,9,0,9,0,1,
6266a599c7361af8b51a95e0,TCN,2024-06-21_10h48.13.353,LearnStrategy,2023.2.3,Linux x86_64,60.24096386,8,2,11,,,,,,,,3,11,,,,,,,,,,,1,3.286,0,,,,,,-0.372169296,-0.250751654,1,0,0,3.2856,Andesite_rect,10,0,10,0,1,
6266a599c7361af8b51a95e0,TCN,2024-06-21_10h48.13.353,LearnStrategy,2023.2.3,Linux x86_64,60.24096386,8,2,12,,,,,,,,5,08,,,,,,,,,,,5,1.739,1,,,,,,-0.379915992,-0.388370037,1,0,0,1.7386,Obsidian_rect,11,0,11,0,1,
6266a599c7361af8b51a95e0,TCN,2024-06-21_10h48.13.353,LearnStrategy,2023.2.3,Linux x86_64,60.24096386,8,2,13,,,,,,,,2,02,,,,,,,,,,,4,12.774,0,,,,,,0.361003319,-0.245612939,1,0,0,12.7737,Gabbro_rect,12,0,12,0,1,
6266a599c7361af8b51a95e0,TCN,2024-06-21_10h48.13.353,LearnStrategy,2023.2.3,Linux x86_64,60.24096386,8,2,14,,,,,,,,2,08,,,,,,,,,,,2,12.539,1,,,,,,-0.134688934,-0.24713397,1,0,0,12.5387,Basalt_rect,13,0,13,0,1,
6266a599c7361af8b51a95e0,TCN,2024-06-21_10h48.13.353,LearnStrategy,2023.2.3,Linux x86_64,60.24096386,8,2,15,,,,,,,,8,09,,,,,,,,,,,8,2.478,1,,,,,,0.396390676,-0.39768513,1,0,0,2.4776,Pumice_rect,14,0,14,0,1,
6266a599c7361af8b51a95e0,TCN,2024-06-21_10h48.13.353,LearnStrategy,2023.2.3,Linux x86_64,60.24096386,8,2,16,,,,,,,,1,02,,,,,,,,,,,1,4.093,1,,,,,,-0.360885223,-0.250807365,1,0,0,4.0927,Andesite_rect,15,0,15,0,1,
6266a599c7361af8b51a95e0,TCN,2024-06-21_10h48.13.353,LearnStrategy,2023.2.3,Linux x86_64,60.24096386,9,1,1,-0.03215607,-0.009377956,1,0,0,1.3937,rock_grid_rect_2,2,05,-1,-1,1.394,-0.111024618,-0.25340724,1,0,0,1.4663,Basalt_rect,2,1.466,1,0,0,0,0,1,,,,,,,,,,,,,
6266a599c7361af8b51a95e0,TCN,2024-06-21_10h48.13.353,LearnStrategy,2023.2.3,Linux x86_64,60.24096386,9,1,2,0.057972113,0.005956888,1,0,0,1.2807,rock_grid_rect_2,6,12,-1,-1,1.281,-0.126263698,-0.41264836,1,0,0,3.3267,Pegmatite_rect,6,3.327,1,1,0,1,0,1,,,,,,,,,,,,,
6266a599c7361af8b51a95e0,TCN,2024-06-21_10h48.13.353,LearnStrategy,2023.2.3,Linux x86_64,60.24096386,9,1,3,-0.008972565,-0.002894362,1,0,0,1.2641,rock_grid_rect_2,1,11,-1,-1,1.264,0.136065404,-0.238786459,1,0,0,9.5646,Diorite_rect,3,9.565,0,2,0,2,0,1,,,,,,,,,,,,,
6266a599c7361af8b51a95e0,TCN,2024-06-21_10h48.13.353,LearnStrategy,2023.2.3,Linux x86_64,60.24096386,9,1,4,0.015526136,-0.001950701,1,0,0,2.03,rock_grid_rect_2,4,10,-1,-1,2.03,-0.097416719,-0.26218462,1,0,0,2.0694,Basalt_rect,2,2.069,0,3,0,3,0,1,,,,,,,,,,,,,
6266a599c7361af8b51a95e0,TCN,2024-06-21_10h48.13.353,LearnStrategy,2023.2.3,Linux x86_64,60.24096386,9,1,5,0.064673185,-0.010861715,1,0,0,1.7504,rock_grid_rect_2,1,09,-1,-1,1.75,0.335231304,-0.245936314,1,0,0,1.8748,Gabbro_rect,4,1.875,0,4,0,4,0,1,,,,,,,,,,,,,
6266a599c7361af8b51a95e0,TCN,2024-06-21_10h48.13.353,LearnStrategy,2023.2.3,Linux x86_64,60.24096386,9,1,6,-0.000561555,-0.007784486,1,0,0,1.8309,rock_grid_rect_2,5,02,-1,-1,1.831,-0.388788184,-0.386730591,1,0,0,1.5269,Obsidian_rect,5,1.527,1,5,0,5,0,1,,,,,,,,,,,,,
6266a599c7361af8b51a95e0,TCN,2024-06-21_10h48.13.353,LearnStrategy,2023.2.3,Linux x86_64,60.24096386,9,1,7,0.101433913,0.00244383,1,0,0,1.164,rock_grid_rect_2,8,14,-1,-1,1.164,0.429428895,-0.393097321,1,0,0,1.9896,Pumice_rect,8,1.99,1,6,0,6,0,1,,,,,,,,,,,,,
6266a599c7361af8b51a95e0,TCN,2024-06-21_10h48.13.353,LearnStrategy,2023.2.3,Linux x86_64,60.24096386,9,1,8,0.01028196,-0.005244692,1,0,0,1.864,rock_grid_rect_2,7,08,-1,-1,1.864,0.081732591,-0.388617992,1,0,0,1.4264,Peridotite_rect,7,1.426,1,7,0,7,0,1,,,,,,,,,,,,,
6266a599c7361af8b51a95e0,TCN,2024-06-21_10h48.13.353,LearnStrategy,2023.2.3,Linux x86_64,60.24096386,9,1,9,0.034649611,-0.005019466,1,0,0,1.2483,rock_grid_rect_2,2,01,-1,-1,1.248,0.375361999,-0.252901236,1,0,0,1.3566,Gabbro_rect,4,1.357,0,8,0,8,0,1,,,,,,,,,,,,,
6266a599c7361af8b51a95e0,TCN,2024-06-21_10h48.13.353,LearnStrategy,2023.2.3,Linux x86_64,60.24096386,9,1,10,0.014156024,-0.010465066,1,0,0,1.4141,rock_grid_rect_2,3,07,-1,-1,1.414,0.140265067,-0.238517443,1,0,0,2.2651,Diorite_rect,3,2.265,1,9,0,9,0,1,,,,,,,,,,,,,
6266a599c7361af8b51a95e0,TCN,2024-06-21_10h48.13.353,LearnStrategy,2023.2.3,Linux x86_64,60.24096386,9,1,11,0.004865567,0.002628644,1,0,0,1.1571,rock_grid_rect_2,8,08,-1,-1,1.157,-0.140580734,-0.252500614,1,0,0,1.497,Basalt_rect,2,1.497,0,10,0,10,0,1,,,,,,,,,,,,,
6266a599c7361af8b51a95e0,TCN,2024-06-21_10h48.13.353,LearnStrategy,2023.2.3,Linux x86_64,60.24096386,9,1,12,0.090298255,-0.003241698,1,0,0,1.58,rock_grid_rect_2,5,05,-1,-1,1.58,-0.171776454,-0.397583961,1,0,0,1.2802,Pegmatite_rect,6,1.28,0,11,0,11,0,1,,,,,,,,,,,,,
6266a599c7361af8b51a95e0,TCN,2024-06-21_10h48.13.353,LearnStrategy,2023.2.3,Linux x86_64,60.24096386,9,1,13,-0.006422281,0.000839949,1,0,0,1.5474,rock_grid_rect_2,6,03,-1,-1,1.547,-0.107079824,-0.413983504,1,0,0,1.3647,Pegmatite_rect,6,1.365,1,12,0,12,0,1,,,,,,,,,,,,,
6266a599c7361af8b51a95e0,TCN,2024-06-21_10h48.13.353,LearnStrategy,2023.2.3,Linux x86_64,60.24096386,9,1,14,0.010658264,0.002064625,1,0,0,1.1144,rock_grid_rect_2,4,14,-1,-1,1.114,-0.137684027,-0.270625035,1,0,0,1.1889,Basalt_rect,2,1.189,0,13,0,13,0,1,,,,,,,,,,,,,
6266a599c7361af8b51a95e0,TCN,2024-06-21_10h48.13.353,LearnStrategy,2023.2.3,Linux x86_64,60.24096386,9,1,15,0.040049156,0.002683163,1,0,0,0.9811,rock_grid_rect_2,7,07,-1,-1,0.981,0.116342624,-0.421315352,1,0,0,1.4573,Peridotite_rect,7,1.457,1,14,0,14,0,1,,,,,,,,,,,,,
6266a599c7361af8b51a95e0,TCN,2024-06-21_10h48.13.353,LearnStrategy,2023.2.3,Linux x86_64,60.24096386,9,1,16,-0.023701588,0.003237685,1,0,0,0.9471,rock_grid_rect_2,3,16,-1,-1,0.947,0.116633495,-0.232505878,1,0,0,1.3462,Diorite_rect,3,1.346,1,15,0,15,0,1,,,,,,,,,,,,,
6266a599c7361af8b51a95e0,TCN,2024-06-21_10h48.13.353,LearnStrategy,2023.2.3,Linux x86_64,60.24096386,9,2,1,,,,,,,,7,06,,,,,,,,,,,7,3.461,1,,,,,,0.087832133,-0.392335892,1,0,0,3.4609,Peridotite_rect,0,0,0,0,1,
6266a599c7361af8b51a95e0,TCN,2024-06-21_10h48.13.353,LearnStrategy,2023.2.3,Linux x86_64,60.24096386,9,2,2,,,,,,,,2,11,,,,,,,,,,,2,3.844,1,,,,,,-0.136383931,-0.228905042,1,0,0,3.8442,Basalt_rect,1,0,1,0,1,
6266a599c7361af8b51a95e0,TCN,2024-06-21_10h48.13.353,LearnStrategy,2023.2.3,Linux x86_64,60.24096386,9,2,3,,,,,,,,7,05,,,,,,,,,,,7,4.018,1,,,,,,0.125103315,-0.396898031,1,0,0,4.0179,Peridotite_rect,2,0,2,0,1,
6266a599c7361af8b51a95e0,TCN,2024-06-21_10h48.13.353,LearnStrategy,2023.2.3,Linux x86_64,60.24096386,9,2,4,,,,,,,,8,16,,,,,,,,,,,2,2.706,0,,,,,,-0.157071034,-0.248382092,1,0,0,2.706,Basalt_rect,3,0,3,0,1,
6266a599c7361af8b51a95e0,TCN,2024-06-21_10h48.13.353,LearnStrategy,2023.2.3,Linux x86_64,60.24096386,9,2,5,,,,,,,,4,16,,,,,,,,,,,4,1.385,1,,,,,,0.383653641,-0.249817451,1,0,0,1.3854,Gabbro_rect,4,0,4,0,1,
6266a599c7361af8b51a95e0,TCN,2024-06-21_10h48.13.353,LearnStrategy,2023.2.3,Linux x86_64,60.24096386,9,2,6,,,,,,,,4,08,,,,,,,,,,,1,1.508,0,,,,,,-0.381794572,-0.248219728,1,0,0,1.5083,Andesite_rect,5,0,5,0,1,
6266a599c7361af8b51a95e0,TCN,2024-06-21_10h48.13.353,LearnStrategy,2023.2.3,Linux x86_64,60.24096386,9,2,7,,,,,,,,5,04,,,,,,,,,,,5,1.374,1,,,,,,-0.369287491,-0.413234154,1,0,0,1.3745,Obsidian_rect,6,0,6,0,1,
6266a599c7361af8b51a95e0,TCN,2024-06-21_10h48.13.353,LearnStrategy,2023.2.3,Linux x86_64,60.24096386,9,2,8,,,,,,,,5,16,,,,,,,,,,,5,0.815,1,,,,,,-0.369287491,-0.413234154,1,0,0,0.8147,Obsidian_rect,7,0,7,0,1,
6266a599c7361af8b51a95e0,TCN,2024-06-21_10h48.13.353,LearnStrategy,2023.2.3,Linux x86_64,60.24096386,9,2,9,,,,,,,,8,10,,,,,,,,,,,2,1.767,0,,,,,,-0.114997069,-0.245289644,1,0,0,1.7668,Basalt_rect,8,0,8,0,1,
6266a599c7361af8b51a95e0,TCN,2024-06-21_10h48.13.353,LearnStrategy,2023.2.3,Linux x86_64,60.24096386,9,2,10,,,,,,,,2,09,,,,,,,,,,,4,1.553,0,,,,,,0.342639685,-0.233280102,1,0,0,1.5529,Gabbro_rect,9,0,9,0,1,
6266a599c7361af8b51a95e0,TCN,2024-06-21_10h48.13.353,LearnStrategy,2023.2.3,Linux x86_64,60.24096386,9,2,11,,,,,,,,3,12,,,,,,,,,,,3,1.247,1,,,,,,0.132979949,-0.267316262,1,0,0,1.247,Diorite_rect,10,0,10,0,1,
6266a599c7361af8b51a95e0,TCN,2024-06-21_10h48.13.353,LearnStrategy,2023.2.3,Linux x86_64,60.24096386,9,2,12,,,,,,,,6,09,,,,,,,,,,,6,1.224,1,,,,,,-0.110920509,-0.390208403,1,0,0,1.2245,Pegmatite_rect,11,0,11,0,1,
6266a599c7361af8b51a95e0,TCN,2024-06-21_10h48.13.353,LearnStrategy,2023.2.3,Linux x86_64,60.24096386,9,2,13,,,,,,,,3,15,,,,,,,,,,,3,1.855,1,,,,,,0.142134984,-0.259828329,1,0,0,1.8553,Diorite_rect,12,0,12,0,1,
6266a599c7361af8b51a95e0,TCN,2024-06-21_10h48.13.353,LearnStrategy,2023.2.3,Linux x86_64,60.24096386,9,2,14,,,,,,,,1,16,,,,,,,,,,,1,4.541,1,,,,,,-0.374740799,-0.245721102,1,0,0,4.5415,Andesite_rect,13,0,13,0,1,
6266a599c7361af8b51a95e0,TCN,2024-06-21_10h48.13.353,LearnStrategy,2023.2.3,Linux x86_64,60.24096386,9,2,15,,,,,,,,1,03,,,,,,,,,,,4,1.834,0,,,,,,0.427050829,-0.2483085,1,0,0,1.8337,Gabbro_rect,14,0,14,0,1,
6266a599c7361af8b51a95e0,TCN,2024-06-21_10h48.13.353,LearnStrategy,2023.2.3,Linux x86_64,60.24096386,9,2,16,,,,,,,,6,15,,,,,,,,,,,6,2.087,1,,,,,,-0.116236369,-0.402137836,1,0,0,2.0868,Pegmatite_rect,15,0,15,0,1,
6266a599c7361af8b51a95e0,TCN,2024-06-21_10h48.13.353,LearnStrategy,2023.2.3,Linux x86_64,60.24096386,,,,,,,,,,,,,,,,,,,,,,,,,,,,,,,,,,,,,,,,,,,0
6266a599c7361af8b51a95e0,TCN,2024-06-21_10h48.13.353,LearnStrategy,2023.2.3,Linux x86_64,60.24096386,,,,,,,,,,,,,,,,,,,,,,,,,,,,,,,,,,,,,,,,,,,
6266a599c7361af8b51a95e0,TCN,2024-06-21_10h48.13.353,LearnStrategy,2023.2.3,Linux x86_64,60.24096386,,,,,,,,,,,8,14,1,1,,,,,,,,,,,,,,,,,,,,,,,,,,,,,
6266a599c7361af8b51a95e0,TCN,2024-06-21_10h48.13.353,LearnStrategy,2023.2.3,Linux x86_64,60.24096386,,,,,,,,,,,1,05,1,2,,,,,,,,,,,,,,,,,,,,,,,,,,,,,
6266a599c7361af8b51a95e0,TCN,2024-06-21_10h48.13.353,LearnStrategy,2023.2.3,Linux x86_64,60.24096386,,,,,,,,,,,7,13,1,3,,,,,,,,,,,,,,,,,,,,,,,,,,,,,
6266a599c7361af8b51a95e0,TCN,2024-06-21_10h48.13.353,LearnStrategy,2023.2.3,Linux x86_64,60.24096386,,,,,,,,,,,3,13,1,4,,,,,,,,,,,,,,,,,,,,,,,,,,,,,
6266a599c7361af8b51a95e0,TCN,2024-06-21_10h48.13.353,LearnStrategy,2023.2.3,Linux x86_64,60.24096386,,,,,,,,,,,5,02,1,5,,,,,,,,,,,,,,,,,,,,,,,,,,,,,
6266a599c7361af8b51a95e0,TCN,2024-06-21_10h48.13.353,LearnStrategy,2023.2.3,Linux x86_64,60.24096386,,,,,,,,,,,6,03,1,6,,,,,,,,,,,,,,,,,,,,,,,,,,,,,
6266a599c7361af8b51a95e0,TCN,2024-06-21_10h48.13.353,LearnStrategy,2023.2.3,Linux x86_64,60.24096386,,,,,,,,,,,6,13,1,7,,,,,,,,,,,,,,,,,,,,,,,,,,,,,
6266a599c7361af8b51a95e0,TCN,2024-06-21_10h48.13.353,LearnStrategy,2023.2.3,Linux x86_64,60.24096386,,,,,,,,,,,5,05,1,8,,,,,,,,,,,,,,,,,,,,,,,,,,,,,
6266a599c7361af8b51a95e0,TCN,2024-06-21_10h48.13.353,LearnStrategy,2023.2.3,Linux x86_64,60.24096386,,,,,,,,,,,8,08,2,1,,,,,,,,,,,,,,,,,,,,,,,,,,,,,
6266a599c7361af8b51a95e0,TCN,2024-06-21_10h48.13.353,LearnStrategy,2023.2.3,Linux x86_64,60.24096386,,,,,,,,,,,3,07,2,2,,,,,,,,,,,,,,,,,,,,,,,,,,,,,
6266a599c7361af8b51a95e0,TCN,2024-06-21_10h48.13.353,LearnStrategy,2023.2.3,Linux x86_64,60.24096386,,,,,,,,,,,5,07,2,3,,,,,,,,,,,,,,,,,,,,,,,,,,,,,
6266a599c7361af8b51a95e0,TCN,2024-06-21_10h48.13.353,LearnStrategy,2023.2.3,Linux x86_64,60.24096386,,,,,,,,,,,4,10,2,4,,,,,,,,,,,,,,,,,,,,,,,,,,,,,
6266a599c7361af8b51a95e0,TCN,2024-06-21_10h48.13.353,LearnStrategy,2023.2.3,Linux x86_64,60.24096386,,,,,,,,,,,4,13,2,5,,,,,,,,,,,,,,,,,,,,,,,,,,,,,
6266a599c7361af8b51a95e0,TCN,2024-06-21_10h48.13.353,LearnStrategy,2023.2.3,Linux x86_64,60.24096386,,,,,,,,,,,4,03,2,6,,,,,,,,,,,,,,,,,,,,,,,,,,,,,
6266a599c7361af8b51a95e0,TCN,2024-06-21_10h48.13.353,LearnStrategy,2023.2.3,Linux x86_64,60.24096386,,,,,,,,,,,3,14,2,7,,,,,,,,,,,,,,,,,,,,,,,,,,,,,
6266a599c7361af8b51a95e0,TCN,2024-06-21_10h48.13.353,LearnStrategy,2023.2.3,Linux x86_64,60.24096386,,,,,,,,,,,3,10,2,8,,,,,,,,,,,,,,,,,,,,,,,,,,,,,
6266a599c7361af8b51a95e0,TCN,2024-06-21_10h48.13.353,LearnStrategy,2023.2.3,Linux x86_64,60.24096386,,,,,,,,,,,5,06,3,1,,,,,,,,,,,,,,,,,,,,,,,,,,,,,
6266a599c7361af8b51a95e0,TCN,2024-06-21_10h48.13.353,LearnStrategy,2023.2.3,Linux x86_64,60.24096386,,,,,,,,,,,4,09,3,2,,,,,,,,,,,,,,,,,,,,,,,,,,,,,
6266a599c7361af8b51a95e0,TCN,2024-06-21_10h48.13.353,LearnStrategy,2023.2.3,Linux x86_64,60.24096386,,,,,,,,,,,2,04,3,3,,,,,,,,,,,,,,,,,,,,,,,,,,,,,
6266a599c7361af8b51a95e0,TCN,2024-06-21_10h48.13.353,LearnStrategy,2023.2.3,Linux x86_64,60.24096386,,,,,,,,,,,2,01,3,4,,,,,,,,,,,,,,,,,,,,,,,,,,,,,
6266a599c7361af8b51a95e0,TCN,2024-06-21_10h48.13.353,LearnStrategy,2023.2.3,Linux x86_64,60.24096386,,,,,,,,,,,6,12,3,5,,,,,,,,,,,,,,,,,,,,,,,,,,,,,
6266a599c7361af8b51a95e0,TCN,2024-06-21_10h48.13.353,LearnStrategy,2023.2.3,Linux x86_64,60.24096386,,,,,,,,,,,4,11,3,6,,,,,,,,,,,,,,,,,,,,,,,,,,,,,
6266a599c7361af8b51a95e0,TCN,2024-06-21_10h48.13.353,LearnStrategy,2023.2.3,Linux x86_64,60.24096386,,,,,,,,,,,2,16,3,7,,,,,,,,,,,,,,,,,,,,,,,,,,,,,
6266a599c7361af8b51a95e0,TCN,2024-06-21_10h48.13.353,LearnStrategy,2023.2.3,Linux x86_64,60.24096386,,,,,,,,,,,2,05,3,8,,,,,,,,,,,,,,,,,,,,,,,,,,,,,
6266a599c7361af8b51a95e0,TCN,2024-06-21_10h48.13.353,LearnStrategy,2023.2.3,Linux x86_64,60.24096386,,,,,,,,,,,4,14,4,1,,,,,,,,,,,,,,,,,,,,,,,,,,,,,
6266a599c7361af8b51a95e0,TCN,2024-06-21_10h48.13.353,LearnStrategy,2023.2.3,Linux x86_64,60.24096386,,,,,,,,,,,3,16,4,2,,,,,,,,,,,,,,,,,,,,,,,,,,,,,
6266a599c7361af8b51a95e0,TCN,2024-06-21_10h48.13.353,LearnStrategy,2023.2.3,Linux x86_64,60.24096386,,,,,,,,,,,8,03,4,3,,,,,,,,,,,,,,,,,,,,,,,,,,,,,
6266a599c7361af8b51a95e0,TCN,2024-06-21_10h48.13.353,LearnStrategy,2023.2.3,Linux x86_64,60.24096386,,,,,,,,,,,7,04,4,4,,,,,,,,,,,,,,,,,,,,,,,,,,,,,
6266a599c7361af8b51a95e0,TCN,2024-06-21_10h48.13.353,LearnStrategy,2023.2.3,Linux x86_64,60.24096386,,,,,,,,,,,1,09,4,5,,,,,,,,,,,,,,,,,,,,,,,,,,,,,
6266a599c7361af8b51a95e0,TCN,2024-06-21_10h48.13.353,LearnStrategy,2023.2.3,Linux x86_64,60.24096386,,,,,,,,,,,5,10,4,6,,,,,,,,,,,,,,,,,,,,,,,,,,,,,
6266a599c7361af8b51a95e0,TCN,2024-06-21_10h48.13.353,LearnStrategy,2023.2.3,Linux x86_64,60.24096386,,,,,,,,,,,1,14,4,7,,,,,,,,,,,,,,,,,,,,,,,,,,,,,
6266a599c7361af8b51a95e0,TCN,2024-06-21_10h48.13.353,LearnStrategy,2023.2.3,Linux x86_64,60.24096386,,,,,,,,,,,7,07,4,8,,,,,,,,,,,,,,,,,,,,,,,,,,,,,
6266a599c7361af8b51a95e0,TCN,2024-06-21_10h48.13.353,LearnStrategy,2023.2.3,Linux x86_64,60.24096386,,,,,,,,,,,5,14,5,1,,,,,,,,,,,,,,,,,,,,,,,,,,,,,
6266a599c7361af8b51a95e0,TCN,2024-06-21_10h48.13.353,LearnStrategy,2023.2.3,Linux x86_64,60.24096386,,,,,,,,,,,6,11,5,2,,,,,,,,,,,,,,,,,,,,,,,,,,,,,
6266a599c7361af8b51a95e0,TCN,2024-06-21_10h48.13.353,LearnStrategy,2023.2.3,Linux x86_64,60.24096386,,,,,,,,,,,8,04,5,3,,,,,,,,,,,,,,,,,,,,,,,,,,,,,
6266a599c7361af8b51a95e0,TCN,2024-06-21_10h48.13.353,LearnStrategy,2023.2.3,Linux x86_64,60.24096386,,,,,,,,,,,6,08,5,4,,,,,,,,,,,,,,,,,,,,,,,,,,,,,
6266a599c7361af8b51a95e0,TCN,2024-06-21_10h48.13.353,LearnStrategy,2023.2.3,Linux x86_64,60.24096386,,,,,,,,,,,7,12,5,5,,,,,,,,,,,,,,,,,,,,,,,,,,,,,
6266a599c7361af8b51a95e0,TCN,2024-06-21_10h48.13.353,LearnStrategy,2023.2.3,Linux x86_64,60.24096386,,,,,,,,,,,8,05,5,6,,,,,,,,,,,,,,,,,,,,,,,,,,,,,
6266a599c7361af8b51a95e0,TCN,2024-06-21_10h48.13.353,LearnStrategy,2023.2.3,Linux x86_64,60.24096386,,,,,,,,,,,1,07,5,7,,,,,,,,,,,,,,,,,,,,,,,,,,,,,
6266a599c7361af8b51a95e0,TCN,2024-06-21_10h48.13.353,LearnStrategy,2023.2.3,Linux x86_64,60.24096386,,,,,,,,,,,6,10,5,8,,,,,,,,,,,,,,,,,,,,,,,,,,,,,
6266a599c7361af8b51a95e0,TCN,2024-06-21_10h48.13.353,LearnStrategy,2023.2.3,Linux x86_64,60.24096386,,,,,,,,,,,2,10,6,1,,,,,,,,,,,,,,,,,,,,,,,,,,,,,
6266a599c7361af8b51a95e0,TCN,2024-06-21_10h48.13.353,LearnStrategy,2023.2.3,Linux x86_64,60.24096386,,,,,,,,,,,3,06,6,2,,,,,,,,,,,,,,,,,,,,,,,,,,,,,
6266a599c7361af8b51a95e0,TCN,2024-06-21_10h48.13.353,LearnStrategy,2023.2.3,Linux x86_64,60.24096386,,,,,,,,,,,7,08,6,3,,,,,,,,,,,,,,,,,,,,,,,,,,,,,
6266a599c7361af8b51a95e0,TCN,2024-06-21_10h48.13.353,LearnStrategy,2023.2.3,Linux x86_64,60.24096386,,,,,,,,,,,1,11,6,4,,,,,,,,,,,,,,,,,,,,,,,,,,,,,
6266a599c7361af8b51a95e0,TCN,2024-06-21_10h48.13.353,LearnStrategy,2023.2.3,Linux x86_64,60.24096386,,,,,,,,,,,7,16,6,5,,,,,,,,,,,,,,,,,,,,,,,,,,,,,
6266a599c7361af8b51a95e0,TCN,2024-06-21_10h48.13.353,LearnStrategy,2023.2.3,Linux x86_64,60.24096386,,,,,,,,,,,8,02,6,6,,,,,,,,,,,,,,,,,,,,,,,,,,,,,
6266a599c7361af8b51a95e0,TCN,2024-06-21_10h48.13.353,LearnStrategy,2023.2.3,Linux x86_64,60.24096386,,,,,,,,,,,1,01,6,7,,,,,,,,,,,,,,,,,,,,,,,,,,,,,
6266a599c7361af8b51a95e0,TCN,2024-06-21_10h48.13.353,LearnStrategy,2023.2.3,Linux x86_64,60.24096386,,,,,,,,,,,2,12,6,8,,,,,,,,,,,,,,,,,,,,,,,,,,,,,