participant,condition,date,expName,psychopyVersion,OS,frameRate,block,phase,trial,learn_mouse.x,learn_mouse.y,learn_mouse.leftButton,learn_mouse.midButton,learn_mouse.rightButton,learn_mouse.time,learn_mouse.clicked_name,cat,token,row,col,t_select,cat_mouse_l.x,cat_mouse_l.y,cat_mouse_l.leftButton,cat_mouse_l.midButton,cat_mouse_l.rightButton,cat_mouse_l.time,cat_mouse_l.clicked_name,resp,t_resp,corr,train_trials.thisRepN,train_trials.thisTrialN,train_trials.thisN,train_trials.thisIndex,train_trials.ran,cat_mouse_t.x,cat_mouse_t.y,cat_mouse_t.leftButton,cat_mouse_t.midButton,cat_mouse_t.rightButton,cat_mouse_t.time,cat_mouse_t.clicked_name,test_trials.thisRepN,test_trials.thisTrialN,test_trials.thisN,test_trials.thisIndex,test_trials.ran,Bonus
62897d2024f826ea90b7efa1,SCN,2024-06-11_12h10.03.285,LearnStrategy,2023.2.3,Win32,59.88023952,,,,,,,,,,,,,,,,,,,,,,,,,,,,,,,,,,,,,,,,,,,
62897d2024f826ea90b7efa1,SCN,2024-06-11_12h10.03.285,LearnStrategy,2023.2.3,Win32,59.88023952,1,1,1,-0.070041595,-0.101017134,1,0,0,18.3142,Obsidian_08,5,08,3,4,18.314,-0.109801061,-0.248959933,1,0,0,12.6384,Basalt_rect,2,12.638,0,0,0,0,0,1,,,,,,,,,,,,,
62897d2024f826ea90b7efa1,SCN,2024-06-11_12h10.03.285,LearnStrategy,2023.2.3,Win32,59.88023952,1,1,2,-0.352981962,-0.42186779,1,0,0,20.0359,Obsidian_05,5,05,1,2,20.036,-0.341886255,-0.24803527,1,0,0,13.0429,Andesite_rect,1,13.043,0,1,0,1,0,1,,,,,,,,,,,,,
62897d2024f826ea90b7efa1,SCN,2024-06-11_12h10.03.285,LearnStrategy,2023.2.3,Win32,59.88023952,1,1,3,-0.217059632,0.075589424,1,0,0,1.583,Pegmatite_10,6,10,4,3,1.583,0.068654675,-0.388580816,1,0,0,11.5023,Peridotite_rect,7,11.502,0,2,0,2,0,1,,,,,,,,,,,,,
62897d2024f826ea90b7efa1,SCN,2024-06-11_12h10.03.285,LearnStrategy,2023.2.3,Win32,59.88023952,1,1,4,-0.390892251,-0.123208648,1,0,0,4.4581,Peridotite_13,7,13,3,2,4.458,0.405224254,-0.254507762,1,0,0,8.9765,Gabbro_rect,4,8.977,0,3,0,3,0,1,,,,,,,,,,,,,
62897d2024f826ea90b7efa1,SCN,2024-06-11_12h10.03.285,LearnStrategy,2023.2.3,Win32,59.88023952,1,1,5,0.377485257,0.408460469,1,0,0,8.6382,Obsidian_14,5,14,6,7,8.638,-0.132917089,-0.25080921,1,0,0,17.6595,Basalt_rect,2,17.66,0,4,0,4,0,1,,,,,,,,,,,,,
62897d2024f826ea90b7efa1,SCN,2024-06-11_12h10.03.285,LearnStrategy,2023.2.3,Win32,59.88023952,1,1,6,-0.406611174,0.410309751,1,0,0,5.12,Pumice_03,8,03,6,2,5.12,0.39227927,-0.408922807,1,0,0,4.233,Pumice_rect,8,4.233,1,5,0,5,0,1,,,,,,,,,,,,,
62897d2024f826ea90b7efa1,SCN,2024-06-11_12h10.03.285,LearnStrategy,2023.2.3,Win32,59.88023952,1,1,7,-0.534211736,-0.258206216,1,0,0,2.9931,Pumice_05,8,05,2,1,2.993,0.394128793,-0.400601088,1,0,0,1.3615,Pumice_rect,8,1.362,1,6,0,6,0,1,,,,,,,,,,,,,
62897d2024f826ea90b7efa1,SCN,2024-06-11_12h10.03.285,LearnStrategy,2023.2.3,Win32,59.88023952,1,1,8,0.587378937,0.095006924,1,0,0,11.8779,Diorite_02,3,02,4,8,11.878,-0.356680515,-0.391354657,1,0,0,2.1103,Obsidian_rect,5,2.11,0,7,0,7,0,1,,,,,,,,,,,,,
62897d2024f826ea90b7efa1,SCN,2024-06-11_12h10.03.285,LearnStrategy,2023.2.3,Win32,59.88023952,1,1,9,0.228617943,0.060795164,1,0,0,1.6535,Pegmatite_16,6,16,4,6,1.654,-0.369625499,-0.247110509,1,0,0,11.5992,Andesite_rect,1,11.599,0,8,0,8,0,1,,,,,,,,,,,,,
62897d2024f826ea90b7efa1,SCN,2024-06-11_12h10.03.285,LearnStrategy,2023.2.3,Win32,59.88023952,1,1,10,0.109339149,0.412159022,1,0,0,4.5946,Obsidian_07,5,07,6,5,4.595,0.374711318,-0.245261232,1,0,0,19.1943,Gabbro_rect,4,19.194,0,9,0,9,0,1,,,,,,,,,,,,,
62897d2024f826ea90b7efa1,SCN,2024-06-11_12h10.03.285,LearnStrategy,2023.2.3,Win32,59.88023952,1,1,11,-0.54715672,0.383495146,1,0,0,7.6974,Diorite_16,3,16,6,1,7.697,-0.382570483,-0.396902634,1,0,0,3.0162,Obsidian_rect,5,3.016,0,10,0,10,0,1,,,,,,,,,,,,,
62897d2024f826ea90b7efa1,SCN,2024-06-11_12h10.03.285,LearnStrategy,2023.2.3,Win32,59.88023952,1,1,12,-0.082061817,0.094082286,1,0,0,2.1936,Pumice_08,8,08,4,4,2.194,0.415395298,-0.387656104,1,0,0,2.1647,Pumice_rect,8,2.165,1,11,0,11,0,1,,,,,,,,,,,,,
62897d2024f826ea90b7efa1,SCN,2024-06-11_12h10.03.285,LearnStrategy,2023.2.3,Win32,59.88023952,1,1,13,0.56056406,0.234627832,1,0,0,8.293,Gabbro_11,4,11,5,8,8.293,0.4227927,-0.390430142,1,0,0,2.2456,Pumice_rect,8,2.246,0,12,0,12,0,1,,,,,,,,,,,,,
62897d2024f826ea90b7efa1,SCN,2024-06-11_12h10.03.285,LearnStrategy,2023.2.3,Win32,59.88023952,1,1,14,0.07697669,-0.088996912,1,0,0,2.3039,Andesite_11,1,11,3,5,2.304,-0.354831239,-0.408922807,1,0,0,25.1975,Obsidian_rect,5,25.197,0,13,0,13,0,1,,,,,,,,,,,,,
62897d2024f826ea90b7efa1,SCN,2024-06-11_12h10.03.285,LearnStrategy,2023.2.3,Win32,59.88023952,1,1,15,-0.230929131,0.240175611,1,0,0,12.8288,Obsidian_02,5,02,5,3,12.829,0.175913098,-0.246185994,1,0,0,11.541,Diorite_rect,3,11.541,0,14,0,14,0,1,,,,,,,,,,,,,
62897d2024f826ea90b7efa1,SCN,2024-06-11_12h10.03.285,LearnStrategy,2023.2.3,Win32,59.88023952,1,1,16,0.530975539,0.37887193,1,0,0,5.0132,Peridotite_14,7,14,6,8,5.013,-0.363153007,-0.267452746,1,0,0,29.4807,Andesite_rect,1,29.481,0,15,0,15,0,1,,,,,,,,,,,,,
62897d2024f826ea90b7efa1,SCN,2024-06-11_12h10.03.285,LearnStrategy,2023.2.3,Win32,59.88023952,1,2,1,,,,,,,,6,12,,,,,,,,,,,5,5.715,0,,,,,,-0.339112316,-0.413546071,1,0,0,5.7146,Obsidian_rect,0,0,0,0,1,
62897d2024f826ea90b7efa1,SCN,2024-06-11_12h10.03.285,LearnStrategy,2023.2.3,Win32,59.88023952,1,2,2,,,,,,,,1,16,,,,,,,,,,,7,30.164,0,,,,,,0.112113088,-0.406148867,1,0,0,30.1638,Peridotite_rect,1,0,1,0,1,
62897d2024f826ea90b7efa1,SCN,2024-06-11_12h10.03.285,LearnStrategy,2023.2.3,Win32,59.88023952,1,2,3,,,,,,,,5,16,,,,,,,,,,,5,13.223,1,,,,,,-0.445446126,-0.390430142,1,0,0,13.2233,Obsidian_rect,2,0,2,0,1,
62897d2024f826ea90b7efa1,SCN,2024-06-11_12h10.03.285,LearnStrategy,2023.2.3,Win32,59.88023952,1,2,4,,,,,,,,1,03,,,,,,,,,,,1,12.244,1,,,,,,-0.401063197,-0.254507762,1,0,0,12.2443,Andesite_rect,3,0,3,0,1,
62897d2024f826ea90b7efa1,SCN,2024-06-11_12h10.03.285,LearnStrategy,2023.2.3,Win32,59.88023952,1,2,5,,,,,,,,5,04,,,,,,,,,,,5,5.677,1,,,,,,-0.362228245,-0.409847618,1,0,0,5.6773,Obsidian_rect,4,0,4,0,1,
62897d2024f826ea90b7efa1,SCN,2024-06-11_12h10.03.285,LearnStrategy,2023.2.3,Win32,59.88023952,1,2,6,,,,,,,,2,08,,,,,,,,,,,2,2.714,1,,,,,,-0.107951785,-0.24803527,1,0,0,2.7142,Basalt_rect,5,0,5,0,1,
62897d2024f826ea90b7efa1,SCN,2024-06-11_12h10.03.285,LearnStrategy,2023.2.3,Win32,59.88023952,1,2,7,,,,,,,,8,04,,,,,,,,,,,8,1.629,1,,,,,,0.45515516,-0.382108324,1,0,0,1.629,Pumice_rect,6,0,6,0,1,
62897d2024f826ea90b7efa1,SCN,2024-06-11_12h10.03.285,LearnStrategy,2023.2.3,Win32,59.88023952,1,2,8,,,,,,,,8,14,,,,,,,,,,,8,0.806,1,,,,,,0.451456607,-0.386731392,1,0,0,0.8061,Pumice_rect,7,0,7,0,1,
62897d2024f826ea90b7efa1,SCN,2024-06-11_12h10.03.285,LearnStrategy,2023.2.3,Win32,59.88023952,1,2,9,,,,,,,,4,13,,,,,,,,,,,5,4.028,0,,,,,,-0.338187702,-0.381183612,1,0,0,4.0283,Obsidian_rect,8,0,8,0,1,
62897d2024f826ea90b7efa1,SCN,2024-06-11_12h10.03.285,LearnStrategy,2023.2.3,Win32,59.88023952,1,2,10,,,,,,,,6,09,,,,,,,,,,,1,6.097,0,,,,,,-0.349283262,-0.262829432,1,0,0,6.0975,Andesite_rect,9,0,9,0,1,
62897d2024f826ea90b7efa1,SCN,2024-06-11_12h10.03.285,LearnStrategy,2023.2.3,Win32,59.88023952,1,2,11,,,,,,,,7,02,,,,,,,,,,,7,6.793,1,,,,,,0.125058072,-0.386731392,1,0,0,6.793,Peridotite_rect,10,0,10,0,1,
62897d2024f826ea90b7efa1,SCN,2024-06-11_12h10.03.285,LearnStrategy,2023.2.3,Win32,59.88023952,1,2,12,,,,,,,,2,14,,,,,,,,,,,8,2.483,0,,,,,,0.401525701,-0.397827148,1,0,0,2.483,Pumice_rect,11,0,11,0,1,
62897d2024f826ea90b7efa1,SCN,2024-06-11_12h10.03.285,LearnStrategy,2023.2.3,Win32,59.88023952,1,2,13,,,,,,,,3,09,,,,,,,,,,,3,13.821,1,,,,,,0.143550638,-0.243411956,1,0,0,13.8214,Diorite_rect,12,0,12,0,1,
62897d2024f826ea90b7efa1,SCN,2024-06-11_12h10.03.285,LearnStrategy,2023.2.3,Win32,59.88023952,1,2,14,,,,,,,,7,06,,,,,,,,,,,5,5.465,0,,,,,,-0.318770078,-0.397827148,1,0,0,5.4653,Obsidian_rect,13,0,13,0,1,
62897d2024f826ea90b7efa1,SCN,2024-06-11_12h10.03.285,LearnStrategy,2023.2.3,Win32,59.88023952,1,2,15,,,,,,,,4,09,,,,,,,,,,,5,18.736,0,,,,,,-0.402912621,-0.393203883,1,0,0,18.7356,Obsidian_rect,14,0,14,0,1,
62897d2024f826ea90b7efa1,SCN,2024-06-11_12h10.03.285,LearnStrategy,2023.2.3,Win32,59.88023952,1,2,16,,,,,,,,3,11,,,,,,,,,,,5,2.745,0,,,,,,-0.360378969,-0.407998292,1,0,0,2.7449,Obsidian_rect,15,0,15,0,1,
62897d2024f826ea90b7efa1,SCN,2024-06-11_12h10.03.285,LearnStrategy,2023.2.3,Win32,59.88023952,2,1,1,0.399676672,-0.420018563,1,0,0,11.6912,Pegmatite_07,6,07,1,7,11.691,0.124133163,-0.384882165,1,0,0,36.2251,Peridotite_rect,7,36.225,0,0,0,0,0,1,,,,,,,,,,,,,
62897d2024f826ea90b7efa1,SCN,2024-06-11_12h10.03.285,LearnStrategy,2023.2.3,Win32,59.88023952,2,1,2,-0.51479426,-0.423717116,1,0,0,19.0004,Basalt_10,2,10,1,1,19,-0.381645721,-0.26560347,1,0,0,19.7549,Andesite_rect,1,19.755,0,1,0,1,0,1,,,,,,,,,,,,,
62897d2024f826ea90b7efa1,SCN,2024-06-11_12h10.03.285,LearnStrategy,2023.2.3,Win32,59.88023952,2,1,3,-0.380721206,0.217984271,1,0,0,2.5976,Pegmatite_03,6,03,5,2,2.598,0.102866657,-0.390430142,1,0,0,19.2235,Peridotite_rect,7,19.223,0,2,0,2,0,1,,,,,,,,,,,,,
62897d2024f826ea90b7efa1,SCN,2024-06-11_12h10.03.285,LearnStrategy,2023.2.3,Win32,59.88023952,2,1,4,-0.54715672,0.22815534,1,0,0,8.8192,Gabbro_03,4,03,5,1,8.819,-0.106102607,-0.231391734,1,0,0,6.5934,Basalt_rect,2,6.593,0,3,0,3,0,1,,,,,,,,,,,,,
62897d2024f826ea90b7efa1,SCN,2024-06-11_12h10.03.285,LearnStrategy,2023.2.3,Win32,59.88023952,2,1,5,0.39320418,-0.101941896,1,0,0,4.4771,Pegmatite_05,6,05,3,7,4.477,-0.135691029,-0.413546071,1,0,0,16.9482,Pegmatite_rect,6,16.948,1,4,0,4,0,1,,,,,,,,,,,,,
62897d2024f826ea90b7efa1,SCN,2024-06-11_12h10.03.285,LearnStrategy,2023.2.3,Win32,59.88023952,2,1,6,0.225844004,0.40568653,1,0,0,13.2382,Gabbro_05,4,05,6,6,13.238,0.172214545,-0.406148867,1,0,0,14.7777,Peridotite_rect,7,14.778,0,5,0,5,0,1,,,,,,,,,,,,,
62897d2024f826ea90b7efa1,SCN,2024-06-11_12h10.03.285,LearnStrategy,2023.2.3,Win32,59.88023952,2,1,7,0.061257569,0.086685082,1,0,0,1.9106,Peridotite_04,7,04,4,5,1.911,-0.348358747,-0.253583001,1,0,0,9.4236,Andesite_rect,1,9.424,0,6,0,6,0,1,,,,,,,,,,,,,
62897d2024f826ea90b7efa1,SCN,2024-06-11_12h10.03.285,LearnStrategy,2023.2.3,Win32,59.88023952,2,1,8,0.552242538,-0.243411956,1,0,0,7.5702,Pumice_06,8,06,2,8,7.57,0.440360653,-0.386731392,1,0,0,2.4455,Pumice_rect,8,2.446,1,7,0,7,0,1,,,,,,,,,,,,,
62897d2024f826ea90b7efa1,SCN,2024-06-11_12h10.03.285,LearnStrategy,2023.2.3,Win32,59.88023952,2,1,9,0.098243195,-0.081599658,1,0,0,1.6105,Andesite_11,1,11,3,5,1.611,0.387656301,-0.255432425,1,0,0,17.3385,Gabbro_rect,4,17.339,0,8,0,8,0,1,,,,,,,,,,,,,
62897d2024f826ea90b7efa1,SCN,2024-06-11_12h10.03.285,LearnStrategy,2023.2.3,Win32,59.88023952,2,1,10,-0.254045159,-0.107489626,1,0,0,4.6042,Gabbro_15,4,15,3,3,4.604,-0.40846045,-0.4015258,1,0,0,10.4578,Obsidian_rect,5,10.458,0,9,0,9,0,1,,,,,,,,,,,,,
62897d2024f826ea90b7efa1,SCN,2024-06-11_12h10.03.285,LearnStrategy,2023.2.3,Win32,59.88023952,2,1,11,-0.227230677,-0.402450315,1,0,0,10.6016,Pumice_15,8,15,1,3,10.602,0.366389302,-0.393203883,1,0,0,1.5259,Pumice_rect,8,1.526,1,10,0,10,0,1,,,,,,,,,,,,,
62897d2024f826ea90b7efa1,SCN,2024-06-11_12h10.03.285,LearnStrategy,2023.2.3,Win32,59.88023952,2,1,12,0.078825719,-0.402450315,1,0,0,1.2441,Peridotite_16,7,16,1,5,1.244,-0.101479293,-0.388580816,1,0,0,12.6167,Pegmatite_rect,6,12.617,0,11,0,11,0,1,,,,,,,,,,,,,
62897d2024f826ea90b7efa1,SCN,2024-06-11_12h10.03.285,LearnStrategy,2023.2.3,Win32,59.88023952,2,1,13,0.234165525,0.254969946,1,0,0,2.5189,Pegmatite_15,6,15,5,6,2.519,-0.087609646,-0.403375126,1,0,0,22.6173,Pegmatite_rect,6,22.617,1,12,0,12,0,1,,,,,,,,,,,,,
62897d2024f826ea90b7efa1,SCN,2024-06-11_12h10.03.285,LearnStrategy,2023.2.3,Win32,59.88023952,2,1,14,0.25728185,-0.417244624,1,0,0,18.8115,Basalt_11,2,11,1,6,18.812,0.461627652,-0.400601088,1,0,0,3.2244,Pumice_rect,8,3.224,0,13,0,13,0,1,,,,,,,,,,,,,
62897d2024f826ea90b7efa1,SCN,2024-06-11_12h10.03.285,LearnStrategy,2023.2.3,Win32,59.88023952,2,1,15,-0.247572667,-0.267452746,1,0,0,3.519,Diorite_10,3,10,2,3,3.519,-0.181923234,-0.247110509,1,0,0,9.6286,Basalt_rect,2,9.629,0,14,0,14,0,1,,,,,,,,,,,,,
62897d2024f826ea90b7efa1,SCN,2024-06-11_12h10.03.285,LearnStrategy,2023.2.3,Win32,59.88023952,2,1,16,0.241562927,-0.4015258,1,0,0,11.1113,Basalt_11,2,11,1,6,11.111,0.108414239,-0.251733724,1,0,0,6.8603,Diorite_rect,3,6.86,0,15,0,15,0,1,,,,,,,,,,,,,
62897d2024f826ea90b7efa1,SCN,2024-06-11_12h10.03.285,LearnStrategy,2023.2.3,Win32,59.88023952,2,2,1,,,,,,,,6,06,,,,,,,,,,,4,19.407,0,,,,,,0.357142871,-0.260980254,1,0,0,19.4068,Gabbro_rect,0,0,0,0,1,
62897d2024f826ea90b7efa1,SCN,2024-06-11_12h10.03.285,LearnStrategy,2023.2.3,Win32,59.88023952,2,2,2,,,,,,,,1,02,,,,,,,,,,,4,9.621,0,,,,,,0.344197887,-0.24803527,1,0,0,9.6212,Gabbro_rect,1,0,1,0,1,
62897d2024f826ea90b7efa1,SCN,2024-06-11_12h10.03.285,LearnStrategy,2023.2.3,Win32,59.88023952,2,2,3,,,,,,,,3,07,,,,,,,,,,,6,10.794,0,,,,,,-0.063569103,-0.39227927,1,0,0,10.7943,Pegmatite_rect,2,0,2,0,1,
62897d2024f826ea90b7efa1,SCN,2024-06-11_12h10.03.285,LearnStrategy,2023.2.3,Win32,59.88023952,2,2,4,,,,,,,,5,10,,,,,,,,,,,3,10.544,0,,,,,,0.138003056,-0.251733724,1,0,0,10.5438,Diorite_rect,3,0,3,0,1,
62897d2024f826ea90b7efa1,SCN,2024-06-11_12h10.03.285,LearnStrategy,2023.2.3,Win32,59.88023952,2,2,5,,,,,,,,5,12,,,,,,,,,,,3,1.103,0,,,,,,0.114886731,-0.236939464,1,0,0,1.103,Diorite_rect,4,0,4,0,1,
62897d2024f826ea90b7efa1,SCN,2024-06-11_12h10.03.285,LearnStrategy,2023.2.3,Win32,59.88023952,2,2,6,,,,,,,,7,12,,,,,,,,,,,7,2.845,1,,,,,,0.060333153,-0.389505331,1,0,0,2.8451,Peridotite_rect,5,0,5,0,1,
62897d2024f826ea90b7efa1,SCN,2024-06-11_12h10.03.285,LearnStrategy,2023.2.3,Win32,59.88023952,2,2,7,,,,,,,,2,12,,,,,,,,,,,8,1.228,0,,,,,,0.45423025,-0.420018563,1,0,0,1.2277,Pumice_rect,6,0,6,0,1,
62897d2024f826ea90b7efa1,SCN,2024-06-11_12h10.03.285,LearnStrategy,2023.2.3,Win32,59.88023952,2,2,8,,,,,,,,6,08,,,,,,,,,,,6,13.127,1,,,,,,-0.128294022,-0.407998292,1,0,0,13.1266,Pegmatite_rect,7,0,7,0,1,
62897d2024f826ea90b7efa1,SCN,2024-06-11_12h10.03.285,LearnStrategy,2023.2.3,Win32,59.88023952,2,2,9,,,,,,,,8,16,,,,,,,,,,,8,1.345,1,,,,,,0.413546269,-0.394128596,1,0,0,1.3451,Pumice_rect,8,0,8,0,1,
62897d2024f826ea90b7efa1,SCN,2024-06-11_12h10.03.285,LearnStrategy,2023.2.3,Win32,59.88023952,2,2,10,,,,,,,,3,13,,,,,,,,,,,5,19.911,0,,,,,,-0.366851461,-0.381183612,1,0,0,19.9108,Obsidian_rect,9,0,9,0,1,
62897d2024f826ea90b7efa1,SCN,2024-06-11_12h10.03.285,LearnStrategy,2023.2.3,Win32,59.88023952,2,2,11,,,,,,,,4,16,,,,,,,,,,,2,2.284,0,,,,,,-0.063569103,-0.260980254,1,0,0,2.2842,Basalt_rect,10,0,10,0,1,
62897d2024f826ea90b7efa1,SCN,2024-06-11_12h10.03.285,LearnStrategy,2023.2.3,Win32,59.88023952,2,2,12,,,,,,,,1,06,,,,,,,,,,,7,3.597,0,,,,,,0.063106796,-0.386731392,1,0,0,3.5974,Peridotite_rect,11,0,11,0,1,
62897d2024f826ea90b7efa1,SCN,2024-06-11_12h10.03.285,LearnStrategy,2023.2.3,Win32,59.88023952,2,2,13,,,,,,,,7,07,,,,,,,,,,,7,1.306,1,,,,,,0.097318581,-0.396902634,1,0,0,1.3058,Peridotite_rect,12,0,12,0,1,
62897d2024f826ea90b7efa1,SCN,2024-06-11_12h10.03.285,LearnStrategy,2023.2.3,Win32,59.88023952,2,2,14,,,,,,,,4,12,,,,,,,,,,,7,0.996,0,,,,,,0.098243195,-0.391354657,1,0,0,0.9965,Peridotite_rect,13,0,13,0,1,
62897d2024f826ea90b7efa1,SCN,2024-06-11_12h10.03.285,LearnStrategy,2023.2.3,Win32,59.88023952,2,2,15,,,,,,,,2,05,,,,,,,,,,,1,4.874,0,,,,,,-0.359454454,-0.242487441,1,0,0,4.8743,Andesite_rect,14,0,14,0,1,
62897d2024f826ea90b7efa1,SCN,2024-06-11_12h10.03.285,LearnStrategy,2023.2.3,Win32,59.88023952,2,2,16,,,,,,,,8,10,,,,,,,,,,,8,1.359,1,,,,,,0.365464689,-0.397827148,1,0,0,1.3585,Pumice_rect,15,0,15,0,1,
62897d2024f826ea90b7efa1,SCN,2024-06-11_12h10.03.285,LearnStrategy,2023.2.3,Win32,59.88023952,3,1,1,-0.240175661,0.082986579,1,0,0,1.912,Pegmatite_10,6,10,4,3,1.912,0.159269561,-0.258206216,1,0,0,5.9926,Diorite_rect,3,5.993,0,0,0,0,0,1,,,,,,,,,,,,,
62897d2024f826ea90b7efa1,SCN,2024-06-11_12h10.03.285,LearnStrategy,2023.2.3,Win32,59.88023952,3,1,2,0.114886731,-0.237864226,1,0,0,2.2313,Obsidian_06,5,06,2,5,2.231,-0.326167332,-0.397827148,1,0,0,5.3299,Obsidian_rect,5,5.33,1,1,0,1,0,1,,,,,,,,,,,,,
62897d2024f826ea90b7efa1,SCN,2024-06-11_12h10.03.285,LearnStrategy,2023.2.3,Win32,59.88023952,3,1,3,0.039990768,0.40568653,1,0,0,1.7352,Obsidian_07,5,07,6,5,1.735,-0.401063197,-0.38395765,1,0,0,1.1873,Obsidian_rect,5,1.187,1,2,0,2,0,1,,,,,,,,,,,,,
62897d2024f826ea90b7efa1,SCN,2024-06-11_12h10.03.285,LearnStrategy,2023.2.3,Win32,59.88023952,3,1,4,-0.374248715,-0.090846188,1,0,0,5.3272,Peridotite_13,7,13,3,2,5.327,0.353444319,-0.258206216,1,0,0,8.4272,Gabbro_rect,4,8.427,0,3,0,3,0,1,,,,,,,,,,,,,
62897d2024f826ea90b7efa1,SCN,2024-06-11_12h10.03.285,LearnStrategy,2023.2.3,Win32,59.88023952,3,1,5,0.26837731,-0.261904917,1,0,0,3.2177,Peridotite_15,7,15,2,6,3.218,0.109339149,-0.395053308,1,0,0,3.2157,Peridotite_rect,7,3.216,1,4,0,4,0,1,,,,,,,,,,,,,
62897d2024f826ea90b7efa1,SCN,2024-06-11_12h10.03.285,LearnStrategy,2023.2.3,Win32,59.88023952,3,1,6,0.25635694,0.259593087,1,0,0,1.4942,Pegmatite_15,6,15,5,6,1.494,0.399676672,-0.249884448,1,0,0,14.8097,Gabbro_rect,4,14.81,0,5,0,5,0,1,,,,,,,,,,,,,
62897d2024f826ea90b7efa1,SCN,2024-06-11_12h10.03.285,LearnStrategy,2023.2.3,Win32,59.88023952,3,1,7,-0.087609646,-0.107489626,1,0,0,1.9019,Obsidian_08,5,08,3,4,1.902,-0.338187702,-0.402450315,1,0,0,2.5667,Obsidian_rect,5,2.567,1,6,0,6,0,1,,,,,,,,,,,,,
62897d2024f826ea90b7efa1,SCN,2024-06-11_12h10.03.285,LearnStrategy,2023.2.3,Win32,59.88023952,3,1,8,-0.39366619,0.270688844,1,0,0,3.7356,Pegmatite_03,6,03,5,2,3.736,0.380259196,-0.253583001,1,0,0,4.5616,Gabbro_rect,4,4.562,0,7,0,7,0,1,,,,,,,,,,,,,
62897d2024f826ea90b7efa1,SCN,2024-06-11_12h10.03.285,LearnStrategy,2023.2.3,Win32,59.88023952,3,1,9,-0.361303731,-0.406148867,1,0,0,3.9899,Obsidian_05,5,05,1,2,3.99,0.082524272,-0.403375126,1,0,0,1.3151,Peridotite_rect,7,1.315,0,8,0,8,0,1,,,,,,,,,,,,,
62897d2024f826ea90b7efa1,SCN,2024-06-11_12h10.03.285,LearnStrategy,2023.2.3,Win32,59.88023952,3,1,10,-0.086685131,-0.268377409,1,0,0,1.9286,Andesite_01,1,01,2,4,1.929,-0.177300018,-0.384882165,1,0,0,3.7639,Pegmatite_rect,6,3.764,0,9,0,9,0,1,,,,,,,,,,,,,
62897d2024f826ea90b7efa1,SCN,2024-06-11_12h10.03.285,LearnStrategy,2023.2.3,Win32,59.88023952,3,1,11,0.110263565,0.085760518,1,0,0,2.8296,Peridotite_04,7,04,4,5,2.83,0.122284133,-0.386731392,1,0,0,2.7875,Peridotite_rect,7,2.788,1,10,0,10,0,1,,,,,,,,,,,,,
62897d2024f826ea90b7efa1,SCN,2024-06-11_12h10.03.285,LearnStrategy,2023.2.3,Win32,59.88023952,3,1,12,0.410772132,-0.124133163,1,0,0,2.1354,Pegmatite_05,6,05,3,7,2.135,-0.391816914,-0.400601088,1,0,0,4.0498,Obsidian_rect,5,4.05,0,11,0,11,0,1,,,,,,,,,,,,,
62897d2024f826ea90b7efa1,SCN,2024-06-11_12h10.03.285,LearnStrategy,2023.2.3,Win32,59.88023952,3,1,13,-0.396440129,0.248497454,1,0,0,6.2066,Pegmatite_03,6,03,5,2,6.207,0.372861794,-0.248959933,1,0,0,4.0142,Gabbro_rect,4,4.014,0,12,0,12,0,1,,,,,,,,,,,,,
62897d2024f826ea90b7efa1,SCN,2024-06-11_12h10.03.285,LearnStrategy,2023.2.3,Win32,59.88023952,3,1,14,-0.549005996,0.256819222,1,0,0,1.4691,Gabbro_03,4,03,5,1,1.469,-0.379796445,-0.40429964,1,0,0,1.4165,Obsidian_rect,5,1.417,0,13,0,13,0,1,,,,,,,,,,,,,
62897d2024f826ea90b7efa1,SCN,2024-06-11_12h10.03.285,LearnStrategy,2023.2.3,Win32,59.88023952,3,1,15,-0.369625499,0.109801135,1,0,0,2.1445,Andesite_10,1,10,4,2,2.145,0.399676672,-0.253583001,1,0,0,1.6055,Gabbro_rect,4,1.606,0,14,0,14,0,1,,,,,,,,,,,,,
62897d2024f826ea90b7efa1,SCN,2024-06-11_12h10.03.285,LearnStrategy,2023.2.3,Win32,59.88023952,3,1,16,0.546694462,-0.101941896,1,0,0,1.7776,Gabbro_08,4,08,3,8,1.778,-0.119047591,-0.393203883,1,0,0,4.2337,Pegmatite_rect,6,4.234,0,15,0,15,0,1,,,,,,,,,,,,,
62897d2024f826ea90b7efa1,SCN,2024-06-11_12h10.03.285,LearnStrategy,2023.2.3,Win32,59.88023952,3,2,1,,,,,,,,5,09,,,,,,,,,,,4,7.011,0,,,,,,0.383957749,-0.261904917,1,0,0,7.0112,Gabbro_rect,0,0,0,0,1,
62897d2024f826ea90b7efa1,SCN,2024-06-11_12h10.03.285,LearnStrategy,2023.2.3,Win32,59.88023952,3,2,2,,,,,,,,3,08,,,,,,,,,,,7,3.562,0,,,,,,0.097318581,-0.407998292,1,0,0,3.5623,Peridotite_rect,1,0,1,0,1,
62897d2024f826ea90b7efa1,SCN,2024-06-11_12h10.03.285,LearnStrategy,2023.2.3,Win32,59.88023952,3,2,3,,,,,,,,1,14,,,,,,,,,,,7,1.605,0,,,,,,0.099168105,-0.390430142,1,0,0,1.6051,Peridotite_rect,2,0,2,0,1,
62897d2024f826ea90b7efa1,SCN,2024-06-11_12h10.03.285,LearnStrategy,2023.2.3,Win32,59.88023952,3,2,4,,,,,,,,1,07,,,,,,,,,,,7,3.957,0,,,,,,0.107489626,-0.387656104,1,0,0,3.9571,Peridotite_rect,3,0,3,0,1,
62897d2024f826ea90b7efa1,SCN,2024-06-11_12h10.03.285,LearnStrategy,2023.2.3,Win32,59.88023952,3,2,5,,,,,,,,3,14,,,,,,,,,,,7,3.795,0,,,,,,0.116736057,-0.388580816,1,0,0,3.795,Peridotite_rect,4,0,4,0,1,
62897d2024f826ea90b7efa1,SCN,2024-06-11_12h10.03.285,LearnStrategy,2023.2.3,Win32,59.88023952,3,2,6,,,,,,,,5,11,,,,,,,,,,,4,1.761,0,,,,,,0.406149164,-0.237864226,1,0,0,1.7609,Gabbro_rect,5,0,5,0,1,
62897d2024f826ea90b7efa1,SCN,2024-06-11_12h10.03.285,LearnStrategy,2023.2.3,Win32,59.88023952,3,2,7,,,,,,,,2,04,,,,,,,,,,,1,2.66,0,,,,,,-0.394590705,-0.244336718,1,0,0,2.6605,Andesite_rect,6,0,6,0,1,
62897d2024f826ea90b7efa1,SCN,2024-06-11_12h10.03.285,LearnStrategy,2023.2.3,Win32,59.88023952,3,2,8,,,,,,,,6,11,,,,,,,,,,,4,2.578,0,,,,,,0.35991681,-0.238788741,1,0,0,2.5776,Gabbro_rect,7,0,7,0,1,
62897d2024f826ea90b7efa1,SCN,2024-06-11_12h10.03.285,LearnStrategy,2023.2.3,Win32,59.88023952,3,2,9,,,,,,,,2,09,,,,,,,,,,,6,3.096,0,,,,,,-0.156957781,-0.397827148,1,0,0,3.0962,Pegmatite_rect,8,0,8,0,1,
62897d2024f826ea90b7efa1,SCN,2024-06-11_12h10.03.285,LearnStrategy,2023.2.3,Win32,59.88023952,3,2,10,,,,,,,,6,13,,,,,,,,,,,4,2.277,0,,,,,,0.386731688,-0.253583001,1,0,0,2.2772,Gabbro_rect,9,0,9,0,1,
62897d2024f826ea90b7efa1,SCN,2024-06-11_12h10.03.285,LearnStrategy,2023.2.3,Win32,59.88023952,3,2,11,,,,,,,,8,13,,,,,,,,,,,8,1.261,1,,,,,,0.361766334,-0.384882165,1,0,0,1.2615,Pumice_rect,10,0,10,0,1,
62897d2024f826ea90b7efa1,SCN,2024-06-11_12h10.03.285,LearnStrategy,2023.2.3,Win32,59.88023952,3,2,12,,,,,,,,7,10,,,,,,,,,,,6,1.727,0,,,,,,-0.077438601,-0.382108324,1,0,0,1.7272,Pegmatite_rect,11,0,11,0,1,
62897d2024f826ea90b7efa1,SCN,2024-06-11_12h10.03.285,LearnStrategy,2023.2.3,Win32,59.88023952,3,2,13,,,,,,,,4,14,,,,,,,,,,,6,1.245,0,,,,,,-0.073740147,-0.397827148,1,0,0,1.245,Pegmatite_rect,12,0,12,0,1,
62897d2024f826ea90b7efa1,SCN,2024-06-11_12h10.03.285,LearnStrategy,2023.2.3,Win32,59.88023952,3,2,14,,,,,,,,4,01,,,,,,,,,,,5,4.063,0,,,,,,-0.380721206,-0.397827148,1,0,0,4.0625,Obsidian_rect,13,0,13,0,1,
62897d2024f826ea90b7efa1,SCN,2024-06-11_12h10.03.285,LearnStrategy,2023.2.3,Win32,59.88023952,3,2,15,,,,,,,,7,05,,,,,,,,,,,4,3.063,0,,,,,,0.361766334,-0.260055493,1,0,0,3.0625,Gabbro_rect,14,0,14,0,1,
62897d2024f826ea90b7efa1,SCN,2024-06-11_12h10.03.285,LearnStrategy,2023.2.3,Win32,59.88023952,3,2,16,,,,,,,,8,02,,,,,,,,,,,8,1.945,1,,,,,,0.337725396,-0.393203883,1,0,0,1.945,Pumice_rect,15,0,15,0,1,
62897d2024f826ea90b7efa1,SCN,2024-06-11_12h10.03.285,LearnStrategy,2023.2.3,Win32,59.88023952,4,1,1,-0.567498834,0.390892276,1,0,0,5.6129,Diorite_16,3,16,6,1,5.613,-0.379796445,-0.400601088,1,0,0,2.0268,Obsidian_rect,5,2.027,0,0,0,0,0,1,,,,,,,,,,,,,
62897d2024f826ea90b7efa1,SCN,2024-06-11_12h10.03.285,LearnStrategy,2023.2.3,Win32,59.88023952,4,1,2,0.086223121,0.083911143,1,0,0,2.6782,Peridotite_04,7,04,4,5,2.678,-0.08576037,-0.406148867,1,0,0,2.0625,Pegmatite_rect,6,2.063,0,1,0,1,0,1,,,,,,,,,,,,,
62897d2024f826ea90b7efa1,SCN,2024-06-11_12h10.03.285,LearnStrategy,2023.2.3,Win32,59.88023952,4,1,3,0.229542359,-0.080674995,1,0,0,1.4939,Diorite_15,3,15,3,6,1.494,-0.109801061,-0.394128596,1,0,0,2.2441,Pegmatite_rect,6,2.244,0,2,0,2,0,1,,,,,,,,,,,,,
62897d2024f826ea90b7efa1,SCN,2024-06-11_12h10.03.285,LearnStrategy,2023.2.3,Win32,59.88023952,4,1,4,0.399676672,-0.10286641,1,0,0,2.0351,Pegmatite_05,6,05,3,7,2.035,-0.374248715,-0.407998292,1,0,0,2.2165,Obsidian_rect,5,2.216,0,3,0,3,0,1,,,,,,,,,,,,,
62897d2024f826ea90b7efa1,SCN,2024-06-11_12h10.03.285,LearnStrategy,2023.2.3,Win32,59.88023952,4,1,5,-0.388118213,-0.441285266,1,0,0,3.4944,Obsidian_05,5,05,1,2,3.494,0.341424245,-0.255432425,1,0,0,2.1109,Gabbro_rect,4,2.111,0,4,0,4,0,1,,,,,,,,,,,,,
62897d2024f826ea90b7efa1,SCN,2024-06-11_12h10.03.285,LearnStrategy,2023.2.3,Win32,59.88023952,4,1,6,-0.384419759,-0.263754193,1,0,0,1.7971,Diorite_06,3,06,2,2,1.797,0.11858558,-0.391354657,1,0,0,2.6123,Peridotite_rect,7,2.612,0,5,0,5,0,1,,,,,,,,,,,,,
62897d2024f826ea90b7efa1,SCN,2024-06-11_12h10.03.285,LearnStrategy,2023.2.3,Win32,59.88023952,4,1,7,-0.218908909,-0.116736156,1,0,0,1.643,Gabbro_15,4,15,3,3,1.643,0.162968114,-0.257281702,1,0,0,2.616,Diorite_rect,3,2.616,0,6,0,6,0,1,,,,,,,,,,,,,
62897d2024f826ea90b7efa1,SCN,2024-06-11_12h10.03.285,LearnStrategy,2023.2.3,Win32,59.88023952,4,1,8,0.52912651,-0.248959933,1,0,0,2.5541,Pumice_06,8,06,2,8,2.554,0.415395298,-0.411696746,1,0,0,1.3894,Pumice_rect,8,1.389,1,7,0,7,0,1,,,,,,,,,,,,,
62897d2024f826ea90b7efa1,SCN,2024-06-11_12h10.03.285,LearnStrategy,2023.2.3,Win32,59.88023952,4,1,9,0.411696746,0.39274154,1,0,0,1.5778,Obsidian_14,5,14,6,7,1.578,0.358067781,-0.236939464,1,0,0,1.8352,Gabbro_rect,4,1.835,0,8,0,8,0,1,,,,,,,,,,,,,
62897d2024f826ea90b7efa1,SCN,2024-06-11_12h10.03.285,LearnStrategy,2023.2.3,Win32,59.88023952,4,1,10,-0.537910239,0.095006924,1,0,0,8.6581,Basalt_02,2,02,4,1,8.658,-0.110725823,-0.403375126,1,0,0,3.7813,Pegmatite_rect,6,3.781,0,9,0,9,0,1,,,,,,,,,,,,,
62897d2024f826ea90b7efa1,SCN,2024-06-11_12h10.03.285,LearnStrategy,2023.2.3,Win32,59.88023952,4,1,11,0.251733971,-0.111188179,1,0,0,1.4536,Diorite_15,3,15,3,6,1.454,-0.120896768,-0.402450315,1,0,0,1.665,Pegmatite_rect,6,1.665,0,10,0,10,0,1,,,,,,,,,,,,,
62897d2024f826ea90b7efa1,SCN,2024-06-11_12h10.03.285,LearnStrategy,2023.2.3,Win32,59.88023952,4,1,12,0.396902732,-0.390430142,1,0,0,3.9777,Pegmatite_07,6,07,1,7,3.978,0.333102229,-0.255432425,1,0,0,1.7955,Gabbro_rect,4,1.795,0,11,0,11,0,1,,,,,,,,,,,,,
62897d2024f826ea90b7efa1,SCN,2024-06-11_12h10.03.285,LearnStrategy,2023.2.3,Win32,59.88023952,4,1,13,0.543920523,-0.405224254,1,0,0,1.6611,Basalt_16,2,16,1,8,1.661,-0.334489001,-0.253583001,1,0,0,2.3001,Andesite_rect,1,2.3,0,12,0,12,0,1,,,,,,,,,,,,,
62897d2024f826ea90b7efa1,SCN,2024-06-11_12h10.03.285,LearnStrategy,2023.2.3,Win32,59.88023952,4,1,14,-0.387193698,-0.104715687,1,0,0,5.4353,Peridotite_13,7,13,3,2,5.435,0.39227927,-0.245261232,1,0,0,1.8445,Gabbro_rect,4,1.844,0,13,0,13,0,1,,,,,,,,,,,,,
62897d2024f826ea90b7efa1,SCN,2024-06-11_12h10.03.285,LearnStrategy,2023.2.3,Win32,59.88023952,4,1,15,0.228617943,-0.252658486,1,0,0,1.7024,Peridotite_15,7,15,2,6,1.702,0.119509996,-0.413546071,1,0,0,2.3181,Peridotite_rect,7,2.318,1,14,0,14,0,1,,,,,,,,,,,,,
62897d2024f826ea90b7efa1,SCN,2024-06-11_12h10.03.285,LearnStrategy,2023.2.3,Win32,59.88023952,4,1,16,-0.222607461,-0.096393919,1,0,0,1.4191,Gabbro_15,4,15,3,3,1.419,-0.152334565,-0.260055493,1,0,0,4.3212,Basalt_rect,2,4.321,0,15,0,15,0,1,,,,,,,,,,,,,
62897d2024f826ea90b7efa1,SCN,2024-06-11_12h10.03.285,LearnStrategy,2023.2.3,Win32,59.88023952,4,2,1,,,,,,,,1,03,,,,,,,,,,,6,3.995,0,,,,,,-0.102404054,-0.395053308,1,0,0,3.9946,Pegmatite_rect,0,0,0,0,1,
62897d2024f826ea90b7efa1,SCN,2024-06-11_12h10.03.285,LearnStrategy,2023.2.3,Win32,59.88023952,4,2,2,,,,,,,,5,16,,,,,,,,,,,4,8.332,0,,,,,,0.373786704,-0.25080921,1,0,0,8.3325,Gabbro_rect,1,0,1,0,1,
62897d2024f826ea90b7efa1,SCN,2024-06-11_12h10.03.285,LearnStrategy,2023.2.3,Win32,59.88023952,4,2,3,,,,,,,,4,16,,,,,,,,,,,2,1.294,0,,,,,,-0.101479293,-0.252658486,1,0,0,1.2943,Basalt_rect,2,0,2,0,1,
62897d2024f826ea90b7efa1,SCN,2024-06-11_12h10.03.285,LearnStrategy,2023.2.3,Win32,59.88023952,4,2,4,,,,,,,,6,11,,,,,,,,,,,4,1.479,0,,,,,,0.354369228,-0.267452746,1,0,0,1.4787,Gabbro_rect,3,0,3,0,1,
62897d2024f826ea90b7efa1,SCN,2024-06-11_12h10.03.285,LearnStrategy,2023.2.3,Win32,59.88023952,4,2,5,,,,,,,,8,02,,,,,,,,,,,8,1.68,1,,,,,,0.399676672,-0.378409673,1,0,0,1.6797,Pumice_rect,4,0,4,0,1,
62897d2024f826ea90b7efa1,SCN,2024-06-11_12h10.03.285,LearnStrategy,2023.2.3,Win32,59.88023952,4,2,6,,,,,,,,6,09,,,,,,,,,,,4,2.511,0,,,,,,0.357142871,-0.254507762,1,0,0,2.5109,Gabbro_rect,5,0,5,0,1,
62897d2024f826ea90b7efa1,SCN,2024-06-11_12h10.03.285,LearnStrategy,2023.2.3,Win32,59.88023952,4,2,7,,,,,,,,8,04,,,,,,,,,,,8,1.109,1,,,,,,0.432039131,-0.400601088,1,0,0,1.1094,Pumice_rect,6,0,6,0,1,
62897d2024f826ea90b7efa1,SCN,2024-06-11_12h10.03.285,LearnStrategy,2023.2.3,Win32,59.88023952,4,2,8,,,,,,,,2,05,,,,,,,,,,,5,3.762,0,,,,,,-0.314147011,-0.395053308,1,0,0,3.762,Obsidian_rect,7,0,7,0,1,
62897d2024f826ea90b7efa1,SCN,2024-06-11_12h10.03.285,LearnStrategy,2023.2.3,Win32,59.88023952,4,2,9,,,,,,,,5,04,,,,,,,,,,,4,6.394,0,,,,,,0.374711318,-0.235090287,1,0,0,6.3941,Gabbro_rect,8,0,8,0,1,
62897d2024f826ea90b7efa1,SCN,2024-06-11_12h10.03.285,LearnStrategy,2023.2.3,Win32,59.88023952,4,2,10,,,,,,,,7,10,,,,,,,,,,,6,1.581,0,,,,,,-0.057096611,-0.408922807,1,0,0,1.5813,Pegmatite_rect,9,0,9,0,1,
62897d2024f826ea90b7efa1,SCN,2024-06-11_12h10.03.285,LearnStrategy,2023.2.3,Win32,59.88023952,4,2,11,,,,,,,,4,14,,,,,,,,,,,6,1.028,0,,,,,,-0.057096611,-0.40707358,1,0,0,1.0281,Pegmatite_rect,10,0,10,0,1,
62897d2024f826ea90b7efa1,SCN,2024-06-11_12h10.03.285,LearnStrategy,2023.2.3,Win32,59.88023952,4,2,12,,,,,,,,1,02,,,,,,,,,,,7,2.809,0,,,,,,0.095469256,-0.387656104,1,0,0,2.8094,Peridotite_rect,11,0,11,0,1,
62897d2024f826ea90b7efa1,SCN,2024-06-11_12h10.03.285,LearnStrategy,2023.2.3,Win32,59.88023952,4,2,13,,,,,,,,2,04,,,,,,,,,,,4,1.727,0,,,,,,0.333102229,-0.24803527,1,0,0,1.7274,Gabbro_rect,12,0,12,0,1,
62897d2024f826ea90b7efa1,SCN,2024-06-11_12h10.03.285,LearnStrategy,2023.2.3,Win32,59.88023952,4,2,14,,,,,,,,7,06,,,,,,,,,,,5,2.178,0,,,,,,-0.330790547,-0.395053308,1,0,0,2.178,Obsidian_rect,13,0,13,0,1,
62897d2024f826ea90b7efa1,SCN,2024-06-11_12h10.03.285,LearnStrategy,2023.2.3,Win32,59.88023952,4,2,15,,,,,,,,3,08,,,,,,,,,,,5,1.129,0,,,,,,-0.330790547,-0.391354657,1,0,0,1.1291,Obsidian_rect,14,0,14,0,1,
62897d2024f826ea90b7efa1,SCN,2024-06-11_12h10.03.285,LearnStrategy,2023.2.3,Win32,59.88023952,4,2,16,,,,,,,,3,09,,,,,,,,,,,5,0.862,0,,,,,,-0.330790547,-0.390430142,1,0,0,0.8617,Obsidian_rect,15,0,15,0,1,
62897d2024f826ea90b7efa1,SCN,2024-06-11_12h10.03.285,LearnStrategy,2023.2.3,Win32,59.88023952,5,1,1,-0.246648153,-0.095469404,1,0,0,4.0115,Gabbro_15,4,15,3,3,4.012,-0.095931562,-0.38395765,1,0,0,3.2434,Pegmatite_rect,6,3.243,0,0,0,0,0,1,,,,,,,,,,,,,
62897d2024f826ea90b7efa1,SCN,2024-06-11_12h10.03.285,LearnStrategy,2023.2.3,Win32,59.88023952,5,1,2,0.22491939,-0.395977823,1,0,0,5.8436,Basalt_11,2,11,1,6,5.844,0.45238122,-0.254507762,1,0,0,1.4957,Gabbro_rect,4,1.496,0,1,0,1,0,1,,,,,,,,,,,,,
62897d2024f826ea90b7efa1,SCN,2024-06-11_12h10.03.285,LearnStrategy,2023.2.3,Win32,59.88023952,5,1,3,0.563337999,-0.115811394,1,0,0,1.4622,Gabbro_08,4,08,3,8,1.462,-0.110725823,-0.400601088,1,0,0,2.5181,Pegmatite_rect,6,2.518,0,2,0,2,0,1,,,,,,,,,,,,,
62897d2024f826ea90b7efa1,SCN,2024-06-11_12h10.03.285,LearnStrategy,2023.2.3,Win32,59.88023952,5,1,4,0.099168105,0.100554778,1,0,0,0.9424,Peridotite_04,7,04,4,5,0.942,-0.368700737,-0.240638017,1,0,0,7.9682,Andesite_rect,1,7.968,0,3,0,3,0,1,,,,,,,,,,,,,
62897d2024f826ea90b7efa1,SCN,2024-06-11_12h10.03.285,LearnStrategy,2023.2.3,Win32,59.88023952,5,1,5,0.071428614,-0.251733724,1,0,0,1.3525,Obsidian_06,5,06,2,5,1.352,0.35991681,-0.245261232,1,0,0,2.2993,Gabbro_rect,4,2.299,0,4,0,4,0,1,,,,,,,,,,,,,
62897d2024f826ea90b7efa1,SCN,2024-06-11_12h10.03.285,LearnStrategy,2023.2.3,Win32,59.88023952,5,1,6,0.107489626,0.448220065,1,0,0,1.0285,Obsidian_07,5,07,6,5,1.029,-0.373323953,-0.395053308,1,0,0,1.3853,Obsidian_rect,5,1.385,1,5,0,5,0,1,,,,,,,,,,,,,
62897d2024f826ea90b7efa1,SCN,2024-06-11_12h10.03.285,LearnStrategy,2023.2.3,Win32,59.88023952,5,1,7,0.548543986,-0.411696746,1,0,0,1.2286,Basalt_16,2,16,1,8,1.229,-0.198566671,-0.258206216,1,0,0,4.4729,Basalt_rect,2,4.473,1,6,0,6,0,1,,,,,,,,,,,,,
62897d2024f826ea90b7efa1,SCN,2024-06-11_12h10.03.285,LearnStrategy,2023.2.3,Win32,59.88023952,5,1,8,0.539297554,0.095931562,1,0,0,5.1037,Diorite_02,3,02,4,8,5.104,0.119509996,-0.395977823,1,0,0,2.8512,Peridotite_rect,7,2.851,0,7,0,7,0,1,,,,,,,,,,,,,
62897d2024f826ea90b7efa1,SCN,2024-06-11_12h10.03.285,LearnStrategy,2023.2.3,Win32,59.88023952,5,1,9,0.07605178,-0.094544642,1,0,0,1.1857,Andesite_11,1,11,3,5,1.186,0.156495622,-0.24803527,1,0,0,2.5987,Diorite_rect,3,2.599,0,8,0,8,0,1,,,,,,,,,,,,,
62897d2024f826ea90b7efa1,SCN,2024-06-11_12h10.03.285,LearnStrategy,2023.2.3,Win32,59.88023952,5,1,10,-0.240175661,0.084835806,1,0,0,1.9433,Pegmatite_10,6,10,4,3,1.943,0.343273274,-0.236014949,1,0,0,1.934,Gabbro_rect,4,1.934,0,9,0,9,0,1,,,,,,,,,,,,,
62897d2024f826ea90b7efa1,SCN,2024-06-11_12h10.03.285,LearnStrategy,2023.2.3,Win32,59.88023952,5,1,11,-0.37887193,-0.073277989,1,0,0,1.1107,Peridotite_13,7,13,3,2,1.111,-0.203189986,-0.412621359,1,0,0,1.3653,Pegmatite_rect,6,1.365,0,10,0,10,0,1,,,,,,,,,,,,,
62897d2024f826ea90b7efa1,SCN,2024-06-11_12h10.03.285,LearnStrategy,2023.2.3,Win32,59.88023952,5,1,12,-0.530513109,0.262367076,1,0,0,1.5934,Gabbro_03,4,03,5,1,1.593,0.087147537,-0.40707358,1,0,0,5.0848,Peridotite_rect,7,5.085,0,11,0,11,0,1,,,,,,,,,,,,,
62897d2024f826ea90b7efa1,SCN,2024-06-11_12h10.03.285,LearnStrategy,2023.2.3,Win32,59.88023952,5,1,13,-0.094082138,0.238326384,1,0,0,2.4367,Gabbro_10,4,10,5,4,2.437,-0.082986579,-0.247110509,1,0,0,3.315,Basalt_rect,2,3.315,0,12,0,12,0,1,,,,,,,,,,,,,
62897d2024f826ea90b7efa1,SCN,2024-06-11_12h10.03.285,LearnStrategy,2023.2.3,Win32,59.88023952,5,1,14,0.106565013,-0.065880735,1,0,0,1.3773,Andesite_11,1,11,3,5,1.377,0.368238826,-0.260055493,1,0,0,3.1559,Gabbro_rect,4,3.156,0,13,0,13,0,1,,,,,,,,,,,,,
62897d2024f826ea90b7efa1,SCN,2024-06-11_12h10.03.285,LearnStrategy,2023.2.3,Win32,59.88023952,5,1,15,-0.246648153,0.2429496,1,0,0,3.7348,Obsidian_02,5,02,5,3,3.735,0.364540273,-0.24803527,1,0,0,3.977,Gabbro_rect,4,3.977,0,14,0,14,0,1,,,,,,,,,,,,,
62897d2024f826ea90b7efa1,SCN,2024-06-11_12h10.03.285,LearnStrategy,2023.2.3,Win32,59.88023952,5,1,16,-0.058021126,-0.100092471,1,0,0,1.2288,Obsidian_08,5,08,3,4,1.229,-0.362228245,-0.402450315,1,0,0,1.9821,Obsidian_rect,5,1.982,1,15,0,15,0,1,,,,,,,,,,,,,
62897d2024f826ea90b7efa1,SCN,2024-06-11_12h10.03.285,LearnStrategy,2023.2.3,Win32,59.88023952,5,2,1,,,,,,,,8,16,,,,,,,,,,,8,2.546,1,,,,,,0.347896736,-0.386731392,1,0,0,2.5462,Pumice_rect,0,0,0,0,1,
62897d2024f826ea90b7efa1,SCN,2024-06-11_12h10.03.285,LearnStrategy,2023.2.3,Win32,59.88023952,5,2,2,,,,,,,,4,09,,,,,,,,,,,4,3.512,1,,,,,,0.367314212,-0.251733724,1,0,0,3.5119,Gabbro_rect,1,0,1,0,1,
62897d2024f826ea90b7efa1,SCN,2024-06-11_12h10.03.285,LearnStrategy,2023.2.3,Win32,59.88023952,5,2,3,,,,,,,,4,01,,,,,,,,,,,7,3.195,0,,,,,,0.102866657,-0.400601088,1,0,0,3.1947,Peridotite_rect,2,0,2,0,1,
62897d2024f826ea90b7efa1,SCN,2024-06-11_12h10.03.285,LearnStrategy,2023.2.3,Win32,59.88023952,5,2,4,,,,,,,,6,12,,,,,,,,,,,4,2.135,0,,,,,,0.346047213,-0.255432425,1,0,0,2.1353,Gabbro_rect,3,0,3,0,1,
62897d2024f826ea90b7efa1,SCN,2024-06-11_12h10.03.285,LearnStrategy,2023.2.3,Win32,59.88023952,5,2,5,,,,,,,,1,14,,,,,,,,,,,5,4.278,0,,,,,,-0.333564487,-0.395053308,1,0,0,4.2781,Obsidian_rect,4,0,4,0,1,
62897d2024f826ea90b7efa1,SCN,2024-06-11_12h10.03.285,LearnStrategy,2023.2.3,Win32,59.88023952,5,2,6,,,,,,,,8,13,,,,,,,,,,,8,1.27,1,,,,,,0.333102229,-0.389505331,1,0,0,1.2698,Pumice_rect,5,0,5,0,1,
62897d2024f826ea90b7efa1,SCN,2024-06-11_12h10.03.285,LearnStrategy,2023.2.3,Win32,59.88023952,5,2,7,,,,,,,,5,09,,,,,,,,,,,6,5.878,0,,,,,,-0.144012797,-0.409847618,1,0,0,5.8779,Pegmatite_rect,6,0,6,0,1,
62897d2024f826ea90b7efa1,SCN,2024-06-11_12h10.03.285,LearnStrategy,2023.2.3,Win32,59.88023952,5,2,8,,,,,,,,7,12,,,,,,,,,,,7,4.047,1,,,,,,0.097318581,-0.398751762,1,0,0,4.0467,Peridotite_rect,7,0,7,0,1,
62897d2024f826ea90b7efa1,SCN,2024-06-11_12h10.03.285,LearnStrategy,2023.2.3,Win32,59.88023952,5,2,9,,,,,,,,5,12,,,,,,,,,,,4,2.561,0,,,,,,0.365464689,-0.25635694,1,0,0,2.561,Gabbro_rect,8,0,8,0,1,
62897d2024f826ea90b7efa1,SCN,2024-06-11_12h10.03.285,LearnStrategy,2023.2.3,Win32,59.88023952,5,2,10,,,,,,,,1,07,,,,,,,,,,,6,4.214,0,,,,,,-0.098705353,-0.398751762,1,0,0,4.2142,Pegmatite_rect,9,0,9,0,1,
62897d2024f826ea90b7efa1,SCN,2024-06-11_12h10.03.285,LearnStrategy,2023.2.3,Win32,59.88023952,5,2,11,,,,,,,,2,12,,,,,,,,,,,8,1.31,0,,,,,,0.39227927,-0.418169238,1,0,0,1.3103,Pumice_rect,10,0,10,0,1,
62897d2024f826ea90b7efa1,SCN,2024-06-11_12h10.03.285,LearnStrategy,2023.2.3,Win32,59.88023952,5,2,12,,,,,,,,2,08,,,,,,,,,,,2,2.396,1,,,,,,-0.171752041,-0.249884448,1,0,0,2.3957,Basalt_rect,11,0,11,0,1,
62897d2024f826ea90b7efa1,SCN,2024-06-11_12h10.03.285,LearnStrategy,2023.2.3,Win32,59.88023952,5,2,13,,,,,,,,3,07,,,,,,,,,,,6,1.344,0,,,,,,-0.130143298,-0.395977823,1,0,0,1.3435,Pegmatite_rect,12,0,12,0,1,
62897d2024f826ea90b7efa1,SCN,2024-06-11_12h10.03.285,LearnStrategy,2023.2.3,Win32,59.88023952,5,2,14,,,,,,,,3,14,,,,,,,,,,,7,2.044,0,,,,,,0.105640597,-0.396902634,1,0,0,2.0442,Peridotite_rect,13,0,13,0,1,
62897d2024f826ea90b7efa1,SCN,2024-06-11_12h10.03.285,LearnStrategy,2023.2.3,Win32,59.88023952,5,2,15,,,,,,,,7,07,,,,,,,,,,,7,1.029,1,,,,,,0.105640597,-0.396902634,1,0,0,1.0285,Peridotite_rect,14,0,14,0,1,
62897d2024f826ea90b7efa1,SCN,2024-06-11_12h10.03.285,LearnStrategy,2023.2.3,Win32,59.88023952,5,2,16,,,,,,,,6,13,,,,,,,,,,,6,2.223,1,,,,,,-0.075589325,-0.414470784,1,0,0,2.2231,Pegmatite_rect,15,0,15,0,1,
62897d2024f826ea90b7efa1,SCN,2024-06-11_12h10.03.285,LearnStrategy,2023.2.3,Win32,59.88023952,6,1,1,0.063106796,0.078363314,1,0,0,2.7089,Peridotite_04,7,04,4,5,2.709,-0.097780839,-0.407998292,1,0,0,18.3021,Pegmatite_rect,6,18.302,0,0,0,0,0,1,,,,,,,,,,,,,
62897d2024f826ea90b7efa1,SCN,2024-06-11_12h10.03.285,LearnStrategy,2023.2.3,Win32,59.88023952,6,1,2,0.237864374,-0.258206216,1,0,0,2.6684,Peridotite_15,7,15,2,6,2.668,-0.052473346,-0.40707358,1,0,0,8.0645,Pegmatite_rect,6,8.064,0,1,0,1,0,1,,,,,,,,,,,,,
62897d2024f826ea90b7efa1,SCN,2024-06-11_12h10.03.285,LearnStrategy,2023.2.3,Win32,59.88023952,6,1,3,0.087147537,-0.434812774,1,0,0,1.2601,Peridotite_16,7,16,1,5,1.26,0.091770703,-0.393203883,1,0,0,1.2552,Peridotite_rect,7,1.255,1,2,0,2,0,1,,,,,,,,,,,,,
62897d2024f826ea90b7efa1,SCN,2024-06-11_12h10.03.285,LearnStrategy,2023.2.3,Win32,59.88023952,6,1,4,-0.21058714,0.097780789,1,0,0,1.2693,Pegmatite_10,6,10,4,3,1.269,0.143550638,-0.382108324,1,0,0,0.9334,Peridotite_rect,7,0.933,0,3,0,3,0,1,,,,,,,,,,,,,
62897d2024f826ea90b7efa1,SCN,2024-06-11_12h10.03.285,LearnStrategy,2023.2.3,Win32,59.88023952,6,1,5,-0.389042975,0.242024962,1,0,0,2.1609,Pegmatite_03,6,03,5,2,2.161,-0.160656481,-0.383032839,1,0,0,1.3609,Pegmatite_rect,6,1.361,1,4,0,4,0,1,,,,,,,,,,,,,
62897d2024f826ea90b7efa1,SCN,2024-06-11_12h10.03.285,LearnStrategy,2023.2.3,Win32,59.88023952,6,1,6,0.250809358,0.254969946,1,0,0,2.9851,Pegmatite_15,6,15,5,6,2.985,-0.156957781,-0.385806778,1,0,0,1.019,Pegmatite_rect,6,1.019,1,5,0,5,0,1,,,,,,,,,,,,,
62897d2024f826ea90b7efa1,SCN,2024-06-11_12h10.03.285,LearnStrategy,2023.2.3,Win32,59.88023952,6,1,7,0.548543986,0.085760518,1,0,0,1.9439,Diorite_02,3,02,4,8,1.944,0.081599658,-0.394128596,1,0,0,1.5027,Peridotite_rect,7,1.503,0,6,0,6,0,1,,,,,,,,,,,,,
62897d2024f826ea90b7efa1,SCN,2024-06-11_12h10.03.285,LearnStrategy,2023.2.3,Win32,59.88023952,6,1,8,-0.073740147,-0.111188179,1,0,0,2.1949,Obsidian_08,5,08,3,4,2.195,0.390430241,-0.244336718,1,0,0,2.9015,Gabbro_rect,4,2.901,0,7,0,7,0,1,,,,,,,,,,,,,
62897d2024f826ea90b7efa1,SCN,2024-06-11_12h10.03.285,LearnStrategy,2023.2.3,Win32,59.88023952,6,1,9,-0.381645721,-0.419093851,1,0,0,2.6779,Obsidian_05,5,05,1,2,2.678,-0.386268937,-0.398751762,1,0,0,0.8888,Obsidian_rect,5,0.889,1,8,0,8,0,1,,,,,,,,,,,,,
62897d2024f826ea90b7efa1,SCN,2024-06-11_12h10.03.285,LearnStrategy,2023.2.3,Win32,59.88023952,6,1,10,-0.386268937,0.241100324,1,0,0,1.6621,Pegmatite_03,6,03,5,2,1.662,-0.375173229,-0.410772132,1,0,0,1.0656,Obsidian_rect,5,1.066,0,9,0,9,0,1,,,,,,,,,,,,,
62897d2024f826ea90b7efa1,SCN,2024-06-11_12h10.03.285,LearnStrategy,2023.2.3,Win32,59.88023952,6,1,11,-0.227230677,0.426028662,1,0,0,3.9457,Basalt_06,2,06,6,3,3.946,-0.130143298,-0.24803527,1,0,0,1.9575,Basalt_rect,2,1.957,1,10,0,10,0,1,,,,,,,,,,,,,
62897d2024f826ea90b7efa1,SCN,2024-06-11_12h10.03.285,LearnStrategy,2023.2.3,Win32,59.88023952,6,1,12,-0.532362385,0.40383726,1,0,0,1.9665,Diorite_16,3,16,6,1,1.966,0.088996764,-0.405224254,1,0,0,3.275,Peridotite_rect,7,3.275,0,11,0,11,0,1,,,,,,,,,,,,,
62897d2024f826ea90b7efa1,SCN,2024-06-11_12h10.03.285,LearnStrategy,2023.2.3,Win32,59.88023952,6,1,13,-0.082986579,-0.267452746,1,0,0,3.1447,Andesite_01,1,01,2,4,3.145,0.116736057,-0.244336718,1,0,0,3.999,Diorite_rect,3,3.999,0,12,0,12,0,1,,,,,,,,,,,,,
62897d2024f826ea90b7efa1,SCN,2024-06-11_12h10.03.285,LearnStrategy,2023.2.3,Win32,59.88023952,6,1,14,-0.545307369,0.118122903,1,0,0,2.4607,Basalt_02,2,02,4,1,2.461,-0.337263039,-0.236014949,1,0,0,5.0843,Andesite_rect,1,5.084,0,13,0,13,0,1,,,,,,,,,,,,,
62897d2024f826ea90b7efa1,SCN,2024-06-11_12h10.03.285,LearnStrategy,2023.2.3,Win32,59.88023952,6,1,15,0.243411956,-0.110263664,1,0,0,1.5016,Diorite_15,3,15,3,6,1.502,-0.17452598,-0.254507762,1,0,0,1.5002,Basalt_rect,2,1.5,0,14,0,14,0,1,,,,,,,,,,,,,
62897d2024f826ea90b7efa1,SCN,2024-06-11_12h10.03.285,LearnStrategy,2023.2.3,Win32,59.88023952,6,1,16,0.407998193,-0.081599658,1,0,0,1.3942,Pegmatite_05,6,05,3,7,1.394,0.382108225,-0.243411956,1,0,0,1.7346,Gabbro_rect,4,1.735,0,15,0,15,0,1,,,,,,,,,,,,,
62897d2024f826ea90b7efa1,SCN,2024-06-11_12h10.03.285,LearnStrategy,2023.2.3,Win32,59.88023952,6,2,1,,,,,,,,3,11,,,,,,,,,,,6,2.778,0,,,,,,-0.084835855,-0.398751762,1,0,0,2.7784,Pegmatite_rect,0,0,0,0,1,
62897d2024f826ea90b7efa1,SCN,2024-06-11_12h10.03.285,LearnStrategy,2023.2.3,Win32,59.88023952,6,2,2,,,,,,,,1,06,,,,,,,,,,,6,5.478,0,,,,,,-0.084835855,-0.398751762,1,0,0,5.478,Pegmatite_rect,1,0,1,0,1,
62897d2024f826ea90b7efa1,SCN,2024-06-11_12h10.03.285,LearnStrategy,2023.2.3,Win32,59.88023952,6,2,3,,,,,,,,8,10,,,,,,,,,,,8,1.361,1,,,,,,0.371937181,-0.408922807,1,0,0,1.3614,Pumice_rect,2,0,2,0,1,
62897d2024f826ea90b7efa1,SCN,2024-06-11_12h10.03.285,LearnStrategy,2023.2.3,Win32,59.88023952,6,2,4,,,,,,,,6,06,,,,,,,,,,,4,6.994,0,,,,,,0.378409673,-0.246185994,1,0,0,6.9942,Gabbro_rect,3,0,3,0,1,
62897d2024f826ea90b7efa1,SCN,2024-06-11_12h10.03.285,LearnStrategy,2023.2.3,Win32,59.88023952,6,2,5,,,,,,,,7,02,,,,,,,,,,,4,1.178,0,,,,,,0.376560347,-0.244336718,1,0,0,1.1785,Gabbro_rect,4,0,4,0,1,
62897d2024f826ea90b7efa1,SCN,2024-06-11_12h10.03.285,LearnStrategy,2023.2.3,Win32,59.88023952,6,2,6,,,,,,,,4,13,,,,,,,,,,,4,2.719,1,,,,,,0.375635733,-0.243411956,1,0,0,2.7192,Gabbro_rect,5,0,5,0,1,
62897d2024f826ea90b7efa1,SCN,2024-06-11_12h10.03.285,LearnStrategy,2023.2.3,Win32,59.88023952,6,2,7,,,,,,,,7,05,,,,,,,,,,,1,2.793,0,,,,,,-0.350208023,-0.245261232,1,0,0,2.7933,Andesite_rect,6,0,6,0,1,
62897d2024f826ea90b7efa1,SCN,2024-06-11_12h10.03.285,LearnStrategy,2023.2.3,Win32,59.88023952,6,2,8,,,,,,,,1,16,,,,,,,,,,,6,3.361,0,,,,,,-0.090383585,-0.387656104,1,0,0,3.3613,Pegmatite_rect,7,0,7,0,1,
62897d2024f826ea90b7efa1,SCN,2024-06-11_12h10.03.285,LearnStrategy,2023.2.3,Win32,59.88023952,6,2,9,,,,,,,,3,13,,,,,,,,,,,6,1.053,0,,,,,,-0.090383585,-0.386731392,1,0,0,1.053,Pegmatite_rect,8,0,8,0,1,
62897d2024f826ea90b7efa1,SCN,2024-06-11_12h10.03.285,LearnStrategy,2023.2.3,Win32,59.88023952,6,2,10,,,,,,,,4,12,,,,,,,,,,,2,1.694,0,,,,,,-0.118122829,-0.252658486,1,0,0,1.694,Basalt_rect,9,0,9,0,1,
62897d2024f826ea90b7efa1,SCN,2024-06-11_12h10.03.285,LearnStrategy,2023.2.3,Win32,59.88023952,6,2,11,,,,,,,,5,11,,,,,,,,,,,5,1.778,1,,,,,,-0.347433985,-0.403375126,1,0,0,1.7784,Obsidian_rect,10,0,10,0,1,
62897d2024f826ea90b7efa1,SCN,2024-06-11_12h10.03.285,LearnStrategy,2023.2.3,Win32,59.88023952,6,2,12,,,,,,,,2,09,,,,,,,,,,,7,1.982,0,,,,,,0.167591576,-0.398751762,1,0,0,1.9817,Peridotite_rect,11,0,11,0,1,
62897d2024f826ea90b7efa1,SCN,2024-06-11_12h10.03.285,LearnStrategy,2023.2.3,Win32,59.88023952,6,2,13,,,,,,,,5,10,,,,,,,,,,,5,2.311,1,,,,,,-0.366851461,-0.385806778,1,0,0,2.3113,Obsidian_rect,12,0,12,0,1,
62897d2024f826ea90b7efa1,SCN,2024-06-11_12h10.03.285,LearnStrategy,2023.2.3,Win32,59.88023952,6,2,14,,,,,,,,8,14,,,,,,,,,,,8,1.229,1,,,,,,0.339574721,-0.383032839,1,0,0,1.2289,Pumice_rect,13,0,13,0,1,
62897d2024f826ea90b7efa1,SCN,2024-06-11_12h10.03.285,LearnStrategy,2023.2.3,Win32,59.88023952,6,2,15,,,,,,,,6,08,,,,,,,,,,,4,3.993,0,,,,,,0.406149164,-0.260055493,1,0,0,3.9932,Gabbro_rect,14,0,14,0,1,
62897d2024f826ea90b7efa1,SCN,2024-06-11_12h10.03.285,LearnStrategy,2023.2.3,Win32,59.88023952,6,2,16,,,,,,,,2,14,,,,,,,,,,,6,1.545,0,,,,,,-0.120896768,-0.402450315,1,0,0,1.5446,Pegmatite_rect,15,0,15,0,1,
62897d2024f826ea90b7efa1,SCN,2024-06-11_12h10.03.285,LearnStrategy,2023.2.3,Win32,59.88023952,7,1,1,-0.095006801,-0.077901204,1,0,0,3.7606,Obsidian_08,5,08,3,4,3.761,-0.333564487,-0.400601088,1,0,0,2.283,Obsidian_rect,5,2.283,1,0,0,0,0,1,,,,,,,,,,,,,
62897d2024f826ea90b7efa1,SCN,2024-06-11_12h10.03.285,LearnStrategy,2023.2.3,Win32,59.88023952,7,1,2,0.538372941,0.090383659,1,0,0,2.5174,Diorite_02,3,02,4,8,2.517,0.112113088,-0.406148867,1,0,0,2.1676,Peridotite_rect,7,2.168,0,1,0,1,0,1,,,,,,,,,,,,,
62897d2024f826ea90b7efa1,SCN,2024-06-11_12h10.03.285,LearnStrategy,2023.2.3,Win32,59.88023952,7,1,3,-0.219833423,0.120896892,1,0,0,2.2607,Pegmatite_10,6,10,4,3,2.261,-0.072815386,-0.40707358,1,0,0,7.6684,Pegmatite_rect,6,7.668,1,2,0,2,0,1,,,,,,,,,,,,,
62897d2024f826ea90b7efa1,SCN,2024-06-11_12h10.03.285,LearnStrategy,2023.2.3,Win32,59.88023952,7,1,4,-0.376097991,-0.098243195,1,0,0,1.1855,Peridotite_13,7,13,3,2,1.186,-0.08576037,-0.408922807,1,0,0,0.8263,Pegmatite_rect,6,0.826,0,3,0,3,0,1,,,,,,,,,,,,,
62897d2024f826ea90b7efa1,SCN,2024-06-11_12h10.03.285,LearnStrategy,2023.2.3,Win32,59.88023952,7,1,5,-0.401987958,0.2429496,1,0,0,5.3285,Pegmatite_03,6,03,5,2,5.329,0.099168105,-0.40429964,1,0,0,4.4116,Peridotite_rect,7,4.412,0,4,0,4,0,1,,,,,,,,,,,,,
62897d2024f826ea90b7efa1,SCN,2024-06-11_12h10.03.285,LearnStrategy,2023.2.3,Win32,59.88023952,7,1,6,0.544845433,0.382570495,1,0,0,2.0239,Peridotite_14,7,14,6,8,2.024,-0.153259228,-0.394128596,1,0,0,1.5776,Pegmatite_rect,6,1.578,0,5,0,5,0,1,,,,,,,,,,,,,
62897d2024f826ea90b7efa1,SCN,2024-06-11_12h10.03.285,LearnStrategy,2023.2.3,Win32,59.88023952,7,1,7,0.390430241,-0.259130978,1,0,0,3.9112,Basalt_01,2,01,2,7,3.911,0.086223121,-0.258206216,1,0,0,7.1832,Diorite_rect,3,7.183,0,6,0,6,0,1,,,,,,,,,,,,,
62897d2024f826ea90b7efa1,SCN,2024-06-11_12h10.03.285,LearnStrategy,2023.2.3,Win32,59.88023952,7,1,8,-0.236477108,-0.275774416,1,0,0,4.7528,Diorite_10,3,10,2,3,4.753,-0.109801061,-0.259130978,1,0,0,2.291,Basalt_rect,2,2.291,0,7,0,7,0,1,,,,,,,,,,,,,
62897d2024f826ea90b7efa1,SCN,2024-06-11_12h10.03.285,LearnStrategy,2023.2.3,Win32,59.88023952,7,1,9,0.097318581,-0.078825719,1,0,0,1.5777,Andesite_11,1,11,3,5,1.578,0.081599658,-0.258206216,1,0,0,1.7162,Diorite_rect,3,1.716,0,8,0,8,0,1,,,,,,,,,,,,,
62897d2024f826ea90b7efa1,SCN,2024-06-11_12h10.03.285,LearnStrategy,2023.2.3,Win32,59.88023952,7,1,10,0.412621656,0.104253281,1,0,0,4.1943,Diorite_12,3,12,4,7,4.194,-0.339112316,-0.236014949,1,0,0,4.8616,Andesite_rect,1,4.862,0,9,0,9,0,1,,,,,,,,,,,,,
62897d2024f826ea90b7efa1,SCN,2024-06-11_12h10.03.285,LearnStrategy,2023.2.3,Win32,59.88023952,7,1,11,-0.060795164,0.249422092,1,0,0,4.5685,Gabbro_10,4,10,5,4,4.569,0.370087855,-0.408922807,1,0,0,2.693,Pumice_rect,8,2.693,0,10,0,10,0,1,,,,,,,,,,,,,
62897d2024f826ea90b7efa1,SCN,2024-06-11_12h10.03.285,LearnStrategy,2023.2.3,Win32,59.88023952,7,1,12,0.247110509,0.253120595,1,0,0,3.4943,Pegmatite_15,6,15,5,6,3.494,0.346971827,-0.258206216,1,0,0,1.7993,Gabbro_rect,4,1.799,0,11,0,11,0,1,,,,,,,,,,,,,
62897d2024f826ea90b7efa1,SCN,2024-06-11_12h10.03.285,LearnStrategy,2023.2.3,Win32,59.88023952,7,1,13,-0.239250899,-0.423717116,1,0,0,6.7108,Pumice_15,8,15,1,3,6.711,0.382108225,-0.388580816,1,0,0,1.027,Pumice_rect,8,1.027,1,12,0,12,0,1,,,,,,,,,,,,,
62897d2024f826ea90b7efa1,SCN,2024-06-11_12h10.03.285,LearnStrategy,2023.2.3,Win32,59.88023952,7,1,14,-0.558252353,0.127369384,1,0,0,3.9444,Basalt_02,2,02,4,1,3.944,-0.111650337,-0.25635694,1,0,0,2.2926,Basalt_rect,2,2.293,1,13,0,13,0,1,,,,,,,,,,,,,
62897d2024f826ea90b7efa1,SCN,2024-06-11_12h10.03.285,LearnStrategy,2023.2.3,Win32,59.88023952,7,1,15,-0.074664662,0.389042987,1,0,0,2.9201,Andesite_09,1,09,6,4,2.92,-0.105177845,-0.393203883,1,0,0,1.933,Pegmatite_rect,6,1.933,0,14,0,14,0,1,,,,,,,,,,,,,
62897d2024f826ea90b7efa1,SCN,2024-06-11_12h10.03.285,LearnStrategy,2023.2.3,Win32,59.88023952,7,1,16,0.064956122,-0.079750481,1,0,0,1.0221,Andesite_11,1,11,3,5,1.022,-0.356680515,-0.267452746,1,0,0,1.4721,Andesite_rect,1,1.472,1,15,0,15,0,1,,,,,,,,,,,,,
62897d2024f826ea90b7efa1,SCN,2024-06-11_12h10.03.285,LearnStrategy,2023.2.3,Win32,59.88023952,7,2,1,,,,,,,,6,08,,,,,,,,,,,6,2.635,1,,,,,,-0.081137154,-0.396902634,1,0,0,2.6355,Pegmatite_rect,0,0,0,0,1,
62897d2024f826ea90b7efa1,SCN,2024-06-11_12h10.03.285,LearnStrategy,2023.2.3,Win32,59.88023952,7,2,2,,,,,,,,8,10,,,,,,,,,,,8,2.546,1,,,,,,0.405224254,-0.396902634,1,0,0,2.5461,Pumice_rect,1,0,1,0,1,
62897d2024f826ea90b7efa1,SCN,2024-06-11_12h10.03.285,LearnStrategy,2023.2.3,Win32,59.88023952,7,2,3,,,,,,,,8,13,,,,,,,,,,,8,0.961,1,,,,,,0.410772132,-0.381183612,1,0,0,0.9611,Pumice_rect,2,0,2,0,1,
62897d2024f826ea90b7efa1,SCN,2024-06-11_12h10.03.285,LearnStrategy,2023.2.3,Win32,59.88023952,7,2,4,,,,,,,,2,05,,,,,,,,,,,1,4.745,0,,,,,,-0.352981962,-0.258206216,1,0,0,4.7446,Andesite_rect,3,0,3,0,1,
62897d2024f826ea90b7efa1,SCN,2024-06-11_12h10.03.285,LearnStrategy,2023.2.3,Win32,59.88023952,7,2,5,,,,,,,,1,02,,,,,,,,,,,5,3.426,0,,,,,,-0.383495146,-0.406148867,1,0,0,3.4259,Obsidian_rect,4,0,4,0,1,
62897d2024f826ea90b7efa1,SCN,2024-06-11_12h10.03.285,LearnStrategy,2023.2.3,Win32,59.88023952,7,2,6,,,,,,,,2,04,,,,,,,,,,,4,2.727,0,,,,,,0.433888161,-0.259130978,1,0,0,2.727,Gabbro_rect,5,0,5,0,1,
62897d2024f826ea90b7efa1,SCN,2024-06-11_12h10.03.285,LearnStrategy,2023.2.3,Win32,59.88023952,7,2,7,,,,,,,,5,10,,,,,,,,,,,5,2.845,1,,,,,,-0.316920802,-0.397827148,1,0,0,2.8452,Obsidian_rect,6,0,6,0,1,
62897d2024f826ea90b7efa1,SCN,2024-06-11_12h10.03.285,LearnStrategy,2023.2.3,Win32,59.88023952,7,2,8,,,,,,,,6,13,,,,,,,,,,,6,1.872,1,,,,,,-0.131067813,-0.398751762,1,0,0,1.8724,Pegmatite_rect,7,0,7,0,1,
62897d2024f826ea90b7efa1,SCN,2024-06-11_12h10.03.285,LearnStrategy,2023.2.3,Win32,59.88023952,7,2,9,,,,,,,,7,07,,,,,,,,,,,6,1.098,0,,,,,,-0.131067813,-0.398751762,1,0,0,1.098,Pegmatite_rect,8,0,8,0,1,
62897d2024f826ea90b7efa1,SCN,2024-06-11_12h10.03.285,LearnStrategy,2023.2.3,Win32,59.88023952,7,2,10,,,,,,,,5,04,,,,,,,,,,,5,1.097,1,,,,,,-0.369625499,-0.384882165,1,0,0,1.0969,Obsidian_rect,9,0,9,0,1,
62897d2024f826ea90b7efa1,SCN,2024-06-11_12h10.03.285,LearnStrategy,2023.2.3,Win32,59.88023952,7,2,11,,,,,,,,7,05,,,,,,,,,,,7,2.061,1,,,,,,0.081599658,-0.397827148,1,0,0,2.0605,Peridotite_rect,10,0,10,0,1,
62897d2024f826ea90b7efa1,SCN,2024-06-11_12h10.03.285,LearnStrategy,2023.2.3,Win32,59.88023952,7,2,12,,,,,,,,4,16,,,,,,,,,,,7,1.128,0,,,,,,0.07605178,-0.397827148,1,0,0,1.1276,Peridotite_rect,11,0,11,0,1,
62897d2024f826ea90b7efa1,SCN,2024-06-11_12h10.03.285,LearnStrategy,2023.2.3,Win32,59.88023952,7,2,13,,,,,,,,3,13,,,,,,,,,,,6,1.512,0,,,,,,-0.124595321,-0.406148867,1,0,0,1.512,Pegmatite_rect,12,0,12,0,1,
62897d2024f826ea90b7efa1,SCN,2024-06-11_12h10.03.285,LearnStrategy,2023.2.3,Win32,59.88023952,7,2,14,,,,,,,,3,11,,,,,,,,,,,6,2.311,0,,,,,,-0.137540305,-0.38395765,1,0,0,2.3108,Pegmatite_rect,13,0,13,0,1,
62897d2024f826ea90b7efa1,SCN,2024-06-11_12h10.03.285,LearnStrategy,2023.2.3,Win32,59.88023952,7,2,15,,,,,,,,1,03,,,,,,,,,,,1,3.144,1,,,,,,-0.3520573,-0.254507762,1,0,0,3.1442,Andesite_rect,14,0,14,0,1,
62897d2024f826ea90b7efa1,SCN,2024-06-11_12h10.03.285,LearnStrategy,2023.2.3,Win32,59.88023952,7,2,16,,,,,,,,4,14,,,,,,,,,,,1,0.962,0,,,,,,-0.338187702,-0.249884448,1,0,0,0.9619,Andesite_rect,15,0,15,0,1,
62897d2024f826ea90b7efa1,SCN,2024-06-11_12h10.03.285,LearnStrategy,2023.2.3,Win32,59.88023952,8,1,1,-0.230004616,0.097780789,1,0,0,2.2946,Pegmatite_10,6,10,4,3,2.295,-0.132917089,-0.39227927,1,0,0,1.5425,Pegmatite_rect,6,1.543,1,0,0,0,0,1,,,,,,,,,,,,,
62897d2024f826ea90b7efa1,SCN,2024-06-11_12h10.03.285,LearnStrategy,2023.2.3,Win32,59.88023952,8,1,2,-0.377022654,-0.083448935,1,0,0,1.2105,Peridotite_13,7,13,3,2,1.211,-0.330790547,-0.260055493,1,0,0,5.1313,Andesite_rect,1,5.131,0,1,0,1,0,1,,,,,,,,,,,,,
62897d2024f826ea90b7efa1,SCN,2024-06-11_12h10.03.285,LearnStrategy,2023.2.3,Win32,59.88023952,8,1,3,0.223069867,-0.251733724,1,0,0,5.9857,Peridotite_15,7,15,2,6,5.986,0.102866657,-0.412621359,1,0,0,4.5775,Peridotite_rect,7,4.577,1,2,0,2,0,1,,,,,,,,,,,,,
62897d2024f826ea90b7efa1,SCN,2024-06-11_12h10.03.285,LearnStrategy,2023.2.3,Win32,59.88023952,8,1,4,0.101017134,-0.246185994,1,0,0,1.7026,Obsidian_06,5,06,2,5,1.703,0.36269075,-0.259130978,1,0,0,3.6823,Gabbro_rect,4,3.682,0,3,0,3,0,1,,,,,,,,,,,,,
62897d2024f826ea90b7efa1,SCN,2024-06-11_12h10.03.285,LearnStrategy,2023.2.3,Win32,59.88023952,8,1,5,0.094544642,0.414932961,1,0,0,1.9521,Obsidian_07,5,07,6,5,1.952,-0.356680515,-0.391354657,1,0,0,0.985,Obsidian_rect,5,0.985,1,4,0,4,0,1,,,,,,,,,,,,,
62897d2024f826ea90b7efa1,SCN,2024-06-11_12h10.03.285,LearnStrategy,2023.2.3,Win32,59.88023952,8,1,6,-0.070966109,-0.089921427,1,0,0,1.3124,Obsidian_08,5,08,3,4,1.312,-0.32801651,-0.395053308,1,0,0,0.7821,Obsidian_rect,5,0.782,1,5,0,5,0,1,,,,,,,,,,,,,
62897d2024f826ea90b7efa1,SCN,2024-06-11_12h10.03.285,LearnStrategy,2023.2.3,Win32,59.88023952,8,1,7,0.368238826,-0.103791172,1,0,0,2.0449,Pegmatite_05,6,05,3,7,2.045,0.402450315,-0.251733724,1,0,0,4.0325,Gabbro_rect,4,4.033,0,6,0,6,0,1,,,,,,,,,,,,,
62897d2024f826ea90b7efa1,SCN,2024-06-11_12h10.03.285,LearnStrategy,2023.2.3,Win32,59.88023952,8,1,8,-0.390892251,0.225381401,1,0,0,3.742,Pegmatite_03,6,03,5,2,3.742,-0.114424277,-0.40429964,1,0,0,2.2325,Pegmatite_rect,6,2.233,1,7,0,7,0,1,,,,,,,,,,,,,
62897d2024f826ea90b7efa1,SCN,2024-06-11_12h10.03.285,LearnStrategy,2023.2.3,Win32,59.88023952,8,1,9,0.530975539,-0.400601088,1,0,0,2.2792,Basalt_16,2,16,1,8,2.279,-0.178224533,-0.239713502,1,0,0,4.7249,Basalt_rect,2,4.725,1,8,0,8,0,1,,,,,,,,,,,,,
62897d2024f826ea90b7efa1,SCN,2024-06-11_12h10.03.285,LearnStrategy,2023.2.3,Win32,59.88023952,8,1,10,-0.544382731,0.39274154,1,0,0,2.4397,Diorite_16,3,16,6,1,2.44,-0.168053488,-0.398751762,1,0,0,3.5286,Pegmatite_rect,6,3.529,0,9,0,9,0,1,,,,,,,,,,,,,
62897d2024f826ea90b7efa1,SCN,2024-06-11_12h10.03.285,LearnStrategy,2023.2.3,Win32,59.88023952,8,1,11,-0.372399438,-0.42186779,1,0,0,4.0939,Obsidian_05,5,05,1,2,4.094,0.160194175,-0.251733724,1,0,0,1.7288,Diorite_rect,3,1.729,0,10,0,10,0,1,,,,,,,,,,,,,
62897d2024f826ea90b7efa1,SCN,2024-06-11_12h10.03.285,LearnStrategy,2023.2.3,Win32,59.88023952,8,1,12,0.411696746,0.088534432,1,0,0,1.5574,Diorite_12,3,12,4,7,1.557,0.149098517,-0.25635694,1,0,0,2.254,Diorite_rect,3,2.254,1,11,0,11,0,1,,,,,,,,,,,,,
62897d2024f826ea90b7efa1,SCN,2024-06-11_12h10.03.285,LearnStrategy,2023.2.3,Win32,59.88023952,8,1,13,0.426491253,-0.092695465,1,0,0,2.9357,Pegmatite_05,6,05,3,7,2.936,-0.358529791,-0.39227927,1,0,0,2.339,Obsidian_rect,5,2.339,0,12,0,12,0,1,,,,,,,,,,,,,
62897d2024f826ea90b7efa1,SCN,2024-06-11_12h10.03.285,LearnStrategy,2023.2.3,Win32,59.88023952,8,1,14,0.387656301,-0.417244624,1,0,0,2.0526,Pegmatite_07,6,07,1,7,2.053,-0.469486817,-0.389505331,1,0,0,3.6166,Obsidian_rect,5,3.617,0,13,0,13,0,1,,,,,,,,,,,,,
62897d2024f826ea90b7efa1,SCN,2024-06-11_12h10.03.285,LearnStrategy,2023.2.3,Win32,59.88023952,8,1,15,-0.405686412,0.253120595,1,0,0,8.6276,Pegmatite_03,6,03,5,2,8.628,-0.157882542,-0.390430142,1,0,0,1.4803,Pegmatite_rect,6,1.48,1,14,0,14,0,1,,,,,,,,,,,,,
62897d2024f826ea90b7efa1,SCN,2024-06-11_12h10.03.285,LearnStrategy,2023.2.3,Win32,59.88023952,8,1,16,-0.517568125,0.412159022,1,0,0,3.8199,Diorite_16,3,16,6,1,3.82,0.115811641,-0.262829432,1,0,0,1.7772,Diorite_rect,3,1.777,1,15,0,15,0,1,,,,,,,,,,,,,
62897d2024f826ea90b7efa1,SCN,2024-06-11_12h10.03.285,LearnStrategy,2023.2.3,Win32,59.88023952,8,2,1,,,,,,,,7,06,,,,,,,,,,,3,3.683,0,,,,,,0.135229117,-0.251733724,1,0,0,3.6832,Diorite_rect,0,0,0,0,1,
62897d2024f826ea90b7efa1,SCN,2024-06-11_12h10.03.285,LearnStrategy,2023.2.3,Win32,59.88023952,8,2,2,,,,,,,,8,02,,,,,,,,,,,8,1.109,1,,,,,,0.388580717,-0.411696746,1,0,0,1.1089,Pumice_rect,1,0,1,0,1,
62897d2024f826ea90b7efa1,SCN,2024-06-11_12h10.03.285,LearnStrategy,2023.2.3,Win32,59.88023952,8,2,3,,,,,,,,1,06,,,,,,,,,,,6,1.901,0,,,,,,-0.080212639,-0.394128596,1,0,0,1.9006,Pegmatite_rect,2,0,2,0,1,
62897d2024f826ea90b7efa1,SCN,2024-06-11_12h10.03.285,LearnStrategy,2023.2.3,Win32,59.88023952,8,2,4,,,,,,,,5,12,,,,,,,,,,,5,1.412,1,,,,,,-0.376097991,-0.400601088,1,0,0,1.4117,Obsidian_rect,3,0,3,0,1,
62897d2024f826ea90b7efa1,SCN,2024-06-11_12h10.03.285,LearnStrategy,2023.2.3,Win32,59.88023952,8,2,5,,,,,,,,6,09,,,,,,,,,,,5,0.878,0,,,,,,-0.374248715,-0.387656104,1,0,0,0.8784,Obsidian_rect,4,0,4,0,1,
62897d2024f826ea90b7efa1,SCN,2024-06-11_12h10.03.285,LearnStrategy,2023.2.3,Win32,59.88023952,8,2,6,,,,,,,,5,11,,,,,,,,,,,5,0.578,1,,,,,,-0.370550162,-0.379334286,1,0,0,0.5776,Obsidian_rect,5,0,5,0,1,
62897d2024f826ea90b7efa1,SCN,2024-06-11_12h10.03.285,LearnStrategy,2023.2.3,Win32,59.88023952,8,2,7,,,,,,,,8,04,,,,,,,,,,,8,1.345,1,,,,,,0.377485257,-0.38395765,1,0,0,1.3446,Pumice_rect,6,0,6,0,1,
62897d2024f826ea90b7efa1,SCN,2024-06-11_12h10.03.285,LearnStrategy,2023.2.3,Win32,59.88023952,8,2,8,,,,,,,,4,01,,,,,,,,,,,2,3.595,0,,,,,,-0.101479293,-0.252658486,1,0,0,3.5946,Basalt_rect,7,0,7,0,1,
62897d2024f826ea90b7efa1,SCN,2024-06-11_12h10.03.285,LearnStrategy,2023.2.3,Win32,59.88023952,8,2,9,,,,,,,,3,14,,,,,,,,,,,6,1.495,0,,,,,,-0.108876546,-0.390430142,1,0,0,1.4949,Pegmatite_rect,8,0,8,0,1,
62897d2024f826ea90b7efa1,SCN,2024-06-11_12h10.03.285,LearnStrategy,2023.2.3,Win32,59.88023952,8,2,10,,,,,,,,3,09,,,,,,,,,,,6,0.717,0,,,,,,-0.108876546,-0.390430142,1,0,0,0.7168,Pegmatite_rect,9,0,9,0,1,
62897d2024f826ea90b7efa1,SCN,2024-06-11_12h10.03.285,LearnStrategy,2023.2.3,Win32,59.88023952,8,2,11,,,,,,,,1,14,,,,,,,,,,,6,0.727,0,,,,,,-0.108876546,-0.388580816,1,0,0,0.7275,Pegmatite_rect,10,0,10,0,1,
62897d2024f826ea90b7efa1,SCN,2024-06-11_12h10.03.285,LearnStrategy,2023.2.3,Win32,59.88023952,8,2,12,,,,,,,,2,12,,,,,,,,,,,8,1.313,0,,,,,,0.341424245,-0.387656104,1,0,0,1.3127,Pumice_rect,11,0,11,0,1,
62897d2024f826ea90b7efa1,SCN,2024-06-11_12h10.03.285,LearnStrategy,2023.2.3,Win32,59.88023952,8,2,13,,,,,,,,6,06,,,,,,,,,,,4,5.216,0,,,,,,0.36084172,-0.251733724,1,0,0,5.2164,Gabbro_rect,12,0,12,0,1,
62897d2024f826ea90b7efa1,SCN,2024-06-11_12h10.03.285,LearnStrategy,2023.2.3,Win32,59.88023952,8,2,14,,,,,,,,2,08,,,,,,,,,,,3,2.898,0,,,,,,0.135229117,-0.254507762,1,0,0,2.8985,Diorite_rect,13,0,13,0,1,
62897d2024f826ea90b7efa1,SCN,2024-06-11_12h10.03.285,LearnStrategy,2023.2.3,Win32,59.88023952,8,2,15,,,,,,,,4,09,,,,,,,,,,,3,2.427,0,,,,,,0.13245498,-0.25635694,1,0,0,2.427,Diorite_rect,14,0,14,0,1,
62897d2024f826ea90b7efa1,SCN,2024-06-11_12h10.03.285,LearnStrategy,2023.2.3,Win32,59.88023952,8,2,16,,,,,,,,7,02,,,,,,,,,,,6,1.826,0,,,,,,-0.048774793,-0.386731392,1,0,0,1.8261,Pegmatite_rect,15,0,15,0,1,
62897d2024f826ea90b7efa1,SCN,2024-06-11_12h10.03.285,LearnStrategy,2023.2.3,Win32,59.88023952,9,1,1,0.088996764,-0.076051928,1,0,0,1.1264,Andesite_11,1,11,3,5,1.126,0.11858558,-0.40707358,1,0,0,5.2359,Peridotite_rect,7,5.236,0,0,0,0,0,1,,,,,,,,,,,,,
62897d2024f826ea90b7efa1,SCN,2024-06-11_12h10.03.285,LearnStrategy,2023.2.3,Win32,59.88023952,9,1,2,0.365464689,0.243874238,1,0,0,2.5594,Andesite_04,1,04,5,7,2.559,-0.350208023,-0.253583001,1,0,0,2.3847,Andesite_rect,1,2.385,1,1,0,1,0,1,,,,,,,,,,,,,
62897d2024f826ea90b7efa1,SCN,2024-06-11_12h10.03.285,LearnStrategy,2023.2.3,Win32,59.88023952,9,1,3,0.069579288,0.087609794,1,0,0,2.0444,Peridotite_04,7,04,4,5,2.044,-0.347433985,-0.249884448,1,0,0,1.0332,Andesite_rect,1,1.033,0,2,0,2,0,1,,,,,,,,,,,,,
62897d2024f826ea90b7efa1,SCN,2024-06-11_12h10.03.285,LearnStrategy,2023.2.3,Win32,59.88023952,9,1,4,-0.107027122,-0.28039773,1,0,0,4.8271,Andesite_01,1,01,2,4,4.827,0.08807215,-0.239713502,1,0,0,4.5142,Diorite_rect,3,4.514,0,3,0,3,0,1,,,,,,,,,,,,,
62897d2024f826ea90b7efa1,SCN,2024-06-11_12h10.03.285,LearnStrategy,2023.2.3,Win32,59.88023952,9,1,5,-0.358529791,-0.402450315,1,0,0,6.4393,Obsidian_05,5,05,1,2,6.439,-0.365002283,-0.398751762,1,0,0,1.0779,Obsidian_rect,5,1.078,1,4,0,4,0,1,,,,,,,,,,,,,
62897d2024f826ea90b7efa1,SCN,2024-06-11_12h10.03.285,LearnStrategy,2023.2.3,Win32,59.88023952,9,1,6,0.087147537,0.221682774,1,0,0,3.5104,Peridotite_08,7,08,5,5,3.51,-0.106102607,-0.249884448,1,0,0,2.1437,Basalt_rect,2,2.144,0,5,0,5,0,1,,,,,,,,,,,,,
62897d2024f826ea90b7efa1,SCN,2024-06-11_12h10.03.285,LearnStrategy,2023.2.3,Win32,59.88023952,9,1,7,0.235090435,0.096856151,1,0,0,3.0219,Pegmatite_16,6,16,4,6,3.022,-0.376097991,-0.395053308,1,0,0,2.6147,Obsidian_rect,5,2.615,0,6,0,6,0,1,,,,,,,,,,,,,
62897d2024f826ea90b7efa1,SCN,2024-06-11_12h10.03.285,LearnStrategy,2023.2.3,Win32,59.88023952,9,1,8,0.556865507,0.088534432,1,0,0,1.7525,Diorite_02,3,02,4,8,1.752,0.148174101,-0.24803527,1,0,0,3.5007,Diorite_rect,3,3.501,1,7,0,7,0,1,,,,,,,,,,,,,
62897d2024f826ea90b7efa1,SCN,2024-06-11_12h10.03.285,LearnStrategy,2023.2.3,Win32,59.88023952,9,1,9,0.253583001,-0.087147487,1,0,0,1.3938,Diorite_15,3,15,3,6,1.394,0.116736057,-0.400601088,1,0,0,5.8828,Peridotite_rect,7,5.883,0,8,0,8,0,1,,,,,,,,,,,,,
62897d2024f826ea90b7efa1,SCN,2024-06-11_12h10.03.285,LearnStrategy,2023.2.3,Win32,59.88023952,9,1,10,0.548543986,-0.090846188,1,0,0,3.8097,Gabbro_08,4,08,3,8,3.81,0.112113088,-0.247110509,1,0,0,1.8607,Diorite_rect,3,1.861,0,9,0,9,0,1,,,,,,,,,,,,,
62897d2024f826ea90b7efa1,SCN,2024-06-11_12h10.03.285,LearnStrategy,2023.2.3,Win32,59.88023952,9,1,11,0.406149164,0.279010588,1,0,0,1.9285,Andesite_04,1,04,5,7,1.928,0.367314212,-0.242487441,1,0,0,1.3834,Gabbro_rect,4,1.383,0,10,0,10,0,1,,,,,,,,,,,,,
62897d2024f826ea90b7efa1,SCN,2024-06-11_12h10.03.285,LearnStrategy,2023.2.3,Win32,59.88023952,9,1,12,-0.236477108,-0.260980254,1,0,0,4.0273,Diorite_10,3,10,2,3,4.027,-0.116273553,-0.397827148,1,0,0,1.7445,Pegmatite_rect,6,1.744,0,11,0,11,0,1,,,,,,,,,,,,,
62897d2024f826ea90b7efa1,SCN,2024-06-11_12h10.03.285,LearnStrategy,2023.2.3,Win32,59.88023952,9,1,13,0.082524272,-0.22399448,1,0,0,2.3444,Obsidian_06,5,06,2,5,2.344,-0.377022654,-0.406148867,1,0,0,1.0485,Obsidian_rect,5,1.048,1,12,0,12,0,1,,,,,,,,,,,,,
62897d2024f826ea90b7efa1,SCN,2024-06-11_12h10.03.285,LearnStrategy,2023.2.3,Win32,59.88023952,9,1,14,-0.525889894,0.06541833,1,0,0,3.2881,Basalt_02,2,02,4,1,3.288,-0.134766514,-0.24803527,1,0,0,2.1721,Basalt_rect,2,2.172,1,13,0,13,0,1,,,,,,,,,,,,,
62897d2024f826ea90b7efa1,SCN,2024-06-11_12h10.03.285,LearnStrategy,2023.2.3,Win32,59.88023952,9,1,15,0.057559016,0.085760518,1,0,0,1.9871,Peridotite_04,7,04,4,5,1.987,-0.329865786,-0.397827148,1,0,0,2.9047,Obsidian_rect,5,2.905,0,14,0,14,0,1,,,,,,,,,,,,,
62897d2024f826ea90b7efa1,SCN,2024-06-11_12h10.03.285,LearnStrategy,2023.2.3,Win32,59.88023952,9,1,16,0.235090435,0.109801135,1,0,0,3.036,Pegmatite_16,6,16,4,6,3.036,-0.381645721,-0.394128596,1,0,0,2.8663,Obsidian_rect,5,2.866,0,15,0,15,0,1,,,,,,,,,,,,,
62897d2024f826ea90b7efa1,SCN,2024-06-11_12h10.03.285,LearnStrategy,2023.2.3,Win32,59.88023952,9,2,1,,,,,,,,2,14,,,,,,,,,,,2,8.39,1,,,,,,-0.111650337,-0.247110509,1,0,0,8.3897,Basalt_rect,0,0,0,0,1,
62897d2024f826ea90b7efa1,SCN,2024-06-11_12h10.03.285,LearnStrategy,2023.2.3,Win32,59.88023952,9,2,2,,,,,,,,3,07,,,,,,,,,,,6,3.376,0,,,,,,-0.108876546,-0.395053308,1,0,0,3.3761,Pegmatite_rect,1,0,1,0,1,
62897d2024f826ea90b7efa1,SCN,2024-06-11_12h10.03.285,LearnStrategy,2023.2.3,Win32,59.88023952,9,2,3,,,,,,,,6,12,,,,,,,,,,,4,3.078,0,,,,,,0.342348858,-0.251733724,1,0,0,3.078,Gabbro_rect,2,0,2,0,1,
62897d2024f826ea90b7efa1,SCN,2024-06-11_12h10.03.285,LearnStrategy,2023.2.3,Win32,59.88023952,9,2,4,,,,,,,,4,13,,,,,,,,,,,4,1.461,1,,,,,,0.340499335,-0.248959933,1,0,0,1.4609,Gabbro_rect,3,0,3,0,1,
62897d2024f826ea90b7efa1,SCN,2024-06-11_12h10.03.285,LearnStrategy,2023.2.3,Win32,59.88023952,9,2,5,,,,,,,,1,16,,,,,,,,,,,3,3.665,0,,,,,,0.112113088,-0.243411956,1,0,0,3.6648,Diorite_rect,4,0,4,0,1,
62897d2024f826ea90b7efa1,SCN,2024-06-11_12h10.03.285,LearnStrategy,2023.2.3,Win32,59.88023952,9,2,6,,,,,,,,7,10,,,,,,,,,,,3,1.7,0,,,,,,0.112113088,-0.243411956,1,0,0,1.6999,Diorite_rect,5,0,5,0,1,
62897d2024f826ea90b7efa1,SCN,2024-06-11_12h10.03.285,LearnStrategy,2023.2.3,Win32,59.88023952,9,2,7,,,,,,,,8,14,,,,,,,,,,,8,2.242,1,,,,,,0.382108225,-0.398751762,1,0,0,2.2424,Pumice_rect,6,0,6,0,1,
62897d2024f826ea90b7efa1,SCN,2024-06-11_12h10.03.285,LearnStrategy,2023.2.3,Win32,59.88023952,9,2,8,,,,,,,,1,07,,,,,,,,,,,6,2.361,0,,,,,,-0.106102607,-0.388580816,1,0,0,2.361,Pegmatite_rect,7,0,7,0,1,
62897d2024f826ea90b7efa1,SCN,2024-06-11_12h10.03.285,LearnStrategy,2023.2.3,Win32,59.88023952,9,2,9,,,,,,,,3,08,,,,,,,,,,,4,2.119,0,,,,,,0.34882135,-0.242487441,1,0,0,2.1185,Gabbro_rect,8,0,8,0,1,
62897d2024f826ea90b7efa1,SCN,2024-06-11_12h10.03.285,LearnStrategy,2023.2.3,Win32,59.88023952,9,2,10,,,,,,,,5,16,,,,,,,,,,,5,1.346,1,,,,,,-0.41123439,-0.399676375,1,0,0,1.3464,Obsidian_rect,9,0,9,0,1,
62897d2024f826ea90b7efa1,SCN,2024-06-11_12h10.03.285,LearnStrategy,2023.2.3,Win32,59.88023952,9,2,11,,,,,,,,5,09,,,,,,,,,,,5,0.692,1,,,,,,-0.39366619,-0.390430142,1,0,0,0.6916,Obsidian_rect,10,0,10,0,1,
62897d2024f826ea90b7efa1,SCN,2024-06-11_12h10.03.285,LearnStrategy,2023.2.3,Win32,59.88023952,9,2,12,,,,,,,,7,12,,,,,,,,,,,4,1.519,0,,,,,,0.395053209,-0.237864226,1,0,0,1.5185,Gabbro_rect,11,0,11,0,1,
62897d2024f826ea90b7efa1,SCN,2024-06-11_12h10.03.285,LearnStrategy,2023.2.3,Win32,59.88023952,9,2,13,,,,,,,,4,12,,,,,,,,,,,3,2.213,0,,,,,,0.094544642,-0.258206216,1,0,0,2.2125,Diorite_rect,12,0,12,0,1,
62897d2024f826ea90b7efa1,SCN,2024-06-11_12h10.03.285,LearnStrategy,2023.2.3,Win32,59.88023952,9,2,14,,,,,,,,8,16,,,,,,,,,,,8,1.267,1,,,,,,0.391354657,-0.42186779,1,0,0,1.2673,Pumice_rect,13,0,13,0,1,
62897d2024f826ea90b7efa1,SCN,2024-06-11_12h10.03.285,LearnStrategy,2023.2.3,Win32,59.88023952,9,2,15,,,,,,,,6,11,,,,,,,,,,,5,3.829,0,,,,,,-0.371474775,-0.394128596,1,0,0,3.8294,Obsidian_rect,14,0,14,0,1,
62897d2024f826ea90b7efa1,SCN,2024-06-11_12h10.03.285,LearnStrategy,2023.2.3,Win32,59.88023952,9,2,16,,,,,,,,2,09,,,,,,,,,,,3,1.994,0,,,,,,0.088996764,-0.236939464,1,0,0,1.9939,Diorite_rect,15,0,15,0,1,
62897d2024f826ea90b7efa1,SCN,2024-06-11_12h10.03.285,LearnStrategy,2023.2.3,Win32,59.88023952,,,,,,,,,,,,,,,,,,,,,,,,,,,,,,,,,,,,,,,,,,,0
62897d2024f826ea90b7efa1,SCN,2024-06-11_12h10.03.285,LearnStrategy,2023.2.3,Win32,59.88023952,,,,,,,,,,,,,,,,,,,,,,,,,,,,,,,,,,,,,,,,,,,
62897d2024f826ea90b7efa1,SCN,2024-06-11_12h10.03.285,LearnStrategy,2023.2.3,Win32,59.88023952,,,,,,,,,,,2,10,1,1,,,,,,,,,,,,,,,,,,,,,,,,,,,,,
62897d2024f826ea90b7efa1,SCN,2024-06-11_12h10.03.285,LearnStrategy,2023.2.3,Win32,59.88023952,,,,,,,,,,,5,05,1,2,,,,,,,,,,,,,,,,,,,,,,,,,,,,,
62897d2024f826ea90b7efa1,SCN,2024-06-11_12h10.03.285,LearnStrategy,2023.2.3,Win32,59.88023952,,,,,,,,,,,8,15,1,3,,,,,,,,,,,,,,,,,,,,,,,,,,,,,
62897d2024f826ea90b7efa1,SCN,2024-06-11_12h10.03.285,LearnStrategy,2023.2.3,Win32,59.88023952,,,,,,,,,,,1,05,1,4,,,,,,,,,,,,,,,,,,,,,,,,,,,,,
62897d2024f826ea90b7efa1,SCN,2024-06-11_12h10.03.285,LearnStrategy,2023.2.3,Win32,59.88023952,,,,,,,,,,,7,16,1,5,,,,,,,,,,,,,,,,,,,,,,,,,,,,,
62897d2024f826ea90b7efa1,SCN,2024-06-11_12h10.03.285,LearnStrategy,2023.2.3,Win32,59.88023952,,,,,,,,,,,2,11,1,6,,,,,,,,,,,,,,,,,,,,,,,,,,,,,
62897d2024f826ea90b7efa1,SCN,2024-06-11_12h10.03.285,LearnStrategy,2023.2.3,Win32,59.88023952,,,,,,,,,,,6,07,1,7,,,,,,,,,,,,,,,,,,,,,,,,,,,,,
62897d2024f826ea90b7efa1,SCN,2024-06-11_12h10.03.285,LearnStrategy,2023.2.3,Win32,59.88023952,,,,,,,,,,,2,16,1,8,,,,,,,,,,,,,,,,,,,,,,,,,,,,,
62897d2024f826ea90b7efa1,SCN,2024-06-11_12h10.03.285,LearnStrategy,2023.2.3,Win32,59.88023952,,,,,,,,,,,8,05,2,1,,,,,,,,,,,,,,,,,,,,,,,,,,,,,
62897d2024f826ea90b7efa1,SCN,2024-06-11_12h10.03.285,LearnStrategy,2023.2.3,Win32,59.88023952,,,,,,,,,,,3,06,2,2,,,,,,,,,,,,,,,,,,,,,,,,,,,,,
62897d2024f826ea90b7efa1,SCN,2024-06-11_12h10.03.285,LearnStrategy,2023.2.3,Win32,59.88023952,,,,,,,,,,,3,10,2,3,,,,,,,,,,,,,,,,,,,,,,,,,,,,,
62897d2024f826ea90b7efa1,SCN,2024-06-11_12h10.03.285,LearnStrategy,2023.2.3,Win32,59.88023952,,,,,,,,,,,1,01,2,4,,,,,,,,,,,,,,,,,,,,,,,,,,,,,
62897d2024f826ea90b7efa1,SCN,2024-06-11_12h10.03.285,LearnStrategy,2023.2.3,Win32,59.88023952,,,,,,,,,,,5,06,2,5,,,,,,,,,,,,,,,,,,,,,,,,,,,,,
62897d2024f826ea90b7efa1,SCN,2024-06-11_12h10.03.285,LearnStrategy,2023.2.3,Win32,59.88023952,,,,,,,,,,,7,15,2,6,,,,,,,,,,,,,,,,,,,,,,,,,,,,,
62897d2024f826ea90b7efa1,SCN,2024-06-11_12h10.03.285,LearnStrategy,2023.2.3,Win32,59.88023952,,,,,,,,,,,2,01,2,7,,,,,,,,,,,,,,,,,,,,,,,,,,,,,
62897d2024f826ea90b7efa1,SCN,2024-06-11_12h10.03.285,LearnStrategy,2023.2.3,Win32,59.88023952,,,,,,,,,,,8,06,2,8,,,,,,,,,,,,,,,,,,,,,,,,,,,,,
62897d2024f826ea90b7efa1,SCN,2024-06-11_12h10.03.285,LearnStrategy,2023.2.3,Win32,59.88023952,,,,,,,,,,,8,09,3,1,,,,,,,,,,,,,,,,,,,,,,,,,,,,,
62897d2024f826ea90b7efa1,SCN,2024-06-11_12h10.03.285,LearnStrategy,2023.2.3,Win32,59.88023952,,,,,,,,,,,7,13,3,2,,,,,,,,,,,,,,,,,,,,,,,,,,,,,
62897d2024f826ea90b7efa1,SCN,2024-06-11_12h10.03.285,LearnStrategy,2023.2.3,Win32,59.88023952,,,,,,,,,,,4,15,3,3,,,,,,,,,,,,,,,,,,,,,,,,,,,,,
62897d2024f826ea90b7efa1,SCN,2024-06-11_12h10.03.285,LearnStrategy,2023.2.3,Win32,59.88023952,,,,,,,,,,,5,08,3,4,,,,,,,,,,,,,,,,,,,,,,,,,,,,,
62897d2024f826ea90b7efa1,SCN,2024-06-11_12h10.03.285,LearnStrategy,2023.2.3,Win32,59.88023952,,,,,,,,,,,1,11,3,5,,,,,,,,,,,,,,,,,,,,,,,,,,,,,
62897d2024f826ea90b7efa1,SCN,2024-06-11_12h10.03.285,LearnStrategy,2023.2.3,Win32,59.88023952,,,,,,,,,,,3,15,3,6,,,,,,,,,,,,,,,,,,,,,,,,,,,,,
62897d2024f826ea90b7efa1,SCN,2024-06-11_12h10.03.285,LearnStrategy,2023.2.3,Win32,59.88023952,,,,,,,,,,,6,05,3,7,,,,,,,,,,,,,,,,,,,,,,,,,,,,,
62897d2024f826ea90b7efa1,SCN,2024-06-11_12h10.03.285,LearnStrategy,2023.2.3,Win32,59.88023952,,,,,,,,,,,4,08,3,8,,,,,,,,,,,,,,,,,,,,,,,,,,,,,
62897d2024f826ea90b7efa1,SCN,2024-06-11_12h10.03.285,LearnStrategy,2023.2.3,Win32,59.88023952,,,,,,,,,,,2,02,4,1,,,,,,,,,,,,,,,,,,,,,,,,,,,,,
62897d2024f826ea90b7efa1,SCN,2024-06-11_12h10.03.285,LearnStrategy,2023.2.3,Win32,59.88023952,,,,,,,,,,,1,10,4,2,,,,,,,,,,,,,,,,,,,,,,,,,,,,,
62897d2024f826ea90b7efa1,SCN,2024-06-11_12h10.03.285,LearnStrategy,2023.2.3,Win32,59.88023952,,,,,,,,,,,6,10,4,3,,,,,,,,,,,,,,,,,,,,,,,,,,,,,
62897d2024f826ea90b7efa1,SCN,2024-06-11_12h10.03.285,LearnStrategy,2023.2.3,Win32,59.88023952,,,,,,,,,,,8,08,4,4,,,,,,,,,,,,,,,,,,,,,,,,,,,,,
62897d2024f826ea90b7efa1,SCN,2024-06-11_12h10.03.285,LearnStrategy,2023.2.3,Win32,59.88023952,,,,,,,,,,,7,04,4,5,,,,,,,,,,,,,,,,,,,,,,,,,,,,,
62897d2024f826ea90b7efa1,SCN,2024-06-11_12h10.03.285,LearnStrategy,2023.2.3,Win32,59.88023952,,,,,,,,,,,6,16,4,6,,,,,,,,,,,,,,,,,,,,,,,,,,,,,
62897d2024f826ea90b7efa1,SCN,2024-06-11_12h10.03.285,LearnStrategy,2023.2.3,Win32,59.88023952,,,,,,,,,,,3,12,4,7,,,,,,,,,,,,,,,,,,,,,,,,,,,,,
62897d2024f826ea90b7efa1,SCN,2024-06-11_12h10.03.285,LearnStrategy,2023.2.3,Win32,59.88023952,,,,,,,,,,,3,02,4,8,,,,,,,,,,,,,,,,,,,,,,,,,,,,,
62897d2024f826ea90b7efa1,SCN,2024-06-11_12h10.03.285,LearnStrategy,2023.2.3,Win32,59.88023952,,,,,,,,,,,4,03,5,1,,,,,,,,,,,,,,,,,,,,,,,,,,,,,
62897d2024f826ea90b7efa1,SCN,2024-06-11_12h10.03.285,LearnStrategy,2023.2.3,Win32,59.88023952,,,,,,,,,,,6,03,5,2,,,,,,,,,,,,,,,,,,,,,,,,,,,,,
62897d2024f826ea90b7efa1,SCN,2024-06-11_12h10.03.285,LearnStrategy,2023.2.3,Win32,59.88023952,,,,,,,,,,,5,02,5,3,,,,,,,,,,,,,,,,,,,,,,,,,,,,,
62897d2024f826ea90b7efa1,SCN,2024-06-11_12h10.03.285,LearnStrategy,2023.2.3,Win32,59.88023952,,,,,,,,,,,4,10,5,4,,,,,,,,,,,,,,,,,,,,,,,,,,,,,
62897d2024f826ea90b7efa1,SCN,2024-06-11_12h10.03.285,LearnStrategy,2023.2.3,Win32,59.88023952,,,,,,,,,,,7,08,5,5,,,,,,,,,,,,,,,,,,,,,,,,,,,,,
62897d2024f826ea90b7efa1,SCN,2024-06-11_12h10.03.285,LearnStrategy,2023.2.3,Win32,59.88023952,,,,,,,,,,,6,15,5,6,,,,,,,,,,,,,,,,,,,,,,,,,,,,,
62897d2024f826ea90b7efa1,SCN,2024-06-11_12h10.03.285,LearnStrategy,2023.2.3,Win32,59.88023952,,,,,,,,,,,1,04,5,7,,,,,,,,,,,,,,,,,,,,,,,,,,,,,
62897d2024f826ea90b7efa1,SCN,2024-06-11_12h10.03.285,LearnStrategy,2023.2.3,Win32,59.88023952,,,,,,,,,,,4,11,5,8,,,,,,,,,,,,,,,,,,,,,,,,,,,,,
62897d2024f826ea90b7efa1,SCN,2024-06-11_12h10.03.285,LearnStrategy,2023.2.3,Win32,59.88023952,,,,,,,,,,,3,16,6,1,,,,,,,,,,,,,,,,,,,,,,,,,,,,,
62897d2024f826ea90b7efa1,SCN,2024-06-11_12h10.03.285,LearnStrategy,2023.2.3,Win32,59.88023952,,,,,,,,,,,8,03,6,2,,,,,,,,,,,,,,,,,,,,,,,,,,,,,
62897d2024f826ea90b7efa1,SCN,2024-06-11_12h10.03.285,LearnStrategy,2023.2.3,Win32,59.88023952,,,,,,,,,,,2,06,6,3,,,,,,,,,,,,,,,,,,,,,,,,,,,,,
62897d2024f826ea90b7efa1,SCN,2024-06-11_12h10.03.285,LearnStrategy,2023.2.3,Win32,59.88023952,,,,,,,,,,,1,09,6,4,,,,,,,,,,,,,,,,,,,,,,,,,,,,,
62897d2024f826ea90b7efa1,SCN,2024-06-11_12h10.03.285,LearnStrategy,2023.2.3,Win32,59.88023952,,,,,,,,,,,5,07,6,5,,,,,,,,,,,,,,,,,,,,,,,,,,,,,
62897d2024f826ea90b7efa1,SCN,2024-06-11_12h10.03.285,LearnStrategy,2023.2.3,Win32,59.88023952,,,,,,,,,,,4,05,6,6,,,,,,,,,,,,,,,,,,,,,,,,,,,,,
62897d2024f826ea90b7efa1,SCN,2024-06-11_12h10.03.285,LearnStrategy,2023.2.3,Win32,59.88023952,,,,,,,,,,,5,14,6,7,,,,,,,,,,,,,,,,,,,,,,,,,,,,,
62897d2024f826ea90b7efa1,SCN,2024-06-11_12h10.03.285,LearnStrategy,2023.2.3,Win32,59.88023952,,,,,,,,,,,7,14,6,8,,,,,,,,,,,,,,,,,,,,,,,,,,,,,