participant,condition,date,expName,psychopyVersion,OS,frameRate,block,phase,trial,learn_mouse.x,learn_mouse.y,learn_mouse.leftButton,learn_mouse.midButton,learn_mouse.rightButton,learn_mouse.time,learn_mouse.clicked_name,cat,token,row,col,t_select,cat_rec,token_rec,cat_mouse_l.x,cat_mouse_l.y,cat_mouse_l.leftButton,cat_mouse_l.midButton,cat_mouse_l.rightButton,cat_mouse_l.time,cat_mouse_l.clicked_name,resp,t_resp,corr,train_trials.thisRepN,train_trials.thisTrialN,train_trials.thisN,train_trials.thisIndex,train_trials.ran,cat_mouse_t.x,cat_mouse_t.y,cat_mouse_t.leftButton,cat_mouse_t.midButton,cat_mouse_t.rightButton,cat_mouse_t.time,cat_mouse_t.clicked_name,test_trials.thisRepN,test_trials.thisTrialN,test_trials.thisN,test_trials.thisIndex,test_trials.ran,Bonus
628f827eeb876ed2617881e7,SCR,2024-06-25_12h48.17.111,LearnStrategy,2023.2.3,Linux x86_64,59.88023952,,,,,,,,,,,,,,,,,,,,,,,,,,,,,,,,,,,,,,,,,,,,,
628f827eeb876ed2617881e7,SCR,2024-06-25_12h48.17.111,LearnStrategy,2023.2.3,Linux x86_64,59.88023952,1,1,1,0.077714284,0.079837918,1,0,0,4.0601,Pumice_09,8,09,4,5,4.06,4,09,-0.179807107,-0.247247458,1,0,0,3.2907,Basalt_rect,2,3.291,0,0,0,0,0,1,,,,,,,,,,,,,
628f827eeb876ed2617881e7,SCR,2024-06-25_12h48.17.111,LearnStrategy,2023.2.3,Linux x86_64,59.88023952,1,1,2,0.059249242,0.05620412,1,0,0,1.8646,Pumice_09,8,09,4,5,1.865,2,11,0.333001852,-0.394992431,1,0,0,2.2922,Pumice_rect,8,2.292,1,1,0,1,0,1,,,,,,,,,,,,,
628f827eeb876ed2617881e7,SCR,2024-06-25_12h48.17.111,LearnStrategy,2023.2.3,Linux x86_64,59.88023952,1,1,3,0.231070757,0.257824461,1,0,0,2.1282,Diorite_14,3,14,5,6,2.128,6,13,0.198399226,-0.255883535,1,0,0,3.1782,Diorite_rect,3,3.178,1,2,0,2,0,1,,,,,,,,,,,,,
628f827eeb876ed2617881e7,SCR,2024-06-25_12h48.17.111,LearnStrategy,2023.2.3,Linux x86_64,59.88023952,1,1,4,-0.53006355,0.388513217,1,0,0,2.5874,Pumice_10,8,10,6,1,2.587,2,05,-0.174259822,-0.408598344,1,0,0,1.7925,Pegmatite_rect,6,1.793,0,3,0,3,0,1,,,,,,,,,,,,,
628f827eeb876ed2617881e7,SCR,2024-06-25_12h48.17.111,LearnStrategy,2023.2.3,Linux x86_64,59.88023952,1,1,5,-0.550227165,0.406687856,1,0,0,1.3125,Pumice_10,8,10,6,1,1.313,3,12,0.322109699,-0.406035821,1,0,0,0.9465,Pumice_rect,8,0.947,1,4,0,4,0,1,,,,,,,,,,,,,
628f827eeb876ed2617881e7,SCR,2024-06-25_12h48.17.111,LearnStrategy,2023.2.3,Linux x86_64,59.88023952,1,1,6,-0.202765147,-0.095974366,1,0,0,1.3797,Obsidian_12,5,12,3,3,1.38,1,09,0.416738113,-0.245749076,1,0,0,2.1138,Gabbro_rect,4,2.114,0,5,0,5,0,1,,,,,,,,,,,,,
628f827eeb876ed2617881e7,SCR,2024-06-25_12h48.17.111,LearnStrategy,2023.2.3,Linux x86_64,59.88023952,1,1,7,-0.259887457,-0.08833313,1,0,0,0.9915,Obsidian_12,5,12,3,3,0.992,5,05,-0.38734738,-0.389157693,1,0,0,1.3605,Obsidian_rect,5,1.361,1,6,0,6,0,1,,,,,,,,,,,,,
628f827eeb876ed2617881e7,SCR,2024-06-25_12h48.17.111,LearnStrategy,2023.2.3,Linux x86_64,59.88023952,1,1,8,-0.595428725,-0.105297605,1,0,0,1.8367,Pegmatite_16,6,16,3,1,1.837,8,05,-0.146110217,-0.266818523,1,0,0,1.8281,Basalt_rect,2,1.828,0,7,0,7,0,1,,,,,,,,,,,,,
628f827eeb876ed2617881e7,SCR,2024-06-25_12h48.17.111,LearnStrategy,2023.2.3,Linux x86_64,59.88023952,1,1,9,-0.255227764,-0.259408633,1,0,0,1.1985,Andesite_06,1,06,2,3,1.199,1,06,-0.125705242,-0.409004132,1,0,0,1.5352,Pegmatite_rect,6,1.535,0,8,0,8,0,1,,,,,,,,,,,,,
628f827eeb876ed2617881e7,SCR,2024-06-25_12h48.17.111,LearnStrategy,2023.2.3,Linux x86_64,59.88023952,1,1,10,-0.389560739,0.098589619,1,0,0,1.2281,Obsidian_06,5,06,4,2,1.228,7,16,-0.102398952,-0.23347044,1,0,0,1.001,Basalt_rect,2,1.001,0,9,0,9,0,1,,,,,,,,,,,,,
628f827eeb876ed2617881e7,SCR,2024-06-25_12h48.17.111,LearnStrategy,2023.2.3,Linux x86_64,59.88023952,1,1,11,-0.247533242,-0.084020575,1,0,0,1.0474,Obsidian_12,5,12,3,3,1.047,3,07,-0.323750933,-0.395630836,1,0,0,1.2032,Obsidian_rect,5,1.203,1,10,0,10,0,1,,,,,,,,,,,,,
628f827eeb876ed2617881e7,SCR,2024-06-25_12h48.17.111,LearnStrategy,2023.2.3,Linux x86_64,59.88023952,1,1,12,0.39389348,0.254209975,1,0,0,1.8787,Basalt_08,2,08,5,7,1.879,4,15,-0.372465372,-0.412714005,1,0,0,0.9188,Obsidian_rect,5,0.919,0,11,0,11,0,1,,,,,,,,,,,,,
628f827eeb876ed2617881e7,SCR,2024-06-25_12h48.17.111,LearnStrategy,2023.2.3,Linux x86_64,59.88023952,1,1,13,0.237542311,-0.45337383,1,0,0,1.244,Obsidian_02,5,02,1,6,1.244,8,09,-0.396367749,-0.389527003,1,0,0,0.8336,Obsidian_rect,5,0.834,1,12,0,12,0,1,,,,,,,,,,,,,
628f827eeb876ed2617881e7,SCR,2024-06-25_12h48.17.111,LearnStrategy,2023.2.3,Linux x86_64,59.88023952,1,1,14,0.06809632,-0.287944396,1,0,0,1.4239,Obsidian_10,5,10,2,5,1.424,6,15,-0.124185324,-0.400856574,1,0,0,2.8823,Pegmatite_rect,6,2.882,0,13,0,13,0,1,,,,,,,,,,,,,
628f827eeb876ed2617881e7,SCR,2024-06-25_12h48.17.111,LearnStrategy,2023.2.3,Linux x86_64,59.88023952,1,1,15,-0.234619339,-0.415759563,1,0,0,1.6465,Obsidian_05,5,05,1,3,1.646,7,02,-0.353449384,-0.403060516,1,0,0,0.5862,Obsidian_rect,5,0.586,1,14,0,14,0,1,,,,,,,,,,,,,
628f827eeb876ed2617881e7,SCR,2024-06-25_12h48.17.111,LearnStrategy,2023.2.3,Linux x86_64,59.88023952,1,1,16,-0.103959401,-0.252779722,1,0,0,1.4252,Diorite_08,3,08,2,4,1.425,5,02,-0.082002004,-0.255397956,1,0,0,1.1967,Basalt_rect,2,1.197,0,15,0,15,0,1,,,,,,,,,,,,,
628f827eeb876ed2617881e7,SCR,2024-06-25_12h48.17.111,LearnStrategy,2023.2.3,Linux x86_64,59.88023952,1,2,1,,,,,,,,3,13,,,,,,,,,,,,,3,5.116,1,,,,,,0.171323458,-0.255872647,1,0,0,5.1163,Diorite_rect,0,0,0,0,1,
628f827eeb876ed2617881e7,SCR,2024-06-25_12h48.17.111,LearnStrategy,2023.2.3,Linux x86_64,59.88023952,1,2,2,,,,,,,,8,04,,,,,,,,,,,,,8,2.327,1,,,,,,0.495425065,-0.396175226,1,0,0,2.3274,Pumice_rect,1,0,1,0,1,
628f827eeb876ed2617881e7,SCR,2024-06-25_12h48.17.111,LearnStrategy,2023.2.3,Linux x86_64,59.88023952,1,2,3,,,,,,,,4,14,,,,,,,,,,,,,4,4.683,1,,,,,,0.436081966,-0.249571959,1,0,0,4.6834,Gabbro_rect,2,0,2,0,1,
628f827eeb876ed2617881e7,SCR,2024-06-25_12h48.17.111,LearnStrategy,2023.2.3,Linux x86_64,59.88023952,1,2,4,,,,,,,,4,16,,,,,,,,,,,,,5,1.582,0,,,,,,-0.389216781,-0.388950109,1,0,0,1.5817,Obsidian_rect,3,0,3,0,1,
628f827eeb876ed2617881e7,SCR,2024-06-25_12h48.17.111,LearnStrategy,2023.2.3,Linux x86_64,59.88023952,1,2,5,,,,,,,,1,14,,,,,,,,,,,,,1,3.813,1,,,,,,-0.448972146,-0.245519479,1,0,0,3.8129,Andesite_rect,4,0,4,0,1,
628f827eeb876ed2617881e7,SCR,2024-06-25_12h48.17.111,LearnStrategy,2023.2.3,Linux x86_64,59.88023952,1,2,6,,,,,,,,6,12,,,,,,,,,,,,,1,2.087,0,,,,,,-0.389711221,-0.251643022,1,0,0,2.0873,Andesite_rect,5,0,5,0,1,
628f827eeb876ed2617881e7,SCR,2024-06-25_12h48.17.111,LearnStrategy,2023.2.3,Linux x86_64,59.88023952,1,2,7,,,,,,,,5,11,,,,,,,,,,,,,5,1.493,1,,,,,,-0.382207592,-0.387158712,1,0,0,1.4929,Obsidian_rect,6,0,6,0,1,
628f827eeb876ed2617881e7,SCR,2024-06-25_12h48.17.111,LearnStrategy,2023.2.3,Linux x86_64,59.88023952,1,2,8,,,,,,,,8,06,,,,,,,,,,,,,8,1.43,1,,,,,,0.39882652,-0.421772242,1,0,0,1.4304,Pumice_rect,7,0,7,0,1,
628f827eeb876ed2617881e7,SCR,2024-06-25_12h48.17.111,LearnStrategy,2023.2.3,Linux x86_64,59.88023952,1,2,9,,,,,,,,7,13,,,,,,,,,,,,,3,1.499,0,,,,,,0.087875366,-0.255885204,1,0,0,1.4988,Diorite_rect,8,0,8,0,1,
628f827eeb876ed2617881e7,SCR,2024-06-25_12h48.17.111,LearnStrategy,2023.2.3,Linux x86_64,59.88023952,1,2,10,,,,,,,,2,12,,,,,,,,,,,,,8,3.154,0,,,,,,0.382697185,-0.388610045,1,0,0,3.1536,Pumice_rect,9,0,9,0,1,
628f827eeb876ed2617881e7,SCR,2024-06-25_12h48.17.111,LearnStrategy,2023.2.3,Linux x86_64,59.88023952,1,2,11,,,,,,,,2,10,,,,,,,,,,,,,5,1.533,0,,,,,,-0.342552702,-0.407564481,1,0,0,1.5333,Obsidian_rect,10,0,10,0,1,
628f827eeb876ed2617881e7,SCR,2024-06-25_12h48.17.111,LearnStrategy,2023.2.3,Linux x86_64,59.88023952,1,2,12,,,,,,,,3,06,,,,,,,,,,,,,2,5.207,0,,,,,,-0.13683939,-0.268665552,1,0,0,5.2069,Basalt_rect,11,0,11,0,1,
628f827eeb876ed2617881e7,SCR,2024-06-25_12h48.17.111,LearnStrategy,2023.2.3,Linux x86_64,59.88023952,1,2,13,,,,,,,,5,04,,,,,,,,,,,,,5,1.243,1,,,,,,-0.350327452,-0.408406893,1,0,0,1.2435,Obsidian_rect,12,0,12,0,1,
628f827eeb876ed2617881e7,SCR,2024-06-25_12h48.17.111,LearnStrategy,2023.2.3,Linux x86_64,59.88023952,1,2,14,,,,,,,,1,07,,,,,,,,,,,,,7,3.577,0,,,,,,0.098415136,-0.40421176,1,0,0,3.5768,Peridotite_rect,13,0,13,0,1,
628f827eeb876ed2617881e7,SCR,2024-06-25_12h48.17.111,LearnStrategy,2023.2.3,Linux x86_64,59.88023952,1,2,15,,,,,,,,7,04,,,,,,,,,,,,,2,2.279,0,,,,,,-0.117317597,-0.267900785,1,0,0,2.279,Basalt_rect,14,0,14,0,1,
628f827eeb876ed2617881e7,SCR,2024-06-25_12h48.17.111,LearnStrategy,2023.2.3,Linux x86_64,59.88023952,1,2,16,,,,,,,,6,08,,,,,,,,,,,,,5,1.465,0,,,,,,-0.453279614,-0.403188467,1,0,0,1.465,Obsidian_rect,15,0,15,0,1,
628f827eeb876ed2617881e7,SCR,2024-06-25_12h48.17.111,LearnStrategy,2023.2.3,Linux x86_64,59.88023952,2,1,1,0.561734994,0.087436557,1,0,0,3.2465,Gabbro_15,4,15,4,8,3.247,3,14,-0.382417639,-0.254732847,1,0,0,1.6669,Andesite_rect,1,1.667,0,0,0,0,0,1,,,,,,,,,,,,,
628f827eeb876ed2617881e7,SCR,2024-06-25_12h48.17.111,LearnStrategy,2023.2.3,Linux x86_64,59.88023952,2,1,2,-0.546361407,-0.415839593,1,0,0,9.8569,Pegmatite_10,6,10,1,1,9.857,6,16,0.183406591,-0.256477435,1,0,0,0.9284,Diorite_rect,3,0.928,0,1,0,1,0,1,,,,,,,,,,,,,
628f827eeb876ed2617881e7,SCR,2024-06-25_12h48.17.111,LearnStrategy,2023.2.3,Linux x86_64,59.88023952,2,1,3,0.569713751,0.274218321,1,0,0,4.8474,Andesite_03,1,03,5,8,4.847,7,12,0.167396386,-0.244380713,1,0,0,1.4463,Diorite_rect,3,1.446,0,2,0,2,0,1,,,,,,,,,,,,,
628f827eeb876ed2617881e7,SCR,2024-06-25_12h48.17.111,LearnStrategy,2023.2.3,Linux x86_64,59.88023952,2,1,4,-0.193547487,0.090396166,1,0,0,1.3929,Pumice_14,8,14,4,3,1.393,4,01,0.400884946,-0.404977878,1,0,0,0.8264,Pumice_rect,8,0.826,1,3,0,3,0,1,,,,,,,,,,,,,
628f827eeb876ed2617881e7,SCR,2024-06-25_12h48.17.111,LearnStrategy,2023.2.3,Linux x86_64,59.88023952,2,1,5,0.240436077,0.233956158,1,0,0,1.096,Diorite_14,3,14,5,6,1.096,5,06,0.097781022,-0.25745217,1,0,0,1.1294,Diorite_rect,3,1.129,1,4,0,4,0,1,,,,,,,,,,,,,
628f827eeb876ed2617881e7,SCR,2024-06-25_12h48.17.111,LearnStrategy,2023.2.3,Linux x86_64,59.88023952,2,1,6,-0.560904582,-0.116645137,1,0,0,2.0631,Pegmatite_16,6,16,3,1,2.063,7,16,-0.160721779,-0.259169817,1,0,0,2.1467,Basalt_rect,2,2.147,0,5,0,5,0,1,,,,,,,,,,,,,
628f827eeb876ed2617881e7,SCR,2024-06-25_12h48.17.111,LearnStrategy,2023.2.3,Linux x86_64,59.88023952,2,1,7,-0.052118699,-0.25411733,1,0,0,0.9152,Diorite_08,3,08,2,4,0.915,3,12,0.35316364,-0.264949083,1,0,0,1.2919,Gabbro_rect,4,1.292,0,6,0,6,0,1,,,,,,,,,,,,,
628f827eeb876ed2617881e7,SCR,2024-06-25_12h48.17.111,LearnStrategy,2023.2.3,Linux x86_64,59.88023952,2,1,8,-0.566205939,-0.433141629,1,0,0,1.0973,Pegmatite_10,6,10,1,1,1.097,4,15,0.082644065,-0.409596125,1,0,0,2.0294,Peridotite_rect,7,2.029,0,7,0,7,0,1,,,,,,,,,,,,,
628f827eeb876ed2617881e7,SCR,2024-06-25_12h48.17.111,LearnStrategy,2023.2.3,Linux x86_64,59.88023952,2,1,9,-0.535596291,-0.446475426,1,0,0,1.1925,Pegmatite_10,6,10,1,1,1.192,2,14,-0.053816398,-0.403548717,1,0,0,1.867,Pegmatite_rect,6,1.867,1,8,0,8,0,1,,,,,,,,,,,,,
628f827eeb876ed2617881e7,SCR,2024-06-25_12h48.17.111,LearnStrategy,2023.2.3,Linux x86_64,59.88023952,2,1,10,0.05611674,-0.432850361,1,0,0,3.9262,Peridotite_12,7,12,1,5,3.926,1,04,-0.434904416,-0.400579214,1,0,0,0.9911,Obsidian_rect,5,0.991,0,9,0,9,0,1,,,,,,,,,,,,,
628f827eeb876ed2617881e7,SCR,2024-06-25_12h48.17.111,LearnStrategy,2023.2.3,Linux x86_64,59.88023952,2,1,11,0.203934113,-0.420242945,1,0,0,1.3287,Obsidian_02,5,02,1,6,1.329,7,12,-0.335705558,-0.389875889,1,0,0,0.9341,Obsidian_rect,5,0.934,1,10,0,10,0,1,,,,,,,,,,,,,
628f827eeb876ed2617881e7,SCR,2024-06-25_12h48.17.111,LearnStrategy,2023.2.3,Linux x86_64,59.88023952,2,1,12,0.559454918,0.100313544,1,0,0,1.0869,Gabbro_15,4,15,4,8,1.087,6,13,-0.032698075,-0.24088494,1,0,0,1.7688,Basalt_rect,2,1.769,0,11,0,11,0,1,,,,,,,,,,,,,
628f827eeb876ed2617881e7,SCR,2024-06-25_12h48.17.111,LearnStrategy,2023.2.3,Linux x86_64,59.88023952,2,1,13,0.531825701,-0.08760349,1,0,0,0.9135,Diorite_16,3,16,3,8,0.913,6,11,0.431512515,-0.239236991,1,0,0,0.939,Gabbro_rect,4,0.939,0,12,0,12,0,1,,,,,,,,,,,,,
628f827eeb876ed2617881e7,SCR,2024-06-25_12h48.17.111,LearnStrategy,2023.2.3,Linux x86_64,59.88023952,2,1,14,0.560122967,0.092344999,1,0,0,1.7322,Gabbro_15,4,15,4,8,1.732,1,02,0.128139575,-0.248958031,1,0,0,1.8155,Diorite_rect,3,1.816,0,13,0,13,0,1,,,,,,,,,,,,,
628f827eeb876ed2617881e7,SCR,2024-06-25_12h48.17.111,LearnStrategy,2023.2.3,Linux x86_64,59.88023952,2,1,15,-0.527804891,0.095279892,1,0,0,2.5638,Diorite_12,3,12,4,1,2.564,2,14,0.391536872,-0.250195026,1,0,0,0.8098,Gabbro_rect,4,0.81,0,14,0,14,0,1,,,,,,,,,,,,,
628f827eeb876ed2617881e7,SCR,2024-06-25_12h48.17.111,LearnStrategy,2023.2.3,Linux x86_64,59.88023952,2,1,16,-0.068245411,0.234385947,1,0,0,1.1899,Diorite_11,3,11,5,4,1.19,2,09,0.091230392,-0.240443548,1,0,0,2.4713,Diorite_rect,3,2.471,1,15,0,15,0,1,,,,,,,,,,,,,
628f827eeb876ed2617881e7,SCR,2024-06-25_12h48.17.111,LearnStrategy,2023.2.3,Linux x86_64,59.88023952,2,2,1,,,,,,,,7,07,,,,,,,,,,,,,3,3.482,0,,,,,,0.139177879,-0.254199028,1,0,0,3.4817,Diorite_rect,0,0,0,0,1,
628f827eeb876ed2617881e7,SCR,2024-06-25_12h48.17.111,LearnStrategy,2023.2.3,Linux x86_64,59.88023952,2,2,2,,,,,,,,7,15,,,,,,,,,,,,,7,4.471,1,,,,,,0.101121902,-0.420200268,1,0,0,4.4706,Peridotite_rect,1,0,1,0,1,
628f827eeb876ed2617881e7,SCR,2024-06-25_12h48.17.111,LearnStrategy,2023.2.3,Linux x86_64,59.88023952,2,2,3,,,,,,,,6,03,,,,,,,,,,,,,6,3.515,1,,,,,,-0.152493715,-0.416732868,1,0,0,3.5148,Pegmatite_rect,2,0,2,0,1,
628f827eeb876ed2617881e7,SCR,2024-06-25_12h48.17.111,LearnStrategy,2023.2.3,Linux x86_64,59.88023952,2,2,4,,,,,,,,2,04,,,,,,,,,,,,,4,6.43,0,,,,,,0.342190742,-0.258237521,1,0,0,6.43,Gabbro_rect,3,0,3,0,1,
628f827eeb876ed2617881e7,SCR,2024-06-25_12h48.17.111,LearnStrategy,2023.2.3,Linux x86_64,59.88023952,2,2,5,,,,,,,,8,16,,,,,,,,,,,,,8,1.27,1,,,,,,0.413039843,-0.392407338,1,0,0,1.27,Pumice_rect,4,0,4,0,1,
628f827eeb876ed2617881e7,SCR,2024-06-25_12h48.17.111,LearnStrategy,2023.2.3,Linux x86_64,59.88023952,2,2,6,,,,,,,,1,10,,,,,,,,,,,,,3,2.088,0,,,,,,0.101377249,-0.248999437,1,0,0,2.0881,Diorite_rect,5,0,5,0,1,
628f827eeb876ed2617881e7,SCR,2024-06-25_12h48.17.111,LearnStrategy,2023.2.3,Linux x86_64,59.88023952,2,2,7,,,,,,,,1,01,,,,,,,,,,,,,5,1.722,0,,,,,,-0.381129106,-0.400871515,1,0,0,1.7224,Obsidian_rect,6,0,6,0,1,
628f827eeb876ed2617881e7,SCR,2024-06-25_12h48.17.111,LearnStrategy,2023.2.3,Linux x86_64,59.88023952,2,2,8,,,,,,,,4,11,,,,,,,,,,,,,2,2.649,0,,,,,,-0.098280748,-0.261354526,1,0,0,2.6486,Basalt_rect,7,0,7,0,1,
628f827eeb876ed2617881e7,SCR,2024-06-25_12h48.17.111,LearnStrategy,2023.2.3,Linux x86_64,59.88023952,2,2,9,,,,,,,,5,16,,,,,,,,,,,,,5,1.683,1,,,,,,-0.34337012,-0.411334515,1,0,0,1.6828,Obsidian_rect,8,0,8,0,1,
628f827eeb876ed2617881e7,SCR,2024-06-25_12h48.17.111,LearnStrategy,2023.2.3,Linux x86_64,59.88023952,2,2,10,,,,,,,,8,03,,,,,,,,,,,,,8,3.015,1,,,,,,0.400616407,-0.419056813,1,0,0,3.0148,Pumice_rect,9,0,9,0,1,
628f827eeb876ed2617881e7,SCR,2024-06-25_12h48.17.111,LearnStrategy,2023.2.3,Linux x86_64,59.88023952,2,2,11,,,,,,,,3,02,,,,,,,,,,,,,7,5.478,0,,,,,,0.122611364,-0.399561326,1,0,0,5.4776,Peridotite_rect,10,0,10,0,1,
628f827eeb876ed2617881e7,SCR,2024-06-25_12h48.17.111,LearnStrategy,2023.2.3,Linux x86_64,59.88023952,2,2,12,,,,,,,,4,12,,,,,,,,,,,,,7,1.203,0,,,,,,0.101630131,-0.400486469,1,0,0,1.2032,Peridotite_rect,11,0,11,0,1,
628f827eeb876ed2617881e7,SCR,2024-06-25_12h48.17.111,LearnStrategy,2023.2.3,Linux x86_64,59.88023952,2,2,13,,,,,,,,2,06,,,,,,,,,,,,,5,1.372,0,,,,,,-0.426343083,-0.415160577,1,0,0,1.3723,Obsidian_rect,12,0,12,0,1,
628f827eeb876ed2617881e7,SCR,2024-06-25_12h48.17.111,LearnStrategy,2023.2.3,Linux x86_64,59.88023952,2,2,14,,,,,,,,5,07,,,,,,,,,,,,,5,1.391,1,,,,,,-0.358344714,-0.411563873,1,0,0,1.3908,Obsidian_rect,13,0,13,0,1,
628f827eeb876ed2617881e7,SCR,2024-06-25_12h48.17.111,LearnStrategy,2023.2.3,Linux x86_64,59.88023952,2,2,15,,,,,,,,6,09,,,,,,,,,,,,,7,4.204,0,,,,,,0.089949449,-0.41011707,1,0,0,4.2036,Peridotite_rect,14,0,14,0,1,
628f827eeb876ed2617881e7,SCR,2024-06-25_12h48.17.111,LearnStrategy,2023.2.3,Linux x86_64,59.88023952,2,2,16,,,,,,,,3,15,,,,,,,,,,,,,6,4.642,0,,,,,,-0.092224836,-0.41130805,1,0,0,4.6418,Pegmatite_rect,15,0,15,0,1,
628f827eeb876ed2617881e7,SCR,2024-06-25_12h48.17.111,LearnStrategy,2023.2.3,Linux x86_64,59.88023952,3,1,1,0.061279297,0.239615957,1,0,0,1.7131,Pegmatite_11,6,11,5,5,1.713,4,03,-0.383969029,-0.383122365,1,0,0,2.0076,Obsidian_rect,5,2.008,0,0,0,0,0,1,,,,,,,,,,,,,
628f827eeb876ed2617881e7,SCR,2024-06-25_12h48.17.111,LearnStrategy,2023.2.3,Linux x86_64,59.88023952,3,1,2,0.239988486,-0.080096126,1,0,0,0.9633,Basalt_02,2,02,3,6,0.963,2,11,0.09780701,-0.255725145,1,0,0,1.2105,Diorite_rect,3,1.21,0,1,0,1,0,1,,,,,,,,,,,,,
628f827eeb876ed2617881e7,SCR,2024-06-25_12h48.17.111,LearnStrategy,2023.2.3,Linux x86_64,59.88023952,3,1,3,-0.101459662,-0.289670467,1,0,0,0.9473,Diorite_08,3,08,2,4,0.947,4,09,0.130627314,-0.405737559,1,0,0,1.6966,Peridotite_rect,7,1.697,0,2,0,2,0,1,,,,,,,,,,,,,
628f827eeb876ed2617881e7,SCR,2024-06-25_12h48.17.111,LearnStrategy,2023.2.3,Linux x86_64,59.88023952,3,1,4,-0.12983044,-0.09636871,1,0,0,0.6307,Pumice_08,8,08,3,4,0.631,1,04,0.426864068,-0.400844495,1,0,0,0.9904,Pumice_rect,8,0.99,1,3,0,3,0,1,,,,,,,,,,,,,
628f827eeb876ed2617881e7,SCR,2024-06-25_12h48.17.111,LearnStrategy,2023.2.3,Linux x86_64,59.88023952,3,1,5,-0.068839709,0.22969085,1,0,0,0.8312,Diorite_11,3,11,5,4,0.831,2,05,0.039151986,-0.392217318,1,0,0,2.1079,Peridotite_rect,7,2.108,0,4,0,4,0,1,,,,,,,,,,,,,
628f827eeb876ed2617881e7,SCR,2024-06-25_12h48.17.111,LearnStrategy,2023.2.3,Linux x86_64,59.88023952,3,1,6,-0.21027263,0.41497303,1,0,0,1.7587,Peridotite_02,7,02,6,3,1.759,3,16,0.054957151,-0.3799661,1,0,0,1.2944,Peridotite_rect,7,1.294,1,5,0,5,0,1,,,,,,,,,,,,,
628f827eeb876ed2617881e7,SCR,2024-06-25_12h48.17.111,LearnStrategy,2023.2.3,Linux x86_64,59.88023952,3,1,7,-0.243187825,0.379935006,1,0,0,0.9997,Peridotite_02,7,02,6,3,1,6,15,0.105568647,-0.404785474,1,0,0,1.123,Peridotite_rect,7,1.123,1,6,0,6,0,1,,,,,,,,,,,,,
628f827eeb876ed2617881e7,SCR,2024-06-25_12h48.17.111,LearnStrategy,2023.2.3,Linux x86_64,59.88023952,3,1,8,-0.0751942,-0.290575345,1,0,0,3.7846,Diorite_08,3,08,2,4,3.785,6,13,0.077182929,-0.230623643,1,0,0,1.772,Diorite_rect,3,1.772,1,7,0,7,0,1,,,,,,,,,,,,,
628f827eeb876ed2617881e7,SCR,2024-06-25_12h48.17.111,LearnStrategy,2023.2.3,Linux x86_64,59.88023952,3,1,9,-0.256804188,-0.114492536,1,0,0,1.1584,Obsidian_12,5,12,3,3,1.158,5,02,-0.402906974,-0.39465785,1,0,0,0.6795,Obsidian_rect,5,0.68,1,8,0,8,0,1,,,,,,,,,,,,,
628f827eeb876ed2617881e7,SCR,2024-06-25_12h48.17.111,LearnStrategy,2023.2.3,Linux x86_64,59.88023952,3,1,10,-0.08846434,0.079903046,1,0,0,1.1651,Basalt_14,2,14,4,4,1.165,7,12,-0.334333062,-0.261379162,1,0,0,2.297,Andesite_rect,1,2.297,0,9,0,9,0,1,,,,,,,,,,,,,
628f827eeb876ed2617881e7,SCR,2024-06-25_12h48.17.111,LearnStrategy,2023.2.3,Linux x86_64,59.88023952,3,1,11,-0.567454676,-0.245059331,1,0,0,1.4449,Gabbro_03,4,03,2,1,1.445,4,10,0.100296179,-0.412142595,1,0,0,2.6877,Peridotite_rect,7,2.688,0,10,0,10,0,1,,,,,,,,,,,,,
628f827eeb876ed2617881e7,SCR,2024-06-25_12h48.17.111,LearnStrategy,2023.2.3,Linux x86_64,59.88023952,3,1,12,0.338189046,-0.431351662,1,0,0,1.3645,Gabbro_09,4,09,1,7,1.364,7,12,0.359470367,-0.2596488,1,0,0,1.1997,Gabbro_rect,4,1.2,1,11,0,11,0,1,,,,,,,,,,,,,
628f827eeb876ed2617881e7,SCR,2024-06-25_12h48.17.111,LearnStrategy,2023.2.3,Linux x86_64,59.88023952,3,1,13,0.192565838,-0.359927416,1,0,0,1.0789,Obsidian_02,5,02,1,6,1.079,1,16,-0.388049563,-0.385196845,1,0,0,1.1639,Obsidian_rect,5,1.164,1,12,0,12,0,1,,,,,,,,,,,,,
628f827eeb876ed2617881e7,SCR,2024-06-25_12h48.17.111,LearnStrategy,2023.2.3,Linux x86_64,59.88023952,3,1,14,0.215606848,0.095300436,1,0,0,0.7959,Pumice_02,8,02,4,6,0.796,3,08,0.33976992,-0.401695013,1,0,0,1.0344,Pumice_rect,8,1.034,1,13,0,13,0,1,,,,,,,,,,,,,
628f827eeb876ed2617881e7,SCR,2024-06-25_12h48.17.111,LearnStrategy,2023.2.3,Linux x86_64,59.88023952,3,1,15,0.398859898,0.091361642,1,0,0,0.8302,Pegmatite_07,6,07,4,7,0.83,3,12,-0.381514907,-0.406678836,1,0,0,1.1007,Obsidian_rect,5,1.101,0,14,0,14,0,1,,,,,,,,,,,,,
628f827eeb876ed2617881e7,SCR,2024-06-25_12h48.17.111,LearnStrategy,2023.2.3,Linux x86_64,59.88023952,3,1,16,0.563976765,0.40643396,1,0,0,1.4129,Pegmatite_15,6,15,6,8,1.413,2,08,-0.073126316,-0.418800751,1,0,0,1.1538,Pegmatite_rect,6,1.154,1,15,0,15,0,1,,,,,,,,,,,,,
628f827eeb876ed2617881e7,SCR,2024-06-25_12h48.17.111,LearnStrategy,2023.2.3,Linux x86_64,59.88023952,3,2,1,,,,,,,,1,11,,,,,,,,,,,,,4,7.671,0,,,,,,0.401679913,-0.266718149,1,0,0,7.6709,Gabbro_rect,0,0,0,0,1,
628f827eeb876ed2617881e7,SCR,2024-06-25_12h48.17.111,LearnStrategy,2023.2.3,Linux x86_64,59.88023952,3,2,2,,,,,,,,8,15,,,,,,,,,,,,,8,1.939,1,,,,,,0.449697653,-0.408545097,1,0,0,1.9386,Pumice_rect,1,0,1,0,1,
628f827eeb876ed2617881e7,SCR,2024-06-25_12h48.17.111,LearnStrategy,2023.2.3,Linux x86_64,59.88023952,3,2,3,,,,,,,,4,08,,,,,,,,,,,,,3,5.578,0,,,,,,0.11062638,-0.258284171,1,0,0,5.5784,Diorite_rect,2,0,2,0,1,
628f827eeb876ed2617881e7,SCR,2024-06-25_12h48.17.111,LearnStrategy,2023.2.3,Linux x86_64,59.88023952,3,2,4,,,,,,,,3,09,,,,,,,,,,,,,7,4.616,0,,,,,,0.13318491,-0.409929752,1,0,0,4.6165,Peridotite_rect,3,0,3,0,1,
628f827eeb876ed2617881e7,SCR,2024-06-25_12h48.17.111,LearnStrategy,2023.2.3,Linux x86_64,59.88023952,3,2,5,,,,,,,,1,05,,,,,,,,,,,,,7,1.063,0,,,,,,0.130628109,-0.396575451,1,0,0,1.0634,Peridotite_rect,4,0,4,0,1,
628f827eeb876ed2617881e7,SCR,2024-06-25_12h48.17.111,LearnStrategy,2023.2.3,Linux x86_64,59.88023952,3,2,6,,,,,,,,7,08,,,,,,,,,,,,,7,4.739,1,,,,,,0.124510368,-0.39292105,1,0,0,4.7388,Peridotite_rect,5,0,5,0,1,
628f827eeb876ed2617881e7,SCR,2024-06-25_12h48.17.111,LearnStrategy,2023.2.3,Linux x86_64,59.88023952,3,2,7,,,,,,,,8,13,,,,,,,,,,,,,8,1.135,1,,,,,,0.398322821,-0.412298361,1,0,0,1.1355,Pumice_rect,6,0,6,0,1,
628f827eeb876ed2617881e7,SCR,2024-06-25_12h48.17.111,LearnStrategy,2023.2.3,Linux x86_64,59.88023952,3,2,8,,,,,,,,3,10,,,,,,,,,,,,,3,1.953,1,,,,,,0.081150214,-0.257167101,1,0,0,1.9528,Diorite_rect,7,0,7,0,1,
628f827eeb876ed2617881e7,SCR,2024-06-25_12h48.17.111,LearnStrategy,2023.2.3,Linux x86_64,59.88023952,3,2,9,,,,,,,,2,01,,,,,,,,,,,,,5,1.131,0,,,,,,-0.445253929,-0.390468677,1,0,0,1.1309,Obsidian_rect,8,0,8,0,1,
628f827eeb876ed2617881e7,SCR,2024-06-25_12h48.17.111,LearnStrategy,2023.2.3,Linux x86_64,59.88023952,3,2,10,,,,,,,,6,06,,,,,,,,,,,,,5,2.297,0,,,,,,-0.372388601,-0.417728901,1,0,0,2.2973,Obsidian_rect,9,0,9,0,1,
628f827eeb876ed2617881e7,SCR,2024-06-25_12h48.17.111,LearnStrategy,2023.2.3,Linux x86_64,59.88023952,3,2,11,,,,,,,,5,14,,,,,,,,,,,,,5,1.077,1,,,,,,-0.331195354,-0.417062998,1,0,0,1.0767,Obsidian_rect,10,0,10,0,1,
628f827eeb876ed2617881e7,SCR,2024-06-25_12h48.17.111,LearnStrategy,2023.2.3,Linux x86_64,59.88023952,3,2,12,,,,,,,,2,16,,,,,,,,,,,,,2,2.723,1,,,,,,-0.050005356,-0.261693319,1,0,0,2.7227,Basalt_rect,11,0,11,0,1,
628f827eeb876ed2617881e7,SCR,2024-06-25_12h48.17.111,LearnStrategy,2023.2.3,Linux x86_64,59.88023952,3,2,13,,,,,,,,7,10,,,,,,,,,,,,,7,1.379,1,,,,,,0.142216523,-0.414139191,1,0,0,1.3788,Peridotite_rect,12,0,12,0,1,
628f827eeb876ed2617881e7,SCR,2024-06-25_12h48.17.111,LearnStrategy,2023.2.3,Linux x86_64,59.88023952,3,2,14,,,,,,,,6,05,,,,,,,,,,,,,5,1.505,0,,,,,,-0.372587363,-0.384570758,1,0,0,1.5047,Obsidian_rect,13,0,13,0,1,
628f827eeb876ed2617881e7,SCR,2024-06-25_12h48.17.111,LearnStrategy,2023.2.3,Linux x86_64,59.88023952,3,2,15,,,,,,,,5,09,,,,,,,,,,,,,5,0.857,1,,,,,,-0.400843342,-0.397473176,1,0,0,0.8572,Obsidian_rect,14,0,14,0,1,
628f827eeb876ed2617881e7,SCR,2024-06-25_12h48.17.111,LearnStrategy,2023.2.3,Linux x86_64,59.88023952,3,2,16,,,,,,,,4,05,,,,,,,,,,,,,7,4.674,0,,,,,,0.122601986,-0.393762827,1,0,0,4.6736,Peridotite_rect,15,0,15,0,1,
628f827eeb876ed2617881e7,SCR,2024-06-25_12h48.17.111,LearnStrategy,2023.2.3,Linux x86_64,59.88023952,4,1,1,-0.399493019,0.239110529,1,0,1,5.2255,Pumice_05,8,05,5,2,5.225,6,10,0.402917306,-0.404772838,1,0,1,2.0932,Pumice_rect,8,2.093,1,0,0,0,0,1,,,,,,,,,,,,,
628f827eeb876ed2617881e7,SCR,2024-06-25_12h48.17.111,LearnStrategy,2023.2.3,Linux x86_64,59.88023952,4,1,2,0.09189415,0.393729965,1,0,1,1.0114,Gabbro_10,4,10,6,5,1.011,1,03,0.375949542,-0.267042398,1,0,1,1.3422,Gabbro_rect,4,1.342,1,1,0,1,0,1,,,,,,,,,,,,,
628f827eeb876ed2617881e7,SCR,2024-06-25_12h48.17.111,LearnStrategy,2023.2.3,Linux x86_64,59.88023952,4,1,3,0.043255647,-0.106574972,1,0,1,0.7488,Andesite_16,1,16,3,5,0.749,3,16,0.103423993,-0.269552072,1,0,1,2.1719,Diorite_rect,3,2.172,0,2,0,2,0,1,,,,,,,,,,,,,
628f827eeb876ed2617881e7,SCR,2024-06-25_12h48.17.111,LearnStrategy,2023.2.3,Linux x86_64,59.88023952,4,1,4,-0.223724683,-0.127792517,1,0,1,0.7961,Obsidian_12,5,12,3,3,0.796,2,09,-0.395295699,-0.403357665,1,0,1,1.3221,Obsidian_rect,5,1.322,1,3,0,3,0,1,,,,,,,,,,,,,
628f827eeb876ed2617881e7,SCR,2024-06-25_12h48.17.111,LearnStrategy,2023.2.3,Linux x86_64,59.88023952,4,1,5,-0.093413115,0.091160615,1,0,1,0.6795,Basalt_14,2,14,4,4,0.679,6,15,0.050687869,-0.243621429,1,0,1,1.7443,Diorite_rect,3,1.744,0,4,0,4,0,1,,,,,,,,,,,,,
628f827eeb876ed2617881e7,SCR,2024-06-25_12h48.17.111,LearnStrategy,2023.2.3,Linux x86_64,59.88023952,4,1,6,-0.066675584,-0.137925863,1,0,1,0.716,Pumice_08,8,08,3,4,0.716,4,09,0.388125022,-0.401618878,1,0,1,0.871,Pumice_rect,8,0.871,1,5,0,5,0,1,,,,,,,,,,,,,
628f827eeb876ed2617881e7,SCR,2024-06-25_12h48.17.111,LearnStrategy,2023.2.3,Linux x86_64,59.88023952,4,1,7,0.051779906,0.103269696,1,0,1,0.6519,Pumice_09,8,09,4,5,0.652,7,05,0.33488361,-0.381879012,1,0,1,0.8262,Pumice_rect,8,0.826,1,6,0,6,0,1,,,,,,,,,,,,,
628f827eeb876ed2617881e7,SCR,2024-06-25_12h48.17.111,LearnStrategy,2023.2.3,Linux x86_64,59.88023952,4,1,8,0.565298716,-0.107821147,1,0,1,1.1825,Diorite_16,3,16,3,8,1.183,2,05,0.110072851,-0.401561578,1,0,1,1.9617,Peridotite_rect,7,1.962,0,7,0,7,0,1,,,,,,,,,,,,,
628f827eeb876ed2617881e7,SCR,2024-06-25_12h48.17.111,LearnStrategy,2023.2.3,Linux x86_64,59.88023952,4,1,9,0.066354672,-0.248878002,1,0,1,1.5864,Obsidian_10,5,10,2,5,1.586,4,09,0.068405231,-0.249843518,0,0,1,0.0735,Diorite_rect,3,0.073,0,8,0,8,0,1,,,,,,,,,,,,,
628f827eeb876ed2617881e7,SCR,2024-06-25_12h48.17.111,LearnStrategy,2023.2.3,Linux x86_64,59.88023952,4,1,10,-0.09270064,-0.292491992,1,0,1,1.181,Diorite_08,3,08,2,4,1.181,3,07,-0.370983799,-0.407522758,1,0,1,0.7804,Obsidian_rect,5,0.78,0,9,0,9,0,1,,,,,,,,,,,,,
628f827eeb876ed2617881e7,SCR,2024-06-25_12h48.17.111,LearnStrategy,2023.2.3,Linux x86_64,59.88023952,4,1,11,0.100575368,0.089093447,1,0,1,0.5645,Pumice_09,8,09,4,5,0.564,1,03,0.42528224,-0.405483882,1,0,1,0.9589,Pumice_rect,8,0.959,1,10,0,10,0,1,,,,,,,,,,,,,
628f827eeb876ed2617881e7,SCR,2024-06-25_12h48.17.111,LearnStrategy,2023.2.3,Linux x86_64,59.88023952,4,1,12,0.086134831,0.241305133,1,0,1,1.1707,Pegmatite_11,6,11,5,5,1.171,7,02,0.103789965,-0.415755669,1,0,1,2.4162,Peridotite_rect,7,2.416,0,11,0,11,0,1,,,,,,,,,,,,,
628f827eeb876ed2617881e7,SCR,2024-06-25_12h48.17.111,LearnStrategy,2023.2.3,Linux x86_64,59.88023952,4,1,13,0.559304078,0.370967269,1,0,1,2.078,Pegmatite_15,6,15,6,8,2.078,1,04,-0.436161955,-0.383682569,1,0,1,0.947,Obsidian_rect,5,0.947,0,12,0,12,0,1,,,,,,,,,,,,,
628f827eeb876ed2617881e7,SCR,2024-06-25_12h48.17.111,LearnStrategy,2023.2.3,Linux x86_64,59.88023952,4,1,14,0.547269026,0.431190093,1,0,1,1.2146,Pegmatite_15,6,15,6,8,1.215,5,05,-0.070159833,-0.396932125,1,0,1,1.9634,Pegmatite_rect,6,1.963,1,13,0,13,0,1,,,,,,,,,,,,,
628f827eeb876ed2617881e7,SCR,2024-06-25_12h48.17.111,LearnStrategy,2023.2.3,Linux x86_64,59.88023952,4,1,15,0.57975626,-0.294174671,1,0,1,2.7423,Basalt_05,2,05,2,8,2.742,6,13,-0.08543841,-0.255426486,1,0,1,1.7456,Basalt_rect,2,1.746,1,14,0,14,0,1,,,,,,,,,,,,,
628f827eeb876ed2617881e7,SCR,2024-06-25_12h48.17.111,LearnStrategy,2023.2.3,Linux x86_64,59.88023952,4,1,16,-0.402030269,-0.230408351,1,0,1,2.7421,Andesite_09,1,09,2,2,2.742,4,13,-0.402030269,-0.230408351,0,0,1,0.0905,Andesite_rect,1,0.091,1,15,0,15,0,1,,,,,,,,,,,,,
628f827eeb876ed2617881e7,SCR,2024-06-25_12h48.17.111,LearnStrategy,2023.2.3,Linux x86_64,59.88023952,4,2,1,,,,,,,,3,06,,,,,,,,,,,,,3,6.596,1,,,,,,0.126005809,-0.264996688,1,0,1,6.5955,Diorite_rect,0,0,0,0,1,
628f827eeb876ed2617881e7,SCR,2024-06-25_12h48.17.111,LearnStrategy,2023.2.3,Linux x86_64,59.88023952,4,2,2,,,,,,,,7,08,,,,,,,,,,,,,7,1.297,1,,,,,,0.101429939,-0.390952984,1,0,1,1.2967,Peridotite_rect,1,0,1,0,1,
628f827eeb876ed2617881e7,SCR,2024-06-25_12h48.17.111,LearnStrategy,2023.2.3,Linux x86_64,59.88023952,4,2,3,,,,,,,,4,16,,,,,,,,,,,,,5,1.832,0,,,,,,-0.483584483,-0.399502198,1,0,1,1.8319,Obsidian_rect,2,0,2,0,1,
628f827eeb876ed2617881e7,SCR,2024-06-25_12h48.17.111,LearnStrategy,2023.2.3,Linux x86_64,59.88023952,4,2,4,,,,,,,,6,09,,,,,,,,,,,,,7,4.482,0,,,,,,0.035909096,-0.414178848,1,0,1,4.4823,Peridotite_rect,3,0,3,0,1,
628f827eeb876ed2617881e7,SCR,2024-06-25_12h48.17.111,LearnStrategy,2023.2.3,Linux x86_64,59.88023952,4,2,5,,,,,,,,8,13,,,,,,,,,,,,,8,1.323,1,,,,,,0.392913977,-0.406682412,1,0,1,1.3233,Pumice_rect,4,0,4,0,1,
628f827eeb876ed2617881e7,SCR,2024-06-25_12h48.17.111,LearnStrategy,2023.2.3,Linux x86_64,59.88023952,4,2,6,,,,,,,,5,11,,,,,,,,,,,,,5,1.349,1,,,,,,-0.404988408,-0.412350814,1,0,1,1.3492,Obsidian_rect,5,0,5,0,1,
628f827eeb876ed2617881e7,SCR,2024-06-25_12h48.17.111,LearnStrategy,2023.2.3,Linux x86_64,59.88023952,4,2,7,,,,,,,,1,14,,,,,,,,,,,,,4,1.869,0,,,,,,0.430718184,-0.256610473,1,0,1,1.8687,Gabbro_rect,6,0,6,0,1,
628f827eeb876ed2617881e7,SCR,2024-06-25_12h48.17.111,LearnStrategy,2023.2.3,Linux x86_64,59.88023952,4,2,8,,,,,,,,2,06,,,,,,,,,,,,,2,2.402,1,,,,,,-0.077312549,-0.243897359,1,0,1,2.4019,Basalt_rect,7,0,7,0,1,
628f827eeb876ed2617881e7,SCR,2024-06-25_12h48.17.111,LearnStrategy,2023.2.3,Linux x86_64,59.88023952,4,2,9,,,,,,,,7,10,,,,,,,,,,,,,7,1.31,1,,,,,,0.137682915,-0.412255923,1,0,1,1.3101,Peridotite_rect,8,0,8,0,1,
628f827eeb876ed2617881e7,SCR,2024-06-25_12h48.17.111,LearnStrategy,2023.2.3,Linux x86_64,59.88023952,4,2,10,,,,,,,,6,06,,,,,,,,,,,,,6,7.903,1,,,,,,-0.095233123,-0.405995131,1,0,1,7.9034,Pegmatite_rect,9,0,9,0,1,
628f827eeb876ed2617881e7,SCR,2024-06-25_12h48.17.111,LearnStrategy,2023.2.3,Linux x86_64,59.88023952,4,2,11,,,,,,,,4,11,,,,,,,,,,,,,2,3.453,0,,,,,,-0.142661095,-0.257959604,1,0,1,3.4532,Basalt_rect,10,0,10,0,1,
628f827eeb876ed2617881e7,SCR,2024-06-25_12h48.17.111,LearnStrategy,2023.2.3,Linux x86_64,59.88023952,4,2,12,,,,,,,,5,09,,,,,,,,,,,,,5,0.981,1,,,,,,-0.342439334,-0.408794006,1,0,1,0.9815,Obsidian_rect,11,0,11,0,1,
628f827eeb876ed2617881e7,SCR,2024-06-25_12h48.17.111,LearnStrategy,2023.2.3,Linux x86_64,59.88023952,4,2,13,,,,,,,,8,16,,,,,,,,,,,,,8,1.412,1,,,,,,0.31680131,-0.405333598,1,0,1,1.4116,Pumice_rect,12,0,12,0,1,
628f827eeb876ed2617881e7,SCR,2024-06-25_12h48.17.111,LearnStrategy,2023.2.3,Linux x86_64,59.88023952,4,2,14,,,,,,,,3,15,,,,,,,,,,,,,4,1.913,0,,,,,,0.414973895,-0.263580322,1,0,1,1.9129,Gabbro_rect,13,0,13,0,1,
628f827eeb876ed2617881e7,SCR,2024-06-25_12h48.17.111,LearnStrategy,2023.2.3,Linux x86_64,59.88023952,4,2,15,,,,,,,,1,10,,,,,,,,,,,,,3,1.008,0,,,,,,0.167506059,-0.250970284,1,0,1,1.0075,Diorite_rect,14,0,14,0,1,
628f827eeb876ed2617881e7,SCR,2024-06-25_12h48.17.111,LearnStrategy,2023.2.3,Linux x86_64,59.88023952,4,2,16,,,,,,,,2,10,,,,,,,,,,,,,5,1.323,0,,,,,,-0.461804907,-0.379874229,0,0,1,1.3226,Obsidian_rect,15,0,15,0,1,
628f827eeb876ed2617881e7,SCR,2024-06-25_12h48.17.111,LearnStrategy,2023.2.3,Linux x86_64,59.88023952,5,1,1,0.394690911,-0.258267005,1,0,1,2.5825,Peridotite_16,7,16,2,7,2.582,1,02,0.394690911,-0.261108637,0,0,1,0.1006,Gabbro_rect,4,0.101,0,0,0,0,0,1,,,,,,,,,,,,,
628f827eeb876ed2617881e7,SCR,2024-06-25_12h48.17.111,LearnStrategy,2023.2.3,Linux x86_64,59.88023952,5,1,2,0.591214339,-0.229047616,1,0,1,2.3973,Basalt_05,2,05,2,8,2.397,2,05,-0.112884839,-0.244253397,1,0,1,4.2962,Basalt_rect,2,4.296,1,1,0,1,0,1,,,,,,,,,,,,,
628f827eeb876ed2617881e7,SCR,2024-06-25_12h48.17.111,LearnStrategy,2023.2.3,Linux x86_64,59.88023952,5,1,3,-0.212885857,-0.277927717,1,0,1,1.1943,Andesite_06,1,06,2,3,1.194,1,06,-0.110611041,-0.396764517,1,0,1,1.9699,Pegmatite_rect,6,1.97,0,2,0,2,0,1,,,,,,,,,,,,,
628f827eeb876ed2617881e7,SCR,2024-06-25_12h48.17.111,LearnStrategy,2023.2.3,Linux x86_64,59.88023952,5,1,4,0.584712982,-0.120615443,1,0,1,1.5608,Diorite_16,3,16,3,8,1.561,3,16,0.195417245,-0.254413605,1,0,1,3.8348,Diorite_rect,3,3.835,1,3,0,3,0,1,,,,,,,,,,,,,
628f827eeb876ed2617881e7,SCR,2024-06-25_12h48.17.111,LearnStrategy,2023.2.3,Linux x86_64,59.88023952,5,1,5,-0.065703551,0.437619269,1,0,1,0.98,Gabbro_01,4,01,6,4,0.98,4,01,0.097965002,-0.407726844,1,0,1,3.8867,Peridotite_rect,7,3.887,0,4,0,4,0,1,,,,,,,,,,,,,
628f827eeb876ed2617881e7,SCR,2024-06-25_12h48.17.111,LearnStrategy,2023.2.3,Linux x86_64,59.88023952,5,1,6,0.583781083,0.424096386,1,0,1,1.2149,Pegmatite_15,6,15,6,8,1.215,6,15,0.090216875,-0.270858129,1,0,1,6.5571,Diorite_rect,3,6.557,0,5,0,5,0,1,,,,,,,,,,,,,
628f827eeb876ed2617881e7,SCR,2024-06-25_12h48.17.111,LearnStrategy,2023.2.3,Linux x86_64,59.88023952,5,1,7,0.352231661,0.237300396,1,0,1,1.1088,Basalt_08,2,08,5,7,1.109,2,08,-0.380609115,-0.390252034,1,0,1,1.2624,Obsidian_rect,5,1.262,0,6,0,6,0,1,,,,,,,,,,,,,
628f827eeb876ed2617881e7,SCR,2024-06-25_12h48.17.111,LearnStrategy,2023.2.3,Linux x86_64,59.88023952,5,1,8,0.603654703,0.054194331,1,0,1,0.9649,Gabbro_15,4,15,4,8,0.965,4,15,-0.405393124,-0.412410816,1,0,1,2.1829,Obsidian_rect,5,2.183,0,7,0,7,0,1,,,,,,,,,,,,,
628f827eeb876ed2617881e7,SCR,2024-06-25_12h48.17.111,LearnStrategy,2023.2.3,Linux x86_64,59.88023952,5,1,9,0.39716053,-0.441549222,1,0,1,1.2917,Gabbro_09,4,09,1,7,1.292,4,09,0.155127128,-0.264983018,1,0,1,2.6335,Diorite_rect,3,2.634,0,8,0,8,0,1,,,,,,,,,,,,,
628f827eeb876ed2617881e7,SCR,2024-06-25_12h48.17.111,LearnStrategy,2023.2.3,Linux x86_64,59.88023952,5,1,10,0.110950629,0.237122734,1,0,1,0.8978,Pegmatite_11,6,11,5,5,0.898,6,11,0.118494272,-0.264199575,1,0,1,1.4115,Diorite_rect,3,1.411,0,9,0,9,0,1,,,,,,,,,,,,,
628f827eeb876ed2617881e7,SCR,2024-06-25_12h48.17.111,LearnStrategy,2023.2.3,Linux x86_64,59.88023952,5,1,11,0.386764367,-0.206029495,1,0,1,1.2098,Peridotite_16,7,16,2,7,1.21,7,16,0.147074461,-0.392792145,1,0,1,1.3075,Peridotite_rect,7,1.308,1,10,0,10,0,1,,,,,,,,,,,,,
628f827eeb876ed2617881e7,SCR,2024-06-25_12h48.17.111,LearnStrategy,2023.2.3,Linux x86_64,59.88023952,5,1,12,-0.401096463,0.238480548,1,0,1,1.0087,Pumice_05,8,05,5,2,1.009,8,05,0.432601849,-0.415092866,1,0,1,1.2121,Pumice_rect,8,1.212,1,11,0,11,0,1,,,,,,,,,,,,,
628f827eeb876ed2617881e7,SCR,2024-06-25_12h48.17.111,LearnStrategy,2023.2.3,Linux x86_64,59.88023952,5,1,13,0.415947835,-0.087254842,1,0,1,1.1627,Andesite_04,1,04,3,7,1.163,1,04,0.350672166,-0.250077009,1,0,1,2.9775,Gabbro_rect,4,2.977,0,12,0,12,0,1,,,,,,,,,,,,,
628f827eeb876ed2617881e7,SCR,2024-06-25_12h48.17.111,LearnStrategy,2023.2.3,Linux x86_64,59.88023952,5,1,14,-0.522275885,-0.108994444,1,0,1,0.9303,Pegmatite_16,6,16,3,1,0.93,6,16,-0.382476131,-0.416707993,1,0,1,1.6936,Obsidian_rect,5,1.694,0,13,0,13,0,1,,,,,,,,,,,,,
628f827eeb876ed2617881e7,SCR,2024-06-25_12h48.17.111,LearnStrategy,2023.2.3,Linux x86_64,59.88023952,5,1,15,0.560502052,-0.437574148,1,0,1,0.9614,Diorite_07,3,07,1,8,0.961,3,07,0.190389315,-0.243510087,1,0,1,2.2041,Diorite_rect,3,2.204,1,14,0,14,0,1,,,,,,,,,,,,,
628f827eeb876ed2617881e7,SCR,2024-06-25_12h48.17.111,LearnStrategy,2023.2.3,Linux x86_64,59.88023952,5,1,16,-0.396066586,0.106724898,1,0,1,1.0973,Obsidian_06,5,06,4,2,1.097,5,06,-0.390751759,-0.384950161,1,0,1,1.2489,Obsidian_rect,5,1.249,1,15,0,15,0,1,,,,,,,,,,,,,
628f827eeb876ed2617881e7,SCR,2024-06-25_12h48.17.111,LearnStrategy,2023.2.3,Linux x86_64,59.88023952,5,2,1,,,,,,,,1,07,,,,,,,,,,,,,3,3.259,0,,,,,,0.112565835,-0.255959034,1,0,1,3.2592,Diorite_rect,0,0,0,0,1,
628f827eeb876ed2617881e7,SCR,2024-06-25_12h48.17.111,LearnStrategy,2023.2.3,Linux x86_64,59.88023952,5,2,2,,,,,,,,2,01,,,,,,,,,,,,,2,1.587,1,,,,,,-0.14993159,-0.265704473,1,0,1,1.5869,Basalt_rect,1,0,1,0,1,
628f827eeb876ed2617881e7,SCR,2024-06-25_12h48.17.111,LearnStrategy,2023.2.3,Linux x86_64,59.88023952,5,2,3,,,,,,,,8,15,,,,,,,,,,,,,8,2.098,1,,,,,,0.420828978,-0.415433168,1,0,1,2.0976,Pumice_rect,2,0,2,0,1,
628f827eeb876ed2617881e7,SCR,2024-06-25_12h48.17.111,LearnStrategy,2023.2.3,Linux x86_64,59.88023952,5,2,4,,,,,,,,5,07,,,,,,,,,,,,,5,1.11,1,,,,,,-0.392417431,-0.398722092,1,0,1,1.1099,Obsidian_rect,3,0,3,0,1,
628f827eeb876ed2617881e7,SCR,2024-06-25_12h48.17.111,LearnStrategy,2023.2.3,Linux x86_64,59.88023952,5,2,5,,,,,,,,5,04,,,,,,,,,,,,,5,1.015,1,,,,,,-0.384150942,-0.39966917,1,0,1,1.0151,Obsidian_rect,4,0,4,0,1,
628f827eeb876ed2617881e7,SCR,2024-06-25_12h48.17.111,LearnStrategy,2023.2.3,Linux x86_64,59.88023952,5,2,6,,,,,,,,7,13,,,,,,,,,,,,,6,1.851,0,,,,,,-0.114567836,-0.398534536,1,0,1,1.851,Pegmatite_rect,5,0,5,0,1,
628f827eeb876ed2617881e7,SCR,2024-06-25_12h48.17.111,LearnStrategy,2023.2.3,Linux x86_64,59.88023952,5,2,7,,,,,,,,7,07,,,,,,,,,,,,,7,1.172,1,,,,,,0.097067436,-0.40454038,1,0,1,1.1723,Peridotite_rect,6,0,6,0,1,
628f827eeb876ed2617881e7,SCR,2024-06-25_12h48.17.111,LearnStrategy,2023.2.3,Linux x86_64,59.88023952,5,2,8,,,,,,,,4,05,,,,,,,,,,,,,1,2.704,0,,,,,,-0.384313742,-0.262563705,1,0,1,2.7037,Andesite_rect,7,0,7,0,1,
628f827eeb876ed2617881e7,SCR,2024-06-25_12h48.17.111,LearnStrategy,2023.2.3,Linux x86_64,59.88023952,5,2,9,,,,,,,,3,02,,,,,,,,,,,,,1,1.493,0,,,,,,-0.354021947,-0.266975085,1,0,1,1.4929,Andesite_rect,8,0,8,0,1,
628f827eeb876ed2617881e7,SCR,2024-06-25_12h48.17.111,LearnStrategy,2023.2.3,Linux x86_64,59.88023952,5,2,10,,,,,,,,2,16,,,,,,,,,,,,,2,1.439,1,,,,,,-0.073504766,-0.254814386,1,0,1,1.4393,Basalt_rect,9,0,9,0,1,
628f827eeb876ed2617881e7,SCR,2024-06-25_12h48.17.111,LearnStrategy,2023.2.3,Linux x86_64,59.88023952,5,2,11,,,,,,,,8,04,,,,,,,,,,,,,8,1.026,1,,,,,,0.426542918,-0.385727962,1,0,1,1.0256,Pumice_rect,10,0,10,0,1,
628f827eeb876ed2617881e7,SCR,2024-06-25_12h48.17.111,LearnStrategy,2023.2.3,Linux x86_64,59.88023952,5,2,12,,,,,,,,6,08,,,,,,,,,,,,,5,1.367,0,,,,,,-0.429910302,-0.420816422,1,0,1,1.367,Obsidian_rect,11,0,11,0,1,
628f827eeb876ed2617881e7,SCR,2024-06-25_12h48.17.111,LearnStrategy,2023.2.3,Linux x86_64,59.88023952,5,2,13,,,,,,,,6,03,,,,,,,,,,,,,7,2.226,0,,,,,,0.05979983,-0.412827094,1,0,1,2.226,Peridotite_rect,12,0,12,0,1,
628f827eeb876ed2617881e7,SCR,2024-06-25_12h48.17.111,LearnStrategy,2023.2.3,Linux x86_64,59.88023952,5,2,14,,,,,,,,4,08,,,,,,,,,,,,,4,3.978,1,,,,,,0.29532965,-0.260308186,1,0,1,3.9784,Gabbro_rect,13,0,13,0,1,
628f827eeb876ed2617881e7,SCR,2024-06-25_12h48.17.111,LearnStrategy,2023.2.3,Linux x86_64,59.88023952,5,2,15,,,,,,,,1,11,,,,,,,,,,,,,3,1.423,0,,,,,,0.224592288,-0.247489452,1,0,1,1.4234,Diorite_rect,14,0,14,0,1,
628f827eeb876ed2617881e7,SCR,2024-06-25_12h48.17.111,LearnStrategy,2023.2.3,Linux x86_64,59.88023952,5,2,16,,,,,,,,3,09,,,,,,,,,,,,,1,1.272,0,,,,,,-0.31539762,-0.263973554,1,0,1,1.2719,Andesite_rect,15,0,15,0,1,
628f827eeb876ed2617881e7,SCR,2024-06-25_12h48.17.111,LearnStrategy,2023.2.3,Linux x86_64,59.88023952,6,1,1,0.556469917,-0.427284797,1,0,1,1.3994,Diorite_07,3,07,1,8,1.399,3,07,0.198990424,-0.265545209,1,0,1,1.6975,Diorite_rect,3,1.697,1,0,0,0,0,1,,,,,,,,,,,,,
628f827eeb876ed2617881e7,SCR,2024-06-25_12h48.17.111,LearnStrategy,2023.2.3,Linux x86_64,59.88023952,6,1,2,0.071595987,-0.122840285,1,0,1,0.9789,Andesite_16,1,16,3,5,0.979,1,16,-0.348974029,-0.251155535,1,0,1,2.3071,Andesite_rect,1,2.307,1,1,0,1,0,1,,,,,,,,,,,,,
628f827eeb876ed2617881e7,SCR,2024-06-25_12h48.17.111,LearnStrategy,2023.2.3,Linux x86_64,59.88023952,6,1,3,0.597626686,-0.280032714,1,0,1,1.1465,Basalt_05,2,05,2,8,1.147,2,05,-0.113467455,-0.251975695,1,0,1,0.7965,Basalt_rect,2,0.797,1,2,0,2,0,1,,,,,,,,,,,,,
628f827eeb876ed2617881e7,SCR,2024-06-25_12h48.17.111,LearnStrategy,2023.2.3,Linux x86_64,59.88023952,6,1,4,0.217654546,-0.223323107,1,0,1,0.9816,Pegmatite_13,6,13,2,6,0.982,6,13,0.194505215,-0.266836882,1,0,1,2.0761,Diorite_rect,3,2.076,0,3,0,3,0,1,,,,,,,,,,,,,
628f827eeb876ed2617881e7,SCR,2024-06-25_12h48.17.111,LearnStrategy,2023.2.3,Linux x86_64,59.88023952,6,1,5,0.251487176,-0.424275637,1,0,1,1.1483,Obsidian_02,5,02,1,6,1.148,5,02,-0.391260107,-0.398342371,1,0,1,0.8759,Obsidian_rect,5,0.876,1,4,0,4,0,1,,,,,,,,,,,,,
628f827eeb876ed2617881e7,SCR,2024-06-25_12h48.17.111,LearnStrategy,2023.2.3,Linux x86_64,59.88023952,6,1,6,0.592817942,-0.134351373,1,0,1,1.1499,Diorite_16,3,16,3,8,1.15,3,16,-0.372930129,-0.244222085,1,0,1,0.8921,Andesite_rect,1,0.892,0,5,0,5,0,1,,,,,,,,,,,,,
628f827eeb876ed2617881e7,SCR,2024-06-25_12h48.17.111,LearnStrategy,2023.2.3,Linux x86_64,59.88023952,6,1,7,-0.079346657,0.422950163,1,0,1,1.3822,Gabbro_01,4,01,6,4,1.382,4,01,-0.106999874,-0.390784502,1,0,1,1.668,Pegmatite_rect,6,1.668,0,6,0,6,0,1,,,,,,,,,,,,,
628f827eeb876ed2617881e7,SCR,2024-06-25_12h48.17.111,LearnStrategy,2023.2.3,Linux x86_64,59.88023952,6,1,8,0.402934551,0.116084297,1,0,1,1.2107,Pegmatite_07,6,07,4,7,1.211,6,07,-0.416949828,-0.394661506,1,0,1,1.601,Obsidian_rect,5,1.601,0,7,0,7,0,1,,,,,,,,,,,,,
628f827eeb876ed2617881e7,SCR,2024-06-25_12h48.17.111,LearnStrategy,2023.2.3,Linux x86_64,59.88023952,6,1,9,-0.580235362,-0.256084919,1,0,1,0.9823,Gabbro_03,4,03,2,1,0.982,4,03,-0.369611224,-0.252577066,1,0,1,0.6645,Andesite_rect,1,0.664,0,8,0,8,0,1,,,,,,,,,,,,,
628f827eeb876ed2617881e7,SCR,2024-06-25_12h48.17.111,LearnStrategy,2023.2.3,Linux x86_64,59.88023952,6,1,10,-0.386468609,-0.394795497,1,0,1,0.9959,Peridotite_05,7,05,1,2,0.996,7,05,-0.386468609,-0.394795497,0,0,1,0.0792,Obsidian_rect,5,0.079,0,9,0,9,0,1,,,,,,,,,,,,,
628f827eeb876ed2617881e7,SCR,2024-06-25_12h48.17.111,LearnStrategy,2023.2.3,Linux x86_64,59.88023952,6,1,11,-0.552192807,-0.122333209,1,0,1,0.8639,Pegmatite_16,6,16,3,1,0.864,6,16,-0.107886553,-0.260150194,1,0,1,2.7857,Basalt_rect,2,2.786,0,10,0,10,0,1,,,,,,,,,,,,,
628f827eeb876ed2617881e7,SCR,2024-06-25_12h48.17.111,LearnStrategy,2023.2.3,Linux x86_64,59.88023952,6,1,12,-0.182711045,-0.28393205,1,0,1,0.8149,Andesite_06,1,06,2,3,0.815,1,06,-0.316842834,-0.248027722,0,0,1,1.3884,Andesite_rect,1,1.388,1,11,0,11,0,1,,,,,,,,,,,,,
628f827eeb876ed2617881e7,SCR,2024-06-25_12h48.17.111,LearnStrategy,2023.2.3,Linux x86_64,59.88023952,6,1,13,-0.366249641,-0.234882593,1,0,1,0.8627,Andesite_09,1,09,2,2,0.863,1,09,-0.366249641,-0.234882593,0,0,1,0.1034,Andesite_rect,1,0.103,1,12,0,12,0,1,,,,,,,,,,,,,
628f827eeb876ed2617881e7,SCR,2024-06-25_12h48.17.111,LearnStrategy,2023.2.3,Linux x86_64,59.88023952,6,1,14,0.552598,-0.092110515,1,0,1,1.0653,Diorite_16,3,16,3,8,1.065,3,16,0.398763736,-0.246700525,1,0,1,2.8333,Gabbro_rect,4,2.833,0,13,0,13,0,1,,,,,,,,,,,,,
628f827eeb876ed2617881e7,SCR,2024-06-25_12h48.17.111,LearnStrategy,2023.2.3,Linux x86_64,59.88023952,6,1,15,-0.081284682,0.409638902,1,0,1,1.2315,Gabbro_01,4,01,6,4,1.231,4,01,-0.076881329,-0.417075713,1,0,1,1.5812,Pegmatite_rect,6,1.581,0,14,0,14,0,1,,,,,,,,,,,,,
628f827eeb876ed2617881e7,SCR,2024-06-25_12h48.17.111,LearnStrategy,2023.2.3,Linux x86_64,59.88023952,6,1,16,-0.225380143,0.430033172,1,0,1,1.0938,Peridotite_02,7,02,6,3,1.094,7,02,-0.081768672,-0.400222381,1,0,1,1.0626,Pegmatite_rect,6,1.063,0,15,0,15,0,1,,,,,,,,,,,,,
628f827eeb876ed2617881e7,SCR,2024-06-25_12h48.17.111,LearnStrategy,2023.2.3,Linux x86_64,59.88023952,6,2,1,,,,,,,,7,04,,,,,,,,,,,,,6,1.644,0,,,,,,-0.131347497,-0.417427381,1,0,1,1.6442,Pegmatite_rect,0,0,0,0,1,
628f827eeb876ed2617881e7,SCR,2024-06-25_12h48.17.111,LearnStrategy,2023.2.3,Linux x86_64,59.88023952,6,2,2,,,,,,,,1,05,,,,,,,,,,,,,1,2.613,1,,,,,,-0.336567044,-0.238295873,1,0,1,2.6125,Andesite_rect,1,0,1,0,1,
628f827eeb876ed2617881e7,SCR,2024-06-25_12h48.17.111,LearnStrategy,2023.2.3,Linux x86_64,59.88023952,6,2,3,,,,,,,,6,05,,,,,,,,,,,,,5,1.219,0,,,,,,-0.358304143,-0.416212161,1,0,1,1.2192,Obsidian_rect,2,0,2,0,1,
628f827eeb876ed2617881e7,SCR,2024-06-25_12h48.17.111,LearnStrategy,2023.2.3,Linux x86_64,59.88023952,6,2,4,,,,,,,,8,06,,,,,,,,,,,,,8,1.448,1,,,,,,0.412460883,-0.418564717,1,0,1,1.448,Pumice_rect,3,0,3,0,1,
628f827eeb876ed2617881e7,SCR,2024-06-25_12h48.17.111,LearnStrategy,2023.2.3,Linux x86_64,59.88023952,6,2,5,,,,,,,,6,12,,,,,,,,,,,,,4,2.822,0,,,,,,0.323578993,-0.242045244,1,0,1,2.822,Gabbro_rect,4,0,4,0,1,
628f827eeb876ed2617881e7,SCR,2024-06-25_12h48.17.111,LearnStrategy,2023.2.3,Linux x86_64,59.88023952,6,2,6,,,,,,,,5,14,,,,,,,,,,,,,5,1.114,1,,,,,,-0.398956696,-0.409266074,1,0,1,1.1138,Obsidian_rect,5,0,5,0,1,
628f827eeb876ed2617881e7,SCR,2024-06-25_12h48.17.111,LearnStrategy,2023.2.3,Linux x86_64,59.88023952,6,2,7,,,,,,,,5,16,,,,,,,,,,,,,5,0.965,1,,,,,,-0.399026434,-0.392812173,1,0,1,0.9649,Obsidian_rect,6,0,6,0,1,
628f827eeb876ed2617881e7,SCR,2024-06-25_12h48.17.111,LearnStrategy,2023.2.3,Linux x86_64,59.88023952,6,2,8,,,,,,,,3,13,,,,,,,,,,,,,1,1.716,0,,,,,,-0.360117197,-0.268362681,1,0,1,1.7161,Andesite_rect,7,0,7,0,1,
628f827eeb876ed2617881e7,SCR,2024-06-25_12h48.17.111,LearnStrategy,2023.2.3,Linux x86_64,59.88023952,6,2,9,,,,,,,,2,04,,,,,,,,,,,,,2,2.884,1,,,,,,-0.077636798,-0.262181838,1,0,1,2.8841,Basalt_rect,8,0,8,0,1,
628f827eeb876ed2617881e7,SCR,2024-06-25_12h48.17.111,LearnStrategy,2023.2.3,Linux x86_64,59.88023952,6,2,10,,,,,,,,8,03,,,,,,,,,,,,,8,1.132,1,,,,,,0.326316992,-0.383152644,1,0,1,1.1322,Pumice_rect,9,0,9,0,1,
628f827eeb876ed2617881e7,SCR,2024-06-25_12h48.17.111,LearnStrategy,2023.2.3,Linux x86_64,59.88023952,6,2,11,,,,,,,,4,14,,,,,,,,,,,,,6,2.581,0,,,,,,-0.088862578,-0.410650969,1,0,1,2.5805,Pegmatite_rect,10,0,10,0,1,
628f827eeb876ed2617881e7,SCR,2024-06-25_12h48.17.111,LearnStrategy,2023.2.3,Linux x86_64,59.88023952,6,2,12,,,,,,,,1,01,,,,,,,,,,,,,3,3.314,0,,,,,,0.078743855,-0.266223113,1,0,1,3.3145,Diorite_rect,11,0,11,0,1,
628f827eeb876ed2617881e7,SCR,2024-06-25_12h48.17.111,LearnStrategy,2023.2.3,Linux x86_64,59.88023952,6,2,13,,,,,,,,7,15,,,,,,,,,,,,,7,1.616,1,,,,,,0.102773984,-0.397051573,1,0,1,1.6161,Peridotite_rect,12,0,12,0,1,
628f827eeb876ed2617881e7,SCR,2024-06-25_12h48.17.111,LearnStrategy,2023.2.3,Linux x86_64,59.88023952,6,2,14,,,,,,,,4,12,,,,,,,,,,,,,6,1.689,0,,,,,,-0.045176983,-0.399683952,1,0,1,1.6893,Pegmatite_rect,13,0,13,0,1,
628f827eeb876ed2617881e7,SCR,2024-06-25_12h48.17.111,LearnStrategy,2023.2.3,Linux x86_64,59.88023952,6,2,15,,,,,,,,2,12,,,,,,,,,,,,,8,1.11,0,,,,,,0.360340357,-0.382412752,1,0,1,1.1098,Pumice_rect,14,0,14,0,1,
628f827eeb876ed2617881e7,SCR,2024-06-25_12h48.17.111,LearnStrategy,2023.2.3,Linux x86_64,59.88023952,6,2,16,,,,,,,,3,10,,,,,,,,,,,,,3,3.141,1,,,,,,0.194789251,-0.268110991,1,0,1,3.1407,Diorite_rect,15,0,15,0,1,
628f827eeb876ed2617881e7,SCR,2024-06-25_12h48.17.111,LearnStrategy,2023.2.3,Linux x86_64,59.88023952,7,1,1,-0.409265478,-0.281666438,1,0,1,1.3296,Andesite_09,1,09,2,2,1.33,1,09,-0.337346315,-0.252095381,1,0,1,3.3047,Andesite_rect,1,3.305,1,0,0,0,0,1,,,,,,,,,,,,,
628f827eeb876ed2617881e7,SCR,2024-06-25_12h48.17.111,LearnStrategy,2023.2.3,Linux x86_64,59.88023952,7,1,2,0.395788511,0.077708125,1,0,1,1.1284,Pegmatite_07,6,07,4,7,1.128,6,07,-0.091510296,-0.405067046,1,0,1,1.8464,Pegmatite_rect,6,1.846,1,1,0,1,0,1,,,,,,,,,,,,,
628f827eeb876ed2617881e7,SCR,2024-06-25_12h48.17.111,LearnStrategy,2023.2.3,Linux x86_64,59.88023952,7,1,3,-0.405577302,-0.096390963,1,0,1,1.0279,Andesite_02,1,02,3,2,1.028,1,02,0.363213539,-0.247110049,1,0,1,2.9524,Gabbro_rect,4,2.952,0,2,0,2,0,1,,,,,,,,,,,,,
628f827eeb876ed2617881e7,SCR,2024-06-25_12h48.17.111,LearnStrategy,2023.2.3,Linux x86_64,59.88023952,7,1,4,0.202288151,-0.067488154,1,0,1,0.8785,Basalt_02,2,02,3,6,0.879,2,02,-0.169405937,-0.232470274,1,0,1,2.2223,Basalt_rect,2,2.222,1,3,0,3,0,1,,,,,,,,,,,,,
628f827eeb876ed2617881e7,SCR,2024-06-25_12h48.17.111,LearnStrategy,2023.2.3,Linux x86_64,59.88023952,7,1,5,0.531494459,0.396568696,1,0,1,1.2486,Pegmatite_15,6,15,6,8,1.249,6,15,-0.178762515,-0.404401143,1,0,1,2.9204,Pegmatite_rect,6,2.92,1,4,0,4,0,1,,,,,,,,,,,,,
628f827eeb876ed2617881e7,SCR,2024-06-25_12h48.17.111,LearnStrategy,2023.2.3,Linux x86_64,59.88023952,7,1,6,0.554377715,-0.050337632,1,0,1,0.8014,Diorite_16,3,16,3,8,0.801,3,16,0.112525384,-0.249247392,1,0,1,2.9289,Diorite_rect,3,2.929,1,5,0,5,0,1,,,,,,,,,,,,,
628f827eeb876ed2617881e7,SCR,2024-06-25_12h48.17.111,LearnStrategy,2023.2.3,Linux x86_64,59.88023952,7,1,7,0.405342499,-0.428513924,1,0,1,1.1938,Gabbro_09,4,09,1,7,1.194,4,09,-0.113857985,-0.394160191,1,0,1,5.1641,Pegmatite_rect,6,5.164,0,6,0,6,0,1,,,,,,,,,,,,,
628f827eeb876ed2617881e7,SCR,2024-06-25_12h48.17.111,LearnStrategy,2023.2.3,Linux x86_64,59.88023952,7,1,8,0.23818771,0.4016744,1,0,1,1.2251,Peridotite_14,7,14,6,6,1.225,7,14,-0.109842857,-0.39638265,1,0,1,1.541,Pegmatite_rect,6,1.541,0,7,0,7,0,1,,,,,,,,,,,,,
628f827eeb876ed2617881e7,SCR,2024-06-25_12h48.17.111,LearnStrategy,2023.2.3,Linux x86_64,59.88023952,7,1,9,-0.243123015,-0.094900926,1,0,1,0.7794,Obsidian_12,5,12,3,3,0.779,5,12,-0.406606038,-0.380970875,1,0,1,1.1774,Obsidian_rect,5,1.177,1,8,0,8,0,1,,,,,,,,,,,,,
628f827eeb876ed2617881e7,SCR,2024-06-25_12h48.17.111,LearnStrategy,2023.2.3,Linux x86_64,59.88023952,7,1,10,0.376682361,-0.224949837,1,0,1,0.9783,Peridotite_16,7,16,2,7,0.978,7,16,0.110484997,-0.393182675,1,0,1,1.4634,Peridotite_rect,7,1.463,1,9,0,9,0,1,,,,,,,,,,,,,
628f827eeb876ed2617881e7,SCR,2024-06-25_12h48.17.111,LearnStrategy,2023.2.3,Linux x86_64,59.88023952,7,1,11,-0.580851475,-0.417797565,1,0,1,1.0643,Pegmatite_10,6,10,1,1,1.064,6,10,0.127628565,-0.404057264,1,0,1,1.0722,Peridotite_rect,7,1.072,0,10,0,10,0,1,,,,,,,,,,,,,
628f827eeb876ed2617881e7,SCR,2024-06-25_12h48.17.111,LearnStrategy,2023.2.3,Linux x86_64,59.88023952,7,1,12,0.391516765,-0.415805181,1,0,1,1.6967,Gabbro_09,4,09,1,7,1.697,4,09,0.391516765,-0.415805181,0,0,1,0.0777,Pumice_rect,8,0.078,0,11,0,11,0,1,,,,,,,,,,,,,
628f827eeb876ed2617881e7,SCR,2024-06-25_12h48.17.111,LearnStrategy,2023.2.3,Linux x86_64,59.88023952,7,1,13,0.546722253,-0.278238217,1,0,1,1.0314,Basalt_05,2,05,2,8,1.031,2,05,-0.119683266,-0.24835674,1,0,1,0.9655,Basalt_rect,2,0.966,1,12,0,12,0,1,,,,,,,,,,,,,
628f827eeb876ed2617881e7,SCR,2024-06-25_12h48.17.111,LearnStrategy,2023.2.3,Linux x86_64,59.88023952,7,1,14,0.567294439,0.238975585,1,0,1,1.1288,Andesite_03,1,03,5,8,1.129,1,03,0.130957445,-0.270152171,1,0,1,1.3434,Diorite_rect,3,1.343,0,13,0,13,0,1,,,,,,,,,,,,,
628f827eeb876ed2617881e7,SCR,2024-06-25_12h48.17.111,LearnStrategy,2023.2.3,Linux x86_64,59.88023952,7,1,15,-0.072433631,-0.221359571,1,0,1,0.8144,Diorite_08,3,08,2,4,0.814,3,08,-0.331457376,-0.249897321,1,0,1,0.7314,Andesite_rect,1,0.731,0,14,0,14,0,1,,,,,,,,,,,,,
628f827eeb876ed2617881e7,SCR,2024-06-25_12h48.17.111,LearnStrategy,2023.2.3,Linux x86_64,59.88023952,7,1,16,-0.52040724,0.24242723,1,0,1,1.2298,Gabbro_13,4,13,5,1,1.23,4,13,0.200420459,-0.248871326,1,0,1,0.8022,Diorite_rect,3,0.802,0,15,0,15,0,1,,,,,,,,,,,,,
628f827eeb876ed2617881e7,SCR,2024-06-25_12h48.17.111,LearnStrategy,2023.2.3,Linux x86_64,59.88023952,7,2,1,,,,,,,,7,04,,,,,,,,,,,,,6,1.397,0,,,,,,-0.07222112,-0.394571543,1,0,1,1.3974,Pegmatite_rect,0,0,0,0,1,
628f827eeb876ed2617881e7,SCR,2024-06-25_12h48.17.111,LearnStrategy,2023.2.3,Linux x86_64,59.88023952,7,2,2,,,,,,,,8,03,,,,,,,,,,,,,8,1.142,1,,,,,,0.364384572,-0.381409645,0,0,1,1.142,Pumice_rect,1,0,1,0,1,
628f827eeb876ed2617881e7,SCR,2024-06-25_12h48.17.111,LearnStrategy,2023.2.3,Linux x86_64,59.88023952,7,2,3,,,,,,,,2,10,,,,,,,,,,,,,5,1.043,0,,,,,,-0.3790615,-0.394355377,1,0,1,1.0431,Obsidian_rect,2,0,2,0,1,
628f827eeb876ed2617881e7,SCR,2024-06-25_12h48.17.111,LearnStrategy,2023.2.3,Linux x86_64,59.88023952,7,2,4,,,,,,,,2,06,,,,,,,,,,,,,4,1.993,0,,,,,,0.382852554,-0.263441801,1,0,1,1.9927,Gabbro_rect,3,0,3,0,1,
628f827eeb876ed2617881e7,SCR,2024-06-25_12h48.17.111,LearnStrategy,2023.2.3,Linux x86_64,59.88023952,7,2,5,,,,,,,,6,03,,,,,,,,,,,,,6,1.242,1,,,,,,-0.148405234,-0.40281113,1,0,1,1.2419,Pegmatite_rect,4,0,4,0,1,
628f827eeb876ed2617881e7,SCR,2024-06-25_12h48.17.111,LearnStrategy,2023.2.3,Linux x86_64,59.88023952,7,2,6,,,,,,,,1,11,,,,,,,,,,,,,1,1.74,1,,,,,,-0.419657509,-0.267552217,1,0,1,1.7396,Andesite_rect,5,0,5,0,1,
628f827eeb876ed2617881e7,SCR,2024-06-25_12h48.17.111,LearnStrategy,2023.2.3,Linux x86_64,59.88023952,7,2,7,,,,,,,,5,07,,,,,,,,,,,,,5,1.063,1,,,,,,-0.365907868,-0.391843001,1,0,1,1.0632,Obsidian_rect,6,0,6,0,1,
628f827eeb876ed2617881e7,SCR,2024-06-25_12h48.17.111,LearnStrategy,2023.2.3,Linux x86_64,59.88023952,7,2,8,,,,,,,,1,05,,,,,,,,,,,,,1,1.65,1,,,,,,-0.427055081,-0.248560111,1,0,1,1.6505,Andesite_rect,7,0,7,0,1,
628f827eeb876ed2617881e7,SCR,2024-06-25_12h48.17.111,LearnStrategy,2023.2.3,Linux x86_64,59.88023952,7,2,9,,,,,,,,5,11,,,,,,,,,,,,,5,1.121,1,,,,,,-0.366691152,-0.387289047,1,0,1,1.1213,Obsidian_rect,8,0,8,0,1,
628f827eeb876ed2617881e7,SCR,2024-06-25_12h48.17.111,LearnStrategy,2023.2.3,Linux x86_64,59.88023952,7,2,10,,,,,,,,4,08,,,,,,,,,,,,,4,2.699,1,,,,,,0.359875679,-0.266112566,1,0,1,2.6991,Gabbro_rect,9,0,9,0,1,
628f827eeb876ed2617881e7,SCR,2024-06-25_12h48.17.111,LearnStrategy,2023.2.3,Linux x86_64,59.88023952,7,2,11,,,,,,,,3,13,,,,,,,,,,,,,3,2.562,1,,,,,,0.153113127,-0.24481082,1,0,1,2.5615,Diorite_rect,10,0,10,0,1,
628f827eeb876ed2617881e7,SCR,2024-06-25_12h48.17.111,LearnStrategy,2023.2.3,Linux x86_64,59.88023952,7,2,12,,,,,,,,6,09,,,,,,,,,,,,,7,2.175,0,,,,,,0.074325005,-0.415364663,1,0,1,2.1752,Peridotite_rect,11,0,11,0,1,
628f827eeb876ed2617881e7,SCR,2024-06-25_12h48.17.111,LearnStrategy,2023.2.3,Linux x86_64,59.88023952,7,2,13,,,,,,,,7,07,,,,,,,,,,,,,6,1.126,0,,,,,,-0.040805578,-0.402152141,1,0,1,1.1256,Pegmatite_rect,12,0,12,0,1,
628f827eeb876ed2617881e7,SCR,2024-06-25_12h48.17.111,LearnStrategy,2023.2.3,Linux x86_64,59.88023952,7,2,14,,,,,,,,8,15,,,,,,,,,,,,,8,1.115,1,,,,,,0.441394567,-0.395329873,1,0,1,1.115,Pumice_rect,13,0,13,0,1,
628f827eeb876ed2617881e7,SCR,2024-06-25_12h48.17.111,LearnStrategy,2023.2.3,Linux x86_64,59.88023952,7,2,15,,,,,,,,4,14,,,,,,,,,,,,,3,1.622,0,,,,,,0.222899914,-0.25764521,1,0,1,1.6225,Diorite_rect,14,0,14,0,1,
628f827eeb876ed2617881e7,SCR,2024-06-25_12h48.17.111,LearnStrategy,2023.2.3,Linux x86_64,59.88023952,7,2,16,,,,,,,,3,10,,,,,,,,,,,,,3,0.837,1,,,,,,0.135304451,-0.23087875,1,0,1,0.8374,Diorite_rect,15,0,15,0,1,
628f827eeb876ed2617881e7,SCR,2024-06-25_12h48.17.111,LearnStrategy,2023.2.3,Linux x86_64,59.88023952,8,1,1,0.365864436,-0.413616657,1,0,1,1.098,Gabbro_09,4,09,1,7,1.098,4,09,0.365864436,-0.413616657,0,0,1,0.0881,Pumice_rect,8,0.088,0,0,0,0,0,1,,,,,,,,,,,,,
628f827eeb876ed2617881e7,SCR,2024-06-25_12h48.17.111,LearnStrategy,2023.2.3,Linux x86_64,59.88023952,8,1,2,-0.062180122,0.419568221,1,0,1,1.5155,Gabbro_01,4,01,6,4,1.516,4,01,-0.047283649,-0.383381923,1,0,1,2.108,Pegmatite_rect,6,2.108,0,1,0,1,0,1,,,,,,,,,,,,,
628f827eeb876ed2617881e7,SCR,2024-06-25_12h48.17.111,LearnStrategy,2023.2.3,Linux x86_64,59.88023952,8,1,3,0.411168973,0.240839283,1,0,1,1.0308,Basalt_08,2,08,5,7,1.031,2,08,-0.156439304,-0.245148659,1,0,1,1.856,Basalt_rect,2,1.856,1,2,0,2,0,1,,,,,,,,,,,,,
628f827eeb876ed2617881e7,SCR,2024-06-25_12h48.17.111,LearnStrategy,2023.2.3,Linux x86_64,59.88023952,8,1,4,-0.563596408,-0.279443343,1,0,1,1.2318,Gabbro_03,4,03,2,1,1.232,4,03,-0.416662812,-0.247998873,1,0,1,0.9801,Andesite_rect,1,0.98,0,3,0,3,0,1,,,,,,,,,,,,,
628f827eeb876ed2617881e7,SCR,2024-06-25_12h48.17.111,LearnStrategy,2023.2.3,Linux x86_64,59.88023952,8,1,5,-0.243257523,0.277597308,1,0,1,0.9789,Peridotite_06,7,06,5,3,0.979,7,06,0.091750224,-0.418110132,1,0,1,1.8764,Peridotite_rect,7,1.876,1,4,0,4,0,1,,,,,,,,,,,,,
628f827eeb876ed2617881e7,SCR,2024-06-25_12h48.17.111,LearnStrategy,2023.2.3,Linux x86_64,59.88023952,8,1,6,0.518134276,0.253847082,1,0,1,0.9324,Andesite_03,1,03,5,8,0.932,1,03,0.302283684,-0.2425704,1,0,1,1.5017,Gabbro_rect,4,1.502,0,5,0,5,0,1,,,,,,,,,,,,,
628f827eeb876ed2617881e7,SCR,2024-06-25_12h48.17.111,LearnStrategy,2023.2.3,Linux x86_64,59.88023952,8,1,7,0.568339189,-0.395905813,1,0,1,0.9134,Diorite_07,3,07,1,8,0.913,3,07,-0.341465473,-0.247514725,1,0,1,1.7716,Andesite_rect,1,1.772,0,6,0,6,0,1,,,,,,,,,,,,,
628f827eeb876ed2617881e7,SCR,2024-06-25_12h48.17.111,LearnStrategy,2023.2.3,Linux x86_64,59.88023952,8,1,8,0.420561711,0.110231876,1,0,1,0.9804,Pegmatite_07,6,07,4,7,0.98,6,07,-0.152362665,-0.412329435,1,0,1,1.023,Pegmatite_rect,6,1.023,1,7,0,7,0,1,,,,,,,,,,,,,
628f827eeb876ed2617881e7,SCR,2024-06-25_12h48.17.111,LearnStrategy,2023.2.3,Linux x86_64,59.88023952,8,1,9,-0.210944017,-0.236397266,1,0,1,0.8642,Andesite_06,1,06,2,3,0.864,1,06,-0.211909374,-0.238309701,0,0,1,0.0828,Basalt_rect,2,0.083,0,8,0,8,0,1,,,,,,,,,,,,,
628f827eeb876ed2617881e7,SCR,2024-06-25_12h48.17.111,LearnStrategy,2023.2.3,Linux x86_64,59.88023952,8,1,10,0.252004623,0.411523968,1,0,1,1.0621,Peridotite_14,7,14,6,6,1.062,7,14,-0.330336928,-0.257838647,1,0,1,1.996,Andesite_rect,1,1.996,0,9,0,9,0,1,,,,,,,,,,,,,
628f827eeb876ed2617881e7,SCR,2024-06-25_12h48.17.111,LearnStrategy,2023.2.3,Linux x86_64,59.88023952,8,1,11,0.278227647,-0.449255705,1,0,1,1.0797,Obsidian_02,5,02,1,6,1.08,5,02,-0.385113041,-0.412820101,1,0,1,0.7311,Obsidian_rect,5,0.731,1,10,0,10,0,1,,,,,,,,,,,,,
628f827eeb876ed2617881e7,SCR,2024-06-25_12h48.17.111,LearnStrategy,2023.2.3,Linux x86_64,59.88023952,8,1,12,-0.56110243,0.08938543,1,0,1,1.2172,Diorite_12,3,12,4,1,1.217,3,12,-0.381584247,-0.24226888,1,0,1,0.8081,Andesite_rect,1,0.808,0,11,0,11,0,1,,,,,,,,,,,,,
628f827eeb876ed2617881e7,SCR,2024-06-25_12h48.17.111,LearnStrategy,2023.2.3,Linux x86_64,59.88023952,8,1,13,-0.069515069,0.080071648,1,0,1,0.6314,Basalt_14,2,14,4,4,0.631,2,14,-0.064594348,-0.418019851,1,0,1,2.9962,Pegmatite_rect,6,2.996,0,12,0,12,0,1,,,,,,,,,,,,,
628f827eeb876ed2617881e7,SCR,2024-06-25_12h48.17.111,LearnStrategy,2023.2.3,Linux x86_64,59.88023952,8,1,14,0.070384264,0.275862912,1,0,1,0.8813,Pegmatite_11,6,11,5,5,0.881,6,11,0.179400047,-0.266814152,1,0,1,0.9791,Diorite_rect,3,0.979,0,13,0,13,0,1,,,,,,,,,,,,,
628f827eeb876ed2617881e7,SCR,2024-06-25_12h48.17.111,LearnStrategy,2023.2.3,Linux x86_64,59.88023952,8,1,15,0.233146588,-0.277794043,1,0,1,1.1483,Pegmatite_13,6,13,2,6,1.148,6,13,-0.148882707,-0.406272968,1,0,1,1.206,Pegmatite_rect,6,1.206,1,14,0,14,0,1,,,,,,,,,,,,,
628f827eeb876ed2617881e7,SCR,2024-06-25_12h48.17.111,LearnStrategy,2023.2.3,Linux x86_64,59.88023952,8,1,16,-0.212676684,0.411547214,1,0,1,1.0148,Peridotite_02,7,02,6,3,1.015,7,02,0.083687782,-0.419257561,1,0,1,1.9652,Peridotite_rect,7,1.965,1,15,0,15,0,1,,,,,,,,,,,,,
628f827eeb876ed2617881e7,SCR,2024-06-25_12h48.17.111,LearnStrategy,2023.2.3,Linux x86_64,59.88023952,8,2,1,,,,,,,,3,02,,,,,,,,,,,,,3,4.658,1,,,,,,0.203220288,-0.256688197,1,0,1,4.6576,Diorite_rect,0,0,0,0,1,
628f827eeb876ed2617881e7,SCR,2024-06-25_12h48.17.111,LearnStrategy,2023.2.3,Linux x86_64,59.88023952,8,2,2,,,,,,,,6,05,,,,,,,,,,,,,5,2.611,0,,,,,,-0.435935855,-0.400994539,1,0,1,2.6107,Obsidian_rect,1,0,1,0,1,
628f827eeb876ed2617881e7,SCR,2024-06-25_12h48.17.111,LearnStrategy,2023.2.3,Linux x86_64,59.88023952,8,2,3,,,,,,,,1,14,,,,,,,,,,,,,1,2.762,1,,,,,,-0.378436883,-0.254364014,1,0,1,2.7618,Andesite_rect,2,0,2,0,1,
628f827eeb876ed2617881e7,SCR,2024-06-25_12h48.17.111,LearnStrategy,2023.2.3,Linux x86_64,59.88023952,8,2,4,,,,,,,,2,01,,,,,,,,,,,,,2,1.072,1,,,,,,-0.127970616,-0.243794203,1,0,1,1.0718,Basalt_rect,3,0,3,0,1,
628f827eeb876ed2617881e7,SCR,2024-06-25_12h48.17.111,LearnStrategy,2023.2.3,Linux x86_64,59.88023952,8,2,5,,,,,,,,7,15,,,,,,,,,,,,,7,3.872,1,,,,,,0.05688103,-0.408440987,1,0,1,3.8716,Peridotite_rect,4,0,4,0,1,
628f827eeb876ed2617881e7,SCR,2024-06-25_12h48.17.111,LearnStrategy,2023.2.3,Linux x86_64,59.88023952,8,2,6,,,,,,,,4,05,,,,,,,,,,,,,1,2.403,0,,,,,,-0.354627887,-0.262102286,1,0,1,2.4032,Andesite_rect,5,0,5,0,1,
628f827eeb876ed2617881e7,SCR,2024-06-25_12h48.17.111,LearnStrategy,2023.2.3,Linux x86_64,59.88023952,8,2,7,,,,,,,,7,08,,,,,,,,,,,,,7,1.877,1,,,,,,0.063796361,-0.411985477,1,0,1,1.8773,Peridotite_rect,6,0,6,0,1,
628f827eeb876ed2617881e7,SCR,2024-06-25_12h48.17.111,LearnStrategy,2023.2.3,Linux x86_64,59.88023952,8,2,8,,,,,,,,1,07,,,,,,,,,,,,,3,2.646,0,,,,,,0.148584684,-0.259985288,1,0,1,2.6464,Diorite_rect,7,0,7,0,1,
628f827eeb876ed2617881e7,SCR,2024-06-25_12h48.17.111,LearnStrategy,2023.2.3,Linux x86_64,59.88023952,8,2,9,,,,,,,,6,06,,,,,,,,,,,,,4,1.557,0,,,,,,0.352302313,-0.248656988,1,0,1,1.5569,Gabbro_rect,8,0,8,0,1,
628f827eeb876ed2617881e7,SCR,2024-06-25_12h48.17.111,LearnStrategy,2023.2.3,Linux x86_64,59.88023952,8,2,10,,,,,,,,8,06,,,,,,,,,,,,,8,0.999,1,,,,,,0.400727193,-0.4138755,1,0,1,0.999,Pumice_rect,9,0,9,0,1,
628f827eeb876ed2617881e7,SCR,2024-06-25_12h48.17.111,LearnStrategy,2023.2.3,Linux x86_64,59.88023952,8,2,11,,,,,,,,8,04,,,,,,,,,,,,,8,0.816,1,,,,,,0.392981291,-0.410020272,1,0,1,0.8159,Pumice_rect,10,0,10,0,1,
628f827eeb876ed2617881e7,SCR,2024-06-25_12h48.17.111,LearnStrategy,2023.2.3,Linux x86_64,59.88023952,8,2,12,,,,,,,,4,12,,,,,,,,,,,,,1,2.393,0,,,,,,-0.403304935,-0.247044166,1,0,1,2.3933,Andesite_rect,11,0,11,0,1,
628f827eeb876ed2617881e7,SCR,2024-06-25_12h48.17.111,LearnStrategy,2023.2.3,Linux x86_64,59.88023952,8,2,13,,,,,,,,5,09,,,,,,,,,,,,,5,1.204,1,,,,,,-0.343187888,-0.401102781,1,0,1,1.2035,Obsidian_rect,12,0,12,0,1,
628f827eeb876ed2617881e7,SCR,2024-06-25_12h48.17.111,LearnStrategy,2023.2.3,Linux x86_64,59.88023952,8,2,14,,,,,,,,5,14,,,,,,,,,,,,,5,2.561,1,,,,,,-0.319811384,-0.391843398,1,0,1,2.5607,Obsidian_rect,13,0,13,0,1,
628f827eeb876ed2617881e7,SCR,2024-06-25_12h48.17.111,LearnStrategy,2023.2.3,Linux x86_64,59.88023952,8,2,15,,,,,,,,2,04,,,,,,,,,,,,,2,1.852,1,,,,,,-0.067230304,-0.259153366,1,0,1,1.8524,Basalt_rect,14,0,14,0,1,
628f827eeb876ed2617881e7,SCR,2024-06-25_12h48.17.111,LearnStrategy,2023.2.3,Linux x86_64,59.88023952,8,2,16,,,,,,,,3,06,,,,,,,,,,,,,3,1.8,1,,,,,,0.154195547,-0.269461314,1,0,1,1.7999,Diorite_rect,15,0,15,0,1,
628f827eeb876ed2617881e7,SCR,2024-06-25_12h48.17.111,LearnStrategy,2023.2.3,Linux x86_64,59.88023952,9,1,1,-0.556008816,-0.266100009,1,0,1,1.2541,Gabbro_03,4,03,2,1,1.254,4,03,-0.467365464,-0.259095271,1,0,1,0.7942,Andesite_rect,1,0.794,0,0,0,0,0,1,,,,,,,,,,,,,
628f827eeb876ed2617881e7,SCR,2024-06-25_12h48.17.111,LearnStrategy,2023.2.3,Linux x86_64,59.88023952,9,1,2,0.090911547,0.237425009,1,0,1,0.9485,Pegmatite_11,6,11,5,5,0.948,6,11,-0.060702165,-0.417088906,1,0,1,2.4308,Pegmatite_rect,6,2.431,1,1,0,1,0,1,,,,,,,,,,,,,
628f827eeb876ed2617881e7,SCR,2024-06-25_12h48.17.111,LearnStrategy,2023.2.3,Linux x86_64,59.88023952,9,1,3,-0.372912963,-0.430535396,1,0,1,1.4478,Peridotite_05,7,05,1,2,1.448,7,05,0.101230303,-0.417225917,1,0,1,2.2914,Peridotite_rect,7,2.291,1,2,0,2,0,1,,,,,,,,,,,,,
628f827eeb876ed2617881e7,SCR,2024-06-25_12h48.17.111,LearnStrategy,2023.2.3,Linux x86_64,59.88023952,9,1,4,-0.253614148,-0.082549572,1,0,1,0.7974,Obsidian_12,5,12,3,3,0.797,5,12,-0.447570642,-0.398906072,1,0,1,1.7873,Obsidian_rect,5,1.787,1,3,0,3,0,1,,,,,,,,,,,,,
628f827eeb876ed2617881e7,SCR,2024-06-25_12h48.17.111,LearnStrategy,2023.2.3,Linux x86_64,59.88023952,9,1,5,0.376241287,-0.265908082,1,0,1,1.2806,Peridotite_16,7,16,2,7,1.281,7,16,0.376241287,-0.265908082,0,0,1,0.1164,Gabbro_rect,4,0.116,0,4,0,4,0,1,,,,,,,,,,,,,
628f827eeb876ed2617881e7,SCR,2024-06-25_12h48.17.111,LearnStrategy,2023.2.3,Linux x86_64,59.88023952,9,1,6,-0.578995287,-0.406294107,1,0,1,1.6154,Pegmatite_10,6,10,1,1,1.615,6,10,-0.125013351,-0.417108456,1,0,1,0.6591,Pegmatite_rect,6,0.659,1,5,0,5,0,1,,,,,,,,,,,,,
628f827eeb876ed2617881e7,SCR,2024-06-25_12h48.17.111,LearnStrategy,2023.2.3,Linux x86_64,59.88023952,9,1,7,0.536009471,-0.246817668,1,0,1,1.1797,Basalt_05,2,05,2,8,1.18,2,05,-0.142701626,-0.248144547,1,0,1,0.9662,Basalt_rect,2,0.966,1,6,0,6,0,1,,,,,,,,,,,,,
628f827eeb876ed2617881e7,SCR,2024-06-25_12h48.17.111,LearnStrategy,2023.2.3,Linux x86_64,59.88023952,9,1,8,-0.080586354,-0.28915151,1,0,1,1.1325,Diorite_08,3,08,2,4,1.132,3,08,-0.432063182,-0.254630725,1,0,1,1.7053,Andesite_rect,1,1.705,0,7,0,7,0,1,,,,,,,,,,,,,
628f827eeb876ed2617881e7,SCR,2024-06-25_12h48.17.111,LearnStrategy,2023.2.3,Linux x86_64,59.88023952,9,1,9,0.538244406,0.390487601,1,0,1,1.363,Pegmatite_15,6,15,6,8,1.363,6,15,-0.079918305,-0.41223375,1,0,1,1.7318,Pegmatite_rect,6,1.732,1,8,0,8,0,1,,,,,,,,,,,,,
628f827eeb876ed2617881e7,SCR,2024-06-25_12h48.17.111,LearnStrategy,2023.2.3,Linux x86_64,59.88023952,9,1,10,-0.603400071,-0.108729641,1,0,1,1.0199,Pegmatite_16,6,16,3,1,1.02,6,16,-0.076126258,-0.253488779,1,0,1,3.5584,Basalt_rect,2,3.558,0,9,0,9,0,1,,,,,,,,,,,,,
628f827eeb876ed2617881e7,SCR,2024-06-25_12h48.17.111,LearnStrategy,2023.2.3,Linux x86_64,59.88023952,9,1,11,0.443938017,-0.420458635,1,0,1,1.1296,Gabbro_09,4,09,1,7,1.13,4,09,-0.382298708,-0.229679346,0,0,1,1.1383,Andesite_rect,1,1.138,0,10,0,10,0,1,,,,,,,,,,,,,
628f827eeb876ed2617881e7,SCR,2024-06-25_12h48.17.111,LearnStrategy,2023.2.3,Linux x86_64,59.88023952,9,1,12,-0.40004615,-0.251285156,1,0,1,0.9973,Andesite_09,1,09,2,2,0.997,1,09,-0.40004615,-0.251285156,0,0,1,0.0775,Andesite_rect,1,0.077,1,11,0,11,0,1,,,,,,,,,,,,,
628f827eeb876ed2617881e7,SCR,2024-06-25_12h48.17.111,LearnStrategy,2023.2.3,Linux x86_64,59.88023952,9,1,13,-0.050967058,0.420918932,1,0,1,1.1129,Gabbro_01,4,01,6,4,1.113,4,01,0.196899652,-0.246986628,1,0,1,3.0526,Diorite_rect,3,3.053,0,12,0,12,0,1,,,,,,,,,,,,,
628f827eeb876ed2617881e7,SCR,2024-06-25_12h48.17.111,LearnStrategy,2023.2.3,Linux x86_64,59.88023952,9,1,14,0.603964647,0.238223732,1,0,1,0.866,Andesite_03,1,03,5,8,0.866,1,03,0.176701148,-0.236629486,0,0,1,0.9809,Diorite_rect,3,0.981,0,13,0,13,0,1,,,,,,,,,,,,,
628f827eeb876ed2617881e7,SCR,2024-06-25_12h48.17.111,LearnStrategy,2023.2.3,Linux x86_64,59.88023952,9,1,15,0.517211914,-0.232880116,1,0,1,0.996,Basalt_05,2,05,2,8,0.996,2,05,-0.059655428,-0.242144585,1,0,1,1.548,Basalt_rect,2,1.548,1,14,0,14,0,1,,,,,,,,,,,,,
628f827eeb876ed2617881e7,SCR,2024-06-25_12h48.17.111,LearnStrategy,2023.2.3,Linux x86_64,59.88023952,9,1,16,0.587249597,0.053896149,1,0,1,0.7475,Gabbro_15,4,15,4,8,0.748,4,15,0.211443106,-0.228283167,1,0,1,0.9002,Diorite_rect,3,0.9,0,15,0,15,0,1,,,,,,,,,,,,,
628f827eeb876ed2617881e7,SCR,2024-06-25_12h48.17.111,LearnStrategy,2023.2.3,Linux x86_64,59.88023952,9,2,1,,,,,,,,3,09,,,,,,,,,,,,,4,1.407,0,,,,,,0.369951725,-0.236393531,1,0,1,1.4069,Gabbro_rect,0,0,0,0,1,
628f827eeb876ed2617881e7,SCR,2024-06-25_12h48.17.111,LearnStrategy,2023.2.3,Linux x86_64,59.88023952,9,2,2,,,,,,,,4,16,,,,,,,,,,,,,4,1.834,1,,,,,,0.393686533,-0.258197546,1,0,1,1.8345,Gabbro_rect,1,0,1,0,1,
628f827eeb876ed2617881e7,SCR,2024-06-25_12h48.17.111,LearnStrategy,2023.2.3,Linux x86_64,59.88023952,9,2,3,,,,,,,,2,16,,,,,,,,,,,,,2,3.469,1,,,,,,-0.151508013,-0.252070904,1,0,1,3.469,Basalt_rect,2,0,2,0,1,
628f827eeb876ed2617881e7,SCR,2024-06-25_12h48.17.111,LearnStrategy,2023.2.3,Linux x86_64,59.88023952,9,2,4,,,,,,,,4,11,,,,,,,,,,,,,2,1.036,0,,,,,,-0.151650349,-0.265343269,1,0,1,1.0356,Basalt_rect,3,0,3,0,1,
628f827eeb876ed2617881e7,SCR,2024-06-25_12h48.17.111,LearnStrategy,2023.2.3,Linux x86_64,59.88023952,9,2,5,,,,,,,,1,10,,,,,,,,,,,,,3,3.582,0,,,,,,0.149143219,-0.244042238,1,0,1,3.5815,Diorite_rect,4,0,4,0,1,
628f827eeb876ed2617881e7,SCR,2024-06-25_12h48.17.111,LearnStrategy,2023.2.3,Linux x86_64,59.88023952,9,2,6,,,,,,,,8,16,,,,,,,,,,,,,8,1.14,1,,,,,,0.406608502,-0.413299163,1,0,1,1.1398,Pumice_rect,5,0,5,0,1,
628f827eeb876ed2617881e7,SCR,2024-06-25_12h48.17.111,LearnStrategy,2023.2.3,Linux x86_64,59.88023952,9,2,7,,,,,,,,3,15,,,,,,,,,,,,,3,4.649,1,,,,,,0.164065679,-0.271137794,1,0,1,4.6494,Diorite_rect,6,0,6,0,1,
628f827eeb876ed2617881e7,SCR,2024-06-25_12h48.17.111,LearnStrategy,2023.2.3,Linux x86_64,59.88023952,9,2,8,,,,,,,,2,12,,,,,,,,,,,,,8,1.299,0,,,,,,0.387881835,-0.419425408,1,0,1,1.2993,Pumice_rect,7,0,7,0,1,
628f827eeb876ed2617881e7,SCR,2024-06-25_12h48.17.111,LearnStrategy,2023.2.3,Linux x86_64,59.88023952,9,2,9,,,,,,,,7,13,,,,,,,,,,,,,6,5.614,0,,,,,,-0.08757027,-0.409066439,1,0,1,5.6143,Pegmatite_rect,8,0,8,0,1,
628f827eeb876ed2617881e7,SCR,2024-06-25_12h48.17.111,LearnStrategy,2023.2.3,Linux x86_64,59.88023952,9,2,10,,,,,,,,5,04,,,,,,,,,,,,,5,1.05,1,,,,,,-0.327147524,-0.382919868,1,0,1,1.05,Obsidian_rect,9,0,9,0,1,
628f827eeb876ed2617881e7,SCR,2024-06-25_12h48.17.111,LearnStrategy,2023.2.3,Linux x86_64,59.88023952,9,2,11,,,,,,,,7,10,,,,,,,,,,,,,7,2.109,1,,,,,,0.109014908,-0.421915849,0,0,1,2.1094,Peridotite_rect,10,0,10,0,1,
628f827eeb876ed2617881e7,SCR,2024-06-25_12h48.17.111,LearnStrategy,2023.2.3,Linux x86_64,59.88023952,9,2,12,,,,,,,,5,16,,,,,,,,,,,,,5,0.931,1,,,,,,-0.351385673,-0.402971903,1,0,1,0.931,Obsidian_rect,11,0,11,0,1,
628f827eeb876ed2617881e7,SCR,2024-06-25_12h48.17.111,LearnStrategy,2023.2.3,Linux x86_64,59.88023952,9,2,13,,,,,,,,6,12,,,,,,,,,,,,,6,4.802,1,,,,,,-0.13045311,-0.415706873,1,0,1,4.8016,Pegmatite_rect,12,0,12,0,1,
628f827eeb876ed2617881e7,SCR,2024-06-25_12h48.17.111,LearnStrategy,2023.2.3,Linux x86_64,59.88023952,9,2,14,,,,,,,,6,08,,,,,,,,,,,,,5,1.524,0,,,,,,-0.380159775,-0.397849957,1,0,1,1.5243,Obsidian_rect,13,0,13,0,1,
628f827eeb876ed2617881e7,SCR,2024-06-25_12h48.17.111,LearnStrategy,2023.2.3,Linux x86_64,59.88023952,9,2,15,,,,,,,,1,01,,,,,,,,,,,,,1,1.901,1,,,,,,-0.362911979,-0.24111255,1,0,1,1.9011,Andesite_rect,14,0,14,0,1,
628f827eeb876ed2617881e7,SCR,2024-06-25_12h48.17.111,LearnStrategy,2023.2.3,Linux x86_64,59.88023952,9,2,16,,,,,,,,8,13,,,,,,,,,,,,,2,2.467,0,,,,,,-0.057903449,-0.238894622,1,0,1,2.4673,Basalt_rect,15,0,15,0,1,
628f827eeb876ed2617881e7,SCR,2024-06-25_12h48.17.111,LearnStrategy,2023.2.3,Linux x86_64,59.88023952,,,,,,,,,,,,,,,,,,,,,,,,,,,,,,,,,,,,,,,,,,,,,0
628f827eeb876ed2617881e7,SCR,2024-06-25_12h48.17.111,LearnStrategy,2023.2.3,Linux x86_64,59.88023952,,,,,,,,,,,,,,,,,,,,,,,,,,,,,,,,,,,,,,,,,,,,,
628f827eeb876ed2617881e7,SCR,2024-06-25_12h48.17.111,LearnStrategy,2023.2.3,Linux x86_64,59.88023952,,,,,,,,,,,6,10,1,1,,,,,,,,,,,,,,,,,,,,,,,,,,,,,,,
628f827eeb876ed2617881e7,SCR,2024-06-25_12h48.17.111,LearnStrategy,2023.2.3,Linux x86_64,59.88023952,,,,,,,,,,,7,05,1,2,,,,,,,,,,,,,,,,,,,,,,,,,,,,,,,
628f827eeb876ed2617881e7,SCR,2024-06-25_12h48.17.111,LearnStrategy,2023.2.3,Linux x86_64,59.88023952,,,,,,,,,,,5,05,1,3,,,,,,,,,,,,,,,,,,,,,,,,,,,,,,,
628f827eeb876ed2617881e7,SCR,2024-06-25_12h48.17.111,LearnStrategy,2023.2.3,Linux x86_64,59.88023952,,,,,,,,,,,2,09,1,4,,,,,,,,,,,,,,,,,,,,,,,,,,,,,,,
628f827eeb876ed2617881e7,SCR,2024-06-25_12h48.17.111,LearnStrategy,2023.2.3,Linux x86_64,59.88023952,,,,,,,,,,,7,12,1,5,,,,,,,,,,,,,,,,,,,,,,,,,,,,,,,
628f827eeb876ed2617881e7,SCR,2024-06-25_12h48.17.111,LearnStrategy,2023.2.3,Linux x86_64,59.88023952,,,,,,,,,,,5,02,1,6,,,,,,,,,,,,,,,,,,,,,,,,,,,,,,,
628f827eeb876ed2617881e7,SCR,2024-06-25_12h48.17.111,LearnStrategy,2023.2.3,Linux x86_64,59.88023952,,,,,,,,,,,4,09,1,7,,,,,,,,,,,,,,,,,,,,,,,,,,,,,,,
628f827eeb876ed2617881e7,SCR,2024-06-25_12h48.17.111,LearnStrategy,2023.2.3,Linux x86_64,59.88023952,,,,,,,,,,,3,07,1,8,,,,,,,,,,,,,,,,,,,,,,,,,,,,,,,
628f827eeb876ed2617881e7,SCR,2024-06-25_12h48.17.111,LearnStrategy,2023.2.3,Linux x86_64,59.88023952,,,,,,,,,,,4,03,2,1,,,,,,,,,,,,,,,,,,,,,,,,,,,,,,,
628f827eeb876ed2617881e7,SCR,2024-06-25_12h48.17.111,LearnStrategy,2023.2.3,Linux x86_64,59.88023952,,,,,,,,,,,1,09,2,2,,,,,,,,,,,,,,,,,,,,,,,,,,,,,,,
628f827eeb876ed2617881e7,SCR,2024-06-25_12h48.17.111,LearnStrategy,2023.2.3,Linux x86_64,59.88023952,,,,,,,,,,,1,06,2,3,,,,,,,,,,,,,,,,,,,,,,,,,,,,,,,
628f827eeb876ed2617881e7,SCR,2024-06-25_12h48.17.111,LearnStrategy,2023.2.3,Linux x86_64,59.88023952,,,,,,,,,,,3,08,2,4,,,,,,,,,,,,,,,,,,,,,,,,,,,,,,,
628f827eeb876ed2617881e7,SCR,2024-06-25_12h48.17.111,LearnStrategy,2023.2.3,Linux x86_64,59.88023952,,,,,,,,,,,5,10,2,5,,,,,,,,,,,,,,,,,,,,,,,,,,,,,,,
628f827eeb876ed2617881e7,SCR,2024-06-25_12h48.17.111,LearnStrategy,2023.2.3,Linux x86_64,59.88023952,,,,,,,,,,,6,13,2,6,,,,,,,,,,,,,,,,,,,,,,,,,,,,,,,
628f827eeb876ed2617881e7,SCR,2024-06-25_12h48.17.111,LearnStrategy,2023.2.3,Linux x86_64,59.88023952,,,,,,,,,,,7,16,2,7,,,,,,,,,,,,,,,,,,,,,,,,,,,,,,,
628f827eeb876ed2617881e7,SCR,2024-06-25_12h48.17.111,LearnStrategy,2023.2.3,Linux x86_64,59.88023952,,,,,,,,,,,2,05,2,8,,,,,,,,,,,,,,,,,,,,,,,,,,,,,,,
628f827eeb876ed2617881e7,SCR,2024-06-25_12h48.17.111,LearnStrategy,2023.2.3,Linux x86_64,59.88023952,,,,,,,,,,,6,16,3,1,,,,,,,,,,,,,,,,,,,,,,,,,,,,,,,
628f827eeb876ed2617881e7,SCR,2024-06-25_12h48.17.111,LearnStrategy,2023.2.3,Linux x86_64,59.88023952,,,,,,,,,,,1,02,3,2,,,,,,,,,,,,,,,,,,,,,,,,,,,,,,,
628f827eeb876ed2617881e7,SCR,2024-06-25_12h48.17.111,LearnStrategy,2023.2.3,Linux x86_64,59.88023952,,,,,,,,,,,5,12,3,3,,,,,,,,,,,,,,,,,,,,,,,,,,,,,,,
628f827eeb876ed2617881e7,SCR,2024-06-25_12h48.17.111,LearnStrategy,2023.2.3,Linux x86_64,59.88023952,,,,,,,,,,,8,08,3,4,,,,,,,,,,,,,,,,,,,,,,,,,,,,,,,
628f827eeb876ed2617881e7,SCR,2024-06-25_12h48.17.111,LearnStrategy,2023.2.3,Linux x86_64,59.88023952,,,,,,,,,,,1,16,3,5,,,,,,,,,,,,,,,,,,,,,,,,,,,,,,,
628f827eeb876ed2617881e7,SCR,2024-06-25_12h48.17.111,LearnStrategy,2023.2.3,Linux x86_64,59.88023952,,,,,,,,,,,2,02,3,6,,,,,,,,,,,,,,,,,,,,,,,,,,,,,,,
628f827eeb876ed2617881e7,SCR,2024-06-25_12h48.17.111,LearnStrategy,2023.2.3,Linux x86_64,59.88023952,,,,,,,,,,,1,04,3,7,,,,,,,,,,,,,,,,,,,,,,,,,,,,,,,
628f827eeb876ed2617881e7,SCR,2024-06-25_12h48.17.111,LearnStrategy,2023.2.3,Linux x86_64,59.88023952,,,,,,,,,,,3,16,3,8,,,,,,,,,,,,,,,,,,,,,,,,,,,,,,,
628f827eeb876ed2617881e7,SCR,2024-06-25_12h48.17.111,LearnStrategy,2023.2.3,Linux x86_64,59.88023952,,,,,,,,,,,3,12,4,1,,,,,,,,,,,,,,,,,,,,,,,,,,,,,,,
628f827eeb876ed2617881e7,SCR,2024-06-25_12h48.17.111,LearnStrategy,2023.2.3,Linux x86_64,59.88023952,,,,,,,,,,,5,06,4,2,,,,,,,,,,,,,,,,,,,,,,,,,,,,,,,
628f827eeb876ed2617881e7,SCR,2024-06-25_12h48.17.111,LearnStrategy,2023.2.3,Linux x86_64,59.88023952,,,,,,,,,,,8,14,4,3,,,,,,,,,,,,,,,,,,,,,,,,,,,,,,,
628f827eeb876ed2617881e7,SCR,2024-06-25_12h48.17.111,LearnStrategy,2023.2.3,Linux x86_64,59.88023952,,,,,,,,,,,2,14,4,4,,,,,,,,,,,,,,,,,,,,,,,,,,,,,,,
628f827eeb876ed2617881e7,SCR,2024-06-25_12h48.17.111,LearnStrategy,2023.2.3,Linux x86_64,59.88023952,,,,,,,,,,,8,09,4,5,,,,,,,,,,,,,,,,,,,,,,,,,,,,,,,
628f827eeb876ed2617881e7,SCR,2024-06-25_12h48.17.111,LearnStrategy,2023.2.3,Linux x86_64,59.88023952,,,,,,,,,,,8,02,4,6,,,,,,,,,,,,,,,,,,,,,,,,,,,,,,,
628f827eeb876ed2617881e7,SCR,2024-06-25_12h48.17.111,LearnStrategy,2023.2.3,Linux x86_64,59.88023952,,,,,,,,,,,6,07,4,7,,,,,,,,,,,,,,,,,,,,,,,,,,,,,,,
628f827eeb876ed2617881e7,SCR,2024-06-25_12h48.17.111,LearnStrategy,2023.2.3,Linux x86_64,59.88023952,,,,,,,,,,,4,15,4,8,,,,,,,,,,,,,,,,,,,,,,,,,,,,,,,
628f827eeb876ed2617881e7,SCR,2024-06-25_12h48.17.111,LearnStrategy,2023.2.3,Linux x86_64,59.88023952,,,,,,,,,,,4,13,5,1,,,,,,,,,,,,,,,,,,,,,,,,,,,,,,,
628f827eeb876ed2617881e7,SCR,2024-06-25_12h48.17.111,LearnStrategy,2023.2.3,Linux x86_64,59.88023952,,,,,,,,,,,8,05,5,2,,,,,,,,,,,,,,,,,,,,,,,,,,,,,,,
628f827eeb876ed2617881e7,SCR,2024-06-25_12h48.17.111,LearnStrategy,2023.2.3,Linux x86_64,59.88023952,,,,,,,,,,,7,06,5,3,,,,,,,,,,,,,,,,,,,,,,,,,,,,,,,
628f827eeb876ed2617881e7,SCR,2024-06-25_12h48.17.111,LearnStrategy,2023.2.3,Linux x86_64,59.88023952,,,,,,,,,,,3,11,5,4,,,,,,,,,,,,,,,,,,,,,,,,,,,,,,,
628f827eeb876ed2617881e7,SCR,2024-06-25_12h48.17.111,LearnStrategy,2023.2.3,Linux x86_64,59.88023952,,,,,,,,,,,6,11,5,5,,,,,,,,,,,,,,,,,,,,,,,,,,,,,,,
628f827eeb876ed2617881e7,SCR,2024-06-25_12h48.17.111,LearnStrategy,2023.2.3,Linux x86_64,59.88023952,,,,,,,,,,,3,14,5,6,,,,,,,,,,,,,,,,,,,,,,,,,,,,,,,
628f827eeb876ed2617881e7,SCR,2024-06-25_12h48.17.111,LearnStrategy,2023.2.3,Linux x86_64,59.88023952,,,,,,,,,,,2,08,5,7,,,,,,,,,,,,,,,,,,,,,,,,,,,,,,,
628f827eeb876ed2617881e7,SCR,2024-06-25_12h48.17.111,LearnStrategy,2023.2.3,Linux x86_64,59.88023952,,,,,,,,,,,1,03,5,8,,,,,,,,,,,,,,,,,,,,,,,,,,,,,,,
628f827eeb876ed2617881e7,SCR,2024-06-25_12h48.17.111,LearnStrategy,2023.2.3,Linux x86_64,59.88023952,,,,,,,,,,,8,10,6,1,,,,,,,,,,,,,,,,,,,,,,,,,,,,,,,
628f827eeb876ed2617881e7,SCR,2024-06-25_12h48.17.111,LearnStrategy,2023.2.3,Linux x86_64,59.88023952,,,,,,,,,,,2,11,6,2,,,,,,,,,,,,,,,,,,,,,,,,,,,,,,,
628f827eeb876ed2617881e7,SCR,2024-06-25_12h48.17.111,LearnStrategy,2023.2.3,Linux x86_64,59.88023952,,,,,,,,,,,7,02,6,3,,,,,,,,,,,,,,,,,,,,,,,,,,,,,,,
628f827eeb876ed2617881e7,SCR,2024-06-25_12h48.17.111,LearnStrategy,2023.2.3,Linux x86_64,59.88023952,,,,,,,,,,,4,01,6,4,,,,,,,,,,,,,,,,,,,,,,,,,,,,,,,
628f827eeb876ed2617881e7,SCR,2024-06-25_12h48.17.111,LearnStrategy,2023.2.3,Linux x86_64,59.88023952,,,,,,,,,,,4,10,6,5,,,,,,,,,,,,,,,,,,,,,,,,,,,,,,,
628f827eeb876ed2617881e7,SCR,2024-06-25_12h48.17.111,LearnStrategy,2023.2.3,Linux x86_64,59.88023952,,,,,,,,,,,7,14,6,6,,,,,,,,,,,,,,,,,,,,,,,,,,,,,,,
628f827eeb876ed2617881e7,SCR,2024-06-25_12h48.17.111,LearnStrategy,2023.2.3,Linux x86_64,59.88023952,,,,,,,,,,,5,08,6,7,,,,,,,,,,,,,,,,,,,,,,,,,,,,,,,
628f827eeb876ed2617881e7,SCR,2024-06-25_12h48.17.111,LearnStrategy,2023.2.3,Linux x86_64,59.88023952,,,,,,,,,,,6,15,6,8,,,,,,,,,,,,,,,,,,,,,,,,,,,,,,,