participant,condition,date,expName,psychopyVersion,OS,frameRate,block,phase,trial,learn_mouse_2.x,learn_mouse_2.y,learn_mouse_2.leftButton,learn_mouse_2.midButton,learn_mouse_2.rightButton,learn_mouse_2.time,learn_mouse_2.clicked_name,cat,token,row,col,t_select,cat_mouse_l.x,cat_mouse_l.y,cat_mouse_l.leftButton,cat_mouse_l.midButton,cat_mouse_l.rightButton,cat_mouse_l.time,cat_mouse_l.clicked_name,resp,t_resp,corr,train_trials.thisRepN,train_trials.thisTrialN,train_trials.thisN,train_trials.thisIndex,train_trials.ran,cat_mouse_t.x,cat_mouse_t.y,cat_mouse_t.leftButton,cat_mouse_t.midButton,cat_mouse_t.rightButton,cat_mouse_t.time,cat_mouse_t.clicked_name,test_trials.thisRepN,test_trials.thisTrialN,test_trials.thisN,test_trials.thisIndex,test_trials.ran,Bonus
629642bfde2bf56c1ec2a420,TCN,2024-06-21_13h46.19.033,LearnStrategy,2023.2.3,Linux x86_64,59.88023952,,,,,,,,,,,,,,,,,,,,,,,,,,,,,,,,,,,,,,,,,,,
629642bfde2bf56c1ec2a420,TCN,2024-06-21_13h46.19.033,LearnStrategy,2023.2.3,Linux x86_64,59.88023952,1,1,1,0.01669371,-0.000730958,1,0,0,3.2419,rock_grid_rect_2,8,15,-1,-1,3.242,0.405726031,-0.398921846,1,0,0,6.2122,Pumice_rect,8,6.212,1,0,0,0,0,1,,,,,,,,,,,,,
629642bfde2bf56c1ec2a420,TCN,2024-06-21_13h46.19.033,LearnStrategy,2023.2.3,Linux x86_64,59.88023952,1,1,2,-0.036483742,0.001161224,1,0,0,2.3308,rock_grid_rect_2,6,11,-1,-1,2.331,-0.402666175,-0.411269066,1,0,0,7.938,Obsidian_rect,5,7.938,0,1,0,1,0,1,,,,,,,,,,,,,
629642bfde2bf56c1ec2a420,TCN,2024-06-21_13h46.19.033,LearnStrategy,2023.2.3,Linux x86_64,59.88023952,1,1,3,-0.029067467,-0.004981732,1,0,0,1.5611,rock_grid_rect_2,2,11,-1,-1,1.561,0.378724609,-0.387654409,1,0,0,1.6524,Pumice_rect,8,1.652,0,2,0,2,0,1,,,,,,,,,,,,,
629642bfde2bf56c1ec2a420,TCN,2024-06-21_13h46.19.033,LearnStrategy,2023.2.3,Linux x86_64,59.88023952,1,1,4,-0.02853874,0.000976746,1,0,0,1.7802,rock_grid_rect_2,7,10,-1,-1,1.78,0.091315091,-0.398760703,1,0,0,7.0762,Peridotite_rect,7,7.076,1,3,0,3,0,1,,,,,,,,,,,,,
629642bfde2bf56c1ec2a420,TCN,2024-06-21_13h46.19.033,LearnStrategy,2023.2.3,Linux x86_64,59.88023952,1,1,5,-0.019621293,0.007649206,1,0,0,1.603,rock_grid_rect_2,4,15,-1,-1,1.603,0.340067851,-0.243440459,1,0,0,4.013,Gabbro_rect,4,4.013,1,4,0,4,0,1,,,,,,,,,,,,,
629642bfde2bf56c1ec2a420,TCN,2024-06-21_13h46.19.033,LearnStrategy,2023.2.3,Linux x86_64,59.88023952,1,1,6,-0.021725679,-0.007015337,1,0,0,1.0468,rock_grid_rect_2,7,06,-1,-1,1.047,0.101064977,-0.411270897,1,0,0,2.4106,Peridotite_rect,7,2.411,1,5,0,5,0,1,,,,,,,,,,,,,
629642bfde2bf56c1ec2a420,TCN,2024-06-21_13h46.19.033,LearnStrategy,2023.2.3,Linux x86_64,59.88023952,1,1,7,-0.016950296,-0.003762218,1,0,0,1.3307,rock_grid_rect_2,5,06,-1,-1,1.331,-0.370163399,-0.392340298,1,0,0,2.6194,Obsidian_rect,5,2.619,1,6,0,6,0,1,,,,,,,,,,,,,
629642bfde2bf56c1ec2a420,TCN,2024-06-21_13h46.19.033,LearnStrategy,2023.2.3,Linux x86_64,59.88023952,1,1,8,0.003138323,0.001586045,1,0,0,1.2299,rock_grid_rect_2,1,03,-1,-1,1.23,-0.138387609,-0.257165225,1,0,0,2.1395,Basalt_rect,2,2.139,0,7,0,7,0,1,,,,,,,,,,,,,
629642bfde2bf56c1ec2a420,TCN,2024-06-21_13h46.19.033,LearnStrategy,2023.2.3,Linux x86_64,59.88023952,1,1,9,-0.054303537,-0.008863549,1,0,0,1.0962,rock_grid_rect_2,3,11,-1,-1,1.096,0.12674696,-0.265195146,1,0,0,2.9979,Diorite_rect,3,2.998,1,8,0,8,0,1,,,,,,,,,,,,,
629642bfde2bf56c1ec2a420,TCN,2024-06-21_13h46.19.033,LearnStrategy,2023.2.3,Linux x86_64,59.88023952,1,1,10,-0.035449804,-0.008888714,1,0,0,1.115,rock_grid_rect_2,3,16,-1,-1,1.115,0.074007643,-0.250029465,1,0,0,6.465,Diorite_rect,3,6.465,1,9,0,9,0,1,,,,,,,,,,,,,
629642bfde2bf56c1ec2a420,TCN,2024-06-21_13h46.19.033,LearnStrategy,2023.2.3,Linux x86_64,59.88023952,1,1,11,-0.027074536,0.001244403,1,0,0,1.2309,rock_grid_rect_2,4,16,-1,-1,1.231,0.371212618,-0.266883496,1,0,0,6.0781,Gabbro_rect,4,6.078,1,10,0,10,0,1,,,,,,,,,,,,,
629642bfde2bf56c1ec2a420,TCN,2024-06-21_13h46.19.033,LearnStrategy,2023.2.3,Linux x86_64,59.88023952,1,1,12,-0.02147376,0.00025805,1,0,0,1.3296,rock_grid_rect_2,5,14,-1,-1,1.33,-0.377968578,-0.413366315,1,0,0,1.3854,Obsidian_rect,5,1.385,1,11,0,11,0,1,,,,,,,,,,,,,
629642bfde2bf56c1ec2a420,TCN,2024-06-21_13h46.19.033,LearnStrategy,2023.2.3,Linux x86_64,59.88023952,1,1,13,-0.015621797,0.005849126,1,0,0,1.3483,rock_grid_rect_2,2,06,-1,-1,1.348,-0.377020017,-0.261289582,1,0,0,2.726,Andesite_rect,1,2.726,0,12,0,12,0,1,,,,,,,,,,,,,
629642bfde2bf56c1ec2a420,TCN,2024-06-21_13h46.19.033,LearnStrategy,2023.2.3,Linux x86_64,59.88023952,1,1,14,-0.055445269,0.003907623,1,0,0,1.4972,rock_grid_rect_2,8,16,-1,-1,1.497,0.354757741,-0.410637211,1,0,0,1.5607,Pumice_rect,8,1.561,1,13,0,13,0,1,,,,,,,,,,,,,
629642bfde2bf56c1ec2a420,TCN,2024-06-21_13h46.19.033,LearnStrategy,2023.2.3,Linux x86_64,59.88023952,1,1,15,-0.007576687,-0.012282616,1,0,0,1.1986,rock_grid_rect_2,1,14,-1,-1,1.199,0.129165947,-0.238925962,1,0,0,3.1781,Diorite_rect,3,3.178,0,14,0,14,0,1,,,,,,,,,,,,,
629642bfde2bf56c1ec2a420,TCN,2024-06-21_13h46.19.033,LearnStrategy,2023.2.3,Linux x86_64,59.88023952,1,1,16,-0.026278334,-0.005920181,1,0,0,1.0135,rock_grid_rect_2,6,12,-1,-1,1.014,0.124361922,-0.244214151,1,0,0,2.0927,Diorite_rect,3,2.093,0,15,0,15,0,1,,,,,,,,,,,,,
629642bfde2bf56c1ec2a420,TCN,2024-06-21_13h46.19.033,LearnStrategy,2023.2.3,Linux x86_64,59.88023952,1,2,1,,,,,,,,8,09,,,,,,,,,,,8,3.587,1,,,,,,0.409371486,-0.395770987,1,0,0,3.5868,Pumice_rect,0,0,0,0,1,
629642bfde2bf56c1ec2a420,TCN,2024-06-21_13h46.19.033,LearnStrategy,2023.2.3,Linux x86_64,59.88023952,1,2,2,,,,,,,,1,02,,,,,,,,,,,2,3.595,0,,,,,,-0.11193564,-0.252833834,1,0,0,3.5953,Basalt_rect,1,0,1,0,1,
629642bfde2bf56c1ec2a420,TCN,2024-06-21_13h46.19.033,LearnStrategy,2023.2.3,Linux x86_64,59.88023952,1,2,3,,,,,,,,5,04,,,,,,,,,,,5,1.406,1,,,,,,-0.418419879,-0.400739907,1,0,0,1.4064,Obsidian_rect,2,0,2,0,1,
629642bfde2bf56c1ec2a420,TCN,2024-06-21_13h46.19.033,LearnStrategy,2023.2.3,Linux x86_64,59.88023952,1,2,4,,,,,,,,7,12,,,,,,,,,,,7,3.29,1,,,,,,0.124460017,-0.384236898,1,0,0,3.2904,Peridotite_rect,3,0,3,0,1,
629642bfde2bf56c1ec2a420,TCN,2024-06-21_13h46.19.033,LearnStrategy,2023.2.3,Linux x86_64,59.88023952,1,2,5,,,,,,,,3,07,,,,,,,,,,,3,1.62,1,,,,,,0.110319718,-0.253512999,1,0,0,1.6204,Diorite_rect,4,0,4,0,1,
629642bfde2bf56c1ec2a420,TCN,2024-06-21_13h46.19.033,LearnStrategy,2023.2.3,Linux x86_64,59.88023952,1,2,6,,,,,,,,2,12,,,,,,,,,,,2,3.292,1,,,,,,-0.145953635,-0.251694938,1,0,0,3.2925,Basalt_rect,5,0,5,0,1,
629642bfde2bf56c1ec2a420,TCN,2024-06-21_13h46.19.033,LearnStrategy,2023.2.3,Linux x86_64,59.88023952,1,2,7,,,,,,,,5,16,,,,,,,,,,,5,2.02,1,,,,,,-0.41186981,-0.399158117,1,0,0,2.02,Obsidian_rect,6,0,6,0,1,
629642bfde2bf56c1ec2a420,TCN,2024-06-21_13h46.19.033,LearnStrategy,2023.2.3,Linux x86_64,59.88023952,1,2,8,,,,,,,,2,10,,,,,,,,,,,4,2.192,0,,,,,,0.348472767,-0.262450028,1,0,0,2.1924,Gabbro_rect,7,0,7,0,1,
629642bfde2bf56c1ec2a420,TCN,2024-06-21_13h46.19.033,LearnStrategy,2023.2.3,Linux x86_64,59.88023952,1,2,9,,,,,,,,4,10,,,,,,,,,,,1,2.734,0,,,,,,-0.406021644,-0.246813452,1,0,0,2.7345,Andesite_rect,8,0,8,0,1,
629642bfde2bf56c1ec2a420,TCN,2024-06-21_13h46.19.033,LearnStrategy,2023.2.3,Linux x86_64,59.88023952,1,2,10,,,,,,,,1,07,,,,,,,,,,,3,1.577,0,,,,,,0.136103549,-0.243608237,1,0,0,1.5771,Diorite_rect,9,0,9,0,1,
629642bfde2bf56c1ec2a420,TCN,2024-06-21_13h46.19.033,LearnStrategy,2023.2.3,Linux x86_64,59.88023952,1,2,11,,,,,,,,7,02,,,,,,,,,,,7,1.756,1,,,,,,0.137731092,-0.381142681,1,0,0,1.7556,Peridotite_rect,10,0,10,0,1,
629642bfde2bf56c1ec2a420,TCN,2024-06-21_13h46.19.033,LearnStrategy,2023.2.3,Linux x86_64,59.88023952,1,2,12,,,,,,,,6,08,,,,,,,,,,,6,2.01,1,,,,,,-0.091158614,-0.400824826,1,0,0,2.0097,Pegmatite_rect,11,0,11,0,1,
629642bfde2bf56c1ec2a420,TCN,2024-06-21_13h46.19.033,LearnStrategy,2023.2.3,Linux x86_64,59.88023952,1,2,13,,,,,,,,3,14,,,,,,,,,,,3,1.447,1,,,,,,0.114685333,-0.259898676,1,0,0,1.4466,Diorite_rect,12,0,12,0,1,
629642bfde2bf56c1ec2a420,TCN,2024-06-21_13h46.19.033,LearnStrategy,2023.2.3,Linux x86_64,59.88023952,1,2,14,,,,,,,,6,07,,,,,,,,,,,6,2.113,1,,,,,,-0.147401687,-0.406237372,1,0,0,2.1126,Pegmatite_rect,13,0,13,0,1,
629642bfde2bf56c1ec2a420,TCN,2024-06-21_13h46.19.033,LearnStrategy,2023.2.3,Linux x86_64,59.88023952,1,2,15,,,,,,,,8,06,,,,,,,,,,,8,1.438,1,,,,,,0.351909677,-0.400177963,1,0,0,1.4376,Pumice_rect,14,0,14,0,1,
629642bfde2bf56c1ec2a420,TCN,2024-06-21_13h46.19.033,LearnStrategy,2023.2.3,Linux x86_64,59.88023952,1,2,16,,,,,,,,4,05,,,,,,,,,,,4,1.848,1,,,,,,0.338138792,-0.248596832,1,0,0,1.8475,Gabbro_rect,15,0,15,0,1,
629642bfde2bf56c1ec2a420,TCN,2024-06-21_13h46.19.033,LearnStrategy,2023.2.3,Linux x86_64,59.88023952,2,1,1,0.002155447,-0.003556282,1,0,0,1.5461,rock_grid_rect_2,5,12,-1,-1,1.546,-0.367019722,-0.402966455,1,0,0,1.3782,Obsidian_rect,5,1.378,1,0,0,0,0,1,,,,,,,,,,,,,
629642bfde2bf56c1ec2a420,TCN,2024-06-21_13h46.19.033,LearnStrategy,2023.2.3,Linux x86_64,59.88023952,2,1,2,-0.001865827,-0.010244481,1,0,0,1.1477,rock_grid_rect_2,3,02,-1,-1,1.148,0.136048187,-0.241778098,1,0,0,1.8783,Diorite_rect,3,1.878,1,1,0,1,0,1,,,,,,,,,,,,,
629642bfde2bf56c1ec2a420,TCN,2024-06-21_13h46.19.033,LearnStrategy,2023.2.3,Linux x86_64,59.88023952,2,1,3,0.01884147,0.018537484,1,0,0,1.0149,rock_grid_rect_2,1,05,-1,-1,1.015,-0.421271877,-0.270982917,1,0,0,1.9566,Andesite_rect,1,1.957,1,2,0,2,0,1,,,,,,,,,,,,,
629642bfde2bf56c1ec2a420,TCN,2024-06-21_13h46.19.033,LearnStrategy,2023.2.3,Linux x86_64,59.88023952,2,1,4,-0.025237717,-0.010081095,1,0,0,0.8981,rock_grid_rect_2,7,07,-1,-1,0.898,0.150567783,-0.383591224,1,0,0,1.3798,Peridotite_rect,7,1.38,1,3,0,3,0,1,,,,,,,,,,,,,
629642bfde2bf56c1ec2a420,TCN,2024-06-21_13h46.19.033,LearnStrategy,2023.2.3,Linux x86_64,59.88023952,2,1,5,0.003684803,-0.019233898,1,0,0,1.6494,rock_grid_rect_2,7,16,-1,-1,1.649,0.086011163,-0.394534636,1,0,0,1.7867,Peridotite_rect,7,1.787,1,4,0,4,0,1,,,,,,,,,,,,,
629642bfde2bf56c1ec2a420,TCN,2024-06-21_13h46.19.033,LearnStrategy,2023.2.3,Linux x86_64,59.88023952,2,1,6,0.012299362,0.010364126,1,0,0,0.8814,rock_grid_rect_2,3,15,-1,-1,0.881,0.346178961,-0.250861538,1,0,0,3.4976,Gabbro_rect,4,3.498,0,5,0,5,0,1,,,,,,,,,,,,,
629642bfde2bf56c1ec2a420,TCN,2024-06-21_13h46.19.033,LearnStrategy,2023.2.3,Linux x86_64,59.88023952,2,1,7,-0.02932817,-0.008368085,1,0,0,1.1636,rock_grid_rect_2,1,04,-1,-1,1.164,-0.355184941,-0.252744294,1,0,0,2.6264,Andesite_rect,1,2.626,1,6,0,6,0,1,,,,,,,,,,,,,
629642bfde2bf56c1ec2a420,TCN,2024-06-21_13h46.19.033,LearnStrategy,2023.2.3,Linux x86_64,59.88023952,2,1,8,-0.019735311,-0.023765278,1,0,0,1.2474,rock_grid_rect_2,4,11,-1,-1,1.247,-0.113707123,-0.264367648,1,0,0,1.3391,Basalt_rect,2,1.339,0,7,0,7,0,1,,,,,,,,,,,,,
629642bfde2bf56c1ec2a420,TCN,2024-06-21_13h46.19.033,LearnStrategy,2023.2.3,Linux x86_64,59.88023952,2,1,9,0.009459992,0.020688035,1,0,0,1.3646,rock_grid_rect_2,2,04,-1,-1,1.365,0.394088356,-0.269873669,1,0,0,2.724,Gabbro_rect,4,2.724,0,8,0,8,0,1,,,,,,,,,,,,,
629642bfde2bf56c1ec2a420,TCN,2024-06-21_13h46.19.033,LearnStrategy,2023.2.3,Linux x86_64,59.88023952,2,1,10,-0.035778589,-0.017283656,1,0,0,1.0984,rock_grid_rect_2,6,15,-1,-1,1.098,-0.120047551,-0.4156668,1,0,0,2.1144,Pegmatite_rect,6,2.114,1,9,0,9,0,1,,,,,,,,,,,,,
629642bfde2bf56c1ec2a420,TCN,2024-06-21_13h46.19.033,LearnStrategy,2023.2.3,Linux x86_64,59.88023952,2,1,11,-0.01960473,-0.005915698,1,0,0,1.5145,rock_grid_rect_2,4,01,-1,-1,1.515,0.299398854,-0.228587138,1,0,0,2.6969,Gabbro_rect,4,2.697,1,10,0,10,0,1,,,,,,,,,,,,,
629642bfde2bf56c1ec2a420,TCN,2024-06-21_13h46.19.033,LearnStrategy,2023.2.3,Linux x86_64,59.88023952,2,1,12,-0.029455182,-0.003765787,1,0,0,0.9828,rock_grid_rect_2,8,10,-1,-1,0.983,0.352347813,-0.402972586,1,0,0,1.54,Pumice_rect,8,1.54,1,11,0,11,0,1,,,,,,,,,,,,,
629642bfde2bf56c1ec2a420,TCN,2024-06-21_13h46.19.033,LearnStrategy,2023.2.3,Linux x86_64,59.88023952,2,1,13,-0.041815305,0.009915056,1,0,0,1.165,rock_grid_rect_2,6,06,-1,-1,1.165,-0.098494637,-0.380402298,1,0,0,3.5955,Pegmatite_rect,6,3.596,1,12,0,12,0,1,,,,,,,,,,,,,
629642bfde2bf56c1ec2a420,TCN,2024-06-21_13h46.19.033,LearnStrategy,2023.2.3,Linux x86_64,59.88023952,2,1,14,0.002044998,0.00414339,1,0,0,1.0647,rock_grid_rect_2,8,05,-1,-1,1.065,0.383182097,-0.412701517,1,0,0,1.297,Pumice_rect,8,1.297,1,13,0,13,0,1,,,,,,,,,,,,,
629642bfde2bf56c1ec2a420,TCN,2024-06-21_13h46.19.033,LearnStrategy,2023.2.3,Linux x86_64,59.88023952,2,1,15,-0.018275774,-0.01013211,1,0,0,1.1482,rock_grid_rect_2,5,05,-1,-1,1.148,-0.400111849,-0.40961462,1,0,0,2.2245,Obsidian_rect,5,2.224,1,14,0,14,0,1,,,,,,,,,,,,,
629642bfde2bf56c1ec2a420,TCN,2024-06-21_13h46.19.033,LearnStrategy,2023.2.3,Linux x86_64,59.88023952,2,1,16,0.005802366,-0.013129879,1,0,0,0.8479,rock_grid_rect_2,2,14,-1,-1,0.848,0.374038079,-0.238804029,1,0,0,1.5071,Gabbro_rect,4,1.507,0,15,0,15,0,1,,,,,,,,,,,,,
629642bfde2bf56c1ec2a420,TCN,2024-06-21_13h46.19.033,LearnStrategy,2023.2.3,Linux x86_64,59.88023952,2,2,1,,,,,,,,3,06,,,,,,,,,,,3,1.361,1,,,,,,0.134910389,-0.252396339,1,0,0,1.3605,Diorite_rect,0,0,0,0,1,
629642bfde2bf56c1ec2a420,TCN,2024-06-21_13h46.19.033,LearnStrategy,2023.2.3,Linux x86_64,59.88023952,2,2,2,,,,,,,,1,16,,,,,,,,,,,1,2.278,1,,,,,,-0.359694314,-0.260192231,1,0,0,2.2782,Andesite_rect,1,0,1,0,1,
629642bfde2bf56c1ec2a420,TCN,2024-06-21_13h46.19.033,LearnStrategy,2023.2.3,Linux x86_64,59.88023952,2,2,3,,,,,,,,6,09,,,,,,,,,,,6,1.661,1,,,,,,-0.169039061,-0.402169338,1,0,0,1.6606,Pegmatite_rect,2,0,2,0,1,
629642bfde2bf56c1ec2a420,TCN,2024-06-21_13h46.19.033,LearnStrategy,2023.2.3,Linux x86_64,59.88023952,2,2,4,,,,,,,,2,02,,,,,,,,,,,2,2.158,1,,,,,,-0.148130906,-0.243164932,1,0,0,2.1575,Basalt_rect,3,0,3,0,1,
629642bfde2bf56c1ec2a420,TCN,2024-06-21_13h46.19.033,LearnStrategy,2023.2.3,Linux x86_64,59.88023952,2,2,5,,,,,,,,1,06,,,,,,,,,,,1,3.335,1,,,,,,-0.37498147,-0.25333058,1,0,0,3.3352,Andesite_rect,4,0,4,0,1,
629642bfde2bf56c1ec2a420,TCN,2024-06-21_13h46.19.033,LearnStrategy,2023.2.3,Linux x86_64,59.88023952,2,2,6,,,,,,,,7,05,,,,,,,,,,,7,1.456,1,,,,,,0.136539305,-0.40439918,1,0,0,1.4564,Peridotite_rect,5,0,5,0,1,
629642bfde2bf56c1ec2a420,TCN,2024-06-21_13h46.19.033,LearnStrategy,2023.2.3,Linux x86_64,59.88023952,2,2,7,,,,,,,,8,08,,,,,,,,,,,8,1.131,1,,,,,,0.419610751,-0.397960291,1,0,0,1.1305,Pumice_rect,6,0,6,0,1,
629642bfde2bf56c1ec2a420,TCN,2024-06-21_13h46.19.033,LearnStrategy,2023.2.3,Linux x86_64,59.88023952,2,2,8,,,,,,,,8,02,,,,,,,,,,,8,0.801,1,,,,,,0.419610751,-0.397960291,1,0,0,0.8007,Pumice_rect,7,0,7,0,1,
629642bfde2bf56c1ec2a420,TCN,2024-06-21_13h46.19.033,LearnStrategy,2023.2.3,Linux x86_64,59.88023952,2,2,9,,,,,,,,2,16,,,,,,,,,,,4,1.187,0,,,,,,0.401069698,-0.247787224,1,0,0,1.1871,Gabbro_rect,8,0,8,0,1,
629642bfde2bf56c1ec2a420,TCN,2024-06-21_13h46.19.033,LearnStrategy,2023.2.3,Linux x86_64,59.88023952,2,2,10,,,,,,,,7,13,,,,,,,,,,,7,1.127,1,,,,,,0.129097042,-0.41004635,1,0,0,1.127,Peridotite_rect,9,0,9,0,1,
629642bfde2bf56c1ec2a420,TCN,2024-06-21_13h46.19.033,LearnStrategy,2023.2.3,Linux x86_64,59.88023952,2,2,11,,,,,,,,4,12,,,,,,,,,,,4,3.474,1,,,,,,0.424339008,-0.245273619,1,0,0,3.474,Gabbro_rect,10,0,10,0,1,
629642bfde2bf56c1ec2a420,TCN,2024-06-21_13h46.19.033,LearnStrategy,2023.2.3,Linux x86_64,59.88023952,2,2,12,,,,,,,,5,10,,,,,,,,,,,5,1.248,1,,,,,,-0.411099733,-0.396816454,1,0,0,1.2483,Obsidian_rect,11,0,11,0,1,
629642bfde2bf56c1ec2a420,TCN,2024-06-21_13h46.19.033,LearnStrategy,2023.2.3,Linux x86_64,59.88023952,2,2,13,,,,,,,,5,09,,,,,,,,,,,5,0.69,1,,,,,,-0.411099733,-0.396816454,1,0,0,0.6901,Obsidian_rect,12,0,12,0,1,
629642bfde2bf56c1ec2a420,TCN,2024-06-21_13h46.19.033,LearnStrategy,2023.2.3,Linux x86_64,59.88023952,2,2,14,,,,,,,,6,03,,,,,,,,,,,6,2.954,1,,,,,,-0.116603319,-0.403747467,1,0,0,2.9545,Pegmatite_rect,13,0,13,0,1,
629642bfde2bf56c1ec2a420,TCN,2024-06-21_13h46.19.033,LearnStrategy,2023.2.3,Linux x86_64,59.88023952,2,2,15,,,,,,,,4,14,,,,,,,,,,,4,1.482,1,,,,,,0.367590863,-0.262188593,1,0,0,1.4816,Gabbro_rect,14,0,14,0,1,
629642bfde2bf56c1ec2a420,TCN,2024-06-21_13h46.19.033,LearnStrategy,2023.2.3,Linux x86_64,59.88023952,2,2,16,,,,,,,,3,12,,,,,,,,,,,3,1.188,1,,,,,,0.163963764,-0.251133222,1,0,0,1.1882,Diorite_rect,15,0,15,0,1,
629642bfde2bf56c1ec2a420,TCN,2024-06-21_13h46.19.033,LearnStrategy,2023.2.3,Linux x86_64,59.88023952,3,1,1,0.028141142,0.012017063,1,0,0,1.5612,rock_grid_rect_2,3,09,-1,-1,1.561,0.102144759,-0.229709654,1,0,0,1.6163,Diorite_rect,3,1.616,1,0,0,0,0,1,,,,,,,,,,,,,
629642bfde2bf56c1ec2a420,TCN,2024-06-21_13h46.19.033,LearnStrategy,2023.2.3,Linux x86_64,59.88023952,3,1,2,-0.036604806,-0.000706388,1,0,0,1.0319,rock_grid_rect_2,5,02,-1,-1,1.032,-0.343462119,-0.381186421,1,0,0,1.2208,Obsidian_rect,5,1.221,1,1,0,1,0,1,,,,,,,,,,,,,
629642bfde2bf56c1ec2a420,TCN,2024-06-21_13h46.19.033,LearnStrategy,2023.2.3,Linux x86_64,59.88023952,3,1,3,0.009582062,0.007415314,1,0,0,1.014,rock_grid_rect_2,4,03,-1,-1,1.014,-0.395139634,-0.253461801,1,0,0,3.6885,Andesite_rect,1,3.688,0,2,0,2,0,1,,,,,,,,,,,,,
629642bfde2bf56c1ec2a420,TCN,2024-06-21_13h46.19.033,LearnStrategy,2023.2.3,Linux x86_64,59.88023952,3,1,4,-0.028427833,-0.016654362,1,0,0,1.0308,rock_grid_rect_2,2,08,-1,-1,1.031,-0.164612091,-0.265507231,1,0,0,1.4107,Basalt_rect,2,1.411,1,3,0,3,0,1,,,,,,,,,,,,,
629642bfde2bf56c1ec2a420,TCN,2024-06-21_13h46.19.033,LearnStrategy,2023.2.3,Linux x86_64,59.88023952,3,1,5,-0.019493275,0.002763191,1,0,0,0.864,rock_grid_rect_2,8,03,-1,-1,0.864,0.345925121,-0.400510316,1,0,0,1.4042,Pumice_rect,8,1.404,1,4,0,4,0,1,,,,,,,,,,,,,
629642bfde2bf56c1ec2a420,TCN,2024-06-21_13h46.19.033,LearnStrategy,2023.2.3,Linux x86_64,59.88023952,3,1,6,-0.056503273,0.018692863,1,0,0,2.2313,rock_grid_rect_2,4,13,-1,-1,2.231,0.331312188,-0.240812287,1,0,0,4.0079,Gabbro_rect,4,4.008,1,5,0,5,0,1,,,,,,,,,,,,,
629642bfde2bf56c1ec2a420,TCN,2024-06-21_13h46.19.033,LearnStrategy,2023.2.3,Linux x86_64,59.88023952,3,1,7,-0.057140985,0.004191752,1,0,0,1.2306,rock_grid_rect_2,3,10,-1,-1,1.231,0.110978477,-0.228210861,1,0,0,1.1992,Diorite_rect,3,1.199,1,6,0,6,0,1,,,,,,,,,,,,,
629642bfde2bf56c1ec2a420,TCN,2024-06-21_13h46.19.033,LearnStrategy,2023.2.3,Linux x86_64,59.88023952,3,1,8,-0.002853096,0.014430285,1,0,0,0.9815,rock_grid_rect_2,5,11,-1,-1,0.982,-0.413605423,-0.413222832,1,0,0,1.176,Obsidian_rect,5,1.176,1,7,0,7,0,1,,,,,,,,,,,,,
629642bfde2bf56c1ec2a420,TCN,2024-06-21_13h46.19.033,LearnStrategy,2023.2.3,Linux x86_64,59.88023952,3,1,9,-0.020687807,0.017853149,1,0,0,0.8982,rock_grid_rect_2,6,16,-1,-1,0.898,-0.063775516,-0.409308438,1,0,0,1.3564,Pegmatite_rect,6,1.356,1,8,0,8,0,1,,,,,,,,,,,,,
629642bfde2bf56c1ec2a420,TCN,2024-06-21_13h46.19.033,LearnStrategy,2023.2.3,Linux x86_64,59.88023952,3,1,10,0.029118985,0.006336767,1,0,0,1.4482,rock_grid_rect_2,2,09,-1,-1,1.448,-0.114866974,-0.231325804,1,0,0,1.0578,Basalt_rect,2,1.058,1,9,0,9,0,1,,,,,,,,,,,,,
629642bfde2bf56c1ec2a420,TCN,2024-06-21_13h46.19.033,LearnStrategy,2023.2.3,Linux x86_64,59.88023952,3,1,11,-0.017081242,0.005238043,1,0,0,0.7479,rock_grid_rect_2,7,14,-1,-1,0.748,0.140752927,-0.39801126,1,0,0,3.3081,Peridotite_rect,7,3.308,1,10,0,10,0,1,,,,,,,,,,,,,
629642bfde2bf56c1ec2a420,TCN,2024-06-21_13h46.19.033,LearnStrategy,2023.2.3,Linux x86_64,59.88023952,3,1,12,-0.045037265,-0.010318098,1,0,0,0.9978,rock_grid_rect_2,6,10,-1,-1,0.998,-0.067203093,-0.399142744,1,0,0,1.9593,Pegmatite_rect,6,1.959,1,11,0,11,0,1,,,,,,,,,,,,,
629642bfde2bf56c1ec2a420,TCN,2024-06-21_13h46.19.033,LearnStrategy,2023.2.3,Linux x86_64,59.88023952,3,1,13,-0.017976455,-0.011171401,1,0,0,1.2479,rock_grid_rect_2,7,15,-1,-1,1.248,0.135577566,-0.395288196,1,0,0,1.2579,Peridotite_rect,7,1.258,1,12,0,12,0,1,,,,,,,,,,,,,
629642bfde2bf56c1ec2a420,TCN,2024-06-21_13h46.19.033,LearnStrategy,2023.2.3,Linux x86_64,59.88023952,3,1,14,-0.01157362,-0.013734603,1,0,0,1.0486,rock_grid_rect_2,8,14,-1,-1,1.049,0.364807861,-0.396097209,1,0,0,1.0853,Pumice_rect,8,1.085,1,13,0,13,0,1,,,,,,,,,,,,,
629642bfde2bf56c1ec2a420,TCN,2024-06-21_13h46.19.033,LearnStrategy,2023.2.3,Linux x86_64,59.88023952,3,1,15,-0.034210983,0.003242138,1,0,0,0.981,rock_grid_rect_2,1,11,-1,-1,0.981,-0.387360854,-0.238674684,1,0,0,1.9321,Andesite_rect,1,1.932,1,14,0,14,0,1,,,,,,,,,,,,,
629642bfde2bf56c1ec2a420,TCN,2024-06-21_13h46.19.033,LearnStrategy,2023.2.3,Linux x86_64,59.88023952,3,1,16,-0.005774548,0.001322367,1,0,0,0.8964,rock_grid_rect_2,1,10,-1,-1,0.896,-0.345398178,-0.25880837,1,0,0,3.4435,Andesite_rect,1,3.444,1,15,0,15,0,1,,,,,,,,,,,,,
629642bfde2bf56c1ec2a420,TCN,2024-06-21_13h46.19.033,LearnStrategy,2023.2.3,Linux x86_64,59.88023952,3,2,1,,,,,,,,5,08,,,,,,,,,,,5,0.913,1,,,,,,-0.374228184,-0.390997525,1,0,0,0.9133,Obsidian_rect,0,0,0,0,1,
629642bfde2bf56c1ec2a420,TCN,2024-06-21_13h46.19.033,LearnStrategy,2023.2.3,Linux x86_64,59.88023952,3,2,2,,,,,,,,3,08,,,,,,,,,,,3,2.054,1,,,,,,0.124459011,-0.261646917,1,0,0,2.0544,Diorite_rect,1,0,1,0,1,
629642bfde2bf56c1ec2a420,TCN,2024-06-21_13h46.19.033,LearnStrategy,2023.2.3,Linux x86_64,59.88023952,3,2,3,,,,,,,,6,05,,,,,,,,,,,6,1.353,1,,,,,,-0.094379934,-0.405956446,1,0,0,1.3529,Pegmatite_rect,2,0,2,0,1,
629642bfde2bf56c1ec2a420,TCN,2024-06-21_13h46.19.033,LearnStrategy,2023.2.3,Linux x86_64,59.88023952,3,2,4,,,,,,,,4,09,,,,,,,,,,,4,2.98,1,,,,,,0.392775597,-0.242130262,1,0,0,2.9796,Gabbro_rect,3,0,3,0,1,
629642bfde2bf56c1ec2a420,TCN,2024-06-21_13h46.19.033,LearnStrategy,2023.2.3,Linux x86_64,59.88023952,3,2,5,,,,,,,,3,13,,,,,,,,,,,3,1.634,1,,,,,,0.145277855,-0.239855811,1,0,0,1.6338,Diorite_rect,4,0,4,0,1,
629642bfde2bf56c1ec2a420,TCN,2024-06-21_13h46.19.033,LearnStrategy,2023.2.3,Linux x86_64,59.88023952,3,2,6,,,,,,,,7,08,,,,,,,,,,,7,1.229,1,,,,,,0.132348468,-0.409450274,1,0,0,1.2286,Peridotite_rect,5,0,5,0,1,
629642bfde2bf56c1ec2a420,TCN,2024-06-21_13h46.19.033,LearnStrategy,2023.2.3,Linux x86_64,59.88023952,3,2,7,,,,,,,,7,04,,,,,,,,,,,3,3.861,0,,,,,,0.117102032,-0.246898783,1,0,0,3.8606,Diorite_rect,6,0,6,0,1,
629642bfde2bf56c1ec2a420,TCN,2024-06-21_13h46.19.033,LearnStrategy,2023.2.3,Linux x86_64,59.88023952,3,2,8,,,,,,,,6,13,,,,,,,,,,,6,2.306,1,,,,,,-0.107008812,-0.415117575,1,0,0,2.3065,Pegmatite_rect,7,0,7,0,1,
629642bfde2bf56c1ec2a420,TCN,2024-06-21_13h46.19.033,LearnStrategy,2023.2.3,Linux x86_64,59.88023952,3,2,9,,,,,,,,1,01,,,,,,,,,,,3,2.511,0,,,,,,0.161351697,-0.260619156,1,0,0,2.5112,Diorite_rect,8,0,8,0,1,
629642bfde2bf56c1ec2a420,TCN,2024-06-21_13h46.19.033,LearnStrategy,2023.2.3,Linux x86_64,59.88023952,3,2,10,,,,,,,,1,09,,,,,,,,,,,2,1.174,0,,,,,,-0.103624793,-0.252436602,1,0,0,1.1738,Basalt_rect,9,0,9,0,1,
629642bfde2bf56c1ec2a420,TCN,2024-06-21_13h46.19.033,LearnStrategy,2023.2.3,Linux x86_64,59.88023952,3,2,11,,,,,,,,2,01,,,,,,,,,,,2,0.974,1,,,,,,-0.103624793,-0.252436602,1,0,0,0.9744,Basalt_rect,10,0,10,0,1,
629642bfde2bf56c1ec2a420,TCN,2024-06-21_13h46.19.033,LearnStrategy,2023.2.3,Linux x86_64,59.88023952,3,2,12,,,,,,,,8,13,,,,,,,,,,,8,1.561,1,,,,,,0.344499808,-0.391603118,1,0,0,1.5606,Pumice_rect,11,0,11,0,1,
629642bfde2bf56c1ec2a420,TCN,2024-06-21_13h46.19.033,LearnStrategy,2023.2.3,Linux x86_64,59.88023952,3,2,13,,,,,,,,4,08,,,,,,,,,,,1,4.261,0,,,,,,-0.42121432,-0.260119482,1,0,0,4.2607,Andesite_rect,12,0,12,0,1,
629642bfde2bf56c1ec2a420,TCN,2024-06-21_13h46.19.033,LearnStrategy,2023.2.3,Linux x86_64,59.88023952,3,2,14,,,,,,,,2,05,,,,,,,,,,,2,2.401,1,,,,,,-0.130191466,-0.265163759,1,0,0,2.4006,Basalt_rect,13,0,13,0,1,
629642bfde2bf56c1ec2a420,TCN,2024-06-21_13h46.19.033,LearnStrategy,2023.2.3,Linux x86_64,59.88023952,3,2,15,,,,,,,,8,04,,,,,,,,,,,8,1.88,1,,,,,,0.383112094,-0.403885277,1,0,0,1.8805,Pumice_rect,14,0,14,0,1,
629642bfde2bf56c1ec2a420,TCN,2024-06-21_13h46.19.033,LearnStrategy,2023.2.3,Linux x86_64,59.88023952,3,2,16,,,,,,,,5,07,,,,,,,,,,,5,2.853,1,,,,,,-0.400519604,-0.388303925,1,0,0,2.8534,Obsidian_rect,15,0,15,0,1,
629642bfde2bf56c1ec2a420,TCN,2024-06-21_13h46.19.033,LearnStrategy,2023.2.3,Linux x86_64,59.88023952,4,1,1,-0.043876408,-0.001386148,1,0,0,1.448,rock_grid_rect_2,2,04,-1,-1,1.448,-0.107356264,-0.250810889,1,0,0,1.4923,Basalt_rect,2,1.492,1,0,0,0,0,1,,,,,,,,,,,,,
629642bfde2bf56c1ec2a420,TCN,2024-06-21_13h46.19.033,LearnStrategy,2023.2.3,Linux x86_64,59.88023952,4,1,2,-0.021762007,0.004842458,1,0,0,0.8476,rock_grid_rect_2,3,09,-1,-1,0.848,0.144924822,-0.238178076,1,0,0,1.2181,Diorite_rect,3,1.218,1,1,0,1,0,1,,,,,,,,,,,,,
629642bfde2bf56c1ec2a420,TCN,2024-06-21_13h46.19.033,LearnStrategy,2023.2.3,Linux x86_64,59.88023952,4,1,3,-0.036450891,-0.000353034,1,0,0,1.2652,rock_grid_rect_2,8,15,-1,-1,1.265,0.362285197,-0.408543256,1,0,0,1.7447,Pumice_rect,8,1.745,1,2,0,2,0,1,,,,,,,,,,,,,
629642bfde2bf56c1ec2a420,TCN,2024-06-21_13h46.19.033,LearnStrategy,2023.2.3,Linux x86_64,59.88023952,4,1,4,-0.082756534,-0.015400396,1,0,0,0.9146,rock_grid_rect_2,6,11,-1,-1,0.915,-0.164103541,-0.413641476,1,0,0,1.8184,Pegmatite_rect,6,1.818,1,3,0,3,0,1,,,,,,,,,,,,,
629642bfde2bf56c1ec2a420,TCN,2024-06-21_13h46.19.033,LearnStrategy,2023.2.3,Linux x86_64,59.88023952,4,1,5,0.016794093,0.020032663,1,0,0,0.8315,rock_grid_rect_2,4,15,-1,-1,0.832,0.138822953,-0.242115392,1,0,0,1.3356,Diorite_rect,3,1.336,0,4,0,4,0,1,,,,,,,,,,,,,
629642bfde2bf56c1ec2a420,TCN,2024-06-21_13h46.19.033,LearnStrategy,2023.2.3,Linux x86_64,59.88023952,4,1,6,-0.014493516,-0.000592462,1,0,0,0.9603,rock_grid_rect_2,8,03,-1,-1,0.96,0.305526436,-0.395651661,1,0,0,1.1611,Pumice_rect,8,1.161,1,5,0,5,0,1,,,,,,,,,,,,,
629642bfde2bf56c1ec2a420,TCN,2024-06-21_13h46.19.033,LearnStrategy,2023.2.3,Linux x86_64,59.88023952,4,1,7,0.014649078,-0.013172064,1,0,0,0.8643,rock_grid_rect_2,1,04,-1,-1,0.864,0.099237857,-0.255070402,1,0,0,1.683,Diorite_rect,3,1.683,0,6,0,6,0,1,,,,,,,,,,,,,
629642bfde2bf56c1ec2a420,TCN,2024-06-21_13h46.19.033,LearnStrategy,2023.2.3,Linux x86_64,59.88023952,4,1,8,-0.015262449,0.007878294,1,0,0,1.1476,rock_grid_rect_2,5,11,-1,-1,1.148,-0.336332078,-0.399794366,1,0,0,1.2744,Obsidian_rect,5,1.274,1,7,0,7,0,1,,,,,,,,,,,,,
629642bfde2bf56c1ec2a420,TCN,2024-06-21_13h46.19.033,LearnStrategy,2023.2.3,Linux x86_64,59.88023952,4,1,9,0.028106003,-0.019751965,1,0,0,1.0979,rock_grid_rect_2,2,14,-1,-1,1.098,0.374997255,-0.239098407,1,0,0,1.3472,Gabbro_rect,4,1.347,0,8,0,8,0,1,,,,,,,,,,,,,
629642bfde2bf56c1ec2a420,TCN,2024-06-21_13h46.19.033,LearnStrategy,2023.2.3,Linux x86_64,59.88023952,4,1,10,0.005196407,-0.011583182,1,0,0,1.0136,rock_grid_rect_2,4,16,-1,-1,1.014,0.352764078,-0.232691592,1,0,0,1.3634,Gabbro_rect,4,1.363,1,9,0,9,0,1,,,,,,,,,,,,,
629642bfde2bf56c1ec2a420,TCN,2024-06-21_13h46.19.033,LearnStrategy,2023.2.3,Linux x86_64,59.88023952,4,1,11,-0.011043245,-0.007737327,1,0,0,1.5317,rock_grid_rect_2,3,16,-1,-1,1.532,0.101074036,-0.23472291,1,0,0,1.1958,Diorite_rect,3,1.196,1,10,0,10,0,1,,,,,,,,,,,,,
629642bfde2bf56c1ec2a420,TCN,2024-06-21_13h46.19.033,LearnStrategy,2023.2.3,Linux x86_64,59.88023952,4,1,12,-0.012545241,0.015096867,1,0,0,1.0164,rock_grid_rect_2,6,12,-1,-1,1.016,-0.072159385,-0.384101376,1,0,0,3.8144,Pegmatite_rect,6,3.814,1,11,0,11,0,1,,,,,,,,,,,,,
629642bfde2bf56c1ec2a420,TCN,2024-06-21_13h46.19.033,LearnStrategy,2023.2.3,Linux x86_64,59.88023952,4,1,13,-0.090175005,-0.009002411,1,0,0,0.9639,rock_grid_rect_2,5,05,-1,-1,0.964,-0.380197276,-0.410875312,1,0,0,1.5344,Obsidian_rect,5,1.534,1,12,0,12,0,1,,,,,,,,,,,,,
629642bfde2bf56c1ec2a420,TCN,2024-06-21_13h46.19.033,LearnStrategy,2023.2.3,Linux x86_64,59.88023952,4,1,14,0.002898209,0.01470929,1,0,0,0.8814,rock_grid_rect_2,7,14,-1,-1,0.881,0.125304901,-0.388239505,1,0,0,2.683,Peridotite_rect,7,2.683,1,13,0,13,0,1,,,,,,,,,,,,,
629642bfde2bf56c1ec2a420,TCN,2024-06-21_13h46.19.033,LearnStrategy,2023.2.3,Linux x86_64,59.88023952,4,1,15,-0.052008084,0.002269236,1,0,0,1.0145,rock_grid_rect_2,1,05,-1,-1,1.014,-0.322281684,-0.245215741,1,0,0,2.2831,Andesite_rect,1,2.283,1,14,0,14,0,1,,,,,,,,,,,,,
629642bfde2bf56c1ec2a420,TCN,2024-06-21_13h46.19.033,LearnStrategy,2023.2.3,Linux x86_64,59.88023952,4,1,16,-0.01235271,-0.009080787,1,0,0,1.1302,rock_grid_rect_2,7,06,-1,-1,1.13,0.12959667,-0.383668914,1,0,0,1.8101,Peridotite_rect,7,1.81,1,15,0,15,0,1,,,,,,,,,,,,,
629642bfde2bf56c1ec2a420,TCN,2024-06-21_13h46.19.033,LearnStrategy,2023.2.3,Linux x86_64,59.88023952,4,2,1,,,,,,,,6,03,,,,,,,,,,,6,1.7,1,,,,,,-0.064524409,-0.405254496,1,0,0,1.7,Pegmatite_rect,0,0,0,0,1,
629642bfde2bf56c1ec2a420,TCN,2024-06-21_13h46.19.033,LearnStrategy,2023.2.3,Linux x86_64,59.88023952,4,2,2,,,,,,,,4,08,,,,,,,,,,,1,2.358,0,,,,,,-0.384242617,-0.23291734,1,0,0,2.3577,Andesite_rect,1,0,1,0,1,
629642bfde2bf56c1ec2a420,TCN,2024-06-21_13h46.19.033,LearnStrategy,2023.2.3,Linux x86_64,59.88023952,4,2,3,,,,,,,,5,09,,,,,,,,,,,5,1.199,1,,,,,,-0.371815923,-0.380944568,1,0,0,1.199,Obsidian_rect,2,0,2,0,1,
629642bfde2bf56c1ec2a420,TCN,2024-06-21_13h46.19.033,LearnStrategy,2023.2.3,Linux x86_64,59.88023952,4,2,4,,,,,,,,3,08,,,,,,,,,,,3,1.147,1,,,,,,0.161861208,-0.234219941,1,0,0,1.1473,Diorite_rect,3,0,3,0,1,
629642bfde2bf56c1ec2a420,TCN,2024-06-21_13h46.19.033,LearnStrategy,2023.2.3,Linux x86_64,59.88023952,4,2,5,,,,,,,,1,07,,,,,,,,,,,3,0.781,0,,,,,,0.161861208,-0.234219941,1,0,0,0.7814,Diorite_rect,4,0,4,0,1,
629642bfde2bf56c1ec2a420,TCN,2024-06-21_13h46.19.033,LearnStrategy,2023.2.3,Linux x86_64,59.88023952,4,2,6,,,,,,,,7,05,,,,,,,,,,,7,1.468,1,,,,,,0.185070673,-0.418633365,1,0,0,1.4676,Peridotite_rect,5,0,5,0,1,
629642bfde2bf56c1ec2a420,TCN,2024-06-21_13h46.19.033,LearnStrategy,2023.2.3,Linux x86_64,59.88023952,4,2,7,,,,,,,,6,13,,,,,,,,,,,6,1.301,1,,,,,,-0.092038911,-0.416524129,1,0,0,1.3009,Pegmatite_rect,6,0,6,0,1,
629642bfde2bf56c1ec2a420,TCN,2024-06-21_13h46.19.033,LearnStrategy,2023.2.3,Linux x86_64,59.88023952,4,2,8,,,,,,,,8,08,,,,,,,,,,,8,1.074,1,,,,,,0.39911639,-0.390812955,1,0,0,1.0745,Pumice_rect,7,0,7,0,1,
629642bfde2bf56c1ec2a420,TCN,2024-06-21_13h46.19.033,LearnStrategy,2023.2.3,Linux x86_64,59.88023952,4,2,9,,,,,,,,5,08,,,,,,,,,,,5,1.111,1,,,,,,-0.374637907,-0.386619831,1,0,0,1.1108,Obsidian_rect,8,0,8,0,1,
629642bfde2bf56c1ec2a420,TCN,2024-06-21_13h46.19.033,LearnStrategy,2023.2.3,Linux x86_64,59.88023952,4,2,10,,,,,,,,2,02,,,,,,,,,,,2,1.213,1,,,,,,-0.167339731,-0.264883153,1,0,0,1.2134,Basalt_rect,9,0,9,0,1,
629642bfde2bf56c1ec2a420,TCN,2024-06-21_13h46.19.033,LearnStrategy,2023.2.3,Linux x86_64,59.88023952,4,2,11,,,,,,,,7,04,,,,,,,,,,,7,3.539,1,,,,,,0.051938996,-0.407407197,1,0,0,3.5393,Peridotite_rect,10,0,10,0,1,
629642bfde2bf56c1ec2a420,TCN,2024-06-21_13h46.19.033,LearnStrategy,2023.2.3,Linux x86_64,59.88023952,4,2,12,,,,,,,,3,07,,,,,,,,,,,3,1.142,1,,,,,,0.072215479,-0.254320319,1,0,0,1.1418,Diorite_rect,11,0,11,0,1,
629642bfde2bf56c1ec2a420,TCN,2024-06-21_13h46.19.033,LearnStrategy,2023.2.3,Linux x86_64,59.88023952,4,2,13,,,,,,,,2,16,,,,,,,,,,,4,2.032,0,,,,,,0.336936116,-0.234804946,1,0,0,2.0317,Gabbro_rect,12,0,12,0,1,
629642bfde2bf56c1ec2a420,TCN,2024-06-21_13h46.19.033,LearnStrategy,2023.2.3,Linux x86_64,59.88023952,4,2,14,,,,,,,,4,09,,,,,,,,,,,1,2.763,0,,,,,,-0.327147705,-0.253385209,1,0,0,2.7625,Andesite_rect,13,0,13,0,1,
629642bfde2bf56c1ec2a420,TCN,2024-06-21_13h46.19.033,LearnStrategy,2023.2.3,Linux x86_64,59.88023952,4,2,15,,,,,,,,1,06,,,,,,,,,,,1,1.272,1,,,,,,-0.464542189,-0.248603375,1,0,0,1.2716,Andesite_rect,14,0,14,0,1,
629642bfde2bf56c1ec2a420,TCN,2024-06-21_13h46.19.033,LearnStrategy,2023.2.3,Linux x86_64,59.88023952,4,2,16,,,,,,,,8,09,,,,,,,,,,,8,1.185,1,,,,,,0.398486914,-0.39762446,1,0,0,1.1855,Pumice_rect,15,0,15,0,1,
629642bfde2bf56c1ec2a420,TCN,2024-06-21_13h46.19.033,LearnStrategy,2023.2.3,Linux x86_64,59.88023952,5,1,1,0.012922982,-0.014735278,1,0,0,1.1781,rock_grid_rect_2,4,03,-1,-1,1.178,-0.343577875,-0.254586055,1,0,0,2.2664,Andesite_rect,1,2.266,0,0,0,0,0,1,,,,,,,,,,,,,
629642bfde2bf56c1ec2a420,TCN,2024-06-21_13h46.19.033,LearnStrategy,2023.2.3,Linux x86_64,59.88023952,5,1,2,-0.022386542,0.012761884,1,0,0,0.9482,rock_grid_rect_2,1,14,-1,-1,0.948,-0.39735273,-0.261730417,1,0,0,2.3134,Andesite_rect,1,2.313,1,1,0,1,0,1,,,,,,,,,,,,,
629642bfde2bf56c1ec2a420,TCN,2024-06-21_13h46.19.033,LearnStrategy,2023.2.3,Linux x86_64,59.88023952,5,1,3,-0.015117777,-0.008884184,1,0,0,0.8982,rock_grid_rect_2,6,16,-1,-1,0.898,-0.125023426,-0.380963967,1,0,0,1.1175,Pegmatite_rect,6,1.118,1,2,0,2,0,1,,,,,,,,,,,,,
629642bfde2bf56c1ec2a420,TCN,2024-06-21_13h46.19.033,LearnStrategy,2023.2.3,Linux x86_64,59.88023952,5,1,4,-0.019525851,0.019393257,1,0,0,0.8476,rock_grid_rect_2,7,15,-1,-1,0.848,0.145474504,-0.404633987,1,0,0,2.012,Peridotite_rect,7,2.012,1,3,0,3,0,1,,,,,,,,,,,,,
629642bfde2bf56c1ec2a420,TCN,2024-06-21_13h46.19.033,LearnStrategy,2023.2.3,Linux x86_64,59.88023952,5,1,5,-0.022811867,0.013452853,1,0,0,0.7812,rock_grid_rect_2,7,10,-1,-1,0.781,0.1554764,-0.389417474,1,0,0,1.2031,Peridotite_rect,7,1.203,1,4,0,4,0,1,,,,,,,,,,,,,
629642bfde2bf56c1ec2a420,TCN,2024-06-21_13h46.19.033,LearnStrategy,2023.2.3,Linux x86_64,59.88023952,5,1,6,-0.004040765,0.009835674,1,0,0,0.9808,rock_grid_rect_2,3,10,-1,-1,0.981,0.347981832,-0.244458429,1,0,0,2.3171,Gabbro_rect,4,2.317,0,5,0,5,0,1,,,,,,,,,,,,,
629642bfde2bf56c1ec2a420,TCN,2024-06-21_13h46.19.033,LearnStrategy,2023.2.3,Linux x86_64,59.88023952,5,1,7,-0.033707969,-0.002411621,1,0,0,1.4487,rock_grid_rect_2,3,15,-1,-1,1.449,0.110367485,-0.255456058,1,0,0,1.3513,Diorite_rect,3,1.351,1,6,0,6,0,1,,,,,,,,,,,,,
629642bfde2bf56c1ec2a420,TCN,2024-06-21_13h46.19.033,LearnStrategy,2023.2.3,Linux x86_64,59.88023952,5,1,8,-0.028682589,-0.021031461,1,0,0,0.8317,rock_grid_rect_2,5,06,-1,-1,0.832,-0.338823905,-0.410389867,1,0,0,0.9769,Obsidian_rect,5,0.977,1,7,0,7,0,1,,,,,,,,,,,,,
629642bfde2bf56c1ec2a420,TCN,2024-06-21_13h46.19.033,LearnStrategy,2023.2.3,Linux x86_64,59.88023952,5,1,9,-0.018082969,0.015562501,1,0,0,0.8305,rock_grid_rect_2,6,15,-1,-1,0.831,-0.098217554,-0.388240237,1,0,0,2.2045,Pegmatite_rect,6,2.205,1,8,0,8,0,1,,,,,,,,,,,,,
629642bfde2bf56c1ec2a420,TCN,2024-06-21_13h46.19.033,LearnStrategy,2023.2.3,Linux x86_64,59.88023952,5,1,10,0.038739938,-0.007595766,1,0,0,1.815,rock_grid_rect_2,2,08,-1,-1,1.815,-0.110328686,-0.23620212,1,0,0,1.2409,Basalt_rect,2,1.241,1,9,0,9,0,1,,,,,,,,,,,,,
629642bfde2bf56c1ec2a420,TCN,2024-06-21_13h46.19.033,LearnStrategy,2023.2.3,Linux x86_64,59.88023952,5,1,11,-0.027127336,-0.007786054,1,0,0,0.8823,rock_grid_rect_2,5,12,-1,-1,0.882,-0.335036751,-0.3817049,1,0,0,1.08,Obsidian_rect,5,1.08,1,10,0,10,0,1,,,,,,,,,,,,,
629642bfde2bf56c1ec2a420,TCN,2024-06-21_13h46.19.033,LearnStrategy,2023.2.3,Linux x86_64,59.88023952,5,1,12,-0.021927177,-0.001453543,1,0,0,0.7808,rock_grid_rect_2,2,11,-1,-1,0.781,-0.151981977,-0.251284712,1,0,0,2.1222,Basalt_rect,2,2.122,1,11,0,11,0,1,,,,,,,,,,,,,
629642bfde2bf56c1ec2a420,TCN,2024-06-21_13h46.19.033,LearnStrategy,2023.2.3,Linux x86_64,59.88023952,5,1,13,-0.015684754,0.005780038,1,0,0,0.8955,rock_grid_rect_2,8,16,-1,-1,0.895,0.41615316,-0.399528721,1,0,0,1.1747,Pumice_rect,8,1.175,1,12,0,12,0,1,,,,,,,,,,,,,
629642bfde2bf56c1ec2a420,TCN,2024-06-21_13h46.19.033,LearnStrategy,2023.2.3,Linux x86_64,59.88023952,5,1,14,-0.058474425,0.004698106,1,0,0,0.8984,rock_grid_rect_2,4,13,-1,-1,0.898,0.36738424,-0.235073656,1,0,0,3.2419,Gabbro_rect,4,3.242,1,13,0,13,0,1,,,,,,,,,,,,,
629642bfde2bf56c1ec2a420,TCN,2024-06-21_13h46.19.033,LearnStrategy,2023.2.3,Linux x86_64,59.88023952,5,1,15,-0.03030757,-0.009449743,1,0,0,1.4482,rock_grid_rect_2,8,05,-1,-1,1.448,0.392790421,-0.40985812,1,0,0,1.0823,Pumice_rect,8,1.082,1,14,0,14,0,1,,,,,,,,,,,,,
629642bfde2bf56c1ec2a420,TCN,2024-06-21_13h46.19.033,LearnStrategy,2023.2.3,Linux x86_64,59.88023952,5,1,16,-0.031895948,0.003195698,1,0,0,1.2318,rock_grid_rect_2,1,10,-1,-1,1.232,-0.373799383,-0.252854926,1,0,0,2.5511,Andesite_rect,1,2.551,1,15,0,15,0,1,,,,,,,,,,,,,
629642bfde2bf56c1ec2a420,TCN,2024-06-21_13h46.19.033,LearnStrategy,2023.2.3,Linux x86_64,59.88023952,5,2,1,,,,,,,,6,09,,,,,,,,,,,6,6.478,1,,,,,,-0.129183242,-0.412365137,1,0,0,6.4776,Pegmatite_rect,0,0,0,0,1,
629642bfde2bf56c1ec2a420,TCN,2024-06-21_13h46.19.033,LearnStrategy,2023.2.3,Linux x86_64,59.88023952,5,2,2,,,,,,,,3,13,,,,,,,,,,,3,1.153,1,,,,,,0.102238645,-0.252710025,1,0,0,1.153,Diorite_rect,1,0,1,0,1,
629642bfde2bf56c1ec2a420,TCN,2024-06-21_13h46.19.033,LearnStrategy,2023.2.3,Linux x86_64,59.88023952,5,2,3,,,,,,,,4,10,,,,,,,,,,,2,1.145,0,,,,,,-0.160840768,-0.240711081,1,0,0,1.1449,Basalt_rect,2,0,2,0,1,
629642bfde2bf56c1ec2a420,TCN,2024-06-21_13h46.19.033,LearnStrategy,2023.2.3,Linux x86_64,59.88023952,5,2,4,,,,,,,,8,04,,,,,,,,,,,8,1.208,1,,,,,,0.39108647,-0.419338243,1,0,0,1.2077,Pumice_rect,3,0,3,0,1,
629642bfde2bf56c1ec2a420,TCN,2024-06-21_13h46.19.033,LearnStrategy,2023.2.3,Linux x86_64,59.88023952,5,2,5,,,,,,,,1,09,,,,,,,,,,,1,1.562,1,,,,,,-0.36704118,-0.259491241,1,0,0,1.5616,Andesite_rect,4,0,4,0,1,
629642bfde2bf56c1ec2a420,TCN,2024-06-21_13h46.19.033,LearnStrategy,2023.2.3,Linux x86_64,59.88023952,5,2,6,,,,,,,,7,02,,,,,,,,,,,7,2.707,1,,,,,,0.127014892,-0.383745597,1,0,0,2.7067,Peridotite_rect,5,0,5,0,1,
629642bfde2bf56c1ec2a420,TCN,2024-06-21_13h46.19.033,LearnStrategy,2023.2.3,Linux x86_64,59.88023952,5,2,7,,,,,,,,5,07,,,,,,,,,,,5,1.619,1,,,,,,-0.379846438,-0.381290739,1,0,0,1.6191,Obsidian_rect,6,0,6,0,1,
629642bfde2bf56c1ec2a420,TCN,2024-06-21_13h46.19.033,LearnStrategy,2023.2.3,Linux x86_64,59.88023952,5,2,8,,,,,,,,8,06,,,,,,,,,,,8,1.267,1,,,,,,0.36098717,-0.39498119,1,0,0,1.2669,Pumice_rect,7,0,7,0,1,
629642bfde2bf56c1ec2a420,TCN,2024-06-21_13h46.19.033,LearnStrategy,2023.2.3,Linux x86_64,59.88023952,5,2,9,,,,,,,,5,10,,,,,,,,,,,5,1.801,1,,,,,,-0.345674712,-0.39855774,1,0,0,1.8007,Obsidian_rect,8,0,8,0,1,
629642bfde2bf56c1ec2a420,TCN,2024-06-21_13h46.19.033,LearnStrategy,2023.2.3,Linux x86_64,59.88023952,5,2,10,,,,,,,,6,07,,,,,,,,,,,6,1.227,1,,,,,,-0.148307697,-0.409583782,1,0,0,1.2274,Pegmatite_rect,9,0,9,0,1,
629642bfde2bf56c1ec2a420,TCN,2024-06-21_13h46.19.033,LearnStrategy,2023.2.3,Linux x86_64,59.88023952,5,2,11,,,,,,,,2,10,,,,,,,,,,,4,4.143,0,,,,,,0.344443348,-0.268398211,1,0,0,4.1426,Gabbro_rect,10,0,10,0,1,
629642bfde2bf56c1ec2a420,TCN,2024-06-21_13h46.19.033,LearnStrategy,2023.2.3,Linux x86_64,59.88023952,5,2,12,,,,,,,,7,13,,,,,,,,,,,7,1.071,1,,,,,,0.192755886,-0.384520935,1,0,0,1.0712,Peridotite_rect,11,0,11,0,1,
629642bfde2bf56c1ec2a420,TCN,2024-06-21_13h46.19.033,LearnStrategy,2023.2.3,Linux x86_64,59.88023952,5,2,13,,,,,,,,4,14,,,,,,,,,,,4,1.177,1,,,,,,0.315865535,-0.239025522,1,0,0,1.1767,Gabbro_rect,12,0,12,0,1,
629642bfde2bf56c1ec2a420,TCN,2024-06-21_13h46.19.033,LearnStrategy,2023.2.3,Linux x86_64,59.88023952,5,2,14,,,,,,,,2,05,,,,,,,,,,,2,1.625,1,,,,,,-0.19003694,-0.238170618,1,0,0,1.625,Basalt_rect,13,0,13,0,1,
629642bfde2bf56c1ec2a420,TCN,2024-06-21_13h46.19.033,LearnStrategy,2023.2.3,Linux x86_64,59.88023952,5,2,15,,,,,,,,1,01,,,,,,,,,,,3,1.317,0,,,,,,0.133333358,-0.249649299,1,0,0,1.3171,Diorite_rect,14,0,14,0,1,
629642bfde2bf56c1ec2a420,TCN,2024-06-21_13h46.19.033,LearnStrategy,2023.2.3,Linux x86_64,59.88023952,5,2,16,,,,,,,,3,06,,,,,,,,,,,3,0.906,1,,,,,,0.133333358,-0.249649299,1,0,0,0.9057,Diorite_rect,15,0,15,0,1,
629642bfde2bf56c1ec2a420,TCN,2024-06-21_13h46.19.033,LearnStrategy,2023.2.3,Linux x86_64,59.88023952,6,1,1,0.00945807,0.002699456,1,0,0,1.3648,rock_grid_rect_2,6,10,-1,-1,1.365,0.127061195,-0.394088539,1,0,0,4.0902,Peridotite_rect,7,4.09,0,0,0,0,0,1,,,,,,,,,,,,,
629642bfde2bf56c1ec2a420,TCN,2024-06-21_13h46.19.033,LearnStrategy,2023.2.3,Linux x86_64,59.88023952,6,1,2,0.004395172,0.006262967,1,0,0,1.1485,rock_grid_rect_2,7,16,-1,-1,1.149,0.119090571,-0.400121503,1,0,0,1.9451,Peridotite_rect,7,1.945,1,1,0,1,0,1,,,,,,,,,,,,,
629642bfde2bf56c1ec2a420,TCN,2024-06-21_13h46.19.033,LearnStrategy,2023.2.3,Linux x86_64,59.88023952,6,1,3,-0.041673377,0.011962021,1,0,0,0.9983,rock_grid_rect_2,6,06,-1,-1,0.998,-0.090409721,-0.400990362,1,0,0,1.7473,Pegmatite_rect,6,1.747,1,2,0,2,0,1,,,,,,,,,,,,,
629642bfde2bf56c1ec2a420,TCN,2024-06-21_13h46.19.033,LearnStrategy,2023.2.3,Linux x86_64,59.88023952,6,1,4,0.02072139,-0.004062498,1,0,0,1.5984,rock_grid_rect_2,5,02,-1,-1,1.598,-0.354511678,-0.415319623,1,0,0,0.9371,Obsidian_rect,5,0.937,1,3,0,3,0,1,,,,,,,,,,,,,
629642bfde2bf56c1ec2a420,TCN,2024-06-21_13h46.19.033,LearnStrategy,2023.2.3,Linux x86_64,59.88023952,6,1,5,0.000653634,0.012684423,1,0,0,1.1788,rock_grid_rect_2,4,11,-1,-1,1.179,-0.391724914,-0.244693007,1,0,0,2.2278,Andesite_rect,1,2.228,0,4,0,4,0,1,,,,,,,,,,,,,
629642bfde2bf56c1ec2a420,TCN,2024-06-21_13h46.19.033,LearnStrategy,2023.2.3,Linux x86_64,59.88023952,6,1,6,-0.024593965,-0.022723197,1,0,0,0.8647,rock_grid_rect_2,3,02,-1,-1,0.865,0.091673615,-0.244899721,1,0,0,1.3118,Diorite_rect,3,1.312,1,5,0,5,0,1,,,,,,,,,,,,,
629642bfde2bf56c1ec2a420,TCN,2024-06-21_13h46.19.033,LearnStrategy,2023.2.3,Linux x86_64,59.88023952,6,1,7,-0.06349157,0.008795514,1,0,0,1.1152,rock_grid_rect_2,3,11,-1,-1,1.115,0.135486975,-0.25936089,1,0,0,1.4543,Diorite_rect,3,1.454,1,6,0,6,0,1,,,,,,,,,,,,,
629642bfde2bf56c1ec2a420,TCN,2024-06-21_13h46.19.033,LearnStrategy,2023.2.3,Linux x86_64,59.88023952,6,1,8,-0.044965066,0.014615449,1,0,0,1.4319,rock_grid_rect_2,2,06,-1,-1,1.432,-0.128737282,-0.247540064,1,0,0,1.1533,Basalt_rect,2,1.153,1,7,0,7,0,1,,,,,,,,,,,,,
629642bfde2bf56c1ec2a420,TCN,2024-06-21_13h46.19.033,LearnStrategy,2023.2.3,Linux x86_64,59.88023952,6,1,9,0.027303853,0.014816033,1,0,0,1.3309,rock_grid_rect_2,1,03,-1,-1,1.331,-0.320777859,-0.250362505,1,0,0,1.216,Andesite_rect,1,1.216,1,8,0,8,0,1,,,,,,,,,,,,,
629642bfde2bf56c1ec2a420,TCN,2024-06-21_13h46.19.033,LearnStrategy,2023.2.3,Linux x86_64,59.88023952,6,1,10,0.002436922,-0.008542863,1,0,0,0.9483,rock_grid_rect_2,5,14,-1,-1,0.948,-0.309348134,-0.408102284,1,0,0,1.3689,Obsidian_rect,5,1.369,1,9,0,9,0,1,,,,,,,,,,,,,
629642bfde2bf56c1ec2a420,TCN,2024-06-21_13h46.19.033,LearnStrategy,2023.2.3,Linux x86_64,59.88023952,6,1,11,0.004707119,-0.021137884,1,0,0,0.9804,rock_grid_rect_2,4,01,-1,-1,0.98,-0.363570138,-0.242583359,1,0,0,4.7129,Andesite_rect,1,4.713,0,10,0,10,0,1,,,,,,,,,,,,,
629642bfde2bf56c1ec2a420,TCN,2024-06-21_13h46.19.033,LearnStrategy,2023.2.3,Linux x86_64,59.88023952,6,1,12,-0.00969425,-0.016445314,1,0,0,1.4139,rock_grid_rect_2,8,14,-1,-1,1.414,0.316076459,-0.381773072,1,0,0,1.1017,Pumice_rect,8,1.102,1,11,0,11,0,1,,,,,,,,,,,,,
629642bfde2bf56c1ec2a420,TCN,2024-06-21_13h46.19.033,LearnStrategy,2023.2.3,Linux x86_64,59.88023952,6,1,13,-0.07511076,-0.008481599,1,0,0,1.298,rock_grid_rect_2,8,10,-1,-1,1.298,0.371439829,-0.393368837,1,0,0,2.2371,Pumice_rect,8,2.237,1,12,0,12,0,1,,,,,,,,,,,,,
629642bfde2bf56c1ec2a420,TCN,2024-06-21_13h46.19.033,LearnStrategy,2023.2.3,Linux x86_64,59.88023952,6,1,14,-0.028869629,0.003679816,1,0,0,1.0647,rock_grid_rect_2,2,09,-1,-1,1.065,-0.134438122,-0.266605543,1,0,0,0.9595,Basalt_rect,2,0.96,1,13,0,13,0,1,,,,,,,,,,,,,
629642bfde2bf56c1ec2a420,TCN,2024-06-21_13h46.19.033,LearnStrategy,2023.2.3,Linux x86_64,59.88023952,6,1,15,0.015244331,0.007247033,1,0,0,0.8806,rock_grid_rect_2,1,11,-1,-1,0.881,-0.32172157,-0.264560454,1,0,0,1.2512,Andesite_rect,1,1.251,1,14,0,14,0,1,,,,,,,,,,,,,
629642bfde2bf56c1ec2a420,TCN,2024-06-21_13h46.19.033,LearnStrategy,2023.2.3,Linux x86_64,59.88023952,6,1,16,0.02564474,-0.009262382,1,0,0,0.8151,rock_grid_rect_2,7,07,-1,-1,0.815,0.15402272,-0.412149455,1,0,0,1.3874,Peridotite_rect,7,1.387,1,15,0,15,0,1,,,,,,,,,,,,,
629642bfde2bf56c1ec2a420,TCN,2024-06-21_13h46.19.033,LearnStrategy,2023.2.3,Linux x86_64,59.88023952,6,2,1,,,,,,,,8,02,,,,,,,,,,,8,1.268,1,,,,,,0.397914904,-0.383453415,1,0,0,1.2683,Pumice_rect,0,0,0,0,1,
629642bfde2bf56c1ec2a420,TCN,2024-06-21_13h46.19.033,LearnStrategy,2023.2.3,Linux x86_64,59.88023952,6,2,2,,,,,,,,4,12,,,,,,,,,,,4,3.717,1,,,,,,0.39014349,-0.22984147,1,0,0,3.717,Gabbro_rect,1,0,1,0,1,
629642bfde2bf56c1ec2a420,TCN,2024-06-21_13h46.19.033,LearnStrategy,2023.2.3,Linux x86_64,59.88023952,6,2,3,,,,,,,,6,05,,,,,,,,,,,6,1.477,1,,,,,,-0.119958331,-0.396893045,1,0,0,1.4774,Pegmatite_rect,2,0,2,0,1,
629642bfde2bf56c1ec2a420,TCN,2024-06-21_13h46.19.033,LearnStrategy,2023.2.3,Linux x86_64,59.88023952,6,2,4,,,,,,,,4,05,,,,,,,,,,,7,2.549,0,,,,,,0.109693353,-0.40492992,1,0,0,2.5494,Peridotite_rect,3,0,3,0,1,
629642bfde2bf56c1ec2a420,TCN,2024-06-21_13h46.19.033,LearnStrategy,2023.2.3,Linux x86_64,59.88023952,6,2,5,,,,,,,,3,14,,,,,,,,,,,3,1.264,1,,,,,,0.086259696,-0.260905802,1,0,0,1.2636,Diorite_rect,4,0,4,0,1,
629642bfde2bf56c1ec2a420,TCN,2024-06-21_13h46.19.033,LearnStrategy,2023.2.3,Linux x86_64,59.88023952,6,2,6,,,,,,,,1,02,,,,,,,,,,,1,2.632,1,,,,,,-0.349546921,-0.256820198,1,0,0,2.6319,Andesite_rect,5,0,5,0,1,
629642bfde2bf56c1ec2a420,TCN,2024-06-21_13h46.19.033,LearnStrategy,2023.2.3,Linux x86_64,59.88023952,6,2,7,,,,,,,,8,13,,,,,,,,,,,8,1.701,1,,,,,,0.385029806,-0.404512374,1,0,0,1.7014,Pumice_rect,6,0,6,0,1,
629642bfde2bf56c1ec2a420,TCN,2024-06-21_13h46.19.033,LearnStrategy,2023.2.3,Linux x86_64,59.88023952,6,2,8,,,,,,,,7,08,,,,,,,,,,,7,1.027,1,,,,,,0.177427003,-0.409787751,1,0,0,1.0273,Peridotite_rect,7,0,7,0,1,
629642bfde2bf56c1ec2a420,TCN,2024-06-21_13h46.19.033,LearnStrategy,2023.2.3,Linux x86_64,59.88023952,6,2,9,,,,,,,,2,01,,,,,,,,,,,2,1.249,1,,,,,,-0.069171865,-0.261170852,1,0,0,1.2487,Basalt_rect,8,0,8,0,1,
629642bfde2bf56c1ec2a420,TCN,2024-06-21_13h46.19.033,LearnStrategy,2023.2.3,Linux x86_64,59.88023952,6,2,10,,,,,,,,6,08,,,,,,,,,,,6,1.897,1,,,,,,-0.115393231,-0.384701479,1,0,0,1.897,Pegmatite_rect,9,0,9,0,1,
629642bfde2bf56c1ec2a420,TCN,2024-06-21_13h46.19.033,LearnStrategy,2023.2.3,Linux x86_64,59.88023952,6,2,11,,,,,,,,2,12,,,,,,,,,,,2,2.262,1,,,,,,-0.110197556,-0.25857091,1,0,0,2.2616,Basalt_rect,10,0,10,0,1,
629642bfde2bf56c1ec2a420,TCN,2024-06-21_13h46.19.033,LearnStrategy,2023.2.3,Linux x86_64,59.88023952,6,2,12,,,,,,,,3,12,,,,,,,,,,,3,1.094,1,,,,,,0.116120437,-0.258610441,1,0,0,1.0937,Diorite_rect,11,0,11,0,1,
629642bfde2bf56c1ec2a420,TCN,2024-06-21_13h46.19.033,LearnStrategy,2023.2.3,Linux x86_64,59.88023952,6,2,13,,,,,,,,5,16,,,,,,,,,,,5,1.039,1,,,,,,-0.41899436,-0.398090506,1,0,0,1.0392,Obsidian_rect,12,0,12,0,1,
629642bfde2bf56c1ec2a420,TCN,2024-06-21_13h46.19.033,LearnStrategy,2023.2.3,Linux x86_64,59.88023952,6,2,14,,,,,,,,1,16,,,,,,,,,,,3,2.497,0,,,,,,0.093964126,-0.247380887,1,0,0,2.4973,Diorite_rect,13,0,13,0,1,
629642bfde2bf56c1ec2a420,TCN,2024-06-21_13h46.19.033,LearnStrategy,2023.2.3,Linux x86_64,59.88023952,6,2,15,,,,,,,,5,04,,,,,,,,,,,5,1.621,1,,,,,,-0.3720295,-0.388906773,1,0,0,1.621,Obsidian_rect,14,0,14,0,1,
629642bfde2bf56c1ec2a420,TCN,2024-06-21_13h46.19.033,LearnStrategy,2023.2.3,Linux x86_64,59.88023952,6,2,16,,,,,,,,7,12,,,,,,,,,,,7,1.34,1,,,,,,0.155159603,-0.392065869,1,0,0,1.3396,Peridotite_rect,15,0,15,0,1,
629642bfde2bf56c1ec2a420,TCN,2024-06-21_13h46.19.033,LearnStrategy,2023.2.3,Linux x86_64,59.88023952,7,1,1,-0.024930162,-0.020945582,1,0,0,1.1477,rock_grid_rect_2,7,07,-1,-1,1.148,0.096421821,-0.397302264,1,0,0,1.4197,Peridotite_rect,7,1.42,1,0,0,0,0,1,,,,,,,,,,,,,
629642bfde2bf56c1ec2a420,TCN,2024-06-21_13h46.19.033,LearnStrategy,2023.2.3,Linux x86_64,59.88023952,7,1,2,-0.048364734,-0.010998316,1,0,0,0.9799,rock_grid_rect_2,1,14,-1,-1,0.98,-0.344397686,-0.239940409,1,0,0,2.3255,Andesite_rect,1,2.326,1,1,0,1,0,1,,,,,,,,,,,,,
629642bfde2bf56c1ec2a420,TCN,2024-06-21_13h46.19.033,LearnStrategy,2023.2.3,Linux x86_64,59.88023952,7,1,3,-0.019093298,-0.010787712,1,0,0,2.0654,rock_grid_rect_2,3,10,-1,-1,2.065,0.118441878,-0.251183231,1,0,0,1.7296,Diorite_rect,3,1.73,1,2,0,2,0,1,,,,,,,,,,,,,
629642bfde2bf56c1ec2a420,TCN,2024-06-21_13h46.19.033,LearnStrategy,2023.2.3,Linux x86_64,59.88023952,7,1,4,-0.073087907,-0.0042785,1,0,0,0.9151,rock_grid_rect_2,1,11,-1,-1,0.915,-0.394892245,-0.234640187,1,0,0,3.2017,Andesite_rect,1,3.202,1,3,0,3,0,1,,,,,,,,,,,,,
629642bfde2bf56c1ec2a420,TCN,2024-06-21_13h46.19.033,LearnStrategy,2023.2.3,Linux x86_64,59.88023952,7,1,5,-0.024232055,0.00576311,1,0,0,0.9145,rock_grid_rect_2,4,01,-1,-1,0.914,0.119753722,-0.243551091,1,0,0,1.348,Diorite_rect,3,1.348,0,4,0,4,0,1,,,,,,,,,,,,,
629642bfde2bf56c1ec2a420,TCN,2024-06-21_13h46.19.033,LearnStrategy,2023.2.3,Linux x86_64,59.88023952,7,1,6,-0.027742446,-0.012896399,1,0,0,0.8984,rock_grid_rect_2,2,09,-1,-1,0.898,-0.105301292,-0.238397418,1,0,0,0.9788,Basalt_rect,2,0.979,1,5,0,5,0,1,,,,,,,,,,,,,
629642bfde2bf56c1ec2a420,TCN,2024-06-21_13h46.19.033,LearnStrategy,2023.2.3,Linux x86_64,59.88023952,7,1,7,-0.013477789,-0.015786235,1,0,0,0.915,rock_grid_rect_2,4,11,-1,-1,0.915,0.38203103,-0.258214993,1,0,0,2.3847,Gabbro_rect,4,2.385,1,6,0,6,0,1,,,,,,,,,,,,,
629642bfde2bf56c1ec2a420,TCN,2024-06-21_13h46.19.033,LearnStrategy,2023.2.3,Linux x86_64,59.88023952,7,1,8,-0.041810912,0.005498471,1,0,0,0.8312,rock_grid_rect_2,8,15,-1,-1,0.831,0.377270288,-0.399298123,1,0,0,1.0653,Pumice_rect,8,1.065,1,7,0,7,0,1,,,,,,,,,,,,,
629642bfde2bf56c1ec2a420,TCN,2024-06-21_13h46.19.033,LearnStrategy,2023.2.3,Linux x86_64,59.88023952,7,1,9,-0.021756883,-0.014632287,1,0,0,1.4149,rock_grid_rect_2,2,04,-1,-1,1.415,-0.10251399,-0.229285107,1,0,0,2.2738,Basalt_rect,2,2.274,1,8,0,8,0,1,,,,,,,,,,,,,
629642bfde2bf56c1ec2a420,TCN,2024-06-21_13h46.19.033,LearnStrategy,2023.2.3,Linux x86_64,59.88023952,7,1,10,-0.014798875,0.015985263,1,0,0,0.8806,rock_grid_rect_2,8,05,-1,-1,0.881,0.350470364,-0.395341636,1,0,0,1.2222,Pumice_rect,8,1.222,1,9,0,9,0,1,,,,,,,,,,,,,
629642bfde2bf56c1ec2a420,TCN,2024-06-21_13h46.19.033,LearnStrategy,2023.2.3,Linux x86_64,59.88023952,7,1,11,-0.043733931,-0.012129388,1,0,0,0.9137,rock_grid_rect_2,5,02,-1,-1,0.914,-0.349340756,-0.409747214,1,0,0,1.0809,Obsidian_rect,5,1.081,1,10,0,10,0,1,,,,,,,,,,,,,
629642bfde2bf56c1ec2a420,TCN,2024-06-21_13h46.19.033,LearnStrategy,2023.2.3,Linux x86_64,59.88023952,7,1,12,-0.014094912,0.00996479,1,0,0,0.6978,rock_grid_rect_2,3,02,-1,-1,0.698,0.112665683,-0.256832872,1,0,0,1.2879,Diorite_rect,3,1.288,1,11,0,11,0,1,,,,,,,,,,,,,
629642bfde2bf56c1ec2a420,TCN,2024-06-21_13h46.19.033,LearnStrategy,2023.2.3,Linux x86_64,59.88023952,7,1,13,-0.030329531,-0.010311418,1,0,0,0.9646,rock_grid_rect_2,7,15,-1,-1,0.965,0.081946332,-0.384728473,1,0,0,1.9521,Peridotite_rect,7,1.952,1,12,0,12,0,1,,,,,,,,,,,,,
629642bfde2bf56c1ec2a420,TCN,2024-06-21_13h46.19.033,LearnStrategy,2023.2.3,Linux x86_64,59.88023952,7,1,14,-0.054411881,0.011523977,1,0,0,0.9162,rock_grid_rect_2,5,11,-1,-1,0.916,-0.353605119,-0.378108675,1,0,0,1.5287,Obsidian_rect,5,1.529,1,13,0,13,0,1,,,,,,,,,,,,,
629642bfde2bf56c1ec2a420,TCN,2024-06-21_13h46.19.033,LearnStrategy,2023.2.3,Linux x86_64,59.88023952,7,1,15,-0.005163281,0.02341714,1,0,0,0.8825,rock_grid_rect_2,6,16,-1,-1,0.883,-0.074866802,-0.397437786,1,0,0,1.2655,Pegmatite_rect,6,1.265,1,14,0,14,0,1,,,,,,,,,,,,,
629642bfde2bf56c1ec2a420,TCN,2024-06-21_13h46.19.033,LearnStrategy,2023.2.3,Linux x86_64,59.88023952,7,1,16,0.003805958,-0.013452441,1,0,0,1.0479,rock_grid_rect_2,6,11,-1,-1,1.048,-0.096520374,-0.381366324,1,0,0,1.1739,Pegmatite_rect,6,1.174,1,15,0,15,0,1,,,,,,,,,,,,,
629642bfde2bf56c1ec2a420,TCN,2024-06-21_13h46.19.033,LearnStrategy,2023.2.3,Linux x86_64,59.88023952,7,2,1,,,,,,,,3,08,,,,,,,,,,,3,1.177,1,,,,,,0.109809201,-0.264635855,1,0,0,1.1765,Diorite_rect,0,0,0,0,1,
629642bfde2bf56c1ec2a420,TCN,2024-06-21_13h46.19.033,LearnStrategy,2023.2.3,Linux x86_64,59.88023952,7,2,2,,,,,,,,1,07,,,,,,,,,,,3,0.65,0,,,,,,0.109809201,-0.264635855,1,0,0,0.6498,Diorite_rect,1,0,1,0,1,
629642bfde2bf56c1ec2a420,TCN,2024-06-21_13h46.19.033,LearnStrategy,2023.2.3,Linux x86_64,59.88023952,7,2,3,,,,,,,,2,16,,,,,,,,,,,4,2.413,0,,,,,,0.371151948,-0.263029679,1,0,0,2.4135,Gabbro_rect,2,0,2,0,1,
629642bfde2bf56c1ec2a420,TCN,2024-06-21_13h46.19.033,LearnStrategy,2023.2.3,Linux x86_64,59.88023952,7,2,4,,,,,,,,8,02,,,,,,,,,,,8,1.252,1,,,,,,0.382474473,-0.405152282,1,0,0,1.2515,Pumice_rect,3,0,3,0,1,
629642bfde2bf56c1ec2a420,TCN,2024-06-21_13h46.19.033,LearnStrategy,2023.2.3,Linux x86_64,59.88023952,7,2,5,,,,,,,,7,02,,,,,,,,,,,7,1.094,1,,,,,,0.182110513,-0.40365596,1,0,0,1.0941,Peridotite_rect,4,0,4,0,1,
629642bfde2bf56c1ec2a420,TCN,2024-06-21_13h46.19.033,LearnStrategy,2023.2.3,Linux x86_64,59.88023952,7,2,6,,,,,,,,1,01,,,,,,,,,,,3,4.068,0,,,,,,0.148227491,-0.250653589,1,0,0,4.0684,Diorite_rect,5,0,5,0,1,
629642bfde2bf56c1ec2a420,TCN,2024-06-21_13h46.19.033,LearnStrategy,2023.2.3,Linux x86_64,59.88023952,7,2,7,,,,,,,,2,12,,,,,,,,,,,2,2.388,1,,,,,,-0.117415627,-0.25490601,1,0,0,2.3885,Basalt_rect,6,0,6,0,1,
629642bfde2bf56c1ec2a420,TCN,2024-06-21_13h46.19.033,LearnStrategy,2023.2.3,Linux x86_64,59.88023952,7,2,8,,,,,,,,4,05,,,,,,,,,,,7,2.973,0,,,,,,0.07579752,-0.417801475,1,0,0,2.9732,Peridotite_rect,7,0,7,0,1,
629642bfde2bf56c1ec2a420,TCN,2024-06-21_13h46.19.033,LearnStrategy,2023.2.3,Linux x86_64,59.88023952,7,2,9,,,,,,,,6,07,,,,,,,,,,,6,0.998,1,,,,,,-0.107512833,-0.379317299,1,0,0,0.9978,Pegmatite_rect,8,0,8,0,1,
629642bfde2bf56c1ec2a420,TCN,2024-06-21_13h46.19.033,LearnStrategy,2023.2.3,Linux x86_64,59.88023952,7,2,10,,,,,,,,7,08,,,,,,,,,,,7,1.109,1,,,,,,0.079703221,-0.400815126,1,0,0,1.1089,Peridotite_rect,9,0,9,0,1,
629642bfde2bf56c1ec2a420,TCN,2024-06-21_13h46.19.033,LearnStrategy,2023.2.3,Linux x86_64,59.88023952,7,2,11,,,,,,,,3,06,,,,,,,,,,,3,1.347,1,,,,,,0.144667412,-0.228901693,1,0,0,1.3466,Diorite_rect,10,0,10,0,1,
629642bfde2bf56c1ec2a420,TCN,2024-06-21_13h46.19.033,LearnStrategy,2023.2.3,Linux x86_64,59.88023952,7,2,12,,,,,,,,5,10,,,,,,,,,,,5,1.089,1,,,,,,-0.347879253,-0.390893115,1,0,0,1.0885,Obsidian_rect,11,0,11,0,1,
629642bfde2bf56c1ec2a420,TCN,2024-06-21_13h46.19.033,LearnStrategy,2023.2.3,Linux x86_64,59.88023952,7,2,13,,,,,,,,6,09,,,,,,,,,,,6,1.047,1,,,,,,-0.1722214,-0.397103877,1,0,0,1.0472,Pegmatite_rect,12,0,12,0,1,
629642bfde2bf56c1ec2a420,TCN,2024-06-21_13h46.19.033,LearnStrategy,2023.2.3,Linux x86_64,59.88023952,7,2,14,,,,,,,,4,10,,,,,,,,,,,1,2.297,0,,,,,,-0.325394294,-0.238355828,1,0,0,2.2971,Andesite_rect,13,0,13,0,1,
629642bfde2bf56c1ec2a420,TCN,2024-06-21_13h46.19.033,LearnStrategy,2023.2.3,Linux x86_64,59.88023952,7,2,15,,,,,,,,8,08,,,,,,,,,,,8,1.32,1,,,,,,0.353055894,-0.379820771,1,0,0,1.3196,Pumice_rect,14,0,14,0,1,
629642bfde2bf56c1ec2a420,TCN,2024-06-21_13h46.19.033,LearnStrategy,2023.2.3,Linux x86_64,59.88023952,7,2,16,,,,,,,,5,04,,,,,,,,,,,5,1.194,1,,,,,,-0.300306054,-0.391466315,1,0,0,1.1944,Obsidian_rect,15,0,15,0,1,
629642bfde2bf56c1ec2a420,TCN,2024-06-21_13h46.19.033,LearnStrategy,2023.2.3,Linux x86_64,59.88023952,8,1,1,-0.051703274,-0.003365673,1,0,0,1.3115,rock_grid_rect_2,6,06,-1,-1,1.311,-0.134034713,-0.385110057,1,0,0,1.3621,Pegmatite_rect,6,1.362,1,0,0,0,0,1,,,,,,,,,,,,,
629642bfde2bf56c1ec2a420,TCN,2024-06-21_13h46.19.033,LearnStrategy,2023.2.3,Linux x86_64,59.88023952,8,1,2,0.011547632,-0.02442605,1,0,0,1.0308,rock_grid_rect_2,3,09,-1,-1,1.031,0.086856047,-0.269308888,1,0,0,0.994,Diorite_rect,3,0.994,1,1,0,1,0,1,,,,,,,,,,,,,
629642bfde2bf56c1ec2a420,TCN,2024-06-21_13h46.19.033,LearnStrategy,2023.2.3,Linux x86_64,59.88023952,8,1,3,-0.110600736,-0.003644311,1,0,0,0.8315,rock_grid_rect_2,4,16,-1,-1,0.832,0.351082271,-0.228082751,1,0,0,1.7633,Gabbro_rect,4,1.763,1,2,0,2,0,1,,,,,,,,,,,,,
629642bfde2bf56c1ec2a420,TCN,2024-06-21_13h46.19.033,LearnStrategy,2023.2.3,Linux x86_64,59.88023952,8,1,4,-0.042816025,-0.013841986,1,0,0,1.3646,rock_grid_rect_2,5,12,-1,-1,1.365,-0.354792651,-0.383980404,1,0,0,1.2658,Obsidian_rect,5,1.266,1,3,0,3,0,1,,,,,,,,,,,,,
629642bfde2bf56c1ec2a420,TCN,2024-06-21_13h46.19.033,LearnStrategy,2023.2.3,Linux x86_64,59.88023952,8,1,5,-0.034509113,-0.009396943,1,0,0,0.9307,rock_grid_rect_2,7,14,-1,-1,0.931,0.119022581,-0.390784405,1,0,0,1.3408,Peridotite_rect,7,1.341,1,4,0,4,0,1,,,,,,,,,,,,,
629642bfde2bf56c1ec2a420,TCN,2024-06-21_13h46.19.033,LearnStrategy,2023.2.3,Linux x86_64,59.88023952,8,1,6,-0.03573311,-0.007293747,1,0,0,1.0484,rock_grid_rect_2,4,15,-1,-1,1.048,0.357907045,-0.245008523,1,0,0,1.8456,Gabbro_rect,4,1.846,1,5,0,5,0,1,,,,,,,,,,,,,
629642bfde2bf56c1ec2a420,TCN,2024-06-21_13h46.19.033,LearnStrategy,2023.2.3,Linux x86_64,59.88023952,8,1,7,-0.007446381,0.013312664,1,0,0,0.9306,rock_grid_rect_2,1,04,-1,-1,0.931,-0.369598023,-0.233469859,1,0,0,1.9006,Andesite_rect,1,1.901,1,6,0,6,0,1,,,,,,,,,,,,,
629642bfde2bf56c1ec2a420,TCN,2024-06-21_13h46.19.033,LearnStrategy,2023.2.3,Linux x86_64,59.88023952,8,1,8,-0.037310141,-0.006526461,1,0,0,0.8815,rock_grid_rect_2,1,10,-1,-1,0.882,-0.302253369,-0.248376437,1,0,0,1.6273,Andesite_rect,1,1.627,1,7,0,7,0,1,,,,,,,,,,,,,
629642bfde2bf56c1ec2a420,TCN,2024-06-21_13h46.19.033,LearnStrategy,2023.2.3,Linux x86_64,59.88023952,8,1,9,-0.038430736,-0.007299192,1,0,0,0.9479,rock_grid_rect_2,5,05,-1,-1,0.948,-0.387850554,-0.414830152,1,0,0,2.1242,Obsidian_rect,5,2.124,1,8,0,8,0,1,,,,,,,,,,,,,
629642bfde2bf56c1ec2a420,TCN,2024-06-21_13h46.19.033,LearnStrategy,2023.2.3,Linux x86_64,59.88023952,8,1,10,-0.009087924,-0.006419352,1,0,0,0.8979,rock_grid_rect_2,2,08,-1,-1,0.898,-0.113104825,-0.243136336,1,0,0,1.1715,Basalt_rect,2,1.172,1,9,0,9,0,1,,,,,,,,,,,,,
629642bfde2bf56c1ec2a420,TCN,2024-06-21_13h46.19.033,LearnStrategy,2023.2.3,Linux x86_64,59.88023952,8,1,11,-0.01026809,0.002178552,1,0,0,0.9316,rock_grid_rect_2,3,11,-1,-1,0.932,0.084136185,-0.251287732,1,0,0,1.1236,Diorite_rect,3,1.124,1,10,0,10,0,1,,,,,,,,,,,,,
629642bfde2bf56c1ec2a420,TCN,2024-06-21_13h46.19.033,LearnStrategy,2023.2.3,Linux x86_64,59.88023952,8,1,12,-0.051861032,0.01663574,1,0,0,0.7314,rock_grid_rect_2,8,10,-1,-1,0.731,0.323898567,-0.397992868,1,0,0,1.3348,Pumice_rect,8,1.335,1,11,0,11,0,1,,,,,,,,,,,,,
629642bfde2bf56c1ec2a420,TCN,2024-06-21_13h46.19.033,LearnStrategy,2023.2.3,Linux x86_64,59.88023952,8,1,13,-0.030823943,-0.005270207,1,0,0,0.6823,rock_grid_rect_2,2,06,-1,-1,0.682,-0.102077135,-0.230745193,1,0,0,1.3344,Basalt_rect,2,1.334,1,12,0,12,0,1,,,,,,,,,,,,,
629642bfde2bf56c1ec2a420,TCN,2024-06-21_13h46.19.033,LearnStrategy,2023.2.3,Linux x86_64,59.88023952,8,1,14,-0.019392434,0.014697485,1,0,0,0.7814,rock_grid_rect_2,6,10,-1,-1,0.781,-0.102502094,-0.393164959,1,0,0,1.9113,Pegmatite_rect,6,1.911,1,13,0,13,0,1,,,,,,,,,,,,,
629642bfde2bf56c1ec2a420,TCN,2024-06-21_13h46.19.033,LearnStrategy,2023.2.3,Linux x86_64,59.88023952,8,1,15,-0.022894315,0.016243862,1,0,0,0.8149,rock_grid_rect_2,8,16,-1,-1,0.815,0.397781395,-0.381353147,1,0,0,1.1628,Pumice_rect,8,1.163,1,14,0,14,0,1,,,,,,,,,,,,,
629642bfde2bf56c1ec2a420,TCN,2024-06-21_13h46.19.033,LearnStrategy,2023.2.3,Linux x86_64,59.88023952,8,1,16,-0.049417521,0.001384684,1,0,0,1.1649,rock_grid_rect_2,7,16,-1,-1,1.165,0.087157197,-0.397971912,1,0,0,1.1091,Peridotite_rect,7,1.109,1,15,0,15,0,1,,,,,,,,,,,,,
629642bfde2bf56c1ec2a420,TCN,2024-06-21_13h46.19.033,LearnStrategy,2023.2.3,Linux x86_64,59.88023952,8,2,1,,,,,,,,8,04,,,,,,,,,,,8,1.814,1,,,,,,0.3789585,-0.396393875,1,0,0,1.8139,Pumice_rect,0,0,0,0,1,
629642bfde2bf56c1ec2a420,TCN,2024-06-21_13h46.19.033,LearnStrategy,2023.2.3,Linux x86_64,59.88023952,8,2,2,,,,,,,,7,12,,,,,,,,,,,7,1.209,1,,,,,,0.11707879,-0.385788673,1,0,0,1.2088,Peridotite_rect,1,0,1,0,1,
629642bfde2bf56c1ec2a420,TCN,2024-06-21_13h46.19.033,LearnStrategy,2023.2.3,Linux x86_64,59.88023952,8,2,3,,,,,,,,6,08,,,,,,,,,,,6,1.113,1,,,,,,-0.107941726,-0.391844331,1,0,0,1.1132,Pegmatite_rect,2,0,2,0,1,
629642bfde2bf56c1ec2a420,TCN,2024-06-21_13h46.19.033,LearnStrategy,2023.2.3,Linux x86_64,59.88023952,8,2,4,,,,,,,,5,09,,,,,,,,,,,5,0.973,1,,,,,,-0.33450871,-0.39441165,1,0,0,0.9728,Obsidian_rect,3,0,3,0,1,
629642bfde2bf56c1ec2a420,TCN,2024-06-21_13h46.19.033,LearnStrategy,2023.2.3,Linux x86_64,59.88023952,8,2,5,,,,,,,,1,16,,,,,,,,,,,1,2.239,1,,,,,,-0.364265225,-0.260404481,1,0,0,2.2394,Andesite_rect,4,0,4,0,1,
629642bfde2bf56c1ec2a420,TCN,2024-06-21_13h46.19.033,LearnStrategy,2023.2.3,Linux x86_64,59.88023952,8,2,6,,,,,,,,3,12,,,,,,,,,,,3,1.826,1,,,,,,0.148819084,-0.265166596,1,0,0,1.826,Diorite_rect,5,0,5,0,1,
629642bfde2bf56c1ec2a420,TCN,2024-06-21_13h46.19.033,LearnStrategy,2023.2.3,Linux x86_64,59.88023952,8,2,7,,,,,,,,6,13,,,,,,,,,,,6,1.145,1,,,,,,-0.057613161,-0.407386059,1,0,0,1.1453,Pegmatite_rect,6,0,6,0,1,
629642bfde2bf56c1ec2a420,TCN,2024-06-21_13h46.19.033,LearnStrategy,2023.2.3,Linux x86_64,59.88023952,8,2,8,,,,,,,,7,05,,,,,,,,,,,7,2.059,1,,,,,,0.102542082,-0.40542296,1,0,0,2.0593,Peridotite_rect,7,0,7,0,1,
629642bfde2bf56c1ec2a420,TCN,2024-06-21_13h46.19.033,LearnStrategy,2023.2.3,Linux x86_64,59.88023952,8,2,9,,,,,,,,4,12,,,,,,,,,,,1,2.129,0,,,,,,-0.370191903,-0.249510712,1,0,0,2.1291,Andesite_rect,8,0,8,0,1,
629642bfde2bf56c1ec2a420,TCN,2024-06-21_13h46.19.033,LearnStrategy,2023.2.3,Linux x86_64,59.88023952,8,2,10,,,,,,,,8,09,,,,,,,,,,,8,1.587,1,,,,,,0.371386755,-0.393434081,1,0,0,1.5872,Pumice_rect,9,0,9,0,1,
629642bfde2bf56c1ec2a420,TCN,2024-06-21_13h46.19.033,LearnStrategy,2023.2.3,Linux x86_64,59.88023952,8,2,11,,,,,,,,3,13,,,,,,,,,,,3,1.124,1,,,,,,0.200623016,-0.267733504,1,0,0,1.1238,Diorite_rect,10,0,10,0,1,
629642bfde2bf56c1ec2a420,TCN,2024-06-21_13h46.19.033,LearnStrategy,2023.2.3,Linux x86_64,59.88023952,8,2,12,,,,,,,,4,09,,,,,,,,,,,4,1.661,1,,,,,,0.36211719,-0.268643724,1,0,0,1.6611,Gabbro_rect,11,0,11,0,1,
629642bfde2bf56c1ec2a420,TCN,2024-06-21_13h46.19.033,LearnStrategy,2023.2.3,Linux x86_64,59.88023952,8,2,13,,,,,,,,1,06,,,,,,,,,,,1,1.655,1,,,,,,-0.351430455,-0.248422237,1,0,0,1.6553,Andesite_rect,12,0,12,0,1,
629642bfde2bf56c1ec2a420,TCN,2024-06-21_13h46.19.033,LearnStrategy,2023.2.3,Linux x86_64,59.88023952,8,2,14,,,,,,,,2,10,,,,,,,,,,,4,1.81,0,,,,,,0.338940942,-0.269540218,1,0,0,1.81,Gabbro_rect,13,0,13,0,1,
629642bfde2bf56c1ec2a420,TCN,2024-06-21_13h46.19.033,LearnStrategy,2023.2.3,Linux x86_64,59.88023952,8,2,15,,,,,,,,2,02,,,,,,,,,,,2,1.127,1,,,,,,-0.134573918,-0.26040018,1,0,0,1.1273,Basalt_rect,14,0,14,0,1,
629642bfde2bf56c1ec2a420,TCN,2024-06-21_13h46.19.033,LearnStrategy,2023.2.3,Linux x86_64,59.88023952,8,2,16,,,,,,,,5,07,,,,,,,,,,,5,1.337,1,,,,,,-0.334830128,-0.405232534,1,0,0,1.3373,Obsidian_rect,15,0,15,0,1,
629642bfde2bf56c1ec2a420,TCN,2024-06-21_13h46.19.033,LearnStrategy,2023.2.3,Linux x86_64,59.88023952,9,1,1,0.033260683,-0.016644251,1,0,0,1.0979,rock_grid_rect_2,5,14,-1,-1,1.098,-0.373556157,-0.390529101,1,0,0,3.8094,Obsidian_rect,5,3.809,1,0,0,0,0,1,,,,,,,,,,,,,
629642bfde2bf56c1ec2a420,TCN,2024-06-21_13h46.19.033,LearnStrategy,2023.2.3,Linux x86_64,59.88023952,9,1,2,0.003433342,0.006525729,1,0,0,1.5457,rock_grid_rect_2,1,05,-1,-1,1.546,0.084527286,-0.236925894,1,0,0,1.1063,Diorite_rect,3,1.106,0,1,0,1,0,1,,,,,,,,,,,,,
629642bfde2bf56c1ec2a420,TCN,2024-06-21_13h46.19.033,LearnStrategy,2023.2.3,Linux x86_64,59.88023952,9,1,3,-0.069838951,-0.017934133,1,0,0,0.848,rock_grid_rect_2,4,13,-1,-1,0.848,0.343846997,-0.238448067,1,0,0,1.5546,Gabbro_rect,4,1.555,1,2,0,2,0,1,,,,,,,,,,,,,
629642bfde2bf56c1ec2a420,TCN,2024-06-21_13h46.19.033,LearnStrategy,2023.2.3,Linux x86_64,59.88023952,9,1,4,-0.116534323,-0.015839355,1,0,0,0.8282,rock_grid_rect_2,2,14,-1,-1,0.828,0.405442908,-0.232311152,1,0,0,1.6342,Gabbro_rect,4,1.634,0,3,0,3,0,1,,,,,,,,,,,,,
629642bfde2bf56c1ec2a420,TCN,2024-06-21_13h46.19.033,LearnStrategy,2023.2.3,Linux x86_64,59.88023952,9,1,5,-0.07385318,-0.017300905,1,0,0,0.9975,rock_grid_rect_2,7,06,-1,-1,0.997,0.134888519,-0.403844281,1,0,0,1.6175,Peridotite_rect,7,1.617,1,4,0,4,0,1,,,,,,,,,,,,,
629642bfde2bf56c1ec2a420,TCN,2024-06-21_13h46.19.033,LearnStrategy,2023.2.3,Linux x86_64,59.88023952,9,1,6,-0.114723217,0.005339707,1,0,0,0.7647,rock_grid_rect_2,6,12,-1,-1,0.765,-0.079465486,-0.389894317,1,0,0,1.4216,Pegmatite_rect,6,1.422,1,5,0,5,0,1,,,,,,,,,,,,,
629642bfde2bf56c1ec2a420,TCN,2024-06-21_13h46.19.033,LearnStrategy,2023.2.3,Linux x86_64,59.88023952,9,1,7,0.045046508,0.018038176,1,0,0,1.3478,rock_grid_rect_2,8,14,-1,-1,1.348,0.375427155,-0.415604301,1,0,0,1.0182,Pumice_rect,8,1.018,1,6,0,6,0,1,,,,,,,,,,,,,
629642bfde2bf56c1ec2a420,TCN,2024-06-21_13h46.19.033,LearnStrategy,2023.2.3,Linux x86_64,59.88023952,9,1,8,-0.020260012,-0.007010075,1,0,0,0.8478,rock_grid_rect_2,5,06,-1,-1,0.848,-0.385025047,-0.405721456,1,0,0,1.106,Obsidian_rect,5,1.106,1,7,0,7,0,1,,,,,,,,,,,,,
629642bfde2bf56c1ec2a420,TCN,2024-06-21_13h46.19.033,LearnStrategy,2023.2.3,Linux x86_64,59.88023952,9,1,9,-0.049480021,0.000160274,1,0,0,0.7472,rock_grid_rect_2,7,10,-1,-1,0.747,0.128835881,-0.403793312,1,0,0,1.8546,Peridotite_rect,7,1.855,1,8,0,8,0,1,,,,,,,,,,,,,
629642bfde2bf56c1ec2a420,TCN,2024-06-21_13h46.19.033,LearnStrategy,2023.2.3,Linux x86_64,59.88023952,9,1,10,-0.04240406,-0.010076886,1,0,0,1.3315,rock_grid_rect_2,6,15,-1,-1,1.332,-0.074460969,-0.38879605,1,0,0,1.2171,Pegmatite_rect,6,1.217,1,9,0,9,0,1,,,,,,,,,,,,,
629642bfde2bf56c1ec2a420,TCN,2024-06-21_13h46.19.033,LearnStrategy,2023.2.3,Linux x86_64,59.88023952,9,1,11,-0.019465548,-0.015613699,1,0,0,0.948,rock_grid_rect_2,4,03,-1,-1,0.948,-0.324984343,-0.262054581,1,0,0,1.6048,Andesite_rect,1,1.605,0,10,0,10,0,1,,,,,,,,,,,,,
629642bfde2bf56c1ec2a420,TCN,2024-06-21_13h46.19.033,LearnStrategy,2023.2.3,Linux x86_64,59.88023952,9,1,12,-0.020457575,0.008354038,1,0,0,0.8644,rock_grid_rect_2,1,03,-1,-1,0.864,-0.088785838,-0.23985453,1,0,0,1.1441,Basalt_rect,2,1.144,0,11,0,11,0,1,,,,,,,,,,,,,
629642bfde2bf56c1ec2a420,TCN,2024-06-21_13h46.19.033,LearnStrategy,2023.2.3,Linux x86_64,59.88023952,9,1,13,-0.017905354,-0.018925016,1,0,0,0.8307,rock_grid_rect_2,8,03,-1,-1,0.831,0.386052305,-0.407504835,1,0,0,1.1191,Pumice_rect,8,1.119,1,12,0,12,0,1,,,,,,,,,,,,,
629642bfde2bf56c1ec2a420,TCN,2024-06-21_13h46.19.033,LearnStrategy,2023.2.3,Linux x86_64,59.88023952,9,1,14,-0.051226981,-0.012788421,1,0,0,0.7818,rock_grid_rect_2,3,16,-1,-1,0.782,0.09227079,-0.258128336,1,0,0,1.1459,Diorite_rect,3,1.146,1,13,0,13,0,1,,,,,,,,,,,,,
629642bfde2bf56c1ec2a420,TCN,2024-06-21_13h46.19.033,LearnStrategy,2023.2.3,Linux x86_64,59.88023952,9,1,15,-0.002048567,0.0069053,1,0,0,0.8648,rock_grid_rect_2,3,15,-1,-1,0.865,0.078966498,-0.236011694,1,0,0,2.2744,Diorite_rect,3,2.274,1,14,0,14,0,1,,,,,,,,,,,,,
629642bfde2bf56c1ec2a420,TCN,2024-06-21_13h46.19.033,LearnStrategy,2023.2.3,Linux x86_64,59.88023952,9,1,16,-0.068389755,-0.018556426,1,0,0,0.7147,rock_grid_rect_2,2,11,-1,-1,0.715,-0.112735502,-0.269324902,1,0,0,1.1675,Basalt_rect,2,1.168,1,15,0,15,0,1,,,,,,,,,,,,,
629642bfde2bf56c1ec2a420,TCN,2024-06-21_13h46.19.033,LearnStrategy,2023.2.3,Linux x86_64,59.88023952,9,2,1,,,,,,,,6,03,,,,,,,,,,,6,1.565,1,,,,,,-0.091379237,-0.384485614,1,0,0,1.5654,Pegmatite_rect,0,0,0,0,1,
629642bfde2bf56c1ec2a420,TCN,2024-06-21_13h46.19.033,LearnStrategy,2023.2.3,Linux x86_64,59.88023952,9,2,2,,,,,,,,6,05,,,,,,,,,,,6,1.236,1,,,,,,-0.091379237,-0.384485614,1,0,0,1.236,Pegmatite_rect,1,0,1,0,1,
629642bfde2bf56c1ec2a420,TCN,2024-06-21_13h46.19.033,LearnStrategy,2023.2.3,Linux x86_64,59.88023952,9,2,3,,,,,,,,4,14,,,,,,,,,,,4,1.605,1,,,,,,0.387289022,-0.257443132,1,0,0,1.6045,Gabbro_rect,2,0,2,0,1,
629642bfde2bf56c1ec2a420,TCN,2024-06-21_13h46.19.033,LearnStrategy,2023.2.3,Linux x86_64,59.88023952,9,2,4,,,,,,,,1,02,,,,,,,,,,,1,1.747,1,,,,,,-0.356197283,-0.254082401,1,0,0,1.7473,Andesite_rect,3,0,3,0,1,
629642bfde2bf56c1ec2a420,TCN,2024-06-21_13h46.19.033,LearnStrategy,2023.2.3,Linux x86_64,59.88023952,9,2,5,,,,,,,,7,13,,,,,,,,,,,7,1.166,1,,,,,,0.093960375,-0.394521276,1,0,0,1.1663,Peridotite_rect,4,0,4,0,1,
629642bfde2bf56c1ec2a420,TCN,2024-06-21_13h46.19.033,LearnStrategy,2023.2.3,Linux x86_64,59.88023952,9,2,6,,,,,,,,2,05,,,,,,,,,,,2,1.273,1,,,,,,-0.09922532,-0.268510215,1,0,0,1.2731,Basalt_rect,5,0,5,0,1,
629642bfde2bf56c1ec2a420,TCN,2024-06-21_13h46.19.033,LearnStrategy,2023.2.3,Linux x86_64,59.88023952,9,2,7,,,,,,,,1,09,,,,,,,,,,,1,1.275,1,,,,,,-0.362956126,-0.26324289,1,0,0,1.275,Andesite_rect,6,0,6,0,1,
629642bfde2bf56c1ec2a420,TCN,2024-06-21_13h46.19.033,LearnStrategy,2023.2.3,Linux x86_64,59.88023952,9,2,8,,,,,,,,5,16,,,,,,,,,,,5,0.884,1,,,,,,-0.348328415,-0.389850485,1,0,0,0.8839,Obsidian_rect,7,0,7,0,1,
629642bfde2bf56c1ec2a420,TCN,2024-06-21_13h46.19.033,LearnStrategy,2023.2.3,Linux x86_64,59.88023952,9,2,9,,,,,,,,3,14,,,,,,,,,,,3,2.036,1,,,,,,0.120050387,-0.252141675,1,0,0,2.0362,Diorite_rect,8,0,8,0,1,
629642bfde2bf56c1ec2a420,TCN,2024-06-21_13h46.19.033,LearnStrategy,2023.2.3,Linux x86_64,59.88023952,9,2,10,,,,,,,,3,07,,,,,,,,,,,3,0.73,1,,,,,,0.120050387,-0.252141675,1,0,0,0.73,Diorite_rect,9,0,9,0,1,
629642bfde2bf56c1ec2a420,TCN,2024-06-21_13h46.19.033,LearnStrategy,2023.2.3,Linux x86_64,59.88023952,9,2,11,,,,,,,,5,08,,,,,,,,,,,5,1.222,1,,,,,,-0.331203249,-0.40815847,1,0,0,1.2221,Obsidian_rect,10,0,10,0,1,
629642bfde2bf56c1ec2a420,TCN,2024-06-21_13h46.19.033,LearnStrategy,2023.2.3,Linux x86_64,59.88023952,9,2,12,,,,,,,,8,06,,,,,,,,,,,8,1.175,1,,,,,,0.42470952,-0.393069426,1,0,0,1.1749,Pumice_rect,11,0,11,0,1,
629642bfde2bf56c1ec2a420,TCN,2024-06-21_13h46.19.033,LearnStrategy,2023.2.3,Linux x86_64,59.88023952,9,2,13,,,,,,,,4,08,,,,,,,,,,,4,4.823,1,,,,,,0.339501422,-0.232965747,1,0,0,4.823,Gabbro_rect,12,0,12,0,1,
629642bfde2bf56c1ec2a420,TCN,2024-06-21_13h46.19.033,LearnStrategy,2023.2.3,Linux x86_64,59.88023952,9,2,14,,,,,,,,7,04,,,,,,,,,,,7,3.07,1,,,,,,0.143376249,-0.414721991,1,0,0,3.07,Peridotite_rect,13,0,13,0,1,
629642bfde2bf56c1ec2a420,TCN,2024-06-21_13h46.19.033,LearnStrategy,2023.2.3,Linux x86_64,59.88023952,9,2,15,,,,,,,,8,13,,,,,,,,,,,8,1.434,1,,,,,,0.37590656,-0.418437815,1,0,0,1.4337,Pumice_rect,14,0,14,0,1,
629642bfde2bf56c1ec2a420,TCN,2024-06-21_13h46.19.033,LearnStrategy,2023.2.3,Linux x86_64,59.88023952,9,2,16,,,,,,,,2,01,,,,,,,,,,,2,1.334,1,,,,,,-0.092657773,-0.265969066,1,0,0,1.3339,Basalt_rect,15,0,15,0,1,
629642bfde2bf56c1ec2a420,TCN,2024-06-21_13h46.19.033,LearnStrategy,2023.2.3,Linux x86_64,59.88023952,,,,,,,,,,,,,,,,,,,,,,,,,,,,,,,,,,,,,,,,,,,1
629642bfde2bf56c1ec2a420,TCN,2024-06-21_13h46.19.033,LearnStrategy,2023.2.3,Linux x86_64,59.88023952,,,,,,,,,,,,,,,,,,,,,,,,,,,,,,,,,,,,,,,,,,,
629642bfde2bf56c1ec2a420,TCN,2024-06-21_13h46.19.033,LearnStrategy,2023.2.3,Linux x86_64,59.88023952,,,,,,,,,,,6,12,1,1,,,,,,,,,,,,,,,,,,,,,,,,,,,,,
629642bfde2bf56c1ec2a420,TCN,2024-06-21_13h46.19.033,LearnStrategy,2023.2.3,Linux x86_64,59.88023952,,,,,,,,,,,3,02,1,2,,,,,,,,,,,,,,,,,,,,,,,,,,,,,
629642bfde2bf56c1ec2a420,TCN,2024-06-21_13h46.19.033,LearnStrategy,2023.2.3,Linux x86_64,59.88023952,,,,,,,,,,,4,15,1,3,,,,,,,,,,,,,,,,,,,,,,,,,,,,,
629642bfde2bf56c1ec2a420,TCN,2024-06-21_13h46.19.033,LearnStrategy,2023.2.3,Linux x86_64,59.88023952,,,,,,,,,,,8,10,1,4,,,,,,,,,,,,,,,,,,,,,,,,,,,,,
629642bfde2bf56c1ec2a420,TCN,2024-06-21_13h46.19.033,LearnStrategy,2023.2.3,Linux x86_64,59.88023952,,,,,,,,,,,8,14,1,5,,,,,,,,,,,,,,,,,,,,,,,,,,,,,
629642bfde2bf56c1ec2a420,TCN,2024-06-21_13h46.19.033,LearnStrategy,2023.2.3,Linux x86_64,59.88023952,,,,,,,,,,,6,10,1,6,,,,,,,,,,,,,,,,,,,,,,,,,,,,,
629642bfde2bf56c1ec2a420,TCN,2024-06-21_13h46.19.033,LearnStrategy,2023.2.3,Linux x86_64,59.88023952,,,,,,,,,,,4,03,1,7,,,,,,,,,,,,,,,,,,,,,,,,,,,,,
629642bfde2bf56c1ec2a420,TCN,2024-06-21_13h46.19.033,LearnStrategy,2023.2.3,Linux x86_64,59.88023952,,,,,,,,,,,6,15,1,8,,,,,,,,,,,,,,,,,,,,,,,,,,,,,
629642bfde2bf56c1ec2a420,TCN,2024-06-21_13h46.19.033,LearnStrategy,2023.2.3,Linux x86_64,59.88023952,,,,,,,,,,,7,10,2,1,,,,,,,,,,,,,,,,,,,,,,,,,,,,,
629642bfde2bf56c1ec2a420,TCN,2024-06-21_13h46.19.033,LearnStrategy,2023.2.3,Linux x86_64,59.88023952,,,,,,,,,,,1,14,2,2,,,,,,,,,,,,,,,,,,,,,,,,,,,,,
629642bfde2bf56c1ec2a420,TCN,2024-06-21_13h46.19.033,LearnStrategy,2023.2.3,Linux x86_64,59.88023952,,,,,,,,,,,2,14,2,3,,,,,,,,,,,,,,,,,,,,,,,,,,,,,
629642bfde2bf56c1ec2a420,TCN,2024-06-21_13h46.19.033,LearnStrategy,2023.2.3,Linux x86_64,59.88023952,,,,,,,,,,,2,11,2,4,,,,,,,,,,,,,,,,,,,,,,,,,,,,,
629642bfde2bf56c1ec2a420,TCN,2024-06-21_13h46.19.033,LearnStrategy,2023.2.3,Linux x86_64,59.88023952,,,,,,,,,,,7,16,2,5,,,,,,,,,,,,,,,,,,,,,,,,,,,,,
629642bfde2bf56c1ec2a420,TCN,2024-06-21_13h46.19.033,LearnStrategy,2023.2.3,Linux x86_64,59.88023952,,,,,,,,,,,5,14,2,6,,,,,,,,,,,,,,,,,,,,,,,,,,,,,
629642bfde2bf56c1ec2a420,TCN,2024-06-21_13h46.19.033,LearnStrategy,2023.2.3,Linux x86_64,59.88023952,,,,,,,,,,,4,11,2,7,,,,,,,,,,,,,,,,,,,,,,,,,,,,,
629642bfde2bf56c1ec2a420,TCN,2024-06-21_13h46.19.033,LearnStrategy,2023.2.3,Linux x86_64,59.88023952,,,,,,,,,,,2,06,2,8,,,,,,,,,,,,,,,,,,,,,,,,,,,,,
629642bfde2bf56c1ec2a420,TCN,2024-06-21_13h46.19.033,LearnStrategy,2023.2.3,Linux x86_64,59.88023952,,,,,,,,,,,8,16,3,1,,,,,,,,,,,,,,,,,,,,,,,,,,,,,
629642bfde2bf56c1ec2a420,TCN,2024-06-21_13h46.19.033,LearnStrategy,2023.2.3,Linux x86_64,59.88023952,,,,,,,,,,,7,14,3,2,,,,,,,,,,,,,,,,,,,,,,,,,,,,,
629642bfde2bf56c1ec2a420,TCN,2024-06-21_13h46.19.033,LearnStrategy,2023.2.3,Linux x86_64,59.88023952,,,,,,,,,,,8,15,3,3,,,,,,,,,,,,,,,,,,,,,,,,,,,,,
629642bfde2bf56c1ec2a420,TCN,2024-06-21_13h46.19.033,LearnStrategy,2023.2.3,Linux x86_64,59.88023952,,,,,,,,,,,2,09,3,4,,,,,,,,,,,,,,,,,,,,,,,,,,,,,
629642bfde2bf56c1ec2a420,TCN,2024-06-21_13h46.19.033,LearnStrategy,2023.2.3,Linux x86_64,59.88023952,,,,,,,,,,,7,06,3,5,,,,,,,,,,,,,,,,,,,,,,,,,,,,,
629642bfde2bf56c1ec2a420,TCN,2024-06-21_13h46.19.033,LearnStrategy,2023.2.3,Linux x86_64,59.88023952,,,,,,,,,,,4,16,3,6,,,,,,,,,,,,,,,,,,,,,,,,,,,,,
629642bfde2bf56c1ec2a420,TCN,2024-06-21_13h46.19.033,LearnStrategy,2023.2.3,Linux x86_64,59.88023952,,,,,,,,,,,3,10,3,7,,,,,,,,,,,,,,,,,,,,,,,,,,,,,
629642bfde2bf56c1ec2a420,TCN,2024-06-21_13h46.19.033,LearnStrategy,2023.2.3,Linux x86_64,59.88023952,,,,,,,,,,,6,11,3,8,,,,,,,,,,,,,,,,,,,,,,,,,,,,,
629642bfde2bf56c1ec2a420,TCN,2024-06-21_13h46.19.033,LearnStrategy,2023.2.3,Linux x86_64,59.88023952,,,,,,,,,,,3,15,4,1,,,,,,,,,,,,,,,,,,,,,,,,,,,,,
629642bfde2bf56c1ec2a420,TCN,2024-06-21_13h46.19.033,LearnStrategy,2023.2.3,Linux x86_64,59.88023952,,,,,,,,,,,3,09,4,2,,,,,,,,,,,,,,,,,,,,,,,,,,,,,
629642bfde2bf56c1ec2a420,TCN,2024-06-21_13h46.19.033,LearnStrategy,2023.2.3,Linux x86_64,59.88023952,,,,,,,,,,,8,03,4,3,,,,,,,,,,,,,,,,,,,,,,,,,,,,,
629642bfde2bf56c1ec2a420,TCN,2024-06-21_13h46.19.033,LearnStrategy,2023.2.3,Linux x86_64,59.88023952,,,,,,,,,,,4,01,4,4,,,,,,,,,,,,,,,,,,,,,,,,,,,,,
629642bfde2bf56c1ec2a420,TCN,2024-06-21_13h46.19.033,LearnStrategy,2023.2.3,Linux x86_64,59.88023952,,,,,,,,,,,1,05,4,5,,,,,,,,,,,,,,,,,,,,,,,,,,,,,
629642bfde2bf56c1ec2a420,TCN,2024-06-21_13h46.19.033,LearnStrategy,2023.2.3,Linux x86_64,59.88023952,,,,,,,,,,,5,06,4,6,,,,,,,,,,,,,,,,,,,,,,,,,,,,,
629642bfde2bf56c1ec2a420,TCN,2024-06-21_13h46.19.033,LearnStrategy,2023.2.3,Linux x86_64,59.88023952,,,,,,,,,,,5,05,4,7,,,,,,,,,,,,,,,,,,,,,,,,,,,,,
629642bfde2bf56c1ec2a420,TCN,2024-06-21_13h46.19.033,LearnStrategy,2023.2.3,Linux x86_64,59.88023952,,,,,,,,,,,5,12,4,8,,,,,,,,,,,,,,,,,,,,,,,,,,,,,
629642bfde2bf56c1ec2a420,TCN,2024-06-21_13h46.19.033,LearnStrategy,2023.2.3,Linux x86_64,59.88023952,,,,,,,,,,,5,02,5,1,,,,,,,,,,,,,,,,,,,,,,,,,,,,,
629642bfde2bf56c1ec2a420,TCN,2024-06-21_13h46.19.033,LearnStrategy,2023.2.3,Linux x86_64,59.88023952,,,,,,,,,,,1,10,5,2,,,,,,,,,,,,,,,,,,,,,,,,,,,,,
629642bfde2bf56c1ec2a420,TCN,2024-06-21_13h46.19.033,LearnStrategy,2023.2.3,Linux x86_64,59.88023952,,,,,,,,,,,7,07,5,3,,,,,,,,,,,,,,,,,,,,,,,,,,,,,
629642bfde2bf56c1ec2a420,TCN,2024-06-21_13h46.19.033,LearnStrategy,2023.2.3,Linux x86_64,59.88023952,,,,,,,,,,,6,06,5,4,,,,,,,,,,,,,,,,,,,,,,,,,,,,,
629642bfde2bf56c1ec2a420,TCN,2024-06-21_13h46.19.033,LearnStrategy,2023.2.3,Linux x86_64,59.88023952,,,,,,,,,,,4,13,5,5,,,,,,,,,,,,,,,,,,,,,,,,,,,,,
629642bfde2bf56c1ec2a420,TCN,2024-06-21_13h46.19.033,LearnStrategy,2023.2.3,Linux x86_64,59.88023952,,,,,,,,,,,2,08,5,6,,,,,,,,,,,,,,,,,,,,,,,,,,,,,
629642bfde2bf56c1ec2a420,TCN,2024-06-21_13h46.19.033,LearnStrategy,2023.2.3,Linux x86_64,59.88023952,,,,,,,,,,,5,11,5,7,,,,,,,,,,,,,,,,,,,,,,,,,,,,,
629642bfde2bf56c1ec2a420,TCN,2024-06-21_13h46.19.033,LearnStrategy,2023.2.3,Linux x86_64,59.88023952,,,,,,,,,,,8,05,5,8,,,,,,,,,,,,,,,,,,,,,,,,,,,,,
629642bfde2bf56c1ec2a420,TCN,2024-06-21_13h46.19.033,LearnStrategy,2023.2.3,Linux x86_64,59.88023952,,,,,,,,,,,3,16,6,1,,,,,,,,,,,,,,,,,,,,,,,,,,,,,
629642bfde2bf56c1ec2a420,TCN,2024-06-21_13h46.19.033,LearnStrategy,2023.2.3,Linux x86_64,59.88023952,,,,,,,,,,,2,04,6,2,,,,,,,,,,,,,,,,,,,,,,,,,,,,,
629642bfde2bf56c1ec2a420,TCN,2024-06-21_13h46.19.033,LearnStrategy,2023.2.3,Linux x86_64,59.88023952,,,,,,,,,,,1,11,6,3,,,,,,,,,,,,,,,,,,,,,,,,,,,,,
629642bfde2bf56c1ec2a420,TCN,2024-06-21_13h46.19.033,LearnStrategy,2023.2.3,Linux x86_64,59.88023952,,,,,,,,,,,1,04,6,4,,,,,,,,,,,,,,,,,,,,,,,,,,,,,
629642bfde2bf56c1ec2a420,TCN,2024-06-21_13h46.19.033,LearnStrategy,2023.2.3,Linux x86_64,59.88023952,,,,,,,,,,,1,03,6,5,,,,,,,,,,,,,,,,,,,,,,,,,,,,,
629642bfde2bf56c1ec2a420,TCN,2024-06-21_13h46.19.033,LearnStrategy,2023.2.3,Linux x86_64,59.88023952,,,,,,,,,,,6,16,6,6,,,,,,,,,,,,,,,,,,,,,,,,,,,,,
629642bfde2bf56c1ec2a420,TCN,2024-06-21_13h46.19.033,LearnStrategy,2023.2.3,Linux x86_64,59.88023952,,,,,,,,,,,7,15,6,7,,,,,,,,,,,,,,,,,,,,,,,,,,,,,
629642bfde2bf56c1ec2a420,TCN,2024-06-21_13h46.19.033,LearnStrategy,2023.2.3,Linux x86_64,59.88023952,,,,,,,,,,,3,11,6,8,,,,,,,,,,,,,,,,,,,,,,,,,,,,,