participant,condition,date,expName,psychopyVersion,OS,frameRate,block,phase,trial,learn_mouse_2.x,learn_mouse_2.y,learn_mouse_2.leftButton,learn_mouse_2.midButton,learn_mouse_2.rightButton,learn_mouse_2.time,learn_mouse_2.clicked_name,cat,token,row,col,t_select,cat_mouse_l.x,cat_mouse_l.y,cat_mouse_l.leftButton,cat_mouse_l.midButton,cat_mouse_l.rightButton,cat_mouse_l.time,cat_mouse_l.clicked_name,resp,t_resp,corr,train_trials.thisRepN,train_trials.thisTrialN,train_trials.thisN,train_trials.thisIndex,train_trials.ran,cat_mouse_t.x,cat_mouse_t.y,cat_mouse_t.leftButton,cat_mouse_t.midButton,cat_mouse_t.rightButton,cat_mouse_t.time,cat_mouse_t.clicked_name,test_trials.thisRepN,test_trials.thisTrialN,test_trials.thisN,test_trials.thisIndex,test_trials.ran,Bonus
629d16db307da2e64ea7b1e7,TCN,2024-06-20_13h30.22.351,LearnStrategy,2023.2.3,Win32,59.88023952,,,,,,,,,,,,,,,,,,,,,,,,,,,,,,,,,,,,,,,,,,,
629d16db307da2e64ea7b1e7,TCN,2024-06-20_13h30.22.351,LearnStrategy,2023.2.3,Win32,59.88023952,1,1,1,0.001851852,0.008333333,1,0,0,2.8945,rock_grid_rect_2,7,16,-1,-1,2.894,-0.096296296,-0.269444444,1,0,0,3.6707,Basalt_rect,2,3.671,0,0,0,0,0,1,,,,,,,,,,,,,
629d16db307da2e64ea7b1e7,TCN,2024-06-20_13h30.22.351,LearnStrategy,2023.2.3,Win32,59.88023952,1,1,2,0.140740741,0.005555556,1,0,0,2.9545,rock_grid_rect_2,3,11,-1,-1,2.954,-0.40462963,-0.250925926,1,0,0,11.8653,Andesite_rect,1,11.865,0,1,0,1,0,1,,,,,,,,,,,,,
629d16db307da2e64ea7b1e7,TCN,2024-06-20_13h30.22.351,LearnStrategy,2023.2.3,Win32,59.88023952,1,1,3,0.090740741,0.002777778,1,0,0,3.3896,rock_grid_rect_2,8,09,-1,-1,3.39,0.390740741,-0.396296296,1,0,0,3.0804,Pumice_rect,8,3.08,1,2,0,2,0,1,,,,,,,,,,,,,
629d16db307da2e64ea7b1e7,TCN,2024-06-20_13h30.22.351,LearnStrategy,2023.2.3,Win32,59.88023952,1,1,4,-0.017592593,-0.013888889,1,0,0,1.4452,rock_grid_rect_2,6,12,-1,-1,1.445,-0.383333333,-0.230555556,1,0,0,11.825,Andesite_rect,1,11.825,0,3,0,3,0,1,,,,,,,,,,,,,
629d16db307da2e64ea7b1e7,TCN,2024-06-20_13h30.22.351,LearnStrategy,2023.2.3,Win32,59.88023952,1,1,5,0.010185185,0.005555556,1,0,0,2.1956,rock_grid_rect_2,7,05,-1,-1,2.196,-0.430555556,-0.262037037,1,0,0,9.3722,Andesite_rect,1,9.372,0,4,0,4,0,1,,,,,,,,,,,,,
629d16db307da2e64ea7b1e7,TCN,2024-06-20_13h30.22.351,LearnStrategy,2023.2.3,Win32,59.88023952,1,1,6,0.018518519,-0.001851852,1,0,0,2.8738,rock_grid_rect_2,1,16,-1,-1,2.874,-0.446296296,-0.246296296,1,0,0,14.7225,Andesite_rect,1,14.723,1,5,0,5,0,1,,,,,,,,,,,,,
629d16db307da2e64ea7b1e7,TCN,2024-06-20_13h30.22.351,LearnStrategy,2023.2.3,Win32,59.88023952,1,1,7,0.022222222,-0.010185185,1,0,0,1.4397,rock_grid_rect_2,5,11,-1,-1,1.44,-0.40462963,-0.396296296,1,0,0,2.6119,Obsidian_rect,5,2.612,1,6,0,6,0,1,,,,,,,,,,,,,
629d16db307da2e64ea7b1e7,TCN,2024-06-20_13h30.22.351,LearnStrategy,2023.2.3,Win32,59.88023952,1,1,8,-0.060185185,0,1,0,0,1.5617,rock_grid_rect_2,3,08,-1,-1,1.562,0.119444444,-0.261111111,1,0,0,7.1765,Diorite_rect,3,7.177,1,7,0,7,0,1,,,,,,,,,,,,,
629d16db307da2e64ea7b1e7,TCN,2024-06-20_13h30.22.351,LearnStrategy,2023.2.3,Win32,59.88023952,1,1,9,-0.060185185,0.003703704,1,0,0,1.339,rock_grid_rect_2,1,03,-1,-1,1.339,0.37962963,-0.247222222,1,0,0,5.6609,Gabbro_rect,4,5.661,0,8,0,8,0,1,,,,,,,,,,,,,
629d16db307da2e64ea7b1e7,TCN,2024-06-20_13h30.22.351,LearnStrategy,2023.2.3,Win32,59.88023952,1,1,10,-0.091666667,0.010185185,1,0,0,1.4461,rock_grid_rect_2,8,04,-1,-1,1.446,0.416666667,-0.380555556,1,0,0,2.9274,Pumice_rect,8,2.927,1,9,0,9,0,1,,,,,,,,,,,,,
629d16db307da2e64ea7b1e7,TCN,2024-06-20_13h30.22.351,LearnStrategy,2023.2.3,Win32,59.88023952,1,1,11,0.006481481,-0.011111111,1,0,0,1.1282,rock_grid_rect_2,6,09,-1,-1,1.128,0.334259259,-0.236111111,1,0,0,3.1787,Gabbro_rect,4,3.179,0,10,0,10,0,1,,,,,,,,,,,,,
629d16db307da2e64ea7b1e7,TCN,2024-06-20_13h30.22.351,LearnStrategy,2023.2.3,Win32,59.88023952,1,1,12,-0.008333333,-0.010185185,1,0,0,1.1427,rock_grid_rect_2,4,13,-1,-1,1.143,-0.440740741,-0.252777778,1,0,0,9.9768,Andesite_rect,1,9.977,0,11,0,11,0,1,,,,,,,,,,,,,
629d16db307da2e64ea7b1e7,TCN,2024-06-20_13h30.22.351,LearnStrategy,2023.2.3,Win32,59.88023952,1,1,13,-0.051851852,-0.00462963,1,0,0,1.5504,rock_grid_rect_2,4,12,-1,-1,1.55,-0.324074074,-0.271296296,1,0,0,6.661,Andesite_rect,1,6.661,0,12,0,12,0,1,,,,,,,,,,,,,
629d16db307da2e64ea7b1e7,TCN,2024-06-20_13h30.22.351,LearnStrategy,2023.2.3,Win32,59.88023952,1,1,14,-0.015740741,0.014814815,1,0,0,1.6179,rock_grid_rect_2,2,01,-1,-1,1.618,-0.117592593,-0.243518519,1,0,0,6.2177,Basalt_rect,2,6.218,1,13,0,13,0,1,,,,,,,,,,,,,
629d16db307da2e64ea7b1e7,TCN,2024-06-20_13h30.22.351,LearnStrategy,2023.2.3,Win32,59.88023952,1,1,15,-0.034259259,0.011111111,1,0,0,1.428,rock_grid_rect_2,2,06,-1,-1,1.428,-0.112962963,-0.239814815,1,0,0,1.7114,Basalt_rect,2,1.711,1,14,0,14,0,1,,,,,,,,,,,,,
629d16db307da2e64ea7b1e7,TCN,2024-06-20_13h30.22.351,LearnStrategy,2023.2.3,Win32,59.88023952,1,1,16,-0.041666667,0.005555556,1,0,0,1.3305,rock_grid_rect_2,5,10,-1,-1,1.33,-0.386111111,-0.413888889,1,0,0,2.7289,Obsidian_rect,5,2.729,1,15,0,15,0,1,,,,,,,,,,,,,
629d16db307da2e64ea7b1e7,TCN,2024-06-20_13h30.22.351,LearnStrategy,2023.2.3,Win32,59.88023952,1,2,1,,,,,,,,6,07,,,,,,,,,,,1,11.248,0,,,,,,-0.375,-0.252777778,1,0,0,11.2478,Andesite_rect,0,0,0,0,1,
629d16db307da2e64ea7b1e7,TCN,2024-06-20_13h30.22.351,LearnStrategy,2023.2.3,Win32,59.88023952,1,2,2,,,,,,,,3,12,,,,,,,,,,,6,6.257,0,,,,,,-0.131481481,-0.411111111,1,0,0,6.2575,Pegmatite_rect,1,0,1,0,1,
629d16db307da2e64ea7b1e7,TCN,2024-06-20_13h30.22.351,LearnStrategy,2023.2.3,Win32,59.88023952,1,2,3,,,,,,,,3,02,,,,,,,,,,,6,8.667,0,,,,,,-0.12962963,-0.408333333,1,0,0,8.6665,Pegmatite_rect,2,0,2,0,1,
629d16db307da2e64ea7b1e7,TCN,2024-06-20_13h30.22.351,LearnStrategy,2023.2.3,Win32,59.88023952,1,2,4,,,,,,,,7,14,,,,,,,,,,,7,2.042,1,,,,,,0.096296296,-0.391666667,1,0,0,2.0418,Peridotite_rect,3,0,3,0,1,
629d16db307da2e64ea7b1e7,TCN,2024-06-20_13h30.22.351,LearnStrategy,2023.2.3,Win32,59.88023952,1,2,5,,,,,,,,4,01,,,,,,,,,,,6,5.284,0,,,,,,-0.127777778,-0.388888889,1,0,0,5.2844,Pegmatite_rect,4,0,4,0,1,
629d16db307da2e64ea7b1e7,TCN,2024-06-20_13h30.22.351,LearnStrategy,2023.2.3,Win32,59.88023952,1,2,6,,,,,,,,6,13,,,,,,,,,,,1,3.29,0,,,,,,-0.383333333,-0.236111111,1,0,0,3.2902,Andesite_rect,5,0,5,0,1,
629d16db307da2e64ea7b1e7,TCN,2024-06-20_13h30.22.351,LearnStrategy,2023.2.3,Win32,59.88023952,1,2,7,,,,,,,,8,14,,,,,,,,,,,8,3.253,1,,,,,,0.389814815,-0.40462963,1,0,0,3.2529,Pumice_rect,6,0,6,0,1,
629d16db307da2e64ea7b1e7,TCN,2024-06-20_13h30.22.351,LearnStrategy,2023.2.3,Win32,59.88023952,1,2,8,,,,,,,,1,02,,,,,,,,,,,1,3.494,1,,,,,,-0.387037037,-0.255555556,1,0,0,3.4941,Andesite_rect,7,0,7,0,1,
629d16db307da2e64ea7b1e7,TCN,2024-06-20_13h30.22.351,LearnStrategy,2023.2.3,Win32,59.88023952,1,2,9,,,,,,,,5,04,,,,,,,,,,,5,2.611,1,,,,,,-0.402777778,-0.402777778,1,0,0,2.6111,Obsidian_rect,8,0,8,0,1,
629d16db307da2e64ea7b1e7,TCN,2024-06-20_13h30.22.351,LearnStrategy,2023.2.3,Win32,59.88023952,1,2,10,,,,,,,,1,04,,,,,,,,,,,3,4.44,0,,,,,,0.099074074,-0.259259259,1,0,0,4.4398,Diorite_rect,9,0,9,0,1,
629d16db307da2e64ea7b1e7,TCN,2024-06-20_13h30.22.351,LearnStrategy,2023.2.3,Win32,59.88023952,1,2,11,,,,,,,,2,12,,,,,,,,,,,8,2.535,0,,,,,,0.450925926,-0.403703704,1,0,0,2.5347,Pumice_rect,10,0,10,0,1,
629d16db307da2e64ea7b1e7,TCN,2024-06-20_13h30.22.351,LearnStrategy,2023.2.3,Win32,59.88023952,1,2,12,,,,,,,,8,05,,,,,,,,,,,8,1.395,1,,,,,,0.40462963,-0.398148148,1,0,0,1.3948,Pumice_rect,11,0,11,0,1,
629d16db307da2e64ea7b1e7,TCN,2024-06-20_13h30.22.351,LearnStrategy,2023.2.3,Win32,59.88023952,1,2,13,,,,,,,,4,03,,,,,,,,,,,6,4.863,0,,,,,,-0.111111111,-0.39537037,1,0,0,4.8627,Pegmatite_rect,12,0,12,0,1,
629d16db307da2e64ea7b1e7,TCN,2024-06-20_13h30.22.351,LearnStrategy,2023.2.3,Win32,59.88023952,1,2,14,,,,,,,,7,15,,,,,,,,,,,7,1.718,1,,,,,,0.072222222,-0.392592593,1,0,0,1.7184,Peridotite_rect,13,0,13,0,1,
629d16db307da2e64ea7b1e7,TCN,2024-06-20_13h30.22.351,LearnStrategy,2023.2.3,Win32,59.88023952,1,2,15,,,,,,,,2,16,,,,,,,,,,,8,3.517,0,,,,,,0.408333333,-0.392592593,1,0,0,3.517,Pumice_rect,14,0,14,0,1,
629d16db307da2e64ea7b1e7,TCN,2024-06-20_13h30.22.351,LearnStrategy,2023.2.3,Win32,59.88023952,1,2,16,,,,,,,,5,16,,,,,,,,,,,5,1.386,1,,,,,,-0.39537037,-0.403703704,1,0,0,1.3861,Obsidian_rect,15,0,15,0,1,
629d16db307da2e64ea7b1e7,TCN,2024-06-20_13h30.22.351,LearnStrategy,2023.2.3,Win32,59.88023952,2,1,1,-0.002777778,0.00462963,1,0,0,1.882,rock_grid_rect_2,2,08,-1,-1,1.882,-0.084259259,-0.244444444,1,0,0,3.9936,Basalt_rect,2,3.994,1,0,0,0,0,1,,,,,,,,,,,,,
629d16db307da2e64ea7b1e7,TCN,2024-06-20_13h30.22.351,LearnStrategy,2023.2.3,Win32,59.88023952,2,1,2,-0.047222222,-0.013888889,1,0,0,1.7809,rock_grid_rect_2,7,07,-1,-1,1.781,0.07962963,-0.251851852,1,0,0,4.3754,Diorite_rect,3,4.375,0,1,0,1,0,1,,,,,,,,,,,,,
629d16db307da2e64ea7b1e7,TCN,2024-06-20_13h30.22.351,LearnStrategy,2023.2.3,Win32,59.88023952,2,1,3,-0.014814815,-0.000925926,1,0,0,1.3306,rock_grid_rect_2,5,06,-1,-1,1.331,-0.375925926,-0.415740741,1,0,0,1.6117,Obsidian_rect,5,1.612,1,2,0,2,0,1,,,,,,,,,,,,,
629d16db307da2e64ea7b1e7,TCN,2024-06-20_13h30.22.351,LearnStrategy,2023.2.3,Win32,59.88023952,2,1,4,-0.000925926,-0.008333333,1,0,0,1.0979,rock_grid_rect_2,2,14,-1,-1,1.098,0.359259259,-0.402777778,1,0,0,4.5775,Pumice_rect,8,4.577,0,3,0,3,0,1,,,,,,,,,,,,,
629d16db307da2e64ea7b1e7,TCN,2024-06-20_13h30.22.351,LearnStrategy,2023.2.3,Win32,59.88023952,2,1,5,-0.010185185,0.000925926,1,0,0,1.2313,rock_grid_rect_2,4,15,-1,-1,1.231,-0.412037037,-0.253703704,1,0,0,1.8951,Andesite_rect,1,1.895,0,4,0,4,0,1,,,,,,,,,,,,,
629d16db307da2e64ea7b1e7,TCN,2024-06-20_13h30.22.351,LearnStrategy,2023.2.3,Win32,59.88023952,2,1,6,-0.008333333,-0.016666667,1,0,0,1.0978,rock_grid_rect_2,8,06,-1,-1,1.098,0.368518519,-0.403703704,1,0,0,2.7948,Pumice_rect,8,2.795,1,5,0,5,0,1,,,,,,,,,,,,,
629d16db307da2e64ea7b1e7,TCN,2024-06-20_13h30.22.351,LearnStrategy,2023.2.3,Win32,59.88023952,2,1,7,-0.048148148,0.007407407,1,0,0,0.9978,rock_grid_rect_2,3,14,-1,-1,0.998,0.140740741,-0.239814815,1,0,0,3.7452,Diorite_rect,3,3.745,1,6,0,6,0,1,,,,,,,,,,,,,
629d16db307da2e64ea7b1e7,TCN,2024-06-20_13h30.22.351,LearnStrategy,2023.2.3,Win32,59.88023952,2,1,8,0.039814815,-0.002777778,1,0,0,0.9487,rock_grid_rect_2,1,05,-1,-1,0.949,-0.358333333,-0.265740741,1,0,0,2.8616,Andesite_rect,1,2.862,1,7,0,7,0,1,,,,,,,,,,,,,
629d16db307da2e64ea7b1e7,TCN,2024-06-20_13h30.22.351,LearnStrategy,2023.2.3,Win32,59.88023952,2,1,9,-0.007407407,-0.009259259,1,0,0,1.6559,rock_grid_rect_2,8,15,-1,-1,1.656,0.383333333,-0.409259259,1,0,0,2.3782,Pumice_rect,8,2.378,1,8,0,8,0,1,,,,,,,,,,,,,
629d16db307da2e64ea7b1e7,TCN,2024-06-20_13h30.22.351,LearnStrategy,2023.2.3,Win32,59.88023952,2,1,10,-0.034259259,-0.008333333,1,0,0,1.3459,rock_grid_rect_2,3,07,-1,-1,1.346,0.116666667,-0.244444444,1,0,0,2.6287,Diorite_rect,3,2.629,1,9,0,9,0,1,,,,,,,,,,,,,
629d16db307da2e64ea7b1e7,TCN,2024-06-20_13h30.22.351,LearnStrategy,2023.2.3,Win32,59.88023952,2,1,11,-0.007407407,0,1,0,0,1.2467,rock_grid_rect_2,4,16,-1,-1,1.247,-0.146296296,-0.252777778,1,0,0,2.728,Basalt_rect,2,2.728,0,10,0,10,0,1,,,,,,,,,,,,,
629d16db307da2e64ea7b1e7,TCN,2024-06-20_13h30.22.351,LearnStrategy,2023.2.3,Win32,59.88023952,2,1,12,-0.022222222,0.002777778,1,0,0,0.9964,rock_grid_rect_2,6,16,-1,-1,0.996,0.077777778,-0.237962963,1,0,0,3.7449,Diorite_rect,3,3.745,0,11,0,11,0,1,,,,,,,,,,,,,
629d16db307da2e64ea7b1e7,TCN,2024-06-20_13h30.22.351,LearnStrategy,2023.2.3,Win32,59.88023952,2,1,13,-0.036111111,0.001851852,1,0,0,0.9984,rock_grid_rect_2,7,08,-1,-1,0.998,0.138888889,-0.384259259,1,0,0,2.0116,Peridotite_rect,7,2.012,1,12,0,12,0,1,,,,,,,,,,,,,
629d16db307da2e64ea7b1e7,TCN,2024-06-20_13h30.22.351,LearnStrategy,2023.2.3,Win32,59.88023952,2,1,14,-0.011111111,0.006481481,1,0,0,1.0148,rock_grid_rect_2,5,08,-1,-1,1.015,-0.432407407,-0.412037037,1,0,0,1.4952,Obsidian_rect,5,1.495,1,13,0,13,0,1,,,,,,,,,,,,,
629d16db307da2e64ea7b1e7,TCN,2024-06-20_13h30.22.351,LearnStrategy,2023.2.3,Win32,59.88023952,2,1,15,-0.000925926,-0.016666667,1,0,0,1.0631,rock_grid_rect_2,1,06,-1,-1,1.063,0.098148148,-0.24537037,1,0,0,3.2457,Diorite_rect,3,3.246,0,14,0,14,0,1,,,,,,,,,,,,,
629d16db307da2e64ea7b1e7,TCN,2024-06-20_13h30.22.351,LearnStrategy,2023.2.3,Win32,59.88023952,2,1,16,0.037962963,-0.001851852,1,0,0,1.0802,rock_grid_rect_2,6,06,-1,-1,1.08,0.4,-0.252777778,1,0,0,1.7952,Gabbro_rect,4,1.795,0,15,0,15,0,1,,,,,,,,,,,,,
629d16db307da2e64ea7b1e7,TCN,2024-06-20_13h30.22.351,LearnStrategy,2023.2.3,Win32,59.88023952,2,2,1,,,,,,,,4,09,,,,,,,,,,,2,5.114,0,,,,,,-0.128703704,-0.244444444,1,0,0,5.1143,Basalt_rect,0,0,0,0,1,
629d16db307da2e64ea7b1e7,TCN,2024-06-20_13h30.22.351,LearnStrategy,2023.2.3,Win32,59.88023952,2,2,2,,,,,,,,1,11,,,,,,,,,,,6,5.924,0,,,,,,-0.180555556,-0.394444444,1,0,0,5.9245,Pegmatite_rect,1,0,1,0,1,
629d16db307da2e64ea7b1e7,TCN,2024-06-20_13h30.22.351,LearnStrategy,2023.2.3,Win32,59.88023952,2,2,3,,,,,,,,5,09,,,,,,,,,,,5,1.266,1,,,,,,-0.397222222,-0.410185185,1,0,0,1.2659,Obsidian_rect,2,0,2,0,1,
629d16db307da2e64ea7b1e7,TCN,2024-06-20_13h30.22.351,LearnStrategy,2023.2.3,Win32,59.88023952,2,2,4,,,,,,,,7,10,,,,,,,,,,,7,1.719,1,,,,,,0.096296296,-0.406481481,1,0,0,1.7187,Peridotite_rect,3,0,3,0,1,
629d16db307da2e64ea7b1e7,TCN,2024-06-20_13h30.22.351,LearnStrategy,2023.2.3,Win32,59.88023952,2,2,5,,,,,,,,8,03,,,,,,,,,,,8,1.328,1,,,,,,0.355555556,-0.400925926,1,0,0,1.328,Pumice_rect,4,0,4,0,1,
629d16db307da2e64ea7b1e7,TCN,2024-06-20_13h30.22.351,LearnStrategy,2023.2.3,Win32,59.88023952,2,2,6,,,,,,,,3,16,,,,,,,,,,,3,4.883,1,,,,,,0.076851852,-0.25,1,0,0,4.8828,Diorite_rect,5,0,5,0,1,
629d16db307da2e64ea7b1e7,TCN,2024-06-20_13h30.22.351,LearnStrategy,2023.2.3,Win32,59.88023952,2,2,7,,,,,,,,1,14,,,,,,,,,,,4,1.887,0,,,,,,0.333333333,-0.239814815,1,0,0,1.8867,Gabbro_rect,6,0,6,0,1,
629d16db307da2e64ea7b1e7,TCN,2024-06-20_13h30.22.351,LearnStrategy,2023.2.3,Win32,59.88023952,2,2,8,,,,,,,,6,15,,,,,,,,,,,4,1.219,0,,,,,,0.321296296,-0.25,1,0,0,1.2185,Gabbro_rect,7,0,7,0,1,
629d16db307da2e64ea7b1e7,TCN,2024-06-20_13h30.22.351,LearnStrategy,2023.2.3,Win32,59.88023952,2,2,9,,,,,,,,8,02,,,,,,,,,,,8,1.519,1,,,,,,0.364814815,-0.388888889,1,0,0,1.5189,Pumice_rect,8,0,8,0,1,
629d16db307da2e64ea7b1e7,TCN,2024-06-20_13h30.22.351,LearnStrategy,2023.2.3,Win32,59.88023952,2,2,10,,,,,,,,3,10,,,,,,,,,,,3,1.565,1,,,,,,0.067592593,-0.251851852,1,0,0,1.5647,Diorite_rect,9,0,9,0,1,
629d16db307da2e64ea7b1e7,TCN,2024-06-20_13h30.22.351,LearnStrategy,2023.2.3,Win32,59.88023952,2,2,11,,,,,,,,5,02,,,,,,,,,,,5,1.259,1,,,,,,-0.377777778,-0.381481481,1,0,0,1.2589,Obsidian_rect,10,0,10,0,1,
629d16db307da2e64ea7b1e7,TCN,2024-06-20_13h30.22.351,LearnStrategy,2023.2.3,Win32,59.88023952,2,2,12,,,,,,,,7,12,,,,,,,,,,,7,2.187,1,,,,,,0.032407407,-0.389814815,1,0,0,2.187,Peridotite_rect,11,0,11,0,1,
629d16db307da2e64ea7b1e7,TCN,2024-06-20_13h30.22.351,LearnStrategy,2023.2.3,Win32,59.88023952,2,2,13,,,,,,,,4,08,,,,,,,,,,,2,3.636,0,,,,,,-0.136111111,-0.231481481,1,0,0,3.6362,Basalt_rect,12,0,12,0,1,
629d16db307da2e64ea7b1e7,TCN,2024-06-20_13h30.22.351,LearnStrategy,2023.2.3,Win32,59.88023952,2,2,14,,,,,,,,2,10,,,,,,,,,,,2,1.576,1,,,,,,-0.136111111,-0.262962963,1,0,0,1.5758,Basalt_rect,13,0,13,0,1,
629d16db307da2e64ea7b1e7,TCN,2024-06-20_13h30.22.351,LearnStrategy,2023.2.3,Win32,59.88023952,2,2,15,,,,,,,,6,03,,,,,,,,,,,4,3.603,0,,,,,,0.372222222,-0.244444444,1,0,0,3.6032,Gabbro_rect,14,0,14,0,1,
629d16db307da2e64ea7b1e7,TCN,2024-06-20_13h30.22.351,LearnStrategy,2023.2.3,Win32,59.88023952,2,2,16,,,,,,,,2,04,,,,,,,,,,,2,1.366,1,,,,,,-0.15,-0.255555556,1,0,0,1.3657,Basalt_rect,15,0,15,0,1,
629d16db307da2e64ea7b1e7,TCN,2024-06-20_13h30.22.351,LearnStrategy,2023.2.3,Win32,59.88023952,3,1,1,0.056481481,0.000925926,1,0,0,1.2972,rock_grid_rect_2,5,07,-1,-1,1.297,-0.466666667,-0.384259259,1,0,0,3.6442,Obsidian_rect,5,3.644,1,0,0,0,0,1,,,,,,,,,,,,,
629d16db307da2e64ea7b1e7,TCN,2024-06-20_13h30.22.351,LearnStrategy,2023.2.3,Win32,59.88023952,3,1,2,-0.087037037,-0.007407407,1,0,0,1.9129,rock_grid_rect_2,6,05,-1,-1,1.913,0.111111111,-0.262037037,1,0,0,2.0935,Diorite_rect,3,2.093,0,1,0,1,0,1,,,,,,,,,,,,,
629d16db307da2e64ea7b1e7,TCN,2024-06-20_13h30.22.351,LearnStrategy,2023.2.3,Win32,59.88023952,3,1,3,-0.019444444,0.006481481,1,0,0,1.2803,rock_grid_rect_2,3,15,-1,-1,1.28,-0.126851852,-0.389814815,1,0,0,5.9933,Pegmatite_rect,6,5.993,0,2,0,2,0,1,,,,,,,,,,,,,
629d16db307da2e64ea7b1e7,TCN,2024-06-20_13h30.22.351,LearnStrategy,2023.2.3,Win32,59.88023952,3,1,4,-0.011111111,-0.005555556,1,0,0,1.1965,rock_grid_rect_2,5,05,-1,-1,1.197,-0.425,-0.405555556,1,0,0,2.4779,Obsidian_rect,5,2.478,1,3,0,3,0,1,,,,,,,,,,,,,
629d16db307da2e64ea7b1e7,TCN,2024-06-20_13h30.22.351,LearnStrategy,2023.2.3,Win32,59.88023952,3,1,5,-0.060185185,-0.002777778,1,0,0,1.2649,rock_grid_rect_2,4,11,-1,-1,1.265,0.15,-0.238888889,1,0,0,3.7273,Diorite_rect,3,3.727,0,4,0,4,0,1,,,,,,,,,,,,,
629d16db307da2e64ea7b1e7,TCN,2024-06-20_13h30.22.351,LearnStrategy,2023.2.3,Win32,59.88023952,3,1,6,-0.038888889,-0.007407407,1,0,0,1.7809,rock_grid_rect_2,8,10,-1,-1,1.781,0.387037037,-0.378703704,1,0,0,1.5113,Pumice_rect,8,1.511,1,5,0,5,0,1,,,,,,,,,,,,,
629d16db307da2e64ea7b1e7,TCN,2024-06-20_13h30.22.351,LearnStrategy,2023.2.3,Win32,59.88023952,3,1,7,0.025,-0.021296296,1,0,0,1.1138,rock_grid_rect_2,4,05,-1,-1,1.114,0.111111111,-0.388888889,1,0,0,1.7952,Peridotite_rect,7,1.795,0,6,0,6,0,1,,,,,,,,,,,,,
629d16db307da2e64ea7b1e7,TCN,2024-06-20_13h30.22.351,LearnStrategy,2023.2.3,Win32,59.88023952,3,1,8,-0.012037037,0.016666667,1,0,0,0.8482,rock_grid_rect_2,2,11,-1,-1,0.848,-0.113888889,-0.250925926,1,0,0,3.9779,Basalt_rect,2,3.978,1,7,0,7,0,1,,,,,,,,,,,,,
629d16db307da2e64ea7b1e7,TCN,2024-06-20_13h30.22.351,LearnStrategy,2023.2.3,Win32,59.88023952,3,1,9,-0.092592593,-0.008333333,1,0,0,1.2143,rock_grid_rect_2,1,10,-1,-1,1.214,-0.125925926,-0.240740741,1,0,0,1.7608,Basalt_rect,2,1.761,0,8,0,8,0,1,,,,,,,,,,,,,
629d16db307da2e64ea7b1e7,TCN,2024-06-20_13h30.22.351,LearnStrategy,2023.2.3,Win32,59.88023952,3,1,10,-0.055555556,-0.014814815,1,0,0,1.2638,rock_grid_rect_2,1,07,-1,-1,1.264,0.101851852,-0.261111111,1,0,0,1.4291,Diorite_rect,3,1.429,0,9,0,9,0,1,,,,,,,,,,,,,
629d16db307da2e64ea7b1e7,TCN,2024-06-20_13h30.22.351,LearnStrategy,2023.2.3,Win32,59.88023952,3,1,11,-0.061111111,0.000925926,1,0,0,0.8977,rock_grid_rect_2,3,09,-1,-1,0.898,0.088888889,-0.262962963,1,0,0,1.2125,Diorite_rect,3,1.212,1,10,0,10,0,1,,,,,,,,,,,,,
629d16db307da2e64ea7b1e7,TCN,2024-06-20_13h30.22.351,LearnStrategy,2023.2.3,Win32,59.88023952,3,1,12,-0.071296296,-0.018518519,1,0,0,0.9983,rock_grid_rect_2,2,02,-1,-1,0.998,-0.143518519,-0.266666667,1,0,0,1.2788,Basalt_rect,2,1.279,1,11,0,11,0,1,,,,,,,,,,,,,
629d16db307da2e64ea7b1e7,TCN,2024-06-20_13h30.22.351,LearnStrategy,2023.2.3,Win32,59.88023952,3,1,13,-0.074074074,-0.008333333,1,0,0,0.8819,rock_grid_rect_2,7,06,-1,-1,0.882,0.092592593,-0.388888889,1,0,0,1.8453,Peridotite_rect,7,1.845,1,12,0,12,0,1,,,,,,,,,,,,,
629d16db307da2e64ea7b1e7,TCN,2024-06-20_13h30.22.351,LearnStrategy,2023.2.3,Win32,59.88023952,3,1,14,-0.046296296,-0.002777778,1,0,0,1.0149,rock_grid_rect_2,8,08,-1,-1,1.015,0.428703704,-0.407407407,1,0,0,1.6287,Pumice_rect,8,1.629,1,13,0,13,0,1,,,,,,,,,,,,,
629d16db307da2e64ea7b1e7,TCN,2024-06-20_13h30.22.351,LearnStrategy,2023.2.3,Win32,59.88023952,3,1,15,0.055555556,0.002777778,1,0,0,1.4298,rock_grid_rect_2,6,11,-1,-1,1.43,0.334259259,-0.257407407,1,0,0,1.7462,Gabbro_rect,4,1.746,0,14,0,14,0,1,,,,,,,,,,,,,
629d16db307da2e64ea7b1e7,TCN,2024-06-20_13h30.22.351,LearnStrategy,2023.2.3,Win32,59.88023952,3,1,16,-0.055555556,-0.003703704,1,0,0,1.409,rock_grid_rect_2,7,02,-1,-1,1.409,0.157407407,-0.390740741,1,0,0,1.3953,Peridotite_rect,7,1.395,1,15,0,15,0,1,,,,,,,,,,,,,
629d16db307da2e64ea7b1e7,TCN,2024-06-20_13h30.22.351,LearnStrategy,2023.2.3,Win32,59.88023952,3,2,1,,,,,,,,3,06,,,,,,,,,,,3,4.278,1,,,,,,0.09537037,-0.233333333,1,0,0,4.2776,Diorite_rect,0,0,0,0,1,
629d16db307da2e64ea7b1e7,TCN,2024-06-20_13h30.22.351,LearnStrategy,2023.2.3,Win32,59.88023952,3,2,2,,,,,,,,7,04,,,,,,,,,,,7,1.743,1,,,,,,0.081481481,-0.402777778,1,0,0,1.7434,Peridotite_rect,1,0,1,0,1,
629d16db307da2e64ea7b1e7,TCN,2024-06-20_13h30.22.351,LearnStrategy,2023.2.3,Win32,59.88023952,3,2,3,,,,,,,,3,13,,,,,,,,,,,1,2.496,0,,,,,,-0.40462963,-0.267592593,1,0,0,2.4958,Andesite_rect,2,0,2,0,1,
629d16db307da2e64ea7b1e7,TCN,2024-06-20_13h30.22.351,LearnStrategy,2023.2.3,Win32,59.88023952,3,2,4,,,,,,,,4,10,,,,,,,,,,,2,1.586,0,,,,,,-0.137962963,-0.249074074,1,0,0,1.5858,Basalt_rect,3,0,3,0,1,
629d16db307da2e64ea7b1e7,TCN,2024-06-20_13h30.22.351,LearnStrategy,2023.2.3,Win32,59.88023952,3,2,5,,,,,,,,5,12,,,,,,,,,,,5,1.149,1,,,,,,-0.340740741,-0.396296296,1,0,0,1.1494,Obsidian_rect,4,0,4,0,1,
629d16db307da2e64ea7b1e7,TCN,2024-06-20_13h30.22.351,LearnStrategy,2023.2.3,Win32,59.88023952,3,2,6,,,,,,,,5,14,,,,,,,,,,,5,1.224,1,,,,,,-0.340740741,-0.416666667,1,0,0,1.2241,Obsidian_rect,5,0,5,0,1,
629d16db307da2e64ea7b1e7,TCN,2024-06-20_13h30.22.351,LearnStrategy,2023.2.3,Win32,59.88023952,3,2,7,,,,,,,,6,10,,,,,,,,,,,7,1.41,0,,,,,,0.137037037,-0.4,1,0,0,1.4097,Peridotite_rect,6,0,6,0,1,
629d16db307da2e64ea7b1e7,TCN,2024-06-20_13h30.22.351,LearnStrategy,2023.2.3,Win32,59.88023952,3,2,8,,,,,,,,8,16,,,,,,,,,,,8,1.665,1,,,,,,0.40462963,-0.403703704,1,0,0,1.6653,Pumice_rect,7,0,7,0,1,
629d16db307da2e64ea7b1e7,TCN,2024-06-20_13h30.22.351,LearnStrategy,2023.2.3,Win32,59.88023952,3,2,9,,,,,,,,7,13,,,,,,,,,,,7,1.383,1,,,,,,0.107407407,-0.387962963,1,0,0,1.3829,Peridotite_rect,8,0,8,0,1,
629d16db307da2e64ea7b1e7,TCN,2024-06-20_13h30.22.351,LearnStrategy,2023.2.3,Win32,59.88023952,3,2,10,,,,,,,,2,09,,,,,,,,,,,2,1.277,1,,,,,,-0.114814815,-0.248148148,1,0,0,1.2772,Basalt_rect,9,0,9,0,1,
629d16db307da2e64ea7b1e7,TCN,2024-06-20_13h30.22.351,LearnStrategy,2023.2.3,Win32,59.88023952,3,2,11,,,,,,,,1,01,,,,,,,,,,,1,2.315,1,,,,,,-0.333333333,-0.242592593,1,0,0,2.3147,Andesite_rect,10,0,10,0,1,
629d16db307da2e64ea7b1e7,TCN,2024-06-20_13h30.22.351,LearnStrategy,2023.2.3,Win32,59.88023952,3,2,12,,,,,,,,2,05,,,,,,,,,,,2,1.602,1,,,,,,-0.165740741,-0.243518519,1,0,0,1.6025,Basalt_rect,11,0,11,0,1,
629d16db307da2e64ea7b1e7,TCN,2024-06-20_13h30.22.351,LearnStrategy,2023.2.3,Win32,59.88023952,3,2,13,,,,,,,,4,14,,,,,,,,,,,1,1.851,0,,,,,,-0.340740741,-0.242592593,1,0,0,1.8512,Andesite_rect,12,0,12,0,1,
629d16db307da2e64ea7b1e7,TCN,2024-06-20_13h30.22.351,LearnStrategy,2023.2.3,Win32,59.88023952,3,2,14,,,,,,,,8,13,,,,,,,,,,,8,3.197,1,,,,,,0.358333333,-0.385185185,1,0,0,3.1974,Pumice_rect,13,0,13,0,1,
629d16db307da2e64ea7b1e7,TCN,2024-06-20_13h30.22.351,LearnStrategy,2023.2.3,Win32,59.88023952,3,2,15,,,,,,,,6,08,,,,,,,,,,,4,6.795,0,,,,,,0.37962963,-0.242592593,1,0,0,6.7949,Gabbro_rect,14,0,14,0,1,
629d16db307da2e64ea7b1e7,TCN,2024-06-20_13h30.22.351,LearnStrategy,2023.2.3,Win32,59.88023952,3,2,16,,,,,,,,1,09,,,,,,,,,,,6,5.295,0,,,,,,-0.07962963,-0.40462963,1,0,0,5.2955,Pegmatite_rect,15,0,15,0,1,
629d16db307da2e64ea7b1e7,TCN,2024-06-20_13h30.22.351,LearnStrategy,2023.2.3,Win32,59.88023952,4,1,1,0.012037037,-0.000925926,1,0,0,1.6304,rock_grid_rect_2,6,16,-1,-1,1.63,0.140740741,-0.256481481,1,0,0,2.8494,Diorite_rect,3,2.849,0,0,0,0,0,1,,,,,,,,,,,,,
629d16db307da2e64ea7b1e7,TCN,2024-06-20_13h30.22.351,LearnStrategy,2023.2.3,Win32,59.88023952,4,1,2,0.009259259,0.011111111,1,0,0,1.7886,rock_grid_rect_2,3,11,-1,-1,1.789,0.091666667,-0.25,1,0,0,3.5623,Diorite_rect,3,3.562,1,1,0,1,0,1,,,,,,,,,,,,,
629d16db307da2e64ea7b1e7,TCN,2024-06-20_13h30.22.351,LearnStrategy,2023.2.3,Win32,59.88023952,4,1,3,0.017592593,-0.007407407,1,0,0,1.4471,rock_grid_rect_2,7,02,-1,-1,1.447,0.100925926,-0.392592593,1,0,0,1.412,Peridotite_rect,7,1.412,1,2,0,2,0,1,,,,,,,,,,,,,
629d16db307da2e64ea7b1e7,TCN,2024-06-20_13h30.22.351,LearnStrategy,2023.2.3,Win32,59.88023952,4,1,4,0.007407407,0.002777778,1,0,0,1.0651,rock_grid_rect_2,2,01,-1,-1,1.065,-0.117592593,-0.240740741,1,0,0,1.1288,Basalt_rect,2,1.129,1,3,0,3,0,1,,,,,,,,,,,,,
629d16db307da2e64ea7b1e7,TCN,2024-06-20_13h30.22.351,LearnStrategy,2023.2.3,Win32,59.88023952,4,1,5,0.046296296,0.001851852,1,0,0,0.9812,rock_grid_rect_2,2,14,-1,-1,0.981,-0.156481481,-0.248148148,1,0,0,2.6616,Basalt_rect,2,2.662,1,4,0,4,0,1,,,,,,,,,,,,,
629d16db307da2e64ea7b1e7,TCN,2024-06-20_13h30.22.351,LearnStrategy,2023.2.3,Win32,59.88023952,4,1,6,-0.00462963,0.000925926,1,0,0,1.13,rock_grid_rect_2,8,08,-1,-1,1.13,0.374074074,-0.4,1,0,0,1.412,Pumice_rect,8,1.412,1,5,0,5,0,1,,,,,,,,,,,,,
629d16db307da2e64ea7b1e7,TCN,2024-06-20_13h30.22.351,LearnStrategy,2023.2.3,Win32,59.88023952,4,1,7,-0.064814815,0.007407407,1,0,0,0.899,rock_grid_rect_2,4,05,-1,-1,0.899,-0.463888889,-0.25,1,0,0,5.6672,Andesite_rect,1,5.667,0,6,0,6,0,1,,,,,,,,,,,,,
629d16db307da2e64ea7b1e7,TCN,2024-06-20_13h30.22.351,LearnStrategy,2023.2.3,Win32,59.88023952,4,1,8,-0.036111111,-0.014814815,1,0,0,1.0981,rock_grid_rect_2,6,12,-1,-1,1.098,-0.381481481,-0.246296296,1,0,0,6.1938,Andesite_rect,1,6.194,0,7,0,7,0,1,,,,,,,,,,,,,
629d16db307da2e64ea7b1e7,TCN,2024-06-20_13h30.22.351,LearnStrategy,2023.2.3,Win32,59.88023952,4,1,9,-0.035185185,-0.016666667,1,0,0,1.2805,rock_grid_rect_2,1,16,-1,-1,1.28,0.122222222,-0.264814815,1,0,0,3.4774,Diorite_rect,3,3.477,0,8,0,8,0,1,,,,,,,,,,,,,
629d16db307da2e64ea7b1e7,TCN,2024-06-20_13h30.22.351,LearnStrategy,2023.2.3,Win32,59.88023952,4,1,10,-0.062962963,-0.003703704,1,0,0,1.0302,rock_grid_rect_2,5,07,-1,-1,1.03,-0.431481481,-0.42037037,1,0,0,1.2628,Obsidian_rect,5,1.263,1,9,0,9,0,1,,,,,,,,,,,,,
629d16db307da2e64ea7b1e7,TCN,2024-06-20_13h30.22.351,LearnStrategy,2023.2.3,Win32,59.88023952,4,1,11,-0.018518519,0.006481481,1,0,0,1.031,rock_grid_rect_2,8,09,-1,-1,1.031,0.37037037,-0.398148148,1,0,0,1.4457,Pumice_rect,8,1.446,1,10,0,10,0,1,,,,,,,,,,,,,
629d16db307da2e64ea7b1e7,TCN,2024-06-20_13h30.22.351,LearnStrategy,2023.2.3,Win32,59.88023952,4,1,12,-0.042592593,-0.002777778,1,0,0,1.0306,rock_grid_rect_2,4,15,-1,-1,1.031,-0.380555556,-0.260185185,1,0,0,2.0621,Andesite_rect,1,2.062,0,11,0,11,0,1,,,,,,,,,,,,,
629d16db307da2e64ea7b1e7,TCN,2024-06-20_13h30.22.351,LearnStrategy,2023.2.3,Win32,59.88023952,4,1,13,-0.115740741,0.010185185,1,0,0,1.13,rock_grid_rect_2,1,07,-1,-1,1.13,-0.387962963,-0.243518519,1,0,0,2.4782,Andesite_rect,1,2.478,1,12,0,12,0,1,,,,,,,,,,,,,
629d16db307da2e64ea7b1e7,TCN,2024-06-20_13h30.22.351,LearnStrategy,2023.2.3,Win32,59.88023952,4,1,14,-0.067592593,0.00462963,1,0,0,1.1137,rock_grid_rect_2,5,11,-1,-1,1.114,-0.440740741,-0.413888889,1,0,0,1.5786,Obsidian_rect,5,1.579,1,13,0,13,0,1,,,,,,,,,,,,,
629d16db307da2e64ea7b1e7,TCN,2024-06-20_13h30.22.351,LearnStrategy,2023.2.3,Win32,59.88023952,4,1,15,-0.05462963,-0.011111111,1,0,0,1.1319,rock_grid_rect_2,7,16,-1,-1,1.132,0.115740741,-0.392592593,1,0,0,1.3785,Peridotite_rect,7,1.379,1,14,0,14,0,1,,,,,,,,,,,,,
629d16db307da2e64ea7b1e7,TCN,2024-06-20_13h30.22.351,LearnStrategy,2023.2.3,Win32,59.88023952,4,1,16,-0.049074074,-0.008333333,1,0,0,1.0134,rock_grid_rect_2,3,07,-1,-1,1.013,0.091666667,-0.235185185,1,0,0,2.162,Diorite_rect,3,2.162,1,15,0,15,0,1,,,,,,,,,,,,,
629d16db307da2e64ea7b1e7,TCN,2024-06-20_13h30.22.351,LearnStrategy,2023.2.3,Win32,59.88023952,4,2,1,,,,,,,,6,03,,,,,,,,,,,4,4.745,0,,,,,,0.339814815,-0.237962963,1,0,0,4.7447,Gabbro_rect,0,0,0,0,1,
629d16db307da2e64ea7b1e7,TCN,2024-06-20_13h30.22.351,LearnStrategy,2023.2.3,Win32,59.88023952,4,2,2,,,,,,,,1,11,,,,,,,,,,,4,4.268,0,,,,,,0.321296296,-0.232407407,1,0,0,4.2683,Gabbro_rect,1,0,1,0,1,
629d16db307da2e64ea7b1e7,TCN,2024-06-20_13h30.22.351,LearnStrategy,2023.2.3,Win32,59.88023952,4,2,3,,,,,,,,7,15,,,,,,,,,,,7,1.307,1,,,,,,0.087037037,-0.412962963,1,0,0,1.3067,Peridotite_rect,2,0,2,0,1,
629d16db307da2e64ea7b1e7,TCN,2024-06-20_13h30.22.351,LearnStrategy,2023.2.3,Win32,59.88023952,4,2,4,,,,,,,,2,09,,,,,,,,,,,2,1.093,1,,,,,,-0.086111111,-0.243518519,1,0,0,1.0934,Basalt_rect,3,0,3,0,1,
629d16db307da2e64ea7b1e7,TCN,2024-06-20_13h30.22.351,LearnStrategy,2023.2.3,Win32,59.88023952,4,2,5,,,,,,,,4,09,,,,,,,,,,,2,1.552,0,,,,,,-0.086111111,-0.242592593,1,0,0,1.552,Basalt_rect,4,0,4,0,1,
629d16db307da2e64ea7b1e7,TCN,2024-06-20_13h30.22.351,LearnStrategy,2023.2.3,Win32,59.88023952,4,2,6,,,,,,,,8,13,,,,,,,,,,,8,1.419,1,,,,,,0.397222222,-0.383333333,1,0,0,1.419,Pumice_rect,5,0,5,0,1,
629d16db307da2e64ea7b1e7,TCN,2024-06-20_13h30.22.351,LearnStrategy,2023.2.3,Win32,59.88023952,4,2,7,,,,,,,,5,16,,,,,,,,,,,5,1.032,1,,,,,,-0.362037037,-0.40462963,1,0,0,1.032,Obsidian_rect,6,0,6,0,1,
629d16db307da2e64ea7b1e7,TCN,2024-06-20_13h30.22.351,LearnStrategy,2023.2.3,Win32,59.88023952,4,2,8,,,,,,,,1,01,,,,,,,,,,,1,6.241,1,,,,,,-0.374074074,-0.269444444,1,0,0,6.2408,Andesite_rect,7,0,7,0,1,
629d16db307da2e64ea7b1e7,TCN,2024-06-20_13h30.22.351,LearnStrategy,2023.2.3,Win32,59.88023952,4,2,9,,,,,,,,3,13,,,,,,,,,,,3,1.888,1,,,,,,0.136111111,-0.252777778,1,0,0,1.8883,Diorite_rect,8,0,8,0,1,
629d16db307da2e64ea7b1e7,TCN,2024-06-20_13h30.22.351,LearnStrategy,2023.2.3,Win32,59.88023952,4,2,10,,,,,,,,8,02,,,,,,,,,,,8,1.375,1,,,,,,0.380555556,-0.384259259,1,0,0,1.3753,Pumice_rect,9,0,9,0,1,
629d16db307da2e64ea7b1e7,TCN,2024-06-20_13h30.22.351,LearnStrategy,2023.2.3,Win32,59.88023952,4,2,11,,,,,,,,7,12,,,,,,,,,,,7,1.994,1,,,,,,0.102777778,-0.392592593,1,0,0,1.9943,Peridotite_rect,10,0,10,0,1,
629d16db307da2e64ea7b1e7,TCN,2024-06-20_13h30.22.351,LearnStrategy,2023.2.3,Win32,59.88023952,4,2,12,,,,,,,,6,07,,,,,,,,,,,6,3.65,1,,,,,,-0.125925926,-0.413888889,1,0,0,3.6504,Pegmatite_rect,11,0,11,0,1,
629d16db307da2e64ea7b1e7,TCN,2024-06-20_13h30.22.351,LearnStrategy,2023.2.3,Win32,59.88023952,4,2,13,,,,,,,,4,10,,,,,,,,,,,2,1.378,0,,,,,,-0.162037037,-0.251851852,1,0,0,1.3783,Basalt_rect,12,0,12,0,1,
629d16db307da2e64ea7b1e7,TCN,2024-06-20_13h30.22.351,LearnStrategy,2023.2.3,Win32,59.88023952,4,2,14,,,,,,,,5,02,,,,,,,,,,,5,1.567,1,,,,,,-0.411111111,-0.399074074,1,0,0,1.567,Obsidian_rect,13,0,13,0,1,
629d16db307da2e64ea7b1e7,TCN,2024-06-20_13h30.22.351,LearnStrategy,2023.2.3,Win32,59.88023952,4,2,15,,,,,,,,3,02,,,,,,,,,,,1,5.816,0,,,,,,-0.425,-0.252777778,1,0,0,5.8157,Andesite_rect,14,0,14,0,1,
629d16db307da2e64ea7b1e7,TCN,2024-06-20_13h30.22.351,LearnStrategy,2023.2.3,Win32,59.88023952,4,2,16,,,,,,,,2,10,,,,,,,,,,,2,1.525,1,,,,,,-0.14537037,-0.246296296,1,0,0,1.5255,Basalt_rect,15,0,15,0,1,
629d16db307da2e64ea7b1e7,TCN,2024-06-20_13h30.22.351,LearnStrategy,2023.2.3,Win32,59.88023952,5,1,1,-0.015740741,0.009259259,1,0,0,4.102,rock_grid_rect_2,5,06,-1,-1,4.102,-0.412962963,-0.403703704,1,0,0,2.5213,Obsidian_rect,5,2.521,1,0,0,0,0,1,,,,,,,,,,,,,
629d16db307da2e64ea7b1e7,TCN,2024-06-20_13h30.22.351,LearnStrategy,2023.2.3,Win32,59.88023952,5,1,2,-0.107407407,0,1,0,0,1.8019,rock_grid_rect_2,7,06,-1,-1,1.802,0.09537037,-0.410185185,1,0,0,2.1288,Peridotite_rect,7,2.129,1,1,0,1,0,1,,,,,,,,,,,,,
629d16db307da2e64ea7b1e7,TCN,2024-06-20_13h30.22.351,LearnStrategy,2023.2.3,Win32,59.88023952,5,1,3,-0.07037037,0.000925926,1,0,0,1.1853,rock_grid_rect_2,6,09,-1,-1,1.185,0.092592593,-0.408333333,1,0,0,1.4652,Peridotite_rect,7,1.465,0,2,0,2,0,1,,,,,,,,,,,,,
629d16db307da2e64ea7b1e7,TCN,2024-06-20_13h30.22.351,LearnStrategy,2023.2.3,Win32,59.88023952,5,1,4,-0.000925926,-0.001851852,1,0,0,1.202,rock_grid_rect_2,4,12,-1,-1,1.202,-0.136111111,-0.243518519,1,0,0,1.5823,Basalt_rect,2,1.582,0,3,0,3,0,1,,,,,,,,,,,,,
629d16db307da2e64ea7b1e7,TCN,2024-06-20_13h30.22.351,LearnStrategy,2023.2.3,Win32,59.88023952,5,1,5,0.003703704,-0.005555556,1,0,0,0.9814,rock_grid_rect_2,2,06,-1,-1,0.981,-0.140740741,-0.249074074,1,0,0,1.232,Basalt_rect,2,1.232,1,4,0,4,0,1,,,,,,,,,,,,,
629d16db307da2e64ea7b1e7,TCN,2024-06-20_13h30.22.351,LearnStrategy,2023.2.3,Win32,59.88023952,5,1,6,-0.012962963,0.003703704,1,0,0,0.9983,rock_grid_rect_2,8,10,-1,-1,0.998,0.389814815,-0.413888889,1,0,0,1.5044,Pumice_rect,8,1.504,1,5,0,5,0,1,,,,,,,,,,,,,
629d16db307da2e64ea7b1e7,TCN,2024-06-20_13h30.22.351,LearnStrategy,2023.2.3,Win32,59.88023952,5,1,7,-0.023148148,0,1,0,0,0.8974,rock_grid_rect_2,8,04,-1,-1,0.897,0.397222222,-0.408333333,1,0,0,1.4338,Pumice_rect,8,1.434,1,6,0,6,0,1,,,,,,,,,,,,,
629d16db307da2e64ea7b1e7,TCN,2024-06-20_13h30.22.351,LearnStrategy,2023.2.3,Win32,59.88023952,5,1,8,-0.037962963,-0.012962963,1,0,0,1.1608,rock_grid_rect_2,5,05,-1,-1,1.161,-0.423148148,-0.392592593,1,0,0,3.3654,Obsidian_rect,5,3.365,1,7,0,7,0,1,,,,,,,,,,,,,
629d16db307da2e64ea7b1e7,TCN,2024-06-20_13h30.22.351,LearnStrategy,2023.2.3,Win32,59.88023952,5,1,9,-0.05,-0.008333333,1,0,0,1.218,rock_grid_rect_2,4,11,-1,-1,1.218,-0.126851852,-0.411111111,1,0,0,1.9652,Pegmatite_rect,6,1.965,0,8,0,8,0,1,,,,,,,,,,,,,
629d16db307da2e64ea7b1e7,TCN,2024-06-20_13h30.22.351,LearnStrategy,2023.2.3,Win32,59.88023952,5,1,10,-0.006481481,0.000925926,1,0,0,0.9764,rock_grid_rect_2,1,03,-1,-1,0.976,-0.126851852,-0.410185185,1,0,0,1.8191,Pegmatite_rect,6,1.819,0,9,0,9,0,1,,,,,,,,,,,,,
629d16db307da2e64ea7b1e7,TCN,2024-06-20_13h30.22.351,LearnStrategy,2023.2.3,Win32,59.88023952,5,1,11,-0.016666667,-0.005555556,1,0,0,0.9474,rock_grid_rect_2,1,06,-1,-1,0.947,-0.141666667,-0.403703704,1,0,0,1.2618,Pegmatite_rect,6,1.262,0,10,0,10,0,1,,,,,,,,,,,,,
629d16db307da2e64ea7b1e7,TCN,2024-06-20_13h30.22.351,LearnStrategy,2023.2.3,Win32,59.88023952,5,1,12,0.000925926,0.006481481,1,0,0,0.915,rock_grid_rect_2,2,08,-1,-1,0.915,-0.102777778,-0.236111111,1,0,0,1.029,Basalt_rect,2,1.029,1,11,0,11,0,1,,,,,,,,,,,,,
629d16db307da2e64ea7b1e7,TCN,2024-06-20_13h30.22.351,LearnStrategy,2023.2.3,Win32,59.88023952,5,1,13,-0.031481481,-0.002777778,1,0,0,0.9158,rock_grid_rect_2,3,09,-1,-1,0.916,0.117592593,-0.249074074,1,0,0,1.2951,Diorite_rect,3,1.295,1,12,0,12,0,1,,,,,,,,,,,,,
629d16db307da2e64ea7b1e7,TCN,2024-06-20_13h30.22.351,LearnStrategy,2023.2.3,Win32,59.88023952,5,1,14,-0.034259259,-0.009259259,1,0,0,0.8641,rock_grid_rect_2,3,15,-1,-1,0.864,-0.35,-0.25,1,0,0,1.312,Andesite_rect,1,1.312,0,13,0,13,0,1,,,,,,,,,,,,,
629d16db307da2e64ea7b1e7,TCN,2024-06-20_13h30.22.351,LearnStrategy,2023.2.3,Win32,59.88023952,5,1,15,-0.032407407,0.00462963,1,0,0,0.9646,rock_grid_rect_2,6,05,-1,-1,0.965,0.114814815,-0.249074074,1,0,0,2.1616,Diorite_rect,3,2.162,0,14,0,14,0,1,,,,,,,,,,,,,
629d16db307da2e64ea7b1e7,TCN,2024-06-20_13h30.22.351,LearnStrategy,2023.2.3,Win32,59.88023952,5,1,16,-0.040740741,-0.024074074,1,0,0,1.1315,rock_grid_rect_2,7,05,-1,-1,1.131,0.075,-0.380555556,1,0,0,2.0283,Peridotite_rect,7,2.028,1,15,0,15,0,1,,,,,,,,,,,,,
629d16db307da2e64ea7b1e7,TCN,2024-06-20_13h30.22.351,LearnStrategy,2023.2.3,Win32,59.88023952,5,2,1,,,,,,,,7,04,,,,,,,,,,,6,3.628,0,,,,,,-0.137962963,-0.37962963,1,0,0,3.6281,Pegmatite_rect,0,0,0,0,1,
629d16db307da2e64ea7b1e7,TCN,2024-06-20_13h30.22.351,LearnStrategy,2023.2.3,Win32,59.88023952,5,2,2,,,,,,,,3,10,,,,,,,,,,,3,2.737,1,,,,,,0.062037037,-0.238888889,1,0,0,2.737,Diorite_rect,1,0,1,0,1,
629d16db307da2e64ea7b1e7,TCN,2024-06-20_13h30.22.351,LearnStrategy,2023.2.3,Win32,59.88023952,5,2,3,,,,,,,,7,10,,,,,,,,,,,7,1.645,1,,,,,,0.056481481,-0.412037037,1,0,0,1.6448,Peridotite_rect,2,0,2,0,1,
629d16db307da2e64ea7b1e7,TCN,2024-06-20_13h30.22.351,LearnStrategy,2023.2.3,Win32,59.88023952,5,2,4,,,,,,,,8,14,,,,,,,,,,,8,1.19,1,,,,,,0.362037037,-0.39537037,1,0,0,1.1905,Pumice_rect,3,0,3,0,1,
629d16db307da2e64ea7b1e7,TCN,2024-06-20_13h30.22.351,LearnStrategy,2023.2.3,Win32,59.88023952,5,2,5,,,,,,,,2,05,,,,,,,,,,,2,1.328,1,,,,,,-0.124074074,-0.267592593,1,0,0,1.328,Basalt_rect,4,0,4,0,1,
629d16db307da2e64ea7b1e7,TCN,2024-06-20_13h30.22.351,LearnStrategy,2023.2.3,Win32,59.88023952,5,2,6,,,,,,,,6,15,,,,,,,,,,,6,2.458,1,,,,,,-0.082407407,-0.411111111,1,0,0,2.4585,Pegmatite_rect,5,0,5,0,1,
629d16db307da2e64ea7b1e7,TCN,2024-06-20_13h30.22.351,LearnStrategy,2023.2.3,Win32,59.88023952,5,2,7,,,,,,,,5,04,,,,,,,,,,,5,1.192,1,,,,,,-0.352777778,-0.398148148,1,0,0,1.1916,Obsidian_rect,6,0,6,0,1,
629d16db307da2e64ea7b1e7,TCN,2024-06-20_13h30.22.351,LearnStrategy,2023.2.3,Win32,59.88023952,5,2,8,,,,,,,,4,03,,,,,,,,,,,4,1.808,1,,,,,,0.366666667,-0.237962963,1,0,0,1.8085,Gabbro_rect,7,0,7,0,1,
629d16db307da2e64ea7b1e7,TCN,2024-06-20_13h30.22.351,LearnStrategy,2023.2.3,Win32,59.88023952,5,2,9,,,,,,,,3,06,,,,,,,,,,,3,2.926,1,,,,,,0.063888889,-0.243518519,1,0,0,2.9255,Diorite_rect,8,0,8,0,1,
629d16db307da2e64ea7b1e7,TCN,2024-06-20_13h30.22.351,LearnStrategy,2023.2.3,Win32,59.88023952,5,2,10,,,,,,,,4,14,,,,,,,,,,,6,3.98,0,,,,,,-0.110185185,-0.407407407,1,0,0,3.9795,Pegmatite_rect,9,0,9,0,1,
629d16db307da2e64ea7b1e7,TCN,2024-06-20_13h30.22.351,LearnStrategy,2023.2.3,Win32,59.88023952,5,2,11,,,,,,,,6,10,,,,,,,,,,,7,1.37,0,,,,,,0.059259259,-0.388888889,1,0,0,1.3698,Peridotite_rect,10,0,10,0,1,
629d16db307da2e64ea7b1e7,TCN,2024-06-20_13h30.22.351,LearnStrategy,2023.2.3,Win32,59.88023952,5,2,12,,,,,,,,5,12,,,,,,,,,,,5,1.258,1,,,,,,-0.358333333,-0.419444444,1,0,0,1.2575,Obsidian_rect,11,0,11,0,1,
629d16db307da2e64ea7b1e7,TCN,2024-06-20_13h30.22.351,LearnStrategy,2023.2.3,Win32,59.88023952,5,2,13,,,,,,,,8,16,,,,,,,,,,,8,1.387,1,,,,,,0.423148148,-0.399074074,1,0,0,1.3865,Pumice_rect,12,0,12,0,1,
629d16db307da2e64ea7b1e7,TCN,2024-06-20_13h30.22.351,LearnStrategy,2023.2.3,Win32,59.88023952,5,2,14,,,,,,,,1,02,,,,,,,,,,,6,2.592,0,,,,,,-0.137037037,-0.398148148,1,0,0,2.592,Pegmatite_rect,13,0,13,0,1,
629d16db307da2e64ea7b1e7,TCN,2024-06-20_13h30.22.351,LearnStrategy,2023.2.3,Win32,59.88023952,5,2,15,,,,,,,,2,04,,,,,,,,,,,2,1.222,1,,,,,,-0.147222222,-0.27037037,1,0,0,1.2218,Basalt_rect,14,0,14,0,1,
629d16db307da2e64ea7b1e7,TCN,2024-06-20_13h30.22.351,LearnStrategy,2023.2.3,Win32,59.88023952,5,2,16,,,,,,,,1,14,,,,,,,,,,,6,1.694,0,,,,,,-0.10462963,-0.421296296,1,0,0,1.6937,Pegmatite_rect,15,0,15,0,1,
629d16db307da2e64ea7b1e7,TCN,2024-06-20_13h30.22.351,LearnStrategy,2023.2.3,Win32,59.88023952,6,1,1,0.07037037,0,1,0,0,2.8098,rock_grid_rect_2,7,08,-1,-1,2.81,0.151851852,-0.405555556,1,0,0,1.6488,Peridotite_rect,7,1.649,1,0,0,0,0,1,,,,,,,,,,,,,
629d16db307da2e64ea7b1e7,TCN,2024-06-20_13h30.22.351,LearnStrategy,2023.2.3,Win32,59.88023952,6,1,2,-0.028703704,0,1,0,0,0.9805,rock_grid_rect_2,7,07,-1,-1,0.98,0.121296296,-0.403703704,1,0,0,1.9351,Peridotite_rect,7,1.935,1,1,0,1,0,1,,,,,,,,,,,,,
629d16db307da2e64ea7b1e7,TCN,2024-06-20_13h30.22.351,LearnStrategy,2023.2.3,Win32,59.88023952,6,1,3,-0.100925926,0.006481481,1,0,0,0.8479,rock_grid_rect_2,6,06,-1,-1,0.848,0.371296296,-0.238888889,1,0,0,1.812,Gabbro_rect,4,1.812,0,2,0,2,0,1,,,,,,,,,,,,,
629d16db307da2e64ea7b1e7,TCN,2024-06-20_13h30.22.351,LearnStrategy,2023.2.3,Win32,59.88023952,6,1,4,-0.090740741,-0.00462963,1,0,0,0.9823,rock_grid_rect_2,2,11,-1,-1,0.982,-0.12037037,-0.27037037,1,0,0,1.312,Basalt_rect,2,1.312,1,3,0,3,0,1,,,,,,,,,,,,,
629d16db307da2e64ea7b1e7,TCN,2024-06-20_13h30.22.351,LearnStrategy,2023.2.3,Win32,59.88023952,6,1,5,-0.103703704,-0.012037037,1,0,0,1.1316,rock_grid_rect_2,8,06,-1,-1,1.132,0.433333333,-0.410185185,1,0,0,1.2786,Pumice_rect,8,1.279,1,4,0,4,0,1,,,,,,,,,,,,,
629d16db307da2e64ea7b1e7,TCN,2024-06-20_13h30.22.351,LearnStrategy,2023.2.3,Win32,59.88023952,6,1,6,-0.124074074,-0.006481481,1,0,0,1.148,rock_grid_rect_2,5,08,-1,-1,1.148,-0.381481481,-0.393518519,1,0,0,1.6286,Obsidian_rect,5,1.629,1,5,0,5,0,1,,,,,,,,,,,,,
629d16db307da2e64ea7b1e7,TCN,2024-06-20_13h30.22.351,LearnStrategy,2023.2.3,Win32,59.88023952,6,1,7,0.019444444,-0.023148148,1,0,0,1.2488,rock_grid_rect_2,4,13,-1,-1,1.249,-0.351851852,-0.265740741,1,0,0,3.7941,Andesite_rect,1,3.794,0,6,0,6,0,1,,,,,,,,,,,,,
629d16db307da2e64ea7b1e7,TCN,2024-06-20_13h30.22.351,LearnStrategy,2023.2.3,Win32,59.88023952,6,1,8,-0.077777778,0.012037037,1,0,0,1.2626,rock_grid_rect_2,6,11,-1,-1,1.263,-0.135185185,-0.399074074,1,0,0,3.036,Pegmatite_rect,6,3.036,1,7,0,7,0,1,,,,,,,,,,,,,
629d16db307da2e64ea7b1e7,TCN,2024-06-20_13h30.22.351,LearnStrategy,2023.2.3,Win32,59.88023952,6,1,9,-0.022222222,-0.00462963,1,0,0,1.1765,rock_grid_rect_2,1,10,-1,-1,1.177,0.430555556,-0.252777778,1,0,0,2.7659,Gabbro_rect,4,2.766,0,8,0,8,0,1,,,,,,,,,,,,,
629d16db307da2e64ea7b1e7,TCN,2024-06-20_13h30.22.351,LearnStrategy,2023.2.3,Win32,59.88023952,6,1,10,-0.05,-0.012962963,1,0,0,1.163,rock_grid_rect_2,4,16,-1,-1,1.163,0.384259259,-0.233333333,1,0,0,1.6392,Gabbro_rect,4,1.639,1,9,0,9,0,1,,,,,,,,,,,,,
629d16db307da2e64ea7b1e7,TCN,2024-06-20_13h30.22.351,LearnStrategy,2023.2.3,Win32,59.88023952,6,1,11,-0.043518519,-0.00462963,1,0,0,0.9648,rock_grid_rect_2,8,15,-1,-1,0.965,0.359259259,-0.398148148,1,0,0,1.3705,Pumice_rect,8,1.37,1,10,0,10,0,1,,,,,,,,,,,,,
629d16db307da2e64ea7b1e7,TCN,2024-06-20_13h30.22.351,LearnStrategy,2023.2.3,Win32,59.88023952,6,1,12,-0.016666667,0.008333333,1,0,0,0.9307,rock_grid_rect_2,5,10,-1,-1,0.931,-0.407407407,-0.393518519,1,0,0,1.4973,Obsidian_rect,5,1.497,1,11,0,11,0,1,,,,,,,,,,,,,
629d16db307da2e64ea7b1e7,TCN,2024-06-20_13h30.22.351,LearnStrategy,2023.2.3,Win32,59.88023952,6,1,13,-0.048148148,-0.02037037,1,0,0,1.098,rock_grid_rect_2,3,08,-1,-1,1.098,0.088888889,-0.246296296,1,0,0,1.0979,Diorite_rect,3,1.098,1,12,0,12,0,1,,,,,,,,,,,,,
629d16db307da2e64ea7b1e7,TCN,2024-06-20_13h30.22.351,LearnStrategy,2023.2.3,Win32,59.88023952,6,1,14,-0.037037037,-0.012962963,1,0,0,1.419,rock_grid_rect_2,2,02,-1,-1,1.419,-0.12037037,-0.268518519,1,0,0,1.5075,Basalt_rect,2,1.508,1,13,0,13,0,1,,,,,,,,,,,,,
629d16db307da2e64ea7b1e7,TCN,2024-06-20_13h30.22.351,LearnStrategy,2023.2.3,Win32,59.88023952,6,1,15,-0.033333333,-0.014814815,1,0,0,1.2815,rock_grid_rect_2,1,05,-1,-1,1.282,-0.169444444,-0.397222222,1,0,0,2.4955,Pegmatite_rect,6,2.495,0,14,0,14,0,1,,,,,,,,,,,,,
629d16db307da2e64ea7b1e7,TCN,2024-06-20_13h30.22.351,LearnStrategy,2023.2.3,Win32,59.88023952,6,1,16,-0.040740741,-0.012037037,1,0,0,1.6133,rock_grid_rect_2,3,14,-1,-1,1.613,0.114814815,-0.237962963,1,0,0,1.4285,Diorite_rect,3,1.428,1,15,0,15,0,1,,,,,,,,,,,,,
629d16db307da2e64ea7b1e7,TCN,2024-06-20_13h30.22.351,LearnStrategy,2023.2.3,Win32,59.88023952,6,2,1,,,,,,,,2,16,,,,,,,,,,,2,2.916,1,,,,,,-0.116666667,-0.240740741,1,0,0,2.9164,Basalt_rect,0,0,0,0,1,
629d16db307da2e64ea7b1e7,TCN,2024-06-20_13h30.22.351,LearnStrategy,2023.2.3,Win32,59.88023952,6,2,2,,,,,,,,8,03,,,,,,,,,,,8,1.598,1,,,,,,0.337962963,-0.406481481,1,0,0,1.598,Pumice_rect,1,0,1,0,1,
629d16db307da2e64ea7b1e7,TCN,2024-06-20_13h30.22.351,LearnStrategy,2023.2.3,Win32,59.88023952,6,2,3,,,,,,,,8,05,,,,,,,,,,,8,1.917,1,,,,,,0.428703704,-0.408333333,1,0,0,1.9168,Pumice_rect,2,0,2,0,1,
629d16db307da2e64ea7b1e7,TCN,2024-06-20_13h30.22.351,LearnStrategy,2023.2.3,Win32,59.88023952,6,2,4,,,,,,,,7,14,,,,,,,,,,,7,1.414,1,,,,,,0.131481481,-0.398148148,1,0,0,1.4136,Peridotite_rect,3,0,3,0,1,
629d16db307da2e64ea7b1e7,TCN,2024-06-20_13h30.22.351,LearnStrategy,2023.2.3,Win32,59.88023952,6,2,5,,,,,,,,4,01,,,,,,,,,,,1,4.051,0,,,,,,-0.423148148,-0.239814815,1,0,0,4.051,Andesite_rect,4,0,4,0,1,
629d16db307da2e64ea7b1e7,TCN,2024-06-20_13h30.22.351,LearnStrategy,2023.2.3,Win32,59.88023952,6,2,6,,,,,,,,3,12,,,,,,,,,,,3,1.378,1,,,,,,0.090740741,-0.239814815,1,0,0,1.378,Diorite_rect,5,0,5,0,1,
629d16db307da2e64ea7b1e7,TCN,2024-06-20_13h30.22.351,LearnStrategy,2023.2.3,Win32,59.88023952,6,2,7,,,,,,,,5,14,,,,,,,,,,,5,1.25,1,,,,,,-0.435185185,-0.402777778,1,0,0,1.2504,Obsidian_rect,6,0,6,0,1,
629d16db307da2e64ea7b1e7,TCN,2024-06-20_13h30.22.351,LearnStrategy,2023.2.3,Win32,59.88023952,6,2,8,,,,,,,,4,08,,,,,,,,,,,2,2.953,0,,,,,,-0.123148148,-0.250925926,1,0,0,2.9527,Basalt_rect,7,0,7,0,1,
629d16db307da2e64ea7b1e7,TCN,2024-06-20_13h30.22.351,LearnStrategy,2023.2.3,Win32,59.88023952,6,2,9,,,,,,,,1,04,,,,,,,,,,,6,3.029,0,,,,,,-0.133333333,-0.42037037,1,0,0,3.0293,Pegmatite_rect,8,0,8,0,1,
629d16db307da2e64ea7b1e7,TCN,2024-06-20_13h30.22.351,LearnStrategy,2023.2.3,Win32,59.88023952,6,2,10,,,,,,,,7,13,,,,,,,,,,,7,1.469,1,,,,,,0.096296296,-0.402777778,1,0,0,1.4695,Peridotite_rect,9,0,9,0,1,
629d16db307da2e64ea7b1e7,TCN,2024-06-20_13h30.22.351,LearnStrategy,2023.2.3,Win32,59.88023952,6,2,11,,,,,,,,6,08,,,,,,,,,,,6,1.536,1,,,,,,-0.12037037,-0.403703704,1,0,0,1.5358,Pegmatite_rect,10,0,10,0,1,
629d16db307da2e64ea7b1e7,TCN,2024-06-20_13h30.22.351,LearnStrategy,2023.2.3,Win32,59.88023952,6,2,12,,,,,,,,2,12,,,,,,,,,,,2,4.177,1,,,,,,-0.101851852,-0.259259259,1,0,0,4.1774,Basalt_rect,11,0,11,0,1,
629d16db307da2e64ea7b1e7,TCN,2024-06-20_13h30.22.351,LearnStrategy,2023.2.3,Win32,59.88023952,6,2,13,,,,,,,,5,09,,,,,,,,,,,5,1.471,1,,,,,,-0.325925926,-0.387962963,1,0,0,1.4705,Obsidian_rect,12,0,12,0,1,
629d16db307da2e64ea7b1e7,TCN,2024-06-20_13h30.22.351,LearnStrategy,2023.2.3,Win32,59.88023952,6,2,14,,,,,,,,1,09,,,,,,,,,,,2,3.058,0,,,,,,-0.156481481,-0.262962963,1,0,0,3.0585,Basalt_rect,13,0,13,0,1,
629d16db307da2e64ea7b1e7,TCN,2024-06-20_13h30.22.351,LearnStrategy,2023.2.3,Win32,59.88023952,6,2,15,,,,,,,,6,13,,,,,,,,,,,3,2.392,0,,,,,,0.067592593,-0.252777778,1,0,0,2.3925,Diorite_rect,14,0,14,0,1,
629d16db307da2e64ea7b1e7,TCN,2024-06-20_13h30.22.351,LearnStrategy,2023.2.3,Win32,59.88023952,6,2,16,,,,,,,,3,16,,,,,,,,,,,1,1.943,0,,,,,,-0.365740741,-0.269444444,1,0,0,1.943,Andesite_rect,15,0,15,0,1,
629d16db307da2e64ea7b1e7,TCN,2024-06-20_13h30.22.351,LearnStrategy,2023.2.3,Win32,59.88023952,7,1,1,-0.05,-0.012962963,1,0,0,1.365,rock_grid_rect_2,1,10,-1,-1,1.365,0.349074074,-0.246296296,1,0,0,8.6584,Gabbro_rect,4,8.658,0,0,0,0,0,1,,,,,,,,,,,,,
629d16db307da2e64ea7b1e7,TCN,2024-06-20_13h30.22.351,LearnStrategy,2023.2.3,Win32,59.88023952,7,1,2,-0.041666667,-0.015740741,1,0,0,1.4815,rock_grid_rect_2,4,15,-1,-1,1.482,-0.181481481,-0.39537037,1,0,0,4.1614,Pegmatite_rect,6,4.161,0,1,0,1,0,1,,,,,,,,,,,,,
629d16db307da2e64ea7b1e7,TCN,2024-06-20_13h30.22.351,LearnStrategy,2023.2.3,Win32,59.88023952,7,1,3,-0.067592593,-0.007407407,1,0,0,1.1817,rock_grid_rect_2,8,06,-1,-1,1.182,0.366666667,-0.4,1,0,0,1.2288,Pumice_rect,8,1.229,1,2,0,2,0,1,,,,,,,,,,,,,
629d16db307da2e64ea7b1e7,TCN,2024-06-20_13h30.22.351,LearnStrategy,2023.2.3,Win32,59.88023952,7,1,4,-0.024074074,0.002777778,1,0,0,1.581,rock_grid_rect_2,5,07,-1,-1,1.581,-0.412037037,-0.406481481,1,0,0,1.5291,Obsidian_rect,5,1.529,1,3,0,3,0,1,,,,,,,,,,,,,
629d16db307da2e64ea7b1e7,TCN,2024-06-20_13h30.22.351,LearnStrategy,2023.2.3,Win32,59.88023952,7,1,5,-0.047222222,0.000925926,1,0,0,1.4293,rock_grid_rect_2,2,14,-1,-1,1.429,-0.109259259,-0.260185185,1,0,0,4.2284,Basalt_rect,2,4.228,1,4,0,4,0,1,,,,,,,,,,,,,
629d16db307da2e64ea7b1e7,TCN,2024-06-20_13h30.22.351,LearnStrategy,2023.2.3,Win32,59.88023952,7,1,6,-0.047222222,0.009259259,1,0,0,1.0317,rock_grid_rect_2,7,07,-1,-1,1.032,0.1,-0.412962963,1,0,0,1.6948,Peridotite_rect,7,1.695,1,5,0,5,0,1,,,,,,,,,,,,,
629d16db307da2e64ea7b1e7,TCN,2024-06-20_13h30.22.351,LearnStrategy,2023.2.3,Win32,59.88023952,7,1,7,-0.027777778,-0.007407407,1,0,0,1.0308,rock_grid_rect_2,1,03,-1,-1,1.031,-0.157407407,-0.418518519,1,0,0,3.078,Pegmatite_rect,6,3.078,0,6,0,6,0,1,,,,,,,,,,,,,
629d16db307da2e64ea7b1e7,TCN,2024-06-20_13h30.22.351,LearnStrategy,2023.2.3,Win32,59.88023952,7,1,8,-0.056481481,-0.013888889,1,0,0,1.0969,rock_grid_rect_2,3,09,-1,-1,1.097,0.09537037,-0.233333333,1,0,0,1.3121,Diorite_rect,3,1.312,1,7,0,7,0,1,,,,,,,,,,,,,
629d16db307da2e64ea7b1e7,TCN,2024-06-20_13h30.22.351,LearnStrategy,2023.2.3,Win32,59.88023952,7,1,9,-0.007407407,-0.010185185,1,0,0,0.9971,rock_grid_rect_2,4,12,-1,-1,0.997,-0.353703704,-0.269444444,1,0,0,1.9622,Andesite_rect,1,1.962,0,8,0,8,0,1,,,,,,,,,,,,,
629d16db307da2e64ea7b1e7,TCN,2024-06-20_13h30.22.351,LearnStrategy,2023.2.3,Win32,59.88023952,7,1,10,-0.059259259,0.006481481,1,0,0,1.5802,rock_grid_rect_2,2,01,-1,-1,1.58,-0.092592593,-0.246296296,1,0,0,1.4679,Basalt_rect,2,1.468,1,9,0,9,0,1,,,,,,,,,,,,,
629d16db307da2e64ea7b1e7,TCN,2024-06-20_13h30.22.351,LearnStrategy,2023.2.3,Win32,59.88023952,7,1,11,-0.006481481,-0.002777778,1,0,0,0.8811,rock_grid_rect_2,7,05,-1,-1,0.881,0.133333333,-0.397222222,1,0,0,1.9164,Peridotite_rect,7,1.916,1,10,0,10,0,1,,,,,,,,,,,,,
629d16db307da2e64ea7b1e7,TCN,2024-06-20_13h30.22.351,LearnStrategy,2023.2.3,Win32,59.88023952,7,1,12,-0.094444444,0.000925926,1,0,0,1.0313,rock_grid_rect_2,6,06,-1,-1,1.031,0.353703704,-0.24537037,1,0,0,2.2518,Gabbro_rect,4,2.252,0,11,0,11,0,1,,,,,,,,,,,,,
629d16db307da2e64ea7b1e7,TCN,2024-06-20_13h30.22.351,LearnStrategy,2023.2.3,Win32,59.88023952,7,1,13,-0.035185185,-0.012962963,1,0,0,2.462,rock_grid_rect_2,3,08,-1,-1,2.462,0.125,-0.253703704,1,0,0,1.9196,Diorite_rect,3,1.92,1,12,0,12,0,1,,,,,,,,,,,,,
629d16db307da2e64ea7b1e7,TCN,2024-06-20_13h30.22.351,LearnStrategy,2023.2.3,Win32,59.88023952,7,1,14,-0.05462963,-0.012037037,1,0,0,2.2955,rock_grid_rect_2,8,10,-1,-1,2.295,0.332407407,-0.385185185,1,0,0,1.5115,Pumice_rect,8,1.512,1,13,0,13,0,1,,,,,,,,,,,,,
629d16db307da2e64ea7b1e7,TCN,2024-06-20_13h30.22.351,LearnStrategy,2023.2.3,Win32,59.88023952,7,1,15,-0.011111111,-0.000925926,1,0,0,0.9637,rock_grid_rect_2,6,12,-1,-1,0.964,-0.14537037,-0.390740741,1,0,0,1.7952,Pegmatite_rect,6,1.795,1,14,0,14,0,1,,,,,,,,,,,,,
629d16db307da2e64ea7b1e7,TCN,2024-06-20_13h30.22.351,LearnStrategy,2023.2.3,Win32,59.88023952,7,1,16,0.005555556,0.005555556,1,0,0,1.4304,rock_grid_rect_2,5,06,-1,-1,1.43,-0.371296296,-0.40462963,1,0,0,1.4617,Obsidian_rect,5,1.462,1,15,0,15,0,1,,,,,,,,,,,,,
629d16db307da2e64ea7b1e7,TCN,2024-06-20_13h30.22.351,LearnStrategy,2023.2.3,Win32,59.88023952,7,2,1,,,,,,,,5,02,,,,,,,,,,,5,1.386,1,,,,,,-0.35462963,-0.381481481,1,0,0,1.3861,Obsidian_rect,0,0,0,0,1,
629d16db307da2e64ea7b1e7,TCN,2024-06-20_13h30.22.351,LearnStrategy,2023.2.3,Win32,59.88023952,7,2,2,,,,,,,,3,06,,,,,,,,,,,3,2.517,1,,,,,,0.087037037,-0.246296296,1,0,0,2.5167,Diorite_rect,1,0,1,0,1,
629d16db307da2e64ea7b1e7,TCN,2024-06-20_13h30.22.351,LearnStrategy,2023.2.3,Win32,59.88023952,7,2,3,,,,,,,,6,07,,,,,,,,,,,6,5.495,1,,,,,,-0.123148148,-0.412962963,1,0,0,5.4952,Pegmatite_rect,2,0,2,0,1,
629d16db307da2e64ea7b1e7,TCN,2024-06-20_13h30.22.351,LearnStrategy,2023.2.3,Win32,59.88023952,7,2,4,,,,,,,,3,13,,,,,,,,,,,4,4.578,0,,,,,,0.375925926,-0.268518519,1,0,0,4.5776,Gabbro_rect,3,0,3,0,1,
629d16db307da2e64ea7b1e7,TCN,2024-06-20_13h30.22.351,LearnStrategy,2023.2.3,Win32,59.88023952,7,2,5,,,,,,,,4,09,,,,,,,,,,,2,1.281,0,,,,,,-0.108333333,-0.238888889,1,0,0,1.281,Basalt_rect,4,0,4,0,1,
629d16db307da2e64ea7b1e7,TCN,2024-06-20_13h30.22.351,LearnStrategy,2023.2.3,Win32,59.88023952,7,2,6,,,,,,,,8,03,,,,,,,,,,,8,1.369,1,,,,,,0.332407407,-0.389814815,1,0,0,1.3689,Pumice_rect,5,0,5,0,1,
629d16db307da2e64ea7b1e7,TCN,2024-06-20_13h30.22.351,LearnStrategy,2023.2.3,Win32,59.88023952,7,2,7,,,,,,,,5,09,,,,,,,,,,,5,2.847,1,,,,,,-0.377777778,-0.399074074,1,0,0,2.8475,Obsidian_rect,6,0,6,0,1,
629d16db307da2e64ea7b1e7,TCN,2024-06-20_13h30.22.351,LearnStrategy,2023.2.3,Win32,59.88023952,7,2,8,,,,,,,,1,14,,,,,,,,,,,6,1.963,0,,,,,,-0.060185185,-0.4,1,0,0,1.963,Pegmatite_rect,7,0,7,0,1,
629d16db307da2e64ea7b1e7,TCN,2024-06-20_13h30.22.351,LearnStrategy,2023.2.3,Win32,59.88023952,7,2,9,,,,,,,,7,13,,,,,,,,,,,7,1.35,1,,,,,,0.116666667,-0.388888889,1,0,0,1.3502,Peridotite_rect,8,0,8,0,1,
629d16db307da2e64ea7b1e7,TCN,2024-06-20_13h30.22.351,LearnStrategy,2023.2.3,Win32,59.88023952,7,2,10,,,,,,,,2,04,,,,,,,,,,,2,2.219,1,,,,,,-0.156481481,-0.242592593,1,0,0,2.2189,Basalt_rect,9,0,9,0,1,
629d16db307da2e64ea7b1e7,TCN,2024-06-20_13h30.22.351,LearnStrategy,2023.2.3,Win32,59.88023952,7,2,11,,,,,,,,1,02,,,,,,,,,,,6,11.895,0,,,,,,-0.128703704,-0.391666667,1,0,0,11.8949,Pegmatite_rect,10,0,10,0,1,
629d16db307da2e64ea7b1e7,TCN,2024-06-20_13h30.22.351,LearnStrategy,2023.2.3,Win32,59.88023952,7,2,12,,,,,,,,6,13,,,,,,,,,,,6,1.699,1,,,,,,-0.122222222,-0.401851852,1,0,0,1.6985,Pegmatite_rect,11,0,11,0,1,
629d16db307da2e64ea7b1e7,TCN,2024-06-20_13h30.22.351,LearnStrategy,2023.2.3,Win32,59.88023952,7,2,13,,,,,,,,8,02,,,,,,,,,,,8,1.436,1,,,,,,0.415740741,-0.389814815,1,0,0,1.4363,Pumice_rect,12,0,12,0,1,
629d16db307da2e64ea7b1e7,TCN,2024-06-20_13h30.22.351,LearnStrategy,2023.2.3,Win32,59.88023952,7,2,14,,,,,,,,4,10,,,,,,,,,,,2,1.786,0,,,,,,-0.092592593,-0.241666667,1,0,0,1.7862,Basalt_rect,13,0,13,0,1,
629d16db307da2e64ea7b1e7,TCN,2024-06-20_13h30.22.351,LearnStrategy,2023.2.3,Win32,59.88023952,7,2,15,,,,,,,,2,09,,,,,,,,,,,1,8.297,0,,,,,,-0.394444444,-0.235185185,1,0,0,8.297,Andesite_rect,14,0,14,0,1,
629d16db307da2e64ea7b1e7,TCN,2024-06-20_13h30.22.351,LearnStrategy,2023.2.3,Win32,59.88023952,7,2,16,,,,,,,,7,04,,,,,,,,,,,7,2.327,1,,,,,,0.080555556,-0.383333333,1,0,0,2.3272,Peridotite_rect,15,0,15,0,1,
629d16db307da2e64ea7b1e7,TCN,2024-06-20_13h30.22.351,LearnStrategy,2023.2.3,Win32,59.88023952,8,1,1,-0.002777778,-0.011111111,1,0,0,2.0641,rock_grid_rect_2,7,16,-1,-1,2.064,0.137037037,-0.410185185,1,0,0,1.4839,Peridotite_rect,7,1.484,1,0,0,0,0,1,,,,,,,,,,,,,
629d16db307da2e64ea7b1e7,TCN,2024-06-20_13h30.22.351,LearnStrategy,2023.2.3,Win32,59.88023952,8,1,2,-0.050925926,-0.003703704,1,0,0,1.4323,rock_grid_rect_2,8,04,-1,-1,1.432,0.321296296,-0.40462963,1,0,0,1.3531,Pumice_rect,8,1.353,1,1,0,1,0,1,,,,,,,,,,,,,
629d16db307da2e64ea7b1e7,TCN,2024-06-20_13h30.22.351,LearnStrategy,2023.2.3,Win32,59.88023952,8,1,3,-0.057407407,-0.022222222,1,0,0,2.2139,rock_grid_rect_2,1,16,-1,-1,2.214,0.349074074,-0.237962963,1,0,0,3.4188,Gabbro_rect,4,3.419,0,2,0,2,0,1,,,,,,,,,,,,,
629d16db307da2e64ea7b1e7,TCN,2024-06-20_13h30.22.351,LearnStrategy,2023.2.3,Win32,59.88023952,8,1,4,-0.043518519,-0.023148148,1,0,0,1.4181,rock_grid_rect_2,5,11,-1,-1,1.418,-0.412037037,-0.415740741,1,0,0,6.6725,Obsidian_rect,5,6.673,1,3,0,3,0,1,,,,,,,,,,,,,
629d16db307da2e64ea7b1e7,TCN,2024-06-20_13h30.22.351,LearnStrategy,2023.2.3,Win32,59.88023952,8,1,5,-0.07037037,-0.012037037,1,0,0,1.98,rock_grid_rect_2,1,06,-1,-1,1.98,-0.37962963,-0.248148148,1,0,0,6.8247,Andesite_rect,1,6.825,1,4,0,4,0,1,,,,,,,,,,,,,
629d16db307da2e64ea7b1e7,TCN,2024-06-20_13h30.22.351,LearnStrategy,2023.2.3,Win32,59.88023952,8,1,6,-0.041666667,0.00462963,1,0,0,1.6294,rock_grid_rect_2,5,05,-1,-1,1.629,-0.313888889,-0.417592593,1,0,0,1.3955,Obsidian_rect,5,1.395,1,5,0,5,0,1,,,,,,,,,,,,,
629d16db307da2e64ea7b1e7,TCN,2024-06-20_13h30.22.351,LearnStrategy,2023.2.3,Win32,59.88023952,8,1,7,-0.05,0,1,0,0,4.5801,rock_grid_rect_2,8,09,-1,-1,4.58,0.415740741,-0.414814815,1,0,0,1.744,Pumice_rect,8,1.744,1,6,0,6,0,1,,,,,,,,,,,,,
629d16db307da2e64ea7b1e7,TCN,2024-06-20_13h30.22.351,LearnStrategy,2023.2.3,Win32,59.88023952,8,1,8,-0.041666667,-0.005555556,1,0,0,1.1135,rock_grid_rect_2,2,11,-1,-1,1.114,-0.085185185,-0.241666667,1,0,0,1.6285,Basalt_rect,2,1.629,1,7,0,7,0,1,,,,,,,,,,,,,
629d16db307da2e64ea7b1e7,TCN,2024-06-20_13h30.22.351,LearnStrategy,2023.2.3,Win32,59.88023952,8,1,9,-0.041666667,-0.000925926,1,0,0,0.9651,rock_grid_rect_2,3,15,-1,-1,0.965,0.112037037,-0.386111111,1,0,0,2.9783,Peridotite_rect,7,2.978,0,8,0,8,0,1,,,,,,,,,,,,,
629d16db307da2e64ea7b1e7,TCN,2024-06-20_13h30.22.351,LearnStrategy,2023.2.3,Win32,59.88023952,8,1,10,-0.05,0.002777778,1,0,0,0.9147,rock_grid_rect_2,3,14,-1,-1,0.915,0.067592593,-0.237037037,1,0,0,1.5121,Diorite_rect,3,1.512,1,9,0,9,0,1,,,,,,,,,,,,,
629d16db307da2e64ea7b1e7,TCN,2024-06-20_13h30.22.351,LearnStrategy,2023.2.3,Win32,59.88023952,8,1,11,-0.062962963,0.002777778,1,0,0,0.8966,rock_grid_rect_2,2,02,-1,-1,0.897,-0.085185185,-0.262037037,1,0,0,1.1462,Basalt_rect,2,1.146,1,10,0,10,0,1,,,,,,,,,,,,,
629d16db307da2e64ea7b1e7,TCN,2024-06-20_13h30.22.351,LearnStrategy,2023.2.3,Win32,59.88023952,8,1,12,-0.075,-0.012962963,1,0,0,1.1487,rock_grid_rect_2,6,05,-1,-1,1.149,0.378703704,-0.255555556,1,0,0,5.094,Gabbro_rect,4,5.094,0,11,0,11,0,1,,,,,,,,,,,,,
629d16db307da2e64ea7b1e7,TCN,2024-06-20_13h30.22.351,LearnStrategy,2023.2.3,Win32,59.88023952,8,1,13,-0.015740741,-0.003703704,1,0,0,0.999,rock_grid_rect_2,7,06,-1,-1,0.999,0.142592593,-0.405555556,1,0,0,1.329,Peridotite_rect,7,1.329,1,12,0,12,0,1,,,,,,,,,,,,,
629d16db307da2e64ea7b1e7,TCN,2024-06-20_13h30.22.351,LearnStrategy,2023.2.3,Win32,59.88023952,8,1,14,0.013888889,0.005555556,1,0,0,0.8966,rock_grid_rect_2,4,11,-1,-1,0.897,-0.094444444,-0.260185185,1,0,0,4.6275,Basalt_rect,2,4.627,0,13,0,13,0,1,,,,,,,,,,,,,
629d16db307da2e64ea7b1e7,TCN,2024-06-20_13h30.22.351,LearnStrategy,2023.2.3,Win32,59.88023952,8,1,15,-0.032407407,-0.016666667,1,0,0,1.1138,rock_grid_rect_2,4,16,-1,-1,1.114,-0.462962963,-0.249074074,1,0,0,5.9768,Andesite_rect,1,5.977,0,14,0,14,0,1,,,,,,,,,,,,,
629d16db307da2e64ea7b1e7,TCN,2024-06-20_13h30.22.351,LearnStrategy,2023.2.3,Win32,59.88023952,8,1,16,-0.048148148,0.017592593,1,0,0,1.4975,rock_grid_rect_2,6,09,-1,-1,1.497,0.064814815,-0.403703704,1,0,0,1.4452,Peridotite_rect,7,1.445,0,15,0,15,0,1,,,,,,,,,,,,,
629d16db307da2e64ea7b1e7,TCN,2024-06-20_13h30.22.351,LearnStrategy,2023.2.3,Win32,59.88023952,8,2,1,,,,,,,,8,14,,,,,,,,,,,8,1.593,1,,,,,,0.392592593,-0.392592593,1,0,0,1.5927,Pumice_rect,0,0,0,0,1,
629d16db307da2e64ea7b1e7,TCN,2024-06-20_13h30.22.351,LearnStrategy,2023.2.3,Win32,59.88023952,8,2,2,,,,,,,,4,14,,,,,,,,,,,6,3.059,0,,,,,,-0.135185185,-0.401851852,1,0,0,3.0591,Pegmatite_rect,1,0,1,0,1,
629d16db307da2e64ea7b1e7,TCN,2024-06-20_13h30.22.351,LearnStrategy,2023.2.3,Win32,59.88023952,8,2,3,,,,,,,,1,01,,,,,,,,,,,6,2.586,0,,,,,,-0.092592593,-0.411111111,1,0,0,2.5864,Pegmatite_rect,2,0,2,0,1,
629d16db307da2e64ea7b1e7,TCN,2024-06-20_13h30.22.351,LearnStrategy,2023.2.3,Win32,59.88023952,8,2,4,,,,,,,,1,04,,,,,,,,,,,6,2.888,0,,,,,,-0.162037037,-0.42037037,1,0,0,2.8881,Pegmatite_rect,3,0,3,0,1,
629d16db307da2e64ea7b1e7,TCN,2024-06-20_13h30.22.351,LearnStrategy,2023.2.3,Win32,59.88023952,8,2,5,,,,,,,,2,05,,,,,,,,,,,2,1.578,1,,,,,,-0.137037037,-0.262037037,1,0,0,1.5779,Basalt_rect,4,0,4,0,1,
629d16db307da2e64ea7b1e7,TCN,2024-06-20_13h30.22.351,LearnStrategy,2023.2.3,Win32,59.88023952,8,2,6,,,,,,,,6,03,,,,,,,,,,,7,5.927,0,,,,,,0.14537037,-0.393518519,1,0,0,5.9267,Peridotite_rect,5,0,5,0,1,
629d16db307da2e64ea7b1e7,TCN,2024-06-20_13h30.22.351,LearnStrategy,2023.2.3,Win32,59.88023952,8,2,7,,,,,,,,5,04,,,,,,,,,,,5,1.695,1,,,,,,-0.348148148,-0.409259259,1,0,0,1.6951,Obsidian_rect,6,0,6,0,1,
629d16db307da2e64ea7b1e7,TCN,2024-06-20_13h30.22.351,LearnStrategy,2023.2.3,Win32,59.88023952,8,2,8,,,,,,,,6,10,,,,,,,,,,,7,1.361,0,,,,,,0.103703704,-0.39537037,1,0,0,1.3613,Peridotite_rect,7,0,7,0,1,
629d16db307da2e64ea7b1e7,TCN,2024-06-20_13h30.22.351,LearnStrategy,2023.2.3,Win32,59.88023952,8,2,9,,,,,,,,7,14,,,,,,,,,,,7,2.078,1,,,,,,0.077777778,-0.396296296,1,0,0,2.0781,Peridotite_rect,8,0,8,0,1,
629d16db307da2e64ea7b1e7,TCN,2024-06-20_13h30.22.351,LearnStrategy,2023.2.3,Win32,59.88023952,8,2,10,,,,,,,,3,12,,,,,,,,,,,3,2.46,1,,,,,,0.080555556,-0.259259259,1,0,0,2.4604,Diorite_rect,9,0,9,0,1,
629d16db307da2e64ea7b1e7,TCN,2024-06-20_13h30.22.351,LearnStrategy,2023.2.3,Win32,59.88023952,8,2,11,,,,,,,,5,14,,,,,,,,,,,5,2.26,1,,,,,,-0.413888889,-0.378703704,1,0,0,2.2603,Obsidian_rect,10,0,10,0,1,
629d16db307da2e64ea7b1e7,TCN,2024-06-20_13h30.22.351,LearnStrategy,2023.2.3,Win32,59.88023952,8,2,12,,,,,,,,2,12,,,,,,,,,,,2,3.954,1,,,,,,-0.125925926,-0.261111111,1,0,0,3.9537,Basalt_rect,11,0,11,0,1,
629d16db307da2e64ea7b1e7,TCN,2024-06-20_13h30.22.351,LearnStrategy,2023.2.3,Win32,59.88023952,8,2,13,,,,,,,,3,10,,,,,,,,,,,3,1.617,1,,,,,,0.087037037,-0.237962963,1,0,0,1.6169,Diorite_rect,12,0,12,0,1,
629d16db307da2e64ea7b1e7,TCN,2024-06-20_13h30.22.351,LearnStrategy,2023.2.3,Win32,59.88023952,8,2,14,,,,,,,,4,08,,,,,,,,,,,4,2.393,1,,,,,,0.387962963,-0.249074074,1,0,0,2.393,Gabbro_rect,13,0,13,0,1,
629d16db307da2e64ea7b1e7,TCN,2024-06-20_13h30.22.351,LearnStrategy,2023.2.3,Win32,59.88023952,8,2,15,,,,,,,,7,10,,,,,,,,,,,7,1.555,1,,,,,,0.124074074,-0.408333333,1,0,0,1.5552,Peridotite_rect,14,0,14,0,1,
629d16db307da2e64ea7b1e7,TCN,2024-06-20_13h30.22.351,LearnStrategy,2023.2.3,Win32,59.88023952,8,2,16,,,,,,,,8,16,,,,,,,,,,,8,1.638,1,,,,,,0.306481481,-0.387037037,1,0,0,1.6376,Pumice_rect,15,0,15,0,1,
629d16db307da2e64ea7b1e7,TCN,2024-06-20_13h30.22.351,LearnStrategy,2023.2.3,Win32,59.88023952,9,1,1,0.015740741,-0.000925926,1,0,0,3.8471,rock_grid_rect_2,5,08,-1,-1,3.847,-0.450925926,-0.388888889,1,0,0,1.5615,Obsidian_rect,5,1.562,1,0,0,0,0,1,,,,,,,,,,,,,
629d16db307da2e64ea7b1e7,TCN,2024-06-20_13h30.22.351,LearnStrategy,2023.2.3,Win32,59.88023952,9,1,2,-0.026851852,0.003703704,1,0,0,1.7804,rock_grid_rect_2,2,06,-1,-1,1.78,-0.156481481,-0.269444444,1,0,0,1.5457,Basalt_rect,2,1.546,1,1,0,1,0,1,,,,,,,,,,,,,
629d16db307da2e64ea7b1e7,TCN,2024-06-20_13h30.22.351,LearnStrategy,2023.2.3,Win32,59.88023952,9,1,3,-0.016666667,-0.000925926,1,0,0,1.2483,rock_grid_rect_2,7,02,-1,-1,1.248,0.073148148,-0.417592593,1,0,0,1.5245,Peridotite_rect,7,1.524,1,2,0,2,0,1,,,,,,,,,,,,,
629d16db307da2e64ea7b1e7,TCN,2024-06-20_13h30.22.351,LearnStrategy,2023.2.3,Win32,59.88023952,9,1,4,-0.000925926,-0.02037037,1,0,0,0.9478,rock_grid_rect_2,2,08,-1,-1,0.948,-0.173148148,-0.242592593,1,0,0,1.3118,Basalt_rect,2,1.312,1,3,0,3,0,1,,,,,,,,,,,,,
629d16db307da2e64ea7b1e7,TCN,2024-06-20_13h30.22.351,LearnStrategy,2023.2.3,Win32,59.88023952,9,1,5,0.002777778,-0.018518519,1,0,0,0.914,rock_grid_rect_2,3,07,-1,-1,0.914,0.125925926,-0.250925926,1,0,0,1.1624,Diorite_rect,3,1.162,1,4,0,4,0,1,,,,,,,,,,,,,
629d16db307da2e64ea7b1e7,TCN,2024-06-20_13h30.22.351,LearnStrategy,2023.2.3,Win32,59.88023952,9,1,6,0.018518519,-0.012037037,1,0,0,1.364,rock_grid_rect_2,6,11,-1,-1,1.364,-0.137962963,-0.416666667,1,0,0,2.762,Pegmatite_rect,6,2.762,1,5,0,5,0,1,,,,,,,,,,,,,
629d16db307da2e64ea7b1e7,TCN,2024-06-20_13h30.22.351,LearnStrategy,2023.2.3,Win32,59.88023952,9,1,7,-0.022222222,0.001851852,1,0,0,1.3648,rock_grid_rect_2,1,05,-1,-1,1.365,0.425,-0.233333333,1,0,0,1.7447,Gabbro_rect,4,1.745,0,6,0,6,0,1,,,,,,,,,,,,,
629d16db307da2e64ea7b1e7,TCN,2024-06-20_13h30.22.351,LearnStrategy,2023.2.3,Win32,59.88023952,9,1,8,-0.041666667,-0.011111111,1,0,0,1.0316,rock_grid_rect_2,4,13,-1,-1,1.032,0.359259259,-0.231481481,1,0,0,1.4457,Gabbro_rect,4,1.446,1,7,0,7,0,1,,,,,,,,,,,,,
629d16db307da2e64ea7b1e7,TCN,2024-06-20_13h30.22.351,LearnStrategy,2023.2.3,Win32,59.88023952,9,1,9,-0.038888889,-0.008333333,1,0,0,1.0809,rock_grid_rect_2,8,15,-1,-1,1.081,0.348148148,-0.4,1,0,0,1.362,Pumice_rect,8,1.362,1,8,0,8,0,1,,,,,,,,,,,,,
629d16db307da2e64ea7b1e7,TCN,2024-06-20_13h30.22.351,LearnStrategy,2023.2.3,Win32,59.88023952,9,1,10,-0.044444444,0.003703704,1,0,0,0.8824,rock_grid_rect_2,1,07,-1,-1,0.882,-0.101851852,-0.407407407,1,0,0,3.9604,Pegmatite_rect,6,3.96,0,9,0,9,0,1,,,,,,,,,,,,,
629d16db307da2e64ea7b1e7,TCN,2024-06-20_13h30.22.351,LearnStrategy,2023.2.3,Win32,59.88023952,9,1,11,0.018518519,0.003703704,1,0,0,1.2146,rock_grid_rect_2,5,10,-1,-1,1.215,-0.408333333,-0.40462963,1,0,0,2.3288,Obsidian_rect,5,2.329,1,10,0,10,0,1,,,,,,,,,,,,,
629d16db307da2e64ea7b1e7,TCN,2024-06-20_13h30.22.351,LearnStrategy,2023.2.3,Win32,59.88023952,9,1,12,-0.09537037,-0.017592593,1,0,0,1.1629,rock_grid_rect_2,7,08,-1,-1,1.163,0.128703704,-0.400925926,1,0,0,1.4783,Peridotite_rect,7,1.478,1,11,0,11,0,1,,,,,,,,,,,,,
629d16db307da2e64ea7b1e7,TCN,2024-06-20_13h30.22.351,LearnStrategy,2023.2.3,Win32,59.88023952,9,1,13,-0.013888889,0.000925926,1,0,0,1.2815,rock_grid_rect_2,6,16,-1,-1,1.282,-0.090740741,-0.418518519,1,0,0,2.0957,Pegmatite_rect,6,2.096,1,12,0,12,0,1,,,,,,,,,,,,,
629d16db307da2e64ea7b1e7,TCN,2024-06-20_13h30.22.351,LearnStrategy,2023.2.3,Win32,59.88023952,9,1,14,0.012037037,-0.008333333,1,0,0,1.1989,rock_grid_rect_2,3,11,-1,-1,1.199,0.427777778,-0.24537037,1,0,0,3.1441,Gabbro_rect,4,3.144,0,13,0,13,0,1,,,,,,,,,,,,,
629d16db307da2e64ea7b1e7,TCN,2024-06-20_13h30.22.351,LearnStrategy,2023.2.3,Win32,59.88023952,9,1,15,-0.047222222,-0.001851852,1,0,0,1.6483,rock_grid_rect_2,4,05,-1,-1,1.648,0.42962963,-0.242592593,1,0,0,2.4782,Gabbro_rect,4,2.478,1,14,0,14,0,1,,,,,,,,,,,,,
629d16db307da2e64ea7b1e7,TCN,2024-06-20_13h30.22.351,LearnStrategy,2023.2.3,Win32,59.88023952,9,1,16,-0.028703704,-0.000925926,1,0,0,1.3149,rock_grid_rect_2,8,08,-1,-1,1.315,0.351851852,-0.381481481,1,0,0,1.5953,Pumice_rect,8,1.595,1,15,0,15,0,1,,,,,,,,,,,,,
629d16db307da2e64ea7b1e7,TCN,2024-06-20_13h30.22.351,LearnStrategy,2023.2.3,Win32,59.88023952,9,2,1,,,,,,,,4,03,,,,,,,,,,,4,5.46,1,,,,,,0.427777778,-0.252777778,1,0,0,5.46,Gabbro_rect,0,0,0,0,1,
629d16db307da2e64ea7b1e7,TCN,2024-06-20_13h30.22.351,LearnStrategy,2023.2.3,Win32,59.88023952,9,2,2,,,,,,,,8,13,,,,,,,,,,,8,1.966,1,,,,,,0.353703704,-0.401851852,1,0,0,1.9664,Pumice_rect,1,0,1,0,1,
629d16db307da2e64ea7b1e7,TCN,2024-06-20_13h30.22.351,LearnStrategy,2023.2.3,Win32,59.88023952,9,2,3,,,,,,,,6,15,,,,,,,,,,,6,1.92,1,,,,,,-0.097222222,-0.421296296,1,0,0,1.9196,Pegmatite_rect,2,0,2,0,1,
629d16db307da2e64ea7b1e7,TCN,2024-06-20_13h30.22.351,LearnStrategy,2023.2.3,Win32,59.88023952,9,2,4,,,,,,,,8,05,,,,,,,,,,,8,1.509,1,,,,,,0.416666667,-0.403703704,1,0,0,1.5094,Pumice_rect,3,0,3,0,1,
629d16db307da2e64ea7b1e7,TCN,2024-06-20_13h30.22.351,LearnStrategy,2023.2.3,Win32,59.88023952,9,2,5,,,,,,,,3,02,,,,,,,,,,,3,3.728,1,,,,,,0.162962963,-0.248148148,1,0,0,3.7279,Diorite_rect,4,0,4,0,1,
629d16db307da2e64ea7b1e7,TCN,2024-06-20_13h30.22.351,LearnStrategy,2023.2.3,Win32,59.88023952,9,2,6,,,,,,,,4,01,,,,,,,,,,,4,1.636,1,,,,,,0.344444444,-0.241666667,1,0,0,1.6363,Gabbro_rect,5,0,5,0,1,
629d16db307da2e64ea7b1e7,TCN,2024-06-20_13h30.22.351,LearnStrategy,2023.2.3,Win32,59.88023952,9,2,7,,,,,,,,2,16,,,,,,,,,,,1,5.424,0,,,,,,-0.363888889,-0.265740741,1,0,0,5.4245,Andesite_rect,6,0,6,0,1,
629d16db307da2e64ea7b1e7,TCN,2024-06-20_13h30.22.351,LearnStrategy,2023.2.3,Win32,59.88023952,9,2,8,,,,,,,,7,15,,,,,,,,,,,7,1.347,1,,,,,,0.109259259,-0.385185185,1,0,0,1.3467,Peridotite_rect,7,0,7,0,1,
629d16db307da2e64ea7b1e7,TCN,2024-06-20_13h30.22.351,LearnStrategy,2023.2.3,Win32,59.88023952,9,2,9,,,,,,,,1,09,,,,,,,,,,,4,2.569,0,,,,,,0.409259259,-0.249074074,1,0,0,2.5692,Gabbro_rect,8,0,8,0,1,
629d16db307da2e64ea7b1e7,TCN,2024-06-20_13h30.22.351,LearnStrategy,2023.2.3,Win32,59.88023952,9,2,10,,,,,,,,1,11,,,,,,,,,,,6,1.786,0,,,,,,-0.137962963,-0.388888889,1,0,0,1.7863,Pegmatite_rect,9,0,9,0,1,
629d16db307da2e64ea7b1e7,TCN,2024-06-20_13h30.22.351,LearnStrategy,2023.2.3,Win32,59.88023952,9,2,11,,,,,,,,6,08,,,,,,,,,,,6,1.426,1,,,,,,-0.091666667,-0.382407407,1,0,0,1.4263,Pegmatite_rect,10,0,10,0,1,
629d16db307da2e64ea7b1e7,TCN,2024-06-20_13h30.22.351,LearnStrategy,2023.2.3,Win32,59.88023952,9,2,12,,,,,,,,7,12,,,,,,,,,,,7,3.506,1,,,,,,0.147222222,-0.387037037,1,0,0,3.5056,Peridotite_rect,11,0,11,0,1,
629d16db307da2e64ea7b1e7,TCN,2024-06-20_13h30.22.351,LearnStrategy,2023.2.3,Win32,59.88023952,9,2,13,,,,,,,,5,12,,,,,,,,,,,5,1.384,1,,,,,,-0.384259259,-0.389814815,1,0,0,1.3841,Obsidian_rect,12,0,12,0,1,
629d16db307da2e64ea7b1e7,TCN,2024-06-20_13h30.22.351,LearnStrategy,2023.2.3,Win32,59.88023952,9,2,14,,,,,,,,2,10,,,,,,,,,,,2,3.111,1,,,,,,-0.117592593,-0.250925926,1,0,0,3.1107,Basalt_rect,13,0,13,0,1,
629d16db307da2e64ea7b1e7,TCN,2024-06-20_13h30.22.351,LearnStrategy,2023.2.3,Win32,59.88023952,9,2,15,,,,,,,,3,16,,,,,,,,,,,3,1.527,1,,,,,,0.064814815,-0.25462963,1,0,0,1.5275,Diorite_rect,14,0,14,0,1,
629d16db307da2e64ea7b1e7,TCN,2024-06-20_13h30.22.351,LearnStrategy,2023.2.3,Win32,59.88023952,9,2,16,,,,,,,,5,16,,,,,,,,,,,5,2.299,1,,,,,,-0.32037037,-0.401851852,1,0,0,2.2985,Obsidian_rect,15,0,15,0,1,
629d16db307da2e64ea7b1e7,TCN,2024-06-20_13h30.22.351,LearnStrategy,2023.2.3,Win32,59.88023952,,,,,,,,,,,,,,,,,,,,,,,,,,,,,,,,,,,,,,,,,,,1
629d16db307da2e64ea7b1e7,TCN,2024-06-20_13h30.22.351,LearnStrategy,2023.2.3,Win32,59.88023952,,,,,,,,,,,,,,,,,,,,,,,,,,,,,,,,,,,,,,,,,,,
629d16db307da2e64ea7b1e7,TCN,2024-06-20_13h30.22.351,LearnStrategy,2023.2.3,Win32,59.88023952,,,,,,,,,,,3,08,1,1,,,,,,,,,,,,,,,,,,,,,,,,,,,,,
629d16db307da2e64ea7b1e7,TCN,2024-06-20_13h30.22.351,LearnStrategy,2023.2.3,Win32,59.88023952,,,,,,,,,,,1,03,1,2,,,,,,,,,,,,,,,,,,,,,,,,,,,,,
629d16db307da2e64ea7b1e7,TCN,2024-06-20_13h30.22.351,LearnStrategy,2023.2.3,Win32,59.88023952,,,,,,,,,,,4,11,1,3,,,,,,,,,,,,,,,,,,,,,,,,,,,,,
629d16db307da2e64ea7b1e7,TCN,2024-06-20_13h30.22.351,LearnStrategy,2023.2.3,Win32,59.88023952,,,,,,,,,,,4,16,1,4,,,,,,,,,,,,,,,,,,,,,,,,,,,,,
629d16db307da2e64ea7b1e7,TCN,2024-06-20_13h30.22.351,LearnStrategy,2023.2.3,Win32,59.88023952,,,,,,,,,,,8,06,1,5,,,,,,,,,,,,,,,,,,,,,,,,,,,,,
629d16db307da2e64ea7b1e7,TCN,2024-06-20_13h30.22.351,LearnStrategy,2023.2.3,Win32,59.88023952,,,,,,,,,,,8,04,1,6,,,,,,,,,,,,,,,,,,,,,,,,,,,,,
629d16db307da2e64ea7b1e7,TCN,2024-06-20_13h30.22.351,LearnStrategy,2023.2.3,Win32,59.88023952,,,,,,,,,,,3,07,1,7,,,,,,,,,,,,,,,,,,,,,,,,,,,,,
629d16db307da2e64ea7b1e7,TCN,2024-06-20_13h30.22.351,LearnStrategy,2023.2.3,Win32,59.88023952,,,,,,,,,,,5,10,1,8,,,,,,,,,,,,,,,,,,,,,,,,,,,,,
629d16db307da2e64ea7b1e7,TCN,2024-06-20_13h30.22.351,LearnStrategy,2023.2.3,Win32,59.88023952,,,,,,,,,,,5,05,2,1,,,,,,,,,,,,,,,,,,,,,,,,,,,,,
629d16db307da2e64ea7b1e7,TCN,2024-06-20_13h30.22.351,LearnStrategy,2023.2.3,Win32,59.88023952,,,,,,,,,,,8,08,2,2,,,,,,,,,,,,,,,,,,,,,,,,,,,,,
629d16db307da2e64ea7b1e7,TCN,2024-06-20_13h30.22.351,LearnStrategy,2023.2.3,Win32,59.88023952,,,,,,,,,,,8,15,2,3,,,,,,,,,,,,,,,,,,,,,,,,,,,,,
629d16db307da2e64ea7b1e7,TCN,2024-06-20_13h30.22.351,LearnStrategy,2023.2.3,Win32,59.88023952,,,,,,,,,,,2,02,2,4,,,,,,,,,,,,,,,,,,,,,,,,,,,,,
629d16db307da2e64ea7b1e7,TCN,2024-06-20_13h30.22.351,LearnStrategy,2023.2.3,Win32,59.88023952,,,,,,,,,,,4,12,2,5,,,,,,,,,,,,,,,,,,,,,,,,,,,,,
629d16db307da2e64ea7b1e7,TCN,2024-06-20_13h30.22.351,LearnStrategy,2023.2.3,Win32,59.88023952,,,,,,,,,,,1,10,2,6,,,,,,,,,,,,,,,,,,,,,,,,,,,,,
629d16db307da2e64ea7b1e7,TCN,2024-06-20_13h30.22.351,LearnStrategy,2023.2.3,Win32,59.88023952,,,,,,,,,,,1,16,2,7,,,,,,,,,,,,,,,,,,,,,,,,,,,,,
629d16db307da2e64ea7b1e7,TCN,2024-06-20_13h30.22.351,LearnStrategy,2023.2.3,Win32,59.88023952,,,,,,,,,,,1,05,2,8,,,,,,,,,,,,,,,,,,,,,,,,,,,,,
629d16db307da2e64ea7b1e7,TCN,2024-06-20_13h30.22.351,LearnStrategy,2023.2.3,Win32,59.88023952,,,,,,,,,,,3,15,3,1,,,,,,,,,,,,,,,,,,,,,,,,,,,,,
629d16db307da2e64ea7b1e7,TCN,2024-06-20_13h30.22.351,LearnStrategy,2023.2.3,Win32,59.88023952,,,,,,,,,,,7,06,3,2,,,,,,,,,,,,,,,,,,,,,,,,,,,,,
629d16db307da2e64ea7b1e7,TCN,2024-06-20_13h30.22.351,LearnStrategy,2023.2.3,Win32,59.88023952,,,,,,,,,,,8,09,3,3,,,,,,,,,,,,,,,,,,,,,,,,,,,,,
629d16db307da2e64ea7b1e7,TCN,2024-06-20_13h30.22.351,LearnStrategy,2023.2.3,Win32,59.88023952,,,,,,,,,,,4,15,3,4,,,,,,,,,,,,,,,,,,,,,,,,,,,,,
629d16db307da2e64ea7b1e7,TCN,2024-06-20_13h30.22.351,LearnStrategy,2023.2.3,Win32,59.88023952,,,,,,,,,,,7,07,3,5,,,,,,,,,,,,,,,,,,,,,,,,,,,,,
629d16db307da2e64ea7b1e7,TCN,2024-06-20_13h30.22.351,LearnStrategy,2023.2.3,Win32,59.88023952,,,,,,,,,,,6,11,3,6,,,,,,,,,,,,,,,,,,,,,,,,,,,,,
629d16db307da2e64ea7b1e7,TCN,2024-06-20_13h30.22.351,LearnStrategy,2023.2.3,Win32,59.88023952,,,,,,,,,,,5,08,3,7,,,,,,,,,,,,,,,,,,,,,,,,,,,,,
629d16db307da2e64ea7b1e7,TCN,2024-06-20_13h30.22.351,LearnStrategy,2023.2.3,Win32,59.88023952,,,,,,,,,,,7,02,3,8,,,,,,,,,,,,,,,,,,,,,,,,,,,,,
629d16db307da2e64ea7b1e7,TCN,2024-06-20_13h30.22.351,LearnStrategy,2023.2.3,Win32,59.88023952,,,,,,,,,,,5,07,4,1,,,,,,,,,,,,,,,,,,,,,,,,,,,,,
629d16db307da2e64ea7b1e7,TCN,2024-06-20_13h30.22.351,LearnStrategy,2023.2.3,Win32,59.88023952,,,,,,,,,,,2,14,4,2,,,,,,,,,,,,,,,,,,,,,,,,,,,,,
629d16db307da2e64ea7b1e7,TCN,2024-06-20_13h30.22.351,LearnStrategy,2023.2.3,Win32,59.88023952,,,,,,,,,,,1,06,4,3,,,,,,,,,,,,,,,,,,,,,,,,,,,,,
629d16db307da2e64ea7b1e7,TCN,2024-06-20_13h30.22.351,LearnStrategy,2023.2.3,Win32,59.88023952,,,,,,,,,,,6,12,4,4,,,,,,,,,,,,,,,,,,,,,,,,,,,,,
629d16db307da2e64ea7b1e7,TCN,2024-06-20_13h30.22.351,LearnStrategy,2023.2.3,Win32,59.88023952,,,,,,,,,,,1,07,4,5,,,,,,,,,,,,,,,,,,,,,,,,,,,,,
629d16db307da2e64ea7b1e7,TCN,2024-06-20_13h30.22.351,LearnStrategy,2023.2.3,Win32,59.88023952,,,,,,,,,,,7,16,4,6,,,,,,,,,,,,,,,,,,,,,,,,,,,,,
629d16db307da2e64ea7b1e7,TCN,2024-06-20_13h30.22.351,LearnStrategy,2023.2.3,Win32,59.88023952,,,,,,,,,,,4,05,4,7,,,,,,,,,,,,,,,,,,,,,,,,,,,,,
629d16db307da2e64ea7b1e7,TCN,2024-06-20_13h30.22.351,LearnStrategy,2023.2.3,Win32,59.88023952,,,,,,,,,,,6,06,4,8,,,,,,,,,,,,,,,,,,,,,,,,,,,,,
629d16db307da2e64ea7b1e7,TCN,2024-06-20_13h30.22.351,LearnStrategy,2023.2.3,Win32,59.88023952,,,,,,,,,,,2,08,5,1,,,,,,,,,,,,,,,,,,,,,,,,,,,,,
629d16db307da2e64ea7b1e7,TCN,2024-06-20_13h30.22.351,LearnStrategy,2023.2.3,Win32,59.88023952,,,,,,,,,,,6,16,5,2,,,,,,,,,,,,,,,,,,,,,,,,,,,,,
629d16db307da2e64ea7b1e7,TCN,2024-06-20_13h30.22.351,LearnStrategy,2023.2.3,Win32,59.88023952,,,,,,,,,,,8,10,5,3,,,,,,,,,,,,,,,,,,,,,,,,,,,,,
629d16db307da2e64ea7b1e7,TCN,2024-06-20_13h30.22.351,LearnStrategy,2023.2.3,Win32,59.88023952,,,,,,,,,,,4,13,5,4,,,,,,,,,,,,,,,,,,,,,,,,,,,,,
629d16db307da2e64ea7b1e7,TCN,2024-06-20_13h30.22.351,LearnStrategy,2023.2.3,Win32,59.88023952,,,,,,,,,,,6,05,5,5,,,,,,,,,,,,,,,,,,,,,,,,,,,,,
629d16db307da2e64ea7b1e7,TCN,2024-06-20_13h30.22.351,LearnStrategy,2023.2.3,Win32,59.88023952,,,,,,,,,,,7,05,5,6,,,,,,,,,,,,,,,,,,,,,,,,,,,,,
629d16db307da2e64ea7b1e7,TCN,2024-06-20_13h30.22.351,LearnStrategy,2023.2.3,Win32,59.88023952,,,,,,,,,,,6,09,5,7,,,,,,,,,,,,,,,,,,,,,,,,,,,,,
629d16db307da2e64ea7b1e7,TCN,2024-06-20_13h30.22.351,LearnStrategy,2023.2.3,Win32,59.88023952,,,,,,,,,,,3,09,5,8,,,,,,,,,,,,,,,,,,,,,,,,,,,,,
629d16db307da2e64ea7b1e7,TCN,2024-06-20_13h30.22.351,LearnStrategy,2023.2.3,Win32,59.88023952,,,,,,,,,,,5,11,6,1,,,,,,,,,,,,,,,,,,,,,,,,,,,,,
629d16db307da2e64ea7b1e7,TCN,2024-06-20_13h30.22.351,LearnStrategy,2023.2.3,Win32,59.88023952,,,,,,,,,,,3,11,6,2,,,,,,,,,,,,,,,,,,,,,,,,,,,,,
629d16db307da2e64ea7b1e7,TCN,2024-06-20_13h30.22.351,LearnStrategy,2023.2.3,Win32,59.88023952,,,,,,,,,,,7,08,6,3,,,,,,,,,,,,,,,,,,,,,,,,,,,,,
629d16db307da2e64ea7b1e7,TCN,2024-06-20_13h30.22.351,LearnStrategy,2023.2.3,Win32,59.88023952,,,,,,,,,,,3,14,6,4,,,,,,,,,,,,,,,,,,,,,,,,,,,,,
629d16db307da2e64ea7b1e7,TCN,2024-06-20_13h30.22.351,LearnStrategy,2023.2.3,Win32,59.88023952,,,,,,,,,,,2,01,6,5,,,,,,,,,,,,,,,,,,,,,,,,,,,,,
629d16db307da2e64ea7b1e7,TCN,2024-06-20_13h30.22.351,LearnStrategy,2023.2.3,Win32,59.88023952,,,,,,,,,,,2,06,6,6,,,,,,,,,,,,,,,,,,,,,,,,,,,,,
629d16db307da2e64ea7b1e7,TCN,2024-06-20_13h30.22.351,LearnStrategy,2023.2.3,Win32,59.88023952,,,,,,,,,,,2,11,6,7,,,,,,,,,,,,,,,,,,,,,,,,,,,,,
629d16db307da2e64ea7b1e7,TCN,2024-06-20_13h30.22.351,LearnStrategy,2023.2.3,Win32,59.88023952,,,,,,,,,,,5,06,6,8,,,,,,,,,,,,,,,,,,,,,,,,,,,,,