participant,condition,date,expName,psychopyVersion,OS,frameRate,block,phase,trial,learn_mouse_2.x,learn_mouse_2.y,learn_mouse_2.leftButton,learn_mouse_2.midButton,learn_mouse_2.rightButton,learn_mouse_2.time,learn_mouse_2.clicked_name,cat,token,row,col,t_select,cat_mouse_l.x,cat_mouse_l.y,cat_mouse_l.leftButton,cat_mouse_l.midButton,cat_mouse_l.rightButton,cat_mouse_l.time,cat_mouse_l.clicked_name,resp,t_resp,corr,train_trials.thisRepN,train_trials.thisTrialN,train_trials.thisN,train_trials.thisIndex,train_trials.ran,cat_mouse_t.x,cat_mouse_t.y,cat_mouse_t.leftButton,cat_mouse_t.midButton,cat_mouse_t.rightButton,cat_mouse_t.time,cat_mouse_t.clicked_name,test_trials.thisRepN,test_trials.thisTrialN,test_trials.thisN,test_trials.thisIndex,test_trials.ran,Bonus
62b9c2f1e55fe9f17dfedc5d,TCR,2024-06-21_13h47.46.411,LearnStrategy,2023.2.3,MacIntel,66.66666667,,,,,,,,,,,,,,,,,,,,,,,,,,,,,,,,,,,,,,,,,,,
62b9c2f1e55fe9f17dfedc5d,TCR,2024-06-21_13h47.46.411,LearnStrategy,2023.2.3,MacIntel,66.66666667,1,1,1,0.03875,-0.0025,1,0,0,2.685,rock_grid_rect_2,2,06,-1,-1,2.685,0.3175,-0.3875,1,0,0,5.019,Pumice_rect,8,5.019,0,0,0,0,0,1,,,,,,,,,,,,,
62b9c2f1e55fe9f17dfedc5d,TCR,2024-06-21_13h47.46.411,LearnStrategy,2023.2.3,MacIntel,66.66666667,1,1,2,0.115,0.0175,1,0,0,1.408,rock_grid_rect_2,4,16,-1,-1,1.408,0.11875,-0.245,1,0,0,3.142,Diorite_rect,3,3.142,0,1,0,1,0,1,,,,,,,,,,,,,
62b9c2f1e55fe9f17dfedc5d,TCR,2024-06-21_13h47.46.411,LearnStrategy,2023.2.3,MacIntel,66.66666667,1,1,3,0.12,0.005,1,0,0,1.798,rock_grid_rect_2,2,12,-1,-1,1.798,-0.37625,-0.27125,1,0,0,6.156,Andesite_rect,1,6.156,0,2,0,2,0,1,,,,,,,,,,,,,
62b9c2f1e55fe9f17dfedc5d,TCR,2024-06-21_13h47.46.411,LearnStrategy,2023.2.3,MacIntel,66.66666667,1,1,4,-0.0175,-0.01125,1,0,0,1.864,rock_grid_rect_2,7,14,-1,-1,1.864,-0.3175,-0.24,1,0,0,4.543,Andesite_rect,1,4.543,0,3,0,3,0,1,,,,,,,,,,,,,
62b9c2f1e55fe9f17dfedc5d,TCR,2024-06-21_13h47.46.411,LearnStrategy,2023.2.3,MacIntel,66.66666667,1,1,5,0.03375,-0.01125,1,0,0,2.482,rock_grid_rect_2,5,10,-1,-1,2.482,-0.3575,-0.4175,1,0,0,5.12,Obsidian_rect,5,5.12,1,4,0,4,0,1,,,,,,,,,,,,,
62b9c2f1e55fe9f17dfedc5d,TCR,2024-06-21_13h47.46.411,LearnStrategy,2023.2.3,MacIntel,66.66666667,1,1,6,0.1125,-0.00375,1,0,0,35.746,rock_grid_rect_2,1,02,-1,-1,35.746,-0.11375,-0.395,1,0,0,4.952,Pegmatite_rect,6,4.952,0,5,0,5,0,1,,,,,,,,,,,,,
62b9c2f1e55fe9f17dfedc5d,TCR,2024-06-21_13h47.46.411,LearnStrategy,2023.2.3,MacIntel,66.66666667,1,1,7,0.085,-0.00125,1,0,0,1.814,rock_grid_rect_2,7,07,-1,-1,1.814,-0.1175,-0.2475,1,0,0,2.889,Basalt_rect,2,2.889,0,6,0,6,0,1,,,,,,,,,,,,,
62b9c2f1e55fe9f17dfedc5d,TCR,2024-06-21_13h47.46.411,LearnStrategy,2023.2.3,MacIntel,66.66666667,1,1,8,0.06625,-0.015,1,0,0,1.546,rock_grid_rect_2,3,11,-1,-1,1.546,-0.355,-0.405,1,0,0,2.906,Obsidian_rect,5,2.906,0,7,0,7,0,1,,,,,,,,,,,,,
62b9c2f1e55fe9f17dfedc5d,TCR,2024-06-21_13h47.46.411,LearnStrategy,2023.2.3,MacIntel,66.66666667,1,1,9,0.085,0,1,0,0,1.931,rock_grid_rect_2,6,03,-1,-1,1.931,-0.1175,-0.40625,1,0,0,2.82,Pegmatite_rect,6,2.82,1,8,0,8,0,1,,,,,,,,,,,,,
62b9c2f1e55fe9f17dfedc5d,TCR,2024-06-21_13h47.46.411,LearnStrategy,2023.2.3,MacIntel,66.66666667,1,1,10,0.06875,-0.01,1,0,0,1.681,rock_grid_rect_2,8,15,-1,-1,1.681,0.06625,-0.40375,1,0,0,5.655,Peridotite_rect,7,5.655,0,9,0,9,0,1,,,,,,,,,,,,,
62b9c2f1e55fe9f17dfedc5d,TCR,2024-06-21_13h47.46.411,LearnStrategy,2023.2.3,MacIntel,66.66666667,1,1,11,-0.105,0.00875,1,0,0,3.065,rock_grid_rect_2,3,06,-1,-1,3.065,0.3225,-0.39375,1,0,0,3.321,Pumice_rect,8,3.321,0,10,0,10,0,1,,,,,,,,,,,,,
62b9c2f1e55fe9f17dfedc5d,TCR,2024-06-21_13h47.46.411,LearnStrategy,2023.2.3,MacIntel,66.66666667,1,1,12,0.0625,-0.01125,1,0,0,2.648,rock_grid_rect_2,4,01,-1,-1,2.648,0.1775,-0.22875,1,0,0,15.472,Diorite_rect,3,15.472,0,11,0,11,0,1,,,,,,,,,,,,,
62b9c2f1e55fe9f17dfedc5d,TCR,2024-06-21_13h47.46.411,LearnStrategy,2023.2.3,MacIntel,66.66666667,1,1,13,0.03625,-0.02375,1,0,0,1.88,rock_grid_rect_2,6,06,-1,-1,1.88,-0.36875,-0.2375,1,0,0,11.591,Andesite_rect,1,11.591,0,12,0,12,0,1,,,,,,,,,,,,,
62b9c2f1e55fe9f17dfedc5d,TCR,2024-06-21_13h47.46.411,LearnStrategy,2023.2.3,MacIntel,66.66666667,1,1,14,0.08875,0,1,0,0,1.964,rock_grid_rect_2,1,14,-1,-1,1.964,0.1225,-0.38375,1,0,0,5.24,Peridotite_rect,7,5.24,0,13,0,13,0,1,,,,,,,,,,,,,
62b9c2f1e55fe9f17dfedc5d,TCR,2024-06-21_13h47.46.411,LearnStrategy,2023.2.3,MacIntel,66.66666667,1,1,15,0.02125,-0.01625,1,0,0,2.047,rock_grid_rect_2,8,14,-1,-1,2.047,0.1225,-0.25125,1,0,0,5.725,Diorite_rect,3,5.725,0,14,0,14,0,1,,,,,,,,,,,,,
62b9c2f1e55fe9f17dfedc5d,TCR,2024-06-21_13h47.46.411,LearnStrategy,2023.2.3,MacIntel,66.66666667,1,1,16,0.12375,0.00625,1,0,0,1.982,rock_grid_rect_2,5,09,-1,-1,1.982,-0.3725,-0.4,1,0,0,5.674,Obsidian_rect,5,5.674,1,15,0,15,0,1,,,,,,,,,,,,,
62b9c2f1e55fe9f17dfedc5d,TCR,2024-06-21_13h47.46.411,LearnStrategy,2023.2.3,MacIntel,66.66666667,1,2,1,,,,,,,,7,10,,,,,,,,,,,6,4.784,0,,,,,,-0.09875,-0.38375,1,0,0,4.784,Pegmatite_rect,0,0,0,0,1,
62b9c2f1e55fe9f17dfedc5d,TCR,2024-06-21_13h47.46.411,LearnStrategy,2023.2.3,MacIntel,66.66666667,1,2,2,,,,,,,,8,08,,,,,,,,,,,2,2.023,0,,,,,,-0.12125,-0.25625,1,0,0,2.023,Basalt_rect,1,0,1,0,1,
62b9c2f1e55fe9f17dfedc5d,TCR,2024-06-21_13h47.46.411,LearnStrategy,2023.2.3,MacIntel,66.66666667,1,2,3,,,,,,,,7,02,,,,,,,,,,,5,2.421,0,,,,,,-0.35625,-0.39125,1,0,0,2.421,Obsidian_rect,2,0,2,0,1,
62b9c2f1e55fe9f17dfedc5d,TCR,2024-06-21_13h47.46.411,LearnStrategy,2023.2.3,MacIntel,66.66666667,1,2,4,,,,,,,,3,10,,,,,,,,,,,3,1.68,1,,,,,,0.13625,-0.2575,1,0,0,1.68,Diorite_rect,3,0,3,0,1,
62b9c2f1e55fe9f17dfedc5d,TCR,2024-06-21_13h47.46.411,LearnStrategy,2023.2.3,MacIntel,66.66666667,1,2,5,,,,,,,,2,05,,,,,,,,,,,4,5.469,0,,,,,,0.38625,-0.25875,1,0,0,5.469,Gabbro_rect,4,0,4,0,1,
62b9c2f1e55fe9f17dfedc5d,TCR,2024-06-21_13h47.46.411,LearnStrategy,2023.2.3,MacIntel,66.66666667,1,2,6,,,,,,,,5,06,,,,,,,,,,,8,3.691,0,,,,,,0.325,-0.40875,1,0,0,3.691,Pumice_rect,5,0,5,0,1,
62b9c2f1e55fe9f17dfedc5d,TCR,2024-06-21_13h47.46.411,LearnStrategy,2023.2.3,MacIntel,66.66666667,1,2,7,,,,,,,,3,15,,,,,,,,,,,8,9.231,0,,,,,,0.405,-0.39125,1,0,0,9.231,Pumice_rect,6,0,6,0,1,
62b9c2f1e55fe9f17dfedc5d,TCR,2024-06-21_13h47.46.411,LearnStrategy,2023.2.3,MacIntel,66.66666667,1,2,8,,,,,,,,5,16,,,,,,,,,,,5,10.701,1,,,,,,-0.44,-0.4,1,0,0,10.701,Obsidian_rect,7,0,7,0,1,
62b9c2f1e55fe9f17dfedc5d,TCR,2024-06-21_13h47.46.411,LearnStrategy,2023.2.3,MacIntel,66.66666667,1,2,9,,,,,,,,8,16,,,,,,,,,,,1,3.23,0,,,,,,-0.40125,-0.24125,1,0,0,3.23,Andesite_rect,8,0,8,0,1,
62b9c2f1e55fe9f17dfedc5d,TCR,2024-06-21_13h47.46.411,LearnStrategy,2023.2.3,MacIntel,66.66666667,1,2,10,,,,,,,,1,16,,,,,,,,,,,2,2.471,0,,,,,,-0.0925,-0.255,1,0,0,2.471,Basalt_rect,9,0,9,0,1,
62b9c2f1e55fe9f17dfedc5d,TCR,2024-06-21_13h47.46.411,LearnStrategy,2023.2.3,MacIntel,66.66666667,1,2,11,,,,,,,,4,15,,,,,,,,,,,6,4.624,0,,,,,,-0.12,-0.40875,1,0,0,4.624,Pegmatite_rect,10,0,10,0,1,
62b9c2f1e55fe9f17dfedc5d,TCR,2024-06-21_13h47.46.411,LearnStrategy,2023.2.3,MacIntel,66.66666667,1,2,12,,,,,,,,4,10,,,,,,,,,,,5,2.44,0,,,,,,-0.33875,-0.3975,1,0,0,2.44,Obsidian_rect,11,0,11,0,1,
62b9c2f1e55fe9f17dfedc5d,TCR,2024-06-21_13h47.46.411,LearnStrategy,2023.2.3,MacIntel,66.66666667,1,2,13,,,,,,,,6,12,,,,,,,,,,,8,3.158,0,,,,,,0.36875,-0.38,1,0,0,3.158,Pumice_rect,12,0,12,0,1,
62b9c2f1e55fe9f17dfedc5d,TCR,2024-06-21_13h47.46.411,LearnStrategy,2023.2.3,MacIntel,66.66666667,1,2,14,,,,,,,,2,08,,,,,,,,,,,4,5.298,0,,,,,,0.39375,-0.265,1,0,0,5.298,Gabbro_rect,13,0,13,0,1,
62b9c2f1e55fe9f17dfedc5d,TCR,2024-06-21_13h47.46.411,LearnStrategy,2023.2.3,MacIntel,66.66666667,1,2,15,,,,,,,,6,16,,,,,,,,,,,1,2.471,0,,,,,,-0.35375,-0.26125,1,0,0,2.471,Andesite_rect,14,0,14,0,1,
62b9c2f1e55fe9f17dfedc5d,TCR,2024-06-21_13h47.46.411,LearnStrategy,2023.2.3,MacIntel,66.66666667,1,2,16,,,,,,,,1,07,,,,,,,,,,,3,4.224,0,,,,,,0.0875,-0.25875,1,0,0,4.224,Diorite_rect,15,0,15,0,1,
62b9c2f1e55fe9f17dfedc5d,TCR,2024-06-21_13h47.46.411,LearnStrategy,2023.2.3,MacIntel,66.66666667,2,1,1,0.02625,-0.0125,1,0,0,2.332,rock_grid_rect_2,5,08,-1,-1,2.332,-0.42875,-0.4075,1,0,0,4.685,Obsidian_rect,5,4.685,1,0,0,0,0,1,,,,,,,,,,,,,
62b9c2f1e55fe9f17dfedc5d,TCR,2024-06-21_13h47.46.411,LearnStrategy,2023.2.3,MacIntel,66.66666667,2,1,2,0.09125,-0.02,1,0,0,1.747,rock_grid_rect_2,8,04,-1,-1,1.747,0.35875,-0.41,1,0,0,2.656,Pumice_rect,8,2.656,1,1,0,1,0,1,,,,,,,,,,,,,
62b9c2f1e55fe9f17dfedc5d,TCR,2024-06-21_13h47.46.411,LearnStrategy,2023.2.3,MacIntel,66.66666667,2,1,3,0.08875,0.00625,1,0,0,2.348,rock_grid_rect_2,1,09,-1,-1,2.348,-0.165,-0.4025,1,0,0,3.253,Pegmatite_rect,6,3.253,0,2,0,2,0,1,,,,,,,,,,,,,
62b9c2f1e55fe9f17dfedc5d,TCR,2024-06-21_13h47.46.411,LearnStrategy,2023.2.3,MacIntel,66.66666667,2,1,4,0.04625,-0.00875,1,0,0,1.798,rock_grid_rect_2,2,06,-1,-1,1.798,-0.12,-0.25125,1,0,0,1.507,Basalt_rect,2,1.507,1,3,0,3,0,1,,,,,,,,,,,,,
62b9c2f1e55fe9f17dfedc5d,TCR,2024-06-21_13h47.46.411,LearnStrategy,2023.2.3,MacIntel,66.66666667,2,1,5,0.0875,-0.01125,1,0,0,1.914,rock_grid_rect_2,2,11,-1,-1,1.914,0.12875,-0.2475,1,0,0,1.703,Diorite_rect,3,1.703,0,4,0,4,0,1,,,,,,,,,,,,,
62b9c2f1e55fe9f17dfedc5d,TCR,2024-06-21_13h47.46.411,LearnStrategy,2023.2.3,MacIntel,66.66666667,2,1,6,0.015,0.00375,1,0,0,4.264,rock_grid_rect_2,4,01,-1,-1,4.264,0.4,-0.25375,1,0,0,6.602,Gabbro_rect,4,6.602,1,5,0,5,0,1,,,,,,,,,,,,,
62b9c2f1e55fe9f17dfedc5d,TCR,2024-06-21_13h47.46.411,LearnStrategy,2023.2.3,MacIntel,66.66666667,2,1,7,0.0375,0.00125,1,0,0,1.797,rock_grid_rect_2,7,14,-1,-1,1.797,0.41875,-0.40625,1,0,0,4.022,Pumice_rect,8,4.022,0,6,0,6,0,1,,,,,,,,,,,,,
62b9c2f1e55fe9f17dfedc5d,TCR,2024-06-21_13h47.46.411,LearnStrategy,2023.2.3,MacIntel,66.66666667,2,1,8,-0.08375,0,1,0,0,1.562,rock_grid_rect_2,3,08,-1,-1,1.562,-0.39,-0.24625,1,0,0,2.529,Andesite_rect,1,2.529,0,7,0,7,0,1,,,,,,,,,,,,,
62b9c2f1e55fe9f17dfedc5d,TCR,2024-06-21_13h47.46.411,LearnStrategy,2023.2.3,MacIntel,66.66666667,2,1,9,0.0725,0.005,1,0,0,1.531,rock_grid_rect_2,6,05,-1,-1,1.531,-0.365,-0.23125,1,0,0,3.084,Andesite_rect,1,3.084,0,8,0,8,0,1,,,,,,,,,,,,,
62b9c2f1e55fe9f17dfedc5d,TCR,2024-06-21_13h47.46.411,LearnStrategy,2023.2.3,MacIntel,66.66666667,2,1,10,0.085,0.005,1,0,0,1.382,rock_grid_rect_2,8,04,-1,-1,1.382,0.38,-0.41625,1,0,0,2.64,Pumice_rect,8,2.64,1,9,0,9,0,1,,,,,,,,,,,,,
62b9c2f1e55fe9f17dfedc5d,TCR,2024-06-21_13h47.46.411,LearnStrategy,2023.2.3,MacIntel,66.66666667,2,1,11,0.0525,-0.0125,1,0,0,1.345,rock_grid_rect_2,4,16,-1,-1,1.345,-0.1075,-0.23625,1,0,0,5.718,Basalt_rect,2,5.718,0,10,0,10,0,1,,,,,,,,,,,,,
62b9c2f1e55fe9f17dfedc5d,TCR,2024-06-21_13h47.46.411,LearnStrategy,2023.2.3,MacIntel,66.66666667,2,1,12,0.03375,-0.01375,1,0,0,1.532,rock_grid_rect_2,7,16,-1,-1,1.532,0.34375,-0.26125,1,0,0,2.169,Gabbro_rect,4,2.169,0,11,0,11,0,1,,,,,,,,,,,,,
62b9c2f1e55fe9f17dfedc5d,TCR,2024-06-21_13h47.46.411,LearnStrategy,2023.2.3,MacIntel,66.66666667,2,1,13,-0.005,0.0125,1,0,0,1.647,rock_grid_rect_2,1,14,-1,-1,1.647,0.14,-0.41375,1,0,0,3.403,Peridotite_rect,7,3.403,0,12,0,12,0,1,,,,,,,,,,,,,
62b9c2f1e55fe9f17dfedc5d,TCR,2024-06-21_13h47.46.411,LearnStrategy,2023.2.3,MacIntel,66.66666667,2,1,14,0.07,-0.005,1,0,0,1.697,rock_grid_rect_2,8,04,-1,-1,1.697,0.35,-0.4,1,0,0,3.605,Pumice_rect,8,3.605,1,13,0,13,0,1,,,,,,,,,,,,,
62b9c2f1e55fe9f17dfedc5d,TCR,2024-06-21_13h47.46.411,LearnStrategy,2023.2.3,MacIntel,66.66666667,2,1,15,0.04,-0.00625,1,0,0,1.431,rock_grid_rect_2,6,06,-1,-1,1.431,-0.3525,-0.2625,1,0,0,3.871,Andesite_rect,1,3.871,0,14,0,14,0,1,,,,,,,,,,,,,
62b9c2f1e55fe9f17dfedc5d,TCR,2024-06-21_13h47.46.411,LearnStrategy,2023.2.3,MacIntel,66.66666667,2,1,16,0.01,0.0025,1,0,0,1.712,rock_grid_rect_2,5,11,-1,-1,1.712,-0.40375,-0.39,1,0,0,3.457,Obsidian_rect,5,3.457,1,15,0,15,0,1,,,,,,,,,,,,,
62b9c2f1e55fe9f17dfedc5d,TCR,2024-06-21_13h47.46.411,LearnStrategy,2023.2.3,MacIntel,66.66666667,2,2,1,,,,,,,,6,11,,,,,,,,,,,8,6.904,0,,,,,,0.395,-0.41625,1,0,0,6.904,Pumice_rect,0,0,0,0,1,
62b9c2f1e55fe9f17dfedc5d,TCR,2024-06-21_13h47.46.411,LearnStrategy,2023.2.3,MacIntel,66.66666667,2,2,2,,,,,,,,6,07,,,,,,,,,,,2,2.506,0,,,,,,-0.08875,-0.2475,1,0,0,2.506,Basalt_rect,1,0,1,0,1,
62b9c2f1e55fe9f17dfedc5d,TCR,2024-06-21_13h47.46.411,LearnStrategy,2023.2.3,MacIntel,66.66666667,2,2,3,,,,,,,,8,05,,,,,,,,,,,8,2.055,1,,,,,,0.34,-0.4,1,0,0,2.055,Pumice_rect,2,0,2,0,1,
62b9c2f1e55fe9f17dfedc5d,TCR,2024-06-21_13h47.46.411,LearnStrategy,2023.2.3,MacIntel,66.66666667,2,2,4,,,,,,,,7,08,,,,,,,,,,,3,2.24,0,,,,,,0.175,-0.24375,1,0,0,2.24,Diorite_rect,3,0,3,0,1,
62b9c2f1e55fe9f17dfedc5d,TCR,2024-06-21_13h47.46.411,LearnStrategy,2023.2.3,MacIntel,66.66666667,2,2,5,,,,,,,,3,02,,,,,,,,,,,7,1.474,0,,,,,,0.105,-0.38375,1,0,0,1.474,Peridotite_rect,4,0,4,0,1,
62b9c2f1e55fe9f17dfedc5d,TCR,2024-06-21_13h47.46.411,LearnStrategy,2023.2.3,MacIntel,66.66666667,2,2,6,,,,,,,,5,05,,,,,,,,,,,5,2.089,1,,,,,,-0.385,-0.40875,1,0,0,2.089,Obsidian_rect,5,0,5,0,1,
62b9c2f1e55fe9f17dfedc5d,TCR,2024-06-21_13h47.46.411,LearnStrategy,2023.2.3,MacIntel,66.66666667,2,2,7,,,,,,,,3,16,,,,,,,,,,,2,6.956,0,,,,,,-0.1025,-0.25875,1,0,0,6.956,Basalt_rect,6,0,6,0,1,
62b9c2f1e55fe9f17dfedc5d,TCR,2024-06-21_13h47.46.411,LearnStrategy,2023.2.3,MacIntel,66.66666667,2,2,8,,,,,,,,7,15,,,,,,,,,,,3,1.806,0,,,,,,0.11875,-0.27,1,0,0,1.806,Diorite_rect,7,0,7,0,1,
62b9c2f1e55fe9f17dfedc5d,TCR,2024-06-21_13h47.46.411,LearnStrategy,2023.2.3,MacIntel,66.66666667,2,2,9,,,,,,,,1,11,,,,,,,,,,,6,3.719,0,,,,,,-0.1575,-0.38875,1,0,0,3.719,Pegmatite_rect,8,0,8,0,1,
62b9c2f1e55fe9f17dfedc5d,TCR,2024-06-21_13h47.46.411,LearnStrategy,2023.2.3,MacIntel,66.66666667,2,2,10,,,,,,,,2,02,,,,,,,,,,,8,2.642,0,,,,,,0.38125,-0.4025,1,0,0,2.642,Pumice_rect,9,0,9,0,1,
62b9c2f1e55fe9f17dfedc5d,TCR,2024-06-21_13h47.46.411,LearnStrategy,2023.2.3,MacIntel,66.66666667,2,2,11,,,,,,,,4,05,,,,,,,,,,,1,2.656,0,,,,,,-0.3825,-0.27125,1,0,0,2.656,Andesite_rect,10,0,10,0,1,
62b9c2f1e55fe9f17dfedc5d,TCR,2024-06-21_13h47.46.411,LearnStrategy,2023.2.3,MacIntel,66.66666667,2,2,12,,,,,,,,5,02,,,,,,,,,,,5,2.332,1,,,,,,-0.37875,-0.3875,1,0,0,2.332,Obsidian_rect,11,0,11,0,1,
62b9c2f1e55fe9f17dfedc5d,TCR,2024-06-21_13h47.46.411,LearnStrategy,2023.2.3,MacIntel,66.66666667,2,2,13,,,,,,,,8,06,,,,,,,,,,,8,2.539,1,,,,,,0.4125,-0.40375,1,0,0,2.539,Pumice_rect,12,0,12,0,1,
62b9c2f1e55fe9f17dfedc5d,TCR,2024-06-21_13h47.46.411,LearnStrategy,2023.2.3,MacIntel,66.66666667,2,2,14,,,,,,,,2,14,,,,,,,,,,,3,2.274,0,,,,,,0.18375,-0.2425,1,0,0,2.274,Diorite_rect,13,0,13,0,1,
62b9c2f1e55fe9f17dfedc5d,TCR,2024-06-21_13h47.46.411,LearnStrategy,2023.2.3,MacIntel,66.66666667,2,2,15,,,,,,,,4,08,,,,,,,,,,,4,1.42,1,,,,,,0.34125,-0.2325,1,0,0,1.42,Gabbro_rect,14,0,14,0,1,
62b9c2f1e55fe9f17dfedc5d,TCR,2024-06-21_13h47.46.411,LearnStrategy,2023.2.3,MacIntel,66.66666667,2,2,16,,,,,,,,1,01,,,,,,,,,,,2,3.488,0,,,,,,-0.17625,-0.2575,1,0,0,3.488,Basalt_rect,15,0,15,0,1,
62b9c2f1e55fe9f17dfedc5d,TCR,2024-06-21_13h47.46.411,LearnStrategy,2023.2.3,MacIntel,66.66666667,3,1,1,0.06875,-0.01375,1,0,0,1.749,rock_grid_rect_2,5,07,-1,-1,1.749,-0.4025,-0.39125,1,0,0,2.647,Obsidian_rect,5,2.647,1,0,0,0,0,1,,,,,,,,,,,,,
62b9c2f1e55fe9f17dfedc5d,TCR,2024-06-21_13h47.46.411,LearnStrategy,2023.2.3,MacIntel,66.66666667,3,1,2,0.03,0,1,0,0,2.964,rock_grid_rect_2,6,03,-1,-1,2.964,-0.11375,-0.26375,1,0,0,2.719,Basalt_rect,2,2.719,0,1,0,1,0,1,,,,,,,,,,,,,
62b9c2f1e55fe9f17dfedc5d,TCR,2024-06-21_13h47.46.411,LearnStrategy,2023.2.3,MacIntel,66.66666667,3,1,3,-0.05125,-0.00375,1,0,0,1.53,rock_grid_rect_2,1,14,-1,-1,1.53,-0.105,-0.41625,1,0,0,5.856,Pegmatite_rect,6,5.856,0,2,0,2,0,1,,,,,,,,,,,,,
62b9c2f1e55fe9f17dfedc5d,TCR,2024-06-21_13h47.46.411,LearnStrategy,2023.2.3,MacIntel,66.66666667,3,1,4,-0.01875,-0.01125,1,0,0,1.908,rock_grid_rect_2,4,12,-1,-1,1.908,-0.37625,-0.42125,1,0,0,1.972,Obsidian_rect,5,1.972,0,3,0,3,0,1,,,,,,,,,,,,,
62b9c2f1e55fe9f17dfedc5d,TCR,2024-06-21_13h47.46.411,LearnStrategy,2023.2.3,MacIntel,66.66666667,3,1,5,0.08375,-0.0125,1,0,0,1.431,rock_grid_rect_2,4,14,-1,-1,1.431,-0.09375,-0.255,1,0,0,4.955,Basalt_rect,2,4.955,0,4,0,4,0,1,,,,,,,,,,,,,
62b9c2f1e55fe9f17dfedc5d,TCR,2024-06-21_13h47.46.411,LearnStrategy,2023.2.3,MacIntel,66.66666667,3,1,6,0.08,-0.00125,1,0,0,1.281,rock_grid_rect_2,8,15,-1,-1,1.281,0.34375,-0.42125,1,0,0,2.088,Pumice_rect,8,2.088,1,5,0,5,0,1,,,,,,,,,,,,,
62b9c2f1e55fe9f17dfedc5d,TCR,2024-06-21_13h47.46.411,LearnStrategy,2023.2.3,MacIntel,66.66666667,3,1,7,0.05625,-0.00125,1,0,0,1.346,rock_grid_rect_2,2,10,-1,-1,1.346,0.08625,-0.26625,1,0,0,3.482,Diorite_rect,3,3.482,0,6,0,6,0,1,,,,,,,,,,,,,
62b9c2f1e55fe9f17dfedc5d,TCR,2024-06-21_13h47.46.411,LearnStrategy,2023.2.3,MacIntel,66.66666667,3,1,8,-0.055,0.005,1,0,0,5.347,rock_grid_rect_2,7,14,-1,-1,5.347,0.45375,-0.39625,1,0,0,5.082,Pumice_rect,8,5.082,0,7,0,7,0,1,,,,,,,,,,,,,
62b9c2f1e55fe9f17dfedc5d,TCR,2024-06-21_13h47.46.411,LearnStrategy,2023.2.3,MacIntel,66.66666667,3,1,9,0.055,-0.01375,1,0,0,1.332,rock_grid_rect_2,2,06,-1,-1,1.332,-0.41,-0.25375,1,0,0,5.356,Andesite_rect,1,5.356,0,8,0,8,0,1,,,,,,,,,,,,,
62b9c2f1e55fe9f17dfedc5d,TCR,2024-06-21_13h47.46.411,LearnStrategy,2023.2.3,MacIntel,66.66666667,3,1,10,-0.0475,-0.02125,1,0,0,1.499,rock_grid_rect_2,3,07,-1,-1,1.499,-0.10125,-0.40125,1,0,0,2.269,Pegmatite_rect,6,2.269,0,9,0,9,0,1,,,,,,,,,,,,,
62b9c2f1e55fe9f17dfedc5d,TCR,2024-06-21_13h47.46.411,LearnStrategy,2023.2.3,MacIntel,66.66666667,3,1,11,0.055,0,1,0,0,1.846,rock_grid_rect_2,1,03,-1,-1,1.846,0.40125,-0.25375,1,0,0,5.522,Gabbro_rect,4,5.522,0,10,0,10,0,1,,,,,,,,,,,,,
62b9c2f1e55fe9f17dfedc5d,TCR,2024-06-21_13h47.46.411,LearnStrategy,2023.2.3,MacIntel,66.66666667,3,1,12,0.02375,-0.00875,1,0,0,1.381,rock_grid_rect_2,7,07,-1,-1,1.381,0.35125,-0.24875,1,0,0,1.341,Gabbro_rect,4,1.341,0,11,0,11,0,1,,,,,,,,,,,,,
62b9c2f1e55fe9f17dfedc5d,TCR,2024-06-21_13h47.46.411,LearnStrategy,2023.2.3,MacIntel,66.66666667,3,1,13,0.1025,-0.01375,1,0,0,1.715,rock_grid_rect_2,3,13,-1,-1,1.715,-0.0825,-0.4025,1,0,0,1.907,Pegmatite_rect,6,1.907,0,12,0,12,0,1,,,,,,,,,,,,,
62b9c2f1e55fe9f17dfedc5d,TCR,2024-06-21_13h47.46.411,LearnStrategy,2023.2.3,MacIntel,66.66666667,3,1,14,0.05875,0.02125,1,0,0,1.48,rock_grid_rect_2,1,10,-1,-1,1.48,0.11375,-0.41875,1,0,0,4.072,Peridotite_rect,7,4.072,0,13,0,13,0,1,,,,,,,,,,,,,
62b9c2f1e55fe9f17dfedc5d,TCR,2024-06-21_13h47.46.411,LearnStrategy,2023.2.3,MacIntel,66.66666667,3,1,15,0.00625,-0.00625,1,0,0,1.429,rock_grid_rect_2,2,06,-1,-1,1.429,-0.33375,-0.2475,1,0,0,1.107,Andesite_rect,1,1.107,0,14,0,14,0,1,,,,,,,,,,,,,
62b9c2f1e55fe9f17dfedc5d,TCR,2024-06-21_13h47.46.411,LearnStrategy,2023.2.3,MacIntel,66.66666667,3,1,16,0.0175,-0.00625,1,0,0,1.448,rock_grid_rect_2,6,06,-1,-1,1.448,-0.37625,-0.26625,1,0,0,7.924,Andesite_rect,1,7.924,0,15,0,15,0,1,,,,,,,,,,,,,
62b9c2f1e55fe9f17dfedc5d,TCR,2024-06-21_13h47.46.411,LearnStrategy,2023.2.3,MacIntel,66.66666667,3,2,1,,,,,,,,8,03,,,,,,,,,,,8,3.92,1,,,,,,0.39,-0.3975,1,0,0,3.92,Pumice_rect,0,0,0,0,1,
62b9c2f1e55fe9f17dfedc5d,TCR,2024-06-21_13h47.46.411,LearnStrategy,2023.2.3,MacIntel,66.66666667,3,2,2,,,,,,,,5,12,,,,,,,,,,,5,3.505,1,,,,,,-0.3775,-0.40125,1,0,0,3.505,Obsidian_rect,1,0,1,0,1,
62b9c2f1e55fe9f17dfedc5d,TCR,2024-06-21_13h47.46.411,LearnStrategy,2023.2.3,MacIntel,66.66666667,3,2,3,,,,,,,,6,08,,,,,,,,,,,2,2.023,0,,,,,,-0.11375,-0.24875,1,0,0,2.023,Basalt_rect,2,0,2,0,1,
62b9c2f1e55fe9f17dfedc5d,TCR,2024-06-21_13h47.46.411,LearnStrategy,2023.2.3,MacIntel,66.66666667,3,2,4,,,,,,,,8,02,,,,,,,,,,,3,1.772,0,,,,,,0.1225,-0.22875,1,0,0,1.772,Diorite_rect,3,0,3,0,1,
62b9c2f1e55fe9f17dfedc5d,TCR,2024-06-21_13h47.46.411,LearnStrategy,2023.2.3,MacIntel,66.66666667,3,2,5,,,,,,,,2,01,,,,,,,,,,,6,2.331,0,,,,,,-0.12625,-0.40625,1,0,0,2.331,Pegmatite_rect,4,0,4,0,1,
62b9c2f1e55fe9f17dfedc5d,TCR,2024-06-21_13h47.46.411,LearnStrategy,2023.2.3,MacIntel,66.66666667,3,2,6,,,,,,,,4,03,,,,,,,,,,,1,1.223,0,,,,,,-0.32375,-0.2475,1,0,0,1.223,Andesite_rect,5,0,5,0,1,
62b9c2f1e55fe9f17dfedc5d,TCR,2024-06-21_13h47.46.411,LearnStrategy,2023.2.3,MacIntel,66.66666667,3,2,7,,,,,,,,3,09,,,,,,,,,,,7,1.787,0,,,,,,0.1475,-0.3925,1,0,0,1.787,Peridotite_rect,6,0,6,0,1,
62b9c2f1e55fe9f17dfedc5d,TCR,2024-06-21_13h47.46.411,LearnStrategy,2023.2.3,MacIntel,66.66666667,3,2,8,,,,,,,,1,06,,,,,,,,,,,3,1.173,0,,,,,,0.1175,-0.26875,1,0,0,1.173,Diorite_rect,7,0,7,0,1,
62b9c2f1e55fe9f17dfedc5d,TCR,2024-06-21_13h47.46.411,LearnStrategy,2023.2.3,MacIntel,66.66666667,3,2,9,,,,,,,,6,09,,,,,,,,,,,4,1.815,0,,,,,,0.35125,-0.2525,1,0,0,1.815,Gabbro_rect,8,0,8,0,1,
62b9c2f1e55fe9f17dfedc5d,TCR,2024-06-21_13h47.46.411,LearnStrategy,2023.2.3,MacIntel,66.66666667,3,2,10,,,,,,,,7,13,,,,,,,,,,,6,1.758,0,,,,,,-0.19875,-0.40125,1,0,0,1.758,Pegmatite_rect,9,0,9,0,1,
62b9c2f1e55fe9f17dfedc5d,TCR,2024-06-21_13h47.46.411,LearnStrategy,2023.2.3,MacIntel,66.66666667,3,2,11,,,,,,,,2,04,,,,,,,,,,,7,2.292,0,,,,,,0.14375,-0.40375,1,0,0,2.292,Peridotite_rect,10,0,10,0,1,
62b9c2f1e55fe9f17dfedc5d,TCR,2024-06-21_13h47.46.411,LearnStrategy,2023.2.3,MacIntel,66.66666667,3,2,12,,,,,,,,3,14,,,,,,,,,,,3,1.623,1,,,,,,0.12125,-0.24125,1,0,0,1.623,Diorite_rect,11,0,11,0,1,
62b9c2f1e55fe9f17dfedc5d,TCR,2024-06-21_13h47.46.411,LearnStrategy,2023.2.3,MacIntel,66.66666667,3,2,13,,,,,,,,5,04,,,,,,,,,,,1,3.291,0,,,,,,-0.39125,-0.235,1,0,0,3.291,Andesite_rect,12,0,12,0,1,
62b9c2f1e55fe9f17dfedc5d,TCR,2024-06-21_13h47.46.411,LearnStrategy,2023.2.3,MacIntel,66.66666667,3,2,14,,,,,,,,1,04,,,,,,,,,,,3,5.8,0,,,,,,0.1325,-0.235,1,0,0,5.8,Diorite_rect,13,0,13,0,1,
62b9c2f1e55fe9f17dfedc5d,TCR,2024-06-21_13h47.46.411,LearnStrategy,2023.2.3,MacIntel,66.66666667,3,2,15,,,,,,,,7,04,,,,,,,,,,,6,1.525,0,,,,,,-0.1725,-0.41,1,0,0,1.525,Pegmatite_rect,14,0,14,0,1,
62b9c2f1e55fe9f17dfedc5d,TCR,2024-06-21_13h47.46.411,LearnStrategy,2023.2.3,MacIntel,66.66666667,3,2,16,,,,,,,,4,13,,,,,,,,,,,1,1.296,0,,,,,,-0.3775,-0.26875,1,0,0,1.296,Andesite_rect,15,0,15,0,1,
62b9c2f1e55fe9f17dfedc5d,TCR,2024-06-21_13h47.46.411,LearnStrategy,2023.2.3,MacIntel,66.66666667,4,1,1,-0.05625,-0.02375,1,0,0,1.283,rock_grid_rect_2,8,04,-1,-1,1.283,0.425,-0.4075,1,0,0,3.838,Pumice_rect,8,3.838,1,0,0,0,0,1,,,,,,,,,,,,,
62b9c2f1e55fe9f17dfedc5d,TCR,2024-06-21_13h47.46.411,LearnStrategy,2023.2.3,MacIntel,66.66666667,4,1,2,0.0325,0.00625,1,0,0,1.381,rock_grid_rect_2,7,06,-1,-1,1.381,-0.12,-0.38125,1,0,0,2.431,Pegmatite_rect,6,2.431,0,1,0,1,0,1,,,,,,,,,,,,,
62b9c2f1e55fe9f17dfedc5d,TCR,2024-06-21_13h47.46.411,LearnStrategy,2023.2.3,MacIntel,66.66666667,4,1,3,-0.00625,-0.01,1,0,0,1.677,rock_grid_rect_2,7,16,-1,-1,1.677,0.0975,-0.40125,1,0,0,2.174,Peridotite_rect,7,2.174,1,2,0,2,0,1,,,,,,,,,,,,,
62b9c2f1e55fe9f17dfedc5d,TCR,2024-06-21_13h47.46.411,LearnStrategy,2023.2.3,MacIntel,66.66666667,4,1,4,0.05875,-0.00625,1,0,0,1.664,rock_grid_rect_2,3,07,-1,-1,1.664,-0.10375,-0.2525,1,0,0,1.173,Basalt_rect,2,1.173,0,3,0,3,0,1,,,,,,,,,,,,,
62b9c2f1e55fe9f17dfedc5d,TCR,2024-06-21_13h47.46.411,LearnStrategy,2023.2.3,MacIntel,66.66666667,4,1,5,-0.10625,-0.02,1,0,0,2.064,rock_grid_rect_2,3,06,-1,-1,2.064,-0.34125,-0.255,1,0,0,2.604,Andesite_rect,1,2.604,0,4,0,4,0,1,,,,,,,,,,,,,
62b9c2f1e55fe9f17dfedc5d,TCR,2024-06-21_13h47.46.411,LearnStrategy,2023.2.3,MacIntel,66.66666667,4,1,6,-0.0275,0.01875,1,0,0,7.03,rock_grid_rect_2,6,03,-1,-1,7.03,-0.3725,-0.39875,1,0,0,1.86,Obsidian_rect,5,1.86,0,5,0,5,0,1,,,,,,,,,,,,,
62b9c2f1e55fe9f17dfedc5d,TCR,2024-06-21_13h47.46.411,LearnStrategy,2023.2.3,MacIntel,66.66666667,4,1,7,0.01125,-0.00125,1,0,0,8.181,rock_grid_rect_2,4,01,-1,-1,8.181,-0.1125,-0.41125,1,0,0,1.835,Pegmatite_rect,6,1.835,0,6,0,6,0,1,,,,,,,,,,,,,
62b9c2f1e55fe9f17dfedc5d,TCR,2024-06-21_13h47.46.411,LearnStrategy,2023.2.3,MacIntel,66.66666667,4,1,8,0.0275,-0.00875,1,0,0,17.63,rock_grid_rect_2,1,14,-1,-1,17.63,-0.125,-0.25125,1,0,0,9.317,Basalt_rect,2,9.317,0,7,0,7,0,1,,,,,,,,,,,,,
62b9c2f1e55fe9f17dfedc5d,TCR,2024-06-21_13h47.46.411,LearnStrategy,2023.2.3,MacIntel,66.66666667,4,1,9,0.0025,0,1,0,0,4.964,rock_grid_rect_2,1,02,-1,-1,4.964,0.35,-0.40375,1,0,0,1.652,Pumice_rect,8,1.652,0,8,0,8,0,1,,,,,,,,,,,,,
62b9c2f1e55fe9f17dfedc5d,TCR,2024-06-21_13h47.46.411,LearnStrategy,2023.2.3,MacIntel,66.66666667,4,1,10,-0.0375,0.00375,1,0,0,5.281,rock_grid_rect_2,5,07,-1,-1,5.281,-0.38125,-0.38125,1,0,0,19.021,Obsidian_rect,5,19.021,1,9,0,9,0,1,,,,,,,,,,,,,
62b9c2f1e55fe9f17dfedc5d,TCR,2024-06-21_13h47.46.411,LearnStrategy,2023.2.3,MacIntel,66.66666667,4,1,11,0.07125,0.0025,1,0,0,15.664,rock_grid_rect_2,6,05,-1,-1,15.664,0.12,-0.25875,1,0,0,3.968,Diorite_rect,3,3.968,0,10,0,10,0,1,,,,,,,,,,,,,
62b9c2f1e55fe9f17dfedc5d,TCR,2024-06-21_13h47.46.411,LearnStrategy,2023.2.3,MacIntel,66.66666667,4,1,12,-0.005,-0.01,1,0,0,2.83,rock_grid_rect_2,2,11,-1,-1,2.83,-0.38125,-0.2525,1,0,0,6.038,Andesite_rect,1,6.038,0,11,0,11,0,1,,,,,,,,,,,,,
62b9c2f1e55fe9f17dfedc5d,TCR,2024-06-21_13h47.46.411,LearnStrategy,2023.2.3,MacIntel,66.66666667,4,1,13,-0.00375,0.01,1,0,0,7.015,rock_grid_rect_2,6,15,-1,-1,7.015,0.335,-0.265,1,0,0,3.184,Gabbro_rect,4,3.184,0,12,0,12,0,1,,,,,,,,,,,,,
62b9c2f1e55fe9f17dfedc5d,TCR,2024-06-21_13h47.46.411,LearnStrategy,2023.2.3,MacIntel,66.66666667,4,1,14,0.00625,0,1,0,0,3.064,rock_grid_rect_2,1,05,-1,-1,3.064,-0.35625,-0.2675,1,0,0,4.136,Andesite_rect,1,4.136,1,13,0,13,0,1,,,,,,,,,,,,,
62b9c2f1e55fe9f17dfedc5d,TCR,2024-06-21_13h47.46.411,LearnStrategy,2023.2.3,MacIntel,66.66666667,4,1,15,0.04625,-0.00375,1,0,0,1.748,rock_grid_rect_2,2,10,-1,-1,1.748,-0.07875,-0.2625,1,0,0,5.657,Basalt_rect,2,5.657,1,14,0,14,0,1,,,,,,,,,,,,,
62b9c2f1e55fe9f17dfedc5d,TCR,2024-06-21_13h47.46.411,LearnStrategy,2023.2.3,MacIntel,66.66666667,4,1,16,0.095,0,1,0,0,1.699,rock_grid_rect_2,4,16,-1,-1,1.699,0.12375,-0.25875,1,0,0,2.241,Diorite_rect,3,2.241,0,15,0,15,0,1,,,,,,,,,,,,,
62b9c2f1e55fe9f17dfedc5d,TCR,2024-06-21_13h47.46.411,LearnStrategy,2023.2.3,MacIntel,66.66666667,4,2,1,,,,,,,,7,10,,,,,,,,,,,1,5.473,0,,,,,,-0.36,-0.26125,1,0,0,5.473,Andesite_rect,0,0,0,0,1,
62b9c2f1e55fe9f17dfedc5d,TCR,2024-06-21_13h47.46.411,LearnStrategy,2023.2.3,MacIntel,66.66666667,4,2,2,,,,,,,,5,04,,,,,,,,,,,5,1.819,1,,,,,,-0.3775,-0.3925,1,0,0,1.819,Obsidian_rect,1,0,1,0,1,
62b9c2f1e55fe9f17dfedc5d,TCR,2024-06-21_13h47.46.411,LearnStrategy,2023.2.3,MacIntel,66.66666667,4,2,3,,,,,,,,3,10,,,,,,,,,,,3,3.675,1,,,,,,0.0775,-0.25375,1,0,0,3.675,Diorite_rect,2,0,2,0,1,
62b9c2f1e55fe9f17dfedc5d,TCR,2024-06-21_13h47.46.411,LearnStrategy,2023.2.3,MacIntel,66.66666667,4,2,4,,,,,,,,2,14,,,,,,,,,,,6,2.118,0,,,,,,-0.1,-0.39,1,0,0,2.118,Pegmatite_rect,3,0,3,0,1,
62b9c2f1e55fe9f17dfedc5d,TCR,2024-06-21_13h47.46.411,LearnStrategy,2023.2.3,MacIntel,66.66666667,4,2,5,,,,,,,,1,07,,,,,,,,,,,7,1.239,0,,,,,,0.0925,-0.42125,1,0,0,1.239,Peridotite_rect,4,0,4,0,1,
62b9c2f1e55fe9f17dfedc5d,TCR,2024-06-21_13h47.46.411,LearnStrategy,2023.2.3,MacIntel,66.66666667,4,2,6,,,,,,,,8,06,,,,,,,,,,,8,1.757,1,,,,,,0.38125,-0.39,1,0,0,1.757,Pumice_rect,5,0,5,0,1,
62b9c2f1e55fe9f17dfedc5d,TCR,2024-06-21_13h47.46.411,LearnStrategy,2023.2.3,MacIntel,66.66666667,4,2,7,,,,,,,,3,14,,,,,,,,,,,1,1.739,0,,,,,,-0.36,-0.2675,1,0,0,1.739,Andesite_rect,6,0,6,0,1,
62b9c2f1e55fe9f17dfedc5d,TCR,2024-06-21_13h47.46.411,LearnStrategy,2023.2.3,MacIntel,66.66666667,4,2,8,,,,,,,,4,03,,,,,,,,,,,6,2.502,0,,,,,,-0.12625,-0.40625,1,0,0,2.502,Pegmatite_rect,7,0,7,0,1,
62b9c2f1e55fe9f17dfedc5d,TCR,2024-06-21_13h47.46.411,LearnStrategy,2023.2.3,MacIntel,66.66666667,4,2,9,,,,,,,,6,09,,,,,,,,,,,4,3.824,0,,,,,,0.38875,-0.24875,1,0,0,3.824,Gabbro_rect,8,0,8,0,1,
62b9c2f1e55fe9f17dfedc5d,TCR,2024-06-21_13h47.46.411,LearnStrategy,2023.2.3,MacIntel,66.66666667,4,2,10,,,,,,,,1,04,,,,,,,,,,,7,1.491,0,,,,,,0.17125,-0.4,1,0,0,1.491,Peridotite_rect,9,0,9,0,1,
62b9c2f1e55fe9f17dfedc5d,TCR,2024-06-21_13h47.46.411,LearnStrategy,2023.2.3,MacIntel,66.66666667,4,2,11,,,,,,,,2,04,,,,,,,,,,,2,4.69,1,,,,,,-0.22125,-0.26,1,0,0,4.69,Basalt_rect,10,0,10,0,1,
62b9c2f1e55fe9f17dfedc5d,TCR,2024-06-21_13h47.46.411,LearnStrategy,2023.2.3,MacIntel,66.66666667,4,2,12,,,,,,,,4,08,,,,,,,,,,,1,1.158,0,,,,,,-0.375,-0.24875,1,0,0,1.158,Andesite_rect,11,0,11,0,1,
62b9c2f1e55fe9f17dfedc5d,TCR,2024-06-21_13h47.46.411,LearnStrategy,2023.2.3,MacIntel,66.66666667,4,2,13,,,,,,,,8,16,,,,,,,,,,,3,2.304,0,,,,,,0.095,-0.25,1,0,0,2.304,Diorite_rect,12,0,12,0,1,
62b9c2f1e55fe9f17dfedc5d,TCR,2024-06-21_13h47.46.411,LearnStrategy,2023.2.3,MacIntel,66.66666667,4,2,14,,,,,,,,7,08,,,,,,,,,,,6,1.057,0,,,,,,-0.11125,-0.3975,1,0,0,1.057,Pegmatite_rect,13,0,13,0,1,
62b9c2f1e55fe9f17dfedc5d,TCR,2024-06-21_13h47.46.411,LearnStrategy,2023.2.3,MacIntel,66.66666667,4,2,15,,,,,,,,6,08,,,,,,,,,,,5,3.092,0,,,,,,-0.355,-0.41625,1,0,0,3.092,Obsidian_rect,14,0,14,0,1,
62b9c2f1e55fe9f17dfedc5d,TCR,2024-06-21_13h47.46.411,LearnStrategy,2023.2.3,MacIntel,66.66666667,4,2,16,,,,,,,,5,06,,,,,,,,,,,5,1.488,1,,,,,,-0.355,-0.41625,1,0,0,1.488,Obsidian_rect,15,0,15,0,1,
62b9c2f1e55fe9f17dfedc5d,TCR,2024-06-21_13h47.46.411,LearnStrategy,2023.2.3,MacIntel,66.66666667,5,1,1,-0.035,0.005,1,0,0,1.798,rock_grid_rect_2,6,06,-1,-1,1.798,-0.34875,-0.24125,1,0,0,6.506,Andesite_rect,1,6.506,0,0,0,0,0,1,,,,,,,,,,,,,
62b9c2f1e55fe9f17dfedc5d,TCR,2024-06-21_13h47.46.411,LearnStrategy,2023.2.3,MacIntel,66.66666667,5,1,2,-0.04375,0.0025,1,0,0,2.363,rock_grid_rect_2,2,06,-1,-1,2.363,-0.11125,-0.255,1,0,0,3.874,Basalt_rect,2,3.874,1,1,0,1,0,1,,,,,,,,,,,,,
62b9c2f1e55fe9f17dfedc5d,TCR,2024-06-21_13h47.46.411,LearnStrategy,2023.2.3,MacIntel,66.66666667,5,1,3,-0.05625,-0.0025,1,0,0,1.498,rock_grid_rect_2,3,08,-1,-1,1.498,-0.07,-0.4025,1,0,0,3.084,Pegmatite_rect,6,3.084,0,2,0,2,0,1,,,,,,,,,,,,,
62b9c2f1e55fe9f17dfedc5d,TCR,2024-06-21_13h47.46.411,LearnStrategy,2023.2.3,MacIntel,66.66666667,5,1,4,0.04875,-0.00375,1,0,0,3.014,rock_grid_rect_2,8,14,-1,-1,3.014,0.36875,-0.39875,1,0,0,3.038,Pumice_rect,8,3.038,1,3,0,3,0,1,,,,,,,,,,,,,
62b9c2f1e55fe9f17dfedc5d,TCR,2024-06-21_13h47.46.411,LearnStrategy,2023.2.3,MacIntel,66.66666667,5,1,5,0.02125,-0.015,1,0,0,1.497,rock_grid_rect_2,1,03,-1,-1,1.497,0.14125,-0.25625,1,0,0,3.306,Diorite_rect,3,3.306,0,4,0,4,0,1,,,,,,,,,,,,,
62b9c2f1e55fe9f17dfedc5d,TCR,2024-06-21_13h47.46.411,LearnStrategy,2023.2.3,MacIntel,66.66666667,5,1,6,0.0475,-0.0075,1,0,0,1.399,rock_grid_rect_2,6,03,-1,-1,1.399,0.35375,-0.265,1,0,0,2.374,Gabbro_rect,4,2.374,0,5,0,5,0,1,,,,,,,,,,,,,
62b9c2f1e55fe9f17dfedc5d,TCR,2024-06-21_13h47.46.411,LearnStrategy,2023.2.3,MacIntel,66.66666667,5,1,7,0.0125,0.00875,1,0,0,2.432,rock_grid_rect_2,4,09,-1,-1,2.432,-0.14875,-0.37875,1,0,0,3.988,Pegmatite_rect,6,3.988,0,6,0,6,0,1,,,,,,,,,,,,,
62b9c2f1e55fe9f17dfedc5d,TCR,2024-06-21_13h47.46.411,LearnStrategy,2023.2.3,MacIntel,66.66666667,5,1,8,0.0725,-0.00625,1,0,0,1.431,rock_grid_rect_2,2,16,-1,-1,1.431,-0.375,-0.2575,1,0,0,4.171,Andesite_rect,1,4.171,0,7,0,7,0,1,,,,,,,,,,,,,
62b9c2f1e55fe9f17dfedc5d,TCR,2024-06-21_13h47.46.411,LearnStrategy,2023.2.3,MacIntel,66.66666667,5,1,9,0.04375,0.00875,1,0,0,1.798,rock_grid_rect_2,1,09,-1,-1,1.798,-0.12875,-0.39875,1,0,0,4.59,Pegmatite_rect,6,4.59,0,8,0,8,0,1,,,,,,,,,,,,,
62b9c2f1e55fe9f17dfedc5d,TCR,2024-06-21_13h47.46.411,LearnStrategy,2023.2.3,MacIntel,66.66666667,5,1,10,0.06,0.0175,1,0,0,1.666,rock_grid_rect_2,6,15,-1,-1,1.666,0.38,-0.26375,1,0,0,7.889,Gabbro_rect,4,7.889,0,9,0,9,0,1,,,,,,,,,,,,,
62b9c2f1e55fe9f17dfedc5d,TCR,2024-06-21_13h47.46.411,LearnStrategy,2023.2.3,MacIntel,66.66666667,5,1,11,0.015,0.00125,1,0,0,1.242,rock_grid_rect_2,7,06,-1,-1,1.242,0.13125,-0.4025,1,0,0,4.74,Peridotite_rect,7,4.74,1,10,0,10,0,1,,,,,,,,,,,,,
62b9c2f1e55fe9f17dfedc5d,TCR,2024-06-21_13h47.46.411,LearnStrategy,2023.2.3,MacIntel,66.66666667,5,1,12,0.01,0.0075,1,0,0,1.565,rock_grid_rect_2,7,14,-1,-1,1.565,-0.10625,-0.40375,1,0,0,2.939,Pegmatite_rect,6,2.939,0,11,0,11,0,1,,,,,,,,,,,,,
62b9c2f1e55fe9f17dfedc5d,TCR,2024-06-21_13h47.46.411,LearnStrategy,2023.2.3,MacIntel,66.66666667,5,1,13,0.07375,-0.00875,1,0,0,2.815,rock_grid_rect_2,3,07,-1,-1,2.815,-0.34375,-0.2375,1,0,0,3.125,Andesite_rect,1,3.125,0,12,0,12,0,1,,,,,,,,,,,,,
62b9c2f1e55fe9f17dfedc5d,TCR,2024-06-21_13h47.46.411,LearnStrategy,2023.2.3,MacIntel,66.66666667,5,1,14,-0.0175,-0.00625,1,0,0,1.565,rock_grid_rect_2,1,10,-1,-1,1.565,0.13125,-0.23875,1,0,0,2.355,Diorite_rect,3,2.355,0,13,0,13,0,1,,,,,,,,,,,,,
62b9c2f1e55fe9f17dfedc5d,TCR,2024-06-21_13h47.46.411,LearnStrategy,2023.2.3,MacIntel,66.66666667,5,1,15,0.09125,-0.00125,1,0,0,1.465,rock_grid_rect_2,4,09,-1,-1,1.465,0.33375,-0.26,1,0,0,3.792,Gabbro_rect,4,3.792,1,14,0,14,0,1,,,,,,,,,,,,,
62b9c2f1e55fe9f17dfedc5d,TCR,2024-06-21_13h47.46.411,LearnStrategy,2023.2.3,MacIntel,66.66666667,5,1,16,0.0925,-0.00375,1,0,0,1.497,rock_grid_rect_2,5,07,-1,-1,1.497,-0.4,-0.40375,1,0,0,3.407,Obsidian_rect,5,3.407,1,15,0,15,0,1,,,,,,,,,,,,,
62b9c2f1e55fe9f17dfedc5d,TCR,2024-06-21_13h47.46.411,LearnStrategy,2023.2.3,MacIntel,66.66666667,5,2,1,,,,,,,,7,15,,,,,,,,,,,1,2.964,0,,,,,,-0.34125,-0.2525,1,0,0,2.964,Andesite_rect,0,0,0,0,1,
62b9c2f1e55fe9f17dfedc5d,TCR,2024-06-21_13h47.46.411,LearnStrategy,2023.2.3,MacIntel,66.66666667,5,2,2,,,,,,,,5,16,,,,,,,,,,,5,2.759,1,,,,,,-0.39,-0.3975,1,0,0,2.759,Obsidian_rect,1,0,1,0,1,
62b9c2f1e55fe9f17dfedc5d,TCR,2024-06-21_13h47.46.411,LearnStrategy,2023.2.3,MacIntel,66.66666667,5,2,3,,,,,,,,6,11,,,,,,,,,,,1,7.916,0,,,,,,-0.36875,-0.255,1,0,0,7.916,Andesite_rect,2,0,2,0,1,
62b9c2f1e55fe9f17dfedc5d,TCR,2024-06-21_13h47.46.411,LearnStrategy,2023.2.3,MacIntel,66.66666667,5,2,4,,,,,,,,3,15,,,,,,,,,,,2,2.975,0,,,,,,-0.15125,-0.235,1,0,0,2.975,Basalt_rect,3,0,3,0,1,
62b9c2f1e55fe9f17dfedc5d,TCR,2024-06-21_13h47.46.411,LearnStrategy,2023.2.3,MacIntel,66.66666667,5,2,5,,,,,,,,4,15,,,,,,,,,,,6,1.714,0,,,,,,-0.16875,-0.39125,1,0,0,1.714,Pegmatite_rect,4,0,4,0,1,
62b9c2f1e55fe9f17dfedc5d,TCR,2024-06-21_13h47.46.411,LearnStrategy,2023.2.3,MacIntel,66.66666667,5,2,6,,,,,,,,1,06,,,,,,,,,,,7,2.921,0,,,,,,0.07,-0.4025,1,0,0,2.921,Peridotite_rect,5,0,5,0,1,
62b9c2f1e55fe9f17dfedc5d,TCR,2024-06-21_13h47.46.411,LearnStrategy,2023.2.3,MacIntel,66.66666667,5,2,7,,,,,,,,8,03,,,,,,,,,,,8,1.935,1,,,,,,0.40375,-0.38875,1,0,0,1.935,Pumice_rect,6,0,6,0,1,
62b9c2f1e55fe9f17dfedc5d,TCR,2024-06-21_13h47.46.411,LearnStrategy,2023.2.3,MacIntel,66.66666667,5,2,8,,,,,,,,1,16,,,,,,,,,,,2,2.782,0,,,,,,-0.0875,-0.27,1,0,0,2.782,Basalt_rect,7,0,7,0,1,
62b9c2f1e55fe9f17dfedc5d,TCR,2024-06-21_13h47.46.411,LearnStrategy,2023.2.3,MacIntel,66.66666667,5,2,9,,,,,,,,7,02,,,,,,,,,,,1,3.222,0,,,,,,-0.39125,-0.2525,1,0,0,3.222,Andesite_rect,8,0,8,0,1,
62b9c2f1e55fe9f17dfedc5d,TCR,2024-06-21_13h47.46.411,LearnStrategy,2023.2.3,MacIntel,66.66666667,5,2,10,,,,,,,,6,16,,,,,,,,,,,7,2.42,0,,,,,,0.105,-0.4075,1,0,0,2.42,Peridotite_rect,9,0,9,0,1,
62b9c2f1e55fe9f17dfedc5d,TCR,2024-06-21_13h47.46.411,LearnStrategy,2023.2.3,MacIntel,66.66666667,5,2,11,,,,,,,,2,05,,,,,,,,,,,2,3.075,1,,,,,,-0.12125,-0.24625,1,0,0,3.075,Basalt_rect,10,0,10,0,1,
62b9c2f1e55fe9f17dfedc5d,TCR,2024-06-21_13h47.46.411,LearnStrategy,2023.2.3,MacIntel,66.66666667,5,2,12,,,,,,,,5,12,,,,,,,,,,,5,1.832,1,,,,,,-0.35375,-0.40875,1,0,0,1.832,Obsidian_rect,11,0,11,0,1,
62b9c2f1e55fe9f17dfedc5d,TCR,2024-06-21_13h47.46.411,LearnStrategy,2023.2.3,MacIntel,66.66666667,5,2,13,,,,,,,,3,02,,,,,,,,,,,7,5.616,0,,,,,,0.10375,-0.38875,1,0,0,5.616,Peridotite_rect,12,0,12,0,1,
62b9c2f1e55fe9f17dfedc5d,TCR,2024-06-21_13h47.46.411,LearnStrategy,2023.2.3,MacIntel,66.66666667,5,2,14,,,,,,,,8,02,,,,,,,,,,,8,1.59,1,,,,,,0.395,-0.4025,1,0,0,1.59,Pumice_rect,13,0,13,0,1,
62b9c2f1e55fe9f17dfedc5d,TCR,2024-06-21_13h47.46.411,LearnStrategy,2023.2.3,MacIntel,66.66666667,5,2,15,,,,,,,,4,13,,,,,,,,,,,1,3.257,0,,,,,,-0.37,-0.2425,1,0,0,3.257,Andesite_rect,14,0,14,0,1,
62b9c2f1e55fe9f17dfedc5d,TCR,2024-06-21_13h47.46.411,LearnStrategy,2023.2.3,MacIntel,66.66666667,5,2,16,,,,,,,,2,08,,,,,,,,,,,2,3.557,1,,,,,,-0.1075,-0.25125,1,0,0,3.557,Basalt_rect,15,0,15,0,1,
62b9c2f1e55fe9f17dfedc5d,TCR,2024-06-21_13h47.46.411,LearnStrategy,2023.2.3,MacIntel,66.66666667,6,1,1,0.05,0.01375,1,0,0,1.865,rock_grid_rect_2,7,16,-1,-1,1.865,0.1925,-0.3925,1,0,0,3.767,Peridotite_rect,7,3.767,1,0,0,0,0,1,,,,,,,,,,,,,
62b9c2f1e55fe9f17dfedc5d,TCR,2024-06-21_13h47.46.411,LearnStrategy,2023.2.3,MacIntel,66.66666667,6,1,2,0.07375,-0.01125,1,0,0,1.564,rock_grid_rect_2,3,11,-1,-1,1.564,-0.21125,-0.4025,1,0,0,2.973,Pegmatite_rect,6,2.973,0,1,0,1,0,1,,,,,,,,,,,,,
62b9c2f1e55fe9f17dfedc5d,TCR,2024-06-21_13h47.46.411,LearnStrategy,2023.2.3,MacIntel,66.66666667,6,1,3,0,-0.01375,1,0,0,2.098,rock_grid_rect_2,1,10,-1,-1,2.098,0.0625,-0.23375,1,0,0,2.108,Diorite_rect,3,2.108,0,2,0,2,0,1,,,,,,,,,,,,,
62b9c2f1e55fe9f17dfedc5d,TCR,2024-06-21_13h47.46.411,LearnStrategy,2023.2.3,MacIntel,66.66666667,6,1,4,0.05,0.01375,1,0,0,1.333,rock_grid_rect_2,4,09,-1,-1,1.333,-0.34125,-0.25625,1,0,0,1.208,Andesite_rect,1,1.208,0,3,0,3,0,1,,,,,,,,,,,,,
62b9c2f1e55fe9f17dfedc5d,TCR,2024-06-21_13h47.46.411,LearnStrategy,2023.2.3,MacIntel,66.66666667,6,1,5,0.125,-0.02,1,0,0,1.616,rock_grid_rect_2,6,10,-1,-1,1.616,0.0875,-0.39125,1,0,0,7.755,Peridotite_rect,7,7.755,0,4,0,4,0,1,,,,,,,,,,,,,
62b9c2f1e55fe9f17dfedc5d,TCR,2024-06-21_13h47.46.411,LearnStrategy,2023.2.3,MacIntel,66.66666667,6,1,6,-0.0125,0.01125,1,0,0,2.314,rock_grid_rect_2,2,11,-1,-1,2.314,-0.0875,-0.39375,1,0,0,3.441,Pegmatite_rect,6,3.441,0,5,0,5,0,1,,,,,,,,,,,,,
62b9c2f1e55fe9f17dfedc5d,TCR,2024-06-21_13h47.46.411,LearnStrategy,2023.2.3,MacIntel,66.66666667,6,1,7,0.08375,0.01375,1,0,0,1.515,rock_grid_rect_2,3,13,-1,-1,1.515,0.34125,-0.245,1,0,0,2.583,Gabbro_rect,4,2.583,0,6,0,6,0,1,,,,,,,,,,,,,
62b9c2f1e55fe9f17dfedc5d,TCR,2024-06-21_13h47.46.411,LearnStrategy,2023.2.3,MacIntel,66.66666667,6,1,8,0.05875,0.01,1,0,0,1.548,rock_grid_rect_2,6,13,-1,-1,1.548,-0.32125,-0.265,1,0,0,2.425,Andesite_rect,1,2.425,0,7,0,7,0,1,,,,,,,,,,,,,
62b9c2f1e55fe9f17dfedc5d,TCR,2024-06-21_13h47.46.411,LearnStrategy,2023.2.3,MacIntel,66.66666667,6,1,9,0.07125,0.01625,1,0,0,1.315,rock_grid_rect_2,4,01,-1,-1,1.315,0.08125,-0.42,1,0,0,2.991,Peridotite_rect,7,2.991,0,8,0,8,0,1,,,,,,,,,,,,,
62b9c2f1e55fe9f17dfedc5d,TCR,2024-06-21_13h47.46.411,LearnStrategy,2023.2.3,MacIntel,66.66666667,6,1,10,-0.005,-0.01125,1,0,0,1.48,rock_grid_rect_2,8,14,-1,-1,1.48,0.36875,-0.405,1,0,0,1.642,Pumice_rect,8,1.642,1,9,0,9,0,1,,,,,,,,,,,,,
62b9c2f1e55fe9f17dfedc5d,TCR,2024-06-21_13h47.46.411,LearnStrategy,2023.2.3,MacIntel,66.66666667,6,1,11,0.08125,-0.0125,1,0,0,1.499,rock_grid_rect_2,1,10,-1,-1,1.499,-0.19,-0.25375,1,0,0,2.131,Basalt_rect,2,2.131,0,10,0,10,0,1,,,,,,,,,,,,,
62b9c2f1e55fe9f17dfedc5d,TCR,2024-06-21_13h47.46.411,LearnStrategy,2023.2.3,MacIntel,66.66666667,6,1,12,-0.04625,-0.00125,1,0,0,2.378,rock_grid_rect_2,1,03,-1,-1,2.378,-0.145,-0.395,1,0,0,2.538,Pegmatite_rect,6,2.538,0,11,0,11,0,1,,,,,,,,,,,,,
62b9c2f1e55fe9f17dfedc5d,TCR,2024-06-21_13h47.46.411,LearnStrategy,2023.2.3,MacIntel,66.66666667,6,1,13,0.02,0.0025,1,0,0,1.295,rock_grid_rect_2,7,12,-1,-1,1.295,0.3675,-0.27125,1,0,0,3.873,Gabbro_rect,4,3.873,0,12,0,12,0,1,,,,,,,,,,,,,
62b9c2f1e55fe9f17dfedc5d,TCR,2024-06-21_13h47.46.411,LearnStrategy,2023.2.3,MacIntel,66.66666667,6,1,14,-0.02375,-0.0075,1,0,0,3.514,rock_grid_rect_2,6,03,-1,-1,3.514,-0.1675,-0.3875,1,0,0,3.572,Pegmatite_rect,6,3.572,1,13,0,13,0,1,,,,,,,,,,,,,
62b9c2f1e55fe9f17dfedc5d,TCR,2024-06-21_13h47.46.411,LearnStrategy,2023.2.3,MacIntel,66.66666667,6,1,15,-0.0525,-0.0025,1,0,0,1.881,rock_grid_rect_2,7,06,-1,-1,1.881,0.12,-0.26375,1,0,0,2.139,Diorite_rect,3,2.139,0,14,0,14,0,1,,,,,,,,,,,,,
62b9c2f1e55fe9f17dfedc5d,TCR,2024-06-21_13h47.46.411,LearnStrategy,2023.2.3,MacIntel,66.66666667,6,1,16,0.0175,-0.0125,1,0,0,1.415,rock_grid_rect_2,5,10,-1,-1,1.415,-0.3525,-0.40625,1,0,0,3.006,Obsidian_rect,5,3.006,1,15,0,15,0,1,,,,,,,,,,,,,
62b9c2f1e55fe9f17dfedc5d,TCR,2024-06-21_13h47.46.411,LearnStrategy,2023.2.3,MacIntel,66.66666667,6,2,1,,,,,,,,8,05,,,,,,,,,,,8,2.42,1,,,,,,0.415,-0.41625,1,0,0,2.42,Pumice_rect,0,0,0,0,1,
62b9c2f1e55fe9f17dfedc5d,TCR,2024-06-21_13h47.46.411,LearnStrategy,2023.2.3,MacIntel,66.66666667,6,2,2,,,,,,,,2,01,,,,,,,,,,,2,1.823,1,,,,,,-0.11375,-0.26875,1,0,0,1.823,Basalt_rect,1,0,1,0,1,
62b9c2f1e55fe9f17dfedc5d,TCR,2024-06-21_13h47.46.411,LearnStrategy,2023.2.3,MacIntel,66.66666667,6,2,3,,,,,,,,5,02,,,,,,,,,,,5,4.475,1,,,,,,-0.36625,-0.385,1,0,0,4.475,Obsidian_rect,2,0,2,0,1,
62b9c2f1e55fe9f17dfedc5d,TCR,2024-06-21_13h47.46.411,LearnStrategy,2023.2.3,MacIntel,66.66666667,6,2,4,,,,,,,,6,07,,,,,,,,,,,7,2.389,0,,,,,,0.16625,-0.38875,1,0,0,2.389,Peridotite_rect,3,0,3,0,1,
62b9c2f1e55fe9f17dfedc5d,TCR,2024-06-21_13h47.46.411,LearnStrategy,2023.2.3,MacIntel,66.66666667,6,2,5,,,,,,,,3,16,,,,,,,,,,,2,3.003,0,,,,,,-0.14375,-0.26375,1,0,0,3.003,Basalt_rect,4,0,4,0,1,
62b9c2f1e55fe9f17dfedc5d,TCR,2024-06-21_13h47.46.411,LearnStrategy,2023.2.3,MacIntel,66.66666667,6,2,6,,,,,,,,7,04,,,,,,,,,,,1,2.021,0,,,,,,-0.33625,-0.235,1,0,0,2.021,Andesite_rect,5,0,5,0,1,
62b9c2f1e55fe9f17dfedc5d,TCR,2024-06-21_13h47.46.411,LearnStrategy,2023.2.3,MacIntel,66.66666667,6,2,7,,,,,,,,7,13,,,,,,,,,,,3,2.174,0,,,,,,0.1475,-0.24875,1,0,0,2.174,Diorite_rect,6,0,6,0,1,
62b9c2f1e55fe9f17dfedc5d,TCR,2024-06-21_13h47.46.411,LearnStrategy,2023.2.3,MacIntel,66.66666667,6,2,8,,,,,,,,4,05,,,,,,,,,,,4,2.208,1,,,,,,0.37375,-0.2425,1,0,0,2.208,Gabbro_rect,7,0,7,0,1,
62b9c2f1e55fe9f17dfedc5d,TCR,2024-06-21_13h47.46.411,LearnStrategy,2023.2.3,MacIntel,66.66666667,6,2,9,,,,,,,,3,09,,,,,,,,,,,6,3.051,0,,,,,,-0.15125,-0.40375,1,0,0,3.051,Pegmatite_rect,8,0,8,0,1,
62b9c2f1e55fe9f17dfedc5d,TCR,2024-06-21_13h47.46.411,LearnStrategy,2023.2.3,MacIntel,66.66666667,6,2,10,,,,,,,,1,11,,,,,,,,,,,7,1.454,0,,,,,,0.1575,-0.4,1,0,0,1.454,Peridotite_rect,9,0,9,0,1,
62b9c2f1e55fe9f17dfedc5d,TCR,2024-06-21_13h47.46.411,LearnStrategy,2023.2.3,MacIntel,66.66666667,6,2,11,,,,,,,,4,10,,,,,,,,,,,3,2.792,0,,,,,,0.18,-0.24875,1,0,0,2.792,Diorite_rect,10,0,10,0,1,
62b9c2f1e55fe9f17dfedc5d,TCR,2024-06-21_13h47.46.411,LearnStrategy,2023.2.3,MacIntel,66.66666667,6,2,12,,,,,,,,6,12,,,,,,,,,,,5,1.808,0,,,,,,-0.38625,-0.41875,1,0,0,1.808,Obsidian_rect,11,0,11,0,1,
62b9c2f1e55fe9f17dfedc5d,TCR,2024-06-21_13h47.46.411,LearnStrategy,2023.2.3,MacIntel,66.66666667,6,2,13,,,,,,,,8,08,,,,,,,,,,,8,3.473,1,,,,,,0.385,-0.40125,1,0,0,3.473,Pumice_rect,12,0,12,0,1,
62b9c2f1e55fe9f17dfedc5d,TCR,2024-06-21_13h47.46.411,LearnStrategy,2023.2.3,MacIntel,66.66666667,6,2,14,,,,,,,,1,01,,,,,,,,,,,2,2.082,0,,,,,,-0.1475,-0.2575,1,0,0,2.082,Basalt_rect,13,0,13,0,1,
62b9c2f1e55fe9f17dfedc5d,TCR,2024-06-21_13h47.46.411,LearnStrategy,2023.2.3,MacIntel,66.66666667,6,2,15,,,,,,,,2,02,,,,,,,,,,,2,2.149,1,,,,,,-0.12875,-0.23,1,0,0,2.149,Basalt_rect,14,0,14,0,1,
62b9c2f1e55fe9f17dfedc5d,TCR,2024-06-21_13h47.46.411,LearnStrategy,2023.2.3,MacIntel,66.66666667,6,2,16,,,,,,,,5,05,,,,,,,,,,,4,2.309,0,,,,,,0.365,-0.23625,1,0,0,2.309,Gabbro_rect,15,0,15,0,1,
62b9c2f1e55fe9f17dfedc5d,TCR,2024-06-21_13h47.46.411,LearnStrategy,2023.2.3,MacIntel,66.66666667,7,1,1,0.0775,-0.00625,1,0,0,2.248,rock_grid_rect_2,6,15,-1,-1,2.248,0.1425,-0.25875,1,0,0,3.816,Diorite_rect,3,3.816,0,0,0,0,0,1,,,,,,,,,,,,,
62b9c2f1e55fe9f17dfedc5d,TCR,2024-06-21_13h47.46.411,LearnStrategy,2023.2.3,MacIntel,66.66666667,7,1,2,0.06,-0.00625,1,0,0,1.599,rock_grid_rect_2,4,12,-1,-1,1.599,-0.1475,-0.23375,1,0,0,1.891,Basalt_rect,2,1.891,0,1,0,1,0,1,,,,,,,,,,,,,
62b9c2f1e55fe9f17dfedc5d,TCR,2024-06-21_13h47.46.411,LearnStrategy,2023.2.3,MacIntel,66.66666667,7,1,3,-0.01375,-0.0075,1,0,0,2.332,rock_grid_rect_2,4,16,-1,-1,2.332,-0.065,-0.40375,1,0,0,3.306,Pegmatite_rect,6,3.306,0,2,0,2,0,1,,,,,,,,,,,,,
62b9c2f1e55fe9f17dfedc5d,TCR,2024-06-21_13h47.46.411,LearnStrategy,2023.2.3,MacIntel,66.66666667,7,1,4,0.0225,0.00375,1,0,0,1.964,rock_grid_rect_2,5,09,-1,-1,1.964,-0.38625,-0.3925,1,0,0,5.158,Obsidian_rect,5,5.158,1,3,0,3,0,1,,,,,,,,,,,,,
62b9c2f1e55fe9f17dfedc5d,TCR,2024-06-21_13h47.46.411,LearnStrategy,2023.2.3,MacIntel,66.66666667,7,1,5,-0.06875,-0.00875,1,0,0,1.548,rock_grid_rect_2,1,03,-1,-1,1.548,-0.16125,-0.4025,1,0,0,7.148,Pegmatite_rect,6,7.148,0,4,0,4,0,1,,,,,,,,,,,,,
62b9c2f1e55fe9f17dfedc5d,TCR,2024-06-21_13h47.46.411,LearnStrategy,2023.2.3,MacIntel,66.66666667,7,1,6,0.02375,0.00625,1,0,0,1.348,rock_grid_rect_2,1,10,-1,-1,1.348,-0.09625,-0.245,1,0,0,1.666,Basalt_rect,2,1.666,0,5,0,5,0,1,,,,,,,,,,,,,
62b9c2f1e55fe9f17dfedc5d,TCR,2024-06-21_13h47.46.411,LearnStrategy,2023.2.3,MacIntel,66.66666667,7,1,7,-0.0175,-0.0025,1,0,0,1.217,rock_grid_rect_2,6,05,-1,-1,1.217,-0.37625,-0.42,1,0,0,1.739,Obsidian_rect,5,1.739,0,6,0,6,0,1,,,,,,,,,,,,,
62b9c2f1e55fe9f17dfedc5d,TCR,2024-06-21_13h47.46.411,LearnStrategy,2023.2.3,MacIntel,66.66666667,7,1,8,0.0725,0.0025,1,0,0,1.766,rock_grid_rect_2,7,05,-1,-1,1.766,0.3225,-0.2525,1,0,0,3.207,Gabbro_rect,4,3.207,0,7,0,7,0,1,,,,,,,,,,,,,
62b9c2f1e55fe9f17dfedc5d,TCR,2024-06-21_13h47.46.411,LearnStrategy,2023.2.3,MacIntel,66.66666667,7,1,9,0.07375,0.0125,1,0,0,1.464,rock_grid_rect_2,6,05,-1,-1,1.464,-0.2,-0.38375,1,0,0,2.917,Pegmatite_rect,6,2.917,1,8,0,8,0,1,,,,,,,,,,,,,
62b9c2f1e55fe9f17dfedc5d,TCR,2024-06-21_13h47.46.411,LearnStrategy,2023.2.3,MacIntel,66.66666667,7,1,10,-0.01375,-0.01875,1,0,0,1.432,rock_grid_rect_2,3,11,-1,-1,1.432,0.1275,-0.26625,1,0,0,4.085,Diorite_rect,3,4.085,1,9,0,9,0,1,,,,,,,,,,,,,
62b9c2f1e55fe9f17dfedc5d,TCR,2024-06-21_13h47.46.411,LearnStrategy,2023.2.3,MacIntel,66.66666667,7,1,11,-0.0125,-0.00375,1,0,0,1.232,rock_grid_rect_2,7,14,-1,-1,1.232,0.05625,-0.25125,1,0,0,2.521,Diorite_rect,3,2.521,0,10,0,10,0,1,,,,,,,,,,,,,
62b9c2f1e55fe9f17dfedc5d,TCR,2024-06-21_13h47.46.411,LearnStrategy,2023.2.3,MacIntel,66.66666667,7,1,12,-0.01,-0.00625,1,0,0,1.396,rock_grid_rect_2,7,07,-1,-1,1.396,0.135,-0.40625,1,0,0,5.236,Peridotite_rect,7,5.236,1,11,0,11,0,1,,,,,,,,,,,,,
62b9c2f1e55fe9f17dfedc5d,TCR,2024-06-21_13h47.46.411,LearnStrategy,2023.2.3,MacIntel,66.66666667,7,1,13,-0.0575,-0.01375,1,0,0,11.214,rock_grid_rect_2,2,09,-1,-1,11.214,-0.1725,-0.2525,1,0,0,1.646,Basalt_rect,2,1.646,1,12,0,12,0,1,,,,,,,,,,,,,
62b9c2f1e55fe9f17dfedc5d,TCR,2024-06-21_13h47.46.411,LearnStrategy,2023.2.3,MacIntel,66.66666667,7,1,14,-0.035,-0.00875,1,0,0,1.333,rock_grid_rect_2,8,04,-1,-1,1.333,0.4075,-0.39625,1,0,0,2.452,Pumice_rect,8,2.452,1,13,0,13,0,1,,,,,,,,,,,,,
62b9c2f1e55fe9f17dfedc5d,TCR,2024-06-21_13h47.46.411,LearnStrategy,2023.2.3,MacIntel,66.66666667,7,1,15,0.04125,-0.0075,1,0,0,2.212,rock_grid_rect_2,1,02,-1,-1,2.212,0.35625,-0.415,1,0,0,1.572,Pumice_rect,8,1.572,0,14,0,14,0,1,,,,,,,,,,,,,
62b9c2f1e55fe9f17dfedc5d,TCR,2024-06-21_13h47.46.411,LearnStrategy,2023.2.3,MacIntel,66.66666667,7,1,16,-0.06375,0.00875,1,0,0,1.147,rock_grid_rect_2,3,06,-1,-1,1.147,0.10375,-0.405,1,0,0,2.902,Peridotite_rect,7,2.902,0,15,0,15,0,1,,,,,,,,,,,,,
62b9c2f1e55fe9f17dfedc5d,TCR,2024-06-21_13h47.46.411,LearnStrategy,2023.2.3,MacIntel,66.66666667,7,2,1,,,,,,,,7,10,,,,,,,,,,,6,2.101,0,,,,,,-0.105,-0.39875,1,0,0,2.101,Pegmatite_rect,0,0,0,0,1,
62b9c2f1e55fe9f17dfedc5d,TCR,2024-06-21_13h47.46.411,LearnStrategy,2023.2.3,MacIntel,66.66666667,7,2,2,,,,,,,,1,11,,,,,,,,,,,7,1.737,0,,,,,,0.18625,-0.41125,1,0,0,1.737,Peridotite_rect,1,0,1,0,1,
62b9c2f1e55fe9f17dfedc5d,TCR,2024-06-21_13h47.46.411,LearnStrategy,2023.2.3,MacIntel,66.66666667,7,2,3,,,,,,,,6,12,,,,,,,,,,,5,2.102,0,,,,,,-0.37625,-0.39875,1,0,0,2.102,Obsidian_rect,2,0,2,0,1,
62b9c2f1e55fe9f17dfedc5d,TCR,2024-06-21_13h47.46.411,LearnStrategy,2023.2.3,MacIntel,66.66666667,7,2,4,,,,,,,,1,01,,,,,,,,,,,3,2.685,0,,,,,,0.16375,-0.255,1,0,0,2.685,Diorite_rect,3,0,3,0,1,
62b9c2f1e55fe9f17dfedc5d,TCR,2024-06-21_13h47.46.411,LearnStrategy,2023.2.3,MacIntel,66.66666667,7,2,5,,,,,,,,5,04,,,,,,,,,,,4,5.619,0,,,,,,0.4,-0.25125,1,0,0,5.619,Gabbro_rect,4,0,4,0,1,
62b9c2f1e55fe9f17dfedc5d,TCR,2024-06-21_13h47.46.411,LearnStrategy,2023.2.3,MacIntel,66.66666667,7,2,6,,,,,,,,8,02,,,,,,,,,,,8,1.465,1,,,,,,0.405,-0.39125,1,0,0,1.465,Pumice_rect,5,0,5,0,1,
62b9c2f1e55fe9f17dfedc5d,TCR,2024-06-21_13h47.46.411,LearnStrategy,2023.2.3,MacIntel,66.66666667,7,2,7,,,,,,,,3,14,,,,,,,,,,,6,2.333,0,,,,,,-0.0775,-0.40625,1,0,0,2.333,Pegmatite_rect,6,0,6,0,1,
62b9c2f1e55fe9f17dfedc5d,TCR,2024-06-21_13h47.46.411,LearnStrategy,2023.2.3,MacIntel,66.66666667,7,2,8,,,,,,,,7,02,,,,,,,,,,,3,2.407,0,,,,,,0.08,-0.24375,1,0,0,2.407,Diorite_rect,7,0,7,0,1,
62b9c2f1e55fe9f17dfedc5d,TCR,2024-06-21_13h47.46.411,LearnStrategy,2023.2.3,MacIntel,66.66666667,7,2,9,,,,,,,,4,05,,,,,,,,,,,2,1.847,0,,,,,,-0.105,-0.25875,1,0,0,1.847,Basalt_rect,8,0,8,0,1,
62b9c2f1e55fe9f17dfedc5d,TCR,2024-06-21_13h47.46.411,LearnStrategy,2023.2.3,MacIntel,66.66666667,7,2,10,,,,,,,,2,05,,,,,,,,,,,2,1.699,1,,,,,,-0.1175,-0.25375,1,0,0,1.699,Basalt_rect,9,0,9,0,1,
62b9c2f1e55fe9f17dfedc5d,TCR,2024-06-21_13h47.46.411,LearnStrategy,2023.2.3,MacIntel,66.66666667,7,2,11,,,,,,,,8,16,,,,,,,,,,,3,4.083,0,,,,,,0.1175,-0.2675,1,0,0,4.083,Diorite_rect,10,0,10,0,1,
62b9c2f1e55fe9f17dfedc5d,TCR,2024-06-21_13h47.46.411,LearnStrategy,2023.2.3,MacIntel,66.66666667,7,2,12,,,,,,,,5,05,,,,,,,,,,,7,2.058,0,,,,,,0.085,-0.4,1,0,0,2.058,Peridotite_rect,11,0,11,0,1,
62b9c2f1e55fe9f17dfedc5d,TCR,2024-06-21_13h47.46.411,LearnStrategy,2023.2.3,MacIntel,66.66666667,7,2,13,,,,,,,,3,09,,,,,,,,,,,6,4.006,0,,,,,,-0.11625,-0.40375,1,0,0,4.006,Pegmatite_rect,12,0,12,0,1,
62b9c2f1e55fe9f17dfedc5d,TCR,2024-06-21_13h47.46.411,LearnStrategy,2023.2.3,MacIntel,66.66666667,7,2,14,,,,,,,,6,11,,,,,,,,,,,7,1.908,0,,,,,,0.1125,-0.38125,1,0,0,1.908,Peridotite_rect,13,0,13,0,1,
62b9c2f1e55fe9f17dfedc5d,TCR,2024-06-21_13h47.46.411,LearnStrategy,2023.2.3,MacIntel,66.66666667,7,2,15,,,,,,,,4,03,,,,,,,,,,,4,3.84,1,,,,,,0.3575,-0.26375,1,0,0,3.84,Gabbro_rect,14,0,14,0,1,
62b9c2f1e55fe9f17dfedc5d,TCR,2024-06-21_13h47.46.411,LearnStrategy,2023.2.3,MacIntel,66.66666667,7,2,16,,,,,,,,2,02,,,,,,,,,,,2,3.082,1,,,,,,-0.13,-0.26375,1,0,0,3.082,Basalt_rect,15,0,15,0,1,
62b9c2f1e55fe9f17dfedc5d,TCR,2024-06-21_13h47.46.411,LearnStrategy,2023.2.3,MacIntel,66.66666667,8,1,1,0.01625,-0.00125,1,0,0,1.432,rock_grid_rect_2,4,12,-1,-1,1.432,-0.1325,-0.22875,1,0,0,3.154,Basalt_rect,2,3.154,0,0,0,0,0,1,,,,,,,,,,,,,
62b9c2f1e55fe9f17dfedc5d,TCR,2024-06-21_13h47.46.411,LearnStrategy,2023.2.3,MacIntel,66.66666667,8,1,2,0,0.00875,1,0,0,1.598,rock_grid_rect_2,6,05,-1,-1,1.598,-0.39625,-0.40875,1,0,0,1.756,Obsidian_rect,5,1.756,0,1,0,1,0,1,,,,,,,,,,,,,
62b9c2f1e55fe9f17dfedc5d,TCR,2024-06-21_13h47.46.411,LearnStrategy,2023.2.3,MacIntel,66.66666667,8,1,3,0.0175,-0.01375,1,0,0,1.282,rock_grid_rect_2,1,14,-1,-1,1.282,0.11,-0.385,1,0,0,3.504,Peridotite_rect,7,3.504,0,2,0,2,0,1,,,,,,,,,,,,,
62b9c2f1e55fe9f17dfedc5d,TCR,2024-06-21_13h47.46.411,LearnStrategy,2023.2.3,MacIntel,66.66666667,8,1,4,0.0025,-0.00125,1,0,0,1.365,rock_grid_rect_2,1,02,-1,-1,1.365,0.12625,-0.25,1,0,0,3.149,Diorite_rect,3,3.149,0,3,0,3,0,1,,,,,,,,,,,,,
62b9c2f1e55fe9f17dfedc5d,TCR,2024-06-21_13h47.46.411,LearnStrategy,2023.2.3,MacIntel,66.66666667,8,1,5,-0.0375,-0.025,1,0,0,1.189,rock_grid_rect_2,3,13,-1,-1,1.189,-0.12,-0.39625,1,0,0,1.828,Pegmatite_rect,6,1.828,0,4,0,4,0,1,,,,,,,,,,,,,
62b9c2f1e55fe9f17dfedc5d,TCR,2024-06-21_13h47.46.411,LearnStrategy,2023.2.3,MacIntel,66.66666667,8,1,6,0.05375,-0.01,1,0,0,1.381,rock_grid_rect_2,3,12,-1,-1,1.381,0.1375,-0.4125,1,0,0,1.371,Peridotite_rect,7,1.371,0,5,0,5,0,1,,,,,,,,,,,,,
62b9c2f1e55fe9f17dfedc5d,TCR,2024-06-21_13h47.46.411,LearnStrategy,2023.2.3,MacIntel,66.66666667,8,1,7,0.0575,0,1,0,0,1.114,rock_grid_rect_2,5,14,-1,-1,1.114,-0.32375,-0.3975,1,0,0,3.538,Obsidian_rect,5,3.538,1,6,0,6,0,1,,,,,,,,,,,,,
62b9c2f1e55fe9f17dfedc5d,TCR,2024-06-21_13h47.46.411,LearnStrategy,2023.2.3,MacIntel,66.66666667,8,1,8,0.06875,-0.0125,1,0,0,1.307,rock_grid_rect_2,6,06,-1,-1,1.307,0.13875,-0.26625,1,0,0,5.022,Diorite_rect,3,5.022,0,7,0,7,0,1,,,,,,,,,,,,,
62b9c2f1e55fe9f17dfedc5d,TCR,2024-06-21_13h47.46.411,LearnStrategy,2023.2.3,MacIntel,66.66666667,8,1,9,0.04875,-0.0075,1,0,0,1.263,rock_grid_rect_2,7,06,-1,-1,1.263,0.145,-0.25875,1,0,0,3.669,Diorite_rect,3,3.669,0,8,0,8,0,1,,,,,,,,,,,,,
62b9c2f1e55fe9f17dfedc5d,TCR,2024-06-21_13h47.46.411,LearnStrategy,2023.2.3,MacIntel,66.66666667,8,1,10,0.00875,-0.0025,1,0,0,1.265,rock_grid_rect_2,7,16,-1,-1,1.265,0.345,-0.26875,1,0,0,3.523,Gabbro_rect,4,3.523,0,9,0,9,0,1,,,,,,,,,,,,,
62b9c2f1e55fe9f17dfedc5d,TCR,2024-06-21_13h47.46.411,LearnStrategy,2023.2.3,MacIntel,66.66666667,8,1,11,-0.0075,-0.015,1,0,0,1.664,rock_grid_rect_2,6,10,-1,-1,1.664,-0.11375,-0.39875,1,0,0,2.235,Pegmatite_rect,6,2.235,1,10,0,10,0,1,,,,,,,,,,,,,
62b9c2f1e55fe9f17dfedc5d,TCR,2024-06-21_13h47.46.411,LearnStrategy,2023.2.3,MacIntel,66.66666667,8,1,12,0.0325,-0.00875,1,0,0,1.265,rock_grid_rect_2,8,10,-1,-1,1.265,-0.14625,-0.4,1,0,0,2.439,Pegmatite_rect,6,2.439,0,11,0,11,0,1,,,,,,,,,,,,,
62b9c2f1e55fe9f17dfedc5d,TCR,2024-06-21_13h47.46.411,LearnStrategy,2023.2.3,MacIntel,66.66666667,8,1,13,0.065,-0.0025,1,0,0,1.38,rock_grid_rect_2,7,14,-1,-1,1.38,0.1225,-0.40875,1,0,0,2.25,Peridotite_rect,7,2.25,1,12,0,12,0,1,,,,,,,,,,,,,
62b9c2f1e55fe9f17dfedc5d,TCR,2024-06-21_13h47.46.411,LearnStrategy,2023.2.3,MacIntel,66.66666667,8,1,14,0.03625,-0.00125,1,0,0,1.599,rock_grid_rect_2,4,14,-1,-1,1.599,0.47375,-0.2575,1,0,0,1.918,Gabbro_rect,4,1.918,1,13,0,13,0,1,,,,,,,,,,,,,
62b9c2f1e55fe9f17dfedc5d,TCR,2024-06-21_13h47.46.411,LearnStrategy,2023.2.3,MacIntel,66.66666667,8,1,15,0.10875,-0.02125,1,0,0,1.257,rock_grid_rect_2,2,11,-1,-1,1.257,0.11625,-0.42125,1,0,0,3.973,Peridotite_rect,7,3.973,0,14,0,14,0,1,,,,,,,,,,,,,
62b9c2f1e55fe9f17dfedc5d,TCR,2024-06-21_13h47.46.411,LearnStrategy,2023.2.3,MacIntel,66.66666667,8,1,16,-0.0375,0.0025,1,0,0,1.831,rock_grid_rect_2,1,02,-1,-1,1.831,0.1075,-0.24,1,0,0,3.374,Diorite_rect,3,3.374,0,15,0,15,0,1,,,,,,,,,,,,,
62b9c2f1e55fe9f17dfedc5d,TCR,2024-06-21_13h47.46.411,LearnStrategy,2023.2.3,MacIntel,66.66666667,8,2,1,,,,,,,,3,15,,,,,,,,,,,1,2.099,0,,,,,,-0.35,-0.245,1,0,0,2.099,Andesite_rect,0,0,0,0,1,
62b9c2f1e55fe9f17dfedc5d,TCR,2024-06-21_13h47.46.411,LearnStrategy,2023.2.3,MacIntel,66.66666667,8,2,2,,,,,,,,3,02,,,,,,,,,,,6,2.265,0,,,,,,-0.17125,-0.42,1,0,0,2.265,Pegmatite_rect,1,0,1,0,1,
62b9c2f1e55fe9f17dfedc5d,TCR,2024-06-21_13h47.46.411,LearnStrategy,2023.2.3,MacIntel,66.66666667,8,2,3,,,,,,,,7,13,,,,,,,,,,,7,3.248,1,,,,,,0.0775,-0.3875,1,0,0,3.248,Peridotite_rect,2,0,2,0,1,
62b9c2f1e55fe9f17dfedc5d,TCR,2024-06-21_13h47.46.411,LearnStrategy,2023.2.3,MacIntel,66.66666667,8,2,4,,,,,,,,5,06,,,,,,,,,,,5,1.624,1,,,,,,-0.3675,-0.4025,1,0,0,1.624,Obsidian_rect,3,0,3,0,1,
62b9c2f1e55fe9f17dfedc5d,TCR,2024-06-21_13h47.46.411,LearnStrategy,2023.2.3,MacIntel,66.66666667,8,2,5,,,,,,,,4,15,,,,,,,,,,,7,1.668,0,,,,,,0.1475,-0.38,1,0,0,1.668,Peridotite_rect,4,0,4,0,1,
62b9c2f1e55fe9f17dfedc5d,TCR,2024-06-21_13h47.46.411,LearnStrategy,2023.2.3,MacIntel,66.66666667,8,2,6,,,,,,,,7,04,,,,,,,,,,,3,0.99,0,,,,,,0.14625,-0.26875,1,0,0,0.99,Diorite_rect,5,0,5,0,1,
62b9c2f1e55fe9f17dfedc5d,TCR,2024-06-21_13h47.46.411,LearnStrategy,2023.2.3,MacIntel,66.66666667,8,2,7,,,,,,,,5,16,,,,,,,,,,,5,3.158,1,,,,,,-0.46125,-0.3925,1,0,0,3.158,Obsidian_rect,6,0,6,0,1,
62b9c2f1e55fe9f17dfedc5d,TCR,2024-06-21_13h47.46.411,LearnStrategy,2023.2.3,MacIntel,66.66666667,8,2,8,,,,,,,,2,14,,,,,,,,,,,7,5.056,0,,,,,,0.13375,-0.3975,1,0,0,5.056,Peridotite_rect,7,0,7,0,1,
62b9c2f1e55fe9f17dfedc5d,TCR,2024-06-21_13h47.46.411,LearnStrategy,2023.2.3,MacIntel,66.66666667,8,2,9,,,,,,,,6,07,,,,,,,,,,,6,2.252,1,,,,,,-0.1375,-0.39625,1,0,0,2.252,Pegmatite_rect,8,0,8,0,1,
62b9c2f1e55fe9f17dfedc5d,TCR,2024-06-21_13h47.46.411,LearnStrategy,2023.2.3,MacIntel,66.66666667,8,2,10,,,,,,,,8,05,,,,,,,,,,,8,2.541,1,,,,,,0.43375,-0.41125,1,0,0,2.541,Pumice_rect,9,0,9,0,1,
62b9c2f1e55fe9f17dfedc5d,TCR,2024-06-21_13h47.46.411,LearnStrategy,2023.2.3,MacIntel,66.66666667,8,2,11,,,,,,,,8,08,,,,,,,,,,,8,1.907,1,,,,,,0.4025,-0.405,1,0,0,1.907,Pumice_rect,10,0,10,0,1,
62b9c2f1e55fe9f17dfedc5d,TCR,2024-06-21_13h47.46.411,LearnStrategy,2023.2.3,MacIntel,66.66666667,8,2,12,,,,,,,,1,04,,,,,,,,,,,6,1.864,0,,,,,,-0.14625,-0.3825,1,0,0,1.864,Pegmatite_rect,11,0,11,0,1,
62b9c2f1e55fe9f17dfedc5d,TCR,2024-06-21_13h47.46.411,LearnStrategy,2023.2.3,MacIntel,66.66666667,8,2,13,,,,,,,,6,08,,,,,,,,,,,6,2.457,1,,,,,,-0.15,-0.39125,1,0,0,2.457,Pegmatite_rect,12,0,12,0,1,
62b9c2f1e55fe9f17dfedc5d,TCR,2024-06-21_13h47.46.411,LearnStrategy,2023.2.3,MacIntel,66.66666667,8,2,14,,,,,,,,4,13,,,,,,,,,,,3,1.604,0,,,,,,0.1075,-0.24625,1,0,0,1.604,Diorite_rect,13,0,13,0,1,
62b9c2f1e55fe9f17dfedc5d,TCR,2024-06-21_13h47.46.411,LearnStrategy,2023.2.3,MacIntel,66.66666667,8,2,15,,,,,,,,2,08,,,,,,,,,,,2,5.857,1,,,,,,-0.13625,-0.24,1,0,0,5.857,Basalt_rect,14,0,14,0,1,
62b9c2f1e55fe9f17dfedc5d,TCR,2024-06-21_13h47.46.411,LearnStrategy,2023.2.3,MacIntel,66.66666667,8,2,16,,,,,,,,1,06,,,,,,,,,,,3,2.306,0,,,,,,0.1825,-0.25625,1,0,0,2.306,Diorite_rect,15,0,15,0,1,
62b9c2f1e55fe9f17dfedc5d,TCR,2024-06-21_13h47.46.411,LearnStrategy,2023.2.3,MacIntel,66.66666667,9,1,1,0.02625,0.01375,1,0,0,2.365,rock_grid_rect_2,7,16,-1,-1,2.365,-0.1025,-0.415,1,0,0,2.633,Pegmatite_rect,6,2.633,0,0,0,0,0,1,,,,,,,,,,,,,
62b9c2f1e55fe9f17dfedc5d,TCR,2024-06-21_13h47.46.411,LearnStrategy,2023.2.3,MacIntel,66.66666667,9,1,2,-0.00375,-0.01625,1,0,0,1.43,rock_grid_rect_2,6,06,-1,-1,1.43,0.09125,-0.4075,1,0,0,1.591,Peridotite_rect,7,1.591,0,1,0,1,0,1,,,,,,,,,,,,,
62b9c2f1e55fe9f17dfedc5d,TCR,2024-06-21_13h47.46.411,LearnStrategy,2023.2.3,MacIntel,66.66666667,9,1,3,0,-0.0025,1,0,0,1.215,rock_grid_rect_2,2,06,-1,-1,1.215,-0.06125,-0.25375,1,0,0,2.558,Basalt_rect,2,2.558,1,2,0,2,0,1,,,,,,,,,,,,,
62b9c2f1e55fe9f17dfedc5d,TCR,2024-06-21_13h47.46.411,LearnStrategy,2023.2.3,MacIntel,66.66666667,9,1,4,0.0525,-0.00875,1,0,0,1.882,rock_grid_rect_2,1,05,-1,-1,1.882,0.19,-0.25875,1,0,0,2.073,Diorite_rect,3,2.073,0,3,0,3,0,1,,,,,,,,,,,,,
62b9c2f1e55fe9f17dfedc5d,TCR,2024-06-21_13h47.46.411,LearnStrategy,2023.2.3,MacIntel,66.66666667,9,1,5,-0.00125,-0.01625,1,0,0,1.799,rock_grid_rect_2,3,08,-1,-1,1.799,-0.38125,-0.265,1,0,0,1.441,Andesite_rect,1,1.441,0,4,0,4,0,1,,,,,,,,,,,,,
62b9c2f1e55fe9f17dfedc5d,TCR,2024-06-21_13h47.46.411,LearnStrategy,2023.2.3,MacIntel,66.66666667,9,1,6,0.0175,-0.005,1,0,0,1.712,rock_grid_rect_2,3,13,-1,-1,1.712,0.16125,-0.2525,1,0,0,2.357,Diorite_rect,3,2.357,1,5,0,5,0,1,,,,,,,,,,,,,
62b9c2f1e55fe9f17dfedc5d,TCR,2024-06-21_13h47.46.411,LearnStrategy,2023.2.3,MacIntel,66.66666667,9,1,7,-0.07625,0,1,0,0,1.549,rock_grid_rect_2,7,06,-1,-1,1.549,-0.13625,-0.40875,1,0,0,3.204,Pegmatite_rect,6,3.204,0,6,0,6,0,1,,,,,,,,,,,,,
62b9c2f1e55fe9f17dfedc5d,TCR,2024-06-21_13h47.46.411,LearnStrategy,2023.2.3,MacIntel,66.66666667,9,1,8,0.0225,-0.0025,1,0,0,1.365,rock_grid_rect_2,4,12,-1,-1,1.365,0.3675,-0.25875,1,0,0,3.089,Gabbro_rect,4,3.089,1,7,0,7,0,1,,,,,,,,,,,,,
62b9c2f1e55fe9f17dfedc5d,TCR,2024-06-21_13h47.46.411,LearnStrategy,2023.2.3,MacIntel,66.66666667,9,1,9,0.055,0.0025,1,0,0,1.249,rock_grid_rect_2,3,08,-1,-1,1.249,0.08125,-0.40875,1,0,0,3.456,Peridotite_rect,7,3.456,0,8,0,8,0,1,,,,,,,,,,,,,
62b9c2f1e55fe9f17dfedc5d,TCR,2024-06-21_13h47.46.411,LearnStrategy,2023.2.3,MacIntel,66.66666667,9,1,10,0.05625,0.00125,1,0,0,1.381,rock_grid_rect_2,1,03,-1,-1,1.381,-0.095,-0.23,1,0,0,4.936,Basalt_rect,2,4.936,0,9,0,9,0,1,,,,,,,,,,,,,
62b9c2f1e55fe9f17dfedc5d,TCR,2024-06-21_13h47.46.411,LearnStrategy,2023.2.3,MacIntel,66.66666667,9,1,11,0.04375,-0.01875,1,0,0,1.964,rock_grid_rect_2,6,05,-1,-1,1.964,-0.08125,-0.41875,1,0,0,2.705,Pegmatite_rect,6,2.705,1,10,0,10,0,1,,,,,,,,,,,,,
62b9c2f1e55fe9f17dfedc5d,TCR,2024-06-21_13h47.46.411,LearnStrategy,2023.2.3,MacIntel,66.66666667,9,1,12,-0.015,-0.00375,1,0,0,1.157,rock_grid_rect_2,4,14,-1,-1,1.157,0.0725,-0.4,1,0,0,1.375,Peridotite_rect,7,1.375,0,11,0,11,0,1,,,,,,,,,,,,,
62b9c2f1e55fe9f17dfedc5d,TCR,2024-06-21_13h47.46.411,LearnStrategy,2023.2.3,MacIntel,66.66666667,9,1,13,0.02875,-0.015,1,0,0,1.448,rock_grid_rect_2,5,10,-1,-1,1.448,-0.3275,-0.385,1,0,0,2.137,Obsidian_rect,5,2.137,1,12,0,12,0,1,,,,,,,,,,,,,
62b9c2f1e55fe9f17dfedc5d,TCR,2024-06-21_13h47.46.411,LearnStrategy,2023.2.3,MacIntel,66.66666667,9,1,14,0.00875,-0.00875,1,0,0,1.296,rock_grid_rect_2,7,12,-1,-1,1.296,0.14,-0.23,1,0,0,1.74,Diorite_rect,3,1.74,0,13,0,13,0,1,,,,,,,,,,,,,
62b9c2f1e55fe9f17dfedc5d,TCR,2024-06-21_13h47.46.411,LearnStrategy,2023.2.3,MacIntel,66.66666667,9,1,15,-0.00875,-0.01125,1,0,0,11.115,rock_grid_rect_2,8,04,-1,-1,11.115,0.355,-0.38125,1,0,0,1.874,Pumice_rect,8,1.874,1,14,0,14,0,1,,,,,,,,,,,,,
62b9c2f1e55fe9f17dfedc5d,TCR,2024-06-21_13h47.46.411,LearnStrategy,2023.2.3,MacIntel,66.66666667,9,1,16,-0.05375,0.00375,1,0,0,19.28,rock_grid_rect_2,1,02,-1,-1,19.28,0.11125,-0.4075,1,0,0,4.222,Peridotite_rect,7,4.222,0,15,0,15,0,1,,,,,,,,,,,,,
62b9c2f1e55fe9f17dfedc5d,TCR,2024-06-21_13h47.46.411,LearnStrategy,2023.2.3,MacIntel,66.66666667,9,2,1,,,,,,,,2,01,,,,,,,,,,,2,1.352,1,,,,,,-0.10125,-0.24,1,0,0,1.352,Basalt_rect,0,0,0,0,1,
62b9c2f1e55fe9f17dfedc5d,TCR,2024-06-21_13h47.46.411,LearnStrategy,2023.2.3,MacIntel,66.66666667,9,2,2,,,,,,,,5,02,,,,,,,,,,,5,1.54,1,,,,,,-0.37625,-0.4,1,0,0,1.54,Obsidian_rect,1,0,1,0,1,
62b9c2f1e55fe9f17dfedc5d,TCR,2024-06-21_13h47.46.411,LearnStrategy,2023.2.3,MacIntel,66.66666667,9,2,3,,,,,,,,5,12,,,,,,,,,,,5,1.057,1,,,,,,-0.39,-0.40875,1,0,0,1.057,Obsidian_rect,2,0,2,0,1,
62b9c2f1e55fe9f17dfedc5d,TCR,2024-06-21_13h47.46.411,LearnStrategy,2023.2.3,MacIntel,66.66666667,9,2,4,,,,,,,,1,16,,,,,,,,,,,6,2.202,0,,,,,,-0.105,-0.37875,1,0,0,2.202,Pegmatite_rect,3,0,3,0,1,
62b9c2f1e55fe9f17dfedc5d,TCR,2024-06-21_13h47.46.411,LearnStrategy,2023.2.3,MacIntel,66.66666667,9,2,5,,,,,,,,3,16,,,,,,,,,,,3,6.273,1,,,,,,0.12,-0.25,1,0,0,6.273,Diorite_rect,4,0,4,0,1,
62b9c2f1e55fe9f17dfedc5d,TCR,2024-06-21_13h47.46.411,LearnStrategy,2023.2.3,MacIntel,66.66666667,9,2,6,,,,,,,,8,03,,,,,,,,,,,8,9.78,1,,,,,,0.37625,-0.40125,1,0,0,9.78,Pumice_rect,5,0,5,0,1,
62b9c2f1e55fe9f17dfedc5d,TCR,2024-06-21_13h47.46.411,LearnStrategy,2023.2.3,MacIntel,66.66666667,9,2,7,,,,,,,,6,09,,,,,,,,,,,6,1.582,1,,,,,,-0.1875,-0.42,1,0,0,1.582,Pegmatite_rect,6,0,6,0,1,
62b9c2f1e55fe9f17dfedc5d,TCR,2024-06-21_13h47.46.411,LearnStrategy,2023.2.3,MacIntel,66.66666667,9,2,8,,,,,,,,7,15,,,,,,,,,,,1,3.018,0,,,,,,-0.43125,-0.24,1,0,0,3.018,Andesite_rect,7,0,7,0,1,
62b9c2f1e55fe9f17dfedc5d,TCR,2024-06-21_13h47.46.411,LearnStrategy,2023.2.3,MacIntel,66.66666667,9,2,9,,,,,,,,8,06,,,,,,,,,,,8,2.121,1,,,,,,0.40375,-0.40375,1,0,0,2.121,Pumice_rect,8,0,8,0,1,
62b9c2f1e55fe9f17dfedc5d,TCR,2024-06-21_13h47.46.411,LearnStrategy,2023.2.3,MacIntel,66.66666667,9,2,10,,,,,,,,6,16,,,,,,,,,,,1,3.006,0,,,,,,-0.35,-0.25375,1,0,0,3.006,Andesite_rect,9,0,9,0,1,
62b9c2f1e55fe9f17dfedc5d,TCR,2024-06-21_13h47.46.411,LearnStrategy,2023.2.3,MacIntel,66.66666667,9,2,11,,,,,,,,4,10,,,,,,,,,,,6,1.756,0,,,,,,-0.06875,-0.395,1,0,0,1.756,Pegmatite_rect,10,0,10,0,1,
62b9c2f1e55fe9f17dfedc5d,TCR,2024-06-21_13h47.46.411,LearnStrategy,2023.2.3,MacIntel,66.66666667,9,2,12,,,,,,,,1,07,,,,,,,,,,,3,1.972,0,,,,,,0.165,-0.26375,1,0,0,1.972,Diorite_rect,11,0,11,0,1,
62b9c2f1e55fe9f17dfedc5d,TCR,2024-06-21_13h47.46.411,LearnStrategy,2023.2.3,MacIntel,66.66666667,9,2,13,,,,,,,,2,04,,,,,,,,,,,2,1.716,1,,,,,,-0.155,-0.25,1,0,0,1.716,Basalt_rect,12,0,12,0,1,
62b9c2f1e55fe9f17dfedc5d,TCR,2024-06-21_13h47.46.411,LearnStrategy,2023.2.3,MacIntel,66.66666667,9,2,14,,,,,,,,4,08,,,,,,,,,,,2,1.023,0,,,,,,-0.155,-0.25,1,0,0,1.023,Basalt_rect,13,0,13,0,1,
62b9c2f1e55fe9f17dfedc5d,TCR,2024-06-21_13h47.46.411,LearnStrategy,2023.2.3,MacIntel,66.66666667,9,2,15,,,,,,,,7,08,,,,,,,,,,,3,1.135,0,,,,,,0.1375,-0.25625,1,0,0,1.135,Diorite_rect,14,0,14,0,1,
62b9c2f1e55fe9f17dfedc5d,TCR,2024-06-21_13h47.46.411,LearnStrategy,2023.2.3,MacIntel,66.66666667,9,2,16,,,,,,,,3,10,,,,,,,,,,,7,1.508,0,,,,,,0.13125,-0.395,1,0,0,1.508,Peridotite_rect,15,0,15,0,1,
62b9c2f1e55fe9f17dfedc5d,TCR,2024-06-21_13h47.46.411,LearnStrategy,2023.2.3,MacIntel,66.66666667,,,,,,,,,,,,,,,,,,,,,,,,,,,,,,,,,,,,,,,,,,,0
62b9c2f1e55fe9f17dfedc5d,TCR,2024-06-21_13h47.46.411,LearnStrategy,2023.2.3,MacIntel,66.66666667,,,,,,,,,,,,,,,,,,,,,,,,,,,,,,,,,,,,,,,,,,,
62b9c2f1e55fe9f17dfedc5d,TCR,2024-06-21_13h47.46.411,LearnStrategy,2023.2.3,MacIntel,66.66666667,,,,,,,,,,,3,13,1,1,,,,,,,,,,,,,,,,,,,,,,,,,,,,,
62b9c2f1e55fe9f17dfedc5d,TCR,2024-06-21_13h47.46.411,LearnStrategy,2023.2.3,MacIntel,66.66666667,,,,,,,,,,,1,14,1,2,,,,,,,,,,,,,,,,,,,,,,,,,,,,,
62b9c2f1e55fe9f17dfedc5d,TCR,2024-06-21_13h47.46.411,LearnStrategy,2023.2.3,MacIntel,66.66666667,,,,,,,,,,,2,10,1,3,,,,,,,,,,,,,,,,,,,,,,,,,,,,,
62b9c2f1e55fe9f17dfedc5d,TCR,2024-06-21_13h47.46.411,LearnStrategy,2023.2.3,MacIntel,66.66666667,,,,,,,,,,,7,06,1,4,,,,,,,,,,,,,,,,,,,,,,,,,,,,,
62b9c2f1e55fe9f17dfedc5d,TCR,2024-06-21_13h47.46.411,LearnStrategy,2023.2.3,MacIntel,66.66666667,,,,,,,,,,,8,10,1,5,,,,,,,,,,,,,,,,,,,,,,,,,,,,,
62b9c2f1e55fe9f17dfedc5d,TCR,2024-06-21_13h47.46.411,LearnStrategy,2023.2.3,MacIntel,66.66666667,,,,,,,,,,,1,05,1,6,,,,,,,,,,,,,,,,,,,,,,,,,,,,,
62b9c2f1e55fe9f17dfedc5d,TCR,2024-06-21_13h47.46.411,LearnStrategy,2023.2.3,MacIntel,66.66666667,,,,,,,,,,,6,13,1,7,,,,,,,,,,,,,,,,,,,,,,,,,,,,,
62b9c2f1e55fe9f17dfedc5d,TCR,2024-06-21_13h47.46.411,LearnStrategy,2023.2.3,MacIntel,66.66666667,,,,,,,,,,,7,12,1,8,,,,,,,,,,,,,,,,,,,,,,,,,,,,,
62b9c2f1e55fe9f17dfedc5d,TCR,2024-06-21_13h47.46.411,LearnStrategy,2023.2.3,MacIntel,66.66666667,,,,,,,,,,,8,09,2,1,,,,,,,,,,,,,,,,,,,,,,,,,,,,,
62b9c2f1e55fe9f17dfedc5d,TCR,2024-06-21_13h47.46.411,LearnStrategy,2023.2.3,MacIntel,66.66666667,,,,,,,,,,,3,12,2,2,,,,,,,,,,,,,,,,,,,,,,,,,,,,,
62b9c2f1e55fe9f17dfedc5d,TCR,2024-06-21_13h47.46.411,LearnStrategy,2023.2.3,MacIntel,66.66666667,,,,,,,,,,,4,16,2,3,,,,,,,,,,,,,,,,,,,,,,,,,,,,,
62b9c2f1e55fe9f17dfedc5d,TCR,2024-06-21_13h47.46.411,LearnStrategy,2023.2.3,MacIntel,66.66666667,,,,,,,,,,,7,16,2,4,,,,,,,,,,,,,,,,,,,,,,,,,,,,,
62b9c2f1e55fe9f17dfedc5d,TCR,2024-06-21_13h47.46.411,LearnStrategy,2023.2.3,MacIntel,66.66666667,,,,,,,,,,,4,11,2,5,,,,,,,,,,,,,,,,,,,,,,,,,,,,,
62b9c2f1e55fe9f17dfedc5d,TCR,2024-06-21_13h47.46.411,LearnStrategy,2023.2.3,MacIntel,66.66666667,,,,,,,,,,,8,13,2,6,,,,,,,,,,,,,,,,,,,,,,,,,,,,,
62b9c2f1e55fe9f17dfedc5d,TCR,2024-06-21_13h47.46.411,LearnStrategy,2023.2.3,MacIntel,66.66666667,,,,,,,,,,,6,05,2,7,,,,,,,,,,,,,,,,,,,,,,,,,,,,,
62b9c2f1e55fe9f17dfedc5d,TCR,2024-06-21_13h47.46.411,LearnStrategy,2023.2.3,MacIntel,66.66666667,,,,,,,,,,,1,03,2,8,,,,,,,,,,,,,,,,,,,,,,,,,,,,,
62b9c2f1e55fe9f17dfedc5d,TCR,2024-06-21_13h47.46.411,LearnStrategy,2023.2.3,MacIntel,66.66666667,,,,,,,,,,,8,14,3,1,,,,,,,,,,,,,,,,,,,,,,,,,,,,,
62b9c2f1e55fe9f17dfedc5d,TCR,2024-06-21_13h47.46.411,LearnStrategy,2023.2.3,MacIntel,66.66666667,,,,,,,,,,,8,15,3,2,,,,,,,,,,,,,,,,,,,,,,,,,,,,,
62b9c2f1e55fe9f17dfedc5d,TCR,2024-06-21_13h47.46.411,LearnStrategy,2023.2.3,MacIntel,66.66666667,,,,,,,,,,,4,01,3,3,,,,,,,,,,,,,,,,,,,,,,,,,,,,,
62b9c2f1e55fe9f17dfedc5d,TCR,2024-06-21_13h47.46.411,LearnStrategy,2023.2.3,MacIntel,66.66666667,,,,,,,,,,,3,06,3,4,,,,,,,,,,,,,,,,,,,,,,,,,,,,,
62b9c2f1e55fe9f17dfedc5d,TCR,2024-06-21_13h47.46.411,LearnStrategy,2023.2.3,MacIntel,66.66666667,,,,,,,,,,,7,07,3,5,,,,,,,,,,,,,,,,,,,,,,,,,,,,,
62b9c2f1e55fe9f17dfedc5d,TCR,2024-06-21_13h47.46.411,LearnStrategy,2023.2.3,MacIntel,66.66666667,,,,,,,,,,,1,02,3,6,,,,,,,,,,,,,,,,,,,,,,,,,,,,,
62b9c2f1e55fe9f17dfedc5d,TCR,2024-06-21_13h47.46.411,LearnStrategy,2023.2.3,MacIntel,66.66666667,,,,,,,,,,,4,09,3,7,,,,,,,,,,,,,,,,,,,,,,,,,,,,,
62b9c2f1e55fe9f17dfedc5d,TCR,2024-06-21_13h47.46.411,LearnStrategy,2023.2.3,MacIntel,66.66666667,,,,,,,,,,,2,11,3,8,,,,,,,,,,,,,,,,,,,,,,,,,,,,,
62b9c2f1e55fe9f17dfedc5d,TCR,2024-06-21_13h47.46.411,LearnStrategy,2023.2.3,MacIntel,66.66666667,,,,,,,,,,,4,12,4,1,,,,,,,,,,,,,,,,,,,,,,,,,,,,,
62b9c2f1e55fe9f17dfedc5d,TCR,2024-06-21_13h47.46.411,LearnStrategy,2023.2.3,MacIntel,66.66666667,,,,,,,,,,,6,06,4,2,,,,,,,,,,,,,,,,,,,,,,,,,,,,,
62b9c2f1e55fe9f17dfedc5d,TCR,2024-06-21_13h47.46.411,LearnStrategy,2023.2.3,MacIntel,66.66666667,,,,,,,,,,,6,03,4,3,,,,,,,,,,,,,,,,,,,,,,,,,,,,,
62b9c2f1e55fe9f17dfedc5d,TCR,2024-06-21_13h47.46.411,LearnStrategy,2023.2.3,MacIntel,66.66666667,,,,,,,,,,,2,09,4,4,,,,,,,,,,,,,,,,,,,,,,,,,,,,,
62b9c2f1e55fe9f17dfedc5d,TCR,2024-06-21_13h47.46.411,LearnStrategy,2023.2.3,MacIntel,66.66666667,,,,,,,,,,,3,08,4,5,,,,,,,,,,,,,,,,,,,,,,,,,,,,,
62b9c2f1e55fe9f17dfedc5d,TCR,2024-06-21_13h47.46.411,LearnStrategy,2023.2.3,MacIntel,66.66666667,,,,,,,,,,,3,07,4,6,,,,,,,,,,,,,,,,,,,,,,,,,,,,,
62b9c2f1e55fe9f17dfedc5d,TCR,2024-06-21_13h47.46.411,LearnStrategy,2023.2.3,MacIntel,66.66666667,,,,,,,,,,,2,12,4,7,,,,,,,,,,,,,,,,,,,,,,,,,,,,,
62b9c2f1e55fe9f17dfedc5d,TCR,2024-06-21_13h47.46.411,LearnStrategy,2023.2.3,MacIntel,66.66666667,,,,,,,,,,,6,15,4,8,,,,,,,,,,,,,,,,,,,,,,,,,,,,,
62b9c2f1e55fe9f17dfedc5d,TCR,2024-06-21_13h47.46.411,LearnStrategy,2023.2.3,MacIntel,66.66666667,,,,,,,,,,,2,16,5,1,,,,,,,,,,,,,,,,,,,,,,,,,,,,,
62b9c2f1e55fe9f17dfedc5d,TCR,2024-06-21_13h47.46.411,LearnStrategy,2023.2.3,MacIntel,66.66666667,,,,,,,,,,,7,14,5,2,,,,,,,,,,,,,,,,,,,,,,,,,,,,,
62b9c2f1e55fe9f17dfedc5d,TCR,2024-06-21_13h47.46.411,LearnStrategy,2023.2.3,MacIntel,66.66666667,,,,,,,,,,,2,06,5,3,,,,,,,,,,,,,,,,,,,,,,,,,,,,,
62b9c2f1e55fe9f17dfedc5d,TCR,2024-06-21_13h47.46.411,LearnStrategy,2023.2.3,MacIntel,66.66666667,,,,,,,,,,,6,10,5,4,,,,,,,,,,,,,,,,,,,,,,,,,,,,,
62b9c2f1e55fe9f17dfedc5d,TCR,2024-06-21_13h47.46.411,LearnStrategy,2023.2.3,MacIntel,66.66666667,,,,,,,,,,,1,09,5,5,,,,,,,,,,,,,,,,,,,,,,,,,,,,,
62b9c2f1e55fe9f17dfedc5d,TCR,2024-06-21_13h47.46.411,LearnStrategy,2023.2.3,MacIntel,66.66666667,,,,,,,,,,,5,10,5,6,,,,,,,,,,,,,,,,,,,,,,,,,,,,,
62b9c2f1e55fe9f17dfedc5d,TCR,2024-06-21_13h47.46.411,LearnStrategy,2023.2.3,MacIntel,66.66666667,,,,,,,,,,,5,14,5,7,,,,,,,,,,,,,,,,,,,,,,,,,,,,,
62b9c2f1e55fe9f17dfedc5d,TCR,2024-06-21_13h47.46.411,LearnStrategy,2023.2.3,MacIntel,66.66666667,,,,,,,,,,,5,09,5,8,,,,,,,,,,,,,,,,,,,,,,,,,,,,,
62b9c2f1e55fe9f17dfedc5d,TCR,2024-06-21_13h47.46.411,LearnStrategy,2023.2.3,MacIntel,66.66666667,,,,,,,,,,,8,04,6,1,,,,,,,,,,,,,,,,,,,,,,,,,,,,,
62b9c2f1e55fe9f17dfedc5d,TCR,2024-06-21_13h47.46.411,LearnStrategy,2023.2.3,MacIntel,66.66666667,,,,,,,,,,,3,11,6,2,,,,,,,,,,,,,,,,,,,,,,,,,,,,,
62b9c2f1e55fe9f17dfedc5d,TCR,2024-06-21_13h47.46.411,LearnStrategy,2023.2.3,MacIntel,66.66666667,,,,,,,,,,,5,08,6,3,,,,,,,,,,,,,,,,,,,,,,,,,,,,,
62b9c2f1e55fe9f17dfedc5d,TCR,2024-06-21_13h47.46.411,LearnStrategy,2023.2.3,MacIntel,66.66666667,,,,,,,,,,,5,11,6,4,,,,,,,,,,,,,,,,,,,,,,,,,,,,,
62b9c2f1e55fe9f17dfedc5d,TCR,2024-06-21_13h47.46.411,LearnStrategy,2023.2.3,MacIntel,66.66666667,,,,,,,,,,,1,10,6,5,,,,,,,,,,,,,,,,,,,,,,,,,,,,,
62b9c2f1e55fe9f17dfedc5d,TCR,2024-06-21_13h47.46.411,LearnStrategy,2023.2.3,MacIntel,66.66666667,,,,,,,,,,,5,07,6,6,,,,,,,,,,,,,,,,,,,,,,,,,,,,,
62b9c2f1e55fe9f17dfedc5d,TCR,2024-06-21_13h47.46.411,LearnStrategy,2023.2.3,MacIntel,66.66666667,,,,,,,,,,,7,05,6,7,,,,,,,,,,,,,,,,,,,,,,,,,,,,,
62b9c2f1e55fe9f17dfedc5d,TCR,2024-06-21_13h47.46.411,LearnStrategy,2023.2.3,MacIntel,66.66666667,,,,,,,,,,,4,14,6,8,,,,,,,,,,,,,,,,,,,,,,,,,,,,,