participant,condition,date,expName,psychopyVersion,OS,frameRate,block,phase,trial,learn_mouse_2.x,learn_mouse_2.y,learn_mouse_2.leftButton,learn_mouse_2.midButton,learn_mouse_2.rightButton,learn_mouse_2.time,learn_mouse_2.clicked_name,cat,token,row,col,t_select,cat_mouse_l.x,cat_mouse_l.y,cat_mouse_l.leftButton,cat_mouse_l.midButton,cat_mouse_l.rightButton,cat_mouse_l.time,cat_mouse_l.clicked_name,resp,t_resp,corr,train_trials.thisRepN,train_trials.thisTrialN,train_trials.thisN,train_trials.thisIndex,train_trials.ran,cat_mouse_t.x,cat_mouse_t.y,cat_mouse_t.leftButton,cat_mouse_t.midButton,cat_mouse_t.rightButton,cat_mouse_t.time,cat_mouse_t.clicked_name,test_trials.thisRepN,test_trials.thisTrialN,test_trials.thisN,test_trials.thisIndex,test_trials.ran,Bonus
630386f64c5bbd56ab1c3b0f,TCN,2024-06-24_11h48.05.928,LearnStrategy,2023.2.3,MacIntel,60.97560976,,,,,,,,,,,,,,,,,,,,,,,,,,,,,,,,,,,,,,,,,,,
630386f64c5bbd56ab1c3b0f,TCN,2024-06-24_11h48.05.928,LearnStrategy,2023.2.3,MacIntel,60.97560976,1,1,1,0.092453613,-0.010368924,1,0,0,8.3399,rock_grid_rect_2,6,15,-1,-1,8.34,0.109624769,-0.256140747,1,0,0,8.3943,Diorite_rect,3,8.394,0,0,0,0,0,1,,,,,,,,,,,,,
630386f64c5bbd56ab1c3b0f,TCN,2024-06-24_11h48.05.928,LearnStrategy,2023.2.3,MacIntel,60.97560976,1,1,2,-0.058855659,-0.017396749,1,0,0,9.1265,rock_grid_rect_2,8,16,-1,-1,9.127,0.38722602,-0.403075697,1,0,0,5.2841,Pumice_rect,8,5.284,1,1,0,1,0,1,,,,,,,,,,,,,
630386f64c5bbd56ab1c3b0f,TCN,2024-06-24_11h48.05.928,LearnStrategy,2023.2.3,MacIntel,60.97560976,1,1,3,-0.023426107,-0.001771715,1,0,0,1.3034,rock_grid_rect_2,8,10,-1,-1,1.303,0.374749485,-0.412828166,1,0,0,5.0559,Pumice_rect,8,5.056,1,2,0,2,0,1,,,,,,,,,,,,,
630386f64c5bbd56ab1c3b0f,TCN,2024-06-24_11h48.05.928,LearnStrategy,2023.2.3,MacIntel,60.97560976,1,1,4,-0.000580851,-0.004688246,1,0,0,1.4673,rock_grid_rect_2,2,04,-1,-1,1.467,-0.170500488,-0.251871609,1,0,0,4.6011,Basalt_rect,2,4.601,1,3,0,3,0,1,,,,,,,,,,,,,
630386f64c5bbd56ab1c3b0f,TCN,2024-06-24_11h48.05.928,LearnStrategy,2023.2.3,MacIntel,60.97560976,1,1,5,0.026692844,-0.011420085,1,0,0,1.2498,rock_grid_rect_2,5,02,-1,-1,1.25,0.172491998,-0.407588976,1,0,0,6.1586,Peridotite_rect,7,6.159,0,4,0,4,0,1,,,,,,,,,,,,,
630386f64c5bbd56ab1c3b0f,TCN,2024-06-24_11h48.05.928,LearnStrategy,2023.2.3,MacIntel,60.97560976,1,1,6,-0.011368001,0.007619765,1,0,0,1.9168,rock_grid_rect_2,4,01,-1,-1,1.917,-0.380937195,-0.238262397,1,0,0,8.6157,Andesite_rect,1,8.616,0,5,0,5,0,1,,,,,,,,,,,,,
630386f64c5bbd56ab1c3b0f,TCN,2024-06-24_11h48.05.928,LearnStrategy,2023.2.3,MacIntel,60.97560976,1,1,7,-0.047864787,-0.007141724,1,0,0,4.8254,rock_grid_rect_2,7,07,-1,-1,4.825,0.127998725,-0.254246419,1,0,0,8.0049,Diorite_rect,3,8.005,0,6,0,6,0,1,,,,,,,,,,,,,
630386f64c5bbd56ab1c3b0f,TCN,2024-06-24_11h48.05.928,LearnStrategy,2023.2.3,MacIntel,60.97560976,1,1,8,0.06356642,-0.006381056,1,0,0,1.1185,rock_grid_rect_2,3,09,-1,-1,1.118,-0.35381368,-0.244937134,1,0,0,4.1878,Andesite_rect,1,4.188,0,7,0,7,0,1,,,,,,,,,,,,,
630386f64c5bbd56ab1c3b0f,TCN,2024-06-24_11h48.05.928,LearnStrategy,2023.2.3,MacIntel,60.97560976,1,1,9,0.032247993,0.000184428,1,0,0,1.3324,rock_grid_rect_2,3,11,-1,-1,1.332,0.386512316,-0.247426147,1,0,0,5.6333,Gabbro_rect,4,5.633,0,8,0,8,0,1,,,,,,,,,,,,,
630386f64c5bbd56ab1c3b0f,TCN,2024-06-24_11h48.05.928,LearnStrategy,2023.2.3,MacIntel,60.97560976,1,1,10,0.004944051,-0.018728638,1,0,0,1.919,rock_grid_rect_2,5,05,-1,-1,1.919,-0.105125732,-0.261206123,1,0,0,5.8385,Basalt_rect,2,5.839,0,9,0,9,0,1,,,,,,,,,,,,,
630386f64c5bbd56ab1c3b0f,TCN,2024-06-24_11h48.05.928,LearnStrategy,2023.2.3,MacIntel,60.97560976,1,1,11,0.009920044,-0.001372579,1,0,0,1.2158,rock_grid_rect_2,1,09,-1,-1,1.216,0.33148546,-0.238666314,1,0,0,3.8826,Gabbro_rect,4,3.883,0,10,0,10,0,1,,,,,,,,,,,,,
630386f64c5bbd56ab1c3b0f,TCN,2024-06-24_11h48.05.928,LearnStrategy,2023.2.3,MacIntel,60.97560976,1,1,12,-0.001522352,-0.013436483,1,0,0,1.0829,rock_grid_rect_2,7,10,-1,-1,1.083,0.136343994,-0.386336738,1,0,0,6.1355,Peridotite_rect,7,6.135,1,11,0,11,0,1,,,,,,,,,,,,,
630386f64c5bbd56ab1c3b0f,TCN,2024-06-24_11h48.05.928,LearnStrategy,2023.2.3,MacIntel,60.97560976,1,1,13,0.098348389,-0.011175334,1,0,0,1.2182,rock_grid_rect_2,4,03,-1,-1,1.218,0.122021349,-0.26434828,1,0,0,5.2944,Diorite_rect,3,5.294,0,12,0,12,0,1,,,,,,,,,,,,,
630386f64c5bbd56ab1c3b0f,TCN,2024-06-24_11h48.05.928,LearnStrategy,2023.2.3,MacIntel,60.97560976,1,1,14,0.008805203,-0.013454522,1,0,0,1.8687,rock_grid_rect_2,2,05,-1,-1,1.869,-0.118734334,-0.245303684,1,0,0,3.6909,Basalt_rect,2,3.691,1,13,0,13,0,1,,,,,,,,,,,,,
630386f64c5bbd56ab1c3b0f,TCN,2024-06-24_11h48.05.928,LearnStrategy,2023.2.3,MacIntel,60.97560976,1,1,15,0.050415649,-0.003139513,1,0,0,1.1844,rock_grid_rect_2,6,10,-1,-1,1.184,-0.381932949,-0.402373522,1,0,0,6.7264,Obsidian_rect,5,6.726,0,14,0,14,0,1,,,,,,,,,,,,,
630386f64c5bbd56ab1c3b0f,TCN,2024-06-24_11h48.05.928,LearnStrategy,2023.2.3,MacIntel,60.97560976,1,1,16,0.013341268,0.006916334,1,0,0,1.3651,rock_grid_rect_2,1,06,-1,-1,1.365,0.121883613,-0.266537272,1,0,0,5.4542,Diorite_rect,3,5.454,0,15,0,15,0,1,,,,,,,,,,,,,
630386f64c5bbd56ab1c3b0f,TCN,2024-06-24_11h48.05.928,LearnStrategy,2023.2.3,MacIntel,60.97560976,1,2,1,,,,,,,,5,07,,,,,,,,,,,7,18.192,0,,,,,,0.206132948,-0.388827176,1,0,0,18.192,Peridotite_rect,0,0,0,0,1,
630386f64c5bbd56ab1c3b0f,TCN,2024-06-24_11h48.05.928,LearnStrategy,2023.2.3,MacIntel,60.97560976,1,2,2,,,,,,,,5,14,,,,,,,,,,,5,2.982,1,,,,,,-0.394272224,-0.411631809,1,0,0,2.9815,Obsidian_rect,1,0,1,0,1,
630386f64c5bbd56ab1c3b0f,TCN,2024-06-24_11h48.05.928,LearnStrategy,2023.2.3,MacIntel,60.97560976,1,2,3,,,,,,,,4,11,,,,,,,,,,,1,5.208,0,,,,,,-0.3843514,-0.242151218,1,0,0,5.2081,Andesite_rect,2,0,2,0,1,
630386f64c5bbd56ab1c3b0f,TCN,2024-06-24_11h48.05.928,LearnStrategy,2023.2.3,MacIntel,60.97560976,1,2,4,,,,,,,,1,07,,,,,,,,,,,3,6.447,0,,,,,,0.134235908,-0.260742798,1,0,0,6.4471,Diorite_rect,3,0,3,0,1,
630386f64c5bbd56ab1c3b0f,TCN,2024-06-24_11h48.05.928,LearnStrategy,2023.2.3,MacIntel,60.97560976,1,2,5,,,,,,,,6,09,,,,,,,,,,,5,8.534,0,,,,,,-0.383659668,-0.407637804,1,0,0,8.5345,Obsidian_rect,4,0,4,0,1,
630386f64c5bbd56ab1c3b0f,TCN,2024-06-24_11h48.05.928,LearnStrategy,2023.2.3,MacIntel,60.97560976,1,2,6,,,,,,,,7,02,,,,,,,,,,,4,11.384,0,,,,,,0.374174262,-0.251707899,1,0,0,11.3843,Gabbro_rect,5,0,5,0,1,
630386f64c5bbd56ab1c3b0f,TCN,2024-06-24_11h48.05.928,LearnStrategy,2023.2.3,MacIntel,60.97560976,1,2,7,,,,,,,,3,10,,,,,,,,,,,1,2.894,0,,,,,,-0.361947869,-0.254658271,1,0,0,2.894,Andesite_rect,6,0,6,0,1,
630386f64c5bbd56ab1c3b0f,TCN,2024-06-24_11h48.05.928,LearnStrategy,2023.2.3,MacIntel,60.97560976,1,2,8,,,,,,,,4,10,,,,,,,,,,,7,5.142,0,,,,,,0.118665432,-0.406162177,1,0,0,5.142,Peridotite_rect,7,0,7,0,1,
630386f64c5bbd56ab1c3b0f,TCN,2024-06-24_11h48.05.928,LearnStrategy,2023.2.3,MacIntel,60.97560976,1,2,9,,,,,,,,1,16,,,,,,,,,,,4,4.364,0,,,,,,0.372383355,-0.235164998,1,0,0,4.3641,Gabbro_rect,8,0,8,0,1,
630386f64c5bbd56ab1c3b0f,TCN,2024-06-24_11h48.05.928,LearnStrategy,2023.2.3,MacIntel,60.97560976,1,2,10,,,,,,,,8,05,,,,,,,,,,,8,1.519,1,,,,,,0.40605835,-0.410172594,1,0,0,1.5188,Pumice_rect,9,0,9,0,1,
630386f64c5bbd56ab1c3b0f,TCN,2024-06-24_11h48.05.928,LearnStrategy,2023.2.3,MacIntel,60.97560976,1,2,11,,,,,,,,6,11,,,,,,,,,,,6,5.675,1,,,,,,-0.083935208,-0.397009074,1,0,0,5.6747,Pegmatite_rect,10,0,10,0,1,
630386f64c5bbd56ab1c3b0f,TCN,2024-06-24_11h48.05.928,LearnStrategy,2023.2.3,MacIntel,60.97560976,1,2,12,,,,,,,,3,14,,,,,,,,,,,4,11.654,0,,,,,,0.355903727,-0.264885254,1,0,0,11.6545,Gabbro_rect,11,0,11,0,1,
630386f64c5bbd56ab1c3b0f,TCN,2024-06-24_11h48.05.928,LearnStrategy,2023.2.3,MacIntel,60.97560976,1,2,13,,,,,,,,2,06,,,,,,,,,,,2,2.612,1,,,,,,-0.128397895,-0.25915785,1,0,0,2.6122,Basalt_rect,12,0,12,0,1,
630386f64c5bbd56ab1c3b0f,TCN,2024-06-24_11h48.05.928,LearnStrategy,2023.2.3,MacIntel,60.97560976,1,2,14,,,,,,,,7,13,,,,,,,,,,,1,5.398,0,,,,,,-0.375346781,-0.268369548,1,0,0,5.3983,Andesite_rect,13,0,13,0,1,
630386f64c5bbd56ab1c3b0f,TCN,2024-06-24_11h48.05.928,LearnStrategy,2023.2.3,MacIntel,60.97560976,1,2,15,,,,,,,,8,03,,,,,,,,,,,8,1.519,1,,,,,,0.412710232,-0.406923557,1,0,0,1.5185,Pumice_rect,14,0,14,0,1,
630386f64c5bbd56ab1c3b0f,TCN,2024-06-24_11h48.05.928,LearnStrategy,2023.2.3,MacIntel,60.97560976,1,2,16,,,,,,,,2,01,,,,,,,,,,,2,3.028,1,,,,,,-0.121653442,-0.242134942,1,0,0,3.0278,Basalt_rect,15,0,15,0,1,
630386f64c5bbd56ab1c3b0f,TCN,2024-06-24_11h48.05.928,LearnStrategy,2023.2.3,MacIntel,60.97560976,2,1,1,0.020499539,-0.019186537,1,0,0,1.9352,rock_grid_rect_2,3,15,-1,-1,1.935,0.408730876,-0.259706082,1,0,0,9.9663,Gabbro_rect,4,9.966,0,0,0,0,0,1,,,,,,,,,,,,,
630386f64c5bbd56ab1c3b0f,TCN,2024-06-24_11h48.05.928,LearnStrategy,2023.2.3,MacIntel,60.97560976,2,1,2,0.046011827,0.00682173,1,0,0,1.4213,rock_grid_rect_2,7,14,-1,-1,1.421,0.117637329,-0.229010145,1,0,0,3.9729,Diorite_rect,3,3.973,0,1,0,1,0,1,,,,,,,,,,,,,
630386f64c5bbd56ab1c3b0f,TCN,2024-06-24_11h48.05.928,LearnStrategy,2023.2.3,MacIntel,60.97560976,2,1,3,0.015625136,-0.014880812,1,0,0,1.4206,rock_grid_rect_2,8,15,-1,-1,1.421,0.412871501,-0.417170478,1,0,0,8.785,Pumice_rect,8,8.785,1,2,0,2,0,1,,,,,,,,,,,,,
630386f64c5bbd56ab1c3b0f,TCN,2024-06-24_11h48.05.928,LearnStrategy,2023.2.3,MacIntel,60.97560976,2,1,4,0.021551581,-0.002428657,1,0,0,1.217,rock_grid_rect_2,8,13,-1,-1,1.217,0.41847602,-0.400846693,1,0,0,3.3631,Pumice_rect,8,3.363,1,3,0,3,0,1,,,,,,,,,,,,,
630386f64c5bbd56ab1c3b0f,TCN,2024-06-24_11h48.05.928,LearnStrategy,2023.2.3,MacIntel,60.97560976,2,1,5,0.005657416,0.015416701,1,0,0,1.1007,rock_grid_rect_2,4,05,-1,-1,1.101,-0.127079129,-0.396684299,1,0,0,4.5693,Pegmatite_rect,6,4.569,0,4,0,4,0,1,,,,,,,,,,,,,
630386f64c5bbd56ab1c3b0f,TCN,2024-06-24_11h48.05.928,LearnStrategy,2023.2.3,MacIntel,60.97560976,2,1,6,-0.015956082,-0.021291775,1,0,0,1.3843,rock_grid_rect_2,5,04,-1,-1,1.384,-0.349832221,-0.412952203,1,0,0,2.5963,Obsidian_rect,5,2.596,1,5,0,5,0,1,,,,,,,,,,,,,
630386f64c5bbd56ab1c3b0f,TCN,2024-06-24_11h48.05.928,LearnStrategy,2023.2.3,MacIntel,60.97560976,2,1,7,0.010258789,-0.009230414,1,0,0,0.9991,rock_grid_rect_2,2,14,-1,-1,0.999,0.38454522,-0.414547187,1,0,0,1.5989,Pumice_rect,8,1.599,0,6,0,6,0,1,,,,,,,,,,,,,
630386f64c5bbd56ab1c3b0f,TCN,2024-06-24_11h48.05.928,LearnStrategy,2023.2.3,MacIntel,60.97560976,2,1,8,-0.022384847,-0.008269619,1,0,0,1.0374,rock_grid_rect_2,3,06,-1,-1,1.037,-0.378413052,-0.391293742,1,0,0,8.0585,Obsidian_rect,5,8.058,0,7,0,7,0,1,,,,,,,,,,,,,
630386f64c5bbd56ab1c3b0f,TCN,2024-06-24_11h48.05.928,LearnStrategy,2023.2.3,MacIntel,60.97560976,2,1,9,-0.014635281,0.008094347,1,0,0,1.2008,rock_grid_rect_2,7,12,-1,-1,1.201,0.128369412,-0.263233032,1,0,0,3.3894,Diorite_rect,3,3.389,0,8,0,8,0,1,,,,,,,,,,,,,
630386f64c5bbd56ab1c3b0f,TCN,2024-06-24_11h48.05.928,LearnStrategy,2023.2.3,MacIntel,60.97560976,2,1,10,-0.009376085,-0.002855292,1,0,0,1.2202,rock_grid_rect_2,5,12,-1,-1,1.22,-0.390366313,-0.40590583,1,0,0,5.5885,Obsidian_rect,5,5.588,1,9,0,9,0,1,,,,,,,,,,,,,
630386f64c5bbd56ab1c3b0f,TCN,2024-06-24_11h48.05.928,LearnStrategy,2023.2.3,MacIntel,60.97560976,2,1,11,-0.026870185,-0.013113912,1,0,0,1.0495,rock_grid_rect_2,1,05,-1,-1,1.049,0.377658963,-0.235946113,1,0,0,3.8811,Gabbro_rect,4,3.881,0,10,0,10,0,1,,,,,,,,,,,,,
630386f64c5bbd56ab1c3b0f,TCN,2024-06-24_11h48.05.928,LearnStrategy,2023.2.3,MacIntel,60.97560976,2,1,12,0.023004354,-0.001844754,1,0,0,1.0426,rock_grid_rect_2,2,09,-1,-1,1.043,-0.122495999,-0.249002414,1,0,0,3.2635,Basalt_rect,2,3.264,1,11,0,11,0,1,,,,,,,,,,,,,
630386f64c5bbd56ab1c3b0f,TCN,2024-06-24_11h48.05.928,LearnStrategy,2023.2.3,MacIntel,60.97560976,2,1,13,0.014836358,-0.000223863,1,0,0,1.1514,rock_grid_rect_2,4,16,-1,-1,1.151,0.417473958,-0.403123644,1,0,0,7.2976,Pumice_rect,8,7.298,0,12,0,12,0,1,,,,,,,,,,,,,
630386f64c5bbd56ab1c3b0f,TCN,2024-06-24_11h48.05.928,LearnStrategy,2023.2.3,MacIntel,60.97560976,2,1,14,0.029251234,-0.003241102,1,0,0,1.0662,rock_grid_rect_2,6,03,-1,-1,1.066,-0.124003432,-0.403650513,1,0,0,4.8645,Pegmatite_rect,6,4.864,1,13,0,13,0,1,,,,,,,,,,,,,
630386f64c5bbd56ab1c3b0f,TCN,2024-06-24_11h48.05.928,LearnStrategy,2023.2.3,MacIntel,60.97560976,2,1,15,-0.027097507,-0.010616862,1,0,0,1.37,rock_grid_rect_2,1,03,-1,-1,1.37,0.389169515,-0.261945394,1,0,0,10.4554,Gabbro_rect,4,10.455,0,14,0,14,0,1,,,,,,,,,,,,,
630386f64c5bbd56ab1c3b0f,TCN,2024-06-24_11h48.05.928,LearnStrategy,2023.2.3,MacIntel,60.97560976,2,1,16,-0.038398777,-0.011458978,1,0,0,1.1312,rock_grid_rect_2,6,05,-1,-1,1.131,0.158355035,-0.25485711,1,0,0,9.9185,Diorite_rect,3,9.918,0,15,0,15,0,1,,,,,,,,,,,,,
630386f64c5bbd56ab1c3b0f,TCN,2024-06-24_11h48.05.928,LearnStrategy,2023.2.3,MacIntel,60.97560976,2,2,1,,,,,,,,4,12,,,,,,,,,,,4,13.026,1,,,,,,0.431022542,-0.259556003,1,0,0,13.0259,Gabbro_rect,0,0,0,0,1,
630386f64c5bbd56ab1c3b0f,TCN,2024-06-24_11h48.05.928,LearnStrategy,2023.2.3,MacIntel,60.97560976,2,2,2,,,,,,,,5,06,,,,,,,,,,,2,2.627,0,,,,,,-0.113848267,-0.25228597,1,0,0,2.6268,Basalt_rect,1,0,1,0,1,
630386f64c5bbd56ab1c3b0f,TCN,2024-06-24_11h48.05.928,LearnStrategy,2023.2.3,MacIntel,60.97560976,2,2,3,,,,,,,,1,02,,,,,,,,,,,1,3.347,1,,,,,,-0.383544074,-0.233729045,1,0,0,3.347,Andesite_rect,2,0,2,0,1,
630386f64c5bbd56ab1c3b0f,TCN,2024-06-24_11h48.05.928,LearnStrategy,2023.2.3,MacIntel,60.97560976,2,2,4,,,,,,,,8,04,,,,,,,,,,,8,1.336,1,,,,,,0.406792263,-0.420848592,1,0,0,1.3355,Pumice_rect,3,0,3,0,1,
630386f64c5bbd56ab1c3b0f,TCN,2024-06-24_11h48.05.928,LearnStrategy,2023.2.3,MacIntel,60.97560976,2,2,5,,,,,,,,6,07,,,,,,,,,,,6,3.555,1,,,,,,-0.094983317,-0.389650133,1,0,0,3.5551,Pegmatite_rect,4,0,4,0,1,
630386f64c5bbd56ab1c3b0f,TCN,2024-06-24_11h48.05.928,LearnStrategy,2023.2.3,MacIntel,60.97560976,2,2,6,,,,,,,,5,09,,,,,,,,,,,5,2.693,1,,,,,,-0.41820048,-0.406006809,1,0,0,2.6928,Obsidian_rect,5,0,5,0,1,
630386f64c5bbd56ab1c3b0f,TCN,2024-06-24_11h48.05.928,LearnStrategy,2023.2.3,MacIntel,60.97560976,2,2,7,,,,,,,,4,08,,,,,,,,,,,7,2.351,0,,,,,,0.112439846,-0.411889852,1,0,0,2.3515,Peridotite_rect,6,0,6,0,1,
630386f64c5bbd56ab1c3b0f,TCN,2024-06-24_11h48.05.928,LearnStrategy,2023.2.3,MacIntel,60.97560976,2,2,8,,,,,,,,6,16,,,,,,,,,,,1,4.206,0,,,,,,-0.401599765,-0.236804945,1,0,0,4.2056,Andesite_rect,7,0,7,0,1,
630386f64c5bbd56ab1c3b0f,TCN,2024-06-24_11h48.05.928,LearnStrategy,2023.2.3,MacIntel,60.97560976,2,2,9,,,,,,,,1,01,,,,,,,,,,,2,2.507,0,,,,,,-0.103993462,-0.241775038,1,0,0,2.5065,Basalt_rect,8,0,8,0,1,
630386f64c5bbd56ab1c3b0f,TCN,2024-06-24_11h48.05.928,LearnStrategy,2023.2.3,MacIntel,60.97560976,2,2,10,,,,,,,,3,08,,,,,,,,,,,3,4.645,1,,,,,,0.106188626,-0.256412828,1,0,0,4.6451,Diorite_rect,9,0,9,0,1,
630386f64c5bbd56ab1c3b0f,TCN,2024-06-24_11h48.05.928,LearnStrategy,2023.2.3,MacIntel,60.97560976,2,2,11,,,,,,,,2,16,,,,,,,,,,,8,1.509,0,,,,,,0.378717719,-0.401812812,1,0,0,1.5091,Pumice_rect,10,0,10,0,1,
630386f64c5bbd56ab1c3b0f,TCN,2024-06-24_11h48.05.928,LearnStrategy,2023.2.3,MacIntel,60.97560976,2,2,12,,,,,,,,7,05,,,,,,,,,,,1,4.822,0,,,,,,-0.391737535,-0.251728244,1,0,0,4.822,Andesite_rect,11,0,11,0,1,
630386f64c5bbd56ab1c3b0f,TCN,2024-06-24_11h48.05.928,LearnStrategy,2023.2.3,MacIntel,60.97560976,2,2,13,,,,,,,,2,08,,,,,,,,,,,2,3.686,1,,,,,,-0.158326348,-0.251853027,1,0,0,3.6861,Basalt_rect,12,0,12,0,1,
630386f64c5bbd56ab1c3b0f,TCN,2024-06-24_11h48.05.928,LearnStrategy,2023.2.3,MacIntel,60.97560976,2,2,14,,,,,,,,8,14,,,,,,,,,,,8,1.362,1,,,,,,0.397486437,-0.381872762,1,0,0,1.3617,Pumice_rect,13,0,13,0,1,
630386f64c5bbd56ab1c3b0f,TCN,2024-06-24_11h48.05.928,LearnStrategy,2023.2.3,MacIntel,60.97560976,2,2,15,,,,,,,,7,15,,,,,,,,,,,6,2.932,0,,,,,,-0.128752238,-0.403402371,1,0,0,2.9322,Pegmatite_rect,14,0,14,0,1,
630386f64c5bbd56ab1c3b0f,TCN,2024-06-24_11h48.05.928,LearnStrategy,2023.2.3,MacIntel,60.97560976,2,2,16,,,,,,,,3,13,,,,,,,,,,,3,4.221,1,,,,,,0.196091037,-0.258906996,1,0,0,4.2205,Diorite_rect,15,0,15,0,1,
630386f64c5bbd56ab1c3b0f,TCN,2024-06-24_11h48.05.928,LearnStrategy,2023.2.3,MacIntel,60.97560976,3,1,1,-0.003125949,-0.010880941,1,0,0,1.6188,rock_grid_rect_2,3,02,-1,-1,1.619,0.088965997,-0.250711331,1,0,0,10.3688,Diorite_rect,3,10.369,1,0,0,0,0,1,,,,,,,,,,,,,
630386f64c5bbd56ab1c3b0f,TCN,2024-06-24_11h48.05.928,LearnStrategy,2023.2.3,MacIntel,60.97560976,3,1,2,0.033917033,-0.006213311,1,0,0,1.3002,rock_grid_rect_2,5,10,-1,-1,1.3,-0.346100328,-0.418235067,1,0,0,4.3892,Obsidian_rect,5,4.389,1,1,0,1,0,1,,,,,,,,,,,,,
630386f64c5bbd56ab1c3b0f,TCN,2024-06-24_11h48.05.928,LearnStrategy,2023.2.3,MacIntel,60.97560976,3,1,3,-0.010849135,0.000500081,1,0,0,1.2014,rock_grid_rect_2,4,15,-1,-1,1.201,-0.40726298,-0.237547879,1,0,0,5.5867,Andesite_rect,1,5.587,0,2,0,2,0,1,,,,,,,,,,,,,
630386f64c5bbd56ab1c3b0f,TCN,2024-06-24_11h48.05.928,LearnStrategy,2023.2.3,MacIntel,60.97560976,3,1,4,-0.023622843,-0.002456394,1,0,0,6.2129,rock_grid_rect_2,7,16,-1,-1,6.213,-0.099073961,-0.406057332,1,0,0,5.4901,Pegmatite_rect,6,5.49,0,3,0,3,0,1,,,,,,,,,,,,,
630386f64c5bbd56ab1c3b0f,TCN,2024-06-24_11h48.05.928,LearnStrategy,2023.2.3,MacIntel,60.97560976,3,1,5,0.094970296,-0.004088677,1,0,0,1.4657,rock_grid_rect_2,8,06,-1,-1,1.466,0.404061822,-0.397729696,1,0,0,2.4159,Pumice_rect,8,2.416,1,4,0,4,0,1,,,,,,,,,,,,,
630386f64c5bbd56ab1c3b0f,TCN,2024-06-24_11h48.05.928,LearnStrategy,2023.2.3,MacIntel,60.97560976,3,1,6,0.014262221,0.001222365,1,0,0,1.0496,rock_grid_rect_2,1,11,-1,-1,1.05,0.435595839,-0.231382989,1,0,0,10.6588,Gabbro_rect,4,10.659,0,5,0,5,0,1,,,,,,,,,,,,,
630386f64c5bbd56ab1c3b0f,TCN,2024-06-24_11h48.05.928,LearnStrategy,2023.2.3,MacIntel,60.97560976,3,1,7,0.008759494,-0.004992913,1,0,0,1.1534,rock_grid_rect_2,6,08,-1,-1,1.153,-0.341928643,-0.394483778,1,0,0,2.9389,Obsidian_rect,5,2.939,0,6,0,6,0,1,,,,,,,,,,,,,
630386f64c5bbd56ab1c3b0f,TCN,2024-06-24_11h48.05.928,LearnStrategy,2023.2.3,MacIntel,60.97560976,3,1,8,0.026991577,0.008190952,1,0,0,2.5547,rock_grid_rect_2,2,12,-1,-1,2.555,0.431804064,-0.411810438,1,0,0,3.6514,Pumice_rect,8,3.651,0,7,0,7,0,1,,,,,,,,,,,,,
630386f64c5bbd56ab1c3b0f,TCN,2024-06-24_11h48.05.928,LearnStrategy,2023.2.3,MacIntel,60.97560976,3,1,9,-0.013885837,-0.016865675,1,0,0,1.319,rock_grid_rect_2,8,02,-1,-1,1.319,0.377021077,-0.395698039,1,0,0,1.41,Pumice_rect,8,1.41,1,8,0,8,0,1,,,,,,,,,,,,,
630386f64c5bbd56ab1c3b0f,TCN,2024-06-24_11h48.05.928,LearnStrategy,2023.2.3,MacIntel,60.97560976,3,1,10,0.005078803,-0.014770135,1,0,0,1.3183,rock_grid_rect_2,1,04,-1,-1,1.318,-0.352711555,-0.257944946,1,0,0,6.4102,Andesite_rect,1,6.41,1,9,0,9,0,1,,,,,,,,,,,,,
630386f64c5bbd56ab1c3b0f,TCN,2024-06-24_11h48.05.928,LearnStrategy,2023.2.3,MacIntel,60.97560976,3,1,11,0.025561117,-0.015109049,1,0,0,1.149,rock_grid_rect_2,4,09,-1,-1,1.149,-0.140626492,-0.258940362,1,0,0,1.9648,Basalt_rect,2,1.965,0,10,0,10,0,1,,,,,,,,,,,,,
630386f64c5bbd56ab1c3b0f,TCN,2024-06-24_11h48.05.928,LearnStrategy,2023.2.3,MacIntel,60.97560976,3,1,12,0.017519599,0.013112522,1,0,0,1.0686,rock_grid_rect_2,3,12,-1,-1,1.069,-0.393981425,-0.410555827,1,0,0,6.1809,Obsidian_rect,5,6.181,0,11,0,11,0,1,,,,,,,,,,,,,
630386f64c5bbd56ab1c3b0f,TCN,2024-06-24_11h48.05.928,LearnStrategy,2023.2.3,MacIntel,60.97560976,3,1,13,0.007429674,-0.024151069,1,0,0,1.7679,rock_grid_rect_2,6,06,-1,-1,1.768,-0.113079291,-0.390862155,1,0,0,4.9539,Pegmatite_rect,6,4.954,1,12,0,12,0,1,,,,,,,,,,,,,
630386f64c5bbd56ab1c3b0f,TCN,2024-06-24_11h48.05.928,LearnStrategy,2023.2.3,MacIntel,60.97560976,3,1,14,-0.018560316,0.005320909,1,0,0,1.1327,rock_grid_rect_2,2,11,-1,-1,1.133,0.358275553,-0.418668416,1,0,0,2.1155,Pumice_rect,8,2.115,0,13,0,13,0,1,,,,,,,,,,,,,
630386f64c5bbd56ab1c3b0f,TCN,2024-06-24_11h48.05.928,LearnStrategy,2023.2.3,MacIntel,60.97560976,3,1,15,0.005250583,0.007304416,1,0,0,1.0175,rock_grid_rect_2,7,08,-1,-1,1.018,0.13723409,-0.421373359,1,0,0,5.0998,Peridotite_rect,7,5.1,1,14,0,14,0,1,,,,,,,,,,,,,
630386f64c5bbd56ab1c3b0f,TCN,2024-06-24_11h48.05.928,LearnStrategy,2023.2.3,MacIntel,60.97560976,3,1,16,0.012778998,-0.000538262,1,0,0,1.2829,rock_grid_rect_2,5,16,-1,-1,1.283,-0.361056892,-0.395012343,1,0,0,3.3048,Obsidian_rect,5,3.305,1,15,0,15,0,1,,,,,,,,,,,,,
630386f64c5bbd56ab1c3b0f,TCN,2024-06-24_11h48.05.928,LearnStrategy,2023.2.3,MacIntel,60.97560976,3,2,1,,,,,,,,3,16,,,,,,,,,,,3,13.931,1,,,,,,0.119708252,-0.258379313,1,0,0,13.931,Diorite_rect,0,0,0,0,1,
630386f64c5bbd56ab1c3b0f,TCN,2024-06-24_11h48.05.928,LearnStrategy,2023.2.3,MacIntel,60.97560976,3,2,2,,,,,,,,6,13,,,,,,,,,,,7,3.834,0,,,,,,0.110566067,-0.388206855,1,0,0,3.8342,Peridotite_rect,1,0,1,0,1,
630386f64c5bbd56ab1c3b0f,TCN,2024-06-24_11h48.05.928,LearnStrategy,2023.2.3,MacIntel,60.97560976,3,2,3,,,,,,,,1,14,,,,,,,,,,,6,3.479,0,,,,,,-0.108247681,-0.415320706,1,0,0,3.4791,Pegmatite_rect,2,0,2,0,1,
630386f64c5bbd56ab1c3b0f,TCN,2024-06-24_11h48.05.928,LearnStrategy,2023.2.3,MacIntel,60.97560976,3,2,4,,,,,,,,3,07,,,,,,,,,,,6,4.755,0,,,,,,-0.108247681,-0.415320706,1,0,0,4.7549,Pegmatite_rect,3,0,3,0,1,
630386f64c5bbd56ab1c3b0f,TCN,2024-06-24_11h48.05.928,LearnStrategy,2023.2.3,MacIntel,60.97560976,3,2,5,,,,,,,,5,11,,,,,,,,,,,5,2.039,1,,,,,,-0.390313212,-0.410830553,1,0,0,2.0392,Obsidian_rect,4,0,4,0,1,
630386f64c5bbd56ab1c3b0f,TCN,2024-06-24_11h48.05.928,LearnStrategy,2023.2.3,MacIntel,60.97560976,3,2,6,,,,,,,,4,13,,,,,,,,,,,7,5.762,0,,,,,,0.062640516,-0.384773763,1,0,0,5.7617,Peridotite_rect,5,0,5,0,1,
630386f64c5bbd56ab1c3b0f,TCN,2024-06-24_11h48.05.928,LearnStrategy,2023.2.3,MacIntel,60.97560976,3,2,7,,,,,,,,8,09,,,,,,,,,,,8,1.711,1,,,,,,0.433685031,-0.418934055,1,0,0,1.7111,Pumice_rect,6,0,6,0,1,
630386f64c5bbd56ab1c3b0f,TCN,2024-06-24_11h48.05.928,LearnStrategy,2023.2.3,MacIntel,60.97560976,3,2,8,,,,,,,,6,12,,,,,,,,,,,4,6.207,0,,,,,,0.315745985,-0.252512478,1,0,0,6.2074,Gabbro_rect,7,0,7,0,1,
630386f64c5bbd56ab1c3b0f,TCN,2024-06-24_11h48.05.928,LearnStrategy,2023.2.3,MacIntel,60.97560976,3,2,9,,,,,,,,2,02,,,,,,,,,,,2,2.787,1,,,,,,-0.068775567,-0.253946194,1,0,0,2.7866,Basalt_rect,8,0,8,0,1,
630386f64c5bbd56ab1c3b0f,TCN,2024-06-24_11h48.05.928,LearnStrategy,2023.2.3,MacIntel,60.97560976,3,2,10,,,,,,,,5,08,,,,,,,,,,,5,1.686,1,,,,,,-0.355832859,-0.397753635,1,0,0,1.6856,Obsidian_rect,9,0,9,0,1,
630386f64c5bbd56ab1c3b0f,TCN,2024-06-24_11h48.05.928,LearnStrategy,2023.2.3,MacIntel,60.97560976,3,2,11,,,,,,,,8,08,,,,,,,,,,,8,1.527,1,,,,,,0.357801242,-0.404704997,1,0,0,1.5265,Pumice_rect,10,0,10,0,1,
630386f64c5bbd56ab1c3b0f,TCN,2024-06-24_11h48.05.928,LearnStrategy,2023.2.3,MacIntel,60.97560976,3,2,12,,,,,,,,4,14,,,,,,,,,,,1,4.688,0,,,,,,-0.354537048,-0.245916002,1,0,0,4.6878,Andesite_rect,11,0,11,0,1,
630386f64c5bbd56ab1c3b0f,TCN,2024-06-24_11h48.05.928,LearnStrategy,2023.2.3,MacIntel,60.97560976,3,2,13,,,,,,,,1,10,,,,,,,,,,,4,3.515,0,,,,,,0.37583374,-0.253700019,1,0,0,3.5147,Gabbro_rect,12,0,12,0,1,
630386f64c5bbd56ab1c3b0f,TCN,2024-06-24_11h48.05.928,LearnStrategy,2023.2.3,MacIntel,60.97560976,3,2,14,,,,,,,,7,04,,,,,,,,,,,7,3.047,1,,,,,,0.093085598,-0.410651652,1,0,0,3.0474,Peridotite_rect,13,0,13,0,1,
630386f64c5bbd56ab1c3b0f,TCN,2024-06-24_11h48.05.928,LearnStrategy,2023.2.3,MacIntel,60.97560976,3,2,15,,,,,,,,2,10,,,,,,,,,,,2,4.081,1,,,,,,-0.132299262,-0.261861844,1,0,0,4.0806,Basalt_rect,14,0,14,0,1,
630386f64c5bbd56ab1c3b0f,TCN,2024-06-24_11h48.05.928,LearnStrategy,2023.2.3,MacIntel,60.97560976,3,2,16,,,,,,,,7,06,,,,,,,,,,,6,4.323,0,,,,,,-0.092852715,-0.389966295,1,0,0,4.3234,Pegmatite_rect,15,0,15,0,1,
630386f64c5bbd56ab1c3b0f,TCN,2024-06-24_11h48.05.928,LearnStrategy,2023.2.3,MacIntel,60.97560976,4,1,1,0.038156806,-0.005293647,1,0,0,1.6187,rock_grid_rect_2,2,05,-1,-1,1.619,-0.159598389,-0.248700494,1,0,0,5.1586,Basalt_rect,2,5.159,1,0,0,0,0,1,,,,,,,,,,,,,
630386f64c5bbd56ab1c3b0f,TCN,2024-06-24_11h48.05.928,LearnStrategy,2023.2.3,MacIntel,60.97560976,4,1,2,0.044164293,0.003738573,1,0,0,1.0841,rock_grid_rect_2,8,06,-1,-1,1.084,0.357640381,-0.409591675,1,0,0,2.0113,Pumice_rect,8,2.011,1,1,0,1,0,1,,,,,,,,,,,,,
630386f64c5bbd56ab1c3b0f,TCN,2024-06-24_11h48.05.928,LearnStrategy,2023.2.3,MacIntel,60.97560976,4,1,3,-0.024803535,0.007358839,1,0,0,1.1493,rock_grid_rect_2,5,16,-1,-1,1.149,-0.417433404,-0.397892456,1,0,0,1.8993,Obsidian_rect,5,1.899,1,2,0,2,0,1,,,,,,,,,,,,,
630386f64c5bbd56ab1c3b0f,TCN,2024-06-24_11h48.05.928,LearnStrategy,2023.2.3,MacIntel,60.97560976,4,1,4,0.000347561,-0.017028537,1,0,0,1.184,rock_grid_rect_2,5,02,-1,-1,1.184,-0.343712938,-0.396109823,1,0,0,2.031,Obsidian_rect,5,2.031,1,3,0,3,0,1,,,,,,,,,,,,,
630386f64c5bbd56ab1c3b0f,TCN,2024-06-24_11h48.05.928,LearnStrategy,2023.2.3,MacIntel,60.97560976,4,1,5,-0.072822401,0.007968241,1,0,0,1.1177,rock_grid_rect_2,6,03,-1,-1,1.118,-0.383698561,-0.257606472,1,0,0,4.1699,Andesite_rect,1,4.17,0,4,0,4,0,1,,,,,,,,,,,,,
630386f64c5bbd56ab1c3b0f,TCN,2024-06-24_11h48.05.928,LearnStrategy,2023.2.3,MacIntel,60.97560976,4,1,6,-0.023789402,-0.018277554,1,0,0,3.054,rock_grid_rect_2,2,12,-1,-1,3.054,-0.133826497,-0.257670763,1,0,0,2.5225,Basalt_rect,2,2.523,1,5,0,5,0,1,,,,,,,,,,,,,
630386f64c5bbd56ab1c3b0f,TCN,2024-06-24_11h48.05.928,LearnStrategy,2023.2.3,MacIntel,60.97560976,4,1,7,-0.00568712,-0.016409132,1,0,0,1.1353,rock_grid_rect_2,1,11,-1,-1,1.135,0.373785943,-0.231385837,1,0,0,2.2969,Gabbro_rect,4,2.297,0,6,0,6,0,1,,,,,,,,,,,,,
630386f64c5bbd56ab1c3b0f,TCN,2024-06-24_11h48.05.928,LearnStrategy,2023.2.3,MacIntel,60.97560976,4,1,8,-0.014069214,-0.014678006,1,0,0,1.0714,rock_grid_rect_2,6,06,-1,-1,1.071,0.101133084,-0.413895467,1,0,0,3.9996,Peridotite_rect,7,4,0,7,0,7,0,1,,,,,,,,,,,,,
630386f64c5bbd56ab1c3b0f,TCN,2024-06-24_11h48.05.928,LearnStrategy,2023.2.3,MacIntel,60.97560976,4,1,9,-0.032567139,-0.010055712,1,0,0,1.7244,rock_grid_rect_2,1,06,-1,-1,1.724,0.415084907,-0.250269029,1,0,0,1.9641,Gabbro_rect,4,1.964,0,8,0,8,0,1,,,,,,,,,,,,,
630386f64c5bbd56ab1c3b0f,TCN,2024-06-24_11h48.05.928,LearnStrategy,2023.2.3,MacIntel,60.97560976,4,1,10,-0.007362332,-0.00220008,1,0,0,1.4846,rock_grid_rect_2,3,15,-1,-1,1.485,0.156287977,-0.240821058,1,0,0,2.1393,Diorite_rect,3,2.139,1,9,0,9,0,1,,,,,,,,,,,,,
630386f64c5bbd56ab1c3b0f,TCN,2024-06-24_11h48.05.928,LearnStrategy,2023.2.3,MacIntel,60.97560976,4,1,11,0.002796224,-0.013043043,1,0,0,1.1171,rock_grid_rect_2,3,09,-1,-1,1.117,-0.099494086,-0.415460883,1,0,0,2.3298,Pegmatite_rect,6,2.33,0,10,0,10,0,1,,,,,,,,,,,,,
630386f64c5bbd56ab1c3b0f,TCN,2024-06-24_11h48.05.928,LearnStrategy,2023.2.3,MacIntel,60.97560976,4,1,12,-0.044210815,-0.013117676,1,0,0,1.303,rock_grid_rect_2,4,03,-1,-1,1.303,0.378136936,-0.254215495,1,0,0,2.551,Gabbro_rect,4,2.551,1,11,0,11,0,1,,,,,,,,,,,,,
630386f64c5bbd56ab1c3b0f,TCN,2024-06-24_11h48.05.928,LearnStrategy,2023.2.3,MacIntel,60.97560976,4,1,13,-0.016433784,-0.009099528,1,0,0,1.1167,rock_grid_rect_2,8,13,-1,-1,1.117,0.395224338,-0.389179416,1,0,0,2.6015,Pumice_rect,8,2.601,1,12,0,12,0,1,,,,,,,,,,,,,
630386f64c5bbd56ab1c3b0f,TCN,2024-06-24_11h48.05.928,LearnStrategy,2023.2.3,MacIntel,60.97560976,4,1,14,-0.054008043,-0.011731906,1,0,0,1.112,rock_grid_rect_2,7,10,-1,-1,1.112,-0.154130995,-0.394299995,1,0,0,5.4017,Pegmatite_rect,6,5.402,0,13,0,13,0,1,,,,,,,,,,,,,
630386f64c5bbd56ab1c3b0f,TCN,2024-06-24_11h48.05.928,LearnStrategy,2023.2.3,MacIntel,60.97560976,4,1,15,-0.042479858,-0.010477261,1,0,0,1.4427,rock_grid_rect_2,7,08,-1,-1,1.443,0.132145521,-0.406459757,1,0,0,1.2984,Peridotite_rect,7,1.298,1,14,0,14,0,1,,,,,,,,,,,,,
630386f64c5bbd56ab1c3b0f,TCN,2024-06-24_11h48.05.928,LearnStrategy,2023.2.3,MacIntel,60.97560976,4,1,16,-0.027809313,-0.009300469,1,0,0,1.0178,rock_grid_rect_2,4,15,-1,-1,1.018,0.175063816,-0.25353597,1,0,0,3.8964,Diorite_rect,3,3.896,0,15,0,15,0,1,,,,,,,,,,,,,
630386f64c5bbd56ab1c3b0f,TCN,2024-06-24_11h48.05.928,LearnStrategy,2023.2.3,MacIntel,60.97560976,4,2,1,,,,,,,,3,13,,,,,,,,,,,7,6.81,0,,,,,,0.118693983,-0.407706028,1,0,0,6.8097,Peridotite_rect,0,0,0,0,1,
630386f64c5bbd56ab1c3b0f,TCN,2024-06-24_11h48.05.928,LearnStrategy,2023.2.3,MacIntel,60.97560976,4,2,2,,,,,,,,2,01,,,,,,,,,,,2,4.23,1,,,,,,-0.11104777,-0.261095242,1,0,0,4.2299,Basalt_rect,1,0,1,0,1,
630386f64c5bbd56ab1c3b0f,TCN,2024-06-24_11h48.05.928,LearnStrategy,2023.2.3,MacIntel,60.97560976,4,2,3,,,,,,,,1,02,,,,,,,,,,,1,3.818,1,,,,,,-0.394123874,-0.253026937,1,0,0,3.8184,Andesite_rect,2,0,2,0,1,
630386f64c5bbd56ab1c3b0f,TCN,2024-06-24_11h48.05.928,LearnStrategy,2023.2.3,MacIntel,60.97560976,4,2,4,,,,,,,,1,14,,,,,,,,,,,3,6.824,0,,,,,,0.153547838,-0.2655346,1,0,0,6.8239,Diorite_rect,3,0,3,0,1,
630386f64c5bbd56ab1c3b0f,TCN,2024-06-24_11h48.05.928,LearnStrategy,2023.2.3,MacIntel,60.97560976,4,2,5,,,,,,,,7,04,,,,,,,,,,,6,2.413,0,,,,,,-0.150335761,-0.390491876,1,0,0,2.4125,Pegmatite_rect,4,0,4,0,1,
630386f64c5bbd56ab1c3b0f,TCN,2024-06-24_11h48.05.928,LearnStrategy,2023.2.3,MacIntel,60.97560976,4,2,6,,,,,,,,5,11,,,,,,,,,,,5,2.033,1,,,,,,-0.347119921,-0.405228136,1,0,0,2.0331,Obsidian_rect,5,0,5,0,1,
630386f64c5bbd56ab1c3b0f,TCN,2024-06-24_11h48.05.928,LearnStrategy,2023.2.3,MacIntel,60.97560976,4,2,7,,,,,,,,5,09,,,,,,,,,,,5,1.31,1,,,,,,-0.363311259,-0.405228136,1,0,0,1.3102,Obsidian_rect,6,0,6,0,1,
630386f64c5bbd56ab1c3b0f,TCN,2024-06-24_11h48.05.928,LearnStrategy,2023.2.3,MacIntel,60.97560976,4,2,8,,,,,,,,8,08,,,,,,,,,,,8,2.172,1,,,,,,0.394334988,-0.406347114,1,0,0,2.1717,Pumice_rect,7,0,7,0,1,
630386f64c5bbd56ab1c3b0f,TCN,2024-06-24_11h48.05.928,LearnStrategy,2023.2.3,MacIntel,60.97560976,4,2,9,,,,,,,,2,02,,,,,,,,,,,2,2.831,1,,,,,,-0.165861816,-0.256085341,1,0,0,2.8305,Basalt_rect,8,0,8,0,1,
630386f64c5bbd56ab1c3b0f,TCN,2024-06-24_11h48.05.928,LearnStrategy,2023.2.3,MacIntel,60.97560976,4,2,10,,,,,,,,4,11,,,,,,,,,,,1,3.274,0,,,,,,-0.411875339,-0.251314426,1,0,0,3.2739,Andesite_rect,9,0,9,0,1,
630386f64c5bbd56ab1c3b0f,TCN,2024-06-24_11h48.05.928,LearnStrategy,2023.2.3,MacIntel,60.97560976,4,2,11,,,,,,,,3,08,,,,,,,,,,,3,2.022,1,,,,,,0.082880385,-0.268042331,1,0,0,2.0223,Diorite_rect,10,0,10,0,1,
630386f64c5bbd56ab1c3b0f,TCN,2024-06-24_11h48.05.928,LearnStrategy,2023.2.3,MacIntel,60.97560976,4,2,12,,,,,,,,4,13,,,,,,,,,,,7,5.981,0,,,,,,0.103032769,-0.417353041,1,0,0,5.9809,Peridotite_rect,11,0,11,0,1,
630386f64c5bbd56ab1c3b0f,TCN,2024-06-24_11h48.05.928,LearnStrategy,2023.2.3,MacIntel,60.97560976,4,2,13,,,,,,,,8,05,,,,,,,,,,,8,1.23,1,,,,,,0.398285048,-0.418736979,1,0,0,1.2297,Pumice_rect,12,0,12,0,1,
630386f64c5bbd56ab1c3b0f,TCN,2024-06-24_11h48.05.928,LearnStrategy,2023.2.3,MacIntel,60.97560976,4,2,14,,,,,,,,6,09,,,,,,,,,,,6,2.238,1,,,,,,-0.128496636,-0.407483927,1,0,0,2.2384,Pegmatite_rect,13,0,13,0,1,
630386f64c5bbd56ab1c3b0f,TCN,2024-06-24_11h48.05.928,LearnStrategy,2023.2.3,MacIntel,60.97560976,4,2,15,,,,,,,,7,13,,,,,,,,,,,6,0.918,0,,,,,,-0.128496636,-0.407483927,1,0,0,0.9183,Pegmatite_rect,14,0,14,0,1,
630386f64c5bbd56ab1c3b0f,TCN,2024-06-24_11h48.05.928,LearnStrategy,2023.2.3,MacIntel,60.97560976,4,2,16,,,,,,,,6,07,,,,,,,,,,,6,31.885,1,,,,,,-0.101126912,-0.408342896,1,0,0,31.8847,Pegmatite_rect,15,0,15,0,1,
630386f64c5bbd56ab1c3b0f,TCN,2024-06-24_11h48.05.928,LearnStrategy,2023.2.3,MacIntel,60.97560976,5,1,1,0.063556247,-0.000185716,1,0,0,5.4457,rock_grid_rect_2,3,12,-1,-1,5.446,0.053824327,-0.268217231,1,0,0,32.6428,Diorite_rect,3,32.643,1,0,0,0,0,1,,,,,,,,,,,,,
630386f64c5bbd56ab1c3b0f,TCN,2024-06-24_11h48.05.928,LearnStrategy,2023.2.3,MacIntel,60.97560976,5,1,2,-0.052860718,0.011579692,1,0,0,1.8342,rock_grid_rect_2,6,15,-1,-1,1.834,0.123138902,-0.402831285,1,0,0,6.6478,Peridotite_rect,7,6.648,0,1,0,1,0,1,,,,,,,,,,,,,
630386f64c5bbd56ab1c3b0f,TCN,2024-06-24_11h48.05.928,LearnStrategy,2023.2.3,MacIntel,60.97560976,5,1,3,0.009810588,-0.00087677,1,0,0,0.9992,rock_grid_rect_2,7,07,-1,-1,0.999,0.129966159,-0.41035909,1,0,0,2.8849,Peridotite_rect,7,2.885,1,2,0,2,0,1,,,,,,,,,,,,,
630386f64c5bbd56ab1c3b0f,TCN,2024-06-24_11h48.05.928,LearnStrategy,2023.2.3,MacIntel,60.97560976,5,1,4,-0.029516534,-0.000766703,1,0,0,1.133,rock_grid_rect_2,8,02,-1,-1,1.133,0.387342936,-0.410112169,1,0,0,1.2394,Pumice_rect,8,1.239,1,3,0,3,0,1,,,,,,,,,,,,,
630386f64c5bbd56ab1c3b0f,TCN,2024-06-24_11h48.05.928,LearnStrategy,2023.2.3,MacIntel,60.97560976,5,1,5,-0.025194227,-0.007562358,1,0,0,1.1015,rock_grid_rect_2,2,14,-1,-1,1.102,0.386902669,-0.407302992,1,0,0,1.8718,Pumice_rect,8,1.872,0,4,0,4,0,1,,,,,,,,,,,,,
630386f64c5bbd56ab1c3b0f,TCN,2024-06-24_11h48.05.928,LearnStrategy,2023.2.3,MacIntel,60.97560976,5,1,6,-0.000218709,-0.005667759,1,0,0,1.135,rock_grid_rect_2,1,05,-1,-1,1.135,0.12937283,-0.2440212,1,0,0,3.4264,Diorite_rect,3,3.426,0,5,0,5,0,1,,,,,,,,,,,,,
630386f64c5bbd56ab1c3b0f,TCN,2024-06-24_11h48.05.928,LearnStrategy,2023.2.3,MacIntel,60.97560976,5,1,7,-0.058616401,0.001379123,1,0,0,1.2163,rock_grid_rect_2,4,05,-1,-1,1.216,-0.1080955,-0.405115289,1,0,0,2.6619,Pegmatite_rect,6,2.662,0,6,0,6,0,1,,,,,,,,,,,,,
630386f64c5bbd56ab1c3b0f,TCN,2024-06-24_11h48.05.928,LearnStrategy,2023.2.3,MacIntel,60.97560976,5,1,8,-0.078799438,-0.010455187,1,0,0,1.2336,rock_grid_rect_2,4,16,-1,-1,1.234,-0.119346178,-0.262788493,1,0,0,5.8326,Basalt_rect,2,5.833,0,7,0,7,0,1,,,,,,,,,,,,,
630386f64c5bbd56ab1c3b0f,TCN,2024-06-24_11h48.05.928,LearnStrategy,2023.2.3,MacIntel,60.97560976,5,1,9,-0.067447781,-0.018172302,1,0,0,1.2489,rock_grid_rect_2,3,06,-1,-1,1.249,0.088181424,-0.25854716,1,0,0,11.5215,Diorite_rect,3,11.522,1,8,0,8,0,1,,,,,,,,,,,,,
630386f64c5bbd56ab1c3b0f,TCN,2024-06-24_11h48.05.928,LearnStrategy,2023.2.3,MacIntel,60.97560976,5,1,10,-0.016101278,-0.007120565,1,0,0,1.2824,rock_grid_rect_2,5,10,-1,-1,1.282,-0.313116014,-0.385969713,1,0,0,2.2082,Obsidian_rect,5,2.208,1,9,0,9,0,1,,,,,,,,,,,,,
630386f64c5bbd56ab1c3b0f,TCN,2024-06-24_11h48.05.928,LearnStrategy,2023.2.3,MacIntel,60.97560976,5,1,11,-0.009975993,-2.37359E-06,1,0,0,1.3172,rock_grid_rect_2,1,04,-1,-1,1.317,-0.4502378,-0.270759481,1,0,0,2.9774,Andesite_rect,1,2.977,1,10,0,10,0,1,,,,,,,,,,,,,
630386f64c5bbd56ab1c3b0f,TCN,2024-06-24_11h48.05.928,LearnStrategy,2023.2.3,MacIntel,60.97560976,5,1,12,-0.040493028,-0.006659512,1,0,0,1.017,rock_grid_rect_2,5,04,-1,-1,1.017,-0.410655958,-0.417625529,1,0,0,1.5331,Obsidian_rect,5,1.533,1,11,0,11,0,1,,,,,,,,,,,,,
630386f64c5bbd56ab1c3b0f,TCN,2024-06-24_11h48.05.928,LearnStrategy,2023.2.3,MacIntel,60.97560976,5,1,13,-0.063480225,0.004468519,1,0,0,1.0007,rock_grid_rect_2,6,08,-1,-1,1.001,-0.119118517,-0.407676527,1,0,0,2.9838,Pegmatite_rect,6,2.984,1,12,0,12,0,1,,,,,,,,,,,,,
630386f64c5bbd56ab1c3b0f,TCN,2024-06-24_11h48.05.928,LearnStrategy,2023.2.3,MacIntel,60.97560976,5,1,14,-0.049094916,0.001821594,1,0,0,1.0675,rock_grid_rect_2,2,09,-1,-1,1.068,0.396900906,-0.239826321,1,0,0,2.8191,Gabbro_rect,4,2.819,0,13,0,13,0,1,,,,,,,,,,,,,
630386f64c5bbd56ab1c3b0f,TCN,2024-06-24_11h48.05.928,LearnStrategy,2023.2.3,MacIntel,60.97560976,5,1,15,0.027048543,0.009747281,1,0,0,1.1333,rock_grid_rect_2,8,16,-1,-1,1.133,0.367269558,-0.396926202,1,0,0,2.0968,Pumice_rect,8,2.097,1,14,0,14,0,1,,,,,,,,,,,,,
630386f64c5bbd56ab1c3b0f,TCN,2024-06-24_11h48.05.928,LearnStrategy,2023.2.3,MacIntel,60.97560976,5,1,16,-0.014308811,-0.006793959,1,0,0,1.2183,rock_grid_rect_2,7,16,-1,-1,1.218,-0.163262736,-0.407592706,1,0,0,4.5874,Pegmatite_rect,6,4.587,0,15,0,15,0,1,,,,,,,,,,,,,
630386f64c5bbd56ab1c3b0f,TCN,2024-06-24_11h48.05.928,LearnStrategy,2023.2.3,MacIntel,60.97560976,5,2,1,,,,,,,,6,12,,,,,,,,,,,6,8.144,1,,,,,,-0.196582031,-0.398445841,1,0,0,8.1443,Pegmatite_rect,0,0,0,0,1,
630386f64c5bbd56ab1c3b0f,TCN,2024-06-24_11h48.05.928,LearnStrategy,2023.2.3,MacIntel,60.97560976,5,2,2,,,,,,,,5,14,,,,,,,,,,,5,1.981,1,,,,,,-0.342045661,-0.399037408,1,0,0,1.9813,Obsidian_rect,1,0,1,0,1,
630386f64c5bbd56ab1c3b0f,TCN,2024-06-24_11h48.05.928,LearnStrategy,2023.2.3,MacIntel,60.97560976,5,2,3,,,,,,,,8,14,,,,,,,,,,,8,1.623,1,,,,,,0.438302138,-0.393642849,1,0,0,1.6235,Pumice_rect,2,0,2,0,1,
630386f64c5bbd56ab1c3b0f,TCN,2024-06-24_11h48.05.928,LearnStrategy,2023.2.3,MacIntel,60.97560976,5,2,4,,,,,,,,1,16,,,,,,,,,,,3,3.981,0,,,,,,0.097313097,-0.262928535,1,0,0,3.9815,Diorite_rect,3,0,3,0,1,
630386f64c5bbd56ab1c3b0f,TCN,2024-06-24_11h48.05.928,LearnStrategy,2023.2.3,MacIntel,60.97560976,5,2,5,,,,,,,,7,05,,,,,,,,,,,7,2.941,1,,,,,,0.14557746,-0.408753323,1,0,0,2.9413,Peridotite_rect,4,0,4,0,1,
630386f64c5bbd56ab1c3b0f,TCN,2024-06-24_11h48.05.928,LearnStrategy,2023.2.3,MacIntel,60.97560976,5,2,6,,,,,,,,6,16,,,,,,,,,,,1,4.578,0,,,,,,-0.357225579,-0.270578139,1,0,0,4.5779,Andesite_rect,5,0,5,0,1,
630386f64c5bbd56ab1c3b0f,TCN,2024-06-24_11h48.05.928,LearnStrategy,2023.2.3,MacIntel,60.97560976,5,2,7,,,,,,,,3,07,,,,,,,,,,,3,4.485,1,,,,,,0.178501655,-0.255401204,1,0,0,4.4851,Diorite_rect,6,0,6,0,1,
630386f64c5bbd56ab1c3b0f,TCN,2024-06-24_11h48.05.928,LearnStrategy,2023.2.3,MacIntel,60.97560976,5,2,8,,,,,,,,4,10,,,,,,,,,,,1,4.043,0,,,,,,-0.365287781,-0.245768975,1,0,0,4.0427,Andesite_rect,7,0,7,0,1,
630386f64c5bbd56ab1c3b0f,TCN,2024-06-24_11h48.05.928,LearnStrategy,2023.2.3,MacIntel,60.97560976,5,2,9,,,,,,,,8,04,,,,,,,,,,,8,1.402,1,,,,,,0.419049479,-0.392792833,1,0,0,1.4023,Pumice_rect,8,0,8,0,1,
630386f64c5bbd56ab1c3b0f,TCN,2024-06-24_11h48.05.928,LearnStrategy,2023.2.3,MacIntel,60.97560976,5,2,10,,,,,,,,5,07,,,,,,,,,,,5,2.457,1,,,,,,-0.413921882,-0.405067749,1,0,0,2.457,Obsidian_rect,9,0,9,0,1,
630386f64c5bbd56ab1c3b0f,TCN,2024-06-24_11h48.05.928,LearnStrategy,2023.2.3,MacIntel,60.97560976,5,2,11,,,,,,,,4,14,,,,,,,,,,,7,3.134,0,,,,,,0.059155884,-0.396456502,1,0,0,3.1337,Peridotite_rect,10,0,10,0,1,
630386f64c5bbd56ab1c3b0f,TCN,2024-06-24_11h48.05.928,LearnStrategy,2023.2.3,MacIntel,60.97560976,5,2,12,,,,,,,,3,14,,,,,,,,,,,3,3.29,1,,,,,,0.122769301,-0.243787231,1,0,0,3.2896,Diorite_rect,11,0,11,0,1,
630386f64c5bbd56ab1c3b0f,TCN,2024-06-24_11h48.05.928,LearnStrategy,2023.2.3,MacIntel,60.97560976,5,2,13,,,,,,,,1,07,,,,,,,,,,,3,1.849,0,,,,,,0.118569539,-0.237456665,1,0,0,1.8492,Diorite_rect,12,0,12,0,1,
630386f64c5bbd56ab1c3b0f,TCN,2024-06-24_11h48.05.928,LearnStrategy,2023.2.3,MacIntel,60.97560976,5,2,14,,,,,,,,2,10,,,,,,,,,,,1,4.22,0,,,,,,-0.389220852,-0.235347765,1,0,0,4.2201,Andesite_rect,13,0,13,0,1,
630386f64c5bbd56ab1c3b0f,TCN,2024-06-24_11h48.05.928,LearnStrategy,2023.2.3,MacIntel,60.97560976,5,2,15,,,,,,,,7,06,,,,,,,,,,,6,2.434,0,,,,,,-0.153845215,-0.383697645,1,0,0,2.4343,Pegmatite_rect,14,0,14,0,1,
630386f64c5bbd56ab1c3b0f,TCN,2024-06-24_11h48.05.928,LearnStrategy,2023.2.3,MacIntel,60.97560976,5,2,16,,,,,,,,2,08,,,,,,,,,,,2,1.645,1,,,,,,-0.157780965,-0.262417196,1,0,0,1.6447,Basalt_rect,15,0,15,0,1,
630386f64c5bbd56ab1c3b0f,TCN,2024-06-24_11h48.05.928,LearnStrategy,2023.2.3,MacIntel,60.97560976,6,1,1,-0.006389838,-0.010522732,1,0,0,19.5825,rock_grid_rect_2,1,09,-1,-1,19.582,-0.340985074,-0.266682129,1,0,0,54.4087,Andesite_rect,1,54.409,1,0,0,0,0,1,,,,,,,,,,,,,
630386f64c5bbd56ab1c3b0f,TCN,2024-06-24_11h48.05.928,LearnStrategy,2023.2.3,MacIntel,60.97560976,6,1,2,0.021273736,0.007636753,1,0,0,1.1874,rock_grid_rect_2,5,12,-1,-1,1.187,-0.409029236,-0.406753269,1,0,0,2.3579,Obsidian_rect,5,2.358,1,1,0,1,0,1,,,,,,,,,,,,,
630386f64c5bbd56ab1c3b0f,TCN,2024-06-24_11h48.05.928,LearnStrategy,2023.2.3,MacIntel,60.97560976,6,1,3,0.010328098,-0.008486057,1,0,0,1.0944,rock_grid_rect_2,2,04,-1,-1,1.094,-0.135985243,-0.25162028,1,0,0,4.7627,Basalt_rect,2,4.763,1,2,0,2,0,1,,,,,,,,,,,,,
630386f64c5bbd56ab1c3b0f,TCN,2024-06-24_11h48.05.928,LearnStrategy,2023.2.3,MacIntel,60.97560976,6,1,4,-0.01517863,-0.008898485,1,0,0,1.0509,rock_grid_rect_2,5,05,-1,-1,1.051,-0.378391893,-0.38334215,1,0,0,6.3631,Obsidian_rect,5,6.363,1,3,0,3,0,1,,,,,,,,,,,,,
630386f64c5bbd56ab1c3b0f,TCN,2024-06-24_11h48.05.928,LearnStrategy,2023.2.3,MacIntel,60.97560976,6,1,5,-0.04389723,-0.014008009,1,0,0,1.2166,rock_grid_rect_2,8,15,-1,-1,1.217,0.409734294,-0.390173069,1,0,0,1.4381,Pumice_rect,8,1.438,1,4,0,4,0,1,,,,,,,,,,,,,
630386f64c5bbd56ab1c3b0f,TCN,2024-06-24_11h48.05.928,LearnStrategy,2023.2.3,MacIntel,60.97560976,6,1,6,-0.049704997,-0.005557726,1,0,0,1.1845,rock_grid_rect_2,3,02,-1,-1,1.185,0.117725016,-0.254507243,1,0,0,4.7201,Diorite_rect,3,4.72,1,5,0,5,0,1,,,,,,,,,,,,,
630386f64c5bbd56ab1c3b0f,TCN,2024-06-24_11h48.05.928,LearnStrategy,2023.2.3,MacIntel,60.97560976,6,1,7,-0.022959934,-0.004015605,1,0,0,1.1509,rock_grid_rect_2,2,11,-1,-1,1.151,0.382250434,-0.399811198,1,0,0,1.5728,Pumice_rect,8,1.573,0,6,0,6,0,1,,,,,,,,,,,,,
630386f64c5bbd56ab1c3b0f,TCN,2024-06-24_11h48.05.928,LearnStrategy,2023.2.3,MacIntel,60.97560976,6,1,8,0.011640082,-0.001259562,1,0,0,1.1847,rock_grid_rect_2,6,05,-1,-1,1.185,-0.133296034,-0.388890991,1,0,0,5.628,Pegmatite_rect,6,5.628,1,7,0,7,0,1,,,,,,,,,,,,,
630386f64c5bbd56ab1c3b0f,TCN,2024-06-24_11h48.05.928,LearnStrategy,2023.2.3,MacIntel,60.97560976,6,1,9,-0.018121474,-0.004034831,1,0,0,1.7684,rock_grid_rect_2,4,09,-1,-1,1.768,-0.095251058,-0.237412448,1,0,0,3.0517,Basalt_rect,2,3.052,0,8,0,8,0,1,,,,,,,,,,,,,
630386f64c5bbd56ab1c3b0f,TCN,2024-06-24_11h48.05.928,LearnStrategy,2023.2.3,MacIntel,60.97560976,6,1,10,-0.029157172,-0.012981296,1,0,0,1.3671,rock_grid_rect_2,3,11,-1,-1,1.367,0.107944404,-0.238101603,1,0,0,6.7322,Diorite_rect,3,6.732,1,9,0,9,0,1,,,,,,,,,,,,,
630386f64c5bbd56ab1c3b0f,TCN,2024-06-24_11h48.05.928,LearnStrategy,2023.2.3,MacIntel,60.97560976,6,1,11,-0.008579644,-0.014132046,1,0,0,1.0827,rock_grid_rect_2,7,12,-1,-1,1.083,0.091789144,-0.415649482,1,0,0,5.2704,Peridotite_rect,7,5.27,1,10,0,10,0,1,,,,,,,,,,,,,
630386f64c5bbd56ab1c3b0f,TCN,2024-06-24_11h48.05.928,LearnStrategy,2023.2.3,MacIntel,60.97560976,6,1,12,-0.016766018,-0.009117669,1,0,0,1.0778,rock_grid_rect_2,8,10,-1,-1,1.078,0.408858643,-0.410702311,1,0,0,2.0792,Pumice_rect,8,2.079,1,11,0,11,0,1,,,,,,,,,,,,,
630386f64c5bbd56ab1c3b0f,TCN,2024-06-24_11h48.05.928,LearnStrategy,2023.2.3,MacIntel,60.97560976,6,1,13,-0.04592943,0.007086962,1,0,0,1.1966,rock_grid_rect_2,1,03,-1,-1,1.197,0.411331651,-0.261471829,1,0,0,18.2054,Gabbro_rect,4,18.205,0,12,0,12,0,1,,,,,,,,,,,,,
630386f64c5bbd56ab1c3b0f,TCN,2024-06-24_11h48.05.928,LearnStrategy,2023.2.3,MacIntel,60.97560976,6,1,14,-0.006050958,0.001977878,1,0,0,1.0157,rock_grid_rect_2,7,14,-1,-1,1.016,-0.094180366,-0.397909342,1,0,0,1.9758,Pegmatite_rect,6,1.976,0,13,0,13,0,1,,,,,,,,,,,,,
630386f64c5bbd56ab1c3b0f,TCN,2024-06-24_11h48.05.928,LearnStrategy,2023.2.3,MacIntel,60.97560976,6,1,15,-0.062262845,-0.001233046,1,0,0,1.1162,rock_grid_rect_2,6,10,-1,-1,1.116,-0.088987562,-0.40208842,1,0,0,1.6763,Pegmatite_rect,6,1.676,1,14,0,14,0,1,,,,,,,,,,,,,
630386f64c5bbd56ab1c3b0f,TCN,2024-06-24_11h48.05.928,LearnStrategy,2023.2.3,MacIntel,60.97560976,6,1,16,-0.095784166,0.005393914,1,0,0,1.1852,rock_grid_rect_2,4,01,-1,-1,1.185,0.395100776,-0.242815348,1,0,0,4.0575,Gabbro_rect,4,4.057,1,15,0,15,0,1,,,,,,,,,,,,,
630386f64c5bbd56ab1c3b0f,TCN,2024-06-24_11h48.05.928,LearnStrategy,2023.2.3,MacIntel,60.97560976,6,2,1,,,,,,,,1,10,,,,,,,,,,,8,2.076,0,,,,,,0.433327501,-0.410697496,1,0,0,2.0765,Pumice_rect,0,0,0,0,1,
630386f64c5bbd56ab1c3b0f,TCN,2024-06-24_11h48.05.928,LearnStrategy,2023.2.3,MacIntel,60.97560976,6,2,2,,,,,,,,3,10,,,,,,,,,,,3,2.339,1,,,,,,0.152524482,-0.251762967,1,0,0,2.3392,Diorite_rect,1,0,1,0,1,
630386f64c5bbd56ab1c3b0f,TCN,2024-06-24_11h48.05.928,LearnStrategy,2023.2.3,MacIntel,60.97560976,6,2,3,,,,,,,,7,15,,,,,,,,,,,7,2.84,1,,,,,,0.132512885,-0.405909288,1,0,0,2.84,Peridotite_rect,2,0,2,0,1,
630386f64c5bbd56ab1c3b0f,TCN,2024-06-24_11h48.05.928,LearnStrategy,2023.2.3,MacIntel,60.97560976,6,2,4,,,,,,,,8,09,,,,,,,,,,,8,1.252,1,,,,,,0.323498603,-0.40742296,1,0,0,1.2518,Pumice_rect,3,0,3,0,1,
630386f64c5bbd56ab1c3b0f,TCN,2024-06-24_11h48.05.928,LearnStrategy,2023.2.3,MacIntel,60.97560976,6,2,5,,,,,,,,8,03,,,,,,,,,,,8,1.712,1,,,,,,0.339693468,-0.40742296,1,0,0,1.7118,Pumice_rect,4,0,4,0,1,
630386f64c5bbd56ab1c3b0f,TCN,2024-06-24_11h48.05.928,LearnStrategy,2023.2.3,MacIntel,60.97560976,6,2,6,,,,,,,,1,01,,,,,,,,,,,4,4.155,0,,,,,,0.366620687,-0.243565199,1,0,0,4.1549,Gabbro_rect,5,0,5,0,1,
630386f64c5bbd56ab1c3b0f,TCN,2024-06-24_11h48.05.928,LearnStrategy,2023.2.3,MacIntel,60.97560976,6,2,7,,,,,,,,6,13,,,,,,,,,,,6,2.039,1,,,,,,-0.129500597,-0.412690769,1,0,0,2.0386,Pegmatite_rect,6,0,6,0,1,
630386f64c5bbd56ab1c3b0f,TCN,2024-06-24_11h48.05.928,LearnStrategy,2023.2.3,MacIntel,60.97560976,6,2,8,,,,,,,,5,06,,,,,,,,,,,5,1.698,1,,,,,,-0.395053677,-0.405307888,1,0,0,1.698,Obsidian_rect,7,0,7,0,1,
630386f64c5bbd56ab1c3b0f,TCN,2024-06-24_11h48.05.928,LearnStrategy,2023.2.3,MacIntel,60.97560976,6,2,9,,,,,,,,4,12,,,,,,,,,,,1,3.43,0,,,,,,-0.426574097,-0.230713501,1,0,0,3.4301,Andesite_rect,8,0,8,0,1,
630386f64c5bbd56ab1c3b0f,TCN,2024-06-24_11h48.05.928,LearnStrategy,2023.2.3,MacIntel,60.97560976,6,2,10,,,,,,,,5,08,,,,,,,,,,,5,2.214,1,,,,,,-0.384979384,-0.410382623,1,0,0,2.2144,Obsidian_rect,9,0,9,0,1,
630386f64c5bbd56ab1c3b0f,TCN,2024-06-24_11h48.05.928,LearnStrategy,2023.2.3,MacIntel,60.97560976,6,2,11,,,,,,,,3,16,,,,,,,,,,,3,3.177,1,,,,,,0.09652615,-0.251470879,1,0,0,3.1771,Diorite_rect,10,0,10,0,1,
630386f64c5bbd56ab1c3b0f,TCN,2024-06-24_11h48.05.928,LearnStrategy,2023.2.3,MacIntel,60.97560976,6,2,12,,,,,,,,7,02,,,,,,,,,,,6,2.777,0,,,,,,-0.116943902,-0.393527289,1,0,0,2.7773,Pegmatite_rect,11,0,11,0,1,
630386f64c5bbd56ab1c3b0f,TCN,2024-06-24_11h48.05.928,LearnStrategy,2023.2.3,MacIntel,60.97560976,6,2,13,,,,,,,,4,08,,,,,,,,,,,1,3.017,0,,,,,,-0.350955844,-0.242521227,1,0,0,3.017,Andesite_rect,12,0,12,0,1,
630386f64c5bbd56ab1c3b0f,TCN,2024-06-24_11h48.05.928,LearnStrategy,2023.2.3,MacIntel,60.97560976,6,2,14,,,,,,,,6,11,,,,,,,,,,,6,2.136,1,,,,,,-0.059522841,-0.404828559,1,0,0,2.1361,Pegmatite_rect,13,0,13,0,1,
630386f64c5bbd56ab1c3b0f,TCN,2024-06-24_11h48.05.928,LearnStrategy,2023.2.3,MacIntel,60.97560976,6,2,15,,,,,,,,2,06,,,,,,,,,,,2,1.318,1,,,,,,-0.120810072,-0.260376655,1,0,0,1.3183,Basalt_rect,14,0,14,0,1,
630386f64c5bbd56ab1c3b0f,TCN,2024-06-24_11h48.05.928,LearnStrategy,2023.2.3,MacIntel,60.97560976,6,2,16,,,,,,,,2,16,,,,,,,,,,,8,6.292,0,,,,,,0.356089545,-0.386151869,1,0,0,6.2924,Pumice_rect,15,0,15,0,1,
630386f64c5bbd56ab1c3b0f,TCN,2024-06-24_11h48.05.928,LearnStrategy,2023.2.3,MacIntel,60.97560976,7,1,1,-0.015422567,0.005431112,1,0,0,1.2679,rock_grid_rect_2,2,05,-1,-1,1.268,-0.152590332,-0.260069444,1,0,0,3.3473,Basalt_rect,2,3.347,1,0,0,0,0,1,,,,,,,,,,,,,
630386f64c5bbd56ab1c3b0f,TCN,2024-06-24_11h48.05.928,LearnStrategy,2023.2.3,MacIntel,60.97560976,7,1,2,-0.040484687,-0.009599779,1,0,0,1.3515,rock_grid_rect_2,8,16,-1,-1,1.351,0.408431939,-0.410339084,1,0,0,1.2805,Pumice_rect,8,1.281,1,1,0,1,0,1,,,,,,,,,,,,,
630386f64c5bbd56ab1c3b0f,TCN,2024-06-24_11h48.05.928,LearnStrategy,2023.2.3,MacIntel,60.97560976,7,1,3,-0.009024387,-0.000323554,1,0,0,1.1001,rock_grid_rect_2,3,12,-1,-1,1.1,0.11706231,-0.242262099,1,0,0,6.6602,Diorite_rect,3,6.66,1,2,0,2,0,1,,,,,,,,,,,,,
630386f64c5bbd56ab1c3b0f,TCN,2024-06-24_11h48.05.928,LearnStrategy,2023.2.3,MacIntel,60.97560976,7,1,4,-0.021325819,-0.005327962,1,0,0,1.1332,rock_grid_rect_2,4,05,-1,-1,1.133,-0.395443014,-0.255810276,1,0,0,4.7344,Andesite_rect,1,4.734,0,3,0,3,0,1,,,,,,,,,,,,,
630386f64c5bbd56ab1c3b0f,TCN,2024-06-24_11h48.05.928,LearnStrategy,2023.2.3,MacIntel,60.97560976,7,1,5,-0.044574653,-0.010936957,1,0,0,1.1849,rock_grid_rect_2,1,04,-1,-1,1.185,-0.115761922,-0.395645345,1,0,0,5.5922,Pegmatite_rect,6,5.592,0,4,0,4,0,1,,,,,,,,,,,,,
630386f64c5bbd56ab1c3b0f,TCN,2024-06-24_11h48.05.928,LearnStrategy,2023.2.3,MacIntel,60.97560976,7,1,6,-0.078276706,0.005332743,1,0,0,1.2672,rock_grid_rect_2,3,06,-1,-1,1.267,0.144765422,-0.396956991,1,0,0,5.2766,Peridotite_rect,7,5.277,0,5,0,5,0,1,,,,,,,,,,,,,
630386f64c5bbd56ab1c3b0f,TCN,2024-06-24_11h48.05.928,LearnStrategy,2023.2.3,MacIntel,60.97560976,7,1,7,0.00390998,-0.008501587,1,0,0,1.1331,rock_grid_rect_2,6,05,-1,-1,1.133,-0.138994005,-0.393411458,1,0,0,1.7868,Pegmatite_rect,6,1.787,1,6,0,6,0,1,,,,,,,,,,,,,
630386f64c5bbd56ab1c3b0f,TCN,2024-06-24_11h48.05.928,LearnStrategy,2023.2.3,MacIntel,60.97560976,7,1,8,-0.075442708,-0.007664761,1,0,0,1.0832,rock_grid_rect_2,7,10,-1,-1,1.083,0.113636882,-0.395112508,1,0,0,1.5103,Peridotite_rect,7,1.51,1,7,0,7,0,1,,,,,,,,,,,,,
630386f64c5bbd56ab1c3b0f,TCN,2024-06-24_11h48.05.928,LearnStrategy,2023.2.3,MacIntel,60.97560976,7,1,9,-0.056365017,-0.020906542,1,0,0,1.1667,rock_grid_rect_2,7,08,-1,-1,1.167,0.116535712,-0.414221598,1,0,0,1.6304,Peridotite_rect,7,1.63,1,8,0,8,0,1,,,,,,,,,,,,,
630386f64c5bbd56ab1c3b0f,TCN,2024-06-24_11h48.05.928,LearnStrategy,2023.2.3,MacIntel,60.97560976,7,1,10,-0.000569865,-0.005354513,1,0,0,1.033,rock_grid_rect_2,4,01,-1,-1,1.033,-0.189148966,-0.410718452,1,0,0,2.8867,Pegmatite_rect,6,2.887,0,9,0,9,0,1,,,,,,,,,,,,,
630386f64c5bbd56ab1c3b0f,TCN,2024-06-24_11h48.05.928,LearnStrategy,2023.2.3,MacIntel,60.97560976,7,1,11,-0.077294312,-0.011747064,1,0,0,1.1005,rock_grid_rect_2,1,06,-1,-1,1.1,-0.348642985,-0.241118571,1,0,0,2.3232,Andesite_rect,1,2.323,1,10,0,10,0,1,,,,,,,,,,,,,
630386f64c5bbd56ab1c3b0f,TCN,2024-06-24_11h48.05.928,LearnStrategy,2023.2.3,MacIntel,60.97560976,7,1,12,-0.070374959,-0.003704597,1,0,0,1.5345,rock_grid_rect_2,2,04,-1,-1,1.534,-0.159657796,-0.250221897,1,0,0,1.3581,Basalt_rect,2,1.358,1,11,0,11,0,1,,,,,,,,,,,,,
630386f64c5bbd56ab1c3b0f,TCN,2024-06-24_11h48.05.928,LearnStrategy,2023.2.3,MacIntel,60.97560976,7,1,13,-0.044112413,-0.011385091,1,0,0,1.1511,rock_grid_rect_2,8,15,-1,-1,1.151,0.358998345,-0.405613675,1,0,0,1.5996,Pumice_rect,8,1.6,1,12,0,12,0,1,,,,,,,,,,,,,
630386f64c5bbd56ab1c3b0f,TCN,2024-06-24_11h48.05.928,LearnStrategy,2023.2.3,MacIntel,60.97560976,7,1,14,0.001672228,-0.011924744,1,0,0,1.1848,rock_grid_rect_2,5,04,-1,-1,1.185,-0.393196615,-0.404431898,1,0,0,1.6279,Obsidian_rect,5,1.628,1,13,0,13,0,1,,,,,,,,,,,,,
630386f64c5bbd56ab1c3b0f,TCN,2024-06-24_11h48.05.928,LearnStrategy,2023.2.3,MacIntel,60.97560976,7,1,15,-0.030636393,0.001250949,1,0,0,0.9847,rock_grid_rect_2,5,12,-1,-1,0.985,-0.3892217,-0.398451674,1,0,0,1.4819,Obsidian_rect,5,1.482,1,14,0,14,0,1,,,,,,,,,,,,,
630386f64c5bbd56ab1c3b0f,TCN,2024-06-24_11h48.05.928,LearnStrategy,2023.2.3,MacIntel,60.97560976,7,1,16,-0.010165066,0.000265876,1,0,0,0.9668,rock_grid_rect_2,6,08,-1,-1,0.967,-0.131299099,-0.39737203,1,0,0,1.814,Pegmatite_rect,6,1.814,1,15,0,15,0,1,,,,,,,,,,,,,
630386f64c5bbd56ab1c3b0f,TCN,2024-06-24_11h48.05.928,LearnStrategy,2023.2.3,MacIntel,60.97560976,7,2,1,,,,,,,,6,16,,,,,,,,,,,6,3.497,1,,,,,,-0.115822347,-0.396907891,1,0,0,3.4973,Pegmatite_rect,0,0,0,0,1,
630386f64c5bbd56ab1c3b0f,TCN,2024-06-24_11h48.05.928,LearnStrategy,2023.2.3,MacIntel,60.97560976,7,2,2,,,,,,,,1,01,,,,,,,,,,,3,2.453,0,,,,,,0.186923828,-0.23077535,1,0,0,2.4531,Diorite_rect,1,0,1,0,1,
630386f64c5bbd56ab1c3b0f,TCN,2024-06-24_11h48.05.928,LearnStrategy,2023.2.3,MacIntel,60.97560976,7,2,3,,,,,,,,5,11,,,,,,,,,,,5,1.715,1,,,,,,-0.356789551,-0.409819472,1,0,0,1.7146,Obsidian_rect,2,0,2,0,1,
630386f64c5bbd56ab1c3b0f,TCN,2024-06-24_11h48.05.928,LearnStrategy,2023.2.3,MacIntel,60.97560976,7,2,4,,,,,,,,4,12,,,,,,,,,,,1,3.321,0,,,,,,-0.434812826,-0.258217773,1,0,0,3.3214,Andesite_rect,3,0,3,0,1,
630386f64c5bbd56ab1c3b0f,TCN,2024-06-24_11h48.05.928,LearnStrategy,2023.2.3,MacIntel,60.97560976,7,2,5,,,,,,,,5,08,,,,,,,,,,,5,1.92,1,,,,,,-0.363002625,-0.403140327,1,0,0,1.9204,Obsidian_rect,4,0,4,0,1,
630386f64c5bbd56ab1c3b0f,TCN,2024-06-24_11h48.05.928,LearnStrategy,2023.2.3,MacIntel,60.97560976,7,2,6,,,,,,,,2,10,,,,,,,,,,,7,4.819,0,,,,,,0.084540744,-0.404524468,1,0,0,4.8194,Peridotite_rect,5,0,5,0,1,
630386f64c5bbd56ab1c3b0f,TCN,2024-06-24_11h48.05.928,LearnStrategy,2023.2.3,MacIntel,60.97560976,7,2,7,,,,,,,,4,14,,,,,,,,,,,3,5.963,0,,,,,,0.110174764,-0.252910495,1,0,0,5.9629,Diorite_rect,6,0,6,0,1,
630386f64c5bbd56ab1c3b0f,TCN,2024-06-24_11h48.05.928,LearnStrategy,2023.2.3,MacIntel,60.97560976,7,2,8,,,,,,,,7,13,,,,,,,,,,,6,1.712,0,,,,,,-0.112504544,-0.401276109,1,0,0,1.7116,Pegmatite_rect,7,0,7,0,1,
630386f64c5bbd56ab1c3b0f,TCN,2024-06-24_11h48.05.928,LearnStrategy,2023.2.3,MacIntel,60.97560976,7,2,9,,,,,,,,3,07,,,,,,,,,,,3,3.461,1,,,,,,0.102501356,-0.248110691,1,0,0,3.4609,Diorite_rect,8,0,8,0,1,
630386f64c5bbd56ab1c3b0f,TCN,2024-06-24_11h48.05.928,LearnStrategy,2023.2.3,MacIntel,60.97560976,7,2,10,,,,,,,,7,05,,,,,,,,,,,6,3.288,0,,,,,,-0.141928914,-0.405825602,1,0,0,3.2877,Pegmatite_rect,9,0,9,0,1,
630386f64c5bbd56ab1c3b0f,TCN,2024-06-24_11h48.05.928,LearnStrategy,2023.2.3,MacIntel,60.97560976,7,2,11,,,,,,,,3,08,,,,,,,,,,,3,1.797,1,,,,,,0.100672947,-0.24500746,1,0,0,1.7972,Diorite_rect,10,0,10,0,1,
630386f64c5bbd56ab1c3b0f,TCN,2024-06-24_11h48.05.928,LearnStrategy,2023.2.3,MacIntel,60.97560976,7,2,12,,,,,,,,6,07,,,,,,,,,,,6,1.993,1,,,,,,-0.150985853,-0.418305935,1,0,0,1.9931,Pegmatite_rect,11,0,11,0,1,
630386f64c5bbd56ab1c3b0f,TCN,2024-06-24_11h48.05.928,LearnStrategy,2023.2.3,MacIntel,60.97560976,7,2,13,,,,,,,,8,05,,,,,,,,,,,8,1.468,1,,,,,,0.38407525,-0.387398885,1,0,0,1.4678,Pumice_rect,12,0,12,0,1,
630386f64c5bbd56ab1c3b0f,TCN,2024-06-24_11h48.05.928,LearnStrategy,2023.2.3,MacIntel,60.97560976,7,2,14,,,,,,,,2,01,,,,,,,,,,,2,1.379,1,,,,,,-0.138394097,-0.249230143,1,0,0,1.3787,Basalt_rect,13,0,13,0,1,
630386f64c5bbd56ab1c3b0f,TCN,2024-06-24_11h48.05.928,LearnStrategy,2023.2.3,MacIntel,60.97560976,7,2,15,,,,,,,,1,07,,,,,,,,,,,3,2.207,0,,,,,,0.152022366,-0.25107171,1,0,0,2.2071,Diorite_rect,14,0,14,0,1,
630386f64c5bbd56ab1c3b0f,TCN,2024-06-24_11h48.05.928,LearnStrategy,2023.2.3,MacIntel,60.97560976,7,2,16,,,,,,,,8,14,,,,,,,,,,,8,1.094,1,,,,,,0.361601562,-0.39833964,1,0,0,1.0936,Pumice_rect,15,0,15,0,1,
630386f64c5bbd56ab1c3b0f,TCN,2024-06-24_11h48.05.928,LearnStrategy,2023.2.3,MacIntel,60.97560976,8,1,1,0.021375258,0.012357992,1,0,0,2.0859,rock_grid_rect_2,4,09,-1,-1,2.086,-0.365083076,-0.406953328,1,0,0,5.0069,Obsidian_rect,5,5.007,0,0,0,0,0,1,,,,,,,,,,,,,
630386f64c5bbd56ab1c3b0f,TCN,2024-06-24_11h48.05.928,LearnStrategy,2023.2.3,MacIntel,60.97560976,8,1,2,-0.08473938,-0.021612922,1,0,0,1.15,rock_grid_rect_2,2,14,-1,-1,1.15,0.4232685,-0.415758464,1,0,0,1.5293,Pumice_rect,8,1.529,0,1,0,1,0,1,,,,,,,,,,,,,
630386f64c5bbd56ab1c3b0f,TCN,2024-06-24_11h48.05.928,LearnStrategy,2023.2.3,MacIntel,60.97560976,8,1,3,0.023883464,-0.003548313,1,0,0,1.0345,rock_grid_rect_2,4,15,-1,-1,1.034,0.068194173,-0.268975355,1,0,0,2.5317,Diorite_rect,3,2.532,0,2,0,2,0,1,,,,,,,,,,,,,
630386f64c5bbd56ab1c3b0f,TCN,2024-06-24_11h48.05.928,LearnStrategy,2023.2.3,MacIntel,60.97560976,8,1,4,-0.008302544,0.017163052,1,0,0,0.9665,rock_grid_rect_2,8,13,-1,-1,0.966,0.374483778,-0.419501885,1,0,0,1.3642,Pumice_rect,8,1.364,1,3,0,3,0,1,,,,,,,,,,,,,
630386f64c5bbd56ab1c3b0f,TCN,2024-06-24_11h48.05.928,LearnStrategy,2023.2.3,MacIntel,60.97560976,8,1,5,-0.016176893,0.001366102,1,0,0,1.0839,rock_grid_rect_2,7,14,-1,-1,1.084,-0.109072944,-0.404624295,1,0,0,2.2619,Pegmatite_rect,6,2.262,0,4,0,4,0,1,,,,,,,,,,,,,
630386f64c5bbd56ab1c3b0f,TCN,2024-06-24_11h48.05.928,LearnStrategy,2023.2.3,MacIntel,60.97560976,8,1,6,-0.063364665,0.000760498,1,0,0,1.1847,rock_grid_rect_2,3,02,-1,-1,1.185,0.089083794,-0.256450806,1,0,0,2.8499,Diorite_rect,3,2.85,1,5,0,5,0,1,,,,,,,,,,,,,
630386f64c5bbd56ab1c3b0f,TCN,2024-06-24_11h48.05.928,LearnStrategy,2023.2.3,MacIntel,60.97560976,8,1,7,-0.064026015,0.007351854,1,0,0,1.0512,rock_grid_rect_2,7,16,-1,-1,1.051,-0.119250827,-0.387692329,1,0,0,1.445,Pegmatite_rect,6,1.445,0,6,0,6,0,1,,,,,,,,,,,,,
630386f64c5bbd56ab1c3b0f,TCN,2024-06-24_11h48.05.928,LearnStrategy,2023.2.3,MacIntel,60.97560976,8,1,8,-0.045220608,-0.004503818,1,0,0,1.1014,rock_grid_rect_2,6,10,-1,-1,1.101,-0.106660428,-0.41538859,1,0,0,2.1814,Pegmatite_rect,6,2.181,1,7,0,7,0,1,,,,,,,,,,,,,
630386f64c5bbd56ab1c3b0f,TCN,2024-06-24_11h48.05.928,LearnStrategy,2023.2.3,MacIntel,60.97560976,8,1,9,-0.078415527,0.00285397,1,0,0,1.0999,rock_grid_rect_2,5,16,-1,-1,1.1,-0.3687284,-0.399348958,1,0,0,1.6972,Obsidian_rect,5,1.697,1,8,0,8,0,1,,,,,,,,,,,,,
630386f64c5bbd56ab1c3b0f,TCN,2024-06-24_11h48.05.928,LearnStrategy,2023.2.3,MacIntel,60.97560976,8,1,10,-0.045589396,-0.005124105,1,0,0,1.0187,rock_grid_rect_2,5,05,-1,-1,1.019,-0.359388529,-0.383130832,1,0,0,1.4968,Obsidian_rect,5,1.497,1,9,0,9,0,1,,,,,,,,,,,,,
630386f64c5bbd56ab1c3b0f,TCN,2024-06-24_11h48.05.928,LearnStrategy,2023.2.3,MacIntel,60.97560976,8,1,11,0.015237359,0.002857293,1,0,0,1.1841,rock_grid_rect_2,3,09,-1,-1,1.184,0.136251017,-0.251549886,1,0,0,2.9419,Diorite_rect,3,2.942,1,10,0,10,0,1,,,,,,,,,,,,,
630386f64c5bbd56ab1c3b0f,TCN,2024-06-24_11h48.05.928,LearnStrategy,2023.2.3,MacIntel,60.97560976,8,1,12,-0.016835666,-0.003087836,1,0,0,1.0837,rock_grid_rect_2,2,09,-1,-1,1.084,-0.09021837,-0.260355157,1,0,0,1.3456,Basalt_rect,2,1.346,1,11,0,11,0,1,,,,,,,,,,,,,
630386f64c5bbd56ab1c3b0f,TCN,2024-06-24_11h48.05.928,LearnStrategy,2023.2.3,MacIntel,60.97560976,8,1,13,-0.006000773,-0.010265062,1,0,0,0.9834,rock_grid_rect_2,1,09,-1,-1,0.983,0.324080539,-0.261582574,1,0,0,1.9185,Gabbro_rect,4,1.918,0,12,0,12,0,1,,,,,,,,,,,,,
630386f64c5bbd56ab1c3b0f,TCN,2024-06-24_11h48.05.928,LearnStrategy,2023.2.3,MacIntel,60.97560976,8,1,14,-0.061723362,4.30637E-05,1,0,0,1.0834,rock_grid_rect_2,1,11,-1,-1,1.083,0.365108778,-0.232591078,1,0,0,2.2155,Gabbro_rect,4,2.216,0,13,0,13,0,1,,,,,,,,,,,,,
630386f64c5bbd56ab1c3b0f,TCN,2024-06-24_11h48.05.928,LearnStrategy,2023.2.3,MacIntel,60.97560976,8,1,15,-0.062177802,-0.000454305,1,0,0,1.051,rock_grid_rect_2,6,15,-1,-1,1.051,-0.113605889,-0.421175944,1,0,0,1.1934,Pegmatite_rect,6,1.193,1,14,0,14,0,1,,,,,,,,,,,,,
630386f64c5bbd56ab1c3b0f,TCN,2024-06-24_11h48.05.928,LearnStrategy,2023.2.3,MacIntel,60.97560976,8,1,16,-0.088253784,-0.002933621,1,0,0,1.0837,rock_grid_rect_2,8,06,-1,-1,1.084,0.390610623,-0.402850477,1,0,0,1.3971,Pumice_rect,8,1.397,1,15,0,15,0,1,,,,,,,,,,,,,
630386f64c5bbd56ab1c3b0f,TCN,2024-06-24_11h48.05.928,LearnStrategy,2023.2.3,MacIntel,60.97560976,8,2,1,,,,,,,,4,11,,,,,,,,,,,1,6.156,0,,,,,,-0.409618191,-0.249416911,1,0,0,6.1562,Andesite_rect,0,0,0,0,1,
630386f64c5bbd56ab1c3b0f,TCN,2024-06-24_11h48.05.928,LearnStrategy,2023.2.3,MacIntel,60.97560976,8,2,2,,,,,,,,2,02,,,,,,,,,,,2,2.256,1,,,,,,-0.127263251,-0.258135986,1,0,0,2.2565,Basalt_rect,1,0,1,0,1,
630386f64c5bbd56ab1c3b0f,TCN,2024-06-24_11h48.05.928,LearnStrategy,2023.2.3,MacIntel,60.97560976,8,2,3,,,,,,,,1,16,,,,,,,,,,,3,1.484,0,,,,,,0.143931817,-0.264906413,1,0,0,1.4836,Diorite_rect,2,0,2,0,1,
630386f64c5bbd56ab1c3b0f,TCN,2024-06-24_11h48.05.928,LearnStrategy,2023.2.3,MacIntel,60.97560976,8,2,4,,,,,,,,7,04,,,,,,,,,,,6,1.395,0,,,,,,-0.061860826,-0.400858968,1,0,0,1.3947,Pegmatite_rect,3,0,3,0,1,
630386f64c5bbd56ab1c3b0f,TCN,2024-06-24_11h48.05.928,LearnStrategy,2023.2.3,MacIntel,60.97560976,8,2,5,,,,,,,,4,08,,,,,,,,,,,1,3.707,0,,,,,,-0.334988437,-0.244310371,1,0,0,3.7065,Andesite_rect,4,0,4,0,1,
630386f64c5bbd56ab1c3b0f,TCN,2024-06-24_11h48.05.928,LearnStrategy,2023.2.3,MacIntel,60.97560976,8,2,6,,,,,,,,6,09,,,,,,,,,,,6,1.442,1,,,,,,-0.207307468,-0.402350328,1,0,0,1.4416,Pegmatite_rect,5,0,5,0,1,
630386f64c5bbd56ab1c3b0f,TCN,2024-06-24_11h48.05.928,LearnStrategy,2023.2.3,MacIntel,60.97560976,8,2,7,,,,,,,,5,09,,,,,,,,,,,5,1.745,1,,,,,,-0.337923787,-0.399053006,1,0,0,1.7446,Obsidian_rect,6,0,6,0,1,
630386f64c5bbd56ab1c3b0f,TCN,2024-06-24_11h48.05.928,LearnStrategy,2023.2.3,MacIntel,60.97560976,8,2,8,,,,,,,,3,10,,,,,,,,,,,3,1.729,1,,,,,,0.147010634,-0.261732449,1,0,0,1.7295,Diorite_rect,7,0,7,0,1,
630386f64c5bbd56ab1c3b0f,TCN,2024-06-24_11h48.05.928,LearnStrategy,2023.2.3,MacIntel,60.97560976,8,2,9,,,,,,,,8,04,,,,,,,,,,,8,1.165,1,,,,,,0.364540337,-0.388472561,1,0,0,1.1647,Pumice_rect,8,0,8,0,1,
630386f64c5bbd56ab1c3b0f,TCN,2024-06-24_11h48.05.928,LearnStrategy,2023.2.3,MacIntel,60.97560976,8,2,10,,,,,,,,2,06,,,,,,,,,,,2,1.149,1,,,,,,-0.082855632,-0.261854858,1,0,0,1.149,Basalt_rect,9,0,9,0,1,
630386f64c5bbd56ab1c3b0f,TCN,2024-06-24_11h48.05.928,LearnStrategy,2023.2.3,MacIntel,60.97560976,8,2,11,,,,,,,,5,07,,,,,,,,,,,5,1.255,1,,,,,,-0.340118781,-0.386286892,1,0,0,1.2547,Obsidian_rect,10,0,10,0,1,
630386f64c5bbd56ab1c3b0f,TCN,2024-06-24_11h48.05.928,LearnStrategy,2023.2.3,MacIntel,60.97560976,8,2,12,,,,,,,,3,16,,,,,,,,,,,3,1.418,1,,,,,,0.073477851,-0.244516127,1,0,0,1.4178,Diorite_rect,11,0,11,0,1,
630386f64c5bbd56ab1c3b0f,TCN,2024-06-24_11h48.05.928,LearnStrategy,2023.2.3,MacIntel,60.97560976,8,2,13,,,,,,,,7,06,,,,,,,,,,,7,3.003,1,,,,,,0.095187853,-0.402698432,1,0,0,3.0029,Peridotite_rect,12,0,12,0,1,
630386f64c5bbd56ab1c3b0f,TCN,2024-06-24_11h48.05.928,LearnStrategy,2023.2.3,MacIntel,60.97560976,8,2,14,,,,,,,,8,08,,,,,,,,,,,8,1.526,1,,,,,,0.368712294,-0.389334581,1,0,0,1.5263,Pumice_rect,13,0,13,0,1,
630386f64c5bbd56ab1c3b0f,TCN,2024-06-24_11h48.05.928,LearnStrategy,2023.2.3,MacIntel,60.97560976,8,2,15,,,,,,,,6,12,,,,,,,,,,,6,4.221,1,,,,,,-0.09631368,-0.411279093,1,0,0,4.2209,Pegmatite_rect,14,0,14,0,1,
630386f64c5bbd56ab1c3b0f,TCN,2024-06-24_11h48.05.928,LearnStrategy,2023.2.3,MacIntel,60.97560976,8,2,16,,,,,,,,1,14,,,,,,,,,,,8,6.225,0,,,,,,0.385431858,-0.405598416,1,0,0,6.2246,Pumice_rect,15,0,15,0,1,
630386f64c5bbd56ab1c3b0f,TCN,2024-06-24_11h48.05.928,LearnStrategy,2023.2.3,MacIntel,60.97560976,9,1,1,-0.029566176,-0.006253866,1,0,0,1.1339,rock_grid_rect_2,4,16,-1,-1,1.134,-0.448870307,-0.228546821,1,0,0,2.3679,Andesite_rect,1,2.368,0,0,0,0,0,1,,,,,,,,,,,,,
630386f64c5bbd56ab1c3b0f,TCN,2024-06-24_11h48.05.928,LearnStrategy,2023.2.3,MacIntel,60.97560976,9,1,2,-0.024284465,0.00218021,1,0,0,1.1872,rock_grid_rect_2,2,11,-1,-1,1.187,0.350297987,-0.404082167,1,0,0,1.4084,Pumice_rect,8,1.408,0,1,0,1,0,1,,,,,,,,,,,,,
630386f64c5bbd56ab1c3b0f,TCN,2024-06-24_11h48.05.928,LearnStrategy,2023.2.3,MacIntel,60.97560976,9,1,3,-0.056028171,-0.005234545,1,0,0,1.0509,rock_grid_rect_2,6,06,-1,-1,1.051,-0.111541884,-0.412736274,1,0,0,2.5694,Pegmatite_rect,6,2.569,1,2,0,2,0,1,,,,,,,,,,,,,
630386f64c5bbd56ab1c3b0f,TCN,2024-06-24_11h48.05.928,LearnStrategy,2023.2.3,MacIntel,60.97560976,9,1,4,-0.04401374,0.015604248,1,0,0,1.2344,rock_grid_rect_2,6,03,-1,-1,1.234,-0.091191745,-0.394095323,1,0,0,2.162,Pegmatite_rect,6,2.162,1,3,0,3,0,1,,,,,,,,,,,,,
630386f64c5bbd56ab1c3b0f,TCN,2024-06-24_11h48.05.928,LearnStrategy,2023.2.3,MacIntel,60.97560976,9,1,5,-0.059810723,0.010126682,1,0,0,1.0895,rock_grid_rect_2,3,15,-1,-1,1.09,0.067015516,-0.257093099,1,0,0,1.3732,Diorite_rect,3,1.373,1,4,0,4,0,1,,,,,,,,,,,,,
630386f64c5bbd56ab1c3b0f,TCN,2024-06-24_11h48.05.928,LearnStrategy,2023.2.3,MacIntel,60.97560976,9,1,6,-0.028627658,-0.005472921,1,0,0,0.8992,rock_grid_rect_2,1,05,-1,-1,0.899,0.124313626,-0.24170478,1,0,0,1.5688,Diorite_rect,3,1.569,0,5,0,5,0,1,,,,,,,,,,,,,
630386f64c5bbd56ab1c3b0f,TCN,2024-06-24_11h48.05.928,LearnStrategy,2023.2.3,MacIntel,60.97560976,9,1,7,-0.030260552,-0.012595486,1,0,0,1.1331,rock_grid_rect_2,5,02,-1,-1,1.133,-0.373939514,-0.395963949,1,0,0,1.4122,Obsidian_rect,5,1.412,1,6,0,6,0,1,,,,,,,,,,,,,
630386f64c5bbd56ab1c3b0f,TCN,2024-06-24_11h48.05.928,LearnStrategy,2023.2.3,MacIntel,60.97560976,9,1,8,-0.083071153,0.023104214,1,0,0,0.9323,rock_grid_rect_2,4,03,-1,-1,0.932,0.122095744,-0.244270087,1,0,0,3.6516,Diorite_rect,3,3.652,0,7,0,7,0,1,,,,,,,,,,,,,
630386f64c5bbd56ab1c3b0f,TCN,2024-06-24_11h48.05.928,LearnStrategy,2023.2.3,MacIntel,60.97560976,9,1,9,-0.014797974,-0.009453498,1,0,0,0.9831,rock_grid_rect_2,7,07,-1,-1,0.983,0.109132351,-0.405639988,1,0,0,2.1469,Peridotite_rect,7,2.147,1,8,0,8,0,1,,,,,,,,,,,,,
630386f64c5bbd56ab1c3b0f,TCN,2024-06-24_11h48.05.928,LearnStrategy,2023.2.3,MacIntel,60.97560976,9,1,10,-0.004062229,-0.006026645,1,0,0,0.9341,rock_grid_rect_2,2,12,-1,-1,0.934,0.387803413,-0.412915446,1,0,0,2.2338,Pumice_rect,8,2.234,0,9,0,9,0,1,,,,,,,,,,,,,
630386f64c5bbd56ab1c3b0f,TCN,2024-06-24_11h48.05.928,LearnStrategy,2023.2.3,MacIntel,60.97560976,9,1,11,-0.017647976,0.004887899,1,0,0,2.2545,rock_grid_rect_2,8,10,-1,-1,2.255,0.3866824,-0.396647881,1,0,0,1.6255,Pumice_rect,8,1.626,1,10,0,10,0,1,,,,,,,,,,,,,
630386f64c5bbd56ab1c3b0f,TCN,2024-06-24_11h48.05.928,LearnStrategy,2023.2.3,MacIntel,60.97560976,9,1,12,0.00811259,0.004851888,1,0,0,1.0339,rock_grid_rect_2,5,10,-1,-1,1.034,-0.345089518,-0.395678779,1,0,0,2.8392,Obsidian_rect,5,2.839,1,11,0,11,0,1,,,,,,,,,,,,,
630386f64c5bbd56ab1c3b0f,TCN,2024-06-24_11h48.05.928,LearnStrategy,2023.2.3,MacIntel,60.97560976,9,1,13,-0.095175103,-0.010768365,1,0,0,0.8989,rock_grid_rect_2,7,12,-1,-1,0.899,0.140603977,-0.396546631,1,0,0,2.3855,Peridotite_rect,7,2.386,1,12,0,12,0,1,,,,,,,,,,,,,
630386f64c5bbd56ab1c3b0f,TCN,2024-06-24_11h48.05.928,LearnStrategy,2023.2.3,MacIntel,60.97560976,9,1,14,0.000457764,-0.002592604,1,0,0,1.8847,rock_grid_rect_2,8,02,-1,-1,1.885,0.420558539,-0.420171577,1,0,0,3.5211,Pumice_rect,8,3.521,1,13,0,13,0,1,,,,,,,,,,,,,
630386f64c5bbd56ab1c3b0f,TCN,2024-06-24_11h48.05.928,LearnStrategy,2023.2.3,MacIntel,60.97560976,9,1,15,0.032391832,0.008420308,1,0,0,0.8997,rock_grid_rect_2,1,03,-1,-1,0.9,-0.364781325,-0.252372911,1,0,0,2.8505,Andesite_rect,1,2.851,1,14,0,14,0,1,,,,,,,,,,,,,
630386f64c5bbd56ab1c3b0f,TCN,2024-06-24_11h48.05.928,LearnStrategy,2023.2.3,MacIntel,60.97560976,9,1,16,0.033647597,-0.006830004,1,0,0,0.9168,rock_grid_rect_2,3,11,-1,-1,0.917,0.165547621,-0.257690837,1,0,0,1.9289,Diorite_rect,3,1.929,1,15,0,15,0,1,,,,,,,,,,,,,
630386f64c5bbd56ab1c3b0f,TCN,2024-06-24_11h48.05.928,LearnStrategy,2023.2.3,MacIntel,60.97560976,9,2,1,,,,,,,,5,06,,,,,,,,,,,5,1.693,1,,,,,,-0.356663208,-0.383657294,1,0,0,1.6929,Obsidian_rect,0,0,0,0,1,
630386f64c5bbd56ab1c3b0f,TCN,2024-06-24_11h48.05.928,LearnStrategy,2023.2.3,MacIntel,60.97560976,9,2,2,,,,,,,,2,16,,,,,,,,,,,4,2.475,0,,,,,,0.377817112,-0.257842272,1,0,0,2.4751,Gabbro_rect,1,0,1,0,1,
630386f64c5bbd56ab1c3b0f,TCN,2024-06-24_11h48.05.928,LearnStrategy,2023.2.3,MacIntel,60.97560976,9,2,3,,,,,,,,6,13,,,,,,,,,,,6,1.224,1,,,,,,-0.094251641,-0.400961032,1,0,0,1.2244,Pegmatite_rect,2,0,2,0,1,
630386f64c5bbd56ab1c3b0f,TCN,2024-06-24_11h48.05.928,LearnStrategy,2023.2.3,MacIntel,60.97560976,9,2,4,,,,,,,,3,13,,,,,,,,,,,3,1.742,1,,,,,,0.110184801,-0.247029148,1,0,0,1.7424,Diorite_rect,3,0,3,0,1,
630386f64c5bbd56ab1c3b0f,TCN,2024-06-24_11h48.05.928,LearnStrategy,2023.2.3,MacIntel,60.97560976,9,2,5,,,,,,,,6,11,,,,,,,,,,,6,1.652,1,,,,,,-0.109410739,-0.396677314,1,0,0,1.6522,Pegmatite_rect,4,0,4,0,1,
630386f64c5bbd56ab1c3b0f,TCN,2024-06-24_11h48.05.928,LearnStrategy,2023.2.3,MacIntel,60.97560976,9,2,6,,,,,,,,7,02,,,,,,,,,,,7,1.616,1,,,,,,0.163299289,-0.405120646,1,0,0,1.616,Peridotite_rect,5,0,5,0,1,
630386f64c5bbd56ab1c3b0f,TCN,2024-06-24_11h48.05.928,LearnStrategy,2023.2.3,MacIntel,60.97560976,9,2,7,,,,,,,,1,02,,,,,,,,,,,1,3.684,1,,,,,,-0.391419881,-0.249818183,1,0,0,3.684,Andesite_rect,6,0,6,0,1,
630386f64c5bbd56ab1c3b0f,TCN,2024-06-24_11h48.05.928,LearnStrategy,2023.2.3,MacIntel,60.97560976,9,2,8,,,,,,,,5,14,,,,,,,,,,,5,1.288,1,,,,,,-0.347643873,-0.390092231,1,0,0,1.2882,Obsidian_rect,7,0,7,0,1,
630386f64c5bbd56ab1c3b0f,TCN,2024-06-24_11h48.05.928,LearnStrategy,2023.2.3,MacIntel,60.97560976,9,2,9,,,,,,,,3,14,,,,,,,,,,,3,3.25,1,,,,,,0.113213704,-0.250974257,1,0,0,3.2499,Diorite_rect,8,0,8,0,1,
630386f64c5bbd56ab1c3b0f,TCN,2024-06-24_11h48.05.928,LearnStrategy,2023.2.3,MacIntel,60.97560976,9,2,10,,,,,,,,8,09,,,,,,,,,,,8,1.394,1,,,,,,0.346960856,-0.407334256,1,0,0,1.3938,Pumice_rect,9,0,9,0,1,
630386f64c5bbd56ab1c3b0f,TCN,2024-06-24_11h48.05.928,LearnStrategy,2023.2.3,MacIntel,60.97560976,9,2,11,,,,,,,,2,08,,,,,,,,,,,2,2.174,1,,,,,,-0.17097758,-0.253732639,1,0,0,2.1741,Basalt_rect,10,0,10,0,1,
630386f64c5bbd56ab1c3b0f,TCN,2024-06-24_11h48.05.928,LearnStrategy,2023.2.3,MacIntel,60.97560976,9,2,12,,,,,,,,4,13,,,,,,,,,,,1,4.168,0,,,,,,-0.36536889,-0.245955471,1,0,0,4.1675,Andesite_rect,11,0,11,0,1,
630386f64c5bbd56ab1c3b0f,TCN,2024-06-24_11h48.05.928,LearnStrategy,2023.2.3,MacIntel,60.97560976,9,2,13,,,,,,,,7,15,,,,,,,,,,,7,1.607,1,,,,,,0.134448785,-0.399075317,1,0,0,1.6067,Peridotite_rect,12,0,12,0,1,
630386f64c5bbd56ab1c3b0f,TCN,2024-06-24_11h48.05.928,LearnStrategy,2023.2.3,MacIntel,60.97560976,9,2,14,,,,,,,,4,10,,,,,,,,,,,4,2.99,1,,,,,,0.37454088,-0.259058634,1,0,0,2.9904,Gabbro_rect,13,0,13,0,1,
630386f64c5bbd56ab1c3b0f,TCN,2024-06-24_11h48.05.928,LearnStrategy,2023.2.3,MacIntel,60.97560976,9,2,15,,,,,,,,8,03,,,,,,,,,,,8,1.11,1,,,,,,0.374860433,-0.41554735,1,0,0,1.1104,Pumice_rect,14,0,14,0,1,
630386f64c5bbd56ab1c3b0f,TCN,2024-06-24_11h48.05.928,LearnStrategy,2023.2.3,MacIntel,60.97560976,9,2,16,,,,,,,,1,10,,,,,,,,,,,2,2.144,0,,,,,,-0.124654677,-0.233758681,1,0,0,2.1438,Basalt_rect,15,0,15,0,1,
630386f64c5bbd56ab1c3b0f,TCN,2024-06-24_11h48.05.928,LearnStrategy,2023.2.3,MacIntel,60.97560976,,,,,,,,,,,,,,,,,,,,,,,,,,,,,,,,,,,,,,,,,,,1
630386f64c5bbd56ab1c3b0f,TCN,2024-06-24_11h48.05.928,LearnStrategy,2023.2.3,MacIntel,60.97560976,,,,,,,,,,,,,,,,,,,,,,,,,,,,,,,,,,,,,,,,,,,
630386f64c5bbd56ab1c3b0f,TCN,2024-06-24_11h48.05.928,LearnStrategy,2023.2.3,MacIntel,60.97560976,,,,,,,,,,,1,05,1,1,,,,,,,,,,,,,,,,,,,,,,,,,,,,,
630386f64c5bbd56ab1c3b0f,TCN,2024-06-24_11h48.05.928,LearnStrategy,2023.2.3,MacIntel,60.97560976,,,,,,,,,,,2,14,1,2,,,,,,,,,,,,,,,,,,,,,,,,,,,,,
630386f64c5bbd56ab1c3b0f,TCN,2024-06-24_11h48.05.928,LearnStrategy,2023.2.3,MacIntel,60.97560976,,,,,,,,,,,3,12,1,3,,,,,,,,,,,,,,,,,,,,,,,,,,,,,
630386f64c5bbd56ab1c3b0f,TCN,2024-06-24_11h48.05.928,LearnStrategy,2023.2.3,MacIntel,60.97560976,,,,,,,,,,,6,08,1,4,,,,,,,,,,,,,,,,,,,,,,,,,,,,,
630386f64c5bbd56ab1c3b0f,TCN,2024-06-24_11h48.05.928,LearnStrategy,2023.2.3,MacIntel,60.97560976,,,,,,,,,,,4,05,1,5,,,,,,,,,,,,,,,,,,,,,,,,,,,,,
630386f64c5bbd56ab1c3b0f,TCN,2024-06-24_11h48.05.928,LearnStrategy,2023.2.3,MacIntel,60.97560976,,,,,,,,,,,5,02,1,6,,,,,,,,,,,,,,,,,,,,,,,,,,,,,
630386f64c5bbd56ab1c3b0f,TCN,2024-06-24_11h48.05.928,LearnStrategy,2023.2.3,MacIntel,60.97560976,,,,,,,,,,,2,05,1,7,,,,,,,,,,,,,,,,,,,,,,,,,,,,,
630386f64c5bbd56ab1c3b0f,TCN,2024-06-24_11h48.05.928,LearnStrategy,2023.2.3,MacIntel,60.97560976,,,,,,,,,,,2,12,1,8,,,,,,,,,,,,,,,,,,,,,,,,,,,,,
630386f64c5bbd56ab1c3b0f,TCN,2024-06-24_11h48.05.928,LearnStrategy,2023.2.3,MacIntel,60.97560976,,,,,,,,,,,6,06,2,1,,,,,,,,,,,,,,,,,,,,,,,,,,,,,
630386f64c5bbd56ab1c3b0f,TCN,2024-06-24_11h48.05.928,LearnStrategy,2023.2.3,MacIntel,60.97560976,,,,,,,,,,,1,06,2,2,,,,,,,,,,,,,,,,,,,,,,,,,,,,,
630386f64c5bbd56ab1c3b0f,TCN,2024-06-24_11h48.05.928,LearnStrategy,2023.2.3,MacIntel,60.97560976,,,,,,,,,,,8,02,2,3,,,,,,,,,,,,,,,,,,,,,,,,,,,,,
630386f64c5bbd56ab1c3b0f,TCN,2024-06-24_11h48.05.928,LearnStrategy,2023.2.3,MacIntel,60.97560976,,,,,,,,,,,5,12,2,4,,,,,,,,,,,,,,,,,,,,,,,,,,,,,
630386f64c5bbd56ab1c3b0f,TCN,2024-06-24_11h48.05.928,LearnStrategy,2023.2.3,MacIntel,60.97560976,,,,,,,,,,,7,08,2,5,,,,,,,,,,,,,,,,,,,,,,,,,,,,,
630386f64c5bbd56ab1c3b0f,TCN,2024-06-24_11h48.05.928,LearnStrategy,2023.2.3,MacIntel,60.97560976,,,,,,,,,,,6,15,2,6,,,,,,,,,,,,,,,,,,,,,,,,,,,,,
630386f64c5bbd56ab1c3b0f,TCN,2024-06-24_11h48.05.928,LearnStrategy,2023.2.3,MacIntel,60.97560976,,,,,,,,,,,4,09,2,7,,,,,,,,,,,,,,,,,,,,,,,,,,,,,
630386f64c5bbd56ab1c3b0f,TCN,2024-06-24_11h48.05.928,LearnStrategy,2023.2.3,MacIntel,60.97560976,,,,,,,,,,,2,09,2,8,,,,,,,,,,,,,,,,,,,,,,,,,,,,,
630386f64c5bbd56ab1c3b0f,TCN,2024-06-24_11h48.05.928,LearnStrategy,2023.2.3,MacIntel,60.97560976,,,,,,,,,,,6,10,3,1,,,,,,,,,,,,,,,,,,,,,,,,,,,,,
630386f64c5bbd56ab1c3b0f,TCN,2024-06-24_11h48.05.928,LearnStrategy,2023.2.3,MacIntel,60.97560976,,,,,,,,,,,7,12,3,2,,,,,,,,,,,,,,,,,,,,,,,,,,,,,
630386f64c5bbd56ab1c3b0f,TCN,2024-06-24_11h48.05.928,LearnStrategy,2023.2.3,MacIntel,60.97560976,,,,,,,,,,,8,10,3,3,,,,,,,,,,,,,,,,,,,,,,,,,,,,,
630386f64c5bbd56ab1c3b0f,TCN,2024-06-24_11h48.05.928,LearnStrategy,2023.2.3,MacIntel,60.97560976,,,,,,,,,,,3,02,3,4,,,,,,,,,,,,,,,,,,,,,,,,,,,,,
630386f64c5bbd56ab1c3b0f,TCN,2024-06-24_11h48.05.928,LearnStrategy,2023.2.3,MacIntel,60.97560976,,,,,,,,,,,5,10,3,5,,,,,,,,,,,,,,,,,,,,,,,,,,,,,
630386f64c5bbd56ab1c3b0f,TCN,2024-06-24_11h48.05.928,LearnStrategy,2023.2.3,MacIntel,60.97560976,,,,,,,,,,,3,15,3,6,,,,,,,,,,,,,,,,,,,,,,,,,,,,,
630386f64c5bbd56ab1c3b0f,TCN,2024-06-24_11h48.05.928,LearnStrategy,2023.2.3,MacIntel,60.97560976,,,,,,,,,,,7,14,3,7,,,,,,,,,,,,,,,,,,,,,,,,,,,,,
630386f64c5bbd56ab1c3b0f,TCN,2024-06-24_11h48.05.928,LearnStrategy,2023.2.3,MacIntel,60.97560976,,,,,,,,,,,1,04,3,8,,,,,,,,,,,,,,,,,,,,,,,,,,,,,
630386f64c5bbd56ab1c3b0f,TCN,2024-06-24_11h48.05.928,LearnStrategy,2023.2.3,MacIntel,60.97560976,,,,,,,,,,,5,04,4,1,,,,,,,,,,,,,,,,,,,,,,,,,,,,,
630386f64c5bbd56ab1c3b0f,TCN,2024-06-24_11h48.05.928,LearnStrategy,2023.2.3,MacIntel,60.97560976,,,,,,,,,,,1,09,4,2,,,,,,,,,,,,,,,,,,,,,,,,,,,,,
630386f64c5bbd56ab1c3b0f,TCN,2024-06-24_11h48.05.928,LearnStrategy,2023.2.3,MacIntel,60.97560976,,,,,,,,,,,1,03,4,3,,,,,,,,,,,,,,,,,,,,,,,,,,,,,
630386f64c5bbd56ab1c3b0f,TCN,2024-06-24_11h48.05.928,LearnStrategy,2023.2.3,MacIntel,60.97560976,,,,,,,,,,,2,04,4,4,,,,,,,,,,,,,,,,,,,,,,,,,,,,,
630386f64c5bbd56ab1c3b0f,TCN,2024-06-24_11h48.05.928,LearnStrategy,2023.2.3,MacIntel,60.97560976,,,,,,,,,,,4,15,4,5,,,,,,,,,,,,,,,,,,,,,,,,,,,,,
630386f64c5bbd56ab1c3b0f,TCN,2024-06-24_11h48.05.928,LearnStrategy,2023.2.3,MacIntel,60.97560976,,,,,,,,,,,8,06,4,6,,,,,,,,,,,,,,,,,,,,,,,,,,,,,
630386f64c5bbd56ab1c3b0f,TCN,2024-06-24_11h48.05.928,LearnStrategy,2023.2.3,MacIntel,60.97560976,,,,,,,,,,,3,09,4,7,,,,,,,,,,,,,,,,,,,,,,,,,,,,,
630386f64c5bbd56ab1c3b0f,TCN,2024-06-24_11h48.05.928,LearnStrategy,2023.2.3,MacIntel,60.97560976,,,,,,,,,,,5,16,4,8,,,,,,,,,,,,,,,,,,,,,,,,,,,,,
630386f64c5bbd56ab1c3b0f,TCN,2024-06-24_11h48.05.928,LearnStrategy,2023.2.3,MacIntel,60.97560976,,,,,,,,,,,6,05,5,1,,,,,,,,,,,,,,,,,,,,,,,,,,,,,
630386f64c5bbd56ab1c3b0f,TCN,2024-06-24_11h48.05.928,LearnStrategy,2023.2.3,MacIntel,60.97560976,,,,,,,,,,,8,13,5,2,,,,,,,,,,,,,,,,,,,,,,,,,,,,,
630386f64c5bbd56ab1c3b0f,TCN,2024-06-24_11h48.05.928,LearnStrategy,2023.2.3,MacIntel,60.97560976,,,,,,,,,,,8,16,5,3,,,,,,,,,,,,,,,,,,,,,,,,,,,,,
630386f64c5bbd56ab1c3b0f,TCN,2024-06-24_11h48.05.928,LearnStrategy,2023.2.3,MacIntel,60.97560976,,,,,,,,,,,5,05,5,4,,,,,,,,,,,,,,,,,,,,,,,,,,,,,
630386f64c5bbd56ab1c3b0f,TCN,2024-06-24_11h48.05.928,LearnStrategy,2023.2.3,MacIntel,60.97560976,,,,,,,,,,,4,01,5,5,,,,,,,,,,,,,,,,,,,,,,,,,,,,,
630386f64c5bbd56ab1c3b0f,TCN,2024-06-24_11h48.05.928,LearnStrategy,2023.2.3,MacIntel,60.97560976,,,,,,,,,,,8,15,5,6,,,,,,,,,,,,,,,,,,,,,,,,,,,,,
630386f64c5bbd56ab1c3b0f,TCN,2024-06-24_11h48.05.928,LearnStrategy,2023.2.3,MacIntel,60.97560976,,,,,,,,,,,6,03,5,7,,,,,,,,,,,,,,,,,,,,,,,,,,,,,
630386f64c5bbd56ab1c3b0f,TCN,2024-06-24_11h48.05.928,LearnStrategy,2023.2.3,MacIntel,60.97560976,,,,,,,,,,,4,16,5,8,,,,,,,,,,,,,,,,,,,,,,,,,,,,,
630386f64c5bbd56ab1c3b0f,TCN,2024-06-24_11h48.05.928,LearnStrategy,2023.2.3,MacIntel,60.97560976,,,,,,,,,,,7,16,6,1,,,,,,,,,,,,,,,,,,,,,,,,,,,,,
630386f64c5bbd56ab1c3b0f,TCN,2024-06-24_11h48.05.928,LearnStrategy,2023.2.3,MacIntel,60.97560976,,,,,,,,,,,2,11,6,2,,,,,,,,,,,,,,,,,,,,,,,,,,,,,
630386f64c5bbd56ab1c3b0f,TCN,2024-06-24_11h48.05.928,LearnStrategy,2023.2.3,MacIntel,60.97560976,,,,,,,,,,,1,11,6,3,,,,,,,,,,,,,,,,,,,,,,,,,,,,,
630386f64c5bbd56ab1c3b0f,TCN,2024-06-24_11h48.05.928,LearnStrategy,2023.2.3,MacIntel,60.97560976,,,,,,,,,,,3,06,6,4,,,,,,,,,,,,,,,,,,,,,,,,,,,,,
630386f64c5bbd56ab1c3b0f,TCN,2024-06-24_11h48.05.928,LearnStrategy,2023.2.3,MacIntel,60.97560976,,,,,,,,,,,3,11,6,5,,,,,,,,,,,,,,,,,,,,,,,,,,,,,
630386f64c5bbd56ab1c3b0f,TCN,2024-06-24_11h48.05.928,LearnStrategy,2023.2.3,MacIntel,60.97560976,,,,,,,,,,,4,03,6,6,,,,,,,,,,,,,,,,,,,,,,,,,,,,,
630386f64c5bbd56ab1c3b0f,TCN,2024-06-24_11h48.05.928,LearnStrategy,2023.2.3,MacIntel,60.97560976,,,,,,,,,,,7,10,6,7,,,,,,,,,,,,,,,,,,,,,,,,,,,,,
630386f64c5bbd56ab1c3b0f,TCN,2024-06-24_11h48.05.928,LearnStrategy,2023.2.3,MacIntel,60.97560976,,,,,,,,,,,7,07,6,8,,,,,,,,,,,,,,,,,,,,,,,,,,,,,