participant,condition,date,expName,psychopyVersion,OS,frameRate,block,phase,trial,learn_mouse.x,learn_mouse.y,learn_mouse.leftButton,learn_mouse.midButton,learn_mouse.rightButton,learn_mouse.time,learn_mouse.clicked_name,cat,token,row,col,t_select,cat_mouse_l.x,cat_mouse_l.y,cat_mouse_l.leftButton,cat_mouse_l.midButton,cat_mouse_l.rightButton,cat_mouse_l.time,cat_mouse_l.clicked_name,resp,t_resp,corr,train_trials.thisRepN,train_trials.thisTrialN,train_trials.thisN,train_trials.thisIndex,train_trials.ran,cat_mouse_t.x,cat_mouse_t.y,cat_mouse_t.leftButton,cat_mouse_t.midButton,cat_mouse_t.rightButton,cat_mouse_t.time,cat_mouse_t.clicked_name,test_trials.thisRepN,test_trials.thisTrialN,test_trials.thisN,test_trials.thisIndex,test_trials.ran
631a1f357c56acbb68d5dc14,SCN,2024-06-10_12h19.27.612,LearnStrategy,2023.2.3,Win32,59.88023952,,,,,,,,,,,,,,,,,,,,,,,,,,,,,,,,,,,,,,,,,,
631a1f357c56acbb68d5dc14,SCN,2024-06-10_12h19.27.612,LearnStrategy,2023.2.3,Win32,59.88023952,1,1,1,-0.55859375,0.377604167,1,0,0,7.292,Peridotite_05,7,05,6,1,7.292,-0.131510417,-0.236979167,1,0,0,6.3128,Basalt_rect,2,6.313,0,0,0,0,0,1,,,,,,,,,,,,
631a1f357c56acbb68d5dc14,SCN,2024-06-10_12h19.27.612,LearnStrategy,2023.2.3,Win32,59.88023952,1,1,2,-0.39453125,0.416666667,1,0,0,2.4024,Gabbro_12,4,12,6,2,2.402,-0.11328125,-0.39453125,1,0,0,8.2462,Pegmatite_rect,6,8.246,0,1,0,1,0,1,,,,,,,,,,,,
631a1f357c56acbb68d5dc14,SCN,2024-06-10_12h19.27.612,LearnStrategy,2023.2.3,Win32,59.88023952,1,1,3,-0.231770833,0.408854167,1,0,0,2.1088,Basalt_10,2,10,6,3,2.109,-0.38671875,-0.393229167,1,0,0,3.6843,Obsidian_rect,5,3.684,0,2,0,2,0,1,,,,,,,,,,,,
631a1f357c56acbb68d5dc14,SCN,2024-06-10_12h19.27.612,LearnStrategy,2023.2.3,Win32,59.88023952,1,1,4,-0.549479167,0.09765625,1,0,0,7.2851,Gabbro_16,4,16,4,1,7.285,0.184895833,-0.266927083,1,0,0,6.5572,Diorite_rect,3,6.557,0,3,0,3,0,1,,,,,,,,,,,,
631a1f357c56acbb68d5dc14,SCN,2024-06-10_12h19.27.612,LearnStrategy,2023.2.3,Win32,59.88023952,1,1,5,-0.430989583,0.079427083,1,0,0,1.7639,Andesite_04,1,04,4,2,1.764,0.424479167,-0.243489583,1,0,0,3.1558,Gabbro_rect,4,3.156,0,4,0,4,0,1,,,,,,,,,,,,
631a1f357c56acbb68d5dc14,SCN,2024-06-10_12h19.27.612,LearnStrategy,2023.2.3,Win32,59.88023952,1,1,6,0.212239583,0.239583333,1,0,0,5.8311,Peridotite_10,7,10,5,6,5.831,-0.092447917,-0.25,1,0,0,6.0569,Basalt_rect,2,6.057,0,5,0,5,0,1,,,,,,,,,,,,
631a1f357c56acbb68d5dc14,SCN,2024-06-10_12h19.27.612,LearnStrategy,2023.2.3,Win32,59.88023952,1,1,7,0.21484375,0.420572917,1,0,0,2.9793,Obsidian_06,5,06,6,6,2.979,-0.38671875,-0.384114583,1,0,0,4.6649,Obsidian_rect,5,4.665,1,6,0,6,0,1,,,,,,,,,,,,
631a1f357c56acbb68d5dc14,SCN,2024-06-10_12h19.27.612,LearnStrategy,2023.2.3,Win32,59.88023952,1,1,8,0.2265625,0.07421875,1,0,0,1.8703,Diorite_15,3,15,4,6,1.87,0.190104167,-0.403645833,1,0,0,2.5788,Peridotite_rect,7,2.579,0,7,0,7,0,1,,,,,,,,,,,,
631a1f357c56acbb68d5dc14,SCN,2024-06-10_12h19.27.612,LearnStrategy,2023.2.3,Win32,59.88023952,1,1,9,0.266927083,-0.399739583,1,0,0,5.5442,Andesite_05,1,05,1,6,5.544,0.12890625,-0.244791667,1,0,0,1.938,Diorite_rect,3,1.938,0,8,0,8,0,1,,,,,,,,,,,,
631a1f357c56acbb68d5dc14,SCN,2024-06-10_12h19.27.612,LearnStrategy,2023.2.3,Win32,59.88023952,1,1,10,-0.266927083,-0.091145833,1,0,0,10.5827,Pegmatite_11,6,11,3,3,10.583,-0.141927083,-0.399739583,1,0,0,5.2284,Pegmatite_rect,6,5.228,1,9,0,9,0,1,,,,,,,,,,,,
631a1f357c56acbb68d5dc14,SCN,2024-06-10_12h19.27.612,LearnStrategy,2023.2.3,Win32,59.88023952,1,1,11,0.25,-0.08984375,1,0,0,2.9204,Peridotite_04,7,04,3,6,2.92,-0.391927083,-0.256510417,1,0,0,3.8901,Andesite_rect,1,3.89,0,10,0,10,0,1,,,,,,,,,,,,
631a1f357c56acbb68d5dc14,SCN,2024-06-10_12h19.27.612,LearnStrategy,2023.2.3,Win32,59.88023952,1,1,12,-0.091145833,-0.130208333,1,0,0,3.2032,Pegmatite_07,6,07,3,4,3.203,-0.084635417,-0.385416667,1,0,0,2.6177,Pegmatite_rect,6,2.618,1,11,0,11,0,1,,,,,,,,,,,,
631a1f357c56acbb68d5dc14,SCN,2024-06-10_12h19.27.612,LearnStrategy,2023.2.3,Win32,59.88023952,1,1,13,0.376302083,-0.407552083,1,0,0,1.7696,Diorite_10,3,10,1,7,1.77,0.358072917,-0.240885417,1,0,0,1.7357,Gabbro_rect,4,1.736,0,12,0,12,0,1,,,,,,,,,,,,
631a1f357c56acbb68d5dc14,SCN,2024-06-10_12h19.27.612,LearnStrategy,2023.2.3,Win32,59.88023952,1,1,14,0.24609375,-0.3984375,1,0,0,1.2561,Andesite_05,1,05,1,6,1.256,-0.407552083,-0.259114583,1,0,0,3.5986,Andesite_rect,1,3.599,1,13,0,13,0,1,,,,,,,,,,,,
631a1f357c56acbb68d5dc14,SCN,2024-06-10_12h19.27.612,LearnStrategy,2023.2.3,Win32,59.88023952,1,1,15,0.552083333,-0.408854167,1,0,0,1.7392,Gabbro_14,4,14,1,8,1.739,-0.134114583,-0.252604167,1,0,0,5.6385,Basalt_rect,2,5.639,0,14,0,14,0,1,,,,,,,,,,,,
631a1f357c56acbb68d5dc14,SCN,2024-06-10_12h19.27.612,LearnStrategy,2023.2.3,Win32,59.88023952,1,1,16,0.555989583,-0.098958333,1,0,0,2.0005,Pumice_14,8,14,3,8,2.001,0.384114583,-0.408854167,1,0,0,1.2586,Pumice_rect,8,1.259,1,15,0,15,0,1,,,,,,,,,,,,
631a1f357c56acbb68d5dc14,SCN,2024-06-10_12h19.27.612,LearnStrategy,2023.2.3,Win32,59.88023952,1,2,1,,,,,,,,7,14,,,,,,,,,,,3,9.524,0,,,,,,0.106770833,-0.259114583,1,0,0,9.5239,Diorite_rect,0,0,0,0,1
631a1f357c56acbb68d5dc14,SCN,2024-06-10_12h19.27.612,LearnStrategy,2023.2.3,Win32,59.88023952,1,2,2,,,,,,,,2,09,,,,,,,,,,,2,5.206,1,,,,,,-0.162760417,-0.25390625,1,0,0,5.2061,Basalt_rect,1,0,1,0,1
631a1f357c56acbb68d5dc14,SCN,2024-06-10_12h19.27.612,LearnStrategy,2023.2.3,Win32,59.88023952,1,2,3,,,,,,,,1,11,,,,,,,,,,,1,1.73,1,,,,,,-0.377604167,-0.248697917,1,0,0,1.7297,Andesite_rect,2,0,2,0,1
631a1f357c56acbb68d5dc14,SCN,2024-06-10_12h19.27.612,LearnStrategy,2023.2.3,Win32,59.88023952,1,2,4,,,,,,,,4,03,,,,,,,,,,,4,3.743,1,,,,,,0.328125,-0.256510417,1,0,0,3.7433,Gabbro_rect,3,0,3,0,1
631a1f357c56acbb68d5dc14,SCN,2024-06-10_12h19.27.612,LearnStrategy,2023.2.3,Win32,59.88023952,1,2,5,,,,,,,,7,06,,,,,,,,,,,6,3.018,0,,,,,,-0.1484375,-0.415364583,1,0,0,3.018,Pegmatite_rect,4,0,4,0,1
631a1f357c56acbb68d5dc14,SCN,2024-06-10_12h19.27.612,LearnStrategy,2023.2.3,Win32,59.88023952,1,2,6,,,,,,,,6,09,,,,,,,,,,,6,3.212,1,,,,,,-0.1640625,-0.407552083,1,0,0,3.2119,Pegmatite_rect,5,0,5,0,1
631a1f357c56acbb68d5dc14,SCN,2024-06-10_12h19.27.612,LearnStrategy,2023.2.3,Win32,59.88023952,1,2,7,,,,,,,,8,05,,,,,,,,,,,8,1.689,1,,,,,,0.3984375,-0.39453125,1,0,0,1.689,Pumice_rect,6,0,6,0,1
631a1f357c56acbb68d5dc14,SCN,2024-06-10_12h19.27.612,LearnStrategy,2023.2.3,Win32,59.88023952,1,2,8,,,,,,,,1,02,,,,,,,,,,,7,4.377,0,,,,,,0.14453125,-0.404947917,1,0,0,4.3771,Peridotite_rect,7,0,7,0,1
631a1f357c56acbb68d5dc14,SCN,2024-06-10_12h19.27.612,LearnStrategy,2023.2.3,Win32,59.88023952,1,2,9,,,,,,,,3,02,,,,,,,,,,,4,4.799,0,,,,,,0.326822917,-0.244791667,1,0,0,4.7993,Gabbro_rect,8,0,8,0,1
631a1f357c56acbb68d5dc14,SCN,2024-06-10_12h19.27.612,LearnStrategy,2023.2.3,Win32,59.88023952,1,2,10,,,,,,,,5,12,,,,,,,,,,,5,2.442,1,,,,,,-0.462239583,-0.401041667,1,0,0,2.4423,Obsidian_rect,9,0,9,0,1
631a1f357c56acbb68d5dc14,SCN,2024-06-10_12h19.27.612,LearnStrategy,2023.2.3,Win32,59.88023952,1,2,11,,,,,,,,3,16,,,,,,,,,,,7,4.389,0,,,,,,0.071614583,-0.41015625,1,0,0,4.3888,Peridotite_rect,10,0,10,0,1
631a1f357c56acbb68d5dc14,SCN,2024-06-10_12h19.27.612,LearnStrategy,2023.2.3,Win32,59.88023952,1,2,12,,,,,,,,8,09,,,,,,,,,,,8,1.471,1,,,,,,0.416666667,-0.38671875,1,0,0,1.4707,Pumice_rect,11,0,11,0,1
631a1f357c56acbb68d5dc14,SCN,2024-06-10_12h19.27.612,LearnStrategy,2023.2.3,Win32,59.88023952,1,2,13,,,,,,,,2,01,,,,,,,,,,,4,3.82,0,,,,,,0.416666667,-0.251302083,1,0,0,3.8198,Gabbro_rect,12,0,12,0,1
631a1f357c56acbb68d5dc14,SCN,2024-06-10_12h19.27.612,LearnStrategy,2023.2.3,Win32,59.88023952,1,2,14,,,,,,,,6,16,,,,,,,,,,,1,1.985,0,,,,,,-0.421875,-0.252604167,1,0,0,1.9846,Andesite_rect,13,0,13,0,1
631a1f357c56acbb68d5dc14,SCN,2024-06-10_12h19.27.612,LearnStrategy,2023.2.3,Win32,59.88023952,1,2,15,,,,,,,,5,07,,,,,,,,,,,5,1.696,1,,,,,,-0.3984375,-0.391927083,1,0,0,1.696,Obsidian_rect,14,0,14,0,1
631a1f357c56acbb68d5dc14,SCN,2024-06-10_12h19.27.612,LearnStrategy,2023.2.3,Win32,59.88023952,1,2,16,,,,,,,,4,11,,,,,,,,,,,4,3.05,1,,,,,,0.328125,-0.255208333,1,0,0,3.0497,Gabbro_rect,15,0,15,0,1
631a1f357c56acbb68d5dc14,SCN,2024-06-10_12h19.27.612,LearnStrategy,2023.2.3,Win32,59.88023952,2,1,1,-0.108072917,0.096354167,1,0,0,4.4148,Obsidian_05,5,05,4,4,4.415,-0.4609375,-0.40625,1,0,0,1.4328,Obsidian_rect,5,1.433,1,0,0,0,0,1,,,,,,,,,,,,
631a1f357c56acbb68d5dc14,SCN,2024-06-10_12h19.27.612,LearnStrategy,2023.2.3,Win32,59.88023952,2,1,2,0.56640625,0.255208333,1,0,0,2.2919,Basalt_06,2,06,5,8,2.292,0.37890625,-0.248697917,1,0,0,4.0099,Gabbro_rect,4,4.01,0,1,0,1,0,1,,,,,,,,,,,,
631a1f357c56acbb68d5dc14,SCN,2024-06-10_12h19.27.612,LearnStrategy,2023.2.3,Win32,59.88023952,2,1,3,-0.4140625,-0.411458333,1,0,0,4.9735,Andesite_01,1,01,1,2,4.974,0.098958333,-0.388020833,1,0,0,1.5485,Peridotite_rect,7,1.548,0,2,0,2,0,1,,,,,,,,,,,,
631a1f357c56acbb68d5dc14,SCN,2024-06-10_12h19.27.612,LearnStrategy,2023.2.3,Win32,59.88023952,2,1,4,-0.569010417,-0.25390625,1,0,0,2.2598,Diorite_11,3,11,2,1,2.26,0.1171875,-0.248697917,1,0,0,1.4944,Diorite_rect,3,1.494,1,3,0,3,0,1,,,,,,,,,,,,
631a1f357c56acbb68d5dc14,SCN,2024-06-10_12h19.27.612,LearnStrategy,2023.2.3,Win32,59.88023952,2,1,5,-0.580729167,-0.118489583,1,0,0,1.5815,Andesite_07,1,07,3,1,1.582,0.130208333,-0.255208333,1,0,0,0.9883,Diorite_rect,3,0.988,0,4,0,4,0,1,,,,,,,,,,,,
631a1f357c56acbb68d5dc14,SCN,2024-06-10_12h19.27.612,LearnStrategy,2023.2.3,Win32,59.88023952,2,1,6,-0.423177083,-0.25,1,0,0,2.0274,Basalt_02,2,02,2,2,2.027,-0.154947917,-0.265625,1,0,0,1.0578,Basalt_rect,2,1.058,1,5,0,5,0,1,,,,,,,,,,,,
631a1f357c56acbb68d5dc14,SCN,2024-06-10_12h19.27.612,LearnStrategy,2023.2.3,Win32,59.88023952,2,1,7,0.364583333,0.231770833,1,0,0,3.3262,Gabbro_08,4,08,5,7,3.326,0.377604167,-0.244791667,1,0,0,1.7324,Gabbro_rect,4,1.732,1,6,0,6,0,1,,,,,,,,,,,,
631a1f357c56acbb68d5dc14,SCN,2024-06-10_12h19.27.612,LearnStrategy,2023.2.3,Win32,59.88023952,2,1,8,0.1953125,0.243489583,1,0,0,1.1163,Peridotite_10,7,10,5,6,1.116,0.190104167,-0.404947917,1,0,0,2.642,Peridotite_rect,7,2.642,1,7,0,7,0,1,,,,,,,,,,,,
631a1f357c56acbb68d5dc14,SCN,2024-06-10_12h19.27.612,LearnStrategy,2023.2.3,Win32,59.88023952,2,1,9,0.0703125,0.28125,1,0,0,1.3694,Basalt_11,2,11,5,5,1.369,0.166666667,-0.251302083,1,0,0,5.8059,Diorite_rect,3,5.806,0,8,0,8,0,1,,,,,,,,,,,,
631a1f357c56acbb68d5dc14,SCN,2024-06-10_12h19.27.612,LearnStrategy,2023.2.3,Win32,59.88023952,2,1,10,0.557291667,0.4140625,1,0,0,2.7444,Diorite_08,3,08,6,8,2.744,-0.154947917,-0.4140625,1,0,0,4.4792,Pegmatite_rect,6,4.479,0,9,0,9,0,1,,,,,,,,,,,,
631a1f357c56acbb68d5dc14,SCN,2024-06-10_12h19.27.612,LearnStrategy,2023.2.3,Win32,59.88023952,2,1,11,-0.055989583,-0.41015625,1,0,0,2.9174,Diorite_14,3,14,1,4,2.917,0.126302083,-0.239583333,1,0,0,1.5488,Diorite_rect,3,1.549,1,10,0,10,0,1,,,,,,,,,,,,
631a1f357c56acbb68d5dc14,SCN,2024-06-10_12h19.27.612,LearnStrategy,2023.2.3,Win32,59.88023952,2,1,12,-0.247395833,-0.265625,1,0,0,2.9639,Basalt_14,2,14,2,3,2.964,0.376302083,-0.403645833,1,0,0,2.4078,Pumice_rect,8,2.408,0,11,0,11,0,1,,,,,,,,,,,,
631a1f357c56acbb68d5dc14,SCN,2024-06-10_12h19.27.612,LearnStrategy,2023.2.3,Win32,59.88023952,2,1,13,-0.10546875,0.404947917,1,0,0,5.8918,Peridotite_15,7,15,6,4,5.892,0.109375,-0.24609375,1,0,0,4.409,Diorite_rect,3,4.409,0,12,0,12,0,1,,,,,,,,,,,,
631a1f357c56acbb68d5dc14,SCN,2024-06-10_12h19.27.612,LearnStrategy,2023.2.3,Win32,59.88023952,2,1,14,-0.42578125,0.3984375,1,0,0,3.4666,Gabbro_12,4,12,6,2,3.467,0.391927083,-0.24609375,1,0,0,1.4842,Gabbro_rect,4,1.484,1,13,0,13,0,1,,,,,,,,,,,,
631a1f357c56acbb68d5dc14,SCN,2024-06-10_12h19.27.612,LearnStrategy,2023.2.3,Win32,59.88023952,2,1,15,0.393229167,-0.2578125,1,0,0,6.378,Pumice_02,8,02,2,7,6.378,0.419270833,-0.407552083,1,0,0,1.3882,Pumice_rect,8,1.388,1,14,0,14,0,1,,,,,,,,,,,,
631a1f357c56acbb68d5dc14,SCN,2024-06-10_12h19.27.612,LearnStrategy,2023.2.3,Win32,59.88023952,2,1,16,0.25390625,-0.4296875,1,0,0,4.5042,Andesite_05,1,05,1,6,4.504,-0.401041667,-0.255208333,1,0,0,8.4568,Andesite_rect,1,8.457,1,15,0,15,0,1,,,,,,,,,,,,
631a1f357c56acbb68d5dc14,SCN,2024-06-10_12h19.27.612,LearnStrategy,2023.2.3,Win32,59.88023952,2,2,1,,,,,,,,8,10,,,,,,,,,,,8,2.264,1,,,,,,0.40234375,-0.393229167,1,0,0,2.2636,Pumice_rect,0,0,0,0,1
631a1f357c56acbb68d5dc14,SCN,2024-06-10_12h19.27.612,LearnStrategy,2023.2.3,Win32,59.88023952,2,2,2,,,,,,,,6,12,,,,,,,,,,,6,6.137,1,,,,,,-0.10546875,-0.420572917,1,0,0,6.1368,Pegmatite_rect,1,0,1,0,1
631a1f357c56acbb68d5dc14,SCN,2024-06-10_12h19.27.612,LearnStrategy,2023.2.3,Win32,59.88023952,2,2,3,,,,,,,,3,06,,,,,,,,,,,3,5.373,1,,,,,,0.126302083,-0.256510417,1,0,0,5.3727,Diorite_rect,2,0,2,0,1
631a1f357c56acbb68d5dc14,SCN,2024-06-10_12h19.27.612,LearnStrategy,2023.2.3,Win32,59.88023952,2,2,4,,,,,,,,3,07,,,,,,,,,,,1,2.478,0,,,,,,-0.467447917,-0.260416667,1,0,0,2.4778,Andesite_rect,3,0,3,0,1
631a1f357c56acbb68d5dc14,SCN,2024-06-10_12h19.27.612,LearnStrategy,2023.2.3,Win32,59.88023952,2,2,5,,,,,,,,6,08,,,,,,,,,,,5,1.837,0,,,,,,-0.395833333,-0.408854167,1,0,0,1.8366,Obsidian_rect,4,0,4,0,1
631a1f357c56acbb68d5dc14,SCN,2024-06-10_12h19.27.612,LearnStrategy,2023.2.3,Win32,59.88023952,2,2,6,,,,,,,,7,13,,,,,,,,,,,2,2.398,0,,,,,,-0.127604167,-0.256510417,1,0,0,2.3978,Basalt_rect,5,0,5,0,1
631a1f357c56acbb68d5dc14,SCN,2024-06-10_12h19.27.612,LearnStrategy,2023.2.3,Win32,59.88023952,2,2,7,,,,,,,,5,04,,,,,,,,,,,5,1.754,1,,,,,,-0.42578125,-0.399739583,1,0,0,1.754,Obsidian_rect,6,0,6,0,1
631a1f357c56acbb68d5dc14,SCN,2024-06-10_12h19.27.612,LearnStrategy,2023.2.3,Win32,59.88023952,2,2,8,,,,,,,,2,04,,,,,,,,,,,2,2.304,1,,,,,,-0.102864583,-0.255208333,1,0,0,2.3041,Basalt_rect,7,0,7,0,1
631a1f357c56acbb68d5dc14,SCN,2024-06-10_12h19.27.612,LearnStrategy,2023.2.3,Win32,59.88023952,2,2,9,,,,,,,,1,16,,,,,,,,,,,7,3.773,0,,,,,,0.114583333,-0.40625,1,0,0,3.7734,Peridotite_rect,8,0,8,0,1
631a1f357c56acbb68d5dc14,SCN,2024-06-10_12h19.27.612,LearnStrategy,2023.2.3,Win32,59.88023952,2,2,10,,,,,,,,5,16,,,,,,,,,,,5,3.269,1,,,,,,-0.403645833,-0.391927083,1,0,0,3.2691,Obsidian_rect,9,0,9,0,1
631a1f357c56acbb68d5dc14,SCN,2024-06-10_12h19.27.612,LearnStrategy,2023.2.3,Win32,59.88023952,2,2,11,,,,,,,,4,10,,,,,,,,,,,4,3.279,1,,,,,,0.380208333,-0.252604167,1,0,0,3.2786,Gabbro_rect,10,0,10,0,1
631a1f357c56acbb68d5dc14,SCN,2024-06-10_12h19.27.612,LearnStrategy,2023.2.3,Win32,59.88023952,2,2,12,,,,,,,,4,05,,,,,,,,,,,4,1.669,1,,,,,,0.360677083,-0.243489583,1,0,0,1.6694,Gabbro_rect,11,0,11,0,1
631a1f357c56acbb68d5dc14,SCN,2024-06-10_12h19.27.612,LearnStrategy,2023.2.3,Win32,59.88023952,2,2,13,,,,,,,,1,03,,,,,,,,,,,3,3.86,0,,,,,,0.100260417,-0.25,1,0,0,3.8595,Diorite_rect,12,0,12,0,1
631a1f357c56acbb68d5dc14,SCN,2024-06-10_12h19.27.612,LearnStrategy,2023.2.3,Win32,59.88023952,2,2,14,,,,,,,,7,12,,,,,,,,,,,3,4.312,0,,,,,,0.100260417,-0.248697917,1,0,0,4.312,Diorite_rect,13,0,13,0,1
631a1f357c56acbb68d5dc14,SCN,2024-06-10_12h19.27.612,LearnStrategy,2023.2.3,Win32,59.88023952,2,2,15,,,,,,,,8,08,,,,,,,,,,,8,2.016,1,,,,,,0.3515625,-0.403645833,1,0,0,2.0163,Pumice_rect,14,0,14,0,1
631a1f357c56acbb68d5dc14,SCN,2024-06-10_12h19.27.612,LearnStrategy,2023.2.3,Win32,59.88023952,2,2,16,,,,,,,,2,12,,,,,,,,,,,2,3.621,1,,,,,,-0.178385417,-0.24609375,1,0,0,3.6211,Basalt_rect,15,0,15,0,1
631a1f357c56acbb68d5dc14,SCN,2024-06-10_12h19.27.612,LearnStrategy,2023.2.3,Win32,59.88023952,3,1,1,-0.265625,0.255208333,1,0,0,3.6895,Pegmatite_05,6,05,5,3,3.689,-0.40234375,-0.399739583,1,0,0,3.2157,Obsidian_rect,5,3.216,0,0,0,0,0,1,,,,,,,,,,,,
631a1f357c56acbb68d5dc14,SCN,2024-06-10_12h19.27.612,LearnStrategy,2023.2.3,Win32,59.88023952,3,1,2,0.072916667,-0.109375,1,0,0,3.877,Pegmatite_15,6,15,3,5,3.877,-0.170572917,-0.391927083,1,0,0,1.4445,Pegmatite_rect,6,1.445,1,1,0,1,0,1,,,,,,,,,,,,
631a1f357c56acbb68d5dc14,SCN,2024-06-10_12h19.27.612,LearnStrategy,2023.2.3,Win32,59.88023952,3,1,3,-0.102864583,-0.274739583,1,0,0,1.6465,Pegmatite_10,6,10,2,4,1.646,-0.09765625,-0.3984375,1,0,0,2.6375,Pegmatite_rect,6,2.637,1,2,0,2,0,1,,,,,,,,,,,,
631a1f357c56acbb68d5dc14,SCN,2024-06-10_12h19.27.612,LearnStrategy,2023.2.3,Win32,59.88023952,3,1,4,0.411458333,-0.243489583,1,0,0,3.215,Pumice_02,8,02,2,7,3.215,0.38671875,-0.3984375,1,0,0,1.5034,Pumice_rect,8,1.503,1,3,0,3,0,1,,,,,,,,,,,,
631a1f357c56acbb68d5dc14,SCN,2024-06-10_12h19.27.612,LearnStrategy,2023.2.3,Win32,59.88023952,3,1,5,-0.555989583,0.407552083,1,0,0,1.1825,Peridotite_05,7,05,6,1,1.183,0.122395833,-0.234375,1,0,0,1.8483,Diorite_rect,3,1.848,0,4,0,4,0,1,,,,,,,,,,,,
631a1f357c56acbb68d5dc14,SCN,2024-06-10_12h19.27.612,LearnStrategy,2023.2.3,Win32,59.88023952,3,1,6,-0.38671875,0.236979167,1,0,0,1.8914,Andesite_10,1,10,5,2,1.891,0.13671875,-0.399739583,1,0,0,1.6815,Peridotite_rect,7,1.681,0,5,0,5,0,1,,,,,,,,,,,,
631a1f357c56acbb68d5dc14,SCN,2024-06-10_12h19.27.612,LearnStrategy,2023.2.3,Win32,59.88023952,3,1,7,0.057291667,0.247395833,1,0,0,2.4713,Basalt_11,2,11,5,5,2.471,-0.138020833,-0.25,1,0,0,1.7825,Basalt_rect,2,1.783,1,6,0,6,0,1,,,,,,,,,,,,
631a1f357c56acbb68d5dc14,SCN,2024-06-10_12h19.27.612,LearnStrategy,2023.2.3,Win32,59.88023952,3,1,8,0.223958333,0.260416667,1,0,0,1.0386,Peridotite_10,7,10,5,6,1.039,0.096354167,-0.26171875,1,0,0,4.245,Diorite_rect,3,4.245,0,7,0,7,0,1,,,,,,,,,,,,
631a1f357c56acbb68d5dc14,SCN,2024-06-10_12h19.27.612,LearnStrategy,2023.2.3,Win32,59.88023952,3,1,9,0.380208333,0.247395833,1,0,0,1.3382,Gabbro_08,4,08,5,7,1.338,-0.139322917,-0.265625,1,0,0,2.1338,Basalt_rect,2,2.134,0,8,0,8,0,1,,,,,,,,,,,,
631a1f357c56acbb68d5dc14,SCN,2024-06-10_12h19.27.612,LearnStrategy,2023.2.3,Win32,59.88023952,3,1,10,0.536458333,0.391927083,1,0,0,2.8682,Diorite_08,3,08,6,8,2.868,-0.3984375,-0.231770833,1,0,0,1.5052,Andesite_rect,1,1.505,0,9,0,9,0,1,,,,,,,,,,,,
631a1f357c56acbb68d5dc14,SCN,2024-06-10_12h19.27.612,LearnStrategy,2023.2.3,Win32,59.88023952,3,1,11,-0.4140625,-0.087239583,1,0,0,3.4053,Diorite_09,3,09,3,2,3.405,0.17578125,-0.255208333,1,0,0,1.0278,Diorite_rect,3,1.028,1,10,0,10,0,1,,,,,,,,,,,,
631a1f357c56acbb68d5dc14,SCN,2024-06-10_12h19.27.612,LearnStrategy,2023.2.3,Win32,59.88023952,3,1,12,-0.546875,-0.130208333,1,0,0,1.4275,Andesite_07,1,07,3,1,1.428,0.12890625,-0.23828125,1,0,0,1.8407,Diorite_rect,3,1.841,0,11,0,11,0,1,,,,,,,,,,,,
631a1f357c56acbb68d5dc14,SCN,2024-06-10_12h19.27.612,LearnStrategy,2023.2.3,Win32,59.88023952,3,1,13,-0.55078125,-0.266927083,1,0,0,1.7269,Diorite_11,3,11,2,1,1.727,0.135416667,-0.231770833,1,0,0,2.5723,Diorite_rect,3,2.572,1,12,0,12,0,1,,,,,,,,,,,,
631a1f357c56acbb68d5dc14,SCN,2024-06-10_12h19.27.612,LearnStrategy,2023.2.3,Win32,59.88023952,3,1,14,-0.40234375,-0.43359375,1,0,0,1.876,Andesite_01,1,01,1,2,1.876,-0.438802083,-0.239583333,1,0,0,2.617,Andesite_rect,1,2.617,1,13,0,13,0,1,,,,,,,,,,,,
631a1f357c56acbb68d5dc14,SCN,2024-06-10_12h19.27.612,LearnStrategy,2023.2.3,Win32,59.88023952,3,1,15,-0.083333333,-0.388020833,1,0,0,2.3026,Diorite_14,3,14,1,4,2.303,-0.376302083,-0.236979167,1,0,0,1.4465,Andesite_rect,1,1.447,0,14,0,14,0,1,,,,,,,,,,,,
631a1f357c56acbb68d5dc14,SCN,2024-06-10_12h19.27.612,LearnStrategy,2023.2.3,Win32,59.88023952,3,1,16,0.40625,-0.428385417,1,0,0,4.7882,Diorite_10,3,10,1,7,4.788,0.134114583,-0.2421875,1,0,0,1.5197,Diorite_rect,3,1.52,1,15,0,15,0,1,,,,,,,,,,,,
631a1f357c56acbb68d5dc14,SCN,2024-06-10_12h19.27.612,LearnStrategy,2023.2.3,Win32,59.88023952,3,2,1,,,,,,,,2,05,,,,,,,,,,,2,1.997,1,,,,,,-0.143229167,-0.247395833,1,0,0,1.9968,Basalt_rect,0,0,0,0,1
631a1f357c56acbb68d5dc14,SCN,2024-06-10_12h19.27.612,LearnStrategy,2023.2.3,Win32,59.88023952,3,2,2,,,,,,,,2,16,,,,,,,,,,,8,5.82,0,,,,,,0.412760417,-0.415364583,1,0,0,5.8201,Pumice_rect,1,0,1,0,1
631a1f357c56acbb68d5dc14,SCN,2024-06-10_12h19.27.612,LearnStrategy,2023.2.3,Win32,59.88023952,3,2,3,,,,,,,,8,15,,,,,,,,,,,8,2.993,1,,,,,,0.416666667,-0.40625,1,0,0,2.993,Pumice_rect,2,0,2,0,1
631a1f357c56acbb68d5dc14,SCN,2024-06-10_12h19.27.612,LearnStrategy,2023.2.3,Win32,59.88023952,3,2,4,,,,,,,,6,06,,,,,,,,,,,7,4.08,0,,,,,,0.131510417,-0.41015625,1,0,0,4.0799,Peridotite_rect,3,0,3,0,1
631a1f357c56acbb68d5dc14,SCN,2024-06-10_12h19.27.612,LearnStrategy,2023.2.3,Win32,59.88023952,3,2,5,,,,,,,,7,16,,,,,,,,,,,5,10.061,0,,,,,,-0.376302083,-0.389322917,1,0,0,10.0613,Obsidian_rect,4,0,4,0,1
631a1f357c56acbb68d5dc14,SCN,2024-06-10_12h19.27.612,LearnStrategy,2023.2.3,Win32,59.88023952,3,2,6,,,,,,,,1,14,,,,,,,,,,,3,2.5,0,,,,,,0.149739583,-0.248697917,1,0,0,2.5005,Diorite_rect,5,0,5,0,1
631a1f357c56acbb68d5dc14,SCN,2024-06-10_12h19.27.612,LearnStrategy,2023.2.3,Win32,59.88023952,3,2,7,,,,,,,,1,09,,,,,,,,,,,3,5.236,0,,,,,,0.109375,-0.244791667,1,0,0,5.2364,Diorite_rect,6,0,6,0,1
631a1f357c56acbb68d5dc14,SCN,2024-06-10_12h19.27.612,LearnStrategy,2023.2.3,Win32,59.88023952,3,2,8,,,,,,,,5,02,,,,,,,,,,,5,1.598,1,,,,,,-0.450520833,-0.390625,1,0,0,1.5981,Obsidian_rect,7,0,7,0,1
631a1f357c56acbb68d5dc14,SCN,2024-06-10_12h19.27.612,LearnStrategy,2023.2.3,Win32,59.88023952,3,2,9,,,,,,,,8,13,,,,,,,,,,,8,1.659,1,,,,,,0.390625,-0.40625,1,0,0,1.659,Pumice_rect,8,0,8,0,1
631a1f357c56acbb68d5dc14,SCN,2024-06-10_12h19.27.612,LearnStrategy,2023.2.3,Win32,59.88023952,3,2,10,,,,,,,,5,14,,,,,,,,,,,5,1.573,1,,,,,,-0.4453125,-0.408854167,1,0,0,1.5728,Obsidian_rect,9,0,9,0,1
631a1f357c56acbb68d5dc14,SCN,2024-06-10_12h19.27.612,LearnStrategy,2023.2.3,Win32,59.88023952,3,2,11,,,,,,,,3,13,,,,,,,,,,,7,5.373,0,,,,,,0.122395833,-0.403645833,1,0,0,5.3728,Peridotite_rect,10,0,10,0,1
631a1f357c56acbb68d5dc14,SCN,2024-06-10_12h19.27.612,LearnStrategy,2023.2.3,Win32,59.88023952,3,2,12,,,,,,,,4,01,,,,,,,,,,,4,1.874,1,,,,,,0.358072917,-0.244791667,1,0,0,1.8738,Gabbro_rect,11,0,11,0,1
631a1f357c56acbb68d5dc14,SCN,2024-06-10_12h19.27.612,LearnStrategy,2023.2.3,Win32,59.88023952,3,2,13,,,,,,,,7,02,,,,,,,,,,,3,3.059,0,,,,,,0.1171875,-0.247395833,1,0,0,3.0589,Diorite_rect,12,0,12,0,1
631a1f357c56acbb68d5dc14,SCN,2024-06-10_12h19.27.612,LearnStrategy,2023.2.3,Win32,59.88023952,3,2,14,,,,,,,,3,12,,,,,,,,,,,3,3.225,1,,,,,,0.143229167,-0.263020833,1,0,0,3.2248,Diorite_rect,13,0,13,0,1
631a1f357c56acbb68d5dc14,SCN,2024-06-10_12h19.27.612,LearnStrategy,2023.2.3,Win32,59.88023952,3,2,15,,,,,,,,4,15,,,,,,,,,,,7,3.414,0,,,,,,0.091145833,-0.39453125,1,0,0,3.4145,Peridotite_rect,14,0,14,0,1
631a1f357c56acbb68d5dc14,SCN,2024-06-10_12h19.27.612,LearnStrategy,2023.2.3,Win32,59.88023952,3,2,16,,,,,,,,6,13,,,,,,,,,,,6,3.626,1,,,,,,-0.15234375,-0.416666667,1,0,0,3.6257,Pegmatite_rect,15,0,15,0,1
631a1f357c56acbb68d5dc14,SCN,2024-06-10_12h19.27.612,LearnStrategy,2023.2.3,Win32,59.88023952,4,1,1,0.229166667,0.071614583,1,0,0,5.8293,Diorite_15,3,15,4,6,5.829,0.114583333,-0.24609375,1,0,0,2.3717,Diorite_rect,3,2.372,1,0,0,0,0,1,,,,,,,,,,,,
631a1f357c56acbb68d5dc14,SCN,2024-06-10_12h19.27.612,LearnStrategy,2023.2.3,Win32,59.88023952,4,1,2,-0.212239583,0.087239583,1,0,0,2.6325,Peridotite_07,7,07,4,3,2.633,0.151041667,-0.380208333,1,0,0,2.7572,Peridotite_rect,7,2.757,1,1,0,1,0,1,,,,,,,,,,,,
631a1f357c56acbb68d5dc14,SCN,2024-06-10_12h19.27.612,LearnStrategy,2023.2.3,Win32,59.88023952,4,1,3,-0.376302083,0.076822917,1,0,0,1.2845,Andesite_04,1,04,4,2,1.284,-0.447916667,-0.236979167,1,0,0,2.5648,Andesite_rect,1,2.565,1,2,0,2,0,1,,,,,,,,,,,,
631a1f357c56acbb68d5dc14,SCN,2024-06-10_12h19.27.612,LearnStrategy,2023.2.3,Win32,59.88023952,4,1,4,-0.532552083,0.071614583,1,0,0,2.5449,Gabbro_16,4,16,4,1,2.545,-0.188802083,-0.251302083,1,0,0,1.8993,Basalt_rect,2,1.899,0,3,0,3,0,1,,,,,,,,,,,,
631a1f357c56acbb68d5dc14,SCN,2024-06-10_12h19.27.612,LearnStrategy,2023.2.3,Win32,59.88023952,4,1,5,-0.35546875,-0.428385417,1,0,0,5.6577,Andesite_01,1,01,1,2,5.658,-0.40625,-0.247395833,1,0,0,5.1663,Andesite_rect,1,5.166,1,4,0,4,0,1,,,,,,,,,,,,
631a1f357c56acbb68d5dc14,SCN,2024-06-10_12h19.27.612,LearnStrategy,2023.2.3,Win32,59.88023952,4,1,6,-0.071614583,-0.252604167,1,0,0,2.8563,Pegmatite_10,6,10,2,4,2.856,-0.076822917,-0.420572917,1,0,0,4.7913,Pegmatite_rect,6,4.791,1,5,0,5,0,1,,,,,,,,,,,,
631a1f357c56acbb68d5dc14,SCN,2024-06-10_12h19.27.612,LearnStrategy,2023.2.3,Win32,59.88023952,4,1,7,0.088541667,-0.08203125,1,0,0,1.8461,Pegmatite_15,6,15,3,5,1.846,-0.12890625,-0.391927083,1,0,0,1.4424,Pegmatite_rect,6,1.442,1,6,0,6,0,1,,,,,,,,,,,,
631a1f357c56acbb68d5dc14,SCN,2024-06-10_12h19.27.612,LearnStrategy,2023.2.3,Win32,59.88023952,4,1,8,0.234375,-0.098958333,1,0,0,1.4533,Peridotite_04,7,04,3,6,1.453,0.10546875,-0.259114583,1,0,0,1.4705,Diorite_rect,3,1.47,0,7,0,7,0,1,,,,,,,,,,,,
631a1f357c56acbb68d5dc14,SCN,2024-06-10_12h19.27.612,LearnStrategy,2023.2.3,Win32,59.88023952,4,1,9,0.416666667,-0.266927083,1,0,0,2.8601,Pumice_02,8,02,2,7,2.86,0.34375,-0.397135417,1,0,0,1.2268,Pumice_rect,8,1.227,1,8,0,8,0,1,,,,,,,,,,,,
631a1f357c56acbb68d5dc14,SCN,2024-06-10_12h19.27.612,LearnStrategy,2023.2.3,Win32,59.88023952,4,1,10,0.532552083,-0.428385417,1,0,0,1.721,Gabbro_14,4,14,1,8,1.721,-0.15625,-0.24609375,1,0,0,2.1591,Basalt_rect,2,2.159,0,9,0,9,0,1,,,,,,,,,,,,
631a1f357c56acbb68d5dc14,SCN,2024-06-10_12h19.27.612,LearnStrategy,2023.2.3,Win32,59.88023952,4,1,11,0.248697917,-0.416666667,1,0,0,1.6511,Andesite_05,1,05,1,6,1.651,0.095052083,-0.247395833,1,0,0,3.5659,Diorite_rect,3,3.566,0,10,0,10,0,1,,,,,,,,,,,,
631a1f357c56acbb68d5dc14,SCN,2024-06-10_12h19.27.612,LearnStrategy,2023.2.3,Win32,59.88023952,4,1,12,0.3671875,-0.415364583,1,0,0,1.6017,Diorite_10,3,10,1,7,1.602,0.087239583,-0.243489583,1,0,0,2.2107,Diorite_rect,3,2.211,1,11,0,11,0,1,,,,,,,,,,,,
631a1f357c56acbb68d5dc14,SCN,2024-06-10_12h19.27.612,LearnStrategy,2023.2.3,Win32,59.88023952,4,1,13,-0.11328125,-0.40625,1,0,0,4.3007,Diorite_14,3,14,1,4,4.301,-0.408854167,-0.23828125,1,0,0,1.8623,Andesite_rect,1,1.862,0,12,0,12,0,1,,,,,,,,,,,,
631a1f357c56acbb68d5dc14,SCN,2024-06-10_12h19.27.612,LearnStrategy,2023.2.3,Win32,59.88023952,4,1,14,-0.061197917,0.083333333,1,0,0,1.4594,Obsidian_05,5,05,4,4,1.459,-0.401041667,-0.391927083,1,0,0,2.5526,Obsidian_rect,5,2.553,1,13,0,13,0,1,,,,,,,,,,,,
631a1f357c56acbb68d5dc14,SCN,2024-06-10_12h19.27.612,LearnStrategy,2023.2.3,Win32,59.88023952,4,1,15,0.123697917,0.1015625,1,0,0,1.2249,Gabbro_13,4,13,4,5,1.225,0.3671875,-0.247395833,1,0,0,1.738,Gabbro_rect,4,1.738,1,14,0,14,0,1,,,,,,,,,,,,
631a1f357c56acbb68d5dc14,SCN,2024-06-10_12h19.27.612,LearnStrategy,2023.2.3,Win32,59.88023952,4,1,16,0.220052083,0.052083333,1,0,0,1.1434,Diorite_15,3,15,4,6,1.143,0.123697917,-0.26171875,1,0,0,2.4011,Diorite_rect,3,2.401,1,15,0,15,0,1,,,,,,,,,,,,
631a1f357c56acbb68d5dc14,SCN,2024-06-10_12h19.27.612,LearnStrategy,2023.2.3,Win32,59.88023952,4,2,1,,,,,,,,6,06,,,,,,,,,,,6,9.554,1,,,,,,-0.149739583,-0.399739583,1,0,0,9.5542,Pegmatite_rect,0,0,0,0,1
631a1f357c56acbb68d5dc14,SCN,2024-06-10_12h19.27.612,LearnStrategy,2023.2.3,Win32,59.88023952,4,2,2,,,,,,,,2,12,,,,,,,,,,,2,2.63,1,,,,,,-0.14453125,-0.24609375,1,0,0,2.6303,Basalt_rect,1,0,1,0,1
631a1f357c56acbb68d5dc14,SCN,2024-06-10_12h19.27.612,LearnStrategy,2023.2.3,Win32,59.88023952,4,2,3,,,,,,,,7,02,,,,,,,,,,,3,2.623,0,,,,,,0.158854167,-0.263020833,1,0,0,2.6233,Diorite_rect,2,0,2,0,1
631a1f357c56acbb68d5dc14,SCN,2024-06-10_12h19.27.612,LearnStrategy,2023.2.3,Win32,59.88023952,4,2,4,,,,,,,,1,09,,,,,,,,,,,4,3.054,0,,,,,,0.376302083,-0.251302083,1,0,0,3.0535,Gabbro_rect,3,0,3,0,1
631a1f357c56acbb68d5dc14,SCN,2024-06-10_12h19.27.612,LearnStrategy,2023.2.3,Win32,59.88023952,4,2,5,,,,,,,,1,16,,,,,,,,,,,3,3.751,0,,,,,,0.131510417,-0.2578125,1,0,0,3.7506,Diorite_rect,4,0,4,0,1
631a1f357c56acbb68d5dc14,SCN,2024-06-10_12h19.27.612,LearnStrategy,2023.2.3,Win32,59.88023952,4,2,6,,,,,,,,6,08,,,,,,,,,,,6,2.669,1,,,,,,-0.157552083,-0.41796875,1,0,0,2.669,Pegmatite_rect,5,0,5,0,1
631a1f357c56acbb68d5dc14,SCN,2024-06-10_12h19.27.612,LearnStrategy,2023.2.3,Win32,59.88023952,4,2,7,,,,,,,,5,02,,,,,,,,,,,5,1.569,1,,,,,,-0.447916667,-0.399739583,1,0,0,1.5688,Obsidian_rect,6,0,6,0,1
631a1f357c56acbb68d5dc14,SCN,2024-06-10_12h19.27.612,LearnStrategy,2023.2.3,Win32,59.88023952,4,2,8,,,,,,,,5,04,,,,,,,,,,,5,2.273,1,,,,,,-0.395833333,-0.3984375,1,0,0,2.2727,Obsidian_rect,7,0,7,0,1
631a1f357c56acbb68d5dc14,SCN,2024-06-10_12h19.27.612,LearnStrategy,2023.2.3,Win32,59.88023952,4,2,9,,,,,,,,7,12,,,,,,,,,,,7,3.948,1,,,,,,0.138020833,-0.39453125,1,0,0,3.9482,Peridotite_rect,8,0,8,0,1
631a1f357c56acbb68d5dc14,SCN,2024-06-10_12h19.27.612,LearnStrategy,2023.2.3,Win32,59.88023952,4,2,10,,,,,,,,2,09,,,,,,,,,,,2,1.652,1,,,,,,-0.15625,-0.240885417,1,0,0,1.6522,Basalt_rect,9,0,9,0,1
631a1f357c56acbb68d5dc14,SCN,2024-06-10_12h19.27.612,LearnStrategy,2023.2.3,Win32,59.88023952,4,2,11,,,,,,,,3,16,,,,,,,,,,,3,7.707,1,,,,,,0.126302083,-0.255208333,1,0,0,7.7066,Diorite_rect,10,0,10,0,1
631a1f357c56acbb68d5dc14,SCN,2024-06-10_12h19.27.612,LearnStrategy,2023.2.3,Win32,59.88023952,4,2,12,,,,,,,,8,15,,,,,,,,,,,8,1.634,1,,,,,,0.4296875,-0.399739583,1,0,0,1.634,Pumice_rect,11,0,11,0,1
631a1f357c56acbb68d5dc14,SCN,2024-06-10_12h19.27.612,LearnStrategy,2023.2.3,Win32,59.88023952,4,2,13,,,,,,,,4,05,,,,,,,,,,,4,1.868,1,,,,,,0.404947917,-0.244791667,1,0,0,1.8682,Gabbro_rect,12,0,12,0,1
631a1f357c56acbb68d5dc14,SCN,2024-06-10_12h19.27.612,LearnStrategy,2023.2.3,Win32,59.88023952,4,2,14,,,,,,,,3,06,,,,,,,,,,,7,6.213,0,,,,,,0.139322917,-0.389322917,1,0,0,6.2132,Peridotite_rect,13,0,13,0,1
631a1f357c56acbb68d5dc14,SCN,2024-06-10_12h19.27.612,LearnStrategy,2023.2.3,Win32,59.88023952,4,2,15,,,,,,,,4,15,,,,,,,,,,,7,4.144,0,,,,,,0.1328125,-0.403645833,1,0,0,4.1445,Peridotite_rect,14,0,14,0,1
631a1f357c56acbb68d5dc14,SCN,2024-06-10_12h19.27.612,LearnStrategy,2023.2.3,Win32,59.88023952,4,2,16,,,,,,,,8,08,,,,,,,,,,,8,1.516,1,,,,,,0.34765625,-0.3984375,1,0,0,1.5162,Pumice_rect,15,0,15,0,1
631a1f357c56acbb68d5dc14,SCN,2024-06-10_12h19.27.612,LearnStrategy,2023.2.3,Win32,59.88023952,5,1,1,0.23046875,-0.100260417,1,0,0,3.4538,Peridotite_04,7,04,3,6,3.454,-0.11328125,-0.393229167,1,0,0,1.5821,Pegmatite_rect,6,1.582,0,0,0,0,0,1,,,,,,,,,,,,
631a1f357c56acbb68d5dc14,SCN,2024-06-10_12h19.27.612,LearnStrategy,2023.2.3,Win32,59.88023952,5,1,2,-0.053385417,0.401041667,1,0,0,10.8116,Peridotite_15,7,15,6,4,10.812,0.102864583,-0.39453125,1,0,0,3.1675,Peridotite_rect,7,3.167,1,1,0,1,0,1,,,,,,,,,,,,
631a1f357c56acbb68d5dc14,SCN,2024-06-10_12h19.27.612,LearnStrategy,2023.2.3,Win32,59.88023952,5,1,3,0.377604167,0.389322917,1,0,0,3.2462,Andesite_06,1,06,6,7,3.246,0.397135417,-0.2421875,1,0,0,1.6374,Gabbro_rect,4,1.637,0,2,0,2,0,1,,,,,,,,,,,,
631a1f357c56acbb68d5dc14,SCN,2024-06-10_12h19.27.612,LearnStrategy,2023.2.3,Win32,59.88023952,5,1,4,0.528645833,0.423177083,1,0,0,1.066,Diorite_08,3,08,6,8,1.066,0.08203125,-0.408854167,1,0,0,2.2544,Peridotite_rect,7,2.254,0,3,0,3,0,1,,,,,,,,,,,,
631a1f357c56acbb68d5dc14,SCN,2024-06-10_12h19.27.612,LearnStrategy,2023.2.3,Win32,59.88023952,5,1,5,-0.540364583,-0.100260417,1,0,0,2.4197,Andesite_07,1,07,3,1,2.42,-0.341145833,-0.231770833,1,0,0,1.1249,Andesite_rect,1,1.125,1,4,0,4,0,1,,,,,,,,,,,,
631a1f357c56acbb68d5dc14,SCN,2024-06-10_12h19.27.612,LearnStrategy,2023.2.3,Win32,59.88023952,5,1,6,-0.375,-0.09375,1,0,0,2.4513,Diorite_09,3,09,3,2,2.451,0.157552083,-0.255208333,1,0,0,1.9727,Diorite_rect,3,1.973,1,5,0,5,0,1,,,,,,,,,,,,
631a1f357c56acbb68d5dc14,SCN,2024-06-10_12h19.27.612,LearnStrategy,2023.2.3,Win32,59.88023952,5,1,7,-0.540364583,-0.264322917,1,0,0,1.4216,Diorite_11,3,11,2,1,1.422,0.122395833,-0.401041667,1,0,0,5.254,Peridotite_rect,7,5.254,0,6,0,6,0,1,,,,,,,,,,,,
631a1f357c56acbb68d5dc14,SCN,2024-06-10_12h19.27.612,LearnStrategy,2023.2.3,Win32,59.88023952,5,1,8,-0.52734375,-0.227864583,1,0,0,2.5948,Diorite_11,3,11,2,1,2.595,0.126302083,-0.236979167,1,0,0,1.1827,Diorite_rect,3,1.183,1,7,0,7,0,1,,,,,,,,,,,,
631a1f357c56acbb68d5dc14,SCN,2024-06-10_12h19.27.612,LearnStrategy,2023.2.3,Win32,59.88023952,5,1,9,-0.3984375,0.091145833,1,0,0,5.5544,Andesite_04,1,04,4,2,5.554,0.393229167,-0.240885417,1,0,0,2.3114,Gabbro_rect,4,2.311,0,8,0,8,0,1,,,,,,,,,,,,
631a1f357c56acbb68d5dc14,SCN,2024-06-10_12h19.27.612,LearnStrategy,2023.2.3,Win32,59.88023952,5,1,10,-0.415364583,-0.423177083,1,0,0,4.0623,Andesite_01,1,01,1,2,4.062,-0.391927083,-0.239583333,1,0,0,2.2559,Andesite_rect,1,2.256,1,9,0,9,0,1,,,,,,,,,,,,
631a1f357c56acbb68d5dc14,SCN,2024-06-10_12h19.27.612,LearnStrategy,2023.2.3,Win32,59.88023952,5,1,11,-0.087239583,-0.408854167,1,0,0,1.2793,Diorite_14,3,14,1,4,1.279,0.125,-0.40625,1,0,0,2.0026,Peridotite_rect,7,2.003,0,10,0,10,0,1,,,,,,,,,,,,
631a1f357c56acbb68d5dc14,SCN,2024-06-10_12h19.27.612,LearnStrategy,2023.2.3,Win32,59.88023952,5,1,12,0.264322917,-0.399739583,1,0,0,1.7755,Andesite_05,1,05,1,6,1.775,-0.38671875,-0.24609375,1,0,0,2.9339,Andesite_rect,1,2.934,1,11,0,11,0,1,,,,,,,,,,,,
631a1f357c56acbb68d5dc14,SCN,2024-06-10_12h19.27.612,LearnStrategy,2023.2.3,Win32,59.88023952,5,1,13,-0.04296875,0.223958333,1,0,0,3.7855,Pegmatite_03,6,03,5,4,3.785,-0.130208333,-0.421875,1,0,0,1.8421,Pegmatite_rect,6,1.842,1,12,0,12,0,1,,,,,,,,,,,,
631a1f357c56acbb68d5dc14,SCN,2024-06-10_12h19.27.612,LearnStrategy,2023.2.3,Win32,59.88023952,5,1,14,0.536458333,-0.25390625,1,0,0,3.8004,Gabbro_09,4,09,2,8,3.8,0.427083333,-0.256510417,1,0,0,1.4974,Gabbro_rect,4,1.497,1,13,0,13,0,1,,,,,,,,,,,,
631a1f357c56acbb68d5dc14,SCN,2024-06-10_12h19.27.612,LearnStrategy,2023.2.3,Win32,59.88023952,5,1,15,0.5859375,0.403645833,1,0,0,1.801,Diorite_08,3,08,6,8,1.801,0.102864583,-0.23828125,1,0,0,2.1793,Diorite_rect,3,2.179,1,14,0,14,0,1,,,,,,,,,,,,
631a1f357c56acbb68d5dc14,SCN,2024-06-10_12h19.27.612,LearnStrategy,2023.2.3,Win32,59.88023952,5,1,16,0.234375,0.100260417,1,0,0,2.685,Diorite_15,3,15,4,6,2.685,0.11328125,-0.239583333,1,0,0,2.3217,Diorite_rect,3,2.322,1,15,0,15,0,1,,,,,,,,,,,,
631a1f357c56acbb68d5dc14,SCN,2024-06-10_12h19.27.612,LearnStrategy,2023.2.3,Win32,59.88023952,5,2,1,,,,,,,,8,10,,,,,,,,,,,8,3.253,1,,,,,,0.376302083,-0.411458333,1,0,0,3.2525,Pumice_rect,0,0,0,0,1
631a1f357c56acbb68d5dc14,SCN,2024-06-10_12h19.27.612,LearnStrategy,2023.2.3,Win32,59.88023952,5,2,2,,,,,,,,6,13,,,,,,,,,,,6,2.494,1,,,,,,-0.161458333,-0.404947917,1,0,0,2.494,Pegmatite_rect,1,0,1,0,1
631a1f357c56acbb68d5dc14,SCN,2024-06-10_12h19.27.612,LearnStrategy,2023.2.3,Win32,59.88023952,5,2,3,,,,,,,,4,11,,,,,,,,,,,2,3.276,0,,,,,,-0.1484375,-0.24609375,1,0,0,3.2756,Basalt_rect,2,0,2,0,1
631a1f357c56acbb68d5dc14,SCN,2024-06-10_12h19.27.612,LearnStrategy,2023.2.3,Win32,59.88023952,5,2,4,,,,,,,,1,11,,,,,,,,,,,1,3.23,1,,,,,,-0.416666667,-0.243489583,1,0,0,3.2302,Andesite_rect,3,0,3,0,1
631a1f357c56acbb68d5dc14,SCN,2024-06-10_12h19.27.612,LearnStrategy,2023.2.3,Win32,59.88023952,5,2,5,,,,,,,,8,05,,,,,,,,,,,8,1.771,1,,,,,,0.389322917,-0.404947917,1,0,0,1.7707,Pumice_rect,4,0,4,0,1
631a1f357c56acbb68d5dc14,SCN,2024-06-10_12h19.27.612,LearnStrategy,2023.2.3,Win32,59.88023952,5,2,6,,,,,,,,5,16,,,,,,,,,,,5,1.593,1,,,,,,-0.459635417,-0.412760417,1,0,0,1.5932,Obsidian_rect,5,0,5,0,1
631a1f357c56acbb68d5dc14,SCN,2024-06-10_12h19.27.612,LearnStrategy,2023.2.3,Win32,59.88023952,5,2,7,,,,,,,,3,07,,,,,,,,,,,3,6.94,1,,,,,,0.115885417,-0.251302083,1,0,0,6.9402,Diorite_rect,6,0,6,0,1
631a1f357c56acbb68d5dc14,SCN,2024-06-10_12h19.27.612,LearnStrategy,2023.2.3,Win32,59.88023952,5,2,8,,,,,,,,3,12,,,,,,,,,,,3,2.553,1,,,,,,0.125,-0.265625,1,0,0,2.5533,Diorite_rect,7,0,7,0,1
631a1f357c56acbb68d5dc14,SCN,2024-06-10_12h19.27.612,LearnStrategy,2023.2.3,Win32,59.88023952,5,2,9,,,,,,,,5,14,,,,,,,,,,,5,1.573,1,,,,,,-0.44921875,-0.412760417,1,0,0,1.5728,Obsidian_rect,8,0,8,0,1
631a1f357c56acbb68d5dc14,SCN,2024-06-10_12h19.27.612,LearnStrategy,2023.2.3,Win32,59.88023952,5,2,10,,,,,,,,7,16,,,,,,,,,,,6,6.054,0,,,,,,-0.07421875,-0.395833333,1,0,0,6.0539,Pegmatite_rect,9,0,9,0,1
631a1f357c56acbb68d5dc14,SCN,2024-06-10_12h19.27.612,LearnStrategy,2023.2.3,Win32,59.88023952,5,2,11,,,,,,,,4,10,,,,,,,,,,,4,3.19,1,,,,,,0.416666667,-0.24609375,1,0,0,3.1899,Gabbro_rect,10,0,10,0,1
631a1f357c56acbb68d5dc14,SCN,2024-06-10_12h19.27.612,LearnStrategy,2023.2.3,Win32,59.88023952,5,2,12,,,,,,,,2,01,,,,,,,,,,,2,1.503,1,,,,,,-0.158854167,-0.235677083,1,0,0,1.5026,Basalt_rect,11,0,11,0,1
631a1f357c56acbb68d5dc14,SCN,2024-06-10_12h19.27.612,LearnStrategy,2023.2.3,Win32,59.88023952,5,2,13,,,,,,,,2,16,,,,,,,,,,,8,4.531,0,,,,,,0.442708333,-0.401041667,1,0,0,4.5313,Pumice_rect,12,0,12,0,1
631a1f357c56acbb68d5dc14,SCN,2024-06-10_12h19.27.612,LearnStrategy,2023.2.3,Win32,59.88023952,5,2,14,,,,,,,,7,14,,,,,,,,,,,7,3.021,1,,,,,,0.098958333,-0.4140625,1,0,0,3.0214,Peridotite_rect,13,0,13,0,1
631a1f357c56acbb68d5dc14,SCN,2024-06-10_12h19.27.612,LearnStrategy,2023.2.3,Win32,59.88023952,5,2,15,,,,,,,,6,09,,,,,,,,,,,6,1.596,1,,,,,,-0.190104167,-0.390625,1,0,0,1.5964,Pegmatite_rect,14,0,14,0,1
631a1f357c56acbb68d5dc14,SCN,2024-06-10_12h19.27.612,LearnStrategy,2023.2.3,Win32,59.88023952,5,2,16,,,,,,,,1,02,,,,,,,,,,,3,2.174,0,,,,,,0.135416667,-0.251302083,1,0,0,2.1744,Diorite_rect,15,0,15,0,1
631a1f357c56acbb68d5dc14,SCN,2024-06-10_12h19.27.612,LearnStrategy,2023.2.3,Win32,59.88023952,6,1,1,-0.076822917,-0.415364583,1,0,0,9.2028,Diorite_14,3,14,1,4,9.203,0.135416667,-0.236979167,1,0,0,1.6681,Diorite_rect,3,1.668,1,0,0,0,0,1,,,,,,,,,,,,
631a1f357c56acbb68d5dc14,SCN,2024-06-10_12h19.27.612,LearnStrategy,2023.2.3,Win32,59.88023952,6,1,2,-0.377604167,-0.40625,1,0,0,2.723,Andesite_01,1,01,1,2,2.723,-0.415364583,-0.239583333,1,0,0,1.5701,Andesite_rect,1,1.57,1,1,0,1,0,1,,,,,,,,,,,,
631a1f357c56acbb68d5dc14,SCN,2024-06-10_12h19.27.612,LearnStrategy,2023.2.3,Win32,59.88023952,6,1,3,-0.55078125,-0.265625,1,0,0,1.741,Diorite_11,3,11,2,1,1.741,0.1328125,-0.395833333,1,0,0,1.836,Peridotite_rect,7,1.836,0,2,0,2,0,1,,,,,,,,,,,,
631a1f357c56acbb68d5dc14,SCN,2024-06-10_12h19.27.612,LearnStrategy,2023.2.3,Win32,59.88023952,6,1,4,0.248697917,-0.08984375,1,0,0,3.9411,Peridotite_04,7,04,3,6,3.941,0.135416667,-0.395833333,1,0,0,2.4814,Peridotite_rect,7,2.481,1,3,0,3,0,1,,,,,,,,,,,,
631a1f357c56acbb68d5dc14,SCN,2024-06-10_12h19.27.612,LearnStrategy,2023.2.3,Win32,59.88023952,6,1,5,0.546875,-0.248697917,1,0,0,3.1013,Gabbro_09,4,09,2,8,3.101,0.376302083,-0.25,1,0,0,1.9987,Gabbro_rect,4,1.999,1,4,0,4,0,1,,,,,,,,,,,,
631a1f357c56acbb68d5dc14,SCN,2024-06-10_12h19.27.612,LearnStrategy,2023.2.3,Win32,59.88023952,6,1,6,0.203125,0.092447917,1,0,0,1.6532,Diorite_15,3,15,4,6,1.653,0.1328125,-0.251302083,1,0,0,1.1538,Diorite_rect,3,1.154,1,5,0,5,0,1,,,,,,,,,,,,
631a1f357c56acbb68d5dc14,SCN,2024-06-10_12h19.27.612,LearnStrategy,2023.2.3,Win32,59.88023952,6,1,7,0.083333333,0.108072917,1,0,0,1.2073,Gabbro_13,4,13,4,5,1.207,0.38671875,-0.23828125,1,0,0,1.9735,Gabbro_rect,4,1.974,1,6,0,6,0,1,,,,,,,,,,,,
631a1f357c56acbb68d5dc14,SCN,2024-06-10_12h19.27.612,LearnStrategy,2023.2.3,Win32,59.88023952,6,1,8,-0.071614583,0.076822917,1,0,0,1.5142,Obsidian_05,5,05,4,4,1.514,-0.40234375,-0.407552083,1,0,0,1.6802,Obsidian_rect,5,1.68,1,7,0,7,0,1,,,,,,,,,,,,
631a1f357c56acbb68d5dc14,SCN,2024-06-10_12h19.27.612,LearnStrategy,2023.2.3,Win32,59.88023952,6,1,9,-0.252604167,0.095052083,1,0,0,1.242,Peridotite_07,7,07,4,3,1.242,0.126302083,-0.399739583,1,0,0,2.6444,Peridotite_rect,7,2.644,1,8,0,8,0,1,,,,,,,,,,,,
631a1f357c56acbb68d5dc14,SCN,2024-06-10_12h19.27.612,LearnStrategy,2023.2.3,Win32,59.88023952,6,1,10,-0.391927083,0.078125,1,0,0,1.322,Andesite_04,1,04,4,2,1.322,-0.39453125,-0.24609375,1,0,0,1.8719,Andesite_rect,1,1.872,1,9,0,9,0,1,,,,,,,,,,,,
631a1f357c56acbb68d5dc14,SCN,2024-06-10_12h19.27.612,LearnStrategy,2023.2.3,Win32,59.88023952,6,1,11,-0.559895833,0.0703125,1,0,0,1.4538,Gabbro_16,4,16,4,1,1.454,0.365885417,-0.259114583,1,0,0,2.0431,Gabbro_rect,4,2.043,1,10,0,10,0,1,,,,,,,,,,,,
631a1f357c56acbb68d5dc14,SCN,2024-06-10_12h19.27.612,LearnStrategy,2023.2.3,Win32,59.88023952,6,1,12,-0.393229167,0.376302083,1,0,0,4.3838,Gabbro_12,4,12,6,2,4.384,0.447916667,-0.264322917,1,0,0,1.7091,Gabbro_rect,4,1.709,1,11,0,11,0,1,,,,,,,,,,,,
631a1f357c56acbb68d5dc14,SCN,2024-06-10_12h19.27.612,LearnStrategy,2023.2.3,Win32,59.88023952,6,1,13,0.55859375,0.407552083,1,0,0,2.3738,Diorite_08,3,08,6,8,2.374,0.125,-0.41796875,1,0,0,2.106,Peridotite_rect,7,2.106,0,12,0,12,0,1,,,,,,,,,,,,
631a1f357c56acbb68d5dc14,SCN,2024-06-10_12h19.27.612,LearnStrategy,2023.2.3,Win32,59.88023952,6,1,14,0.377604167,0.41796875,1,0,0,1.3576,Andesite_06,1,06,6,7,1.358,-0.427083333,-0.24609375,1,0,0,1.7577,Andesite_rect,1,1.758,1,13,0,13,0,1,,,,,,,,,,,,
631a1f357c56acbb68d5dc14,SCN,2024-06-10_12h19.27.612,LearnStrategy,2023.2.3,Win32,59.88023952,6,1,15,0.227864583,0.243489583,1,0,0,4.6357,Peridotite_10,7,10,5,6,4.636,0.114583333,-0.41796875,1,0,0,1.7367,Peridotite_rect,7,1.737,1,14,0,14,0,1,,,,,,,,,,,,
631a1f357c56acbb68d5dc14,SCN,2024-06-10_12h19.27.612,LearnStrategy,2023.2.3,Win32,59.88023952,6,1,16,-0.19921875,-0.268229167,1,0,0,5.0271,Basalt_14,2,14,2,3,5.027,0.358072917,-0.401041667,1,0,0,2.1584,Pumice_rect,8,2.158,0,15,0,15,0,1,,,,,,,,,,,,
631a1f357c56acbb68d5dc14,SCN,2024-06-10_12h19.27.612,LearnStrategy,2023.2.3,Win32,59.88023952,6,2,1,,,,,,,,3,13,,,,,,,,,,,7,3.42,0,,,,,,0.131510417,-0.411458333,1,0,0,3.4201,Peridotite_rect,0,0,0,0,1
631a1f357c56acbb68d5dc14,SCN,2024-06-10_12h19.27.612,LearnStrategy,2023.2.3,Win32,59.88023952,6,2,2,,,,,,,,2,05,,,,,,,,,,,2,1.88,1,,,,,,-0.171875,-0.23828125,1,0,0,1.8795,Basalt_rect,1,0,1,0,1
631a1f357c56acbb68d5dc14,SCN,2024-06-10_12h19.27.612,LearnStrategy,2023.2.3,Win32,59.88023952,6,2,3,,,,,,,,2,04,,,,,,,,,,,2,1.842,1,,,,,,-0.149739583,-0.26953125,1,0,0,1.8422,Basalt_rect,2,0,2,0,1
631a1f357c56acbb68d5dc14,SCN,2024-06-10_12h19.27.612,LearnStrategy,2023.2.3,Win32,59.88023952,6,2,4,,,,,,,,8,09,,,,,,,,,,,8,1.698,1,,,,,,0.365885417,-0.40234375,1,0,0,1.698,Pumice_rect,3,0,3,0,1
631a1f357c56acbb68d5dc14,SCN,2024-06-10_12h19.27.612,LearnStrategy,2023.2.3,Win32,59.88023952,6,2,5,,,,,,,,1,14,,,,,,,,,,,7,5.437,0,,,,,,0.110677083,-0.393229167,1,0,0,5.4366,Peridotite_rect,4,0,4,0,1
631a1f357c56acbb68d5dc14,SCN,2024-06-10_12h19.27.612,LearnStrategy,2023.2.3,Win32,59.88023952,6,2,6,,,,,,,,4,03,,,,,,,,,,,4,4.224,1,,,,,,0.376302083,-0.24609375,1,0,0,4.2239,Gabbro_rect,5,0,5,0,1
631a1f357c56acbb68d5dc14,SCN,2024-06-10_12h19.27.612,LearnStrategy,2023.2.3,Win32,59.88023952,6,2,7,,,,,,,,1,03,,,,,,,,,,,1,2.038,1,,,,,,-0.4375,-0.234375,1,0,0,2.0375,Andesite_rect,6,0,6,0,1
631a1f357c56acbb68d5dc14,SCN,2024-06-10_12h19.27.612,LearnStrategy,2023.2.3,Win32,59.88023952,6,2,8,,,,,,,,6,12,,,,,,,,,,,6,1.693,1,,,,,,-0.161458333,-0.403645833,1,0,0,1.6927,Pegmatite_rect,7,0,7,0,1
631a1f357c56acbb68d5dc14,SCN,2024-06-10_12h19.27.612,LearnStrategy,2023.2.3,Win32,59.88023952,6,2,9,,,,,,,,8,13,,,,,,,,,,,8,2.14,1,,,,,,0.424479167,-0.416666667,1,0,0,2.1403,Pumice_rect,8,0,8,0,1
631a1f357c56acbb68d5dc14,SCN,2024-06-10_12h19.27.612,LearnStrategy,2023.2.3,Win32,59.88023952,6,2,10,,,,,,,,7,06,,,,,,,,,,,6,1.802,0,,,,,,-0.161458333,-0.395833333,1,0,0,1.8024,Pegmatite_rect,9,0,9,0,1
631a1f357c56acbb68d5dc14,SCN,2024-06-10_12h19.27.612,LearnStrategy,2023.2.3,Win32,59.88023952,6,2,11,,,,,,,,6,16,,,,,,,,,,,6,4.223,1,,,,,,-0.154947917,-0.39453125,1,0,0,4.2234,Pegmatite_rect,10,0,10,0,1
631a1f357c56acbb68d5dc14,SCN,2024-06-10_12h19.27.612,LearnStrategy,2023.2.3,Win32,59.88023952,6,2,12,,,,,,,,4,01,,,,,,,,,,,4,2.058,1,,,,,,0.391927083,-0.25390625,1,0,0,2.0576,Gabbro_rect,11,0,11,0,1
631a1f357c56acbb68d5dc14,SCN,2024-06-10_12h19.27.612,LearnStrategy,2023.2.3,Win32,59.88023952,6,2,13,,,,,,,,5,12,,,,,,,,,,,5,1.516,1,,,,,,-0.41796875,-0.40625,1,0,0,1.5157,Obsidian_rect,12,0,12,0,1
631a1f357c56acbb68d5dc14,SCN,2024-06-10_12h19.27.612,LearnStrategy,2023.2.3,Win32,59.88023952,6,2,14,,,,,,,,3,02,,,,,,,,,,,3,1.623,1,,,,,,0.110677083,-0.252604167,1,0,0,1.6232,Diorite_rect,13,0,13,0,1
631a1f357c56acbb68d5dc14,SCN,2024-06-10_12h19.27.612,LearnStrategy,2023.2.3,Win32,59.88023952,6,2,15,,,,,,,,7,13,,,,,,,,,,,7,4.196,1,,,,,,0.1171875,-0.39453125,1,0,0,4.1963,Peridotite_rect,14,0,14,0,1
631a1f357c56acbb68d5dc14,SCN,2024-06-10_12h19.27.612,LearnStrategy,2023.2.3,Win32,59.88023952,6,2,16,,,,,,,,5,07,,,,,,,,,,,5,1.591,1,,,,,,-0.436197917,-0.391927083,1,0,0,1.5913,Obsidian_rect,15,0,15,0,1
631a1f357c56acbb68d5dc14,SCN,2024-06-10_12h19.27.612,LearnStrategy,2023.2.3,Win32,59.88023952,7,1,1,0.08203125,0.100260417,1,0,0,1.6637,Gabbro_13,4,13,4,5,1.664,0.364583333,-0.243489583,1,0,0,2.6629,Gabbro_rect,4,2.663,1,0,0,0,0,1,,,,,,,,,,,,
631a1f357c56acbb68d5dc14,SCN,2024-06-10_12h19.27.612,LearnStrategy,2023.2.3,Win32,59.88023952,7,1,2,0.21484375,0.087239583,1,0,0,4.3616,Diorite_15,3,15,4,6,4.362,0.100260417,-0.252604167,1,0,0,1.1464,Diorite_rect,3,1.146,1,1,0,1,0,1,,,,,,,,,,,,
631a1f357c56acbb68d5dc14,SCN,2024-06-10_12h19.27.612,LearnStrategy,2023.2.3,Win32,59.88023952,7,1,3,-0.0625,-0.411458333,1,0,0,3.7552,Diorite_14,3,14,1,4,3.755,0.1171875,-0.25,1,0,0,1.5879,Diorite_rect,3,1.588,1,2,0,2,0,1,,,,,,,,,,,,
631a1f357c56acbb68d5dc14,SCN,2024-06-10_12h19.27.612,LearnStrategy,2023.2.3,Win32,59.88023952,7,1,4,-0.403645833,-0.421875,1,0,0,1.7857,Andesite_01,1,01,1,2,1.786,-0.41015625,-0.25390625,1,0,0,1.8845,Andesite_rect,1,1.884,1,3,0,3,0,1,,,,,,,,,,,,
631a1f357c56acbb68d5dc14,SCN,2024-06-10_12h19.27.612,LearnStrategy,2023.2.3,Win32,59.88023952,7,1,5,0.239583333,-0.41796875,1,0,0,3.3755,Andesite_05,1,05,1,6,3.376,-0.47265625,-0.263020833,1,0,0,6.2614,Andesite_rect,1,6.261,1,4,0,4,0,1,,,,,,,,,,,,
631a1f357c56acbb68d5dc14,SCN,2024-06-10_12h19.27.612,LearnStrategy,2023.2.3,Win32,59.88023952,7,1,6,0.388020833,-0.42578125,1,0,0,1.1541,Diorite_10,3,10,1,7,1.154,0.111979167,-0.252604167,1,0,0,1.3066,Diorite_rect,3,1.307,1,5,0,5,0,1,,,,,,,,,,,,
631a1f357c56acbb68d5dc14,SCN,2024-06-10_12h19.27.612,LearnStrategy,2023.2.3,Win32,59.88023952,7,1,7,0.55078125,-0.423177083,1,0,0,1.2627,Gabbro_14,4,14,1,8,1.263,0.399739583,-0.255208333,1,0,0,1.4067,Gabbro_rect,4,1.407,1,6,0,6,0,1,,,,,,,,,,,,
631a1f357c56acbb68d5dc14,SCN,2024-06-10_12h19.27.612,LearnStrategy,2023.2.3,Win32,59.88023952,7,1,8,0.552083333,-0.263020833,1,0,0,1.8835,Gabbro_09,4,09,2,8,1.883,-0.08984375,-0.2578125,1,0,0,2.0071,Basalt_rect,2,2.007,0,7,0,7,0,1,,,,,,,,,,,,
631a1f357c56acbb68d5dc14,SCN,2024-06-10_12h19.27.612,LearnStrategy,2023.2.3,Win32,59.88023952,7,1,9,0.235677083,-0.0859375,1,0,0,4.3625,Peridotite_04,7,04,3,6,4.362,0.14453125,-0.401041667,1,0,0,1.1883,Peridotite_rect,7,1.188,1,8,0,8,0,1,,,,,,,,,,,,
631a1f357c56acbb68d5dc14,SCN,2024-06-10_12h19.27.612,LearnStrategy,2023.2.3,Win32,59.88023952,7,1,10,0.52734375,0.390625,1,0,0,4.7404,Diorite_08,3,08,6,8,4.74,0.158854167,-0.2421875,1,0,0,1.7963,Diorite_rect,3,1.796,1,9,0,9,0,1,,,,,,,,,,,,
631a1f357c56acbb68d5dc14,SCN,2024-06-10_12h19.27.612,LearnStrategy,2023.2.3,Win32,59.88023952,7,1,11,0.364583333,0.3984375,1,0,0,1.2016,Andesite_06,1,06,6,7,1.202,-0.388020833,-0.240885417,1,0,0,1.7357,Andesite_rect,1,1.736,1,10,0,10,0,1,,,,,,,,,,,,
631a1f357c56acbb68d5dc14,SCN,2024-06-10_12h19.27.612,LearnStrategy,2023.2.3,Win32,59.88023952,7,1,12,0.065104167,0.397135417,1,0,0,2.014,Peridotite_08,7,08,6,5,2.014,0.119791667,-0.411458333,1,0,0,2.7289,Peridotite_rect,7,2.729,1,11,0,11,0,1,,,,,,,,,,,,
631a1f357c56acbb68d5dc14,SCN,2024-06-10_12h19.27.612,LearnStrategy,2023.2.3,Win32,59.88023952,7,1,13,-0.09375,0.407552083,1,0,0,1.2734,Peridotite_15,7,15,6,4,1.273,0.114583333,-0.39453125,1,0,0,1.5827,Peridotite_rect,7,1.583,1,12,0,12,0,1,,,,,,,,,,,,
631a1f357c56acbb68d5dc14,SCN,2024-06-10_12h19.27.612,LearnStrategy,2023.2.3,Win32,59.88023952,7,1,14,-0.389322917,0.381510417,1,0,0,3.238,Gabbro_12,4,12,6,2,3.238,0.350260417,-0.251302083,1,0,0,2.838,Gabbro_rect,4,2.838,1,13,0,13,0,1,,,,,,,,,,,,
631a1f357c56acbb68d5dc14,SCN,2024-06-10_12h19.27.612,LearnStrategy,2023.2.3,Win32,59.88023952,7,1,15,-0.536458333,-0.255208333,1,0,0,3.5633,Diorite_11,3,11,2,1,3.563,0.1171875,-0.256510417,1,0,0,1.1743,Diorite_rect,3,1.174,1,14,0,14,0,1,,,,,,,,,,,,
631a1f357c56acbb68d5dc14,SCN,2024-06-10_12h19.27.612,LearnStrategy,2023.2.3,Win32,59.88023952,7,1,16,-0.389322917,-0.260416667,1,0,0,2.5266,Basalt_02,2,02,2,2,2.527,-0.15625,-0.243489583,1,0,0,1.3499,Basalt_rect,2,1.35,1,15,0,15,0,1,,,,,,,,,,,,
631a1f357c56acbb68d5dc14,SCN,2024-06-10_12h19.27.612,LearnStrategy,2023.2.3,Win32,59.88023952,7,2,1,,,,,,,,8,08,,,,,,,,,,,8,1.857,1,,,,,,0.3671875,-0.39453125,1,0,0,1.8567,Pumice_rect,0,0,0,0,1
631a1f357c56acbb68d5dc14,SCN,2024-06-10_12h19.27.612,LearnStrategy,2023.2.3,Win32,59.88023952,7,2,2,,,,,,,,6,12,,,,,,,,,,,6,1.928,1,,,,,,-0.15234375,-0.40625,1,0,0,1.9284,Pegmatite_rect,1,0,1,0,1
631a1f357c56acbb68d5dc14,SCN,2024-06-10_12h19.27.612,LearnStrategy,2023.2.3,Win32,59.88023952,7,2,3,,,,,,,,1,16,,,,,,,,,,,3,1.775,0,,,,,,0.100260417,-0.251302083,1,0,0,1.775,Diorite_rect,2,0,2,0,1
631a1f357c56acbb68d5dc14,SCN,2024-06-10_12h19.27.612,LearnStrategy,2023.2.3,Win32,59.88023952,7,2,4,,,,,,,,4,03,,,,,,,,,,,4,1.576,1,,,,,,0.423177083,-0.231770833,1,0,0,1.5761,Gabbro_rect,3,0,3,0,1
631a1f357c56acbb68d5dc14,SCN,2024-06-10_12h19.27.612,LearnStrategy,2023.2.3,Win32,59.88023952,7,2,5,,,,,,,,3,02,,,,,,,,,,,3,1.643,1,,,,,,0.134114583,-0.25,1,0,0,1.6428,Diorite_rect,4,0,4,0,1
631a1f357c56acbb68d5dc14,SCN,2024-06-10_12h19.27.612,LearnStrategy,2023.2.3,Win32,59.88023952,7,2,6,,,,,,,,7,06,,,,,,,,,,,6,1.607,0,,,,,,-0.149739583,-0.412760417,1,0,0,1.6065,Pegmatite_rect,5,0,5,0,1
631a1f357c56acbb68d5dc14,SCN,2024-06-10_12h19.27.612,LearnStrategy,2023.2.3,Win32,59.88023952,7,2,7,,,,,,,,5,12,,,,,,,,,,,5,1.376,1,,,,,,-0.395833333,-0.403645833,1,0,0,1.3764,Obsidian_rect,6,0,6,0,1
631a1f357c56acbb68d5dc14,SCN,2024-06-10_12h19.27.612,LearnStrategy,2023.2.3,Win32,59.88023952,7,2,8,,,,,,,,6,09,,,,,,,,,,,6,1.708,1,,,,,,-0.180989583,-0.395833333,1,0,0,1.7082,Pegmatite_rect,7,0,7,0,1
631a1f357c56acbb68d5dc14,SCN,2024-06-10_12h19.27.612,LearnStrategy,2023.2.3,Win32,59.88023952,7,2,9,,,,,,,,1,14,,,,,,,,,,,7,7.21,0,,,,,,0.1640625,-0.397135417,1,0,0,7.2101,Peridotite_rect,8,0,8,0,1
631a1f357c56acbb68d5dc14,SCN,2024-06-10_12h19.27.612,LearnStrategy,2023.2.3,Win32,59.88023952,7,2,10,,,,,,,,5,02,,,,,,,,,,,5,1.678,1,,,,,,-0.44921875,-0.385416667,1,0,0,1.6775,Obsidian_rect,9,0,9,0,1
631a1f357c56acbb68d5dc14,SCN,2024-06-10_12h19.27.612,LearnStrategy,2023.2.3,Win32,59.88023952,7,2,11,,,,,,,,2,16,,,,,,,,,,,2,2.802,1,,,,,,-0.13671875,-0.252604167,1,0,0,2.802,Basalt_rect,10,0,10,0,1
631a1f357c56acbb68d5dc14,SCN,2024-06-10_12h19.27.612,LearnStrategy,2023.2.3,Win32,59.88023952,7,2,12,,,,,,,,7,16,,,,,,,,,,,7,3.003,1,,,,,,0.0859375,-0.408854167,1,0,0,3.0029,Peridotite_rect,11,0,11,0,1
631a1f357c56acbb68d5dc14,SCN,2024-06-10_12h19.27.612,LearnStrategy,2023.2.3,Win32,59.88023952,7,2,13,,,,,,,,4,15,,,,,,,,,,,3,1.771,0,,,,,,0.114583333,-0.248697917,1,0,0,1.7714,Diorite_rect,12,0,12,0,1
631a1f357c56acbb68d5dc14,SCN,2024-06-10_12h19.27.612,LearnStrategy,2023.2.3,Win32,59.88023952,7,2,14,,,,,,,,2,12,,,,,,,,,,,2,2.262,1,,,,,,-0.139322917,-0.25390625,1,0,0,2.2619,Basalt_rect,13,0,13,0,1
631a1f357c56acbb68d5dc14,SCN,2024-06-10_12h19.27.612,LearnStrategy,2023.2.3,Win32,59.88023952,7,2,15,,,,,,,,8,13,,,,,,,,,,,8,1.485,1,,,,,,0.369791667,-0.40625,1,0,0,1.4845,Pumice_rect,14,0,14,0,1
631a1f357c56acbb68d5dc14,SCN,2024-06-10_12h19.27.612,LearnStrategy,2023.2.3,Win32,59.88023952,7,2,16,,,,,,,,3,16,,,,,,,,,,,3,1.623,1,,,,,,0.131510417,-0.24609375,1,0,0,1.6227,Diorite_rect,15,0,15,0,1
631a1f357c56acbb68d5dc14,SCN,2024-06-10_12h19.27.612,LearnStrategy,2023.2.3,Win32,59.88023952,8,1,1,-0.55078125,-0.126302083,1,0,0,3.0044,Andesite_07,1,07,3,1,3.004,-0.4140625,-0.25,1,0,0,1.1267,Andesite_rect,1,1.127,1,0,0,0,0,1,,,,,,,,,,,,
631a1f357c56acbb68d5dc14,SCN,2024-06-10_12h19.27.612,LearnStrategy,2023.2.3,Win32,59.88023952,8,1,2,-0.09765625,0.227864583,1,0,0,7.3704,Pegmatite_03,6,03,5,4,7.37,-0.162760417,-0.4140625,1,0,0,1.827,Pegmatite_rect,6,1.827,1,1,0,1,0,1,,,,,,,,,,,,
631a1f357c56acbb68d5dc14,SCN,2024-06-10_12h19.27.612,LearnStrategy,2023.2.3,Win32,59.88023952,8,1,3,-0.56640625,0.059895833,1,0,0,2.5432,Gabbro_16,4,16,4,1,2.543,0.423177083,-0.25390625,1,0,0,2.825,Gabbro_rect,4,2.825,1,2,0,2,0,1,,,,,,,,,,,,
631a1f357c56acbb68d5dc14,SCN,2024-06-10_12h19.27.612,LearnStrategy,2023.2.3,Win32,59.88023952,8,1,4,-0.247395833,0.420572917,1,0,0,1.4312,Basalt_10,2,10,6,3,1.431,0.444010417,-0.236979167,1,0,0,2.4112,Gabbro_rect,4,2.411,0,3,0,3,0,1,,,,,,,,,,,,
631a1f357c56acbb68d5dc14,SCN,2024-06-10_12h19.27.612,LearnStrategy,2023.2.3,Win32,59.88023952,8,1,5,0.059895833,0.3984375,1,0,0,1.5712,Peridotite_08,7,08,6,5,1.571,0.169270833,-0.411458333,1,0,0,1.7848,Peridotite_rect,7,1.785,1,4,0,4,0,1,,,,,,,,,,,,
631a1f357c56acbb68d5dc14,SCN,2024-06-10_12h19.27.612,LearnStrategy,2023.2.3,Win32,59.88023952,8,1,6,-0.5546875,-0.252604167,1,0,0,6.5997,Diorite_11,3,11,2,1,6.6,0.092447917,-0.24609375,1,0,0,1.3393,Diorite_rect,3,1.339,1,5,0,5,0,1,,,,,,,,,,,,
631a1f357c56acbb68d5dc14,SCN,2024-06-10_12h19.27.612,LearnStrategy,2023.2.3,Win32,59.88023952,8,1,7,-0.412760417,-0.111979167,1,0,0,1.3208,Diorite_09,3,09,3,2,1.321,0.16015625,-0.244791667,1,0,0,1.2423,Diorite_rect,3,1.242,1,6,0,6,0,1,,,,,,,,,,,,
631a1f357c56acbb68d5dc14,SCN,2024-06-10_12h19.27.612,LearnStrategy,2023.2.3,Win32,59.88023952,8,1,8,-0.592447917,-0.122395833,1,0,0,1.1167,Andesite_07,1,07,3,1,1.117,-0.375,-0.247395833,1,0,0,1.7805,Andesite_rect,1,1.781,1,7,0,7,0,1,,,,,,,,,,,,
631a1f357c56acbb68d5dc14,SCN,2024-06-10_12h19.27.612,LearnStrategy,2023.2.3,Win32,59.88023952,8,1,9,-0.0859375,-0.42578125,1,0,0,2.1181,Diorite_14,3,14,1,4,2.118,0.127604167,-0.256510417,1,0,0,1.4451,Diorite_rect,3,1.445,1,8,0,8,0,1,,,,,,,,,,,,
631a1f357c56acbb68d5dc14,SCN,2024-06-10_12h19.27.612,LearnStrategy,2023.2.3,Win32,59.88023952,8,1,10,0.216145833,-0.446614583,1,0,0,1.2229,Andesite_05,1,05,1,6,1.223,-0.377604167,-0.263020833,1,0,0,1.1886,Andesite_rect,1,1.189,1,9,0,9,0,1,,,,,,,,,,,,
631a1f357c56acbb68d5dc14,SCN,2024-06-10_12h19.27.612,LearnStrategy,2023.2.3,Win32,59.88023952,8,1,11,0.403645833,-0.428385417,1,0,0,1.1566,Diorite_10,3,10,1,7,1.157,0.369791667,-0.236979167,1,0,0,1.6153,Gabbro_rect,4,1.615,0,10,0,10,0,1,,,,,,,,,,,,
631a1f357c56acbb68d5dc14,SCN,2024-06-10_12h19.27.612,LearnStrategy,2023.2.3,Win32,59.88023952,8,1,12,0.548177083,-0.424479167,1,0,0,1.0886,Gabbro_14,4,14,1,8,1.089,0.391927083,-0.243489583,1,0,0,1.512,Gabbro_rect,4,1.512,1,11,0,11,0,1,,,,,,,,,,,,
631a1f357c56acbb68d5dc14,SCN,2024-06-10_12h19.27.612,LearnStrategy,2023.2.3,Win32,59.88023952,8,1,13,0.545572917,-0.2578125,1,0,0,1.4815,Gabbro_09,4,09,2,8,1.481,-0.170572917,-0.259114583,1,0,0,1.442,Basalt_rect,2,1.442,0,12,0,12,0,1,,,,,,,,,,,,
631a1f357c56acbb68d5dc14,SCN,2024-06-10_12h19.27.612,LearnStrategy,2023.2.3,Win32,59.88023952,8,1,14,0.384114583,-0.28125,1,0,0,1.3789,Pumice_02,8,02,2,7,1.379,0.373697917,-0.3984375,1,0,0,1.3382,Pumice_rect,8,1.338,1,13,0,13,0,1,,,,,,,,,,,,
631a1f357c56acbb68d5dc14,SCN,2024-06-10_12h19.27.612,LearnStrategy,2023.2.3,Win32,59.88023952,8,1,15,-0.25390625,-0.274739583,1,0,0,3.2962,Basalt_14,2,14,2,3,3.296,-0.158854167,-0.23828125,1,0,0,2.4632,Basalt_rect,2,2.463,1,14,0,14,0,1,,,,,,,,,,,,
631a1f357c56acbb68d5dc14,SCN,2024-06-10_12h19.27.612,LearnStrategy,2023.2.3,Win32,59.88023952,8,1,16,-0.407552083,-0.252604167,1,0,0,1.6592,Basalt_02,2,02,2,2,1.659,0.380208333,-0.244791667,1,0,0,1.5614,Gabbro_rect,4,1.561,0,15,0,15,0,1,,,,,,,,,,,,
631a1f357c56acbb68d5dc14,SCN,2024-06-10_12h19.27.612,LearnStrategy,2023.2.3,Win32,59.88023952,8,2,1,,,,,,,,8,09,,,,,,,,,,,8,1.518,1,,,,,,0.41015625,-0.407552083,1,0,0,1.5177,Pumice_rect,0,0,0,0,1
631a1f357c56acbb68d5dc14,SCN,2024-06-10_12h19.27.612,LearnStrategy,2023.2.3,Win32,59.88023952,8,2,2,,,,,,,,5,07,,,,,,,,,,,5,1.616,1,,,,,,-0.43359375,-0.401041667,1,0,0,1.6159,Obsidian_rect,1,0,1,0,1
631a1f357c56acbb68d5dc14,SCN,2024-06-10_12h19.27.612,LearnStrategy,2023.2.3,Win32,59.88023952,8,2,3,,,,,,,,2,09,,,,,,,,,,,2,3.17,1,,,,,,-0.119791667,-0.252604167,1,0,0,3.1699,Basalt_rect,2,0,2,0,1
631a1f357c56acbb68d5dc14,SCN,2024-06-10_12h19.27.612,LearnStrategy,2023.2.3,Win32,59.88023952,8,2,4,,,,,,,,1,09,,,,,,,,,,,3,3.986,0,,,,,,0.1328125,-0.25,1,0,0,3.9858,Diorite_rect,3,0,3,0,1
631a1f357c56acbb68d5dc14,SCN,2024-06-10_12h19.27.612,LearnStrategy,2023.2.3,Win32,59.88023952,8,2,5,,,,,,,,5,14,,,,,,,,,,,5,1.592,1,,,,,,-0.438802083,-0.407552083,1,0,0,1.5918,Obsidian_rect,4,0,4,0,1
631a1f357c56acbb68d5dc14,SCN,2024-06-10_12h19.27.612,LearnStrategy,2023.2.3,Win32,59.88023952,8,2,6,,,,,,,,7,14,,,,,,,,,,,7,4.419,1,,,,,,0.130208333,-0.401041667,1,0,0,4.4189,Peridotite_rect,5,0,5,0,1
631a1f357c56acbb68d5dc14,SCN,2024-06-10_12h19.27.612,LearnStrategy,2023.2.3,Win32,59.88023952,8,2,7,,,,,,,,6,13,,,,,,,,,,,6,3.282,1,,,,,,-0.157552083,-0.407552083,1,0,0,3.2818,Pegmatite_rect,6,0,6,0,1
631a1f357c56acbb68d5dc14,SCN,2024-06-10_12h19.27.612,LearnStrategy,2023.2.3,Win32,59.88023952,8,2,8,,,,,,,,1,11,,,,,,,,,,,1,3.422,1,,,,,,-0.404947917,-0.255208333,1,0,0,3.4218,Andesite_rect,7,0,7,0,1
631a1f357c56acbb68d5dc14,SCN,2024-06-10_12h19.27.612,LearnStrategy,2023.2.3,Win32,59.88023952,8,2,9,,,,,,,,3,06,,,,,,,,,,,3,1.645,1,,,,,,0.106770833,-0.255208333,1,0,0,1.6453,Diorite_rect,8,0,8,0,1
631a1f357c56acbb68d5dc14,SCN,2024-06-10_12h19.27.612,LearnStrategy,2023.2.3,Win32,59.88023952,8,2,10,,,,,,,,2,04,,,,,,,,,,,2,1.72,1,,,,,,-0.14453125,-0.236979167,1,0,0,1.7205,Basalt_rect,9,0,9,0,1
631a1f357c56acbb68d5dc14,SCN,2024-06-10_12h19.27.612,LearnStrategy,2023.2.3,Win32,59.88023952,8,2,11,,,,,,,,3,12,,,,,,,,,,,3,1.707,1,,,,,,0.122395833,-0.24609375,1,0,0,1.7066,Diorite_rect,10,0,10,0,1
631a1f357c56acbb68d5dc14,SCN,2024-06-10_12h19.27.612,LearnStrategy,2023.2.3,Win32,59.88023952,8,2,12,,,,,,,,8,10,,,,,,,,,,,8,2.167,1,,,,,,0.39453125,-0.41796875,1,0,0,2.1665,Pumice_rect,11,0,11,0,1
631a1f357c56acbb68d5dc14,SCN,2024-06-10_12h19.27.612,LearnStrategy,2023.2.3,Win32,59.88023952,8,2,13,,,,,,,,7,02,,,,,,,,,,,7,2.315,1,,,,,,0.063802083,-0.416666667,1,0,0,2.3147,Peridotite_rect,12,0,12,0,1
631a1f357c56acbb68d5dc14,SCN,2024-06-10_12h19.27.612,LearnStrategy,2023.2.3,Win32,59.88023952,8,2,14,,,,,,,,4,10,,,,,,,,,,,2,5.632,0,,,,,,-0.135416667,-0.248697917,1,0,0,5.6319,Basalt_rect,13,0,13,0,1
631a1f357c56acbb68d5dc14,SCN,2024-06-10_12h19.27.612,LearnStrategy,2023.2.3,Win32,59.88023952,8,2,15,,,,,,,,4,11,,,,,,,,,,,4,1.653,1,,,,,,0.403645833,-0.235677083,1,0,0,1.6531,Gabbro_rect,14,0,14,0,1
631a1f357c56acbb68d5dc14,SCN,2024-06-10_12h19.27.612,LearnStrategy,2023.2.3,Win32,59.88023952,8,2,16,,,,,,,,6,16,,,,,,,,,,,6,1.951,1,,,,,,-0.166666667,-0.404947917,1,0,0,1.9513,Pegmatite_rect,15,0,15,0,1
631a1f357c56acbb68d5dc14,SCN,2024-06-10_12h19.27.612,LearnStrategy,2023.2.3,Win32,59.88023952,9,1,1,-0.423177083,0.09765625,1,0,0,1.6999,Andesite_04,1,04,4,2,1.7,-0.399739583,-0.23828125,1,0,0,1.3092,Andesite_rect,1,1.309,1,0,0,0,0,1,,,,,,,,,,,,
631a1f357c56acbb68d5dc14,SCN,2024-06-10_12h19.27.612,LearnStrategy,2023.2.3,Win32,59.88023952,9,1,2,0.052083333,0.104166667,1,0,0,2.1482,Gabbro_13,4,13,4,5,2.148,0.397135417,-0.252604167,1,0,0,1.4337,Gabbro_rect,4,1.434,1,1,0,1,0,1,,,,,,,,,,,,
631a1f357c56acbb68d5dc14,SCN,2024-06-10_12h19.27.612,LearnStrategy,2023.2.3,Win32,59.88023952,9,1,3,-0.243489583,0.247395833,1,0,0,2.4612,Pegmatite_05,6,05,5,3,2.461,-0.139322917,-0.420572917,1,0,0,1.834,Pegmatite_rect,6,1.834,1,2,0,2,0,1,,,,,,,,,,,,
631a1f357c56acbb68d5dc14,SCN,2024-06-10_12h19.27.612,LearnStrategy,2023.2.3,Win32,59.88023952,9,1,4,-0.072916667,0.259114583,1,0,0,1.3132,Pegmatite_03,6,03,5,4,1.313,-0.140625,-0.404947917,1,0,0,1.3321,Pegmatite_rect,6,1.332,1,3,0,3,0,1,,,,,,,,,,,,
631a1f357c56acbb68d5dc14,SCN,2024-06-10_12h19.27.612,LearnStrategy,2023.2.3,Win32,59.88023952,9,1,5,0.09375,0.235677083,1,0,0,1.6276,Basalt_11,2,11,5,5,1.628,-0.1640625,-0.266927083,1,0,0,2.9986,Basalt_rect,2,2.999,1,4,0,4,0,1,,,,,,,,,,,,
631a1f357c56acbb68d5dc14,SCN,2024-06-10_12h19.27.612,LearnStrategy,2023.2.3,Win32,59.88023952,9,1,6,0.243489583,0.240885417,1,0,0,1.1298,Peridotite_10,7,10,5,6,1.13,0.141927083,-0.395833333,1,0,0,1.5919,Peridotite_rect,7,1.592,1,5,0,5,0,1,,,,,,,,,,,,
631a1f357c56acbb68d5dc14,SCN,2024-06-10_12h19.27.612,LearnStrategy,2023.2.3,Win32,59.88023952,9,1,7,0.395833333,0.264322917,1,0,0,1.3102,Gabbro_08,4,08,5,7,1.31,0.415364583,-0.2421875,1,0,0,2.306,Gabbro_rect,4,2.306,1,6,0,6,0,1,,,,,,,,,,,,
631a1f357c56acbb68d5dc14,SCN,2024-06-10_12h19.27.612,LearnStrategy,2023.2.3,Win32,59.88023952,9,1,8,0.541666667,0.084635417,1,0,0,3.4165,Pumice_16,8,16,4,8,3.416,0.397135417,-0.40625,1,0,0,1.4013,Pumice_rect,8,1.401,1,7,0,7,0,1,,,,,,,,,,,,
631a1f357c56acbb68d5dc14,SCN,2024-06-10_12h19.27.612,LearnStrategy,2023.2.3,Win32,59.88023952,9,1,9,0.39453125,0.102864583,1,0,0,1.1429,Pumice_03,8,03,4,7,1.143,0.369791667,-0.40234375,1,0,0,1.5653,Pumice_rect,8,1.565,1,8,0,8,0,1,,,,,,,,,,,,
631a1f357c56acbb68d5dc14,SCN,2024-06-10_12h19.27.612,LearnStrategy,2023.2.3,Win32,59.88023952,9,1,10,0.229166667,0.075520833,1,0,0,1.0186,Diorite_15,3,15,4,6,1.019,0.104166667,-0.252604167,1,0,0,1.1921,Diorite_rect,3,1.192,1,9,0,9,0,1,,,,,,,,,,,,
631a1f357c56acbb68d5dc14,SCN,2024-06-10_12h19.27.612,LearnStrategy,2023.2.3,Win32,59.88023952,9,1,11,-0.53515625,0.078125,1,0,0,5.0688,Gabbro_16,4,16,4,1,5.069,-0.1171875,-0.252604167,1,0,0,2.0874,Basalt_rect,2,2.087,0,10,0,10,0,1,,,,,,,,,,,,
631a1f357c56acbb68d5dc14,SCN,2024-06-10_12h19.27.612,LearnStrategy,2023.2.3,Win32,59.88023952,9,1,12,0.243489583,-0.411458333,1,0,0,6.7514,Andesite_05,1,05,1,6,6.751,-0.37890625,-0.239583333,1,0,0,1.8852,Andesite_rect,1,1.885,1,11,0,11,0,1,,,,,,,,,,,,
631a1f357c56acbb68d5dc14,SCN,2024-06-10_12h19.27.612,LearnStrategy,2023.2.3,Win32,59.88023952,9,1,13,-0.083333333,-0.389322917,1,0,0,1.5808,Diorite_14,3,14,1,4,1.581,0.130208333,-0.25,1,0,0,1.0834,Diorite_rect,3,1.083,1,12,0,12,0,1,,,,,,,,,,,,
631a1f357c56acbb68d5dc14,SCN,2024-06-10_12h19.27.612,LearnStrategy,2023.2.3,Win32,59.88023952,9,1,14,-0.399739583,-0.399739583,1,0,0,1.9282,Andesite_01,1,01,1,2,1.928,-0.430989583,-0.236979167,1,0,0,1.0208,Andesite_rect,1,1.021,1,13,0,13,0,1,,,,,,,,,,,,
631a1f357c56acbb68d5dc14,SCN,2024-06-10_12h19.27.612,LearnStrategy,2023.2.3,Win32,59.88023952,9,1,15,-0.1015625,-0.111979167,1,0,0,4.9967,Pegmatite_07,6,07,3,4,4.997,-0.106770833,-0.391927083,1,0,0,1.4378,Pegmatite_rect,6,1.438,1,14,0,14,0,1,,,,,,,,,,,,
631a1f357c56acbb68d5dc14,SCN,2024-06-10_12h19.27.612,LearnStrategy,2023.2.3,Win32,59.88023952,9,1,16,-0.27734375,-0.11328125,1,0,0,0.9797,Pegmatite_11,6,11,3,3,0.98,-0.1484375,-0.401041667,1,0,0,1.1692,Pegmatite_rect,6,1.169,1,15,0,15,0,1,,,,,,,,,,,,
631a1f357c56acbb68d5dc14,SCN,2024-06-10_12h19.27.612,LearnStrategy,2023.2.3,Win32,59.88023952,9,2,1,,,,,,,,7,12,,,,,,,,,,,3,6.627,0,,,,,,0.1171875,-0.24609375,1,0,0,6.6272,Diorite_rect,0,0,0,0,1
631a1f357c56acbb68d5dc14,SCN,2024-06-10_12h19.27.612,LearnStrategy,2023.2.3,Win32,59.88023952,9,2,2,,,,,,,,4,01,,,,,,,,,,,4,2.409,1,,,,,,0.390625,-0.260416667,1,0,0,2.4087,Gabbro_rect,1,0,1,0,1
631a1f357c56acbb68d5dc14,SCN,2024-06-10_12h19.27.612,LearnStrategy,2023.2.3,Win32,59.88023952,9,2,3,,,,,,,,5,16,,,,,,,,,,,5,1.231,1,,,,,,-0.421875,-0.3828125,1,0,0,1.2308,Obsidian_rect,2,0,2,0,1
631a1f357c56acbb68d5dc14,SCN,2024-06-10_12h19.27.612,LearnStrategy,2023.2.3,Win32,59.88023952,9,2,4,,,,,,,,6,06,,,,,,,,,,,6,2.218,1,,,,,,-0.1484375,-0.395833333,1,0,0,2.2176,Pegmatite_rect,3,0,3,0,1
631a1f357c56acbb68d5dc14,SCN,2024-06-10_12h19.27.612,LearnStrategy,2023.2.3,Win32,59.88023952,9,2,5,,,,,,,,1,03,,,,,,,,,,,1,1.933,1,,,,,,-0.390625,-0.240885417,1,0,0,1.9325,Andesite_rect,4,0,4,0,1
631a1f357c56acbb68d5dc14,SCN,2024-06-10_12h19.27.612,LearnStrategy,2023.2.3,Win32,59.88023952,9,2,6,,,,,,,,4,05,,,,,,,,,,,4,2.471,1,,,,,,0.4140625,-0.25390625,1,0,0,2.4714,Gabbro_rect,5,0,5,0,1
631a1f357c56acbb68d5dc14,SCN,2024-06-10_12h19.27.612,LearnStrategy,2023.2.3,Win32,59.88023952,9,2,7,,,,,,,,3,07,,,,,,,,,,,3,5.368,1,,,,,,0.12109375,-0.252604167,1,0,0,5.3683,Diorite_rect,6,0,6,0,1
631a1f357c56acbb68d5dc14,SCN,2024-06-10_12h19.27.612,LearnStrategy,2023.2.3,Win32,59.88023952,9,2,8,,,,,,,,2,05,,,,,,,,,,,2,2.903,1,,,,,,-0.145833333,-0.252604167,1,0,0,2.9026,Basalt_rect,7,0,7,0,1
631a1f357c56acbb68d5dc14,SCN,2024-06-10_12h19.27.612,LearnStrategy,2023.2.3,Win32,59.88023952,9,2,9,,,,,,,,8,05,,,,,,,,,,,8,1.522,1,,,,,,0.4296875,-0.412760417,1,0,0,1.5224,Pumice_rect,8,0,8,0,1
631a1f357c56acbb68d5dc14,SCN,2024-06-10_12h19.27.612,LearnStrategy,2023.2.3,Win32,59.88023952,9,2,10,,,,,,,,8,15,,,,,,,,,,,8,2.187,1,,,,,,0.416666667,-0.412760417,1,0,0,2.1866,Pumice_rect,9,0,9,0,1
631a1f357c56acbb68d5dc14,SCN,2024-06-10_12h19.27.612,LearnStrategy,2023.2.3,Win32,59.88023952,9,2,11,,,,,,,,3,13,,,,,,,,,,,7,5.835,0,,,,,,0.162760417,-0.40625,1,0,0,5.8351,Peridotite_rect,10,0,10,0,1
631a1f357c56acbb68d5dc14,SCN,2024-06-10_12h19.27.612,LearnStrategy,2023.2.3,Win32,59.88023952,9,2,12,,,,,,,,2,01,,,,,,,,,,,2,4.567,1,,,,,,-0.138020833,-0.25,1,0,0,4.5671,Basalt_rect,11,0,11,0,1
631a1f357c56acbb68d5dc14,SCN,2024-06-10_12h19.27.612,LearnStrategy,2023.2.3,Win32,59.88023952,9,2,13,,,,,,,,5,04,,,,,,,,,,,5,1.482,1,,,,,,-0.4609375,-0.399739583,1,0,0,1.4821,Obsidian_rect,12,0,12,0,1
631a1f357c56acbb68d5dc14,SCN,2024-06-10_12h19.27.612,LearnStrategy,2023.2.3,Win32,59.88023952,9,2,14,,,,,,,,7,13,,,,,,,,,,,7,2.259,1,,,,,,0.114583333,-0.390625,1,0,0,2.2593,Peridotite_rect,13,0,13,0,1
631a1f357c56acbb68d5dc14,SCN,2024-06-10_12h19.27.612,LearnStrategy,2023.2.3,Win32,59.88023952,9,2,15,,,,,,,,1,02,,,,,,,,,,,3,3.269,0,,,,,,0.122395833,-0.25,1,0,0,3.2689,Diorite_rect,14,0,14,0,1
631a1f357c56acbb68d5dc14,SCN,2024-06-10_12h19.27.612,LearnStrategy,2023.2.3,Win32,59.88023952,9,2,16,,,,,,,,6,08,,,,,,,,,,,6,3.666,1,,,,,,-0.154947917,-0.390625,1,0,0,3.6662,Pegmatite_rect,15,0,15,0,1
631a1f357c56acbb68d5dc14,SCN,2024-06-10_12h19.27.612,LearnStrategy,2023.2.3,Win32,59.88023952,,,,,,,,,,,,,,,,,,,,,,,,,,,,,,,,,,,,,,,,,,
631a1f357c56acbb68d5dc14,SCN,2024-06-10_12h19.27.612,LearnStrategy,2023.2.3,Win32,59.88023952,,,,,,,,,,,,,,,,,,,,,,,,,,,,,,,,,,,,,,,,,,
631a1f357c56acbb68d5dc14,SCN,2024-06-10_12h19.27.612,LearnStrategy,2023.2.3,Win32,59.88023952,,,,,,,,,,,5,08,1,1,,,,,,,,,,,,,,,,,,,,,,,,,,,,
631a1f357c56acbb68d5dc14,SCN,2024-06-10_12h19.27.612,LearnStrategy,2023.2.3,Win32,59.88023952,,,,,,,,,,,1,01,1,2,,,,,,,,,,,,,,,,,,,,,,,,,,,,
631a1f357c56acbb68d5dc14,SCN,2024-06-10_12h19.27.612,LearnStrategy,2023.2.3,Win32,59.88023952,,,,,,,,,,,8,04,1,3,,,,,,,,,,,,,,,,,,,,,,,,,,,,
631a1f357c56acbb68d5dc14,SCN,2024-06-10_12h19.27.612,LearnStrategy,2023.2.3,Win32,59.88023952,,,,,,,,,,,3,14,1,4,,,,,,,,,,,,,,,,,,,,,,,,,,,,
631a1f357c56acbb68d5dc14,SCN,2024-06-10_12h19.27.612,LearnStrategy,2023.2.3,Win32,59.88023952,,,,,,,,,,,5,10,1,5,,,,,,,,,,,,,,,,,,,,,,,,,,,,
631a1f357c56acbb68d5dc14,SCN,2024-06-10_12h19.27.612,LearnStrategy,2023.2.3,Win32,59.88023952,,,,,,,,,,,1,05,1,6,,,,,,,,,,,,,,,,,,,,,,,,,,,,
631a1f357c56acbb68d5dc14,SCN,2024-06-10_12h19.27.612,LearnStrategy,2023.2.3,Win32,59.88023952,,,,,,,,,,,3,10,1,7,,,,,,,,,,,,,,,,,,,,,,,,,,,,
631a1f357c56acbb68d5dc14,SCN,2024-06-10_12h19.27.612,LearnStrategy,2023.2.3,Win32,59.88023952,,,,,,,,,,,4,14,1,8,,,,,,,,,,,,,,,,,,,,,,,,,,,,
631a1f357c56acbb68d5dc14,SCN,2024-06-10_12h19.27.612,LearnStrategy,2023.2.3,Win32,59.88023952,,,,,,,,,,,3,11,2,1,,,,,,,,,,,,,,,,,,,,,,,,,,,,
631a1f357c56acbb68d5dc14,SCN,2024-06-10_12h19.27.612,LearnStrategy,2023.2.3,Win32,59.88023952,,,,,,,,,,,2,02,2,2,,,,,,,,,,,,,,,,,,,,,,,,,,,,
631a1f357c56acbb68d5dc14,SCN,2024-06-10_12h19.27.612,LearnStrategy,2023.2.3,Win32,59.88023952,,,,,,,,,,,2,14,2,3,,,,,,,,,,,,,,,,,,,,,,,,,,,,
631a1f357c56acbb68d5dc14,SCN,2024-06-10_12h19.27.612,LearnStrategy,2023.2.3,Win32,59.88023952,,,,,,,,,,,6,10,2,4,,,,,,,,,,,,,,,,,,,,,,,,,,,,
631a1f357c56acbb68d5dc14,SCN,2024-06-10_12h19.27.612,LearnStrategy,2023.2.3,Win32,59.88023952,,,,,,,,,,,8,06,2,5,,,,,,,,,,,,,,,,,,,,,,,,,,,,
631a1f357c56acbb68d5dc14,SCN,2024-06-10_12h19.27.612,LearnStrategy,2023.2.3,Win32,59.88023952,,,,,,,,,,,2,08,2,6,,,,,,,,,,,,,,,,,,,,,,,,,,,,
631a1f357c56acbb68d5dc14,SCN,2024-06-10_12h19.27.612,LearnStrategy,2023.2.3,Win32,59.88023952,,,,,,,,,,,8,02,2,7,,,,,,,,,,,,,,,,,,,,,,,,,,,,
631a1f357c56acbb68d5dc14,SCN,2024-06-10_12h19.27.612,LearnStrategy,2023.2.3,Win32,59.88023952,,,,,,,,,,,4,09,2,8,,,,,,,,,,,,,,,,,,,,,,,,,,,,
631a1f357c56acbb68d5dc14,SCN,2024-06-10_12h19.27.612,LearnStrategy,2023.2.3,Win32,59.88023952,,,,,,,,,,,1,07,3,1,,,,,,,,,,,,,,,,,,,,,,,,,,,,
631a1f357c56acbb68d5dc14,SCN,2024-06-10_12h19.27.612,LearnStrategy,2023.2.3,Win32,59.88023952,,,,,,,,,,,3,09,3,2,,,,,,,,,,,,,,,,,,,,,,,,,,,,
631a1f357c56acbb68d5dc14,SCN,2024-06-10_12h19.27.612,LearnStrategy,2023.2.3,Win32,59.88023952,,,,,,,,,,,6,11,3,3,,,,,,,,,,,,,,,,,,,,,,,,,,,,
631a1f357c56acbb68d5dc14,SCN,2024-06-10_12h19.27.612,LearnStrategy,2023.2.3,Win32,59.88023952,,,,,,,,,,,6,07,3,4,,,,,,,,,,,,,,,,,,,,,,,,,,,,
631a1f357c56acbb68d5dc14,SCN,2024-06-10_12h19.27.612,LearnStrategy,2023.2.3,Win32,59.88023952,,,,,,,,,,,6,15,3,5,,,,,,,,,,,,,,,,,,,,,,,,,,,,
631a1f357c56acbb68d5dc14,SCN,2024-06-10_12h19.27.612,LearnStrategy,2023.2.3,Win32,59.88023952,,,,,,,,,,,7,04,3,6,,,,,,,,,,,,,,,,,,,,,,,,,,,,
631a1f357c56acbb68d5dc14,SCN,2024-06-10_12h19.27.612,LearnStrategy,2023.2.3,Win32,59.88023952,,,,,,,,,,,5,09,3,7,,,,,,,,,,,,,,,,,,,,,,,,,,,,
631a1f357c56acbb68d5dc14,SCN,2024-06-10_12h19.27.612,LearnStrategy,2023.2.3,Win32,59.88023952,,,,,,,,,,,8,14,3,8,,,,,,,,,,,,,,,,,,,,,,,,,,,,
631a1f357c56acbb68d5dc14,SCN,2024-06-10_12h19.27.612,LearnStrategy,2023.2.3,Win32,59.88023952,,,,,,,,,,,4,16,4,1,,,,,,,,,,,,,,,,,,,,,,,,,,,,
631a1f357c56acbb68d5dc14,SCN,2024-06-10_12h19.27.612,LearnStrategy,2023.2.3,Win32,59.88023952,,,,,,,,,,,1,04,4,2,,,,,,,,,,,,,,,,,,,,,,,,,,,,
631a1f357c56acbb68d5dc14,SCN,2024-06-10_12h19.27.612,LearnStrategy,2023.2.3,Win32,59.88023952,,,,,,,,,,,7,07,4,3,,,,,,,,,,,,,,,,,,,,,,,,,,,,
631a1f357c56acbb68d5dc14,SCN,2024-06-10_12h19.27.612,LearnStrategy,2023.2.3,Win32,59.88023952,,,,,,,,,,,5,05,4,4,,,,,,,,,,,,,,,,,,,,,,,,,,,,
631a1f357c56acbb68d5dc14,SCN,2024-06-10_12h19.27.612,LearnStrategy,2023.2.3,Win32,59.88023952,,,,,,,,,,,4,13,4,5,,,,,,,,,,,,,,,,,,,,,,,,,,,,
631a1f357c56acbb68d5dc14,SCN,2024-06-10_12h19.27.612,LearnStrategy,2023.2.3,Win32,59.88023952,,,,,,,,,,,3,15,4,6,,,,,,,,,,,,,,,,,,,,,,,,,,,,
631a1f357c56acbb68d5dc14,SCN,2024-06-10_12h19.27.612,LearnStrategy,2023.2.3,Win32,59.88023952,,,,,,,,,,,8,03,4,7,,,,,,,,,,,,,,,,,,,,,,,,,,,,
631a1f357c56acbb68d5dc14,SCN,2024-06-10_12h19.27.612,LearnStrategy,2023.2.3,Win32,59.88023952,,,,,,,,,,,8,16,4,8,,,,,,,,,,,,,,,,,,,,,,,,,,,,
631a1f357c56acbb68d5dc14,SCN,2024-06-10_12h19.27.612,LearnStrategy,2023.2.3,Win32,59.88023952,,,,,,,,,,,5,11,5,1,,,,,,,,,,,,,,,,,,,,,,,,,,,,
631a1f357c56acbb68d5dc14,SCN,2024-06-10_12h19.27.612,LearnStrategy,2023.2.3,Win32,59.88023952,,,,,,,,,,,1,10,5,2,,,,,,,,,,,,,,,,,,,,,,,,,,,,
631a1f357c56acbb68d5dc14,SCN,2024-06-10_12h19.27.612,LearnStrategy,2023.2.3,Win32,59.88023952,,,,,,,,,,,6,05,5,3,,,,,,,,,,,,,,,,,,,,,,,,,,,,
631a1f357c56acbb68d5dc14,SCN,2024-06-10_12h19.27.612,LearnStrategy,2023.2.3,Win32,59.88023952,,,,,,,,,,,6,03,5,4,,,,,,,,,,,,,,,,,,,,,,,,,,,,
631a1f357c56acbb68d5dc14,SCN,2024-06-10_12h19.27.612,LearnStrategy,2023.2.3,Win32,59.88023952,,,,,,,,,,,2,11,5,5,,,,,,,,,,,,,,,,,,,,,,,,,,,,
631a1f357c56acbb68d5dc14,SCN,2024-06-10_12h19.27.612,LearnStrategy,2023.2.3,Win32,59.88023952,,,,,,,,,,,7,10,5,6,,,,,,,,,,,,,,,,,,,,,,,,,,,,
631a1f357c56acbb68d5dc14,SCN,2024-06-10_12h19.27.612,LearnStrategy,2023.2.3,Win32,59.88023952,,,,,,,,,,,4,08,5,7,,,,,,,,,,,,,,,,,,,,,,,,,,,,
631a1f357c56acbb68d5dc14,SCN,2024-06-10_12h19.27.612,LearnStrategy,2023.2.3,Win32,59.88023952,,,,,,,,,,,2,06,5,8,,,,,,,,,,,,,,,,,,,,,,,,,,,,
631a1f357c56acbb68d5dc14,SCN,2024-06-10_12h19.27.612,LearnStrategy,2023.2.3,Win32,59.88023952,,,,,,,,,,,7,05,6,1,,,,,,,,,,,,,,,,,,,,,,,,,,,,
631a1f357c56acbb68d5dc14,SCN,2024-06-10_12h19.27.612,LearnStrategy,2023.2.3,Win32,59.88023952,,,,,,,,,,,4,12,6,2,,,,,,,,,,,,,,,,,,,,,,,,,,,,
631a1f357c56acbb68d5dc14,SCN,2024-06-10_12h19.27.612,LearnStrategy,2023.2.3,Win32,59.88023952,,,,,,,,,,,2,10,6,3,,,,,,,,,,,,,,,,,,,,,,,,,,,,
631a1f357c56acbb68d5dc14,SCN,2024-06-10_12h19.27.612,LearnStrategy,2023.2.3,Win32,59.88023952,,,,,,,,,,,7,15,6,4,,,,,,,,,,,,,,,,,,,,,,,,,,,,
631a1f357c56acbb68d5dc14,SCN,2024-06-10_12h19.27.612,LearnStrategy,2023.2.3,Win32,59.88023952,,,,,,,,,,,7,08,6,5,,,,,,,,,,,,,,,,,,,,,,,,,,,,
631a1f357c56acbb68d5dc14,SCN,2024-06-10_12h19.27.612,LearnStrategy,2023.2.3,Win32,59.88023952,,,,,,,,,,,5,06,6,6,,,,,,,,,,,,,,,,,,,,,,,,,,,,
631a1f357c56acbb68d5dc14,SCN,2024-06-10_12h19.27.612,LearnStrategy,2023.2.3,Win32,59.88023952,,,,,,,,,,,1,06,6,7,,,,,,,,,,,,,,,,,,,,,,,,,,,,
631a1f357c56acbb68d5dc14,SCN,2024-06-10_12h19.27.612,LearnStrategy,2023.2.3,Win32,59.88023952,,,,,,,,,,,3,08,6,8,,,,,,,,,,,,,,,,,,,,,,,,,,,,