participant,condition,date,expName,psychopyVersion,OS,frameRate,block,phase,trial,learn_mouse.x,learn_mouse.y,learn_mouse.leftButton,learn_mouse.midButton,learn_mouse.rightButton,learn_mouse.time,learn_mouse.clicked_name,cat,token,row,col,t_select,cat_mouse_l.x,cat_mouse_l.y,cat_mouse_l.leftButton,cat_mouse_l.midButton,cat_mouse_l.rightButton,cat_mouse_l.time,cat_mouse_l.clicked_name,resp,t_resp,corr,train_trials.thisRepN,train_trials.thisTrialN,train_trials.thisN,train_trials.thisIndex,train_trials.ran,cat_mouse_t.x,cat_mouse_t.y,cat_mouse_t.leftButton,cat_mouse_t.midButton,cat_mouse_t.rightButton,cat_mouse_t.time,cat_mouse_t.clicked_name,test_trials.thisRepN,test_trials.thisTrialN,test_trials.thisN,test_trials.thisIndex,test_trials.ran,Bonus
631a68ee10ec68377cb03457,SCN,2024-06-20_15h31.24.686,LearnStrategy,2023.2.3,MacIntel,70.92198582,,,,,,,,,,,,,,,,,,,,,,,,,,,,,,,,,,,,,,,,,,,
631a68ee10ec68377cb03457,SCN,2024-06-20_15h31.24.686,LearnStrategy,2023.2.3,MacIntel,70.92198582,1,1,1,-0.532442587,0.406528445,1,0,0,2.5604,Pumice_05,8,05,6,1,2.56,-0.38050718,-0.242718167,1,0,0,3.0838,Andesite_rect,1,3.084,0,0,0,0,0,1,,,,,,,,,,,,,
631a68ee10ec68377cb03457,SCN,2024-06-20_15h31.24.686,LearnStrategy,2023.2.3,MacIntel,70.92198582,1,1,2,-0.074815821,-0.243721121,1,0,0,4.144,Obsidian_02,5,02,2,4,4.144,-0.361532141,-0.407025429,1,0,0,2.4823,Obsidian_rect,5,2.482,1,1,0,1,0,1,,,,,,,,,,,,,
631a68ee10ec68377cb03457,SCN,2024-06-20_15h31.24.686,LearnStrategy,2023.2.3,MacIntel,70.92198582,1,1,3,0.564489181,-0.105800657,1,0,0,1.6388,Peridotite_04,7,04,3,8,1.639,0.110992093,-0.264073238,1,0,0,1.559,Diorite_rect,3,1.559,0,2,0,2,0,1,,,,,,,,,,,,,
631a68ee10ec68377cb03457,SCN,2024-06-20_15h31.24.686,LearnStrategy,2023.2.3,MacIntel,70.92198582,1,1,4,0.261167512,0.405984116,1,0,0,3.25,Diorite_02,3,02,6,6,3.25,-0.202272712,-0.402551326,1,0,0,2.8628,Pegmatite_rect,6,2.863,0,3,0,3,0,1,,,,,,,,,,,,,
631a68ee10ec68377cb03457,SCN,2024-06-20_15h31.24.686,LearnStrategy,2023.2.3,MacIntel,70.92198582,1,1,5,0.375083528,-0.401833541,1,0,0,4.3585,Obsidian_07,5,07,1,7,4.358,-0.152587099,-0.259054283,1,0,0,1.3554,Basalt_rect,2,1.355,0,4,0,4,0,1,,,,,,,,,,,,,
631a68ee10ec68377cb03457,SCN,2024-06-20_15h31.24.686,LearnStrategy,2023.2.3,MacIntel,70.92198582,1,1,6,-0.535622689,-0.401267214,1,0,0,4.6913,Pumice_06,8,06,1,1,4.691,0.372728927,-0.40142551,1,0,0,1.7251,Pumice_rect,8,1.725,1,5,0,5,0,1,,,,,,,,,,,,,
631a68ee10ec68377cb03457,SCN,2024-06-20_15h31.24.686,LearnStrategy,2023.2.3,MacIntel,70.92198582,1,1,7,-0.522065254,0.06948115,1,0,0,2.6652,Pegmatite_11,6,11,4,1,2.665,-0.427089041,-0.25356807,1,0,0,0.7761,Andesite_rect,1,0.776,0,6,0,6,0,1,,,,,,,,,,,,,
631a68ee10ec68377cb03457,SCN,2024-06-20_15h31.24.686,LearnStrategy,2023.2.3,MacIntel,70.92198582,1,1,8,-0.406524319,0.383862276,1,0,0,5.1172,Pegmatite_09,6,09,6,2,5.117,-0.070130299,-0.257925867,1,0,0,1.3372,Basalt_rect,2,1.337,0,7,0,7,0,1,,,,,,,,,,,,,
631a68ee10ec68377cb03457,SCN,2024-06-20_15h31.24.686,LearnStrategy,2023.2.3,MacIntel,70.92198582,1,1,9,-0.221303078,0.398001819,1,0,0,1.6645,Andesite_04,1,04,6,3,1.665,-0.119967934,-0.236959387,1,0,0,1.2262,Basalt_rect,2,1.226,0,8,0,8,0,1,,,,,,,,,,,,,
631a68ee10ec68377cb03457,SCN,2024-06-20_15h31.24.686,LearnStrategy,2023.2.3,MacIntel,70.92198582,1,1,10,-0.278326416,-0.435323305,1,0,0,5.9965,Pegmatite_13,6,13,1,3,5.996,0.142776376,-0.257079456,1,0,0,3.7427,Diorite_rect,3,3.743,0,9,0,9,0,1,,,,,,,,,,,,,
631a68ee10ec68377cb03457,SCN,2024-06-20_15h31.24.686,LearnStrategy,2023.2.3,MacIntel,70.92198582,1,1,11,0.248694187,0.078076257,1,0,0,34.6807,Gabbro_15,4,15,4,6,34.681,0.37143826,-0.23445282,1,0,0,2.0136,Gabbro_rect,4,2.014,1,10,0,10,0,1,,,,,,,,,,,,,
631a68ee10ec68377cb03457,SCN,2024-06-20_15h31.24.686,LearnStrategy,2023.2.3,MacIntel,70.92198582,1,1,12,0.40415073,0.26007648,1,0,0,5.4909,Peridotite_12,7,12,5,7,5.491,-0.12159599,-0.270862551,1,0,0,2.5712,Basalt_rect,2,2.571,0,11,0,11,0,1,,,,,,,,,,,,,
631a68ee10ec68377cb03457,SCN,2024-06-20_15h31.24.686,LearnStrategy,2023.2.3,MacIntel,70.92198582,1,1,13,-0.400779724,0.245850485,1,0,0,2.2919,Gabbro_03,4,03,5,2,2.292,-0.080045629,-0.271660586,1,0,0,1.2342,Basalt_rect,2,1.234,0,12,0,12,0,1,,,,,,,,,,,,,
631a68ee10ec68377cb03457,SCN,2024-06-20_15h31.24.686,LearnStrategy,2023.2.3,MacIntel,70.92198582,1,1,14,0.214899812,0.294573226,1,0,0,2.3982,Diorite_09,3,09,5,6,2.398,0.300579043,-0.2480857,1,0,0,2.0395,Gabbro_rect,4,2.04,0,13,0,13,0,1,,,,,,,,,,,,,
631a68ee10ec68377cb03457,SCN,2024-06-20_15h31.24.686,LearnStrategy,2023.2.3,MacIntel,70.92198582,1,1,15,0.075811202,0.062545579,1,0,0,0.9057,Basalt_01,2,01,4,5,0.906,0.100248549,-0.247272633,1,0,0,1.1089,Diorite_rect,3,1.109,0,14,0,14,0,1,,,,,,,,,,,,,
631a68ee10ec68377cb03457,SCN,2024-06-20_15h31.24.686,LearnStrategy,2023.2.3,MacIntel,70.92198582,1,1,16,0.221478045,0.392639344,1,0,0,17.9683,Diorite_02,3,02,6,6,17.968,0.142215418,-0.2635554,1,0,0,3.0076,Diorite_rect,3,3.008,1,15,0,15,0,1,,,,,,,,,,,,,
631a68ee10ec68377cb03457,SCN,2024-06-20_15h31.24.686,LearnStrategy,2023.2.3,MacIntel,70.92198582,1,2,1,,,,,,,,6,08,,,,,,,,,,,6,6.923,1,,,,,,-0.064667878,-0.402537367,1,0,0,6.9225,Pegmatite_rect,0,0,0,0,1,
631a68ee10ec68377cb03457,SCN,2024-06-20_15h31.24.686,LearnStrategy,2023.2.3,MacIntel,70.92198582,1,2,2,,,,,,,,6,10,,,,,,,,,,,3,2.681,0,,,,,,0.151809805,-0.249173878,1,0,0,2.6806,Diorite_rect,1,0,1,0,1,
631a68ee10ec68377cb03457,SCN,2024-06-20_15h31.24.686,LearnStrategy,2023.2.3,MacIntel,70.92198582,1,2,3,,,,,,,,3,12,,,,,,,,,,,2,2.205,0,,,,,,-0.14997649,-0.237599917,1,0,0,2.2053,Basalt_rect,2,0,2,0,1,
631a68ee10ec68377cb03457,SCN,2024-06-20_15h31.24.686,LearnStrategy,2023.2.3,MacIntel,70.92198582,1,2,4,,,,,,,,5,08,,,,,,,,,,,5,1.432,1,,,,,,-0.473576101,-0.401817378,1,0,0,1.4322,Obsidian_rect,3,0,3,0,1,
631a68ee10ec68377cb03457,SCN,2024-06-20_15h31.24.686,LearnStrategy,2023.2.3,MacIntel,70.92198582,1,2,5,,,,,,,,8,04,,,,,,,,,,,8,3.212,1,,,,,,0.369732892,-0.389196551,1,0,0,3.212,Pumice_rect,4,0,4,0,1,
631a68ee10ec68377cb03457,SCN,2024-06-20_15h31.24.686,LearnStrategy,2023.2.3,MacIntel,70.92198582,1,2,6,,,,,,,,8,13,,,,,,,,,,,8,1.682,1,,,,,,0.36992131,-0.389196551,1,0,0,1.6819,Pumice_rect,5,0,5,0,1,
631a68ee10ec68377cb03457,SCN,2024-06-20_15h31.24.686,LearnStrategy,2023.2.3,MacIntel,70.92198582,1,2,7,,,,,,,,7,02,,,,,,,,,,,7,1.397,1,,,,,,0.100967181,-0.417458767,1,0,0,1.3972,Peridotite_rect,6,0,6,0,1,
631a68ee10ec68377cb03457,SCN,2024-06-20_15h31.24.686,LearnStrategy,2023.2.3,MacIntel,70.92198582,1,2,8,,,,,,,,1,10,,,,,,,,,,,4,2.814,0,,,,,,0.38948093,-0.259741437,1,0,0,2.814,Gabbro_rect,7,0,7,0,1,
631a68ee10ec68377cb03457,SCN,2024-06-20_15h31.24.686,LearnStrategy,2023.2.3,MacIntel,70.92198582,1,2,9,,,,,,,,3,06,,,,,,,,,,,1,2.207,0,,,,,,-0.42089516,-0.251173231,1,0,0,2.2067,Andesite_rect,8,0,8,0,1,
631a68ee10ec68377cb03457,SCN,2024-06-20_15h31.24.686,LearnStrategy,2023.2.3,MacIntel,70.92198582,1,2,10,,,,,,,,7,13,,,,,,,,,,,3,1.206,0,,,,,,0.129344121,-0.264999333,1,0,0,1.2058,Diorite_rect,9,0,9,0,1,
631a68ee10ec68377cb03457,SCN,2024-06-20_15h31.24.686,LearnStrategy,2023.2.3,MacIntel,70.92198582,1,2,11,,,,,,,,2,05,,,,,,,,,,,2,5.026,1,,,,,,-0.098662539,-0.259036085,1,0,0,5.0257,Basalt_rect,10,0,10,0,1,
631a68ee10ec68377cb03457,SCN,2024-06-20_15h31.24.686,LearnStrategy,2023.2.3,MacIntel,70.92198582,1,2,12,,,,,,,,4,10,,,,,,,,,,,5,1.737,0,,,,,,-0.429355508,-0.395829038,1,0,0,1.7374,Obsidian_rect,11,0,11,0,1,
631a68ee10ec68377cb03457,SCN,2024-06-20_15h31.24.686,LearnStrategy,2023.2.3,MacIntel,70.92198582,1,2,13,,,,,,,,1,05,,,,,,,,,,,7,1.884,0,,,,,,0.036727736,-0.393617588,1,0,0,1.8843,Peridotite_rect,12,0,12,0,1,
631a68ee10ec68377cb03457,SCN,2024-06-20_15h31.24.686,LearnStrategy,2023.2.3,MacIntel,70.92198582,1,2,14,,,,,,,,2,06,,,,,,,,,,,5,4.012,0,,,,,,-0.383769791,-0.413975581,1,0,0,4.0117,Obsidian_rect,13,0,13,0,1,
631a68ee10ec68377cb03457,SCN,2024-06-20_15h31.24.686,LearnStrategy,2023.2.3,MacIntel,70.92198582,1,2,15,,,,,,,,4,12,,,,,,,,,,,3,7.066,0,,,,,,0.15185513,-0.24825349,1,0,0,7.0657,Diorite_rect,14,0,14,0,1,
631a68ee10ec68377cb03457,SCN,2024-06-20_15h31.24.686,LearnStrategy,2023.2.3,MacIntel,70.92198582,1,2,16,,,,,,,,5,05,,,,,,,,,,,5,1.191,1,,,,,,-0.40111587,-0.418467938,1,0,0,1.1911,Obsidian_rect,15,0,15,0,1,
631a68ee10ec68377cb03457,SCN,2024-06-20_15h31.24.686,LearnStrategy,2023.2.3,MacIntel,70.92198582,2,1,1,-0.556872333,0.094585843,1,0,0,4.7714,Pegmatite_11,6,11,4,1,4.771,0.133153958,-0.243701963,1,0,0,1.7662,Diorite_rect,3,1.766,0,0,0,0,0,1,,,,,,,,,,,,,
631a68ee10ec68377cb03457,SCN,2024-06-20_15h31.24.686,LearnStrategy,2023.2.3,MacIntel,70.92198582,2,1,2,-0.393868001,-0.25771733,1,0,0,2.4249,Pegmatite_07,6,07,2,2,2.425,-0.149941169,-0.410715004,1,0,0,2.1515,Pegmatite_rect,6,2.151,1,1,0,1,0,1,,,,,,,,,,,,,
631a68ee10ec68377cb03457,SCN,2024-06-20_15h31.24.686,LearnStrategy,2023.2.3,MacIntel,70.92198582,2,1,3,0.079174353,-0.094512826,1,0,0,1.0788,Peridotite_06,7,06,3,5,1.079,-0.165686374,-0.401679371,1,0,0,0.6857,Pegmatite_rect,6,0.686,0,2,0,2,0,1,,,,,,,,,,,,,
631a68ee10ec68377cb03457,SCN,2024-06-20_15h31.24.686,LearnStrategy,2023.2.3,MacIntel,70.92198582,2,1,4,0.221745357,-0.111034309,1,0,0,1.2779,Pegmatite_03,6,03,3,6,1.278,0.127557712,-0.398275757,1,0,0,1.8795,Peridotite_rect,7,1.879,0,3,0,3,0,1,,,,,,,,,,,,,
631a68ee10ec68377cb03457,SCN,2024-06-20_15h31.24.686,LearnStrategy,2023.2.3,MacIntel,70.92198582,2,1,5,0.041013195,-0.128135342,1,0,0,1.9053,Peridotite_06,7,06,3,5,1.905,-0.128317882,-0.40895787,1,0,0,0.8461,Pegmatite_rect,6,0.846,0,4,0,4,0,1,,,,,,,,,,,,,
631a68ee10ec68377cb03457,SCN,2024-06-20_15h31.24.686,LearnStrategy,2023.2.3,MacIntel,70.92198582,2,1,6,-0.412400592,-0.273959577,1,0,0,6.8516,Pegmatite_07,6,07,2,2,6.852,-0.187800655,-0.390741249,1,0,0,1.529,Pegmatite_rect,6,1.529,1,5,0,5,0,1,,,,,,,,,,,,,
631a68ee10ec68377cb03457,SCN,2024-06-20_15h31.24.686,LearnStrategy,2023.2.3,MacIntel,70.92198582,2,1,7,-0.420186078,0.431204294,1,0,0,4.0917,Pegmatite_09,6,09,6,2,4.092,0.112930524,-0.390320615,1,0,0,1.4295,Peridotite_rect,7,1.43,0,6,0,6,0,1,,,,,,,,,,,,,
631a68ee10ec68377cb03457,SCN,2024-06-20_15h31.24.686,LearnStrategy,2023.2.3,MacIntel,70.92198582,2,1,8,0.394746455,0.277743389,1,0,0,2.9977,Peridotite_12,7,12,5,7,2.998,0.125590798,-0.385345855,1,0,0,1.0189,Peridotite_rect,7,1.019,1,7,0,7,0,1,,,,,,,,,,,,,
631a68ee10ec68377cb03457,SCN,2024-06-20_15h31.24.686,LearnStrategy,2023.2.3,MacIntel,70.92198582,2,1,9,-0.255997495,-0.234668025,1,0,0,6.0092,Basalt_09,2,09,2,3,6.009,-0.109367484,-0.26254182,1,0,0,3.3539,Basalt_rect,2,3.354,1,8,0,8,0,1,,,,,,,,,,,,,
631a68ee10ec68377cb03457,SCN,2024-06-20_15h31.24.686,LearnStrategy,2023.2.3,MacIntel,70.92198582,2,1,10,0.024368399,0.106099927,1,0,0,0.7044,Basalt_01,2,01,4,5,0.704,-0.12237498,-0.234362115,1,0,0,0.7899,Basalt_rect,2,0.79,1,9,0,9,0,1,,,,,,,,,,,,,
631a68ee10ec68377cb03457,SCN,2024-06-20_15h31.24.686,LearnStrategy,2023.2.3,MacIntel,70.92198582,2,1,11,-0.222423412,0.258203351,1,0,0,0.7854,Andesite_11,1,11,5,3,0.785,0.170877075,-0.239867034,1,0,0,1.5065,Diorite_rect,3,1.506,0,10,0,10,0,1,,,,,,,,,,,,,
631a68ee10ec68377cb03457,SCN,2024-06-20_15h31.24.686,LearnStrategy,2023.2.3,MacIntel,70.92198582,2,1,12,0.434452311,0.271382226,1,0,0,2.2521,Peridotite_12,7,12,5,7,2.252,0.11584111,-0.403559593,1,0,0,1.1,Peridotite_rect,7,1.1,1,11,0,11,0,1,,,,,,,,,,,,,
631a68ee10ec68377cb03457,SCN,2024-06-20_15h31.24.686,LearnStrategy,2023.2.3,MacIntel,70.92198582,2,1,13,-0.219187249,-0.076883613,1,0,0,1.1194,Gabbro_05,4,05,3,3,1.119,-0.151501352,-0.413080117,1,0,0,1.1462,Pegmatite_rect,6,1.146,0,12,0,12,0,1,,,,,,,,,,,,,
631a68ee10ec68377cb03457,SCN,2024-06-20_15h31.24.686,LearnStrategy,2023.2.3,MacIntel,70.92198582,2,1,14,-0.405918093,0.388129114,1,0,0,1.6918,Pegmatite_09,6,09,6,2,1.692,-0.102373872,-0.406200155,1,0,0,1.8921,Pegmatite_rect,6,1.892,1,13,0,13,0,1,,,,,,,,,,,,,
631a68ee10ec68377cb03457,SCN,2024-06-20_15h31.24.686,LearnStrategy,2023.2.3,MacIntel,70.92198582,2,1,15,-0.393852969,-0.272699935,1,0,0,4.5393,Pegmatite_07,6,07,2,2,4.539,-0.138474415,-0.415763064,1,0,0,2.9597,Pegmatite_rect,6,2.96,1,14,0,14,0,1,,,,,,,,,,,,,
631a68ee10ec68377cb03457,SCN,2024-06-20_15h31.24.686,LearnStrategy,2023.2.3,MacIntel,70.92198582,2,1,16,0.084166011,-0.113095206,1,0,0,0.8511,Peridotite_06,7,06,3,5,0.851,0.105130005,-0.411705865,1,0,0,12.8545,Peridotite_rect,7,12.854,1,15,0,15,0,1,,,,,,,,,,,,,
631a68ee10ec68377cb03457,SCN,2024-06-20_15h31.24.686,LearnStrategy,2023.2.3,MacIntel,70.92198582,2,2,1,,,,,,,,7,14,,,,,,,,,,,1,5.058,0,,,,,,-0.438668371,-0.255255749,1,0,0,5.0584,Andesite_rect,0,0,0,0,1,
631a68ee10ec68377cb03457,SCN,2024-06-20_15h31.24.686,LearnStrategy,2023.2.3,MacIntel,70.92198582,2,2,2,,,,,,,,6,16,,,,,,,,,,,4,5.292,0,,,,,,0.437020761,-0.261431546,1,0,0,5.2919,Gabbro_rect,1,0,1,0,1,
631a68ee10ec68377cb03457,SCN,2024-06-20_15h31.24.686,LearnStrategy,2023.2.3,MacIntel,70.92198582,2,2,3,,,,,,,,4,08,,,,,,,,,,,3,10.601,0,,,,,,0.154863033,-0.266569293,1,0,0,10.6009,Diorite_rect,2,0,2,0,1,
631a68ee10ec68377cb03457,SCN,2024-06-20_15h31.24.686,LearnStrategy,2023.2.3,MacIntel,70.92198582,2,2,4,,,,,,,,7,07,,,,,,,,,,,6,8.802,0,,,,,,-0.139794357,-0.415986012,1,0,0,8.8015,Pegmatite_rect,3,0,3,0,1,
631a68ee10ec68377cb03457,SCN,2024-06-20_15h31.24.686,LearnStrategy,2023.2.3,MacIntel,70.92198582,2,2,5,,,,,,,,2,04,,,,,,,,,,,2,4.91,1,,,,,,-0.102968739,-0.266352223,1,0,0,4.9096,Basalt_rect,4,0,4,0,1,
631a68ee10ec68377cb03457,SCN,2024-06-20_15h31.24.686,LearnStrategy,2023.2.3,MacIntel,70.92198582,2,2,6,,,,,,,,5,06,,,,,,,,,,,5,1.173,1,,,,,,-0.359097799,-0.384321481,1,0,0,1.1731,Obsidian_rect,5,0,5,0,1,
631a68ee10ec68377cb03457,SCN,2024-06-20_15h31.24.686,LearnStrategy,2023.2.3,MacIntel,70.92198582,2,2,7,,,,,,,,5,12,,,,,,,,,,,5,1.562,1,,,,,,-0.365219342,-0.392923934,1,0,0,1.5617,Obsidian_rect,6,0,6,0,1,
631a68ee10ec68377cb03457,SCN,2024-06-20_15h31.24.686,LearnStrategy,2023.2.3,MacIntel,70.92198582,2,2,8,,,,,,,,8,15,,,,,,,,,,,8,1.549,1,,,,,,0.3997458,-0.405786076,1,0,0,1.5488,Pumice_rect,7,0,7,0,1,
631a68ee10ec68377cb03457,SCN,2024-06-20_15h31.24.686,LearnStrategy,2023.2.3,MacIntel,70.92198582,2,2,9,,,,,,,,2,10,,,,,,,,,,,2,1.919,1,,,,,,-0.077903748,-0.26356026,1,0,0,1.9187,Basalt_rect,8,0,8,0,1,
631a68ee10ec68377cb03457,SCN,2024-06-20_15h31.24.686,LearnStrategy,2023.2.3,MacIntel,70.92198582,2,2,10,,,,,,,,4,14,,,,,,,,,,,4,2.687,1,,,,,,0.374093515,-0.24091763,1,0,0,2.6873,Gabbro_rect,9,0,9,0,1,
631a68ee10ec68377cb03457,SCN,2024-06-20_15h31.24.686,LearnStrategy,2023.2.3,MacIntel,70.92198582,2,2,11,,,,,,,,8,16,,,,,,,,,,,8,1.193,1,,,,,,0.372338754,-0.406397671,1,0,0,1.1926,Pumice_rect,10,0,10,0,1,
631a68ee10ec68377cb03457,SCN,2024-06-20_15h31.24.686,LearnStrategy,2023.2.3,MacIntel,70.92198582,2,2,12,,,,,,,,1,14,,,,,,,,,,,6,2.757,0,,,,,,-0.120025522,-0.408734922,1,0,0,2.7573,Pegmatite_rect,11,0,11,0,1,
631a68ee10ec68377cb03457,SCN,2024-06-20_15h31.24.686,LearnStrategy,2023.2.3,MacIntel,70.92198582,2,2,13,,,,,,,,3,11,,,,,,,,,,,6,2.242,0,,,,,,-0.112489375,-0.409676954,1,0,0,2.2417,Pegmatite_rect,12,0,12,0,1,
631a68ee10ec68377cb03457,SCN,2024-06-20_15h31.24.686,LearnStrategy,2023.2.3,MacIntel,70.92198582,2,2,14,,,,,,,,3,14,,,,,,,,,,,7,1.978,0,,,,,,0.085728285,-0.408269642,1,0,0,1.9776,Peridotite_rect,13,0,13,0,1,
631a68ee10ec68377cb03457,SCN,2024-06-20_15h31.24.686,LearnStrategy,2023.2.3,MacIntel,70.92198582,2,2,15,,,,,,,,6,05,,,,,,,,,,,2,3.111,0,,,,,,-0.141817446,-0.253718228,1,0,0,3.1107,Basalt_rect,14,0,14,0,1,
631a68ee10ec68377cb03457,SCN,2024-06-20_15h31.24.686,LearnStrategy,2023.2.3,MacIntel,70.92198582,2,2,16,,,,,,,,1,03,,,,,,,,,,,1,5.668,1,,,,,,-0.33397765,-0.258814889,1,0,0,5.6683,Andesite_rect,15,0,15,0,1,
631a68ee10ec68377cb03457,SCN,2024-06-20_15h31.24.686,LearnStrategy,2023.2.3,MacIntel,70.92198582,3,1,1,0.062270101,0.260913114,1,0,0,6.6644,Diorite_08,3,08,5,5,6.664,0.165323102,-0.258251671,1,0,0,1.5493,Diorite_rect,3,1.549,1,0,0,0,0,1,,,,,,,,,,,,,
631a68ee10ec68377cb03457,SCN,2024-06-20_15h31.24.686,LearnStrategy,2023.2.3,MacIntel,70.92198582,3,1,2,0.251711471,0.447772443,1,0,0,2.1053,Diorite_02,3,02,6,6,2.105,0.112230089,-0.253462502,1,0,0,0.9601,Diorite_rect,3,0.96,1,1,0,1,0,1,,,,,,,,,,,,,
631a68ee10ec68377cb03457,SCN,2024-06-20_15h31.24.686,LearnStrategy,2023.2.3,MacIntel,70.92198582,3,1,3,0.404908244,0.391628859,1,0,0,6.9047,Andesite_06,1,06,6,7,6.905,0.098798738,-0.236730166,1,0,0,0.7261,Diorite_rect,3,0.726,0,2,0,2,0,1,,,,,,,,,,,,,
631a68ee10ec68377cb03457,SCN,2024-06-20_15h31.24.686,LearnStrategy,2023.2.3,MacIntel,70.92198582,3,1,4,0.351424493,-0.251566569,1,0,0,2.3719,Peridotite_05,7,05,2,7,2.372,0.121818486,-0.240032846,1,0,0,1.1872,Diorite_rect,3,1.187,0,3,0,3,0,1,,,,,,,,,,,,,
631a68ee10ec68377cb03457,SCN,2024-06-20_15h31.24.686,LearnStrategy,2023.2.3,MacIntel,70.92198582,3,1,5,0.398331706,-0.292851822,1,0,0,1.0524,Peridotite_05,7,05,2,7,1.052,0.150061261,-0.40520839,1,0,0,7.543,Peridotite_rect,7,7.543,1,4,0,4,0,1,,,,,,,,,,,,,
631a68ee10ec68377cb03457,SCN,2024-06-20_15h31.24.686,LearnStrategy,2023.2.3,MacIntel,70.92198582,3,1,6,-0.380139612,-0.240495978,1,0,0,3.2368,Pegmatite_07,6,07,2,2,3.237,-0.132034358,-0.401176679,1,0,0,1.2279,Pegmatite_rect,6,1.228,1,5,0,5,0,1,,,,,,,,,,,,,
631a68ee10ec68377cb03457,SCN,2024-06-20_15h31.24.686,LearnStrategy,2023.2.3,MacIntel,70.92198582,3,1,7,0.419126496,0.090869762,1,0,0,2.1593,Andesite_07,1,07,4,7,2.159,-0.351501182,-0.255604214,1,0,0,2.1711,Andesite_rect,1,2.171,1,6,0,6,0,1,,,,,,,,,,,,,
631a68ee10ec68377cb03457,SCN,2024-06-20_15h31.24.686,LearnStrategy,2023.2.3,MacIntel,70.92198582,3,1,8,0.543840196,0.372089782,1,0,0,2.0902,Pumice_02,8,02,6,8,2.09,0.362760417,-0.40116402,1,0,0,1.0169,Pumice_rect,8,1.017,1,7,0,7,0,1,,,,,,,,,,,,,
631a68ee10ec68377cb03457,SCN,2024-06-20_15h31.24.686,LearnStrategy,2023.2.3,MacIntel,70.92198582,3,1,9,-0.262226755,-0.426416524,1,0,0,3.9177,Pegmatite_13,6,13,1,3,3.918,0.085854424,-0.248455019,1,0,0,3.121,Diorite_rect,3,3.121,0,8,0,8,0,1,,,,,,,,,,,,,
631a68ee10ec68377cb03457,SCN,2024-06-20_15h31.24.686,LearnStrategy,2023.2.3,MacIntel,70.92198582,3,1,10,0.416319557,0.252758111,1,0,0,6.3422,Peridotite_12,7,12,5,7,6.342,-0.120782979,-0.388372464,1,0,0,1.7941,Pegmatite_rect,6,1.794,0,9,0,9,0,1,,,,,,,,,,,,,
631a68ee10ec68377cb03457,SCN,2024-06-20_15h31.24.686,LearnStrategy,2023.2.3,MacIntel,70.92198582,3,1,11,-0.368837823,0.387034932,1,0,0,3.4628,Pegmatite_09,6,09,6,2,3.463,0.096364791,-0.413746643,1,0,0,1.2938,Peridotite_rect,7,1.294,0,10,0,10,0,1,,,,,,,,,,,,,
631a68ee10ec68377cb03457,SCN,2024-06-20_15h31.24.686,LearnStrategy,2023.2.3,MacIntel,70.92198582,3,1,12,0.063791459,-0.119132939,1,0,0,1.0119,Peridotite_06,7,06,3,5,1.012,0.134115488,-0.41068217,1,0,0,1.4924,Peridotite_rect,7,1.492,1,11,0,11,0,1,,,,,,,,,,,,,
631a68ee10ec68377cb03457,SCN,2024-06-20_15h31.24.686,LearnStrategy,2023.2.3,MacIntel,70.92198582,3,1,13,-0.552301845,0.071085442,1,0,0,2.6905,Pegmatite_11,6,11,4,1,2.691,0.094473267,-0.421986389,1,0,0,1.5558,Peridotite_rect,7,1.556,0,12,0,12,0,1,,,,,,,,,,,,,
631a68ee10ec68377cb03457,SCN,2024-06-20_15h31.24.686,LearnStrategy,2023.2.3,MacIntel,70.92198582,3,1,14,0.060730772,-0.080967825,1,0,0,1.0531,Peridotite_06,7,06,3,5,1.053,0.073882492,-0.40759656,1,0,0,0.8458,Peridotite_rect,7,0.846,1,13,0,13,0,1,,,,,,,,,,,,,
631a68ee10ec68377cb03457,SCN,2024-06-20_15h31.24.686,LearnStrategy,2023.2.3,MacIntel,70.92198582,3,1,15,0.414300537,0.437231431,1,0,0,5.7695,Andesite_06,1,06,6,7,5.769,0.162362897,-0.254482806,1,0,0,1.4569,Diorite_rect,3,1.457,0,14,0,14,0,1,,,,,,,,,,,,,
631a68ee10ec68377cb03457,SCN,2024-06-20_15h31.24.686,LearnStrategy,2023.2.3,MacIntel,70.92198582,3,1,16,-0.210053734,0.2685497,1,0,0,1.878,Andesite_11,1,11,5,3,1.878,-0.365521805,-0.248809588,1,0,0,0.7606,Andesite_rect,1,0.761,1,15,0,15,0,1,,,,,,,,,,,,,
631a68ee10ec68377cb03457,SCN,2024-06-20_15h31.24.686,LearnStrategy,2023.2.3,MacIntel,70.92198582,3,2,1,,,,,,,,2,11,,,,,,,,,,,2,4.123,1,,,,,,-0.137265636,-0.25507496,1,0,0,4.1227,Basalt_rect,0,0,0,0,1,
631a68ee10ec68377cb03457,SCN,2024-06-20_15h31.24.686,LearnStrategy,2023.2.3,MacIntel,70.92198582,3,2,2,,,,,,,,1,01,,,,,,,,,,,1,1.38,1,,,,,,-0.340414542,-0.256042876,1,0,0,1.3798,Andesite_rect,1,0,1,0,1,
631a68ee10ec68377cb03457,SCN,2024-06-20_15h31.24.686,LearnStrategy,2023.2.3,MacIntel,70.92198582,3,2,3,,,,,,,,8,09,,,,,,,,,,,8,1.227,1,,,,,,0.477699562,-0.399594342,1,0,0,1.2271,Pumice_rect,2,0,2,0,1,
631a68ee10ec68377cb03457,SCN,2024-06-20_15h31.24.686,LearnStrategy,2023.2.3,MacIntel,70.92198582,3,2,4,,,,,,,,7,15,,,,,,,,,,,7,1.758,1,,,,,,0.186394359,-0.407073522,1,0,0,1.7578,Peridotite_rect,3,0,3,0,1,
631a68ee10ec68377cb03457,SCN,2024-06-20_15h31.24.686,LearnStrategy,2023.2.3,MacIntel,70.92198582,3,2,5,,,,,,,,7,16,,,,,,,,,,,6,3.57,0,,,,,,-0.118179604,-0.409551493,1,0,0,3.5698,Pegmatite_rect,4,0,4,0,1,
631a68ee10ec68377cb03457,SCN,2024-06-20_15h31.24.686,LearnStrategy,2023.2.3,MacIntel,70.92198582,3,2,6,,,,,,,,6,15,,,,,,,,,,,6,1.238,1,,,,,,-0.110643457,-0.402768962,1,0,0,1.2385,Pegmatite_rect,5,0,5,0,1,
631a68ee10ec68377cb03457,SCN,2024-06-20_15h31.24.686,LearnStrategy,2023.2.3,MacIntel,70.92198582,3,2,7,,,,,,,,8,08,,,,,,,,,,,8,1.279,1,,,,,,0.411287435,-0.404223859,1,0,0,1.2789,Pumice_rect,6,0,6,0,1,
631a68ee10ec68377cb03457,SCN,2024-06-20_15h31.24.686,LearnStrategy,2023.2.3,MacIntel,70.92198582,3,2,8,,,,,,,,3,07,,,,,,,,,,,1,4.185,0,,,,,,-0.396710883,-0.247494394,1,0,0,4.185,Andesite_rect,7,0,7,0,1,
631a68ee10ec68377cb03457,SCN,2024-06-20_15h31.24.686,LearnStrategy,2023.2.3,MacIntel,70.92198582,3,2,9,,,,,,,,6,12,,,,,,,,,,,6,3.604,1,,,,,,-0.143625839,-0.415609063,1,0,0,3.6045,Pegmatite_rect,8,0,8,0,1,
631a68ee10ec68377cb03457,SCN,2024-06-20_15h31.24.686,LearnStrategy,2023.2.3,MacIntel,70.92198582,3,2,10,,,,,,,,5,11,,,,,,,,,,,5,0.92,1,,,,,,-0.352839435,-0.41918934,1,0,0,0.9202,Obsidian_rect,9,0,9,0,1,
631a68ee10ec68377cb03457,SCN,2024-06-20_15h31.24.686,LearnStrategy,2023.2.3,MacIntel,70.92198582,3,2,11,,,,,,,,4,16,,,,,,,,,,,2,2.56,0,,,,,,-0.165219116,-0.250896426,1,0,0,2.5598,Basalt_rect,10,0,10,0,1,
631a68ee10ec68377cb03457,SCN,2024-06-20_15h31.24.686,LearnStrategy,2023.2.3,MacIntel,70.92198582,3,2,12,,,,,,,,4,01,,,,,,,,,,,6,2.168,0,,,,,,-0.147532089,-0.401857729,1,0,0,2.1678,Pegmatite_rect,11,0,11,0,1,
631a68ee10ec68377cb03457,SCN,2024-06-20_15h31.24.686,LearnStrategy,2023.2.3,MacIntel,70.92198582,3,2,13,,,,,,,,2,14,,,,,,,,,,,8,1.24,0,,,,,,0.452184833,-0.38959441,1,0,0,1.2401,Pumice_rect,12,0,12,0,1,
631a68ee10ec68377cb03457,SCN,2024-06-20_15h31.24.686,LearnStrategy,2023.2.3,MacIntel,70.92198582,3,2,14,,,,,,,,3,16,,,,,,,,,,,1,1.481,0,,,,,,-0.422938651,-0.23568556,1,0,0,1.4813,Andesite_rect,13,0,13,0,1,
631a68ee10ec68377cb03457,SCN,2024-06-20_15h31.24.686,LearnStrategy,2023.2.3,MacIntel,70.92198582,3,2,15,,,,,,,,1,16,,,,,,,,,,,6,6.176,0,,,,,,-0.194567362,-0.412296549,1,0,0,6.1761,Pegmatite_rect,14,0,14,0,1,
631a68ee10ec68377cb03457,SCN,2024-06-20_15h31.24.686,LearnStrategy,2023.2.3,MacIntel,70.92198582,3,2,16,,,,,,,,5,14,,,,,,,,,,,5,0.911,1,,,,,,-0.392018749,-0.395682949,1,0,0,0.9115,Obsidian_rect,15,0,15,0,1,
631a68ee10ec68377cb03457,SCN,2024-06-20_15h31.24.686,LearnStrategy,2023.2.3,MacIntel,70.92198582,4,1,1,-0.225867716,0.394292775,1,0,0,8.1034,Andesite_04,1,04,6,3,8.103,-0.403830408,-0.244569058,1,0,0,1.0146,Andesite_rect,1,1.015,1,0,0,0,0,1,,,,,,,,,,,,,
631a68ee10ec68377cb03457,SCN,2024-06-20_15h31.24.686,LearnStrategy,2023.2.3,MacIntel,70.92198582,4,1,2,-0.380700966,0.215558087,1,0,0,3.7846,Gabbro_03,4,03,5,2,3.785,-0.382306756,-0.244374989,1,0,0,0.9528,Andesite_rect,1,0.953,0,1,0,1,0,1,,,,,,,,,,,,,
631a68ee10ec68377cb03457,SCN,2024-06-20_15h31.24.686,LearnStrategy,2023.2.3,MacIntel,70.92198582,4,1,3,-0.402368955,-0.431588632,1,0,0,4.2114,Gabbro_09,4,09,1,2,4.211,-0.16755648,-0.266227214,1,0,0,2.3173,Basalt_rect,2,2.317,0,2,0,2,0,1,,,,,,,,,,,,,
631a68ee10ec68377cb03457,SCN,2024-06-20_15h31.24.686,LearnStrategy,2023.2.3,MacIntel,70.92198582,4,1,4,0.381180488,-0.259731208,1,0,0,1.9853,Peridotite_05,7,05,2,7,1.985,0.154263306,-0.417764,1,0,0,2.7885,Peridotite_rect,7,2.788,1,3,0,3,0,1,,,,,,,,,,,,,
631a68ee10ec68377cb03457,SCN,2024-06-20_15h31.24.686,LearnStrategy,2023.2.3,MacIntel,70.92198582,4,1,5,0.095447003,-0.221903596,1,0,0,1.545,Diorite_13,3,13,2,5,1.545,0.106605473,-0.237387707,1,0,0,1.2107,Diorite_rect,3,1.211,1,4,0,4,0,1,,,,,,,,,,,,,
631a68ee10ec68377cb03457,SCN,2024-06-20_15h31.24.686,LearnStrategy,2023.2.3,MacIntel,70.92198582,4,1,6,0.408286427,0.090732744,1,0,0,1.5332,Andesite_07,1,07,4,7,1.533,0.143376781,-0.241502324,1,0,0,0.7527,Diorite_rect,3,0.753,0,5,0,5,0,1,,,,,,,,,,,,,
631a68ee10ec68377cb03457,SCN,2024-06-20_15h31.24.686,LearnStrategy,2023.2.3,MacIntel,70.92198582,4,1,7,0.099072492,-0.27904454,1,0,0,2.3464,Diorite_13,3,13,2,5,2.346,0.117535966,-0.247957922,1,0,0,1.653,Diorite_rect,3,1.653,1,6,0,6,0,1,,,,,,,,,,,,,
631a68ee10ec68377cb03457,SCN,2024-06-20_15h31.24.686,LearnStrategy,2023.2.3,MacIntel,70.92198582,4,1,8,0.392495841,0.362282266,1,0,0,1.6121,Andesite_06,1,06,6,7,1.612,-0.331585128,-0.259464744,1,0,0,0.9366,Andesite_rect,1,0.937,1,7,0,7,0,1,,,,,,,,,,,,,
631a68ee10ec68377cb03457,SCN,2024-06-20_15h31.24.686,LearnStrategy,2023.2.3,MacIntel,70.92198582,4,1,9,0.10687075,0.264928578,1,0,0,1.1466,Diorite_08,3,08,5,5,1.147,0.135677988,-0.251175492,1,0,0,1.3087,Diorite_rect,3,1.309,1,8,0,8,0,1,,,,,,,,,,,,,
631a68ee10ec68377cb03457,SCN,2024-06-20_15h31.24.686,LearnStrategy,2023.2.3,MacIntel,70.92198582,4,1,10,-0.117887483,0.4027591,1,0,0,0.9861,Diorite_10,3,10,6,4,0.986,-0.377959414,-0.265008432,1,0,0,1.3913,Andesite_rect,1,1.391,0,9,0,9,0,1,,,,,,,,,,,,,
631a68ee10ec68377cb03457,SCN,2024-06-20_15h31.24.686,LearnStrategy,2023.2.3,MacIntel,70.92198582,4,1,11,-0.360901896,0.223151963,1,0,0,2.3315,Gabbro_03,4,03,5,2,2.332,-0.329044483,-0.25013699,1,0,0,4.2498,Andesite_rect,1,4.25,0,10,0,10,0,1,,,,,,,,,,,,,
631a68ee10ec68377cb03457,SCN,2024-06-20_15h31.24.686,LearnStrategy,2023.2.3,MacIntel,70.92198582,4,1,12,-0.518584131,-0.248538321,1,0,0,1.9723,Peridotite_10,7,10,2,1,1.972,-0.155832926,-0.408262352,1,0,0,1.3217,Pegmatite_rect,6,1.322,0,11,0,11,0,1,,,,,,,,,,,,,
631a68ee10ec68377cb03457,SCN,2024-06-20_15h31.24.686,LearnStrategy,2023.2.3,MacIntel,70.92198582,4,1,13,-0.593102406,-0.219772734,1,0,0,0.6663,Peridotite_10,7,10,2,1,0.666,0.150680994,-0.409826547,1,0,0,2.9137,Peridotite_rect,7,2.914,1,12,0,12,0,1,,,,,,,,,,,,,
631a68ee10ec68377cb03457,SCN,2024-06-20_15h31.24.686,LearnStrategy,2023.2.3,MacIntel,70.92198582,4,1,14,0.044658237,-0.076243761,1,0,0,0.9584,Peridotite_06,7,06,3,5,0.958,0.098155947,-0.382645218,1,0,0,1.3208,Peridotite_rect,7,1.321,1,13,0,13,0,1,,,,,,,,,,,,,
631a68ee10ec68377cb03457,SCN,2024-06-20_15h31.24.686,LearnStrategy,2023.2.3,MacIntel,70.92198582,4,1,15,-0.51600873,0.04503154,1,0,0,1.119,Pegmatite_11,6,11,4,1,1.119,-0.144563859,-0.404362036,1,0,0,3.2669,Pegmatite_rect,6,3.267,1,14,0,14,0,1,,,,,,,,,,,,,
631a68ee10ec68377cb03457,SCN,2024-06-20_15h31.24.686,LearnStrategy,2023.2.3,MacIntel,70.92198582,4,1,16,0.273659939,-0.101022339,1,0,0,2.4251,Pegmatite_03,6,03,3,6,2.425,-0.139377283,-0.408824271,1,0,0,1.0984,Pegmatite_rect,6,1.098,1,15,0,15,0,1,,,,,,,,,,,,,
631a68ee10ec68377cb03457,SCN,2024-06-20_15h31.24.686,LearnStrategy,2023.2.3,MacIntel,70.92198582,4,2,1,,,,,,,,7,16,,,,,,,,,,,7,2.843,1,,,,,,0.116542562,-0.396053851,1,0,0,2.8428,Peridotite_rect,0,0,0,0,1,
631a68ee10ec68377cb03457,SCN,2024-06-20_15h31.24.686,LearnStrategy,2023.2.3,MacIntel,70.92198582,4,2,2,,,,,,,,8,13,,,,,,,,,,,8,0.968,1,,,,,,0.349090689,-0.411207637,1,0,0,0.968,Pumice_rect,1,0,1,0,1,
631a68ee10ec68377cb03457,SCN,2024-06-20_15h31.24.686,LearnStrategy,2023.2.3,MacIntel,70.92198582,4,2,3,,,,,,,,3,06,,,,,,,,,,,3,5.746,1,,,,,,0.139840359,-0.265369613,1,0,0,5.746,Diorite_rect,2,0,2,0,1,
631a68ee10ec68377cb03457,SCN,2024-06-20_15h31.24.686,LearnStrategy,2023.2.3,MacIntel,70.92198582,4,2,4,,,,,,,,8,08,,,,,,,,,,,8,0.904,1,,,,,,0.367140141,-0.397238442,1,0,0,0.9036,Pumice_rect,3,0,3,0,1,
631a68ee10ec68377cb03457,SCN,2024-06-20_15h31.24.686,LearnStrategy,2023.2.3,MacIntel,70.92198582,4,2,5,,,,,,,,6,08,,,,,,,,,,,6,1.411,1,,,,,,-0.144320227,-0.413545227,1,0,0,1.4115,Pegmatite_rect,4,0,4,0,1,
631a68ee10ec68377cb03457,SCN,2024-06-20_15h31.24.686,LearnStrategy,2023.2.3,MacIntel,70.92198582,4,2,6,,,,,,,,4,16,,,,,,,,,,,2,2.393,0,,,,,,-0.111483143,-0.252342733,1,0,0,2.393,Basalt_rect,5,0,5,0,1,
631a68ee10ec68377cb03457,SCN,2024-06-20_15h31.24.686,LearnStrategy,2023.2.3,MacIntel,70.92198582,4,2,7,,,,,,,,5,08,,,,,,,,,,,5,0.937,1,,,,,,-0.376323954,-0.418951416,1,0,0,0.9374,Obsidian_rect,6,0,6,0,1,
631a68ee10ec68377cb03457,SCN,2024-06-20_15h31.24.686,LearnStrategy,2023.2.3,MacIntel,70.92198582,4,2,8,,,,,,,,1,10,,,,,,,,,,,4,5.083,0,,,,,,0.481606151,-0.246614018,1,0,0,5.0833,Gabbro_rect,7,0,7,0,1,
631a68ee10ec68377cb03457,SCN,2024-06-20_15h31.24.686,LearnStrategy,2023.2.3,MacIntel,70.92198582,4,2,9,,,,,,,,7,02,,,,,,,,,,,7,2.447,1,,,,,,0.173339618,-0.398087113,1,0,0,2.4465,Peridotite_rect,8,0,8,0,1,
631a68ee10ec68377cb03457,SCN,2024-06-20_15h31.24.686,LearnStrategy,2023.2.3,MacIntel,70.92198582,4,2,10,,,,,,,,3,16,,,,,,,,,,,1,10.49,0,,,,,,-0.417591321,-0.253624019,1,0,0,10.4898,Andesite_rect,9,0,9,0,1,
631a68ee10ec68377cb03457,SCN,2024-06-20_15h31.24.686,LearnStrategy,2023.2.3,MacIntel,70.92198582,4,2,11,,,,,,,,6,10,,,,,,,,,,,6,2.213,1,,,,,,-0.118968822,-0.413645992,1,0,0,2.2132,Pegmatite_rect,10,0,10,0,1,
631a68ee10ec68377cb03457,SCN,2024-06-20_15h31.24.686,LearnStrategy,2023.2.3,MacIntel,70.92198582,4,2,12,,,,,,,,1,14,,,,,,,,,,,4,2.539,0,,,,,,0.370280061,-0.232518175,1,0,0,2.5388,Gabbro_rect,11,0,11,0,1,
631a68ee10ec68377cb03457,SCN,2024-06-20_15h31.24.686,LearnStrategy,2023.2.3,MacIntel,70.92198582,4,2,13,,,,,,,,4,10,,,,,,,,,,,4,11.164,1,,,,,,0.349678661,-0.262625235,1,0,0,11.1637,Gabbro_rect,12,0,12,0,1,
631a68ee10ec68377cb03457,SCN,2024-06-20_15h31.24.686,LearnStrategy,2023.2.3,MacIntel,70.92198582,4,2,14,,,,,,,,5,06,,,,,,,,,,,5,1.029,1,,,,,,-0.335028754,-0.399013039,1,0,0,1.0285,Obsidian_rect,13,0,13,0,1,
631a68ee10ec68377cb03457,SCN,2024-06-20_15h31.24.686,LearnStrategy,2023.2.3,MacIntel,70.92198582,4,2,15,,,,,,,,2,14,,,,,,,,,,,8,4.201,0,,,,,,0.376917973,-0.394862253,1,0,0,4.2012,Pumice_rect,14,0,14,0,1,
631a68ee10ec68377cb03457,SCN,2024-06-20_15h31.24.686,LearnStrategy,2023.2.3,MacIntel,70.92198582,4,2,16,,,,,,,,2,10,,,,,,,,,,,2,3.079,1,,,,,,-0.172086476,-0.26170903,1,0,0,3.0788,Basalt_rect,15,0,15,0,1,
631a68ee10ec68377cb03457,SCN,2024-06-20_15h31.24.686,LearnStrategy,2023.2.3,MacIntel,70.92198582,5,1,1,-0.235659451,0.42125822,1,0,0,4.1447,Andesite_04,1,04,6,3,4.145,0.430668358,-0.251741084,1,0,0,1.1828,Gabbro_rect,4,1.183,0,0,0,0,0,1,,,,,,,,,,,,,
631a68ee10ec68377cb03457,SCN,2024-06-20_15h31.24.686,LearnStrategy,2023.2.3,MacIntel,70.92198582,5,1,2,-0.367887313,0.279287889,1,0,0,1.7172,Gabbro_03,4,03,5,2,1.717,-0.39937665,-0.244314971,1,0,0,1.2862,Andesite_rect,1,1.286,0,1,0,1,0,1,,,,,,,,,,,,,
631a68ee10ec68377cb03457,SCN,2024-06-20_15h31.24.686,LearnStrategy,2023.2.3,MacIntel,70.92198582,5,1,3,-0.412113105,0.238707055,1,0,0,1.4242,Gabbro_03,4,03,5,2,1.424,0.442619041,-0.269328817,1,0,0,5.1982,Gabbro_rect,4,5.198,1,2,0,2,0,1,,,,,,,,,,,,,
631a68ee10ec68377cb03457,SCN,2024-06-20_15h31.24.686,LearnStrategy,2023.2.3,MacIntel,70.92198582,5,1,4,0.410979659,-0.078761178,1,0,0,1.0511,Andesite_09,1,09,3,7,1.051,0.387486437,-0.240641615,1,0,0,1.3353,Gabbro_rect,4,1.335,0,3,0,3,0,1,,,,,,,,,,,,,
631a68ee10ec68377cb03457,SCN,2024-06-20_15h31.24.686,LearnStrategy,2023.2.3,MacIntel,70.92198582,5,1,5,-0.242382812,-0.111891118,1,0,0,1.8523,Gabbro_05,4,05,3,3,1.852,0.149397334,-0.395820222,1,0,0,3.0247,Peridotite_rect,7,3.025,0,4,0,4,0,1,,,,,,,,,,,,,
631a68ee10ec68377cb03457,SCN,2024-06-20_15h31.24.686,LearnStrategy,2023.2.3,MacIntel,70.92198582,5,1,6,0.393470256,0.25474667,1,0,0,2.2914,Peridotite_12,7,12,5,7,2.291,0.141491586,-0.411545817,1,0,0,1.3009,Peridotite_rect,7,1.301,1,5,0,5,0,1,,,,,,,,,,,,,
631a68ee10ec68377cb03457,SCN,2024-06-20_15h31.24.686,LearnStrategy,2023.2.3,MacIntel,70.92198582,5,1,7,-0.269265069,-0.123564431,1,0,0,2.7045,Gabbro_05,4,05,3,3,2.705,0.426759847,-0.237689379,1,0,0,1.6667,Gabbro_rect,4,1.667,1,6,0,6,0,1,,,,,,,,,,,,,
631a68ee10ec68377cb03457,SCN,2024-06-20_15h31.24.686,LearnStrategy,2023.2.3,MacIntel,70.92198582,5,1,8,0.383908872,0.282829595,1,0,0,3.0506,Peridotite_12,7,12,5,7,3.051,0.110188915,-0.408532828,1,0,0,1.2801,Peridotite_rect,7,1.28,1,7,0,7,0,1,,,,,,,,,,,,,
631a68ee10ec68377cb03457,SCN,2024-06-20_15h31.24.686,LearnStrategy,2023.2.3,MacIntel,70.92198582,5,1,9,-0.561219703,-0.260462952,1,0,0,1.5978,Peridotite_10,7,10,2,1,1.598,0.13816664,-0.403858044,1,0,0,1.2044,Peridotite_rect,7,1.204,1,8,0,8,0,1,,,,,,,,,,,,,
631a68ee10ec68377cb03457,SCN,2024-06-20_15h31.24.686,LearnStrategy,2023.2.3,MacIntel,70.92198582,5,1,10,0.410044352,-0.246582427,1,0,0,2.1049,Peridotite_05,7,05,2,7,2.105,0.181318721,-0.405848129,1,0,0,1.1799,Peridotite_rect,7,1.18,1,9,0,9,0,1,,,,,,,,,,,,,
631a68ee10ec68377cb03457,SCN,2024-06-20_15h31.24.686,LearnStrategy,2023.2.3,MacIntel,70.92198582,5,1,11,0.518443807,0.448893964,1,0,0,1.8655,Pumice_02,8,02,6,8,1.865,0.399791463,-0.385706132,1,0,0,0.9378,Pumice_rect,8,0.938,1,10,0,10,0,1,,,,,,,,,,,,,
631a68ee10ec68377cb03457,SCN,2024-06-20_15h31.24.686,LearnStrategy,2023.2.3,MacIntel,70.92198582,5,1,12,0.063716634,0.089716028,1,0,0,0.9855,Basalt_01,2,01,4,5,0.986,-0.139039047,-0.256595753,1,0,0,0.9002,Basalt_rect,2,0.9,1,11,0,11,0,1,,,,,,,,,,,,,
631a68ee10ec68377cb03457,SCN,2024-06-20_15h31.24.686,LearnStrategy,2023.2.3,MacIntel,70.92198582,5,1,13,0.274219654,-0.26449585,1,0,0,1.9322,Andesite_02,1,02,2,6,1.932,0.184327076,-0.242567218,1,0,0,1.4941,Diorite_rect,3,1.494,0,12,0,12,0,1,,,,,,,,,,,,,
631a68ee10ec68377cb03457,SCN,2024-06-20_15h31.24.686,LearnStrategy,2023.2.3,MacIntel,70.92198582,5,1,14,0.221988141,-0.262033533,1,0,0,0.6259,Andesite_02,1,02,2,6,0.626,-0.395690127,-0.252419705,1,0,0,6.7692,Andesite_rect,1,6.769,1,13,0,13,0,1,,,,,,,,,,,,,
631a68ee10ec68377cb03457,SCN,2024-06-20_15h31.24.686,LearnStrategy,2023.2.3,MacIntel,70.92198582,5,1,15,-0.26068573,0.105763442,1,0,0,1.333,Diorite_15,3,15,4,3,1.333,0.430652421,-0.236709877,1,0,0,3.4924,Gabbro_rect,4,3.492,0,14,0,14,0,1,,,,,,,,,,,,,
631a68ee10ec68377cb03457,SCN,2024-06-20_15h31.24.686,LearnStrategy,2023.2.3,MacIntel,70.92198582,5,1,16,-0.243387915,0.133923283,1,0,0,1.0527,Diorite_15,3,15,4,3,1.053,0.377852941,-0.247279867,1,0,0,22.88,Gabbro_rect,4,22.88,0,15,0,15,0,1,,,,,,,,,,,,,
631a68ee10ec68377cb03457,SCN,2024-06-20_15h31.24.686,LearnStrategy,2023.2.3,MacIntel,70.92198582,5,2,1,,,,,,,,4,14,,,,,,,,,,,3,7.182,0,,,,,,0.168866306,-0.244357469,1,0,0,7.1823,Diorite_rect,0,0,0,0,1,
631a68ee10ec68377cb03457,SCN,2024-06-20_15h31.24.686,LearnStrategy,2023.2.3,MacIntel,70.92198582,5,2,2,,,,,,,,6,12,,,,,,,,,,,6,1.177,1,,,,,,-0.125984135,-0.404396905,1,0,0,1.177,Pegmatite_rect,1,0,1,0,1,
631a68ee10ec68377cb03457,SCN,2024-06-20_15h31.24.686,LearnStrategy,2023.2.3,MacIntel,70.92198582,5,2,3,,,,,,,,2,05,,,,,,,,,,,2,1.164,1,,,,,,-0.148411617,-0.258519151,1,0,0,1.1641,Basalt_rect,2,0,2,0,1,
631a68ee10ec68377cb03457,SCN,2024-06-20_15h31.24.686,LearnStrategy,2023.2.3,MacIntel,70.92198582,5,2,4,,,,,,,,3,14,,,,,,,,,,,3,4.837,1,,,,,,0.102758789,-0.257371804,1,0,0,4.8367,Diorite_rect,3,0,3,0,1,
631a68ee10ec68377cb03457,SCN,2024-06-20_15h31.24.686,LearnStrategy,2023.2.3,MacIntel,70.92198582,5,2,5,,,,,,,,1,03,,,,,,,,,,,1,3.719,1,,,,,,-0.388327309,-0.248729169,1,0,0,3.7188,Andesite_rect,4,0,4,0,1,
631a68ee10ec68377cb03457,SCN,2024-06-20_15h31.24.686,LearnStrategy,2023.2.3,MacIntel,70.92198582,5,2,6,,,,,,,,7,14,,,,,,,,,,,7,1.984,1,,,,,,0.116541658,-0.40126128,1,0,0,1.9837,Peridotite_rect,5,0,5,0,1,
631a68ee10ec68377cb03457,SCN,2024-06-20_15h31.24.686,LearnStrategy,2023.2.3,MacIntel,70.92198582,5,2,7,,,,,,,,8,16,,,,,,,,,,,8,1.524,1,,,,,,0.406468144,-0.414825948,1,0,0,1.524,Pumice_rect,6,0,6,0,1,
631a68ee10ec68377cb03457,SCN,2024-06-20_15h31.24.686,LearnStrategy,2023.2.3,MacIntel,70.92198582,5,2,8,,,,,,,,7,13,,,,,,,,,,,7,1.116,1,,,,,,0.149019708,-0.392987965,1,0,0,1.1165,Peridotite_rect,7,0,7,0,1,
631a68ee10ec68377cb03457,SCN,2024-06-20_15h31.24.686,LearnStrategy,2023.2.3,MacIntel,70.92198582,5,2,9,,,,,,,,5,05,,,,,,,,,,,5,1.055,1,,,,,,-0.428516218,-0.395521093,1,0,0,1.0555,Obsidian_rect,8,0,8,0,1,
631a68ee10ec68377cb03457,SCN,2024-06-20_15h31.24.686,LearnStrategy,2023.2.3,MacIntel,70.92198582,5,2,10,,,,,,,,1,01,,,,,,,,,,,3,5.588,0,,,,,,0.129506768,-0.24421511,1,0,0,5.5876,Diorite_rect,9,0,9,0,1,
631a68ee10ec68377cb03457,SCN,2024-06-20_15h31.24.686,LearnStrategy,2023.2.3,MacIntel,70.92198582,5,2,11,,,,,,,,4,12,,,,,,,,,,,4,1.472,1,,,,,,0.340945774,-0.236702474,1,0,0,1.472,Gabbro_rect,10,0,10,0,1,
631a68ee10ec68377cb03457,SCN,2024-06-20_15h31.24.686,LearnStrategy,2023.2.3,MacIntel,70.92198582,5,2,12,,,,,,,,5,14,,,,,,,,,,,5,1.261,1,,,,,,-0.38650264,-0.415282412,1,0,0,1.2609,Obsidian_rect,11,0,11,0,1,
631a68ee10ec68377cb03457,SCN,2024-06-20_15h31.24.686,LearnStrategy,2023.2.3,MacIntel,70.92198582,5,2,13,,,,,,,,8,04,,,,,,,,,,,8,0.981,1,,,,,,0.401311917,-0.399431864,1,0,0,0.9806,Pumice_rect,12,0,12,0,1,
631a68ee10ec68377cb03457,SCN,2024-06-20_15h31.24.686,LearnStrategy,2023.2.3,MacIntel,70.92198582,5,2,14,,,,,,,,2,11,,,,,,,,,,,8,5.54,0,,,,,,0.360189932,-0.39442523,1,0,0,5.5401,Pumice_rect,13,0,13,0,1,
631a68ee10ec68377cb03457,SCN,2024-06-20_15h31.24.686,LearnStrategy,2023.2.3,MacIntel,70.92198582,5,2,15,,,,,,,,6,16,,,,,,,,,,,6,1.291,1,,,,,,-0.161310832,-0.415280886,1,0,0,1.2911,Pegmatite_rect,14,0,14,0,1,
631a68ee10ec68377cb03457,SCN,2024-06-20_15h31.24.686,LearnStrategy,2023.2.3,MacIntel,70.92198582,5,2,16,,,,,,,,3,07,,,,,,,,,,,3,3.258,1,,,,,,0.096067641,-0.249104874,1,0,0,3.2585,Diorite_rect,15,0,15,0,1,
631a68ee10ec68377cb03457,SCN,2024-06-20_15h31.24.686,LearnStrategy,2023.2.3,MacIntel,70.92198582,6,1,1,-0.28324828,-0.247323665,1,0,0,5.9181,Basalt_09,2,09,2,3,5.918,-0.154275795,-0.246219324,1,0,0,0.7765,Basalt_rect,2,0.776,1,0,0,0,0,1,,,,,,,,,,,,,
631a68ee10ec68377cb03457,SCN,2024-06-20_15h31.24.686,LearnStrategy,2023.2.3,MacIntel,70.92198582,6,1,2,-0.410665894,0.256739468,1,0,0,1.4112,Gabbro_03,4,03,5,2,1.411,0.421153881,-0.239879862,1,0,0,0.9871,Gabbro_rect,4,0.987,1,1,0,1,0,1,,,,,,,,,,,,,
631a68ee10ec68377cb03457,SCN,2024-06-20_15h31.24.686,LearnStrategy,2023.2.3,MacIntel,70.92198582,6,1,3,0.037353177,0.38082031,1,0,0,2.651,Basalt_02,2,02,6,5,2.651,-0.085449106,-0.259378165,1,0,0,1.7018,Basalt_rect,2,1.702,1,2,0,2,0,1,,,,,,,,,,,,,
631a68ee10ec68377cb03457,SCN,2024-06-20_15h31.24.686,LearnStrategy,2023.2.3,MacIntel,70.92198582,6,1,4,0.072652294,0.076457299,1,0,0,0.8519,Basalt_01,2,01,4,5,0.852,-0.158203125,-0.249996214,1,0,0,0.8738,Basalt_rect,2,0.874,1,3,0,3,0,1,,,,,,,,,,,,,
631a68ee10ec68377cb03457,SCN,2024-06-20_15h31.24.686,LearnStrategy,2023.2.3,MacIntel,70.92198582,6,1,5,-0.264523259,-0.232646801,1,0,0,1.1332,Basalt_09,2,09,2,3,1.133,-0.158746112,-0.249817912,1,0,0,0.8598,Basalt_rect,2,0.86,1,4,0,4,0,1,,,,,,,,,,,,,
631a68ee10ec68377cb03457,SCN,2024-06-20_15h31.24.686,LearnStrategy,2023.2.3,MacIntel,70.92198582,6,1,6,0.433127396,0.109869159,1,0,0,1.4,Andesite_07,1,07,4,7,1.4,-0.357338856,-0.246854485,1,0,0,1.7634,Andesite_rect,1,1.763,1,5,0,5,0,1,,,,,,,,,,,,,
631a68ee10ec68377cb03457,SCN,2024-06-20_15h31.24.686,LearnStrategy,2023.2.3,MacIntel,70.92198582,6,1,7,0.379076809,0.384155047,1,0,0,2.0532,Andesite_06,1,06,6,7,2.053,-0.369106321,-0.24123343,1,0,0,1.187,Andesite_rect,1,1.187,1,6,0,6,0,1,,,,,,,,,,,,,
631a68ee10ec68377cb03457,SCN,2024-06-20_15h31.24.686,LearnStrategy,2023.2.3,MacIntel,70.92198582,6,1,8,0.103546595,0.241371409,1,0,0,1.265,Diorite_08,3,08,5,5,1.265,0.108114511,-0.251562443,1,0,0,1.632,Diorite_rect,3,1.632,1,7,0,7,0,1,,,,,,,,,,,,,
631a68ee10ec68377cb03457,SCN,2024-06-20_15h31.24.686,LearnStrategy,2023.2.3,MacIntel,70.92198582,6,1,9,-0.205016412,0.056640399,1,0,0,1.3997,Diorite_15,3,15,4,3,1.4,0.442191004,-0.240286368,1,0,0,1.4601,Gabbro_rect,4,1.46,0,8,0,8,0,1,,,,,,,,,,,,,
631a68ee10ec68377cb03457,SCN,2024-06-20_15h31.24.686,LearnStrategy,2023.2.3,MacIntel,70.92198582,6,1,10,-0.208022676,0.079613241,1,0,0,0.8263,Diorite_15,3,15,4,3,0.826,0.10217353,-0.24500659,1,0,0,3.4536,Diorite_rect,3,3.454,1,9,0,9,0,1,,,,,,,,,,,,,
631a68ee10ec68377cb03457,SCN,2024-06-20_15h31.24.686,LearnStrategy,2023.2.3,MacIntel,70.92198582,6,1,11,0.372738874,0.08664401,1,0,0,1.3586,Andesite_07,1,07,4,7,1.359,-0.371595143,-0.230862144,1,0,0,0.6284,Andesite_rect,1,0.628,1,10,0,10,0,1,,,,,,,,,,,,,
631a68ee10ec68377cb03457,SCN,2024-06-20_15h31.24.686,LearnStrategy,2023.2.3,MacIntel,70.92198582,6,1,12,-0.048884413,0.062714301,1,0,0,0.8378,Pegmatite_06,6,06,4,4,0.838,-0.146216838,-0.407236509,1,0,0,1.2139,Pegmatite_rect,6,1.214,1,11,0,11,0,1,,,,,,,,,,,,,
631a68ee10ec68377cb03457,SCN,2024-06-20_15h31.24.686,LearnStrategy,2023.2.3,MacIntel,70.92198582,6,1,13,-0.391617273,0.077924036,1,0,0,1.2661,Pumice_14,8,14,4,2,1.266,0.369072921,-0.395250165,1,0,0,0.8019,Pumice_rect,8,0.802,1,12,0,12,0,1,,,,,,,,,,,,,
631a68ee10ec68377cb03457,SCN,2024-06-20_15h31.24.686,LearnStrategy,2023.2.3,MacIntel,70.92198582,6,1,14,-0.214285787,0.42561418,1,0,0,3.1862,Andesite_04,1,04,6,3,3.186,-0.363365399,-0.238405863,1,0,0,3.6983,Andesite_rect,1,3.698,1,13,0,13,0,1,,,,,,,,,,,,,
631a68ee10ec68377cb03457,SCN,2024-06-20_15h31.24.686,LearnStrategy,2023.2.3,MacIntel,70.92198582,6,1,15,-0.03395674,0.390767119,1,0,0,1.5183,Diorite_10,3,10,6,4,1.518,0.12177983,-0.255436141,1,0,0,1.5868,Diorite_rect,3,1.587,1,14,0,14,0,1,,,,,,,,,,,,,
631a68ee10ec68377cb03457,SCN,2024-06-20_15h31.24.686,LearnStrategy,2023.2.3,MacIntel,70.92198582,6,1,16,0.369603814,0.242781293,1,0,0,1.5592,Peridotite_12,7,12,5,7,1.559,0.129127333,-0.405721481,1,0,0,0.8821,Peridotite_rect,7,0.882,1,15,0,15,0,1,,,,,,,,,,,,,
631a68ee10ec68377cb03457,SCN,2024-06-20_15h31.24.686,LearnStrategy,2023.2.3,MacIntel,70.92198582,6,2,1,,,,,,,,4,08,,,,,,,,,,,7,7.193,0,,,,,,0.107600459,-0.390159381,1,0,0,7.1933,Peridotite_rect,0,0,0,0,1,
631a68ee10ec68377cb03457,SCN,2024-06-20_15h31.24.686,LearnStrategy,2023.2.3,MacIntel,70.92198582,6,2,2,,,,,,,,7,15,,,,,,,,,,,7,1.117,1,,,,,,0.110803336,-0.413709852,1,0,0,1.1174,Peridotite_rect,1,0,1,0,1,
631a68ee10ec68377cb03457,SCN,2024-06-20_15h31.24.686,LearnStrategy,2023.2.3,MacIntel,70.92198582,6,2,3,,,,,,,,2,06,,,,,,,,,,,2,1.458,1,,,,,,-0.08668032,-0.238748508,1,0,0,1.4583,Basalt_rect,2,0,2,0,1,
631a68ee10ec68377cb03457,SCN,2024-06-20_15h31.24.686,LearnStrategy,2023.2.3,MacIntel,70.92198582,6,2,4,,,,,,,,8,15,,,,,,,,,,,8,1.009,1,,,,,,0.438071696,-0.411791088,1,0,0,1.0085,Pumice_rect,3,0,3,0,1,
631a68ee10ec68377cb03457,SCN,2024-06-20_15h31.24.686,LearnStrategy,2023.2.3,MacIntel,70.92198582,6,2,5,,,,,,,,5,11,,,,,,,,,,,5,0.969,1,,,,,,-0.355712891,-0.414183779,1,0,0,0.9693,Obsidian_rect,4,0,4,0,1,
631a68ee10ec68377cb03457,SCN,2024-06-20_15h31.24.686,LearnStrategy,2023.2.3,MacIntel,70.92198582,6,2,6,,,,,,,,3,12,,,,,,,,,,,3,6.011,1,,,,,,0.170755231,-0.234585345,1,0,0,6.0106,Diorite_rect,5,0,5,0,1,
631a68ee10ec68377cb03457,SCN,2024-06-20_15h31.24.686,LearnStrategy,2023.2.3,MacIntel,70.92198582,6,2,7,,,,,,,,5,12,,,,,,,,,,,5,0.915,1,,,,,,-0.422280432,-0.40837668,1,0,0,0.9149,Obsidian_rect,6,0,6,0,1,
631a68ee10ec68377cb03457,SCN,2024-06-20_15h31.24.686,LearnStrategy,2023.2.3,MacIntel,70.92198582,6,2,8,,,,,,,,3,11,,,,,,,,,,,4,5.551,0,,,,,,0.378247975,-0.248696108,1,0,0,5.5511,Gabbro_rect,7,0,7,0,1,
631a68ee10ec68377cb03457,SCN,2024-06-20_15h31.24.686,LearnStrategy,2023.2.3,MacIntel,70.92198582,6,2,9,,,,,,,,4,01,,,,,,,,,,,4,2.257,1,,,,,,0.337364366,-0.234754209,1,0,0,2.2574,Gabbro_rect,8,0,8,0,1,
631a68ee10ec68377cb03457,SCN,2024-06-20_15h31.24.686,LearnStrategy,2023.2.3,MacIntel,70.92198582,6,2,10,,,,,,,,1,05,,,,,,,,,,,1,2.149,1,,,,,,-0.341867405,-0.237299319,1,0,0,2.1488,Andesite_rect,9,0,9,0,1,
631a68ee10ec68377cb03457,SCN,2024-06-20_15h31.24.686,LearnStrategy,2023.2.3,MacIntel,70.92198582,6,2,11,,,,,,,,8,09,,,,,,,,,,,8,1.336,1,,,,,,0.413189584,-0.395901094,1,0,0,1.336,Pumice_rect,10,0,10,0,1,
631a68ee10ec68377cb03457,SCN,2024-06-20_15h31.24.686,LearnStrategy,2023.2.3,MacIntel,70.92198582,6,2,12,,,,,,,,7,07,,,,,,,,,,,7,0.976,1,,,,,,0.167896638,-0.396692629,1,0,0,0.976,Peridotite_rect,11,0,11,0,1,
631a68ee10ec68377cb03457,SCN,2024-06-20_15h31.24.686,LearnStrategy,2023.2.3,MacIntel,70.92198582,6,2,13,,,,,,,,6,05,,,,,,,,,,,6,1.322,1,,,,,,-0.166990662,-0.402615243,1,0,0,1.3218,Pegmatite_rect,12,0,12,0,1,
631a68ee10ec68377cb03457,SCN,2024-06-20_15h31.24.686,LearnStrategy,2023.2.3,MacIntel,70.92198582,6,2,14,,,,,,,,6,15,,,,,,,,,,,6,0.801,1,,,,,,-0.166802244,-0.402050047,1,0,0,0.8008,Pegmatite_rect,13,0,13,0,1,
631a68ee10ec68377cb03457,SCN,2024-06-20_15h31.24.686,LearnStrategy,2023.2.3,MacIntel,70.92198582,6,2,15,,,,,,,,1,16,,,,,,,,,,,4,3.685,0,,,,,,0.413126062,-0.242638765,1,0,0,3.6853,Gabbro_rect,14,0,14,0,1,
631a68ee10ec68377cb03457,SCN,2024-06-20_15h31.24.686,LearnStrategy,2023.2.3,MacIntel,70.92198582,6,2,16,,,,,,,,2,04,,,,,,,,,,,2,1.339,1,,,,,,-0.130168039,-0.254971653,1,0,0,1.3393,Basalt_rect,15,0,15,0,1,
631a68ee10ec68377cb03457,SCN,2024-06-20_15h31.24.686,LearnStrategy,2023.2.3,MacIntel,70.92198582,7,1,1,-0.065425392,0.104366302,1,0,0,1.6251,Pegmatite_06,6,06,4,4,1.625,-0.129536495,-0.400264599,1,0,0,0.791,Pegmatite_rect,6,0.791,1,0,0,0,0,1,,,,,,,,,,,,,
631a68ee10ec68377cb03457,SCN,2024-06-20_15h31.24.686,LearnStrategy,2023.2.3,MacIntel,70.92198582,7,1,2,-0.20942072,0.388559031,1,0,0,1.6118,Andesite_04,1,04,6,3,1.612,-0.417764791,-0.234343013,1,0,0,1.8524,Andesite_rect,1,1.852,1,1,0,1,0,1,,,,,,,,,,,,,
631a68ee10ec68377cb03457,SCN,2024-06-20_15h31.24.686,LearnStrategy,2023.2.3,MacIntel,70.92198582,7,1,3,-0.036497724,0.369221355,1,0,0,0.9969,Diorite_10,3,10,6,4,0.997,0.398689214,-0.255925609,1,0,0,1.0873,Gabbro_rect,4,1.087,0,2,0,2,0,1,,,,,,,,,,,,,
631a68ee10ec68377cb03457,SCN,2024-06-20_15h31.24.686,LearnStrategy,2023.2.3,MacIntel,70.92198582,7,1,4,-0.076824216,0.441826234,1,0,0,0.7998,Diorite_10,3,10,6,4,0.8,0.141238855,-0.263991744,1,0,0,1.84,Diorite_rect,3,1.84,1,3,0,3,0,1,,,,,,,,,,,,,
631a68ee10ec68377cb03457,SCN,2024-06-20_15h31.24.686,LearnStrategy,2023.2.3,MacIntel,70.92198582,7,1,5,-0.253264364,-0.075321113,1,0,0,5.9297,Gabbro_05,4,05,3,3,5.93,0.455683051,-0.243876874,1,0,0,1.0236,Gabbro_rect,4,1.024,1,4,0,4,0,1,,,,,,,,,,,,,
631a68ee10ec68377cb03457,SCN,2024-06-20_15h31.24.686,LearnStrategy,2023.2.3,MacIntel,70.92198582,7,1,6,0.519132939,-0.110741848,1,0,0,2.5845,Peridotite_04,7,04,3,8,2.584,0.130917471,-0.404346042,1,0,0,3.1631,Peridotite_rect,7,3.163,1,5,0,5,0,1,,,,,,,,,,,,,
631a68ee10ec68377cb03457,SCN,2024-06-20_15h31.24.686,LearnStrategy,2023.2.3,MacIntel,70.92198582,7,1,7,0.39780669,-0.273490115,1,0,0,3.8244,Peridotite_05,7,05,2,7,3.824,0.162642641,-0.414258943,1,0,0,1.9848,Peridotite_rect,7,1.985,1,6,0,6,0,1,,,,,,,,,,,,,
631a68ee10ec68377cb03457,SCN,2024-06-20_15h31.24.686,LearnStrategy,2023.2.3,MacIntel,70.92198582,7,1,8,0.206767895,-0.383819467,1,0,0,5.2777,Gabbro_13,4,13,1,6,5.278,0.37501865,-0.25354213,1,0,0,1.2087,Gabbro_rect,4,1.209,1,7,0,7,0,1,,,,,,,,,,,,,
631a68ee10ec68377cb03457,SCN,2024-06-20_15h31.24.686,LearnStrategy,2023.2.3,MacIntel,70.92198582,7,1,9,0.075171577,0.242643625,1,0,0,4.0249,Diorite_08,3,08,5,5,4.025,0.137909162,-0.234831068,1,0,0,0.9768,Diorite_rect,3,0.977,1,8,0,8,0,1,,,,,,,,,,,,,
631a68ee10ec68377cb03457,SCN,2024-06-20_15h31.24.686,LearnStrategy,2023.2.3,MacIntel,70.92198582,7,1,10,-0.241304412,0.280065226,1,0,0,2.4795,Andesite_11,1,11,5,3,2.48,-0.359993037,-0.248175162,1,0,0,1.2926,Andesite_rect,1,1.293,1,9,0,9,0,1,,,,,,,,,,,,,
631a68ee10ec68377cb03457,SCN,2024-06-20_15h31.24.686,LearnStrategy,2023.2.3,MacIntel,70.92198582,7,1,11,-0.515083709,-0.25151305,1,0,0,4.1975,Peridotite_10,7,10,2,1,4.197,0.115895137,-0.417807289,1,0,0,0.8972,Peridotite_rect,7,0.897,1,10,0,10,0,1,,,,,,,,,,,,,
631a68ee10ec68377cb03457,SCN,2024-06-20_15h31.24.686,LearnStrategy,2023.2.3,MacIntel,70.92198582,7,1,12,-0.518797161,0.280278905,1,0,0,1.9728,Basalt_16,2,16,5,1,1.973,0.351072523,-0.418109696,1,0,0,1.0241,Pumice_rect,8,1.024,0,11,0,11,0,1,,,,,,,,,,,,,
631a68ee10ec68377cb03457,SCN,2024-06-20_15h31.24.686,LearnStrategy,2023.2.3,MacIntel,70.92198582,7,1,13,-0.354885864,0.242830912,1,0,0,2.3588,Gabbro_03,4,03,5,2,2.359,-0.346269509,-0.249078878,1,0,0,1.4453,Andesite_rect,1,1.445,0,12,0,12,0,1,,,,,,,,,,,,,
631a68ee10ec68377cb03457,SCN,2024-06-20_15h31.24.686,LearnStrategy,2023.2.3,MacIntel,70.92198582,7,1,14,-0.434573138,0.237828092,1,0,0,0.9463,Gabbro_03,4,03,5,2,0.946,0.475400458,-0.237401326,1,0,0,1.8916,Gabbro_rect,4,1.892,1,13,0,13,0,1,,,,,,,,,,,,,
631a68ee10ec68377cb03457,SCN,2024-06-20_15h31.24.686,LearnStrategy,2023.2.3,MacIntel,70.92198582,7,1,15,-0.04828949,0.22085933,1,0,0,0.9594,Peridotite_08,7,08,5,4,0.959,0.086512813,-0.386419113,1,0,0,0.9937,Peridotite_rect,7,0.994,1,14,0,14,0,1,,,,,,,,,,,,,
631a68ee10ec68377cb03457,SCN,2024-06-20_15h31.24.686,LearnStrategy,2023.2.3,MacIntel,70.92198582,7,1,16,0.392632831,0.053141559,1,0,0,2.8538,Andesite_07,1,07,4,7,2.854,-0.374006427,-0.26263959,1,0,0,1.0198,Andesite_rect,1,1.02,1,15,0,15,0,1,,,,,,,,,,,,,
631a68ee10ec68377cb03457,SCN,2024-06-20_15h31.24.686,LearnStrategy,2023.2.3,MacIntel,70.92198582,7,2,1,,,,,,,,7,07,,,,,,,,,,,7,2.284,1,,,,,,0.142764282,-0.406747663,1,0,0,2.2845,Peridotite_rect,0,0,0,0,1,
631a68ee10ec68377cb03457,SCN,2024-06-20_15h31.24.686,LearnStrategy,2023.2.3,MacIntel,70.92198582,7,2,2,,,,,,,,3,11,,,,,,,,,,,3,3.639,1,,,,,,0.13341607,-0.243040127,1,0,0,3.6385,Diorite_rect,1,0,1,0,1,
631a68ee10ec68377cb03457,SCN,2024-06-20_15h31.24.686,LearnStrategy,2023.2.3,MacIntel,70.92198582,7,2,3,,,,,,,,1,16,,,,,,,,,,,1,10.222,1,,,,,,-0.332673815,-0.232346881,1,0,0,10.2219,Andesite_rect,2,0,2,0,1,
631a68ee10ec68377cb03457,SCN,2024-06-20_15h31.24.686,LearnStrategy,2023.2.3,MacIntel,70.92198582,7,2,4,,,,,,,,5,14,,,,,,,,,,,5,0.907,1,,,,,,-0.354045501,-0.401787313,1,0,0,0.9073,Obsidian_rect,3,0,3,0,1,
631a68ee10ec68377cb03457,SCN,2024-06-20_15h31.24.686,LearnStrategy,2023.2.3,MacIntel,70.92198582,7,2,5,,,,,,,,4,01,,,,,,,,,,,4,2.225,1,,,,,,0.437073884,-0.237580646,1,0,0,2.2254,Gabbro_rect,4,0,4,0,1,
631a68ee10ec68377cb03457,SCN,2024-06-20_15h31.24.686,LearnStrategy,2023.2.3,MacIntel,70.92198582,7,2,6,,,,,,,,1,14,,,,,,,,,,,3,3.856,0,,,,,,0.124646109,-0.249527317,1,0,0,3.8563,Diorite_rect,5,0,5,0,1,
631a68ee10ec68377cb03457,SCN,2024-06-20_15h31.24.686,LearnStrategy,2023.2.3,MacIntel,70.92198582,7,2,7,,,,,,,,5,11,,,,,,,,,,,5,1.597,1,,,,,,-0.412320568,-0.408117054,1,0,0,1.5971,Obsidian_rect,6,0,6,0,1,
631a68ee10ec68377cb03457,SCN,2024-06-20_15h31.24.686,LearnStrategy,2023.2.3,MacIntel,70.92198582,7,2,8,,,,,,,,2,04,,,,,,,,,,,2,1.001,1,,,,,,-0.087065577,-0.264658949,1,0,0,1.0008,Basalt_rect,7,0,7,0,1,
631a68ee10ec68377cb03457,SCN,2024-06-20_15h31.24.686,LearnStrategy,2023.2.3,MacIntel,70.92198582,7,2,9,,,,,,,,6,12,,,,,,,,,,,6,1.8,1,,,,,,-0.08134613,-0.400785149,1,0,0,1.8003,Pegmatite_rect,8,0,8,0,1,
631a68ee10ec68377cb03457,SCN,2024-06-20_15h31.24.686,LearnStrategy,2023.2.3,MacIntel,70.92198582,7,2,10,,,,,,,,8,15,,,,,,,,,,,8,0.961,1,,,,,,0.48186329,-0.412449024,1,0,0,0.9614,Pumice_rect,9,0,9,0,1,
631a68ee10ec68377cb03457,SCN,2024-06-20_15h31.24.686,LearnStrategy,2023.2.3,MacIntel,70.92198582,7,2,11,,,,,,,,4,14,,,,,,,,,,,4,5.398,1,,,,,,0.380359565,-0.251835406,1,0,0,5.3981,Gabbro_rect,10,0,10,0,1,
631a68ee10ec68377cb03457,SCN,2024-06-20_15h31.24.686,LearnStrategy,2023.2.3,MacIntel,70.92198582,7,2,12,,,,,,,,3,06,,,,,,,,,,,3,5.468,1,,,,,,0.17788425,-0.25336558,1,0,0,5.4681,Diorite_rect,11,0,11,0,1,
631a68ee10ec68377cb03457,SCN,2024-06-20_15h31.24.686,LearnStrategy,2023.2.3,MacIntel,70.92198582,7,2,13,,,,,,,,7,15,,,,,,,,,,,7,0.936,1,,,,,,0.160134662,-0.409098307,1,0,0,0.9361,Peridotite_rect,12,0,12,0,1,
631a68ee10ec68377cb03457,SCN,2024-06-20_15h31.24.686,LearnStrategy,2023.2.3,MacIntel,70.92198582,7,2,14,,,,,,,,6,08,,,,,,,,,,,6,0.915,1,,,,,,-0.068898406,-0.392110528,1,0,0,0.9153,Pegmatite_rect,13,0,13,0,1,
631a68ee10ec68377cb03457,SCN,2024-06-20_15h31.24.686,LearnStrategy,2023.2.3,MacIntel,70.92198582,7,2,15,,,,,,,,2,06,,,,,,,,,,,2,0.938,1,,,,,,-0.127205573,-0.259195285,1,0,0,0.938,Basalt_rect,14,0,14,0,1,
631a68ee10ec68377cb03457,SCN,2024-06-20_15h31.24.686,LearnStrategy,2023.2.3,MacIntel,70.92198582,7,2,16,,,,,,,,8,08,,,,,,,,,,,8,1.068,1,,,,,,0.384261068,-0.408476088,1,0,0,1.0684,Pumice_rect,15,0,15,0,1,
631a68ee10ec68377cb03457,SCN,2024-06-20_15h31.24.686,LearnStrategy,2023.2.3,MacIntel,70.92198582,8,1,1,-0.238947098,0.410186866,1,0,0,6.4651,Andesite_04,1,04,6,3,6.465,-0.389443235,-0.238020212,1,0,0,1.5028,Andesite_rect,1,1.503,1,0,0,0,0,1,,,,,,,,,,,,,
631a68ee10ec68377cb03457,SCN,2024-06-20_15h31.24.686,LearnStrategy,2023.2.3,MacIntel,70.92198582,8,1,2,0.250904225,0.402016746,1,0,0,1.3054,Diorite_02,3,02,6,6,1.305,0.163285093,-0.261522194,1,0,0,1.6447,Diorite_rect,3,1.645,1,1,0,1,0,1,,,,,,,,,,,,,
631a68ee10ec68377cb03457,SCN,2024-06-20_15h31.24.686,LearnStrategy,2023.2.3,MacIntel,70.92198582,8,1,3,0.398962741,0.380827219,1,0,0,1.0269,Andesite_06,1,06,6,7,1.027,-0.364127039,-0.235891158,1,0,0,0.8296,Andesite_rect,1,0.83,1,2,0,2,0,1,,,,,,,,,,,,,
631a68ee10ec68377cb03457,SCN,2024-06-20_15h31.24.686,LearnStrategy,2023.2.3,MacIntel,70.92198582,8,1,4,0.39791678,0.251370409,1,0,0,1.3327,Peridotite_12,7,12,5,7,1.333,0.101375099,-0.246655782,1,0,0,1.1132,Diorite_rect,3,1.113,0,3,0,3,0,1,,,,,,,,,,,,,
631a68ee10ec68377cb03457,SCN,2024-06-20_15h31.24.686,LearnStrategy,2023.2.3,MacIntel,70.92198582,8,1,5,0.420766195,0.252817168,1,0,0,0.6383,Peridotite_12,7,12,5,7,0.638,0.099314485,-0.393927906,1,0,0,6.7179,Peridotite_rect,7,6.718,1,4,0,4,0,1,,,,,,,,,,,,,
631a68ee10ec68377cb03457,SCN,2024-06-20_15h31.24.686,LearnStrategy,2023.2.3,MacIntel,70.92198582,8,1,6,0.395284582,0.059861445,1,0,0,1.5326,Andesite_07,1,07,4,7,1.533,-0.402534202,-0.252093506,1,0,0,1.0923,Andesite_rect,1,1.092,1,5,0,5,0,1,,,,,,,,,,,,,
631a68ee10ec68377cb03457,SCN,2024-06-20_15h31.24.686,LearnStrategy,2023.2.3,MacIntel,70.92198582,8,1,7,-0.024040787,0.093125463,1,0,0,1.6521,Pegmatite_06,6,06,4,4,1.652,-0.132257476,-0.383625737,1,0,0,1.2001,Pegmatite_rect,6,1.2,1,6,0,6,0,1,,,,,,,,,,,,,
631a68ee10ec68377cb03457,SCN,2024-06-20_15h31.24.686,LearnStrategy,2023.2.3,MacIntel,70.92198582,8,1,8,0.567200385,-0.085270691,1,0,0,1.0527,Peridotite_04,7,04,3,8,1.053,0.128797065,-0.396543489,1,0,0,1.1475,Peridotite_rect,7,1.148,1,7,0,7,0,1,,,,,,,,,,,,,
631a68ee10ec68377cb03457,SCN,2024-06-20_15h31.24.686,LearnStrategy,2023.2.3,MacIntel,70.92198582,8,1,9,0.203336702,-0.117239945,1,0,0,1.957,Pegmatite_03,6,03,3,6,1.957,-0.164831486,-0.410370721,1,0,0,1.0754,Pegmatite_rect,6,1.075,1,8,0,8,0,1,,,,,,,,,,,,,
631a68ee10ec68377cb03457,SCN,2024-06-20_15h31.24.686,LearnStrategy,2023.2.3,MacIntel,70.92198582,8,1,10,0.06570152,-0.078257243,1,0,0,0.6665,Peridotite_06,7,06,3,5,0.667,0.101530287,-0.410711726,1,0,0,0.9851,Peridotite_rect,7,0.985,1,9,0,9,0,1,,,,,,,,,,,,,
631a68ee10ec68377cb03457,SCN,2024-06-20_15h31.24.686,LearnStrategy,2023.2.3,MacIntel,70.92198582,8,1,11,-0.194740691,-0.096200166,1,0,0,1.0931,Gabbro_05,4,05,3,3,1.093,0.342427798,-0.229531465,1,0,0,0.946,Gabbro_rect,4,0.946,1,10,0,10,0,1,,,,,,,,,,,,,
631a68ee10ec68377cb03457,SCN,2024-06-20_15h31.24.686,LearnStrategy,2023.2.3,MacIntel,70.92198582,8,1,12,0.081726639,-0.265723221,1,0,0,3.1435,Diorite_13,3,13,2,5,3.143,0.126566682,-0.243114782,1,0,0,0.9268,Diorite_rect,3,0.927,1,11,0,11,0,1,,,,,,,,,,,,,
631a68ee10ec68377cb03457,SCN,2024-06-20_15h31.24.686,LearnStrategy,2023.2.3,MacIntel,70.92198582,8,1,13,0.377109443,-0.290206344,1,0,0,1.4122,Peridotite_05,7,05,2,7,1.412,0.107349876,-0.414681272,1,0,0,1.7209,Peridotite_rect,7,1.721,1,12,0,12,0,1,,,,,,,,,,,,,
631a68ee10ec68377cb03457,SCN,2024-06-20_15h31.24.686,LearnStrategy,2023.2.3,MacIntel,70.92198582,8,1,14,-0.221636737,-0.43764705,1,0,0,4.0785,Pegmatite_13,6,13,1,3,4.079,-0.181318325,-0.391864974,1,0,0,0.9295,Pegmatite_rect,6,0.929,1,13,0,13,0,1,,,,,,,,,,,,,
631a68ee10ec68377cb03457,SCN,2024-06-20_15h31.24.686,LearnStrategy,2023.2.3,MacIntel,70.92198582,8,1,15,0.247121288,0.230525603,1,0,0,3.0658,Diorite_09,3,09,5,6,3.066,0.149520874,-0.242649954,1,0,0,2.2826,Diorite_rect,3,2.283,1,14,0,14,0,1,,,,,,,,,,,,,
631a68ee10ec68377cb03457,SCN,2024-06-20_15h31.24.686,LearnStrategy,2023.2.3,MacIntel,70.92198582,8,1,16,-0.21852417,0.085734106,1,0,0,1.2529,Diorite_15,3,15,4,3,1.253,0.379725703,-0.266516509,1,0,0,1.9659,Gabbro_rect,4,1.966,0,15,0,15,0,1,,,,,,,,,,,,,
631a68ee10ec68377cb03457,SCN,2024-06-20_15h31.24.686,LearnStrategy,2023.2.3,MacIntel,70.92198582,8,2,1,,,,,,,,5,06,,,,,,,,,,,5,2.279,1,,,,,,-0.383697849,-0.406780893,1,0,0,2.2794,Obsidian_rect,0,0,0,0,1,
631a68ee10ec68377cb03457,SCN,2024-06-20_15h31.24.686,LearnStrategy,2023.2.3,MacIntel,70.92198582,8,2,2,,,,,,,,7,16,,,,,,,,,,,7,9.043,1,,,,,,0.112296323,-0.411784306,1,0,0,9.0427,Peridotite_rect,1,0,1,0,1,
631a68ee10ec68377cb03457,SCN,2024-06-20_15h31.24.686,LearnStrategy,2023.2.3,MacIntel,70.92198582,8,2,3,,,,,,,,6,15,,,,,,,,,,,6,0.876,1,,,,,,-0.049393774,-0.416183133,1,0,0,0.8763,Pegmatite_rect,2,0,2,0,1,
631a68ee10ec68377cb03457,SCN,2024-06-20_15h31.24.686,LearnStrategy,2023.2.3,MacIntel,70.92198582,8,2,4,,,,,,,,2,10,,,,,,,,,,,2,1.27,1,,,,,,-0.120177714,-0.24198518,1,0,0,1.2695,Basalt_rect,3,0,3,0,1,
631a68ee10ec68377cb03457,SCN,2024-06-20_15h31.24.686,LearnStrategy,2023.2.3,MacIntel,70.92198582,8,2,5,,,,,,,,1,05,,,,,,,,,,,1,3.266,1,,,,,,-0.45966212,-0.252885607,1,0,0,3.2663,Andesite_rect,4,0,4,0,1,
631a68ee10ec68377cb03457,SCN,2024-06-20_15h31.24.686,LearnStrategy,2023.2.3,MacIntel,70.92198582,8,2,6,,,,,,,,3,07,,,,,,,,,,,3,1.101,1,,,,,,0.074359018,-0.237819643,1,0,0,1.101,Diorite_rect,5,0,5,0,1,
631a68ee10ec68377cb03457,SCN,2024-06-20_15h31.24.686,LearnStrategy,2023.2.3,MacIntel,70.92198582,8,2,7,,,,,,,,8,09,,,,,,,,,,,8,1.063,1,,,,,,0.399035079,-0.410963553,1,0,0,1.0634,Pumice_rect,6,0,6,0,1,
631a68ee10ec68377cb03457,SCN,2024-06-20_15h31.24.686,LearnStrategy,2023.2.3,MacIntel,70.92198582,8,2,8,,,,,,,,2,05,,,,,,,,,,,2,0.912,1,,,,,,-0.143425327,-0.269110899,1,0,0,0.9124,Basalt_rect,7,0,7,0,1,
631a68ee10ec68377cb03457,SCN,2024-06-20_15h31.24.686,LearnStrategy,2023.2.3,MacIntel,70.92198582,8,2,9,,,,,,,,8,16,,,,,,,,,,,8,1.096,1,,,,,,0.423193811,-0.415575663,1,0,0,1.0964,Pumice_rect,8,0,8,0,1,
631a68ee10ec68377cb03457,SCN,2024-06-20_15h31.24.686,LearnStrategy,2023.2.3,MacIntel,70.92198582,8,2,10,,,,,,,,5,05,,,,,,,,,,,5,1.123,1,,,,,,-0.344134352,-0.407396274,1,0,0,1.1235,Obsidian_rect,9,0,9,0,1,
631a68ee10ec68377cb03457,SCN,2024-06-20_15h31.24.686,LearnStrategy,2023.2.3,MacIntel,70.92198582,8,2,11,,,,,,,,3,16,,,,,,,,,,,3,1.935,1,,,,,,0.121500312,-0.260054412,1,0,0,1.9349,Diorite_rect,10,0,10,0,1,
631a68ee10ec68377cb03457,SCN,2024-06-20_15h31.24.686,LearnStrategy,2023.2.3,MacIntel,70.92198582,8,2,12,,,,,,,,6,05,,,,,,,,,,,6,1.707,1,,,,,,-0.157570507,-0.417643794,1,0,0,1.7066,Pegmatite_rect,11,0,11,0,1,
631a68ee10ec68377cb03457,SCN,2024-06-20_15h31.24.686,LearnStrategy,2023.2.3,MacIntel,70.92198582,8,2,13,,,,,,,,1,03,,,,,,,,,,,1,7.397,1,,,,,,-0.360076848,-0.26192853,1,0,0,7.3974,Andesite_rect,12,0,12,0,1,
631a68ee10ec68377cb03457,SCN,2024-06-20_15h31.24.686,LearnStrategy,2023.2.3,MacIntel,70.92198582,8,2,14,,,,,,,,7,13,,,,,,,,,,,7,1.131,1,,,,,,0.084357933,-0.391758219,1,0,0,1.1309,Peridotite_rect,13,0,13,0,1,
631a68ee10ec68377cb03457,SCN,2024-06-20_15h31.24.686,LearnStrategy,2023.2.3,MacIntel,70.92198582,8,2,15,,,,,,,,4,08,,,,,,,,,,,4,1.323,1,,,,,,0.429339147,-0.242417795,1,0,0,1.3226,Gabbro_rect,14,0,14,0,1,
631a68ee10ec68377cb03457,SCN,2024-06-20_15h31.24.686,LearnStrategy,2023.2.3,MacIntel,70.92198582,8,2,16,,,,,,,,4,16,,,,,,,,,,,2,1.206,0,,,,,,-0.105250097,-0.260034067,1,0,0,1.2059,Basalt_rect,15,0,15,0,1,
631a68ee10ec68377cb03457,SCN,2024-06-20_15h31.24.686,LearnStrategy,2023.2.3,MacIntel,70.92198582,9,1,1,0.373635299,0.095149627,1,0,0,4.5447,Andesite_07,1,07,4,7,4.545,0.159739402,-0.248334418,1,0,0,0.7169,Diorite_rect,3,0.717,0,0,0,0,0,1,,,,,,,,,,,,,
631a68ee10ec68377cb03457,SCN,2024-06-20_15h31.24.686,LearnStrategy,2023.2.3,MacIntel,70.92198582,9,1,2,0.407420745,0.369098353,1,0,0,2.0389,Andesite_06,1,06,6,7,2.039,-0.350935025,-0.231795869,1,0,0,0.9066,Andesite_rect,1,0.907,1,1,0,1,0,1,,,,,,,,,,,,,
631a68ee10ec68377cb03457,SCN,2024-06-20_15h31.24.686,LearnStrategy,2023.2.3,MacIntel,70.92198582,9,1,3,-0.076767363,0.389408889,1,0,0,1.3318,Diorite_10,3,10,6,4,1.332,0.354024703,-0.228035538,1,0,0,1.7089,Gabbro_rect,4,1.709,0,2,0,2,0,1,,,,,,,,,,,,,
631a68ee10ec68377cb03457,SCN,2024-06-20_15h31.24.686,LearnStrategy,2023.2.3,MacIntel,70.92198582,9,1,4,-0.076767872,0.437593658,1,0,0,0.7998,Diorite_10,3,10,6,4,0.8,0.099656621,-0.265992228,1,0,0,2.7009,Diorite_rect,3,2.701,1,3,0,3,0,1,,,,,,,,,,,,,
631a68ee10ec68377cb03457,SCN,2024-06-20_15h31.24.686,LearnStrategy,2023.2.3,MacIntel,70.92198582,9,1,5,0.055917019,-0.110505733,1,0,0,1.1455,Peridotite_06,7,06,3,5,1.145,0.070056152,-0.404759386,1,0,0,1.2825,Peridotite_rect,7,1.283,1,4,0,4,0,1,,,,,,,,,,,,,
631a68ee10ec68377cb03457,SCN,2024-06-20_15h31.24.686,LearnStrategy,2023.2.3,MacIntel,70.92198582,9,1,6,-0.244290161,0.093749039,1,0,0,0.772,Diorite_15,3,15,4,3,0.772,0.174616609,-0.252523352,1,0,0,1.9724,Diorite_rect,3,1.972,1,5,0,5,0,1,,,,,,,,,,,,,
631a68ee10ec68377cb03457,SCN,2024-06-20_15h31.24.686,LearnStrategy,2023.2.3,MacIntel,70.92198582,9,1,7,0.416627446,-0.441851976,1,0,0,23.9921,Obsidian_07,5,07,1,7,23.992,-0.378374057,-0.395887926,1,0,0,0.9114,Obsidian_rect,5,0.911,1,6,0,6,0,1,,,,,,,,,,,,,
631a68ee10ec68377cb03457,SCN,2024-06-20_15h31.24.686,LearnStrategy,2023.2.3,MacIntel,70.92198582,9,1,8,-0.089057188,-0.126181313,1,0,0,1.185,Obsidian_10,5,10,3,4,1.185,-0.34813159,-0.410744674,1,0,0,1.1152,Obsidian_rect,5,1.115,1,7,0,7,0,1,,,,,,,,,,,,,
631a68ee10ec68377cb03457,SCN,2024-06-20_15h31.24.686,LearnStrategy,2023.2.3,MacIntel,70.92198582,9,1,9,-0.191707018,-0.101042288,1,0,0,0.8918,Gabbro_05,4,05,3,3,0.892,0.40277337,-0.238701262,1,0,0,1.1459,Gabbro_rect,4,1.146,1,8,0,8,0,1,,,,,,,,,,,,,
631a68ee10ec68377cb03457,SCN,2024-06-20_15h31.24.686,LearnStrategy,2023.2.3,MacIntel,70.92198582,9,1,10,0.561575996,0.259308398,1,0,0,7.1838,Pumice_10,8,10,5,8,7.184,0.350336032,-0.408965612,1,0,0,1.1707,Pumice_rect,8,1.171,1,9,0,9,0,1,,,,,,,,,,,,,
631a68ee10ec68377cb03457,SCN,2024-06-20_15h31.24.686,LearnStrategy,2023.2.3,MacIntel,70.92198582,9,1,11,0.252124702,0.078114149,1,0,0,1.3318,Gabbro_15,4,15,4,6,1.332,0.119613987,-0.229420923,1,0,0,1.6752,Diorite_rect,3,1.675,0,10,0,10,0,1,,,,,,,,,,,,,
631a68ee10ec68377cb03457,SCN,2024-06-20_15h31.24.686,LearnStrategy,2023.2.3,MacIntel,70.92198582,9,1,12,0.19162722,0.065009816,1,0,0,0.7988,Gabbro_15,4,15,4,6,0.799,0.434260616,-0.246396044,1,0,0,2.1863,Gabbro_rect,4,2.186,1,11,0,11,0,1,,,,,,,,,,,,,
631a68ee10ec68377cb03457,SCN,2024-06-20_15h31.24.686,LearnStrategy,2023.2.3,MacIntel,70.92198582,9,1,13,-0.07446306,0.095649945,1,0,0,0.8658,Pegmatite_06,6,06,4,4,0.866,-0.130419187,-0.397776681,1,0,0,0.779,Pegmatite_rect,6,0.779,1,12,0,12,0,1,,,,,,,,,,,,,
631a68ee10ec68377cb03457,SCN,2024-06-20_15h31.24.686,LearnStrategy,2023.2.3,MacIntel,70.92198582,9,1,14,-0.224704714,0.069632862,1,0,0,0.6391,Diorite_15,3,15,4,3,0.639,0.154472747,-0.248703907,1,0,0,1.4423,Diorite_rect,3,1.442,1,13,0,13,0,1,,,,,,,,,,,,,
631a68ee10ec68377cb03457,SCN,2024-06-20_15h31.24.686,LearnStrategy,2023.2.3,MacIntel,70.92198582,9,1,15,0.359531431,0.439840585,1,0,0,3.3308,Andesite_06,1,06,6,7,3.331,-0.367521328,-0.239906707,1,0,0,1.3068,Andesite_rect,1,1.307,1,14,0,14,0,1,,,,,,,,,,,,,
631a68ee10ec68377cb03457,SCN,2024-06-20_15h31.24.686,LearnStrategy,2023.2.3,MacIntel,70.92198582,9,1,16,-0.381401627,0.26847708,1,0,0,2.105,Gabbro_03,4,03,5,2,2.105,0.420378847,-0.231374105,1,0,0,1.138,Gabbro_rect,4,1.138,1,15,0,15,0,1,,,,,,,,,,,,,
631a68ee10ec68377cb03457,SCN,2024-06-20_15h31.24.686,LearnStrategy,2023.2.3,MacIntel,70.92198582,9,2,1,,,,,,,,7,14,,,,,,,,,,,7,3.28,1,,,,,,0.110474763,-0.407920781,1,0,0,3.2796,Peridotite_rect,0,0,0,0,1,
631a68ee10ec68377cb03457,SCN,2024-06-20_15h31.24.686,LearnStrategy,2023.2.3,MacIntel,70.92198582,9,2,2,,,,,,,,6,10,,,,,,,,,,,6,1.077,1,,,,,,-0.073868533,-0.405560981,1,0,0,1.0766,Pegmatite_rect,1,0,1,0,1,
631a68ee10ec68377cb03457,SCN,2024-06-20_15h31.24.686,LearnStrategy,2023.2.3,MacIntel,70.92198582,9,2,3,,,,,,,,5,08,,,,,,,,,,,5,0.847,1,,,,,,-0.392853687,-0.396558295,1,0,0,0.8467,Obsidian_rect,2,0,2,0,1,
631a68ee10ec68377cb03457,SCN,2024-06-20_15h31.24.686,LearnStrategy,2023.2.3,MacIntel,70.92198582,9,2,4,,,,,,,,7,02,,,,,,,,,,,7,1.359,1,,,,,,0.086012325,-0.39727998,1,0,0,1.3592,Peridotite_rect,3,0,3,0,1,
631a68ee10ec68377cb03457,SCN,2024-06-20_15h31.24.686,LearnStrategy,2023.2.3,MacIntel,70.92198582,9,2,5,,,,,,,,2,11,,,,,,,,,,,2,2.96,1,,,,,,-0.121670871,-0.253915066,1,0,0,2.9602,Basalt_rect,4,0,4,0,1,
631a68ee10ec68377cb03457,SCN,2024-06-20_15h31.24.686,LearnStrategy,2023.2.3,MacIntel,70.92198582,9,2,6,,,,,,,,4,12,,,,,,,,,,,4,1.67,1,,,,,,0.402578283,-0.253497314,1,0,0,1.6705,Gabbro_rect,5,0,5,0,1,
631a68ee10ec68377cb03457,SCN,2024-06-20_15h31.24.686,LearnStrategy,2023.2.3,MacIntel,70.92198582,9,2,7,,,,,,,,8,04,,,,,,,,,,,8,1.06,1,,,,,,0.40826789,-0.39406111,1,0,0,1.0595,Pumice_rect,6,0,6,0,1,
631a68ee10ec68377cb03457,SCN,2024-06-20_15h31.24.686,LearnStrategy,2023.2.3,MacIntel,70.92198582,9,2,8,,,,,,,,1,01,,,,,,,,,,,1,5.693,1,,,,,,-0.377359856,-0.251874401,1,0,0,5.6928,Andesite_rect,7,0,7,0,1,
631a68ee10ec68377cb03457,SCN,2024-06-20_15h31.24.686,LearnStrategy,2023.2.3,MacIntel,70.92198582,9,2,9,,,,,,,,2,14,,,,,,,,,,,8,3.163,0,,,,,,0.364157218,-0.40365691,1,0,0,3.1628,Pumice_rect,8,0,8,0,1,
631a68ee10ec68377cb03457,SCN,2024-06-20_15h31.24.686,LearnStrategy,2023.2.3,MacIntel,70.92198582,9,2,10,,,,,,,,3,12,,,,,,,,,,,3,8.847,1,,,,,,0.162388328,-0.248193811,1,0,0,8.847,Diorite_rect,9,0,9,0,1,
631a68ee10ec68377cb03457,SCN,2024-06-20_15h31.24.686,LearnStrategy,2023.2.3,MacIntel,70.92198582,9,2,11,,,,,,,,1,10,,,,,,,,,,,4,10.927,0,,,,,,0.381731952,-0.238685156,1,0,0,10.9271,Gabbro_rect,10,0,10,0,1,
631a68ee10ec68377cb03457,SCN,2024-06-20_15h31.24.686,LearnStrategy,2023.2.3,MacIntel,70.92198582,9,2,12,,,,,,,,3,14,,,,,,,,,,,3,1.109,1,,,,,,0.166659659,-0.262757139,1,0,0,1.1089,Diorite_rect,11,0,11,0,1,
631a68ee10ec68377cb03457,SCN,2024-06-20_15h31.24.686,LearnStrategy,2023.2.3,MacIntel,70.92198582,9,2,13,,,,,,,,5,12,,,,,,,,,,,5,0.961,1,,,,,,-0.3686858,-0.392729752,1,0,0,0.9607,Obsidian_rect,12,0,12,0,1,
631a68ee10ec68377cb03457,SCN,2024-06-20_15h31.24.686,LearnStrategy,2023.2.3,MacIntel,70.92198582,9,2,14,,,,,,,,8,13,,,,,,,,,,,8,0.927,1,,,,,,0.410164953,-0.388057172,1,0,0,0.9271,Pumice_rect,13,0,13,0,1,
631a68ee10ec68377cb03457,SCN,2024-06-20_15h31.24.686,LearnStrategy,2023.2.3,MacIntel,70.92198582,9,2,15,,,,,,,,6,16,,,,,,,,,,,6,1.04,1,,,,,,-0.06445742,-0.405276546,1,0,0,1.0401,Pegmatite_rect,14,0,14,0,1,
631a68ee10ec68377cb03457,SCN,2024-06-20_15h31.24.686,LearnStrategy,2023.2.3,MacIntel,70.92198582,9,2,16,,,,,,,,4,10,,,,,,,,,,,4,1.92,1,,,,,,0.443078952,-0.250078046,1,0,0,1.9203,Gabbro_rect,15,0,15,0,1,
631a68ee10ec68377cb03457,SCN,2024-06-20_15h31.24.686,LearnStrategy,2023.2.3,MacIntel,70.92198582,,,,,,,,,,,,,,,,,,,,,,,,,,,,,,,,,,,,,,,,,,,1
631a68ee10ec68377cb03457,SCN,2024-06-20_15h31.24.686,LearnStrategy,2023.2.3,MacIntel,70.92198582,,,,,,,,,,,,,,,,,,,,,,,,,,,,,,,,,,,,,,,,,,,
631a68ee10ec68377cb03457,SCN,2024-06-20_15h31.24.686,LearnStrategy,2023.2.3,MacIntel,70.92198582,,,,,,,,,,,8,06,1,1,,,,,,,,,,,,,,,,,,,,,,,,,,,,,
631a68ee10ec68377cb03457,SCN,2024-06-20_15h31.24.686,LearnStrategy,2023.2.3,MacIntel,70.92198582,,,,,,,,,,,4,09,1,2,,,,,,,,,,,,,,,,,,,,,,,,,,,,,
631a68ee10ec68377cb03457,SCN,2024-06-20_15h31.24.686,LearnStrategy,2023.2.3,MacIntel,70.92198582,,,,,,,,,,,6,13,1,3,,,,,,,,,,,,,,,,,,,,,,,,,,,,,
631a68ee10ec68377cb03457,SCN,2024-06-20_15h31.24.686,LearnStrategy,2023.2.3,MacIntel,70.92198582,,,,,,,,,,,2,12,1,4,,,,,,,,,,,,,,,,,,,,,,,,,,,,,
631a68ee10ec68377cb03457,SCN,2024-06-20_15h31.24.686,LearnStrategy,2023.2.3,MacIntel,70.92198582,,,,,,,,,,,5,16,1,5,,,,,,,,,,,,,,,,,,,,,,,,,,,,,
631a68ee10ec68377cb03457,SCN,2024-06-20_15h31.24.686,LearnStrategy,2023.2.3,MacIntel,70.92198582,,,,,,,,,,,4,13,1,6,,,,,,,,,,,,,,,,,,,,,,,,,,,,,
631a68ee10ec68377cb03457,SCN,2024-06-20_15h31.24.686,LearnStrategy,2023.2.3,MacIntel,70.92198582,,,,,,,,,,,5,07,1,7,,,,,,,,,,,,,,,,,,,,,,,,,,,,,
631a68ee10ec68377cb03457,SCN,2024-06-20_15h31.24.686,LearnStrategy,2023.2.3,MacIntel,70.92198582,,,,,,,,,,,5,04,1,8,,,,,,,,,,,,,,,,,,,,,,,,,,,,,
631a68ee10ec68377cb03457,SCN,2024-06-20_15h31.24.686,LearnStrategy,2023.2.3,MacIntel,70.92198582,,,,,,,,,,,7,10,2,1,,,,,,,,,,,,,,,,,,,,,,,,,,,,,
631a68ee10ec68377cb03457,SCN,2024-06-20_15h31.24.686,LearnStrategy,2023.2.3,MacIntel,70.92198582,,,,,,,,,,,6,07,2,2,,,,,,,,,,,,,,,,,,,,,,,,,,,,,
631a68ee10ec68377cb03457,SCN,2024-06-20_15h31.24.686,LearnStrategy,2023.2.3,MacIntel,70.92198582,,,,,,,,,,,2,09,2,3,,,,,,,,,,,,,,,,,,,,,,,,,,,,,
631a68ee10ec68377cb03457,SCN,2024-06-20_15h31.24.686,LearnStrategy,2023.2.3,MacIntel,70.92198582,,,,,,,,,,,5,02,2,4,,,,,,,,,,,,,,,,,,,,,,,,,,,,,
631a68ee10ec68377cb03457,SCN,2024-06-20_15h31.24.686,LearnStrategy,2023.2.3,MacIntel,70.92198582,,,,,,,,,,,3,13,2,5,,,,,,,,,,,,,,,,,,,,,,,,,,,,,
631a68ee10ec68377cb03457,SCN,2024-06-20_15h31.24.686,LearnStrategy,2023.2.3,MacIntel,70.92198582,,,,,,,,,,,1,02,2,6,,,,,,,,,,,,,,,,,,,,,,,,,,,,,
631a68ee10ec68377cb03457,SCN,2024-06-20_15h31.24.686,LearnStrategy,2023.2.3,MacIntel,70.92198582,,,,,,,,,,,7,05,2,7,,,,,,,,,,,,,,,,,,,,,,,,,,,,,
631a68ee10ec68377cb03457,SCN,2024-06-20_15h31.24.686,LearnStrategy,2023.2.3,MacIntel,70.92198582,,,,,,,,,,,2,08,2,8,,,,,,,,,,,,,,,,,,,,,,,,,,,,,
631a68ee10ec68377cb03457,SCN,2024-06-20_15h31.24.686,LearnStrategy,2023.2.3,MacIntel,70.92198582,,,,,,,,,,,5,09,3,1,,,,,,,,,,,,,,,,,,,,,,,,,,,,,
631a68ee10ec68377cb03457,SCN,2024-06-20_15h31.24.686,LearnStrategy,2023.2.3,MacIntel,70.92198582,,,,,,,,,,,4,11,3,2,,,,,,,,,,,,,,,,,,,,,,,,,,,,,
631a68ee10ec68377cb03457,SCN,2024-06-20_15h31.24.686,LearnStrategy,2023.2.3,MacIntel,70.92198582,,,,,,,,,,,4,05,3,3,,,,,,,,,,,,,,,,,,,,,,,,,,,,,
631a68ee10ec68377cb03457,SCN,2024-06-20_15h31.24.686,LearnStrategy,2023.2.3,MacIntel,70.92198582,,,,,,,,,,,5,10,3,4,,,,,,,,,,,,,,,,,,,,,,,,,,,,,
631a68ee10ec68377cb03457,SCN,2024-06-20_15h31.24.686,LearnStrategy,2023.2.3,MacIntel,70.92198582,,,,,,,,,,,7,06,3,5,,,,,,,,,,,,,,,,,,,,,,,,,,,,,
631a68ee10ec68377cb03457,SCN,2024-06-20_15h31.24.686,LearnStrategy,2023.2.3,MacIntel,70.92198582,,,,,,,,,,,6,03,3,6,,,,,,,,,,,,,,,,,,,,,,,,,,,,,
631a68ee10ec68377cb03457,SCN,2024-06-20_15h31.24.686,LearnStrategy,2023.2.3,MacIntel,70.92198582,,,,,,,,,,,1,09,3,7,,,,,,,,,,,,,,,,,,,,,,,,,,,,,
631a68ee10ec68377cb03457,SCN,2024-06-20_15h31.24.686,LearnStrategy,2023.2.3,MacIntel,70.92198582,,,,,,,,,,,7,04,3,8,,,,,,,,,,,,,,,,,,,,,,,,,,,,,
631a68ee10ec68377cb03457,SCN,2024-06-20_15h31.24.686,LearnStrategy,2023.2.3,MacIntel,70.92198582,,,,,,,,,,,6,11,4,1,,,,,,,,,,,,,,,,,,,,,,,,,,,,,
631a68ee10ec68377cb03457,SCN,2024-06-20_15h31.24.686,LearnStrategy,2023.2.3,MacIntel,70.92198582,,,,,,,,,,,8,14,4,2,,,,,,,,,,,,,,,,,,,,,,,,,,,,,
631a68ee10ec68377cb03457,SCN,2024-06-20_15h31.24.686,LearnStrategy,2023.2.3,MacIntel,70.92198582,,,,,,,,,,,3,15,4,3,,,,,,,,,,,,,,,,,,,,,,,,,,,,,
631a68ee10ec68377cb03457,SCN,2024-06-20_15h31.24.686,LearnStrategy,2023.2.3,MacIntel,70.92198582,,,,,,,,,,,6,06,4,4,,,,,,,,,,,,,,,,,,,,,,,,,,,,,
631a68ee10ec68377cb03457,SCN,2024-06-20_15h31.24.686,LearnStrategy,2023.2.3,MacIntel,70.92198582,,,,,,,,,,,2,01,4,5,,,,,,,,,,,,,,,,,,,,,,,,,,,,,
631a68ee10ec68377cb03457,SCN,2024-06-20_15h31.24.686,LearnStrategy,2023.2.3,MacIntel,70.92198582,,,,,,,,,,,4,15,4,6,,,,,,,,,,,,,,,,,,,,,,,,,,,,,
631a68ee10ec68377cb03457,SCN,2024-06-20_15h31.24.686,LearnStrategy,2023.2.3,MacIntel,70.92198582,,,,,,,,,,,1,07,4,7,,,,,,,,,,,,,,,,,,,,,,,,,,,,,
631a68ee10ec68377cb03457,SCN,2024-06-20_15h31.24.686,LearnStrategy,2023.2.3,MacIntel,70.92198582,,,,,,,,,,,8,03,4,8,,,,,,,,,,,,,,,,,,,,,,,,,,,,,
631a68ee10ec68377cb03457,SCN,2024-06-20_15h31.24.686,LearnStrategy,2023.2.3,MacIntel,70.92198582,,,,,,,,,,,2,16,5,1,,,,,,,,,,,,,,,,,,,,,,,,,,,,,
631a68ee10ec68377cb03457,SCN,2024-06-20_15h31.24.686,LearnStrategy,2023.2.3,MacIntel,70.92198582,,,,,,,,,,,4,03,5,2,,,,,,,,,,,,,,,,,,,,,,,,,,,,,
631a68ee10ec68377cb03457,SCN,2024-06-20_15h31.24.686,LearnStrategy,2023.2.3,MacIntel,70.92198582,,,,,,,,,,,1,11,5,3,,,,,,,,,,,,,,,,,,,,,,,,,,,,,
631a68ee10ec68377cb03457,SCN,2024-06-20_15h31.24.686,LearnStrategy,2023.2.3,MacIntel,70.92198582,,,,,,,,,,,7,08,5,4,,,,,,,,,,,,,,,,,,,,,,,,,,,,,
631a68ee10ec68377cb03457,SCN,2024-06-20_15h31.24.686,LearnStrategy,2023.2.3,MacIntel,70.92198582,,,,,,,,,,,3,08,5,5,,,,,,,,,,,,,,,,,,,,,,,,,,,,,
631a68ee10ec68377cb03457,SCN,2024-06-20_15h31.24.686,LearnStrategy,2023.2.3,MacIntel,70.92198582,,,,,,,,,,,3,09,5,6,,,,,,,,,,,,,,,,,,,,,,,,,,,,,
631a68ee10ec68377cb03457,SCN,2024-06-20_15h31.24.686,LearnStrategy,2023.2.3,MacIntel,70.92198582,,,,,,,,,,,7,12,5,7,,,,,,,,,,,,,,,,,,,,,,,,,,,,,
631a68ee10ec68377cb03457,SCN,2024-06-20_15h31.24.686,LearnStrategy,2023.2.3,MacIntel,70.92198582,,,,,,,,,,,8,10,5,8,,,,,,,,,,,,,,,,,,,,,,,,,,,,,
631a68ee10ec68377cb03457,SCN,2024-06-20_15h31.24.686,LearnStrategy,2023.2.3,MacIntel,70.92198582,,,,,,,,,,,8,05,6,1,,,,,,,,,,,,,,,,,,,,,,,,,,,,,
631a68ee10ec68377cb03457,SCN,2024-06-20_15h31.24.686,LearnStrategy,2023.2.3,MacIntel,70.92198582,,,,,,,,,,,6,09,6,2,,,,,,,,,,,,,,,,,,,,,,,,,,,,,
631a68ee10ec68377cb03457,SCN,2024-06-20_15h31.24.686,LearnStrategy,2023.2.3,MacIntel,70.92198582,,,,,,,,,,,1,04,6,3,,,,,,,,,,,,,,,,,,,,,,,,,,,,,
631a68ee10ec68377cb03457,SCN,2024-06-20_15h31.24.686,LearnStrategy,2023.2.3,MacIntel,70.92198582,,,,,,,,,,,3,10,6,4,,,,,,,,,,,,,,,,,,,,,,,,,,,,,
631a68ee10ec68377cb03457,SCN,2024-06-20_15h31.24.686,LearnStrategy,2023.2.3,MacIntel,70.92198582,,,,,,,,,,,2,02,6,5,,,,,,,,,,,,,,,,,,,,,,,,,,,,,
631a68ee10ec68377cb03457,SCN,2024-06-20_15h31.24.686,LearnStrategy,2023.2.3,MacIntel,70.92198582,,,,,,,,,,,3,02,6,6,,,,,,,,,,,,,,,,,,,,,,,,,,,,,
631a68ee10ec68377cb03457,SCN,2024-06-20_15h31.24.686,LearnStrategy,2023.2.3,MacIntel,70.92198582,,,,,,,,,,,1,06,6,7,,,,,,,,,,,,,,,,,,,,,,,,,,,,,
631a68ee10ec68377cb03457,SCN,2024-06-20_15h31.24.686,LearnStrategy,2023.2.3,MacIntel,70.92198582,,,,,,,,,,,8,02,6,8,,,,,,,,,,,,,,,,,,,,,,,,,,,,,