participant,condition,date,expName,psychopyVersion,OS,frameRate,block,phase,trial,learn_mouse_2.x,learn_mouse_2.y,learn_mouse_2.leftButton,learn_mouse_2.midButton,learn_mouse_2.rightButton,learn_mouse_2.time,learn_mouse_2.clicked_name,cat,token,row,col,t_select,cat_mouse_l.x,cat_mouse_l.y,cat_mouse_l.leftButton,cat_mouse_l.midButton,cat_mouse_l.rightButton,cat_mouse_l.time,cat_mouse_l.clicked_name,resp,t_resp,corr,train_trials.thisRepN,train_trials.thisTrialN,train_trials.thisN,train_trials.thisIndex,train_trials.ran,cat_mouse_t.x,cat_mouse_t.y,cat_mouse_t.leftButton,cat_mouse_t.midButton,cat_mouse_t.rightButton,cat_mouse_t.time,cat_mouse_t.clicked_name,test_trials.thisRepN,test_trials.thisTrialN,test_trials.thisN,test_trials.thisIndex,test_trials.ran,Bonus
63251e479509813fab713ad2,TCN,2024-06-21_11h02.45.834,LearnStrategy,2023.2.3,Win32,60.24096386,,,,,,,,,,,,,,,,,,,,,,,,,,,,,,,,,,,,,,,,,,,
63251e479509813fab713ad2,TCN,2024-06-21_11h02.45.834,LearnStrategy,2023.2.3,Win32,60.24096386,1,1,1,-0.008697273,0.003145801,1,0,0,3.077,rock_grid_rect_2,4,13,-1,-1,3.077,0.101406354,-0.409511507,1,0,0,8.4242,Peridotite_rect,7,8.424,0,0,0,0,0,1,,,,,,,,,,,,,
63251e479509813fab713ad2,TCN,2024-06-21_11h02.45.834,LearnStrategy,2023.2.3,Win32,60.24096386,1,1,2,-0.006846769,-0.002405631,1,0,0,1.1254,rock_grid_rect_2,8,08,-1,-1,1.125,-0.10492228,-0.242042976,1,0,0,3.0594,Basalt_rect,2,3.059,0,1,0,1,0,1,,,,,,,,,,,,,
63251e479509813fab713ad2,TCN,2024-06-21_11h02.45.834,LearnStrategy,2023.2.3,Win32,60.24096386,1,1,3,0.001480419,0.012398201,1,0,0,1.1213,rock_grid_rect_2,5,11,-1,-1,1.121,-0.344559585,-0.416913443,1,0,0,5.8769,Obsidian_rect,5,5.877,1,2,0,2,0,1,,,,,,,,,,,,,
63251e479509813fab713ad2,TCN,2024-06-21_11h02.45.834,LearnStrategy,2023.2.3,Win32,60.24096386,1,1,4,0.07179869,-0.017209503,1,0,0,1.3012,rock_grid_rect_2,1,10,-1,-1,1.301,-0.148408564,-0.230940033,1,0,0,8.9087,Basalt_rect,2,8.909,0,3,0,3,0,1,,,,,,,,,,,,,
63251e479509813fab713ad2,TCN,2024-06-21_11h02.45.834,LearnStrategy,2023.2.3,Win32,60.24096386,1,1,5,-0.032753505,-0.018134715,1,0,0,1.1457,rock_grid_rect_2,8,03,-1,-1,1.146,0.168948949,-0.397483391,1,0,0,7.0562,Peridotite_rect,7,7.056,0,4,0,4,0,1,,,,,,,,,,,,,
63251e479509813fab713ad2,TCN,2024-06-21_11h02.45.834,LearnStrategy,2023.2.3,Win32,60.24096386,1,1,6,0.010732779,-0.002405631,1,0,0,1.2789,rock_grid_rect_2,7,16,-1,-1,1.279,0.340118487,-0.241117724,1,0,0,5.5548,Gabbro_rect,4,5.555,0,5,0,5,0,1,,,,,,,,,,,,,
63251e479509813fab713ad2,TCN,2024-06-21_11h02.45.834,LearnStrategy,2023.2.3,Win32,60.24096386,1,1,7,-0.013323453,-0.014433747,1,0,0,2.9285,rock_grid_rect_2,2,10,-1,-1,2.928,-0.076239788,-0.393782383,1,0,0,7.1947,Pegmatite_rect,6,7.195,0,6,0,6,0,1,,,,,,,,,,,,,
63251e479509813fab713ad2,TCN,2024-06-21_11h02.45.834,LearnStrategy,2023.2.3,Win32,60.24096386,1,1,8,0.002405671,0.023501105,1,0,0,1.4352,rock_grid_rect_2,3,12,-1,-1,1.435,-0.089193156,-0.247594408,1,0,0,9.0736,Basalt_rect,2,9.074,0,7,0,7,0,1,,,,,,,,,,,,,
63251e479509813fab713ad2,TCN,2024-06-21_11h02.45.834,LearnStrategy,2023.2.3,Win32,60.24096386,1,1,9,0.006106599,-0.017209503,1,0,0,1.0605,rock_grid_rect_2,1,16,-1,-1,1.06,-0.080865969,-0.24851966,1,0,0,8.3261,Basalt_rect,2,8.326,0,8,0,8,0,1,,,,,,,,,,,,,
63251e479509813fab713ad2,TCN,2024-06-21_11h02.45.834,LearnStrategy,2023.2.3,Win32,60.24096386,1,1,10,0.07642487,-0.008882315,1,0,0,1.1763,rock_grid_rect_2,6,13,-1,-1,1.176,0.148593646,-0.402109571,1,0,0,8.3893,Peridotite_rect,7,8.389,0,9,0,9,0,1,,,,,,,,,,,,,
63251e479509813fab713ad2,TCN,2024-06-21_11h02.45.834,LearnStrategy,2023.2.3,Win32,60.24096386,1,1,11,0.008882355,0.014248705,1,0,0,2.762,rock_grid_rect_2,7,08,-1,-1,2.762,-0.349185766,-0.260547776,1,0,0,6.2017,Andesite_rect,1,6.202,0,10,0,10,0,1,,,,,,,,,,,,,
63251e479509813fab713ad2,TCN,2024-06-21_11h02.45.834,LearnStrategy,2023.2.3,Win32,60.24096386,1,1,12,-0.010547697,-0.013508535,1,0,0,1.127,rock_grid_rect_2,3,14,-1,-1,1.127,-0.112324216,-0.228164357,1,0,0,2.4771,Basalt_rect,2,2.477,0,11,0,11,0,1,,,,,,,,,,,,,
63251e479509813fab713ad2,TCN,2024-06-21_11h02.45.834,LearnStrategy,2023.2.3,Win32,60.24096386,1,1,13,0.040340522,-0.017209503,1,0,0,1.0967,rock_grid_rect_2,4,08,-1,-1,1.097,-0.107697956,-0.239267221,1,0,0,3.6515,Basalt_rect,2,3.652,0,12,0,12,0,1,,,,,,,,,,,,,
63251e479509813fab713ad2,TCN,2024-06-21_11h02.45.834,LearnStrategy,2023.2.3,Win32,60.24096386,1,1,14,0.020910471,0.022575853,1,0,0,1.0955,rock_grid_rect_2,6,05,-1,-1,1.096,-0.061435917,-0.23001486,1,0,0,2.1308,Basalt_rect,2,2.131,0,13,0,13,0,1,,,,,,,,,,,,,
63251e479509813fab713ad2,TCN,2024-06-21_11h02.45.834,LearnStrategy,2023.2.3,Win32,60.24096386,1,1,15,-0.011472949,-0.003330883,1,0,0,1.2764,rock_grid_rect_2,2,01,-1,-1,1.276,-0.32790525,-0.254071092,1,0,0,4.8107,Andesite_rect,1,4.811,0,14,0,14,0,1,,,,,,,,,,,,,
63251e479509813fab713ad2,TCN,2024-06-21_11h02.45.834,LearnStrategy,2023.2.3,Win32,60.24096386,1,1,16,-0.030903001,-0.009807567,1,0,0,0.9607,rock_grid_rect_2,5,04,-1,-1,0.961,-0.356587702,-0.401184319,1,0,0,3.9712,Obsidian_rect,5,3.971,1,15,0,15,0,1,,,,,,,,,,,,,
63251e479509813fab713ad2,TCN,2024-06-21_11h02.45.834,LearnStrategy,2023.2.3,Win32,60.24096386,1,2,1,,,,,,,,2,12,,,,,,,,,,,2,12.566,1,,,,,,-0.068837853,-0.252220589,1,0,0,12.5659,Basalt_rect,0,0,0,0,1,
63251e479509813fab713ad2,TCN,2024-06-21_11h02.45.834,LearnStrategy,2023.2.3,Win32,60.24096386,1,2,2,,,,,,,,7,12,,,,,,,,,,,4,7.699,0,,,,,,0.495558823,-0.254071092,1,0,0,7.699,Gabbro_rect,1,0,1,0,1,
63251e479509813fab713ad2,TCN,2024-06-21_11h02.45.834,LearnStrategy,2023.2.3,Win32,60.24096386,1,2,3,,,,,,,,6,10,,,,,,,,,,,1,10.41,0,,,,,,-0.322353818,-0.260547776,1,0,0,10.4099,Andesite_rect,2,0,2,0,1,
63251e479509813fab713ad2,TCN,2024-06-21_11h02.45.834,LearnStrategy,2023.2.3,Win32,60.24096386,1,2,4,,,,,,,,5,06,,,,,,,,,,,5,6.155,1,,,,,,-0.453737961,-0.406735751,1,0,0,6.1549,Obsidian_rect,3,0,3,0,1,
63251e479509813fab713ad2,TCN,2024-06-21_11h02.45.834,LearnStrategy,2023.2.3,Win32,60.24096386,1,2,5,,,,,,,,3,07,,,,,,,,,,,4,9.437,0,,,,,,0.394707635,-0.259622524,1,0,0,9.437,Gabbro_rect,4,0,4,0,1,
63251e479509813fab713ad2,TCN,2024-06-21_11h02.45.834,LearnStrategy,2023.2.3,Win32,60.24096386,1,2,6,,,,,,,,5,16,,,,,,,,,,,5,1.7,1,,,,,,-0.405625457,-0.407661003,1,0,0,1.7005,Obsidian_rect,5,0,5,0,1,
63251e479509813fab713ad2,TCN,2024-06-21_11h02.45.834,LearnStrategy,2023.2.3,Win32,60.24096386,1,2,7,,,,,,,,1,07,,,,,,,,,,,3,4.223,0,,,,,,0.097705426,-0.250370085,1,0,0,4.2234,Diorite_rect,6,0,6,0,1,
63251e479509813fab713ad2,TCN,2024-06-21_11h02.45.834,LearnStrategy,2023.2.3,Win32,60.24096386,1,2,8,,,,,,,,7,13,,,,,,,,,,,4,8.097,0,,,,,,0.342894164,-0.269800137,1,0,0,8.0969,Gabbro_rect,7,0,7,0,1,
63251e479509813fab713ad2,TCN,2024-06-21_11h02.45.834,LearnStrategy,2023.2.3,Win32,60.24096386,1,2,9,,,,,,,,4,05,,,,,,,,,,,6,5.696,0,,,,,,-0.078090292,-0.394707635,1,0,0,5.696,Pegmatite_rect,8,0,8,0,1,
63251e479509813fab713ad2,TCN,2024-06-21_11h02.45.834,LearnStrategy,2023.2.3,Win32,60.24096386,1,2,10,,,,,,,,4,11,,,,,,,,,,,2,2.077,0,,,,,,-0.092894164,-0.259622524,1,0,0,2.0765,Basalt_rect,9,0,9,0,1,
63251e479509813fab713ad2,TCN,2024-06-21_11h02.45.834,LearnStrategy,2023.2.3,Win32,60.24096386,1,2,11,,,,,,,,3,16,,,,,,,,,,,7,79.616,0,,,,,,0.112509298,-0.407661003,1,0,0,79.6162,Peridotite_rect,10,0,10,0,1,
63251e479509813fab713ad2,TCN,2024-06-21_11h02.45.834,LearnStrategy,2023.2.3,Win32,60.24096386,1,2,12,,,,,,,,6,03,,,,,,,,,,,3,5.513,0,,,,,,0.157846085,-0.246669157,1,0,0,5.5131,Diorite_rect,11,0,11,0,1,
63251e479509813fab713ad2,TCN,2024-06-21_11h02.45.834,LearnStrategy,2023.2.3,Win32,60.24096386,1,2,13,,,,,,,,8,02,,,,,,,,,,,8,9.197,1,,,,,,0.422464875,-0.405810499,1,0,0,9.1973,Pumice_rect,12,0,12,0,1,
63251e479509813fab713ad2,TCN,2024-06-21_11h02.45.834,LearnStrategy,2023.2.3,Win32,60.24096386,1,2,14,,,,,,,,1,09,,,,,,,,,,,7,9.798,0,,,,,,0.065322006,-0.391006707,1,0,0,9.7977,Peridotite_rect,13,0,13,0,1,
63251e479509813fab713ad2,TCN,2024-06-21_11h02.45.834,LearnStrategy,2023.2.3,Win32,60.24096386,1,2,15,,,,,,,,8,05,,,,,,,,,,,8,4.724,1,,,,,,0.451147366,-0.398408643,1,0,0,4.7241,Pumice_rect,14,0,14,0,1,
63251e479509813fab713ad2,TCN,2024-06-21_11h02.45.834,LearnStrategy,2023.2.3,Win32,60.24096386,1,2,16,,,,,,,,2,09,,,,,,,,,,,2,1.854,1,,,,,,-0.183567739,-0.240192473,1,0,0,1.8541,Basalt_rect,15,0,15,0,1,
63251e479509813fab713ad2,TCN,2024-06-21_11h02.45.834,LearnStrategy,2023.2.3,Win32,60.24096386,2,1,1,0.008882355,-0.011658031,1,0,0,1.8314,rock_grid_rect_2,2,11,-1,-1,1.831,-0.378793469,-0.260547776,1,0,0,14.7567,Andesite_rect,1,14.757,0,0,0,0,0,1,,,,,,,,,,,,,
63251e479509813fab713ad2,TCN,2024-06-21_11h02.45.834,LearnStrategy,2023.2.3,Win32,60.24096386,2,1,2,-0.062361169,-0.002405631,1,0,0,1.5114,rock_grid_rect_2,8,14,-1,-1,1.511,0.407661003,-0.390081455,1,0,0,1.8286,Pumice_rect,8,1.829,1,1,0,1,0,1,,,,,,,,,,,,,
63251e479509813fab713ad2,TCN,2024-06-21_11h02.45.834,LearnStrategy,2023.2.3,Win32,60.24096386,2,1,3,-0.004996265,-0.019985219,1,0,0,1.1469,rock_grid_rect_2,1,14,-1,-1,1.147,0.14119171,-0.242042976,1,0,0,2.2544,Diorite_rect,3,2.254,0,2,0,2,0,1,,,,,,,,,,,,,
63251e479509813fab713ad2,TCN,2024-06-21_11h02.45.834,LearnStrategy,2023.2.3,Win32,60.24096386,2,1,4,0.022760974,-0.007957063,1,0,0,1.6799,rock_grid_rect_2,7,10,-1,-1,1.68,-0.347335302,-0.241117724,1,0,0,1.8298,Andesite_rect,1,1.83,0,3,0,3,0,1,,,,,,,,,,,,,
63251e479509813fab713ad2,TCN,2024-06-21_11h02.45.834,LearnStrategy,2023.2.3,Win32,60.24096386,2,1,5,0.012583283,-0.012583283,1,0,0,0.9635,rock_grid_rect_2,5,07,-1,-1,0.963,-0.406550709,-0.413212435,1,0,0,1.3216,Obsidian_rect,5,1.322,1,4,0,4,0,1,,,,,,,,,,,,,
63251e479509813fab713ad2,TCN,2024-06-21_11h02.45.834,LearnStrategy,2023.2.3,Win32,60.24096386,2,1,6,0.003330922,-0.022760935,1,0,0,1.3374,rock_grid_rect_2,2,02,-1,-1,1.337,-0.479644696,-0.245743905,1,0,0,4.0684,Andesite_rect,1,4.068,0,5,0,5,0,1,,,,,,,,,,,,,
63251e479509813fab713ad2,TCN,2024-06-21_11h02.45.834,LearnStrategy,2023.2.3,Win32,60.24096386,2,1,7,-0.013323453,0.012398201,1,0,0,1.3616,rock_grid_rect_2,3,11,-1,-1,1.362,0.175425633,-0.416913443,1,0,0,3.1336,Peridotite_rect,7,3.134,0,6,0,6,0,1,,,,,,,,,,,,,
63251e479509813fab713ad2,TCN,2024-06-21_11h02.45.834,LearnStrategy,2023.2.3,Win32,60.24096386,2,1,8,-0.004071013,-0.002405631,1,0,0,1.2619,rock_grid_rect_2,8,16,-1,-1,1.262,0.454848215,-0.406735751,1,0,0,2.1413,Pumice_rect,8,2.141,1,7,0,7,0,1,,,,,,,,,,,,,
63251e479509813fab713ad2,TCN,2024-06-21_11h02.45.834,LearnStrategy,2023.2.3,Win32,60.24096386,2,1,9,-0.013323453,0.007772021,1,0,0,1.0961,rock_grid_rect_2,5,09,-1,-1,1.096,-0.380643973,-0.392857132,1,0,0,1.606,Obsidian_rect,5,1.606,1,8,0,8,0,1,,,,,,,,,,,,,
63251e479509813fab713ad2,TCN,2024-06-21_11h02.45.834,LearnStrategy,2023.2.3,Win32,60.24096386,2,1,10,0.080125878,-0.006106599,1,0,0,1.2636,rock_grid_rect_2,1,03,-1,-1,1.264,-0.158586176,-0.236491544,1,0,0,4.6304,Basalt_rect,2,4.63,0,9,0,9,0,1,,,,,,,,,,,,,
63251e479509813fab713ad2,TCN,2024-06-21_11h02.45.834,LearnStrategy,2023.2.3,Win32,60.24096386,2,1,11,-0.07253886,0.007772021,1,0,0,1.2452,rock_grid_rect_2,4,14,-1,-1,1.245,-0.16506286,-0.395632887,1,0,0,4.5964,Pegmatite_rect,6,4.596,0,10,0,10,0,1,,,,,,,,,,,,,
63251e479509813fab713ad2,TCN,2024-06-21_11h02.45.834,LearnStrategy,2023.2.3,Win32,60.24096386,2,1,12,0.024611399,0.016099169,1,0,0,1.3287,rock_grid_rect_2,4,03,-1,-1,1.329,0.185603246,-0.251295337,1,0,0,2.1,Diorite_rect,3,2.1,0,11,0,11,0,1,,,,,,,,,,,,,
63251e479509813fab713ad2,TCN,2024-06-21_11h02.45.834,LearnStrategy,2023.2.3,Win32,60.24096386,2,1,13,0.007031851,0.005921517,1,0,0,1.2801,rock_grid_rect_2,6,11,-1,-1,1.28,0.106957866,-0.265173957,1,0,0,5.1992,Diorite_rect,3,5.199,0,12,0,12,0,1,,,,,,,,,,,,,
63251e479509813fab713ad2,TCN,2024-06-21_11h02.45.834,LearnStrategy,2023.2.3,Win32,60.24096386,2,1,14,0.019985219,-0.013508535,1,0,0,1.4782,rock_grid_rect_2,3,06,-1,-1,1.478,0.445595855,-0.24851966,1,0,0,7.1066,Gabbro_rect,4,7.107,0,13,0,13,0,1,,,,,,,,,,,,,
63251e479509813fab713ad2,TCN,2024-06-21_11h02.45.834,LearnStrategy,2023.2.3,Win32,60.24096386,2,1,15,-0.012398201,-0.021835683,1,0,0,1.2544,rock_grid_rect_2,7,07,-1,-1,1.254,0.356772784,-0.26702446,1,0,0,9.7305,Gabbro_rect,4,9.731,0,14,0,14,0,1,,,,,,,,,,,,,
63251e479509813fab713ad2,TCN,2024-06-21_11h02.45.834,LearnStrategy,2023.2.3,Win32,60.24096386,2,1,16,0.033863838,-0.012583283,1,0,0,1.1429,rock_grid_rect_2,6,16,-1,-1,1.143,0.107883038,-0.234641041,1,0,0,2.848,Diorite_rect,3,2.848,0,15,0,15,0,1,,,,,,,,,,,,,
63251e479509813fab713ad2,TCN,2024-06-21_11h02.45.834,LearnStrategy,2023.2.3,Win32,60.24096386,2,2,1,,,,,,,,1,06,,,,,,,,,,,1,8.874,1,,,,,,-0.333456682,-0.246669157,1,0,0,8.8743,Andesite_rect,0,0,0,0,1,
63251e479509813fab713ad2,TCN,2024-06-21_11h02.45.834,LearnStrategy,2023.2.3,Win32,60.24096386,2,2,2,,,,,,,,8,15,,,,,,,,,,,8,2.616,1,,,,,,0.383604771,-0.414137687,1,0,0,2.6163,Pumice_rect,1,0,1,0,1,
63251e479509813fab713ad2,TCN,2024-06-21_11h02.45.834,LearnStrategy,2023.2.3,Win32,60.24096386,2,2,3,,,,,,,,6,07,,,,,,,,,,,3,3.572,0,,,,,,0.101406354,-0.244818653,1,0,0,3.572,Diorite_rect,2,0,2,0,1,
63251e479509813fab713ad2,TCN,2024-06-21_11h02.45.834,LearnStrategy,2023.2.3,Win32,60.24096386,2,2,4,,,,,,,,6,08,,,,,,,,,,,3,3.287,0,,,,,,0.116210226,-0.266099208,1,0,0,3.2872,Diorite_rect,3,0,3,0,1,
63251e479509813fab713ad2,TCN,2024-06-21_11h02.45.834,LearnStrategy,2023.2.3,Win32,60.24096386,2,2,5,,,,,,,,4,10,,,,,,,,,,,1,4.405,0,,,,,,-0.436158373,-0.255921596,1,0,0,4.4048,Andesite_rect,4,0,4,0,1,
63251e479509813fab713ad2,TCN,2024-06-21_11h02.45.834,LearnStrategy,2023.2.3,Win32,60.24096386,2,2,6,,,,,,,,2,06,,,,,,,,,,,2,1.618,1,,,,,,-0.218726835,-0.267949712,1,0,0,1.6184,Basalt_rect,5,0,5,0,1,
63251e479509813fab713ad2,TCN,2024-06-21_11h02.45.834,LearnStrategy,2023.2.3,Win32,60.24096386,2,2,7,,,,,,,,1,01,,,,,,,,,,,6,8.107,0,,,,,,-0.14193188,-0.405810499,1,0,0,8.1073,Pegmatite_rect,6,0,6,0,1,
63251e479509813fab713ad2,TCN,2024-06-21_11h02.45.834,LearnStrategy,2023.2.3,Win32,60.24096386,2,2,8,,,,,,,,5,05,,,,,,,,,,,5,2.673,1,,,,,,-0.463915612,-0.406735751,1,0,0,2.6728,Obsidian_rect,7,0,7,0,1,
63251e479509813fab713ad2,TCN,2024-06-21_11h02.45.834,LearnStrategy,2023.2.3,Win32,60.24096386,2,2,9,,,,,,,,2,05,,,,,,,,,,,2,1.943,1,,,,,,-0.130829016,-0.264248705,1,0,0,1.9425,Basalt_rect,8,0,8,0,1,
63251e479509813fab713ad2,TCN,2024-06-21_11h02.45.834,LearnStrategy,2023.2.3,Win32,60.24096386,2,2,10,,,,,,,,5,02,,,,,,,,,,,5,2.741,1,,,,,,-0.400074025,-0.394707635,1,0,0,2.7405,Obsidian_rect,9,0,9,0,1,
63251e479509813fab713ad2,TCN,2024-06-21_11h02.45.834,LearnStrategy,2023.2.3,Win32,60.24096386,2,2,11,,,,,,,,3,10,,,,,,,,,,,7,6.699,0,,,,,,0.17357513,-0.384530023,1,0,0,6.699,Peridotite_rect,10,0,10,0,1,
63251e479509813fab713ad2,TCN,2024-06-21_11h02.45.834,LearnStrategy,2023.2.3,Win32,60.24096386,2,2,12,,,,,,,,3,13,,,,,,,,,,,3,5.067,1,,,,,,0.132864601,-0.245743905,1,0,0,5.0667,Diorite_rect,11,0,11,0,1,
63251e479509813fab713ad2,TCN,2024-06-21_11h02.45.834,LearnStrategy,2023.2.3,Win32,60.24096386,2,2,13,,,,,,,,7,04,,,,,,,,,,,6,4.941,0,,,,,,-0.119726072,-0.399333816,1,0,0,4.9414,Pegmatite_rect,12,0,12,0,1,
63251e479509813fab713ad2,TCN,2024-06-21_11h02.45.834,LearnStrategy,2023.2.3,Win32,60.24096386,2,2,14,,,,,,,,7,06,,,,,,,,,,,3,4.282,0,,,,,,0.148593646,-0.270725389,1,0,0,4.2816,Diorite_rect,13,0,13,0,1,
63251e479509813fab713ad2,TCN,2024-06-21_11h02.45.834,LearnStrategy,2023.2.3,Win32,60.24096386,2,2,15,,,,,,,,8,10,,,,,,,,,,,8,11.083,1,,,,,,0.353071855,-0.414137687,1,0,0,11.0828,Pumice_rect,14,0,14,0,1,
63251e479509813fab713ad2,TCN,2024-06-21_11h02.45.834,LearnStrategy,2023.2.3,Win32,60.24096386,2,2,16,,,,,,,,4,15,,,,,,,,,,,3,3.686,0,,,,,,0.170799453,-0.261473028,1,0,0,3.6864,Diorite_rect,15,0,15,0,1,
63251e479509813fab713ad2,TCN,2024-06-21_11h02.45.834,LearnStrategy,2023.2.3,Win32,60.24096386,3,1,1,-0.006846769,-0.007957063,1,0,0,1.5307,rock_grid_rect_2,6,06,-1,-1,1.531,0.073649194,-0.233715789,1,0,0,1.9863,Diorite_rect,3,1.986,0,0,0,0,0,1,,,,,,,,,,,,,
63251e479509813fab713ad2,TCN,2024-06-21_11h02.45.834,LearnStrategy,2023.2.3,Win32,60.24096386,3,1,2,0.100481182,-0.007957063,1,0,0,1.3461,rock_grid_rect_2,8,04,-1,-1,1.346,0.376202835,-0.403960075,1,0,0,8.2341,Pumice_rect,8,8.234,1,1,0,1,0,1,,,,,,,,,,,,,
63251e479509813fab713ad2,TCN,2024-06-21_11h02.45.834,LearnStrategy,2023.2.3,Win32,60.24096386,3,1,3,0.082901554,-0.018134715,1,0,0,1.3127,rock_grid_rect_2,6,09,-1,-1,1.313,-0.110473712,-0.414137687,1,0,0,5.4825,Pegmatite_rect,6,5.483,1,2,0,2,0,1,,,,,,,,,,,,,
63251e479509813fab713ad2,TCN,2024-06-21_11h02.45.834,LearnStrategy,2023.2.3,Win32,60.24096386,3,1,4,0.087527814,0.008697233,1,0,0,1.1951,rock_grid_rect_2,2,04,-1,-1,1.195,-0.125277583,-0.246669157,1,0,0,1.3214,Basalt_rect,2,1.321,1,3,0,3,0,1,,,,,,,,,,,,,
63251e479509813fab713ad2,TCN,2024-06-21_11h02.45.834,LearnStrategy,2023.2.3,Win32,60.24096386,3,1,5,0.026461903,-0.020910431,1,0,0,1.2943,rock_grid_rect_2,4,09,-1,-1,1.294,-0.379718721,-0.254071092,1,0,0,4.0696,Andesite_rect,1,4.07,0,4,0,4,0,1,,,,,,,,,,,,,
63251e479509813fab713ad2,TCN,2024-06-21_11h02.45.834,LearnStrategy,2023.2.3,Win32,60.24096386,3,1,6,0.019985219,-0.014433747,1,0,0,1.311,rock_grid_rect_2,3,08,-1,-1,1.311,-0.136380448,-0.390081455,1,0,0,4.0419,Pegmatite_rect,6,4.042,0,5,0,5,0,1,,,,,,,,,,,,,
63251e479509813fab713ad2,TCN,2024-06-21_11h02.45.834,LearnStrategy,2023.2.3,Win32,60.24096386,3,1,7,0.087527814,-0.009807567,1,0,0,1.3261,rock_grid_rect_2,8,09,-1,-1,1.326,0.35492228,-0.400259067,1,0,0,2.03,Pumice_rect,8,2.03,1,6,0,6,0,1,,,,,,,,,,,,,
63251e479509813fab713ad2,TCN,2024-06-21_11h02.45.834,LearnStrategy,2023.2.3,Win32,60.24096386,3,1,8,0.007957103,-0.015358999,1,0,0,0.9956,rock_grid_rect_2,7,05,-1,-1,0.996,0.175425633,-0.406735751,1,0,0,6.562,Peridotite_rect,7,6.562,1,7,0,7,0,1,,,,,,,,,,,,,
63251e479509813fab713ad2,TCN,2024-06-21_11h02.45.834,LearnStrategy,2023.2.3,Win32,60.24096386,3,1,9,-0.039230189,0.002220549,1,0,0,1.1447,rock_grid_rect_2,3,09,-1,-1,1.145,0.131939349,-0.239267221,1,0,0,2.2747,Diorite_rect,3,2.275,1,8,0,8,0,1,,,,,,,,,,,,,
63251e479509813fab713ad2,TCN,2024-06-21_11h02.45.834,LearnStrategy,2023.2.3,Win32,60.24096386,3,1,10,0.01628429,-0.009807567,1,0,0,15.9961,rock_grid_rect_2,5,14,-1,-1,15.996,-0.362139134,-0.402109571,1,0,0,1.1626,Obsidian_rect,5,1.163,1,9,0,9,0,1,,,,,,,,,,,,,
63251e479509813fab713ad2,TCN,2024-06-21_11h02.45.834,LearnStrategy,2023.2.3,Win32,60.24096386,3,1,11,0.056994819,-0.013508535,1,0,0,2.5957,rock_grid_rect_2,1,11,-1,-1,2.596,-0.386195405,-0.252220589,1,0,0,9.0988,Andesite_rect,1,9.099,1,10,0,10,0,1,,,,,,,,,,,,,
63251e479509813fab713ad2,TCN,2024-06-21_11h02.45.834,LearnStrategy,2023.2.3,Win32,60.24096386,3,1,12,-0.049407801,-0.012583283,1,0,0,72.6786,rock_grid_rect_2,4,16,-1,-1,72.679,0.352146603,-0.258697273,1,0,0,14.583,Gabbro_rect,4,14.583,1,11,0,11,0,1,,,,,,,,,,,,,
63251e479509813fab713ad2,TCN,2024-06-21_11h02.45.834,LearnStrategy,2023.2.3,Win32,60.24096386,3,1,13,-0.044781621,-0.015358999,1,0,0,1.044,rock_grid_rect_2,2,16,-1,-1,1.044,0.094004498,-0.402109571,1,0,0,5.143,Peridotite_rect,7,5.143,0,12,0,12,0,1,,,,,,,,,,,,,
63251e479509813fab713ad2,TCN,2024-06-21_11h02.45.834,LearnStrategy,2023.2.3,Win32,60.24096386,3,1,14,-0.002220589,-0.006106599,1,0,0,0.844,rock_grid_rect_2,1,02,-1,-1,0.844,0.428941559,-0.253145841,1,0,0,8.8006,Gabbro_rect,4,8.801,0,13,0,13,0,1,,,,,,,,,,,,,
63251e479509813fab713ad2,TCN,2024-06-21_11h02.45.834,LearnStrategy,2023.2.3,Win32,60.24096386,3,1,15,-0.041080692,-0.012583283,1,0,0,0.9616,rock_grid_rect_2,7,02,-1,-1,0.962,-0.188193919,-0.386380448,1,0,0,3.856,Pegmatite_rect,6,3.856,0,14,0,14,0,1,,,,,,,,,,,,,
63251e479509813fab713ad2,TCN,2024-06-21_11h02.45.834,LearnStrategy,2023.2.3,Win32,60.24096386,3,1,16,-0.004071013,0.004071053,1,0,0,1.4951,rock_grid_rect_2,5,08,-1,-1,1.495,-0.427831225,-0.394707635,1,0,0,2.9255,Obsidian_rect,5,2.926,1,15,0,15,0,1,,,,,,,,,,,,,
63251e479509813fab713ad2,TCN,2024-06-21_11h02.45.834,LearnStrategy,2023.2.3,Win32,60.24096386,3,2,1,,,,,,,,3,02,,,,,,,,,,,3,10.364,1,,,,,,0.08567731,-0.240192473,1,0,0,10.3636,Diorite_rect,0,0,0,0,1,
63251e479509813fab713ad2,TCN,2024-06-21_11h02.45.834,LearnStrategy,2023.2.3,Win32,60.24096386,3,2,2,,,,,,,,2,14,,,,,,,,,,,8,2.752,0,,,,,,0.400259067,-0.400259067,1,0,0,2.7516,Pumice_rect,1,0,1,0,1,
63251e479509813fab713ad2,TCN,2024-06-21_11h02.45.834,LearnStrategy,2023.2.3,Win32,60.24096386,3,2,3,,,,,,,,6,15,,,,,,,,,,,6,8.651,1,,,,,,-0.183567739,-0.401184319,1,0,0,8.6511,Pegmatite_rect,2,0,2,0,1,
63251e479509813fab713ad2,TCN,2024-06-21_11h02.45.834,LearnStrategy,2023.2.3,Win32,60.24096386,3,2,4,,,,,,,,8,13,,,,,,,,,,,7,10.332,0,,,,,,0.164322769,-0.390081455,1,0,0,10.332,Peridotite_rect,3,0,3,0,1,
63251e479509813fab713ad2,TCN,2024-06-21_11h02.45.834,LearnStrategy,2023.2.3,Win32,60.24096386,3,2,5,,,,,,,,2,08,,,,,,,,,,,1,6.856,0,,,,,,-0.36491485,-0.24851966,1,0,0,6.8564,Andesite_rect,4,0,4,0,1,
63251e479509813fab713ad2,TCN,2024-06-21_11h02.45.834,LearnStrategy,2023.2.3,Win32,60.24096386,3,2,6,,,,,,,,5,10,,,,,,,,,,,4,9.346,0,,,,,,0.374352332,-0.256846769,1,0,0,9.3455,Gabbro_rect,5,0,5,0,1,
63251e479509813fab713ad2,TCN,2024-06-21_11h02.45.834,LearnStrategy,2023.2.3,Win32,60.24096386,3,2,7,,,,,,,,4,01,,,,,,,,,,,1,3.996,0,,,,,,-0.328830502,-0.23001486,1,0,0,3.9958,Andesite_rect,6,0,6,0,1,
63251e479509813fab713ad2,TCN,2024-06-21_11h02.45.834,LearnStrategy,2023.2.3,Win32,60.24096386,3,2,8,,,,,,,,4,12,,,,,,,,,,,2,2.501,0,,,,,,-0.106772704,-0.260547776,1,0,0,2.5005,Basalt_rect,7,0,7,0,1,
63251e479509813fab713ad2,TCN,2024-06-21_11h02.45.834,LearnStrategy,2023.2.3,Win32,60.24096386,3,2,9,,,,,,,,7,15,,,,,,,,,,,6,4.441,0,,,,,,-0.08641748,-0.395632887,1,0,0,4.4412,Pegmatite_rect,8,0,8,0,1,
63251e479509813fab713ad2,TCN,2024-06-21_11h02.45.834,LearnStrategy,2023.2.3,Win32,60.24096386,3,2,10,,,,,,,,6,12,,,,,,,,,,,3,2.639,0,,,,,,0.102331606,-0.258697273,1,0,0,2.6385,Diorite_rect,9,0,9,0,1,
63251e479509813fab713ad2,TCN,2024-06-21_11h02.45.834,LearnStrategy,2023.2.3,Win32,60.24096386,3,2,11,,,,,,,,1,05,,,,,,,,,,,7,7.995,0,,,,,,0.07179869,-0.394707635,1,0,0,7.9947,Peridotite_rect,10,0,10,0,1,
63251e479509813fab713ad2,TCN,2024-06-21_11h02.45.834,LearnStrategy,2023.2.3,Win32,60.24096386,3,2,12,,,,,,,,1,04,,,,,,,,,,,7,7.73,0,,,,,,0.07179869,-0.378978591,1,0,0,7.7303,Peridotite_rect,11,0,11,0,1,
63251e479509813fab713ad2,TCN,2024-06-21_11h02.45.834,LearnStrategy,2023.2.3,Win32,60.24096386,3,2,13,,,,,,,,3,15,,,,,,,,,,,6,5.796,0,,,,,,-0.079940796,-0.380829016,1,0,0,5.7959,Pegmatite_rect,12,0,12,0,1,
63251e479509813fab713ad2,TCN,2024-06-21_11h02.45.834,LearnStrategy,2023.2.3,Win32,60.24096386,3,2,14,,,,,,,,5,12,,,,,,,,,,,5,1.269,1,,,,,,-0.344559585,-0.397483391,1,0,0,1.2689,Obsidian_rect,13,0,13,0,1,
63251e479509813fab713ad2,TCN,2024-06-21_11h02.45.834,LearnStrategy,2023.2.3,Win32,60.24096386,3,2,15,,,,,,,,7,14,,,,,,,,,,,6,4.228,0,,,,,,-0.140081376,-0.417838695,1,0,0,4.228,Pegmatite_rect,14,0,14,0,1,
63251e479509813fab713ad2,TCN,2024-06-21_11h02.45.834,LearnStrategy,2023.2.3,Win32,60.24096386,3,2,16,,,,,,,,8,06,,,,,,,,,,,8,3.664,1,,,,,,0.334567055,-0.404885327,1,0,0,3.6639,Pumice_rect,15,0,15,0,1,
63251e479509813fab713ad2,TCN,2024-06-21_11h02.45.834,LearnStrategy,2023.2.3,Win32,60.24096386,4,1,1,-0.042005865,0.004996305,1,0,0,1.8619,rock_grid_rect_2,3,12,-1,-1,1.862,0.118985982,-0.234641041,1,0,0,6.9408,Diorite_rect,3,6.941,1,0,0,0,0,1,,,,,,,,,,,,,
63251e479509813fab713ad2,TCN,2024-06-21_11h02.45.834,LearnStrategy,2023.2.3,Win32,60.24096386,4,1,2,-0.024426317,-0.005181347,1,0,0,1.0108,rock_grid_rect_2,8,16,-1,-1,1.011,0.386380527,-0.416913443,1,0,0,1.7779,Pumice_rect,8,1.778,1,1,0,1,0,1,,,,,,,,,,,,,
63251e479509813fab713ad2,TCN,2024-06-21_11h02.45.834,LearnStrategy,2023.2.3,Win32,60.24096386,4,1,3,-0.061435917,0.012398201,1,0,0,0.862,rock_grid_rect_2,4,03,-1,-1,0.862,0.306809816,-0.242968228,1,0,0,4.0428,Gabbro_rect,4,4.043,1,2,0,2,0,1,,,,,,,,,,,,,
63251e479509813fab713ad2,TCN,2024-06-21_11h02.45.834,LearnStrategy,2023.2.3,Win32,60.24096386,4,1,4,0.038490019,0.000370085,1,0,0,1.0259,rock_grid_rect_2,6,05,-1,-1,1.026,0.110658794,-0.238341969,1,0,0,3.726,Diorite_rect,3,3.726,0,3,0,3,0,1,,,,,,,,,,,,,
63251e479509813fab713ad2,TCN,2024-06-21_11h02.45.834,LearnStrategy,2023.2.3,Win32,60.24096386,4,1,5,0.050518135,-0.012583283,1,0,0,1.1615,rock_grid_rect_2,5,09,-1,-1,1.161,-0.445410812,-0.412287183,1,0,0,2.6596,Obsidian_rect,5,2.66,1,4,0,4,0,1,,,,,,,,,,,,,
63251e479509813fab713ad2,TCN,2024-06-21_11h02.45.834,LearnStrategy,2023.2.3,Win32,60.24096386,4,1,6,-0.004996265,-0.015358999,1,0,0,1.1449,rock_grid_rect_2,7,07,-1,-1,1.145,0.421539623,-0.256846769,1,0,0,5.082,Gabbro_rect,4,5.082,0,5,0,5,0,1,,,,,,,,,,,,,
63251e479509813fab713ad2,TCN,2024-06-21_11h02.45.834,LearnStrategy,2023.2.3,Win32,60.24096386,4,1,7,0.011658031,0.001295337,1,0,0,1.2613,rock_grid_rect_2,2,16,-1,-1,1.261,0.366025223,-0.393782383,1,0,0,2.8767,Pumice_rect,8,2.877,0,6,0,6,0,1,,,,,,,,,,,,,
63251e479509813fab713ad2,TCN,2024-06-21_11h02.45.834,LearnStrategy,2023.2.3,Win32,60.24096386,4,1,8,0.032013335,-0.008882315,1,0,0,0.978,rock_grid_rect_2,8,14,-1,-1,0.978,0.378978591,-0.390081455,1,0,0,1.5428,Pumice_rect,8,1.543,1,7,0,7,0,1,,,,,,,,,,,,,
63251e479509813fab713ad2,TCN,2024-06-21_11h02.45.834,LearnStrategy,2023.2.3,Win32,60.24096386,4,1,9,0.036639515,0.008697233,1,0,0,0.8963,rock_grid_rect_2,4,08,-1,-1,0.896,-0.370466321,-0.256846769,1,0,0,6.5999,Andesite_rect,1,6.6,0,8,0,8,0,1,,,,,,,,,,,,,
63251e479509813fab713ad2,TCN,2024-06-21_11h02.45.834,LearnStrategy,2023.2.3,Win32,60.24096386,4,1,10,0.006106599,-0.010732819,1,0,0,1.0937,rock_grid_rect_2,1,10,-1,-1,1.094,-0.434307909,-0.268874964,1,0,0,1.836,Andesite_rect,1,1.836,1,9,0,9,0,1,,,,,,,,,,,,,
63251e479509813fab713ad2,TCN,2024-06-21_11h02.45.834,LearnStrategy,2023.2.3,Win32,60.24096386,4,1,11,-0.07253886,-0.012583283,1,0,0,22.8126,rock_grid_rect_2,3,11,-1,-1,22.813,0.077350122,-0.27165064,1,0,0,4.3228,Diorite_rect,3,4.323,1,10,0,10,0,1,,,,,,,,,,,,,
63251e479509813fab713ad2,TCN,2024-06-21_11h02.45.834,LearnStrategy,2023.2.3,Win32,60.24096386,4,1,12,0.007031851,0.002220549,1,0,0,1.1764,rock_grid_rect_2,1,11,-1,-1,1.176,-0.404700205,-0.235566292,1,0,0,5.3251,Andesite_rect,1,5.325,1,11,0,11,0,1,,,,,,,,,,,,,
63251e479509813fab713ad2,TCN,2024-06-21_11h02.45.834,LearnStrategy,2023.2.3,Win32,60.24096386,4,1,13,-0.073464112,0.012398201,1,0,0,1.0262,rock_grid_rect_2,2,04,-1,-1,1.026,-0.352886734,-0.400259067,1,0,0,4.2944,Obsidian_rect,5,4.294,0,12,0,12,0,1,,,,,,,,,,,,,
63251e479509813fab713ad2,TCN,2024-06-21_11h02.45.834,LearnStrategy,2023.2.3,Win32,60.24096386,4,1,14,-0.044781621,-0.021835683,1,0,0,1.0935,rock_grid_rect_2,7,08,-1,-1,1.093,0.362324216,-0.231865285,1,0,0,1.9917,Gabbro_rect,4,1.992,0,13,0,13,0,1,,,,,,,,,,,,,
63251e479509813fab713ad2,TCN,2024-06-21_11h02.45.834,LearnStrategy,2023.2.3,Win32,60.24096386,4,1,15,0.075499619,-0.019059967,1,0,0,1.1112,rock_grid_rect_2,6,16,-1,-1,1.111,0.117135478,-0.250370085,1,0,0,2.5593,Diorite_rect,3,2.559,0,14,0,14,0,1,,,,,,,,,,,,,
63251e479509813fab713ad2,TCN,2024-06-21_11h02.45.834,LearnStrategy,2023.2.3,Win32,60.24096386,4,1,16,0.077350122,-0.020910431,1,0,0,0.886,rock_grid_rect_2,5,04,-1,-1,0.886,-0.389896373,-0.414137687,1,0,0,1.2123,Obsidian_rect,5,1.212,1,15,0,15,0,1,,,,,,,,,,,,,
63251e479509813fab713ad2,TCN,2024-06-21_11h02.45.834,LearnStrategy,2023.2.3,Win32,60.24096386,4,2,1,,,,,,,,7,14,,,,,,,,,,,6,12.905,0,,,,,,-0.171539544,-0.403960075,1,0,0,12.9045,Pegmatite_rect,0,0,0,0,1,
63251e479509813fab713ad2,TCN,2024-06-21_11h02.45.834,LearnStrategy,2023.2.3,Win32,60.24096386,4,2,2,,,,,,,,3,13,,,,,,,,,,,3,3.927,1,,,,,,0.086602562,-0.241117724,1,0,0,3.9267,Diorite_rect,1,0,1,0,1,
63251e479509813fab713ad2,TCN,2024-06-21_11h02.45.834,LearnStrategy,2023.2.3,Win32,60.24096386,4,2,3,,,,,,,,7,04,,,,,,,,,,,7,4.285,1,,,,,,0.084752058,-0.398408643,1,0,0,4.285,Peridotite_rect,2,0,2,0,1,
63251e479509813fab713ad2,TCN,2024-06-21_11h02.45.834,LearnStrategy,2023.2.3,Win32,60.24096386,4,2,4,,,,,,,,3,10,,,,,,,,,,,3,2.966,1,,,,,,0.091228742,-0.249444912,1,0,0,2.9657,Diorite_rect,3,0,3,0,1,
63251e479509813fab713ad2,TCN,2024-06-21_11h02.45.834,LearnStrategy,2023.2.3,Win32,60.24096386,4,2,5,,,,,,,,4,05,,,,,,,,,,,4,2.728,1,,,,,,0.372501907,-0.267949712,1,0,0,2.728,Gabbro_rect,4,0,4,0,1,
63251e479509813fab713ad2,TCN,2024-06-21_11h02.45.834,LearnStrategy,2023.2.3,Win32,60.24096386,4,2,6,,,,,,,,5,06,,,,,,,,,,,5,1.203,1,,,,,,-0.414877857,-0.399333816,1,0,0,1.2028,Obsidian_rect,5,0,5,0,1,
63251e479509813fab713ad2,TCN,2024-06-21_11h02.45.834,LearnStrategy,2023.2.3,Win32,60.24096386,4,2,7,,,,,,,,6,08,,,,,,,,,,,6,3.83,1,,,,,,-0.153034744,-0.407661003,1,0,0,3.83,Pegmatite_rect,6,0,6,0,1,
63251e479509813fab713ad2,TCN,2024-06-21_11h02.45.834,LearnStrategy,2023.2.3,Win32,60.24096386,4,2,8,,,,,,,,1,04,,,,,,,,,,,1,5.324,1,,,,,,-0.351961482,-0.254071092,1,0,0,5.324,Andesite_rect,7,0,7,0,1,
63251e479509813fab713ad2,TCN,2024-06-21_11h02.45.834,LearnStrategy,2023.2.3,Win32,60.24096386,4,2,9,,,,,,,,5,05,,,,,,,,,,,5,1.889,1,,,,,,-0.420429289,-0.417838695,1,0,0,1.8891,Obsidian_rect,8,0,8,0,1,
63251e479509813fab713ad2,TCN,2024-06-21_11h02.45.834,LearnStrategy,2023.2.3,Win32,60.24096386,4,2,10,,,,,,,,8,06,,,,,,,,,,,8,1.797,1,,,,,,0.416913443,-0.390081455,1,0,0,1.7972,Pumice_rect,9,0,9,0,1,
63251e479509813fab713ad2,TCN,2024-06-21_11h02.45.834,LearnStrategy,2023.2.3,Win32,60.24096386,4,2,11,,,,,,,,6,03,,,,,,,,,,,6,4.307,1,,,,,,-0.147483312,-0.403034823,1,0,0,4.3072,Pegmatite_rect,10,0,10,0,1,
63251e479509813fab713ad2,TCN,2024-06-21_11h02.45.834,LearnStrategy,2023.2.3,Win32,60.24096386,4,2,12,,,,,,,,2,12,,,,,,,,,,,1,5.941,0,,,,,,-0.348260553,-0.240192473,1,0,0,5.9412,Andesite_rect,11,0,11,0,1,
63251e479509813fab713ad2,TCN,2024-06-21_11h02.45.834,LearnStrategy,2023.2.3,Win32,60.24096386,4,2,13,,,,,,,,4,12,,,,,,,,,,,2,6.351,0,,,,,,-0.167838615,-0.241117724,1,0,0,6.3509,Basalt_rect,12,0,12,0,1,
63251e479509813fab713ad2,TCN,2024-06-21_11h02.45.834,LearnStrategy,2023.2.3,Win32,60.24096386,4,2,14,,,,,,,,2,05,,,,,,,,,,,2,1.265,1,,,,,,-0.167838615,-0.241117724,1,0,0,1.2646,Basalt_rect,13,0,13,0,1,
63251e479509813fab713ad2,TCN,2024-06-21_11h02.45.834,LearnStrategy,2023.2.3,Win32,60.24096386,4,2,15,,,,,,,,8,13,,,,,,,,,,,8,1.755,1,,,,,,0.370651403,-0.402109571,1,0,0,1.7555,Pumice_rect,14,0,14,0,1,
63251e479509813fab713ad2,TCN,2024-06-21_11h02.45.834,LearnStrategy,2023.2.3,Win32,60.24096386,4,2,16,,,,,,,,1,09,,,,,,,,,,,1,9.332,1,,,,,,-0.403774953,-0.230940033,1,0,0,9.3318,Andesite_rect,15,0,15,0,1,
63251e479509813fab713ad2,TCN,2024-06-21_11h02.45.834,LearnStrategy,2023.2.3,Win32,60.24096386,5,1,1,-0.023501065,-0.010732819,1,0,0,1.6462,rock_grid_rect_2,5,11,-1,-1,1.646,-0.356587702,-0.388230951,1,0,0,1.3184,Obsidian_rect,5,1.318,1,0,0,0,0,1,,,,,,,,,,,,,
63251e479509813fab713ad2,TCN,2024-06-21_11h02.45.834,LearnStrategy,2023.2.3,Win32,60.24096386,5,1,2,0.028312406,0.003145801,1,0,0,0.8946,rock_grid_rect_2,4,16,-1,-1,0.895,-0.053108808,-0.415988191,1,0,0,10.2536,Pegmatite_rect,6,10.254,0,1,0,1,0,1,,,,,,,,,,,,,
63251e479509813fab713ad2,TCN,2024-06-21_11h02.45.834,LearnStrategy,2023.2.3,Win32,60.24096386,5,1,3,-0.025351569,0.015173917,1,0,0,1.3283,rock_grid_rect_2,2,10,-1,-1,1.328,-0.138230951,-0.230940033,1,0,0,3.8972,Basalt_rect,2,3.897,1,2,0,2,0,1,,,,,,,,,,,,,
63251e479509813fab713ad2,TCN,2024-06-21_11h02.45.834,LearnStrategy,2023.2.3,Win32,60.24096386,5,1,4,0.004256095,-0.020910431,1,0,0,1.0606,rock_grid_rect_2,7,16,-1,-1,1.061,0.375277583,-0.252220589,1,0,0,6.0252,Gabbro_rect,4,6.025,0,3,0,3,0,1,,,,,,,,,,,,,
63251e479509813fab713ad2,TCN,2024-06-21_11h02.45.834,LearnStrategy,2023.2.3,Win32,60.24096386,5,1,5,0.032013335,-0.005181347,1,0,0,0.8282,rock_grid_rect_2,2,01,-1,-1,0.828,-0.111398964,-0.261473028,1,0,0,1.3139,Basalt_rect,2,1.314,1,4,0,4,0,1,,,,,,,,,,,,,
63251e479509813fab713ad2,TCN,2024-06-21_11h02.45.834,LearnStrategy,2023.2.3,Win32,60.24096386,5,1,6,-0.031828253,-0.018134715,1,0,0,1.1777,rock_grid_rect_2,8,09,-1,-1,1.178,0.361398964,-0.403960075,1,0,0,1.7807,Pumice_rect,8,1.781,1,5,0,5,0,1,,,,,,,,,,,,,
63251e479509813fab713ad2,TCN,2024-06-21_11h02.45.834,LearnStrategy,2023.2.3,Win32,60.24096386,5,1,7,0.03478909,0.006846769,1,0,0,1.0281,rock_grid_rect_2,1,02,-1,-1,1.028,-0.335307186,-0.238341969,1,0,0,3.3666,Andesite_rect,1,3.367,1,6,0,6,0,1,,,,,,,,,,,,,
63251e479509813fab713ad2,TCN,2024-06-21_11h02.45.834,LearnStrategy,2023.2.3,Win32,60.24096386,5,1,8,0.025536651,0.009622485,1,0,0,0.8954,rock_grid_rect_2,3,06,-1,-1,0.895,0.086602562,-0.246669157,1,0,0,2.5556,Diorite_rect,3,2.556,1,7,0,7,0,1,,,,,,,,,,,,,
63251e479509813fab713ad2,TCN,2024-06-21_11h02.45.834,LearnStrategy,2023.2.3,Win32,60.24096386,5,1,9,0.069022935,-0.010732819,1,0,0,0.8955,rock_grid_rect_2,4,13,-1,-1,0.895,0.344744667,-0.240192473,1,0,0,7.6734,Gabbro_rect,4,7.673,1,8,0,8,0,1,,,,,,,,,,,,,
63251e479509813fab713ad2,TCN,2024-06-21_11h02.45.834,LearnStrategy,2023.2.3,Win32,60.24096386,5,1,10,0.041265774,-0.012583283,1,0,0,0.7764,rock_grid_rect_2,3,09,-1,-1,0.776,-0.153959996,-0.399333816,1,0,0,3.9823,Pegmatite_rect,6,3.982,0,9,0,9,0,1,,,,,,,,,,,,,
63251e479509813fab713ad2,TCN,2024-06-21_11h02.45.834,LearnStrategy,2023.2.3,Win32,60.24096386,5,1,11,0.064396754,0.000370085,1,0,0,0.9435,rock_grid_rect_2,7,10,-1,-1,0.944,-0.099370848,-0.388230951,1,0,0,4.3097,Pegmatite_rect,6,4.31,0,10,0,10,0,1,,,,,,,,,,,,,
63251e479509813fab713ad2,TCN,2024-06-21_11h02.45.834,LearnStrategy,2023.2.3,Win32,60.24096386,5,1,12,0.060695826,0.011472989,1,0,0,1.1726,rock_grid_rect_2,8,08,-1,-1,1.173,0.377128087,-0.402109571,1,0,0,1.8931,Pumice_rect,8,1.893,1,11,0,11,0,1,,,,,,,,,,,,,
63251e479509813fab713ad2,TCN,2024-06-21_11h02.45.834,LearnStrategy,2023.2.3,Win32,60.24096386,5,1,13,0.033863838,0.000370085,1,0,0,0.8957,rock_grid_rect_2,5,07,-1,-1,0.896,-0.363989637,-0.404885327,1,0,0,1.2147,Obsidian_rect,5,1.215,1,12,0,12,0,1,,,,,,,,,,,,,
63251e479509813fab713ad2,TCN,2024-06-21_11h02.45.834,LearnStrategy,2023.2.3,Win32,60.24096386,5,1,14,0.012583283,-0.019985219,1,0,0,1.1154,rock_grid_rect_2,6,11,-1,-1,1.115,0.097705426,-0.242968228,1,0,0,4.1934,Diorite_rect,3,4.193,0,13,0,13,0,1,,,,,,,,,,,,,
63251e479509813fab713ad2,TCN,2024-06-21_11h02.45.834,LearnStrategy,2023.2.3,Win32,60.24096386,5,1,15,0.049592883,0.011472989,1,0,0,1.0873,rock_grid_rect_2,1,14,-1,-1,1.087,0.385455275,-0.266099208,1,0,0,3.7535,Gabbro_rect,4,3.754,0,14,0,14,0,1,,,,,,,,,,,,,
63251e479509813fab713ad2,TCN,2024-06-21_11h02.45.834,LearnStrategy,2023.2.3,Win32,60.24096386,5,1,16,0.030162831,-0.012583283,1,0,0,0.8119,rock_grid_rect_2,6,06,-1,-1,0.812,0.077350122,-0.251295337,1,0,0,3.2587,Diorite_rect,3,3.259,0,15,0,15,0,1,,,,,,,,,,,,,
63251e479509813fab713ad2,TCN,2024-06-21_11h02.45.834,LearnStrategy,2023.2.3,Win32,60.24096386,5,2,1,,,,,,,,8,02,,,,,,,,,,,8,1.437,1,,,,,,0.353997107,-0.379903764,1,0,0,1.4371,Pumice_rect,0,0,0,0,1,
63251e479509813fab713ad2,TCN,2024-06-21_11h02.45.834,LearnStrategy,2023.2.3,Win32,60.24096386,5,2,2,,,,,,,,4,15,,,,,,,,,,,7,6.015,0,,,,,,0.121761658,-0.414137687,1,0,0,6.0154,Peridotite_rect,1,0,1,0,1,
63251e479509813fab713ad2,TCN,2024-06-21_11h02.45.834,LearnStrategy,2023.2.3,Win32,60.24096386,5,2,3,,,,,,,,1,06,,,,,,,,,,,1,2.828,1,,,,,,-0.356587702,-0.26239828,1,0,0,2.828,Andesite_rect,2,0,2,0,1,
63251e479509813fab713ad2,TCN,2024-06-21_11h02.45.834,LearnStrategy,2023.2.3,Win32,60.24096386,5,2,4,,,,,,,,2,14,,,,,,,,,,,8,3.638,0,,,,,,0.333641803,-0.403960075,1,0,0,3.6381,Pumice_rect,3,0,3,0,1,
63251e479509813fab713ad2,TCN,2024-06-21_11h02.45.834,LearnStrategy,2023.2.3,Win32,60.24096386,5,2,5,,,,,,,,7,15,,,,,,,,,,,6,4.298,0,,,,,,-0.100296021,-0.379903764,1,0,0,4.2979,Pegmatite_rect,4,0,4,0,1,
63251e479509813fab713ad2,TCN,2024-06-21_11h02.45.834,LearnStrategy,2023.2.3,Win32,60.24096386,5,2,6,,,,,,,,1,07,,,,,,,,,,,3,2.136,0,,,,,,0.11806073,-0.242042976,1,0,0,2.1361,Diorite_rect,5,0,5,0,1,
63251e479509813fab713ad2,TCN,2024-06-21_11h02.45.834,LearnStrategy,2023.2.3,Win32,60.24096386,5,2,7,,,,,,,,6,12,,,,,,,,,,,3,2.576,0,,,,,,0.11806073,-0.242042976,1,0,0,2.5761,Diorite_rect,6,0,6,0,1,
63251e479509813fab713ad2,TCN,2024-06-21_11h02.45.834,LearnStrategy,2023.2.3,Win32,60.24096386,5,2,8,,,,,,,,4,10,,,,,,,,,,,4,6.383,1,,,,,,0.357698035,-0.241117724,1,0,0,6.3833,Gabbro_rect,7,0,7,0,1,
63251e479509813fab713ad2,TCN,2024-06-21_11h02.45.834,LearnStrategy,2023.2.3,Win32,60.24096386,5,2,9,,,,,,,,6,07,,,,,,,,,,,3,3.074,0,,,,,,0.100481182,-0.244818653,1,0,0,3.0735,Diorite_rect,8,0,8,0,1,
63251e479509813fab713ad2,TCN,2024-06-21_11h02.45.834,LearnStrategy,2023.2.3,Win32,60.24096386,5,2,10,,,,,,,,3,15,,,,,,,,,,,7,7.834,0,,,,,,0.148593646,-0.393782383,1,0,0,7.8341,Peridotite_rect,9,0,9,0,1,
63251e479509813fab713ad2,TCN,2024-06-21_11h02.45.834,LearnStrategy,2023.2.3,Win32,60.24096386,5,2,11,,,,,,,,3,07,,,,,,,,,,,3,4.143,1,,,,,,0.177276137,-0.261473028,1,0,0,4.1432,Diorite_rect,10,0,10,0,1,
63251e479509813fab713ad2,TCN,2024-06-21_11h02.45.834,LearnStrategy,2023.2.3,Win32,60.24096386,5,2,12,,,,,,,,5,16,,,,,,,,,,,5,1.741,1,,,,,,-0.363064385,-0.383604771,1,0,0,1.7407,Obsidian_rect,11,0,11,0,1,
63251e479509813fab713ad2,TCN,2024-06-21_11h02.45.834,LearnStrategy,2023.2.3,Win32,60.24096386,5,2,13,,,,,,,,2,06,,,,,,,,,,,2,1.704,1,,,,,,-0.138230951,-0.267949712,1,0,0,1.7042,Basalt_rect,12,0,12,0,1,
63251e479509813fab713ad2,TCN,2024-06-21_11h02.45.834,LearnStrategy,2023.2.3,Win32,60.24096386,5,2,14,,,,,,,,7,12,,,,,,,,,,,6,5.538,0,,,,,,-0.124352332,-0.418763867,1,0,0,5.5378,Pegmatite_rect,13,0,13,0,1,
63251e479509813fab713ad2,TCN,2024-06-21_11h02.45.834,LearnStrategy,2023.2.3,Win32,60.24096386,5,2,15,,,,,,,,8,05,,,,,,,,,,,8,2.669,1,,,,,,0.347520423,-0.391931959,1,0,0,2.6686,Pumice_rect,14,0,14,0,1,
63251e479509813fab713ad2,TCN,2024-06-21_11h02.45.834,LearnStrategy,2023.2.3,Win32,60.24096386,5,2,16,,,,,,,,5,12,,,,,,,,,,,5,1.623,1,,,,,,-0.5,-0.407661003,1,0,0,1.6233,Obsidian_rect,15,0,15,0,1,
63251e479509813fab713ad2,TCN,2024-06-21_11h02.45.834,LearnStrategy,2023.2.3,Win32,60.24096386,6,1,1,-0.031828253,0.011472989,1,0,0,1.2606,rock_grid_rect_2,4,14,-1,-1,1.261,0.363249467,-0.265173957,1,0,0,2.9287,Gabbro_rect,4,2.929,1,0,0,0,0,1,,,,,,,,,,,,,
63251e479509813fab713ad2,TCN,2024-06-21_11h02.45.834,LearnStrategy,2023.2.3,Win32,60.24096386,6,1,2,-0.018874885,-0.012583283,1,0,0,2.028,rock_grid_rect_2,6,13,-1,-1,2.028,0.103256858,-0.403960075,1,0,0,5.5282,Peridotite_rect,7,5.528,0,1,0,1,0,1,,,,,,,,,,,,,
63251e479509813fab713ad2,TCN,2024-06-21_11h02.45.834,LearnStrategy,2023.2.3,Win32,60.24096386,6,1,3,0.12268691,-0.015358999,1,0,0,1.143,rock_grid_rect_2,1,03,-1,-1,1.143,-0.359363418,-0.249444912,1,0,0,6.3269,Andesite_rect,1,6.327,1,2,0,2,0,1,,,,,,,,,,,,,
63251e479509813fab713ad2,TCN,2024-06-21_11h02.45.834,LearnStrategy,2023.2.3,Win32,60.24096386,6,1,4,-0.006846769,-0.015358999,1,0,0,1.3209,rock_grid_rect_2,6,09,-1,-1,1.321,-0.087342653,-0.406735751,1,0,0,7.3518,Pegmatite_rect,6,7.352,1,3,0,3,0,1,,,,,,,,,,,,,
63251e479509813fab713ad2,TCN,2024-06-21_11h02.45.834,LearnStrategy,2023.2.3,Win32,60.24096386,6,1,5,-0.013323453,0.003145801,1,0,0,1.4128,rock_grid_rect_2,4,09,-1,-1,1.413,0.361398964,-0.235566292,1,0,0,7.2293,Gabbro_rect,4,7.229,1,4,0,4,0,1,,,,,,,,,,,,,
63251e479509813fab713ad2,TCN,2024-06-21_11h02.45.834,LearnStrategy,2023.2.3,Win32,60.24096386,6,1,6,0.060695826,0.004996305,1,0,0,0.9952,rock_grid_rect_2,7,05,-1,-1,0.995,0.089378238,-0.400259067,1,0,0,5.6063,Peridotite_rect,7,5.606,1,5,0,5,0,1,,,,,,,,,,,,,
63251e479509813fab713ad2,TCN,2024-06-21_11h02.45.834,LearnStrategy,2023.2.3,Win32,60.24096386,6,1,7,0.015359039,-0.014433747,1,0,0,1.1595,rock_grid_rect_2,2,02,-1,-1,1.159,-0.171539544,-0.231865285,1,0,0,1.3042,Basalt_rect,2,1.304,1,6,0,6,0,1,,,,,,,,,,,,,
63251e479509813fab713ad2,TCN,2024-06-21_11h02.45.834,LearnStrategy,2023.2.3,Win32,60.24096386,6,1,8,-0.020725389,-0.017209503,1,0,0,0.979,rock_grid_rect_2,5,14,-1,-1,0.979,-0.361213921,-0.383604771,1,0,0,0.9569,Obsidian_rect,5,0.957,1,7,0,7,0,1,,,,,,,,,,,,,
63251e479509813fab713ad2,TCN,2024-06-21_11h02.45.834,LearnStrategy,2023.2.3,Win32,60.24096386,6,1,9,-0.034604008,-0.007957063,1,0,0,0.9966,rock_grid_rect_2,2,11,-1,-1,0.997,0.394707635,-0.415062939,1,0,0,5.4046,Pumice_rect,8,5.405,0,8,0,8,0,1,,,,,,,,,,,,,
63251e479509813fab713ad2,TCN,2024-06-21_11h02.45.834,LearnStrategy,2023.2.3,Win32,60.24096386,6,1,10,0.007031851,-0.017209503,1,0,0,1.1619,rock_grid_rect_2,3,08,-1,-1,1.162,-0.140081376,-0.415062939,1,0,0,3.8264,Pegmatite_rect,6,3.826,0,9,0,9,0,1,,,,,,,,,,,,,
63251e479509813fab713ad2,TCN,2024-06-21_11h02.45.834,LearnStrategy,2023.2.3,Win32,60.24096386,6,1,11,0.03478909,0.004071053,1,0,0,0.9093,rock_grid_rect_2,1,16,-1,-1,0.909,0.095854922,-0.383604771,1,0,0,4.4573,Peridotite_rect,7,4.457,0,10,0,10,0,1,,,,,,,,,,,,,
63251e479509813fab713ad2,TCN,2024-06-21_11h02.45.834,LearnStrategy,2023.2.3,Win32,60.24096386,6,1,12,0.04866771,0.021650601,1,0,0,0.8957,rock_grid_rect_2,8,04,-1,-1,0.896,0.367875648,-0.385455275,1,0,0,1.28,Pumice_rect,8,1.28,1,11,0,11,0,1,,,,,,,,,,,,,
63251e479509813fab713ad2,TCN,2024-06-21_11h02.45.834,LearnStrategy,2023.2.3,Win32,60.24096386,6,1,13,0.01628429,-0.012583283,1,0,0,1.1959,rock_grid_rect_2,3,14,-1,-1,1.196,0.066247258,-0.254996344,1,0,0,2.3043,Diorite_rect,3,2.304,1,12,0,12,0,1,,,,,,,,,,,,,
63251e479509813fab713ad2,TCN,2024-06-21_11h02.45.834,LearnStrategy,2023.2.3,Win32,60.24096386,6,1,14,0.003330922,0.003145801,1,0,0,0.9442,rock_grid_rect_2,5,08,-1,-1,0.944,-0.357512953,-0.418763867,1,0,0,2.5537,Obsidian_rect,5,2.554,1,13,0,13,0,1,,,,,,,,,,,,,
63251e479509813fab713ad2,TCN,2024-06-21_11h02.45.834,LearnStrategy,2023.2.3,Win32,60.24096386,6,1,15,-0.074389285,0.007772021,1,0,0,1.0103,rock_grid_rect_2,7,02,-1,-1,1.01,0.09955593,-0.257772021,1,0,0,6.4639,Diorite_rect,3,6.464,0,14,0,14,0,1,,,,,,,,,,,,,
63251e479509813fab713ad2,TCN,2024-06-21_11h02.45.834,LearnStrategy,2023.2.3,Win32,60.24096386,6,1,16,-0.106772704,0.015173917,1,0,0,1.0947,rock_grid_rect_2,8,03,-1,-1,1.095,0.42524063,-0.411362011,1,0,0,2.059,Pumice_rect,8,2.059,1,15,0,15,0,1,,,,,,,,,,,,,
63251e479509813fab713ad2,TCN,2024-06-21_11h02.45.834,LearnStrategy,2023.2.3,Win32,60.24096386,6,2,1,,,,,,,,7,06,,,,,,,,,,,6,6.301,0,,,,,,-0.153034744,-0.399333816,1,0,0,6.3006,Pegmatite_rect,0,0,0,0,1,
63251e479509813fab713ad2,TCN,2024-06-21_11h02.45.834,LearnStrategy,2023.2.3,Win32,60.24096386,6,2,2,,,,,,,,1,05,,,,,,,,,,,7,9.344,0,,,,,,0.118985982,-0.398408643,1,0,0,9.3443,Peridotite_rect,1,0,1,0,1,
63251e479509813fab713ad2,TCN,2024-06-21_11h02.45.834,LearnStrategy,2023.2.3,Win32,60.24096386,6,2,3,,,,,,,,8,15,,,,,,,,,,,8,1.737,1,,,,,,0.382679519,-0.411362011,1,0,0,1.737,Pumice_rect,2,0,2,0,1,
63251e479509813fab713ad2,TCN,2024-06-21_11h02.45.834,LearnStrategy,2023.2.3,Win32,60.24096386,6,2,4,,,,,,,,8,10,,,,,,,,,,,1,5.078,0,,,,,,-0.388971121,-0.24851966,1,0,0,5.0781,Andesite_rect,3,0,3,0,1,
63251e479509813fab713ad2,TCN,2024-06-21_11h02.45.834,LearnStrategy,2023.2.3,Win32,60.24096386,6,2,5,,,,,,,,7,13,,,,,,,,,,,6,5.847,0,,,,,,-0.117875648,-0.390081455,1,0,0,5.8473,Pegmatite_rect,4,0,4,0,1,
63251e479509813fab713ad2,TCN,2024-06-21_11h02.45.834,LearnStrategy,2023.2.3,Win32,60.24096386,6,2,6,,,,,,,,6,15,,,,,,,,,,,3,3.774,0,,,,,,0.131939349,-0.244818653,1,0,0,3.7737,Diorite_rect,5,0,5,0,1,
63251e479509813fab713ad2,TCN,2024-06-21_11h02.45.834,LearnStrategy,2023.2.3,Win32,60.24096386,6,2,7,,,,,,,,4,11,,,,,,,,,,,2,1.809,0,,,,,,-0.191894847,-0.24851966,1,0,0,1.8092,Basalt_rect,6,0,6,0,1,
63251e479509813fab713ad2,TCN,2024-06-21_11h02.45.834,LearnStrategy,2023.2.3,Win32,60.24096386,6,2,8,,,,,,,,2,08,,,,,,,,,,,2,1.551,1,,,,,,-0.16506286,-0.249444912,1,0,0,1.5513,Basalt_rect,7,0,7,0,1,
63251e479509813fab713ad2,TCN,2024-06-21_11h02.45.834,LearnStrategy,2023.2.3,Win32,60.24096386,6,2,9,,,,,,,,6,10,,,,,,,,,,,6,4.136,1,,,,,,-0.180791983,-0.398408643,1,0,0,4.1358,Pegmatite_rect,8,0,8,0,1,
63251e479509813fab713ad2,TCN,2024-06-21_11h02.45.834,LearnStrategy,2023.2.3,Win32,60.24096386,6,2,10,,,,,,,,3,02,,,,,,,,,,,4,5.656,0,,,,,,0.357698035,-0.249444912,1,0,0,5.6562,Gabbro_rect,9,0,9,0,1,
63251e479509813fab713ad2,TCN,2024-06-21_11h02.45.834,LearnStrategy,2023.2.3,Win32,60.24096386,6,2,11,,,,,,,,5,02,,,,,,,,,,,5,1.29,1,,,,,,-0.414877857,-0.386380448,1,0,0,1.2896,Obsidian_rect,10,0,10,0,1,
63251e479509813fab713ad2,TCN,2024-06-21_11h02.45.834,LearnStrategy,2023.2.3,Win32,60.24096386,6,2,12,,,,,,,,3,16,,,,,,,,,,,3,3.262,1,,,,,,0.054219142,-0.236491544,1,0,0,3.2615,Diorite_rect,11,0,11,0,1,
63251e479509813fab713ad2,TCN,2024-06-21_11h02.45.834,LearnStrategy,2023.2.3,Win32,60.24096386,6,2,13,,,,,,,,1,01,,,,,,,,,,,2,9.774,0,,,,,,-0.191894847,-0.233715789,1,0,0,9.7744,Basalt_rect,12,0,12,0,1,
63251e479509813fab713ad2,TCN,2024-06-21_11h02.45.834,LearnStrategy,2023.2.3,Win32,60.24096386,6,2,14,,,,,,,,4,01,,,,,,,,,,,1,8.065,0,,,,,,-0.371391534,-0.244818653,1,0,0,8.0652,Andesite_rect,13,0,13,0,1,
63251e479509813fab713ad2,TCN,2024-06-21_11h02.45.834,LearnStrategy,2023.2.3,Win32,60.24096386,6,2,15,,,,,,,,5,10,,,,,,,,,,,5,1.11,1,,,,,,-0.398223521,-0.379903764,1,0,0,1.1095,Obsidian_rect,14,0,14,0,1,
63251e479509813fab713ad2,TCN,2024-06-21_11h02.45.834,LearnStrategy,2023.2.3,Win32,60.24096386,6,2,16,,,,,,,,2,09,,,,,,,,,,,2,1.313,1,,,,,,-0.187268667,-0.26239828,1,0,0,1.3134,Basalt_rect,15,0,15,0,1,
63251e479509813fab713ad2,TCN,2024-06-21_11h02.45.834,LearnStrategy,2023.2.3,Win32,60.24096386,7,1,1,-0.121576576,-0.009807567,1,0,0,1.8103,rock_grid_rect_2,8,14,-1,-1,1.81,0.3688009,-0.403960075,1,0,0,1.5428,Pumice_rect,8,1.543,1,0,0,0,0,1,,,,,,,,,,,,,
63251e479509813fab713ad2,TCN,2024-06-21_11h02.45.834,LearnStrategy,2023.2.3,Win32,60.24096386,7,1,2,0.006106599,-0.007031851,1,0,0,1.1462,rock_grid_rect_2,6,06,-1,-1,1.146,0.051443387,-0.237416717,1,0,0,7.1203,Diorite_rect,3,7.12,0,1,0,1,0,1,,,,,,,,,,,,,
63251e479509813fab713ad2,TCN,2024-06-21_11h02.45.834,LearnStrategy,2023.2.3,Win32,60.24096386,7,1,3,-0.036454433,-0.004256135,1,0,0,1.2764,rock_grid_rect_2,7,05,-1,-1,1.276,0.413212435,-0.244818653,1,0,0,3.0248,Gabbro_rect,4,3.025,0,2,0,2,0,1,,,,,,,,,,,,,
63251e479509813fab713ad2,TCN,2024-06-21_11h02.45.834,LearnStrategy,2023.2.3,Win32,60.24096386,7,1,4,0.028312406,-0.007957063,1,0,0,1.4046,rock_grid_rect_2,2,04,-1,-1,1.405,-0.128978512,-0.247594408,1,0,0,3.2626,Basalt_rect,2,3.263,1,3,0,3,0,1,,,,,,,,,,,,,
63251e479509813fab713ad2,TCN,2024-06-21_11h02.45.834,LearnStrategy,2023.2.3,Win32,60.24096386,7,1,5,-0.017949633,0.017024421,1,0,0,1.0792,rock_grid_rect_2,6,13,-1,-1,1.079,0.068097762,-0.235566292,1,0,0,6.5796,Diorite_rect,3,6.58,0,4,0,4,0,1,,,,,,,,,,,,,
63251e479509813fab713ad2,TCN,2024-06-21_11h02.45.834,LearnStrategy,2023.2.3,Win32,60.24096386,7,1,6,-0.004996265,-0.015358999,1,0,0,1.0758,rock_grid_rect_2,4,09,-1,-1,1.076,0.323464112,-0.242968228,1,0,0,2.9352,Gabbro_rect,4,2.935,1,5,0,5,0,1,,,,,,,,,,,,,
63251e479509813fab713ad2,TCN,2024-06-21_11h02.45.834,LearnStrategy,2023.2.3,Win32,60.24096386,7,1,7,0.027387155,0.012398201,1,0,0,0.7292,rock_grid_rect_2,4,08,-1,-1,0.729,0.326239868,-0.230940033,1,0,0,5.1594,Gabbro_rect,4,5.159,1,6,0,6,0,1,,,,,,,,,,,,,
63251e479509813fab713ad2,TCN,2024-06-21_11h02.45.834,LearnStrategy,2023.2.3,Win32,60.24096386,7,1,8,0.019985219,-0.004256135,1,0,0,0.7949,rock_grid_rect_2,3,06,-1,-1,0.795,0.080125878,-0.241117724,1,0,0,3.4193,Diorite_rect,3,3.419,1,7,0,7,0,1,,,,,,,,,,,,,
63251e479509813fab713ad2,TCN,2024-06-21_11h02.45.834,LearnStrategy,2023.2.3,Win32,60.24096386,7,1,9,0.045891954,-0.018134715,1,0,0,0.8468,rock_grid_rect_2,5,11,-1,-1,0.847,-0.361213921,-0.402109571,1,0,0,1.1899,Obsidian_rect,5,1.19,1,8,0,8,0,1,,,,,,,,,,,,,
63251e479509813fab713ad2,TCN,2024-06-21_11h02.45.834,LearnStrategy,2023.2.3,Win32,60.24096386,7,1,10,0.013508535,-0.011658031,1,0,0,0.9295,rock_grid_rect_2,8,09,-1,-1,0.93,0.399333895,-0.386380448,1,0,0,1.3215,Pumice_rect,8,1.322,1,9,0,9,0,1,,,,,,,,,,,,,
63251e479509813fab713ad2,TCN,2024-06-21_11h02.45.834,LearnStrategy,2023.2.3,Win32,60.24096386,7,1,11,-0.007772021,-0.006106599,1,0,0,0.9292,rock_grid_rect_2,1,03,-1,-1,0.929,-0.352886734,-0.238341969,1,0,0,2.6229,Andesite_rect,1,2.623,1,10,0,10,0,1,,,,,,,,,,,,,
63251e479509813fab713ad2,TCN,2024-06-21_11h02.45.834,LearnStrategy,2023.2.3,Win32,60.24096386,7,1,12,0.006106599,0.004996305,1,0,0,1.1149,rock_grid_rect_2,5,08,-1,-1,1.115,-0.36491485,-0.394707635,1,0,0,1.1945,Obsidian_rect,5,1.195,1,11,0,11,0,1,,,,,,,,,,,,,
63251e479509813fab713ad2,TCN,2024-06-21_11h02.45.834,LearnStrategy,2023.2.3,Win32,60.24096386,7,1,13,-0.008697273,-0.002405631,1,0,0,1.1966,rock_grid_rect_2,3,09,-1,-1,1.197,0.120836406,-0.254071092,1,0,0,3.5646,Diorite_rect,3,3.565,1,12,0,12,0,1,,,,,,,,,,,,,
63251e479509813fab713ad2,TCN,2024-06-21_11h02.45.834,LearnStrategy,2023.2.3,Win32,60.24096386,7,1,14,0.059770574,0.007772021,1,0,0,0.894,rock_grid_rect_2,7,10,-1,-1,0.894,-0.151184319,-0.399333816,1,0,0,2.8111,Pegmatite_rect,6,2.811,0,13,0,13,0,1,,,,,,,,,,,,,
63251e479509813fab713ad2,TCN,2024-06-21_11h02.45.834,LearnStrategy,2023.2.3,Win32,60.24096386,7,1,15,0.042191026,-0.015358999,1,0,0,2.4127,rock_grid_rect_2,1,11,-1,-1,2.413,-0.363989637,-0.237416717,1,0,0,2.6103,Andesite_rect,1,2.61,1,14,0,14,0,1,,,,,,,,,,,,,
63251e479509813fab713ad2,TCN,2024-06-21_11h02.45.834,LearnStrategy,2023.2.3,Win32,60.24096386,7,1,16,0.025536651,0.006846769,1,0,0,10.8295,rock_grid_rect_2,2,01,-1,-1,10.83,-0.142857132,-0.254996344,1,0,0,1.8117,Basalt_rect,2,1.812,1,15,0,15,0,1,,,,,,,,,,,,,
63251e479509813fab713ad2,TCN,2024-06-21_11h02.45.834,LearnStrategy,2023.2.3,Win32,60.24096386,7,2,1,,,,,,,,8,02,,,,,,,,,,,8,1.597,1,,,,,,0.385455275,-0.402109571,1,0,0,1.5967,Pumice_rect,0,0,0,0,1,
63251e479509813fab713ad2,TCN,2024-06-21_11h02.45.834,LearnStrategy,2023.2.3,Win32,60.24096386,7,2,2,,,,,,,,5,10,,,,,,,,,,,5,1.416,1,,,,,,-0.358438166,-0.402109571,1,0,0,1.4158,Obsidian_rect,1,0,1,0,1,
63251e479509813fab713ad2,TCN,2024-06-21_11h02.45.834,LearnStrategy,2023.2.3,Win32,60.24096386,7,2,3,,,,,,,,7,15,,,,,,,,,,,7,7.213,1,,,,,,0.11806073,-0.395632887,1,0,0,7.2134,Peridotite_rect,2,0,2,0,1,
63251e479509813fab713ad2,TCN,2024-06-21_11h02.45.834,LearnStrategy,2023.2.3,Win32,60.24096386,7,2,4,,,,,,,,2,12,,,,,,,,,,,1,5.137,0,,,,,,-0.365840101,-0.243893401,1,0,0,5.1369,Andesite_rect,3,0,3,0,1,
63251e479509813fab713ad2,TCN,2024-06-21_11h02.45.834,LearnStrategy,2023.2.3,Win32,60.24096386,7,2,5,,,,,,,,4,11,,,,,,,,,,,2,2.323,0,,,,,,-0.191894847,-0.26239828,1,0,0,2.3226,Basalt_rect,4,0,4,0,1,
63251e479509813fab713ad2,TCN,2024-06-21_11h02.45.834,LearnStrategy,2023.2.3,Win32,60.24096386,7,2,6,,,,,,,,5,12,,,,,,,,,,,5,1.718,1,,,,,,-0.344559585,-0.397483391,1,0,0,1.7184,Obsidian_rect,5,0,5,0,1,
63251e479509813fab713ad2,TCN,2024-06-21_11h02.45.834,LearnStrategy,2023.2.3,Win32,60.24096386,7,2,7,,,,,,,,4,05,,,,,,,,,,,4,2.3,1,,,,,,0.430792062,-0.240192473,1,0,0,2.3,Gabbro_rect,6,0,6,0,1,
63251e479509813fab713ad2,TCN,2024-06-21_11h02.45.834,LearnStrategy,2023.2.3,Win32,60.24096386,7,2,8,,,,,,,,1,01,,,,,,,,,,,2,2.874,0,,,,,,-0.127128008,-0.235566292,1,0,0,2.8739,Basalt_rect,7,0,7,0,1,
63251e479509813fab713ad2,TCN,2024-06-21_11h02.45.834,LearnStrategy,2023.2.3,Win32,60.24096386,7,2,9,,,,,,,,3,07,,,,,,,,,,,3,4.297,1,,,,,,0.110658794,-0.24851966,1,0,0,4.2973,Diorite_rect,8,0,8,0,1,
63251e479509813fab713ad2,TCN,2024-06-21_11h02.45.834,LearnStrategy,2023.2.3,Win32,60.24096386,7,2,10,,,,,,,,8,13,,,,,,,,,,,8,2.394,1,,,,,,0.373427159,-0.403034823,1,0,0,2.3939,Pumice_rect,9,0,9,0,1,
63251e479509813fab713ad2,TCN,2024-06-21_11h02.45.834,LearnStrategy,2023.2.3,Win32,60.24096386,7,2,11,,,,,,,,2,05,,,,,,,,,,,2,1.626,1,,,,,,-0.147483312,-0.246669157,1,0,0,1.6264,Basalt_rect,10,0,10,0,1,
63251e479509813fab713ad2,TCN,2024-06-21_11h02.45.834,LearnStrategy,2023.2.3,Win32,60.24096386,7,2,12,,,,,,,,6,08,,,,,,,,,,,6,3.589,1,,,,,,-0.149333816,-0.393782383,1,0,0,3.5888,Pegmatite_rect,11,0,11,0,1,
63251e479509813fab713ad2,TCN,2024-06-21_11h02.45.834,LearnStrategy,2023.2.3,Win32,60.24096386,7,2,13,,,,,,,,6,15,,,,,,,,,,,7,7.81,0,,,,,,0.218911917,-0.411362011,1,0,0,7.8098,Peridotite_rect,12,0,12,0,1,
63251e479509813fab713ad2,TCN,2024-06-21_11h02.45.834,LearnStrategy,2023.2.3,Win32,60.24096386,7,2,14,,,,,,,,3,02,,,,,,,,,,,3,5.502,1,,,,,,0.132864601,-0.233715789,1,0,0,5.5018,Diorite_rect,13,0,13,0,1,
63251e479509813fab713ad2,TCN,2024-06-21_11h02.45.834,LearnStrategy,2023.2.3,Win32,60.24096386,7,2,15,,,,,,,,1,05,,,,,,,,,,,4,5.026,0,,,,,,0.359548539,-0.241117724,1,0,0,5.0259,Gabbro_rect,14,0,14,0,1,
63251e479509813fab713ad2,TCN,2024-06-21_11h02.45.834,LearnStrategy,2023.2.3,Win32,60.24096386,7,2,16,,,,,,,,7,12,,,,,,,,,,,6,4.18,0,,,,,,-0.056809737,-0.412287183,1,0,0,4.1805,Pegmatite_rect,15,0,15,0,1,
63251e479509813fab713ad2,TCN,2024-06-21_11h02.45.834,LearnStrategy,2023.2.3,Win32,60.24096386,8,1,1,-0.037379685,-0.015358999,1,0,0,2.2297,rock_grid_rect_2,7,07,-1,-1,2.23,0.123612162,-0.392857132,1,0,0,3.7209,Peridotite_rect,7,3.721,1,0,0,0,0,1,,,,,,,,,,,,,
63251e479509813fab713ad2,TCN,2024-06-21_11h02.45.834,LearnStrategy,2023.2.3,Win32,60.24096386,8,1,2,0.036639515,-0.003330883,1,0,0,1.1273,rock_grid_rect_2,6,11,-1,-1,1.127,-0.140081376,-0.394707635,1,0,0,2.3454,Pegmatite_rect,6,2.345,1,1,0,1,0,1,,,,,,,,,,,,,
63251e479509813fab713ad2,TCN,2024-06-21_11h02.45.834,LearnStrategy,2023.2.3,Win32,60.24096386,8,1,3,-0.030903001,-0.002405631,1,0,0,1.4782,rock_grid_rect_2,7,16,-1,-1,1.478,0.364174719,-0.261473028,1,0,0,2.1028,Gabbro_rect,4,2.103,0,2,0,2,0,1,,,,,,,,,,,,,
63251e479509813fab713ad2,TCN,2024-06-21_11h02.45.834,LearnStrategy,2023.2.3,Win32,60.24096386,8,1,4,0.069948187,0.024426356,1,0,0,0.7472,rock_grid_rect_2,4,13,-1,-1,0.747,0.359548539,-0.231865285,1,0,0,3.4341,Gabbro_rect,4,3.434,1,3,0,3,0,1,,,,,,,,,,,,,
63251e479509813fab713ad2,TCN,2024-06-21_11h02.45.834,LearnStrategy,2023.2.3,Win32,60.24096386,8,1,5,-0.006846769,-0.004256135,1,0,0,0.9466,rock_grid_rect_2,4,14,-1,-1,0.947,0.391006707,-0.239267221,1,0,0,1.215,Gabbro_rect,4,1.215,1,4,0,4,0,1,,,,,,,,,,,,,
63251e479509813fab713ad2,TCN,2024-06-21_11h02.45.834,LearnStrategy,2023.2.3,Win32,60.24096386,8,1,6,0.027387155,-0.016284251,1,0,0,1.1792,rock_grid_rect_2,6,16,-1,-1,1.179,0.091228742,-0.237416717,1,0,0,2.4374,Diorite_rect,3,2.437,0,5,0,5,0,1,,,,,,,,,,,,,
63251e479509813fab713ad2,TCN,2024-06-21_11h02.45.834,LearnStrategy,2023.2.3,Win32,60.24096386,8,1,7,0.017209463,-0.002405631,1,0,0,0.973,rock_grid_rect_2,2,10,-1,-1,0.973,-0.135455196,-0.242042976,1,0,0,2.434,Basalt_rect,2,2.434,1,6,0,6,0,1,,,,,,,,,,,,,
63251e479509813fab713ad2,TCN,2024-06-21_11h02.45.834,LearnStrategy,2023.2.3,Win32,60.24096386,8,1,8,0.05329389,0.011472989,1,0,0,0.8288,rock_grid_rect_2,1,16,-1,-1,0.829,0.343819416,-0.261473028,1,0,0,3.606,Gabbro_rect,4,3.606,0,7,0,7,0,1,,,,,,,,,,,,,
63251e479509813fab713ad2,TCN,2024-06-21_11h02.45.834,LearnStrategy,2023.2.3,Win32,60.24096386,8,1,9,0.026461903,-0.001480379,1,0,0,0.9965,rock_grid_rect_2,1,10,-1,-1,0.997,0.397483391,-0.254996344,1,0,0,1.9968,Gabbro_rect,4,1.997,0,8,0,8,0,1,,,,,,,,,,,,,
63251e479509813fab713ad2,TCN,2024-06-21_11h02.45.834,LearnStrategy,2023.2.3,Win32,60.24096386,8,1,10,0.047742458,0.005921517,1,0,0,0.8122,rock_grid_rect_2,5,09,-1,-1,0.812,-0.33715765,-0.400259067,1,0,0,1.1598,Obsidian_rect,5,1.16,1,9,0,9,0,1,,,,,,,,,,,,,
63251e479509813fab713ad2,TCN,2024-06-21_11h02.45.834,LearnStrategy,2023.2.3,Win32,60.24096386,8,1,11,-0.007772021,0.000370085,1,0,0,1.044,rock_grid_rect_2,8,16,-1,-1,1.044,0.377128087,-0.414137687,1,0,0,1.2655,Pumice_rect,8,1.265,1,10,0,10,0,1,,,,,,,,,,,,,
63251e479509813fab713ad2,TCN,2024-06-21_11h02.45.834,LearnStrategy,2023.2.3,Win32,60.24096386,8,1,12,0.047742458,-0.012583283,1,0,0,0.9112,rock_grid_rect_2,8,04,-1,-1,0.911,0.412287262,-0.403034823,1,0,0,1.4396,Pumice_rect,8,1.44,1,11,0,11,0,1,,,,,,,,,,,,,
63251e479509813fab713ad2,TCN,2024-06-21_11h02.45.834,LearnStrategy,2023.2.3,Win32,60.24096386,8,1,13,0.021835722,-0.010732819,1,0,0,0.896,rock_grid_rect_2,3,11,-1,-1,0.896,0.391931959,-0.243893401,1,0,0,3.5866,Gabbro_rect,4,3.587,0,12,0,12,0,1,,,,,,,,,,,,,
63251e479509813fab713ad2,TCN,2024-06-21_11h02.45.834,LearnStrategy,2023.2.3,Win32,60.24096386,8,1,14,0.096780174,0.008697233,1,0,0,0.9111,rock_grid_rect_2,2,11,-1,-1,0.911,-0.316802346,-0.238341969,1,0,0,4.4741,Andesite_rect,1,4.474,0,13,0,13,0,1,,,,,,,,,,,,,
63251e479509813fab713ad2,TCN,2024-06-21_11h02.45.834,LearnStrategy,2023.2.3,Win32,60.24096386,8,1,15,0.023686147,-0.013508535,1,0,0,0.9105,rock_grid_rect_2,3,08,-1,-1,0.91,0.145817969,-0.378978591,1,0,0,5.4122,Peridotite_rect,7,5.412,0,14,0,14,0,1,,,,,,,,,,,,,
63251e479509813fab713ad2,TCN,2024-06-21_11h02.45.834,LearnStrategy,2023.2.3,Win32,60.24096386,8,1,16,0.058845322,-0.001480379,1,0,0,0.8454,rock_grid_rect_2,5,14,-1,-1,0.845,-0.358438166,-0.407661003,1,0,0,1.2631,Obsidian_rect,5,1.263,1,15,0,15,0,1,,,,,,,,,,,,,
63251e479509813fab713ad2,TCN,2024-06-21_11h02.45.834,LearnStrategy,2023.2.3,Win32,60.24096386,8,2,1,,,,,,,,3,10,,,,,,,,,,,3,11.941,1,,,,,,0.09030349,-0.250370085,1,0,0,11.9412,Diorite_rect,0,0,0,0,1,
63251e479509813fab713ad2,TCN,2024-06-21_11h02.45.834,LearnStrategy,2023.2.3,Win32,60.24096386,8,2,2,,,,,,,,3,16,,,,,,,,,,,3,3.632,1,,,,,,0.09030349,-0.250370085,1,0,0,3.632,Diorite_rect,1,0,1,0,1,
63251e479509813fab713ad2,TCN,2024-06-21_11h02.45.834,LearnStrategy,2023.2.3,Win32,60.24096386,8,2,3,,,,,,,,8,15,,,,,,,,,,,8,1.857,1,,,,,,0.376202835,-0.401184319,1,0,0,1.8566,Pumice_rect,2,0,2,0,1,
63251e479509813fab713ad2,TCN,2024-06-21_11h02.45.834,LearnStrategy,2023.2.3,Win32,60.24096386,8,2,4,,,,,,,,4,10,,,,,,,,,,,4,12.187,1,,,,,,0.375277583,-0.264248705,1,0,0,12.1873,Gabbro_rect,3,0,3,0,1,
63251e479509813fab713ad2,TCN,2024-06-21_11h02.45.834,LearnStrategy,2023.2.3,Win32,60.24096386,8,2,5,,,,,,,,1,07,,,,,,,,,,,3,4.322,0,,,,,,0.193005181,-0.254071092,1,0,0,4.3222,Diorite_rect,4,0,4,0,1,
63251e479509813fab713ad2,TCN,2024-06-21_11h02.45.834,LearnStrategy,2023.2.3,Win32,60.24096386,8,2,6,,,,,,,,7,14,,,,,,,,,,,6,1.916,0,,,,,,-0.073464112,-0.395632887,1,0,0,1.9155,Pegmatite_rect,5,0,5,0,1,
63251e479509813fab713ad2,TCN,2024-06-21_11h02.45.834,LearnStrategy,2023.2.3,Win32,60.24096386,8,2,7,,,,,,,,6,12,,,,,,,,,,,3,3.19,0,,,,,,0.10880829,-0.258697273,1,0,0,3.1898,Diorite_rect,6,0,6,0,1,
63251e479509813fab713ad2,TCN,2024-06-21_11h02.45.834,LearnStrategy,2023.2.3,Win32,60.24096386,8,2,8,,,,,,,,5,02,,,,,,,,,,,5,1.283,1,,,,,,-0.377868218,-0.413212435,1,0,0,1.2832,Obsidian_rect,7,0,7,0,1,
63251e479509813fab713ad2,TCN,2024-06-21_11h02.45.834,LearnStrategy,2023.2.3,Win32,60.24096386,8,2,9,,,,,,,,6,10,,,,,,,,,,,7,3.82,0,,,,,,0.09492967,-0.399333816,1,0,0,3.8202,Peridotite_rect,8,0,8,0,1,
63251e479509813fab713ad2,TCN,2024-06-21_11h02.45.834,LearnStrategy,2023.2.3,Win32,60.24096386,8,2,10,,,,,,,,5,06,,,,,,,,,,,5,1.591,1,,,,,,-0.360288669,-0.394707635,1,0,0,1.5905,Obsidian_rect,9,0,9,0,1,
63251e479509813fab713ad2,TCN,2024-06-21_11h02.45.834,LearnStrategy,2023.2.3,Win32,60.24096386,8,2,11,,,,,,,,8,10,,,,,,,,,,,8,2.115,1,,,,,,0.371576655,-0.404885327,1,0,0,2.1152,Pumice_rect,10,0,10,0,1,
63251e479509813fab713ad2,TCN,2024-06-21_11h02.45.834,LearnStrategy,2023.2.3,Win32,60.24096386,8,2,12,,,,,,,,4,12,,,,,,,,,,,2,5.05,0,,,,,,-0.101221272,-0.26239828,1,0,0,5.0505,Basalt_rect,11,0,11,0,1,
63251e479509813fab713ad2,TCN,2024-06-21_11h02.45.834,LearnStrategy,2023.2.3,Win32,60.24096386,8,2,13,,,,,,,,7,06,,,,,,,,,,,6,2.905,0,,,,,,-0.073464112,-0.417838695,1,0,0,2.9045,Pegmatite_rect,12,0,12,0,1,
63251e479509813fab713ad2,TCN,2024-06-21_11h02.45.834,LearnStrategy,2023.2.3,Win32,60.24096386,8,2,14,,,,,,,,1,09,,,,,,,,,,,1,2.448,1,,,,,,-0.310325662,-0.26702446,1,0,0,2.4485,Andesite_rect,13,0,13,0,1,
63251e479509813fab713ad2,TCN,2024-06-21_11h02.45.834,LearnStrategy,2023.2.3,Win32,60.24096386,8,2,15,,,,,,,,2,14,,,,,,,,,,,8,1.837,0,,,,,,0.405810578,-0.385455275,1,0,0,1.8375,Pumice_rect,14,0,14,0,1,
63251e479509813fab713ad2,TCN,2024-06-21_11h02.45.834,LearnStrategy,2023.2.3,Win32,60.24096386,8,2,16,,,,,,,,2,09,,,,,,,,,,,2,1.477,1,,,,,,-0.091968912,-0.240192473,1,0,0,1.4769,Basalt_rect,15,0,15,0,1,
63251e479509813fab713ad2,TCN,2024-06-21_11h02.45.834,LearnStrategy,2023.2.3,Win32,60.24096386,9,1,1,0.066247258,-0.020910431,1,0,0,1.3469,rock_grid_rect_2,2,16,-1,-1,1.347,0.373427159,-0.229089608,1,0,0,3.8855,Gabbro_rect,4,3.886,0,0,0,0,0,1,,,,,,,,,,,,,
63251e479509813fab713ad2,TCN,2024-06-21_11h02.45.834,LearnStrategy,2023.2.3,Win32,60.24096386,9,1,2,0.096780174,-0.003330883,1,0,0,0.8437,rock_grid_rect_2,8,03,-1,-1,0.844,0.340118487,-0.380829016,1,0,0,1.8174,Pumice_rect,8,1.817,1,1,0,1,0,1,,,,,,,,,,,,,
63251e479509813fab713ad2,TCN,2024-06-21_11h02.45.834,LearnStrategy,2023.2.3,Win32,60.24096386,9,1,3,0.049592883,-0.024611399,1,0,0,1.4116,rock_grid_rect_2,8,08,-1,-1,1.412,-0.447261277,-0.254996344,1,0,0,3.2932,Andesite_rect,1,3.293,0,2,0,2,0,1,,,,,,,,,,,,,
63251e479509813fab713ad2,TCN,2024-06-21_11h02.45.834,LearnStrategy,2023.2.3,Win32,60.24096386,9,1,4,0.036639515,-0.014433747,1,0,0,26.1198,rock_grid_rect_2,6,09,-1,-1,26.12,-0.117875648,-0.385455275,1,0,0,2.744,Pegmatite_rect,6,2.744,1,3,0,3,0,1,,,,,,,,,,,,,
63251e479509813fab713ad2,TCN,2024-06-21_11h02.45.834,LearnStrategy,2023.2.3,Win32,60.24096386,9,1,5,-0.08641748,0.004996305,1,0,0,1.1636,rock_grid_rect_2,4,16,-1,-1,1.164,0.341043739,-0.235566292,1,0,0,6.1386,Gabbro_rect,4,6.139,1,4,0,4,0,1,,,,,,,,,,,,,
63251e479509813fab713ad2,TCN,2024-06-21_11h02.45.834,LearnStrategy,2023.2.3,Win32,60.24096386,9,1,6,-0.051258305,0.021650601,1,0,0,1.2607,rock_grid_rect_2,7,02,-1,-1,1.261,-0.099370848,-0.419689119,1,0,0,2.5495,Pegmatite_rect,6,2.55,0,5,0,5,0,1,,,,,,,,,,,,,
63251e479509813fab713ad2,TCN,2024-06-21_11h02.45.834,LearnStrategy,2023.2.3,Win32,60.24096386,9,1,7,-0.004071013,0.001295337,1,0,0,1.3053,rock_grid_rect_2,1,02,-1,-1,1.305,-0.356587702,-0.242968228,1,0,0,1.8323,Andesite_rect,1,1.832,1,6,0,6,0,1,,,,,,,,,,,,,
63251e479509813fab713ad2,TCN,2024-06-21_11h02.45.834,LearnStrategy,2023.2.3,Win32,60.24096386,9,1,8,0.029237658,-0.011658031,1,0,0,1.0796,rock_grid_rect_2,3,14,-1,-1,1.08,0.074574446,-0.232790537,1,0,0,1.8974,Diorite_rect,3,1.897,1,7,0,7,0,1,,,,,,,,,,,,,
63251e479509813fab713ad2,TCN,2024-06-21_11h02.45.834,LearnStrategy,2023.2.3,Win32,60.24096386,9,1,9,0.049592883,0.001295337,1,0,0,0.7795,rock_grid_rect_2,5,07,-1,-1,0.78,-0.472242761,-0.412287183,1,0,0,1.2185,Obsidian_rect,5,1.218,1,8,0,8,0,1,,,,,,,,,,,,,
63251e479509813fab713ad2,TCN,2024-06-21_11h02.45.834,LearnStrategy,2023.2.3,Win32,60.24096386,9,1,10,0.062546251,-0.004256135,1,0,0,1.0298,rock_grid_rect_2,1,14,-1,-1,1.03,0.380829016,-0.247594408,1,0,0,9.296,Gabbro_rect,4,9.296,0,9,0,9,0,1,,,,,,,,,,,,,
63251e479509813fab713ad2,TCN,2024-06-21_11h02.45.834,LearnStrategy,2023.2.3,Win32,60.24096386,9,1,11,0.027387155,-0.005181347,1,0,0,0.8634,rock_grid_rect_2,3,12,-1,-1,0.863,0.098630678,-0.229089608,1,0,0,2.1199,Diorite_rect,3,2.12,1,10,0,10,0,1,,,,,,,,,,,,,
63251e479509813fab713ad2,TCN,2024-06-21_11h02.45.834,LearnStrategy,2023.2.3,Win32,60.24096386,9,1,12,0.050518135,0.002220549,1,0,0,0.9799,rock_grid_rect_2,2,02,-1,-1,0.98,-0.143782383,-0.235566292,1,0,0,1.7187,Basalt_rect,2,1.719,1,11,0,11,0,1,,,,,,,,,,,,,
63251e479509813fab713ad2,TCN,2024-06-21_11h02.45.834,LearnStrategy,2023.2.3,Win32,60.24096386,9,1,13,-0.007772021,-0.000555167,1,0,0,0.9449,rock_grid_rect_2,7,08,-1,-1,0.945,0.398408643,-0.236491544,1,0,0,1.8244,Gabbro_rect,4,1.824,0,12,0,12,0,1,,,,,,,,,,,,,
63251e479509813fab713ad2,TCN,2024-06-21_11h02.45.834,LearnStrategy,2023.2.3,Win32,60.24096386,9,1,14,0.09492967,-0.001480379,1,0,0,0.979,rock_grid_rect_2,4,03,-1,-1,0.979,0.367875648,-0.259622524,1,0,0,1.4237,Gabbro_rect,4,1.424,1,13,0,13,0,1,,,,,,,,,,,,,
63251e479509813fab713ad2,TCN,2024-06-21_11h02.45.834,LearnStrategy,2023.2.3,Win32,60.24096386,9,1,15,0.10880829,-0.008882315,1,0,0,0.9063,rock_grid_rect_2,6,05,-1,-1,0.906,0.128238342,-0.23001486,1,0,0,2.781,Diorite_rect,3,2.781,0,14,0,14,0,1,,,,,,,,,,,,,
63251e479509813fab713ad2,TCN,2024-06-21_11h02.45.834,LearnStrategy,2023.2.3,Win32,60.24096386,9,1,16,0.002405671,-0.000555167,1,0,0,0.8123,rock_grid_rect_2,5,04,-1,-1,0.812,-0.408401173,-0.420614371,1,0,0,1.2655,Obsidian_rect,5,1.265,1,15,0,15,0,1,,,,,,,,,,,,,
63251e479509813fab713ad2,TCN,2024-06-21_11h02.45.834,LearnStrategy,2023.2.3,Win32,60.24096386,9,2,1,,,,,,,,4,15,,,,,,,,,,,4,9.056,1,,,,,,0.45762405,-0.264248705,1,0,0,9.0558,Gabbro_rect,0,0,0,0,1,
63251e479509813fab713ad2,TCN,2024-06-21_11h02.45.834,LearnStrategy,2023.2.3,Win32,60.24096386,9,2,2,,,,,,,,1,04,,,,,,,,,,,1,10.01,1,,,,,,-0.360288669,-0.256846769,1,0,0,10.0104,Andesite_rect,1,0,1,0,1,
63251e479509813fab713ad2,TCN,2024-06-21_11h02.45.834,LearnStrategy,2023.2.3,Win32,60.24096386,9,2,3,,,,,,,,1,06,,,,,,,,,,,1,7.871,1,,,,,,-0.356587702,-0.255921596,1,0,0,7.8709,Andesite_rect,2,0,2,0,1,
63251e479509813fab713ad2,TCN,2024-06-21_11h02.45.834,LearnStrategy,2023.2.3,Win32,60.24096386,9,2,4,,,,,,,,5,05,,,,,,,,,,,5,2.058,1,,,,,,-0.396373057,-0.406735751,1,0,0,2.0581,Obsidian_rect,3,0,3,0,1,
63251e479509813fab713ad2,TCN,2024-06-21_11h02.45.834,LearnStrategy,2023.2.3,Win32,60.24096386,9,2,5,,,,,,,,7,13,,,,,,,,,,,7,3.443,1,,,,,,0.174500381,-0.408586255,1,0,0,3.4426,Peridotite_rect,4,0,4,0,1,
63251e479509813fab713ad2,TCN,2024-06-21_11h02.45.834,LearnStrategy,2023.2.3,Win32,60.24096386,9,2,6,,,,,,,,4,01,,,,,,,,,,,4,16.454,1,,,,,,0.33641748,-0.254996344,1,0,0,16.4538,Gabbro_rect,5,0,5,0,1,
63251e479509813fab713ad2,TCN,2024-06-21_11h02.45.834,LearnStrategy,2023.2.3,Win32,60.24096386,9,2,7,,,,,,,,3,15,,,,,,,,,,,6,6.991,0,,,,,,-0.156735751,-0.404885327,1,0,0,6.9915,Pegmatite_rect,6,0,6,0,1,
63251e479509813fab713ad2,TCN,2024-06-21_11h02.45.834,LearnStrategy,2023.2.3,Win32,60.24096386,9,2,8,,,,,,,,2,08,,,,,,,,,,,2,1.169,1,,,,,,-0.152109492,-0.244818653,1,0,0,1.169,Basalt_rect,7,0,7,0,1,
63251e479509813fab713ad2,TCN,2024-06-21_11h02.45.834,LearnStrategy,2023.2.3,Win32,60.24096386,9,2,9,,,,,,,,3,13,,,,,,,,,,,6,3.869,0,,,,,,-0.169689119,-0.416913443,1,0,0,3.8691,Pegmatite_rect,8,0,8,0,1,
63251e479509813fab713ad2,TCN,2024-06-21_11h02.45.834,LearnStrategy,2023.2.3,Win32,60.24096386,9,2,10,,,,,,,,6,03,,,,,,,,,,,3,5.278,0,,,,,,0.129163594,-0.266099208,1,0,0,5.2784,Diorite_rect,9,0,9,0,1,
63251e479509813fab713ad2,TCN,2024-06-21_11h02.45.834,LearnStrategy,2023.2.3,Win32,60.24096386,9,2,11,,,,,,,,8,05,,,,,,,,,,,8,1.569,1,,,,,,0.364174719,-0.403034823,1,0,0,1.5688,Pumice_rect,10,0,10,0,1,
63251e479509813fab713ad2,TCN,2024-06-21_11h02.45.834,LearnStrategy,2023.2.3,Win32,60.24096386,9,2,12,,,,,,,,7,04,,,,,,,,,,,3,5.284,0,,,,,,0.088452986,-0.228164357,1,0,0,5.2844,Diorite_rect,11,0,11,0,1,
63251e479509813fab713ad2,TCN,2024-06-21_11h02.45.834,LearnStrategy,2023.2.3,Win32,60.24096386,9,2,13,,,,,,,,5,16,,,,,,,,,,,5,1.052,1,,,,,,-0.370466321,-0.415062939,1,0,0,1.0515,Obsidian_rect,12,0,12,0,1,
63251e479509813fab713ad2,TCN,2024-06-21_11h02.45.834,LearnStrategy,2023.2.3,Win32,60.24096386,9,2,14,,,,,,,,6,07,,,,,,,,,,,3,3.235,0,,,,,,0.109733542,-0.254996344,1,0,0,3.2354,Diorite_rect,13,0,13,0,1,
63251e479509813fab713ad2,TCN,2024-06-21_11h02.45.834,LearnStrategy,2023.2.3,Win32,60.24096386,9,2,15,,,,,,,,2,06,,,,,,,,,,,2,1.317,1,,,,,,-0.08641748,-0.256846769,1,0,0,1.317,Basalt_rect,14,0,14,0,1,
63251e479509813fab713ad2,TCN,2024-06-21_11h02.45.834,LearnStrategy,2023.2.3,Win32,60.24096386,9,2,16,,,,,,,,8,06,,,,,,,,,,,8,2.173,1,,,,,,0.349370848,-0.392857132,1,0,0,2.1727,Pumice_rect,15,0,15,0,1,
63251e479509813fab713ad2,TCN,2024-06-21_11h02.45.834,LearnStrategy,2023.2.3,Win32,60.24096386,,,,,,,,,,,,,,,,,,,,,,,,,,,,,,,,,,,,,,,,,,,0
63251e479509813fab713ad2,TCN,2024-06-21_11h02.45.834,LearnStrategy,2023.2.3,Win32,60.24096386,,,,,,,,,,,,,,,,,,,,,,,,,,,,,,,,,,,,,,,,,,,
63251e479509813fab713ad2,TCN,2024-06-21_11h02.45.834,LearnStrategy,2023.2.3,Win32,60.24096386,,,,,,,,,,,4,14,1,1,,,,,,,,,,,,,,,,,,,,,,,,,,,,,
63251e479509813fab713ad2,TCN,2024-06-21_11h02.45.834,LearnStrategy,2023.2.3,Win32,60.24096386,,,,,,,,,,,3,06,1,2,,,,,,,,,,,,,,,,,,,,,,,,,,,,,
63251e479509813fab713ad2,TCN,2024-06-21_11h02.45.834,LearnStrategy,2023.2.3,Win32,60.24096386,,,,,,,,,,,8,14,1,3,,,,,,,,,,,,,,,,,,,,,,,,,,,,,
63251e479509813fab713ad2,TCN,2024-06-21_11h02.45.834,LearnStrategy,2023.2.3,Win32,60.24096386,,,,,,,,,,,5,09,1,4,,,,,,,,,,,,,,,,,,,,,,,,,,,,,
63251e479509813fab713ad2,TCN,2024-06-21_11h02.45.834,LearnStrategy,2023.2.3,Win32,60.24096386,,,,,,,,,,,7,02,1,5,,,,,,,,,,,,,,,,,,,,,,,,,,,,,
63251e479509813fab713ad2,TCN,2024-06-21_11h02.45.834,LearnStrategy,2023.2.3,Win32,60.24096386,,,,,,,,,,,2,01,1,6,,,,,,,,,,,,,,,,,,,,,,,,,,,,,
63251e479509813fab713ad2,TCN,2024-06-21_11h02.45.834,LearnStrategy,2023.2.3,Win32,60.24096386,,,,,,,,,,,3,08,1,7,,,,,,,,,,,,,,,,,,,,,,,,,,,,,
63251e479509813fab713ad2,TCN,2024-06-21_11h02.45.834,LearnStrategy,2023.2.3,Win32,60.24096386,,,,,,,,,,,8,08,1,8,,,,,,,,,,,,,,,,,,,,,,,,,,,,,
63251e479509813fab713ad2,TCN,2024-06-21_11h02.45.834,LearnStrategy,2023.2.3,Win32,60.24096386,,,,,,,,,,,5,07,2,1,,,,,,,,,,,,,,,,,,,,,,,,,,,,,
63251e479509813fab713ad2,TCN,2024-06-21_11h02.45.834,LearnStrategy,2023.2.3,Win32,60.24096386,,,,,,,,,,,6,06,2,2,,,,,,,,,,,,,,,,,,,,,,,,,,,,,
63251e479509813fab713ad2,TCN,2024-06-21_11h02.45.834,LearnStrategy,2023.2.3,Win32,60.24096386,,,,,,,,,,,8,04,2,3,,,,,,,,,,,,,,,,,,,,,,,,,,,,,
63251e479509813fab713ad2,TCN,2024-06-21_11h02.45.834,LearnStrategy,2023.2.3,Win32,60.24096386,,,,,,,,,,,5,08,2,4,,,,,,,,,,,,,,,,,,,,,,,,,,,,,
63251e479509813fab713ad2,TCN,2024-06-21_11h02.45.834,LearnStrategy,2023.2.3,Win32,60.24096386,,,,,,,,,,,7,10,2,5,,,,,,,,,,,,,,,,,,,,,,,,,,,,,
63251e479509813fab713ad2,TCN,2024-06-21_11h02.45.834,LearnStrategy,2023.2.3,Win32,60.24096386,,,,,,,,,,,5,14,2,6,,,,,,,,,,,,,,,,,,,,,,,,,,,,,
63251e479509813fab713ad2,TCN,2024-06-21_11h02.45.834,LearnStrategy,2023.2.3,Win32,60.24096386,,,,,,,,,,,2,02,2,7,,,,,,,,,,,,,,,,,,,,,,,,,,,,,
63251e479509813fab713ad2,TCN,2024-06-21_11h02.45.834,LearnStrategy,2023.2.3,Win32,60.24096386,,,,,,,,,,,3,11,2,8,,,,,,,,,,,,,,,,,,,,,,,,,,,,,
63251e479509813fab713ad2,TCN,2024-06-21_11h02.45.834,LearnStrategy,2023.2.3,Win32,60.24096386,,,,,,,,,,,6,13,3,1,,,,,,,,,,,,,,,,,,,,,,,,,,,,,
63251e479509813fab713ad2,TCN,2024-06-21_11h02.45.834,LearnStrategy,2023.2.3,Win32,60.24096386,,,,,,,,,,,4,03,3,2,,,,,,,,,,,,,,,,,,,,,,,,,,,,,
63251e479509813fab713ad2,TCN,2024-06-21_11h02.45.834,LearnStrategy,2023.2.3,Win32,60.24096386,,,,,,,,,,,5,11,3,3,,,,,,,,,,,,,,,,,,,,,,,,,,,,,
63251e479509813fab713ad2,TCN,2024-06-21_11h02.45.834,LearnStrategy,2023.2.3,Win32,60.24096386,,,,,,,,,,,8,03,3,4,,,,,,,,,,,,,,,,,,,,,,,,,,,,,
63251e479509813fab713ad2,TCN,2024-06-21_11h02.45.834,LearnStrategy,2023.2.3,Win32,60.24096386,,,,,,,,,,,7,05,3,5,,,,,,,,,,,,,,,,,,,,,,,,,,,,,
63251e479509813fab713ad2,TCN,2024-06-21_11h02.45.834,LearnStrategy,2023.2.3,Win32,60.24096386,,,,,,,,,,,6,16,3,6,,,,,,,,,,,,,,,,,,,,,,,,,,,,,
63251e479509813fab713ad2,TCN,2024-06-21_11h02.45.834,LearnStrategy,2023.2.3,Win32,60.24096386,,,,,,,,,,,2,10,3,7,,,,,,,,,,,,,,,,,,,,,,,,,,,,,
63251e479509813fab713ad2,TCN,2024-06-21_11h02.45.834,LearnStrategy,2023.2.3,Win32,60.24096386,,,,,,,,,,,1,16,3,8,,,,,,,,,,,,,,,,,,,,,,,,,,,,,
63251e479509813fab713ad2,TCN,2024-06-21_11h02.45.834,LearnStrategy,2023.2.3,Win32,60.24096386,,,,,,,,,,,4,09,4,1,,,,,,,,,,,,,,,,,,,,,,,,,,,,,
63251e479509813fab713ad2,TCN,2024-06-21_11h02.45.834,LearnStrategy,2023.2.3,Win32,60.24096386,,,,,,,,,,,1,03,4,2,,,,,,,,,,,,,,,,,,,,,,,,,,,,,
63251e479509813fab713ad2,TCN,2024-06-21_11h02.45.834,LearnStrategy,2023.2.3,Win32,60.24096386,,,,,,,,,,,6,05,4,3,,,,,,,,,,,,,,,,,,,,,,,,,,,,,
63251e479509813fab713ad2,TCN,2024-06-21_11h02.45.834,LearnStrategy,2023.2.3,Win32,60.24096386,,,,,,,,,,,7,07,4,4,,,,,,,,,,,,,,,,,,,,,,,,,,,,,
63251e479509813fab713ad2,TCN,2024-06-21_11h02.45.834,LearnStrategy,2023.2.3,Win32,60.24096386,,,,,,,,,,,1,02,4,5,,,,,,,,,,,,,,,,,,,,,,,,,,,,,
63251e479509813fab713ad2,TCN,2024-06-21_11h02.45.834,LearnStrategy,2023.2.3,Win32,60.24096386,,,,,,,,,,,3,09,4,6,,,,,,,,,,,,,,,,,,,,,,,,,,,,,
63251e479509813fab713ad2,TCN,2024-06-21_11h02.45.834,LearnStrategy,2023.2.3,Win32,60.24096386,,,,,,,,,,,3,12,4,7,,,,,,,,,,,,,,,,,,,,,,,,,,,,,
63251e479509813fab713ad2,TCN,2024-06-21_11h02.45.834,LearnStrategy,2023.2.3,Win32,60.24096386,,,,,,,,,,,8,09,4,8,,,,,,,,,,,,,,,,,,,,,,,,,,,,,
63251e479509813fab713ad2,TCN,2024-06-21_11h02.45.834,LearnStrategy,2023.2.3,Win32,60.24096386,,,,,,,,,,,6,11,5,1,,,,,,,,,,,,,,,,,,,,,,,,,,,,,
63251e479509813fab713ad2,TCN,2024-06-21_11h02.45.834,LearnStrategy,2023.2.3,Win32,60.24096386,,,,,,,,,,,4,13,5,2,,,,,,,,,,,,,,,,,,,,,,,,,,,,,
63251e479509813fab713ad2,TCN,2024-06-21_11h02.45.834,LearnStrategy,2023.2.3,Win32,60.24096386,,,,,,,,,,,8,16,5,3,,,,,,,,,,,,,,,,,,,,,,,,,,,,,
63251e479509813fab713ad2,TCN,2024-06-21_11h02.45.834,LearnStrategy,2023.2.3,Win32,60.24096386,,,,,,,,,,,2,11,5,4,,,,,,,,,,,,,,,,,,,,,,,,,,,,,
63251e479509813fab713ad2,TCN,2024-06-21_11h02.45.834,LearnStrategy,2023.2.3,Win32,60.24096386,,,,,,,,,,,1,14,5,5,,,,,,,,,,,,,,,,,,,,,,,,,,,,,
63251e479509813fab713ad2,TCN,2024-06-21_11h02.45.834,LearnStrategy,2023.2.3,Win32,60.24096386,,,,,,,,,,,7,08,5,6,,,,,,,,,,,,,,,,,,,,,,,,,,,,,
63251e479509813fab713ad2,TCN,2024-06-21_11h02.45.834,LearnStrategy,2023.2.3,Win32,60.24096386,,,,,,,,,,,1,11,5,7,,,,,,,,,,,,,,,,,,,,,,,,,,,,,
63251e479509813fab713ad2,TCN,2024-06-21_11h02.45.834,LearnStrategy,2023.2.3,Win32,60.24096386,,,,,,,,,,,7,16,5,8,,,,,,,,,,,,,,,,,,,,,,,,,,,,,
63251e479509813fab713ad2,TCN,2024-06-21_11h02.45.834,LearnStrategy,2023.2.3,Win32,60.24096386,,,,,,,,,,,2,16,6,1,,,,,,,,,,,,,,,,,,,,,,,,,,,,,
63251e479509813fab713ad2,TCN,2024-06-21_11h02.45.834,LearnStrategy,2023.2.3,Win32,60.24096386,,,,,,,,,,,2,04,6,2,,,,,,,,,,,,,,,,,,,,,,,,,,,,,
63251e479509813fab713ad2,TCN,2024-06-21_11h02.45.834,LearnStrategy,2023.2.3,Win32,60.24096386,,,,,,,,,,,4,16,6,3,,,,,,,,,,,,,,,,,,,,,,,,,,,,,
63251e479509813fab713ad2,TCN,2024-06-21_11h02.45.834,LearnStrategy,2023.2.3,Win32,60.24096386,,,,,,,,,,,1,10,6,4,,,,,,,,,,,,,,,,,,,,,,,,,,,,,
63251e479509813fab713ad2,TCN,2024-06-21_11h02.45.834,LearnStrategy,2023.2.3,Win32,60.24096386,,,,,,,,,,,4,08,6,5,,,,,,,,,,,,,,,,,,,,,,,,,,,,,
63251e479509813fab713ad2,TCN,2024-06-21_11h02.45.834,LearnStrategy,2023.2.3,Win32,60.24096386,,,,,,,,,,,6,09,6,6,,,,,,,,,,,,,,,,,,,,,,,,,,,,,
63251e479509813fab713ad2,TCN,2024-06-21_11h02.45.834,LearnStrategy,2023.2.3,Win32,60.24096386,,,,,,,,,,,3,14,6,7,,,,,,,,,,,,,,,,,,,,,,,,,,,,,
63251e479509813fab713ad2,TCN,2024-06-21_11h02.45.834,LearnStrategy,2023.2.3,Win32,60.24096386,,,,,,,,,,,5,04,6,8,,,,,,,,,,,,,,,,,,,,,,,,,,,,,