participant,condition,date,expName,psychopyVersion,OS,frameRate,block,phase,trial,learn_mouse.x,learn_mouse.y,learn_mouse.leftButton,learn_mouse.midButton,learn_mouse.rightButton,learn_mouse.time,learn_mouse.clicked_name,cat,token,row,col,t_select,cat_mouse_l.x,cat_mouse_l.y,cat_mouse_l.leftButton,cat_mouse_l.midButton,cat_mouse_l.rightButton,cat_mouse_l.time,cat_mouse_l.clicked_name,resp,t_resp,corr,train_trials.thisRepN,train_trials.thisTrialN,train_trials.thisN,train_trials.thisIndex,train_trials.ran,cat_mouse_t.x,cat_mouse_t.y,cat_mouse_t.leftButton,cat_mouse_t.midButton,cat_mouse_t.rightButton,cat_mouse_t.time,cat_mouse_t.clicked_name,test_trials.thisRepN,test_trials.thisTrialN,test_trials.thisN,test_trials.thisIndex,test_trials.ran,Bonus
632a385defc440ca225a32b4,SCN,2024-06-21_18h32.18.675,LearnStrategy,2023.2.3,Win32,15.01501502,,,,,,,,,,,,,,,,,,,,,,,,,,,,,,,,,,,,,,,,,,,
632a385defc440ca225a32b4,SCN,2024-06-21_18h32.18.675,LearnStrategy,2023.2.3,Win32,15.01501502,1,1,1,0.244444459,0.226851852,1,0,0,13.8706,Obsidian_06,5,06,5,6,13.871,0.44722225,-0.238888917,1,0,0,16.7402,Gabbro_rect,4,16.74,0,0,0,0,0,1,,,,,,,,,,,,,
632a385defc440ca225a32b4,SCN,2024-06-21_18h32.18.675,LearnStrategy,2023.2.3,Win32,15.01501502,1,1,2,0.402777778,0.400925928,1,0,0,3.8414,Obsidian_02,5,02,6,7,3.841,0.42314812,-0.244444459,1,0,0,2.981,Gabbro_rect,4,2.981,0,1,0,1,0,1,,,,,,,,,,,,,
632a385defc440ca225a32b4,SCN,2024-06-21_18h32.18.675,LearnStrategy,2023.2.3,Win32,15.01501502,1,1,3,0.390740712,0.100925905,1,0,0,8.3734,Diorite_02,3,02,4,7,8.373,-0.302777785,-0.256481524,1,0,0,4.7777,Andesite_rect,1,4.778,0,2,0,2,0,1,,,,,,,,,,,,,
632a385defc440ca225a32b4,SCN,2024-06-21_18h32.18.675,LearnStrategy,2023.2.3,Win32,15.01501502,1,1,4,0.3648149,0.430555556,1,0,0,1.9373,Obsidian_02,5,02,6,7,1.937,0.389814871,-0.387037065,1,0,0,0.9142,Pumice_rect,8,0.914,0,3,0,3,0,1,,,,,,,,,,,,,
632a385defc440ca225a32b4,SCN,2024-06-21_18h32.18.675,LearnStrategy,2023.2.3,Win32,15.01501502,1,1,5,0.209259245,0.2462963,1,0,0,5.4825,Obsidian_06,5,06,5,6,5.483,0.396296325,-0.398148148,1,0,0,1.1184,Pumice_rect,8,1.118,0,4,0,4,0,1,,,,,,,,,,,,,
632a385defc440ca225a32b4,SCN,2024-06-21_18h32.18.675,LearnStrategy,2023.2.3,Win32,15.01501502,1,1,6,0.378703788,0.087037016,1,0,0,8.7402,Diorite_02,3,02,4,7,8.74,0.180555556,-0.381481524,1,0,0,3.5165,Peridotite_rect,7,3.517,0,5,0,5,0,1,,,,,,,,,,,,,
632a385defc440ca225a32b4,SCN,2024-06-21_18h32.18.675,LearnStrategy,2023.2.3,Win32,15.01501502,1,1,7,-0.219444416,-0.089814822,1,0,0,2.3949,Pegmatite_11,6,11,3,3,2.395,-0.135185171,-0.240740741,1,0,0,7.081,Basalt_rect,2,7.081,0,6,0,6,0,1,,,,,,,,,,,,,
632a385defc440ca225a32b4,SCN,2024-06-21_18h32.18.675,LearnStrategy,2023.2.3,Win32,15.01501502,1,1,8,0.07222225,-0.076851845,1,0,0,1.0979,Obsidian_09,5,09,3,5,1.098,0.155555584,-0.389814801,1,0,0,2.0038,Peridotite_rect,7,2.004,0,7,0,7,0,1,,,,,,,,,,,,,
632a385defc440ca225a32b4,SCN,2024-06-21_18h32.18.675,LearnStrategy,2023.2.3,Win32,15.01501502,1,1,9,-0.518518519,-0.108333376,1,0,0,1.4961,Pumice_08,8,08,3,1,1.496,-0.38703703,-0.412037037,1,0,0,1.4308,Obsidian_rect,5,1.431,0,8,0,8,0,1,,,,,,,,,,,,,
632a385defc440ca225a32b4,SCN,2024-06-21_18h32.18.675,LearnStrategy,2023.2.3,Win32,15.01501502,1,1,10,-0.50462963,-0.277777778,1,0,0,1.6911,Pegmatite_15,6,15,2,1,1.691,-0.351851852,-0.248148176,1,0,0,0.9358,Andesite_rect,1,0.936,0,9,0,9,0,1,,,,,,,,,,,,,
632a385defc440ca225a32b4,SCN,2024-06-21_18h32.18.675,LearnStrategy,2023.2.3,Win32,15.01501502,1,1,11,0.374074159,0.101851852,1,0,0,6.5823,Diorite_02,3,02,4,7,6.582,-0.151851866,-0.247222265,1,0,0,1.4307,Basalt_rect,2,1.431,0,10,0,10,0,1,,,,,,,,,,,,,
632a385defc440ca225a32b4,SCN,2024-06-21_18h32.18.675,LearnStrategy,2023.2.3,Win32,15.01501502,1,1,12,0.377777806,0.090740734,1,0,0,1.8745,Diorite_02,3,02,4,7,1.874,0.08148151,-0.258333347,1,0,0,2.0711,Diorite_rect,3,2.071,1,11,0,11,0,1,,,,,,,,,,,,,
632a385defc440ca225a32b4,SCN,2024-06-21_18h32.18.675,LearnStrategy,2023.2.3,Win32,15.01501502,1,1,13,0.246296282,-0.233333376,1,0,0,2.9374,Diorite_13,3,13,2,6,2.937,0.184259273,-0.241666653,1,0,0,0.8385,Diorite_rect,3,0.838,1,12,0,12,0,1,,,,,,,,,,,,,
632a385defc440ca225a32b4,SCN,2024-06-21_18h32.18.675,LearnStrategy,2023.2.3,Win32,15.01501502,1,1,14,0.553703732,-0.262037065,1,0,0,1.9993,Peridotite_12,7,12,2,8,1.999,0.163888931,-0.246296282,1,0,0,0.7756,Diorite_rect,3,0.776,0,13,0,13,0,1,,,,,,,,,,,,,
632a385defc440ca225a32b4,SCN,2024-06-21_18h32.18.675,LearnStrategy,2023.2.3,Win32,15.01501502,1,1,15,-0.571296303,0.127777771,1,0,0,6.4539,Diorite_14,3,14,4,1,6.454,0.127777806,-0.239814829,1,0,0,1.2434,Diorite_rect,3,1.243,1,14,0,14,0,1,,,,,,,,,,,,,
632a385defc440ca225a32b4,SCN,2024-06-21_18h32.18.675,LearnStrategy,2023.2.3,Win32,15.01501502,1,1,16,0.40833339,-0.234259288,1,0,0,6.4744,Andesite_05,1,05,2,7,6.474,0.125,-0.235185199,1,0,0,1.3864,Diorite_rect,3,1.386,0,15,0,15,0,1,,,,,,,,,,,,,
632a385defc440ca225a32b4,SCN,2024-06-21_18h32.18.675,LearnStrategy,2023.2.3,Win32,15.01501502,1,2,1,,,,,,,,2,14,,,,,,,,,,,7,2.634,0,,,,,,0.171296296,-0.388888889,1,0,0,2.6345,Peridotite_rect,0,0,0,0,1,
632a385defc440ca225a32b4,SCN,2024-06-21_18h32.18.675,LearnStrategy,2023.2.3,Win32,15.01501502,1,2,2,,,,,,,,7,13,,,,,,,,,,,2,1.55,0,,,,,,-0.095370328,-0.240740741,1,0,0,1.5502,Basalt_rect,1,0,1,0,1,
632a385defc440ca225a32b4,SCN,2024-06-21_18h32.18.675,LearnStrategy,2023.2.3,Win32,15.01501502,1,2,3,,,,,,,,5,10,,,,,,,,,,,7,5.132,0,,,,,,0.14907406,-0.405555584,1,0,0,5.1316,Peridotite_rect,2,0,2,0,1,
632a385defc440ca225a32b4,SCN,2024-06-21_18h32.18.675,LearnStrategy,2023.2.3,Win32,15.01501502,1,2,4,,,,,,,,6,08,,,,,,,,,,,4,1.267,0,,,,,,0.376851824,-0.253703718,1,0,0,1.267,Gabbro_rect,3,0,3,0,1,
632a385defc440ca225a32b4,SCN,2024-06-21_18h32.18.675,LearnStrategy,2023.2.3,Win32,15.01501502,1,2,5,,,,,,,,1,04,,,,,,,,,,,3,2.462,0,,,,,,0.162037037,-0.266666695,1,0,0,2.4616,Diorite_rect,4,0,4,0,1,
632a385defc440ca225a32b4,SCN,2024-06-21_18h32.18.675,LearnStrategy,2023.2.3,Win32,15.01501502,1,2,6,,,,,,,,4,11,,,,,,,,,,,3,1.496,0,,,,,,0.170370384,-0.256481524,1,0,0,1.4964,Diorite_rect,5,0,5,0,1,
632a385defc440ca225a32b4,SCN,2024-06-21_18h32.18.675,LearnStrategy,2023.2.3,Win32,15.01501502,1,2,7,,,,,,,,3,08,,,,,,,,,,,3,2.202,1,,,,,,0.175000014,-0.262037065,1,0,0,2.2021,Diorite_rect,6,0,6,0,1,
632a385defc440ca225a32b4,SCN,2024-06-21_18h32.18.675,LearnStrategy,2023.2.3,Win32,15.01501502,1,2,8,,,,,,,,8,05,,,,,,,,,,,1,1.352,0,,,,,,-0.450925933,-0.248148176,1,0,0,1.3517,Andesite_rect,7,0,7,0,1,
632a385defc440ca225a32b4,SCN,2024-06-21_18h32.18.675,LearnStrategy,2023.2.3,Win32,15.01501502,1,2,9,,,,,,,,5,04,,,,,,,,,,,6,1.786,0,,,,,,-0.12037037,-0.404629672,1,0,0,1.7862,Pegmatite_rect,8,0,8,0,1,
632a385defc440ca225a32b4,SCN,2024-06-21_18h32.18.675,LearnStrategy,2023.2.3,Win32,15.01501502,1,2,10,,,,,,,,3,06,,,,,,,,,,,3,1.683,1,,,,,,0.12962963,-0.25,1,0,0,1.6831,Diorite_rect,9,0,9,0,1,
632a385defc440ca225a32b4,SCN,2024-06-21_18h32.18.675,LearnStrategy,2023.2.3,Win32,15.01501502,1,2,11,,,,,,,,1,10,,,,,,,,,,,5,1.332,0,,,,,,-0.401851831,-0.381481524,1,0,0,1.332,Obsidian_rect,10,0,10,0,1,
632a385defc440ca225a32b4,SCN,2024-06-21_18h32.18.675,LearnStrategy,2023.2.3,Win32,15.01501502,1,2,12,,,,,,,,8,02,,,,,,,,,,,6,5.733,0,,,,,,-0.084259245,-0.395370413,1,0,0,5.733,Pegmatite_rect,11,0,11,0,1,
632a385defc440ca225a32b4,SCN,2024-06-21_18h32.18.675,LearnStrategy,2023.2.3,Win32,15.01501502,1,2,13,,,,,,,,6,13,,,,,,,,,,,7,3.039,0,,,,,,0.150000042,-0.419444473,1,0,0,3.039,Peridotite_rect,12,0,12,0,1,
632a385defc440ca225a32b4,SCN,2024-06-21_18h32.18.675,LearnStrategy,2023.2.3,Win32,15.01501502,1,2,14,,,,,,,,4,09,,,,,,,,,,,4,1.671,1,,,,,,0.436111168,-0.262962977,1,0,0,1.6712,Gabbro_rect,13,0,13,0,1,
632a385defc440ca225a32b4,SCN,2024-06-21_18h32.18.675,LearnStrategy,2023.2.3,Win32,15.01501502,1,2,15,,,,,,,,2,02,,,,,,,,,,,1,1.155,0,,,,,,-0.398148148,-0.240740741,1,0,0,1.1549,Andesite_rect,14,0,14,0,1,
632a385defc440ca225a32b4,SCN,2024-06-21_18h32.18.675,LearnStrategy,2023.2.3,Win32,15.01501502,1,2,16,,,,,,,,7,07,,,,,,,,,,,2,1.189,0,,,,,,-0.212037051,-0.243518547,1,0,0,1.1894,Basalt_rect,15,0,15,0,1,
632a385defc440ca225a32b4,SCN,2024-06-21_18h32.18.675,LearnStrategy,2023.2.3,Win32,15.01501502,2,1,1,0.409259231,0.399074069,1,0,0,5.2864,Obsidian_02,5,02,6,7,5.286,-0.396296289,-0.260185171,1,0,0,4.4318,Andesite_rect,1,4.432,0,0,0,0,0,1,,,,,,,,,,,,,
632a385defc440ca225a32b4,SCN,2024-06-21_18h32.18.675,LearnStrategy,2023.2.3,Win32,15.01501502,2,1,2,0.399074131,0.397222219,1,0,0,6.2509,Obsidian_02,5,02,6,7,6.251,-0.127777735,-0.241666653,1,0,0,1.2226,Basalt_rect,2,1.223,0,1,0,1,0,1,,,,,,,,,,,,,
632a385defc440ca225a32b4,SCN,2024-06-21_18h32.18.675,LearnStrategy,2023.2.3,Win32,15.01501502,2,1,3,0.399999972,0.414814817,1,0,0,1.1202,Obsidian_02,5,02,6,7,1.12,0.431481538,-0.258333347,1,0,0,2.0375,Gabbro_rect,4,2.037,0,2,0,2,0,1,,,,,,,,,,,,,
632a385defc440ca225a32b4,SCN,2024-06-21_18h32.18.675,LearnStrategy,2023.2.3,Win32,15.01501502,2,1,4,0.410185213,0.387962959,1,0,0,1.3163,Obsidian_02,5,02,6,7,1.316,-0.204629616,-0.398148148,1,0,0,2.1491,Pegmatite_rect,6,2.149,0,3,0,3,0,1,,,,,,,,,,,,,
632a385defc440ca225a32b4,SCN,2024-06-21_18h32.18.675,LearnStrategy,2023.2.3,Win32,15.01501502,2,1,5,0.243518547,0.077777757,1,0,0,6.7507,Gabbro_16,4,16,4,6,6.751,-0.135185171,-0.392592607,1,0,0,1.6438,Pegmatite_rect,6,1.644,0,4,0,4,0,1,,,,,,,,,,,,,
632a385defc440ca225a32b4,SCN,2024-06-21_18h32.18.675,LearnStrategy,2023.2.3,Win32,15.01501502,2,1,6,0.396296325,0.393518519,1,0,0,1.1118,Obsidian_02,5,02,6,7,1.112,0.371296353,-0.261111153,1,0,0,7.0092,Gabbro_rect,4,7.009,0,5,0,5,0,1,,,,,,,,,,,,,
632a385defc440ca225a32b4,SCN,2024-06-21_18h32.18.675,LearnStrategy,2023.2.3,Win32,15.01501502,2,1,7,0.388888889,0.439814815,1,0,0,1.4291,Obsidian_02,5,02,6,7,1.429,0.175925926,-0.392592607,1,0,0,3.4517,Peridotite_rect,7,3.452,0,6,0,6,0,1,,,,,,,,,,,,,
632a385defc440ca225a32b4,SCN,2024-06-21_18h32.18.675,LearnStrategy,2023.2.3,Win32,15.01501502,2,1,8,0.263888889,0.231481481,1,0,0,5.5797,Obsidian_06,5,06,5,6,5.58,0.135185171,-0.387962977,1,0,0,4.2844,Peridotite_rect,7,4.284,0,7,0,7,0,1,,,,,,,,,,,,,
632a385defc440ca225a32b4,SCN,2024-06-21_18h32.18.675,LearnStrategy,2023.2.3,Win32,15.01501502,2,1,9,0.561111168,0.099999993,1,0,0,3.194,Andesite_09,1,09,4,8,3.194,0.128703718,-0.247222265,1,0,0,2.4848,Diorite_rect,3,2.485,0,8,0,8,0,1,,,,,,,,,,,,,
632a385defc440ca225a32b4,SCN,2024-06-21_18h32.18.675,LearnStrategy,2023.2.3,Win32,15.01501502,2,1,10,0.392592677,0.243518511,1,0,0,6.8221,Pumice_13,8,13,5,7,6.822,0.116666653,-0.248148176,1,0,0,7.2795,Diorite_rect,3,7.28,0,9,0,9,0,1,,,,,,,,,,,,,
632a385defc440ca225a32b4,SCN,2024-06-21_18h32.18.675,LearnStrategy,2023.2.3,Win32,15.01501502,2,1,11,0.090740769,-0.386111153,1,0,0,8.6982,Pumice_09,8,09,1,5,8.698,0.394444501,-0.387962977,1,0,0,5.5522,Pumice_rect,8,5.552,1,10,0,10,0,1,,,,,,,,,,,,,
632a385defc440ca225a32b4,SCN,2024-06-21_18h32.18.675,LearnStrategy,2023.2.3,Win32,15.01501502,2,1,12,-0.53611109,-0.107407393,1,0,0,2.4671,Pumice_08,8,08,3,1,2.467,0.368518547,-0.392592607,1,0,0,1.6401,Pumice_rect,8,1.64,1,11,0,11,0,1,,,,,,,,,,,,,
632a385defc440ca225a32b4,SCN,2024-06-21_18h32.18.675,LearnStrategy,2023.2.3,Win32,15.01501502,2,1,13,0.404629601,0.112037023,1,0,0,4.1335,Diorite_02,3,02,4,7,4.133,0.14907406,-0.26944443,1,0,0,1.2483,Diorite_rect,3,1.248,1,12,0,12,0,1,,,,,,,,,,,,,
632a385defc440ca225a32b4,SCN,2024-06-21_18h32.18.675,LearnStrategy,2023.2.3,Win32,15.01501502,2,1,14,-0.115740741,0.236111111,1,0,0,9.3661,Diorite_07,3,07,5,4,9.366,0.138888889,-0.246296282,1,0,0,2.4106,Diorite_rect,3,2.411,1,13,0,13,0,1,,,,,,,,,,,,,
632a385defc440ca225a32b4,SCN,2024-06-21_18h32.18.675,LearnStrategy,2023.2.3,Win32,15.01501502,2,1,15,-0.235185199,0.095370363,1,0,0,2.6122,Diorite_12,3,12,4,3,2.612,0.117592635,-0.243518547,1,0,0,1.1802,Diorite_rect,3,1.18,1,14,0,14,0,1,,,,,,,,,,,,,
632a385defc440ca225a32b4,SCN,2024-06-21_18h32.18.675,LearnStrategy,2023.2.3,Win32,15.01501502,2,1,16,-0.07222218,-0.101851852,1,0,0,12.9848,Obsidian_14,5,14,3,4,12.985,-0.378703683,-0.400000042,1,0,0,2.4261,Obsidian_rect,5,2.426,1,15,0,15,0,1,,,,,,,,,,,,,
632a385defc440ca225a32b4,SCN,2024-06-21_18h32.18.675,LearnStrategy,2023.2.3,Win32,15.01501502,2,2,1,,,,,,,,6,06,,,,,,,,,,,3,10.928,0,,,,,,0.141666695,-0.271296325,1,0,0,10.9283,Diorite_rect,0,0,0,0,1,
632a385defc440ca225a32b4,SCN,2024-06-21_18h32.18.675,LearnStrategy,2023.2.3,Win32,15.01501502,2,2,2,,,,,,,,3,15,,,,,,,,,,,3,3.544,1,,,,,,0.141666695,-0.25462963,1,0,0,3.5444,Diorite_rect,1,0,1,0,1,
632a385defc440ca225a32b4,SCN,2024-06-21_18h32.18.675,LearnStrategy,2023.2.3,Win32,15.01501502,2,2,3,,,,,,,,8,04,,,,,,,,,,,8,1.754,1,,,,,,0.396296325,-0.387962977,1,0,0,1.7542,Pumice_rect,2,0,2,0,1,
632a385defc440ca225a32b4,SCN,2024-06-21_18h32.18.675,LearnStrategy,2023.2.3,Win32,15.01501502,2,2,4,,,,,,,,7,16,,,,,,,,,,,5,2.907,0,,,,,,-0.349999993,-0.408333319,1,0,0,2.9067,Obsidian_rect,3,0,3,0,1,
632a385defc440ca225a32b4,SCN,2024-06-21_18h32.18.675,LearnStrategy,2023.2.3,Win32,15.01501502,2,2,5,,,,,,,,1,01,,,,,,,,,,,3,4.139,0,,,,,,0.122222265,-0.243518547,1,0,0,4.1394,Diorite_rect,4,0,4,0,1,
632a385defc440ca225a32b4,SCN,2024-06-21_18h32.18.675,LearnStrategy,2023.2.3,Win32,15.01501502,2,2,6,,,,,,,,4,01,,,,,,,,,,,3,1.325,0,,,,,,0.162962949,-0.242592635,1,0,0,1.3254,Diorite_rect,5,0,5,0,1,
632a385defc440ca225a32b4,SCN,2024-06-21_18h32.18.675,LearnStrategy,2023.2.3,Win32,15.01501502,2,2,7,,,,,,,,4,03,,,,,,,,,,,3,1.033,0,,,,,,0.133333347,-0.229629658,1,0,0,1.0327,Diorite_rect,6,0,6,0,1,
632a385defc440ca225a32b4,SCN,2024-06-21_18h32.18.675,LearnStrategy,2023.2.3,Win32,15.01501502,2,2,8,,,,,,,,2,11,,,,,,,,,,,8,2.534,0,,,,,,0.397222307,-0.400925954,1,0,0,2.5341,Pumice_rect,7,0,7,0,1,
632a385defc440ca225a32b4,SCN,2024-06-21_18h32.18.675,LearnStrategy,2023.2.3,Win32,15.01501502,2,2,9,,,,,,,,6,05,,,,,,,,,,,3,2.302,0,,,,,,0.183333362,-0.236111111,1,0,0,2.3019,Diorite_rect,8,0,8,0,1,
632a385defc440ca225a32b4,SCN,2024-06-21_18h32.18.675,LearnStrategy,2023.2.3,Win32,15.01501502,2,2,10,,,,,,,,2,12,,,,,,,,,,,8,3.177,0,,,,,,0.351851852,-0.421296296,1,0,0,3.1767,Pumice_rect,9,0,9,0,1,
632a385defc440ca225a32b4,SCN,2024-06-21_18h32.18.675,LearnStrategy,2023.2.3,Win32,15.01501502,2,2,11,,,,,,,,7,10,,,,,,,,,,,3,1.732,0,,,,,,0.160185213,-0.253703718,1,0,0,1.732,Diorite_rect,10,0,10,0,1,
632a385defc440ca225a32b4,SCN,2024-06-21_18h32.18.675,LearnStrategy,2023.2.3,Win32,15.01501502,2,2,12,,,,,,,,5,16,,,,,,,,,,,5,3.911,1,,,,,,-0.374074053,-0.39444443,1,0,0,3.911,Obsidian_rect,11,0,11,0,1,
632a385defc440ca225a32b4,SCN,2024-06-21_18h32.18.675,LearnStrategy,2023.2.3,Win32,15.01501502,2,2,13,,,,,,,,3,09,,,,,,,,,,,3,1.528,1,,,,,,0.163888931,-0.258333347,1,0,0,1.5281,Diorite_rect,12,0,12,0,1,
632a385defc440ca225a32b4,SCN,2024-06-21_18h32.18.675,LearnStrategy,2023.2.3,Win32,15.01501502,2,2,14,,,,,,,,1,16,,,,,,,,,,,3,1.387,0,,,,,,0.121296282,-0.236111111,1,0,0,1.3868,Diorite_rect,13,0,13,0,1,
632a385defc440ca225a32b4,SCN,2024-06-21_18h32.18.675,LearnStrategy,2023.2.3,Win32,15.01501502,2,2,15,,,,,,,,8,15,,,,,,,,,,,8,1.488,1,,,,,,0.391666695,-0.387962977,1,0,0,1.4884,Pumice_rect,14,0,14,0,1,
632a385defc440ca225a32b4,SCN,2024-06-21_18h32.18.675,LearnStrategy,2023.2.3,Win32,15.01501502,2,2,16,,,,,,,,5,11,,,,,,,,,,,5,1.483,1,,,,,,-0.356481481,-0.400000042,1,0,0,1.4827,Obsidian_rect,15,0,15,0,1,
632a385defc440ca225a32b4,SCN,2024-06-21_18h32.18.675,LearnStrategy,2023.2.3,Win32,15.01501502,3,1,1,-0.390740748,-0.27407406,1,0,0,4.2711,Pegmatite_07,6,07,2,2,4.271,-0.142592607,-0.25462963,1,0,0,3.4989,Basalt_rect,2,3.499,0,0,0,0,0,1,,,,,,,,,,,,,
632a385defc440ca225a32b4,SCN,2024-06-21_18h32.18.675,LearnStrategy,2023.2.3,Win32,15.01501502,3,1,2,-0.388888889,-0.412037037,1,0,0,2.023,Basalt_16,2,16,1,2,2.023,0.125925912,-0.262037065,1,0,0,3.2708,Diorite_rect,3,3.271,0,1,0,1,0,1,,,,,,,,,,,,,
632a385defc440ca225a32b4,SCN,2024-06-21_18h32.18.675,LearnStrategy,2023.2.3,Win32,15.01501502,3,1,3,-0.079629616,0.404629628,1,0,0,4.6114,Basalt_05,2,05,6,4,4.611,0.170370384,-0.240740741,1,0,0,2.2235,Diorite_rect,3,2.224,0,2,0,2,0,1,,,,,,,,,,,,,
632a385defc440ca225a32b4,SCN,2024-06-21_18h32.18.675,LearnStrategy,2023.2.3,Win32,15.01501502,3,1,4,-0.543518526,-0.259259259,1,0,0,3.7087,Pegmatite_15,6,15,2,1,3.709,-0.110185199,-0.261111153,1,0,0,1.457,Basalt_rect,2,1.457,0,3,0,3,0,1,,,,,,,,,,,,,
632a385defc440ca225a32b4,SCN,2024-06-21_18h32.18.675,LearnStrategy,2023.2.3,Win32,15.01501502,3,1,5,-0.560185185,-0.295370384,1,0,0,1.2104,Pegmatite_15,6,15,2,1,1.21,-0.121296282,-0.402777778,1,0,0,2.4827,Pegmatite_rect,6,2.483,1,4,0,4,0,1,,,,,,,,,,,,,
632a385defc440ca225a32b4,SCN,2024-06-21_18h32.18.675,LearnStrategy,2023.2.3,Win32,15.01501502,3,1,6,0.376851824,-0.410185213,1,0,0,4.2046,Obsidian_07,5,07,1,7,4.205,-0.341666645,-0.391666695,1,0,0,2.4325,Obsidian_rect,5,2.433,1,5,0,5,0,1,,,,,,,,,,,,,
632a385defc440ca225a32b4,SCN,2024-06-21_18h32.18.675,LearnStrategy,2023.2.3,Win32,15.01501502,3,1,7,0.107407393,-0.091666681,1,0,0,6.8759,Obsidian_09,5,09,3,5,6.876,-0.380555541,-0.405555584,1,0,0,4.3402,Obsidian_rect,5,4.34,1,6,0,6,0,1,,,,,,,,,,,,,
632a385defc440ca225a32b4,SCN,2024-06-21_18h32.18.675,LearnStrategy,2023.2.3,Win32,15.01501502,3,1,8,-0.250925912,0.232407411,1,0,0,4.3966,Peridotite_15,7,15,5,3,4.397,0.172222208,-0.229629658,1,0,0,2.5792,Diorite_rect,3,2.579,0,7,0,7,0,1,,,,,,,,,,,,,
632a385defc440ca225a32b4,SCN,2024-06-21_18h32.18.675,LearnStrategy,2023.2.3,Win32,15.01501502,3,1,9,-0.566666674,-0.420370384,1,0,0,8.0783,Gabbro_05,4,05,1,1,8.078,0.185185185,-0.412037037,1,0,0,1.9002,Peridotite_rect,7,1.9,0,8,0,8,0,1,,,,,,,,,,,,,
632a385defc440ca225a32b4,SCN,2024-06-21_18h32.18.675,LearnStrategy,2023.2.3,Win32,15.01501502,3,1,10,0.523148148,-0.436111097,1,0,0,4.8121,Basalt_08,2,08,1,8,4.812,0.122222265,-0.396296325,1,0,0,6.9993,Peridotite_rect,7,6.999,0,9,0,9,0,1,,,,,,,,,,,,,
632a385defc440ca225a32b4,SCN,2024-06-21_18h32.18.675,LearnStrategy,2023.2.3,Win32,15.01501502,3,1,11,-0.082407422,-0.424074102,1,0,0,1.8887,Peridotite_04,7,04,1,4,1.889,0.147222236,-0.388888889,1,0,0,3.086,Peridotite_rect,7,3.086,1,10,0,10,0,1,,,,,,,,,,,,,
632a385defc440ca225a32b4,SCN,2024-06-21_18h32.18.675,LearnStrategy,2023.2.3,Win32,15.01501502,3,1,12,-0.236111111,0.261111101,1,0,0,5.344,Peridotite_15,7,15,5,3,5.344,0.36018527,-0.248148176,1,0,0,5.2451,Gabbro_rect,4,5.245,0,11,0,11,0,1,,,,,,,,,,,,,
632a385defc440ca225a32b4,SCN,2024-06-21_18h32.18.675,LearnStrategy,2023.2.3,Win32,15.01501502,3,1,13,0.095370399,0.26666666,1,0,0,6.8453,Gabbro_12,4,12,5,5,6.845,-0.121296282,-0.252777806,1,0,0,1.5455,Basalt_rect,2,1.546,0,12,0,12,0,1,,,,,,,,,,,,,
632a385defc440ca225a32b4,SCN,2024-06-21_18h32.18.675,LearnStrategy,2023.2.3,Win32,15.01501502,3,1,14,0.249074088,-0.244444459,1,0,0,2.0126,Diorite_13,3,13,2,6,2.013,0.170370384,-0.405555584,1,0,0,2.2965,Peridotite_rect,7,2.297,0,13,0,13,0,1,,,,,,,,,,,,,
632a385defc440ca225a32b4,SCN,2024-06-21_18h32.18.675,LearnStrategy,2023.2.3,Win32,15.01501502,3,1,15,0.401851937,0.087037016,1,0,0,2.4667,Diorite_02,3,02,4,7,2.467,0.025000042,-0.24537037,1,0,0,22.3776,Diorite_rect,3,22.378,1,14,0,14,0,1,,,,,,,,,,,,,
632a385defc440ca225a32b4,SCN,2024-06-21_18h32.18.675,LearnStrategy,2023.2.3,Win32,15.01501502,3,1,16,0.087962963,-0.275925954,1,0,0,2.1635,Pegmatite_09,6,09,2,5,2.163,0.12962963,-0.393518519,1,0,0,7.7089,Peridotite_rect,7,7.709,0,15,0,15,0,1,,,,,,,,,,,,,
632a385defc440ca225a32b4,SCN,2024-06-21_18h32.18.675,LearnStrategy,2023.2.3,Win32,15.01501502,3,2,1,,,,,,,,4,14,,,,,,,,,,,5,2.044,0,,,,,,-0.371296282,-0.384259259,1,0,0,2.0439,Obsidian_rect,0,0,0,0,1,
632a385defc440ca225a32b4,SCN,2024-06-21_18h32.18.675,LearnStrategy,2023.2.3,Win32,15.01501502,3,2,2,,,,,,,,8,03,,,,,,,,,,,8,2.928,1,,,,,,0.376851824,-0.402777778,1,0,0,2.928,Pumice_rect,1,0,1,0,1,
632a385defc440ca225a32b4,SCN,2024-06-21_18h32.18.675,LearnStrategy,2023.2.3,Win32,15.01501502,3,2,3,,,,,,,,4,13,,,,,,,,,,,4,3.644,1,,,,,,0.319444444,-0.239814829,1,0,0,3.6441,Gabbro_rect,2,0,2,0,1,
632a385defc440ca225a32b4,SCN,2024-06-21_18h32.18.675,LearnStrategy,2023.2.3,Win32,15.01501502,3,2,4,,,,,,,,5,12,,,,,,,,,,,5,4.1,1,,,,,,-0.336111104,-0.383333347,1,0,0,4.0995,Obsidian_rect,3,0,3,0,1,
632a385defc440ca225a32b4,SCN,2024-06-21_18h32.18.675,LearnStrategy,2023.2.3,Win32,15.01501502,3,2,5,,,,,,,,3,16,,,,,,,,,,,3,2.917,1,,,,,,0.176851838,-0.24537037,1,0,0,2.9172,Diorite_rect,4,0,4,0,1,
632a385defc440ca225a32b4,SCN,2024-06-21_18h32.18.675,LearnStrategy,2023.2.3,Win32,15.01501502,3,2,6,,,,,,,,1,03,,,,,,,,,,,2,1.052,0,,,,,,-0.157407407,-0.239814829,1,0,0,1.0521,Basalt_rect,5,0,5,0,1,
632a385defc440ca225a32b4,SCN,2024-06-21_18h32.18.675,LearnStrategy,2023.2.3,Win32,15.01501502,3,2,7,,,,,,,,5,05,,,,,,,,,,,5,4.605,1,,,,,,-0.338888875,-0.384259259,1,0,0,4.6054,Obsidian_rect,6,0,6,0,1,
632a385defc440ca225a32b4,SCN,2024-06-21_18h32.18.675,LearnStrategy,2023.2.3,Win32,15.01501502,3,2,8,,,,,,,,1,07,,,,,,,,,,,3,4.674,0,,,,,,0.103703746,-0.25462963,1,0,0,4.6737,Diorite_rect,7,0,7,0,1,
632a385defc440ca225a32b4,SCN,2024-06-21_18h32.18.675,LearnStrategy,2023.2.3,Win32,15.01501502,3,2,9,,,,,,,,8,16,,,,,,,,,,,8,2.091,1,,,,,,0.40370376,-0.387037065,1,0,0,2.0911,Pumice_rect,8,0,8,0,1,
632a385defc440ca225a32b4,SCN,2024-06-21_18h32.18.675,LearnStrategy,2023.2.3,Win32,15.01501502,3,2,10,,,,,,,,2,01,,,,,,,,,,,2,2.992,1,,,,,,-0.108333305,-0.242592635,1,0,0,2.992,Basalt_rect,9,0,9,0,1,
632a385defc440ca225a32b4,SCN,2024-06-21_18h32.18.675,LearnStrategy,2023.2.3,Win32,15.01501502,3,2,11,,,,,,,,3,11,,,,,,,,,,,3,4.413,1,,,,,,0.112963005,-0.25462963,1,0,0,4.4125,Diorite_rect,10,0,10,0,1,
632a385defc440ca225a32b4,SCN,2024-06-21_18h32.18.675,LearnStrategy,2023.2.3,Win32,15.01501502,3,2,12,,,,,,,,7,14,,,,,,,,,,,8,4.108,0,,,,,,0.361111111,-0.396296325,1,0,0,4.1079,Pumice_rect,11,0,11,0,1,
632a385defc440ca225a32b4,SCN,2024-06-21_18h32.18.675,LearnStrategy,2023.2.3,Win32,15.01501502,3,2,13,,,,,,,,2,10,,,,,,,,,,,2,2.421,1,,,,,,-0.104629587,-0.244444459,1,0,0,2.4207,Basalt_rect,12,0,12,0,1,
632a385defc440ca225a32b4,SCN,2024-06-21_18h32.18.675,LearnStrategy,2023.2.3,Win32,15.01501502,3,2,14,,,,,,,,7,06,,,,,,,,,,,7,7.426,1,,,,,,0.10555557,-0.380555541,1,0,0,7.4261,Peridotite_rect,13,0,13,0,1,
632a385defc440ca225a32b4,SCN,2024-06-21_18h32.18.675,LearnStrategy,2023.2.3,Win32,15.01501502,3,2,15,,,,,,,,6,12,,,,,,,,,,,4,6.267,0,,,,,,0.344444416,-0.25,1,0,0,6.2669,Gabbro_rect,14,0,14,0,1,
632a385defc440ca225a32b4,SCN,2024-06-21_18h32.18.675,LearnStrategy,2023.2.3,Win32,15.01501502,3,2,16,,,,,,,,6,10,,,,,,,,,,,7,4.917,0,,,,,,0.074074074,-0.407407407,1,0,0,4.917,Peridotite_rect,15,0,15,0,1,
632a385defc440ca225a32b4,SCN,2024-06-21_18h32.18.675,LearnStrategy,2023.2.3,Win32,15.01501502,4,1,1,-0.556481467,0.393518519,1,0,0,11.3526,Andesite_14,1,14,6,1,11.353,-0.124074088,-0.250925912,1,0,0,2.3342,Basalt_rect,2,2.334,0,0,0,0,0,1,,,,,,,,,,,,,
632a385defc440ca225a32b4,SCN,2024-06-21_18h32.18.675,LearnStrategy,2023.2.3,Win32,15.01501502,4,1,2,-0.386111118,0.392592589,1,0,0,1.9219,Gabbro_15,4,15,6,2,1.922,0.163888931,-0.244444459,1,0,0,6.2088,Diorite_rect,3,6.209,0,1,0,1,0,1,,,,,,,,,,,,,
632a385defc440ca225a32b4,SCN,2024-06-21_18h32.18.675,LearnStrategy,2023.2.3,Win32,15.01501502,4,1,3,-0.030555513,0.403703698,1,0,0,2.2122,Basalt_05,2,05,6,4,2.212,-0.188888903,-0.23055557,1,0,0,4.7891,Basalt_rect,2,4.789,1,2,0,2,0,1,,,,,,,,,,,,,
632a385defc440ca225a32b4,SCN,2024-06-21_18h32.18.675,LearnStrategy,2023.2.3,Win32,15.01501502,4,1,4,0.054629644,0.38981481,1,0,0,5.3443,Gabbro_10,4,10,6,5,5.344,0.373148176,-0.405555584,1,0,0,3.0685,Pumice_rect,8,3.068,0,3,0,3,0,1,,,,,,,,,,,,,
632a385defc440ca225a32b4,SCN,2024-06-21_18h32.18.675,LearnStrategy,2023.2.3,Win32,15.01501502,4,1,5,0.07685188,0.229629623,1,0,0,10.2507,Gabbro_12,4,12,5,5,10.251,-0.113888847,-0.242592635,1,0,0,1.2254,Basalt_rect,2,1.225,0,4,0,4,0,1,,,,,,,,,,,,,
632a385defc440ca225a32b4,SCN,2024-06-21_18h32.18.675,LearnStrategy,2023.2.3,Win32,15.01501502,4,1,6,-0.204629616,0.244444441,1,0,0,6.4188,Peridotite_15,7,15,5,3,6.419,0.136111153,-0.39444443,1,0,0,11.7534,Peridotite_rect,7,11.753,1,5,0,5,0,1,,,,,,,,,,,,,
632a385defc440ca225a32b4,SCN,2024-06-21_18h32.18.675,LearnStrategy,2023.2.3,Win32,15.01501502,4,1,7,-0.235185199,-0.119444459,1,0,0,3.4114,Pegmatite_11,6,11,3,3,3.411,-0.39907406,-0.412962949,1,0,0,1.5298,Obsidian_rect,5,1.53,0,6,0,6,0,1,,,,,,,,,,,,,
632a385defc440ca225a32b4,SCN,2024-06-21_18h32.18.675,LearnStrategy,2023.2.3,Win32,15.01501502,4,1,8,0.10555557,-0.297222208,1,0,0,1.7839,Pegmatite_09,6,09,2,5,1.784,-0.15370369,-0.388888889,1,0,0,2.4323,Pegmatite_rect,6,2.432,1,7,0,7,0,1,,,,,,,,,,,,,
632a385defc440ca225a32b4,SCN,2024-06-21_18h32.18.675,LearnStrategy,2023.2.3,Win32,15.01501502,4,1,9,0.238888917,-0.261111153,1,0,0,1.835,Diorite_13,3,13,2,6,1.835,0.20648151,-0.256481524,1,0,0,3.5313,Diorite_rect,3,3.531,1,8,0,8,0,1,,,,,,,,,,,,,
632a385defc440ca225a32b4,SCN,2024-06-21_18h32.18.675,LearnStrategy,2023.2.3,Win32,15.01501502,4,1,10,-0.260185171,-0.412962949,1,0,0,3.537,Basalt_06,2,06,1,3,3.537,-0.137962977,-0.268518519,1,0,0,1.3485,Basalt_rect,2,1.348,1,9,0,9,0,1,,,,,,,,,,,,,
632a385defc440ca225a32b4,SCN,2024-06-21_18h32.18.675,LearnStrategy,2023.2.3,Win32,15.01501502,4,1,11,-0.553703697,0.096296275,1,0,0,6.6744,Diorite_14,3,14,4,1,6.674,0.173148191,-0.262962977,1,0,0,2.0952,Diorite_rect,3,2.095,1,10,0,10,0,1,,,,,,,,,,,,,
632a385defc440ca225a32b4,SCN,2024-06-21_18h32.18.675,LearnStrategy,2023.2.3,Win32,15.01501502,4,1,12,0.573148233,-0.40370369,1,0,0,1.2063,Basalt_08,2,08,1,8,1.206,0.395370342,-0.259259259,1,0,0,1.8187,Gabbro_rect,4,1.819,0,11,0,11,0,1,,,,,,,,,,,,,
632a385defc440ca225a32b4,SCN,2024-06-21_18h32.18.675,LearnStrategy,2023.2.3,Win32,15.01501502,4,1,13,0.575925898,-0.097222222,1,0,0,7.0252,Basalt_04,2,04,3,8,7.025,-0.17314812,-0.25,1,0,0,2.9721,Basalt_rect,2,2.972,1,12,0,12,0,1,,,,,,,,,,,,,
632a385defc440ca225a32b4,SCN,2024-06-21_18h32.18.675,LearnStrategy,2023.2.3,Win32,15.01501502,4,1,14,0.228703746,0.092592593,1,0,0,2.1116,Gabbro_16,4,16,4,6,2.112,-0.133333347,-0.229629658,1,0,0,1.5383,Basalt_rect,2,1.538,0,13,0,13,0,1,,,,,,,,,,,,,
632a385defc440ca225a32b4,SCN,2024-06-21_18h32.18.675,LearnStrategy,2023.2.3,Win32,15.01501502,4,1,15,0.550925926,0.238888882,1,0,0,3.8482,Pumice_06,8,06,5,8,3.848,0.406481566,-0.421296296,1,0,0,1.1124,Pumice_rect,8,1.112,1,14,0,14,0,1,,,,,,,,,,,,,
632a385defc440ca225a32b4,SCN,2024-06-21_18h32.18.675,LearnStrategy,2023.2.3,Win32,15.01501502,4,1,16,-0.349999993,-0.22592594,1,0,0,3.7253,Pegmatite_07,6,07,2,2,3.725,-0.447222215,-0.39907406,1,0,0,0.9252,Obsidian_rect,5,0.925,0,15,0,15,0,1,,,,,,,,,,,,,
632a385defc440ca225a32b4,SCN,2024-06-21_18h32.18.675,LearnStrategy,2023.2.3,Win32,15.01501502,4,2,1,,,,,,,,5,04,,,,,,,,,,,5,5.548,1,,,,,,-0.424999979,-0.417592578,1,0,0,5.5484,Obsidian_rect,0,0,0,0,1,
632a385defc440ca225a32b4,SCN,2024-06-21_18h32.18.675,LearnStrategy,2023.2.3,Win32,15.01501502,4,2,2,,,,,,,,8,02,,,,,,,,,,,8,2.288,1,,,,,,0.381481453,-0.398148148,1,0,0,2.2881,Pumice_rect,1,0,1,0,1,
632a385defc440ca225a32b4,SCN,2024-06-21_18h32.18.675,LearnStrategy,2023.2.3,Win32,15.01501502,4,2,3,,,,,,,,4,03,,,,,,,,,,,2,2.665,0,,,,,,-0.124074088,-0.25462963,1,0,0,2.6646,Basalt_rect,2,0,2,0,1,
632a385defc440ca225a32b4,SCN,2024-06-21_18h32.18.675,LearnStrategy,2023.2.3,Win32,15.01501502,4,2,4,,,,,,,,2,01,,,,,,,,,,,2,2.169,1,,,,,,-0.115740741,-0.25,1,0,0,2.1695,Basalt_rect,3,0,3,0,1,
632a385defc440ca225a32b4,SCN,2024-06-21_18h32.18.675,LearnStrategy,2023.2.3,Win32,15.01501502,4,2,5,,,,,,,,1,01,,,,,,,,,,,2,1.498,0,,,,,,-0.142592607,-0.256481524,1,0,0,1.4975,Basalt_rect,4,0,4,0,1,
632a385defc440ca225a32b4,SCN,2024-06-21_18h32.18.675,LearnStrategy,2023.2.3,Win32,15.01501502,4,2,6,,,,,,,,6,12,,,,,,,,,,,6,2.329,1,,,,,,-0.09629631,-0.416666667,1,0,0,2.3291,Pegmatite_rect,5,0,5,0,1,
632a385defc440ca225a32b4,SCN,2024-06-21_18h32.18.675,LearnStrategy,2023.2.3,Win32,15.01501502,4,2,7,,,,,,,,3,15,,,,,,,,,,,6,2.461,0,,,,,,-0.082407422,-0.39907406,1,0,0,2.4613,Pegmatite_rect,6,0,6,0,1,
632a385defc440ca225a32b4,SCN,2024-06-21_18h32.18.675,LearnStrategy,2023.2.3,Win32,15.01501502,4,2,8,,,,,,,,7,13,,,,,,,,,,,7,1.99,1,,,,,,0.17777782,-0.402777778,1,0,0,1.99,Peridotite_rect,7,0,7,0,1,
632a385defc440ca225a32b4,SCN,2024-06-21_18h32.18.675,LearnStrategy,2023.2.3,Win32,15.01501502,4,2,9,,,,,,,,6,05,,,,,,,,,,,7,3.561,0,,,,,,0.12037037,-0.407407407,1,0,0,3.561,Peridotite_rect,8,0,8,0,1,
632a385defc440ca225a32b4,SCN,2024-06-21_18h32.18.675,LearnStrategy,2023.2.3,Win32,15.01501502,4,2,10,,,,,,,,4,13,,,,,,,,,,,4,3.908,1,,,,,,0.3648149,-0.253703718,1,0,0,3.9084,Gabbro_rect,9,0,9,0,1,
632a385defc440ca225a32b4,SCN,2024-06-21_18h32.18.675,LearnStrategy,2023.2.3,Win32,15.01501502,4,2,11,,,,,,,,5,11,,,,,,,,,,,5,2.434,1,,,,,,-0.427777785,-0.390740783,1,0,0,2.4337,Obsidian_rect,10,0,10,0,1,
632a385defc440ca225a32b4,SCN,2024-06-21_18h32.18.675,LearnStrategy,2023.2.3,Win32,15.01501502,4,2,12,,,,,,,,8,16,,,,,,,,,,,8,2.729,1,,,,,,0.382407436,-0.39907406,1,0,0,2.7286,Pumice_rect,11,0,11,0,1,
632a385defc440ca225a32b4,SCN,2024-06-21_18h32.18.675,LearnStrategy,2023.2.3,Win32,15.01501502,4,2,13,,,,,,,,3,08,,,,,,,,,,,3,1.373,1,,,,,,0.184259273,-0.252777806,1,0,0,1.3728,Diorite_rect,12,0,12,0,1,
632a385defc440ca225a32b4,SCN,2024-06-21_18h32.18.675,LearnStrategy,2023.2.3,Win32,15.01501502,4,2,14,,,,,,,,1,04,,,,,,,,,,,3,1.136,0,,,,,,0.187037079,-0.240740741,1,0,0,1.136,Diorite_rect,13,0,13,0,1,
632a385defc440ca225a32b4,SCN,2024-06-21_18h32.18.675,LearnStrategy,2023.2.3,Win32,15.01501502,4,2,15,,,,,,,,2,11,,,,,,,,,,,3,1.849,0,,,,,,0.169444473,-0.266666695,1,0,0,1.8487,Diorite_rect,14,0,14,0,1,
632a385defc440ca225a32b4,SCN,2024-06-21_18h32.18.675,LearnStrategy,2023.2.3,Win32,15.01501502,4,2,16,,,,,,,,7,06,,,,,,,,,,,7,2.081,1,,,,,,0.100000028,-0.405555584,1,0,0,2.0806,Peridotite_rect,15,0,15,0,1,
632a385defc440ca225a32b4,SCN,2024-06-21_18h32.18.675,LearnStrategy,2023.2.3,Win32,15.01501502,5,1,1,0.207407422,0.2462963,1,0,0,25.6141,Obsidian_06,5,06,5,6,25.614,-0.377777771,-0.418518561,1,0,0,3.8404,Obsidian_rect,5,3.84,1,0,0,0,0,1,,,,,,,,,,,,,
632a385defc440ca225a32b4,SCN,2024-06-21_18h32.18.675,LearnStrategy,2023.2.3,Win32,15.01501502,5,1,2,0.065740727,0.115740741,1,0,0,2.7145,Andesite_11,1,11,4,5,2.715,0.164814843,-0.242592635,1,0,0,3.2184,Diorite_rect,3,3.218,0,1,0,1,0,1,,,,,,,,,,,,,
632a385defc440ca225a32b4,SCN,2024-06-21_18h32.18.675,LearnStrategy,2023.2.3,Win32,15.01501502,5,1,3,0.387037065,0.118518511,1,0,0,1.6506,Diorite_02,3,02,4,7,1.651,0.167592578,-0.252777806,1,0,0,1.493,Diorite_rect,3,1.493,1,2,0,2,0,1,,,,,,,,,,,,,
632a385defc440ca225a32b4,SCN,2024-06-21_18h32.18.675,LearnStrategy,2023.2.3,Win32,15.01501502,5,1,4,0.391666695,-0.246296282,1,0,0,6.5563,Andesite_05,1,05,2,7,6.556,-0.338888875,-0.262962977,1,0,0,1.1327,Andesite_rect,1,1.133,1,3,0,3,0,1,,,,,,,,,,,,,
632a385defc440ca225a32b4,SCN,2024-06-21_18h32.18.675,LearnStrategy,2023.2.3,Win32,15.01501502,5,1,5,0.071296339,0.105555534,1,0,0,1.4977,Andesite_11,1,11,4,5,1.498,-0.333333333,-0.233333376,1,0,0,1.4928,Andesite_rect,1,1.493,1,4,0,4,0,1,,,,,,,,,,,,,
632a385defc440ca225a32b4,SCN,2024-06-21_18h32.18.675,LearnStrategy,2023.2.3,Win32,15.01501502,5,1,6,-0.22129631,0.075925933,1,0,0,3.5104,Diorite_12,3,12,4,3,3.51,-0.369444423,-0.391666695,1,0,0,14.246,Obsidian_rect,5,14.246,0,5,0,5,0,1,,,,,,,,,,,,,
632a385defc440ca225a32b4,SCN,2024-06-21_18h32.18.675,LearnStrategy,2023.2.3,Win32,15.01501502,5,1,7,0.256481524,-0.237963005,1,0,0,1.4169,Diorite_13,3,13,2,6,1.417,0.188888903,-0.265740783,1,0,0,1.5772,Diorite_rect,3,1.577,1,6,0,6,0,1,,,,,,,,,,,,,
632a385defc440ca225a32b4,SCN,2024-06-21_18h32.18.675,LearnStrategy,2023.2.3,Win32,15.01501502,5,1,8,0.524074131,-0.240740741,1,0,0,1.313,Peridotite_12,7,12,2,8,1.313,0.168518561,-0.251851894,1,0,0,2.0584,Diorite_rect,3,2.058,0,7,0,7,0,1,,,,,,,,,,,,,
632a385defc440ca225a32b4,SCN,2024-06-21_18h32.18.675,LearnStrategy,2023.2.3,Win32,15.01501502,5,1,9,0.092592593,-0.248148176,1,0,0,2.3367,Pegmatite_09,6,09,2,5,2.337,0.116666653,-0.401851866,1,0,0,1.777,Peridotite_rect,7,1.777,0,8,0,8,0,1,,,,,,,,,,,,,
632a385defc440ca225a32b4,SCN,2024-06-21_18h32.18.675,LearnStrategy,2023.2.3,Win32,15.01501502,5,1,10,-0.54074072,-0.246296282,1,0,0,2.6167,Pegmatite_15,6,15,2,1,2.617,-0.343518504,-0.242592635,1,0,0,2.1211,Andesite_rect,1,2.121,0,9,0,9,0,1,,,,,,,,,,,,,
632a385defc440ca225a32b4,SCN,2024-06-21_18h32.18.675,LearnStrategy,2023.2.3,Win32,15.01501502,5,1,11,0.402777778,0.225925922,1,0,0,5.7455,Pumice_13,8,13,5,7,5.745,0.374074159,-0.387037065,1,0,0,1.1206,Pumice_rect,8,1.121,1,10,0,10,0,1,,,,,,,,,,,,,
632a385defc440ca225a32b4,SCN,2024-06-21_18h32.18.675,LearnStrategy,2023.2.3,Win32,15.01501502,5,1,12,0.248148176,0.387037039,1,0,0,2.848,Pumice_10,8,10,6,6,2.848,0.398148148,-0.421296296,1,0,0,1.0429,Pumice_rect,8,1.043,1,11,0,11,0,1,,,,,,,,,,,,,
632a385defc440ca225a32b4,SCN,2024-06-21_18h32.18.675,LearnStrategy,2023.2.3,Win32,15.01501502,5,1,13,0.516666695,0.37685185,1,0,0,3.7711,Pumice_14,8,14,6,8,3.771,0.377777806,-0.412037037,1,0,0,2.5956,Pumice_rect,8,2.596,1,12,0,12,0,1,,,,,,,,,,,,,
632a385defc440ca225a32b4,SCN,2024-06-21_18h32.18.675,LearnStrategy,2023.2.3,Win32,15.01501502,5,1,14,0.083333333,-0.414814843,1,0,0,11.2904,Pumice_09,8,09,1,5,11.29,0.388888889,-0.40370369,1,0,0,1.4549,Pumice_rect,8,1.455,1,13,0,13,0,1,,,,,,,,,,,,,
632a385defc440ca225a32b4,SCN,2024-06-21_18h32.18.675,LearnStrategy,2023.2.3,Win32,15.01501502,5,1,15,-0.029629601,0.066666674,1,0,0,1.9367,Pegmatite_16,6,16,4,4,1.937,0.140740783,-0.406481496,1,0,0,2.2102,Peridotite_rect,7,2.21,0,14,0,14,0,1,,,,,,,,,,,,,
632a385defc440ca225a32b4,SCN,2024-06-21_18h32.18.675,LearnStrategy,2023.2.3,Win32,15.01501502,5,1,16,-0.222222222,-0.12962963,1,0,0,1.9098,Pegmatite_11,6,11,3,3,1.91,-0.089814787,-0.409259302,1,0,0,2.8564,Pegmatite_rect,6,2.856,1,15,0,15,0,1,,,,,,,,,,,,,
632a385defc440ca225a32b4,SCN,2024-06-21_18h32.18.675,LearnStrategy,2023.2.3,Win32,15.01501502,5,2,1,,,,,,,,4,14,,,,,,,,,,,1,4.347,0,,,,,,-0.347222222,-0.258333347,1,0,0,4.3474,Andesite_rect,0,0,0,0,1,
632a385defc440ca225a32b4,SCN,2024-06-21_18h32.18.675,LearnStrategy,2023.2.3,Win32,15.01501502,5,2,2,,,,,,,,3,16,,,,,,,,,,,3,4.735,1,,,,,,0.142592607,-0.253703718,1,0,0,4.7354,Diorite_rect,1,0,1,0,1,
632a385defc440ca225a32b4,SCN,2024-06-21_18h32.18.675,LearnStrategy,2023.2.3,Win32,15.01501502,5,2,3,,,,,,,,2,14,,,,,,,,,,,1,4.057,0,,,,,,-0.343518504,-0.244444459,1,0,0,4.057,Andesite_rect,2,0,2,0,1,
632a385defc440ca225a32b4,SCN,2024-06-21_18h32.18.675,LearnStrategy,2023.2.3,Win32,15.01501502,5,2,4,,,,,,,,5,12,,,,,,,,,,,5,2.953,1,,,,,,-0.343518504,-0.407407407,1,0,0,2.9532,Obsidian_rect,3,0,3,0,1,
632a385defc440ca225a32b4,SCN,2024-06-21_18h32.18.675,LearnStrategy,2023.2.3,Win32,15.01501502,5,2,5,,,,,,,,4,11,,,,,,,,,,,2,1.704,0,,,,,,-0.158333319,-0.258333347,1,0,0,1.7039,Basalt_rect,4,0,4,0,1,
632a385defc440ca225a32b4,SCN,2024-06-21_18h32.18.675,LearnStrategy,2023.2.3,Win32,15.01501502,5,2,6,,,,,,,,5,16,,,,,,,,,,,5,2.166,1,,,,,,-0.375925912,-0.397222236,1,0,0,2.1662,Obsidian_rect,5,0,5,0,1,
632a385defc440ca225a32b4,SCN,2024-06-21_18h32.18.675,LearnStrategy,2023.2.3,Win32,15.01501502,5,2,7,,,,,,,,2,10,,,,,,,,,,,2,1.911,1,,,,,,-0.151851866,-0.253703718,1,0,0,1.9106,Basalt_rect,6,0,6,0,1,
632a385defc440ca225a32b4,SCN,2024-06-21_18h32.18.675,LearnStrategy,2023.2.3,Win32,15.01501502,5,2,8,,,,,,,,8,05,,,,,,,,,,,8,1.261,1,,,,,,0.383333418,-0.412962949,1,0,0,1.2614,Pumice_rect,7,0,7,0,1,
632a385defc440ca225a32b4,SCN,2024-06-21_18h32.18.675,LearnStrategy,2023.2.3,Win32,15.01501502,5,2,9,,,,,,,,3,11,,,,,,,,,,,3,1.247,1,,,,,,0.186111097,-0.24537037,1,0,0,1.2471,Diorite_rect,8,0,8,0,1,
632a385defc440ca225a32b4,SCN,2024-06-21_18h32.18.675,LearnStrategy,2023.2.3,Win32,15.01501502,5,2,10,,,,,,,,6,08,,,,,,,,,,,7,1.267,0,,,,,,0.117592635,-0.407407407,1,0,0,1.2668,Peridotite_rect,9,0,9,0,1,
632a385defc440ca225a32b4,SCN,2024-06-21_18h32.18.675,LearnStrategy,2023.2.3,Win32,15.01501502,5,2,11,,,,,,,,1,16,,,,,,,,,,,1,2.986,1,,,,,,-0.3824074,-0.256481524,1,0,0,2.9861,Andesite_rect,10,0,10,0,1,
632a385defc440ca225a32b4,SCN,2024-06-21_18h32.18.675,LearnStrategy,2023.2.3,Win32,15.01501502,5,2,12,,,,,,,,6,06,,,,,,,,,,,1,3.249,0,,,,,,-0.362037023,-0.25,1,0,0,3.2495,Andesite_rect,11,0,11,0,1,
632a385defc440ca225a32b4,SCN,2024-06-21_18h32.18.675,LearnStrategy,2023.2.3,Win32,15.01501502,5,2,13,,,,,,,,7,07,,,,,,,,,,,7,3.699,1,,,,,,0.099074116,-0.39444443,1,0,0,3.699,Peridotite_rect,12,0,12,0,1,
632a385defc440ca225a32b4,SCN,2024-06-21_18h32.18.675,LearnStrategy,2023.2.3,Win32,15.01501502,5,2,14,,,,,,,,1,10,,,,,,,,,,,6,2.023,0,,,,,,-0.073148162,-0.391666695,1,0,0,2.0229,Pegmatite_rect,13,0,13,0,1,
632a385defc440ca225a32b4,SCN,2024-06-21_18h32.18.675,LearnStrategy,2023.2.3,Win32,15.01501502,5,2,15,,,,,,,,8,04,,,,,,,,,,,8,5.249,1,,,,,,0.389814871,-0.392592607,1,0,0,5.249,Pumice_rect,14,0,14,0,1,
632a385defc440ca225a32b4,SCN,2024-06-21_18h32.18.675,LearnStrategy,2023.2.3,Win32,15.01501502,5,2,16,,,,,,,,7,10,,,,,,,,,,,6,3.819,0,,,,,,-0.060185185,-0.389814801,1,0,0,3.8192,Pegmatite_rect,15,0,15,0,1,
632a385defc440ca225a32b4,SCN,2024-06-21_18h32.18.675,LearnStrategy,2023.2.3,Win32,15.01501502,6,1,1,0.109259288,0.098148134,1,0,0,2.0337,Andesite_11,1,11,4,5,2.034,-0.196296268,-0.235185199,1,0,0,1.0162,Basalt_rect,2,1.016,0,0,0,0,0,1,,,,,,,,,,,,,
632a385defc440ca225a32b4,SCN,2024-06-21_18h32.18.675,LearnStrategy,2023.2.3,Win32,15.01501502,6,1,2,-0.19722218,-0.092592593,1,0,0,0.9279,Pegmatite_11,6,11,3,3,0.928,0.097222222,-0.397222236,1,0,0,2.8834,Peridotite_rect,7,2.883,0,1,0,1,0,1,,,,,,,,,,,,,
632a385defc440ca225a32b4,SCN,2024-06-21_18h32.18.675,LearnStrategy,2023.2.3,Win32,15.01501502,6,1,3,-0.065740727,0.097222222,1,0,0,2.3347,Pegmatite_16,6,16,4,4,2.335,-0.110185199,-0.387962977,1,0,0,3.4771,Pegmatite_rect,6,3.477,1,2,0,2,0,1,,,,,,,,,,,,,
632a385defc440ca225a32b4,SCN,2024-06-21_18h32.18.675,LearnStrategy,2023.2.3,Win32,15.01501502,6,1,4,-0.239814829,-0.107407393,1,0,0,0.9116,Pegmatite_11,6,11,3,3,0.912,-0.084259245,-0.401851866,1,0,0,0.9362,Pegmatite_rect,6,0.936,1,3,0,3,0,1,,,,,,,,,,,,,
632a385defc440ca225a32b4,SCN,2024-06-21_18h32.18.675,LearnStrategy,2023.2.3,Win32,15.01501502,6,1,5,-0.224999958,0.243518511,1,0,0,2.2203,Peridotite_15,7,15,5,3,2.22,0.110185199,-0.397222236,1,0,0,3.0521,Peridotite_rect,7,3.052,1,4,0,4,0,1,,,,,,,,,,,,,
632a385defc440ca225a32b4,SCN,2024-06-21_18h32.18.675,LearnStrategy,2023.2.3,Win32,15.01501502,6,1,6,-0.544444437,-0.405555584,1,0,0,3.8285,Gabbro_05,4,05,1,1,3.829,0.080555598,-0.419444473,1,0,0,6.8363,Peridotite_rect,7,6.836,0,5,0,5,0,1,,,,,,,,,,,,,
632a385defc440ca225a32b4,SCN,2024-06-21_18h32.18.675,LearnStrategy,2023.2.3,Win32,15.01501502,6,1,7,0.237037023,-0.243518547,1,0,0,1.5037,Diorite_13,3,13,2,6,1.504,0.337037122,-0.246296282,1,0,0,2.5089,Gabbro_rect,4,2.509,0,6,0,6,0,1,,,,,,,,,,,,,
632a385defc440ca225a32b4,SCN,2024-06-21_18h32.18.675,LearnStrategy,2023.2.3,Win32,15.01501502,6,1,8,-0.235185199,0.083333333,1,0,0,1.9203,Diorite_12,3,12,4,3,1.92,0.172222208,-0.258333347,1,0,0,1.4836,Diorite_rect,3,1.484,1,7,0,7,0,1,,,,,,,,,,,,,
632a385defc440ca225a32b4,SCN,2024-06-21_18h32.18.675,LearnStrategy,2023.2.3,Win32,15.01501502,6,1,9,-0.401851831,-0.126851894,1,0,0,1.1017,Gabbro_08,4,08,3,2,1.102,-0.073148162,-0.252777806,1,0,0,3.2991,Basalt_rect,2,3.299,0,8,0,8,0,1,,,,,,,,,,,,,
632a385defc440ca225a32b4,SCN,2024-06-21_18h32.18.675,LearnStrategy,2023.2.3,Win32,15.01501502,6,1,10,-0.243518476,0.062037044,1,0,0,2.229,Diorite_12,3,12,4,3,2.229,0.115740741,-0.252777806,1,0,0,12.8493,Diorite_rect,3,12.849,1,9,0,9,0,1,,,,,,,,,,,,,
632a385defc440ca225a32b4,SCN,2024-06-21_18h32.18.675,LearnStrategy,2023.2.3,Win32,15.01501502,6,1,11,-0.385185171,-0.078703704,1,0,0,1.6362,Gabbro_08,4,08,3,2,1.636,-0.349074081,-0.240740741,1,0,0,4.895,Andesite_rect,1,4.895,0,10,0,10,0,1,,,,,,,,,,,,,
632a385defc440ca225a32b4,SCN,2024-06-21_18h32.18.675,LearnStrategy,2023.2.3,Win32,15.01501502,6,1,12,-0.409259266,-0.116666653,1,0,0,1.1174,Gabbro_08,4,08,3,2,1.117,0.368518547,-0.25462963,1,0,0,1.288,Gabbro_rect,4,1.288,1,11,0,11,0,1,,,,,,,,,,,,,
632a385defc440ca225a32b4,SCN,2024-06-21_18h32.18.675,LearnStrategy,2023.2.3,Win32,15.01501502,6,1,13,-0.371296282,-0.263888889,1,0,0,1.7195,Pegmatite_07,6,07,2,2,1.719,0.118518547,-0.396296325,1,0,0,1.007,Peridotite_rect,7,1.007,0,12,0,12,0,1,,,,,,,,,,,,,
632a385defc440ca225a32b4,SCN,2024-06-21_18h32.18.675,LearnStrategy,2023.2.3,Win32,15.01501502,6,1,14,-0.532407407,-0.284259302,1,0,0,2.333,Pegmatite_15,6,15,2,1,2.333,-0.083333333,-0.400000042,1,0,0,1.5865,Pegmatite_rect,6,1.587,1,13,0,13,0,1,,,,,,,,,,,,,
632a385defc440ca225a32b4,SCN,2024-06-21_18h32.18.675,LearnStrategy,2023.2.3,Win32,15.01501502,6,1,15,-0.390740748,-0.250925912,1,0,0,1.6144,Pegmatite_07,6,07,2,2,1.614,-0.078703704,-0.406481496,1,0,0,1.2485,Pegmatite_rect,6,1.248,1,14,0,14,0,1,,,,,,,,,,,,,
632a385defc440ca225a32b4,SCN,2024-06-21_18h32.18.675,LearnStrategy,2023.2.3,Win32,15.01501502,6,1,16,-0.235185199,-0.090740734,1,0,0,1.7703,Pegmatite_11,6,11,3,3,1.77,-0.06759255,-0.411111125,1,0,0,1.8636,Pegmatite_rect,6,1.864,1,15,0,15,0,1,,,,,,,,,,,,,
632a385defc440ca225a32b4,SCN,2024-06-21_18h32.18.675,LearnStrategy,2023.2.3,Win32,15.01501502,6,2,1,,,,,,,,1,03,,,,,,,,,,,2,2.047,0,,,,,,-0.123148106,-0.252777806,1,0,0,2.0467,Basalt_rect,0,0,0,0,1,
632a385defc440ca225a32b4,SCN,2024-06-21_18h32.18.675,LearnStrategy,2023.2.3,Win32,15.01501502,6,2,2,,,,,,,,8,15,,,,,,,,,,,8,1.234,1,,,,,,0.392592677,-0.405555584,1,0,0,1.2344,Pumice_rect,1,0,1,0,1,
632a385defc440ca225a32b4,SCN,2024-06-21_18h32.18.675,LearnStrategy,2023.2.3,Win32,15.01501502,6,2,3,,,,,,,,4,01,,,,,,,,,,,4,5.725,1,,,,,,0.347222222,-0.248148176,1,0,0,5.7245,Gabbro_rect,2,0,2,0,1,
632a385defc440ca225a32b4,SCN,2024-06-21_18h32.18.675,LearnStrategy,2023.2.3,Win32,15.01501502,6,2,4,,,,,,,,5,05,,,,,,,,,,,5,5.185,1,,,,,,-0.368518511,-0.386111153,1,0,0,5.185,Obsidian_rect,3,0,3,0,1,
632a385defc440ca225a32b4,SCN,2024-06-21_18h32.18.675,LearnStrategy,2023.2.3,Win32,15.01501502,6,2,5,,,,,,,,6,10,,,,,,,,,,,6,2.44,1,,,,,,-0.07222218,-0.393518519,1,0,0,2.4404,Pegmatite_rect,4,0,4,0,1,
632a385defc440ca225a32b4,SCN,2024-06-21_18h32.18.675,LearnStrategy,2023.2.3,Win32,15.01501502,6,2,6,,,,,,,,2,02,,,,,,,,,,,2,5.601,1,,,,,,-0.200925898,-0.253703718,1,0,0,5.601,Basalt_rect,5,0,5,0,1,
632a385defc440ca225a32b4,SCN,2024-06-21_18h32.18.675,LearnStrategy,2023.2.3,Win32,15.01501502,6,2,7,,,,,,,,4,09,,,,,,,,,,,2,1.688,0,,,,,,-0.203703704,-0.250925912,1,0,0,1.6875,Basalt_rect,6,0,6,0,1,
632a385defc440ca225a32b4,SCN,2024-06-21_18h32.18.675,LearnStrategy,2023.2.3,Win32,15.01501502,6,2,8,,,,,,,,5,10,,,,,,,,,,,5,1.366,1,,,,,,-0.366666653,-0.387962977,1,0,0,1.3664,Obsidian_rect,7,0,7,0,1,
632a385defc440ca225a32b4,SCN,2024-06-21_18h32.18.675,LearnStrategy,2023.2.3,Win32,15.01501502,6,2,9,,,,,,,,3,09,,,,,,,,,,,3,3.133,1,,,,,,0.132407436,-0.252777806,1,0,0,3.1325,Diorite_rect,8,0,8,0,1,
632a385defc440ca225a32b4,SCN,2024-06-21_18h32.18.675,LearnStrategy,2023.2.3,Win32,15.01501502,6,2,10,,,,,,,,6,13,,,,,,,,,,,7,2.824,0,,,,,,0.058333362,-0.402777778,1,0,0,2.8238,Peridotite_rect,9,0,9,0,1,
632a385defc440ca225a32b4,SCN,2024-06-21_18h32.18.675,LearnStrategy,2023.2.3,Win32,15.01501502,6,2,11,,,,,,,,7,16,,,,,,,,,,,1,2,0,,,,,,-0.351851852,-0.255555541,1,0,0,2.0002,Andesite_rect,10,0,10,0,1,
632a385defc440ca225a32b4,SCN,2024-06-21_18h32.18.675,LearnStrategy,2023.2.3,Win32,15.01501502,6,2,12,,,,,,,,1,07,,,,,,,,,,,3,1.29,0,,,,,,0.15370369,-0.271296325,1,0,0,1.2897,Diorite_rect,11,0,11,0,1,
632a385defc440ca225a32b4,SCN,2024-06-21_18h32.18.675,LearnStrategy,2023.2.3,Win32,15.01501502,6,2,13,,,,,,,,3,06,,,,,,,,,,,3,2.36,1,,,,,,0.142592607,-0.252777806,1,0,0,2.36,Diorite_rect,12,0,12,0,1,
632a385defc440ca225a32b4,SCN,2024-06-21_18h32.18.675,LearnStrategy,2023.2.3,Win32,15.01501502,6,2,14,,,,,,,,2,12,,,,,,,,,,,2,2.463,1,,,,,,-0.185185185,-0.261111153,1,0,0,2.463,Basalt_rect,13,0,13,0,1,
632a385defc440ca225a32b4,SCN,2024-06-21_18h32.18.675,LearnStrategy,2023.2.3,Win32,15.01501502,6,2,15,,,,,,,,8,03,,,,,,,,,,,8,1.287,1,,,,,,0.358333305,-0.400000042,1,0,0,1.2865,Pumice_rect,14,0,14,0,1,
632a385defc440ca225a32b4,SCN,2024-06-21_18h32.18.675,LearnStrategy,2023.2.3,Win32,15.01501502,6,2,16,,,,,,,,7,14,,,,,,,,,,,1,3.355,0,,,,,,-0.319444444,-0.240740741,1,0,0,3.3549,Andesite_rect,15,0,15,0,1,
632a385defc440ca225a32b4,SCN,2024-06-21_18h32.18.675,LearnStrategy,2023.2.3,Win32,15.01501502,7,1,1,0.421296296,0.094444452,1,0,0,11.3216,Diorite_02,3,02,4,7,11.322,0.155555584,-0.25,1,0,0,1.8751,Diorite_rect,3,1.875,1,0,0,0,0,1,,,,,,,,,,,,,
632a385defc440ca225a32b4,SCN,2024-06-21_18h32.18.675,LearnStrategy,2023.2.3,Win32,15.01501502,7,1,2,0.570370427,0.382407409,1,0,0,0.9153,Pumice_14,8,14,6,8,0.915,0.428703732,-0.395370413,1,0,0,0.8444,Pumice_rect,8,0.844,1,1,0,1,0,1,,,,,,,,,,,,,
632a385defc440ca225a32b4,SCN,2024-06-21_18h32.18.675,LearnStrategy,2023.2.3,Win32,15.01501502,7,1,3,-0.199074074,0.105555534,1,0,0,1.0085,Diorite_12,3,12,4,3,1.009,-0.374074053,-0.234259288,1,0,0,1.2926,Andesite_rect,1,1.293,0,2,0,2,0,1,,,,,,,,,,,,,
632a385defc440ca225a32b4,SCN,2024-06-21_18h32.18.675,LearnStrategy,2023.2.3,Win32,15.01501502,7,1,4,-0.364814794,0.074074074,1,0,0,2.0418,Andesite_02,1,02,4,2,2.042,-0.351851852,-0.256481524,1,0,0,0.7387,Andesite_rect,1,0.739,1,3,0,3,0,1,,,,,,,,,,,,,
632a385defc440ca225a32b4,SCN,2024-06-21_18h32.18.675,LearnStrategy,2023.2.3,Win32,15.01501502,7,1,5,-0.233333305,0.236111111,1,0,0,6.3904,Peridotite_15,7,15,5,3,6.39,0.074074074,-0.404629672,1,0,0,3.9216,Peridotite_rect,7,3.922,1,4,0,4,0,1,,,,,,,,,,,,,
632a385defc440ca225a32b4,SCN,2024-06-21_18h32.18.675,LearnStrategy,2023.2.3,Win32,15.01501502,7,1,6,-0.369444423,0.26574073,1,0,0,2.2666,Andesite_06,1,06,5,2,2.267,-0.363888882,-0.270370413,1,0,0,6.0219,Andesite_rect,1,6.022,1,5,0,5,0,1,,,,,,,,,,,,,
632a385defc440ca225a32b4,SCN,2024-06-21_18h32.18.675,LearnStrategy,2023.2.3,Win32,15.01501502,7,1,7,-0.538888896,0.3787037,1,0,0,6.049,Andesite_14,1,14,6,1,6.049,-0.37037037,-0.252777806,1,0,0,3.7114,Andesite_rect,1,3.711,1,6,0,6,0,1,,,,,,,,,,,,,
632a385defc440ca225a32b4,SCN,2024-06-21_18h32.18.675,LearnStrategy,2023.2.3,Win32,15.01501502,7,1,8,-0.377777771,0.231481481,1,0,0,2.631,Andesite_06,1,06,5,2,2.631,-0.390740748,-0.242592635,1,0,0,1.3367,Andesite_rect,1,1.337,1,7,0,7,0,1,,,,,,,,,,,,,
632a385defc440ca225a32b4,SCN,2024-06-21_18h32.18.675,LearnStrategy,2023.2.3,Win32,15.01501502,7,1,9,-0.578703704,-0.112963005,1,0,0,1.3125,Pumice_08,8,08,3,1,1.313,0.414814843,-0.416666667,1,0,0,1.1617,Pumice_rect,8,1.162,1,8,0,8,0,1,,,,,,,,,,,,,
632a385defc440ca225a32b4,SCN,2024-06-21_18h32.18.675,LearnStrategy,2023.2.3,Win32,15.01501502,7,1,10,0.038888931,0.226851852,1,0,0,2.4166,Gabbro_12,4,12,5,5,2.417,-0.094444416,-0.256481524,1,0,0,4.2138,Basalt_rect,2,4.214,0,9,0,9,0,1,,,,,,,,,,,,,
632a385defc440ca225a32b4,SCN,2024-06-21_18h32.18.675,LearnStrategy,2023.2.3,Win32,15.01501502,7,1,11,-0.23055557,-0.262962977,1,0,0,3.7529,Basalt_09,2,09,2,3,3.753,0.401851937,-0.25462963,1,0,0,2.2173,Gabbro_rect,4,2.217,0,10,0,10,0,1,,,,,,,,,,,,,
632a385defc440ca225a32b4,SCN,2024-06-21_18h32.18.675,LearnStrategy,2023.2.3,Win32,15.01501502,7,1,12,-0.539814808,-0.276851866,1,0,0,2.6259,Pegmatite_15,6,15,2,1,2.626,-0.091666681,-0.39444443,1,0,0,1.0457,Pegmatite_rect,6,1.046,1,11,0,11,0,1,,,,,,,,,,,,,
632a385defc440ca225a32b4,SCN,2024-06-21_18h32.18.675,LearnStrategy,2023.2.3,Win32,15.01501502,7,1,13,-0.369444423,-0.281481496,1,0,0,5.0639,Pegmatite_07,6,07,2,2,5.064,-0.393518519,-0.262962977,1,0,0,0.2386,Andesite_rect,1,0.239,0,12,0,12,0,1,,,,,,,,,,,,,
632a385defc440ca225a32b4,SCN,2024-06-21_18h32.18.675,LearnStrategy,2023.2.3,Win32,15.01501502,7,1,14,-0.078703704,-0.101851852,1,0,0,2.3348,Obsidian_14,5,14,3,4,2.335,-0.384259259,-0.420370384,1,0,0,1.1354,Obsidian_rect,5,1.135,1,13,0,13,0,1,,,,,,,,,,,,,
632a385defc440ca225a32b4,SCN,2024-06-21_18h32.18.675,LearnStrategy,2023.2.3,Win32,15.01501502,7,1,15,-0.085185157,-0.422222208,1,0,0,2.3304,Peridotite_04,7,04,1,4,2.33,0.119444459,-0.381481524,1,0,0,3.1524,Peridotite_rect,7,3.152,1,14,0,14,0,1,,,,,,,,,,,,,
632a385defc440ca225a32b4,SCN,2024-06-21_18h32.18.675,LearnStrategy,2023.2.3,Win32,15.01501502,7,1,16,-0.384259259,-0.400000042,1,0,0,1.4308,Basalt_16,2,16,1,2,1.431,-0.375925912,-0.381481524,1,0,0,0.2149,Obsidian_rect,5,0.215,0,15,0,15,0,1,,,,,,,,,,,,,
632a385defc440ca225a32b4,SCN,2024-06-21_18h32.18.675,LearnStrategy,2023.2.3,Win32,15.01501502,7,2,1,,,,,,,,3,16,,,,,,,,,,,3,1.493,1,,,,,,0.146296325,-0.243518547,1,0,0,1.4928,Diorite_rect,0,0,0,0,1,
632a385defc440ca225a32b4,SCN,2024-06-21_18h32.18.675,LearnStrategy,2023.2.3,Win32,15.01501502,7,2,2,,,,,,,,7,10,,,,,,,,,,,7,1.521,1,,,,,,0.095370399,-0.40370369,1,0,0,1.5213,Peridotite_rect,1,0,1,0,1,
632a385defc440ca225a32b4,SCN,2024-06-21_18h32.18.675,LearnStrategy,2023.2.3,Win32,15.01501502,7,2,3,,,,,,,,2,12,,,,,,,,,,,2,3.253,1,,,,,,-0.080555527,-0.234259288,1,0,0,3.2533,Basalt_rect,2,0,2,0,1,
632a385defc440ca225a32b4,SCN,2024-06-21_18h32.18.675,LearnStrategy,2023.2.3,Win32,15.01501502,7,2,4,,,,,,,,6,06,,,,,,,,,,,6,3.624,1,,,,,,-0.082407422,-0.408333319,1,0,0,3.6243,Pegmatite_rect,3,0,3,0,1,
632a385defc440ca225a32b4,SCN,2024-06-21_18h32.18.675,LearnStrategy,2023.2.3,Win32,15.01501502,7,2,5,,,,,,,,1,03,,,,,,,,,,,1,2.225,1,,,,,,-0.356481481,-0.233333376,1,0,0,2.225,Andesite_rect,4,0,4,0,1,
632a385defc440ca225a32b4,SCN,2024-06-21_18h32.18.675,LearnStrategy,2023.2.3,Win32,15.01501502,7,2,6,,,,,,,,1,10,,,,,,,,,,,1,2.353,1,,,,,,-0.335185192,-0.24537037,1,0,0,2.3532,Andesite_rect,5,0,5,0,1,
632a385defc440ca225a32b4,SCN,2024-06-21_18h32.18.675,LearnStrategy,2023.2.3,Win32,15.01501502,7,2,7,,,,,,,,5,10,,,,,,,,,,,5,2.354,1,,,,,,-0.359259252,-0.414814843,1,0,0,2.3537,Obsidian_rect,6,0,6,0,1,
632a385defc440ca225a32b4,SCN,2024-06-21_18h32.18.675,LearnStrategy,2023.2.3,Win32,15.01501502,7,2,8,,,,,,,,6,12,,,,,,,,,,,6,6.077,1,,,,,,-0.103703675,-0.415740755,1,0,0,6.0768,Pegmatite_rect,7,0,7,0,1,
632a385defc440ca225a32b4,SCN,2024-06-21_18h32.18.675,LearnStrategy,2023.2.3,Win32,15.01501502,7,2,9,,,,,,,,8,15,,,,,,,,,,,8,3.327,1,,,,,,0.340740769,-0.416666667,1,0,0,3.3267,Pumice_rect,8,0,8,0,1,
632a385defc440ca225a32b4,SCN,2024-06-21_18h32.18.675,LearnStrategy,2023.2.3,Win32,15.01501502,7,2,10,,,,,,,,5,11,,,,,,,,,,,5,1.739,1,,,,,,-0.343518504,-0.400000042,1,0,0,1.739,Obsidian_rect,9,0,9,0,1,
632a385defc440ca225a32b4,SCN,2024-06-21_18h32.18.675,LearnStrategy,2023.2.3,Win32,15.01501502,7,2,11,,,,,,,,4,03,,,,,,,,,,,3,5.049,0,,,,,,0.155555584,-0.261111153,1,0,0,5.0488,Diorite_rect,10,0,10,0,1,
632a385defc440ca225a32b4,SCN,2024-06-21_18h32.18.675,LearnStrategy,2023.2.3,Win32,15.01501502,7,2,12,,,,,,,,7,14,,,,,,,,,,,6,1.645,0,,,,,,-0.082407422,-0.381481524,1,0,0,1.6452,Pegmatite_rect,11,0,11,0,1,
632a385defc440ca225a32b4,SCN,2024-06-21_18h32.18.675,LearnStrategy,2023.2.3,Win32,15.01501502,7,2,13,,,,,,,,8,03,,,,,,,,,,,8,1.396,1,,,,,,0.367592564,-0.390740783,1,0,0,1.3964,Pumice_rect,12,0,12,0,1,
632a385defc440ca225a32b4,SCN,2024-06-21_18h32.18.675,LearnStrategy,2023.2.3,Win32,15.01501502,7,2,14,,,,,,,,3,06,,,,,,,,,,,3,2.808,1,,,,,,0.15370369,-0.256481524,1,0,0,2.8076,Diorite_rect,13,0,13,0,1,
632a385defc440ca225a32b4,SCN,2024-06-21_18h32.18.675,LearnStrategy,2023.2.3,Win32,15.01501502,7,2,15,,,,,,,,2,14,,,,,,,,,,,1,3.382,0,,,,,,-0.344444452,-0.249074088,1,0,0,3.3822,Andesite_rect,14,0,14,0,1,
632a385defc440ca225a32b4,SCN,2024-06-21_18h32.18.675,LearnStrategy,2023.2.3,Win32,15.01501502,7,2,16,,,,,,,,4,11,,,,,,,,,,,2,1.616,0,,,,,,-0.076851809,-0.247222265,1,0,0,1.6158,Basalt_rect,15,0,15,0,1,
632a385defc440ca225a32b4,SCN,2024-06-21_18h32.18.675,LearnStrategy,2023.2.3,Win32,15.01501502,8,1,1,0.412963019,0.402777778,1,0,0,1.608,Obsidian_02,5,02,6,7,1.608,0.045370384,-0.255555541,1,0,0,1.7675,Diorite_rect,3,1.767,0,0,0,0,0,1,,,,,,,,,,,,,
632a385defc440ca225a32b4,SCN,2024-06-21_18h32.18.675,LearnStrategy,2023.2.3,Win32,15.01501502,8,1,2,0.380555612,0.364814811,1,0,0,0.745,Obsidian_02,5,02,6,7,0.745,-0.363888882,-0.404629672,1,0,0,1.673,Obsidian_rect,5,1.673,1,1,0,1,0,1,,,,,,,,,,,,,
632a385defc440ca225a32b4,SCN,2024-06-21_18h32.18.675,LearnStrategy,2023.2.3,Win32,15.01501502,8,1,3,0.244444459,0.2537037,1,0,0,2.4501,Obsidian_06,5,06,5,6,2.45,-0.318518497,-0.402777778,1,0,0,2.7143,Obsidian_rect,5,2.714,1,2,0,2,0,1,,,,,,,,,,,,,
632a385defc440ca225a32b4,SCN,2024-06-21_18h32.18.675,LearnStrategy,2023.2.3,Win32,15.01501502,8,1,4,-0.065740727,-0.098148134,1,0,0,2.6386,Obsidian_14,5,14,3,4,2.639,-0.324999986,-0.39907406,1,0,0,2.0883,Obsidian_rect,5,2.088,1,3,0,3,0,1,,,,,,,,,,,,,
632a385defc440ca225a32b4,SCN,2024-06-21_18h32.18.675,LearnStrategy,2023.2.3,Win32,15.01501502,8,1,5,0.087037051,-0.086111104,1,0,0,2.0588,Obsidian_09,5,09,3,5,2.059,-0.324074074,-0.386111153,1,0,0,1.3954,Obsidian_rect,5,1.395,1,4,0,4,0,1,,,,,,,,,,,,,
632a385defc440ca225a32b4,SCN,2024-06-21_18h32.18.675,LearnStrategy,2023.2.3,Win32,15.01501502,8,1,6,0.544444473,-0.417592578,1,0,0,1.6239,Basalt_08,2,08,1,8,1.624,-0.112962935,-0.267592607,1,0,0,2.8345,Basalt_rect,2,2.834,1,5,0,5,0,1,,,,,,,,,,,,,
632a385defc440ca225a32b4,SCN,2024-06-21_18h32.18.675,LearnStrategy,2023.2.3,Win32,15.01501502,8,1,7,0.556481538,0.26574073,1,0,0,0.9129,Pumice_06,8,06,5,8,0.913,0.366666723,-0.418518561,1,0,0,0.9335,Pumice_rect,8,0.934,1,6,0,6,0,1,,,,,,,,,,,,,
632a385defc440ca225a32b4,SCN,2024-06-21_18h32.18.675,LearnStrategy,2023.2.3,Win32,15.01501502,8,1,8,0.57222225,0.390740739,1,0,0,0.9116,Pumice_14,8,14,6,8,0.912,-0.087037051,-0.243518547,1,0,0,1.0484,Basalt_rect,2,1.048,0,7,0,7,0,1,,,,,,,,,,,,,
632a385defc440ca225a32b4,SCN,2024-06-21_18h32.18.675,LearnStrategy,2023.2.3,Win32,15.01501502,8,1,9,0.579629686,0.415740737,1,0,0,0.8103,Pumice_14,8,14,6,8,0.81,0.308333362,-0.414814843,1,0,0,4.2297,Pumice_rect,8,4.23,1,8,0,8,0,1,,,,,,,,,,,,,
632a385defc440ca225a32b4,SCN,2024-06-21_18h32.18.675,LearnStrategy,2023.2.3,Win32,15.01501502,8,1,10,0.084259245,0.224999993,1,0,0,5.1386,Gabbro_12,4,12,5,5,5.139,-0.137962977,-0.240740741,1,0,0,2.8883,Basalt_rect,2,2.888,0,9,0,9,0,1,,,,,,,,,,,,,
632a385defc440ca225a32b4,SCN,2024-06-21_18h32.18.675,LearnStrategy,2023.2.3,Win32,15.01501502,8,1,11,0.12962963,0.256481471,1,0,0,0.7049,Gabbro_12,4,12,5,5,0.705,0.380555612,-0.24537037,1,0,0,1.4345,Gabbro_rect,4,1.435,1,10,0,10,0,1,,,,,,,,,,,,,
632a385defc440ca225a32b4,SCN,2024-06-21_18h32.18.675,LearnStrategy,2023.2.3,Win32,15.01501502,8,1,12,0.250925912,-0.222222222,1,0,0,5.0223,Diorite_13,3,13,2,6,5.022,-0.113888847,-0.258333347,1,0,0,3.3537,Basalt_rect,2,3.354,0,11,0,11,0,1,,,,,,,,,,,,,
632a385defc440ca225a32b4,SCN,2024-06-21_18h32.18.675,LearnStrategy,2023.2.3,Win32,15.01501502,8,1,13,0.216666681,-0.248148176,1,0,0,1.0234,Diorite_13,3,13,2,6,1.023,0.145370413,-0.261111153,1,0,0,1.2591,Diorite_rect,3,1.259,1,12,0,12,0,1,,,,,,,,,,,,,
632a385defc440ca225a32b4,SCN,2024-06-21_18h32.18.675,LearnStrategy,2023.2.3,Win32,15.01501502,8,1,14,0.539814843,0.204629633,1,0,0,2.3531,Pumice_06,8,06,5,8,2.353,0.333333333,-0.417592578,1,0,0,5.9585,Pumice_rect,8,5.958,1,13,0,13,0,1,,,,,,,,,,,,,
632a385defc440ca225a32b4,SCN,2024-06-21_18h32.18.675,LearnStrategy,2023.2.3,Win32,15.01501502,8,1,15,0.391666695,0.12037037,1,0,0,1.7461,Diorite_02,3,02,4,7,1.746,0.109259288,-0.240740741,1,0,0,1.9399,Diorite_rect,3,1.94,1,14,0,14,0,1,,,,,,,,,,,,,
632a385defc440ca225a32b4,SCN,2024-06-21_18h32.18.675,LearnStrategy,2023.2.3,Win32,15.01501502,8,1,16,-0.228703675,-0.127777806,1,0,0,1.4199,Pegmatite_11,6,11,3,3,1.42,0.053703732,-0.401851866,1,0,0,1.2446,Peridotite_rect,7,1.245,0,15,0,15,0,1,,,,,,,,,,,,,
632a385defc440ca225a32b4,SCN,2024-06-21_18h32.18.675,LearnStrategy,2023.2.3,Win32,15.01501502,8,2,1,,,,,,,,6,08,,,,,,,,,,,6,8.539,1,,,,,,-0.149999972,-0.402777778,1,0,0,8.539,Pegmatite_rect,0,0,0,0,1,
632a385defc440ca225a32b4,SCN,2024-06-21_18h32.18.675,LearnStrategy,2023.2.3,Win32,15.01501502,8,2,2,,,,,,,,7,13,,,,,,,,,,,7,1.381,1,,,,,,0.170370384,-0.386111153,1,0,0,1.381,Peridotite_rect,1,0,1,0,1,
632a385defc440ca225a32b4,SCN,2024-06-21_18h32.18.675,LearnStrategy,2023.2.3,Win32,15.01501502,8,2,3,,,,,,,,1,16,,,,,,,,,,,3,1.9,0,,,,,,0.087037051,-0.25462963,1,0,0,1.8995,Diorite_rect,2,0,2,0,1,
632a385defc440ca225a32b4,SCN,2024-06-21_18h32.18.675,LearnStrategy,2023.2.3,Win32,15.01501502,8,2,4,,,,,,,,7,16,,,,,,,,,,,2,2.629,0,,,,,,-0.110185199,-0.237963005,1,0,0,2.6286,Basalt_rect,3,0,3,0,1,
632a385defc440ca225a32b4,SCN,2024-06-21_18h32.18.675,LearnStrategy,2023.2.3,Win32,15.01501502,8,2,5,,,,,,,,8,02,,,,,,,,,,,8,1.481,1,,,,,,0.358333305,-0.39907406,1,0,0,1.4815,Pumice_rect,4,0,4,0,1,
632a385defc440ca225a32b4,SCN,2024-06-21_18h32.18.675,LearnStrategy,2023.2.3,Win32,15.01501502,8,2,6,,,,,,,,8,05,,,,,,,,,,,8,1.05,1,,,,,,0.361111111,-0.405555584,1,0,0,1.0495,Pumice_rect,5,0,5,0,1,
632a385defc440ca225a32b4,SCN,2024-06-21_18h32.18.675,LearnStrategy,2023.2.3,Win32,15.01501502,8,2,7,,,,,,,,5,05,,,,,,,,,,,5,6.191,1,,,,,,-0.369444423,-0.388888889,1,0,0,6.1915,Obsidian_rect,6,0,6,0,1,
632a385defc440ca225a32b4,SCN,2024-06-21_18h32.18.675,LearnStrategy,2023.2.3,Win32,15.01501502,8,2,8,,,,,,,,3,09,,,,,,,,,,,3,1.321,1,,,,,,0.079629616,-0.241666653,1,0,0,1.3212,Diorite_rect,7,0,7,0,1,
632a385defc440ca225a32b4,SCN,2024-06-21_18h32.18.675,LearnStrategy,2023.2.3,Win32,15.01501502,8,2,9,,,,,,,,5,04,,,,,,,,,,,5,2.318,1,,,,,,-0.361111111,-0.386111153,1,0,0,2.3183,Obsidian_rect,8,0,8,0,1,
632a385defc440ca225a32b4,SCN,2024-06-21_18h32.18.675,LearnStrategy,2023.2.3,Win32,15.01501502,8,2,10,,,,,,,,6,05,,,,,,,,,,,5,1.588,0,,,,,,-0.355555534,-0.397222236,1,0,0,1.588,Obsidian_rect,9,0,9,0,1,
632a385defc440ca225a32b4,SCN,2024-06-21_18h32.18.675,LearnStrategy,2023.2.3,Win32,15.01501502,8,2,11,,,,,,,,4,14,,,,,,,,,,,1,2.311,0,,,,,,-0.337037016,-0.229629658,1,0,0,2.3113,Andesite_rect,10,0,10,0,1,
632a385defc440ca225a32b4,SCN,2024-06-21_18h32.18.675,LearnStrategy,2023.2.3,Win32,15.01501502,8,2,12,,,,,,,,2,11,,,,,,,,,,,2,1.516,1,,,,,,-0.115740741,-0.247222265,1,0,0,1.5162,Basalt_rect,11,0,11,0,1,
632a385defc440ca225a32b4,SCN,2024-06-21_18h32.18.675,LearnStrategy,2023.2.3,Win32,15.01501502,8,2,13,,,,,,,,3,11,,,,,,,,,,,3,1.59,1,,,,,,0.124074088,-0.25462963,1,0,0,1.5903,Diorite_rect,12,0,12,0,1,
632a385defc440ca225a32b4,SCN,2024-06-21_18h32.18.675,LearnStrategy,2023.2.3,Win32,15.01501502,8,2,14,,,,,,,,1,01,,,,,,,,,,,3,1.072,0,,,,,,0.125,-0.241666653,1,0,0,1.0723,Diorite_rect,13,0,13,0,1,
632a385defc440ca225a32b4,SCN,2024-06-21_18h32.18.675,LearnStrategy,2023.2.3,Win32,15.01501502,8,2,15,,,,,,,,2,02,,,,,,,,,,,4,2.132,0,,,,,,0.421296296,-0.262037065,1,0,0,2.132,Gabbro_rect,14,0,14,0,1,
632a385defc440ca225a32b4,SCN,2024-06-21_18h32.18.675,LearnStrategy,2023.2.3,Win32,15.01501502,8,2,16,,,,,,,,4,13,,,,,,,,,,,1,2.634,0,,,,,,-0.344444452,-0.238888917,1,0,0,2.6337,Andesite_rect,15,0,15,0,1,
632a385defc440ca225a32b4,SCN,2024-06-21_18h32.18.675,LearnStrategy,2023.2.3,Win32,15.01501502,9,1,1,0.235185199,0.087962963,1,0,0,0.9101,Gabbro_16,4,16,4,6,0.91,-0.169444402,-0.259259259,1,0,0,1.6781,Basalt_rect,2,1.678,0,0,0,0,0,1,,,,,,,,,,,,,
632a385defc440ca225a32b4,SCN,2024-06-21_18h32.18.675,LearnStrategy,2023.2.3,Win32,15.01501502,9,1,2,0.079629616,-0.095370399,1,0,0,1.5166,Obsidian_09,5,09,3,5,1.517,-0.345370363,-0.397222236,1,0,0,1.7347,Obsidian_rect,5,1.735,1,1,0,1,0,1,,,,,,,,,,,,,
632a385defc440ca225a32b4,SCN,2024-06-21_18h32.18.675,LearnStrategy,2023.2.3,Win32,15.01501502,9,1,3,0.542592649,0.231481481,1,0,0,3.6685,Pumice_06,8,06,5,8,3.669,0.344444416,-0.400000042,1,0,0,3.1112,Pumice_rect,8,3.111,1,2,0,2,0,1,,,,,,,,,,,,,
632a385defc440ca225a32b4,SCN,2024-06-21_18h32.18.675,LearnStrategy,2023.2.3,Win32,15.01501502,9,1,4,0.557407379,0.37962963,1,0,0,1.3048,Pumice_14,8,14,6,8,1.305,0.388888889,-0.407407407,1,0,0,1.4806,Pumice_rect,8,1.481,1,3,0,3,0,1,,,,,,,,,,,,,
632a385defc440ca225a32b4,SCN,2024-06-21_18h32.18.675,LearnStrategy,2023.2.3,Win32,15.01501502,9,1,5,0.546296296,0.371296291,1,0,0,3.2467,Pumice_14,8,14,6,8,3.247,0.3648149,-0.384259259,1,0,0,1.3511,Pumice_rect,8,1.351,1,4,0,4,0,1,,,,,,,,,,,,,
632a385defc440ca225a32b4,SCN,2024-06-21_18h32.18.675,LearnStrategy,2023.2.3,Win32,15.01501502,9,1,6,0.399999972,0.095370363,1,0,0,2.3126,Diorite_02,3,02,4,7,2.313,0.126851894,-0.261111153,1,0,0,0.8599,Diorite_rect,3,0.86,1,5,0,5,0,1,,,,,,,,,,,,,
632a385defc440ca225a32b4,SCN,2024-06-21_18h32.18.675,LearnStrategy,2023.2.3,Win32,15.01501502,9,1,7,-0.07222218,-0.112963005,1,0,0,1.0197,Obsidian_14,5,14,3,4,1.02,-0.373148141,-0.383333347,1,0,0,2.9325,Obsidian_rect,5,2.932,1,6,0,6,0,1,,,,,,,,,,,,,
632a385defc440ca225a32b4,SCN,2024-06-21_18h32.18.675,LearnStrategy,2023.2.3,Win32,15.01501502,9,1,8,0.073148162,-0.075925933,1,0,0,1.011,Obsidian_09,5,09,3,5,1.011,-0.337037016,-0.395370413,1,0,0,0.9916,Obsidian_rect,5,0.992,1,7,0,7,0,1,,,,,,,,,,,,,
632a385defc440ca225a32b4,SCN,2024-06-21_18h32.18.675,LearnStrategy,2023.2.3,Win32,15.01501502,9,1,9,0.410185213,0.396296298,1,0,0,2.5567,Obsidian_02,5,02,6,7,2.557,-0.410185178,-0.421296296,1,0,0,1.0482,Obsidian_rect,5,1.048,1,8,0,8,0,1,,,,,,,,,,,,,
632a385defc440ca225a32b4,SCN,2024-06-21_18h32.18.675,LearnStrategy,2023.2.3,Win32,15.01501502,9,1,10,-0.220370328,-0.107407393,1,0,0,0.8105,Pegmatite_11,6,11,3,3,0.811,0.100000028,-0.405555584,1,0,0,0.9366,Peridotite_rect,7,0.937,0,9,0,9,0,1,,,,,,,,,,,,,
632a385defc440ca225a32b4,SCN,2024-06-21_18h32.18.675,LearnStrategy,2023.2.3,Win32,15.01501502,9,1,11,-0.23055557,-0.093518504,1,0,0,2.9832,Pegmatite_11,6,11,3,3,2.983,-0.088888875,-0.411111125,1,0,0,0.9636,Pegmatite_rect,6,0.964,1,10,0,10,0,1,,,,,,,,,,,,,
632a385defc440ca225a32b4,SCN,2024-06-21_18h32.18.675,LearnStrategy,2023.2.3,Win32,15.01501502,9,1,12,-0.065740727,0.080555563,1,0,0,0.7121,Pegmatite_16,6,16,4,4,0.712,-0.108333305,-0.409259302,1,0,0,0.7444,Pegmatite_rect,6,0.744,1,11,0,11,0,1,,,,,,,,,,,,,
632a385defc440ca225a32b4,SCN,2024-06-21_18h32.18.675,LearnStrategy,2023.2.3,Win32,15.01501502,9,1,13,-0.378703683,-0.246296282,1,0,0,2.2186,Pegmatite_07,6,07,2,2,2.219,-0.3824074,-0.259259259,1,0,0,0.2115,Andesite_rect,1,0.211,0,12,0,12,0,1,,,,,,,,,,,,,
632a385defc440ca225a32b4,SCN,2024-06-21_18h32.18.675,LearnStrategy,2023.2.3,Win32,15.01501502,9,1,14,-0.39444443,-0.262962977,1,0,0,1.3077,Pegmatite_07,6,07,2,2,1.308,-0.113888847,-0.407407407,1,0,0,1.274,Pegmatite_rect,6,1.274,1,13,0,13,0,1,,,,,,,,,,,,,
632a385defc440ca225a32b4,SCN,2024-06-21_18h32.18.675,LearnStrategy,2023.2.3,Win32,15.01501502,9,1,15,-0.539814808,-0.135185171,1,0,0,4.3961,Pumice_08,8,08,3,1,4.396,0.432407379,-0.407407407,1,0,0,2.7925,Pumice_rect,8,2.792,1,14,0,14,0,1,,,,,,,,,,,,,
632a385defc440ca225a32b4,SCN,2024-06-21_18h32.18.675,LearnStrategy,2023.2.3,Win32,15.01501502,9,1,16,-0.41111109,-0.400925954,1,0,0,7.6904,Basalt_16,2,16,1,2,7.69,-0.360185164,-0.252777806,1,0,0,2.2201,Andesite_rect,1,2.22,0,15,0,15,0,1,,,,,,,,,,,,,
632a385defc440ca225a32b4,SCN,2024-06-21_18h32.18.675,LearnStrategy,2023.2.3,Win32,15.01501502,9,2,1,,,,,,,,1,07,,,,,,,,,,,3,3.469,0,,,,,,0.148148148,-0.25462963,1,0,0,3.4687,Diorite_rect,0,0,0,0,1,
632a385defc440ca225a32b4,SCN,2024-06-21_18h32.18.675,LearnStrategy,2023.2.3,Win32,15.01501502,9,2,2,,,,,,,,3,15,,,,,,,,,,,7,1.405,0,,,,,,0.106481481,-0.400000042,1,0,0,1.4054,Peridotite_rect,1,0,1,0,1,
632a385defc440ca225a32b4,SCN,2024-06-21_18h32.18.675,LearnStrategy,2023.2.3,Win32,15.01501502,9,2,3,,,,,,,,3,08,,,,,,,,,,,3,1.081,1,,,,,,0.155555584,-0.237037023,1,0,0,1.081,Diorite_rect,2,0,2,0,1,
632a385defc440ca225a32b4,SCN,2024-06-21_18h32.18.675,LearnStrategy,2023.2.3,Win32,15.01501502,9,2,4,,,,,,,,6,10,,,,,,,,,,,6,2.583,1,,,,,,-0.090740698,-0.409259302,1,0,0,2.5833,Pegmatite_rect,3,0,3,0,1,
632a385defc440ca225a32b4,SCN,2024-06-21_18h32.18.675,LearnStrategy,2023.2.3,Win32,15.01501502,9,2,5,,,,,,,,7,07,,,,,,,,,,,7,1.341,1,,,,,,0.07222225,-0.404629672,1,0,0,1.3413,Peridotite_rect,4,0,4,0,1,
632a385defc440ca225a32b4,SCN,2024-06-21_18h32.18.675,LearnStrategy,2023.2.3,Win32,15.01501502,9,2,6,,,,,,,,8,16,,,,,,,,,,,8,2.034,1,,,,,,0.375,-0.39444443,1,0,0,2.0338,Pumice_rect,5,0,5,0,1,
632a385defc440ca225a32b4,SCN,2024-06-21_18h32.18.675,LearnStrategy,2023.2.3,Win32,15.01501502,9,2,7,,,,,,,,8,04,,,,,,,,,,,8,0.843,1,,,,,,0.320370427,-0.397222236,1,0,0,0.8431,Pumice_rect,6,0,6,0,1,
632a385defc440ca225a32b4,SCN,2024-06-21_18h32.18.675,LearnStrategy,2023.2.3,Win32,15.01501502,9,2,8,,,,,,,,2,10,,,,,,,,,,,2,1.409,1,,,,,,-0.127777735,-0.247222265,1,0,0,1.4095,Basalt_rect,7,0,7,0,1,
632a385defc440ca225a32b4,SCN,2024-06-21_18h32.18.675,LearnStrategy,2023.2.3,Win32,15.01501502,9,2,9,,,,,,,,5,16,,,,,,,,,,,5,1.896,1,,,,,,-0.349999993,-0.417592578,1,0,0,1.896,Obsidian_rect,8,0,8,0,1,
632a385defc440ca225a32b4,SCN,2024-06-21_18h32.18.675,LearnStrategy,2023.2.3,Win32,15.01501502,9,2,10,,,,,,,,7,06,,,,,,,,,,,7,1.468,1,,,,,,0.106481481,-0.40370369,1,0,0,1.4681,Peridotite_rect,9,0,9,0,1,
632a385defc440ca225a32b4,SCN,2024-06-21_18h32.18.675,LearnStrategy,2023.2.3,Win32,15.01501502,9,2,11,,,,,,,,4,01,,,,,,,,,,,6,1.519,0,,,,,,-0.142592607,-0.409259302,1,0,0,1.5185,Pegmatite_rect,10,0,10,0,1,
632a385defc440ca225a32b4,SCN,2024-06-21_18h32.18.675,LearnStrategy,2023.2.3,Win32,15.01501502,9,2,12,,,,,,,,1,04,,,,,,,,,,,3,1.076,0,,,,,,0.134259259,-0.25462963,1,0,0,1.076,Diorite_rect,11,0,11,0,1,
632a385defc440ca225a32b4,SCN,2024-06-21_18h32.18.675,LearnStrategy,2023.2.3,Win32,15.01501502,9,2,13,,,,,,,,4,09,,,,,,,,,,,3,1.351,0,,,,,,0.119444459,-0.240740741,1,0,0,1.351,Diorite_rect,12,0,12,0,1,
632a385defc440ca225a32b4,SCN,2024-06-21_18h32.18.675,LearnStrategy,2023.2.3,Win32,15.01501502,9,2,14,,,,,,,,6,13,,,,,,,,,,,6,2.41,1,,,,,,-0.090740698,-0.405555584,1,0,0,2.4105,Pegmatite_rect,13,0,13,0,1,
632a385defc440ca225a32b4,SCN,2024-06-21_18h32.18.675,LearnStrategy,2023.2.3,Win32,15.01501502,9,2,15,,,,,,,,2,01,,,,,,,,,,,2,1.468,1,,,,,,-0.081481439,-0.237037023,1,0,0,1.4684,Basalt_rect,14,0,14,0,1,
632a385defc440ca225a32b4,SCN,2024-06-21_18h32.18.675,LearnStrategy,2023.2.3,Win32,15.01501502,9,2,16,,,,,,,,5,12,,,,,,,,,,,5,1.609,1,,,,,,-0.331481474,-0.390740783,1,0,0,1.609,Obsidian_rect,15,0,15,0,1,
632a385defc440ca225a32b4,SCN,2024-06-21_18h32.18.675,LearnStrategy,2023.2.3,Win32,15.01501502,,,,,,,,,,,,,,,,,,,,,,,,,,,,,,,,,,,,,,,,,,,1
632a385defc440ca225a32b4,SCN,2024-06-21_18h32.18.675,LearnStrategy,2023.2.3,Win32,15.01501502,,,,,,,,,,,,,,,,,,,,,,,,,,,,,,,,,,,,,,,,,,,
632a385defc440ca225a32b4,SCN,2024-06-21_18h32.18.675,LearnStrategy,2023.2.3,Win32,15.01501502,,,,,,,,,,,4,05,1,1,,,,,,,,,,,,,,,,,,,,,,,,,,,,,
632a385defc440ca225a32b4,SCN,2024-06-21_18h32.18.675,LearnStrategy,2023.2.3,Win32,15.01501502,,,,,,,,,,,2,16,1,2,,,,,,,,,,,,,,,,,,,,,,,,,,,,,
632a385defc440ca225a32b4,SCN,2024-06-21_18h32.18.675,LearnStrategy,2023.2.3,Win32,15.01501502,,,,,,,,,,,2,06,1,3,,,,,,,,,,,,,,,,,,,,,,,,,,,,,
632a385defc440ca225a32b4,SCN,2024-06-21_18h32.18.675,LearnStrategy,2023.2.3,Win32,15.01501502,,,,,,,,,,,7,04,1,4,,,,,,,,,,,,,,,,,,,,,,,,,,,,,
632a385defc440ca225a32b4,SCN,2024-06-21_18h32.18.675,LearnStrategy,2023.2.3,Win32,15.01501502,,,,,,,,,,,8,09,1,5,,,,,,,,,,,,,,,,,,,,,,,,,,,,,
632a385defc440ca225a32b4,SCN,2024-06-21_18h32.18.675,LearnStrategy,2023.2.3,Win32,15.01501502,,,,,,,,,,,6,03,1,6,,,,,,,,,,,,,,,,,,,,,,,,,,,,,
632a385defc440ca225a32b4,SCN,2024-06-21_18h32.18.675,LearnStrategy,2023.2.3,Win32,15.01501502,,,,,,,,,,,5,07,1,7,,,,,,,,,,,,,,,,,,,,,,,,,,,,,
632a385defc440ca225a32b4,SCN,2024-06-21_18h32.18.675,LearnStrategy,2023.2.3,Win32,15.01501502,,,,,,,,,,,2,08,1,8,,,,,,,,,,,,,,,,,,,,,,,,,,,,,
632a385defc440ca225a32b4,SCN,2024-06-21_18h32.18.675,LearnStrategy,2023.2.3,Win32,15.01501502,,,,,,,,,,,6,15,2,1,,,,,,,,,,,,,,,,,,,,,,,,,,,,,
632a385defc440ca225a32b4,SCN,2024-06-21_18h32.18.675,LearnStrategy,2023.2.3,Win32,15.01501502,,,,,,,,,,,6,07,2,2,,,,,,,,,,,,,,,,,,,,,,,,,,,,,
632a385defc440ca225a32b4,SCN,2024-06-21_18h32.18.675,LearnStrategy,2023.2.3,Win32,15.01501502,,,,,,,,,,,2,09,2,3,,,,,,,,,,,,,,,,,,,,,,,,,,,,,
632a385defc440ca225a32b4,SCN,2024-06-21_18h32.18.675,LearnStrategy,2023.2.3,Win32,15.01501502,,,,,,,,,,,7,02,2,4,,,,,,,,,,,,,,,,,,,,,,,,,,,,,
632a385defc440ca225a32b4,SCN,2024-06-21_18h32.18.675,LearnStrategy,2023.2.3,Win32,15.01501502,,,,,,,,,,,6,09,2,5,,,,,,,,,,,,,,,,,,,,,,,,,,,,,
632a385defc440ca225a32b4,SCN,2024-06-21_18h32.18.675,LearnStrategy,2023.2.3,Win32,15.01501502,,,,,,,,,,,3,13,2,6,,,,,,,,,,,,,,,,,,,,,,,,,,,,,
632a385defc440ca225a32b4,SCN,2024-06-21_18h32.18.675,LearnStrategy,2023.2.3,Win32,15.01501502,,,,,,,,,,,1,05,2,7,,,,,,,,,,,,,,,,,,,,,,,,,,,,,
632a385defc440ca225a32b4,SCN,2024-06-21_18h32.18.675,LearnStrategy,2023.2.3,Win32,15.01501502,,,,,,,,,,,7,12,2,8,,,,,,,,,,,,,,,,,,,,,,,,,,,,,
632a385defc440ca225a32b4,SCN,2024-06-21_18h32.18.675,LearnStrategy,2023.2.3,Win32,15.01501502,,,,,,,,,,,8,08,3,1,,,,,,,,,,,,,,,,,,,,,,,,,,,,,
632a385defc440ca225a32b4,SCN,2024-06-21_18h32.18.675,LearnStrategy,2023.2.3,Win32,15.01501502,,,,,,,,,,,4,08,3,2,,,,,,,,,,,,,,,,,,,,,,,,,,,,,
632a385defc440ca225a32b4,SCN,2024-06-21_18h32.18.675,LearnStrategy,2023.2.3,Win32,15.01501502,,,,,,,,,,,6,11,3,3,,,,,,,,,,,,,,,,,,,,,,,,,,,,,
632a385defc440ca225a32b4,SCN,2024-06-21_18h32.18.675,LearnStrategy,2023.2.3,Win32,15.01501502,,,,,,,,,,,5,14,3,4,,,,,,,,,,,,,,,,,,,,,,,,,,,,,
632a385defc440ca225a32b4,SCN,2024-06-21_18h32.18.675,LearnStrategy,2023.2.3,Win32,15.01501502,,,,,,,,,,,5,09,3,5,,,,,,,,,,,,,,,,,,,,,,,,,,,,,
632a385defc440ca225a32b4,SCN,2024-06-21_18h32.18.675,LearnStrategy,2023.2.3,Win32,15.01501502,,,,,,,,,,,7,05,3,6,,,,,,,,,,,,,,,,,,,,,,,,,,,,,
632a385defc440ca225a32b4,SCN,2024-06-21_18h32.18.675,LearnStrategy,2023.2.3,Win32,15.01501502,,,,,,,,,,,7,08,3,7,,,,,,,,,,,,,,,,,,,,,,,,,,,,,
632a385defc440ca225a32b4,SCN,2024-06-21_18h32.18.675,LearnStrategy,2023.2.3,Win32,15.01501502,,,,,,,,,,,2,04,3,8,,,,,,,,,,,,,,,,,,,,,,,,,,,,,
632a385defc440ca225a32b4,SCN,2024-06-21_18h32.18.675,LearnStrategy,2023.2.3,Win32,15.01501502,,,,,,,,,,,3,14,4,1,,,,,,,,,,,,,,,,,,,,,,,,,,,,,
632a385defc440ca225a32b4,SCN,2024-06-21_18h32.18.675,LearnStrategy,2023.2.3,Win32,15.01501502,,,,,,,,,,,1,02,4,2,,,,,,,,,,,,,,,,,,,,,,,,,,,,,
632a385defc440ca225a32b4,SCN,2024-06-21_18h32.18.675,LearnStrategy,2023.2.3,Win32,15.01501502,,,,,,,,,,,3,12,4,3,,,,,,,,,,,,,,,,,,,,,,,,,,,,,
632a385defc440ca225a32b4,SCN,2024-06-21_18h32.18.675,LearnStrategy,2023.2.3,Win32,15.01501502,,,,,,,,,,,6,16,4,4,,,,,,,,,,,,,,,,,,,,,,,,,,,,,
632a385defc440ca225a32b4,SCN,2024-06-21_18h32.18.675,LearnStrategy,2023.2.3,Win32,15.01501502,,,,,,,,,,,1,11,4,5,,,,,,,,,,,,,,,,,,,,,,,,,,,,,
632a385defc440ca225a32b4,SCN,2024-06-21_18h32.18.675,LearnStrategy,2023.2.3,Win32,15.01501502,,,,,,,,,,,4,16,4,6,,,,,,,,,,,,,,,,,,,,,,,,,,,,,
632a385defc440ca225a32b4,SCN,2024-06-21_18h32.18.675,LearnStrategy,2023.2.3,Win32,15.01501502,,,,,,,,,,,3,02,4,7,,,,,,,,,,,,,,,,,,,,,,,,,,,,,
632a385defc440ca225a32b4,SCN,2024-06-21_18h32.18.675,LearnStrategy,2023.2.3,Win32,15.01501502,,,,,,,,,,,1,09,4,8,,,,,,,,,,,,,,,,,,,,,,,,,,,,,
632a385defc440ca225a32b4,SCN,2024-06-21_18h32.18.675,LearnStrategy,2023.2.3,Win32,15.01501502,,,,,,,,,,,3,10,5,1,,,,,,,,,,,,,,,,,,,,,,,,,,,,,
632a385defc440ca225a32b4,SCN,2024-06-21_18h32.18.675,LearnStrategy,2023.2.3,Win32,15.01501502,,,,,,,,,,,1,06,5,2,,,,,,,,,,,,,,,,,,,,,,,,,,,,,
632a385defc440ca225a32b4,SCN,2024-06-21_18h32.18.675,LearnStrategy,2023.2.3,Win32,15.01501502,,,,,,,,,,,7,15,5,3,,,,,,,,,,,,,,,,,,,,,,,,,,,,,
632a385defc440ca225a32b4,SCN,2024-06-21_18h32.18.675,LearnStrategy,2023.2.3,Win32,15.01501502,,,,,,,,,,,3,07,5,4,,,,,,,,,,,,,,,,,,,,,,,,,,,,,
632a385defc440ca225a32b4,SCN,2024-06-21_18h32.18.675,LearnStrategy,2023.2.3,Win32,15.01501502,,,,,,,,,,,4,12,5,5,,,,,,,,,,,,,,,,,,,,,,,,,,,,,
632a385defc440ca225a32b4,SCN,2024-06-21_18h32.18.675,LearnStrategy,2023.2.3,Win32,15.01501502,,,,,,,,,,,5,06,5,6,,,,,,,,,,,,,,,,,,,,,,,,,,,,,
632a385defc440ca225a32b4,SCN,2024-06-21_18h32.18.675,LearnStrategy,2023.2.3,Win32,15.01501502,,,,,,,,,,,8,13,5,7,,,,,,,,,,,,,,,,,,,,,,,,,,,,,
632a385defc440ca225a32b4,SCN,2024-06-21_18h32.18.675,LearnStrategy,2023.2.3,Win32,15.01501502,,,,,,,,,,,8,06,5,8,,,,,,,,,,,,,,,,,,,,,,,,,,,,,
632a385defc440ca225a32b4,SCN,2024-06-21_18h32.18.675,LearnStrategy,2023.2.3,Win32,15.01501502,,,,,,,,,,,1,14,6,1,,,,,,,,,,,,,,,,,,,,,,,,,,,,,
632a385defc440ca225a32b4,SCN,2024-06-21_18h32.18.675,LearnStrategy,2023.2.3,Win32,15.01501502,,,,,,,,,,,4,15,6,2,,,,,,,,,,,,,,,,,,,,,,,,,,,,,
632a385defc440ca225a32b4,SCN,2024-06-21_18h32.18.675,LearnStrategy,2023.2.3,Win32,15.01501502,,,,,,,,,,,5,08,6,3,,,,,,,,,,,,,,,,,,,,,,,,,,,,,
632a385defc440ca225a32b4,SCN,2024-06-21_18h32.18.675,LearnStrategy,2023.2.3,Win32,15.01501502,,,,,,,,,,,2,05,6,4,,,,,,,,,,,,,,,,,,,,,,,,,,,,,
632a385defc440ca225a32b4,SCN,2024-06-21_18h32.18.675,LearnStrategy,2023.2.3,Win32,15.01501502,,,,,,,,,,,4,10,6,5,,,,,,,,,,,,,,,,,,,,,,,,,,,,,
632a385defc440ca225a32b4,SCN,2024-06-21_18h32.18.675,LearnStrategy,2023.2.3,Win32,15.01501502,,,,,,,,,,,8,10,6,6,,,,,,,,,,,,,,,,,,,,,,,,,,,,,
632a385defc440ca225a32b4,SCN,2024-06-21_18h32.18.675,LearnStrategy,2023.2.3,Win32,15.01501502,,,,,,,,,,,5,02,6,7,,,,,,,,,,,,,,,,,,,,,,,,,,,,,
632a385defc440ca225a32b4,SCN,2024-06-21_18h32.18.675,LearnStrategy,2023.2.3,Win32,15.01501502,,,,,,,,,,,8,14,6,8,,,,,,,,,,,,,,,,,,,,,,,,,,,,,