participant,condition,date,expName,psychopyVersion,OS,frameRate,block,phase,trial,learn_mouse_2.x,learn_mouse_2.y,learn_mouse_2.leftButton,learn_mouse_2.midButton,learn_mouse_2.rightButton,learn_mouse_2.time,learn_mouse_2.clicked_name,cat,token,row,col,t_select,cat_mouse_l.x,cat_mouse_l.y,cat_mouse_l.leftButton,cat_mouse_l.midButton,cat_mouse_l.rightButton,cat_mouse_l.time,cat_mouse_l.clicked_name,resp,t_resp,corr,train_trials.thisRepN,train_trials.thisTrialN,train_trials.thisN,train_trials.thisIndex,train_trials.ran,cat_mouse_t.x,cat_mouse_t.y,cat_mouse_t.leftButton,cat_mouse_t.midButton,cat_mouse_t.rightButton,cat_mouse_t.time,cat_mouse_t.clicked_name,test_trials.thisRepN,test_trials.thisTrialN,test_trials.thisN,test_trials.thisIndex,test_trials.ran,Bonus
632c211dcdf6a137b26dfdce,TCR,2024-06-20_21h39.32.756,LearnStrategy,2023.2.3,Win32,59.52380952,,,,,,,,,,,,,,,,,,,,,,,,,,,,,,,,,,,,,,,,,,,
632c211dcdf6a137b26dfdce,TCR,2024-06-20_21h39.32.756,LearnStrategy,2023.2.3,Win32,59.52380952,1,1,1,0.047222208,0.014814801,1,0,0,1.8709,rock_grid_rect_2,3,07,-1,-1,1.871,0.152777778,-0.251851894,1,0,0,6.6589,Diorite_rect,3,6.659,1,0,0,0,0,1,,,,,,,,,,,,,
632c211dcdf6a137b26dfdce,TCR,2024-06-20_21h39.32.756,LearnStrategy,2023.2.3,Win32,59.52380952,1,1,2,0.14444443,-0.001851859,1,0,0,0.8357,rock_grid_rect_2,7,10,-1,-1,0.836,0.12962963,-0.391666695,1,0,0,1.0585,Peridotite_rect,7,1.059,1,1,0,1,0,1,,,,,,,,,,,,,
632c211dcdf6a137b26dfdce,TCR,2024-06-20_21h39.32.756,LearnStrategy,2023.2.3,Win32,59.52380952,1,1,3,0.103703746,-0.00462963,1,0,0,0.7624,rock_grid_rect_2,4,15,-1,-1,0.762,0.15370369,-0.261111153,1,0,0,2.4724,Diorite_rect,3,2.472,0,2,0,2,0,1,,,,,,,,,,,,,
632c211dcdf6a137b26dfdce,TCR,2024-06-20_21h39.32.756,LearnStrategy,2023.2.3,Win32,59.52380952,1,1,4,0.114814829,-0.006481489,1,0,0,0.7824,rock_grid_rect_2,2,16,-1,-1,0.782,-0.114814829,-0.244444459,1,0,0,2.6725,Basalt_rect,2,2.673,1,3,0,3,0,1,,,,,,,,,,,,,
632c211dcdf6a137b26dfdce,TCR,2024-06-20_21h39.32.756,LearnStrategy,2023.2.3,Win32,59.52380952,1,1,5,0.068518533,0.001851859,1,0,0,0.7695,rock_grid_rect_2,1,11,-1,-1,0.77,-0.378703683,-0.23055557,1,0,0,2.5274,Andesite_rect,1,2.527,1,4,0,4,0,1,,,,,,,,,,,,,
632c211dcdf6a137b26dfdce,TCR,2024-06-20_21h39.32.756,LearnStrategy,2023.2.3,Win32,59.52380952,1,1,6,0.088888875,0.002777771,1,0,0,0.7488,rock_grid_rect_2,8,13,-1,-1,0.749,0.367592564,-0.406481496,1,0,0,0.9889,Pumice_rect,8,0.989,1,5,0,5,0,1,,,,,,,,,,,,,
632c211dcdf6a137b26dfdce,TCR,2024-06-20_21h39.32.756,LearnStrategy,2023.2.3,Win32,59.52380952,1,1,7,0.059259273,0.00462963,1,0,0,0.734,rock_grid_rect_2,3,11,-1,-1,0.734,0.127777806,-0.387962977,1,0,0,1.774,Peridotite_rect,7,1.774,0,6,0,6,0,1,,,,,,,,,,,,,
632c211dcdf6a137b26dfdce,TCR,2024-06-20_21h39.32.756,LearnStrategy,2023.2.3,Win32,59.52380952,1,1,8,0.051851838,0.00462963,1,0,0,0.8487,rock_grid_rect_2,7,12,-1,-1,0.849,-0.079629616,-0.404629672,1,0,0,1.2532,Pegmatite_rect,6,1.253,0,7,0,7,0,1,,,,,,,,,,,,,
632c211dcdf6a137b26dfdce,TCR,2024-06-20_21h39.32.756,LearnStrategy,2023.2.3,Win32,59.52380952,1,1,9,0.084259245,0.00462963,1,0,0,0.7865,rock_grid_rect_2,8,10,-1,-1,0.786,0.41851849,-0.385185171,1,0,0,1.0363,Pumice_rect,8,1.036,1,8,0,8,0,1,,,,,,,,,,,,,
632c211dcdf6a137b26dfdce,TCR,2024-06-20_21h39.32.756,LearnStrategy,2023.2.3,Win32,59.52380952,1,1,10,0.079629616,-0.0074074,1,0,0,0.7854,rock_grid_rect_2,5,11,-1,-1,0.785,-0.348148134,-0.397222236,1,0,0,0.9966,Obsidian_rect,5,0.997,1,9,0,9,0,1,,,,,,,,,,,,,
632c211dcdf6a137b26dfdce,TCR,2024-06-20_21h39.32.756,LearnStrategy,2023.2.3,Win32,59.52380952,1,1,11,0.054629644,0.00462963,1,0,0,0.8336,rock_grid_rect_2,6,10,-1,-1,0.834,-0.119444459,-0.406481496,1,0,0,1.4203,Pegmatite_rect,6,1.42,1,10,0,10,0,1,,,,,,,,,,,,,
632c211dcdf6a137b26dfdce,TCR,2024-06-20_21h39.32.756,LearnStrategy,2023.2.3,Win32,59.52380952,1,1,12,0.045370384,0,1,0,0,0.7509,rock_grid_rect_2,1,03,-1,-1,0.751,-0.35833334,-0.250925912,1,0,0,3.4146,Andesite_rect,1,3.415,1,11,0,11,0,1,,,,,,,,,,,,,
632c211dcdf6a137b26dfdce,TCR,2024-06-20_21h39.32.756,LearnStrategy,2023.2.3,Win32,59.52380952,1,1,13,0.056481467,0.0074074,1,0,0,0.682,rock_grid_rect_2,2,11,-1,-1,0.682,0.382407436,-0.412962949,1,0,0,1.395,Pumice_rect,8,1.395,0,12,0,12,0,1,,,,,,,,,,,,,
632c211dcdf6a137b26dfdce,TCR,2024-06-20_21h39.32.756,LearnStrategy,2023.2.3,Win32,59.52380952,1,1,14,0.103703746,-0.010185206,1,0,0,1.5033,rock_grid_rect_2,4,13,-1,-1,1.503,0.176851838,-0.239814829,1,0,0,4.2955,Diorite_rect,3,4.295,0,13,0,13,0,1,,,,,,,,,,,,,
632c211dcdf6a137b26dfdce,TCR,2024-06-20_21h39.32.756,LearnStrategy,2023.2.3,Win32,59.52380952,1,1,15,0.074074074,-0.001851859,1,0,0,0.736,rock_grid_rect_2,6,13,-1,-1,0.736,-0.087962963,-0.412962949,1,0,0,1.447,Pegmatite_rect,6,1.447,1,14,0,14,0,1,,,,,,,,,,,,,
632c211dcdf6a137b26dfdce,TCR,2024-06-20_21h39.32.756,LearnStrategy,2023.2.3,Win32,59.52380952,1,1,16,0.040740755,0.003703683,1,0,0,0.7701,rock_grid_rect_2,5,16,-1,-1,0.77,-0.350925905,-0.378703718,1,0,0,1.0143,Obsidian_rect,5,1.014,1,15,0,15,0,1,,,,,,,,,,,,,
632c211dcdf6a137b26dfdce,TCR,2024-06-20_21h39.32.756,LearnStrategy,2023.2.3,Win32,59.52380952,1,2,1,,,,,,,,3,14,,,,,,,,,,,3,3.791,1,,,,,,0.196296339,-0.257407436,1,0,0,3.7908,Diorite_rect,0,0,0,0,1,
632c211dcdf6a137b26dfdce,TCR,2024-06-20_21h39.32.756,LearnStrategy,2023.2.3,Win32,59.52380952,1,2,2,,,,,,,,8,09,,,,,,,,,,,8,0.915,1,,,,,,0.390740712,-0.383333347,1,0,0,0.9146,Pumice_rect,1,0,1,0,1,
632c211dcdf6a137b26dfdce,TCR,2024-06-20_21h39.32.756,LearnStrategy,2023.2.3,Win32,59.52380952,1,2,3,,,,,,,,3,06,,,,,,,,,,,6,1.354,0,,,,,,-0.093518504,-0.398148148,1,0,0,1.3545,Pegmatite_rect,2,0,2,0,1,
632c211dcdf6a137b26dfdce,TCR,2024-06-20_21h39.32.756,LearnStrategy,2023.2.3,Win32,59.52380952,1,2,4,,,,,,,,4,16,,,,,,,,,,,2,1.158,0,,,,,,-0.110185199,-0.247222265,1,0,0,1.1578,Basalt_rect,3,0,3,0,1,
632c211dcdf6a137b26dfdce,TCR,2024-06-20_21h39.32.756,LearnStrategy,2023.2.3,Win32,59.52380952,1,2,5,,,,,,,,5,06,,,,,,,,,,,5,0.997,1,,,,,,-0.351851852,-0.400000042,1,0,0,0.9973,Obsidian_rect,4,0,4,0,1,
632c211dcdf6a137b26dfdce,TCR,2024-06-20_21h39.32.756,LearnStrategy,2023.2.3,Win32,59.52380952,1,2,6,,,,,,,,8,15,,,,,,,,,,,8,0.984,1,,,,,,0.393518519,-0.405555584,1,0,0,0.9842,Pumice_rect,5,0,5,0,1,
632c211dcdf6a137b26dfdce,TCR,2024-06-20_21h39.32.756,LearnStrategy,2023.2.3,Win32,59.52380952,1,2,7,,,,,,,,1,10,,,,,,,,,,,6,3.515,0,,,,,,-0.087037051,-0.39907406,1,0,0,3.5154,Pegmatite_rect,6,0,6,0,1,
632c211dcdf6a137b26dfdce,TCR,2024-06-20_21h39.32.756,LearnStrategy,2023.2.3,Win32,59.52380952,1,2,8,,,,,,,,6,09,,,,,,,,,,,6,1.173,1,,,,,,-0.089814787,-0.404629672,1,0,0,1.1727,Pegmatite_rect,7,0,7,0,1,
632c211dcdf6a137b26dfdce,TCR,2024-06-20_21h39.32.756,LearnStrategy,2023.2.3,Win32,59.52380952,1,2,9,,,,,,,,7,07,,,,,,,,,,,7,0.828,1,,,,,,0.146296325,-0.398148148,1,0,0,0.8278,Peridotite_rect,8,0,8,0,1,
632c211dcdf6a137b26dfdce,TCR,2024-06-20_21h39.32.756,LearnStrategy,2023.2.3,Win32,59.52380952,1,2,10,,,,,,,,1,04,,,,,,,,,,,3,1.855,0,,,,,,0.131481524,-0.25,1,0,0,1.8547,Diorite_rect,9,0,9,0,1,
632c211dcdf6a137b26dfdce,TCR,2024-06-20_21h39.32.756,LearnStrategy,2023.2.3,Win32,59.52380952,1,2,11,,,,,,,,2,01,,,,,,,,,,,2,1.717,1,,,,,,-0.084259245,-0.232407393,1,0,0,1.7167,Basalt_rect,10,0,10,0,1,
632c211dcdf6a137b26dfdce,TCR,2024-06-20_21h39.32.756,LearnStrategy,2023.2.3,Win32,59.52380952,1,2,12,,,,,,,,7,04,,,,,,,,,,,7,1.073,1,,,,,,0.159259302,-0.407407407,1,0,0,1.073,Peridotite_rect,11,0,11,0,1,
632c211dcdf6a137b26dfdce,TCR,2024-06-20_21h39.32.756,LearnStrategy,2023.2.3,Win32,59.52380952,1,2,13,,,,,,,,5,14,,,,,,,,,,,5,1.663,1,,,,,,-0.349074081,-0.407407407,1,0,0,1.6628,Obsidian_rect,12,0,12,0,1,
632c211dcdf6a137b26dfdce,TCR,2024-06-20_21h39.32.756,LearnStrategy,2023.2.3,Win32,59.52380952,1,2,14,,,,,,,,2,06,,,,,,,,,,,2,1.697,1,,,,,,-0.092592593,-0.256481524,1,0,0,1.6966,Basalt_rect,13,0,13,0,1,
632c211dcdf6a137b26dfdce,TCR,2024-06-20_21h39.32.756,LearnStrategy,2023.2.3,Win32,59.52380952,1,2,15,,,,,,,,6,15,,,,,,,,,,,6,1.882,1,,,,,,-0.079629616,-0.386111153,1,0,0,1.8821,Pegmatite_rect,14,0,14,0,1,
632c211dcdf6a137b26dfdce,TCR,2024-06-20_21h39.32.756,LearnStrategy,2023.2.3,Win32,59.52380952,1,2,16,,,,,,,,4,14,,,,,,,,,,,3,1.571,0,,,,,,0.155555584,-0.24537037,1,0,0,1.5709,Diorite_rect,15,0,15,0,1,
632c211dcdf6a137b26dfdce,TCR,2024-06-20_21h39.32.756,LearnStrategy,2023.2.3,Win32,59.52380952,2,1,1,0.135185171,0.013888889,1,0,0,1.204,rock_grid_rect_2,1,05,-1,-1,1.204,-0.365740741,-0.228703746,1,0,0,21.1099,Andesite_rect,1,21.11,1,0,0,0,0,1,,,,,,,,,,,,,
632c211dcdf6a137b26dfdce,TCR,2024-06-20_21h39.32.756,LearnStrategy,2023.2.3,Win32,59.52380952,2,1,2,0.062037079,-0.000925947,1,0,0,0.7267,rock_grid_rect_2,4,15,-1,-1,0.727,-0.349074081,-0.252777806,1,0,0,1.6206,Andesite_rect,1,1.621,0,1,0,1,0,1,,,,,,,,,,,,,
632c211dcdf6a137b26dfdce,TCR,2024-06-20_21h39.32.756,LearnStrategy,2023.2.3,Win32,59.52380952,2,1,3,0.05740745,0.013888889,1,0,0,0.7169,rock_grid_rect_2,6,10,-1,-1,0.717,-0.071296268,-0.39907406,1,0,0,1.2203,Pegmatite_rect,6,1.22,1,2,0,2,0,1,,,,,,,,,,,,,
632c211dcdf6a137b26dfdce,TCR,2024-06-20_21h39.32.756,LearnStrategy,2023.2.3,Win32,59.52380952,2,1,4,0.055555556,0.00462963,1,0,0,0.7326,rock_grid_rect_2,1,11,-1,-1,0.733,-0.337962963,-0.247222265,1,0,0,2.9032,Andesite_rect,1,2.903,1,3,0,3,0,1,,,,,,,,,,,,,
632c211dcdf6a137b26dfdce,TCR,2024-06-20_21h39.32.756,LearnStrategy,2023.2.3,Win32,59.52380952,2,1,5,0.050000014,0.008333312,1,0,0,0.7128,rock_grid_rect_2,5,16,-1,-1,0.713,-0.340740734,-0.37962963,1,0,0,1.0006,Obsidian_rect,5,1.001,1,4,0,4,0,1,,,,,,,,,,,,,
632c211dcdf6a137b26dfdce,TCR,2024-06-20_21h39.32.756,LearnStrategy,2023.2.3,Win32,59.52380952,2,1,6,0.080555598,-0.00462963,1,0,0,0.733,rock_grid_rect_2,4,15,-1,-1,0.733,-0.378703683,-0.246296282,1,0,0,2.7537,Andesite_rect,1,2.754,0,5,0,5,0,1,,,,,,,,,,,,,
632c211dcdf6a137b26dfdce,TCR,2024-06-20_21h39.32.756,LearnStrategy,2023.2.3,Win32,59.52380952,2,1,7,0.064814815,0.005555541,1,0,0,0.7027,rock_grid_rect_2,3,10,-1,-1,0.703,0.446296268,-0.233333376,1,0,0,1.114,Gabbro_rect,4,1.114,0,6,0,6,0,1,,,,,,,,,,,,,
632c211dcdf6a137b26dfdce,TCR,2024-06-20_21h39.32.756,LearnStrategy,2023.2.3,Win32,59.52380952,2,1,8,0.077777792,0.009259259,1,0,0,0.7332,rock_grid_rect_2,4,05,-1,-1,0.733,-0.064814815,-0.402777778,1,0,0,2.2633,Pegmatite_rect,6,2.263,0,7,0,7,0,1,,,,,,,,,,,,,
632c211dcdf6a137b26dfdce,TCR,2024-06-20_21h39.32.756,LearnStrategy,2023.2.3,Win32,59.52380952,2,1,9,0.066666709,0.013888889,1,0,0,0.7824,rock_grid_rect_2,1,06,-1,-1,0.782,0.401851937,-0.250925912,1,0,0,1.4649,Gabbro_rect,4,1.465,0,8,0,8,0,1,,,,,,,,,,,,,
632c211dcdf6a137b26dfdce,TCR,2024-06-20_21h39.32.756,LearnStrategy,2023.2.3,Win32,59.52380952,2,1,10,0.017592607,0.002777771,1,0,0,0.7641,rock_grid_rect_2,1,03,-1,-1,0.764,-0.368518511,-0.25,1,0,0,1.2687,Andesite_rect,1,1.269,1,9,0,9,0,1,,,,,,,,,,,,,
632c211dcdf6a137b26dfdce,TCR,2024-06-20_21h39.32.756,LearnStrategy,2023.2.3,Win32,59.52380952,2,1,11,0.074074074,0.002777771,1,0,0,1.3864,rock_grid_rect_2,4,11,-1,-1,1.386,-0.340740734,-0.24537037,1,0,0,3.9462,Andesite_rect,1,3.946,0,10,0,10,0,1,,,,,,,,,,,,,
632c211dcdf6a137b26dfdce,TCR,2024-06-20_21h39.32.756,LearnStrategy,2023.2.3,Win32,59.52380952,2,1,12,0.049074102,0.01203703,1,0,0,0.744,rock_grid_rect_2,1,06,-1,-1,0.744,0.389814871,-0.251851894,1,0,0,0.9588,Gabbro_rect,4,0.959,0,11,0,11,0,1,,,,,,,,,,,,,
632c211dcdf6a137b26dfdce,TCR,2024-06-20_21h39.32.756,LearnStrategy,2023.2.3,Win32,59.52380952,2,1,13,0.071296339,0.01666666,1,0,0,1.2492,rock_grid_rect_2,3,12,-1,-1,1.249,0.10555557,-0.37962963,1,0,0,1.5524,Peridotite_rect,7,1.552,0,12,0,12,0,1,,,,,,,,,,,,,
632c211dcdf6a137b26dfdce,TCR,2024-06-20_21h39.32.756,LearnStrategy,2023.2.3,Win32,59.52380952,2,1,14,0.017592607,-0.00462963,1,0,0,0.8606,rock_grid_rect_2,2,08,-1,-1,0.861,-0.075925898,-0.237963005,1,0,0,1.0011,Basalt_rect,2,1.001,1,13,0,13,0,1,,,,,,,,,,,,,
632c211dcdf6a137b26dfdce,TCR,2024-06-20_21h39.32.756,LearnStrategy,2023.2.3,Win32,59.52380952,2,1,15,0.087037051,0.010185171,1,0,0,1.8643,rock_grid_rect_2,4,13,-1,-1,1.864,-0.089814787,-0.405555584,1,0,0,1.275,Pegmatite_rect,6,1.275,0,14,0,14,0,1,,,,,,,,,,,,,
632c211dcdf6a137b26dfdce,TCR,2024-06-20_21h39.32.756,LearnStrategy,2023.2.3,Win32,59.52380952,2,1,16,0.071296339,0.012962942,1,0,0,0.7185,rock_grid_rect_2,3,16,-1,-1,0.719,0.150925954,-0.246296282,1,0,0,2.5121,Diorite_rect,3,2.512,1,15,0,15,0,1,,,,,,,,,,,,,
632c211dcdf6a137b26dfdce,TCR,2024-06-20_21h39.32.756,LearnStrategy,2023.2.3,Win32,59.52380952,2,2,1,,,,,,,,4,09,,,,,,,,,,,3,3.441,0,,,,,,0.133333347,-0.247222265,1,0,0,3.441,Diorite_rect,0,0,0,0,1,
632c211dcdf6a137b26dfdce,TCR,2024-06-20_21h39.32.756,LearnStrategy,2023.2.3,Win32,59.52380952,2,2,2,,,,,,,,1,01,,,,,,,,,,,3,3.232,0,,,,,,0.191666709,-0.234259288,1,0,0,3.2323,Diorite_rect,1,0,1,0,1,
632c211dcdf6a137b26dfdce,TCR,2024-06-20_21h39.32.756,LearnStrategy,2023.2.3,Win32,59.52380952,2,2,3,,,,,,,,6,03,,,,,,,,,,,6,1.742,1,,,,,,-0.058333291,-0.391666695,1,0,0,1.742,Pegmatite_rect,2,0,2,0,1,
632c211dcdf6a137b26dfdce,TCR,2024-06-20_21h39.32.756,LearnStrategy,2023.2.3,Win32,59.52380952,2,2,4,,,,,,,,7,15,,,,,,,,,,,7,0.725,1,,,,,,0.166666667,-0.392592607,1,0,0,0.725,Peridotite_rect,3,0,3,0,1,
632c211dcdf6a137b26dfdce,TCR,2024-06-20_21h39.32.756,LearnStrategy,2023.2.3,Win32,59.52380952,2,2,5,,,,,,,,3,15,,,,,,,,,,,6,0.86,0,,,,,,-0.097222222,-0.407407407,1,0,0,0.86,Pegmatite_rect,4,0,4,0,1,
632c211dcdf6a137b26dfdce,TCR,2024-06-20_21h39.32.756,LearnStrategy,2023.2.3,Win32,59.52380952,2,2,6,,,,,,,,5,05,,,,,,,,,,,5,1.123,1,,,,,,-0.35833334,-0.39907406,1,0,0,1.1229,Obsidian_rect,5,0,5,0,1,
632c211dcdf6a137b26dfdce,TCR,2024-06-20_21h39.32.756,LearnStrategy,2023.2.3,Win32,59.52380952,2,2,7,,,,,,,,7,05,,,,,,,,,,,7,1.18,1,,,,,,0.126851894,-0.383333347,1,0,0,1.1796,Peridotite_rect,6,0,6,0,1,
632c211dcdf6a137b26dfdce,TCR,2024-06-20_21h39.32.756,LearnStrategy,2023.2.3,Win32,59.52380952,2,2,8,,,,,,,,2,14,,,,,,,,,,,8,1.104,0,,,,,,0.399999972,-0.407407407,1,0,0,1.1043,Pumice_rect,7,0,7,0,1,
632c211dcdf6a137b26dfdce,TCR,2024-06-20_21h39.32.756,LearnStrategy,2023.2.3,Win32,59.52380952,2,2,9,,,,,,,,4,12,,,,,,,,,,,1,3.824,0,,,,,,-0.368518511,-0.246296282,1,0,0,3.8237,Andesite_rect,8,0,8,0,1,
632c211dcdf6a137b26dfdce,TCR,2024-06-20_21h39.32.756,LearnStrategy,2023.2.3,Win32,59.52380952,2,2,10,,,,,,,,8,16,,,,,,,,,,,8,0.88,1,,,,,,0.367592564,-0.406481496,1,0,0,0.8802,Pumice_rect,9,0,9,0,1,
632c211dcdf6a137b26dfdce,TCR,2024-06-20_21h39.32.756,LearnStrategy,2023.2.3,Win32,59.52380952,2,2,11,,,,,,,,1,07,,,,,,,,,,,1,4.313,1,,,,,,-0.374074053,-0.252777806,1,0,0,4.3135,Andesite_rect,10,0,10,0,1,
632c211dcdf6a137b26dfdce,TCR,2024-06-20_21h39.32.756,LearnStrategy,2023.2.3,Win32,59.52380952,2,2,12,,,,,,,,6,07,,,,,,,,,,,6,2.007,1,,,,,,-0.094444416,-0.412037037,1,0,0,2.0067,Pegmatite_rect,11,0,11,0,1,
632c211dcdf6a137b26dfdce,TCR,2024-06-20_21h39.32.756,LearnStrategy,2023.2.3,Win32,59.52380952,2,2,13,,,,,,,,5,09,,,,,,,,,,,5,0.941,1,,,,,,-0.327777757,-0.40370369,1,0,0,0.9413,Obsidian_rect,12,0,12,0,1,
632c211dcdf6a137b26dfdce,TCR,2024-06-20_21h39.32.756,LearnStrategy,2023.2.3,Win32,59.52380952,2,2,14,,,,,,,,2,04,,,,,,,,,,,2,1.749,1,,,,,,-0.103703675,-0.246296282,1,0,0,1.7488,Basalt_rect,13,0,13,0,1,
632c211dcdf6a137b26dfdce,TCR,2024-06-20_21h39.32.756,LearnStrategy,2023.2.3,Win32,59.52380952,2,2,15,,,,,,,,8,05,,,,,,,,,,,8,1.975,1,,,,,,0.393518519,-0.392592607,1,0,0,1.9745,Pumice_rect,14,0,14,0,1,
632c211dcdf6a137b26dfdce,TCR,2024-06-20_21h39.32.756,LearnStrategy,2023.2.3,Win32,59.52380952,2,2,16,,,,,,,,3,08,,,,,,,,,,,3,2.632,1,,,,,,0.115740741,-0.25462963,1,0,0,2.6321,Diorite_rect,15,0,15,0,1,
632c211dcdf6a137b26dfdce,TCR,2024-06-20_21h39.32.756,LearnStrategy,2023.2.3,Win32,59.52380952,3,1,1,0.107407393,0.010185171,1,0,0,0.8192,rock_grid_rect_2,3,02,-1,-1,0.819,0.159259302,-0.251851894,1,0,0,1.5871,Diorite_rect,3,1.587,1,0,0,0,0,1,,,,,,,,,,,,,
632c211dcdf6a137b26dfdce,TCR,2024-06-20_21h39.32.756,LearnStrategy,2023.2.3,Win32,59.52380952,3,1,2,0.039814843,0,1,0,0,0.7858,rock_grid_rect_2,4,03,-1,-1,0.786,0.150000042,-0.251851894,1,0,0,0.8628,Diorite_rect,3,0.863,0,1,0,1,0,1,,,,,,,,,,,,,
632c211dcdf6a137b26dfdce,TCR,2024-06-20_21h39.32.756,LearnStrategy,2023.2.3,Win32,59.52380952,3,1,3,0.077777792,-0.001851859,1,0,0,0.6867,rock_grid_rect_2,1,14,-1,-1,0.687,0.373148176,-0.253703718,1,0,0,1.2625,Gabbro_rect,4,1.263,0,2,0,2,0,1,,,,,,,,,,,,,
632c211dcdf6a137b26dfdce,TCR,2024-06-20_21h39.32.756,LearnStrategy,2023.2.3,Win32,59.52380952,3,1,4,0.085185228,-0.00462963,1,0,0,0.6932,rock_grid_rect_2,2,02,-1,-1,0.693,-0.087037051,-0.267592607,1,0,0,1.0719,Basalt_rect,2,1.072,1,3,0,3,0,1,,,,,,,,,,,,,
632c211dcdf6a137b26dfdce,TCR,2024-06-20_21h39.32.756,LearnStrategy,2023.2.3,Win32,59.52380952,3,1,5,0.036111125,0.00462963,1,0,0,0.7157,rock_grid_rect_2,4,15,-1,-1,0.716,0.14907406,-0.251851894,1,0,0,1.9397,Diorite_rect,3,1.94,0,4,0,4,0,1,,,,,,,,,,,,,
632c211dcdf6a137b26dfdce,TCR,2024-06-20_21h39.32.756,LearnStrategy,2023.2.3,Win32,59.52380952,3,1,6,-0.023148148,0,1,0,0,0.8003,rock_grid_rect_2,2,16,-1,-1,0.8,-0.175000014,-0.250925912,1,0,0,4.0367,Basalt_rect,2,4.037,1,5,0,5,0,1,,,,,,,,,,,,,
632c211dcdf6a137b26dfdce,TCR,2024-06-20_21h39.32.756,LearnStrategy,2023.2.3,Win32,59.52380952,3,1,7,0.016666695,0.00462963,1,0,0,0.6362,rock_grid_rect_2,3,10,-1,-1,0.636,0.142592607,-0.237963005,1,0,0,4.1288,Diorite_rect,3,4.129,1,6,0,6,0,1,,,,,,,,,,,,,
632c211dcdf6a137b26dfdce,TCR,2024-06-20_21h39.32.756,LearnStrategy,2023.2.3,Win32,59.52380952,3,1,8,0.043518561,0.002777771,1,0,0,0.666,rock_grid_rect_2,1,11,-1,-1,0.666,-0.375925912,-0.247222265,1,0,0,3.3206,Andesite_rect,1,3.321,1,7,0,7,0,1,,,,,,,,,,,,,
632c211dcdf6a137b26dfdce,TCR,2024-06-20_21h39.32.756,LearnStrategy,2023.2.3,Win32,59.52380952,3,1,9,0.012037065,0,1,0,0,0.6332,rock_grid_rect_2,4,11,-1,-1,0.633,-0.323148127,-0.234259288,1,0,0,2.7208,Andesite_rect,1,2.721,0,8,0,8,0,1,,,,,,,,,,,,,
632c211dcdf6a137b26dfdce,TCR,2024-06-20_21h39.32.756,LearnStrategy,2023.2.3,Win32,59.52380952,3,1,10,-0.014814801,0.000925912,1,0,0,0.6637,rock_grid_rect_2,1,03,-1,-1,0.664,0.37962963,-0.250925912,1,0,0,1.4809,Gabbro_rect,4,1.481,0,9,0,9,0,1,,,,,,,,,,,,,
632c211dcdf6a137b26dfdce,TCR,2024-06-20_21h39.32.756,LearnStrategy,2023.2.3,Win32,59.52380952,3,1,11,-0.015740712,0.015740748,1,0,0,0.6693,rock_grid_rect_2,4,05,-1,-1,0.669,-0.079629616,-0.411111125,1,0,0,1.6203,Pegmatite_rect,6,1.62,0,10,0,10,0,1,,,,,,,,,,,,,
632c211dcdf6a137b26dfdce,TCR,2024-06-20_21h39.32.756,LearnStrategy,2023.2.3,Win32,59.52380952,3,1,12,0.046296296,0,1,0,0,0.7026,rock_grid_rect_2,1,05,-1,-1,0.703,-0.355555534,-0.237963005,1,0,0,5.8543,Andesite_rect,1,5.854,1,11,0,11,0,1,,,,,,,,,,,,,
632c211dcdf6a137b26dfdce,TCR,2024-06-20_21h39.32.756,LearnStrategy,2023.2.3,Win32,59.52380952,3,1,13,0.053703732,0.008333312,1,0,0,0.7171,rock_grid_rect_2,6,08,-1,-1,0.717,-0.14444443,-0.405555584,1,0,0,1.2669,Pegmatite_rect,6,1.267,1,12,0,12,0,1,,,,,,,,,,,,,
632c211dcdf6a137b26dfdce,TCR,2024-06-20_21h39.32.756,LearnStrategy,2023.2.3,Win32,59.52380952,3,1,14,0.016666695,0.015740748,1,0,0,0.6527,rock_grid_rect_2,8,02,-1,-1,0.653,0.348148205,-0.40370369,1,0,0,0.9377,Pumice_rect,8,0.938,1,13,0,13,0,1,,,,,,,,,,,,,
632c211dcdf6a137b26dfdce,TCR,2024-06-20_21h39.32.756,LearnStrategy,2023.2.3,Win32,59.52380952,3,1,15,0.027777778,0.02407406,1,0,0,0.6997,rock_grid_rect_2,4,15,-1,-1,0.7,-0.346296275,-0.239814829,1,0,0,6.8435,Andesite_rect,1,6.843,0,14,0,14,0,1,,,,,,,,,,,,,
632c211dcdf6a137b26dfdce,TCR,2024-06-20_21h39.32.756,LearnStrategy,2023.2.3,Win32,59.52380952,3,1,16,0.013888889,0.012962942,1,0,0,0.715,rock_grid_rect_2,3,10,-1,-1,0.715,0.382407436,-0.241666653,1,0,0,1.0211,Gabbro_rect,4,1.021,0,15,0,15,0,1,,,,,,,,,,,,,
632c211dcdf6a137b26dfdce,TCR,2024-06-20_21h39.32.756,LearnStrategy,2023.2.3,Win32,59.52380952,3,2,1,,,,,,,,7,13,,,,,,,,,,,7,2.588,1,,,,,,0.128703718,-0.389814801,1,0,0,2.5878,Peridotite_rect,0,0,0,0,1,
632c211dcdf6a137b26dfdce,TCR,2024-06-20_21h39.32.756,LearnStrategy,2023.2.3,Win32,59.52380952,3,2,2,,,,,,,,2,10,,,,,,,,,,,2,1.237,1,,,,,,-0.159259231,-0.242592635,1,0,0,1.2369,Basalt_rect,1,0,1,0,1,
632c211dcdf6a137b26dfdce,TCR,2024-06-20_21h39.32.756,LearnStrategy,2023.2.3,Win32,59.52380952,3,2,3,,,,,,,,1,16,,,,,,,,,,,6,1.088,0,,,,,,-0.092592593,-0.400000042,1,0,0,1.0882,Pegmatite_rect,2,0,2,0,1,
632c211dcdf6a137b26dfdce,TCR,2024-06-20_21h39.32.756,LearnStrategy,2023.2.3,Win32,59.52380952,3,2,4,,,,,,,,8,06,,,,,,,,,,,8,0.86,1,,,,,,0.365740741,-0.39444443,1,0,0,0.8596,Pumice_rect,3,0,3,0,1,
632c211dcdf6a137b26dfdce,TCR,2024-06-20_21h39.32.756,LearnStrategy,2023.2.3,Win32,59.52380952,3,2,5,,,,,,,,3,09,,,,,,,,,,,3,1.562,1,,,,,,0.089814857,-0.250925912,1,0,0,1.5622,Diorite_rect,4,0,4,0,1,
632c211dcdf6a137b26dfdce,TCR,2024-06-20_21h39.32.756,LearnStrategy,2023.2.3,Win32,59.52380952,3,2,6,,,,,,,,5,12,,,,,,,,,,,5,0.993,1,,,,,,-0.390740748,-0.404629672,1,0,0,0.9932,Obsidian_rect,5,0,5,0,1,
632c211dcdf6a137b26dfdce,TCR,2024-06-20_21h39.32.756,LearnStrategy,2023.2.3,Win32,59.52380952,3,2,7,,,,,,,,8,14,,,,,,,,,,,8,0.903,1,,,,,,0.383333418,-0.389814801,1,0,0,0.9034,Pumice_rect,6,0,6,0,1,
632c211dcdf6a137b26dfdce,TCR,2024-06-20_21h39.32.756,LearnStrategy,2023.2.3,Win32,59.52380952,3,2,8,,,,,,,,6,06,,,,,,,,,,,6,1.291,1,,,,,,-0.141666624,-0.400925954,1,0,0,1.2906,Pegmatite_rect,7,0,7,0,1,
632c211dcdf6a137b26dfdce,TCR,2024-06-20_21h39.32.756,LearnStrategy,2023.2.3,Win32,59.52380952,3,2,9,,,,,,,,1,09,,,,,,,,,,,3,1.958,0,,,,,,0.111111111,-0.25,1,0,0,1.9583,Diorite_rect,8,0,8,0,1,
632c211dcdf6a137b26dfdce,TCR,2024-06-20_21h39.32.756,LearnStrategy,2023.2.3,Win32,59.52380952,3,2,10,,,,,,,,4,01,,,,,,,,,,,1,1.955,0,,,,,,-0.364814794,-0.261111153,1,0,0,1.9554,Andesite_rect,9,0,9,0,1,
632c211dcdf6a137b26dfdce,TCR,2024-06-20_21h39.32.756,LearnStrategy,2023.2.3,Win32,59.52380952,3,2,11,,,,,,,,6,05,,,,,,,,,,,6,11.415,1,,,,,,-0.090740698,-0.398148148,1,0,0,11.4148,Pegmatite_rect,10,0,10,0,1,
632c211dcdf6a137b26dfdce,TCR,2024-06-20_21h39.32.756,LearnStrategy,2023.2.3,Win32,59.52380952,3,2,12,,,,,,,,4,10,,,,,,,,,,,4,3.798,1,,,,,,0.365740741,-0.236111111,1,0,0,3.7976,Gabbro_rect,11,0,11,0,1,
632c211dcdf6a137b26dfdce,TCR,2024-06-20_21h39.32.756,LearnStrategy,2023.2.3,Win32,59.52380952,3,2,13,,,,,,,,7,08,,,,,,,,,,,7,1.032,1,,,,,,0.117592635,-0.401851866,1,0,0,1.0316,Peridotite_rect,12,0,12,0,1,
632c211dcdf6a137b26dfdce,TCR,2024-06-20_21h39.32.756,LearnStrategy,2023.2.3,Win32,59.52380952,3,2,14,,,,,,,,2,12,,,,,,,,,,,8,1.291,0,,,,,,0.3648149,-0.402777778,1,0,0,1.291,Pumice_rect,13,0,13,0,1,
632c211dcdf6a137b26dfdce,TCR,2024-06-20_21h39.32.756,LearnStrategy,2023.2.3,Win32,59.52380952,3,2,15,,,,,,,,5,08,,,,,,,,,,,5,1.349,1,,,,,,-0.350925905,-0.415740755,1,0,0,1.3489,Obsidian_rect,14,0,14,0,1,
632c211dcdf6a137b26dfdce,TCR,2024-06-20_21h39.32.756,LearnStrategy,2023.2.3,Win32,59.52380952,3,2,16,,,,,,,,3,13,,,,,,,,,,,3,3.655,1,,,,,,0.151851866,-0.246296282,1,0,0,3.6548,Diorite_rect,15,0,15,0,1,
632c211dcdf6a137b26dfdce,TCR,2024-06-20_21h39.32.756,LearnStrategy,2023.2.3,Win32,59.52380952,4,1,1,0.140740783,0.002777771,1,0,0,0.7534,rock_grid_rect_2,1,06,-1,-1,0.753,0.37037037,-0.231481481,1,0,0,2.4124,Gabbro_rect,4,2.412,0,0,0,0,0,1,,,,,,,,,,,,,
632c211dcdf6a137b26dfdce,TCR,2024-06-20_21h39.32.756,LearnStrategy,2023.2.3,Win32,59.52380952,4,1,2,0.040740755,0.003703683,1,0,0,0.8323,rock_grid_rect_2,3,02,-1,-1,0.832,0.119444459,-0.260185171,1,0,0,5.7379,Diorite_rect,3,5.738,1,1,0,1,0,1,,,,,,,,,,,,,
632c211dcdf6a137b26dfdce,TCR,2024-06-20_21h39.32.756,LearnStrategy,2023.2.3,Win32,59.52380952,4,1,3,0.089814857,0.003703683,1,0,0,0.7797,rock_grid_rect_2,1,06,-1,-1,0.78,-0.351851852,-0.246296282,1,0,0,2.642,Andesite_rect,1,2.642,1,2,0,2,0,1,,,,,,,,,,,,,
632c211dcdf6a137b26dfdce,TCR,2024-06-20_21h39.32.756,LearnStrategy,2023.2.3,Win32,59.52380952,4,1,4,0.012962977,-0.001851859,1,0,0,0.7327,rock_grid_rect_2,6,08,-1,-1,0.733,-0.106481481,-0.410185213,1,0,0,1.2034,Pegmatite_rect,6,1.203,1,3,0,3,0,1,,,,,,,,,,,,,
632c211dcdf6a137b26dfdce,TCR,2024-06-20_21h39.32.756,LearnStrategy,2023.2.3,Win32,59.52380952,4,1,5,0.064814815,0.00462963,1,0,0,0.7027,rock_grid_rect_2,8,04,-1,-1,0.703,0.359259288,-0.392592607,1,0,0,0.9368,Pumice_rect,8,0.937,1,4,0,4,0,1,,,,,,,,,,,,,
632c211dcdf6a137b26dfdce,TCR,2024-06-20_21h39.32.756,LearnStrategy,2023.2.3,Win32,59.52380952,4,1,6,0.02407406,-0.017592607,1,0,0,0.6335,rock_grid_rect_2,4,08,-1,-1,0.633,0.118518547,-0.258333347,1,0,0,2.5073,Diorite_rect,3,2.507,0,5,0,5,0,1,,,,,,,,,,,,,
632c211dcdf6a137b26dfdce,TCR,2024-06-20_21h39.32.756,LearnStrategy,2023.2.3,Win32,59.52380952,4,1,7,0.046296296,-0.011111118,1,0,0,0.7139,rock_grid_rect_2,4,11,-1,-1,0.714,0.398148148,-0.253703718,1,0,0,0.9912,Gabbro_rect,4,0.991,1,6,0,6,0,1,,,,,,,,,,,,,
632c211dcdf6a137b26dfdce,TCR,2024-06-20_21h39.32.756,LearnStrategy,2023.2.3,Win32,59.52380952,4,1,8,0.02870369,-0.013888889,1,0,0,0.615,rock_grid_rect_2,1,05,-1,-1,0.615,0.398148148,-0.232407393,1,0,0,0.9912,Gabbro_rect,4,0.991,0,7,0,7,0,1,,,,,,,,,,,,,
632c211dcdf6a137b26dfdce,TCR,2024-06-20_21h39.32.756,LearnStrategy,2023.2.3,Win32,59.52380952,4,1,9,0.041666667,-0.018518519,1,0,0,0.6374,rock_grid_rect_2,1,14,-1,-1,0.637,-0.362037023,-0.234259288,1,0,0,1.0203,Andesite_rect,1,1.02,1,8,0,8,0,1,,,,,,,,,,,,,
632c211dcdf6a137b26dfdce,TCR,2024-06-20_21h39.32.756,LearnStrategy,2023.2.3,Win32,59.52380952,4,1,10,0.045370384,-0.001851859,1,0,0,0.687,rock_grid_rect_2,4,11,-1,-1,0.687,-0.334259245,-0.23055557,1,0,0,0.9194,Andesite_rect,1,0.919,0,9,0,9,0,1,,,,,,,,,,,,,
632c211dcdf6a137b26dfdce,TCR,2024-06-20_21h39.32.756,LearnStrategy,2023.2.3,Win32,59.52380952,4,1,11,0.042592578,0.005555541,1,0,0,0.95,rock_grid_rect_2,4,11,-1,-1,0.95,0.387963048,-0.243518547,1,0,0,0.8681,Gabbro_rect,4,0.868,1,10,0,10,0,1,,,,,,,,,,,,,
632c211dcdf6a137b26dfdce,TCR,2024-06-20_21h39.32.756,LearnStrategy,2023.2.3,Win32,59.52380952,4,1,12,0.037962949,-0.006481489,1,0,0,0.5533,rock_grid_rect_2,2,09,-1,-1,0.553,-0.114814829,-0.262962977,1,0,0,1.0377,Basalt_rect,2,1.038,1,11,0,11,0,1,,,,,,,,,,,,,
632c211dcdf6a137b26dfdce,TCR,2024-06-20_21h39.32.756,LearnStrategy,2023.2.3,Win32,59.52380952,4,1,13,0.035185213,-0.008333347,1,0,0,0.552,rock_grid_rect_2,3,10,-1,-1,0.552,-0.092592593,-0.400925954,1,0,0,1.5202,Pegmatite_rect,6,1.52,0,12,0,12,0,1,,,,,,,,,,,,,
632c211dcdf6a137b26dfdce,TCR,2024-06-20_21h39.32.756,LearnStrategy,2023.2.3,Win32,59.52380952,4,1,14,0.073148162,-0.024074095,1,0,0,0.9491,rock_grid_rect_2,2,16,-1,-1,0.949,-0.106481481,-0.250925912,1,0,0,3.8303,Basalt_rect,2,3.83,1,13,0,13,0,1,,,,,,,,,,,,,
632c211dcdf6a137b26dfdce,TCR,2024-06-20_21h39.32.756,LearnStrategy,2023.2.3,Win32,59.52380952,4,1,15,-0.069444444,0.0074074,1,0,0,1.8167,rock_grid_rect_2,5,04,-1,-1,1.817,-0.362037023,-0.400000042,1,0,0,1.6369,Obsidian_rect,5,1.637,1,14,0,14,0,1,,,,,,,,,,,,,
632c211dcdf6a137b26dfdce,TCR,2024-06-20_21h39.32.756,LearnStrategy,2023.2.3,Win32,59.52380952,4,1,16,0.055555556,0.003703683,1,0,0,0.7192,rock_grid_rect_2,1,05,-1,-1,0.719,-0.339814822,-0.237963005,1,0,0,3.4544,Andesite_rect,1,3.454,1,15,0,15,0,1,,,,,,,,,,,,,
632c211dcdf6a137b26dfdce,TCR,2024-06-20_21h39.32.756,LearnStrategy,2023.2.3,Win32,59.52380952,4,2,1,,,,,,,,6,05,,,,,,,,,,,6,9.63,1,,,,,,-0.111111111,-0.408333319,1,0,0,9.6302,Pegmatite_rect,0,0,0,0,1,
632c211dcdf6a137b26dfdce,TCR,2024-06-20_21h39.32.756,LearnStrategy,2023.2.3,Win32,59.52380952,4,2,2,,,,,,,,5,08,,,,,,,,,,,5,0.992,1,,,,,,-0.329629616,-0.409259302,1,0,0,0.9917,Obsidian_rect,1,0,1,0,1,
632c211dcdf6a137b26dfdce,TCR,2024-06-20_21h39.32.756,LearnStrategy,2023.2.3,Win32,59.52380952,4,2,3,,,,,,,,7,15,,,,,,,,,,,7,0.899,1,,,,,,0.108333376,-0.390740783,1,0,0,0.8993,Peridotite_rect,2,0,2,0,1,
632c211dcdf6a137b26dfdce,TCR,2024-06-20_21h39.32.756,LearnStrategy,2023.2.3,Win32,59.52380952,4,2,4,,,,,,,,5,05,,,,,,,,,,,5,0.965,1,,,,,,-0.341666645,-0.396296325,1,0,0,0.9647,Obsidian_rect,3,0,3,0,1,
632c211dcdf6a137b26dfdce,TCR,2024-06-20_21h39.32.756,LearnStrategy,2023.2.3,Win32,59.52380952,4,2,5,,,,,,,,1,01,,,,,,,,,,,6,1.518,0,,,,,,-0.104629587,-0.385185171,1,0,0,1.5182,Pegmatite_rect,4,0,4,0,1,
632c211dcdf6a137b26dfdce,TCR,2024-06-20_21h39.32.756,LearnStrategy,2023.2.3,Win32,59.52380952,4,2,6,,,,,,,,3,06,,,,,,,,,,,6,1.438,0,,,,,,-0.091666681,-0.387962977,1,0,0,1.4382,Pegmatite_rect,5,0,5,0,1,
632c211dcdf6a137b26dfdce,TCR,2024-06-20_21h39.32.756,LearnStrategy,2023.2.3,Win32,59.52380952,4,2,7,,,,,,,,6,07,,,,,,,,,,,6,1.006,1,,,,,,-0.107407393,-0.396296325,1,0,0,1.0059,Pegmatite_rect,6,0,6,0,1,
632c211dcdf6a137b26dfdce,TCR,2024-06-20_21h39.32.756,LearnStrategy,2023.2.3,Win32,59.52380952,4,2,8,,,,,,,,4,10,,,,,,,,,,,4,2.441,1,,,,,,0.395370342,-0.241666653,1,0,0,2.4412,Gabbro_rect,7,0,7,0,1,
632c211dcdf6a137b26dfdce,TCR,2024-06-20_21h39.32.756,LearnStrategy,2023.2.3,Win32,59.52380952,4,2,9,,,,,,,,7,13,,,,,,,,,,,7,0.798,1,,,,,,0.134259259,-0.384259259,1,0,0,0.7977,Peridotite_rect,8,0,8,0,1,
632c211dcdf6a137b26dfdce,TCR,2024-06-20_21h39.32.756,LearnStrategy,2023.2.3,Win32,59.52380952,4,2,10,,,,,,,,2,06,,,,,,,,,,,2,1.054,1,,,,,,-0.092592593,-0.242592635,1,0,0,1.0537,Basalt_rect,9,0,9,0,1,
632c211dcdf6a137b26dfdce,TCR,2024-06-20_21h39.32.756,LearnStrategy,2023.2.3,Win32,59.52380952,4,2,11,,,,,,,,4,01,,,,,,,,,,,3,2.589,0,,,,,,0.131481524,-0.232407393,1,0,0,2.5888,Diorite_rect,10,0,10,0,1,
632c211dcdf6a137b26dfdce,TCR,2024-06-20_21h39.32.756,LearnStrategy,2023.2.3,Win32,59.52380952,4,2,12,,,,,,,,8,16,,,,,,,,,,,8,2.054,1,,,,,,0.413888861,-0.400925954,1,0,0,2.0543,Pumice_rect,11,0,11,0,1,
632c211dcdf6a137b26dfdce,TCR,2024-06-20_21h39.32.756,LearnStrategy,2023.2.3,Win32,59.52380952,4,2,13,,,,,,,,1,16,,,,,,,,,,,6,12.255,0,,,,,,-0.091666681,-0.406481496,1,0,0,12.2547,Pegmatite_rect,12,0,12,0,1,
632c211dcdf6a137b26dfdce,TCR,2024-06-20_21h39.32.756,LearnStrategy,2023.2.3,Win32,59.52380952,4,2,14,,,,,,,,3,15,,,,,,,,,,,7,1.327,0,,,,,,0.115740741,-0.384259259,1,0,0,1.3271,Peridotite_rect,13,0,13,0,1,
632c211dcdf6a137b26dfdce,TCR,2024-06-20_21h39.32.756,LearnStrategy,2023.2.3,Win32,59.52380952,4,2,15,,,,,,,,2,01,,,,,,,,,,,2,0.958,1,,,,,,-0.099074046,-0.259259259,1,0,0,0.9581,Basalt_rect,14,0,14,0,1,
632c211dcdf6a137b26dfdce,TCR,2024-06-20_21h39.32.756,LearnStrategy,2023.2.3,Win32,59.52380952,4,2,16,,,,,,,,8,05,,,,,,,,,,,8,1.491,1,,,,,,0.356481481,-0.391666695,1,0,0,1.4913,Pumice_rect,15,0,15,0,1,
632c211dcdf6a137b26dfdce,TCR,2024-06-20_21h39.32.756,LearnStrategy,2023.2.3,Win32,59.52380952,5,1,1,0.097222222,0.00462963,1,0,0,0.6644,rock_grid_rect_2,4,05,-1,-1,0.664,0.088888875,-0.40370369,1,0,0,1.092,Peridotite_rect,7,1.092,0,0,0,0,0,1,,,,,,,,,,,,,
632c211dcdf6a137b26dfdce,TCR,2024-06-20_21h39.32.756,LearnStrategy,2023.2.3,Win32,59.52380952,5,1,2,0.062037079,-0.008333347,1,0,0,0.8671,rock_grid_rect_2,6,12,-1,-1,0.867,-0.104629587,-0.385185171,1,0,0,1.0867,Pegmatite_rect,6,1.087,1,1,0,1,0,1,,,,,,,,,,,,,
632c211dcdf6a137b26dfdce,TCR,2024-06-20_21h39.32.756,LearnStrategy,2023.2.3,Win32,59.52380952,5,1,3,0.018518519,0.001851859,1,0,0,0.6194,rock_grid_rect_2,4,15,-1,-1,0.619,-0.083333333,-0.413888931,1,0,0,0.9871,Pegmatite_rect,6,0.987,0,2,0,2,0,1,,,,,,,,,,,,,
632c211dcdf6a137b26dfdce,TCR,2024-06-20_21h39.32.756,LearnStrategy,2023.2.3,Win32,59.52380952,5,1,4,0.038888931,-0.00462963,1,0,0,0.6659,rock_grid_rect_2,2,08,-1,-1,0.666,-0.088888875,-0.241666653,1,0,0,4.6449,Basalt_rect,2,4.645,1,3,0,3,0,1,,,,,,,,,,,,,
632c211dcdf6a137b26dfdce,TCR,2024-06-20_21h39.32.756,LearnStrategy,2023.2.3,Win32,59.52380952,5,1,5,0.054629644,0.00462963,1,0,0,0.8028,rock_grid_rect_2,4,11,-1,-1,0.803,-0.322222215,-0.237963005,1,0,0,2.8288,Andesite_rect,1,2.829,0,4,0,4,0,1,,,,,,,,,,,,,
632c211dcdf6a137b26dfdce,TCR,2024-06-20_21h39.32.756,LearnStrategy,2023.2.3,Win32,59.52380952,5,1,6,0.126851894,0.001851859,1,0,0,0.6529,rock_grid_rect_2,3,02,-1,-1,0.653,0.134259259,-0.251851894,1,0,0,1.1803,Diorite_rect,3,1.18,1,5,0,5,0,1,,,,,,,,,,,,,
632c211dcdf6a137b26dfdce,TCR,2024-06-20_21h39.32.756,LearnStrategy,2023.2.3,Win32,59.52380952,5,1,7,0.086111139,0.003703683,1,0,0,0.7021,rock_grid_rect_2,3,02,-1,-1,0.702,0.114814829,-0.25462963,1,0,0,1.3455,Diorite_rect,3,1.346,1,6,0,6,0,1,,,,,,,,,,,,,
632c211dcdf6a137b26dfdce,TCR,2024-06-20_21h39.32.756,LearnStrategy,2023.2.3,Win32,59.52380952,5,1,8,0.080555598,0.0074074,1,0,0,0.7327,rock_grid_rect_2,1,03,-1,-1,0.733,-0.338888875,-0.25,1,0,0,1.7831,Andesite_rect,1,1.783,1,7,0,7,0,1,,,,,,,,,,,,,
632c211dcdf6a137b26dfdce,TCR,2024-06-20_21h39.32.756,LearnStrategy,2023.2.3,Win32,59.52380952,5,1,9,-0.025925884,0.015740748,1,0,0,0.5612,rock_grid_rect_2,1,14,-1,-1,0.561,-0.36296297,-0.240740741,1,0,0,28.7874,Andesite_rect,1,28.787,1,8,0,8,0,1,,,,,,,,,,,,,
632c211dcdf6a137b26dfdce,TCR,2024-06-20_21h39.32.756,LearnStrategy,2023.2.3,Win32,59.52380952,5,1,10,0.040740755,0.002777771,1,0,0,0.6692,rock_grid_rect_2,1,11,-1,-1,0.669,-0.344444452,-0.262037065,1,0,0,1.2619,Andesite_rect,1,1.262,1,9,0,9,0,1,,,,,,,,,,,,,
632c211dcdf6a137b26dfdce,TCR,2024-06-20_21h39.32.756,LearnStrategy,2023.2.3,Win32,59.52380952,5,1,11,0.030555584,-0.00462963,1,0,0,0.7036,rock_grid_rect_2,8,08,-1,-1,0.704,0.385185242,-0.404629672,1,0,0,0.9702,Pumice_rect,8,0.97,1,10,0,10,0,1,,,,,,,,,,,,,
632c211dcdf6a137b26dfdce,TCR,2024-06-20_21h39.32.756,LearnStrategy,2023.2.3,Win32,59.52380952,5,1,12,0.018518519,0.01666666,1,0,0,0.6531,rock_grid_rect_2,7,06,-1,-1,0.653,0.102777764,-0.402777778,1,0,0,1.1873,Peridotite_rect,7,1.187,1,11,0,11,0,1,,,,,,,,,,,,,
632c211dcdf6a137b26dfdce,TCR,2024-06-20_21h39.32.756,LearnStrategy,2023.2.3,Win32,59.52380952,5,1,13,0,-0.009259259,1,0,0,0.6165,rock_grid_rect_2,5,04,-1,-1,0.617,-0.350925905,-0.396296325,1,0,0,0.9569,Obsidian_rect,5,0.957,1,12,0,12,0,1,,,,,,,,,,,,,
632c211dcdf6a137b26dfdce,TCR,2024-06-20_21h39.32.756,LearnStrategy,2023.2.3,Win32,59.52380952,5,1,14,0.000925912,0,1,0,0,0.6827,rock_grid_rect_2,1,02,-1,-1,0.683,0.126851894,-0.241666653,1,0,0,3.5538,Diorite_rect,3,3.554,0,13,0,13,0,1,,,,,,,,,,,,,
632c211dcdf6a137b26dfdce,TCR,2024-06-20_21h39.32.756,LearnStrategy,2023.2.3,Win32,59.52380952,5,1,15,0.039814843,0.002777771,1,0,0,0.7327,rock_grid_rect_2,3,12,-1,-1,0.733,0.139814801,-0.258333347,1,0,0,3.5545,Diorite_rect,3,3.554,1,14,0,14,0,1,,,,,,,,,,,,,
632c211dcdf6a137b26dfdce,TCR,2024-06-20_21h39.32.756,LearnStrategy,2023.2.3,Win32,59.52380952,5,1,16,0.050925926,-0.014814836,1,0,0,0.686,rock_grid_rect_2,1,02,-1,-1,0.686,0.125,-0.242592635,1,0,0,1.2626,Diorite_rect,3,1.263,0,15,0,15,0,1,,,,,,,,,,,,,
632c211dcdf6a137b26dfdce,TCR,2024-06-20_21h39.32.756,LearnStrategy,2023.2.3,Win32,59.52380952,5,2,1,,,,,,,,7,08,,,,,,,,,,,7,1.174,1,,,,,,0.127777806,-0.395370413,1,0,0,1.1741,Peridotite_rect,0,0,0,0,1,
632c211dcdf6a137b26dfdce,TCR,2024-06-20_21h39.32.756,LearnStrategy,2023.2.3,Win32,59.52380952,5,2,2,,,,,,,,2,12,,,,,,,,,,,8,1.142,0,,,,,,0.378703788,-0.383333347,1,0,0,1.1421,Pumice_rect,1,0,1,0,1,
632c211dcdf6a137b26dfdce,TCR,2024-06-20_21h39.32.756,LearnStrategy,2023.2.3,Win32,59.52380952,5,2,3,,,,,,,,3,13,,,,,,,,,,,7,1.18,0,,,,,,0.10555557,-0.392592607,1,0,0,1.1799,Peridotite_rect,2,0,2,0,1,
632c211dcdf6a137b26dfdce,TCR,2024-06-20_21h39.32.756,LearnStrategy,2023.2.3,Win32,59.52380952,5,2,4,,,,,,,,4,14,,,,,,,,,,,6,1.281,0,,,,,,-0.133333347,-0.400000042,1,0,0,1.2806,Pegmatite_rect,3,0,3,0,1,
632c211dcdf6a137b26dfdce,TCR,2024-06-20_21h39.32.756,LearnStrategy,2023.2.3,Win32,59.52380952,5,2,5,,,,,,,,6,03,,,,,,,,,,,6,0.927,1,,,,,,-0.106481481,-0.386111153,1,0,0,0.9266,Pegmatite_rect,4,0,4,0,1,
632c211dcdf6a137b26dfdce,TCR,2024-06-20_21h39.32.756,LearnStrategy,2023.2.3,Win32,59.52380952,5,2,6,,,,,,,,5,14,,,,,,,,,,,5,2.022,1,,,,,,-0.346296275,-0.392592607,1,0,0,2.0216,Obsidian_rect,5,0,5,0,1,
632c211dcdf6a137b26dfdce,TCR,2024-06-20_21h39.32.756,LearnStrategy,2023.2.3,Win32,59.52380952,5,2,7,,,,,,,,8,15,,,,,,,,,,,8,14.596,1,,,,,,0.413888861,-0.39907406,1,0,0,14.5959,Pumice_rect,6,0,6,0,1,
632c211dcdf6a137b26dfdce,TCR,2024-06-20_21h39.32.756,LearnStrategy,2023.2.3,Win32,59.52380952,5,2,8,,,,,,,,1,10,,,,,,,,,,,1,4.682,1,,,,,,-0.345370363,-0.26944443,1,0,0,4.6823,Andesite_rect,7,0,7,0,1,
632c211dcdf6a137b26dfdce,TCR,2024-06-20_21h39.32.756,LearnStrategy,2023.2.3,Win32,59.52380952,5,2,9,,,,,,,,5,06,,,,,,,,,,,5,0.957,1,,,,,,-0.335185192,-0.393518519,1,0,0,0.9565,Obsidian_rect,8,0,8,0,1,
632c211dcdf6a137b26dfdce,TCR,2024-06-20_21h39.32.756,LearnStrategy,2023.2.3,Win32,59.52380952,5,2,10,,,,,,,,7,07,,,,,,,,,,,7,0.943,1,,,,,,0.130555541,-0.390740783,1,0,0,0.9427,Peridotite_rect,9,0,9,0,1,
632c211dcdf6a137b26dfdce,TCR,2024-06-20_21h39.32.756,LearnStrategy,2023.2.3,Win32,59.52380952,5,2,11,,,,,,,,2,14,,,,,,,,,,,8,1.025,0,,,,,,0.359259288,-0.40370369,1,0,0,1.0252,Pumice_rect,10,0,10,0,1,
632c211dcdf6a137b26dfdce,TCR,2024-06-20_21h39.32.756,LearnStrategy,2023.2.3,Win32,59.52380952,5,2,12,,,,,,,,8,06,,,,,,,,,,,8,0.874,1,,,,,,0.361111111,-0.396296325,1,0,0,0.8742,Pumice_rect,11,0,11,0,1,
632c211dcdf6a137b26dfdce,TCR,2024-06-20_21h39.32.756,LearnStrategy,2023.2.3,Win32,59.52380952,5,2,13,,,,,,,,3,09,,,,,,,,,,,3,3.474,1,,,,,,0.139814801,-0.235185199,1,0,0,3.474,Diorite_rect,12,0,12,0,1,
632c211dcdf6a137b26dfdce,TCR,2024-06-20_21h39.32.756,LearnStrategy,2023.2.3,Win32,59.52380952,5,2,14,,,,,,,,1,04,,,,,,,,,,,3,3.63,0,,,,,,0.133333347,-0.247222265,1,0,0,3.63,Diorite_rect,13,0,13,0,1,
632c211dcdf6a137b26dfdce,TCR,2024-06-20_21h39.32.756,LearnStrategy,2023.2.3,Win32,59.52380952,5,2,15,,,,,,,,4,12,,,,,,,,,,,2,1.345,0,,,,,,-0.106481481,-0.228703746,1,0,0,1.3451,Basalt_rect,14,0,14,0,1,
632c211dcdf6a137b26dfdce,TCR,2024-06-20_21h39.32.756,LearnStrategy,2023.2.3,Win32,59.52380952,5,2,16,,,,,,,,6,06,,,,,,,,,,,6,1.156,1,,,,,,-0.088888875,-0.384259259,1,0,0,1.1555,Pegmatite_rect,15,0,15,0,1,
632c211dcdf6a137b26dfdce,TCR,2024-06-20_21h39.32.756,LearnStrategy,2023.2.3,Win32,59.52380952,6,1,1,0.112963005,-0.010185206,1,0,0,0.9314,rock_grid_rect_2,4,13,-1,-1,0.931,-0.074074074,-0.389814801,1,0,0,4.5405,Pegmatite_rect,6,4.541,0,0,0,0,0,1,,,,,,,,,,,,,
632c211dcdf6a137b26dfdce,TCR,2024-06-20_21h39.32.756,LearnStrategy,2023.2.3,Win32,59.52380952,6,1,2,0.109259288,-0.00462963,1,0,0,0.8364,rock_grid_rect_2,3,02,-1,-1,0.836,0.117592635,-0.24537037,1,0,0,1.2276,Diorite_rect,3,1.228,1,1,0,1,0,1,,,,,,,,,,,,,
632c211dcdf6a137b26dfdce,TCR,2024-06-20_21h39.32.756,LearnStrategy,2023.2.3,Win32,59.52380952,6,1,3,0.073148162,0.01203703,1,0,0,0.7828,rock_grid_rect_2,4,05,-1,-1,0.783,-0.09629631,-0.396296325,1,0,0,1.2394,Pegmatite_rect,6,1.239,0,2,0,2,0,1,,,,,,,,,,,,,
632c211dcdf6a137b26dfdce,TCR,2024-06-20_21h39.32.756,LearnStrategy,2023.2.3,Win32,59.52380952,6,1,4,0.079629616,0.006481489,1,0,0,0.833,rock_grid_rect_2,6,11,-1,-1,0.833,-0.112037023,-0.396296325,1,0,0,0.9046,Pegmatite_rect,6,0.905,1,3,0,3,0,1,,,,,,,,,,,,,
632c211dcdf6a137b26dfdce,TCR,2024-06-20_21h39.32.756,LearnStrategy,2023.2.3,Win32,59.52380952,6,1,5,0.103703746,-0.010185206,1,0,0,1.6638,rock_grid_rect_2,2,05,-1,-1,1.664,-0.102777764,-0.248148176,1,0,0,0.9509,Basalt_rect,2,0.951,1,4,0,4,0,1,,,,,,,,,,,,,
632c211dcdf6a137b26dfdce,TCR,2024-06-20_21h39.32.756,LearnStrategy,2023.2.3,Win32,59.52380952,6,1,6,0.030555584,0.01203703,1,0,0,0.7495,rock_grid_rect_2,1,02,-1,-1,0.749,-0.360185164,-0.229629658,1,0,0,4.2445,Andesite_rect,1,4.245,1,5,0,5,0,1,,,,,,,,,,,,,
632c211dcdf6a137b26dfdce,TCR,2024-06-20_21h39.32.756,LearnStrategy,2023.2.3,Win32,59.52380952,6,1,7,-0.013888889,0.01203703,1,0,0,0.6524,rock_grid_rect_2,1,06,-1,-1,0.652,-0.357407393,-0.23055557,1,0,0,0.9876,Andesite_rect,1,0.988,1,6,0,6,0,1,,,,,,,,,,,,,
632c211dcdf6a137b26dfdce,TCR,2024-06-20_21h39.32.756,LearnStrategy,2023.2.3,Win32,59.52380952,6,1,8,0,0.001851859,1,0,0,0.6824,rock_grid_rect_2,7,12,-1,-1,0.682,-0.080555527,-0.405555584,1,0,0,1.1539,Pegmatite_rect,6,1.154,0,7,0,7,0,1,,,,,,,,,,,,,
632c211dcdf6a137b26dfdce,TCR,2024-06-20_21h39.32.756,LearnStrategy,2023.2.3,Win32,59.52380952,6,1,9,0.064814815,-0.014814836,1,0,0,0.7366,rock_grid_rect_2,3,10,-1,-1,0.737,0.109259288,-0.39444443,1,0,0,0.8768,Peridotite_rect,7,0.877,0,8,0,8,0,1,,,,,,,,,,,,,
632c211dcdf6a137b26dfdce,TCR,2024-06-20_21h39.32.756,LearnStrategy,2023.2.3,Win32,59.52380952,6,1,10,0.049074102,-0.00462963,1,0,0,1.7694,rock_grid_rect_2,8,13,-1,-1,1.769,0.402777778,-0.39444443,1,0,0,2.1127,Pumice_rect,8,2.113,1,9,0,9,0,1,,,,,,,,,,,,,
632c211dcdf6a137b26dfdce,TCR,2024-06-20_21h39.32.756,LearnStrategy,2023.2.3,Win32,59.52380952,6,1,11,0.053703732,-0.012962977,1,0,0,6.3995,rock_grid_rect_2,1,02,-1,-1,6.399,-0.396296289,-0.258333347,1,0,0,2.7232,Andesite_rect,1,2.723,1,10,0,10,0,1,,,,,,,,,,,,,
632c211dcdf6a137b26dfdce,TCR,2024-06-20_21h39.32.756,LearnStrategy,2023.2.3,Win32,59.52380952,6,1,12,0.005555541,0.006481489,1,0,0,0.6357,rock_grid_rect_2,4,15,-1,-1,0.636,-0.375925912,-0.25,1,0,0,22.7694,Andesite_rect,1,22.769,0,11,0,11,0,1,,,,,,,,,,,,,
632c211dcdf6a137b26dfdce,TCR,2024-06-20_21h39.32.756,LearnStrategy,2023.2.3,Win32,59.52380952,6,1,13,0.018518519,0.002777771,1,0,0,0.631,rock_grid_rect_2,2,11,-1,-1,0.631,0.376851824,-0.400000042,1,0,0,1.191,Pumice_rect,8,1.191,0,12,0,12,0,1,,,,,,,,,,,,,
632c211dcdf6a137b26dfdce,TCR,2024-06-20_21h39.32.756,LearnStrategy,2023.2.3,Win32,59.52380952,6,1,14,0.055555556,0.01944443,1,0,0,1.2193,rock_grid_rect_2,2,11,-1,-1,1.219,-0.145370342,-0.249074088,1,0,0,1.0206,Basalt_rect,2,1.021,1,13,0,13,0,1,,,,,,,,,,,,,
632c211dcdf6a137b26dfdce,TCR,2024-06-20_21h39.32.756,LearnStrategy,2023.2.3,Win32,59.52380952,6,1,15,0.044444473,-0.008333347,1,0,0,0.6477,rock_grid_rect_2,3,16,-1,-1,0.648,0.118518547,-0.244444459,1,0,0,1.1088,Diorite_rect,3,1.109,1,14,0,14,0,1,,,,,,,,,,,,,
632c211dcdf6a137b26dfdce,TCR,2024-06-20_21h39.32.756,LearnStrategy,2023.2.3,Win32,59.52380952,6,1,16,0.046296296,-0.014814836,1,0,0,0.703,rock_grid_rect_2,4,03,-1,-1,0.703,0.130555541,-0.258333347,1,0,0,0.9872,Diorite_rect,3,0.987,0,15,0,15,0,1,,,,,,,,,,,,,
632c211dcdf6a137b26dfdce,TCR,2024-06-20_21h39.32.756,LearnStrategy,2023.2.3,Win32,59.52380952,6,2,1,,,,,,,,6,15,,,,,,,,,,,6,1.275,1,,,,,,-0.127777735,-0.389814801,1,0,0,1.2753,Pegmatite_rect,0,0,0,0,1,
632c211dcdf6a137b26dfdce,TCR,2024-06-20_21h39.32.756,LearnStrategy,2023.2.3,Win32,59.52380952,6,2,2,,,,,,,,3,08,,,,,,,,,,,3,1.337,1,,,,,,0.147222236,-0.242592635,1,0,0,1.3373,Diorite_rect,1,0,1,0,1,
632c211dcdf6a137b26dfdce,TCR,2024-06-20_21h39.32.756,LearnStrategy,2023.2.3,Win32,59.52380952,6,2,3,,,,,,,,7,04,,,,,,,,,,,7,0.94,1,,,,,,0.124074088,-0.386111153,1,0,0,0.9405,Peridotite_rect,2,0,2,0,1,
632c211dcdf6a137b26dfdce,TCR,2024-06-20_21h39.32.756,LearnStrategy,2023.2.3,Win32,59.52380952,6,2,4,,,,,,,,4,16,,,,,,,,,,,4,2.091,1,,,,,,0.406481566,-0.250925912,1,0,0,2.0909,Gabbro_rect,3,0,3,0,1,
632c211dcdf6a137b26dfdce,TCR,2024-06-20_21h39.32.756,LearnStrategy,2023.2.3,Win32,59.52380952,6,2,5,,,,,,,,6,09,,,,,,,,,,,6,1.082,1,,,,,,-0.127777735,-0.398148148,1,0,0,1.0822,Pegmatite_rect,4,0,4,0,1,
632c211dcdf6a137b26dfdce,TCR,2024-06-20_21h39.32.756,LearnStrategy,2023.2.3,Win32,59.52380952,6,2,6,,,,,,,,1,07,,,,,,,,,,,3,5.832,0,,,,,,0.130555541,-0.261111153,1,0,0,5.8318,Diorite_rect,5,0,5,0,1,
632c211dcdf6a137b26dfdce,TCR,2024-06-20_21h39.32.756,LearnStrategy,2023.2.3,Win32,59.52380952,6,2,7,,,,,,,,1,09,,,,,,,,,,,1,1.898,1,,,,,,-0.361111111,-0.250925912,1,0,0,1.898,Andesite_rect,6,0,6,0,1,
632c211dcdf6a137b26dfdce,TCR,2024-06-20_21h39.32.756,LearnStrategy,2023.2.3,Win32,59.52380952,6,2,8,,,,,,,,8,09,,,,,,,,,,,8,0.89,1,,,,,,0.434259344,-0.388888889,1,0,0,0.8897,Pumice_rect,7,0,7,0,1,
632c211dcdf6a137b26dfdce,TCR,2024-06-20_21h39.32.756,LearnStrategy,2023.2.3,Win32,59.52380952,6,2,9,,,,,,,,5,12,,,,,,,,,,,5,1.5,1,,,,,,-0.3675926,-0.407407407,1,0,0,1.4999,Obsidian_rect,8,0,8,0,1,
632c211dcdf6a137b26dfdce,TCR,2024-06-20_21h39.32.756,LearnStrategy,2023.2.3,Win32,59.52380952,6,2,10,,,,,,,,7,05,,,,,,,,,,,7,1.181,1,,,,,,0.127777806,-0.415740755,1,0,0,1.181,Peridotite_rect,9,0,9,0,1,
632c211dcdf6a137b26dfdce,TCR,2024-06-20_21h39.32.756,LearnStrategy,2023.2.3,Win32,59.52380952,6,2,11,,,,,,,,2,04,,,,,,,,,,,2,0.975,1,,,,,,-0.12962963,-0.253703718,1,0,0,0.9749,Basalt_rect,10,0,10,0,1,
632c211dcdf6a137b26dfdce,TCR,2024-06-20_21h39.32.756,LearnStrategy,2023.2.3,Win32,59.52380952,6,2,12,,,,,,,,2,10,,,,,,,,,,,2,1.459,1,,,,,,-0.114814829,-0.239814829,1,0,0,1.4589,Basalt_rect,11,0,11,0,1,
632c211dcdf6a137b26dfdce,TCR,2024-06-20_21h39.32.756,LearnStrategy,2023.2.3,Win32,59.52380952,6,2,13,,,,,,,,4,09,,,,,,,,,,,4,3.755,1,,,,,,0.400925954,-0.243518547,1,0,0,3.7552,Gabbro_rect,12,0,12,0,1,
632c211dcdf6a137b26dfdce,TCR,2024-06-20_21h39.32.756,LearnStrategy,2023.2.3,Win32,59.52380952,6,2,14,,,,,,,,3,14,,,,,,,,,,,3,2.773,1,,,,,,0.162962949,-0.241666653,1,0,0,2.7726,Diorite_rect,13,0,13,0,1,
632c211dcdf6a137b26dfdce,TCR,2024-06-20_21h39.32.756,LearnStrategy,2023.2.3,Win32,59.52380952,6,2,15,,,,,,,,5,09,,,,,,,,,,,5,1.612,1,,,,,,-0.364814794,-0.419444473,1,0,0,1.6116,Obsidian_rect,14,0,14,0,1,
632c211dcdf6a137b26dfdce,TCR,2024-06-20_21h39.32.756,LearnStrategy,2023.2.3,Win32,59.52380952,6,2,16,,,,,,,,8,14,,,,,,,,,,,8,0.992,1,,,,,,0.375925982,-0.391666695,1,0,0,0.9922,Pumice_rect,15,0,15,0,1,
632c211dcdf6a137b26dfdce,TCR,2024-06-20_21h39.32.756,LearnStrategy,2023.2.3,Win32,59.52380952,7,1,1,0.112037023,0.020370377,1,0,0,0.8527,rock_grid_rect_2,3,16,-1,-1,0.853,0.110185199,-0.260185171,1,0,0,1.8042,Diorite_rect,3,1.804,1,0,0,0,0,1,,,,,,,,,,,,,
632c211dcdf6a137b26dfdce,TCR,2024-06-20_21h39.32.756,LearnStrategy,2023.2.3,Win32,59.52380952,7,1,2,0.171296296,0.005555541,1,0,0,2.0641,rock_grid_rect_2,7,02,-1,-1,2.064,0.131481524,-0.419444473,1,0,0,1.5848,Peridotite_rect,7,1.585,1,1,0,1,0,1,,,,,,,,,,,,,
632c211dcdf6a137b26dfdce,TCR,2024-06-20_21h39.32.756,LearnStrategy,2023.2.3,Win32,59.52380952,7,1,3,0.111111111,0.003703683,1,0,0,0.752,rock_grid_rect_2,1,11,-1,-1,0.752,-0.333333333,-0.233333376,1,0,0,2.9535,Andesite_rect,1,2.954,1,2,0,2,0,1,,,,,,,,,,,,,
632c211dcdf6a137b26dfdce,TCR,2024-06-20_21h39.32.756,LearnStrategy,2023.2.3,Win32,59.52380952,7,1,4,0.041666667,-0.002777771,1,0,0,0.736,rock_grid_rect_2,5,04,-1,-1,0.736,-0.363888882,-0.401851866,1,0,0,1.2039,Obsidian_rect,5,1.204,1,3,0,3,0,1,,,,,,,,,,,,,
632c211dcdf6a137b26dfdce,TCR,2024-06-20_21h39.32.756,LearnStrategy,2023.2.3,Win32,59.52380952,7,1,5,0.049074102,0.008333312,1,0,0,1.719,rock_grid_rect_2,6,08,-1,-1,1.719,-0.107407393,-0.405555584,1,0,0,1.2868,Pegmatite_rect,6,1.287,1,4,0,4,0,1,,,,,,,,,,,,,
632c211dcdf6a137b26dfdce,TCR,2024-06-20_21h39.32.756,LearnStrategy,2023.2.3,Win32,59.52380952,7,1,6,0.043518561,-0.005555577,1,0,0,0.7028,rock_grid_rect_2,2,11,-1,-1,0.703,-0.086111069,-0.243518547,1,0,0,4.4365,Basalt_rect,2,4.436,1,5,0,5,0,1,,,,,,,,,,,,,
632c211dcdf6a137b26dfdce,TCR,2024-06-20_21h39.32.756,LearnStrategy,2023.2.3,Win32,59.52380952,7,1,7,0.017592607,-0.000925947,1,0,0,0.717,rock_grid_rect_2,3,12,-1,-1,0.717,0.115740741,-0.400000042,1,0,0,1.3159,Peridotite_rect,7,1.316,0,6,0,6,0,1,,,,,,,,,,,,,
632c211dcdf6a137b26dfdce,TCR,2024-06-20_21h39.32.756,LearnStrategy,2023.2.3,Win32,59.52380952,7,1,8,0.040740755,-0.01203703,1,0,0,0.7528,rock_grid_rect_2,8,08,-1,-1,0.753,0.361111111,-0.39444443,1,0,0,0.9539,Pumice_rect,8,0.954,1,7,0,7,0,1,,,,,,,,,,,,,
632c211dcdf6a137b26dfdce,TCR,2024-06-20_21h39.32.756,LearnStrategy,2023.2.3,Win32,59.52380952,7,1,9,0.045370384,0.002777771,1,0,0,2.2971,rock_grid_rect_2,1,14,-1,-1,2.297,-0.333333333,-0.249074088,1,0,0,3.9084,Andesite_rect,1,3.908,1,8,0,8,0,1,,,,,,,,,,,,,
632c211dcdf6a137b26dfdce,TCR,2024-06-20_21h39.32.756,LearnStrategy,2023.2.3,Win32,59.52380952,7,1,10,0.037037037,-0.002777771,1,0,0,1.4189,rock_grid_rect_2,1,03,-1,-1,1.419,-0.349999993,-0.247222265,1,0,0,2.3863,Andesite_rect,1,2.386,1,9,0,9,0,1,,,,,,,,,,,,,
632c211dcdf6a137b26dfdce,TCR,2024-06-20_21h39.32.756,LearnStrategy,2023.2.3,Win32,59.52380952,7,1,11,0.025925954,0.020370377,1,0,0,0.6684,rock_grid_rect_2,1,14,-1,-1,0.668,-0.344444452,-0.262962977,1,0,0,1.1907,Andesite_rect,1,1.191,1,10,0,10,0,1,,,,,,,,,,,,,
632c211dcdf6a137b26dfdce,TCR,2024-06-20_21h39.32.756,LearnStrategy,2023.2.3,Win32,59.52380952,7,1,12,0.020370413,-0.017592607,1,0,0,0.6315,rock_grid_rect_2,2,11,-1,-1,0.631,-0.082407422,-0.249074088,1,0,0,1.4365,Basalt_rect,2,1.436,1,11,0,11,0,1,,,,,,,,,,,,,
632c211dcdf6a137b26dfdce,TCR,2024-06-20_21h39.32.756,LearnStrategy,2023.2.3,Win32,59.52380952,7,1,13,0.005555541,0,1,0,0,0.6526,rock_grid_rect_2,4,11,-1,-1,0.653,-0.094444416,-0.247222265,1,0,0,1.6207,Basalt_rect,2,1.621,0,12,0,12,0,1,,,,,,,,,,,,,
632c211dcdf6a137b26dfdce,TCR,2024-06-20_21h39.32.756,LearnStrategy,2023.2.3,Win32,59.52380952,7,1,14,0.021296325,0,1,0,0,0.703,rock_grid_rect_2,4,11,-1,-1,0.703,0.384259259,-0.259259259,1,0,0,0.9033,Gabbro_rect,4,0.903,1,13,0,13,0,1,,,,,,,,,,,,,
632c211dcdf6a137b26dfdce,TCR,2024-06-20_21h39.32.756,LearnStrategy,2023.2.3,Win32,59.52380952,7,1,15,0.008333347,-0.006481489,1,0,0,0.5991,rock_grid_rect_2,3,10,-1,-1,0.599,0.146296325,-0.243518547,1,0,0,3.8181,Diorite_rect,3,3.818,1,14,0,14,0,1,,,,,,,,,,,,,
632c211dcdf6a137b26dfdce,TCR,2024-06-20_21h39.32.756,LearnStrategy,2023.2.3,Win32,59.52380952,7,1,16,0.043518561,-0.011111118,1,0,0,0.6474,rock_grid_rect_2,4,15,-1,-1,0.647,0.164814843,-0.241666653,1,0,0,4.6091,Diorite_rect,3,4.609,0,15,0,15,0,1,,,,,,,,,,,,,
632c211dcdf6a137b26dfdce,TCR,2024-06-20_21h39.32.756,LearnStrategy,2023.2.3,Win32,59.52380952,7,2,1,,,,,,,,4,10,,,,,,,,,,,4,2.97,1,,,,,,0.376851824,-0.238888917,1,0,0,2.9702,Gabbro_rect,0,0,0,0,1,
632c211dcdf6a137b26dfdce,TCR,2024-06-20_21h39.32.756,LearnStrategy,2023.2.3,Win32,59.52380952,7,2,2,,,,,,,,2,01,,,,,,,,,,,2,1.022,1,,,,,,-0.092592593,-0.232407393,1,0,0,1.0223,Basalt_rect,1,0,1,0,1,
632c211dcdf6a137b26dfdce,TCR,2024-06-20_21h39.32.756,LearnStrategy,2023.2.3,Win32,59.52380952,7,2,3,,,,,,,,5,12,,,,,,,,,,,5,0.943,1,,,,,,-0.351851852,-0.407407407,1,0,0,0.9427,Obsidian_rect,2,0,2,0,1,
632c211dcdf6a137b26dfdce,TCR,2024-06-20_21h39.32.756,LearnStrategy,2023.2.3,Win32,59.52380952,7,2,4,,,,,,,,8,16,,,,,,,,,,,8,0.916,1,,,,,,0.372222194,-0.378703718,1,0,0,0.9156,Pumice_rect,3,0,3,0,1,
632c211dcdf6a137b26dfdce,TCR,2024-06-20_21h39.32.756,LearnStrategy,2023.2.3,Win32,59.52380952,7,2,5,,,,,,,,3,08,,,,,,,,,,,3,1.566,1,,,,,,0.151851866,-0.241666653,1,0,0,1.5661,Diorite_rect,4,0,4,0,1,
632c211dcdf6a137b26dfdce,TCR,2024-06-20_21h39.32.756,LearnStrategy,2023.2.3,Win32,59.52380952,7,2,6,,,,,,,,6,06,,,,,,,,,,,6,0.95,1,,,,,,-0.085185157,-0.401851866,1,0,0,0.9502,Pegmatite_rect,5,0,5,0,1,
632c211dcdf6a137b26dfdce,TCR,2024-06-20_21h39.32.756,LearnStrategy,2023.2.3,Win32,59.52380952,7,2,7,,,,,,,,1,04,,,,,,,,,,,3,2.938,0,,,,,,0.159259302,-0.236111111,1,0,0,2.9383,Diorite_rect,6,0,6,0,1,
632c211dcdf6a137b26dfdce,TCR,2024-06-20_21h39.32.756,LearnStrategy,2023.2.3,Win32,59.52380952,7,2,8,,,,,,,,2,04,,,,,,,,,,,2,0.988,1,,,,,,-0.079629616,-0.228703746,1,0,0,0.9885,Basalt_rect,7,0,7,0,1,
632c211dcdf6a137b26dfdce,TCR,2024-06-20_21h39.32.756,LearnStrategy,2023.2.3,Win32,59.52380952,7,2,9,,,,,,,,7,13,,,,,,,,,,,7,2.249,1,,,,,,0.146296325,-0.398148148,1,0,0,2.2493,Peridotite_rect,8,0,8,0,1,
632c211dcdf6a137b26dfdce,TCR,2024-06-20_21h39.32.756,LearnStrategy,2023.2.3,Win32,59.52380952,7,2,10,,,,,,,,3,09,,,,,,,,,,,3,1.165,1,,,,,,0.131481524,-0.23055557,1,0,0,1.1646,Diorite_rect,9,0,9,0,1,
632c211dcdf6a137b26dfdce,TCR,2024-06-20_21h39.32.756,LearnStrategy,2023.2.3,Win32,59.52380952,7,2,11,,,,,,,,8,14,,,,,,,,,,,8,2.588,1,,,,,,0.3648149,-0.396296325,1,0,0,2.5876,Pumice_rect,10,0,10,0,1,
632c211dcdf6a137b26dfdce,TCR,2024-06-20_21h39.32.756,LearnStrategy,2023.2.3,Win32,59.52380952,7,2,12,,,,,,,,7,07,,,,,,,,,,,7,1.799,1,,,,,,0.103703746,-0.378703718,1,0,0,1.7992,Peridotite_rect,11,0,11,0,1,
632c211dcdf6a137b26dfdce,TCR,2024-06-20_21h39.32.756,LearnStrategy,2023.2.3,Win32,59.52380952,7,2,13,,,,,,,,6,09,,,,,,,,,,,6,5.38,1,,,,,,-0.097222222,-0.401851866,1,0,0,5.3803,Pegmatite_rect,12,0,12,0,1,
632c211dcdf6a137b26dfdce,TCR,2024-06-20_21h39.32.756,LearnStrategy,2023.2.3,Win32,59.52380952,7,2,14,,,,,,,,4,01,,,,,,,,,,,6,4.665,0,,,,,,-0.087037051,-0.396296325,1,0,0,4.665,Pegmatite_rect,13,0,13,0,1,
632c211dcdf6a137b26dfdce,TCR,2024-06-20_21h39.32.756,LearnStrategy,2023.2.3,Win32,59.52380952,7,2,15,,,,,,,,5,05,,,,,,,,,,,5,1.092,1,,,,,,-0.351851852,-0.405555584,1,0,0,1.0921,Obsidian_rect,14,0,14,0,1,
632c211dcdf6a137b26dfdce,TCR,2024-06-20_21h39.32.756,LearnStrategy,2023.2.3,Win32,59.52380952,7,2,16,,,,,,,,1,16,,,,,,,,,,,6,10.208,0,,,,,,-0.127777735,-0.385185171,1,0,0,10.2085,Pegmatite_rect,15,0,15,0,1,
632c211dcdf6a137b26dfdce,TCR,2024-06-20_21h39.32.756,LearnStrategy,2023.2.3,Win32,59.52380952,8,1,1,0.098148134,0,1,0,0,1.0524,rock_grid_rect_2,4,05,-1,-1,1.052,-0.095370328,-0.400000042,1,0,0,0.954,Pegmatite_rect,6,0.954,0,0,0,0,0,1,,,,,,,,,,,,,
632c211dcdf6a137b26dfdce,TCR,2024-06-20_21h39.32.756,LearnStrategy,2023.2.3,Win32,59.52380952,8,1,2,0.126851894,0.014814801,1,0,0,0.7312,rock_grid_rect_2,7,16,-1,-1,0.731,-0.091666681,-0.400925954,1,0,0,1.5023,Pegmatite_rect,6,1.502,0,1,0,1,0,1,,,,,,,,,,,,,
632c211dcdf6a137b26dfdce,TCR,2024-06-20_21h39.32.756,LearnStrategy,2023.2.3,Win32,59.52380952,8,1,3,0.131481524,-0.008333347,1,0,0,0.7687,rock_grid_rect_2,2,16,-1,-1,0.769,-0.126851824,-0.234259288,1,0,0,6.6869,Basalt_rect,2,6.687,1,2,0,2,0,1,,,,,,,,,,,,,
632c211dcdf6a137b26dfdce,TCR,2024-06-20_21h39.32.756,LearnStrategy,2023.2.3,Win32,59.52380952,8,1,4,0.044444473,-0.002777771,1,0,0,0.8269,rock_grid_rect_2,1,11,-1,-1,0.827,-0.355555534,-0.236111111,1,0,0,2.975,Andesite_rect,1,2.975,1,3,0,3,0,1,,,,,,,,,,,,,
632c211dcdf6a137b26dfdce,TCR,2024-06-20_21h39.32.756,LearnStrategy,2023.2.3,Win32,59.52380952,8,1,5,0.023148148,-0.00462963,1,0,0,0.7196,rock_grid_rect_2,8,13,-1,-1,0.72,0.374074159,-0.39444443,1,0,0,0.9538,Pumice_rect,8,0.954,1,4,0,4,0,1,,,,,,,,,,,,,
632c211dcdf6a137b26dfdce,TCR,2024-06-20_21h39.32.756,LearnStrategy,2023.2.3,Win32,59.52380952,8,1,6,0.048148191,0.00462963,1,0,0,0.7158,rock_grid_rect_2,4,11,-1,-1,0.716,-0.387962942,-0.235185199,1,0,0,4.3542,Andesite_rect,1,4.354,0,5,0,5,0,1,,,,,,,,,,,,,
632c211dcdf6a137b26dfdce,TCR,2024-06-20_21h39.32.756,LearnStrategy,2023.2.3,Win32,59.52380952,8,1,7,-0.018518519,-0.01203703,1,0,0,0.6865,rock_grid_rect_2,6,10,-1,-1,0.687,-0.086111069,-0.390740783,1,0,0,1.0539,Pegmatite_rect,6,1.054,1,6,0,6,0,1,,,,,,,,,,,,,
632c211dcdf6a137b26dfdce,TCR,2024-06-20_21h39.32.756,LearnStrategy,2023.2.3,Win32,59.52380952,8,1,8,0.029629672,0.002777771,1,0,0,0.7984,rock_grid_rect_2,1,02,-1,-1,0.798,0.15370369,-0.244444459,1,0,0,3.836,Diorite_rect,3,3.836,0,7,0,7,0,1,,,,,,,,,,,,,
632c211dcdf6a137b26dfdce,TCR,2024-06-20_21h39.32.756,LearnStrategy,2023.2.3,Win32,59.52380952,8,1,9,0.032407407,0.020370377,1,0,0,2.55,rock_grid_rect_2,4,11,-1,-1,2.55,-0.356481481,-0.251851894,1,0,0,1.5305,Andesite_rect,1,1.53,0,8,0,8,0,1,,,,,,,,,,,,,
632c211dcdf6a137b26dfdce,TCR,2024-06-20_21h39.32.756,LearnStrategy,2023.2.3,Win32,59.52380952,8,1,10,0.077777792,-0.008333347,1,0,0,0.6693,rock_grid_rect_2,3,07,-1,-1,0.669,0.142592607,-0.264814801,1,0,0,2.4864,Diorite_rect,3,2.486,1,9,0,9,0,1,,,,,,,,,,,,,
632c211dcdf6a137b26dfdce,TCR,2024-06-20_21h39.32.756,LearnStrategy,2023.2.3,Win32,59.52380952,8,1,11,0.098148134,0,1,0,0,0.6299,rock_grid_rect_2,5,07,-1,-1,0.63,-0.346296275,-0.402777778,1,0,0,0.9534,Obsidian_rect,5,0.953,1,10,0,10,0,1,,,,,,,,,,,,,
632c211dcdf6a137b26dfdce,TCR,2024-06-20_21h39.32.756,LearnStrategy,2023.2.3,Win32,59.52380952,8,1,12,0.08148151,-0.014814836,1,0,0,0.6322,rock_grid_rect_2,2,11,-1,-1,0.632,-0.152777778,-0.234259288,1,0,0,2.0886,Basalt_rect,2,2.089,1,11,0,11,0,1,,,,,,,,,,,,,
632c211dcdf6a137b26dfdce,TCR,2024-06-20_21h39.32.756,LearnStrategy,2023.2.3,Win32,59.52380952,8,1,13,0.050000014,-0.0074074,1,0,0,0.5968,rock_grid_rect_2,1,11,-1,-1,0.597,-0.333333333,-0.246296282,1,0,0,2.5732,Andesite_rect,1,2.573,1,12,0,12,0,1,,,,,,,,,,,,,
632c211dcdf6a137b26dfdce,TCR,2024-06-20_21h39.32.756,LearnStrategy,2023.2.3,Win32,59.52380952,8,1,14,0.051851838,-0.005555577,1,0,0,0.6795,rock_grid_rect_2,3,11,-1,-1,0.679,0.125925912,-0.40370369,1,0,0,1.3158,Peridotite_rect,7,1.316,0,13,0,13,0,1,,,,,,,,,,,,,
632c211dcdf6a137b26dfdce,TCR,2024-06-20_21h39.32.756,LearnStrategy,2023.2.3,Win32,59.52380952,8,1,15,0.07222225,0.000925912,1,0,0,0.8996,rock_grid_rect_2,1,05,-1,-1,0.9,0.164814843,-0.241666653,1,0,0,1.0483,Diorite_rect,3,1.048,0,14,0,14,0,1,,,,,,,,,,,,,
632c211dcdf6a137b26dfdce,TCR,2024-06-20_21h39.32.756,LearnStrategy,2023.2.3,Win32,59.52380952,8,1,16,0.085185228,0.015740748,1,0,0,0.7364,rock_grid_rect_2,1,02,-1,-1,0.736,-0.355555534,-0.239814829,1,0,0,1.3126,Andesite_rect,1,1.313,1,15,0,15,0,1,,,,,,,,,,,,,
632c211dcdf6a137b26dfdce,TCR,2024-06-20_21h39.32.756,LearnStrategy,2023.2.3,Win32,59.52380952,8,2,1,,,,,,,,2,10,,,,,,,,,,,2,1.509,1,,,,,,-0.06759255,-0.235185199,1,0,0,1.5087,Basalt_rect,0,0,0,0,1,
632c211dcdf6a137b26dfdce,TCR,2024-06-20_21h39.32.756,LearnStrategy,2023.2.3,Win32,59.52380952,8,2,2,,,,,,,,7,08,,,,,,,,,,,7,1.822,1,,,,,,0.15370369,-0.383333347,1,0,0,1.8215,Peridotite_rect,1,0,1,0,1,
632c211dcdf6a137b26dfdce,TCR,2024-06-20_21h39.32.756,LearnStrategy,2023.2.3,Win32,59.52380952,8,2,3,,,,,,,,1,10,,,,,,,,,,,6,4.825,0,,,,,,-0.087962963,-0.395370413,1,0,0,4.8248,Pegmatite_rect,2,0,2,0,1,
632c211dcdf6a137b26dfdce,TCR,2024-06-20_21h39.32.756,LearnStrategy,2023.2.3,Win32,59.52380952,8,2,4,,,,,,,,7,15,,,,,,,,,,,7,1.007,1,,,,,,0.146296325,-0.383333347,1,0,0,1.0066,Peridotite_rect,3,0,3,0,1,
632c211dcdf6a137b26dfdce,TCR,2024-06-20_21h39.32.756,LearnStrategy,2023.2.3,Win32,59.52380952,8,2,5,,,,,,,,4,12,,,,,,,,,,,1,3.669,0,,,,,,-0.398148148,-0.238888917,1,0,0,3.6689,Andesite_rect,4,0,4,0,1,
632c211dcdf6a137b26dfdce,TCR,2024-06-20_21h39.32.756,LearnStrategy,2023.2.3,Win32,59.52380952,8,2,6,,,,,,,,4,16,,,,,,,,,,,2,1.065,0,,,,,,-0.093518504,-0.248148176,1,0,0,1.0652,Basalt_rect,5,0,5,0,1,
632c211dcdf6a137b26dfdce,TCR,2024-06-20_21h39.32.756,LearnStrategy,2023.2.3,Win32,59.52380952,8,2,7,,,,,,,,5,09,,,,,,,,,,,5,1.721,1,,,,,,-0.364814794,-0.400000042,1,0,0,1.7212,Obsidian_rect,6,0,6,0,1,
632c211dcdf6a137b26dfdce,TCR,2024-06-20_21h39.32.756,LearnStrategy,2023.2.3,Win32,59.52380952,8,2,8,,,,,,,,5,14,,,,,,,,,,,5,1.238,1,,,,,,-0.369444423,-0.400925954,1,0,0,1.2375,Obsidian_rect,7,0,7,0,1,
632c211dcdf6a137b26dfdce,TCR,2024-06-20_21h39.32.756,LearnStrategy,2023.2.3,Win32,59.52380952,8,2,9,,,,,,,,6,03,,,,,,,,,,,6,4.505,1,,,,,,-0.106481481,-0.39907406,1,0,0,4.5049,Pegmatite_rect,8,0,8,0,1,
632c211dcdf6a137b26dfdce,TCR,2024-06-20_21h39.32.756,LearnStrategy,2023.2.3,Win32,59.52380952,8,2,10,,,,,,,,3,13,,,,,,,,,,,7,2.087,0,,,,,,0.124074088,-0.384259259,1,0,0,2.0866,Peridotite_rect,9,0,9,0,1,
632c211dcdf6a137b26dfdce,TCR,2024-06-20_21h39.32.756,LearnStrategy,2023.2.3,Win32,59.52380952,8,2,11,,,,,,,,8,15,,,,,,,,,,,8,0.984,1,,,,,,0.37037037,-0.385185171,1,0,0,0.9843,Pumice_rect,10,0,10,0,1,
632c211dcdf6a137b26dfdce,TCR,2024-06-20_21h39.32.756,LearnStrategy,2023.2.3,Win32,59.52380952,8,2,12,,,,,,,,8,09,,,,,,,,,,,8,1.238,1,,,,,,0.417592649,-0.393518519,1,0,0,1.2384,Pumice_rect,11,0,11,0,1,
632c211dcdf6a137b26dfdce,TCR,2024-06-20_21h39.32.756,LearnStrategy,2023.2.3,Win32,59.52380952,8,2,13,,,,,,,,3,06,,,,,,,,,,,3,3.672,1,,,,,,0.123148176,-0.257407436,1,0,0,3.6721,Diorite_rect,12,0,12,0,1,
632c211dcdf6a137b26dfdce,TCR,2024-06-20_21h39.32.756,LearnStrategy,2023.2.3,Win32,59.52380952,8,2,14,,,,,,,,1,09,,,,,,,,,,,1,8.021,1,,,,,,-0.380555541,-0.236111111,1,0,0,8.0212,Andesite_rect,13,0,13,0,1,
632c211dcdf6a137b26dfdce,TCR,2024-06-20_21h39.32.756,LearnStrategy,2023.2.3,Win32,59.52380952,8,2,15,,,,,,,,2,06,,,,,,,,,,,2,0.958,1,,,,,,-0.103703675,-0.251851894,1,0,0,0.9578,Basalt_rect,14,0,14,0,1,
632c211dcdf6a137b26dfdce,TCR,2024-06-20_21h39.32.756,LearnStrategy,2023.2.3,Win32,59.52380952,8,2,16,,,,,,,,6,15,,,,,,,,,,,6,1.486,1,,,,,,-0.087962963,-0.37962963,1,0,0,1.486,Pegmatite_rect,15,0,15,0,1,
632c211dcdf6a137b26dfdce,TCR,2024-06-20_21h39.32.756,LearnStrategy,2023.2.3,Win32,59.52380952,9,1,1,0.074074074,0,1,0,0,1.5814,rock_grid_rect_2,1,06,-1,-1,1.581,-0.343518504,-0.244444459,1,0,0,4.15,Andesite_rect,1,4.15,1,0,0,0,0,1,,,,,,,,,,,,,
632c211dcdf6a137b26dfdce,TCR,2024-06-20_21h39.32.756,LearnStrategy,2023.2.3,Win32,59.52380952,9,1,2,0.062962991,-0.008333347,1,0,0,0.7334,rock_grid_rect_2,7,10,-1,-1,0.733,0.142592607,-0.384259259,1,0,0,1.0539,Peridotite_rect,7,1.054,1,1,0,1,0,1,,,,,,,,,,,,,
632c211dcdf6a137b26dfdce,TCR,2024-06-20_21h39.32.756,LearnStrategy,2023.2.3,Win32,59.52380952,9,1,3,0.031481496,0.012962942,1,0,0,0.6865,rock_grid_rect_2,4,15,-1,-1,0.686,0.138888889,-0.235185199,1,0,0,3.1205,Diorite_rect,3,3.12,0,2,0,2,0,1,,,,,,,,,,,,,
632c211dcdf6a137b26dfdce,TCR,2024-06-20_21h39.32.756,LearnStrategy,2023.2.3,Win32,59.52380952,9,1,4,0.070370356,-0.020370377,1,0,0,0.7314,rock_grid_rect_2,1,11,-1,-1,0.731,-0.39166666,-0.237963005,1,0,0,3.0582,Andesite_rect,1,3.058,1,3,0,3,0,1,,,,,,,,,,,,,
632c211dcdf6a137b26dfdce,TCR,2024-06-20_21h39.32.756,LearnStrategy,2023.2.3,Win32,59.52380952,9,1,5,0.062962991,-0.011111118,1,0,0,0.8363,rock_grid_rect_2,2,08,-1,-1,0.836,-0.090740698,-0.248148176,1,0,0,0.8875,Basalt_rect,2,0.887,1,4,0,4,0,1,,,,,,,,,,,,,
632c211dcdf6a137b26dfdce,TCR,2024-06-20_21h39.32.756,LearnStrategy,2023.2.3,Win32,59.52380952,9,1,6,0.099074116,0.015740748,1,0,0,1.2113,rock_grid_rect_2,1,06,-1,-1,1.211,-0.364814794,-0.243518547,1,0,0,2.8906,Andesite_rect,1,2.891,1,5,0,5,0,1,,,,,,,,,,,,,
632c211dcdf6a137b26dfdce,TCR,2024-06-20_21h39.32.756,LearnStrategy,2023.2.3,Win32,59.52380952,9,1,7,0.031481496,0,1,0,0,0.5864,rock_grid_rect_2,4,05,-1,-1,0.586,-0.343518504,-0.255555541,1,0,0,5.0891,Andesite_rect,1,5.089,0,6,0,6,0,1,,,,,,,,,,,,,
632c211dcdf6a137b26dfdce,TCR,2024-06-20_21h39.32.756,LearnStrategy,2023.2.3,Win32,59.52380952,9,1,8,0.078703704,0.00462963,1,0,0,0.6311,rock_grid_rect_2,6,08,-1,-1,0.631,-0.092592593,-0.400925954,1,0,0,1.1091,Pegmatite_rect,6,1.109,1,7,0,7,0,1,,,,,,,,,,,,,
632c211dcdf6a137b26dfdce,TCR,2024-06-20_21h39.32.756,LearnStrategy,2023.2.3,Win32,59.52380952,9,1,9,0.074074074,-0.001851859,1,0,0,0.6372,rock_grid_rect_2,3,11,-1,-1,0.637,0.118518547,-0.401851866,1,0,0,1.5771,Peridotite_rect,7,1.577,0,8,0,8,0,1,,,,,,,,,,,,,
632c211dcdf6a137b26dfdce,TCR,2024-06-20_21h39.32.756,LearnStrategy,2023.2.3,Win32,59.52380952,9,1,10,0.087037051,0.005555541,1,0,0,0.6806,rock_grid_rect_2,1,03,-1,-1,0.681,-0.366666653,-0.238888917,1,0,0,3.7408,Andesite_rect,1,3.741,1,9,0,9,0,1,,,,,,,,,,,,,
632c211dcdf6a137b26dfdce,TCR,2024-06-20_21h39.32.756,LearnStrategy,2023.2.3,Win32,59.52380952,9,1,11,0.062037079,0.00462963,1,0,0,0.6164,rock_grid_rect_2,8,13,-1,-1,0.616,0.341666751,-0.398148148,1,0,0,1.0462,Pumice_rect,8,1.046,1,10,0,10,0,1,,,,,,,,,,,,,
632c211dcdf6a137b26dfdce,TCR,2024-06-20_21h39.32.756,LearnStrategy,2023.2.3,Win32,59.52380952,9,1,12,0.119444459,0,1,0,0,1.2856,rock_grid_rect_2,3,16,-1,-1,1.286,0.172222208,-0.233333376,1,0,0,1.0043,Diorite_rect,3,1.004,1,11,0,11,0,1,,,,,,,,,,,,,
632c211dcdf6a137b26dfdce,TCR,2024-06-20_21h39.32.756,LearnStrategy,2023.2.3,Win32,59.52380952,9,1,13,0.065740727,-0.00462963,1,0,0,0.6333,rock_grid_rect_2,3,02,-1,-1,0.633,0.164814843,-0.249074088,1,0,0,0.7369,Diorite_rect,3,0.737,1,12,0,12,0,1,,,,,,,,,,,,,
632c211dcdf6a137b26dfdce,TCR,2024-06-20_21h39.32.756,LearnStrategy,2023.2.3,Win32,59.52380952,9,1,14,0.087962963,0.010185171,1,0,0,0.567,rock_grid_rect_2,4,11,-1,-1,0.567,-0.341666645,-0.270370413,1,0,0,4.47,Andesite_rect,1,4.47,0,13,0,13,0,1,,,,,,,,,,,,,
632c211dcdf6a137b26dfdce,TCR,2024-06-20_21h39.32.756,LearnStrategy,2023.2.3,Win32,59.52380952,9,1,15,0.062962991,-0.006481489,1,0,0,0.667,rock_grid_rect_2,5,10,-1,-1,0.667,-0.336111104,-0.398148148,1,0,0,1.046,Obsidian_rect,5,1.046,1,14,0,14,0,1,,,,,,,,,,,,,
632c211dcdf6a137b26dfdce,TCR,2024-06-20_21h39.32.756,LearnStrategy,2023.2.3,Win32,59.52380952,9,1,16,0.062037079,-0.002777771,1,0,0,0.6524,rock_grid_rect_2,4,13,-1,-1,0.652,0.433333362,-0.231481481,1,0,0,1.2205,Gabbro_rect,4,1.22,1,15,0,15,0,1,,,,,,,,,,,,,
632c211dcdf6a137b26dfdce,TCR,2024-06-20_21h39.32.756,LearnStrategy,2023.2.3,Win32,59.52380952,9,2,1,,,,,,,,1,01,,,,,,,,,,,4,4.607,0,,,,,,0.345370399,-0.262037065,1,0,0,4.6067,Gabbro_rect,0,0,0,0,1,
632c211dcdf6a137b26dfdce,TCR,2024-06-20_21h39.32.756,LearnStrategy,2023.2.3,Win32,59.52380952,9,2,2,,,,,,,,4,09,,,,,,,,,,,4,1.415,1,,,,,,0.393518519,-0.236111111,1,0,0,1.4154,Gabbro_rect,1,0,1,0,1,
632c211dcdf6a137b26dfdce,TCR,2024-06-20_21h39.32.756,LearnStrategy,2023.2.3,Win32,59.52380952,9,2,3,,,,,,,,8,05,,,,,,,,,,,8,0.941,1,,,,,,0.335185157,-0.388888889,1,0,0,0.9408,Pumice_rect,2,0,2,0,1,
632c211dcdf6a137b26dfdce,TCR,2024-06-20_21h39.32.756,LearnStrategy,2023.2.3,Win32,59.52380952,9,2,4,,,,,,,,5,08,,,,,,,,,,,5,1.021,1,,,,,,-0.373148141,-0.407407407,1,0,0,1.0211,Obsidian_rect,3,0,3,0,1,
632c211dcdf6a137b26dfdce,TCR,2024-06-20_21h39.32.756,LearnStrategy,2023.2.3,Win32,59.52380952,9,2,5,,,,,,,,3,14,,,,,,,,,,,3,1.685,1,,,,,,0.143518519,-0.235185199,1,0,0,1.6848,Diorite_rect,4,0,4,0,1,
632c211dcdf6a137b26dfdce,TCR,2024-06-20_21h39.32.756,LearnStrategy,2023.2.3,Win32,59.52380952,9,2,6,,,,,,,,6,07,,,,,,,,,,,6,1.044,1,,,,,,-0.092592593,-0.393518519,1,0,0,1.0435,Pegmatite_rect,5,0,5,0,1,
632c211dcdf6a137b26dfdce,TCR,2024-06-20_21h39.32.756,LearnStrategy,2023.2.3,Win32,59.52380952,9,2,7,,,,,,,,5,06,,,,,,,,,,,5,1.004,1,,,,,,-0.343518504,-0.389814801,1,0,0,1.0037,Obsidian_rect,6,0,6,0,1,
632c211dcdf6a137b26dfdce,TCR,2024-06-20_21h39.32.756,LearnStrategy,2023.2.3,Win32,59.52380952,9,2,8,,,,,,,,3,15,,,,,,,,,,,6,2.089,0,,,,,,-0.111111111,-0.420370384,1,0,0,2.0886,Pegmatite_rect,7,0,7,0,1,
632c211dcdf6a137b26dfdce,TCR,2024-06-20_21h39.32.756,LearnStrategy,2023.2.3,Win32,59.52380952,9,2,9,,,,,,,,6,05,,,,,,,,,,,6,1.394,1,,,,,,-0.115740741,-0.418518561,1,0,0,1.3945,Pegmatite_rect,8,0,8,0,1,
632c211dcdf6a137b26dfdce,TCR,2024-06-20_21h39.32.756,LearnStrategy,2023.2.3,Win32,59.52380952,9,2,10,,,,,,,,1,07,,,,,,,,,,,1,6.304,1,,,,,,-0.342592593,-0.262037065,1,0,0,6.3044,Andesite_rect,9,0,9,0,1,
632c211dcdf6a137b26dfdce,TCR,2024-06-20_21h39.32.756,LearnStrategy,2023.2.3,Win32,59.52380952,9,2,11,,,,,,,,7,04,,,,,,,,,,,7,1.008,1,,,,,,0.137037065,-0.402777778,1,0,0,1.0081,Peridotite_rect,10,0,10,0,1,
632c211dcdf6a137b26dfdce,TCR,2024-06-20_21h39.32.756,LearnStrategy,2023.2.3,Win32,59.52380952,9,2,12,,,,,,,,2,12,,,,,,,,,,,8,4.883,0,,,,,,0.390740712,-0.398148148,1,0,0,4.8835,Pumice_rect,11,0,11,0,1,
632c211dcdf6a137b26dfdce,TCR,2024-06-20_21h39.32.756,LearnStrategy,2023.2.3,Win32,59.52380952,9,2,13,,,,,,,,7,05,,,,,,,,,,,7,1.118,1,,,,,,0.119444459,-0.412037037,1,0,0,1.1177,Peridotite_rect,12,0,12,0,1,
632c211dcdf6a137b26dfdce,TCR,2024-06-20_21h39.32.756,LearnStrategy,2023.2.3,Win32,59.52380952,9,2,14,,,,,,,,8,06,,,,,,,,,,,8,0.959,1,,,,,,0.359259288,-0.393518519,1,0,0,0.9586,Pumice_rect,13,0,13,0,1,
632c211dcdf6a137b26dfdce,TCR,2024-06-20_21h39.32.756,LearnStrategy,2023.2.3,Win32,59.52380952,9,2,15,,,,,,,,2,14,,,,,,,,,,,8,1.723,0,,,,,,0.373148176,-0.413888931,1,0,0,1.7232,Pumice_rect,14,0,14,0,1,
632c211dcdf6a137b26dfdce,TCR,2024-06-20_21h39.32.756,LearnStrategy,2023.2.3,Win32,59.52380952,9,2,16,,,,,,,,4,14,,,,,,,,,,,3,1.999,0,,,,,,0.14444443,-0.251851894,1,0,0,1.999,Diorite_rect,15,0,15,0,1,
632c211dcdf6a137b26dfdce,TCR,2024-06-20_21h39.32.756,LearnStrategy,2023.2.3,Win32,59.52380952,,,,,,,,,,,,,,,,,,,,,,,,,,,,,,,,,,,,,,,,,,,1
632c211dcdf6a137b26dfdce,TCR,2024-06-20_21h39.32.756,LearnStrategy,2023.2.3,Win32,59.52380952,,,,,,,,,,,,,,,,,,,,,,,,,,,,,,,,,,,,,,,,,,,
632c211dcdf6a137b26dfdce,TCR,2024-06-20_21h39.32.756,LearnStrategy,2023.2.3,Win32,59.52380952,,,,,,,,,,,1,11,1,1,,,,,,,,,,,,,,,,,,,,,,,,,,,,,
632c211dcdf6a137b26dfdce,TCR,2024-06-20_21h39.32.756,LearnStrategy,2023.2.3,Win32,59.52380952,,,,,,,,,,,6,16,1,2,,,,,,,,,,,,,,,,,,,,,,,,,,,,,
632c211dcdf6a137b26dfdce,TCR,2024-06-20_21h39.32.756,LearnStrategy,2023.2.3,Win32,59.52380952,,,,,,,,,,,7,06,1,3,,,,,,,,,,,,,,,,,,,,,,,,,,,,,
632c211dcdf6a137b26dfdce,TCR,2024-06-20_21h39.32.756,LearnStrategy,2023.2.3,Win32,59.52380952,,,,,,,,,,,5,04,1,4,,,,,,,,,,,,,,,,,,,,,,,,,,,,,
632c211dcdf6a137b26dfdce,TCR,2024-06-20_21h39.32.756,LearnStrategy,2023.2.3,Win32,59.52380952,,,,,,,,,,,3,12,1,5,,,,,,,,,,,,,,,,,,,,,,,,,,,,,
632c211dcdf6a137b26dfdce,TCR,2024-06-20_21h39.32.756,LearnStrategy,2023.2.3,Win32,59.52380952,,,,,,,,,,,8,10,1,6,,,,,,,,,,,,,,,,,,,,,,,,,,,,,
632c211dcdf6a137b26dfdce,TCR,2024-06-20_21h39.32.756,LearnStrategy,2023.2.3,Win32,59.52380952,,,,,,,,,,,4,13,1,7,,,,,,,,,,,,,,,,,,,,,,,,,,,,,
632c211dcdf6a137b26dfdce,TCR,2024-06-20_21h39.32.756,LearnStrategy,2023.2.3,Win32,59.52380952,,,,,,,,,,,4,08,1,8,,,,,,,,,,,,,,,,,,,,,,,,,,,,,
632c211dcdf6a137b26dfdce,TCR,2024-06-20_21h39.32.756,LearnStrategy,2023.2.3,Win32,59.52380952,,,,,,,,,,,3,10,2,1,,,,,,,,,,,,,,,,,,,,,,,,,,,,,
632c211dcdf6a137b26dfdce,TCR,2024-06-20_21h39.32.756,LearnStrategy,2023.2.3,Win32,59.52380952,,,,,,,,,,,7,10,2,2,,,,,,,,,,,,,,,,,,,,,,,,,,,,,
632c211dcdf6a137b26dfdce,TCR,2024-06-20_21h39.32.756,LearnStrategy,2023.2.3,Win32,59.52380952,,,,,,,,,,,8,08,2,3,,,,,,,,,,,,,,,,,,,,,,,,,,,,,
632c211dcdf6a137b26dfdce,TCR,2024-06-20_21h39.32.756,LearnStrategy,2023.2.3,Win32,59.52380952,,,,,,,,,,,3,02,2,4,,,,,,,,,,,,,,,,,,,,,,,,,,,,,
632c211dcdf6a137b26dfdce,TCR,2024-06-20_21h39.32.756,LearnStrategy,2023.2.3,Win32,59.52380952,,,,,,,,,,,1,02,2,5,,,,,,,,,,,,,,,,,,,,,,,,,,,,,
632c211dcdf6a137b26dfdce,TCR,2024-06-20_21h39.32.756,LearnStrategy,2023.2.3,Win32,59.52380952,,,,,,,,,,,3,11,2,6,,,,,,,,,,,,,,,,,,,,,,,,,,,,,
632c211dcdf6a137b26dfdce,TCR,2024-06-20_21h39.32.756,LearnStrategy,2023.2.3,Win32,59.52380952,,,,,,,,,,,5,11,2,7,,,,,,,,,,,,,,,,,,,,,,,,,,,,,
632c211dcdf6a137b26dfdce,TCR,2024-06-20_21h39.32.756,LearnStrategy,2023.2.3,Win32,59.52380952,,,,,,,,,,,5,10,2,8,,,,,,,,,,,,,,,,,,,,,,,,,,,,,
632c211dcdf6a137b26dfdce,TCR,2024-06-20_21h39.32.756,LearnStrategy,2023.2.3,Win32,59.52380952,,,,,,,,,,,7,02,3,1,,,,,,,,,,,,,,,,,,,,,,,,,,,,,
632c211dcdf6a137b26dfdce,TCR,2024-06-20_21h39.32.756,LearnStrategy,2023.2.3,Win32,59.52380952,,,,,,,,,,,4,11,3,2,,,,,,,,,,,,,,,,,,,,,,,,,,,,,
632c211dcdf6a137b26dfdce,TCR,2024-06-20_21h39.32.756,LearnStrategy,2023.2.3,Win32,59.52380952,,,,,,,,,,,4,05,3,3,,,,,,,,,,,,,,,,,,,,,,,,,,,,,
632c211dcdf6a137b26dfdce,TCR,2024-06-20_21h39.32.756,LearnStrategy,2023.2.3,Win32,59.52380952,,,,,,,,,,,5,07,3,4,,,,,,,,,,,,,,,,,,,,,,,,,,,,,
632c211dcdf6a137b26dfdce,TCR,2024-06-20_21h39.32.756,LearnStrategy,2023.2.3,Win32,59.52380952,,,,,,,,,,,2,11,3,5,,,,,,,,,,,,,,,,,,,,,,,,,,,,,
632c211dcdf6a137b26dfdce,TCR,2024-06-20_21h39.32.756,LearnStrategy,2023.2.3,Win32,59.52380952,,,,,,,,,,,6,13,3,6,,,,,,,,,,,,,,,,,,,,,,,,,,,,,
632c211dcdf6a137b26dfdce,TCR,2024-06-20_21h39.32.756,LearnStrategy,2023.2.3,Win32,59.52380952,,,,,,,,,,,2,08,3,7,,,,,,,,,,,,,,,,,,,,,,,,,,,,,
632c211dcdf6a137b26dfdce,TCR,2024-06-20_21h39.32.756,LearnStrategy,2023.2.3,Win32,59.52380952,,,,,,,,,,,7,12,3,8,,,,,,,,,,,,,,,,,,,,,,,,,,,,,
632c211dcdf6a137b26dfdce,TCR,2024-06-20_21h39.32.756,LearnStrategy,2023.2.3,Win32,59.52380952,,,,,,,,,,,7,14,4,1,,,,,,,,,,,,,,,,,,,,,,,,,,,,,
632c211dcdf6a137b26dfdce,TCR,2024-06-20_21h39.32.756,LearnStrategy,2023.2.3,Win32,59.52380952,,,,,,,,,,,6,12,4,2,,,,,,,,,,,,,,,,,,,,,,,,,,,,,
632c211dcdf6a137b26dfdce,TCR,2024-06-20_21h39.32.756,LearnStrategy,2023.2.3,Win32,59.52380952,,,,,,,,,,,7,16,4,3,,,,,,,,,,,,,,,,,,,,,,,,,,,,,
632c211dcdf6a137b26dfdce,TCR,2024-06-20_21h39.32.756,LearnStrategy,2023.2.3,Win32,59.52380952,,,,,,,,,,,2,09,4,4,,,,,,,,,,,,,,,,,,,,,,,,,,,,,
632c211dcdf6a137b26dfdce,TCR,2024-06-20_21h39.32.756,LearnStrategy,2023.2.3,Win32,59.52380952,,,,,,,,,,,8,03,4,5,,,,,,,,,,,,,,,,,,,,,,,,,,,,,
632c211dcdf6a137b26dfdce,TCR,2024-06-20_21h39.32.756,LearnStrategy,2023.2.3,Win32,59.52380952,,,,,,,,,,,2,16,4,6,,,,,,,,,,,,,,,,,,,,,,,,,,,,,
632c211dcdf6a137b26dfdce,TCR,2024-06-20_21h39.32.756,LearnStrategy,2023.2.3,Win32,59.52380952,,,,,,,,,,,8,04,4,7,,,,,,,,,,,,,,,,,,,,,,,,,,,,,
632c211dcdf6a137b26dfdce,TCR,2024-06-20_21h39.32.756,LearnStrategy,2023.2.3,Win32,59.52380952,,,,,,,,,,,4,15,4,8,,,,,,,,,,,,,,,,,,,,,,,,,,,,,
632c211dcdf6a137b26dfdce,TCR,2024-06-20_21h39.32.756,LearnStrategy,2023.2.3,Win32,59.52380952,,,,,,,,,,,2,02,5,1,,,,,,,,,,,,,,,,,,,,,,,,,,,,,
632c211dcdf6a137b26dfdce,TCR,2024-06-20_21h39.32.756,LearnStrategy,2023.2.3,Win32,59.52380952,,,,,,,,,,,6,10,5,2,,,,,,,,,,,,,,,,,,,,,,,,,,,,,
632c211dcdf6a137b26dfdce,TCR,2024-06-20_21h39.32.756,LearnStrategy,2023.2.3,Win32,59.52380952,,,,,,,,,,,3,16,5,3,,,,,,,,,,,,,,,,,,,,,,,,,,,,,
632c211dcdf6a137b26dfdce,TCR,2024-06-20_21h39.32.756,LearnStrategy,2023.2.3,Win32,59.52380952,,,,,,,,,,,6,11,5,4,,,,,,,,,,,,,,,,,,,,,,,,,,,,,
632c211dcdf6a137b26dfdce,TCR,2024-06-20_21h39.32.756,LearnStrategy,2023.2.3,Win32,59.52380952,,,,,,,,,,,1,03,5,5,,,,,,,,,,,,,,,,,,,,,,,,,,,,,
632c211dcdf6a137b26dfdce,TCR,2024-06-20_21h39.32.756,LearnStrategy,2023.2.3,Win32,59.52380952,,,,,,,,,,,1,14,5,6,,,,,,,,,,,,,,,,,,,,,,,,,,,,,
632c211dcdf6a137b26dfdce,TCR,2024-06-20_21h39.32.756,LearnStrategy,2023.2.3,Win32,59.52380952,,,,,,,,,,,4,03,5,7,,,,,,,,,,,,,,,,,,,,,,,,,,,,,
632c211dcdf6a137b26dfdce,TCR,2024-06-20_21h39.32.756,LearnStrategy,2023.2.3,Win32,59.52380952,,,,,,,,,,,6,08,5,8,,,,,,,,,,,,,,,,,,,,,,,,,,,,,
632c211dcdf6a137b26dfdce,TCR,2024-06-20_21h39.32.756,LearnStrategy,2023.2.3,Win32,59.52380952,,,,,,,,,,,1,05,6,1,,,,,,,,,,,,,,,,,,,,,,,,,,,,,
632c211dcdf6a137b26dfdce,TCR,2024-06-20_21h39.32.756,LearnStrategy,2023.2.3,Win32,59.52380952,,,,,,,,,,,5,02,6,2,,,,,,,,,,,,,,,,,,,,,,,,,,,,,
632c211dcdf6a137b26dfdce,TCR,2024-06-20_21h39.32.756,LearnStrategy,2023.2.3,Win32,59.52380952,,,,,,,,,,,2,05,6,3,,,,,,,,,,,,,,,,,,,,,,,,,,,,,
632c211dcdf6a137b26dfdce,TCR,2024-06-20_21h39.32.756,LearnStrategy,2023.2.3,Win32,59.52380952,,,,,,,,,,,5,16,6,4,,,,,,,,,,,,,,,,,,,,,,,,,,,,,
632c211dcdf6a137b26dfdce,TCR,2024-06-20_21h39.32.756,LearnStrategy,2023.2.3,Win32,59.52380952,,,,,,,,,,,8,13,6,5,,,,,,,,,,,,,,,,,,,,,,,,,,,,,
632c211dcdf6a137b26dfdce,TCR,2024-06-20_21h39.32.756,LearnStrategy,2023.2.3,Win32,59.52380952,,,,,,,,,,,8,02,6,6,,,,,,,,,,,,,,,,,,,,,,,,,,,,,
632c211dcdf6a137b26dfdce,TCR,2024-06-20_21h39.32.756,LearnStrategy,2023.2.3,Win32,59.52380952,,,,,,,,,,,3,07,6,7,,,,,,,,,,,,,,,,,,,,,,,,,,,,,
632c211dcdf6a137b26dfdce,TCR,2024-06-20_21h39.32.756,LearnStrategy,2023.2.3,Win32,59.52380952,,,,,,,,,,,1,06,6,8,,,,,,,,,,,,,,,,,,,,,,,,,,,,,