participant,condition,date,expName,psychopyVersion,OS,frameRate,block,phase,trial,learn_mouse.x,learn_mouse.y,learn_mouse.leftButton,learn_mouse.midButton,learn_mouse.rightButton,learn_mouse.time,learn_mouse.clicked_name,cat,token,row,col,t_select,cat_rec,token_rec,cat_mouse_l.x,cat_mouse_l.y,cat_mouse_l.leftButton,cat_mouse_l.midButton,cat_mouse_l.rightButton,cat_mouse_l.time,cat_mouse_l.clicked_name,resp,t_resp,corr,train_trials.thisRepN,train_trials.thisTrialN,train_trials.thisN,train_trials.thisIndex,train_trials.ran,cat_mouse_t.x,cat_mouse_t.y,cat_mouse_t.leftButton,cat_mouse_t.midButton,cat_mouse_t.rightButton,cat_mouse_t.time,cat_mouse_t.clicked_name,test_trials.thisRepN,test_trials.thisTrialN,test_trials.thisN,test_trials.thisIndex,test_trials.ran,Bonus
633a35fc5b65d7fa6965c176,SCR,2024-06-24_14h37.30.825,LearnStrategy,2023.2.3,Win32,2.727024816,,,,,,,,,,,,,,,,,,,,,,,,,,,,,,,,,,,,,,,,,,,,,
633a35fc5b65d7fa6965c176,SCR,2024-06-24_14h37.30.825,LearnStrategy,2023.2.3,Win32,2.727024816,1,1,1,0.542943016,-0.399099099,1,0,0,13.2206,Peridotite_04,7,04,1,8,13.221,8,04,0.151351351,-0.394294313,1,0,0,19.2581,Peridotite_rect,7,19.258,1,0,0,0,0,1,,,,,,,,,,,,,
633a35fc5b65d7fa6965c176,SCR,2024-06-24_14h37.30.825,LearnStrategy,2023.2.3,Win32,2.727024816,1,1,2,0.395195269,0.08858857,1,0,0,10.5286,Pumice_06,8,06,4,7,10.529,3,14,-0.183783784,-0.254354391,1,0,0,16.2831,Basalt_rect,2,16.283,0,1,0,1,0,1,,,,,,,,,,,,,
633a35fc5b65d7fa6965c176,SCR,2024-06-24_14h37.30.825,LearnStrategy,2023.2.3,Win32,2.727024816,1,1,3,0.527327364,0.078378378,1,0,0,3.8052,Andesite_04,1,04,4,8,3.805,4,03,0.183783784,-0.392492511,1,0,0,3.7609,Peridotite_rect,7,3.761,0,2,0,2,0,1,,,,,,,,,,,,,
633a35fc5b65d7fa6965c176,SCR,2024-06-24_14h37.30.825,LearnStrategy,2023.2.3,Win32,2.727024816,1,1,4,-0.387387387,-0.068168186,1,0,0,2.1213,Pegmatite_11,6,11,3,2,2.121,6,11,-0.40840839,-0.385885923,1,0,0,9.712,Obsidian_rect,5,9.712,0,3,0,3,0,1,,,,,,,,,,,,,
633a35fc5b65d7fa6965c176,SCR,2024-06-24_14h37.30.825,LearnStrategy,2023.2.3,Win32,2.727024816,1,1,5,0.224624661,-0.272972973,1,0,0,2.9709,Obsidian_02,5,02,2,6,2.971,5,02,-0.404804786,-0.384084121,1,0,0,8.2095,Obsidian_rect,5,8.21,1,4,0,4,0,1,,,,,,,,,,,,,
633a35fc5b65d7fa6965c176,SCR,2024-06-24_14h37.30.825,LearnStrategy,2023.2.3,Win32,2.727024816,1,1,6,0.407807881,-0.251351351,1,0,0,4.9192,Gabbro_13,4,13,2,7,4.919,2,02,0.375375449,-0.259159177,1,0,0,3.8201,Gabbro_rect,4,3.82,1,5,0,5,0,1,,,,,,,,,,,,,
633a35fc5b65d7fa6965c176,SCR,2024-06-24_14h37.30.825,LearnStrategy,2023.2.3,Win32,2.727024816,1,1,7,0.398798872,-0.391291328,1,0,0,23.5204,Basalt_10,2,10,1,7,23.52,2,10,0.353153153,-0.387087105,1,0,0,11.1666,Pumice_rect,8,11.167,0,6,0,6,0,1,,,,,,,,,,,,,
633a35fc5b65d7fa6965c176,SCR,2024-06-24_14h37.30.825,LearnStrategy,2023.2.3,Win32,2.727024816,1,1,8,0.037237274,-0.203903941,1,0,0,2.2377,Andesite_10,1,10,2,5,2.238,1,10,-0.305705687,-0.242942961,1,0,0,12.4381,Andesite_rect,1,12.438,1,7,0,7,0,1,,,,,,,,,,,,,
633a35fc5b65d7fa6965c176,SCR,2024-06-24_14h37.30.825,LearnStrategy,2023.2.3,Win32,2.727024816,1,1,9,-0.5183183,0.067567568,1,0,0,5.5639,Diorite_09,3,09,4,1,5.564,3,09,0.077477477,-0.245345382,1,0,0,8.4865,Diorite_rect,3,8.486,1,8,0,8,0,1,,,,,,,,,,,,,
633a35fc5b65d7fa6965c176,SCR,2024-06-24_14h37.30.825,LearnStrategy,2023.2.3,Win32,2.727024816,1,1,10,0.080480517,0.084984967,1,0,0,6.7255,Peridotite_16,7,16,4,5,6.726,7,16,-0.350750732,-0.389489526,1,0,0,8.9289,Obsidian_rect,5,8.929,0,9,0,9,0,1,,,,,,,,,,,,,
633a35fc5b65d7fa6965c176,SCR,2024-06-24_14h37.30.825,LearnStrategy,2023.2.3,Win32,2.727024816,1,1,11,0.551351351,-0.370870889,1,0,0,13.162,Peridotite_04,7,04,1,8,13.162,7,04,0.127327364,-0.406906925,1,0,0,11.9339,Peridotite_rect,7,11.934,1,10,0,10,0,1,,,,,,,,,,,,,
633a35fc5b65d7fa6965c176,SCR,2024-06-24_14h37.30.825,LearnStrategy,2023.2.3,Win32,2.727024816,1,1,12,-0.237237219,0.296996988,1,0,0,2.2669,Pegmatite_05,6,05,5,3,2.267,6,05,-0.10990991,-0.268768805,1,0,0,5.93,Basalt_rect,2,5.93,0,11,0,11,0,1,,,,,,,,,,,,,
633a35fc5b65d7fa6965c176,SCR,2024-06-24_14h37.30.825,LearnStrategy,2023.2.3,Win32,2.727024816,1,1,13,0.521321395,0.080780772,1,0,0,2.6253,Andesite_04,1,04,4,8,2.625,1,04,0.117717736,-0.388888907,1,0,0,2.8101,Peridotite_rect,7,2.81,0,12,0,12,0,1,,,,,,,,,,,,,
633a35fc5b65d7fa6965c176,SCR,2024-06-24_14h37.30.825,LearnStrategy,2023.2.3,Win32,2.727024816,1,1,14,0.275675676,0.090990991,1,0,0,3.8328,Gabbro_08,4,08,4,6,3.833,4,08,-0.35915915,-0.255555574,1,0,0,19.8411,Andesite_rect,1,19.841,0,13,0,13,0,1,,,,,,,,,,,,,
633a35fc5b65d7fa6965c176,SCR,2024-06-24_14h37.30.825,LearnStrategy,2023.2.3,Win32,2.727024816,1,1,15,0.40300304,0.084984967,1,0,0,13.7518,Pumice_06,8,06,4,7,13.752,8,06,0.352552589,-0.382282319,1,0,0,2.0328,Pumice_rect,8,2.033,1,14,0,14,0,1,,,,,,,,,,,,,
633a35fc5b65d7fa6965c176,SCR,2024-06-24_14h37.30.825,LearnStrategy,2023.2.3,Win32,2.727024816,1,1,16,0.398798872,-0.117417454,1,0,0,1.898,Obsidian_12,5,12,3,7,1.898,5,12,-0.336936937,-0.397297297,1,0,0,7.5257,Obsidian_rect,5,7.526,1,15,0,15,0,1,,,,,,,,,,,,,
633a35fc5b65d7fa6965c176,SCR,2024-06-24_14h37.30.825,LearnStrategy,2023.2.3,Win32,2.727024816,1,2,1,,,,,,,,3,16,,,,,,,,,,,,,4,6.612,0,,,,,,0.345345382,-0.247147184,1,0,0,6.6123,Gabbro_rect,0,0,0,0,1,
633a35fc5b65d7fa6965c176,SCR,2024-06-24_14h37.30.825,LearnStrategy,2023.2.3,Win32,2.727024816,1,2,2,,,,,,,,1,06,,,,,,,,,,,,,7,4.552,0,,,,,,0.165765766,-0.385285304,1,0,0,4.5517,Peridotite_rect,1,0,1,0,1,
633a35fc5b65d7fa6965c176,SCR,2024-06-24_14h37.30.825,LearnStrategy,2023.2.3,Win32,2.727024816,1,2,3,,,,,,,,8,15,,,,,,,,,,,,,8,2.578,1,,,,,,0.34354358,-0.389489526,1,0,0,2.5782,Pumice_rect,2,0,2,0,1,
633a35fc5b65d7fa6965c176,SCR,2024-06-24_14h37.30.825,LearnStrategy,2023.2.3,Win32,2.727024816,1,2,4,,,,,,,,2,16,,,,,,,,,,,,,6,8.858,0,,,,,,-0.097297297,-0.400900901,1,0,0,8.8578,Pegmatite_rect,3,0,3,0,1,
633a35fc5b65d7fa6965c176,SCR,2024-06-24_14h37.30.825,LearnStrategy,2023.2.3,Win32,2.727024816,1,2,5,,,,,,,,4,14,,,,,,,,,,,,,7,3.221,0,,,,,,0.087087105,-0.39009009,1,0,0,3.2205,Peridotite_rect,4,0,4,0,1,
633a35fc5b65d7fa6965c176,SCR,2024-06-24_14h37.30.825,LearnStrategy,2023.2.3,Win32,2.727024816,1,2,6,,,,,,,,3,11,,,,,,,,,,,,,2,6.494,0,,,,,,-0.110510474,-0.266366385,1,0,0,6.4939,Basalt_rect,5,0,5,0,1,
633a35fc5b65d7fa6965c176,SCR,2024-06-24_14h37.30.825,LearnStrategy,2023.2.3,Win32,2.727024816,1,2,7,,,,,,,,7,15,,,,,,,,,,,,,5,2.225,0,,,,,,-0.348348339,-0.397897916,1,0,0,2.2254,Obsidian_rect,6,0,6,0,1,
633a35fc5b65d7fa6965c176,SCR,2024-06-24_14h37.30.825,LearnStrategy,2023.2.3,Win32,2.727024816,1,2,8,,,,,,,,7,13,,,,,,,,,,,,,5,3.447,0,,,,,,-0.348348339,-0.397897916,1,0,0,3.447,Obsidian_rect,7,0,7,0,1,
633a35fc5b65d7fa6965c176,SCR,2024-06-24_14h37.30.825,LearnStrategy,2023.2.3,Win32,2.727024816,1,2,9,,,,,,,,6,03,,,,,,,,,,,,,4,4.543,0,,,,,,0.325525562,-0.259759796,1,0,0,4.543,Gabbro_rect,8,0,8,0,1,
633a35fc5b65d7fa6965c176,SCR,2024-06-24_14h37.30.825,LearnStrategy,2023.2.3,Win32,2.727024816,1,2,10,,,,,,,,1,01,,,,,,,,,,,,,4,6.473,0,,,,,,0.34654662,-0.258558559,1,0,0,6.4733,Gabbro_rect,9,0,9,0,1,
633a35fc5b65d7fa6965c176,SCR,2024-06-24_14h37.30.825,LearnStrategy,2023.2.3,Win32,2.727024816,1,2,11,,,,,,,,5,14,,,,,,,,,,,,,3,6.192,0,,,,,,0.106306306,-0.261561598,1,0,0,6.1915,Diorite_rect,10,0,10,0,1,
633a35fc5b65d7fa6965c176,SCR,2024-06-24_14h37.30.825,LearnStrategy,2023.2.3,Win32,2.727024816,1,2,12,,,,,,,,6,16,,,,,,,,,,,,,6,9.585,1,,,,,,-0.162762726,-0.391891892,1,0,0,9.5849,Pegmatite_rect,11,0,11,0,1,
633a35fc5b65d7fa6965c176,SCR,2024-06-24_14h37.30.825,LearnStrategy,2023.2.3,Win32,2.727024816,1,2,13,,,,,,,,2,06,,,,,,,,,,,,,5,2.623,0,,,,,,-0.350750732,-0.392492511,1,0,0,2.623,Obsidian_rect,12,0,12,0,1,
633a35fc5b65d7fa6965c176,SCR,2024-06-24_14h37.30.825,LearnStrategy,2023.2.3,Win32,2.727024816,1,2,14,,,,,,,,8,05,,,,,,,,,,,,,8,5.119,1,,,,,,0.324324324,-0.40150152,1,0,0,5.1193,Pumice_rect,13,0,13,0,1,
633a35fc5b65d7fa6965c176,SCR,2024-06-24_14h37.30.825,LearnStrategy,2023.2.3,Win32,2.727024816,1,2,15,,,,,,,,5,04,,,,,,,,,,,,,5,2.7,1,,,,,,-0.363363345,-0.383483502,1,0,0,2.7003,Obsidian_rect,14,0,14,0,1,
633a35fc5b65d7fa6965c176,SCR,2024-06-24_14h37.30.825,LearnStrategy,2023.2.3,Win32,2.727024816,1,2,16,,,,,,,,4,01,,,,,,,,,,,,,6,5.268,0,,,,,,-0.169369369,-0.396096114,1,0,0,5.2675,Pegmatite_rect,15,0,15,0,1,
633a35fc5b65d7fa6965c176,SCR,2024-06-24_14h37.30.825,LearnStrategy,2023.2.3,Win32,2.727024816,2,1,1,0.567567568,-0.234534571,1,0,0,9.4598,Pegmatite_10,6,10,2,8,9.46,6,10,-0.374774775,-0.378078096,1,0,0,13.2358,Obsidian_rect,5,13.236,0,0,0,0,0,1,,,,,,,,,,,,,
633a35fc5b65d7fa6965c176,SCR,2024-06-24_14h37.30.825,LearnStrategy,2023.2.3,Win32,2.727024816,2,1,2,-0.514114105,0.068168159,1,0,0,5.8562,Diorite_09,3,09,4,1,5.856,3,09,0.111111148,-0.235135135,1,0,0,2.8551,Diorite_rect,3,2.855,1,1,0,1,0,1,,,,,,,,,,,,,
633a35fc5b65d7fa6965c176,SCR,2024-06-24_14h37.30.825,LearnStrategy,2023.2.3,Win32,2.727024816,2,1,3,-0.044444426,-0.128228265,1,0,0,3.3013,Obsidian_05,5,05,3,4,3.301,5,05,0.095495495,-0.388888907,1,0,0,3.5005,Peridotite_rect,7,3.5,0,2,0,2,0,1,,,,,,,,,,,,,
633a35fc5b65d7fa6965c176,SCR,2024-06-24_14h37.30.825,LearnStrategy,2023.2.3,Win32,2.727024816,2,1,4,0.094294313,-0.121621622,1,0,0,1.57,Peridotite_12,7,12,3,5,1.57,7,12,-0.350150141,-0.385285304,1,0,0,11.5766,Obsidian_rect,5,11.577,0,3,0,3,0,1,,,,,,,,,,,,,
633a35fc5b65d7fa6965c176,SCR,2024-06-24_14h37.30.825,LearnStrategy,2023.2.3,Win32,2.727024816,2,1,5,-0.233032996,-0.098198198,1,0,0,1.8088,Obsidian_06,5,06,3,3,1.809,5,06,-0.377177168,-0.396696733,1,0,0,10.1992,Obsidian_rect,5,10.199,1,4,0,4,0,1,,,,,,,,,,,,,
633a35fc5b65d7fa6965c176,SCR,2024-06-24_14h37.30.825,LearnStrategy,2023.2.3,Win32,2.727024816,2,1,6,0.060660697,0.246546537,1,0,0,5.6372,Basalt_11,2,11,5,5,5.637,2,11,-0.368168159,-0.39009009,1,0,0,17.4693,Obsidian_rect,5,17.469,0,5,0,5,0,1,,,,,,,,,,,,,
633a35fc5b65d7fa6965c176,SCR,2024-06-24_14h37.30.825,LearnStrategy,2023.2.3,Win32,2.727024816,2,1,7,-0.065465429,0.365465456,1,0,0,2.007,Andesite_16,1,16,6,4,2.007,1,16,0.111111148,-0.390690709,1,0,0,6.106,Peridotite_rect,7,6.106,0,6,0,6,0,1,,,,,,,,,,,,,
633a35fc5b65d7fa6965c176,SCR,2024-06-24_14h37.30.825,LearnStrategy,2023.2.3,Win32,2.727024816,2,1,8,-0.548348339,0.10840839,1,0,0,1.5073,Diorite_09,3,09,4,1,1.507,3,09,0.148948986,-0.247147184,1,0,0,7.5247,Diorite_rect,3,7.525,1,7,0,7,0,1,,,,,,,,,,,,,
633a35fc5b65d7fa6965c176,SCR,2024-06-24_14h37.30.825,LearnStrategy,2023.2.3,Win32,2.727024816,2,1,9,0.228228265,0.087987979,1,0,0,1.8092,Gabbro_08,4,08,4,6,1.809,4,08,0.415615652,-0.387087105,1,0,0,3.3584,Pumice_rect,8,3.358,0,8,0,8,0,1,,,,,,,,,,,,,
633a35fc5b65d7fa6965c176,SCR,2024-06-24_14h37.30.825,LearnStrategy,2023.2.3,Win32,2.727024816,2,1,10,-0.537537528,0.238738739,1,0,0,1.7662,Basalt_14,2,14,5,1,1.766,2,14,-0.320120102,-0.234534571,1,0,0,2.0486,Andesite_rect,1,2.049,0,9,0,9,0,1,,,,,,,,,,,,,
633a35fc5b65d7fa6965c176,SCR,2024-06-24_14h37.30.825,LearnStrategy,2023.2.3,Win32,2.727024816,2,1,11,0.071471508,-0.248348367,1,0,0,3.5378,Andesite_10,1,10,2,5,3.538,1,10,-0.10990991,-0.382282319,1,0,0,3.4793,Pegmatite_rect,6,3.479,0,10,0,10,0,1,,,,,,,,,,,,,
633a35fc5b65d7fa6965c176,SCR,2024-06-24_14h37.30.825,LearnStrategy,2023.2.3,Win32,2.727024816,2,1,12,0.278678715,0.136036036,1,0,0,1.5335,Gabbro_08,4,08,4,6,1.534,4,08,-0.354954955,-0.266967004,1,0,0,2.853,Andesite_rect,1,2.853,0,11,0,11,0,1,,,,,,,,,,,,,
633a35fc5b65d7fa6965c176,SCR,2024-06-24_14h37.30.825,LearnStrategy,2023.2.3,Win32,2.727024816,2,1,13,-0.582582573,0.413513514,1,0,0,3.2985,Gabbro_09,4,09,6,1,3.299,4,09,0.130930968,-0.39009009,1,0,0,3.8156,Peridotite_rect,7,3.816,0,12,0,12,0,1,,,,,,,,,,,,,
633a35fc5b65d7fa6965c176,SCR,2024-06-24_14h37.30.825,LearnStrategy,2023.2.3,Win32,2.727024816,2,1,14,0.544144144,-0.37027027,1,0,0,1.7812,Peridotite_04,7,04,1,8,1.781,7,04,0.192192229,-0.405705742,1,0,0,2.2709,Peridotite_rect,7,2.271,1,13,0,13,0,1,,,,,,,,,,,,,
633a35fc5b65d7fa6965c176,SCR,2024-06-24_14h37.30.825,LearnStrategy,2023.2.3,Win32,2.727024816,2,1,15,0.066066103,-0.382882883,1,0,0,1.7817,Peridotite_08,7,08,1,5,1.782,7,08,0.174774775,-0.394894932,1,0,0,4.6408,Peridotite_rect,7,4.641,1,14,0,14,0,1,,,,,,,,,,,,,
633a35fc5b65d7fa6965c176,SCR,2024-06-24_14h37.30.825,LearnStrategy,2023.2.3,Win32,2.727024816,2,1,16,-0.375975958,-0.101801802,1,0,0,1.5397,Pegmatite_11,6,11,3,2,1.54,6,11,-0.307507489,-0.400900901,1,0,0,7.5275,Obsidian_rect,5,7.527,0,15,0,15,0,1,,,,,,,,,,,,,
633a35fc5b65d7fa6965c176,SCR,2024-06-24_14h37.30.825,LearnStrategy,2023.2.3,Win32,2.727024816,2,2,1,,,,,,,,7,02,,,,,,,,,,,,,5,9.971,0,,,,,,-0.42822821,-0.396096114,1,0,0,9.9708,Obsidian_rect,0,0,0,0,1,
633a35fc5b65d7fa6965c176,SCR,2024-06-24_14h37.30.825,LearnStrategy,2023.2.3,Win32,2.727024816,2,2,2,,,,,,,,5,10,,,,,,,,,,,,,4,3.077,0,,,,,,0.310510584,-0.265165202,1,0,0,3.0774,Gabbro_rect,1,0,1,0,1,
633a35fc5b65d7fa6965c176,SCR,2024-06-24_14h37.30.825,LearnStrategy,2023.2.3,Win32,2.727024816,2,2,3,,,,,,,,1,07,,,,,,,,,,,,,7,3.161,0,,,,,,0.165765766,-0.399099099,1,0,0,3.1609,Peridotite_rect,2,0,2,0,1,
633a35fc5b65d7fa6965c176,SCR,2024-06-24_14h37.30.825,LearnStrategy,2023.2.3,Win32,2.727024816,2,2,4,,,,,,,,3,10,,,,,,,,,,,,,3,2.078,1,,,,,,0.091291328,-0.237537556,1,0,0,2.078,Diorite_rect,3,0,3,0,1,
633a35fc5b65d7fa6965c176,SCR,2024-06-24_14h37.30.825,LearnStrategy,2023.2.3,Win32,2.727024816,2,2,5,,,,,,,,1,05,,,,,,,,,,,,,7,1.649,0,,,,,,0.12132134,-0.405105123,1,0,0,1.6489,Peridotite_rect,4,0,4,0,1,
633a35fc5b65d7fa6965c176,SCR,2024-06-24_14h37.30.825,LearnStrategy,2023.2.3,Win32,2.727024816,2,2,6,,,,,,,,5,16,,,,,,,,,,,,,5,6.781,1,,,,,,-0.37897897,-0.391891892,1,0,0,6.781,Obsidian_rect,5,0,5,0,1,
633a35fc5b65d7fa6965c176,SCR,2024-06-24_14h37.30.825,LearnStrategy,2023.2.3,Win32,2.727024816,2,2,7,,,,,,,,8,13,,,,,,,,,,,,,8,2.523,1,,,,,,0.417417454,-0.414714751,1,0,0,2.5227,Pumice_rect,6,0,6,0,1,
633a35fc5b65d7fa6965c176,SCR,2024-06-24_14h37.30.825,LearnStrategy,2023.2.3,Win32,2.727024816,2,2,8,,,,,,,,4,05,,,,,,,,,,,,,7,2.869,0,,,,,,0.121921959,-0.388888907,1,0,0,2.8685,Peridotite_rect,7,0,7,0,1,
633a35fc5b65d7fa6965c176,SCR,2024-06-24_14h37.30.825,LearnStrategy,2023.2.3,Win32,2.727024816,2,2,9,,,,,,,,2,09,,,,,,,,,,,,,1,8.846,0,,,,,,-0.336336318,-0.24954955,1,0,0,8.8458,Andesite_rect,8,0,8,0,1,
633a35fc5b65d7fa6965c176,SCR,2024-06-24_14h37.30.825,LearnStrategy,2023.2.3,Win32,2.727024816,2,2,10,,,,,,,,6,08,,,,,,,,,,,,,5,2.049,0,,,,,,-0.362162162,-0.40150152,1,0,0,2.049,Obsidian_rect,9,0,9,0,1,
633a35fc5b65d7fa6965c176,SCR,2024-06-24_14h37.30.825,LearnStrategy,2023.2.3,Win32,2.727024816,2,2,11,,,,,,,,6,15,,,,,,,,,,,,,6,6.241,1,,,,,,-0.160960924,-0.39009009,1,0,0,6.241,Pegmatite_rect,10,0,10,0,1,
633a35fc5b65d7fa6965c176,SCR,2024-06-24_14h37.30.825,LearnStrategy,2023.2.3,Win32,2.727024816,2,2,12,,,,,,,,3,07,,,,,,,,,,,,,3,1.832,1,,,,,,0.120720721,-0.259759796,1,0,0,1.8324,Diorite_rect,11,0,11,0,1,
633a35fc5b65d7fa6965c176,SCR,2024-06-24_14h37.30.825,LearnStrategy,2023.2.3,Win32,2.727024816,2,2,13,,,,,,,,4,16,,,,,,,,,,,,,2,3.101,0,,,,,,-0.135735699,-0.256156193,1,0,0,3.1015,Basalt_rect,12,0,12,0,1,
633a35fc5b65d7fa6965c176,SCR,2024-06-24_14h37.30.825,LearnStrategy,2023.2.3,Win32,2.727024816,2,2,14,,,,,,,,2,08,,,,,,,,,,,,,5,2.513,0,,,,,,-0.406005997,-0.388888907,1,0,0,2.513,Obsidian_rect,13,0,13,0,1,
633a35fc5b65d7fa6965c176,SCR,2024-06-24_14h37.30.825,LearnStrategy,2023.2.3,Win32,2.727024816,2,2,15,,,,,,,,7,05,,,,,,,,,,,,,1,3.609,0,,,,,,-0.316516498,-0.230330349,1,0,0,3.609,Andesite_rect,14,0,14,0,1,
633a35fc5b65d7fa6965c176,SCR,2024-06-24_14h37.30.825,LearnStrategy,2023.2.3,Win32,2.727024816,2,2,16,,,,,,,,8,10,,,,,,,,,,,,,4,4.336,0,,,,,,0.327327364,-0.24954955,1,0,0,4.3361,Gabbro_rect,15,0,15,0,1,
633a35fc5b65d7fa6965c176,SCR,2024-06-24_14h37.30.825,LearnStrategy,2023.2.3,Win32,2.727024816,3,1,1,-0.225225225,-0.227327364,1,0,0,1.7995,Diorite_08,3,08,2,3,1.8,3,08,0.153153153,-0.254354391,1,0,0,12.7209,Diorite_rect,3,12.721,1,0,0,0,0,1,,,,,,,,,,,,,
633a35fc5b65d7fa6965c176,SCR,2024-06-24_14h37.30.825,LearnStrategy,2023.2.3,Win32,2.727024816,3,1,2,0.365165202,0.390690688,1,0,0,3.0325,Gabbro_15,4,15,6,7,3.032,4,15,0.105105123,-0.391291328,1,0,0,8.3864,Peridotite_rect,7,8.386,0,1,0,1,0,1,,,,,,,,,,,,,
633a35fc5b65d7fa6965c176,SCR,2024-06-24_14h37.30.825,LearnStrategy,2023.2.3,Win32,2.727024816,3,1,3,0.034234234,0.441141139,1,0,0,1.5337,Gabbro_10,4,10,6,5,1.534,4,10,-0.39879879,-0.407507544,1,0,0,2.8015,Obsidian_rect,5,2.802,0,2,0,2,0,1,,,,,,,,,,,,,
633a35fc5b65d7fa6965c176,SCR,2024-06-24_14h37.30.825,LearnStrategy,2023.2.3,Win32,2.727024816,3,1,4,-0.387987979,0.412912908,1,0,0,1.7602,Basalt_12,2,12,6,2,1.76,2,12,0.187387387,-0.398498535,1,0,0,3.0838,Peridotite_rect,7,3.084,0,3,0,3,0,1,,,,,,,,,,,,,
633a35fc5b65d7fa6965c176,SCR,2024-06-24_14h37.30.825,LearnStrategy,2023.2.3,Win32,2.727024816,3,1,5,0.544744818,-0.127627646,1,0,0,1.7766,Andesite_11,1,11,3,8,1.777,1,11,0.206606643,-0.408708727,1,0,0,10.4523,Peridotite_rect,7,10.452,0,4,0,4,0,1,,,,,,,,,,,,,
633a35fc5b65d7fa6965c176,SCR,2024-06-24_14h37.30.825,LearnStrategy,2023.2.3,Win32,2.727024816,3,1,6,0.536336373,-0.372672691,1,0,0,1.7778,Peridotite_04,7,04,1,8,1.778,7,04,0.189189189,-0.397297297,1,0,0,1.5291,Peridotite_rect,7,1.529,1,5,0,5,0,1,,,,,,,,,,,,,
633a35fc5b65d7fa6965c176,SCR,2024-06-24_14h37.30.825,LearnStrategy,2023.2.3,Win32,2.727024816,3,1,7,0.245045045,0.244744736,1,0,0,1.9177,Peridotite_06,7,06,5,6,1.918,7,06,-0.384384375,-0.384084121,1,0,0,1.8998,Obsidian_rect,5,1.9,0,6,0,6,0,1,,,,,,,,,,,,,
633a35fc5b65d7fa6965c176,SCR,2024-06-24_14h37.30.825,LearnStrategy,2023.2.3,Win32,2.727024816,3,1,8,-0.356756757,0.074774775,1,0,0,1.6367,Peridotite_10,7,10,4,2,1.637,7,10,-0.341741723,-0.394894932,1,0,0,3.3579,Obsidian_rect,5,3.358,0,7,0,7,0,1,,,,,,,,,,,,,
633a35fc5b65d7fa6965c176,SCR,2024-06-24_14h37.30.825,LearnStrategy,2023.2.3,Win32,2.727024816,3,1,9,0.500300337,0.236336318,1,0,0,2.1821,Andesite_14,1,14,5,8,2.182,1,14,0.168168186,-0.259159177,1,0,0,2.503,Diorite_rect,3,2.503,0,8,0,8,0,1,,,,,,,,,,,,,
633a35fc5b65d7fa6965c176,SCR,2024-06-24_14h37.30.825,LearnStrategy,2023.2.3,Win32,2.727024816,3,1,10,0.368768805,-0.368468468,1,0,0,1.9005,Basalt_10,2,10,1,7,1.9,2,10,0.385585586,-0.241141159,1,0,0,1.6748,Gabbro_rect,4,1.675,0,9,0,9,0,1,,,,,,,,,,,,,
633a35fc5b65d7fa6965c176,SCR,2024-06-24_14h37.30.825,LearnStrategy,2023.2.3,Win32,2.727024816,3,1,11,0.05345349,-0.227927928,1,0,0,1.3686,Andesite_10,1,10,2,5,1.369,1,10,0.184384458,-0.382882883,1,0,0,3.6807,Peridotite_rect,7,3.681,0,10,0,10,0,1,,,,,,,,,,,,,
633a35fc5b65d7fa6965c176,SCR,2024-06-24_14h37.30.825,LearnStrategy,2023.2.3,Win32,2.727024816,3,1,12,-0.236036036,-0.395495495,1,0,0,1.6025,Pumice_02,8,02,1,3,1.602,8,02,-0.162162162,-0.264564583,1,0,0,2.9882,Basalt_rect,2,2.988,0,11,0,11,0,1,,,,,,,,,,,,,
633a35fc5b65d7fa6965c176,SCR,2024-06-24_14h37.30.825,LearnStrategy,2023.2.3,Win32,2.727024816,3,1,13,0.548948986,-0.235735754,1,0,0,3.0046,Pegmatite_10,6,10,2,8,3.005,6,10,-0.381981982,-0.381081081,1,0,0,1.7119,Obsidian_rect,5,1.712,0,12,0,12,0,1,,,,,,,,,,,,,
633a35fc5b65d7fa6965c176,SCR,2024-06-24_14h37.30.825,LearnStrategy,2023.2.3,Win32,2.727024816,3,1,14,-0.511711712,0.390690688,1,0,0,1.8803,Gabbro_09,4,09,6,1,1.88,4,09,-0.354954955,-0.396096114,1,0,0,8.8935,Obsidian_rect,5,8.893,0,13,0,13,0,1,,,,,,,,,,,,,
633a35fc5b65d7fa6965c176,SCR,2024-06-24_14h37.30.825,LearnStrategy,2023.2.3,Win32,2.727024816,3,1,15,0.192192229,0.391291287,1,0,0,2.9723,Obsidian_09,5,09,6,6,2.972,5,09,0.395195269,-0.245945946,1,0,0,1.9708,Gabbro_rect,4,1.971,0,14,0,14,0,1,,,,,,,,,,,,,
633a35fc5b65d7fa6965c176,SCR,2024-06-24_14h37.30.825,LearnStrategy,2023.2.3,Win32,2.727024816,3,1,16,0.254654728,0.39249249,1,0,0,3.7668,Obsidian_09,5,09,6,6,3.767,5,09,-0.386186177,-0.387687724,1,0,0,1.9255,Obsidian_rect,5,1.925,1,15,0,15,0,1,,,,,,,,,,,,,
633a35fc5b65d7fa6965c176,SCR,2024-06-24_14h37.30.825,LearnStrategy,2023.2.3,Win32,2.727024816,3,2,1,,,,,,,,8,03,,,,,,,,,,,,,8,2.191,1,,,,,,0.438438512,-0.386486486,1,0,0,2.1911,Pumice_rect,0,0,0,0,1,
633a35fc5b65d7fa6965c176,SCR,2024-06-24_14h37.30.825,LearnStrategy,2023.2.3,Win32,2.727024816,3,2,2,,,,,,,,3,02,,,,,,,,,,,,,3,2.196,1,,,,,,0.222222296,-0.27177179,1,0,0,2.1955,Diorite_rect,1,0,1,0,1,
633a35fc5b65d7fa6965c176,SCR,2024-06-24_14h37.30.825,LearnStrategy,2023.2.3,Win32,2.727024816,3,2,3,,,,,,,,8,08,,,,,,,,,,,,,8,2.506,1,,,,,,0.356156193,-0.39009009,1,0,0,2.5061,Pumice_rect,2,0,2,0,1,
633a35fc5b65d7fa6965c176,SCR,2024-06-24_14h37.30.825,LearnStrategy,2023.2.3,Win32,2.727024816,3,2,4,,,,,,,,7,14,,,,,,,,,,,,,5,5.92,0,,,,,,-0.381381363,-0.403903941,1,0,0,5.9204,Obsidian_rect,3,0,3,0,1,
633a35fc5b65d7fa6965c176,SCR,2024-06-24_14h37.30.825,LearnStrategy,2023.2.3,Win32,2.727024816,3,2,5,,,,,,,,7,07,,,,,,,,,,,,,7,3.685,1,,,,,,0.098498535,-0.396096114,1,0,0,3.6851,Peridotite_rect,4,0,4,0,1,
633a35fc5b65d7fa6965c176,SCR,2024-06-24_14h37.30.825,LearnStrategy,2023.2.3,Win32,2.727024816,3,2,6,,,,,,,,2,04,,,,,,,,,,,,,4,3.267,0,,,,,,0.359159232,-0.251351351,1,0,0,3.2672,Gabbro_rect,5,0,5,0,1,
633a35fc5b65d7fa6965c176,SCR,2024-06-24_14h37.30.825,LearnStrategy,2023.2.3,Win32,2.727024816,3,2,7,,,,,,,,6,09,,,,,,,,,,,,,5,4.069,0,,,,,,-0.346546537,-0.414714751,1,0,0,4.0693,Obsidian_rect,6,0,6,0,1,
633a35fc5b65d7fa6965c176,SCR,2024-06-24_14h37.30.825,LearnStrategy,2023.2.3,Win32,2.727024816,3,2,8,,,,,,,,3,13,,,,,,,,,,,,,3,1.938,1,,,,,,0.102702703,-0.263963964,1,0,0,1.9375,Diorite_rect,7,0,7,0,1,
633a35fc5b65d7fa6965c176,SCR,2024-06-24_14h37.30.825,LearnStrategy,2023.2.3,Win32,2.727024816,3,2,9,,,,,,,,5,11,,,,,,,,,,,,,4,3.581,0,,,,,,0.451651688,-0.23213215,1,0,0,3.5809,Gabbro_rect,8,0,8,0,1,
633a35fc5b65d7fa6965c176,SCR,2024-06-24_14h37.30.825,LearnStrategy,2023.2.3,Win32,2.727024816,3,2,10,,,,,,,,2,05,,,,,,,,,,,,,4,1.905,0,,,,,,0.350150223,-0.246546565,1,0,0,1.905,Gabbro_rect,9,0,9,0,1,
633a35fc5b65d7fa6965c176,SCR,2024-06-24_14h37.30.825,LearnStrategy,2023.2.3,Win32,2.727024816,3,2,11,,,,,,,,4,11,,,,,,,,,,,,,6,4.147,0,,,,,,-0.135735699,-0.382282319,1,0,0,4.1473,Pegmatite_rect,10,0,10,0,1,
633a35fc5b65d7fa6965c176,SCR,2024-06-24_14h37.30.825,LearnStrategy,2023.2.3,Win32,2.727024816,3,2,12,,,,,,,,4,12,,,,,,,,,,,,,1,3.277,0,,,,,,-0.350150141,-0.256756757,1,0,0,3.2774,Andesite_rect,11,0,11,0,1,
633a35fc5b65d7fa6965c176,SCR,2024-06-24_14h37.30.825,LearnStrategy,2023.2.3,Win32,2.727024816,3,2,13,,,,,,,,1,09,,,,,,,,,,,,,1,1.949,1,,,,,,-0.350150141,-0.256756757,1,0,0,1.9487,Andesite_rect,12,0,12,0,1,
633a35fc5b65d7fa6965c176,SCR,2024-06-24_14h37.30.825,LearnStrategy,2023.2.3,Win32,2.727024816,3,2,14,,,,,,,,6,12,,,,,,,,,,,,,3,5.891,0,,,,,,0.159159177,-0.241741778,1,0,0,5.8908,Diorite_rect,13,0,13,0,1,
633a35fc5b65d7fa6965c176,SCR,2024-06-24_14h37.30.825,LearnStrategy,2023.2.3,Win32,2.727024816,3,2,15,,,,,,,,1,03,,,,,,,,,,,,,7,3.61,0,,,,,,0.148348367,-0.385885923,1,0,0,3.6104,Peridotite_rect,14,0,14,0,1,
633a35fc5b65d7fa6965c176,SCR,2024-06-24_14h37.30.825,LearnStrategy,2023.2.3,Win32,2.727024816,3,2,16,,,,,,,,5,07,,,,,,,,,,,,,5,5.99,1,,,,,,-0.387987979,-0.385285304,1,0,0,5.9897,Obsidian_rect,15,0,15,0,1,
633a35fc5b65d7fa6965c176,SCR,2024-06-24_14h37.30.825,LearnStrategy,2023.2.3,Win32,2.727024816,4,1,1,-0.36876875,-0.101801802,1,0,0,1.6061,Pegmatite_11,6,11,3,2,1.606,6,11,-0.379579561,-0.388288288,1,0,0,4.2503,Obsidian_rect,5,4.25,0,0,0,0,0,1,,,,,,,,,,,,,
633a35fc5b65d7fa6965c176,SCR,2024-06-24_14h37.30.825,LearnStrategy,2023.2.3,Win32,2.727024816,4,1,2,0.057057094,-0.079579616,1,0,0,1.339,Peridotite_12,7,12,3,5,1.339,7,12,-0.386186177,-0.417117117,1,0,0,5.328,Obsidian_rect,5,5.328,0,1,0,1,0,1,,,,,,,,,,,,,
633a35fc5b65d7fa6965c176,SCR,2024-06-24_14h37.30.825,LearnStrategy,2023.2.3,Win32,2.727024816,4,1,3,-0.362762754,-0.121021058,1,0,0,1.3577,Pegmatite_11,6,11,3,2,1.358,6,11,-0.37897897,-0.389489526,1,0,0,1.8717,Obsidian_rect,5,1.872,0,2,0,2,0,1,,,,,,,,,,,,,
633a35fc5b65d7fa6965c176,SCR,2024-06-24_14h37.30.825,LearnStrategy,2023.2.3,Win32,2.727024816,4,1,4,0.361561598,-0.124024042,1,0,0,4.3274,Obsidian_12,5,12,3,7,4.327,5,12,0.384384458,-0.240540541,1,0,0,1.3383,Gabbro_rect,4,1.338,0,3,0,3,0,1,,,,,,,,,,,,,
633a35fc5b65d7fa6965c176,SCR,2024-06-24_14h37.30.825,LearnStrategy,2023.2.3,Win32,2.727024816,4,1,5,-0.342342342,-0.383483502,1,0,0,2.1461,Gabbro_03,4,03,1,2,2.146,4,03,0.161561598,-0.405105123,1,0,0,3.2228,Peridotite_rect,7,3.223,0,4,0,4,0,1,,,,,,,,,,,,,
633a35fc5b65d7fa6965c176,SCR,2024-06-24_14h37.30.825,LearnStrategy,2023.2.3,Win32,2.727024816,4,1,6,-0.574774775,0.239939922,1,0,0,1.6241,Basalt_14,2,14,5,1,1.624,2,14,-0.365765766,-0.252552589,1,0,0,4.9432,Andesite_rect,1,4.943,0,5,0,5,0,1,,,,,,,,,,,,,
633a35fc5b65d7fa6965c176,SCR,2024-06-24_14h37.30.825,LearnStrategy,2023.2.3,Win32,2.727024816,4,1,7,0.567567568,0.071771763,1,0,0,2.6966,Andesite_04,1,04,4,8,2.697,1,04,0.096696733,-0.408108108,1,0,0,1.3543,Peridotite_rect,7,1.354,0,6,0,6,0,1,,,,,,,,,,,,,
633a35fc5b65d7fa6965c176,SCR,2024-06-24_14h37.30.825,LearnStrategy,2023.2.3,Win32,2.727024816,4,1,8,-0.193393357,0.361861853,1,0,0,1.6199,Pumice_14,8,14,6,3,1.62,8,14,0.38318322,-0.411111148,1,0,0,1.6335,Pumice_rect,8,1.634,1,7,0,7,0,1,,,,,,,,,,,,,
633a35fc5b65d7fa6965c176,SCR,2024-06-24_14h37.30.825,LearnStrategy,2023.2.3,Win32,2.727024816,4,1,9,-0.378378378,0.237537528,1,0,0,4.3225,Diorite_12,3,12,5,2,4.322,3,12,0.12972973,-0.239339358,1,0,0,1.6684,Diorite_rect,3,1.668,1,8,0,8,0,1,,,,,,,,,,,,,
633a35fc5b65d7fa6965c176,SCR,2024-06-24_14h37.30.825,LearnStrategy,2023.2.3,Win32,2.727024816,4,1,10,-0.553153153,0.248348339,1,0,0,2.9685,Basalt_14,2,14,5,1,2.968,2,14,-0.136336318,-0.253753772,1,0,0,1.6644,Basalt_rect,2,1.664,1,9,0,9,0,1,,,,,,,,,,,,,
633a35fc5b65d7fa6965c176,SCR,2024-06-24_14h37.30.825,LearnStrategy,2023.2.3,Win32,2.727024816,4,1,11,0.380780854,-0.218318355,1,0,0,1.6266,Gabbro_13,4,13,2,7,1.627,4,13,0.120720721,-0.239939977,1,0,0,4.4286,Diorite_rect,3,4.429,0,10,0,10,0,1,,,,,,,,,,,,,
633a35fc5b65d7fa6965c176,SCR,2024-06-24_14h37.30.825,LearnStrategy,2023.2.3,Win32,2.727024816,4,1,12,0.36636644,0.381081081,1,0,0,2.9781,Gabbro_15,4,15,6,7,2.978,4,15,0.118918919,-0.404504505,1,0,0,2.4475,Peridotite_rect,7,2.447,0,11,0,11,0,1,,,,,,,,,,,,,
633a35fc5b65d7fa6965c176,SCR,2024-06-24_14h37.30.825,LearnStrategy,2023.2.3,Win32,2.727024816,4,1,13,-0.10690687,0.066966949,1,0,0,1.3398,Obsidian_08,5,08,4,4,1.34,5,08,-0.392192174,-0.399099099,1,0,0,2.6756,Obsidian_rect,5,2.676,1,12,0,12,0,1,,,,,,,,,,,,,
633a35fc5b65d7fa6965c176,SCR,2024-06-24_14h37.30.825,LearnStrategy,2023.2.3,Win32,2.727024816,4,1,14,0.556156193,-0.41291295,1,0,0,2.7089,Peridotite_04,7,04,1,8,2.709,7,04,0.130330349,-0.392492511,1,0,0,1.6071,Peridotite_rect,7,1.607,1,13,0,13,0,1,,,,,,,,,,,,,
633a35fc5b65d7fa6965c176,SCR,2024-06-24_14h37.30.825,LearnStrategy,2023.2.3,Win32,2.727024816,4,1,15,-0.086486486,-0.199699718,1,0,0,2.413,Andesite_02,1,02,2,4,2.413,1,02,0.443243243,-0.404504505,1,0,0,7.0152,Pumice_rect,8,7.015,0,14,0,14,0,1,,,,,,,,,,,,,
633a35fc5b65d7fa6965c176,SCR,2024-06-24_14h37.30.825,LearnStrategy,2023.2.3,Win32,2.727024816,4,1,16,0.204204278,-0.087988006,1,0,0,1.4794,Basalt_02,2,02,3,6,1.479,2,02,-0.121321285,-0.380480517,1,0,0,2.9947,Pegmatite_rect,6,2.995,0,15,0,15,0,1,,,,,,,,,,,,,
633a35fc5b65d7fa6965c176,SCR,2024-06-24_14h37.30.825,LearnStrategy,2023.2.3,Win32,2.727024816,4,2,1,,,,,,,,3,07,,,,,,,,,,,,,3,5.05,1,,,,,,0.126726745,-0.235735754,1,0,0,5.05,Diorite_rect,0,0,0,0,1,
633a35fc5b65d7fa6965c176,SCR,2024-06-24_14h37.30.825,LearnStrategy,2023.2.3,Win32,2.727024816,4,2,2,,,,,,,,2,04,,,,,,,,,,,,,4,1.919,0,,,,,,0.350750787,-0.256756757,1,0,0,1.9195,Gabbro_rect,1,0,1,0,1,
633a35fc5b65d7fa6965c176,SCR,2024-06-24_14h37.30.825,LearnStrategy,2023.2.3,Win32,2.727024816,4,2,3,,,,,,,,7,13,,,,,,,,,,,,,6,7.332,0,,,,,,-0.159159123,-0.400300337,1,0,0,7.3319,Pegmatite_rect,2,0,2,0,1,
633a35fc5b65d7fa6965c176,SCR,2024-06-24_14h37.30.825,LearnStrategy,2023.2.3,Win32,2.727024816,4,2,4,,,,,,,,5,10,,,,,,,,,,,,,4,2.781,0,,,,,,0.446846847,-0.263963964,1,0,0,2.7806,Gabbro_rect,3,0,3,0,1,
633a35fc5b65d7fa6965c176,SCR,2024-06-24_14h37.30.825,LearnStrategy,2023.2.3,Win32,2.727024816,4,2,5,,,,,,,,7,07,,,,,,,,,,,,,1,7.088,0,,,,,,-0.35795794,-0.261561598,1,0,0,7.0884,Andesite_rect,4,0,4,0,1,
633a35fc5b65d7fa6965c176,SCR,2024-06-24_14h37.30.825,LearnStrategy,2023.2.3,Win32,2.727024816,4,2,6,,,,,,,,8,13,,,,,,,,,,,,,8,1.611,1,,,,,,0.359759796,-0.396696733,1,0,0,1.6109,Pumice_rect,5,0,5,0,1,
633a35fc5b65d7fa6965c176,SCR,2024-06-24_14h37.30.825,LearnStrategy,2023.2.3,Win32,2.727024816,4,2,7,,,,,,,,3,11,,,,,,,,,,,,,3,1.657,1,,,,,,0.164564583,-0.271171171,1,0,0,1.6566,Diorite_rect,6,0,6,0,1,
633a35fc5b65d7fa6965c176,SCR,2024-06-24_14h37.30.825,LearnStrategy,2023.2.3,Win32,2.727024816,4,2,8,,,,,,,,4,05,,,,,,,,,,,,,4,2.787,1,,,,,,0.315915989,-0.267567568,1,0,0,2.7873,Gabbro_rect,7,0,7,0,1,
633a35fc5b65d7fa6965c176,SCR,2024-06-24_14h37.30.825,LearnStrategy,2023.2.3,Win32,2.727024816,4,2,9,,,,,,,,4,16,,,,,,,,,,,,,4,1.108,1,,,,,,0.315915989,-0.267567568,1,0,0,1.1078,Gabbro_rect,8,0,8,0,1,
633a35fc5b65d7fa6965c176,SCR,2024-06-24_14h37.30.825,LearnStrategy,2023.2.3,Win32,2.727024816,4,2,10,,,,,,,,1,01,,,,,,,,,,,,,2,4.704,0,,,,,,-0.151951915,-0.250750787,1,0,0,4.7043,Basalt_rect,9,0,9,0,1,
633a35fc5b65d7fa6965c176,SCR,2024-06-24_14h37.30.825,LearnStrategy,2023.2.3,Win32,2.727024816,4,2,11,,,,,,,,2,06,,,,,,,,,,,,,4,5.194,0,,,,,,0.345945946,-0.263963964,1,0,0,5.1942,Gabbro_rect,10,0,10,0,1,
633a35fc5b65d7fa6965c176,SCR,2024-06-24_14h37.30.825,LearnStrategy,2023.2.3,Win32,2.727024816,4,2,12,,,,,,,,5,16,,,,,,,,,,,,,4,4.065,0,,,,,,0.368168241,-0.266967004,1,0,0,4.0651,Gabbro_rect,11,0,11,0,1,
633a35fc5b65d7fa6965c176,SCR,2024-06-24_14h37.30.825,LearnStrategy,2023.2.3,Win32,2.727024816,4,2,13,,,,,,,,8,08,,,,,,,,,,,,,8,1.657,1,,,,,,0.386786823,-0.408708727,1,0,0,1.6565,Pumice_rect,12,0,12,0,1,
633a35fc5b65d7fa6965c176,SCR,2024-06-24_14h37.30.825,LearnStrategy,2023.2.3,Win32,2.727024816,4,2,14,,,,,,,,1,06,,,,,,,,,,,,,7,4.957,0,,,,,,0.055855856,-0.385285304,1,0,0,4.9575,Peridotite_rect,13,0,13,0,1,
633a35fc5b65d7fa6965c176,SCR,2024-06-24_14h37.30.825,LearnStrategy,2023.2.3,Win32,2.727024816,4,2,15,,,,,,,,6,12,,,,,,,,,,,,,4,1.96,0,,,,,,0.333333333,-0.235735754,1,0,0,1.9596,Gabbro_rect,14,0,14,0,1,
633a35fc5b65d7fa6965c176,SCR,2024-06-24_14h37.30.825,LearnStrategy,2023.2.3,Win32,2.727024816,4,2,16,,,,,,,,6,03,,,,,,,,,,,,,6,2.27,1,,,,,,-0.154954955,-0.396096114,1,0,0,2.2705,Pegmatite_rect,15,0,15,0,1,
633a35fc5b65d7fa6965c176,SCR,2024-06-24_14h37.30.825,LearnStrategy,2023.2.3,Win32,2.727024816,5,1,1,0.389789863,-0.379279279,1,0,0,1.6397,Basalt_10,2,10,1,7,1.64,2,10,0.374774775,-0.240540541,1,0,0,2.2013,Gabbro_rect,4,2.201,0,0,0,0,0,1,,,,,,,,,,,,,
633a35fc5b65d7fa6965c176,SCR,2024-06-24_14h37.30.825,LearnStrategy,2023.2.3,Win32,2.727024816,5,1,2,0.224024097,-0.084985022,1,0,0,1.3724,Basalt_02,2,02,3,6,1.372,2,02,-0.193393357,-0.26036036,1,0,0,5.7314,Basalt_rect,2,5.731,1,1,0,1,0,1,,,,,,,,,,,,,
633a35fc5b65d7fa6965c176,SCR,2024-06-24_14h37.30.825,LearnStrategy,2023.2.3,Win32,2.727024816,5,1,3,-0.029429393,0.436936937,1,0,0,4.5959,Andesite_16,1,16,6,4,4.596,1,16,0.096096114,-0.394294313,1,0,0,28.4109,Peridotite_rect,7,28.411,0,2,0,2,0,1,,,,,,,,,,,,,
633a35fc5b65d7fa6965c176,SCR,2024-06-24_14h37.30.825,LearnStrategy,2023.2.3,Win32,2.727024816,5,1,4,-0.23963964,-0.122822859,1,0,0,1.8973,Obsidian_06,5,06,3,3,1.897,5,06,-0.372972973,-0.390690709,1,0,0,1.6266,Obsidian_rect,5,1.627,1,3,0,3,0,1,,,,,,,,,,,,,
633a35fc5b65d7fa6965c176,SCR,2024-06-24_14h37.30.825,LearnStrategy,2023.2.3,Win32,2.727024816,5,1,5,-0.341741723,-0.250150168,1,0,0,1.6224,Pegmatite_13,6,13,2,2,1.622,6,13,0.372372409,-0.399699718,1,0,0,5.2483,Pumice_rect,8,5.248,0,4,0,4,0,1,,,,,,,,,,,,,
633a35fc5b65d7fa6965c176,SCR,2024-06-24_14h37.30.825,LearnStrategy,2023.2.3,Win32,2.727024816,5,1,6,0.060660697,-0.367867905,1,0,0,1.6162,Peridotite_08,7,08,1,5,1.616,7,08,-0.421621622,-0.238138175,1,0,0,8.7083,Andesite_rect,1,8.708,0,5,0,5,0,1,,,,,,,,,,,,,
633a35fc5b65d7fa6965c176,SCR,2024-06-24_14h37.30.825,LearnStrategy,2023.2.3,Win32,2.727024816,5,1,7,-0.542342342,-0.254354391,1,0,0,1.6349,Pegmatite_07,6,07,2,1,1.635,6,07,-0.420420411,-0.400300337,1,0,0,4.8415,Obsidian_rect,5,4.841,0,6,0,6,0,1,,,,,,,,,,,,,
633a35fc5b65d7fa6965c176,SCR,2024-06-24_14h37.30.825,LearnStrategy,2023.2.3,Win32,2.727024816,5,1,8,0.530330404,-0.358858896,1,0,0,2.1727,Peridotite_04,7,04,1,8,2.173,7,04,0.176576577,-0.403903941,1,0,0,1.3518,Peridotite_rect,7,1.352,1,7,0,7,0,1,,,,,,,,,,,,,
633a35fc5b65d7fa6965c176,SCR,2024-06-24_14h37.30.825,LearnStrategy,2023.2.3,Win32,2.727024816,5,1,9,0.529129166,0.415915914,1,0,0,1.9055,Diorite_15,3,15,6,8,1.906,3,15,0.141141159,-0.26036036,1,0,0,3.5995,Diorite_rect,3,3.6,1,8,0,8,0,1,,,,,,,,,,,,,
633a35fc5b65d7fa6965c176,SCR,2024-06-24_14h37.30.825,LearnStrategy,2023.2.3,Win32,2.727024816,5,1,10,0.257657658,0.388288288,1,0,0,2.9774,Obsidian_09,5,09,6,6,2.977,5,09,-0.391591582,-0.391891892,1,0,0,1.9444,Obsidian_rect,5,1.944,1,9,0,9,0,1,,,,,,,,,,,,,
633a35fc5b65d7fa6965c176,SCR,2024-06-24_14h37.30.825,LearnStrategy,2023.2.3,Win32,2.727024816,5,1,11,0.525525562,-0.093393412,1,0,0,1.6222,Andesite_11,1,11,3,8,1.622,1,11,0.112312331,-0.409309346,1,0,0,2.2498,Peridotite_rect,7,2.25,0,10,0,10,0,1,,,,,,,,,,,,,
633a35fc5b65d7fa6965c176,SCR,2024-06-24_14h37.30.825,LearnStrategy,2023.2.3,Win32,2.727024816,5,1,12,0.393994031,-0.267567568,1,0,0,2.9655,Gabbro_13,4,13,2,7,2.966,4,13,0.368168241,-0.23213215,1,0,0,1.6765,Gabbro_rect,4,1.677,1,11,0,11,0,1,,,,,,,,,,,,,
633a35fc5b65d7fa6965c176,SCR,2024-06-24_14h37.30.825,LearnStrategy,2023.2.3,Win32,2.727024816,5,1,13,0.103303322,0.369669665,1,0,0,1.8925,Gabbro_10,4,10,6,5,1.893,4,10,-0.367567568,-0.255555574,1,0,0,8.804,Andesite_rect,1,8.804,0,12,0,12,0,1,,,,,,,,,,,,,
633a35fc5b65d7fa6965c176,SCR,2024-06-24_14h37.30.825,LearnStrategy,2023.2.3,Win32,2.727024816,5,1,14,0.057057094,-0.061561598,1,0,0,1.3455,Peridotite_12,7,12,3,5,1.346,7,12,0.110510529,-0.380480517,1,0,0,4.4947,Peridotite_rect,7,4.495,1,13,0,13,0,1,,,,,,,,,,,,,
633a35fc5b65d7fa6965c176,SCR,2024-06-24_14h37.30.825,LearnStrategy,2023.2.3,Win32,2.727024816,5,1,15,-0.082882883,-0.388288288,1,0,0,4.9139,Basalt_01,2,01,1,4,4.914,2,01,0.354954955,-0.247747748,1,0,0,2.398,Gabbro_rect,4,2.398,0,14,0,14,0,1,,,,,,,,,,,,,
633a35fc5b65d7fa6965c176,SCR,2024-06-24_14h37.30.825,LearnStrategy,2023.2.3,Win32,2.727024816,5,1,16,0.530930968,0.074174156,1,0,0,1.8858,Andesite_04,1,04,4,8,1.886,1,04,0.133933952,-0.392492511,1,0,0,1.6366,Peridotite_rect,7,1.637,0,15,0,15,0,1,,,,,,,,,,,,,
633a35fc5b65d7fa6965c176,SCR,2024-06-24_14h37.30.825,LearnStrategy,2023.2.3,Win32,2.727024816,5,2,1,,,,,,,,1,07,,,,,,,,,,,,,7,6.101,0,,,,,,0.111111148,-0.396696733,1,0,0,6.1005,Peridotite_rect,0,0,0,0,1,
633a35fc5b65d7fa6965c176,SCR,2024-06-24_14h37.30.825,LearnStrategy,2023.2.3,Win32,2.727024816,5,2,2,,,,,,,,2,16,,,,,,,,,,,,,4,1.633,0,,,,,,0.34354358,-0.263963964,1,0,0,1.633,Gabbro_rect,1,0,1,0,1,
633a35fc5b65d7fa6965c176,SCR,2024-06-24_14h37.30.825,LearnStrategy,2023.2.3,Win32,2.727024816,5,2,3,,,,,,,,7,05,,,,,,,,,,,,,6,5.453,0,,,,,,-0.217417399,-0.406306306,1,0,0,5.4527,Pegmatite_rect,2,0,2,0,1,
633a35fc5b65d7fa6965c176,SCR,2024-06-24_14h37.30.825,LearnStrategy,2023.2.3,Win32,2.727024816,5,2,4,,,,,,,,5,07,,,,,,,,,,,,,5,2.277,1,,,,,,-0.395795777,-0.385885923,1,0,0,2.277,Obsidian_rect,3,0,3,0,1,
633a35fc5b65d7fa6965c176,SCR,2024-06-24_14h37.30.825,LearnStrategy,2023.2.3,Win32,2.727024816,5,2,5,,,,,,,,7,02,,,,,,,,,,,,,6,8.056,0,,,,,,-0.085285249,-0.389489526,1,0,0,8.0564,Pegmatite_rect,4,0,4,0,1,
633a35fc5b65d7fa6965c176,SCR,2024-06-24_14h37.30.825,LearnStrategy,2023.2.3,Win32,2.727024816,5,2,6,,,,,,,,8,03,,,,,,,,,,,,,8,2.203,1,,,,,,0.383783784,-0.415315315,1,0,0,2.2034,Pumice_rect,5,0,5,0,1,
633a35fc5b65d7fa6965c176,SCR,2024-06-24_14h37.30.825,LearnStrategy,2023.2.3,Win32,2.727024816,5,2,7,,,,,,,,3,16,,,,,,,,,,,,,3,2.753,1,,,,,,0.172372409,-0.265165202,1,0,0,2.753,Diorite_rect,6,0,6,0,1,
633a35fc5b65d7fa6965c176,SCR,2024-06-24_14h37.30.825,LearnStrategy,2023.2.3,Win32,2.727024816,5,2,8,,,,,,,,1,03,,,,,,,,,,,,,1,6.381,1,,,,,,-0.365165147,-0.233933952,1,0,0,6.3812,Andesite_rect,7,0,7,0,1,
633a35fc5b65d7fa6965c176,SCR,2024-06-24_14h37.30.825,LearnStrategy,2023.2.3,Win32,2.727024816,5,2,9,,,,,,,,4,12,,,,,,,,,,,,,1,1.639,0,,,,,,-0.353153153,-0.239339358,1,0,0,1.6386,Andesite_rect,8,0,8,0,1,
633a35fc5b65d7fa6965c176,SCR,2024-06-24_14h37.30.825,LearnStrategy,2023.2.3,Win32,2.727024816,5,2,10,,,,,,,,2,09,,,,,,,,,,,,,4,2.494,0,,,,,,0.377777814,-0.256156193,1,0,0,2.4936,Gabbro_rect,9,0,9,0,1,
633a35fc5b65d7fa6965c176,SCR,2024-06-24_14h37.30.825,LearnStrategy,2023.2.3,Win32,2.727024816,5,2,11,,,,,,,,8,15,,,,,,,,,,,,,8,1.626,1,,,,,,0.345345382,-0.406906925,1,0,0,1.6257,Pumice_rect,10,0,10,0,1,
633a35fc5b65d7fa6965c176,SCR,2024-06-24_14h37.30.825,LearnStrategy,2023.2.3,Win32,2.727024816,5,2,12,,,,,,,,5,04,,,,,,,,,,,,,5,1.954,1,,,,,,-0.358558559,-0.399699718,1,0,0,1.9541,Obsidian_rect,11,0,11,0,1,
633a35fc5b65d7fa6965c176,SCR,2024-06-24_14h37.30.825,LearnStrategy,2023.2.3,Win32,2.727024816,5,2,13,,,,,,,,4,01,,,,,,,,,,,,,1,4.192,0,,,,,,-0.421621622,-0.259159177,1,0,0,4.1922,Andesite_rect,12,0,12,0,1,
633a35fc5b65d7fa6965c176,SCR,2024-06-24_14h37.30.825,LearnStrategy,2023.2.3,Win32,2.727024816,5,2,14,,,,,,,,3,13,,,,,,,,,,,,,3,1.919,1,,,,,,0.117117117,-0.242342342,1,0,0,1.9187,Diorite_rect,13,0,13,0,1,
633a35fc5b65d7fa6965c176,SCR,2024-06-24_14h37.30.825,LearnStrategy,2023.2.3,Win32,2.727024816,5,2,15,,,,,,,,6,09,,,,,,,,,,,,,6,3.198,1,,,,,,-0.109309291,-0.420120157,1,0,0,3.1979,Pegmatite_rect,14,0,14,0,1,
633a35fc5b65d7fa6965c176,SCR,2024-06-24_14h37.30.825,LearnStrategy,2023.2.3,Win32,2.727024816,5,2,16,,,,,,,,6,08,,,,,,,,,,,,,4,2.987,0,,,,,,0.411411485,-0.256156193,1,0,0,2.987,Gabbro_rect,15,0,15,0,1,
633a35fc5b65d7fa6965c176,SCR,2024-06-24_14h37.30.825,LearnStrategy,2023.2.3,Win32,2.727024816,6,1,1,0.429429503,-0.396096114,1,0,0,1.6375,Basalt_10,2,10,1,7,1.637,2,10,0.399399436,-0.268168186,1,0,0,1.6392,Gabbro_rect,4,1.639,0,0,0,0,0,1,,,,,,,,,,,,,
633a35fc5b65d7fa6965c176,SCR,2024-06-24_14h37.30.825,LearnStrategy,2023.2.3,Win32,2.727024816,6,1,2,0.54654662,0.405105103,1,0,0,2.4953,Diorite_15,3,15,6,8,2.495,3,15,0.158558559,-0.253753772,1,0,0,1.7377,Diorite_rect,3,1.738,1,1,0,1,0,1,,,,,,,,,,,,,
633a35fc5b65d7fa6965c176,SCR,2024-06-24_14h37.30.825,LearnStrategy,2023.2.3,Win32,2.727024816,6,1,3,-0.037237219,0.08858857,1,0,0,1.3412,Obsidian_08,5,08,4,4,1.341,5,08,-0.377177168,-0.408708727,1,0,0,2.7714,Obsidian_rect,5,2.771,1,2,0,2,0,1,,,,,,,,,,,,,
633a35fc5b65d7fa6965c176,SCR,2024-06-24_14h37.30.825,LearnStrategy,2023.2.3,Win32,2.727024816,6,1,4,0.424024097,0.381681673,1,0,0,1.9031,Gabbro_15,4,15,6,7,1.903,4,15,0.427027027,-0.245345382,1,0,0,6.014,Gabbro_rect,4,6.014,1,3,0,3,0,1,,,,,,,,,,,,,
633a35fc5b65d7fa6965c176,SCR,2024-06-24_14h37.30.825,LearnStrategy,2023.2.3,Win32,2.727024816,6,1,5,0.07327331,-0.397897916,1,0,0,25.7402,Peridotite_08,7,08,1,5,25.74,7,08,0.133333333,-0.233933952,1,0,0,2.4446,Diorite_rect,3,2.445,0,4,0,4,0,1,,,,,,,,,,,,,
633a35fc5b65d7fa6965c176,SCR,2024-06-24_14h37.30.825,LearnStrategy,2023.2.3,Win32,2.727024816,6,1,6,-0.372972973,0.090990991,1,0,0,1.6249,Peridotite_10,7,10,4,2,1.625,7,10,0.092492511,-0.416516553,1,0,0,3.5936,Peridotite_rect,7,3.594,1,5,0,5,0,1,,,,,,,,,,,,,
633a35fc5b65d7fa6965c176,SCR,2024-06-24_14h37.30.825,LearnStrategy,2023.2.3,Win32,2.727024816,6,1,7,0.051651688,0.089789781,1,0,0,2.4526,Peridotite_16,7,16,4,5,2.453,7,16,-0.37897897,-0.409309346,1,0,0,4.8821,Obsidian_rect,5,4.882,0,6,0,6,0,1,,,,,,,,,,,,,
633a35fc5b65d7fa6965c176,SCR,2024-06-24_14h37.30.825,LearnStrategy,2023.2.3,Win32,2.727024816,6,1,8,0.536336373,0.251351351,1,0,0,1.9032,Andesite_14,1,14,5,8,1.903,1,14,-0.336936937,-0.229129166,1,0,0,5.5601,Andesite_rect,1,5.56,1,7,0,7,0,1,,,,,,,,,,,,,
633a35fc5b65d7fa6965c176,SCR,2024-06-24_14h37.30.825,LearnStrategy,2023.2.3,Win32,2.727024816,6,1,9,-0.535135135,-0.248948986,1,0,0,2.1883,Pegmatite_07,6,07,2,1,2.188,6,07,-0.114114077,-0.408108108,1,0,0,2.4458,Pegmatite_rect,6,2.446,1,8,0,8,0,1,,,,,,,,,,,,,
633a35fc5b65d7fa6965c176,SCR,2024-06-24_14h37.30.825,LearnStrategy,2023.2.3,Win32,2.727024816,6,1,10,-0.413213204,-0.415315315,1,0,0,1.6453,Gabbro_03,4,03,1,2,1.645,4,03,0.124324324,-0.402102139,1,0,0,2.9474,Peridotite_rect,7,2.947,0,9,0,9,0,1,,,,,,,,,,,,,
633a35fc5b65d7fa6965c176,SCR,2024-06-24_14h37.30.825,LearnStrategy,2023.2.3,Win32,2.727024816,6,1,11,-0.421621622,0.411111107,1,0,0,1.8912,Basalt_12,2,12,6,2,1.891,2,12,-0.13813812,-0.244744763,1,0,0,5.7614,Basalt_rect,2,5.761,1,10,0,10,0,1,,,,,,,,,,,,,
633a35fc5b65d7fa6965c176,SCR,2024-06-24_14h37.30.825,LearnStrategy,2023.2.3,Win32,2.727024816,6,1,12,0.205405405,-0.248948986,1,0,0,1.6297,Obsidian_02,5,02,2,6,1.63,5,02,-0.404804786,-0.383483502,1,0,0,1.6149,Obsidian_rect,5,1.615,1,11,0,11,0,1,,,,,,,,,,,,,
633a35fc5b65d7fa6965c176,SCR,2024-06-24_14h37.30.825,LearnStrategy,2023.2.3,Win32,2.727024816,6,1,13,-0.064264246,-0.226726745,1,0,0,2.4342,Andesite_02,1,02,2,4,2.434,1,02,0.120720721,-0.268168186,1,0,0,3.1979,Diorite_rect,3,3.198,0,12,0,12,0,1,,,,,,,,,,,,,
633a35fc5b65d7fa6965c176,SCR,2024-06-24_14h37.30.825,LearnStrategy,2023.2.3,Win32,2.727024816,6,1,14,0.378979052,-0.373873874,1,0,0,1.6201,Basalt_10,2,10,1,7,1.62,2,10,0.377777814,-0.235135135,1,0,0,3.6017,Gabbro_rect,4,3.602,0,13,0,13,0,1,,,,,,,,,,,,,
633a35fc5b65d7fa6965c176,SCR,2024-06-24_14h37.30.825,LearnStrategy,2023.2.3,Win32,2.727024816,6,1,15,-0.551351351,0.427327323,1,0,0,1.6775,Gabbro_09,4,09,6,1,1.677,4,09,0.368768805,-0.262162162,1,0,0,10.3944,Gabbro_rect,4,10.394,1,14,0,14,0,1,,,,,,,,,,,,,
633a35fc5b65d7fa6965c176,SCR,2024-06-24_14h37.30.825,LearnStrategy,2023.2.3,Win32,2.727024816,6,1,16,-0.413813795,-0.093994031,1,0,0,1.915,Pegmatite_11,6,11,3,2,1.915,6,11,-0.157357321,-0.3816817,1,0,0,3.4781,Pegmatite_rect,6,3.478,1,15,0,15,0,1,,,,,,,,,,,,,
633a35fc5b65d7fa6965c176,SCR,2024-06-24_14h37.30.825,LearnStrategy,2023.2.3,Win32,2.727024816,6,2,1,,,,,,,,6,15,,,,,,,,,,,,,6,1.957,1,,,,,,-0.150750732,-0.383483502,1,0,0,1.9575,Pegmatite_rect,0,0,0,0,1,
633a35fc5b65d7fa6965c176,SCR,2024-06-24_14h37.30.825,LearnStrategy,2023.2.3,Win32,2.727024816,6,2,2,,,,,,,,1,09,,,,,,,,,,,,,1,4.747,1,,,,,,-0.352552534,-0.250750787,1,0,0,4.7471,Andesite_rect,1,0,1,0,1,
633a35fc5b65d7fa6965c176,SCR,2024-06-24_14h37.30.825,LearnStrategy,2023.2.3,Win32,2.727024816,6,2,3,,,,,,,,6,16,,,,,,,,,,,,,6,3.091,1,,,,,,-0.111711712,-0.388888907,1,0,0,3.0906,Pegmatite_rect,2,0,2,0,1,
633a35fc5b65d7fa6965c176,SCR,2024-06-24_14h37.30.825,LearnStrategy,2023.2.3,Win32,2.727024816,6,2,4,,,,,,,,3,10,,,,,,,,,,,,,3,1.679,1,,,,,,0.127927928,-0.252552589,1,0,0,1.6793,Diorite_rect,3,0,3,0,1,
633a35fc5b65d7fa6965c176,SCR,2024-06-24_14h37.30.825,LearnStrategy,2023.2.3,Win32,2.727024816,6,2,5,,,,,,,,5,11,,,,,,,,,,,,,5,1.701,1,,,,,,-0.35795794,-0.379879898,1,0,0,1.7011,Obsidian_rect,4,0,4,0,1,
633a35fc5b65d7fa6965c176,SCR,2024-06-24_14h37.30.825,LearnStrategy,2023.2.3,Win32,2.727024816,6,2,6,,,,,,,,8,05,,,,,,,,,,,,,8,6.934,1,,,,,,0.3633634,-0.384084121,1,0,0,6.9345,Pumice_rect,5,0,5,0,1,
633a35fc5b65d7fa6965c176,SCR,2024-06-24_14h37.30.825,LearnStrategy,2023.2.3,Win32,2.727024816,6,2,7,,,,,,,,4,14,,,,,,,,,,,,,4,1.908,1,,,,,,0.327927928,-0.2633634,1,0,0,1.9083,Gabbro_rect,6,0,6,0,1,
633a35fc5b65d7fa6965c176,SCR,2024-06-24_14h37.30.825,LearnStrategy,2023.2.3,Win32,2.727024816,6,2,8,,,,,,,,1,05,,,,,,,,,,,,,7,4.744,0,,,,,,0.163963964,-0.388888907,1,0,0,4.7441,Peridotite_rect,7,0,7,0,1,
633a35fc5b65d7fa6965c176,SCR,2024-06-24_14h37.30.825,LearnStrategy,2023.2.3,Win32,2.727024816,6,2,9,,,,,,,,4,11,,,,,,,,,,,,,2,4.781,0,,,,,,-0.080480462,-0.250750787,1,0,0,4.7808,Basalt_rect,8,0,8,0,1,
633a35fc5b65d7fa6965c176,SCR,2024-06-24_14h37.30.825,LearnStrategy,2023.2.3,Win32,2.727024816,6,2,10,,,,,,,,3,02,,,,,,,,,,,,,3,2.254,1,,,,,,0.187988061,-0.239339358,1,0,0,2.2542,Diorite_rect,9,0,9,0,1,
633a35fc5b65d7fa6965c176,SCR,2024-06-24_14h37.30.825,LearnStrategy,2023.2.3,Win32,2.727024816,6,2,11,,,,,,,,7,15,,,,,,,,,,,,,6,2.269,0,,,,,,-0.141141104,-0.396696733,1,0,0,2.2686,Pegmatite_rect,10,0,10,0,1,
633a35fc5b65d7fa6965c176,SCR,2024-06-24_14h37.30.825,LearnStrategy,2023.2.3,Win32,2.727024816,6,2,12,,,,,,,,8,10,,,,,,,,,,,,,1,6.887,0,,,,,,-0.354354336,-0.263963964,1,0,0,6.8873,Andesite_rect,11,0,11,0,1,
633a35fc5b65d7fa6965c176,SCR,2024-06-24_14h37.30.825,LearnStrategy,2023.2.3,Win32,2.727024816,6,2,13,,,,,,,,5,14,,,,,,,,,,,,,5,1.948,1,,,,,,-0.375375366,-0.410510529,1,0,0,1.9477,Obsidian_rect,12,0,12,0,1,
633a35fc5b65d7fa6965c176,SCR,2024-06-24_14h37.30.825,LearnStrategy,2023.2.3,Win32,2.727024816,6,2,14,,,,,,,,2,05,,,,,,,,,,,,,4,2.481,0,,,,,,0.406006079,-0.245945946,1,0,0,2.4813,Gabbro_rect,13,0,13,0,1,
633a35fc5b65d7fa6965c176,SCR,2024-06-24_14h37.30.825,LearnStrategy,2023.2.3,Win32,2.727024816,6,2,15,,,,,,,,2,08,,,,,,,,,,,,,4,4.371,0,,,,,,0.396396396,-0.242942961,1,0,0,4.3714,Gabbro_rect,14,0,14,0,1,
633a35fc5b65d7fa6965c176,SCR,2024-06-24_14h37.30.825,LearnStrategy,2023.2.3,Win32,2.727024816,6,2,16,,,,,,,,7,14,,,,,,,,,,,,,6,3.755,0,,,,,,-0.1183183,-0.391891892,1,0,0,3.7553,Pegmatite_rect,15,0,15,0,1,
633a35fc5b65d7fa6965c176,SCR,2024-06-24_14h37.30.825,LearnStrategy,2023.2.3,Win32,2.727024816,7,1,1,-0.081081081,-0.387687724,1,0,0,1.6604,Basalt_01,2,01,1,4,1.66,2,01,-0.111111093,-0.25195197,1,0,0,3.5503,Basalt_rect,2,3.55,1,0,0,0,0,1,,,,,,,,,,,,,
633a35fc5b65d7fa6965c176,SCR,2024-06-24_14h37.30.825,LearnStrategy,2023.2.3,Win32,2.727024816,7,1,2,0.213213287,0.051351351,1,0,0,1.6683,Gabbro_08,4,08,4,6,1.668,4,08,-0.35915915,-0.230930968,1,0,0,3.1548,Andesite_rect,1,3.155,0,1,0,1,0,1,,,,,,,,,,,,,
633a35fc5b65d7fa6965c176,SCR,2024-06-24_14h37.30.825,LearnStrategy,2023.2.3,Win32,2.727024816,7,1,3,-0.227627591,0.240540541,1,0,0,1.6791,Pegmatite_05,6,05,5,3,1.679,6,05,-0.148948931,-0.412312331,1,0,0,3.8714,Pegmatite_rect,6,3.871,1,2,0,2,0,1,,,,,,,,,,,,,
633a35fc5b65d7fa6965c176,SCR,2024-06-24_14h37.30.825,LearnStrategy,2023.2.3,Win32,2.727024816,7,1,4,-0.569969961,0.430330328,1,0,0,4.9569,Gabbro_09,4,09,6,1,4.957,4,09,0.335735809,-0.259759796,1,0,0,3.3117,Gabbro_rect,4,3.312,1,3,0,3,0,1,,,,,,,,,,,,,
633a35fc5b65d7fa6965c176,SCR,2024-06-24_14h37.30.825,LearnStrategy,2023.2.3,Win32,2.727024816,7,1,5,0.551952025,-0.372672691,1,0,0,1.9544,Peridotite_04,7,04,1,8,1.954,7,04,0.154954955,-0.385885923,1,0,0,1.7033,Peridotite_rect,7,1.703,1,4,0,4,0,1,,,,,,,,,,,,,
633a35fc5b65d7fa6965c176,SCR,2024-06-24_14h37.30.825,LearnStrategy,2023.2.3,Win32,2.727024816,7,1,6,0.055255292,0.050150141,1,0,0,1.4054,Peridotite_16,7,16,4,5,1.405,7,16,-0.120120102,-0.406906925,1,0,0,3.09,Pegmatite_rect,6,3.09,0,5,0,5,0,1,,,,,,,,,,,,,
633a35fc5b65d7fa6965c176,SCR,2024-06-24_14h37.30.825,LearnStrategy,2023.2.3,Win32,2.727024816,7,1,7,-0.241441441,0.066366357,1,0,0,1.4024,Pumice_04,8,04,4,3,1.402,8,04,0.368168241,-0.408708727,1,0,0,1.6834,Pumice_rect,8,1.683,1,6,0,6,0,1,,,,,,,,,,,,,
633a35fc5b65d7fa6965c176,SCR,2024-06-24_14h37.30.825,LearnStrategy,2023.2.3,Win32,2.727024816,7,1,8,0.38318322,-0.369069087,1,0,0,1.6883,Basalt_10,2,10,1,7,1.688,2,10,-0.128528492,-0.256156193,1,0,0,3.9479,Basalt_rect,2,3.948,1,7,0,7,0,1,,,,,,,,,,,,,
633a35fc5b65d7fa6965c176,SCR,2024-06-24_14h37.30.825,LearnStrategy,2023.2.3,Win32,2.727024816,7,1,9,0.425225225,-0.1,1,0,0,2.5402,Obsidian_12,5,12,3,7,2.54,5,12,-0.378378378,-0.394294313,1,0,0,1.6829,Obsidian_rect,5,1.683,1,8,0,8,0,1,,,,,,,,,,,,,
633a35fc5b65d7fa6965c176,SCR,2024-06-24_14h37.30.825,LearnStrategy,2023.2.3,Win32,2.727024816,7,1,10,0.049849887,-0.240540541,1,0,0,1.3986,Andesite_10,1,10,2,5,1.399,1,10,-0.406005997,-0.253753772,1,0,0,4.1546,Andesite_rect,1,4.155,1,9,0,9,0,1,,,,,,,,,,,,,
633a35fc5b65d7fa6965c176,SCR,2024-06-24_14h37.30.825,LearnStrategy,2023.2.3,Win32,2.727024816,7,1,11,-0.37897897,0.081981982,1,0,0,1.4208,Peridotite_10,7,10,4,2,1.421,7,10,0.115915934,-0.400900901,1,0,0,4.6002,Peridotite_rect,7,4.6,1,10,0,10,0,1,,,,,,,,,,,,,
633a35fc5b65d7fa6965c176,SCR,2024-06-24_14h37.30.825,LearnStrategy,2023.2.3,Win32,2.727024816,7,1,12,0.215615652,-0.084384403,1,0,0,1.7022,Basalt_02,2,02,3,6,1.702,2,02,0.369970043,-0.255555574,1,0,0,7.0766,Gabbro_rect,4,7.077,0,11,0,11,0,1,,,,,,,,,,,,,
633a35fc5b65d7fa6965c176,SCR,2024-06-24_14h37.30.825,LearnStrategy,2023.2.3,Win32,2.727024816,7,1,13,-0.562762754,0.415315315,1,0,0,1.6776,Gabbro_09,4,09,6,1,1.678,4,09,-0.384384375,-0.24954955,1,0,0,3.0976,Andesite_rect,1,3.098,0,12,0,12,0,1,,,,,,,,,,,,,
633a35fc5b65d7fa6965c176,SCR,2024-06-24_14h37.30.825,LearnStrategy,2023.2.3,Win32,2.727024816,7,1,14,-0.557357348,-0.2633634,1,0,0,1.6952,Pegmatite_07,6,07,2,1,1.695,6,07,-0.153153153,-0.395495495,1,0,0,1.4277,Pegmatite_rect,6,1.428,1,13,0,13,0,1,,,,,,,,,,,,,
633a35fc5b65d7fa6965c176,SCR,2024-06-24_14h37.30.825,LearnStrategy,2023.2.3,Win32,2.727024816,7,1,15,-0.376576577,0.232732714,1,0,0,1.4068,Diorite_12,3,12,5,2,1.407,3,12,0.121921959,-0.233933952,1,0,0,2.9197,Diorite_rect,3,2.92,1,14,0,14,0,1,,,,,,,,,,,,,
633a35fc5b65d7fa6965c176,SCR,2024-06-24_14h37.30.825,LearnStrategy,2023.2.3,Win32,2.727024816,7,1,16,-0.099099099,-0.266366385,1,0,0,1.4387,Andesite_02,1,02,2,4,1.439,1,02,-0.382582573,-0.257357376,1,0,0,10.8468,Andesite_rect,1,10.847,1,15,0,15,0,1,,,,,,,,,,,,,
633a35fc5b65d7fa6965c176,SCR,2024-06-24_14h37.30.825,LearnStrategy,2023.2.3,Win32,2.727024816,7,2,1,,,,,,,,1,05,,,,,,,,,,,,,7,1.832,0,,,,,,0.147747748,-0.403303322,1,0,0,1.8319,Peridotite_rect,0,0,0,0,1,
633a35fc5b65d7fa6965c176,SCR,2024-06-24_14h37.30.825,LearnStrategy,2023.2.3,Win32,2.727024816,7,2,2,,,,,,,,5,11,,,,,,,,,,,,,5,1.736,1,,,,,,-0.494294285,-0.399099099,1,0,0,1.7361,Obsidian_rect,1,0,1,0,1,
633a35fc5b65d7fa6965c176,SCR,2024-06-24_14h37.30.825,LearnStrategy,2023.2.3,Win32,2.727024816,7,2,3,,,,,,,,6,08,,,,,,,,,,,,,6,1.71,1,,,,,,-0.183783784,-0.382882883,1,0,0,1.7101,Pegmatite_rect,2,0,2,0,1,
633a35fc5b65d7fa6965c176,SCR,2024-06-24_14h37.30.825,LearnStrategy,2023.2.3,Win32,2.727024816,7,2,4,,,,,,,,8,05,,,,,,,,,,,,,8,1.72,1,,,,,,0.361561598,-0.378078096,1,0,0,1.7203,Pumice_rect,3,0,3,0,1,
633a35fc5b65d7fa6965c176,SCR,2024-06-24_14h37.30.825,LearnStrategy,2023.2.3,Win32,2.727024816,7,2,5,,,,,,,,1,07,,,,,,,,,,,,,7,4.322,0,,,,,,0.122522523,-0.396696733,1,0,0,4.3222,Peridotite_rect,4,0,4,0,1,
633a35fc5b65d7fa6965c176,SCR,2024-06-24_14h37.30.825,LearnStrategy,2023.2.3,Win32,2.727024816,7,2,6,,,,,,,,2,09,,,,,,,,,,,,,4,6.897,0,,,,,,0.365165202,-0.244144144,1,0,0,6.8968,Gabbro_rect,5,0,5,0,1,
633a35fc5b65d7fa6965c176,SCR,2024-06-24_14h37.30.825,LearnStrategy,2023.2.3,Win32,2.727024816,7,2,7,,,,,,,,7,05,,,,,,,,,,,,,1,6.84,0,,,,,,-0.377177168,-0.230930968,1,0,0,6.84,Andesite_rect,6,0,6,0,1,
633a35fc5b65d7fa6965c176,SCR,2024-06-24_14h37.30.825,LearnStrategy,2023.2.3,Win32,2.727024816,7,2,8,,,,,,,,8,03,,,,,,,,,,,,,8,2.005,1,,,,,,0.330930968,-0.406306306,1,0,0,2.0052,Pumice_rect,7,0,7,0,1,
633a35fc5b65d7fa6965c176,SCR,2024-06-24_14h37.30.825,LearnStrategy,2023.2.3,Win32,2.727024816,7,2,9,,,,,,,,5,07,,,,,,,,,,,,,5,2.104,1,,,,,,-0.425225225,-0.384084121,1,0,0,2.1045,Obsidian_rect,8,0,8,0,1,
633a35fc5b65d7fa6965c176,SCR,2024-06-24_14h37.30.825,LearnStrategy,2023.2.3,Win32,2.727024816,7,2,10,,,,,,,,4,05,,,,,,,,,,,,,4,10.949,1,,,,,,0.357957995,-0.25195197,1,0,0,10.9493,Gabbro_rect,9,0,9,0,1,
633a35fc5b65d7fa6965c176,SCR,2024-06-24_14h37.30.825,LearnStrategy,2023.2.3,Win32,2.727024816,7,2,11,,,,,,,,3,10,,,,,,,,,,,,,3,2.309,1,,,,,,0.187387387,-0.242942961,1,0,0,2.3092,Diorite_rect,10,0,10,0,1,
633a35fc5b65d7fa6965c176,SCR,2024-06-24_14h37.30.825,LearnStrategy,2023.2.3,Win32,2.727024816,7,2,12,,,,,,,,3,13,,,,,,,,,,,,,3,2.018,1,,,,,,0.187387387,-0.242942961,1,0,0,2.0177,Diorite_rect,11,0,11,0,1,
633a35fc5b65d7fa6965c176,SCR,2024-06-24_14h37.30.825,LearnStrategy,2023.2.3,Win32,2.727024816,7,2,13,,,,,,,,4,16,,,,,,,,,,,,,4,1.736,1,,,,,,0.384985022,-0.254954955,1,0,0,1.7357,Gabbro_rect,12,0,12,0,1,
633a35fc5b65d7fa6965c176,SCR,2024-06-24_14h37.30.825,LearnStrategy,2023.2.3,Win32,2.727024816,7,2,14,,,,,,,,2,05,,,,,,,,,,,,,2,2.233,1,,,,,,-0.064864865,-0.247147184,1,0,0,2.2327,Basalt_rect,13,0,13,0,1,
633a35fc5b65d7fa6965c176,SCR,2024-06-24_14h37.30.825,LearnStrategy,2023.2.3,Win32,2.727024816,7,2,15,,,,,,,,6,12,,,,,,,,,,,,,6,2.023,1,,,,,,-0.134534516,-0.387687724,1,0,0,2.023,Pegmatite_rect,14,0,14,0,1,
633a35fc5b65d7fa6965c176,SCR,2024-06-24_14h37.30.825,LearnStrategy,2023.2.3,Win32,2.727024816,7,2,16,,,,,,,,7,07,,,,,,,,,,,,,7,2.687,1,,,,,,0.099699718,-0.394894932,1,0,0,2.687,Peridotite_rect,15,0,15,0,1,
633a35fc5b65d7fa6965c176,SCR,2024-06-24_14h37.30.825,LearnStrategy,2023.2.3,Win32,2.727024816,8,1,1,0.558558559,-0.400300337,1,0,0,3.1395,Peridotite_04,7,04,1,8,3.139,7,04,0.218618692,-0.397897916,1,0,0,1.4062,Peridotite_rect,7,1.406,1,0,0,0,0,1,,,,,,,,,,,,,
633a35fc5b65d7fa6965c176,SCR,2024-06-24_14h37.30.825,LearnStrategy,2023.2.3,Win32,2.727024816,8,1,2,-0.070870834,-0.222522523,1,0,0,2.834,Andesite_02,1,02,2,4,2.834,1,02,-0.34954955,-0.256156193,1,0,0,10.2948,Andesite_rect,1,10.295,1,1,0,1,0,1,,,,,,,,,,,,,
633a35fc5b65d7fa6965c176,SCR,2024-06-24_14h37.30.825,LearnStrategy,2023.2.3,Win32,2.727024816,8,1,3,0.084084121,-0.385885923,1,0,0,3.1023,Peridotite_08,7,08,1,5,3.102,7,08,0.112312331,-0.406306306,1,0,0,1.4101,Peridotite_rect,7,1.41,1,2,0,2,0,1,,,,,,,,,,,,,
633a35fc5b65d7fa6965c176,SCR,2024-06-24_14h37.30.825,LearnStrategy,2023.2.3,Win32,2.727024816,8,1,4,0.275075112,-0.253753772,1,0,0,1.7192,Obsidian_02,5,02,2,6,1.719,5,02,-0.368168159,-0.419519538,1,0,0,1.6821,Obsidian_rect,5,1.682,1,3,0,3,0,1,,,,,,,,,,,,,
633a35fc5b65d7fa6965c176,SCR,2024-06-24_14h37.30.825,LearnStrategy,2023.2.3,Win32,2.727024816,8,1,5,0.066066103,-0.226726745,1,0,0,1.3987,Andesite_10,1,10,2,5,1.399,1,10,-0.358558559,-0.228528547,1,0,0,7.6949,Andesite_rect,1,7.695,1,4,0,4,0,1,,,,,,,,,,,,,
633a35fc5b65d7fa6965c176,SCR,2024-06-24_14h37.30.825,LearnStrategy,2023.2.3,Win32,2.727024816,8,1,6,-0.366966949,-0.380480517,1,0,0,2.5631,Gabbro_03,4,03,1,2,2.563,4,03,0.12972973,-0.421921959,1,0,0,11.9074,Peridotite_rect,7,11.907,0,5,0,5,0,1,,,,,,,,,,,,,
633a35fc5b65d7fa6965c176,SCR,2024-06-24_14h37.30.825,LearnStrategy,2023.2.3,Win32,2.727024816,8,1,7,0.076876914,0.065765766,1,0,0,3.6337,Peridotite_16,7,16,4,5,3.634,7,16,-0.133333333,-0.420120157,1,0,0,1.6868,Pegmatite_rect,6,1.687,0,6,0,6,0,1,,,,,,,,,,,,,
633a35fc5b65d7fa6965c176,SCR,2024-06-24_14h37.30.825,LearnStrategy,2023.2.3,Win32,2.727024816,8,1,8,-0.593393384,0.237537528,1,0,0,1.3918,Basalt_14,2,14,5,1,1.392,2,14,-0.130330294,-0.241741778,1,0,0,2.2865,Basalt_rect,2,2.287,1,7,0,7,0,1,,,,,,,,,,,,,
633a35fc5b65d7fa6965c176,SCR,2024-06-24_14h37.30.825,LearnStrategy,2023.2.3,Win32,2.727024816,8,1,9,-0.409009009,0.073573564,1,0,0,1.4075,Peridotite_10,7,10,4,2,1.407,7,10,0.12372376,-0.394294313,1,0,0,1.734,Peridotite_rect,7,1.734,1,8,0,8,0,1,,,,,,,,,,,,,
633a35fc5b65d7fa6965c176,SCR,2024-06-24_14h37.30.825,LearnStrategy,2023.2.3,Win32,2.727024816,8,1,10,0.376576577,-0.379879898,1,0,0,1.6888,Basalt_10,2,10,1,7,1.689,2,10,0.372972973,-0.252552589,1,0,0,1.4206,Gabbro_rect,4,1.421,0,9,0,9,0,1,,,,,,,,,,,,,
633a35fc5b65d7fa6965c176,SCR,2024-06-24_14h37.30.825,LearnStrategy,2023.2.3,Win32,2.727024816,8,1,11,0.518918919,0.199699691,1,0,0,1.9996,Andesite_14,1,14,5,8,2,1,14,-0.377777759,-0.242342342,1,0,0,4.0227,Andesite_rect,1,4.023,1,10,0,10,0,1,,,,,,,,,,,,,
633a35fc5b65d7fa6965c176,SCR,2024-06-24_14h37.30.825,LearnStrategy,2023.2.3,Win32,2.727024816,8,1,12,-0.551951943,-0.118618637,1,0,0,1.4075,Diorite_14,3,14,3,1,1.407,3,14,0.113513514,-0.235735754,1,0,0,1.4366,Diorite_rect,3,1.437,1,11,0,11,0,1,,,,,,,,,,,,,
633a35fc5b65d7fa6965c176,SCR,2024-06-24_14h37.30.825,LearnStrategy,2023.2.3,Win32,2.727024816,8,1,13,-0.362762754,-0.445945946,1,0,0,1.4039,Gabbro_03,4,03,1,2,1.404,4,03,-0.353753745,-0.248948986,1,0,0,5.2866,Andesite_rect,1,5.287,0,12,0,12,0,1,,,,,,,,,,,,,
633a35fc5b65d7fa6965c176,SCR,2024-06-24_14h37.30.825,LearnStrategy,2023.2.3,Win32,2.727024816,8,1,14,0.368168241,0.260960952,1,0,0,5.5635,Pegmatite_06,6,06,5,7,5.563,6,06,-0.143543525,-0.399699718,1,0,0,1.736,Pegmatite_rect,6,1.736,1,13,0,13,0,1,,,,,,,,,,,,,
633a35fc5b65d7fa6965c176,SCR,2024-06-24_14h37.30.825,LearnStrategy,2023.2.3,Win32,2.727024816,8,1,15,0.25045045,-0.066366385,1,0,0,1.4047,Basalt_02,2,02,3,6,1.405,2,02,0.385585586,-0.255555574,1,0,0,5.4032,Gabbro_rect,4,5.403,0,14,0,14,0,1,,,,,,,,,,,,,
633a35fc5b65d7fa6965c176,SCR,2024-06-24_14h37.30.825,LearnStrategy,2023.2.3,Win32,2.727024816,8,1,16,-0.257057039,0.394294292,1,0,0,3.1007,Pumice_14,8,14,6,3,3.101,8,14,0.449249323,-0.416516553,1,0,0,1.7054,Pumice_rect,8,1.705,1,15,0,15,0,1,,,,,,,,,,,,,
633a35fc5b65d7fa6965c176,SCR,2024-06-24_14h37.30.825,LearnStrategy,2023.2.3,Win32,2.727024816,8,2,1,,,,,,,,1,09,,,,,,,,,,,,,2,5.205,0,,,,,,-0.110510474,-0.240540541,1,0,0,5.2046,Basalt_rect,0,0,0,0,1,
633a35fc5b65d7fa6965c176,SCR,2024-06-24_14h37.30.825,LearnStrategy,2023.2.3,Win32,2.727024816,8,2,2,,,,,,,,5,14,,,,,,,,,,,,,5,4.309,1,,,,,,-0.381981982,-0.407507544,1,0,0,4.3085,Obsidian_rect,1,0,1,0,1,
633a35fc5b65d7fa6965c176,SCR,2024-06-24_14h37.30.825,LearnStrategy,2023.2.3,Win32,2.727024816,8,2,3,,,,,,,,4,14,,,,,,,,,,,,,4,2.25,1,,,,,,0.390990991,-0.257957995,1,0,0,2.25,Gabbro_rect,2,0,2,0,1,
633a35fc5b65d7fa6965c176,SCR,2024-06-24_14h37.30.825,LearnStrategy,2023.2.3,Win32,2.727024816,8,2,4,,,,,,,,6,09,,,,,,,,,,,,,6,2.134,1,,,,,,-0.14654651,-0.393693694,1,0,0,2.1339,Pegmatite_rect,3,0,3,0,1,
633a35fc5b65d7fa6965c176,SCR,2024-06-24_14h37.30.825,LearnStrategy,2023.2.3,Win32,2.727024816,8,2,5,,,,,,,,8,13,,,,,,,,,,,,,8,1.697,1,,,,,,0.366967004,-0.396696733,1,0,0,1.697,Pumice_rect,4,0,4,0,1,
633a35fc5b65d7fa6965c176,SCR,2024-06-24_14h37.30.825,LearnStrategy,2023.2.3,Win32,2.727024816,8,2,6,,,,,,,,1,03,,,,,,,,,,,,,7,1.774,0,,,,,,0.148948986,-0.393693694,1,0,0,1.7735,Peridotite_rect,5,0,5,0,1,
633a35fc5b65d7fa6965c176,SCR,2024-06-24_14h37.30.825,LearnStrategy,2023.2.3,Win32,2.727024816,8,2,7,,,,,,,,3,11,,,,,,,,,,,,,3,1.705,1,,,,,,0.137537556,-0.27177179,1,0,0,1.7051,Diorite_rect,6,0,6,0,1,
633a35fc5b65d7fa6965c176,SCR,2024-06-24_14h37.30.825,LearnStrategy,2023.2.3,Win32,2.727024816,8,2,8,,,,,,,,5,04,,,,,,,,,,,,,5,4.836,1,,,,,,-0.365165147,-0.390690709,1,0,0,4.8364,Obsidian_rect,7,0,7,0,1,
633a35fc5b65d7fa6965c176,SCR,2024-06-24_14h37.30.825,LearnStrategy,2023.2.3,Win32,2.727024816,8,2,9,,,,,,,,8,10,,,,,,,,,,,,,1,7.043,0,,,,,,-0.33933933,-0.258558559,1,0,0,7.0429,Andesite_rect,8,0,8,0,1,
633a35fc5b65d7fa6965c176,SCR,2024-06-24_14h37.30.825,LearnStrategy,2023.2.3,Win32,2.727024816,8,2,10,,,,,,,,6,16,,,,,,,,,,,,,6,1.75,1,,,,,,-0.142342342,-0.389489526,1,0,0,1.7496,Pegmatite_rect,9,0,9,0,1,
633a35fc5b65d7fa6965c176,SCR,2024-06-24_14h37.30.825,LearnStrategy,2023.2.3,Win32,2.727024816,8,2,11,,,,,,,,2,08,,,,,,,,,,,,,4,4.73,0,,,,,,0.327327364,-0.248348367,1,0,0,4.7296,Gabbro_rect,10,0,10,0,1,
633a35fc5b65d7fa6965c176,SCR,2024-06-24_14h37.30.825,LearnStrategy,2023.2.3,Win32,2.727024816,8,2,12,,,,,,,,7,15,,,,,,,,,,,,,7,2.609,1,,,,,,0.127927928,-0.389489526,1,0,0,2.609,Peridotite_rect,11,0,11,0,1,
633a35fc5b65d7fa6965c176,SCR,2024-06-24_14h37.30.825,LearnStrategy,2023.2.3,Win32,2.727024816,8,2,13,,,,,,,,4,11,,,,,,,,,,,,,4,4.07,1,,,,,,0.441441441,-0.228528547,1,0,0,4.0697,Gabbro_rect,12,0,12,0,1,
633a35fc5b65d7fa6965c176,SCR,2024-06-24_14h37.30.825,LearnStrategy,2023.2.3,Win32,2.727024816,8,2,14,,,,,,,,2,06,,,,,,,,,,,,,2,2.562,1,,,,,,-0.08708705,-0.253753772,1,0,0,2.5621,Basalt_rect,13,0,13,0,1,
633a35fc5b65d7fa6965c176,SCR,2024-06-24_14h37.30.825,LearnStrategy,2023.2.3,Win32,2.727024816,8,2,15,,,,,,,,3,02,,,,,,,,,,,,,3,2.036,1,,,,,,0.066066103,-0.2633634,1,0,0,2.0364,Diorite_rect,14,0,14,0,1,
633a35fc5b65d7fa6965c176,SCR,2024-06-24_14h37.30.825,LearnStrategy,2023.2.3,Win32,2.727024816,8,2,16,,,,,,,,7,02,,,,,,,,,,,,,6,9.526,0,,,,,,-0.221621622,-0.397897916,1,0,0,9.5263,Pegmatite_rect,15,0,15,0,1,
633a35fc5b65d7fa6965c176,SCR,2024-06-24_14h37.30.825,LearnStrategy,2023.2.3,Win32,2.727024816,9,1,1,0.540540541,-0.42972973,1,0,0,1.6695,Peridotite_04,7,04,1,8,1.669,7,04,0.165165202,-0.405705742,1,0,0,4.2098,Peridotite_rect,7,4.21,1,0,0,0,0,1,,,,,,,,,,,,,
633a35fc5b65d7fa6965c176,SCR,2024-06-24_14h37.30.825,LearnStrategy,2023.2.3,Win32,2.727024816,9,1,2,0.06186188,-0.357657658,1,0,0,34.0428,Peridotite_08,7,08,1,5,34.043,7,08,0.136936937,-0.384684685,1,0,0,5.0785,Peridotite_rect,7,5.079,1,1,0,1,0,1,,,,,,,,,,,,,
633a35fc5b65d7fa6965c176,SCR,2024-06-24_14h37.30.825,LearnStrategy,2023.2.3,Win32,2.727024816,9,1,3,0.368168241,0.075375366,1,0,0,1.4197,Pumice_06,8,06,4,7,1.42,8,06,0.365165202,-0.383483502,1,0,0,3.3551,Pumice_rect,8,3.355,1,2,0,2,0,1,,,,,,,,,,,,,
633a35fc5b65d7fa6965c176,SCR,2024-06-24_14h37.30.825,LearnStrategy,2023.2.3,Win32,2.727024816,9,1,4,-0.538738739,0.215915907,1,0,0,1.4266,Basalt_14,2,14,5,1,1.427,2,14,-0.142342342,-0.244744763,1,0,0,1.7176,Basalt_rect,2,1.718,1,3,0,3,0,1,,,,,,,,,,,,,
633a35fc5b65d7fa6965c176,SCR,2024-06-24_14h37.30.825,LearnStrategy,2023.2.3,Win32,2.727024816,9,1,5,0.080480517,0.256156138,1,0,0,1.6881,Basalt_11,2,11,5,5,1.688,2,11,-0.136936937,-0.414714751,1,0,0,2.6279,Pegmatite_rect,6,2.628,0,4,0,4,0,1,,,,,,,,,,,,,
633a35fc5b65d7fa6965c176,SCR,2024-06-24_14h37.30.825,LearnStrategy,2023.2.3,Win32,2.727024816,9,1,6,-0.526126126,-0.105405405,1,0,0,1.9457,Diorite_14,3,14,3,1,1.946,3,14,0.146546565,-0.257957995,1,0,0,1.4335,Diorite_rect,3,1.434,1,5,0,5,0,1,,,,,,,,,,,,,
633a35fc5b65d7fa6965c176,SCR,2024-06-24_14h37.30.825,LearnStrategy,2023.2.3,Win32,2.727024816,9,1,7,0.517717791,-0.108408445,1,0,0,1.6863,Andesite_11,1,11,3,8,1.686,1,11,-0.370570552,-0.251351351,1,0,0,7.2262,Andesite_rect,1,7.226,1,6,0,6,0,1,,,,,,,,,,,,,
633a35fc5b65d7fa6965c176,SCR,2024-06-24_14h37.30.825,LearnStrategy,2023.2.3,Win32,2.727024816,9,1,8,-0.375375366,0.355855856,1,0,0,1.6768,Basalt_12,2,12,6,2,1.677,2,12,-0.151351351,-0.235735754,1,0,0,6.259,Basalt_rect,2,6.259,1,7,0,7,0,1,,,,,,,,,,,,,
633a35fc5b65d7fa6965c176,SCR,2024-06-24_14h37.30.825,LearnStrategy,2023.2.3,Win32,2.727024816,9,1,9,0.209609683,0.064564555,1,0,0,1.4043,Gabbro_08,4,08,4,6,1.404,4,08,0.400600674,-0.241741778,1,0,0,6.0356,Gabbro_rect,4,6.036,1,8,0,8,0,1,,,,,,,,,,,,,
633a35fc5b65d7fa6965c176,SCR,2024-06-24_14h37.30.825,LearnStrategy,2023.2.3,Win32,2.727024816,9,1,10,-0.054054054,-0.069369369,1,0,0,2.2392,Obsidian_05,5,05,3,4,2.239,5,05,-0.342942934,-0.385285304,1,0,0,2.285,Obsidian_rect,5,2.285,1,9,0,9,0,1,,,,,,,,,,,,,
633a35fc5b65d7fa6965c176,SCR,2024-06-24_14h37.30.825,LearnStrategy,2023.2.3,Win32,2.727024816,9,1,11,0.073873874,-0.274774775,1,0,0,1.4101,Andesite_10,1,10,2,5,1.41,1,10,-0.132132095,-0.236936937,1,0,0,3.5282,Basalt_rect,2,3.528,0,10,0,10,0,1,,,,,,,,,,,,,
633a35fc5b65d7fa6965c176,SCR,2024-06-24_14h37.30.825,LearnStrategy,2023.2.3,Win32,2.727024816,9,1,12,0.070870889,-0.219519538,1,0,0,1.4002,Andesite_10,1,10,2,5,1.4,1,10,-0.177777759,-0.239339358,1,0,0,3.2667,Basalt_rect,2,3.267,0,11,0,11,0,1,,,,,,,,,,,,,
633a35fc5b65d7fa6965c176,SCR,2024-06-24_14h37.30.825,LearnStrategy,2023.2.3,Win32,2.727024816,9,1,13,0.199399436,0.217117117,1,0,0,2.2717,Peridotite_06,7,06,5,6,2.272,7,06,-0.106306306,-0.406306306,1,0,0,1.9645,Pegmatite_rect,6,1.964,0,12,0,12,0,1,,,,,,,,,,,,,
633a35fc5b65d7fa6965c176,SCR,2024-06-24_14h37.30.825,LearnStrategy,2023.2.3,Win32,2.727024816,9,1,14,-0.503303294,-0.220120157,1,0,0,1.7122,Pegmatite_07,6,07,2,1,1.712,6,07,-0.183783784,-0.406906925,1,0,0,2.8326,Pegmatite_rect,6,2.833,1,13,0,13,0,1,,,,,,,,,,,,,
633a35fc5b65d7fa6965c176,SCR,2024-06-24_14h37.30.825,LearnStrategy,2023.2.3,Win32,2.727024816,9,1,15,0.354954955,0.356456447,1,0,0,2.2432,Gabbro_15,4,15,6,7,2.243,4,15,-0.12972973,-0.240540541,1,0,0,6.4941,Basalt_rect,2,6.494,0,14,0,14,0,1,,,,,,,,,,,,,
633a35fc5b65d7fa6965c176,SCR,2024-06-24_14h37.30.825,LearnStrategy,2023.2.3,Win32,2.727024816,9,1,16,0.54354358,-0.095795832,1,0,0,1.6847,Andesite_11,1,11,3,8,1.685,1,11,-0.36876875,-0.246546565,1,0,0,2.6126,Andesite_rect,1,2.613,1,15,0,15,0,1,,,,,,,,,,,,,
633a35fc5b65d7fa6965c176,SCR,2024-06-24_14h37.30.825,LearnStrategy,2023.2.3,Win32,2.727024816,9,2,1,,,,,,,,3,16,,,,,,,,,,,,,3,4.293,1,,,,,,0.10150152,-0.229129166,1,0,0,4.2927,Diorite_rect,0,0,0,0,1,
633a35fc5b65d7fa6965c176,SCR,2024-06-24_14h37.30.825,LearnStrategy,2023.2.3,Win32,2.727024816,9,2,2,,,,,,,,8,08,,,,,,,,,,,,,8,1.745,1,,,,,,0.397597634,-0.39009009,1,0,0,1.7451,Pumice_rect,1,0,1,0,1,
633a35fc5b65d7fa6965c176,SCR,2024-06-24_14h37.30.825,LearnStrategy,2023.2.3,Win32,2.727024816,9,2,3,,,,,,,,2,16,,,,,,,,,,,,,2,1.971,1,,,,,,-0.089489471,-0.254954955,1,0,0,1.9712,Basalt_rect,2,0,2,0,1,
633a35fc5b65d7fa6965c176,SCR,2024-06-24_14h37.30.825,LearnStrategy,2023.2.3,Win32,2.727024816,9,2,4,,,,,,,,5,16,,,,,,,,,,,,,5,1.964,1,,,,,,-0.387987979,-0.381081081,1,0,0,1.9639,Obsidian_rect,3,0,3,0,1,
633a35fc5b65d7fa6965c176,SCR,2024-06-24_14h37.30.825,LearnStrategy,2023.2.3,Win32,2.727024816,9,2,5,,,,,,,,8,15,,,,,,,,,,,,,8,2.552,1,,,,,,0.350750787,-0.394894932,1,0,0,2.5524,Pumice_rect,4,0,4,0,1,
633a35fc5b65d7fa6965c176,SCR,2024-06-24_14h37.30.825,LearnStrategy,2023.2.3,Win32,2.727024816,9,2,6,,,,,,,,5,10,,,,,,,,,,,,,4,8.694,0,,,,,,0.365165202,-0.247147184,1,0,0,8.6944,Gabbro_rect,5,0,5,0,1,
633a35fc5b65d7fa6965c176,SCR,2024-06-24_14h37.30.825,LearnStrategy,2023.2.3,Win32,2.727024816,9,2,7,,,,,,,,7,13,,,,,,,,,,,,,7,5.148,1,,,,,,0.11291295,-0.384684685,1,0,0,5.1478,Peridotite_rect,6,0,6,0,1,
633a35fc5b65d7fa6965c176,SCR,2024-06-24_14h37.30.825,LearnStrategy,2023.2.3,Win32,2.727024816,9,2,8,,,,,,,,1,01,,,,,,,,,,,,,7,6.054,0,,,,,,0.141141159,-0.396096114,1,0,0,6.0541,Peridotite_rect,7,0,7,0,1,
633a35fc5b65d7fa6965c176,SCR,2024-06-24_14h37.30.825,LearnStrategy,2023.2.3,Win32,2.727024816,9,2,9,,,,,,,,4,01,,,,,,,,,,,,,6,14.383,0,,,,,,-0.127327309,-0.391891892,1,0,0,14.3828,Pegmatite_rect,8,0,8,0,1,
633a35fc5b65d7fa6965c176,SCR,2024-06-24_14h37.30.825,LearnStrategy,2023.2.3,Win32,2.727024816,9,2,10,,,,,,,,4,12,,,,,,,,,,,,,4,4.253,1,,,,,,0.410810811,-0.268168186,1,0,0,4.2528,Gabbro_rect,9,0,9,0,1,
633a35fc5b65d7fa6965c176,SCR,2024-06-24_14h37.30.825,LearnStrategy,2023.2.3,Win32,2.727024816,9,2,11,,,,,,,,6,03,,,,,,,,,,,,,6,2.963,1,,,,,,-0.088288288,-0.3816817,1,0,0,2.9628,Pegmatite_rect,10,0,10,0,1,
633a35fc5b65d7fa6965c176,SCR,2024-06-24_14h37.30.825,LearnStrategy,2023.2.3,Win32,2.727024816,9,2,12,,,,,,,,3,07,,,,,,,,,,,,,3,1.765,1,,,,,,0.084684685,-0.258558559,1,0,0,1.7646,Diorite_rect,11,0,11,0,1,
633a35fc5b65d7fa6965c176,SCR,2024-06-24_14h37.30.825,LearnStrategy,2023.2.3,Win32,2.727024816,9,2,13,,,,,,,,6,15,,,,,,,,,,,,,6,1.726,1,,,,,,-0.097897861,-0.416516553,1,0,0,1.7263,Pegmatite_rect,12,0,12,0,1,
633a35fc5b65d7fa6965c176,SCR,2024-06-24_14h37.30.825,LearnStrategy,2023.2.3,Win32,2.727024816,9,2,14,,,,,,,,1,06,,,,,,,,,,,,,7,2.011,0,,,,,,0.125525562,-0.397297297,1,0,0,2.0107,Peridotite_rect,13,0,13,0,1,
633a35fc5b65d7fa6965c176,SCR,2024-06-24_14h37.30.825,LearnStrategy,2023.2.3,Win32,2.727024816,9,2,15,,,,,,,,7,14,,,,,,,,,,,,,6,2.926,0,,,,,,-0.120120102,-0.40990991,1,0,0,2.926,Pegmatite_rect,14,0,14,0,1,
633a35fc5b65d7fa6965c176,SCR,2024-06-24_14h37.30.825,LearnStrategy,2023.2.3,Win32,2.727024816,9,2,16,,,,,,,,2,04,,,,,,,,,,,,,4,3.108,0,,,,,,0.36036036,-0.260960979,1,0,0,3.1076,Gabbro_rect,15,0,15,0,1,
633a35fc5b65d7fa6965c176,SCR,2024-06-24_14h37.30.825,LearnStrategy,2023.2.3,Win32,2.727024816,,,,,,,,,,,,,,,,,,,,,,,,,,,,,,,,,,,,,,,,,,,,,1
633a35fc5b65d7fa6965c176,SCR,2024-06-24_14h37.30.825,LearnStrategy,2023.2.3,Win32,2.727024816,,,,,,,,,,,,,,,,,,,,,,,,,,,,,,,,,,,,,,,,,,,,,
633a35fc5b65d7fa6965c176,SCR,2024-06-24_14h37.30.825,LearnStrategy,2023.2.3,Win32,2.727024816,,,,,,,,,,,8,09,1,1,,,,,,,,,,,,,,,,,,,,,,,,,,,,,,,
633a35fc5b65d7fa6965c176,SCR,2024-06-24_14h37.30.825,LearnStrategy,2023.2.3,Win32,2.727024816,,,,,,,,,,,4,03,1,2,,,,,,,,,,,,,,,,,,,,,,,,,,,,,,,
633a35fc5b65d7fa6965c176,SCR,2024-06-24_14h37.30.825,LearnStrategy,2023.2.3,Win32,2.727024816,,,,,,,,,,,8,02,1,3,,,,,,,,,,,,,,,,,,,,,,,,,,,,,,,
633a35fc5b65d7fa6965c176,SCR,2024-06-24_14h37.30.825,LearnStrategy,2023.2.3,Win32,2.727024816,,,,,,,,,,,2,01,1,4,,,,,,,,,,,,,,,,,,,,,,,,,,,,,,,
633a35fc5b65d7fa6965c176,SCR,2024-06-24_14h37.30.825,LearnStrategy,2023.2.3,Win32,2.727024816,,,,,,,,,,,7,08,1,5,,,,,,,,,,,,,,,,,,,,,,,,,,,,,,,
633a35fc5b65d7fa6965c176,SCR,2024-06-24_14h37.30.825,LearnStrategy,2023.2.3,Win32,2.727024816,,,,,,,,,,,3,06,1,6,,,,,,,,,,,,,,,,,,,,,,,,,,,,,,,
633a35fc5b65d7fa6965c176,SCR,2024-06-24_14h37.30.825,LearnStrategy,2023.2.3,Win32,2.727024816,,,,,,,,,,,2,10,1,7,,,,,,,,,,,,,,,,,,,,,,,,,,,,,,,
633a35fc5b65d7fa6965c176,SCR,2024-06-24_14h37.30.825,LearnStrategy,2023.2.3,Win32,2.727024816,,,,,,,,,,,7,04,1,8,,,,,,,,,,,,,,,,,,,,,,,,,,,,,,,
633a35fc5b65d7fa6965c176,SCR,2024-06-24_14h37.30.825,LearnStrategy,2023.2.3,Win32,2.727024816,,,,,,,,,,,6,07,2,1,,,,,,,,,,,,,,,,,,,,,,,,,,,,,,,
633a35fc5b65d7fa6965c176,SCR,2024-06-24_14h37.30.825,LearnStrategy,2023.2.3,Win32,2.727024816,,,,,,,,,,,6,13,2,2,,,,,,,,,,,,,,,,,,,,,,,,,,,,,,,
633a35fc5b65d7fa6965c176,SCR,2024-06-24_14h37.30.825,LearnStrategy,2023.2.3,Win32,2.727024816,,,,,,,,,,,3,08,2,3,,,,,,,,,,,,,,,,,,,,,,,,,,,,,,,
633a35fc5b65d7fa6965c176,SCR,2024-06-24_14h37.30.825,LearnStrategy,2023.2.3,Win32,2.727024816,,,,,,,,,,,1,02,2,4,,,,,,,,,,,,,,,,,,,,,,,,,,,,,,,
633a35fc5b65d7fa6965c176,SCR,2024-06-24_14h37.30.825,LearnStrategy,2023.2.3,Win32,2.727024816,,,,,,,,,,,1,10,2,5,,,,,,,,,,,,,,,,,,,,,,,,,,,,,,,
633a35fc5b65d7fa6965c176,SCR,2024-06-24_14h37.30.825,LearnStrategy,2023.2.3,Win32,2.727024816,,,,,,,,,,,5,02,2,6,,,,,,,,,,,,,,,,,,,,,,,,,,,,,,,
633a35fc5b65d7fa6965c176,SCR,2024-06-24_14h37.30.825,LearnStrategy,2023.2.3,Win32,2.727024816,,,,,,,,,,,4,13,2,7,,,,,,,,,,,,,,,,,,,,,,,,,,,,,,,
633a35fc5b65d7fa6965c176,SCR,2024-06-24_14h37.30.825,LearnStrategy,2023.2.3,Win32,2.727024816,,,,,,,,,,,6,10,2,8,,,,,,,,,,,,,,,,,,,,,,,,,,,,,,,
633a35fc5b65d7fa6965c176,SCR,2024-06-24_14h37.30.825,LearnStrategy,2023.2.3,Win32,2.727024816,,,,,,,,,,,3,14,3,1,,,,,,,,,,,,,,,,,,,,,,,,,,,,,,,
633a35fc5b65d7fa6965c176,SCR,2024-06-24_14h37.30.825,LearnStrategy,2023.2.3,Win32,2.727024816,,,,,,,,,,,6,11,3,2,,,,,,,,,,,,,,,,,,,,,,,,,,,,,,,
633a35fc5b65d7fa6965c176,SCR,2024-06-24_14h37.30.825,LearnStrategy,2023.2.3,Win32,2.727024816,,,,,,,,,,,5,06,3,3,,,,,,,,,,,,,,,,,,,,,,,,,,,,,,,
633a35fc5b65d7fa6965c176,SCR,2024-06-24_14h37.30.825,LearnStrategy,2023.2.3,Win32,2.727024816,,,,,,,,,,,5,05,3,4,,,,,,,,,,,,,,,,,,,,,,,,,,,,,,,
633a35fc5b65d7fa6965c176,SCR,2024-06-24_14h37.30.825,LearnStrategy,2023.2.3,Win32,2.727024816,,,,,,,,,,,7,12,3,5,,,,,,,,,,,,,,,,,,,,,,,,,,,,,,,
633a35fc5b65d7fa6965c176,SCR,2024-06-24_14h37.30.825,LearnStrategy,2023.2.3,Win32,2.727024816,,,,,,,,,,,2,02,3,6,,,,,,,,,,,,,,,,,,,,,,,,,,,,,,,
633a35fc5b65d7fa6965c176,SCR,2024-06-24_14h37.30.825,LearnStrategy,2023.2.3,Win32,2.727024816,,,,,,,,,,,5,12,3,7,,,,,,,,,,,,,,,,,,,,,,,,,,,,,,,
633a35fc5b65d7fa6965c176,SCR,2024-06-24_14h37.30.825,LearnStrategy,2023.2.3,Win32,2.727024816,,,,,,,,,,,1,11,3,8,,,,,,,,,,,,,,,,,,,,,,,,,,,,,,,
633a35fc5b65d7fa6965c176,SCR,2024-06-24_14h37.30.825,LearnStrategy,2023.2.3,Win32,2.727024816,,,,,,,,,,,3,09,4,1,,,,,,,,,,,,,,,,,,,,,,,,,,,,,,,
633a35fc5b65d7fa6965c176,SCR,2024-06-24_14h37.30.825,LearnStrategy,2023.2.3,Win32,2.727024816,,,,,,,,,,,7,10,4,2,,,,,,,,,,,,,,,,,,,,,,,,,,,,,,,
633a35fc5b65d7fa6965c176,SCR,2024-06-24_14h37.30.825,LearnStrategy,2023.2.3,Win32,2.727024816,,,,,,,,,,,8,04,4,3,,,,,,,,,,,,,,,,,,,,,,,,,,,,,,,
633a35fc5b65d7fa6965c176,SCR,2024-06-24_14h37.30.825,LearnStrategy,2023.2.3,Win32,2.727024816,,,,,,,,,,,5,08,4,4,,,,,,,,,,,,,,,,,,,,,,,,,,,,,,,
633a35fc5b65d7fa6965c176,SCR,2024-06-24_14h37.30.825,LearnStrategy,2023.2.3,Win32,2.727024816,,,,,,,,,,,7,16,4,5,,,,,,,,,,,,,,,,,,,,,,,,,,,,,,,
633a35fc5b65d7fa6965c176,SCR,2024-06-24_14h37.30.825,LearnStrategy,2023.2.3,Win32,2.727024816,,,,,,,,,,,4,08,4,6,,,,,,,,,,,,,,,,,,,,,,,,,,,,,,,
633a35fc5b65d7fa6965c176,SCR,2024-06-24_14h37.30.825,LearnStrategy,2023.2.3,Win32,2.727024816,,,,,,,,,,,8,06,4,7,,,,,,,,,,,,,,,,,,,,,,,,,,,,,,,
633a35fc5b65d7fa6965c176,SCR,2024-06-24_14h37.30.825,LearnStrategy,2023.2.3,Win32,2.727024816,,,,,,,,,,,1,04,4,8,,,,,,,,,,,,,,,,,,,,,,,,,,,,,,,
633a35fc5b65d7fa6965c176,SCR,2024-06-24_14h37.30.825,LearnStrategy,2023.2.3,Win32,2.727024816,,,,,,,,,,,2,14,5,1,,,,,,,,,,,,,,,,,,,,,,,,,,,,,,,
633a35fc5b65d7fa6965c176,SCR,2024-06-24_14h37.30.825,LearnStrategy,2023.2.3,Win32,2.727024816,,,,,,,,,,,3,12,5,2,,,,,,,,,,,,,,,,,,,,,,,,,,,,,,,
633a35fc5b65d7fa6965c176,SCR,2024-06-24_14h37.30.825,LearnStrategy,2023.2.3,Win32,2.727024816,,,,,,,,,,,6,05,5,3,,,,,,,,,,,,,,,,,,,,,,,,,,,,,,,
633a35fc5b65d7fa6965c176,SCR,2024-06-24_14h37.30.825,LearnStrategy,2023.2.3,Win32,2.727024816,,,,,,,,,,,8,16,5,4,,,,,,,,,,,,,,,,,,,,,,,,,,,,,,,
633a35fc5b65d7fa6965c176,SCR,2024-06-24_14h37.30.825,LearnStrategy,2023.2.3,Win32,2.727024816,,,,,,,,,,,2,11,5,5,,,,,,,,,,,,,,,,,,,,,,,,,,,,,,,
633a35fc5b65d7fa6965c176,SCR,2024-06-24_14h37.30.825,LearnStrategy,2023.2.3,Win32,2.727024816,,,,,,,,,,,7,06,5,6,,,,,,,,,,,,,,,,,,,,,,,,,,,,,,,
633a35fc5b65d7fa6965c176,SCR,2024-06-24_14h37.30.825,LearnStrategy,2023.2.3,Win32,2.727024816,,,,,,,,,,,6,06,5,7,,,,,,,,,,,,,,,,,,,,,,,,,,,,,,,
633a35fc5b65d7fa6965c176,SCR,2024-06-24_14h37.30.825,LearnStrategy,2023.2.3,Win32,2.727024816,,,,,,,,,,,1,14,5,8,,,,,,,,,,,,,,,,,,,,,,,,,,,,,,,
633a35fc5b65d7fa6965c176,SCR,2024-06-24_14h37.30.825,LearnStrategy,2023.2.3,Win32,2.727024816,,,,,,,,,,,4,09,6,1,,,,,,,,,,,,,,,,,,,,,,,,,,,,,,,
633a35fc5b65d7fa6965c176,SCR,2024-06-24_14h37.30.825,LearnStrategy,2023.2.3,Win32,2.727024816,,,,,,,,,,,2,12,6,2,,,,,,,,,,,,,,,,,,,,,,,,,,,,,,,
633a35fc5b65d7fa6965c176,SCR,2024-06-24_14h37.30.825,LearnStrategy,2023.2.3,Win32,2.727024816,,,,,,,,,,,8,14,6,3,,,,,,,,,,,,,,,,,,,,,,,,,,,,,,,
633a35fc5b65d7fa6965c176,SCR,2024-06-24_14h37.30.825,LearnStrategy,2023.2.3,Win32,2.727024816,,,,,,,,,,,1,16,6,4,,,,,,,,,,,,,,,,,,,,,,,,,,,,,,,
633a35fc5b65d7fa6965c176,SCR,2024-06-24_14h37.30.825,LearnStrategy,2023.2.3,Win32,2.727024816,,,,,,,,,,,4,10,6,5,,,,,,,,,,,,,,,,,,,,,,,,,,,,,,,
633a35fc5b65d7fa6965c176,SCR,2024-06-24_14h37.30.825,LearnStrategy,2023.2.3,Win32,2.727024816,,,,,,,,,,,5,09,6,6,,,,,,,,,,,,,,,,,,,,,,,,,,,,,,,
633a35fc5b65d7fa6965c176,SCR,2024-06-24_14h37.30.825,LearnStrategy,2023.2.3,Win32,2.727024816,,,,,,,,,,,4,15,6,7,,,,,,,,,,,,,,,,,,,,,,,,,,,,,,,
633a35fc5b65d7fa6965c176,SCR,2024-06-24_14h37.30.825,LearnStrategy,2023.2.3,Win32,2.727024816,,,,,,,,,,,3,15,6,8,,,,,,,,,,,,,,,,,,,,,,,,,,,,,,,