participant,condition,date,expName,psychopyVersion,OS,frameRate,block,phase,trial,learn_mouse_2.x,learn_mouse_2.y,learn_mouse_2.leftButton,learn_mouse_2.midButton,learn_mouse_2.rightButton,learn_mouse_2.time,learn_mouse_2.clicked_name,cat,token,row,col,t_select,cat_mouse_l.x,cat_mouse_l.y,cat_mouse_l.leftButton,cat_mouse_l.midButton,cat_mouse_l.rightButton,cat_mouse_l.time,cat_mouse_l.clicked_name,resp,t_resp,corr,train_trials.thisRepN,train_trials.thisTrialN,train_trials.thisN,train_trials.thisIndex,train_trials.ran,cat_mouse_t.x,cat_mouse_t.y,cat_mouse_t.leftButton,cat_mouse_t.midButton,cat_mouse_t.rightButton,cat_mouse_t.time,cat_mouse_t.clicked_name,test_trials.thisRepN,test_trials.thisTrialN,test_trials.thisN,test_trials.thisIndex,test_trials.ran,Bonus
634282de38138fa9316eb482,TCR,2024-06-20_21h18.37.513,LearnStrategy,2023.2.3,Win32,59.88023952,,,,,,,,,,,,,,,,,,,,,,,,,,,,,,,,,,,,,,,,,,,
634282de38138fa9316eb482,TCR,2024-06-20_21h18.37.513,LearnStrategy,2023.2.3,Win32,59.88023952,1,1,1,0.189814815,0.00462963,1,0,0,3.2809,rock_grid_rect_2,6,12,-1,-1,3.281,-0.130555541,-0.417592578,1,0,0,8.7212,Pegmatite_rect,6,8.721,1,0,0,0,0,1,,,,,,,,,,,,,
634282de38138fa9316eb482,TCR,2024-06-20_21h18.37.513,LearnStrategy,2023.2.3,Win32,59.88023952,1,1,2,0.104629658,0.005555541,1,0,0,1.4623,rock_grid_rect_2,3,08,-1,-1,1.462,-0.12962963,-0.407407407,1,0,0,4.3246,Pegmatite_rect,6,4.325,0,1,0,1,0,1,,,,,,,,,,,,,
634282de38138fa9316eb482,TCR,2024-06-20_21h18.37.513,LearnStrategy,2023.2.3,Win32,59.88023952,1,1,3,0.097222222,-0.006481489,1,0,0,1.6135,rock_grid_rect_2,6,15,-1,-1,1.613,-0.091666681,-0.412037037,1,0,0,3.3085,Pegmatite_rect,6,3.309,1,2,0,2,0,1,,,,,,,,,,,,,
634282de38138fa9316eb482,TCR,2024-06-20_21h18.37.513,LearnStrategy,2023.2.3,Win32,59.88023952,1,1,4,0.051851838,0.006481489,1,0,0,1.4298,rock_grid_rect_2,8,15,-1,-1,1.43,0.375,-0.37962963,1,0,0,3.518,Pumice_rect,8,3.518,1,3,0,3,0,1,,,,,,,,,,,,,
634282de38138fa9316eb482,TCR,2024-06-20_21h18.37.513,LearnStrategy,2023.2.3,Win32,59.88023952,1,1,5,0.003703718,0.000925912,1,0,0,1.3948,rock_grid_rect_2,5,12,-1,-1,1.395,-0.436111097,-0.416666667,1,0,0,1.7329,Obsidian_rect,5,1.733,1,4,0,4,0,1,,,,,,,,,,,,,
634282de38138fa9316eb482,TCR,2024-06-20_21h18.37.513,LearnStrategy,2023.2.3,Win32,59.88023952,1,1,6,-0.02407406,0,1,0,0,1.4022,rock_grid_rect_2,3,07,-1,-1,1.402,0.112037023,-0.24537037,1,0,0,3.7368,Diorite_rect,3,3.737,1,5,0,5,0,1,,,,,,,,,,,,,
634282de38138fa9316eb482,TCR,2024-06-20_21h18.37.513,LearnStrategy,2023.2.3,Win32,59.88023952,1,1,7,0.000925912,0.009259259,1,0,0,1.4027,rock_grid_rect_2,8,02,-1,-1,1.403,0.340740769,-0.378703718,1,0,0,2.8532,Pumice_rect,8,2.853,1,6,0,6,0,1,,,,,,,,,,,,,
634282de38138fa9316eb482,TCR,2024-06-20_21h18.37.513,LearnStrategy,2023.2.3,Win32,59.88023952,1,1,8,0.071296339,-0.024074095,1,0,0,1.4292,rock_grid_rect_2,2,09,-1,-1,1.429,-0.127777735,-0.253703718,1,0,0,1.8756,Basalt_rect,2,1.876,1,7,0,7,0,1,,,,,,,,,,,,,
634282de38138fa9316eb482,TCR,2024-06-20_21h18.37.513,LearnStrategy,2023.2.3,Win32,59.88023952,1,1,9,0.053703732,0.0074074,1,0,0,1.3463,rock_grid_rect_2,1,16,-1,-1,1.346,0.109259288,-0.233333376,1,0,0,5.0406,Diorite_rect,3,5.041,0,8,0,8,0,1,,,,,,,,,,,,,
634282de38138fa9316eb482,TCR,2024-06-20_21h18.37.513,LearnStrategy,2023.2.3,Win32,59.88023952,1,1,10,0.026851866,0.008333312,1,0,0,1.4794,rock_grid_rect_2,5,16,-1,-1,1.479,-0.424999979,-0.404629672,1,0,0,1.6502,Obsidian_rect,5,1.65,1,9,0,9,0,1,,,,,,,,,,,,,
634282de38138fa9316eb482,TCR,2024-06-20_21h18.37.513,LearnStrategy,2023.2.3,Win32,59.88023952,1,1,11,-0.060185185,0.009259259,1,0,0,1.317,rock_grid_rect_2,1,14,-1,-1,1.317,-0.376851859,-0.253703718,1,0,0,5.0957,Andesite_rect,1,5.096,1,10,0,10,0,1,,,,,,,,,,,,,
634282de38138fa9316eb482,TCR,2024-06-20_21h18.37.513,LearnStrategy,2023.2.3,Win32,59.88023952,1,1,12,0.009259259,-0.000925947,1,0,0,1.5038,rock_grid_rect_2,7,07,-1,-1,1.504,0.087037051,-0.405555584,1,0,0,4.7857,Peridotite_rect,7,4.786,1,11,0,11,0,1,,,,,,,,,,,,,
634282de38138fa9316eb482,TCR,2024-06-20_21h18.37.513,LearnStrategy,2023.2.3,Win32,59.88023952,1,1,13,0.009259259,-0.019444466,1,0,0,1.3463,rock_grid_rect_2,4,09,-1,-1,1.346,0.359259288,-0.249074088,1,0,0,3.1153,Gabbro_rect,4,3.115,1,12,0,12,0,1,,,,,,,,,,,,,
634282de38138fa9316eb482,TCR,2024-06-20_21h18.37.513,LearnStrategy,2023.2.3,Win32,59.88023952,1,1,14,0.017592607,0,1,0,0,1.4022,rock_grid_rect_2,4,01,-1,-1,1.402,0.074074074,-0.235185199,1,0,0,5.2684,Diorite_rect,3,5.268,0,13,0,13,0,1,,,,,,,,,,,,,
634282de38138fa9316eb482,TCR,2024-06-20_21h18.37.513,LearnStrategy,2023.2.3,Win32,59.88023952,1,1,15,0.01944443,-0.001851859,1,0,0,1.4466,rock_grid_rect_2,2,10,-1,-1,1.447,0.344444416,-0.247222265,1,0,0,4.7405,Gabbro_rect,4,4.741,0,14,0,14,0,1,,,,,,,,,,,,,
634282de38138fa9316eb482,TCR,2024-06-20_21h18.37.513,LearnStrategy,2023.2.3,Win32,59.88023952,1,1,16,-0.012036995,-0.00462963,1,0,0,1.3302,rock_grid_rect_2,7,06,-1,-1,1.33,0.085185228,-0.397222236,1,0,0,3.525,Peridotite_rect,7,3.525,1,15,0,15,0,1,,,,,,,,,,,,,
634282de38138fa9316eb482,TCR,2024-06-20_21h18.37.513,LearnStrategy,2023.2.3,Win32,59.88023952,1,2,1,,,,,,,,8,13,,,,,,,,,,,8,2.805,1,,,,,,0.349074046,-0.396296325,1,0,0,2.8047,Pumice_rect,0,0,0,0,1,
634282de38138fa9316eb482,TCR,2024-06-20_21h18.37.513,LearnStrategy,2023.2.3,Win32,59.88023952,1,2,2,,,,,,,,7,02,,,,,,,,,,,7,3.24,1,,,,,,0.082407422,-0.408333319,1,0,0,3.2397,Peridotite_rect,1,0,1,0,1,
634282de38138fa9316eb482,TCR,2024-06-20_21h18.37.513,LearnStrategy,2023.2.3,Win32,59.88023952,1,2,3,,,,,,,,4,15,,,,,,,,,,,6,3.999,0,,,,,,-0.115740741,-0.406481496,1,0,0,3.9989,Pegmatite_rect,2,0,2,0,1,
634282de38138fa9316eb482,TCR,2024-06-20_21h18.37.513,LearnStrategy,2023.2.3,Win32,59.88023952,1,2,4,,,,,,,,8,06,,,,,,,,,,,8,1.883,1,,,,,,0.420370455,-0.395370413,1,0,0,1.8827,Pumice_rect,3,0,3,0,1,
634282de38138fa9316eb482,TCR,2024-06-20_21h18.37.513,LearnStrategy,2023.2.3,Win32,59.88023952,1,2,5,,,,,,,,6,03,,,,,,,,,,,6,6.124,1,,,,,,-0.070370356,-0.400925954,1,0,0,6.1243,Pegmatite_rect,4,0,4,0,1,
634282de38138fa9316eb482,TCR,2024-06-20_21h18.37.513,LearnStrategy,2023.2.3,Win32,59.88023952,1,2,6,,,,,,,,6,16,,,,,,,,,,,6,2.034,1,,,,,,-0.070370356,-0.400925954,1,0,0,2.0335,Pegmatite_rect,5,0,5,0,1,
634282de38138fa9316eb482,TCR,2024-06-20_21h18.37.513,LearnStrategy,2023.2.3,Win32,59.88023952,1,2,7,,,,,,,,3,12,,,,,,,,,,,6,1.699,0,,,,,,-0.078703704,-0.39907406,1,0,0,1.6987,Pegmatite_rect,6,0,6,0,1,
634282de38138fa9316eb482,TCR,2024-06-20_21h18.37.513,LearnStrategy,2023.2.3,Win32,59.88023952,1,2,8,,,,,,,,3,11,,,,,,,,,,,6,0.808,0,,,,,,-0.078703704,-0.39907406,1,0,0,0.8083,Pegmatite_rect,7,0,7,0,1,
634282de38138fa9316eb482,TCR,2024-06-20_21h18.37.513,LearnStrategy,2023.2.3,Win32,59.88023952,1,2,9,,,,,,,,5,08,,,,,,,,,,,5,1.657,1,,,,,,-0.349074081,-0.400000042,1,0,0,1.6568,Obsidian_rect,8,0,8,0,1,
634282de38138fa9316eb482,TCR,2024-06-20_21h18.37.513,LearnStrategy,2023.2.3,Win32,59.88023952,1,2,10,,,,,,,,7,13,,,,,,,,,,,7,1.458,1,,,,,,0.107407393,-0.400925954,1,0,0,1.4581,Peridotite_rect,9,0,9,0,1,
634282de38138fa9316eb482,TCR,2024-06-20_21h18.37.513,LearnStrategy,2023.2.3,Win32,59.88023952,1,2,11,,,,,,,,2,11,,,,,,,,,,,1,5.692,0,,,,,,-0.366666653,-0.234259288,1,0,0,5.6917,Andesite_rect,10,0,10,0,1,
634282de38138fa9316eb482,TCR,2024-06-20_21h18.37.513,LearnStrategy,2023.2.3,Win32,59.88023952,1,2,12,,,,,,,,5,05,,,,,,,,,,,5,1.748,1,,,,,,-0.398148148,-0.406481496,1,0,0,1.7477,Obsidian_rect,11,0,11,0,1,
634282de38138fa9316eb482,TCR,2024-06-20_21h18.37.513,LearnStrategy,2023.2.3,Win32,59.88023952,1,2,13,,,,,,,,1,07,,,,,,,,,,,3,3.709,0,,,,,,0.080555598,-0.234259288,1,0,0,3.7087,Diorite_rect,12,0,12,0,1,
634282de38138fa9316eb482,TCR,2024-06-20_21h18.37.513,LearnStrategy,2023.2.3,Win32,59.88023952,1,2,14,,,,,,,,4,03,,,,,,,,,,,7,5.725,0,,,,,,0.090740769,-0.407407407,1,0,0,5.7246,Peridotite_rect,13,0,13,0,1,
634282de38138fa9316eb482,TCR,2024-06-20_21h18.37.513,LearnStrategy,2023.2.3,Win32,59.88023952,1,2,15,,,,,,,,2,16,,,,,,,,,,,2,4.649,1,,,,,,-0.115740741,-0.240740741,1,0,0,4.6494,Basalt_rect,14,0,14,0,1,
634282de38138fa9316eb482,TCR,2024-06-20_21h18.37.513,LearnStrategy,2023.2.3,Win32,59.88023952,1,2,16,,,,,,,,1,09,,,,,,,,,,,1,4.631,1,,,,,,-0.331481474,-0.249074088,1,0,0,4.6305,Andesite_rect,15,0,15,0,1,
634282de38138fa9316eb482,TCR,2024-06-20_21h18.37.513,LearnStrategy,2023.2.3,Win32,59.88023952,2,1,1,-0.002777735,-0.014814836,1,0,0,1.929,rock_grid_rect_2,3,08,-1,-1,1.929,0.184259273,-0.249074088,1,0,0,4.7087,Diorite_rect,3,4.709,1,0,0,0,0,1,,,,,,,,,,,,,
634282de38138fa9316eb482,TCR,2024-06-20_21h18.37.513,LearnStrategy,2023.2.3,Win32,59.88023952,2,1,2,0.038888931,-0.006481489,1,0,0,1.3514,rock_grid_rect_2,4,16,-1,-1,1.351,-0.140740712,-0.258333347,1,0,0,2.9062,Basalt_rect,2,2.906,0,1,0,1,0,1,,,,,,,,,,,,,
634282de38138fa9316eb482,TCR,2024-06-20_21h18.37.513,LearnStrategy,2023.2.3,Win32,59.88023952,2,1,3,0.062962991,-0.011111118,1,0,0,1.6674,rock_grid_rect_2,1,06,-1,-1,1.667,-0.349999993,-0.25,1,0,0,3.3448,Andesite_rect,1,3.345,1,2,0,2,0,1,,,,,,,,,,,,,
634282de38138fa9316eb482,TCR,2024-06-20_21h18.37.513,LearnStrategy,2023.2.3,Win32,59.88023952,2,1,4,0.038888931,-0.013888889,1,0,0,1.6192,rock_grid_rect_2,3,07,-1,-1,1.619,0.130555541,-0.25,1,0,0,3.9701,Diorite_rect,3,3.97,1,3,0,3,0,1,,,,,,,,,,,,,
634282de38138fa9316eb482,TCR,2024-06-20_21h18.37.513,LearnStrategy,2023.2.3,Win32,59.88023952,2,1,5,0.05740745,0.006481489,1,0,0,1.5635,rock_grid_rect_2,2,14,-1,-1,1.564,-0.372222229,-0.244444459,1,0,0,49.9828,Andesite_rect,1,49.983,0,4,0,4,0,1,,,,,,,,,,,,,
634282de38138fa9316eb482,TCR,2024-06-20_21h18.37.513,LearnStrategy,2023.2.3,Win32,59.88023952,2,1,6,0.069444444,0.014814801,1,0,0,0.9855,rock_grid_rect_2,4,13,-1,-1,0.985,-0.092592593,-0.401851866,1,0,0,5.0683,Pegmatite_rect,6,5.068,0,5,0,5,0,1,,,,,,,,,,,,,
634282de38138fa9316eb482,TCR,2024-06-20_21h18.37.513,LearnStrategy,2023.2.3,Win32,59.88023952,2,1,7,0.098148134,0.009259259,1,0,0,0.948,rock_grid_rect_2,4,12,-1,-1,0.948,0.130555541,-0.410185213,1,0,0,2.6073,Peridotite_rect,7,2.607,0,6,0,6,0,1,,,,,,,,,,,,,
634282de38138fa9316eb482,TCR,2024-06-20_21h18.37.513,LearnStrategy,2023.2.3,Win32,59.88023952,2,1,8,0.098148134,0.01944443,1,0,0,0.8862,rock_grid_rect_2,2,12,-1,-1,0.886,0.375925982,-0.407407407,1,0,0,1.9695,Pumice_rect,8,1.969,0,7,0,7,0,1,,,,,,,,,,,,,
634282de38138fa9316eb482,TCR,2024-06-20_21h18.37.513,LearnStrategy,2023.2.3,Win32,59.88023952,2,1,9,0.089814857,0.01944443,1,0,0,0.9194,rock_grid_rect_2,1,04,-1,-1,0.919,-0.348148134,-0.241666653,1,0,0,1.3633,Andesite_rect,1,1.363,1,8,0,8,0,1,,,,,,,,,,,,,
634282de38138fa9316eb482,TCR,2024-06-20_21h18.37.513,LearnStrategy,2023.2.3,Win32,59.88023952,2,1,10,0.117592635,-0.017592607,1,0,0,1.4468,rock_grid_rect_2,3,06,-1,-1,1.447,-0.109259217,-0.398148148,1,0,0,3.4759,Pegmatite_rect,6,3.476,0,9,0,9,0,1,,,,,,,,,,,,,
634282de38138fa9316eb482,TCR,2024-06-20_21h18.37.513,LearnStrategy,2023.2.3,Win32,59.88023952,2,1,11,0.084259245,0.012962942,1,0,0,0.9305,rock_grid_rect_2,7,14,-1,-1,0.93,0.12037037,-0.410185213,1,0,0,2.5582,Peridotite_rect,7,2.558,1,10,0,10,0,1,,,,,,,,,,,,,
634282de38138fa9316eb482,TCR,2024-06-20_21h18.37.513,LearnStrategy,2023.2.3,Win32,59.88023952,2,1,12,0.073148162,-0.018518519,1,0,0,0.8368,rock_grid_rect_2,4,01,-1,-1,0.837,0.175925926,-0.258333347,1,0,0,4.5526,Diorite_rect,3,4.553,0,11,0,11,0,1,,,,,,,,,,,,,
634282de38138fa9316eb482,TCR,2024-06-20_21h18.37.513,LearnStrategy,2023.2.3,Win32,59.88023952,2,1,13,0.118518547,0.01944443,1,0,0,0.847,rock_grid_rect_2,1,16,-1,-1,0.847,-0.066666638,-0.390740783,1,0,0,5.3914,Pegmatite_rect,6,5.391,0,12,0,12,0,1,,,,,,,,,,,,,
634282de38138fa9316eb482,TCR,2024-06-20_21h18.37.513,LearnStrategy,2023.2.3,Win32,59.88023952,2,1,14,0.087037051,0.009259259,1,0,0,0.9698,rock_grid_rect_2,3,02,-1,-1,0.97,0.188888903,-0.260185171,1,0,0,2.4461,Diorite_rect,3,2.446,1,13,0,13,0,1,,,,,,,,,,,,,
634282de38138fa9316eb482,TCR,2024-06-20_21h18.37.513,LearnStrategy,2023.2.3,Win32,59.88023952,2,1,15,0.078703704,0.013888889,1,0,0,0.8692,rock_grid_rect_2,6,10,-1,-1,0.869,-0.042592578,-0.384259259,1,0,0,4.621,Pegmatite_rect,6,4.621,1,14,0,14,0,1,,,,,,,,,,,,,
634282de38138fa9316eb482,TCR,2024-06-20_21h18.37.513,LearnStrategy,2023.2.3,Win32,59.88023952,2,1,16,0.091666681,0.005555541,1,0,0,0.9353,rock_grid_rect_2,8,08,-1,-1,0.935,-0.327777757,-0.232407393,1,0,0,4.0702,Andesite_rect,1,4.07,0,15,0,15,0,1,,,,,,,,,,,,,
634282de38138fa9316eb482,TCR,2024-06-20_21h18.37.513,LearnStrategy,2023.2.3,Win32,59.88023952,2,2,1,,,,,,,,5,04,,,,,,,,,,,5,1.407,1,,,,,,-0.39444443,-0.382407436,1,0,0,1.407,Obsidian_rect,0,0,0,0,1,
634282de38138fa9316eb482,TCR,2024-06-20_21h18.37.513,LearnStrategy,2023.2.3,Win32,59.88023952,2,2,2,,,,,,,,3,13,,,,,,,,,,,6,2.49,0,,,,,,-0.082407422,-0.398148148,1,0,0,2.4902,Pegmatite_rect,1,0,1,0,1,
634282de38138fa9316eb482,TCR,2024-06-20_21h18.37.513,LearnStrategy,2023.2.3,Win32,59.88023952,2,2,3,,,,,,,,7,04,,,,,,,,,,,7,1.772,1,,,,,,0.122222265,-0.380555541,1,0,0,1.7719,Peridotite_rect,2,0,2,0,1,
634282de38138fa9316eb482,TCR,2024-06-20_21h18.37.513,LearnStrategy,2023.2.3,Win32,59.88023952,2,2,4,,,,,,,,1,05,,,,,,,,,,,3,3.027,0,,,,,,0.15370369,-0.229629658,1,0,0,3.0268,Diorite_rect,3,0,3,0,1,
634282de38138fa9316eb482,TCR,2024-06-20_21h18.37.513,LearnStrategy,2023.2.3,Win32,59.88023952,2,2,5,,,,,,,,6,13,,,,,,,,,,,6,3.047,1,,,,,,-0.045370384,-0.408333319,1,0,0,3.0471,Pegmatite_rect,4,0,4,0,1,
634282de38138fa9316eb482,TCR,2024-06-20_21h18.37.513,LearnStrategy,2023.2.3,Win32,59.88023952,2,2,6,,,,,,,,8,09,,,,,,,,,,,8,2.208,1,,,,,,0.417592649,-0.40370369,1,0,0,2.2076,Pumice_rect,5,0,5,0,1,
634282de38138fa9316eb482,TCR,2024-06-20_21h18.37.513,LearnStrategy,2023.2.3,Win32,59.88023952,2,2,7,,,,,,,,1,02,,,,,,,,,,,6,11.679,0,,,,,,-0.083333333,-0.417592578,1,0,0,11.679,Pegmatite_rect,6,0,6,0,1,
634282de38138fa9316eb482,TCR,2024-06-20_21h18.37.513,LearnStrategy,2023.2.3,Win32,59.88023952,2,2,8,,,,,,,,4,08,,,,,,,,,,,6,4.424,0,,,,,,-0.079629616,-0.404629672,1,0,0,4.424,Pegmatite_rect,7,0,7,0,1,
634282de38138fa9316eb482,TCR,2024-06-20_21h18.37.513,LearnStrategy,2023.2.3,Win32,59.88023952,2,2,9,,,,,,,,3,09,,,,,,,,,,,6,1.363,0,,,,,,-0.087037051,-0.381481524,1,0,0,1.3629,Pegmatite_rect,8,0,8,0,1,
634282de38138fa9316eb482,TCR,2024-06-20_21h18.37.513,LearnStrategy,2023.2.3,Win32,59.88023952,2,2,10,,,,,,,,7,08,,,,,,,,,,,7,2.441,1,,,,,,0.119444459,-0.407407407,1,0,0,2.4412,Peridotite_rect,9,0,9,0,1,
634282de38138fa9316eb482,TCR,2024-06-20_21h18.37.513,LearnStrategy,2023.2.3,Win32,59.88023952,2,2,11,,,,,,,,4,10,,,,,,,,,,,4,4.083,1,,,,,,0.397222307,-0.232407393,1,0,0,4.0833,Gabbro_rect,10,0,10,0,1,
634282de38138fa9316eb482,TCR,2024-06-20_21h18.37.513,LearnStrategy,2023.2.3,Win32,59.88023952,2,2,12,,,,,,,,6,07,,,,,,,,,,,6,3.529,1,,,,,,-0.116666653,-0.401851866,1,0,0,3.5289,Pegmatite_rect,11,0,11,0,1,
634282de38138fa9316eb482,TCR,2024-06-20_21h18.37.513,LearnStrategy,2023.2.3,Win32,59.88023952,2,2,13,,,,,,,,2,08,,,,,,,,,,,2,2.262,1,,,,,,-0.089814787,-0.251851894,1,0,0,2.2624,Basalt_rect,12,0,12,0,1,
634282de38138fa9316eb482,TCR,2024-06-20_21h18.37.513,LearnStrategy,2023.2.3,Win32,59.88023952,2,2,14,,,,,,,,2,05,,,,,,,,,,,2,1.144,1,,,,,,-0.10555557,-0.251851894,1,0,0,1.1443,Basalt_rect,13,0,13,0,1,
634282de38138fa9316eb482,TCR,2024-06-20_21h18.37.513,LearnStrategy,2023.2.3,Win32,59.88023952,2,2,15,,,,,,,,5,02,,,,,,,,,,,5,1.14,1,,,,,,-0.346296275,-0.400000042,1,0,0,1.1404,Obsidian_rect,14,0,14,0,1,
634282de38138fa9316eb482,TCR,2024-06-20_21h18.37.513,LearnStrategy,2023.2.3,Win32,59.88023952,2,2,16,,,,,,,,8,04,,,,,,,,,,,8,1.091,1,,,,,,0.366666723,-0.406481496,1,0,0,1.0915,Pumice_rect,15,0,15,0,1,
634282de38138fa9316eb482,TCR,2024-06-20_21h18.37.513,LearnStrategy,2023.2.3,Win32,59.88023952,3,1,1,0.135185171,0,1,0,0,1.0689,rock_grid_rect_2,6,10,-1,-1,1.069,-0.069444444,-0.387037065,1,0,0,3.4189,Pegmatite_rect,6,3.419,1,0,0,0,0,1,,,,,,,,,,,,,
634282de38138fa9316eb482,TCR,2024-06-20_21h18.37.513,LearnStrategy,2023.2.3,Win32,59.88023952,3,1,2,0.12962963,-0.011111118,1,0,0,1.5856,rock_grid_rect_2,3,10,-1,-1,1.586,0.167592578,-0.238888917,1,0,0,6.377,Diorite_rect,3,6.377,1,1,0,1,0,1,,,,,,,,,,,,,
634282de38138fa9316eb482,TCR,2024-06-20_21h18.37.513,LearnStrategy,2023.2.3,Win32,59.88023952,3,1,3,0.101851852,0,1,0,0,0.7364,rock_grid_rect_2,1,16,-1,-1,0.736,0.166666667,-0.241666653,1,0,0,3.8866,Diorite_rect,3,3.887,0,2,0,2,0,1,,,,,,,,,,,,,
634282de38138fa9316eb482,TCR,2024-06-20_21h18.37.513,LearnStrategy,2023.2.3,Win32,59.88023952,3,1,4,0.112037023,0.017592571,1,0,0,0.966,rock_grid_rect_2,1,04,-1,-1,0.966,-0.344444452,-0.259259259,1,0,0,1.7529,Andesite_rect,1,1.753,1,3,0,3,0,1,,,,,,,,,,,,,
634282de38138fa9316eb482,TCR,2024-06-20_21h18.37.513,LearnStrategy,2023.2.3,Win32,59.88023952,3,1,5,0.090740769,0.020370377,1,0,0,0.7805,rock_grid_rect_2,4,13,-1,-1,0.78,-0.092592593,-0.402777778,1,0,0,9.0012,Pegmatite_rect,6,9.001,0,4,0,4,0,1,,,,,,,,,,,,,
634282de38138fa9316eb482,TCR,2024-06-20_21h18.37.513,LearnStrategy,2023.2.3,Win32,59.88023952,3,1,6,0.09629631,0,1,0,0,0.9967,rock_grid_rect_2,3,15,-1,-1,0.997,-0.076851809,-0.407407407,1,0,0,13.1081,Pegmatite_rect,6,13.108,0,5,0,5,0,1,,,,,,,,,,,,,
634282de38138fa9316eb482,TCR,2024-06-20_21h18.37.513,LearnStrategy,2023.2.3,Win32,59.88023952,3,1,7,0.125,0.011111118,1,0,0,0.8306,rock_grid_rect_2,3,07,-1,-1,0.831,0.165740755,-0.248148176,1,0,0,1.2639,Diorite_rect,3,1.264,1,6,0,6,0,1,,,,,,,,,,,,,
634282de38138fa9316eb482,TCR,2024-06-20_21h18.37.513,LearnStrategy,2023.2.3,Win32,59.88023952,3,1,8,0.108333376,0.010185171,1,0,0,0.7858,rock_grid_rect_2,3,08,-1,-1,0.786,0.152777778,-0.251851894,1,0,0,0.937,Diorite_rect,3,0.937,1,7,0,7,0,1,,,,,,,,,,,,,
634282de38138fa9316eb482,TCR,2024-06-20_21h18.37.513,LearnStrategy,2023.2.3,Win32,59.88023952,3,1,9,0.109259288,0.001851859,1,0,0,0.7825,rock_grid_rect_2,6,11,-1,-1,0.783,-0.069444444,-0.386111153,1,0,0,2.1703,Pegmatite_rect,6,2.17,1,8,0,8,0,1,,,,,,,,,,,,,
634282de38138fa9316eb482,TCR,2024-06-20_21h18.37.513,LearnStrategy,2023.2.3,Win32,59.88023952,3,1,10,0.080555598,-0.001851859,1,0,0,0.784,rock_grid_rect_2,1,03,-1,-1,0.784,-0.338888875,-0.229629658,1,0,0,2.4777,Andesite_rect,1,2.478,1,9,0,9,0,1,,,,,,,,,,,,,
634282de38138fa9316eb482,TCR,2024-06-20_21h18.37.513,LearnStrategy,2023.2.3,Win32,59.88023952,3,1,11,0.070370356,0.003703683,1,0,0,0.8826,rock_grid_rect_2,3,07,-1,-1,0.883,0.119444459,-0.248148176,1,0,0,2.6531,Diorite_rect,3,2.653,1,10,0,10,0,1,,,,,,,,,,,,,
634282de38138fa9316eb482,TCR,2024-06-20_21h18.37.513,LearnStrategy,2023.2.3,Win32,59.88023952,3,1,12,0.074074074,0.023148148,1,0,0,0.8338,rock_grid_rect_2,2,09,-1,-1,0.834,-0.337037016,-0.25,1,0,0,2.9532,Andesite_rect,1,2.953,0,11,0,11,0,1,,,,,,,,,,,,,
634282de38138fa9316eb482,TCR,2024-06-20_21h18.37.513,LearnStrategy,2023.2.3,Win32,59.88023952,3,1,13,0.123148176,-0.013888889,1,0,0,1.4295,rock_grid_rect_2,4,12,-1,-1,1.429,-0.14907406,-0.238888917,1,0,0,2.1154,Basalt_rect,2,2.115,0,12,0,12,0,1,,,,,,,,,,,,,
634282de38138fa9316eb482,TCR,2024-06-20_21h18.37.513,LearnStrategy,2023.2.3,Win32,59.88023952,3,1,14,0.089814857,0.002777771,1,0,0,0.8648,rock_grid_rect_2,7,14,-1,-1,0.865,0.429629714,-0.244444459,1,0,0,1.4834,Gabbro_rect,4,1.483,0,13,0,13,0,1,,,,,,,,,,,,,
634282de38138fa9316eb482,TCR,2024-06-20_21h18.37.513,LearnStrategy,2023.2.3,Win32,59.88023952,3,1,15,0.098148134,0.003703683,1,0,0,0.9827,rock_grid_rect_2,4,16,-1,-1,0.983,0.398148148,-0.236111111,1,0,0,2.5203,Gabbro_rect,4,2.52,1,14,0,14,0,1,,,,,,,,,,,,,
634282de38138fa9316eb482,TCR,2024-06-20_21h18.37.513,LearnStrategy,2023.2.3,Win32,59.88023952,3,1,16,0.127777806,-0.00462963,1,0,0,0.7155,rock_grid_rect_2,1,10,-1,-1,0.716,-0.377777771,-0.229629658,1,0,0,2.8467,Andesite_rect,1,2.847,1,15,0,15,0,1,,,,,,,,,,,,,
634282de38138fa9316eb482,TCR,2024-06-20_21h18.37.513,LearnStrategy,2023.2.3,Win32,59.88023952,3,2,1,,,,,,,,8,05,,,,,,,,,,,8,1.151,1,,,,,,0.349074046,-0.387037065,1,0,0,1.1506,Pumice_rect,0,0,0,0,1,
634282de38138fa9316eb482,TCR,2024-06-20_21h18.37.513,LearnStrategy,2023.2.3,Win32,59.88023952,3,2,2,,,,,,,,2,06,,,,,,,,,,,2,1.4,1,,,,,,-0.089814787,-0.251851894,1,0,0,1.4003,Basalt_rect,1,0,1,0,1,
634282de38138fa9316eb482,TCR,2024-06-20_21h18.37.513,LearnStrategy,2023.2.3,Win32,59.88023952,3,2,3,,,,,,,,5,10,,,,,,,,,,,5,0.933,1,,,,,,-0.342592593,-0.396296325,1,0,0,0.9326,Obsidian_rect,2,0,2,0,1,
634282de38138fa9316eb482,TCR,2024-06-20_21h18.37.513,LearnStrategy,2023.2.3,Win32,59.88023952,3,2,4,,,,,,,,1,01,,,,,,,,,,,3,2.403,0,,,,,,0.127777806,-0.241666653,1,0,0,2.4027,Diorite_rect,3,0,3,0,1,
634282de38138fa9316eb482,TCR,2024-06-20_21h18.37.513,LearnStrategy,2023.2.3,Win32,59.88023952,3,2,5,,,,,,,,5,06,,,,,,,,,,,5,1.007,1,,,,,,-0.345370363,-0.407407407,1,0,0,1.0068,Obsidian_rect,4,0,4,0,1,
634282de38138fa9316eb482,TCR,2024-06-20_21h18.37.513,LearnStrategy,2023.2.3,Win32,59.88023952,3,2,6,,,,,,,,7,15,,,,,,,,,,,7,1.64,1,,,,,,0.121296282,-0.387962977,1,0,0,1.6404,Peridotite_rect,5,0,5,0,1,
634282de38138fa9316eb482,TCR,2024-06-20_21h18.37.513,LearnStrategy,2023.2.3,Win32,59.88023952,3,2,7,,,,,,,,8,16,,,,,,,,,,,8,1.055,1,,,,,,0.390740712,-0.411111125,1,0,0,1.0554,Pumice_rect,6,0,6,0,1,
634282de38138fa9316eb482,TCR,2024-06-20_21h18.37.513,LearnStrategy,2023.2.3,Win32,59.88023952,3,2,8,,,,,,,,6,09,,,,,,,,,,,6,2.748,1,,,,,,-0.076851809,-0.392592607,1,0,0,2.7484,Pegmatite_rect,7,0,7,0,1,
634282de38138fa9316eb482,TCR,2024-06-20_21h18.37.513,LearnStrategy,2023.2.3,Win32,59.88023952,3,2,9,,,,,,,,4,11,,,,,,,,,,,4,3.45,1,,,,,,0.353703675,-0.228703746,1,0,0,3.4502,Gabbro_rect,8,0,8,0,1,
634282de38138fa9316eb482,TCR,2024-06-20_21h18.37.513,LearnStrategy,2023.2.3,Win32,59.88023952,3,2,10,,,,,,,,7,05,,,,,,,,,,,7,3.925,1,,,,,,0.118518547,-0.386111153,1,0,0,3.9247,Peridotite_rect,9,0,9,0,1,
634282de38138fa9316eb482,TCR,2024-06-20_21h18.37.513,LearnStrategy,2023.2.3,Win32,59.88023952,3,2,11,,,,,,,,2,02,,,,,,,,,,,2,1.458,1,,,,,,-0.099999958,-0.246296282,1,0,0,1.4582,Basalt_rect,10,0,10,0,1,
634282de38138fa9316eb482,TCR,2024-06-20_21h18.37.513,LearnStrategy,2023.2.3,Win32,59.88023952,3,2,12,,,,,,,,4,05,,,,,,,,,,,6,1.454,0,,,,,,-0.10092594,-0.384259259,1,0,0,1.4544,Pegmatite_rect,11,0,11,0,1,
634282de38138fa9316eb482,TCR,2024-06-20_21h18.37.513,LearnStrategy,2023.2.3,Win32,59.88023952,3,2,13,,,,,,,,6,06,,,,,,,,,,,6,1.753,1,,,,,,-0.071296268,-0.406481496,1,0,0,1.7529,Pegmatite_rect,12,0,12,0,1,
634282de38138fa9316eb482,TCR,2024-06-20_21h18.37.513,LearnStrategy,2023.2.3,Win32,59.88023952,3,2,14,,,,,,,,1,11,,,,,,,,,,,1,3.295,1,,,,,,-0.339814822,-0.25462963,1,0,0,3.2949,Andesite_rect,13,0,13,0,1,
634282de38138fa9316eb482,TCR,2024-06-20_21h18.37.513,LearnStrategy,2023.2.3,Win32,59.88023952,3,2,15,,,,,,,,3,16,,,,,,,,,,,3,2.17,1,,,,,,0.183333362,-0.255555541,1,0,0,2.1699,Diorite_rect,14,0,14,0,1,
634282de38138fa9316eb482,TCR,2024-06-20_21h18.37.513,LearnStrategy,2023.2.3,Win32,59.88023952,3,2,16,,,,,,,,3,14,,,,,,,,,,,3,0.891,1,,,,,,0.14444443,-0.24537037,1,0,0,0.8912,Diorite_rect,15,0,15,0,1,
634282de38138fa9316eb482,TCR,2024-06-20_21h18.37.513,LearnStrategy,2023.2.3,Win32,59.88023952,4,1,1,0.123148176,0.009259259,1,0,0,0.8859,rock_grid_rect_2,7,14,-1,-1,0.886,0.117592635,-0.386111153,1,0,0,1.9361,Peridotite_rect,7,1.936,1,0,0,0,0,1,,,,,,,,,,,,,
634282de38138fa9316eb482,TCR,2024-06-20_21h18.37.513,LearnStrategy,2023.2.3,Win32,59.88023952,4,1,2,0.104629658,-0.003703718,1,0,0,0.8314,rock_grid_rect_2,6,11,-1,-1,0.831,-0.04351849,-0.391666695,1,0,0,2.2699,Pegmatite_rect,6,2.27,1,1,0,1,0,1,,,,,,,,,,,,,
634282de38138fa9316eb482,TCR,2024-06-20_21h18.37.513,LearnStrategy,2023.2.3,Win32,59.88023952,4,1,3,0.115740741,0.01203703,1,0,0,0.8523,rock_grid_rect_2,4,12,-1,-1,0.852,0.394444501,-0.231481481,1,0,0,2.8112,Gabbro_rect,4,2.811,1,2,0,2,0,1,,,,,,,,,,,,,
634282de38138fa9316eb482,TCR,2024-06-20_21h18.37.513,LearnStrategy,2023.2.3,Win32,59.88023952,4,1,4,0.116666653,0,1,0,0,0.7655,rock_grid_rect_2,8,14,-1,-1,0.766,0.354629658,-0.404629672,1,0,0,0.9792,Pumice_rect,8,0.979,1,3,0,3,0,1,,,,,,,,,,,,,
634282de38138fa9316eb482,TCR,2024-06-20_21h18.37.513,LearnStrategy,2023.2.3,Win32,59.88023952,4,1,5,0.094444487,-0.000925947,1,0,0,0.7811,rock_grid_rect_2,4,09,-1,-1,0.781,0.376851824,-0.233333376,1,0,0,2.5587,Gabbro_rect,4,2.559,1,4,0,4,0,1,,,,,,,,,,,,,
634282de38138fa9316eb482,TCR,2024-06-20_21h18.37.513,LearnStrategy,2023.2.3,Win32,59.88023952,4,1,6,0.09629631,0,1,0,0,0.7325,rock_grid_rect_2,3,02,-1,-1,0.733,0.158333319,-0.255555541,1,0,0,1.9704,Diorite_rect,3,1.97,1,5,0,5,0,1,,,,,,,,,,,,,
634282de38138fa9316eb482,TCR,2024-06-20_21h18.37.513,LearnStrategy,2023.2.3,Win32,59.88023952,4,1,7,0.146296325,0.012962942,1,0,0,0.7484,rock_grid_rect_2,2,14,-1,-1,0.748,-0.093518504,-0.252777806,1,0,0,6.6698,Basalt_rect,2,6.67,1,6,0,6,0,1,,,,,,,,,,,,,
634282de38138fa9316eb482,TCR,2024-06-20_21h18.37.513,LearnStrategy,2023.2.3,Win32,59.88023952,4,1,8,0.092592593,0.002777771,1,0,0,0.7701,rock_grid_rect_2,1,03,-1,-1,0.77,-0.344444452,-0.253703718,1,0,0,2.7693,Andesite_rect,1,2.769,1,7,0,7,0,1,,,,,,,,,,,,,
634282de38138fa9316eb482,TCR,2024-06-20_21h18.37.513,LearnStrategy,2023.2.3,Win32,59.88023952,4,1,9,0.088888875,0.013888889,1,0,0,0.7859,rock_grid_rect_2,5,11,-1,-1,0.786,-0.375,-0.406481496,1,0,0,2.2794,Obsidian_rect,5,2.279,1,8,0,8,0,1,,,,,,,,,,,,,
634282de38138fa9316eb482,TCR,2024-06-20_21h18.37.513,LearnStrategy,2023.2.3,Win32,59.88023952,4,1,10,0.045370384,-0.002777771,1,0,0,1.7366,rock_grid_rect_2,4,16,-1,-1,1.737,-0.162962949,-0.249074088,1,0,0,3.0864,Basalt_rect,2,3.086,0,9,0,9,0,1,,,,,,,,,,,,,
634282de38138fa9316eb482,TCR,2024-06-20_21h18.37.513,LearnStrategy,2023.2.3,Win32,59.88023952,4,1,11,0.085185228,0.000925912,1,0,0,0.7654,rock_grid_rect_2,1,10,-1,-1,0.765,-0.081481439,-0.391666695,1,0,0,2.0535,Pegmatite_rect,6,2.053,0,10,0,10,0,1,,,,,,,,,,,,,
634282de38138fa9316eb482,TCR,2024-06-20_21h18.37.513,LearnStrategy,2023.2.3,Win32,59.88023952,4,1,12,0.018518519,0,1,0,0,0.8856,rock_grid_rect_2,3,15,-1,-1,0.886,-0.054629644,-0.404629672,1,0,0,5.42,Pegmatite_rect,6,5.42,0,11,0,11,0,1,,,,,,,,,,,,,
634282de38138fa9316eb482,TCR,2024-06-20_21h18.37.513,LearnStrategy,2023.2.3,Win32,59.88023952,4,1,13,0.086111139,0.0074074,1,0,0,0.9484,rock_grid_rect_2,3,08,-1,-1,0.948,0.131481524,-0.242592635,1,0,0,1.2381,Diorite_rect,3,1.238,1,12,0,12,0,1,,,,,,,,,,,,,
634282de38138fa9316eb482,TCR,2024-06-20_21h18.37.513,LearnStrategy,2023.2.3,Win32,59.88023952,4,1,14,0.095370399,-0.00462963,1,0,0,0.6531,rock_grid_rect_2,4,14,-1,-1,0.653,0.122222265,-0.241666653,1,0,0,1.4115,Diorite_rect,3,1.412,0,13,0,13,0,1,,,,,,,,,,,,,
634282de38138fa9316eb482,TCR,2024-06-20_21h18.37.513,LearnStrategy,2023.2.3,Win32,59.88023952,4,1,15,0.106481481,-0.00462963,1,0,0,0.7334,rock_grid_rect_2,1,10,-1,-1,0.733,0.340740769,-0.243518547,1,0,0,1.6243,Gabbro_rect,4,1.624,0,14,0,14,0,1,,,,,,,,,,,,,
634282de38138fa9316eb482,TCR,2024-06-20_21h18.37.513,LearnStrategy,2023.2.3,Win32,59.88023952,4,1,16,0.094444487,-0.00462963,1,0,0,0.7298,rock_grid_rect_2,1,14,-1,-1,0.73,-0.364814794,-0.246296282,1,0,0,1.1166,Andesite_rect,1,1.117,1,15,0,15,0,1,,,,,,,,,,,,,
634282de38138fa9316eb482,TCR,2024-06-20_21h18.37.513,LearnStrategy,2023.2.3,Win32,59.88023952,4,2,1,,,,,,,,8,06,,,,,,,,,,,8,1.59,1,,,,,,0.37962963,-0.393518519,1,0,0,1.5903,Pumice_rect,0,0,0,0,1,
634282de38138fa9316eb482,TCR,2024-06-20_21h18.37.513,LearnStrategy,2023.2.3,Win32,59.88023952,4,2,2,,,,,,,,6,03,,,,,,,,,,,7,3.242,0,,,,,,0.074074074,-0.398148148,1,0,0,3.2416,Peridotite_rect,1,0,1,0,1,
634282de38138fa9316eb482,TCR,2024-06-20_21h18.37.513,LearnStrategy,2023.2.3,Win32,59.88023952,4,2,3,,,,,,,,4,08,,,,,,,,,,,6,1.863,0,,,,,,-0.092592593,-0.386111153,1,0,0,1.8628,Pegmatite_rect,2,0,2,0,1,
634282de38138fa9316eb482,TCR,2024-06-20_21h18.37.513,LearnStrategy,2023.2.3,Win32,59.88023952,4,2,4,,,,,,,,3,16,,,,,,,,,,,3,2.249,1,,,,,,0.148148148,-0.258333347,1,0,0,2.2488,Diorite_rect,3,0,3,0,1,
634282de38138fa9316eb482,TCR,2024-06-20_21h18.37.513,LearnStrategy,2023.2.3,Win32,59.88023952,4,2,5,,,,,,,,4,10,,,,,,,,,,,3,0.995,0,,,,,,0.147222236,-0.23055557,1,0,0,0.9947,Diorite_rect,4,0,4,0,1,
634282de38138fa9316eb482,TCR,2024-06-20_21h18.37.513,LearnStrategy,2023.2.3,Win32,59.88023952,4,2,6,,,,,,,,1,09,,,,,,,,,,,3,1.122,0,,,,,,0.14907406,-0.25462963,1,0,0,1.122,Diorite_rect,5,0,5,0,1,
634282de38138fa9316eb482,TCR,2024-06-20_21h18.37.513,LearnStrategy,2023.2.3,Win32,59.88023952,4,2,7,,,,,,,,2,16,,,,,,,,,,,2,5.908,1,,,,,,-0.084259245,-0.235185199,1,0,0,5.9083,Basalt_rect,6,0,6,0,1,
634282de38138fa9316eb482,TCR,2024-06-20_21h18.37.513,LearnStrategy,2023.2.3,Win32,59.88023952,4,2,8,,,,,,,,7,04,,,,,,,,,,,7,3.964,1,,,,,,0.104629658,-0.417592578,1,0,0,3.9638,Peridotite_rect,7,0,7,0,1,
634282de38138fa9316eb482,TCR,2024-06-20_21h18.37.513,LearnStrategy,2023.2.3,Win32,59.88023952,4,2,9,,,,,,,,5,08,,,,,,,,,,,5,1.067,1,,,,,,-0.373148141,-0.393518519,1,0,0,1.0668,Obsidian_rect,8,0,8,0,1,
634282de38138fa9316eb482,TCR,2024-06-20_21h18.37.513,LearnStrategy,2023.2.3,Win32,59.88023952,4,2,10,,,,,,,,6,09,,,,,,,,,,,6,3.291,1,,,,,,-0.124074088,-0.407407407,1,0,0,3.2913,Pegmatite_rect,9,0,9,0,1,
634282de38138fa9316eb482,TCR,2024-06-20_21h18.37.513,LearnStrategy,2023.2.3,Win32,59.88023952,4,2,11,,,,,,,,7,13,,,,,,,,,,,7,2.728,1,,,,,,0.110185199,-0.402777778,1,0,0,2.7282,Peridotite_rect,10,0,10,0,1,
634282de38138fa9316eb482,TCR,2024-06-20_21h18.37.513,LearnStrategy,2023.2.3,Win32,59.88023952,4,2,12,,,,,,,,1,05,,,,,,,,,,,1,3.645,1,,,,,,-0.380555541,-0.249074088,1,0,0,3.6449,Andesite_rect,11,0,11,0,1,
634282de38138fa9316eb482,TCR,2024-06-20_21h18.37.513,LearnStrategy,2023.2.3,Win32,59.88023952,4,2,13,,,,,,,,3,09,,,,,,,,,,,3,2.464,1,,,,,,0.14907406,-0.267592607,1,0,0,2.4639,Diorite_rect,12,0,12,0,1,
634282de38138fa9316eb482,TCR,2024-06-20_21h18.37.513,LearnStrategy,2023.2.3,Win32,59.88023952,4,2,14,,,,,,,,5,04,,,,,,,,,,,5,1.03,1,,,,,,-0.342592593,-0.39907406,1,0,0,1.0304,Obsidian_rect,13,0,13,0,1,
634282de38138fa9316eb482,TCR,2024-06-20_21h18.37.513,LearnStrategy,2023.2.3,Win32,59.88023952,4,2,15,,,,,,,,8,16,,,,,,,,,,,8,1.107,1,,,,,,0.384259259,-0.411111125,1,0,0,1.1068,Pumice_rect,14,0,14,0,1,
634282de38138fa9316eb482,TCR,2024-06-20_21h18.37.513,LearnStrategy,2023.2.3,Win32,59.88023952,4,2,16,,,,,,,,2,11,,,,,,,,,,,8,1.838,0,,,,,,0.397222307,-0.39907406,1,0,0,1.8382,Pumice_rect,15,0,15,0,1,
634282de38138fa9316eb482,TCR,2024-06-20_21h18.37.513,LearnStrategy,2023.2.3,Win32,59.88023952,5,1,1,0.135185171,0.000925912,1,0,0,1.4361,rock_grid_rect_2,1,10,-1,-1,1.436,-0.339814822,-0.237037023,1,0,0,3.1365,Andesite_rect,1,3.137,1,0,0,0,0,1,,,,,,,,,,,,,
634282de38138fa9316eb482,TCR,2024-06-20_21h18.37.513,LearnStrategy,2023.2.3,Win32,59.88023952,5,1,2,0.110185199,-0.000925947,1,0,0,0.8363,rock_grid_rect_2,4,14,-1,-1,0.836,-0.371296282,-0.237963005,1,0,0,1.3707,Andesite_rect,1,1.371,0,1,0,1,0,1,,,,,,,,,,,,,
634282de38138fa9316eb482,TCR,2024-06-20_21h18.37.513,LearnStrategy,2023.2.3,Win32,59.88023952,5,1,3,0.067592621,0.014814801,1,0,0,0.8525,rock_grid_rect_2,3,10,-1,-1,0.853,-0.364814794,-0.239814829,1,0,0,1.1807,Andesite_rect,1,1.181,0,2,0,2,0,1,,,,,,,,,,,,,
634282de38138fa9316eb482,TCR,2024-06-20_21h18.37.513,LearnStrategy,2023.2.3,Win32,59.88023952,5,1,4,0.050925926,-0.003703718,1,0,0,0.8528,rock_grid_rect_2,8,03,-1,-1,0.853,0.354629658,-0.411111125,1,0,0,1.0487,Pumice_rect,8,1.049,1,3,0,3,0,1,,,,,,,,,,,,,
634282de38138fa9316eb482,TCR,2024-06-20_21h18.37.513,LearnStrategy,2023.2.3,Win32,59.88023952,5,1,5,0.005555541,-0.010185206,1,0,0,1.5356,rock_grid_rect_2,5,11,-1,-1,1.536,-0.339814822,-0.402777778,1,0,0,1.6004,Obsidian_rect,5,1.6,1,4,0,4,0,1,,,,,,,,,,,,,
634282de38138fa9316eb482,TCR,2024-06-20_21h18.37.513,LearnStrategy,2023.2.3,Win32,59.88023952,5,1,6,0.067592621,0.020370377,1,0,0,0.8832,rock_grid_rect_2,6,11,-1,-1,0.883,-0.06759255,-0.386111153,1,0,0,2.703,Pegmatite_rect,6,2.703,1,5,0,5,0,1,,,,,,,,,,,,,
634282de38138fa9316eb482,TCR,2024-06-20_21h18.37.513,LearnStrategy,2023.2.3,Win32,59.88023952,5,1,7,0.065740727,0.0074074,1,0,0,0.7835,rock_grid_rect_2,4,13,-1,-1,0.784,0.14444443,-0.393518519,1,0,0,5.2702,Peridotite_rect,7,5.27,0,6,0,6,0,1,,,,,,,,,,,,,
634282de38138fa9316eb482,TCR,2024-06-20_21h18.37.513,LearnStrategy,2023.2.3,Win32,59.88023952,5,1,8,0.10555557,0.002777771,1,0,0,0.863,rock_grid_rect_2,4,13,-1,-1,0.863,0.394444501,-0.247222265,1,0,0,1.2171,Gabbro_rect,4,1.217,1,7,0,7,0,1,,,,,,,,,,,,,
634282de38138fa9316eb482,TCR,2024-06-20_21h18.37.513,LearnStrategy,2023.2.3,Win32,59.88023952,5,1,9,0.112963005,0.000925912,1,0,0,0.9163,rock_grid_rect_2,1,14,-1,-1,0.916,0.385185242,-0.233333376,1,0,0,1.3143,Gabbro_rect,4,1.314,0,8,0,8,0,1,,,,,,,,,,,,,
634282de38138fa9316eb482,TCR,2024-06-20_21h18.37.513,LearnStrategy,2023.2.3,Win32,59.88023952,5,1,10,0.090740769,-0.001851859,1,0,0,0.952,rock_grid_rect_2,2,09,-1,-1,0.952,-0.060185185,-0.237037023,1,0,0,2.912,Basalt_rect,2,2.912,1,9,0,9,0,1,,,,,,,,,,,,,
634282de38138fa9316eb482,TCR,2024-06-20_21h18.37.513,LearnStrategy,2023.2.3,Win32,59.88023952,5,1,11,0.044444473,-0.015740748,1,0,0,0.6834,rock_grid_rect_2,4,16,-1,-1,0.683,0.361111111,-0.246296282,1,0,0,1.703,Gabbro_rect,4,1.703,1,10,0,10,0,1,,,,,,,,,,,,,
634282de38138fa9316eb482,TCR,2024-06-20_21h18.37.513,LearnStrategy,2023.2.3,Win32,59.88023952,5,1,12,0.059259273,0.00462963,1,0,0,0.7852,rock_grid_rect_2,6,15,-1,-1,0.785,-0.068518533,-0.414814843,1,0,0,2.911,Pegmatite_rect,6,2.911,1,11,0,11,0,1,,,,,,,,,,,,,
634282de38138fa9316eb482,TCR,2024-06-20_21h18.37.513,LearnStrategy,2023.2.3,Win32,59.88023952,5,1,13,0.070370356,-0.00462963,1,0,0,0.7692,rock_grid_rect_2,1,16,-1,-1,0.769,-0.385185171,-0.25,1,0,0,4.8198,Andesite_rect,1,4.82,1,12,0,12,0,1,,,,,,,,,,,,,
634282de38138fa9316eb482,TCR,2024-06-20_21h18.37.513,LearnStrategy,2023.2.3,Win32,59.88023952,5,1,14,0.070370356,0.000925912,1,0,0,0.7632,rock_grid_rect_2,2,14,-1,-1,0.763,-0.150925884,-0.238888917,1,0,0,3.1072,Basalt_rect,2,3.107,1,13,0,13,0,1,,,,,,,,,,,,,
634282de38138fa9316eb482,TCR,2024-06-20_21h18.37.513,LearnStrategy,2023.2.3,Win32,59.88023952,5,1,15,0.121296282,-0.021296289,1,0,0,0.8354,rock_grid_rect_2,7,10,-1,-1,0.835,0.131481524,-0.383333347,1,0,0,2.3875,Peridotite_rect,7,2.387,1,14,0,14,0,1,,,,,,,,,,,,,
634282de38138fa9316eb482,TCR,2024-06-20_21h18.37.513,LearnStrategy,2023.2.3,Win32,59.88023952,5,1,16,0.035185213,0.00462963,1,0,0,0.8668,rock_grid_rect_2,3,07,-1,-1,0.867,0.119444459,-0.39907406,1,0,0,1.0205,Peridotite_rect,7,1.021,0,15,0,15,0,1,,,,,,,,,,,,,
634282de38138fa9316eb482,TCR,2024-06-20_21h18.37.513,LearnStrategy,2023.2.3,Win32,59.88023952,5,2,1,,,,,,,,7,02,,,,,,,,,,,7,1.352,1,,,,,,0.12962963,-0.39907406,1,0,0,1.3523,Peridotite_rect,0,0,0,0,1,
634282de38138fa9316eb482,TCR,2024-06-20_21h18.37.513,LearnStrategy,2023.2.3,Win32,59.88023952,5,2,2,,,,,,,,7,08,,,,,,,,,,,7,1.472,1,,,,,,0.127777806,-0.389814801,1,0,0,1.4721,Peridotite_rect,1,0,1,0,1,
634282de38138fa9316eb482,TCR,2024-06-20_21h18.37.513,LearnStrategy,2023.2.3,Win32,59.88023952,5,2,3,,,,,,,,2,08,,,,,,,,,,,2,1.288,1,,,,,,-0.137036995,-0.234259288,1,0,0,1.2882,Basalt_rect,2,0,2,0,1,
634282de38138fa9316eb482,TCR,2024-06-20_21h18.37.513,LearnStrategy,2023.2.3,Win32,59.88023952,5,2,4,,,,,,,,6,07,,,,,,,,,,,6,1.531,1,,,,,,-0.132407365,-0.380555541,1,0,0,1.5314,Pegmatite_rect,3,0,3,0,1,
634282de38138fa9316eb482,TCR,2024-06-20_21h18.37.513,LearnStrategy,2023.2.3,Win32,59.88023952,5,2,5,,,,,,,,1,07,,,,,,,,,,,3,3.301,0,,,,,,0.154629672,-0.255555541,1,0,0,3.3009,Diorite_rect,4,0,4,0,1,
634282de38138fa9316eb482,TCR,2024-06-20_21h18.37.513,LearnStrategy,2023.2.3,Win32,59.88023952,5,2,6,,,,,,,,5,10,,,,,,,,,,,5,1.04,1,,,,,,-0.381481489,-0.404629672,1,0,0,1.0398,Obsidian_rect,5,0,5,0,1,
634282de38138fa9316eb482,TCR,2024-06-20_21h18.37.513,LearnStrategy,2023.2.3,Win32,59.88023952,5,2,7,,,,,,,,8,05,,,,,,,,,,,8,3.025,1,,,,,,0.380555612,-0.413888931,1,0,0,3.0246,Pumice_rect,6,0,6,0,1,
634282de38138fa9316eb482,TCR,2024-06-20_21h18.37.513,LearnStrategy,2023.2.3,Win32,59.88023952,5,2,8,,,,,,,,4,11,,,,,,,,,,,1,4.277,0,,,,,,-0.3675926,-0.241666653,1,0,0,4.2773,Andesite_rect,7,0,7,0,1,
634282de38138fa9316eb482,TCR,2024-06-20_21h18.37.513,LearnStrategy,2023.2.3,Win32,59.88023952,5,2,9,,,,,,,,5,06,,,,,,,,,,,5,0.999,1,,,,,,-0.362037023,-0.391666695,1,0,0,0.9992,Obsidian_rect,8,0,8,0,1,
634282de38138fa9316eb482,TCR,2024-06-20_21h18.37.513,LearnStrategy,2023.2.3,Win32,59.88023952,5,2,10,,,,,,,,4,15,,,,,,,,,,,6,2.367,0,,,,,,-0.088888875,-0.395370413,1,0,0,2.3667,Pegmatite_rect,9,0,9,0,1,
634282de38138fa9316eb482,TCR,2024-06-20_21h18.37.513,LearnStrategy,2023.2.3,Win32,59.88023952,5,2,11,,,,,,,,8,04,,,,,,,,,,,8,1.684,1,,,,,,0.363888917,-0.40370369,1,0,0,1.684,Pumice_rect,10,0,10,0,1,
634282de38138fa9316eb482,TCR,2024-06-20_21h18.37.513,LearnStrategy,2023.2.3,Win32,59.88023952,5,2,12,,,,,,,,6,13,,,,,,,,,,,6,2.055,1,,,,,,-0.14444443,-0.392592607,1,0,0,2.0546,Pegmatite_rect,11,0,11,0,1,
634282de38138fa9316eb482,TCR,2024-06-20_21h18.37.513,LearnStrategy,2023.2.3,Win32,59.88023952,5,2,13,,,,,,,,2,06,,,,,,,,,,,2,1.826,1,,,,,,-0.066666638,-0.24537037,1,0,0,1.8255,Basalt_rect,12,0,12,0,1,
634282de38138fa9316eb482,TCR,2024-06-20_21h18.37.513,LearnStrategy,2023.2.3,Win32,59.88023952,5,2,14,,,,,,,,1,11,,,,,,,,,,,1,2.987,1,,,,,,-0.357407393,-0.241666653,1,0,0,2.9875,Andesite_rect,13,0,13,0,1,
634282de38138fa9316eb482,TCR,2024-06-20_21h18.37.513,LearnStrategy,2023.2.3,Win32,59.88023952,5,2,15,,,,,,,,3,14,,,,,,,,,,,3,4.431,1,,,,,,0.132407436,-0.239814829,1,0,0,4.4307,Diorite_rect,14,0,14,0,1,
634282de38138fa9316eb482,TCR,2024-06-20_21h18.37.513,LearnStrategy,2023.2.3,Win32,59.88023952,5,2,16,,,,,,,,3,12,,,,,,,,,,,3,0.963,1,,,,,,0.159259302,-0.229629658,1,0,0,0.9625,Diorite_rect,15,0,15,0,1,
634282de38138fa9316eb482,TCR,2024-06-20_21h18.37.513,LearnStrategy,2023.2.3,Win32,59.88023952,6,1,1,0.08148151,0.022222201,1,0,0,0.8352,rock_grid_rect_2,4,09,-1,-1,0.835,0.387037065,-0.23055557,1,0,0,3.0876,Gabbro_rect,4,3.088,1,0,0,0,0,1,,,,,,,,,,,,,
634282de38138fa9316eb482,TCR,2024-06-20_21h18.37.513,LearnStrategy,2023.2.3,Win32,59.88023952,6,1,2,0.136111153,0.001851859,1,0,0,0.8526,rock_grid_rect_2,2,14,-1,-1,0.853,-0.112962935,-0.241666653,1,0,0,3.6216,Basalt_rect,2,3.622,1,1,0,1,0,1,,,,,,,,,,,,,
634282de38138fa9316eb482,TCR,2024-06-20_21h18.37.513,LearnStrategy,2023.2.3,Win32,59.88023952,6,1,3,0.07222225,-0.000925947,1,0,0,0.8025,rock_grid_rect_2,4,16,-1,-1,0.803,-0.091666681,-0.251851894,1,0,0,2.1204,Basalt_rect,2,2.12,0,2,0,2,0,1,,,,,,,,,,,,,
634282de38138fa9316eb482,TCR,2024-06-20_21h18.37.513,LearnStrategy,2023.2.3,Win32,59.88023952,6,1,4,0.07685188,-0.014814836,1,0,0,0.783,rock_grid_rect_2,6,08,-1,-1,0.783,-0.064814815,-0.389814801,1,0,0,3.4808,Pegmatite_rect,6,3.481,1,3,0,3,0,1,,,,,,,,,,,,,
634282de38138fa9316eb482,TCR,2024-06-20_21h18.37.513,LearnStrategy,2023.2.3,Win32,59.88023952,6,1,5,0.069444444,-0.0074074,1,0,0,0.8139,rock_grid_rect_2,4,16,-1,-1,0.814,0.343518575,-0.25,1,0,0,2.9581,Gabbro_rect,4,2.958,1,4,0,4,0,1,,,,,,,,,,,,,
634282de38138fa9316eb482,TCR,2024-06-20_21h18.37.513,LearnStrategy,2023.2.3,Win32,59.88023952,6,1,6,0.067592621,0.015740748,1,0,0,0.765,rock_grid_rect_2,3,07,-1,-1,0.765,0.112963005,-0.266666695,1,0,0,3.4608,Diorite_rect,3,3.461,1,5,0,5,0,1,,,,,,,,,,,,,
634282de38138fa9316eb482,TCR,2024-06-20_21h18.37.513,LearnStrategy,2023.2.3,Win32,59.88023952,6,1,7,0.039814843,0.021296289,1,0,0,0.8035,rock_grid_rect_2,1,14,-1,-1,0.803,-0.354629623,-0.237037023,1,0,0,4.4365,Andesite_rect,1,4.436,1,6,0,6,0,1,,,,,,,,,,,,,
634282de38138fa9316eb482,TCR,2024-06-20_21h18.37.513,LearnStrategy,2023.2.3,Win32,59.88023952,6,1,8,0.07222225,-0.002777771,1,0,0,0.8672,rock_grid_rect_2,7,07,-1,-1,0.867,0.128703718,-0.414814843,1,0,0,3.5128,Peridotite_rect,7,3.513,1,7,0,7,0,1,,,,,,,,,,,,,
634282de38138fa9316eb482,TCR,2024-06-20_21h18.37.513,LearnStrategy,2023.2.3,Win32,59.88023952,6,1,9,0.073148162,0.01203703,1,0,0,0.8184,rock_grid_rect_2,6,05,-1,-1,0.818,-0.07222218,-0.406481496,1,0,0,6.0543,Pegmatite_rect,6,6.054,1,8,0,8,0,1,,,,,,,,,,,,,
634282de38138fa9316eb482,TCR,2024-06-20_21h18.37.513,LearnStrategy,2023.2.3,Win32,59.88023952,6,1,10,0.078703704,0.003703683,1,0,0,0.7273,rock_grid_rect_2,1,10,-1,-1,0.727,-0.37037037,-0.237963005,1,0,0,2.9089,Andesite_rect,1,2.909,1,9,0,9,0,1,,,,,,,,,,,,,
634282de38138fa9316eb482,TCR,2024-06-20_21h18.37.513,LearnStrategy,2023.2.3,Win32,59.88023952,6,1,11,0.069444444,0.00462963,1,0,0,0.7822,rock_grid_rect_2,4,14,-1,-1,0.782,-0.377777771,-0.25,1,0,0,2.0786,Andesite_rect,1,2.079,0,10,0,10,0,1,,,,,,,,,,,,,
634282de38138fa9316eb482,TCR,2024-06-20_21h18.37.513,LearnStrategy,2023.2.3,Win32,59.88023952,6,1,12,0.063888903,0.003703683,1,0,0,0.7848,rock_grid_rect_2,3,10,-1,-1,0.785,-0.328703704,-0.241666653,1,0,0,1.7622,Andesite_rect,1,1.762,0,11,0,11,0,1,,,,,,,,,,,,,
634282de38138fa9316eb482,TCR,2024-06-20_21h18.37.513,LearnStrategy,2023.2.3,Win32,59.88023952,6,1,13,0.066666709,-0.018518519,1,0,0,0.7862,rock_grid_rect_2,1,04,-1,-1,0.786,0.165740755,-0.248148176,1,0,0,1.371,Diorite_rect,3,1.371,0,12,0,12,0,1,,,,,,,,,,,,,
634282de38138fa9316eb482,TCR,2024-06-20_21h18.37.513,LearnStrategy,2023.2.3,Win32,59.88023952,6,1,14,0.070370356,0.000925912,1,0,0,0.7807,rock_grid_rect_2,4,01,-1,-1,0.781,-0.360185164,-0.260185171,1,0,0,1.1681,Andesite_rect,1,1.168,0,13,0,13,0,1,,,,,,,,,,,,,
634282de38138fa9316eb482,TCR,2024-06-20_21h18.37.513,LearnStrategy,2023.2.3,Win32,59.88023952,6,1,15,0.074999986,-0.01203703,1,0,0,0.8362,rock_grid_rect_2,8,15,-1,-1,0.836,0.358333305,-0.420370384,1,0,0,1.0897,Pumice_rect,8,1.09,1,14,0,14,0,1,,,,,,,,,,,,,
634282de38138fa9316eb482,TCR,2024-06-20_21h18.37.513,LearnStrategy,2023.2.3,Win32,59.88023952,6,1,16,0.035185213,-0.001851859,1,0,0,0.6512,rock_grid_rect_2,5,09,-1,-1,0.651,-0.348148134,-0.402777778,1,0,0,0.9156,Obsidian_rect,5,0.916,1,15,0,15,0,1,,,,,,,,,,,,,
634282de38138fa9316eb482,TCR,2024-06-20_21h18.37.513,LearnStrategy,2023.2.3,Win32,59.88023952,6,2,1,,,,,,,,5,05,,,,,,,,,,,5,1.241,1,,,,,,-0.362037023,-0.390740783,1,0,0,1.2411,Obsidian_rect,0,0,0,0,1,
634282de38138fa9316eb482,TCR,2024-06-20_21h18.37.513,LearnStrategy,2023.2.3,Win32,59.88023952,6,2,2,,,,,,,,1,01,,,,,,,,,,,3,0.565,0,,,,,,0.091666681,-0.241666653,1,0,0,0.5654,Diorite_rect,1,0,1,0,1,
634282de38138fa9316eb482,TCR,2024-06-20_21h18.37.513,LearnStrategy,2023.2.3,Win32,59.88023952,6,2,3,,,,,,,,8,13,,,,,,,,,,,8,1.305,1,,,,,,0.35555564,-0.400000042,1,0,0,1.3046,Pumice_rect,2,0,2,0,1,
634282de38138fa9316eb482,TCR,2024-06-20_21h18.37.513,LearnStrategy,2023.2.3,Win32,59.88023952,6,2,4,,,,,,,,2,05,,,,,,,,,,,2,1.092,1,,,,,,-0.117592564,-0.231481481,1,0,0,1.0917,Basalt_rect,3,0,3,0,1,
634282de38138fa9316eb482,TCR,2024-06-20_21h18.37.513,LearnStrategy,2023.2.3,Win32,59.88023952,6,2,5,,,,,,,,6,16,,,,,,,,,,,6,1.976,1,,,,,,-0.084259245,-0.398148148,1,0,0,1.9756,Pegmatite_rect,4,0,4,0,1,
634282de38138fa9316eb482,TCR,2024-06-20_21h18.37.513,LearnStrategy,2023.2.3,Win32,59.88023952,6,2,6,,,,,,,,8,09,,,,,,,,,,,8,1.031,1,,,,,,0.386111083,-0.384259259,1,0,0,1.0312,Pumice_rect,5,0,5,0,1,
634282de38138fa9316eb482,TCR,2024-06-20_21h18.37.513,LearnStrategy,2023.2.3,Win32,59.88023952,6,2,7,,,,,,,,7,05,,,,,,,,,,,7,1.154,1,,,,,,0.125,-0.400000042,1,0,0,1.1544,Peridotite_rect,6,0,6,0,1,
634282de38138fa9316eb482,TCR,2024-06-20_21h18.37.513,LearnStrategy,2023.2.3,Win32,59.88023952,6,2,8,,,,,,,,3,11,,,,,,,,,,,7,0.974,0,,,,,,0.139814801,-0.390740783,1,0,0,0.974,Peridotite_rect,7,0,7,0,1,
634282de38138fa9316eb482,TCR,2024-06-20_21h18.37.513,LearnStrategy,2023.2.3,Win32,59.88023952,6,2,9,,,,,,,,1,02,,,,,,,,,,,6,1.123,0,,,,,,-0.084259245,-0.387037065,1,0,0,1.1229,Pegmatite_rect,8,0,8,0,1,
634282de38138fa9316eb482,TCR,2024-06-20_21h18.37.513,LearnStrategy,2023.2.3,Win32,59.88023952,6,2,10,,,,,,,,7,15,,,,,,,,,,,7,0.875,1,,,,,,0.150925954,-0.382407436,1,0,0,0.8748,Peridotite_rect,9,0,9,0,1,
634282de38138fa9316eb482,TCR,2024-06-20_21h18.37.513,LearnStrategy,2023.2.3,Win32,59.88023952,6,2,11,,,,,,,,5,02,,,,,,,,,,,5,1.715,1,,,,,,-0.346296275,-0.40370369,1,0,0,1.7146,Obsidian_rect,10,0,10,0,1,
634282de38138fa9316eb482,TCR,2024-06-20_21h18.37.513,LearnStrategy,2023.2.3,Win32,59.88023952,6,2,12,,,,,,,,3,13,,,,,,,,,,,7,1.214,0,,,,,,0.14907406,-0.383333347,1,0,0,1.2143,Peridotite_rect,11,0,11,0,1,
634282de38138fa9316eb482,TCR,2024-06-20_21h18.37.513,LearnStrategy,2023.2.3,Win32,59.88023952,6,2,13,,,,,,,,4,05,,,,,,,,,,,7,1.32,0,,,,,,0.158333319,-0.383333347,1,0,0,1.3201,Peridotite_rect,12,0,12,0,1,
634282de38138fa9316eb482,TCR,2024-06-20_21h18.37.513,LearnStrategy,2023.2.3,Win32,59.88023952,6,2,14,,,,,,,,2,02,,,,,,,,,,,2,2.214,1,,,,,,-0.085185157,-0.239814829,1,0,0,2.2141,Basalt_rect,13,0,13,0,1,
634282de38138fa9316eb482,TCR,2024-06-20_21h18.37.513,LearnStrategy,2023.2.3,Win32,59.88023952,6,2,15,,,,,,,,6,06,,,,,,,,,,,6,1.825,1,,,,,,-0.082407422,-0.392592607,1,0,0,1.8246,Pegmatite_rect,14,0,14,0,1,
634282de38138fa9316eb482,TCR,2024-06-20_21h18.37.513,LearnStrategy,2023.2.3,Win32,59.88023952,6,2,16,,,,,,,,4,03,,,,,,,,,,,6,1.125,0,,,,,,-0.084259245,-0.387962977,1,0,0,1.1252,Pegmatite_rect,15,0,15,0,1,
634282de38138fa9316eb482,TCR,2024-06-20_21h18.37.513,LearnStrategy,2023.2.3,Win32,59.88023952,7,1,1,0.090740769,0.023148148,1,0,0,0.869,rock_grid_rect_2,2,09,-1,-1,0.869,-0.080555527,-0.240740741,1,0,0,1.1294,Basalt_rect,2,1.129,1,0,0,0,0,1,,,,,,,,,,,,,
634282de38138fa9316eb482,TCR,2024-06-20_21h18.37.513,LearnStrategy,2023.2.3,Win32,59.88023952,7,1,2,0.125,-0.001851859,1,0,0,0.7308,rock_grid_rect_2,1,14,-1,-1,0.731,-0.142592607,-0.400000042,1,0,0,1.8029,Pegmatite_rect,6,1.803,0,1,0,1,0,1,,,,,,,,,,,,,
634282de38138fa9316eb482,TCR,2024-06-20_21h18.37.513,LearnStrategy,2023.2.3,Win32,59.88023952,7,1,3,0.103703746,0.015740748,1,0,0,0.8322,rock_grid_rect_2,1,04,-1,-1,0.832,0.15370369,-0.242592635,1,0,0,1.6477,Diorite_rect,3,1.648,0,2,0,2,0,1,,,,,,,,,,,,,
634282de38138fa9316eb482,TCR,2024-06-20_21h18.37.513,LearnStrategy,2023.2.3,Win32,59.88023952,7,1,4,0.108333376,-0.000925947,1,0,0,0.8356,rock_grid_rect_2,4,16,-1,-1,0.836,-0.082407422,-0.238888917,1,0,0,4.912,Basalt_rect,2,4.912,0,3,0,3,0,1,,,,,,,,,,,,,
634282de38138fa9316eb482,TCR,2024-06-20_21h18.37.513,LearnStrategy,2023.2.3,Win32,59.88023952,7,1,5,0.066666709,-0.015740748,1,0,0,0.8198,rock_grid_rect_2,4,14,-1,-1,0.82,0.431481538,-0.228703746,1,0,0,1.2201,Gabbro_rect,4,1.22,1,4,0,4,0,1,,,,,,,,,,,,,
634282de38138fa9316eb482,TCR,2024-06-20_21h18.37.513,LearnStrategy,2023.2.3,Win32,59.88023952,7,1,6,0.060185185,-0.000925947,1,0,0,0.7826,rock_grid_rect_2,3,06,-1,-1,0.783,-0.088888875,-0.409259302,1,0,0,1.2227,Pegmatite_rect,6,1.223,0,5,0,5,0,1,,,,,,,,,,,,,
634282de38138fa9316eb482,TCR,2024-06-20_21h18.37.513,LearnStrategy,2023.2.3,Win32,59.88023952,7,1,7,0.097222222,-0.00462963,1,0,0,0.8367,rock_grid_rect_2,3,07,-1,-1,0.837,0.192592621,-0.248148176,1,0,0,0.9954,Diorite_rect,3,0.995,1,6,0,6,0,1,,,,,,,,,,,,,
634282de38138fa9316eb482,TCR,2024-06-20_21h18.37.513,LearnStrategy,2023.2.3,Win32,59.88023952,7,1,8,0.039814843,0,1,0,0,0.7312,rock_grid_rect_2,4,01,-1,-1,0.731,0.165740755,-0.251851894,1,0,0,0.8183,Diorite_rect,3,0.818,0,7,0,7,0,1,,,,,,,,,,,,,
634282de38138fa9316eb482,TCR,2024-06-20_21h18.37.513,LearnStrategy,2023.2.3,Win32,59.88023952,7,1,9,0.049074102,0.014814801,1,0,0,0.7132,rock_grid_rect_2,3,08,-1,-1,0.713,0.109259288,-0.255555541,1,0,0,5.4901,Diorite_rect,3,5.49,1,8,0,8,0,1,,,,,,,,,,,,,
634282de38138fa9316eb482,TCR,2024-06-20_21h18.37.513,LearnStrategy,2023.2.3,Win32,59.88023952,7,1,10,0.127777806,0.015740748,1,0,0,0.7858,rock_grid_rect_2,8,03,-1,-1,0.786,0.426851908,-0.401851866,1,0,0,1.936,Pumice_rect,8,1.936,1,9,0,9,0,1,,,,,,,,,,,,,
634282de38138fa9316eb482,TCR,2024-06-20_21h18.37.513,LearnStrategy,2023.2.3,Win32,59.88023952,7,1,11,0.039814843,0.010185171,1,0,0,0.7474,rock_grid_rect_2,7,16,-1,-1,0.747,0.14907406,-0.402777778,1,0,0,3.7738,Peridotite_rect,7,3.774,1,10,0,10,0,1,,,,,,,,,,,,,
634282de38138fa9316eb482,TCR,2024-06-20_21h18.37.513,LearnStrategy,2023.2.3,Win32,59.88023952,7,1,12,0.087037051,0,1,0,0,0.7028,rock_grid_rect_2,1,03,-1,-1,0.703,-0.396296289,-0.242592635,1,0,0,3.3536,Andesite_rect,1,3.354,1,11,0,11,0,1,,,,,,,,,,,,,
634282de38138fa9316eb482,TCR,2024-06-20_21h18.37.513,LearnStrategy,2023.2.3,Win32,59.88023952,7,1,13,0.070370356,-0.01666666,1,0,0,0.7365,rock_grid_rect_2,4,16,-1,-1,0.736,-0.086111069,-0.25,1,0,0,1.1143,Basalt_rect,2,1.114,0,12,0,12,0,1,,,,,,,,,,,,,
634282de38138fa9316eb482,TCR,2024-06-20_21h18.37.513,LearnStrategy,2023.2.3,Win32,59.88023952,7,1,14,0.041666667,-0.006481489,1,0,0,0.7302,rock_grid_rect_2,6,08,-1,-1,0.73,-0.085185157,-0.419444473,1,0,0,1.6345,Pegmatite_rect,6,1.635,1,13,0,13,0,1,,,,,,,,,,,,,
634282de38138fa9316eb482,TCR,2024-06-20_21h18.37.513,LearnStrategy,2023.2.3,Win32,59.88023952,7,1,15,0.074999986,-0.00462963,1,0,0,0.7829,rock_grid_rect_2,1,04,-1,-1,0.783,0.142592607,-0.241666653,1,0,0,2.7632,Diorite_rect,3,2.763,0,14,0,14,0,1,,,,,,,,,,,,,
634282de38138fa9316eb482,TCR,2024-06-20_21h18.37.513,LearnStrategy,2023.2.3,Win32,59.88023952,7,1,16,0.112037023,-0.001851859,1,0,0,0.8334,rock_grid_rect_2,4,09,-1,-1,0.833,0.3648149,-0.237037023,1,0,0,2.6198,Gabbro_rect,4,2.62,1,15,0,15,0,1,,,,,,,,,,,,,
634282de38138fa9316eb482,TCR,2024-06-20_21h18.37.513,LearnStrategy,2023.2.3,Win32,59.88023952,7,2,1,,,,,,,,5,05,,,,,,,,,,,5,1.268,1,,,,,,-0.373148141,-0.395370413,1,0,0,1.2684,Obsidian_rect,0,0,0,0,1,
634282de38138fa9316eb482,TCR,2024-06-20_21h18.37.513,LearnStrategy,2023.2.3,Win32,59.88023952,7,2,2,,,,,,,,3,09,,,,,,,,,,,3,4.355,1,,,,,,0.158333319,-0.259259259,1,0,0,4.3548,Diorite_rect,1,0,1,0,1,
634282de38138fa9316eb482,TCR,2024-06-20_21h18.37.513,LearnStrategy,2023.2.3,Win32,59.88023952,7,2,3,,,,,,,,8,09,,,,,,,,,,,8,1.915,1,,,,,,0.448148233,-0.388888889,1,0,0,1.9149,Pumice_rect,2,0,2,0,1,
634282de38138fa9316eb482,TCR,2024-06-20_21h18.37.513,LearnStrategy,2023.2.3,Win32,59.88023952,7,2,4,,,,,,,,4,05,,,,,,,,,,,6,1.891,0,,,,,,-0.085185157,-0.39444443,1,0,0,1.8914,Pegmatite_rect,3,0,3,0,1,
634282de38138fa9316eb482,TCR,2024-06-20_21h18.37.513,LearnStrategy,2023.2.3,Win32,59.88023952,7,2,5,,,,,,,,7,04,,,,,,,,,,,7,1.566,1,,,,,,0.146296325,-0.404629672,1,0,0,1.5664,Peridotite_rect,4,0,4,0,1,
634282de38138fa9316eb482,TCR,2024-06-20_21h18.37.513,LearnStrategy,2023.2.3,Win32,59.88023952,7,2,6,,,,,,,,8,05,,,,,,,,,,,8,1.396,1,,,,,,0.390740712,-0.395370413,1,0,0,1.3963,Pumice_rect,5,0,5,0,1,
634282de38138fa9316eb482,TCR,2024-06-20_21h18.37.513,LearnStrategy,2023.2.3,Win32,59.88023952,7,2,7,,,,,,,,2,06,,,,,,,,,,,2,1.108,1,,,,,,-0.112037023,-0.235185199,1,0,0,1.1083,Basalt_rect,6,0,6,0,1,
634282de38138fa9316eb482,TCR,2024-06-20_21h18.37.513,LearnStrategy,2023.2.3,Win32,59.88023952,7,2,8,,,,,,,,1,02,,,,,,,,,,,1,5.566,1,,,,,,-0.373148141,-0.241666653,1,0,0,5.5659,Andesite_rect,7,0,7,0,1,
634282de38138fa9316eb482,TCR,2024-06-20_21h18.37.513,LearnStrategy,2023.2.3,Win32,59.88023952,7,2,9,,,,,,,,3,13,,,,,,,,,,,6,1.588,0,,,,,,-0.080555527,-0.417592578,1,0,0,1.5877,Pegmatite_rect,8,0,8,0,1,
634282de38138fa9316eb482,TCR,2024-06-20_21h18.37.513,LearnStrategy,2023.2.3,Win32,59.88023952,7,2,10,,,,,,,,2,16,,,,,,,,,,,2,1.38,1,,,,,,-0.107407393,-0.232407393,1,0,0,1.3797,Basalt_rect,9,0,9,0,1,
634282de38138fa9316eb482,TCR,2024-06-20_21h18.37.513,LearnStrategy,2023.2.3,Win32,59.88023952,7,2,11,,,,,,,,7,15,,,,,,,,,,,7,1.013,1,,,,,,0.145370413,-0.388888889,1,0,0,1.0127,Peridotite_rect,10,0,10,0,1,
634282de38138fa9316eb482,TCR,2024-06-20_21h18.37.513,LearnStrategy,2023.2.3,Win32,59.88023952,7,2,12,,,,,,,,6,07,,,,,,,,,,,6,1.173,1,,,,,,-0.098148134,-0.400925954,1,0,0,1.1725,Pegmatite_rect,11,0,11,0,1,
634282de38138fa9316eb482,TCR,2024-06-20_21h18.37.513,LearnStrategy,2023.2.3,Win32,59.88023952,7,2,13,,,,,,,,1,09,,,,,,,,,,,1,1.739,1,,,,,,-0.3824074,-0.241666653,1,0,0,1.7387,Andesite_rect,12,0,12,0,1,
634282de38138fa9316eb482,TCR,2024-06-20_21h18.37.513,LearnStrategy,2023.2.3,Win32,59.88023952,7,2,14,,,,,,,,4,10,,,,,,,,,,,4,3.739,1,,,,,,0.410185213,-0.251851894,1,0,0,3.7389,Gabbro_rect,13,0,13,0,1,
634282de38138fa9316eb482,TCR,2024-06-20_21h18.37.513,LearnStrategy,2023.2.3,Win32,59.88023952,7,2,15,,,,,,,,6,06,,,,,,,,,,,6,3.178,1,,,,,,-0.12037037,-0.400925954,1,0,0,3.1778,Pegmatite_rect,14,0,14,0,1,
634282de38138fa9316eb482,TCR,2024-06-20_21h18.37.513,LearnStrategy,2023.2.3,Win32,59.88023952,7,2,16,,,,,,,,5,04,,,,,,,,,,,5,0.993,1,,,,,,-0.323148127,-0.387037065,1,0,0,0.9929,Obsidian_rect,15,0,15,0,1,
634282de38138fa9316eb482,TCR,2024-06-20_21h18.37.513,LearnStrategy,2023.2.3,Win32,59.88023952,8,1,1,0.088888875,0.0074074,1,0,0,0.836,rock_grid_rect_2,6,05,-1,-1,0.836,-0.114814829,-0.385185171,1,0,0,4.4469,Pegmatite_rect,6,4.447,1,0,0,0,0,1,,,,,,,,,,,,,
634282de38138fa9316eb482,TCR,2024-06-20_21h18.37.513,LearnStrategy,2023.2.3,Win32,59.88023952,8,1,2,0.048148191,0.010185171,1,0,0,0.7865,rock_grid_rect_2,1,16,-1,-1,0.787,-0.091666681,-0.390740783,1,0,0,1.3476,Pegmatite_rect,6,1.348,0,1,0,1,0,1,,,,,,,,,,,,,
634282de38138fa9316eb482,TCR,2024-06-20_21h18.37.513,LearnStrategy,2023.2.3,Win32,59.88023952,8,1,3,0.130555541,0.00462963,1,0,0,1.0478,rock_grid_rect_2,4,16,-1,-1,1.048,-0.361111111,-0.253703718,1,0,0,2.2694,Andesite_rect,1,2.269,0,2,0,2,0,1,,,,,,,,,,,,,
634282de38138fa9316eb482,TCR,2024-06-20_21h18.37.513,LearnStrategy,2023.2.3,Win32,59.88023952,8,1,4,0.048148191,0.00462963,1,0,0,0.8355,rock_grid_rect_2,3,10,-1,-1,0.836,0.413888861,-0.233333376,1,0,0,1.1463,Gabbro_rect,4,1.146,0,3,0,3,0,1,,,,,,,,,,,,,
634282de38138fa9316eb482,TCR,2024-06-20_21h18.37.513,LearnStrategy,2023.2.3,Win32,59.88023952,8,1,5,0.060185185,-0.000925947,1,0,0,0.7991,rock_grid_rect_2,1,10,-1,-1,0.799,0.162037037,-0.255555541,1,0,0,1.0333,Diorite_rect,3,1.033,0,4,0,4,0,1,,,,,,,,,,,,,
634282de38138fa9316eb482,TCR,2024-06-20_21h18.37.513,LearnStrategy,2023.2.3,Win32,59.88023952,8,1,6,0.047222208,0.008333312,1,0,0,0.7208,rock_grid_rect_2,4,14,-1,-1,0.721,-0.352777764,-0.237963005,1,0,0,1.1907,Andesite_rect,1,1.191,0,5,0,5,0,1,,,,,,,,,,,,,
634282de38138fa9316eb482,TCR,2024-06-20_21h18.37.513,LearnStrategy,2023.2.3,Win32,59.88023952,8,1,7,0.037037037,-0.001851859,1,0,0,0.7197,rock_grid_rect_2,7,14,-1,-1,0.72,0.143518519,-0.387962977,1,0,0,1.6975,Peridotite_rect,7,1.698,1,6,0,6,0,1,,,,,,,,,,,,,
634282de38138fa9316eb482,TCR,2024-06-20_21h18.37.513,LearnStrategy,2023.2.3,Win32,59.88023952,8,1,8,0.048148191,-0.01666666,1,0,0,0.7826,rock_grid_rect_2,2,10,-1,-1,0.783,-0.071296268,-0.255555541,1,0,0,1.1868,Basalt_rect,2,1.187,1,7,0,7,0,1,,,,,,,,,,,,,
634282de38138fa9316eb482,TCR,2024-06-20_21h18.37.513,LearnStrategy,2023.2.3,Win32,59.88023952,8,1,9,0.070370356,0.021296289,1,0,0,0.6841,rock_grid_rect_2,3,02,-1,-1,0.684,-0.091666681,-0.407407407,1,0,0,3.0881,Pegmatite_rect,6,3.088,0,8,0,8,0,1,,,,,,,,,,,,,
634282de38138fa9316eb482,TCR,2024-06-20_21h18.37.513,LearnStrategy,2023.2.3,Win32,59.88023952,8,1,10,0.073148162,0.005555541,1,0,0,0.8298,rock_grid_rect_2,3,15,-1,-1,0.83,0.169444473,-0.248148176,1,0,0,1.1421,Diorite_rect,3,1.142,1,9,0,9,0,1,,,,,,,,,,,,,
634282de38138fa9316eb482,TCR,2024-06-20_21h18.37.513,LearnStrategy,2023.2.3,Win32,59.88023952,8,1,11,0.050925926,-0.012962977,1,0,0,0.7161,rock_grid_rect_2,8,14,-1,-1,0.716,0.378703788,-0.387962977,1,0,0,1.1142,Pumice_rect,8,1.114,1,10,0,10,0,1,,,,,,,,,,,,,
634282de38138fa9316eb482,TCR,2024-06-20_21h18.37.513,LearnStrategy,2023.2.3,Win32,59.88023952,8,1,12,0.043518561,0.00462963,1,0,0,0.9694,rock_grid_rect_2,4,13,-1,-1,0.969,-0.099999958,-0.395370413,1,0,0,1.9201,Pegmatite_rect,6,1.92,0,11,0,11,0,1,,,,,,,,,,,,,
634282de38138fa9316eb482,TCR,2024-06-20_21h18.37.513,LearnStrategy,2023.2.3,Win32,59.88023952,8,1,13,0.077777792,-0.001851859,1,0,0,0.7365,rock_grid_rect_2,1,06,-1,-1,0.736,0.42314812,-0.232407393,1,0,0,1.2201,Gabbro_rect,4,1.22,0,12,0,12,0,1,,,,,,,,,,,,,
634282de38138fa9316eb482,TCR,2024-06-20_21h18.37.513,LearnStrategy,2023.2.3,Win32,59.88023952,8,1,14,0.067592621,0.023148148,1,0,0,0.864,rock_grid_rect_2,5,12,-1,-1,0.864,-0.345370363,-0.391666695,1,0,0,1.0192,Obsidian_rect,5,1.019,1,13,0,13,0,1,,,,,,,,,,,,,
634282de38138fa9316eb482,TCR,2024-06-20_21h18.37.513,LearnStrategy,2023.2.3,Win32,59.88023952,8,1,15,0.068518533,-0.001851859,1,0,0,0.7331,rock_grid_rect_2,4,12,-1,-1,0.733,-0.108333305,-0.237963005,1,0,0,1.321,Basalt_rect,2,1.321,0,14,0,14,0,1,,,,,,,,,,,,,
634282de38138fa9316eb482,TCR,2024-06-20_21h18.37.513,LearnStrategy,2023.2.3,Win32,59.88023952,8,1,16,0.065740727,-0.0074074,1,0,0,0.686,rock_grid_rect_2,4,09,-1,-1,0.686,0.433333362,-0.249074088,1,0,0,4.5875,Gabbro_rect,4,4.588,1,15,0,15,0,1,,,,,,,,,,,,,
634282de38138fa9316eb482,TCR,2024-06-20_21h18.37.513,LearnStrategy,2023.2.3,Win32,59.88023952,8,2,1,,,,,,,,4,03,,,,,,,,,,,4,1.813,1,,,,,,0.441666638,-0.268518519,1,0,0,1.8127,Gabbro_rect,0,0,0,0,1,
634282de38138fa9316eb482,TCR,2024-06-20_21h18.37.513,LearnStrategy,2023.2.3,Win32,59.88023952,8,2,2,,,,,,,,8,13,,,,,,,,,,,8,1.034,1,,,,,,0.372222194,-0.397222236,1,0,0,1.0343,Pumice_rect,1,0,1,0,1,
634282de38138fa9316eb482,TCR,2024-06-20_21h18.37.513,LearnStrategy,2023.2.3,Win32,59.88023952,8,2,3,,,,,,,,2,02,,,,,,,,,,,2,1.072,1,,,,,,-0.145370342,-0.233333376,1,0,0,1.0724,Basalt_rect,2,0,2,0,1,
634282de38138fa9316eb482,TCR,2024-06-20_21h18.37.513,LearnStrategy,2023.2.3,Win32,59.88023952,8,2,4,,,,,,,,1,11,,,,,,,,,,,1,3.746,1,,,,,,-0.354629623,-0.270370413,1,0,0,3.7456,Andesite_rect,3,0,3,0,1,
634282de38138fa9316eb482,TCR,2024-06-20_21h18.37.513,LearnStrategy,2023.2.3,Win32,59.88023952,8,2,5,,,,,,,,2,11,,,,,,,,,,,4,5.049,0,,,,,,0.393518519,-0.237037023,1,0,0,5.0489,Gabbro_rect,4,0,4,0,1,
634282de38138fa9316eb482,TCR,2024-06-20_21h18.37.513,LearnStrategy,2023.2.3,Win32,59.88023952,8,2,6,,,,,,,,7,02,,,,,,,,,,,7,1.552,1,,,,,,0.148148148,-0.381481524,1,0,0,1.5519,Peridotite_rect,5,0,5,0,1,
634282de38138fa9316eb482,TCR,2024-06-20_21h18.37.513,LearnStrategy,2023.2.3,Win32,59.88023952,8,2,7,,,,,,,,3,12,,,,,,,,,,,7,0.905,0,,,,,,0.12962963,-0.381481524,1,0,0,0.905,Peridotite_rect,6,0,6,0,1,
634282de38138fa9316eb482,TCR,2024-06-20_21h18.37.513,LearnStrategy,2023.2.3,Win32,59.88023952,8,2,8,,,,,,,,3,14,,,,,,,,,,,6,1.068,0,,,,,,-0.078703704,-0.39907406,1,0,0,1.0677,Pegmatite_rect,7,0,7,0,1,
634282de38138fa9316eb482,TCR,2024-06-20_21h18.37.513,LearnStrategy,2023.2.3,Win32,59.88023952,8,2,9,,,,,,,,1,07,,,,,,,,,,,3,4.291,0,,,,,,0.173148191,-0.249074088,1,0,0,4.2912,Diorite_rect,8,0,8,0,1,
634282de38138fa9316eb482,TCR,2024-06-20_21h18.37.513,LearnStrategy,2023.2.3,Win32,59.88023952,8,2,10,,,,,,,,6,16,,,,,,,,,,,6,1.331,1,,,,,,-0.171296296,-0.417592578,1,0,0,1.3307,Pegmatite_rect,9,0,9,0,1,
634282de38138fa9316eb482,TCR,2024-06-20_21h18.37.513,LearnStrategy,2023.2.3,Win32,59.88023952,8,2,11,,,,,,,,6,13,,,,,,,,,,,6,0.781,1,,,,,,-0.083333333,-0.402777778,1,0,0,0.7809,Pegmatite_rect,10,0,10,0,1,
634282de38138fa9316eb482,TCR,2024-06-20_21h18.37.513,LearnStrategy,2023.2.3,Win32,59.88023952,8,2,12,,,,,,,,5,06,,,,,,,,,,,5,1.796,1,,,,,,-0.35833334,-0.420370384,1,0,0,1.7964,Obsidian_rect,11,0,11,0,1,
634282de38138fa9316eb482,TCR,2024-06-20_21h18.37.513,LearnStrategy,2023.2.3,Win32,59.88023952,8,2,13,,,,,,,,8,16,,,,,,,,,,,8,1.479,1,,,,,,0.402777778,-0.385185171,1,0,0,1.4793,Pumice_rect,12,0,12,0,1,
634282de38138fa9316eb482,TCR,2024-06-20_21h18.37.513,LearnStrategy,2023.2.3,Win32,59.88023952,8,2,14,,,,,,,,5,02,,,,,,,,,,,5,0.968,1,,,,,,-0.343518504,-0.383333347,1,0,0,0.9681,Obsidian_rect,13,0,13,0,1,
634282de38138fa9316eb482,TCR,2024-06-20_21h18.37.513,LearnStrategy,2023.2.3,Win32,59.88023952,8,2,15,,,,,,,,4,08,,,,,,,,,,,6,1.583,0,,,,,,-0.088888875,-0.388888889,1,0,0,1.5827,Pegmatite_rect,14,0,14,0,1,
634282de38138fa9316eb482,TCR,2024-06-20_21h18.37.513,LearnStrategy,2023.2.3,Win32,59.88023952,8,2,16,,,,,,,,7,13,,,,,,,,,,,7,1.025,1,,,,,,0.180555556,-0.386111153,1,0,0,1.0249,Peridotite_rect,15,0,15,0,1,
634282de38138fa9316eb482,TCR,2024-06-20_21h18.37.513,LearnStrategy,2023.2.3,Win32,59.88023952,9,1,1,0.044444473,0.012962942,1,0,0,0.9026,rock_grid_rect_2,2,09,-1,-1,0.903,-0.090740698,-0.246296282,1,0,0,1.1542,Basalt_rect,2,1.154,1,0,0,0,0,1,,,,,,,,,,,,,
634282de38138fa9316eb482,TCR,2024-06-20_21h18.37.513,LearnStrategy,2023.2.3,Win32,59.88023952,9,1,2,0.119444459,0.002777771,1,0,0,0.8338,rock_grid_rect_2,4,12,-1,-1,0.834,-0.342592593,-0.249074088,1,0,0,5.9366,Andesite_rect,1,5.937,0,1,0,1,0,1,,,,,,,,,,,,,
634282de38138fa9316eb482,TCR,2024-06-20_21h18.37.513,LearnStrategy,2023.2.3,Win32,59.88023952,9,1,3,0.089814857,-0.015740748,1,0,0,0.753,rock_grid_rect_2,7,10,-1,-1,0.753,0.117592635,-0.411111125,1,0,0,1.6639,Peridotite_rect,7,1.664,1,2,0,2,0,1,,,,,,,,,,,,,
634282de38138fa9316eb482,TCR,2024-06-20_21h18.37.513,LearnStrategy,2023.2.3,Win32,59.88023952,9,1,4,0.079629616,0.008333312,1,0,0,0.9036,rock_grid_rect_2,1,10,-1,-1,0.904,-0.074074074,-0.400925954,1,0,0,0.8532,Pegmatite_rect,6,0.853,0,3,0,3,0,1,,,,,,,,,,,,,
634282de38138fa9316eb482,TCR,2024-06-20_21h18.37.513,LearnStrategy,2023.2.3,Win32,59.88023952,9,1,5,0.035185213,-0.005555577,1,0,0,0.7831,rock_grid_rect_2,4,13,-1,-1,0.783,-0.385185171,-0.240740741,1,0,0,1.5871,Andesite_rect,1,1.587,0,4,0,4,0,1,,,,,,,,,,,,,
634282de38138fa9316eb482,TCR,2024-06-20_21h18.37.513,LearnStrategy,2023.2.3,Win32,59.88023952,9,1,6,0.089814857,-0.002777771,1,0,0,0.7271,rock_grid_rect_2,3,02,-1,-1,0.727,0.141666695,-0.228703746,1,0,0,2.9576,Diorite_rect,3,2.958,1,5,0,5,0,1,,,,,,,,,,,,,
634282de38138fa9316eb482,TCR,2024-06-20_21h18.37.513,LearnStrategy,2023.2.3,Win32,59.88023952,9,1,7,0.086111139,-0.000925947,1,0,0,0.6974,rock_grid_rect_2,2,10,-1,-1,0.697,0.362962935,-0.256481524,1,0,0,3.708,Gabbro_rect,4,3.708,0,6,0,6,0,1,,,,,,,,,,,,,
634282de38138fa9316eb482,TCR,2024-06-20_21h18.37.513,LearnStrategy,2023.2.3,Win32,59.88023952,9,1,8,0.036111125,0.015740748,1,0,0,0.7029,rock_grid_rect_2,4,14,-1,-1,0.703,0.431481538,-0.248148176,1,0,0,3.5693,Gabbro_rect,4,3.569,1,7,0,7,0,1,,,,,,,,,,,,,
634282de38138fa9316eb482,TCR,2024-06-20_21h18.37.513,LearnStrategy,2023.2.3,Win32,59.88023952,9,1,9,0.101851852,-0.00462963,1,0,0,0.6701,rock_grid_rect_2,3,15,-1,-1,0.67,0.14907406,-0.241666653,1,0,0,4.4449,Diorite_rect,3,4.445,1,8,0,8,0,1,,,,,,,,,,,,,
634282de38138fa9316eb482,TCR,2024-06-20_21h18.37.513,LearnStrategy,2023.2.3,Win32,59.88023952,9,1,10,0.147222236,-0.01203703,1,0,0,0.7697,rock_grid_rect_2,3,08,-1,-1,0.77,0.160185213,-0.232407393,1,0,0,2.9617,Diorite_rect,3,2.962,1,9,0,9,0,1,,,,,,,,,,,,,
634282de38138fa9316eb482,TCR,2024-06-20_21h18.37.513,LearnStrategy,2023.2.3,Win32,59.88023952,9,1,11,0.119444459,-0.019444466,1,0,0,0.6997,rock_grid_rect_2,4,16,-1,-1,0.7,0.351851852,-0.256481524,1,0,0,2.3708,Gabbro_rect,4,2.371,1,10,0,10,0,1,,,,,,,,,,,,,
634282de38138fa9316eb482,TCR,2024-06-20_21h18.37.513,LearnStrategy,2023.2.3,Win32,59.88023952,9,1,12,0.087037051,0.00462963,1,0,0,0.6366,rock_grid_rect_2,6,11,-1,-1,0.637,-0.101851852,-0.404629672,1,0,0,2.2729,Pegmatite_rect,6,2.273,1,11,0,11,0,1,,,,,,,,,,,,,
634282de38138fa9316eb482,TCR,2024-06-20_21h18.37.513,LearnStrategy,2023.2.3,Win32,59.88023952,9,1,13,0.098148134,0.00462963,1,0,0,0.7006,rock_grid_rect_2,8,08,-1,-1,0.701,0.376851824,-0.405555584,1,0,0,1.4058,Pumice_rect,8,1.406,1,12,0,12,0,1,,,,,,,,,,,,,
634282de38138fa9316eb482,TCR,2024-06-20_21h18.37.513,LearnStrategy,2023.2.3,Win32,59.88023952,9,1,14,0.023148148,-0.023148148,1,0,0,1.2643,rock_grid_rect_2,1,14,-1,-1,1.264,-0.101851852,-0.408333319,1,0,0,2.0589,Pegmatite_rect,6,2.059,0,13,0,13,0,1,,,,,,,,,,,,,
634282de38138fa9316eb482,TCR,2024-06-20_21h18.37.513,LearnStrategy,2023.2.3,Win32,59.88023952,9,1,15,0.050925926,-0.002777771,1,0,0,0.7107,rock_grid_rect_2,1,10,-1,-1,0.711,-0.398148148,-0.247222265,1,0,0,5.2668,Andesite_rect,1,5.267,1,14,0,14,0,1,,,,,,,,,,,,,
634282de38138fa9316eb482,TCR,2024-06-20_21h18.37.513,LearnStrategy,2023.2.3,Win32,59.88023952,9,1,16,0.045370384,-0.011111118,1,0,0,0.75,rock_grid_rect_2,3,02,-1,-1,0.75,0.158333319,-0.238888917,1,0,0,2.503,Diorite_rect,3,2.503,1,15,0,15,0,1,,,,,,,,,,,,,
634282de38138fa9316eb482,TCR,2024-06-20_21h18.37.513,LearnStrategy,2023.2.3,Win32,59.88023952,9,2,1,,,,,,,,3,16,,,,,,,,,,,3,2.441,1,,,,,,0.175925926,-0.25462963,1,0,0,2.441,Diorite_rect,0,0,0,0,1,
634282de38138fa9316eb482,TCR,2024-06-20_21h18.37.513,LearnStrategy,2023.2.3,Win32,59.88023952,9,2,2,,,,,,,,6,03,,,,,,,,,,,7,2.041,0,,,,,,0.12962963,-0.406481496,1,0,0,2.0415,Peridotite_rect,1,0,1,0,1,
634282de38138fa9316eb482,TCR,2024-06-20_21h18.37.513,LearnStrategy,2023.2.3,Win32,59.88023952,9,2,3,,,,,,,,7,08,,,,,,,,,,,7,0.86,1,,,,,,0.123148176,-0.383333347,1,0,0,0.8602,Peridotite_rect,2,0,2,0,1,
634282de38138fa9316eb482,TCR,2024-06-20_21h18.37.513,LearnStrategy,2023.2.3,Win32,59.88023952,9,2,4,,,,,,,,3,11,,,,,,,,,,,7,0.95,0,,,,,,0.127777806,-0.39444443,1,0,0,0.9502,Peridotite_rect,3,0,3,0,1,
634282de38138fa9316eb482,TCR,2024-06-20_21h18.37.513,LearnStrategy,2023.2.3,Win32,59.88023952,9,2,5,,,,,,,,4,15,,,,,,,,,,,7,0.842,0,,,,,,0.132407436,-0.398148148,1,0,0,0.8416,Peridotite_rect,4,0,4,0,1,
634282de38138fa9316eb482,TCR,2024-06-20_21h18.37.513,LearnStrategy,2023.2.3,Win32,59.88023952,9,2,6,,,,,,,,4,11,,,,,,,,,,,1,1.592,0,,,,,,-0.35833334,-0.23055557,1,0,0,1.5919,Andesite_rect,5,0,5,0,1,
634282de38138fa9316eb482,TCR,2024-06-20_21h18.37.513,LearnStrategy,2023.2.3,Win32,59.88023952,9,2,7,,,,,,,,6,09,,,,,,,,,,,6,1.085,1,,,,,,-0.074999986,-0.411111125,1,0,0,1.0852,Pegmatite_rect,6,0,6,0,1,
634282de38138fa9316eb482,TCR,2024-06-20_21h18.37.513,LearnStrategy,2023.2.3,Win32,59.88023952,9,2,8,,,,,,,,5,08,,,,,,,,,,,5,0.952,1,,,,,,-0.349999993,-0.39907406,1,0,0,0.9516,Obsidian_rect,7,0,7,0,1,
634282de38138fa9316eb482,TCR,2024-06-20_21h18.37.513,LearnStrategy,2023.2.3,Win32,59.88023952,9,2,9,,,,,,,,2,05,,,,,,,,,,,2,1.047,1,,,,,,-0.12037037,-0.259259259,1,0,0,1.0475,Basalt_rect,8,0,8,0,1,
634282de38138fa9316eb482,TCR,2024-06-20_21h18.37.513,LearnStrategy,2023.2.3,Win32,59.88023952,9,2,10,,,,,,,,7,05,,,,,,,,,,,7,1.04,1,,,,,,0.161111125,-0.40370369,1,0,0,1.0396,Peridotite_rect,9,0,9,0,1,
634282de38138fa9316eb482,TCR,2024-06-20_21h18.37.513,LearnStrategy,2023.2.3,Win32,59.88023952,9,2,11,,,,,,,,5,10,,,,,,,,,,,5,0.941,1,,,,,,-0.341666645,-0.393518519,1,0,0,0.941,Obsidian_rect,10,0,10,0,1,
634282de38138fa9316eb482,TCR,2024-06-20_21h18.37.513,LearnStrategy,2023.2.3,Win32,59.88023952,9,2,12,,,,,,,,8,04,,,,,,,,,,,8,1.031,1,,,,,,0.381481453,-0.387037065,1,0,0,1.0305,Pumice_rect,11,0,11,0,1,
634282de38138fa9316eb482,TCR,2024-06-20_21h18.37.513,LearnStrategy,2023.2.3,Win32,59.88023952,9,2,13,,,,,,,,2,08,,,,,,,,,,,2,1.104,1,,,,,,-0.10092594,-0.237963005,1,0,0,1.1039,Basalt_rect,12,0,12,0,1,
634282de38138fa9316eb482,TCR,2024-06-20_21h18.37.513,LearnStrategy,2023.2.3,Win32,59.88023952,9,2,14,,,,,,,,1,01,,,,,,,,,,,3,1.972,0,,,,,,0.163888931,-0.257407436,1,0,0,1.9718,Diorite_rect,13,0,13,0,1,
634282de38138fa9316eb482,TCR,2024-06-20_21h18.37.513,LearnStrategy,2023.2.3,Win32,59.88023952,9,2,15,,,,,,,,1,05,,,,,,,,,,,3,1.096,0,,,,,,0.140740783,-0.249074088,1,0,0,1.096,Diorite_rect,14,0,14,0,1,
634282de38138fa9316eb482,TCR,2024-06-20_21h18.37.513,LearnStrategy,2023.2.3,Win32,59.88023952,9,2,16,,,,,,,,8,06,,,,,,,,,,,8,0.891,1,,,,,,0.371296353,-0.404629672,1,0,0,0.8911,Pumice_rect,15,0,15,0,1,
634282de38138fa9316eb482,TCR,2024-06-20_21h18.37.513,LearnStrategy,2023.2.3,Win32,59.88023952,,,,,,,,,,,,,,,,,,,,,,,,,,,,,,,,,,,,,,,,,,,1
634282de38138fa9316eb482,TCR,2024-06-20_21h18.37.513,LearnStrategy,2023.2.3,Win32,59.88023952,,,,,,,,,,,,,,,,,,,,,,,,,,,,,,,,,,,,,,,,,,,
634282de38138fa9316eb482,TCR,2024-06-20_21h18.37.513,LearnStrategy,2023.2.3,Win32,59.88023952,,,,,,,,,,,3,07,1,1,,,,,,,,,,,,,,,,,,,,,,,,,,,,,
634282de38138fa9316eb482,TCR,2024-06-20_21h18.37.513,LearnStrategy,2023.2.3,Win32,59.88023952,,,,,,,,,,,6,12,1,2,,,,,,,,,,,,,,,,,,,,,,,,,,,,,
634282de38138fa9316eb482,TCR,2024-06-20_21h18.37.513,LearnStrategy,2023.2.3,Win32,59.88023952,,,,,,,,,,,6,10,1,3,,,,,,,,,,,,,,,,,,,,,,,,,,,,,
634282de38138fa9316eb482,TCR,2024-06-20_21h18.37.513,LearnStrategy,2023.2.3,Win32,59.88023952,,,,,,,,,,,1,04,1,4,,,,,,,,,,,,,,,,,,,,,,,,,,,,,
634282de38138fa9316eb482,TCR,2024-06-20_21h18.37.513,LearnStrategy,2023.2.3,Win32,59.88023952,,,,,,,,,,,6,11,1,5,,,,,,,,,,,,,,,,,,,,,,,,,,,,,
634282de38138fa9316eb482,TCR,2024-06-20_21h18.37.513,LearnStrategy,2023.2.3,Win32,59.88023952,,,,,,,,,,,5,11,1,6,,,,,,,,,,,,,,,,,,,,,,,,,,,,,
634282de38138fa9316eb482,TCR,2024-06-20_21h18.37.513,LearnStrategy,2023.2.3,Win32,59.88023952,,,,,,,,,,,2,01,1,7,,,,,,,,,,,,,,,,,,,,,,,,,,,,,
634282de38138fa9316eb482,TCR,2024-06-20_21h18.37.513,LearnStrategy,2023.2.3,Win32,59.88023952,,,,,,,,,,,4,01,1,8,,,,,,,,,,,,,,,,,,,,,,,,,,,,,
634282de38138fa9316eb482,TCR,2024-06-20_21h18.37.513,LearnStrategy,2023.2.3,Win32,59.88023952,,,,,,,,,,,7,16,2,1,,,,,,,,,,,,,,,,,,,,,,,,,,,,,
634282de38138fa9316eb482,TCR,2024-06-20_21h18.37.513,LearnStrategy,2023.2.3,Win32,59.88023952,,,,,,,,,,,4,14,2,2,,,,,,,,,,,,,,,,,,,,,,,,,,,,,
634282de38138fa9316eb482,TCR,2024-06-20_21h18.37.513,LearnStrategy,2023.2.3,Win32,59.88023952,,,,,,,,,,,4,13,2,3,,,,,,,,,,,,,,,,,,,,,,,,,,,,,
634282de38138fa9316eb482,TCR,2024-06-20_21h18.37.513,LearnStrategy,2023.2.3,Win32,59.88023952,,,,,,,,,,,8,03,2,4,,,,,,,,,,,,,,,,,,,,,,,,,,,,,
634282de38138fa9316eb482,TCR,2024-06-20_21h18.37.513,LearnStrategy,2023.2.3,Win32,59.88023952,,,,,,,,,,,5,12,2,5,,,,,,,,,,,,,,,,,,,,,,,,,,,,,
634282de38138fa9316eb482,TCR,2024-06-20_21h18.37.513,LearnStrategy,2023.2.3,Win32,59.88023952,,,,,,,,,,,7,14,2,6,,,,,,,,,,,,,,,,,,,,,,,,,,,,,
634282de38138fa9316eb482,TCR,2024-06-20_21h18.37.513,LearnStrategy,2023.2.3,Win32,59.88023952,,,,,,,,,,,8,08,2,7,,,,,,,,,,,,,,,,,,,,,,,,,,,,,
634282de38138fa9316eb482,TCR,2024-06-20_21h18.37.513,LearnStrategy,2023.2.3,Win32,59.88023952,,,,,,,,,,,6,05,2,8,,,,,,,,,,,,,,,,,,,,,,,,,,,,,
634282de38138fa9316eb482,TCR,2024-06-20_21h18.37.513,LearnStrategy,2023.2.3,Win32,59.88023952,,,,,,,,,,,6,08,3,1,,,,,,,,,,,,,,,,,,,,,,,,,,,,,
634282de38138fa9316eb482,TCR,2024-06-20_21h18.37.513,LearnStrategy,2023.2.3,Win32,59.88023952,,,,,,,,,,,7,07,3,2,,,,,,,,,,,,,,,,,,,,,,,,,,,,,
634282de38138fa9316eb482,TCR,2024-06-20_21h18.37.513,LearnStrategy,2023.2.3,Win32,59.88023952,,,,,,,,,,,5,14,3,3,,,,,,,,,,,,,,,,,,,,,,,,,,,,,
634282de38138fa9316eb482,TCR,2024-06-20_21h18.37.513,LearnStrategy,2023.2.3,Win32,59.88023952,,,,,,,,,,,4,16,3,4,,,,,,,,,,,,,,,,,,,,,,,,,,,,,
634282de38138fa9316eb482,TCR,2024-06-20_21h18.37.513,LearnStrategy,2023.2.3,Win32,59.88023952,,,,,,,,,,,8,14,3,5,,,,,,,,,,,,,,,,,,,,,,,,,,,,,
634282de38138fa9316eb482,TCR,2024-06-20_21h18.37.513,LearnStrategy,2023.2.3,Win32,59.88023952,,,,,,,,,,,1,03,3,6,,,,,,,,,,,,,,,,,,,,,,,,,,,,,
634282de38138fa9316eb482,TCR,2024-06-20_21h18.37.513,LearnStrategy,2023.2.3,Win32,59.88023952,,,,,,,,,,,8,02,3,7,,,,,,,,,,,,,,,,,,,,,,,,,,,,,
634282de38138fa9316eb482,TCR,2024-06-20_21h18.37.513,LearnStrategy,2023.2.3,Win32,59.88023952,,,,,,,,,,,2,14,3,8,,,,,,,,,,,,,,,,,,,,,,,,,,,,,
634282de38138fa9316eb482,TCR,2024-06-20_21h18.37.513,LearnStrategy,2023.2.3,Win32,59.88023952,,,,,,,,,,,6,15,4,1,,,,,,,,,,,,,,,,,,,,,,,,,,,,,
634282de38138fa9316eb482,TCR,2024-06-20_21h18.37.513,LearnStrategy,2023.2.3,Win32,59.88023952,,,,,,,,,,,1,16,4,2,,,,,,,,,,,,,,,,,,,,,,,,,,,,,
634282de38138fa9316eb482,TCR,2024-06-20_21h18.37.513,LearnStrategy,2023.2.3,Win32,59.88023952,,,,,,,,,,,5,07,4,3,,,,,,,,,,,,,,,,,,,,,,,,,,,,,
634282de38138fa9316eb482,TCR,2024-06-20_21h18.37.513,LearnStrategy,2023.2.3,Win32,59.88023952,,,,,,,,,,,1,06,4,4,,,,,,,,,,,,,,,,,,,,,,,,,,,,,
634282de38138fa9316eb482,TCR,2024-06-20_21h18.37.513,LearnStrategy,2023.2.3,Win32,59.88023952,,,,,,,,,,,2,04,4,5,,,,,,,,,,,,,,,,,,,,,,,,,,,,,
634282de38138fa9316eb482,TCR,2024-06-20_21h18.37.513,LearnStrategy,2023.2.3,Win32,59.88023952,,,,,,,,,,,2,12,4,6,,,,,,,,,,,,,,,,,,,,,,,,,,,,,
634282de38138fa9316eb482,TCR,2024-06-20_21h18.37.513,LearnStrategy,2023.2.3,Win32,59.88023952,,,,,,,,,,,2,10,4,7,,,,,,,,,,,,,,,,,,,,,,,,,,,,,
634282de38138fa9316eb482,TCR,2024-06-20_21h18.37.513,LearnStrategy,2023.2.3,Win32,59.88023952,,,,,,,,,,,1,10,4,8,,,,,,,,,,,,,,,,,,,,,,,,,,,,,
634282de38138fa9316eb482,TCR,2024-06-20_21h18.37.513,LearnStrategy,2023.2.3,Win32,59.88023952,,,,,,,,,,,1,14,5,1,,,,,,,,,,,,,,,,,,,,,,,,,,,,,
634282de38138fa9316eb482,TCR,2024-06-20_21h18.37.513,LearnStrategy,2023.2.3,Win32,59.88023952,,,,,,,,,,,7,06,5,2,,,,,,,,,,,,,,,,,,,,,,,,,,,,,
634282de38138fa9316eb482,TCR,2024-06-20_21h18.37.513,LearnStrategy,2023.2.3,Win32,59.88023952,,,,,,,,,,,3,15,5,3,,,,,,,,,,,,,,,,,,,,,,,,,,,,,
634282de38138fa9316eb482,TCR,2024-06-20_21h18.37.513,LearnStrategy,2023.2.3,Win32,59.88023952,,,,,,,,,,,5,16,5,4,,,,,,,,,,,,,,,,,,,,,,,,,,,,,
634282de38138fa9316eb482,TCR,2024-06-20_21h18.37.513,LearnStrategy,2023.2.3,Win32,59.88023952,,,,,,,,,,,3,08,5,5,,,,,,,,,,,,,,,,,,,,,,,,,,,,,
634282de38138fa9316eb482,TCR,2024-06-20_21h18.37.513,LearnStrategy,2023.2.3,Win32,59.88023952,,,,,,,,,,,4,09,5,6,,,,,,,,,,,,,,,,,,,,,,,,,,,,,
634282de38138fa9316eb482,TCR,2024-06-20_21h18.37.513,LearnStrategy,2023.2.3,Win32,59.88023952,,,,,,,,,,,8,15,5,7,,,,,,,,,,,,,,,,,,,,,,,,,,,,,
634282de38138fa9316eb482,TCR,2024-06-20_21h18.37.513,LearnStrategy,2023.2.3,Win32,59.88023952,,,,,,,,,,,8,10,5,8,,,,,,,,,,,,,,,,,,,,,,,,,,,,,
634282de38138fa9316eb482,TCR,2024-06-20_21h18.37.513,LearnStrategy,2023.2.3,Win32,59.88023952,,,,,,,,,,,7,12,6,1,,,,,,,,,,,,,,,,,,,,,,,,,,,,,
634282de38138fa9316eb482,TCR,2024-06-20_21h18.37.513,LearnStrategy,2023.2.3,Win32,59.88023952,,,,,,,,,,,3,02,6,2,,,,,,,,,,,,,,,,,,,,,,,,,,,,,
634282de38138fa9316eb482,TCR,2024-06-20_21h18.37.513,LearnStrategy,2023.2.3,Win32,59.88023952,,,,,,,,,,,3,06,6,3,,,,,,,,,,,,,,,,,,,,,,,,,,,,,
634282de38138fa9316eb482,TCR,2024-06-20_21h18.37.513,LearnStrategy,2023.2.3,Win32,59.88023952,,,,,,,,,,,4,12,6,4,,,,,,,,,,,,,,,,,,,,,,,,,,,,,
634282de38138fa9316eb482,TCR,2024-06-20_21h18.37.513,LearnStrategy,2023.2.3,Win32,59.88023952,,,,,,,,,,,3,10,6,5,,,,,,,,,,,,,,,,,,,,,,,,,,,,,
634282de38138fa9316eb482,TCR,2024-06-20_21h18.37.513,LearnStrategy,2023.2.3,Win32,59.88023952,,,,,,,,,,,5,09,6,6,,,,,,,,,,,,,,,,,,,,,,,,,,,,,
634282de38138fa9316eb482,TCR,2024-06-20_21h18.37.513,LearnStrategy,2023.2.3,Win32,59.88023952,,,,,,,,,,,7,10,6,7,,,,,,,,,,,,,,,,,,,,,,,,,,,,,
634282de38138fa9316eb482,TCR,2024-06-20_21h18.37.513,LearnStrategy,2023.2.3,Win32,59.88023952,,,,,,,,,,,2,09,6,8,,,,,,,,,,,,,,,,,,,,,,,,,,,,,