participant,condition,date,expName,psychopyVersion,OS,frameRate,block,phase,trial,learn_mouse_2.x,learn_mouse_2.y,learn_mouse_2.leftButton,learn_mouse_2.midButton,learn_mouse_2.rightButton,learn_mouse_2.time,learn_mouse_2.clicked_name,cat,token,row,col,t_select,cat_mouse_l.x,cat_mouse_l.y,cat_mouse_l.leftButton,cat_mouse_l.midButton,cat_mouse_l.rightButton,cat_mouse_l.time,cat_mouse_l.clicked_name,resp,t_resp,corr,train_trials.thisRepN,train_trials.thisTrialN,train_trials.thisN,train_trials.thisIndex,train_trials.ran,cat_mouse_t.x,cat_mouse_t.y,cat_mouse_t.leftButton,cat_mouse_t.midButton,cat_mouse_t.rightButton,cat_mouse_t.time,cat_mouse_t.clicked_name,test_trials.thisRepN,test_trials.thisTrialN,test_trials.thisN,test_trials.thisIndex,test_trials.ran,Bonus
6345bfdce5f06f5b4ee98ea8,TCR,2024-06-11_13h33.02.963,LearnStrategy,2023.2.3,Win32,60.24096386,,,,,,,,,,,,,,,,,,,,,,,,,,,,,,,,,,,,,,,,,,,
6345bfdce5f06f5b4ee98ea8,TCR,2024-06-11_13h33.02.963,LearnStrategy,2023.2.3,Win32,60.24096386,1,1,1,0.102777764,-0.017592607,1,0,0,4.2352,rock_grid_rect_2,7,02,-1,-1,4.235,0.123148176,-0.402777778,1,0,0,3.3893,Peridotite_rect,7,3.389,1,0,0,0,0,1,,,,,,,,,,,,,
6345bfdce5f06f5b4ee98ea8,TCR,2024-06-11_13h33.02.963,LearnStrategy,2023.2.3,Win32,60.24096386,1,1,2,0.086111139,-0.011111118,1,0,0,2.6625,rock_grid_rect_2,4,14,-1,-1,2.663,0.118518547,-0.248148176,1,0,0,1.6706,Diorite_rect,3,1.671,0,1,0,1,0,1,,,,,,,,,,,,,
6345bfdce5f06f5b4ee98ea8,TCR,2024-06-11_13h33.02.963,LearnStrategy,2023.2.3,Win32,60.24096386,1,1,3,0.086111139,0.017592571,1,0,0,1.5594,rock_grid_rect_2,5,12,-1,-1,1.559,0.183333362,-0.267592607,1,0,0,5.3535,Diorite_rect,3,5.354,0,2,0,2,0,1,,,,,,,,,,,,,
6345bfdce5f06f5b4ee98ea8,TCR,2024-06-11_13h33.02.963,LearnStrategy,2023.2.3,Win32,60.24096386,1,1,4,0.113888917,-0.009259259,1,0,0,1.3367,rock_grid_rect_2,6,09,-1,-1,1.337,0.180555556,-0.392592607,1,0,0,3.0716,Peridotite_rect,7,3.072,0,3,0,3,0,1,,,,,,,,,,,,,
6345bfdce5f06f5b4ee98ea8,TCR,2024-06-11_13h33.02.963,LearnStrategy,2023.2.3,Win32,60.24096386,1,1,5,0.106481481,0.003703683,1,0,0,1.4338,rock_grid_rect_2,4,11,-1,-1,1.434,0.409259231,-0.387962977,1,0,0,3.4699,Pumice_rect,8,3.47,0,4,0,4,0,1,,,,,,,,,,,,,
6345bfdce5f06f5b4ee98ea8,TCR,2024-06-11_13h33.02.963,LearnStrategy,2023.2.3,Win32,60.24096386,1,1,6,0.100000028,0.01944443,1,0,0,1.21,rock_grid_rect_2,1,06,-1,-1,1.21,0.35555564,-0.259259259,1,0,0,1.7658,Gabbro_rect,4,1.766,0,5,0,5,0,1,,,,,,,,,,,,,
6345bfdce5f06f5b4ee98ea8,TCR,2024-06-11_13h33.02.963,LearnStrategy,2023.2.3,Win32,60.24096386,1,1,7,0.047222208,-0.013888889,1,0,0,0.8125,rock_grid_rect_2,5,06,-1,-1,0.813,-0.350925905,-0.393518519,1,0,0,2.9669,Obsidian_rect,5,2.967,1,6,0,6,0,1,,,,,,,,,,,,,
6345bfdce5f06f5b4ee98ea8,TCR,2024-06-11_13h33.02.963,LearnStrategy,2023.2.3,Win32,60.24096386,1,1,8,0.135185171,0.006481489,1,0,0,1.2695,rock_grid_rect_2,8,04,-1,-1,1.269,0.424074102,-0.392592607,1,0,0,2.4577,Pumice_rect,8,2.458,1,7,0,7,0,1,,,,,,,,,,,,,
6345bfdce5f06f5b4ee98ea8,TCR,2024-06-11_13h33.02.963,LearnStrategy,2023.2.3,Win32,60.24096386,1,1,9,0.092592593,-0.000925947,1,0,0,1.0853,rock_grid_rect_2,3,06,-1,-1,1.085,-0.362037023,-0.255555541,1,0,0,5.1043,Andesite_rect,1,5.104,0,8,0,8,0,1,,,,,,,,,,,,,
6345bfdce5f06f5b4ee98ea8,TCR,2024-06-11_13h33.02.963,LearnStrategy,2023.2.3,Win32,60.24096386,1,1,10,-0.025925884,0.0074074,1,0,0,1.8251,rock_grid_rect_2,2,09,-1,-1,1.825,0.337037122,-0.266666695,1,0,0,2.8181,Gabbro_rect,4,2.818,0,9,0,9,0,1,,,,,,,,,,,,,
6345bfdce5f06f5b4ee98ea8,TCR,2024-06-11_13h33.02.963,LearnStrategy,2023.2.3,Win32,60.24096386,1,1,11,0.044444473,0.005555541,1,0,0,1.2956,rock_grid_rect_2,8,08,-1,-1,1.296,0.371296353,-0.253703718,1,0,0,2.0101,Gabbro_rect,4,2.01,0,10,0,10,0,1,,,,,,,,,,,,,
6345bfdce5f06f5b4ee98ea8,TCR,2024-06-11_13h33.02.963,LearnStrategy,2023.2.3,Win32,60.24096386,1,1,12,0.098148134,-0.020370377,1,0,0,1.1738,rock_grid_rect_2,7,10,-1,-1,1.174,0.162037037,-0.397222236,1,0,0,1.5807,Peridotite_rect,7,1.581,1,11,0,11,0,1,,,,,,,,,,,,,
6345bfdce5f06f5b4ee98ea8,TCR,2024-06-11_13h33.02.963,LearnStrategy,2023.2.3,Win32,60.24096386,1,1,13,0.030555584,-0.0074074,1,0,0,1.0874,rock_grid_rect_2,6,03,-1,-1,1.087,-0.151851866,-0.421296296,1,0,0,2.9983,Pegmatite_rect,6,2.998,1,12,0,12,0,1,,,,,,,,,,,,,
6345bfdce5f06f5b4ee98ea8,TCR,2024-06-11_13h33.02.963,LearnStrategy,2023.2.3,Win32,60.24096386,1,1,14,0.101851852,-0.005555577,1,0,0,1.2076,rock_grid_rect_2,2,14,-1,-1,1.208,-0.087037051,-0.251851894,1,0,0,5.1274,Basalt_rect,2,5.127,1,13,0,13,0,1,,,,,,,,,,,,,
6345bfdce5f06f5b4ee98ea8,TCR,2024-06-11_13h33.02.963,LearnStrategy,2023.2.3,Win32,60.24096386,1,1,15,0.069444444,0.015740748,1,0,0,1.4456,rock_grid_rect_2,3,13,-1,-1,1.446,0.10092594,-0.25462963,1,0,0,7.1755,Diorite_rect,3,7.175,1,14,0,14,0,1,,,,,,,,,,,,,
6345bfdce5f06f5b4ee98ea8,TCR,2024-06-11_13h33.02.963,LearnStrategy,2023.2.3,Win32,60.24096386,1,1,16,0.085185228,-0.006481489,1,0,0,1.6502,rock_grid_rect_2,1,01,-1,-1,1.65,-0.355555534,-0.401851866,1,0,0,2.6856,Obsidian_rect,5,2.686,0,15,0,15,0,1,,,,,,,,,,,,,
6345bfdce5f06f5b4ee98ea8,TCR,2024-06-11_13h33.02.963,LearnStrategy,2023.2.3,Win32,60.24096386,1,2,1,,,,,,,,6,10,,,,,,,,,,,3,7.155,0,,,,,,0.179629644,-0.262962977,1,0,0,7.1549,Diorite_rect,0,0,0,0,1,
6345bfdce5f06f5b4ee98ea8,TCR,2024-06-11_13h33.02.963,LearnStrategy,2023.2.3,Win32,60.24096386,1,2,2,,,,,,,,4,03,,,,,,,,,,,4,2.515,1,,,,,,0.378703788,-0.255555541,1,0,0,2.5146,Gabbro_rect,1,0,1,0,1,
6345bfdce5f06f5b4ee98ea8,TCR,2024-06-11_13h33.02.963,LearnStrategy,2023.2.3,Win32,60.24096386,1,2,3,,,,,,,,1,05,,,,,,,,,,,6,10.687,0,,,,,,-0.184259273,-0.382407436,1,0,0,10.6865,Pegmatite_rect,2,0,2,0,1,
6345bfdce5f06f5b4ee98ea8,TCR,2024-06-11_13h33.02.963,LearnStrategy,2023.2.3,Win32,60.24096386,1,2,4,,,,,,,,2,06,,,,,,,,,,,5,2.231,0,,,,,,-0.386111118,-0.395370413,1,0,0,2.2307,Obsidian_rect,3,0,3,0,1,
6345bfdce5f06f5b4ee98ea8,TCR,2024-06-11_13h33.02.963,LearnStrategy,2023.2.3,Win32,60.24096386,1,2,5,,,,,,,,7,06,,,,,,,,,,,3,1.946,0,,,,,,0.18240745,-0.236111111,1,0,0,1.9464,Diorite_rect,4,0,4,0,1,
6345bfdce5f06f5b4ee98ea8,TCR,2024-06-11_13h33.02.963,LearnStrategy,2023.2.3,Win32,60.24096386,1,2,6,,,,,,,,8,03,,,,,,,,,,,8,1.117,1,,,,,,0.394444501,-0.400925954,1,0,0,1.1168,Pumice_rect,5,0,5,0,1,
6345bfdce5f06f5b4ee98ea8,TCR,2024-06-11_13h33.02.963,LearnStrategy,2023.2.3,Win32,60.24096386,1,2,7,,,,,,,,5,16,,,,,,,,,,,5,2.026,1,,,,,,-0.36296297,-0.397222236,1,0,0,2.0261,Obsidian_rect,6,0,6,0,1,
6345bfdce5f06f5b4ee98ea8,TCR,2024-06-11_13h33.02.963,LearnStrategy,2023.2.3,Win32,60.24096386,1,2,8,,,,,,,,4,10,,,,,,,,,,,1,6.25,0,,,,,,-0.404629637,-0.248148176,1,0,0,6.2504,Andesite_rect,7,0,7,0,1,
6345bfdce5f06f5b4ee98ea8,TCR,2024-06-11_13h33.02.963,LearnStrategy,2023.2.3,Win32,60.24096386,1,2,9,,,,,,,,8,13,,,,,,,,,,,8,2.666,1,,,,,,0.413888861,-0.400925954,1,0,0,2.6656,Pumice_rect,8,0,8,0,1,
6345bfdce5f06f5b4ee98ea8,TCR,2024-06-11_13h33.02.963,LearnStrategy,2023.2.3,Win32,60.24096386,1,2,10,,,,,,,,2,12,,,,,,,,,,,4,14.417,0,,,,,,0.383333418,-0.263888889,1,0,0,14.4168,Gabbro_rect,9,0,9,0,1,
6345bfdce5f06f5b4ee98ea8,TCR,2024-06-11_13h33.02.963,LearnStrategy,2023.2.3,Win32,60.24096386,1,2,11,,,,,,,,3,16,,,,,,,,,,,3,6.784,1,,,,,,0.140740783,-0.25,1,0,0,6.7835,Diorite_rect,10,0,10,0,1,
6345bfdce5f06f5b4ee98ea8,TCR,2024-06-11_13h33.02.963,LearnStrategy,2023.2.3,Win32,60.24096386,1,2,12,,,,,,,,1,16,,,,,,,,,,,3,2.462,0,,,,,,0.141666695,-0.250925912,1,0,0,2.462,Diorite_rect,11,0,11,0,1,
6345bfdce5f06f5b4ee98ea8,TCR,2024-06-11_13h33.02.963,LearnStrategy,2023.2.3,Win32,60.24096386,1,2,13,,,,,,,,5,14,,,,,,,,,,,5,1.641,1,,,,,,-0.446296303,-0.395370413,1,0,0,1.6407,Obsidian_rect,12,0,12,0,1,
6345bfdce5f06f5b4ee98ea8,TCR,2024-06-11_13h33.02.963,LearnStrategy,2023.2.3,Win32,60.24096386,1,2,14,,,,,,,,3,02,,,,,,,,,,,2,2.864,0,,,,,,-0.10555557,-0.270370413,1,0,0,2.8644,Basalt_rect,13,0,13,0,1,
6345bfdce5f06f5b4ee98ea8,TCR,2024-06-11_13h33.02.963,LearnStrategy,2023.2.3,Win32,60.24096386,1,2,15,,,,,,,,6,08,,,,,,,,,,,2,1.965,0,,,,,,-0.111111111,-0.256481524,1,0,0,1.9654,Basalt_rect,14,0,14,0,1,
6345bfdce5f06f5b4ee98ea8,TCR,2024-06-11_13h33.02.963,LearnStrategy,2023.2.3,Win32,60.24096386,1,2,16,,,,,,,,7,05,,,,,,,,,,,7,2.638,1,,,,,,0.095370399,-0.385185171,1,0,0,2.6379,Peridotite_rect,15,0,15,0,1,
6345bfdce5f06f5b4ee98ea8,TCR,2024-06-11_13h33.02.963,LearnStrategy,2023.2.3,Win32,60.24096386,2,1,1,-0.02407406,-0.021296289,1,0,0,5.736,rock_grid_rect_2,6,15,-1,-1,5.736,-0.12962963,-0.24537037,1,0,0,2.7097,Basalt_rect,2,2.71,0,0,0,0,0,1,,,,,,,,,,,,,
6345bfdce5f06f5b4ee98ea8,TCR,2024-06-11_13h33.02.963,LearnStrategy,2023.2.3,Win32,60.24096386,2,1,2,-0.012962977,0.011111118,1,0,0,1.4736,rock_grid_rect_2,1,04,-1,-1,1.474,0.369444529,-0.261111153,1,0,0,3.0101,Gabbro_rect,4,3.01,0,1,0,1,0,1,,,,,,,,,,,,,
6345bfdce5f06f5b4ee98ea8,TCR,2024-06-11_13h33.02.963,LearnStrategy,2023.2.3,Win32,60.24096386,2,1,3,0.068518533,0,1,0,0,1.0663,rock_grid_rect_2,7,08,-1,-1,1.066,0.15370369,-0.389814801,1,0,0,3.8997,Peridotite_rect,7,3.9,1,2,0,2,0,1,,,,,,,,,,,,,
6345bfdce5f06f5b4ee98ea8,TCR,2024-06-11_13h33.02.963,LearnStrategy,2023.2.3,Win32,60.24096386,2,1,4,0.07222225,-0.002777771,1,0,0,1.1394,rock_grid_rect_2,2,10,-1,-1,1.139,-0.375,-0.388888889,1,0,0,2.3087,Obsidian_rect,5,2.309,0,3,0,3,0,1,,,,,,,,,,,,,
6345bfdce5f06f5b4ee98ea8,TCR,2024-06-11_13h33.02.963,LearnStrategy,2023.2.3,Win32,60.24096386,2,1,5,-0.026851866,-0.022222236,1,0,0,1.1464,rock_grid_rect_2,4,09,-1,-1,1.146,-0.384259259,-0.234259288,1,0,0,3.5218,Andesite_rect,1,3.522,0,4,0,4,0,1,,,,,,,,,,,,,
6345bfdce5f06f5b4ee98ea8,TCR,2024-06-11_13h33.02.963,LearnStrategy,2023.2.3,Win32,60.24096386,2,1,6,0.123148176,-0.002777771,1,0,0,2.4884,rock_grid_rect_2,2,05,-1,-1,2.488,-0.200925898,-0.411111125,1,0,0,7.8009,Pegmatite_rect,6,7.801,0,5,0,5,0,1,,,,,,,,,,,,,
6345bfdce5f06f5b4ee98ea8,TCR,2024-06-11_13h33.02.963,LearnStrategy,2023.2.3,Win32,60.24096386,2,1,7,0.027777778,0.020370377,1,0,0,1.1652,rock_grid_rect_2,6,05,-1,-1,1.165,-0.37037037,-0.241666653,1,0,0,2.613,Andesite_rect,1,2.613,0,6,0,6,0,1,,,,,,,,,,,,,
6345bfdce5f06f5b4ee98ea8,TCR,2024-06-11_13h33.02.963,LearnStrategy,2023.2.3,Win32,60.24096386,2,1,8,0.10092594,0.011111118,1,0,0,0.9136,rock_grid_rect_2,3,06,-1,-1,0.914,-0.039814772,-0.409259302,1,0,0,5.4084,Pegmatite_rect,6,5.408,0,7,0,7,0,1,,,,,,,,,,,,,
6345bfdce5f06f5b4ee98ea8,TCR,2024-06-11_13h33.02.963,LearnStrategy,2023.2.3,Win32,60.24096386,2,1,9,-0.060185185,0.020370377,1,0,0,1.4683,rock_grid_rect_2,4,08,-1,-1,1.468,0.184259273,-0.39444443,1,0,0,7.5894,Peridotite_rect,7,7.589,0,8,0,8,0,1,,,,,,,,,,,,,
6345bfdce5f06f5b4ee98ea8,TCR,2024-06-11_13h33.02.963,LearnStrategy,2023.2.3,Win32,60.24096386,2,1,10,0.038888931,0.008333312,1,0,0,1.25,rock_grid_rect_2,5,10,-1,-1,1.25,-0.389814801,-0.386111153,1,0,0,1.9984,Obsidian_rect,5,1.998,1,9,0,9,0,1,,,,,,,,,,,,,
6345bfdce5f06f5b4ee98ea8,TCR,2024-06-11_13h33.02.963,LearnStrategy,2023.2.3,Win32,60.24096386,2,1,11,0.126851894,0.006481489,1,0,0,1.0841,rock_grid_rect_2,6,03,-1,-1,1.084,0.130555541,-0.390740783,1,0,0,3.743,Peridotite_rect,7,3.743,0,10,0,10,0,1,,,,,,,,,,,,,
6345bfdce5f06f5b4ee98ea8,TCR,2024-06-11_13h33.02.963,LearnStrategy,2023.2.3,Win32,60.24096386,2,1,12,-0.021296254,-0.011111118,1,0,0,4.5887,rock_grid_rect_2,3,14,-1,-1,4.589,-0.343518504,-0.259259259,1,0,0,4.3178,Andesite_rect,1,4.318,0,11,0,11,0,1,,,,,,,,,,,,,
6345bfdce5f06f5b4ee98ea8,TCR,2024-06-11_13h33.02.963,LearnStrategy,2023.2.3,Win32,60.24096386,2,1,13,0.083333333,-0.008333347,1,0,0,1.9301,rock_grid_rect_2,2,08,-1,-1,1.93,-0.330555563,-0.378703718,1,0,0,3.2468,Obsidian_rect,5,3.247,0,12,0,12,0,1,,,,,,,,,,,,,
6345bfdce5f06f5b4ee98ea8,TCR,2024-06-11_13h33.02.963,LearnStrategy,2023.2.3,Win32,60.24096386,2,1,14,0.039814843,-0.001851859,1,0,0,1.3852,rock_grid_rect_2,7,08,-1,-1,1.385,0.162962949,-0.385185171,1,0,0,1.83,Peridotite_rect,7,1.83,1,13,0,13,0,1,,,,,,,,,,,,,
6345bfdce5f06f5b4ee98ea8,TCR,2024-06-11_13h33.02.963,LearnStrategy,2023.2.3,Win32,60.24096386,2,1,15,0.059259273,0.014814801,1,0,0,0.8651,rock_grid_rect_2,1,01,-1,-1,0.865,0.371296353,-0.260185171,1,0,0,3.8127,Gabbro_rect,4,3.813,0,14,0,14,0,1,,,,,,,,,,,,,
6345bfdce5f06f5b4ee98ea8,TCR,2024-06-11_13h33.02.963,LearnStrategy,2023.2.3,Win32,60.24096386,2,1,16,0.073148162,-0.023148148,1,0,0,1.171,rock_grid_rect_2,1,02,-1,-1,1.171,0.142592607,-0.25462963,1,0,0,2.5728,Diorite_rect,3,2.573,0,15,0,15,0,1,,,,,,,,,,,,,
6345bfdce5f06f5b4ee98ea8,TCR,2024-06-11_13h33.02.963,LearnStrategy,2023.2.3,Win32,60.24096386,2,2,1,,,,,,,,4,15,,,,,,,,,,,2,2.09,0,,,,,,-0.026851866,-0.251851894,1,0,0,2.0899,Basalt_rect,0,0,0,0,1,
6345bfdce5f06f5b4ee98ea8,TCR,2024-06-11_13h33.02.963,LearnStrategy,2023.2.3,Win32,60.24096386,2,2,2,,,,,,,,6,12,,,,,,,,,,,3,3.97,0,,,,,,0.180555556,-0.262037065,1,0,0,3.9701,Diorite_rect,1,0,1,0,1,
6345bfdce5f06f5b4ee98ea8,TCR,2024-06-11_13h33.02.963,LearnStrategy,2023.2.3,Win32,60.24096386,2,2,3,,,,,,,,2,16,,,,,,,,,,,2,3.817,1,,,,,,-0.164814772,-0.237963005,1,0,0,3.8175,Basalt_rect,2,0,2,0,1,
6345bfdce5f06f5b4ee98ea8,TCR,2024-06-11_13h33.02.963,LearnStrategy,2023.2.3,Win32,60.24096386,2,2,4,,,,,,,,7,12,,,,,,,,,,,6,10.994,0,,,,,,-0.098148134,-0.410185213,1,0,0,10.9935,Pegmatite_rect,3,0,3,0,1,
6345bfdce5f06f5b4ee98ea8,TCR,2024-06-11_13h33.02.963,LearnStrategy,2023.2.3,Win32,60.24096386,2,2,5,,,,,,,,5,07,,,,,,,,,,,5,2.473,1,,,,,,-0.419444437,-0.382407436,1,0,0,2.4731,Obsidian_rect,4,0,4,0,1,
6345bfdce5f06f5b4ee98ea8,TCR,2024-06-11_13h33.02.963,LearnStrategy,2023.2.3,Win32,60.24096386,2,2,6,,,,,,,,4,13,,,,,,,,,,,3,4.355,0,,,,,,0.07222225,-0.25462963,1,0,0,4.3554,Diorite_rect,5,0,5,0,1,
6345bfdce5f06f5b4ee98ea8,TCR,2024-06-11_13h33.02.963,LearnStrategy,2023.2.3,Win32,60.24096386,2,2,7,,,,,,,,3,12,,,,,,,,,,,3,1.019,1,,,,,,0.122222265,-0.237963005,1,0,0,1.0188,Diorite_rect,6,0,6,0,1,
6345bfdce5f06f5b4ee98ea8,TCR,2024-06-11_13h33.02.963,LearnStrategy,2023.2.3,Win32,60.24096386,2,2,8,,,,,,,,7,14,,,,,,,,,,,6,2.858,0,,,,,,-0.150925884,-0.390740783,1,0,0,2.8575,Pegmatite_rect,7,0,7,0,1,
6345bfdce5f06f5b4ee98ea8,TCR,2024-06-11_13h33.02.963,LearnStrategy,2023.2.3,Win32,60.24096386,2,2,9,,,,,,,,2,04,,,,,,,,,,,1,4.105,0,,,,,,-0.336111104,-0.239814829,1,0,0,4.1047,Andesite_rect,8,0,8,0,1,
6345bfdce5f06f5b4ee98ea8,TCR,2024-06-11_13h33.02.963,LearnStrategy,2023.2.3,Win32,60.24096386,2,2,10,,,,,,,,5,04,,,,,,,,,,,5,1.366,1,,,,,,-0.332407386,-0.387037065,1,0,0,1.3658,Obsidian_rect,9,0,9,0,1,
6345bfdce5f06f5b4ee98ea8,TCR,2024-06-11_13h33.02.963,LearnStrategy,2023.2.3,Win32,60.24096386,2,2,11,,,,,,,,3,15,,,,,,,,,,,4,2.837,0,,,,,,0.332407492,-0.262962977,1,0,0,2.8366,Gabbro_rect,10,0,10,0,1,
6345bfdce5f06f5b4ee98ea8,TCR,2024-06-11_13h33.02.963,LearnStrategy,2023.2.3,Win32,60.24096386,2,2,12,,,,,,,,1,07,,,,,,,,,,,2,4.554,0,,,,,,-0.16851849,-0.258333347,1,0,0,4.554,Basalt_rect,11,0,11,0,1,
6345bfdce5f06f5b4ee98ea8,TCR,2024-06-11_13h33.02.963,LearnStrategy,2023.2.3,Win32,60.24096386,2,2,13,,,,,,,,8,06,,,,,,,,,,,8,1.365,1,,,,,,0.492592564,-0.39444443,1,0,0,1.3647,Pumice_rect,12,0,12,0,1,
6345bfdce5f06f5b4ee98ea8,TCR,2024-06-11_13h33.02.963,LearnStrategy,2023.2.3,Win32,60.24096386,2,2,14,,,,,,,,6,13,,,,,,,,,,,7,3.805,0,,,,,,0.137962977,-0.404629672,1,0,0,3.8051,Peridotite_rect,13,0,13,0,1,
6345bfdce5f06f5b4ee98ea8,TCR,2024-06-11_13h33.02.963,LearnStrategy,2023.2.3,Win32,60.24096386,2,2,15,,,,,,,,8,09,,,,,,,,,,,8,1.356,1,,,,,,0.500925982,-0.392592607,1,0,0,1.3565,Pumice_rect,14,0,14,0,1,
6345bfdce5f06f5b4ee98ea8,TCR,2024-06-11_13h33.02.963,LearnStrategy,2023.2.3,Win32,60.24096386,2,2,16,,,,,,,,1,11,,,,,,,,,,,4,2.362,0,,,,,,0.424074102,-0.262962977,1,0,0,2.3621,Gabbro_rect,15,0,15,0,1,
6345bfdce5f06f5b4ee98ea8,TCR,2024-06-11_13h33.02.963,LearnStrategy,2023.2.3,Win32,60.24096386,3,1,1,0.179629644,0.002777771,1,0,0,102.6984,rock_grid_rect_2,4,12,-1,-1,102.698,0.387037065,-0.262037065,1,0,0,3.7537,Gabbro_rect,4,3.754,1,0,0,0,0,1,,,,,,,,,,,,,
6345bfdce5f06f5b4ee98ea8,TCR,2024-06-11_13h33.02.963,LearnStrategy,2023.2.3,Win32,60.24096386,3,1,2,0.100000028,0.005555541,1,0,0,1.3727,rock_grid_rect_2,2,10,-1,-1,1.373,-0.312962956,-0.265740783,1,0,0,5.0666,Andesite_rect,1,5.067,0,1,0,1,0,1,,,,,,,,,,,,,
6345bfdce5f06f5b4ee98ea8,TCR,2024-06-11_13h33.02.963,LearnStrategy,2023.2.3,Win32,60.24096386,3,1,3,0.167592578,-0.01203703,1,0,0,1.8027,rock_grid_rect_2,3,08,-1,-1,1.803,0.131481524,-0.249074088,1,0,0,2.9954,Diorite_rect,3,2.995,1,2,0,2,0,1,,,,,,,,,,,,,
6345bfdce5f06f5b4ee98ea8,TCR,2024-06-11_13h33.02.963,LearnStrategy,2023.2.3,Win32,60.24096386,3,1,4,0.020370413,-0.002777771,1,0,0,1.3337,rock_grid_rect_2,6,09,-1,-1,1.334,-0.193518533,-0.420370384,1,0,0,3.6454,Pegmatite_rect,6,3.645,1,3,0,3,0,1,,,,,,,,,,,,,
6345bfdce5f06f5b4ee98ea8,TCR,2024-06-11_13h33.02.963,LearnStrategy,2023.2.3,Win32,60.24096386,3,1,5,0.037962949,-0.01203703,1,0,0,0.9103,rock_grid_rect_2,7,02,-1,-1,0.91,0.090740769,-0.393518519,1,0,0,2.1279,Peridotite_rect,7,2.128,1,4,0,4,0,1,,,,,,,,,,,,,
6345bfdce5f06f5b4ee98ea8,TCR,2024-06-11_13h33.02.963,LearnStrategy,2023.2.3,Win32,60.24096386,3,1,6,0.022222236,0.015740748,1,0,0,0.8541,rock_grid_rect_2,2,08,-1,-1,0.854,-0.062962921,-0.238888917,1,0,0,1.9189,Basalt_rect,2,1.919,1,5,0,5,0,1,,,,,,,,,,,,,
6345bfdce5f06f5b4ee98ea8,TCR,2024-06-11_13h33.02.963,LearnStrategy,2023.2.3,Win32,60.24096386,3,1,7,0.087037051,0.015740748,1,0,0,1.1878,rock_grid_rect_2,2,08,-1,-1,1.188,-0.087962963,-0.233333376,1,0,0,1.0141,Basalt_rect,2,1.014,1,6,0,6,0,1,,,,,,,,,,,,,
6345bfdce5f06f5b4ee98ea8,TCR,2024-06-11_13h33.02.963,LearnStrategy,2023.2.3,Win32,60.24096386,3,1,8,-0.046296296,0.010185171,1,0,0,0.6728,rock_grid_rect_2,4,14,-1,-1,0.673,-0.366666653,-0.241666653,1,0,0,3.3953,Andesite_rect,1,3.395,0,7,0,7,0,1,,,,,,,,,,,,,
6345bfdce5f06f5b4ee98ea8,TCR,2024-06-11_13h33.02.963,LearnStrategy,2023.2.3,Win32,60.24096386,3,1,9,0.077777792,-0.009259259,1,0,0,1.4588,rock_grid_rect_2,6,05,-1,-1,1.459,-0.298148155,-0.262962977,1,0,0,2.8959,Andesite_rect,1,2.896,0,8,0,8,0,1,,,,,,,,,,,,,
6345bfdce5f06f5b4ee98ea8,TCR,2024-06-11_13h33.02.963,LearnStrategy,2023.2.3,Win32,60.24096386,3,1,10,0.027777778,-0.0074074,1,0,0,1.3656,rock_grid_rect_2,1,04,-1,-1,1.366,0.393518519,-0.419444473,1,0,0,4.2146,Pumice_rect,8,4.215,0,9,0,9,0,1,,,,,,,,,,,,,
6345bfdce5f06f5b4ee98ea8,TCR,2024-06-11_13h33.02.963,LearnStrategy,2023.2.3,Win32,60.24096386,3,1,11,0.077777792,-0.018518519,1,0,0,1.3232,rock_grid_rect_2,6,15,-1,-1,1.323,-0.12037037,-0.407407407,1,0,0,5.5344,Pegmatite_rect,6,5.534,1,10,0,10,0,1,,,,,,,,,,,,,
6345bfdce5f06f5b4ee98ea8,TCR,2024-06-11_13h33.02.963,LearnStrategy,2023.2.3,Win32,60.24096386,3,1,12,0.016666695,-0.001851859,1,0,0,1.5621,rock_grid_rect_2,1,10,-1,-1,1.562,0.394444501,-0.407407407,1,0,0,1.7596,Pumice_rect,8,1.76,0,11,0,11,0,1,,,,,,,,,,,,,
6345bfdce5f06f5b4ee98ea8,TCR,2024-06-11_13h33.02.963,LearnStrategy,2023.2.3,Win32,60.24096386,3,1,13,-0.050925926,0,1,0,0,1.5969,rock_grid_rect_2,1,14,-1,-1,1.597,-0.371296282,-0.262962977,1,0,0,3.6485,Andesite_rect,1,3.649,1,12,0,12,0,1,,,,,,,,,,,,,
6345bfdce5f06f5b4ee98ea8,TCR,2024-06-11_13h33.02.963,LearnStrategy,2023.2.3,Win32,60.24096386,3,1,14,-0.027777778,-0.006481489,1,0,0,1.1171,rock_grid_rect_2,7,13,-1,-1,1.117,0.12962963,-0.384259259,1,0,0,1.9733,Peridotite_rect,7,1.973,1,13,0,13,0,1,,,,,,,,,,,,,
6345bfdce5f06f5b4ee98ea8,TCR,2024-06-11_13h33.02.963,LearnStrategy,2023.2.3,Win32,60.24096386,3,1,15,-0.021296254,0.006481489,1,0,0,1.3795,rock_grid_rect_2,4,08,-1,-1,1.38,-0.421296296,-0.25,1,0,0,4.1322,Andesite_rect,1,4.132,0,14,0,14,0,1,,,,,,,,,,,,,
6345bfdce5f06f5b4ee98ea8,TCR,2024-06-11_13h33.02.963,LearnStrategy,2023.2.3,Win32,60.24096386,3,1,16,0.075925968,-0.01203703,1,0,0,1.2587,rock_grid_rect_2,3,14,-1,-1,1.259,-0.099074046,-0.400000042,1,0,0,4.0136,Pegmatite_rect,6,4.014,0,15,0,15,0,1,,,,,,,,,,,,,
6345bfdce5f06f5b4ee98ea8,TCR,2024-06-11_13h33.02.963,LearnStrategy,2023.2.3,Win32,60.24096386,3,2,1,,,,,,,,2,02,,,,,,,,,,,4,2.669,0,,,,,,0.398148148,-0.244444459,1,0,0,2.6687,Gabbro_rect,0,0,0,0,1,
6345bfdce5f06f5b4ee98ea8,TCR,2024-06-11_13h33.02.963,LearnStrategy,2023.2.3,Win32,60.24096386,3,2,2,,,,,,,,8,10,,,,,,,,,,,1,8.721,0,,,,,,-0.324999986,-0.264814801,1,0,0,8.721,Andesite_rect,1,0,1,0,1,
6345bfdce5f06f5b4ee98ea8,TCR,2024-06-11_13h33.02.963,LearnStrategy,2023.2.3,Win32,60.24096386,3,2,3,,,,,,,,3,11,,,,,,,,,,,6,4.837,0,,,,,,-0.117592564,-0.40370369,1,0,0,4.8365,Pegmatite_rect,2,0,2,0,1,
6345bfdce5f06f5b4ee98ea8,TCR,2024-06-11_13h33.02.963,LearnStrategy,2023.2.3,Win32,60.24096386,3,2,4,,,,,,,,6,07,,,,,,,,,,,1,2.45,0,,,,,,-0.363888882,-0.249074088,1,0,0,2.4496,Andesite_rect,3,0,3,0,1,
6345bfdce5f06f5b4ee98ea8,TCR,2024-06-11_13h33.02.963,LearnStrategy,2023.2.3,Win32,60.24096386,3,2,5,,,,,,,,6,11,,,,,,,,,,,5,2.351,0,,,,,,-0.376851859,-0.396296325,1,0,0,2.3507,Obsidian_rect,4,0,4,0,1,
6345bfdce5f06f5b4ee98ea8,TCR,2024-06-11_13h33.02.963,LearnStrategy,2023.2.3,Win32,60.24096386,3,2,6,,,,,,,,7,07,,,,,,,,,,,7,3.003,1,,,,,,0.148148148,-0.407407407,1,0,0,3.0027,Peridotite_rect,5,0,5,0,1,
6345bfdce5f06f5b4ee98ea8,TCR,2024-06-11_13h33.02.963,LearnStrategy,2023.2.3,Win32,60.24096386,3,2,7,,,,,,,,4,05,,,,,,,,,,,4,3.812,1,,,,,,0.363888917,-0.261111153,1,0,0,3.8118,Gabbro_rect,6,0,6,0,1,
6345bfdce5f06f5b4ee98ea8,TCR,2024-06-11_13h33.02.963,LearnStrategy,2023.2.3,Win32,60.24096386,3,2,8,,,,,,,,5,08,,,,,,,,,,,5,1.886,1,,,,,,-0.40648146,-0.391666695,1,0,0,1.8865,Obsidian_rect,7,0,7,0,1,
6345bfdce5f06f5b4ee98ea8,TCR,2024-06-11_13h33.02.963,LearnStrategy,2023.2.3,Win32,60.24096386,3,2,9,,,,,,,,4,16,,,,,,,,,,,1,5.055,0,,,,,,-0.427777785,-0.250925912,1,0,0,5.0548,Andesite_rect,8,0,8,0,1,
6345bfdce5f06f5b4ee98ea8,TCR,2024-06-11_13h33.02.963,LearnStrategy,2023.2.3,Win32,60.24096386,3,2,10,,,,,,,,2,11,,,,,,,,,,,4,2.32,0,,,,,,0.374074159,-0.257407436,1,0,0,2.3198,Gabbro_rect,9,0,9,0,1,
6345bfdce5f06f5b4ee98ea8,TCR,2024-06-11_13h33.02.963,LearnStrategy,2023.2.3,Win32,60.24096386,3,2,11,,,,,,,,5,09,,,,,,,,,,,5,1.342,1,,,,,,-0.336111104,-0.401851866,1,0,0,1.3422,Obsidian_rect,10,0,10,0,1,
6345bfdce5f06f5b4ee98ea8,TCR,2024-06-11_13h33.02.963,LearnStrategy,2023.2.3,Win32,60.24096386,3,2,12,,,,,,,,1,03,,,,,,,,,,,4,3.156,0,,,,,,0.402777778,-0.252777806,1,0,0,3.1557,Gabbro_rect,11,0,11,0,1,
6345bfdce5f06f5b4ee98ea8,TCR,2024-06-11_13h33.02.963,LearnStrategy,2023.2.3,Win32,60.24096386,3,2,13,,,,,,,,1,09,,,,,,,,,,,1,1.618,1,,,,,,-0.35833334,-0.255555541,1,0,0,1.6184,Andesite_rect,12,0,12,0,1,
6345bfdce5f06f5b4ee98ea8,TCR,2024-06-11_13h33.02.963,LearnStrategy,2023.2.3,Win32,60.24096386,3,2,14,,,,,,,,7,15,,,,,,,,,,,7,1.593,1,,,,,,0.199999986,-0.396296325,1,0,0,1.5931,Peridotite_rect,13,0,13,0,1,
6345bfdce5f06f5b4ee98ea8,TCR,2024-06-11_13h33.02.963,LearnStrategy,2023.2.3,Win32,60.24096386,3,2,15,,,,,,,,3,09,,,,,,,,,,,6,1.417,0,,,,,,-0.10555557,-0.398148148,1,0,0,1.4173,Pegmatite_rect,14,0,14,0,1,
6345bfdce5f06f5b4ee98ea8,TCR,2024-06-11_13h33.02.963,LearnStrategy,2023.2.3,Win32,60.24096386,3,2,16,,,,,,,,8,14,,,,,,,,,,,8,1.278,1,,,,,,0.35555564,-0.378703718,1,0,0,1.2784,Pumice_rect,15,0,15,0,1,
6345bfdce5f06f5b4ee98ea8,TCR,2024-06-11_13h33.02.963,LearnStrategy,2023.2.3,Win32,60.24096386,4,1,1,0.036111125,-0.021296289,1,0,0,1.716,rock_grid_rect_2,1,06,-1,-1,1.716,0.339814787,-0.239814829,1,0,0,2.375,Gabbro_rect,4,2.375,0,0,0,0,0,1,,,,,,,,,,,,,
6345bfdce5f06f5b4ee98ea8,TCR,2024-06-11_13h33.02.963,LearnStrategy,2023.2.3,Win32,60.24096386,4,1,2,0.125925912,-0.003703718,1,0,0,1.5616,rock_grid_rect_2,1,14,-1,-1,1.562,-0.40370369,-0.243518547,1,0,0,1.8646,Andesite_rect,1,1.865,1,1,0,1,0,1,,,,,,,,,,,,,
6345bfdce5f06f5b4ee98ea8,TCR,2024-06-11_13h33.02.963,LearnStrategy,2023.2.3,Win32,60.24096386,4,1,3,0.000925912,0.003703683,1,0,0,1.1822,rock_grid_rect_2,6,06,-1,-1,1.182,-0.116666653,-0.396296325,1,0,0,3.8814,Pegmatite_rect,6,3.881,1,2,0,2,0,1,,,,,,,,,,,,,
6345bfdce5f06f5b4ee98ea8,TCR,2024-06-11_13h33.02.963,LearnStrategy,2023.2.3,Win32,60.24096386,4,1,4,0.031481496,-0.0074074,1,0,0,1.5353,rock_grid_rect_2,3,06,-1,-1,1.535,-0.091666681,-0.40370369,1,0,0,2.5632,Pegmatite_rect,6,2.563,0,3,0,3,0,1,,,,,,,,,,,,,
6345bfdce5f06f5b4ee98ea8,TCR,2024-06-11_13h33.02.963,LearnStrategy,2023.2.3,Win32,60.24096386,4,1,5,0.048148191,-0.014814836,1,0,0,1.1356,rock_grid_rect_2,8,02,-1,-1,1.136,0.401851937,-0.395370413,1,0,0,1.3535,Pumice_rect,8,1.353,1,4,0,4,0,1,,,,,,,,,,,,,
6345bfdce5f06f5b4ee98ea8,TCR,2024-06-11_13h33.02.963,LearnStrategy,2023.2.3,Win32,60.24096386,4,1,6,0.061111097,-0.003703718,1,0,0,0.9605,rock_grid_rect_2,3,13,-1,-1,0.96,-0.083333333,-0.404629672,1,0,0,2.9799,Pegmatite_rect,6,2.98,0,5,0,5,0,1,,,,,,,,,,,,,
6345bfdce5f06f5b4ee98ea8,TCR,2024-06-11_13h33.02.963,LearnStrategy,2023.2.3,Win32,60.24096386,4,1,7,0.035185213,0.000925912,1,0,0,3.3218,rock_grid_rect_2,7,02,-1,-1,3.322,0.143518519,-0.389814801,1,0,0,1.9322,Peridotite_rect,7,1.932,1,6,0,6,0,1,,,,,,,,,,,,,
6345bfdce5f06f5b4ee98ea8,TCR,2024-06-11_13h33.02.963,LearnStrategy,2023.2.3,Win32,60.24096386,4,1,8,-0.003703718,-0.009259259,1,0,0,1.6031,rock_grid_rect_2,4,09,-1,-1,1.603,-0.132407365,-0.247222265,1,0,0,2.2977,Basalt_rect,2,2.298,0,7,0,7,0,1,,,,,,,,,,,,,
6345bfdce5f06f5b4ee98ea8,TCR,2024-06-11_13h33.02.963,LearnStrategy,2023.2.3,Win32,60.24096386,4,1,9,0.071296339,-0.009259259,1,0,0,1.2014,rock_grid_rect_2,2,05,-1,-1,1.201,-0.102777764,-0.262037065,1,0,0,3.3795,Basalt_rect,2,3.38,1,8,0,8,0,1,,,,,,,,,,,,,
6345bfdce5f06f5b4ee98ea8,TCR,2024-06-11_13h33.02.963,LearnStrategy,2023.2.3,Win32,60.24096386,4,1,10,0.10092594,-0.024074095,1,0,0,1.2476,rock_grid_rect_2,4,01,-1,-1,1.248,0.453703704,-0.25,1,0,0,2.6201,Gabbro_rect,4,2.62,1,9,0,9,0,1,,,,,,,,,,,,,
6345bfdce5f06f5b4ee98ea8,TCR,2024-06-11_13h33.02.963,LearnStrategy,2023.2.3,Win32,60.24096386,4,1,11,0.106481481,0.021296289,1,0,0,1.1474,rock_grid_rect_2,6,05,-1,-1,1.147,-0.145370342,-0.409259302,1,0,0,1.8624,Pegmatite_rect,6,1.862,1,10,0,10,0,1,,,,,,,,,,,,,
6345bfdce5f06f5b4ee98ea8,TCR,2024-06-11_13h33.02.963,LearnStrategy,2023.2.3,Win32,60.24096386,4,1,12,0.051851838,0.021296289,1,0,0,0.9111,rock_grid_rect_2,6,06,-1,-1,0.911,-0.452777757,-0.249074088,1,0,0,11.6931,Andesite_rect,1,11.693,0,11,0,11,0,1,,,,,,,,,,,,,
6345bfdce5f06f5b4ee98ea8,TCR,2024-06-11_13h33.02.963,LearnStrategy,2023.2.3,Win32,60.24096386,4,1,13,0.086111139,-0.006481489,1,0,0,1.1724,rock_grid_rect_2,2,08,-1,-1,1.172,-0.10555557,-0.250925912,1,0,0,1.1917,Basalt_rect,2,1.192,1,12,0,12,0,1,,,,,,,,,,,,,
6345bfdce5f06f5b4ee98ea8,TCR,2024-06-11_13h33.02.963,LearnStrategy,2023.2.3,Win32,60.24096386,4,1,14,0.104629658,0.0074074,1,0,0,0.957,rock_grid_rect_2,2,09,-1,-1,0.957,0.333333333,-0.253703718,1,0,0,3.4782,Gabbro_rect,4,3.478,0,13,0,13,0,1,,,,,,,,,,,,,
6345bfdce5f06f5b4ee98ea8,TCR,2024-06-11_13h33.02.963,LearnStrategy,2023.2.3,Win32,60.24096386,4,1,15,0.082407422,-0.024074095,1,0,0,1.2849,rock_grid_rect_2,3,08,-1,-1,1.285,-0.136111083,-0.37962963,1,0,0,1.5173,Pegmatite_rect,6,1.517,0,14,0,14,0,1,,,,,,,,,,,,,
6345bfdce5f06f5b4ee98ea8,TCR,2024-06-11_13h33.02.963,LearnStrategy,2023.2.3,Win32,60.24096386,4,1,16,0.126851894,-0.01203703,1,0,0,0.623,rock_grid_rect_2,1,04,-1,-1,0.623,0.410185213,-0.255555541,1,0,0,2.8603,Gabbro_rect,4,2.86,0,15,0,15,0,1,,,,,,,,,,,,,
6345bfdce5f06f5b4ee98ea8,TCR,2024-06-11_13h33.02.963,LearnStrategy,2023.2.3,Win32,60.24096386,4,2,1,,,,,,,,8,13,,,,,,,,,,,6,2.893,0,,,,,,-0.080555527,-0.389814801,1,0,0,2.893,Pegmatite_rect,0,0,0,0,1,
6345bfdce5f06f5b4ee98ea8,TCR,2024-06-11_13h33.02.963,LearnStrategy,2023.2.3,Win32,60.24096386,4,2,2,,,,,,,,7,06,,,,,,,,,,,7,1.677,1,,,,,,0.118518547,-0.411111125,1,0,0,1.6769,Peridotite_rect,1,0,1,0,1,
6345bfdce5f06f5b4ee98ea8,TCR,2024-06-11_13h33.02.963,LearnStrategy,2023.2.3,Win32,60.24096386,4,2,3,,,,,,,,5,04,,,,,,,,,,,5,1.35,1,,,,,,-0.38703703,-0.420370384,1,0,0,1.3502,Obsidian_rect,2,0,2,0,1,
6345bfdce5f06f5b4ee98ea8,TCR,2024-06-11_13h33.02.963,LearnStrategy,2023.2.3,Win32,60.24096386,4,2,4,,,,,,,,4,03,,,,,,,,,,,1,3.235,0,,,,,,-0.373148141,-0.249074088,1,0,0,3.2354,Andesite_rect,3,0,3,0,1,
6345bfdce5f06f5b4ee98ea8,TCR,2024-06-11_13h33.02.963,LearnStrategy,2023.2.3,Win32,60.24096386,4,2,5,,,,,,,,3,11,,,,,,,,,,,6,5.803,0,,,,,,-0.117592564,-0.414814843,1,0,0,5.8026,Pegmatite_rect,4,0,4,0,1,
6345bfdce5f06f5b4ee98ea8,TCR,2024-06-11_13h33.02.963,LearnStrategy,2023.2.3,Win32,60.24096386,4,2,6,,,,,,,,1,03,,,,,,,,,,,4,2.648,0,,,,,,0.398148148,-0.24537037,1,0,0,2.6476,Gabbro_rect,5,0,5,0,1,
6345bfdce5f06f5b4ee98ea8,TCR,2024-06-11_13h33.02.963,LearnStrategy,2023.2.3,Win32,60.24096386,4,2,7,,,,,,,,1,07,,,,,,,,,,,3,3.14,0,,,,,,0.075925968,-0.262962977,1,0,0,3.1404,Diorite_rect,6,0,6,0,1,
6345bfdce5f06f5b4ee98ea8,TCR,2024-06-11_13h33.02.963,LearnStrategy,2023.2.3,Win32,60.24096386,4,2,8,,,,,,,,2,04,,,,,,,,,,,2,1.105,1,,,,,,-0.115740741,-0.264814801,1,0,0,1.1051,Basalt_rect,7,0,7,0,1,
6345bfdce5f06f5b4ee98ea8,TCR,2024-06-11_13h33.02.963,LearnStrategy,2023.2.3,Win32,60.24096386,4,2,9,,,,,,,,4,05,,,,,,,,,,,1,6.693,0,,,,,,-0.384259259,-0.25,1,0,0,6.693,Andesite_rect,8,0,8,0,1,
6345bfdce5f06f5b4ee98ea8,TCR,2024-06-11_13h33.02.963,LearnStrategy,2023.2.3,Win32,60.24096386,4,2,10,,,,,,,,6,08,,,,,,,,,,,6,2.513,1,,,,,,-0.145370342,-0.390740783,1,0,0,2.5125,Pegmatite_rect,9,0,9,0,1,
6345bfdce5f06f5b4ee98ea8,TCR,2024-06-11_13h33.02.963,LearnStrategy,2023.2.3,Win32,60.24096386,4,2,11,,,,,,,,3,09,,,,,,,,,,,3,3.2,1,,,,,,0.122222265,-0.24537037,1,0,0,3.2,Diorite_rect,10,0,10,0,1,
6345bfdce5f06f5b4ee98ea8,TCR,2024-06-11_13h33.02.963,LearnStrategy,2023.2.3,Win32,60.24096386,4,2,12,,,,,,,,2,12,,,,,,,,,,,4,5.869,0,,,,,,0.375,-0.253703718,1,0,0,5.869,Gabbro_rect,11,0,11,0,1,
6345bfdce5f06f5b4ee98ea8,TCR,2024-06-11_13h33.02.963,LearnStrategy,2023.2.3,Win32,60.24096386,4,2,13,,,,,,,,5,07,,,,,,,,,,,5,3.048,1,,,,,,-0.396296289,-0.413888931,1,0,0,3.0481,Obsidian_rect,12,0,12,0,1,
6345bfdce5f06f5b4ee98ea8,TCR,2024-06-11_13h33.02.963,LearnStrategy,2023.2.3,Win32,60.24096386,4,2,14,,,,,,,,7,07,,,,,,,,,,,7,3.082,1,,,,,,0.140740783,-0.410185213,1,0,0,3.0825,Peridotite_rect,13,0,13,0,1,
6345bfdce5f06f5b4ee98ea8,TCR,2024-06-11_13h33.02.963,LearnStrategy,2023.2.3,Win32,60.24096386,4,2,15,,,,,,,,6,11,,,,,,,,,,,6,3.063,1,,,,,,-0.12962963,-0.37962963,1,0,0,3.0634,Pegmatite_rect,14,0,14,0,1,
6345bfdce5f06f5b4ee98ea8,TCR,2024-06-11_13h33.02.963,LearnStrategy,2023.2.3,Win32,60.24096386,4,2,16,,,,,,,,8,10,,,,,,,,,,,3,3.099,0,,,,,,0.12037037,-0.250925912,1,0,0,3.0993,Diorite_rect,15,0,15,0,1,
6345bfdce5f06f5b4ee98ea8,TCR,2024-06-11_13h33.02.963,LearnStrategy,2023.2.3,Win32,60.24096386,5,1,1,-0.030555513,-0.01203703,1,0,0,3.8666,rock_grid_rect_2,2,05,-1,-1,3.867,-0.04814812,-0.249074088,1,0,0,1.6259,Basalt_rect,2,1.626,1,0,0,0,0,1,,,,,,,,,,,,,
6345bfdce5f06f5b4ee98ea8,TCR,2024-06-11_13h33.02.963,LearnStrategy,2023.2.3,Win32,60.24096386,5,1,2,-0.094444416,0.003703683,1,0,0,1.2037,rock_grid_rect_2,1,01,-1,-1,1.204,0.090740769,-0.250925912,1,0,0,2.0173,Diorite_rect,3,2.017,0,1,0,1,0,1,,,,,,,,,,,,,
6345bfdce5f06f5b4ee98ea8,TCR,2024-06-11_13h33.02.963,LearnStrategy,2023.2.3,Win32,60.24096386,5,1,3,-0.10092594,-0.023148148,1,0,0,1.0338,rock_grid_rect_2,8,08,-1,-1,1.034,0.35555564,-0.413888931,1,0,0,2.7225,Pumice_rect,8,2.723,1,2,0,2,0,1,,,,,,,,,,,,,
6345bfdce5f06f5b4ee98ea8,TCR,2024-06-11_13h33.02.963,LearnStrategy,2023.2.3,Win32,60.24096386,5,1,4,0.039814843,-0.009259259,1,0,0,1.4694,rock_grid_rect_2,6,06,-1,-1,1.469,-0.12037037,-0.40370369,1,0,0,5.9906,Pegmatite_rect,6,5.991,1,3,0,3,0,1,,,,,,,,,,,,,
6345bfdce5f06f5b4ee98ea8,TCR,2024-06-11_13h33.02.963,LearnStrategy,2023.2.3,Win32,60.24096386,5,1,5,0.060185185,0.000925912,1,0,0,1.3719,rock_grid_rect_2,6,05,-1,-1,1.372,0.111111111,-0.242592635,1,0,0,2.7303,Diorite_rect,3,2.73,0,4,0,4,0,1,,,,,,,,,,,,,
6345bfdce5f06f5b4ee98ea8,TCR,2024-06-11_13h33.02.963,LearnStrategy,2023.2.3,Win32,60.24096386,5,1,6,0.106481481,-0.014814836,1,0,0,0.8083,rock_grid_rect_2,8,15,-1,-1,0.808,-0.375925912,-0.262962977,1,0,0,2.0989,Andesite_rect,1,2.099,0,5,0,5,0,1,,,,,,,,,,,,,
6345bfdce5f06f5b4ee98ea8,TCR,2024-06-11_13h33.02.963,LearnStrategy,2023.2.3,Win32,60.24096386,5,1,7,-0.034259231,-0.0074074,1,0,0,0.8307,rock_grid_rect_2,1,06,-1,-1,0.831,0.365740741,-0.242592635,1,0,0,2.0428,Gabbro_rect,4,2.043,0,6,0,6,0,1,,,,,,,,,,,,,
6345bfdce5f06f5b4ee98ea8,TCR,2024-06-11_13h33.02.963,LearnStrategy,2023.2.3,Win32,60.24096386,5,1,8,0.010185171,0.001851859,1,0,0,1.0075,rock_grid_rect_2,3,08,-1,-1,1.007,-0.084259245,-0.405555584,1,0,0,2.2403,Pegmatite_rect,6,2.24,0,7,0,7,0,1,,,,,,,,,,,,,
6345bfdce5f06f5b4ee98ea8,TCR,2024-06-11_13h33.02.963,LearnStrategy,2023.2.3,Win32,60.24096386,5,1,9,-0.00462963,0.000925912,1,0,0,1.0981,rock_grid_rect_2,1,02,-1,-1,1.098,0.350000028,-0.236111111,1,0,0,4.9768,Gabbro_rect,4,4.977,0,8,0,8,0,1,,,,,,,,,,,,,
6345bfdce5f06f5b4ee98ea8,TCR,2024-06-11_13h33.02.963,LearnStrategy,2023.2.3,Win32,60.24096386,5,1,10,0.137962977,0.01203703,1,0,0,1.0392,rock_grid_rect_2,7,04,-1,-1,1.039,0.170370384,-0.382407436,1,0,0,3.3346,Peridotite_rect,7,3.335,1,9,0,9,0,1,,,,,,,,,,,,,
6345bfdce5f06f5b4ee98ea8,TCR,2024-06-11_13h33.02.963,LearnStrategy,2023.2.3,Win32,60.24096386,5,1,11,0.064814815,-0.012962977,1,0,0,1.4385,rock_grid_rect_2,2,01,-1,-1,1.439,-0.170370384,-0.252777806,1,0,0,1.3907,Basalt_rect,2,1.391,1,10,0,10,0,1,,,,,,,,,,,,,
6345bfdce5f06f5b4ee98ea8,TCR,2024-06-11_13h33.02.963,LearnStrategy,2023.2.3,Win32,60.24096386,5,1,12,-0.001851824,-0.006481489,1,0,0,1.2822,rock_grid_rect_2,4,01,-1,-1,1.282,-0.376851859,-0.237963005,1,0,0,4.6299,Andesite_rect,1,4.63,0,11,0,11,0,1,,,,,,,,,,,,,
6345bfdce5f06f5b4ee98ea8,TCR,2024-06-11_13h33.02.963,LearnStrategy,2023.2.3,Win32,60.24096386,5,1,13,0.000925912,-0.005555577,1,0,0,1.2735,rock_grid_rect_2,3,06,-1,-1,1.274,0.090740769,-0.264814801,1,0,0,6.8253,Diorite_rect,3,6.825,1,12,0,12,0,1,,,,,,,,,,,,,
6345bfdce5f06f5b4ee98ea8,TCR,2024-06-11_13h33.02.963,LearnStrategy,2023.2.3,Win32,60.24096386,5,1,14,0.078703704,-0.009259259,1,0,0,1.0624,rock_grid_rect_2,4,01,-1,-1,1.062,0.401851937,-0.251851894,1,0,0,3.6489,Gabbro_rect,4,3.649,1,13,0,13,0,1,,,,,,,,,,,,,
6345bfdce5f06f5b4ee98ea8,TCR,2024-06-11_13h33.02.963,LearnStrategy,2023.2.3,Win32,60.24096386,5,1,15,0.082407422,-0.017592607,1,0,0,0.8007,rock_grid_rect_2,4,09,-1,-1,0.801,-0.336111104,-0.250925912,1,0,0,5.2725,Andesite_rect,1,5.273,0,14,0,14,0,1,,,,,,,,,,,,,
6345bfdce5f06f5b4ee98ea8,TCR,2024-06-11_13h33.02.963,LearnStrategy,2023.2.3,Win32,60.24096386,5,1,16,0.067592621,0.003703683,1,0,0,1.0702,rock_grid_rect_2,1,01,-1,-1,1.07,-0.091666681,-0.386111153,1,0,0,3.5361,Pegmatite_rect,6,3.536,0,15,0,15,0,1,,,,,,,,,,,,,
6345bfdce5f06f5b4ee98ea8,TCR,2024-06-11_13h33.02.963,LearnStrategy,2023.2.3,Win32,60.24096386,5,2,1,,,,,,,,8,03,,,,,,,,,,,8,1.801,1,,,,,,0.373148176,-0.383333347,1,0,0,1.8012,Pumice_rect,0,0,0,0,1,
6345bfdce5f06f5b4ee98ea8,TCR,2024-06-11_13h33.02.963,LearnStrategy,2023.2.3,Win32,60.24096386,5,2,2,,,,,,,,2,06,,,,,,,,,,,2,1.26,1,,,,,,-0.161111125,-0.248148176,1,0,0,1.2605,Basalt_rect,1,0,1,0,1,
6345bfdce5f06f5b4ee98ea8,TCR,2024-06-11_13h33.02.963,LearnStrategy,2023.2.3,Win32,60.24096386,5,2,3,,,,,,,,4,15,,,,,,,,,,,1,6.505,0,,,,,,-0.38703703,-0.228703746,1,0,0,6.505,Andesite_rect,2,0,2,0,1,
6345bfdce5f06f5b4ee98ea8,TCR,2024-06-11_13h33.02.963,LearnStrategy,2023.2.3,Win32,60.24096386,5,2,4,,,,,,,,6,12,,,,,,,,,,,3,2.803,0,,,,,,0.148148148,-0.255555541,1,0,0,2.8028,Diorite_rect,3,0,3,0,1,
6345bfdce5f06f5b4ee98ea8,TCR,2024-06-11_13h33.02.963,LearnStrategy,2023.2.3,Win32,60.24096386,5,2,5,,,,,,,,3,12,,,,,,,,,,,6,2.555,0,,,,,,-0.10092594,-0.406481496,1,0,0,2.5551,Pegmatite_rect,4,0,4,0,1,
6345bfdce5f06f5b4ee98ea8,TCR,2024-06-11_13h33.02.963,LearnStrategy,2023.2.3,Win32,60.24096386,5,2,6,,,,,,,,7,14,,,,,,,,,,,7,1.515,1,,,,,,0.14444443,-0.409259302,1,0,0,1.5154,Peridotite_rect,5,0,5,0,1,
6345bfdce5f06f5b4ee98ea8,TCR,2024-06-11_13h33.02.963,LearnStrategy,2023.2.3,Win32,60.24096386,5,2,7,,,,,,,,5,09,,,,,,,,,,,5,1.497,1,,,,,,-0.377777771,-0.408333319,1,0,0,1.4973,Obsidian_rect,6,0,6,0,1,
6345bfdce5f06f5b4ee98ea8,TCR,2024-06-11_13h33.02.963,LearnStrategy,2023.2.3,Win32,60.24096386,5,2,8,,,,,,,,2,02,,,,,,,,,,,2,1.016,1,,,,,,-0.154629601,-0.247222265,1,0,0,1.0161,Basalt_rect,7,0,7,0,1,
6345bfdce5f06f5b4ee98ea8,TCR,2024-06-11_13h33.02.963,LearnStrategy,2023.2.3,Win32,60.24096386,5,2,9,,,,,,,,5,16,,,,,,,,,,,5,1.015,1,,,,,,-0.337962963,-0.37962963,1,0,0,1.0149,Obsidian_rect,8,0,8,0,1,
6345bfdce5f06f5b4ee98ea8,TCR,2024-06-11_13h33.02.963,LearnStrategy,2023.2.3,Win32,60.24096386,5,2,10,,,,,,,,7,15,,,,,,,,,,,7,1.392,1,,,,,,0.112963005,-0.381481524,1,0,0,1.392,Peridotite_rect,9,0,9,0,1,
6345bfdce5f06f5b4ee98ea8,TCR,2024-06-11_13h33.02.963,LearnStrategy,2023.2.3,Win32,60.24096386,5,2,11,,,,,,,,3,02,,,,,,,,,,,3,2.442,1,,,,,,0.102777764,-0.265740783,1,0,0,2.4418,Diorite_rect,10,0,10,0,1,
6345bfdce5f06f5b4ee98ea8,TCR,2024-06-11_13h33.02.963,LearnStrategy,2023.2.3,Win32,60.24096386,5,2,12,,,,,,,,8,09,,,,,,,,,,,8,1.224,1,,,,,,0.428703732,-0.414814843,1,0,0,1.2242,Pumice_rect,11,0,11,0,1,
6345bfdce5f06f5b4ee98ea8,TCR,2024-06-11_13h33.02.963,LearnStrategy,2023.2.3,Win32,60.24096386,5,2,13,,,,,,,,4,16,,,,,,,,,,,4,2.158,1,,,,,,0.374074159,-0.258333347,1,0,0,2.158,Gabbro_rect,12,0,12,0,1,
6345bfdce5f06f5b4ee98ea8,TCR,2024-06-11_13h33.02.963,LearnStrategy,2023.2.3,Win32,60.24096386,5,2,14,,,,,,,,1,16,,,,,,,,,,,4,1.302,0,,,,,,0.488888917,-0.256481524,1,0,0,1.3022,Gabbro_rect,13,0,13,0,1,
6345bfdce5f06f5b4ee98ea8,TCR,2024-06-11_13h33.02.963,LearnStrategy,2023.2.3,Win32,60.24096386,5,2,15,,,,,,,,6,07,,,,,,,,,,,3,2.768,0,,,,,,0.142592607,-0.263888889,1,0,0,2.768,Diorite_rect,14,0,14,0,1,
6345bfdce5f06f5b4ee98ea8,TCR,2024-06-11_13h33.02.963,LearnStrategy,2023.2.3,Win32,60.24096386,5,2,16,,,,,,,,1,09,,,,,,,,,,,1,1.656,1,,,,,,-0.342592593,-0.265740783,1,0,0,1.6557,Andesite_rect,15,0,15,0,1,
6345bfdce5f06f5b4ee98ea8,TCR,2024-06-11_13h33.02.963,LearnStrategy,2023.2.3,Win32,60.24096386,6,1,1,0.049074102,-0.008333347,1,0,0,1.9607,rock_grid_rect_2,1,01,-1,-1,1.961,-0.09629631,-0.409259302,1,0,0,2.0844,Pegmatite_rect,6,2.084,0,0,0,0,0,1,,,,,,,,,,,,,
6345bfdce5f06f5b4ee98ea8,TCR,2024-06-11_13h33.02.963,LearnStrategy,2023.2.3,Win32,60.24096386,6,1,2,0.112963005,-0.017592607,1,0,0,1.3314,rock_grid_rect_2,3,06,-1,-1,1.331,-0.073148162,-0.412037037,1,0,0,3.5484,Pegmatite_rect,6,3.548,0,1,0,1,0,1,,,,,,,,,,,,,
6345bfdce5f06f5b4ee98ea8,TCR,2024-06-11_13h33.02.963,LearnStrategy,2023.2.3,Win32,60.24096386,6,1,3,0.09629631,-0.019444466,1,0,0,0.7174,rock_grid_rect_2,6,09,-1,-1,0.717,0.18240745,-0.410185213,1,0,0,0.9717,Peridotite_rect,7,0.972,0,2,0,2,0,1,,,,,,,,,,,,,
6345bfdce5f06f5b4ee98ea8,TCR,2024-06-11_13h33.02.963,LearnStrategy,2023.2.3,Win32,60.24096386,6,1,4,0.040740755,0.00462963,1,0,0,0.7097,rock_grid_rect_2,8,08,-1,-1,0.71,0.348148205,-0.39907406,1,0,0,1.1969,Pumice_rect,8,1.197,1,3,0,3,0,1,,,,,,,,,,,,,
6345bfdce5f06f5b4ee98ea8,TCR,2024-06-11_13h33.02.963,LearnStrategy,2023.2.3,Win32,60.24096386,6,1,5,0.158333319,0.015740748,1,0,0,0.6682,rock_grid_rect_2,1,02,-1,-1,0.668,-0.212037051,-0.397222236,1,0,0,1.3748,Pegmatite_rect,6,1.375,0,4,0,4,0,1,,,,,,,,,,,,,
6345bfdce5f06f5b4ee98ea8,TCR,2024-06-11_13h33.02.963,LearnStrategy,2023.2.3,Win32,60.24096386,6,1,6,-0.046296296,0.006481489,1,0,0,0.8277,rock_grid_rect_2,2,14,-1,-1,0.828,0.40833339,-0.235185199,1,0,0,2.2777,Gabbro_rect,4,2.278,0,5,0,5,0,1,,,,,,,,,,,,,
6345bfdce5f06f5b4ee98ea8,TCR,2024-06-11_13h33.02.963,LearnStrategy,2023.2.3,Win32,60.24096386,6,1,7,0.094444487,-0.000925947,1,0,0,1.0286,rock_grid_rect_2,4,12,-1,-1,1.029,0.339814787,-0.237037023,1,0,0,2.2578,Gabbro_rect,4,2.258,1,6,0,6,0,1,,,,,,,,,,,,,
6345bfdce5f06f5b4ee98ea8,TCR,2024-06-11_13h33.02.963,LearnStrategy,2023.2.3,Win32,60.24096386,6,1,8,0.148148148,0.001851859,1,0,0,1.009,rock_grid_rect_2,4,12,-1,-1,1.009,-0.368518511,-0.25,1,0,0,1.5918,Andesite_rect,1,1.592,0,7,0,7,0,1,,,,,,,,,,,,,
6345bfdce5f06f5b4ee98ea8,TCR,2024-06-11_13h33.02.963,LearnStrategy,2023.2.3,Win32,60.24096386,6,1,9,-0.049074032,-0.002777771,1,0,0,0.5438,rock_grid_rect_2,3,07,-1,-1,0.544,0.10555557,-0.258333347,1,0,0,1.5103,Diorite_rect,3,1.51,1,8,0,8,0,1,,,,,,,,,,,,,
6345bfdce5f06f5b4ee98ea8,TCR,2024-06-11_13h33.02.963,LearnStrategy,2023.2.3,Win32,60.24096386,6,1,10,0.067592621,0.01203703,1,0,0,0.8725,rock_grid_rect_2,4,09,-1,-1,0.872,-0.172222208,-0.261111153,1,0,0,3.2871,Basalt_rect,2,3.287,0,9,0,9,0,1,,,,,,,,,,,,,
6345bfdce5f06f5b4ee98ea8,TCR,2024-06-11_13h33.02.963,LearnStrategy,2023.2.3,Win32,60.24096386,6,1,11,0.142592607,0.002777771,1,0,0,0.5896,rock_grid_rect_2,7,04,-1,-1,0.59,0.117592635,-0.395370413,1,0,0,1.0281,Peridotite_rect,7,1.028,1,10,0,10,0,1,,,,,,,,,,,,,
6345bfdce5f06f5b4ee98ea8,TCR,2024-06-11_13h33.02.963,LearnStrategy,2023.2.3,Win32,60.24096386,6,1,12,0.073148162,0.015740748,1,0,0,0.6174,rock_grid_rect_2,2,01,-1,-1,0.617,-0.092592593,-0.244444459,1,0,0,0.9399,Basalt_rect,2,0.94,1,11,0,11,0,1,,,,,,,,,,,,,
6345bfdce5f06f5b4ee98ea8,TCR,2024-06-11_13h33.02.963,LearnStrategy,2023.2.3,Win32,60.24096386,6,1,13,0.082407422,-0.010185206,1,0,0,0.6955,rock_grid_rect_2,3,10,-1,-1,0.695,-0.308333326,-0.256481524,1,0,0,4.9569,Andesite_rect,1,4.957,0,12,0,12,0,1,,,,,,,,,,,,,
6345bfdce5f06f5b4ee98ea8,TCR,2024-06-11_13h33.02.963,LearnStrategy,2023.2.3,Win32,60.24096386,6,1,14,0.145370413,-0.021296289,1,0,0,0.9486,rock_grid_rect_2,6,05,-1,-1,0.949,0.099074116,-0.255555541,1,0,0,5.9293,Diorite_rect,3,5.929,0,13,0,13,0,1,,,,,,,,,,,,,
6345bfdce5f06f5b4ee98ea8,TCR,2024-06-11_13h33.02.963,LearnStrategy,2023.2.3,Win32,60.24096386,6,1,15,0.097222222,-0.014814836,1,0,0,1.193,rock_grid_rect_2,6,15,-1,-1,1.193,0.10092594,-0.247222265,1,0,0,3.7602,Diorite_rect,3,3.76,0,14,0,14,0,1,,,,,,,,,,,,,
6345bfdce5f06f5b4ee98ea8,TCR,2024-06-11_13h33.02.963,LearnStrategy,2023.2.3,Win32,60.24096386,6,1,16,0.10092594,0.003703683,1,0,0,1.1663,rock_grid_rect_2,1,04,-1,-1,1.166,0.45185188,-0.400000042,1,0,0,1.6264,Pumice_rect,8,1.626,0,15,0,15,0,1,,,,,,,,,,,,,
6345bfdce5f06f5b4ee98ea8,TCR,2024-06-11_13h33.02.963,LearnStrategy,2023.2.3,Win32,60.24096386,6,2,1,,,,,,,,3,15,,,,,,,,,,,4,4.082,0,,,,,,0.345370399,-0.265740783,1,0,0,4.0824,Gabbro_rect,0,0,0,0,1,
6345bfdce5f06f5b4ee98ea8,TCR,2024-06-11_13h33.02.963,LearnStrategy,2023.2.3,Win32,60.24096386,6,2,2,,,,,,,,1,05,,,,,,,,,,,1,1.907,1,,,,,,-0.324074074,-0.253703718,1,0,0,1.9069,Andesite_rect,1,0,1,0,1,
6345bfdce5f06f5b4ee98ea8,TCR,2024-06-11_13h33.02.963,LearnStrategy,2023.2.3,Win32,60.24096386,6,2,3,,,,,,,,1,11,,,,,,,,,,,4,1.378,0,,,,,,0.316666638,-0.252777806,1,0,0,1.378,Gabbro_rect,2,0,2,0,1,
6345bfdce5f06f5b4ee98ea8,TCR,2024-06-11_13h33.02.963,LearnStrategy,2023.2.3,Win32,60.24096386,6,2,4,,,,,,,,4,10,,,,,,,,,,,1,4.379,0,,,,,,-0.37037037,-0.265740783,1,0,0,4.3793,Andesite_rect,3,0,3,0,1,
6345bfdce5f06f5b4ee98ea8,TCR,2024-06-11_13h33.02.963,LearnStrategy,2023.2.3,Win32,60.24096386,6,2,5,,,,,,,,2,16,,,,,,,,,,,4,3.06,0,,,,,,0.345370399,-0.262962977,1,0,0,3.0595,Gabbro_rect,4,0,4,0,1,
6345bfdce5f06f5b4ee98ea8,TCR,2024-06-11_13h33.02.963,LearnStrategy,2023.2.3,Win32,60.24096386,6,2,6,,,,,,,,7,12,,,,,,,,,,,7,1.563,1,,,,,,0.146296325,-0.390740783,1,0,0,1.5631,Peridotite_rect,5,0,5,0,1,
6345bfdce5f06f5b4ee98ea8,TCR,2024-06-11_13h33.02.963,LearnStrategy,2023.2.3,Win32,60.24096386,6,2,7,,,,,,,,8,14,,,,,,,,,,,8,1.01,1,,,,,,0.387037065,-0.388888889,1,0,0,1.0099,Pumice_rect,6,0,6,0,1,
6345bfdce5f06f5b4ee98ea8,TCR,2024-06-11_13h33.02.963,LearnStrategy,2023.2.3,Win32,60.24096386,6,2,8,,,,,,,,6,13,,,,,,,,,,,3,2.929,0,,,,,,0.103703746,-0.260185171,1,0,0,2.9289,Diorite_rect,7,0,7,0,1,
6345bfdce5f06f5b4ee98ea8,TCR,2024-06-11_13h33.02.963,LearnStrategy,2023.2.3,Win32,60.24096386,6,2,9,,,,,,,,2,11,,,,,,,,,,,4,1.474,0,,,,,,0.335185157,-0.251851894,1,0,0,1.4737,Gabbro_rect,8,0,8,0,1,
6345bfdce5f06f5b4ee98ea8,TCR,2024-06-11_13h33.02.963,LearnStrategy,2023.2.3,Win32,60.24096386,6,2,10,,,,,,,,5,14,,,,,,,,,,,5,2.311,1,,,,,,-0.375,-0.412962949,1,0,0,2.3108,Obsidian_rect,9,0,9,0,1,
6345bfdce5f06f5b4ee98ea8,TCR,2024-06-11_13h33.02.963,LearnStrategy,2023.2.3,Win32,60.24096386,6,2,11,,,,,,,,7,05,,,,,,,,,,,7,1.174,1,,,,,,0.123148176,-0.398148148,1,0,0,1.1742,Peridotite_rect,10,0,10,0,1,
6345bfdce5f06f5b4ee98ea8,TCR,2024-06-11_13h33.02.963,LearnStrategy,2023.2.3,Win32,60.24096386,6,2,12,,,,,,,,3,16,,,,,,,,,,,3,2.102,1,,,,,,0.085185228,-0.270370413,1,0,0,2.1018,Diorite_rect,11,0,11,0,1,
6345bfdce5f06f5b4ee98ea8,TCR,2024-06-11_13h33.02.963,LearnStrategy,2023.2.3,Win32,60.24096386,6,2,13,,,,,,,,6,10,,,,,,,,,,,7,1.185,0,,,,,,0.132407436,-0.393518519,1,0,0,1.1848,Peridotite_rect,12,0,12,0,1,
6345bfdce5f06f5b4ee98ea8,TCR,2024-06-11_13h33.02.963,LearnStrategy,2023.2.3,Win32,60.24096386,6,2,14,,,,,,,,4,13,,,,,,,,,,,2,4.567,0,,,,,,-0.061111097,-0.238888917,1,0,0,4.5666,Basalt_rect,13,0,13,0,1,
6345bfdce5f06f5b4ee98ea8,TCR,2024-06-11_13h33.02.963,LearnStrategy,2023.2.3,Win32,60.24096386,6,2,15,,,,,,,,5,08,,,,,,,,,,,5,1.298,1,,,,,,-0.474999993,-0.407407407,1,0,0,1.2977,Obsidian_rect,14,0,14,0,1,
6345bfdce5f06f5b4ee98ea8,TCR,2024-06-11_13h33.02.963,LearnStrategy,2023.2.3,Win32,60.24096386,6,2,16,,,,,,,,8,06,,,,,,,,,,,8,1.389,1,,,,,,0.464814787,-0.405555584,1,0,0,1.3895,Pumice_rect,15,0,15,0,1,
6345bfdce5f06f5b4ee98ea8,TCR,2024-06-11_13h33.02.963,LearnStrategy,2023.2.3,Win32,60.24096386,7,1,1,0.069444444,-0.009259259,1,0,0,2.0466,rock_grid_rect_2,6,03,-1,-1,2.047,0.108333376,-0.400000042,1,0,0,1.1568,Peridotite_rect,7,1.157,0,0,0,0,0,1,,,,,,,,,,,,,
6345bfdce5f06f5b4ee98ea8,TCR,2024-06-11_13h33.02.963,LearnStrategy,2023.2.3,Win32,60.24096386,7,1,2,0.012037065,0.000925912,1,0,0,0.8597,rock_grid_rect_2,1,06,-1,-1,0.86,-0.387962942,-0.266666695,1,0,0,2.2773,Andesite_rect,1,2.277,1,1,0,1,0,1,,,,,,,,,,,,,
6345bfdce5f06f5b4ee98ea8,TCR,2024-06-11_13h33.02.963,LearnStrategy,2023.2.3,Win32,60.24096386,7,1,3,0.060185185,-0.01666666,1,0,0,1.2517,rock_grid_rect_2,2,08,-1,-1,1.252,-0.171296296,-0.247222265,1,0,0,1.2075,Basalt_rect,2,1.208,1,2,0,2,0,1,,,,,,,,,,,,,
6345bfdce5f06f5b4ee98ea8,TCR,2024-06-11_13h33.02.963,LearnStrategy,2023.2.3,Win32,60.24096386,7,1,4,-0.007407365,-0.01203703,1,0,0,1.2108,rock_grid_rect_2,6,16,-1,-1,1.211,0.139814801,-0.252777806,1,0,0,2.474,Diorite_rect,3,2.474,0,3,0,3,0,1,,,,,,,,,,,,,
6345bfdce5f06f5b4ee98ea8,TCR,2024-06-11_13h33.02.963,LearnStrategy,2023.2.3,Win32,60.24096386,7,1,5,0.045370384,-0.006481489,1,0,0,1.0886,rock_grid_rect_2,3,14,-1,-1,1.089,0.134259259,-0.240740741,1,0,0,1.7325,Diorite_rect,3,1.732,1,4,0,4,0,1,,,,,,,,,,,,,
6345bfdce5f06f5b4ee98ea8,TCR,2024-06-11_13h33.02.963,LearnStrategy,2023.2.3,Win32,60.24096386,7,1,6,0.074074074,-0.021296289,1,0,0,0.7832,rock_grid_rect_2,7,08,-1,-1,0.783,0.085185228,-0.386111153,1,0,0,1.2285,Peridotite_rect,7,1.228,1,5,0,5,0,1,,,,,,,,,,,,,
6345bfdce5f06f5b4ee98ea8,TCR,2024-06-11_13h33.02.963,LearnStrategy,2023.2.3,Win32,60.24096386,7,1,7,0.10092594,0.001851859,1,0,0,1.1343,rock_grid_rect_2,1,14,-1,-1,1.134,-0.035185143,-0.393518519,1,0,0,2.2357,Pegmatite_rect,6,2.236,0,6,0,6,0,1,,,,,,,,,,,,,
6345bfdce5f06f5b4ee98ea8,TCR,2024-06-11_13h33.02.963,LearnStrategy,2023.2.3,Win32,60.24096386,7,1,8,0.07222225,-0.002777771,1,0,0,0.992,rock_grid_rect_2,8,15,-1,-1,0.992,0.414814843,-0.401851866,1,0,0,1.5986,Pumice_rect,8,1.599,1,7,0,7,0,1,,,,,,,,,,,,,
6345bfdce5f06f5b4ee98ea8,TCR,2024-06-11_13h33.02.963,LearnStrategy,2023.2.3,Win32,60.24096386,7,1,9,0.074999986,-0.010185206,1,0,0,1.4131,rock_grid_rect_2,4,12,-1,-1,1.413,0.386111083,-0.255555541,1,0,0,1.7663,Gabbro_rect,4,1.766,1,8,0,8,0,1,,,,,,,,,,,,,
6345bfdce5f06f5b4ee98ea8,TCR,2024-06-11_13h33.02.963,LearnStrategy,2023.2.3,Win32,60.24096386,7,1,10,0.044444473,-0.0074074,1,0,0,1.6085,rock_grid_rect_2,3,13,-1,-1,1.609,0.106481481,-0.258333347,1,0,0,8.1254,Diorite_rect,3,8.125,1,9,0,9,0,1,,,,,,,,,,,,,
6345bfdce5f06f5b4ee98ea8,TCR,2024-06-11_13h33.02.963,LearnStrategy,2023.2.3,Win32,60.24096386,7,1,11,0.082407422,0.00462963,1,0,0,0.7372,rock_grid_rect_2,2,10,-1,-1,0.737,-0.127777735,-0.243518547,1,0,0,0.9808,Basalt_rect,2,0.981,1,10,0,10,0,1,,,,,,,,,,,,,
6345bfdce5f06f5b4ee98ea8,TCR,2024-06-11_13h33.02.963,LearnStrategy,2023.2.3,Win32,60.24096386,7,1,12,0.077777792,-0.005555577,1,0,0,1.0989,rock_grid_rect_2,2,01,-1,-1,1.099,-0.094444416,-0.243518547,1,0,0,1.0897,Basalt_rect,2,1.09,1,11,0,11,0,1,,,,,,,,,,,,,
6345bfdce5f06f5b4ee98ea8,TCR,2024-06-11_13h33.02.963,LearnStrategy,2023.2.3,Win32,60.24096386,7,1,13,-0.074999986,-0.017592607,1,0,0,0.7393,rock_grid_rect_2,1,06,-1,-1,0.739,-0.443518497,-0.25462963,1,0,0,4.2135,Andesite_rect,1,4.214,1,12,0,12,0,1,,,,,,,,,,,,,
6345bfdce5f06f5b4ee98ea8,TCR,2024-06-11_13h33.02.963,LearnStrategy,2023.2.3,Win32,60.24096386,7,1,14,0,0.00462963,1,0,0,1.0217,rock_grid_rect_2,6,16,-1,-1,1.022,-0.139814801,-0.410185213,1,0,0,3.0119,Pegmatite_rect,6,3.012,1,13,0,13,0,1,,,,,,,,,,,,,
6345bfdce5f06f5b4ee98ea8,TCR,2024-06-11_13h33.02.963,LearnStrategy,2023.2.3,Win32,60.24096386,7,1,15,-0.021296254,-0.024074095,1,0,0,0.6558,rock_grid_rect_2,4,08,-1,-1,0.656,0.29814812,-0.244444459,1,0,0,3.0241,Gabbro_rect,4,3.024,1,14,0,14,0,1,,,,,,,,,,,,,
6345bfdce5f06f5b4ee98ea8,TCR,2024-06-11_13h33.02.963,LearnStrategy,2023.2.3,Win32,60.24096386,7,1,16,0.162037037,0.011111118,1,0,0,1.017,rock_grid_rect_2,4,01,-1,-1,1.017,0.45648151,-0.270370413,1,0,0,1.5337,Gabbro_rect,4,1.534,1,15,0,15,0,1,,,,,,,,,,,,,
6345bfdce5f06f5b4ee98ea8,TCR,2024-06-11_13h33.02.963,LearnStrategy,2023.2.3,Win32,60.24096386,7,2,1,,,,,,,,4,15,,,,,,,,,,,1,6.926,0,,,,,,-0.350925905,-0.251851894,1,0,0,6.9259,Andesite_rect,0,0,0,0,1,
6345bfdce5f06f5b4ee98ea8,TCR,2024-06-11_13h33.02.963,LearnStrategy,2023.2.3,Win32,60.24096386,7,2,2,,,,,,,,8,14,,,,,,,,,,,8,1.359,1,,,,,,0.457407492,-0.387962977,1,0,0,1.3589,Pumice_rect,1,0,1,0,1,
6345bfdce5f06f5b4ee98ea8,TCR,2024-06-11_13h33.02.963,LearnStrategy,2023.2.3,Win32,60.24096386,7,2,3,,,,,,,,5,16,,,,,,,,,,,5,1.692,1,,,,,,-0.385185171,-0.400000042,1,0,0,1.6923,Obsidian_rect,2,0,2,0,1,
6345bfdce5f06f5b4ee98ea8,TCR,2024-06-11_13h33.02.963,LearnStrategy,2023.2.3,Win32,60.24096386,7,2,4,,,,,,,,7,06,,,,,,,,,,,7,1.092,1,,,,,,0.112037023,-0.401851866,1,0,0,1.0919,Peridotite_rect,3,0,3,0,1,
6345bfdce5f06f5b4ee98ea8,TCR,2024-06-11_13h33.02.963,LearnStrategy,2023.2.3,Win32,60.24096386,7,2,5,,,,,,,,3,16,,,,,,,,,,,3,1.28,1,,,,,,0.154629672,-0.258333347,1,0,0,1.2802,Diorite_rect,4,0,4,0,1,
6345bfdce5f06f5b4ee98ea8,TCR,2024-06-11_13h33.02.963,LearnStrategy,2023.2.3,Win32,60.24096386,7,2,6,,,,,,,,3,15,,,,,,,,,,,1,1.398,0,,,,,,-0.444444444,-0.249074088,1,0,0,1.398,Andesite_rect,5,0,5,0,1,
6345bfdce5f06f5b4ee98ea8,TCR,2024-06-11_13h33.02.963,LearnStrategy,2023.2.3,Win32,60.24096386,7,2,7,,,,,,,,2,06,,,,,,,,,,,2,0.97,1,,,,,,-0.240740741,-0.257407436,1,0,0,0.9696,Basalt_rect,6,0,6,0,1,
6345bfdce5f06f5b4ee98ea8,TCR,2024-06-11_13h33.02.963,LearnStrategy,2023.2.3,Win32,60.24096386,7,2,8,,,,,,,,5,09,,,,,,,,,,,5,1.281,1,,,,,,-0.467592593,-0.406481496,1,0,0,1.2805,Obsidian_rect,7,0,7,0,1,
6345bfdce5f06f5b4ee98ea8,TCR,2024-06-11_13h33.02.963,LearnStrategy,2023.2.3,Win32,60.24096386,7,2,9,,,,,,,,8,13,,,,,,,,,,,8,1.106,1,,,,,,0.453703704,-0.412962949,1,0,0,1.106,Pumice_rect,8,0,8,0,1,
6345bfdce5f06f5b4ee98ea8,TCR,2024-06-11_13h33.02.963,LearnStrategy,2023.2.3,Win32,60.24096386,7,2,10,,,,,,,,6,10,,,,,,,,,,,7,1.247,0,,,,,,0.20648151,-0.419444473,1,0,0,1.2472,Peridotite_rect,9,0,9,0,1,
6345bfdce5f06f5b4ee98ea8,TCR,2024-06-11_13h33.02.963,LearnStrategy,2023.2.3,Win32,60.24096386,7,2,11,,,,,,,,1,16,,,,,,,,,,,4,4.892,0,,,,,,0.378703788,-0.266666695,1,0,0,4.8921,Gabbro_rect,10,0,10,0,1,
6345bfdce5f06f5b4ee98ea8,TCR,2024-06-11_13h33.02.963,LearnStrategy,2023.2.3,Win32,60.24096386,7,2,12,,,,,,,,1,03,,,,,,,,,,,1,3.046,1,,,,,,-0.349999993,-0.267592607,1,0,0,3.046,Andesite_rect,11,0,11,0,1,
6345bfdce5f06f5b4ee98ea8,TCR,2024-06-11_13h33.02.963,LearnStrategy,2023.2.3,Win32,60.24096386,7,2,13,,,,,,,,6,12,,,,,,,,,,,6,2.266,1,,,,,,-0.130555541,-0.421296296,1,0,0,2.2662,Pegmatite_rect,12,0,12,0,1,
6345bfdce5f06f5b4ee98ea8,TCR,2024-06-11_13h33.02.963,LearnStrategy,2023.2.3,Win32,60.24096386,7,2,14,,,,,,,,4,16,,,,,,,,,,,2,2.809,0,,,,,,-0.182407379,-0.231481481,1,0,0,2.8086,Basalt_rect,13,0,13,0,1,
6345bfdce5f06f5b4ee98ea8,TCR,2024-06-11_13h33.02.963,LearnStrategy,2023.2.3,Win32,60.24096386,7,2,15,,,,,,,,7,14,,,,,,,,,,,7,1.358,1,,,,,,0.126851894,-0.40370369,1,0,0,1.3579,Peridotite_rect,14,0,14,0,1,
6345bfdce5f06f5b4ee98ea8,TCR,2024-06-11_13h33.02.963,LearnStrategy,2023.2.3,Win32,60.24096386,7,2,16,,,,,,,,2,02,,,,,,,,,,,4,1.848,0,,,,,,0.356481481,-0.26944443,1,0,0,1.8483,Gabbro_rect,15,0,15,0,1,
6345bfdce5f06f5b4ee98ea8,TCR,2024-06-11_13h33.02.963,LearnStrategy,2023.2.3,Win32,60.24096386,8,1,1,0.049074102,-0.014814836,1,0,0,1.3459,rock_grid_rect_2,6,05,-1,-1,1.346,-0.073148162,-0.404629672,1,0,0,2.1512,Pegmatite_rect,6,2.151,1,0,0,0,0,1,,,,,,,,,,,,,
6345bfdce5f06f5b4ee98ea8,TCR,2024-06-11_13h33.02.963,LearnStrategy,2023.2.3,Win32,60.24096386,8,1,2,0.134259259,0.013888889,1,0,0,1.3419,rock_grid_rect_2,1,06,-1,-1,1.342,0.387037065,-0.243518547,1,0,0,1.2579,Gabbro_rect,4,1.258,0,1,0,1,0,1,,,,,,,,,,,,,
6345bfdce5f06f5b4ee98ea8,TCR,2024-06-11_13h33.02.963,LearnStrategy,2023.2.3,Win32,60.24096386,8,1,3,0.12962963,0.01203703,1,0,0,1.2417,rock_grid_rect_2,4,09,-1,-1,1.242,-0.339814822,-0.235185199,1,0,0,2.9332,Andesite_rect,1,2.933,0,2,0,2,0,1,,,,,,,,,,,,,
6345bfdce5f06f5b4ee98ea8,TCR,2024-06-11_13h33.02.963,LearnStrategy,2023.2.3,Win32,60.24096386,8,1,4,0.07222225,0.015740748,1,0,0,0.8554,rock_grid_rect_2,6,03,-1,-1,0.855,0.123148176,-0.402777778,1,0,0,2.7961,Peridotite_rect,7,2.796,0,3,0,3,0,1,,,,,,,,,,,,,
6345bfdce5f06f5b4ee98ea8,TCR,2024-06-11_13h33.02.963,LearnStrategy,2023.2.3,Win32,60.24096386,8,1,5,0.017592607,0.022222201,1,0,0,0.9993,rock_grid_rect_2,3,13,-1,-1,0.999,0.150925954,-0.237963005,1,0,0,2.7212,Diorite_rect,3,2.721,1,4,0,4,0,1,,,,,,,,,,,,,
6345bfdce5f06f5b4ee98ea8,TCR,2024-06-11_13h33.02.963,LearnStrategy,2023.2.3,Win32,60.24096386,8,1,6,0.08148151,-0.014814836,1,0,0,1.0888,rock_grid_rect_2,8,16,-1,-1,1.089,0.391666695,-0.381481524,1,0,0,2.5421,Pumice_rect,8,2.542,1,5,0,5,0,1,,,,,,,,,,,,,
6345bfdce5f06f5b4ee98ea8,TCR,2024-06-11_13h33.02.963,LearnStrategy,2023.2.3,Win32,60.24096386,8,1,7,-0.012036995,0.0074074,1,0,0,1.1261,rock_grid_rect_2,1,10,-1,-1,1.126,-0.405555548,-0.233333376,1,0,0,5.8269,Andesite_rect,1,5.827,1,6,0,6,0,1,,,,,,,,,,,,,
6345bfdce5f06f5b4ee98ea8,TCR,2024-06-11_13h33.02.963,LearnStrategy,2023.2.3,Win32,60.24096386,8,1,8,-0.013888889,0.003703683,1,0,0,1.1035,rock_grid_rect_2,3,08,-1,-1,1.103,0.12037037,-0.241666653,1,0,0,1.5037,Diorite_rect,3,1.504,1,7,0,7,0,1,,,,,,,,,,,,,
6345bfdce5f06f5b4ee98ea8,TCR,2024-06-11_13h33.02.963,LearnStrategy,2023.2.3,Win32,60.24096386,8,1,9,-0.008333347,-0.009259259,1,0,0,0.7121,rock_grid_rect_2,7,04,-1,-1,0.712,0.123148176,-0.387962977,1,0,0,1.4556,Peridotite_rect,7,1.456,1,8,0,8,0,1,,,,,,,,,,,,,
6345bfdce5f06f5b4ee98ea8,TCR,2024-06-11_13h33.02.963,LearnStrategy,2023.2.3,Win32,60.24096386,8,1,10,-0.006481453,-0.022222236,1,0,0,0.7123,rock_grid_rect_2,2,09,-1,-1,0.712,0.386111083,-0.253703718,1,0,0,4.633,Gabbro_rect,4,4.633,0,9,0,9,0,1,,,,,,,,,,,,,
6345bfdce5f06f5b4ee98ea8,TCR,2024-06-11_13h33.02.963,LearnStrategy,2023.2.3,Win32,60.24096386,8,1,11,0.10092594,0.023148148,1,0,0,0.6885,rock_grid_rect_2,4,11,-1,-1,0.688,0.371296353,-0.239814829,1,0,0,1.266,Gabbro_rect,4,1.266,1,10,0,10,0,1,,,,,,,,,,,,,
6345bfdce5f06f5b4ee98ea8,TCR,2024-06-11_13h33.02.963,LearnStrategy,2023.2.3,Win32,60.24096386,8,1,12,-0.01944443,-0.008333347,1,0,0,1.5278,rock_grid_rect_2,2,01,-1,-1,1.528,-0.073148162,-0.249074088,1,0,0,1.1889,Basalt_rect,2,1.189,1,11,0,11,0,1,,,,,,,,,,,,,
6345bfdce5f06f5b4ee98ea8,TCR,2024-06-11_13h33.02.963,LearnStrategy,2023.2.3,Win32,60.24096386,8,1,13,0.013888889,0.001851859,1,0,0,0.723,rock_grid_rect_2,4,12,-1,-1,0.723,0.342592593,-0.242592635,1,0,0,1.5929,Gabbro_rect,4,1.593,1,12,0,12,0,1,,,,,,,,,,,,,
6345bfdce5f06f5b4ee98ea8,TCR,2024-06-11_13h33.02.963,LearnStrategy,2023.2.3,Win32,60.24096386,8,1,14,0.086111139,-0.010185206,1,0,0,0.6275,rock_grid_rect_2,6,06,-1,-1,0.628,-0.337962963,-0.253703718,1,0,0,1.8618,Andesite_rect,1,1.862,0,13,0,13,0,1,,,,,,,,,,,,,
6345bfdce5f06f5b4ee98ea8,TCR,2024-06-11_13h33.02.963,LearnStrategy,2023.2.3,Win32,60.24096386,8,1,15,-0.035185143,-0.011111118,1,0,0,0.88,rock_grid_rect_2,1,04,-1,-1,0.88,-0.387962942,-0.263888889,1,0,0,6.0892,Andesite_rect,1,6.089,1,14,0,14,0,1,,,,,,,,,,,,,
6345bfdce5f06f5b4ee98ea8,TCR,2024-06-11_13h33.02.963,LearnStrategy,2023.2.3,Win32,60.24096386,8,1,16,0.068518533,-0.018518519,1,0,0,0.7219,rock_grid_rect_2,4,12,-1,-1,0.722,0.412963019,-0.240740741,1,0,0,1.2229,Gabbro_rect,4,1.223,1,15,0,15,0,1,,,,,,,,,,,,,
6345bfdce5f06f5b4ee98ea8,TCR,2024-06-11_13h33.02.963,LearnStrategy,2023.2.3,Win32,60.24096386,8,2,1,,,,,,,,6,11,,,,,,,,,,,6,3.752,1,,,,,,-0.092592593,-0.405555584,1,0,0,3.7523,Pegmatite_rect,0,0,0,0,1,
6345bfdce5f06f5b4ee98ea8,TCR,2024-06-11_13h33.02.963,LearnStrategy,2023.2.3,Win32,60.24096386,8,2,2,,,,,,,,3,11,,,,,,,,,,,3,1.574,1,,,,,,0.138888889,-0.246296282,1,0,0,1.5742,Diorite_rect,1,0,1,0,1,
6345bfdce5f06f5b4ee98ea8,TCR,2024-06-11_13h33.02.963,LearnStrategy,2023.2.3,Win32,60.24096386,8,2,3,,,,,,,,6,08,,,,,,,,,,,6,1.944,1,,,,,,-0.121296282,-0.405555584,1,0,0,1.9442,Pegmatite_rect,2,0,2,0,1,
6345bfdce5f06f5b4ee98ea8,TCR,2024-06-11_13h33.02.963,LearnStrategy,2023.2.3,Win32,60.24096386,8,2,4,,,,,,,,2,11,,,,,,,,,,,1,4.402,0,,,,,,-0.405555548,-0.248148176,1,0,0,4.4025,Andesite_rect,3,0,3,0,1,
6345bfdce5f06f5b4ee98ea8,TCR,2024-06-11_13h33.02.963,LearnStrategy,2023.2.3,Win32,60.24096386,8,2,5,,,,,,,,7,15,,,,,,,,,,,7,1.237,1,,,,,,0.137962977,-0.402777778,1,0,0,1.2368,Peridotite_rect,4,0,4,0,1,
6345bfdce5f06f5b4ee98ea8,TCR,2024-06-11_13h33.02.963,LearnStrategy,2023.2.3,Win32,60.24096386,8,2,6,,,,,,,,4,05,,,,,,,,,,,1,2.211,0,,,,,,-0.320370356,-0.260185171,1,0,0,2.2109,Andesite_rect,5,0,5,0,1,
6345bfdce5f06f5b4ee98ea8,TCR,2024-06-11_13h33.02.963,LearnStrategy,2023.2.3,Win32,60.24096386,8,2,7,,,,,,,,1,05,,,,,,,,,,,1,2.327,1,,,,,,-0.372222229,-0.253703718,1,0,0,2.3266,Andesite_rect,6,0,6,0,1,
6345bfdce5f06f5b4ee98ea8,TCR,2024-06-11_13h33.02.963,LearnStrategy,2023.2.3,Win32,60.24096386,8,2,8,,,,,,,,5,07,,,,,,,,,,,6,8.728,0,,,,,,-0.055555556,-0.400925954,1,0,0,8.7284,Pegmatite_rect,7,0,7,0,1,
6345bfdce5f06f5b4ee98ea8,TCR,2024-06-11_13h33.02.963,LearnStrategy,2023.2.3,Win32,60.24096386,8,2,9,,,,,,,,7,07,,,,,,,,,,,7,1.315,1,,,,,,0.134259259,-0.387037065,1,0,0,1.315,Peridotite_rect,8,0,8,0,1,
6345bfdce5f06f5b4ee98ea8,TCR,2024-06-11_13h33.02.963,LearnStrategy,2023.2.3,Win32,60.24096386,8,2,10,,,,,,,,5,04,,,,,,,,,,,5,1.128,1,,,,,,-0.38703703,-0.401851866,1,0,0,1.1283,Obsidian_rect,9,0,9,0,1,
6345bfdce5f06f5b4ee98ea8,TCR,2024-06-11_13h33.02.963,LearnStrategy,2023.2.3,Win32,60.24096386,8,2,11,,,,,,,,4,13,,,,,,,,,,,1,2.344,0,,,,,,-0.337962963,-0.271296325,1,0,0,2.3444,Andesite_rect,10,0,10,0,1,
6345bfdce5f06f5b4ee98ea8,TCR,2024-06-11_13h33.02.963,LearnStrategy,2023.2.3,Win32,60.24096386,8,2,12,,,,,,,,8,06,,,,,,,,,,,8,1.911,1,,,,,,0.437037009,-0.404629672,1,0,0,1.9112,Pumice_rect,11,0,11,0,1,
6345bfdce5f06f5b4ee98ea8,TCR,2024-06-11_13h33.02.963,LearnStrategy,2023.2.3,Win32,60.24096386,8,2,13,,,,,,,,1,11,,,,,,,,,,,4,1.672,0,,,,,,0.406481566,-0.237037023,1,0,0,1.6721,Gabbro_rect,12,0,12,0,1,
6345bfdce5f06f5b4ee98ea8,TCR,2024-06-11_13h33.02.963,LearnStrategy,2023.2.3,Win32,60.24096386,8,2,14,,,,,,,,3,12,,,,,,,,,,,3,2.436,1,,,,,,0.086111139,-0.262962977,1,0,0,2.4361,Diorite_rect,13,0,13,0,1,
6345bfdce5f06f5b4ee98ea8,TCR,2024-06-11_13h33.02.963,LearnStrategy,2023.2.3,Win32,60.24096386,8,2,15,,,,,,,,2,16,,,,,,,,,,,2,1.339,1,,,,,,-0.135185171,-0.256481524,1,0,0,1.3388,Basalt_rect,14,0,14,0,1,
6345bfdce5f06f5b4ee98ea8,TCR,2024-06-11_13h33.02.963,LearnStrategy,2023.2.3,Win32,60.24096386,8,2,16,,,,,,,,8,09,,,,,,,,,,,8,1.576,1,,,,,,0.386111083,-0.420370384,1,0,0,1.5759,Pumice_rect,15,0,15,0,1,
6345bfdce5f06f5b4ee98ea8,TCR,2024-06-11_13h33.02.963,LearnStrategy,2023.2.3,Win32,60.24096386,9,1,1,-0.04351849,-0.006481489,1,0,0,1.2457,rock_grid_rect_2,7,13,-1,-1,1.246,0.152777778,-0.412962949,1,0,0,1.3474,Peridotite_rect,7,1.347,1,0,0,0,0,1,,,,,,,,,,,,,
6345bfdce5f06f5b4ee98ea8,TCR,2024-06-11_13h33.02.963,LearnStrategy,2023.2.3,Win32,60.24096386,9,1,2,0.113888917,0.011111118,1,0,0,1.1493,rock_grid_rect_2,4,14,-1,-1,1.149,-0.405555548,-0.234259288,1,0,0,4.2697,Andesite_rect,1,4.27,0,1,0,1,0,1,,,,,,,,,,,,,
6345bfdce5f06f5b4ee98ea8,TCR,2024-06-11_13h33.02.963,LearnStrategy,2023.2.3,Win32,60.24096386,9,1,3,0.114814829,0.002777771,1,0,0,1.1308,rock_grid_rect_2,5,10,-1,-1,1.131,-0.356481481,-0.412037037,1,0,0,1.2384,Obsidian_rect,5,1.238,1,2,0,2,0,1,,,,,,,,,,,,,
6345bfdce5f06f5b4ee98ea8,TCR,2024-06-11_13h33.02.963,LearnStrategy,2023.2.3,Win32,60.24096386,9,1,4,0.020370413,0.023148148,1,0,0,0.8858,rock_grid_rect_2,1,01,-1,-1,0.886,0.100000028,-0.252777806,1,0,0,3.2429,Diorite_rect,3,3.243,0,3,0,3,0,1,,,,,,,,,,,,,
6345bfdce5f06f5b4ee98ea8,TCR,2024-06-11_13h33.02.963,LearnStrategy,2023.2.3,Win32,60.24096386,9,1,5,0.07222225,0.011111118,1,0,0,1.1255,rock_grid_rect_2,2,09,-1,-1,1.125,0.393518519,-0.243518547,1,0,0,1.4733,Gabbro_rect,4,1.473,0,4,0,4,0,1,,,,,,,,,,,,,
6345bfdce5f06f5b4ee98ea8,TCR,2024-06-11_13h33.02.963,LearnStrategy,2023.2.3,Win32,60.24096386,9,1,6,0.048148191,-0.003703718,1,0,0,1.1481,rock_grid_rect_2,2,05,-1,-1,1.148,-0.109259217,-0.256481524,1,0,0,1.7366,Basalt_rect,2,1.737,1,5,0,5,0,1,,,,,,,,,,,,,
6345bfdce5f06f5b4ee98ea8,TCR,2024-06-11_13h33.02.963,LearnStrategy,2023.2.3,Win32,60.24096386,9,1,7,0.010185171,0.011111118,1,0,0,0.8702,rock_grid_rect_2,1,02,-1,-1,0.87,-0.397222201,-0.24537037,1,0,0,3.2602,Andesite_rect,1,3.26,1,6,0,6,0,1,,,,,,,,,,,,,
6345bfdce5f06f5b4ee98ea8,TCR,2024-06-11_13h33.02.963,LearnStrategy,2023.2.3,Win32,60.24096386,9,1,8,0.025000042,-0.015740748,1,0,0,0.8905,rock_grid_rect_2,3,06,-1,-1,0.89,0.194444444,-0.236111111,1,0,0,1.8393,Diorite_rect,3,1.839,1,7,0,7,0,1,,,,,,,,,,,,,
6345bfdce5f06f5b4ee98ea8,TCR,2024-06-11_13h33.02.963,LearnStrategy,2023.2.3,Win32,60.24096386,9,1,9,0.161111125,0.017592571,1,0,0,1.2843,rock_grid_rect_2,6,05,-1,-1,1.284,-0.090740698,-0.391666695,1,0,0,2.6913,Pegmatite_rect,6,2.691,1,8,0,8,0,1,,,,,,,,,,,,,
6345bfdce5f06f5b4ee98ea8,TCR,2024-06-11_13h33.02.963,LearnStrategy,2023.2.3,Win32,60.24096386,9,1,10,0.112963005,-0.005555577,1,0,0,1.2008,rock_grid_rect_2,6,06,-1,-1,1.201,-0.116666653,-0.407407407,1,0,0,2.3372,Pegmatite_rect,6,2.337,1,9,0,9,0,1,,,,,,,,,,,,,
6345bfdce5f06f5b4ee98ea8,TCR,2024-06-11_13h33.02.963,LearnStrategy,2023.2.3,Win32,60.24096386,9,1,11,0.070370356,0.001851859,1,0,0,0.9796,rock_grid_rect_2,4,01,-1,-1,0.98,-0.453703704,-0.266666695,1,0,0,5.29,Andesite_rect,1,5.29,0,10,0,10,0,1,,,,,,,,,,,,,
6345bfdce5f06f5b4ee98ea8,TCR,2024-06-11_13h33.02.963,LearnStrategy,2023.2.3,Win32,60.24096386,9,1,12,-0.010185171,0.01666666,1,0,0,0.8197,rock_grid_rect_2,4,14,-1,-1,0.82,0.380555612,-0.228703746,1,0,0,2.6809,Gabbro_rect,4,2.681,1,11,0,11,0,1,,,,,,,,,,,,,
6345bfdce5f06f5b4ee98ea8,TCR,2024-06-11_13h33.02.963,LearnStrategy,2023.2.3,Win32,60.24096386,9,1,13,0.141666695,0.011111118,1,0,0,1.074,rock_grid_rect_2,2,14,-1,-1,1.074,0.376851824,-0.23055557,1,0,0,1.4532,Gabbro_rect,4,1.453,0,12,0,12,0,1,,,,,,,,,,,,,
6345bfdce5f06f5b4ee98ea8,TCR,2024-06-11_13h33.02.963,LearnStrategy,2023.2.3,Win32,60.24096386,9,1,14,0.059259273,0.02407406,1,0,0,0.7205,rock_grid_rect_2,3,08,-1,-1,0.72,0.137962977,-0.256481524,1,0,0,1.0364,Diorite_rect,3,1.036,1,13,0,13,0,1,,,,,,,,,,,,,
6345bfdce5f06f5b4ee98ea8,TCR,2024-06-11_13h33.02.963,LearnStrategy,2023.2.3,Win32,60.24096386,9,1,15,0.089814857,0.015740748,1,0,0,1.2078,rock_grid_rect_2,4,01,-1,-1,1.208,-0.316666674,-0.262962977,1,0,0,2.6453,Andesite_rect,1,2.645,0,14,0,14,0,1,,,,,,,,,,,,,
6345bfdce5f06f5b4ee98ea8,TCR,2024-06-11_13h33.02.963,LearnStrategy,2023.2.3,Win32,60.24096386,9,1,16,-0.011111083,-0.003703718,1,0,0,0.9917,rock_grid_rect_2,8,16,-1,-1,0.992,0.344444416,-0.390740783,1,0,0,1.7095,Pumice_rect,8,1.709,1,15,0,15,0,1,,,,,,,,,,,,,
6345bfdce5f06f5b4ee98ea8,TCR,2024-06-11_13h33.02.963,LearnStrategy,2023.2.3,Win32,60.24096386,9,2,1,,,,,,,,6,07,,,,,,,,,,,6,1.592,1,,,,,,-0.093518504,-0.404629672,1,0,0,1.5924,Pegmatite_rect,0,0,0,0,1,
6345bfdce5f06f5b4ee98ea8,TCR,2024-06-11_13h33.02.963,LearnStrategy,2023.2.3,Win32,60.24096386,9,2,2,,,,,,,,6,13,,,,,,,,,,,6,3.457,1,,,,,,-0.150925884,-0.395370413,1,0,0,3.4565,Pegmatite_rect,1,0,1,0,1,
6345bfdce5f06f5b4ee98ea8,TCR,2024-06-11_13h33.02.963,LearnStrategy,2023.2.3,Win32,60.24096386,9,2,3,,,,,,,,1,07,,,,,,,,,,,3,2.847,0,,,,,,0.087962963,-0.251851894,1,0,0,2.8473,Diorite_rect,2,0,2,0,1,
6345bfdce5f06f5b4ee98ea8,TCR,2024-06-11_13h33.02.963,LearnStrategy,2023.2.3,Win32,60.24096386,9,2,4,,,,,,,,2,12,,,,,,,,,,,1,2.618,0,,,,,,-0.368518511,-0.261111153,1,0,0,2.6179,Andesite_rect,3,0,3,0,1,
6345bfdce5f06f5b4ee98ea8,TCR,2024-06-11_13h33.02.963,LearnStrategy,2023.2.3,Win32,60.24096386,9,2,5,,,,,,,,8,03,,,,,,,,,,,8,2.166,1,,,,,,0.325000057,-0.40370369,1,0,0,2.166,Pumice_rect,4,0,4,0,1,
6345bfdce5f06f5b4ee98ea8,TCR,2024-06-11_13h33.02.963,LearnStrategy,2023.2.3,Win32,60.24096386,9,2,6,,,,,,,,5,08,,,,,,,,,,,5,2.231,1,,,,,,-0.386111118,-0.380555541,1,0,0,2.2312,Obsidian_rect,5,0,5,0,1,
6345bfdce5f06f5b4ee98ea8,TCR,2024-06-11_13h33.02.963,LearnStrategy,2023.2.3,Win32,60.24096386,9,2,7,,,,,,,,7,05,,,,,,,,,,,7,1.361,1,,,,,,0.02870369,-0.40370369,1,0,0,1.3614,Peridotite_rect,6,0,6,0,1,
6345bfdce5f06f5b4ee98ea8,TCR,2024-06-11_13h33.02.963,LearnStrategy,2023.2.3,Win32,60.24096386,9,2,8,,,,,,,,4,03,,,,,,,,,,,1,2.572,0,,,,,,-0.373148141,-0.265740783,1,0,0,2.5719,Andesite_rect,7,0,7,0,1,
6345bfdce5f06f5b4ee98ea8,TCR,2024-06-11_13h33.02.963,LearnStrategy,2023.2.3,Win32,60.24096386,9,2,9,,,,,,,,5,14,,,,,,,,,,,5,1.234,1,,,,,,-0.37962963,-0.400925954,1,0,0,1.2338,Obsidian_rect,8,0,8,0,1,
6345bfdce5f06f5b4ee98ea8,TCR,2024-06-11_13h33.02.963,LearnStrategy,2023.2.3,Win32,60.24096386,9,2,10,,,,,,,,2,04,,,,,,,,,,,2,1.092,1,,,,,,-0.150925884,-0.266666695,1,0,0,1.0924,Basalt_rect,9,0,9,0,1,
6345bfdce5f06f5b4ee98ea8,TCR,2024-06-11_13h33.02.963,LearnStrategy,2023.2.3,Win32,60.24096386,9,2,11,,,,,,,,3,02,,,,,,,,,,,3,1.501,1,,,,,,0.09629631,-0.250925912,1,0,0,1.5012,Diorite_rect,10,0,10,0,1,
6345bfdce5f06f5b4ee98ea8,TCR,2024-06-11_13h33.02.963,LearnStrategy,2023.2.3,Win32,60.24096386,9,2,12,,,,,,,,1,09,,,,,,,,,,,1,3.386,1,,,,,,-0.422222208,-0.247222265,1,0,0,3.386,Andesite_rect,11,0,11,0,1,
6345bfdce5f06f5b4ee98ea8,TCR,2024-06-11_13h33.02.963,LearnStrategy,2023.2.3,Win32,60.24096386,9,2,13,,,,,,,,7,12,,,,,,,,,,,7,2.275,1,,,,,,0.169444473,-0.398148148,1,0,0,2.2746,Peridotite_rect,12,0,12,0,1,
6345bfdce5f06f5b4ee98ea8,TCR,2024-06-11_13h33.02.963,LearnStrategy,2023.2.3,Win32,60.24096386,9,2,14,,,,,,,,4,10,,,,,,,,,,,4,3.934,1,,,,,,0.339814787,-0.261111153,1,0,0,3.9341,Gabbro_rect,13,0,13,0,1,
6345bfdce5f06f5b4ee98ea8,TCR,2024-06-11_13h33.02.963,LearnStrategy,2023.2.3,Win32,60.24096386,9,2,15,,,,,,,,8,10,,,,,,,,,,,4,4.08,0,,,,,,0.312037009,-0.266666695,1,0,0,4.0796,Gabbro_rect,14,0,14,0,1,
6345bfdce5f06f5b4ee98ea8,TCR,2024-06-11_13h33.02.963,LearnStrategy,2023.2.3,Win32,60.24096386,9,2,16,,,,,,,,3,09,,,,,,,,,,,3,1.292,1,,,,,,0.15370369,-0.258333347,1,0,0,1.292,Diorite_rect,15,0,15,0,1,
6345bfdce5f06f5b4ee98ea8,TCR,2024-06-11_13h33.02.963,LearnStrategy,2023.2.3,Win32,60.24096386,,,,,,,,,,,,,,,,,,,,,,,,,,,,,,,,,,,,,,,,,,,1
6345bfdce5f06f5b4ee98ea8,TCR,2024-06-11_13h33.02.963,LearnStrategy,2023.2.3,Win32,60.24096386,,,,,,,,,,,,,,,,,,,,,,,,,,,,,,,,,,,,,,,,,,,
6345bfdce5f06f5b4ee98ea8,TCR,2024-06-11_13h33.02.963,LearnStrategy,2023.2.3,Win32,60.24096386,,,,,,,,,,,4,08,1,1,,,,,,,,,,,,,,,,,,,,,,,,,,,,,
6345bfdce5f06f5b4ee98ea8,TCR,2024-06-11_13h33.02.963,LearnStrategy,2023.2.3,Win32,60.24096386,,,,,,,,,,,5,02,1,2,,,,,,,,,,,,,,,,,,,,,,,,,,,,,
6345bfdce5f06f5b4ee98ea8,TCR,2024-06-11_13h33.02.963,LearnStrategy,2023.2.3,Win32,60.24096386,,,,,,,,,,,8,16,1,3,,,,,,,,,,,,,,,,,,,,,,,,,,,,,
6345bfdce5f06f5b4ee98ea8,TCR,2024-06-11_13h33.02.963,LearnStrategy,2023.2.3,Win32,60.24096386,,,,,,,,,,,4,11,1,4,,,,,,,,,,,,,,,,,,,,,,,,,,,,,
6345bfdce5f06f5b4ee98ea8,TCR,2024-06-11_13h33.02.963,LearnStrategy,2023.2.3,Win32,60.24096386,,,,,,,,,,,2,14,1,5,,,,,,,,,,,,,,,,,,,,,,,,,,,,,
6345bfdce5f06f5b4ee98ea8,TCR,2024-06-11_13h33.02.963,LearnStrategy,2023.2.3,Win32,60.24096386,,,,,,,,,,,8,04,1,6,,,,,,,,,,,,,,,,,,,,,,,,,,,,,
6345bfdce5f06f5b4ee98ea8,TCR,2024-06-11_13h33.02.963,LearnStrategy,2023.2.3,Win32,60.24096386,,,,,,,,,,,7,13,1,7,,,,,,,,,,,,,,,,,,,,,,,,,,,,,
6345bfdce5f06f5b4ee98ea8,TCR,2024-06-11_13h33.02.963,LearnStrategy,2023.2.3,Win32,60.24096386,,,,,,,,,,,8,02,1,8,,,,,,,,,,,,,,,,,,,,,,,,,,,,,
6345bfdce5f06f5b4ee98ea8,TCR,2024-06-11_13h33.02.963,LearnStrategy,2023.2.3,Win32,60.24096386,,,,,,,,,,,2,01,2,1,,,,,,,,,,,,,,,,,,,,,,,,,,,,,
6345bfdce5f06f5b4ee98ea8,TCR,2024-06-11_13h33.02.963,LearnStrategy,2023.2.3,Win32,60.24096386,,,,,,,,,,,1,02,2,2,,,,,,,,,,,,,,,,,,,,,,,,,,,,,
6345bfdce5f06f5b4ee98ea8,TCR,2024-06-11_13h33.02.963,LearnStrategy,2023.2.3,Win32,60.24096386,,,,,,,,,,,3,07,2,3,,,,,,,,,,,,,,,,,,,,,,,,,,,,,
6345bfdce5f06f5b4ee98ea8,TCR,2024-06-11_13h33.02.963,LearnStrategy,2023.2.3,Win32,60.24096386,,,,,,,,,,,6,16,2,4,,,,,,,,,,,,,,,,,,,,,,,,,,,,,
6345bfdce5f06f5b4ee98ea8,TCR,2024-06-11_13h33.02.963,LearnStrategy,2023.2.3,Win32,60.24096386,,,,,,,,,,,8,08,2,5,,,,,,,,,,,,,,,,,,,,,,,,,,,,,
6345bfdce5f06f5b4ee98ea8,TCR,2024-06-11_13h33.02.963,LearnStrategy,2023.2.3,Win32,60.24096386,,,,,,,,,,,1,06,2,6,,,,,,,,,,,,,,,,,,,,,,,,,,,,,
6345bfdce5f06f5b4ee98ea8,TCR,2024-06-11_13h33.02.963,LearnStrategy,2023.2.3,Win32,60.24096386,,,,,,,,,,,4,01,2,7,,,,,,,,,,,,,,,,,,,,,,,,,,,,,
6345bfdce5f06f5b4ee98ea8,TCR,2024-06-11_13h33.02.963,LearnStrategy,2023.2.3,Win32,60.24096386,,,,,,,,,,,6,09,2,8,,,,,,,,,,,,,,,,,,,,,,,,,,,,,
6345bfdce5f06f5b4ee98ea8,TCR,2024-06-11_13h33.02.963,LearnStrategy,2023.2.3,Win32,60.24096386,,,,,,,,,,,6,15,3,1,,,,,,,,,,,,,,,,,,,,,,,,,,,,,
6345bfdce5f06f5b4ee98ea8,TCR,2024-06-11_13h33.02.963,LearnStrategy,2023.2.3,Win32,60.24096386,,,,,,,,,,,5,06,3,2,,,,,,,,,,,,,,,,,,,,,,,,,,,,,
6345bfdce5f06f5b4ee98ea8,TCR,2024-06-11_13h33.02.963,LearnStrategy,2023.2.3,Win32,60.24096386,,,,,,,,,,,3,10,3,3,,,,,,,,,,,,,,,,,,,,,,,,,,,,,
6345bfdce5f06f5b4ee98ea8,TCR,2024-06-11_13h33.02.963,LearnStrategy,2023.2.3,Win32,60.24096386,,,,,,,,,,,7,02,3,4,,,,,,,,,,,,,,,,,,,,,,,,,,,,,
6345bfdce5f06f5b4ee98ea8,TCR,2024-06-11_13h33.02.963,LearnStrategy,2023.2.3,Win32,60.24096386,,,,,,,,,,,7,16,3,5,,,,,,,,,,,,,,,,,,,,,,,,,,,,,
6345bfdce5f06f5b4ee98ea8,TCR,2024-06-11_13h33.02.963,LearnStrategy,2023.2.3,Win32,60.24096386,,,,,,,,,,,2,10,3,6,,,,,,,,,,,,,,,,,,,,,,,,,,,,,
6345bfdce5f06f5b4ee98ea8,TCR,2024-06-11_13h33.02.963,LearnStrategy,2023.2.3,Win32,60.24096386,,,,,,,,,,,2,08,3,7,,,,,,,,,,,,,,,,,,,,,,,,,,,,,
6345bfdce5f06f5b4ee98ea8,TCR,2024-06-11_13h33.02.963,LearnStrategy,2023.2.3,Win32,60.24096386,,,,,,,,,,,5,10,3,8,,,,,,,,,,,,,,,,,,,,,,,,,,,,,
6345bfdce5f06f5b4ee98ea8,TCR,2024-06-11_13h33.02.963,LearnStrategy,2023.2.3,Win32,60.24096386,,,,,,,,,,,1,14,4,1,,,,,,,,,,,,,,,,,,,,,,,,,,,,,
6345bfdce5f06f5b4ee98ea8,TCR,2024-06-11_13h33.02.963,LearnStrategy,2023.2.3,Win32,60.24096386,,,,,,,,,,,4,14,4,2,,,,,,,,,,,,,,,,,,,,,,,,,,,,,
6345bfdce5f06f5b4ee98ea8,TCR,2024-06-11_13h33.02.963,LearnStrategy,2023.2.3,Win32,60.24096386,,,,,,,,,,,7,08,4,3,,,,,,,,,,,,,,,,,,,,,,,,,,,,,
6345bfdce5f06f5b4ee98ea8,TCR,2024-06-11_13h33.02.963,LearnStrategy,2023.2.3,Win32,60.24096386,,,,,,,,,,,3,13,4,4,,,,,,,,,,,,,,,,,,,,,,,,,,,,,
6345bfdce5f06f5b4ee98ea8,TCR,2024-06-11_13h33.02.963,LearnStrategy,2023.2.3,Win32,60.24096386,,,,,,,,,,,4,12,4,5,,,,,,,,,,,,,,,,,,,,,,,,,,,,,
6345bfdce5f06f5b4ee98ea8,TCR,2024-06-11_13h33.02.963,LearnStrategy,2023.2.3,Win32,60.24096386,,,,,,,,,,,7,04,4,6,,,,,,,,,,,,,,,,,,,,,,,,,,,,,
6345bfdce5f06f5b4ee98ea8,TCR,2024-06-11_13h33.02.963,LearnStrategy,2023.2.3,Win32,60.24096386,,,,,,,,,,,1,04,4,7,,,,,,,,,,,,,,,,,,,,,,,,,,,,,
6345bfdce5f06f5b4ee98ea8,TCR,2024-06-11_13h33.02.963,LearnStrategy,2023.2.3,Win32,60.24096386,,,,,,,,,,,1,10,4,8,,,,,,,,,,,,,,,,,,,,,,,,,,,,,
6345bfdce5f06f5b4ee98ea8,TCR,2024-06-11_13h33.02.963,LearnStrategy,2023.2.3,Win32,60.24096386,,,,,,,,,,,5,12,5,1,,,,,,,,,,,,,,,,,,,,,,,,,,,,,
6345bfdce5f06f5b4ee98ea8,TCR,2024-06-11_13h33.02.963,LearnStrategy,2023.2.3,Win32,60.24096386,,,,,,,,,,,6,06,5,2,,,,,,,,,,,,,,,,,,,,,,,,,,,,,
6345bfdce5f06f5b4ee98ea8,TCR,2024-06-11_13h33.02.963,LearnStrategy,2023.2.3,Win32,60.24096386,,,,,,,,,,,1,01,5,3,,,,,,,,,,,,,,,,,,,,,,,,,,,,,
6345bfdce5f06f5b4ee98ea8,TCR,2024-06-11_13h33.02.963,LearnStrategy,2023.2.3,Win32,60.24096386,,,,,,,,,,,6,05,5,4,,,,,,,,,,,,,,,,,,,,,,,,,,,,,
6345bfdce5f06f5b4ee98ea8,TCR,2024-06-11_13h33.02.963,LearnStrategy,2023.2.3,Win32,60.24096386,,,,,,,,,,,8,05,5,5,,,,,,,,,,,,,,,,,,,,,,,,,,,,,
6345bfdce5f06f5b4ee98ea8,TCR,2024-06-11_13h33.02.963,LearnStrategy,2023.2.3,Win32,60.24096386,,,,,,,,,,,3,14,5,6,,,,,,,,,,,,,,,,,,,,,,,,,,,,,
6345bfdce5f06f5b4ee98ea8,TCR,2024-06-11_13h33.02.963,LearnStrategy,2023.2.3,Win32,60.24096386,,,,,,,,,,,2,09,5,7,,,,,,,,,,,,,,,,,,,,,,,,,,,,,
6345bfdce5f06f5b4ee98ea8,TCR,2024-06-11_13h33.02.963,LearnStrategy,2023.2.3,Win32,60.24096386,,,,,,,,,,,4,09,5,8,,,,,,,,,,,,,,,,,,,,,,,,,,,,,
6345bfdce5f06f5b4ee98ea8,TCR,2024-06-11_13h33.02.963,LearnStrategy,2023.2.3,Win32,60.24096386,,,,,,,,,,,7,10,6,1,,,,,,,,,,,,,,,,,,,,,,,,,,,,,
6345bfdce5f06f5b4ee98ea8,TCR,2024-06-11_13h33.02.963,LearnStrategy,2023.2.3,Win32,60.24096386,,,,,,,,,,,8,15,6,2,,,,,,,,,,,,,,,,,,,,,,,,,,,,,
6345bfdce5f06f5b4ee98ea8,TCR,2024-06-11_13h33.02.963,LearnStrategy,2023.2.3,Win32,60.24096386,,,,,,,,,,,6,03,6,3,,,,,,,,,,,,,,,,,,,,,,,,,,,,,
6345bfdce5f06f5b4ee98ea8,TCR,2024-06-11_13h33.02.963,LearnStrategy,2023.2.3,Win32,60.24096386,,,,,,,,,,,3,06,6,4,,,,,,,,,,,,,,,,,,,,,,,,,,,,,
6345bfdce5f06f5b4ee98ea8,TCR,2024-06-11_13h33.02.963,LearnStrategy,2023.2.3,Win32,60.24096386,,,,,,,,,,,2,05,6,5,,,,,,,,,,,,,,,,,,,,,,,,,,,,,
6345bfdce5f06f5b4ee98ea8,TCR,2024-06-11_13h33.02.963,LearnStrategy,2023.2.3,Win32,60.24096386,,,,,,,,,,,3,08,6,6,,,,,,,,,,,,,,,,,,,,,,,,,,,,,
6345bfdce5f06f5b4ee98ea8,TCR,2024-06-11_13h33.02.963,LearnStrategy,2023.2.3,Win32,60.24096386,,,,,,,,,,,5,05,6,7,,,,,,,,,,,,,,,,,,,,,,,,,,,,,
6345bfdce5f06f5b4ee98ea8,TCR,2024-06-11_13h33.02.963,LearnStrategy,2023.2.3,Win32,60.24096386,,,,,,,,,,,5,11,6,8,,,,,,,,,,,,,,,,,,,,,,,,,,,,,