participant,condition,date,expName,psychopyVersion,OS,frameRate,block,phase,trial,learn_mouse_2.x,learn_mouse_2.y,learn_mouse_2.leftButton,learn_mouse_2.midButton,learn_mouse_2.rightButton,learn_mouse_2.time,learn_mouse_2.clicked_name,cat,token,row,col,t_select,cat_mouse_l.x,cat_mouse_l.y,cat_mouse_l.leftButton,cat_mouse_l.midButton,cat_mouse_l.rightButton,cat_mouse_l.time,cat_mouse_l.clicked_name,resp,t_resp,corr,train_trials.thisRepN,train_trials.thisTrialN,train_trials.thisN,train_trials.thisIndex,train_trials.ran,cat_mouse_t.x,cat_mouse_t.y,cat_mouse_t.leftButton,cat_mouse_t.midButton,cat_mouse_t.rightButton,cat_mouse_t.time,cat_mouse_t.clicked_name,test_trials.thisRepN,test_trials.thisTrialN,test_trials.thisN,test_trials.thisIndex,test_trials.ran,Bonus
638e4ace1c4a380ecc49932f,TCR,2024-06-24_14h49.47.789,LearnStrategy,2023.2.3,MacIntel,61.95786865,,,,,,,,,,,,,,,,,,,,,,,,,,,,,,,,,,,,,,,,,,,
638e4ace1c4a380ecc49932f,TCR,2024-06-24_14h49.47.789,LearnStrategy,2023.2.3,MacIntel,61.95786865,1,1,1,-0.002083333,-0.004166667,1,0,0,12.148,rock_grid_rect_2,8,13,-1,-1,12.148,-0.141666667,-0.254166667,1,0,0,8.136,Basalt_rect,2,8.136,0,0,0,0,0,1,,,,,,,,,,,,,
638e4ace1c4a380ecc49932f,TCR,2024-06-24_14h49.47.789,LearnStrategy,2023.2.3,MacIntel,61.95786865,1,1,2,0.040277778,0.009027778,1,0,0,2.955,rock_grid_rect_2,4,12,-1,-1,2.955,-0.142361111,-0.241666667,1,0,0,4.501,Basalt_rect,2,4.501,0,1,0,1,0,1,,,,,,,,,,,,,
638e4ace1c4a380ecc49932f,TCR,2024-06-24_14h49.47.789,LearnStrategy,2023.2.3,MacIntel,61.95786865,1,1,3,-0.020833333,-0.009722222,1,0,0,1.372,rock_grid_rect_2,1,07,-1,-1,1.372,-0.405555556,-0.390277778,1,0,0,7.266,Obsidian_rect,5,7.266,0,2,0,2,0,1,,,,,,,,,,,,,
638e4ace1c4a380ecc49932f,TCR,2024-06-24_14h49.47.789,LearnStrategy,2023.2.3,MacIntel,61.95786865,1,1,4,-0.004166667,0.000694444,1,0,0,1.773,rock_grid_rect_2,7,08,-1,-1,1.773,-0.140277778,-0.255555556,1,0,0,2.728,Basalt_rect,2,2.728,0,3,0,3,0,1,,,,,,,,,,,,,
638e4ace1c4a380ecc49932f,TCR,2024-06-24_14h49.47.789,LearnStrategy,2023.2.3,MacIntel,61.95786865,1,1,5,-0.022916667,-0.011805556,1,0,0,1.846,rock_grid_rect_2,2,12,-1,-1,1.846,0.334027778,-0.402777778,1,0,0,3.972,Pumice_rect,8,3.972,0,4,0,4,0,1,,,,,,,,,,,,,
638e4ace1c4a380ecc49932f,TCR,2024-06-24_14h49.47.789,LearnStrategy,2023.2.3,MacIntel,61.95786865,1,1,6,-0.055555556,0.005555556,1,0,0,1.962,rock_grid_rect_2,1,05,-1,-1,1.962,-0.138888889,-0.246527778,1,0,0,4.927,Basalt_rect,2,4.927,0,5,0,5,0,1,,,,,,,,,,,,,
638e4ace1c4a380ecc49932f,TCR,2024-06-24_14h49.47.789,LearnStrategy,2023.2.3,MacIntel,61.95786865,1,1,7,-0.00625,0.001388889,1,0,0,1.896,rock_grid_rect_2,4,15,-1,-1,1.896,0.059027778,-0.238888889,1,0,0,3.964,Diorite_rect,3,3.964,0,6,0,6,0,1,,,,,,,,,,,,,
638e4ace1c4a380ecc49932f,TCR,2024-06-24_14h49.47.789,LearnStrategy,2023.2.3,MacIntel,61.95786865,1,1,8,-0.023611111,0.006944444,1,0,0,2.247,rock_grid_rect_2,3,13,-1,-1,2.247,0.359027778,-0.231944444,1,0,0,7.573,Gabbro_rect,4,7.573,0,7,0,7,0,1,,,,,,,,,,,,,
638e4ace1c4a380ecc49932f,TCR,2024-06-24_14h49.47.789,LearnStrategy,2023.2.3,MacIntel,61.95786865,1,1,9,-0.026388889,0.004861111,1,0,0,1.823,rock_grid_rect_2,5,14,-1,-1,1.823,-0.163888889,-0.245833333,1,0,0,12.413,Basalt_rect,2,12.413,0,8,0,8,0,1,,,,,,,,,,,,,
638e4ace1c4a380ecc49932f,TCR,2024-06-24_14h49.47.789,LearnStrategy,2023.2.3,MacIntel,61.95786865,1,1,10,-0.004166667,0.011805556,1,0,0,1.577,rock_grid_rect_2,8,10,-1,-1,1.577,-0.146527778,-0.236111111,1,0,0,3.126,Basalt_rect,2,3.126,0,9,0,9,0,1,,,,,,,,,,,,,
638e4ace1c4a380ecc49932f,TCR,2024-06-24_14h49.47.789,LearnStrategy,2023.2.3,MacIntel,61.95786865,1,1,11,-0.002083333,-0.010416667,1,0,0,1.973,rock_grid_rect_2,5,08,-1,-1,1.973,-0.114583333,-0.236805556,1,0,0,5.592,Basalt_rect,2,5.592,0,10,0,10,0,1,,,,,,,,,,,,,
638e4ace1c4a380ecc49932f,TCR,2024-06-24_14h49.47.789,LearnStrategy,2023.2.3,MacIntel,61.95786865,1,1,12,-0.022222222,0.000694444,1,0,0,1.994,rock_grid_rect_2,6,08,-1,-1,1.994,-0.145833333,-0.239583333,1,0,0,7.83,Basalt_rect,2,7.83,0,11,0,11,0,1,,,,,,,,,,,,,
638e4ace1c4a380ecc49932f,TCR,2024-06-24_14h49.47.789,LearnStrategy,2023.2.3,MacIntel,61.95786865,1,1,13,0.0125,-0.008333333,1,0,0,2.127,rock_grid_rect_2,6,03,-1,-1,2.127,-0.128472222,-0.407638889,1,0,0,7.003,Pegmatite_rect,6,7.003,1,12,0,12,0,1,,,,,,,,,,,,,
638e4ace1c4a380ecc49932f,TCR,2024-06-24_14h49.47.789,LearnStrategy,2023.2.3,MacIntel,61.95786865,1,1,14,-0.005555556,-0.002083333,1,0,0,1.675,rock_grid_rect_2,2,04,-1,-1,1.675,-0.139583333,-0.247222222,1,0,0,4.203,Basalt_rect,2,4.203,1,13,0,13,0,1,,,,,,,,,,,,,
638e4ace1c4a380ecc49932f,TCR,2024-06-24_14h49.47.789,LearnStrategy,2023.2.3,MacIntel,61.95786865,1,1,15,-0.006944444,-0.004166667,1,0,0,1.833,rock_grid_rect_2,7,04,-1,-1,1.833,-0.1625,-0.404861111,1,0,0,8.106,Pegmatite_rect,6,8.106,0,14,0,14,0,1,,,,,,,,,,,,,
638e4ace1c4a380ecc49932f,TCR,2024-06-24_14h49.47.789,LearnStrategy,2023.2.3,MacIntel,61.95786865,1,1,16,0.014583333,-0.002083333,1,0,0,1.925,rock_grid_rect_2,3,11,-1,-1,1.925,-0.129861111,-0.2375,1,0,0,4.582,Basalt_rect,2,4.582,0,15,0,15,0,1,,,,,,,,,,,,,
638e4ace1c4a380ecc49932f,TCR,2024-06-24_14h49.47.789,LearnStrategy,2023.2.3,MacIntel,61.95786865,1,2,1,,,,,,,,2,10,,,,,,,,,,,2,13.042,1,,,,,,-0.153472222,-0.253472222,1,0,0,13.042,Basalt_rect,0,0,0,0,1,
638e4ace1c4a380ecc49932f,TCR,2024-06-24_14h49.47.789,LearnStrategy,2023.2.3,MacIntel,61.95786865,1,2,2,,,,,,,,5,05,,,,,,,,,,,5,7.427,1,,,,,,-0.404166667,-0.402777778,1,0,0,7.427,Obsidian_rect,1,0,1,0,1,
638e4ace1c4a380ecc49932f,TCR,2024-06-24_14h49.47.789,LearnStrategy,2023.2.3,MacIntel,61.95786865,1,2,3,,,,,,,,1,04,,,,,,,,,,,3,11.889,0,,,,,,0.113888889,-0.249305556,1,0,0,11.889,Diorite_rect,2,0,2,0,1,
638e4ace1c4a380ecc49932f,TCR,2024-06-24_14h49.47.789,LearnStrategy,2023.2.3,MacIntel,61.95786865,1,2,4,,,,,,,,8,15,,,,,,,,,,,8,3.914,1,,,,,,0.400694444,-0.408333333,1,0,0,3.914,Pumice_rect,3,0,3,0,1,
638e4ace1c4a380ecc49932f,TCR,2024-06-24_14h49.47.789,LearnStrategy,2023.2.3,MacIntel,61.95786865,1,2,5,,,,,,,,2,09,,,,,,,,,,,2,4.379,1,,,,,,-0.093055556,-0.260416667,1,0,0,4.379,Basalt_rect,4,0,4,0,1,
638e4ace1c4a380ecc49932f,TCR,2024-06-24_14h49.47.789,LearnStrategy,2023.2.3,MacIntel,61.95786865,1,2,6,,,,,,,,4,11,,,,,,,,,,,4,7.734,1,,,,,,0.325,-0.264583333,1,0,0,7.734,Gabbro_rect,5,0,5,0,1,
638e4ace1c4a380ecc49932f,TCR,2024-06-24_14h49.47.789,LearnStrategy,2023.2.3,MacIntel,61.95786865,1,2,7,,,,,,,,8,08,,,,,,,,,,,5,6.569,0,,,,,,-0.324305556,-0.391666667,1,0,0,6.569,Obsidian_rect,6,0,6,0,1,
638e4ace1c4a380ecc49932f,TCR,2024-06-24_14h49.47.789,LearnStrategy,2023.2.3,MacIntel,61.95786865,1,2,8,,,,,,,,6,11,,,,,,,,,,,6,8.206,1,,,,,,-0.115277778,-0.386111111,1,0,0,8.206,Pegmatite_rect,7,0,7,0,1,
638e4ace1c4a380ecc49932f,TCR,2024-06-24_14h49.47.789,LearnStrategy,2023.2.3,MacIntel,61.95786865,1,2,9,,,,,,,,7,06,,,,,,,,,,,3,9.489,0,,,,,,0.121527778,-0.250694444,1,0,0,9.489,Diorite_rect,8,0,8,0,1,
638e4ace1c4a380ecc49932f,TCR,2024-06-24_14h49.47.789,LearnStrategy,2023.2.3,MacIntel,61.95786865,1,2,10,,,,,,,,3,02,,,,,,,,,,,4,9.215,0,,,,,,0.405555556,-0.239583333,1,0,0,9.215,Gabbro_rect,9,0,9,0,1,
638e4ace1c4a380ecc49932f,TCR,2024-06-24_14h49.47.789,LearnStrategy,2023.2.3,MacIntel,61.95786865,1,2,11,,,,,,,,4,14,,,,,,,,,,,2,3.784,0,,,,,,-0.127083333,-0.256944444,1,0,0,3.784,Basalt_rect,10,0,10,0,1,
638e4ace1c4a380ecc49932f,TCR,2024-06-24_14h49.47.789,LearnStrategy,2023.2.3,MacIntel,61.95786865,1,2,12,,,,,,,,3,15,,,,,,,,,,,7,7.72,0,,,,,,0.066666667,-0.394444444,1,0,0,7.72,Peridotite_rect,11,0,11,0,1,
638e4ace1c4a380ecc49932f,TCR,2024-06-24_14h49.47.789,LearnStrategy,2023.2.3,MacIntel,61.95786865,1,2,13,,,,,,,,7,14,,,,,,,,,,,5,5.538,0,,,,,,-0.348611111,-0.386805556,1,0,0,5.538,Obsidian_rect,12,0,12,0,1,
638e4ace1c4a380ecc49932f,TCR,2024-06-24_14h49.47.789,LearnStrategy,2023.2.3,MacIntel,61.95786865,1,2,14,,,,,,,,6,07,,,,,,,,,,,7,11.618,0,,,,,,0.118055556,-0.39375,1,0,0,11.618,Peridotite_rect,13,0,13,0,1,
638e4ace1c4a380ecc49932f,TCR,2024-06-24_14h49.47.789,LearnStrategy,2023.2.3,MacIntel,61.95786865,1,2,15,,,,,,,,1,01,,,,,,,,,,,8,4.309,0,,,,,,0.351388889,-0.395833333,1,0,0,4.309,Pumice_rect,14,0,14,0,1,
638e4ace1c4a380ecc49932f,TCR,2024-06-24_14h49.47.789,LearnStrategy,2023.2.3,MacIntel,61.95786865,1,2,16,,,,,,,,5,10,,,,,,,,,,,5,5.836,1,,,,,,-0.395833333,-0.394444444,1,0,0,5.836,Obsidian_rect,15,0,15,0,1,
638e4ace1c4a380ecc49932f,TCR,2024-06-24_14h49.47.789,LearnStrategy,2023.2.3,MacIntel,61.95786865,2,1,1,-0.029166667,0.004861111,1,0,0,2.908,rock_grid_rect_2,4,10,-1,-1,2.908,0.100694444,-0.233333333,1,0,0,6.47,Diorite_rect,3,6.47,0,0,0,0,0,1,,,,,,,,,,,,,
638e4ace1c4a380ecc49932f,TCR,2024-06-24_14h49.47.789,LearnStrategy,2023.2.3,MacIntel,61.95786865,2,1,2,-0.025,-0.001388889,1,0,0,2.123,rock_grid_rect_2,6,16,-1,-1,2.123,-0.129861111,-0.391666667,1,0,0,5.681,Pegmatite_rect,6,5.681,1,1,0,1,0,1,,,,,,,,,,,,,
638e4ace1c4a380ecc49932f,TCR,2024-06-24_14h49.47.789,LearnStrategy,2023.2.3,MacIntel,61.95786865,2,1,3,0.005555556,0.009722222,1,0,0,1.532,rock_grid_rect_2,8,04,-1,-1,1.532,0.343055556,-0.399305556,1,0,0,6.891,Pumice_rect,8,6.891,1,2,0,2,0,1,,,,,,,,,,,,,
638e4ace1c4a380ecc49932f,TCR,2024-06-24_14h49.47.789,LearnStrategy,2023.2.3,MacIntel,61.95786865,2,1,4,-0.022222222,-0.013194444,1,0,0,1.899,rock_grid_rect_2,7,02,-1,-1,1.899,-0.158333333,-0.396527778,1,0,0,5.724,Pegmatite_rect,6,5.724,0,3,0,3,0,1,,,,,,,,,,,,,
638e4ace1c4a380ecc49932f,TCR,2024-06-24_14h49.47.789,LearnStrategy,2023.2.3,MacIntel,61.95786865,2,1,5,-0.001388889,-0.020138889,1,0,0,2.215,rock_grid_rect_2,8,10,-1,-1,2.215,-0.138194444,-0.244444444,1,0,0,3.958,Basalt_rect,2,3.958,0,4,0,4,0,1,,,,,,,,,,,,,
638e4ace1c4a380ecc49932f,TCR,2024-06-24_14h49.47.789,LearnStrategy,2023.2.3,MacIntel,61.95786865,2,1,6,0.002083333,0.004166667,1,0,0,1.481,rock_grid_rect_2,3,06,-1,-1,1.481,0.378472222,-0.252777778,1,0,0,7.374,Gabbro_rect,4,7.374,0,5,0,5,0,1,,,,,,,,,,,,,
638e4ace1c4a380ecc49932f,TCR,2024-06-24_14h49.47.789,LearnStrategy,2023.2.3,MacIntel,61.95786865,2,1,7,-0.018055556,0.011805556,1,0,0,1.898,rock_grid_rect_2,6,08,-1,-1,1.898,-0.3875,-0.395833333,1,0,0,3.937,Obsidian_rect,5,3.937,0,6,0,6,0,1,,,,,,,,,,,,,
638e4ace1c4a380ecc49932f,TCR,2024-06-24_14h49.47.789,LearnStrategy,2023.2.3,MacIntel,61.95786865,2,1,8,0.029166667,-0.013888889,1,0,0,2.051,rock_grid_rect_2,1,05,-1,-1,2.051,0.096527778,-0.250694444,1,0,0,7.634,Diorite_rect,3,7.634,0,7,0,7,0,1,,,,,,,,,,,,,
638e4ace1c4a380ecc49932f,TCR,2024-06-24_14h49.47.789,LearnStrategy,2023.2.3,MacIntel,61.95786865,2,1,9,-0.004861111,0.007638889,1,0,0,1.997,rock_grid_rect_2,1,03,-1,-1,1.997,-0.154861111,-0.242361111,1,0,0,14.488,Basalt_rect,2,14.488,0,8,0,8,0,1,,,,,,,,,,,,,
638e4ace1c4a380ecc49932f,TCR,2024-06-24_14h49.47.789,LearnStrategy,2023.2.3,MacIntel,61.95786865,2,1,10,0.004166667,-0.008333333,1,0,0,1.908,rock_grid_rect_2,4,09,-1,-1,1.908,0.383333333,-0.240972222,1,0,0,5.486,Gabbro_rect,4,5.486,1,9,0,9,0,1,,,,,,,,,,,,,
638e4ace1c4a380ecc49932f,TCR,2024-06-24_14h49.47.789,LearnStrategy,2023.2.3,MacIntel,61.95786865,2,1,11,0.002777778,0.003472222,1,0,0,1.922,rock_grid_rect_2,1,06,-1,-1,1.922,-0.116666667,-0.400694444,1,0,0,14.083,Pegmatite_rect,6,14.083,0,10,0,10,0,1,,,,,,,,,,,,,
638e4ace1c4a380ecc49932f,TCR,2024-06-24_14h49.47.789,LearnStrategy,2023.2.3,MacIntel,61.95786865,2,1,12,0.025694444,-0.008333333,1,0,0,1.535,rock_grid_rect_2,3,13,-1,-1,1.535,-0.139583333,-0.243055556,1,0,0,5.338,Basalt_rect,2,5.338,0,11,0,11,0,1,,,,,,,,,,,,,
638e4ace1c4a380ecc49932f,TCR,2024-06-24_14h49.47.789,LearnStrategy,2023.2.3,MacIntel,61.95786865,2,1,13,0.003472222,-0.009027778,1,0,0,1.883,rock_grid_rect_2,5,02,-1,-1,1.883,-0.41875,-0.404861111,1,0,0,4.054,Obsidian_rect,5,4.054,1,12,0,12,0,1,,,,,,,,,,,,,
638e4ace1c4a380ecc49932f,TCR,2024-06-24_14h49.47.789,LearnStrategy,2023.2.3,MacIntel,61.95786865,2,1,14,0.010416667,0.009722222,1,0,0,2.377,rock_grid_rect_2,7,07,-1,-1,2.377,0.39375,-0.247222222,1,0,0,13.948,Gabbro_rect,4,13.948,0,13,0,13,0,1,,,,,,,,,,,,,
638e4ace1c4a380ecc49932f,TCR,2024-06-24_14h49.47.789,LearnStrategy,2023.2.3,MacIntel,61.95786865,2,1,15,-0.002777778,-0.008333333,1,0,0,1.907,rock_grid_rect_2,3,13,-1,-1,1.907,0.114583333,-0.236805556,1,0,0,5.868,Diorite_rect,3,5.868,1,14,0,14,0,1,,,,,,,,,,,,,
638e4ace1c4a380ecc49932f,TCR,2024-06-24_14h49.47.789,LearnStrategy,2023.2.3,MacIntel,61.95786865,2,1,16,-0.0125,0.003472222,1,0,0,1.727,rock_grid_rect_2,7,10,-1,-1,1.727,-0.142361111,-0.24375,1,0,0,3.729,Basalt_rect,2,3.729,0,15,0,15,0,1,,,,,,,,,,,,,
638e4ace1c4a380ecc49932f,TCR,2024-06-24_14h49.47.789,LearnStrategy,2023.2.3,MacIntel,61.95786865,2,2,1,,,,,,,,8,14,,,,,,,,,,,8,2.18,1,,,,,,0.382638889,-0.396527778,1,0,0,2.18,Pumice_rect,0,0,0,0,1,
638e4ace1c4a380ecc49932f,TCR,2024-06-24_14h49.47.789,LearnStrategy,2023.2.3,MacIntel,61.95786865,2,2,2,,,,,,,,1,02,,,,,,,,,,,3,12.387,0,,,,,,0.114583333,-0.254861111,1,0,0,12.387,Diorite_rect,1,0,1,0,1,
638e4ace1c4a380ecc49932f,TCR,2024-06-24_14h49.47.789,LearnStrategy,2023.2.3,MacIntel,61.95786865,2,2,3,,,,,,,,6,13,,,,,,,,,,,4,8.081,0,,,,,,0.360416667,-0.257638889,1,0,0,8.081,Gabbro_rect,2,0,2,0,1,
638e4ace1c4a380ecc49932f,TCR,2024-06-24_14h49.47.789,LearnStrategy,2023.2.3,MacIntel,61.95786865,2,2,4,,,,,,,,2,02,,,,,,,,,,,7,11.675,0,,,,,,0.130555556,-0.388194444,1,0,0,11.675,Peridotite_rect,3,0,3,0,1,
638e4ace1c4a380ecc49932f,TCR,2024-06-24_14h49.47.789,LearnStrategy,2023.2.3,MacIntel,61.95786865,2,2,5,,,,,,,,3,12,,,,,,,,,,,3,4.254,1,,,,,,0.121527778,-0.252083333,1,0,0,4.254,Diorite_rect,4,0,4,0,1,
638e4ace1c4a380ecc49932f,TCR,2024-06-24_14h49.47.789,LearnStrategy,2023.2.3,MacIntel,61.95786865,2,2,6,,,,,,,,4,16,,,,,,,,,,,1,7.286,0,,,,,,-0.356944444,-0.254166667,1,0,0,7.286,Andesite_rect,5,0,5,0,1,
638e4ace1c4a380ecc49932f,TCR,2024-06-24_14h49.47.789,LearnStrategy,2023.2.3,MacIntel,61.95786865,2,2,7,,,,,,,,4,08,,,,,,,,,,,4,7.664,1,,,,,,0.375694444,-0.247916667,1,0,0,7.664,Gabbro_rect,6,0,6,0,1,
638e4ace1c4a380ecc49932f,TCR,2024-06-24_14h49.47.789,LearnStrategy,2023.2.3,MacIntel,61.95786865,2,2,8,,,,,,,,2,14,,,,,,,,,,,6,10.081,0,,,,,,-0.06875,-0.394444444,1,0,0,10.081,Pegmatite_rect,7,0,7,0,1,
638e4ace1c4a380ecc49932f,TCR,2024-06-24_14h49.47.789,LearnStrategy,2023.2.3,MacIntel,61.95786865,2,2,9,,,,,,,,6,09,,,,,,,,,,,5,7.288,0,,,,,,-0.338888889,-0.400694444,1,0,0,7.288,Obsidian_rect,8,0,8,0,1,
638e4ace1c4a380ecc49932f,TCR,2024-06-24_14h49.47.789,LearnStrategy,2023.2.3,MacIntel,61.95786865,2,2,10,,,,,,,,7,12,,,,,,,,,,,3,5.087,0,,,,,,0.098611111,-0.261805556,1,0,0,5.087,Diorite_rect,9,0,9,0,1,
638e4ace1c4a380ecc49932f,TCR,2024-06-24_14h49.47.789,LearnStrategy,2023.2.3,MacIntel,61.95786865,2,2,11,,,,,,,,5,06,,,,,,,,,,,5,2.769,1,,,,,,-0.354166667,-0.391666667,1,0,0,2.769,Obsidian_rect,10,0,10,0,1,
638e4ace1c4a380ecc49932f,TCR,2024-06-24_14h49.47.789,LearnStrategy,2023.2.3,MacIntel,61.95786865,2,2,12,,,,,,,,3,09,,,,,,,,,,,6,5.139,0,,,,,,-0.106944444,-0.38125,1,0,0,5.139,Pegmatite_rect,11,0,11,0,1,
638e4ace1c4a380ecc49932f,TCR,2024-06-24_14h49.47.789,LearnStrategy,2023.2.3,MacIntel,61.95786865,2,2,13,,,,,,,,8,02,,,,,,,,,,,8,2.362,1,,,,,,0.38125,-0.3875,1,0,0,2.362,Pumice_rect,12,0,12,0,1,
638e4ace1c4a380ecc49932f,TCR,2024-06-24_14h49.47.789,LearnStrategy,2023.2.3,MacIntel,61.95786865,2,2,14,,,,,,,,1,14,,,,,,,,,,,4,6.337,0,,,,,,0.341666667,-0.243055556,1,0,0,6.337,Gabbro_rect,13,0,13,0,1,
638e4ace1c4a380ecc49932f,TCR,2024-06-24_14h49.47.789,LearnStrategy,2023.2.3,MacIntel,61.95786865,2,2,15,,,,,,,,7,16,,,,,,,,,,,3,10.432,0,,,,,,0.120138889,-0.240277778,1,0,0,10.432,Diorite_rect,14,0,14,0,1,
638e4ace1c4a380ecc49932f,TCR,2024-06-24_14h49.47.789,LearnStrategy,2023.2.3,MacIntel,61.95786865,2,2,16,,,,,,,,5,07,,,,,,,,,,,5,4.408,1,,,,,,-0.36875,-0.397222222,1,0,0,4.408,Obsidian_rect,15,0,15,0,1,
638e4ace1c4a380ecc49932f,TCR,2024-06-24_14h49.47.789,LearnStrategy,2023.2.3,MacIntel,61.95786865,3,1,1,0.040972222,-0.009722222,1,0,0,1.734,rock_grid_rect_2,3,14,-1,-1,1.734,0.097222222,-0.2375,1,0,0,4.136,Diorite_rect,3,4.136,1,0,0,0,0,1,,,,,,,,,,,,,
638e4ace1c4a380ecc49932f,TCR,2024-06-24_14h49.47.789,LearnStrategy,2023.2.3,MacIntel,61.95786865,3,1,2,-0.008333333,-0.015277778,1,0,0,1.814,rock_grid_rect_2,6,16,-1,-1,1.814,0.409722222,-0.258333333,1,0,0,5.281,Gabbro_rect,4,5.281,0,1,0,1,0,1,,,,,,,,,,,,,
638e4ace1c4a380ecc49932f,TCR,2024-06-24_14h49.47.789,LearnStrategy,2023.2.3,MacIntel,61.95786865,3,1,3,-0.001388889,0.007638889,1,0,0,2.244,rock_grid_rect_2,1,06,-1,-1,2.244,0.063194444,-0.401388889,1,0,0,6.604,Peridotite_rect,7,6.604,0,2,0,2,0,1,,,,,,,,,,,,,
638e4ace1c4a380ecc49932f,TCR,2024-06-24_14h49.47.789,LearnStrategy,2023.2.3,MacIntel,61.95786865,3,1,4,-0.004861111,-0.000694444,1,0,0,2.113,rock_grid_rect_2,7,05,-1,-1,2.113,0.107638889,-0.246527778,1,0,0,7.609,Diorite_rect,3,7.609,0,3,0,3,0,1,,,,,,,,,,,,,
638e4ace1c4a380ecc49932f,TCR,2024-06-24_14h49.47.789,LearnStrategy,2023.2.3,MacIntel,61.95786865,3,1,5,-0.007638889,0.002777778,1,0,0,2.09,rock_grid_rect_2,2,16,-1,-1,2.09,0.109722222,-0.242361111,1,0,0,9.588,Diorite_rect,3,9.588,0,4,0,4,0,1,,,,,,,,,,,,,
638e4ace1c4a380ecc49932f,TCR,2024-06-24_14h49.47.789,LearnStrategy,2023.2.3,MacIntel,61.95786865,3,1,6,-0.01875,0.002777778,1,0,0,2.444,rock_grid_rect_2,2,01,-1,-1,2.444,-0.147222222,-0.253472222,1,0,0,5.617,Basalt_rect,2,5.617,1,5,0,5,0,1,,,,,,,,,,,,,
638e4ace1c4a380ecc49932f,TCR,2024-06-24_14h49.47.789,LearnStrategy,2023.2.3,MacIntel,61.95786865,3,1,7,0.006944444,0.006944444,1,0,0,2.182,rock_grid_rect_2,5,09,-1,-1,2.182,-0.411111111,-0.395138889,1,0,0,1.783,Obsidian_rect,5,1.783,1,6,0,6,0,1,,,,,,,,,,,,,
638e4ace1c4a380ecc49932f,TCR,2024-06-24_14h49.47.789,LearnStrategy,2023.2.3,MacIntel,61.95786865,3,1,8,0.002777778,0.009027778,1,0,0,2.102,rock_grid_rect_2,3,13,-1,-1,2.102,-0.415277778,-0.246527778,1,0,0,4.578,Andesite_rect,1,4.578,0,7,0,7,0,1,,,,,,,,,,,,,
638e4ace1c4a380ecc49932f,TCR,2024-06-24_14h49.47.789,LearnStrategy,2023.2.3,MacIntel,61.95786865,3,1,9,0.070138889,0.00625,1,0,0,1.849,rock_grid_rect_2,1,06,-1,-1,1.849,-0.433333333,-0.253472222,1,0,0,2.687,Andesite_rect,1,2.687,1,8,0,8,0,1,,,,,,,,,,,,,
638e4ace1c4a380ecc49932f,TCR,2024-06-24_14h49.47.789,LearnStrategy,2023.2.3,MacIntel,61.95786865,3,1,10,0.009027778,0.002777778,1,0,0,1.557,rock_grid_rect_2,4,10,-1,-1,1.557,0.11875,-0.397916667,1,0,0,7.543,Peridotite_rect,7,7.543,0,9,0,9,0,1,,,,,,,,,,,,,
638e4ace1c4a380ecc49932f,TCR,2024-06-24_14h49.47.789,LearnStrategy,2023.2.3,MacIntel,61.95786865,3,1,11,-0.020138889,0.015972222,1,0,0,1.706,rock_grid_rect_2,1,10,-1,-1,1.706,0.434722222,-0.410416667,1,0,0,5.324,Pumice_rect,8,5.324,0,10,0,10,0,1,,,,,,,,,,,,,
638e4ace1c4a380ecc49932f,TCR,2024-06-24_14h49.47.789,LearnStrategy,2023.2.3,MacIntel,61.95786865,3,1,12,-0.005555556,-0.005555556,1,0,0,1.694,rock_grid_rect_2,4,12,-1,-1,1.694,-0.138194444,-0.401388889,1,0,0,7.814,Pegmatite_rect,6,7.814,0,11,0,11,0,1,,,,,,,,,,,,,
638e4ace1c4a380ecc49932f,TCR,2024-06-24_14h49.47.789,LearnStrategy,2023.2.3,MacIntel,61.95786865,3,1,13,0.002777778,-0.013888889,1,0,0,1.744,rock_grid_rect_2,7,08,-1,-1,1.744,0.077083333,-0.238888889,1,0,0,4.475,Diorite_rect,3,4.475,0,12,0,12,0,1,,,,,,,,,,,,,
638e4ace1c4a380ecc49932f,TCR,2024-06-24_14h49.47.789,LearnStrategy,2023.2.3,MacIntel,61.95786865,3,1,14,0,0.006944444,1,0,0,1.657,rock_grid_rect_2,8,05,-1,-1,1.657,0.394444444,-0.408333333,1,0,0,2.463,Pumice_rect,8,2.463,1,13,0,13,0,1,,,,,,,,,,,,,
638e4ace1c4a380ecc49932f,TCR,2024-06-24_14h49.47.789,LearnStrategy,2023.2.3,MacIntel,61.95786865,3,1,15,0.004861111,0.005555556,1,0,0,1.727,rock_grid_rect_2,7,05,-1,-1,1.727,-0.407638889,-0.397916667,1,0,0,4.926,Obsidian_rect,5,4.926,0,14,0,14,0,1,,,,,,,,,,,,,
638e4ace1c4a380ecc49932f,TCR,2024-06-24_14h49.47.789,LearnStrategy,2023.2.3,MacIntel,61.95786865,3,1,16,-0.004166667,-0.011111111,1,0,0,1.676,rock_grid_rect_2,6,10,-1,-1,1.676,-0.372916667,-0.39375,1,0,0,5.831,Obsidian_rect,5,5.831,0,15,0,15,0,1,,,,,,,,,,,,,
638e4ace1c4a380ecc49932f,TCR,2024-06-24_14h49.47.789,LearnStrategy,2023.2.3,MacIntel,61.95786865,3,2,1,,,,,,,,2,05,,,,,,,,,,,2,3.773,1,,,,,,-0.116666667,-0.263194444,1,0,0,3.773,Basalt_rect,0,0,0,0,1,
638e4ace1c4a380ecc49932f,TCR,2024-06-24_14h49.47.789,LearnStrategy,2023.2.3,MacIntel,61.95786865,3,2,2,,,,,,,,7,15,,,,,,,,,,,7,10.59,1,,,,,,0.074305556,-0.388888889,1,0,0,10.59,Peridotite_rect,1,0,1,0,1,
638e4ace1c4a380ecc49932f,TCR,2024-06-24_14h49.47.789,LearnStrategy,2023.2.3,MacIntel,61.95786865,3,2,3,,,,,,,,1,11,,,,,,,,,,,1,4.747,1,,,,,,-0.359027778,-0.264583333,1,0,0,4.747,Andesite_rect,2,0,2,0,1,
638e4ace1c4a380ecc49932f,TCR,2024-06-24_14h49.47.789,LearnStrategy,2023.2.3,MacIntel,61.95786865,3,2,4,,,,,,,,1,09,,,,,,,,,,,1,2.235,1,,,,,,-0.346527778,-0.264583333,1,0,0,2.235,Andesite_rect,3,0,3,0,1,
638e4ace1c4a380ecc49932f,TCR,2024-06-24_14h49.47.789,LearnStrategy,2023.2.3,MacIntel,61.95786865,3,2,5,,,,,,,,2,11,,,,,,,,,,,8,4.193,0,,,,,,0.347222222,-0.40625,1,0,0,4.193,Pumice_rect,4,0,4,0,1,
638e4ace1c4a380ecc49932f,TCR,2024-06-24_14h49.47.789,LearnStrategy,2023.2.3,MacIntel,61.95786865,3,2,6,,,,,,,,7,13,,,,,,,,,,,3,6.46,0,,,,,,0.121527778,-0.251388889,1,0,0,6.46,Diorite_rect,5,0,5,0,1,
638e4ace1c4a380ecc49932f,TCR,2024-06-24_14h49.47.789,LearnStrategy,2023.2.3,MacIntel,61.95786865,3,2,7,,,,,,,,8,09,,,,,,,,,,,8,2.998,1,,,,,,0.40625,-0.402083333,1,0,0,2.998,Pumice_rect,6,0,6,0,1,
638e4ace1c4a380ecc49932f,TCR,2024-06-24_14h49.47.789,LearnStrategy,2023.2.3,MacIntel,61.95786865,3,2,8,,,,,,,,4,05,,,,,,,,,,,4,3.659,1,,,,,,0.388888889,-0.248611111,1,0,0,3.659,Gabbro_rect,7,0,7,0,1,
638e4ace1c4a380ecc49932f,TCR,2024-06-24_14h49.47.789,LearnStrategy,2023.2.3,MacIntel,61.95786865,3,2,9,,,,,,,,6,06,,,,,,,,,,,5,5.791,0,,,,,,-0.381944444,-0.38125,1,0,0,5.791,Obsidian_rect,8,0,8,0,1,
638e4ace1c4a380ecc49932f,TCR,2024-06-24_14h49.47.789,LearnStrategy,2023.2.3,MacIntel,61.95786865,3,2,10,,,,,,,,5,12,,,,,,,,,,,5,4.051,1,,,,,,-0.384027778,-0.405555556,1,0,0,4.051,Obsidian_rect,9,0,9,0,1,
638e4ace1c4a380ecc49932f,TCR,2024-06-24_14h49.47.789,LearnStrategy,2023.2.3,MacIntel,61.95786865,3,2,11,,,,,,,,5,04,,,,,,,,,,,5,1.981,1,,,,,,-0.405555556,-0.404166667,1,0,0,1.981,Obsidian_rect,10,0,10,0,1,
638e4ace1c4a380ecc49932f,TCR,2024-06-24_14h49.47.789,LearnStrategy,2023.2.3,MacIntel,61.95786865,3,2,12,,,,,,,,8,16,,,,,,,,,,,8,2.389,1,,,,,,0.357638889,-0.397916667,1,0,0,2.389,Pumice_rect,11,0,11,0,1,
638e4ace1c4a380ecc49932f,TCR,2024-06-24_14h49.47.789,LearnStrategy,2023.2.3,MacIntel,61.95786865,3,2,13,,,,,,,,6,12,,,,,,,,,,,1,4.079,0,,,,,,-0.388888889,-0.245833333,1,0,0,4.079,Andesite_rect,12,0,12,0,1,
638e4ace1c4a380ecc49932f,TCR,2024-06-24_14h49.47.789,LearnStrategy,2023.2.3,MacIntel,61.95786865,3,2,14,,,,,,,,3,16,,,,,,,,,,,7,5.707,0,,,,,,0.086805556,-0.402777778,1,0,0,5.707,Peridotite_rect,13,0,13,0,1,
638e4ace1c4a380ecc49932f,TCR,2024-06-24_14h49.47.789,LearnStrategy,2023.2.3,MacIntel,61.95786865,3,2,15,,,,,,,,4,03,,,,,,,,,,,7,10.963,0,,,,,,0.088888889,-0.408333333,1,0,0,10.963,Peridotite_rect,14,0,14,0,1,
638e4ace1c4a380ecc49932f,TCR,2024-06-24_14h49.47.789,LearnStrategy,2023.2.3,MacIntel,61.95786865,3,2,16,,,,,,,,3,08,,,,,,,,,,,1,4.273,0,,,,,,-0.382638889,-0.246527778,1,0,0,4.273,Andesite_rect,15,0,15,0,1,
638e4ace1c4a380ecc49932f,TCR,2024-06-24_14h49.47.789,LearnStrategy,2023.2.3,MacIntel,61.95786865,4,1,1,-0.022916667,-0.001388889,1,0,0,1.923,rock_grid_rect_2,3,14,-1,-1,1.923,-0.397222222,-0.243055556,1,0,0,4.276,Andesite_rect,1,4.276,0,0,0,0,0,1,,,,,,,,,,,,,
638e4ace1c4a380ecc49932f,TCR,2024-06-24_14h49.47.789,LearnStrategy,2023.2.3,MacIntel,61.95786865,4,1,2,0.000694444,-0.000694444,1,0,0,2.291,rock_grid_rect_2,7,07,-1,-1,2.291,0.098611111,-0.388194444,1,0,0,3.922,Peridotite_rect,7,3.922,1,1,0,1,0,1,,,,,,,,,,,,,
638e4ace1c4a380ecc49932f,TCR,2024-06-24_14h49.47.789,LearnStrategy,2023.2.3,MacIntel,61.95786865,4,1,3,-0.034027778,-0.019444444,1,0,0,1.51,rock_grid_rect_2,4,10,-1,-1,1.51,0.389583333,-0.230555556,1,0,0,4.471,Gabbro_rect,4,4.471,1,2,0,2,0,1,,,,,,,,,,,,,
638e4ace1c4a380ecc49932f,TCR,2024-06-24_14h49.47.789,LearnStrategy,2023.2.3,MacIntel,61.95786865,4,1,4,0.034722222,-0.010416667,1,0,0,1.608,rock_grid_rect_2,6,05,-1,-1,1.608,-0.395138889,-0.255555556,1,0,0,5.477,Andesite_rect,1,5.477,0,3,0,3,0,1,,,,,,,,,,,,,
638e4ace1c4a380ecc49932f,TCR,2024-06-24_14h49.47.789,LearnStrategy,2023.2.3,MacIntel,61.95786865,4,1,5,0.002083333,-0.013194444,1,0,0,2.229,rock_grid_rect_2,3,14,-1,-1,2.229,-0.452083333,-0.250694444,1,0,0,7.128,Andesite_rect,1,7.128,0,4,0,4,0,1,,,,,,,,,,,,,
638e4ace1c4a380ecc49932f,TCR,2024-06-24_14h49.47.789,LearnStrategy,2023.2.3,MacIntel,61.95786865,4,1,6,0.039583333,-0.015277778,1,0,0,1.513,rock_grid_rect_2,3,06,-1,-1,1.513,-0.415972222,-0.247222222,1,0,0,4.066,Andesite_rect,1,4.066,0,5,0,5,0,1,,,,,,,,,,,,,
638e4ace1c4a380ecc49932f,TCR,2024-06-24_14h49.47.789,LearnStrategy,2023.2.3,MacIntel,61.95786865,4,1,7,0.036805556,0.004861111,1,0,0,1.724,rock_grid_rect_2,6,16,-1,-1,1.724,-0.426388889,-0.233333333,1,0,0,4.563,Andesite_rect,1,4.563,0,6,0,6,0,1,,,,,,,,,,,,,
638e4ace1c4a380ecc49932f,TCR,2024-06-24_14h49.47.789,LearnStrategy,2023.2.3,MacIntel,61.95786865,4,1,8,0.000694444,-0.006944444,1,0,0,1.365,rock_grid_rect_2,7,02,-1,-1,1.365,0.088888889,-0.243055556,1,0,0,7.134,Diorite_rect,3,7.134,0,7,0,7,0,1,,,,,,,,,,,,,
638e4ace1c4a380ecc49932f,TCR,2024-06-24_14h49.47.789,LearnStrategy,2023.2.3,MacIntel,61.95786865,4,1,9,-0.013194444,0,1,0,0,1.825,rock_grid_rect_2,6,10,-1,-1,1.825,0.129861111,-0.255555556,1,0,0,6.812,Diorite_rect,3,6.812,0,8,0,8,0,1,,,,,,,,,,,,,
638e4ace1c4a380ecc49932f,TCR,2024-06-24_14h49.47.789,LearnStrategy,2023.2.3,MacIntel,61.95786865,4,1,10,-0.016666667,-0.006944444,1,0,0,1.988,rock_grid_rect_2,7,04,-1,-1,1.988,-0.125,-0.395833333,1,0,0,7.191,Pegmatite_rect,6,7.191,0,9,0,9,0,1,,,,,,,,,,,,,
638e4ace1c4a380ecc49932f,TCR,2024-06-24_14h49.47.789,LearnStrategy,2023.2.3,MacIntel,61.95786865,4,1,11,0.025,-0.005555556,1,0,0,1.487,rock_grid_rect_2,8,05,-1,-1,1.487,0.395138889,-0.408333333,1,0,0,1.914,Pumice_rect,8,1.914,1,10,0,10,0,1,,,,,,,,,,,,,
638e4ace1c4a380ecc49932f,TCR,2024-06-24_14h49.47.789,LearnStrategy,2023.2.3,MacIntel,61.95786865,4,1,12,0.006944444,-0.017361111,1,0,0,1.375,rock_grid_rect_2,1,10,-1,-1,1.375,0.383333333,-0.395833333,1,0,0,3.212,Pumice_rect,8,3.212,0,11,0,11,0,1,,,,,,,,,,,,,
638e4ace1c4a380ecc49932f,TCR,2024-06-24_14h49.47.789,LearnStrategy,2023.2.3,MacIntel,61.95786865,4,1,13,-0.022916667,-0.006944444,1,0,0,2.059,rock_grid_rect_2,2,16,-1,-1,2.059,-0.138888889,-0.240972222,1,0,0,3.302,Basalt_rect,2,3.302,1,12,0,12,0,1,,,,,,,,,,,,,
638e4ace1c4a380ecc49932f,TCR,2024-06-24_14h49.47.789,LearnStrategy,2023.2.3,MacIntel,61.95786865,4,1,14,0.002777778,0.00625,1,0,0,2.095,rock_grid_rect_2,4,01,-1,-1,2.095,0.104166667,-0.409722222,1,0,0,6.443,Peridotite_rect,7,6.443,0,13,0,13,0,1,,,,,,,,,,,,,
638e4ace1c4a380ecc49932f,TCR,2024-06-24_14h49.47.789,LearnStrategy,2023.2.3,MacIntel,61.95786865,4,1,15,-0.013888889,0.0125,1,0,0,2.023,rock_grid_rect_2,1,16,-1,-1,2.023,-0.41875,-0.243055556,1,0,0,3.217,Andesite_rect,1,3.217,1,14,0,14,0,1,,,,,,,,,,,,,
638e4ace1c4a380ecc49932f,TCR,2024-06-24_14h49.47.789,LearnStrategy,2023.2.3,MacIntel,61.95786865,4,1,16,0.016666667,0.001388889,1,0,0,2.048,rock_grid_rect_2,2,01,-1,-1,2.048,-0.141666667,-0.234722222,1,0,0,2.956,Basalt_rect,2,2.956,1,15,0,15,0,1,,,,,,,,,,,,,
638e4ace1c4a380ecc49932f,TCR,2024-06-24_14h49.47.789,LearnStrategy,2023.2.3,MacIntel,61.95786865,4,2,1,,,,,,,,7,13,,,,,,,,,,,3,9.523,0,,,,,,0.100694444,-0.232638889,1,0,0,9.523,Diorite_rect,0,0,0,0,1,
638e4ace1c4a380ecc49932f,TCR,2024-06-24_14h49.47.789,LearnStrategy,2023.2.3,MacIntel,61.95786865,4,2,2,,,,,,,,6,11,,,,,,,,,,,6,9.553,1,,,,,,-0.135416667,-0.411111111,1,0,0,9.553,Pegmatite_rect,1,0,1,0,1,
638e4ace1c4a380ecc49932f,TCR,2024-06-24_14h49.47.789,LearnStrategy,2023.2.3,MacIntel,61.95786865,4,2,3,,,,,,,,2,02,,,,,,,,,,,2,2.294,1,,,,,,-0.140972222,-0.258333333,1,0,0,2.294,Basalt_rect,2,0,2,0,1,
638e4ace1c4a380ecc49932f,TCR,2024-06-24_14h49.47.789,LearnStrategy,2023.2.3,MacIntel,61.95786865,4,2,4,,,,,,,,1,11,,,,,,,,,,,1,2.014,1,,,,,,-0.381944444,-0.245138889,1,0,0,2.014,Andesite_rect,3,0,3,0,1,
638e4ace1c4a380ecc49932f,TCR,2024-06-24_14h49.47.789,LearnStrategy,2023.2.3,MacIntel,61.95786865,4,2,5,,,,,,,,3,09,,,,,,,,,,,3,2.347,1,,,,,,0.144444444,-0.255555556,1,0,0,2.347,Diorite_rect,4,0,4,0,1,
638e4ace1c4a380ecc49932f,TCR,2024-06-24_14h49.47.789,LearnStrategy,2023.2.3,MacIntel,61.95786865,4,2,6,,,,,,,,8,08,,,,,,,,,,,8,2.181,1,,,,,,0.329861111,-0.392361111,1,0,0,2.181,Pumice_rect,5,0,5,0,1,
638e4ace1c4a380ecc49932f,TCR,2024-06-24_14h49.47.789,LearnStrategy,2023.2.3,MacIntel,61.95786865,4,2,7,,,,,,,,2,09,,,,,,,,,,,2,3.792,1,,,,,,-0.154166667,-0.235416667,1,0,0,3.792,Basalt_rect,6,0,6,0,1,
638e4ace1c4a380ecc49932f,TCR,2024-06-24_14h49.47.789,LearnStrategy,2023.2.3,MacIntel,61.95786865,4,2,8,,,,,,,,5,12,,,,,,,,,,,5,1.776,1,,,,,,-0.363888889,-0.399305556,1,0,0,1.776,Obsidian_rect,7,0,7,0,1,
638e4ace1c4a380ecc49932f,TCR,2024-06-24_14h49.47.789,LearnStrategy,2023.2.3,MacIntel,61.95786865,4,2,9,,,,,,,,4,05,,,,,,,,,,,4,3.366,1,,,,,,0.338888889,-0.248611111,1,0,0,3.366,Gabbro_rect,8,0,8,0,1,
638e4ace1c4a380ecc49932f,TCR,2024-06-24_14h49.47.789,LearnStrategy,2023.2.3,MacIntel,61.95786865,4,2,10,,,,,,,,3,16,,,,,,,,,,,7,4.251,0,,,,,,0.134722222,-0.390277778,1,0,0,4.251,Peridotite_rect,9,0,9,0,1,
638e4ace1c4a380ecc49932f,TCR,2024-06-24_14h49.47.789,LearnStrategy,2023.2.3,MacIntel,61.95786865,4,2,11,,,,,,,,8,09,,,,,,,,,,,8,1.793,1,,,,,,0.376388889,-0.388888889,1,0,0,1.793,Pumice_rect,10,0,10,0,1,
638e4ace1c4a380ecc49932f,TCR,2024-06-24_14h49.47.789,LearnStrategy,2023.2.3,MacIntel,61.95786865,4,2,12,,,,,,,,4,16,,,,,,,,,,,2,1.719,0,,,,,,-0.153472222,-0.244444444,1,0,0,1.719,Basalt_rect,11,0,11,0,1,
638e4ace1c4a380ecc49932f,TCR,2024-06-24_14h49.47.789,LearnStrategy,2023.2.3,MacIntel,61.95786865,4,2,13,,,,,,,,7,12,,,,,,,,,,,3,13.17,0,,,,,,0.071527778,-0.260416667,1,0,0,13.17,Diorite_rect,12,0,12,0,1,
638e4ace1c4a380ecc49932f,TCR,2024-06-24_14h49.47.789,LearnStrategy,2023.2.3,MacIntel,61.95786865,4,2,14,,,,,,,,6,13,,,,,,,,,,,7,4.472,0,,,,,,0.090277778,-0.4,1,0,0,4.472,Peridotite_rect,13,0,13,0,1,
638e4ace1c4a380ecc49932f,TCR,2024-06-24_14h49.47.789,LearnStrategy,2023.2.3,MacIntel,61.95786865,4,2,15,,,,,,,,1,04,,,,,,,,,,,1,2.668,1,,,,,,-0.384722222,-0.259027778,1,0,0,2.668,Andesite_rect,14,0,14,0,1,
638e4ace1c4a380ecc49932f,TCR,2024-06-24_14h49.47.789,LearnStrategy,2023.2.3,MacIntel,61.95786865,4,2,16,,,,,,,,5,05,,,,,,,,,,,5,1.973,1,,,,,,-0.355555556,-0.415277778,1,0,0,1.973,Obsidian_rect,15,0,15,0,1,
638e4ace1c4a380ecc49932f,TCR,2024-06-24_14h49.47.789,LearnStrategy,2023.2.3,MacIntel,61.95786865,5,1,1,0.008333333,-0.004861111,1,0,0,2.508,rock_grid_rect_2,6,15,-1,-1,2.508,0.088888889,-0.246527778,1,0,0,5.16,Diorite_rect,3,5.16,0,0,0,0,0,1,,,,,,,,,,,,,
638e4ace1c4a380ecc49932f,TCR,2024-06-24_14h49.47.789,LearnStrategy,2023.2.3,MacIntel,61.95786865,5,1,2,0.009027778,-0.005555556,1,0,0,1.468,rock_grid_rect_2,6,03,-1,-1,1.468,-0.15,-0.406944444,1,0,0,4.329,Pegmatite_rect,6,4.329,1,1,0,1,0,1,,,,,,,,,,,,,
638e4ace1c4a380ecc49932f,TCR,2024-06-24_14h49.47.789,LearnStrategy,2023.2.3,MacIntel,61.95786865,5,1,3,0.004166667,-0.011111111,1,0,0,1.613,rock_grid_rect_2,4,09,-1,-1,1.613,0.366666667,-0.24375,1,0,0,2.448,Gabbro_rect,4,2.448,1,2,0,2,0,1,,,,,,,,,,,,,
638e4ace1c4a380ecc49932f,TCR,2024-06-24_14h49.47.789,LearnStrategy,2023.2.3,MacIntel,61.95786865,5,1,4,-0.019444444,-0.004861111,1,0,0,1.411,rock_grid_rect_2,7,08,-1,-1,1.411,-0.16875,-0.390972222,1,0,0,8.76,Pegmatite_rect,6,8.76,0,3,0,3,0,1,,,,,,,,,,,,,
638e4ace1c4a380ecc49932f,TCR,2024-06-24_14h49.47.789,LearnStrategy,2023.2.3,MacIntel,61.95786865,5,1,5,0.004166667,-0.009027778,1,0,0,1.82,rock_grid_rect_2,8,03,-1,-1,1.82,0.3875,-0.411805556,1,0,0,2.692,Pumice_rect,8,2.692,1,4,0,4,0,1,,,,,,,,,,,,,
638e4ace1c4a380ecc49932f,TCR,2024-06-24_14h49.47.789,LearnStrategy,2023.2.3,MacIntel,61.95786865,5,1,6,-0.01875,0.00625,1,0,0,2.05,rock_grid_rect_2,7,05,-1,-1,2.05,0.086111111,-0.408333333,1,0,0,11.731,Peridotite_rect,7,11.731,1,5,0,5,0,1,,,,,,,,,,,,,
638e4ace1c4a380ecc49932f,TCR,2024-06-24_14h49.47.789,LearnStrategy,2023.2.3,MacIntel,61.95786865,5,1,7,-0.03125,0,1,0,0,1.929,rock_grid_rect_2,2,06,-1,-1,1.929,-0.13125,-0.228472222,1,0,0,2.289,Basalt_rect,2,2.289,1,6,0,6,0,1,,,,,,,,,,,,,
638e4ace1c4a380ecc49932f,TCR,2024-06-24_14h49.47.789,LearnStrategy,2023.2.3,MacIntel,61.95786865,5,1,8,0.002083333,0.000694444,1,0,0,1.482,rock_grid_rect_2,7,07,-1,-1,1.482,0.398611111,-0.240972222,1,0,0,3.157,Gabbro_rect,4,3.157,0,7,0,7,0,1,,,,,,,,,,,,,
638e4ace1c4a380ecc49932f,TCR,2024-06-24_14h49.47.789,LearnStrategy,2023.2.3,MacIntel,61.95786865,5,1,9,-0.00625,0.005555556,1,0,0,2.2,rock_grid_rect_2,7,04,-1,-1,2.2,0.127083333,-0.261111111,1,0,0,3.06,Diorite_rect,3,3.06,0,8,0,8,0,1,,,,,,,,,,,,,
638e4ace1c4a380ecc49932f,TCR,2024-06-24_14h49.47.789,LearnStrategy,2023.2.3,MacIntel,61.95786865,5,1,10,-0.0125,0.004166667,1,0,0,1.792,rock_grid_rect_2,3,13,-1,-1,1.792,0.076388889,-0.239583333,1,0,0,7.743,Diorite_rect,3,7.743,1,9,0,9,0,1,,,,,,,,,,,,,
638e4ace1c4a380ecc49932f,TCR,2024-06-24_14h49.47.789,LearnStrategy,2023.2.3,MacIntel,61.95786865,5,1,11,0.001388889,-0.007638889,1,0,0,1.496,rock_grid_rect_2,5,02,-1,-1,1.496,-0.407638889,-0.410416667,1,0,0,1.921,Obsidian_rect,5,1.921,1,10,0,10,0,1,,,,,,,,,,,,,
638e4ace1c4a380ecc49932f,TCR,2024-06-24_14h49.47.789,LearnStrategy,2023.2.3,MacIntel,61.95786865,5,1,12,-0.006944444,-0.002083333,1,0,0,1.583,rock_grid_rect_2,1,16,-1,-1,1.583,-0.422222222,-0.251388889,1,0,0,2.381,Andesite_rect,1,2.381,1,11,0,11,0,1,,,,,,,,,,,,,
638e4ace1c4a380ecc49932f,TCR,2024-06-24_14h49.47.789,LearnStrategy,2023.2.3,MacIntel,61.95786865,5,1,13,0.00625,-0.009722222,1,0,0,1.572,rock_grid_rect_2,6,05,-1,-1,1.572,0.085416667,-0.379861111,1,0,0,4.168,Peridotite_rect,7,4.168,0,12,0,12,0,1,,,,,,,,,,,,,
638e4ace1c4a380ecc49932f,TCR,2024-06-24_14h49.47.789,LearnStrategy,2023.2.3,MacIntel,61.95786865,5,1,14,-0.000694444,-0.016666667,1,0,0,1.612,rock_grid_rect_2,4,13,-1,-1,1.612,-0.132638889,-0.243055556,1,0,0,3.346,Basalt_rect,2,3.346,0,13,0,13,0,1,,,,,,,,,,,,,
638e4ace1c4a380ecc49932f,TCR,2024-06-24_14h49.47.789,LearnStrategy,2023.2.3,MacIntel,61.95786865,5,1,15,0.008333333,-0.001388889,1,0,0,1.702,rock_grid_rect_2,3,13,-1,-1,1.702,0.110416667,-0.252777778,1,0,0,5.339,Diorite_rect,3,5.339,1,14,0,14,0,1,,,,,,,,,,,,,
638e4ace1c4a380ecc49932f,TCR,2024-06-24_14h49.47.789,LearnStrategy,2023.2.3,MacIntel,61.95786865,5,1,16,-0.002083333,-0.015277778,1,0,0,1.699,rock_grid_rect_2,3,07,-1,-1,1.699,0.127083333,-0.244444444,1,0,0,4.734,Diorite_rect,3,4.734,1,15,0,15,0,1,,,,,,,,,,,,,
638e4ace1c4a380ecc49932f,TCR,2024-06-24_14h49.47.789,LearnStrategy,2023.2.3,MacIntel,61.95786865,5,2,1,,,,,,,,2,05,,,,,,,,,,,2,2.672,1,,,,,,-0.174305556,-0.259722222,1,0,0,2.672,Basalt_rect,0,0,0,0,1,
638e4ace1c4a380ecc49932f,TCR,2024-06-24_14h49.47.789,LearnStrategy,2023.2.3,MacIntel,61.95786865,5,2,2,,,,,,,,1,14,,,,,,,,,,,3,8.219,0,,,,,,0.120138889,-0.256944444,1,0,0,8.219,Diorite_rect,1,0,1,0,1,
638e4ace1c4a380ecc49932f,TCR,2024-06-24_14h49.47.789,LearnStrategy,2023.2.3,MacIntel,61.95786865,5,2,3,,,,,,,,7,16,,,,,,,,,,,7,6.253,1,,,,,,0.106944444,-0.409722222,1,0,0,6.253,Peridotite_rect,2,0,2,0,1,
638e4ace1c4a380ecc49932f,TCR,2024-06-24_14h49.47.789,LearnStrategy,2023.2.3,MacIntel,61.95786865,5,2,4,,,,,,,,5,06,,,,,,,,,,,5,1.73,1,,,,,,-0.347222222,-0.392361111,1,0,0,1.73,Obsidian_rect,3,0,3,0,1,
638e4ace1c4a380ecc49932f,TCR,2024-06-24_14h49.47.789,LearnStrategy,2023.2.3,MacIntel,61.95786865,5,2,5,,,,,,,,8,02,,,,,,,,,,,8,2.196,1,,,,,,0.354166667,-0.378472222,1,0,0,2.196,Pumice_rect,4,0,4,0,1,
638e4ace1c4a380ecc49932f,TCR,2024-06-24_14h49.47.789,LearnStrategy,2023.2.3,MacIntel,61.95786865,5,2,6,,,,,,,,6,09,,,,,,,,,,,3,5.815,0,,,,,,0.122916667,-0.2625,1,0,0,5.815,Diorite_rect,5,0,5,0,1,
638e4ace1c4a380ecc49932f,TCR,2024-06-24_14h49.47.789,LearnStrategy,2023.2.3,MacIntel,61.95786865,5,2,7,,,,,,,,6,07,,,,,,,,,,,3,2.306,0,,,,,,0.125,-0.25625,1,0,0,2.306,Diorite_rect,6,0,6,0,1,
638e4ace1c4a380ecc49932f,TCR,2024-06-24_14h49.47.789,LearnStrategy,2023.2.3,MacIntel,61.95786865,5,2,8,,,,,,,,2,14,,,,,,,,,,,2,2.726,1,,,,,,-0.160416667,-0.235416667,1,0,0,2.726,Basalt_rect,7,0,7,0,1,
638e4ace1c4a380ecc49932f,TCR,2024-06-24_14h49.47.789,LearnStrategy,2023.2.3,MacIntel,61.95786865,5,2,9,,,,,,,,4,11,,,,,,,,,,,7,6.59,0,,,,,,0.085416667,-0.401388889,1,0,0,6.59,Peridotite_rect,8,0,8,0,1,
638e4ace1c4a380ecc49932f,TCR,2024-06-24_14h49.47.789,LearnStrategy,2023.2.3,MacIntel,61.95786865,5,2,10,,,,,,,,8,15,,,,,,,,,,,8,1.471,1,,,,,,0.433333333,-0.397222222,1,0,0,1.471,Pumice_rect,9,0,9,0,1,
638e4ace1c4a380ecc49932f,TCR,2024-06-24_14h49.47.789,LearnStrategy,2023.2.3,MacIntel,61.95786865,5,2,11,,,,,,,,4,14,,,,,,,,,,,2,2.046,0,,,,,,-0.108333333,-0.265277778,1,0,0,2.046,Basalt_rect,10,0,10,0,1,
638e4ace1c4a380ecc49932f,TCR,2024-06-24_14h49.47.789,LearnStrategy,2023.2.3,MacIntel,61.95786865,5,2,12,,,,,,,,3,15,,,,,,,,,,,6,5.998,0,,,,,,-0.133333333,-0.394444444,1,0,0,5.998,Pegmatite_rect,11,0,11,0,1,
638e4ace1c4a380ecc49932f,TCR,2024-06-24_14h49.47.789,LearnStrategy,2023.2.3,MacIntel,61.95786865,5,2,13,,,,,,,,5,04,,,,,,,,,,,5,1.556,1,,,,,,-0.378472222,-0.386111111,1,0,0,1.556,Obsidian_rect,12,0,12,0,1,
638e4ace1c4a380ecc49932f,TCR,2024-06-24_14h49.47.789,LearnStrategy,2023.2.3,MacIntel,61.95786865,5,2,14,,,,,,,,3,08,,,,,,,,,,,3,2.787,1,,,,,,0.082638889,-0.244444444,1,0,0,2.787,Diorite_rect,13,0,13,0,1,
638e4ace1c4a380ecc49932f,TCR,2024-06-24_14h49.47.789,LearnStrategy,2023.2.3,MacIntel,61.95786865,5,2,15,,,,,,,,1,09,,,,,,,,,,,1,2.606,1,,,,,,-0.33125,-0.261111111,1,0,0,2.606,Andesite_rect,14,0,14,0,1,
638e4ace1c4a380ecc49932f,TCR,2024-06-24_14h49.47.789,LearnStrategy,2023.2.3,MacIntel,61.95786865,5,2,16,,,,,,,,7,15,,,,,,,,,,,3,4.823,0,,,,,,0.111111111,-0.255555556,1,0,0,4.823,Diorite_rect,15,0,15,0,1,
638e4ace1c4a380ecc49932f,TCR,2024-06-24_14h49.47.789,LearnStrategy,2023.2.3,MacIntel,61.95786865,6,1,1,-0.014583333,-0.007638889,1,0,0,1.614,rock_grid_rect_2,4,01,-1,-1,1.614,0.082638889,-0.251388889,1,0,0,4.715,Diorite_rect,3,4.715,0,0,0,0,0,1,,,,,,,,,,,,,
638e4ace1c4a380ecc49932f,TCR,2024-06-24_14h49.47.789,LearnStrategy,2023.2.3,MacIntel,61.95786865,6,1,2,0.003472222,-0.009722222,1,0,0,1.387,rock_grid_rect_2,6,15,-1,-1,1.387,0.125694444,-0.258333333,1,0,0,1.98,Diorite_rect,3,1.98,0,1,0,1,0,1,,,,,,,,,,,,,
638e4ace1c4a380ecc49932f,TCR,2024-06-24_14h49.47.789,LearnStrategy,2023.2.3,MacIntel,61.95786865,6,1,3,-0.008333333,0.009027778,1,0,0,1.762,rock_grid_rect_2,4,09,-1,-1,1.762,0.345833333,-0.234722222,1,0,0,4.405,Gabbro_rect,4,4.405,1,2,0,2,0,1,,,,,,,,,,,,,
638e4ace1c4a380ecc49932f,TCR,2024-06-24_14h49.47.789,LearnStrategy,2023.2.3,MacIntel,61.95786865,6,1,4,-0.010416667,-0.004861111,1,0,0,2.072,rock_grid_rect_2,8,04,-1,-1,2.072,0.340972222,-0.390277778,1,0,0,1.878,Pumice_rect,8,1.878,1,3,0,3,0,1,,,,,,,,,,,,,
638e4ace1c4a380ecc49932f,TCR,2024-06-24_14h49.47.789,LearnStrategy,2023.2.3,MacIntel,61.95786865,6,1,5,0.007638889,0.009027778,1,0,0,1.474,rock_grid_rect_2,1,07,-1,-1,1.474,-0.399305556,-0.232638889,1,0,0,1.825,Andesite_rect,1,1.825,1,4,0,4,0,1,,,,,,,,,,,,,
638e4ace1c4a380ecc49932f,TCR,2024-06-24_14h49.47.789,LearnStrategy,2023.2.3,MacIntel,61.95786865,6,1,6,0.002083333,0.002777778,1,0,0,1.864,rock_grid_rect_2,6,15,-1,-1,1.864,-0.127083333,-0.395138889,1,0,0,2.919,Pegmatite_rect,6,2.919,1,5,0,5,0,1,,,,,,,,,,,,,
638e4ace1c4a380ecc49932f,TCR,2024-06-24_14h49.47.789,LearnStrategy,2023.2.3,MacIntel,61.95786865,6,1,7,0.002777778,0.005555556,1,0,0,1.633,rock_grid_rect_2,3,10,-1,-1,1.633,-0.415972222,-0.235416667,1,0,0,3.122,Andesite_rect,1,3.122,0,6,0,6,0,1,,,,,,,,,,,,,
638e4ace1c4a380ecc49932f,TCR,2024-06-24_14h49.47.789,LearnStrategy,2023.2.3,MacIntel,61.95786865,6,1,8,0.019444444,0.002777778,1,0,0,1.489,rock_grid_rect_2,3,13,-1,-1,1.489,0.107638889,-0.263888889,1,0,0,5.396,Diorite_rect,3,5.396,1,7,0,7,0,1,,,,,,,,,,,,,
638e4ace1c4a380ecc49932f,TCR,2024-06-24_14h49.47.789,LearnStrategy,2023.2.3,MacIntel,61.95786865,6,1,9,0.011111111,0.009027778,1,0,0,1.602,rock_grid_rect_2,7,08,-1,-1,1.602,0.066666667,-0.390277778,1,0,0,5.965,Peridotite_rect,7,5.965,1,8,0,8,0,1,,,,,,,,,,,,,
638e4ace1c4a380ecc49932f,TCR,2024-06-24_14h49.47.789,LearnStrategy,2023.2.3,MacIntel,61.95786865,6,1,10,0.0375,-0.003472222,1,0,0,1.281,rock_grid_rect_2,2,16,-1,-1,1.281,-0.136111111,-0.254861111,1,0,0,2.873,Basalt_rect,2,2.873,1,9,0,9,0,1,,,,,,,,,,,,,
638e4ace1c4a380ecc49932f,TCR,2024-06-24_14h49.47.789,LearnStrategy,2023.2.3,MacIntel,61.95786865,6,1,11,0.030555556,-0.01875,1,0,0,1.438,rock_grid_rect_2,7,10,-1,-1,1.438,0.09375,-0.236805556,1,0,0,4.781,Diorite_rect,3,4.781,0,10,0,10,0,1,,,,,,,,,,,,,
638e4ace1c4a380ecc49932f,TCR,2024-06-24_14h49.47.789,LearnStrategy,2023.2.3,MacIntel,61.95786865,6,1,12,-0.008333333,-0.000694444,1,0,0,2.534,rock_grid_rect_2,4,09,-1,-1,2.534,0.367361111,-0.236111111,1,0,0,4.406,Gabbro_rect,4,4.406,1,11,0,11,0,1,,,,,,,,,,,,,
638e4ace1c4a380ecc49932f,TCR,2024-06-24_14h49.47.789,LearnStrategy,2023.2.3,MacIntel,61.95786865,6,1,13,-0.005555556,-0.010416667,1,0,0,1.748,rock_grid_rect_2,7,10,-1,-1,1.748,0.097916667,-0.4125,1,0,0,4.972,Peridotite_rect,7,4.972,1,12,0,12,0,1,,,,,,,,,,,,,
638e4ace1c4a380ecc49932f,TCR,2024-06-24_14h49.47.789,LearnStrategy,2023.2.3,MacIntel,61.95786865,6,1,14,-0.016666667,-0.009027778,1,0,0,1.6,rock_grid_rect_2,1,16,-1,-1,1.6,-0.409722222,-0.236805556,1,0,0,2.132,Andesite_rect,1,2.132,1,13,0,13,0,1,,,,,,,,,,,,,
638e4ace1c4a380ecc49932f,TCR,2024-06-24_14h49.47.789,LearnStrategy,2023.2.3,MacIntel,61.95786865,6,1,15,-0.009027778,-0.000694444,1,0,0,1.301,rock_grid_rect_2,3,06,-1,-1,1.301,0.107638889,-0.247222222,1,0,0,3.198,Diorite_rect,3,3.198,1,14,0,14,0,1,,,,,,,,,,,,,
638e4ace1c4a380ecc49932f,TCR,2024-06-24_14h49.47.789,LearnStrategy,2023.2.3,MacIntel,61.95786865,6,1,16,-0.003472222,0,1,0,0,1.425,rock_grid_rect_2,6,03,-1,-1,1.425,-0.140972222,-0.389583333,1,0,0,2.086,Pegmatite_rect,6,2.086,1,15,0,15,0,1,,,,,,,,,,,,,
638e4ace1c4a380ecc49932f,TCR,2024-06-24_14h49.47.789,LearnStrategy,2023.2.3,MacIntel,61.95786865,6,2,1,,,,,,,,6,06,,,,,,,,,,,6,3.573,1,,,,,,-0.093055556,-0.388888889,1,0,0,3.573,Pegmatite_rect,0,0,0,0,1,
638e4ace1c4a380ecc49932f,TCR,2024-06-24_14h49.47.789,LearnStrategy,2023.2.3,MacIntel,61.95786865,6,2,2,,,,,,,,7,14,,,,,,,,,,,3,5.39,0,,,,,,0.099305556,-0.238194444,1,0,0,5.39,Diorite_rect,1,0,1,0,1,
638e4ace1c4a380ecc49932f,TCR,2024-06-24_14h49.47.789,LearnStrategy,2023.2.3,MacIntel,61.95786865,6,2,3,,,,,,,,2,11,,,,,,,,,,,4,6.627,0,,,,,,0.374305556,-0.255555556,1,0,0,6.627,Gabbro_rect,2,0,2,0,1,
638e4ace1c4a380ecc49932f,TCR,2024-06-24_14h49.47.789,LearnStrategy,2023.2.3,MacIntel,61.95786865,6,2,4,,,,,,,,5,07,,,,,,,,,,,5,2.466,1,,,,,,-0.428472222,-0.403472222,1,0,0,2.466,Obsidian_rect,3,0,3,0,1,
638e4ace1c4a380ecc49932f,TCR,2024-06-24_14h49.47.789,LearnStrategy,2023.2.3,MacIntel,61.95786865,6,2,5,,,,,,,,6,12,,,,,,,,,,,6,1.977,1,,,,,,-0.121527778,-0.4,1,0,0,1.977,Pegmatite_rect,4,0,4,0,1,
638e4ace1c4a380ecc49932f,TCR,2024-06-24_14h49.47.789,LearnStrategy,2023.2.3,MacIntel,61.95786865,6,2,6,,,,,,,,8,16,,,,,,,,,,,2,3.215,0,,,,,,-0.139583333,-0.244444444,1,0,0,3.215,Basalt_rect,5,0,5,0,1,
638e4ace1c4a380ecc49932f,TCR,2024-06-24_14h49.47.789,LearnStrategy,2023.2.3,MacIntel,61.95786865,6,2,7,,,,,,,,1,01,,,,,,,,,,,1,9.29,1,,,,,,-0.348611111,-0.249305556,1,0,0,9.29,Andesite_rect,6,0,6,0,1,
638e4ace1c4a380ecc49932f,TCR,2024-06-24_14h49.47.789,LearnStrategy,2023.2.3,MacIntel,61.95786865,6,2,8,,,,,,,,2,10,,,,,,,,,,,2,2.201,1,,,,,,-0.136111111,-0.255555556,1,0,0,2.201,Basalt_rect,7,0,7,0,1,
638e4ace1c4a380ecc49932f,TCR,2024-06-24_14h49.47.789,LearnStrategy,2023.2.3,MacIntel,61.95786865,6,2,9,,,,,,,,4,03,,,,,,,,,,,7,7.514,0,,,,,,0.126388889,-0.4,1,0,0,7.514,Peridotite_rect,8,0,8,0,1,
638e4ace1c4a380ecc49932f,TCR,2024-06-24_14h49.47.789,LearnStrategy,2023.2.3,MacIntel,61.95786865,6,2,10,,,,,,,,3,02,,,,,,,,,,,7,9.99,0,,,,,,0.116666667,-0.394444444,1,0,0,9.99,Peridotite_rect,9,0,9,0,1,
638e4ace1c4a380ecc49932f,TCR,2024-06-24_14h49.47.789,LearnStrategy,2023.2.3,MacIntel,61.95786865,6,2,11,,,,,,,,5,10,,,,,,,,,,,5,2.94,1,,,,,,-0.377777778,-0.397222222,1,0,0,2.94,Obsidian_rect,10,0,10,0,1,
638e4ace1c4a380ecc49932f,TCR,2024-06-24_14h49.47.789,LearnStrategy,2023.2.3,MacIntel,61.95786865,6,2,12,,,,,,,,7,06,,,,,,,,,,,3,4.844,0,,,,,,0.11875,-0.256944444,1,0,0,4.844,Diorite_rect,11,0,11,0,1,
638e4ace1c4a380ecc49932f,TCR,2024-06-24_14h49.47.789,LearnStrategy,2023.2.3,MacIntel,61.95786865,6,2,13,,,,,,,,3,12,,,,,,,,,,,3,3.89,1,,,,,,0.118055556,-0.245833333,1,0,0,3.89,Diorite_rect,12,0,12,0,1,
638e4ace1c4a380ecc49932f,TCR,2024-06-24_14h49.47.789,LearnStrategy,2023.2.3,MacIntel,61.95786865,6,2,14,,,,,,,,4,08,,,,,,,,,,,4,1.826,1,,,,,,0.366666667,-0.239583333,1,0,0,1.826,Gabbro_rect,13,0,13,0,1,
638e4ace1c4a380ecc49932f,TCR,2024-06-24_14h49.47.789,LearnStrategy,2023.2.3,MacIntel,61.95786865,6,2,15,,,,,,,,1,02,,,,,,,,,,,1,2.393,1,,,,,,-0.442361111,-0.252777778,1,0,0,2.393,Andesite_rect,14,0,14,0,1,
638e4ace1c4a380ecc49932f,TCR,2024-06-24_14h49.47.789,LearnStrategy,2023.2.3,MacIntel,61.95786865,6,2,16,,,,,,,,8,14,,,,,,,,,,,8,1.795,1,,,,,,0.354861111,-0.395138889,1,0,0,1.795,Pumice_rect,15,0,15,0,1,
638e4ace1c4a380ecc49932f,TCR,2024-06-24_14h49.47.789,LearnStrategy,2023.2.3,MacIntel,61.95786865,7,1,1,-0.036805556,-0.002083333,1,0,0,1.912,rock_grid_rect_2,1,16,-1,-1,1.912,-0.4125,-0.246527778,1,0,0,1.908,Andesite_rect,1,1.908,1,0,0,0,0,1,,,,,,,,,,,,,
638e4ace1c4a380ecc49932f,TCR,2024-06-24_14h49.47.789,LearnStrategy,2023.2.3,MacIntel,61.95786865,7,1,2,-0.036111111,0,1,0,0,1.687,rock_grid_rect_2,3,13,-1,-1,1.687,0.114583333,-0.251388889,1,0,0,1.991,Diorite_rect,3,1.991,1,1,0,1,0,1,,,,,,,,,,,,,
638e4ace1c4a380ecc49932f,TCR,2024-06-24_14h49.47.789,LearnStrategy,2023.2.3,MacIntel,61.95786865,7,1,3,-0.034722222,-0.002083333,1,0,0,1.679,rock_grid_rect_2,2,12,-1,-1,1.679,0.3625,-0.386805556,1,0,0,1.743,Pumice_rect,8,1.743,0,2,0,2,0,1,,,,,,,,,,,,,
638e4ace1c4a380ecc49932f,TCR,2024-06-24_14h49.47.789,LearnStrategy,2023.2.3,MacIntel,61.95786865,7,1,4,-0.029166667,-0.002083333,1,0,0,1.879,rock_grid_rect_2,4,12,-1,-1,1.879,0.091666667,-0.403472222,1,0,0,4.653,Peridotite_rect,7,4.653,0,3,0,3,0,1,,,,,,,,,,,,,
638e4ace1c4a380ecc49932f,TCR,2024-06-24_14h49.47.789,LearnStrategy,2023.2.3,MacIntel,61.95786865,7,1,5,-0.011111111,0.002777778,1,0,0,1.66,rock_grid_rect_2,4,09,-1,-1,1.66,0.374305556,-0.254861111,1,0,0,2.419,Gabbro_rect,4,2.419,1,4,0,4,0,1,,,,,,,,,,,,,
638e4ace1c4a380ecc49932f,TCR,2024-06-24_14h49.47.789,LearnStrategy,2023.2.3,MacIntel,61.95786865,7,1,6,0.007638889,0.005555556,1,0,0,1.233,rock_grid_rect_2,6,15,-1,-1,1.233,-0.158333333,-0.397916667,1,0,0,4.185,Pegmatite_rect,6,4.185,1,5,0,5,0,1,,,,,,,,,,,,,
638e4ace1c4a380ecc49932f,TCR,2024-06-24_14h49.47.789,LearnStrategy,2023.2.3,MacIntel,61.95786865,7,1,7,0.021527778,0.003472222,1,0,0,1.401,rock_grid_rect_2,6,08,-1,-1,1.401,-0.145138889,-0.401388889,1,0,0,2.878,Pegmatite_rect,6,2.878,1,6,0,6,0,1,,,,,,,,,,,,,
638e4ace1c4a380ecc49932f,TCR,2024-06-24_14h49.47.789,LearnStrategy,2023.2.3,MacIntel,61.95786865,7,1,8,0.006944444,-0.013194444,1,0,0,1.374,rock_grid_rect_2,3,07,-1,-1,1.374,-0.378472222,-0.236805556,1,0,0,2.411,Andesite_rect,1,2.411,0,7,0,7,0,1,,,,,,,,,,,,,
638e4ace1c4a380ecc49932f,TCR,2024-06-24_14h49.47.789,LearnStrategy,2023.2.3,MacIntel,61.95786865,7,1,9,-0.002777778,-0.002777778,1,0,0,1.629,rock_grid_rect_2,8,03,-1,-1,1.629,0.395138889,-0.40625,1,0,0,1.813,Pumice_rect,8,1.813,1,8,0,8,0,1,,,,,,,,,,,,,
638e4ace1c4a380ecc49932f,TCR,2024-06-24_14h49.47.789,LearnStrategy,2023.2.3,MacIntel,61.95786865,7,1,10,-0.013194444,-0.009027778,1,0,0,1.502,rock_grid_rect_2,2,06,-1,-1,1.502,-0.146527778,-0.241666667,1,0,0,2.731,Basalt_rect,2,2.731,1,9,0,9,0,1,,,,,,,,,,,,,
638e4ace1c4a380ecc49932f,TCR,2024-06-24_14h49.47.789,LearnStrategy,2023.2.3,MacIntel,61.95786865,7,1,11,-0.009027778,0.007638889,1,0,0,1.536,rock_grid_rect_2,7,05,-1,-1,1.536,0.1375,-0.40625,1,0,0,10.263,Peridotite_rect,7,10.263,1,10,0,10,0,1,,,,,,,,,,,,,
638e4ace1c4a380ecc49932f,TCR,2024-06-24_14h49.47.789,LearnStrategy,2023.2.3,MacIntel,61.95786865,7,1,12,-0.054166667,-0.003472222,1,0,0,1.276,rock_grid_rect_2,7,04,-1,-1,1.276,0.1,-0.388888889,1,0,0,5.165,Peridotite_rect,7,5.165,1,11,0,11,0,1,,,,,,,,,,,,,
638e4ace1c4a380ecc49932f,TCR,2024-06-24_14h49.47.789,LearnStrategy,2023.2.3,MacIntel,61.95786865,7,1,13,-0.010416667,0.001388889,1,0,0,1.712,rock_grid_rect_2,3,07,-1,-1,1.712,-0.395833333,-0.255555556,1,0,0,4.682,Andesite_rect,1,4.682,0,12,0,12,0,1,,,,,,,,,,,,,
638e4ace1c4a380ecc49932f,TCR,2024-06-24_14h49.47.789,LearnStrategy,2023.2.3,MacIntel,61.95786865,7,1,14,0.005555556,-0.003472222,1,0,0,1.558,rock_grid_rect_2,7,02,-1,-1,1.558,0.107638889,-0.236805556,1,0,0,3.588,Diorite_rect,3,3.588,0,13,0,13,0,1,,,,,,,,,,,,,
638e4ace1c4a380ecc49932f,TCR,2024-06-24_14h49.47.789,LearnStrategy,2023.2.3,MacIntel,61.95786865,7,1,15,-0.004166667,-0.010416667,1,0,0,1.799,rock_grid_rect_2,4,13,-1,-1,1.799,-0.1375,-0.247222222,1,0,0,3.551,Basalt_rect,2,3.551,0,14,0,14,0,1,,,,,,,,,,,,,
638e4ace1c4a380ecc49932f,TCR,2024-06-24_14h49.47.789,LearnStrategy,2023.2.3,MacIntel,61.95786865,7,1,16,0.008333333,-0.004166667,1,0,0,1.863,rock_grid_rect_2,7,02,-1,-1,1.863,0.083333333,-0.384722222,1,0,0,9.603,Peridotite_rect,7,9.603,1,15,0,15,0,1,,,,,,,,,,,,,
638e4ace1c4a380ecc49932f,TCR,2024-06-24_14h49.47.789,LearnStrategy,2023.2.3,MacIntel,61.95786865,7,2,1,,,,,,,,8,15,,,,,,,,,,,8,1.658,1,,,,,,0.352083333,-0.413888889,1,0,0,1.658,Pumice_rect,0,0,0,0,1,
638e4ace1c4a380ecc49932f,TCR,2024-06-24_14h49.47.789,LearnStrategy,2023.2.3,MacIntel,61.95786865,7,2,2,,,,,,,,8,14,,,,,,,,,,,8,1.682,1,,,,,,0.354166667,-0.386805556,1,0,0,1.682,Pumice_rect,1,0,1,0,1,
638e4ace1c4a380ecc49932f,TCR,2024-06-24_14h49.47.789,LearnStrategy,2023.2.3,MacIntel,61.95786865,7,2,3,,,,,,,,6,07,,,,,,,,,,,3,9.013,0,,,,,,0.130555556,-0.236111111,1,0,0,9.013,Diorite_rect,2,0,2,0,1,
638e4ace1c4a380ecc49932f,TCR,2024-06-24_14h49.47.789,LearnStrategy,2023.2.3,MacIntel,61.95786865,7,2,4,,,,,,,,4,14,,,,,,,,,,,2,5.362,0,,,,,,-0.107638889,-0.255555556,1,0,0,5.362,Basalt_rect,3,0,3,0,1,
638e4ace1c4a380ecc49932f,TCR,2024-06-24_14h49.47.789,LearnStrategy,2023.2.3,MacIntel,61.95786865,7,2,5,,,,,,,,1,02,,,,,,,,,,,1,2.328,1,,,,,,-0.406944444,-0.24375,1,0,0,2.328,Andesite_rect,4,0,4,0,1,
638e4ace1c4a380ecc49932f,TCR,2024-06-24_14h49.47.789,LearnStrategy,2023.2.3,MacIntel,61.95786865,7,2,6,,,,,,,,7,13,,,,,,,,,,,7,5.715,1,,,,,,0.138888889,-0.401388889,1,0,0,5.715,Peridotite_rect,5,0,5,0,1,
638e4ace1c4a380ecc49932f,TCR,2024-06-24_14h49.47.789,LearnStrategy,2023.2.3,MacIntel,61.95786865,7,2,7,,,,,,,,4,08,,,,,,,,,,,4,1.776,1,,,,,,0.359027778,-0.259027778,1,0,0,1.776,Gabbro_rect,6,0,6,0,1,
638e4ace1c4a380ecc49932f,TCR,2024-06-24_14h49.47.789,LearnStrategy,2023.2.3,MacIntel,61.95786865,7,2,8,,,,,,,,5,04,,,,,,,,,,,5,1.661,1,,,,,,-0.408333333,-0.397222222,1,0,0,1.661,Obsidian_rect,7,0,7,0,1,
638e4ace1c4a380ecc49932f,TCR,2024-06-24_14h49.47.789,LearnStrategy,2023.2.3,MacIntel,61.95786865,7,2,9,,,,,,,,1,09,,,,,,,,,,,1,1.737,1,,,,,,-0.358333333,-0.250694444,1,0,0,1.737,Andesite_rect,8,0,8,0,1,
638e4ace1c4a380ecc49932f,TCR,2024-06-24_14h49.47.789,LearnStrategy,2023.2.3,MacIntel,61.95786865,7,2,10,,,,,,,,5,07,,,,,,,,,,,5,1.58,1,,,,,,-0.383333333,-0.390277778,1,0,0,1.58,Obsidian_rect,9,0,9,0,1,
638e4ace1c4a380ecc49932f,TCR,2024-06-24_14h49.47.789,LearnStrategy,2023.2.3,MacIntel,61.95786865,7,2,11,,,,,,,,2,09,,,,,,,,,,,2,1.952,1,,,,,,-0.109722222,-0.259027778,1,0,0,1.952,Basalt_rect,10,0,10,0,1,
638e4ace1c4a380ecc49932f,TCR,2024-06-24_14h49.47.789,LearnStrategy,2023.2.3,MacIntel,61.95786865,7,2,12,,,,,,,,3,16,,,,,,,,,,,3,4.237,1,,,,,,0.139583333,-0.249305556,1,0,0,4.237,Diorite_rect,11,0,11,0,1,
638e4ace1c4a380ecc49932f,TCR,2024-06-24_14h49.47.789,LearnStrategy,2023.2.3,MacIntel,61.95786865,7,2,13,,,,,,,,3,12,,,,,,,,,,,3,3.75,1,,,,,,0.101388889,-0.249305556,1,0,0,3.75,Diorite_rect,12,0,12,0,1,
638e4ace1c4a380ecc49932f,TCR,2024-06-24_14h49.47.789,LearnStrategy,2023.2.3,MacIntel,61.95786865,7,2,14,,,,,,,,2,14,,,,,,,,,,,2,2.09,1,,,,,,-0.161111111,-0.247222222,1,0,0,2.09,Basalt_rect,13,0,13,0,1,
638e4ace1c4a380ecc49932f,TCR,2024-06-24_14h49.47.789,LearnStrategy,2023.2.3,MacIntel,61.95786865,7,2,15,,,,,,,,6,09,,,,,,,,,,,6,6.288,1,,,,,,-0.147916667,-0.392361111,1,0,0,6.288,Pegmatite_rect,14,0,14,0,1,
638e4ace1c4a380ecc49932f,TCR,2024-06-24_14h49.47.789,LearnStrategy,2023.2.3,MacIntel,61.95786865,7,2,16,,,,,,,,7,06,,,,,,,,,,,3,5.657,0,,,,,,0.061111111,-0.261805556,1,0,0,5.657,Diorite_rect,15,0,15,0,1,
638e4ace1c4a380ecc49932f,TCR,2024-06-24_14h49.47.789,LearnStrategy,2023.2.3,MacIntel,61.95786865,8,1,1,0.00625,-0.017361111,1,0,0,1.898,rock_grid_rect_2,3,11,-1,-1,1.898,0.107638889,-0.253472222,1,0,0,3.546,Diorite_rect,3,3.546,1,0,0,0,0,1,,,,,,,,,,,,,
638e4ace1c4a380ecc49932f,TCR,2024-06-24_14h49.47.789,LearnStrategy,2023.2.3,MacIntel,61.95786865,8,1,2,0.002777778,0.009722222,1,0,0,1.215,rock_grid_rect_2,1,07,-1,-1,1.215,-0.413194444,-0.238194444,1,0,0,1.985,Andesite_rect,1,1.985,1,1,0,1,0,1,,,,,,,,,,,,,
638e4ace1c4a380ecc49932f,TCR,2024-06-24_14h49.47.789,LearnStrategy,2023.2.3,MacIntel,61.95786865,8,1,3,0.01875,0.002083333,1,0,0,1.607,rock_grid_rect_2,4,13,-1,-1,1.607,0.359722222,-0.238194444,1,0,0,3.022,Gabbro_rect,4,3.022,1,2,0,2,0,1,,,,,,,,,,,,,
638e4ace1c4a380ecc49932f,TCR,2024-06-24_14h49.47.789,LearnStrategy,2023.2.3,MacIntel,61.95786865,8,1,4,0.004166667,0.004166667,1,0,0,1.736,rock_grid_rect_2,7,04,-1,-1,1.736,0.10625,-0.257638889,1,0,0,3.579,Diorite_rect,3,3.579,0,3,0,3,0,1,,,,,,,,,,,,,
638e4ace1c4a380ecc49932f,TCR,2024-06-24_14h49.47.789,LearnStrategy,2023.2.3,MacIntel,61.95786865,8,1,5,-0.0125,-0.000694444,1,0,0,1.349,rock_grid_rect_2,6,10,-1,-1,1.349,0.125,-0.259027778,1,0,0,6.019,Diorite_rect,3,6.019,0,4,0,4,0,1,,,,,,,,,,,,,
638e4ace1c4a380ecc49932f,TCR,2024-06-24_14h49.47.789,LearnStrategy,2023.2.3,MacIntel,61.95786865,8,1,6,0.010416667,-0.01875,1,0,0,1.415,rock_grid_rect_2,8,10,-1,-1,1.415,0.359722222,-0.40625,1,0,0,2.137,Pumice_rect,8,2.137,1,5,0,5,0,1,,,,,,,,,,,,,
638e4ace1c4a380ecc49932f,TCR,2024-06-24_14h49.47.789,LearnStrategy,2023.2.3,MacIntel,61.95786865,8,1,7,-0.004861111,0.002083333,1,0,0,1.277,rock_grid_rect_2,7,02,-1,-1,1.277,0.094444444,-0.259722222,1,0,0,2.978,Diorite_rect,3,2.978,0,6,0,6,0,1,,,,,,,,,,,,,
638e4ace1c4a380ecc49932f,TCR,2024-06-24_14h49.47.789,LearnStrategy,2023.2.3,MacIntel,61.95786865,8,1,8,0.010416667,-0.006944444,1,0,0,1.357,rock_grid_rect_2,7,04,-1,-1,1.357,0.100694444,-0.229861111,1,0,0,1.994,Diorite_rect,3,1.994,0,7,0,7,0,1,,,,,,,,,,,,,
638e4ace1c4a380ecc49932f,TCR,2024-06-24_14h49.47.789,LearnStrategy,2023.2.3,MacIntel,61.95786865,8,1,9,-0.009027778,-0.001388889,1,0,0,1.285,rock_grid_rect_2,4,09,-1,-1,1.285,0.35,-0.250694444,1,0,0,4.367,Gabbro_rect,4,4.367,1,8,0,8,0,1,,,,,,,,,,,,,
638e4ace1c4a380ecc49932f,TCR,2024-06-24_14h49.47.789,LearnStrategy,2023.2.3,MacIntel,61.95786865,8,1,10,0.028472222,-0.004166667,1,0,0,2.92,rock_grid_rect_2,5,09,-1,-1,2.92,-0.3875,-0.386111111,1,0,0,2.182,Obsidian_rect,5,2.182,1,9,0,9,0,1,,,,,,,,,,,,,
638e4ace1c4a380ecc49932f,TCR,2024-06-24_14h49.47.789,LearnStrategy,2023.2.3,MacIntel,61.95786865,8,1,11,-0.014583333,0,1,0,0,1.683,rock_grid_rect_2,7,10,-1,-1,1.683,0.135416667,-0.396527778,1,0,0,4.111,Peridotite_rect,7,4.111,1,10,0,10,0,1,,,,,,,,,,,,,
638e4ace1c4a380ecc49932f,TCR,2024-06-24_14h49.47.789,LearnStrategy,2023.2.3,MacIntel,61.95786865,8,1,12,-0.002777778,0.010416667,1,0,0,1.789,rock_grid_rect_2,2,08,-1,-1,1.789,0.375,-0.240972222,1,0,0,3.931,Gabbro_rect,4,3.931,0,11,0,11,0,1,,,,,,,,,,,,,
638e4ace1c4a380ecc49932f,TCR,2024-06-24_14h49.47.789,LearnStrategy,2023.2.3,MacIntel,61.95786865,8,1,13,0.007638889,0.006944444,1,0,0,1.501,rock_grid_rect_2,4,01,-1,-1,1.501,0.102083333,-0.398611111,1,0,0,2.175,Peridotite_rect,7,2.175,0,12,0,12,0,1,,,,,,,,,,,,,
638e4ace1c4a380ecc49932f,TCR,2024-06-24_14h49.47.789,LearnStrategy,2023.2.3,MacIntel,61.95786865,8,1,14,0.00625,-0.002083333,1,0,0,1.256,rock_grid_rect_2,6,15,-1,-1,1.256,-0.206944444,-0.392361111,1,0,0,3.139,Pegmatite_rect,6,3.139,1,13,0,13,0,1,,,,,,,,,,,,,
638e4ace1c4a380ecc49932f,TCR,2024-06-24_14h49.47.789,LearnStrategy,2023.2.3,MacIntel,61.95786865,8,1,15,0.027777778,-0.008333333,1,0,0,1.216,rock_grid_rect_2,6,08,-1,-1,1.216,-0.125694444,-0.407638889,1,0,0,1.878,Pegmatite_rect,6,1.878,1,14,0,14,0,1,,,,,,,,,,,,,
638e4ace1c4a380ecc49932f,TCR,2024-06-24_14h49.47.789,LearnStrategy,2023.2.3,MacIntel,61.95786865,8,1,16,0.051388889,-0.011805556,1,0,0,0.989,rock_grid_rect_2,3,11,-1,-1,0.989,0.15,-0.239583333,1,0,0,10.766,Diorite_rect,3,10.766,1,15,0,15,0,1,,,,,,,,,,,,,
638e4ace1c4a380ecc49932f,TCR,2024-06-24_14h49.47.789,LearnStrategy,2023.2.3,MacIntel,61.95786865,8,2,1,,,,,,,,2,02,,,,,,,,,,,2,6.837,1,,,,,,-0.126388889,-0.250694444,1,0,0,6.837,Basalt_rect,0,0,0,0,1,
638e4ace1c4a380ecc49932f,TCR,2024-06-24_14h49.47.789,LearnStrategy,2023.2.3,MacIntel,61.95786865,8,2,2,,,,,,,,8,16,,,,,,,,,,,8,2.402,1,,,,,,0.35625,-0.411111111,1,0,0,2.402,Pumice_rect,1,0,1,0,1,
638e4ace1c4a380ecc49932f,TCR,2024-06-24_14h49.47.789,LearnStrategy,2023.2.3,MacIntel,61.95786865,8,2,3,,,,,,,,7,12,,,,,,,,,,,7,3.322,1,,,,,,0.13125,-0.403472222,1,0,0,3.322,Peridotite_rect,2,0,2,0,1,
638e4ace1c4a380ecc49932f,TCR,2024-06-24_14h49.47.789,LearnStrategy,2023.2.3,MacIntel,61.95786865,8,2,4,,,,,,,,8,08,,,,,,,,,,,8,3.8,1,,,,,,0.392361111,-0.4,1,0,0,3.8,Pumice_rect,3,0,3,0,1,
638e4ace1c4a380ecc49932f,TCR,2024-06-24_14h49.47.789,LearnStrategy,2023.2.3,MacIntel,61.95786865,8,2,5,,,,,,,,1,01,,,,,,,,,,,1,3.49,1,,,,,,-0.402777778,-0.253472222,1,0,0,3.49,Andesite_rect,4,0,4,0,1,
638e4ace1c4a380ecc49932f,TCR,2024-06-24_14h49.47.789,LearnStrategy,2023.2.3,MacIntel,61.95786865,8,2,6,,,,,,,,3,02,,,,,,,,,,,7,3.486,0,,,,,,0.093055556,-0.404166667,1,0,0,3.486,Peridotite_rect,5,0,5,0,1,
638e4ace1c4a380ecc49932f,TCR,2024-06-24_14h49.47.789,LearnStrategy,2023.2.3,MacIntel,61.95786865,8,2,7,,,,,,,,5,10,,,,,,,,,,,5,1.888,1,,,,,,-0.371527778,-0.389583333,1,0,0,1.888,Obsidian_rect,6,0,6,0,1,
638e4ace1c4a380ecc49932f,TCR,2024-06-24_14h49.47.789,LearnStrategy,2023.2.3,MacIntel,61.95786865,8,2,8,,,,,,,,1,11,,,,,,,,,,,1,1.736,1,,,,,,-0.411111111,-0.247916667,1,0,0,1.736,Andesite_rect,7,0,7,0,1,
638e4ace1c4a380ecc49932f,TCR,2024-06-24_14h49.47.789,LearnStrategy,2023.2.3,MacIntel,61.95786865,8,2,9,,,,,,,,2,05,,,,,,,,,,,2,2.21,1,,,,,,-0.120138889,-0.248611111,1,0,0,2.21,Basalt_rect,8,0,8,0,1,
638e4ace1c4a380ecc49932f,TCR,2024-06-24_14h49.47.789,LearnStrategy,2023.2.3,MacIntel,61.95786865,8,2,10,,,,,,,,4,16,,,,,,,,,,,4,4.736,1,,,,,,0.358333333,-0.252777778,1,0,0,4.736,Gabbro_rect,9,0,9,0,1,
638e4ace1c4a380ecc49932f,TCR,2024-06-24_14h49.47.789,LearnStrategy,2023.2.3,MacIntel,61.95786865,8,2,11,,,,,,,,4,05,,,,,,,,,,,7,4.638,0,,,,,,0.109722222,-0.397916667,1,0,0,4.638,Peridotite_rect,10,0,10,0,1,
638e4ace1c4a380ecc49932f,TCR,2024-06-24_14h49.47.789,LearnStrategy,2023.2.3,MacIntel,61.95786865,8,2,12,,,,,,,,6,06,,,,,,,,,,,7,2.467,0,,,,,,0.110416667,-0.395833333,1,0,0,2.467,Peridotite_rect,11,0,11,0,1,
638e4ace1c4a380ecc49932f,TCR,2024-06-24_14h49.47.789,LearnStrategy,2023.2.3,MacIntel,61.95786865,8,2,13,,,,,,,,7,14,,,,,,,,,,,3,1.917,0,,,,,,0.122222222,-0.240277778,1,0,0,1.917,Diorite_rect,12,0,12,0,1,
638e4ace1c4a380ecc49932f,TCR,2024-06-24_14h49.47.789,LearnStrategy,2023.2.3,MacIntel,61.95786865,8,2,14,,,,,,,,6,11,,,,,,,,,,,6,5.881,1,,,,,,-0.203472222,-0.400694444,1,0,0,5.881,Pegmatite_rect,13,0,13,0,1,
638e4ace1c4a380ecc49932f,TCR,2024-06-24_14h49.47.789,LearnStrategy,2023.2.3,MacIntel,61.95786865,8,2,15,,,,,,,,3,09,,,,,,,,,,,1,4.572,0,,,,,,-0.3625,-0.259722222,1,0,0,4.572,Andesite_rect,14,0,14,0,1,
638e4ace1c4a380ecc49932f,TCR,2024-06-24_14h49.47.789,LearnStrategy,2023.2.3,MacIntel,61.95786865,8,2,16,,,,,,,,5,12,,,,,,,,,,,5,1.857,1,,,,,,-0.4125,-0.415972222,1,0,0,1.857,Obsidian_rect,15,0,15,0,1,
638e4ace1c4a380ecc49932f,TCR,2024-06-24_14h49.47.789,LearnStrategy,2023.2.3,MacIntel,61.95786865,9,1,1,0.011111111,0.005555556,1,0,0,1.97,rock_grid_rect_2,3,07,-1,-1,1.97,-0.411111111,-0.253472222,1,0,0,3.083,Andesite_rect,1,3.083,0,0,0,0,0,1,,,,,,,,,,,,,
638e4ace1c4a380ecc49932f,TCR,2024-06-24_14h49.47.789,LearnStrategy,2023.2.3,MacIntel,61.95786865,9,1,2,-0.002777778,-0.015972222,1,0,0,1.463,rock_grid_rect_2,8,13,-1,-1,1.463,0.418055556,-0.404861111,1,0,0,3.652,Pumice_rect,8,3.652,1,1,0,1,0,1,,,,,,,,,,,,,
638e4ace1c4a380ecc49932f,TCR,2024-06-24_14h49.47.789,LearnStrategy,2023.2.3,MacIntel,61.95786865,9,1,3,-0.045138889,-0.002083333,1,0,0,1.795,rock_grid_rect_2,7,04,-1,-1,1.795,0.129861111,-0.393055556,1,0,0,2.673,Peridotite_rect,7,2.673,1,2,0,2,0,1,,,,,,,,,,,,,
638e4ace1c4a380ecc49932f,TCR,2024-06-24_14h49.47.789,LearnStrategy,2023.2.3,MacIntel,61.95786865,9,1,4,-0.019444444,-0.004861111,1,0,0,1.568,rock_grid_rect_2,6,03,-1,-1,1.568,-0.123611111,-0.40625,1,0,0,2.482,Pegmatite_rect,6,2.482,1,3,0,3,0,1,,,,,,,,,,,,,
638e4ace1c4a380ecc49932f,TCR,2024-06-24_14h49.47.789,LearnStrategy,2023.2.3,MacIntel,61.95786865,9,1,5,-0.017361111,0,1,0,0,1.747,rock_grid_rect_2,7,02,-1,-1,1.747,0.102777778,-0.245833333,1,0,0,2.363,Diorite_rect,3,2.363,0,4,0,4,0,1,,,,,,,,,,,,,
638e4ace1c4a380ecc49932f,TCR,2024-06-24_14h49.47.789,LearnStrategy,2023.2.3,MacIntel,61.95786865,9,1,6,0.006944444,-0.007638889,1,0,0,1.545,rock_grid_rect_2,3,11,-1,-1,1.545,0.104861111,-0.252777778,1,0,0,3.591,Diorite_rect,3,3.591,1,5,0,5,0,1,,,,,,,,,,,,,
638e4ace1c4a380ecc49932f,TCR,2024-06-24_14h49.47.789,LearnStrategy,2023.2.3,MacIntel,61.95786865,9,1,7,0.003472222,0.00625,1,0,0,1.669,rock_grid_rect_2,4,15,-1,-1,1.669,0.150694444,-0.247916667,1,0,0,4.158,Diorite_rect,3,4.158,0,6,0,6,0,1,,,,,,,,,,,,,
638e4ace1c4a380ecc49932f,TCR,2024-06-24_14h49.47.789,LearnStrategy,2023.2.3,MacIntel,61.95786865,9,1,8,0.004861111,0.005555556,1,0,0,1.704,rock_grid_rect_2,6,05,-1,-1,1.704,-0.154861111,-0.4,1,0,0,5.941,Pegmatite_rect,6,5.941,1,7,0,7,0,1,,,,,,,,,,,,,
638e4ace1c4a380ecc49932f,TCR,2024-06-24_14h49.47.789,LearnStrategy,2023.2.3,MacIntel,61.95786865,9,1,9,-0.002083333,-0.00625,1,0,0,1.791,rock_grid_rect_2,4,09,-1,-1,1.791,0.373611111,-0.251388889,1,0,0,2.134,Gabbro_rect,4,2.134,1,8,0,8,0,1,,,,,,,,,,,,,
638e4ace1c4a380ecc49932f,TCR,2024-06-24_14h49.47.789,LearnStrategy,2023.2.3,MacIntel,61.95786865,9,1,10,0.023611111,0.00625,1,0,0,1.347,rock_grid_rect_2,1,05,-1,-1,1.347,0.084722222,-0.391666667,1,0,0,7.385,Peridotite_rect,7,7.385,0,9,0,9,0,1,,,,,,,,,,,,,
638e4ace1c4a380ecc49932f,TCR,2024-06-24_14h49.47.789,LearnStrategy,2023.2.3,MacIntel,61.95786865,9,1,11,-0.004166667,0.002777778,1,0,0,1.502,rock_grid_rect_2,7,05,-1,-1,1.502,0.104166667,-0.401388889,1,0,0,3.624,Peridotite_rect,7,3.624,1,10,0,10,0,1,,,,,,,,,,,,,
638e4ace1c4a380ecc49932f,TCR,2024-06-24_14h49.47.789,LearnStrategy,2023.2.3,MacIntel,61.95786865,9,1,12,0.00625,-0.00625,1,0,0,1.49,rock_grid_rect_2,7,02,-1,-1,1.49,0.119444444,-0.404861111,1,0,0,3.523,Peridotite_rect,7,3.523,1,11,0,11,0,1,,,,,,,,,,,,,
638e4ace1c4a380ecc49932f,TCR,2024-06-24_14h49.47.789,LearnStrategy,2023.2.3,MacIntel,61.95786865,9,1,13,0.026388889,-0.003472222,1,0,0,1.111,rock_grid_rect_2,3,06,-1,-1,1.111,0.117361111,-0.243055556,1,0,0,3.795,Diorite_rect,3,3.795,1,12,0,12,0,1,,,,,,,,,,,,,
638e4ace1c4a380ecc49932f,TCR,2024-06-24_14h49.47.789,LearnStrategy,2023.2.3,MacIntel,61.95786865,9,1,14,-0.008333333,0.002777778,1,0,0,1.64,rock_grid_rect_2,4,12,-1,-1,1.64,-0.383333333,-0.244444444,1,0,0,10.251,Andesite_rect,1,10.251,0,13,0,13,0,1,,,,,,,,,,,,,
638e4ace1c4a380ecc49932f,TCR,2024-06-24_14h49.47.789,LearnStrategy,2023.2.3,MacIntel,61.95786865,9,1,15,-0.013194444,0.005555556,1,0,0,1.397,rock_grid_rect_2,2,06,-1,-1,1.397,-0.136805556,-0.247916667,1,0,0,1.905,Basalt_rect,2,1.905,1,14,0,14,0,1,,,,,,,,,,,,,
638e4ace1c4a380ecc49932f,TCR,2024-06-24_14h49.47.789,LearnStrategy,2023.2.3,MacIntel,61.95786865,9,1,16,-0.007638889,-0.002777778,1,0,0,1.725,rock_grid_rect_2,6,08,-1,-1,1.725,-0.155555556,-0.396527778,1,0,0,2.848,Pegmatite_rect,6,2.848,1,15,0,15,0,1,,,,,,,,,,,,,
638e4ace1c4a380ecc49932f,TCR,2024-06-24_14h49.47.789,LearnStrategy,2023.2.3,MacIntel,61.95786865,9,2,1,,,,,,,,2,11,,,,,,,,,,,8,5.67,0,,,,,,0.404861111,-0.405555556,1,0,0,5.67,Pumice_rect,0,0,0,0,1,
638e4ace1c4a380ecc49932f,TCR,2024-06-24_14h49.47.789,LearnStrategy,2023.2.3,MacIntel,61.95786865,9,2,2,,,,,,,,6,13,,,,,,,,,,,3,7.487,0,,,,,,0.122222222,-0.238194444,1,0,0,7.487,Diorite_rect,1,0,1,0,1,
638e4ace1c4a380ecc49932f,TCR,2024-06-24_14h49.47.789,LearnStrategy,2023.2.3,MacIntel,61.95786865,9,2,3,,,,,,,,8,09,,,,,,,,,,,8,1.872,1,,,,,,0.374305556,-0.3875,1,0,0,1.872,Pumice_rect,2,0,2,0,1,
638e4ace1c4a380ecc49932f,TCR,2024-06-24_14h49.47.789,LearnStrategy,2023.2.3,MacIntel,61.95786865,9,2,4,,,,,,,,5,05,,,,,,,,,,,5,2.057,1,,,,,,-0.432638889,-0.392361111,1,0,0,2.057,Obsidian_rect,3,0,3,0,1,
638e4ace1c4a380ecc49932f,TCR,2024-06-24_14h49.47.789,LearnStrategy,2023.2.3,MacIntel,61.95786865,9,2,5,,,,,,,,2,10,,,,,,,,,,,2,2.205,1,,,,,,-0.140277778,-0.242361111,1,0,0,2.205,Basalt_rect,4,0,4,0,1,
638e4ace1c4a380ecc49932f,TCR,2024-06-24_14h49.47.789,LearnStrategy,2023.2.3,MacIntel,61.95786865,9,2,6,,,,,,,,5,06,,,,,,,,,,,5,1.534,1,,,,,,-0.392361111,-0.388194444,1,0,0,1.534,Obsidian_rect,5,0,5,0,1,
638e4ace1c4a380ecc49932f,TCR,2024-06-24_14h49.47.789,LearnStrategy,2023.2.3,MacIntel,61.95786865,9,2,7,,,,,,,,1,04,,,,,,,,,,,1,2.706,1,,,,,,-0.392361111,-0.247222222,1,0,0,2.706,Andesite_rect,6,0,6,0,1,
638e4ace1c4a380ecc49932f,TCR,2024-06-24_14h49.47.789,LearnStrategy,2023.2.3,MacIntel,61.95786865,9,2,8,,,,,,,,3,15,,,,,,,,,,,7,3.999,0,,,,,,0.143055556,-0.409722222,1,0,0,3.999,Peridotite_rect,7,0,7,0,1,
638e4ace1c4a380ecc49932f,TCR,2024-06-24_14h49.47.789,LearnStrategy,2023.2.3,MacIntel,61.95786865,9,2,9,,,,,,,,6,12,,,,,,,,,,,3,7.581,0,,,,,,0.127777778,-0.248611111,1,0,0,7.581,Diorite_rect,8,0,8,0,1,
638e4ace1c4a380ecc49932f,TCR,2024-06-24_14h49.47.789,LearnStrategy,2023.2.3,MacIntel,61.95786865,9,2,10,,,,,,,,1,14,,,,,,,,,,,3,2.724,0,,,,,,0.127777778,-0.247916667,1,0,0,2.724,Diorite_rect,9,0,9,0,1,
638e4ace1c4a380ecc49932f,TCR,2024-06-24_14h49.47.789,LearnStrategy,2023.2.3,MacIntel,61.95786865,9,2,11,,,,,,,,3,08,,,,,,,,,,,7,2.948,0,,,,,,0.129861111,-0.402083333,1,0,0,2.948,Peridotite_rect,10,0,10,0,1,
638e4ace1c4a380ecc49932f,TCR,2024-06-24_14h49.47.789,LearnStrategy,2023.2.3,MacIntel,61.95786865,9,2,12,,,,,,,,8,02,,,,,,,,,,,8,2.563,1,,,,,,0.369444444,-0.395833333,1,0,0,2.563,Pumice_rect,11,0,11,0,1,
638e4ace1c4a380ecc49932f,TCR,2024-06-24_14h49.47.789,LearnStrategy,2023.2.3,MacIntel,61.95786865,9,2,13,,,,,,,,7,16,,,,,,,,,,,6,11.079,0,,,,,,-0.119444444,-0.394444444,1,0,0,11.079,Pegmatite_rect,12,0,12,0,1,
638e4ace1c4a380ecc49932f,TCR,2024-06-24_14h49.47.789,LearnStrategy,2023.2.3,MacIntel,61.95786865,9,2,14,,,,,,,,7,15,,,,,,,,,,,7,1.564,1,,,,,,0.086805556,-0.402083333,1,0,0,1.564,Peridotite_rect,13,0,13,0,1,
638e4ace1c4a380ecc49932f,TCR,2024-06-24_14h49.47.789,LearnStrategy,2023.2.3,MacIntel,61.95786865,9,2,15,,,,,,,,4,03,,,,,,,,,,,4,2.836,1,,,,,,0.379166667,-0.254166667,1,0,0,2.836,Gabbro_rect,14,0,14,0,1,
638e4ace1c4a380ecc49932f,TCR,2024-06-24_14h49.47.789,LearnStrategy,2023.2.3,MacIntel,61.95786865,9,2,16,,,,,,,,4,11,,,,,,,,,,,4,3.912,1,,,,,,0.3625,-0.249305556,1,0,0,3.912,Gabbro_rect,15,0,15,0,1,
638e4ace1c4a380ecc49932f,TCR,2024-06-24_14h49.47.789,LearnStrategy,2023.2.3,MacIntel,61.95786865,,,,,,,,,,,,,,,,,,,,,,,,,,,,,,,,,,,,,,,,,,,1
638e4ace1c4a380ecc49932f,TCR,2024-06-24_14h49.47.789,LearnStrategy,2023.2.3,MacIntel,61.95786865,,,,,,,,,,,,,,,,,,,,,,,,,,,,,,,,,,,,,,,,,,,
638e4ace1c4a380ecc49932f,TCR,2024-06-24_14h49.47.789,LearnStrategy,2023.2.3,MacIntel,61.95786865,,,,,,,,,,,4,01,1,1,,,,,,,,,,,,,,,,,,,,,,,,,,,,,
638e4ace1c4a380ecc49932f,TCR,2024-06-24_14h49.47.789,LearnStrategy,2023.2.3,MacIntel,61.95786865,,,,,,,,,,,4,10,1,2,,,,,,,,,,,,,,,,,,,,,,,,,,,,,
638e4ace1c4a380ecc49932f,TCR,2024-06-24_14h49.47.789,LearnStrategy,2023.2.3,MacIntel,61.95786865,,,,,,,,,,,3,13,1,3,,,,,,,,,,,,,,,,,,,,,,,,,,,,,
638e4ace1c4a380ecc49932f,TCR,2024-06-24_14h49.47.789,LearnStrategy,2023.2.3,MacIntel,61.95786865,,,,,,,,,,,4,09,1,4,,,,,,,,,,,,,,,,,,,,,,,,,,,,,
638e4ace1c4a380ecc49932f,TCR,2024-06-24_14h49.47.789,LearnStrategy,2023.2.3,MacIntel,61.95786865,,,,,,,,,,,5,02,1,5,,,,,,,,,,,,,,,,,,,,,,,,,,,,,
638e4ace1c4a380ecc49932f,TCR,2024-06-24_14h49.47.789,LearnStrategy,2023.2.3,MacIntel,61.95786865,,,,,,,,,,,1,07,1,6,,,,,,,,,,,,,,,,,,,,,,,,,,,,,
638e4ace1c4a380ecc49932f,TCR,2024-06-24_14h49.47.789,LearnStrategy,2023.2.3,MacIntel,61.95786865,,,,,,,,,,,2,01,1,7,,,,,,,,,,,,,,,,,,,,,,,,,,,,,
638e4ace1c4a380ecc49932f,TCR,2024-06-24_14h49.47.789,LearnStrategy,2023.2.3,MacIntel,61.95786865,,,,,,,,,,,2,04,1,8,,,,,,,,,,,,,,,,,,,,,,,,,,,,,
638e4ace1c4a380ecc49932f,TCR,2024-06-24_14h49.47.789,LearnStrategy,2023.2.3,MacIntel,61.95786865,,,,,,,,,,,6,03,2,1,,,,,,,,,,,,,,,,,,,,,,,,,,,,,
638e4ace1c4a380ecc49932f,TCR,2024-06-24_14h49.47.789,LearnStrategy,2023.2.3,MacIntel,61.95786865,,,,,,,,,,,6,08,2,2,,,,,,,,,,,,,,,,,,,,,,,,,,,,,
638e4ace1c4a380ecc49932f,TCR,2024-06-24_14h49.47.789,LearnStrategy,2023.2.3,MacIntel,61.95786865,,,,,,,,,,,1,06,2,3,,,,,,,,,,,,,,,,,,,,,,,,,,,,,
638e4ace1c4a380ecc49932f,TCR,2024-06-24_14h49.47.789,LearnStrategy,2023.2.3,MacIntel,61.95786865,,,,,,,,,,,7,04,2,4,,,,,,,,,,,,,,,,,,,,,,,,,,,,,
638e4ace1c4a380ecc49932f,TCR,2024-06-24_14h49.47.789,LearnStrategy,2023.2.3,MacIntel,61.95786865,,,,,,,,,,,5,09,2,5,,,,,,,,,,,,,,,,,,,,,,,,,,,,,
638e4ace1c4a380ecc49932f,TCR,2024-06-24_14h49.47.789,LearnStrategy,2023.2.3,MacIntel,61.95786865,,,,,,,,,,,5,14,2,6,,,,,,,,,,,,,,,,,,,,,,,,,,,,,
638e4ace1c4a380ecc49932f,TCR,2024-06-24_14h49.47.789,LearnStrategy,2023.2.3,MacIntel,61.95786865,,,,,,,,,,,7,07,2,7,,,,,,,,,,,,,,,,,,,,,,,,,,,,,
638e4ace1c4a380ecc49932f,TCR,2024-06-24_14h49.47.789,LearnStrategy,2023.2.3,MacIntel,61.95786865,,,,,,,,,,,5,08,2,8,,,,,,,,,,,,,,,,,,,,,,,,,,,,,
638e4ace1c4a380ecc49932f,TCR,2024-06-24_14h49.47.789,LearnStrategy,2023.2.3,MacIntel,61.95786865,,,,,,,,,,,7,05,3,1,,,,,,,,,,,,,,,,,,,,,,,,,,,,,
638e4ace1c4a380ecc49932f,TCR,2024-06-24_14h49.47.789,LearnStrategy,2023.2.3,MacIntel,61.95786865,,,,,,,,,,,6,05,3,2,,,,,,,,,,,,,,,,,,,,,,,,,,,,,
638e4ace1c4a380ecc49932f,TCR,2024-06-24_14h49.47.789,LearnStrategy,2023.2.3,MacIntel,61.95786865,,,,,,,,,,,3,11,3,3,,,,,,,,,,,,,,,,,,,,,,,,,,,,,
638e4ace1c4a380ecc49932f,TCR,2024-06-24_14h49.47.789,LearnStrategy,2023.2.3,MacIntel,61.95786865,,,,,,,,,,,7,08,3,4,,,,,,,,,,,,,,,,,,,,,,,,,,,,,
638e4ace1c4a380ecc49932f,TCR,2024-06-24_14h49.47.789,LearnStrategy,2023.2.3,MacIntel,61.95786865,,,,,,,,,,,1,05,3,5,,,,,,,,,,,,,,,,,,,,,,,,,,,,,
638e4ace1c4a380ecc49932f,TCR,2024-06-24_14h49.47.789,LearnStrategy,2023.2.3,MacIntel,61.95786865,,,,,,,,,,,4,13,3,6,,,,,,,,,,,,,,,,,,,,,,,,,,,,,
638e4ace1c4a380ecc49932f,TCR,2024-06-24_14h49.47.789,LearnStrategy,2023.2.3,MacIntel,61.95786865,,,,,,,,,,,4,15,3,7,,,,,,,,,,,,,,,,,,,,,,,,,,,,,
638e4ace1c4a380ecc49932f,TCR,2024-06-24_14h49.47.789,LearnStrategy,2023.2.3,MacIntel,61.95786865,,,,,,,,,,,1,03,3,8,,,,,,,,,,,,,,,,,,,,,,,,,,,,,
638e4ace1c4a380ecc49932f,TCR,2024-06-24_14h49.47.789,LearnStrategy,2023.2.3,MacIntel,61.95786865,,,,,,,,,,,8,10,4,1,,,,,,,,,,,,,,,,,,,,,,,,,,,,,
638e4ace1c4a380ecc49932f,TCR,2024-06-24_14h49.47.789,LearnStrategy,2023.2.3,MacIntel,61.95786865,,,,,,,,,,,8,05,4,2,,,,,,,,,,,,,,,,,,,,,,,,,,,,,
638e4ace1c4a380ecc49932f,TCR,2024-06-24_14h49.47.789,LearnStrategy,2023.2.3,MacIntel,61.95786865,,,,,,,,,,,3,10,4,3,,,,,,,,,,,,,,,,,,,,,,,,,,,,,
638e4ace1c4a380ecc49932f,TCR,2024-06-24_14h49.47.789,LearnStrategy,2023.2.3,MacIntel,61.95786865,,,,,,,,,,,3,07,4,4,,,,,,,,,,,,,,,,,,,,,,,,,,,,,
638e4ace1c4a380ecc49932f,TCR,2024-06-24_14h49.47.789,LearnStrategy,2023.2.3,MacIntel,61.95786865,,,,,,,,,,,7,02,4,5,,,,,,,,,,,,,,,,,,,,,,,,,,,,,
638e4ace1c4a380ecc49932f,TCR,2024-06-24_14h49.47.789,LearnStrategy,2023.2.3,MacIntel,61.95786865,,,,,,,,,,,5,11,4,6,,,,,,,,,,,,,,,,,,,,,,,,,,,,,
638e4ace1c4a380ecc49932f,TCR,2024-06-24_14h49.47.789,LearnStrategy,2023.2.3,MacIntel,61.95786865,,,,,,,,,,,6,15,4,7,,,,,,,,,,,,,,,,,,,,,,,,,,,,,
638e4ace1c4a380ecc49932f,TCR,2024-06-24_14h49.47.789,LearnStrategy,2023.2.3,MacIntel,61.95786865,,,,,,,,,,,2,12,4,8,,,,,,,,,,,,,,,,,,,,,,,,,,,,,
638e4ace1c4a380ecc49932f,TCR,2024-06-24_14h49.47.789,LearnStrategy,2023.2.3,MacIntel,61.95786865,,,,,,,,,,,5,16,5,1,,,,,,,,,,,,,,,,,,,,,,,,,,,,,
638e4ace1c4a380ecc49932f,TCR,2024-06-24_14h49.47.789,LearnStrategy,2023.2.3,MacIntel,61.95786865,,,,,,,,,,,2,06,5,2,,,,,,,,,,,,,,,,,,,,,,,,,,,,,
638e4ace1c4a380ecc49932f,TCR,2024-06-24_14h49.47.789,LearnStrategy,2023.2.3,MacIntel,61.95786865,,,,,,,,,,,3,06,5,3,,,,,,,,,,,,,,,,,,,,,,,,,,,,,
638e4ace1c4a380ecc49932f,TCR,2024-06-24_14h49.47.789,LearnStrategy,2023.2.3,MacIntel,61.95786865,,,,,,,,,,,2,08,5,4,,,,,,,,,,,,,,,,,,,,,,,,,,,,,
638e4ace1c4a380ecc49932f,TCR,2024-06-24_14h49.47.789,LearnStrategy,2023.2.3,MacIntel,61.95786865,,,,,,,,,,,1,16,5,5,,,,,,,,,,,,,,,,,,,,,,,,,,,,,
638e4ace1c4a380ecc49932f,TCR,2024-06-24_14h49.47.789,LearnStrategy,2023.2.3,MacIntel,61.95786865,,,,,,,,,,,6,10,5,6,,,,,,,,,,,,,,,,,,,,,,,,,,,,,
638e4ace1c4a380ecc49932f,TCR,2024-06-24_14h49.47.789,LearnStrategy,2023.2.3,MacIntel,61.95786865,,,,,,,,,,,8,06,5,7,,,,,,,,,,,,,,,,,,,,,,,,,,,,,
638e4ace1c4a380ecc49932f,TCR,2024-06-24_14h49.47.789,LearnStrategy,2023.2.3,MacIntel,61.95786865,,,,,,,,,,,2,16,5,8,,,,,,,,,,,,,,,,,,,,,,,,,,,,,
638e4ace1c4a380ecc49932f,TCR,2024-06-24_14h49.47.789,LearnStrategy,2023.2.3,MacIntel,61.95786865,,,,,,,,,,,3,14,6,1,,,,,,,,,,,,,,,,,,,,,,,,,,,,,
638e4ace1c4a380ecc49932f,TCR,2024-06-24_14h49.47.789,LearnStrategy,2023.2.3,MacIntel,61.95786865,,,,,,,,,,,1,10,6,2,,,,,,,,,,,,,,,,,,,,,,,,,,,,,
638e4ace1c4a380ecc49932f,TCR,2024-06-24_14h49.47.789,LearnStrategy,2023.2.3,MacIntel,61.95786865,,,,,,,,,,,8,04,6,3,,,,,,,,,,,,,,,,,,,,,,,,,,,,,
638e4ace1c4a380ecc49932f,TCR,2024-06-24_14h49.47.789,LearnStrategy,2023.2.3,MacIntel,61.95786865,,,,,,,,,,,7,10,6,4,,,,,,,,,,,,,,,,,,,,,,,,,,,,,
638e4ace1c4a380ecc49932f,TCR,2024-06-24_14h49.47.789,LearnStrategy,2023.2.3,MacIntel,61.95786865,,,,,,,,,,,6,16,6,5,,,,,,,,,,,,,,,,,,,,,,,,,,,,,
638e4ace1c4a380ecc49932f,TCR,2024-06-24_14h49.47.789,LearnStrategy,2023.2.3,MacIntel,61.95786865,,,,,,,,,,,4,12,6,6,,,,,,,,,,,,,,,,,,,,,,,,,,,,,
638e4ace1c4a380ecc49932f,TCR,2024-06-24_14h49.47.789,LearnStrategy,2023.2.3,MacIntel,61.95786865,,,,,,,,,,,8,13,6,7,,,,,,,,,,,,,,,,,,,,,,,,,,,,,
638e4ace1c4a380ecc49932f,TCR,2024-06-24_14h49.47.789,LearnStrategy,2023.2.3,MacIntel,61.95786865,,,,,,,,,,,8,03,6,8,,,,,,,,,,,,,,,,,,,,,,,,,,,,,