participant,condition,date,expName,psychopyVersion,OS,frameRate,block,phase,trial,learn_mouse.x,learn_mouse.y,learn_mouse.leftButton,learn_mouse.midButton,learn_mouse.rightButton,learn_mouse.time,learn_mouse.clicked_name,cat,token,row,col,t_select,cat_mouse_l.x,cat_mouse_l.y,cat_mouse_l.leftButton,cat_mouse_l.midButton,cat_mouse_l.rightButton,cat_mouse_l.time,cat_mouse_l.clicked_name,resp,t_resp,corr,train_trials.thisRepN,train_trials.thisTrialN,train_trials.thisN,train_trials.thisIndex,train_trials.ran,cat_mouse_t.x,cat_mouse_t.y,cat_mouse_t.leftButton,cat_mouse_t.midButton,cat_mouse_t.rightButton,cat_mouse_t.time,cat_mouse_t.clicked_name,test_trials.thisRepN,test_trials.thisTrialN,test_trials.thisN,test_trials.thisIndex,test_trials.ran,Bonus
63bc819194ca25a555eb8fb5,SCN,2024-06-20_16h32.29.159,LearnStrategy,2023.2.3,Win32,59.52380952,,,,,,,,,,,,,,,,,,,,,,,,,,,,,,,,,,,,,,,,,,,
63bc819194ca25a555eb8fb5,SCN,2024-06-20_16h32.29.159,LearnStrategy,2023.2.3,Win32,59.52380952,1,1,1,-0.532552083,0.420572917,1,0,0,10.2485,Andesite_01,1,01,6,1,10.248,0.180989583,-0.263020833,1,0,0,14.736,Diorite_rect,3,14.736,0,0,0,0,0,1,,,,,,,,,,,,,
63bc819194ca25a555eb8fb5,SCN,2024-06-20_16h32.29.159,LearnStrategy,2023.2.3,Win32,59.52380952,1,1,2,-0.3671875,0.40234375,1,0,0,3.5259,Diorite_16,3,16,6,2,3.526,-0.141927083,-0.404947917,1,0,0,7.5653,Pegmatite_rect,6,7.565,0,1,0,1,0,1,,,,,,,,,,,,,
63bc819194ca25a555eb8fb5,SCN,2024-06-20_16h32.29.159,LearnStrategy,2023.2.3,Win32,59.52380952,1,1,3,-0.229166667,0.385416667,1,0,0,6.2797,Peridotite_04,7,04,6,3,6.28,-0.106770833,-0.408854167,1,0,0,7.1479,Pegmatite_rect,6,7.148,0,2,0,2,0,1,,,,,,,,,,,,,
63bc819194ca25a555eb8fb5,SCN,2024-06-20_16h32.29.159,LearnStrategy,2023.2.3,Win32,59.52380952,1,1,4,-0.08984375,0.4296875,1,0,0,1.9955,Peridotite_02,7,02,6,4,1.996,0.401041667,-0.2421875,1,0,0,6.3298,Gabbro_rect,4,6.33,0,3,0,3,0,1,,,,,,,,,,,,,
63bc819194ca25a555eb8fb5,SCN,2024-06-20_16h32.29.159,LearnStrategy,2023.2.3,Win32,59.52380952,1,1,5,0.059895833,0.40625,1,0,0,7.0357,Basalt_09,2,09,6,5,7.036,-0.1328125,-0.233072917,1,0,0,3.5877,Basalt_rect,2,3.588,1,4,0,4,0,1,,,,,,,,,,,,,
63bc819194ca25a555eb8fb5,SCN,2024-06-20_16h32.29.159,LearnStrategy,2023.2.3,Win32,59.52380952,1,1,6,0.243489583,0.407552083,1,0,0,2.7207,Peridotite_07,7,07,6,6,2.721,0.385416667,-0.3984375,1,0,0,8.3626,Pumice_rect,8,8.363,0,5,0,5,0,1,,,,,,,,,,,,,
63bc819194ca25a555eb8fb5,SCN,2024-06-20_16h32.29.159,LearnStrategy,2023.2.3,Win32,59.52380952,1,1,7,0.393229167,0.399739583,1,0,0,5.4567,Peridotite_06,7,06,6,7,5.457,0.428385417,-0.2578125,1,0,0,6.0514,Gabbro_rect,4,6.051,0,6,0,6,0,1,,,,,,,,,,,,,
63bc819194ca25a555eb8fb5,SCN,2024-06-20_16h32.29.159,LearnStrategy,2023.2.3,Win32,59.52380952,1,1,8,0.548177083,0.391927083,1,0,0,12.7471,Peridotite_08,7,08,6,8,12.747,0.1640625,-0.393229167,1,0,0,2.6505,Peridotite_rect,7,2.651,1,7,0,7,0,1,,,,,,,,,,,,,
63bc819194ca25a555eb8fb5,SCN,2024-06-20_16h32.29.159,LearnStrategy,2023.2.3,Win32,59.52380952,1,1,9,-0.541666667,0.24609375,1,0,0,2.3198,Basalt_04,2,04,5,1,2.32,-0.127604167,-0.236979167,1,0,0,1.6249,Basalt_rect,2,1.625,1,8,0,8,0,1,,,,,,,,,,,,,
63bc819194ca25a555eb8fb5,SCN,2024-06-20_16h32.29.159,LearnStrategy,2023.2.3,Win32,59.52380952,1,1,10,-0.37890625,0.260416667,1,0,0,1.4561,Diorite_06,3,06,5,2,1.456,0.36328125,-0.384114583,1,0,0,5.4643,Pumice_rect,8,5.464,0,9,0,9,0,1,,,,,,,,,,,,,
63bc819194ca25a555eb8fb5,SCN,2024-06-20_16h32.29.159,LearnStrategy,2023.2.3,Win32,59.52380952,1,1,11,-0.234375,0.231770833,1,0,0,2.6357,Pegmatite_11,6,11,5,3,2.636,0.368489583,-0.243489583,1,0,0,6.2506,Gabbro_rect,4,6.251,0,10,0,10,0,1,,,,,,,,,,,,,
63bc819194ca25a555eb8fb5,SCN,2024-06-20_16h32.29.159,LearnStrategy,2023.2.3,Win32,59.52380952,1,1,12,-0.087239583,0.266927083,1,0,0,1.719,Gabbro_01,4,01,5,4,1.719,0.115885417,-0.395833333,1,0,0,4.2049,Peridotite_rect,7,4.205,0,11,0,11,0,1,,,,,,,,,,,,,
63bc819194ca25a555eb8fb5,SCN,2024-06-20_16h32.29.159,LearnStrategy,2023.2.3,Win32,59.52380952,1,1,13,0.084635417,0.231770833,1,0,0,1.5875,Gabbro_08,4,08,5,5,1.587,-0.375,-0.23828125,1,0,0,5.2599,Andesite_rect,1,5.26,0,12,0,12,0,1,,,,,,,,,,,,,
63bc819194ca25a555eb8fb5,SCN,2024-06-20_16h32.29.159,LearnStrategy,2023.2.3,Win32,59.52380952,1,1,14,0.233072917,0.25,1,0,0,1.6407,Pegmatite_12,6,12,5,6,1.641,0.131510417,-0.244791667,1,0,0,6.414,Diorite_rect,3,6.414,0,13,0,13,0,1,,,,,,,,,,,,,
63bc819194ca25a555eb8fb5,SCN,2024-06-20_16h32.29.159,LearnStrategy,2023.2.3,Win32,59.52380952,1,1,15,0.401041667,0.260416667,1,0,0,1.8535,Basalt_16,2,16,5,7,1.853,-0.143229167,-0.259114583,1,0,0,3.295,Basalt_rect,2,3.295,1,14,0,14,0,1,,,,,,,,,,,,,
63bc819194ca25a555eb8fb5,SCN,2024-06-20_16h32.29.159,LearnStrategy,2023.2.3,Win32,59.52380952,1,1,16,0.532552083,0.220052083,1,0,0,1.7889,Gabbro_03,4,03,5,8,1.789,0.134114583,-0.391927083,1,0,0,8.2156,Peridotite_rect,7,8.216,0,15,0,15,0,1,,,,,,,,,,,,,
63bc819194ca25a555eb8fb5,SCN,2024-06-20_16h32.29.159,LearnStrategy,2023.2.3,Win32,59.52380952,1,2,1,,,,,,,,3,14,,,,,,,,,,,6,14.67,0,,,,,,-0.076822917,-0.397135417,1,0,0,14.6702,Pegmatite_rect,0,0,0,0,1,
63bc819194ca25a555eb8fb5,SCN,2024-06-20_16h32.29.159,LearnStrategy,2023.2.3,Win32,59.52380952,1,2,2,,,,,,,,3,08,,,,,,,,,,,7,2.821,0,,,,,,0.098958333,-0.3984375,1,0,0,2.8205,Peridotite_rect,1,0,1,0,1,
63bc819194ca25a555eb8fb5,SCN,2024-06-20_16h32.29.159,LearnStrategy,2023.2.3,Win32,59.52380952,1,2,3,,,,,,,,1,06,,,,,,,,,,,2,2.012,0,,,,,,-0.114583333,-0.25390625,1,0,0,2.0119,Basalt_rect,2,0,2,0,1,
63bc819194ca25a555eb8fb5,SCN,2024-06-20_16h32.29.159,LearnStrategy,2023.2.3,Win32,59.52380952,1,2,4,,,,,,,,2,08,,,,,,,,,,,2,1.318,1,,,,,,-0.079427083,-0.264322917,1,0,0,1.3182,Basalt_rect,3,0,3,0,1,
63bc819194ca25a555eb8fb5,SCN,2024-06-20_16h32.29.159,LearnStrategy,2023.2.3,Win32,59.52380952,1,2,5,,,,,,,,6,06,,,,,,,,,,,7,7.012,0,,,,,,0.100260417,-0.407552083,1,0,0,7.0124,Peridotite_rect,4,0,4,0,1,
63bc819194ca25a555eb8fb5,SCN,2024-06-20_16h32.29.159,LearnStrategy,2023.2.3,Win32,59.52380952,1,2,6,,,,,,,,5,06,,,,,,,,,,,4,42.878,0,,,,,,0.420572917,-0.239583333,1,0,0,42.8776,Gabbro_rect,5,0,5,0,1,
63bc819194ca25a555eb8fb5,SCN,2024-06-20_16h32.29.159,LearnStrategy,2023.2.3,Win32,59.52380952,1,2,7,,,,,,,,5,07,,,,,,,,,,,4,5.307,0,,,,,,0.420572917,-0.231770833,1,0,0,5.3066,Gabbro_rect,6,0,6,0,1,
63bc819194ca25a555eb8fb5,SCN,2024-06-20_16h32.29.159,LearnStrategy,2023.2.3,Win32,59.52380952,1,2,8,,,,,,,,1,03,,,,,,,,,,,2,1.668,0,,,,,,-0.127604167,-0.248697917,1,0,0,1.6675,Basalt_rect,7,0,7,0,1,
63bc819194ca25a555eb8fb5,SCN,2024-06-20_16h32.29.159,LearnStrategy,2023.2.3,Win32,59.52380952,1,2,9,,,,,,,,7,14,,,,,,,,,,,4,18.992,0,,,,,,0.412760417,-0.268229167,1,0,0,18.9918,Gabbro_rect,8,0,8,0,1,
63bc819194ca25a555eb8fb5,SCN,2024-06-20_16h32.29.159,LearnStrategy,2023.2.3,Win32,59.52380952,1,2,10,,,,,,,,4,13,,,,,,,,,,,6,9.21,0,,,,,,-0.104166667,-0.395833333,1,0,0,9.2098,Pegmatite_rect,9,0,9,0,1,
63bc819194ca25a555eb8fb5,SCN,2024-06-20_16h32.29.159,LearnStrategy,2023.2.3,Win32,59.52380952,1,2,11,,,,,,,,4,12,,,,,,,,,,,2,1.713,0,,,,,,-0.106770833,-0.2578125,1,0,0,1.713,Basalt_rect,10,0,10,0,1,
63bc819194ca25a555eb8fb5,SCN,2024-06-20_16h32.29.159,LearnStrategy,2023.2.3,Win32,59.52380952,1,2,12,,,,,,,,6,13,,,,,,,,,,,7,5.043,0,,,,,,0.166666667,-0.41796875,1,0,0,5.0425,Peridotite_rect,11,0,11,0,1,
63bc819194ca25a555eb8fb5,SCN,2024-06-20_16h32.29.159,LearnStrategy,2023.2.3,Win32,59.52380952,1,2,13,,,,,,,,2,10,,,,,,,,,,,2,2.215,1,,,,,,-0.096354167,-0.24609375,1,0,0,2.2148,Basalt_rect,12,0,12,0,1,
63bc819194ca25a555eb8fb5,SCN,2024-06-20_16h32.29.159,LearnStrategy,2023.2.3,Win32,59.52380952,1,2,14,,,,,,,,8,04,,,,,,,,,,,8,2.689,1,,,,,,0.40625,-0.393229167,1,0,0,2.6888,Pumice_rect,13,0,13,0,1,
63bc819194ca25a555eb8fb5,SCN,2024-06-20_16h32.29.159,LearnStrategy,2023.2.3,Win32,59.52380952,1,2,15,,,,,,,,8,05,,,,,,,,,,,8,2.204,1,,,,,,0.401041667,-0.390625,1,0,0,2.2038,Pumice_rect,14,0,14,0,1,
63bc819194ca25a555eb8fb5,SCN,2024-06-20_16h32.29.159,LearnStrategy,2023.2.3,Win32,59.52380952,1,2,16,,,,,,,,7,10,,,,,,,,,,,7,12.037,1,,,,,,0.141927083,-0.41796875,1,0,0,12.0366,Peridotite_rect,15,0,15,0,1,
63bc819194ca25a555eb8fb5,SCN,2024-06-20_16h32.29.159,LearnStrategy,2023.2.3,Win32,59.52380952,2,1,1,-0.208333333,-0.076822917,1,0,0,10.2139,Pegmatite_15,6,15,3,3,10.214,0.338541667,-0.24609375,1,0,0,13.0026,Gabbro_rect,4,13.003,0,0,0,0,0,1,,,,,,,,,,,,,
63bc819194ca25a555eb8fb5,SCN,2024-06-20_16h32.29.159,LearnStrategy,2023.2.3,Win32,59.52380952,2,1,2,-0.061197917,-0.096354167,1,0,0,6.4241,Peridotite_13,7,13,3,4,6.424,0.149739583,-0.3828125,1,0,0,2.5104,Peridotite_rect,7,2.51,1,1,0,1,0,1,,,,,,,,,,,,,
63bc819194ca25a555eb8fb5,SCN,2024-06-20_16h32.29.159,LearnStrategy,2023.2.3,Win32,59.52380952,2,1,3,0.0703125,-0.083333333,1,0,0,1.2352,Obsidian_04,5,04,3,5,1.235,-0.369791667,-0.389322917,1,0,0,1.965,Obsidian_rect,5,1.965,1,2,0,2,0,1,,,,,,,,,,,,,
63bc819194ca25a555eb8fb5,SCN,2024-06-20_16h32.29.159,LearnStrategy,2023.2.3,Win32,59.52380952,2,1,4,0.240885417,-0.07421875,1,0,0,1.369,Andesite_05,1,05,3,6,1.369,0.154947917,-0.407552083,1,0,0,7.4976,Peridotite_rect,7,7.498,0,3,0,3,0,1,,,,,,,,,,,,,
63bc819194ca25a555eb8fb5,SCN,2024-06-20_16h32.29.159,LearnStrategy,2023.2.3,Win32,59.52380952,2,1,5,0.3984375,-0.063802083,1,0,0,1.6329,Pumice_15,8,15,3,7,1.633,0.420572917,-0.399739583,1,0,0,1.4902,Pumice_rect,8,1.49,1,4,0,4,0,1,,,,,,,,,,,,,
63bc819194ca25a555eb8fb5,SCN,2024-06-20_16h32.29.159,LearnStrategy,2023.2.3,Win32,59.52380952,2,1,6,0.528645833,-0.098958333,1,0,0,1.5017,Obsidian_14,5,14,3,8,1.502,-0.411458333,-0.40625,1,0,0,2.0122,Obsidian_rect,5,2.012,1,5,0,5,0,1,,,,,,,,,,,,,
63bc819194ca25a555eb8fb5,SCN,2024-06-20_16h32.29.159,LearnStrategy,2023.2.3,Win32,59.52380952,2,1,7,-0.412760417,-0.100260417,1,0,0,2.2115,Diorite_09,3,09,3,2,2.212,-0.1171875,-0.403645833,1,0,0,4.5979,Pegmatite_rect,6,4.598,0,6,0,6,0,1,,,,,,,,,,,,,
63bc819194ca25a555eb8fb5,SCN,2024-06-20_16h32.29.159,LearnStrategy,2023.2.3,Win32,59.52380952,2,1,8,-0.524739583,-0.096354167,1,0,0,1.8715,Andesite_10,1,10,3,1,1.871,-0.341145833,-0.240885417,1,0,0,9.4246,Andesite_rect,1,9.425,1,7,0,7,0,1,,,,,,,,,,,,,
63bc819194ca25a555eb8fb5,SCN,2024-06-20_16h32.29.159,LearnStrategy,2023.2.3,Win32,59.52380952,2,1,9,0.54296875,0.092447917,1,0,0,2.4858,Gabbro_15,4,15,4,8,2.486,-0.096354167,-0.416666667,1,0,0,3.0272,Pegmatite_rect,6,3.027,0,8,0,8,0,1,,,,,,,,,,,,,
63bc819194ca25a555eb8fb5,SCN,2024-06-20_16h32.29.159,LearnStrategy,2023.2.3,Win32,59.52380952,2,1,10,0.416666667,0.12109375,1,0,0,1.7077,Obsidian_05,5,05,4,7,1.708,-0.356770833,-0.39453125,1,0,0,2.5559,Obsidian_rect,5,2.556,1,9,0,9,0,1,,,,,,,,,,,,,
63bc819194ca25a555eb8fb5,SCN,2024-06-20_16h32.29.159,LearnStrategy,2023.2.3,Win32,59.52380952,2,1,11,0.229166667,0.09375,1,0,0,1.693,Pumice_13,8,13,4,6,1.693,0.390625,-0.393229167,1,0,0,3.8162,Pumice_rect,8,3.816,1,10,0,10,0,1,,,,,,,,,,,,,
63bc819194ca25a555eb8fb5,SCN,2024-06-20_16h32.29.159,LearnStrategy,2023.2.3,Win32,59.52380952,2,1,12,0.080729167,0.12890625,1,0,0,1.2722,Basalt_06,2,06,4,5,1.272,-0.186197917,-0.270833333,1,0,0,2.4879,Basalt_rect,2,2.488,1,11,0,11,0,1,,,,,,,,,,,,,
63bc819194ca25a555eb8fb5,SCN,2024-06-20_16h32.29.159,LearnStrategy,2023.2.3,Win32,59.52380952,2,1,13,-0.05078125,0.087239583,1,0,0,1.4189,Andesite_09,1,09,4,4,1.419,-0.35546875,-0.236979167,1,0,0,3.0311,Andesite_rect,1,3.031,1,12,0,12,0,1,,,,,,,,,,,,,
63bc819194ca25a555eb8fb5,SCN,2024-06-20_16h32.29.159,LearnStrategy,2023.2.3,Win32,59.52380952,2,1,14,-0.212239583,0.08203125,1,0,0,1.456,Diorite_10,3,10,4,3,1.456,-0.087239583,-0.389322917,1,0,0,7.9079,Pegmatite_rect,6,7.908,0,13,0,13,0,1,,,,,,,,,,,,,
63bc819194ca25a555eb8fb5,SCN,2024-06-20_16h32.29.159,LearnStrategy,2023.2.3,Win32,59.52380952,2,1,15,-0.397135417,0.0859375,1,0,0,1.6366,Diorite_11,3,11,4,2,1.637,0.158854167,-0.244791667,1,0,0,1.8979,Diorite_rect,3,1.898,1,14,0,14,0,1,,,,,,,,,,,,,
63bc819194ca25a555eb8fb5,SCN,2024-06-20_16h32.29.159,LearnStrategy,2023.2.3,Win32,59.52380952,2,1,16,-0.54296875,0.092447917,1,0,0,1.7087,Pumice_14,8,14,4,1,1.709,0.369791667,-0.388020833,1,0,0,1.7894,Pumice_rect,8,1.789,1,15,0,15,0,1,,,,,,,,,,,,,
63bc819194ca25a555eb8fb5,SCN,2024-06-20_16h32.29.159,LearnStrategy,2023.2.3,Win32,59.52380952,2,2,1,,,,,,,,1,04,,,,,,,,,,,4,11.652,0,,,,,,0.381510417,-0.244791667,1,0,0,11.6523,Gabbro_rect,0,0,0,0,1,
63bc819194ca25a555eb8fb5,SCN,2024-06-20_16h32.29.159,LearnStrategy,2023.2.3,Win32,59.52380952,2,2,2,,,,,,,,3,02,,,,,,,,,,,1,13.349,0,,,,,,-0.395833333,-0.233072917,1,0,0,13.3495,Andesite_rect,1,0,1,0,1,
63bc819194ca25a555eb8fb5,SCN,2024-06-20_16h32.29.159,LearnStrategy,2023.2.3,Win32,59.52380952,2,2,3,,,,,,,,6,08,,,,,,,,,,,3,18.755,0,,,,,,0.14453125,-0.234375,1,0,0,18.7547,Diorite_rect,2,0,2,0,1,
63bc819194ca25a555eb8fb5,SCN,2024-06-20_16h32.29.159,LearnStrategy,2023.2.3,Win32,59.52380952,2,2,4,,,,,,,,8,06,,,,,,,,,,,8,2.381,1,,,,,,0.420572917,-0.39453125,1,0,0,2.3809,Pumice_rect,3,0,3,0,1,
63bc819194ca25a555eb8fb5,SCN,2024-06-20_16h32.29.159,LearnStrategy,2023.2.3,Win32,59.52380952,2,2,5,,,,,,,,5,11,,,,,,,,,,,5,2.04,1,,,,,,-0.419270833,-0.395833333,1,0,0,2.0401,Obsidian_rect,4,0,4,0,1,
63bc819194ca25a555eb8fb5,SCN,2024-06-20_16h32.29.159,LearnStrategy,2023.2.3,Win32,59.52380952,2,2,6,,,,,,,,2,11,,,,,,,,,,,8,6.505,0,,,,,,0.40234375,-0.404947917,1,0,0,6.5046,Pumice_rect,5,0,5,0,1,
63bc819194ca25a555eb8fb5,SCN,2024-06-20_16h32.29.159,LearnStrategy,2023.2.3,Win32,59.52380952,2,2,7,,,,,,,,4,14,,,,,,,,,,,4,12.34,1,,,,,,0.3671875,-0.25,1,0,0,12.3397,Gabbro_rect,6,0,6,0,1,
63bc819194ca25a555eb8fb5,SCN,2024-06-20_16h32.29.159,LearnStrategy,2023.2.3,Win32,59.52380952,2,2,8,,,,,,,,6,07,,,,,,,,,,,5,10.054,0,,,,,,-0.376302083,-0.407552083,1,0,0,10.054,Obsidian_rect,7,0,7,0,1,
63bc819194ca25a555eb8fb5,SCN,2024-06-20_16h32.29.159,LearnStrategy,2023.2.3,Win32,59.52380952,2,2,9,,,,,,,,2,12,,,,,,,,,,,8,18.559,0,,,,,,0.401041667,-0.401041667,1,0,0,18.5593,Pumice_rect,8,0,8,0,1,
63bc819194ca25a555eb8fb5,SCN,2024-06-20_16h32.29.159,LearnStrategy,2023.2.3,Win32,59.52380952,2,2,10,,,,,,,,7,12,,,,,,,,,,,7,3.722,1,,,,,,0.173177083,-0.407552083,1,0,0,3.7223,Peridotite_rect,9,0,9,0,1,
63bc819194ca25a555eb8fb5,SCN,2024-06-20_16h32.29.159,LearnStrategy,2023.2.3,Win32,59.52380952,2,2,11,,,,,,,,7,16,,,,,,,,,,,3,7.284,0,,,,,,0.1875,-0.234375,1,0,0,7.2837,Diorite_rect,10,0,10,0,1,
63bc819194ca25a555eb8fb5,SCN,2024-06-20_16h32.29.159,LearnStrategy,2023.2.3,Win32,59.52380952,2,2,12,,,,,,,,3,13,,,,,,,,,,,6,6.278,0,,,,,,-0.11328125,-0.391927083,1,0,0,6.2779,Pegmatite_rect,11,0,11,0,1,
63bc819194ca25a555eb8fb5,SCN,2024-06-20_16h32.29.159,LearnStrategy,2023.2.3,Win32,59.52380952,2,2,13,,,,,,,,1,02,,,,,,,,,,,6,2.723,0,,,,,,-0.11328125,-0.391927083,1,0,0,2.7233,Pegmatite_rect,12,0,12,0,1,
63bc819194ca25a555eb8fb5,SCN,2024-06-20_16h32.29.159,LearnStrategy,2023.2.3,Win32,59.52380952,2,2,14,,,,,,,,8,10,,,,,,,,,,,8,2.033,1,,,,,,0.4296875,-0.407552083,1,0,0,2.0326,Pumice_rect,13,0,13,0,1,
63bc819194ca25a555eb8fb5,SCN,2024-06-20_16h32.29.159,LearnStrategy,2023.2.3,Win32,59.52380952,2,2,15,,,,,,,,5,16,,,,,,,,,,,5,1.789,1,,,,,,-0.453125,-0.397135417,1,0,0,1.7892,Obsidian_rect,14,0,14,0,1,
63bc819194ca25a555eb8fb5,SCN,2024-06-20_16h32.29.159,LearnStrategy,2023.2.3,Win32,59.52380952,2,2,16,,,,,,,,4,09,,,,,,,,,,,3,4.747,0,,,,,,0.118489583,-0.25390625,1,0,0,4.747,Diorite_rect,15,0,15,0,1,
63bc819194ca25a555eb8fb5,SCN,2024-06-20_16h32.29.159,LearnStrategy,2023.2.3,Win32,59.52380952,3,1,1,-0.51953125,-0.247395833,1,0,0,4.9468,Diorite_12,3,12,2,1,4.947,-0.41015625,-0.236979167,1,0,0,5.2213,Andesite_rect,1,5.221,0,0,0,0,0,1,,,,,,,,,,,,,
63bc819194ca25a555eb8fb5,SCN,2024-06-20_16h32.29.159,LearnStrategy,2023.2.3,Win32,59.52380952,3,1,2,-0.24609375,0.08203125,1,0,0,4.6852,Diorite_10,3,10,4,3,4.685,0.14453125,-0.23828125,1,0,0,1.358,Diorite_rect,3,1.358,1,1,0,1,0,1,,,,,,,,,,,,,
63bc819194ca25a555eb8fb5,SCN,2024-06-20_16h32.29.159,LearnStrategy,2023.2.3,Win32,59.52380952,3,1,3,-0.38671875,-0.274739583,1,0,0,2.5768,Gabbro_16,4,16,2,2,2.577,-0.100260417,-0.24609375,1,0,0,2.0279,Basalt_rect,2,2.028,0,2,0,2,0,1,,,,,,,,,,,,,
63bc819194ca25a555eb8fb5,SCN,2024-06-20_16h32.29.159,LearnStrategy,2023.2.3,Win32,59.52380952,3,1,4,-0.227864583,-0.28125,1,0,0,1.6458,Pumice_02,8,02,2,3,1.646,0.34375,-0.403645833,1,0,0,1.4829,Pumice_rect,8,1.483,1,3,0,3,0,1,,,,,,,,,,,,,
63bc819194ca25a555eb8fb5,SCN,2024-06-20_16h32.29.159,LearnStrategy,2023.2.3,Win32,59.52380952,3,1,5,-0.055989583,-0.260416667,1,0,0,1.4499,Basalt_02,2,02,2,4,1.45,-0.151041667,-0.23046875,1,0,0,1.2522,Basalt_rect,2,1.252,1,4,0,4,0,1,,,,,,,,,,,,,
63bc819194ca25a555eb8fb5,SCN,2024-06-20_16h32.29.159,LearnStrategy,2023.2.3,Win32,59.52380952,3,1,6,0.092447917,-0.25390625,1,0,0,2.6472,Pegmatite_16,6,16,2,5,2.647,-0.359375,-0.381510417,1,0,0,1.9643,Obsidian_rect,5,1.964,0,5,0,5,0,1,,,,,,,,,,,,,
63bc819194ca25a555eb8fb5,SCN,2024-06-20_16h32.29.159,LearnStrategy,2023.2.3,Win32,59.52380952,3,1,7,0.5390625,-0.40625,1,0,0,4.3561,Pegmatite_05,6,05,1,8,4.356,-0.359375,-0.40234375,1,0,0,2.2367,Obsidian_rect,5,2.237,0,6,0,6,0,1,,,,,,,,,,,,,
63bc819194ca25a555eb8fb5,SCN,2024-06-20_16h32.29.159,LearnStrategy,2023.2.3,Win32,59.52380952,3,1,8,0.255208333,-0.416666667,1,0,0,3.8397,Pumice_03,8,03,1,6,3.84,0.38671875,-0.39453125,1,0,0,1.9229,Pumice_rect,8,1.923,1,7,0,7,0,1,,,,,,,,,,,,,
63bc819194ca25a555eb8fb5,SCN,2024-06-20_16h32.29.159,LearnStrategy,2023.2.3,Win32,59.52380952,3,1,9,0.087239583,-0.419270833,1,0,0,1.4186,Andesite_07,1,07,1,5,1.419,-0.04296875,-0.404947917,1,0,0,4.0462,Pegmatite_rect,6,4.046,0,8,0,8,0,1,,,,,,,,,,,,,
63bc819194ca25a555eb8fb5,SCN,2024-06-20_16h32.29.159,LearnStrategy,2023.2.3,Win32,59.52380952,3,1,10,-0.076822917,-0.07421875,1,0,0,7.938,Peridotite_13,7,13,3,4,7.938,0.12890625,-0.393229167,1,0,0,2.2882,Peridotite_rect,7,2.288,1,9,0,9,0,1,,,,,,,,,,,,,
63bc819194ca25a555eb8fb5,SCN,2024-06-20_16h32.29.159,LearnStrategy,2023.2.3,Win32,59.52380952,3,1,11,-0.2265625,0.225260417,1,0,0,9.1442,Pegmatite_11,6,11,5,3,9.144,-0.385416667,-0.393229167,1,0,0,2.0454,Obsidian_rect,5,2.045,0,10,0,10,0,1,,,,,,,,,,,,,
63bc819194ca25a555eb8fb5,SCN,2024-06-20_16h32.29.159,LearnStrategy,2023.2.3,Win32,59.52380952,3,1,12,-0.243489583,-0.106770833,1,0,0,7.13,Pegmatite_15,6,15,3,3,7.13,-0.102864583,-0.3984375,1,0,0,2.2827,Pegmatite_rect,6,2.283,1,11,0,11,0,1,,,,,,,,,,,,,
63bc819194ca25a555eb8fb5,SCN,2024-06-20_16h32.29.159,LearnStrategy,2023.2.3,Win32,59.52380952,3,1,13,0.393229167,0.40234375,1,0,0,2.7207,Peridotite_06,7,06,6,7,2.721,0.123697917,-0.3984375,1,0,0,2.343,Peridotite_rect,7,2.343,1,12,0,12,0,1,,,,,,,,,,,,,
63bc819194ca25a555eb8fb5,SCN,2024-06-20_16h32.29.159,LearnStrategy,2023.2.3,Win32,59.52380952,3,1,14,0.5390625,0.403645833,1,0,0,4.5818,Peridotite_08,7,08,6,8,4.582,0.126302083,-0.407552083,1,0,0,1.8557,Peridotite_rect,7,1.856,1,13,0,13,0,1,,,,,,,,,,,,,
63bc819194ca25a555eb8fb5,SCN,2024-06-20_16h32.29.159,LearnStrategy,2023.2.3,Win32,59.52380952,3,1,15,-0.391927083,0.09765625,1,0,0,7.8312,Diorite_11,3,11,4,2,7.831,-0.404947917,-0.244791667,1,0,0,2.579,Andesite_rect,1,2.579,0,14,0,14,0,1,,,,,,,,,,,,,
63bc819194ca25a555eb8fb5,SCN,2024-06-20_16h32.29.159,LearnStrategy,2023.2.3,Win32,59.52380952,3,1,16,-0.235677083,0.096354167,1,0,0,1.2522,Diorite_10,3,10,4,3,1.252,0.126302083,-0.252604167,1,0,0,1.4942,Diorite_rect,3,1.494,1,15,0,15,0,1,,,,,,,,,,,,,
63bc819194ca25a555eb8fb5,SCN,2024-06-20_16h32.29.159,LearnStrategy,2023.2.3,Win32,59.52380952,3,2,1,,,,,,,,1,16,,,,,,,,,,,1,11.639,1,,,,,,-0.377604167,-0.24609375,1,0,0,11.639,Andesite_rect,0,0,0,0,1,
63bc819194ca25a555eb8fb5,SCN,2024-06-20_16h32.29.159,LearnStrategy,2023.2.3,Win32,59.52380952,3,2,2,,,,,,,,3,07,,,,,,,,,,,1,8.029,0,,,,,,-0.3515625,-0.260416667,1,0,0,8.0293,Andesite_rect,1,0,1,0,1,
63bc819194ca25a555eb8fb5,SCN,2024-06-20_16h32.29.159,LearnStrategy,2023.2.3,Win32,59.52380952,3,2,3,,,,,,,,4,05,,,,,,,,,,,6,5.091,0,,,,,,-0.12890625,-0.389322917,1,0,0,5.0912,Pegmatite_rect,2,0,2,0,1,
63bc819194ca25a555eb8fb5,SCN,2024-06-20_16h32.29.159,LearnStrategy,2023.2.3,Win32,59.52380952,3,2,4,,,,,,,,6,10,,,,,,,,,,,3,10.478,0,,,,,,0.170572917,-0.255208333,1,0,0,10.4781,Diorite_rect,3,0,3,0,1,
63bc819194ca25a555eb8fb5,SCN,2024-06-20_16h32.29.159,LearnStrategy,2023.2.3,Win32,59.52380952,3,2,5,,,,,,,,7,05,,,,,,,,,,,7,10.256,1,,,,,,0.126302083,-0.412760417,1,0,0,10.2555,Peridotite_rect,4,0,4,0,1,
63bc819194ca25a555eb8fb5,SCN,2024-06-20_16h32.29.159,LearnStrategy,2023.2.3,Win32,59.52380952,3,2,6,,,,,,,,5,12,,,,,,,,,,,5,1.681,1,,,,,,-0.37890625,-0.3828125,1,0,0,1.6812,Obsidian_rect,5,0,5,0,1,
63bc819194ca25a555eb8fb5,SCN,2024-06-20_16h32.29.159,LearnStrategy,2023.2.3,Win32,59.52380952,3,2,7,,,,,,,,8,09,,,,,,,,,,,8,1.887,1,,,,,,0.356770833,-0.393229167,1,0,0,1.887,Pumice_rect,6,0,6,0,1,
63bc819194ca25a555eb8fb5,SCN,2024-06-20_16h32.29.159,LearnStrategy,2023.2.3,Win32,59.52380952,3,2,8,,,,,,,,6,03,,,,,,,,,,,7,8.947,0,,,,,,0.170572917,-0.395833333,1,0,0,8.9465,Peridotite_rect,7,0,7,0,1,
63bc819194ca25a555eb8fb5,SCN,2024-06-20_16h32.29.159,LearnStrategy,2023.2.3,Win32,59.52380952,3,2,9,,,,,,,,8,08,,,,,,,,,,,8,2.602,1,,,,,,0.420572917,-0.397135417,1,0,0,2.6018,Pumice_rect,8,0,8,0,1,
63bc819194ca25a555eb8fb5,SCN,2024-06-20_16h32.29.159,LearnStrategy,2023.2.3,Win32,59.52380952,3,2,10,,,,,,,,2,05,,,,,,,,,,,2,2.324,1,,,,,,-0.10546875,-0.270833333,1,0,0,2.3237,Basalt_rect,9,0,9,0,1,
63bc819194ca25a555eb8fb5,SCN,2024-06-20_16h32.29.159,LearnStrategy,2023.2.3,Win32,59.52380952,3,2,11,,,,,,,,2,14,,,,,,,,,,,8,4.263,0,,,,,,0.427083333,-0.397135417,1,0,0,4.2627,Pumice_rect,10,0,10,0,1,
63bc819194ca25a555eb8fb5,SCN,2024-06-20_16h32.29.159,LearnStrategy,2023.2.3,Win32,59.52380952,3,2,12,,,,,,,,5,09,,,,,,,,,,,5,1.841,1,,,,,,-0.350260417,-0.40625,1,0,0,1.8413,Obsidian_rect,11,0,11,0,1,
63bc819194ca25a555eb8fb5,SCN,2024-06-20_16h32.29.159,LearnStrategy,2023.2.3,Win32,59.52380952,3,2,13,,,,,,,,7,15,,,,,,,,,,,7,2.321,1,,,,,,0.119791667,-0.38671875,1,0,0,2.3206,Peridotite_rect,12,0,12,0,1,
63bc819194ca25a555eb8fb5,SCN,2024-06-20_16h32.29.159,LearnStrategy,2023.2.3,Win32,59.52380952,3,2,14,,,,,,,,3,15,,,,,,,,,,,4,3.122,0,,,,,,0.393229167,-0.233072917,1,0,0,3.1218,Gabbro_rect,13,0,13,0,1,
63bc819194ca25a555eb8fb5,SCN,2024-06-20_16h32.29.159,LearnStrategy,2023.2.3,Win32,59.52380952,3,2,15,,,,,,,,4,10,,,,,,,,,,,8,11.053,0,,,,,,0.384114583,-0.393229167,1,0,0,11.053,Pumice_rect,14,0,14,0,1,
63bc819194ca25a555eb8fb5,SCN,2024-06-20_16h32.29.159,LearnStrategy,2023.2.3,Win32,59.52380952,3,2,16,,,,,,,,1,14,,,,,,,,,,,1,7.374,1,,,,,,-0.372395833,-0.2578125,1,0,0,7.3736,Andesite_rect,15,0,15,0,1,
63bc819194ca25a555eb8fb5,SCN,2024-06-20_16h32.29.159,LearnStrategy,2023.2.3,Win32,59.52380952,4,1,1,-0.546875,0.40234375,1,0,0,6.1024,Andesite_01,1,01,6,1,6.102,0.092447917,-0.3984375,1,0,0,4.2958,Peridotite_rect,7,4.296,0,0,0,0,0,1,,,,,,,,,,,,,
63bc819194ca25a555eb8fb5,SCN,2024-06-20_16h32.29.159,LearnStrategy,2023.2.3,Win32,59.52380952,4,1,2,-0.055989583,0.244791667,1,0,0,3.9403,Gabbro_01,4,01,5,4,3.94,-0.365885417,-0.235677083,1,0,0,3.1902,Andesite_rect,1,3.19,0,1,0,1,0,1,,,,,,,,,,,,,
63bc819194ca25a555eb8fb5,SCN,2024-06-20_16h32.29.159,LearnStrategy,2023.2.3,Win32,59.52380952,4,1,3,0.091145833,0.265625,1,0,0,1.3219,Gabbro_08,4,08,5,5,1.322,0.380208333,-0.251302083,1,0,0,1.9449,Gabbro_rect,4,1.945,1,2,0,2,0,1,,,,,,,,,,,,,
63bc819194ca25a555eb8fb5,SCN,2024-06-20_16h32.29.159,LearnStrategy,2023.2.3,Win32,59.52380952,4,1,4,0.57421875,0.260416667,1,0,0,1.6282,Gabbro_03,4,03,5,8,1.628,0.38671875,-0.251302083,1,0,0,1.4391,Gabbro_rect,4,1.439,1,3,0,3,0,1,,,,,,,,,,,,,
63bc819194ca25a555eb8fb5,SCN,2024-06-20_16h32.29.159,LearnStrategy,2023.2.3,Win32,59.52380952,4,1,5,0.397135417,0.10546875,1,0,0,2.4946,Obsidian_05,5,05,4,7,2.495,-0.43359375,-0.407552083,1,0,0,1.7802,Obsidian_rect,5,1.78,1,4,0,4,0,1,,,,,,,,,,,,,
63bc819194ca25a555eb8fb5,SCN,2024-06-20_16h32.29.159,LearnStrategy,2023.2.3,Win32,59.52380952,4,1,6,-0.377604167,0.119791667,1,0,0,5.1726,Diorite_11,3,11,4,2,5.173,-0.40234375,-0.247395833,1,0,0,1.9217,Andesite_rect,1,1.922,0,5,0,5,0,1,,,,,,,,,,,,,
63bc819194ca25a555eb8fb5,SCN,2024-06-20_16h32.29.159,LearnStrategy,2023.2.3,Win32,59.52380952,4,1,7,-0.23828125,0.091145833,1,0,0,1.1689,Diorite_10,3,10,4,3,1.169,-0.401041667,-0.263020833,1,0,0,2.7114,Andesite_rect,1,2.711,0,6,0,6,0,1,,,,,,,,,,,,,
63bc819194ca25a555eb8fb5,SCN,2024-06-20_16h32.29.159,LearnStrategy,2023.2.3,Win32,59.52380952,4,1,8,0.553385417,-0.428385417,1,0,0,2.6928,Pegmatite_05,6,05,1,8,2.693,0.110677083,-0.388020833,1,0,0,4.0274,Peridotite_rect,7,4.027,0,7,0,7,0,1,,,,,,,,,,,,,
63bc819194ca25a555eb8fb5,SCN,2024-06-20_16h32.29.159,LearnStrategy,2023.2.3,Win32,59.52380952,4,1,9,-0.23046875,0.234375,1,0,0,2.5314,Pegmatite_11,6,11,5,3,2.531,-0.115885417,-0.403645833,1,0,0,1.6527,Pegmatite_rect,6,1.653,1,8,0,8,0,1,,,,,,,,,,,,,
63bc819194ca25a555eb8fb5,SCN,2024-06-20_16h32.29.159,LearnStrategy,2023.2.3,Win32,59.52380952,4,1,10,-0.563802083,-0.259114583,1,0,0,3.1124,Diorite_12,3,12,2,1,3.112,0.346354167,-0.23828125,1,0,0,4.0072,Gabbro_rect,4,4.007,0,9,0,9,0,1,,,,,,,,,,,,,
63bc819194ca25a555eb8fb5,SCN,2024-06-20_16h32.29.159,LearnStrategy,2023.2.3,Win32,59.52380952,4,1,11,0.541666667,0.09375,1,0,0,1.9373,Gabbro_15,4,15,4,8,1.937,-0.1640625,-0.41796875,1,0,0,3.808,Pegmatite_rect,6,3.808,0,10,0,10,0,1,,,,,,,,,,,,,
63bc819194ca25a555eb8fb5,SCN,2024-06-20_16h32.29.159,LearnStrategy,2023.2.3,Win32,59.52380952,4,1,12,0.09375,0.248697917,1,0,0,4.8226,Gabbro_08,4,08,5,5,4.823,0.4453125,-0.25390625,1,0,0,5.5387,Gabbro_rect,4,5.539,1,11,0,11,0,1,,,,,,,,,,,,,
63bc819194ca25a555eb8fb5,SCN,2024-06-20_16h32.29.159,LearnStrategy,2023.2.3,Win32,59.52380952,4,1,13,-0.408854167,0.243489583,1,0,0,2.0738,Diorite_06,3,06,5,2,2.074,0.408854167,-0.251302083,1,0,0,1.2943,Gabbro_rect,4,1.294,0,12,0,12,0,1,,,,,,,,,,,,,
63bc819194ca25a555eb8fb5,SCN,2024-06-20_16h32.29.159,LearnStrategy,2023.2.3,Win32,59.52380952,4,1,14,-0.365885417,-0.391927083,1,0,0,6.7501,Andesite_11,1,11,1,2,6.75,-0.1328125,-0.25,1,0,0,1.9485,Basalt_rect,2,1.948,0,13,0,13,0,1,,,,,,,,,,,,,
63bc819194ca25a555eb8fb5,SCN,2024-06-20_16h32.29.159,LearnStrategy,2023.2.3,Win32,59.52380952,4,1,15,-0.05859375,-0.41796875,1,0,0,3.3232,Pegmatite_09,6,09,1,4,3.323,-0.05859375,-0.41796875,1,0,0,2.6201,Pegmatite_rect,6,2.62,1,14,0,14,0,1,,,,,,,,,,,,,
63bc819194ca25a555eb8fb5,SCN,2024-06-20_16h32.29.159,LearnStrategy,2023.2.3,Win32,59.52380952,4,1,16,0.119791667,-0.42578125,1,0,0,3.0791,Andesite_07,1,07,1,5,3.079,-0.106770833,-0.388020833,1,0,0,3.1245,Pegmatite_rect,6,3.124,0,15,0,15,0,1,,,,,,,,,,,,,
63bc819194ca25a555eb8fb5,SCN,2024-06-20_16h32.29.159,LearnStrategy,2023.2.3,Win32,59.52380952,4,2,1,,,,,,,,6,08,,,,,,,,,,,6,3.379,1,,,,,,-0.119791667,-0.3984375,1,0,0,3.3786,Pegmatite_rect,0,0,0,0,1,
63bc819194ca25a555eb8fb5,SCN,2024-06-20_16h32.29.159,LearnStrategy,2023.2.3,Win32,59.52380952,4,2,2,,,,,,,,2,12,,,,,,,,,,,1,23.116,0,,,,,,-0.411458333,-0.25,1,0,0,23.1159,Andesite_rect,1,0,1,0,1,
63bc819194ca25a555eb8fb5,SCN,2024-06-20_16h32.29.159,LearnStrategy,2023.2.3,Win32,59.52380952,4,2,3,,,,,,,,4,10,,,,,,,,,,,3,7.788,0,,,,,,0.138020833,-0.259114583,1,0,0,7.788,Diorite_rect,2,0,2,0,1,
63bc819194ca25a555eb8fb5,SCN,2024-06-20_16h32.29.159,LearnStrategy,2023.2.3,Win32,59.52380952,4,2,4,,,,,,,,8,08,,,,,,,,,,,8,2.71,1,,,,,,0.399739583,-0.403645833,1,0,0,2.7102,Pumice_rect,3,0,3,0,1,
63bc819194ca25a555eb8fb5,SCN,2024-06-20_16h32.29.159,LearnStrategy,2023.2.3,Win32,59.52380952,4,2,5,,,,,,,,8,06,,,,,,,,,,,8,2.382,1,,,,,,0.403645833,-0.404947917,1,0,0,2.382,Pumice_rect,4,0,4,0,1,
63bc819194ca25a555eb8fb5,SCN,2024-06-20_16h32.29.159,LearnStrategy,2023.2.3,Win32,59.52380952,4,2,6,,,,,,,,5,06,,,,,,,,,,,5,2.88,1,,,,,,-0.364583333,-0.390625,1,0,0,2.88,Obsidian_rect,5,0,5,0,1,
63bc819194ca25a555eb8fb5,SCN,2024-06-20_16h32.29.159,LearnStrategy,2023.2.3,Win32,59.52380952,4,2,7,,,,,,,,1,16,,,,,,,,,,,3,7.616,0,,,,,,0.1640625,-0.255208333,1,0,0,7.6164,Diorite_rect,6,0,6,0,1,
63bc819194ca25a555eb8fb5,SCN,2024-06-20_16h32.29.159,LearnStrategy,2023.2.3,Win32,59.52380952,4,2,8,,,,,,,,6,06,,,,,,,,,,,6,3.447,1,,,,,,-0.114583333,-0.40625,1,0,0,3.4473,Pegmatite_rect,7,0,7,0,1,
63bc819194ca25a555eb8fb5,SCN,2024-06-20_16h32.29.159,LearnStrategy,2023.2.3,Win32,59.52380952,4,2,9,,,,,,,,4,14,,,,,,,,,,,4,4.471,1,,,,,,0.3359375,-0.23828125,1,0,0,4.471,Gabbro_rect,8,0,8,0,1,
63bc819194ca25a555eb8fb5,SCN,2024-06-20_16h32.29.159,LearnStrategy,2023.2.3,Win32,59.52380952,4,2,10,,,,,,,,1,03,,,,,,,,,,,2,2.349,0,,,,,,-0.12890625,-0.255208333,1,0,0,2.3491,Basalt_rect,9,0,9,0,1,
63bc819194ca25a555eb8fb5,SCN,2024-06-20_16h32.29.159,LearnStrategy,2023.2.3,Win32,59.52380952,4,2,11,,,,,,,,7,05,,,,,,,,,,,7,2.282,1,,,,,,0.110677083,-0.3984375,1,0,0,2.2823,Peridotite_rect,10,0,10,0,1,
63bc819194ca25a555eb8fb5,SCN,2024-06-20_16h32.29.159,LearnStrategy,2023.2.3,Win32,59.52380952,4,2,12,,,,,,,,3,07,,,,,,,,,,,6,3.767,0,,,,,,-0.084635417,-0.416666667,1,0,0,3.7675,Pegmatite_rect,11,0,11,0,1,
63bc819194ca25a555eb8fb5,SCN,2024-06-20_16h32.29.159,LearnStrategy,2023.2.3,Win32,59.52380952,4,2,13,,,,,,,,3,14,,,,,,,,,,,3,5.218,1,,,,,,0.122395833,-0.234375,1,0,0,5.2181,Diorite_rect,12,0,12,0,1,
63bc819194ca25a555eb8fb5,SCN,2024-06-20_16h32.29.159,LearnStrategy,2023.2.3,Win32,59.52380952,4,2,14,,,,,,,,2,11,,,,,,,,,,,2,7.927,1,,,,,,-0.139322917,-0.240885417,1,0,0,7.9272,Basalt_rect,13,0,13,0,1,
63bc819194ca25a555eb8fb5,SCN,2024-06-20_16h32.29.159,LearnStrategy,2023.2.3,Win32,59.52380952,4,2,15,,,,,,,,7,14,,,,,,,,,,,3,8.193,0,,,,,,0.143229167,-0.247395833,1,0,0,8.1933,Diorite_rect,14,0,14,0,1,
63bc819194ca25a555eb8fb5,SCN,2024-06-20_16h32.29.159,LearnStrategy,2023.2.3,Win32,59.52380952,4,2,16,,,,,,,,5,07,,,,,,,,,,,5,1.638,1,,,,,,-0.393229167,-0.399739583,1,0,0,1.6379,Obsidian_rect,15,0,15,0,1,
63bc819194ca25a555eb8fb5,SCN,2024-06-20_16h32.29.159,LearnStrategy,2023.2.3,Win32,59.52380952,5,1,1,-0.401041667,0.25,1,0,0,3.9312,Diorite_06,3,06,5,2,3.931,-0.354166667,-0.23046875,1,0,0,2.5994,Andesite_rect,1,2.599,0,0,0,0,0,1,,,,,,,,,,,,,
63bc819194ca25a555eb8fb5,SCN,2024-06-20_16h32.29.159,LearnStrategy,2023.2.3,Win32,59.52380952,5,1,2,0.23046875,0.3046875,1,0,0,1.3528,Pegmatite_12,6,12,5,6,1.353,-0.087239583,-0.395833333,1,0,0,3.8754,Pegmatite_rect,6,3.875,1,1,0,1,0,1,,,,,,,,,,,,,
63bc819194ca25a555eb8fb5,SCN,2024-06-20_16h32.29.159,LearnStrategy,2023.2.3,Win32,59.52380952,5,1,3,0.545572917,0.283854167,1,0,0,1.4867,Gabbro_03,4,03,5,8,1.487,0.41015625,-0.248697917,1,0,0,1.8549,Gabbro_rect,4,1.855,1,2,0,2,0,1,,,,,,,,,,,,,
63bc819194ca25a555eb8fb5,SCN,2024-06-20_16h32.29.159,LearnStrategy,2023.2.3,Win32,59.52380952,5,1,4,0.401041667,0.430989583,1,0,0,1.5512,Peridotite_06,7,06,6,7,1.551,-0.127604167,-0.412760417,1,0,0,2.8521,Pegmatite_rect,6,2.852,0,3,0,3,0,1,,,,,,,,,,,,,
63bc819194ca25a555eb8fb5,SCN,2024-06-20_16h32.29.159,LearnStrategy,2023.2.3,Win32,59.52380952,5,1,5,0.5390625,0.369791667,1,0,0,2.4944,Peridotite_08,7,08,6,8,2.494,0.106770833,-0.412760417,1,0,0,2.8061,Peridotite_rect,7,2.806,1,4,0,4,0,1,,,,,,,,,,,,,
63bc819194ca25a555eb8fb5,SCN,2024-06-20_16h32.29.159,LearnStrategy,2023.2.3,Win32,59.52380952,5,1,6,-0.055989583,-0.23828125,1,0,0,4.1561,Basalt_02,2,02,2,4,4.156,-0.15625,-0.259114583,1,0,0,3.1333,Basalt_rect,2,3.133,1,5,0,5,0,1,,,,,,,,,,,,,
63bc819194ca25a555eb8fb5,SCN,2024-06-20_16h32.29.159,LearnStrategy,2023.2.3,Win32,59.52380952,5,1,7,-0.510416667,-0.0703125,1,0,0,1.9016,Andesite_10,1,10,3,1,1.902,0.12890625,-0.231770833,1,0,0,4.2374,Diorite_rect,3,4.237,0,6,0,6,0,1,,,,,,,,,,,,,
63bc819194ca25a555eb8fb5,SCN,2024-06-20_16h32.29.159,LearnStrategy,2023.2.3,Win32,59.52380952,5,1,8,-0.061197917,0.08984375,1,0,0,1.7145,Andesite_09,1,09,4,4,1.715,-0.384114583,-0.247395833,1,0,0,1.4253,Andesite_rect,1,1.425,1,7,0,7,0,1,,,,,,,,,,,,,
63bc819194ca25a555eb8fb5,SCN,2024-06-20_16h32.29.159,LearnStrategy,2023.2.3,Win32,59.52380952,5,1,9,0.095052083,0.1015625,1,0,0,1.267,Basalt_06,2,06,4,5,1.267,0.118489583,-0.229166667,1,0,0,2.1763,Diorite_rect,3,2.176,0,8,0,8,0,1,,,,,,,,,,,,,
63bc819194ca25a555eb8fb5,SCN,2024-06-20_16h32.29.159,LearnStrategy,2023.2.3,Win32,59.52380952,5,1,10,0.080729167,0.436197917,1,0,0,2.4028,Basalt_09,2,09,6,5,2.403,-0.13671875,-0.255208333,1,0,0,2.392,Basalt_rect,2,2.392,1,9,0,9,0,1,,,,,,,,,,,,,
63bc819194ca25a555eb8fb5,SCN,2024-06-20_16h32.29.159,LearnStrategy,2023.2.3,Win32,59.52380952,5,1,11,-0.067708333,-0.26953125,1,0,0,2.0235,Basalt_02,2,02,2,4,2.024,-0.09765625,-0.231770833,1,0,0,1.3262,Basalt_rect,2,1.326,1,10,0,10,0,1,,,,,,,,,,,,,
63bc819194ca25a555eb8fb5,SCN,2024-06-20_16h32.29.159,LearnStrategy,2023.2.3,Win32,59.52380952,5,1,12,0.563802083,-0.09375,1,0,0,3.1919,Obsidian_14,5,14,3,8,3.192,-0.3828125,-0.391927083,1,0,0,2.2286,Obsidian_rect,5,2.229,1,11,0,11,0,1,,,,,,,,,,,,,
63bc819194ca25a555eb8fb5,SCN,2024-06-20_16h32.29.159,LearnStrategy,2023.2.3,Win32,59.52380952,5,1,13,-0.533854167,0.25390625,1,0,0,2.7714,Basalt_04,2,04,5,1,2.771,-0.139322917,-0.248697917,1,0,0,1.8866,Basalt_rect,2,1.887,1,12,0,12,0,1,,,,,,,,,,,,,
63bc819194ca25a555eb8fb5,SCN,2024-06-20_16h32.29.159,LearnStrategy,2023.2.3,Win32,59.52380952,5,1,14,-0.053385417,-0.100260417,1,0,0,3.6414,Peridotite_13,7,13,3,4,3.641,-0.098958333,-0.4140625,1,0,0,3.6736,Pegmatite_rect,6,3.674,0,13,0,13,0,1,,,,,,,,,,,,,
63bc819194ca25a555eb8fb5,SCN,2024-06-20_16h32.29.159,LearnStrategy,2023.2.3,Win32,59.52380952,5,1,15,0.255208333,-0.088541667,1,0,0,1.544,Andesite_05,1,05,3,6,1.544,0.1484375,-0.412760417,1,0,0,1.6681,Peridotite_rect,7,1.668,0,14,0,14,0,1,,,,,,,,,,,,,
63bc819194ca25a555eb8fb5,SCN,2024-06-20_16h32.29.159,LearnStrategy,2023.2.3,Win32,59.52380952,5,1,16,0.389322917,-0.412760417,1,0,0,2.7723,Gabbro_11,4,11,1,7,2.772,0.411458333,-0.255208333,1,0,0,1.2465,Gabbro_rect,4,1.246,1,15,0,15,0,1,,,,,,,,,,,,,
63bc819194ca25a555eb8fb5,SCN,2024-06-20_16h32.29.159,LearnStrategy,2023.2.3,Win32,59.52380952,5,2,1,,,,,,,,6,07,,,,,,,,,,,6,3.161,1,,,,,,-0.149739583,-0.416666667,1,0,0,3.1607,Pegmatite_rect,0,0,0,0,1,
63bc819194ca25a555eb8fb5,SCN,2024-06-20_16h32.29.159,LearnStrategy,2023.2.3,Win32,59.52380952,5,2,2,,,,,,,,4,09,,,,,,,,,,,1,28.048,0,,,,,,-0.399739583,-0.248697917,1,0,0,28.0483,Andesite_rect,1,0,1,0,1,
63bc819194ca25a555eb8fb5,SCN,2024-06-20_16h32.29.159,LearnStrategy,2023.2.3,Win32,59.52380952,5,2,3,,,,,,,,2,08,,,,,,,,,,,2,1.511,1,,,,,,-0.130208333,-0.24609375,1,0,0,1.5108,Basalt_rect,2,0,2,0,1,
63bc819194ca25a555eb8fb5,SCN,2024-06-20_16h32.29.159,LearnStrategy,2023.2.3,Win32,59.52380952,5,2,4,,,,,,,,2,05,,,,,,,,,,,2,1.393,1,,,,,,-0.130208333,-0.24609375,1,0,0,1.3933,Basalt_rect,3,0,3,0,1,
63bc819194ca25a555eb8fb5,SCN,2024-06-20_16h32.29.159,LearnStrategy,2023.2.3,Win32,59.52380952,5,2,5,,,,,,,,5,12,,,,,,,,,,,5,1.589,1,,,,,,-0.373697917,-0.401041667,1,0,0,1.5886,Obsidian_rect,4,0,4,0,1,
63bc819194ca25a555eb8fb5,SCN,2024-06-20_16h32.29.159,LearnStrategy,2023.2.3,Win32,59.52380952,5,2,6,,,,,,,,3,13,,,,,,,,,,,7,6.95,0,,,,,,0.154947917,-0.381510417,1,0,0,6.9499,Peridotite_rect,5,0,5,0,1,
63bc819194ca25a555eb8fb5,SCN,2024-06-20_16h32.29.159,LearnStrategy,2023.2.3,Win32,59.52380952,5,2,7,,,,,,,,7,12,,,,,,,,,,,7,1.475,1,,,,,,0.154947917,-0.381510417,1,0,0,1.4745,Peridotite_rect,6,0,6,0,1,
63bc819194ca25a555eb8fb5,SCN,2024-06-20_16h32.29.159,LearnStrategy,2023.2.3,Win32,59.52380952,5,2,8,,,,,,,,5,11,,,,,,,,,,,5,1.643,1,,,,,,-0.395833333,-0.390625,1,0,0,1.6426,Obsidian_rect,7,0,7,0,1,
63bc819194ca25a555eb8fb5,SCN,2024-06-20_16h32.29.159,LearnStrategy,2023.2.3,Win32,59.52380952,5,2,9,,,,,,,,8,10,,,,,,,,,,,8,1.845,1,,,,,,0.43359375,-0.39453125,1,0,0,1.845,Pumice_rect,8,0,8,0,1,
63bc819194ca25a555eb8fb5,SCN,2024-06-20_16h32.29.159,LearnStrategy,2023.2.3,Win32,59.52380952,5,2,10,,,,,,,,1,14,,,,,,,,,,,6,4.145,0,,,,,,-0.08984375,-0.391927083,1,0,0,4.1446,Pegmatite_rect,9,0,9,0,1,
63bc819194ca25a555eb8fb5,SCN,2024-06-20_16h32.29.159,LearnStrategy,2023.2.3,Win32,59.52380952,5,2,11,,,,,,,,3,08,,,,,,,,,,,7,2.25,0,,,,,,0.162760417,-0.3984375,1,0,0,2.2495,Peridotite_rect,10,0,10,0,1,
63bc819194ca25a555eb8fb5,SCN,2024-06-20_16h32.29.159,LearnStrategy,2023.2.3,Win32,59.52380952,5,2,12,,,,,,,,4,12,,,,,,,,,,,4,2.964,1,,,,,,0.44140625,-0.240885417,1,0,0,2.9637,Gabbro_rect,11,0,11,0,1,
63bc819194ca25a555eb8fb5,SCN,2024-06-20_16h32.29.159,LearnStrategy,2023.2.3,Win32,59.52380952,5,2,13,,,,,,,,1,02,,,,,,,,,,,3,11.062,0,,,,,,0.096354167,-0.247395833,1,0,0,11.0619,Diorite_rect,12,0,12,0,1,
63bc819194ca25a555eb8fb5,SCN,2024-06-20_16h32.29.159,LearnStrategy,2023.2.3,Win32,59.52380952,5,2,14,,,,,,,,7,10,,,,,,,,,,,7,1.97,1,,,,,,0.13671875,-0.395833333,1,0,0,1.9703,Peridotite_rect,13,0,13,0,1,
63bc819194ca25a555eb8fb5,SCN,2024-06-20_16h32.29.159,LearnStrategy,2023.2.3,Win32,59.52380952,5,2,15,,,,,,,,8,05,,,,,,,,,,,8,1.674,1,,,,,,0.407552083,-0.404947917,1,0,0,1.6736,Pumice_rect,14,0,14,0,1,
63bc819194ca25a555eb8fb5,SCN,2024-06-20_16h32.29.159,LearnStrategy,2023.2.3,Win32,59.52380952,5,2,16,,,,,,,,6,10,,,,,,,,,,,6,5.778,1,,,,,,-0.1484375,-0.403645833,1,0,0,5.7781,Pegmatite_rect,15,0,15,0,1,
63bc819194ca25a555eb8fb5,SCN,2024-06-20_16h32.29.159,LearnStrategy,2023.2.3,Win32,59.52380952,6,1,1,-0.087239583,0.233072917,1,0,0,6.1757,Gabbro_01,4,01,5,4,6.176,-0.380208333,-0.240885417,1,0,0,2.9368,Andesite_rect,1,2.937,0,0,0,0,0,1,,,,,,,,,,,,,
63bc819194ca25a555eb8fb5,SCN,2024-06-20_16h32.29.159,LearnStrategy,2023.2.3,Win32,59.52380952,6,1,2,0.114583333,0.264322917,1,0,0,1.6126,Gabbro_08,4,08,5,5,1.613,0.3671875,-0.263020833,1,0,0,1.8504,Gabbro_rect,4,1.85,1,1,0,1,0,1,,,,,,,,,,,,,
63bc819194ca25a555eb8fb5,SCN,2024-06-20_16h32.29.159,LearnStrategy,2023.2.3,Win32,59.52380952,6,1,3,0.203125,0.412760417,1,0,0,3.4184,Peridotite_07,7,07,6,6,3.418,0.143229167,-0.388020833,1,0,0,1.6585,Peridotite_rect,7,1.659,1,2,0,2,0,1,,,,,,,,,,,,,
63bc819194ca25a555eb8fb5,SCN,2024-06-20_16h32.29.159,LearnStrategy,2023.2.3,Win32,59.52380952,6,1,4,0.251302083,-0.111979167,1,0,0,2.0324,Andesite_05,1,05,3,6,2.032,0.401041667,-0.25390625,1,0,0,1.7598,Gabbro_rect,4,1.76,0,3,0,3,0,1,,,,,,,,,,,,,
63bc819194ca25a555eb8fb5,SCN,2024-06-20_16h32.29.159,LearnStrategy,2023.2.3,Win32,59.52380952,6,1,5,0.069010417,-0.266927083,1,0,0,3.9581,Pegmatite_16,6,16,2,5,3.958,-0.115885417,-0.3984375,1,0,0,1.9094,Pegmatite_rect,6,1.909,1,4,0,4,0,1,,,,,,,,,,,,,
63bc819194ca25a555eb8fb5,SCN,2024-06-20_16h32.29.159,LearnStrategy,2023.2.3,Win32,59.52380952,6,1,6,0.119791667,-0.424479167,1,0,0,2.7165,Andesite_07,1,07,1,5,2.716,-0.33203125,-0.251302083,1,0,0,1.8441,Andesite_rect,1,1.844,1,5,0,5,0,1,,,,,,,,,,,,,
63bc819194ca25a555eb8fb5,SCN,2024-06-20_16h32.29.159,LearnStrategy,2023.2.3,Win32,59.52380952,6,1,7,-0.53515625,-0.223958333,1,0,0,1.8892,Diorite_12,3,12,2,1,1.889,-0.430989583,-0.243489583,1,0,0,1.2607,Andesite_rect,1,1.261,0,6,0,6,0,1,,,,,,,,,,,,,
63bc819194ca25a555eb8fb5,SCN,2024-06-20_16h32.29.159,LearnStrategy,2023.2.3,Win32,59.52380952,6,1,8,-0.41015625,-0.10546875,1,0,0,1.3037,Diorite_09,3,09,3,2,1.304,0.145833333,-0.247395833,1,0,0,1.3234,Diorite_rect,3,1.323,1,7,0,7,0,1,,,,,,,,,,,,,
63bc819194ca25a555eb8fb5,SCN,2024-06-20_16h32.29.159,LearnStrategy,2023.2.3,Win32,59.52380952,6,1,9,-0.368489583,0.083333333,1,0,0,1.8093,Diorite_11,3,11,4,2,1.809,0.109375,-0.244791667,1,0,0,3.6638,Diorite_rect,3,3.664,1,8,0,8,0,1,,,,,,,,,,,,,
63bc819194ca25a555eb8fb5,SCN,2024-06-20_16h32.29.159,LearnStrategy,2023.2.3,Win32,59.52380952,6,1,10,-0.2265625,0.084635417,1,0,0,1.42,Diorite_10,3,10,4,3,1.42,0.114583333,-0.251302083,1,0,0,1.3616,Diorite_rect,3,1.362,1,9,0,9,0,1,,,,,,,,,,,,,
63bc819194ca25a555eb8fb5,SCN,2024-06-20_16h32.29.159,LearnStrategy,2023.2.3,Win32,59.52380952,6,1,11,-0.052083333,0.2578125,1,0,0,2.0543,Gabbro_01,4,01,5,4,2.054,0.134114583,-0.255208333,1,0,0,2.3861,Diorite_rect,3,2.386,0,10,0,10,0,1,,,,,,,,,,,,,
63bc819194ca25a555eb8fb5,SCN,2024-06-20_16h32.29.159,LearnStrategy,2023.2.3,Win32,59.52380952,6,1,12,0.104166667,0.259114583,1,0,0,1.8594,Gabbro_08,4,08,5,5,1.859,0.372395833,-0.236979167,1,0,0,2.1029,Gabbro_rect,4,2.103,1,11,0,11,0,1,,,,,,,,,,,,,
63bc819194ca25a555eb8fb5,SCN,2024-06-20_16h32.29.159,LearnStrategy,2023.2.3,Win32,59.52380952,6,1,13,0.263020833,0.248697917,1,0,0,1.8701,Pegmatite_12,6,12,5,6,1.87,-0.126302083,-0.388020833,1,0,0,2.988,Pegmatite_rect,6,2.988,1,12,0,12,0,1,,,,,,,,,,,,,
63bc819194ca25a555eb8fb5,SCN,2024-06-20_16h32.29.159,LearnStrategy,2023.2.3,Win32,59.52380952,6,1,14,-0.399739583,0.397135417,1,0,0,3.4673,Diorite_16,3,16,6,2,3.467,-0.39453125,-0.24609375,1,0,0,3.7039,Andesite_rect,1,3.704,0,13,0,13,0,1,,,,,,,,,,,,,
63bc819194ca25a555eb8fb5,SCN,2024-06-20_16h32.29.159,LearnStrategy,2023.2.3,Win32,59.52380952,6,1,15,-0.537760417,0.401041667,1,0,0,4.9373,Andesite_01,1,01,6,1,4.937,-0.376302083,-0.259114583,1,0,0,4.2859,Andesite_rect,1,4.286,1,14,0,14,0,1,,,,,,,,,,,,,
63bc819194ca25a555eb8fb5,SCN,2024-06-20_16h32.29.159,LearnStrategy,2023.2.3,Win32,59.52380952,6,1,16,0.53125,-0.428385417,1,0,0,4.1651,Pegmatite_05,6,05,1,8,4.165,-0.158854167,-0.393229167,1,0,0,2.9238,Pegmatite_rect,6,2.924,1,15,0,15,0,1,,,,,,,,,,,,,
63bc819194ca25a555eb8fb5,SCN,2024-06-20_16h32.29.159,LearnStrategy,2023.2.3,Win32,59.52380952,6,2,1,,,,,,,,1,04,,,,,,,,,,,3,9.273,0,,,,,,0.139322917,-0.264322917,1,0,0,9.2734,Diorite_rect,0,0,0,0,1,
63bc819194ca25a555eb8fb5,SCN,2024-06-20_16h32.29.159,LearnStrategy,2023.2.3,Win32,59.52380952,6,2,2,,,,,,,,7,16,,,,,,,,,,,7,15.023,1,,,,,,0.139322917,-0.41015625,1,0,0,15.0229,Peridotite_rect,1,0,1,0,1,
63bc819194ca25a555eb8fb5,SCN,2024-06-20_16h32.29.159,LearnStrategy,2023.2.3,Win32,59.52380952,6,2,3,,,,,,,,2,10,,,,,,,,,,,2,3.167,1,,,,,,-0.140625,-0.247395833,1,0,0,3.1671,Basalt_rect,2,0,2,0,1,
63bc819194ca25a555eb8fb5,SCN,2024-06-20_16h32.29.159,LearnStrategy,2023.2.3,Win32,59.52380952,6,2,4,,,,,,,,5,16,,,,,,,,,,,5,1.852,1,,,,,,-0.345052083,-0.380208333,1,0,0,1.852,Obsidian_rect,3,0,3,0,1,
63bc819194ca25a555eb8fb5,SCN,2024-06-20_16h32.29.159,LearnStrategy,2023.2.3,Win32,59.52380952,6,2,5,,,,,,,,3,02,,,,,,,,,,,1,5.106,0,,,,,,-0.42578125,-0.248697917,1,0,0,5.106,Andesite_rect,4,0,4,0,1,
63bc819194ca25a555eb8fb5,SCN,2024-06-20_16h32.29.159,LearnStrategy,2023.2.3,Win32,59.52380952,6,2,6,,,,,,,,6,13,,,,,,,,,,,6,3.222,1,,,,,,-0.11328125,-0.408854167,1,0,0,3.2219,Pegmatite_rect,5,0,5,0,1,
63bc819194ca25a555eb8fb5,SCN,2024-06-20_16h32.29.159,LearnStrategy,2023.2.3,Win32,59.52380952,6,2,7,,,,,,,,8,04,,,,,,,,,,,8,1.819,1,,,,,,0.404947917,-0.399739583,1,0,0,1.8186,Pumice_rect,6,0,6,0,1,
63bc819194ca25a555eb8fb5,SCN,2024-06-20_16h32.29.159,LearnStrategy,2023.2.3,Win32,59.52380952,6,2,8,,,,,,,,6,03,,,,,,,,,,,6,2.219,1,,,,,,-0.139322917,-0.391927083,1,0,0,2.2191,Pegmatite_rect,7,0,7,0,1,
63bc819194ca25a555eb8fb5,SCN,2024-06-20_16h32.29.159,LearnStrategy,2023.2.3,Win32,59.52380952,6,2,9,,,,,,,,5,09,,,,,,,,,,,5,1.9,1,,,,,,-0.3828125,-0.401041667,1,0,0,1.9003,Obsidian_rect,8,0,8,0,1,
63bc819194ca25a555eb8fb5,SCN,2024-06-20_16h32.29.159,LearnStrategy,2023.2.3,Win32,59.52380952,6,2,10,,,,,,,,7,15,,,,,,,,,,,7,2.242,1,,,,,,0.1484375,-0.40625,1,0,0,2.242,Peridotite_rect,9,0,9,0,1,
63bc819194ca25a555eb8fb5,SCN,2024-06-20_16h32.29.159,LearnStrategy,2023.2.3,Win32,59.52380952,6,2,11,,,,,,,,2,14,,,,,,,,,,,8,8.686,0,,,,,,0.369791667,-0.401041667,1,0,0,8.686,Pumice_rect,10,0,10,0,1,
63bc819194ca25a555eb8fb5,SCN,2024-06-20_16h32.29.159,LearnStrategy,2023.2.3,Win32,59.52380952,6,2,12,,,,,,,,3,15,,,,,,,,,,,3,6.587,1,,,,,,0.17578125,-0.244791667,1,0,0,6.5874,Diorite_rect,11,0,11,0,1,
63bc819194ca25a555eb8fb5,SCN,2024-06-20_16h32.29.159,LearnStrategy,2023.2.3,Win32,59.52380952,6,2,13,,,,,,,,1,06,,,,,,,,,,,4,1.813,0,,,,,,0.3828125,-0.255208333,1,0,0,1.8131,Gabbro_rect,12,0,12,0,1,
63bc819194ca25a555eb8fb5,SCN,2024-06-20_16h32.29.159,LearnStrategy,2023.2.3,Win32,59.52380952,6,2,14,,,,,,,,8,09,,,,,,,,,,,8,2.445,1,,,,,,0.41015625,-0.404947917,1,0,0,2.4454,Pumice_rect,13,0,13,0,1,
63bc819194ca25a555eb8fb5,SCN,2024-06-20_16h32.29.159,LearnStrategy,2023.2.3,Win32,59.52380952,6,2,15,,,,,,,,4,05,,,,,,,,,,,4,6.266,1,,,,,,0.40625,-0.244791667,1,0,0,6.2656,Gabbro_rect,14,0,14,0,1,
63bc819194ca25a555eb8fb5,SCN,2024-06-20_16h32.29.159,LearnStrategy,2023.2.3,Win32,59.52380952,6,2,16,,,,,,,,4,13,,,,,,,,,,,4,2.205,1,,,,,,0.385416667,-0.240885417,1,0,0,2.2045,Gabbro_rect,15,0,15,0,1,
63bc819194ca25a555eb8fb5,SCN,2024-06-20_16h32.29.159,LearnStrategy,2023.2.3,Win32,59.52380952,7,1,1,0.389322917,0.393229167,1,0,0,3.5848,Peridotite_06,7,06,6,7,3.585,0.154947917,-0.384114583,1,0,0,1.8705,Peridotite_rect,7,1.87,1,0,0,0,0,1,,,,,,,,,,,,,
63bc819194ca25a555eb8fb5,SCN,2024-06-20_16h32.29.159,LearnStrategy,2023.2.3,Win32,59.52380952,7,1,2,-0.209635417,-0.096354167,1,0,0,1.4151,Pegmatite_15,6,15,3,3,1.415,-0.098958333,-0.391927083,1,0,0,1.4751,Pegmatite_rect,6,1.475,1,1,0,1,0,1,,,,,,,,,,,,,
63bc819194ca25a555eb8fb5,SCN,2024-06-20_16h32.29.159,LearnStrategy,2023.2.3,Win32,59.52380952,7,1,3,-0.22265625,0.251302083,1,0,0,1.1269,Pegmatite_11,6,11,5,3,1.127,-0.135416667,-0.3828125,1,0,0,1.0805,Pegmatite_rect,6,1.081,1,2,0,2,0,1,,,,,,,,,,,,,
63bc819194ca25a555eb8fb5,SCN,2024-06-20_16h32.29.159,LearnStrategy,2023.2.3,Win32,59.52380952,7,1,4,-0.385416667,0.23828125,1,0,0,1.0797,Diorite_06,3,06,5,2,1.08,0.12109375,-0.248697917,1,0,0,2.203,Diorite_rect,3,2.203,1,3,0,3,0,1,,,,,,,,,,,,,
63bc819194ca25a555eb8fb5,SCN,2024-06-20_16h32.29.159,LearnStrategy,2023.2.3,Win32,59.52380952,7,1,5,-0.376302083,0.408854167,1,0,0,1.6928,Diorite_16,3,16,6,2,1.693,0.104166667,-0.263020833,1,0,0,2.0803,Diorite_rect,3,2.08,1,4,0,4,0,1,,,,,,,,,,,,,
63bc819194ca25a555eb8fb5,SCN,2024-06-20_16h32.29.159,LearnStrategy,2023.2.3,Win32,59.52380952,7,1,6,0.255208333,-0.0859375,1,0,0,3.3559,Andesite_05,1,05,3,6,3.356,-0.385416667,-0.252604167,1,0,0,2.0646,Andesite_rect,1,2.065,1,5,0,5,0,1,,,,,,,,,,,,,
63bc819194ca25a555eb8fb5,SCN,2024-06-20_16h32.29.159,LearnStrategy,2023.2.3,Win32,59.52380952,7,1,7,0.095052083,-0.401041667,1,0,0,1.3616,Andesite_07,1,07,1,5,1.362,-0.408854167,-0.255208333,1,0,0,1.735,Andesite_rect,1,1.735,1,6,0,6,0,1,,,,,,,,,,,,,
63bc819194ca25a555eb8fb5,SCN,2024-06-20_16h32.29.159,LearnStrategy,2023.2.3,Win32,59.52380952,7,1,8,-0.51171875,-0.098958333,1,0,0,1.2713,Andesite_10,1,10,3,1,1.271,0.377604167,-0.256510417,1,0,0,2.5933,Gabbro_rect,4,2.593,0,7,0,7,0,1,,,,,,,,,,,,,
63bc819194ca25a555eb8fb5,SCN,2024-06-20_16h32.29.159,LearnStrategy,2023.2.3,Win32,59.52380952,7,1,9,-0.065104167,0.078125,1,0,0,1.937,Andesite_09,1,09,4,4,1.937,-0.403645833,-0.248697917,1,0,0,1.1855,Andesite_rect,1,1.186,1,8,0,8,0,1,,,,,,,,,,,,,
63bc819194ca25a555eb8fb5,SCN,2024-06-20_16h32.29.159,LearnStrategy,2023.2.3,Win32,59.52380952,7,1,10,0.537760417,0.256510417,1,0,0,1.7233,Gabbro_03,4,03,5,8,1.723,0.333333333,-0.255208333,1,0,0,1.5847,Gabbro_rect,4,1.585,1,9,0,9,0,1,,,,,,,,,,,,,
63bc819194ca25a555eb8fb5,SCN,2024-06-20_16h32.29.159,LearnStrategy,2023.2.3,Win32,59.52380952,7,1,11,-0.397135417,0.098958333,1,0,0,1.3045,Diorite_11,3,11,4,2,1.305,0.119791667,-0.240885417,1,0,0,1.6128,Diorite_rect,3,1.613,1,10,0,10,0,1,,,,,,,,,,,,,
63bc819194ca25a555eb8fb5,SCN,2024-06-20_16h32.29.159,LearnStrategy,2023.2.3,Win32,59.52380952,7,1,12,-0.391927083,0.234375,1,0,0,2.613,Diorite_06,3,06,5,2,2.613,0.130208333,-0.244791667,1,0,0,6.5232,Diorite_rect,3,6.523,1,11,0,11,0,1,,,,,,,,,,,,,
63bc819194ca25a555eb8fb5,SCN,2024-06-20_16h32.29.159,LearnStrategy,2023.2.3,Win32,59.52380952,7,1,13,0.06640625,0.255208333,1,0,0,1.9469,Gabbro_08,4,08,5,5,1.947,0.381510417,-0.24609375,1,0,0,1.729,Gabbro_rect,4,1.729,1,12,0,12,0,1,,,,,,,,,,,,,
63bc819194ca25a555eb8fb5,SCN,2024-06-20_16h32.29.159,LearnStrategy,2023.2.3,Win32,59.52380952,7,1,14,-0.088541667,-0.419270833,1,0,0,6.0632,Pegmatite_09,6,09,1,4,6.063,-0.11328125,-0.412760417,1,0,0,1.2855,Pegmatite_rect,6,1.285,1,13,0,13,0,1,,,,,,,,,,,,,
63bc819194ca25a555eb8fb5,SCN,2024-06-20_16h32.29.159,LearnStrategy,2023.2.3,Win32,59.52380952,7,1,15,-0.54296875,-0.247395833,1,0,0,2.5394,Diorite_12,3,12,2,1,2.539,0.12109375,-0.247395833,1,0,0,3.2921,Diorite_rect,3,3.292,1,14,0,14,0,1,,,,,,,,,,,,,
63bc819194ca25a555eb8fb5,SCN,2024-06-20_16h32.29.159,LearnStrategy,2023.2.3,Win32,59.52380952,7,1,16,0.546875,0.079427083,1,0,0,3.6663,Gabbro_15,4,15,4,8,3.666,0.369791667,-0.248697917,1,0,0,2.1236,Gabbro_rect,4,2.124,1,15,0,15,0,1,,,,,,,,,,,,,
63bc819194ca25a555eb8fb5,SCN,2024-06-20_16h32.29.159,LearnStrategy,2023.2.3,Win32,59.52380952,7,2,1,,,,,,,,2,10,,,,,,,,,,,2,6.165,1,,,,,,-0.11328125,-0.256510417,1,0,0,6.1649,Basalt_rect,0,0,0,0,1,
63bc819194ca25a555eb8fb5,SCN,2024-06-20_16h32.29.159,LearnStrategy,2023.2.3,Win32,59.52380952,7,2,2,,,,,,,,1,06,,,,,,,,,,,3,5.078,0,,,,,,0.12109375,-0.24609375,1,0,0,5.0779,Diorite_rect,1,0,1,0,1,
63bc819194ca25a555eb8fb5,SCN,2024-06-20_16h32.29.159,LearnStrategy,2023.2.3,Win32,59.52380952,7,2,3,,,,,,,,7,15,,,,,,,,,,,7,1.779,1,,,,,,0.118489583,-0.407552083,1,0,0,1.7794,Peridotite_rect,2,0,2,0,1,
63bc819194ca25a555eb8fb5,SCN,2024-06-20_16h32.29.159,LearnStrategy,2023.2.3,Win32,59.52380952,7,2,4,,,,,,,,3,14,,,,,,,,,,,3,6.249,1,,,,,,0.1640625,-0.243489583,1,0,0,6.2493,Diorite_rect,3,0,3,0,1,
63bc819194ca25a555eb8fb5,SCN,2024-06-20_16h32.29.159,LearnStrategy,2023.2.3,Win32,59.52380952,7,2,5,,,,,,,,5,11,,,,,,,,,,,5,1.61,1,,,,,,-0.421875,-0.403645833,1,0,0,1.6099,Obsidian_rect,4,0,4,0,1,
63bc819194ca25a555eb8fb5,SCN,2024-06-20_16h32.29.159,LearnStrategy,2023.2.3,Win32,59.52380952,7,2,6,,,,,,,,4,10,,,,,,,,,,,4,3.311,1,,,,,,0.416666667,-0.248697917,1,0,0,3.3105,Gabbro_rect,5,0,5,0,1,
63bc819194ca25a555eb8fb5,SCN,2024-06-20_16h32.29.159,LearnStrategy,2023.2.3,Win32,59.52380952,7,2,7,,,,,,,,8,06,,,,,,,,,,,8,1.378,1,,,,,,0.430989583,-0.40625,1,0,0,1.3782,Pumice_rect,6,0,6,0,1,
63bc819194ca25a555eb8fb5,SCN,2024-06-20_16h32.29.159,LearnStrategy,2023.2.3,Win32,59.52380952,7,2,8,,,,,,,,8,08,,,,,,,,,,,8,1.224,1,,,,,,0.397135417,-0.407552083,1,0,0,1.2236,Pumice_rect,7,0,7,0,1,
63bc819194ca25a555eb8fb5,SCN,2024-06-20_16h32.29.159,LearnStrategy,2023.2.3,Win32,59.52380952,7,2,9,,,,,,,,3,15,,,,,,,,,,,3,9.975,1,,,,,,0.12109375,-0.23828125,1,0,0,9.9754,Diorite_rect,8,0,8,0,1,
63bc819194ca25a555eb8fb5,SCN,2024-06-20_16h32.29.159,LearnStrategy,2023.2.3,Win32,59.52380952,7,2,10,,,,,,,,6,10,,,,,,,,,,,6,3.152,1,,,,,,-0.125,-0.401041667,1,0,0,3.1523,Pegmatite_rect,9,0,9,0,1,
63bc819194ca25a555eb8fb5,SCN,2024-06-20_16h32.29.159,LearnStrategy,2023.2.3,Win32,59.52380952,7,2,11,,,,,,,,2,12,,,,,,,,,,,2,10.07,1,,,,,,-0.1328125,-0.252604167,1,0,0,10.0695,Basalt_rect,10,0,10,0,1,
63bc819194ca25a555eb8fb5,SCN,2024-06-20_16h32.29.159,LearnStrategy,2023.2.3,Win32,59.52380952,7,2,12,,,,,,,,5,12,,,,,,,,,,,5,2.249,1,,,,,,-0.397135417,-0.41796875,1,0,0,2.2495,Obsidian_rect,11,0,11,0,1,
63bc819194ca25a555eb8fb5,SCN,2024-06-20_16h32.29.159,LearnStrategy,2023.2.3,Win32,59.52380952,7,2,13,,,,,,,,7,12,,,,,,,,,,,7,2.25,1,,,,,,0.140625,-0.389322917,1,0,0,2.2496,Peridotite_rect,12,0,12,0,1,
63bc819194ca25a555eb8fb5,SCN,2024-06-20_16h32.29.159,LearnStrategy,2023.2.3,Win32,59.52380952,7,2,14,,,,,,,,6,08,,,,,,,,,,,6,1.473,1,,,,,,-0.096354167,-0.419270833,1,0,0,1.473,Pegmatite_rect,13,0,13,0,1,
63bc819194ca25a555eb8fb5,SCN,2024-06-20_16h32.29.159,LearnStrategy,2023.2.3,Win32,59.52380952,7,2,15,,,,,,,,4,09,,,,,,,,,,,4,2.809,1,,,,,,0.416666667,-0.236979167,1,0,0,2.8085,Gabbro_rect,14,0,14,0,1,
63bc819194ca25a555eb8fb5,SCN,2024-06-20_16h32.29.159,LearnStrategy,2023.2.3,Win32,59.52380952,7,2,16,,,,,,,,1,02,,,,,,,,,,,1,4.782,1,,,,,,-0.40234375,-0.23828125,1,0,0,4.7821,Andesite_rect,15,0,15,0,1,
63bc819194ca25a555eb8fb5,SCN,2024-06-20_16h32.29.159,LearnStrategy,2023.2.3,Win32,59.52380952,8,1,1,-0.076822917,0.096354167,1,0,0,1.9318,Andesite_09,1,09,4,4,1.932,-0.376302083,-0.243489583,1,0,0,2.1268,Andesite_rect,1,2.127,1,0,0,0,0,1,,,,,,,,,,,,,
63bc819194ca25a555eb8fb5,SCN,2024-06-20_16h32.29.159,LearnStrategy,2023.2.3,Win32,59.52380952,8,1,2,0.07421875,0.415364583,1,0,0,1.3361,Basalt_09,2,09,6,5,1.336,-0.1328125,-0.239583333,1,0,0,1.2123,Basalt_rect,2,1.212,1,1,0,1,0,1,,,,,,,,,,,,,
63bc819194ca25a555eb8fb5,SCN,2024-06-20_16h32.29.159,LearnStrategy,2023.2.3,Win32,59.52380952,8,1,3,-0.233072917,0.408854167,1,0,0,1.2269,Peridotite_04,7,04,6,3,1.227,0.125,-0.401041667,1,0,0,1.8784,Peridotite_rect,7,1.878,1,2,0,2,0,1,,,,,,,,,,,,,
63bc819194ca25a555eb8fb5,SCN,2024-06-20_16h32.29.159,LearnStrategy,2023.2.3,Win32,59.52380952,8,1,4,-0.391927083,0.397135417,1,0,0,1.1204,Diorite_16,3,16,6,2,1.12,0.130208333,-0.255208333,1,0,0,1.7119,Diorite_rect,3,1.712,1,3,0,3,0,1,,,,,,,,,,,,,
63bc819194ca25a555eb8fb5,SCN,2024-06-20_16h32.29.159,LearnStrategy,2023.2.3,Win32,59.52380952,8,1,5,0.283854167,-0.1015625,1,0,0,2.0583,Andesite_05,1,05,3,6,2.058,-0.375,-0.25390625,1,0,0,1.3241,Andesite_rect,1,1.324,1,4,0,4,0,1,,,,,,,,,,,,,
63bc819194ca25a555eb8fb5,SCN,2024-06-20_16h32.29.159,LearnStrategy,2023.2.3,Win32,59.52380952,8,1,6,0.384114583,-0.41796875,1,0,0,1.7057,Gabbro_11,4,11,1,7,1.706,-0.165364583,-0.239583333,1,0,0,1.7411,Basalt_rect,2,1.741,0,5,0,5,0,1,,,,,,,,,,,,,
63bc819194ca25a555eb8fb5,SCN,2024-06-20_16h32.29.159,LearnStrategy,2023.2.3,Win32,59.52380952,8,1,7,-0.412760417,-0.421875,1,0,0,1.7931,Andesite_11,1,11,1,2,1.793,-0.399739583,-0.259114583,1,0,0,1.1696,Andesite_rect,1,1.17,1,6,0,6,0,1,,,,,,,,,,,,,
63bc819194ca25a555eb8fb5,SCN,2024-06-20_16h32.29.159,LearnStrategy,2023.2.3,Win32,59.52380952,8,1,8,0.578125,-0.403645833,1,0,0,1.6002,Pegmatite_05,6,05,1,8,1.6,-0.122395833,-0.390625,1,0,0,2.3421,Pegmatite_rect,6,2.342,1,7,0,7,0,1,,,,,,,,,,,,,
63bc819194ca25a555eb8fb5,SCN,2024-06-20_16h32.29.159,LearnStrategy,2023.2.3,Win32,59.52380952,8,1,9,-0.234375,0.0859375,1,0,0,1.8866,Diorite_10,3,10,4,3,1.887,0.177083333,-0.264322917,1,0,0,1.5859,Diorite_rect,3,1.586,1,8,0,8,0,1,,,,,,,,,,,,,
63bc819194ca25a555eb8fb5,SCN,2024-06-20_16h32.29.159,LearnStrategy,2023.2.3,Win32,59.52380952,8,1,10,-0.35546875,0.100260417,1,0,0,1.0051,Diorite_11,3,11,4,2,1.005,0.154947917,-0.247395833,1,0,0,0.912,Diorite_rect,3,0.912,1,9,0,9,0,1,,,,,,,,,,,,,
63bc819194ca25a555eb8fb5,SCN,2024-06-20_16h32.29.159,LearnStrategy,2023.2.3,Win32,59.52380952,8,1,11,0.561197917,0.087239583,1,0,0,1.1848,Gabbro_15,4,15,4,8,1.185,0.368489583,-0.240885417,1,0,0,1.4733,Gabbro_rect,4,1.473,1,10,0,10,0,1,,,,,,,,,,,,,
63bc819194ca25a555eb8fb5,SCN,2024-06-20_16h32.29.159,LearnStrategy,2023.2.3,Win32,59.52380952,8,1,12,0.243489583,0.095052083,1,0,0,1.4794,Pumice_13,8,13,4,6,1.479,0.421875,-0.391927083,1,0,0,0.8962,Pumice_rect,8,0.896,1,11,0,11,0,1,,,,,,,,,,,,,
63bc819194ca25a555eb8fb5,SCN,2024-06-20_16h32.29.159,LearnStrategy,2023.2.3,Win32,59.52380952,8,1,13,0.083333333,0.255208333,1,0,0,0.9851,Gabbro_08,4,08,5,5,0.985,0.3828125,-0.229166667,1,0,0,1.8952,Gabbro_rect,4,1.895,1,12,0,12,0,1,,,,,,,,,,,,,
63bc819194ca25a555eb8fb5,SCN,2024-06-20_16h32.29.159,LearnStrategy,2023.2.3,Win32,59.52380952,8,1,14,0.2578125,0.412760417,1,0,0,1.3938,Peridotite_07,7,07,6,6,1.394,0.13671875,-0.40234375,1,0,0,2.0672,Peridotite_rect,7,2.067,1,13,0,13,0,1,,,,,,,,,,,,,
63bc819194ca25a555eb8fb5,SCN,2024-06-20_16h32.29.159,LearnStrategy,2023.2.3,Win32,59.52380952,8,1,15,-0.065104167,-0.266927083,1,0,0,6.0358,Basalt_02,2,02,2,4,6.036,-0.119791667,-0.243489583,1,0,0,1.3807,Basalt_rect,2,1.381,1,14,0,14,0,1,,,,,,,,,,,,,
63bc819194ca25a555eb8fb5,SCN,2024-06-20_16h32.29.159,LearnStrategy,2023.2.3,Win32,59.52380952,8,1,16,0.247395833,-0.243489583,1,0,0,1.377,Basalt_01,2,01,2,6,1.377,-0.1171875,-0.240885417,1,0,0,1.1048,Basalt_rect,2,1.105,1,15,0,15,0,1,,,,,,,,,,,,,
63bc819194ca25a555eb8fb5,SCN,2024-06-20_16h32.29.159,LearnStrategy,2023.2.3,Win32,59.52380952,8,2,1,,,,,,,,4,12,,,,,,,,,,,4,2.385,1,,,,,,0.453125,-0.25390625,1,0,0,2.3851,Gabbro_rect,0,0,0,0,1,
63bc819194ca25a555eb8fb5,SCN,2024-06-20_16h32.29.159,LearnStrategy,2023.2.3,Win32,59.52380952,8,2,2,,,,,,,,5,16,,,,,,,,,,,5,1.559,1,,,,,,-0.404947917,-0.40234375,1,0,0,1.559,Obsidian_rect,1,0,1,0,1,
63bc819194ca25a555eb8fb5,SCN,2024-06-20_16h32.29.159,LearnStrategy,2023.2.3,Win32,59.52380952,8,2,3,,,,,,,,8,09,,,,,,,,,,,8,1.846,1,,,,,,0.38671875,-0.401041667,1,0,0,1.846,Pumice_rect,2,0,2,0,1,
63bc819194ca25a555eb8fb5,SCN,2024-06-20_16h32.29.159,LearnStrategy,2023.2.3,Win32,59.52380952,8,2,4,,,,,,,,8,04,,,,,,,,,,,8,1.027,1,,,,,,0.39453125,-0.407552083,1,0,0,1.0266,Pumice_rect,3,0,3,0,1,
63bc819194ca25a555eb8fb5,SCN,2024-06-20_16h32.29.159,LearnStrategy,2023.2.3,Win32,59.52380952,8,2,5,,,,,,,,2,11,,,,,,,,,,,4,7.543,0,,,,,,0.3984375,-0.239583333,1,0,0,7.5435,Gabbro_rect,4,0,4,0,1,
63bc819194ca25a555eb8fb5,SCN,2024-06-20_16h32.29.159,LearnStrategy,2023.2.3,Win32,59.52380952,8,2,6,,,,,,,,3,13,,,,,,,,,,,7,4.912,0,,,,,,0.14453125,-0.404947917,1,0,0,4.9123,Peridotite_rect,5,0,5,0,1,
63bc819194ca25a555eb8fb5,SCN,2024-06-20_16h32.29.159,LearnStrategy,2023.2.3,Win32,59.52380952,8,2,7,,,,,,,,7,10,,,,,,,,,,,7,1.195,1,,,,,,0.14453125,-0.404947917,1,0,0,1.1948,Peridotite_rect,6,0,6,0,1,
63bc819194ca25a555eb8fb5,SCN,2024-06-20_16h32.29.159,LearnStrategy,2023.2.3,Win32,59.52380952,8,2,8,,,,,,,,2,14,,,,,,,,,,,8,6.366,0,,,,,,0.416666667,-0.403645833,1,0,0,6.3661,Pumice_rect,7,0,7,0,1,
63bc819194ca25a555eb8fb5,SCN,2024-06-20_16h32.29.159,LearnStrategy,2023.2.3,Win32,59.52380952,8,2,9,,,,,,,,1,04,,,,,,,,,,,4,10.542,0,,,,,,0.423177083,-0.263020833,1,0,0,10.5417,Gabbro_rect,8,0,8,0,1,
63bc819194ca25a555eb8fb5,SCN,2024-06-20_16h32.29.159,LearnStrategy,2023.2.3,Win32,59.52380952,8,2,10,,,,,,,,6,07,,,,,,,,,,,6,1.702,1,,,,,,-0.1015625,-0.403645833,1,0,0,1.7017,Pegmatite_rect,9,0,9,0,1,
63bc819194ca25a555eb8fb5,SCN,2024-06-20_16h32.29.159,LearnStrategy,2023.2.3,Win32,59.52380952,8,2,11,,,,,,,,1,16,,,,,,,,,,,7,2.813,0,,,,,,0.095052083,-0.407552083,1,0,0,2.8127,Peridotite_rect,10,0,10,0,1,
63bc819194ca25a555eb8fb5,SCN,2024-06-20_16h32.29.159,LearnStrategy,2023.2.3,Win32,59.52380952,8,2,12,,,,,,,,4,05,,,,,,,,,,,4,2.971,1,,,,,,0.408854167,-0.24609375,1,0,0,2.9711,Gabbro_rect,11,0,11,0,1,
63bc819194ca25a555eb8fb5,SCN,2024-06-20_16h32.29.159,LearnStrategy,2023.2.3,Win32,59.52380952,8,2,13,,,,,,,,5,07,,,,,,,,,,,5,1.718,1,,,,,,-0.39453125,-0.39453125,1,0,0,1.7185,Obsidian_rect,12,0,12,0,1,
63bc819194ca25a555eb8fb5,SCN,2024-06-20_16h32.29.159,LearnStrategy,2023.2.3,Win32,59.52380952,8,2,14,,,,,,,,3,02,,,,,,,,,,,3,5.075,1,,,,,,0.115885417,-0.25,1,0,0,5.0754,Diorite_rect,13,0,13,0,1,
63bc819194ca25a555eb8fb5,SCN,2024-06-20_16h32.29.159,LearnStrategy,2023.2.3,Win32,59.52380952,8,2,15,,,,,,,,7,16,,,,,,,,,,,4,1.878,0,,,,,,0.466145833,-0.251302083,1,0,0,1.8775,Gabbro_rect,14,0,14,0,1,
63bc819194ca25a555eb8fb5,SCN,2024-06-20_16h32.29.159,LearnStrategy,2023.2.3,Win32,59.52380952,8,2,16,,,,,,,,6,03,,,,,,,,,,,6,1.875,1,,,,,,-0.10546875,-0.39453125,1,0,0,1.8748,Pegmatite_rect,15,0,15,0,1,
63bc819194ca25a555eb8fb5,SCN,2024-06-20_16h32.29.159,LearnStrategy,2023.2.3,Win32,59.52380952,9,1,1,-0.399739583,0.393229167,1,0,0,7.1847,Diorite_16,3,16,6,2,7.185,0.1484375,-0.259114583,1,0,0,1.5522,Diorite_rect,3,1.552,1,0,0,0,0,1,,,,,,,,,,,,,
63bc819194ca25a555eb8fb5,SCN,2024-06-20_16h32.29.159,LearnStrategy,2023.2.3,Win32,59.52380952,9,1,2,-0.065104167,0.104166667,1,0,0,1.3067,Andesite_09,1,09,4,4,1.307,-0.147135417,-0.259114583,1,0,0,0.9156,Basalt_rect,2,0.916,0,1,0,1,0,1,,,,,,,,,,,,,
63bc819194ca25a555eb8fb5,SCN,2024-06-20_16h32.29.159,LearnStrategy,2023.2.3,Win32,59.52380952,9,1,3,0.263020833,-0.151041667,1,0,0,4.515,Andesite_05,1,05,3,6,4.515,-0.37890625,-0.23828125,1,0,0,1.8212,Andesite_rect,1,1.821,1,2,0,2,0,1,,,,,,,,,,,,,
63bc819194ca25a555eb8fb5,SCN,2024-06-20_16h32.29.159,LearnStrategy,2023.2.3,Win32,59.52380952,9,1,4,0.384114583,-0.390625,1,0,0,1.4378,Gabbro_11,4,11,1,7,1.438,0.380208333,-0.247395833,1,0,0,4.4972,Gabbro_rect,4,4.497,1,3,0,3,0,1,,,,,,,,,,,,,
63bc819194ca25a555eb8fb5,SCN,2024-06-20_16h32.29.159,LearnStrategy,2023.2.3,Win32,59.52380952,9,1,5,0.552083333,-0.4140625,1,0,0,1.3209,Pegmatite_05,6,05,1,8,1.321,-0.139322917,-0.399739583,1,0,0,1.2031,Pegmatite_rect,6,1.203,1,4,0,4,0,1,,,,,,,,,,,,,
63bc819194ca25a555eb8fb5,SCN,2024-06-20_16h32.29.159,LearnStrategy,2023.2.3,Win32,59.52380952,9,1,6,-0.536458333,-0.140625,1,0,0,1.5712,Andesite_10,1,10,3,1,1.571,-0.3515625,-0.264322917,1,0,0,2.0586,Andesite_rect,1,2.059,1,5,0,5,0,1,,,,,,,,,,,,,
63bc819194ca25a555eb8fb5,SCN,2024-06-20_16h32.29.159,LearnStrategy,2023.2.3,Win32,59.52380952,9,1,7,-0.084635417,0.08203125,1,0,0,1.1118,Andesite_09,1,09,4,4,1.112,-0.337239583,-0.2421875,1,0,0,1.1149,Andesite_rect,1,1.115,1,6,0,6,0,1,,,,,,,,,,,,,
63bc819194ca25a555eb8fb5,SCN,2024-06-20_16h32.29.159,LearnStrategy,2023.2.3,Win32,59.52380952,9,1,8,-0.548177083,0.427083333,1,0,0,4.3733,Andesite_01,1,01,6,1,4.373,-0.37109375,-0.236979167,1,0,0,1.7744,Andesite_rect,1,1.774,1,7,0,7,0,1,,,,,,,,,,,,,
63bc819194ca25a555eb8fb5,SCN,2024-06-20_16h32.29.159,LearnStrategy,2023.2.3,Win32,59.52380952,9,1,9,0.533854167,-0.123697917,1,0,0,1.5909,Obsidian_14,5,14,3,8,1.591,-0.4140625,-0.421875,1,0,0,1.288,Obsidian_rect,5,1.288,1,8,0,8,0,1,,,,,,,,,,,,,
63bc819194ca25a555eb8fb5,SCN,2024-06-20_16h32.29.159,LearnStrategy,2023.2.3,Win32,59.52380952,9,1,10,0.563802083,0.100260417,1,0,0,3.339,Gabbro_15,4,15,4,8,3.339,0.415364583,-0.23828125,1,0,0,1.1325,Gabbro_rect,4,1.133,1,9,0,9,0,1,,,,,,,,,,,,,
63bc819194ca25a555eb8fb5,SCN,2024-06-20_16h32.29.159,LearnStrategy,2023.2.3,Win32,59.52380952,9,1,11,0.26953125,0.401041667,1,0,0,3.2916,Peridotite_07,7,07,6,6,3.292,0.15625,-0.411458333,1,0,0,2.6477,Peridotite_rect,7,2.648,1,10,0,10,0,1,,,,,,,,,,,,,
63bc819194ca25a555eb8fb5,SCN,2024-06-20_16h32.29.159,LearnStrategy,2023.2.3,Win32,59.52380952,9,1,12,-0.376302083,-0.389322917,1,0,0,2.7852,Andesite_11,1,11,1,2,2.785,-0.384114583,-0.26953125,1,0,0,1.2949,Andesite_rect,1,1.295,1,11,0,11,0,1,,,,,,,,,,,,,
63bc819194ca25a555eb8fb5,SCN,2024-06-20_16h32.29.159,LearnStrategy,2023.2.3,Win32,59.52380952,9,1,13,-0.5390625,-0.2421875,1,0,0,1.4558,Diorite_12,3,12,2,1,1.456,0.084635417,-0.243489583,1,0,0,2.2101,Diorite_rect,3,2.21,1,12,0,12,0,1,,,,,,,,,,,,,
63bc819194ca25a555eb8fb5,SCN,2024-06-20_16h32.29.159,LearnStrategy,2023.2.3,Win32,59.52380952,9,1,14,-0.373697917,0.08984375,1,0,0,1.5284,Diorite_11,3,11,4,2,1.528,0.141927083,-0.243489583,1,0,0,1.4243,Diorite_rect,3,1.424,1,13,0,13,0,1,,,,,,,,,,,,,
63bc819194ca25a555eb8fb5,SCN,2024-06-20_16h32.29.159,LearnStrategy,2023.2.3,Win32,59.52380952,9,1,15,-0.065104167,0.091145833,1,0,0,3.1817,Andesite_09,1,09,4,4,3.182,-0.408854167,-0.265625,1,0,0,1.0882,Andesite_rect,1,1.088,1,14,0,14,0,1,,,,,,,,,,,,,
63bc819194ca25a555eb8fb5,SCN,2024-06-20_16h32.29.159,LearnStrategy,2023.2.3,Win32,59.52380952,9,1,16,0.08984375,0.092447917,1,0,0,1.6107,Basalt_06,2,06,4,5,1.611,-0.15625,-0.244791667,1,0,0,2.3623,Basalt_rect,2,2.362,1,15,0,15,0,1,,,,,,,,,,,,,
63bc819194ca25a555eb8fb5,SCN,2024-06-20_16h32.29.159,LearnStrategy,2023.2.3,Win32,59.52380952,9,2,1,,,,,,,,7,05,,,,,,,,,,,7,8.454,1,,,,,,0.14453125,-0.399739583,1,0,0,8.4542,Peridotite_rect,0,0,0,0,1,
63bc819194ca25a555eb8fb5,SCN,2024-06-20_16h32.29.159,LearnStrategy,2023.2.3,Win32,59.52380952,9,2,2,,,,,,,,1,14,,,,,,,,,,,1,2.693,1,,,,,,-0.39453125,-0.2421875,1,0,0,2.6928,Andesite_rect,1,0,1,0,1,
63bc819194ca25a555eb8fb5,SCN,2024-06-20_16h32.29.159,LearnStrategy,2023.2.3,Win32,59.52380952,9,2,3,,,,,,,,3,07,,,,,,,,,,,1,4.728,0,,,,,,-0.39453125,-0.2421875,1,0,0,4.7282,Andesite_rect,2,0,2,0,1,
63bc819194ca25a555eb8fb5,SCN,2024-06-20_16h32.29.159,LearnStrategy,2023.2.3,Win32,59.52380952,9,2,4,,,,,,,,7,14,,,,,,,,,,,7,7.017,1,,,,,,0.143229167,-0.40234375,1,0,0,7.0168,Peridotite_rect,3,0,3,0,1,
63bc819194ca25a555eb8fb5,SCN,2024-06-20_16h32.29.159,LearnStrategy,2023.2.3,Win32,59.52380952,9,2,5,,,,,,,,8,05,,,,,,,,,,,8,1.775,1,,,,,,0.333333333,-0.395833333,1,0,0,1.775,Pumice_rect,4,0,4,0,1,
63bc819194ca25a555eb8fb5,SCN,2024-06-20_16h32.29.159,LearnStrategy,2023.2.3,Win32,59.52380952,9,2,6,,,,,,,,6,06,,,,,,,,,,,6,5.996,1,,,,,,-0.1875,-0.403645833,1,0,0,5.996,Pegmatite_rect,5,0,5,0,1,
63bc819194ca25a555eb8fb5,SCN,2024-06-20_16h32.29.159,LearnStrategy,2023.2.3,Win32,59.52380952,9,2,7,,,,,,,,6,13,,,,,,,,,,,6,1.631,1,,,,,,-0.1875,-0.403645833,1,0,0,1.6307,Pegmatite_rect,6,0,6,0,1,
63bc819194ca25a555eb8fb5,SCN,2024-06-20_16h32.29.159,LearnStrategy,2023.2.3,Win32,59.52380952,9,2,8,,,,,,,,4,13,,,,,,,,,,,4,2.06,1,,,,,,0.37109375,-0.247395833,1,0,0,2.0596,Gabbro_rect,7,0,7,0,1,
63bc819194ca25a555eb8fb5,SCN,2024-06-20_16h32.29.159,LearnStrategy,2023.2.3,Win32,59.52380952,9,2,9,,,,,,,,3,08,,,,,,,,,,,3,5.123,1,,,,,,0.127604167,-0.25,1,0,0,5.1231,Diorite_rect,8,0,8,0,1,
63bc819194ca25a555eb8fb5,SCN,2024-06-20_16h32.29.159,LearnStrategy,2023.2.3,Win32,59.52380952,9,2,10,,,,,,,,4,14,,,,,,,,,,,4,2.434,1,,,,,,0.411458333,-0.256510417,1,0,0,2.4337,Gabbro_rect,9,0,9,0,1,
63bc819194ca25a555eb8fb5,SCN,2024-06-20_16h32.29.159,LearnStrategy,2023.2.3,Win32,59.52380952,9,2,11,,,,,,,,2,05,,,,,,,,,,,2,2.161,1,,,,,,-0.138020833,-0.23828125,1,0,0,2.1615,Basalt_rect,10,0,10,0,1,
63bc819194ca25a555eb8fb5,SCN,2024-06-20_16h32.29.159,LearnStrategy,2023.2.3,Win32,59.52380952,9,2,12,,,,,,,,2,08,,,,,,,,,,,2,3.409,1,,,,,,-0.138020833,-0.23828125,1,0,0,3.4088,Basalt_rect,11,0,11,0,1,
63bc819194ca25a555eb8fb5,SCN,2024-06-20_16h32.29.159,LearnStrategy,2023.2.3,Win32,59.52380952,9,2,13,,,,,,,,5,06,,,,,,,,,,,5,2.45,1,,,,,,-0.44140625,-0.397135417,1,0,0,2.45,Obsidian_rect,12,0,12,0,1,
63bc819194ca25a555eb8fb5,SCN,2024-06-20_16h32.29.159,LearnStrategy,2023.2.3,Win32,59.52380952,9,2,14,,,,,,,,1,03,,,,,,,,,,,1,6.07,1,,,,,,-0.345052083,-0.251302083,1,0,0,6.0704,Andesite_rect,13,0,13,0,1,
63bc819194ca25a555eb8fb5,SCN,2024-06-20_16h32.29.159,LearnStrategy,2023.2.3,Win32,59.52380952,9,2,15,,,,,,,,5,09,,,,,,,,,,,5,1.68,1,,,,,,-0.393229167,-0.3828125,1,0,0,1.6802,Obsidian_rect,14,0,14,0,1,
63bc819194ca25a555eb8fb5,SCN,2024-06-20_16h32.29.159,LearnStrategy,2023.2.3,Win32,59.52380952,9,2,16,,,,,,,,8,10,,,,,,,,,,,8,1.827,1,,,,,,0.463541667,-0.391927083,1,0,0,1.8272,Pumice_rect,15,0,15,0,1,
63bc819194ca25a555eb8fb5,SCN,2024-06-20_16h32.29.159,LearnStrategy,2023.2.3,Win32,59.52380952,,,,,,,,,,,,,,,,,,,,,,,,,,,,,,,,,,,,,,,,,,,1
63bc819194ca25a555eb8fb5,SCN,2024-06-20_16h32.29.159,LearnStrategy,2023.2.3,Win32,59.52380952,,,,,,,,,,,,,,,,,,,,,,,,,,,,,,,,,,,,,,,,,,,
63bc819194ca25a555eb8fb5,SCN,2024-06-20_16h32.29.159,LearnStrategy,2023.2.3,Win32,59.52380952,,,,,,,,,,,5,08,1,1,,,,,,,,,,,,,,,,,,,,,,,,,,,,,
63bc819194ca25a555eb8fb5,SCN,2024-06-20_16h32.29.159,LearnStrategy,2023.2.3,Win32,59.52380952,,,,,,,,,,,1,11,1,2,,,,,,,,,,,,,,,,,,,,,,,,,,,,,
63bc819194ca25a555eb8fb5,SCN,2024-06-20_16h32.29.159,LearnStrategy,2023.2.3,Win32,59.52380952,,,,,,,,,,,5,10,1,3,,,,,,,,,,,,,,,,,,,,,,,,,,,,,
63bc819194ca25a555eb8fb5,SCN,2024-06-20_16h32.29.159,LearnStrategy,2023.2.3,Win32,59.52380952,,,,,,,,,,,6,09,1,4,,,,,,,,,,,,,,,,,,,,,,,,,,,,,
63bc819194ca25a555eb8fb5,SCN,2024-06-20_16h32.29.159,LearnStrategy,2023.2.3,Win32,59.52380952,,,,,,,,,,,1,07,1,5,,,,,,,,,,,,,,,,,,,,,,,,,,,,,
63bc819194ca25a555eb8fb5,SCN,2024-06-20_16h32.29.159,LearnStrategy,2023.2.3,Win32,59.52380952,,,,,,,,,,,8,03,1,6,,,,,,,,,,,,,,,,,,,,,,,,,,,,,
63bc819194ca25a555eb8fb5,SCN,2024-06-20_16h32.29.159,LearnStrategy,2023.2.3,Win32,59.52380952,,,,,,,,,,,4,11,1,7,,,,,,,,,,,,,,,,,,,,,,,,,,,,,
63bc819194ca25a555eb8fb5,SCN,2024-06-20_16h32.29.159,LearnStrategy,2023.2.3,Win32,59.52380952,,,,,,,,,,,6,05,1,8,,,,,,,,,,,,,,,,,,,,,,,,,,,,,
63bc819194ca25a555eb8fb5,SCN,2024-06-20_16h32.29.159,LearnStrategy,2023.2.3,Win32,59.52380952,,,,,,,,,,,3,12,2,1,,,,,,,,,,,,,,,,,,,,,,,,,,,,,
63bc819194ca25a555eb8fb5,SCN,2024-06-20_16h32.29.159,LearnStrategy,2023.2.3,Win32,59.52380952,,,,,,,,,,,4,16,2,2,,,,,,,,,,,,,,,,,,,,,,,,,,,,,
63bc819194ca25a555eb8fb5,SCN,2024-06-20_16h32.29.159,LearnStrategy,2023.2.3,Win32,59.52380952,,,,,,,,,,,8,02,2,3,,,,,,,,,,,,,,,,,,,,,,,,,,,,,
63bc819194ca25a555eb8fb5,SCN,2024-06-20_16h32.29.159,LearnStrategy,2023.2.3,Win32,59.52380952,,,,,,,,,,,2,02,2,4,,,,,,,,,,,,,,,,,,,,,,,,,,,,,
63bc819194ca25a555eb8fb5,SCN,2024-06-20_16h32.29.159,LearnStrategy,2023.2.3,Win32,59.52380952,,,,,,,,,,,6,16,2,5,,,,,,,,,,,,,,,,,,,,,,,,,,,,,
63bc819194ca25a555eb8fb5,SCN,2024-06-20_16h32.29.159,LearnStrategy,2023.2.3,Win32,59.52380952,,,,,,,,,,,2,01,2,6,,,,,,,,,,,,,,,,,,,,,,,,,,,,,
63bc819194ca25a555eb8fb5,SCN,2024-06-20_16h32.29.159,LearnStrategy,2023.2.3,Win32,59.52380952,,,,,,,,,,,8,16,2,7,,,,,,,,,,,,,,,,,,,,,,,,,,,,,
63bc819194ca25a555eb8fb5,SCN,2024-06-20_16h32.29.159,LearnStrategy,2023.2.3,Win32,59.52380952,,,,,,,,,,,5,02,2,8,,,,,,,,,,,,,,,,,,,,,,,,,,,,,
63bc819194ca25a555eb8fb5,SCN,2024-06-20_16h32.29.159,LearnStrategy,2023.2.3,Win32,59.52380952,,,,,,,,,,,1,10,3,1,,,,,,,,,,,,,,,,,,,,,,,,,,,,,
63bc819194ca25a555eb8fb5,SCN,2024-06-20_16h32.29.159,LearnStrategy,2023.2.3,Win32,59.52380952,,,,,,,,,,,3,09,3,2,,,,,,,,,,,,,,,,,,,,,,,,,,,,,
63bc819194ca25a555eb8fb5,SCN,2024-06-20_16h32.29.159,LearnStrategy,2023.2.3,Win32,59.52380952,,,,,,,,,,,6,15,3,3,,,,,,,,,,,,,,,,,,,,,,,,,,,,,
63bc819194ca25a555eb8fb5,SCN,2024-06-20_16h32.29.159,LearnStrategy,2023.2.3,Win32,59.52380952,,,,,,,,,,,7,13,3,4,,,,,,,,,,,,,,,,,,,,,,,,,,,,,
63bc819194ca25a555eb8fb5,SCN,2024-06-20_16h32.29.159,LearnStrategy,2023.2.3,Win32,59.52380952,,,,,,,,,,,5,04,3,5,,,,,,,,,,,,,,,,,,,,,,,,,,,,,
63bc819194ca25a555eb8fb5,SCN,2024-06-20_16h32.29.159,LearnStrategy,2023.2.3,Win32,59.52380952,,,,,,,,,,,1,05,3,6,,,,,,,,,,,,,,,,,,,,,,,,,,,,,
63bc819194ca25a555eb8fb5,SCN,2024-06-20_16h32.29.159,LearnStrategy,2023.2.3,Win32,59.52380952,,,,,,,,,,,8,15,3,7,,,,,,,,,,,,,,,,,,,,,,,,,,,,,
63bc819194ca25a555eb8fb5,SCN,2024-06-20_16h32.29.159,LearnStrategy,2023.2.3,Win32,59.52380952,,,,,,,,,,,5,14,3,8,,,,,,,,,,,,,,,,,,,,,,,,,,,,,
63bc819194ca25a555eb8fb5,SCN,2024-06-20_16h32.29.159,LearnStrategy,2023.2.3,Win32,59.52380952,,,,,,,,,,,8,14,4,1,,,,,,,,,,,,,,,,,,,,,,,,,,,,,
63bc819194ca25a555eb8fb5,SCN,2024-06-20_16h32.29.159,LearnStrategy,2023.2.3,Win32,59.52380952,,,,,,,,,,,3,11,4,2,,,,,,,,,,,,,,,,,,,,,,,,,,,,,
63bc819194ca25a555eb8fb5,SCN,2024-06-20_16h32.29.159,LearnStrategy,2023.2.3,Win32,59.52380952,,,,,,,,,,,3,10,4,3,,,,,,,,,,,,,,,,,,,,,,,,,,,,,
63bc819194ca25a555eb8fb5,SCN,2024-06-20_16h32.29.159,LearnStrategy,2023.2.3,Win32,59.52380952,,,,,,,,,,,1,09,4,4,,,,,,,,,,,,,,,,,,,,,,,,,,,,,
63bc819194ca25a555eb8fb5,SCN,2024-06-20_16h32.29.159,LearnStrategy,2023.2.3,Win32,59.52380952,,,,,,,,,,,2,06,4,5,,,,,,,,,,,,,,,,,,,,,,,,,,,,,
63bc819194ca25a555eb8fb5,SCN,2024-06-20_16h32.29.159,LearnStrategy,2023.2.3,Win32,59.52380952,,,,,,,,,,,8,13,4,6,,,,,,,,,,,,,,,,,,,,,,,,,,,,,
63bc819194ca25a555eb8fb5,SCN,2024-06-20_16h32.29.159,LearnStrategy,2023.2.3,Win32,59.52380952,,,,,,,,,,,5,05,4,7,,,,,,,,,,,,,,,,,,,,,,,,,,,,,
63bc819194ca25a555eb8fb5,SCN,2024-06-20_16h32.29.159,LearnStrategy,2023.2.3,Win32,59.52380952,,,,,,,,,,,4,15,4,8,,,,,,,,,,,,,,,,,,,,,,,,,,,,,
63bc819194ca25a555eb8fb5,SCN,2024-06-20_16h32.29.159,LearnStrategy,2023.2.3,Win32,59.52380952,,,,,,,,,,,2,04,5,1,,,,,,,,,,,,,,,,,,,,,,,,,,,,,
63bc819194ca25a555eb8fb5,SCN,2024-06-20_16h32.29.159,LearnStrategy,2023.2.3,Win32,59.52380952,,,,,,,,,,,3,06,5,2,,,,,,,,,,,,,,,,,,,,,,,,,,,,,
63bc819194ca25a555eb8fb5,SCN,2024-06-20_16h32.29.159,LearnStrategy,2023.2.3,Win32,59.52380952,,,,,,,,,,,6,11,5,3,,,,,,,,,,,,,,,,,,,,,,,,,,,,,
63bc819194ca25a555eb8fb5,SCN,2024-06-20_16h32.29.159,LearnStrategy,2023.2.3,Win32,59.52380952,,,,,,,,,,,4,01,5,4,,,,,,,,,,,,,,,,,,,,,,,,,,,,,
63bc819194ca25a555eb8fb5,SCN,2024-06-20_16h32.29.159,LearnStrategy,2023.2.3,Win32,59.52380952,,,,,,,,,,,4,08,5,5,,,,,,,,,,,,,,,,,,,,,,,,,,,,,
63bc819194ca25a555eb8fb5,SCN,2024-06-20_16h32.29.159,LearnStrategy,2023.2.3,Win32,59.52380952,,,,,,,,,,,6,12,5,6,,,,,,,,,,,,,,,,,,,,,,,,,,,,,
63bc819194ca25a555eb8fb5,SCN,2024-06-20_16h32.29.159,LearnStrategy,2023.2.3,Win32,59.52380952,,,,,,,,,,,2,16,5,7,,,,,,,,,,,,,,,,,,,,,,,,,,,,,
63bc819194ca25a555eb8fb5,SCN,2024-06-20_16h32.29.159,LearnStrategy,2023.2.3,Win32,59.52380952,,,,,,,,,,,4,03,5,8,,,,,,,,,,,,,,,,,,,,,,,,,,,,,
63bc819194ca25a555eb8fb5,SCN,2024-06-20_16h32.29.159,LearnStrategy,2023.2.3,Win32,59.52380952,,,,,,,,,,,1,01,6,1,,,,,,,,,,,,,,,,,,,,,,,,,,,,,
63bc819194ca25a555eb8fb5,SCN,2024-06-20_16h32.29.159,LearnStrategy,2023.2.3,Win32,59.52380952,,,,,,,,,,,3,16,6,2,,,,,,,,,,,,,,,,,,,,,,,,,,,,,
63bc819194ca25a555eb8fb5,SCN,2024-06-20_16h32.29.159,LearnStrategy,2023.2.3,Win32,59.52380952,,,,,,,,,,,7,04,6,3,,,,,,,,,,,,,,,,,,,,,,,,,,,,,
63bc819194ca25a555eb8fb5,SCN,2024-06-20_16h32.29.159,LearnStrategy,2023.2.3,Win32,59.52380952,,,,,,,,,,,7,02,6,4,,,,,,,,,,,,,,,,,,,,,,,,,,,,,
63bc819194ca25a555eb8fb5,SCN,2024-06-20_16h32.29.159,LearnStrategy,2023.2.3,Win32,59.52380952,,,,,,,,,,,2,09,6,5,,,,,,,,,,,,,,,,,,,,,,,,,,,,,
63bc819194ca25a555eb8fb5,SCN,2024-06-20_16h32.29.159,LearnStrategy,2023.2.3,Win32,59.52380952,,,,,,,,,,,7,07,6,6,,,,,,,,,,,,,,,,,,,,,,,,,,,,,
63bc819194ca25a555eb8fb5,SCN,2024-06-20_16h32.29.159,LearnStrategy,2023.2.3,Win32,59.52380952,,,,,,,,,,,7,06,6,7,,,,,,,,,,,,,,,,,,,,,,,,,,,,,
63bc819194ca25a555eb8fb5,SCN,2024-06-20_16h32.29.159,LearnStrategy,2023.2.3,Win32,59.52380952,,,,,,,,,,,7,08,6,8,,,,,,,,,,,,,,,,,,,,,,,,,,,,,