participant,condition,date,expName,psychopyVersion,OS,frameRate,block,phase,trial,learn_mouse.x,learn_mouse.y,learn_mouse.leftButton,learn_mouse.midButton,learn_mouse.rightButton,learn_mouse.time,learn_mouse.clicked_name,cat,token,row,col,t_select,cat_mouse_l.x,cat_mouse_l.y,cat_mouse_l.leftButton,cat_mouse_l.midButton,cat_mouse_l.rightButton,cat_mouse_l.time,cat_mouse_l.clicked_name,resp,t_resp,corr,train_trials.thisRepN,train_trials.thisTrialN,train_trials.thisN,train_trials.thisIndex,train_trials.ran,cat_mouse_t.x,cat_mouse_t.y,cat_mouse_t.leftButton,cat_mouse_t.midButton,cat_mouse_t.rightButton,cat_mouse_t.time,cat_mouse_t.clicked_name,test_trials.thisRepN,test_trials.thisTrialN,test_trials.thisN,test_trials.thisIndex,test_trials.ran,Bonus
63be7173226d9b8c566ddd44,SCN,2024-06-21_10h52.48.269,LearnStrategy,2023.2.3,Win32,59.52380952,,,,,,,,,,,,,,,,,,,,,,,,,,,,,,,,,,,,,,,,,,,
63be7173226d9b8c566ddd44,SCN,2024-06-21_10h52.48.269,LearnStrategy,2023.2.3,Win32,59.52380952,1,1,1,0.098888889,0.105555556,1,0,0,4.0738,Andesite_04,1,04,4,5,4.074,-0.143333333,-0.242222222,1,0,0,3.8018,Basalt_rect,2,3.802,0,0,0,0,0,1,,,,,,,,,,,,,
63be7173226d9b8c566ddd44,SCN,2024-06-21_10h52.48.269,LearnStrategy,2023.2.3,Win32,59.52380952,1,1,2,0.235555556,0.084444444,1,0,0,2.5139,Diorite_07,3,07,4,6,2.514,0.158888889,-0.403333333,1,0,0,1.9364,Peridotite_rect,7,1.936,0,1,0,1,0,1,,,,,,,,,,,,,
63be7173226d9b8c566ddd44,SCN,2024-06-21_10h52.48.269,LearnStrategy,2023.2.3,Win32,59.52380952,1,1,3,-0.076666667,0.215555556,1,0,0,1.4975,Obsidian_02,5,02,5,4,1.498,-0.087777778,-0.236666667,1,0,0,1.3716,Basalt_rect,2,1.372,0,2,0,2,0,1,,,,,,,,,,,,,
63be7173226d9b8c566ddd44,SCN,2024-06-21_10h52.48.269,LearnStrategy,2023.2.3,Win32,59.52380952,1,1,4,0.098888889,0.238888889,1,0,0,1.3442,Gabbro_03,4,03,5,5,1.344,-0.105555556,-0.26,1,0,0,2.1671,Basalt_rect,2,2.167,0,3,0,3,0,1,,,,,,,,,,,,,
63be7173226d9b8c566ddd44,SCN,2024-06-21_10h52.48.269,LearnStrategy,2023.2.3,Win32,59.52380952,1,1,5,-0.255555556,0.242222222,1,0,0,3.2271,Obsidian_05,5,05,5,3,3.227,-0.07,-0.405555556,1,0,0,2.6354,Pegmatite_rect,6,2.635,0,4,0,4,0,1,,,,,,,,,,,,,
63be7173226d9b8c566ddd44,SCN,2024-06-21_10h52.48.269,LearnStrategy,2023.2.3,Win32,59.52380952,1,1,6,-0.27,0.405555556,1,0,0,5.0047,Obsidian_07,5,07,6,3,5.005,-0.358888889,-0.388888889,1,0,0,2.6048,Obsidian_rect,5,2.605,1,5,0,5,0,1,,,,,,,,,,,,,
63be7173226d9b8c566ddd44,SCN,2024-06-21_10h52.48.269,LearnStrategy,2023.2.3,Win32,59.52380952,1,1,7,-0.068888889,0.396666667,1,0,0,3.8634,Pegmatite_09,6,09,6,4,3.863,0.085555556,-0.263333333,1,0,0,2.6745,Diorite_rect,3,2.674,0,6,0,6,0,1,,,,,,,,,,,,,
63be7173226d9b8c566ddd44,SCN,2024-06-21_10h52.48.269,LearnStrategy,2023.2.3,Win32,59.52380952,1,1,8,0.215555556,0.378888889,1,0,0,2.5551,Obsidian_14,5,14,6,6,2.555,-0.398888889,-0.414444444,1,0,0,2.5063,Obsidian_rect,5,2.506,1,7,0,7,0,1,,,,,,,,,,,,,
63be7173226d9b8c566ddd44,SCN,2024-06-21_10h52.48.269,LearnStrategy,2023.2.3,Win32,59.52380952,1,1,9,-0.404444444,0.278888889,1,0,0,2.6467,Gabbro_13,4,13,5,2,2.647,-0.104444444,-0.403333333,1,0,0,2.5751,Pegmatite_rect,6,2.575,0,8,0,8,0,1,,,,,,,,,,,,,
63be7173226d9b8c566ddd44,SCN,2024-06-21_10h52.48.269,LearnStrategy,2023.2.3,Win32,59.52380952,1,1,10,-0.387777778,0.112222222,1,0,0,8.0397,Andesite_05,1,05,4,2,8.04,0.331111111,-0.256666667,1,0,0,2.0588,Gabbro_rect,4,2.059,0,9,0,9,0,1,,,,,,,,,,,,,
63be7173226d9b8c566ddd44,SCN,2024-06-21_10h52.48.269,LearnStrategy,2023.2.3,Win32,59.52380952,1,1,11,0.045555556,-0.232222222,1,0,0,1.2227,Obsidian_10,5,10,2,5,1.223,-0.454444444,-0.387777778,1,0,0,1.7171,Obsidian_rect,5,1.717,1,10,0,10,0,1,,,,,,,,,,,,,
63be7173226d9b8c566ddd44,SCN,2024-06-21_10h52.48.269,LearnStrategy,2023.2.3,Win32,59.52380952,1,1,12,0.2,-0.247777778,1,0,0,1.5625,Diorite_14,3,14,2,6,1.563,-0.403333333,-0.251111111,1,0,0,1.8705,Andesite_rect,1,1.87,0,11,0,11,0,1,,,,,,,,,,,,,
63be7173226d9b8c566ddd44,SCN,2024-06-21_10h52.48.269,LearnStrategy,2023.2.3,Win32,59.52380952,1,1,13,0.385555556,-0.104444444,1,0,0,1.5305,Pegmatite_03,6,03,3,7,1.53,0.156666667,-0.247777778,1,0,0,6.6348,Diorite_rect,3,6.635,0,12,0,12,0,1,,,,,,,,,,,,,
63be7173226d9b8c566ddd44,SCN,2024-06-21_10h52.48.269,LearnStrategy,2023.2.3,Win32,59.52380952,1,1,14,0.384444444,0.094444444,1,0,0,1.7736,Basalt_10,2,10,4,7,1.774,0.4,-0.263333333,1,0,0,3.1664,Gabbro_rect,4,3.166,0,13,0,13,0,1,,,,,,,,,,,,,
63be7173226d9b8c566ddd44,SCN,2024-06-21_10h52.48.269,LearnStrategy,2023.2.3,Win32,59.52380952,1,1,15,-0.221111111,-0.265555556,1,0,0,3.174,Basalt_12,2,12,2,3,3.174,-0.103333333,-0.26,1,0,0,3.1103,Basalt_rect,2,3.11,1,14,0,14,0,1,,,,,,,,,,,,,
63be7173226d9b8c566ddd44,SCN,2024-06-21_10h52.48.269,LearnStrategy,2023.2.3,Win32,59.52380952,1,1,16,-0.064444444,-0.237777778,1,0,0,1.2799,Pumice_16,8,16,2,4,1.28,-0.147777778,-0.261111111,1,0,0,1.1567,Basalt_rect,2,1.157,0,15,0,15,0,1,,,,,,,,,,,,,
63be7173226d9b8c566ddd44,SCN,2024-06-21_10h52.48.269,LearnStrategy,2023.2.3,Win32,59.52380952,1,2,1,,,,,,,,6,08,,,,,,,,,,,5,2.094,0,,,,,,-0.362222222,-0.408888889,1,0,0,2.0944,Obsidian_rect,0,0,0,0,1,
63be7173226d9b8c566ddd44,SCN,2024-06-21_10h52.48.269,LearnStrategy,2023.2.3,Win32,59.52380952,1,2,2,,,,,,,,4,16,,,,,,,,,,,2,3.555,0,,,,,,-0.112222222,-0.238888889,1,0,0,3.5553,Basalt_rect,1,0,1,0,1,
63be7173226d9b8c566ddd44,SCN,2024-06-21_10h52.48.269,LearnStrategy,2023.2.3,Win32,59.52380952,1,2,3,,,,,,,,8,08,,,,,,,,,,,6,4.487,0,,,,,,-0.13,-0.392222222,1,0,0,4.4866,Pegmatite_rect,2,0,2,0,1,
63be7173226d9b8c566ddd44,SCN,2024-06-21_10h52.48.269,LearnStrategy,2023.2.3,Win32,59.52380952,1,2,4,,,,,,,,3,02,,,,,,,,,,,1,7.58,0,,,,,,-0.385555556,-0.251111111,1,0,0,7.5803,Andesite_rect,3,0,3,0,1,
63be7173226d9b8c566ddd44,SCN,2024-06-21_10h52.48.269,LearnStrategy,2023.2.3,Win32,59.52380952,1,2,5,,,,,,,,5,08,,,,,,,,,,,5,2.031,1,,,,,,-0.357777778,-0.411111111,1,0,0,2.0312,Obsidian_rect,4,0,4,0,1,
63be7173226d9b8c566ddd44,SCN,2024-06-21_10h52.48.269,LearnStrategy,2023.2.3,Win32,59.52380952,1,2,6,,,,,,,,8,06,,,,,,,,,,,6,6.127,0,,,,,,-0.127777778,-0.405555556,1,0,0,6.1268,Pegmatite_rect,5,0,5,0,1,
63be7173226d9b8c566ddd44,SCN,2024-06-21_10h52.48.269,LearnStrategy,2023.2.3,Win32,59.52380952,1,2,7,,,,,,,,7,02,,,,,,,,,,,3,4.277,0,,,,,,0.117777778,-0.228888889,1,0,0,4.2768,Diorite_rect,6,0,6,0,1,
63be7173226d9b8c566ddd44,SCN,2024-06-21_10h52.48.269,LearnStrategy,2023.2.3,Win32,59.52380952,1,2,8,,,,,,,,7,06,,,,,,,,,,,4,7.895,0,,,,,,0.395555556,-0.26,1,0,0,7.895,Gabbro_rect,7,0,7,0,1,
63be7173226d9b8c566ddd44,SCN,2024-06-21_10h52.48.269,LearnStrategy,2023.2.3,Win32,59.52380952,1,2,9,,,,,,,,1,16,,,,,,,,,,,3,4.177,0,,,,,,0.104444444,-0.246666667,1,0,0,4.1772,Diorite_rect,8,0,8,0,1,
63be7173226d9b8c566ddd44,SCN,2024-06-21_10h52.48.269,LearnStrategy,2023.2.3,Win32,59.52380952,1,2,10,,,,,,,,6,07,,,,,,,,,,,5,1.843,0,,,,,,-0.388888889,-0.412222222,1,0,0,1.8427,Obsidian_rect,9,0,9,0,1,
63be7173226d9b8c566ddd44,SCN,2024-06-21_10h52.48.269,LearnStrategy,2023.2.3,Win32,59.52380952,1,2,11,,,,,,,,4,08,,,,,,,,,,,4,22.24,1,,,,,,0.354444444,-0.247777778,1,0,0,22.2396,Gabbro_rect,10,0,10,0,1,
63be7173226d9b8c566ddd44,SCN,2024-06-21_10h52.48.269,LearnStrategy,2023.2.3,Win32,59.52380952,1,2,12,,,,,,,,2,02,,,,,,,,,,,2,14.014,1,,,,,,-0.093333333,-0.241111111,1,0,0,14.0138,Basalt_rect,11,0,11,0,1,
63be7173226d9b8c566ddd44,SCN,2024-06-21_10h52.48.269,LearnStrategy,2023.2.3,Win32,59.52380952,1,2,13,,,,,,,,1,10,,,,,,,,,,,1,6.799,1,,,,,,-0.446666667,-0.252222222,1,0,0,6.7986,Andesite_rect,12,0,12,0,1,
63be7173226d9b8c566ddd44,SCN,2024-06-21_10h52.48.269,LearnStrategy,2023.2.3,Win32,59.52380952,1,2,14,,,,,,,,2,14,,,,,,,,,,,6,5.476,0,,,,,,-0.144444444,-0.396666667,1,0,0,5.4761,Pegmatite_rect,13,0,13,0,1,
63be7173226d9b8c566ddd44,SCN,2024-06-21_10h52.48.269,LearnStrategy,2023.2.3,Win32,59.52380952,1,2,15,,,,,,,,3,12,,,,,,,,,,,4,14.315,0,,,,,,0.365555556,-0.24,1,0,0,14.3152,Gabbro_rect,14,0,14,0,1,
63be7173226d9b8c566ddd44,SCN,2024-06-21_10h52.48.269,LearnStrategy,2023.2.3,Win32,59.52380952,1,2,16,,,,,,,,5,12,,,,,,,,,,,5,3.035,1,,,,,,-0.365555556,-0.41,1,0,0,3.035,Obsidian_rect,15,0,15,0,1,
63be7173226d9b8c566ddd44,SCN,2024-06-21_10h52.48.269,LearnStrategy,2023.2.3,Win32,59.52380952,2,1,1,-0.217777778,0.081111111,1,0,0,3.578,Diorite_09,3,09,4,3,3.578,-0.352222222,-0.261111111,1,0,0,3.886,Andesite_rect,1,3.886,0,0,0,0,0,1,,,,,,,,,,,,,
63be7173226d9b8c566ddd44,SCN,2024-06-21_10h52.48.269,LearnStrategy,2023.2.3,Win32,59.52380952,2,1,2,-0.227777778,0.1,1,0,0,1.0191,Diorite_09,3,09,4,3,1.019,0.16,-0.24,1,0,0,1.2567,Diorite_rect,3,1.257,1,1,0,1,0,1,,,,,,,,,,,,,
63be7173226d9b8c566ddd44,SCN,2024-06-21_10h52.48.269,LearnStrategy,2023.2.3,Win32,59.52380952,2,1,3,-0.56,0.426666667,1,0,0,3.1326,Peridotite_04,7,04,6,1,3.133,-0.086666667,-0.243333333,1,0,0,1.5729,Basalt_rect,2,1.573,0,2,0,2,0,1,,,,,,,,,,,,,
63be7173226d9b8c566ddd44,SCN,2024-06-21_10h52.48.269,LearnStrategy,2023.2.3,Win32,59.52380952,2,1,4,0.233333333,0.393333333,1,0,0,3.0063,Obsidian_14,5,14,6,6,3.006,-0.414444444,-0.401111111,1,0,0,1.738,Obsidian_rect,5,1.738,1,3,0,3,0,1,,,,,,,,,,,,,
63be7173226d9b8c566ddd44,SCN,2024-06-21_10h52.48.269,LearnStrategy,2023.2.3,Win32,59.52380952,2,1,5,-0.36,-0.262222222,1,0,0,3.5444,Peridotite_08,7,08,2,2,3.544,0.14,-0.242222222,1,0,0,3.6363,Diorite_rect,3,3.636,0,4,0,4,0,1,,,,,,,,,,,,,
63be7173226d9b8c566ddd44,SCN,2024-06-21_10h52.48.269,LearnStrategy,2023.2.3,Win32,59.52380952,2,1,6,0.514444444,-0.43,1,0,0,1.8874,Pegmatite_15,6,15,1,8,1.887,-0.415555556,-0.243333333,1,0,0,6.8752,Andesite_rect,1,6.875,0,5,0,5,0,1,,,,,,,,,,,,,
63be7173226d9b8c566ddd44,SCN,2024-06-21_10h52.48.269,LearnStrategy,2023.2.3,Win32,59.52380952,2,1,7,-0.417777778,-0.098888889,1,0,0,1.9194,Pumice_05,8,05,3,2,1.919,0.18,-0.394444444,1,0,0,6.7834,Peridotite_rect,7,6.783,0,6,0,6,0,1,,,,,,,,,,,,,
63be7173226d9b8c566ddd44,SCN,2024-06-21_10h52.48.269,LearnStrategy,2023.2.3,Win32,59.52380952,2,1,8,-0.264444444,-0.101111111,1,0,0,2.4902,Basalt_16,2,16,3,3,2.49,0.123333333,-0.238888889,1,0,0,5.8855,Diorite_rect,3,5.886,0,7,0,7,0,1,,,,,,,,,,,,,
63be7173226d9b8c566ddd44,SCN,2024-06-21_10h52.48.269,LearnStrategy,2023.2.3,Win32,59.52380952,2,1,9,-0.086666667,-0.233333333,1,0,0,2.6602,Pumice_16,8,16,2,4,2.66,0.365555556,-0.408888889,1,0,0,10.5457,Pumice_rect,8,10.546,1,8,0,8,0,1,,,,,,,,,,,,,
63be7173226d9b8c566ddd44,SCN,2024-06-21_10h52.48.269,LearnStrategy,2023.2.3,Win32,59.52380952,2,1,10,-0.072222222,-0.373333333,1,0,0,1.2323,Pumice_03,8,03,1,4,1.232,0.356666667,-0.403333333,1,0,0,1.8392,Pumice_rect,8,1.839,1,9,0,9,0,1,,,,,,,,,,,,,
63be7173226d9b8c566ddd44,SCN,2024-06-21_10h52.48.269,LearnStrategy,2023.2.3,Win32,59.52380952,2,1,11,-0.228888889,-0.383333333,1,0,0,1.2294,Diorite_11,3,11,1,3,1.229,0.074444444,-0.413333333,1,0,0,9.4699,Peridotite_rect,7,9.47,0,10,0,10,0,1,,,,,,,,,,,,,
63be7173226d9b8c566ddd44,SCN,2024-06-21_10h52.48.269,LearnStrategy,2023.2.3,Win32,59.52380952,2,1,12,-0.383333333,-0.242222222,1,0,0,2.064,Peridotite_08,7,08,2,2,2.064,0.106666667,-0.383333333,1,0,0,8.9334,Peridotite_rect,7,8.933,1,11,0,11,0,1,,,,,,,,,,,,,
63be7173226d9b8c566ddd44,SCN,2024-06-21_10h52.48.269,LearnStrategy,2023.2.3,Win32,59.52380952,2,1,13,0.253333333,-0.12,1,0,0,2.5063,Andesite_07,1,07,3,6,2.506,0.131111111,-0.243333333,1,0,0,5.6453,Diorite_rect,3,5.645,0,12,0,12,0,1,,,,,,,,,,,,,
63be7173226d9b8c566ddd44,SCN,2024-06-21_10h52.48.269,LearnStrategy,2023.2.3,Win32,59.52380952,2,1,14,0.237777778,-0.27,1,0,0,3.3217,Diorite_14,3,14,2,6,3.322,-0.386666667,-0.258888889,1,0,0,42.9147,Andesite_rect,1,42.915,0,13,0,13,0,1,,,,,,,,,,,,,
63be7173226d9b8c566ddd44,SCN,2024-06-21_10h52.48.269,LearnStrategy,2023.2.3,Win32,59.52380952,2,1,15,-0.238888889,-0.416666667,1,0,0,2.9229,Diorite_11,3,11,1,3,2.923,0.355555556,-0.23,1,0,0,9.8221,Gabbro_rect,4,9.822,0,14,0,14,0,1,,,,,,,,,,,,,
63be7173226d9b8c566ddd44,SCN,2024-06-21_10h52.48.269,LearnStrategy,2023.2.3,Win32,59.52380952,2,1,16,0.415555556,-0.262222222,1,0,0,1.7241,Pegmatite_06,6,06,2,7,1.724,-0.073333333,-0.411111111,1,0,0,8.0231,Pegmatite_rect,6,8.023,1,15,0,15,0,1,,,,,,,,,,,,,
63be7173226d9b8c566ddd44,SCN,2024-06-21_10h52.48.269,LearnStrategy,2023.2.3,Win32,59.52380952,2,2,1,,,,,,,,8,09,,,,,,,,,,,8,8.912,1,,,,,,0.355555556,-0.412222222,1,0,0,8.912,Pumice_rect,0,0,0,0,1,
63be7173226d9b8c566ddd44,SCN,2024-06-21_10h52.48.269,LearnStrategy,2023.2.3,Win32,59.52380952,2,2,2,,,,,,,,2,08,,,,,,,,,,,2,7.146,1,,,,,,-0.124444444,-0.25,1,0,0,7.1456,Basalt_rect,1,0,1,0,1,
63be7173226d9b8c566ddd44,SCN,2024-06-21_10h52.48.269,LearnStrategy,2023.2.3,Win32,59.52380952,2,2,3,,,,,,,,7,12,,,,,,,,,,,3,6.145,0,,,,,,0.134444444,-0.235555556,1,0,0,6.1446,Diorite_rect,2,0,2,0,1,
63be7173226d9b8c566ddd44,SCN,2024-06-21_10h52.48.269,LearnStrategy,2023.2.3,Win32,59.52380952,2,2,4,,,,,,,,8,15,,,,,,,,,,,8,1.688,1,,,,,,0.416666667,-0.407777778,1,0,0,1.6881,Pumice_rect,3,0,3,0,1,
63be7173226d9b8c566ddd44,SCN,2024-06-21_10h52.48.269,LearnStrategy,2023.2.3,Win32,59.52380952,2,2,5,,,,,,,,2,06,,,,,,,,,,,2,1.229,1,,,,,,-0.154444444,-0.255555556,1,0,0,1.2285,Basalt_rect,4,0,4,0,1,
63be7173226d9b8c566ddd44,SCN,2024-06-21_10h52.48.269,LearnStrategy,2023.2.3,Win32,59.52380952,2,2,6,,,,,,,,1,03,,,,,,,,,,,2,1.251,0,,,,,,-0.137777778,-0.262222222,1,0,0,1.251,Basalt_rect,5,0,5,0,1,
63be7173226d9b8c566ddd44,SCN,2024-06-21_10h52.48.269,LearnStrategy,2023.2.3,Win32,59.52380952,2,2,7,,,,,,,,5,06,,,,,,,,,,,5,1.391,1,,,,,,-0.426666667,-0.398888889,1,0,0,1.3912,Obsidian_rect,6,0,6,0,1,
63be7173226d9b8c566ddd44,SCN,2024-06-21_10h52.48.269,LearnStrategy,2023.2.3,Win32,59.52380952,2,2,8,,,,,,,,5,11,,,,,,,,,,,5,2.002,1,,,,,,-0.377777778,-0.394444444,1,0,0,2.0024,Obsidian_rect,7,0,7,0,1,
63be7173226d9b8c566ddd44,SCN,2024-06-21_10h52.48.269,LearnStrategy,2023.2.3,Win32,59.52380952,2,2,9,,,,,,,,3,10,,,,,,,,,,,3,10.898,1,,,,,,0.13,-0.264444444,1,0,0,10.8981,Diorite_rect,8,0,8,0,1,
63be7173226d9b8c566ddd44,SCN,2024-06-21_10h52.48.269,LearnStrategy,2023.2.3,Win32,59.52380952,2,2,10,,,,,,,,7,05,,,,,,,,,,,7,7.801,1,,,,,,0.13,-0.407777778,1,0,0,7.801,Peridotite_rect,9,0,9,0,1,
63be7173226d9b8c566ddd44,SCN,2024-06-21_10h52.48.269,LearnStrategy,2023.2.3,Win32,59.52380952,2,2,11,,,,,,,,4,10,,,,,,,,,,,7,6.418,0,,,,,,0.081111111,-0.402222222,1,0,0,6.418,Peridotite_rect,10,0,10,0,1,
63be7173226d9b8c566ddd44,SCN,2024-06-21_10h52.48.269,LearnStrategy,2023.2.3,Win32,59.52380952,2,2,12,,,,,,,,3,08,,,,,,,,,,,7,5.082,0,,,,,,0.086666667,-0.403333333,1,0,0,5.0818,Peridotite_rect,11,0,11,0,1,
63be7173226d9b8c566ddd44,SCN,2024-06-21_10h52.48.269,LearnStrategy,2023.2.3,Win32,59.52380952,2,2,13,,,,,,,,4,15,,,,,,,,,,,1,9.655,0,,,,,,-0.374444444,-0.25,1,0,0,9.6554,Andesite_rect,12,0,12,0,1,
63be7173226d9b8c566ddd44,SCN,2024-06-21_10h52.48.269,LearnStrategy,2023.2.3,Win32,59.52380952,2,2,14,,,,,,,,1,14,,,,,,,,,,,4,4.438,0,,,,,,0.382222222,-0.251111111,1,0,0,4.4382,Gabbro_rect,13,0,13,0,1,
63be7173226d9b8c566ddd44,SCN,2024-06-21_10h52.48.269,LearnStrategy,2023.2.3,Win32,59.52380952,2,2,15,,,,,,,,6,10,,,,,,,,,,,6,6.626,1,,,,,,-0.095555556,-0.392222222,1,0,0,6.6258,Pegmatite_rect,14,0,14,0,1,
63be7173226d9b8c566ddd44,SCN,2024-06-21_10h52.48.269,LearnStrategy,2023.2.3,Win32,59.52380952,2,2,16,,,,,,,,6,05,,,,,,,,,,,6,1.647,1,,,,,,-0.116666667,-0.396666667,1,0,0,1.6471,Pegmatite_rect,15,0,15,0,1,
63be7173226d9b8c566ddd44,SCN,2024-06-21_10h52.48.269,LearnStrategy,2023.2.3,Win32,59.52380952,3,1,1,-0.53,0.076666667,1,0,0,2.63,Gabbro_11,4,11,4,1,2.63,-0.167777778,-0.243333333,1,0,0,6.326,Basalt_rect,2,6.326,0,0,0,0,0,1,,,,,,,,,,,,,
63be7173226d9b8c566ddd44,SCN,2024-06-21_10h52.48.269,LearnStrategy,2023.2.3,Win32,59.52380952,3,1,2,-0.556666667,-0.395555556,1,0,0,4.8401,Gabbro_01,4,01,1,1,4.84,0.09,-0.267777778,1,0,0,18.0764,Diorite_rect,3,18.076,0,1,0,1,0,1,,,,,,,,,,,,,
63be7173226d9b8c566ddd44,SCN,2024-06-21_10h52.48.269,LearnStrategy,2023.2.3,Win32,59.52380952,3,1,3,-0.052222222,-0.427777778,1,0,0,2.6896,Pumice_03,8,03,1,4,2.69,0.351111111,-0.411111111,1,0,0,1.448,Pumice_rect,8,1.448,1,2,0,2,0,1,,,,,,,,,,,,,
63be7173226d9b8c566ddd44,SCN,2024-06-21_10h52.48.269,LearnStrategy,2023.2.3,Win32,59.52380952,3,1,4,0.547777778,-0.258888889,1,0,0,1.1425,Pegmatite_13,6,13,2,8,1.143,-0.127777778,-0.394444444,1,0,0,2.3556,Pegmatite_rect,6,2.356,1,3,0,3,0,1,,,,,,,,,,,,,
63be7173226d9b8c566ddd44,SCN,2024-06-21_10h52.48.269,LearnStrategy,2023.2.3,Win32,59.52380952,3,1,5,0.535555556,-0.253333333,1,0,0,1.9332,Pegmatite_13,6,13,2,8,1.933,-0.111111111,-0.396666667,1,0,0,1.7983,Pegmatite_rect,6,1.798,1,4,0,4,0,1,,,,,,,,,,,,,
63be7173226d9b8c566ddd44,SCN,2024-06-21_10h52.48.269,LearnStrategy,2023.2.3,Win32,59.52380952,3,1,6,0.513333333,-0.095555556,1,0,0,2.5687,Andesite_02,1,02,3,8,2.569,0.344444444,-0.254444444,1,0,0,15.4081,Gabbro_rect,4,15.408,0,5,0,5,0,1,,,,,,,,,,,,,
63be7173226d9b8c566ddd44,SCN,2024-06-21_10h52.48.269,LearnStrategy,2023.2.3,Win32,59.52380952,3,1,7,0.375555556,-0.115555556,1,0,0,1.9433,Pegmatite_03,6,03,3,7,1.943,-0.064444444,-0.397777778,1,0,0,1.6642,Pegmatite_rect,6,1.664,1,6,0,6,0,1,,,,,,,,,,,,,
63be7173226d9b8c566ddd44,SCN,2024-06-21_10h52.48.269,LearnStrategy,2023.2.3,Win32,59.52380952,3,1,8,-0.07,0.082222222,1,0,0,3.7047,Gabbro_14,4,14,4,4,3.705,-0.375555556,-0.257777778,1,0,0,1.9602,Andesite_rect,1,1.96,0,7,0,7,0,1,,,,,,,,,,,,,
63be7173226d9b8c566ddd44,SCN,2024-06-21_10h52.48.269,LearnStrategy,2023.2.3,Win32,59.52380952,3,1,9,0.412222222,-0.438888889,1,0,0,3.5476,Gabbro_05,4,05,1,7,3.548,0.147777778,-0.257777778,1,0,0,2.4381,Diorite_rect,3,2.438,0,8,0,8,0,1,,,,,,,,,,,,,
63be7173226d9b8c566ddd44,SCN,2024-06-21_10h52.48.269,LearnStrategy,2023.2.3,Win32,59.52380952,3,1,10,0.091111111,-0.404444444,1,0,0,1.8312,Basalt_11,2,11,1,5,1.831,0.381111111,-0.407777778,1,0,0,1.499,Pumice_rect,8,1.499,0,9,0,9,0,1,,,,,,,,,,,,,
63be7173226d9b8c566ddd44,SCN,2024-06-21_10h52.48.269,LearnStrategy,2023.2.3,Win32,59.52380952,3,1,11,-0.363333333,-0.241111111,1,0,0,3.2168,Peridotite_08,7,08,2,2,3.217,0.076666667,-0.39,1,0,0,4.592,Peridotite_rect,7,4.592,1,10,0,10,0,1,,,,,,,,,,,,,
63be7173226d9b8c566ddd44,SCN,2024-06-21_10h52.48.269,LearnStrategy,2023.2.3,Win32,59.52380952,3,1,12,0.238888889,-0.414444444,1,0,0,3.8603,Peridotite_13,7,13,1,6,3.86,0.085555556,-0.238888889,1,0,0,4.0481,Diorite_rect,3,4.048,0,11,0,11,0,1,,,,,,,,,,,,,
63be7173226d9b8c566ddd44,SCN,2024-06-21_10h52.48.269,LearnStrategy,2023.2.3,Win32,59.52380952,3,1,13,0.568888889,0.118888889,1,0,0,10.1421,Peridotite_07,7,07,4,8,10.142,0.331111111,-0.244444444,1,0,0,5.7904,Gabbro_rect,4,5.79,0,12,0,12,0,1,,,,,,,,,,,,,
63be7173226d9b8c566ddd44,SCN,2024-06-21_10h52.48.269,LearnStrategy,2023.2.3,Win32,59.52380952,3,1,14,-0.546666667,0.251111111,1,0,0,2.8762,Pumice_13,8,13,5,1,2.876,0.347777778,-0.382222222,1,0,0,1.34,Pumice_rect,8,1.34,1,13,0,13,0,1,,,,,,,,,,,,,
63be7173226d9b8c566ddd44,SCN,2024-06-21_10h52.48.269,LearnStrategy,2023.2.3,Win32,59.52380952,3,1,15,-0.371111111,0.276666667,1,0,0,2.7585,Gabbro_13,4,13,5,2,2.758,-0.378888889,-0.257777778,1,0,0,3.6747,Andesite_rect,1,3.675,0,14,0,14,0,1,,,,,,,,,,,,,
63be7173226d9b8c566ddd44,SCN,2024-06-21_10h52.48.269,LearnStrategy,2023.2.3,Win32,59.52380952,3,1,16,-0.248888889,0.416666667,1,0,0,5.7183,Obsidian_07,5,07,6,3,5.718,-0.404444444,-0.393333333,1,0,0,1.4678,Obsidian_rect,5,1.468,1,15,0,15,0,1,,,,,,,,,,,,,
63be7173226d9b8c566ddd44,SCN,2024-06-21_10h52.48.269,LearnStrategy,2023.2.3,Win32,59.52380952,3,2,1,,,,,,,,4,09,,,,,,,,,,,1,5.104,0,,,,,,-0.395555556,-0.254444444,1,0,0,5.1039,Andesite_rect,0,0,0,0,1,
63be7173226d9b8c566ddd44,SCN,2024-06-21_10h52.48.269,LearnStrategy,2023.2.3,Win32,59.52380952,3,2,2,,,,,,,,5,04,,,,,,,,,,,5,1.39,1,,,,,,-0.404444444,-0.398888889,1,0,0,1.3901,Obsidian_rect,1,0,1,0,1,
63be7173226d9b8c566ddd44,SCN,2024-06-21_10h52.48.269,LearnStrategy,2023.2.3,Win32,59.52380952,3,2,3,,,,,,,,2,01,,,,,,,,,,,2,1.578,1,,,,,,-0.194444444,-0.244444444,1,0,0,1.5782,Basalt_rect,2,0,2,0,1,
63be7173226d9b8c566ddd44,SCN,2024-06-21_10h52.48.269,LearnStrategy,2023.2.3,Win32,59.52380952,3,2,4,,,,,,,,3,13,,,,,,,,,,,3,7.607,1,,,,,,0.13,-0.245555556,1,0,0,7.6067,Diorite_rect,3,0,3,0,1,
63be7173226d9b8c566ddd44,SCN,2024-06-21_10h52.48.269,LearnStrategy,2023.2.3,Win32,59.52380952,3,2,5,,,,,,,,8,04,,,,,,,,,,,8,4.483,1,,,,,,0.38,-0.411111111,1,0,0,4.4828,Pumice_rect,4,0,4,0,1,
63be7173226d9b8c566ddd44,SCN,2024-06-21_10h52.48.269,LearnStrategy,2023.2.3,Win32,59.52380952,3,2,6,,,,,,,,2,09,,,,,,,,,,,2,1.446,1,,,,,,-0.112222222,-0.236666667,1,0,0,1.4456,Basalt_rect,5,0,5,0,1,
63be7173226d9b8c566ddd44,SCN,2024-06-21_10h52.48.269,LearnStrategy,2023.2.3,Win32,59.52380952,3,2,7,,,,,,,,1,11,,,,,,,,,,,4,16.808,0,,,,,,0.381111111,-0.251111111,1,0,0,16.808,Gabbro_rect,6,0,6,0,1,
63be7173226d9b8c566ddd44,SCN,2024-06-21_10h52.48.269,LearnStrategy,2023.2.3,Win32,59.52380952,3,2,8,,,,,,,,5,09,,,,,,,,,,,5,2.552,1,,,,,,-0.367777778,-0.414444444,1,0,0,2.5521,Obsidian_rect,7,0,7,0,1,
63be7173226d9b8c566ddd44,SCN,2024-06-21_10h52.48.269,LearnStrategy,2023.2.3,Win32,59.52380952,3,2,9,,,,,,,,3,15,,,,,,,,,,,4,3.042,0,,,,,,0.346666667,-0.26,1,0,0,3.0417,Gabbro_rect,8,0,8,0,1,
63be7173226d9b8c566ddd44,SCN,2024-06-21_10h52.48.269,LearnStrategy,2023.2.3,Win32,59.52380952,3,2,10,,,,,,,,1,01,,,,,,,,,,,4,2.591,0,,,,,,0.375555556,-0.24,1,0,0,2.5914,Gabbro_rect,9,0,9,0,1,
63be7173226d9b8c566ddd44,SCN,2024-06-21_10h52.48.269,LearnStrategy,2023.2.3,Win32,59.52380952,3,2,11,,,,,,,,6,16,,,,,,,,,,,6,3.901,1,,,,,,-0.097777778,-0.403333333,1,0,0,3.9006,Pegmatite_rect,10,0,10,0,1,
63be7173226d9b8c566ddd44,SCN,2024-06-21_10h52.48.269,LearnStrategy,2023.2.3,Win32,59.52380952,3,2,12,,,,,,,,4,12,,,,,,,,,,,1,6.567,0,,,,,,-0.401111111,-0.257777778,1,0,0,6.5666,Andesite_rect,11,0,11,0,1,
63be7173226d9b8c566ddd44,SCN,2024-06-21_10h52.48.269,LearnStrategy,2023.2.3,Win32,59.52380952,3,2,13,,,,,,,,7,15,,,,,,,,,,,7,3.624,1,,,,,,0.123333333,-0.404444444,1,0,0,3.6243,Peridotite_rect,12,0,12,0,1,
63be7173226d9b8c566ddd44,SCN,2024-06-21_10h52.48.269,LearnStrategy,2023.2.3,Win32,59.52380952,3,2,14,,,,,,,,6,11,,,,,,,,,,,6,1.689,1,,,,,,-0.133333333,-0.4,1,0,0,1.6891,Pegmatite_rect,13,0,13,0,1,
63be7173226d9b8c566ddd44,SCN,2024-06-21_10h52.48.269,LearnStrategy,2023.2.3,Win32,59.52380952,3,2,15,,,,,,,,8,02,,,,,,,,,,,2,5.876,0,,,,,,-0.187777778,-0.243333333,1,0,0,5.8759,Basalt_rect,14,0,14,0,1,
63be7173226d9b8c566ddd44,SCN,2024-06-21_10h52.48.269,LearnStrategy,2023.2.3,Win32,59.52380952,3,2,16,,,,,,,,7,14,,,,,,,,,,,7,2.787,1,,,,,,0.09,-0.406666667,1,0,0,2.7869,Peridotite_rect,15,0,15,0,1,
63be7173226d9b8c566ddd44,SCN,2024-06-21_10h52.48.269,LearnStrategy,2023.2.3,Win32,59.52380952,4,1,1,-0.534444444,0.386666667,1,0,0,4.596,Peridotite_04,7,04,6,1,4.596,0.104444444,-0.421111111,1,0,0,2.2998,Peridotite_rect,7,2.3,1,0,0,0,0,1,,,,,,,,,,,,,
63be7173226d9b8c566ddd44,SCN,2024-06-21_10h52.48.269,LearnStrategy,2023.2.3,Win32,59.52380952,4,1,2,-0.357777778,0.392222222,1,0,0,1.129,Diorite_16,3,16,6,2,1.129,-0.346666667,-0.264444444,1,0,0,4.6819,Andesite_rect,1,4.682,0,1,0,1,0,1,,,,,,,,,,,,,
63be7173226d9b8c566ddd44,SCN,2024-06-21_10h52.48.269,LearnStrategy,2023.2.3,Win32,59.52380952,4,1,3,-0.266666667,0.405555556,1,0,0,1.0266,Obsidian_07,5,07,6,3,1.027,-0.435555556,-0.412222222,1,0,0,1.4981,Obsidian_rect,5,1.498,1,2,0,2,0,1,,,,,,,,,,,,,
63be7173226d9b8c566ddd44,SCN,2024-06-21_10h52.48.269,LearnStrategy,2023.2.3,Win32,59.52380952,4,1,4,-0.081111111,0.386666667,1,0,0,1.1607,Pegmatite_09,6,09,6,4,1.161,-0.132222222,-0.408888889,1,0,0,1.9324,Pegmatite_rect,6,1.932,1,3,0,3,0,1,,,,,,,,,,,,,
63be7173226d9b8c566ddd44,SCN,2024-06-21_10h52.48.269,LearnStrategy,2023.2.3,Win32,59.52380952,4,1,5,0.076666667,0.358888889,1,0,0,1.229,Pumice_10,8,10,6,5,1.229,-0.178888889,-0.26,1,0,0,1.9789,Basalt_rect,2,1.979,0,4,0,4,0,1,,,,,,,,,,,,,
63be7173226d9b8c566ddd44,SCN,2024-06-21_10h52.48.269,LearnStrategy,2023.2.3,Win32,59.52380952,4,1,6,0.236666667,0.415555556,1,0,0,1.3665,Obsidian_14,5,14,6,6,1.367,-0.401111111,-0.392222222,1,0,0,1.5943,Obsidian_rect,5,1.594,1,5,0,5,0,1,,,,,,,,,,,,,
63be7173226d9b8c566ddd44,SCN,2024-06-21_10h52.48.269,LearnStrategy,2023.2.3,Win32,59.52380952,4,1,7,0.393333333,0.378888889,1,0,0,1.2112,Peridotite_10,7,10,6,7,1.211,0.07,-0.402222222,1,0,0,1.8317,Peridotite_rect,7,1.832,1,6,0,6,0,1,,,,,,,,,,,,,
63be7173226d9b8c566ddd44,SCN,2024-06-21_10h52.48.269,LearnStrategy,2023.2.3,Win32,59.52380952,4,1,8,0.537777778,0.381111111,1,0,0,1.2472,Diorite_06,3,06,6,8,1.247,0.074444444,-0.401111111,1,0,0,3.1167,Peridotite_rect,7,3.117,0,7,0,7,0,1,,,,,,,,,,,,,
63be7173226d9b8c566ddd44,SCN,2024-06-21_10h52.48.269,LearnStrategy,2023.2.3,Win32,59.52380952,4,1,9,-0.532222222,0.235555556,1,0,0,2.1237,Pumice_13,8,13,5,1,2.124,0.424444444,-0.414444444,1,0,0,3.119,Pumice_rect,8,3.119,1,8,0,8,0,1,,,,,,,,,,,,,
63be7173226d9b8c566ddd44,SCN,2024-06-21_10h52.48.269,LearnStrategy,2023.2.3,Win32,59.52380952,4,1,10,-0.41,0.24,1,0,0,0.9935,Gabbro_13,4,13,5,2,0.994,-0.4,-0.245555556,1,0,0,3.9492,Andesite_rect,1,3.949,0,9,0,9,0,1,,,,,,,,,,,,,
63be7173226d9b8c566ddd44,SCN,2024-06-21_10h52.48.269,LearnStrategy,2023.2.3,Win32,59.52380952,4,1,11,-0.264444444,0.253333333,1,0,0,0.9761,Obsidian_05,5,05,5,3,0.976,-0.411111111,-0.411111111,1,0,0,1.1783,Obsidian_rect,5,1.178,1,10,0,10,0,1,,,,,,,,,,,,,
63be7173226d9b8c566ddd44,SCN,2024-06-21_10h52.48.269,LearnStrategy,2023.2.3,Win32,59.52380952,4,1,12,-0.067777778,0.223333333,1,0,0,0.9991,Obsidian_02,5,02,5,4,0.999,-0.411111111,-0.396666667,1,0,0,1.0182,Obsidian_rect,5,1.018,1,11,0,11,0,1,,,,,,,,,,,,,
63be7173226d9b8c566ddd44,SCN,2024-06-21_10h52.48.269,LearnStrategy,2023.2.3,Win32,59.52380952,4,1,13,0.051111111,0.231111111,1,0,0,1.0641,Gabbro_03,4,03,5,5,1.064,0.124444444,-0.247777778,1,0,0,2.2353,Diorite_rect,3,2.235,0,12,0,12,0,1,,,,,,,,,,,,,
63be7173226d9b8c566ddd44,SCN,2024-06-21_10h52.48.269,LearnStrategy,2023.2.3,Win32,59.52380952,4,1,14,0.206666667,0.224444444,1,0,0,1.3499,Basalt_05,2,05,5,6,1.35,-0.163333333,-0.251111111,1,0,0,1.0729,Basalt_rect,2,1.073,1,13,0,13,0,1,,,,,,,,,,,,,
63be7173226d9b8c566ddd44,SCN,2024-06-21_10h52.48.269,LearnStrategy,2023.2.3,Win32,59.52380952,4,1,15,0.365555556,0.221111111,1,0,0,1.2556,Obsidian_16,5,16,5,7,1.256,-0.415555556,-0.402222222,1,0,0,1.4633,Obsidian_rect,5,1.463,1,14,0,14,0,1,,,,,,,,,,,,,
63be7173226d9b8c566ddd44,SCN,2024-06-21_10h52.48.269,LearnStrategy,2023.2.3,Win32,59.52380952,4,1,16,0.58,0.222222222,1,0,0,1.3162,Basalt_04,2,04,5,8,1.316,-0.13,-0.244444444,1,0,0,1.102,Basalt_rect,2,1.102,1,15,0,15,0,1,,,,,,,,,,,,,
63be7173226d9b8c566ddd44,SCN,2024-06-21_10h52.48.269,LearnStrategy,2023.2.3,Win32,59.52380952,4,2,1,,,,,,,,4,16,,,,,,,,,,,4,7.617,1,,,,,,0.351111111,-0.254444444,1,0,0,7.6171,Gabbro_rect,0,0,0,0,1,
63be7173226d9b8c566ddd44,SCN,2024-06-21_10h52.48.269,LearnStrategy,2023.2.3,Win32,59.52380952,4,2,2,,,,,,,,8,04,,,,,,,,,,,8,1.262,1,,,,,,0.365555556,-0.391111111,1,0,0,1.2624,Pumice_rect,1,0,1,0,1,
63be7173226d9b8c566ddd44,SCN,2024-06-21_10h52.48.269,LearnStrategy,2023.2.3,Win32,59.52380952,4,2,3,,,,,,,,3,02,,,,,,,,,,,4,3.904,0,,,,,,0.355555556,-0.261111111,1,0,0,3.9038,Gabbro_rect,2,0,2,0,1,
63be7173226d9b8c566ddd44,SCN,2024-06-21_10h52.48.269,LearnStrategy,2023.2.3,Win32,59.52380952,4,2,4,,,,,,,,2,08,,,,,,,,,,,2,1.398,1,,,,,,-0.135555556,-0.25,1,0,0,1.3982,Basalt_rect,3,0,3,0,1,
63be7173226d9b8c566ddd44,SCN,2024-06-21_10h52.48.269,LearnStrategy,2023.2.3,Win32,59.52380952,4,2,5,,,,,,,,1,01,,,,,,,,,,,3,3.12,0,,,,,,0.138888889,-0.253333333,1,0,0,3.1195,Diorite_rect,4,0,4,0,1,
63be7173226d9b8c566ddd44,SCN,2024-06-21_10h52.48.269,LearnStrategy,2023.2.3,Win32,59.52380952,4,2,6,,,,,,,,6,05,,,,,,,,,,,6,3.368,1,,,,,,-0.148888889,-0.393333333,1,0,0,3.3684,Pegmatite_rect,5,0,5,0,1,
63be7173226d9b8c566ddd44,SCN,2024-06-21_10h52.48.269,LearnStrategy,2023.2.3,Win32,59.52380952,4,2,7,,,,,,,,6,11,,,,,,,,,,,6,1.22,1,,,,,,-0.163333333,-0.391111111,1,0,0,1.2202,Pegmatite_rect,6,0,6,0,1,
63be7173226d9b8c566ddd44,SCN,2024-06-21_10h52.48.269,LearnStrategy,2023.2.3,Win32,59.52380952,4,2,8,,,,,,,,8,15,,,,,,,,,,,8,1.575,1,,,,,,0.383333333,-0.402222222,1,0,0,1.5748,Pumice_rect,7,0,7,0,1,
63be7173226d9b8c566ddd44,SCN,2024-06-21_10h52.48.269,LearnStrategy,2023.2.3,Win32,59.52380952,4,2,9,,,,,,,,7,05,,,,,,,,,,,7,1.638,1,,,,,,0.084444444,-0.397777778,1,0,0,1.6383,Peridotite_rect,8,0,8,0,1,
63be7173226d9b8c566ddd44,SCN,2024-06-21_10h52.48.269,LearnStrategy,2023.2.3,Win32,59.52380952,4,2,10,,,,,,,,1,03,,,,,,,,,,,1,4.426,1,,,,,,-0.376666667,-0.25,1,0,0,4.4255,Andesite_rect,9,0,9,0,1,
63be7173226d9b8c566ddd44,SCN,2024-06-21_10h52.48.269,LearnStrategy,2023.2.3,Win32,59.52380952,4,2,11,,,,,,,,3,12,,,,,,,,,,,3,17.257,1,,,,,,0.14,-0.24,1,0,0,17.2573,Diorite_rect,10,0,10,0,1,
63be7173226d9b8c566ddd44,SCN,2024-06-21_10h52.48.269,LearnStrategy,2023.2.3,Win32,59.52380952,4,2,12,,,,,,,,2,02,,,,,,,,,,,2,1.181,1,,,,,,-0.181111111,-0.244444444,1,0,0,1.1806,Basalt_rect,11,0,11,0,1,
63be7173226d9b8c566ddd44,SCN,2024-06-21_10h52.48.269,LearnStrategy,2023.2.3,Win32,59.52380952,4,2,13,,,,,,,,5,08,,,,,,,,,,,5,1.048,1,,,,,,-0.365555556,-0.413333333,1,0,0,1.0484,Obsidian_rect,12,0,12,0,1,
63be7173226d9b8c566ddd44,SCN,2024-06-21_10h52.48.269,LearnStrategy,2023.2.3,Win32,59.52380952,4,2,14,,,,,,,,5,11,,,,,,,,,,,5,1.031,1,,,,,,-0.375555556,-0.405555556,1,0,0,1.0306,Obsidian_rect,13,0,13,0,1,
63be7173226d9b8c566ddd44,SCN,2024-06-21_10h52.48.269,LearnStrategy,2023.2.3,Win32,59.52380952,4,2,15,,,,,,,,4,15,,,,,,,,,,,1,15.167,0,,,,,,-0.377777778,-0.248888889,1,0,0,15.1666,Andesite_rect,14,0,14,0,1,
63be7173226d9b8c566ddd44,SCN,2024-06-21_10h52.48.269,LearnStrategy,2023.2.3,Win32,59.52380952,4,2,16,,,,,,,,7,06,,,,,,,,,,,7,1.656,1,,,,,,0.103333333,-0.398888889,1,0,0,1.6562,Peridotite_rect,15,0,15,0,1,
63be7173226d9b8c566ddd44,SCN,2024-06-21_10h52.48.269,LearnStrategy,2023.2.3,Win32,59.52380952,5,1,1,-0.552222222,0.083333333,1,0,0,2.6969,Gabbro_11,4,11,4,1,2.697,-0.148888889,-0.244444444,1,0,0,1.9511,Basalt_rect,2,1.951,0,0,0,0,0,1,,,,,,,,,,,,,
63be7173226d9b8c566ddd44,SCN,2024-06-21_10h52.48.269,LearnStrategy,2023.2.3,Win32,59.52380952,5,1,2,-0.395555556,0.082222222,1,0,0,1.1636,Andesite_05,1,05,4,2,1.164,-0.391111111,-0.246666667,1,0,0,5.1326,Andesite_rect,1,5.133,1,1,0,1,0,1,,,,,,,,,,,,,
63be7173226d9b8c566ddd44,SCN,2024-06-21_10h52.48.269,LearnStrategy,2023.2.3,Win32,59.52380952,5,1,3,-0.2,0.073333333,1,0,0,0.9754,Diorite_09,3,09,4,3,0.975,0.136666667,-0.244444444,1,0,0,5.6394,Diorite_rect,3,5.639,1,2,0,2,0,1,,,,,,,,,,,,,
63be7173226d9b8c566ddd44,SCN,2024-06-21_10h52.48.269,LearnStrategy,2023.2.3,Win32,59.52380952,5,1,4,-0.075555556,0.074444444,1,0,0,0.9724,Gabbro_14,4,14,4,4,0.972,0.12,-0.252222222,1,0,0,10.1061,Diorite_rect,3,10.106,0,3,0,3,0,1,,,,,,,,,,,,,
63be7173226d9b8c566ddd44,SCN,2024-06-21_10h52.48.269,LearnStrategy,2023.2.3,Win32,59.52380952,5,1,5,0.028888889,0.082222222,1,0,0,1.3884,Andesite_04,1,04,4,5,1.388,-0.351111111,-0.242222222,1,0,0,1.2028,Andesite_rect,1,1.203,1,4,0,4,0,1,,,,,,,,,,,,,
63be7173226d9b8c566ddd44,SCN,2024-06-21_10h52.48.269,LearnStrategy,2023.2.3,Win32,59.52380952,5,1,6,0.252222222,0.071111111,1,0,0,1.2211,Diorite_07,3,07,4,6,1.221,0.088888889,-0.242222222,1,0,0,1.9858,Diorite_rect,3,1.986,1,5,0,5,0,1,,,,,,,,,,,,,
63be7173226d9b8c566ddd44,SCN,2024-06-21_10h52.48.269,LearnStrategy,2023.2.3,Win32,59.52380952,5,1,7,0.37,0.104444444,1,0,0,1.1885,Basalt_10,2,10,4,7,1.188,-0.103333333,-0.235555556,1,0,0,1.2567,Basalt_rect,2,1.257,1,6,0,6,0,1,,,,,,,,,,,,,
63be7173226d9b8c566ddd44,SCN,2024-06-21_10h52.48.269,LearnStrategy,2023.2.3,Win32,59.52380952,5,1,8,0.585555556,0.101111111,1,0,0,0.8716,Peridotite_07,7,07,4,8,0.872,0.163333333,-0.393333333,1,0,0,1.3081,Peridotite_rect,7,1.308,1,7,0,7,0,1,,,,,,,,,,,,,
63be7173226d9b8c566ddd44,SCN,2024-06-21_10h52.48.269,LearnStrategy,2023.2.3,Win32,59.52380952,5,1,9,-0.56,-0.124444444,1,0,0,1.6954,Andesite_09,1,09,3,1,1.695,0.41,-0.255555556,1,0,0,1.2634,Gabbro_rect,4,1.263,0,8,0,8,0,1,,,,,,,,,,,,,
63be7173226d9b8c566ddd44,SCN,2024-06-21_10h52.48.269,LearnStrategy,2023.2.3,Win32,59.52380952,5,1,10,-0.385555556,-0.11,1,0,0,0.9983,Pumice_05,8,05,3,2,0.998,0.367777778,-0.394444444,1,0,0,1.1166,Pumice_rect,8,1.117,1,9,0,9,0,1,,,,,,,,,,,,,
63be7173226d9b8c566ddd44,SCN,2024-06-21_10h52.48.269,LearnStrategy,2023.2.3,Win32,59.52380952,5,1,11,-0.227777778,-0.12,1,0,0,0.8002,Basalt_16,2,16,3,3,0.8,-0.162222222,-0.26,1,0,0,1.2031,Basalt_rect,2,1.203,1,10,0,10,0,1,,,,,,,,,,,,,
63be7173226d9b8c566ddd44,SCN,2024-06-21_10h52.48.269,LearnStrategy,2023.2.3,Win32,59.52380952,5,1,12,-0.076666667,-0.12,1,0,0,0.802,Pegmatite_12,6,12,3,4,0.802,0.125555556,-0.242222222,1,0,0,2.1996,Diorite_rect,3,2.2,0,11,0,11,0,1,,,,,,,,,,,,,
63be7173226d9b8c566ddd44,SCN,2024-06-21_10h52.48.269,LearnStrategy,2023.2.3,Win32,59.52380952,5,1,13,0.064444444,-0.101111111,1,0,0,0.7549,Andesite_06,1,06,3,5,0.755,0.173333333,-0.24,1,0,0,0.9933,Diorite_rect,3,0.993,0,12,0,12,0,1,,,,,,,,,,,,,
63be7173226d9b8c566ddd44,SCN,2024-06-21_10h52.48.269,LearnStrategy,2023.2.3,Win32,59.52380952,5,1,14,0.238888889,-0.094444444,1,0,0,0.798,Andesite_07,1,07,3,6,0.798,0.138888889,-0.244444444,1,0,0,2.8731,Diorite_rect,3,2.873,0,13,0,13,0,1,,,,,,,,,,,,,
63be7173226d9b8c566ddd44,SCN,2024-06-21_10h52.48.269,LearnStrategy,2023.2.3,Win32,59.52380952,5,1,15,0.373333333,-0.07,1,0,0,0.9038,Pegmatite_03,6,03,3,7,0.904,-0.171111111,-0.388888889,1,0,0,1.8593,Pegmatite_rect,6,1.859,1,14,0,14,0,1,,,,,,,,,,,,,
63be7173226d9b8c566ddd44,SCN,2024-06-21_10h52.48.269,LearnStrategy,2023.2.3,Win32,59.52380952,5,1,16,0.532222222,-0.09,1,0,0,1.1277,Andesite_02,1,02,3,8,1.128,0.168888889,-0.23,1,0,0,1.3569,Diorite_rect,3,1.357,0,15,0,15,0,1,,,,,,,,,,,,,
63be7173226d9b8c566ddd44,SCN,2024-06-21_10h52.48.269,LearnStrategy,2023.2.3,Win32,59.52380952,5,2,1,,,,,,,,1,11,,,,,,,,,,,1,2.121,1,,,,,,-0.38,-0.255555556,1,0,0,2.1206,Andesite_rect,0,0,0,0,1,
63be7173226d9b8c566ddd44,SCN,2024-06-21_10h52.48.269,LearnStrategy,2023.2.3,Win32,59.52380952,5,2,2,,,,,,,,1,14,,,,,,,,,,,1,1.86,1,,,,,,-0.393333333,-0.243333333,1,0,0,1.8602,Andesite_rect,1,0,1,0,1,
63be7173226d9b8c566ddd44,SCN,2024-06-21_10h52.48.269,LearnStrategy,2023.2.3,Win32,59.52380952,5,2,3,,,,,,,,3,15,,,,,,,,,,,4,10.919,0,,,,,,0.364444444,-0.264444444,1,0,0,10.9191,Gabbro_rect,2,0,2,0,1,
63be7173226d9b8c566ddd44,SCN,2024-06-21_10h52.48.269,LearnStrategy,2023.2.3,Win32,59.52380952,5,2,4,,,,,,,,2,09,,,,,,,,,,,2,1.693,1,,,,,,-0.158888889,-0.254444444,1,0,0,1.6933,Basalt_rect,3,0,3,0,1,
63be7173226d9b8c566ddd44,SCN,2024-06-21_10h52.48.269,LearnStrategy,2023.2.3,Win32,59.52380952,5,2,5,,,,,,,,5,06,,,,,,,,,,,5,1.241,1,,,,,,-0.334444444,-0.387777778,1,0,0,1.2413,Obsidian_rect,4,0,4,0,1,
63be7173226d9b8c566ddd44,SCN,2024-06-21_10h52.48.269,LearnStrategy,2023.2.3,Win32,59.52380952,5,2,6,,,,,,,,8,09,,,,,,,,,,,8,1.309,1,,,,,,0.345555556,-0.402222222,1,0,0,1.3095,Pumice_rect,5,0,5,0,1,
63be7173226d9b8c566ddd44,SCN,2024-06-21_10h52.48.269,LearnStrategy,2023.2.3,Win32,59.52380952,5,2,7,,,,,,,,7,15,,,,,,,,,,,6,1.099,0,,,,,,-0.081111111,-0.398888889,1,0,0,1.0995,Pegmatite_rect,6,0,6,0,1,
63be7173226d9b8c566ddd44,SCN,2024-06-21_10h52.48.269,LearnStrategy,2023.2.3,Win32,59.52380952,5,2,8,,,,,,,,3,08,,,,,,,,,,,7,3.134,0,,,,,,0.093333333,-0.412222222,1,0,0,3.1342,Peridotite_rect,7,0,7,0,1,
63be7173226d9b8c566ddd44,SCN,2024-06-21_10h52.48.269,LearnStrategy,2023.2.3,Win32,59.52380952,5,2,9,,,,,,,,8,08,,,,,,,,,,,8,1.191,1,,,,,,0.35,-0.395555556,1,0,0,1.1907,Pumice_rect,8,0,8,0,1,
63be7173226d9b8c566ddd44,SCN,2024-06-21_10h52.48.269,LearnStrategy,2023.2.3,Win32,59.52380952,5,2,10,,,,,,,,6,10,,,,,,,,,,,6,1.007,1,,,,,,-0.112222222,-0.395555556,1,0,0,1.0068,Pegmatite_rect,9,0,9,0,1,
63be7173226d9b8c566ddd44,SCN,2024-06-21_10h52.48.269,LearnStrategy,2023.2.3,Win32,59.52380952,5,2,11,,,,,,,,5,09,,,,,,,,,,,5,1.102,1,,,,,,-0.318888889,-0.397777778,1,0,0,1.1017,Obsidian_rect,10,0,10,0,1,
63be7173226d9b8c566ddd44,SCN,2024-06-21_10h52.48.269,LearnStrategy,2023.2.3,Win32,59.52380952,5,2,12,,,,,,,,4,08,,,,,,,,,,,4,5.557,1,,,,,,0.386666667,-0.252222222,1,0,0,5.5571,Gabbro_rect,11,0,11,0,1,
63be7173226d9b8c566ddd44,SCN,2024-06-21_10h52.48.269,LearnStrategy,2023.2.3,Win32,59.52380952,5,2,13,,,,,,,,4,09,,,,,,,,,,,4,2.52,1,,,,,,0.355555556,-0.251111111,1,0,0,2.5205,Gabbro_rect,12,0,12,0,1,
63be7173226d9b8c566ddd44,SCN,2024-06-21_10h52.48.269,LearnStrategy,2023.2.3,Win32,59.52380952,5,2,14,,,,,,,,2,01,,,,,,,,,,,2,1.171,1,,,,,,-0.15,-0.24,1,0,0,1.1715,Basalt_rect,13,0,13,0,1,
63be7173226d9b8c566ddd44,SCN,2024-06-21_10h52.48.269,LearnStrategy,2023.2.3,Win32,59.52380952,5,2,15,,,,,,,,6,16,,,,,,,,,,,6,1.527,1,,,,,,-0.167777778,-0.398888889,1,0,0,1.5268,Pegmatite_rect,14,0,14,0,1,
63be7173226d9b8c566ddd44,SCN,2024-06-21_10h52.48.269,LearnStrategy,2023.2.3,Win32,59.52380952,5,2,16,,,,,,,,7,14,,,,,,,,,,,6,4.427,0,,,,,,-0.113333333,-0.41,1,0,0,4.4272,Pegmatite_rect,15,0,15,0,1,
63be7173226d9b8c566ddd44,SCN,2024-06-21_10h52.48.269,LearnStrategy,2023.2.3,Win32,59.52380952,6,1,1,0.538888889,-0.114444444,1,0,0,3.2801,Andesite_02,1,02,3,8,3.28,-0.428888889,-0.24,1,0,0,1.1479,Andesite_rect,1,1.148,1,0,0,0,0,1,,,,,,,,,,,,,
63be7173226d9b8c566ddd44,SCN,2024-06-21_10h52.48.269,LearnStrategy,2023.2.3,Win32,59.52380952,6,1,2,-0.522222222,-0.274444444,1,0,0,1.3143,Pumice_14,8,14,2,1,1.314,0.352222222,-0.391111111,1,0,0,1.8136,Pumice_rect,8,1.814,1,1,0,1,0,1,,,,,,,,,,,,,
63be7173226d9b8c566ddd44,SCN,2024-06-21_10h52.48.269,LearnStrategy,2023.2.3,Win32,59.52380952,6,1,3,-0.386666667,-0.261111111,1,0,0,0.8287,Peridotite_08,7,08,2,2,0.829,0.093333333,-0.383333333,1,0,0,2.1822,Peridotite_rect,7,2.182,1,2,0,2,0,1,,,,,,,,,,,,,
63be7173226d9b8c566ddd44,SCN,2024-06-21_10h52.48.269,LearnStrategy,2023.2.3,Win32,59.52380952,6,1,4,-0.282222222,-0.264444444,1,0,0,1.2453,Basalt_12,2,12,2,3,1.245,-0.103333333,-0.243333333,1,0,0,2.5681,Basalt_rect,2,2.568,1,3,0,3,0,1,,,,,,,,,,,,,
63be7173226d9b8c566ddd44,SCN,2024-06-21_10h52.48.269,LearnStrategy,2023.2.3,Win32,59.52380952,6,1,5,-0.106666667,-0.266666667,1,0,0,1.0929,Pumice_16,8,16,2,4,1.093,0.428888889,-0.408888889,1,0,0,1.3153,Pumice_rect,8,1.315,1,4,0,4,0,1,,,,,,,,,,,,,
63be7173226d9b8c566ddd44,SCN,2024-06-21_10h52.48.269,LearnStrategy,2023.2.3,Win32,59.52380952,6,1,6,0.072222222,-0.254444444,1,0,0,0.9777,Obsidian_10,5,10,2,5,0.978,-0.433333333,-0.396666667,1,0,0,1.0213,Obsidian_rect,5,1.021,1,5,0,5,0,1,,,,,,,,,,,,,
63be7173226d9b8c566ddd44,SCN,2024-06-21_10h52.48.269,LearnStrategy,2023.2.3,Win32,59.52380952,6,1,7,0.247777778,-0.272222222,1,0,0,1.0568,Diorite_14,3,14,2,6,1.057,0.366666667,-0.253333333,1,0,0,2.0504,Gabbro_rect,4,2.05,0,6,0,6,0,1,,,,,,,,,,,,,
63be7173226d9b8c566ddd44,SCN,2024-06-21_10h52.48.269,LearnStrategy,2023.2.3,Win32,59.52380952,6,1,8,0.401111111,-0.266666667,1,0,0,2.0452,Pegmatite_06,6,06,2,7,2.045,-0.095555556,-0.382222222,1,0,0,1.6201,Pegmatite_rect,6,1.62,1,7,0,7,0,1,,,,,,,,,,,,,
63be7173226d9b8c566ddd44,SCN,2024-06-21_10h52.48.269,LearnStrategy,2023.2.3,Win32,59.52380952,6,1,9,0.515555556,-0.263333333,1,0,0,2.4408,Pegmatite_13,6,13,2,8,2.441,-0.091111111,-0.398888889,1,0,0,2.732,Pegmatite_rect,6,2.732,1,8,0,8,0,1,,,,,,,,,,,,,
63be7173226d9b8c566ddd44,SCN,2024-06-21_10h52.48.269,LearnStrategy,2023.2.3,Win32,59.52380952,6,1,10,-0.555555556,-0.385555556,1,0,0,2.5138,Gabbro_01,4,01,1,1,2.514,0.356666667,-0.245555556,1,0,0,6.8766,Gabbro_rect,4,6.877,1,9,0,9,0,1,,,,,,,,,,,,,
63be7173226d9b8c566ddd44,SCN,2024-06-21_10h52.48.269,LearnStrategy,2023.2.3,Win32,59.52380952,6,1,11,-0.391111111,-0.398888889,1,0,0,1.0293,Peridotite_16,7,16,1,2,1.029,0.074444444,-0.388888889,1,0,0,2.4537,Peridotite_rect,7,2.454,1,10,0,10,0,1,,,,,,,,,,,,,
63be7173226d9b8c566ddd44,SCN,2024-06-21_10h52.48.269,LearnStrategy,2023.2.3,Win32,59.52380952,6,1,12,-0.263333333,-0.394444444,1,0,0,0.9383,Diorite_11,3,11,1,3,0.938,-0.367777778,-0.237777778,1,0,0,1.8556,Andesite_rect,1,1.856,0,11,0,11,0,1,,,,,,,,,,,,,
63be7173226d9b8c566ddd44,SCN,2024-06-21_10h52.48.269,LearnStrategy,2023.2.3,Win32,59.52380952,6,1,13,-0.08,-0.376666667,1,0,0,1.1448,Pumice_03,8,03,1,4,1.145,-0.128888889,-0.256666667,1,0,0,1.2733,Basalt_rect,2,1.273,0,12,0,12,0,1,,,,,,,,,,,,,
63be7173226d9b8c566ddd44,SCN,2024-06-21_10h52.48.269,LearnStrategy,2023.2.3,Win32,59.52380952,6,1,14,0.088888889,-0.391111111,1,0,0,0.9116,Basalt_11,2,11,1,5,0.912,-0.084444444,-0.244444444,1,0,0,1.6167,Basalt_rect,2,1.617,1,13,0,13,0,1,,,,,,,,,,,,,
63be7173226d9b8c566ddd44,SCN,2024-06-21_10h52.48.269,LearnStrategy,2023.2.3,Win32,59.52380952,6,1,15,0.21,-0.428888889,1,0,0,1.3475,Peridotite_13,7,13,1,6,1.347,0.093333333,-0.41,1,0,0,2.7756,Peridotite_rect,7,2.776,1,14,0,14,0,1,,,,,,,,,,,,,
63be7173226d9b8c566ddd44,SCN,2024-06-21_10h52.48.269,LearnStrategy,2023.2.3,Win32,59.52380952,6,1,16,0.355555556,-0.413333333,1,0,0,1.2169,Gabbro_05,4,05,1,7,1.217,0.087777778,-0.391111111,1,0,0,2.4391,Peridotite_rect,7,2.439,0,15,0,15,0,1,,,,,,,,,,,,,
63be7173226d9b8c566ddd44,SCN,2024-06-21_10h52.48.269,LearnStrategy,2023.2.3,Win32,59.52380952,6,2,1,,,,,,,,4,12,,,,,,,,,,,2,1.466,0,,,,,,-0.11,-0.234444444,1,0,0,1.4663,Basalt_rect,0,0,0,0,1,
63be7173226d9b8c566ddd44,SCN,2024-06-21_10h52.48.269,LearnStrategy,2023.2.3,Win32,59.52380952,6,2,2,,,,,,,,5,12,,,,,,,,,,,5,1.157,1,,,,,,-0.358888889,-0.415555556,1,0,0,1.1569,Obsidian_rect,1,0,1,0,1,
63be7173226d9b8c566ddd44,SCN,2024-06-21_10h52.48.269,LearnStrategy,2023.2.3,Win32,59.52380952,6,2,3,,,,,,,,4,10,,,,,,,,,,,4,3.297,1,,,,,,0.36,-0.251111111,1,0,0,3.2973,Gabbro_rect,2,0,2,0,1,
63be7173226d9b8c566ddd44,SCN,2024-06-21_10h52.48.269,LearnStrategy,2023.2.3,Win32,59.52380952,6,2,4,,,,,,,,3,10,,,,,,,,,,,3,2.169,1,,,,,,0.124444444,-0.246666667,1,0,0,2.1687,Diorite_rect,3,0,3,0,1,
63be7173226d9b8c566ddd44,SCN,2024-06-21_10h52.48.269,LearnStrategy,2023.2.3,Win32,59.52380952,6,2,5,,,,,,,,1,10,,,,,,,,,,,1,3.105,1,,,,,,-0.434444444,-0.266666667,1,0,0,3.1046,Andesite_rect,4,0,4,0,1,
63be7173226d9b8c566ddd44,SCN,2024-06-21_10h52.48.269,LearnStrategy,2023.2.3,Win32,59.52380952,6,2,6,,,,,,,,8,02,,,,,,,,,,,8,1.829,1,,,,,,0.372222222,-0.388888889,1,0,0,1.8288,Pumice_rect,5,0,5,0,1,
63be7173226d9b8c566ddd44,SCN,2024-06-21_10h52.48.269,LearnStrategy,2023.2.3,Win32,59.52380952,6,2,7,,,,,,,,7,12,,,,,,,,,,,7,1.512,1,,,,,,0.12,-0.414444444,1,0,0,1.512,Peridotite_rect,6,0,6,0,1,
63be7173226d9b8c566ddd44,SCN,2024-06-21_10h52.48.269,LearnStrategy,2023.2.3,Win32,59.52380952,6,2,8,,,,,,,,2,14,,,,,,,,,,,8,1.25,0,,,,,,0.405555556,-0.405555556,1,0,0,1.2497,Pumice_rect,7,0,7,0,1,
63be7173226d9b8c566ddd44,SCN,2024-06-21_10h52.48.269,LearnStrategy,2023.2.3,Win32,59.52380952,6,2,9,,,,,,,,8,06,,,,,,,,,,,2,2.001,0,,,,,,-0.144444444,-0.234444444,1,0,0,2.0005,Basalt_rect,8,0,8,0,1,
63be7173226d9b8c566ddd44,SCN,2024-06-21_10h52.48.269,LearnStrategy,2023.2.3,Win32,59.52380952,6,2,10,,,,,,,,5,04,,,,,,,,,,,5,1.07,1,,,,,,-0.36,-0.391111111,1,0,0,1.0697,Obsidian_rect,9,0,9,0,1,
63be7173226d9b8c566ddd44,SCN,2024-06-21_10h52.48.269,LearnStrategy,2023.2.3,Win32,59.52380952,6,2,11,,,,,,,,6,07,,,,,,,,,,,6,1.305,1,,,,,,-0.12,-0.39,1,0,0,1.3046,Pegmatite_rect,10,0,10,0,1,
63be7173226d9b8c566ddd44,SCN,2024-06-21_10h52.48.269,LearnStrategy,2023.2.3,Win32,59.52380952,6,2,12,,,,,,,,1,16,,,,,,,,,,,3,2.826,0,,,,,,0.11,-0.233333333,1,0,0,2.826,Diorite_rect,11,0,11,0,1,
63be7173226d9b8c566ddd44,SCN,2024-06-21_10h52.48.269,LearnStrategy,2023.2.3,Win32,59.52380952,6,2,13,,,,,,,,7,02,,,,,,,,,,,7,1.795,1,,,,,,0.084444444,-0.392222222,1,0,0,1.7954,Peridotite_rect,12,0,12,0,1,
63be7173226d9b8c566ddd44,SCN,2024-06-21_10h52.48.269,LearnStrategy,2023.2.3,Win32,59.52380952,6,2,14,,,,,,,,6,08,,,,,,,,,,,5,1.208,0,,,,,,-0.382222222,-0.388888889,1,0,0,1.2081,Obsidian_rect,13,0,13,0,1,
63be7173226d9b8c566ddd44,SCN,2024-06-21_10h52.48.269,LearnStrategy,2023.2.3,Win32,59.52380952,6,2,15,,,,,,,,2,06,,,,,,,,,,,2,2.456,1,,,,,,-0.111111111,-0.245555556,1,0,0,2.4556,Basalt_rect,14,0,14,0,1,
63be7173226d9b8c566ddd44,SCN,2024-06-21_10h52.48.269,LearnStrategy,2023.2.3,Win32,59.52380952,6,2,16,,,,,,,,3,13,,,,,,,,,,,1,2.847,0,,,,,,-0.353333333,-0.237777778,1,0,0,2.8467,Andesite_rect,15,0,15,0,1,
63be7173226d9b8c566ddd44,SCN,2024-06-21_10h52.48.269,LearnStrategy,2023.2.3,Win32,59.52380952,7,1,1,0.543333333,-0.442222222,1,0,0,1.4151,Pegmatite_15,6,15,1,8,1.415,-0.191111111,-0.396666667,1,0,0,3.008,Pegmatite_rect,6,3.008,1,0,0,0,0,1,,,,,,,,,,,,,
63be7173226d9b8c566ddd44,SCN,2024-06-21_10h52.48.269,LearnStrategy,2023.2.3,Win32,59.52380952,7,1,2,0.374444444,-0.416666667,1,0,0,1.1495,Gabbro_05,4,05,1,7,1.149,0.09,-0.236666667,1,0,0,2.7611,Diorite_rect,3,2.761,0,1,0,1,0,1,,,,,,,,,,,,,
63be7173226d9b8c566ddd44,SCN,2024-06-21_10h52.48.269,LearnStrategy,2023.2.3,Win32,59.52380952,7,1,3,0.211111111,-0.427777778,1,0,0,1.0124,Peridotite_13,7,13,1,6,1.012,0.088888889,-0.403333333,1,0,0,1.2956,Peridotite_rect,7,1.296,1,2,0,2,0,1,,,,,,,,,,,,,
63be7173226d9b8c566ddd44,SCN,2024-06-21_10h52.48.269,LearnStrategy,2023.2.3,Win32,59.52380952,7,1,4,0.062222222,-0.374444444,1,0,0,0.8116,Basalt_11,2,11,1,5,0.812,-0.07,-0.244444444,1,0,0,3.4755,Basalt_rect,2,3.476,1,3,0,3,0,1,,,,,,,,,,,,,
63be7173226d9b8c566ddd44,SCN,2024-06-21_10h52.48.269,LearnStrategy,2023.2.3,Win32,59.52380952,7,1,5,-0.065555556,-0.401111111,1,0,0,0.8993,Pumice_03,8,03,1,4,0.899,0.403333333,-0.394444444,1,0,0,1.8849,Pumice_rect,8,1.885,1,4,0,4,0,1,,,,,,,,,,,,,
63be7173226d9b8c566ddd44,SCN,2024-06-21_10h52.48.269,LearnStrategy,2023.2.3,Win32,59.52380952,7,1,6,-0.212222222,-0.425555556,1,0,0,1.0546,Diorite_11,3,11,1,3,1.055,0.118888889,-0.246666667,1,0,0,1.4941,Diorite_rect,3,1.494,1,5,0,5,0,1,,,,,,,,,,,,,
63be7173226d9b8c566ddd44,SCN,2024-06-21_10h52.48.269,LearnStrategy,2023.2.3,Win32,59.52380952,7,1,7,-0.358888889,-0.423333333,1,0,0,1.0976,Peridotite_16,7,16,1,2,1.098,0.097777778,-0.404444444,1,0,0,1.5875,Peridotite_rect,7,1.588,1,6,0,6,0,1,,,,,,,,,,,,,
63be7173226d9b8c566ddd44,SCN,2024-06-21_10h52.48.269,LearnStrategy,2023.2.3,Win32,59.52380952,7,1,8,-0.504444444,-0.397777778,1,0,0,1.3588,Gabbro_01,4,01,1,1,1.359,-0.394444444,-0.26,1,0,0,2.6779,Andesite_rect,1,2.678,0,7,0,7,0,1,,,,,,,,,,,,,
63be7173226d9b8c566ddd44,SCN,2024-06-21_10h52.48.269,LearnStrategy,2023.2.3,Win32,59.52380952,7,1,9,0.536666667,-0.263333333,1,0,0,1.1554,Pegmatite_13,6,13,2,8,1.155,-0.175555556,-0.387777778,1,0,0,1.4919,Pegmatite_rect,6,1.492,1,8,0,8,0,1,,,,,,,,,,,,,
63be7173226d9b8c566ddd44,SCN,2024-06-21_10h52.48.269,LearnStrategy,2023.2.3,Win32,59.52380952,7,1,10,0.418888889,-0.286666667,1,0,0,1.414,Pegmatite_06,6,06,2,7,1.414,-0.135555556,-0.407777778,1,0,0,1.1341,Pegmatite_rect,6,1.134,1,9,0,9,0,1,,,,,,,,,,,,,
63be7173226d9b8c566ddd44,SCN,2024-06-21_10h52.48.269,LearnStrategy,2023.2.3,Win32,59.52380952,7,1,11,0.216666667,-0.264444444,1,0,0,1.0146,Diorite_14,3,14,2,6,1.015,0.141111111,-0.237777778,1,0,0,1.8329,Diorite_rect,3,1.833,1,10,0,10,0,1,,,,,,,,,,,,,
63be7173226d9b8c566ddd44,SCN,2024-06-21_10h52.48.269,LearnStrategy,2023.2.3,Win32,59.52380952,7,1,12,0.103333333,-0.284444444,1,0,0,1.0836,Obsidian_10,5,10,2,5,1.084,-0.326666667,-0.408888889,1,0,0,1.9512,Obsidian_rect,5,1.951,1,11,0,11,0,1,,,,,,,,,,,,,
63be7173226d9b8c566ddd44,SCN,2024-06-21_10h52.48.269,LearnStrategy,2023.2.3,Win32,59.52380952,7,1,13,-0.074444444,-0.268888889,1,0,0,0.8484,Pumice_16,8,16,2,4,0.848,0.376666667,-0.391111111,1,0,0,0.8554,Pumice_rect,8,0.855,1,12,0,12,0,1,,,,,,,,,,,,,
63be7173226d9b8c566ddd44,SCN,2024-06-21_10h52.48.269,LearnStrategy,2023.2.3,Win32,59.52380952,7,1,14,-0.252222222,-0.231111111,1,0,0,0.8458,Basalt_12,2,12,2,3,0.846,0.373333333,-0.396666667,1,0,0,2.5875,Pumice_rect,8,2.588,0,13,0,13,0,1,,,,,,,,,,,,,
63be7173226d9b8c566ddd44,SCN,2024-06-21_10h52.48.269,LearnStrategy,2023.2.3,Win32,59.52380952,7,1,15,-0.376666667,-0.258888889,1,0,0,1.065,Peridotite_08,7,08,2,2,1.065,0.12,-0.393333333,1,0,0,1.575,Peridotite_rect,7,1.575,1,14,0,14,0,1,,,,,,,,,,,,,
63be7173226d9b8c566ddd44,SCN,2024-06-21_10h52.48.269,LearnStrategy,2023.2.3,Win32,59.52380952,7,1,16,-0.533333333,-0.237777778,1,0,0,1.1617,Pumice_14,8,14,2,1,1.162,0.334444444,-0.41,1,0,0,1.2749,Pumice_rect,8,1.275,1,15,0,15,0,1,,,,,,,,,,,,,
63be7173226d9b8c566ddd44,SCN,2024-06-21_10h52.48.269,LearnStrategy,2023.2.3,Win32,59.52380952,7,2,1,,,,,,,,3,13,,,,,,,,,,,3,3.499,1,,,,,,0.157777778,-0.25,1,0,0,3.4987,Diorite_rect,0,0,0,0,1,
63be7173226d9b8c566ddd44,SCN,2024-06-21_10h52.48.269,LearnStrategy,2023.2.3,Win32,59.52380952,7,2,2,,,,,,,,1,01,,,,,,,,,,,4,3.497,0,,,,,,0.395555556,-0.255555556,1,0,0,3.4975,Gabbro_rect,1,0,1,0,1,
63be7173226d9b8c566ddd44,SCN,2024-06-21_10h52.48.269,LearnStrategy,2023.2.3,Win32,59.52380952,7,2,3,,,,,,,,8,15,,,,,,,,,,,8,1.261,1,,,,,,0.41,-0.4,1,0,0,1.2608,Pumice_rect,2,0,2,0,1,
63be7173226d9b8c566ddd44,SCN,2024-06-21_10h52.48.269,LearnStrategy,2023.2.3,Win32,59.52380952,7,2,4,,,,,,,,8,06,,,,,,,,,,,2,2.352,0,,,,,,-0.127777778,-0.231111111,1,0,0,2.3523,Basalt_rect,3,0,3,0,1,
63be7173226d9b8c566ddd44,SCN,2024-06-21_10h52.48.269,LearnStrategy,2023.2.3,Win32,59.52380952,7,2,5,,,,,,,,6,10,,,,,,,,,,,6,1.285,1,,,,,,-0.158888889,-0.388888889,1,0,0,1.2851,Pegmatite_rect,4,0,4,0,1,
63be7173226d9b8c566ddd44,SCN,2024-06-21_10h52.48.269,LearnStrategy,2023.2.3,Win32,59.52380952,7,2,6,,,,,,,,4,15,,,,,,,,,,,1,1.707,0,,,,,,-0.437777778,-0.258888889,1,0,0,1.7074,Andesite_rect,5,0,5,0,1,
63be7173226d9b8c566ddd44,SCN,2024-06-21_10h52.48.269,LearnStrategy,2023.2.3,Win32,59.52380952,7,2,7,,,,,,,,6,07,,,,,,,,,,,6,1.579,1,,,,,,-0.103333333,-0.394444444,1,0,0,1.5793,Pegmatite_rect,6,0,6,0,1,
63be7173226d9b8c566ddd44,SCN,2024-06-21_10h52.48.269,LearnStrategy,2023.2.3,Win32,59.52380952,7,2,8,,,,,,,,5,12,,,,,,,,,,,5,1.089,1,,,,,,-0.411111111,-0.421111111,1,0,0,1.0892,Obsidian_rect,7,0,7,0,1,
63be7173226d9b8c566ddd44,SCN,2024-06-21_10h52.48.269,LearnStrategy,2023.2.3,Win32,59.52380952,7,2,9,,,,,,,,3,08,,,,,,,,,,,3,3.195,1,,,,,,0.126666667,-0.242222222,1,0,0,3.1946,Diorite_rect,8,0,8,0,1,
63be7173226d9b8c566ddd44,SCN,2024-06-21_10h52.48.269,LearnStrategy,2023.2.3,Win32,59.52380952,7,2,10,,,,,,,,7,12,,,,,,,,,,,7,1.23,1,,,,,,0.121111111,-0.383333333,1,0,0,1.2303,Peridotite_rect,9,0,9,0,1,
63be7173226d9b8c566ddd44,SCN,2024-06-21_10h52.48.269,LearnStrategy,2023.2.3,Win32,59.52380952,7,2,11,,,,,,,,5,06,,,,,,,,,,,5,1.041,1,,,,,,-0.382222222,-0.406666667,1,0,0,1.0414,Obsidian_rect,10,0,10,0,1,
63be7173226d9b8c566ddd44,SCN,2024-06-21_10h52.48.269,LearnStrategy,2023.2.3,Win32,59.52380952,7,2,12,,,,,,,,4,10,,,,,,,,,,,4,4.474,1,,,,,,0.483333333,-0.245555556,1,0,0,4.4742,Gabbro_rect,11,0,11,0,1,
63be7173226d9b8c566ddd44,SCN,2024-06-21_10h52.48.269,LearnStrategy,2023.2.3,Win32,59.52380952,7,2,13,,,,,,,,7,15,,,,,,,,,,,7,1.385,1,,,,,,0.131111111,-0.39,1,0,0,1.3851,Peridotite_rect,12,0,12,0,1,
63be7173226d9b8c566ddd44,SCN,2024-06-21_10h52.48.269,LearnStrategy,2023.2.3,Win32,59.52380952,7,2,14,,,,,,,,1,16,,,,,,,,,,,3,2.212,0,,,,,,0.113333333,-0.26,1,0,0,2.2115,Diorite_rect,13,0,13,0,1,
63be7173226d9b8c566ddd44,SCN,2024-06-21_10h52.48.269,LearnStrategy,2023.2.3,Win32,59.52380952,7,2,15,,,,,,,,2,06,,,,,,,,,,,2,1.356,1,,,,,,-0.16,-0.262222222,1,0,0,1.3555,Basalt_rect,14,0,14,0,1,
63be7173226d9b8c566ddd44,SCN,2024-06-21_10h52.48.269,LearnStrategy,2023.2.3,Win32,59.52380952,7,2,16,,,,,,,,2,09,,,,,,,,,,,2,1.248,1,,,,,,-0.171111111,-0.252222222,1,0,0,1.2477,Basalt_rect,15,0,15,0,1,
63be7173226d9b8c566ddd44,SCN,2024-06-21_10h52.48.269,LearnStrategy,2023.2.3,Win32,59.52380952,8,1,1,-0.548888889,-0.224444444,1,0,0,1.5634,Pumice_14,8,14,2,1,1.563,0.404444444,-0.394444444,1,0,0,1.9206,Pumice_rect,8,1.921,1,0,0,0,0,1,,,,,,,,,,,,,
63be7173226d9b8c566ddd44,SCN,2024-06-21_10h52.48.269,LearnStrategy,2023.2.3,Win32,59.52380952,8,1,2,-0.586666667,-0.111111111,1,0,0,1.0241,Andesite_09,1,09,3,1,1.024,-0.356666667,-0.263333333,1,0,0,4.4042,Andesite_rect,1,4.404,1,1,0,1,0,1,,,,,,,,,,,,,
63be7173226d9b8c566ddd44,SCN,2024-06-21_10h52.48.269,LearnStrategy,2023.2.3,Win32,59.52380952,8,1,3,-0.401111111,-0.112222222,1,0,0,0.98,Pumice_05,8,05,3,2,0.98,0.364444444,-0.394444444,1,0,0,1.0507,Pumice_rect,8,1.051,1,2,0,2,0,1,,,,,,,,,,,,,
63be7173226d9b8c566ddd44,SCN,2024-06-21_10h52.48.269,LearnStrategy,2023.2.3,Win32,59.52380952,8,1,4,-0.225555556,-0.117777778,1,0,0,0.873,Basalt_16,2,16,3,3,0.873,-0.15,-0.267777778,1,0,0,1.5863,Basalt_rect,2,1.586,1,3,0,3,0,1,,,,,,,,,,,,,
63be7173226d9b8c566ddd44,SCN,2024-06-21_10h52.48.269,LearnStrategy,2023.2.3,Win32,59.52380952,8,1,5,-0.113333333,-0.111111111,1,0,0,0.6492,Pegmatite_12,6,12,3,4,0.649,0.074444444,-0.243333333,1,0,0,4.3662,Diorite_rect,3,4.366,0,4,0,4,0,1,,,,,,,,,,,,,
63be7173226d9b8c566ddd44,SCN,2024-06-21_10h52.48.269,LearnStrategy,2023.2.3,Win32,59.52380952,8,1,6,0.115555556,-0.121111111,1,0,0,0.6774,Andesite_06,1,06,3,5,0.677,0.081111111,-0.242222222,1,0,0,1.6392,Diorite_rect,3,1.639,0,5,0,5,0,1,,,,,,,,,,,,,
63be7173226d9b8c566ddd44,SCN,2024-06-21_10h52.48.269,LearnStrategy,2023.2.3,Win32,59.52380952,8,1,7,0.274444444,-0.12,1,0,0,0.9758,Andesite_07,1,07,3,6,0.976,-0.363333333,-0.234444444,1,0,0,1.1731,Andesite_rect,1,1.173,1,6,0,6,0,1,,,,,,,,,,,,,
63be7173226d9b8c566ddd44,SCN,2024-06-21_10h52.48.269,LearnStrategy,2023.2.3,Win32,59.52380952,8,1,8,0.392222222,-0.096666667,1,0,0,1.4148,Pegmatite_03,6,03,3,7,1.415,-0.093333333,-0.408888889,1,0,0,1.2286,Pegmatite_rect,6,1.229,1,7,0,7,0,1,,,,,,,,,,,,,
63be7173226d9b8c566ddd44,SCN,2024-06-21_10h52.48.269,LearnStrategy,2023.2.3,Win32,59.52380952,8,1,9,0.58,-0.117777778,1,0,0,1.327,Andesite_02,1,02,3,8,1.327,0.443333333,-0.244444444,1,0,0,3.6953,Gabbro_rect,4,3.695,0,8,0,8,0,1,,,,,,,,,,,,,
63be7173226d9b8c566ddd44,SCN,2024-06-21_10h52.48.269,LearnStrategy,2023.2.3,Win32,59.52380952,8,1,10,0.505555556,0.11,1,0,0,1.2065,Peridotite_07,7,07,4,8,1.206,0.103333333,-0.403333333,1,0,0,1.3379,Peridotite_rect,7,1.338,1,9,0,9,0,1,,,,,,,,,,,,,
63be7173226d9b8c566ddd44,SCN,2024-06-21_10h52.48.269,LearnStrategy,2023.2.3,Win32,59.52380952,8,1,11,0.391111111,0.062222222,1,0,0,1.4795,Basalt_10,2,10,4,7,1.479,-0.138888889,-0.25,1,0,0,1.1151,Basalt_rect,2,1.115,1,10,0,10,0,1,,,,,,,,,,,,,
63be7173226d9b8c566ddd44,SCN,2024-06-21_10h52.48.269,LearnStrategy,2023.2.3,Win32,59.52380952,8,1,12,0.224444444,0.068888889,1,0,0,1.1146,Diorite_07,3,07,4,6,1.115,0.114444444,-0.271111111,1,0,0,1.1995,Diorite_rect,3,1.2,1,11,0,11,0,1,,,,,,,,,,,,,
63be7173226d9b8c566ddd44,SCN,2024-06-21_10h52.48.269,LearnStrategy,2023.2.3,Win32,59.52380952,8,1,13,0.092222222,0.082222222,1,0,0,0.749,Andesite_04,1,04,4,5,0.749,0.123333333,-0.258888889,1,0,0,1.441,Diorite_rect,3,1.441,0,12,0,12,0,1,,,,,,,,,,,,,
63be7173226d9b8c566ddd44,SCN,2024-06-21_10h52.48.269,LearnStrategy,2023.2.3,Win32,59.52380952,8,1,14,-0.068888889,0.087777778,1,0,0,0.8883,Gabbro_14,4,14,4,4,0.888,0.343333333,-0.24,1,0,0,1.7503,Gabbro_rect,4,1.75,1,13,0,13,0,1,,,,,,,,,,,,,
63be7173226d9b8c566ddd44,SCN,2024-06-21_10h52.48.269,LearnStrategy,2023.2.3,Win32,59.52380952,8,1,15,-0.227777778,0.088888889,1,0,0,0.8255,Diorite_09,3,09,4,3,0.826,-0.411111111,-0.256666667,1,0,0,2.2232,Andesite_rect,1,2.223,0,14,0,14,0,1,,,,,,,,,,,,,
63be7173226d9b8c566ddd44,SCN,2024-06-21_10h52.48.269,LearnStrategy,2023.2.3,Win32,59.52380952,8,1,16,-0.376666667,0.063333333,1,0,0,0.8967,Andesite_05,1,05,4,2,0.897,0.101111111,-0.258888889,1,0,0,3.2805,Diorite_rect,3,3.281,0,15,0,15,0,1,,,,,,,,,,,,,
63be7173226d9b8c566ddd44,SCN,2024-06-21_10h52.48.269,LearnStrategy,2023.2.3,Win32,59.52380952,8,2,1,,,,,,,,6,16,,,,,,,,,,,6,1.7,1,,,,,,-0.16,-0.398888889,1,0,0,1.6996,Pegmatite_rect,0,0,0,0,1,
63be7173226d9b8c566ddd44,SCN,2024-06-21_10h52.48.269,LearnStrategy,2023.2.3,Win32,59.52380952,8,2,2,,,,,,,,6,05,,,,,,,,,,,6,1.346,1,,,,,,-0.08,-0.41,1,0,0,1.3459,Pegmatite_rect,1,0,1,0,1,
63be7173226d9b8c566ddd44,SCN,2024-06-21_10h52.48.269,LearnStrategy,2023.2.3,Win32,59.52380952,8,2,3,,,,,,,,2,02,,,,,,,,,,,2,1.001,1,,,,,,-0.098888889,-0.246666667,1,0,0,1.0015,Basalt_rect,2,0,2,0,1,
63be7173226d9b8c566ddd44,SCN,2024-06-21_10h52.48.269,LearnStrategy,2023.2.3,Win32,59.52380952,8,2,4,,,,,,,,5,08,,,,,,,,,,,5,1.121,1,,,,,,-0.351111111,-0.378888889,1,0,0,1.1213,Obsidian_rect,3,0,3,0,1,
63be7173226d9b8c566ddd44,SCN,2024-06-21_10h52.48.269,LearnStrategy,2023.2.3,Win32,59.52380952,8,2,5,,,,,,,,3,12,,,,,,,,,,,1,2.16,0,,,,,,-0.363333333,-0.24,1,0,0,2.1597,Andesite_rect,4,0,4,0,1,
63be7173226d9b8c566ddd44,SCN,2024-06-21_10h52.48.269,LearnStrategy,2023.2.3,Win32,59.52380952,8,2,6,,,,,,,,4,09,,,,,,,,,,,4,3.075,1,,,,,,0.343333333,-0.257777778,1,0,0,3.0751,Gabbro_rect,5,0,5,0,1,
63be7173226d9b8c566ddd44,SCN,2024-06-21_10h52.48.269,LearnStrategy,2023.2.3,Win32,59.52380952,8,2,7,,,,,,,,1,10,,,,,,,,,,,1,2.724,1,,,,,,-0.354444444,-0.234444444,1,0,0,2.724,Andesite_rect,6,0,6,0,1,
63be7173226d9b8c566ddd44,SCN,2024-06-21_10h52.48.269,LearnStrategy,2023.2.3,Win32,59.52380952,8,2,8,,,,,,,,8,02,,,,,,,,,,,8,2.785,1,,,,,,0.382222222,-0.404444444,1,0,0,2.7845,Pumice_rect,7,0,7,0,1,
63be7173226d9b8c566ddd44,SCN,2024-06-21_10h52.48.269,LearnStrategy,2023.2.3,Win32,59.52380952,8,2,9,,,,,,,,2,14,,,,,,,,,,,8,1.192,0,,,,,,0.346666667,-0.385555556,1,0,0,1.1921,Pumice_rect,8,0,8,0,1,
63be7173226d9b8c566ddd44,SCN,2024-06-21_10h52.48.269,LearnStrategy,2023.2.3,Win32,59.52380952,8,2,10,,,,,,,,4,16,,,,,,,,,,,4,2.495,1,,,,,,0.405555556,-0.234444444,1,0,0,2.4952,Gabbro_rect,9,0,9,0,1,
63be7173226d9b8c566ddd44,SCN,2024-06-21_10h52.48.269,LearnStrategy,2023.2.3,Win32,59.52380952,8,2,11,,,,,,,,1,14,,,,,,,,,,,3,1.359,0,,,,,,0.188888889,-0.241111111,1,0,0,1.3587,Diorite_rect,10,0,10,0,1,
63be7173226d9b8c566ddd44,SCN,2024-06-21_10h52.48.269,LearnStrategy,2023.2.3,Win32,59.52380952,8,2,12,,,,,,,,7,02,,,,,,,,,,,7,1.579,1,,,,,,0.104444444,-0.396666667,1,0,0,1.5785,Peridotite_rect,11,0,11,0,1,
63be7173226d9b8c566ddd44,SCN,2024-06-21_10h52.48.269,LearnStrategy,2023.2.3,Win32,59.52380952,8,2,13,,,,,,,,7,14,,,,,,,,,,,7,1.38,1,,,,,,0.126666667,-0.412222222,1,0,0,1.3796,Peridotite_rect,12,0,12,0,1,
63be7173226d9b8c566ddd44,SCN,2024-06-21_10h52.48.269,LearnStrategy,2023.2.3,Win32,59.52380952,8,2,14,,,,,,,,8,08,,,,,,,,,,,8,1.445,1,,,,,,0.366666667,-0.388888889,1,0,0,1.4451,Pumice_rect,13,0,13,0,1,
63be7173226d9b8c566ddd44,SCN,2024-06-21_10h52.48.269,LearnStrategy,2023.2.3,Win32,59.52380952,8,2,15,,,,,,,,3,15,,,,,,,,,,,1,2.073,0,,,,,,-0.387777778,-0.233333333,1,0,0,2.0726,Andesite_rect,14,0,14,0,1,
63be7173226d9b8c566ddd44,SCN,2024-06-21_10h52.48.269,LearnStrategy,2023.2.3,Win32,59.52380952,8,2,16,,,,,,,,5,11,,,,,,,,,,,5,1.618,1,,,,,,-0.364444444,-0.411111111,1,0,0,1.6179,Obsidian_rect,15,0,15,0,1,
63be7173226d9b8c566ddd44,SCN,2024-06-21_10h52.48.269,LearnStrategy,2023.2.3,Win32,59.52380952,9,1,1,-0.523333333,0.091111111,1,0,0,1.2828,Gabbro_11,4,11,4,1,1.283,-0.127777778,-0.247777778,1,0,0,1.0376,Basalt_rect,2,1.038,0,0,0,0,0,1,,,,,,,,,,,,,
63be7173226d9b8c566ddd44,SCN,2024-06-21_10h52.48.269,LearnStrategy,2023.2.3,Win32,59.52380952,9,1,2,0.513333333,0.281111111,1,0,0,1.1971,Basalt_04,2,04,5,8,1.197,-0.101111111,-0.244444444,1,0,0,0.8916,Basalt_rect,2,0.892,1,1,0,1,0,1,,,,,,,,,,,,,
63be7173226d9b8c566ddd44,SCN,2024-06-21_10h52.48.269,LearnStrategy,2023.2.3,Win32,59.52380952,9,1,3,0.413333333,0.254444444,1,0,0,1.1131,Obsidian_16,5,16,5,7,1.113,-0.361111111,-0.392222222,1,0,0,1.1646,Obsidian_rect,5,1.165,1,2,0,2,0,1,,,,,,,,,,,,,
63be7173226d9b8c566ddd44,SCN,2024-06-21_10h52.48.269,LearnStrategy,2023.2.3,Win32,59.52380952,9,1,4,0.23,0.227777778,1,0,0,0.9074,Basalt_05,2,05,5,6,0.907,0.333333333,-0.238888889,1,0,0,1.701,Gabbro_rect,4,1.701,0,3,0,3,0,1,,,,,,,,,,,,,
63be7173226d9b8c566ddd44,SCN,2024-06-21_10h52.48.269,LearnStrategy,2023.2.3,Win32,59.52380952,9,1,5,0.076666667,0.216666667,1,0,0,0.9613,Gabbro_03,4,03,5,5,0.961,-0.408888889,-0.257777778,1,0,0,2.0569,Andesite_rect,1,2.057,0,4,0,4,0,1,,,,,,,,,,,,,
63be7173226d9b8c566ddd44,SCN,2024-06-21_10h52.48.269,LearnStrategy,2023.2.3,Win32,59.52380952,9,1,6,-0.083333333,0.211111111,1,0,0,1.0114,Obsidian_02,5,02,5,4,1.011,-0.388888889,-0.39,1,0,0,0.9808,Obsidian_rect,5,0.981,1,5,0,5,0,1,,,,,,,,,,,,,
63be7173226d9b8c566ddd44,SCN,2024-06-21_10h52.48.269,LearnStrategy,2023.2.3,Win32,59.52380952,9,1,7,-0.207777778,0.245555556,1,0,0,1.0179,Obsidian_05,5,05,5,3,1.018,-0.378888889,-0.411111111,1,0,0,3.5781,Obsidian_rect,5,3.578,1,6,0,6,0,1,,,,,,,,,,,,,
63be7173226d9b8c566ddd44,SCN,2024-06-21_10h52.48.269,LearnStrategy,2023.2.3,Win32,59.52380952,9,1,8,-0.375555556,0.26,1,0,0,0.8789,Gabbro_13,4,13,5,2,0.879,-0.358888889,-0.254444444,1,0,0,1.5247,Andesite_rect,1,1.525,0,7,0,7,0,1,,,,,,,,,,,,,
63be7173226d9b8c566ddd44,SCN,2024-06-21_10h52.48.269,LearnStrategy,2023.2.3,Win32,59.52380952,9,1,9,-0.571111111,0.271111111,1,0,0,1.0094,Pumice_13,8,13,5,1,1.009,0.347777778,-0.391111111,1,0,0,1.0771,Pumice_rect,8,1.077,1,8,0,8,0,1,,,,,,,,,,,,,
63be7173226d9b8c566ddd44,SCN,2024-06-21_10h52.48.269,LearnStrategy,2023.2.3,Win32,59.52380952,9,1,10,0.535555556,0.395555556,1,0,0,2.6751,Diorite_06,3,06,6,8,2.675,0.144444444,-0.268888889,1,0,0,1.6558,Diorite_rect,3,1.656,1,9,0,9,0,1,,,,,,,,,,,,,
63be7173226d9b8c566ddd44,SCN,2024-06-21_10h52.48.269,LearnStrategy,2023.2.3,Win32,59.52380952,9,1,11,0.376666667,0.364444444,1,0,0,1.1154,Peridotite_10,7,10,6,7,1.115,0.142222222,-0.4,1,0,0,1.5017,Peridotite_rect,7,1.502,1,10,0,10,0,1,,,,,,,,,,,,,
63be7173226d9b8c566ddd44,SCN,2024-06-21_10h52.48.269,LearnStrategy,2023.2.3,Win32,59.52380952,9,1,12,0.22,0.41,1,0,0,0.9137,Obsidian_14,5,14,6,6,0.914,-0.394444444,-0.401111111,1,0,0,1.0936,Obsidian_rect,5,1.094,1,11,0,11,0,1,,,,,,,,,,,,,
63be7173226d9b8c566ddd44,SCN,2024-06-21_10h52.48.269,LearnStrategy,2023.2.3,Win32,59.52380952,9,1,13,0.071111111,0.365555556,1,0,0,0.9621,Pumice_10,8,10,6,5,0.962,0.37,-0.408888889,1,0,0,1.3783,Pumice_rect,8,1.378,1,12,0,12,0,1,,,,,,,,,,,,,
63be7173226d9b8c566ddd44,SCN,2024-06-21_10h52.48.269,LearnStrategy,2023.2.3,Win32,59.52380952,9,1,14,-0.064444444,0.364444444,1,0,0,1.0637,Pegmatite_09,6,09,6,4,1.064,-0.1,-0.408888889,1,0,0,0.9561,Pegmatite_rect,6,0.956,1,13,0,13,0,1,,,,,,,,,,,,,
63be7173226d9b8c566ddd44,SCN,2024-06-21_10h52.48.269,LearnStrategy,2023.2.3,Win32,59.52380952,9,1,15,-0.251111111,0.376666667,1,0,0,1.0222,Obsidian_07,5,07,6,3,1.022,-0.424444444,-0.421111111,1,0,0,1.0335,Obsidian_rect,5,1.034,1,14,0,14,0,1,,,,,,,,,,,,,
63be7173226d9b8c566ddd44,SCN,2024-06-21_10h52.48.269,LearnStrategy,2023.2.3,Win32,59.52380952,9,1,16,-0.366666667,0.374444444,1,0,0,1.8591,Diorite_16,3,16,6,2,1.859,0.15,-0.243333333,1,0,0,1.1667,Diorite_rect,3,1.167,1,15,0,15,0,1,,,,,,,,,,,,,
63be7173226d9b8c566ddd44,SCN,2024-06-21_10h52.48.269,LearnStrategy,2023.2.3,Win32,59.52380952,9,2,1,,,,,,,,3,10,,,,,,,,,,,1,2.762,0,,,,,,-0.388888889,-0.24,1,0,0,2.7616,Andesite_rect,0,0,0,0,1,
63be7173226d9b8c566ddd44,SCN,2024-06-21_10h52.48.269,LearnStrategy,2023.2.3,Win32,59.52380952,9,2,2,,,,,,,,1,11,,,,,,,,,,,4,5.249,0,,,,,,0.392222222,-0.251111111,1,0,0,5.249,Gabbro_rect,1,0,1,0,1,
63be7173226d9b8c566ddd44,SCN,2024-06-21_10h52.48.269,LearnStrategy,2023.2.3,Win32,59.52380952,9,2,3,,,,,,,,2,08,,,,,,,,,,,2,1.348,1,,,,,,-0.112222222,-0.236666667,1,0,0,1.3478,Basalt_rect,2,0,2,0,1,
63be7173226d9b8c566ddd44,SCN,2024-06-21_10h52.48.269,LearnStrategy,2023.2.3,Win32,59.52380952,9,2,4,,,,,,,,6,11,,,,,,,,,,,6,1.578,1,,,,,,-0.114444444,-0.394444444,1,0,0,1.5781,Pegmatite_rect,3,0,3,0,1,
63be7173226d9b8c566ddd44,SCN,2024-06-21_10h52.48.269,LearnStrategy,2023.2.3,Win32,59.52380952,9,2,5,,,,,,,,1,03,,,,,,,,,,,1,2.222,1,,,,,,-0.36,-0.248888889,1,0,0,2.2223,Andesite_rect,4,0,4,0,1,
63be7173226d9b8c566ddd44,SCN,2024-06-21_10h52.48.269,LearnStrategy,2023.2.3,Win32,59.52380952,9,2,6,,,,,,,,4,08,,,,,,,,,,,4,2.261,1,,,,,,0.411111111,-0.262222222,1,0,0,2.2607,Gabbro_rect,5,0,5,0,1,
63be7173226d9b8c566ddd44,SCN,2024-06-21_10h52.48.269,LearnStrategy,2023.2.3,Win32,59.52380952,9,2,7,,,,,,,,5,09,,,,,,,,,,,5,1.09,1,,,,,,-0.387777778,-0.393333333,1,0,0,1.09,Obsidian_rect,6,0,6,0,1,
63be7173226d9b8c566ddd44,SCN,2024-06-21_10h52.48.269,LearnStrategy,2023.2.3,Win32,59.52380952,9,2,8,,,,,,,,7,05,,,,,,,,,,,7,1.358,1,,,,,,0.114444444,-0.387777778,1,0,0,1.3575,Peridotite_rect,7,0,7,0,1,
63be7173226d9b8c566ddd44,SCN,2024-06-21_10h52.48.269,LearnStrategy,2023.2.3,Win32,59.52380952,9,2,9,,,,,,,,6,08,,,,,,,,,,,6,1.197,1,,,,,,-0.171111111,-0.4,1,0,0,1.1966,Pegmatite_rect,8,0,8,0,1,
63be7173226d9b8c566ddd44,SCN,2024-06-21_10h52.48.269,LearnStrategy,2023.2.3,Win32,59.52380952,9,2,10,,,,,,,,4,12,,,,,,,,,,,4,2.028,1,,,,,,0.368888889,-0.245555556,1,0,0,2.0281,Gabbro_rect,9,0,9,0,1,
63be7173226d9b8c566ddd44,SCN,2024-06-21_10h52.48.269,LearnStrategy,2023.2.3,Win32,59.52380952,9,2,11,,,,,,,,8,04,,,,,,,,,,,8,1.23,1,,,,,,0.364444444,-0.414444444,1,0,0,1.2303,Pumice_rect,10,0,10,0,1,
63be7173226d9b8c566ddd44,SCN,2024-06-21_10h52.48.269,LearnStrategy,2023.2.3,Win32,59.52380952,9,2,12,,,,,,,,8,09,,,,,,,,,,,8,1.182,1,,,,,,0.345555556,-0.385555556,1,0,0,1.1816,Pumice_rect,11,0,11,0,1,
63be7173226d9b8c566ddd44,SCN,2024-06-21_10h52.48.269,LearnStrategy,2023.2.3,Win32,59.52380952,9,2,13,,,,,,,,2,01,,,,,,,,,,,2,1.133,1,,,,,,-0.112222222,-0.234444444,1,0,0,1.1333,Basalt_rect,12,0,12,0,1,
63be7173226d9b8c566ddd44,SCN,2024-06-21_10h52.48.269,LearnStrategy,2023.2.3,Win32,59.52380952,9,2,14,,,,,,,,3,02,,,,,,,,,,,1,3.065,0,,,,,,-0.381111111,-0.233333333,1,0,0,3.0648,Andesite_rect,13,0,13,0,1,
63be7173226d9b8c566ddd44,SCN,2024-06-21_10h52.48.269,LearnStrategy,2023.2.3,Win32,59.52380952,9,2,15,,,,,,,,7,06,,,,,,,,,,,7,1.224,1,,,,,,0.124444444,-0.39,1,0,0,1.2236,Peridotite_rect,14,0,14,0,1,
63be7173226d9b8c566ddd44,SCN,2024-06-21_10h52.48.269,LearnStrategy,2023.2.3,Win32,59.52380952,9,2,16,,,,,,,,5,04,,,,,,,,,,,5,1.078,1,,,,,,-0.373333333,-0.421111111,1,0,0,1.0777,Obsidian_rect,15,0,15,0,1,
63be7173226d9b8c566ddd44,SCN,2024-06-21_10h52.48.269,LearnStrategy,2023.2.3,Win32,59.52380952,,,,,,,,,,,,,,,,,,,,,,,,,,,,,,,,,,,,,,,,,,,1
63be7173226d9b8c566ddd44,SCN,2024-06-21_10h52.48.269,LearnStrategy,2023.2.3,Win32,59.52380952,,,,,,,,,,,,,,,,,,,,,,,,,,,,,,,,,,,,,,,,,,,
63be7173226d9b8c566ddd44,SCN,2024-06-21_10h52.48.269,LearnStrategy,2023.2.3,Win32,59.52380952,,,,,,,,,,,4,01,1,1,,,,,,,,,,,,,,,,,,,,,,,,,,,,,
63be7173226d9b8c566ddd44,SCN,2024-06-21_10h52.48.269,LearnStrategy,2023.2.3,Win32,59.52380952,,,,,,,,,,,7,16,1,2,,,,,,,,,,,,,,,,,,,,,,,,,,,,,
63be7173226d9b8c566ddd44,SCN,2024-06-21_10h52.48.269,LearnStrategy,2023.2.3,Win32,59.52380952,,,,,,,,,,,3,11,1,3,,,,,,,,,,,,,,,,,,,,,,,,,,,,,
63be7173226d9b8c566ddd44,SCN,2024-06-21_10h52.48.269,LearnStrategy,2023.2.3,Win32,59.52380952,,,,,,,,,,,8,03,1,4,,,,,,,,,,,,,,,,,,,,,,,,,,,,,
63be7173226d9b8c566ddd44,SCN,2024-06-21_10h52.48.269,LearnStrategy,2023.2.3,Win32,59.52380952,,,,,,,,,,,2,11,1,5,,,,,,,,,,,,,,,,,,,,,,,,,,,,,
63be7173226d9b8c566ddd44,SCN,2024-06-21_10h52.48.269,LearnStrategy,2023.2.3,Win32,59.52380952,,,,,,,,,,,7,13,1,6,,,,,,,,,,,,,,,,,,,,,,,,,,,,,
63be7173226d9b8c566ddd44,SCN,2024-06-21_10h52.48.269,LearnStrategy,2023.2.3,Win32,59.52380952,,,,,,,,,,,4,05,1,7,,,,,,,,,,,,,,,,,,,,,,,,,,,,,
63be7173226d9b8c566ddd44,SCN,2024-06-21_10h52.48.269,LearnStrategy,2023.2.3,Win32,59.52380952,,,,,,,,,,,6,15,1,8,,,,,,,,,,,,,,,,,,,,,,,,,,,,,
63be7173226d9b8c566ddd44,SCN,2024-06-21_10h52.48.269,LearnStrategy,2023.2.3,Win32,59.52380952,,,,,,,,,,,8,14,2,1,,,,,,,,,,,,,,,,,,,,,,,,,,,,,
63be7173226d9b8c566ddd44,SCN,2024-06-21_10h52.48.269,LearnStrategy,2023.2.3,Win32,59.52380952,,,,,,,,,,,7,08,2,2,,,,,,,,,,,,,,,,,,,,,,,,,,,,,
63be7173226d9b8c566ddd44,SCN,2024-06-21_10h52.48.269,LearnStrategy,2023.2.3,Win32,59.52380952,,,,,,,,,,,2,12,2,3,,,,,,,,,,,,,,,,,,,,,,,,,,,,,
63be7173226d9b8c566ddd44,SCN,2024-06-21_10h52.48.269,LearnStrategy,2023.2.3,Win32,59.52380952,,,,,,,,,,,8,16,2,4,,,,,,,,,,,,,,,,,,,,,,,,,,,,,
63be7173226d9b8c566ddd44,SCN,2024-06-21_10h52.48.269,LearnStrategy,2023.2.3,Win32,59.52380952,,,,,,,,,,,5,10,2,5,,,,,,,,,,,,,,,,,,,,,,,,,,,,,
63be7173226d9b8c566ddd44,SCN,2024-06-21_10h52.48.269,LearnStrategy,2023.2.3,Win32,59.52380952,,,,,,,,,,,3,14,2,6,,,,,,,,,,,,,,,,,,,,,,,,,,,,,
63be7173226d9b8c566ddd44,SCN,2024-06-21_10h52.48.269,LearnStrategy,2023.2.3,Win32,59.52380952,,,,,,,,,,,6,06,2,7,,,,,,,,,,,,,,,,,,,,,,,,,,,,,
63be7173226d9b8c566ddd44,SCN,2024-06-21_10h52.48.269,LearnStrategy,2023.2.3,Win32,59.52380952,,,,,,,,,,,6,13,2,8,,,,,,,,,,,,,,,,,,,,,,,,,,,,,
63be7173226d9b8c566ddd44,SCN,2024-06-21_10h52.48.269,LearnStrategy,2023.2.3,Win32,59.52380952,,,,,,,,,,,1,09,3,1,,,,,,,,,,,,,,,,,,,,,,,,,,,,,
63be7173226d9b8c566ddd44,SCN,2024-06-21_10h52.48.269,LearnStrategy,2023.2.3,Win32,59.52380952,,,,,,,,,,,8,05,3,2,,,,,,,,,,,,,,,,,,,,,,,,,,,,,
63be7173226d9b8c566ddd44,SCN,2024-06-21_10h52.48.269,LearnStrategy,2023.2.3,Win32,59.52380952,,,,,,,,,,,2,16,3,3,,,,,,,,,,,,,,,,,,,,,,,,,,,,,
63be7173226d9b8c566ddd44,SCN,2024-06-21_10h52.48.269,LearnStrategy,2023.2.3,Win32,59.52380952,,,,,,,,,,,6,12,3,4,,,,,,,,,,,,,,,,,,,,,,,,,,,,,
63be7173226d9b8c566ddd44,SCN,2024-06-21_10h52.48.269,LearnStrategy,2023.2.3,Win32,59.52380952,,,,,,,,,,,1,06,3,5,,,,,,,,,,,,,,,,,,,,,,,,,,,,,
63be7173226d9b8c566ddd44,SCN,2024-06-21_10h52.48.269,LearnStrategy,2023.2.3,Win32,59.52380952,,,,,,,,,,,1,07,3,6,,,,,,,,,,,,,,,,,,,,,,,,,,,,,
63be7173226d9b8c566ddd44,SCN,2024-06-21_10h52.48.269,LearnStrategy,2023.2.3,Win32,59.52380952,,,,,,,,,,,6,03,3,7,,,,,,,,,,,,,,,,,,,,,,,,,,,,,
63be7173226d9b8c566ddd44,SCN,2024-06-21_10h52.48.269,LearnStrategy,2023.2.3,Win32,59.52380952,,,,,,,,,,,1,02,3,8,,,,,,,,,,,,,,,,,,,,,,,,,,,,,
63be7173226d9b8c566ddd44,SCN,2024-06-21_10h52.48.269,LearnStrategy,2023.2.3,Win32,59.52380952,,,,,,,,,,,4,11,4,1,,,,,,,,,,,,,,,,,,,,,,,,,,,,,
63be7173226d9b8c566ddd44,SCN,2024-06-21_10h52.48.269,LearnStrategy,2023.2.3,Win32,59.52380952,,,,,,,,,,,1,05,4,2,,,,,,,,,,,,,,,,,,,,,,,,,,,,,
63be7173226d9b8c566ddd44,SCN,2024-06-21_10h52.48.269,LearnStrategy,2023.2.3,Win32,59.52380952,,,,,,,,,,,3,09,4,3,,,,,,,,,,,,,,,,,,,,,,,,,,,,,
63be7173226d9b8c566ddd44,SCN,2024-06-21_10h52.48.269,LearnStrategy,2023.2.3,Win32,59.52380952,,,,,,,,,,,4,14,4,4,,,,,,,,,,,,,,,,,,,,,,,,,,,,,
63be7173226d9b8c566ddd44,SCN,2024-06-21_10h52.48.269,LearnStrategy,2023.2.3,Win32,59.52380952,,,,,,,,,,,1,04,4,5,,,,,,,,,,,,,,,,,,,,,,,,,,,,,
63be7173226d9b8c566ddd44,SCN,2024-06-21_10h52.48.269,LearnStrategy,2023.2.3,Win32,59.52380952,,,,,,,,,,,3,07,4,6,,,,,,,,,,,,,,,,,,,,,,,,,,,,,
63be7173226d9b8c566ddd44,SCN,2024-06-21_10h52.48.269,LearnStrategy,2023.2.3,Win32,59.52380952,,,,,,,,,,,2,10,4,7,,,,,,,,,,,,,,,,,,,,,,,,,,,,,
63be7173226d9b8c566ddd44,SCN,2024-06-21_10h52.48.269,LearnStrategy,2023.2.3,Win32,59.52380952,,,,,,,,,,,7,07,4,8,,,,,,,,,,,,,,,,,,,,,,,,,,,,,
63be7173226d9b8c566ddd44,SCN,2024-06-21_10h52.48.269,LearnStrategy,2023.2.3,Win32,59.52380952,,,,,,,,,,,8,13,5,1,,,,,,,,,,,,,,,,,,,,,,,,,,,,,
63be7173226d9b8c566ddd44,SCN,2024-06-21_10h52.48.269,LearnStrategy,2023.2.3,Win32,59.52380952,,,,,,,,,,,4,13,5,2,,,,,,,,,,,,,,,,,,,,,,,,,,,,,
63be7173226d9b8c566ddd44,SCN,2024-06-21_10h52.48.269,LearnStrategy,2023.2.3,Win32,59.52380952,,,,,,,,,,,5,05,5,3,,,,,,,,,,,,,,,,,,,,,,,,,,,,,
63be7173226d9b8c566ddd44,SCN,2024-06-21_10h52.48.269,LearnStrategy,2023.2.3,Win32,59.52380952,,,,,,,,,,,5,02,5,4,,,,,,,,,,,,,,,,,,,,,,,,,,,,,
63be7173226d9b8c566ddd44,SCN,2024-06-21_10h52.48.269,LearnStrategy,2023.2.3,Win32,59.52380952,,,,,,,,,,,4,03,5,5,,,,,,,,,,,,,,,,,,,,,,,,,,,,,
63be7173226d9b8c566ddd44,SCN,2024-06-21_10h52.48.269,LearnStrategy,2023.2.3,Win32,59.52380952,,,,,,,,,,,2,05,5,6,,,,,,,,,,,,,,,,,,,,,,,,,,,,,
63be7173226d9b8c566ddd44,SCN,2024-06-21_10h52.48.269,LearnStrategy,2023.2.3,Win32,59.52380952,,,,,,,,,,,5,16,5,7,,,,,,,,,,,,,,,,,,,,,,,,,,,,,
63be7173226d9b8c566ddd44,SCN,2024-06-21_10h52.48.269,LearnStrategy,2023.2.3,Win32,59.52380952,,,,,,,,,,,2,04,5,8,,,,,,,,,,,,,,,,,,,,,,,,,,,,,
63be7173226d9b8c566ddd44,SCN,2024-06-21_10h52.48.269,LearnStrategy,2023.2.3,Win32,59.52380952,,,,,,,,,,,7,04,6,1,,,,,,,,,,,,,,,,,,,,,,,,,,,,,
63be7173226d9b8c566ddd44,SCN,2024-06-21_10h52.48.269,LearnStrategy,2023.2.3,Win32,59.52380952,,,,,,,,,,,3,16,6,2,,,,,,,,,,,,,,,,,,,,,,,,,,,,,
63be7173226d9b8c566ddd44,SCN,2024-06-21_10h52.48.269,LearnStrategy,2023.2.3,Win32,59.52380952,,,,,,,,,,,5,07,6,3,,,,,,,,,,,,,,,,,,,,,,,,,,,,,
63be7173226d9b8c566ddd44,SCN,2024-06-21_10h52.48.269,LearnStrategy,2023.2.3,Win32,59.52380952,,,,,,,,,,,6,09,6,4,,,,,,,,,,,,,,,,,,,,,,,,,,,,,
63be7173226d9b8c566ddd44,SCN,2024-06-21_10h52.48.269,LearnStrategy,2023.2.3,Win32,59.52380952,,,,,,,,,,,8,10,6,5,,,,,,,,,,,,,,,,,,,,,,,,,,,,,
63be7173226d9b8c566ddd44,SCN,2024-06-21_10h52.48.269,LearnStrategy,2023.2.3,Win32,59.52380952,,,,,,,,,,,5,14,6,6,,,,,,,,,,,,,,,,,,,,,,,,,,,,,
63be7173226d9b8c566ddd44,SCN,2024-06-21_10h52.48.269,LearnStrategy,2023.2.3,Win32,59.52380952,,,,,,,,,,,7,10,6,7,,,,,,,,,,,,,,,,,,,,,,,,,,,,,
63be7173226d9b8c566ddd44,SCN,2024-06-21_10h52.48.269,LearnStrategy,2023.2.3,Win32,59.52380952,,,,,,,,,,,3,06,6,8,,,,,,,,,,,,,,,,,,,,,,,,,,,,,