participant,condition,date,expName,psychopyVersion,OS,frameRate,block,phase,trial,learn_mouse_2.x,learn_mouse_2.y,learn_mouse_2.leftButton,learn_mouse_2.midButton,learn_mouse_2.rightButton,learn_mouse_2.time,learn_mouse_2.clicked_name,cat,token,row,col,t_select,cat_mouse_l.x,cat_mouse_l.y,cat_mouse_l.leftButton,cat_mouse_l.midButton,cat_mouse_l.rightButton,cat_mouse_l.time,cat_mouse_l.clicked_name,resp,t_resp,corr,train_trials.thisRepN,train_trials.thisTrialN,train_trials.thisN,train_trials.thisIndex,train_trials.ran,cat_mouse_t.x,cat_mouse_t.y,cat_mouse_t.leftButton,cat_mouse_t.midButton,cat_mouse_t.rightButton,cat_mouse_t.time,cat_mouse_t.clicked_name,test_trials.thisRepN,test_trials.thisTrialN,test_trials.thisN,test_trials.thisIndex,test_trials.ran,Bonus
63c1d184883ce15537788b40,TCN,2024-06-24_16h36.11.074,LearnStrategy,2023.2.3,Win32,60.60606061,,,,,,,,,,,,,,,,,,,,,,,,,,,,,,,,,,,,,,,,,,,
63c1d184883ce15537788b40,TCN,2024-06-24_16h36.11.074,LearnStrategy,2023.2.3,Win32,60.60606061,1,1,1,0.07685188,-0.001851859,1,0,0,4.4742,rock_grid_rect_2,5,06,-1,-1,4.474,-0.312962956,-0.382407436,1,0,0,3.2368,Obsidian_rect,5,3.237,1,0,0,0,0,1,,,,,,,,,,,,,
63c1d184883ce15537788b40,TCN,2024-06-24_16h36.11.074,LearnStrategy,2023.2.3,Win32,60.60606061,1,1,2,0.080555598,0.011111118,1,0,0,2.0963,rock_grid_rect_2,7,13,-1,-1,2.096,0.098148134,-0.411111125,1,0,0,5.5406,Peridotite_rect,7,5.541,1,1,0,1,0,1,,,,,,,,,,,,,
63c1d184883ce15537788b40,TCN,2024-06-24_16h36.11.074,LearnStrategy,2023.2.3,Win32,60.60606061,1,1,3,-0.000925912,-0.010185206,1,0,0,1.7535,rock_grid_rect_2,4,10,-1,-1,1.753,-0.353703711,-0.243518547,1,0,0,5.9604,Andesite_rect,1,5.96,0,2,0,2,0,1,,,,,,,,,,,,,
63c1d184883ce15537788b40,TCN,2024-06-24_16h36.11.074,LearnStrategy,2023.2.3,Win32,60.60606061,1,1,4,0.092592593,0.003703683,1,0,0,1.9231,rock_grid_rect_2,1,11,-1,-1,1.923,-0.372222229,-0.242592635,1,0,0,2.6317,Andesite_rect,1,2.632,1,3,0,3,0,1,,,,,,,,,,,,,
63c1d184883ce15537788b40,TCN,2024-06-24_16h36.11.074,LearnStrategy,2023.2.3,Win32,60.60606061,1,1,5,0.029629672,-0.003703718,1,0,0,1.8872,rock_grid_rect_2,7,07,-1,-1,1.887,-0.07222218,-0.262962977,1,0,0,3.0998,Basalt_rect,2,3.1,0,4,0,4,0,1,,,,,,,,,,,,,
63c1d184883ce15537788b40,TCN,2024-06-24_16h36.11.074,LearnStrategy,2023.2.3,Win32,60.60606061,1,1,6,0.109259288,-0.003703718,1,0,0,1.5549,rock_grid_rect_2,8,16,-1,-1,1.555,-0.054629644,-0.393518519,1,0,0,6.2669,Pegmatite_rect,6,6.267,0,5,0,5,0,1,,,,,,,,,,,,,
63c1d184883ce15537788b40,TCN,2024-06-24_16h36.11.074,LearnStrategy,2023.2.3,Win32,60.60606061,1,1,7,0.037962949,0.000925912,1,0,0,6.7225,rock_grid_rect_2,2,16,-1,-1,6.723,0.425000085,-0.389814801,1,0,0,3.6537,Pumice_rect,8,3.654,0,6,0,6,0,1,,,,,,,,,,,,,
63c1d184883ce15537788b40,TCN,2024-06-24_16h36.11.074,LearnStrategy,2023.2.3,Win32,60.60606061,1,1,8,0.025000042,0.005555541,1,0,0,2.0463,rock_grid_rect_2,4,09,-1,-1,2.046,-0.10092594,-0.40370369,1,0,0,5.176,Pegmatite_rect,6,5.176,0,7,0,7,0,1,,,,,,,,,,,,,
63c1d184883ce15537788b40,TCN,2024-06-24_16h36.11.074,LearnStrategy,2023.2.3,Win32,60.60606061,1,1,9,0.030555584,-0.009259259,1,0,0,2.2168,rock_grid_rect_2,6,13,-1,-1,2.217,-0.388888889,-0.243518547,1,0,0,4.3597,Andesite_rect,1,4.36,0,8,0,8,0,1,,,,,,,,,,,,,
63c1d184883ce15537788b40,TCN,2024-06-24_16h36.11.074,LearnStrategy,2023.2.3,Win32,60.60606061,1,1,10,0.012962977,0.002777771,1,0,0,13.2276,rock_grid_rect_2,6,03,-1,-1,13.228,0.110185199,-0.261111153,1,0,0,3.1962,Diorite_rect,3,3.196,0,9,0,9,0,1,,,,,,,,,,,,,
63c1d184883ce15537788b40,TCN,2024-06-24_16h36.11.074,LearnStrategy,2023.2.3,Win32,60.60606061,1,1,11,0.013888889,-0.023148148,1,0,0,1.8315,rock_grid_rect_2,5,05,-1,-1,1.832,0.07222225,-0.240740741,1,0,0,1.8098,Diorite_rect,3,1.81,0,10,0,10,0,1,,,,,,,,,,,,,
63c1d184883ce15537788b40,TCN,2024-06-24_16h36.11.074,LearnStrategy,2023.2.3,Win32,60.60606061,1,1,12,0.023148148,-0.015740748,1,0,0,1.3884,rock_grid_rect_2,8,08,-1,-1,1.388,0.340740769,-0.405555584,1,0,0,2.4861,Pumice_rect,8,2.486,1,11,0,11,0,1,,,,,,,,,,,,,
63c1d184883ce15537788b40,TCN,2024-06-24_16h36.11.074,LearnStrategy,2023.2.3,Win32,60.60606061,1,1,13,0.010185171,-0.010185206,1,0,0,1.4506,rock_grid_rect_2,3,08,-1,-1,1.451,0.125,-0.25,1,0,0,4.6626,Diorite_rect,3,4.663,1,12,0,12,0,1,,,,,,,,,,,,,
63c1d184883ce15537788b40,TCN,2024-06-24_16h36.11.074,LearnStrategy,2023.2.3,Win32,60.60606061,1,1,14,0.061111097,0.000925912,1,0,0,1.537,rock_grid_rect_2,3,02,-1,-1,1.537,0.158333319,-0.262037065,1,0,0,2.9505,Diorite_rect,3,2.95,1,13,0,13,0,1,,,,,,,,,,,,,
63c1d184883ce15537788b40,TCN,2024-06-24_16h36.11.074,LearnStrategy,2023.2.3,Win32,60.60606061,1,1,15,0.092592593,0.003703683,1,0,0,5.665,rock_grid_rect_2,1,04,-1,-1,5.665,-0.121296282,-0.238888917,1,0,0,3.3349,Basalt_rect,2,3.335,0,14,0,14,0,1,,,,,,,,,,,,,
63c1d184883ce15537788b40,TCN,2024-06-24_16h36.11.074,LearnStrategy,2023.2.3,Win32,60.60606061,1,1,16,0.033333319,-0.019444466,1,0,0,1.4871,rock_grid_rect_2,2,10,-1,-1,1.487,-0.064814815,-0.25462963,1,0,0,6.2212,Basalt_rect,2,6.221,1,15,0,15,0,1,,,,,,,,,,,,,
63c1d184883ce15537788b40,TCN,2024-06-24_16h36.11.074,LearnStrategy,2023.2.3,Win32,60.60606061,1,2,1,,,,,,,,6,05,,,,,,,,,,,3,2.553,0,,,,,,0.104629658,-0.234259288,1,0,0,2.5532,Diorite_rect,0,0,0,0,1,
63c1d184883ce15537788b40,TCN,2024-06-24_16h36.11.074,LearnStrategy,2023.2.3,Win32,60.60606061,1,2,2,,,,,,,,4,16,,,,,,,,,,,2,5.706,0,,,,,,-0.090740698,-0.257407436,1,0,0,5.7064,Basalt_rect,1,0,1,0,1,
63c1d184883ce15537788b40,TCN,2024-06-24_16h36.11.074,LearnStrategy,2023.2.3,Win32,60.60606061,1,2,3,,,,,,,,2,01,,,,,,,,,,,3,6.717,0,,,,,,0.175925926,-0.24537037,1,0,0,6.7175,Diorite_rect,2,0,2,0,1,
63c1d184883ce15537788b40,TCN,2024-06-24_16h36.11.074,LearnStrategy,2023.2.3,Win32,60.60606061,1,2,4,,,,,,,,4,03,,,,,,,,,,,3,9.797,0,,,,,,0.137037065,-0.229629658,1,0,0,9.7967,Diorite_rect,3,0,3,0,1,
63c1d184883ce15537788b40,TCN,2024-06-24_16h36.11.074,LearnStrategy,2023.2.3,Win32,60.60606061,1,2,5,,,,,,,,2,08,,,,,,,,,,,6,6.354,0,,,,,,-0.112037023,-0.397222236,1,0,0,6.3544,Pegmatite_rect,4,0,4,0,1,
63c1d184883ce15537788b40,TCN,2024-06-24_16h36.11.074,LearnStrategy,2023.2.3,Win32,60.60606061,1,2,6,,,,,,,,6,16,,,,,,,,,,,3,3,0,,,,,,0.093518504,-0.260185171,1,0,0,3.0001,Diorite_rect,5,0,5,0,1,
63c1d184883ce15537788b40,TCN,2024-06-24_16h36.11.074,LearnStrategy,2023.2.3,Win32,60.60606061,1,2,7,,,,,,,,1,10,,,,,,,,,,,8,2.236,0,,,,,,0.428703732,-0.405555584,1,0,0,2.2357,Pumice_rect,6,0,6,0,1,
63c1d184883ce15537788b40,TCN,2024-06-24_16h36.11.074,LearnStrategy,2023.2.3,Win32,60.60606061,1,2,8,,,,,,,,8,06,,,,,,,,,,,8,1.883,1,,,,,,0.410185213,-0.410185213,1,0,0,1.8832,Pumice_rect,7,0,7,0,1,
63c1d184883ce15537788b40,TCN,2024-06-24_16h36.11.074,LearnStrategy,2023.2.3,Win32,60.60606061,1,2,9,,,,,,,,5,14,,,,,,,,,,,5,1.816,1,,,,,,-0.3824074,-0.387037065,1,0,0,1.816,Obsidian_rect,8,0,8,0,1,
63c1d184883ce15537788b40,TCN,2024-06-24_16h36.11.074,LearnStrategy,2023.2.3,Win32,60.60606061,1,2,10,,,,,,,,3,06,,,,,,,,,,,3,4.428,1,,,,,,0.169444473,-0.247222265,1,0,0,4.4285,Diorite_rect,9,0,9,0,1,
63c1d184883ce15537788b40,TCN,2024-06-24_16h36.11.074,LearnStrategy,2023.2.3,Win32,60.60606061,1,2,11,,,,,,,,8,02,,,,,,,,,,,8,1.52,1,,,,,,0.37037037,-0.400925954,1,0,0,1.5201,Pumice_rect,10,0,10,0,1,
63c1d184883ce15537788b40,TCN,2024-06-24_16h36.11.074,LearnStrategy,2023.2.3,Win32,60.60606061,1,2,12,,,,,,,,7,12,,,,,,,,,,,7,1.686,1,,,,,,0.160185213,-0.392592607,1,0,0,1.6863,Peridotite_rect,11,0,11,0,1,
63c1d184883ce15537788b40,TCN,2024-06-24_16h36.11.074,LearnStrategy,2023.2.3,Win32,60.60606061,1,2,13,,,,,,,,3,13,,,,,,,,,,,3,4.192,1,,,,,,0.127777806,-0.250925912,1,0,0,4.1924,Diorite_rect,12,0,12,0,1,
63c1d184883ce15537788b40,TCN,2024-06-24_16h36.11.074,LearnStrategy,2023.2.3,Win32,60.60606061,1,2,14,,,,,,,,5,08,,,,,,,,,,,5,1.74,1,,,,,,-0.359259252,-0.400925954,1,0,0,1.7396,Obsidian_rect,13,0,13,0,1,
63c1d184883ce15537788b40,TCN,2024-06-24_16h36.11.074,LearnStrategy,2023.2.3,Win32,60.60606061,1,2,15,,,,,,,,7,04,,,,,,,,,,,4,3.671,0,,,,,,0.450925898,-0.256481524,1,0,0,3.6712,Gabbro_rect,14,0,14,0,1,
63c1d184883ce15537788b40,TCN,2024-06-24_16h36.11.074,LearnStrategy,2023.2.3,Win32,60.60606061,1,2,16,,,,,,,,1,07,,,,,,,,,,,3,6.566,0,,,,,,0.043518561,-0.239814829,1,0,0,6.5662,Diorite_rect,15,0,15,0,1,
63c1d184883ce15537788b40,TCN,2024-06-24_16h36.11.074,LearnStrategy,2023.2.3,Win32,60.60606061,2,1,1,-0.012036995,-0.00462963,1,0,0,2.9774,rock_grid_rect_2,3,12,-1,-1,2.977,0.137037065,-0.246296282,1,0,0,3.0635,Diorite_rect,3,3.064,1,0,0,0,0,1,,,,,,,,,,,,,
63c1d184883ce15537788b40,TCN,2024-06-24_16h36.11.074,LearnStrategy,2023.2.3,Win32,60.60606061,2,1,2,0.078703704,0.003703683,1,0,0,1.9525,rock_grid_rect_2,7,02,-1,-1,1.953,0.123148176,-0.40370369,1,0,0,1.56,Peridotite_rect,7,1.56,1,1,0,1,0,1,,,,,,,,,,,,,
63c1d184883ce15537788b40,TCN,2024-06-24_16h36.11.074,LearnStrategy,2023.2.3,Win32,60.60606061,2,1,3,-0.003703718,-0.014814836,1,0,0,1.2276,rock_grid_rect_2,4,12,-1,-1,1.228,-0.137962977,-0.250925912,1,0,0,2.3057,Basalt_rect,2,2.306,0,2,0,2,0,1,,,,,,,,,,,,,
63c1d184883ce15537788b40,TCN,2024-06-24_16h36.11.074,LearnStrategy,2023.2.3,Win32,60.60606061,2,1,4,0.113888917,-0.005555577,1,0,0,1.6379,rock_grid_rect_2,6,10,-1,-1,1.638,0.172222208,-0.400000042,1,0,0,1.6909,Peridotite_rect,7,1.691,0,3,0,3,0,1,,,,,,,,,,,,,
63c1d184883ce15537788b40,TCN,2024-06-24_16h36.11.074,LearnStrategy,2023.2.3,Win32,60.60606061,2,1,5,0.050925926,0.002777771,1,0,0,1.9845,rock_grid_rect_2,5,12,-1,-1,1.984,-0.435185185,-0.391666695,1,0,0,1.508,Obsidian_rect,5,1.508,1,4,0,4,0,1,,,,,,,,,,,,,
63c1d184883ce15537788b40,TCN,2024-06-24_16h36.11.074,LearnStrategy,2023.2.3,Win32,60.60606061,2,1,6,0.062962991,0.010185171,1,0,0,1.222,rock_grid_rect_2,2,02,-1,-1,1.222,0.376851824,-0.241666653,1,0,0,1.7445,Gabbro_rect,4,1.745,0,5,0,5,0,1,,,,,,,,,,,,,
63c1d184883ce15537788b40,TCN,2024-06-24_16h36.11.074,LearnStrategy,2023.2.3,Win32,60.60606061,2,1,7,-0.020370342,-0.003703718,1,0,0,38.0862,rock_grid_rect_2,3,14,-1,-1,38.086,0.152777778,-0.243518547,1,0,0,1.6009,Diorite_rect,3,1.601,1,6,0,6,0,1,,,,,,,,,,,,,
63c1d184883ce15537788b40,TCN,2024-06-24_16h36.11.074,LearnStrategy,2023.2.3,Win32,60.60606061,2,1,8,-0.008333347,0.012962942,1,0,0,1.4037,rock_grid_rect_2,1,02,-1,-1,1.404,-0.351851852,-0.237963005,1,0,0,2.655,Andesite_rect,1,2.655,1,7,0,7,0,1,,,,,,,,,,,,,
63c1d184883ce15537788b40,TCN,2024-06-24_16h36.11.074,LearnStrategy,2023.2.3,Win32,60.60606061,2,1,9,0.060185185,0.01203703,1,0,0,2.0368,rock_grid_rect_2,8,05,-1,-1,2.037,0.391666695,-0.391666695,1,0,0,2.5787,Pumice_rect,8,2.579,1,8,0,8,0,1,,,,,,,,,,,,,
63c1d184883ce15537788b40,TCN,2024-06-24_16h36.11.074,LearnStrategy,2023.2.3,Win32,60.60606061,2,1,10,-0.033333319,0.003703683,1,0,0,1.2044,rock_grid_rect_2,1,06,-1,-1,1.204,-0.206481439,-0.250925912,1,0,0,3.1105,Basalt_rect,2,3.111,0,9,0,9,0,1,,,,,,,,,,,,,
63c1d184883ce15537788b40,TCN,2024-06-24_16h36.11.074,LearnStrategy,2023.2.3,Win32,60.60606061,2,1,11,0.042592578,0.003703683,1,0,0,6.6492,rock_grid_rect_2,2,11,-1,-1,6.649,0.380555612,-0.400925954,1,0,0,5.3465,Pumice_rect,8,5.347,0,10,0,10,0,1,,,,,,,,,,,,,
63c1d184883ce15537788b40,TCN,2024-06-24_16h36.11.074,LearnStrategy,2023.2.3,Win32,60.60606061,2,1,12,0.080555598,-0.000925947,1,0,0,1.6722,rock_grid_rect_2,6,11,-1,-1,1.672,-0.355555534,-0.39907406,1,0,0,3.2715,Obsidian_rect,5,3.272,0,11,0,11,0,1,,,,,,,,,,,,,
63c1d184883ce15537788b40,TCN,2024-06-24_16h36.11.074,LearnStrategy,2023.2.3,Win32,60.60606061,2,1,13,0.056481467,-0.008333347,1,0,0,1.784,rock_grid_rect_2,4,08,-1,-1,1.784,0.317592621,-0.243518547,1,0,0,4.613,Gabbro_rect,4,4.613,1,12,0,12,0,1,,,,,,,,,,,,,
63c1d184883ce15537788b40,TCN,2024-06-24_16h36.11.074,LearnStrategy,2023.2.3,Win32,60.60606061,2,1,14,0.039814843,0.000925912,1,0,0,1.9177,rock_grid_rect_2,5,04,-1,-1,1.918,-0.398148148,-0.408333319,1,0,0,1.3814,Obsidian_rect,5,1.381,1,13,0,13,0,1,,,,,,,,,,,,,
63c1d184883ce15537788b40,TCN,2024-06-24_16h36.11.074,LearnStrategy,2023.2.3,Win32,60.60606061,2,1,15,0.05740745,-0.0074074,1,0,0,1.7226,rock_grid_rect_2,7,06,-1,-1,1.723,0.122222265,-0.395370413,1,0,0,1.8073,Peridotite_rect,7,1.807,1,14,0,14,0,1,,,,,,,,,,,,,
63c1d184883ce15537788b40,TCN,2024-06-24_16h36.11.074,LearnStrategy,2023.2.3,Win32,60.60606061,2,1,16,0.060185185,-0.003703718,1,0,0,1.7387,rock_grid_rect_2,8,13,-1,-1,1.739,0.319444444,-0.397222236,1,0,0,1.9045,Pumice_rect,8,1.905,1,15,0,15,0,1,,,,,,,,,,,,,
63c1d184883ce15537788b40,TCN,2024-06-24_16h36.11.074,LearnStrategy,2023.2.3,Win32,60.60606061,2,2,1,,,,,,,,4,15,,,,,,,,,,,6,6.613,0,,,,,,-0.111111111,-0.39907406,1,0,0,6.6131,Pegmatite_rect,0,0,0,0,1,
63c1d184883ce15537788b40,TCN,2024-06-24_16h36.11.074,LearnStrategy,2023.2.3,Win32,60.60606061,2,2,2,,,,,,,,4,13,,,,,,,,,,,6,4.294,0,,,,,,-0.15370369,-0.408333319,1,0,0,4.2938,Pegmatite_rect,1,0,1,0,1,
63c1d184883ce15537788b40,TCN,2024-06-24_16h36.11.074,LearnStrategy,2023.2.3,Win32,60.60606061,2,2,3,,,,,,,,1,14,,,,,,,,,,,1,2.615,1,,,,,,-0.409259266,-0.240740741,1,0,0,2.6149,Andesite_rect,2,0,2,0,1,
63c1d184883ce15537788b40,TCN,2024-06-24_16h36.11.074,LearnStrategy,2023.2.3,Win32,60.60606061,2,2,4,,,,,,,,3,10,,,,,,,,,,,2,1.68,0,,,,,,-0.111111111,-0.260185171,1,0,0,1.6796,Basalt_rect,3,0,3,0,1,
63c1d184883ce15537788b40,TCN,2024-06-24_16h36.11.074,LearnStrategy,2023.2.3,Win32,60.60606061,2,2,5,,,,,,,,3,15,,,,,,,,,,,2,5.017,0,,,,,,-0.082407422,-0.247222265,1,0,0,5.0172,Basalt_rect,4,0,4,0,1,
63c1d184883ce15537788b40,TCN,2024-06-24_16h36.11.074,LearnStrategy,2023.2.3,Win32,60.60606061,2,2,6,,,,,,,,7,10,,,,,,,,,,,7,1.926,1,,,,,,0.184259273,-0.388888889,1,0,0,1.9262,Peridotite_rect,5,0,5,0,1,
63c1d184883ce15537788b40,TCN,2024-06-24_16h36.11.074,LearnStrategy,2023.2.3,Win32,60.60606061,2,2,7,,,,,,,,6,09,,,,,,,,,,,6,4.597,1,,,,,,-0.087037051,-0.39444443,1,0,0,4.5966,Pegmatite_rect,6,0,6,0,1,
63c1d184883ce15537788b40,TCN,2024-06-24_16h36.11.074,LearnStrategy,2023.2.3,Win32,60.60606061,2,2,8,,,,,,,,5,07,,,,,,,,,,,5,1.287,1,,,,,,-0.393518519,-0.39907406,1,0,0,1.2865,Obsidian_rect,7,0,7,0,1,
63c1d184883ce15537788b40,TCN,2024-06-24_16h36.11.074,LearnStrategy,2023.2.3,Win32,60.60606061,2,2,9,,,,,,,,8,09,,,,,,,,,,,8,1.521,1,,,,,,0.353703675,-0.390740783,1,0,0,1.521,Pumice_rect,8,0,8,0,1,
63c1d184883ce15537788b40,TCN,2024-06-24_16h36.11.074,LearnStrategy,2023.2.3,Win32,60.60606061,2,2,10,,,,,,,,5,09,,,,,,,,,,,5,1.31,1,,,,,,-0.346296275,-0.39907406,1,0,0,1.3096,Obsidian_rect,9,0,9,0,1,
63c1d184883ce15537788b40,TCN,2024-06-24_16h36.11.074,LearnStrategy,2023.2.3,Win32,60.60606061,2,2,11,,,,,,,,6,12,,,,,,,,,,,3,2.104,0,,,,,,0.143518519,-0.253703718,1,0,0,2.1044,Diorite_rect,10,0,10,0,1,
63c1d184883ce15537788b40,TCN,2024-06-24_16h36.11.074,LearnStrategy,2023.2.3,Win32,60.60606061,2,2,12,,,,,,,,2,05,,,,,,,,,,,4,3.787,0,,,,,,0.361111111,-0.252777806,1,0,0,3.7871,Gabbro_rect,11,0,11,0,1,
63c1d184883ce15537788b40,TCN,2024-06-24_16h36.11.074,LearnStrategy,2023.2.3,Win32,60.60606061,2,2,13,,,,,,,,7,05,,,,,,,,,,,7,1.726,1,,,,,,0.14907406,-0.411111125,1,0,0,1.7265,Peridotite_rect,12,0,12,0,1,
63c1d184883ce15537788b40,TCN,2024-06-24_16h36.11.074,LearnStrategy,2023.2.3,Win32,60.60606061,2,2,14,,,,,,,,8,04,,,,,,,,,,,8,1.337,1,,,,,,0.356481481,-0.40370369,1,0,0,1.3368,Pumice_rect,13,0,13,0,1,
63c1d184883ce15537788b40,TCN,2024-06-24_16h36.11.074,LearnStrategy,2023.2.3,Win32,60.60606061,2,2,15,,,,,,,,1,05,,,,,,,,,,,1,3.416,1,,,,,,-0.356481481,-0.236111111,1,0,0,3.4161,Andesite_rect,14,0,14,0,1,
63c1d184883ce15537788b40,TCN,2024-06-24_16h36.11.074,LearnStrategy,2023.2.3,Win32,60.60606061,2,2,16,,,,,,,,2,06,,,,,,,,,,,4,1.871,0,,,,,,0.400925954,-0.243518547,1,0,0,1.8714,Gabbro_rect,15,0,15,0,1,
63c1d184883ce15537788b40,TCN,2024-06-24_16h36.11.074,LearnStrategy,2023.2.3,Win32,60.60606061,3,1,1,0.014814801,0.005555541,1,0,0,1.3612,rock_grid_rect_2,8,03,-1,-1,1.361,0.412037037,-0.381481524,1,0,0,1.4692,Pumice_rect,8,1.469,1,0,0,0,0,1,,,,,,,,,,,,,
63c1d184883ce15537788b40,TCN,2024-06-24_16h36.11.074,LearnStrategy,2023.2.3,Win32,60.60606061,3,1,2,0.000925912,0.00462963,1,0,0,1.3578,rock_grid_rect_2,7,14,-1,-1,1.358,0.138888889,-0.40370369,1,0,0,1.5079,Peridotite_rect,7,1.508,1,1,0,1,0,1,,,,,,,,,,,,,
63c1d184883ce15537788b40,TCN,2024-06-24_16h36.11.074,LearnStrategy,2023.2.3,Win32,60.60606061,3,1,3,0.017592607,0.012962942,1,0,0,1.291,rock_grid_rect_2,3,09,-1,-1,1.291,0.083333333,-0.24537037,1,0,0,2.894,Diorite_rect,3,2.894,1,2,0,2,0,1,,,,,,,,,,,,,
63c1d184883ce15537788b40,TCN,2024-06-24_16h36.11.074,LearnStrategy,2023.2.3,Win32,60.60606061,3,1,4,0.022222236,-0.0074074,1,0,0,1.8371,rock_grid_rect_2,7,08,-1,-1,1.837,0.171296296,-0.396296325,1,0,0,1.26,Peridotite_rect,7,1.26,1,3,0,3,0,1,,,,,,,,,,,,,
63c1d184883ce15537788b40,TCN,2024-06-24_16h36.11.074,LearnStrategy,2023.2.3,Win32,60.60606061,3,1,5,0.02407406,-0.011111118,1,0,0,1.2598,rock_grid_rect_2,4,11,-1,-1,1.26,0.413888861,-0.262037065,1,0,0,1.7204,Gabbro_rect,4,1.72,1,4,0,4,0,1,,,,,,,,,,,,,
63c1d184883ce15537788b40,TCN,2024-06-24_16h36.11.074,LearnStrategy,2023.2.3,Win32,60.60606061,3,1,6,0.037962949,0.008333312,1,0,0,1.4288,rock_grid_rect_2,1,03,-1,-1,1.429,-0.456481474,-0.256481524,1,0,0,1.9906,Andesite_rect,1,1.991,1,5,0,5,0,1,,,,,,,,,,,,,
63c1d184883ce15537788b40,TCN,2024-06-24_16h36.11.074,LearnStrategy,2023.2.3,Win32,60.60606061,3,1,7,0.112963005,-0.00462963,1,0,0,1.4681,rock_grid_rect_2,4,14,-1,-1,1.468,-0.084259245,-0.406481496,1,0,0,3.4695,Pegmatite_rect,6,3.469,0,6,0,6,0,1,,,,,,,,,,,,,
63c1d184883ce15537788b40,TCN,2024-06-24_16h36.11.074,LearnStrategy,2023.2.3,Win32,60.60606061,3,1,8,0.111111111,0.002777771,1,0,0,1.4987,rock_grid_rect_2,2,09,-1,-1,1.499,0.3648149,-0.232407393,1,0,0,1.7688,Gabbro_rect,4,1.769,0,7,0,7,0,1,,,,,,,,,,,,,
63c1d184883ce15537788b40,TCN,2024-06-24_16h36.11.074,LearnStrategy,2023.2.3,Win32,60.60606061,3,1,9,-0.01944443,0.002777771,1,0,0,1.3797,rock_grid_rect_2,1,09,-1,-1,1.38,-0.384259259,-0.232407393,1,0,0,2.2387,Andesite_rect,1,2.239,1,8,0,8,0,1,,,,,,,,,,,,,
63c1d184883ce15537788b40,TCN,2024-06-24_16h36.11.074,LearnStrategy,2023.2.3,Win32,60.60606061,3,1,10,-0.016666624,-0.009259259,1,0,0,1.8067,rock_grid_rect_2,5,11,-1,-1,1.807,-0.332407386,-0.386111153,1,0,0,1.2431,Obsidian_rect,5,1.243,1,9,0,9,0,1,,,,,,,,,,,,,
63c1d184883ce15537788b40,TCN,2024-06-24_16h36.11.074,LearnStrategy,2023.2.3,Win32,60.60606061,3,1,11,-0.063888903,0.00462963,1,0,0,1.273,rock_grid_rect_2,6,06,-1,-1,1.273,-0.06759255,-0.406481496,1,0,0,3.5955,Pegmatite_rect,6,3.596,1,10,0,10,0,1,,,,,,,,,,,,,
63c1d184883ce15537788b40,TCN,2024-06-24_16h36.11.074,LearnStrategy,2023.2.3,Win32,60.60606061,3,1,12,0.064814815,-0.013888889,1,0,0,1.8383,rock_grid_rect_2,6,15,-1,-1,1.838,-0.14444443,-0.398148148,1,0,0,1.7722,Pegmatite_rect,6,1.772,1,11,0,11,0,1,,,,,,,,,,,,,
63c1d184883ce15537788b40,TCN,2024-06-24_16h36.11.074,LearnStrategy,2023.2.3,Win32,60.60606061,3,1,13,0.012037065,-0.005555577,1,0,0,5.6622,rock_grid_rect_2,2,04,-1,-1,5.662,0.413888861,-0.247222265,1,0,0,2.0453,Gabbro_rect,4,2.045,0,12,0,12,0,1,,,,,,,,,,,,,
63c1d184883ce15537788b40,TCN,2024-06-24_16h36.11.074,LearnStrategy,2023.2.3,Win32,60.60606061,3,1,14,0.084259245,0.003703683,1,0,0,1.6583,rock_grid_rect_2,8,10,-1,-1,1.658,0.369444529,-0.393518519,1,0,0,1.4488,Pumice_rect,8,1.449,1,13,0,13,0,1,,,,,,,,,,,,,
63c1d184883ce15537788b40,TCN,2024-06-24_16h36.11.074,LearnStrategy,2023.2.3,Win32,60.60606061,3,1,15,0.066666709,-0.009259259,1,0,0,2.3858,rock_grid_rect_2,5,02,-1,-1,2.386,-0.435185185,-0.407407407,1,0,0,1.3746,Obsidian_rect,5,1.375,1,14,0,14,0,1,,,,,,,,,,,,,
63c1d184883ce15537788b40,TCN,2024-06-24_16h36.11.074,LearnStrategy,2023.2.3,Win32,60.60606061,3,1,16,0.075925968,0.011111118,1,0,0,1.3056,rock_grid_rect_2,3,11,-1,-1,1.306,0.135185171,-0.383333347,1,0,0,1.9753,Peridotite_rect,7,1.975,0,15,0,15,0,1,,,,,,,,,,,,,
63c1d184883ce15537788b40,TCN,2024-06-24_16h36.11.074,LearnStrategy,2023.2.3,Win32,60.60606061,3,2,1,,,,,,,,3,07,,,,,,,,,,,1,2.237,0,,,,,,-0.350925905,-0.24537037,1,0,0,2.2371,Andesite_rect,0,0,0,0,1,
63c1d184883ce15537788b40,TCN,2024-06-24_16h36.11.074,LearnStrategy,2023.2.3,Win32,60.60606061,3,2,2,,,,,,,,4,01,,,,,,,,,,,7,2.281,0,,,,,,0.166666667,-0.398148148,1,0,0,2.2812,Peridotite_rect,1,0,1,0,1,
63c1d184883ce15537788b40,TCN,2024-06-24_16h36.11.074,LearnStrategy,2023.2.3,Win32,60.60606061,3,2,3,,,,,,,,2,14,,,,,,,,,,,8,1.325,0,,,,,,0.383333418,-0.384259259,1,0,0,1.3248,Pumice_rect,2,0,2,0,1,
63c1d184883ce15537788b40,TCN,2024-06-24_16h36.11.074,LearnStrategy,2023.2.3,Win32,60.60606061,3,2,4,,,,,,,,8,14,,,,,,,,,,,8,1.235,1,,,,,,0.356481481,-0.398148148,1,0,0,1.2351,Pumice_rect,3,0,3,0,1,
63c1d184883ce15537788b40,TCN,2024-06-24_16h36.11.074,LearnStrategy,2023.2.3,Win32,60.60606061,3,2,5,,,,,,,,1,16,,,,,,,,,,,1,3.972,1,,,,,,-0.337037016,-0.234259288,1,0,0,3.9721,Andesite_rect,4,0,4,0,1,
63c1d184883ce15537788b40,TCN,2024-06-24_16h36.11.074,LearnStrategy,2023.2.3,Win32,60.60606061,3,2,6,,,,,,,,5,10,,,,,,,,,,,5,1.326,1,,,,,,-0.409259266,-0.407407407,1,0,0,1.3264,Obsidian_rect,5,0,5,0,1,
63c1d184883ce15537788b40,TCN,2024-06-24_16h36.11.074,LearnStrategy,2023.2.3,Win32,60.60606061,3,2,7,,,,,,,,7,15,,,,,,,,,,,7,1.662,1,,,,,,0.170370384,-0.387037065,1,0,0,1.6621,Peridotite_rect,6,0,6,0,1,
63c1d184883ce15537788b40,TCN,2024-06-24_16h36.11.074,LearnStrategy,2023.2.3,Win32,60.60606061,3,2,8,,,,,,,,4,05,,,,,,,,,,,4,8.222,1,,,,,,0.373148176,-0.25,1,0,0,8.2223,Gabbro_rect,7,0,7,0,1,
63c1d184883ce15537788b40,TCN,2024-06-24_16h36.11.074,LearnStrategy,2023.2.3,Win32,60.60606061,3,2,9,,,,,,,,7,16,,,,,,,,,,,7,1.79,1,,,,,,0.170370384,-0.39907406,1,0,0,1.7899,Peridotite_rect,8,0,8,0,1,
63c1d184883ce15537788b40,TCN,2024-06-24_16h36.11.074,LearnStrategy,2023.2.3,Win32,60.60606061,3,2,10,,,,,,,,8,15,,,,,,,,,,,8,1.514,1,,,,,,0.3648149,-0.384259259,1,0,0,1.5139,Pumice_rect,9,0,9,0,1,
63c1d184883ce15537788b40,TCN,2024-06-24_16h36.11.074,LearnStrategy,2023.2.3,Win32,60.60606061,3,2,11,,,,,,,,2,12,,,,,,,,,,,8,1.622,0,,,,,,0.388888889,-0.402777778,1,0,0,1.6216,Pumice_rect,10,0,10,0,1,
63c1d184883ce15537788b40,TCN,2024-06-24_16h36.11.074,LearnStrategy,2023.2.3,Win32,60.60606061,3,2,12,,,,,,,,6,07,,,,,,,,,,,6,1.724,1,,,,,,-0.089814787,-0.40370369,1,0,0,1.7241,Pegmatite_rect,11,0,11,0,1,
63c1d184883ce15537788b40,TCN,2024-06-24_16h36.11.074,LearnStrategy,2023.2.3,Win32,60.60606061,3,2,13,,,,,,,,1,01,,,,,,,,,,,3,3.294,0,,,,,,0.062037079,-0.266666695,1,0,0,3.2939,Diorite_rect,12,0,12,0,1,
63c1d184883ce15537788b40,TCN,2024-06-24_16h36.11.074,LearnStrategy,2023.2.3,Win32,60.60606061,3,2,14,,,,,,,,6,08,,,,,,,,,,,6,2.303,1,,,,,,-0.099999958,-0.406481496,1,0,0,2.3035,Pegmatite_rect,13,0,13,0,1,
63c1d184883ce15537788b40,TCN,2024-06-24_16h36.11.074,LearnStrategy,2023.2.3,Win32,60.60606061,3,2,15,,,,,,,,3,16,,,,,,,,,,,3,1.676,1,,,,,,0.112037023,-0.253703718,1,0,0,1.6755,Diorite_rect,14,0,14,0,1,
63c1d184883ce15537788b40,TCN,2024-06-24_16h36.11.074,LearnStrategy,2023.2.3,Win32,60.60606061,3,2,16,,,,,,,,5,16,,,,,,,,,,,5,3.221,1,,,,,,-0.353703711,-0.401851866,1,0,0,3.2209,Obsidian_rect,15,0,15,0,1,
63c1d184883ce15537788b40,TCN,2024-06-24_16h36.11.074,LearnStrategy,2023.2.3,Win32,60.60606061,4,1,1,0.106481481,0,1,0,0,1.9896,rock_grid_rect_2,8,10,-1,-1,1.99,0.362037094,-0.382407436,1,0,0,1.2257,Pumice_rect,8,1.226,1,0,0,0,0,1,,,,,,,,,,,,,
63c1d184883ce15537788b40,TCN,2024-06-24_16h36.11.074,LearnStrategy,2023.2.3,Win32,60.60606061,4,1,2,0.040740755,0,1,0,0,1.6127,rock_grid_rect_2,1,09,-1,-1,1.613,-0.331481474,-0.247222265,1,0,0,3.4379,Andesite_rect,1,3.438,1,1,0,1,0,1,,,,,,,,,,,,,
63c1d184883ce15537788b40,TCN,2024-06-24_16h36.11.074,LearnStrategy,2023.2.3,Win32,60.60606061,4,1,3,0.085185228,0.012962942,1,0,0,1.3782,rock_grid_rect_2,3,14,-1,-1,1.378,0.174074102,-0.246296282,1,0,0,1.8661,Diorite_rect,3,1.866,1,2,0,2,0,1,,,,,,,,,,,,,
63c1d184883ce15537788b40,TCN,2024-06-24_16h36.11.074,LearnStrategy,2023.2.3,Win32,60.60606061,4,1,4,0.023148148,-0.001851859,1,0,0,1.5555,rock_grid_rect_2,1,03,-1,-1,1.555,-0.373148141,-0.235185199,1,0,0,1.5251,Andesite_rect,1,1.525,1,3,0,3,0,1,,,,,,,,,,,,,
63c1d184883ce15537788b40,TCN,2024-06-24_16h36.11.074,LearnStrategy,2023.2.3,Win32,60.60606061,4,1,5,0.091666681,-0.0074074,1,0,0,7.267,rock_grid_rect_2,5,12,-1,-1,7.267,-0.371296282,-0.395370413,1,0,0,1.3934,Obsidian_rect,5,1.393,1,4,0,4,0,1,,,,,,,,,,,,,
63c1d184883ce15537788b40,TCN,2024-06-24_16h36.11.074,LearnStrategy,2023.2.3,Win32,60.60606061,4,1,6,0.082407422,0.000925912,1,0,0,1.714,rock_grid_rect_2,6,11,-1,-1,1.714,-0.145370342,-0.39444443,1,0,0,1.9908,Pegmatite_rect,6,1.991,1,5,0,5,0,1,,,,,,,,,,,,,
63c1d184883ce15537788b40,TCN,2024-06-24_16h36.11.074,LearnStrategy,2023.2.3,Win32,60.60606061,4,1,7,0.117592635,-0.019444466,1,0,0,1.3176,rock_grid_rect_2,3,11,-1,-1,1.318,0.14444443,-0.25,1,0,0,3.5484,Diorite_rect,3,3.548,1,6,0,6,0,1,,,,,,,,,,,,,
63c1d184883ce15537788b40,TCN,2024-06-24_16h36.11.074,LearnStrategy,2023.2.3,Win32,60.60606061,4,1,8,0.036111125,-0.015740748,1,0,0,1.4462,rock_grid_rect_2,6,15,-1,-1,1.446,-0.135185171,-0.419444473,1,0,0,1.3895,Pegmatite_rect,6,1.389,1,7,0,7,0,1,,,,,,,,,,,,,
63c1d184883ce15537788b40,TCN,2024-06-24_16h36.11.074,LearnStrategy,2023.2.3,Win32,60.60606061,4,1,9,0.038888931,-0.006481489,1,0,0,1.5055,rock_grid_rect_2,4,09,-1,-1,1.505,0.387963048,-0.235185199,1,0,0,2.6392,Gabbro_rect,4,2.639,1,8,0,8,0,1,,,,,,,,,,,,,
63c1d184883ce15537788b40,TCN,2024-06-24_16h36.11.074,LearnStrategy,2023.2.3,Win32,60.60606061,4,1,10,0.056481467,0.002777771,1,0,0,1.9203,rock_grid_rect_2,5,11,-1,-1,1.92,-0.328703704,-0.388888889,1,0,0,1.8063,Obsidian_rect,5,1.806,1,9,0,9,0,1,,,,,,,,,,,,,
63c1d184883ce15537788b40,TCN,2024-06-24_16h36.11.074,LearnStrategy,2023.2.3,Win32,60.60606061,4,1,11,0.140740783,-0.003703718,1,0,0,3.9441,rock_grid_rect_2,7,08,-1,-1,3.944,0.147222236,-0.387962977,1,0,0,1.7935,Peridotite_rect,7,1.793,1,10,0,10,0,1,,,,,,,,,,,,,
63c1d184883ce15537788b40,TCN,2024-06-24_16h36.11.074,LearnStrategy,2023.2.3,Win32,60.60606061,4,1,12,0.031481496,0.00462963,1,0,0,1.6389,rock_grid_rect_2,8,05,-1,-1,1.639,0.425925926,-0.387962977,1,0,0,1.2977,Pumice_rect,8,1.298,1,11,0,11,0,1,,,,,,,,,,,,,
63c1d184883ce15537788b40,TCN,2024-06-24_16h36.11.074,LearnStrategy,2023.2.3,Win32,60.60606061,4,1,13,0.025000042,-0.008333347,1,0,0,1.9376,rock_grid_rect_2,7,02,-1,-1,1.938,0.112037023,-0.382407436,1,0,0,2.1882,Peridotite_rect,7,2.188,1,12,0,12,0,1,,,,,,,,,,,,,
63c1d184883ce15537788b40,TCN,2024-06-24_16h36.11.074,LearnStrategy,2023.2.3,Win32,60.60606061,4,1,14,-0.049074032,0,1,0,0,1.0641,rock_grid_rect_2,2,10,-1,-1,1.064,-0.084259245,-0.25,1,0,0,4.8838,Basalt_rect,2,4.884,1,13,0,13,0,1,,,,,,,,,,,,,
63c1d184883ce15537788b40,TCN,2024-06-24_16h36.11.074,LearnStrategy,2023.2.3,Win32,60.60606061,4,1,15,0.062037079,0.014814801,1,0,0,1.3519,rock_grid_rect_2,4,10,-1,-1,1.352,0.425000085,-0.24537037,1,0,0,1.8247,Gabbro_rect,4,1.825,1,14,0,14,0,1,,,,,,,,,,,,,
63c1d184883ce15537788b40,TCN,2024-06-24_16h36.11.074,LearnStrategy,2023.2.3,Win32,60.60606061,4,1,16,0.002777806,-0.020370377,1,0,0,1.3672,rock_grid_rect_2,2,16,-1,-1,1.367,0.352777834,-0.231481481,1,0,0,1.896,Gabbro_rect,4,1.896,0,15,0,15,0,1,,,,,,,,,,,,,
63c1d184883ce15537788b40,TCN,2024-06-24_16h36.11.074,LearnStrategy,2023.2.3,Win32,60.60606061,4,2,1,,,,,,,,1,14,,,,,,,,,,,1,3.193,1,,,,,,-0.369444423,-0.246296282,1,0,0,3.1926,Andesite_rect,0,0,0,0,1,
63c1d184883ce15537788b40,TCN,2024-06-24_16h36.11.074,LearnStrategy,2023.2.3,Win32,60.60606061,4,2,2,,,,,,,,6,16,,,,,,,,,,,6,1.323,1,,,,,,-0.149999972,-0.408333319,1,0,0,1.3227,Pegmatite_rect,1,0,1,0,1,
63c1d184883ce15537788b40,TCN,2024-06-24_16h36.11.074,LearnStrategy,2023.2.3,Win32,60.60606061,4,2,3,,,,,,,,7,10,,,,,,,,,,,7,1.087,1,,,,,,0.159259302,-0.392592607,1,0,0,1.0873,Peridotite_rect,2,0,2,0,1,
63c1d184883ce15537788b40,TCN,2024-06-24_16h36.11.074,LearnStrategy,2023.2.3,Win32,60.60606061,4,2,4,,,,,,,,4,05,,,,,,,,,,,2,7.181,0,,,,,,-0.125,-0.248148176,1,0,0,7.1809,Basalt_rect,3,0,3,0,1,
63c1d184883ce15537788b40,TCN,2024-06-24_16h36.11.074,LearnStrategy,2023.2.3,Win32,60.60606061,4,2,5,,,,,,,,5,10,,,,,,,,,,,5,1.34,1,,,,,,-0.334259245,-0.383333347,1,0,0,1.3404,Obsidian_rect,4,0,4,0,1,
63c1d184883ce15537788b40,TCN,2024-06-24_16h36.11.074,LearnStrategy,2023.2.3,Win32,60.60606061,4,2,6,,,,,,,,6,05,,,,,,,,,,,3,4.123,0,,,,,,0.171296296,-0.267592607,1,0,0,4.1231,Diorite_rect,5,0,5,0,1,
63c1d184883ce15537788b40,TCN,2024-06-24_16h36.11.074,LearnStrategy,2023.2.3,Win32,60.60606061,4,2,7,,,,,,,,8,15,,,,,,,,,,,8,3.106,1,,,,,,0.393518519,-0.407407407,1,0,0,3.106,Pumice_rect,6,0,6,0,1,
63c1d184883ce15537788b40,TCN,2024-06-24_16h36.11.074,LearnStrategy,2023.2.3,Win32,60.60606061,4,2,8,,,,,,,,7,04,,,,,,,,,,,6,4.467,0,,,,,,-0.085185157,-0.396296325,1,0,0,4.4669,Pegmatite_rect,7,0,7,0,1,
63c1d184883ce15537788b40,TCN,2024-06-24_16h36.11.074,LearnStrategy,2023.2.3,Win32,60.60606061,4,2,9,,,,,,,,1,07,,,,,,,,,,,1,4.102,1,,,,,,-0.407407407,-0.244444459,1,0,0,4.1023,Andesite_rect,8,0,8,0,1,
63c1d184883ce15537788b40,TCN,2024-06-24_16h36.11.074,LearnStrategy,2023.2.3,Win32,60.60606061,4,2,10,,,,,,,,2,08,,,,,,,,,,,2,3.497,1,,,,,,-0.087962963,-0.241666653,1,0,0,3.4968,Basalt_rect,9,0,9,0,1,
63c1d184883ce15537788b40,TCN,2024-06-24_16h36.11.074,LearnStrategy,2023.2.3,Win32,60.60606061,4,2,11,,,,,,,,8,02,,,,,,,,,,,8,1.498,1,,,,,,0.410185213,-0.391666695,1,0,0,1.498,Pumice_rect,10,0,10,0,1,
63c1d184883ce15537788b40,TCN,2024-06-24_16h36.11.074,LearnStrategy,2023.2.3,Win32,60.60606061,4,2,12,,,,,,,,3,07,,,,,,,,,,,3,7.159,1,,,,,,0.063888903,-0.260185171,1,0,0,7.1593,Diorite_rect,11,0,11,0,1,
63c1d184883ce15537788b40,TCN,2024-06-24_16h36.11.074,LearnStrategy,2023.2.3,Win32,60.60606061,4,2,13,,,,,,,,3,13,,,,,,,,,,,3,2.157,1,,,,,,0.094444487,-0.258333347,1,0,0,2.1566,Diorite_rect,12,0,12,0,1,
63c1d184883ce15537788b40,TCN,2024-06-24_16h36.11.074,LearnStrategy,2023.2.3,Win32,60.60606061,4,2,14,,,,,,,,2,05,,,,,,,,,,,4,1.995,0,,,,,,0.36018527,-0.234259288,1,0,0,1.9947,Gabbro_rect,13,0,13,0,1,
63c1d184883ce15537788b40,TCN,2024-06-24_16h36.11.074,LearnStrategy,2023.2.3,Win32,60.60606061,4,2,15,,,,,,,,4,01,,,,,,,,,,,2,4.122,0,,,,,,-0.088888875,-0.253703718,1,0,0,4.1218,Basalt_rect,14,0,14,0,1,
63c1d184883ce15537788b40,TCN,2024-06-24_16h36.11.074,LearnStrategy,2023.2.3,Win32,60.60606061,4,2,16,,,,,,,,5,08,,,,,,,,,,,5,1.238,1,,,,,,-0.395370377,-0.380555541,1,0,0,1.2376,Obsidian_rect,15,0,15,0,1,
63c1d184883ce15537788b40,TCN,2024-06-24_16h36.11.074,LearnStrategy,2023.2.3,Win32,60.60606061,5,1,1,0.098148134,-0.000925947,1,0,0,1.5068,rock_grid_rect_2,5,05,-1,-1,1.507,-0.333333333,-0.389814801,1,0,0,2.4217,Obsidian_rect,5,2.422,1,0,0,0,0,1,,,,,,,,,,,,,
63c1d184883ce15537788b40,TCN,2024-06-24_16h36.11.074,LearnStrategy,2023.2.3,Win32,60.60606061,5,1,2,0.115740741,-0.002777771,1,0,0,1.3145,rock_grid_rect_2,1,06,-1,-1,1.314,-0.326851845,-0.237037023,1,0,0,1.3993,Andesite_rect,1,1.399,1,1,0,1,0,1,,,,,,,,,,,,,
63c1d184883ce15537788b40,TCN,2024-06-24_16h36.11.074,LearnStrategy,2023.2.3,Win32,60.60606061,5,1,3,0.068518533,0.001851859,1,0,0,1.4576,rock_grid_rect_2,7,07,-1,-1,1.458,0.125925912,-0.412037037,1,0,0,1.5434,Peridotite_rect,7,1.543,1,2,0,2,0,1,,,,,,,,,,,,,
63c1d184883ce15537788b40,TCN,2024-06-24_16h36.11.074,LearnStrategy,2023.2.3,Win32,60.60606061,5,1,4,0.025925954,0.01944443,1,0,0,0.9082,rock_grid_rect_2,5,02,-1,-1,0.908,-0.375,-0.409259302,1,0,0,1.4247,Obsidian_rect,5,1.425,1,3,0,3,0,1,,,,,,,,,,,,,
63c1d184883ce15537788b40,TCN,2024-06-24_16h36.11.074,LearnStrategy,2023.2.3,Win32,60.60606061,5,1,5,0.08148151,0.003703683,1,0,0,1.273,rock_grid_rect_2,4,08,-1,-1,1.273,-0.125925912,-0.252777806,1,0,0,2.6947,Basalt_rect,2,2.695,0,4,0,4,0,1,,,,,,,,,,,,,
63c1d184883ce15537788b40,TCN,2024-06-24_16h36.11.074,LearnStrategy,2023.2.3,Win32,60.60606061,5,1,6,0.117592635,0.001851859,1,0,0,1.9143,rock_grid_rect_2,8,13,-1,-1,1.914,0.371296353,-0.415740755,1,0,0,1.1017,Pumice_rect,8,1.102,1,5,0,5,0,1,,,,,,,,,,,,,
63c1d184883ce15537788b40,TCN,2024-06-24_16h36.11.074,LearnStrategy,2023.2.3,Win32,60.60606061,5,1,7,0.041666667,-0.001851859,1,0,0,1.3394,rock_grid_rect_2,8,03,-1,-1,1.339,0.353703675,-0.406481496,1,0,0,1.1917,Pumice_rect,8,1.192,1,6,0,6,0,1,,,,,,,,,,,,,
63c1d184883ce15537788b40,TCN,2024-06-24_16h36.11.074,LearnStrategy,2023.2.3,Win32,60.60606061,5,1,8,0.10555557,0.000925912,1,0,0,1.3729,rock_grid_rect_2,3,12,-1,-1,1.373,-0.3675926,-0.270370413,1,0,0,2.677,Andesite_rect,1,2.677,0,7,0,7,0,1,,,,,,,,,,,,,
63c1d184883ce15537788b40,TCN,2024-06-24_16h36.11.074,LearnStrategy,2023.2.3,Win32,60.60606061,5,1,9,0.143518519,0.005555541,1,0,0,1.5371,rock_grid_rect_2,4,14,-1,-1,1.537,-0.114814829,-0.25,1,0,0,1.4983,Basalt_rect,2,1.498,0,8,0,8,0,1,,,,,,,,,,,,,
63c1d184883ce15537788b40,TCN,2024-06-24_16h36.11.074,LearnStrategy,2023.2.3,Win32,60.60606061,5,1,10,0.106481481,0.01203703,1,0,0,1.4546,rock_grid_rect_2,6,03,-1,-1,1.455,-0.113888847,-0.39444443,1,0,0,1.7991,Pegmatite_rect,6,1.799,1,9,0,9,0,1,,,,,,,,,,,,,
63c1d184883ce15537788b40,TCN,2024-06-24_16h36.11.074,LearnStrategy,2023.2.3,Win32,60.60606061,5,1,11,0.127777806,-0.000925947,1,0,0,1.1726,rock_grid_rect_2,7,06,-1,-1,1.173,0.125,-0.404629672,1,0,0,1.7738,Peridotite_rect,7,1.774,1,10,0,10,0,1,,,,,,,,,,,,,
63c1d184883ce15537788b40,TCN,2024-06-24_16h36.11.074,LearnStrategy,2023.2.3,Win32,60.60606061,5,1,12,0.079629616,-0.022222236,1,0,0,1.2683,rock_grid_rect_2,3,02,-1,-1,1.268,0.145370413,-0.240740741,1,0,0,1.2944,Diorite_rect,3,1.294,1,11,0,11,0,1,,,,,,,,,,,,,
63c1d184883ce15537788b40,TCN,2024-06-24_16h36.11.074,LearnStrategy,2023.2.3,Win32,60.60606061,5,1,13,0.075925968,0.001851859,1,0,0,1.4616,rock_grid_rect_2,2,11,-1,-1,1.462,0.339814787,-0.380555541,1,0,0,1.3885,Pumice_rect,8,1.389,0,12,0,12,0,1,,,,,,,,,,,,,
63c1d184883ce15537788b40,TCN,2024-06-24_16h36.11.074,LearnStrategy,2023.2.3,Win32,60.60606061,5,1,14,0.099074116,0.020370377,1,0,0,1.1451,rock_grid_rect_2,2,02,-1,-1,1.145,-0.051851838,-0.264814801,1,0,0,2.6112,Basalt_rect,2,2.611,1,13,0,13,0,1,,,,,,,,,,,,,
63c1d184883ce15537788b40,TCN,2024-06-24_16h36.11.074,LearnStrategy,2023.2.3,Win32,60.60606061,5,1,15,0.128703718,0.01203703,1,0,0,1.5535,rock_grid_rect_2,1,11,-1,-1,1.554,-0.363888882,-0.255555541,1,0,0,4.1754,Andesite_rect,1,4.175,1,14,0,14,0,1,,,,,,,,,,,,,
63c1d184883ce15537788b40,TCN,2024-06-24_16h36.11.074,LearnStrategy,2023.2.3,Win32,60.60606061,5,1,16,0.082407422,-0.0074074,1,0,0,1.6352,rock_grid_rect_2,6,13,-1,-1,1.635,-0.125925912,-0.414814843,1,0,0,2.6135,Pegmatite_rect,6,2.613,1,15,0,15,0,1,,,,,,,,,,,,,
63c1d184883ce15537788b40,TCN,2024-06-24_16h36.11.074,LearnStrategy,2023.2.3,Win32,60.60606061,5,2,1,,,,,,,,5,07,,,,,,,,,,,5,1.238,1,,,,,,-0.343518504,-0.383333347,1,0,0,1.2378,Obsidian_rect,0,0,0,0,1,
63c1d184883ce15537788b40,TCN,2024-06-24_16h36.11.074,LearnStrategy,2023.2.3,Win32,60.60606061,5,2,2,,,,,,,,1,05,,,,,,,,,,,1,1.704,1,,,,,,-0.310185185,-0.25462963,1,0,0,1.7041,Andesite_rect,1,0,1,0,1,
63c1d184883ce15537788b40,TCN,2024-06-24_16h36.11.074,LearnStrategy,2023.2.3,Win32,60.60606061,5,2,3,,,,,,,,7,05,,,,,,,,,,,7,1.067,1,,,,,,0.147222236,-0.413888931,1,0,0,1.0672,Peridotite_rect,2,0,2,0,1,
63c1d184883ce15537788b40,TCN,2024-06-24_16h36.11.074,LearnStrategy,2023.2.3,Win32,60.60606061,5,2,4,,,,,,,,5,16,,,,,,,,,,,5,1.181,1,,,,,,-0.342592593,-0.395370413,1,0,0,1.1808,Obsidian_rect,3,0,3,0,1,
63c1d184883ce15537788b40,TCN,2024-06-24_16h36.11.074,LearnStrategy,2023.2.3,Win32,60.60606061,5,2,5,,,,,,,,8,14,,,,,,,,,,,8,1.657,1,,,,,,0.399074131,-0.407407407,1,0,0,1.6568,Pumice_rect,4,0,4,0,1,
63c1d184883ce15537788b40,TCN,2024-06-24_16h36.11.074,LearnStrategy,2023.2.3,Win32,60.60606061,5,2,6,,,,,,,,3,15,,,,,,,,,,,3,10.797,1,,,,,,0.125,-0.248148176,1,0,0,10.7968,Diorite_rect,5,0,5,0,1,
63c1d184883ce15537788b40,TCN,2024-06-24_16h36.11.074,LearnStrategy,2023.2.3,Win32,60.60606061,5,2,7,,,,,,,,6,08,,,,,,,,,,,6,1.409,1,,,,,,-0.09629631,-0.409259302,1,0,0,1.4093,Pegmatite_rect,6,0,6,0,1,
63c1d184883ce15537788b40,TCN,2024-06-24_16h36.11.074,LearnStrategy,2023.2.3,Win32,60.60606061,5,2,8,,,,,,,,4,15,,,,,,,,,,,4,1.886,1,,,,,,0.434259344,-0.261111153,1,0,0,1.8861,Gabbro_rect,7,0,7,0,1,
63c1d184883ce15537788b40,TCN,2024-06-24_16h36.11.074,LearnStrategy,2023.2.3,Win32,60.60606061,5,2,9,,,,,,,,4,13,,,,,,,,,,,4,1.352,1,,,,,,0.378703788,-0.231481481,1,0,0,1.3525,Gabbro_rect,8,0,8,0,1,
63c1d184883ce15537788b40,TCN,2024-06-24_16h36.11.074,LearnStrategy,2023.2.3,Win32,60.60606061,5,2,10,,,,,,,,1,16,,,,,,,,,,,1,2.415,1,,,,,,-0.341666645,-0.242592635,1,0,0,2.4149,Andesite_rect,9,0,9,0,1,
63c1d184883ce15537788b40,TCN,2024-06-24_16h36.11.074,LearnStrategy,2023.2.3,Win32,60.60606061,5,2,11,,,,,,,,3,16,,,,,,,,,,,3,1.429,1,,,,,,0.174074102,-0.260185171,1,0,0,1.4289,Diorite_rect,10,0,10,0,1,
63c1d184883ce15537788b40,TCN,2024-06-24_16h36.11.074,LearnStrategy,2023.2.3,Win32,60.60606061,5,2,12,,,,,,,,6,12,,,,,,,,,,,2,3.743,0,,,,,,-0.106481481,-0.270370413,1,0,0,3.7426,Basalt_rect,11,0,11,0,1,
63c1d184883ce15537788b40,TCN,2024-06-24_16h36.11.074,LearnStrategy,2023.2.3,Win32,60.60606061,5,2,13,,,,,,,,8,09,,,,,,,,,,,8,1.279,1,,,,,,0.426851908,-0.393518519,1,0,0,1.2791,Pumice_rect,12,0,12,0,1,
63c1d184883ce15537788b40,TCN,2024-06-24_16h36.11.074,LearnStrategy,2023.2.3,Win32,60.60606061,5,2,14,,,,,,,,2,14,,,,,,,,,,,8,1.148,0,,,,,,0.398148148,-0.413888931,1,0,0,1.1476,Pumice_rect,13,0,13,0,1,
63c1d184883ce15537788b40,TCN,2024-06-24_16h36.11.074,LearnStrategy,2023.2.3,Win32,60.60606061,5,2,15,,,,,,,,2,12,,,,,,,,,,,2,2.553,1,,,,,,-0.087962963,-0.237037023,1,0,0,2.5532,Basalt_rect,14,0,14,0,1,
63c1d184883ce15537788b40,TCN,2024-06-24_16h36.11.074,LearnStrategy,2023.2.3,Win32,60.60606061,5,2,16,,,,,,,,7,15,,,,,,,,,,,7,1.124,1,,,,,,0.210185228,-0.392592607,1,0,0,1.1242,Peridotite_rect,15,0,15,0,1,
63c1d184883ce15537788b40,TCN,2024-06-24_16h36.11.074,LearnStrategy,2023.2.3,Win32,60.60606061,6,1,1,0.047222208,0.011111118,1,0,0,42.8099,rock_grid_rect_2,4,12,-1,-1,42.81,-0.076851809,-0.242592635,1,0,0,2.913,Basalt_rect,2,2.913,0,0,0,0,0,1,,,,,,,,,,,,,
63c1d184883ce15537788b40,TCN,2024-06-24_16h36.11.074,LearnStrategy,2023.2.3,Win32,60.60606061,6,1,2,0.035185213,0.0074074,1,0,0,1.2145,rock_grid_rect_2,7,13,-1,-1,1.215,0.104629658,-0.412962949,1,0,0,1.3484,Peridotite_rect,7,1.348,1,1,0,1,0,1,,,,,,,,,,,,,
63c1d184883ce15537788b40,TCN,2024-06-24_16h36.11.074,LearnStrategy,2023.2.3,Win32,60.60606061,6,1,3,0.058333362,0.008333312,1,0,0,1.2955,rock_grid_rect_2,3,09,-1,-1,1.296,0.142592607,-0.258333347,1,0,0,3.6482,Diorite_rect,3,3.648,1,2,0,2,0,1,,,,,,,,,,,,,
63c1d184883ce15537788b40,TCN,2024-06-24_16h36.11.074,LearnStrategy,2023.2.3,Win32,60.60606061,6,1,4,0.069444444,0.008333312,1,0,0,1.1892,rock_grid_rect_2,7,14,-1,-1,1.189,0.139814801,-0.408333319,1,0,0,2.0718,Peridotite_rect,7,2.072,1,3,0,3,0,1,,,,,,,,,,,,,
63c1d184883ce15537788b40,TCN,2024-06-24_16h36.11.074,LearnStrategy,2023.2.3,Win32,60.60606061,6,1,5,-0.012962977,-0.020370377,1,0,0,1.3648,rock_grid_rect_2,5,04,-1,-1,1.365,-0.35833334,-0.405555584,1,0,0,1.8589,Obsidian_rect,5,1.859,1,4,0,4,0,1,,,,,,,,,,,,,
63c1d184883ce15537788b40,TCN,2024-06-24_16h36.11.074,LearnStrategy,2023.2.3,Win32,60.60606061,6,1,6,0.01944443,-0.00462963,1,0,0,0.9986,rock_grid_rect_2,6,10,-1,-1,0.999,-0.117592564,-0.384259259,1,0,0,2.1117,Pegmatite_rect,6,2.112,1,5,0,5,0,1,,,,,,,,,,,,,
63c1d184883ce15537788b40,TCN,2024-06-24_16h36.11.074,LearnStrategy,2023.2.3,Win32,60.60606061,6,1,7,0.005555541,-0.000925947,1,0,0,2.3713,rock_grid_rect_2,8,08,-1,-1,2.371,0.353703675,-0.401851866,1,0,0,1.9633,Pumice_rect,8,1.963,1,6,0,6,0,1,,,,,,,,,,,,,
63c1d184883ce15537788b40,TCN,2024-06-24_16h36.11.074,LearnStrategy,2023.2.3,Win32,60.60606061,6,1,8,0.021296325,-0.020370377,1,0,0,1.2555,rock_grid_rect_2,6,06,-1,-1,1.256,-0.166666667,-0.409259302,1,0,0,1.2578,Pegmatite_rect,6,1.258,1,7,0,7,0,1,,,,,,,,,,,,,
63c1d184883ce15537788b40,TCN,2024-06-24_16h36.11.074,LearnStrategy,2023.2.3,Win32,60.60606061,6,1,9,0.051851838,0.012962942,1,0,0,1.2396,rock_grid_rect_2,2,09,-1,-1,1.24,0.375,-0.241666653,1,0,0,2.6687,Gabbro_rect,4,2.669,0,8,0,8,0,1,,,,,,,,,,,,,
63c1d184883ce15537788b40,TCN,2024-06-24_16h36.11.074,LearnStrategy,2023.2.3,Win32,60.60606061,6,1,10,0.068518533,-0.006481489,1,0,0,1.2222,rock_grid_rect_2,3,08,-1,-1,1.222,0.12037037,-0.260185171,1,0,0,1.193,Diorite_rect,3,1.193,1,9,0,9,0,1,,,,,,,,,,,,,
63c1d184883ce15537788b40,TCN,2024-06-24_16h36.11.074,LearnStrategy,2023.2.3,Win32,60.60606061,6,1,11,0.084259245,0,1,0,0,16.6904,rock_grid_rect_2,4,11,-1,-1,16.69,0.348148205,-0.25462963,1,0,0,2.5133,Gabbro_rect,4,2.513,1,10,0,10,0,1,,,,,,,,,,,,,
63c1d184883ce15537788b40,TCN,2024-06-24_16h36.11.074,LearnStrategy,2023.2.3,Win32,60.60606061,6,1,12,0.066666709,0.018518519,1,0,0,1.3421,rock_grid_rect_2,1,04,-1,-1,1.342,-0.342592593,-0.263888889,1,0,0,2.5489,Andesite_rect,1,2.549,1,11,0,11,0,1,,,,,,,,,,,,,
63c1d184883ce15537788b40,TCN,2024-06-24_16h36.11.074,LearnStrategy,2023.2.3,Win32,60.60606061,6,1,13,0.059259273,0,1,0,0,10.0795,rock_grid_rect_2,5,06,-1,-1,10.08,-0.381481489,-0.380555541,1,0,0,1.3303,Obsidian_rect,5,1.33,1,12,0,12,0,1,,,,,,,,,,,,,
63c1d184883ce15537788b40,TCN,2024-06-24_16h36.11.074,LearnStrategy,2023.2.3,Win32,60.60606061,6,1,14,0.01944443,-0.008333347,1,0,0,1.5107,rock_grid_rect_2,2,04,-1,-1,1.511,-0.09629631,-0.257407436,1,0,0,2.7608,Basalt_rect,2,2.761,1,13,0,13,0,1,,,,,,,,,,,,,
63c1d184883ce15537788b40,TCN,2024-06-24_16h36.11.074,LearnStrategy,2023.2.3,Win32,60.60606061,6,1,15,0.020370413,0.003703683,1,0,0,2.8125,rock_grid_rect_2,1,02,-1,-1,2.813,-0.326851845,-0.228703746,1,0,0,2.0668,Andesite_rect,1,2.067,1,14,0,14,0,1,,,,,,,,,,,,,
63c1d184883ce15537788b40,TCN,2024-06-24_16h36.11.074,LearnStrategy,2023.2.3,Win32,60.60606061,6,1,16,0.000925912,-0.009259259,1,0,0,1.424,rock_grid_rect_2,8,16,-1,-1,1.424,0.344444416,-0.388888889,1,0,0,1.2415,Pumice_rect,8,1.242,1,15,0,15,0,1,,,,,,,,,,,,,
63c1d184883ce15537788b40,TCN,2024-06-24_16h36.11.074,LearnStrategy,2023.2.3,Win32,60.60606061,6,2,1,,,,,,,,4,03,,,,,,,,,,,2,6.501,0,,,,,,-0.077777792,-0.259259259,1,0,0,6.5012,Basalt_rect,0,0,0,0,1,
63c1d184883ce15537788b40,TCN,2024-06-24_16h36.11.074,LearnStrategy,2023.2.3,Win32,60.60606061,6,2,2,,,,,,,,2,01,,,,,,,,,,,2,4.174,1,,,,,,-0.077777792,-0.259259259,1,0,0,4.1743,Basalt_rect,1,0,1,0,1,
63c1d184883ce15537788b40,TCN,2024-06-24_16h36.11.074,LearnStrategy,2023.2.3,Win32,60.60606061,6,2,3,,,,,,,,2,06,,,,,,,,,,,2,3.002,1,,,,,,-0.066666638,-0.235185199,1,0,0,3.0023,Basalt_rect,2,0,2,0,1,
63c1d184883ce15537788b40,TCN,2024-06-24_16h36.11.074,LearnStrategy,2023.2.3,Win32,60.60606061,6,2,4,,,,,,,,8,06,,,,,,,,,,,8,2.39,1,,,,,,0.390740712,-0.401851866,1,0,0,2.39,Pumice_rect,3,0,3,0,1,
63c1d184883ce15537788b40,TCN,2024-06-24_16h36.11.074,LearnStrategy,2023.2.3,Win32,60.60606061,6,2,5,,,,,,,,6,07,,,,,,,,,,,6,2.253,1,,,,,,-0.101851852,-0.381481524,1,0,0,2.2529,Pegmatite_rect,4,0,4,0,1,
63c1d184883ce15537788b40,TCN,2024-06-24_16h36.11.074,LearnStrategy,2023.2.3,Win32,60.60606061,6,2,6,,,,,,,,3,06,,,,,,,,,,,6,6.353,0,,,,,,-0.10092594,-0.39444443,1,0,0,6.3525,Pegmatite_rect,5,0,5,0,1,
63c1d184883ce15537788b40,TCN,2024-06-24_16h36.11.074,LearnStrategy,2023.2.3,Win32,60.60606061,6,2,7,,,,,,,,1,01,,,,,,,,,,,3,2.817,0,,,,,,0.170370384,-0.250925912,1,0,0,2.8168,Diorite_rect,6,0,6,0,1,
63c1d184883ce15537788b40,TCN,2024-06-24_16h36.11.074,LearnStrategy,2023.2.3,Win32,60.60606061,6,2,8,,,,,,,,5,09,,,,,,,,,,,5,1.243,1,,,,,,-0.331481474,-0.387962977,1,0,0,1.2433,Obsidian_rect,7,0,7,0,1,
63c1d184883ce15537788b40,TCN,2024-06-24_16h36.11.074,LearnStrategy,2023.2.3,Win32,60.60606061,6,2,9,,,,,,,,4,16,,,,,,,,,,,4,3.114,1,,,,,,0.342592593,-0.248148176,1,0,0,3.1137,Gabbro_rect,8,0,8,0,1,
63c1d184883ce15537788b40,TCN,2024-06-24_16h36.11.074,LearnStrategy,2023.2.3,Win32,60.60606061,6,2,10,,,,,,,,1,10,,,,,,,,,,,1,3.997,1,,,,,,-0.340740734,-0.233333376,1,0,0,3.9973,Andesite_rect,9,0,9,0,1,
63c1d184883ce15537788b40,TCN,2024-06-24_16h36.11.074,LearnStrategy,2023.2.3,Win32,60.60606061,6,2,11,,,,,,,,5,14,,,,,,,,,,,5,1.066,1,,,,,,-0.364814794,-0.398148148,1,0,0,1.0656,Obsidian_rect,10,0,10,0,1,
63c1d184883ce15537788b40,TCN,2024-06-24_16h36.11.074,LearnStrategy,2023.2.3,Win32,60.60606061,6,2,12,,,,,,,,3,10,,,,,,,,,,,2,1.523,0,,,,,,-0.09629631,-0.266666695,1,0,0,1.5234,Basalt_rect,11,0,11,0,1,
63c1d184883ce15537788b40,TCN,2024-06-24_16h36.11.074,LearnStrategy,2023.2.3,Win32,60.60606061,6,2,13,,,,,,,,8,04,,,,,,,,,,,8,1.919,1,,,,,,0.354629658,-0.397222236,1,0,0,1.9193,Pumice_rect,12,0,12,0,1,
63c1d184883ce15537788b40,TCN,2024-06-24_16h36.11.074,LearnStrategy,2023.2.3,Win32,60.60606061,6,2,14,,,,,,,,6,09,,,,,,,,,,,6,2.84,1,,,,,,-0.126851824,-0.402777778,1,0,0,2.8403,Pegmatite_rect,13,0,13,0,1,
63c1d184883ce15537788b40,TCN,2024-06-24_16h36.11.074,LearnStrategy,2023.2.3,Win32,60.60606061,6,2,15,,,,,,,,7,12,,,,,,,,,,,7,2.219,1,,,,,,0.128703718,-0.409259302,1,0,0,2.2191,Peridotite_rect,14,0,14,0,1,
63c1d184883ce15537788b40,TCN,2024-06-24_16h36.11.074,LearnStrategy,2023.2.3,Win32,60.60606061,6,2,16,,,,,,,,7,16,,,,,,,,,,,7,2.343,1,,,,,,0.132407436,-0.39907406,1,0,0,2.3432,Peridotite_rect,15,0,15,0,1,
63c1d184883ce15537788b40,TCN,2024-06-24_16h36.11.074,LearnStrategy,2023.2.3,Win32,60.60606061,7,1,1,0.02870369,-0.014814836,1,0,0,1.9658,rock_grid_rect_2,2,16,-1,-1,1.966,0.394444501,-0.232407393,1,0,0,4.6075,Gabbro_rect,4,4.607,0,0,0,0,0,1,,,,,,,,,,,,,
63c1d184883ce15537788b40,TCN,2024-06-24_16h36.11.074,LearnStrategy,2023.2.3,Win32,60.60606061,7,1,2,0.062037079,0.000925912,1,0,0,1.3392,rock_grid_rect_2,1,09,-1,-1,1.339,-0.10555557,-0.237037023,1,0,0,7.2708,Basalt_rect,2,7.271,0,1,0,1,0,1,,,,,,,,,,,,,
63c1d184883ce15537788b40,TCN,2024-06-24_16h36.11.074,LearnStrategy,2023.2.3,Win32,60.60606061,7,1,3,0.112037023,-0.01666666,1,0,0,1.6036,rock_grid_rect_2,2,11,-1,-1,1.604,0.357407464,-0.414814843,1,0,0,2.0805,Pumice_rect,8,2.081,0,2,0,2,0,1,,,,,,,,,,,,,
63c1d184883ce15537788b40,TCN,2024-06-24_16h36.11.074,LearnStrategy,2023.2.3,Win32,60.60606061,7,1,4,-0.031481496,0.000925912,1,0,0,1.4189,rock_grid_rect_2,8,10,-1,-1,1.419,0.375,-0.411111125,1,0,0,1.3393,Pumice_rect,8,1.339,1,3,0,3,0,1,,,,,,,,,,,,,
63c1d184883ce15537788b40,TCN,2024-06-24_16h36.11.074,LearnStrategy,2023.2.3,Win32,60.60606061,7,1,5,0,0.00462963,1,0,0,1.1083,rock_grid_rect_2,7,14,-1,-1,1.108,0.145370413,-0.39907406,1,0,0,1.7722,Peridotite_rect,7,1.772,1,4,0,4,0,1,,,,,,,,,,,,,
63c1d184883ce15537788b40,TCN,2024-06-24_16h36.11.074,LearnStrategy,2023.2.3,Win32,60.60606061,7,1,6,0.014814801,0.003703683,1,0,0,4.8276,rock_grid_rect_2,8,08,-1,-1,4.828,0.387963048,-0.389814801,1,0,0,2.8126,Pumice_rect,8,2.813,1,5,0,5,0,1,,,,,,,,,,,,,
63c1d184883ce15537788b40,TCN,2024-06-24_16h36.11.074,LearnStrategy,2023.2.3,Win32,60.60606061,7,1,7,-0.016666624,-0.001851859,1,0,0,9.7547,rock_grid_rect_2,3,09,-1,-1,9.755,0.09629631,-0.228703746,1,0,0,2.6256,Diorite_rect,3,2.626,1,6,0,6,0,1,,,,,,,,,,,,,
63c1d184883ce15537788b40,TCN,2024-06-24_16h36.11.074,LearnStrategy,2023.2.3,Win32,60.60606061,7,1,8,-0.093518504,-0.01666666,1,0,0,20.0383,rock_grid_rect_2,3,08,-1,-1,20.038,0.146296325,-0.262037065,1,0,0,1.1907,Diorite_rect,3,1.191,1,7,0,7,0,1,,,,,,,,,,,,,
63c1d184883ce15537788b40,TCN,2024-06-24_16h36.11.074,LearnStrategy,2023.2.3,Win32,60.60606061,7,1,9,-0.084259245,0.000925912,1,0,0,3.7081,rock_grid_rect_2,5,11,-1,-1,3.708,-0.426851838,-0.415740755,1,0,0,2.0603,Obsidian_rect,5,2.06,1,8,0,8,0,1,,,,,,,,,,,,,
63c1d184883ce15537788b40,TCN,2024-06-24_16h36.11.074,LearnStrategy,2023.2.3,Win32,60.60606061,7,1,10,0,-0.011111118,1,0,0,20.6584,rock_grid_rect_2,5,12,-1,-1,20.658,-0.393518519,-0.402777778,1,0,0,1.7315,Obsidian_rect,5,1.731,1,9,0,9,0,1,,,,,,,,,,,,,
63c1d184883ce15537788b40,TCN,2024-06-24_16h36.11.074,LearnStrategy,2023.2.3,Win32,60.60606061,7,1,11,0.014814801,-0.013888889,1,0,0,1.263,rock_grid_rect_2,6,15,-1,-1,1.263,-0.076851809,-0.39907406,1,0,0,1.2882,Pegmatite_rect,6,1.288,1,10,0,10,0,1,,,,,,,,,,,,,
63c1d184883ce15537788b40,TCN,2024-06-24_16h36.11.074,LearnStrategy,2023.2.3,Win32,60.60606061,7,1,12,-0.003703718,-0.012962977,1,0,0,3.5706,rock_grid_rect_2,7,07,-1,-1,3.571,0.135185171,-0.398148148,1,0,0,1.4395,Peridotite_rect,7,1.439,1,11,0,11,0,1,,,,,,,,,,,,,
63c1d184883ce15537788b40,TCN,2024-06-24_16h36.11.074,LearnStrategy,2023.2.3,Win32,60.60606061,7,1,13,0.040740755,-0.008333347,1,0,0,1.3336,rock_grid_rect_2,6,03,-1,-1,1.334,-0.087962963,-0.405555584,1,0,0,2.5068,Pegmatite_rect,6,2.507,1,12,0,12,0,1,,,,,,,,,,,,,
63c1d184883ce15537788b40,TCN,2024-06-24_16h36.11.074,LearnStrategy,2023.2.3,Win32,60.60606061,7,1,14,0.055555556,-0.00462963,1,0,0,5.5083,rock_grid_rect_2,1,03,-1,-1,5.508,-0.330555563,-0.261111153,1,0,0,2.9085,Andesite_rect,1,2.909,1,13,0,13,0,1,,,,,,,,,,,,,
63c1d184883ce15537788b40,TCN,2024-06-24_16h36.11.074,LearnStrategy,2023.2.3,Win32,60.60606061,7,1,15,-0.009259259,-0.021296289,1,0,0,1.317,rock_grid_rect_2,4,10,-1,-1,1.317,0.3648149,-0.243518547,1,0,0,2.5676,Gabbro_rect,4,2.568,1,14,0,14,0,1,,,,,,,,,,,,,
63c1d184883ce15537788b40,TCN,2024-06-24_16h36.11.074,LearnStrategy,2023.2.3,Win32,60.60606061,7,1,16,0.011111153,-0.00462963,1,0,0,7.3275,rock_grid_rect_2,4,12,-1,-1,7.327,-0.078703704,-0.237963005,1,0,0,2.4303,Basalt_rect,2,2.43,0,15,0,15,0,1,,,,,,,,,,,,,
63c1d184883ce15537788b40,TCN,2024-06-24_16h36.11.074,LearnStrategy,2023.2.3,Win32,60.60606061,7,2,1,,,,,,,,3,06,,,,,,,,,,,3,19.274,1,,,,,,0.126851894,-0.233333376,1,0,0,19.2742,Diorite_rect,0,0,0,0,1,
63c1d184883ce15537788b40,TCN,2024-06-24_16h36.11.074,LearnStrategy,2023.2.3,Win32,60.60606061,7,2,2,,,,,,,,7,05,,,,,,,,,,,7,1.489,1,,,,,,0.140740783,-0.383333347,1,0,0,1.4892,Peridotite_rect,1,0,1,0,1,
63c1d184883ce15537788b40,TCN,2024-06-24_16h36.11.074,LearnStrategy,2023.2.3,Win32,60.60606061,7,2,3,,,,,,,,4,13,,,,,,,,,,,4,2.211,1,,,,,,0.409259231,-0.247222265,1,0,0,2.2115,Gabbro_rect,2,0,2,0,1,
63c1d184883ce15537788b40,TCN,2024-06-24_16h36.11.074,LearnStrategy,2023.2.3,Win32,60.60606061,7,2,4,,,,,,,,8,06,,,,,,,,,,,8,1.028,1,,,,,,0.32685188,-0.392592607,1,0,0,1.0277,Pumice_rect,3,0,3,0,1,
63c1d184883ce15537788b40,TCN,2024-06-24_16h36.11.074,LearnStrategy,2023.2.3,Win32,60.60606061,7,2,5,,,,,,,,5,14,,,,,,,,,,,5,1.213,1,,,,,,-0.422222208,-0.391666695,1,0,0,1.2132,Obsidian_rect,4,0,4,0,1,
63c1d184883ce15537788b40,TCN,2024-06-24_16h36.11.074,LearnStrategy,2023.2.3,Win32,60.60606061,7,2,6,,,,,,,,8,02,,,,,,,,,,,8,1.349,1,,,,,,0.389814871,-0.409259302,1,0,0,1.3493,Pumice_rect,5,0,5,0,1,
63c1d184883ce15537788b40,TCN,2024-06-24_16h36.11.074,LearnStrategy,2023.2.3,Win32,60.60606061,7,2,7,,,,,,,,1,10,,,,,,,,,,,1,4.17,1,,,,,,-0.41111109,-0.231481481,1,0,0,4.1703,Andesite_rect,6,0,6,0,1,
63c1d184883ce15537788b40,TCN,2024-06-24_16h36.11.074,LearnStrategy,2023.2.3,Win32,60.60606061,7,2,8,,,,,,,,3,10,,,,,,,,,,,3,2.454,1,,,,,,0.159259302,-0.263888889,1,0,0,2.4535,Diorite_rect,7,0,7,0,1,
63c1d184883ce15537788b40,TCN,2024-06-24_16h36.11.074,LearnStrategy,2023.2.3,Win32,60.60606061,7,2,9,,,,,,,,2,08,,,,,,,,,,,2,4.327,1,,,,,,-0.123148106,-0.241666653,1,0,0,4.3274,Basalt_rect,8,0,8,0,1,
63c1d184883ce15537788b40,TCN,2024-06-24_16h36.11.074,LearnStrategy,2023.2.3,Win32,60.60606061,7,2,10,,,,,,,,2,14,,,,,,,,,,,8,1.293,0,,,,,,0.385185242,-0.405555584,1,0,0,1.2933,Pumice_rect,9,0,9,0,1,
63c1d184883ce15537788b40,TCN,2024-06-24_16h36.11.074,LearnStrategy,2023.2.3,Win32,60.60606061,7,2,11,,,,,,,,6,05,,,,,,,,,,,6,3.128,1,,,,,,-0.103703675,-0.397222236,1,0,0,3.1283,Pegmatite_rect,10,0,10,0,1,
63c1d184883ce15537788b40,TCN,2024-06-24_16h36.11.074,LearnStrategy,2023.2.3,Win32,60.60606061,7,2,12,,,,,,,,1,01,,,,,,,,,,,3,2.711,0,,,,,,0.192592621,-0.260185171,1,0,0,2.7114,Diorite_rect,11,0,11,0,1,
63c1d184883ce15537788b40,TCN,2024-06-24_16h36.11.074,LearnStrategy,2023.2.3,Win32,60.60606061,7,2,13,,,,,,,,6,07,,,,,,,,,,,6,2.122,1,,,,,,-0.062037009,-0.37962963,1,0,0,2.1221,Pegmatite_rect,12,0,12,0,1,
63c1d184883ce15537788b40,TCN,2024-06-24_16h36.11.074,LearnStrategy,2023.2.3,Win32,60.60606061,7,2,14,,,,,,,,4,05,,,,,,,,,,,2,3.333,0,,,,,,-0.078703704,-0.251851894,1,0,0,3.3334,Basalt_rect,13,0,13,0,1,
63c1d184883ce15537788b40,TCN,2024-06-24_16h36.11.074,LearnStrategy,2023.2.3,Win32,60.60606061,7,2,15,,,,,,,,5,08,,,,,,,,,,,5,1.475,1,,,,,,-0.381481489,-0.402777778,1,0,0,1.475,Obsidian_rect,14,0,14,0,1,
63c1d184883ce15537788b40,TCN,2024-06-24_16h36.11.074,LearnStrategy,2023.2.3,Win32,60.60606061,7,2,16,,,,,,,,7,15,,,,,,,,,,,7,1.258,1,,,,,,0.171296296,-0.391666695,1,0,0,1.2583,Peridotite_rect,15,0,15,0,1,
63c1d184883ce15537788b40,TCN,2024-06-24_16h36.11.074,LearnStrategy,2023.2.3,Win32,60.60606061,8,1,1,0.080555598,0.011111118,1,0,0,1.6669,rock_grid_rect_2,5,05,-1,-1,1.667,-0.374074053,-0.415740755,1,0,0,2.2149,Obsidian_rect,5,2.215,1,0,0,0,0,1,,,,,,,,,,,,,
63c1d184883ce15537788b40,TCN,2024-06-24_16h36.11.074,LearnStrategy,2023.2.3,Win32,60.60606061,8,1,2,0.015740783,-0.012962977,1,0,0,1.8604,rock_grid_rect_2,5,06,-1,-1,1.86,-0.349999993,-0.392592607,1,0,0,1.2208,Obsidian_rect,5,1.221,1,1,0,1,0,1,,,,,,,,,,,,,
63c1d184883ce15537788b40,TCN,2024-06-24_16h36.11.074,LearnStrategy,2023.2.3,Win32,60.60606061,8,1,3,0.040740755,-0.0074074,1,0,0,1.1211,rock_grid_rect_2,1,11,-1,-1,1.121,-0.341666645,-0.240740741,1,0,0,2.2506,Andesite_rect,1,2.251,1,2,0,2,0,1,,,,,,,,,,,,,
63c1d184883ce15537788b40,TCN,2024-06-24_16h36.11.074,LearnStrategy,2023.2.3,Win32,60.60606061,8,1,4,0.074074074,-0.011111118,1,0,0,1.5297,rock_grid_rect_2,6,11,-1,-1,1.53,-0.152777778,-0.406481496,1,0,0,1.4442,Pegmatite_rect,6,1.444,1,3,0,3,0,1,,,,,,,,,,,,,
63c1d184883ce15537788b40,TCN,2024-06-24_16h36.11.074,LearnStrategy,2023.2.3,Win32,60.60606061,8,1,5,0.02407406,-0.011111118,1,0,0,4.1803,rock_grid_rect_2,2,10,-1,-1,4.18,-0.078703704,-0.256481524,1,0,0,5.0638,Basalt_rect,2,5.064,1,4,0,4,0,1,,,,,,,,,,,,,
63c1d184883ce15537788b40,TCN,2024-06-24_16h36.11.074,LearnStrategy,2023.2.3,Win32,60.60606061,8,1,6,-0.002777735,-0.002777771,1,0,0,1.0294,rock_grid_rect_2,7,02,-1,-1,1.029,0.127777806,-0.39907406,1,0,0,0.9924,Peridotite_rect,7,0.992,1,5,0,5,0,1,,,,,,,,,,,,,
63c1d184883ce15537788b40,TCN,2024-06-24_16h36.11.074,LearnStrategy,2023.2.3,Win32,60.60606061,8,1,7,0.02407406,-0.018518519,1,0,0,1.2892,rock_grid_rect_2,2,04,-1,-1,1.289,0.402777778,-0.263888889,1,0,0,7.004,Gabbro_rect,4,7.004,0,6,0,6,0,1,,,,,,,,,,,,,
63c1d184883ce15537788b40,TCN,2024-06-24_16h36.11.074,LearnStrategy,2023.2.3,Win32,60.60606061,8,1,8,0.07222225,-0.011111118,1,0,0,1.2984,rock_grid_rect_2,3,02,-1,-1,1.298,0.101851852,-0.249074088,1,0,0,0.9979,Diorite_rect,3,0.998,1,7,0,7,0,1,,,,,,,,,,,,,
63c1d184883ce15537788b40,TCN,2024-06-24_16h36.11.074,LearnStrategy,2023.2.3,Win32,60.60606061,8,1,9,0.026851866,-0.01203703,1,0,0,1.0634,rock_grid_rect_2,6,10,-1,-1,1.063,-0.111111111,-0.391666695,1,0,0,2.3099,Pegmatite_rect,6,2.31,1,8,0,8,0,1,,,,,,,,,,,,,
63c1d184883ce15537788b40,TCN,2024-06-24_16h36.11.074,LearnStrategy,2023.2.3,Win32,60.60606061,8,1,10,0.040740755,0.00462963,1,0,0,1.204,rock_grid_rect_2,4,08,-1,-1,1.204,0.327777863,-0.253703718,1,0,0,3.4793,Gabbro_rect,4,3.479,1,9,0,9,0,1,,,,,,,,,,,,,
63c1d184883ce15537788b40,TCN,2024-06-24_16h36.11.074,LearnStrategy,2023.2.3,Win32,60.60606061,8,1,11,0.014814801,0.010185171,1,0,0,0.9766,rock_grid_rect_2,8,16,-1,-1,0.977,0.37962963,-0.404629672,1,0,0,1.0855,Pumice_rect,8,1.086,1,10,0,10,0,1,,,,,,,,,,,,,
63c1d184883ce15537788b40,TCN,2024-06-24_16h36.11.074,LearnStrategy,2023.2.3,Win32,60.60606061,8,1,12,0.044444473,-0.00462963,1,0,0,1.2194,rock_grid_rect_2,3,11,-1,-1,1.219,0.088888875,-0.262962977,1,0,0,1.7562,Diorite_rect,3,1.756,1,11,0,11,0,1,,,,,,,,,,,,,
63c1d184883ce15537788b40,TCN,2024-06-24_16h36.11.074,LearnStrategy,2023.2.3,Win32,60.60606061,8,1,13,0.033333319,-0.015740748,1,0,0,1.2231,rock_grid_rect_2,4,11,-1,-1,1.223,-0.113888847,-0.268518519,1,0,0,1.6492,Basalt_rect,2,1.649,0,12,0,12,0,1,,,,,,,,,,,,,
63c1d184883ce15537788b40,TCN,2024-06-24_16h36.11.074,LearnStrategy,2023.2.3,Win32,60.60606061,8,1,14,0.12962963,-0.006481489,1,0,0,1.4562,rock_grid_rect_2,7,06,-1,-1,1.456,0.084259245,-0.397222236,1,0,0,4.3324,Peridotite_rect,7,4.332,1,13,0,13,0,1,,,,,,,,,,,,,
63c1d184883ce15537788b40,TCN,2024-06-24_16h36.11.074,LearnStrategy,2023.2.3,Win32,60.60606061,8,1,15,-0.029629601,0.018518519,1,0,0,0.9544,rock_grid_rect_2,1,06,-1,-1,0.954,-0.400000007,-0.25462963,1,0,0,2.1782,Andesite_rect,1,2.178,1,14,0,14,0,1,,,,,,,,,,,,,
63c1d184883ce15537788b40,TCN,2024-06-24_16h36.11.074,LearnStrategy,2023.2.3,Win32,60.60606061,8,1,16,-0.074074074,-0.009259259,1,0,0,1.1557,rock_grid_rect_2,8,03,-1,-1,1.156,0.371296353,-0.395370413,1,0,0,1.4284,Pumice_rect,8,1.428,1,15,0,15,0,1,,,,,,,,,,,,,
63c1d184883ce15537788b40,TCN,2024-06-24_16h36.11.074,LearnStrategy,2023.2.3,Win32,60.60606061,8,2,1,,,,,,,,5,07,,,,,,,,,,,5,1.953,1,,,,,,-0.412037037,-0.391666695,1,0,0,1.953,Obsidian_rect,0,0,0,0,1,
63c1d184883ce15537788b40,TCN,2024-06-24_16h36.11.074,LearnStrategy,2023.2.3,Win32,60.60606061,8,2,2,,,,,,,,5,10,,,,,,,,,,,5,1.157,1,,,,,,-0.384259259,-0.386111153,1,0,0,1.157,Obsidian_rect,1,0,1,0,1,
63c1d184883ce15537788b40,TCN,2024-06-24_16h36.11.074,LearnStrategy,2023.2.3,Win32,60.60606061,8,2,3,,,,,,,,3,15,,,,,,,,,,,3,2.352,1,,,,,,0.160185213,-0.25462963,1,0,0,2.3516,Diorite_rect,2,0,2,0,1,
63c1d184883ce15537788b40,TCN,2024-06-24_16h36.11.074,LearnStrategy,2023.2.3,Win32,60.60606061,8,2,4,,,,,,,,2,12,,,,,,,,,,,8,1.689,0,,,,,,0.395370342,-0.393518519,1,0,0,1.6889,Pumice_rect,3,0,3,0,1,
63c1d184883ce15537788b40,TCN,2024-06-24_16h36.11.074,LearnStrategy,2023.2.3,Win32,60.60606061,8,2,5,,,,,,,,1,14,,,,,,,,,,,1,2.795,1,,,,,,-0.400000007,-0.246296282,1,0,0,2.7955,Andesite_rect,4,0,4,0,1,
63c1d184883ce15537788b40,TCN,2024-06-24_16h36.11.074,LearnStrategy,2023.2.3,Win32,60.60606061,8,2,6,,,,,,,,2,05,,,,,,,,,,,2,3.757,1,,,,,,-0.079629616,-0.234259288,1,0,0,3.7573,Basalt_rect,5,0,5,0,1,
63c1d184883ce15537788b40,TCN,2024-06-24_16h36.11.074,LearnStrategy,2023.2.3,Win32,60.60606061,8,2,7,,,,,,,,7,16,,,,,,,,,,,4,7.971,0,,,,,,0.350000028,-0.233333376,1,0,0,7.9709,Gabbro_rect,6,0,6,0,1,
63c1d184883ce15537788b40,TCN,2024-06-24_16h36.11.074,LearnStrategy,2023.2.3,Win32,60.60606061,8,2,8,,,,,,,,4,03,,,,,,,,,,,3,2.625,0,,,,,,0.133333347,-0.251851894,1,0,0,2.6248,Diorite_rect,7,0,7,0,1,
63c1d184883ce15537788b40,TCN,2024-06-24_16h36.11.074,LearnStrategy,2023.2.3,Win32,60.60606061,8,2,9,,,,,,,,6,08,,,,,,,,,,,6,1.509,1,,,,,,-0.12037037,-0.396296325,1,0,0,1.5092,Pegmatite_rect,8,0,8,0,1,
63c1d184883ce15537788b40,TCN,2024-06-24_16h36.11.074,LearnStrategy,2023.2.3,Win32,60.60606061,8,2,10,,,,,,,,8,09,,,,,,,,,,,8,1.179,1,,,,,,0.37962963,-0.386111153,1,0,0,1.179,Pumice_rect,9,0,9,0,1,
63c1d184883ce15537788b40,TCN,2024-06-24_16h36.11.074,LearnStrategy,2023.2.3,Win32,60.60606061,8,2,11,,,,,,,,7,04,,,,,,,,,,,4,5.881,0,,,,,,0.399999972,-0.243518547,1,0,0,5.8807,Gabbro_rect,10,0,10,0,1,
63c1d184883ce15537788b40,TCN,2024-06-24_16h36.11.074,LearnStrategy,2023.2.3,Win32,60.60606061,8,2,12,,,,,,,,6,16,,,,,,,,,,,6,1.622,1,,,,,,-0.073148162,-0.39907406,1,0,0,1.6223,Pegmatite_rect,11,0,11,0,1,
63c1d184883ce15537788b40,TCN,2024-06-24_16h36.11.074,LearnStrategy,2023.2.3,Win32,60.60606061,8,2,13,,,,,,,,8,04,,,,,,,,,,,8,1.149,1,,,,,,0.351851852,-0.381481524,1,0,0,1.1487,Pumice_rect,12,0,12,0,1,
63c1d184883ce15537788b40,TCN,2024-06-24_16h36.11.074,LearnStrategy,2023.2.3,Win32,60.60606061,8,2,14,,,,,,,,3,16,,,,,,,,,,,3,1.387,1,,,,,,0.184259273,-0.242592635,1,0,0,1.3871,Diorite_rect,13,0,13,0,1,
63c1d184883ce15537788b40,TCN,2024-06-24_16h36.11.074,LearnStrategy,2023.2.3,Win32,60.60606061,8,2,15,,,,,,,,1,05,,,,,,,,,,,1,1.536,1,,,,,,-0.443518497,-0.260185171,1,0,0,1.536,Andesite_rect,14,0,14,0,1,
63c1d184883ce15537788b40,TCN,2024-06-24_16h36.11.074,LearnStrategy,2023.2.3,Win32,60.60606061,8,2,16,,,,,,,,4,01,,,,,,,,,,,2,3.025,0,,,,,,-0.109259217,-0.253703718,1,0,0,3.0254,Basalt_rect,15,0,15,0,1,
63c1d184883ce15537788b40,TCN,2024-06-24_16h36.11.074,LearnStrategy,2023.2.3,Win32,60.60606061,9,1,1,0.026851866,-0.01203703,1,0,0,1.1124,rock_grid_rect_2,7,13,-1,-1,1.112,0.121296282,-0.401851866,1,0,0,1.1714,Peridotite_rect,7,1.171,1,0,0,0,0,1,,,,,,,,,,,,,
63c1d184883ce15537788b40,TCN,2024-06-24_16h36.11.074,LearnStrategy,2023.2.3,Win32,60.60606061,9,1,2,-0.04814812,-0.006481489,1,0,0,1.54,rock_grid_rect_2,1,02,-1,-1,1.54,-0.395370377,-0.233333376,1,0,0,1.6937,Andesite_rect,1,1.694,1,1,0,1,0,1,,,,,,,,,,,,,
63c1d184883ce15537788b40,TCN,2024-06-24_16h36.11.074,LearnStrategy,2023.2.3,Win32,60.60606061,9,1,3,0.066666709,-0.011111118,1,0,0,1.2957,rock_grid_rect_2,2,09,-1,-1,1.296,-0.085185157,-0.271296325,1,0,0,1.773,Basalt_rect,2,1.773,1,2,0,2,0,1,,,,,,,,,,,,,
63c1d184883ce15537788b40,TCN,2024-06-24_16h36.11.074,LearnStrategy,2023.2.3,Win32,60.60606061,9,1,4,0.016666695,-0.001851859,1,0,0,0.9632,rock_grid_rect_2,7,08,-1,-1,0.963,0.138888889,-0.39907406,1,0,0,1.5238,Peridotite_rect,7,1.524,1,3,0,3,0,1,,,,,,,,,,,,,
63c1d184883ce15537788b40,TCN,2024-06-24_16h36.11.074,LearnStrategy,2023.2.3,Win32,60.60606061,9,1,5,0.062962991,-0.003703718,1,0,0,9.1129,rock_grid_rect_2,1,04,-1,-1,9.113,-0.450925933,-0.240740741,1,0,0,3.7586,Andesite_rect,1,3.759,1,4,0,4,0,1,,,,,,,,,,,,,
63c1d184883ce15537788b40,TCN,2024-06-24_16h36.11.074,LearnStrategy,2023.2.3,Win32,60.60606061,9,1,6,-0.022222236,0.003703683,1,0,0,100.4167,rock_grid_rect_2,2,02,-1,-1,100.417,-0.139814801,-0.257407436,1,0,0,2.5593,Basalt_rect,2,2.559,1,5,0,5,0,1,,,,,,,,,,,,,
63c1d184883ce15537788b40,TCN,2024-06-24_16h36.11.074,LearnStrategy,2023.2.3,Win32,60.60606061,9,1,7,-0.022222236,0.003703683,1,0,0,10.5629,rock_grid_rect_2,8,13,-1,-1,10.563,0.367592564,-0.400000042,1,0,0,1.4324,Pumice_rect,8,1.432,1,6,0,6,0,1,,,,,,,,,,,,,
63c1d184883ce15537788b40,TCN,2024-06-24_16h36.11.074,LearnStrategy,2023.2.3,Win32,60.60606061,9,1,8,0.089814857,0.006481489,1,0,0,6.8762,rock_grid_rect_2,5,04,-1,-1,6.876,-0.424999979,-0.40370369,1,0,0,2.3126,Obsidian_rect,5,2.313,1,7,0,7,0,1,,,,,,,,,,,,,
63c1d184883ce15537788b40,TCN,2024-06-24_16h36.11.074,LearnStrategy,2023.2.3,Win32,60.60606061,9,1,9,0.055555556,-0.000925947,1,0,0,5.6137,rock_grid_rect_2,6,06,-1,-1,5.614,-0.116666653,-0.385185171,1,0,0,1.6679,Pegmatite_rect,6,1.668,1,8,0,8,0,1,,,,,,,,,,,,,
63c1d184883ce15537788b40,TCN,2024-06-24_16h36.11.074,LearnStrategy,2023.2.3,Win32,60.60606061,9,1,10,-0.016666624,-0.0074074,1,0,0,1.2893,rock_grid_rect_2,4,09,-1,-1,1.289,-0.109259217,-0.262037065,1,0,0,5.0906,Basalt_rect,2,5.091,0,9,0,9,0,1,,,,,,,,,,,,,
63c1d184883ce15537788b40,TCN,2024-06-24_16h36.11.074,LearnStrategy,2023.2.3,Win32,60.60606061,9,1,11,0.100000028,-0.001851859,1,0,0,1.8909,rock_grid_rect_2,4,14,-1,-1,1.891,0.399999972,-0.237037023,1,0,0,1.1775,Gabbro_rect,4,1.178,1,10,0,10,0,1,,,,,,,,,,,,,
63c1d184883ce15537788b40,TCN,2024-06-24_16h36.11.074,LearnStrategy,2023.2.3,Win32,60.60606061,9,1,12,0.025925954,-0.009259259,1,0,0,1.3031,rock_grid_rect_2,8,05,-1,-1,1.303,0.40370376,-0.395370413,1,0,0,3.2799,Pumice_rect,8,3.28,1,11,0,11,0,1,,,,,,,,,,,,,
63c1d184883ce15537788b40,TCN,2024-06-24_16h36.11.074,LearnStrategy,2023.2.3,Win32,60.60606061,9,1,13,-0.008333347,-0.001851859,1,0,0,1.1017,rock_grid_rect_2,3,12,-1,-1,1.102,0.154629672,-0.251851894,1,0,0,1.2708,Diorite_rect,3,1.271,1,12,0,12,0,1,,,,,,,,,,,,,
63c1d184883ce15537788b40,TCN,2024-06-24_16h36.11.074,LearnStrategy,2023.2.3,Win32,60.60606061,9,1,14,-0.036111125,-0.003703718,1,0,0,1.7555,rock_grid_rect_2,3,14,-1,-1,1.756,0.109259288,-0.260185171,1,0,0,1.4525,Diorite_rect,3,1.452,1,13,0,13,0,1,,,,,,,,,,,,,
63c1d184883ce15537788b40,TCN,2024-06-24_16h36.11.074,LearnStrategy,2023.2.3,Win32,60.60606061,9,1,15,0.008333347,-0.012962977,1,0,0,0.9738,rock_grid_rect_2,5,02,-1,-1,0.974,-0.373148141,-0.409259302,1,0,0,1.2089,Obsidian_rect,5,1.209,1,14,0,14,0,1,,,,,,,,,,,,,
63c1d184883ce15537788b40,TCN,2024-06-24_16h36.11.074,LearnStrategy,2023.2.3,Win32,60.60606061,9,1,16,-0.055555556,-0.013888889,1,0,0,1.0319,rock_grid_rect_2,6,13,-1,-1,1.032,-0.134259259,-0.393518519,1,0,0,1.8074,Pegmatite_rect,6,1.807,1,15,0,15,0,1,,,,,,,,,,,,,
63c1d184883ce15537788b40,TCN,2024-06-24_16h36.11.074,LearnStrategy,2023.2.3,Win32,60.60606061,9,2,1,,,,,,,,7,10,,,,,,,,,,,7,1.457,1,,,,,,0.147222236,-0.404629672,1,0,0,1.4573,Peridotite_rect,0,0,0,0,1,
63c1d184883ce15537788b40,TCN,2024-06-24_16h36.11.074,LearnStrategy,2023.2.3,Win32,60.60606061,9,2,2,,,,,,,,6,12,,,,,,,,,,,6,5.953,1,,,,,,-0.106481481,-0.392592607,1,0,0,5.953,Pegmatite_rect,1,0,1,0,1,
63c1d184883ce15537788b40,TCN,2024-06-24_16h36.11.074,LearnStrategy,2023.2.3,Win32,60.60606061,9,2,3,,,,,,,,3,13,,,,,,,,,,,3,2.979,1,,,,,,0.088888875,-0.229629658,1,0,0,2.9786,Diorite_rect,2,0,2,0,1,
63c1d184883ce15537788b40,TCN,2024-06-24_16h36.11.074,LearnStrategy,2023.2.3,Win32,60.60606061,9,2,4,,,,,,,,4,16,,,,,,,,,,,4,1.637,1,,,,,,0.37962963,-0.248148176,1,0,0,1.6374,Gabbro_rect,3,0,3,0,1,
63c1d184883ce15537788b40,TCN,2024-06-24_16h36.11.074,LearnStrategy,2023.2.3,Win32,60.60606061,9,2,5,,,,,,,,1,07,,,,,,,,,,,1,1.354,1,,,,,,-0.371296282,-0.247222265,1,0,0,1.3537,Andesite_rect,4,0,4,0,1,
63c1d184883ce15537788b40,TCN,2024-06-24_16h36.11.074,LearnStrategy,2023.2.3,Win32,60.60606061,9,2,6,,,,,,,,5,16,,,,,,,,,,,5,1.106,1,,,,,,-0.408333319,-0.398148148,1,0,0,1.1058,Obsidian_rect,5,0,5,0,1,
63c1d184883ce15537788b40,TCN,2024-06-24_16h36.11.074,LearnStrategy,2023.2.3,Win32,60.60606061,9,2,7,,,,,,,,6,09,,,,,,,,,,,6,1.688,1,,,,,,-0.121296282,-0.396296325,1,0,0,1.688,Pegmatite_rect,6,0,6,0,1,
63c1d184883ce15537788b40,TCN,2024-06-24_16h36.11.074,LearnStrategy,2023.2.3,Win32,60.60606061,9,2,8,,,,,,,,1,16,,,,,,,,,,,1,2.67,1,,,,,,-0.349074081,-0.239814829,1,0,0,2.6702,Andesite_rect,7,0,7,0,1,
63c1d184883ce15537788b40,TCN,2024-06-24_16h36.11.074,LearnStrategy,2023.2.3,Win32,60.60606061,9,2,9,,,,,,,,5,09,,,,,,,,,,,5,1.067,1,,,,,,-0.388888889,-0.408333319,1,0,0,1.0674,Obsidian_rect,8,0,8,0,1,
63c1d184883ce15537788b40,TCN,2024-06-24_16h36.11.074,LearnStrategy,2023.2.3,Win32,60.60606061,9,2,10,,,,,,,,2,06,,,,,,,,,,,2,1.922,1,,,,,,-0.132407365,-0.268518519,1,0,0,1.9219,Basalt_rect,9,0,9,0,1,
63c1d184883ce15537788b40,TCN,2024-06-24_16h36.11.074,LearnStrategy,2023.2.3,Win32,60.60606061,9,2,11,,,,,,,,8,15,,,,,,,,,,,8,1.795,1,,,,,,0.337037122,-0.385185171,1,0,0,1.7952,Pumice_rect,10,0,10,0,1,
63c1d184883ce15537788b40,TCN,2024-06-24_16h36.11.074,LearnStrategy,2023.2.3,Win32,60.60606061,9,2,12,,,,,,,,3,07,,,,,,,,,,,3,1.566,1,,,,,,0.086111139,-0.258333347,1,0,0,1.5664,Diorite_rect,11,0,11,0,1,
63c1d184883ce15537788b40,TCN,2024-06-24_16h36.11.074,LearnStrategy,2023.2.3,Win32,60.60606061,9,2,13,,,,,,,,7,12,,,,,,,,,,,7,1.155,1,,,,,,0.080555598,-0.40370369,1,0,0,1.1552,Peridotite_rect,12,0,12,0,1,
63c1d184883ce15537788b40,TCN,2024-06-24_16h36.11.074,LearnStrategy,2023.2.3,Win32,60.60606061,9,2,14,,,,,,,,4,15,,,,,,,,,,,4,3.395,1,,,,,,0.369444529,-0.253703718,1,0,0,3.3947,Gabbro_rect,13,0,13,0,1,
63c1d184883ce15537788b40,TCN,2024-06-24_16h36.11.074,LearnStrategy,2023.2.3,Win32,60.60606061,9,2,15,,,,,,,,2,01,,,,,,,,,,,2,2.421,1,,,,,,-0.087037051,-0.260185171,1,0,0,2.4213,Basalt_rect,14,0,14,0,1,
63c1d184883ce15537788b40,TCN,2024-06-24_16h36.11.074,LearnStrategy,2023.2.3,Win32,60.60606061,9,2,16,,,,,,,,8,14,,,,,,,,,,,8,1.43,1,,,,,,0.37962963,-0.39907406,1,0,0,1.4305,Pumice_rect,15,0,15,0,1,
63c1d184883ce15537788b40,TCN,2024-06-24_16h36.11.074,LearnStrategy,2023.2.3,Win32,60.60606061,,,,,,,,,,,,,,,,,,,,,,,,,,,,,,,,,,,,,,,,,,,1
63c1d184883ce15537788b40,TCN,2024-06-24_16h36.11.074,LearnStrategy,2023.2.3,Win32,60.60606061,,,,,,,,,,,,,,,,,,,,,,,,,,,,,,,,,,,,,,,,,,,
63c1d184883ce15537788b40,TCN,2024-06-24_16h36.11.074,LearnStrategy,2023.2.3,Win32,60.60606061,,,,,,,,,,,5,04,1,1,,,,,,,,,,,,,,,,,,,,,,,,,,,,,
63c1d184883ce15537788b40,TCN,2024-06-24_16h36.11.074,LearnStrategy,2023.2.3,Win32,60.60606061,,,,,,,,,,,6,06,1,2,,,,,,,,,,,,,,,,,,,,,,,,,,,,,
63c1d184883ce15537788b40,TCN,2024-06-24_16h36.11.074,LearnStrategy,2023.2.3,Win32,60.60606061,,,,,,,,,,,6,03,1,3,,,,,,,,,,,,,,,,,,,,,,,,,,,,,
63c1d184883ce15537788b40,TCN,2024-06-24_16h36.11.074,LearnStrategy,2023.2.3,Win32,60.60606061,,,,,,,,,,,8,13,1,4,,,,,,,,,,,,,,,,,,,,,,,,,,,,,
63c1d184883ce15537788b40,TCN,2024-06-24_16h36.11.074,LearnStrategy,2023.2.3,Win32,60.60606061,,,,,,,,,,,7,06,1,5,,,,,,,,,,,,,,,,,,,,,,,,,,,,,
63c1d184883ce15537788b40,TCN,2024-06-24_16h36.11.074,LearnStrategy,2023.2.3,Win32,60.60606061,,,,,,,,,,,2,16,1,6,,,,,,,,,,,,,,,,,,,,,,,,,,,,,
63c1d184883ce15537788b40,TCN,2024-06-24_16h36.11.074,LearnStrategy,2023.2.3,Win32,60.60606061,,,,,,,,,,,7,07,1,7,,,,,,,,,,,,,,,,,,,,,,,,,,,,,
63c1d184883ce15537788b40,TCN,2024-06-24_16h36.11.074,LearnStrategy,2023.2.3,Win32,60.60606061,,,,,,,,,,,1,02,1,8,,,,,,,,,,,,,,,,,,,,,,,,,,,,,
63c1d184883ce15537788b40,TCN,2024-06-24_16h36.11.074,LearnStrategy,2023.2.3,Win32,60.60606061,,,,,,,,,,,8,08,2,1,,,,,,,,,,,,,,,,,,,,,,,,,,,,,
63c1d184883ce15537788b40,TCN,2024-06-24_16h36.11.074,LearnStrategy,2023.2.3,Win32,60.60606061,,,,,,,,,,,5,02,2,2,,,,,,,,,,,,,,,,,,,,,,,,,,,,,
63c1d184883ce15537788b40,TCN,2024-06-24_16h36.11.074,LearnStrategy,2023.2.3,Win32,60.60606061,,,,,,,,,,,8,16,2,3,,,,,,,,,,,,,,,,,,,,,,,,,,,,,
63c1d184883ce15537788b40,TCN,2024-06-24_16h36.11.074,LearnStrategy,2023.2.3,Win32,60.60606061,,,,,,,,,,,2,11,2,4,,,,,,,,,,,,,,,,,,,,,,,,,,,,,
63c1d184883ce15537788b40,TCN,2024-06-24_16h36.11.074,LearnStrategy,2023.2.3,Win32,60.60606061,,,,,,,,,,,3,09,2,5,,,,,,,,,,,,,,,,,,,,,,,,,,,,,
63c1d184883ce15537788b40,TCN,2024-06-24_16h36.11.074,LearnStrategy,2023.2.3,Win32,60.60606061,,,,,,,,,,,4,08,2,6,,,,,,,,,,,,,,,,,,,,,,,,,,,,,
63c1d184883ce15537788b40,TCN,2024-06-24_16h36.11.074,LearnStrategy,2023.2.3,Win32,60.60606061,,,,,,,,,,,2,09,2,7,,,,,,,,,,,,,,,,,,,,,,,,,,,,,
63c1d184883ce15537788b40,TCN,2024-06-24_16h36.11.074,LearnStrategy,2023.2.3,Win32,60.60606061,,,,,,,,,,,8,05,2,8,,,,,,,,,,,,,,,,,,,,,,,,,,,,,
63c1d184883ce15537788b40,TCN,2024-06-24_16h36.11.074,LearnStrategy,2023.2.3,Win32,60.60606061,,,,,,,,,,,6,10,3,1,,,,,,,,,,,,,,,,,,,,,,,,,,,,,
63c1d184883ce15537788b40,TCN,2024-06-24_16h36.11.074,LearnStrategy,2023.2.3,Win32,60.60606061,,,,,,,,,,,2,10,3,2,,,,,,,,,,,,,,,,,,,,,,,,,,,,,
63c1d184883ce15537788b40,TCN,2024-06-24_16h36.11.074,LearnStrategy,2023.2.3,Win32,60.60606061,,,,,,,,,,,1,11,3,3,,,,,,,,,,,,,,,,,,,,,,,,,,,,,
63c1d184883ce15537788b40,TCN,2024-06-24_16h36.11.074,LearnStrategy,2023.2.3,Win32,60.60606061,,,,,,,,,,,3,08,3,4,,,,,,,,,,,,,,,,,,,,,,,,,,,,,
63c1d184883ce15537788b40,TCN,2024-06-24_16h36.11.074,LearnStrategy,2023.2.3,Win32,60.60606061,,,,,,,,,,,3,02,3,5,,,,,,,,,,,,,,,,,,,,,,,,,,,,,
63c1d184883ce15537788b40,TCN,2024-06-24_16h36.11.074,LearnStrategy,2023.2.3,Win32,60.60606061,,,,,,,,,,,7,13,3,6,,,,,,,,,,,,,,,,,,,,,,,,,,,,,
63c1d184883ce15537788b40,TCN,2024-06-24_16h36.11.074,LearnStrategy,2023.2.3,Win32,60.60606061,,,,,,,,,,,1,06,3,7,,,,,,,,,,,,,,,,,,,,,,,,,,,,,
63c1d184883ce15537788b40,TCN,2024-06-24_16h36.11.074,LearnStrategy,2023.2.3,Win32,60.60606061,,,,,,,,,,,2,02,3,8,,,,,,,,,,,,,,,,,,,,,,,,,,,,,
63c1d184883ce15537788b40,TCN,2024-06-24_16h36.11.074,LearnStrategy,2023.2.3,Win32,60.60606061,,,,,,,,,,,8,10,4,1,,,,,,,,,,,,,,,,,,,,,,,,,,,,,
63c1d184883ce15537788b40,TCN,2024-06-24_16h36.11.074,LearnStrategy,2023.2.3,Win32,60.60606061,,,,,,,,,,,3,11,4,2,,,,,,,,,,,,,,,,,,,,,,,,,,,,,
63c1d184883ce15537788b40,TCN,2024-06-24_16h36.11.074,LearnStrategy,2023.2.3,Win32,60.60606061,,,,,,,,,,,8,03,4,3,,,,,,,,,,,,,,,,,,,,,,,,,,,,,
63c1d184883ce15537788b40,TCN,2024-06-24_16h36.11.074,LearnStrategy,2023.2.3,Win32,60.60606061,,,,,,,,,,,6,11,4,4,,,,,,,,,,,,,,,,,,,,,,,,,,,,,
63c1d184883ce15537788b40,TCN,2024-06-24_16h36.11.074,LearnStrategy,2023.2.3,Win32,60.60606061,,,,,,,,,,,4,12,4,5,,,,,,,,,,,,,,,,,,,,,,,,,,,,,
63c1d184883ce15537788b40,TCN,2024-06-24_16h36.11.074,LearnStrategy,2023.2.3,Win32,60.60606061,,,,,,,,,,,6,13,4,6,,,,,,,,,,,,,,,,,,,,,,,,,,,,,
63c1d184883ce15537788b40,TCN,2024-06-24_16h36.11.074,LearnStrategy,2023.2.3,Win32,60.60606061,,,,,,,,,,,1,03,4,7,,,,,,,,,,,,,,,,,,,,,,,,,,,,,
63c1d184883ce15537788b40,TCN,2024-06-24_16h36.11.074,LearnStrategy,2023.2.3,Win32,60.60606061,,,,,,,,,,,7,02,4,8,,,,,,,,,,,,,,,,,,,,,,,,,,,,,
63c1d184883ce15537788b40,TCN,2024-06-24_16h36.11.074,LearnStrategy,2023.2.3,Win32,60.60606061,,,,,,,,,,,5,11,5,1,,,,,,,,,,,,,,,,,,,,,,,,,,,,,
63c1d184883ce15537788b40,TCN,2024-06-24_16h36.11.074,LearnStrategy,2023.2.3,Win32,60.60606061,,,,,,,,,,,7,08,5,2,,,,,,,,,,,,,,,,,,,,,,,,,,,,,
63c1d184883ce15537788b40,TCN,2024-06-24_16h36.11.074,LearnStrategy,2023.2.3,Win32,60.60606061,,,,,,,,,,,5,05,5,3,,,,,,,,,,,,,,,,,,,,,,,,,,,,,
63c1d184883ce15537788b40,TCN,2024-06-24_16h36.11.074,LearnStrategy,2023.2.3,Win32,60.60606061,,,,,,,,,,,6,15,5,4,,,,,,,,,,,,,,,,,,,,,,,,,,,,,
63c1d184883ce15537788b40,TCN,2024-06-24_16h36.11.074,LearnStrategy,2023.2.3,Win32,60.60606061,,,,,,,,,,,4,10,5,5,,,,,,,,,,,,,,,,,,,,,,,,,,,,,
63c1d184883ce15537788b40,TCN,2024-06-24_16h36.11.074,LearnStrategy,2023.2.3,Win32,60.60606061,,,,,,,,,,,4,14,5,6,,,,,,,,,,,,,,,,,,,,,,,,,,,,,
63c1d184883ce15537788b40,TCN,2024-06-24_16h36.11.074,LearnStrategy,2023.2.3,Win32,60.60606061,,,,,,,,,,,5,06,5,7,,,,,,,,,,,,,,,,,,,,,,,,,,,,,
63c1d184883ce15537788b40,TCN,2024-06-24_16h36.11.074,LearnStrategy,2023.2.3,Win32,60.60606061,,,,,,,,,,,2,04,5,8,,,,,,,,,,,,,,,,,,,,,,,,,,,,,
63c1d184883ce15537788b40,TCN,2024-06-24_16h36.11.074,LearnStrategy,2023.2.3,Win32,60.60606061,,,,,,,,,,,1,09,6,1,,,,,,,,,,,,,,,,,,,,,,,,,,,,,
63c1d184883ce15537788b40,TCN,2024-06-24_16h36.11.074,LearnStrategy,2023.2.3,Win32,60.60606061,,,,,,,,,,,3,12,6,2,,,,,,,,,,,,,,,,,,,,,,,,,,,,,
63c1d184883ce15537788b40,TCN,2024-06-24_16h36.11.074,LearnStrategy,2023.2.3,Win32,60.60606061,,,,,,,,,,,5,12,6,3,,,,,,,,,,,,,,,,,,,,,,,,,,,,,
63c1d184883ce15537788b40,TCN,2024-06-24_16h36.11.074,LearnStrategy,2023.2.3,Win32,60.60606061,,,,,,,,,,,4,11,6,4,,,,,,,,,,,,,,,,,,,,,,,,,,,,,
63c1d184883ce15537788b40,TCN,2024-06-24_16h36.11.074,LearnStrategy,2023.2.3,Win32,60.60606061,,,,,,,,,,,1,04,6,5,,,,,,,,,,,,,,,,,,,,,,,,,,,,,
63c1d184883ce15537788b40,TCN,2024-06-24_16h36.11.074,LearnStrategy,2023.2.3,Win32,60.60606061,,,,,,,,,,,7,14,6,6,,,,,,,,,,,,,,,,,,,,,,,,,,,,,
63c1d184883ce15537788b40,TCN,2024-06-24_16h36.11.074,LearnStrategy,2023.2.3,Win32,60.60606061,,,,,,,,,,,3,14,6,7,,,,,,,,,,,,,,,,,,,,,,,,,,,,,
63c1d184883ce15537788b40,TCN,2024-06-24_16h36.11.074,LearnStrategy,2023.2.3,Win32,60.60606061,,,,,,,,,,,4,09,6,8,,,,,,,,,,,,,,,,,,,,,,,,,,,,,