participant,condition,date,expName,psychopyVersion,OS,frameRate,block,phase,trial,learn_mouse_2.x,learn_mouse_2.y,learn_mouse_2.leftButton,learn_mouse_2.midButton,learn_mouse_2.rightButton,learn_mouse_2.time,learn_mouse_2.clicked_name,cat,token,row,col,t_select,cat_mouse_l.x,cat_mouse_l.y,cat_mouse_l.leftButton,cat_mouse_l.midButton,cat_mouse_l.rightButton,cat_mouse_l.time,cat_mouse_l.clicked_name,resp,t_resp,corr,train_trials.thisRepN,train_trials.thisTrialN,train_trials.thisN,train_trials.thisIndex,train_trials.ran,cat_mouse_t.x,cat_mouse_t.y,cat_mouse_t.leftButton,cat_mouse_t.midButton,cat_mouse_t.rightButton,cat_mouse_t.time,cat_mouse_t.clicked_name,test_trials.thisRepN,test_trials.thisTrialN,test_trials.thisN,test_trials.thisIndex,test_trials.ran,Bonus
63cc62e53735576a651d54a9,TCN,2024-06-11_13h52.44.590,LearnStrategy,2023.2.3,MacIntel,58.47953216,,,,,,,,,,,,,,,,,,,,,,,,,,,,,,,,,,,,,,,,,,,
63cc62e53735576a651d54a9,TCN,2024-06-11_13h52.44.590,LearnStrategy,2023.2.3,MacIntel,58.47953216,1,1,1,0.093823637,-0.002742089,1,0,0,1.4593,rock_grid_rect_2,8,05,-1,-1,1.459,-0.097337158,-0.250634678,1,0,0,2.2859,Basalt_rect,2,2.286,0,0,0,0,0,1,,,,,,,,,,,,,
63cc62e53735576a651d54a9,TCN,2024-06-11_13h52.44.590,LearnStrategy,2023.2.3,MacIntel,58.47953216,1,1,2,0.037242622,0.00080299,1,0,0,1.597,rock_grid_rect_2,7,08,-1,-1,1.597,-0.117899321,-0.401589851,1,0,0,2.8623,Pegmatite_rect,6,2.862,0,1,0,1,0,1,,,,,,,,,,,,,
63cc62e53735576a651d54a9,TCN,2024-06-11_13h52.44.590,LearnStrategy,2023.2.3,MacIntel,58.47953216,1,1,3,-0.016035261,-0.013773564,1,0,0,1.1306,rock_grid_rect_2,8,08,-1,-1,1.131,-0.340608169,-0.240627104,1,0,0,1.7582,Andesite_rect,1,1.758,0,2,0,2,0,1,,,,,,,,,,,,,
63cc62e53735576a651d54a9,TCN,2024-06-11_13h52.44.590,LearnStrategy,2023.2.3,MacIntel,58.47953216,1,1,4,0.019426055,-0.004544434,1,0,0,1.4322,rock_grid_rect_2,4,15,-1,-1,1.432,0.069814576,-0.408914946,1,0,0,2.1428,Peridotite_rect,7,2.143,0,3,0,3,0,1,,,,,,,,,,,,,
63cc62e53735576a651d54a9,TCN,2024-06-11_13h52.44.590,LearnStrategy,2023.2.3,MacIntel,58.47953216,1,1,5,0.035233393,-0.01217109,1,0,0,1.1312,rock_grid_rect_2,3,02,-1,-1,1.131,0.127959493,-0.25825432,1,0,0,1.1618,Diorite_rect,3,1.162,1,4,0,4,0,1,,,,,,,,,,,,,
63cc62e53735576a651d54a9,TCN,2024-06-11_13h52.44.590,LearnStrategy,2023.2.3,MacIntel,58.47953216,1,1,6,0.088525303,-0.003050662,1,0,0,1.4829,rock_grid_rect_2,5,02,-1,-1,1.483,-0.335990098,-0.390870456,1,0,0,3.0446,Obsidian_rect,5,3.045,1,5,0,5,0,1,,,,,,,,,,,,,
63cc62e53735576a651d54a9,TCN,2024-06-11_13h52.44.590,LearnStrategy,2023.2.3,MacIntel,58.47953216,1,1,7,0.038150808,-0.012437584,1,0,0,1.179,rock_grid_rect_2,5,05,-1,-1,1.179,0.039244838,-0.244045949,1,0,0,1.6278,Diorite_rect,3,1.628,0,6,0,6,0,1,,,,,,,,,,,,,
63cc62e53735576a651d54a9,TCN,2024-06-11_13h52.44.590,LearnStrategy,2023.2.3,MacIntel,58.47953216,1,1,8,-0.017490462,-0.007076133,1,0,0,1.416,rock_grid_rect_2,4,08,-1,-1,1.416,-0.079895787,-0.24624453,1,0,0,1.3277,Basalt_rect,2,1.328,0,7,0,7,0,1,,,,,,,,,,,,,
63cc62e53735576a651d54a9,TCN,2024-06-11_13h52.44.590,LearnStrategy,2023.2.3,MacIntel,58.47953216,1,1,9,0.025369586,0.003169883,1,0,0,0.8642,rock_grid_rect_2,6,03,-1,-1,0.864,-0.099192101,-0.413869642,1,0,0,1.8947,Pegmatite_rect,6,1.895,1,8,0,8,0,1,,,,,,,,,,,,,
63cc62e53735576a651d54a9,TCN,2024-06-11_13h52.44.590,LearnStrategy,2023.2.3,MacIntel,58.47953216,1,1,10,0.085811266,-0.010523031,1,0,0,1.2812,rock_grid_rect_2,7,12,-1,-1,1.281,0.120623878,-0.260691343,1,0,0,2.6428,Diorite_rect,3,2.643,0,9,0,9,0,1,,,,,,,,,,,,,
63cc62e53735576a651d54a9,TCN,2024-06-11_13h52.44.590,LearnStrategy,2023.2.3,MacIntel,58.47953216,1,1,11,0.013380835,-0.017248513,1,0,0,1.2633,rock_grid_rect_2,3,08,-1,-1,1.263,-0.333612685,-0.240395674,1,0,0,2.3592,Andesite_rect,1,2.359,0,10,0,10,0,1,,,,,,,,,,,,,
63cc62e53735576a651d54a9,TCN,2024-06-11_13h52.44.590,LearnStrategy,2023.2.3,MacIntel,58.47953216,1,1,12,0.041815109,-0.013145899,1,0,0,0.8146,rock_grid_rect_2,1,10,-1,-1,0.815,-0.081133584,-0.259681469,1,0,0,0.6598,Basalt_rect,2,0.66,0,11,0,11,0,1,,,,,,,,,,,,,
63cc62e53735576a651d54a9,TCN,2024-06-11_13h52.44.590,LearnStrategy,2023.2.3,MacIntel,58.47953216,1,1,13,-0.01392785,-0.006623794,1,0,0,1.4485,rock_grid_rect_2,1,11,-1,-1,1.448,0.153998822,-0.396729831,1,0,0,2.2447,Peridotite_rect,7,2.245,0,12,0,12,0,1,,,,,,,,,,,,,
63cc62e53735576a651d54a9,TCN,2024-06-11_13h52.44.590,LearnStrategy,2023.2.3,MacIntel,58.47953216,1,1,14,0.029293368,-0.00898718,1,0,0,0.6808,rock_grid_rect_2,2,16,-1,-1,0.681,0.341677654,-0.246041152,1,0,0,1.5272,Gabbro_rect,4,1.527,0,13,0,13,0,1,,,,,,,,,,,,,
63cc62e53735576a651d54a9,TCN,2024-06-11_13h52.44.590,LearnStrategy,2023.2.3,MacIntel,58.47953216,1,1,15,0.084001908,0.001875982,1,0,0,1.2146,rock_grid_rect_2,6,15,-1,-1,1.215,0.169430964,-0.235819681,1,0,0,2.4946,Diorite_rect,3,2.495,0,14,0,14,0,1,,,,,,,,,,,,,
63cc62e53735576a651d54a9,TCN,2024-06-11_13h52.44.590,LearnStrategy,2023.2.3,MacIntel,58.47953216,1,1,16,0.10318952,-0.011750309,1,0,0,1.0649,rock_grid_rect_2,2,11,-1,-1,1.065,0.367632827,-0.400278417,1,0,0,3.1433,Pumice_rect,8,3.143,0,15,0,15,0,1,,,,,,,,,,,,,
63cc62e53735576a651d54a9,TCN,2024-06-11_13h52.44.590,LearnStrategy,2023.2.3,MacIntel,58.47953216,1,2,1,,,,,,,,8,16,,,,,,,,,,,3,1.273,0,,,,,,0.176871774,-0.252384425,1,0,0,1.2729,Diorite_rect,0,0,0,0,1,
63cc62e53735576a651d54a9,TCN,2024-06-11_13h52.44.590,LearnStrategy,2023.2.3,MacIntel,58.47953216,1,2,2,,,,,,,,6,07,,,,,,,,,,,6,2.273,1,,,,,,-0.095292864,-0.390330453,1,0,0,2.2731,Pegmatite_rect,1,0,1,0,1,
63cc62e53735576a651d54a9,TCN,2024-06-11_13h52.44.590,LearnStrategy,2023.2.3,MacIntel,58.47953216,1,2,3,,,,,,,,1,14,,,,,,,,,,,2,1.256,0,,,,,,-0.080670725,-0.255645478,1,0,0,1.2563,Basalt_rect,2,0,2,0,1,
63cc62e53735576a651d54a9,TCN,2024-06-11_13h52.44.590,LearnStrategy,2023.2.3,MacIntel,58.47953216,1,2,4,,,,,,,,4,01,,,,,,,,,,,1,2.875,0,,,,,,-0.377938454,-0.257353147,1,0,0,2.8747,Andesite_rect,3,0,3,0,1,
63cc62e53735576a651d54a9,TCN,2024-06-11_13h52.44.590,LearnStrategy,2023.2.3,MacIntel,58.47953216,1,2,5,,,,,,,,2,01,,,,,,,,,,,2,2.324,1,,,,,,-0.11061981,-0.263209016,1,0,0,2.3243,Basalt_rect,4,0,4,0,1,
63cc62e53735576a651d54a9,TCN,2024-06-11_13h52.44.590,LearnStrategy,2023.2.3,MacIntel,58.47953216,1,2,6,,,,,,,,7,05,,,,,,,,,,,7,2.809,1,,,,,,0.121791545,-0.392255526,1,0,0,2.8088,Peridotite_rect,5,0,5,0,1,
63cc62e53735576a651d54a9,TCN,2024-06-11_13h52.44.590,LearnStrategy,2023.2.3,MacIntel,58.47953216,1,2,7,,,,,,,,1,01,,,,,,,,,,,8,1.758,0,,,,,,0.353406923,-0.38973084,1,0,0,1.7579,Pumice_rect,6,0,6,0,1,
63cc62e53735576a651d54a9,TCN,2024-06-11_13h52.44.590,LearnStrategy,2023.2.3,MacIntel,58.47953216,1,2,8,,,,,,,,5,14,,,,,,,,,,,5,2.125,1,,,,,,-0.390975651,-0.413729382,1,0,0,2.1246,Obsidian_rect,7,0,7,0,1,
63cc62e53735576a651d54a9,TCN,2024-06-11_13h52.44.590,LearnStrategy,2023.2.3,MacIntel,58.47953216,1,2,9,,,,,,,,3,10,,,,,,,,,,,4,1.276,0,,,,,,0.349728596,-0.253197935,1,0,0,1.2758,Gabbro_rect,8,0,8,0,1,
63cc62e53735576a651d54a9,TCN,2024-06-11_13h52.44.590,LearnStrategy,2023.2.3,MacIntel,58.47953216,1,2,10,,,,,,,,7,13,,,,,,,,,,,3,2.375,0,,,,,,0.209559442,-0.260260043,1,0,0,2.3752,Diorite_rect,9,0,9,0,1,
63cc62e53735576a651d54a9,TCN,2024-06-11_13h52.44.590,LearnStrategy,2023.2.3,MacIntel,58.47953216,1,2,11,,,,,,,,3,12,,,,,,,,,,,7,5.865,0,,,,,,0.176384369,-0.40616935,1,0,0,5.8649,Peridotite_rect,10,0,10,0,1,
63cc62e53735576a651d54a9,TCN,2024-06-11_13h52.44.590,LearnStrategy,2023.2.3,MacIntel,58.47953216,1,2,12,,,,,,,,4,16,,,,,,,,,,,6,1.525,0,,,,,,-0.097253002,-0.407235329,1,0,0,1.5249,Pegmatite_rect,11,0,11,0,1,
63cc62e53735576a651d54a9,TCN,2024-06-11_13h52.44.590,LearnStrategy,2023.2.3,MacIntel,58.47953216,1,2,13,,,,,,,,5,09,,,,,,,,,,,5,1.047,1,,,,,,-0.336133864,-0.410825993,1,0,0,1.0471,Obsidian_rect,12,0,12,0,1,
63cc62e53735576a651d54a9,TCN,2024-06-11_13h52.44.590,LearnStrategy,2023.2.3,MacIntel,58.47953216,1,2,14,,,,,,,,6,06,,,,,,,,,,,1,2.475,0,,,,,,-0.360006171,-0.25906783,1,0,0,2.4749,Andesite_rect,13,0,13,0,1,
63cc62e53735576a651d54a9,TCN,2024-06-11_13h52.44.590,LearnStrategy,2023.2.3,MacIntel,58.47953216,1,2,15,,,,,,,,2,02,,,,,,,,,,,2,1.458,1,,,,,,-0.096488583,-0.243888156,1,0,0,1.4583,Basalt_rect,14,0,14,0,1,
63cc62e53735576a651d54a9,TCN,2024-06-11_13h52.44.590,LearnStrategy,2023.2.3,MacIntel,58.47953216,1,2,16,,,,,,,,8,13,,,,,,,,,,,3,0.824,0,,,,,,0.131462494,-0.251241304,1,0,0,0.824,Diorite_rect,15,0,15,0,1,
63cc62e53735576a651d54a9,TCN,2024-06-11_13h52.44.590,LearnStrategy,2023.2.3,MacIntel,58.47953216,2,1,1,0.03655184,-0.007840552,1,0,0,1.297,rock_grid_rect_2,3,15,-1,-1,1.297,0.38870694,-0.239529567,1,0,0,1.1937,Gabbro_rect,4,1.194,0,0,0,0,0,1,,,,,,,,,,,,,
63cc62e53735576a651d54a9,TCN,2024-06-11_13h52.44.590,LearnStrategy,2023.2.3,MacIntel,58.47953216,2,1,2,0.070070551,-0.008580425,1,0,0,1.5659,rock_grid_rect_2,3,16,-1,-1,1.566,-0.109911496,-0.243404258,1,0,0,1.6946,Basalt_rect,2,1.695,0,1,0,1,0,1,,,,,,,,,,,,,
63cc62e53735576a651d54a9,TCN,2024-06-11_13h52.44.590,LearnStrategy,2023.2.3,MacIntel,58.47953216,2,1,3,0.01504292,-0.01849683,1,0,0,1.0489,rock_grid_rect_2,4,12,-1,-1,1.049,-0.397311911,-0.243348154,1,0,0,0.7928,Andesite_rect,1,0.793,0,2,0,2,0,1,,,,,,,,,,,,,
63cc62e53735576a651d54a9,TCN,2024-06-11_13h52.44.590,LearnStrategy,2023.2.3,MacIntel,58.47953216,2,1,4,0.039490294,0.004597032,1,0,0,1.7982,rock_grid_rect_2,1,04,-1,-1,1.798,-0.102162113,-0.415380947,1,0,0,0.8769,Pegmatite_rect,6,0.877,0,3,0,3,0,1,,,,,,,,,,,,,
63cc62e53735576a651d54a9,TCN,2024-06-11_13h52.44.590,LearnStrategy,2023.2.3,MacIntel,58.47953216,2,1,5,0.005803271,0.001206239,1,0,0,1.7321,rock_grid_rect_2,6,10,-1,-1,1.732,-0.333402295,-0.386964206,1,0,0,0.6274,Obsidian_rect,5,0.627,0,4,0,4,0,1,,,,,,,,,,,,,
63cc62e53735576a651d54a9,TCN,2024-06-11_13h52.44.590,LearnStrategy,2023.2.3,MacIntel,58.47953216,2,1,6,-0.006939379,-0.02285542,1,0,0,1.2647,rock_grid_rect_2,6,13,-1,-1,1.265,0.192205734,-0.411152098,1,0,0,1.078,Peridotite_rect,7,1.078,0,5,0,5,0,1,,,,,,,,,,,,,
63cc62e53735576a651d54a9,TCN,2024-06-11_13h52.44.590,LearnStrategy,2023.2.3,MacIntel,58.47953216,2,1,7,0.055753478,-0.007247952,1,0,0,0.8308,rock_grid_rect_2,2,10,-1,-1,0.831,0.06043116,-0.408115462,1,0,0,3.2944,Peridotite_rect,7,3.294,0,6,0,6,0,1,,,,,,,,,,,,,
63cc62e53735576a651d54a9,TCN,2024-06-11_13h52.44.590,LearnStrategy,2023.2.3,MacIntel,58.47953216,2,1,8,-0.027312191,-0.013892785,1,0,0,1.0139,rock_grid_rect_2,4,10,-1,-1,1.014,-0.111857608,-0.255070411,1,0,0,0.5437,Basalt_rect,2,0.544,0,7,0,7,0,1,,,,,,,,,,,,,
63cc62e53735576a651d54a9,TCN,2024-06-11_13h52.44.590,LearnStrategy,2023.2.3,MacIntel,58.47953216,2,1,9,0.038883668,0.003587158,1,0,0,1.2816,rock_grid_rect_2,7,16,-1,-1,1.282,0.119074001,-0.240599052,1,0,0,1.0311,Diorite_rect,3,1.031,0,8,0,8,0,1,,,,,,,,,,,,,
63cc62e53735576a651d54a9,TCN,2024-06-11_13h52.44.590,LearnStrategy,2023.2.3,MacIntel,58.47953216,2,1,10,0.110556693,-0.00612587,1,0,0,0.9491,rock_grid_rect_2,8,14,-1,-1,0.949,0.379754825,-0.246433881,1,0,0,0.8773,Gabbro_rect,4,0.877,0,9,0,9,0,1,,,,,,,,,,,,,
63cc62e53735576a651d54a9,TCN,2024-06-11_13h52.44.590,LearnStrategy,2023.2.3,MacIntel,58.47953216,2,1,11,0.117366332,-0.020755021,1,0,0,1.0652,rock_grid_rect_2,2,08,-1,-1,1.065,0.394348912,-0.404661552,1,0,0,0.5932,Pumice_rect,8,0.593,0,10,0,10,0,1,,,,,,,,,,,,,
63cc62e53735576a651d54a9,TCN,2024-06-11_13h52.44.590,LearnStrategy,2023.2.3,MacIntel,58.47953216,2,1,12,0.03426209,-0.001248317,1,0,0,0.9486,rock_grid_rect_2,7,07,-1,-1,0.949,-0.073086148,-0.243916208,1,0,0,0.6925,Basalt_rect,2,0.692,0,11,0,11,0,1,,,,,,,,,,,,,
63cc62e53735576a651d54a9,TCN,2024-06-11_13h52.44.590,LearnStrategy,2023.2.3,MacIntel,58.47953216,2,1,13,0.05431581,0.016182535,1,0,0,2.0654,rock_grid_rect_2,5,16,-1,-1,2.065,-0.368204387,-0.387868885,1,0,0,1.8776,Obsidian_rect,5,1.878,1,12,0,12,0,1,,,,,,,,,,,,,
63cc62e53735576a651d54a9,TCN,2024-06-11_13h52.44.590,LearnStrategy,2023.2.3,MacIntel,58.47953216,2,1,14,0.029542331,-0.008268346,1,0,0,1.1647,rock_grid_rect_2,5,10,-1,-1,1.165,-0.373867398,-0.403322066,1,0,0,1.3615,Obsidian_rect,5,1.361,1,13,0,13,0,1,,,,,,,,,,,,,
63cc62e53735576a651d54a9,TCN,2024-06-11_13h52.44.590,LearnStrategy,2023.2.3,MacIntel,58.47953216,2,1,15,0.058428944,-0.008524321,1,0,0,0.9648,rock_grid_rect_2,8,09,-1,-1,0.965,-0.118982832,-0.263878759,1,0,0,2.0607,Basalt_rect,2,2.061,0,14,0,14,0,1,,,,,,,,,,,,,
63cc62e53735576a651d54a9,TCN,2024-06-11_13h52.44.590,LearnStrategy,2023.2.3,MacIntel,58.47953216,2,1,16,0.05085138,-0.003390793,1,0,0,0.8815,rock_grid_rect_2,1,03,-1,-1,0.882,0.364392813,-0.256020674,1,0,0,1.5439,Gabbro_rect,4,1.544,0,15,0,15,0,1,,,,,,,,,,,,,
63cc62e53735576a651d54a9,TCN,2024-06-11_13h52.44.590,LearnStrategy,2023.2.3,MacIntel,58.47953216,2,2,1,,,,,,,,3,11,,,,,,,,,,,4,9.574,0,,,,,,0.342806749,-0.239017617,1,0,0,9.5744,Gabbro_rect,0,0,0,0,1,
63cc62e53735576a651d54a9,TCN,2024-06-11_13h52.44.590,LearnStrategy,2023.2.3,MacIntel,58.47953216,2,2,2,,,,,,,,5,12,,,,,,,,,,,5,1.407,1,,,,,,-0.340169855,-0.378033129,1,0,0,1.4071,Obsidian_rect,1,0,1,0,1,
63cc62e53735576a651d54a9,TCN,2024-06-11_13h52.44.590,LearnStrategy,2023.2.3,MacIntel,58.47953216,2,2,3,,,,,,,,6,09,,,,,,,,,,,3,1.409,0,,,,,,0.142493969,-0.242727502,1,0,0,1.4088,Diorite_rect,2,0,2,0,1,
63cc62e53735576a651d54a9,TCN,2024-06-11_13h52.44.590,LearnStrategy,2023.2.3,MacIntel,58.47953216,2,2,4,,,,,,,,4,13,,,,,,,,,,,7,1.24,0,,,,,,0.163385744,-0.402378815,1,0,0,1.2405,Peridotite_rect,3,0,3,0,1,
63cc62e53735576a651d54a9,TCN,2024-06-11_13h52.44.590,LearnStrategy,2023.2.3,MacIntel,58.47953216,2,2,5,,,,,,,,2,14,,,,,,,,,,,6,1.942,0,,,,,,-0.094346106,-0.402322711,1,0,0,1.9417,Pegmatite_rect,4,0,4,0,1,
63cc62e53735576a651d54a9,TCN,2024-06-11_13h52.44.590,LearnStrategy,2023.2.3,MacIntel,58.47953216,2,2,6,,,,,,,,2,05,,,,,,,,,,,2,1.059,1,,,,,,-0.080674231,-0.261459268,1,0,0,1.0588,Basalt_rect,5,0,5,0,1,
63cc62e53735576a651d54a9,TCN,2024-06-11_13h52.44.590,LearnStrategy,2023.2.3,MacIntel,58.47953216,2,2,7,,,,,,,,7,14,,,,,,,,,,,1,1.309,0,,,,,,-0.312363246,-0.248169603,1,0,0,1.3091,Andesite_rect,6,0,6,0,1,
63cc62e53735576a651d54a9,TCN,2024-06-11_13h52.44.590,LearnStrategy,2023.2.3,MacIntel,58.47953216,2,2,8,,,,,,,,6,11,,,,,,,,,,,5,2.042,0,,,,,,-0.336852699,-0.394952031,1,0,0,2.0415,Obsidian_rect,7,0,7,0,1,
63cc62e53735576a651d54a9,TCN,2024-06-11_13h52.44.590,LearnStrategy,2023.2.3,MacIntel,58.47953216,2,2,9,,,,,,,,7,04,,,,,,,,,,,8,1.374,0,,,,,,0.393104101,-0.39091604,1,0,0,1.374,Pumice_rect,8,0,8,0,1,
63cc62e53735576a651d54a9,TCN,2024-06-11_13h52.44.590,LearnStrategy,2023.2.3,MacIntel,58.47953216,2,2,10,,,,,,,,3,06,,,,,,,,,,,8,1.091,0,,,,,,0.393998261,-0.39091604,1,0,0,1.0914,Pumice_rect,9,0,9,0,1,
63cc62e53735576a651d54a9,TCN,2024-06-11_13h52.44.590,LearnStrategy,2023.2.3,MacIntel,58.47953216,2,2,11,,,,,,,,1,06,,,,,,,,,,,4,0.975,0,,,,,,0.400523872,-0.248106486,1,0,0,0.9753,Gabbro_rect,10,0,10,0,1,
63cc62e53735576a651d54a9,TCN,2024-06-11_13h52.44.590,LearnStrategy,2023.2.3,MacIntel,58.47953216,2,2,12,,,,,,,,8,04,,,,,,,,,,,2,1.225,0,,,,,,-0.043084465,-0.267097733,1,0,0,1.225,Basalt_rect,11,0,11,0,1,
63cc62e53735576a651d54a9,TCN,2024-06-11_13h52.44.590,LearnStrategy,2023.2.3,MacIntel,58.47953216,2,2,13,,,,,,,,8,03,,,,,,,,,,,7,0.726,0,,,,,,0.168291349,-0.40735455,1,0,0,0.7255,Peridotite_rect,12,0,12,0,1,
63cc62e53735576a651d54a9,TCN,2024-06-11_13h52.44.590,LearnStrategy,2023.2.3,MacIntel,58.47953216,2,2,14,,,,,,,,5,06,,,,,,,,,,,5,1.174,1,,,,,,-0.350675353,-0.383948609,1,0,0,1.1742,Obsidian_rect,13,0,13,0,1,
63cc62e53735576a651d54a9,TCN,2024-06-11_13h52.44.590,LearnStrategy,2023.2.3,MacIntel,58.47953216,2,2,15,,,,,,,,4,03,,,,,,,,,,,6,0.957,0,,,,,,-0.129698721,-0.401053355,1,0,0,0.9565,Pegmatite_rect,14,0,14,0,1,
63cc62e53735576a651d54a9,TCN,2024-06-11_13h52.44.590,LearnStrategy,2023.2.3,MacIntel,58.47953216,2,2,16,,,,,,,,1,09,,,,,,,,,,,3,1.208,0,,,,,,0.098448721,-0.265425129,1,0,0,1.2077,Diorite_rect,15,0,15,0,1,
63cc62e53735576a651d54a9,TCN,2024-06-11_13h52.44.590,LearnStrategy,2023.2.3,MacIntel,58.47953216,3,1,1,0.05438594,-0.001192213,1,0,0,1.4316,rock_grid_rect_2,2,09,-1,-1,1.432,-0.113698524,-0.262630442,1,0,0,2.1812,Basalt_rect,2,2.181,1,0,0,0,0,1,,,,,,,,,,,,,
63cc62e53735576a651d54a9,TCN,2024-06-11_13h52.44.590,LearnStrategy,2023.2.3,MacIntel,58.47953216,3,1,2,0.056619586,-0.013906811,1,0,0,1.2481,rock_grid_rect_2,6,16,-1,-1,1.248,0.336835166,-0.398402435,1,0,0,4.4284,Pumice_rect,8,4.428,0,1,0,1,0,1,,,,,,,,,,,,,
63cc62e53735576a651d54a9,TCN,2024-06-11_13h52.44.590,LearnStrategy,2023.2.3,MacIntel,58.47953216,3,1,3,0.111058124,0.016585783,1,0,0,4.2794,rock_grid_rect_2,5,08,-1,-1,4.279,-0.348462747,-0.380954051,1,0,0,1.1423,Obsidian_rect,5,1.142,1,2,0,2,0,1,,,,,,,,,,,,,
63cc62e53735576a651d54a9,TCN,2024-06-11_13h52.44.590,LearnStrategy,2023.2.3,MacIntel,58.47953216,3,1,4,0.079660851,-0.013412393,1,0,0,1.6146,rock_grid_rect_2,7,02,-1,-1,1.615,0.111710334,-0.401148031,1,0,0,1.4113,Peridotite_rect,7,1.411,1,3,0,3,0,1,,,,,,,,,,,,,
63cc62e53735576a651d54a9,TCN,2024-06-11_13h52.44.590,LearnStrategy,2023.2.3,MacIntel,58.47953216,3,1,5,0.087831014,-0.011164722,1,0,0,1.6501,rock_grid_rect_2,3,09,-1,-1,1.65,-0.081733197,-0.387960054,1,0,0,2.0588,Pegmatite_rect,6,2.059,0,4,0,4,0,1,,,,,,,,,,,,,
63cc62e53735576a651d54a9,TCN,2024-06-11_13h52.44.590,LearnStrategy,2023.2.3,MacIntel,58.47953216,3,1,6,-0.018917611,-0.004758331,1,0,0,0.8326,rock_grid_rect_2,5,11,-1,-1,0.833,-0.365893599,-0.40248401,1,0,0,0.9475,Obsidian_rect,5,0.947,1,5,0,5,0,1,,,,,,,,,,,,,
63cc62e53735576a651d54a9,TCN,2024-06-11_13h52.44.590,LearnStrategy,2023.2.3,MacIntel,58.47953216,3,1,7,0.039027435,-0.023514643,1,0,0,0.7819,rock_grid_rect_2,6,05,-1,-1,0.782,-0.318040283,-0.243986339,1,0,0,0.9768,Andesite_rect,1,0.977,0,6,0,6,0,1,,,,,,,,,,,,,
63cc62e53735576a651d54a9,TCN,2024-06-11_13h52.44.590,LearnStrategy,2023.2.3,MacIntel,58.47953216,3,1,8,-0.029921033,-0.020064239,1,0,0,0.6816,rock_grid_rect_2,8,02,-1,-1,0.682,-0.081035402,-0.259558741,1,0,0,0.5621,Basalt_rect,2,0.562,0,7,0,7,0,1,,,,,,,,,,,,,
63cc62e53735576a651d54a9,TCN,2024-06-11_13h52.44.590,LearnStrategy,2023.2.3,MacIntel,58.47953216,3,1,9,0.091789862,0.012465636,1,0,0,0.7652,rock_grid_rect_2,4,11,-1,-1,0.765,0.380421061,-0.417120175,1,0,0,0.8758,Pumice_rect,8,0.876,0,8,0,8,0,1,,,,,,,,,,,,,
63cc62e53735576a651d54a9,TCN,2024-06-11_13h52.44.590,LearnStrategy,2023.2.3,MacIntel,58.47953216,3,1,10,0.078998121,-0.004961709,1,0,0,1.1148,rock_grid_rect_2,3,07,-1,-1,1.115,0.412211064,-0.229988358,1,0,0,0.6431,Gabbro_rect,4,0.643,0,9,0,9,0,1,,,,,,,,,,,,,
63cc62e53735576a651d54a9,TCN,2024-06-11_13h52.44.590,LearnStrategy,2023.2.3,MacIntel,58.47953216,3,1,11,0.105433685,-0.015046426,1,0,0,1.8809,rock_grid_rect_2,7,06,-1,-1,1.881,0.129730279,-0.267248513,1,0,0,1.1939,Diorite_rect,3,1.194,0,10,0,10,0,1,,,,,,,,,,,,,
63cc62e53735576a651d54a9,TCN,2024-06-11_13h52.44.590,LearnStrategy,2023.2.3,MacIntel,58.47953216,3,1,12,0.071424063,-0.023433993,1,0,0,1.1318,rock_grid_rect_2,1,07,-1,-1,1.132,0.116721134,-0.408669491,1,0,0,0.8609,Peridotite_rect,7,0.861,0,11,0,11,0,1,,,,,,,,,,,,,
63cc62e53735576a651d54a9,TCN,2024-06-11_13h52.44.590,LearnStrategy,2023.2.3,MacIntel,58.47953216,3,1,13,0.027922324,0.000434807,1,0,0,1.6151,rock_grid_rect_2,2,04,-1,-1,1.615,-0.060227783,-0.229634201,1,0,0,1.1592,Basalt_rect,2,1.159,1,12,0,12,0,1,,,,,,,,,,,,,
63cc62e53735576a651d54a9,TCN,2024-06-11_13h52.44.590,LearnStrategy,2023.2.3,MacIntel,58.47953216,3,1,14,0.049571505,-0.012174596,1,0,0,1.2985,rock_grid_rect_2,4,09,-1,-1,1.298,-0.055413347,-0.39092656,1,0,0,1.7451,Pegmatite_rect,6,1.745,0,13,0,13,0,1,,,,,,,,,,,,,
63cc62e53735576a651d54a9,TCN,2024-06-11_13h52.44.590,LearnStrategy,2023.2.3,MacIntel,58.47953216,3,1,15,0.032848968,0.001784813,1,0,0,3.2644,rock_grid_rect_2,8,15,-1,-1,3.264,0.095264811,-0.399054645,1,0,0,4.3107,Peridotite_rect,7,4.311,0,14,0,14,0,1,,,,,,,,,,,,,
63cc62e53735576a651d54a9,TCN,2024-06-11_13h52.44.590,LearnStrategy,2023.2.3,MacIntel,58.47953216,3,1,16,0.085902435,-0.019405016,1,0,0,1.1135,rock_grid_rect_2,1,02,-1,-1,1.114,-0.063355588,-0.258313931,1,0,0,1.128,Basalt_rect,2,1.128,0,15,0,15,0,1,,,,,,,,,,,,,
63cc62e53735576a651d54a9,TCN,2024-06-11_13h52.44.590,LearnStrategy,2023.2.3,MacIntel,58.47953216,3,2,1,,,,,,,,5,04,,,,,,,,,,,5,1.109,1,,,,,,-0.379439239,-0.381925353,1,0,0,1.1093,Obsidian_rect,0,0,0,0,1,
63cc62e53735576a651d54a9,TCN,2024-06-11_13h52.44.590,LearnStrategy,2023.2.3,MacIntel,58.47953216,3,2,2,,,,,,,,4,14,,,,,,,,,,,8,2.412,0,,,,,,0.386946673,-0.398265681,1,0,0,2.4116,Pumice_rect,1,0,1,0,1,
63cc62e53735576a651d54a9,TCN,2024-06-11_13h52.44.590,LearnStrategy,2023.2.3,MacIntel,58.47953216,3,2,3,,,,,,,,1,16,,,,,,,,,,,7,1.374,0,,,,,,0.149201919,-0.407210783,1,0,0,1.3742,Peridotite_rect,2,0,2,0,1,
63cc62e53735576a651d54a9,TCN,2024-06-11_13h52.44.590,LearnStrategy,2023.2.3,MacIntel,58.47953216,3,2,4,,,,,,,,6,08,,,,,,,,,,,3,2.291,0,,,,,,0.178481261,-0.228242117,1,0,0,2.2912,Diorite_rect,3,0,3,0,1,
63cc62e53735576a651d54a9,TCN,2024-06-11_13h52.44.590,LearnStrategy,2023.2.3,MacIntel,58.47953216,3,2,5,,,,,,,,8,06,,,,,,,,,,,6,1.208,0,,,,,,-0.073808489,-0.409181441,1,0,0,1.2082,Pegmatite_rect,4,0,4,0,1,
63cc62e53735576a651d54a9,TCN,2024-06-11_13h52.44.590,LearnStrategy,2023.2.3,MacIntel,58.47953216,3,2,6,,,,,,,,6,12,,,,,,,,,,,3,4.506,0,,,,,,0.080390204,-0.268454752,1,0,0,4.5064,Diorite_rect,5,0,5,0,1,
63cc62e53735576a651d54a9,TCN,2024-06-11_13h52.44.590,LearnStrategy,2023.2.3,MacIntel,58.47953216,3,2,7,,,,,,,,5,07,,,,,,,,,,,5,1.183,1,,,,,,-0.340923754,-0.415703546,1,0,0,1.1827,Obsidian_rect,6,0,6,0,1,
63cc62e53735576a651d54a9,TCN,2024-06-11_13h52.44.590,LearnStrategy,2023.2.3,MacIntel,58.47953216,3,2,8,,,,,,,,2,06,,,,,,,,,,,4,4.965,0,,,,,,0.409966899,-0.265733702,1,0,0,4.9652,Gabbro_rect,7,0,7,0,1,
63cc62e53735576a651d54a9,TCN,2024-06-11_13h52.44.590,LearnStrategy,2023.2.3,MacIntel,58.47953216,3,2,9,,,,,,,,1,05,,,,,,,,,,,8,1.648,0,,,,,,0.361678776,-0.404594928,1,0,0,1.648,Pumice_rect,8,0,8,0,1,
63cc62e53735576a651d54a9,TCN,2024-06-11_13h52.44.590,LearnStrategy,2023.2.3,MacIntel,58.47953216,3,2,10,,,,,,,,7,15,,,,,,,,,,,2,1.14,0,,,,,,-0.07319485,-0.24698791,1,0,0,1.1401,Basalt_rect,9,0,9,0,1,
63cc62e53735576a651d54a9,TCN,2024-06-11_13h52.44.590,LearnStrategy,2023.2.3,MacIntel,58.47953216,3,2,11,,,,,,,,3,14,,,,,,,,,,,3,0.692,1,,,,,,0.196385491,-0.260922773,1,0,0,0.6922,Diorite_rect,10,0,10,0,1,
63cc62e53735576a651d54a9,TCN,2024-06-11_13h52.44.590,LearnStrategy,2023.2.3,MacIntel,58.47953216,3,2,12,,,,,,,,3,13,,,,,,,,,,,1,1.042,0,,,,,,-0.328808769,-0.257942241,1,0,0,1.0419,Andesite_rect,11,0,11,0,1,
63cc62e53735576a651d54a9,TCN,2024-06-11_13h52.44.590,LearnStrategy,2023.2.3,MacIntel,58.47953216,3,2,13,,,,,,,,4,05,,,,,,,,,,,1,2.642,0,,,,,,-0.360602278,-0.235679421,1,0,0,2.6421,Andesite_rect,12,0,12,0,1,
63cc62e53735576a651d54a9,TCN,2024-06-11_13h52.44.590,LearnStrategy,2023.2.3,MacIntel,58.47953216,3,2,14,,,,,,,,7,10,,,,,,,,,,,8,2.276,0,,,,,,0.341874018,-0.402817129,1,0,0,2.2761,Pumice_rect,13,0,13,0,1,
63cc62e53735576a651d54a9,TCN,2024-06-11_13h52.44.590,LearnStrategy,2023.2.3,MacIntel,58.47953216,3,2,15,,,,,,,,2,12,,,,,,,,,,,4,2.332,0,,,,,,0.360058769,-0.257261978,1,0,0,2.3321,Gabbro_rect,14,0,14,0,1,
63cc62e53735576a651d54a9,TCN,2024-06-11_13h52.44.590,LearnStrategy,2023.2.3,MacIntel,58.47953216,3,2,16,,,,,,,,8,10,,,,,,,,,,,4,1.18,0,,,,,,0.336056721,-0.25470924,1,0,0,1.1804,Gabbro_rect,15,0,15,0,1,
63cc62e53735576a651d54a9,TCN,2024-06-11_13h52.44.590,LearnStrategy,2023.2.3,MacIntel,58.47953216,4,1,1,0.081582417,0.003979887,1,0,0,2.1339,rock_grid_rect_2,5,05,-1,-1,2.134,-0.350924316,-0.378699366,1,0,0,2.2262,Obsidian_rect,5,2.226,1,0,0,0,0,1,,,,,,,,,,,,,
63cc62e53735576a651d54a9,TCN,2024-06-11_13h52.44.590,LearnStrategy,2023.2.3,MacIntel,58.47953216,4,1,2,0.046380582,-0.016161496,1,0,0,2.1194,rock_grid_rect_2,4,15,-1,-1,2.119,-0.331978652,-0.244119586,1,0,0,2.7448,Andesite_rect,1,2.745,0,1,0,1,0,1,,,,,,,,,,,,,
63cc62e53735576a651d54a9,TCN,2024-06-11_13h52.44.590,LearnStrategy,2023.2.3,MacIntel,58.47953216,4,1,3,0.079748513,-0.012286804,1,0,0,1.1658,rock_grid_rect_2,3,09,-1,-1,1.166,-0.073619137,-0.387497195,1,0,0,1.48,Pegmatite_rect,6,1.48,0,2,0,2,0,1,,,,,,,,,,,,,
63cc62e53735576a651d54a9,TCN,2024-06-11_13h52.44.590,LearnStrategy,2023.2.3,MacIntel,58.47953216,4,1,4,0.041092768,-0.017483449,1,0,0,1.5487,rock_grid_rect_2,7,12,-1,-1,1.549,0.089976997,-0.252998064,1,0,0,1.2088,Diorite_rect,3,1.209,0,3,0,3,0,1,,,,,,,,,,,,,
63cc62e53735576a651d54a9,TCN,2024-06-11_13h52.44.590,LearnStrategy,2023.2.3,MacIntel,58.47953216,4,1,5,-0.03522638,0.010358225,1,0,0,1.1316,rock_grid_rect_2,6,15,-1,-1,1.132,0.107618239,-0.391533186,1,0,0,5.0613,Peridotite_rect,7,5.061,0,4,0,4,0,1,,,,,,,,,,,,,
63cc62e53735576a651d54a9,TCN,2024-06-11_13h52.44.590,LearnStrategy,2023.2.3,MacIntel,58.47953216,4,1,6,0.077206295,-0.016007209,1,0,0,2.1642,rock_grid_rect_2,5,11,-1,-1,2.164,-0.361398255,-0.38996227,1,0,0,1.0607,Obsidian_rect,5,1.061,1,5,0,5,0,1,,,,,,,,,,,,,
63cc62e53735576a651d54a9,TCN,2024-06-11_13h52.44.590,LearnStrategy,2023.2.3,MacIntel,58.47953216,4,1,7,0.040289778,-0.015004348,1,0,0,2.215,rock_grid_rect_2,7,08,-1,-1,2.215,0.130768206,-0.237201246,1,0,0,1.761,Diorite_rect,3,1.761,0,6,0,6,0,1,,,,,,,,,,,,,
63cc62e53735576a651d54a9,TCN,2024-06-11_13h52.44.590,LearnStrategy,2023.2.3,MacIntel,58.47953216,4,1,8,0.078286299,-0.015260323,1,0,0,1.4818,rock_grid_rect_2,6,05,-1,-1,1.482,-0.041538095,-0.236812023,1,0,0,1.1121,Basalt_rect,2,1.112,0,7,0,7,0,1,,,,,,,,,,,,,
63cc62e53735576a651d54a9,TCN,2024-06-11_13h52.44.590,LearnStrategy,2023.2.3,MacIntel,58.47953216,4,1,9,0.029907007,-0.023788151,1,0,0,1.5666,rock_grid_rect_2,1,03,-1,-1,1.567,0.134078349,-0.256665872,1,0,0,1.508,Diorite_rect,3,1.508,0,8,0,8,0,1,,,,,,,,,,,,,
63cc62e53735576a651d54a9,TCN,2024-06-11_13h52.44.590,LearnStrategy,2023.2.3,MacIntel,58.47953216,4,1,10,0.057405044,-0.015130582,1,0,0,1.764,rock_grid_rect_2,2,08,-1,-1,1.764,-0.34398143,-0.270393851,1,0,0,1.1784,Andesite_rect,1,1.178,0,9,0,9,0,1,,,,,,,,,,,,,
63cc62e53735576a651d54a9,TCN,2024-06-11_13h52.44.590,LearnStrategy,2023.2.3,MacIntel,58.47953216,4,1,11,0.09175129,-0.008671594,1,0,0,1.3479,rock_grid_rect_2,3,07,-1,-1,1.348,0.389488891,-0.406705846,1,0,0,2.4433,Pumice_rect,8,2.443,0,10,0,10,0,1,,,,,,,,,,,,,
63cc62e53735576a651d54a9,TCN,2024-06-11_13h52.44.590,LearnStrategy,2023.2.3,MacIntel,58.47953216,4,1,12,0.124445972,-0.002054814,1,0,0,1.2302,rock_grid_rect_2,8,05,-1,-1,1.23,0.185020899,-0.23032849,1,0,0,0.8286,Diorite_rect,3,0.829,0,11,0,11,0,1,,,,,,,,,,,,,
63cc62e53735576a651d54a9,TCN,2024-06-11_13h52.44.590,LearnStrategy,2023.2.3,MacIntel,58.47953216,4,1,13,0.022308404,-0.008040423,1,0,0,1.0641,rock_grid_rect_2,4,10,-1,-1,1.064,0.101148732,-0.410247419,1,0,0,2.6929,Peridotite_rect,7,2.693,0,12,0,12,0,1,,,,,,,,,,,,,
63cc62e53735576a651d54a9,TCN,2024-06-11_13h52.44.590,LearnStrategy,2023.2.3,MacIntel,58.47953216,4,1,14,0.03375014,-0.010421342,1,0,0,0.9162,rock_grid_rect_2,2,11,-1,-1,0.916,0.078738639,-0.238298783,1,0,0,3.4088,Diorite_rect,3,3.409,0,13,0,13,0,1,,,,,,,,,,,,,
63cc62e53735576a651d54a9,TCN,2024-06-11_13h52.44.590,LearnStrategy,2023.2.3,MacIntel,58.47953216,4,1,15,0.074941091,-0.018605532,1,0,0,1.2325,rock_grid_rect_2,8,14,-1,-1,1.233,0.322777575,-0.248671033,1,0,0,1.8123,Gabbro_rect,4,1.812,0,14,0,14,0,1,,,,,,,,,,,,,
63cc62e53735576a651d54a9,TCN,2024-06-11_13h52.44.590,LearnStrategy,2023.2.3,MacIntel,58.47953216,4,1,16,0.126851436,-0.007233926,1,0,0,1.2473,rock_grid_rect_2,1,04,-1,-1,1.247,-0.089233618,-0.409160402,1,0,0,1.1448,Pegmatite_rect,6,1.145,0,15,0,15,0,1,,,,,,,,,,,,,
63cc62e53735576a651d54a9,TCN,2024-06-11_13h52.44.590,LearnStrategy,2023.2.3,MacIntel,58.47953216,4,2,1,,,,,,,,7,14,,,,,,,,,,,3,2.573,0,,,,,,0.119354522,-0.229350174,1,0,0,2.573,Diorite_rect,0,0,0,0,1,
63cc62e53735576a651d54a9,TCN,2024-06-11_13h52.44.590,LearnStrategy,2023.2.3,MacIntel,58.47953216,4,2,2,,,,,,,,4,05,,,,,,,,,,,8,1.648,0,,,,,,0.353396404,-0.381595742,1,0,0,1.6475,Pumice_rect,1,0,1,0,1,
63cc62e53735576a651d54a9,TCN,2024-06-11_13h52.44.590,LearnStrategy,2023.2.3,MacIntel,58.47953216,4,2,3,,,,,,,,6,07,,,,,,,,,,,7,3.891,0,,,,,,0.151814267,-0.412673923,1,0,0,3.8915,Peridotite_rect,2,0,2,0,1,
63cc62e53735576a651d54a9,TCN,2024-06-11_13h52.44.590,LearnStrategy,2023.2.3,MacIntel,58.47953216,4,2,4,,,,,,,,2,14,,,,,,,,,,,1,1.767,0,,,,,,-0.343444934,-0.254761838,1,0,0,1.7672,Andesite_rect,3,0,3,0,1,
63cc62e53735576a651d54a9,TCN,2024-06-11_13h52.44.590,LearnStrategy,2023.2.3,MacIntel,58.47953216,4,2,5,,,,,,,,5,09,,,,,,,,,,,5,1.491,1,,,,,,-0.346316764,-0.411639503,1,0,0,1.4915,Obsidian_rect,4,0,4,0,1,
63cc62e53735576a651d54a9,TCN,2024-06-11_13h52.44.590,LearnStrategy,2023.2.3,MacIntel,58.47953216,4,2,6,,,,,,,,8,13,,,,,,,,,,,6,1.441,0,,,,,,-0.113912421,-0.409518066,1,0,0,1.4405,Pegmatite_rect,5,0,5,0,1,
63cc62e53735576a651d54a9,TCN,2024-06-11_13h52.44.590,LearnStrategy,2023.2.3,MacIntel,58.47953216,4,2,7,,,,,,,,7,10,,,,,,,,,,,7,1.424,1,,,,,,0.187450909,-0.400127637,1,0,0,1.4245,Peridotite_rect,6,0,6,0,1,
63cc62e53735576a651d54a9,TCN,2024-06-11_13h52.44.590,LearnStrategy,2023.2.3,MacIntel,58.47953216,4,2,8,,,,,,,,6,12,,,,,,,,,,,8,0.963,0,,,,,,0.344286496,-0.40616935,1,0,0,0.9628,Pumice_rect,7,0,7,0,1,
63cc62e53735576a651d54a9,TCN,2024-06-11_13h52.44.590,LearnStrategy,2023.2.3,MacIntel,58.47953216,4,2,9,,,,,,,,2,05,,,,,,,,,,,2,2.876,1,,,,,,-0.086424905,-0.266515653,1,0,0,2.8759,Basalt_rect,8,0,8,0,1,
63cc62e53735576a651d54a9,TCN,2024-06-11_13h52.44.590,LearnStrategy,2023.2.3,MacIntel,58.47953216,4,2,10,,,,,,,,1,05,,,,,,,,,,,3,1.241,0,,,,,,0.160559498,-0.256311715,1,0,0,1.2407,Diorite_rect,9,0,9,0,1,
63cc62e53735576a651d54a9,TCN,2024-06-11_13h52.44.590,LearnStrategy,2023.2.3,MacIntel,58.47953216,4,2,11,,,,,,,,3,11,,,,,,,,,,,4,0.624,0,,,,,,0.34390078,-0.254737292,1,0,0,0.6243,Gabbro_rect,10,0,10,0,1,
63cc62e53735576a651d54a9,TCN,2024-06-11_13h52.44.590,LearnStrategy,2023.2.3,MacIntel,58.47953216,4,2,12,,,,,,,,5,14,,,,,,,,,,,3,0.311,0,,,,,,0.124214542,-0.240644636,1,0,0,0.3112,Diorite_rect,11,0,11,0,1,
63cc62e53735576a651d54a9,TCN,2024-06-11_13h52.44.590,LearnStrategy,2023.2.3,MacIntel,58.47953216,4,2,13,,,,,,,,3,13,,,,,,,,,,,7,0.942,0,,,,,,0.139895646,-0.39099669,1,0,0,0.9416,Peridotite_rect,12,0,12,0,1,
63cc62e53735576a651d54a9,TCN,2024-06-11_13h52.44.590,LearnStrategy,2023.2.3,MacIntel,58.47953216,4,2,14,,,,,,,,1,14,,,,,,,,,,,6,0.79,0,,,,,,-0.108771881,-0.421762792,1,0,0,0.7897,Pegmatite_rect,13,0,13,0,1,
63cc62e53735576a651d54a9,TCN,2024-06-11_13h52.44.590,LearnStrategy,2023.2.3,MacIntel,58.47953216,4,2,15,,,,,,,,8,10,,,,,,,,,,,2,1.326,0,,,,,,-0.087385688,-0.271792948,1,0,0,1.3255,Basalt_rect,14,0,14,0,1,
63cc62e53735576a651d54a9,TCN,2024-06-11_13h52.44.590,LearnStrategy,2023.2.3,MacIntel,58.47953216,4,2,16,,,,,,,,4,14,,,,,,,,,,,7,1.157,0,,,,,,0.15830832,-0.408546763,1,0,0,1.1574,Peridotite_rect,15,0,15,0,1,
63cc62e53735576a651d54a9,TCN,2024-06-11_13h52.44.590,LearnStrategy,2023.2.3,MacIntel,58.47953216,5,1,1,0.039497307,-0.01141719,1,0,0,14.5814,rock_grid_rect_2,5,02,-1,-1,14.581,-0.358659672,-0.403532456,1,0,0,1.0586,Obsidian_rect,5,1.059,1,0,0,0,0,1,,,,,,,,,,,,,
63cc62e53735576a651d54a9,TCN,2024-06-11_13h52.44.590,LearnStrategy,2023.2.3,MacIntel,58.47953216,5,1,2,-0.051878787,-0.023128927,1,0,0,1.8988,rock_grid_rect_2,1,11,-1,-1,1.899,0.149303607,-0.411825348,1,0,0,1.7449,Peridotite_rect,7,1.745,0,1,0,1,0,1,,,,,,,,,,,,,
63cc62e53735576a651d54a9,TCN,2024-06-11_13h52.44.590,LearnStrategy,2023.2.3,MacIntel,58.47953216,5,1,3,0.044497588,-0.016890849,1,0,0,1.048,rock_grid_rect_2,4,11,-1,-1,1.048,-0.086084773,-0.235149938,1,0,0,0.9113,Basalt_rect,2,0.911,0,2,0,2,0,1,,,,,,,,,,,,,
63cc62e53735576a651d54a9,TCN,2024-06-11_13h52.44.590,LearnStrategy,2023.2.3,MacIntel,58.47953216,5,1,4,0.083682815,-0.005336905,1,0,0,0.7479,rock_grid_rect_2,6,13,-1,-1,0.748,0.15876066,-0.262413039,1,0,0,0.7092,Diorite_rect,3,0.709,0,3,0,3,0,1,,,,,,,,,,,,,
63cc62e53735576a651d54a9,TCN,2024-06-11_13h52.44.590,LearnStrategy,2023.2.3,MacIntel,58.47953216,5,1,5,0.021621129,-0.005126515,1,0,0,0.8474,rock_grid_rect_2,6,10,-1,-1,0.847,0.335429056,-0.398044771,1,0,0,2.1274,Pumice_rect,8,2.127,0,4,0,4,0,1,,,,,,,,,,,,,
63cc62e53735576a651d54a9,TCN,2024-06-11_13h52.44.590,LearnStrategy,2023.2.3,MacIntel,58.47953216,5,1,6,0.061577788,-0.013808629,1,0,0,1.6492,rock_grid_rect_2,5,10,-1,-1,1.649,-0.346011698,-0.404486226,1,0,0,1.8314,Obsidian_rect,5,1.831,1,5,0,5,0,1,,,,,,,,,,,,,
63cc62e53735576a651d54a9,TCN,2024-06-11_13h52.44.590,LearnStrategy,2023.2.3,MacIntel,58.47953216,5,1,7,-0.022361002,-0.015737208,1,0,0,2.4987,rock_grid_rect_2,2,04,-1,-1,2.499,-0.108347593,-0.257840552,1,0,0,1.0097,Basalt_rect,2,1.01,1,6,0,6,0,1,,,,,,,,,,,,,
63cc62e53735576a651d54a9,TCN,2024-06-11_13h52.44.590,LearnStrategy,2023.2.3,MacIntel,58.47953216,5,1,8,0.039683152,-0.010572122,1,0,0,2.3317,rock_grid_rect_2,3,02,-1,-1,2.332,-0.315084296,-0.393076049,1,0,0,1.9944,Obsidian_rect,5,1.994,0,7,0,7,0,1,,,,,,,,,,,,,
63cc62e53735576a651d54a9,TCN,2024-06-11_13h52.44.590,LearnStrategy,2023.2.3,MacIntel,58.47953216,5,1,9,0.0821119,-0.011227839,1,0,0,0.8987,rock_grid_rect_2,8,08,-1,-1,0.899,-0.320954191,-0.231937977,1,0,0,1.4435,Andesite_rect,1,1.444,0,8,0,8,0,1,,,,,,,,,,,,,
63cc62e53735576a651d54a9,TCN,2024-06-11_13h52.44.590,LearnStrategy,2023.2.3,MacIntel,58.47953216,5,1,10,0.112173193,-0.013198496,1,0,0,0.9154,rock_grid_rect_2,3,15,-1,-1,0.915,0.147045416,-0.408252216,1,0,0,1.5109,Peridotite_rect,7,1.511,0,9,0,9,0,1,,,,,,,,,,,,,
63cc62e53735576a651d54a9,TCN,2024-06-11_13h52.44.590,LearnStrategy,2023.2.3,MacIntel,58.47953216,5,1,11,0.120848294,-0.010305627,1,0,0,1.1318,rock_grid_rect_2,4,08,-1,-1,1.132,0.390789806,-0.243940754,1,0,0,4.3106,Gabbro_rect,4,4.311,1,10,0,10,0,1,,,,,,,,,,,,,
63cc62e53735576a651d54a9,TCN,2024-06-11_13h52.44.590,LearnStrategy,2023.2.3,MacIntel,58.47953216,5,1,12,0.160654174,-0.003920276,1,0,0,1.0826,rock_grid_rect_2,7,06,-1,-1,1.083,0.358498373,-0.387406026,1,0,0,1.3302,Pumice_rect,8,1.33,0,11,0,11,0,1,,,,,,,,,,,,,
63cc62e53735576a651d54a9,TCN,2024-06-11_13h52.44.590,LearnStrategy,2023.2.3,MacIntel,58.47953216,5,1,13,0.137767196,-0.004558461,1,0,0,0.9479,rock_grid_rect_2,7,02,-1,-1,0.948,0.198804982,-0.249442465,1,0,0,0.545,Diorite_rect,3,0.545,0,12,0,12,0,1,,,,,,,,,,,,,
63cc62e53735576a651d54a9,TCN,2024-06-11_13h52.44.590,LearnStrategy,2023.2.3,MacIntel,58.47953216,5,1,14,0.098266382,0.005806777,1,0,0,0.698,rock_grid_rect_2,2,09,-1,-1,0.698,0.065936378,-0.400103091,1,0,0,0.5764,Peridotite_rect,7,0.576,0,13,0,13,0,1,,,,,,,,,,,,,
63cc62e53735576a651d54a9,TCN,2024-06-11_13h52.44.590,LearnStrategy,2023.2.3,MacIntel,58.47953216,5,1,15,0.096607804,-0.017469423,1,0,0,1.0321,rock_grid_rect_2,8,09,-1,-1,1.032,0.135926279,-0.238046314,1,0,0,0.8439,Diorite_rect,3,0.844,0,14,0,14,0,1,,,,,,,,,,,,,
63cc62e53735576a651d54a9,TCN,2024-06-11_13h52.44.590,LearnStrategy,2023.2.3,MacIntel,58.47953216,5,1,16,0.115819962,0.006206519,1,0,0,0.9817,rock_grid_rect_2,1,02,-1,-1,0.982,0.356755638,-0.247643627,1,0,0,1.1765,Gabbro_rect,4,1.177,0,15,0,15,0,1,,,,,,,,,,,,,
63cc62e53735576a651d54a9,TCN,2024-06-11_13h52.44.590,LearnStrategy,2023.2.3,MacIntel,58.47953216,5,2,1,,,,,,,,6,06,,,,,,,,,,,3,6.725,0,,,,,,0.187096752,-0.247534925,1,0,0,6.7246,Diorite_rect,0,0,0,0,1,
63cc62e53735576a651d54a9,TCN,2024-06-11_13h52.44.590,LearnStrategy,2023.2.3,MacIntel,58.47953216,5,2,2,,,,,,,,7,04,,,,,,,,,,,8,1.783,0,,,,,,0.3956358,-0.397918537,1,0,0,1.7825,Pumice_rect,1,0,1,0,1,
63cc62e53735576a651d54a9,TCN,2024-06-11_13h52.44.590,LearnStrategy,2023.2.3,MacIntel,58.47953216,5,2,3,,,,,,,,8,16,,,,,,,,,,,7,2.809,0,,,,,,0.125287534,-0.391929421,1,0,0,2.809,Peridotite_rect,2,0,2,0,1,
63cc62e53735576a651d54a9,TCN,2024-06-11_13h52.44.590,LearnStrategy,2023.2.3,MacIntel,58.47953216,5,2,4,,,,,,,,1,09,,,,,,,,,,,2,2.227,0,,,,,,-0.194856654,-0.25493015,1,0,0,2.2269,Basalt_rect,3,0,3,0,1,
63cc62e53735576a651d54a9,TCN,2024-06-11_13h52.44.590,LearnStrategy,2023.2.3,MacIntel,58.47953216,5,2,5,,,,,,,,1,01,,,,,,,,,,,4,1.758,0,,,,,,0.379996774,-0.238298783,1,0,0,1.7579,Gabbro_rect,4,0,4,0,1,
63cc62e53735576a651d54a9,TCN,2024-06-11_13h52.44.590,LearnStrategy,2023.2.3,MacIntel,58.47953216,5,2,6,,,,,,,,2,12,,,,,,,,,,,6,3.368,0,,,,,,-0.127991051,-0.421338504,1,0,0,3.3676,Pegmatite_rect,5,0,5,0,1,
63cc62e53735576a651d54a9,TCN,2024-06-11_13h52.44.590,LearnStrategy,2023.2.3,MacIntel,58.47953216,5,2,7,,,,,,,,3,10,,,,,,,,,,,3,1.591,1,,,,,,0.15314674,-0.255578854,1,0,0,1.5915,Diorite_rect,6,0,6,0,1,
63cc62e53735576a651d54a9,TCN,2024-06-11_13h52.44.590,LearnStrategy,2023.2.3,MacIntel,58.47953216,5,2,8,,,,,,,,5,06,,,,,,,,,,,5,1.094,1,,,,,,-0.372307002,-0.41163249,1,0,0,1.0936,Obsidian_rect,7,0,7,0,1,
63cc62e53735576a651d54a9,TCN,2024-06-11_13h52.44.590,LearnStrategy,2023.2.3,MacIntel,58.47953216,5,2,9,,,,,,,,4,01,,,,,,,,,,,8,3.477,0,,,,,,0.371591674,-0.393724753,1,0,0,3.4772,Pumice_rect,8,0,8,0,1,
63cc62e53735576a651d54a9,TCN,2024-06-11_13h52.44.590,LearnStrategy,2023.2.3,MacIntel,58.47953216,5,2,10,,,,,,,,2,01,,,,,,,,,,,1,1.97,0,,,,,,-0.378197935,-0.262318363,1,0,0,1.9699,Andesite_rect,9,0,9,0,1,
63cc62e53735576a651d54a9,TCN,2024-06-11_13h52.44.590,LearnStrategy,2023.2.3,MacIntel,58.47953216,5,2,11,,,,,,,,8,04,,,,,,,,,,,6,1.801,0,,,,,,-0.070529904,-0.401842319,1,0,0,1.8015,Pegmatite_rect,10,0,10,0,1,
63cc62e53735576a651d54a9,TCN,2024-06-11_13h52.44.590,LearnStrategy,2023.2.3,MacIntel,58.47953216,5,2,12,,,,,,,,6,08,,,,,,,,,,,5,1.258,0,,,,,,-0.402196477,-0.405569737,1,0,0,1.2584,Obsidian_rect,11,0,11,0,1,
63cc62e53735576a651d54a9,TCN,2024-06-11_13h52.44.590,LearnStrategy,2023.2.3,MacIntel,58.47953216,5,2,13,,,,,,,,7,15,,,,,,,,,,,3,1.58,0,,,,,,0.169217067,-0.270432423,1,0,0,1.5799,Diorite_rect,12,0,12,0,1,
63cc62e53735576a651d54a9,TCN,2024-06-11_13h52.44.590,LearnStrategy,2023.2.3,MacIntel,58.47953216,5,2,14,,,,,,,,4,13,,,,,,,,,,,4,0.99,1,,,,,,0.335085419,-0.266336821,1,0,0,0.9904,Gabbro_rect,13,0,13,0,1,
63cc62e53735576a651d54a9,TCN,2024-06-11_13h52.44.590,LearnStrategy,2023.2.3,MacIntel,58.47953216,5,2,15,,,,,,,,5,04,,,,,,,,,,,5,1.21,1,,,,,,-0.444460419,-0.411355476,1,0,0,1.2096,Obsidian_rect,14,0,14,0,1,
63cc62e53735576a651d54a9,TCN,2024-06-11_13h52.44.590,LearnStrategy,2023.2.3,MacIntel,58.47953216,5,2,16,,,,,,,,3,12,,,,,,,,,,,7,1.026,0,,,,,,0.128225987,-0.402655829,1,0,0,1.0262,Peridotite_rect,15,0,15,0,1,
63cc62e53735576a651d54a9,TCN,2024-06-11_13h52.44.590,LearnStrategy,2023.2.3,MacIntel,58.47953216,6,1,1,0.113603849,-0.016697991,1,0,0,1.1661,rock_grid_rect_2,7,07,-1,-1,1.166,0.171566427,-0.25656769,1,0,0,2.8761,Diorite_rect,3,2.876,0,0,0,0,0,1,,,,,,,,,,,,,
63cc62e53735576a651d54a9,TCN,2024-06-11_13h52.44.590,LearnStrategy,2023.2.3,MacIntel,58.47953216,6,1,2,0.065936378,0.002707024,1,0,0,1.4478,rock_grid_rect_2,4,12,-1,-1,1.448,-0.308576217,-0.247485834,1,0,0,1.2924,Andesite_rect,1,1.292,0,1,0,1,0,1,,,,,,,,,,,,,
63cc62e53735576a651d54a9,TCN,2024-06-11_13h52.44.590,LearnStrategy,2023.2.3,MacIntel,58.47953216,6,1,3,-0.014383696,-0.001507798,1,0,0,0.9307,rock_grid_rect_2,4,09,-1,-1,0.931,-0.104609656,-0.235805655,1,0,0,1.4289,Basalt_rect,2,1.429,0,2,0,2,0,1,,,,,,,,,,,,,
63cc62e53735576a651d54a9,TCN,2024-06-11_13h52.44.590,LearnStrategy,2023.2.3,MacIntel,58.47953216,6,1,4,0.042505891,-0.019338392,1,0,0,0.8988,rock_grid_rect_2,6,16,-1,-1,0.899,-0.125557535,-0.393461765,1,0,0,1.1796,Pegmatite_rect,6,1.18,1,3,0,3,0,1,,,,,,,,,,,,,
63cc62e53735576a651d54a9,TCN,2024-06-11_13h52.44.590,LearnStrategy,2023.2.3,MacIntel,58.47953216,6,1,5,0.064705594,-0.022539834,1,0,0,1.1988,rock_grid_rect_2,8,02,-1,-1,1.199,0.109497728,-0.398567241,1,0,0,0.894,Peridotite_rect,7,0.894,0,4,0,4,0,1,,,,,,,,,,,,,
63cc62e53735576a651d54a9,TCN,2024-06-11_13h52.44.590,LearnStrategy,2023.2.3,MacIntel,58.47953216,6,1,6,0.08291489,-0.022631003,1,0,0,1.2313,rock_grid_rect_2,1,10,-1,-1,1.231,0.3710131,-0.412684442,1,0,0,0.9614,Pumice_rect,8,0.961,0,5,0,5,0,1,,,,,,,,,,,,,
63cc62e53735576a651d54a9,TCN,2024-06-11_13h52.44.590,LearnStrategy,2023.2.3,MacIntel,58.47953216,6,1,7,0.042583034,-0.019871381,1,0,0,0.6493,rock_grid_rect_2,3,08,-1,-1,0.649,0.202630582,-0.255666517,1,0,0,0.8274,Diorite_rect,3,0.827,1,6,0,6,0,1,,,,,,,,,,,,,
63cc62e53735576a651d54a9,TCN,2024-06-11_13h52.44.590,LearnStrategy,2023.2.3,MacIntel,58.47953216,6,1,8,0.056808937,0.014769412,1,0,0,1.182,rock_grid_rect_2,5,08,-1,-1,1.182,-0.382826526,-0.416310172,1,0,0,1.6273,Obsidian_rect,5,1.627,1,7,0,7,0,1,,,,,,,,,,,,,
63cc62e53735576a651d54a9,TCN,2024-06-11_13h52.44.590,LearnStrategy,2023.2.3,MacIntel,58.47953216,6,1,9,-0.013107327,-0.003345209,1,0,0,0.9145,rock_grid_rect_2,3,16,-1,-1,0.915,-0.351285486,-0.259257181,1,0,0,0.7091,Andesite_rect,1,0.709,0,8,0,8,0,1,,,,,,,,,,,,,
63cc62e53735576a651d54a9,TCN,2024-06-11_13h52.44.590,LearnStrategy,2023.2.3,MacIntel,58.47953216,6,1,10,-0.010400303,-0.002216113,1,0,0,0.9973,rock_grid_rect_2,1,07,-1,-1,0.997,-0.113593329,-0.262392,1,0,0,0.5625,Basalt_rect,2,0.563,0,9,0,9,0,1,,,,,,,,,,,,,
63cc62e53735576a651d54a9,TCN,2024-06-11_13h52.44.590,LearnStrategy,2023.2.3,MacIntel,58.47953216,6,1,11,0.06441806,-0.015947599,1,0,0,0.9304,rock_grid_rect_2,7,16,-1,-1,0.93,-0.08483295,-0.403455313,1,0,0,0.8944,Pegmatite_rect,6,0.894,0,10,0,10,0,1,,,,,,,,,,,,,
63cc62e53735576a651d54a9,TCN,2024-06-11_13h52.44.590,LearnStrategy,2023.2.3,MacIntel,58.47953216,6,1,12,0.133282372,-0.023398928,1,0,0,1.2992,rock_grid_rect_2,2,10,-1,-1,1.299,0.391571757,-0.25699899,1,0,0,2.1969,Gabbro_rect,4,2.197,0,11,0,11,0,1,,,,,,,,,,,,,
63cc62e53735576a651d54a9,TCN,2024-06-11_13h52.44.590,LearnStrategy,2023.2.3,MacIntel,58.47953216,6,1,13,-0.007879124,-0.019327873,1,0,0,1.5164,rock_grid_rect_2,5,16,-1,-1,1.516,-0.3589437,-0.40426181,1,0,0,1.242,Obsidian_rect,5,1.242,1,12,0,12,0,1,,,,,,,,,,,,,
63cc62e53735576a651d54a9,TCN,2024-06-11_13h52.44.590,LearnStrategy,2023.2.3,MacIntel,58.47953216,6,1,14,0.138436939,-0.018847481,1,0,0,1.0305,rock_grid_rect_2,6,03,-1,-1,1.03,0.387013297,-0.260431862,1,0,0,6.8769,Gabbro_rect,4,6.877,0,13,0,13,0,1,,,,,,,,,,,,,
63cc62e53735576a651d54a9,TCN,2024-06-11_13h52.44.590,LearnStrategy,2023.2.3,MacIntel,58.47953216,6,1,15,0.042211344,0.002640401,1,0,0,0.9643,rock_grid_rect_2,2,16,-1,-1,0.964,0.130954051,-0.267374748,1,0,0,0.6261,Diorite_rect,3,0.626,0,14,0,14,0,1,,,,,,,,,,,,,
63cc62e53735576a651d54a9,TCN,2024-06-11_13h52.44.590,LearnStrategy,2023.2.3,MacIntel,58.47953216,6,1,16,0.111745399,0.008860946,1,0,0,0.9315,rock_grid_rect_2,8,15,-1,-1,0.931,0.416534588,-0.40212284,1,0,0,0.6105,Pumice_rect,8,0.611,1,15,0,15,0,1,,,,,,,,,,,,,
63cc62e53735576a651d54a9,TCN,2024-06-11_13h52.44.590,LearnStrategy,2023.2.3,MacIntel,58.47953216,6,2,1,,,,,,,,4,16,,,,,,,,,,,3,2.258,0,,,,,,0.178239312,-0.235767084,1,0,0,2.258,Diorite_rect,0,0,0,0,1,
63cc62e53735576a651d54a9,TCN,2024-06-11_13h52.44.590,LearnStrategy,2023.2.3,MacIntel,58.47953216,6,2,2,,,,,,,,2,06,,,,,,,,,,,1,1.29,0,,,,,,-0.355419659,-0.237709689,1,0,0,1.2903,Andesite_rect,1,0,1,0,1,
63cc62e53735576a651d54a9,TCN,2024-06-11_13h52.44.590,LearnStrategy,2023.2.3,MacIntel,58.47953216,6,2,3,,,,,,,,4,03,,,,,,,,,,,7,0.932,0,,,,,,0.085131003,-0.408743127,1,0,0,0.9321,Peridotite_rect,2,0,2,0,1,
63cc62e53735576a651d54a9,TCN,2024-06-11_13h52.44.590,LearnStrategy,2023.2.3,MacIntel,58.47953216,6,2,4,,,,,,,,3,06,,,,,,,,,,,8,0.914,0,,,,,,0.308102839,-0.399528024,1,0,0,0.9144,Pumice_rect,3,0,3,0,1,
63cc62e53735576a651d54a9,TCN,2024-06-11_13h52.44.590,LearnStrategy,2023.2.3,MacIntel,58.47953216,6,2,5,,,,,,,,5,07,,,,,,,,,,,5,1.008,1,,,,,,-0.370978035,-0.397883472,1,0,0,1.0083,Obsidian_rect,4,0,4,0,1,
63cc62e53735576a651d54a9,TCN,2024-06-11_13h52.44.590,LearnStrategy,2023.2.3,MacIntel,58.47953216,6,2,6,,,,,,,,1,06,,,,,,,,,,,4,1.009,0,,,,,,0.379463785,-0.269699562,1,0,0,1.0094,Gabbro_rect,5,0,5,0,1,
63cc62e53735576a651d54a9,TCN,2024-06-11_13h52.44.590,LearnStrategy,2023.2.3,MacIntel,58.47953216,6,2,7,,,,,,,,8,03,,,,,,,,,,,3,1.208,0,,,,,,0.158985076,-0.239049175,1,0,0,1.2082,Diorite_rect,6,0,6,0,1,
63cc62e53735576a651d54a9,TCN,2024-06-11_13h52.44.590,LearnStrategy,2023.2.3,MacIntel,58.47953216,6,2,8,,,,,,,,1,16,,,,,,,,,,,7,0.775,0,,,,,,0.148156979,-0.381473014,1,0,0,0.7748,Peridotite_rect,7,0,7,0,1,
63cc62e53735576a651d54a9,TCN,2024-06-11_13h52.44.590,LearnStrategy,2023.2.3,MacIntel,58.47953216,6,2,9,,,,,,,,6,09,,,,,,,,,,,6,1.224,1,,,,,,-0.073563033,-0.39025331,1,0,0,1.2237,Pegmatite_rect,8,0,8,0,1,
63cc62e53735576a651d54a9,TCN,2024-06-11_13h52.44.590,LearnStrategy,2023.2.3,MacIntel,58.47953216,6,2,10,,,,,,,,8,06,,,,,,,,,,,2,2.242,0,,,,,,-0.089093357,-0.25936939,1,0,0,2.2417,Basalt_rect,9,0,9,0,1,
63cc62e53735576a651d54a9,TCN,2024-06-11_13h52.44.590,LearnStrategy,2023.2.3,MacIntel,58.47953216,6,2,11,,,,,,,,3,14,,,,,,,,,,,1,1.067,0,,,,,,-0.351927177,-0.252086372,1,0,0,1.0667,Andesite_rect,10,0,10,0,1,
63cc62e53735576a651d54a9,TCN,2024-06-11_13h52.44.590,LearnStrategy,2023.2.3,MacIntel,58.47953216,6,2,12,,,,,,,,7,05,,,,,,,,,,,3,1.459,0,,,,,,0.217666489,-0.258769777,1,0,0,1.4587,Diorite_rect,11,0,11,0,1,
63cc62e53735576a651d54a9,TCN,2024-06-11_13h52.44.590,LearnStrategy,2023.2.3,MacIntel,58.47953216,6,2,13,,,,,,,,2,02,,,,,,,,,,,2,1.689,1,,,,,,-0.132640681,-0.234245259,1,0,0,1.6895,Basalt_rect,12,0,12,0,1,
63cc62e53735576a651d54a9,TCN,2024-06-11_13h52.44.590,LearnStrategy,2023.2.3,MacIntel,58.47953216,6,2,14,,,,,,,,6,11,,,,,,,,,,,5,0.985,0,,,,,,-0.374996493,-0.393303972,1,0,0,0.9852,Obsidian_rect,13,0,13,0,1,
63cc62e53735576a651d54a9,TCN,2024-06-11_13h52.44.590,LearnStrategy,2023.2.3,MacIntel,58.47953216,6,2,15,,,,,,,,7,13,,,,,,,,,,,7,1.273,1,,,,,,0.218567662,-0.404419603,1,0,0,1.273,Peridotite_rect,14,0,14,0,1,
63cc62e53735576a651d54a9,TCN,2024-06-11_13h52.44.590,LearnStrategy,2023.2.3,MacIntel,58.47953216,6,2,16,,,,,,,,5,12,,,,,,,,,,,5,1.023,1,,,,,,-0.403017,-0.406232467,1,0,0,1.0231,Obsidian_rect,15,0,15,0,1,
63cc62e53735576a651d54a9,TCN,2024-06-11_13h52.44.590,LearnStrategy,2023.2.3,MacIntel,58.47953216,7,1,1,0.084506845,0.000227923,1,0,0,1.6149,rock_grid_rect_2,1,07,-1,-1,1.615,0.434393234,-0.242804645,1,0,0,154.545,Gabbro_rect,4,154.545,0,0,0,0,0,1,,,,,,,,,,,,,
63cc62e53735576a651d54a9,TCN,2024-06-11_13h52.44.590,LearnStrategy,2023.2.3,MacIntel,58.47953216,7,1,2,0.052713336,-0.015547857,1,0,0,0.9152,rock_grid_rect_2,1,04,-1,-1,0.915,0.132956267,-0.241924512,1,0,0,1.2431,Diorite_rect,3,1.243,0,1,0,1,0,1,,,,,,,,,,,,,
63cc62e53735576a651d54a9,TCN,2024-06-11_13h52.44.590,LearnStrategy,2023.2.3,MacIntel,58.47953216,7,1,3,0.000119221,0.013314211,1,0,0,0.7818,rock_grid_rect_2,7,08,-1,-1,0.782,-0.083581127,-0.238116444,1,0,0,0.8928,Basalt_rect,2,0.893,0,2,0,2,0,1,,,,,,,,,,,,,
63cc62e53735576a651d54a9,TCN,2024-06-11_13h52.44.590,LearnStrategy,2023.2.3,MacIntel,58.47953216,7,1,4,0.097035598,0.010740434,1,0,0,2.0148,rock_grid_rect_2,4,09,-1,-1,2.015,0.151323356,-0.412470545,1,0,0,0.8442,Peridotite_rect,7,0.844,0,3,0,3,0,1,,,,,,,,,,,,,
63cc62e53735576a651d54a9,TCN,2024-06-11_13h52.44.590,LearnStrategy,2023.2.3,MacIntel,58.47953216,7,1,5,0.025983225,-0.009004713,1,0,0,0.9828,rock_grid_rect_2,6,03,-1,-1,0.983,-0.086081267,-0.394773199,1,0,0,1.2612,Pegmatite_rect,6,1.261,1,4,0,4,0,1,,,,,,,,,,,,,
63cc62e53735576a651d54a9,TCN,2024-06-11_13h52.44.590,LearnStrategy,2023.2.3,MacIntel,58.47953216,7,1,6,0.042491865,0.009144973,1,0,0,0.8481,rock_grid_rect_2,3,15,-1,-1,0.848,0.343027659,-0.397722172,1,0,0,1.1938,Pumice_rect,8,1.194,0,5,0,5,0,1,,,,,,,,,,,,,
63cc62e53735576a651d54a9,TCN,2024-06-11_13h52.44.590,LearnStrategy,2023.2.3,MacIntel,58.47953216,7,1,7,0.087841534,0.017108253,1,0,0,0.798,rock_grid_rect_2,2,09,-1,-1,0.798,-0.300353456,-0.241149574,1,0,0,1.2107,Andesite_rect,1,1.211,0,6,0,6,0,1,,,,,,,,,,,,,
63cc62e53735576a651d54a9,TCN,2024-06-11_13h52.44.590,LearnStrategy,2023.2.3,MacIntel,58.47953216,7,1,8,-0.041993941,0.005652491,1,0,0,0.7988,rock_grid_rect_2,6,10,-1,-1,0.799,-0.11991907,-0.400387118,1,0,0,2.2583,Pegmatite_rect,6,2.258,1,7,0,7,0,1,,,,,,,,,,,,,
63cc62e53735576a651d54a9,TCN,2024-06-11_13h52.44.590,LearnStrategy,2023.2.3,MacIntel,58.47953216,7,1,9,0.099756648,-0.00353456,1,0,0,1.0993,rock_grid_rect_2,2,08,-1,-1,1.099,-0.063408186,-0.240704247,1,0,0,1.2602,Basalt_rect,2,1.26,1,8,0,8,0,1,,,,,,,,,,,,,
63cc62e53735576a651d54a9,TCN,2024-06-11_13h52.44.590,LearnStrategy,2023.2.3,MacIntel,58.47953216,7,1,10,0.087550494,-0.009046791,1,0,0,1.0161,rock_grid_rect_2,4,12,-1,-1,1.016,0.044041741,-0.244862966,1,0,0,1.2764,Diorite_rect,3,1.276,0,9,0,9,0,1,,,,,,,,,,,,,
63cc62e53735576a651d54a9,TCN,2024-06-11_13h52.44.590,LearnStrategy,2023.2.3,MacIntel,58.47953216,7,1,11,-0.041927317,-0.004754825,1,0,0,0.8986,rock_grid_rect_2,7,12,-1,-1,0.899,-0.115855027,-0.249691427,1,0,0,1.1256,Basalt_rect,2,1.126,0,10,0,10,0,1,,,,,,,,,,,,,
63cc62e53735576a651d54a9,TCN,2024-06-11_13h52.44.590,LearnStrategy,2023.2.3,MacIntel,58.47953216,7,1,12,0.003503002,-0.015519805,1,0,0,0.7655,rock_grid_rect_2,3,07,-1,-1,0.766,0.338164133,-0.380028333,1,0,0,1.2443,Pumice_rect,8,1.244,0,11,0,11,0,1,,,,,,,,,,,,,
63cc62e53735576a651d54a9,TCN,2024-06-11_13h52.44.590,LearnStrategy,2023.2.3,MacIntel,58.47953216,7,1,13,0.080947739,0.017493969,1,0,0,0.7311,rock_grid_rect_2,8,14,-1,-1,0.731,0.401887904,-0.261890569,1,0,0,0.9306,Gabbro_rect,4,0.931,0,12,0,12,0,1,,,,,,,,,,,,,
63cc62e53735576a651d54a9,TCN,2024-06-11_13h52.44.590,LearnStrategy,2023.2.3,MacIntel,58.47953216,7,1,14,0.107172913,-0.022806329,1,0,0,1.0813,rock_grid_rect_2,5,16,-1,-1,1.081,-0.384113414,-0.393139166,1,0,0,1.6274,Obsidian_rect,5,1.627,1,13,0,13,0,1,,,,,,,,,,,,,
63cc62e53735576a651d54a9,TCN,2024-06-11_13h52.44.590,LearnStrategy,2023.2.3,MacIntel,58.47953216,7,1,15,0.080572543,-0.009544715,1,0,0,1.082,rock_grid_rect_2,8,02,-1,-1,1.082,-0.388710447,-0.259684975,1,0,0,0.961,Andesite_rect,1,0.961,0,14,0,14,0,1,,,,,,,,,,,,,
63cc62e53735576a651d54a9,TCN,2024-06-11_13h52.44.590,LearnStrategy,2023.2.3,MacIntel,58.47953216,7,1,16,0.097989368,0.010456407,1,0,0,0.7982,rock_grid_rect_2,5,02,-1,-1,0.798,-0.439091955,-0.392276565,1,0,0,1.0768,Obsidian_rect,5,1.077,1,15,0,15,0,1,,,,,,,,,,,,,
63cc62e53735576a651d54a9,TCN,2024-06-11_13h52.44.590,LearnStrategy,2023.2.3,MacIntel,58.47953216,7,2,1,,,,,,,,3,12,,,,,,,,,,,4,1.174,0,,,,,,0.379313005,-0.241871914,1,0,0,1.1744,Gabbro_rect,0,0,0,0,1,
63cc62e53735576a651d54a9,TCN,2024-06-11_13h52.44.590,LearnStrategy,2023.2.3,MacIntel,58.47953216,7,2,2,,,,,,,,1,14,,,,,,,,,,,6,2.06,0,,,,,,-0.078945523,-0.389092656,1,0,0,2.0598,Pegmatite_rect,1,0,1,0,1,
63cc62e53735576a651d54a9,TCN,2024-06-11_13h52.44.590,LearnStrategy,2023.2.3,MacIntel,58.47953216,7,2,3,,,,,,,,8,03,,,,,,,,,,,2,1.422,0,,,,,,-0.059512455,-0.240620091,1,0,0,1.4224,Basalt_rect,2,0,2,0,1,
63cc62e53735576a651d54a9,TCN,2024-06-11_13h52.44.590,LearnStrategy,2023.2.3,MacIntel,58.47953216,7,2,4,,,,,,,,4,13,,,,,,,,,,,7,0.377,0,,,,,,0.142707866,-0.384523676,1,0,0,0.3768,Peridotite_rect,3,0,3,0,1,
63cc62e53735576a651d54a9,TCN,2024-06-11_13h52.44.590,LearnStrategy,2023.2.3,MacIntel,58.47953216,7,2,5,,,,,,,,5,07,,,,,,,,,,,5,1.192,1,,,,,,-0.384786664,-0.391143963,1,0,0,1.1919,Obsidian_rect,4,0,4,0,1,
63cc62e53735576a651d54a9,TCN,2024-06-11_13h52.44.590,LearnStrategy,2023.2.3,MacIntel,58.47953216,7,2,6,,,,,,,,6,09,,,,,,,,,,,6,1.991,1,,,,,,-0.135715889,-0.408676504,1,0,0,1.9911,Pegmatite_rect,5,0,5,0,1,
63cc62e53735576a651d54a9,TCN,2024-06-11_13h52.44.590,LearnStrategy,2023.2.3,MacIntel,58.47953216,7,2,7,,,,,,,,4,03,,,,,,,,,,,1,1.342,0,,,,,,-0.360462018,-0.246851156,1,0,0,1.342,Andesite_rect,6,0,6,0,1,
63cc62e53735576a651d54a9,TCN,2024-06-11_13h52.44.590,LearnStrategy,2023.2.3,MacIntel,58.47953216,7,2,8,,,,,,,,7,05,,,,,,,,,,,4,3.009,0,,,,,,0.321634454,-0.269205145,1,0,0,3.0094,Gabbro_rect,7,0,7,0,1,
63cc62e53735576a651d54a9,TCN,2024-06-11_13h52.44.590,LearnStrategy,2023.2.3,MacIntel,58.47953216,7,2,9,,,,,,,,2,14,,,,,,,,,,,3,1.615,0,,,,,,0.136736283,-0.256935873,1,0,0,1.6153,Diorite_rect,8,0,8,0,1,
63cc62e53735576a651d54a9,TCN,2024-06-11_13h52.44.590,LearnStrategy,2023.2.3,MacIntel,58.47953216,7,2,10,,,,,,,,3,10,,,,,,,,,,,7,0.99,0,,,,,,0.088630498,-0.397143599,1,0,0,0.9904,Peridotite_rect,9,0,9,0,1,
63cc62e53735576a651d54a9,TCN,2024-06-11_13h52.44.590,LearnStrategy,2023.2.3,MacIntel,58.47953216,7,2,11,,,,,,,,6,11,,,,,,,,,,,5,1.01,0,,,,,,-0.356741612,-0.406709353,1,0,0,1.0096,Obsidian_rect,10,0,10,0,1,
63cc62e53735576a651d54a9,TCN,2024-06-11_13h52.44.590,LearnStrategy,2023.2.3,MacIntel,58.47953216,7,2,12,,,,,,,,5,06,,,,,,,,,,,5,0.909,1,,,,,,-0.35568966,-0.415054842,1,0,0,0.9089,Obsidian_rect,11,0,11,0,1,
63cc62e53735576a651d54a9,TCN,2024-06-11_13h52.44.590,LearnStrategy,2023.2.3,MacIntel,58.47953216,7,2,13,,,,,,,,1,01,,,,,,,,,,,7,1.145,0,,,,,,0.157045977,-0.399366725,1,0,0,1.1453,Peridotite_rect,12,0,12,0,1,
63cc62e53735576a651d54a9,TCN,2024-06-11_13h52.44.590,LearnStrategy,2023.2.3,MacIntel,58.47953216,7,2,14,,,,,,,,2,06,,,,,,,,,,,8,0.458,0,,,,,,0.352972116,-0.410198328,1,0,0,0.458,Pumice_rect,13,0,13,0,1,
63cc62e53735576a651d54a9,TCN,2024-06-11_13h52.44.590,LearnStrategy,2023.2.3,MacIntel,58.47953216,7,2,15,,,,,,,,8,16,,,,,,,,,,,6,0.675,0,,,,,,-0.038957305,-0.405127917,1,0,0,0.6749,Pegmatite_rect,14,0,14,0,1,
63cc62e53735576a651d54a9,TCN,2024-06-11_13h52.44.590,LearnStrategy,2023.2.3,MacIntel,58.47953216,7,2,16,,,,,,,,7,14,,,,,,,,,,,7,0.542,1,,,,,,0.14063552,-0.387511221,1,0,0,0.5415,Peridotite_rect,15,0,15,0,1,
63cc62e53735576a651d54a9,TCN,2024-06-11_13h52.44.590,LearnStrategy,2023.2.3,MacIntel,58.47953216,8,1,1,0.178859964,0.006027687,1,0,0,1.0138,rock_grid_rect_2,5,08,-1,-1,1.014,-0.351997307,-0.382104185,1,0,0,1.4429,Obsidian_rect,5,1.443,1,0,0,0,0,1,,,,,,,,,,,,,
63cc62e53735576a651d54a9,TCN,2024-06-11_13h52.44.590,LearnStrategy,2023.2.3,MacIntel,58.47953216,8,1,2,0.098241837,-0.021389699,1,0,0,1.0831,rock_grid_rect_2,5,11,-1,-1,1.083,-0.378583651,-0.38752174,1,0,0,1.2432,Obsidian_rect,5,1.243,1,1,0,1,0,1,,,,,,,,,,,,,
63cc62e53735576a651d54a9,TCN,2024-06-11_13h52.44.590,LearnStrategy,2023.2.3,MacIntel,58.47953216,8,1,3,0.0408403,-0.006150415,1,0,0,0.8648,rock_grid_rect_2,8,15,-1,-1,0.865,-0.34913249,-0.248309863,1,0,0,0.9259,Andesite_rect,1,0.926,0,2,0,2,0,1,,,,,,,,,,,,,
63cc62e53735576a651d54a9,TCN,2024-06-11_13h52.44.590,LearnStrategy,2023.2.3,MacIntel,58.47953216,8,1,4,0.056104129,0.011378619,1,0,0,0.8653,rock_grid_rect_2,3,16,-1,-1,0.865,-0.121051672,-0.242331267,1,0,0,1.3111,Basalt_rect,2,1.311,0,3,0,3,0,1,,,,,,,,,,,,,
63cc62e53735576a651d54a9,TCN,2024-06-11_13h52.44.590,LearnStrategy,2023.2.3,MacIntel,58.47953216,8,1,5,0.10664343,-0.023623345,1,0,0,0.8152,rock_grid_rect_2,4,15,-1,-1,0.815,-0.089054786,-0.391172015,1,0,0,1.0625,Pegmatite_rect,6,1.063,0,4,0,4,0,1,,,,,,,,,,,,,
63cc62e53735576a651d54a9,TCN,2024-06-11_13h52.44.590,LearnStrategy,2023.2.3,MacIntel,58.47953216,8,1,6,0.03183208,0.015067465,1,0,0,0.8319,rock_grid_rect_2,7,16,-1,-1,0.832,-0.071073412,-0.395288656,1,0,0,2.7591,Pegmatite_rect,6,2.759,0,5,0,5,0,1,,,,,,,,,,,,,
63cc62e53735576a651d54a9,TCN,2024-06-11_13h52.44.590,LearnStrategy,2023.2.3,MacIntel,58.47953216,8,1,7,0.005385996,-0.011827452,1,0,0,0.8309,rock_grid_rect_2,1,10,-1,-1,0.831,0.108873569,-0.395453462,1,0,0,1.1598,Peridotite_rect,7,1.16,0,6,0,6,0,1,,,,,,,,,,,,,
63cc62e53735576a651d54a9,TCN,2024-06-11_13h52.44.590,LearnStrategy,2023.2.3,MacIntel,58.47953216,8,1,8,0.051643851,0.00766172,1,0,0,1.0815,rock_grid_rect_2,7,07,-1,-1,1.082,-0.139113695,-0.260116276,1,0,0,1.1777,Basalt_rect,2,1.178,0,7,0,7,0,1,,,,,,,,,,,,,
63cc62e53735576a651d54a9,TCN,2024-06-11_13h52.44.590,LearnStrategy,2023.2.3,MacIntel,58.47953216,8,1,9,0.073980307,-0.011269917,1,0,0,1.2488,rock_grid_rect_2,6,13,-1,-1,1.249,0.134088869,-0.2706358,1,0,0,0.8444,Diorite_rect,3,0.844,0,8,0,8,0,1,,,,,,,,,,,,,
63cc62e53735576a651d54a9,TCN,2024-06-11_13h52.44.590,LearnStrategy,2023.2.3,MacIntel,58.47953216,8,1,10,0.161025864,0.000725847,1,0,0,1.116,rock_grid_rect_2,1,02,-1,-1,1.116,0.38421861,-0.252191568,1,0,0,0.5978,Gabbro_rect,4,0.598,0,9,0,9,0,1,,,,,,,,,,,,,
63cc62e53735576a651d54a9,TCN,2024-06-11_13h52.44.590,LearnStrategy,2023.2.3,MacIntel,58.47953216,8,1,11,-0.010221471,-0.019801251,1,0,0,0.8152,rock_grid_rect_2,3,02,-1,-1,0.815,-0.383429645,-0.248520254,1,0,0,1.2592,Andesite_rect,1,1.259,0,10,0,10,0,1,,,,,,,,,,,,,
63cc62e53735576a651d54a9,TCN,2024-06-11_13h52.44.590,LearnStrategy,2023.2.3,MacIntel,58.47953216,8,1,12,0.043417583,-0.015197206,1,0,0,0.8645,rock_grid_rect_2,4,08,-1,-1,0.864,-0.369130105,-0.383219255,1,0,0,1.1124,Obsidian_rect,5,1.112,0,11,0,11,0,1,,,,,,,,,,,,,
63cc62e53735576a651d54a9,TCN,2024-06-11_13h52.44.590,LearnStrategy,2023.2.3,MacIntel,58.47953216,8,1,13,0.092964542,-0.011746802,1,0,1,1.9818,rock_grid_rect_2,8,09,-1,-1,1.982,-0.127184555,-0.253446897,1,0,1,0.6094,Basalt_rect,2,0.609,0,12,0,12,0,1,,,,,,,,,,,,,
63cc62e53735576a651d54a9,TCN,2024-06-11_13h52.44.590,LearnStrategy,2023.2.3,MacIntel,58.47953216,8,1,14,0.031505975,-0.003450404,1,0,1,1.3655,rock_grid_rect_2,6,05,-1,-1,1.365,-0.1255926,-0.403925185,1,0,1,0.9615,Pegmatite_rect,6,0.962,1,13,0,13,0,1,,,,,,,,,,,,,
63cc62e53735576a651d54a9,TCN,2024-06-11_13h52.44.590,LearnStrategy,2023.2.3,MacIntel,58.47953216,8,1,15,0.045654735,-0.01820579,1,0,1,1.2645,rock_grid_rect_2,2,04,-1,-1,1.264,0.139990322,-0.39652996,1,0,1,0.7779,Peridotite_rect,7,0.778,0,14,0,14,0,1,,,,,,,,,,,,,
63cc62e53735576a651d54a9,TCN,2024-06-11_13h52.44.590,LearnStrategy,2023.2.3,MacIntel,58.47953216,8,1,16,0.060287393,-0.017017084,1,0,1,0.7319,rock_grid_rect_2,2,16,-1,-1,0.732,0.36203644,-0.247029988,1,0,1,1.9431,Gabbro_rect,4,1.943,0,15,0,15,0,1,,,,,,,,,,,,,
63cc62e53735576a651d54a9,TCN,2024-06-11_13h52.44.590,LearnStrategy,2023.2.3,MacIntel,58.47953216,8,2,1,,,,,,,,2,02,,,,,,,,,,,1,3.391,0,,,,,,-0.355847453,-0.256294182,1,0,1,3.3911,Andesite_rect,0,0,0,0,1,
63cc62e53735576a651d54a9,TCN,2024-06-11_13h52.44.590,LearnStrategy,2023.2.3,MacIntel,58.47953216,8,2,2,,,,,,,,7,13,,,,,,,,,,,6,1.478,0,,,,,,-0.074074983,-0.390558376,1,0,1,1.4777,Pegmatite_rect,1,0,1,0,1,
63cc62e53735576a651d54a9,TCN,2024-06-11_13h52.44.590,LearnStrategy,2023.2.3,MacIntel,58.47953216,8,2,3,,,,,,,,8,06,,,,,,,,,,,4,2.125,0,,,,,,0.390106037,-0.266627861,1,0,1,2.1253,Gabbro_rect,2,0,2,0,1,
63cc62e53735576a651d54a9,TCN,2024-06-11_13h52.44.590,LearnStrategy,2023.2.3,MacIntel,58.47953216,8,2,4,,,,,,,,4,14,,,,,,,,,,,3,1.098,0,,,,,,0.173473968,-0.251241304,1,0,1,1.0978,Diorite_rect,3,0,3,0,1,
63cc62e53735576a651d54a9,TCN,2024-06-11_13h52.44.590,LearnStrategy,2023.2.3,MacIntel,58.47953216,8,2,5,,,,,,,,6,06,,,,,,,,,,,7,0.776,0,,,,,,0.143668649,-0.420486423,1,0,1,0.776,Peridotite_rect,4,0,4,0,1,
63cc62e53735576a651d54a9,TCN,2024-06-11_13h52.44.590,LearnStrategy,2023.2.3,MacIntel,58.47953216,8,2,6,,,,,,,,6,08,,,,,,,,,,,5,1.208,0,,,,,,-0.36482762,-0.403585054,1,0,1,1.208,Obsidian_rect,5,0,5,0,1,
63cc62e53735576a651d54a9,TCN,2024-06-11_13h52.44.590,LearnStrategy,2023.2.3,MacIntel,58.47953216,8,2,7,,,,,,,,3,13,,,,,,,,,,,6,1.374,0,,,,,,-0.098774826,-0.402869726,1,0,1,1.3743,Pegmatite_rect,6,0,6,0,1,
63cc62e53735576a651d54a9,TCN,2024-06-11_13h52.44.590,LearnStrategy,2023.2.3,MacIntel,58.47953216,8,2,8,,,,,,,,1,09,,,,,,,,,,,2,1.108,0,,,,,,-0.112201246,-0.248646488,1,0,1,1.1084,Basalt_rect,7,0,7,0,1,
63cc62e53735576a651d54a9,TCN,2024-06-11_13h52.44.590,LearnStrategy,2023.2.3,MacIntel,58.47953216,8,2,9,,,,,,,,4,05,,,,,,,,,,,3,1.641,0,,,,,,0.168442129,-0.250336625,1,0,1,1.641,Diorite_rect,8,0,8,0,1,
63cc62e53735576a651d54a9,TCN,2024-06-11_13h52.44.590,LearnStrategy,2023.2.3,MacIntel,58.47953216,8,2,10,,,,,,,,5,14,,,,,,,,,,,5,1.059,1,,,,,,-0.401470629,-0.411863919,1,0,1,1.0595,Obsidian_rect,9,0,9,0,1,
63cc62e53735576a651d54a9,TCN,2024-06-11_13h52.44.590,LearnStrategy,2023.2.3,MacIntel,58.47953216,8,2,11,,,,,,,,2,05,,,,,,,,,,,1,1.523,0,,,,,,-0.379446252,-0.245083876,1,0,1,1.5234,Andesite_rect,10,0,10,0,1,
63cc62e53735576a651d54a9,TCN,2024-06-11_13h52.44.590,LearnStrategy,2023.2.3,MacIntel,58.47953216,8,2,12,,,,,,,,7,04,,,,,,,,,,,7,3.324,1,,,,,,0.18682675,-0.403101156,1,0,1,3.3242,Peridotite_rect,11,0,11,0,1,
63cc62e53735576a651d54a9,TCN,2024-06-11_13h52.44.590,LearnStrategy,2023.2.3,MacIntel,58.47953216,8,2,13,,,,,,,,8,04,,,,,,,,,,,3,2.083,0,,,,,,0.170454864,-0.265228765,1,0,1,2.0828,Diorite_rect,12,0,12,0,1,
63cc62e53735576a651d54a9,TCN,2024-06-11_13h52.44.590,LearnStrategy,2023.2.3,MacIntel,58.47953216,8,2,14,,,,,,,,5,04,,,,,,,,,,,5,0.89,1,,,,,,-0.420682787,-0.403770899,1,0,1,0.8896,Obsidian_rect,13,0,13,0,1,
63cc62e53735576a651d54a9,TCN,2024-06-11_13h52.44.590,LearnStrategy,2023.2.3,MacIntel,58.47953216,8,2,15,,,,,,,,3,06,,,,,,,,,,,1,0.943,0,,,,,,-0.409377805,-0.231632911,1,0,1,0.9425,Andesite_rect,14,0,14,0,1,
63cc62e53735576a651d54a9,TCN,2024-06-11_13h52.44.590,LearnStrategy,2023.2.3,MacIntel,58.47953216,8,2,16,,,,,,,,1,06,,,,,,,,,,,2,0.709,0,,,,,,-0.191574562,-0.245774658,1,0,1,0.7087,Basalt_rect,15,0,15,0,1,
63cc62e53735576a651d54a9,TCN,2024-06-11_13h52.44.590,LearnStrategy,2023.2.3,MacIntel,58.47953216,9,1,1,0.106780184,-0.010175886,1,0,1,1.0808,rock_grid_rect_2,6,16,-1,-1,1.081,0.170297071,-0.233221359,1,0,1,7.0118,Diorite_rect,3,7.012,0,0,0,0,0,1,,,,,,,,,,,,,
63cc62e53735576a651d54a9,TCN,2024-06-11_13h52.44.590,LearnStrategy,2023.2.3,MacIntel,58.47953216,9,1,2,-0.050872419,-0.004954696,1,0,1,0.9815,rock_grid_rect_2,5,05,-1,-1,0.981,-0.327798895,-0.391175522,1,0,1,1.6107,Obsidian_rect,5,1.611,1,1,0,1,0,1,,,,,,,,,,,,,
63cc62e53735576a651d54a9,TCN,2024-06-11_13h52.44.590,LearnStrategy,2023.2.3,MacIntel,58.47953216,9,1,3,0.055595686,-0.011112124,1,0,1,0.8814,rock_grid_rect_2,4,11,-1,-1,0.881,-0.161779763,-0.243449843,1,0,1,1.2632,Basalt_rect,2,1.263,0,2,0,2,0,1,,,,,,,,,,,,,
63cc62e53735576a651d54a9,TCN,2024-06-11_13h52.44.590,LearnStrategy,2023.2.3,MacIntel,58.47953216,9,1,4,0.11688594,-0.006350286,1,0,1,1.5166,rock_grid_rect_2,3,09,-1,-1,1.517,0.165352895,-0.241651004,1,0,1,1.9923,Diorite_rect,3,1.992,1,3,0,3,0,1,,,,,,,,,,,,,
63cc62e53735576a651d54a9,TCN,2024-06-11_13h52.44.590,LearnStrategy,2023.2.3,MacIntel,58.47953216,9,1,5,0.09344844,-0.000487405,1,0,1,0.8649,rock_grid_rect_2,8,05,-1,-1,0.865,0.160643655,-0.403132714,1,0,1,1.2473,Peridotite_rect,7,1.247,0,4,0,4,0,1,,,,,,,,,,,,,
63cc62e53735576a651d54a9,TCN,2024-06-11_13h52.44.590,LearnStrategy,2023.2.3,MacIntel,58.47953216,9,1,6,0.116998149,0.022886978,1,0,1,0.9315,rock_grid_rect_2,4,10,-1,-1,0.931,0.333745932,-0.380561322,1,0,1,1.1752,Pumice_rect,8,1.175,0,5,0,5,0,1,,,,,,,,,,,,,
63cc62e53735576a651d54a9,TCN,2024-06-11_13h52.44.590,LearnStrategy,2023.2.3,MacIntel,58.47953216,9,1,7,0.008724192,0.002700011,1,0,1,1.0311,rock_grid_rect_2,3,08,-1,-1,1.031,-0.125757406,-0.236689295,1,0,1,0.6787,Basalt_rect,2,0.679,0,6,0,6,0,1,,,,,,,,,,,,,
63cc62e53735576a651d54a9,TCN,2024-06-11_13h52.44.590,LearnStrategy,2023.2.3,MacIntel,58.47953216,9,1,8,0.110100847,0.02011333,1,0,1,1.6992,rock_grid_rect_2,7,06,-1,-1,1.699,-0.09124986,-0.390589935,1,0,1,0.8281,Pegmatite_rect,6,0.828,0,7,0,7,0,1,,,,,,,,,,,,,
63cc62e53735576a651d54a9,TCN,2024-06-11_13h52.44.590,LearnStrategy,2023.2.3,MacIntel,58.47953216,9,1,9,0.029889475,-0.006213532,1,0,1,1.0156,rock_grid_rect_2,2,11,-1,-1,1.016,0.151944008,-0.247457782,1,0,1,0.6946,Diorite_rect,3,0.695,0,8,0,8,0,1,,,,,,,,,,,,,
63cc62e53735576a651d54a9,TCN,2024-06-11_13h52.44.590,LearnStrategy,2023.2.3,MacIntel,58.47953216,9,1,10,-0.015551363,-0.001111563,1,0,1,0.8977,rock_grid_rect_2,5,10,-1,-1,0.898,-0.363179561,-0.409689884,1,0,1,1.1955,Obsidian_rect,5,1.196,1,9,0,9,0,1,,,,,,,,,,,,,
63cc62e53735576a651d54a9,TCN,2024-06-11_13h52.44.590,LearnStrategy,2023.2.3,MacIntel,58.47953216,9,1,11,-0.033872868,-0.018072543,1,0,1,0.6646,rock_grid_rect_2,6,15,-1,-1,0.665,-0.170058629,-0.241142561,1,0,1,0.5092,Basalt_rect,2,0.509,0,10,0,10,0,1,,,,,,,,,,,,,
63cc62e53735576a651d54a9,TCN,2024-06-11_13h52.44.590,LearnStrategy,2023.2.3,MacIntel,58.47953216,9,1,12,0.055132827,-0.002124944,1,0,1,0.9146,rock_grid_rect_2,1,11,-1,-1,0.915,0.087013998,-0.266596303,1,0,1,1.2446,Diorite_rect,3,1.245,0,11,0,11,0,1,,,,,,,,,,,,,
63cc62e53735576a651d54a9,TCN,2024-06-11_13h52.44.590,LearnStrategy,2023.2.3,MacIntel,58.47953216,9,1,13,0.013163431,0.011543425,1,0,1,0.9508,rock_grid_rect_2,8,08,-1,-1,0.951,-0.318790675,-0.234062921,1,0,1,1.0766,Andesite_rect,1,1.077,0,12,0,12,0,1,,,,,,,,,,,,,
63cc62e53735576a651d54a9,TCN,2024-06-11_13h52.44.590,LearnStrategy,2023.2.3,MacIntel,58.47953216,9,1,14,0.02557647,-0.015176167,1,0,1,0.7484,rock_grid_rect_2,2,10,-1,-1,0.748,-0.125294547,-0.249161945,1,0,1,1.9793,Basalt_rect,2,1.979,1,13,0,13,0,1,,,,,,,,,,,,,
63cc62e53735576a651d54a9,TCN,2024-06-11_13h52.44.590,LearnStrategy,2023.2.3,MacIntel,58.47953216,9,1,15,0.041846667,-0.016263184,1,0,1,0.7328,rock_grid_rect_2,7,02,-1,-1,0.733,-0.088830369,-0.239995932,1,0,1,0.527,Basalt_rect,2,0.527,0,14,0,14,0,1,,,,,,,,,,,,,
63cc62e53735576a651d54a9,TCN,2024-06-11_13h52.44.590,LearnStrategy,2023.2.3,MacIntel,58.47953216,9,1,16,0.063601044,0.022062949,1,0,1,0.7489,rock_grid_rect_2,1,03,-1,-1,0.749,0.125617145,-0.401074394,1,0,1,0.878,Peridotite_rect,7,0.878,0,15,0,15,0,1,,,,,,,,,,,,,
63cc62e53735576a651d54a9,TCN,2024-06-11_13h52.44.590,LearnStrategy,2023.2.3,MacIntel,58.47953216,9,2,1,,,,,,,,3,11,,,,,,,,,,,2,29.024,0,,,,,,-0.076641747,-0.2389545,1,0,0,29.0239,Basalt_rect,0,0,0,0,1,
63cc62e53735576a651d54a9,TCN,2024-06-11_13h52.44.590,LearnStrategy,2023.2.3,MacIntel,58.47953216,9,2,2,,,,,,,,4,01,,,,,,,,,,,3,1.941,0,,,,,,0.193148985,-0.253099753,1,0,0,1.9409,Diorite_rect,1,0,1,0,1,
63cc62e53735576a651d54a9,TCN,2024-06-11_13h52.44.590,LearnStrategy,2023.2.3,MacIntel,58.47953216,9,2,3,,,,,,,,4,16,,,,,,,,,,,8,4.592,0,,,,,,0.399338673,-0.417151734,1,0,0,4.5917,Pumice_rect,2,0,2,0,1,
63cc62e53735576a651d54a9,TCN,2024-06-11_13h52.44.590,LearnStrategy,2023.2.3,MacIntel,58.47953216,9,2,4,,,,,,,,2,12,,,,,,,,,,,4,3.1,0,,,,,,0.397013858,-0.257297043,1,0,0,3.1,Gabbro_rect,3,0,3,0,1,
63cc62e53735576a651d54a9,TCN,2024-06-11_13h52.44.590,LearnStrategy,2023.2.3,MacIntel,58.47953216,9,2,5,,,,,,,,3,14,,,,,,,,,,,2,0.943,0,,,,,,-0.058225567,-0.238165535,1,0,0,0.9425,Basalt_rect,4,0,4,0,1,
63cc62e53735576a651d54a9,TCN,2024-06-11_13h52.44.590,LearnStrategy,2023.2.3,MacIntel,58.47953216,9,2,6,,,,,,,,1,16,,,,,,,,,,,3,0.941,0,,,,,,0.159212999,-0.253993913,1,0,0,0.9411,Diorite_rect,5,0,5,0,1,
63cc62e53735576a651d54a9,TCN,2024-06-11_13h52.44.590,LearnStrategy,2023.2.3,MacIntel,58.47953216,9,2,7,,,,,,,,6,12,,,,,,,,,,,7,1.676,0,,,,,,0.118158803,-0.390453181,1,0,0,1.6759,Peridotite_rect,6,0,6,0,1,
63cc62e53735576a651d54a9,TCN,2024-06-11_13h52.44.590,LearnStrategy,2023.2.3,MacIntel,58.47953216,9,2,8,,,,,,,,5,12,,,,,,,,,,,5,1.341,1,,,,,,-0.33335671,-0.388068756,1,0,0,1.341,Obsidian_rect,7,0,7,0,1,
63cc62e53735576a651d54a9,TCN,2024-06-11_13h52.44.590,LearnStrategy,2023.2.3,MacIntel,58.47953216,9,2,9,,,,,,,,6,07,,,,,,,,,,,5,2.309,0,,,,,,-0.370715047,-0.393174231,1,0,0,2.3086,Obsidian_rect,8,0,8,0,1,
63cc62e53735576a651d54a9,TCN,2024-06-11_13h52.44.590,LearnStrategy,2023.2.3,MacIntel,58.47953216,9,2,10,,,,,,,,8,13,,,,,,,,,,,3,2.042,0,,,,,,0.124340776,-0.24314127,1,0,0,2.0416,Diorite_rect,9,0,9,0,1,
63cc62e53735576a651d54a9,TCN,2024-06-11_13h52.44.590,LearnStrategy,2023.2.3,MacIntel,58.47953216,9,2,11,,,,,,,,5,09,,,,,,,,,,,5,1.859,1,,,,,,-0.346698973,-0.404766747,1,0,0,1.8587,Obsidian_rect,10,0,10,0,1,
63cc62e53735576a651d54a9,TCN,2024-06-11_13h52.44.590,LearnStrategy,2023.2.3,MacIntel,58.47953216,9,2,12,,,,,,,,7,10,,,,,,,,,,,2,328.651,0,,,,,,-0.098781839,-0.245445046,1,0,0,328.6514,Basalt_rect,11,0,11,0,1,
63cc62e53735576a651d54a9,TCN,2024-06-11_13h52.44.590,LearnStrategy,2023.2.3,MacIntel,58.47953216,9,2,13,,,,,,,,7,15,,,,,,,,,,,3,0.848,0,,,,,,0.169823693,-0.245683489,1,0,0,0.8479,Diorite_rect,12,0,12,0,1,
63cc62e53735576a651d54a9,TCN,2024-06-11_13h52.44.590,LearnStrategy,2023.2.3,MacIntel,58.47953216,9,2,14,,,,,,,,8,10,,,,,,,,,,,6,0.891,0,,,,,,-0.169963953,-0.393721247,1,0,0,0.8911,Pegmatite_rect,13,0,13,0,1,
63cc62e53735576a651d54a9,TCN,2024-06-11_13h52.44.590,LearnStrategy,2023.2.3,MacIntel,58.47953216,9,2,15,,,,,,,,1,05,,,,,,,,,,,8,2.509,0,,,,,,0.379295472,-0.379186771,1,0,0,2.5089,Pumice_rect,14,0,14,0,1,
63cc62e53735576a651d54a9,TCN,2024-06-11_13h52.44.590,LearnStrategy,2023.2.3,MacIntel,58.47953216,9,2,16,,,,,,,,2,01,,,,,,,,,,,2,1.95,1,,,,,,-0.144839823,-0.24027996,1,0,0,1.9501,Basalt_rect,15,0,15,0,1,
63cc62e53735576a651d54a9,TCN,2024-06-11_13h52.44.590,LearnStrategy,2023.2.3,MacIntel,58.47953216,,,,,,,,,,,,,,,,,,,,,,,,,,,,,,,,,,,,,,,,,,,0
63cc62e53735576a651d54a9,TCN,2024-06-11_13h52.44.590,LearnStrategy,2023.2.3,MacIntel,58.47953216,,,,,,,,,,,,,,,,,,,,,,,,,,,,,,,,,,,,,,,,,,,
63cc62e53735576a651d54a9,TCN,2024-06-11_13h52.44.590,LearnStrategy,2023.2.3,MacIntel,58.47953216,,,,,,,,,,,3,02,1,1,,,,,,,,,,,,,,,,,,,,,,,,,,,,,
63cc62e53735576a651d54a9,TCN,2024-06-11_13h52.44.590,LearnStrategy,2023.2.3,MacIntel,58.47953216,,,,,,,,,,,4,10,1,2,,,,,,,,,,,,,,,,,,,,,,,,,,,,,
63cc62e53735576a651d54a9,TCN,2024-06-11_13h52.44.590,LearnStrategy,2023.2.3,MacIntel,58.47953216,,,,,,,,,,,2,04,1,3,,,,,,,,,,,,,,,,,,,,,,,,,,,,,
63cc62e53735576a651d54a9,TCN,2024-06-11_13h52.44.590,LearnStrategy,2023.2.3,MacIntel,58.47953216,,,,,,,,,,,1,10,1,4,,,,,,,,,,,,,,,,,,,,,,,,,,,,,
63cc62e53735576a651d54a9,TCN,2024-06-11_13h52.44.590,LearnStrategy,2023.2.3,MacIntel,58.47953216,,,,,,,,,,,6,05,1,5,,,,,,,,,,,,,,,,,,,,,,,,,,,,,
63cc62e53735576a651d54a9,TCN,2024-06-11_13h52.44.590,LearnStrategy,2023.2.3,MacIntel,58.47953216,,,,,,,,,,,2,10,1,6,,,,,,,,,,,,,,,,,,,,,,,,,,,,,
63cc62e53735576a651d54a9,TCN,2024-06-11_13h52.44.590,LearnStrategy,2023.2.3,MacIntel,58.47953216,,,,,,,,,,,3,08,1,7,,,,,,,,,,,,,,,,,,,,,,,,,,,,,
63cc62e53735576a651d54a9,TCN,2024-06-11_13h52.44.590,LearnStrategy,2023.2.3,MacIntel,58.47953216,,,,,,,,,,,3,16,1,8,,,,,,,,,,,,,,,,,,,,,,,,,,,,,
63cc62e53735576a651d54a9,TCN,2024-06-11_13h52.44.590,LearnStrategy,2023.2.3,MacIntel,58.47953216,,,,,,,,,,,5,11,2,1,,,,,,,,,,,,,,,,,,,,,,,,,,,,,
63cc62e53735576a651d54a9,TCN,2024-06-11_13h52.44.590,LearnStrategy,2023.2.3,MacIntel,58.47953216,,,,,,,,,,,3,07,2,2,,,,,,,,,,,,,,,,,,,,,,,,,,,,,
63cc62e53735576a651d54a9,TCN,2024-06-11_13h52.44.590,LearnStrategy,2023.2.3,MacIntel,58.47953216,,,,,,,,,,,6,13,2,3,,,,,,,,,,,,,,,,,,,,,,,,,,,,,
63cc62e53735576a651d54a9,TCN,2024-06-11_13h52.44.590,LearnStrategy,2023.2.3,MacIntel,58.47953216,,,,,,,,,,,3,15,2,4,,,,,,,,,,,,,,,,,,,,,,,,,,,,,
63cc62e53735576a651d54a9,TCN,2024-06-11_13h52.44.590,LearnStrategy,2023.2.3,MacIntel,58.47953216,,,,,,,,,,,8,15,2,5,,,,,,,,,,,,,,,,,,,,,,,,,,,,,
63cc62e53735576a651d54a9,TCN,2024-06-11_13h52.44.590,LearnStrategy,2023.2.3,MacIntel,58.47953216,,,,,,,,,,,5,02,2,6,,,,,,,,,,,,,,,,,,,,,,,,,,,,,
63cc62e53735576a651d54a9,TCN,2024-06-11_13h52.44.590,LearnStrategy,2023.2.3,MacIntel,58.47953216,,,,,,,,,,,6,10,2,7,,,,,,,,,,,,,,,,,,,,,,,,,,,,,
63cc62e53735576a651d54a9,TCN,2024-06-11_13h52.44.590,LearnStrategy,2023.2.3,MacIntel,58.47953216,,,,,,,,,,,4,11,2,8,,,,,,,,,,,,,,,,,,,,,,,,,,,,,
63cc62e53735576a651d54a9,TCN,2024-06-11_13h52.44.590,LearnStrategy,2023.2.3,MacIntel,58.47953216,,,,,,,,,,,7,06,3,1,,,,,,,,,,,,,,,,,,,,,,,,,,,,,
63cc62e53735576a651d54a9,TCN,2024-06-11_13h52.44.590,LearnStrategy,2023.2.3,MacIntel,58.47953216,,,,,,,,,,,8,14,3,2,,,,,,,,,,,,,,,,,,,,,,,,,,,,,
63cc62e53735576a651d54a9,TCN,2024-06-11_13h52.44.590,LearnStrategy,2023.2.3,MacIntel,58.47953216,,,,,,,,,,,6,15,3,3,,,,,,,,,,,,,,,,,,,,,,,,,,,,,
63cc62e53735576a651d54a9,TCN,2024-06-11_13h52.44.590,LearnStrategy,2023.2.3,MacIntel,58.47953216,,,,,,,,,,,1,03,3,4,,,,,,,,,,,,,,,,,,,,,,,,,,,,,
63cc62e53735576a651d54a9,TCN,2024-06-11_13h52.44.590,LearnStrategy,2023.2.3,MacIntel,58.47953216,,,,,,,,,,,8,05,3,5,,,,,,,,,,,,,,,,,,,,,,,,,,,,,
63cc62e53735576a651d54a9,TCN,2024-06-11_13h52.44.590,LearnStrategy,2023.2.3,MacIntel,58.47953216,,,,,,,,,,,1,02,3,6,,,,,,,,,,,,,,,,,,,,,,,,,,,,,
63cc62e53735576a651d54a9,TCN,2024-06-11_13h52.44.590,LearnStrategy,2023.2.3,MacIntel,58.47953216,,,,,,,,,,,5,10,3,7,,,,,,,,,,,,,,,,,,,,,,,,,,,,,
63cc62e53735576a651d54a9,TCN,2024-06-11_13h52.44.590,LearnStrategy,2023.2.3,MacIntel,58.47953216,,,,,,,,,,,8,08,3,8,,,,,,,,,,,,,,,,,,,,,,,,,,,,,
63cc62e53735576a651d54a9,TCN,2024-06-11_13h52.44.590,LearnStrategy,2023.2.3,MacIntel,58.47953216,,,,,,,,,,,6,16,4,1,,,,,,,,,,,,,,,,,,,,,,,,,,,,,
63cc62e53735576a651d54a9,TCN,2024-06-11_13h52.44.590,LearnStrategy,2023.2.3,MacIntel,58.47953216,,,,,,,,,,,4,12,4,2,,,,,,,,,,,,,,,,,,,,,,,,,,,,,
63cc62e53735576a651d54a9,TCN,2024-06-11_13h52.44.590,LearnStrategy,2023.2.3,MacIntel,58.47953216,,,,,,,,,,,7,08,4,3,,,,,,,,,,,,,,,,,,,,,,,,,,,,,
63cc62e53735576a651d54a9,TCN,2024-06-11_13h52.44.590,LearnStrategy,2023.2.3,MacIntel,58.47953216,,,,,,,,,,,2,08,4,4,,,,,,,,,,,,,,,,,,,,,,,,,,,,,
63cc62e53735576a651d54a9,TCN,2024-06-11_13h52.44.590,LearnStrategy,2023.2.3,MacIntel,58.47953216,,,,,,,,,,,4,08,4,5,,,,,,,,,,,,,,,,,,,,,,,,,,,,,
63cc62e53735576a651d54a9,TCN,2024-06-11_13h52.44.590,LearnStrategy,2023.2.3,MacIntel,58.47953216,,,,,,,,,,,6,03,4,6,,,,,,,,,,,,,,,,,,,,,,,,,,,,,
63cc62e53735576a651d54a9,TCN,2024-06-11_13h52.44.590,LearnStrategy,2023.2.3,MacIntel,58.47953216,,,,,,,,,,,4,15,4,7,,,,,,,,,,,,,,,,,,,,,,,,,,,,,
63cc62e53735576a651d54a9,TCN,2024-06-11_13h52.44.590,LearnStrategy,2023.2.3,MacIntel,58.47953216,,,,,,,,,,,8,02,4,8,,,,,,,,,,,,,,,,,,,,,,,,,,,,,
63cc62e53735576a651d54a9,TCN,2024-06-11_13h52.44.590,LearnStrategy,2023.2.3,MacIntel,58.47953216,,,,,,,,,,,1,11,5,1,,,,,,,,,,,,,,,,,,,,,,,,,,,,,
63cc62e53735576a651d54a9,TCN,2024-06-11_13h52.44.590,LearnStrategy,2023.2.3,MacIntel,58.47953216,,,,,,,,,,,5,05,5,2,,,,,,,,,,,,,,,,,,,,,,,,,,,,,
63cc62e53735576a651d54a9,TCN,2024-06-11_13h52.44.590,LearnStrategy,2023.2.3,MacIntel,58.47953216,,,,,,,,,,,5,08,5,3,,,,,,,,,,,,,,,,,,,,,,,,,,,,,
63cc62e53735576a651d54a9,TCN,2024-06-11_13h52.44.590,LearnStrategy,2023.2.3,MacIntel,58.47953216,,,,,,,,,,,7,12,5,4,,,,,,,,,,,,,,,,,,,,,,,,,,,,,
63cc62e53735576a651d54a9,TCN,2024-06-11_13h52.44.590,LearnStrategy,2023.2.3,MacIntel,58.47953216,,,,,,,,,,,2,11,5,5,,,,,,,,,,,,,,,,,,,,,,,,,,,,,
63cc62e53735576a651d54a9,TCN,2024-06-11_13h52.44.590,LearnStrategy,2023.2.3,MacIntel,58.47953216,,,,,,,,,,,1,04,5,6,,,,,,,,,,,,,,,,,,,,,,,,,,,,,
63cc62e53735576a651d54a9,TCN,2024-06-11_13h52.44.590,LearnStrategy,2023.2.3,MacIntel,58.47953216,,,,,,,,,,,4,09,5,7,,,,,,,,,,,,,,,,,,,,,,,,,,,,,
63cc62e53735576a651d54a9,TCN,2024-06-11_13h52.44.590,LearnStrategy,2023.2.3,MacIntel,58.47953216,,,,,,,,,,,3,09,5,8,,,,,,,,,,,,,,,,,,,,,,,,,,,,,
63cc62e53735576a651d54a9,TCN,2024-06-11_13h52.44.590,LearnStrategy,2023.2.3,MacIntel,58.47953216,,,,,,,,,,,7,16,6,1,,,,,,,,,,,,,,,,,,,,,,,,,,,,,
63cc62e53735576a651d54a9,TCN,2024-06-11_13h52.44.590,LearnStrategy,2023.2.3,MacIntel,58.47953216,,,,,,,,,,,7,07,6,2,,,,,,,,,,,,,,,,,,,,,,,,,,,,,
63cc62e53735576a651d54a9,TCN,2024-06-11_13h52.44.590,LearnStrategy,2023.2.3,MacIntel,58.47953216,,,,,,,,,,,5,16,6,3,,,,,,,,,,,,,,,,,,,,,,,,,,,,,
63cc62e53735576a651d54a9,TCN,2024-06-11_13h52.44.590,LearnStrategy,2023.2.3,MacIntel,58.47953216,,,,,,,,,,,1,07,6,4,,,,,,,,,,,,,,,,,,,,,,,,,,,,,
63cc62e53735576a651d54a9,TCN,2024-06-11_13h52.44.590,LearnStrategy,2023.2.3,MacIntel,58.47953216,,,,,,,,,,,2,09,6,5,,,,,,,,,,,,,,,,,,,,,,,,,,,,,
63cc62e53735576a651d54a9,TCN,2024-06-11_13h52.44.590,LearnStrategy,2023.2.3,MacIntel,58.47953216,,,,,,,,,,,8,09,6,6,,,,,,,,,,,,,,,,,,,,,,,,,,,,,
63cc62e53735576a651d54a9,TCN,2024-06-11_13h52.44.590,LearnStrategy,2023.2.3,MacIntel,58.47953216,,,,,,,,,,,7,02,6,7,,,,,,,,,,,,,,,,,,,,,,,,,,,,,
63cc62e53735576a651d54a9,TCN,2024-06-11_13h52.44.590,LearnStrategy,2023.2.3,MacIntel,58.47953216,,,,,,,,,,,2,16,6,8,,,,,,,,,,,,,,,,,,,,,,,,,,,,,