participant,condition,date,expName,psychopyVersion,OS,frameRate,block,phase,trial,learn_mouse_2.x,learn_mouse_2.y,learn_mouse_2.leftButton,learn_mouse_2.midButton,learn_mouse_2.rightButton,learn_mouse_2.time,learn_mouse_2.clicked_name,cat,token,row,col,t_select,cat_mouse_l.x,cat_mouse_l.y,cat_mouse_l.leftButton,cat_mouse_l.midButton,cat_mouse_l.rightButton,cat_mouse_l.time,cat_mouse_l.clicked_name,resp,t_resp,corr,train_trials.thisRepN,train_trials.thisTrialN,train_trials.thisN,train_trials.thisIndex,train_trials.ran,cat_mouse_t.x,cat_mouse_t.y,cat_mouse_t.leftButton,cat_mouse_t.midButton,cat_mouse_t.rightButton,cat_mouse_t.time,cat_mouse_t.clicked_name,test_trials.thisRepN,test_trials.thisTrialN,test_trials.thisN,test_trials.thisIndex,test_trials.ran
63cfff59a184313f875f6a06,TCR,2024-06-10_14h19.36.229,LearnStrategy,2023.2.3,Win32,74.07407407,,,,,,,,,,,,,,,,,,,,,,,,,,,,,,,,,,,,,,,,,,
63cfff59a184313f875f6a06,TCR,2024-06-10_14h19.36.229,LearnStrategy,2023.2.3,Win32,74.07407407,1,1,1,-0.034444444,0.001111111,1,0,0,2.5206,rock_grid_rect_2,8,09,-1,-1,2.521,0.407777778,-0.407777778,1,0,0,16.5976,Pumice_rect,8,16.598,1,0,0,0,0,1,,,,,,,,,,,,
63cfff59a184313f875f6a06,TCR,2024-06-10_14h19.36.229,LearnStrategy,2023.2.3,Win32,74.07407407,1,1,2,0.008888889,0.024444444,1,0,0,1.0297,rock_grid_rect_2,4,05,-1,-1,1.03,0.167777778,-0.253333333,1,0,0,6.2345,Diorite_rect,3,6.235,0,1,0,1,0,1,,,,,,,,,,,,
63cfff59a184313f875f6a06,TCR,2024-06-10_14h19.36.229,LearnStrategy,2023.2.3,Win32,74.07407407,1,1,3,-0.034444444,0.021111111,1,0,0,0.8426,rock_grid_rect_2,5,08,-1,-1,0.843,0.11,-0.234444444,1,0,0,5.0882,Diorite_rect,3,5.088,0,2,0,2,0,1,,,,,,,,,,,,
63cfff59a184313f875f6a06,TCR,2024-06-10_14h19.36.229,LearnStrategy,2023.2.3,Win32,74.07407407,1,1,4,0.003333333,0.021111111,1,0,0,1.1397,rock_grid_rect_2,2,09,-1,-1,1.14,-0.365555556,-0.241111111,1,0,0,6.4775,Andesite_rect,1,6.477,0,3,0,3,0,1,,,,,,,,,,,,
63cfff59a184313f875f6a06,TCR,2024-06-10_14h19.36.229,LearnStrategy,2023.2.3,Win32,74.07407407,1,1,5,-0.028888889,0.007777778,1,0,0,1.1783,rock_grid_rect_2,6,05,-1,-1,1.178,-0.123333333,-0.407777778,1,0,0,7.1051,Pegmatite_rect,6,7.105,1,4,0,4,0,1,,,,,,,,,,,,
63cfff59a184313f875f6a06,TCR,2024-06-10_14h19.36.229,LearnStrategy,2023.2.3,Win32,74.07407407,1,1,6,0.013333333,-0.008888889,1,0,0,1.1257,rock_grid_rect_2,3,10,-1,-1,1.126,0.15,-0.402222222,1,0,0,3.3498,Peridotite_rect,7,3.35,0,5,0,5,0,1,,,,,,,,,,,,
63cfff59a184313f875f6a06,TCR,2024-06-10_14h19.36.229,LearnStrategy,2023.2.3,Win32,74.07407407,1,1,7,0,-0.007777778,1,0,0,1.1229,rock_grid_rect_2,3,15,-1,-1,1.123,-0.413333333,-0.246666667,1,0,0,3.5253,Andesite_rect,1,3.525,0,6,0,6,0,1,,,,,,,,,,,,
63cfff59a184313f875f6a06,TCR,2024-06-10_14h19.36.229,LearnStrategy,2023.2.3,Win32,74.07407407,1,1,8,-0.038888889,0.021111111,1,0,0,1.218,rock_grid_rect_2,1,07,-1,-1,1.218,-0.396666667,-0.264444444,1,0,0,4.5109,Andesite_rect,1,4.511,1,7,0,7,0,1,,,,,,,,,,,,
63cfff59a184313f875f6a06,TCR,2024-06-10_14h19.36.229,LearnStrategy,2023.2.3,Win32,74.07407407,1,1,9,-0.031111111,0.008888889,1,0,0,2.8589,rock_grid_rect_2,7,07,-1,-1,2.859,0.18,-0.4,1,0,0,7.4818,Peridotite_rect,7,7.482,1,8,0,8,0,1,,,,,,,,,,,,
63cfff59a184313f875f6a06,TCR,2024-06-10_14h19.36.229,LearnStrategy,2023.2.3,Win32,74.07407407,1,1,10,-0.056666667,0.01,1,0,0,0.7893,rock_grid_rect_2,6,06,-1,-1,0.789,-0.347777778,-0.247777778,1,0,0,7.5205,Andesite_rect,1,7.52,0,9,0,9,0,1,,,,,,,,,,,,
63cfff59a184313f875f6a06,TCR,2024-06-10_14h19.36.229,LearnStrategy,2023.2.3,Win32,74.07407407,1,1,11,-0.024444444,-0.013333333,1,0,0,1.1929,rock_grid_rect_2,2,14,-1,-1,1.193,0.42,-0.393333333,1,0,0,3.6328,Pumice_rect,8,3.633,0,10,0,10,0,1,,,,,,,,,,,,
63cfff59a184313f875f6a06,TCR,2024-06-10_14h19.36.229,LearnStrategy,2023.2.3,Win32,74.07407407,1,1,12,-0.07,0.017777778,1,0,0,1.2232,rock_grid_rect_2,7,16,-1,-1,1.223,-0.324444444,-0.393333333,1,0,0,6.9254,Obsidian_rect,5,6.925,0,11,0,11,0,1,,,,,,,,,,,,
63cfff59a184313f875f6a06,TCR,2024-06-10_14h19.36.229,LearnStrategy,2023.2.3,Win32,74.07407407,1,1,13,-0.04,-0.017777778,1,0,0,0.8902,rock_grid_rect_2,8,15,-1,-1,0.89,0.383333333,-0.406666667,1,0,0,2.4502,Pumice_rect,8,2.45,1,12,0,12,0,1,,,,,,,,,,,,
63cfff59a184313f875f6a06,TCR,2024-06-10_14h19.36.229,LearnStrategy,2023.2.3,Win32,74.07407407,1,1,14,-0.055555556,-0.018888889,1,0,0,0.997,rock_grid_rect_2,4,10,-1,-1,0.997,0.195555556,-0.268888889,1,0,0,4.4162,Diorite_rect,3,4.416,0,13,0,13,0,1,,,,,,,,,,,,
63cfff59a184313f875f6a06,TCR,2024-06-10_14h19.36.229,LearnStrategy,2023.2.3,Win32,74.07407407,1,1,15,-0.048888889,-0.014444444,1,0,0,1.5831,rock_grid_rect_2,5,07,-1,-1,1.583,-0.33,-0.407777778,1,0,0,3.0354,Obsidian_rect,5,3.035,1,14,0,14,0,1,,,,,,,,,,,,
63cfff59a184313f875f6a06,TCR,2024-06-10_14h19.36.229,LearnStrategy,2023.2.3,Win32,74.07407407,1,1,16,-0.033333333,0.01,1,0,0,1.1433,rock_grid_rect_2,1,05,-1,-1,1.143,-0.183333333,-0.393333333,1,0,0,1.938,Pegmatite_rect,6,1.938,0,15,0,15,0,1,,,,,,,,,,,,
63cfff59a184313f875f6a06,TCR,2024-06-10_14h19.36.229,LearnStrategy,2023.2.3,Win32,74.07407407,1,2,1,,,,,,,,2,06,,,,,,,,,,,2,6.511,1,,,,,,-0.145555556,-0.257777778,1,0,0,6.5111,Basalt_rect,0,0,0,0,1
63cfff59a184313f875f6a06,TCR,2024-06-10_14h19.36.229,LearnStrategy,2023.2.3,Win32,74.07407407,1,2,2,,,,,,,,5,12,,,,,,,,,,,5,1.854,1,,,,,,-0.402222222,-0.393333333,1,0,0,1.8542,Obsidian_rect,1,0,1,0,1
63cfff59a184313f875f6a06,TCR,2024-06-10_14h19.36.229,LearnStrategy,2023.2.3,Win32,74.07407407,1,2,3,,,,,,,,4,13,,,,,,,,,,,2,10.728,0,,,,,,-0.086666667,-0.268888889,1,0,0,10.7282,Basalt_rect,2,0,2,0,1
63cfff59a184313f875f6a06,TCR,2024-06-10_14h19.36.229,LearnStrategy,2023.2.3,Win32,74.07407407,1,2,4,,,,,,,,7,10,,,,,,,,,,,7,17.826,1,,,,,,0.147777778,-0.39,1,0,0,17.8256,Peridotite_rect,3,0,3,0,1
63cfff59a184313f875f6a06,TCR,2024-06-10_14h19.36.229,LearnStrategy,2023.2.3,Win32,74.07407407,1,2,5,,,,,,,,3,14,,,,,,,,,,,1,11.941,0,,,,,,-0.377777778,-0.253333333,1,0,0,11.9413,Andesite_rect,4,0,4,0,1
63cfff59a184313f875f6a06,TCR,2024-06-10_14h19.36.229,LearnStrategy,2023.2.3,Win32,74.07407407,1,2,6,,,,,,,,5,02,,,,,,,,,,,5,1.427,1,,,,,,-0.383333333,-0.406666667,1,0,0,1.4273,Obsidian_rect,5,0,5,0,1
63cfff59a184313f875f6a06,TCR,2024-06-10_14h19.36.229,LearnStrategy,2023.2.3,Win32,74.07407407,1,2,7,,,,,,,,3,06,,,,,,,,,,,6,6.004,0,,,,,,-0.178888889,-0.398888889,1,0,0,6.0039,Pegmatite_rect,6,0,6,0,1
63cfff59a184313f875f6a06,TCR,2024-06-10_14h19.36.229,LearnStrategy,2023.2.3,Win32,74.07407407,1,2,8,,,,,,,,1,16,,,,,,,,,,,1,6.02,1,,,,,,-0.42,-0.267777778,1,0,0,6.0198,Andesite_rect,7,0,7,0,1
63cfff59a184313f875f6a06,TCR,2024-06-10_14h19.36.229,LearnStrategy,2023.2.3,Win32,74.07407407,1,2,9,,,,,,,,4,01,,,,,,,,,,,4,10.865,1,,,,,,0.453333333,-0.245555556,1,0,0,10.8648,Gabbro_rect,8,0,8,0,1
63cfff59a184313f875f6a06,TCR,2024-06-10_14h19.36.229,LearnStrategy,2023.2.3,Win32,74.07407407,1,2,10,,,,,,,,7,02,,,,,,,,,,,4,3.877,0,,,,,,0.453333333,-0.245555556,1,0,0,3.8767,Gabbro_rect,9,0,9,0,1
63cfff59a184313f875f6a06,TCR,2024-06-10_14h19.36.229,LearnStrategy,2023.2.3,Win32,74.07407407,1,2,11,,,,,,,,8,05,,,,,,,,,,,8,2.221,1,,,,,,0.416666667,-0.397777778,1,0,0,2.2205,Pumice_rect,10,0,10,0,1
63cfff59a184313f875f6a06,TCR,2024-06-10_14h19.36.229,LearnStrategy,2023.2.3,Win32,74.07407407,1,2,12,,,,,,,,6,03,,,,,,,,,,,7,3.5,0,,,,,,0.162222222,-0.39,1,0,0,3.4999,Peridotite_rect,11,0,11,0,1
63cfff59a184313f875f6a06,TCR,2024-06-10_14h19.36.229,LearnStrategy,2023.2.3,Win32,74.07407407,1,2,13,,,,,,,,8,10,,,,,,,,,,,8,4.369,1,,,,,,0.434444444,-0.406666667,1,0,0,4.3686,Pumice_rect,12,0,12,0,1
63cfff59a184313f875f6a06,TCR,2024-06-10_14h19.36.229,LearnStrategy,2023.2.3,Win32,74.07407407,1,2,14,,,,,,,,2,08,,,,,,,,,,,2,213.382,1,,,,,,-0.166666667,-0.234444444,1,0,0,213.3824,Basalt_rect,13,0,13,0,1
63cfff59a184313f875f6a06,TCR,2024-06-10_14h19.36.229,LearnStrategy,2023.2.3,Win32,74.07407407,1,2,15,,,,,,,,1,14,,,,,,,,,,,1,8.071,1,,,,,,-0.368888889,-0.25,1,0,0,8.0709,Andesite_rect,14,0,14,0,1
63cfff59a184313f875f6a06,TCR,2024-06-10_14h19.36.229,LearnStrategy,2023.2.3,Win32,74.07407407,1,2,16,,,,,,,,6,15,,,,,,,,,,,5,2.797,0,,,,,,-0.371111111,-0.407777778,1,0,0,2.7971,Obsidian_rect,15,0,15,0,1
63cfff59a184313f875f6a06,TCR,2024-06-10_14h19.36.229,LearnStrategy,2023.2.3,Win32,74.07407407,2,1,1,0.007777778,0.001111111,1,0,0,2.4301,rock_grid_rect_2,2,01,-1,-1,2.43,-0.121111111,-0.244444444,1,0,0,3.3019,Basalt_rect,2,3.302,1,0,0,0,0,1,,,,,,,,,,,,
63cfff59a184313f875f6a06,TCR,2024-06-10_14h19.36.229,LearnStrategy,2023.2.3,Win32,74.07407407,2,1,2,-0.015555556,-0.016666667,1,0,0,1.5465,rock_grid_rect_2,3,10,-1,-1,1.546,0.11,-0.238888889,1,0,0,4.5335,Diorite_rect,3,4.534,1,1,0,1,0,1,,,,,,,,,,,,
63cfff59a184313f875f6a06,TCR,2024-06-10_14h19.36.229,LearnStrategy,2023.2.3,Win32,74.07407407,2,1,3,0.003333333,-0.015555556,1,0,0,0.8535,rock_grid_rect_2,7,08,-1,-1,0.853,0.098888889,-0.4,1,0,0,17.9138,Peridotite_rect,7,17.914,1,2,0,2,0,1,,,,,,,,,,,,
63cfff59a184313f875f6a06,TCR,2024-06-10_14h19.36.229,LearnStrategy,2023.2.3,Win32,74.07407407,2,1,4,-0.056666667,0.012222222,1,0,0,0.9383,rock_grid_rect_2,4,09,-1,-1,0.938,-0.433333333,-0.407777778,1,0,0,1.3228,Obsidian_rect,5,1.323,0,3,0,3,0,1,,,,,,,,,,,,
63cfff59a184313f875f6a06,TCR,2024-06-10_14h19.36.229,LearnStrategy,2023.2.3,Win32,74.07407407,2,1,5,-0.065555556,-0.012222222,1,0,0,1.0035,rock_grid_rect_2,6,08,-1,-1,1.004,-0.407777778,-0.391111111,1,0,0,1.8759,Obsidian_rect,5,1.876,0,4,0,4,0,1,,,,,,,,,,,,
63cfff59a184313f875f6a06,TCR,2024-06-10_14h19.36.229,LearnStrategy,2023.2.3,Win32,74.07407407,2,1,6,-0.11,-0.004444444,1,0,0,0.8019,rock_grid_rect_2,4,03,-1,-1,0.802,0.114444444,-0.242222222,1,0,0,15.4693,Diorite_rect,3,15.469,0,5,0,5,0,1,,,,,,,,,,,,
63cfff59a184313f875f6a06,TCR,2024-06-10_14h19.36.229,LearnStrategy,2023.2.3,Win32,74.07407407,2,1,7,-0.027777778,0.023333333,1,0,0,0.7618,rock_grid_rect_2,5,05,-1,-1,0.762,-0.412222222,-0.392222222,1,0,0,1.9017,Obsidian_rect,5,1.902,1,6,0,6,0,1,,,,,,,,,,,,
63cfff59a184313f875f6a06,TCR,2024-06-10_14h19.36.229,LearnStrategy,2023.2.3,Win32,74.07407407,2,1,8,0.031111111,-0.001111111,1,0,0,1.684,rock_grid_rect_2,6,09,-1,-1,1.684,-0.114444444,-0.406666667,1,0,0,5.144,Pegmatite_rect,6,5.144,1,7,0,7,0,1,,,,,,,,,,,,
63cfff59a184313f875f6a06,TCR,2024-06-10_14h19.36.229,LearnStrategy,2023.2.3,Win32,74.07407407,2,1,9,-0.033333333,0.003333333,1,0,0,0.9034,rock_grid_rect_2,7,08,-1,-1,0.903,0.182222222,-0.385555556,1,0,0,2.1874,Peridotite_rect,7,2.187,1,8,0,8,0,1,,,,,,,,,,,,
63cfff59a184313f875f6a06,TCR,2024-06-10_14h19.36.229,LearnStrategy,2023.2.3,Win32,74.07407407,2,1,10,-0.012222222,0.022222222,1,0,0,0.8906,rock_grid_rect_2,6,13,-1,-1,0.891,-0.382222222,-0.405555556,1,0,0,3.1911,Obsidian_rect,5,3.191,0,9,0,9,0,1,,,,,,,,,,,,
63cfff59a184313f875f6a06,TCR,2024-06-10_14h19.36.229,LearnStrategy,2023.2.3,Win32,74.07407407,2,1,11,-0.024444444,0.013333333,1,0,0,0.9284,rock_grid_rect_2,3,15,-1,-1,0.928,0.167777778,-0.247777778,1,0,0,3.9977,Diorite_rect,3,3.998,1,10,0,10,0,1,,,,,,,,,,,,
63cfff59a184313f875f6a06,TCR,2024-06-10_14h19.36.229,LearnStrategy,2023.2.3,Win32,74.07407407,2,1,12,0.025555556,-0.012222222,1,0,0,1.1783,rock_grid_rect_2,6,08,-1,-1,1.178,-0.113333333,-0.397777778,1,0,0,2.991,Pegmatite_rect,6,2.991,1,11,0,11,0,1,,,,,,,,,,,,
63cfff59a184313f875f6a06,TCR,2024-06-10_14h19.36.229,LearnStrategy,2023.2.3,Win32,74.07407407,2,1,13,0.092222222,0.001111111,1,0,0,1.1665,rock_grid_rect_2,4,10,-1,-1,1.167,0.342222222,-0.258888889,1,0,0,7.2274,Gabbro_rect,4,7.227,1,12,0,12,0,1,,,,,,,,,,,,
63cfff59a184313f875f6a06,TCR,2024-06-10_14h19.36.229,LearnStrategy,2023.2.3,Win32,74.07407407,2,1,14,-0.08,-0.013333333,1,0,0,1.3809,rock_grid_rect_2,7,14,-1,-1,1.381,0.101111111,-0.258888889,1,0,0,18.8044,Diorite_rect,3,18.804,0,13,0,13,0,1,,,,,,,,,,,,
63cfff59a184313f875f6a06,TCR,2024-06-10_14h19.36.229,LearnStrategy,2023.2.3,Win32,74.07407407,2,1,15,0.001111111,-0.013333333,1,0,0,1.2437,rock_grid_rect_2,3,10,-1,-1,1.244,0.117777778,-0.238888889,1,0,0,27.4546,Diorite_rect,3,27.455,1,14,0,14,0,1,,,,,,,,,,,,
63cfff59a184313f875f6a06,TCR,2024-06-10_14h19.36.229,LearnStrategy,2023.2.3,Win32,74.07407407,2,1,16,0.021111111,-0.011111111,1,0,0,1.0321,rock_grid_rect_2,3,07,-1,-1,1.032,-0.147777778,-0.4,1,0,0,9.6477,Pegmatite_rect,6,9.648,0,15,0,15,0,1,,,,,,,,,,,,
63cfff59a184313f875f6a06,TCR,2024-06-10_14h19.36.229,LearnStrategy,2023.2.3,Win32,74.07407407,2,2,1,,,,,,,,3,13,,,,,,,,,,,3,10.402,1,,,,,,0.12,-0.247777778,1,0,0,10.4016,Diorite_rect,0,0,0,0,1
63cfff59a184313f875f6a06,TCR,2024-06-10_14h19.36.229,LearnStrategy,2023.2.3,Win32,74.07407407,2,2,2,,,,,,,,2,12,,,,,,,,,,,2,9.704,1,,,,,,-0.104444444,-0.263333333,1,0,0,9.7035,Basalt_rect,1,0,1,0,1
63cfff59a184313f875f6a06,TCR,2024-06-10_14h19.36.229,LearnStrategy,2023.2.3,Win32,74.07407407,2,2,3,,,,,,,,7,04,,,,,,,,,,,7,4.38,1,,,,,,0.123333333,-0.417777778,1,0,0,4.3805,Peridotite_rect,2,0,2,0,1
63cfff59a184313f875f6a06,TCR,2024-06-10_14h19.36.229,LearnStrategy,2023.2.3,Win32,74.07407407,2,2,4,,,,,,,,2,10,,,,,,,,,,,4,3.004,0,,,,,,0.431111111,-0.252222222,1,0,0,3.0038,Gabbro_rect,3,0,3,0,1
63cfff59a184313f875f6a06,TCR,2024-06-10_14h19.36.229,LearnStrategy,2023.2.3,Win32,74.07407407,2,2,5,,,,,,,,4,11,,,,,,,,,,,2,1.837,0,,,,,,-0.154444444,-0.236666667,1,0,0,1.837,Basalt_rect,4,0,4,0,1
63cfff59a184313f875f6a06,TCR,2024-06-10_14h19.36.229,LearnStrategy,2023.2.3,Win32,74.07407407,2,2,6,,,,,,,,6,16,,,,,,,,,,,6,8.01,1,,,,,,-0.163333333,-0.384444444,1,0,0,8.01,Pegmatite_rect,5,0,5,0,1
63cfff59a184313f875f6a06,TCR,2024-06-10_14h19.36.229,LearnStrategy,2023.2.3,Win32,74.07407407,2,2,7,,,,,,,,5,06,,,,,,,,,,,5,1.59,1,,,,,,-0.407777778,-0.417777778,1,0,0,1.5902,Obsidian_rect,6,0,6,0,1
63cfff59a184313f875f6a06,TCR,2024-06-10_14h19.36.229,LearnStrategy,2023.2.3,Win32,74.07407407,2,2,8,,,,,,,,8,06,,,,,,,,,,,8,1.55,1,,,,,,0.451111111,-0.417777778,1,0,0,1.5503,Pumice_rect,7,0,7,0,1
63cfff59a184313f875f6a06,TCR,2024-06-10_14h19.36.229,LearnStrategy,2023.2.3,Win32,74.07407407,2,2,9,,,,,,,,5,10,,,,,,,,,,,5,1.064,1,,,,,,-0.468888889,-0.392222222,1,0,0,1.0644,Obsidian_rect,8,0,8,0,1
63cfff59a184313f875f6a06,TCR,2024-06-10_14h19.36.229,LearnStrategy,2023.2.3,Win32,74.07407407,2,2,10,,,,,,,,3,16,,,,,,,,,,,3,8.225,1,,,,,,0.128888889,-0.255555556,1,0,0,8.2251,Diorite_rect,9,0,9,0,1
63cfff59a184313f875f6a06,TCR,2024-06-10_14h19.36.229,LearnStrategy,2023.2.3,Win32,74.07407407,2,2,11,,,,,,,,1,11,,,,,,,,,,,1,10.351,1,,,,,,-0.411111111,-0.238888889,1,0,0,10.3514,Andesite_rect,10,0,10,0,1
63cfff59a184313f875f6a06,TCR,2024-06-10_14h19.36.229,LearnStrategy,2023.2.3,Win32,74.07407407,2,2,12,,,,,,,,7,06,,,,,,,,,,,7,1.664,1,,,,,,0.128888889,-0.417777778,1,0,0,1.6639,Peridotite_rect,11,0,11,0,1
63cfff59a184313f875f6a06,TCR,2024-06-10_14h19.36.229,LearnStrategy,2023.2.3,Win32,74.07407407,2,2,13,,,,,,,,1,10,,,,,,,,,,,4,20.083,0,,,,,,0.415555556,-0.256666667,1,0,0,20.0831,Gabbro_rect,12,0,12,0,1
63cfff59a184313f875f6a06,TCR,2024-06-10_14h19.36.229,LearnStrategy,2023.2.3,Win32,74.07407407,2,2,14,,,,,,,,4,16,,,,,,,,,,,2,5.713,0,,,,,,-0.141111111,-0.25,1,0,0,5.713,Basalt_rect,13,0,13,0,1
63cfff59a184313f875f6a06,TCR,2024-06-10_14h19.36.229,LearnStrategy,2023.2.3,Win32,74.07407407,2,2,15,,,,,,,,8,04,,,,,,,,,,,8,1.047,1,,,,,,0.357777778,-0.396666667,1,0,0,1.0468,Pumice_rect,14,0,14,0,1
63cfff59a184313f875f6a06,TCR,2024-06-10_14h19.36.229,LearnStrategy,2023.2.3,Win32,74.07407407,2,2,16,,,,,,,,6,11,,,,,,,,,,,6,1.116,1,,,,,,-0.198888889,-0.392222222,1,0,0,1.1159,Pegmatite_rect,15,0,15,0,1
63cfff59a184313f875f6a06,TCR,2024-06-10_14h19.36.229,LearnStrategy,2023.2.3,Win32,74.07407407,3,1,1,0.015555556,0.001111111,1,0,0,1.7953,rock_grid_rect_2,3,02,-1,-1,1.795,0.085555556,-0.254444444,1,0,0,15.8388,Diorite_rect,3,15.839,1,0,0,0,0,1,,,,,,,,,,,,
63cfff59a184313f875f6a06,TCR,2024-06-10_14h19.36.229,LearnStrategy,2023.2.3,Win32,74.07407407,3,1,2,-0.033333333,-0.008888889,1,0,0,1.11,rock_grid_rect_2,8,16,-1,-1,1.11,0.41,-0.407777778,1,0,0,2.4766,Pumice_rect,8,2.477,1,1,0,1,0,1,,,,,,,,,,,,
63cfff59a184313f875f6a06,TCR,2024-06-10_14h19.36.229,LearnStrategy,2023.2.3,Win32,74.07407407,3,1,3,-0.042222222,-0.007777778,1,0,0,1.085,rock_grid_rect_2,4,10,-1,-1,1.085,0.423333333,-0.237777778,1,0,0,3.7609,Gabbro_rect,4,3.761,1,2,0,2,0,1,,,,,,,,,,,,
63cfff59a184313f875f6a06,TCR,2024-06-10_14h19.36.229,LearnStrategy,2023.2.3,Win32,74.07407407,3,1,4,0.004444444,0.01,1,0,0,1.1372,rock_grid_rect_2,2,14,-1,-1,1.137,0.401111111,-0.411111111,1,0,0,1.6378,Pumice_rect,8,1.638,0,3,0,3,0,1,,,,,,,,,,,,
63cfff59a184313f875f6a06,TCR,2024-06-10_14h19.36.229,LearnStrategy,2023.2.3,Win32,74.07407407,3,1,5,-0.036666667,-0.004444444,1,0,0,1.0075,rock_grid_rect_2,2,02,-1,-1,1.007,-0.154444444,-0.267777778,1,0,0,1.9431,Basalt_rect,2,1.943,1,4,0,4,0,1,,,,,,,,,,,,
63cfff59a184313f875f6a06,TCR,2024-06-10_14h19.36.229,LearnStrategy,2023.2.3,Win32,74.07407407,3,1,6,0.007777778,-0.001111111,1,0,0,0.9149,rock_grid_rect_2,6,13,-1,-1,0.915,-0.091111111,-0.394444444,1,0,0,4.4646,Pegmatite_rect,6,4.465,1,5,0,5,0,1,,,,,,,,,,,,
63cfff59a184313f875f6a06,TCR,2024-06-10_14h19.36.229,LearnStrategy,2023.2.3,Win32,74.07407407,3,1,7,0.052222222,0.004444444,1,0,0,0.8463,rock_grid_rect_2,5,07,-1,-1,0.846,-0.43,-0.408888889,1,0,0,1.2985,Obsidian_rect,5,1.299,1,6,0,6,0,1,,,,,,,,,,,,
63cfff59a184313f875f6a06,TCR,2024-06-10_14h19.36.229,LearnStrategy,2023.2.3,Win32,74.07407407,3,1,8,0.006666667,-0.007777778,1,0,0,0.9553,rock_grid_rect_2,7,12,-1,-1,0.955,0.113333333,-0.4,1,0,0,4.1175,Peridotite_rect,7,4.117,1,7,0,7,0,1,,,,,,,,,,,,
63cfff59a184313f875f6a06,TCR,2024-06-10_14h19.36.229,LearnStrategy,2023.2.3,Win32,74.07407407,3,1,9,-0.021111111,0.015555556,1,0,0,1.2451,rock_grid_rect_2,4,08,-1,-1,1.245,0.454444444,-0.262222222,1,0,0,4.2795,Gabbro_rect,4,4.28,1,8,0,8,0,1,,,,,,,,,,,,
63cfff59a184313f875f6a06,TCR,2024-06-10_14h19.36.229,LearnStrategy,2023.2.3,Win32,74.07407407,3,1,10,-0.015555556,-0.005555556,1,0,0,1.0497,rock_grid_rect_2,4,14,-1,-1,1.05,-0.167777778,-0.242222222,1,0,0,3.4366,Basalt_rect,2,3.437,0,9,0,9,0,1,,,,,,,,,,,,
63cfff59a184313f875f6a06,TCR,2024-06-10_14h19.36.229,LearnStrategy,2023.2.3,Win32,74.07407407,3,1,11,0.07,-0.008888889,1,0,0,0.9397,rock_grid_rect_2,6,09,-1,-1,0.94,-0.143333333,-0.412222222,1,0,0,3.0845,Pegmatite_rect,6,3.084,1,10,0,10,0,1,,,,,,,,,,,,
63cfff59a184313f875f6a06,TCR,2024-06-10_14h19.36.229,LearnStrategy,2023.2.3,Win32,74.07407407,3,1,12,-0.021111111,-0.001111111,1,0,0,0.9908,rock_grid_rect_2,3,15,-1,-1,0.991,0.127777778,-0.261111111,1,0,0,4.1779,Diorite_rect,3,4.178,1,11,0,11,0,1,,,,,,,,,,,,
63cfff59a184313f875f6a06,TCR,2024-06-10_14h19.36.229,LearnStrategy,2023.2.3,Win32,74.07407407,3,1,13,-0.014444444,-0.006666667,1,0,0,0.9464,rock_grid_rect_2,4,14,-1,-1,0.946,-0.212222222,-0.231111111,1,0,0,1.3233,Basalt_rect,2,1.323,0,12,0,12,0,1,,,,,,,,,,,,
63cfff59a184313f875f6a06,TCR,2024-06-10_14h19.36.229,LearnStrategy,2023.2.3,Win32,74.07407407,3,1,14,0.017777778,-0.011111111,1,0,0,0.8436,rock_grid_rect_2,4,10,-1,-1,0.844,0.476666667,-0.246666667,1,0,0,1.5571,Gabbro_rect,4,1.557,1,13,0,13,0,1,,,,,,,,,,,,
63cfff59a184313f875f6a06,TCR,2024-06-10_14h19.36.229,LearnStrategy,2023.2.3,Win32,74.07407407,3,1,15,-0.012222222,-0.002222222,1,0,0,0.7782,rock_grid_rect_2,1,02,-1,-1,0.778,-0.407777778,-0.245555556,1,0,0,2.9762,Andesite_rect,1,2.976,1,14,0,14,0,1,,,,,,,,,,,,
63cfff59a184313f875f6a06,TCR,2024-06-10_14h19.36.229,LearnStrategy,2023.2.3,Win32,74.07407407,3,1,16,0.02,-0.024444444,1,0,0,0.916,rock_grid_rect_2,1,07,-1,-1,0.916,-0.392222222,-0.23,1,0,0,1.7026,Andesite_rect,1,1.703,1,15,0,15,0,1,,,,,,,,,,,,
63cfff59a184313f875f6a06,TCR,2024-06-10_14h19.36.229,LearnStrategy,2023.2.3,Win32,74.07407407,3,2,1,,,,,,,,1,09,,,,,,,,,,,2,3.876,0,,,,,,-0.09,-0.247777778,1,0,0,3.8762,Basalt_rect,0,0,0,0,1
63cfff59a184313f875f6a06,TCR,2024-06-10_14h19.36.229,LearnStrategy,2023.2.3,Win32,74.07407407,3,2,2,,,,,,,,7,05,,,,,,,,,,,7,2.77,1,,,,,,0.183333333,-0.398888889,1,0,0,2.7697,Peridotite_rect,1,0,1,0,1
63cfff59a184313f875f6a06,TCR,2024-06-10_14h19.36.229,LearnStrategy,2023.2.3,Win32,74.07407407,3,2,3,,,,,,,,2,04,,,,,,,,,,,2,2.168,1,,,,,,-0.102222222,-0.256666667,1,0,0,2.1681,Basalt_rect,2,0,2,0,1
63cfff59a184313f875f6a06,TCR,2024-06-10_14h19.36.229,LearnStrategy,2023.2.3,Win32,74.07407407,3,2,4,,,,,,,,2,16,,,,,,,,,,,4,1.874,0,,,,,,0.426666667,-0.261111111,1,0,0,1.8743,Gabbro_rect,3,0,3,0,1
63cfff59a184313f875f6a06,TCR,2024-06-10_14h19.36.229,LearnStrategy,2023.2.3,Win32,74.07407407,3,2,5,,,,,,,,5,11,,,,,,,,,,,5,1.158,1,,,,,,-0.398888889,-0.378888889,1,0,0,1.1575,Obsidian_rect,4,0,4,0,1
63cfff59a184313f875f6a06,TCR,2024-06-10_14h19.36.229,LearnStrategy,2023.2.3,Win32,74.07407407,3,2,6,,,,,,,,6,10,,,,,,,,,,,6,5.442,1,,,,,,-0.137777778,-0.403333333,1,0,0,5.4418,Pegmatite_rect,5,0,5,0,1
63cfff59a184313f875f6a06,TCR,2024-06-10_14h19.36.229,LearnStrategy,2023.2.3,Win32,74.07407407,3,2,7,,,,,,,,8,08,,,,,,,,,,,8,2.637,1,,,,,,0.414444444,-0.394444444,1,0,0,2.6369,Pumice_rect,6,0,6,0,1
63cfff59a184313f875f6a06,TCR,2024-06-10_14h19.36.229,LearnStrategy,2023.2.3,Win32,74.07407407,3,2,8,,,,,,,,8,03,,,,,,,,,,,8,1.08,1,,,,,,0.406666667,-0.392222222,1,0,0,1.0802,Pumice_rect,7,0,7,0,1
63cfff59a184313f875f6a06,TCR,2024-06-10_14h19.36.229,LearnStrategy,2023.2.3,Win32,74.07407407,3,2,9,,,,,,,,3,08,,,,,,,,,,,3,8.854,1,,,,,,0.131111111,-0.255555556,1,0,0,8.8537,Diorite_rect,8,0,8,0,1
63cfff59a184313f875f6a06,TCR,2024-06-10_14h19.36.229,LearnStrategy,2023.2.3,Win32,74.07407407,3,2,10,,,,,,,,5,16,,,,,,,,,,,5,1.247,1,,,,,,-0.436666667,-0.401111111,1,0,0,1.2468,Obsidian_rect,9,0,9,0,1
63cfff59a184313f875f6a06,TCR,2024-06-10_14h19.36.229,LearnStrategy,2023.2.3,Win32,74.07407407,3,2,11,,,,,,,,6,12,,,,,,,,,,,6,13.877,1,,,,,,-0.125555556,-0.392222222,1,0,0,13.8773,Pegmatite_rect,10,0,10,0,1
63cfff59a184313f875f6a06,TCR,2024-06-10_14h19.36.229,LearnStrategy,2023.2.3,Win32,74.07407407,3,2,12,,,,,,,,3,11,,,,,,,,,,,3,1.318,1,,,,,,0.132222222,-0.247777778,1,0,0,1.3179,Diorite_rect,11,0,11,0,1
63cfff59a184313f875f6a06,TCR,2024-06-10_14h19.36.229,LearnStrategy,2023.2.3,Win32,74.07407407,3,2,13,,,,,,,,4,12,,,,,,,,,,,2,1.282,0,,,,,,-0.071111111,-0.244444444,1,0,0,1.2819,Basalt_rect,12,0,12,0,1
63cfff59a184313f875f6a06,TCR,2024-06-10_14h19.36.229,LearnStrategy,2023.2.3,Win32,74.07407407,3,2,14,,,,,,,,4,15,,,,,,,,,,,4,13.486,1,,,,,,0.433333333,-0.255555556,1,0,0,13.4863,Gabbro_rect,13,0,13,0,1
63cfff59a184313f875f6a06,TCR,2024-06-10_14h19.36.229,LearnStrategy,2023.2.3,Win32,74.07407407,3,2,15,,,,,,,,1,06,,,,,,,,,,,4,3.281,0,,,,,,0.377777778,-0.25,1,0,0,3.2805,Gabbro_rect,14,0,14,0,1
63cfff59a184313f875f6a06,TCR,2024-06-10_14h19.36.229,LearnStrategy,2023.2.3,Win32,74.07407407,3,2,16,,,,,,,,7,13,,,,,,,,,,,7,1.126,1,,,,,,0.177777778,-0.411111111,1,0,0,1.1264,Peridotite_rect,15,0,15,0,1
63cfff59a184313f875f6a06,TCR,2024-06-10_14h19.36.229,LearnStrategy,2023.2.3,Win32,74.07407407,4,1,1,0.01,0.008888889,1,0,0,1.5001,rock_grid_rect_2,4,05,-1,-1,1.5,0.425555556,-0.23,1,0,0,10.6008,Gabbro_rect,4,10.601,1,0,0,0,0,1,,,,,,,,,,,,
63cfff59a184313f875f6a06,TCR,2024-06-10_14h19.36.229,LearnStrategy,2023.2.3,Win32,74.07407407,4,1,2,0.071111111,0.014444444,1,0,0,1.6288,rock_grid_rect_2,4,05,-1,-1,1.629,0.361111111,-0.241111111,1,0,0,2.1524,Gabbro_rect,4,2.152,1,1,0,1,0,1,,,,,,,,,,,,
63cfff59a184313f875f6a06,TCR,2024-06-10_14h19.36.229,LearnStrategy,2023.2.3,Win32,74.07407407,4,1,3,0.122222222,0.006666667,1,0,0,1.1444,rock_grid_rect_2,2,11,-1,-1,1.144,-0.133333333,-0.25,1,0,0,3.5182,Basalt_rect,2,3.518,1,2,0,2,0,1,,,,,,,,,,,,
63cfff59a184313f875f6a06,TCR,2024-06-10_14h19.36.229,LearnStrategy,2023.2.3,Win32,74.07407407,4,1,4,0.06,-0.003333333,1,0,0,1.0482,rock_grid_rect_2,2,02,-1,-1,1.048,-0.14,-0.243333333,1,0,0,1.8737,Basalt_rect,2,1.874,1,3,0,3,0,1,,,,,,,,,,,,
63cfff59a184313f875f6a06,TCR,2024-06-10_14h19.36.229,LearnStrategy,2023.2.3,Win32,74.07407407,4,1,5,-0.001111111,-0.013333333,1,0,0,1.8335,rock_grid_rect_2,4,03,-1,-1,1.833,0.133333333,-0.253333333,1,0,0,3.5811,Diorite_rect,3,3.581,0,4,0,4,0,1,,,,,,,,,,,,
63cfff59a184313f875f6a06,TCR,2024-06-10_14h19.36.229,LearnStrategy,2023.2.3,Win32,74.07407407,4,1,6,0.135555556,-0.001111111,1,0,0,1.3682,rock_grid_rect_2,8,09,-1,-1,1.368,0.372222222,-0.404444444,1,0,0,2.5125,Pumice_rect,8,2.513,1,5,0,5,0,1,,,,,,,,,,,,
63cfff59a184313f875f6a06,TCR,2024-06-10_14h19.36.229,LearnStrategy,2023.2.3,Win32,74.07407407,4,1,7,0.021111111,0.011111111,1,0,0,2.4724,rock_grid_rect_2,4,14,-1,-1,2.472,-0.41,-0.24,1,0,0,7.8637,Andesite_rect,1,7.864,0,6,0,6,0,1,,,,,,,,,,,,
63cfff59a184313f875f6a06,TCR,2024-06-10_14h19.36.229,LearnStrategy,2023.2.3,Win32,74.07407407,4,1,8,0.13,-0.012222222,1,0,0,1.4323,rock_grid_rect_2,3,12,-1,-1,1.432,-0.406666667,-0.255555556,1,0,0,2.8991,Andesite_rect,1,2.899,0,7,0,7,0,1,,,,,,,,,,,,
63cfff59a184313f875f6a06,TCR,2024-06-10_14h19.36.229,LearnStrategy,2023.2.3,Win32,74.07407407,4,1,9,0.117777778,0.016666667,1,0,0,1.1259,rock_grid_rect_2,1,04,-1,-1,1.126,-0.367777778,-0.231111111,1,0,0,2.2155,Andesite_rect,1,2.216,1,8,0,8,0,1,,,,,,,,,,,,
63cfff59a184313f875f6a06,TCR,2024-06-10_14h19.36.229,LearnStrategy,2023.2.3,Win32,74.07407407,4,1,10,0.084444444,0.012222222,1,0,0,1.2036,rock_grid_rect_2,6,13,-1,-1,1.204,-0.378888889,-0.391111111,1,0,0,3.0993,Obsidian_rect,5,3.099,0,9,0,9,0,1,,,,,,,,,,,,
63cfff59a184313f875f6a06,TCR,2024-06-10_14h19.36.229,LearnStrategy,2023.2.3,Win32,74.07407407,4,1,11,0.072222222,0.008888889,1,0,0,1.1815,rock_grid_rect_2,5,14,-1,-1,1.181,-0.358888889,-0.398888889,1,0,0,1.3595,Obsidian_rect,5,1.36,1,10,0,10,0,1,,,,,,,,,,,,
63cfff59a184313f875f6a06,TCR,2024-06-10_14h19.36.229,LearnStrategy,2023.2.3,Win32,74.07407407,4,1,12,0.003333333,0.001111111,1,0,0,1.1349,rock_grid_rect_2,1,03,-1,-1,1.135,-0.116666667,-0.246666667,1,0,0,3.0328,Basalt_rect,2,3.033,0,11,0,11,0,1,,,,,,,,,,,,
63cfff59a184313f875f6a06,TCR,2024-06-10_14h19.36.229,LearnStrategy,2023.2.3,Win32,74.07407407,4,1,13,0.077777778,0.022222222,1,0,0,1.1204,rock_grid_rect_2,2,02,-1,-1,1.12,-0.104444444,-0.231111111,1,0,0,3.334,Basalt_rect,2,3.334,1,12,0,12,0,1,,,,,,,,,,,,
63cfff59a184313f875f6a06,TCR,2024-06-10_14h19.36.229,LearnStrategy,2023.2.3,Win32,74.07407407,4,1,14,0.087777778,0.004444444,1,0,0,1.0057,rock_grid_rect_2,1,05,-1,-1,1.006,-0.443333333,-0.264444444,1,0,0,2.7447,Andesite_rect,1,2.745,1,13,0,13,0,1,,,,,,,,,,,,
63cfff59a184313f875f6a06,TCR,2024-06-10_14h19.36.229,LearnStrategy,2023.2.3,Win32,74.07407407,4,1,15,0.184444444,0.021111111,1,0,0,0.9775,rock_grid_rect_2,1,07,-1,-1,0.977,-0.438888889,-0.252222222,1,0,0,2.7237,Andesite_rect,1,2.724,1,14,0,14,0,1,,,,,,,,,,,,
63cfff59a184313f875f6a06,TCR,2024-06-10_14h19.36.229,LearnStrategy,2023.2.3,Win32,74.07407407,4,1,16,0.016666667,-0.018888889,1,0,0,1.1642,rock_grid_rect_2,7,15,-1,-1,1.164,0.112222222,-0.386666667,1,0,0,1.0917,Peridotite_rect,7,1.092,1,15,0,15,0,1,,,,,,,,,,,,
63cfff59a184313f875f6a06,TCR,2024-06-10_14h19.36.229,LearnStrategy,2023.2.3,Win32,74.07407407,4,2,1,,,,,,,,6,16,,,,,,,,,,,6,1.442,1,,,,,,-0.104444444,-0.408888889,1,0,0,1.4418,Pegmatite_rect,0,0,0,0,1
63cfff59a184313f875f6a06,TCR,2024-06-10_14h19.36.229,LearnStrategy,2023.2.3,Win32,74.07407407,4,2,2,,,,,,,,2,16,,,,,,,,,,,4,2.797,0,,,,,,0.432222222,-0.235555556,1,0,0,2.7974,Gabbro_rect,1,0,1,0,1
63cfff59a184313f875f6a06,TCR,2024-06-10_14h19.36.229,LearnStrategy,2023.2.3,Win32,74.07407407,4,2,3,,,,,,,,5,10,,,,,,,,,,,5,1.185,1,,,,,,-0.355555556,-0.418888889,1,0,0,1.1847,Obsidian_rect,2,0,2,0,1
63cfff59a184313f875f6a06,TCR,2024-06-10_14h19.36.229,LearnStrategy,2023.2.3,Win32,74.07407407,4,2,4,,,,,,,,7,05,,,,,,,,,,,7,1.376,1,,,,,,0.134444444,-0.412222222,1,0,0,1.376,Peridotite_rect,3,0,3,0,1
63cfff59a184313f875f6a06,TCR,2024-06-10_14h19.36.229,LearnStrategy,2023.2.3,Win32,74.07407407,4,2,5,,,,,,,,3,14,,,,,,,,,,,3,2.837,1,,,,,,0.098888889,-0.253333333,1,0,0,2.8372,Diorite_rect,4,0,4,0,1
63cfff59a184313f875f6a06,TCR,2024-06-10_14h19.36.229,LearnStrategy,2023.2.3,Win32,74.07407407,4,2,6,,,,,,,,4,12,,,,,,,,,,,4,3.081,1,,,,,,0.416666667,-0.246666667,1,0,0,3.0805,Gabbro_rect,5,0,5,0,1
63cfff59a184313f875f6a06,TCR,2024-06-10_14h19.36.229,LearnStrategy,2023.2.3,Win32,74.07407407,4,2,7,,,,,,,,2,04,,,,,,,,,,,2,1.498,1,,,,,,-0.131111111,-0.24,1,0,0,1.4984,Basalt_rect,6,0,6,0,1
63cfff59a184313f875f6a06,TCR,2024-06-10_14h19.36.229,LearnStrategy,2023.2.3,Win32,74.07407407,4,2,8,,,,,,,,8,06,,,,,,,,,,,8,1.435,1,,,,,,0.422222222,-0.394444444,1,0,0,1.4349,Pumice_rect,7,0,7,0,1
63cfff59a184313f875f6a06,TCR,2024-06-10_14h19.36.229,LearnStrategy,2023.2.3,Win32,74.07407407,4,2,9,,,,,,,,7,10,,,,,,,,,,,7,1.02,1,,,,,,0.134444444,-0.4,1,0,0,1.0196,Peridotite_rect,8,0,8,0,1
63cfff59a184313f875f6a06,TCR,2024-06-10_14h19.36.229,LearnStrategy,2023.2.3,Win32,74.07407407,4,2,10,,,,,,,,3,16,,,,,,,,,,,3,1.207,1,,,,,,0.137777778,-0.243333333,1,0,0,1.207,Diorite_rect,9,0,9,0,1
63cfff59a184313f875f6a06,TCR,2024-06-10_14h19.36.229,LearnStrategy,2023.2.3,Win32,74.07407407,4,2,11,,,,,,,,6,15,,,,,,,,,,,6,1.038,1,,,,,,-0.132222222,-0.417777778,1,0,0,1.0375,Pegmatite_rect,10,0,10,0,1
63cfff59a184313f875f6a06,TCR,2024-06-10_14h19.36.229,LearnStrategy,2023.2.3,Win32,74.07407407,4,2,12,,,,,,,,8,10,,,,,,,,,,,8,1.665,1,,,,,,0.41,-0.417777778,1,0,0,1.6652,Pumice_rect,11,0,11,0,1
63cfff59a184313f875f6a06,TCR,2024-06-10_14h19.36.229,LearnStrategy,2023.2.3,Win32,74.07407407,4,2,13,,,,,,,,5,02,,,,,,,,,,,5,1.112,1,,,,,,-0.363333333,-0.407777778,1,0,0,1.1125,Obsidian_rect,12,0,12,0,1
63cfff59a184313f875f6a06,TCR,2024-06-10_14h19.36.229,LearnStrategy,2023.2.3,Win32,74.07407407,4,2,14,,,,,,,,1,10,,,,,,,,,,,4,4.271,0,,,,,,0.408888889,-0.245555556,1,0,0,4.2714,Gabbro_rect,13,0,13,0,1
63cfff59a184313f875f6a06,TCR,2024-06-10_14h19.36.229,LearnStrategy,2023.2.3,Win32,74.07407407,4,2,15,,,,,,,,1,16,,,,,,,,,,,1,3.154,1,,,,,,-0.36,-0.254444444,1,0,0,3.1535,Andesite_rect,14,0,14,0,1
63cfff59a184313f875f6a06,TCR,2024-06-10_14h19.36.229,LearnStrategy,2023.2.3,Win32,74.07407407,4,2,16,,,,,,,,4,13,,,,,,,,,,,4,1.831,1,,,,,,0.417777778,-0.256666667,1,0,0,1.8308,Gabbro_rect,15,0,15,0,1
63cfff59a184313f875f6a06,TCR,2024-06-10_14h19.36.229,LearnStrategy,2023.2.3,Win32,74.07407407,5,1,1,-0.002222222,0.02,1,0,0,0.954,rock_grid_rect_2,2,14,-1,-1,0.954,0.414444444,-0.244444444,1,0,0,1.1901,Gabbro_rect,4,1.19,0,0,0,0,0,1,,,,,,,,,,,,
63cfff59a184313f875f6a06,TCR,2024-06-10_14h19.36.229,LearnStrategy,2023.2.3,Win32,74.07407407,5,1,2,-0.028888889,-0.018888889,1,0,0,0.8162,rock_grid_rect_2,4,09,-1,-1,0.816,-0.084444444,-0.248888889,1,0,0,2.7163,Basalt_rect,2,2.716,0,1,0,1,0,1,,,,,,,,,,,,
63cfff59a184313f875f6a06,TCR,2024-06-10_14h19.36.229,LearnStrategy,2023.2.3,Win32,74.07407407,5,1,3,-0.07,0.007777778,1,0,0,1.0372,rock_grid_rect_2,4,14,-1,-1,1.037,0.415555556,-0.252222222,1,0,0,3.1799,Gabbro_rect,4,3.18,1,2,0,2,0,1,,,,,,,,,,,,
63cfff59a184313f875f6a06,TCR,2024-06-10_14h19.36.229,LearnStrategy,2023.2.3,Win32,74.07407407,5,1,4,-0.037777778,0.014444444,1,0,0,0.998,rock_grid_rect_2,7,07,-1,-1,0.998,0.16,-0.398888889,1,0,0,1.4965,Peridotite_rect,7,1.496,1,3,0,3,0,1,,,,,,,,,,,,
63cfff59a184313f875f6a06,TCR,2024-06-10_14h19.36.229,LearnStrategy,2023.2.3,Win32,74.07407407,5,1,5,-0.028888889,-0.001111111,1,0,0,0.7852,rock_grid_rect_2,6,07,-1,-1,0.785,-0.127777778,-0.394444444,1,0,0,1.3509,Pegmatite_rect,6,1.351,1,4,0,4,0,1,,,,,,,,,,,,
63cfff59a184313f875f6a06,TCR,2024-06-10_14h19.36.229,LearnStrategy,2023.2.3,Win32,74.07407407,5,1,6,0.001111111,0.002222222,1,0,0,0.7812,rock_grid_rect_2,1,05,-1,-1,0.781,-0.373333333,-0.253333333,1,0,0,1.6888,Andesite_rect,1,1.689,1,5,0,5,0,1,,,,,,,,,,,,
63cfff59a184313f875f6a06,TCR,2024-06-10_14h19.36.229,LearnStrategy,2023.2.3,Win32,74.07407407,5,1,7,0.035555556,-0.014444444,1,0,0,0.7046,rock_grid_rect_2,5,08,-1,-1,0.705,-0.388888889,-0.403333333,1,0,0,1.5571,Obsidian_rect,5,1.557,1,6,0,6,0,1,,,,,,,,,,,,
63cfff59a184313f875f6a06,TCR,2024-06-10_14h19.36.229,LearnStrategy,2023.2.3,Win32,74.07407407,5,1,8,0.033333333,-0.006666667,1,0,0,0.7576,rock_grid_rect_2,8,16,-1,-1,0.758,0.35,-0.417777778,1,0,0,1.1193,Pumice_rect,8,1.119,1,7,0,7,0,1,,,,,,,,,,,,
63cfff59a184313f875f6a06,TCR,2024-06-10_14h19.36.229,LearnStrategy,2023.2.3,Win32,74.07407407,5,1,9,0.034444444,-0.016666667,1,0,0,1.0613,rock_grid_rect_2,1,04,-1,-1,1.061,-0.373333333,-0.228888889,1,0,0,1.357,Andesite_rect,1,1.357,1,8,0,8,0,1,,,,,,,,,,,,
63cfff59a184313f875f6a06,TCR,2024-06-10_14h19.36.229,LearnStrategy,2023.2.3,Win32,74.07407407,5,1,10,0.028888889,0.002222222,1,0,0,1.0253,rock_grid_rect_2,4,09,-1,-1,1.025,-0.115555556,-0.245555556,1,0,0,2.2611,Basalt_rect,2,2.261,0,9,0,9,0,1,,,,,,,,,,,,
63cfff59a184313f875f6a06,TCR,2024-06-10_14h19.36.229,LearnStrategy,2023.2.3,Win32,74.07407407,5,1,11,0.024444444,0.003333333,1,0,0,0.8657,rock_grid_rect_2,2,05,-1,-1,0.866,-0.107777778,-0.268888889,1,0,0,0.9864,Basalt_rect,2,0.986,1,10,0,10,0,1,,,,,,,,,,,,
63cfff59a184313f875f6a06,TCR,2024-06-10_14h19.36.229,LearnStrategy,2023.2.3,Win32,74.07407407,5,1,12,0.06,0,1,0,0,0.7581,rock_grid_rect_2,1,03,-1,-1,0.758,-0.328888889,-0.268888889,1,0,0,1.3752,Andesite_rect,1,1.375,1,11,0,11,0,1,,,,,,,,,,,,
63cfff59a184313f875f6a06,TCR,2024-06-10_14h19.36.229,LearnStrategy,2023.2.3,Win32,74.07407407,5,1,13,0.072222222,0.003333333,1,0,0,1.407,rock_grid_rect_2,3,02,-1,-1,1.407,0.081111111,-0.244444444,1,0,0,1.2958,Diorite_rect,3,1.296,1,12,0,12,0,1,,,,,,,,,,,,
63cfff59a184313f875f6a06,TCR,2024-06-10_14h19.36.229,LearnStrategy,2023.2.3,Win32,74.07407407,5,1,14,0.072222222,0.018888889,1,0,0,1.2753,rock_grid_rect_2,1,04,-1,-1,1.275,-0.413333333,-0.233333333,1,0,0,1.2644,Andesite_rect,1,1.264,1,13,0,13,0,1,,,,,,,,,,,,
63cfff59a184313f875f6a06,TCR,2024-06-10_14h19.36.229,LearnStrategy,2023.2.3,Win32,74.07407407,5,1,15,0.066666667,0.02,1,0,0,0.8776,rock_grid_rect_2,2,09,-1,-1,0.878,-0.097777778,-0.253333333,1,0,0,0.8894,Basalt_rect,2,0.889,1,14,0,14,0,1,,,,,,,,,,,,
63cfff59a184313f875f6a06,TCR,2024-06-10_14h19.36.229,LearnStrategy,2023.2.3,Win32,74.07407407,5,1,16,0.077777778,0.016666667,1,0,0,0.757,rock_grid_rect_2,2,14,-1,-1,0.757,0.427777778,-0.236666667,1,0,0,1.77,Gabbro_rect,4,1.77,0,15,0,15,0,1,,,,,,,,,,,,
63cfff59a184313f875f6a06,TCR,2024-06-10_14h19.36.229,LearnStrategy,2023.2.3,Win32,74.07407407,5,2,1,,,,,,,,8,08,,,,,,,,,,,8,1.156,1,,,,,,0.343333333,-0.408888889,1,0,0,1.1561,Pumice_rect,0,0,0,0,1
63cfff59a184313f875f6a06,TCR,2024-06-10_14h19.36.229,LearnStrategy,2023.2.3,Win32,74.07407407,5,2,2,,,,,,,,5,16,,,,,,,,,,,5,1.123,1,,,,,,-0.384444444,-0.387777778,1,0,0,1.1231,Obsidian_rect,1,0,1,0,1
63cfff59a184313f875f6a06,TCR,2024-06-10_14h19.36.229,LearnStrategy,2023.2.3,Win32,74.07407407,5,2,3,,,,,,,,7,02,,,,,,,,,,,7,1.364,1,,,,,,0.102222222,-0.404444444,1,0,0,1.3643,Peridotite_rect,2,0,2,0,1
63cfff59a184313f875f6a06,TCR,2024-06-10_14h19.36.229,LearnStrategy,2023.2.3,Win32,74.07407407,5,2,4,,,,,,,,6,10,,,,,,,,,,,6,1.657,1,,,,,,-0.152222222,-0.407777778,1,0,0,1.6573,Pegmatite_rect,3,0,3,0,1
63cfff59a184313f875f6a06,TCR,2024-06-10_14h19.36.229,LearnStrategy,2023.2.3,Win32,74.07407407,5,2,5,,,,,,,,4,01,,,,,,,,,,,4,8.127,1,,,,,,0.445555556,-0.261111111,1,0,0,8.1271,Gabbro_rect,4,0,4,0,1
63cfff59a184313f875f6a06,TCR,2024-06-10_14h19.36.229,LearnStrategy,2023.2.3,Win32,74.07407407,5,2,6,,,,,,,,2,10,,,,,,,,,,,2,1.225,1,,,,,,-0.184444444,-0.244444444,1,0,0,1.2251,Basalt_rect,5,0,5,0,1
63cfff59a184313f875f6a06,TCR,2024-06-10_14h19.36.229,LearnStrategy,2023.2.3,Win32,74.07407407,5,2,7,,,,,,,,3,13,,,,,,,,,,,3,2.95,1,,,,,,0.143333333,-0.235555556,1,0,0,2.9504,Diorite_rect,6,0,6,0,1
63cfff59a184313f875f6a06,TCR,2024-06-10_14h19.36.229,LearnStrategy,2023.2.3,Win32,74.07407407,5,2,8,,,,,,,,1,06,,,,,,,,,,,1,1.219,1,,,,,,-0.428888889,-0.234444444,1,0,0,1.2187,Andesite_rect,7,0,7,0,1
63cfff59a184313f875f6a06,TCR,2024-06-10_14h19.36.229,LearnStrategy,2023.2.3,Win32,74.07407407,5,2,9,,,,,,,,2,12,,,,,,,,,,,2,1.819,1,,,,,,-0.138888889,-0.243333333,1,0,0,1.8188,Basalt_rect,8,0,8,0,1
63cfff59a184313f875f6a06,TCR,2024-06-10_14h19.36.229,LearnStrategy,2023.2.3,Win32,74.07407407,5,2,10,,,,,,,,8,04,,,,,,,,,,,8,1.257,1,,,,,,0.367777778,-0.411111111,1,0,0,1.257,Pumice_rect,9,0,9,0,1
63cfff59a184313f875f6a06,TCR,2024-06-10_14h19.36.229,LearnStrategy,2023.2.3,Win32,74.07407407,5,2,11,,,,,,,,7,06,,,,,,,,,,,7,1.143,1,,,,,,0.153333333,-0.385555556,1,0,0,1.1432,Peridotite_rect,10,0,10,0,1
63cfff59a184313f875f6a06,TCR,2024-06-10_14h19.36.229,LearnStrategy,2023.2.3,Win32,74.07407407,5,2,12,,,,,,,,3,11,,,,,,,,,,,3,1.135,1,,,,,,0.138888889,-0.24,1,0,0,1.1352,Diorite_rect,11,0,11,0,1
63cfff59a184313f875f6a06,TCR,2024-06-10_14h19.36.229,LearnStrategy,2023.2.3,Win32,74.07407407,5,2,13,,,,,,,,5,06,,,,,,,,,,,5,1.056,1,,,,,,-0.401111111,-0.412222222,1,0,0,1.0562,Obsidian_rect,12,0,12,0,1
63cfff59a184313f875f6a06,TCR,2024-06-10_14h19.36.229,LearnStrategy,2023.2.3,Win32,74.07407407,5,2,14,,,,,,,,4,15,,,,,,,,,,,4,28.514,1,,,,,,0.427777778,-0.228888889,1,0,0,28.5136,Gabbro_rect,13,0,13,0,1
63cfff59a184313f875f6a06,TCR,2024-06-10_14h19.36.229,LearnStrategy,2023.2.3,Win32,74.07407407,5,2,15,,,,,,,,1,09,,,,,,,,,,,4,5.602,0,,,,,,0.41,-0.238888889,1,0,0,5.6016,Gabbro_rect,14,0,14,0,1
63cfff59a184313f875f6a06,TCR,2024-06-10_14h19.36.229,LearnStrategy,2023.2.3,Win32,74.07407407,5,2,16,,,,,,,,6,11,,,,,,,,,,,6,1.075,1,,,,,,-0.108888889,-0.408888889,1,0,0,1.0754,Pegmatite_rect,15,0,15,0,1
63cfff59a184313f875f6a06,TCR,2024-06-10_14h19.36.229,LearnStrategy,2023.2.3,Win32,74.07407407,6,1,1,-0.077777778,-0.006666667,1,0,0,1.3979,rock_grid_rect_2,4,14,-1,-1,1.398,0.381111111,-0.257777778,1,0,0,2.1303,Gabbro_rect,4,2.13,1,0,0,0,0,1,,,,,,,,,,,,
63cfff59a184313f875f6a06,TCR,2024-06-10_14h19.36.229,LearnStrategy,2023.2.3,Win32,74.07407407,6,1,2,-0.055555556,-0.017777778,1,0,0,0.9277,rock_grid_rect_2,1,03,-1,-1,0.928,-0.434444444,-0.245555556,1,0,0,1.5981,Andesite_rect,1,1.598,1,1,0,1,0,1,,,,,,,,,,,,
63cfff59a184313f875f6a06,TCR,2024-06-10_14h19.36.229,LearnStrategy,2023.2.3,Win32,74.07407407,6,1,3,0.012222222,-0.003333333,1,0,0,1.3062,rock_grid_rect_2,1,02,-1,-1,1.306,0.121111111,-0.261111111,1,0,0,3.81,Diorite_rect,3,3.81,0,2,0,2,0,1,,,,,,,,,,,,
63cfff59a184313f875f6a06,TCR,2024-06-10_14h19.36.229,LearnStrategy,2023.2.3,Win32,74.07407407,6,1,4,-0.012222222,0,1,0,0,0.9499,rock_grid_rect_2,4,08,-1,-1,0.95,0.397777778,-0.253333333,1,0,0,3.007,Gabbro_rect,4,3.007,1,3,0,3,0,1,,,,,,,,,,,,
63cfff59a184313f875f6a06,TCR,2024-06-10_14h19.36.229,LearnStrategy,2023.2.3,Win32,74.07407407,6,1,5,0.006666667,0.006666667,1,0,0,1.3236,rock_grid_rect_2,1,07,-1,-1,1.324,-0.392222222,-0.247777778,1,0,0,1.2049,Andesite_rect,1,1.205,1,4,0,4,0,1,,,,,,,,,,,,
63cfff59a184313f875f6a06,TCR,2024-06-10_14h19.36.229,LearnStrategy,2023.2.3,Win32,74.07407407,6,1,6,0.011111111,0.015555556,1,0,0,1.0211,rock_grid_rect_2,1,05,-1,-1,1.021,-0.422222222,-0.267777778,1,0,0,1.1121,Andesite_rect,1,1.112,1,5,0,5,0,1,,,,,,,,,,,,
63cfff59a184313f875f6a06,TCR,2024-06-10_14h19.36.229,LearnStrategy,2023.2.3,Win32,74.07407407,6,1,7,-0.001111111,0.003333333,1,0,0,0.8978,rock_grid_rect_2,5,04,-1,-1,0.898,-0.387777778,-0.388888889,1,0,0,1.1545,Obsidian_rect,5,1.154,1,6,0,6,0,1,,,,,,,,,,,,
63cfff59a184313f875f6a06,TCR,2024-06-10_14h19.36.229,LearnStrategy,2023.2.3,Win32,74.07407407,6,1,8,0.013333333,0.007777778,1,0,0,0.8388,rock_grid_rect_2,8,16,-1,-1,0.839,0.432222222,-0.405555556,1,0,0,3.2882,Pumice_rect,8,3.288,1,7,0,7,0,1,,,,,,,,,,,,
63cfff59a184313f875f6a06,TCR,2024-06-10_14h19.36.229,LearnStrategy,2023.2.3,Win32,74.07407407,6,1,9,0.027777778,-0.004444444,1,0,0,0.6696,rock_grid_rect_2,3,02,-1,-1,0.67,0.142222222,-0.25,1,0,0,1.2266,Diorite_rect,3,1.227,1,8,0,8,0,1,,,,,,,,,,,,
63cfff59a184313f875f6a06,TCR,2024-06-10_14h19.36.229,LearnStrategy,2023.2.3,Win32,74.07407407,6,1,10,0.033333333,-0.017777778,1,0,0,0.745,rock_grid_rect_2,2,01,-1,-1,0.745,-0.103333333,-0.256666667,1,0,0,1.6425,Basalt_rect,2,1.642,1,9,0,9,0,1,,,,,,,,,,,,
63cfff59a184313f875f6a06,TCR,2024-06-10_14h19.36.229,LearnStrategy,2023.2.3,Win32,74.07407407,6,1,11,0.052222222,0.011111111,1,0,0,0.7205,rock_grid_rect_2,1,01,-1,-1,0.72,0.145555556,-0.263333333,1,0,0,1.6599,Diorite_rect,3,1.66,0,10,0,10,0,1,,,,,,,,,,,,
63cfff59a184313f875f6a06,TCR,2024-06-10_14h19.36.229,LearnStrategy,2023.2.3,Win32,74.07407407,6,1,12,0.024444444,0.012222222,1,0,0,1.0609,rock_grid_rect_2,7,12,-1,-1,1.061,0.15,-0.415555556,1,0,0,1.6932,Peridotite_rect,7,1.693,1,11,0,11,0,1,,,,,,,,,,,,
63cfff59a184313f875f6a06,TCR,2024-06-10_14h19.36.229,LearnStrategy,2023.2.3,Win32,74.07407407,6,1,13,0.036666667,0.012222222,1,0,0,1.0386,rock_grid_rect_2,4,10,-1,-1,1.039,0.431111111,-0.24,1,0,0,1.7818,Gabbro_rect,4,1.782,1,12,0,12,0,1,,,,,,,,,,,,
63cfff59a184313f875f6a06,TCR,2024-06-10_14h19.36.229,LearnStrategy,2023.2.3,Win32,74.07407407,6,1,14,-0.046666667,0.022222222,1,0,0,1.1369,rock_grid_rect_2,2,09,-1,-1,1.137,-0.163333333,-0.257777778,1,0,0,1.4975,Basalt_rect,2,1.497,1,13,0,13,0,1,,,,,,,,,,,,
63cfff59a184313f875f6a06,TCR,2024-06-10_14h19.36.229,LearnStrategy,2023.2.3,Win32,74.07407407,6,1,15,0.003333333,-0.001111111,1,0,0,0.8626,rock_grid_rect_2,6,08,-1,-1,0.863,-0.126666667,-0.418888889,1,0,0,1.0134,Pegmatite_rect,6,1.013,1,14,0,14,0,1,,,,,,,,,,,,
63cfff59a184313f875f6a06,TCR,2024-06-10_14h19.36.229,LearnStrategy,2023.2.3,Win32,74.07407407,6,1,16,0.028888889,-0.004444444,1,0,0,0.7318,rock_grid_rect_2,2,11,-1,-1,0.732,-0.134444444,-0.255555556,1,0,0,1.5946,Basalt_rect,2,1.595,1,15,0,15,0,1,,,,,,,,,,,,
63cfff59a184313f875f6a06,TCR,2024-06-10_14h19.36.229,LearnStrategy,2023.2.3,Win32,74.07407407,6,2,1,,,,,,,,2,08,,,,,,,,,,,2,1.119,1,,,,,,-0.143333333,-0.23,1,0,0,1.1187,Basalt_rect,0,0,0,0,1
63cfff59a184313f875f6a06,TCR,2024-06-10_14h19.36.229,LearnStrategy,2023.2.3,Win32,74.07407407,6,2,2,,,,,,,,6,12,,,,,,,,,,,6,2.244,1,,,,,,-0.117777778,-0.414444444,1,0,0,2.2435,Pegmatite_rect,1,0,1,0,1
63cfff59a184313f875f6a06,TCR,2024-06-10_14h19.36.229,LearnStrategy,2023.2.3,Win32,74.07407407,6,2,3,,,,,,,,1,11,,,,,,,,,,,1,2.257,1,,,,,,-0.398888889,-0.262222222,1,0,0,2.2571,Andesite_rect,2,0,2,0,1
63cfff59a184313f875f6a06,TCR,2024-06-10_14h19.36.229,LearnStrategy,2023.2.3,Win32,74.07407407,6,2,4,,,,,,,,5,12,,,,,,,,,,,5,1.127,1,,,,,,-0.382222222,-0.408888889,1,0,0,1.1265,Obsidian_rect,3,0,3,0,1
63cfff59a184313f875f6a06,TCR,2024-06-10_14h19.36.229,LearnStrategy,2023.2.3,Win32,74.07407407,6,2,5,,,,,,,,4,16,,,,,,,,,,,4,1.623,1,,,,,,0.451111111,-0.26,1,0,0,1.6233,Gabbro_rect,4,0,4,0,1
63cfff59a184313f875f6a06,TCR,2024-06-10_14h19.36.229,LearnStrategy,2023.2.3,Win32,74.07407407,6,2,6,,,,,,,,5,11,,,,,,,,,,,5,0.976,1,,,,,,-0.396666667,-0.384444444,1,0,0,0.9765,Obsidian_rect,5,0,5,0,1
63cfff59a184313f875f6a06,TCR,2024-06-10_14h19.36.229,LearnStrategy,2023.2.3,Win32,74.07407407,6,2,7,,,,,,,,1,14,,,,,,,,,,,6,27.131,0,,,,,,-0.113333333,-0.397777778,1,0,0,27.1311,Pegmatite_rect,6,0,6,0,1
63cfff59a184313f875f6a06,TCR,2024-06-10_14h19.36.229,LearnStrategy,2023.2.3,Win32,74.07407407,6,2,8,,,,,,,,3,06,,,,,,,,,,,3,7.713,1,,,,,,0.107777778,-0.244444444,1,0,0,7.7133,Diorite_rect,7,0,7,0,1
63cfff59a184313f875f6a06,TCR,2024-06-10_14h19.36.229,LearnStrategy,2023.2.3,Win32,74.07407407,6,2,9,,,,,,,,8,03,,,,,,,,,,,8,6.988,1,,,,,,0.372222222,-0.388888889,1,0,0,6.9875,Pumice_rect,8,0,8,0,1
63cfff59a184313f875f6a06,TCR,2024-06-10_14h19.36.229,LearnStrategy,2023.2.3,Win32,74.07407407,6,2,10,,,,,,,,7,04,,,,,,,,,,,1,5.916,0,,,,,,-0.394444444,-0.248888889,1,0,0,5.9156,Andesite_rect,9,0,9,0,1
63cfff59a184313f875f6a06,TCR,2024-06-10_14h19.36.229,LearnStrategy,2023.2.3,Win32,74.07407407,6,2,11,,,,,,,,8,05,,,,,,,,,,,8,1.135,1,,,,,,0.398888889,-0.404444444,1,0,0,1.1351,Pumice_rect,10,0,10,0,1
63cfff59a184313f875f6a06,TCR,2024-06-10_14h19.36.229,LearnStrategy,2023.2.3,Win32,74.07407407,6,2,12,,,,,,,,2,06,,,,,,,,,,,2,0.981,1,,,,,,-0.193333333,-0.258888889,1,0,0,0.9814,Basalt_rect,11,0,11,0,1
63cfff59a184313f875f6a06,TCR,2024-06-10_14h19.36.229,LearnStrategy,2023.2.3,Win32,74.07407407,6,2,13,,,,,,,,3,08,,,,,,,,,,,3,1.171,1,,,,,,0.162222222,-0.252222222,1,0,0,1.1713,Diorite_rect,12,0,12,0,1
63cfff59a184313f875f6a06,TCR,2024-06-10_14h19.36.229,LearnStrategy,2023.2.3,Win32,74.07407407,6,2,14,,,,,,,,7,13,,,,,,,,,,,7,1.589,1,,,,,,0.145555556,-0.412222222,1,0,0,1.5892,Peridotite_rect,13,0,13,0,1
63cfff59a184313f875f6a06,TCR,2024-06-10_14h19.36.229,LearnStrategy,2023.2.3,Win32,74.07407407,6,2,15,,,,,,,,4,11,,,,,,,,,,,2,3.144,0,,,,,,-0.106666667,-0.265555556,1,0,0,3.1444,Basalt_rect,14,0,14,0,1
63cfff59a184313f875f6a06,TCR,2024-06-10_14h19.36.229,LearnStrategy,2023.2.3,Win32,74.07407407,6,2,16,,,,,,,,6,03,,,,,,,,,,,6,2.678,1,,,,,,-0.141111111,-0.413333333,1,0,0,2.6785,Pegmatite_rect,15,0,15,0,1
63cfff59a184313f875f6a06,TCR,2024-06-10_14h19.36.229,LearnStrategy,2023.2.3,Win32,74.07407407,7,1,1,0.132222222,0.001111111,1,0,0,3.1022,rock_grid_rect_2,4,08,-1,-1,3.102,0.331111111,-0.228888889,1,0,0,1.2488,Gabbro_rect,4,1.249,1,0,0,0,0,1,,,,,,,,,,,,
63cfff59a184313f875f6a06,TCR,2024-06-10_14h19.36.229,LearnStrategy,2023.2.3,Win32,74.07407407,7,1,2,0.003333333,-0.007777778,1,0,0,0.9941,rock_grid_rect_2,8,09,-1,-1,0.994,0.404444444,-0.416666667,1,0,0,1.3124,Pumice_rect,8,1.312,1,1,0,1,0,1,,,,,,,,,,,,
63cfff59a184313f875f6a06,TCR,2024-06-10_14h19.36.229,LearnStrategy,2023.2.3,Win32,74.07407407,7,1,3,-0.066666667,-0.012222222,1,0,0,10.37,rock_grid_rect_2,2,11,-1,-1,10.37,-0.137777778,-0.255555556,1,0,0,4.4363,Basalt_rect,2,4.436,1,2,0,2,0,1,,,,,,,,,,,,
63cfff59a184313f875f6a06,TCR,2024-06-10_14h19.36.229,LearnStrategy,2023.2.3,Win32,74.07407407,7,1,4,-0.038888889,0.003333333,1,0,0,0.913,rock_grid_rect_2,1,05,-1,-1,0.913,-0.348888889,-0.247777778,1,0,0,1.5298,Andesite_rect,1,1.53,1,3,0,3,0,1,,,,,,,,,,,,
63cfff59a184313f875f6a06,TCR,2024-06-10_14h19.36.229,LearnStrategy,2023.2.3,Win32,74.07407407,7,1,5,-0.001111111,-0.01,1,0,0,0.7533,rock_grid_rect_2,3,10,-1,-1,0.753,0.146666667,-0.257777778,1,0,0,1.8739,Diorite_rect,3,1.874,1,4,0,4,0,1,,,,,,,,,,,,
63cfff59a184313f875f6a06,TCR,2024-06-10_14h19.36.229,LearnStrategy,2023.2.3,Win32,74.07407407,7,1,6,-0.027777778,0.021111111,1,0,0,1.396,rock_grid_rect_2,1,02,-1,-1,1.396,-0.382222222,-0.264444444,1,0,0,3.0296,Andesite_rect,1,3.03,1,5,0,5,0,1,,,,,,,,,,,,
63cfff59a184313f875f6a06,TCR,2024-06-10_14h19.36.229,LearnStrategy,2023.2.3,Win32,74.07407407,7,1,7,-0.005555556,-0.018888889,1,0,0,0.8468,rock_grid_rect_2,7,15,-1,-1,0.847,0.07,-0.418888889,1,0,0,1.5681,Peridotite_rect,7,1.568,1,6,0,6,0,1,,,,,,,,,,,,
63cfff59a184313f875f6a06,TCR,2024-06-10_14h19.36.229,LearnStrategy,2023.2.3,Win32,74.07407407,7,1,8,-0.015555556,-0.015555556,1,0,0,2.1964,rock_grid_rect_2,1,07,-1,-1,2.196,-0.353333333,-0.235555556,1,0,0,1.914,Andesite_rect,1,1.914,1,7,0,7,0,1,,,,,,,,,,,,
63cfff59a184313f875f6a06,TCR,2024-06-10_14h19.36.229,LearnStrategy,2023.2.3,Win32,74.07407407,7,1,9,-0.002222222,0.012222222,1,0,0,1.3211,rock_grid_rect_2,1,07,-1,-1,1.321,-0.34,-0.23,1,0,0,1.5343,Andesite_rect,1,1.534,1,8,0,8,0,1,,,,,,,,,,,,
63cfff59a184313f875f6a06,TCR,2024-06-10_14h19.36.229,LearnStrategy,2023.2.3,Win32,74.07407407,7,1,10,-0.027777778,0.004444444,1,0,0,1.371,rock_grid_rect_2,6,07,-1,-1,1.371,-0.135555556,-0.394444444,1,0,0,1.6024,Pegmatite_rect,6,1.602,1,9,0,9,0,1,,,,,,,,,,,,
63cfff59a184313f875f6a06,TCR,2024-06-10_14h19.36.229,LearnStrategy,2023.2.3,Win32,74.07407407,7,1,11,-0.031111111,-0.015555556,1,0,0,1.6168,rock_grid_rect_2,4,03,-1,-1,1.617,0.12,-0.256666667,1,0,0,3.1233,Diorite_rect,3,3.123,0,10,0,10,0,1,,,,,,,,,,,,
63cfff59a184313f875f6a06,TCR,2024-06-10_14h19.36.229,LearnStrategy,2023.2.3,Win32,74.07407407,7,1,12,-0.06,-0.008888889,1,0,0,1.4566,rock_grid_rect_2,4,14,-1,-1,1.457,0.391111111,-0.258888889,1,0,0,2.0269,Gabbro_rect,4,2.027,1,11,0,11,0,1,,,,,,,,,,,,
63cfff59a184313f875f6a06,TCR,2024-06-10_14h19.36.229,LearnStrategy,2023.2.3,Win32,74.07407407,7,1,13,-0.061111111,0.003333333,1,0,0,1.2743,rock_grid_rect_2,7,16,-1,-1,1.274,0.145555556,-0.402222222,1,0,0,3.3623,Peridotite_rect,7,3.362,1,12,0,12,0,1,,,,,,,,,,,,
63cfff59a184313f875f6a06,TCR,2024-06-10_14h19.36.229,LearnStrategy,2023.2.3,Win32,74.07407407,7,1,14,-0.012222222,0.006666667,1,0,0,1.046,rock_grid_rect_2,5,08,-1,-1,1.046,-0.368888889,-0.393333333,1,0,0,1.5353,Obsidian_rect,5,1.535,1,13,0,13,0,1,,,,,,,,,,,,
63cfff59a184313f875f6a06,TCR,2024-06-10_14h19.36.229,LearnStrategy,2023.2.3,Win32,74.07407407,7,1,15,-0.02,-0.022222222,1,0,0,0.9184,rock_grid_rect_2,1,02,-1,-1,0.918,-0.402222222,-0.25,1,0,0,1.3886,Andesite_rect,1,1.389,1,14,0,14,0,1,,,,,,,,,,,,
63cfff59a184313f875f6a06,TCR,2024-06-10_14h19.36.229,LearnStrategy,2023.2.3,Win32,74.07407407,7,1,16,0.034444444,-0.01,1,0,0,1.2919,rock_grid_rect_2,2,14,-1,-1,1.292,0.394444444,-0.39,1,0,0,1.8651,Pumice_rect,8,1.865,0,15,0,15,0,1,,,,,,,,,,,,
63cfff59a184313f875f6a06,TCR,2024-06-10_14h19.36.229,LearnStrategy,2023.2.3,Win32,74.07407407,7,2,1,,,,,,,,7,05,,,,,,,,,,,7,1.607,1,,,,,,0.15,-0.391111111,1,0,0,1.6069,Peridotite_rect,0,0,0,0,1
63cfff59a184313f875f6a06,TCR,2024-06-10_14h19.36.229,LearnStrategy,2023.2.3,Win32,74.07407407,7,2,2,,,,,,,,8,05,,,,,,,,,,,8,4.519,1,,,,,,0.411111111,-0.401111111,1,0,0,4.519,Pumice_rect,1,0,1,0,1
63cfff59a184313f875f6a06,TCR,2024-06-10_14h19.36.229,LearnStrategy,2023.2.3,Win32,74.07407407,7,2,3,,,,,,,,6,12,,,,,,,,,,,6,9.957,1,,,,,,-0.121111111,-0.406666667,1,0,0,9.9574,Pegmatite_rect,2,0,2,0,1
63cfff59a184313f875f6a06,TCR,2024-06-10_14h19.36.229,LearnStrategy,2023.2.3,Win32,74.07407407,7,2,4,,,,,,,,2,16,,,,,,,,,,,4,12.215,0,,,,,,0.365555556,-0.251111111,1,0,0,12.2146,Gabbro_rect,3,0,3,0,1
63cfff59a184313f875f6a06,TCR,2024-06-10_14h19.36.229,LearnStrategy,2023.2.3,Win32,74.07407407,7,2,5,,,,,,,,4,15,,,,,,,,,,,1,8.656,0,,,,,,-0.393333333,-0.254444444,1,0,0,8.656,Andesite_rect,4,0,4,0,1
63cfff59a184313f875f6a06,TCR,2024-06-10_14h19.36.229,LearnStrategy,2023.2.3,Win32,74.07407407,7,2,6,,,,,,,,1,10,,,,,,,,,,,1,5.636,1,,,,,,-0.353333333,-0.253333333,1,0,0,5.636,Andesite_rect,5,0,5,0,1
63cfff59a184313f875f6a06,TCR,2024-06-10_14h19.36.229,LearnStrategy,2023.2.3,Win32,74.07407407,7,2,7,,,,,,,,5,16,,,,,,,,,,,5,1.491,1,,,,,,-0.392222222,-0.393333333,1,0,0,1.4914,Obsidian_rect,6,0,6,0,1
63cfff59a184313f875f6a06,TCR,2024-06-10_14h19.36.229,LearnStrategy,2023.2.3,Win32,74.07407407,7,2,8,,,,,,,,7,10,,,,,,,,,,,7,1.123,1,,,,,,0.136666667,-0.385555556,1,0,0,1.123,Peridotite_rect,7,0,7,0,1
63cfff59a184313f875f6a06,TCR,2024-06-10_14h19.36.229,LearnStrategy,2023.2.3,Win32,74.07407407,7,2,9,,,,,,,,4,13,,,,,,,,,,,3,18.544,0,,,,,,0.162222222,-0.256666667,1,0,0,18.5445,Diorite_rect,8,0,8,0,1
63cfff59a184313f875f6a06,TCR,2024-06-10_14h19.36.229,LearnStrategy,2023.2.3,Win32,74.07407407,7,2,10,,,,,,,,5,12,,,,,,,,,,,5,1.089,1,,,,,,-0.433333333,-0.415555556,1,0,0,1.089,Obsidian_rect,9,0,9,0,1
63cfff59a184313f875f6a06,TCR,2024-06-10_14h19.36.229,LearnStrategy,2023.2.3,Win32,74.07407407,7,2,11,,,,,,,,3,11,,,,,,,,,,,3,2.105,1,,,,,,0.108888889,-0.255555556,1,0,0,2.1055,Diorite_rect,10,0,10,0,1
63cfff59a184313f875f6a06,TCR,2024-06-10_14h19.36.229,LearnStrategy,2023.2.3,Win32,74.07407407,7,2,12,,,,,,,,3,14,,,,,,,,,,,3,2.127,1,,,,,,0.151111111,-0.254444444,1,0,0,2.1273,Diorite_rect,11,0,11,0,1
63cfff59a184313f875f6a06,TCR,2024-06-10_14h19.36.229,LearnStrategy,2023.2.3,Win32,74.07407407,7,2,13,,,,,,,,6,15,,,,,,,,,,,6,1.296,1,,,,,,-0.148888889,-0.393333333,1,0,0,1.2963,Pegmatite_rect,12,0,12,0,1
63cfff59a184313f875f6a06,TCR,2024-06-10_14h19.36.229,LearnStrategy,2023.2.3,Win32,74.07407407,7,2,14,,,,,,,,2,12,,,,,,,,,,,2,6.283,1,,,,,,-0.146666667,-0.253333333,1,0,0,6.2828,Basalt_rect,13,0,13,0,1
63cfff59a184313f875f6a06,TCR,2024-06-10_14h19.36.229,LearnStrategy,2023.2.3,Win32,74.07407407,7,2,15,,,,,,,,8,08,,,,,,,,,,,8,1.28,1,,,,,,0.394444444,-0.384444444,1,0,0,1.2799,Pumice_rect,14,0,14,0,1
63cfff59a184313f875f6a06,TCR,2024-06-10_14h19.36.229,LearnStrategy,2023.2.3,Win32,74.07407407,7,2,16,,,,,,,,1,16,,,,,,,,,,,1,1.479,1,,,,,,-0.406666667,-0.257777778,1,0,0,1.4792,Andesite_rect,15,0,15,0,1
63cfff59a184313f875f6a06,TCR,2024-06-10_14h19.36.229,LearnStrategy,2023.2.3,Win32,74.07407407,8,1,1,0.004444444,-0.006666667,1,0,0,1.2075,rock_grid_rect_2,2,02,-1,-1,1.207,-0.12,-0.247777778,1,0,0,1.0604,Basalt_rect,2,1.06,1,0,0,0,0,1,,,,,,,,,,,,
63cfff59a184313f875f6a06,TCR,2024-06-10_14h19.36.229,LearnStrategy,2023.2.3,Win32,74.07407407,8,1,2,-0.002222222,0.004444444,1,0,0,0.7681,rock_grid_rect_2,4,09,-1,-1,0.768,0.421111111,-0.238888889,1,0,0,2.0912,Gabbro_rect,4,2.091,1,1,0,1,0,1,,,,,,,,,,,,
63cfff59a184313f875f6a06,TCR,2024-06-10_14h19.36.229,LearnStrategy,2023.2.3,Win32,74.07407407,8,1,3,0.013333333,0.004444444,1,0,0,0.794,rock_grid_rect_2,8,02,-1,-1,0.794,0.393333333,-0.421111111,1,0,0,1.6049,Pumice_rect,8,1.605,1,2,0,2,0,1,,,,,,,,,,,,
63cfff59a184313f875f6a06,TCR,2024-06-10_14h19.36.229,LearnStrategy,2023.2.3,Win32,74.07407407,8,1,4,0.011111111,0.003333333,1,0,0,0.8352,rock_grid_rect_2,4,08,-1,-1,0.835,0.414444444,-0.24,1,0,0,1.4587,Gabbro_rect,4,1.459,1,3,0,3,0,1,,,,,,,,,,,,
63cfff59a184313f875f6a06,TCR,2024-06-10_14h19.36.229,LearnStrategy,2023.2.3,Win32,74.07407407,8,1,5,-0.035555556,0.013333333,1,0,0,0.7228,rock_grid_rect_2,2,09,-1,-1,0.723,-0.104444444,-0.243333333,1,0,0,1.081,Basalt_rect,2,1.081,1,4,0,4,0,1,,,,,,,,,,,,
63cfff59a184313f875f6a06,TCR,2024-06-10_14h19.36.229,LearnStrategy,2023.2.3,Win32,74.07407407,8,1,6,-0.034444444,0,1,0,0,1.3043,rock_grid_rect_2,6,06,-1,-1,1.304,-0.125555556,-0.401111111,1,0,0,2.5788,Pegmatite_rect,6,2.579,1,5,0,5,0,1,,,,,,,,,,,,
63cfff59a184313f875f6a06,TCR,2024-06-10_14h19.36.229,LearnStrategy,2023.2.3,Win32,74.07407407,8,1,7,0,-0.007777778,1,0,0,1.0631,rock_grid_rect_2,5,04,-1,-1,1.063,-0.374444444,-0.405555556,1,0,0,1.2152,Obsidian_rect,5,1.215,1,6,0,6,0,1,,,,,,,,,,,,
63cfff59a184313f875f6a06,TCR,2024-06-10_14h19.36.229,LearnStrategy,2023.2.3,Win32,74.07407407,8,1,8,-0.017777778,0.001111111,1,0,0,0.9057,rock_grid_rect_2,1,02,-1,-1,0.906,-0.341111111,-0.262222222,1,0,0,1.1706,Andesite_rect,1,1.171,1,7,0,7,0,1,,,,,,,,,,,,
63cfff59a184313f875f6a06,TCR,2024-06-10_14h19.36.229,LearnStrategy,2023.2.3,Win32,74.07407407,8,1,9,-0.031111111,0.017777778,1,0,0,0.7315,rock_grid_rect_2,1,01,-1,-1,0.731,-0.393333333,-0.252222222,1,0,0,2.9467,Andesite_rect,1,2.947,1,8,0,8,0,1,,,,,,,,,,,,
63cfff59a184313f875f6a06,TCR,2024-06-10_14h19.36.229,LearnStrategy,2023.2.3,Win32,74.07407407,8,1,10,-0.104444444,0.015555556,1,0,0,2.4789,rock_grid_rect_2,7,14,-1,-1,2.479,0.104444444,-0.413333333,1,0,0,2.4051,Peridotite_rect,7,2.405,1,9,0,9,0,1,,,,,,,,,,,,
63cfff59a184313f875f6a06,TCR,2024-06-10_14h19.36.229,LearnStrategy,2023.2.3,Win32,74.07407407,8,1,11,-0.025555556,0.008888889,1,0,0,0.7766,rock_grid_rect_2,3,10,-1,-1,0.777,0.097777778,-0.244444444,1,0,0,1.0581,Diorite_rect,3,1.058,1,10,0,10,0,1,,,,,,,,,,,,
63cfff59a184313f875f6a06,TCR,2024-06-10_14h19.36.229,LearnStrategy,2023.2.3,Win32,74.07407407,8,1,12,-0.015555556,0.004444444,1,0,0,1.0222,rock_grid_rect_2,4,14,-1,-1,1.022,0.45,-0.254444444,1,0,0,5.6533,Gabbro_rect,4,5.653,1,11,0,11,0,1,,,,,,,,,,,,
63cfff59a184313f875f6a06,TCR,2024-06-10_14h19.36.229,LearnStrategy,2023.2.3,Win32,74.07407407,8,1,13,-0.01,-0.01,1,0,0,1.0698,rock_grid_rect_2,7,14,-1,-1,1.07,0.091111111,-0.406666667,1,0,0,1.1785,Peridotite_rect,7,1.178,1,12,0,12,0,1,,,,,,,,,,,,
63cfff59a184313f875f6a06,TCR,2024-06-10_14h19.36.229,LearnStrategy,2023.2.3,Win32,74.07407407,8,1,14,-0.003333333,0.006666667,1,0,0,0.6231,rock_grid_rect_2,4,05,-1,-1,0.623,0.365555556,-0.262222222,1,0,0,8.2063,Gabbro_rect,4,8.206,1,13,0,13,0,1,,,,,,,,,,,,
63cfff59a184313f875f6a06,TCR,2024-06-10_14h19.36.229,LearnStrategy,2023.2.3,Win32,74.07407407,8,1,15,-0.006666667,-0.02,1,0,0,0.8922,rock_grid_rect_2,2,14,-1,-1,0.892,-0.114444444,-0.262222222,1,0,0,5.1136,Basalt_rect,2,5.114,1,14,0,14,0,1,,,,,,,,,,,,
63cfff59a184313f875f6a06,TCR,2024-06-10_14h19.36.229,LearnStrategy,2023.2.3,Win32,74.07407407,8,1,16,0.026666667,0.016666667,1,0,0,0.9173,rock_grid_rect_2,4,08,-1,-1,0.917,0.434444444,-0.23,1,0,0,4.1627,Gabbro_rect,4,4.163,1,15,0,15,0,1,,,,,,,,,,,,
63cfff59a184313f875f6a06,TCR,2024-06-10_14h19.36.229,LearnStrategy,2023.2.3,Win32,74.07407407,8,2,1,,,,,,,,4,01,,,,,,,,,,,4,23.774,1,,,,,,0.427777778,-0.234444444,1,0,0,23.7737,Gabbro_rect,0,0,0,0,1
63cfff59a184313f875f6a06,TCR,2024-06-10_14h19.36.229,LearnStrategy,2023.2.3,Win32,74.07407407,8,2,2,,,,,,,,6,16,,,,,,,,,,,6,1.24,1,,,,,,-0.114444444,-0.411111111,1,0,0,1.2397,Pegmatite_rect,1,0,1,0,1
63cfff59a184313f875f6a06,TCR,2024-06-10_14h19.36.229,LearnStrategy,2023.2.3,Win32,74.07407407,8,2,3,,,,,,,,2,04,,,,,,,,,,,2,0.97,1,,,,,,-0.131111111,-0.262222222,1,0,0,0.9696,Basalt_rect,2,0,2,0,1
63cfff59a184313f875f6a06,TCR,2024-06-10_14h19.36.229,LearnStrategy,2023.2.3,Win32,74.07407407,8,2,4,,,,,,,,5,11,,,,,,,,,,,5,1.124,1,,,,,,-0.378888889,-0.416666667,1,0,0,1.124,Obsidian_rect,3,0,3,0,1
63cfff59a184313f875f6a06,TCR,2024-06-10_14h19.36.229,LearnStrategy,2023.2.3,Win32,74.07407407,8,2,5,,,,,,,,6,03,,,,,,,,,,,6,1.63,1,,,,,,-0.163333333,-0.401111111,1,0,0,1.6305,Pegmatite_rect,4,0,4,0,1
63cfff59a184313f875f6a06,TCR,2024-06-10_14h19.36.229,LearnStrategy,2023.2.3,Win32,74.07407407,8,2,6,,,,,,,,7,06,,,,,,,,,,,7,18.529,1,,,,,,0.134444444,-0.38,1,0,0,18.5294,Peridotite_rect,5,0,5,0,1
63cfff59a184313f875f6a06,TCR,2024-06-10_14h19.36.229,LearnStrategy,2023.2.3,Win32,74.07407407,8,2,7,,,,,,,,1,09,,,,,,,,,,,2,9.155,0,,,,,,-0.083333333,-0.247777778,1,0,0,9.1547,Basalt_rect,6,0,6,0,1
63cfff59a184313f875f6a06,TCR,2024-06-10_14h19.36.229,LearnStrategy,2023.2.3,Win32,74.07407407,8,2,8,,,,,,,,3,13,,,,,,,,,,,3,6.572,1,,,,,,0.088888889,-0.24,1,0,0,6.5716,Diorite_rect,7,0,7,0,1
63cfff59a184313f875f6a06,TCR,2024-06-10_14h19.36.229,LearnStrategy,2023.2.3,Win32,74.07407407,8,2,9,,,,,,,,7,02,,,,,,,,,,,7,1.172,1,,,,,,0.152222222,-0.402222222,1,0,0,1.1721,Peridotite_rect,8,0,8,0,1
63cfff59a184313f875f6a06,TCR,2024-06-10_14h19.36.229,LearnStrategy,2023.2.3,Win32,74.07407407,8,2,10,,,,,,,,8,04,,,,,,,,,,,8,1.043,1,,,,,,0.392222222,-0.421111111,1,0,0,1.0431,Pumice_rect,9,0,9,0,1
63cfff59a184313f875f6a06,TCR,2024-06-10_14h19.36.229,LearnStrategy,2023.2.3,Win32,74.07407407,8,2,11,,,,,,,,5,06,,,,,,,,,,,5,1.262,1,,,,,,-0.372222222,-0.395555556,1,0,0,1.2617,Obsidian_rect,10,0,10,0,1
63cfff59a184313f875f6a06,TCR,2024-06-10_14h19.36.229,LearnStrategy,2023.2.3,Win32,74.07407407,8,2,12,,,,,,,,1,11,,,,,,,,,,,1,1.11,1,,,,,,-0.422222222,-0.24,1,0,0,1.1101,Andesite_rect,11,0,11,0,1
63cfff59a184313f875f6a06,TCR,2024-06-10_14h19.36.229,LearnStrategy,2023.2.3,Win32,74.07407407,8,2,13,,,,,,,,4,12,,,,,,,,,,,4,8.243,1,,,,,,0.35,-0.243333333,1,0,0,8.2426,Gabbro_rect,12,0,12,0,1
63cfff59a184313f875f6a06,TCR,2024-06-10_14h19.36.229,LearnStrategy,2023.2.3,Win32,74.07407407,8,2,14,,,,,,,,3,06,,,,,,,,,,,3,12.444,1,,,,,,0.102222222,-0.254444444,1,0,0,12.4443,Diorite_rect,13,0,13,0,1
63cfff59a184313f875f6a06,TCR,2024-06-10_14h19.36.229,LearnStrategy,2023.2.3,Win32,74.07407407,8,2,15,,,,,,,,8,03,,,,,,,,,,,8,1.984,1,,,,,,0.433333333,-0.415555556,1,0,0,1.9837,Pumice_rect,14,0,14,0,1
63cfff59a184313f875f6a06,TCR,2024-06-10_14h19.36.229,LearnStrategy,2023.2.3,Win32,74.07407407,8,2,16,,,,,,,,2,08,,,,,,,,,,,2,1.006,1,,,,,,-0.126666667,-0.235555556,1,0,0,1.0056,Basalt_rect,15,0,15,0,1
63cfff59a184313f875f6a06,TCR,2024-06-10_14h19.36.229,LearnStrategy,2023.2.3,Win32,74.07407407,9,1,1,0.004444444,-0.014444444,1,0,0,1.1371,rock_grid_rect_2,4,14,-1,-1,1.137,0.444444444,-0.242222222,1,0,0,1.5177,Gabbro_rect,4,1.518,1,0,0,0,0,1,,,,,,,,,,,,
63cfff59a184313f875f6a06,TCR,2024-06-10_14h19.36.229,LearnStrategy,2023.2.3,Win32,74.07407407,9,1,2,0.003333333,0.01,1,0,0,0.5847,rock_grid_rect_2,7,07,-1,-1,0.585,0.126666667,-0.384444444,1,0,0,1.3207,Peridotite_rect,7,1.321,1,1,0,1,0,1,,,,,,,,,,,,
63cfff59a184313f875f6a06,TCR,2024-06-10_14h19.36.229,LearnStrategy,2023.2.3,Win32,74.07407407,9,1,3,0.004444444,0.015555556,1,0,0,0.7117,rock_grid_rect_2,4,03,-1,-1,0.712,0.376666667,-0.261111111,1,0,0,3.4245,Gabbro_rect,4,3.425,1,2,0,2,0,1,,,,,,,,,,,,
63cfff59a184313f875f6a06,TCR,2024-06-10_14h19.36.229,LearnStrategy,2023.2.3,Win32,74.07407407,9,1,4,0.018888889,0.017777778,1,0,0,0.7801,rock_grid_rect_2,6,05,-1,-1,0.78,-0.12,-0.414444444,1,0,0,5.8629,Pegmatite_rect,6,5.863,1,3,0,3,0,1,,,,,,,,,,,,
63cfff59a184313f875f6a06,TCR,2024-06-10_14h19.36.229,LearnStrategy,2023.2.3,Win32,74.07407407,9,1,5,0.032222222,0.007777778,1,0,0,0.7673,rock_grid_rect_2,1,04,-1,-1,0.767,-0.396666667,-0.25,1,0,0,1.4793,Andesite_rect,1,1.479,1,4,0,4,0,1,,,,,,,,,,,,
63cfff59a184313f875f6a06,TCR,2024-06-10_14h19.36.229,LearnStrategy,2023.2.3,Win32,74.07407407,9,1,6,0.006666667,-0.02,1,0,0,1.2872,rock_grid_rect_2,2,09,-1,-1,1.287,-0.143333333,-0.245555556,1,0,0,1.1083,Basalt_rect,2,1.108,1,5,0,5,0,1,,,,,,,,,,,,
63cfff59a184313f875f6a06,TCR,2024-06-10_14h19.36.229,LearnStrategy,2023.2.3,Win32,74.07407407,9,1,7,0.018888889,0.001111111,1,0,0,0.9012,rock_grid_rect_2,7,12,-1,-1,0.901,0.108888889,-0.406666667,1,0,0,2.0944,Peridotite_rect,7,2.094,1,6,0,6,0,1,,,,,,,,,,,,
63cfff59a184313f875f6a06,TCR,2024-06-10_14h19.36.229,LearnStrategy,2023.2.3,Win32,74.07407407,9,1,8,0.012222222,0.002222222,1,0,0,0.8909,rock_grid_rect_2,3,02,-1,-1,0.891,0.1,-0.238888889,1,0,0,1.1898,Diorite_rect,3,1.19,1,7,0,7,0,1,,,,,,,,,,,,
63cfff59a184313f875f6a06,TCR,2024-06-10_14h19.36.229,LearnStrategy,2023.2.3,Win32,74.07407407,9,1,9,0.016666667,0.012222222,1,0,0,0.7539,rock_grid_rect_2,5,09,-1,-1,0.754,-0.363333333,-0.385555556,1,0,0,0.9483,Obsidian_rect,5,0.948,1,8,0,8,0,1,,,,,,,,,,,,
63cfff59a184313f875f6a06,TCR,2024-06-10_14h19.36.229,LearnStrategy,2023.2.3,Win32,74.07407407,9,1,10,0.057777778,0.006666667,1,0,0,0.8921,rock_grid_rect_2,1,04,-1,-1,0.892,-0.394444444,-0.245555556,1,0,0,1.4125,Andesite_rect,1,1.412,1,9,0,9,0,1,,,,,,,,,,,,
63cfff59a184313f875f6a06,TCR,2024-06-10_14h19.36.229,LearnStrategy,2023.2.3,Win32,74.07407407,9,1,11,0.022222222,0.006666667,1,0,0,0.8251,rock_grid_rect_2,1,07,-1,-1,0.825,-0.457777778,-0.261111111,1,0,0,1.1766,Andesite_rect,1,1.177,1,10,0,10,0,1,,,,,,,,,,,,
63cfff59a184313f875f6a06,TCR,2024-06-10_14h19.36.229,LearnStrategy,2023.2.3,Win32,74.07407407,9,1,12,0.053333333,0.02,1,0,0,0.7586,rock_grid_rect_2,4,10,-1,-1,0.759,0.394444444,-0.25,1,0,0,1.7468,Gabbro_rect,4,1.747,1,11,0,11,0,1,,,,,,,,,,,,
63cfff59a184313f875f6a06,TCR,2024-06-10_14h19.36.229,LearnStrategy,2023.2.3,Win32,74.07407407,9,1,13,0.002222222,0.003333333,1,0,0,0.7747,rock_grid_rect_2,2,05,-1,-1,0.775,-0.19,-0.248888889,1,0,0,0.8002,Basalt_rect,2,0.8,1,12,0,12,0,1,,,,,,,,,,,,
63cfff59a184313f875f6a06,TCR,2024-06-10_14h19.36.229,LearnStrategy,2023.2.3,Win32,74.07407407,9,1,14,0.033333333,0.003333333,1,0,0,1.096,rock_grid_rect_2,8,09,-1,-1,1.096,0.351111111,-0.416666667,1,0,0,1.0434,Pumice_rect,8,1.043,1,13,0,13,0,1,,,,,,,,,,,,
63cfff59a184313f875f6a06,TCR,2024-06-10_14h19.36.229,LearnStrategy,2023.2.3,Win32,74.07407407,9,1,15,-0.057777778,0.005555556,1,0,0,0.7164,rock_grid_rect_2,2,05,-1,-1,0.716,-0.15,-0.266666667,1,0,0,0.8989,Basalt_rect,2,0.899,1,14,0,14,0,1,,,,,,,,,,,,
63cfff59a184313f875f6a06,TCR,2024-06-10_14h19.36.229,LearnStrategy,2023.2.3,Win32,74.07407407,9,1,16,0.03,-0.001111111,1,0,0,0.862,rock_grid_rect_2,4,09,-1,-1,0.862,0.378888889,-0.237777778,1,0,0,1.0121,Gabbro_rect,4,1.012,1,15,0,15,0,1,,,,,,,,,,,,
63cfff59a184313f875f6a06,TCR,2024-06-10_14h19.36.229,LearnStrategy,2023.2.3,Win32,74.07407407,9,2,1,,,,,,,,8,10,,,,,,,,,,,8,1.304,1,,,,,,0.472222222,-0.387777778,1,0,0,1.304,Pumice_rect,0,0,0,0,1
63cfff59a184313f875f6a06,TCR,2024-06-10_14h19.36.229,LearnStrategy,2023.2.3,Win32,74.07407407,9,2,2,,,,,,,,4,11,,,,,,,,,,,4,2.529,1,,,,,,0.393333333,-0.237777778,1,0,0,2.5291,Gabbro_rect,1,0,1,0,1
63cfff59a184313f875f6a06,TCR,2024-06-10_14h19.36.229,LearnStrategy,2023.2.3,Win32,74.07407407,9,2,3,,,,,,,,1,14,,,,,,,,,,,6,1.478,0,,,,,,-0.201111111,-0.398888889,1,0,0,1.4777,Pegmatite_rect,2,0,2,0,1
63cfff59a184313f875f6a06,TCR,2024-06-10_14h19.36.229,LearnStrategy,2023.2.3,Win32,74.07407407,9,2,4,,,,,,,,6,10,,,,,,,,,,,6,1.289,1,,,,,,-0.161111111,-0.413333333,1,0,0,1.289,Pegmatite_rect,3,0,3,0,1
63cfff59a184313f875f6a06,TCR,2024-06-10_14h19.36.229,LearnStrategy,2023.2.3,Win32,74.07407407,9,2,5,,,,,,,,7,13,,,,,,,,,,,7,1.113,1,,,,,,0.117777778,-0.411111111,1,0,0,1.1127,Peridotite_rect,4,0,4,0,1
63cfff59a184313f875f6a06,TCR,2024-06-10_14h19.36.229,LearnStrategy,2023.2.3,Win32,74.07407407,9,2,6,,,,,,,,6,11,,,,,,,,,,,6,1.826,1,,,,,,-0.125555556,-0.402222222,1,0,0,1.8263,Pegmatite_rect,5,0,5,0,1
63cfff59a184313f875f6a06,TCR,2024-06-10_14h19.36.229,LearnStrategy,2023.2.3,Win32,74.07407407,9,2,7,,,,,,,,1,06,,,,,,,,,,,1,20.953,1,,,,,,-0.37,-0.241111111,1,0,0,20.9526,Andesite_rect,6,0,6,0,1
63cfff59a184313f875f6a06,TCR,2024-06-10_14h19.36.229,LearnStrategy,2023.2.3,Win32,74.07407407,9,2,8,,,,,,,,2,06,,,,,,,,,,,2,1.082,1,,,,,,-0.125555556,-0.24,1,0,0,1.0816,Basalt_rect,7,0,7,0,1
63cfff59a184313f875f6a06,TCR,2024-06-10_14h19.36.229,LearnStrategy,2023.2.3,Win32,74.07407407,9,2,9,,,,,,,,5,10,,,,,,,,,,,5,1.859,1,,,,,,-0.368888889,-0.413333333,1,0,0,1.8586,Obsidian_rect,8,0,8,0,1
63cfff59a184313f875f6a06,TCR,2024-06-10_14h19.36.229,LearnStrategy,2023.2.3,Win32,74.07407407,9,2,10,,,,,,,,2,10,,,,,,,,,,,2,1.169,1,,,,,,-0.115555556,-0.256666667,1,0,0,1.1695,Basalt_rect,9,0,9,0,1
63cfff59a184313f875f6a06,TCR,2024-06-10_14h19.36.229,LearnStrategy,2023.2.3,Win32,74.07407407,9,2,11,,,,,,,,3,08,,,,,,,,,,,3,2.821,1,,,,,,0.2,-0.255555556,1,0,0,2.8209,Diorite_rect,10,0,10,0,1
63cfff59a184313f875f6a06,TCR,2024-06-10_14h19.36.229,LearnStrategy,2023.2.3,Win32,74.07407407,9,2,12,,,,,,,,8,06,,,,,,,,,,,8,1.05,1,,,,,,0.343333333,-0.39,1,0,0,1.0502,Pumice_rect,11,0,11,0,1
63cfff59a184313f875f6a06,TCR,2024-06-10_14h19.36.229,LearnStrategy,2023.2.3,Win32,74.07407407,9,2,13,,,,,,,,3,16,,,,,,,,,,,3,0.964,1,,,,,,0.07,-0.253333333,1,0,0,0.9636,Diorite_rect,12,0,12,0,1
63cfff59a184313f875f6a06,TCR,2024-06-10_14h19.36.229,LearnStrategy,2023.2.3,Win32,74.07407407,9,2,14,,,,,,,,5,02,,,,,,,,,,,5,1.509,1,,,,,,-0.394444444,-0.395555556,1,0,0,1.5091,Obsidian_rect,13,0,13,0,1
63cfff59a184313f875f6a06,TCR,2024-06-10_14h19.36.229,LearnStrategy,2023.2.3,Win32,74.07407407,9,2,15,,,,,,,,4,16,,,,,,,,,,,4,13.721,1,,,,,,0.401111111,-0.243333333,1,0,0,13.721,Gabbro_rect,14,0,14,0,1
63cfff59a184313f875f6a06,TCR,2024-06-10_14h19.36.229,LearnStrategy,2023.2.3,Win32,74.07407407,9,2,16,,,,,,,,7,04,,,,,,,,,,,6,2.989,0,,,,,,-0.15,-0.388888889,1,0,0,2.9886,Pegmatite_rect,15,0,15,0,1
63cfff59a184313f875f6a06,TCR,2024-06-10_14h19.36.229,LearnStrategy,2023.2.3,Win32,74.07407407,,,,,,,,,,,,,,,,,,,,,,,,,,,,,,,,,,,,,,,,,,
63cfff59a184313f875f6a06,TCR,2024-06-10_14h19.36.229,LearnStrategy,2023.2.3,Win32,74.07407407,,,,,,,,,,,,,,,,,,,,,,,,,,,,,,,,,,,,,,,,,,
63cfff59a184313f875f6a06,TCR,2024-06-10_14h19.36.229,LearnStrategy,2023.2.3,Win32,74.07407407,,,,,,,,,,,5,08,1,1,,,,,,,,,,,,,,,,,,,,,,,,,,,,
63cfff59a184313f875f6a06,TCR,2024-06-10_14h19.36.229,LearnStrategy,2023.2.3,Win32,74.07407407,,,,,,,,,,,4,10,1,2,,,,,,,,,,,,,,,,,,,,,,,,,,,,
63cfff59a184313f875f6a06,TCR,2024-06-10_14h19.36.229,LearnStrategy,2023.2.3,Win32,74.07407407,,,,,,,,,,,4,09,1,3,,,,,,,,,,,,,,,,,,,,,,,,,,,,
63cfff59a184313f875f6a06,TCR,2024-06-10_14h19.36.229,LearnStrategy,2023.2.3,Win32,74.07407407,,,,,,,,,,,8,16,1,4,,,,,,,,,,,,,,,,,,,,,,,,,,,,
63cfff59a184313f875f6a06,TCR,2024-06-10_14h19.36.229,LearnStrategy,2023.2.3,Win32,74.07407407,,,,,,,,,,,4,05,1,5,,,,,,,,,,,,,,,,,,,,,,,,,,,,
63cfff59a184313f875f6a06,TCR,2024-06-10_14h19.36.229,LearnStrategy,2023.2.3,Win32,74.07407407,,,,,,,,,,,1,07,1,6,,,,,,,,,,,,,,,,,,,,,,,,,,,,
63cfff59a184313f875f6a06,TCR,2024-06-10_14h19.36.229,LearnStrategy,2023.2.3,Win32,74.07407407,,,,,,,,,,,2,01,1,7,,,,,,,,,,,,,,,,,,,,,,,,,,,,
63cfff59a184313f875f6a06,TCR,2024-06-10_14h19.36.229,LearnStrategy,2023.2.3,Win32,74.07407407,,,,,,,,,,,1,04,1,8,,,,,,,,,,,,,,,,,,,,,,,,,,,,
63cfff59a184313f875f6a06,TCR,2024-06-10_14h19.36.229,LearnStrategy,2023.2.3,Win32,74.07407407,,,,,,,,,,,6,05,2,1,,,,,,,,,,,,,,,,,,,,,,,,,,,,
63cfff59a184313f875f6a06,TCR,2024-06-10_14h19.36.229,LearnStrategy,2023.2.3,Win32,74.07407407,,,,,,,,,,,8,14,2,2,,,,,,,,,,,,,,,,,,,,,,,,,,,,
63cfff59a184313f875f6a06,TCR,2024-06-10_14h19.36.229,LearnStrategy,2023.2.3,Win32,74.07407407,,,,,,,,,,,1,03,2,3,,,,,,,,,,,,,,,,,,,,,,,,,,,,
63cfff59a184313f875f6a06,TCR,2024-06-10_14h19.36.229,LearnStrategy,2023.2.3,Win32,74.07407407,,,,,,,,,,,3,15,2,4,,,,,,,,,,,,,,,,,,,,,,,,,,,,
63cfff59a184313f875f6a06,TCR,2024-06-10_14h19.36.229,LearnStrategy,2023.2.3,Win32,74.07407407,,,,,,,,,,,7,12,2,5,,,,,,,,,,,,,,,,,,,,,,,,,,,,
63cfff59a184313f875f6a06,TCR,2024-06-10_14h19.36.229,LearnStrategy,2023.2.3,Win32,74.07407407,,,,,,,,,,,5,07,2,6,,,,,,,,,,,,,,,,,,,,,,,,,,,,
63cfff59a184313f875f6a06,TCR,2024-06-10_14h19.36.229,LearnStrategy,2023.2.3,Win32,74.07407407,,,,,,,,,,,6,09,2,7,,,,,,,,,,,,,,,,,,,,,,,,,,,,
63cfff59a184313f875f6a06,TCR,2024-06-10_14h19.36.229,LearnStrategy,2023.2.3,Win32,74.07407407,,,,,,,,,,,1,02,2,8,,,,,,,,,,,,,,,,,,,,,,,,,,,,
63cfff59a184313f875f6a06,TCR,2024-06-10_14h19.36.229,LearnStrategy,2023.2.3,Win32,74.07407407,,,,,,,,,,,2,05,3,1,,,,,,,,,,,,,,,,,,,,,,,,,,,,
63cfff59a184313f875f6a06,TCR,2024-06-10_14h19.36.229,LearnStrategy,2023.2.3,Win32,74.07407407,,,,,,,,,,,4,03,3,2,,,,,,,,,,,,,,,,,,,,,,,,,,,,
63cfff59a184313f875f6a06,TCR,2024-06-10_14h19.36.229,LearnStrategy,2023.2.3,Win32,74.07407407,,,,,,,,,,,7,07,3,3,,,,,,,,,,,,,,,,,,,,,,,,,,,,
63cfff59a184313f875f6a06,TCR,2024-06-10_14h19.36.229,LearnStrategy,2023.2.3,Win32,74.07407407,,,,,,,,,,,8,02,3,4,,,,,,,,,,,,,,,,,,,,,,,,,,,,
63cfff59a184313f875f6a06,TCR,2024-06-10_14h19.36.229,LearnStrategy,2023.2.3,Win32,74.07407407,,,,,,,,,,,7,14,3,5,,,,,,,,,,,,,,,,,,,,,,,,,,,,
63cfff59a184313f875f6a06,TCR,2024-06-10_14h19.36.229,LearnStrategy,2023.2.3,Win32,74.07407407,,,,,,,,,,,1,05,3,6,,,,,,,,,,,,,,,,,,,,,,,,,,,,
63cfff59a184313f875f6a06,TCR,2024-06-10_14h19.36.229,LearnStrategy,2023.2.3,Win32,74.07407407,,,,,,,,,,,1,01,3,7,,,,,,,,,,,,,,,,,,,,,,,,,,,,
63cfff59a184313f875f6a06,TCR,2024-06-10_14h19.36.229,LearnStrategy,2023.2.3,Win32,74.07407407,,,,,,,,,,,3,02,3,8,,,,,,,,,,,,,,,,,,,,,,,,,,,,
63cfff59a184313f875f6a06,TCR,2024-06-10_14h19.36.229,LearnStrategy,2023.2.3,Win32,74.07407407,,,,,,,,,,,6,13,4,1,,,,,,,,,,,,,,,,,,,,,,,,,,,,
63cfff59a184313f875f6a06,TCR,2024-06-10_14h19.36.229,LearnStrategy,2023.2.3,Win32,74.07407407,,,,,,,,,,,4,14,4,2,,,,,,,,,,,,,,,,,,,,,,,,,,,,
63cfff59a184313f875f6a06,TCR,2024-06-10_14h19.36.229,LearnStrategy,2023.2.3,Win32,74.07407407,,,,,,,,,,,6,08,4,3,,,,,,,,,,,,,,,,,,,,,,,,,,,,
63cfff59a184313f875f6a06,TCR,2024-06-10_14h19.36.229,LearnStrategy,2023.2.3,Win32,74.07407407,,,,,,,,,,,2,11,4,4,,,,,,,,,,,,,,,,,,,,,,,,,,,,
63cfff59a184313f875f6a06,TCR,2024-06-10_14h19.36.229,LearnStrategy,2023.2.3,Win32,74.07407407,,,,,,,,,,,3,09,4,5,,,,,,,,,,,,,,,,,,,,,,,,,,,,
63cfff59a184313f875f6a06,TCR,2024-06-10_14h19.36.229,LearnStrategy,2023.2.3,Win32,74.07407407,,,,,,,,,,,7,08,4,6,,,,,,,,,,,,,,,,,,,,,,,,,,,,
63cfff59a184313f875f6a06,TCR,2024-06-10_14h19.36.229,LearnStrategy,2023.2.3,Win32,74.07407407,,,,,,,,,,,4,08,4,7,,,,,,,,,,,,,,,,,,,,,,,,,,,,
63cfff59a184313f875f6a06,TCR,2024-06-10_14h19.36.229,LearnStrategy,2023.2.3,Win32,74.07407407,,,,,,,,,,,3,10,4,8,,,,,,,,,,,,,,,,,,,,,,,,,,,,
63cfff59a184313f875f6a06,TCR,2024-06-10_14h19.36.229,LearnStrategy,2023.2.3,Win32,74.07407407,,,,,,,,,,,8,15,5,1,,,,,,,,,,,,,,,,,,,,,,,,,,,,
63cfff59a184313f875f6a06,TCR,2024-06-10_14h19.36.229,LearnStrategy,2023.2.3,Win32,74.07407407,,,,,,,,,,,2,02,5,2,,,,,,,,,,,,,,,,,,,,,,,,,,,,
63cfff59a184313f875f6a06,TCR,2024-06-10_14h19.36.229,LearnStrategy,2023.2.3,Win32,74.07407407,,,,,,,,,,,6,06,5,3,,,,,,,,,,,,,,,,,,,,,,,,,,,,
63cfff59a184313f875f6a06,TCR,2024-06-10_14h19.36.229,LearnStrategy,2023.2.3,Win32,74.07407407,,,,,,,,,,,3,07,5,4,,,,,,,,,,,,,,,,,,,,,,,,,,,,
63cfff59a184313f875f6a06,TCR,2024-06-10_14h19.36.229,LearnStrategy,2023.2.3,Win32,74.07407407,,,,,,,,,,,2,14,5,5,,,,,,,,,,,,,,,,,,,,,,,,,,,,
63cfff59a184313f875f6a06,TCR,2024-06-10_14h19.36.229,LearnStrategy,2023.2.3,Win32,74.07407407,,,,,,,,,,,3,12,5,6,,,,,,,,,,,,,,,,,,,,,,,,,,,,
63cfff59a184313f875f6a06,TCR,2024-06-10_14h19.36.229,LearnStrategy,2023.2.3,Win32,74.07407407,,,,,,,,,,,8,09,5,7,,,,,,,,,,,,,,,,,,,,,,,,,,,,
63cfff59a184313f875f6a06,TCR,2024-06-10_14h19.36.229,LearnStrategy,2023.2.3,Win32,74.07407407,,,,,,,,,,,8,13,5,8,,,,,,,,,,,,,,,,,,,,,,,,,,,,
63cfff59a184313f875f6a06,TCR,2024-06-10_14h19.36.229,LearnStrategy,2023.2.3,Win32,74.07407407,,,,,,,,,,,2,09,6,1,,,,,,,,,,,,,,,,,,,,,,,,,,,,
63cfff59a184313f875f6a06,TCR,2024-06-10_14h19.36.229,LearnStrategy,2023.2.3,Win32,74.07407407,,,,,,,,,,,5,05,6,2,,,,,,,,,,,,,,,,,,,,,,,,,,,,
63cfff59a184313f875f6a06,TCR,2024-06-10_14h19.36.229,LearnStrategy,2023.2.3,Win32,74.07407407,,,,,,,,,,,5,04,6,3,,,,,,,,,,,,,,,,,,,,,,,,,,,,
63cfff59a184313f875f6a06,TCR,2024-06-10_14h19.36.229,LearnStrategy,2023.2.3,Win32,74.07407407,,,,,,,,,,,5,14,6,4,,,,,,,,,,,,,,,,,,,,,,,,,,,,
63cfff59a184313f875f6a06,TCR,2024-06-10_14h19.36.229,LearnStrategy,2023.2.3,Win32,74.07407407,,,,,,,,,,,5,09,6,5,,,,,,,,,,,,,,,,,,,,,,,,,,,,
63cfff59a184313f875f6a06,TCR,2024-06-10_14h19.36.229,LearnStrategy,2023.2.3,Win32,74.07407407,,,,,,,,,,,7,16,6,6,,,,,,,,,,,,,,,,,,,,,,,,,,,,
63cfff59a184313f875f6a06,TCR,2024-06-10_14h19.36.229,LearnStrategy,2023.2.3,Win32,74.07407407,,,,,,,,,,,7,15,6,7,,,,,,,,,,,,,,,,,,,,,,,,,,,,
63cfff59a184313f875f6a06,TCR,2024-06-10_14h19.36.229,LearnStrategy,2023.2.3,Win32,74.07407407,,,,,,,,,,,6,07,6,8,,,,,,,,,,,,,,,,,,,,,,,,,,,,