participant,condition,date,expName,psychopyVersion,OS,frameRate,block,phase,trial,learn_mouse_2.x,learn_mouse_2.y,learn_mouse_2.leftButton,learn_mouse_2.midButton,learn_mouse_2.rightButton,learn_mouse_2.time,learn_mouse_2.clicked_name,cat,token,row,col,t_select,cat_mouse_l.x,cat_mouse_l.y,cat_mouse_l.leftButton,cat_mouse_l.midButton,cat_mouse_l.rightButton,cat_mouse_l.time,cat_mouse_l.clicked_name,resp,t_resp,corr,train_trials.thisRepN,train_trials.thisTrialN,train_trials.thisN,train_trials.thisIndex,train_trials.ran,cat_mouse_t.x,cat_mouse_t.y,cat_mouse_t.leftButton,cat_mouse_t.midButton,cat_mouse_t.rightButton,cat_mouse_t.time,cat_mouse_t.clicked_name,test_trials.thisRepN,test_trials.thisTrialN,test_trials.thisN,test_trials.thisIndex,test_trials.ran,Bonus
63d2a4b549eb02187fd40092,TCR,2024-06-24_17h32.41.671,LearnStrategy,2023.2.3,Win32,58.82352941,,,,,,,,,,,,,,,,,,,,,,,,,,,,,,,,,,,,,,,,,,,
63d2a4b549eb02187fd40092,TCR,2024-06-24_17h32.41.671,LearnStrategy,2023.2.3,Win32,58.82352941,1,1,1,-0.001851824,0.00462963,1,0,0,4.3296,rock_grid_rect_2,5,04,-1,-1,4.33,-0.330555563,-0.250925912,1,0,0,7.6014,Andesite_rect,1,7.601,0,0,0,0,0,1,,,,,,,,,,,,,
63d2a4b549eb02187fd40092,TCR,2024-06-24_17h32.41.671,LearnStrategy,2023.2.3,Win32,58.82352941,1,1,2,0.021296325,-0.014814836,1,0,0,1.3695,rock_grid_rect_2,8,13,-1,-1,1.37,0.089814857,-0.270370413,1,0,0,6.5577,Diorite_rect,3,6.558,0,1,0,1,0,1,,,,,,,,,,,,,
63d2a4b549eb02187fd40092,TCR,2024-06-24_17h32.41.671,LearnStrategy,2023.2.3,Win32,58.82352941,1,1,3,-0.016666624,-0.017592607,1,0,0,1.1231,rock_grid_rect_2,7,12,-1,-1,1.123,-0.10555557,-0.243518547,1,0,0,1.8063,Basalt_rect,2,1.806,0,2,0,2,0,1,,,,,,,,,,,,,
63d2a4b549eb02187fd40092,TCR,2024-06-24_17h32.41.671,LearnStrategy,2023.2.3,Win32,58.82352941,1,1,4,0.061111097,-0.009259259,1,0,0,1.1743,rock_grid_rect_2,4,01,-1,-1,1.174,0.188888903,-0.247222265,1,0,0,1.4633,Diorite_rect,3,1.463,0,3,0,3,0,1,,,,,,,,,,,,,
63d2a4b549eb02187fd40092,TCR,2024-06-24_17h32.41.671,LearnStrategy,2023.2.3,Win32,58.82352941,1,1,5,-0.00462963,0.000925912,1,0,0,0.9404,rock_grid_rect_2,4,16,-1,-1,0.94,-0.346296275,-0.236111111,1,0,0,6.5719,Andesite_rect,1,6.572,0,4,0,4,0,1,,,,,,,,,,,,,
63d2a4b549eb02187fd40092,TCR,2024-06-24_17h32.41.671,LearnStrategy,2023.2.3,Win32,58.82352941,1,1,6,0.049074102,0.013888889,1,0,0,1.1467,rock_grid_rect_2,3,09,-1,-1,1.147,0.135185171,-0.259259259,1,0,0,6.7745,Diorite_rect,3,6.774,1,5,0,5,0,1,,,,,,,,,,,,,
63d2a4b549eb02187fd40092,TCR,2024-06-24_17h32.41.671,LearnStrategy,2023.2.3,Win32,58.82352941,1,1,7,0.034259302,-0.01203703,1,0,0,1.1726,rock_grid_rect_2,6,16,-1,-1,1.173,-0.106481481,-0.388888889,1,0,0,3.2003,Pegmatite_rect,6,3.2,1,6,0,6,0,1,,,,,,,,,,,,,
63d2a4b549eb02187fd40092,TCR,2024-06-24_17h32.41.671,LearnStrategy,2023.2.3,Win32,58.82352941,1,1,8,-0.030555513,0.01203703,1,0,0,1.0053,rock_grid_rect_2,3,15,-1,-1,1.005,0.137962977,-0.262962977,1,0,0,5.9303,Diorite_rect,3,5.93,1,7,0,7,0,1,,,,,,,,,,,,,
63d2a4b549eb02187fd40092,TCR,2024-06-24_17h32.41.671,LearnStrategy,2023.2.3,Win32,58.82352941,1,1,9,0.015740783,-0.006481489,1,0,0,1.1942,rock_grid_rect_2,8,06,-1,-1,1.194,-0.339814822,-0.24537037,1,0,0,4.4005,Andesite_rect,1,4.4,0,8,0,8,0,1,,,,,,,,,,,,,
63d2a4b549eb02187fd40092,TCR,2024-06-24_17h32.41.671,LearnStrategy,2023.2.3,Win32,58.82352941,1,1,10,0.037962949,-0.020370377,1,0,0,0.9579,rock_grid_rect_2,5,02,-1,-1,0.958,-0.337962963,-0.385185171,1,0,0,1.9653,Obsidian_rect,5,1.965,1,9,0,9,0,1,,,,,,,,,,,,,
63d2a4b549eb02187fd40092,TCR,2024-06-24_17h32.41.671,LearnStrategy,2023.2.3,Win32,58.82352941,1,1,11,-0.011111083,0,1,0,0,1.016,rock_grid_rect_2,1,02,-1,-1,1.016,0.328703704,-0.258333347,1,0,0,5.8214,Gabbro_rect,4,5.821,0,10,0,10,0,1,,,,,,,,,,,,,
63d2a4b549eb02187fd40092,TCR,2024-06-24_17h32.41.671,LearnStrategy,2023.2.3,Win32,58.82352941,1,1,12,-0.031481496,-0.020370377,1,0,0,0.9913,rock_grid_rect_2,2,11,-1,-1,0.991,-0.074074074,-0.257407436,1,0,0,2.3419,Basalt_rect,2,2.342,1,11,0,11,0,1,,,,,,,,,,,,,
63d2a4b549eb02187fd40092,TCR,2024-06-24_17h32.41.671,LearnStrategy,2023.2.3,Win32,58.82352941,1,1,13,-0.009259259,0.005555541,1,0,0,0.9409,rock_grid_rect_2,1,11,-1,-1,0.941,-0.296296296,-0.251851894,1,0,0,20.9979,Andesite_rect,1,20.998,1,12,0,12,0,1,,,,,,,,,,,,,
63d2a4b549eb02187fd40092,TCR,2024-06-24_17h32.41.671,LearnStrategy,2023.2.3,Win32,58.82352941,1,1,14,0.042592578,-0.017592607,1,0,0,0.964,rock_grid_rect_2,2,16,-1,-1,0.964,0.359259288,-0.256481524,1,0,0,2.7277,Gabbro_rect,4,2.728,0,13,0,13,0,1,,,,,,,,,,,,,
63d2a4b549eb02187fd40092,TCR,2024-06-24_17h32.41.671,LearnStrategy,2023.2.3,Win32,58.82352941,1,1,15,0.038888931,-0.000925947,1,0,0,1.0067,rock_grid_rect_2,6,06,-1,-1,1.007,0.338888945,-0.390740783,1,0,0,17.3122,Pumice_rect,8,17.312,0,14,0,14,0,1,,,,,,,,,,,,,
63d2a4b549eb02187fd40092,TCR,2024-06-24_17h32.41.671,LearnStrategy,2023.2.3,Win32,58.82352941,1,1,16,-0.037962949,-0.019444466,1,0,0,0.9317,rock_grid_rect_2,7,02,-1,-1,0.932,0.387963048,-0.26944443,1,0,0,4.4216,Gabbro_rect,4,4.422,0,15,0,15,0,1,,,,,,,,,,,,,
63d2a4b549eb02187fd40092,TCR,2024-06-24_17h32.41.671,LearnStrategy,2023.2.3,Win32,58.82352941,1,2,1,,,,,,,,3,10,,,,,,,,,,,3,23.613,1,,,,,,0.183333362,-0.256481524,1,0,0,23.6129,Diorite_rect,0,0,0,0,1,
63d2a4b549eb02187fd40092,TCR,2024-06-24_17h32.41.671,LearnStrategy,2023.2.3,Win32,58.82352941,1,2,2,,,,,,,,7,05,,,,,,,,,,,7,45.962,1,,,,,,0.12962963,-0.411111125,1,0,0,45.9621,Peridotite_rect,1,0,1,0,1,
63d2a4b549eb02187fd40092,TCR,2024-06-24_17h32.41.671,LearnStrategy,2023.2.3,Win32,58.82352941,1,2,3,,,,,,,,8,10,,,,,,,,,,,8,11.809,1,,,,,,0.402777778,-0.413888931,1,0,0,11.8091,Pumice_rect,2,0,2,0,1,
63d2a4b549eb02187fd40092,TCR,2024-06-24_17h32.41.671,LearnStrategy,2023.2.3,Win32,58.82352941,1,2,4,,,,,,,,2,05,,,,,,,,,,,5,8.332,0,,,,,,-0.347222222,-0.385185171,1,0,0,8.3319,Obsidian_rect,3,0,3,0,1,
63d2a4b549eb02187fd40092,TCR,2024-06-24_17h32.41.671,LearnStrategy,2023.2.3,Win32,58.82352941,1,2,5,,,,,,,,5,05,,,,,,,,,,,5,2.58,1,,,,,,-0.361111111,-0.384259259,1,0,0,2.5796,Obsidian_rect,4,0,4,0,1,
63d2a4b549eb02187fd40092,TCR,2024-06-24_17h32.41.671,LearnStrategy,2023.2.3,Win32,58.82352941,1,2,6,,,,,,,,5,09,,,,,,,,,,,5,1.724,1,,,,,,-0.357407393,-0.400925954,1,0,0,1.724,Obsidian_rect,5,0,5,0,1,
63d2a4b549eb02187fd40092,TCR,2024-06-24_17h32.41.671,LearnStrategy,2023.2.3,Win32,58.82352941,1,2,7,,,,,,,,2,14,,,,,,,,,,,4,31.903,0,,,,,,0.385185242,-0.25,1,0,0,31.9031,Gabbro_rect,6,0,6,0,1,
63d2a4b549eb02187fd40092,TCR,2024-06-24_17h32.41.671,LearnStrategy,2023.2.3,Win32,58.82352941,1,2,8,,,,,,,,4,08,,,,,,,,,,,7,16.491,0,,,,,,0.199074074,-0.387037065,1,0,0,16.4911,Peridotite_rect,7,0,7,0,1,
63d2a4b549eb02187fd40092,TCR,2024-06-24_17h32.41.671,LearnStrategy,2023.2.3,Win32,58.82352941,1,2,9,,,,,,,,1,03,,,,,,,,,,,3,24.848,0,,,,,,0.10555557,-0.250925912,1,0,0,24.8485,Diorite_rect,8,0,8,0,1,
63d2a4b549eb02187fd40092,TCR,2024-06-24_17h32.41.671,LearnStrategy,2023.2.3,Win32,58.82352941,1,2,10,,,,,,,,8,04,,,,,,,,,,,8,17.088,1,,,,,,0.446296268,-0.387037065,1,0,0,17.0878,Pumice_rect,9,0,9,0,1,
63d2a4b549eb02187fd40092,TCR,2024-06-24_17h32.41.671,LearnStrategy,2023.2.3,Win32,58.82352941,1,2,11,,,,,,,,6,10,,,,,,,,,,,7,7.36,0,,,,,,0.133333347,-0.391666695,1,0,0,7.36,Peridotite_rect,10,0,10,0,1,
63d2a4b549eb02187fd40092,TCR,2024-06-24_17h32.41.671,LearnStrategy,2023.2.3,Win32,58.82352941,1,2,12,,,,,,,,6,11,,,,,,,,,,,6,11.131,1,,,,,,-0.12962963,-0.378703718,1,0,0,11.1311,Pegmatite_rect,11,0,11,0,1,
63d2a4b549eb02187fd40092,TCR,2024-06-24_17h32.41.671,LearnStrategy,2023.2.3,Win32,58.82352941,1,2,13,,,,,,,,1,14,,,,,,,,,,,1,8.971,1,,,,,,-0.341666645,-0.261111153,1,0,0,8.9715,Andesite_rect,12,0,12,0,1,
63d2a4b549eb02187fd40092,TCR,2024-06-24_17h32.41.671,LearnStrategy,2023.2.3,Win32,58.82352941,1,2,14,,,,,,,,7,15,,,,,,,,,,,7,9.03,1,,,,,,0.103703746,-0.395370413,1,0,0,9.0301,Peridotite_rect,13,0,13,0,1,
63d2a4b549eb02187fd40092,TCR,2024-06-24_17h32.41.671,LearnStrategy,2023.2.3,Win32,58.82352941,1,2,15,,,,,,,,3,14,,,,,,,,,,,3,16.559,1,,,,,,0.100000028,-0.251851894,1,0,0,16.5588,Diorite_rect,14,0,14,0,1,
63d2a4b549eb02187fd40092,TCR,2024-06-24_17h32.41.671,LearnStrategy,2023.2.3,Win32,58.82352941,1,2,16,,,,,,,,4,13,,,,,,,,,,,4,9.755,1,,,,,,0.388888889,-0.249074088,1,0,0,9.7554,Gabbro_rect,15,0,15,0,1,
63d2a4b549eb02187fd40092,TCR,2024-06-24_17h32.41.671,LearnStrategy,2023.2.3,Win32,58.82352941,2,1,1,0.055555556,0.001851859,1,0,0,3.8988,rock_grid_rect_2,7,14,-1,-1,3.899,0.091666681,-0.244444459,1,0,0,15.3978,Diorite_rect,3,15.398,0,0,0,0,0,1,,,,,,,,,,,,,
63d2a4b549eb02187fd40092,TCR,2024-06-24_17h32.41.671,LearnStrategy,2023.2.3,Win32,58.82352941,2,1,2,0.021296325,-0.014814836,1,0,0,1.5341,rock_grid_rect_2,6,03,-1,-1,1.534,-0.112962935,-0.39444443,1,0,0,4.3886,Pegmatite_rect,6,4.389,1,1,0,1,0,1,,,,,,,,,,,,,
63d2a4b549eb02187fd40092,TCR,2024-06-24_17h32.41.671,LearnStrategy,2023.2.3,Win32,58.82352941,2,1,3,-0.038888861,-0.0074074,1,0,0,1.1631,rock_grid_rect_2,5,11,-1,-1,1.163,-0.375,-0.396296325,1,0,0,1.1988,Obsidian_rect,5,1.199,1,2,0,2,0,1,,,,,,,,,,,,,
63d2a4b549eb02187fd40092,TCR,2024-06-24_17h32.41.671,LearnStrategy,2023.2.3,Win32,58.82352941,2,1,4,-0.009259259,-0.018518519,1,0,0,0.9482,rock_grid_rect_2,2,12,-1,-1,0.948,-0.106481481,-0.267592607,1,0,0,2.5598,Basalt_rect,2,2.56,1,3,0,3,0,1,,,,,,,,,,,,,
63d2a4b549eb02187fd40092,TCR,2024-06-24_17h32.41.671,LearnStrategy,2023.2.3,Win32,58.82352941,2,1,5,-0.117592564,0.001851859,1,0,0,1.0921,rock_grid_rect_2,1,07,-1,-1,1.092,-0.337037016,-0.257407436,1,0,0,17.5509,Andesite_rect,1,17.551,1,4,0,4,0,1,,,,,,,,,,,,,
63d2a4b549eb02187fd40092,TCR,2024-06-24_17h32.41.671,LearnStrategy,2023.2.3,Win32,58.82352941,2,1,6,-0.008333347,-0.006481489,1,0,0,1.0525,rock_grid_rect_2,4,05,-1,-1,1.053,0.376851824,-0.259259259,1,0,0,4.6505,Gabbro_rect,4,4.65,1,5,0,5,0,1,,,,,,,,,,,,,
63d2a4b549eb02187fd40092,TCR,2024-06-24_17h32.41.671,LearnStrategy,2023.2.3,Win32,58.82352941,2,1,7,-0.00462963,0.013888889,1,0,0,1.0875,rock_grid_rect_2,1,02,-1,-1,1.087,-0.351851852,-0.265740783,1,0,0,13.4975,Andesite_rect,1,13.497,1,6,0,6,0,1,,,,,,,,,,,,,
63d2a4b549eb02187fd40092,TCR,2024-06-24_17h32.41.671,LearnStrategy,2023.2.3,Win32,58.82352941,2,1,8,0.064814815,-0.001851859,1,0,0,0.9701,rock_grid_rect_2,2,10,-1,-1,0.97,-0.392592571,-0.382407436,1,0,0,3.266,Obsidian_rect,5,3.266,0,7,0,7,0,1,,,,,,,,,,,,,
63d2a4b549eb02187fd40092,TCR,2024-06-24_17h32.41.671,LearnStrategy,2023.2.3,Win32,58.82352941,2,1,9,0.002777806,-0.01666666,1,0,0,0.9495,rock_grid_rect_2,2,11,-1,-1,0.95,-0.064814815,-0.25462963,1,0,0,6.3085,Basalt_rect,2,6.309,1,8,0,8,0,1,,,,,,,,,,,,,
63d2a4b549eb02187fd40092,TCR,2024-06-24_17h32.41.671,LearnStrategy,2023.2.3,Win32,58.82352941,2,1,10,0.022222236,0.003703683,1,0,0,0.9192,rock_grid_rect_2,4,11,-1,-1,0.919,0.343518575,-0.237963005,1,0,0,7.3724,Gabbro_rect,4,7.372,1,9,0,9,0,1,,,,,,,,,,,,,
63d2a4b549eb02187fd40092,TCR,2024-06-24_17h32.41.671,LearnStrategy,2023.2.3,Win32,58.82352941,2,1,11,0.049074102,-0.015740748,1,0,0,0.9791,rock_grid_rect_2,6,07,-1,-1,0.979,-0.17314812,-0.397222236,1,0,0,2.1288,Pegmatite_rect,6,2.129,1,10,0,10,0,1,,,,,,,,,,,,,
63d2a4b549eb02187fd40092,TCR,2024-06-24_17h32.41.671,LearnStrategy,2023.2.3,Win32,58.82352941,2,1,12,0.026851866,-0.014814836,1,0,0,0.9743,rock_grid_rect_2,4,12,-1,-1,0.974,0.381481453,-0.242592635,1,0,0,1.4914,Gabbro_rect,4,1.491,1,11,0,11,0,1,,,,,,,,,,,,,
63d2a4b549eb02187fd40092,TCR,2024-06-24_17h32.41.671,LearnStrategy,2023.2.3,Win32,58.82352941,2,1,13,-0.006481453,-0.012962977,1,0,0,3.4053,rock_grid_rect_2,1,05,-1,-1,3.405,0.165740755,-0.396296325,1,0,0,3.8656,Peridotite_rect,7,3.866,0,12,0,12,0,1,,,,,,,,,,,,,
63d2a4b549eb02187fd40092,TCR,2024-06-24_17h32.41.671,LearnStrategy,2023.2.3,Win32,58.82352941,2,1,14,0.071296339,-0.000925947,1,0,0,0.9248,rock_grid_rect_2,2,10,-1,-1,0.925,-0.109259217,-0.244444459,1,0,0,1.9253,Basalt_rect,2,1.925,1,13,0,13,0,1,,,,,,,,,,,,,
63d2a4b549eb02187fd40092,TCR,2024-06-24_17h32.41.671,LearnStrategy,2023.2.3,Win32,58.82352941,2,1,15,-0.042592578,-0.021296289,1,0,0,1.3198,rock_grid_rect_2,3,16,-1,-1,1.32,0.069444444,-0.26944443,1,0,0,9.8052,Diorite_rect,3,9.805,1,14,0,14,0,1,,,,,,,,,,,,,
63d2a4b549eb02187fd40092,TCR,2024-06-24_17h32.41.671,LearnStrategy,2023.2.3,Win32,58.82352941,2,1,16,0.023148148,-0.005555577,1,0,0,0.9327,rock_grid_rect_2,2,06,-1,-1,0.933,0.387037065,-0.241666653,1,0,0,1.7303,Gabbro_rect,4,1.73,0,15,0,15,0,1,,,,,,,,,,,,,
63d2a4b549eb02187fd40092,TCR,2024-06-24_17h32.41.671,LearnStrategy,2023.2.3,Win32,58.82352941,2,2,1,,,,,,,,5,10,,,,,,,,,,,5,4.184,1,,,,,,-0.349999993,-0.401851866,1,0,0,4.1836,Obsidian_rect,0,0,0,0,1,
63d2a4b549eb02187fd40092,TCR,2024-06-24_17h32.41.671,LearnStrategy,2023.2.3,Win32,58.82352941,2,2,2,,,,,,,,3,08,,,,,,,,,,,3,37.972,1,,,,,,0.141666695,-0.243518547,1,0,0,37.9721,Diorite_rect,1,0,1,0,1,
63d2a4b549eb02187fd40092,TCR,2024-06-24_17h32.41.671,LearnStrategy,2023.2.3,Win32,58.82352941,2,2,3,,,,,,,,4,09,,,,,,,,,,,4,23.709,1,,,,,,0.296296296,-0.249074088,1,0,0,23.7087,Gabbro_rect,2,0,2,0,1,
63d2a4b549eb02187fd40092,TCR,2024-06-24_17h32.41.671,LearnStrategy,2023.2.3,Win32,58.82352941,2,2,4,,,,,,,,1,04,,,,,,,,,,,2,3.931,0,,,,,,-0.091666681,-0.252777806,1,0,0,3.9315,Basalt_rect,3,0,3,0,1,
63d2a4b549eb02187fd40092,TCR,2024-06-24_17h32.41.671,LearnStrategy,2023.2.3,Win32,58.82352941,2,2,5,,,,,,,,3,13,,,,,,,,,,,3,15.359,1,,,,,,0.175000014,-0.231481481,1,0,0,15.3587,Diorite_rect,4,0,4,0,1,
63d2a4b549eb02187fd40092,TCR,2024-06-24_17h32.41.671,LearnStrategy,2023.2.3,Win32,58.82352941,2,2,6,,,,,,,,8,08,,,,,,,,,,,2,10.094,0,,,,,,-0.05277775,-0.246296282,1,0,0,10.0941,Basalt_rect,5,0,5,0,1,
63d2a4b549eb02187fd40092,TCR,2024-06-24_17h32.41.671,LearnStrategy,2023.2.3,Win32,58.82352941,2,2,7,,,,,,,,2,08,,,,,,,,,,,5,4.342,0,,,,,,-0.329629616,-0.396296325,1,0,0,4.3416,Obsidian_rect,6,0,6,0,1,
63d2a4b549eb02187fd40092,TCR,2024-06-24_17h32.41.671,LearnStrategy,2023.2.3,Win32,58.82352941,2,2,8,,,,,,,,2,02,,,,,,,,,,,4,3.419,0,,,,,,0.335185157,-0.253703718,1,0,0,3.4193,Gabbro_rect,7,0,7,0,1,
63d2a4b549eb02187fd40092,TCR,2024-06-24_17h32.41.671,LearnStrategy,2023.2.3,Win32,58.82352941,2,2,9,,,,,,,,6,13,,,,,,,,,,,6,2.825,1,,,,,,-0.134259259,-0.384259259,1,0,0,2.8252,Pegmatite_rect,8,0,8,0,1,
63d2a4b549eb02187fd40092,TCR,2024-06-24_17h32.41.671,LearnStrategy,2023.2.3,Win32,58.82352941,2,2,10,,,,,,,,5,07,,,,,,,,,,,5,4.804,1,,,,,,-0.342592593,-0.397222236,1,0,0,4.8036,Obsidian_rect,9,0,9,0,1,
63d2a4b549eb02187fd40092,TCR,2024-06-24_17h32.41.671,LearnStrategy,2023.2.3,Win32,58.82352941,2,2,11,,,,,,,,4,15,,,,,,,,,,,1,8.22,0,,,,,,-0.326851845,-0.262037065,1,0,0,8.2195,Andesite_rect,10,0,10,0,1,
63d2a4b549eb02187fd40092,TCR,2024-06-24_17h32.41.671,LearnStrategy,2023.2.3,Win32,58.82352941,2,2,12,,,,,,,,6,08,,,,,,,,,,,6,2.13,1,,,,,,-0.199999986,-0.39444443,1,0,0,2.1298,Pegmatite_rect,11,0,11,0,1,
63d2a4b549eb02187fd40092,TCR,2024-06-24_17h32.41.671,LearnStrategy,2023.2.3,Win32,58.82352941,2,2,13,,,,,,,,7,10,,,,,,,,,,,7,17.916,1,,,,,,0.12962963,-0.408333319,1,0,0,17.916,Peridotite_rect,12,0,12,0,1,
63d2a4b549eb02187fd40092,TCR,2024-06-24_17h32.41.671,LearnStrategy,2023.2.3,Win32,58.82352941,2,2,14,,,,,,,,8,16,,,,,,,,,,,8,2.798,1,,,,,,0.366666723,-0.386111153,1,0,0,2.7984,Pumice_rect,13,0,13,0,1,
63d2a4b549eb02187fd40092,TCR,2024-06-24_17h32.41.671,LearnStrategy,2023.2.3,Win32,58.82352941,2,2,15,,,,,,,,1,06,,,,,,,,,,,1,10.566,1,,,,,,-0.338888875,-0.249074088,1,0,0,10.5661,Andesite_rect,14,0,14,0,1,
63d2a4b549eb02187fd40092,TCR,2024-06-24_17h32.41.671,LearnStrategy,2023.2.3,Win32,58.82352941,2,2,16,,,,,,,,7,08,,,,,,,,,,,7,3.21,1,,,,,,0.119444459,-0.381481524,1,0,0,3.2096,Peridotite_rect,15,0,15,0,1,
63d2a4b549eb02187fd40092,TCR,2024-06-24_17h32.41.671,LearnStrategy,2023.2.3,Win32,58.82352941,3,1,1,-0.005555541,-0.009259259,1,0,0,1.2314,rock_grid_rect_2,8,15,-1,-1,1.231,-0.092592593,-0.264814801,1,0,0,13.3149,Basalt_rect,2,13.315,0,0,0,0,0,1,,,,,,,,,,,,,
63d2a4b549eb02187fd40092,TCR,2024-06-24_17h32.41.671,LearnStrategy,2023.2.3,Win32,58.82352941,3,1,2,0.010185171,-0.008333347,1,0,0,1.3719,rock_grid_rect_2,4,12,-1,-1,1.372,0.365740741,-0.242592635,1,0,0,3.9288,Gabbro_rect,4,3.929,1,1,0,1,0,1,,,,,,,,,,,,,
63d2a4b549eb02187fd40092,TCR,2024-06-24_17h32.41.671,LearnStrategy,2023.2.3,Win32,58.82352941,3,1,3,0.042592578,0.00462963,1,0,0,1.141,rock_grid_rect_2,1,09,-1,-1,1.141,0.119444459,-0.262962977,1,0,0,4.2691,Diorite_rect,3,4.269,0,2,0,2,0,1,,,,,,,,,,,,,
63d2a4b549eb02187fd40092,TCR,2024-06-24_17h32.41.671,LearnStrategy,2023.2.3,Win32,58.82352941,3,1,4,0.036111125,-0.0074074,1,0,0,0.9765,rock_grid_rect_2,7,13,-1,-1,0.976,0.060185185,-0.396296325,1,0,0,3.8199,Peridotite_rect,7,3.82,1,3,0,3,0,1,,,,,,,,,,,,,
63d2a4b549eb02187fd40092,TCR,2024-06-24_17h32.41.671,LearnStrategy,2023.2.3,Win32,58.82352941,3,1,5,0.041666667,-0.012962977,1,0,0,0.9237,rock_grid_rect_2,2,06,-1,-1,0.924,-0.102777764,-0.243518547,1,0,0,2.3508,Basalt_rect,2,2.351,1,4,0,4,0,1,,,,,,,,,,,,,
63d2a4b549eb02187fd40092,TCR,2024-06-24_17h32.41.671,LearnStrategy,2023.2.3,Win32,58.82352941,3,1,6,-0.032407407,-0.0074074,1,0,0,0.7826,rock_grid_rect_2,5,16,-1,-1,0.783,-0.341666645,-0.383333347,1,0,0,2.1707,Obsidian_rect,5,2.171,1,5,0,5,0,1,,,,,,,,,,,,,
63d2a4b549eb02187fd40092,TCR,2024-06-24_17h32.41.671,LearnStrategy,2023.2.3,Win32,58.82352941,3,1,7,0.102777764,0.01666666,1,0,0,0.8964,rock_grid_rect_2,1,02,-1,-1,0.896,0.117592635,-0.251851894,1,0,0,7.5206,Diorite_rect,3,7.521,0,6,0,6,0,1,,,,,,,,,,,,,
63d2a4b549eb02187fd40092,TCR,2024-06-24_17h32.41.671,LearnStrategy,2023.2.3,Win32,58.82352941,3,1,8,-0.003703718,-0.012962977,1,0,0,1.0411,rock_grid_rect_2,2,10,-1,-1,1.041,0.339814787,-0.259259259,1,0,0,7.0354,Gabbro_rect,4,7.035,0,7,0,7,0,1,,,,,,,,,,,,,
63d2a4b549eb02187fd40092,TCR,2024-06-24_17h32.41.671,LearnStrategy,2023.2.3,Win32,58.82352941,3,1,9,-0.00462963,-0.00462963,1,0,0,0.9263,rock_grid_rect_2,4,14,-1,-1,0.926,-0.335185192,-0.244444459,1,0,0,3.837,Andesite_rect,1,3.837,0,8,0,8,0,1,,,,,,,,,,,,,
63d2a4b549eb02187fd40092,TCR,2024-06-24_17h32.41.671,LearnStrategy,2023.2.3,Win32,58.82352941,3,1,10,0.008333347,0.001851859,1,0,0,0.8237,rock_grid_rect_2,2,04,-1,-1,0.824,-0.338888875,-0.393518519,1,0,0,2.8587,Obsidian_rect,5,2.859,0,9,0,9,0,1,,,,,,,,,,,,,
63d2a4b549eb02187fd40092,TCR,2024-06-24_17h32.41.671,LearnStrategy,2023.2.3,Win32,58.82352941,3,1,11,0.005555541,-0.011111118,1,0,0,1.2387,rock_grid_rect_2,8,02,-1,-1,1.239,0.305555556,-0.400000042,1,0,0,3.9342,Pumice_rect,8,3.934,1,10,0,10,0,1,,,,,,,,,,,,,
63d2a4b549eb02187fd40092,TCR,2024-06-24_17h32.41.671,LearnStrategy,2023.2.3,Win32,58.82352941,3,1,12,-0.021296254,-0.021296289,1,0,0,3.7311,rock_grid_rect_2,1,11,-1,-1,3.731,0.356481481,-0.25462963,1,0,0,11.7913,Gabbro_rect,4,11.791,0,11,0,11,0,1,,,,,,,,,,,,,
63d2a4b549eb02187fd40092,TCR,2024-06-24_17h32.41.671,LearnStrategy,2023.2.3,Win32,58.82352941,3,1,13,0.016666695,-0.003703718,1,0,0,1.2469,rock_grid_rect_2,2,10,-1,-1,1.247,-0.102777764,-0.232407393,1,0,0,3.1054,Basalt_rect,2,3.105,1,12,0,12,0,1,,,,,,,,,,,,,
63d2a4b549eb02187fd40092,TCR,2024-06-24_17h32.41.671,LearnStrategy,2023.2.3,Win32,58.82352941,3,1,14,-0.013888889,-0.003703718,1,0,0,0.9398,rock_grid_rect_2,2,12,-1,-1,0.94,-0.09629631,-0.257407436,1,0,0,10.3476,Basalt_rect,2,10.348,1,13,0,13,0,1,,,,,,,,,,,,,
63d2a4b549eb02187fd40092,TCR,2024-06-24_17h32.41.671,LearnStrategy,2023.2.3,Win32,58.82352941,3,1,15,-0.01944443,0.005555541,1,0,0,1.0466,rock_grid_rect_2,6,15,-1,-1,1.047,-0.134259259,-0.398148148,1,0,0,1.3162,Pegmatite_rect,6,1.316,1,14,0,14,0,1,,,,,,,,,,,,,
63d2a4b549eb02187fd40092,TCR,2024-06-24_17h32.41.671,LearnStrategy,2023.2.3,Win32,58.82352941,3,1,16,0.01944443,-0.012962977,1,0,0,0.8151,rock_grid_rect_2,4,05,-1,-1,0.815,0.12962963,-0.385185171,1,0,0,4.0142,Peridotite_rect,7,4.014,0,15,0,15,0,1,,,,,,,,,,,,,
63d2a4b549eb02187fd40092,TCR,2024-06-24_17h32.41.671,LearnStrategy,2023.2.3,Win32,58.82352941,3,2,1,,,,,,,,2,09,,,,,,,,,,,2,16.885,1,,,,,,-0.122222194,-0.233333376,1,0,0,16.8853,Basalt_rect,0,0,0,0,1,
63d2a4b549eb02187fd40092,TCR,2024-06-24_17h32.41.671,LearnStrategy,2023.2.3,Win32,58.82352941,3,2,2,,,,,,,,7,16,,,,,,,,,,,7,2.025,1,,,,,,0.165740755,-0.397222236,1,0,0,2.0251,Peridotite_rect,1,0,1,0,1,
63d2a4b549eb02187fd40092,TCR,2024-06-24_17h32.41.671,LearnStrategy,2023.2.3,Win32,58.82352941,3,2,3,,,,,,,,7,07,,,,,,,,,,,7,2.058,1,,,,,,0.138888889,-0.392592607,1,0,0,2.0581,Peridotite_rect,2,0,2,0,1,
63d2a4b549eb02187fd40092,TCR,2024-06-24_17h32.41.671,LearnStrategy,2023.2.3,Win32,58.82352941,3,2,4,,,,,,,,6,05,,,,,,,,,,,6,2.183,1,,,,,,-0.182407379,-0.378703718,1,0,0,2.1829,Pegmatite_rect,3,0,3,0,1,
63d2a4b549eb02187fd40092,TCR,2024-06-24_17h32.41.671,LearnStrategy,2023.2.3,Win32,58.82352941,3,2,5,,,,,,,,5,12,,,,,,,,,,,5,1.49,1,,,,,,-0.334259245,-0.380555541,1,0,0,1.4902,Obsidian_rect,4,0,4,0,1,
63d2a4b549eb02187fd40092,TCR,2024-06-24_17h32.41.671,LearnStrategy,2023.2.3,Win32,58.82352941,3,2,6,,,,,,,,6,12,,,,,,,,,,,1,7.565,0,,,,,,-0.342592593,-0.251851894,1,0,0,7.5652,Andesite_rect,5,0,5,0,1,
63d2a4b549eb02187fd40092,TCR,2024-06-24_17h32.41.671,LearnStrategy,2023.2.3,Win32,58.82352941,3,2,7,,,,,,,,1,16,,,,,,,,,,,4,22.656,0,,,,,,0.369444529,-0.264814801,1,0,0,22.656,Gabbro_rect,6,0,6,0,1,
63d2a4b549eb02187fd40092,TCR,2024-06-24_17h32.41.671,LearnStrategy,2023.2.3,Win32,58.82352941,3,2,8,,,,,,,,8,09,,,,,,,,,,,8,1.326,1,,,,,,0.376851824,-0.397222236,1,0,0,1.3261,Pumice_rect,7,0,7,0,1,
63d2a4b549eb02187fd40092,TCR,2024-06-24_17h32.41.671,LearnStrategy,2023.2.3,Win32,58.82352941,3,2,9,,,,,,,,5,06,,,,,,,,,,,5,2.485,1,,,,,,-0.380555541,-0.412037037,1,0,0,2.4849,Obsidian_rect,8,0,8,0,1,
63d2a4b549eb02187fd40092,TCR,2024-06-24_17h32.41.671,LearnStrategy,2023.2.3,Win32,58.82352941,3,2,10,,,,,,,,8,03,,,,,,,,,,,8,2.213,1,,,,,,0.380555612,-0.416666667,1,0,0,2.2126,Pumice_rect,9,0,9,0,1,
63d2a4b549eb02187fd40092,TCR,2024-06-24_17h32.41.671,LearnStrategy,2023.2.3,Win32,58.82352941,3,2,11,,,,,,,,2,01,,,,,,,,,,,2,13.724,1,,,,,,-0.04351849,-0.252777806,1,0,0,13.7238,Basalt_rect,10,0,10,0,1,
63d2a4b549eb02187fd40092,TCR,2024-06-24_17h32.41.671,LearnStrategy,2023.2.3,Win32,58.82352941,3,2,12,,,,,,,,4,10,,,,,,,,,,,4,14.929,1,,,,,,0.412037037,-0.252777806,1,0,0,14.9286,Gabbro_rect,11,0,11,0,1,
63d2a4b549eb02187fd40092,TCR,2024-06-24_17h32.41.671,LearnStrategy,2023.2.3,Win32,58.82352941,3,2,13,,,,,,,,4,03,,,,,,,,,,,1,11.121,0,,,,,,-0.344444452,-0.231481481,1,0,0,11.121,Andesite_rect,12,0,12,0,1,
63d2a4b549eb02187fd40092,TCR,2024-06-24_17h32.41.671,LearnStrategy,2023.2.3,Win32,58.82352941,3,2,14,,,,,,,,3,12,,,,,,,,,,,3,9.392,1,,,,,,0.110185199,-0.265740783,1,0,0,9.3916,Diorite_rect,13,0,13,0,1,
63d2a4b549eb02187fd40092,TCR,2024-06-24_17h32.41.671,LearnStrategy,2023.2.3,Win32,58.82352941,3,2,15,,,,,,,,1,01,,,,,,,,,,,1,10.659,1,,,,,,-0.311111097,-0.243518547,1,0,0,10.6592,Andesite_rect,14,0,14,0,1,
63d2a4b549eb02187fd40092,TCR,2024-06-24_17h32.41.671,LearnStrategy,2023.2.3,Win32,58.82352941,3,2,16,,,,,,,,3,11,,,,,,,,,,,3,8.833,1,,,,,,0.091666681,-0.235185199,1,0,0,8.8335,Diorite_rect,15,0,15,0,1,
63d2a4b549eb02187fd40092,TCR,2024-06-24_17h32.41.671,LearnStrategy,2023.2.3,Win32,58.82352941,4,1,1,-0.04814812,-0.015740748,1,0,0,4.6168,rock_grid_rect_2,3,16,-1,-1,4.617,-0.344444452,-0.25,1,0,0,19.483,Andesite_rect,1,19.483,0,0,0,0,0,1,,,,,,,,,,,,,
63d2a4b549eb02187fd40092,TCR,2024-06-24_17h32.41.671,LearnStrategy,2023.2.3,Win32,58.82352941,4,1,2,0.050000014,-0.006481489,1,0,0,0.8458,rock_grid_rect_2,1,05,-1,-1,0.846,-0.351851852,-0.228703746,1,0,0,3.3376,Andesite_rect,1,3.338,1,1,0,1,0,1,,,,,,,,,,,,,
63d2a4b549eb02187fd40092,TCR,2024-06-24_17h32.41.671,LearnStrategy,2023.2.3,Win32,58.82352941,4,1,3,0.071296339,0.000925912,1,0,0,0.7167,rock_grid_rect_2,4,14,-1,-1,0.717,0.349074046,-0.248148176,1,0,0,1.267,Gabbro_rect,4,1.267,1,2,0,2,0,1,,,,,,,,,,,,,
63d2a4b549eb02187fd40092,TCR,2024-06-24_17h32.41.671,LearnStrategy,2023.2.3,Win32,58.82352941,4,1,4,0.041666667,-0.002777771,1,0,0,0.9901,rock_grid_rect_2,6,03,-1,-1,0.99,-0.102777764,-0.39444443,1,0,0,1.7189,Pegmatite_rect,6,1.719,1,3,0,3,0,1,,,,,,,,,,,,,
63d2a4b549eb02187fd40092,TCR,2024-06-24_17h32.41.671,LearnStrategy,2023.2.3,Win32,58.82352941,4,1,5,-0.015740712,-0.0074074,1,0,0,0.7983,rock_grid_rect_2,1,05,-1,-1,0.798,-0.315740727,-0.248148176,1,0,0,7.7272,Andesite_rect,1,7.727,1,4,0,4,0,1,,,,,,,,,,,,,
63d2a4b549eb02187fd40092,TCR,2024-06-24_17h32.41.671,LearnStrategy,2023.2.3,Win32,58.82352941,4,1,6,0.046296296,0.013888889,1,0,0,4.3478,rock_grid_rect_2,2,12,-1,-1,4.348,-0.078703704,-0.255555541,1,0,0,2.6967,Basalt_rect,2,2.697,1,5,0,5,0,1,,,,,,,,,,,,,
63d2a4b549eb02187fd40092,TCR,2024-06-24_17h32.41.671,LearnStrategy,2023.2.3,Win32,58.82352941,4,1,7,0.027777778,-0.021296289,1,0,0,0.8956,rock_grid_rect_2,4,05,-1,-1,0.896,0.335185157,-0.260185171,1,0,0,1.5331,Gabbro_rect,4,1.533,1,6,0,6,0,1,,,,,,,,,,,,,
63d2a4b549eb02187fd40092,TCR,2024-06-24_17h32.41.671,LearnStrategy,2023.2.3,Win32,58.82352941,4,1,8,-0.002777735,-0.009259259,1,0,0,1.0804,rock_grid_rect_2,7,02,-1,-1,1.08,0.110185199,-0.396296325,1,0,0,1.3463,Peridotite_rect,7,1.346,1,7,0,7,0,1,,,,,,,,,,,,,
63d2a4b549eb02187fd40092,TCR,2024-06-24_17h32.41.671,LearnStrategy,2023.2.3,Win32,58.82352941,4,1,9,-0.022222236,-0.01666666,1,0,0,0.815,rock_grid_rect_2,1,10,-1,-1,0.815,-0.04814812,-0.253703718,1,0,0,1.9707,Basalt_rect,2,1.971,0,8,0,8,0,1,,,,,,,,,,,,,
63d2a4b549eb02187fd40092,TCR,2024-06-24_17h32.41.671,LearnStrategy,2023.2.3,Win32,58.82352941,4,1,10,0.011111153,-0.003703718,1,0,0,1,rock_grid_rect_2,5,02,-1,-1,1,-0.378703683,-0.381481524,1,0,0,1.0029,Obsidian_rect,5,1.003,1,9,0,9,0,1,,,,,,,,,,,,,
63d2a4b549eb02187fd40092,TCR,2024-06-24_17h32.41.671,LearnStrategy,2023.2.3,Win32,58.82352941,4,1,11,-0.015740712,-0.014814836,1,0,0,0.798,rock_grid_rect_2,6,03,-1,-1,0.798,-0.099074046,-0.39444443,1,0,0,1.7243,Pegmatite_rect,6,1.724,1,10,0,10,0,1,,,,,,,,,,,,,
63d2a4b549eb02187fd40092,TCR,2024-06-24_17h32.41.671,LearnStrategy,2023.2.3,Win32,58.82352941,4,1,12,-0.01944443,-0.015740748,1,0,0,0.6298,rock_grid_rect_2,8,05,-1,-1,0.63,0.343518575,-0.390740783,1,0,0,1.2499,Pumice_rect,8,1.25,1,11,0,11,0,1,,,,,,,,,,,,,
63d2a4b549eb02187fd40092,TCR,2024-06-24_17h32.41.671,LearnStrategy,2023.2.3,Win32,58.82352941,4,1,13,-0.008333347,-0.001851859,1,0,0,0.646,rock_grid_rect_2,1,10,-1,-1,0.646,-0.341666645,-0.258333347,1,0,0,2.0247,Andesite_rect,1,2.025,1,12,0,12,0,1,,,,,,,,,,,,,
63d2a4b549eb02187fd40092,TCR,2024-06-24_17h32.41.671,LearnStrategy,2023.2.3,Win32,58.82352941,4,1,14,-0.015740712,0.001851859,1,0,0,0.6894,rock_grid_rect_2,2,10,-1,-1,0.689,-0.099074046,-0.247222265,1,0,0,1.1659,Basalt_rect,2,1.166,1,13,0,13,0,1,,,,,,,,,,,,,
63d2a4b549eb02187fd40092,TCR,2024-06-24_17h32.41.671,LearnStrategy,2023.2.3,Win32,58.82352941,4,1,15,-0.012962977,-0.022222236,1,0,0,0.7373,rock_grid_rect_2,4,16,-1,-1,0.737,0.388888889,-0.266666695,1,0,0,1.9832,Gabbro_rect,4,1.983,1,14,0,14,0,1,,,,,,,,,,,,,
63d2a4b549eb02187fd40092,TCR,2024-06-24_17h32.41.671,LearnStrategy,2023.2.3,Win32,58.82352941,4,1,16,-0.010185171,-0.018518519,1,0,0,0.8959,rock_grid_rect_2,2,11,-1,-1,0.896,-0.074999986,-0.263888889,1,0,0,2.1533,Basalt_rect,2,2.153,1,15,0,15,0,1,,,,,,,,,,,,,
63d2a4b549eb02187fd40092,TCR,2024-06-24_17h32.41.671,LearnStrategy,2023.2.3,Win32,58.82352941,4,2,1,,,,,,,,2,05,,,,,,,,,,,2,2.87,1,,,,,,-0.090740698,-0.236111111,1,0,0,2.8698,Basalt_rect,0,0,0,0,1,
63d2a4b549eb02187fd40092,TCR,2024-06-24_17h32.41.671,LearnStrategy,2023.2.3,Win32,58.82352941,4,2,2,,,,,,,,1,04,,,,,,,,,,,1,20.199,1,,,,,,-0.395370377,-0.234259288,1,0,0,20.1992,Andesite_rect,1,0,1,0,1,
63d2a4b549eb02187fd40092,TCR,2024-06-24_17h32.41.671,LearnStrategy,2023.2.3,Win32,58.82352941,4,2,3,,,,,,,,5,10,,,,,,,,,,,5,1.43,1,,,,,,-0.371296282,-0.404629672,1,0,0,1.4297,Obsidian_rect,2,0,2,0,1,
63d2a4b549eb02187fd40092,TCR,2024-06-24_17h32.41.671,LearnStrategy,2023.2.3,Win32,58.82352941,4,2,4,,,,,,,,8,04,,,,,,,,,,,8,1.467,1,,,,,,0.372222194,-0.386111153,1,0,0,1.467,Pumice_rect,3,0,3,0,1,
63d2a4b549eb02187fd40092,TCR,2024-06-24_17h32.41.671,LearnStrategy,2023.2.3,Win32,58.82352941,4,2,5,,,,,,,,1,01,,,,,,,,,,,1,18.379,1,,,,,,-0.357407393,-0.242592635,1,0,0,18.3787,Andesite_rect,4,0,4,0,1,
63d2a4b549eb02187fd40092,TCR,2024-06-24_17h32.41.671,LearnStrategy,2023.2.3,Win32,58.82352941,4,2,6,,,,,,,,7,10,,,,,,,,,,,7,1.086,1,,,,,,0.139814801,-0.397222236,1,0,0,1.0856,Peridotite_rect,5,0,5,0,1,
63d2a4b549eb02187fd40092,TCR,2024-06-24_17h32.41.671,LearnStrategy,2023.2.3,Win32,58.82352941,4,2,7,,,,,,,,4,09,,,,,,,,,,,1,21.66,0,,,,,,-0.297222208,-0.234259288,1,0,0,21.6605,Andesite_rect,6,0,6,0,1,
63d2a4b549eb02187fd40092,TCR,2024-06-24_17h32.41.671,LearnStrategy,2023.2.3,Win32,58.82352941,4,2,8,,,,,,,,8,10,,,,,,,,,,,8,4.626,1,,,,,,0.350926011,-0.387962977,1,0,0,4.6258,Pumice_rect,7,0,7,0,1,
63d2a4b549eb02187fd40092,TCR,2024-06-24_17h32.41.671,LearnStrategy,2023.2.3,Win32,58.82352941,4,2,9,,,,,,,,3,14,,,,,,,,,,,3,8.412,1,,,,,,0.137962977,-0.24537037,1,0,0,8.4124,Diorite_rect,8,0,8,0,1,
63d2a4b549eb02187fd40092,TCR,2024-06-24_17h32.41.671,LearnStrategy,2023.2.3,Win32,58.82352941,4,2,10,,,,,,,,4,10,,,,,,,,,,,1,4.057,0,,,,,,-0.400000007,-0.255555541,1,0,0,4.0568,Andesite_rect,9,0,9,0,1,
63d2a4b549eb02187fd40092,TCR,2024-06-24_17h32.41.671,LearnStrategy,2023.2.3,Win32,58.82352941,4,2,11,,,,,,,,6,13,,,,,,,,,,,6,1.975,1,,,,,,-0.118518476,-0.37962963,1,0,0,1.9751,Pegmatite_rect,10,0,10,0,1,
63d2a4b549eb02187fd40092,TCR,2024-06-24_17h32.41.671,LearnStrategy,2023.2.3,Win32,58.82352941,4,2,12,,,,,,,,2,14,,,,,,,,,,,4,1.746,0,,,,,,0.338888945,-0.271296325,1,0,0,1.7457,Gabbro_rect,11,0,11,0,1,
63d2a4b549eb02187fd40092,TCR,2024-06-24_17h32.41.671,LearnStrategy,2023.2.3,Win32,58.82352941,4,2,13,,,,,,,,7,07,,,,,,,,,,,7,1.107,1,,,,,,0.087962963,-0.386111153,1,0,0,1.1069,Peridotite_rect,12,0,12,0,1,
63d2a4b549eb02187fd40092,TCR,2024-06-24_17h32.41.671,LearnStrategy,2023.2.3,Win32,58.82352941,4,2,14,,,,,,,,6,10,,,,,,,,,,,7,5.089,0,,,,,,0.140740783,-0.408333319,1,0,0,5.0887,Peridotite_rect,13,0,13,0,1,
63d2a4b549eb02187fd40092,TCR,2024-06-24_17h32.41.671,LearnStrategy,2023.2.3,Win32,58.82352941,4,2,15,,,,,,,,5,12,,,,,,,,,,,5,2.283,1,,,,,,-0.339814822,-0.378703718,1,0,0,2.2834,Obsidian_rect,14,0,14,0,1,
63d2a4b549eb02187fd40092,TCR,2024-06-24_17h32.41.671,LearnStrategy,2023.2.3,Win32,58.82352941,4,2,16,,,,,,,,3,12,,,,,,,,,,,3,3.011,1,,,,,,0.095370399,-0.237963005,1,0,0,3.0111,Diorite_rect,15,0,15,0,1,
63d2a4b549eb02187fd40092,TCR,2024-06-24_17h32.41.671,LearnStrategy,2023.2.3,Win32,58.82352941,5,1,1,0.042592578,-0.001851859,1,0,0,0.9599,rock_grid_rect_2,6,09,-1,-1,0.96,-0.130555541,-0.389814801,1,0,0,4.1839,Pegmatite_rect,6,4.184,1,0,0,0,0,1,,,,,,,,,,,,,
63d2a4b549eb02187fd40092,TCR,2024-06-24_17h32.41.671,LearnStrategy,2023.2.3,Win32,58.82352941,5,1,2,0.015740783,0.011111118,1,0,0,1.0432,rock_grid_rect_2,2,06,-1,-1,1.043,-0.098148134,-0.243518547,1,0,0,3.8522,Basalt_rect,2,3.852,1,1,0,1,0,1,,,,,,,,,,,,,
63d2a4b549eb02187fd40092,TCR,2024-06-24_17h32.41.671,LearnStrategy,2023.2.3,Win32,58.82352941,5,1,3,0.003703718,-0.010185206,1,0,0,1.2006,rock_grid_rect_2,4,12,-1,-1,1.201,0.320370427,-0.256481524,1,0,0,3.5477,Gabbro_rect,4,3.548,1,2,0,2,0,1,,,,,,,,,,,,,
63d2a4b549eb02187fd40092,TCR,2024-06-24_17h32.41.671,LearnStrategy,2023.2.3,Win32,58.82352941,5,1,4,0.023148148,-0.014814836,1,0,0,0.7267,rock_grid_rect_2,4,05,-1,-1,0.727,0.372222194,-0.267592607,1,0,0,1.5421,Gabbro_rect,4,1.542,1,3,0,3,0,1,,,,,,,,,,,,,
63d2a4b549eb02187fd40092,TCR,2024-06-24_17h32.41.671,LearnStrategy,2023.2.3,Win32,58.82352941,5,1,5,0.050000014,0.012962942,1,0,0,0.7256,rock_grid_rect_2,2,06,-1,-1,0.726,-0.086111069,-0.239814829,1,0,0,1.7188,Basalt_rect,2,1.719,1,4,0,4,0,1,,,,,,,,,,,,,
63d2a4b549eb02187fd40092,TCR,2024-06-24_17h32.41.671,LearnStrategy,2023.2.3,Win32,58.82352941,5,1,6,0.012962977,-0.01666666,1,0,0,0.7307,rock_grid_rect_2,6,07,-1,-1,0.731,-0.097222222,-0.382407436,1,0,0,1.8102,Pegmatite_rect,6,1.81,1,5,0,5,0,1,,,,,,,,,,,,,
63d2a4b549eb02187fd40092,TCR,2024-06-24_17h32.41.671,LearnStrategy,2023.2.3,Win32,58.82352941,5,1,7,0.035185213,-0.020370377,1,0,0,0.7126,rock_grid_rect_2,1,10,-1,-1,0.713,-0.071296268,-0.25,1,0,0,2.3381,Basalt_rect,2,2.338,0,6,0,6,0,1,,,,,,,,,,,,,
63d2a4b549eb02187fd40092,TCR,2024-06-24_17h32.41.671,LearnStrategy,2023.2.3,Win32,58.82352941,5,1,8,0.074999986,0.02407406,1,0,0,1.0708,rock_grid_rect_2,6,15,-1,-1,1.071,-0.10555557,-0.388888889,1,0,0,1.3441,Pegmatite_rect,6,1.344,1,7,0,7,0,1,,,,,,,,,,,,,
63d2a4b549eb02187fd40092,TCR,2024-06-24_17h32.41.671,LearnStrategy,2023.2.3,Win32,58.82352941,5,1,9,-0.02407406,-0.013888889,1,0,0,0.6951,rock_grid_rect_2,5,16,-1,-1,0.695,-0.40370369,-0.395370413,1,0,0,1.0895,Obsidian_rect,5,1.09,1,8,0,8,0,1,,,,,,,,,,,,,
63d2a4b549eb02187fd40092,TCR,2024-06-24_17h32.41.671,LearnStrategy,2023.2.3,Win32,58.82352941,5,1,10,0.061111097,-0.017592607,1,0,0,0.9825,rock_grid_rect_2,1,07,-1,-1,0.983,0.056481467,-0.252777806,1,0,0,3.6564,Diorite_rect,3,3.656,0,9,0,9,0,1,,,,,,,,,,,,,
63d2a4b549eb02187fd40092,TCR,2024-06-24_17h32.41.671,LearnStrategy,2023.2.3,Win32,58.82352941,5,1,11,0.00462963,-0.012962977,1,0,0,0.9095,rock_grid_rect_2,3,06,-1,-1,0.91,0.103703746,-0.249074088,1,0,0,2.0549,Diorite_rect,3,2.055,1,10,0,10,0,1,,,,,,,,,,,,,
63d2a4b549eb02187fd40092,TCR,2024-06-24_17h32.41.671,LearnStrategy,2023.2.3,Win32,58.82352941,5,1,12,0.061111097,0.008333312,1,0,0,0.8498,rock_grid_rect_2,2,16,-1,-1,0.85,-0.074999986,-0.250925912,1,0,0,2.0622,Basalt_rect,2,2.062,1,11,0,11,0,1,,,,,,,,,,,,,
63d2a4b549eb02187fd40092,TCR,2024-06-24_17h32.41.671,LearnStrategy,2023.2.3,Win32,58.82352941,5,1,13,-0.001851824,-0.019444466,1,0,0,0.9502,rock_grid_rect_2,4,16,-1,-1,0.95,0.359259288,-0.253703718,1,0,0,1.7186,Gabbro_rect,4,1.719,1,12,0,12,0,1,,,,,,,,,,,,,
63d2a4b549eb02187fd40092,TCR,2024-06-24_17h32.41.671,LearnStrategy,2023.2.3,Win32,58.82352941,5,1,14,-0.032407407,-0.021296289,1,0,0,0.7559,rock_grid_rect_2,8,06,-1,-1,0.756,0.45185188,-0.418518561,1,0,0,2.7899,Pumice_rect,8,2.79,1,13,0,13,0,1,,,,,,,,,,,,,
63d2a4b549eb02187fd40092,TCR,2024-06-24_17h32.41.671,LearnStrategy,2023.2.3,Win32,58.82352941,5,1,15,-0.005555541,-0.011111118,1,0,0,0.6761,rock_grid_rect_2,7,14,-1,-1,0.676,0.115740741,-0.39907406,1,0,0,1.2481,Peridotite_rect,7,1.248,1,14,0,14,0,1,,,,,,,,,,,,,
63d2a4b549eb02187fd40092,TCR,2024-06-24_17h32.41.671,LearnStrategy,2023.2.3,Win32,58.82352941,5,1,16,0.001851894,0.0074074,1,0,0,0.7348,rock_grid_rect_2,4,14,-1,-1,0.735,0.365740741,-0.257407436,1,0,0,1.3263,Gabbro_rect,4,1.326,1,15,0,15,0,1,,,,,,,,,,,,,
63d2a4b549eb02187fd40092,TCR,2024-06-24_17h32.41.671,LearnStrategy,2023.2.3,Win32,58.82352941,5,2,1,,,,,,,,5,07,,,,,,,,,,,5,1.458,1,,,,,,-0.351851852,-0.390740783,1,0,0,1.4579,Obsidian_rect,0,0,0,0,1,
63d2a4b549eb02187fd40092,TCR,2024-06-24_17h32.41.671,LearnStrategy,2023.2.3,Win32,58.82352941,5,2,2,,,,,,,,6,08,,,,,,,,,,,6,1.169,1,,,,,,-0.089814787,-0.389814801,1,0,0,1.1688,Pegmatite_rect,1,0,1,0,1,
63d2a4b549eb02187fd40092,TCR,2024-06-24_17h32.41.671,LearnStrategy,2023.2.3,Win32,58.82352941,5,2,3,,,,,,,,7,05,,,,,,,,,,,7,1.213,1,,,,,,0.059259273,-0.407407407,1,0,0,1.213,Peridotite_rect,2,0,2,0,1,
63d2a4b549eb02187fd40092,TCR,2024-06-24_17h32.41.671,LearnStrategy,2023.2.3,Win32,58.82352941,5,2,4,,,,,,,,2,02,,,,,,,,,,,2,2.784,1,,,,,,-0.086111069,-0.231481481,1,0,0,2.7843,Basalt_rect,3,0,3,0,1,
63d2a4b549eb02187fd40092,TCR,2024-06-24_17h32.41.671,LearnStrategy,2023.2.3,Win32,58.82352941,5,2,5,,,,,,,,2,08,,,,,,,,,,,2,4.044,1,,,,,,-0.092592593,-0.25,1,0,0,4.0441,Basalt_rect,4,0,4,0,1,
63d2a4b549eb02187fd40092,TCR,2024-06-24_17h32.41.671,LearnStrategy,2023.2.3,Win32,58.82352941,5,2,6,,,,,,,,3,10,,,,,,,,,,,3,2.717,1,,,,,,0.079629616,-0.25462963,1,0,0,2.7167,Diorite_rect,5,0,5,0,1,
63d2a4b549eb02187fd40092,TCR,2024-06-24_17h32.41.671,LearnStrategy,2023.2.3,Win32,58.82352941,5,2,7,,,,,,,,4,15,,,,,,,,,,,4,1.654,1,,,,,,0.375,-0.270370413,1,0,0,1.6539,Gabbro_rect,6,0,6,0,1,
63d2a4b549eb02187fd40092,TCR,2024-06-24_17h32.41.671,LearnStrategy,2023.2.3,Win32,58.82352941,5,2,8,,,,,,,,4,08,,,,,,,,,,,1,4.203,0,,,,,,-0.334259245,-0.250925912,1,0,0,4.203,Andesite_rect,7,0,7,0,1,
63d2a4b549eb02187fd40092,TCR,2024-06-24_17h32.41.671,LearnStrategy,2023.2.3,Win32,58.82352941,5,2,9,,,,,,,,5,09,,,,,,,,,,,5,1.213,1,,,,,,-0.324999986,-0.392592607,1,0,0,1.2133,Obsidian_rect,8,0,8,0,1,
63d2a4b549eb02187fd40092,TCR,2024-06-24_17h32.41.671,LearnStrategy,2023.2.3,Win32,58.82352941,5,2,10,,,,,,,,1,03,,,,,,,,,,,1,29.771,1,,,,,,-0.299999979,-0.242592635,1,0,0,29.7707,Andesite_rect,9,0,9,0,1,
63d2a4b549eb02187fd40092,TCR,2024-06-24_17h32.41.671,LearnStrategy,2023.2.3,Win32,58.82352941,5,2,11,,,,,,,,3,11,,,,,,,,,,,3,11.661,1,,,,,,0.132407436,-0.24537037,1,0,0,11.6614,Diorite_rect,10,0,10,0,1,
63d2a4b549eb02187fd40092,TCR,2024-06-24_17h32.41.671,LearnStrategy,2023.2.3,Win32,58.82352941,5,2,12,,,,,,,,1,14,,,,,,,,,,,6,9.613,0,,,,,,-0.115740741,-0.386111153,1,0,0,9.6131,Pegmatite_rect,11,0,11,0,1,
63d2a4b549eb02187fd40092,TCR,2024-06-24_17h32.41.671,LearnStrategy,2023.2.3,Win32,58.82352941,5,2,13,,,,,,,,8,03,,,,,,,,,,,8,1.614,1,,,,,,0.387037065,-0.413888931,1,0,0,1.6141,Pumice_rect,12,0,12,0,1,
63d2a4b549eb02187fd40092,TCR,2024-06-24_17h32.41.671,LearnStrategy,2023.2.3,Win32,58.82352941,5,2,14,,,,,,,,6,05,,,,,,,,,,,6,2.729,1,,,,,,-0.124074088,-0.37962963,1,0,0,2.7289,Pegmatite_rect,13,0,13,0,1,
63d2a4b549eb02187fd40092,TCR,2024-06-24_17h32.41.671,LearnStrategy,2023.2.3,Win32,58.82352941,5,2,15,,,,,,,,8,08,,,,,,,,,,,8,1.37,1,,,,,,0.37037037,-0.39444443,1,0,0,1.3699,Pumice_rect,14,0,14,0,1,
63d2a4b549eb02187fd40092,TCR,2024-06-24_17h32.41.671,LearnStrategy,2023.2.3,Win32,58.82352941,5,2,16,,,,,,,,7,16,,,,,,,,,,,7,1.654,1,,,,,,0.098148134,-0.391666695,1,0,0,1.6541,Peridotite_rect,15,0,15,0,1,
63d2a4b549eb02187fd40092,TCR,2024-06-24_17h32.41.671,LearnStrategy,2023.2.3,Win32,58.82352941,6,1,1,0.033333319,-0.01203703,1,0,0,2.9025,rock_grid_rect_2,4,14,-1,-1,2.903,0.402777778,-0.239814829,1,0,0,1.4093,Gabbro_rect,4,1.409,1,0,0,0,0,1,,,,,,,,,,,,,
63d2a4b549eb02187fd40092,TCR,2024-06-24_17h32.41.671,LearnStrategy,2023.2.3,Win32,58.82352941,6,1,2,0.012962977,-0.012962977,1,0,0,0.7305,rock_grid_rect_2,4,14,-1,-1,0.731,0.350926011,-0.260185171,1,0,0,1.175,Gabbro_rect,4,1.175,1,1,0,1,0,1,,,,,,,,,,,,,
63d2a4b549eb02187fd40092,TCR,2024-06-24_17h32.41.671,LearnStrategy,2023.2.3,Win32,58.82352941,6,1,3,0.109259288,-0.00462963,1,0,0,0.7237,rock_grid_rect_2,5,11,-1,-1,0.724,-0.372222229,-0.400000042,1,0,0,1.0128,Obsidian_rect,5,1.013,1,2,0,2,0,1,,,,,,,,,,,,,
63d2a4b549eb02187fd40092,TCR,2024-06-24_17h32.41.671,LearnStrategy,2023.2.3,Win32,58.82352941,6,1,4,0.054629644,-0.009259259,1,0,0,1.2658,rock_grid_rect_2,3,06,-1,-1,1.266,0.110185199,-0.270370413,1,0,0,4.5865,Diorite_rect,3,4.586,1,3,0,3,0,1,,,,,,,,,,,,,
63d2a4b549eb02187fd40092,TCR,2024-06-24_17h32.41.671,LearnStrategy,2023.2.3,Win32,58.82352941,6,1,5,0.025925954,-0.015740748,1,0,0,0.9474,rock_grid_rect_2,6,16,-1,-1,0.947,-0.109259217,-0.380555541,1,0,0,1.0739,Pegmatite_rect,6,1.074,1,4,0,4,0,1,,,,,,,,,,,,,
63d2a4b549eb02187fd40092,TCR,2024-06-24_17h32.41.671,LearnStrategy,2023.2.3,Win32,58.82352941,6,1,6,0.009259259,-0.012962977,1,0,0,0.7328,rock_grid_rect_2,7,06,-1,-1,0.733,0.118518547,-0.378703718,1,0,0,1.2559,Peridotite_rect,7,1.256,1,5,0,5,0,1,,,,,,,,,,,,,
63d2a4b549eb02187fd40092,TCR,2024-06-24_17h32.41.671,LearnStrategy,2023.2.3,Win32,58.82352941,6,1,7,-0.029629601,-0.020370377,1,0,0,0.7673,rock_grid_rect_2,4,01,-1,-1,0.767,0.340740769,-0.253703718,1,0,0,1.9871,Gabbro_rect,4,1.987,1,6,0,6,0,1,,,,,,,,,,,,,
63d2a4b549eb02187fd40092,TCR,2024-06-24_17h32.41.671,LearnStrategy,2023.2.3,Win32,58.82352941,6,1,8,0.023148148,-0.0074074,1,0,0,0.8796,rock_grid_rect_2,6,16,-1,-1,0.88,-0.126851824,-0.381481524,1,0,0,1.0849,Pegmatite_rect,6,1.085,1,7,0,7,0,1,,,,,,,,,,,,,
63d2a4b549eb02187fd40092,TCR,2024-06-24_17h32.41.671,LearnStrategy,2023.2.3,Win32,58.82352941,6,1,9,0.006481524,-0.018518519,1,0,0,0.7158,rock_grid_rect_2,2,11,-1,-1,0.716,-0.065740727,-0.25462963,1,0,0,1.8274,Basalt_rect,2,1.827,1,8,0,8,0,1,,,,,,,,,,,,,
63d2a4b549eb02187fd40092,TCR,2024-06-24_17h32.41.671,LearnStrategy,2023.2.3,Win32,58.82352941,6,1,10,0.020370413,-0.017592607,1,0,0,0.6966,rock_grid_rect_2,4,12,-1,-1,0.697,0.327777863,-0.264814801,1,0,0,4.73,Gabbro_rect,4,4.73,1,9,0,9,0,1,,,,,,,,,,,,,
63d2a4b549eb02187fd40092,TCR,2024-06-24_17h32.41.671,LearnStrategy,2023.2.3,Win32,58.82352941,6,1,11,0.036111125,-0.001851859,1,0,0,1.1734,rock_grid_rect_2,1,02,-1,-1,1.173,-0.322222215,-0.243518547,1,0,0,2.7997,Andesite_rect,1,2.8,1,10,0,10,0,1,,,,,,,,,,,,,
63d2a4b549eb02187fd40092,TCR,2024-06-24_17h32.41.671,LearnStrategy,2023.2.3,Win32,58.82352941,6,1,12,0.02870369,0.009259259,1,0,0,0.6916,rock_grid_rect_2,8,15,-1,-1,0.692,0.343518575,-0.387962977,1,0,0,1.8451,Pumice_rect,8,1.845,1,11,0,11,0,1,,,,,,,,,,,,,
63d2a4b549eb02187fd40092,TCR,2024-06-24_17h32.41.671,LearnStrategy,2023.2.3,Win32,58.82352941,6,1,13,-0.003703718,-0.020370377,1,0,0,0.6816,rock_grid_rect_2,1,07,-1,-1,0.682,0.094444487,-0.242592635,1,0,0,1.6325,Diorite_rect,3,1.632,0,12,0,12,0,1,,,,,,,,,,,,,
63d2a4b549eb02187fd40092,TCR,2024-06-24_17h32.41.671,LearnStrategy,2023.2.3,Win32,58.82352941,6,1,14,-0.04351849,-0.005555577,1,0,0,1.1892,rock_grid_rect_2,4,05,-1,-1,1.189,0.350000028,-0.235185199,1,0,0,1.371,Gabbro_rect,4,1.371,1,13,0,13,0,1,,,,,,,,,,,,,
63d2a4b549eb02187fd40092,TCR,2024-06-24_17h32.41.671,LearnStrategy,2023.2.3,Win32,58.82352941,6,1,15,0.062037079,-0.018518519,1,0,0,1.2385,rock_grid_rect_2,1,09,-1,-1,1.238,-0.302777785,-0.240740741,1,0,0,3.4695,Andesite_rect,1,3.47,1,14,0,14,0,1,,,,,,,,,,,,,
63d2a4b549eb02187fd40092,TCR,2024-06-24_17h32.41.671,LearnStrategy,2023.2.3,Win32,58.82352941,6,1,16,0.063888903,0.008333312,1,0,0,0.64,rock_grid_rect_2,2,11,-1,-1,0.64,-0.050925926,-0.243518547,1,0,0,1.6667,Basalt_rect,2,1.667,1,15,0,15,0,1,,,,,,,,,,,,,
63d2a4b549eb02187fd40092,TCR,2024-06-24_17h32.41.671,LearnStrategy,2023.2.3,Win32,58.82352941,6,2,1,,,,,,,,8,16,,,,,,,,,,,8,5.619,1,,,,,,0.337962963,-0.412037037,1,0,0,5.6187,Pumice_rect,0,0,0,0,1,
63d2a4b549eb02187fd40092,TCR,2024-06-24_17h32.41.671,LearnStrategy,2023.2.3,Win32,58.82352941,6,2,2,,,,,,,,1,16,,,,,,,,,,,1,6.945,1,,,,,,-0.395370377,-0.247222265,1,0,0,6.9452,Andesite_rect,1,0,1,0,1,
63d2a4b549eb02187fd40092,TCR,2024-06-24_17h32.41.671,LearnStrategy,2023.2.3,Win32,58.82352941,6,2,3,,,,,,,,8,09,,,,,,,,,,,8,1.262,1,,,,,,0.330555527,-0.407407407,1,0,0,1.262,Pumice_rect,2,0,2,0,1,
63d2a4b549eb02187fd40092,TCR,2024-06-24_17h32.41.671,LearnStrategy,2023.2.3,Win32,58.82352941,6,2,4,,,,,,,,4,13,,,,,,,,,,,4,1.363,1,,,,,,0.35555564,-0.248148176,1,0,0,1.3626,Gabbro_rect,3,0,3,0,1,
63d2a4b549eb02187fd40092,TCR,2024-06-24_17h32.41.671,LearnStrategy,2023.2.3,Win32,58.82352941,6,2,5,,,,,,,,3,08,,,,,,,,,,,3,1.887,1,,,,,,0.14907406,-0.239814829,1,0,0,1.8872,Diorite_rect,4,0,4,0,1,
63d2a4b549eb02187fd40092,TCR,2024-06-24_17h32.41.671,LearnStrategy,2023.2.3,Win32,58.82352941,6,2,6,,,,,,,,3,13,,,,,,,,,,,3,2.094,1,,,,,,0.111111111,-0.239814829,1,0,0,2.0943,Diorite_rect,5,0,5,0,1,
63d2a4b549eb02187fd40092,TCR,2024-06-24_17h32.41.671,LearnStrategy,2023.2.3,Win32,58.82352941,6,2,7,,,,,,,,7,08,,,,,,,,,,,7,1.221,1,,,,,,0.094444487,-0.400000042,1,0,0,1.2212,Peridotite_rect,6,0,6,0,1,
63d2a4b549eb02187fd40092,TCR,2024-06-24_17h32.41.671,LearnStrategy,2023.2.3,Win32,58.82352941,6,2,8,,,,,,,,2,01,,,,,,,,,,,2,1.277,1,,,,,,-0.074999986,-0.265740783,1,0,0,1.2769,Basalt_rect,7,0,7,0,1,
63d2a4b549eb02187fd40092,TCR,2024-06-24_17h32.41.671,LearnStrategy,2023.2.3,Win32,58.82352941,6,2,9,,,,,,,,6,11,,,,,,,,,,,6,1.605,1,,,,,,-0.12037037,-0.396296325,1,0,0,1.6053,Pegmatite_rect,8,0,8,0,1,
63d2a4b549eb02187fd40092,TCR,2024-06-24_17h32.41.671,LearnStrategy,2023.2.3,Win32,58.82352941,6,2,10,,,,,,,,6,12,,,,,,,,,,,1,20.054,0,,,,,,-0.312037044,-0.25462963,1,0,0,20.0539,Andesite_rect,9,0,9,0,1,
63d2a4b549eb02187fd40092,TCR,2024-06-24_17h32.41.671,LearnStrategy,2023.2.3,Win32,58.82352941,6,2,11,,,,,,,,7,15,,,,,,,,,,,7,1.568,1,,,,,,0.092592593,-0.397222236,1,0,0,1.5681,Peridotite_rect,10,0,10,0,1,
63d2a4b549eb02187fd40092,TCR,2024-06-24_17h32.41.671,LearnStrategy,2023.2.3,Win32,58.82352941,6,2,12,,,,,,,,4,03,,,,,,,,,,,4,9.246,1,,,,,,0.454629686,-0.248148176,1,0,0,9.2458,Gabbro_rect,11,0,11,0,1,
63d2a4b549eb02187fd40092,TCR,2024-06-24_17h32.41.671,LearnStrategy,2023.2.3,Win32,58.82352941,6,2,13,,,,,,,,1,06,,,,,,,,,,,1,3.643,1,,,,,,-0.340740734,-0.239814829,1,0,0,3.6433,Andesite_rect,12,0,12,0,1,
63d2a4b549eb02187fd40092,TCR,2024-06-24_17h32.41.671,LearnStrategy,2023.2.3,Win32,58.82352941,6,2,14,,,,,,,,2,09,,,,,,,,,,,2,2.478,1,,,,,,-0.085185157,-0.247222265,1,0,0,2.478,Basalt_rect,13,0,13,0,1,
63d2a4b549eb02187fd40092,TCR,2024-06-24_17h32.41.671,LearnStrategy,2023.2.3,Win32,58.82352941,6,2,15,,,,,,,,5,05,,,,,,,,,,,5,1.491,1,,,,,,-0.329629616,-0.386111153,1,0,0,1.491,Obsidian_rect,14,0,14,0,1,
63d2a4b549eb02187fd40092,TCR,2024-06-24_17h32.41.671,LearnStrategy,2023.2.3,Win32,58.82352941,6,2,16,,,,,,,,5,06,,,,,,,,,,,5,1.258,1,,,,,,-0.338888875,-0.396296325,1,0,0,1.2581,Obsidian_rect,15,0,15,0,1,
63d2a4b549eb02187fd40092,TCR,2024-06-24_17h32.41.671,LearnStrategy,2023.2.3,Win32,58.82352941,7,1,1,-0.003703718,0.01944443,1,0,0,1.2119,rock_grid_rect_2,5,08,-1,-1,1.212,-0.345370363,-0.402777778,1,0,0,2.6832,Obsidian_rect,5,2.683,1,0,0,0,0,1,,,,,,,,,,,,,
63d2a4b549eb02187fd40092,TCR,2024-06-24_17h32.41.671,LearnStrategy,2023.2.3,Win32,58.82352941,7,1,2,-0.033333319,-0.018518519,1,0,0,0.798,rock_grid_rect_2,1,02,-1,-1,0.798,-0.343518504,-0.250925912,1,0,0,6.3727,Andesite_rect,1,6.373,1,1,0,1,0,1,,,,,,,,,,,,,
63d2a4b549eb02187fd40092,TCR,2024-06-24_17h32.41.671,LearnStrategy,2023.2.3,Win32,58.82352941,7,1,3,-0.017592607,-0.012962977,1,0,0,1.1496,rock_grid_rect_2,7,12,-1,-1,1.15,0.115740741,-0.393518519,1,0,0,1.1591,Peridotite_rect,7,1.159,1,2,0,2,0,1,,,,,,,,,,,,,
63d2a4b549eb02187fd40092,TCR,2024-06-24_17h32.41.671,LearnStrategy,2023.2.3,Win32,58.82352941,7,1,4,-0.022222236,-0.003703718,1,0,0,0.7323,rock_grid_rect_2,4,16,-1,-1,0.732,0.391666695,-0.258333347,1,0,0,2.13,Gabbro_rect,4,2.13,1,3,0,3,0,1,,,,,,,,,,,,,
63d2a4b549eb02187fd40092,TCR,2024-06-24_17h32.41.671,LearnStrategy,2023.2.3,Win32,58.82352941,7,1,5,-0.046296296,-0.023148148,1,0,0,0.7302,rock_grid_rect_2,4,01,-1,-1,0.73,0.362962935,-0.248148176,1,0,0,2.3965,Gabbro_rect,4,2.397,1,4,0,4,0,1,,,,,,,,,,,,,
63d2a4b549eb02187fd40092,TCR,2024-06-24_17h32.41.671,LearnStrategy,2023.2.3,Win32,58.82352941,7,1,6,-0.047222208,-0.019444466,1,0,0,0.7824,rock_grid_rect_2,2,11,-1,-1,0.782,-0.064814815,-0.25462963,1,0,0,1.4225,Basalt_rect,2,1.423,1,5,0,5,0,1,,,,,,,,,,,,,
63d2a4b549eb02187fd40092,TCR,2024-06-24_17h32.41.671,LearnStrategy,2023.2.3,Win32,58.82352941,7,1,7,0.010185171,-0.020370377,1,0,0,0.7176,rock_grid_rect_2,6,15,-1,-1,0.718,-0.10555557,-0.39444443,1,0,0,1.8117,Pegmatite_rect,6,1.812,1,6,0,6,0,1,,,,,,,,,,,,,
63d2a4b549eb02187fd40092,TCR,2024-06-24_17h32.41.671,LearnStrategy,2023.2.3,Win32,58.82352941,7,1,8,-0.008333347,-0.00462963,1,0,0,0.5789,rock_grid_rect_2,2,12,-1,-1,0.579,-0.062037009,-0.248148176,1,0,0,2.1292,Basalt_rect,2,2.129,1,7,0,7,0,1,,,,,,,,,,,,,
63d2a4b549eb02187fd40092,TCR,2024-06-24_17h32.41.671,LearnStrategy,2023.2.3,Win32,58.82352941,7,1,9,-0.029629601,-0.0074074,1,0,0,0.6951,rock_grid_rect_2,1,09,-1,-1,0.695,-0.337037016,-0.248148176,1,0,0,2.1746,Andesite_rect,1,2.175,1,8,0,8,0,1,,,,,,,,,,,,,
63d2a4b549eb02187fd40092,TCR,2024-06-24_17h32.41.671,LearnStrategy,2023.2.3,Win32,58.82352941,7,1,10,-0.053703661,-0.011111118,1,0,0,0.7857,rock_grid_rect_2,4,01,-1,-1,0.786,0.387963048,-0.262962977,1,0,0,1.1941,Gabbro_rect,4,1.194,1,9,0,9,0,1,,,,,,,,,,,,,
63d2a4b549eb02187fd40092,TCR,2024-06-24_17h32.41.671,LearnStrategy,2023.2.3,Win32,58.82352941,7,1,11,-0.029629601,-0.015740748,1,0,0,0.8645,rock_grid_rect_2,4,14,-1,-1,0.864,0.329629686,-0.260185171,1,0,0,2.2953,Gabbro_rect,4,2.295,1,10,0,10,0,1,,,,,,,,,,,,,
63d2a4b549eb02187fd40092,TCR,2024-06-24_17h32.41.671,LearnStrategy,2023.2.3,Win32,58.82352941,7,1,12,0.018518519,-0.015740748,1,0,0,0.7836,rock_grid_rect_2,6,09,-1,-1,0.784,-0.088888875,-0.384259259,1,0,0,1.5302,Pegmatite_rect,6,1.53,1,11,0,11,0,1,,,,,,,,,,,,,
63d2a4b549eb02187fd40092,TCR,2024-06-24_17h32.41.671,LearnStrategy,2023.2.3,Win32,58.82352941,7,1,13,-0.003703718,-0.019444466,1,0,0,0.8651,rock_grid_rect_2,3,09,-1,-1,0.865,0.074999986,-0.247222265,1,0,0,1.2347,Diorite_rect,3,1.235,1,12,0,12,0,1,,,,,,,,,,,,,
63d2a4b549eb02187fd40092,TCR,2024-06-24_17h32.41.671,LearnStrategy,2023.2.3,Win32,58.82352941,7,1,14,0.002777806,-0.01203703,1,0,0,0.7487,rock_grid_rect_2,8,13,-1,-1,0.749,0.336111139,-0.411111125,1,0,0,1.3218,Pumice_rect,8,1.322,1,13,0,13,0,1,,,,,,,,,,,,,
63d2a4b549eb02187fd40092,TCR,2024-06-24_17h32.41.671,LearnStrategy,2023.2.3,Win32,58.82352941,7,1,15,0.001851894,-0.01203703,1,0,0,0.7494,rock_grid_rect_2,1,11,-1,-1,0.749,-0.361111111,-0.261111153,1,0,0,2.3247,Andesite_rect,1,2.325,1,14,0,14,0,1,,,,,,,,,,,,,
63d2a4b549eb02187fd40092,TCR,2024-06-24_17h32.41.671,LearnStrategy,2023.2.3,Win32,58.82352941,7,1,16,-0.042592578,-0.01666666,1,0,0,0.6494,rock_grid_rect_2,6,09,-1,-1,0.649,-0.095370328,-0.412037037,1,0,0,1.0725,Pegmatite_rect,6,1.072,1,15,0,15,0,1,,,,,,,,,,,,,
63d2a4b549eb02187fd40092,TCR,2024-06-24_17h32.41.671,LearnStrategy,2023.2.3,Win32,58.82352941,7,2,1,,,,,,,,6,12,,,,,,,,,,,1,11.442,0,,,,,,-0.371296282,-0.240740741,1,0,0,11.4417,Andesite_rect,0,0,0,0,1,
63d2a4b549eb02187fd40092,TCR,2024-06-24_17h32.41.671,LearnStrategy,2023.2.3,Win32,58.82352941,7,2,2,,,,,,,,4,08,,,,,,,,,,,1,4.586,0,,,,,,-0.327777757,-0.249074088,1,0,0,4.5859,Andesite_rect,1,0,1,0,1,
63d2a4b549eb02187fd40092,TCR,2024-06-24_17h32.41.671,LearnStrategy,2023.2.3,Win32,58.82352941,7,2,3,,,,,,,,1,14,,,,,,,,,,,1,6.537,1,,,,,,-0.371296282,-0.253703718,1,0,0,6.5366,Andesite_rect,2,0,2,0,1,
63d2a4b549eb02187fd40092,TCR,2024-06-24_17h32.41.671,LearnStrategy,2023.2.3,Win32,58.82352941,7,2,4,,,,,,,,5,07,,,,,,,,,,,6,3.615,0,,,,,,-0.161111125,-0.398148148,1,0,0,3.6151,Pegmatite_rect,3,0,3,0,1,
63d2a4b549eb02187fd40092,TCR,2024-06-24_17h32.41.671,LearnStrategy,2023.2.3,Win32,58.82352941,7,2,5,,,,,,,,7,15,,,,,,,,,,,7,1.133,1,,,,,,0.106481481,-0.407407407,1,0,0,1.1328,Peridotite_rect,4,0,4,0,1,
63d2a4b549eb02187fd40092,TCR,2024-06-24_17h32.41.671,LearnStrategy,2023.2.3,Win32,58.82352941,7,2,6,,,,,,,,7,05,,,,,,,,,,,7,1.223,1,,,,,,0.094444487,-0.39907406,1,0,0,1.2227,Peridotite_rect,5,0,5,0,1,
63d2a4b549eb02187fd40092,TCR,2024-06-24_17h32.41.671,LearnStrategy,2023.2.3,Win32,58.82352941,7,2,7,,,,,,,,8,03,,,,,,,,,,,8,1.339,1,,,,,,0.369444529,-0.392592607,1,0,0,1.3386,Pumice_rect,6,0,6,0,1,
63d2a4b549eb02187fd40092,TCR,2024-06-24_17h32.41.671,LearnStrategy,2023.2.3,Win32,58.82352941,7,2,8,,,,,,,,3,08,,,,,,,,,,,3,1.392,1,,,,,,0.140740783,-0.263888889,1,0,0,1.3921,Diorite_rect,7,0,7,0,1,
63d2a4b549eb02187fd40092,TCR,2024-06-24_17h32.41.671,LearnStrategy,2023.2.3,Win32,58.82352941,7,2,9,,,,,,,,4,10,,,,,,,,,,,1,1.696,0,,,,,,-0.376851859,-0.248148176,1,0,0,1.696,Andesite_rect,8,0,8,0,1,
63d2a4b549eb02187fd40092,TCR,2024-06-24_17h32.41.671,LearnStrategy,2023.2.3,Win32,58.82352941,7,2,10,,,,,,,,5,12,,,,,,,,,,,5,1.087,1,,,,,,-0.339814822,-0.383333347,1,0,0,1.087,Obsidian_rect,9,0,9,0,1,
63d2a4b549eb02187fd40092,TCR,2024-06-24_17h32.41.671,LearnStrategy,2023.2.3,Win32,58.82352941,7,2,11,,,,,,,,6,05,,,,,,,,,,,6,1.554,1,,,,,,-0.137036995,-0.385185171,1,0,0,1.5543,Pegmatite_rect,10,0,10,0,1,
63d2a4b549eb02187fd40092,TCR,2024-06-24_17h32.41.671,LearnStrategy,2023.2.3,Win32,58.82352941,7,2,12,,,,,,,,2,05,,,,,,,,,,,2,1.172,1,,,,,,-0.118518476,-0.233333376,1,0,0,1.1718,Basalt_rect,11,0,11,0,1,
63d2a4b549eb02187fd40092,TCR,2024-06-24_17h32.41.671,LearnStrategy,2023.2.3,Win32,58.82352941,7,2,13,,,,,,,,8,08,,,,,,,,,,,8,2.099,1,,,,,,0.338888945,-0.398148148,1,0,0,2.0985,Pumice_rect,12,0,12,0,1,
63d2a4b549eb02187fd40092,TCR,2024-06-24_17h32.41.671,LearnStrategy,2023.2.3,Win32,58.82352941,7,2,14,,,,,,,,2,01,,,,,,,,,,,2,1.516,1,,,,,,-0.087962963,-0.228703746,1,0,0,1.5157,Basalt_rect,13,0,13,0,1,
63d2a4b549eb02187fd40092,TCR,2024-06-24_17h32.41.671,LearnStrategy,2023.2.3,Win32,58.82352941,7,2,15,,,,,,,,1,04,,,,,,,,,,,1,2.515,1,,,,,,-0.324074074,-0.248148176,1,0,0,2.5147,Andesite_rect,14,0,14,0,1,
63d2a4b549eb02187fd40092,TCR,2024-06-24_17h32.41.671,LearnStrategy,2023.2.3,Win32,58.82352941,7,2,16,,,,,,,,3,14,,,,,,,,,,,3,1.099,1,,,,,,0.091666681,-0.242592635,1,0,0,1.0986,Diorite_rect,15,0,15,0,1,
63d2a4b549eb02187fd40092,TCR,2024-06-24_17h32.41.671,LearnStrategy,2023.2.3,Win32,58.82352941,8,1,1,-0.021296254,-0.003703718,1,0,0,0.9158,rock_grid_rect_2,6,16,-1,-1,0.916,-0.115740741,-0.389814801,1,0,0,1.6032,Pegmatite_rect,6,1.603,1,0,0,0,0,1,,,,,,,,,,,,,
63d2a4b549eb02187fd40092,TCR,2024-06-24_17h32.41.671,LearnStrategy,2023.2.3,Win32,58.82352941,8,1,2,-0.011111083,-0.021296289,1,0,0,0.6961,rock_grid_rect_2,8,15,-1,-1,0.696,0.400925954,-0.413888931,1,0,0,1.0323,Pumice_rect,8,1.032,1,1,0,1,0,1,,,,,,,,,,,,,
63d2a4b549eb02187fd40092,TCR,2024-06-24_17h32.41.671,LearnStrategy,2023.2.3,Win32,58.82352941,8,1,3,0.003703718,-0.020370377,1,0,0,0.594,rock_grid_rect_2,5,02,-1,-1,0.594,-0.37037037,-0.388888889,1,0,0,0.9661,Obsidian_rect,5,0.966,1,2,0,2,0,1,,,,,,,,,,,,,
63d2a4b549eb02187fd40092,TCR,2024-06-24_17h32.41.671,LearnStrategy,2023.2.3,Win32,58.82352941,8,1,4,-0.006481453,-0.017592607,1,0,0,0.6645,rock_grid_rect_2,4,14,-1,-1,0.664,0.48055564,-0.255555541,1,0,0,1.1497,Gabbro_rect,4,1.15,1,3,0,3,0,1,,,,,,,,,,,,,
63d2a4b549eb02187fd40092,TCR,2024-06-24_17h32.41.671,LearnStrategy,2023.2.3,Win32,58.82352941,8,1,5,0,-0.01203703,1,0,0,0.599,rock_grid_rect_2,3,09,-1,-1,0.599,0.102777764,-0.242592635,1,0,0,0.8978,Diorite_rect,3,0.898,1,4,0,4,0,1,,,,,,,,,,,,,
63d2a4b549eb02187fd40092,TCR,2024-06-24_17h32.41.671,LearnStrategy,2023.2.3,Win32,58.82352941,8,1,6,0.032407407,-0.008333347,1,0,0,0.6828,rock_grid_rect_2,4,12,-1,-1,0.683,0.470370399,-0.248148176,1,0,0,1.8682,Gabbro_rect,4,1.868,1,5,0,5,0,1,,,,,,,,,,,,,
63d2a4b549eb02187fd40092,TCR,2024-06-24_17h32.41.671,LearnStrategy,2023.2.3,Win32,58.82352941,8,1,7,0.027777778,-0.018518519,1,0,0,0.6637,rock_grid_rect_2,6,03,-1,-1,0.664,-0.075925898,-0.406481496,1,0,0,1.6205,Pegmatite_rect,6,1.62,1,6,0,6,0,1,,,,,,,,,,,,,
63d2a4b549eb02187fd40092,TCR,2024-06-24_17h32.41.671,LearnStrategy,2023.2.3,Win32,58.82352941,8,1,8,0.002777806,-0.002777771,1,0,0,1.2305,rock_grid_rect_2,4,16,-1,-1,1.231,0.458333333,-0.260185171,1,0,0,1.2347,Gabbro_rect,4,1.235,1,7,0,7,0,1,,,,,,,,,,,,,
63d2a4b549eb02187fd40092,TCR,2024-06-24_17h32.41.671,LearnStrategy,2023.2.3,Win32,58.82352941,8,1,9,-0.001851824,-0.011111118,1,0,0,0.6152,rock_grid_rect_2,4,05,-1,-1,0.615,0.375,-0.234259288,1,0,0,1.2591,Gabbro_rect,4,1.259,1,8,0,8,0,1,,,,,,,,,,,,,
63d2a4b549eb02187fd40092,TCR,2024-06-24_17h32.41.671,LearnStrategy,2023.2.3,Win32,58.82352941,8,1,10,0.012962977,-0.014814836,1,0,0,0.9868,rock_grid_rect_2,1,07,-1,-1,0.987,-0.337037016,-0.250925912,1,0,0,2.9359,Andesite_rect,1,2.936,1,9,0,9,0,1,,,,,,,,,,,,,
63d2a4b549eb02187fd40092,TCR,2024-06-24_17h32.41.671,LearnStrategy,2023.2.3,Win32,58.82352941,8,1,11,-0.01944443,-0.01666666,1,0,0,0.646,rock_grid_rect_2,1,02,-1,-1,0.646,-0.323148127,-0.262962977,1,0,0,2.5165,Andesite_rect,1,2.517,1,10,0,10,0,1,,,,,,,,,,,,,
63d2a4b549eb02187fd40092,TCR,2024-06-24_17h32.41.671,LearnStrategy,2023.2.3,Win32,58.82352941,8,1,12,-0.066666638,-0.012962977,1,0,0,0.6173,rock_grid_rect_2,4,16,-1,-1,0.617,0.323148233,-0.261111153,1,0,0,1.0786,Gabbro_rect,4,1.079,1,11,0,11,0,1,,,,,,,,,,,,,
63d2a4b549eb02187fd40092,TCR,2024-06-24_17h32.41.671,LearnStrategy,2023.2.3,Win32,58.82352941,8,1,13,-0.013888889,-0.012962977,1,0,0,0.6973,rock_grid_rect_2,6,16,-1,-1,0.697,-0.140740712,-0.39907406,1,0,0,0.9813,Pegmatite_rect,6,0.981,1,12,0,12,0,1,,,,,,,,,,,,,
63d2a4b549eb02187fd40092,TCR,2024-06-24_17h32.41.671,LearnStrategy,2023.2.3,Win32,58.82352941,8,1,14,0.029629672,0.010185171,1,0,0,0.7123,rock_grid_rect_2,7,06,-1,-1,0.712,0.094444487,-0.384259259,1,0,0,1.0536,Peridotite_rect,7,1.054,1,13,0,13,0,1,,,,,,,,,,,,,
63d2a4b549eb02187fd40092,TCR,2024-06-24_17h32.41.671,LearnStrategy,2023.2.3,Win32,58.82352941,8,1,15,-0.000925912,-0.010185206,1,0,0,0.7476,rock_grid_rect_2,2,04,-1,-1,0.748,-0.123148106,-0.259259259,1,0,0,1.0545,Basalt_rect,2,1.054,1,14,0,14,0,1,,,,,,,,,,,,,
63d2a4b549eb02187fd40092,TCR,2024-06-24_17h32.41.671,LearnStrategy,2023.2.3,Win32,58.82352941,8,1,16,0.013888889,-0.012962977,1,0,0,0.6794,rock_grid_rect_2,5,16,-1,-1,0.679,-0.405555548,-0.385185171,1,0,0,0.9837,Obsidian_rect,5,0.984,1,15,0,15,0,1,,,,,,,,,,,,,
63d2a4b549eb02187fd40092,TCR,2024-06-24_17h32.41.671,LearnStrategy,2023.2.3,Win32,58.82352941,8,2,1,,,,,,,,2,14,,,,,,,,,,,4,1.504,0,,,,,,0.342592593,-0.235185199,1,0,0,1.5044,Gabbro_rect,0,0,0,0,1,
63d2a4b549eb02187fd40092,TCR,2024-06-24_17h32.41.671,LearnStrategy,2023.2.3,Win32,58.82352941,8,2,2,,,,,,,,1,03,,,,,,,,,,,1,1.605,1,,,,,,-0.326851845,-0.25,1,0,0,1.6052,Andesite_rect,1,0,1,0,1,
63d2a4b549eb02187fd40092,TCR,2024-06-24_17h32.41.671,LearnStrategy,2023.2.3,Win32,58.82352941,8,2,3,,,,,,,,8,16,,,,,,,,,,,8,3.503,1,,,,,,0.397222307,-0.415740755,1,0,0,3.5026,Pumice_rect,2,0,2,0,1,
63d2a4b549eb02187fd40092,TCR,2024-06-24_17h32.41.671,LearnStrategy,2023.2.3,Win32,58.82352941,8,2,4,,,,,,,,3,12,,,,,,,,,,,3,1.253,1,,,,,,0.088888875,-0.234259288,1,0,0,1.2533,Diorite_rect,3,0,3,0,1,
63d2a4b549eb02187fd40092,TCR,2024-06-24_17h32.41.671,LearnStrategy,2023.2.3,Win32,58.82352941,8,2,5,,,,,,,,7,07,,,,,,,,,,,7,1.706,1,,,,,,0.10555557,-0.416666667,1,0,0,1.706,Peridotite_rect,4,0,4,0,1,
63d2a4b549eb02187fd40092,TCR,2024-06-24_17h32.41.671,LearnStrategy,2023.2.3,Win32,58.82352941,8,2,6,,,,,,,,4,13,,,,,,,,,,,4,0.974,1,,,,,,0.381481453,-0.258333347,1,0,0,0.9744,Gabbro_rect,5,0,5,0,1,
63d2a4b549eb02187fd40092,TCR,2024-06-24_17h32.41.671,LearnStrategy,2023.2.3,Win32,58.82352941,8,2,7,,,,,,,,5,05,,,,,,,,,,,5,1.425,1,,,,,,-0.345370363,-0.392592607,1,0,0,1.4245,Obsidian_rect,6,0,6,0,1,
63d2a4b549eb02187fd40092,TCR,2024-06-24_17h32.41.671,LearnStrategy,2023.2.3,Win32,58.82352941,8,2,8,,,,,,,,4,15,,,,,,,,,,,4,1.323,1,,,,,,0.341666751,-0.25,1,0,0,1.3227,Gabbro_rect,7,0,7,0,1,
63d2a4b549eb02187fd40092,TCR,2024-06-24_17h32.41.671,LearnStrategy,2023.2.3,Win32,58.82352941,8,2,9,,,,,,,,5,09,,,,,,,,,,,5,1.085,1,,,,,,-0.331481474,-0.390740783,1,0,0,1.0848,Obsidian_rect,8,0,8,0,1,
63d2a4b549eb02187fd40092,TCR,2024-06-24_17h32.41.671,LearnStrategy,2023.2.3,Win32,58.82352941,8,2,10,,,,,,,,8,04,,,,,,,,,,,8,1.223,1,,,,,,0.318518603,-0.384259259,1,0,0,1.2231,Pumice_rect,9,0,9,0,1,
63d2a4b549eb02187fd40092,TCR,2024-06-24_17h32.41.671,LearnStrategy,2023.2.3,Win32,58.82352941,8,2,11,,,,,,,,2,08,,,,,,,,,,,2,1.015,1,,,,,,-0.093518504,-0.237963005,1,0,0,1.0153,Basalt_rect,10,0,10,0,1,
63d2a4b549eb02187fd40092,TCR,2024-06-24_17h32.41.671,LearnStrategy,2023.2.3,Win32,58.82352941,8,2,12,,,,,,,,6,10,,,,,,,,,,,7,1.921,0,,,,,,0.099074116,-0.387037065,1,0,0,1.921,Peridotite_rect,11,0,11,0,1,
63d2a4b549eb02187fd40092,TCR,2024-06-24_17h32.41.671,LearnStrategy,2023.2.3,Win32,58.82352941,8,2,13,,,,,,,,3,13,,,,,,,,,,,3,1.554,1,,,,,,0.106481481,-0.239814829,1,0,0,1.5543,Diorite_rect,12,0,12,0,1,
63d2a4b549eb02187fd40092,TCR,2024-06-24_17h32.41.671,LearnStrategy,2023.2.3,Win32,58.82352941,8,2,14,,,,,,,,1,01,,,,,,,,,,,4,10.886,0,,,,,,0.358333305,-0.268518519,1,0,0,10.8861,Gabbro_rect,13,0,13,0,1,
63d2a4b549eb02187fd40092,TCR,2024-06-24_17h32.41.671,LearnStrategy,2023.2.3,Win32,58.82352941,8,2,15,,,,,,,,6,08,,,,,,,,,,,6,1.25,1,,,,,,-0.106481481,-0.391666695,1,0,0,1.2495,Pegmatite_rect,14,0,14,0,1,
63d2a4b549eb02187fd40092,TCR,2024-06-24_17h32.41.671,LearnStrategy,2023.2.3,Win32,58.82352941,8,2,16,,,,,,,,7,08,,,,,,,,,,,7,1.088,1,,,,,,0.107407393,-0.384259259,1,0,0,1.0877,Peridotite_rect,15,0,15,0,1,
63d2a4b549eb02187fd40092,TCR,2024-06-24_17h32.41.671,LearnStrategy,2023.2.3,Win32,58.82352941,9,1,1,0.017592607,-0.003703718,1,0,0,0.8111,rock_grid_rect_2,1,07,-1,-1,0.811,-0.344444452,-0.236111111,1,0,0,1.4819,Andesite_rect,1,1.482,1,0,0,0,0,1,,,,,,,,,,,,,
63d2a4b549eb02187fd40092,TCR,2024-06-24_17h32.41.671,LearnStrategy,2023.2.3,Win32,58.82352941,9,1,2,-0.033333319,-0.023148148,1,0,0,0.5971,rock_grid_rect_2,6,07,-1,-1,0.597,-0.090740698,-0.386111153,1,0,0,1.3819,Pegmatite_rect,6,1.382,1,1,0,1,0,1,,,,,,,,,,,,,
63d2a4b549eb02187fd40092,TCR,2024-06-24_17h32.41.671,LearnStrategy,2023.2.3,Win32,58.82352941,9,1,3,0.00462963,0.000925912,1,0,0,0.5715,rock_grid_rect_2,2,11,-1,-1,0.572,-0.085185157,-0.255555541,1,0,0,1.8038,Basalt_rect,2,1.804,1,2,0,2,0,1,,,,,,,,,,,,,
63d2a4b549eb02187fd40092,TCR,2024-06-24_17h32.41.671,LearnStrategy,2023.2.3,Win32,58.82352941,9,1,4,0.009259259,-0.011111118,1,0,0,1.2498,rock_grid_rect_2,4,16,-1,-1,1.25,0.359259288,-0.262037065,1,0,0,0.9245,Gabbro_rect,4,0.925,1,3,0,3,0,1,,,,,,,,,,,,,
63d2a4b549eb02187fd40092,TCR,2024-06-24_17h32.41.671,LearnStrategy,2023.2.3,Win32,58.82352941,9,1,5,-0.015740712,-0.015740748,1,0,0,1.0607,rock_grid_rect_2,1,05,-1,-1,1.061,-0.335185192,-0.253703718,1,0,0,1.8552,Andesite_rect,1,1.855,1,4,0,4,0,1,,,,,,,,,,,,,
63d2a4b549eb02187fd40092,TCR,2024-06-24_17h32.41.671,LearnStrategy,2023.2.3,Win32,58.82352941,9,1,6,0.033333319,-0.010185206,1,0,0,0.7445,rock_grid_rect_2,6,06,-1,-1,0.745,-0.063888903,-0.400000042,1,0,0,2.8171,Pegmatite_rect,6,2.817,1,5,0,5,0,1,,,,,,,,,,,,,
63d2a4b549eb02187fd40092,TCR,2024-06-24_17h32.41.671,LearnStrategy,2023.2.3,Win32,58.82352941,9,1,7,0.032407407,-0.019444466,1,0,0,0.5489,rock_grid_rect_2,3,07,-1,-1,0.549,0.112963005,-0.271296325,1,0,0,0.9228,Diorite_rect,3,0.923,1,6,0,6,0,1,,,,,,,,,,,,,
63d2a4b549eb02187fd40092,TCR,2024-06-24_17h32.41.671,LearnStrategy,2023.2.3,Win32,58.82352941,9,1,8,-0.04351849,-0.024074095,1,0,0,0.6137,rock_grid_rect_2,1,11,-1,-1,0.614,-0.353703711,-0.249074088,1,0,0,1.8631,Andesite_rect,1,1.863,1,7,0,7,0,1,,,,,,,,,,,,,
63d2a4b549eb02187fd40092,TCR,2024-06-24_17h32.41.671,LearnStrategy,2023.2.3,Win32,58.82352941,9,1,9,-0.011111083,-0.021296289,1,0,0,0.6028,rock_grid_rect_2,4,16,-1,-1,0.603,0.3648149,-0.257407436,1,0,0,0.9331,Gabbro_rect,4,0.933,1,8,0,8,0,1,,,,,,,,,,,,,
63d2a4b549eb02187fd40092,TCR,2024-06-24_17h32.41.671,LearnStrategy,2023.2.3,Win32,58.82352941,9,1,10,0.018518519,-0.014814836,1,0,0,0.7149,rock_grid_rect_2,4,05,-1,-1,0.715,0.346296381,-0.270370413,1,0,0,1.0231,Gabbro_rect,4,1.023,1,9,0,9,0,1,,,,,,,,,,,,,
63d2a4b549eb02187fd40092,TCR,2024-06-24_17h32.41.671,LearnStrategy,2023.2.3,Win32,58.82352941,9,1,11,0.013888889,-0.001851859,1,0,0,1.3477,rock_grid_rect_2,6,09,-1,-1,1.348,-0.088888875,-0.390740783,1,0,0,1.2575,Pegmatite_rect,6,1.257,1,10,0,10,0,1,,,,,,,,,,,,,
63d2a4b549eb02187fd40092,TCR,2024-06-24_17h32.41.671,LearnStrategy,2023.2.3,Win32,58.82352941,9,1,12,-0.030555513,-0.009259259,1,0,0,0.6314,rock_grid_rect_2,5,04,-1,-1,0.631,-0.336111104,-0.387962977,1,0,0,1.7791,Obsidian_rect,5,1.779,1,11,0,11,0,1,,,,,,,,,,,,,
63d2a4b549eb02187fd40092,TCR,2024-06-24_17h32.41.671,LearnStrategy,2023.2.3,Win32,58.82352941,9,1,13,-0.014814801,-0.006481489,1,0,0,0.9629,rock_grid_rect_2,2,04,-1,-1,0.963,-0.115740741,-0.259259259,1,0,0,0.8763,Basalt_rect,2,0.876,1,12,0,12,0,1,,,,,,,,,,,,,
63d2a4b549eb02187fd40092,TCR,2024-06-24_17h32.41.671,LearnStrategy,2023.2.3,Win32,58.82352941,9,1,14,0.056481467,-0.012962977,1,0,0,0.8999,rock_grid_rect_2,6,16,-1,-1,0.9,-0.074074074,-0.388888889,1,0,0,1.5469,Pegmatite_rect,6,1.547,1,13,0,13,0,1,,,,,,,,,,,,,
63d2a4b549eb02187fd40092,TCR,2024-06-24_17h32.41.671,LearnStrategy,2023.2.3,Win32,58.82352941,9,1,15,0.035185213,-0.014814836,1,0,0,0.7828,rock_grid_rect_2,7,13,-1,-1,0.783,0.091666681,-0.386111153,1,0,0,1.0538,Peridotite_rect,7,1.054,1,14,0,14,0,1,,,,,,,,,,,,,
63d2a4b549eb02187fd40092,TCR,2024-06-24_17h32.41.671,LearnStrategy,2023.2.3,Win32,58.82352941,9,1,16,-0.000925912,-0.008333347,1,0,0,0.6309,rock_grid_rect_2,8,05,-1,-1,0.631,0.358333305,-0.386111153,1,0,0,1.1032,Pumice_rect,8,1.103,1,15,0,15,0,1,,,,,,,,,,,,,
63d2a4b549eb02187fd40092,TCR,2024-06-24_17h32.41.671,LearnStrategy,2023.2.3,Win32,58.82352941,9,2,1,,,,,,,,1,16,,,,,,,,,,,1,8.931,1,,,,,,-0.369444423,-0.250925912,1,0,0,8.9308,Andesite_rect,0,0,0,0,1,
63d2a4b549eb02187fd40092,TCR,2024-06-24_17h32.41.671,LearnStrategy,2023.2.3,Win32,58.82352941,9,2,2,,,,,,,,7,10,,,,,,,,,,,7,1.04,1,,,,,,0.12962963,-0.395370413,1,0,0,1.0403,Peridotite_rect,1,0,1,0,1,
63d2a4b549eb02187fd40092,TCR,2024-06-24_17h32.41.671,LearnStrategy,2023.2.3,Win32,58.82352941,9,2,3,,,,,,,,5,06,,,,,,,,,,,5,4.82,1,,,,,,-0.335185192,-0.409259302,1,0,0,4.8205,Obsidian_rect,2,0,2,0,1,
63d2a4b549eb02187fd40092,TCR,2024-06-24_17h32.41.671,LearnStrategy,2023.2.3,Win32,58.82352941,9,2,4,,,,,,,,1,06,,,,,,,,,,,1,1.695,1,,,,,,-0.371296282,-0.24537037,1,0,0,1.6951,Andesite_rect,3,0,3,0,1,
63d2a4b549eb02187fd40092,TCR,2024-06-24_17h32.41.671,LearnStrategy,2023.2.3,Win32,58.82352941,9,2,5,,,,,,,,4,03,,,,,,,,,,,4,1.922,1,,,,,,0.36018527,-0.25462963,1,0,0,1.9223,Gabbro_rect,4,0,4,0,1,
63d2a4b549eb02187fd40092,TCR,2024-06-24_17h32.41.671,LearnStrategy,2023.2.3,Win32,58.82352941,9,2,6,,,,,,,,4,09,,,,,,,,,,,1,2.236,0,,,,,,-0.326851845,-0.235185199,1,0,0,2.2357,Andesite_rect,5,0,5,0,1,
63d2a4b549eb02187fd40092,TCR,2024-06-24_17h32.41.671,LearnStrategy,2023.2.3,Win32,58.82352941,9,2,7,,,,,,,,2,09,,,,,,,,,,,2,2.645,1,,,,,,-0.049074032,-0.25,1,0,0,2.6447,Basalt_rect,6,0,6,0,1,
63d2a4b549eb02187fd40092,TCR,2024-06-24_17h32.41.671,LearnStrategy,2023.2.3,Win32,58.82352941,9,2,8,,,,,,,,6,11,,,,,,,,,,,6,1.198,1,,,,,,-0.10092594,-0.405555584,1,0,0,1.1978,Pegmatite_rect,7,0,7,0,1,
63d2a4b549eb02187fd40092,TCR,2024-06-24_17h32.41.671,LearnStrategy,2023.2.3,Win32,58.82352941,9,2,9,,,,,,,,3,10,,,,,,,,,,,3,1.635,1,,,,,,0.080555598,-0.256481524,1,0,0,1.6349,Diorite_rect,8,0,8,0,1,
63d2a4b549eb02187fd40092,TCR,2024-06-24_17h32.41.671,LearnStrategy,2023.2.3,Win32,58.82352941,9,2,10,,,,,,,,2,02,,,,,,,,,,,2,4.786,1,,,,,,-0.083333333,-0.259259259,1,0,0,4.7864,Basalt_rect,9,0,9,0,1,
63d2a4b549eb02187fd40092,TCR,2024-06-24_17h32.41.671,LearnStrategy,2023.2.3,Win32,58.82352941,9,2,11,,,,,,,,7,16,,,,,,,,,,,7,1.058,1,,,,,,0.093518504,-0.382407436,1,0,0,1.0583,Peridotite_rect,10,0,10,0,1,
63d2a4b549eb02187fd40092,TCR,2024-06-24_17h32.41.671,LearnStrategy,2023.2.3,Win32,58.82352941,9,2,12,,,,,,,,8,09,,,,,,,,,,,8,1.092,1,,,,,,0.346296381,-0.407407407,1,0,0,1.0916,Pumice_rect,11,0,11,0,1,
63d2a4b549eb02187fd40092,TCR,2024-06-24_17h32.41.671,LearnStrategy,2023.2.3,Win32,58.82352941,9,2,13,,,,,,,,8,10,,,,,,,,,,,8,0.956,1,,,,,,0.376851824,-0.413888931,1,0,0,0.956,Pumice_rect,12,0,12,0,1,
63d2a4b549eb02187fd40092,TCR,2024-06-24_17h32.41.671,LearnStrategy,2023.2.3,Win32,58.82352941,9,2,14,,,,,,,,6,13,,,,,,,,,,,6,2.555,1,,,,,,-0.091666681,-0.392592607,1,0,0,2.5546,Pegmatite_rect,13,0,13,0,1,
63d2a4b549eb02187fd40092,TCR,2024-06-24_17h32.41.671,LearnStrategy,2023.2.3,Win32,58.82352941,9,2,15,,,,,,,,3,11,,,,,,,,,,,3,1.893,1,,,,,,0.087962963,-0.251851894,1,0,0,1.8934,Diorite_rect,14,0,14,0,1,
63d2a4b549eb02187fd40092,TCR,2024-06-24_17h32.41.671,LearnStrategy,2023.2.3,Win32,58.82352941,9,2,16,,,,,,,,5,10,,,,,,,,,,,5,1.546,1,,,,,,-0.348148134,-0.380555541,1,0,0,1.5463,Obsidian_rect,15,0,15,0,1,
63d2a4b549eb02187fd40092,TCR,2024-06-24_17h32.41.671,LearnStrategy,2023.2.3,Win32,58.82352941,,,,,,,,,,,,,,,,,,,,,,,,,,,,,,,,,,,,,,,,,,,1
63d2a4b549eb02187fd40092,TCR,2024-06-24_17h32.41.671,LearnStrategy,2023.2.3,Win32,58.82352941,,,,,,,,,,,,,,,,,,,,,,,,,,,,,,,,,,,,,,,,,,,
63d2a4b549eb02187fd40092,TCR,2024-06-24_17h32.41.671,LearnStrategy,2023.2.3,Win32,58.82352941,,,,,,,,,,,1,02,1,1,,,,,,,,,,,,,,,,,,,,,,,,,,,,,
63d2a4b549eb02187fd40092,TCR,2024-06-24_17h32.41.671,LearnStrategy,2023.2.3,Win32,58.82352941,,,,,,,,,,,7,12,1,2,,,,,,,,,,,,,,,,,,,,,,,,,,,,,
63d2a4b549eb02187fd40092,TCR,2024-06-24_17h32.41.671,LearnStrategy,2023.2.3,Win32,58.82352941,,,,,,,,,,,4,01,1,3,,,,,,,,,,,,,,,,,,,,,,,,,,,,,
63d2a4b549eb02187fd40092,TCR,2024-06-24_17h32.41.671,LearnStrategy,2023.2.3,Win32,58.82352941,,,,,,,,,,,3,02,1,4,,,,,,,,,,,,,,,,,,,,,,,,,,,,,
63d2a4b549eb02187fd40092,TCR,2024-06-24_17h32.41.671,LearnStrategy,2023.2.3,Win32,58.82352941,,,,,,,,,,,3,09,1,5,,,,,,,,,,,,,,,,,,,,,,,,,,,,,
63d2a4b549eb02187fd40092,TCR,2024-06-24_17h32.41.671,LearnStrategy,2023.2.3,Win32,58.82352941,,,,,,,,,,,5,02,1,6,,,,,,,,,,,,,,,,,,,,,,,,,,,,,
63d2a4b549eb02187fd40092,TCR,2024-06-24_17h32.41.671,LearnStrategy,2023.2.3,Win32,58.82352941,,,,,,,,,,,2,04,1,7,,,,,,,,,,,,,,,,,,,,,,,,,,,,,
63d2a4b549eb02187fd40092,TCR,2024-06-24_17h32.41.671,LearnStrategy,2023.2.3,Win32,58.82352941,,,,,,,,,,,6,15,1,8,,,,,,,,,,,,,,,,,,,,,,,,,,,,,
63d2a4b549eb02187fd40092,TCR,2024-06-24_17h32.41.671,LearnStrategy,2023.2.3,Win32,58.82352941,,,,,,,,,,,4,12,2,1,,,,,,,,,,,,,,,,,,,,,,,,,,,,,
63d2a4b549eb02187fd40092,TCR,2024-06-24_17h32.41.671,LearnStrategy,2023.2.3,Win32,58.82352941,,,,,,,,,,,6,03,2,2,,,,,,,,,,,,,,,,,,,,,,,,,,,,,
63d2a4b549eb02187fd40092,TCR,2024-06-24_17h32.41.671,LearnStrategy,2023.2.3,Win32,58.82352941,,,,,,,,,,,2,16,2,3,,,,,,,,,,,,,,,,,,,,,,,,,,,,,
63d2a4b549eb02187fd40092,TCR,2024-06-24_17h32.41.671,LearnStrategy,2023.2.3,Win32,58.82352941,,,,,,,,,,,2,10,2,4,,,,,,,,,,,,,,,,,,,,,,,,,,,,,
63d2a4b549eb02187fd40092,TCR,2024-06-24_17h32.41.671,LearnStrategy,2023.2.3,Win32,58.82352941,,,,,,,,,,,5,08,2,5,,,,,,,,,,,,,,,,,,,,,,,,,,,,,
63d2a4b549eb02187fd40092,TCR,2024-06-24_17h32.41.671,LearnStrategy,2023.2.3,Win32,58.82352941,,,,,,,,,,,7,06,2,6,,,,,,,,,,,,,,,,,,,,,,,,,,,,,
63d2a4b549eb02187fd40092,TCR,2024-06-24_17h32.41.671,LearnStrategy,2023.2.3,Win32,58.82352941,,,,,,,,,,,3,16,2,7,,,,,,,,,,,,,,,,,,,,,,,,,,,,,
63d2a4b549eb02187fd40092,TCR,2024-06-24_17h32.41.671,LearnStrategy,2023.2.3,Win32,58.82352941,,,,,,,,,,,1,10,2,8,,,,,,,,,,,,,,,,,,,,,,,,,,,,,
63d2a4b549eb02187fd40092,TCR,2024-06-24_17h32.41.671,LearnStrategy,2023.2.3,Win32,58.82352941,,,,,,,,,,,8,05,3,1,,,,,,,,,,,,,,,,,,,,,,,,,,,,,
63d2a4b549eb02187fd40092,TCR,2024-06-24_17h32.41.671,LearnStrategy,2023.2.3,Win32,58.82352941,,,,,,,,,,,4,05,3,2,,,,,,,,,,,,,,,,,,,,,,,,,,,,,
63d2a4b549eb02187fd40092,TCR,2024-06-24_17h32.41.671,LearnStrategy,2023.2.3,Win32,58.82352941,,,,,,,,,,,7,02,3,3,,,,,,,,,,,,,,,,,,,,,,,,,,,,,
63d2a4b549eb02187fd40092,TCR,2024-06-24_17h32.41.671,LearnStrategy,2023.2.3,Win32,58.82352941,,,,,,,,,,,6,06,3,4,,,,,,,,,,,,,,,,,,,,,,,,,,,,,
63d2a4b549eb02187fd40092,TCR,2024-06-24_17h32.41.671,LearnStrategy,2023.2.3,Win32,58.82352941,,,,,,,,,,,8,02,3,5,,,,,,,,,,,,,,,,,,,,,,,,,,,,,
63d2a4b549eb02187fd40092,TCR,2024-06-24_17h32.41.671,LearnStrategy,2023.2.3,Win32,58.82352941,,,,,,,,,,,2,11,3,6,,,,,,,,,,,,,,,,,,,,,,,,,,,,,
63d2a4b549eb02187fd40092,TCR,2024-06-24_17h32.41.671,LearnStrategy,2023.2.3,Win32,58.82352941,,,,,,,,,,,4,14,3,7,,,,,,,,,,,,,,,,,,,,,,,,,,,,,
63d2a4b549eb02187fd40092,TCR,2024-06-24_17h32.41.671,LearnStrategy,2023.2.3,Win32,58.82352941,,,,,,,,,,,6,07,3,8,,,,,,,,,,,,,,,,,,,,,,,,,,,,,
63d2a4b549eb02187fd40092,TCR,2024-06-24_17h32.41.671,LearnStrategy,2023.2.3,Win32,58.82352941,,,,,,,,,,,7,13,4,1,,,,,,,,,,,,,,,,,,,,,,,,,,,,,
63d2a4b549eb02187fd40092,TCR,2024-06-24_17h32.41.671,LearnStrategy,2023.2.3,Win32,58.82352941,,,,,,,,,,,4,11,4,2,,,,,,,,,,,,,,,,,,,,,,,,,,,,,
63d2a4b549eb02187fd40092,TCR,2024-06-24_17h32.41.671,LearnStrategy,2023.2.3,Win32,58.82352941,,,,,,,,,,,6,16,4,3,,,,,,,,,,,,,,,,,,,,,,,,,,,,,
63d2a4b549eb02187fd40092,TCR,2024-06-24_17h32.41.671,LearnStrategy,2023.2.3,Win32,58.82352941,,,,,,,,,,,3,06,4,4,,,,,,,,,,,,,,,,,,,,,,,,,,,,,
63d2a4b549eb02187fd40092,TCR,2024-06-24_17h32.41.671,LearnStrategy,2023.2.3,Win32,58.82352941,,,,,,,,,,,7,04,4,5,,,,,,,,,,,,,,,,,,,,,,,,,,,,,
63d2a4b549eb02187fd40092,TCR,2024-06-24_17h32.41.671,LearnStrategy,2023.2.3,Win32,58.82352941,,,,,,,,,,,7,14,4,6,,,,,,,,,,,,,,,,,,,,,,,,,,,,,
63d2a4b549eb02187fd40092,TCR,2024-06-24_17h32.41.671,LearnStrategy,2023.2.3,Win32,58.82352941,,,,,,,,,,,3,15,4,7,,,,,,,,,,,,,,,,,,,,,,,,,,,,,
63d2a4b549eb02187fd40092,TCR,2024-06-24_17h32.41.671,LearnStrategy,2023.2.3,Win32,58.82352941,,,,,,,,,,,8,15,4,8,,,,,,,,,,,,,,,,,,,,,,,,,,,,,
63d2a4b549eb02187fd40092,TCR,2024-06-24_17h32.41.671,LearnStrategy,2023.2.3,Win32,58.82352941,,,,,,,,,,,2,12,5,1,,,,,,,,,,,,,,,,,,,,,,,,,,,,,
63d2a4b549eb02187fd40092,TCR,2024-06-24_17h32.41.671,LearnStrategy,2023.2.3,Win32,58.82352941,,,,,,,,,,,5,11,5,2,,,,,,,,,,,,,,,,,,,,,,,,,,,,,
63d2a4b549eb02187fd40092,TCR,2024-06-24_17h32.41.671,LearnStrategy,2023.2.3,Win32,58.82352941,,,,,,,,,,,5,14,5,3,,,,,,,,,,,,,,,,,,,,,,,,,,,,,
63d2a4b549eb02187fd40092,TCR,2024-06-24_17h32.41.671,LearnStrategy,2023.2.3,Win32,58.82352941,,,,,,,,,,,5,04,5,4,,,,,,,,,,,,,,,,,,,,,,,,,,,,,
63d2a4b549eb02187fd40092,TCR,2024-06-24_17h32.41.671,LearnStrategy,2023.2.3,Win32,58.82352941,,,,,,,,,,,8,06,5,5,,,,,,,,,,,,,,,,,,,,,,,,,,,,,
63d2a4b549eb02187fd40092,TCR,2024-06-24_17h32.41.671,LearnStrategy,2023.2.3,Win32,58.82352941,,,,,,,,,,,4,16,5,6,,,,,,,,,,,,,,,,,,,,,,,,,,,,,
63d2a4b549eb02187fd40092,TCR,2024-06-24_17h32.41.671,LearnStrategy,2023.2.3,Win32,58.82352941,,,,,,,,,,,5,16,5,7,,,,,,,,,,,,,,,,,,,,,,,,,,,,,
63d2a4b549eb02187fd40092,TCR,2024-06-24_17h32.41.671,LearnStrategy,2023.2.3,Win32,58.82352941,,,,,,,,,,,3,07,5,8,,,,,,,,,,,,,,,,,,,,,,,,,,,,,
63d2a4b549eb02187fd40092,TCR,2024-06-24_17h32.41.671,LearnStrategy,2023.2.3,Win32,58.82352941,,,,,,,,,,,8,13,6,1,,,,,,,,,,,,,,,,,,,,,,,,,,,,,
63d2a4b549eb02187fd40092,TCR,2024-06-24_17h32.41.671,LearnStrategy,2023.2.3,Win32,58.82352941,,,,,,,,,,,1,09,6,2,,,,,,,,,,,,,,,,,,,,,,,,,,,,,
63d2a4b549eb02187fd40092,TCR,2024-06-24_17h32.41.671,LearnStrategy,2023.2.3,Win32,58.82352941,,,,,,,,,,,1,11,6,3,,,,,,,,,,,,,,,,,,,,,,,,,,,,,
63d2a4b549eb02187fd40092,TCR,2024-06-24_17h32.41.671,LearnStrategy,2023.2.3,Win32,58.82352941,,,,,,,,,,,1,05,6,4,,,,,,,,,,,,,,,,,,,,,,,,,,,,,
63d2a4b549eb02187fd40092,TCR,2024-06-24_17h32.41.671,LearnStrategy,2023.2.3,Win32,58.82352941,,,,,,,,,,,6,09,6,5,,,,,,,,,,,,,,,,,,,,,,,,,,,,,
63d2a4b549eb02187fd40092,TCR,2024-06-24_17h32.41.671,LearnStrategy,2023.2.3,Win32,58.82352941,,,,,,,,,,,8,14,6,6,,,,,,,,,,,,,,,,,,,,,,,,,,,,,
63d2a4b549eb02187fd40092,TCR,2024-06-24_17h32.41.671,LearnStrategy,2023.2.3,Win32,58.82352941,,,,,,,,,,,2,06,6,7,,,,,,,,,,,,,,,,,,,,,,,,,,,,,
63d2a4b549eb02187fd40092,TCR,2024-06-24_17h32.41.671,LearnStrategy,2023.2.3,Win32,58.82352941,,,,,,,,,,,1,07,6,8,,,,,,,,,,,,,,,,,,,,,,,,,,,,,