participant,condition,date,expName,psychopyVersion,OS,frameRate,block,phase,trial,learn_mouse_2.x,learn_mouse_2.y,learn_mouse_2.leftButton,learn_mouse_2.midButton,learn_mouse_2.rightButton,learn_mouse_2.time,learn_mouse_2.clicked_name,cat,token,row,col,t_select,cat_mouse_l.x,cat_mouse_l.y,cat_mouse_l.leftButton,cat_mouse_l.midButton,cat_mouse_l.rightButton,cat_mouse_l.time,cat_mouse_l.clicked_name,resp,t_resp,corr,train_trials.thisRepN,train_trials.thisTrialN,train_trials.thisN,train_trials.thisIndex,train_trials.ran,cat_mouse_t.x,cat_mouse_t.y,cat_mouse_t.leftButton,cat_mouse_t.midButton,cat_mouse_t.rightButton,cat_mouse_t.time,cat_mouse_t.clicked_name,test_trials.thisRepN,test_trials.thisTrialN,test_trials.thisN,test_trials.thisIndex,test_trials.ran,Bonus
63d4393f67ae4bf53fce7c48,TCN,2024-06-11_13h12.08.726,LearnStrategy,2023.2.3,Win32,120.1923077,,,,,,,,,,,,,,,,,,,,,,,,,,,,,,,,,,,,,,,,,,,
63d4393f67ae4bf53fce7c48,TCN,2024-06-11_13h12.08.726,LearnStrategy,2023.2.3,Win32,120.1923077,1,1,1,-0.007625272,0.001089325,1,0,0,1.374,rock_grid_rect_2,5,16,-1,-1,1.374,-0.357298475,-0.41503268,1,0,0,4.545,Obsidian_rect,5,4.545,1,0,0,0,0,1,,,,,,,,,,,,,
63d4393f67ae4bf53fce7c48,TCN,2024-06-11_13h12.08.726,LearnStrategy,2023.2.3,Win32,120.1923077,1,1,2,0.02832244,-0.004357298,1,0,0,0.965,rock_grid_rect_2,6,13,-1,-1,0.965,0.098039216,-0.262527233,1,0,0,4.333,Diorite_rect,3,4.333,0,1,0,1,0,1,,,,,,,,,,,,,
63d4393f67ae4bf53fce7c48,TCN,2024-06-11_13h12.08.726,LearnStrategy,2023.2.3,Win32,120.1923077,1,1,3,0.065359477,0.015250545,1,0,0,0.817,rock_grid_rect_2,2,12,-1,-1,0.817,-0.396514161,-0.270152505,1,0,0,4.282,Andesite_rect,1,4.282,0,2,0,2,0,1,,,,,,,,,,,,,
63d4393f67ae4bf53fce7c48,TCN,2024-06-11_13h12.08.726,LearnStrategy,2023.2.3,Win32,120.1923077,1,1,4,0.025054466,0.009803922,1,0,0,0.856,rock_grid_rect_2,6,05,-1,-1,0.856,0.144880174,-0.244008715,1,0,0,3.425,Diorite_rect,3,3.425,0,3,0,3,0,1,,,,,,,,,,,,,
63d4393f67ae4bf53fce7c48,TCN,2024-06-11_13h12.08.726,LearnStrategy,2023.2.3,Win32,120.1923077,1,1,5,-0.030501089,0.010893246,1,0,0,1.425,rock_grid_rect_2,1,09,-1,-1,1.425,-0.087145969,-0.269063181,1,0,0,4.715,Basalt_rect,2,4.715,0,4,0,4,0,1,,,,,,,,,,,,,
63d4393f67ae4bf53fce7c48,TCN,2024-06-11_13h12.08.726,LearnStrategy,2023.2.3,Win32,120.1923077,1,1,6,-0.004357298,0.004357298,1,0,0,0.965,rock_grid_rect_2,7,13,-1,-1,0.965,0.352941176,-0.234204793,1,0,0,3.462,Gabbro_rect,4,3.462,0,5,0,5,0,1,,,,,,,,,,,,,
63d4393f67ae4bf53fce7c48,TCN,2024-06-11_13h12.08.726,LearnStrategy,2023.2.3,Win32,120.1923077,1,1,7,-0.043572985,0.001089325,1,0,0,0.749,rock_grid_rect_2,3,11,-1,-1,0.749,-0.087145969,-0.408496732,1,0,0,7.809,Pegmatite_rect,6,7.809,0,6,0,6,0,1,,,,,,,,,,,,,
63d4393f67ae4bf53fce7c48,TCN,2024-06-11_13h12.08.726,LearnStrategy,2023.2.3,Win32,120.1923077,1,1,8,-0.053376906,0.011982571,1,0,0,0.805,rock_grid_rect_2,4,13,-1,-1,0.805,0.374727669,-0.38453159,1,0,0,2.879,Pumice_rect,8,2.879,0,7,0,7,0,1,,,,,,,,,,,,,
63d4393f67ae4bf53fce7c48,TCN,2024-06-11_13h12.08.726,LearnStrategy,2023.2.3,Win32,120.1923077,1,1,9,-0.005446623,-0.019607843,1,0,0,0.705,rock_grid_rect_2,7,12,-1,-1,0.705,0.18627451,-0.252723312,1,0,0,7.054,Diorite_rect,3,7.054,0,8,0,8,0,1,,,,,,,,,,,,,
63d4393f67ae4bf53fce7c48,TCN,2024-06-11_13h12.08.726,LearnStrategy,2023.2.3,Win32,120.1923077,1,1,10,0.009803922,0.009803922,1,0,0,0.851,rock_grid_rect_2,5,06,-1,-1,0.851,0.37037037,-0.389978214,1,0,0,3.995,Pumice_rect,8,3.995,0,9,0,9,0,1,,,,,,,,,,,,,
63d4393f67ae4bf53fce7c48,TCN,2024-06-11_13h12.08.726,LearnStrategy,2023.2.3,Win32,120.1923077,1,1,11,-0.064270153,-0.010893246,1,0,0,1.049,rock_grid_rect_2,8,04,-1,-1,1.049,-0.102396514,-0.232026144,1,0,0,15.453,Basalt_rect,2,15.453,0,10,0,10,0,1,,,,,,,,,,,,,
63d4393f67ae4bf53fce7c48,TCN,2024-06-11_13h12.08.726,LearnStrategy,2023.2.3,Win32,120.1923077,1,1,12,0.033769063,-0.011982571,1,0,0,0.746,rock_grid_rect_2,3,16,-1,-1,0.746,0.171023965,-0.244008715,1,0,0,10.976,Diorite_rect,3,10.976,1,11,0,11,0,1,,,,,,,,,,,,,
63d4393f67ae4bf53fce7c48,TCN,2024-06-11_13h12.08.726,LearnStrategy,2023.2.3,Win32,120.1923077,1,1,13,0.066448802,-0.013071895,1,0,0,0.935,rock_grid_rect_2,4,15,-1,-1,0.935,0.392156863,-0.239651416,1,0,0,3.379,Gabbro_rect,4,3.379,1,12,0,12,0,1,,,,,,,,,,,,,
63d4393f67ae4bf53fce7c48,TCN,2024-06-11_13h12.08.726,LearnStrategy,2023.2.3,Win32,120.1923077,1,1,14,0.021786492,-0.005446623,1,0,0,0.964,rock_grid_rect_2,1,06,-1,-1,0.964,-0.125272331,-0.246187364,1,0,0,7.051,Basalt_rect,2,7.051,0,13,0,13,0,1,,,,,,,,,,,,,
63d4393f67ae4bf53fce7c48,TCN,2024-06-11_13h12.08.726,LearnStrategy,2023.2.3,Win32,120.1923077,1,1,15,0.001089325,-0.005446623,1,0,0,1.089,rock_grid_rect_2,2,14,-1,-1,1.089,0.361655773,-0.240740741,1,0,0,2.167,Gabbro_rect,4,2.167,0,14,0,14,0,1,,,,,,,,,,,,,
63d4393f67ae4bf53fce7c48,TCN,2024-06-11_13h12.08.726,LearnStrategy,2023.2.3,Win32,120.1923077,1,1,16,0.010893246,-0.020697168,1,0,0,0.765,rock_grid_rect_2,8,10,-1,-1,0.765,-0.034858388,-0.383442266,1,0,0,12.157,Pegmatite_rect,6,12.157,0,15,0,15,0,1,,,,,,,,,,,,,
63d4393f67ae4bf53fce7c48,TCN,2024-06-11_13h12.08.726,LearnStrategy,2023.2.3,Win32,120.1923077,1,2,1,,,,,,,,4,16,,,,,,,,,,,2,10.703,0,,,,,,-0.087145969,-0.241830065,1,0,0,10.703,Basalt_rect,0,0,0,0,1,
63d4393f67ae4bf53fce7c48,TCN,2024-06-11_13h12.08.726,LearnStrategy,2023.2.3,Win32,120.1923077,1,2,2,,,,,,,,3,13,,,,,,,,,,,3,6.847,1,,,,,,0.072984749,-0.260348584,1,0,0,6.847,Diorite_rect,1,0,1,0,1,
63d4393f67ae4bf53fce7c48,TCN,2024-06-11_13h12.08.726,LearnStrategy,2023.2.3,Win32,120.1923077,1,2,3,,,,,,,,8,14,,,,,,,,,,,8,9.76,1,,,,,,0.366013072,-0.409586057,1,0,0,9.76,Pumice_rect,2,0,2,0,1,
63d4393f67ae4bf53fce7c48,TCN,2024-06-11_13h12.08.726,LearnStrategy,2023.2.3,Win32,120.1923077,1,2,4,,,,,,,,3,07,,,,,,,,,,,7,10.815,0,,,,,,0.064270153,-0.393246187,1,0,0,10.815,Peridotite_rect,3,0,3,0,1,
63d4393f67ae4bf53fce7c48,TCN,2024-06-11_13h12.08.726,LearnStrategy,2023.2.3,Win32,120.1923077,1,2,5,,,,,,,,2,16,,,,,,,,,,,2,7.414,1,,,,,,-0.165577342,-0.25708061,1,0,0,7.414,Basalt_rect,4,0,4,0,1,
63d4393f67ae4bf53fce7c48,TCN,2024-06-11_13h12.08.726,LearnStrategy,2023.2.3,Win32,120.1923077,1,2,6,,,,,,,,7,07,,,,,,,,,,,7,5.001,1,,,,,,0.089324619,-0.39869281,1,0,0,5.001,Peridotite_rect,5,0,5,0,1,
63d4393f67ae4bf53fce7c48,TCN,2024-06-11_13h12.08.726,LearnStrategy,2023.2.3,Win32,120.1923077,1,2,7,,,,,,,,8,03,,,,,,,,,,,8,2.873,1,,,,,,0.385620915,-0.392156863,1,0,0,2.873,Pumice_rect,6,0,6,0,1,
63d4393f67ae4bf53fce7c48,TCN,2024-06-11_13h12.08.726,LearnStrategy,2023.2.3,Win32,120.1923077,1,2,8,,,,,,,,2,05,,,,,,,,,,,6,9.299,0,,,,,,-0.17211329,-0.399782135,1,0,0,9.299,Pegmatite_rect,7,0,7,0,1,
63d4393f67ae4bf53fce7c48,TCN,2024-06-11_13h12.08.726,LearnStrategy,2023.2.3,Win32,120.1923077,1,2,9,,,,,,,,5,05,,,,,,,,,,,5,1.456,1,,,,,,-0.444444444,-0.40087146,1,0,0,1.456,Obsidian_rect,8,0,8,0,1,
63d4393f67ae4bf53fce7c48,TCN,2024-06-11_13h12.08.726,LearnStrategy,2023.2.3,Win32,120.1923077,1,2,10,,,,,,,,5,08,,,,,,,,,,,5,1.431,1,,,,,,-0.405228758,-0.38671024,1,0,0,1.431,Obsidian_rect,9,0,9,0,1,
63d4393f67ae4bf53fce7c48,TCN,2024-06-11_13h12.08.726,LearnStrategy,2023.2.3,Win32,120.1923077,1,2,11,,,,,,,,4,10,,,,,,,,,,,6,4.404,0,,,,,,-0.117647059,-0.394335512,1,0,0,4.404,Pegmatite_rect,10,0,10,0,1,
63d4393f67ae4bf53fce7c48,TCN,2024-06-11_13h12.08.726,LearnStrategy,2023.2.3,Win32,120.1923077,1,2,12,,,,,,,,1,03,,,,,,,,,,,1,3.209,1,,,,,,-0.362745098,-0.25708061,1,0,0,3.209,Andesite_rect,11,0,11,0,1,
63d4393f67ae4bf53fce7c48,TCN,2024-06-11_13h12.08.726,LearnStrategy,2023.2.3,Win32,120.1923077,1,2,13,,,,,,,,7,05,,,,,,,,,,,7,7.891,1,,,,,,0.123093682,-0.382352941,1,0,0,7.891,Peridotite_rect,12,0,12,0,1,
63d4393f67ae4bf53fce7c48,TCN,2024-06-11_13h12.08.726,LearnStrategy,2023.2.3,Win32,120.1923077,1,2,14,,,,,,,,1,11,,,,,,,,,,,1,3.357,1,,,,,,-0.376906318,-0.244008715,1,0,0,3.357,Andesite_rect,13,0,13,0,1,
63d4393f67ae4bf53fce7c48,TCN,2024-06-11_13h12.08.726,LearnStrategy,2023.2.3,Win32,120.1923077,1,2,15,,,,,,,,6,09,,,,,,,,,,,7,6.314,0,,,,,,0.098039216,-0.396514161,1,0,0,6.314,Peridotite_rect,14,0,14,0,1,
63d4393f67ae4bf53fce7c48,TCN,2024-06-11_13h12.08.726,LearnStrategy,2023.2.3,Win32,120.1923077,1,2,16,,,,,,,,6,07,,,,,,,,,,,6,8.505,1,,,,,,-0.095860566,-0.38453159,1,0,0,8.505,Pegmatite_rect,15,0,15,0,1,
63d4393f67ae4bf53fce7c48,TCN,2024-06-11_13h12.08.726,LearnStrategy,2023.2.3,Win32,120.1923077,2,1,1,-0.037037037,0.019607843,1,0,0,1.048,rock_grid_rect_2,7,04,-1,-1,1.048,0.107843137,-0.396514161,1,0,0,5.587,Peridotite_rect,7,5.587,1,0,0,0,0,1,,,,,,,,,,,,,
63d4393f67ae4bf53fce7c48,TCN,2024-06-11_13h12.08.726,LearnStrategy,2023.2.3,Win32,120.1923077,2,1,2,0.0708061,-0.018518519,1,0,0,0.734,rock_grid_rect_2,6,15,-1,-1,0.734,0.145969499,-0.406318083,1,0,0,2.443,Peridotite_rect,7,2.443,0,1,0,1,0,1,,,,,,,,,,,,,
63d4393f67ae4bf53fce7c48,TCN,2024-06-11_13h12.08.726,LearnStrategy,2023.2.3,Win32,120.1923077,2,1,3,0.030501089,0.001089325,1,0,0,1.073,rock_grid_rect_2,3,10,-1,-1,1.073,0.140522876,-0.262527233,1,0,0,3.264,Diorite_rect,3,3.264,1,2,0,2,0,1,,,,,,,,,,,,,
63d4393f67ae4bf53fce7c48,TCN,2024-06-11_13h12.08.726,LearnStrategy,2023.2.3,Win32,120.1923077,2,1,4,0.035947712,-0.007625272,1,0,0,0.782,rock_grid_rect_2,5,14,-1,-1,0.782,-0.375816993,-0.401960784,1,0,0,1.184,Obsidian_rect,5,1.184,1,3,0,3,0,1,,,,,,,,,,,,,
63d4393f67ae4bf53fce7c48,TCN,2024-06-11_13h12.08.726,LearnStrategy,2023.2.3,Win32,120.1923077,2,1,5,-0.004357298,0.021786492,1,0,0,0.659,rock_grid_rect_2,1,04,-1,-1,0.659,0.425925926,-0.265795207,1,0,0,3.823,Gabbro_rect,4,3.823,0,4,0,4,0,1,,,,,,,,,,,,,
63d4393f67ae4bf53fce7c48,TCN,2024-06-11_13h12.08.726,LearnStrategy,2023.2.3,Win32,120.1923077,2,1,6,0.040305011,-0.019607843,1,0,0,0.624,rock_grid_rect_2,2,02,-1,-1,0.624,-0.34422658,-0.266884532,1,0,0,4.458,Andesite_rect,1,4.458,0,5,0,5,0,1,,,,,,,,,,,,,
63d4393f67ae4bf53fce7c48,TCN,2024-06-11_13h12.08.726,LearnStrategy,2023.2.3,Win32,120.1923077,2,1,7,-0.006535948,-0.017429194,1,0,0,0.633,rock_grid_rect_2,4,09,-1,-1,0.633,-0.096949891,-0.405228758,1,0,0,6.385,Pegmatite_rect,6,6.385,0,6,0,6,0,1,,,,,,,,,,,,,
63d4393f67ae4bf53fce7c48,TCN,2024-06-11_13h12.08.726,LearnStrategy,2023.2.3,Win32,120.1923077,2,1,8,0.013071895,-0.003267974,1,0,0,0.646,rock_grid_rect_2,1,16,-1,-1,0.646,-0.126361656,-0.250544662,1,0,0,3.704,Basalt_rect,2,3.704,0,7,0,7,0,1,,,,,,,,,,,,,
63d4393f67ae4bf53fce7c48,TCN,2024-06-11_13h12.08.726,LearnStrategy,2023.2.3,Win32,120.1923077,2,1,9,-0.015250545,-0.015250545,1,0,0,0.609,rock_grid_rect_2,2,09,-1,-1,0.609,-0.119825708,-0.260348584,1,0,0,1.22,Basalt_rect,2,1.22,1,8,0,8,0,1,,,,,,,,,,,,,
63d4393f67ae4bf53fce7c48,TCN,2024-06-11_13h12.08.726,LearnStrategy,2023.2.3,Win32,120.1923077,2,1,10,-0.016339869,-0.005446623,1,0,0,0.549,rock_grid_rect_2,8,08,-1,-1,0.549,0.405228758,-0.406318083,1,0,0,0.981,Pumice_rect,8,0.981,1,9,0,9,0,1,,,,,,,,,,,,,
63d4393f67ae4bf53fce7c48,TCN,2024-06-11_13h12.08.726,LearnStrategy,2023.2.3,Win32,120.1923077,2,1,11,-0.095860566,-0.016339869,1,0,0,0.489,rock_grid_rect_2,7,15,-1,-1,0.489,0.068627451,-0.413943355,1,0,0,2.044,Peridotite_rect,7,2.044,1,10,0,10,0,1,,,,,,,,,,,,,
63d4393f67ae4bf53fce7c48,TCN,2024-06-11_13h12.08.726,LearnStrategy,2023.2.3,Win32,120.1923077,2,1,12,0.065359477,0.003267974,1,0,0,0.88,rock_grid_rect_2,6,06,-1,-1,0.88,-0.107843137,-0.397603486,1,0,0,5.116,Pegmatite_rect,6,5.116,1,11,0,11,0,1,,,,,,,,,,,,,
63d4393f67ae4bf53fce7c48,TCN,2024-06-11_13h12.08.726,LearnStrategy,2023.2.3,Win32,120.1923077,2,1,13,-0.017429194,-0.004357298,1,0,0,0.529,rock_grid_rect_2,5,09,-1,-1,0.529,-0.3583878,-0.38671024,1,0,0,1.863,Obsidian_rect,5,1.863,1,12,0,12,0,1,,,,,,,,,,,,,
63d4393f67ae4bf53fce7c48,TCN,2024-06-11_13h12.08.726,LearnStrategy,2023.2.3,Win32,120.1923077,2,1,14,0.079520697,-0.010893246,1,0,0,0.83,rock_grid_rect_2,3,08,-1,-1,0.83,0.420479303,-0.383442266,1,0,0,4.459,Pumice_rect,8,4.459,0,13,0,13,0,1,,,,,,,,,,,,,
63d4393f67ae4bf53fce7c48,TCN,2024-06-11_13h12.08.726,LearnStrategy,2023.2.3,Win32,120.1923077,2,1,15,0.066448802,0.006535948,1,0,0,0.905,rock_grid_rect_2,8,15,-1,-1,0.905,0.381263617,-0.234204793,1,0,0,5.765,Gabbro_rect,4,5.765,0,14,0,14,0,1,,,,,,,,,,,,,
63d4393f67ae4bf53fce7c48,TCN,2024-06-11_13h12.08.726,LearnStrategy,2023.2.3,Win32,120.1923077,2,1,16,0.049019608,0.005446623,1,0,0,0.704,rock_grid_rect_2,4,03,-1,-1,0.704,0.144880174,-0.246187364,1,0,0,4.025,Diorite_rect,3,4.025,0,15,0,15,0,1,,,,,,,,,,,,,
63d4393f67ae4bf53fce7c48,TCN,2024-06-11_13h12.08.726,LearnStrategy,2023.2.3,Win32,120.1923077,2,2,1,,,,,,,,2,06,,,,,,,,,,,2,3.119,1,,,,,,-0.144880174,-0.24291939,1,0,0,3.119,Basalt_rect,0,0,0,0,1,
63d4393f67ae4bf53fce7c48,TCN,2024-06-11_13h12.08.726,LearnStrategy,2023.2.3,Win32,120.1923077,2,2,2,,,,,,,,3,15,,,,,,,,,,,3,5.352,1,,,,,,0.131808279,-0.250544662,1,0,0,5.352,Diorite_rect,1,0,1,0,1,
63d4393f67ae4bf53fce7c48,TCN,2024-06-11_13h12.08.726,LearnStrategy,2023.2.3,Win32,120.1923077,2,2,3,,,,,,,,5,12,,,,,,,,,,,5,0.964,1,,,,,,-0.379084967,-0.380174292,1,0,0,0.964,Obsidian_rect,2,0,2,0,1,
63d4393f67ae4bf53fce7c48,TCN,2024-06-11_13h12.08.726,LearnStrategy,2023.2.3,Win32,120.1923077,2,2,4,,,,,,,,1,05,,,,,,,,,,,7,8.798,0,,,,,,0.061002179,-0.404139434,1,0,0,8.798,Peridotite_rect,3,0,3,0,1,
63d4393f67ae4bf53fce7c48,TCN,2024-06-11_13h12.08.726,LearnStrategy,2023.2.3,Win32,120.1923077,2,2,5,,,,,,,,7,14,,,,,,,,,,,6,10.846,0,,,,,,-0.128540305,-0.406318083,1,0,0,10.846,Pegmatite_rect,4,0,4,0,1,
63d4393f67ae4bf53fce7c48,TCN,2024-06-11_13h12.08.726,LearnStrategy,2023.2.3,Win32,120.1923077,2,2,6,,,,,,,,4,12,,,,,,,,,,,1,9.95,0,,,,,,-0.383442266,-0.241830065,1,0,0,9.95,Andesite_rect,5,0,5,0,1,
63d4393f67ae4bf53fce7c48,TCN,2024-06-11_13h12.08.726,LearnStrategy,2023.2.3,Win32,120.1923077,2,2,7,,,,,,,,7,06,,,,,,,,,,,7,2.902,1,,,,,,0.046840959,-0.404139434,1,0,0,2.902,Peridotite_rect,6,0,6,0,1,
63d4393f67ae4bf53fce7c48,TCN,2024-06-11_13h12.08.726,LearnStrategy,2023.2.3,Win32,120.1923077,2,2,8,,,,,,,,8,02,,,,,,,,,,,8,1.231,1,,,,,,0.438997821,-0.393246187,1,0,0,1.231,Pumice_rect,7,0,7,0,1,
63d4393f67ae4bf53fce7c48,TCN,2024-06-11_13h12.08.726,LearnStrategy,2023.2.3,Win32,120.1923077,2,2,9,,,,,,,,3,09,,,,,,,,,,,3,4.861,1,,,,,,0.135076253,-0.252723312,1,0,0,4.861,Diorite_rect,8,0,8,0,1,
63d4393f67ae4bf53fce7c48,TCN,2024-06-11_13h12.08.726,LearnStrategy,2023.2.3,Win32,120.1923077,2,2,10,,,,,,,,4,14,,,,,,,,,,,4,3.784,1,,,,,,0.37254902,-0.27124183,1,0,0,3.784,Gabbro_rect,9,0,9,0,1,
63d4393f67ae4bf53fce7c48,TCN,2024-06-11_13h12.08.726,LearnStrategy,2023.2.3,Win32,120.1923077,2,2,11,,,,,,,,6,11,,,,,,,,,,,7,9.488,0,,,,,,0.079520697,-0.397603486,1,0,0,9.488,Peridotite_rect,10,0,10,0,1,
63d4393f67ae4bf53fce7c48,TCN,2024-06-11_13h12.08.726,LearnStrategy,2023.2.3,Win32,120.1923077,2,2,12,,,,,,,,1,07,,,,,,,,,,,3,2.445,0,,,,,,0.086056645,-0.25708061,1,0,0,2.445,Diorite_rect,11,0,11,0,1,
63d4393f67ae4bf53fce7c48,TCN,2024-06-11_13h12.08.726,LearnStrategy,2023.2.3,Win32,120.1923077,2,2,13,,,,,,,,6,08,,,,,,,,,,,6,4.298,1,,,,,,-0.058823529,-0.404139434,1,0,0,4.298,Pegmatite_rect,12,0,12,0,1,
63d4393f67ae4bf53fce7c48,TCN,2024-06-11_13h12.08.726,LearnStrategy,2023.2.3,Win32,120.1923077,2,2,14,,,,,,,,8,13,,,,,,,,,,,8,1.564,1,,,,,,0.381263617,-0.389978214,1,0,0,1.564,Pumice_rect,13,0,13,0,1,
63d4393f67ae4bf53fce7c48,TCN,2024-06-11_13h12.08.726,LearnStrategy,2023.2.3,Win32,120.1923077,2,2,15,,,,,,,,5,10,,,,,,,,,,,5,1.019,1,,,,,,-0.346405229,-0.382352941,1,0,0,1.019,Obsidian_rect,14,0,14,0,1,
63d4393f67ae4bf53fce7c48,TCN,2024-06-11_13h12.08.726,LearnStrategy,2023.2.3,Win32,120.1923077,2,2,16,,,,,,,,2,01,,,,,,,,,,,2,1.662,1,,,,,,-0.180827887,-0.253812636,1,0,0,1.662,Basalt_rect,15,0,15,0,1,
63d4393f67ae4bf53fce7c48,TCN,2024-06-11_13h12.08.726,LearnStrategy,2023.2.3,Win32,120.1923077,3,1,1,-0.098039216,0.005446623,1,0,0,0.975,rock_grid_rect_2,7,08,-1,-1,0.975,-0.075163399,-0.393246187,1,0,0,4.487,Pegmatite_rect,6,4.487,0,0,0,0,0,1,,,,,,,,,,,,,
63d4393f67ae4bf53fce7c48,TCN,2024-06-11_13h12.08.726,LearnStrategy,2023.2.3,Win32,120.1923077,3,1,2,0.008714597,0.004357298,1,0,0,0.666,rock_grid_rect_2,5,04,-1,-1,0.666,-0.473856209,-0.409586057,1,0,0,1.019,Obsidian_rect,5,1.019,1,1,0,1,0,1,,,,,,,,,,,,,
63d4393f67ae4bf53fce7c48,TCN,2024-06-11_13h12.08.726,LearnStrategy,2023.2.3,Win32,120.1923077,3,1,3,-0.033769063,-0.015250545,1,0,0,0.551,rock_grid_rect_2,4,08,-1,-1,0.551,-0.153594771,-0.389978214,1,0,0,5.832,Pegmatite_rect,6,5.832,0,2,0,2,0,1,,,,,,,,,,,,,
63d4393f67ae4bf53fce7c48,TCN,2024-06-11_13h12.08.726,LearnStrategy,2023.2.3,Win32,120.1923077,3,1,4,-0.027233115,-0.010893246,1,0,0,0.644,rock_grid_rect_2,2,11,-1,-1,0.644,-0.124183007,-0.255991285,1,0,0,2.407,Basalt_rect,2,2.407,1,3,0,3,0,1,,,,,,,,,,,,,
63d4393f67ae4bf53fce7c48,TCN,2024-06-11_13h12.08.726,LearnStrategy,2023.2.3,Win32,120.1923077,3,1,5,-0.050108932,-0.010893246,1,0,0,0.501,rock_grid_rect_2,4,01,-1,-1,0.501,0.1416122,-0.389978214,1,0,0,3.454,Peridotite_rect,7,3.454,0,4,0,4,0,1,,,,,,,,,,,,,
63d4393f67ae4bf53fce7c48,TCN,2024-06-11_13h12.08.726,LearnStrategy,2023.2.3,Win32,120.1923077,3,1,6,-0.04248366,0.002178649,1,0,0,0.633,rock_grid_rect_2,8,06,-1,-1,0.633,0.376906318,-0.406318083,1,0,0,1.239,Pumice_rect,8,1.239,1,5,0,5,0,1,,,,,,,,,,,,,
63d4393f67ae4bf53fce7c48,TCN,2024-06-11_13h12.08.726,LearnStrategy,2023.2.3,Win32,120.1923077,3,1,7,-0.047930283,0.016339869,1,0,0,0.622,rock_grid_rect_2,1,14,-1,-1,0.622,-0.067538126,-0.247276688,1,0,0,3.937,Basalt_rect,2,3.937,0,6,0,6,0,1,,,,,,,,,,,,,
63d4393f67ae4bf53fce7c48,TCN,2024-06-11_13h12.08.726,LearnStrategy,2023.2.3,Win32,120.1923077,3,1,8,0.022875817,-0.016339869,1,0,0,0.474,rock_grid_rect_2,1,10,-1,-1,0.474,-0.430283224,-0.241830065,1,0,0,6.16,Andesite_rect,1,6.16,1,7,0,7,0,1,,,,,,,,,,,,,
63d4393f67ae4bf53fce7c48,TCN,2024-06-11_13h12.08.726,LearnStrategy,2023.2.3,Win32,120.1923077,3,1,9,-0.027233115,0.020697168,1,0,0,0.834,rock_grid_rect_2,3,02,-1,-1,0.834,0.12745098,-0.239651416,1,0,0,1.066,Diorite_rect,3,1.066,1,8,0,8,0,1,,,,,,,,,,,,,
63d4393f67ae4bf53fce7c48,TCN,2024-06-11_13h12.08.726,LearnStrategy,2023.2.3,Win32,120.1923077,3,1,10,-0.008714597,0.017429194,1,0,0,0.929,rock_grid_rect_2,6,10,-1,-1,0.929,0.122004357,-0.395424837,1,0,0,2.831,Peridotite_rect,7,2.831,0,9,0,9,0,1,,,,,,,,,,,,,
63d4393f67ae4bf53fce7c48,TCN,2024-06-11_13h12.08.726,LearnStrategy,2023.2.3,Win32,120.1923077,3,1,11,0.086056645,-0.003267974,1,0,0,2.785,rock_grid_rect_2,3,14,-1,-1,2.785,0.150326797,-0.245098039,1,0,0,1.611,Diorite_rect,3,1.611,1,10,0,10,0,1,,,,,,,,,,,,,
63d4393f67ae4bf53fce7c48,TCN,2024-06-11_13h12.08.726,LearnStrategy,2023.2.3,Win32,120.1923077,3,1,12,0.068627451,-0.011982571,1,0,0,0.449,rock_grid_rect_2,5,11,-1,-1,0.449,-0.422657952,-0.406318083,1,0,0,1.08,Obsidian_rect,5,1.08,1,11,0,11,0,1,,,,,,,,,,,,,
63d4393f67ae4bf53fce7c48,TCN,2024-06-11_13h12.08.726,LearnStrategy,2023.2.3,Win32,120.1923077,3,1,13,0.019607843,-0.016339869,1,0,0,0.591,rock_grid_rect_2,6,16,-1,-1,0.591,0.098039216,-0.391067538,1,0,0,3.103,Peridotite_rect,7,3.103,0,12,0,12,0,1,,,,,,,,,,,,,
63d4393f67ae4bf53fce7c48,TCN,2024-06-11_13h12.08.726,LearnStrategy,2023.2.3,Win32,120.1923077,3,1,14,-0.035947712,-0.018518519,1,0,0,0.514,rock_grid_rect_2,2,08,-1,-1,0.514,-0.095860566,-0.248366013,1,0,0,1.389,Basalt_rect,2,1.389,1,13,0,13,0,1,,,,,,,,,,,,,
63d4393f67ae4bf53fce7c48,TCN,2024-06-11_13h12.08.726,LearnStrategy,2023.2.3,Win32,120.1923077,3,1,15,-0.005446623,0.009803922,1,0,0,0.432,rock_grid_rect_2,7,10,-1,-1,0.432,-0.092592593,-0.38671024,1,0,0,2.485,Pegmatite_rect,6,2.485,0,14,0,14,0,1,,,,,,,,,,,,,
63d4393f67ae4bf53fce7c48,TCN,2024-06-11_13h12.08.726,LearnStrategy,2023.2.3,Win32,120.1923077,3,1,16,0.013071895,-0.001089325,1,0,0,0.698,rock_grid_rect_2,8,16,-1,-1,0.698,0.324618736,-0.40087146,1,0,0,1.952,Pumice_rect,8,1.952,1,15,0,15,0,1,,,,,,,,,,,,,
63d4393f67ae4bf53fce7c48,TCN,2024-06-11_13h12.08.726,LearnStrategy,2023.2.3,Win32,120.1923077,3,2,1,,,,,,,,7,02,,,,,,,,,,,6,5.089,0,,,,,,-0.088235294,-0.401960784,1,0,0,5.089,Pegmatite_rect,0,0,0,0,1,
63d4393f67ae4bf53fce7c48,TCN,2024-06-11_13h12.08.726,LearnStrategy,2023.2.3,Win32,120.1923077,3,2,2,,,,,,,,1,01,,,,,,,,,,,1,5.622,1,,,,,,-0.3583878,-0.255991285,1,0,0,5.622,Andesite_rect,1,0,1,0,1,
63d4393f67ae4bf53fce7c48,TCN,2024-06-11_13h12.08.726,LearnStrategy,2023.2.3,Win32,120.1923077,3,2,3,,,,,,,,1,02,,,,,,,,,,,6,7.233,0,,,,,,-0.080610022,-0.392156863,1,0,0,7.233,Pegmatite_rect,2,0,2,0,1,
63d4393f67ae4bf53fce7c48,TCN,2024-06-11_13h12.08.726,LearnStrategy,2023.2.3,Win32,120.1923077,3,2,4,,,,,,,,8,09,,,,,,,,,,,8,1.131,1,,,,,,0.405228758,-0.387799564,1,0,0,1.131,Pumice_rect,3,0,3,0,1,
63d4393f67ae4bf53fce7c48,TCN,2024-06-11_13h12.08.726,LearnStrategy,2023.2.3,Win32,120.1923077,3,2,5,,,,,,,,4,05,,,,,,,,,,,6,3.316,0,,,,,,-0.068627451,-0.393246187,1,0,0,3.316,Pegmatite_rect,4,0,4,0,1,
63d4393f67ae4bf53fce7c48,TCN,2024-06-11_13h12.08.726,LearnStrategy,2023.2.3,Win32,120.1923077,3,2,6,,,,,,,,4,11,,,,,,,,,,,2,1.954,0,,,,,,-0.05664488,-0.248366013,1,0,0,1.954,Basalt_rect,5,0,5,0,1,
63d4393f67ae4bf53fce7c48,TCN,2024-06-11_13h12.08.726,LearnStrategy,2023.2.3,Win32,120.1923077,3,2,7,,,,,,,,6,03,,,,,,,,,,,7,1.515,0,,,,,,0.131808279,-0.39869281,1,0,0,1.515,Peridotite_rect,6,0,6,0,1,
63d4393f67ae4bf53fce7c48,TCN,2024-06-11_13h12.08.726,LearnStrategy,2023.2.3,Win32,120.1923077,3,2,8,,,,,,,,3,12,,,,,,,,,,,3,1.177,1,,,,,,0.105664488,-0.234204793,1,0,0,1.177,Diorite_rect,7,0,7,0,1,
63d4393f67ae4bf53fce7c48,TCN,2024-06-11_13h12.08.726,LearnStrategy,2023.2.3,Win32,120.1923077,3,2,9,,,,,,,,2,04,,,,,,,,,,,2,1.453,1,,,,,,-0.054466231,-0.260348584,1,0,0,1.453,Basalt_rect,8,0,8,0,1,
63d4393f67ae4bf53fce7c48,TCN,2024-06-11_13h12.08.726,LearnStrategy,2023.2.3,Win32,120.1923077,3,2,10,,,,,,,,5,07,,,,,,,,,,,5,3.2,1,,,,,,-0.38453159,-0.38671024,1,0,0,3.2,Obsidian_rect,9,0,9,0,1,
63d4393f67ae4bf53fce7c48,TCN,2024-06-11_13h12.08.726,LearnStrategy,2023.2.3,Win32,120.1923077,3,2,11,,,,,,,,2,10,,,,,,,,,,,4,17.184,0,,,,,,0.399782135,-0.239651416,1,0,0,17.184,Gabbro_rect,10,0,10,0,1,
63d4393f67ae4bf53fce7c48,TCN,2024-06-11_13h12.08.726,LearnStrategy,2023.2.3,Win32,120.1923077,3,2,12,,,,,,,,6,12,,,,,,,,,,,7,4.283,0,,,,,,0.090413943,-0.408496732,1,0,0,4.283,Peridotite_rect,11,0,11,0,1,
63d4393f67ae4bf53fce7c48,TCN,2024-06-11_13h12.08.726,LearnStrategy,2023.2.3,Win32,120.1923077,3,2,13,,,,,,,,7,16,,,,,,,,,,,7,3.385,1,,,,,,0.074074074,-0.407407407,1,0,0,3.385,Peridotite_rect,12,0,12,0,1,
63d4393f67ae4bf53fce7c48,TCN,2024-06-11_13h12.08.726,LearnStrategy,2023.2.3,Win32,120.1923077,3,2,14,,,,,,,,5,02,,,,,,,,,,,5,1.128,1,,,,,,-0.368191721,-0.411764706,1,0,0,1.128,Obsidian_rect,13,0,13,0,1,
63d4393f67ae4bf53fce7c48,TCN,2024-06-11_13h12.08.726,LearnStrategy,2023.2.3,Win32,120.1923077,3,2,15,,,,,,,,8,05,,,,,,,,,,,8,2.363,1,,,,,,0.413943355,-0.391067538,1,0,0,2.363,Pumice_rect,14,0,14,0,1,
63d4393f67ae4bf53fce7c48,TCN,2024-06-11_13h12.08.726,LearnStrategy,2023.2.3,Win32,120.1923077,3,2,16,,,,,,,,3,06,,,,,,,,,,,3,7.503,1,,,,,,0.161220044,-0.254901961,1,0,0,7.503,Diorite_rect,15,0,15,0,1,
63d4393f67ae4bf53fce7c48,TCN,2024-06-11_13h12.08.726,LearnStrategy,2023.2.3,Win32,120.1923077,4,1,1,0.030501089,-0.020697168,1,0,0,0.672,rock_grid_rect_2,1,14,-1,-1,0.672,-0.090413943,-0.404139434,1,0,0,6.897,Pegmatite_rect,6,6.897,0,0,0,0,0,1,,,,,,,,,,,,,
63d4393f67ae4bf53fce7c48,TCN,2024-06-11_13h12.08.726,LearnStrategy,2023.2.3,Win32,120.1923077,4,1,2,0.02832244,-0.015250545,1,0,0,1.109,rock_grid_rect_2,6,16,-1,-1,1.109,-0.076252723,-0.394335512,1,0,0,2.75,Pegmatite_rect,6,2.75,1,1,0,1,0,1,,,,,,,,,,,,,
63d4393f67ae4bf53fce7c48,TCN,2024-06-11_13h12.08.726,LearnStrategy,2023.2.3,Win32,120.1923077,4,1,3,-0.013071895,-0.003267974,1,0,0,0.64,rock_grid_rect_2,2,14,-1,-1,0.64,-0.132897603,-0.266884532,1,0,0,6.658,Basalt_rect,2,6.658,1,2,0,2,0,1,,,,,,,,,,,,,
63d4393f67ae4bf53fce7c48,TCN,2024-06-11_13h12.08.726,LearnStrategy,2023.2.3,Win32,120.1923077,4,1,4,0.009803922,-0.002178649,1,0,0,0.794,rock_grid_rect_2,8,06,-1,-1,0.794,0.417211329,-0.395424837,1,0,0,1.349,Pumice_rect,8,1.349,1,3,0,3,0,1,,,,,,,,,,,,,
63d4393f67ae4bf53fce7c48,TCN,2024-06-11_13h12.08.726,LearnStrategy,2023.2.3,Win32,120.1923077,4,1,5,0.010893246,-0.010893246,1,0,0,0.789,rock_grid_rect_2,5,16,-1,-1,0.789,-0.376906318,-0.412854031,1,0,0,1.147,Obsidian_rect,5,1.147,1,4,0,4,0,1,,,,,,,,,,,,,
63d4393f67ae4bf53fce7c48,TCN,2024-06-11_13h12.08.726,LearnStrategy,2023.2.3,Win32,120.1923077,4,1,6,-0.02832244,-0.002178649,1,0,0,0.749,rock_grid_rect_2,3,10,-1,-1,0.749,0.11328976,-0.249455338,1,0,0,1.059,Diorite_rect,3,1.059,1,5,0,5,0,1,,,,,,,,,,,,,
63d4393f67ae4bf53fce7c48,TCN,2024-06-11_13h12.08.726,LearnStrategy,2023.2.3,Win32,120.1923077,4,1,7,-0.030501089,-0.007625272,1,0,0,0.707,rock_grid_rect_2,7,12,-1,-1,0.707,0.102396514,-0.392156863,1,0,0,2.923,Peridotite_rect,7,2.923,1,6,0,6,0,1,,,,,,,,,,,,,
63d4393f67ae4bf53fce7c48,TCN,2024-06-11_13h12.08.726,LearnStrategy,2023.2.3,Win32,120.1923077,4,1,8,0.005446623,-0.023965142,1,0,0,0.524,rock_grid_rect_2,1,06,-1,-1,0.524,-0.338779956,-0.24291939,1,0,0,1.631,Andesite_rect,1,1.631,1,7,0,7,0,1,,,,,,,,,,,,,
63d4393f67ae4bf53fce7c48,TCN,2024-06-11_13h12.08.726,LearnStrategy,2023.2.3,Win32,120.1923077,4,1,9,-0.038126362,-0.009803922,1,0,0,0.765,rock_grid_rect_2,7,10,-1,-1,0.765,0.083877996,-0.407407407,1,0,0,4.294,Peridotite_rect,7,4.294,1,8,0,8,0,1,,,,,,,,,,,,,
63d4393f67ae4bf53fce7c48,TCN,2024-06-11_13h12.08.726,LearnStrategy,2023.2.3,Win32,120.1923077,4,1,10,-0.026143791,0.019607843,1,0,0,0.895,rock_grid_rect_2,2,11,-1,-1,0.895,-0.082788671,-0.24291939,1,0,0,1.35,Basalt_rect,2,1.35,1,9,0,9,0,1,,,,,,,,,,,,,
63d4393f67ae4bf53fce7c48,TCN,2024-06-11_13h12.08.726,LearnStrategy,2023.2.3,Win32,120.1923077,4,1,11,-0.007625272,-0.015250545,1,0,0,0.574,rock_grid_rect_2,5,11,-1,-1,0.574,-0.4291939,-0.416122004,1,0,0,1.827,Obsidian_rect,5,1.827,1,10,0,10,0,1,,,,,,,,,,,,,
63d4393f67ae4bf53fce7c48,TCN,2024-06-11_13h12.08.726,LearnStrategy,2023.2.3,Win32,120.1923077,4,1,12,-0.021786492,0.005446623,1,0,0,0.607,rock_grid_rect_2,6,10,-1,-1,0.607,-0.119825708,-0.40087146,1,0,0,3.209,Pegmatite_rect,6,3.209,1,11,0,11,0,1,,,,,,,,,,,,,
63d4393f67ae4bf53fce7c48,TCN,2024-06-11_13h12.08.726,LearnStrategy,2023.2.3,Win32,120.1923077,4,1,13,-0.005446623,-0.002178649,1,0,0,0.458,rock_grid_rect_2,3,08,-1,-1,0.458,0.080610022,-0.253812636,1,0,0,1.254,Diorite_rect,3,1.254,1,12,0,12,0,1,,,,,,,,,,,,,
63d4393f67ae4bf53fce7c48,TCN,2024-06-11_13h12.08.726,LearnStrategy,2023.2.3,Win32,120.1923077,4,1,14,-0.019607843,0.019607843,1,0,0,0.507,rock_grid_rect_2,4,03,-1,-1,0.507,-0.360566449,-0.244008715,1,0,0,2.199,Andesite_rect,1,2.199,0,13,0,13,0,1,,,,,,,,,,,,,
63d4393f67ae4bf53fce7c48,TCN,2024-06-11_13h12.08.726,LearnStrategy,2023.2.3,Win32,120.1923077,4,1,15,-0.035947712,0.003267974,1,0,0,1.013,rock_grid_rect_2,4,01,-1,-1,1.013,-0.395424837,-0.238562092,1,0,0,1.439,Andesite_rect,1,1.439,0,14,0,14,0,1,,,,,,,,,,,,,
63d4393f67ae4bf53fce7c48,TCN,2024-06-11_13h12.08.726,LearnStrategy,2023.2.3,Win32,120.1923077,4,1,16,-0.026143791,0.021786492,1,0,0,0.781,rock_grid_rect_2,8,16,-1,-1,0.781,0.326797386,-0.385620915,1,0,0,1.228,Pumice_rect,8,1.228,1,15,0,15,0,1,,,,,,,,,,,,,
63d4393f67ae4bf53fce7c48,TCN,2024-06-11_13h12.08.726,LearnStrategy,2023.2.3,Win32,120.1923077,4,2,1,,,,,,,,6,11,,,,,,,,,,,6,13.55,1,,,,,,-0.162309368,-0.410675381,1,0,0,13.55,Pegmatite_rect,0,0,0,0,1,
63d4393f67ae4bf53fce7c48,TCN,2024-06-11_13h12.08.726,LearnStrategy,2023.2.3,Win32,120.1923077,4,2,2,,,,,,,,4,05,,,,,,,,,,,7,6.613,0,,,,,,0.14379085,-0.409586057,1,0,0,6.613,Peridotite_rect,1,0,1,0,1,
63d4393f67ae4bf53fce7c48,TCN,2024-06-11_13h12.08.726,LearnStrategy,2023.2.3,Win32,120.1923077,4,2,3,,,,,,,,3,06,,,,,,,,,,,3,1.096,1,,,,,,0.234204793,-0.269063181,1,0,0,1.096,Diorite_rect,2,0,2,0,1,
63d4393f67ae4bf53fce7c48,TCN,2024-06-11_13h12.08.726,LearnStrategy,2023.2.3,Win32,120.1923077,4,2,4,,,,,,,,8,05,,,,,,,,,,,8,1.768,1,,,,,,0.38671024,-0.392156863,1,0,0,1.768,Pumice_rect,3,0,3,0,1,
63d4393f67ae4bf53fce7c48,TCN,2024-06-11_13h12.08.726,LearnStrategy,2023.2.3,Win32,120.1923077,4,2,5,,,,,,,,2,05,,,,,,,,,,,4,8.836,0,,,,,,0.427015251,-0.247276688,1,0,0,8.836,Gabbro_rect,4,0,4,0,1,
63d4393f67ae4bf53fce7c48,TCN,2024-06-11_13h12.08.726,LearnStrategy,2023.2.3,Win32,120.1923077,4,2,6,,,,,,,,1,02,,,,,,,,,,,7,5.588,0,,,,,,0.089324619,-0.395424837,1,0,0,5.588,Peridotite_rect,5,0,5,0,1,
63d4393f67ae4bf53fce7c48,TCN,2024-06-11_13h12.08.726,LearnStrategy,2023.2.3,Win32,120.1923077,4,2,7,,,,,,,,6,09,,,,,,,,,,,6,1.447,1,,,,,,-0.089324619,-0.389978214,1,0,0,1.447,Pegmatite_rect,6,0,6,0,1,
63d4393f67ae4bf53fce7c48,TCN,2024-06-11_13h12.08.726,LearnStrategy,2023.2.3,Win32,120.1923077,4,2,8,,,,,,,,2,06,,,,,,,,,,,2,1.214,1,,,,,,-0.110021786,-0.246187364,1,0,0,1.214,Basalt_rect,7,0,7,0,1,
63d4393f67ae4bf53fce7c48,TCN,2024-06-11_13h12.08.726,LearnStrategy,2023.2.3,Win32,120.1923077,4,2,9,,,,,,,,4,10,,,,,,,,,,,1,5.741,0,,,,,,-0.394335512,-0.236383442,1,0,0,5.741,Andesite_rect,8,0,8,0,1,
63d4393f67ae4bf53fce7c48,TCN,2024-06-11_13h12.08.726,LearnStrategy,2023.2.3,Win32,120.1923077,4,2,10,,,,,,,,5,08,,,,,,,,,,,5,1.007,1,,,,,,-0.363834423,-0.40087146,1,0,0,1.007,Obsidian_rect,9,0,9,0,1,
63d4393f67ae4bf53fce7c48,TCN,2024-06-11_13h12.08.726,LearnStrategy,2023.2.3,Win32,120.1923077,4,2,11,,,,,,,,5,12,,,,,,,,,,,5,0.606,1,,,,,,-0.385620915,-0.406318083,1,0,0,0.606,Obsidian_rect,10,0,10,0,1,
63d4393f67ae4bf53fce7c48,TCN,2024-06-11_13h12.08.726,LearnStrategy,2023.2.3,Win32,120.1923077,4,2,12,,,,,,,,1,11,,,,,,,,,,,1,3.174,1,,,,,,-0.37037037,-0.250544662,1,0,0,3.174,Andesite_rect,11,0,11,0,1,
63d4393f67ae4bf53fce7c48,TCN,2024-06-11_13h12.08.726,LearnStrategy,2023.2.3,Win32,120.1923077,4,2,13,,,,,,,,7,07,,,,,,,,,,,7,2.464,1,,,,,,0.08496732,-0.387799564,1,0,0,2.464,Peridotite_rect,12,0,12,0,1,
63d4393f67ae4bf53fce7c48,TCN,2024-06-11_13h12.08.726,LearnStrategy,2023.2.3,Win32,120.1923077,4,2,14,,,,,,,,8,14,,,,,,,,,,,8,0.778,1,,,,,,0.420479303,-0.396514161,1,0,0,0.778,Pumice_rect,13,0,13,0,1,
63d4393f67ae4bf53fce7c48,TCN,2024-06-11_13h12.08.726,LearnStrategy,2023.2.3,Win32,120.1923077,4,2,15,,,,,,,,3,07,,,,,,,,,,,4,3.814,0,,,,,,0.420479303,-0.248366013,1,0,0,3.814,Gabbro_rect,14,0,14,0,1,
63d4393f67ae4bf53fce7c48,TCN,2024-06-11_13h12.08.726,LearnStrategy,2023.2.3,Win32,120.1923077,4,2,16,,,,,,,,7,16,,,,,,,,,,,7,1.805,1,,,,,,0.128540305,-0.406318083,1,0,0,1.805,Peridotite_rect,15,0,15,0,1,
63d4393f67ae4bf53fce7c48,TCN,2024-06-11_13h12.08.726,LearnStrategy,2023.2.3,Win32,120.1923077,5,1,1,-0.049019608,-0.009803922,1,0,0,0.925,rock_grid_rect_2,3,16,-1,-1,0.925,0.083877996,-0.263616558,1,0,0,1.56,Diorite_rect,3,1.56,1,0,0,0,0,1,,,,,,,,,,,,,
63d4393f67ae4bf53fce7c48,TCN,2024-06-11_13h12.08.726,LearnStrategy,2023.2.3,Win32,120.1923077,5,1,2,0.035947712,-0.021786492,1,0,0,0.792,rock_grid_rect_2,3,11,-1,-1,0.792,0.091503268,-0.233115468,1,0,0,0.908,Diorite_rect,3,0.908,1,1,0,1,0,1,,,,,,,,,,,,,
63d4393f67ae4bf53fce7c48,TCN,2024-06-11_13h12.08.726,LearnStrategy,2023.2.3,Win32,120.1923077,5,1,3,-0.004357298,0.006535948,1,0,0,0.562,rock_grid_rect_2,5,09,-1,-1,0.562,-0.34422658,-0.405228758,1,0,0,0.964,Obsidian_rect,5,0.964,1,2,0,2,0,1,,,,,,,,,,,,,
63d4393f67ae4bf53fce7c48,TCN,2024-06-11_13h12.08.726,LearnStrategy,2023.2.3,Win32,120.1923077,5,1,4,-0.026143791,-0.01416122,1,0,0,0.751,rock_grid_rect_2,6,13,-1,-1,0.751,0.11546841,-0.419389978,1,0,0,3.962,Peridotite_rect,7,3.962,0,3,0,3,0,1,,,,,,,,,,,,,
63d4393f67ae4bf53fce7c48,TCN,2024-06-11_13h12.08.726,LearnStrategy,2023.2.3,Win32,120.1923077,5,1,5,-0.001089325,-0.016339869,1,0,0,0.913,rock_grid_rect_2,4,09,-1,-1,0.913,-0.382352941,-0.260348584,1,0,0,1.437,Andesite_rect,1,1.437,0,4,0,4,0,1,,,,,,,,,,,,,
63d4393f67ae4bf53fce7c48,TCN,2024-06-11_13h12.08.726,LearnStrategy,2023.2.3,Win32,120.1923077,5,1,6,-0.071895425,-0.010893246,1,0,0,0.487,rock_grid_rect_2,1,04,-1,-1,0.487,-0.338779956,-0.251633987,1,0,0,1.694,Andesite_rect,1,1.694,1,5,0,5,0,1,,,,,,,,,,,,,
63d4393f67ae4bf53fce7c48,TCN,2024-06-11_13h12.08.726,LearnStrategy,2023.2.3,Win32,120.1923077,5,1,7,-0.021786492,-0.007625272,1,0,0,0.761,rock_grid_rect_2,1,16,-1,-1,0.761,0.338779956,-0.24291939,1,0,0,1.807,Gabbro_rect,4,1.807,0,6,0,6,0,1,,,,,,,,,,,,,
63d4393f67ae4bf53fce7c48,TCN,2024-06-11_13h12.08.726,LearnStrategy,2023.2.3,Win32,120.1923077,5,1,8,-0.006535948,-0.010893246,1,0,0,0.737,rock_grid_rect_2,7,15,-1,-1,0.737,0.094771242,-0.417211329,1,0,0,1.049,Peridotite_rect,7,1.049,1,7,0,7,0,1,,,,,,,,,,,,,
63d4393f67ae4bf53fce7c48,TCN,2024-06-11_13h12.08.726,LearnStrategy,2023.2.3,Win32,120.1923077,5,1,9,-0.011982571,0.006535948,1,0,0,0.489,rock_grid_rect_2,6,15,-1,-1,0.489,-0.108932462,-0.412854031,1,0,0,1.72,Pegmatite_rect,6,1.72,1,8,0,8,0,1,,,,,,,,,,,,,
63d4393f67ae4bf53fce7c48,TCN,2024-06-11_13h12.08.726,LearnStrategy,2023.2.3,Win32,120.1923077,5,1,10,0.004357298,-0.007625272,1,0,0,0.716,rock_grid_rect_2,8,15,-1,-1,0.716,0.347494553,-0.393246187,1,0,0,0.97,Pumice_rect,8,0.97,1,9,0,9,0,1,,,,,,,,,,,,,
63d4393f67ae4bf53fce7c48,TCN,2024-06-11_13h12.08.726,LearnStrategy,2023.2.3,Win32,120.1923077,5,1,11,-0.033769063,0.005446623,1,0,0,0.472,rock_grid_rect_2,2,02,-1,-1,0.472,-0.104575163,-0.264705882,1,0,0,1.254,Basalt_rect,2,1.254,1,10,0,10,0,1,,,,,,,,,,,,,
63d4393f67ae4bf53fce7c48,TCN,2024-06-11_13h12.08.726,LearnStrategy,2023.2.3,Win32,120.1923077,5,1,12,-0.003267974,0.020697168,1,0,0,0.484,rock_grid_rect_2,4,13,-1,-1,0.484,0.367102397,-0.248366013,1,0,0,1.464,Gabbro_rect,4,1.464,1,11,0,11,0,1,,,,,,,,,,,,,
63d4393f67ae4bf53fce7c48,TCN,2024-06-11_13h12.08.726,LearnStrategy,2023.2.3,Win32,120.1923077,5,1,13,-0.002178649,0.019607843,1,0,0,0.517,rock_grid_rect_2,2,12,-1,-1,0.517,-0.131808279,-0.241830065,1,0,0,8.555,Basalt_rect,2,8.555,1,12,0,12,0,1,,,,,,,,,,,,,
63d4393f67ae4bf53fce7c48,TCN,2024-06-11_13h12.08.726,LearnStrategy,2023.2.3,Win32,120.1923077,5,1,14,0.009803922,-0.016339869,1,0,0,0.713,rock_grid_rect_2,5,04,-1,-1,0.713,-0.445533769,-0.383442266,1,0,0,1.04,Obsidian_rect,5,1.04,1,13,0,13,0,1,,,,,,,,,,,,,
63d4393f67ae4bf53fce7c48,TCN,2024-06-11_13h12.08.726,LearnStrategy,2023.2.3,Win32,120.1923077,5,1,15,-0.029411765,-0.005446623,1,0,0,0.805,rock_grid_rect_2,7,08,-1,-1,0.805,0.118736383,-0.389978214,1,0,0,2.985,Peridotite_rect,7,2.985,1,14,0,14,0,1,,,,,,,,,,,,,
63d4393f67ae4bf53fce7c48,TCN,2024-06-11_13h12.08.726,LearnStrategy,2023.2.3,Win32,120.1923077,5,1,16,-0.032679739,-0.015250545,1,0,0,0.492,rock_grid_rect_2,8,08,-1,-1,0.492,0.392156863,-0.395424837,1,0,0,1.038,Pumice_rect,8,1.038,1,15,0,15,0,1,,,,,,,,,,,,,
63d4393f67ae4bf53fce7c48,TCN,2024-06-11_13h12.08.726,LearnStrategy,2023.2.3,Win32,120.1923077,5,2,1,,,,,,,,8,02,,,,,,,,,,,8,2.073,1,,,,,,0.376906318,-0.40087146,1,0,0,2.073,Pumice_rect,0,0,0,0,1,
63d4393f67ae4bf53fce7c48,TCN,2024-06-11_13h12.08.726,LearnStrategy,2023.2.3,Win32,120.1923077,5,2,2,,,,,,,,4,14,,,,,,,,,,,4,4.806,1,,,,,,0.334422658,-0.25708061,1,0,0,4.806,Gabbro_rect,1,0,1,0,1,
63d4393f67ae4bf53fce7c48,TCN,2024-06-11_13h12.08.726,LearnStrategy,2023.2.3,Win32,120.1923077,5,2,3,,,,,,,,2,16,,,,,,,,,,,4,3.821,0,,,,,,0.339869281,-0.251633987,1,0,0,3.821,Gabbro_rect,2,0,2,0,1,
63d4393f67ae4bf53fce7c48,TCN,2024-06-11_13h12.08.726,LearnStrategy,2023.2.3,Win32,120.1923077,5,2,4,,,,,,,,3,09,,,,,,,,,,,3,0.935,1,,,,,,0.126361656,-0.248366013,1,0,0,0.935,Diorite_rect,3,0,3,0,1,
63d4393f67ae4bf53fce7c48,TCN,2024-06-11_13h12.08.726,LearnStrategy,2023.2.3,Win32,120.1923077,5,2,5,,,,,,,,5,05,,,,,,,,,,,5,1.852,1,,,,,,-0.371459695,-0.399782135,1,0,0,1.852,Obsidian_rect,4,0,4,0,1,
63d4393f67ae4bf53fce7c48,TCN,2024-06-11_13h12.08.726,LearnStrategy,2023.2.3,Win32,120.1923077,5,2,6,,,,,,,,2,04,,,,,,,,,,,2,1.409,1,,,,,,-0.161220044,-0.25708061,1,0,0,1.409,Basalt_rect,5,0,5,0,1,
63d4393f67ae4bf53fce7c48,TCN,2024-06-11_13h12.08.726,LearnStrategy,2023.2.3,Win32,120.1923077,5,2,7,,,,,,,,5,02,,,,,,,,,,,5,0.942,1,,,,,,-0.392156863,-0.406318083,1,0,0,0.942,Obsidian_rect,6,0,6,0,1,
63d4393f67ae4bf53fce7c48,TCN,2024-06-11_13h12.08.726,LearnStrategy,2023.2.3,Win32,120.1923077,5,2,8,,,,,,,,4,16,,,,,,,,,,,4,6.873,1,,,,,,0.387799564,-0.260348584,1,0,0,6.873,Gabbro_rect,7,0,7,0,1,
63d4393f67ae4bf53fce7c48,TCN,2024-06-11_13h12.08.726,LearnStrategy,2023.2.3,Win32,120.1923077,5,2,9,,,,,,,,6,12,,,,,,,,,,,6,1.577,1,,,,,,-0.118736383,-0.413943355,1,0,0,1.577,Pegmatite_rect,8,0,8,0,1,
63d4393f67ae4bf53fce7c48,TCN,2024-06-11_13h12.08.726,LearnStrategy,2023.2.3,Win32,120.1923077,5,2,10,,,,,,,,6,07,,,,,,,,,,,7,3.985,0,,,,,,0.091503268,-0.40087146,1,0,0,3.985,Peridotite_rect,9,0,9,0,1,
63d4393f67ae4bf53fce7c48,TCN,2024-06-11_13h12.08.726,LearnStrategy,2023.2.3,Win32,120.1923077,5,2,11,,,,,,,,1,03,,,,,,,,,,,2,1.377,0,,,,,,-0.131808279,-0.240740741,1,0,0,1.377,Basalt_rect,10,0,10,0,1,
63d4393f67ae4bf53fce7c48,TCN,2024-06-11_13h12.08.726,LearnStrategy,2023.2.3,Win32,120.1923077,5,2,12,,,,,,,,7,06,,,,,,,,,,,6,2.325,0,,,,,,-0.090413943,-0.410675381,1,0,0,2.325,Pegmatite_rect,11,0,11,0,1,
63d4393f67ae4bf53fce7c48,TCN,2024-06-11_13h12.08.726,LearnStrategy,2023.2.3,Win32,120.1923077,5,2,13,,,,,,,,3,15,,,,,,,,,,,3,1.118,1,,,,,,0.114379085,-0.248366013,1,0,0,1.118,Diorite_rect,12,0,12,0,1,
63d4393f67ae4bf53fce7c48,TCN,2024-06-11_13h12.08.726,LearnStrategy,2023.2.3,Win32,120.1923077,5,2,14,,,,,,,,8,03,,,,,,,,,,,8,0.934,1,,,,,,0.391067538,-0.382352941,1,0,0,0.934,Pumice_rect,13,0,13,0,1,
63d4393f67ae4bf53fce7c48,TCN,2024-06-11_13h12.08.726,LearnStrategy,2023.2.3,Win32,120.1923077,5,2,15,,,,,,,,7,14,,,,,,,,,,,1,5.254,0,,,,,,-0.385620915,-0.238562092,1,0,0,5.254,Andesite_rect,14,0,14,0,1,
63d4393f67ae4bf53fce7c48,TCN,2024-06-11_13h12.08.726,LearnStrategy,2023.2.3,Win32,120.1923077,5,2,16,,,,,,,,1,01,,,,,,,,,,,3,4.797,0,,,,,,0.144880174,-0.260348584,1,0,0,4.797,Diorite_rect,15,0,15,0,1,
63d4393f67ae4bf53fce7c48,TCN,2024-06-11_13h12.08.726,LearnStrategy,2023.2.3,Win32,120.1923077,6,1,1,-0.038126362,-0.016339869,1,0,0,0.757,rock_grid_rect_2,6,05,-1,-1,0.757,-0.131808279,-0.405228758,1,0,0,1.459,Pegmatite_rect,6,1.459,1,0,0,0,0,1,,,,,,,,,,,,,
63d4393f67ae4bf53fce7c48,TCN,2024-06-11_13h12.08.726,LearnStrategy,2023.2.3,Win32,120.1923077,6,1,2,-0.023965142,-0.003267974,1,0,0,0.777,rock_grid_rect_2,3,14,-1,-1,0.777,0.116557734,-0.259259259,1,0,0,1.052,Diorite_rect,3,1.052,1,1,0,1,0,1,,,,,,,,,,,,,
63d4393f67ae4bf53fce7c48,TCN,2024-06-11_13h12.08.726,LearnStrategy,2023.2.3,Win32,120.1923077,6,1,3,-0.064270153,-0.007625272,1,0,0,0.842,rock_grid_rect_2,1,09,-1,-1,0.842,-0.322440087,-0.25708061,1,0,0,1.983,Andesite_rect,1,1.983,1,2,0,2,0,1,,,,,,,,,,,,,
63d4393f67ae4bf53fce7c48,TCN,2024-06-11_13h12.08.726,LearnStrategy,2023.2.3,Win32,120.1923077,6,1,4,-0.003267974,-0.023965142,1,0,0,0.74,rock_grid_rect_2,1,10,-1,-1,0.74,-0.328976035,-0.247276688,1,0,0,2.616,Andesite_rect,1,2.616,1,3,0,3,0,1,,,,,,,,,,,,,
63d4393f67ae4bf53fce7c48,TCN,2024-06-11_13h12.08.726,LearnStrategy,2023.2.3,Win32,120.1923077,6,1,5,-0.125272331,0.016339869,1,0,0,0.508,rock_grid_rect_2,4,15,-1,-1,0.508,0.131808279,-0.245098039,1,0,0,2.56,Diorite_rect,3,2.56,0,4,0,4,0,1,,,,,,,,,,,,,
63d4393f67ae4bf53fce7c48,TCN,2024-06-11_13h12.08.726,LearnStrategy,2023.2.3,Win32,120.1923077,6,1,6,0.021786492,-0.004357298,1,0,0,0.705,rock_grid_rect_2,2,09,-1,-1,0.705,-0.077342048,-0.25708061,1,0,0,1.312,Basalt_rect,2,1.312,1,5,0,5,0,1,,,,,,,,,,,,,
63d4393f67ae4bf53fce7c48,TCN,2024-06-11_13h12.08.726,LearnStrategy,2023.2.3,Win32,120.1923077,6,1,7,0.035947712,-0.015250545,1,0,0,0.604,rock_grid_rect_2,8,10,-1,-1,0.604,0.343137255,-0.403050109,1,0,0,0.95,Pumice_rect,8,0.95,1,6,0,6,0,1,,,,,,,,,,,,,
63d4393f67ae4bf53fce7c48,TCN,2024-06-11_13h12.08.726,LearnStrategy,2023.2.3,Win32,120.1923077,6,1,8,-0.021786492,-0.007625272,1,0,0,0.49,rock_grid_rect_2,7,04,-1,-1,0.49,0.080610022,-0.401960784,1,0,0,3.42,Peridotite_rect,7,3.42,1,7,0,7,0,1,,,,,,,,,,,,,
63d4393f67ae4bf53fce7c48,TCN,2024-06-11_13h12.08.726,LearnStrategy,2023.2.3,Win32,120.1923077,6,1,9,0.016339869,-0.020697168,1,0,0,0.584,rock_grid_rect_2,6,06,-1,-1,0.584,-0.09912854,-0.405228758,1,0,0,3.019,Pegmatite_rect,6,3.019,1,8,0,8,0,1,,,,,,,,,,,,,
63d4393f67ae4bf53fce7c48,TCN,2024-06-11_13h12.08.726,LearnStrategy,2023.2.3,Win32,120.1923077,6,1,10,-0.01416122,-0.011982571,1,0,0,0.743,rock_grid_rect_2,3,02,-1,-1,0.743,0.072984749,-0.265795207,1,0,0,0.916,Diorite_rect,3,0.916,1,9,0,9,0,1,,,,,,,,,,,,,
63d4393f67ae4bf53fce7c48,TCN,2024-06-11_13h12.08.726,LearnStrategy,2023.2.3,Win32,120.1923077,6,1,11,0.019607843,0.005446623,1,0,0,0.609,rock_grid_rect_2,2,08,-1,-1,0.609,-0.108932462,-0.258169935,1,0,0,0.944,Basalt_rect,2,0.944,1,10,0,10,0,1,,,,,,,,,,,,,
63d4393f67ae4bf53fce7c48,TCN,2024-06-11_13h12.08.726,LearnStrategy,2023.2.3,Win32,120.1923077,6,1,12,0.01416122,0.011982571,1,0,0,0.405,rock_grid_rect_2,8,04,-1,-1,0.405,0.347494553,-0.41503268,1,0,0,0.995,Pumice_rect,8,0.995,1,11,0,11,0,1,,,,,,,,,,,,,
63d4393f67ae4bf53fce7c48,TCN,2024-06-11_13h12.08.726,LearnStrategy,2023.2.3,Win32,120.1923077,6,1,13,-0.035947712,-0.015250545,1,0,0,0.527,rock_grid_rect_2,5,14,-1,-1,0.527,-0.34422658,-0.387799564,1,0,0,1.223,Obsidian_rect,5,1.223,1,12,0,12,0,1,,,,,,,,,,,,,
63d4393f67ae4bf53fce7c48,TCN,2024-06-11_13h12.08.726,LearnStrategy,2023.2.3,Win32,120.1923077,6,1,14,-0.030501089,0.019607843,1,0,0,0.488,rock_grid_rect_2,7,13,-1,-1,0.488,-0.075163399,-0.413943355,1,0,0,4.653,Pegmatite_rect,6,4.653,0,13,0,13,0,1,,,,,,,,,,,,,
63d4393f67ae4bf53fce7c48,TCN,2024-06-11_13h12.08.726,LearnStrategy,2023.2.3,Win32,120.1923077,6,1,15,0.015250545,-0.001089325,1,0,0,0.718,rock_grid_rect_2,4,08,-1,-1,0.718,0.409586057,-0.251633987,1,0,0,3.98,Gabbro_rect,4,3.98,1,14,0,14,0,1,,,,,,,,,,,,,
63d4393f67ae4bf53fce7c48,TCN,2024-06-11_13h12.08.726,LearnStrategy,2023.2.3,Win32,120.1923077,6,1,16,0.051198257,-0.020697168,1,0,0,0.451,rock_grid_rect_2,5,06,-1,-1,0.451,-0.34204793,-0.403050109,1,0,0,2.079,Obsidian_rect,5,2.079,1,15,0,15,0,1,,,,,,,,,,,,,
63d4393f67ae4bf53fce7c48,TCN,2024-06-11_13h12.08.726,LearnStrategy,2023.2.3,Win32,120.1923077,6,2,1,,,,,,,,2,01,,,,,,,,,,,2,1.269,1,,,,,,-0.140522876,-0.235294118,1,0,0,1.269,Basalt_rect,0,0,0,0,1,
63d4393f67ae4bf53fce7c48,TCN,2024-06-11_13h12.08.726,LearnStrategy,2023.2.3,Win32,120.1923077,6,2,2,,,,,,,,6,08,,,,,,,,,,,6,1.7,1,,,,,,-0.114379085,-0.399782135,1,0,0,1.7,Pegmatite_rect,1,0,1,0,1,
63d4393f67ae4bf53fce7c48,TCN,2024-06-11_13h12.08.726,LearnStrategy,2023.2.3,Win32,120.1923077,6,2,3,,,,,,,,8,13,,,,,,,,,,,8,1.982,1,,,,,,0.355119826,-0.412854031,1,0,0,1.982,Pumice_rect,2,0,2,0,1,
63d4393f67ae4bf53fce7c48,TCN,2024-06-11_13h12.08.726,LearnStrategy,2023.2.3,Win32,120.1923077,6,2,4,,,,,,,,7,02,,,,,,,,,,,7,1.658,1,,,,,,0.138344227,-0.382352941,1,0,0,1.658,Peridotite_rect,3,0,3,0,1,
63d4393f67ae4bf53fce7c48,TCN,2024-06-11_13h12.08.726,LearnStrategy,2023.2.3,Win32,120.1923077,6,2,5,,,,,,,,3,12,,,,,,,,,,,3,1.241,1,,,,,,0.117647059,-0.244008715,1,0,0,1.241,Diorite_rect,4,0,4,0,1,
63d4393f67ae4bf53fce7c48,TCN,2024-06-11_13h12.08.726,LearnStrategy,2023.2.3,Win32,120.1923077,6,2,6,,,,,,,,6,03,,,,,,,,,,,6,1.298,1,,,,,,-0.128540305,-0.413943355,1,0,0,1.298,Pegmatite_rect,5,0,5,0,1,
63d4393f67ae4bf53fce7c48,TCN,2024-06-11_13h12.08.726,LearnStrategy,2023.2.3,Win32,120.1923077,6,2,7,,,,,,,,1,07,,,,,,,,,,,3,7.088,0,,,,,,0.068627451,-0.239651416,1,0,0,7.088,Diorite_rect,6,0,6,0,1,
63d4393f67ae4bf53fce7c48,TCN,2024-06-11_13h12.08.726,LearnStrategy,2023.2.3,Win32,120.1923077,6,2,8,,,,,,,,4,12,,,,,,,,,,,1,1.779,0,,,,,,-0.40087146,-0.248366013,1,0,0,1.779,Andesite_rect,7,0,7,0,1,
63d4393f67ae4bf53fce7c48,TCN,2024-06-11_13h12.08.726,LearnStrategy,2023.2.3,Win32,120.1923077,6,2,9,,,,,,,,7,05,,,,,,,,,,,7,2.508,1,,,,,,0.069716776,-0.395424837,1,0,0,2.508,Peridotite_rect,8,0,8,0,1,
63d4393f67ae4bf53fce7c48,TCN,2024-06-11_13h12.08.726,LearnStrategy,2023.2.3,Win32,120.1923077,6,2,10,,,,,,,,4,11,,,,,,,,,,,2,1.592,0,,,,,,-0.137254902,-0.25708061,1,0,0,1.592,Basalt_rect,9,0,9,0,1,
63d4393f67ae4bf53fce7c48,TCN,2024-06-11_13h12.08.726,LearnStrategy,2023.2.3,Win32,120.1923077,6,2,11,,,,,,,,5,07,,,,,,,,,,,5,0.965,1,,,,,,-0.399782135,-0.397603486,1,0,0,0.965,Obsidian_rect,10,0,10,0,1,
63d4393f67ae4bf53fce7c48,TCN,2024-06-11_13h12.08.726,LearnStrategy,2023.2.3,Win32,120.1923077,6,2,12,,,,,,,,3,13,,,,,,,,,,,3,1.747,1,,,,,,0.075163399,-0.252723312,1,0,0,1.747,Diorite_rect,11,0,11,0,1,
63d4393f67ae4bf53fce7c48,TCN,2024-06-11_13h12.08.726,LearnStrategy,2023.2.3,Win32,120.1923077,6,2,13,,,,,,,,1,05,,,,,,,,,,,1,1.697,1,,,,,,-0.376906318,-0.248366013,1,0,0,1.697,Andesite_rect,12,0,12,0,1,
63d4393f67ae4bf53fce7c48,TCN,2024-06-11_13h12.08.726,LearnStrategy,2023.2.3,Win32,120.1923077,6,2,14,,,,,,,,5,10,,,,,,,,,,,5,1.086,1,,,,,,-0.376906318,-0.385620915,1,0,0,1.086,Obsidian_rect,13,0,13,0,1,
63d4393f67ae4bf53fce7c48,TCN,2024-06-11_13h12.08.726,LearnStrategy,2023.2.3,Win32,120.1923077,6,2,15,,,,,,,,8,09,,,,,,,,,,,8,1.169,1,,,,,,0.407407407,-0.381263617,1,0,0,1.169,Pumice_rect,14,0,14,0,1,
63d4393f67ae4bf53fce7c48,TCN,2024-06-11_13h12.08.726,LearnStrategy,2023.2.3,Win32,120.1923077,6,2,16,,,,,,,,2,10,,,,,,,,,,,4,1.477,0,,,,,,0.437908497,-0.258169935,1,0,0,1.477,Gabbro_rect,15,0,15,0,1,
63d4393f67ae4bf53fce7c48,TCN,2024-06-11_13h12.08.726,LearnStrategy,2023.2.3,Win32,120.1923077,7,1,1,-0.018518519,-0.01416122,1,0,0,0.658,rock_grid_rect_2,2,14,-1,-1,0.658,0.32788671,-0.250544662,1,0,0,1.347,Gabbro_rect,4,1.347,0,0,0,0,0,1,,,,,,,,,,,,,
63d4393f67ae4bf53fce7c48,TCN,2024-06-11_13h12.08.726,LearnStrategy,2023.2.3,Win32,120.1923077,7,1,2,0.017429194,0.002178649,1,0,0,0.631,rock_grid_rect_2,5,16,-1,-1,0.631,-0.364923747,-0.409586057,1,0,0,1.038,Obsidian_rect,5,1.038,1,1,0,1,0,1,,,,,,,,,,,,,
63d4393f67ae4bf53fce7c48,TCN,2024-06-11_13h12.08.726,LearnStrategy,2023.2.3,Win32,120.1923077,7,1,3,-0.033769063,-0.001089325,1,0,0,1.081,rock_grid_rect_2,8,04,-1,-1,1.081,0.366013072,-0.391067538,1,0,0,0.986,Pumice_rect,8,0.986,1,2,0,2,0,1,,,,,,,,,,,,,
63d4393f67ae4bf53fce7c48,TCN,2024-06-11_13h12.08.726,LearnStrategy,2023.2.3,Win32,120.1923077,7,1,4,0.020697168,0.023965142,1,0,0,0.44,rock_grid_rect_2,1,10,-1,-1,0.44,-0.315904139,-0.259259259,1,0,0,1.146,Andesite_rect,1,1.146,1,3,0,3,0,1,,,,,,,,,,,,,
63d4393f67ae4bf53fce7c48,TCN,2024-06-11_13h12.08.726,LearnStrategy,2023.2.3,Win32,120.1923077,7,1,5,-0.021786492,-0.016339869,1,0,0,0.423,rock_grid_rect_2,3,10,-1,-1,0.423,0.174291939,-0.24291939,1,0,0,0.872,Diorite_rect,3,0.872,1,4,0,4,0,1,,,,,,,,,,,,,
63d4393f67ae4bf53fce7c48,TCN,2024-06-11_13h12.08.726,LearnStrategy,2023.2.3,Win32,120.1923077,7,1,6,0.001089325,0.023965142,1,0,0,0.447,rock_grid_rect_2,5,14,-1,-1,0.447,-0.362745098,-0.399782135,1,0,0,1.401,Obsidian_rect,5,1.401,1,5,0,5,0,1,,,,,,,,,,,,,
63d4393f67ae4bf53fce7c48,TCN,2024-06-11_13h12.08.726,LearnStrategy,2023.2.3,Win32,120.1923077,7,1,7,-0.007625272,-0.013071895,1,0,0,0.741,rock_grid_rect_2,6,10,-1,-1,0.741,-0.107843137,-0.404139434,1,0,0,1.206,Pegmatite_rect,6,1.206,1,6,0,6,0,1,,,,,,,,,,,,,
63d4393f67ae4bf53fce7c48,TCN,2024-06-11_13h12.08.726,LearnStrategy,2023.2.3,Win32,120.1923077,7,1,8,-0.029411765,0.006535948,1,0,0,0.542,rock_grid_rect_2,4,03,-1,-1,0.542,-0.312636166,-0.27124183,1,0,0,2.316,Andesite_rect,1,2.316,0,7,0,7,0,1,,,,,,,,,,,,,
63d4393f67ae4bf53fce7c48,TCN,2024-06-11_13h12.08.726,LearnStrategy,2023.2.3,Win32,120.1923077,7,1,9,0.052287582,-0.009803922,1,0,0,0.651,rock_grid_rect_2,7,13,-1,-1,0.651,0.122004357,-0.420479303,1,0,0,1.15,Peridotite_rect,7,1.15,1,8,0,8,0,1,,,,,,,,,,,,,
63d4393f67ae4bf53fce7c48,TCN,2024-06-11_13h12.08.726,LearnStrategy,2023.2.3,Win32,120.1923077,7,1,10,0.018518519,-0.005446623,1,0,0,0.664,rock_grid_rect_2,1,06,-1,-1,0.664,-0.314814815,-0.262527233,1,0,0,1.39,Andesite_rect,1,1.39,1,9,0,9,0,1,,,,,,,,,,,,,
63d4393f67ae4bf53fce7c48,TCN,2024-06-11_13h12.08.726,LearnStrategy,2023.2.3,Win32,120.1923077,7,1,11,0.007625272,-0.019607843,1,0,0,0.499,rock_grid_rect_2,6,15,-1,-1,0.499,-0.108932462,-0.395424837,1,0,0,0.984,Pegmatite_rect,6,0.984,1,10,0,10,0,1,,,,,,,,,,,,,
63d4393f67ae4bf53fce7c48,TCN,2024-06-11_13h12.08.726,LearnStrategy,2023.2.3,Win32,120.1923077,7,1,12,0.075163399,-0.006535948,1,0,0,0.41,rock_grid_rect_2,7,12,-1,-1,0.41,0.140522876,-0.410675381,1,0,0,2.091,Peridotite_rect,7,2.091,1,11,0,11,0,1,,,,,,,,,,,,,
63d4393f67ae4bf53fce7c48,TCN,2024-06-11_13h12.08.726,LearnStrategy,2023.2.3,Win32,120.1923077,7,1,13,0.001089325,0.008714597,1,0,0,0.47,rock_grid_rect_2,4,15,-1,-1,0.47,0.123093682,-0.258169935,1,0,0,3.391,Diorite_rect,3,3.391,0,12,0,12,0,1,,,,,,,,,,,,,
63d4393f67ae4bf53fce7c48,TCN,2024-06-11_13h12.08.726,LearnStrategy,2023.2.3,Win32,120.1923077,7,1,14,0.010893246,0.001089325,1,0,0,0.373,rock_grid_rect_2,3,11,-1,-1,0.373,0.08496732,-0.246187364,1,0,0,0.912,Diorite_rect,3,0.912,1,13,0,13,0,1,,,,,,,,,,,,,
63d4393f67ae4bf53fce7c48,TCN,2024-06-11_13h12.08.726,LearnStrategy,2023.2.3,Win32,120.1923077,7,1,15,0.016339869,-0.010893246,1,0,0,0.632,rock_grid_rect_2,8,06,-1,-1,0.632,0.352941176,-0.408496732,1,0,0,1.496,Pumice_rect,8,1.496,1,14,0,14,0,1,,,,,,,,,,,,,
63d4393f67ae4bf53fce7c48,TCN,2024-06-11_13h12.08.726,LearnStrategy,2023.2.3,Win32,120.1923077,7,1,16,0.02832244,0.006535948,1,0,0,0.442,rock_grid_rect_2,2,11,-1,-1,0.442,-0.406318083,-0.244008715,1,0,0,1.269,Andesite_rect,1,1.269,0,15,0,15,0,1,,,,,,,,,,,,,
63d4393f67ae4bf53fce7c48,TCN,2024-06-11_13h12.08.726,LearnStrategy,2023.2.3,Win32,120.1923077,7,2,1,,,,,,,,5,07,,,,,,,,,,,5,0.965,1,,,,,,-0.399782135,-0.379084967,1,0,0,0.965,Obsidian_rect,0,0,0,0,1,
63d4393f67ae4bf53fce7c48,TCN,2024-06-11_13h12.08.726,LearnStrategy,2023.2.3,Win32,120.1923077,7,2,2,,,,,,,,7,02,,,,,,,,,,,7,2.493,1,,,,,,0.094771242,-0.405228758,1,0,0,2.493,Peridotite_rect,1,0,1,0,1,
63d4393f67ae4bf53fce7c48,TCN,2024-06-11_13h12.08.726,LearnStrategy,2023.2.3,Win32,120.1923077,7,2,3,,,,,,,,5,12,,,,,,,,,,,5,0.899,1,,,,,,-0.385620915,-0.406318083,1,0,0,0.899,Obsidian_rect,2,0,2,0,1,
63d4393f67ae4bf53fce7c48,TCN,2024-06-11_13h12.08.726,LearnStrategy,2023.2.3,Win32,120.1923077,7,2,4,,,,,,,,6,12,,,,,,,,,,,6,1.113,1,,,,,,-0.151416122,-0.408496732,1,0,0,1.113,Pegmatite_rect,3,0,3,0,1,
63d4393f67ae4bf53fce7c48,TCN,2024-06-11_13h12.08.726,LearnStrategy,2023.2.3,Win32,120.1923077,7,2,5,,,,,,,,3,13,,,,,,,,,,,3,1.112,1,,,,,,0.102396514,-0.253812636,1,0,0,1.112,Diorite_rect,4,0,4,0,1,
63d4393f67ae4bf53fce7c48,TCN,2024-06-11_13h12.08.726,LearnStrategy,2023.2.3,Win32,120.1923077,7,2,6,,,,,,,,1,02,,,,,,,,,,,1,1.747,1,,,,,,-0.404139434,-0.246187364,1,0,0,1.747,Andesite_rect,5,0,5,0,1,
63d4393f67ae4bf53fce7c48,TCN,2024-06-11_13h12.08.726,LearnStrategy,2023.2.3,Win32,120.1923077,7,2,7,,,,,,,,2,10,,,,,,,,,,,4,3.353,0,,,,,,0.403050109,-0.250544662,1,0,0,3.353,Gabbro_rect,6,0,6,0,1,
63d4393f67ae4bf53fce7c48,TCN,2024-06-11_13h12.08.726,LearnStrategy,2023.2.3,Win32,120.1923077,7,2,8,,,,,,,,6,09,,,,,,,,,,,6,1.121,1,,,,,,-0.100217865,-0.391067538,1,0,0,1.121,Pegmatite_rect,7,0,7,0,1,
63d4393f67ae4bf53fce7c48,TCN,2024-06-11_13h12.08.726,LearnStrategy,2023.2.3,Win32,120.1923077,7,2,9,,,,,,,,4,11,,,,,,,,,,,2,0.877,0,,,,,,-0.112200436,-0.248366013,1,0,0,0.877,Basalt_rect,8,0,8,0,1,
63d4393f67ae4bf53fce7c48,TCN,2024-06-11_13h12.08.726,LearnStrategy,2023.2.3,Win32,120.1923077,7,2,10,,,,,,,,7,07,,,,,,,,,,,7,1.57,1,,,,,,0.074074074,-0.387799564,1,0,0,1.57,Peridotite_rect,9,0,9,0,1,
63d4393f67ae4bf53fce7c48,TCN,2024-06-11_13h12.08.726,LearnStrategy,2023.2.3,Win32,120.1923077,7,2,11,,,,,,,,4,10,,,,,,,,,,,1,2.087,0,,,,,,-0.397603486,-0.251633987,1,0,0,2.087,Andesite_rect,10,0,10,0,1,
63d4393f67ae4bf53fce7c48,TCN,2024-06-11_13h12.08.726,LearnStrategy,2023.2.3,Win32,120.1923077,7,2,12,,,,,,,,8,05,,,,,,,,,,,8,1.175,1,,,,,,0.325708061,-0.406318083,1,0,0,1.175,Pumice_rect,11,0,11,0,1,
63d4393f67ae4bf53fce7c48,TCN,2024-06-11_13h12.08.726,LearnStrategy,2023.2.3,Win32,120.1923077,7,2,13,,,,,,,,3,15,,,,,,,,,,,3,0.816,1,,,,,,0.184095861,-0.258169935,1,0,0,0.816,Diorite_rect,12,0,12,0,1,
63d4393f67ae4bf53fce7c48,TCN,2024-06-11_13h12.08.726,LearnStrategy,2023.2.3,Win32,120.1923077,7,2,14,,,,,,,,8,14,,,,,,,,,,,8,0.755,1,,,,,,0.404139434,-0.389978214,1,0,0,0.755,Pumice_rect,13,0,13,0,1,
63d4393f67ae4bf53fce7c48,TCN,2024-06-11_13h12.08.726,LearnStrategy,2023.2.3,Win32,120.1923077,7,2,15,,,,,,,,1,05,,,,,,,,,,,1,6.152,1,,,,,,-0.416122004,-0.270152505,1,0,0,6.152,Andesite_rect,14,0,14,0,1,
63d4393f67ae4bf53fce7c48,TCN,2024-06-11_13h12.08.726,LearnStrategy,2023.2.3,Win32,120.1923077,7,2,16,,,,,,,,2,16,,,,,,,,,,,4,0.869,0,,,,,,0.369281046,-0.251633987,1,0,0,0.869,Gabbro_rect,15,0,15,0,1,
63d4393f67ae4bf53fce7c48,TCN,2024-06-11_13h12.08.726,LearnStrategy,2023.2.3,Win32,120.1923077,8,1,1,-0.022875817,-0.007625272,1,0,0,0.664,rock_grid_rect_2,7,15,-1,-1,0.664,0.120915033,-0.39869281,1,0,0,1.671,Peridotite_rect,7,1.671,1,0,0,0,0,1,,,,,,,,,,,,,
63d4393f67ae4bf53fce7c48,TCN,2024-06-11_13h12.08.726,LearnStrategy,2023.2.3,Win32,120.1923077,8,1,2,0.019607843,-0.017429194,1,0,0,0.491,rock_grid_rect_2,8,08,-1,-1,0.491,0.354030501,-0.404139434,1,0,0,0.931,Pumice_rect,8,0.931,1,1,0,1,0,1,,,,,,,,,,,,,
63d4393f67ae4bf53fce7c48,TCN,2024-06-11_13h12.08.726,LearnStrategy,2023.2.3,Win32,120.1923077,8,1,3,0.026143791,-0.015250545,1,0,0,0.567,rock_grid_rect_2,6,13,-1,-1,0.567,-0.11328976,-0.388888889,1,0,0,1.065,Pegmatite_rect,6,1.065,1,2,0,2,0,1,,,,,,,,,,,,,
63d4393f67ae4bf53fce7c48,TCN,2024-06-11_13h12.08.726,LearnStrategy,2023.2.3,Win32,120.1923077,8,1,4,-0.004357298,-0.020697168,1,0,0,0.455,rock_grid_rect_2,4,13,-1,-1,0.455,0.075163399,-0.261437908,1,0,0,1.233,Diorite_rect,3,1.233,0,3,0,3,0,1,,,,,,,,,,,,,
63d4393f67ae4bf53fce7c48,TCN,2024-06-11_13h12.08.726,LearnStrategy,2023.2.3,Win32,120.1923077,8,1,5,0.010893246,-0.008714597,1,0,0,0.448,rock_grid_rect_2,1,16,-1,-1,0.448,-0.331154684,-0.260348584,1,0,0,1.96,Andesite_rect,1,1.96,1,4,0,4,0,1,,,,,,,,,,,,,
63d4393f67ae4bf53fce7c48,TCN,2024-06-11_13h12.08.726,LearnStrategy,2023.2.3,Win32,120.1923077,8,1,6,-0.006535948,0.020697168,1,0,0,0.377,rock_grid_rect_2,2,12,-1,-1,0.377,-0.122004357,-0.237472767,1,0,0,0.8,Basalt_rect,2,0.8,1,5,0,5,0,1,,,,,,,,,,,,,
63d4393f67ae4bf53fce7c48,TCN,2024-06-11_13h12.08.726,LearnStrategy,2023.2.3,Win32,120.1923077,8,1,7,-0.003267974,0.017429194,1,0,0,0.333,rock_grid_rect_2,4,01,-1,-1,0.333,0.37037037,-0.234204793,1,0,0,3.781,Gabbro_rect,4,3.781,1,6,0,6,0,1,,,,,,,,,,,,,
63d4393f67ae4bf53fce7c48,TCN,2024-06-11_13h12.08.726,LearnStrategy,2023.2.3,Win32,120.1923077,8,1,8,-0.021786492,-0.003267974,1,0,0,0.439,rock_grid_rect_2,6,16,-1,-1,0.439,-0.105664488,-0.39869281,1,0,0,1.117,Pegmatite_rect,6,1.117,1,7,0,7,0,1,,,,,,,,,,,,,
63d4393f67ae4bf53fce7c48,TCN,2024-06-11_13h12.08.726,LearnStrategy,2023.2.3,Win32,120.1923077,8,1,9,-0.040305011,-0.01416122,1,0,0,0.814,rock_grid_rect_2,2,09,-1,-1,0.814,-0.150326797,-0.249455338,1,0,0,1.353,Basalt_rect,2,1.353,1,8,0,8,0,1,,,,,,,,,,,,,
63d4393f67ae4bf53fce7c48,TCN,2024-06-11_13h12.08.726,LearnStrategy,2023.2.3,Win32,120.1923077,8,1,10,-0.009803922,-0.002178649,1,0,0,0.681,rock_grid_rect_2,8,10,-1,-1,0.681,0.339869281,-0.381263617,1,0,0,0.983,Pumice_rect,8,0.983,1,9,0,9,0,1,,,,,,,,,,,,,
63d4393f67ae4bf53fce7c48,TCN,2024-06-11_13h12.08.726,LearnStrategy,2023.2.3,Win32,120.1923077,8,1,11,-0.030501089,-0.006535948,1,0,0,0.733,rock_grid_rect_2,5,06,-1,-1,0.733,-0.383442266,-0.411764706,1,0,0,2.017,Obsidian_rect,5,2.017,1,10,0,10,0,1,,,,,,,,,,,,,
63d4393f67ae4bf53fce7c48,TCN,2024-06-11_13h12.08.726,LearnStrategy,2023.2.3,Win32,120.1923077,8,1,12,0.038126362,-0.010893246,1,0,0,0.643,rock_grid_rect_2,3,16,-1,-1,0.643,0.122004357,-0.255991285,1,0,0,0.875,Diorite_rect,3,0.875,1,11,0,11,0,1,,,,,,,,,,,,,
63d4393f67ae4bf53fce7c48,TCN,2024-06-11_13h12.08.726,LearnStrategy,2023.2.3,Win32,120.1923077,8,1,13,0.033769063,-0.006535948,1,0,0,0.648,rock_grid_rect_2,1,04,-1,-1,0.648,-0.321350763,-0.234204793,1,0,0,1.391,Andesite_rect,1,1.391,1,12,0,12,0,1,,,,,,,,,,,,,
63d4393f67ae4bf53fce7c48,TCN,2024-06-11_13h12.08.726,LearnStrategy,2023.2.3,Win32,120.1923077,8,1,14,-0.015250545,-0.013071895,1,0,0,0.491,rock_grid_rect_2,7,10,-1,-1,0.491,0.124183007,-0.389978214,1,0,0,1.236,Peridotite_rect,7,1.236,1,13,0,13,0,1,,,,,,,,,,,,,
63d4393f67ae4bf53fce7c48,TCN,2024-06-11_13h12.08.726,LearnStrategy,2023.2.3,Win32,120.1923077,8,1,15,0.021786492,-0.023965142,1,0,0,0.409,rock_grid_rect_2,5,04,-1,-1,0.409,-0.377995643,-0.392156863,1,0,0,0.947,Obsidian_rect,5,0.947,1,14,0,14,0,1,,,,,,,,,,,,,
63d4393f67ae4bf53fce7c48,TCN,2024-06-11_13h12.08.726,LearnStrategy,2023.2.3,Win32,120.1923077,8,1,16,0.005446623,-0.003267974,1,0,0,0.465,rock_grid_rect_2,3,08,-1,-1,0.465,0.122004357,-0.232026144,1,0,0,1.116,Diorite_rect,3,1.116,1,15,0,15,0,1,,,,,,,,,,,,,
63d4393f67ae4bf53fce7c48,TCN,2024-06-11_13h12.08.726,LearnStrategy,2023.2.3,Win32,120.1923077,8,2,1,,,,,,,,7,16,,,,,,,,,,,7,3.519,1,,,,,,0.102396514,-0.392156863,1,0,0,3.519,Peridotite_rect,0,0,0,0,1,
63d4393f67ae4bf53fce7c48,TCN,2024-06-11_13h12.08.726,LearnStrategy,2023.2.3,Win32,120.1923077,8,2,2,,,,,,,,6,03,,,,,,,,,,,6,1.047,1,,,,,,-0.108932462,-0.419389978,1,0,0,1.047,Pegmatite_rect,1,0,1,0,1,
63d4393f67ae4bf53fce7c48,TCN,2024-06-11_13h12.08.726,LearnStrategy,2023.2.3,Win32,120.1923077,8,2,3,,,,,,,,3,09,,,,,,,,,,,3,0.903,1,,,,,,0.161220044,-0.241830065,1,0,0,0.903,Diorite_rect,2,0,2,0,1,
63d4393f67ae4bf53fce7c48,TCN,2024-06-11_13h12.08.726,LearnStrategy,2023.2.3,Win32,120.1923077,8,2,4,,,,,,,,3,12,,,,,,,,,,,3,1.268,1,,,,,,0.161220044,-0.241830065,1,0,0,1.268,Diorite_rect,3,0,3,0,1,
63d4393f67ae4bf53fce7c48,TCN,2024-06-11_13h12.08.726,LearnStrategy,2023.2.3,Win32,120.1923077,8,2,5,,,,,,,,6,07,,,,,,,,,,,7,4.073,0,,,,,,0.072984749,-0.409586057,1,0,0,4.073,Peridotite_rect,4,0,4,0,1,
63d4393f67ae4bf53fce7c48,TCN,2024-06-11_13h12.08.726,LearnStrategy,2023.2.3,Win32,120.1923077,8,2,6,,,,,,,,4,16,,,,,,,,,,,2,4.791,0,,,,,,-0.079520697,-0.246187364,1,0,0,4.791,Basalt_rect,5,0,5,0,1,
63d4393f67ae4bf53fce7c48,TCN,2024-06-11_13h12.08.726,LearnStrategy,2023.2.3,Win32,120.1923077,8,2,7,,,,,,,,1,01,,,,,,,,,,,3,0.921,0,,,,,,0.147058824,-0.253812636,1,0,0,0.921,Diorite_rect,6,0,6,0,1,
63d4393f67ae4bf53fce7c48,TCN,2024-06-11_13h12.08.726,LearnStrategy,2023.2.3,Win32,120.1923077,8,2,8,,,,,,,,5,05,,,,,,,,,,,5,1.178,1,,,,,,-0.409586057,-0.381263617,1,0,0,1.178,Obsidian_rect,7,0,7,0,1,
63d4393f67ae4bf53fce7c48,TCN,2024-06-11_13h12.08.726,LearnStrategy,2023.2.3,Win32,120.1923077,8,2,9,,,,,,,,2,06,,,,,,,,,,,2,0.953,1,,,,,,-0.165577342,-0.247276688,1,0,0,0.953,Basalt_rect,8,0,8,0,1,
63d4393f67ae4bf53fce7c48,TCN,2024-06-11_13h12.08.726,LearnStrategy,2023.2.3,Win32,120.1923077,8,2,10,,,,,,,,7,05,,,,,,,,,,,7,2.559,1,,,,,,0.100217865,-0.410675381,1,0,0,2.559,Peridotite_rect,9,0,9,0,1,
63d4393f67ae4bf53fce7c48,TCN,2024-06-11_13h12.08.726,LearnStrategy,2023.2.3,Win32,120.1923077,8,2,11,,,,,,,,2,01,,,,,,,,,,,2,0.986,1,,,,,,-0.124183007,-0.255991285,1,0,0,0.986,Basalt_rect,10,0,10,0,1,
63d4393f67ae4bf53fce7c48,TCN,2024-06-11_13h12.08.726,LearnStrategy,2023.2.3,Win32,120.1923077,8,2,12,,,,,,,,5,10,,,,,,,,,,,5,0.891,1,,,,,,-0.355119826,-0.38453159,1,0,0,0.891,Obsidian_rect,11,0,11,0,1,
63d4393f67ae4bf53fce7c48,TCN,2024-06-11_13h12.08.726,LearnStrategy,2023.2.3,Win32,120.1923077,8,2,13,,,,,,,,4,12,,,,,,,,,,,4,1.966,1,,,,,,0.428104575,-0.265795207,1,0,0,1.966,Gabbro_rect,12,0,12,0,1,
63d4393f67ae4bf53fce7c48,TCN,2024-06-11_13h12.08.726,LearnStrategy,2023.2.3,Win32,120.1923077,8,2,14,,,,,,,,8,03,,,,,,,,,,,8,0.814,1,,,,,,0.454248366,-0.420479303,1,0,0,0.814,Pumice_rect,13,0,13,0,1,
63d4393f67ae4bf53fce7c48,TCN,2024-06-11_13h12.08.726,LearnStrategy,2023.2.3,Win32,120.1923077,8,2,15,,,,,,,,8,09,,,,,,,,,,,8,0.872,1,,,,,,0.422657952,-0.385620915,1,0,0,0.872,Pumice_rect,14,0,14,0,1,
63d4393f67ae4bf53fce7c48,TCN,2024-06-11_13h12.08.726,LearnStrategy,2023.2.3,Win32,120.1923077,8,2,16,,,,,,,,1,07,,,,,,,,,,,1,5.735,1,,,,,,-0.337690632,-0.263616558,1,0,0,5.735,Andesite_rect,15,0,15,0,1,
63d4393f67ae4bf53fce7c48,TCN,2024-06-11_13h12.08.726,LearnStrategy,2023.2.3,Win32,120.1923077,9,1,1,-0.011982571,0.015250545,1,0,0,0.939,rock_grid_rect_2,4,09,-1,-1,0.939,0.117647059,-0.405228758,1,0,0,2.491,Peridotite_rect,7,2.491,0,0,0,0,0,1,,,,,,,,,,,,,
63d4393f67ae4bf53fce7c48,TCN,2024-06-11_13h12.08.726,LearnStrategy,2023.2.3,Win32,120.1923077,9,1,2,0.044662309,-0.010893246,1,0,0,0.858,rock_grid_rect_2,1,14,-1,-1,0.858,-0.38453159,-0.244008715,1,0,0,1.379,Andesite_rect,1,1.379,1,1,0,1,0,1,,,,,,,,,,,,,
63d4393f67ae4bf53fce7c48,TCN,2024-06-11_13h12.08.726,LearnStrategy,2023.2.3,Win32,120.1923077,9,1,3,-0.019607843,-0.007625272,1,0,0,0.475,rock_grid_rect_2,6,05,-1,-1,0.475,-0.087145969,-0.383442266,1,0,0,0.892,Pegmatite_rect,6,0.892,1,2,0,2,0,1,,,,,,,,,,,,,
63d4393f67ae4bf53fce7c48,TCN,2024-06-11_13h12.08.726,LearnStrategy,2023.2.3,Win32,120.1923077,9,1,4,0.007625272,0.016339869,1,0,0,0.431,rock_grid_rect_2,8,15,-1,-1,0.431,0.417211329,-0.380174292,1,0,0,0.868,Pumice_rect,8,0.868,1,3,0,3,0,1,,,,,,,,,,,,,
63d4393f67ae4bf53fce7c48,TCN,2024-06-11_13h12.08.726,LearnStrategy,2023.2.3,Win32,120.1923077,9,1,5,0.066448802,0.018518519,1,0,0,0.419,rock_grid_rect_2,5,09,-1,-1,0.419,-0.37037037,-0.381263617,1,0,0,0.912,Obsidian_rect,5,0.912,1,4,0,4,0,1,,,,,,,,,,,,,
63d4393f67ae4bf53fce7c48,TCN,2024-06-11_13h12.08.726,LearnStrategy,2023.2.3,Win32,120.1923077,9,1,6,0.018518519,-0.006535948,1,0,0,0.421,rock_grid_rect_2,5,11,-1,-1,0.421,-0.330065359,-0.417211329,1,0,0,1.292,Obsidian_rect,5,1.292,1,5,0,5,0,1,,,,,,,,,,,,,
63d4393f67ae4bf53fce7c48,TCN,2024-06-11_13h12.08.726,LearnStrategy,2023.2.3,Win32,120.1923077,9,1,7,-0.011982571,-0.015250545,1,0,0,0.464,rock_grid_rect_2,2,08,-1,-1,0.464,-0.100217865,-0.250544662,1,0,0,0.93,Basalt_rect,2,0.93,1,6,0,6,0,1,,,,,,,,,,,,,
63d4393f67ae4bf53fce7c48,TCN,2024-06-11_13h12.08.726,LearnStrategy,2023.2.3,Win32,120.1923077,9,1,8,0.044662309,0.016339869,1,0,0,0.352,rock_grid_rect_2,3,14,-1,-1,0.352,0.086056645,-0.237472767,1,0,0,0.941,Diorite_rect,3,0.941,1,7,0,7,0,1,,,,,,,,,,,,,
63d4393f67ae4bf53fce7c48,TCN,2024-06-11_13h12.08.726,LearnStrategy,2023.2.3,Win32,120.1923077,9,1,9,0.047930283,0,1,0,0,0.687,rock_grid_rect_2,6,06,-1,-1,0.687,-0.124183007,-0.394335512,1,0,0,1.144,Pegmatite_rect,6,1.144,1,8,0,8,0,1,,,,,,,,,,,,,
63d4393f67ae4bf53fce7c48,TCN,2024-06-11_13h12.08.726,LearnStrategy,2023.2.3,Win32,120.1923077,9,1,10,0.016339869,-0.017429194,1,0,0,0.576,rock_grid_rect_2,1,09,-1,-1,0.576,-0.11546841,-0.252723312,1,0,0,1.122,Basalt_rect,2,1.122,0,9,0,9,0,1,,,,,,,,,,,,,
63d4393f67ae4bf53fce7c48,TCN,2024-06-11_13h12.08.726,LearnStrategy,2023.2.3,Win32,120.1923077,9,1,11,0.033769063,-0.020697168,1,0,0,0.606,rock_grid_rect_2,4,08,-1,-1,0.606,0.305010893,-0.241830065,1,0,0,1.302,Gabbro_rect,4,1.302,1,10,0,10,0,1,,,,,,,,,,,,,
63d4393f67ae4bf53fce7c48,TCN,2024-06-11_13h12.08.726,LearnStrategy,2023.2.3,Win32,120.1923077,9,1,12,0.038126362,-0.019607843,1,0,0,0.385,rock_grid_rect_2,7,08,-1,-1,0.385,0.126361656,-0.392156863,1,0,0,1.71,Peridotite_rect,7,1.71,1,11,0,11,0,1,,,,,,,,,,,,,
63d4393f67ae4bf53fce7c48,TCN,2024-06-11_13h12.08.726,LearnStrategy,2023.2.3,Win32,120.1923077,9,1,13,0.007625272,-0.001089325,1,0,0,0.548,rock_grid_rect_2,7,04,-1,-1,0.548,0.104575163,-0.397603486,1,0,0,0.877,Peridotite_rect,7,0.877,1,12,0,12,0,1,,,,,,,,,,,,,
63d4393f67ae4bf53fce7c48,TCN,2024-06-11_13h12.08.726,LearnStrategy,2023.2.3,Win32,120.1923077,9,1,14,0.020697168,-0.01416122,1,0,0,0.377,rock_grid_rect_2,3,02,-1,-1,0.377,0.119825708,-0.253812636,1,0,0,0.952,Diorite_rect,3,0.952,1,13,0,13,0,1,,,,,,,,,,,,,
63d4393f67ae4bf53fce7c48,TCN,2024-06-11_13h12.08.726,LearnStrategy,2023.2.3,Win32,120.1923077,9,1,15,0.023965142,-0.002178649,1,0,0,0.571,rock_grid_rect_2,2,02,-1,-1,0.571,-0.100217865,-0.261437908,1,0,0,0.961,Basalt_rect,2,0.961,1,14,0,14,0,1,,,,,,,,,,,,,
63d4393f67ae4bf53fce7c48,TCN,2024-06-11_13h12.08.726,LearnStrategy,2023.2.3,Win32,120.1923077,9,1,16,0.034858388,-0.019607843,1,0,0,0.398,rock_grid_rect_2,8,16,-1,-1,0.398,0.385620915,-0.420479303,1,0,0,1.067,Pumice_rect,8,1.067,1,15,0,15,0,1,,,,,,,,,,,,,
63d4393f67ae4bf53fce7c48,TCN,2024-06-11_13h12.08.726,LearnStrategy,2023.2.3,Win32,120.1923077,9,2,1,,,,,,,,5,08,,,,,,,,,,,5,0.886,1,,,,,,-0.367102397,-0.408496732,1,0,0,0.886,Obsidian_rect,0,0,0,0,1,
63d4393f67ae4bf53fce7c48,TCN,2024-06-11_13h12.08.726,LearnStrategy,2023.2.3,Win32,120.1923077,9,2,2,,,,,,,,4,05,,,,,,,,,,,4,4.606,1,,,,,,0.3583878,-0.260348584,1,0,0,4.606,Gabbro_rect,1,0,1,0,1,
63d4393f67ae4bf53fce7c48,TCN,2024-06-11_13h12.08.726,LearnStrategy,2023.2.3,Win32,120.1923077,9,2,3,,,,,,,,1,11,,,,,,,,,,,1,3.073,1,,,,,,-0.388888889,-0.234204793,1,0,0,3.073,Andesite_rect,2,0,2,0,1,
63d4393f67ae4bf53fce7c48,TCN,2024-06-11_13h12.08.726,LearnStrategy,2023.2.3,Win32,120.1923077,9,2,4,,,,,,,,5,02,,,,,,,,,,,5,0.921,1,,,,,,-0.441176471,-0.411764706,1,0,0,0.921,Obsidian_rect,3,0,3,0,1,
63d4393f67ae4bf53fce7c48,TCN,2024-06-11_13h12.08.726,LearnStrategy,2023.2.3,Win32,120.1923077,9,2,5,,,,,,,,8,02,,,,,,,,,,,8,1.492,1,,,,,,0.392156863,-0.404139434,1,0,0,1.492,Pumice_rect,4,0,4,0,1,
63d4393f67ae4bf53fce7c48,TCN,2024-06-11_13h12.08.726,LearnStrategy,2023.2.3,Win32,120.1923077,9,2,6,,,,,,,,6,08,,,,,,,,,,,6,1.03,1,,,,,,-0.165577342,-0.401960784,1,0,0,1.03,Pegmatite_rect,5,0,5,0,1,
63d4393f67ae4bf53fce7c48,TCN,2024-06-11_13h12.08.726,LearnStrategy,2023.2.3,Win32,120.1923077,9,2,7,,,,,,,,3,06,,,,,,,,,,,3,0.904,1,,,,,,0.120915033,-0.270152505,1,0,0,0.904,Diorite_rect,6,0,6,0,1,
63d4393f67ae4bf53fce7c48,TCN,2024-06-11_13h12.08.726,LearnStrategy,2023.2.3,Win32,120.1923077,9,2,8,,,,,,,,3,07,,,,,,,,,,,3,0.821,1,,,,,,0.153594771,-0.262527233,1,0,0,0.821,Diorite_rect,7,0,7,0,1,
63d4393f67ae4bf53fce7c48,TCN,2024-06-11_13h12.08.726,LearnStrategy,2023.2.3,Win32,120.1923077,9,2,9,,,,,,,,2,04,,,,,,,,,,,2,1.028,1,,,,,,-0.114379085,-0.246187364,1,0,0,1.028,Basalt_rect,8,0,8,0,1,
63d4393f67ae4bf53fce7c48,TCN,2024-06-11_13h12.08.726,LearnStrategy,2023.2.3,Win32,120.1923077,9,2,10,,,,,,,,7,14,,,,,,,,,,,4,2.975,0,,,,,,0.391067538,-0.24291939,1,0,0,2.975,Gabbro_rect,9,0,9,0,1,
63d4393f67ae4bf53fce7c48,TCN,2024-06-11_13h12.08.726,LearnStrategy,2023.2.3,Win32,120.1923077,9,2,11,,,,,,,,6,11,,,,,,,,,,,7,2.153,0,,,,,,0.137254902,-0.39869281,1,0,0,2.153,Peridotite_rect,10,0,10,0,1,
63d4393f67ae4bf53fce7c48,TCN,2024-06-11_13h12.08.726,LearnStrategy,2023.2.3,Win32,120.1923077,9,2,12,,,,,,,,1,03,,,,,,,,,,,1,1.841,1,,,,,,-0.371459695,-0.233115468,1,0,0,1.841,Andesite_rect,11,0,11,0,1,
63d4393f67ae4bf53fce7c48,TCN,2024-06-11_13h12.08.726,LearnStrategy,2023.2.3,Win32,120.1923077,9,2,13,,,,,,,,7,06,,,,,,,,,,,7,2.233,1,,,,,,0.093681917,-0.413943355,1,0,0,2.233,Peridotite_rect,12,0,12,0,1,
63d4393f67ae4bf53fce7c48,TCN,2024-06-11_13h12.08.726,LearnStrategy,2023.2.3,Win32,120.1923077,9,2,14,,,,,,,,4,14,,,,,,,,,,,4,2.419,1,,,,,,0.360566449,-0.260348584,1,0,0,2.419,Gabbro_rect,13,0,13,0,1,
63d4393f67ae4bf53fce7c48,TCN,2024-06-11_13h12.08.726,LearnStrategy,2023.2.3,Win32,120.1923077,9,2,15,,,,,,,,8,13,,,,,,,,,,,8,0.939,1,,,,,,0.348583878,-0.383442266,1,0,0,0.939,Pumice_rect,14,0,14,0,1,
63d4393f67ae4bf53fce7c48,TCN,2024-06-11_13h12.08.726,LearnStrategy,2023.2.3,Win32,120.1923077,9,2,16,,,,,,,,2,05,,,,,,,,,,,2,1.115,1,,,,,,-0.103485839,-0.245098039,1,0,0,1.115,Basalt_rect,15,0,15,0,1,
63d4393f67ae4bf53fce7c48,TCN,2024-06-11_13h12.08.726,LearnStrategy,2023.2.3,Win32,120.1923077,,,,,,,,,,,,,,,,,,,,,,,,,,,,,,,,,,,,,,,,,,,1
63d4393f67ae4bf53fce7c48,TCN,2024-06-11_13h12.08.726,LearnStrategy,2023.2.3,Win32,120.1923077,,,,,,,,,,,,,,,,,,,,,,,,,,,,,,,,,,,,,,,,,,,
63d4393f67ae4bf53fce7c48,TCN,2024-06-11_13h12.08.726,LearnStrategy,2023.2.3,Win32,120.1923077,,,,,,,,,,,4,01,1,1,,,,,,,,,,,,,,,,,,,,,,,,,,,,,
63d4393f67ae4bf53fce7c48,TCN,2024-06-11_13h12.08.726,LearnStrategy,2023.2.3,Win32,120.1923077,,,,,,,,,,,4,13,1,2,,,,,,,,,,,,,,,,,,,,,,,,,,,,,
63d4393f67ae4bf53fce7c48,TCN,2024-06-11_13h12.08.726,LearnStrategy,2023.2.3,Win32,120.1923077,,,,,,,,,,,3,08,1,3,,,,,,,,,,,,,,,,,,,,,,,,,,,,,
63d4393f67ae4bf53fce7c48,TCN,2024-06-11_13h12.08.726,LearnStrategy,2023.2.3,Win32,120.1923077,,,,,,,,,,,7,08,1,4,,,,,,,,,,,,,,,,,,,,,,,,,,,,,
63d4393f67ae4bf53fce7c48,TCN,2024-06-11_13h12.08.726,LearnStrategy,2023.2.3,Win32,120.1923077,,,,,,,,,,,1,10,1,5,,,,,,,,,,,,,,,,,,,,,,,,,,,,,
63d4393f67ae4bf53fce7c48,TCN,2024-06-11_13h12.08.726,LearnStrategy,2023.2.3,Win32,120.1923077,,,,,,,,,,,6,06,1,6,,,,,,,,,,,,,,,,,,,,,,,,,,,,,
63d4393f67ae4bf53fce7c48,TCN,2024-06-11_13h12.08.726,LearnStrategy,2023.2.3,Win32,120.1923077,,,,,,,,,,,8,06,1,7,,,,,,,,,,,,,,,,,,,,,,,,,,,,,
63d4393f67ae4bf53fce7c48,TCN,2024-06-11_13h12.08.726,LearnStrategy,2023.2.3,Win32,120.1923077,,,,,,,,,,,3,02,1,8,,,,,,,,,,,,,,,,,,,,,,,,,,,,,
63d4393f67ae4bf53fce7c48,TCN,2024-06-11_13h12.08.726,LearnStrategy,2023.2.3,Win32,120.1923077,,,,,,,,,,,3,16,2,1,,,,,,,,,,,,,,,,,,,,,,,,,,,,,
63d4393f67ae4bf53fce7c48,TCN,2024-06-11_13h12.08.726,LearnStrategy,2023.2.3,Win32,120.1923077,,,,,,,,,,,2,09,2,2,,,,,,,,,,,,,,,,,,,,,,,,,,,,,
63d4393f67ae4bf53fce7c48,TCN,2024-06-11_13h12.08.726,LearnStrategy,2023.2.3,Win32,120.1923077,,,,,,,,,,,7,04,2,3,,,,,,,,,,,,,,,,,,,,,,,,,,,,,
63d4393f67ae4bf53fce7c48,TCN,2024-06-11_13h12.08.726,LearnStrategy,2023.2.3,Win32,120.1923077,,,,,,,,,,,1,09,2,4,,,,,,,,,,,,,,,,,,,,,,,,,,,,,
63d4393f67ae4bf53fce7c48,TCN,2024-06-11_13h12.08.726,LearnStrategy,2023.2.3,Win32,120.1923077,,,,,,,,,,,8,15,2,5,,,,,,,,,,,,,,,,,,,,,,,,,,,,,
63d4393f67ae4bf53fce7c48,TCN,2024-06-11_13h12.08.726,LearnStrategy,2023.2.3,Win32,120.1923077,,,,,,,,,,,7,12,2,6,,,,,,,,,,,,,,,,,,,,,,,,,,,,,
63d4393f67ae4bf53fce7c48,TCN,2024-06-11_13h12.08.726,LearnStrategy,2023.2.3,Win32,120.1923077,,,,,,,,,,,5,06,2,7,,,,,,,,,,,,,,,,,,,,,,,,,,,,,
63d4393f67ae4bf53fce7c48,TCN,2024-06-11_13h12.08.726,LearnStrategy,2023.2.3,Win32,120.1923077,,,,,,,,,,,5,11,2,8,,,,,,,,,,,,,,,,,,,,,,,,,,,,,
63d4393f67ae4bf53fce7c48,TCN,2024-06-11_13h12.08.726,LearnStrategy,2023.2.3,Win32,120.1923077,,,,,,,,,,,7,10,3,1,,,,,,,,,,,,,,,,,,,,,,,,,,,,,
63d4393f67ae4bf53fce7c48,TCN,2024-06-11_13h12.08.726,LearnStrategy,2023.2.3,Win32,120.1923077,,,,,,,,,,,5,09,3,2,,,,,,,,,,,,,,,,,,,,,,,,,,,,,
63d4393f67ae4bf53fce7c48,TCN,2024-06-11_13h12.08.726,LearnStrategy,2023.2.3,Win32,120.1923077,,,,,,,,,,,6,16,3,3,,,,,,,,,,,,,,,,,,,,,,,,,,,,,
63d4393f67ae4bf53fce7c48,TCN,2024-06-11_13h12.08.726,LearnStrategy,2023.2.3,Win32,120.1923077,,,,,,,,,,,2,12,3,4,,,,,,,,,,,,,,,,,,,,,,,,,,,,,
63d4393f67ae4bf53fce7c48,TCN,2024-06-11_13h12.08.726,LearnStrategy,2023.2.3,Win32,120.1923077,,,,,,,,,,,3,10,3,5,,,,,,,,,,,,,,,,,,,,,,,,,,,,,
63d4393f67ae4bf53fce7c48,TCN,2024-06-11_13h12.08.726,LearnStrategy,2023.2.3,Win32,120.1923077,,,,,,,,,,,6,10,3,6,,,,,,,,,,,,,,,,,,,,,,,,,,,,,
63d4393f67ae4bf53fce7c48,TCN,2024-06-11_13h12.08.726,LearnStrategy,2023.2.3,Win32,120.1923077,,,,,,,,,,,2,02,3,7,,,,,,,,,,,,,,,,,,,,,,,,,,,,,
63d4393f67ae4bf53fce7c48,TCN,2024-06-11_13h12.08.726,LearnStrategy,2023.2.3,Win32,120.1923077,,,,,,,,,,,1,04,3,8,,,,,,,,,,,,,,,,,,,,,,,,,,,,,
63d4393f67ae4bf53fce7c48,TCN,2024-06-11_13h12.08.726,LearnStrategy,2023.2.3,Win32,120.1923077,,,,,,,,,,,4,03,4,1,,,,,,,,,,,,,,,,,,,,,,,,,,,,,
63d4393f67ae4bf53fce7c48,TCN,2024-06-11_13h12.08.726,LearnStrategy,2023.2.3,Win32,120.1923077,,,,,,,,,,,8,04,4,2,,,,,,,,,,,,,,,,,,,,,,,,,,,,,
63d4393f67ae4bf53fce7c48,TCN,2024-06-11_13h12.08.726,LearnStrategy,2023.2.3,Win32,120.1923077,,,,,,,,,,,2,14,4,3,,,,,,,,,,,,,,,,,,,,,,,,,,,,,
63d4393f67ae4bf53fce7c48,TCN,2024-06-11_13h12.08.726,LearnStrategy,2023.2.3,Win32,120.1923077,,,,,,,,,,,6,15,4,4,,,,,,,,,,,,,,,,,,,,,,,,,,,,,
63d4393f67ae4bf53fce7c48,TCN,2024-06-11_13h12.08.726,LearnStrategy,2023.2.3,Win32,120.1923077,,,,,,,,,,,8,10,4,5,,,,,,,,,,,,,,,,,,,,,,,,,,,,,
63d4393f67ae4bf53fce7c48,TCN,2024-06-11_13h12.08.726,LearnStrategy,2023.2.3,Win32,120.1923077,,,,,,,,,,,1,06,4,6,,,,,,,,,,,,,,,,,,,,,,,,,,,,,
63d4393f67ae4bf53fce7c48,TCN,2024-06-11_13h12.08.726,LearnStrategy,2023.2.3,Win32,120.1923077,,,,,,,,,,,8,16,4,7,,,,,,,,,,,,,,,,,,,,,,,,,,,,,
63d4393f67ae4bf53fce7c48,TCN,2024-06-11_13h12.08.726,LearnStrategy,2023.2.3,Win32,120.1923077,,,,,,,,,,,4,09,4,8,,,,,,,,,,,,,,,,,,,,,,,,,,,,,
63d4393f67ae4bf53fce7c48,TCN,2024-06-11_13h12.08.726,LearnStrategy,2023.2.3,Win32,120.1923077,,,,,,,,,,,7,13,5,1,,,,,,,,,,,,,,,,,,,,,,,,,,,,,
63d4393f67ae4bf53fce7c48,TCN,2024-06-11_13h12.08.726,LearnStrategy,2023.2.3,Win32,120.1923077,,,,,,,,,,,7,15,5,2,,,,,,,,,,,,,,,,,,,,,,,,,,,,,
63d4393f67ae4bf53fce7c48,TCN,2024-06-11_13h12.08.726,LearnStrategy,2023.2.3,Win32,120.1923077,,,,,,,,,,,5,16,5,3,,,,,,,,,,,,,,,,,,,,,,,,,,,,,
63d4393f67ae4bf53fce7c48,TCN,2024-06-11_13h12.08.726,LearnStrategy,2023.2.3,Win32,120.1923077,,,,,,,,,,,4,15,5,4,,,,,,,,,,,,,,,,,,,,,,,,,,,,,
63d4393f67ae4bf53fce7c48,TCN,2024-06-11_13h12.08.726,LearnStrategy,2023.2.3,Win32,120.1923077,,,,,,,,,,,2,11,5,5,,,,,,,,,,,,,,,,,,,,,,,,,,,,,
63d4393f67ae4bf53fce7c48,TCN,2024-06-11_13h12.08.726,LearnStrategy,2023.2.3,Win32,120.1923077,,,,,,,,,,,4,08,5,6,,,,,,,,,,,,,,,,,,,,,,,,,,,,,
63d4393f67ae4bf53fce7c48,TCN,2024-06-11_13h12.08.726,LearnStrategy,2023.2.3,Win32,120.1923077,,,,,,,,,,,1,14,5,7,,,,,,,,,,,,,,,,,,,,,,,,,,,,,
63d4393f67ae4bf53fce7c48,TCN,2024-06-11_13h12.08.726,LearnStrategy,2023.2.3,Win32,120.1923077,,,,,,,,,,,6,13,5,8,,,,,,,,,,,,,,,,,,,,,,,,,,,,,
63d4393f67ae4bf53fce7c48,TCN,2024-06-11_13h12.08.726,LearnStrategy,2023.2.3,Win32,120.1923077,,,,,,,,,,,6,05,6,1,,,,,,,,,,,,,,,,,,,,,,,,,,,,,
63d4393f67ae4bf53fce7c48,TCN,2024-06-11_13h12.08.726,LearnStrategy,2023.2.3,Win32,120.1923077,,,,,,,,,,,2,08,6,2,,,,,,,,,,,,,,,,,,,,,,,,,,,,,
63d4393f67ae4bf53fce7c48,TCN,2024-06-11_13h12.08.726,LearnStrategy,2023.2.3,Win32,120.1923077,,,,,,,,,,,8,08,6,3,,,,,,,,,,,,,,,,,,,,,,,,,,,,,
63d4393f67ae4bf53fce7c48,TCN,2024-06-11_13h12.08.726,LearnStrategy,2023.2.3,Win32,120.1923077,,,,,,,,,,,3,11,6,4,,,,,,,,,,,,,,,,,,,,,,,,,,,,,
63d4393f67ae4bf53fce7c48,TCN,2024-06-11_13h12.08.726,LearnStrategy,2023.2.3,Win32,120.1923077,,,,,,,,,,,1,16,6,5,,,,,,,,,,,,,,,,,,,,,,,,,,,,,
63d4393f67ae4bf53fce7c48,TCN,2024-06-11_13h12.08.726,LearnStrategy,2023.2.3,Win32,120.1923077,,,,,,,,,,,5,04,6,6,,,,,,,,,,,,,,,,,,,,,,,,,,,,,
63d4393f67ae4bf53fce7c48,TCN,2024-06-11_13h12.08.726,LearnStrategy,2023.2.3,Win32,120.1923077,,,,,,,,,,,5,14,6,7,,,,,,,,,,,,,,,,,,,,,,,,,,,,,
63d4393f67ae4bf53fce7c48,TCN,2024-06-11_13h12.08.726,LearnStrategy,2023.2.3,Win32,120.1923077,,,,,,,,,,,3,14,6,8,,,,,,,,,,,,,,,,,,,,,,,,,,,,,