participant,condition,date,expName,psychopyVersion,OS,frameRate,block,phase,trial,learn_mouse.x,learn_mouse.y,learn_mouse.leftButton,learn_mouse.midButton,learn_mouse.rightButton,learn_mouse.time,learn_mouse.clicked_name,cat,token,row,col,t_select,cat_rec,token_rec,cat_mouse_l.x,cat_mouse_l.y,cat_mouse_l.leftButton,cat_mouse_l.midButton,cat_mouse_l.rightButton,cat_mouse_l.time,cat_mouse_l.clicked_name,resp,t_resp,corr,train_trials.thisRepN,train_trials.thisTrialN,train_trials.thisN,train_trials.thisIndex,train_trials.ran,cat_mouse_t.x,cat_mouse_t.y,cat_mouse_t.leftButton,cat_mouse_t.midButton,cat_mouse_t.rightButton,cat_mouse_t.time,cat_mouse_t.clicked_name,test_trials.thisRepN,test_trials.thisTrialN,test_trials.thisN,test_trials.thisIndex,test_trials.ran,Bonus
63d520bc8833c489caf0023a,SCR,2024-06-25_12h39.26.107,LearnStrategy,2023.2.3,Win32,60.24096386,,,,,,,,,,,,,,,,,,,,,,,,,,,,,,,,,,,,,,,,,,,,,
63d520bc8833c489caf0023a,SCR,2024-06-25_12h39.26.107,LearnStrategy,2023.2.3,Win32,60.24096386,1,1,1,-0.047222222,0.236111111,1,0,0,2.094,Peridotite_13,7,13,5,4,2.094,6,15,0.07037037,-0.248148148,1,0,0,1.2379,Diorite_rect,3,1.238,0,0,0,0,0,1,,,,,,,,,,,,,
63d520bc8833c489caf0023a,SCR,2024-06-25_12h39.26.107,LearnStrategy,2023.2.3,Win32,60.24096386,1,1,2,-0.241666667,0.243518519,1,0,0,1.0319,Pegmatite_10,6,10,5,3,1.032,5,12,-0.363888889,-0.238888889,1,0,0,2.1278,Andesite_rect,1,2.128,0,1,0,1,0,1,,,,,,,,,,,,,
63d520bc8833c489caf0023a,SCR,2024-06-25_12h39.26.107,LearnStrategy,2023.2.3,Win32,60.24096386,1,1,3,-0.39537037,-0.105555556,1,0,0,1.0319,Pumice_03,8,03,3,2,1.032,3,14,0.405555556,-0.247222222,1,0,0,1.4842,Gabbro_rect,4,1.484,0,2,0,2,0,1,,,,,,,,,,,,,
63d520bc8833c489caf0023a,SCR,2024-06-25_12h39.26.107,LearnStrategy,2023.2.3,Win32,60.24096386,1,1,4,0.059259259,-0.410185185,1,0,0,2.3322,Peridotite_15,7,15,1,5,2.332,6,08,-0.075,-0.37962963,1,0,0,1.6944,Pegmatite_rect,6,1.694,0,3,0,3,0,1,,,,,,,,,,,,,
63d520bc8833c489caf0023a,SCR,2024-06-25_12h39.26.107,LearnStrategy,2023.2.3,Win32,60.24096386,1,1,5,-0.053703704,0.252777778,1,0,0,0.8487,Peridotite_13,7,13,5,4,0.849,2,16,0.080555556,-0.4,1,0,0,1.7447,Peridotite_rect,7,1.745,1,4,0,4,0,1,,,,,,,,,,,,,
63d520bc8833c489caf0023a,SCR,2024-06-25_12h39.26.107,LearnStrategy,2023.2.3,Win32,60.24096386,1,1,6,0.387962963,-0.388888889,1,0,0,1.1824,Pumice_16,8,16,1,7,1.182,1,03,-0.125925926,-0.247222222,1,0,0,1.3611,Basalt_rect,2,1.361,0,5,0,5,0,1,,,,,,,,,,,,,
63d520bc8833c489caf0023a,SCR,2024-06-25_12h39.26.107,LearnStrategy,2023.2.3,Win32,60.24096386,1,1,7,0.560185185,0.39537037,1,0,0,1.3986,Obsidian_02,5,02,6,8,1.399,3,15,-0.357407407,-0.414814815,1,0,0,1.2453,Obsidian_rect,5,1.245,1,6,0,6,0,1,,,,,,,,,,,,,
63d520bc8833c489caf0023a,SCR,2024-06-25_12h39.26.107,LearnStrategy,2023.2.3,Win32,60.24096386,1,1,8,-0.575,0.274074074,1,0,0,0.8653,Basalt_08,2,08,5,1,0.865,4,08,-0.387037037,-0.396296296,1,0,0,1.1778,Obsidian_rect,5,1.178,0,7,0,7,0,1,,,,,,,,,,,,,
63d520bc8833c489caf0023a,SCR,2024-06-25_12h39.26.107,LearnStrategy,2023.2.3,Win32,60.24096386,1,1,9,-0.569444444,0.432407407,1,0,0,0.8486,Basalt_02,2,02,6,1,0.849,8,08,0.128703704,-0.242592593,1,0,0,1.0618,Diorite_rect,3,1.062,0,8,0,8,0,1,,,,,,,,,,,,,
63d520bc8833c489caf0023a,SCR,2024-06-25_12h39.26.107,LearnStrategy,2023.2.3,Win32,60.24096386,1,1,10,-0.564814815,-0.262962963,1,0,0,1.1988,Basalt_01,2,01,2,1,1.199,5,02,-0.093518519,-0.259259259,1,0,0,1.9209,Basalt_rect,2,1.921,1,9,0,9,0,1,,,,,,,,,,,,,
63d520bc8833c489caf0023a,SCR,2024-06-25_12h39.26.107,LearnStrategy,2023.2.3,Win32,60.24096386,1,1,11,0.408333333,0.406481481,1,0,0,0.8653,Diorite_14,3,14,6,7,0.865,7,10,-0.098148148,-0.407407407,1,0,0,1.5949,Pegmatite_rect,6,1.595,0,10,0,10,0,1,,,,,,,,,,,,,
63d520bc8833c489caf0023a,SCR,2024-06-25_12h39.26.107,LearnStrategy,2023.2.3,Win32,60.24096386,1,1,12,0.385185185,-0.250925926,1,0,0,0.8655,Pegmatite_15,6,15,2,7,0.865,2,02,0.075,-0.249074074,1,0,0,0.6785,Diorite_rect,3,0.678,0,11,0,11,0,1,,,,,,,,,,,,,
63d520bc8833c489caf0023a,SCR,2024-06-25_12h39.26.107,LearnStrategy,2023.2.3,Win32,60.24096386,1,1,13,0.55462963,-0.258333333,1,0,0,0.7651,Obsidian_06,5,06,2,8,0.765,8,13,0.127777778,-0.25462963,1,0,0,0.7114,Diorite_rect,3,0.711,0,12,0,12,0,1,,,,,,,,,,,,,
63d520bc8833c489caf0023a,SCR,2024-06-25_12h39.26.107,LearnStrategy,2023.2.3,Win32,60.24096386,1,1,14,0.401851852,0.233333333,1,0,0,1.8986,Obsidian_12,5,12,5,7,1.899,1,09,-0.411111111,-0.416666667,1,0,0,1.0286,Obsidian_rect,5,1.029,1,13,0,13,0,1,,,,,,,,,,,,,
63d520bc8833c489caf0023a,SCR,2024-06-25_12h39.26.107,LearnStrategy,2023.2.3,Win32,60.24096386,1,1,15,0.531481481,0.383333333,1,0,0,0.6987,Obsidian_02,5,02,6,8,0.699,4,16,-0.325,-0.392592593,1,0,0,1.5455,Obsidian_rect,5,1.546,1,14,0,14,0,1,,,,,,,,,,,,,
63d520bc8833c489caf0023a,SCR,2024-06-25_12h39.26.107,LearnStrategy,2023.2.3,Win32,60.24096386,1,1,16,0.232407407,0.400925926,1,0,0,1.2986,Obsidian_16,5,16,6,6,1.299,7,13,-0.375925926,-0.399074074,1,0,0,0.9621,Obsidian_rect,5,0.962,1,15,0,15,0,1,,,,,,,,,,,,,
63d520bc8833c489caf0023a,SCR,2024-06-25_12h39.26.107,LearnStrategy,2023.2.3,Win32,60.24096386,1,2,1,,,,,,,,4,09,,,,,,,,,,,,,2,2.712,0,,,,,,-0.153703704,-0.261111111,1,0,0,2.7124,Basalt_rect,0,0,0,0,1,
63d520bc8833c489caf0023a,SCR,2024-06-25_12h39.26.107,LearnStrategy,2023.2.3,Win32,60.24096386,1,2,2,,,,,,,,7,16,,,,,,,,,,,,,3,1.24,0,,,,,,0.216666667,-0.256481481,1,0,0,1.2396,Diorite_rect,1,0,1,0,1,
63d520bc8833c489caf0023a,SCR,2024-06-25_12h39.26.107,LearnStrategy,2023.2.3,Win32,60.24096386,1,2,3,,,,,,,,1,05,,,,,,,,,,,,,5,1.815,0,,,,,,-0.381481481,-0.388888889,1,0,0,1.8148,Obsidian_rect,2,0,2,0,1,
63d520bc8833c489caf0023a,SCR,2024-06-25_12h39.26.107,LearnStrategy,2023.2.3,Win32,60.24096386,1,2,4,,,,,,,,8,04,,,,,,,,,,,,,6,1.212,0,,,,,,-0.093518519,-0.39537037,1,0,0,1.2122,Pegmatite_rect,3,0,3,0,1,
63d520bc8833c489caf0023a,SCR,2024-06-25_12h39.26.107,LearnStrategy,2023.2.3,Win32,60.24096386,1,2,5,,,,,,,,5,07,,,,,,,,,,,,,5,1.179,1,,,,,,-0.4,-0.408333333,1,0,0,1.179,Obsidian_rect,4,0,4,0,1,
63d520bc8833c489caf0023a,SCR,2024-06-25_12h39.26.107,LearnStrategy,2023.2.3,Win32,60.24096386,1,2,6,,,,,,,,1,07,,,,,,,,,,,,,7,1.129,0,,,,,,0.188888889,-0.390740741,1,0,0,1.1286,Peridotite_rect,5,0,5,0,1,
63d520bc8833c489caf0023a,SCR,2024-06-25_12h39.26.107,LearnStrategy,2023.2.3,Win32,60.24096386,1,2,7,,,,,,,,3,06,,,,,,,,,,,,,3,0.812,1,,,,,,0.193518519,-0.240740741,1,0,0,0.8121,Diorite_rect,6,0,6,0,1,
63d520bc8833c489caf0023a,SCR,2024-06-25_12h39.26.107,LearnStrategy,2023.2.3,Win32,60.24096386,1,2,8,,,,,,,,4,12,,,,,,,,,,,,,4,1.462,1,,,,,,0.308333333,-0.243518519,1,0,0,1.4617,Gabbro_rect,7,0,7,0,1,
63d520bc8833c489caf0023a,SCR,2024-06-25_12h39.26.107,LearnStrategy,2023.2.3,Win32,60.24096386,1,2,9,,,,,,,,6,03,,,,,,,,,,,,,3,1.696,0,,,,,,0.151851852,-0.233333333,1,0,0,1.6958,Diorite_rect,8,0,8,0,1,
63d520bc8833c489caf0023a,SCR,2024-06-25_12h39.26.107,LearnStrategy,2023.2.3,Win32,60.24096386,1,2,10,,,,,,,,8,02,,,,,,,,,,,,,8,0.512,1,,,,,,0.373148148,-0.387037037,1,0,0,0.5122,Pumice_rect,9,0,9,0,1,
63d520bc8833c489caf0023a,SCR,2024-06-25_12h39.26.107,LearnStrategy,2023.2.3,Win32,60.24096386,1,2,11,,,,,,,,2,05,,,,,,,,,,,,,6,0.545,0,,,,,,-0.09537037,-0.390740741,1,0,0,0.5449,Pegmatite_rect,10,0,10,0,1,
63d520bc8833c489caf0023a,SCR,2024-06-25_12h39.26.107,LearnStrategy,2023.2.3,Win32,60.24096386,1,2,12,,,,,,,,6,16,,,,,,,,,,,,,3,1.512,0,,,,,,0.15,-0.253703704,1,0,0,1.5123,Diorite_rect,11,0,11,0,1,
63d520bc8833c489caf0023a,SCR,2024-06-25_12h39.26.107,LearnStrategy,2023.2.3,Win32,60.24096386,1,2,13,,,,,,,,5,11,,,,,,,,,,,,,5,0.996,1,,,,,,-0.342592593,-0.419444444,1,0,0,0.9956,Obsidian_rect,12,0,12,0,1,
63d520bc8833c489caf0023a,SCR,2024-06-25_12h39.26.107,LearnStrategy,2023.2.3,Win32,60.24096386,1,2,14,,,,,,,,2,12,,,,,,,,,,,,,2,1.345,1,,,,,,-0.139814815,-0.236111111,1,0,0,1.3447,Basalt_rect,13,0,13,0,1,
63d520bc8833c489caf0023a,SCR,2024-06-25_12h39.26.107,LearnStrategy,2023.2.3,Win32,60.24096386,1,2,15,,,,,,,,7,12,,,,,,,,,,,,,7,1.079,1,,,,,,0.10462963,-0.39537037,1,0,0,1.0789,Peridotite_rect,14,0,14,0,1,
63d520bc8833c489caf0023a,SCR,2024-06-25_12h39.26.107,LearnStrategy,2023.2.3,Win32,60.24096386,1,2,16,,,,,,,,3,13,,,,,,,,,,,,,4,0.729,0,,,,,,0.337037037,-0.234259259,1,0,0,0.7286,Gabbro_rect,15,0,15,0,1,
63d520bc8833c489caf0023a,SCR,2024-06-25_12h39.26.107,LearnStrategy,2023.2.3,Win32,60.24096386,2,1,1,-0.182407407,0.283333333,1,0,0,1.0654,Pegmatite_10,6,10,5,3,1.065,6,06,-0.362962963,-0.237962963,1,0,0,1.1783,Andesite_rect,1,1.178,0,0,0,0,0,1,,,,,,,,,,,,,
63d520bc8833c489caf0023a,SCR,2024-06-25_12h39.26.107,LearnStrategy,2023.2.3,Win32,60.24096386,2,1,2,0.40462963,0.262962963,1,0,0,0.7151,Obsidian_12,5,12,5,7,0.715,3,14,-0.092592593,-0.251851852,1,0,0,0.9789,Basalt_rect,2,0.979,0,1,0,1,0,1,,,,,,,,,,,,,
63d520bc8833c489caf0023a,SCR,2024-06-25_12h39.26.107,LearnStrategy,2023.2.3,Win32,60.24096386,2,1,3,-0.042592593,0.128703704,1,0,0,1.1986,Andesite_02,1,02,4,4,1.199,1,02,-0.380555556,-0.243518519,1,0,0,1.1945,Andesite_rect,1,1.194,1,2,0,2,0,1,,,,,,,,,,,,,
63d520bc8833c489caf0023a,SCR,2024-06-25_12h39.26.107,LearnStrategy,2023.2.3,Win32,60.24096386,2,1,4,0.24537037,-0.391666667,1,0,0,2.4487,Peridotite_10,7,10,1,6,2.449,7,10,0.332407407,-0.232407407,1,0,0,0.8285,Gabbro_rect,4,0.828,0,3,0,3,0,1,,,,,,,,,,,,,
63d520bc8833c489caf0023a,SCR,2024-06-25_12h39.26.107,LearnStrategy,2023.2.3,Win32,60.24096386,2,1,5,-0.234259259,-0.291666667,1,0,0,0.7493,Gabbro_14,4,14,2,3,0.749,4,14,-0.360185185,-0.401851852,1,0,0,0.8643,Obsidian_rect,5,0.864,0,4,0,4,0,1,,,,,,,,,,,,,
63d520bc8833c489caf0023a,SCR,2024-06-25_12h39.26.107,LearnStrategy,2023.2.3,Win32,60.24096386,2,1,6,-0.225925926,0.094444444,1,0,0,0.7326,Andesite_09,1,09,4,3,0.733,1,09,0.142592593,-0.249074074,1,0,0,0.6114,Diorite_rect,3,0.611,0,5,0,5,0,1,,,,,,,,,,,,,
63d520bc8833c489caf0023a,SCR,2024-06-25_12h39.26.107,LearnStrategy,2023.2.3,Win32,60.24096386,2,1,7,0.062037037,-0.080555556,1,0,0,1.4157,Pumice_08,8,08,3,5,1.416,8,08,-0.347222222,-0.25,1,0,0,0.7787,Andesite_rect,1,0.779,0,6,0,6,0,1,,,,,,,,,,,,,
63d520bc8833c489caf0023a,SCR,2024-06-25_12h39.26.107,LearnStrategy,2023.2.3,Win32,60.24096386,2,1,8,0.564814815,-0.110185185,1,0,0,0.8654,Andesite_11,1,11,3,8,0.865,1,11,0.133333333,-0.262962963,1,0,0,0.9452,Diorite_rect,3,0.945,0,7,0,7,0,1,,,,,,,,,,,,,
63d520bc8833c489caf0023a,SCR,2024-06-25_12h39.26.107,LearnStrategy,2023.2.3,Win32,60.24096386,2,1,9,0.413888889,-0.287037037,1,0,0,0.666,Pegmatite_15,6,15,2,7,0.666,6,15,-0.103703704,-0.234259259,1,0,0,0.6449,Basalt_rect,2,0.645,0,8,0,8,0,1,,,,,,,,,,,,,
63d520bc8833c489caf0023a,SCR,2024-06-25_12h39.26.107,LearnStrategy,2023.2.3,Win32,60.24096386,2,1,10,0.506481481,0.094444444,1,0,0,0.7318,Peridotite_05,7,05,4,8,0.732,7,05,0.105555556,-0.260185185,1,0,0,0.9287,Diorite_rect,3,0.929,0,9,0,9,0,1,,,,,,,,,,,,,
63d520bc8833c489caf0023a,SCR,2024-06-25_12h39.26.107,LearnStrategy,2023.2.3,Win32,60.24096386,2,1,11,-0.051851852,-0.100925926,1,0,0,0.5154,Gabbro_03,4,03,3,4,0.515,4,03,-0.388888889,-0.250925926,1,0,0,0.5782,Andesite_rect,1,0.578,0,10,0,10,0,1,,,,,,,,,,,,,
63d520bc8833c489caf0023a,SCR,2024-06-25_12h39.26.107,LearnStrategy,2023.2.3,Win32,60.24096386,2,1,12,-0.57037037,-0.421296296,1,0,0,1.0652,Pumice_06,8,06,1,1,1.065,8,06,0.400925926,-0.262962963,1,0,0,0.6939,Gabbro_rect,4,0.694,0,11,0,11,0,1,,,,,,,,,,,,,
63d520bc8833c489caf0023a,SCR,2024-06-25_12h39.26.107,LearnStrategy,2023.2.3,Win32,60.24096386,2,1,13,0.219444444,-0.061111111,1,0,0,0.5986,Diorite_09,3,09,3,6,0.599,3,09,0.12962963,-0.402777778,1,0,0,2.062,Peridotite_rect,7,2.062,0,12,0,12,0,1,,,,,,,,,,,,,
63d520bc8833c489caf0023a,SCR,2024-06-25_12h39.26.107,LearnStrategy,2023.2.3,Win32,60.24096386,2,1,14,-0.246296296,0.252777778,1,0,0,0.498,Pegmatite_10,6,10,5,3,0.498,6,10,0.098148148,-0.246296296,1,0,0,1.1622,Diorite_rect,3,1.162,0,13,0,13,0,1,,,,,,,,,,,,,
63d520bc8833c489caf0023a,SCR,2024-06-25_12h39.26.107,LearnStrategy,2023.2.3,Win32,60.24096386,2,1,15,-0.54537037,-0.264814815,1,0,0,1.0506,Basalt_01,2,01,2,1,1.051,2,01,-0.334259259,-0.232407407,1,0,0,0.665,Andesite_rect,1,0.665,0,14,0,14,0,1,,,,,,,,,,,,,
63d520bc8833c489caf0023a,SCR,2024-06-25_12h39.26.107,LearnStrategy,2023.2.3,Win32,60.24096386,2,1,16,-0.54537037,0.391666667,1,0,0,2.099,Basalt_02,2,02,6,1,2.099,2,02,-0.125,-0.257407407,1,0,0,0.6118,Basalt_rect,2,0.612,1,15,0,15,0,1,,,,,,,,,,,,,
63d520bc8833c489caf0023a,SCR,2024-06-25_12h39.26.107,LearnStrategy,2023.2.3,Win32,60.24096386,2,2,1,,,,,,,,2,11,,,,,,,,,,,,,2,1.296,1,,,,,,-0.188888889,-0.246296296,1,0,0,1.2957,Basalt_rect,0,0,0,0,1,
63d520bc8833c489caf0023a,SCR,2024-06-25_12h39.26.107,LearnStrategy,2023.2.3,Win32,60.24096386,2,2,2,,,,,,,,4,10,,,,,,,,,,,,,2,0.679,0,,,,,,-0.112962963,-0.25462963,1,0,0,0.679,Basalt_rect,1,0,1,0,1,
63d520bc8833c489caf0023a,SCR,2024-06-25_12h39.26.107,LearnStrategy,2023.2.3,Win32,60.24096386,2,2,3,,,,,,,,6,07,,,,,,,,,,,,,3,1.515,0,,,,,,0.217592593,-0.25462963,1,0,0,1.5153,Diorite_rect,2,0,2,0,1,
63d520bc8833c489caf0023a,SCR,2024-06-25_12h39.26.107,LearnStrategy,2023.2.3,Win32,60.24096386,2,2,4,,,,,,,,2,14,,,,,,,,,,,,,7,0.812,0,,,,,,0.148148148,-0.412962963,1,0,0,0.8122,Peridotite_rect,3,0,3,0,1,
63d520bc8833c489caf0023a,SCR,2024-06-25_12h39.26.107,LearnStrategy,2023.2.3,Win32,60.24096386,2,2,5,,,,,,,,7,14,,,,,,,,,,,,,6,0.429,0,,,,,,-0.09537037,-0.396296296,1,0,0,0.429,Pegmatite_rect,4,0,4,0,1,
63d520bc8833c489caf0023a,SCR,2024-06-25_12h39.26.107,LearnStrategy,2023.2.3,Win32,60.24096386,2,2,6,,,,,,,,8,05,,,,,,,,,,,,,8,0.345,1,,,,,,0.383333333,-0.401851852,1,0,0,0.3454,Pumice_rect,5,0,5,0,1,
63d520bc8833c489caf0023a,SCR,2024-06-25_12h39.26.107,LearnStrategy,2023.2.3,Win32,60.24096386,2,2,7,,,,,,,,1,04,,,,,,,,,,,,,2,0.662,0,,,,,,-0.062962963,-0.237962963,1,0,0,0.6619,Basalt_rect,6,0,6,0,1,
63d520bc8833c489caf0023a,SCR,2024-06-25_12h39.26.107,LearnStrategy,2023.2.3,Win32,60.24096386,2,2,8,,,,,,,,5,09,,,,,,,,,,,,,5,1.013,1,,,,,,-0.347222222,-0.403703704,1,0,0,1.0126,Obsidian_rect,7,0,7,0,1,
63d520bc8833c489caf0023a,SCR,2024-06-25_12h39.26.107,LearnStrategy,2023.2.3,Win32,60.24096386,2,2,9,,,,,,,,8,09,,,,,,,,,,,,,1,0.479,0,,,,,,-0.378703704,-0.253703704,1,0,0,0.4791,Andesite_rect,8,0,8,0,1,
63d520bc8833c489caf0023a,SCR,2024-06-25_12h39.26.107,LearnStrategy,2023.2.3,Win32,60.24096386,2,2,10,,,,,,,,3,10,,,,,,,,,,,,,3,0.212,1,,,,,,0.111111111,-0.255555556,1,0,0,0.2121,Diorite_rect,9,0,9,0,1,
63d520bc8833c489caf0023a,SCR,2024-06-25_12h39.26.107,LearnStrategy,2023.2.3,Win32,60.24096386,2,2,11,,,,,,,,7,02,,,,,,,,,,,,,2,0.412,0,,,,,,-0.075,-0.262962963,1,0,0,0.4122,Basalt_rect,10,0,10,0,1,
63d520bc8833c489caf0023a,SCR,2024-06-25_12h39.26.107,LearnStrategy,2023.2.3,Win32,60.24096386,2,2,12,,,,,,,,5,14,,,,,,,,,,,,,5,0.995,1,,,,,,-0.332407407,-0.40462963,1,0,0,0.9954,Obsidian_rect,11,0,11,0,1,
63d520bc8833c489caf0023a,SCR,2024-06-25_12h39.26.107,LearnStrategy,2023.2.3,Win32,60.24096386,2,2,13,,,,,,,,4,01,,,,,,,,,,,,,6,0.346,0,,,,,,-0.125,-0.382407407,1,0,0,0.3463,Pegmatite_rect,12,0,12,0,1,
63d520bc8833c489caf0023a,SCR,2024-06-25_12h39.26.107,LearnStrategy,2023.2.3,Win32,60.24096386,2,2,14,,,,,,,,3,11,,,,,,,,,,,,,4,0.462,0,,,,,,0.334259259,-0.260185185,1,0,0,0.4621,Gabbro_rect,13,0,13,0,1,
63d520bc8833c489caf0023a,SCR,2024-06-25_12h39.26.107,LearnStrategy,2023.2.3,Win32,60.24096386,2,2,15,,,,,,,,1,16,,,,,,,,,,,,,3,0.461,0,,,,,,0.132407407,-0.251851852,1,0,0,0.4614,Diorite_rect,14,0,14,0,1,
63d520bc8833c489caf0023a,SCR,2024-06-25_12h39.26.107,LearnStrategy,2023.2.3,Win32,60.24096386,2,2,16,,,,,,,,6,09,,,,,,,,,,,,,3,0.285,0,,,,,,0.124074074,-0.228703704,1,0,0,0.2851,Diorite_rect,15,0,15,0,1,
63d520bc8833c489caf0023a,SCR,2024-06-25_12h39.26.107,LearnStrategy,2023.2.3,Win32,60.24096386,3,1,1,-0.388888889,-0.085185185,1,0,0,0.7502,Pumice_03,8,03,3,2,0.75,8,03,-0.171296296,-0.251851852,1,0,0,0.5914,Basalt_rect,2,0.591,0,0,0,0,0,1,,,,,,,,,,,,,
63d520bc8833c489caf0023a,SCR,2024-06-25_12h39.26.107,LearnStrategy,2023.2.3,Win32,60.24096386,3,1,2,0.37962963,0.113888889,1,0,0,0.6653,Basalt_04,2,04,4,7,0.665,2,04,-0.081481481,-0.27037037,1,0,0,1.7784,Basalt_rect,2,1.778,1,1,0,1,0,1,,,,,,,,,,,,,
63d520bc8833c489caf0023a,SCR,2024-06-25_12h39.26.107,LearnStrategy,2023.2.3,Win32,60.24096386,3,1,3,-0.391666667,0.398148148,1,0,0,0.8491,Gabbro_08,4,08,6,2,0.849,4,08,0.148148148,-0.253703704,1,0,0,0.7617,Diorite_rect,3,0.762,0,2,0,2,0,1,,,,,,,,,,,,,
63d520bc8833c489caf0023a,SCR,2024-06-25_12h39.26.107,LearnStrategy,2023.2.3,Win32,60.24096386,3,1,4,-0.259259259,0.24537037,1,0,0,0.8482,Pegmatite_10,6,10,5,3,0.848,6,10,0.068518519,-0.37962963,1,0,0,1.2618,Peridotite_rect,7,1.262,0,3,0,3,0,1,,,,,,,,,,,,,
63d520bc8833c489caf0023a,SCR,2024-06-25_12h39.26.107,LearnStrategy,2023.2.3,Win32,60.24096386,3,1,5,-0.037037037,0.093518519,1,0,0,0.816,Andesite_02,1,02,4,4,0.816,1,02,-0.042592593,-0.262962963,1,0,0,0.7952,Basalt_rect,2,0.795,0,4,0,4,0,1,,,,,,,,,,,,,
63d520bc8833c489caf0023a,SCR,2024-06-25_12h39.26.107,LearnStrategy,2023.2.3,Win32,60.24096386,3,1,6,0.234259259,0.275,1,0,0,0.8493,Pegmatite_08,6,08,5,6,0.849,6,08,-0.343518519,-0.385185185,1,0,0,1.095,Obsidian_rect,5,1.095,0,5,0,5,0,1,,,,,,,,,,,,,
63d520bc8833c489caf0023a,SCR,2024-06-25_12h39.26.107,LearnStrategy,2023.2.3,Win32,60.24096386,3,1,7,-0.093518519,0.25462963,1,0,0,0.7657,Peridotite_13,7,13,5,4,0.766,7,13,0.113888889,-0.251851852,1,0,0,0.6785,Diorite_rect,3,0.678,0,6,0,6,0,1,,,,,,,,,,,,,
63d520bc8833c489caf0023a,SCR,2024-06-25_12h39.26.107,LearnStrategy,2023.2.3,Win32,60.24096386,3,1,8,-0.080555556,0.377777778,1,0,0,0.6152,Diorite_02,3,02,6,4,0.615,3,02,-0.076851852,-0.406481481,1,0,0,0.7625,Pegmatite_rect,6,0.762,0,7,0,7,0,1,,,,,,,,,,,,,
63d520bc8833c489caf0023a,SCR,2024-06-25_12h39.26.107,LearnStrategy,2023.2.3,Win32,60.24096386,3,1,9,0.257407407,0.300925926,1,0,0,0.6989,Pegmatite_08,6,08,5,6,0.699,6,08,0.118518519,-0.257407407,1,0,0,0.7451,Diorite_rect,3,0.745,0,8,0,8,0,1,,,,,,,,,,,,,
63d520bc8833c489caf0023a,SCR,2024-06-25_12h39.26.107,LearnStrategy,2023.2.3,Win32,60.24096386,3,1,10,-0.22037037,-0.452777778,1,0,0,0.7984,Gabbro_05,4,05,1,3,0.798,4,05,-0.113888889,-0.259259259,1,0,0,1.095,Basalt_rect,2,1.095,0,9,0,9,0,1,,,,,,,,,,,,,
63d520bc8833c489caf0023a,SCR,2024-06-25_12h39.26.107,LearnStrategy,2023.2.3,Win32,60.24096386,3,1,11,-0.211111111,-0.07962963,1,0,0,0.6482,Andesite_03,1,03,3,3,0.648,1,03,-0.337037037,-0.239814815,1,0,0,0.5959,Andesite_rect,1,0.596,1,10,0,10,0,1,,,,,,,,,,,,,
63d520bc8833c489caf0023a,SCR,2024-06-25_12h39.26.107,LearnStrategy,2023.2.3,Win32,60.24096386,3,1,12,0.038888889,-0.276851852,1,0,0,0.6493,Diorite_15,3,15,2,5,0.649,3,15,0.122222222,-0.24537037,1,0,0,0.5785,Diorite_rect,3,0.579,1,11,0,11,0,1,,,,,,,,,,,,,
63d520bc8833c489caf0023a,SCR,2024-06-25_12h39.26.107,LearnStrategy,2023.2.3,Win32,60.24096386,3,1,13,-0.069444444,-0.383333333,1,0,0,0.632,Basalt_10,2,10,1,4,0.632,2,10,-0.299074074,-0.397222222,1,0,0,1.0786,Obsidian_rect,5,1.079,0,12,0,12,0,1,,,,,,,,,,,,,
63d520bc8833c489caf0023a,SCR,2024-06-25_12h39.26.107,LearnStrategy,2023.2.3,Win32,60.24096386,3,1,14,0.061111111,-0.088888889,1,0,0,0.5971,Pumice_08,8,08,3,5,0.597,8,08,0.065740741,-0.37962963,1,0,0,2.2619,Peridotite_rect,7,2.262,0,13,0,13,0,1,,,,,,,,,,,,,
63d520bc8833c489caf0023a,SCR,2024-06-25_12h39.26.107,LearnStrategy,2023.2.3,Win32,60.24096386,3,1,15,-0.275925926,-0.135185185,1,0,0,0.6325,Andesite_03,1,03,3,3,0.632,1,03,-0.325925926,-0.233333333,1,0,0,0.5783,Andesite_rect,1,0.578,1,14,0,14,0,1,,,,,,,,,,,,,
63d520bc8833c489caf0023a,SCR,2024-06-25_12h39.26.107,LearnStrategy,2023.2.3,Win32,60.24096386,3,1,16,0.200925926,-0.237962963,1,0,0,0.7821,Peridotite_07,7,07,2,6,0.782,7,07,-0.087037037,-0.386111111,1,0,0,0.8118,Pegmatite_rect,6,0.812,0,15,0,15,0,1,,,,,,,,,,,,,
63d520bc8833c489caf0023a,SCR,2024-06-25_12h39.26.107,LearnStrategy,2023.2.3,Win32,60.24096386,3,2,1,,,,,,,,3,16,,,,,,,,,,,,,3,1.445,1,,,,,,0.114814815,-0.232407407,1,0,0,1.4454,Diorite_rect,0,0,0,0,1,
63d520bc8833c489caf0023a,SCR,2024-06-25_12h39.26.107,LearnStrategy,2023.2.3,Win32,60.24096386,3,2,2,,,,,,,,7,06,,,,,,,,,,,,,2,0.762,0,,,,,,-0.124074074,-0.237037037,1,0,0,0.7621,Basalt_rect,1,0,1,0,1,
63d520bc8833c489caf0023a,SCR,2024-06-25_12h39.26.107,LearnStrategy,2023.2.3,Win32,60.24096386,3,2,3,,,,,,,,2,06,,,,,,,,,,,,,5,1.445,0,,,,,,-0.331481481,-0.394444444,1,0,0,1.4447,Obsidian_rect,2,0,2,0,1,
63d520bc8833c489caf0023a,SCR,2024-06-25_12h39.26.107,LearnStrategy,2023.2.3,Win32,60.24096386,3,2,4,,,,,,,,4,11,,,,,,,,,,,,,2,0.963,0,,,,,,-0.115740741,-0.265740741,1,0,0,0.9627,Basalt_rect,3,0,3,0,1,
63d520bc8833c489caf0023a,SCR,2024-06-25_12h39.26.107,LearnStrategy,2023.2.3,Win32,60.24096386,3,2,5,,,,,,,,7,08,,,,,,,,,,,,,1,0.529,0,,,,,,-0.367592593,-0.244444444,1,0,0,0.5287,Andesite_rect,4,0,4,0,1,
63d520bc8833c489caf0023a,SCR,2024-06-25_12h39.26.107,LearnStrategy,2023.2.3,Win32,60.24096386,3,2,6,,,,,,,,6,11,,,,,,,,,,,,,8,1.329,0,,,,,,0.367592593,-0.40462963,1,0,0,1.3287,Pumice_rect,5,0,5,0,1,
63d520bc8833c489caf0023a,SCR,2024-06-25_12h39.26.107,LearnStrategy,2023.2.3,Win32,60.24096386,3,2,7,,,,,,,,5,10,,,,,,,,,,,,,5,1.129,1,,,,,,-0.363888889,-0.409259259,1,0,0,1.1288,Obsidian_rect,6,0,6,0,1,
63d520bc8833c489caf0023a,SCR,2024-06-25_12h39.26.107,LearnStrategy,2023.2.3,Win32,60.24096386,3,2,8,,,,,,,,3,12,,,,,,,,,,,,,7,0.279,0,,,,,,0.042592593,-0.402777778,1,0,0,0.279,Peridotite_rect,7,0,7,0,1,
63d520bc8833c489caf0023a,SCR,2024-06-25_12h39.26.107,LearnStrategy,2023.2.3,Win32,60.24096386,3,2,9,,,,,,,,8,10,,,,,,,,,,,,,2,0.296,0,,,,,,-0.125925926,-0.250925926,1,0,0,0.2955,Basalt_rect,8,0,8,0,1,
63d520bc8833c489caf0023a,SCR,2024-06-25_12h39.26.107,LearnStrategy,2023.2.3,Win32,60.24096386,3,2,10,,,,,,,,8,14,,,,,,,,,,,,,3,0.68,0,,,,,,0.169444444,-0.241666667,1,0,0,0.6796,Diorite_rect,9,0,9,0,1,
63d520bc8833c489caf0023a,SCR,2024-06-25_12h39.26.107,LearnStrategy,2023.2.3,Win32,60.24096386,3,2,11,,,,,,,,4,15,,,,,,,,,,,,,6,0.662,0,,,,,,-0.200925926,-0.388888889,1,0,0,0.6623,Pegmatite_rect,10,0,10,0,1,
63d520bc8833c489caf0023a,SCR,2024-06-25_12h39.26.107,LearnStrategy,2023.2.3,Win32,60.24096386,3,2,12,,,,,,,,5,05,,,,,,,,,,,,,5,0.635,1,,,,,,-0.469444444,-0.399074074,1,0,0,0.635,Obsidian_rect,11,0,11,0,1,
63d520bc8833c489caf0023a,SCR,2024-06-25_12h39.26.107,LearnStrategy,2023.2.3,Win32,60.24096386,3,2,13,,,,,,,,1,01,,,,,,,,,,,,,1,0.93,1,,,,,,-0.376851852,-0.263888889,1,0,0,0.9295,Andesite_rect,12,0,12,0,1,
63d520bc8833c489caf0023a,SCR,2024-06-25_12h39.26.107,LearnStrategy,2023.2.3,Win32,60.24096386,3,2,14,,,,,,,,1,06,,,,,,,,,,,,,6,1.839,0,,,,,,-0.143518519,-0.378703704,1,0,0,1.8394,Pegmatite_rect,13,0,13,0,1,
63d520bc8833c489caf0023a,SCR,2024-06-25_12h39.26.107,LearnStrategy,2023.2.3,Win32,60.24096386,3,2,15,,,,,,,,2,09,,,,,,,,,,,,,2,0.712,1,,,,,,-0.113888889,-0.259259259,1,0,0,0.7116,Basalt_rect,14,0,14,0,1,
63d520bc8833c489caf0023a,SCR,2024-06-25_12h39.26.107,LearnStrategy,2023.2.3,Win32,60.24096386,3,2,16,,,,,,,,6,05,,,,,,,,,,,,,7,0.295,0,,,,,,0.175925926,-0.37962963,1,0,0,0.2953,Peridotite_rect,15,0,15,0,1,
63d520bc8833c489caf0023a,SCR,2024-06-25_12h39.26.107,LearnStrategy,2023.2.3,Win32,60.24096386,4,1,1,0.064814815,-0.265740741,1,0,0,0.6992,Diorite_15,3,15,2,5,0.699,3,15,-0.162037037,-0.228703704,1,0,0,0.4783,Basalt_rect,2,0.478,0,0,0,0,0,1,,,,,,,,,,,,,
63d520bc8833c489caf0023a,SCR,2024-06-25_12h39.26.107,LearnStrategy,2023.2.3,Win32,60.24096386,4,1,2,-0.525,-0.388888889,1,0,0,0.8326,Pumice_06,8,06,1,1,0.833,8,06,0.09537037,-0.252777778,1,0,0,0.7617,Diorite_rect,3,0.762,0,1,0,1,0,1,,,,,,,,,,,,,
63d520bc8833c489caf0023a,SCR,2024-06-25_12h39.26.107,LearnStrategy,2023.2.3,Win32,60.24096386,4,1,3,-0.207407407,0.233333333,1,0,0,1.2824,Pegmatite_10,6,10,5,3,1.282,6,10,0.138888889,-0.233333333,1,0,0,0.5616,Diorite_rect,3,0.562,0,2,0,2,0,1,,,,,,,,,,,,,
63d520bc8833c489caf0023a,SCR,2024-06-25_12h39.26.107,LearnStrategy,2023.2.3,Win32,60.24096386,4,1,4,0.381481481,-0.265740741,1,0,0,0.6155,Pegmatite_15,6,15,2,7,0.615,6,15,-0.076851852,-0.259259259,1,0,0,0.6454,Basalt_rect,2,0.645,0,3,0,3,0,1,,,,,,,,,,,,,
63d520bc8833c489caf0023a,SCR,2024-06-25_12h39.26.107,LearnStrategy,2023.2.3,Win32,60.24096386,4,1,5,-0.551851852,-0.435185185,1,0,0,0.7993,Pumice_06,8,06,1,1,0.799,8,06,-0.451851852,-0.250925926,1,0,0,0.6617,Andesite_rect,1,0.662,0,4,0,4,0,1,,,,,,,,,,,,,
63d520bc8833c489caf0023a,SCR,2024-06-25_12h39.26.107,LearnStrategy,2023.2.3,Win32,60.24096386,4,1,6,-0.199074074,-0.081481481,1,0,0,0.4824,Andesite_03,1,03,3,3,0.482,1,03,0.351851852,-0.243518519,1,0,0,0.7455,Gabbro_rect,4,0.746,0,5,0,5,0,1,,,,,,,,,,,,,
63d520bc8833c489caf0023a,SCR,2024-06-25_12h39.26.107,LearnStrategy,2023.2.3,Win32,60.24096386,4,1,7,-0.20462963,-0.416666667,1,0,0,1.0159,Gabbro_05,4,05,1,3,1.016,4,05,-0.087962963,-0.256481481,1,0,0,0.5621,Basalt_rect,2,0.562,0,6,0,6,0,1,,,,,,,,,,,,,
63d520bc8833c489caf0023a,SCR,2024-06-25_12h39.26.107,LearnStrategy,2023.2.3,Win32,60.24096386,4,1,8,-0.521296296,-0.236111111,1,0,0,1.099,Basalt_01,2,01,2,1,1.099,2,01,-0.375,-0.257407407,1,0,0,0.5785,Andesite_rect,1,0.578,0,7,0,7,0,1,,,,,,,,,,,,,
63d520bc8833c489caf0023a,SCR,2024-06-25_12h39.26.107,LearnStrategy,2023.2.3,Win32,60.24096386,4,1,9,0.501851852,0.230555556,1,0,0,0.8824,Gabbro_16,4,16,5,8,0.882,4,16,0.385185185,-0.255555556,1,0,0,0.695,Gabbro_rect,4,0.695,1,8,0,8,0,1,,,,,,,,,,,,,
63d520bc8833c489caf0023a,SCR,2024-06-25_12h39.26.107,LearnStrategy,2023.2.3,Win32,60.24096386,4,1,10,0.083333333,-0.431481481,1,0,0,0.7488,Peridotite_15,7,15,1,5,0.749,7,15,0.161111111,-0.394444444,1,0,0,0.4449,Peridotite_rect,7,0.445,1,9,0,9,0,1,,,,,,,,,,,,,
63d520bc8833c489caf0023a,SCR,2024-06-25_12h39.26.107,LearnStrategy,2023.2.3,Win32,60.24096386,4,1,11,0.032407407,0.22962963,1,0,0,0.6321,Diorite_07,3,07,5,5,0.632,3,07,-0.340740741,-0.415740741,1,0,0,1.0786,Obsidian_rect,5,1.079,0,10,0,10,0,1,,,,,,,,,,,,,
63d520bc8833c489caf0023a,SCR,2024-06-25_12h39.26.107,LearnStrategy,2023.2.3,Win32,60.24096386,4,1,12,0.505555556,0.133333333,1,0,0,0.7989,Peridotite_05,7,05,4,8,0.799,7,05,0.101851852,-0.412962963,1,0,0,0.6787,Peridotite_rect,7,0.679,1,11,0,11,0,1,,,,,,,,,,,,,
63d520bc8833c489caf0023a,SCR,2024-06-25_12h39.26.107,LearnStrategy,2023.2.3,Win32,60.24096386,4,1,13,0.541666667,0.116666667,1,0,0,0.6986,Peridotite_05,7,05,4,8,0.699,7,05,-0.357407407,-0.255555556,1,0,0,0.714,Andesite_rect,1,0.714,0,12,0,12,0,1,,,,,,,,,,,,,
63d520bc8833c489caf0023a,SCR,2024-06-25_12h39.26.107,LearnStrategy,2023.2.3,Win32,60.24096386,4,1,14,-0.063888889,-0.264814815,1,0,0,0.7154,Pegmatite_12,6,12,2,4,0.715,6,12,0.127777778,-0.262962963,1,0,0,0.5414,Diorite_rect,3,0.541,0,13,0,13,0,1,,,,,,,,,,,,,
63d520bc8833c489caf0023a,SCR,2024-06-25_12h39.26.107,LearnStrategy,2023.2.3,Win32,60.24096386,4,1,15,-0.099074074,0.128703704,1,0,0,0.8824,Andesite_02,1,02,4,4,0.882,1,02,0.131481481,-0.387962963,1,0,0,0.6619,Peridotite_rect,7,0.662,0,14,0,14,0,1,,,,,,,,,,,,,
63d520bc8833c489caf0023a,SCR,2024-06-25_12h39.26.107,LearnStrategy,2023.2.3,Win32,60.24096386,4,1,16,-0.552777778,0.415740741,1,0,0,0.7826,Basalt_02,2,02,6,1,0.783,2,02,-0.161111111,-0.383333333,1,0,0,0.7284,Pegmatite_rect,6,0.728,0,15,0,15,0,1,,,,,,,,,,,,,
63d520bc8833c489caf0023a,SCR,2024-06-25_12h39.26.107,LearnStrategy,2023.2.3,Win32,60.24096386,4,2,1,,,,,,,,7,14,,,,,,,,,,,,,4,1.329,0,,,,,,0.340740741,-0.246296296,1,0,0,1.329,Gabbro_rect,0,0,0,0,1,
63d520bc8833c489caf0023a,SCR,2024-06-25_12h39.26.107,LearnStrategy,2023.2.3,Win32,60.24096386,4,2,2,,,,,,,,2,09,,,,,,,,,,,,,2,1.079,1,,,,,,-0.151851852,-0.256481481,1,0,0,1.0786,Basalt_rect,1,0,1,0,1,
63d520bc8833c489caf0023a,SCR,2024-06-25_12h39.26.107,LearnStrategy,2023.2.3,Win32,60.24096386,4,2,3,,,,,,,,2,05,,,,,,,,,,,,,6,1.129,0,,,,,,-0.168518519,-0.384259259,1,0,0,1.1292,Pegmatite_rect,2,0,2,0,1,
63d520bc8833c489caf0023a,SCR,2024-06-25_12h39.26.107,LearnStrategy,2023.2.3,Win32,60.24096386,4,2,4,,,,,,,,3,10,,,,,,,,,,,,,1,0.629,0,,,,,,-0.322222222,-0.258333333,1,0,0,0.629,Andesite_rect,3,0,3,0,1,
63d520bc8833c489caf0023a,SCR,2024-06-25_12h39.26.107,LearnStrategy,2023.2.3,Win32,60.24096386,4,2,5,,,,,,,,5,14,,,,,,,,,,,,,5,0.485,1,,,,,,-0.322222222,-0.405555556,1,0,0,0.4847,Obsidian_rect,4,0,4,0,1,
63d520bc8833c489caf0023a,SCR,2024-06-25_12h39.26.107,LearnStrategy,2023.2.3,Win32,60.24096386,4,2,6,,,,,,,,6,03,,,,,,,,,,,,,3,0.662,0,,,,,,0.125,-0.259259259,1,0,0,0.6619,Diorite_rect,5,0,5,0,1,
63d520bc8833c489caf0023a,SCR,2024-06-25_12h39.26.107,LearnStrategy,2023.2.3,Win32,60.24096386,4,2,7,,,,,,,,8,10,,,,,,,,,,,,,8,1.145,1,,,,,,0.373148148,-0.391666667,1,0,0,1.1453,Pumice_rect,6,0,6,0,1,
63d520bc8833c489caf0023a,SCR,2024-06-25_12h39.26.107,LearnStrategy,2023.2.3,Win32,60.24096386,4,2,8,,,,,,,,8,04,,,,,,,,,,,,,2,0.462,0,,,,,,-0.064814815,-0.240740741,1,0,0,0.4623,Basalt_rect,7,0,7,0,1,
63d520bc8833c489caf0023a,SCR,2024-06-25_12h39.26.107,LearnStrategy,2023.2.3,Win32,60.24096386,4,2,9,,,,,,,,1,06,,,,,,,,,,,,,1,1.295,1,,,,,,-0.413888889,-0.252777778,1,0,0,1.2953,Andesite_rect,8,0,8,0,1,
63d520bc8833c489caf0023a,SCR,2024-06-25_12h39.26.107,LearnStrategy,2023.2.3,Win32,60.24096386,4,2,10,,,,,,,,4,11,,,,,,,,,,,,,6,1.429,0,,,,,,-0.075,-0.396296296,1,0,0,1.4291,Pegmatite_rect,9,0,9,0,1,
63d520bc8833c489caf0023a,SCR,2024-06-25_12h39.26.107,LearnStrategy,2023.2.3,Win32,60.24096386,4,2,11,,,,,,,,1,05,,,,,,,,,,,,,7,0.863,0,,,,,,0.024074074,-0.380555556,1,0,0,0.8625,Peridotite_rect,10,0,10,0,1,
63d520bc8833c489caf0023a,SCR,2024-06-25_12h39.26.107,LearnStrategy,2023.2.3,Win32,60.24096386,4,2,12,,,,,,,,6,16,,,,,,,,,,,,,2,1.762,0,,,,,,-0.092592593,-0.231481481,1,0,0,1.7621,Basalt_rect,11,0,11,0,1,
63d520bc8833c489caf0023a,SCR,2024-06-25_12h39.26.107,LearnStrategy,2023.2.3,Win32,60.24096386,4,2,13,,,,,,,,7,12,,,,,,,,,,,,,4,0.762,0,,,,,,0.357407407,-0.263888889,1,0,0,0.7625,Gabbro_rect,12,0,12,0,1,
63d520bc8833c489caf0023a,SCR,2024-06-25_12h39.26.107,LearnStrategy,2023.2.3,Win32,60.24096386,4,2,14,,,,,,,,3,11,,,,,,,,,,,,,4,1.11,0,,,,,,0.386111111,-0.25462963,1,0,0,1.1096,Gabbro_rect,13,0,13,0,1,
63d520bc8833c489caf0023a,SCR,2024-06-25_12h39.26.107,LearnStrategy,2023.2.3,Win32,60.24096386,4,2,15,,,,,,,,5,05,,,,,,,,,,,,,5,1.145,1,,,,,,-0.322222222,-0.37962963,1,0,0,1.1449,Obsidian_rect,14,0,14,0,1,
63d520bc8833c489caf0023a,SCR,2024-06-25_12h39.26.107,LearnStrategy,2023.2.3,Win32,60.24096386,4,2,16,,,,,,,,4,09,,,,,,,,,,,,,2,0.395,0,,,,,,-0.091666667,-0.260185185,1,0,0,0.3954,Basalt_rect,15,0,15,0,1,
63d520bc8833c489caf0023a,SCR,2024-06-25_12h39.26.107,LearnStrategy,2023.2.3,Win32,60.24096386,5,1,1,-0.286111111,0.450925926,1,0,0,0.9157,Gabbro_13,4,13,6,3,0.916,4,13,-0.177777778,-0.261111111,1,0,0,1.1784,Basalt_rect,2,1.178,0,0,0,0,0,1,,,,,,,,,,,,,
63d520bc8833c489caf0023a,SCR,2024-06-25_12h39.26.107,LearnStrategy,2023.2.3,Win32,60.24096386,5,1,2,0.239814815,0.25462963,1,0,0,0.8984,Pegmatite_08,6,08,5,6,0.898,6,08,0.110185185,-0.268518519,1,0,0,1.8288,Diorite_rect,3,1.829,0,1,0,1,0,1,,,,,,,,,,,,,
63d520bc8833c489caf0023a,SCR,2024-06-25_12h39.26.107,LearnStrategy,2023.2.3,Win32,60.24096386,5,1,3,0.083333333,0.291666667,1,0,0,0.4991,Diorite_07,3,07,5,5,0.499,3,07,-0.373148148,-0.378703704,1,0,0,0.5783,Obsidian_rect,5,0.578,0,2,0,2,0,1,,,,,,,,,,,,,
63d520bc8833c489caf0023a,SCR,2024-06-25_12h39.26.107,LearnStrategy,2023.2.3,Win32,60.24096386,5,1,4,0.034259259,0.398148148,1,0,0,0.6155,Andesite_14,1,14,6,5,0.615,1,14,0.07962963,-0.241666667,1,0,0,0.5452,Diorite_rect,3,0.545,0,3,0,3,0,1,,,,,,,,,,,,,
63d520bc8833c489caf0023a,SCR,2024-06-25_12h39.26.107,LearnStrategy,2023.2.3,Win32,60.24096386,5,1,5,0.025925926,0.410185185,1,0,0,0.5176,Andesite_14,1,14,6,5,0.518,1,14,0.380555556,-0.251851852,1,0,0,0.5912,Gabbro_rect,4,0.591,0,4,0,4,0,1,,,,,,,,,,,,,
63d520bc8833c489caf0023a,SCR,2024-06-25_12h39.26.107,LearnStrategy,2023.2.3,Win32,60.24096386,5,1,6,0.556481481,0.235185185,1,0,0,0.8824,Gabbro_16,4,16,5,8,0.882,4,16,-0.316666667,-0.25,1,0,0,1.1953,Andesite_rect,1,1.195,0,5,0,5,0,1,,,,,,,,,,,,,
63d520bc8833c489caf0023a,SCR,2024-06-25_12h39.26.107,LearnStrategy,2023.2.3,Win32,60.24096386,5,1,7,-0.213888889,0.30462963,1,0,0,0.6489,Pegmatite_10,6,10,5,3,0.649,6,10,-0.043518519,-0.405555556,1,0,0,0.7949,Pegmatite_rect,6,0.795,1,6,0,6,0,1,,,,,,,,,,,,,
63d520bc8833c489caf0023a,SCR,2024-06-25_12h39.26.107,LearnStrategy,2023.2.3,Win32,60.24096386,5,1,8,-0.05,-0.446296296,1,0,0,1.1157,Basalt_10,2,10,1,4,1.116,2,10,0.109259259,-0.412962963,1,0,0,0.6954,Peridotite_rect,7,0.695,0,7,0,7,0,1,,,,,,,,,,,,,
63d520bc8833c489caf0023a,SCR,2024-06-25_12h39.26.107,LearnStrategy,2023.2.3,Win32,60.24096386,5,1,9,0.187962963,-0.408333333,1,0,0,0.9315,Peridotite_10,7,10,1,6,0.932,7,10,-0.093518519,-0.233333333,1,0,0,1.0113,Basalt_rect,2,1.011,0,8,0,8,0,1,,,,,,,,,,,,,
63d520bc8833c489caf0023a,SCR,2024-06-25_12h39.26.107,LearnStrategy,2023.2.3,Win32,60.24096386,5,1,10,0.027777778,0.097222222,1,0,0,1.0812,Peridotite_04,7,04,4,5,1.081,7,04,0.341666667,-0.385185185,1,0,0,1.7451,Pumice_rect,8,1.745,0,9,0,9,0,1,,,,,,,,,,,,,
63d520bc8833c489caf0023a,SCR,2024-06-25_12h39.26.107,LearnStrategy,2023.2.3,Win32,60.24096386,5,1,11,0.075925926,-0.115740741,1,0,0,0.6498,Pumice_08,8,08,3,5,0.65,8,08,-0.117592593,-0.234259259,1,0,0,0.5949,Basalt_rect,2,0.595,0,10,0,10,0,1,,,,,,,,,,,,,
63d520bc8833c489caf0023a,SCR,2024-06-25_12h39.26.107,LearnStrategy,2023.2.3,Win32,60.24096386,5,1,12,-0.209259259,-0.416666667,1,0,0,1.0158,Gabbro_05,4,05,1,3,1.016,4,05,0.119444444,-0.409259259,1,0,0,1.4293,Peridotite_rect,7,1.429,0,11,0,11,0,1,,,,,,,,,,,,,
63d520bc8833c489caf0023a,SCR,2024-06-25_12h39.26.107,LearnStrategy,2023.2.3,Win32,60.24096386,5,1,13,-0.072222222,-0.261111111,1,0,0,1.0161,Pegmatite_12,6,12,2,4,1.016,6,12,0.306481481,-0.253703704,1,0,0,0.6613,Gabbro_rect,4,0.661,0,12,0,12,0,1,,,,,,,,,,,,,
63d520bc8833c489caf0023a,SCR,2024-06-25_12h39.26.107,LearnStrategy,2023.2.3,Win32,60.24096386,5,1,14,-0.065740741,-0.359259259,1,0,0,0.6153,Basalt_10,2,10,1,4,0.615,2,10,-0.297222222,-0.392592593,1,0,0,0.695,Obsidian_rect,5,0.695,0,13,0,13,0,1,,,,,,,,,,,,,
63d520bc8833c489caf0023a,SCR,2024-06-25_12h39.26.107,LearnStrategy,2023.2.3,Win32,60.24096386,5,1,15,0.348148148,0.397222222,1,0,0,0.9485,Diorite_14,3,14,6,7,0.948,3,14,0.098148148,-0.237962963,1,0,0,0.7614,Diorite_rect,3,0.761,1,14,0,14,0,1,,,,,,,,,,,,,
63d520bc8833c489caf0023a,SCR,2024-06-25_12h39.26.107,LearnStrategy,2023.2.3,Win32,60.24096386,5,1,16,0.397222222,-0.462962963,1,0,0,0.9153,Pumice_16,8,16,1,7,0.915,8,16,0.34537037,-0.407407407,1,0,0,1.5622,Pumice_rect,8,1.562,1,15,0,15,0,1,,,,,,,,,,,,,
63d520bc8833c489caf0023a,SCR,2024-06-25_12h39.26.107,LearnStrategy,2023.2.3,Win32,60.24096386,5,2,1,,,,,,,,4,15,,,,,,,,,,,,,2,0.862,0,,,,,,-0.037962963,-0.234259259,1,0,0,0.8623,Basalt_rect,0,0,0,0,1,
63d520bc8833c489caf0023a,SCR,2024-06-25_12h39.26.107,LearnStrategy,2023.2.3,Win32,60.24096386,5,2,2,,,,,,,,1,04,,,,,,,,,,,,,3,0.311,0,,,,,,0.144444444,-0.237962963,1,0,0,0.3114,Diorite_rect,1,0,1,0,1,
63d520bc8833c489caf0023a,SCR,2024-06-25_12h39.26.107,LearnStrategy,2023.2.3,Win32,60.24096386,5,2,3,,,,,,,,1,01,,,,,,,,,,,,,5,1.395,0,,,,,,-0.347222222,-0.388888889,1,0,0,1.3946,Obsidian_rect,2,0,2,0,1,
63d520bc8833c489caf0023a,SCR,2024-06-25_12h39.26.107,LearnStrategy,2023.2.3,Win32,60.24096386,5,2,4,,,,,,,,3,13,,,,,,,,,,,,,6,0.295,0,,,,,,-0.159259259,-0.411111111,1,0,0,0.2954,Pegmatite_rect,3,0,3,0,1,
63d520bc8833c489caf0023a,SCR,2024-06-25_12h39.26.107,LearnStrategy,2023.2.3,Win32,60.24096386,5,2,5,,,,,,,,4,12,,,,,,,,,,,,,4,0.779,1,,,,,,0.458333333,-0.263888889,1,0,0,0.7794,Gabbro_rect,4,0,4,0,1,
63d520bc8833c489caf0023a,SCR,2024-06-25_12h39.26.107,LearnStrategy,2023.2.3,Win32,60.24096386,5,2,6,,,,,,,,7,16,,,,,,,,,,,,,8,0.278,0,,,,,,0.378703704,-0.415740741,1,0,0,0.2781,Pumice_rect,5,0,5,0,1,
63d520bc8833c489caf0023a,SCR,2024-06-25_12h39.26.107,LearnStrategy,2023.2.3,Win32,60.24096386,5,2,7,,,,,,,,6,05,,,,,,,,,,,,,3,1.412,0,,,,,,0.056481481,-0.25,1,0,0,1.4124,Diorite_rect,6,0,6,0,1,
63d520bc8833c489caf0023a,SCR,2024-06-25_12h39.26.107,LearnStrategy,2023.2.3,Win32,60.24096386,5,2,8,,,,,,,,2,06,,,,,,,,,,,,,5,1.095,0,,,,,,-0.302777778,-0.396296296,1,0,0,1.0953,Obsidian_rect,7,0,7,0,1,
63d520bc8833c489caf0023a,SCR,2024-06-25_12h39.26.107,LearnStrategy,2023.2.3,Win32,60.24096386,5,2,9,,,,,,,,2,11,,,,,,,,,,,,,2,0.378,1,,,,,,-0.094444444,-0.261111111,1,0,0,0.3779,Basalt_rect,8,0,8,0,1,
63d520bc8833c489caf0023a,SCR,2024-06-25_12h39.26.107,LearnStrategy,2023.2.3,Win32,60.24096386,5,2,10,,,,,,,,8,09,,,,,,,,,,,,,7,0.245,0,,,,,,0.035185185,-0.396296296,1,0,0,0.2454,Peridotite_rect,9,0,9,0,1,
63d520bc8833c489caf0023a,SCR,2024-06-25_12h39.26.107,LearnStrategy,2023.2.3,Win32,60.24096386,5,2,11,,,,,,,,6,07,,,,,,,,,,,,,6,0.512,1,,,,,,-0.086111111,-0.383333333,1,0,0,0.5123,Pegmatite_rect,10,0,10,0,1,
63d520bc8833c489caf0023a,SCR,2024-06-25_12h39.26.107,LearnStrategy,2023.2.3,Win32,60.24096386,5,2,12,,,,,,,,7,02,,,,,,,,,,,,,2,3.579,0,,,,,,-0.07037037,-0.244444444,1,0,0,3.579,Basalt_rect,11,0,11,0,1,
63d520bc8833c489caf0023a,SCR,2024-06-25_12h39.26.107,LearnStrategy,2023.2.3,Win32,60.24096386,5,2,13,,,,,,,,8,05,,,,,,,,,,,,,3,0.506,0,,,,,,0.12962963,-0.261111111,1,0,0,0.5063,Diorite_rect,12,0,12,0,1,
63d520bc8833c489caf0023a,SCR,2024-06-25_12h39.26.107,LearnStrategy,2023.2.3,Win32,60.24096386,5,2,14,,,,,,,,5,07,,,,,,,,,,,,,5,1.145,1,,,,,,-0.365740741,-0.413888889,1,0,0,1.1454,Obsidian_rect,13,0,13,0,1,
63d520bc8833c489caf0023a,SCR,2024-06-25_12h39.26.107,LearnStrategy,2023.2.3,Win32,60.24096386,5,2,15,,,,,,,,3,12,,,,,,,,,,,,,1,0.395,0,,,,,,-0.332407407,-0.237037037,1,0,0,0.3951,Andesite_rect,14,0,14,0,1,
63d520bc8833c489caf0023a,SCR,2024-06-25_12h39.26.107,LearnStrategy,2023.2.3,Win32,60.24096386,5,2,16,,,,,,,,5,09,,,,,,,,,,,,,5,1.231,1,,,,,,-0.332407407,-0.387962963,1,0,0,1.2312,Obsidian_rect,15,0,15,0,1,
63d520bc8833c489caf0023a,SCR,2024-06-25_12h39.26.107,LearnStrategy,2023.2.3,Win32,60.24096386,6,1,1,0.582407407,0.258333333,1,0,0,0.7838,Gabbro_16,4,16,5,8,0.784,4,16,0.365740741,-0.400925926,1,0,0,1.2275,Pumice_rect,8,1.227,0,0,0,0,0,1,,,,,,,,,,,,,
63d520bc8833c489caf0023a,SCR,2024-06-25_12h39.26.107,LearnStrategy,2023.2.3,Win32,60.24096386,6,1,2,-0.251851852,0.462962963,1,0,0,0.9761,Gabbro_13,4,13,6,3,0.976,4,13,-0.353703704,-0.258333333,1,0,0,1.0614,Andesite_rect,1,1.061,0,1,0,1,0,1,,,,,,,,,,,,,
63d520bc8833c489caf0023a,SCR,2024-06-25_12h39.26.107,LearnStrategy,2023.2.3,Win32,60.24096386,6,1,3,-0.547222222,-0.231481481,1,0,0,0.7993,Basalt_01,2,01,2,1,0.799,2,01,0.12037037,-0.271296296,1,0,0,0.8453,Diorite_rect,3,0.845,0,2,0,2,0,1,,,,,,,,,,,,,
63d520bc8833c489caf0023a,SCR,2024-06-25_12h39.26.107,LearnStrategy,2023.2.3,Win32,60.24096386,6,1,4,-0.27962963,0.143518519,1,0,0,0.4314,Andesite_09,1,09,4,3,0.431,1,09,0.127777778,-0.267592593,1,0,0,0.5292,Diorite_rect,3,0.529,0,3,0,3,0,1,,,,,,,,,,,,,
63d520bc8833c489caf0023a,SCR,2024-06-25_12h39.26.107,LearnStrategy,2023.2.3,Win32,60.24096386,6,1,5,0.213888889,0.271296296,1,0,0,0.5326,Pegmatite_08,6,08,5,6,0.533,6,08,-0.360185185,-0.238888889,1,0,0,0.8952,Andesite_rect,1,0.895,0,4,0,4,0,1,,,,,,,,,,,,,
63d520bc8833c489caf0023a,SCR,2024-06-25_12h39.26.107,LearnStrategy,2023.2.3,Win32,60.24096386,6,1,6,0.252777778,-0.428703704,1,0,0,1.0657,Peridotite_10,7,10,1,6,1.066,7,10,0.351851852,-0.250925926,1,0,0,0.8121,Gabbro_rect,4,0.812,0,5,0,5,0,1,,,,,,,,,,,,,
63d520bc8833c489caf0023a,SCR,2024-06-25_12h39.26.107,LearnStrategy,2023.2.3,Win32,60.24096386,6,1,7,-0.512962963,-0.056481481,1,0,0,0.6821,Basalt_16,2,16,3,1,0.682,2,16,-0.35,-0.387962963,1,0,0,1.0613,Obsidian_rect,5,1.061,0,6,0,6,0,1,,,,,,,,,,,,,
63d520bc8833c489caf0023a,SCR,2024-06-25_12h39.26.107,LearnStrategy,2023.2.3,Win32,60.24096386,6,1,8,0.218518519,-0.267592593,1,0,0,0.6989,Peridotite_07,7,07,2,6,0.699,7,07,-0.199074074,-0.238888889,1,0,0,0.7285,Basalt_rect,2,0.728,0,7,0,7,0,1,,,,,,,,,,,,,
63d520bc8833c489caf0023a,SCR,2024-06-25_12h39.26.107,LearnStrategy,2023.2.3,Win32,60.24096386,6,1,9,0.412962963,-0.398148148,1,0,0,0.5296,Pumice_16,8,16,1,7,0.53,8,16,0.382407407,-0.255555556,1,0,0,0.7621,Gabbro_rect,4,0.762,0,8,0,8,0,1,,,,,,,,,,,,,
63d520bc8833c489caf0023a,SCR,2024-06-25_12h39.26.107,LearnStrategy,2023.2.3,Win32,60.24096386,6,1,10,-0.114814815,-0.216666667,1,0,0,0.6303,Pegmatite_12,6,12,2,4,0.63,6,12,-0.107407407,-0.271296296,1,0,0,0.5951,Basalt_rect,2,0.595,0,9,0,9,0,1,,,,,,,,,,,,,
63d520bc8833c489caf0023a,SCR,2024-06-25_12h39.26.107,LearnStrategy,2023.2.3,Win32,60.24096386,6,1,11,0.058333333,0.394444444,1,0,0,1.0657,Andesite_14,1,14,6,5,1.066,1,14,0.080555556,-0.37962963,1,0,0,1.145,Peridotite_rect,7,1.145,0,10,0,10,0,1,,,,,,,,,,,,,
63d520bc8833c489caf0023a,SCR,2024-06-25_12h39.26.107,LearnStrategy,2023.2.3,Win32,60.24096386,6,1,12,0.089814815,-0.237962963,1,0,0,0.749,Diorite_15,3,15,2,5,0.749,3,15,-0.381481481,-0.263888889,1,0,0,0.6622,Andesite_rect,1,0.662,0,11,0,11,0,1,,,,,,,,,,,,,
63d520bc8833c489caf0023a,SCR,2024-06-25_12h39.26.107,LearnStrategy,2023.2.3,Win32,60.24096386,6,1,13,0.212962963,0.247222222,1,0,0,0.7826,Pegmatite_08,6,08,5,6,0.783,3,07,0.087962963,-0.27037037,1,0,0,0.6782,Diorite_rect,3,0.678,0,12,0,12,0,1,,,,,,,,,,,,,
63d520bc8833c489caf0023a,SCR,2024-06-25_12h39.26.107,LearnStrategy,2023.2.3,Win32,60.24096386,6,1,14,-0.366666667,0.114814815,1,0,0,0.832,Diorite_08,3,08,4,2,0.832,3,08,0.332407407,-0.263888889,1,0,0,1.2453,Gabbro_rect,4,1.245,0,13,0,13,0,1,,,,,,,,,,,,,
63d520bc8833c489caf0023a,SCR,2024-06-25_12h39.26.107,LearnStrategy,2023.2.3,Win32,60.24096386,6,1,15,-0.365740741,-0.461111111,1,0,0,0.7991,Pumice_13,8,13,1,2,0.799,8,13,-0.336111111,-0.401851852,1,0,0,1.0785,Obsidian_rect,5,1.078,0,14,0,14,0,1,,,,,,,,,,,,,
63d520bc8833c489caf0023a,SCR,2024-06-25_12h39.26.107,LearnStrategy,2023.2.3,Win32,60.24096386,6,1,16,-0.040740741,0.212962963,1,0,0,0.5156,Peridotite_13,7,13,5,4,0.516,7,13,0.116666667,-0.393518519,1,0,0,0.6951,Peridotite_rect,7,0.695,1,15,0,15,0,1,,,,,,,,,,,,,
63d520bc8833c489caf0023a,SCR,2024-06-25_12h39.26.107,LearnStrategy,2023.2.3,Win32,60.24096386,6,2,1,,,,,,,,7,06,,,,,,,,,,,,,5,1.562,0,,,,,,-0.303703704,-0.393518519,1,0,0,1.562,Obsidian_rect,0,0,0,0,1,
63d520bc8833c489caf0023a,SCR,2024-06-25_12h39.26.107,LearnStrategy,2023.2.3,Win32,60.24096386,6,2,2,,,,,,,,2,12,,,,,,,,,,,,,2,0.229,1,,,,,,-0.184259259,-0.257407407,1,0,0,0.2289,Basalt_rect,1,0,1,0,1,
63d520bc8833c489caf0023a,SCR,2024-06-25_12h39.26.107,LearnStrategy,2023.2.3,Win32,60.24096386,6,2,3,,,,,,,,4,10,,,,,,,,,,,,,8,0.262,0,,,,,,0.336111111,-0.397222222,1,0,0,0.262,Pumice_rect,2,0,2,0,1,
63d520bc8833c489caf0023a,SCR,2024-06-25_12h39.26.107,LearnStrategy,2023.2.3,Win32,60.24096386,6,2,4,,,,,,,,7,08,,,,,,,,,,,,,3,0.245,0,,,,,,0.173148148,-0.22962963,1,0,0,0.2453,Diorite_rect,3,0,3,0,1,
63d520bc8833c489caf0023a,SCR,2024-06-25_12h39.26.107,LearnStrategy,2023.2.3,Win32,60.24096386,6,2,5,,,,,,,,5,10,,,,,,,,,,,,,5,0.986,1,,,,,,-0.322222222,-0.405555556,1,0,0,0.9855,Obsidian_rect,4,0,4,0,1,
63d520bc8833c489caf0023a,SCR,2024-06-25_12h39.26.107,LearnStrategy,2023.2.3,Win32,60.24096386,6,2,6,,,,,,,,6,11,,,,,,,,,,,,,4,0.363,0,,,,,,0.336111111,-0.267592593,1,0,0,0.3629,Gabbro_rect,5,0,5,0,1,
63d520bc8833c489caf0023a,SCR,2024-06-25_12h39.26.107,LearnStrategy,2023.2.3,Win32,60.24096386,6,2,7,,,,,,,,1,16,,,,,,,,,,,,,3,0.895,0,,,,,,0.097222222,-0.248148148,1,0,0,0.8954,Diorite_rect,6,0,6,0,1,
63d520bc8833c489caf0023a,SCR,2024-06-25_12h39.26.107,LearnStrategy,2023.2.3,Win32,60.24096386,6,2,8,,,,,,,,8,02,,,,,,,,,,,,,1,0.712,0,,,,,,-0.312962963,-0.228703704,1,0,0,0.7121,Andesite_rect,7,0,7,0,1,
63d520bc8833c489caf0023a,SCR,2024-06-25_12h39.26.107,LearnStrategy,2023.2.3,Win32,60.24096386,6,2,9,,,,,,,,6,09,,,,,,,,,,,,,7,0.795,0,,,,,,0.219444444,-0.391666667,1,0,0,0.7954,Peridotite_rect,8,0,8,0,1,
63d520bc8833c489caf0023a,SCR,2024-06-25_12h39.26.107,LearnStrategy,2023.2.3,Win32,60.24096386,6,2,10,,,,,,,,3,06,,,,,,,,,,,,,6,0.179,0,,,,,,-0.130555556,-0.381481481,1,0,0,0.1787,Pegmatite_rect,9,0,9,0,1,
63d520bc8833c489caf0023a,SCR,2024-06-25_12h39.26.107,LearnStrategy,2023.2.3,Win32,60.24096386,6,2,11,,,,,,,,1,07,,,,,,,,,,,,,2,0.412,0,,,,,,-0.065740741,-0.259259259,1,0,0,0.4124,Basalt_rect,10,0,10,0,1,
63d520bc8833c489caf0023a,SCR,2024-06-25_12h39.26.107,LearnStrategy,2023.2.3,Win32,60.24096386,6,2,12,,,,,,,,3,16,,,,,,,,,,,,,8,0.312,0,,,,,,0.392592593,-0.389814815,1,0,0,0.3122,Pumice_rect,11,0,11,0,1,
63d520bc8833c489caf0023a,SCR,2024-06-25_12h39.26.107,LearnStrategy,2023.2.3,Win32,60.24096386,6,2,13,,,,,,,,2,14,,,,,,,,,,,,,4,0.262,0,,,,,,0.375925926,-0.231481481,1,0,0,0.2623,Gabbro_rect,12,0,12,0,1,
63d520bc8833c489caf0023a,SCR,2024-06-25_12h39.26.107,LearnStrategy,2023.2.3,Win32,60.24096386,6,2,14,,,,,,,,5,11,,,,,,,,,,,,,7,0.346,0,,,,,,0.135185185,-0.416666667,1,0,0,0.346,Peridotite_rect,13,0,13,0,1,
63d520bc8833c489caf0023a,SCR,2024-06-25_12h39.26.107,LearnStrategy,2023.2.3,Win32,60.24096386,6,2,15,,,,,,,,4,01,,,,,,,,,,,,,3,0.162,0,,,,,,0.103703704,-0.255555556,1,0,0,0.1616,Diorite_rect,14,0,14,0,1,
63d520bc8833c489caf0023a,SCR,2024-06-25_12h39.26.107,LearnStrategy,2023.2.3,Win32,60.24096386,6,2,16,,,,,,,,8,14,,,,,,,,,,,,,2,1.096,0,,,,,,-0.161111111,-0.240740741,1,0,0,1.0956,Basalt_rect,15,0,15,0,1,
63d520bc8833c489caf0023a,SCR,2024-06-25_12h39.26.107,LearnStrategy,2023.2.3,Win32,60.24096386,7,1,1,-0.540740741,0.387037037,1,0,0,0.9829,Basalt_02,2,02,6,1,0.983,2,02,0.155555556,-0.251851852,1,0,0,0.9119,Diorite_rect,3,0.912,0,0,0,0,0,1,,,,,,,,,,,,,
63d520bc8833c489caf0023a,SCR,2024-06-25_12h39.26.107,LearnStrategy,2023.2.3,Win32,60.24096386,7,1,2,0.05462963,0.439814815,1,0,0,0.6156,Andesite_14,1,14,6,5,0.616,1,14,-0.046296296,-0.257407407,1,0,0,1.4122,Basalt_rect,2,1.412,0,1,0,1,0,1,,,,,,,,,,,,,
63d520bc8833c489caf0023a,SCR,2024-06-25_12h39.26.107,LearnStrategy,2023.2.3,Win32,60.24096386,7,1,3,-0.059259259,0.282407407,1,0,0,0.616,Peridotite_13,7,13,5,4,0.616,7,13,0.130555556,-0.244444444,1,0,0,0.7278,Diorite_rect,3,0.728,0,2,0,2,0,1,,,,,,,,,,,,,
63d520bc8833c489caf0023a,SCR,2024-06-25_12h39.26.107,LearnStrategy,2023.2.3,Win32,60.24096386,7,1,4,-0.391666667,0.078703704,1,0,0,0.9316,Diorite_08,3,08,4,2,0.932,3,08,0.081481481,-0.246296296,1,0,0,0.996,Diorite_rect,3,0.996,1,3,0,3,0,1,,,,,,,,,,,,,
63d520bc8833c489caf0023a,SCR,2024-06-25_12h39.26.107,LearnStrategy,2023.2.3,Win32,60.24096386,7,1,5,0.352777778,-0.252777778,1,0,0,0.8325,Pegmatite_15,6,15,2,7,0.832,6,15,0.399074074,-0.266666667,1,0,0,0.3784,Gabbro_rect,4,0.378,0,4,0,4,0,1,,,,,,,,,,,,,
63d520bc8833c489caf0023a,SCR,2024-06-25_12h39.26.107,LearnStrategy,2023.2.3,Win32,60.24096386,7,1,6,-0.437037037,0.262962963,1,0,0,0.7986,Pegmatite_13,6,13,5,2,0.799,6,13,-0.381481481,-0.39537037,1,0,0,0.5951,Obsidian_rect,5,0.595,0,5,0,5,0,1,,,,,,,,,,,,,
63d520bc8833c489caf0023a,SCR,2024-06-25_12h39.26.107,LearnStrategy,2023.2.3,Win32,60.24096386,7,1,7,0.424074074,-0.407407407,1,0,0,0.7991,Pumice_16,8,16,1,7,0.799,8,16,-0.061111111,-0.390740741,1,0,0,0.5284,Pegmatite_rect,6,0.528,0,6,0,6,0,1,,,,,,,,,,,,,
63d520bc8833c489caf0023a,SCR,2024-06-25_12h39.26.107,LearnStrategy,2023.2.3,Win32,60.24096386,7,1,8,0.27037037,0.40462963,1,0,0,0.8154,Obsidian_16,5,16,6,6,0.815,5,16,-0.382407407,-0.393518519,1,0,0,1.2641,Obsidian_rect,5,1.264,1,7,0,7,0,1,,,,,,,,,,,,,
63d520bc8833c489caf0023a,SCR,2024-06-25_12h39.26.107,LearnStrategy,2023.2.3,Win32,60.24096386,7,1,9,-0.430555556,0.387037037,1,0,0,0.6988,Gabbro_08,4,08,6,2,0.699,4,08,0.150925926,-0.381481481,1,0,0,0.6454,Peridotite_rect,7,0.645,0,8,0,8,0,1,,,,,,,,,,,,,
63d520bc8833c489caf0023a,SCR,2024-06-25_12h39.26.107,LearnStrategy,2023.2.3,Win32,60.24096386,7,1,10,0.501851852,-0.072222222,1,0,0,0.682,Andesite_11,1,11,3,8,0.682,1,11,-0.033333333,-0.241666667,1,0,0,1.3454,Basalt_rect,2,1.345,0,9,0,9,0,1,,,,,,,,,,,,,
63d520bc8833c489caf0023a,SCR,2024-06-25_12h39.26.107,LearnStrategy,2023.2.3,Win32,60.24096386,7,1,11,0.061111111,-0.393518519,1,0,0,1.3825,Peridotite_15,7,15,1,5,1.383,7,15,-0.369444444,-0.27037037,1,0,0,1.2288,Andesite_rect,1,1.229,0,10,0,10,0,1,,,,,,,,,,,,,
63d520bc8833c489caf0023a,SCR,2024-06-25_12h39.26.107,LearnStrategy,2023.2.3,Win32,60.24096386,7,1,12,-0.563888889,-0.102777778,1,0,0,0.7823,Basalt_16,2,16,3,1,0.782,2,16,0.171296296,-0.236111111,1,0,0,0.6122,Diorite_rect,3,0.612,0,11,0,11,0,1,,,,,,,,,,,,,
63d520bc8833c489caf0023a,SCR,2024-06-25_12h39.26.107,LearnStrategy,2023.2.3,Win32,60.24096386,7,1,13,0.061111111,-0.287962963,1,0,0,0.8492,Diorite_15,3,15,2,5,0.849,3,15,-0.040740741,-0.402777778,1,0,0,0.4451,Pegmatite_rect,6,0.445,0,12,0,12,0,1,,,,,,,,,,,,,
63d520bc8833c489caf0023a,SCR,2024-06-25_12h39.26.107,LearnStrategy,2023.2.3,Win32,60.24096386,7,1,14,0.233333333,-0.374074074,1,0,0,0.6658,Peridotite_10,7,10,1,6,0.666,7,10,0.318518519,-0.403703704,1,0,0,0.5619,Pumice_rect,8,0.562,0,13,0,13,0,1,,,,,,,,,,,,,
63d520bc8833c489caf0023a,SCR,2024-06-25_12h39.26.107,LearnStrategy,2023.2.3,Win32,60.24096386,7,1,15,-0.234259259,0.421296296,1,0,0,0.7493,Gabbro_13,4,13,6,3,0.749,4,13,-0.352777778,-0.271296296,1,0,0,1.495,Andesite_rect,1,1.495,0,14,0,14,0,1,,,,,,,,,,,,,
63d520bc8833c489caf0023a,SCR,2024-06-25_12h39.26.107,LearnStrategy,2023.2.3,Win32,60.24096386,7,1,16,-0.57962963,-0.425,1,0,0,0.8658,Pumice_06,8,06,1,1,0.866,8,06,0.117592593,-0.228703704,1,0,0,0.5952,Diorite_rect,3,0.595,0,15,0,15,0,1,,,,,,,,,,,,,
63d520bc8833c489caf0023a,SCR,2024-06-25_12h39.26.107,LearnStrategy,2023.2.3,Win32,60.24096386,7,2,1,,,,,,,,6,07,,,,,,,,,,,,,5,1.262,0,,,,,,-0.336111111,-0.412037037,1,0,0,1.2621,Obsidian_rect,0,0,0,0,1,
63d520bc8833c489caf0023a,SCR,2024-06-25_12h39.26.107,LearnStrategy,2023.2.3,Win32,60.24096386,7,2,2,,,,,,,,4,09,,,,,,,,,,,,,2,0.662,0,,,,,,-0.07037037,-0.263888889,1,0,0,0.6621,Basalt_rect,1,0,1,0,1,
63d520bc8833c489caf0023a,SCR,2024-06-25_12h39.26.107,LearnStrategy,2023.2.3,Win32,60.24096386,7,2,3,,,,,,,,2,14,,,,,,,,,,,,,3,1.179,0,,,,,,0.17037037,-0.237962963,1,0,0,1.1788,Diorite_rect,2,0,2,0,1,
63d520bc8833c489caf0023a,SCR,2024-06-25_12h39.26.107,LearnStrategy,2023.2.3,Win32,60.24096386,7,2,4,,,,,,,,1,05,,,,,,,,,,,,,8,0.245,0,,,,,,0.373148148,-0.380555556,1,0,0,0.2453,Pumice_rect,3,0,3,0,1,
63d520bc8833c489caf0023a,SCR,2024-06-25_12h39.26.107,LearnStrategy,2023.2.3,Win32,60.24096386,7,2,5,,,,,,,,8,05,,,,,,,,,,,,,4,0.429,0,,,,,,0.359259259,-0.236111111,1,0,0,0.4287,Gabbro_rect,4,0,4,0,1,
63d520bc8833c489caf0023a,SCR,2024-06-25_12h39.26.107,LearnStrategy,2023.2.3,Win32,60.24096386,7,2,6,,,,,,,,6,05,,,,,,,,,,,,,6,0.312,1,,,,,,-0.190740741,-0.400925926,1,0,0,0.312,Pegmatite_rect,5,0,5,0,1,
63d520bc8833c489caf0023a,SCR,2024-06-25_12h39.26.107,LearnStrategy,2023.2.3,Win32,60.24096386,7,2,7,,,,,,,,7,14,,,,,,,,,,,,,1,0.245,0,,,,,,-0.380555556,-0.230555556,1,0,0,0.2455,Andesite_rect,6,0,6,0,1,
63d520bc8833c489caf0023a,SCR,2024-06-25_12h39.26.107,LearnStrategy,2023.2.3,Win32,60.24096386,7,2,8,,,,,,,,7,06,,,,,,,,,,,,,2,0.362,0,,,,,,-0.051851852,-0.238888889,1,0,0,0.3618,Basalt_rect,7,0,7,0,1,
63d520bc8833c489caf0023a,SCR,2024-06-25_12h39.26.107,LearnStrategy,2023.2.3,Win32,60.24096386,7,2,9,,,,,,,,2,11,,,,,,,,,,,,,3,0.362,0,,,,,,0.156481481,-0.231481481,1,0,0,0.362,Diorite_rect,8,0,8,0,1,
63d520bc8833c489caf0023a,SCR,2024-06-25_12h39.26.107,LearnStrategy,2023.2.3,Win32,60.24096386,7,2,10,,,,,,,,8,04,,,,,,,,,,,,,2,0.512,0,,,,,,-0.109259259,-0.230555556,1,0,0,0.5121,Basalt_rect,9,0,9,0,1,
63d520bc8833c489caf0023a,SCR,2024-06-25_12h39.26.107,LearnStrategy,2023.2.3,Win32,60.24096386,7,2,11,,,,,,,,5,11,,,,,,,,,,,,,5,0.629,1,,,,,,-0.321296296,-0.402777778,1,0,0,0.6291,Obsidian_rect,10,0,10,0,1,
63d520bc8833c489caf0023a,SCR,2024-06-25_12h39.26.107,LearnStrategy,2023.2.3,Win32,60.24096386,7,2,12,,,,,,,,4,11,,,,,,,,,,,,,7,0.446,0,,,,,,0.080555556,-0.388888889,1,0,0,0.4458,Peridotite_rect,11,0,11,0,1,
63d520bc8833c489caf0023a,SCR,2024-06-25_12h39.26.107,LearnStrategy,2023.2.3,Win32,60.24096386,7,2,13,,,,,,,,3,16,,,,,,,,,,,,,2,0.278,0,,,,,,-0.069444444,-0.260185185,1,0,0,0.2784,Basalt_rect,12,0,12,0,1,
63d520bc8833c489caf0023a,SCR,2024-06-25_12h39.26.107,LearnStrategy,2023.2.3,Win32,60.24096386,7,2,14,,,,,,,,3,06,,,,,,,,,,,,,3,0.678,1,,,,,,0.137962963,-0.243518519,1,0,0,0.6785,Diorite_rect,13,0,13,0,1,
63d520bc8833c489caf0023a,SCR,2024-06-25_12h39.26.107,LearnStrategy,2023.2.3,Win32,60.24096386,7,2,15,,,,,,,,5,10,,,,,,,,,,,,,5,0.678,1,,,,,,-0.358333333,-0.393518519,1,0,0,0.6782,Obsidian_rect,14,0,14,0,1,
63d520bc8833c489caf0023a,SCR,2024-06-25_12h39.26.107,LearnStrategy,2023.2.3,Win32,60.24096386,7,2,16,,,,,,,,1,16,,,,,,,,,,,,,6,0.396,0,,,,,,-0.146296296,-0.392592593,1,0,0,0.3959,Pegmatite_rect,15,0,15,0,1,
63d520bc8833c489caf0023a,SCR,2024-06-25_12h39.26.107,LearnStrategy,2023.2.3,Win32,60.24096386,8,1,1,0.252777778,0.087037037,1,0,0,0.915,Pumice_15,8,15,4,6,0.915,8,15,0.181481481,-0.228703704,1,0,0,0.5957,Diorite_rect,3,0.596,0,0,0,0,0,1,,,,,,,,,,,,,
63d520bc8833c489caf0023a,SCR,2024-06-25_12h39.26.107,LearnStrategy,2023.2.3,Win32,60.24096386,8,1,2,0.510185185,-0.45462963,1,0,0,0.7154,Andesite_10,1,10,1,8,0.715,1,10,-0.156481481,-0.262037037,1,0,0,1.0518,Basalt_rect,2,1.052,0,1,0,1,0,1,,,,,,,,,,,,,
63d520bc8833c489caf0023a,SCR,2024-06-25_12h39.26.107,LearnStrategy,2023.2.3,Win32,60.24096386,8,1,3,0.355555556,0.144444444,1,0,0,0.6149,Basalt_04,2,04,4,7,0.615,2,04,-0.410185185,-0.236111111,1,0,0,0.6286,Andesite_rect,1,0.629,0,2,0,2,0,1,,,,,,,,,,,,,
63d520bc8833c489caf0023a,SCR,2024-06-25_12h39.26.107,LearnStrategy,2023.2.3,Win32,60.24096386,8,1,4,0.035185185,-0.39537037,1,0,0,0.7659,Peridotite_15,7,15,1,5,0.766,7,15,0.122222222,-0.265740741,1,0,0,0.6451,Diorite_rect,3,0.645,0,3,0,3,0,1,,,,,,,,,,,,,
63d520bc8833c489caf0023a,SCR,2024-06-25_12h39.26.107,LearnStrategy,2023.2.3,Win32,60.24096386,8,1,5,-0.380555556,-0.436111111,1,0,0,0.7994,Pumice_13,8,13,1,2,0.799,8,13,-0.101851852,-0.385185185,1,0,0,1.1785,Pegmatite_rect,6,1.178,0,4,0,4,0,1,,,,,,,,,,,,,
63d520bc8833c489caf0023a,SCR,2024-06-25_12h39.26.107,LearnStrategy,2023.2.3,Win32,60.24096386,8,1,6,-0.573148148,-0.097222222,1,0,0,0.6154,Basalt_16,2,16,3,1,0.615,2,16,0.138888889,-0.250925926,1,0,0,0.5623,Diorite_rect,3,0.562,0,5,0,5,0,1,,,,,,,,,,,,,
63d520bc8833c489caf0023a,SCR,2024-06-25_12h39.26.107,LearnStrategy,2023.2.3,Win32,60.24096386,8,1,7,0.537962963,0.113888889,1,0,0,0.6484,Peridotite_05,7,05,4,8,0.648,7,05,0.313888889,-0.249074074,1,0,0,1.1619,Gabbro_rect,4,1.162,0,6,0,6,0,1,,,,,,,,,,,,,
63d520bc8833c489caf0023a,SCR,2024-06-25_12h39.26.107,LearnStrategy,2023.2.3,Win32,60.24096386,8,1,8,0.35,-0.243518519,1,0,0,0.8158,Pegmatite_15,6,15,2,7,0.816,6,15,0.115740741,-0.390740741,1,0,0,0.6285,Peridotite_rect,7,0.628,0,7,0,7,0,1,,,,,,,,,,,,,
63d520bc8833c489caf0023a,SCR,2024-06-25_12h39.26.107,LearnStrategy,2023.2.3,Win32,60.24096386,8,1,9,-0.100925926,0.415740741,1,0,0,0.6486,Diorite_02,3,02,6,4,0.649,3,02,0.087037037,-0.241666667,1,0,0,0.7623,Diorite_rect,3,0.762,1,8,0,8,0,1,,,,,,,,,,,,,
63d520bc8833c489caf0023a,SCR,2024-06-25_12h39.26.107,LearnStrategy,2023.2.3,Win32,60.24096386,8,1,10,0.067592593,0.425925926,1,0,0,0.682,Andesite_14,1,14,6,5,0.682,1,14,-0.319444444,-0.237962963,1,0,0,0.7014,Andesite_rect,1,0.701,1,9,0,9,0,1,,,,,,,,,,,,,
63d520bc8833c489caf0023a,SCR,2024-06-25_12h39.26.107,LearnStrategy,2023.2.3,Win32,60.24096386,8,1,11,0.19537037,-0.268518519,1,0,0,0.7363,Peridotite_07,7,07,2,6,0.736,7,07,-0.358333333,-0.269444444,1,0,0,0.6413,Andesite_rect,1,0.641,0,10,0,10,0,1,,,,,,,,,,,,,
63d520bc8833c489caf0023a,SCR,2024-06-25_12h39.26.107,LearnStrategy,2023.2.3,Win32,60.24096386,8,1,12,-0.273148148,0.430555556,1,0,0,0.6662,Gabbro_13,4,13,6,3,0.666,4,13,0.09537037,-0.248148148,1,0,0,0.9449,Diorite_rect,3,0.945,0,11,0,11,0,1,,,,,,,,,,,,,
63d520bc8833c489caf0023a,SCR,2024-06-25_12h39.26.107,LearnStrategy,2023.2.3,Win32,60.24096386,8,1,13,0.547222222,0.390740741,1,0,0,1.1832,Obsidian_02,5,02,6,8,1.183,5,02,-0.343518519,-0.398148148,1,0,0,0.7614,Obsidian_rect,5,0.761,1,12,0,12,0,1,,,,,,,,,,,,,
63d520bc8833c489caf0023a,SCR,2024-06-25_12h39.26.107,LearnStrategy,2023.2.3,Win32,60.24096386,8,1,14,0.087962963,-0.223148148,1,0,0,0.5657,Diorite_15,3,15,2,5,0.566,3,15,-0.162962963,-0.243518519,1,0,0,0.4931,Basalt_rect,2,0.493,0,13,0,13,0,1,,,,,,,,,,,,,
63d520bc8833c489caf0023a,SCR,2024-06-25_12h39.26.107,LearnStrategy,2023.2.3,Win32,60.24096386,8,1,15,0.244444444,0.206481481,1,0,0,0.6497,Pegmatite_08,6,08,5,6,0.65,6,08,0.392592593,-0.256481481,1,0,0,0.5782,Gabbro_rect,4,0.578,0,14,0,14,0,1,,,,,,,,,,,,,
63d520bc8833c489caf0023a,SCR,2024-06-25_12h39.26.107,LearnStrategy,2023.2.3,Win32,60.24096386,8,1,16,-0.225,-0.391666667,1,0,0,0.6651,Gabbro_05,4,05,1,3,0.665,4,05,-0.136111111,-0.261111111,1,0,0,0.3951,Basalt_rect,2,0.395,0,15,0,15,0,1,,,,,,,,,,,,,
63d520bc8833c489caf0023a,SCR,2024-06-25_12h39.26.107,LearnStrategy,2023.2.3,Win32,60.24096386,8,2,1,,,,,,,,1,01,,,,,,,,,,,,,2,0.429,0,,,,,,-0.17037037,-0.243518519,1,0,0,0.4292,Basalt_rect,0,0,0,0,1,
63d520bc8833c489caf0023a,SCR,2024-06-25_12h39.26.107,LearnStrategy,2023.2.3,Win32,60.24096386,8,2,2,,,,,,,,5,09,,,,,,,,,,,,,5,0.529,1,,,,,,-0.415740741,-0.411111111,1,0,0,0.529,Obsidian_rect,1,0,1,0,1,
63d520bc8833c489caf0023a,SCR,2024-06-25_12h39.26.107,LearnStrategy,2023.2.3,Win32,60.24096386,8,2,3,,,,,,,,6,03,,,,,,,,,,,,,3,0.512,0,,,,,,0.12037037,-0.249074074,1,0,0,0.5122,Diorite_rect,2,0,2,0,1,
63d520bc8833c489caf0023a,SCR,2024-06-25_12h39.26.107,LearnStrategy,2023.2.3,Win32,60.24096386,8,2,4,,,,,,,,5,14,,,,,,,,,,,,,5,0.979,1,,,,,,-0.291666667,-0.419444444,1,0,0,0.9788,Obsidian_rect,3,0,3,0,1,
63d520bc8833c489caf0023a,SCR,2024-06-25_12h39.26.107,LearnStrategy,2023.2.3,Win32,60.24096386,8,2,5,,,,,,,,8,14,,,,,,,,,,,,,7,0.728,0,,,,,,0.092592593,-0.397222222,1,0,0,0.7284,Peridotite_rect,4,0,4,0,1,
63d520bc8833c489caf0023a,SCR,2024-06-25_12h39.26.107,LearnStrategy,2023.2.3,Win32,60.24096386,8,2,6,,,,,,,,1,06,,,,,,,,,,,,,1,0.512,1,,,,,,-0.333333333,-0.263888889,1,0,0,0.5119,Andesite_rect,5,0,5,0,1,
63d520bc8833c489caf0023a,SCR,2024-06-25_12h39.26.107,LearnStrategy,2023.2.3,Win32,60.24096386,8,2,7,,,,,,,,6,16,,,,,,,,,,,,,8,0.296,0,,,,,,0.416666667,-0.388888889,1,0,0,0.296,Pumice_rect,6,0,6,0,1,
63d520bc8833c489caf0023a,SCR,2024-06-25_12h39.26.107,LearnStrategy,2023.2.3,Win32,60.24096386,8,2,8,,,,,,,,3,12,,,,,,,,,,,,,4,0.296,0,,,,,,0.374074074,-0.244444444,1,0,0,0.2957,Gabbro_rect,7,0,7,0,1,
63d520bc8833c489caf0023a,SCR,2024-06-25_12h39.26.107,LearnStrategy,2023.2.3,Win32,60.24096386,8,2,9,,,,,,,,4,01,,,,,,,,,,,,,3,0.796,0,,,,,,0.137037037,-0.266666667,1,0,0,0.7959,Diorite_rect,8,0,8,0,1,
63d520bc8833c489caf0023a,SCR,2024-06-25_12h39.26.107,LearnStrategy,2023.2.3,Win32,60.24096386,8,2,10,,,,,,,,8,09,,,,,,,,,,,,,2,0.761,0,,,,,,-0.075,-0.262037037,1,0,0,0.7612,Basalt_rect,9,0,9,0,1,
63d520bc8833c489caf0023a,SCR,2024-06-25_12h39.26.107,LearnStrategy,2023.2.3,Win32,60.24096386,8,2,11,,,,,,,,3,13,,,,,,,,,,,,,7,0.545,0,,,,,,0.061111111,-0.383333333,1,0,0,0.5454,Peridotite_rect,10,0,10,0,1,
63d520bc8833c489caf0023a,SCR,2024-06-25_12h39.26.107,LearnStrategy,2023.2.3,Win32,60.24096386,8,2,12,,,,,,,,2,05,,,,,,,,,,,,,1,1.479,0,,,,,,-0.352777778,-0.264814815,1,0,0,1.479,Andesite_rect,11,0,11,0,1,
63d520bc8833c489caf0023a,SCR,2024-06-25_12h39.26.107,LearnStrategy,2023.2.3,Win32,60.24096386,8,2,13,,,,,,,,2,12,,,,,,,,,,,,,2,0.679,1,,,,,,-0.112037037,-0.237962963,1,0,0,0.6786,Basalt_rect,12,0,12,0,1,
63d520bc8833c489caf0023a,SCR,2024-06-25_12h39.26.107,LearnStrategy,2023.2.3,Win32,60.24096386,8,2,14,,,,,,,,4,12,,,,,,,,,,,,,3,0.379,0,,,,,,0.130555556,-0.248148148,1,0,0,0.379,Diorite_rect,13,0,13,0,1,
63d520bc8833c489caf0023a,SCR,2024-06-25_12h39.26.107,LearnStrategy,2023.2.3,Win32,60.24096386,8,2,15,,,,,,,,7,02,,,,,,,,,,,,,6,0.395,0,,,,,,-0.087962963,-0.397222222,1,0,0,0.3951,Pegmatite_rect,14,0,14,0,1,
63d520bc8833c489caf0023a,SCR,2024-06-25_12h39.26.107,LearnStrategy,2023.2.3,Win32,60.24096386,8,2,16,,,,,,,,7,16,,,,,,,,,,,,,4,0.496,0,,,,,,0.339814815,-0.253703704,1,0,0,0.4956,Gabbro_rect,15,0,15,0,1,
63d520bc8833c489caf0023a,SCR,2024-06-25_12h39.26.107,LearnStrategy,2023.2.3,Win32,60.24096386,9,1,1,-0.562962963,-0.22037037,1,0,0,0.6994,Basalt_01,2,01,2,1,0.699,2,01,-0.217592593,-0.265740741,1,0,0,0.4287,Basalt_rect,2,0.429,1,0,0,0,0,1,,,,,,,,,,,,,
63d520bc8833c489caf0023a,SCR,2024-06-25_12h39.26.107,LearnStrategy,2023.2.3,Win32,60.24096386,9,1,2,0.261111111,-0.394444444,1,0,0,0.9826,Peridotite_10,7,10,1,6,0.983,7,10,0.169444444,-0.248148148,1,0,0,0.4953,Diorite_rect,3,0.495,0,1,0,1,0,1,,,,,,,,,,,,,
63d520bc8833c489caf0023a,SCR,2024-06-25_12h39.26.107,LearnStrategy,2023.2.3,Win32,60.24096386,9,1,3,-0.531481481,0.121296296,1,0,0,0.9486,Obsidian_08,5,08,4,1,0.949,5,08,-0.358333333,-0.400925926,1,0,0,0.862,Obsidian_rect,5,0.862,1,2,0,2,0,1,,,,,,,,,,,,,
63d520bc8833c489caf0023a,SCR,2024-06-25_12h39.26.107,LearnStrategy,2023.2.3,Win32,60.24096386,9,1,4,-0.203703704,0.366666667,1,0,0,0.9158,Gabbro_13,4,13,6,3,0.916,4,13,-0.108333333,-0.243518519,1,0,0,0.5953,Basalt_rect,2,0.595,0,3,0,3,0,1,,,,,,,,,,,,,
63d520bc8833c489caf0023a,SCR,2024-06-25_12h39.26.107,LearnStrategy,2023.2.3,Win32,60.24096386,9,1,5,-0.430555556,0.07962963,1,0,0,0.7492,Diorite_08,3,08,4,2,0.749,3,08,0.109259259,-0.248148148,1,0,0,0.813,Diorite_rect,3,0.813,1,4,0,4,0,1,,,,,,,,,,,,,
63d520bc8833c489caf0023a,SCR,2024-06-25_12h39.26.107,LearnStrategy,2023.2.3,Win32,60.24096386,9,1,6,0.258333333,0.256481481,1,0,0,0.949,Pegmatite_08,6,08,5,6,0.949,6,08,-0.106481481,-0.256481481,1,0,0,0.5954,Basalt_rect,2,0.595,0,5,0,5,0,1,,,,,,,,,,,,,
63d520bc8833c489caf0023a,SCR,2024-06-25_12h39.26.107,LearnStrategy,2023.2.3,Win32,60.24096386,9,1,7,-0.391666667,-0.394444444,1,0,0,1.0489,Pumice_13,8,13,1,2,1.049,8,13,0.118518519,-0.413888889,1,0,0,3.4623,Peridotite_rect,7,3.462,0,6,0,6,0,1,,,,,,,,,,,,,
63d520bc8833c489caf0023a,SCR,2024-06-25_12h39.26.107,LearnStrategy,2023.2.3,Win32,60.24096386,9,1,8,-0.347222222,-0.072222222,1,0,0,0.7324,Pumice_03,8,03,3,2,0.732,8,03,0.325925926,-0.252777778,1,0,0,1.0453,Gabbro_rect,4,1.045,0,7,0,7,0,1,,,,,,,,,,,,,
63d520bc8833c489caf0023a,SCR,2024-06-25_12h39.26.107,LearnStrategy,2023.2.3,Win32,60.24096386,9,1,9,-0.259259259,0.084259259,1,0,0,0.8989,Andesite_09,1,09,4,3,0.899,1,09,-0.110185185,-0.238888889,1,0,0,0.8785,Basalt_rect,2,0.879,0,8,0,8,0,1,,,,,,,,,,,,,
63d520bc8833c489caf0023a,SCR,2024-06-25_12h39.26.107,LearnStrategy,2023.2.3,Win32,60.24096386,9,1,10,-0.252777778,-0.252777778,1,0,0,0.7493,Gabbro_14,4,14,2,3,0.749,4,14,0.112962963,-0.25462963,1,0,0,0.6118,Diorite_rect,3,0.612,0,9,0,9,0,1,,,,,,,,,,,,,
63d520bc8833c489caf0023a,SCR,2024-06-25_12h39.26.107,LearnStrategy,2023.2.3,Win32,60.24096386,9,1,11,-0.125925926,0.397222222,1,0,0,0.6496,Diorite_02,3,02,6,4,0.65,3,02,-0.340740741,-0.263888889,1,0,0,0.8779,Andesite_rect,1,0.878,0,10,0,10,0,1,,,,,,,,,,,,,
63d520bc8833c489caf0023a,SCR,2024-06-25_12h39.26.107,LearnStrategy,2023.2.3,Win32,60.24096386,9,1,12,-0.127777778,0.234259259,1,0,0,0.7328,Peridotite_13,7,13,5,4,0.733,7,13,0.106481481,-0.24537037,1,0,0,1.0613,Diorite_rect,3,1.061,0,11,0,11,0,1,,,,,,,,,,,,,
63d520bc8833c489caf0023a,SCR,2024-06-25_12h39.26.107,LearnStrategy,2023.2.3,Win32,60.24096386,9,1,13,-0.071296296,0.22962963,1,0,0,0.7156,Peridotite_13,7,13,5,4,0.716,7,13,0.127777778,-0.382407407,1,0,0,1.046,Peridotite_rect,7,1.046,1,12,0,12,0,1,,,,,,,,,,,,,
63d520bc8833c489caf0023a,SCR,2024-06-25_12h39.26.107,LearnStrategy,2023.2.3,Win32,60.24096386,9,1,14,-0.027777778,-0.260185185,1,0,0,0.7652,Pegmatite_12,6,12,2,4,0.765,6,12,0.02962963,-0.269444444,1,0,0,0.9952,Diorite_rect,3,0.995,0,13,0,13,0,1,,,,,,,,,,,,,
63d520bc8833c489caf0023a,SCR,2024-06-25_12h39.26.107,LearnStrategy,2023.2.3,Win32,60.24096386,9,1,15,0.355555556,0.109259259,1,0,0,0.7977,Basalt_04,2,04,4,7,0.798,2,04,0.356481481,-0.230555556,1,0,0,0.612,Gabbro_rect,4,0.612,0,14,0,14,0,1,,,,,,,,,,,,,
63d520bc8833c489caf0023a,SCR,2024-06-25_12h39.26.107,LearnStrategy,2023.2.3,Win32,60.24096386,9,1,16,0.032407407,0.366666667,1,0,0,0.7327,Andesite_14,1,14,6,5,0.733,1,14,-0.072222222,-0.246296296,1,0,0,3.2447,Basalt_rect,2,3.245,0,15,0,15,0,1,,,,,,,,,,,,,
63d520bc8833c489caf0023a,SCR,2024-06-25_12h39.26.107,LearnStrategy,2023.2.3,Win32,60.24096386,9,2,1,,,,,,,,5,05,,,,,,,,,,,,,5,0.929,1,,,,,,-0.333333333,-0.394444444,1,0,0,0.9291,Obsidian_rect,0,0,0,0,1,
63d520bc8833c489caf0023a,SCR,2024-06-25_12h39.26.107,LearnStrategy,2023.2.3,Win32,60.24096386,9,2,2,,,,,,,,5,07,,,,,,,,,,,,,5,0.879,1,,,,,,-0.35,-0.387037037,1,0,0,0.8788,Obsidian_rect,1,0,1,0,1,
63d520bc8833c489caf0023a,SCR,2024-06-25_12h39.26.107,LearnStrategy,2023.2.3,Win32,60.24096386,9,2,3,,,,,,,,7,12,,,,,,,,,,,,,3,1.545,0,,,,,,0.083333333,-0.230555556,1,0,0,1.5454,Diorite_rect,2,0,2,0,1,
63d520bc8833c489caf0023a,SCR,2024-06-25_12h39.26.107,LearnStrategy,2023.2.3,Win32,60.24096386,9,2,4,,,,,,,,4,10,,,,,,,,,,,,,2,1.412,0,,,,,,-0.20462963,-0.237962963,1,0,0,1.412,Basalt_rect,3,0,3,0,1,
63d520bc8833c489caf0023a,SCR,2024-06-25_12h39.26.107,LearnStrategy,2023.2.3,Win32,60.24096386,9,2,5,,,,,,,,2,06,,,,,,,,,,,,,7,0.546,0,,,,,,0.160185185,-0.381481481,1,0,0,0.5459,Peridotite_rect,4,0,4,0,1,
63d520bc8833c489caf0023a,SCR,2024-06-25_12h39.26.107,LearnStrategy,2023.2.3,Win32,60.24096386,9,2,6,,,,,,,,3,11,,,,,,,,,,,,,6,0.448,0,,,,,,-0.063888889,-0.384259259,1,0,0,0.448,Pegmatite_rect,5,0,5,0,1,
63d520bc8833c489caf0023a,SCR,2024-06-25_12h39.26.107,LearnStrategy,2023.2.3,Win32,60.24096386,9,2,7,,,,,,,,7,08,,,,,,,,,,,,,4,0.462,0,,,,,,0.353703704,-0.243518519,1,0,0,0.4618,Gabbro_rect,6,0,6,0,1,
63d520bc8833c489caf0023a,SCR,2024-06-25_12h39.26.107,LearnStrategy,2023.2.3,Win32,60.24096386,9,2,8,,,,,,,,8,10,,,,,,,,,,,,,3,0.512,0,,,,,,0.180555556,-0.239814815,1,0,0,0.5118,Diorite_rect,7,0,7,0,1,
63d520bc8833c489caf0023a,SCR,2024-06-25_12h39.26.107,LearnStrategy,2023.2.3,Win32,60.24096386,9,2,9,,,,,,,,1,07,,,,,,,,,,,,,4,0.329,0,,,,,,0.327777778,-0.236111111,1,0,0,0.3295,Gabbro_rect,8,0,8,0,1,
63d520bc8833c489caf0023a,SCR,2024-06-25_12h39.26.107,LearnStrategy,2023.2.3,Win32,60.24096386,9,2,10,,,,,,,,4,15,,,,,,,,,,,,,1,0.712,0,,,,,,-0.333333333,-0.22962963,1,0,0,0.7119,Andesite_rect,9,0,9,0,1,
63d520bc8833c489caf0023a,SCR,2024-06-25_12h39.26.107,LearnStrategy,2023.2.3,Win32,60.24096386,9,2,11,,,,,,,,2,09,,,,,,,,,,,,,8,1.378,0,,,,,,0.463888889,-0.399074074,1,0,0,1.378,Pumice_rect,10,0,10,0,1,
63d520bc8833c489caf0023a,SCR,2024-06-25_12h39.26.107,LearnStrategy,2023.2.3,Win32,60.24096386,9,2,12,,,,,,,,1,04,,,,,,,,,,,,,2,0.446,0,,,,,,-0.119444444,-0.240740741,1,0,0,0.4459,Basalt_rect,11,0,11,0,1,
63d520bc8833c489caf0023a,SCR,2024-06-25_12h39.26.107,LearnStrategy,2023.2.3,Win32,60.24096386,9,2,13,,,,,,,,6,11,,,,,,,,,,,,,5,1.162,0,,,,,,-0.353703704,-0.405555556,1,0,0,1.1619,Obsidian_rect,12,0,12,0,1,
63d520bc8833c489caf0023a,SCR,2024-06-25_12h39.26.107,LearnStrategy,2023.2.3,Win32,60.24096386,9,2,14,,,,,,,,3,10,,,,,,,,,,,,,3,0.513,1,,,,,,0.185185185,-0.241666667,1,0,0,0.5125,Diorite_rect,13,0,13,0,1,
63d520bc8833c489caf0023a,SCR,2024-06-25_12h39.26.107,LearnStrategy,2023.2.3,Win32,60.24096386,9,2,15,,,,,,,,8,02,,,,,,,,,,,,,7,0.379,0,,,,,,0.106481481,-0.412962963,1,0,0,0.3785,Peridotite_rect,14,0,14,0,1,
63d520bc8833c489caf0023a,SCR,2024-06-25_12h39.26.107,LearnStrategy,2023.2.3,Win32,60.24096386,9,2,16,,,,,,,,6,09,,,,,,,,,,,,,6,0.529,1,,,,,,-0.092592593,-0.384259259,1,0,0,0.5289,Pegmatite_rect,15,0,15,0,1,
63d520bc8833c489caf0023a,SCR,2024-06-25_12h39.26.107,LearnStrategy,2023.2.3,Win32,60.24096386,,,,,,,,,,,,,,,,,,,,,,,,,,,,,,,,,,,,,,,,,,,,,0
63d520bc8833c489caf0023a,SCR,2024-06-25_12h39.26.107,LearnStrategy,2023.2.3,Win32,60.24096386,,,,,,,,,,,,,,,,,,,,,,,,,,,,,,,,,,,,,,,,,,,,,
63d520bc8833c489caf0023a,SCR,2024-06-25_12h39.26.107,LearnStrategy,2023.2.3,Win32,60.24096386,,,,,,,,,,,8,06,1,1,,,,,,,,,,,,,,,,,,,,,,,,,,,,,,,
63d520bc8833c489caf0023a,SCR,2024-06-25_12h39.26.107,LearnStrategy,2023.2.3,Win32,60.24096386,,,,,,,,,,,8,13,1,2,,,,,,,,,,,,,,,,,,,,,,,,,,,,,,,
63d520bc8833c489caf0023a,SCR,2024-06-25_12h39.26.107,LearnStrategy,2023.2.3,Win32,60.24096386,,,,,,,,,,,4,05,1,3,,,,,,,,,,,,,,,,,,,,,,,,,,,,,,,
63d520bc8833c489caf0023a,SCR,2024-06-25_12h39.26.107,LearnStrategy,2023.2.3,Win32,60.24096386,,,,,,,,,,,2,10,1,4,,,,,,,,,,,,,,,,,,,,,,,,,,,,,,,
63d520bc8833c489caf0023a,SCR,2024-06-25_12h39.26.107,LearnStrategy,2023.2.3,Win32,60.24096386,,,,,,,,,,,7,15,1,5,,,,,,,,,,,,,,,,,,,,,,,,,,,,,,,
63d520bc8833c489caf0023a,SCR,2024-06-25_12h39.26.107,LearnStrategy,2023.2.3,Win32,60.24096386,,,,,,,,,,,7,10,1,6,,,,,,,,,,,,,,,,,,,,,,,,,,,,,,,
63d520bc8833c489caf0023a,SCR,2024-06-25_12h39.26.107,LearnStrategy,2023.2.3,Win32,60.24096386,,,,,,,,,,,8,16,1,7,,,,,,,,,,,,,,,,,,,,,,,,,,,,,,,
63d520bc8833c489caf0023a,SCR,2024-06-25_12h39.26.107,LearnStrategy,2023.2.3,Win32,60.24096386,,,,,,,,,,,1,10,1,8,,,,,,,,,,,,,,,,,,,,,,,,,,,,,,,
63d520bc8833c489caf0023a,SCR,2024-06-25_12h39.26.107,LearnStrategy,2023.2.3,Win32,60.24096386,,,,,,,,,,,2,01,2,1,,,,,,,,,,,,,,,,,,,,,,,,,,,,,,,
63d520bc8833c489caf0023a,SCR,2024-06-25_12h39.26.107,LearnStrategy,2023.2.3,Win32,60.24096386,,,,,,,,,,,6,06,2,2,,,,,,,,,,,,,,,,,,,,,,,,,,,,,,,
63d520bc8833c489caf0023a,SCR,2024-06-25_12h39.26.107,LearnStrategy,2023.2.3,Win32,60.24096386,,,,,,,,,,,4,14,2,3,,,,,,,,,,,,,,,,,,,,,,,,,,,,,,,
63d520bc8833c489caf0023a,SCR,2024-06-25_12h39.26.107,LearnStrategy,2023.2.3,Win32,60.24096386,,,,,,,,,,,6,12,2,4,,,,,,,,,,,,,,,,,,,,,,,,,,,,,,,
63d520bc8833c489caf0023a,SCR,2024-06-25_12h39.26.107,LearnStrategy,2023.2.3,Win32,60.24096386,,,,,,,,,,,3,15,2,5,,,,,,,,,,,,,,,,,,,,,,,,,,,,,,,
63d520bc8833c489caf0023a,SCR,2024-06-25_12h39.26.107,LearnStrategy,2023.2.3,Win32,60.24096386,,,,,,,,,,,7,07,2,6,,,,,,,,,,,,,,,,,,,,,,,,,,,,,,,
63d520bc8833c489caf0023a,SCR,2024-06-25_12h39.26.107,LearnStrategy,2023.2.3,Win32,60.24096386,,,,,,,,,,,6,15,2,7,,,,,,,,,,,,,,,,,,,,,,,,,,,,,,,
63d520bc8833c489caf0023a,SCR,2024-06-25_12h39.26.107,LearnStrategy,2023.2.3,Win32,60.24096386,,,,,,,,,,,5,06,2,8,,,,,,,,,,,,,,,,,,,,,,,,,,,,,,,
63d520bc8833c489caf0023a,SCR,2024-06-25_12h39.26.107,LearnStrategy,2023.2.3,Win32,60.24096386,,,,,,,,,,,2,16,3,1,,,,,,,,,,,,,,,,,,,,,,,,,,,,,,,
63d520bc8833c489caf0023a,SCR,2024-06-25_12h39.26.107,LearnStrategy,2023.2.3,Win32,60.24096386,,,,,,,,,,,8,03,3,2,,,,,,,,,,,,,,,,,,,,,,,,,,,,,,,
63d520bc8833c489caf0023a,SCR,2024-06-25_12h39.26.107,LearnStrategy,2023.2.3,Win32,60.24096386,,,,,,,,,,,1,03,3,3,,,,,,,,,,,,,,,,,,,,,,,,,,,,,,,
63d520bc8833c489caf0023a,SCR,2024-06-25_12h39.26.107,LearnStrategy,2023.2.3,Win32,60.24096386,,,,,,,,,,,4,03,3,4,,,,,,,,,,,,,,,,,,,,,,,,,,,,,,,
63d520bc8833c489caf0023a,SCR,2024-06-25_12h39.26.107,LearnStrategy,2023.2.3,Win32,60.24096386,,,,,,,,,,,8,08,3,5,,,,,,,,,,,,,,,,,,,,,,,,,,,,,,,
63d520bc8833c489caf0023a,SCR,2024-06-25_12h39.26.107,LearnStrategy,2023.2.3,Win32,60.24096386,,,,,,,,,,,3,09,3,6,,,,,,,,,,,,,,,,,,,,,,,,,,,,,,,
63d520bc8833c489caf0023a,SCR,2024-06-25_12h39.26.107,LearnStrategy,2023.2.3,Win32,60.24096386,,,,,,,,,,,5,04,3,7,,,,,,,,,,,,,,,,,,,,,,,,,,,,,,,
63d520bc8833c489caf0023a,SCR,2024-06-25_12h39.26.107,LearnStrategy,2023.2.3,Win32,60.24096386,,,,,,,,,,,1,11,3,8,,,,,,,,,,,,,,,,,,,,,,,,,,,,,,,
63d520bc8833c489caf0023a,SCR,2024-06-25_12h39.26.107,LearnStrategy,2023.2.3,Win32,60.24096386,,,,,,,,,,,5,08,4,1,,,,,,,,,,,,,,,,,,,,,,,,,,,,,,,
63d520bc8833c489caf0023a,SCR,2024-06-25_12h39.26.107,LearnStrategy,2023.2.3,Win32,60.24096386,,,,,,,,,,,3,08,4,2,,,,,,,,,,,,,,,,,,,,,,,,,,,,,,,
63d520bc8833c489caf0023a,SCR,2024-06-25_12h39.26.107,LearnStrategy,2023.2.3,Win32,60.24096386,,,,,,,,,,,1,09,4,3,,,,,,,,,,,,,,,,,,,,,,,,,,,,,,,
63d520bc8833c489caf0023a,SCR,2024-06-25_12h39.26.107,LearnStrategy,2023.2.3,Win32,60.24096386,,,,,,,,,,,1,02,4,4,,,,,,,,,,,,,,,,,,,,,,,,,,,,,,,
63d520bc8833c489caf0023a,SCR,2024-06-25_12h39.26.107,LearnStrategy,2023.2.3,Win32,60.24096386,,,,,,,,,,,7,04,4,5,,,,,,,,,,,,,,,,,,,,,,,,,,,,,,,
63d520bc8833c489caf0023a,SCR,2024-06-25_12h39.26.107,LearnStrategy,2023.2.3,Win32,60.24096386,,,,,,,,,,,8,15,4,6,,,,,,,,,,,,,,,,,,,,,,,,,,,,,,,
63d520bc8833c489caf0023a,SCR,2024-06-25_12h39.26.107,LearnStrategy,2023.2.3,Win32,60.24096386,,,,,,,,,,,2,04,4,7,,,,,,,,,,,,,,,,,,,,,,,,,,,,,,,
63d520bc8833c489caf0023a,SCR,2024-06-25_12h39.26.107,LearnStrategy,2023.2.3,Win32,60.24096386,,,,,,,,,,,7,05,4,8,,,,,,,,,,,,,,,,,,,,,,,,,,,,,,,
63d520bc8833c489caf0023a,SCR,2024-06-25_12h39.26.107,LearnStrategy,2023.2.3,Win32,60.24096386,,,,,,,,,,,2,08,5,1,,,,,,,,,,,,,,,,,,,,,,,,,,,,,,,
63d520bc8833c489caf0023a,SCR,2024-06-25_12h39.26.107,LearnStrategy,2023.2.3,Win32,60.24096386,,,,,,,,,,,6,13,5,2,,,,,,,,,,,,,,,,,,,,,,,,,,,,,,,
63d520bc8833c489caf0023a,SCR,2024-06-25_12h39.26.107,LearnStrategy,2023.2.3,Win32,60.24096386,,,,,,,,,,,6,10,5,3,,,,,,,,,,,,,,,,,,,,,,,,,,,,,,,
63d520bc8833c489caf0023a,SCR,2024-06-25_12h39.26.107,LearnStrategy,2023.2.3,Win32,60.24096386,,,,,,,,,,,7,13,5,4,,,,,,,,,,,,,,,,,,,,,,,,,,,,,,,
63d520bc8833c489caf0023a,SCR,2024-06-25_12h39.26.107,LearnStrategy,2023.2.3,Win32,60.24096386,,,,,,,,,,,3,07,5,5,,,,,,,,,,,,,,,,,,,,,,,,,,,,,,,
63d520bc8833c489caf0023a,SCR,2024-06-25_12h39.26.107,LearnStrategy,2023.2.3,Win32,60.24096386,,,,,,,,,,,6,08,5,6,,,,,,,,,,,,,,,,,,,,,,,,,,,,,,,
63d520bc8833c489caf0023a,SCR,2024-06-25_12h39.26.107,LearnStrategy,2023.2.3,Win32,60.24096386,,,,,,,,,,,5,12,5,7,,,,,,,,,,,,,,,,,,,,,,,,,,,,,,,
63d520bc8833c489caf0023a,SCR,2024-06-25_12h39.26.107,LearnStrategy,2023.2.3,Win32,60.24096386,,,,,,,,,,,4,16,5,8,,,,,,,,,,,,,,,,,,,,,,,,,,,,,,,
63d520bc8833c489caf0023a,SCR,2024-06-25_12h39.26.107,LearnStrategy,2023.2.3,Win32,60.24096386,,,,,,,,,,,2,02,6,1,,,,,,,,,,,,,,,,,,,,,,,,,,,,,,,
63d520bc8833c489caf0023a,SCR,2024-06-25_12h39.26.107,LearnStrategy,2023.2.3,Win32,60.24096386,,,,,,,,,,,4,08,6,2,,,,,,,,,,,,,,,,,,,,,,,,,,,,,,,
63d520bc8833c489caf0023a,SCR,2024-06-25_12h39.26.107,LearnStrategy,2023.2.3,Win32,60.24096386,,,,,,,,,,,4,13,6,3,,,,,,,,,,,,,,,,,,,,,,,,,,,,,,,
63d520bc8833c489caf0023a,SCR,2024-06-25_12h39.26.107,LearnStrategy,2023.2.3,Win32,60.24096386,,,,,,,,,,,3,02,6,4,,,,,,,,,,,,,,,,,,,,,,,,,,,,,,,
63d520bc8833c489caf0023a,SCR,2024-06-25_12h39.26.107,LearnStrategy,2023.2.3,Win32,60.24096386,,,,,,,,,,,1,14,6,5,,,,,,,,,,,,,,,,,,,,,,,,,,,,,,,
63d520bc8833c489caf0023a,SCR,2024-06-25_12h39.26.107,LearnStrategy,2023.2.3,Win32,60.24096386,,,,,,,,,,,5,16,6,6,,,,,,,,,,,,,,,,,,,,,,,,,,,,,,,
63d520bc8833c489caf0023a,SCR,2024-06-25_12h39.26.107,LearnStrategy,2023.2.3,Win32,60.24096386,,,,,,,,,,,3,14,6,7,,,,,,,,,,,,,,,,,,,,,,,,,,,,,,,
63d520bc8833c489caf0023a,SCR,2024-06-25_12h39.26.107,LearnStrategy,2023.2.3,Win32,60.24096386,,,,,,,,,,,5,02,6,8,,,,,,,,,,,,,,,,,,,,,,,,,,,,,,,