participant,condition,date,expName,psychopyVersion,OS,frameRate,block,phase,trial,learn_mouse_2.x,learn_mouse_2.y,learn_mouse_2.leftButton,learn_mouse_2.midButton,learn_mouse_2.rightButton,learn_mouse_2.time,learn_mouse_2.clicked_name,cat,token,row,col,t_select,cat_mouse_l.x,cat_mouse_l.y,cat_mouse_l.leftButton,cat_mouse_l.midButton,cat_mouse_l.rightButton,cat_mouse_l.time,cat_mouse_l.clicked_name,resp,t_resp,corr,train_trials.thisRepN,train_trials.thisTrialN,train_trials.thisN,train_trials.thisIndex,train_trials.ran,cat_mouse_t.x,cat_mouse_t.y,cat_mouse_t.leftButton,cat_mouse_t.midButton,cat_mouse_t.rightButton,cat_mouse_t.time,cat_mouse_t.clicked_name,test_trials.thisRepN,test_trials.thisTrialN,test_trials.thisN,test_trials.thisIndex,test_trials.ran,Bonus
63d6873b65a6170d64a652f6,TCN,2024-06-24_13h47.22.334,LearnStrategy,2023.2.3,Linux x86_64,60.24096386,,,,,,,,,,,,,,,,,,,,,,,,,,,,,,,,,,,,,,,,,,,
63d6873b65a6170d64a652f6,TCN,2024-06-24_13h47.22.334,LearnStrategy,2023.2.3,Linux x86_64,60.24096386,1,1,1,-0.07611214,0.004396114,1,0,0,3.1766,rock_grid_rect_2,7,07,-1,-1,3.177,-0.18308049,-0.252429425,1,0,0,2.7019,Basalt_rect,2,2.702,0,0,0,0,0,1,,,,,,,,,,,,,
63d6873b65a6170d64a652f6,TCN,2024-06-24_13h47.22.334,LearnStrategy,2023.2.3,Linux x86_64,60.24096386,1,1,2,-0.05462703,-0.00254511,1,0,0,1.5038,rock_grid_rect_2,3,07,-1,-1,1.504,-0.190851678,-0.261684389,1,0,0,1.5857,Basalt_rect,2,1.586,0,1,0,1,0,1,,,,,,,,,,,,,
63d6873b65a6170d64a652f6,TCN,2024-06-24_13h47.22.334,LearnStrategy,2023.2.3,Linux x86_64,60.24096386,1,1,3,-0.141481696,-0.005321587,1,0,0,1.0523,rock_grid_rect_2,5,12,-1,-1,1.052,-0.433130476,-0.404210974,1,0,0,2.2218,Obsidian_rect,5,2.222,1,2,0,2,0,1,,,,,,,,,,,,,
63d6873b65a6170d64a652f6,TCN,2024-06-24_13h47.22.334,LearnStrategy,2023.2.3,Linux x86_64,60.24096386,1,1,4,-0.157481215,-0.004396114,1,0,0,0.8329,rock_grid_rect_2,7,14,-1,-1,0.833,0.035427574,-0.397269751,1,0,0,1.5182,Peridotite_rect,7,1.518,1,3,0,3,0,1,,,,,,,,,,,,,
63d6873b65a6170d64a652f6,TCN,2024-06-24_13h47.22.334,LearnStrategy,2023.2.3,Linux x86_64,60.24096386,1,1,5,-0.079769163,0.006247118,1,0,0,0.8261,rock_grid_rect_2,2,05,-1,-1,0.826,0.306048358,-0.251041158,1,0,0,2.2558,Gabbro_rect,4,2.256,0,4,0,4,0,1,,,,,,,,,,,,,
63d6873b65a6170d64a652f6,TCN,2024-06-24_13h47.22.334,LearnStrategy,2023.2.3,Linux x86_64,60.24096386,1,1,6,-0.13188194,-0.008560859,1,0,0,0.8365,rock_grid_rect_2,3,15,-1,-1,0.837,-0.179880552,-0.254280429,1,0,0,0.9445,Basalt_rect,2,0.944,0,5,0,5,0,1,,,,,,,,,,,,,
63d6873b65a6170d64a652f6,TCN,2024-06-24_13h47.22.334,LearnStrategy,2023.2.3,Linux x86_64,60.24096386,1,1,7,-0.135996105,-0.016427556,1,0,0,1.7655,rock_grid_rect_2,8,09,-1,-1,1.766,-0.133253366,-0.262147126,1,0,0,1.7596,Basalt_rect,2,1.76,0,6,0,6,0,1,,,,,,,,,,,,,
63d6873b65a6170d64a652f6,TCN,2024-06-24_13h47.22.334,LearnStrategy,2023.2.3,Linux x86_64,60.24096386,1,1,8,0.002057054,-0.016890293,1,0,0,1.2164,rock_grid_rect_2,6,05,-1,-1,1.216,0.072912146,-0.388014786,1,0,0,1.5186,Peridotite_rect,7,1.519,0,7,0,7,0,1,,,,,,,,,,,,,
63d6873b65a6170d64a652f6,TCN,2024-06-24_13h47.22.334,LearnStrategy,2023.2.3,Linux x86_64,60.24096386,1,1,9,-0.129596286,-0.012262811,1,0,0,1.6729,rock_grid_rect_2,1,16,-1,-1,1.673,0.060569707,-0.395418746,1,0,0,3.7686,Peridotite_rect,7,3.769,0,8,0,8,0,1,,,,,,,,,,,,,
63d6873b65a6170d64a652f6,TCN,2024-06-24_13h47.22.334,LearnStrategy,2023.2.3,Linux x86_64,60.24096386,1,1,10,0.114968081,-0.017815823,1,0,0,2.4197,rock_grid_rect_2,4,11,-1,-1,2.42,0.157481215,-0.406524715,1,0,0,1.8362,Peridotite_rect,7,1.836,0,9,0,9,0,1,,,,,,,,,,,,,
63d6873b65a6170d64a652f6,TCN,2024-06-24_13h47.22.334,LearnStrategy,2023.2.3,Linux x86_64,60.24096386,1,1,11,0.093025942,-0.012725604,1,0,0,0.71,rock_grid_rect_2,2,01,-1,-1,0.71,0.149252884,-0.248727417,1,0,0,1.025,Diorite_rect,3,1.025,0,10,0,10,0,1,,,,,,,,,,,,,
63d6873b65a6170d64a652f6,TCN,2024-06-24_13h47.22.334,LearnStrategy,2023.2.3,Linux x86_64,60.24096386,1,1,12,0.002057054,0.008560859,1,0,0,0.8827,rock_grid_rect_2,1,09,-1,-1,0.883,-0.104454154,-0.251041158,1,0,0,1.0119,Basalt_rect,2,1.012,0,11,0,11,0,1,,,,,,,,,,,,,
63d6873b65a6170d64a652f6,TCN,2024-06-24_13h47.22.334,LearnStrategy,2023.2.3,Linux x86_64,60.24096386,1,1,13,0.164338175,-0.011337337,1,0,0,1.039,rock_grid_rect_2,5,14,-1,-1,1.039,-0.367760948,-0.413003201,1,0,0,1.5863,Obsidian_rect,5,1.586,1,12,0,12,0,1,,,,,,,,,,,,,
63d6873b65a6170d64a652f6,TCN,2024-06-24_13h47.22.334,LearnStrategy,2023.2.3,Linux x86_64,60.24096386,1,1,14,0.126396349,-0.021517831,1,0,0,1.1826,rock_grid_rect_2,8,05,-1,-1,1.183,-0.349018577,-0.257982381,1,0,0,1.6012,Andesite_rect,1,1.601,0,13,0,13,0,1,,,,,,,,,,,,,
63d6873b65a6170d64a652f6,TCN,2024-06-24_13h47.22.334,LearnStrategy,2023.2.3,Linux x86_64,60.24096386,1,1,15,0.111768256,0.001156899,1,0,0,0.7095,rock_grid_rect_2,6,12,-1,-1,0.709,0.162966806,-0.390328527,1,0,0,1.6785,Peridotite_rect,7,1.678,0,14,0,14,0,1,,,,,,,,,,,,,
63d6873b65a6170d64a652f6,TCN,2024-06-24_13h47.22.334,LearnStrategy,2023.2.3,Linux x86_64,60.24096386,1,1,16,0.142395924,-0.012725604,1,0,0,0.7615,rock_grid_rect_2,4,15,-1,-1,0.762,0.150624254,-0.257982381,1,0,0,1.0891,Diorite_rect,3,1.089,0,15,0,15,0,1,,,,,,,,,,,,,
63d6873b65a6170d64a652f6,TCN,2024-06-24_13h47.22.334,LearnStrategy,2023.2.3,Linux x86_64,60.24096386,1,2,1,,,,,,,,1,03,,,,,,,,,,,4,12.85,0,,,,,,0.380103443,-0.261221653,1,0,0,12.8502,Gabbro_rect,0,0,0,0,1,
63d6873b65a6170d64a652f6,TCN,2024-06-24_13h47.22.334,LearnStrategy,2023.2.3,Linux x86_64,60.24096386,1,2,2,,,,,,,,5,06,,,,,,,,,,,5,10.292,1,,,,,,-0.387874632,-0.400971759,1,0,0,10.2924,Obsidian_rect,1,0,1,0,1,
63d6873b65a6170d64a652f6,TCN,2024-06-24_13h47.22.334,LearnStrategy,2023.2.3,Linux x86_64,60.24096386,1,2,3,,,,,,,,1,14,,,,,,,,,,,1,6.16,1,,,,,,-0.431301965,-0.259370648,1,0,0,6.16,Andesite_rect,2,0,2,0,1,
63d6873b65a6170d64a652f6,TCN,2024-06-24_13h47.22.334,LearnStrategy,2023.2.3,Linux x86_64,60.24096386,1,2,4,,,,,,,,4,14,,,,,,,,,,,4,8.171,1,,,,,,0.372332199,-0.251503895,1,0,0,8.1711,Gabbro_rect,3,0,3,0,1,
63d6873b65a6170d64a652f6,TCN,2024-06-24_13h47.22.334,LearnStrategy,2023.2.3,Linux x86_64,60.24096386,1,2,5,,,,,,,,2,16,,,,,,,,,,,3,6.006,0,,,,,,0.096682965,-0.246413676,1,0,0,6.0063,Diorite_rect,4,0,4,0,1,
63d6873b65a6170d64a652f6,TCN,2024-06-24_13h47.22.334,LearnStrategy,2023.2.3,Linux x86_64,60.24096386,1,2,6,,,,,,,,5,04,,,,,,,,,,,5,1.535,1,,,,,,-0.410273969,-0.394493273,1,0,0,1.535,Obsidian_rect,5,0,5,0,1,
63d6873b65a6170d64a652f6,TCN,2024-06-24_13h47.22.334,LearnStrategy,2023.2.3,Linux x86_64,60.24096386,1,2,7,,,,,,,,3,08,,,,,,,,,,,1,4.91,0,,,,,,-0.438616039,-0.263535394,1,0,0,4.9097,Andesite_rect,6,0,6,0,1,
63d6873b65a6170d64a652f6,TCN,2024-06-24_13h47.22.334,LearnStrategy,2023.2.3,Linux x86_64,60.24096386,1,2,8,,,,,,,,7,10,,,,,,,,,,,4,6.992,0,,,,,,0.423530748,-0.245488202,1,0,0,6.9923,Gabbro_rect,7,0,7,0,1,
63d6873b65a6170d64a652f6,TCN,2024-06-24_13h47.22.334,LearnStrategy,2023.2.3,Linux x86_64,60.24096386,1,2,9,,,,,,,,2,04,,,,,,,,,,,2,9.772,1,,,,,,-0.084797555,-0.263535394,1,0,0,9.7724,Basalt_rect,8,0,8,0,1,
63d6873b65a6170d64a652f6,TCN,2024-06-24_13h47.22.334,LearnStrategy,2023.2.3,Linux x86_64,60.24096386,1,2,10,,,,,,,,3,10,,,,,,,,,,,4,4.181,0,,,,,,0.398388559,-0.262147126,1,0,0,4.181,Gabbro_rect,9,0,9,0,1,
63d6873b65a6170d64a652f6,TCN,2024-06-24_13h47.22.334,LearnStrategy,2023.2.3,Linux x86_64,60.24096386,1,2,11,,,,,,,,4,03,,,,,,,,,,,4,0.837,1,,,,,,0.379189159,-0.260296122,1,0,0,0.8368,Gabbro_rect,10,0,10,0,1,
63d6873b65a6170d64a652f6,TCN,2024-06-24_13h47.22.334,LearnStrategy,2023.2.3,Linux x86_64,60.24096386,1,2,12,,,,,,,,7,04,,,,,,,,,,,4,1.281,0,,,,,,0.395188734,-0.253354899,1,0,0,1.2806,Gabbro_rect,11,0,11,0,1,
63d6873b65a6170d64a652f6,TCN,2024-06-24_13h47.22.334,LearnStrategy,2023.2.3,Linux x86_64,60.24096386,1,2,13,,,,,,,,6,16,,,,,,,,,,,3,15.585,0,,,,,,0.159309783,-0.256131377,1,0,0,15.5851,Diorite_rect,12,0,12,0,1,
63d6873b65a6170d64a652f6,TCN,2024-06-24_13h47.22.334,LearnStrategy,2023.2.3,Linux x86_64,60.24096386,1,2,14,,,,,,,,6,09,,,,,,,,,,,6,7.592,1,,,,,,-0.099882846,-0.399583492,1,0,0,7.5922,Pegmatite_rect,13,0,13,0,1,
63d6873b65a6170d64a652f6,TCN,2024-06-24_13h47.22.334,LearnStrategy,2023.2.3,Linux x86_64,60.24096386,1,2,15,,,,,,,,8,04,,,,,,,,,,,8,2.589,1,,,,,,0.416216702,-0.39588154,1,0,0,2.5889,Pumice_rect,14,0,14,0,1,
63d6873b65a6170d64a652f6,TCN,2024-06-24_13h47.22.334,LearnStrategy,2023.2.3,Linux x86_64,60.24096386,1,2,16,,,,,,,,8,08,,,,,,,,,,,8,1.344,1,,,,,,0.39427445,-0.408838456,1,0,0,1.344,Pumice_rect,15,0,15,0,1,
63d6873b65a6170d64a652f6,TCN,2024-06-24_13h47.22.334,LearnStrategy,2023.2.3,Linux x86_64,60.24096386,2,1,1,0.083883328,-0.005784324,1,0,0,2.3441,rock_grid_rect_2,7,15,-1,-1,2.344,0.131424854,-0.247339206,1,0,0,5.368,Diorite_rect,3,5.368,0,0,0,0,0,1,,,,,,,,,,,,,
63d6873b65a6170d64a652f6,TCN,2024-06-24_13h47.22.334,LearnStrategy,2023.2.3,Linux x86_64,60.24096386,2,1,2,0.069712321,0.004858851,1,0,0,0.8885,rock_grid_rect_2,8,02,-1,-1,0.889,0.366389522,-0.409763986,1,0,0,2.8689,Pumice_rect,8,2.869,1,1,0,1,0,1,,,,,,,,,,,,,
63d6873b65a6170d64a652f6,TCN,2024-06-24_13h47.22.334,LearnStrategy,2023.2.3,Linux x86_64,60.24096386,2,1,3,0.078397737,-0.019204034,1,0,0,0.6281,rock_grid_rect_2,2,12,-1,-1,0.628,0.395188734,-0.246876413,1,0,0,6.2378,Gabbro_rect,4,6.238,0,2,0,2,0,1,,,,,,,,,,,,,
63d6873b65a6170d64a652f6,TCN,2024-06-24_13h47.22.334,LearnStrategy,2023.2.3,Linux x86_64,60.24096386,2,1,4,0.112225342,0.00254511,1,0,0,0.7567,rock_grid_rect_2,3,13,-1,-1,0.757,0.161595323,-0.23993519,1,0,0,1.3608,Diorite_rect,3,1.361,1,3,0,3,0,1,,,,,,,,,,,,,
63d6873b65a6170d64a652f6,TCN,2024-06-24_13h47.22.334,LearnStrategy,2023.2.3,Linux x86_64,60.24096386,2,1,5,-0.083883328,-0.014576552,1,0,0,0.7544,rock_grid_rect_2,5,10,-1,-1,0.754,-0.390160285,-0.400509022,1,0,0,1.5701,Obsidian_rect,5,1.57,1,4,0,4,0,1,,,,,,,,,,,,,
63d6873b65a6170d64a652f6,TCN,2024-06-24_13h47.22.334,LearnStrategy,2023.2.3,Linux x86_64,60.24096386,2,1,6,-0.106282665,-0.000231368,1,0,0,0.6906,rock_grid_rect_2,6,10,-1,-1,0.691,0.066055298,-0.396807014,1,0,0,1.5554,Peridotite_rect,7,1.555,0,5,0,5,0,1,,,,,,,,,,,,,
63d6873b65a6170d64a652f6,TCN,2024-06-24_13h47.22.334,LearnStrategy,2023.2.3,Linux x86_64,60.24096386,2,1,7,-0.126396405,-0.0108746,1,0,0,1.4365,rock_grid_rect_2,4,01,-1,-1,1.437,0.067883753,-0.252892162,1,0,0,1.5424,Diorite_rect,3,1.542,0,6,0,6,0,1,,,,,,,,,,,,,
63d6873b65a6170d64a652f6,TCN,2024-06-24_13h47.22.334,LearnStrategy,2023.2.3,Linux x86_64,60.24096386,2,1,8,-0.107196949,-0.001156842,1,0,0,0.9448,rock_grid_rect_2,1,10,-1,-1,0.945,0.341247333,-0.238546979,1,0,0,1.1508,Gabbro_rect,4,1.151,0,7,0,7,0,1,,,,,,,,,,,,,
63d6873b65a6170d64a652f6,TCN,2024-06-24_13h47.22.334,LearnStrategy,2023.2.3,Linux x86_64,60.24096386,2,1,9,-0.103082784,0.000231368,1,0,0,0.6948,rock_grid_rect_2,7,06,-1,-1,0.695,0.349932861,-0.251041158,1,0,0,2.3632,Gabbro_rect,4,2.363,0,8,0,8,0,1,,,,,,,,,,,,,
63d6873b65a6170d64a652f6,TCN,2024-06-24_13h47.22.334,LearnStrategy,2023.2.3,Linux x86_64,60.24096386,2,1,10,-0.081140532,-0.00254511,1,0,0,0.6627,rock_grid_rect_2,3,11,-1,-1,0.663,0.348561492,-0.245488202,1,0,0,1.0435,Gabbro_rect,4,1.043,0,9,0,9,0,1,,,,,,,,,,,,,
63d6873b65a6170d64a652f6,TCN,2024-06-24_13h47.22.334,LearnStrategy,2023.2.3,Linux x86_64,60.24096386,2,1,11,-0.066055241,-0.006709855,1,0,0,0.8997,rock_grid_rect_2,6,11,-1,-1,0.9,-0.157938357,-0.256131377,1,0,0,1.4682,Basalt_rect,2,1.468,0,10,0,10,0,1,,,,,,,,,,,,,
63d6873b65a6170d64a652f6,TCN,2024-06-24_13h47.22.334,LearnStrategy,2023.2.3,Linux x86_64,60.24096386,2,1,12,-0.070626548,0.00347064,1,0,0,0.6461,rock_grid_rect_2,1,04,-1,-1,0.646,0.120453672,-0.39588154,1,0,0,1.8652,Peridotite_rect,7,1.865,0,11,0,11,0,1,,,,,,,,,,,,,
63d6873b65a6170d64a652f6,TCN,2024-06-24_13h47.22.334,LearnStrategy,2023.2.3,Linux x86_64,60.24096386,2,1,13,-0.086168981,-0.014576552,1,0,0,0.7062,rock_grid_rect_2,8,13,-1,-1,0.706,0.336676138,-0.394493273,1,0,0,1.262,Pumice_rect,8,1.262,1,12,0,12,0,1,,,,,,,,,,,,,
63d6873b65a6170d64a652f6,TCN,2024-06-24_13h47.22.334,LearnStrategy,2023.2.3,Linux x86_64,60.24096386,2,1,14,-0.077483509,0.007172592,1,0,0,0.6952,rock_grid_rect_2,5,16,-1,-1,0.695,-0.366846664,-0.408375719,1,0,0,1.2319,Obsidian_rect,5,1.232,1,13,0,13,0,1,,,,,,,,,,,,,
63d6873b65a6170d64a652f6,TCN,2024-06-24_13h47.22.334,LearnStrategy,2023.2.3,Linux x86_64,60.24096386,2,1,15,-0.135081878,-0.008098065,1,0,0,0.7908,rock_grid_rect_2,2,10,-1,-1,0.791,-0.372332199,-0.394030536,1,0,0,1.3702,Obsidian_rect,5,1.37,0,14,0,14,0,1,,,,,,,,,,,,,
63d6873b65a6170d64a652f6,TCN,2024-06-24_13h47.22.334,LearnStrategy,2023.2.3,Linux x86_64,60.24096386,2,1,16,-0.125024979,-0.007635329,1,0,0,0.7567,rock_grid_rect_2,4,08,-1,-1,0.757,0.061941076,-0.249652947,1,0,0,1.5843,Diorite_rect,3,1.584,0,15,0,15,0,1,,,,,,,,,,,,,
63d6873b65a6170d64a652f6,TCN,2024-06-24_13h47.22.334,LearnStrategy,2023.2.3,Linux x86_64,60.24096386,2,2,1,,,,,,,,7,16,,,,,,,,,,,4,9.183,0,,,,,,0.382389097,-0.244099935,1,0,0,9.1826,Gabbro_rect,0,0,0,0,1,
63d6873b65a6170d64a652f6,TCN,2024-06-24_13h47.22.334,LearnStrategy,2023.2.3,Linux x86_64,60.24096386,2,2,2,,,,,,,,3,06,,,,,,,,,,,4,10.866,0,,,,,,0.378732074,-0.264460867,1,0,0,10.8661,Gabbro_rect,1,0,1,0,1,
63d6873b65a6170d64a652f6,TCN,2024-06-24_13h47.22.334,LearnStrategy,2023.2.3,Linux x86_64,60.24096386,2,2,3,,,,,,,,8,03,,,,,,,,,,,8,0.965,1,,,,,,0.413016764,-0.409301249,1,0,0,0.9652,Pumice_rect,2,0,2,0,1,
63d6873b65a6170d64a652f6,TCN,2024-06-24_13h47.22.334,LearnStrategy,2023.2.3,Linux x86_64,60.24096386,2,2,4,,,,,,,,5,08,,,,,,,,,,,5,1.365,1,,,,,,-0.371417971,-0.414854205,1,0,0,1.3647,Obsidian_rect,3,0,3,0,1,
63d6873b65a6170d64a652f6,TCN,2024-06-24_13h47.22.334,LearnStrategy,2023.2.3,Linux x86_64,60.24096386,2,2,5,,,,,,,,2,09,,,,,,,,,,,2,13.047,1,,,,,,-0.087540351,-0.243174461,1,0,0,13.0471,Basalt_rect,4,0,4,0,1,
63d6873b65a6170d64a652f6,TCN,2024-06-24_13h47.22.334,LearnStrategy,2023.2.3,Linux x86_64,60.24096386,2,2,6,,,,,,,,7,05,,,,,,,,,,,4,15.285,0,,,,,,0.38604612,-0.247339206,1,0,0,15.2852,Gabbro_rect,5,0,5,0,1,
63d6873b65a6170d64a652f6,TCN,2024-06-24_13h47.22.334,LearnStrategy,2023.2.3,Linux x86_64,60.24096386,2,2,7,,,,,,,,8,16,,,,,,,,,,,8,1.102,1,,,,,,0.406159804,-0.41068946,1,0,0,1.1019,Pumice_rect,6,0,6,0,1,
63d6873b65a6170d64a652f6,TCN,2024-06-24_13h47.22.334,LearnStrategy,2023.2.3,Linux x86_64,60.24096386,2,2,8,,,,,,,,6,15,,,,,,,,,,,6,5.312,1,,,,,,-0.085254697,-0.413928731,1,0,0,5.3121,Pegmatite_rect,7,0,7,0,1,
63d6873b65a6170d64a652f6,TCN,2024-06-24_13h47.22.334,LearnStrategy,2023.2.3,Linux x86_64,60.24096386,2,2,9,,,,,,,,1,01,,,,,,,,,,,4,5.415,0,,,,,,0.389703143,-0.25566864,1,0,0,5.4152,Gabbro_rect,8,0,8,0,1,
63d6873b65a6170d64a652f6,TCN,2024-06-24_13h47.22.334,LearnStrategy,2023.2.3,Linux x86_64,60.24096386,2,2,10,,,,,,,,2,02,,,,,,,,,,,2,4.489,1,,,,,,-0.090740289,-0.263072657,1,0,0,4.4892,Basalt_rect,9,0,9,0,1,
63d6873b65a6170d64a652f6,TCN,2024-06-24_13h47.22.334,LearnStrategy,2023.2.3,Linux x86_64,60.24096386,2,2,11,,,,,,,,3,14,,,,,,,,,,,1,12.876,0,,,,,,-0.360446845,-0.261684389,1,0,0,12.8758,Andesite_rect,10,0,10,0,1,
63d6873b65a6170d64a652f6,TCN,2024-06-24_13h47.22.334,LearnStrategy,2023.2.3,Linux x86_64,60.24096386,2,2,12,,,,,,,,4,16,,,,,,,,,,,1,5.714,0,,,,,,-0.36593238,-0.251503895,1,0,0,5.7144,Andesite_rect,11,0,11,0,1,
63d6873b65a6170d64a652f6,TCN,2024-06-24_13h47.22.334,LearnStrategy,2023.2.3,Linux x86_64,60.24096386,2,2,13,,,,,,,,1,02,,,,,,,,,,,8,2.088,0,,,,,,0.425816402,-0.409763986,1,0,0,2.0878,Pumice_rect,12,0,12,0,1,
63d6873b65a6170d64a652f6,TCN,2024-06-24_13h47.22.334,LearnStrategy,2023.2.3,Linux x86_64,60.24096386,2,2,14,,,,,,,,5,09,,,,,,,,,,,5,1.426,1,,,,,,-0.364103868,-0.401434496,1,0,0,1.4264,Obsidian_rect,13,0,13,0,1,
63d6873b65a6170d64a652f6,TCN,2024-06-24_13h47.22.334,LearnStrategy,2023.2.3,Linux x86_64,60.24096386,2,2,15,,,,,,,,6,13,,,,,,,,,,,6,3.67,1,,,,,,-0.074283572,-0.405599241,1,0,0,3.67,Pegmatite_rect,14,0,14,0,1,
63d6873b65a6170d64a652f6,TCN,2024-06-24_13h47.22.334,LearnStrategy,2023.2.3,Linux x86_64,60.24096386,2,2,16,,,,,,,,4,05,,,,,,,,,,,4,2.05,1,,,,,,0.352218515,-0.242711668,1,0,0,2.0499,Gabbro_rect,15,0,15,0,1,
63d6873b65a6170d64a652f6,TCN,2024-06-24_13h47.22.334,LearnStrategy,2023.2.3,Linux x86_64,60.24096386,3,1,1,0.06285536,0.012262867,1,0,0,1.5723,rock_grid_rect_2,1,11,-1,-1,1.572,0.182166206,-0.408375719,1,0,0,1.1867,Peridotite_rect,7,1.187,0,0,0,0,0,1,,,,,,,,,,,,,
63d6873b65a6170d64a652f6,TCN,2024-06-24_13h47.22.334,LearnStrategy,2023.2.3,Linux x86_64,60.24096386,3,1,2,0.106282665,0.015964819,1,0,0,0.7075,rock_grid_rect_2,7,12,-1,-1,0.707,0.165709545,-0.380610826,1,0,0,0.7934,Peridotite_rect,7,0.793,1,1,0,1,0,1,,,,,,,,,,,,,
63d6873b65a6170d64a652f6,TCN,2024-06-24_13h47.22.334,LearnStrategy,2023.2.3,Linux x86_64,60.24096386,3,1,3,-0.077483509,0.00254511,1,0,0,0.6728,rock_grid_rect_2,8,06,-1,-1,0.673,0.337590309,-0.392642268,1,0,0,1.1023,Pumice_rect,8,1.102,1,2,0,2,0,1,,,,,,,,,,,,,
63d6873b65a6170d64a652f6,TCN,2024-06-24_13h47.22.334,LearnStrategy,2023.2.3,Linux x86_64,60.24096386,3,1,4,-0.059655423,-0.007635329,1,0,0,0.7932,rock_grid_rect_2,5,02,-1,-1,0.793,-0.352218515,-0.393567799,1,0,0,0.9107,Obsidian_rect,5,0.911,1,3,0,3,0,1,,,,,,,,,,,,,
63d6873b65a6170d64a652f6,TCN,2024-06-24_13h47.22.334,LearnStrategy,2023.2.3,Linux x86_64,60.24096386,3,1,5,-0.0925688,0.004858851,1,0,0,0.6872,rock_grid_rect_2,2,14,-1,-1,0.687,-0.157024073,-0.247801943,1,0,0,1.2483,Basalt_rect,2,1.248,1,4,0,4,0,1,,,,,,,,,,,,,
63d6873b65a6170d64a652f6,TCN,2024-06-24_13h47.22.334,LearnStrategy,2023.2.3,Linux x86_64,60.24096386,3,1,6,-0.063312502,-0.020592301,1,0,0,0.7407,rock_grid_rect_2,2,06,-1,-1,0.741,-0.360446845,-0.25659417,1,0,0,3.4202,Andesite_rect,1,3.42,0,5,0,5,0,1,,,,,,,,,,,,,
63d6873b65a6170d64a652f6,TCN,2024-06-24_13h47.22.334,LearnStrategy,2023.2.3,Linux x86_64,60.24096386,3,1,7,-0.085711839,0.008098122,1,0,0,0.7299,rock_grid_rect_2,8,10,-1,-1,0.73,0.323419302,-0.392179532,1,0,0,2.9334,Pumice_rect,8,2.933,1,6,0,6,0,1,,,,,,,,,,,,,
63d6873b65a6170d64a652f6,TCN,2024-06-24_13h47.22.334,LearnStrategy,2023.2.3,Linux x86_64,60.24096386,3,1,8,-0.074740714,-0.005321587,1,0,0,0.7247,rock_grid_rect_2,3,12,-1,-1,0.725,0.118625217,-0.397269751,1,0,0,1.759,Peridotite_rect,7,1.759,0,7,0,7,0,1,,,,,,,,,,,,,
63d6873b65a6170d64a652f6,TCN,2024-06-24_13h47.22.334,LearnStrategy,2023.2.3,Linux x86_64,60.24096386,3,1,9,-0.040455967,-0.002082373,1,0,0,0.7276,rock_grid_rect_2,3,16,-1,-1,0.728,0.065598099,-0.406524715,1,0,0,0.9853,Peridotite_rect,7,0.985,0,8,0,8,0,1,,,,,,,,,,,,,
63d6873b65a6170d64a652f6,TCN,2024-06-24_13h47.22.334,LearnStrategy,2023.2.3,Linux x86_64,60.24096386,3,1,10,-0.110853972,0.000231368,1,0,0,1.3953,rock_grid_rect_2,4,12,-1,-1,1.395,-0.135081878,-0.259833385,1,0,0,1.465,Basalt_rect,2,1.465,0,9,0,9,0,1,,,,,,,,,,,,,
63d6873b65a6170d64a652f6,TCN,2024-06-24_13h47.22.334,LearnStrategy,2023.2.3,Linux x86_64,60.24096386,3,1,11,-0.067883753,-0.00254511,1,0,0,0.5617,rock_grid_rect_2,6,07,-1,-1,0.562,-0.119996587,-0.400046228,1,0,0,1.3774,Pegmatite_rect,6,1.377,1,10,0,10,0,1,,,,,,,,,,,,,
63d6873b65a6170d64a652f6,TCN,2024-06-24_13h47.22.334,LearnStrategy,2023.2.3,Linux x86_64,60.24096386,3,1,12,-0.096682965,0.001156899,1,0,0,0.7458,rock_grid_rect_2,6,08,-1,-1,0.746,-0.125024979,-0.406987508,1,0,0,0.8859,Pegmatite_rect,6,0.886,1,11,0,11,0,1,,,,,,,,,,,,,
63d6873b65a6170d64a652f6,TCN,2024-06-24_13h47.22.334,LearnStrategy,2023.2.3,Linux x86_64,60.24096386,3,1,13,-0.080226305,-0.006247118,1,0,0,0.6033,rock_grid_rect_2,4,10,-1,-1,0.603,0.051884234,-0.398195281,1,0,0,1.3917,Peridotite_rect,7,1.392,0,12,0,12,0,1,,,,,,,,,,,,,
63d6873b65a6170d64a652f6,TCN,2024-06-24_13h47.22.334,LearnStrategy,2023.2.3,Linux x86_64,60.24096386,3,1,14,-0.063312502,-0.008098065,1,0,0,0.6389,rock_grid_rect_2,7,02,-1,-1,0.639,-0.092111658,-0.397732487,1,0,0,2.3345,Pegmatite_rect,6,2.334,0,13,0,13,0,1,,,,,,,,,,,,,
63d6873b65a6170d64a652f6,TCN,2024-06-24_13h47.22.334,LearnStrategy,2023.2.3,Linux x86_64,60.24096386,3,1,15,-0.070626548,-0.014576552,1,0,0,0.6176,rock_grid_rect_2,1,05,-1,-1,0.618,0.044113046,-0.393567799,1,0,0,0.9606,Peridotite_rect,7,0.961,0,14,0,14,0,1,,,,,,,,,,,,,
63d6873b65a6170d64a652f6,TCN,2024-06-24_13h47.22.334,LearnStrategy,2023.2.3,Linux x86_64,60.24096386,3,1,16,-0.067883753,-0.007172592,1,0,0,0.6074,rock_grid_rect_2,5,05,-1,-1,0.607,-0.342618759,-0.400971759,1,0,0,1.2618,Obsidian_rect,5,1.262,1,15,0,15,0,1,,,,,,,,,,,,,
63d6873b65a6170d64a652f6,TCN,2024-06-24_13h47.22.334,LearnStrategy,2023.2.3,Linux x86_64,60.24096386,3,2,1,,,,,,,,8,14,,,,,,,,,,,8,1.612,1,,,,,,0.400217127,-0.415316942,1,0,0,1.6123,Pumice_rect,0,0,0,0,1,
63d6873b65a6170d64a652f6,TCN,2024-06-24_13h47.22.334,LearnStrategy,2023.2.3,Linux x86_64,60.24096386,3,2,2,,,,,,,,5,07,,,,,,,,,,,5,1.198,1,,,,,,-0.362275357,-0.413928731,1,0,0,1.1977,Obsidian_rect,1,0,1,0,1,
63d6873b65a6170d64a652f6,TCN,2024-06-24_13h47.22.334,LearnStrategy,2023.2.3,Linux x86_64,60.24096386,3,2,3,,,,,,,,2,11,,,,,,,,,,,2,1.956,1,,,,,,-0.128682059,-0.261221653,1,0,0,1.9564,Basalt_rect,2,0,2,0,1,
63d6873b65a6170d64a652f6,TCN,2024-06-24_13h47.22.334,LearnStrategy,2023.2.3,Linux x86_64,60.24096386,3,2,4,,,,,,,,4,09,,,,,,,,,,,7,1.382,0,,,,,,0.175309245,-0.401434496,1,0,0,1.3818,Peridotite_rect,3,0,3,0,1,
63d6873b65a6170d64a652f6,TCN,2024-06-24_13h47.22.334,LearnStrategy,2023.2.3,Linux x86_64,60.24096386,3,2,5,,,,,,,,7,13,,,,,,,,,,,2,1.042,0,,,,,,-0.082969044,-0.264923604,1,0,0,1.042,Basalt_rect,4,0,4,0,1,
63d6873b65a6170d64a652f6,TCN,2024-06-24_13h47.22.334,LearnStrategy,2023.2.3,Linux x86_64,60.24096386,3,2,6,,,,,,,,1,06,,,,,,,,,,,3,1.149,0,,,,,,0.16616663,-0.262609863,1,0,0,1.1486,Diorite_rect,5,0,5,0,1,
63d6873b65a6170d64a652f6,TCN,2024-06-24_13h47.22.334,LearnStrategy,2023.2.3,Linux x86_64,60.24096386,3,2,7,,,,,,,,6,03,,,,,,,,,,,6,1.151,1,,,,,,-0.104454154,-0.398658018,1,0,0,1.1513,Pegmatite_rect,6,0,6,0,1,
63d6873b65a6170d64a652f6,TCN,2024-06-24_13h47.22.334,LearnStrategy,2023.2.3,Linux x86_64,60.24096386,3,2,8,,,,,,,,3,02,,,,,,,,,,,4,1.076,0,,,,,,0.381474813,-0.257519644,1,0,0,1.0763,Gabbro_rect,7,0,7,0,1,
63d6873b65a6170d64a652f6,TCN,2024-06-24_13h47.22.334,LearnStrategy,2023.2.3,Linux x86_64,60.24096386,3,2,9,,,,,,,,6,06,,,,,,,,,,,6,1.293,1,,,,,,-0.103082784,-0.405599241,1,0,0,1.2926,Pegmatite_rect,8,0,8,0,1,
63d6873b65a6170d64a652f6,TCN,2024-06-24_13h47.22.334,LearnStrategy,2023.2.3,Linux x86_64,60.24096386,3,2,10,,,,,,,,1,07,,,,,,,,,,,7,1.695,0,,,,,,0.139653185,-0.419481687,1,0,0,1.6948,Peridotite_rect,9,0,9,0,1,
63d6873b65a6170d64a652f6,TCN,2024-06-24_13h47.22.334,LearnStrategy,2023.2.3,Linux x86_64,60.24096386,3,2,11,,,,,,,,7,08,,,,,,,,,,,1,8.481,0,,,,,,-0.376903506,-0.245950939,1,0,0,8.4809,Andesite_rect,10,0,10,0,1,
63d6873b65a6170d64a652f6,TCN,2024-06-24_13h47.22.334,LearnStrategy,2023.2.3,Linux x86_64,60.24096386,3,2,12,,,,,,,,2,08,,,,,,,,,,,2,2.118,1,,,,,,-0.099882846,-0.261684389,1,0,0,2.1184,Basalt_rect,11,0,11,0,1,
63d6873b65a6170d64a652f6,TCN,2024-06-24_13h47.22.334,LearnStrategy,2023.2.3,Linux x86_64,60.24096386,3,2,13,,,,,,,,5,11,,,,,,,,,,,5,2.655,1,,,,,,-0.354504168,-0.397732487,1,0,0,2.6552,Obsidian_rect,12,0,12,0,1,
63d6873b65a6170d64a652f6,TCN,2024-06-24_13h47.22.334,LearnStrategy,2023.2.3,Linux x86_64,60.24096386,3,2,14,,,,,,,,3,09,,,,,,,,,,,3,5.76,1,,,,,,0.178052097,-0.264460867,1,0,0,5.7602,Diorite_rect,13,0,13,0,1,
63d6873b65a6170d64a652f6,TCN,2024-06-24_13h47.22.334,LearnStrategy,2023.2.3,Linux x86_64,60.24096386,3,2,15,,,,,,,,8,15,,,,,,,,,,,8,0.872,1,,,,,,0.417588071,-0.415316942,1,0,0,0.8719,Pumice_rect,14,0,14,0,1,
63d6873b65a6170d64a652f6,TCN,2024-06-24_13h47.22.334,LearnStrategy,2023.2.3,Linux x86_64,60.24096386,3,2,16,,,,,,,,4,13,,,,,,,,,,,4,1.885,1,,,,,,0.382846182,-0.254743166,1,0,0,1.8846,Gabbro_rect,15,0,15,0,1,
63d6873b65a6170d64a652f6,TCN,2024-06-24_13h47.22.334,LearnStrategy,2023.2.3,Linux x86_64,60.24096386,4,1,1,-0.166166687,-0.008098065,1,0,0,1.0925,rock_grid_rect_2,3,11,-1,-1,1.092,0.061483991,-0.241786194,1,0,0,9.4608,Diorite_rect,3,9.461,1,0,0,0,0,1,,,,,,,,,,,,,
63d6873b65a6170d64a652f6,TCN,2024-06-24_13h47.22.334,LearnStrategy,2023.2.3,Linux x86_64,60.24096386,4,1,2,-0.106739807,-0.004858851,1,0,0,0.7065,rock_grid_rect_2,3,13,-1,-1,0.707,0.043655904,-0.385701045,1,0,0,2.2733,Peridotite_rect,7,2.273,0,1,0,1,0,1,,,,,,,,,,,,,
63d6873b65a6170d64a652f6,TCN,2024-06-24_13h47.22.334,LearnStrategy,2023.2.3,Linux x86_64,60.24096386,4,1,3,-0.090283147,-0.004858851,1,0,0,0.742,rock_grid_rect_2,7,12,-1,-1,0.742,0.071540776,-0.251966688,1,0,0,0.8396,Diorite_rect,3,0.84,0,2,0,2,0,1,,,,,,,,,,,,,
63d6873b65a6170d64a652f6,TCN,2024-06-24_13h47.22.334,LearnStrategy,2023.2.3,Linux x86_64,60.24096386,4,1,4,-0.079312021,0.021517831,1,0,0,0.7316,rock_grid_rect_2,6,07,-1,-1,0.732,-0.13051057,-0.404210974,1,0,0,1.1368,Pegmatite_rect,6,1.137,1,3,0,3,0,1,,,,,,,,,,,,,
63d6873b65a6170d64a652f6,TCN,2024-06-24_13h47.22.334,LearnStrategy,2023.2.3,Linux x86_64,60.24096386,4,1,5,-0.088454635,0.016890349,1,0,0,0.6917,rock_grid_rect_2,8,02,-1,-1,0.692,0.321590847,-0.405599241,1,0,0,1.1538,Pumice_rect,8,1.154,1,4,0,4,0,1,,,,,,,,,,,,,
63d6873b65a6170d64a652f6,TCN,2024-06-24_13h47.22.334,LearnStrategy,2023.2.3,Linux x86_64,60.24096386,4,1,6,-0.070626548,-0.009023596,1,0,0,0.7114,rock_grid_rect_2,5,14,-1,-1,0.711,-0.366389522,-0.413928731,1,0,0,1.0674,Obsidian_rect,5,1.067,1,5,0,5,0,1,,,,,,,,,,,,,
63d6873b65a6170d64a652f6,TCN,2024-06-24_13h47.22.334,LearnStrategy,2023.2.3,Linux x86_64,60.24096386,4,1,7,-0.087083209,0.00347064,1,0,0,0.7034,rock_grid_rect_2,4,11,-1,-1,0.703,-0.159766868,-0.264923604,1,0,0,1.2449,Basalt_rect,2,1.245,0,6,0,6,0,1,,,,,,,,,,,,,
63d6873b65a6170d64a652f6,TCN,2024-06-24_13h47.22.334,LearnStrategy,2023.2.3,Linux x86_64,60.24096386,4,1,8,-0.058741195,-0.021055038,1,0,0,0.5994,rock_grid_rect_2,8,10,-1,-1,0.599,0.322962217,-0.392642268,1,0,0,0.9547,Pumice_rect,8,0.955,1,7,0,7,0,1,,,,,,,,,,,,,
63d6873b65a6170d64a652f6,TCN,2024-06-24_13h47.22.334,LearnStrategy,2023.2.3,Linux x86_64,60.24096386,4,1,9,-0.070169406,-0.003470583,1,0,0,0.5997,rock_grid_rect_2,2,01,-1,-1,0.6,-0.134624736,-0.262609863,1,0,0,1.1062,Basalt_rect,2,1.106,1,8,0,8,0,1,,,,,,,,,,,,,
63d6873b65a6170d64a652f6,TCN,2024-06-24_13h47.22.334,LearnStrategy,2023.2.3,Linux x86_64,60.24096386,4,1,10,-0.078854879,-0.015964819,1,0,0,0.6004,rock_grid_rect_2,2,06,-1,-1,0.6,-0.34673298,-0.4032855,1,0,0,0.9009,Obsidian_rect,5,0.901,0,9,0,9,0,1,,,,,,,,,,,,,
63d6873b65a6170d64a652f6,TCN,2024-06-24_13h47.22.334,LearnStrategy,2023.2.3,Linux x86_64,60.24096386,4,1,11,-0.068340895,-0.008098065,1,0,0,0.6651,rock_grid_rect_2,6,11,-1,-1,0.665,-0.125939263,-0.401897233,1,0,0,1.0383,Pegmatite_rect,6,1.038,1,10,0,10,0,1,,,,,,,,,,,,,
63d6873b65a6170d64a652f6,TCN,2024-06-24_13h47.22.334,LearnStrategy,2023.2.3,Linux x86_64,60.24096386,4,1,12,-0.06285536,-0.008560859,1,0,0,0.596,rock_grid_rect_2,1,05,-1,-1,0.596,0.081597674,-0.393105005,1,0,0,1.8832,Peridotite_rect,7,1.883,0,11,0,11,0,1,,,,,,,,,,,,,
63d6873b65a6170d64a652f6,TCN,2024-06-24_13h47.22.334,LearnStrategy,2023.2.3,Linux x86_64,60.24096386,4,1,13,-0.050512865,-0.020129564,1,0,0,0.6702,rock_grid_rect_2,1,16,-1,-1,0.67,0.064683815,-0.399583492,1,0,0,1.508,Peridotite_rect,7,1.508,0,12,0,12,0,1,,,,,,,,,,,,,
63d6873b65a6170d64a652f6,TCN,2024-06-24_13h47.22.334,LearnStrategy,2023.2.3,Linux x86_64,60.24096386,4,1,14,-0.071540833,-0.023368779,1,0,0,0.5585,rock_grid_rect_2,4,08,-1,-1,0.559,0.066512383,-0.400509022,1,0,0,0.98,Peridotite_rect,7,0.98,0,13,0,13,0,1,,,,,,,,,,,,,
63d6873b65a6170d64a652f6,TCN,2024-06-24_13h47.22.334,LearnStrategy,2023.2.3,Linux x86_64,60.24096386,4,1,15,-0.081597674,-0.012725604,1,0,0,0.5714,rock_grid_rect_2,5,10,-1,-1,0.571,-0.375989278,-0.405136504,1,0,0,1.2285,Obsidian_rect,5,1.228,1,14,0,14,0,1,,,,,,,,,,,,,
63d6873b65a6170d64a652f6,TCN,2024-06-24_13h47.22.334,LearnStrategy,2023.2.3,Linux x86_64,60.24096386,4,1,16,-0.0925688,-0.012262811,1,0,0,0.6966,rock_grid_rect_2,7,06,-1,-1,0.697,0.051884234,-0.41161499,1,0,0,1.4361,Peridotite_rect,7,1.436,1,15,0,15,0,1,,,,,,,,,,,,,
63d6873b65a6170d64a652f6,TCN,2024-06-24_13h47.22.334,LearnStrategy,2023.2.3,Linux x86_64,60.24096386,4,2,1,,,,,,,,4,03,,,,,,,,,,,4,7.369,1,,,,,,0.407531173,-0.245488202,1,0,0,7.3686,Gabbro_rect,0,0,0,0,1,
63d6873b65a6170d64a652f6,TCN,2024-06-24_13h47.22.334,LearnStrategy,2023.2.3,Linux x86_64,60.24096386,4,2,2,,,,,,,,8,03,,,,,,,,,,,8,0.851,1,,,,,,0.37644642,-0.398195281,1,0,0,0.8506,Pumice_rect,1,0,1,0,1,
63d6873b65a6170d64a652f6,TCN,2024-06-24_13h47.22.334,LearnStrategy,2023.2.3,Linux x86_64,60.24096386,4,2,3,,,,,,,,6,03,,,,,,,,,,,6,1.084,1,,,,,,-0.092111658,-0.407450245,1,0,0,1.0837,Pegmatite_rect,2,0,2,0,1,
63d6873b65a6170d64a652f6,TCN,2024-06-24_13h47.22.334,LearnStrategy,2023.2.3,Linux x86_64,60.24096386,4,2,4,,,,,,,,7,10,,,,,,,,,,,4,3.048,0,,,,,,0.391531711,-0.264923604,1,0,0,3.0476,Gabbro_rect,3,0,3,0,1,
63d6873b65a6170d64a652f6,TCN,2024-06-24_13h47.22.334,LearnStrategy,2023.2.3,Linux x86_64,60.24096386,4,2,5,,,,,,,,2,09,,,,,,,,,,,2,1.197,1,,,,,,-0.107654091,-0.262147126,1,0,0,1.1969,Basalt_rect,4,0,4,0,1,
63d6873b65a6170d64a652f6,TCN,2024-06-24_13h47.22.334,LearnStrategy,2023.2.3,Linux x86_64,60.24096386,4,2,6,,,,,,,,1,03,,,,,,,,,,,2,1.089,0,,,,,,-0.087540351,-0.26908835,1,0,0,1.0887,Basalt_rect,5,0,5,0,1,
63d6873b65a6170d64a652f6,TCN,2024-06-24_13h47.22.334,LearnStrategy,2023.2.3,Linux x86_64,60.24096386,4,2,7,,,,,,,,7,16,,,,,,,,,,,3,1.714,0,,,,,,0.158395499,-0.264460867,1,0,0,1.7143,Diorite_rect,6,0,6,0,1,
63d6873b65a6170d64a652f6,TCN,2024-06-24_13h47.22.334,LearnStrategy,2023.2.3,Linux x86_64,60.24096386,4,2,8,,,,,,,,4,05,,,,,,,,,,,3,0.971,0,,,,,,0.145595861,-0.266774608,1,0,0,0.9708,Diorite_rect,7,0,7,0,1,
63d6873b65a6170d64a652f6,TCN,2024-06-24_13h47.22.334,LearnStrategy,2023.2.3,Linux x86_64,60.24096386,4,2,9,,,,,,,,8,16,,,,,,,,,,,8,0.88,1,,,,,,0.348561492,-0.413003201,1,0,0,0.8802,Pumice_rect,8,0,8,0,1,
63d6873b65a6170d64a652f6,TCN,2024-06-24_13h47.22.334,LearnStrategy,2023.2.3,Linux x86_64,60.24096386,4,2,10,,,,,,,,1,07,,,,,,,,,,,3,6.032,0,,,,,,0.15108134,-0.244099935,1,0,0,6.0323,Diorite_rect,9,0,9,0,1,
63d6873b65a6170d64a652f6,TCN,2024-06-24_13h47.22.334,LearnStrategy,2023.2.3,Linux x86_64,60.24096386,4,2,11,,,,,,,,3,14,,,,,,,,,,,3,0.757,1,,,,,,0.163423891,-0.262147126,1,0,0,0.7567,Diorite_rect,10,0,10,0,1,
63d6873b65a6170d64a652f6,TCN,2024-06-24_13h47.22.334,LearnStrategy,2023.2.3,Linux x86_64,60.24096386,4,2,12,,,,,,,,3,08,,,,,,,,,,,3,0.714,1,,,,,,0.156566931,-0.264460867,1,0,0,0.7136,Diorite_rect,11,0,11,0,1,
63d6873b65a6170d64a652f6,TCN,2024-06-24_13h47.22.334,LearnStrategy,2023.2.3,Linux x86_64,60.24096386,4,2,13,,,,,,,,2,08,,,,,,,,,,,2,2.127,1,,,,,,-0.10582558,-0.263535394,1,0,0,2.1271,Basalt_rect,12,0,12,0,1,
63d6873b65a6170d64a652f6,TCN,2024-06-24_13h47.22.334,LearnStrategy,2023.2.3,Linux x86_64,60.24096386,4,2,14,,,,,,,,5,09,,,,,,,,,,,5,1.538,1,,,,,,-0.352675657,-0.413003201,1,0,0,1.5382,Obsidian_rect,13,0,13,0,1,
63d6873b65a6170d64a652f6,TCN,2024-06-24_13h47.22.334,LearnStrategy,2023.2.3,Linux x86_64,60.24096386,4,2,15,,,,,,,,6,06,,,,,,,,,,,6,1.03,1,,,,,,-0.066055241,-0.399583492,1,0,0,1.0304,Pegmatite_rect,14,0,14,0,1,
63d6873b65a6170d64a652f6,TCN,2024-06-24_13h47.22.334,LearnStrategy,2023.2.3,Linux x86_64,60.24096386,4,2,16,,,,,,,,5,04,,,,,,,,,,,5,0.955,1,,,,,,-0.363189641,-0.419481687,1,0,0,0.9551,Obsidian_rect,15,0,15,0,1,
63d6873b65a6170d64a652f6,TCN,2024-06-24_13h47.22.334,LearnStrategy,2023.2.3,Linux x86_64,60.24096386,5,1,1,0.052341376,-0.014113815,1,0,0,0.9976,rock_grid_rect_2,8,13,-1,-1,0.998,0.373703568,-0.406987508,1,0,0,0.9675,Pumice_rect,8,0.967,1,0,0,0,0,1,,,,,,,,,,,,,
63d6873b65a6170d64a652f6,TCN,2024-06-24_13h47.22.334,LearnStrategy,2023.2.3,Linux x86_64,60.24096386,5,1,2,0.089368919,-0.001156842,1,0,0,0.8402,rock_grid_rect_2,6,05,-1,-1,0.84,0.140567356,-0.396807014,1,0,0,1.4065,Peridotite_rect,7,1.406,0,1,0,1,0,1,,,,,,,,,,,,,
63d6873b65a6170d64a652f6,TCN,2024-06-24_13h47.22.334,LearnStrategy,2023.2.3,Linux x86_64,60.24096386,5,1,3,-0.131424798,-0.006247118,1,0,0,1.1327,rock_grid_rect_2,5,12,-1,-1,1.133,-0.366846664,-0.38894026,1,0,0,0.8479,Obsidian_rect,5,0.848,1,2,0,2,0,1,,,,,,,,,,,,,
63d6873b65a6170d64a652f6,TCN,2024-06-24_13h47.22.334,LearnStrategy,2023.2.3,Linux x86_64,60.24096386,5,1,4,-0.114510995,0.005321644,1,0,0,0.6594,rock_grid_rect_2,4,12,-1,-1,0.659,-0.164338175,-0.249190154,1,0,0,1.0907,Basalt_rect,2,1.091,0,3,0,3,0,1,,,,,,,,,,,,,
63d6873b65a6170d64a652f6,TCN,2024-06-24_13h47.22.334,LearnStrategy,2023.2.3,Linux x86_64,60.24096386,5,1,5,-0.105368438,0.004858851,1,0,0,0.5975,rock_grid_rect_2,3,07,-1,-1,0.597,0.085254697,-0.234844971,1,0,0,1.2553,Diorite_rect,3,1.255,1,4,0,4,0,1,,,,,,,,,,,,,
63d6873b65a6170d64a652f6,TCN,2024-06-24_13h47.22.334,LearnStrategy,2023.2.3,Linux x86_64,60.24096386,5,1,6,-0.085254697,-0.003007846,1,0,0,0.5926,rock_grid_rect_2,8,09,-1,-1,0.593,0.322505018,-0.400509022,1,0,0,1.0061,Pumice_rect,8,1.006,1,5,0,5,0,1,,,,,,,,,,,,,
63d6873b65a6170d64a652f6,TCN,2024-06-24_13h47.22.334,LearnStrategy,2023.2.3,Linux x86_64,60.24096386,5,1,7,-0.07611214,-0.005784324,1,0,0,0.5562,rock_grid_rect_2,1,10,-1,-1,0.556,-0.132339082,-0.235770445,1,0,0,2.6182,Basalt_rect,2,2.618,0,6,0,6,0,1,,,,,,,,,,,,,
63d6873b65a6170d64a652f6,TCN,2024-06-24_13h47.22.334,LearnStrategy,2023.2.3,Linux x86_64,60.24096386,5,1,8,-0.086626123,-0.016427556,1,0,0,0.609,rock_grid_rect_2,7,07,-1,-1,0.609,0.065141014,-0.251041158,1,0,0,1.2716,Diorite_rect,3,1.272,0,7,0,7,0,1,,,,,,,,,,,,,
63d6873b65a6170d64a652f6,TCN,2024-06-24_13h47.22.334,LearnStrategy,2023.2.3,Linux x86_64,60.24096386,5,1,9,-0.065598156,-0.015964819,1,0,0,0.5726,rock_grid_rect_2,1,09,-1,-1,0.573,-0.164338175,-0.245025409,1,0,0,1.0025,Basalt_rect,2,1.002,0,8,0,8,0,1,,,,,,,,,,,,,
63d6873b65a6170d64a652f6,TCN,2024-06-24_13h47.22.334,LearnStrategy,2023.2.3,Linux x86_64,60.24096386,5,1,10,-0.098511477,-0.023831572,1,0,0,0.5921,rock_grid_rect_2,2,12,-1,-1,0.592,-0.370046601,-0.256131377,1,0,0,0.9831,Andesite_rect,1,0.983,0,9,0,9,0,1,,,,,,,,,,,,,
63d6873b65a6170d64a652f6,TCN,2024-06-24_13h47.22.334,LearnStrategy,2023.2.3,Linux x86_64,60.24096386,5,1,11,-0.087540351,-0.013651078,1,0,0,0.541,rock_grid_rect_2,6,12,-1,-1,0.541,-0.145138719,-0.406524715,1,0,0,2.6388,Pegmatite_rect,6,2.639,1,10,0,10,0,1,,,,,,,,,,,,,
63d6873b65a6170d64a652f6,TCN,2024-06-24_13h47.22.334,LearnStrategy,2023.2.3,Linux x86_64,60.24096386,5,1,12,-0.107196949,-0.018741297,1,0,0,0.5979,rock_grid_rect_2,7,15,-1,-1,0.598,0.050512808,-0.393105005,1,0,0,0.9337,Peridotite_rect,7,0.934,1,11,0,11,0,1,,,,,,,,,,,,,
63d6873b65a6170d64a652f6,TCN,2024-06-24_13h47.22.334,LearnStrategy,2023.2.3,Linux x86_64,60.24096386,5,1,13,-0.115882421,-0.010411863,1,0,0,0.622,rock_grid_rect_2,3,16,-1,-1,0.622,0.052798462,-0.235307708,1,0,0,0.9078,Diorite_rect,3,0.908,1,12,0,12,0,1,,,,,,,,,,,,,
63d6873b65a6170d64a652f6,TCN,2024-06-24_13h47.22.334,LearnStrategy,2023.2.3,Linux x86_64,60.24096386,5,1,14,-0.109025461,-0.019204034,1,0,0,0.5256,rock_grid_rect_2,5,02,-1,-1,0.526,-0.354047026,-0.38986579,1,0,0,0.9469,Obsidian_rect,5,0.947,1,13,0,13,0,1,,,,,,,,,,,,,
63d6873b65a6170d64a652f6,TCN,2024-06-24_13h47.22.334,LearnStrategy,2023.2.3,Linux x86_64,60.24096386,5,1,15,-0.088454635,0.004396114,1,0,0,0.5426,rock_grid_rect_2,4,10,-1,-1,0.543,-0.165252403,-0.248727417,1,0,0,1.0745,Basalt_rect,2,1.074,0,14,0,14,0,1,,,,,,,,,,,,,
63d6873b65a6170d64a652f6,TCN,2024-06-24_13h47.22.334,LearnStrategy,2023.2.3,Linux x86_64,60.24096386,5,1,16,-0.114510995,-0.008098065,1,0,0,0.491,rock_grid_rect_2,2,10,-1,-1,0.491,-0.359075476,-0.401897233,1,0,0,1.3292,Obsidian_rect,5,1.329,0,15,0,15,0,1,,,,,,,,,,,,,
63d6873b65a6170d64a652f6,TCN,2024-06-24_13h47.22.334,LearnStrategy,2023.2.3,Linux x86_64,60.24096386,5,2,1,,,,,,,,1,06,,,,,,,,,,,3,6.474,0,,,,,,0.157024129,-0.234844971,1,0,0,6.4735,Diorite_rect,0,0,0,0,1,
63d6873b65a6170d64a652f6,TCN,2024-06-24_13h47.22.334,LearnStrategy,2023.2.3,Linux x86_64,60.24096386,5,2,2,,,,,,,,5,11,,,,,,,,,,,5,0.836,1,,,,,,-0.346275838,-0.414854205,1,0,0,0.8363,Obsidian_rect,1,0,1,0,1,
63d6873b65a6170d64a652f6,TCN,2024-06-24_13h47.22.334,LearnStrategy,2023.2.3,Linux x86_64,60.24096386,5,2,3,,,,,,,,6,15,,,,,,,,,,,6,1.117,1,,,,,,-0.091654516,-0.403748237,1,0,0,1.1173,Pegmatite_rect,2,0,2,0,1,
63d6873b65a6170d64a652f6,TCN,2024-06-24_13h47.22.334,LearnStrategy,2023.2.3,Linux x86_64,60.24096386,5,2,4,,,,,,,,8,04,,,,,,,,,,,8,0.847,1,,,,,,0.361361129,-0.415316942,1,0,0,0.8466,Pumice_rect,3,0,3,0,1,
63d6873b65a6170d64a652f6,TCN,2024-06-24_13h47.22.334,LearnStrategy,2023.2.3,Linux x86_64,60.24096386,5,2,5,,,,,,,,7,05,,,,,,,,,,,4,9.231,0,,,,,,0.403417065,-0.257982381,1,0,0,9.2313,Gabbro_rect,4,0,4,0,1,
63d6873b65a6170d64a652f6,TCN,2024-06-24_13h47.22.334,LearnStrategy,2023.2.3,Linux x86_64,60.24096386,5,2,6,,,,,,,,3,09,,,,,,,,,,,3,2.016,1,,,,,,0.156566931,-0.24086072,1,0,0,2.0163,Diorite_rect,5,0,5,0,1,
63d6873b65a6170d64a652f6,TCN,2024-06-24_13h47.22.334,LearnStrategy,2023.2.3,Linux x86_64,60.24096386,5,2,7,,,,,,,,7,13,,,,,,,,,,,4,9.351,0,,,,,,0.364103868,-0.25566864,1,0,0,9.3515,Gabbro_rect,6,0,6,0,1,
63d6873b65a6170d64a652f6,TCN,2024-06-24_13h47.22.334,LearnStrategy,2023.2.3,Linux x86_64,60.24096386,5,2,8,,,,,,,,2,11,,,,,,,,,,,2,1.494,1,,,,,,-0.092111658,-0.258907912,1,0,0,1.4939,Basalt_rect,7,0,7,0,1,
63d6873b65a6170d64a652f6,TCN,2024-06-24_13h47.22.334,LearnStrategy,2023.2.3,Linux x86_64,60.24096386,5,2,9,,,,,,,,5,06,,,,,,,,,,,5,1.067,1,,,,,,-0.36456101,-0.390791264,1,0,0,1.0674,Obsidian_rect,8,0,8,0,1,
63d6873b65a6170d64a652f6,TCN,2024-06-24_13h47.22.334,LearnStrategy,2023.2.3,Linux x86_64,60.24096386,5,2,10,,,,,,,,3,10,,,,,,,,,,,3,3.528,1,,,,,,0.134624679,-0.259370648,1,0,0,3.5284,Diorite_rect,9,0,9,0,1,
63d6873b65a6170d64a652f6,TCN,2024-06-24_13h47.22.334,LearnStrategy,2023.2.3,Linux x86_64,60.24096386,5,2,11,,,,,,,,4,16,,,,,,,,,,,2,1.456,0,,,,,,-0.091654516,-0.254743166,1,0,0,1.4562,Basalt_rect,10,0,10,0,1,
63d6873b65a6170d64a652f6,TCN,2024-06-24_13h47.22.334,LearnStrategy,2023.2.3,Linux x86_64,60.24096386,5,2,12,,,,,,,,2,04,,,,,,,,,,,2,1.655,1,,,,,,-0.110853972,-0.252892162,1,0,0,1.6553,Basalt_rect,11,0,11,0,1,
63d6873b65a6170d64a652f6,TCN,2024-06-24_13h47.22.334,LearnStrategy,2023.2.3,Linux x86_64,60.24096386,5,2,13,,,,,,,,1,01,,,,,,,,,,,2,1.645,0,,,,,,-0.109482603,-0.263535394,1,0,0,1.6448,Basalt_rect,12,0,12,0,1,
63d6873b65a6170d64a652f6,TCN,2024-06-24_13h47.22.334,LearnStrategy,2023.2.3,Linux x86_64,60.24096386,5,2,14,,,,,,,,8,08,,,,,,,,,,,8,1.023,1,,,,,,0.339418877,-0.418093476,1,0,0,1.023,Pumice_rect,13,0,13,0,1,
63d6873b65a6170d64a652f6,TCN,2024-06-24_13h47.22.334,LearnStrategy,2023.2.3,Linux x86_64,60.24096386,5,2,15,,,,,,,,6,16,,,,,,,,,,,6,1.106,1,,,,,,-0.083883328,-0.397732487,1,0,0,1.1055,Pegmatite_rect,14,0,14,0,1,
63d6873b65a6170d64a652f6,TCN,2024-06-24_13h47.22.334,LearnStrategy,2023.2.3,Linux x86_64,60.24096386,5,2,16,,,,,,,,4,14,,,,,,,,,,,7,0.994,0,,,,,,0.094854397,-0.412540464,1,0,0,0.9944,Peridotite_rect,15,0,15,0,1,
63d6873b65a6170d64a652f6,TCN,2024-06-24_13h47.22.334,LearnStrategy,2023.2.3,Linux x86_64,60.24096386,6,1,1,-0.143310208,0.01180013,1,0,0,0.977,rock_grid_rect_2,8,05,-1,-1,0.977,0.417130986,-0.391716795,1,0,0,2.406,Pumice_rect,8,2.406,1,0,0,0,0,1,,,,,,,,,,,,,
63d6873b65a6170d64a652f6,TCN,2024-06-24_13h47.22.334,LearnStrategy,2023.2.3,Linux x86_64,60.24096386,6,1,2,0.010742527,-0.016427556,1,0,0,0.8745,rock_grid_rect_2,2,14,-1,-1,0.875,-0.345361554,-0.232993967,1,0,0,1.3456,Andesite_rect,1,1.346,0,1,0,1,0,1,,,,,,,,,,,,,
63d6873b65a6170d64a652f6,TCN,2024-06-24_13h47.22.334,LearnStrategy,2023.2.3,Linux x86_64,60.24096386,6,1,3,0.041370251,0.010411863,1,0,0,0.7204,rock_grid_rect_2,5,05,-1,-1,0.72,-0.332104775,-0.398195281,1,0,0,1.2893,Obsidian_rect,5,1.289,1,2,0,2,0,1,,,,,,,,,,,,,
63d6873b65a6170d64a652f6,TCN,2024-06-24_13h47.22.334,LearnStrategy,2023.2.3,Linux x86_64,60.24096386,6,1,4,0.109482603,0.011337337,1,0,0,0.5871,rock_grid_rect_2,4,15,-1,-1,0.587,0.208222566,-0.25566864,1,0,0,0.9661,Diorite_rect,3,0.966,0,3,0,3,0,1,,,,,,,,,,,,,
63d6873b65a6170d64a652f6,TCN,2024-06-24_13h47.22.334,LearnStrategy,2023.2.3,Linux x86_64,60.24096386,6,1,5,0.113139626,0.00254511,1,0,0,0.6454,rock_grid_rect_2,3,12,-1,-1,0.645,0.204108457,-0.400046228,1,0,0,0.9578,Peridotite_rect,7,0.958,0,4,0,4,0,1,,,,,,,,,,,,,
63d6873b65a6170d64a652f6,TCN,2024-06-24_13h47.22.334,LearnStrategy,2023.2.3,Linux x86_64,60.24096386,6,1,6,0.117253734,-0.003007846,1,0,0,0.6429,rock_grid_rect_2,8,06,-1,-1,0.643,0.389246058,-0.41161499,1,0,0,0.8664,Pumice_rect,8,0.866,1,5,0,5,0,1,,,,,,,,,,,,,
63d6873b65a6170d64a652f6,TCN,2024-06-24_13h47.22.334,LearnStrategy,2023.2.3,Linux x86_64,60.24096386,6,1,7,0.073369344,-0.0108746,1,0,0,0.556,rock_grid_rect_2,1,04,-1,-1,0.556,0.152909908,-0.255205903,1,0,0,1.5297,Diorite_rect,3,1.53,0,6,0,6,0,1,,,,,,,,,,,,,
63d6873b65a6170d64a652f6,TCN,2024-06-24_13h47.22.334,LearnStrategy,2023.2.3,Linux x86_64,60.24096386,6,1,8,0.128682002,-0.016890293,1,0,0,0.6752,rock_grid_rect_2,3,15,-1,-1,0.675,-0.046855785,-0.412540464,1,0,0,2.5247,Pegmatite_rect,6,2.525,0,7,0,7,0,1,,,,,,,,,,,,,
63d6873b65a6170d64a652f6,TCN,2024-06-24_13h47.22.334,LearnStrategy,2023.2.3,Linux x86_64,60.24096386,6,1,9,0.129596286,-0.00994907,1,0,0,0.6277,rock_grid_rect_2,6,10,-1,-1,0.628,-0.196337269,-0.393105005,1,0,0,1.7222,Pegmatite_rect,6,1.722,1,8,0,8,0,1,,,,,,,,,,,,,
63d6873b65a6170d64a652f6,TCN,2024-06-24_13h47.22.334,LearnStrategy,2023.2.3,Linux x86_64,60.24096386,6,1,10,0.065141014,-0.015039345,1,0,0,0.5418,rock_grid_rect_2,7,14,-1,-1,0.542,-0.198165781,-0.395418746,1,0,0,1.032,Pegmatite_rect,6,1.032,0,9,0,9,0,1,,,,,,,,,,,,,
63d6873b65a6170d64a652f6,TCN,2024-06-24_13h47.22.334,LearnStrategy,2023.2.3,Linux x86_64,60.24096386,6,1,11,0.084797612,-0.006709855,1,0,0,0.595,rock_grid_rect_2,7,02,-1,-1,0.595,0.19130882,-0.243637198,1,0,0,0.9012,Diorite_rect,3,0.901,0,10,0,10,0,1,,,,,,,,,,,,,
63d6873b65a6170d64a652f6,TCN,2024-06-24_13h47.22.334,LearnStrategy,2023.2.3,Linux x86_64,60.24096386,6,1,12,0.08205476,0.000231368,1,0,0,0.5453,rock_grid_rect_2,5,16,-1,-1,0.545,-0.424445032,-0.39588154,1,0,0,1.0125,Obsidian_rect,5,1.012,1,11,0,11,0,1,,,,,,,,,,,,,
63d6873b65a6170d64a652f6,TCN,2024-06-24_13h47.22.334,LearnStrategy,2023.2.3,Linux x86_64,60.24096386,6,1,13,0.065598099,-0.002082373,1,0,0,0.5049,rock_grid_rect_2,6,08,-1,-1,0.505,-0.195880127,-0.391254058,1,0,0,1.0703,Pegmatite_rect,6,1.07,1,12,0,12,0,1,,,,,,,,,,,,,
63d6873b65a6170d64a652f6,TCN,2024-06-24_13h47.22.334,LearnStrategy,2023.2.3,Linux x86_64,60.24096386,6,1,14,0.091197374,-0.022443305,1,0,0,0.5114,rock_grid_rect_2,2,05,-1,-1,0.511,-0.226050709,-0.262147126,1,0,0,1.5664,Basalt_rect,2,1.566,1,13,0,13,0,1,,,,,,,,,,,,,
63d6873b65a6170d64a652f6,TCN,2024-06-24_13h47.22.334,LearnStrategy,2023.2.3,Linux x86_64,60.24096386,6,1,15,0.109939688,-0.009486333,1,0,0,0.5248,rock_grid_rect_2,4,01,-1,-1,0.525,-0.385588978,-0.261684389,1,0,0,1.5659,Andesite_rect,1,1.566,0,14,0,14,0,1,,,,,,,,,,,,,
63d6873b65a6170d64a652f6,TCN,2024-06-24_13h47.22.334,LearnStrategy,2023.2.3,Linux x86_64,60.24096386,6,1,16,0.087540351,-0.008098065,1,0,0,0.5761,rock_grid_rect_2,1,11,-1,-1,0.576,-0.058741195,-0.378759822,1,0,0,2.3876,Pegmatite_rect,6,2.388,0,15,0,15,0,1,,,,,,,,,,,,,
63d6873b65a6170d64a652f6,TCN,2024-06-24_13h47.22.334,LearnStrategy,2023.2.3,Linux x86_64,60.24096386,6,2,1,,,,,,,,3,06,,,,,,,,,,,7,3.125,0,,,,,,0.19953715,-0.403748237,1,0,0,3.1246,Peridotite_rect,0,0,0,0,1,
63d6873b65a6170d64a652f6,TCN,2024-06-24_13h47.22.334,LearnStrategy,2023.2.3,Linux x86_64,60.24096386,6,2,2,,,,,,,,7,04,,,,,,,,,,,6,3.595,0,,,,,,-0.062398218,-0.407912982,1,0,0,3.5952,Pegmatite_rect,1,0,1,0,1,
63d6873b65a6170d64a652f6,TCN,2024-06-24_13h47.22.334,LearnStrategy,2023.2.3,Linux x86_64,60.24096386,6,2,3,,,,,,,,1,14,,,,,,,,,,,7,2.021,0,,,,,,0.167080915,-0.399583492,1,0,0,2.0207,Peridotite_rect,2,0,2,0,1,
63d6873b65a6170d64a652f6,TCN,2024-06-24_13h47.22.334,LearnStrategy,2023.2.3,Linux x86_64,60.24096386,6,2,4,,,,,,,,1,02,,,,,,,,,,,1,1.438,1,,,,,,-0.390617427,-0.239009716,1,0,0,1.4382,Andesite_rect,3,0,3,0,1,
63d6873b65a6170d64a652f6,TCN,2024-06-24_13h47.22.334,LearnStrategy,2023.2.3,Linux x86_64,60.24096386,6,2,5,,,,,,,,2,02,,,,,,,,,,,2,1.151,1,,,,,,-0.088911777,-0.264923604,1,0,0,1.1506,Basalt_rect,4,0,4,0,1,
63d6873b65a6170d64a652f6,TCN,2024-06-24_13h47.22.334,LearnStrategy,2023.2.3,Linux x86_64,60.24096386,6,2,6,,,,,,,,5,08,,,,,,,,,,,5,0.887,1,,,,,,-0.398845757,-0.391254058,1,0,0,0.887,Obsidian_rect,5,0,5,0,1,
63d6873b65a6170d64a652f6,TCN,2024-06-24_13h47.22.334,LearnStrategy,2023.2.3,Linux x86_64,60.24096386,6,2,7,,,,,,,,4,13,,,,,,,,,,,3,1.784,0,,,,,,0.133710508,-0.251966688,1,0,0,1.7839,Diorite_rect,6,0,6,0,1,
63d6873b65a6170d64a652f6,TCN,2024-06-24_13h47.22.334,LearnStrategy,2023.2.3,Linux x86_64,60.24096386,6,2,8,,,,,,,,2,16,,,,,,,,,,,2,1.061,1,,,,,,-0.077483509,-0.269551143,1,0,0,1.0606,Basalt_rect,7,0,7,0,1,
63d6873b65a6170d64a652f6,TCN,2024-06-24_13h47.22.334,LearnStrategy,2023.2.3,Linux x86_64,60.24096386,6,2,9,,,,,,,,6,13,,,,,,,,,,,6,1.187,1,,,,,,-0.069255179,-0.409301249,1,0,0,1.1867,Pegmatite_rect,8,0,8,0,1,
63d6873b65a6170d64a652f6,TCN,2024-06-24_13h47.22.334,LearnStrategy,2023.2.3,Linux x86_64,60.24096386,6,2,10,,,,,,,,6,09,,,,,,,,,,,6,2.061,1,,,,,,-0.085254697,-0.404673767,1,0,0,2.0614,Pegmatite_rect,9,0,9,0,1,
63d6873b65a6170d64a652f6,TCN,2024-06-24_13h47.22.334,LearnStrategy,2023.2.3,Linux x86_64,60.24096386,6,2,11,,,,,,,,8,15,,,,,,,,,,,8,0.895,1,,,,,,0.373246483,-0.39588154,1,0,0,0.8955,Pumice_rect,10,0,10,0,1,
63d6873b65a6170d64a652f6,TCN,2024-06-24_13h47.22.334,LearnStrategy,2023.2.3,Linux x86_64,60.24096386,6,2,12,,,,,,,,8,14,,,,,,,,,,,8,1.312,1,,,,,,0.429473425,-0.4032855,1,0,0,1.3117,Pumice_rect,11,0,11,0,1,
63d6873b65a6170d64a652f6,TCN,2024-06-24_13h47.22.334,LearnStrategy,2023.2.3,Linux x86_64,60.24096386,6,2,13,,,,,,,,5,07,,,,,,,,,,,5,0.925,1,,,,,,-0.411188253,-0.409301249,1,0,0,0.9247,Obsidian_rect,12,0,12,0,1,
63d6873b65a6170d64a652f6,TCN,2024-06-24_13h47.22.334,LearnStrategy,2023.2.3,Linux x86_64,60.24096386,6,2,14,,,,,,,,7,08,,,,,,,,,,,4,1.604,0,,,,,,0.392445882,-0.268625613,1,0,0,1.6039,Gabbro_rect,13,0,13,0,1,
63d6873b65a6170d64a652f6,TCN,2024-06-24_13h47.22.334,LearnStrategy,2023.2.3,Linux x86_64,60.24096386,6,2,15,,,,,,,,4,09,,,,,,,,,,,3,1.256,0,,,,,,0.167538113,-0.265386398,1,0,0,1.256,Diorite_rect,14,0,14,0,1,
63d6873b65a6170d64a652f6,TCN,2024-06-24_13h47.22.334,LearnStrategy,2023.2.3,Linux x86_64,60.24096386,6,2,16,,,,,,,,3,02,,,,,,,,,,,3,1.253,1,,,,,,0.122739326,-0.253354899,1,0,0,1.2531,Diorite_rect,15,0,15,0,1,
63d6873b65a6170d64a652f6,TCN,2024-06-24_13h47.22.334,LearnStrategy,2023.2.3,Linux x86_64,60.24096386,7,1,1,0.077483453,-0.017353086,1,0,0,0.7059,rock_grid_rect_2,5,16,-1,-1,0.706,-0.431301965,-0.41068946,1,0,0,0.8584,Obsidian_rect,5,0.858,1,0,0,0,0,1,,,,,,,,,,,,,
63d6873b65a6170d64a652f6,TCN,2024-06-24_13h47.22.334,LearnStrategy,2023.2.3,Linux x86_64,60.24096386,7,1,2,0.07382643,-0.004858851,1,0,0,0.7059,rock_grid_rect_2,6,07,-1,-1,0.706,-0.056455542,-0.394956009,1,0,0,0.8924,Pegmatite_rect,6,0.892,1,1,0,1,0,1,,,,,,,,,,,,,
63d6873b65a6170d64a652f6,TCN,2024-06-24_13h47.22.334,LearnStrategy,2023.2.3,Linux x86_64,60.24096386,7,1,3,0.052798462,-0.006247118,1,0,0,0.5738,rock_grid_rect_2,2,05,-1,-1,0.574,-0.372789341,-0.249652947,1,0,0,1.4661,Andesite_rect,1,1.466,0,2,0,2,0,1,,,,,,,,,,,,,
63d6873b65a6170d64a652f6,TCN,2024-06-24_13h47.22.334,LearnStrategy,2023.2.3,Linux x86_64,60.24096386,7,1,4,0.077940651,-0.003007846,1,0,0,0.6559,rock_grid_rect_2,1,10,-1,-1,0.656,-0.393360166,-0.261684389,1,0,0,0.9447,Andesite_rect,1,0.945,1,3,0,3,0,1,,,,,,,,,,,,,
63d6873b65a6170d64a652f6,TCN,2024-06-24_13h47.22.334,LearnStrategy,2023.2.3,Linux x86_64,60.24096386,7,1,5,0.049598581,-0.003933377,1,0,0,0.623,rock_grid_rect_2,2,01,-1,-1,0.623,-0.0925688,-0.258445175,1,0,0,0.9407,Basalt_rect,2,0.941,1,4,0,4,0,1,,,,,,,,,,,,,
63d6873b65a6170d64a652f6,TCN,2024-06-24_13h47.22.334,LearnStrategy,2023.2.3,Linux x86_64,60.24096386,7,1,6,0.036798943,-0.016890293,1,0,0,0.6097,rock_grid_rect_2,3,16,-1,-1,0.61,0.153824192,-0.252892162,1,0,0,1.5268,Diorite_rect,3,1.527,1,5,0,5,0,1,,,,,,,,,,,,,
63d6873b65a6170d64a652f6,TCN,2024-06-24_13h47.22.334,LearnStrategy,2023.2.3,Linux x86_64,60.24096386,7,1,7,0.074283628,-0.007172592,1,0,0,0.5514,rock_grid_rect_2,5,05,-1,-1,0.551,-0.431759107,-0.392642268,1,0,0,1.2111,Obsidian_rect,5,1.211,1,6,0,6,0,1,,,,,,,,,,,,,
63d6873b65a6170d64a652f6,TCN,2024-06-24_13h47.22.334,LearnStrategy,2023.2.3,Linux x86_64,60.24096386,7,1,8,0.044113046,-0.003007846,1,0,0,0.6064,rock_grid_rect_2,8,05,-1,-1,0.606,0.360446845,-0.399120755,1,0,0,1.3641,Pumice_rect,8,1.364,1,7,0,7,0,1,,,,,,,,,,,,,
63d6873b65a6170d64a652f6,TCN,2024-06-24_13h47.22.334,LearnStrategy,2023.2.3,Linux x86_64,60.24096386,7,1,9,0.033599006,-0.014576552,1,0,0,0.5463,rock_grid_rect_2,8,10,-1,-1,0.546,0.347190122,-0.412077727,1,0,0,1.0413,Pumice_rect,8,1.041,1,8,0,8,0,1,,,,,,,,,,,,,
63d6873b65a6170d64a652f6,TCN,2024-06-24_13h47.22.334,LearnStrategy,2023.2.3,Linux x86_64,60.24096386,7,1,10,0.035884659,-0.013188341,1,0,0,0.5062,rock_grid_rect_2,7,07,-1,-1,0.506,0.176223529,-0.259370648,1,0,0,1.225,Diorite_rect,3,1.225,0,9,0,9,0,1,,,,,,,,,,,,,
63d6873b65a6170d64a652f6,TCN,2024-06-24_13h47.22.334,LearnStrategy,2023.2.3,Linux x86_64,60.24096386,7,1,11,0.114968081,-0.012725604,1,0,0,0.6141,rock_grid_rect_2,6,08,-1,-1,0.614,-0.058284053,-0.397732487,1,0,0,0.9786,Pegmatite_rect,6,0.979,1,10,0,10,0,1,,,,,,,,,,,,,
63d6873b65a6170d64a652f6,TCN,2024-06-24_13h47.22.334,LearnStrategy,2023.2.3,Linux x86_64,60.24096386,7,1,12,0.051427092,-0.017815823,1,0,0,0.5107,rock_grid_rect_2,4,10,-1,-1,0.511,0.171195136,-0.421795428,1,0,0,1.3636,Peridotite_rect,7,1.364,0,11,0,11,0,1,,,,,,,,,,,,,
63d6873b65a6170d64a652f6,TCN,2024-06-24_13h47.22.334,LearnStrategy,2023.2.3,Linux x86_64,60.24096386,7,1,13,0.055084115,-0.016890293,1,0,0,0.4653,rock_grid_rect_2,4,08,-1,-1,0.465,0.361361129,-0.263072657,1,0,0,1.0592,Gabbro_rect,4,1.059,1,12,0,12,0,1,,,,,,,,,,,,,
63d6873b65a6170d64a652f6,TCN,2024-06-24_13h47.22.334,LearnStrategy,2023.2.3,Linux x86_64,60.24096386,7,1,14,0.056455542,-0.022906042,1,0,0,0.6118,rock_grid_rect_2,1,04,-1,-1,0.612,-0.408902599,-0.247801943,1,0,0,1.5209,Andesite_rect,1,1.521,1,13,0,13,0,1,,,,,,,,,,,,,
63d6873b65a6170d64a652f6,TCN,2024-06-24_13h47.22.334,LearnStrategy,2023.2.3,Linux x86_64,60.24096386,7,1,15,0.061941076,-0.008560859,1,0,0,0.5216,rock_grid_rect_2,3,07,-1,-1,0.522,0.179880552,-0.270939354,1,0,0,1.1561,Diorite_rect,3,1.156,1,14,0,14,0,1,,,,,,,,,,,,,
63d6873b65a6170d64a652f6,TCN,2024-06-24_13h47.22.334,LearnStrategy,2023.2.3,Linux x86_64,60.24096386,7,1,16,0.070626492,-0.012725604,1,0,0,0.5398,rock_grid_rect_2,7,02,-1,-1,0.54,0.118625217,-0.402822763,1,0,0,1.568,Peridotite_rect,7,1.568,1,15,0,15,0,1,,,,,,,,,,,,,
63d6873b65a6170d64a652f6,TCN,2024-06-24_13h47.22.334,LearnStrategy,2023.2.3,Linux x86_64,60.24096386,7,2,1,,,,,,,,2,16,,,,,,,,,,,1,3.194,0,,,,,,-0.398388615,-0.236695975,1,0,0,3.1942,Andesite_rect,0,0,0,0,1,
63d6873b65a6170d64a652f6,TCN,2024-06-24_13h47.22.334,LearnStrategy,2023.2.3,Linux x86_64,60.24096386,7,2,2,,,,,,,,6,03,,,,,,,,,,,6,0.972,1,,,,,,-0.204108457,-0.402822763,1,0,0,0.972,Pegmatite_rect,1,0,1,0,1,
63d6873b65a6170d64a652f6,TCN,2024-06-24_13h47.22.334,LearnStrategy,2023.2.3,Linux x86_64,60.24096386,7,2,3,,,,,,,,1,14,,,,,,,,,,,3,1.696,0,,,,,,0.132796224,-0.254743166,1,0,0,1.6962,Diorite_rect,2,0,2,0,1,
63d6873b65a6170d64a652f6,TCN,2024-06-24_13h47.22.334,LearnStrategy,2023.2.3,Linux x86_64,60.24096386,7,2,4,,,,,,,,7,05,,,,,,,,,,,4,1.327,0,,,,,,0.343075901,-0.258907912,1,0,0,1.3267,Gabbro_rect,3,0,3,0,1,
63d6873b65a6170d64a652f6,TCN,2024-06-24_13h47.22.334,LearnStrategy,2023.2.3,Linux x86_64,60.24096386,7,2,5,,,,,,,,6,06,,,,,,,,,,,6,2.109,1,,,,,,-0.081597674,-0.399120755,1,0,0,2.1092,Pegmatite_rect,4,0,4,0,1,
63d6873b65a6170d64a652f6,TCN,2024-06-24_13h47.22.334,LearnStrategy,2023.2.3,Linux x86_64,60.24096386,7,2,6,,,,,,,,4,05,,,,,,,,,,,4,1.036,1,,,,,,0.350847145,-0.27001388,1,0,0,1.0365,Gabbro_rect,5,0,5,0,1,
63d6873b65a6170d64a652f6,TCN,2024-06-24_13h47.22.334,LearnStrategy,2023.2.3,Linux x86_64,60.24096386,7,2,7,,,,,,,,2,09,,,,,,,,,,,2,2.459,1,,,,,,-0.086168981,-0.252892162,1,0,0,2.4593,Basalt_rect,6,0,6,0,1,
63d6873b65a6170d64a652f6,TCN,2024-06-24_13h47.22.334,LearnStrategy,2023.2.3,Linux x86_64,60.24096386,7,2,8,,,,,,,,8,16,,,,,,,,,,,8,1.16,1,,,,,,0.384217552,-0.402360026,1,0,0,1.1603,Pumice_rect,7,0,7,0,1,
63d6873b65a6170d64a652f6,TCN,2024-06-24_13h47.22.334,LearnStrategy,2023.2.3,Linux x86_64,60.24096386,7,2,9,,,,,,,,1,06,,,,,,,,,,,3,1.914,0,,,,,,0.159766868,-0.27001388,1,0,0,1.9142,Diorite_rect,8,0,8,0,1,
63d6873b65a6170d64a652f6,TCN,2024-06-24_13h47.22.334,LearnStrategy,2023.2.3,Linux x86_64,60.24096386,7,2,10,,,,,,,,7,13,,,,,,,,,,,7,0.844,1,,,,,,0.187194598,-0.403748237,1,0,0,0.844,Peridotite_rect,9,0,9,0,1,
63d6873b65a6170d64a652f6,TCN,2024-06-24_13h47.22.334,LearnStrategy,2023.2.3,Linux x86_64,60.24096386,7,2,11,,,,,,,,8,04,,,,,,,,,,,8,1.409,1,,,,,,0.38467475,-0.416705209,1,0,0,1.4086,Pumice_rect,10,0,10,0,1,
63d6873b65a6170d64a652f6,TCN,2024-06-24_13h47.22.334,LearnStrategy,2023.2.3,Linux x86_64,60.24096386,7,2,12,,,,,,,,3,08,,,,,,,,,,,3,1.182,1,,,,,,0.176223529,-0.265386398,1,0,0,1.1824,Diorite_rect,11,0,11,0,1,
63d6873b65a6170d64a652f6,TCN,2024-06-24_13h47.22.334,LearnStrategy,2023.2.3,Linux x86_64,60.24096386,7,2,13,,,,,,,,4,09,,,,,,,,,,,1,2.754,0,,,,,,-0.359532561,-0.262609863,1,0,0,2.7542,Andesite_rect,12,0,12,0,1,
63d6873b65a6170d64a652f6,TCN,2024-06-24_13h47.22.334,LearnStrategy,2023.2.3,Linux x86_64,60.24096386,7,2,14,,,,,,,,5,04,,,,,,,,,,,5,1.573,1,,,,,,-0.415302418,-0.389403054,1,0,0,1.5735,Obsidian_rect,13,0,13,0,1,
63d6873b65a6170d64a652f6,TCN,2024-06-24_13h47.22.334,LearnStrategy,2023.2.3,Linux x86_64,60.24096386,7,2,15,,,,,,,,5,07,,,,,,,,,,,5,0.919,1,,,,,,-0.41575956,-0.392642268,1,0,0,0.9193,Obsidian_rect,14,0,14,0,1,
63d6873b65a6170d64a652f6,TCN,2024-06-24_13h47.22.334,LearnStrategy,2023.2.3,Linux x86_64,60.24096386,7,2,16,,,,,,,,3,02,,,,,,,,,,,3,0.983,1,,,,,,0.194508757,-0.250578421,1,0,0,0.9833,Diorite_rect,15,0,15,0,1,
63d6873b65a6170d64a652f6,TCN,2024-06-24_13h47.22.334,LearnStrategy,2023.2.3,Linux x86_64,60.24096386,8,1,1,0.058741195,-0.015039345,1,0,0,0.5137,rock_grid_rect_2,4,01,-1,-1,0.514,0.183994774,-0.258907912,1,0,0,1.083,Diorite_rect,3,1.083,0,0,0,0,0,1,,,,,,,,,,,,,
63d6873b65a6170d64a652f6,TCN,2024-06-24_13h47.22.334,LearnStrategy,2023.2.3,Linux x86_64,60.24096386,8,1,2,0.093483028,-0.008560859,1,0,0,0.587,rock_grid_rect_2,3,13,-1,-1,0.587,0.162966806,-0.265849135,1,0,0,1.3284,Diorite_rect,3,1.328,1,1,0,1,0,1,,,,,,,,,,,,,
63d6873b65a6170d64a652f6,TCN,2024-06-24_13h47.22.334,LearnStrategy,2023.2.3,Linux x86_64,60.24096386,8,1,3,0.121825042,-0.001619636,1,0,0,1.6032,rock_grid_rect_2,3,12,-1,-1,1.603,0.172566506,-0.251966688,1,0,0,0.818,Diorite_rect,3,0.818,1,2,0,2,0,1,,,,,,,,,,,,,
63d6873b65a6170d64a652f6,TCN,2024-06-24_13h47.22.334,LearnStrategy,2023.2.3,Linux x86_64,60.24096386,8,1,4,0.061026792,0.004396114,1,0,0,0.4961,rock_grid_rect_2,1,05,-1,-1,0.496,-0.086626123,-0.261221653,1,0,0,1.3185,Basalt_rect,2,1.318,0,3,0,3,0,1,,,,,,,,,,,,,
63d6873b65a6170d64a652f6,TCN,2024-06-24_13h47.22.334,LearnStrategy,2023.2.3,Linux x86_64,60.24096386,8,1,5,0.060112508,0.001156899,1,0,0,0.5627,rock_grid_rect_2,5,12,-1,-1,0.563,-0.418045213,-0.398195281,1,0,0,0.7998,Obsidian_rect,5,0.8,1,4,0,4,0,1,,,,,,,,,,,,,
63d6873b65a6170d64a652f6,TCN,2024-06-24_13h47.22.334,LearnStrategy,2023.2.3,Linux x86_64,60.24096386,8,1,6,0.05462703,0.001156899,1,0,0,0.4928,rock_grid_rect_2,6,11,-1,-1,0.493,-0.086626123,-0.385701045,1,0,0,0.9778,Pegmatite_rect,6,0.978,1,5,0,5,0,1,,,,,,,,,,,,,
63d6873b65a6170d64a652f6,TCN,2024-06-24_13h47.22.334,LearnStrategy,2023.2.3,Linux x86_64,60.24096386,8,1,7,0.045027274,-0.004858851,1,0,0,0.4935,rock_grid_rect_2,7,15,-1,-1,0.494,0.380560529,-0.266774608,1,0,0,1.8479,Gabbro_rect,4,1.848,0,6,0,6,0,1,,,,,,,,,,,,,
63d6873b65a6170d64a652f6,TCN,2024-06-24_13h47.22.334,LearnStrategy,2023.2.3,Linux x86_64,60.24096386,8,1,8,0.071083691,-0.005321587,1,0,0,0.5782,rock_grid_rect_2,8,02,-1,-1,0.578,0.354961254,-0.409301249,1,0,0,0.9947,Pumice_rect,8,0.995,1,7,0,7,0,1,,,,,,,,,,,,,
63d6873b65a6170d64a652f6,TCN,2024-06-24_13h47.22.334,LearnStrategy,2023.2.3,Linux x86_64,60.24096386,8,1,9,0.083426129,-0.017353086,1,0,0,0.4929,rock_grid_rect_2,2,06,-1,-1,0.493,-0.426730658,-0.395418746,1,0,0,1.2512,Obsidian_rect,5,1.251,0,8,0,8,0,1,,,,,,,,,,,,,
63d6873b65a6170d64a652f6,TCN,2024-06-24_13h47.22.334,LearnStrategy,2023.2.3,Linux x86_64,60.24096386,8,1,10,0.064683815,-0.011800074,1,0,0,0.5124,rock_grid_rect_2,7,14,-1,-1,0.512,0.172566506,-0.250578421,1,0,0,0.9804,Diorite_rect,3,0.98,0,9,0,9,0,1,,,,,,,,,,,,,
63d6873b65a6170d64a652f6,TCN,2024-06-24_13h47.22.334,LearnStrategy,2023.2.3,Linux x86_64,60.24096386,8,1,11,0.080226305,-0.005784324,1,0,0,0.5555,rock_grid_rect_2,5,10,-1,-1,0.555,-0.434044732,-0.400509022,1,0,0,1.6678,Obsidian_rect,5,1.668,1,10,0,10,0,1,,,,,,,,,,,,,
63d6873b65a6170d64a652f6,TCN,2024-06-24_13h47.22.334,LearnStrategy,2023.2.3,Linux x86_64,60.24096386,8,1,12,0.07245506,0.002082373,1,0,0,0.474,rock_grid_rect_2,4,12,-1,-1,0.474,-0.066055241,-0.265386398,1,0,0,1.1794,Basalt_rect,2,1.179,0,11,0,11,0,1,,,,,,,,,,,,,
63d6873b65a6170d64a652f6,TCN,2024-06-24_13h47.22.334,LearnStrategy,2023.2.3,Linux x86_64,60.24096386,8,1,13,0.095311596,-0.019204034,1,0,0,0.5847,rock_grid_rect_2,6,12,-1,-1,0.585,-0.199994292,-0.392179532,1,0,0,2.7136,Pegmatite_rect,6,2.714,1,12,0,12,0,1,,,,,,,,,,,,,
63d6873b65a6170d64a652f6,TCN,2024-06-24_13h47.22.334,LearnStrategy,2023.2.3,Linux x86_64,60.24096386,8,1,14,0.084797612,-0.023831572,1,0,0,0.6053,rock_grid_rect_2,1,11,-1,-1,0.605,-0.212336787,-0.404210974,1,0,0,1.3726,Pegmatite_rect,6,1.373,0,13,0,13,0,1,,,,,,,,,,,,,
63d6873b65a6170d64a652f6,TCN,2024-06-24_13h47.22.334,LearnStrategy,2023.2.3,Linux x86_64,60.24096386,8,1,15,0.078397737,-0.015964819,1,0,0,0.4725,rock_grid_rect_2,8,09,-1,-1,0.472,0.385131836,-0.41161499,1,0,0,2.0858,Pumice_rect,8,2.086,1,14,0,14,0,1,,,,,,,,,,,,,
63d6873b65a6170d64a652f6,TCN,2024-06-24_13h47.22.334,LearnStrategy,2023.2.3,Linux x86_64,60.24096386,8,1,16,0.057369769,-0.003007846,1,0,0,0.5579,rock_grid_rect_2,2,10,-1,-1,0.558,-0.074283572,-0.266774608,1,0,0,3.6645,Basalt_rect,2,3.665,1,15,0,15,0,1,,,,,,,,,,,,,
63d6873b65a6170d64a652f6,TCN,2024-06-24_13h47.22.334,LearnStrategy,2023.2.3,Linux x86_64,60.24096386,8,2,1,,,,,,,,8,15,,,,,,,,,,,8,0.909,1,,,,,,0.410731111,-0.399120755,1,0,0,0.9095,Pumice_rect,0,0,0,0,1,
63d6873b65a6170d64a652f6,TCN,2024-06-24_13h47.22.334,LearnStrategy,2023.2.3,Linux x86_64,60.24096386,8,2,2,,,,,,,,7,10,,,,,,,,,,,4,1.554,0,,,,,,0.361818215,-0.260296122,1,0,0,1.5541,Gabbro_rect,1,0,1,0,1,
63d6873b65a6170d64a652f6,TCN,2024-06-24_13h47.22.334,LearnStrategy,2023.2.3,Linux x86_64,60.24096386,8,2,3,,,,,,,,7,16,,,,,,,,,,,4,0.982,0,,,,,,0.352218515,-0.264460867,1,0,0,0.9819,Gabbro_rect,2,0,2,0,1,
63d6873b65a6170d64a652f6,TCN,2024-06-24_13h47.22.334,LearnStrategy,2023.2.3,Linux x86_64,60.24096386,8,2,4,,,,,,,,5,08,,,,,,,,,,,5,0.847,1,,,,,,-0.415302418,-0.419481687,1,0,0,0.8467,Obsidian_rect,3,0,3,0,1,
63d6873b65a6170d64a652f6,TCN,2024-06-24_13h47.22.334,LearnStrategy,2023.2.3,Linux x86_64,60.24096386,8,2,5,,,,,,,,3,14,,,,,,,,,,,3,0.883,1,,,,,,0.158395499,-0.256131377,1,0,0,0.883,Diorite_rect,4,0,4,0,1,
63d6873b65a6170d64a652f6,TCN,2024-06-24_13h47.22.334,LearnStrategy,2023.2.3,Linux x86_64,60.24096386,8,2,6,,,,,,,,4,13,,,,,,,,,,,7,3.949,0,,,,,,0.178509182,-0.402360026,1,0,0,3.9486,Peridotite_rect,5,0,5,0,1,
63d6873b65a6170d64a652f6,TCN,2024-06-24_13h47.22.334,LearnStrategy,2023.2.3,Linux x86_64,60.24096386,8,2,7,,,,,,,,1,07,,,,,,,,,,,3,0.867,0,,,,,,0.19130882,-0.260758916,1,0,0,0.8667,Diorite_rect,6,0,6,0,1,
63d6873b65a6170d64a652f6,TCN,2024-06-24_13h47.22.334,LearnStrategy,2023.2.3,Linux x86_64,60.24096386,8,2,8,,,,,,,,5,06,,,,,,,,,,,5,0.821,1,,,,,,-0.413473906,-0.412077727,1,0,0,0.8211,Obsidian_rect,7,0,7,0,1,
63d6873b65a6170d64a652f6,TCN,2024-06-24_13h47.22.334,LearnStrategy,2023.2.3,Linux x86_64,60.24096386,8,2,9,,,,,,,,2,11,,,,,,,,,,,8,0.973,0,,,,,,0.379646245,-0.407912982,1,0,0,0.9728,Pumice_rect,8,0,8,0,1,
63d6873b65a6170d64a652f6,TCN,2024-06-24_13h47.22.334,LearnStrategy,2023.2.3,Linux x86_64,60.24096386,8,2,10,,,,,,,,8,08,,,,,,,,,,,8,2.18,1,,,,,,0.396102905,-0.394493273,1,0,0,2.1802,Pumice_rect,9,0,9,0,1,
63d6873b65a6170d64a652f6,TCN,2024-06-24_13h47.22.334,LearnStrategy,2023.2.3,Linux x86_64,60.24096386,8,2,11,,,,,,,,1,03,,,,,,,,,,,3,0.971,0,,,,,,0.18170912,-0.266774608,1,0,0,0.9706,Diorite_rect,10,0,10,0,1,
63d6873b65a6170d64a652f6,TCN,2024-06-24_13h47.22.334,LearnStrategy,2023.2.3,Linux x86_64,60.24096386,8,2,12,,,,,,,,2,08,,,,,,,,,,,2,1.172,1,,,,,,-0.215993811,-0.25659417,1,0,0,1.1718,Basalt_rect,11,0,11,0,1,
63d6873b65a6170d64a652f6,TCN,2024-06-24_13h47.22.334,LearnStrategy,2023.2.3,Linux x86_64,60.24096386,8,2,13,,,,,,,,6,13,,,,,,,,,,,6,1.106,1,,,,,,-0.180337694,-0.391254058,1,0,0,1.1064,Pegmatite_rect,12,0,12,0,1,
63d6873b65a6170d64a652f6,TCN,2024-06-24_13h47.22.334,LearnStrategy,2023.2.3,Linux x86_64,60.24096386,8,2,14,,,,,,,,3,09,,,,,,,,,,,3,0.91,1,,,,,,0.18993745,-0.24826468,1,0,0,0.9097,Diorite_rect,13,0,13,0,1,
63d6873b65a6170d64a652f6,TCN,2024-06-24_13h47.22.334,LearnStrategy,2023.2.3,Linux x86_64,60.24096386,8,2,15,,,,,,,,4,14,,,,,,,,,,,4,1.78,1,,,,,,0.389703143,-0.270939354,1,0,0,1.78,Gabbro_rect,14,0,14,0,1,
63d6873b65a6170d64a652f6,TCN,2024-06-24_13h47.22.334,LearnStrategy,2023.2.3,Linux x86_64,60.24096386,8,2,16,,,,,,,,6,09,,,,,,,,,,,6,1.016,1,,,,,,-0.202737088,-0.400046228,1,0,0,1.016,Pegmatite_rect,15,0,15,0,1,
63d6873b65a6170d64a652f6,TCN,2024-06-24_13h47.22.334,LearnStrategy,2023.2.3,Linux x86_64,60.24096386,9,1,1,0.071540776,-0.004396114,1,0,0,0.5273,rock_grid_rect_2,3,15,-1,-1,0.527,0.323419302,-0.262609863,1,0,0,2.3916,Gabbro_rect,4,2.392,0,0,0,0,0,1,,,,,,,,,,,,,
63d6873b65a6170d64a652f6,TCN,2024-06-24_13h47.22.334,LearnStrategy,2023.2.3,Linux x86_64,60.24096386,9,1,2,0.070169406,-0.005784324,1,0,0,0.6297,rock_grid_rect_2,4,15,-1,-1,0.63,0.160223954,-0.247339206,1,0,0,1.2071,Diorite_rect,3,1.207,0,1,0,1,0,1,,,,,,,,,,,,,
63d6873b65a6170d64a652f6,TCN,2024-06-24_13h47.22.334,LearnStrategy,2023.2.3,Linux x86_64,60.24096386,9,1,3,0.092568744,-0.016427556,1,0,0,0.4909,rock_grid_rect_2,6,05,-1,-1,0.491,-0.18170912,-0.405136504,1,0,0,1.1947,Pegmatite_rect,6,1.195,1,2,0,2,0,1,,,,,,,,,,,,,
63d6873b65a6170d64a652f6,TCN,2024-06-24_13h47.22.334,LearnStrategy,2023.2.3,Linux x86_64,60.24096386,9,1,4,0.082511958,-0.006709855,1,0,0,0.4698,rock_grid_rect_2,6,10,-1,-1,0.47,-0.199994292,-0.406987508,1,0,0,1.0221,Pegmatite_rect,6,1.022,1,3,0,3,0,1,,,,,,,,,,,,,
63d6873b65a6170d64a652f6,TCN,2024-06-24_13h47.22.334,LearnStrategy,2023.2.3,Linux x86_64,60.24096386,9,1,5,0.085254697,-0.009486333,1,0,0,0.4531,rock_grid_rect_2,5,14,-1,-1,0.453,-0.381931955,-0.399120755,1,0,0,0.9052,Obsidian_rect,5,0.905,1,4,0,4,0,1,,,,,,,,,,,,,
63d6873b65a6170d64a652f6,TCN,2024-06-24_13h47.22.334,LearnStrategy,2023.2.3,Linux x86_64,60.24096386,9,1,6,0.070626492,-0.009486333,1,0,0,0.4479,rock_grid_rect_2,2,14,-1,-1,0.448,-0.186737513,-0.268162876,1,0,0,1.0485,Basalt_rect,2,1.049,1,5,0,5,0,1,,,,,,,,,,,,,
63d6873b65a6170d64a652f6,TCN,2024-06-24_13h47.22.334,LearnStrategy,2023.2.3,Linux x86_64,60.24096386,9,1,7,0.096225767,-0.015039345,1,0,0,0.4725,rock_grid_rect_2,1,09,-1,-1,0.472,-0.374617852,-0.247801943,1,0,0,0.7553,Andesite_rect,1,0.755,1,6,0,6,0,1,,,,,,,,,,,,,
63d6873b65a6170d64a652f6,TCN,2024-06-24_13h47.22.334,LearnStrategy,2023.2.3,Linux x86_64,60.24096386,9,1,8,0.082969044,-0.016427556,1,0,0,0.5067,rock_grid_rect_2,1,16,-1,-1,0.507,0.157024129,-0.257056907,1,0,0,1.1868,Diorite_rect,3,1.187,0,7,0,7,0,1,,,,,,,,,,,,,
63d6873b65a6170d64a652f6,TCN,2024-06-24_13h47.22.334,LearnStrategy,2023.2.3,Linux x86_64,60.24096386,9,1,9,0.109025404,-0.0108746,1,0,0,0.558,rock_grid_rect_2,3,11,-1,-1,0.558,0.194965843,-0.243174461,1,0,0,0.7872,Diorite_rect,3,0.787,1,8,0,8,0,1,,,,,,,,,,,,,
63d6873b65a6170d64a652f6,TCN,2024-06-24_13h47.22.334,LearnStrategy,2023.2.3,Linux x86_64,60.24096386,9,1,10,0.083883328,-0.016427556,1,0,0,0.4415,rock_grid_rect_2,8,13,-1,-1,0.441,0.308334012,-0.397269751,1,0,0,0.8093,Pumice_rect,8,0.809,1,9,0,9,0,1,,,,,,,,,,,,,
63d6873b65a6170d64a652f6,TCN,2024-06-24_13h47.22.334,LearnStrategy,2023.2.3,Linux x86_64,60.24096386,9,1,11,0.03314192,-0.008560859,1,0,0,0.4255,rock_grid_rect_2,8,06,-1,-1,0.426,0.351304231,-0.396807014,1,0,0,1.0116,Pumice_rect,8,1.012,1,10,0,10,0,1,,,,,,,,,,,,,
63d6873b65a6170d64a652f6,TCN,2024-06-24_13h47.22.334,LearnStrategy,2023.2.3,Linux x86_64,60.24096386,9,1,12,0.089368919,-0.005784324,1,0,0,0.8279,rock_grid_rect_2,2,12,-1,-1,0.828,-0.071083691,-0.262609863,1,0,0,1.1974,Basalt_rect,2,1.197,1,11,0,11,0,1,,,,,,,,,,,,,
63d6873b65a6170d64a652f6,TCN,2024-06-24_13h47.22.334,LearnStrategy,2023.2.3,Linux x86_64,60.24096386,9,1,13,0.059198281,-0.001619636,1,0,0,0.4589,rock_grid_rect_2,4,11,-1,-1,0.459,-0.38604612,-0.250578421,1,0,0,1.9463,Andesite_rect,1,1.946,0,12,0,12,0,1,,,,,,,,,,,,,
63d6873b65a6170d64a652f6,TCN,2024-06-24_13h47.22.334,LearnStrategy,2023.2.3,Linux x86_64,60.24096386,9,1,14,0.061026792,0.015964819,1,0,0,0.5248,rock_grid_rect_2,7,12,-1,-1,0.525,0.355418453,-0.26908835,1,0,0,1.1338,Gabbro_rect,4,1.134,0,13,0,13,0,1,,,,,,,,,,,,,
63d6873b65a6170d64a652f6,TCN,2024-06-24_13h47.22.334,LearnStrategy,2023.2.3,Linux x86_64,60.24096386,9,1,15,0.064683815,-0.024294309,1,0,0,0.4901,rock_grid_rect_2,7,06,-1,-1,0.49,0.190851734,-0.41068946,1,0,0,0.9104,Peridotite_rect,7,0.91,1,14,0,14,0,1,,,,,,,,,,,,,
63d6873b65a6170d64a652f6,TCN,2024-06-24_13h47.22.334,LearnStrategy,2023.2.3,Linux x86_64,60.24096386,9,1,16,0.077026367,-0.016890293,1,0,0,0.4641,rock_grid_rect_2,5,02,-1,-1,0.464,-0.406159804,-0.393567799,1,0,0,0.8153,Obsidian_rect,5,0.815,1,15,0,15,0,1,,,,,,,,,,,,,
63d6873b65a6170d64a652f6,TCN,2024-06-24_13h47.22.334,LearnStrategy,2023.2.3,Linux x86_64,60.24096386,9,2,1,,,,,,,,1,02,,,,,,,,,,,2,4.017,0,,,,,,-0.19130882,-0.243174461,1,0,0,4.0172,Basalt_rect,0,0,0,0,1,
63d6873b65a6170d64a652f6,TCN,2024-06-24_13h47.22.334,LearnStrategy,2023.2.3,Linux x86_64,60.24096386,9,2,2,,,,,,,,3,06,,,,,,,,,,,4,1.084,0,,,,,,0.381017727,-0.246413676,1,0,0,1.0839,Gabbro_rect,1,0,1,0,1,
63d6873b65a6170d64a652f6,TCN,2024-06-24_13h47.22.334,LearnStrategy,2023.2.3,Linux x86_64,60.24096386,9,2,3,,,,,,,,4,16,,,,,,,,,,,2,1.203,0,,,,,,-0.067883753,-0.257982381,1,0,0,1.2029,Basalt_rect,2,0,2,0,1,
63d6873b65a6170d64a652f6,TCN,2024-06-24_13h47.22.334,LearnStrategy,2023.2.3,Linux x86_64,60.24096386,9,2,4,,,,,,,,8,03,,,,,,,,,,,8,1.588,1,,,,,,0.418959441,-0.401434496,1,0,0,1.5875,Pumice_rect,3,0,3,0,1,
63d6873b65a6170d64a652f6,TCN,2024-06-24_13h47.22.334,LearnStrategy,2023.2.3,Linux x86_64,60.24096386,9,2,5,,,,,,,,7,08,,,,,,,,,,,7,1.742,1,,,,,,0.161595323,-0.390328527,1,0,0,1.7418,Peridotite_rect,4,0,4,0,1,
63d6873b65a6170d64a652f6,TCN,2024-06-24_13h47.22.334,LearnStrategy,2023.2.3,Linux x86_64,60.24096386,9,2,6,,,,,,,,2,02,,,,,,,,,,,2,0.974,1,,,,,,-0.086168981,-0.257056907,1,0,0,0.9736,Basalt_rect,5,0,5,0,1,
63d6873b65a6170d64a652f6,TCN,2024-06-24_13h47.22.334,LearnStrategy,2023.2.3,Linux x86_64,60.24096386,9,2,7,,,,,,,,5,09,,,,,,,,,,,5,1.104,1,,,,,,-0.347647208,-0.385701045,1,0,0,1.1036,Obsidian_rect,6,0,6,0,1,
63d6873b65a6170d64a652f6,TCN,2024-06-24_13h47.22.334,LearnStrategy,2023.2.3,Linux x86_64,60.24096386,9,2,8,,,,,,,,6,16,,,,,,,,,,,6,3.138,1,,,,,,-0.085254697,-0.397732487,1,0,0,3.1384,Pegmatite_rect,7,0,7,0,1,
63d6873b65a6170d64a652f6,TCN,2024-06-24_13h47.22.334,LearnStrategy,2023.2.3,Linux x86_64,60.24096386,9,2,9,,,,,,,,8,14,,,,,,,,,,,8,1.109,1,,,,,,0.35404697,-0.393105005,1,0,0,1.1089,Pumice_rect,8,0,8,0,1,
63d6873b65a6170d64a652f6,TCN,2024-06-24_13h47.22.334,LearnStrategy,2023.2.3,Linux x86_64,60.24096386,9,2,10,,,,,,,,5,11,,,,,,,,,,,5,1.111,1,,,,,,-0.359989703,-0.403748237,1,0,0,1.1107,Obsidian_rect,9,0,9,0,1,
63d6873b65a6170d64a652f6,TCN,2024-06-24_13h47.22.334,LearnStrategy,2023.2.3,Linux x86_64,60.24096386,9,2,11,,,,,,,,4,03,,,,,,,,,,,3,2.141,0,,,,,,0.145138663,-0.266311872,1,0,0,2.1407,Diorite_rect,10,0,10,0,1,
63d6873b65a6170d64a652f6,TCN,2024-06-24_13h47.22.334,LearnStrategy,2023.2.3,Linux x86_64,60.24096386,9,2,12,,,,,,,,7,04,,,,,,,,,,,7,2.115,1,,,,,,0.147881515,-0.413928731,1,0,0,2.1148,Peridotite_rect,11,0,11,0,1,
63d6873b65a6170d64a652f6,TCN,2024-06-24_13h47.22.334,LearnStrategy,2023.2.3,Linux x86_64,60.24096386,9,2,13,,,,,,,,1,01,,,,,,,,,,,7,1.768,0,,,,,,0.173023591,-0.408375719,1,0,0,1.7681,Peridotite_rect,12,0,12,0,1,
63d6873b65a6170d64a652f6,TCN,2024-06-24_13h47.22.334,LearnStrategy,2023.2.3,Linux x86_64,60.24096386,9,2,14,,,,,,,,2,04,,,,,,,,,,,2,1.144,1,,,,,,-0.070626548,-0.246876413,1,0,0,1.1443,Basalt_rect,13,0,13,0,1,
63d6873b65a6170d64a652f6,TCN,2024-06-24_13h47.22.334,LearnStrategy,2023.2.3,Linux x86_64,60.24096386,9,2,15,,,,,,,,6,15,,,,,,,,,,,6,0.939,1,,,,,,-0.063769588,-0.400046228,1,0,0,0.9394,Pegmatite_rect,14,0,14,0,1,
63d6873b65a6170d64a652f6,TCN,2024-06-24_13h47.22.334,LearnStrategy,2023.2.3,Linux x86_64,60.24096386,9,2,16,,,,,,,,3,10,,,,,,,,,,,4,1.072,0,,,,,,0.366846607,-0.256131377,1,0,0,1.0723,Gabbro_rect,15,0,15,0,1,
63d6873b65a6170d64a652f6,TCN,2024-06-24_13h47.22.334,LearnStrategy,2023.2.3,Linux x86_64,60.24096386,,,,,,,,,,,,,,,,,,,,,,,,,,,,,,,,,,,,,,,,,,,1
63d6873b65a6170d64a652f6,TCN,2024-06-24_13h47.22.334,LearnStrategy,2023.2.3,Linux x86_64,60.24096386,,,,,,,,,,,,,,,,,,,,,,,,,,,,,,,,,,,,,,,,,,,
63d6873b65a6170d64a652f6,TCN,2024-06-24_13h47.22.334,LearnStrategy,2023.2.3,Linux x86_64,60.24096386,,,,,,,,,,,5,10,1,1,,,,,,,,,,,,,,,,,,,,,,,,,,,,,
63d6873b65a6170d64a652f6,TCN,2024-06-24_13h47.22.334,LearnStrategy,2023.2.3,Linux x86_64,60.24096386,,,,,,,,,,,8,02,1,2,,,,,,,,,,,,,,,,,,,,,,,,,,,,,
63d6873b65a6170d64a652f6,TCN,2024-06-24_13h47.22.334,LearnStrategy,2023.2.3,Linux x86_64,60.24096386,,,,,,,,,,,5,05,1,3,,,,,,,,,,,,,,,,,,,,,,,,,,,,,
63d6873b65a6170d64a652f6,TCN,2024-06-24_13h47.22.334,LearnStrategy,2023.2.3,Linux x86_64,60.24096386,,,,,,,,,,,3,16,1,4,,,,,,,,,,,,,,,,,,,,,,,,,,,,,
63d6873b65a6170d64a652f6,TCN,2024-06-24_13h47.22.334,LearnStrategy,2023.2.3,Linux x86_64,60.24096386,,,,,,,,,,,6,10,1,5,,,,,,,,,,,,,,,,,,,,,,,,,,,,,
63d6873b65a6170d64a652f6,TCN,2024-06-24_13h47.22.334,LearnStrategy,2023.2.3,Linux x86_64,60.24096386,,,,,,,,,,,8,10,1,6,,,,,,,,,,,,,,,,,,,,,,,,,,,,,
63d6873b65a6170d64a652f6,TCN,2024-06-24_13h47.22.334,LearnStrategy,2023.2.3,Linux x86_64,60.24096386,,,,,,,,,,,5,02,1,7,,,,,,,,,,,,,,,,,,,,,,,,,,,,,
63d6873b65a6170d64a652f6,TCN,2024-06-24_13h47.22.334,LearnStrategy,2023.2.3,Linux x86_64,60.24096386,,,,,,,,,,,8,13,1,8,,,,,,,,,,,,,,,,,,,,,,,,,,,,,
63d6873b65a6170d64a652f6,TCN,2024-06-24_13h47.22.334,LearnStrategy,2023.2.3,Linux x86_64,60.24096386,,,,,,,,,,,3,11,2,1,,,,,,,,,,,,,,,,,,,,,,,,,,,,,
63d6873b65a6170d64a652f6,TCN,2024-06-24_13h47.22.334,LearnStrategy,2023.2.3,Linux x86_64,60.24096386,,,,,,,,,,,6,11,2,2,,,,,,,,,,,,,,,,,,,,,,,,,,,,,
63d6873b65a6170d64a652f6,TCN,2024-06-24_13h47.22.334,LearnStrategy,2023.2.3,Linux x86_64,60.24096386,,,,,,,,,,,1,09,2,3,,,,,,,,,,,,,,,,,,,,,,,,,,,,,
63d6873b65a6170d64a652f6,TCN,2024-06-24_13h47.22.334,LearnStrategy,2023.2.3,Linux x86_64,60.24096386,,,,,,,,,,,2,01,2,4,,,,,,,,,,,,,,,,,,,,,,,,,,,,,
63d6873b65a6170d64a652f6,TCN,2024-06-24_13h47.22.334,LearnStrategy,2023.2.3,Linux x86_64,60.24096386,,,,,,,,,,,1,16,2,5,,,,,,,,,,,,,,,,,,,,,,,,,,,,,
63d6873b65a6170d64a652f6,TCN,2024-06-24_13h47.22.334,LearnStrategy,2023.2.3,Linux x86_64,60.24096386,,,,,,,,,,,7,02,2,6,,,,,,,,,,,,,,,,,,,,,,,,,,,,,
63d6873b65a6170d64a652f6,TCN,2024-06-24_13h47.22.334,LearnStrategy,2023.2.3,Linux x86_64,60.24096386,,,,,,,,,,,1,10,2,7,,,,,,,,,,,,,,,,,,,,,,,,,,,,,
63d6873b65a6170d64a652f6,TCN,2024-06-24_13h47.22.334,LearnStrategy,2023.2.3,Linux x86_64,60.24096386,,,,,,,,,,,6,12,2,8,,,,,,,,,,,,,,,,,,,,,,,,,,,,,
63d6873b65a6170d64a652f6,TCN,2024-06-24_13h47.22.334,LearnStrategy,2023.2.3,Linux x86_64,60.24096386,,,,,,,,,,,6,07,3,1,,,,,,,,,,,,,,,,,,,,,,,,,,,,,
63d6873b65a6170d64a652f6,TCN,2024-06-24_13h47.22.334,LearnStrategy,2023.2.3,Linux x86_64,60.24096386,,,,,,,,,,,6,08,3,2,,,,,,,,,,,,,,,,,,,,,,,,,,,,,
63d6873b65a6170d64a652f6,TCN,2024-06-24_13h47.22.334,LearnStrategy,2023.2.3,Linux x86_64,60.24096386,,,,,,,,,,,4,08,3,3,,,,,,,,,,,,,,,,,,,,,,,,,,,,,
63d6873b65a6170d64a652f6,TCN,2024-06-24_13h47.22.334,LearnStrategy,2023.2.3,Linux x86_64,60.24096386,,,,,,,,,,,2,12,3,4,,,,,,,,,,,,,,,,,,,,,,,,,,,,,
63d6873b65a6170d64a652f6,TCN,2024-06-24_13h47.22.334,LearnStrategy,2023.2.3,Linux x86_64,60.24096386,,,,,,,,,,,6,05,3,5,,,,,,,,,,,,,,,,,,,,,,,,,,,,,
63d6873b65a6170d64a652f6,TCN,2024-06-24_13h47.22.334,LearnStrategy,2023.2.3,Linux x86_64,60.24096386,,,,,,,,,,,1,05,3,6,,,,,,,,,,,,,,,,,,,,,,,,,,,,,
63d6873b65a6170d64a652f6,TCN,2024-06-24_13h47.22.334,LearnStrategy,2023.2.3,Linux x86_64,60.24096386,,,,,,,,,,,2,10,3,7,,,,,,,,,,,,,,,,,,,,,,,,,,,,,
63d6873b65a6170d64a652f6,TCN,2024-06-24_13h47.22.334,LearnStrategy,2023.2.3,Linux x86_64,60.24096386,,,,,,,,,,,4,10,3,8,,,,,,,,,,,,,,,,,,,,,,,,,,,,,
63d6873b65a6170d64a652f6,TCN,2024-06-24_13h47.22.334,LearnStrategy,2023.2.3,Linux x86_64,60.24096386,,,,,,,,,,,3,07,4,1,,,,,,,,,,,,,,,,,,,,,,,,,,,,,
63d6873b65a6170d64a652f6,TCN,2024-06-24_13h47.22.334,LearnStrategy,2023.2.3,Linux x86_64,60.24096386,,,,,,,,,,,3,13,4,2,,,,,,,,,,,,,,,,,,,,,,,,,,,,,
63d6873b65a6170d64a652f6,TCN,2024-06-24_13h47.22.334,LearnStrategy,2023.2.3,Linux x86_64,60.24096386,,,,,,,,,,,5,12,4,3,,,,,,,,,,,,,,,,,,,,,,,,,,,,,
63d6873b65a6170d64a652f6,TCN,2024-06-24_13h47.22.334,LearnStrategy,2023.2.3,Linux x86_64,60.24096386,,,,,,,,,,,4,11,4,4,,,,,,,,,,,,,,,,,,,,,,,,,,,,,
63d6873b65a6170d64a652f6,TCN,2024-06-24_13h47.22.334,LearnStrategy,2023.2.3,Linux x86_64,60.24096386,,,,,,,,,,,2,06,4,5,,,,,,,,,,,,,,,,,,,,,,,,,,,,,
63d6873b65a6170d64a652f6,TCN,2024-06-24_13h47.22.334,LearnStrategy,2023.2.3,Linux x86_64,60.24096386,,,,,,,,,,,7,06,4,6,,,,,,,,,,,,,,,,,,,,,,,,,,,,,
63d6873b65a6170d64a652f6,TCN,2024-06-24_13h47.22.334,LearnStrategy,2023.2.3,Linux x86_64,60.24096386,,,,,,,,,,,7,14,4,7,,,,,,,,,,,,,,,,,,,,,,,,,,,,,
63d6873b65a6170d64a652f6,TCN,2024-06-24_13h47.22.334,LearnStrategy,2023.2.3,Linux x86_64,60.24096386,,,,,,,,,,,7,12,4,8,,,,,,,,,,,,,,,,,,,,,,,,,,,,,
63d6873b65a6170d64a652f6,TCN,2024-06-24_13h47.22.334,LearnStrategy,2023.2.3,Linux x86_64,60.24096386,,,,,,,,,,,3,12,5,1,,,,,,,,,,,,,,,,,,,,,,,,,,,,,
63d6873b65a6170d64a652f6,TCN,2024-06-24_13h47.22.334,LearnStrategy,2023.2.3,Linux x86_64,60.24096386,,,,,,,,,,,5,14,5,2,,,,,,,,,,,,,,,,,,,,,,,,,,,,,
63d6873b65a6170d64a652f6,TCN,2024-06-24_13h47.22.334,LearnStrategy,2023.2.3,Linux x86_64,60.24096386,,,,,,,,,,,1,11,5,3,,,,,,,,,,,,,,,,,,,,,,,,,,,,,
63d6873b65a6170d64a652f6,TCN,2024-06-24_13h47.22.334,LearnStrategy,2023.2.3,Linux x86_64,60.24096386,,,,,,,,,,,7,07,5,4,,,,,,,,,,,,,,,,,,,,,,,,,,,,,
63d6873b65a6170d64a652f6,TCN,2024-06-24_13h47.22.334,LearnStrategy,2023.2.3,Linux x86_64,60.24096386,,,,,,,,,,,5,16,5,5,,,,,,,,,,,,,,,,,,,,,,,,,,,,,
63d6873b65a6170d64a652f6,TCN,2024-06-24_13h47.22.334,LearnStrategy,2023.2.3,Linux x86_64,60.24096386,,,,,,,,,,,3,15,5,6,,,,,,,,,,,,,,,,,,,,,,,,,,,,,
63d6873b65a6170d64a652f6,TCN,2024-06-24_13h47.22.334,LearnStrategy,2023.2.3,Linux x86_64,60.24096386,,,,,,,,,,,8,09,5,7,,,,,,,,,,,,,,,,,,,,,,,,,,,,,
63d6873b65a6170d64a652f6,TCN,2024-06-24_13h47.22.334,LearnStrategy,2023.2.3,Linux x86_64,60.24096386,,,,,,,,,,,4,12,5,8,,,,,,,,,,,,,,,,,,,,,,,,,,,,,
63d6873b65a6170d64a652f6,TCN,2024-06-24_13h47.22.334,LearnStrategy,2023.2.3,Linux x86_64,60.24096386,,,,,,,,,,,4,15,6,1,,,,,,,,,,,,,,,,,,,,,,,,,,,,,
63d6873b65a6170d64a652f6,TCN,2024-06-24_13h47.22.334,LearnStrategy,2023.2.3,Linux x86_64,60.24096386,,,,,,,,,,,1,04,6,2,,,,,,,,,,,,,,,,,,,,,,,,,,,,,
63d6873b65a6170d64a652f6,TCN,2024-06-24_13h47.22.334,LearnStrategy,2023.2.3,Linux x86_64,60.24096386,,,,,,,,,,,8,06,6,3,,,,,,,,,,,,,,,,,,,,,,,,,,,,,
63d6873b65a6170d64a652f6,TCN,2024-06-24_13h47.22.334,LearnStrategy,2023.2.3,Linux x86_64,60.24096386,,,,,,,,,,,2,05,6,4,,,,,,,,,,,,,,,,,,,,,,,,,,,,,
63d6873b65a6170d64a652f6,TCN,2024-06-24_13h47.22.334,LearnStrategy,2023.2.3,Linux x86_64,60.24096386,,,,,,,,,,,8,05,6,5,,,,,,,,,,,,,,,,,,,,,,,,,,,,,
63d6873b65a6170d64a652f6,TCN,2024-06-24_13h47.22.334,LearnStrategy,2023.2.3,Linux x86_64,60.24096386,,,,,,,,,,,7,15,6,6,,,,,,,,,,,,,,,,,,,,,,,,,,,,,
63d6873b65a6170d64a652f6,TCN,2024-06-24_13h47.22.334,LearnStrategy,2023.2.3,Linux x86_64,60.24096386,,,,,,,,,,,4,01,6,7,,,,,,,,,,,,,,,,,,,,,,,,,,,,,
63d6873b65a6170d64a652f6,TCN,2024-06-24_13h47.22.334,LearnStrategy,2023.2.3,Linux x86_64,60.24096386,,,,,,,,,,,2,14,6,8,,,,,,,,,,,,,,,,,,,,,,,,,,,,,