participant,condition,date,expName,psychopyVersion,OS,frameRate,block,phase,trial,learn_mouse_2.x,learn_mouse_2.y,learn_mouse_2.leftButton,learn_mouse_2.midButton,learn_mouse_2.rightButton,learn_mouse_2.time,learn_mouse_2.clicked_name,cat,token,row,col,t_select,cat_mouse_l.x,cat_mouse_l.y,cat_mouse_l.leftButton,cat_mouse_l.midButton,cat_mouse_l.rightButton,cat_mouse_l.time,cat_mouse_l.clicked_name,resp,t_resp,corr,train_trials.thisRepN,train_trials.thisTrialN,train_trials.thisN,train_trials.thisIndex,train_trials.ran,cat_mouse_t.x,cat_mouse_t.y,cat_mouse_t.leftButton,cat_mouse_t.midButton,cat_mouse_t.rightButton,cat_mouse_t.time,cat_mouse_t.clicked_name,test_trials.thisRepN,test_trials.thisTrialN,test_trials.thisN,test_trials.thisIndex,test_trials.ran,Bonus
63e7f2a754618d35c2b61ba5,TCN,2024-06-11_13h09.57.865,LearnStrategy,2023.2.3,Win32,60.97560976,,,,,,,,,,,,,,,,,,,,,,,,,,,,,,,,,,,,,,,,,,,
63e7f2a754618d35c2b61ba5,TCN,2024-06-11_13h09.57.865,LearnStrategy,2023.2.3,Win32,60.97560976,1,1,1,-0.00462963,0.005555556,1,0,0,6.4492,rock_grid_rect_2,2,10,-1,-1,6.449,-0.111111111,-0.251851852,1,0,0,5.7916,Basalt_rect,2,5.792,1,0,0,0,0,1,,,,,,,,,,,,,
63e7f2a754618d35c2b61ba5,TCN,2024-06-11_13h09.57.865,LearnStrategy,2023.2.3,Win32,60.97560976,1,1,2,-0.006481481,0.002777778,1,0,0,3.0903,rock_grid_rect_2,6,7,-1,-1,3.09,-0.364814815,-0.24537037,1,0,0,7.6944,Andesite_rect,1,7.694,0,1,0,1,0,1,,,,,,,,,,,,,
63e7f2a754618d35c2b61ba5,TCN,2024-06-11_13h09.57.865,LearnStrategy,2023.2.3,Win32,60.97560976,1,1,3,0.017592593,0.003703704,1,0,0,1.6032,rock_grid_rect_2,5,7,-1,-1,1.603,0.116666667,-0.25462963,1,0,0,6.9314,Diorite_rect,3,6.931,0,2,0,2,0,1,,,,,,,,,,,,,
63e7f2a754618d35c2b61ba5,TCN,2024-06-11_13h09.57.865,LearnStrategy,2023.2.3,Win32,60.97560976,1,1,4,-0.026851852,0.010185185,1,0,0,2.4142,rock_grid_rect_2,7,15,-1,-1,2.414,-0.384259259,-0.240740741,1,0,0,6.529,Andesite_rect,1,6.529,0,3,0,3,0,1,,,,,,,,,,,,,
63e7f2a754618d35c2b61ba5,TCN,2024-06-11_13h09.57.865,LearnStrategy,2023.2.3,Win32,60.97560976,1,1,5,0.011111111,-0.005555556,1,0,0,3.366,rock_grid_rect_2,3,9,-1,-1,3.366,0.15462963,-0.246296296,1,0,0,3.9436,Diorite_rect,3,3.944,1,4,0,4,0,1,,,,,,,,,,,,,
63e7f2a754618d35c2b61ba5,TCN,2024-06-11_13h09.57.865,LearnStrategy,2023.2.3,Win32,60.97560976,1,1,6,-0.008333333,0.001851852,1,0,0,2.3521,rock_grid_rect_2,6,13,-1,-1,2.352,0.409259259,-0.258333333,1,0,0,4.5787,Gabbro_rect,4,4.579,0,5,0,5,0,1,,,,,,,,,,,,,
63e7f2a754618d35c2b61ba5,TCN,2024-06-11_13h09.57.865,LearnStrategy,2023.2.3,Win32,60.97560976,1,1,7,-0.021296296,0.008333333,1,0,0,2.5475,rock_grid_rect_2,4,16,-1,-1,2.547,0.439814815,-0.397222222,1,0,0,6.1145,Pumice_rect,8,6.115,0,6,0,6,0,1,,,,,,,,,,,,,
63e7f2a754618d35c2b61ba5,TCN,2024-06-11_13h09.57.865,LearnStrategy,2023.2.3,Win32,60.97560976,1,1,8,-0.006481481,0.010185185,1,0,0,1.6342,rock_grid_rect_2,5,9,-1,-1,1.634,-0.403703704,-0.401851852,1,0,0,4.9301,Obsidian_rect,5,4.93,1,7,0,7,0,1,,,,,,,,,,,,,
63e7f2a754618d35c2b61ba5,TCN,2024-06-11_13h09.57.865,LearnStrategy,2023.2.3,Win32,60.97560976,1,1,9,-0.021296296,0.017592593,1,0,0,2.2484,rock_grid_rect_2,8,13,-1,-1,2.248,0.136111111,-0.260185185,1,0,0,4.9227,Diorite_rect,3,4.923,0,8,0,8,0,1,,,,,,,,,,,,,
63e7f2a754618d35c2b61ba5,TCN,2024-06-11_13h09.57.865,LearnStrategy,2023.2.3,Win32,60.97560976,1,1,10,0.002777778,-0.00462963,1,0,0,1.8632,rock_grid_rect_2,4,14,-1,-1,1.863,-0.137037037,-0.399074074,1,0,0,6.1432,Pegmatite_rect,6,6.143,0,9,0,9,0,1,,,,,,,,,,,,,
63e7f2a754618d35c2b61ba5,TCN,2024-06-11_13h09.57.865,LearnStrategy,2023.2.3,Win32,60.97560976,1,1,11,-0.02037037,0.003703704,1,0,0,3.783,rock_grid_rect_2,3,6,-1,-1,3.783,-0.10462963,-0.397222222,1,0,0,4.1666,Pegmatite_rect,6,4.167,0,10,0,10,0,1,,,,,,,,,,,,,
63e7f2a754618d35c2b61ba5,TCN,2024-06-11_13h09.57.865,LearnStrategy,2023.2.3,Win32,60.97560976,1,1,12,-0.006481481,-0.000925926,1,0,0,2.666,rock_grid_rect_2,8,2,-1,-1,2.666,0.397222222,-0.392592593,1,0,0,3.7324,Pumice_rect,8,3.732,1,11,0,11,0,1,,,,,,,,,,,,,
63e7f2a754618d35c2b61ba5,TCN,2024-06-11_13h09.57.865,LearnStrategy,2023.2.3,Win32,60.97560976,1,1,13,-0.013888889,0,1,0,0,2.2822,rock_grid_rect_2,1,11,-1,-1,2.282,0.15,-0.253703704,1,0,0,3.7385,Diorite_rect,3,3.738,0,12,0,12,0,1,,,,,,,,,,,,,
63e7f2a754618d35c2b61ba5,TCN,2024-06-11_13h09.57.865,LearnStrategy,2023.2.3,Win32,60.97560976,1,1,14,0.012962963,0.003703704,1,0,0,1.915,rock_grid_rect_2,7,6,-1,-1,1.915,-0.15,-0.233333333,1,0,0,5.8853,Basalt_rect,2,5.885,0,13,0,13,0,1,,,,,,,,,,,,,
63e7f2a754618d35c2b61ba5,TCN,2024-06-11_13h09.57.865,LearnStrategy,2023.2.3,Win32,60.97560976,1,1,15,-0.019444444,-0.005555556,1,0,0,2.5984,rock_grid_rect_2,1,1,-1,-1,2.598,-0.164814815,-0.4,1,0,0,5.0257,Pegmatite_rect,6,5.026,0,14,0,14,0,1,,,,,,,,,,,,,
63e7f2a754618d35c2b61ba5,TCN,2024-06-11_13h09.57.865,LearnStrategy,2023.2.3,Win32,60.97560976,1,1,16,0.00462963,-0.002777778,1,0,0,1.8984,rock_grid_rect_2,2,9,-1,-1,1.898,-0.109259259,-0.25462963,1,0,0,3.2894,Basalt_rect,2,3.289,1,15,0,15,0,1,,,,,,,,,,,,,
63e7f2a754618d35c2b61ba5,TCN,2024-06-11_13h09.57.865,LearnStrategy,2023.2.3,Win32,60.97560976,1,2,1,,,,,,,,1,5,,,,,,,,,,,6,3.399,0,,,,,,-0.080555556,-0.385185185,1,0,0,3.3994,Pegmatite_rect,0,0,0,0,1,
63e7f2a754618d35c2b61ba5,TCN,2024-06-11_13h09.57.865,LearnStrategy,2023.2.3,Win32,60.97560976,1,2,2,,,,,,,,2,11,,,,,,,,,,,2,4.645,1,,,,,,-0.084259259,-0.251851852,1,0,0,4.6448,Basalt_rect,1,0,1,0,1,
63e7f2a754618d35c2b61ba5,TCN,2024-06-11_13h09.57.865,LearnStrategy,2023.2.3,Win32,60.97560976,1,2,3,,,,,,,,8,3,,,,,,,,,,,8,2.851,1,,,,,,0.394444444,-0.380555556,1,0,0,2.8513,Pumice_rect,2,0,2,0,1,
63e7f2a754618d35c2b61ba5,TCN,2024-06-11_13h09.57.865,LearnStrategy,2023.2.3,Win32,60.97560976,1,2,4,,,,,,,,8,9,,,,,,,,,,,8,5.728,1,,,,,,0.373148148,-0.398148148,1,0,0,5.7275,Pumice_rect,3,0,3,0,1,
63e7f2a754618d35c2b61ba5,TCN,2024-06-11_13h09.57.865,LearnStrategy,2023.2.3,Win32,60.97560976,1,2,5,,,,,,,,2,16,,,,,,,,,,,2,1.658,1,,,,,,-0.112037037,-0.237962963,1,0,0,1.6583,Basalt_rect,4,0,4,0,1,
63e7f2a754618d35c2b61ba5,TCN,2024-06-11_13h09.57.865,LearnStrategy,2023.2.3,Win32,60.97560976,1,2,6,,,,,,,,1,9,,,,,,,,,,,1,2.325,1,,,,,,-0.387962963,-0.257407407,1,0,0,2.325,Andesite_rect,5,0,5,0,1,
63e7f2a754618d35c2b61ba5,TCN,2024-06-11_13h09.57.865,LearnStrategy,2023.2.3,Win32,60.97560976,1,2,7,,,,,,,,7,4,,,,,,,,,,,7,4.764,1,,,,,,0.130555556,-0.383333333,1,0,0,4.7638,Peridotite_rect,6,0,6,0,1,
63e7f2a754618d35c2b61ba5,TCN,2024-06-11_13h09.57.865,LearnStrategy,2023.2.3,Win32,60.97560976,1,2,8,,,,,,,,7,10,,,,,,,,,,,3,2.881,0,,,,,,0.111111111,-0.244444444,1,0,0,2.8806,Diorite_rect,7,0,7,0,1,
63e7f2a754618d35c2b61ba5,TCN,2024-06-11_13h09.57.865,LearnStrategy,2023.2.3,Win32,60.97560976,1,2,9,,,,,,,,5,8,,,,,,,,,,,5,3.434,1,,,,,,-0.380555556,-0.381481481,1,0,0,3.4336,Obsidian_rect,8,0,8,0,1,
63e7f2a754618d35c2b61ba5,TCN,2024-06-11_13h09.57.865,LearnStrategy,2023.2.3,Win32,60.97560976,1,2,10,,,,,,,,6,3,,,,,,,,,,,1,2.659,0,,,,,,-0.365740741,-0.244444444,1,0,0,2.6587,Andesite_rect,9,0,9,0,1,
63e7f2a754618d35c2b61ba5,TCN,2024-06-11_13h09.57.865,LearnStrategy,2023.2.3,Win32,60.97560976,1,2,11,,,,,,,,3,10,,,,,,,,,,,4,3.409,0,,,,,,0.45,-0.239814815,1,0,0,3.4085,Gabbro_rect,10,0,10,0,1,
63e7f2a754618d35c2b61ba5,TCN,2024-06-11_13h09.57.865,LearnStrategy,2023.2.3,Win32,60.97560976,1,2,12,,,,,,,,5,2,,,,,,,,,,,5,2.16,1,,,,,,-0.384259259,-0.401851852,1,0,0,2.1603,Obsidian_rect,11,0,11,0,1,
63e7f2a754618d35c2b61ba5,TCN,2024-06-11_13h09.57.865,LearnStrategy,2023.2.3,Win32,60.97560976,1,2,13,,,,,,,,4,11,,,,,,,,,,,2,2.258,0,,,,,,-0.1,-0.233333333,1,0,0,2.2584,Basalt_rect,12,0,12,0,1,
63e7f2a754618d35c2b61ba5,TCN,2024-06-11_13h09.57.865,LearnStrategy,2023.2.3,Win32,60.97560976,1,2,14,,,,,,,,4,3,,,,,,,,,,,6,3.503,0,,,,,,-0.075,-0.42037037,1,0,0,3.5031,Pegmatite_rect,13,0,13,0,1,
63e7f2a754618d35c2b61ba5,TCN,2024-06-11_13h09.57.865,LearnStrategy,2023.2.3,Win32,60.97560976,1,2,15,,,,,,,,6,10,,,,,,,,,,,1,4.817,0,,,,,,-0.348148148,-0.257407407,1,0,0,4.817,Andesite_rect,14,0,14,0,1,
63e7f2a754618d35c2b61ba5,TCN,2024-06-11_13h09.57.865,LearnStrategy,2023.2.3,Win32,60.97560976,1,2,16,,,,,,,,3,15,,,,,,,,,,,4,2.977,0,,,,,,0.386111111,-0.238888889,1,0,0,2.9767,Gabbro_rect,15,0,15,0,1,
63e7f2a754618d35c2b61ba5,TCN,2024-06-11_13h09.57.865,LearnStrategy,2023.2.3,Win32,60.97560976,2,1,1,-0.036111111,-0.002777778,1,0,0,1.7837,rock_grid_rect_2,4,14,-1,-1,1.784,-0.072222222,-0.230555556,1,0,0,6.0388,Basalt_rect,2,6.039,0,0,0,0,0,1,,,,,,,,,,,,,
63e7f2a754618d35c2b61ba5,TCN,2024-06-11_13h09.57.865,LearnStrategy,2023.2.3,Win32,60.97560976,2,1,2,0.030555556,0.013888889,1,0,0,1.3634,rock_grid_rect_2,7,5,-1,-1,1.363,-0.374074074,-0.246296296,1,0,0,3.0144,Andesite_rect,1,3.014,0,1,0,1,0,1,,,,,,,,,,,,,
63e7f2a754618d35c2b61ba5,TCN,2024-06-11_13h09.57.865,LearnStrategy,2023.2.3,Win32,60.97560976,2,1,3,0.001851852,-0.001851852,1,0,0,1.3964,rock_grid_rect_2,1,14,-1,-1,1.396,-0.096296296,-0.400925926,1,0,0,3.0187,Pegmatite_rect,6,3.019,0,2,0,2,0,1,,,,,,,,,,,,,
63e7f2a754618d35c2b61ba5,TCN,2024-06-11_13h09.57.865,LearnStrategy,2023.2.3,Win32,60.97560976,2,1,4,0.031481481,0.002777778,1,0,0,1.3534,rock_grid_rect_2,2,9,-1,-1,1.353,-0.124074074,-0.25462963,1,0,0,1.7207,Basalt_rect,2,1.721,1,3,0,3,0,1,,,,,,,,,,,,,
63e7f2a754618d35c2b61ba5,TCN,2024-06-11_13h09.57.865,LearnStrategy,2023.2.3,Win32,60.97560976,2,1,5,-0.011111111,-0.016666667,1,0,0,1.365,rock_grid_rect_2,7,15,-1,-1,1.365,-0.153703704,-0.405555556,1,0,0,2.5206,Pegmatite_rect,6,2.521,0,4,0,4,0,1,,,,,,,,,,,,,
63e7f2a754618d35c2b61ba5,TCN,2024-06-11_13h09.57.865,LearnStrategy,2023.2.3,Win32,60.97560976,2,1,6,0.05,-0.013888889,1,0,0,1.4482,rock_grid_rect_2,3,12,-1,-1,1.448,-0.15,-0.394444444,1,0,0,2.058,Pegmatite_rect,6,2.058,0,5,0,5,0,1,,,,,,,,,,,,,
63e7f2a754618d35c2b61ba5,TCN,2024-06-11_13h09.57.865,LearnStrategy,2023.2.3,Win32,60.97560976,2,1,7,0.027777778,-0.013888889,1,0,0,1.4495,rock_grid_rect_2,6,13,-1,-1,1.45,0.138888889,-0.241666667,1,0,0,2.4627,Diorite_rect,3,2.463,0,6,0,6,0,1,,,,,,,,,,,,,
63e7f2a754618d35c2b61ba5,TCN,2024-06-11_13h09.57.865,LearnStrategy,2023.2.3,Win32,60.97560976,2,1,8,0.042592593,0,1,0,0,1.2973,rock_grid_rect_2,3,2,-1,-1,1.297,-0.15,-0.380555556,1,0,0,2.0417,Pegmatite_rect,6,2.042,0,7,0,7,0,1,,,,,,,,,,,,,
63e7f2a754618d35c2b61ba5,TCN,2024-06-11_13h09.57.865,LearnStrategy,2023.2.3,Win32,60.97560976,2,1,9,0.052777778,0.00462963,1,0,0,1.2786,rock_grid_rect_2,4,5,-1,-1,1.279,0.132407407,-0.408333333,1,0,0,2.7926,Peridotite_rect,7,2.793,0,8,0,8,0,1,,,,,,,,,,,,,
63e7f2a754618d35c2b61ba5,TCN,2024-06-11_13h09.57.865,LearnStrategy,2023.2.3,Win32,60.97560976,2,1,10,0.025925926,0.016666667,1,0,0,1.1808,rock_grid_rect_2,6,16,-1,-1,1.181,-0.355555556,-0.259259259,1,0,0,3.8498,Andesite_rect,1,3.85,0,9,0,9,0,1,,,,,,,,,,,,,
63e7f2a754618d35c2b61ba5,TCN,2024-06-11_13h09.57.865,LearnStrategy,2023.2.3,Win32,60.97560976,2,1,11,-0.02037037,-0.002777778,1,0,0,1.761,rock_grid_rect_2,6,9,-1,-1,1.761,0.37962963,-0.239814815,1,0,0,3.3232,Gabbro_rect,4,3.323,0,10,0,10,0,1,,,,,,,,,,,,,
63e7f2a754618d35c2b61ba5,TCN,2024-06-11_13h09.57.865,LearnStrategy,2023.2.3,Win32,60.97560976,2,1,12,-0.012962963,-0.001851852,1,0,0,1.2478,rock_grid_rect_2,6,6,-1,-1,1.248,-0.142592593,-0.4,1,0,0,4.1449,Pegmatite_rect,6,4.145,1,11,0,11,0,1,,,,,,,,,,,,,
63e7f2a754618d35c2b61ba5,TCN,2024-06-11_13h09.57.865,LearnStrategy,2023.2.3,Win32,60.97560976,2,1,13,0.04537037,0.000925926,1,0,0,1.1809,rock_grid_rect_2,4,12,-1,-1,1.181,-0.123148148,-0.237037037,1,0,0,1.6278,Basalt_rect,2,1.628,0,12,0,12,0,1,,,,,,,,,,,,,
63e7f2a754618d35c2b61ba5,TCN,2024-06-11_13h09.57.865,LearnStrategy,2023.2.3,Win32,60.97560976,2,1,14,0.002777778,-0.011111111,1,0,0,1.1173,rock_grid_rect_2,4,5,-1,-1,1.117,0.139814815,-0.257407407,1,0,0,2.353,Diorite_rect,3,2.353,0,13,0,13,0,1,,,,,,,,,,,,,
63e7f2a754618d35c2b61ba5,TCN,2024-06-11_13h09.57.865,LearnStrategy,2023.2.3,Win32,60.97560976,2,1,15,-0.014814815,-0.008333333,1,0,0,1.132,rock_grid_rect_2,1,1,-1,-1,1.132,0.086111111,-0.39537037,1,0,0,2.4572,Peridotite_rect,7,2.457,0,14,0,14,0,1,,,,,,,,,,,,,
63e7f2a754618d35c2b61ba5,TCN,2024-06-11_13h09.57.865,LearnStrategy,2023.2.3,Win32,60.97560976,2,1,16,0.012037037,-0.000925926,1,0,0,0.9808,rock_grid_rect_2,3,7,-1,-1,0.981,-0.426851852,-0.248148148,1,0,0,1.9084,Andesite_rect,1,1.908,0,15,0,15,0,1,,,,,,,,,,,,,
63e7f2a754618d35c2b61ba5,TCN,2024-06-11_13h09.57.865,LearnStrategy,2023.2.3,Win32,60.97560976,2,2,1,,,,,,,,5,16,,,,,,,,,,,5,2.357,1,,,,,,-0.375925926,-0.394444444,1,0,0,2.3569,Obsidian_rect,0,0,0,0,1,
63e7f2a754618d35c2b61ba5,TCN,2024-06-11_13h09.57.865,LearnStrategy,2023.2.3,Win32,60.97560976,2,2,2,,,,,,,,2,4,,,,,,,,,,,2,2.646,1,,,,,,-0.127777778,-0.250925926,1,0,0,2.6458,Basalt_rect,1,0,1,0,1,
63e7f2a754618d35c2b61ba5,TCN,2024-06-11_13h09.57.865,LearnStrategy,2023.2.3,Win32,60.97560976,2,2,3,,,,,,,,5,5,,,,,,,,,,,7,5.041,0,,,,,,0.125925926,-0.399074074,1,0,0,5.0409,Peridotite_rect,2,0,2,0,1,
63e7f2a754618d35c2b61ba5,TCN,2024-06-11_13h09.57.865,LearnStrategy,2023.2.3,Win32,60.97560976,2,2,4,,,,,,,,3,16,,,,,,,,,,,6,2.657,0,,,,,,-0.099074074,-0.382407407,1,0,0,2.6569,Pegmatite_rect,3,0,3,0,1,
63e7f2a754618d35c2b61ba5,TCN,2024-06-11_13h09.57.865,LearnStrategy,2023.2.3,Win32,60.97560976,2,2,5,,,,,,,,8,8,,,,,,,,,,,8,2.621,1,,,,,,0.386111111,-0.39537037,1,0,0,2.6211,Pumice_rect,4,0,4,0,1,
63e7f2a754618d35c2b61ba5,TCN,2024-06-11_13h09.57.865,LearnStrategy,2023.2.3,Win32,60.97560976,2,2,6,,,,,,,,1,10,,,,,,,,,,,8,5.979,0,,,,,,0.37962963,-0.407407407,1,0,0,5.9785,Pumice_rect,5,0,5,0,1,
63e7f2a754618d35c2b61ba5,TCN,2024-06-11_13h09.57.865,LearnStrategy,2023.2.3,Win32,60.97560976,2,2,7,,,,,,,,3,14,,,,,,,,,,,6,2.273,0,,,,,,-0.150925926,-0.39537037,1,0,0,2.2733,Pegmatite_rect,6,0,6,0,1,
63e7f2a754618d35c2b61ba5,TCN,2024-06-11_13h09.57.865,LearnStrategy,2023.2.3,Win32,60.97560976,2,2,8,,,,,,,,1,7,,,,,,,,,,,7,1.555,0,,,,,,0.128703704,-0.393518519,1,0,0,1.5546,Peridotite_rect,7,0,7,0,1,
63e7f2a754618d35c2b61ba5,TCN,2024-06-11_13h09.57.865,LearnStrategy,2023.2.3,Win32,60.97560976,2,2,9,,,,,,,,6,11,,,,,,,,,,,1,3.112,0,,,,,,-0.398148148,-0.246296296,1,0,0,3.112,Andesite_rect,8,0,8,0,1,
63e7f2a754618d35c2b61ba5,TCN,2024-06-11_13h09.57.865,LearnStrategy,2023.2.3,Win32,60.97560976,2,2,10,,,,,,,,4,1,,,,,,,,,,,6,3.283,0,,,,,,-0.122222222,-0.412962963,1,0,0,3.2834,Pegmatite_rect,9,0,9,0,1,
63e7f2a754618d35c2b61ba5,TCN,2024-06-11_13h09.57.865,LearnStrategy,2023.2.3,Win32,60.97560976,2,2,11,,,,,,,,7,13,,,,,,,,,,,2,4.385,0,,,,,,-0.107407407,-0.265740741,1,0,0,4.3845,Basalt_rect,10,0,10,0,1,
63e7f2a754618d35c2b61ba5,TCN,2024-06-11_13h09.57.865,LearnStrategy,2023.2.3,Win32,60.97560976,2,2,12,,,,,,,,6,15,,,,,,,,,,,7,2.294,0,,,,,,0.148148148,-0.385185185,1,0,0,2.2938,Peridotite_rect,11,0,11,0,1,
63e7f2a754618d35c2b61ba5,TCN,2024-06-11_13h09.57.865,LearnStrategy,2023.2.3,Win32,60.97560976,2,2,13,,,,,,,,8,14,,,,,,,,,,,8,1.774,1,,,,,,0.348148148,-0.40462963,1,0,0,1.7737,Pumice_rect,12,0,12,0,1,
63e7f2a754618d35c2b61ba5,TCN,2024-06-11_13h09.57.865,LearnStrategy,2023.2.3,Win32,60.97560976,2,2,14,,,,,,,,4,13,,,,,,,,,,,8,1.728,0,,,,,,0.35462963,-0.391666667,1,0,0,1.7282,Pumice_rect,13,0,13,0,1,
63e7f2a754618d35c2b61ba5,TCN,2024-06-11_13h09.57.865,LearnStrategy,2023.2.3,Win32,60.97560976,2,2,15,,,,,,,,2,1,,,,,,,,,,,2,1.564,1,,,,,,-0.14537037,-0.261111111,1,0,0,1.5643,Basalt_rect,14,0,14,0,1,
63e7f2a754618d35c2b61ba5,TCN,2024-06-11_13h09.57.865,LearnStrategy,2023.2.3,Win32,60.97560976,2,2,16,,,,,,,,7,7,,,,,,,,,,,3,1.881,0,,,,,,0.178703704,-0.233333333,1,0,0,1.881,Diorite_rect,15,0,15,0,1,
63e7f2a754618d35c2b61ba5,TCN,2024-06-11_13h09.57.865,LearnStrategy,2023.2.3,Win32,60.97560976,3,1,1,-0.009259259,0,1,0,0,1.9659,rock_grid_rect_2,6,16,-1,-1,1.966,-0.12037037,-0.392592593,1,0,0,2.3811,Pegmatite_rect,6,2.381,1,0,0,0,0,1,,,,,,,,,,,,,
63e7f2a754618d35c2b61ba5,TCN,2024-06-11_13h09.57.865,LearnStrategy,2023.2.3,Win32,60.97560976,3,1,2,-0.015740741,0.007407407,1,0,0,1.5003,rock_grid_rect_2,3,7,-1,-1,1.5,0.121296296,-0.387037037,1,0,0,1.8754,Peridotite_rect,7,1.875,0,1,0,1,0,1,,,,,,,,,,,,,
63e7f2a754618d35c2b61ba5,TCN,2024-06-11_13h09.57.865,LearnStrategy,2023.2.3,Win32,60.97560976,3,1,3,-0.030555556,0.00462963,1,0,0,1.5137,rock_grid_rect_2,4,12,-1,-1,1.514,-0.09537037,-0.249074074,1,0,0,1.5516,Basalt_rect,2,1.552,0,2,0,2,0,1,,,,,,,,,,,,,
63e7f2a754618d35c2b61ba5,TCN,2024-06-11_13h09.57.865,LearnStrategy,2023.2.3,Win32,60.97560976,3,1,4,-0.051851852,0.010185185,1,0,0,1.2663,rock_grid_rect_2,8,13,-1,-1,1.266,0.390740741,-0.391666667,1,0,0,1.8397,Pumice_rect,8,1.84,1,3,0,3,0,1,,,,,,,,,,,,,
63e7f2a754618d35c2b61ba5,TCN,2024-06-11_13h09.57.865,LearnStrategy,2023.2.3,Win32,60.97560976,3,1,5,-0.02037037,-0.011111111,1,0,0,1.3481,rock_grid_rect_2,3,11,-1,-1,1.348,0.132407407,-0.388888889,1,0,0,3.1685,Peridotite_rect,7,3.168,0,4,0,4,0,1,,,,,,,,,,,,,
63e7f2a754618d35c2b61ba5,TCN,2024-06-11_13h09.57.865,LearnStrategy,2023.2.3,Win32,60.97560976,3,1,6,-0.009259259,-0.00462963,1,0,0,1.3141,rock_grid_rect_2,6,7,-1,-1,1.314,-0.096296296,-0.405555556,1,0,0,3.0683,Pegmatite_rect,6,3.068,1,5,0,5,0,1,,,,,,,,,,,,,
63e7f2a754618d35c2b61ba5,TCN,2024-06-11_13h09.57.865,LearnStrategy,2023.2.3,Win32,60.97560976,3,1,7,0.005555556,0.005555556,1,0,0,1.2658,rock_grid_rect_2,3,12,-1,-1,1.266,0.110185185,-0.256481481,1,0,0,1.8408,Diorite_rect,3,1.841,1,6,0,6,0,1,,,,,,,,,,,,,
63e7f2a754618d35c2b61ba5,TCN,2024-06-11_13h09.57.865,LearnStrategy,2023.2.3,Win32,60.97560976,3,1,8,-0.063888889,-0.014814815,1,0,0,1.2508,rock_grid_rect_2,4,8,-1,-1,1.251,0.147222222,-0.40462963,1,0,0,2.2268,Peridotite_rect,7,2.227,0,7,0,7,0,1,,,,,,,,,,,,,
63e7f2a754618d35c2b61ba5,TCN,2024-06-11_13h09.57.865,LearnStrategy,2023.2.3,Win32,60.97560976,3,1,9,-0.003703704,0.001851852,1,0,0,1.1823,rock_grid_rect_2,1,3,-1,-1,1.182,-0.100925926,-0.399074074,1,0,0,3.1255,Pegmatite_rect,6,3.125,0,8,0,8,0,1,,,,,,,,,,,,,
63e7f2a754618d35c2b61ba5,TCN,2024-06-11_13h09.57.865,LearnStrategy,2023.2.3,Win32,60.97560976,3,1,10,-0.039814815,0,1,0,0,0.8498,rock_grid_rect_2,4,10,-1,-1,0.85,-0.083333333,-0.231481481,1,0,0,1.8748,Basalt_rect,2,1.875,0,9,0,9,0,1,,,,,,,,,,,,,
63e7f2a754618d35c2b61ba5,TCN,2024-06-11_13h09.57.865,LearnStrategy,2023.2.3,Win32,60.97560976,3,1,11,-0.038888889,0.008333333,1,0,0,1.099,rock_grid_rect_2,5,6,-1,-1,1.099,-0.396296296,-0.394444444,1,0,0,2.3562,Obsidian_rect,5,2.356,1,10,0,10,0,1,,,,,,,,,,,,,
63e7f2a754618d35c2b61ba5,TCN,2024-06-11_13h09.57.865,LearnStrategy,2023.2.3,Win32,60.97560976,3,1,12,-0.011111111,0.000925926,1,0,0,1.4978,rock_grid_rect_2,7,6,-1,-1,1.498,0.117592593,-0.398148148,1,0,0,2.4263,Peridotite_rect,7,2.426,1,11,0,11,0,1,,,,,,,,,,,,,
63e7f2a754618d35c2b61ba5,TCN,2024-06-11_13h09.57.865,LearnStrategy,2023.2.3,Win32,60.97560976,3,1,13,-0.001851852,0.00462963,1,0,0,1.1973,rock_grid_rect_2,1,11,-1,-1,1.197,-0.112037037,-0.389814815,1,0,0,1.9252,Pegmatite_rect,6,1.925,0,12,0,12,0,1,,,,,,,,,,,,,
63e7f2a754618d35c2b61ba5,TCN,2024-06-11_13h09.57.865,LearnStrategy,2023.2.3,Win32,60.97560976,3,1,14,-0.000925926,-0.008333333,1,0,0,1.1819,rock_grid_rect_2,7,15,-1,-1,1.182,-0.388888889,-0.261111111,1,0,0,3.4434,Andesite_rect,1,3.443,0,13,0,13,0,1,,,,,,,,,,,,,
63e7f2a754618d35c2b61ba5,TCN,2024-06-11_13h09.57.865,LearnStrategy,2023.2.3,Win32,60.97560976,3,1,15,0.02037037,0.007407407,1,0,0,1.3316,rock_grid_rect_2,7,16,-1,-1,1.332,0.085185185,-0.393518519,1,0,0,2.14,Peridotite_rect,7,2.14,1,14,0,14,0,1,,,,,,,,,,,,,
63e7f2a754618d35c2b61ba5,TCN,2024-06-11_13h09.57.865,LearnStrategy,2023.2.3,Win32,60.97560976,3,1,16,0.005555556,-0.016666667,1,0,0,1.2452,rock_grid_rect_2,6,6,-1,-1,1.245,-0.109259259,-0.4,1,0,0,4.6037,Pegmatite_rect,6,4.604,1,15,0,15,0,1,,,,,,,,,,,,,
63e7f2a754618d35c2b61ba5,TCN,2024-06-11_13h09.57.865,LearnStrategy,2023.2.3,Win32,60.97560976,3,2,1,,,,,,,,3,13,,,,,,,,,,,7,1.985,0,,,,,,0.088888889,-0.391666667,1,0,0,1.9853,Peridotite_rect,0,0,0,0,1,
63e7f2a754618d35c2b61ba5,TCN,2024-06-11_13h09.57.865,LearnStrategy,2023.2.3,Win32,60.97560976,3,2,2,,,,,,,,8,16,,,,,,,,,,,8,3.322,1,,,,,,0.344444444,-0.397222222,1,0,0,3.3221,Pumice_rect,1,0,1,0,1,
63e7f2a754618d35c2b61ba5,TCN,2024-06-11_13h09.57.865,LearnStrategy,2023.2.3,Win32,60.97560976,3,2,3,,,,,,,,1,16,,,,,,,,,,,7,2.635,0,,,,,,0.114814815,-0.396296296,1,0,0,2.6353,Peridotite_rect,2,0,2,0,1,
63e7f2a754618d35c2b61ba5,TCN,2024-06-11_13h09.57.865,LearnStrategy,2023.2.3,Win32,60.97560976,3,2,4,,,,,,,,4,9,,,,,,,,,,,6,3.268,0,,,,,,-0.10462963,-0.378703704,1,0,0,3.2679,Pegmatite_rect,3,0,3,0,1,
63e7f2a754618d35c2b61ba5,TCN,2024-06-11_13h09.57.865,LearnStrategy,2023.2.3,Win32,60.97560976,3,2,5,,,,,,,,6,5,,,,,,,,,,,6,2.039,1,,,,,,-0.096296296,-0.388888889,1,0,0,2.0393,Pegmatite_rect,4,0,4,0,1,
63e7f2a754618d35c2b61ba5,TCN,2024-06-11_13h09.57.865,LearnStrategy,2023.2.3,Win32,60.97560976,3,2,6,,,,,,,,8,5,,,,,,,,,,,8,2.895,1,,,,,,0.380555556,-0.390740741,1,0,0,2.8952,Pumice_rect,5,0,5,0,1,
63e7f2a754618d35c2b61ba5,TCN,2024-06-11_13h09.57.865,LearnStrategy,2023.2.3,Win32,60.97560976,3,2,7,,,,,,,,1,6,,,,,,,,,,,7,1.403,0,,,,,,0.124074074,-0.406481481,1,0,0,1.4027,Peridotite_rect,6,0,6,0,1,
63e7f2a754618d35c2b61ba5,TCN,2024-06-11_13h09.57.865,LearnStrategy,2023.2.3,Win32,60.97560976,3,2,8,,,,,,,,5,11,,,,,,,,,,,5,1.79,1,,,,,,-0.365740741,-0.398148148,1,0,0,1.7905,Obsidian_rect,7,0,7,0,1,
63e7f2a754618d35c2b61ba5,TCN,2024-06-11_13h09.57.865,LearnStrategy,2023.2.3,Win32,60.97560976,3,2,9,,,,,,,,7,12,,,,,,,,,,,3,1.623,0,,,,,,0.132407407,-0.253703704,1,0,0,1.6228,Diorite_rect,8,0,8,0,1,
63e7f2a754618d35c2b61ba5,TCN,2024-06-11_13h09.57.865,LearnStrategy,2023.2.3,Win32,60.97560976,3,2,10,,,,,,,,4,15,,,,,,,,,,,3,1.155,0,,,,,,0.137037037,-0.25,1,0,0,1.155,Diorite_rect,9,0,9,0,1,
63e7f2a754618d35c2b61ba5,TCN,2024-06-11_13h09.57.865,LearnStrategy,2023.2.3,Win32,60.97560976,3,2,11,,,,,,,,6,8,,,,,,,,,,,6,1.817,1,,,,,,-0.123148148,-0.390740741,1,0,0,1.8172,Pegmatite_rect,10,0,10,0,1,
63e7f2a754618d35c2b61ba5,TCN,2024-06-11_13h09.57.865,LearnStrategy,2023.2.3,Win32,60.97560976,3,2,12,,,,,,,,7,2,,,,,,,,,,,7,1.75,1,,,,,,0.142592593,-0.384259259,1,0,0,1.75,Peridotite_rect,11,0,11,0,1,
63e7f2a754618d35c2b61ba5,TCN,2024-06-11_13h09.57.865,LearnStrategy,2023.2.3,Win32,60.97560976,3,2,13,,,,,,,,5,14,,,,,,,,,,,5,2.071,1,,,,,,-0.346296296,-0.391666667,1,0,0,2.0707,Obsidian_rect,12,0,12,0,1,
63e7f2a754618d35c2b61ba5,TCN,2024-06-11_13h09.57.865,LearnStrategy,2023.2.3,Win32,60.97560976,3,2,14,,,,,,,,3,8,,,,,,,,,,,6,1.47,0,,,,,,-0.155555556,-0.403703704,1,0,0,1.4699,Pegmatite_rect,13,0,13,0,1,
63e7f2a754618d35c2b61ba5,TCN,2024-06-11_13h09.57.865,LearnStrategy,2023.2.3,Win32,60.97560976,3,2,15,,,,,,,,2,2,,,,,,,,,,,2,3.009,1,,,,,,-0.117592593,-0.242592593,1,0,0,3.0092,Basalt_rect,14,0,14,0,1,
63e7f2a754618d35c2b61ba5,TCN,2024-06-11_13h09.57.865,LearnStrategy,2023.2.3,Win32,60.97560976,3,2,16,,,,,,,,2,5,,,,,,,,,,,5,1.502,0,,,,,,-0.341666667,-0.39537037,1,0,0,1.5016,Obsidian_rect,15,0,15,0,1,
63e7f2a754618d35c2b61ba5,TCN,2024-06-11_13h09.57.865,LearnStrategy,2023.2.3,Win32,60.97560976,4,1,1,-0.00462963,0.00462963,1,0,0,1.4845,rock_grid_rect_2,6,9,-1,-1,1.485,-0.12962963,-0.387037037,1,0,0,1.7276,Pegmatite_rect,6,1.728,1,0,0,0,0,1,,,,,,,,,,,,,
63e7f2a754618d35c2b61ba5,TCN,2024-06-11_13h09.57.865,LearnStrategy,2023.2.3,Win32,60.97560976,4,1,2,0.005555556,-0.001851852,1,0,0,1.4671,rock_grid_rect_2,3,2,-1,-1,1.467,0.10462963,-0.390740741,1,0,0,2.316,Peridotite_rect,7,2.316,0,1,0,1,0,1,,,,,,,,,,,,,
63e7f2a754618d35c2b61ba5,TCN,2024-06-11_13h09.57.865,LearnStrategy,2023.2.3,Win32,60.97560976,4,1,3,0.028703704,0.006481481,1,0,0,1.1145,rock_grid_rect_2,7,16,-1,-1,1.114,0.106481481,-0.403703704,1,0,0,2.0411,Peridotite_rect,7,2.041,1,2,0,2,0,1,,,,,,,,,,,,,
63e7f2a754618d35c2b61ba5,TCN,2024-06-11_13h09.57.865,LearnStrategy,2023.2.3,Win32,60.97560976,4,1,4,0.02037037,-0.003703704,1,0,0,1.3977,rock_grid_rect_2,5,7,-1,-1,1.398,-0.362962963,-0.405555556,1,0,0,1.8098,Obsidian_rect,5,1.81,1,3,0,3,0,1,,,,,,,,,,,,,
63e7f2a754618d35c2b61ba5,TCN,2024-06-11_13h09.57.865,LearnStrategy,2023.2.3,Win32,60.97560976,4,1,5,0.003703704,0.002777778,1,0,0,1.2553,rock_grid_rect_2,2,14,-1,-1,1.255,-0.126851852,-0.259259259,1,0,0,4.5232,Basalt_rect,2,4.523,1,4,0,4,0,1,,,,,,,,,,,,,
63e7f2a754618d35c2b61ba5,TCN,2024-06-11_13h09.57.865,LearnStrategy,2023.2.3,Win32,60.97560976,4,1,6,0.003703704,0.003703704,1,0,0,1.2808,rock_grid_rect_2,6,6,-1,-1,1.281,-0.096296296,-0.382407407,1,0,0,1.5444,Pegmatite_rect,6,1.544,1,5,0,5,0,1,,,,,,,,,,,,,
63e7f2a754618d35c2b61ba5,TCN,2024-06-11_13h09.57.865,LearnStrategy,2023.2.3,Win32,60.97560976,4,1,7,0.008333333,0.003703704,1,0,0,1.1704,rock_grid_rect_2,4,8,-1,-1,1.17,0.108333333,-0.389814815,1,0,0,4.2294,Peridotite_rect,7,4.229,0,6,0,6,0,1,,,,,,,,,,,,,
63e7f2a754618d35c2b61ba5,TCN,2024-06-11_13h09.57.865,LearnStrategy,2023.2.3,Win32,60.97560976,4,1,8,-0.033333333,-0.017592593,1,0,0,1.0642,rock_grid_rect_2,4,5,-1,-1,1.064,0.412962963,-0.248148148,1,0,0,1.6321,Gabbro_rect,4,1.632,1,7,0,7,0,1,,,,,,,,,,,,,
63e7f2a754618d35c2b61ba5,TCN,2024-06-11_13h09.57.865,LearnStrategy,2023.2.3,Win32,60.97560976,4,1,9,0.027777778,-0.00462963,1,0,0,1.3995,rock_grid_rect_2,1,3,-1,-1,1.399,-0.110185185,-0.396296296,1,0,0,1.9896,Pegmatite_rect,6,1.99,0,8,0,8,0,1,,,,,,,,,,,,,
63e7f2a754618d35c2b61ba5,TCN,2024-06-11_13h09.57.865,LearnStrategy,2023.2.3,Win32,60.97560976,4,1,10,-0.010185185,0.005555556,1,0,0,0.8375,rock_grid_rect_2,3,6,-1,-1,0.837,-0.144444444,-0.387037037,1,0,0,2.8976,Pegmatite_rect,6,2.898,0,9,0,9,0,1,,,,,,,,,,,,,
63e7f2a754618d35c2b61ba5,TCN,2024-06-11_13h09.57.865,LearnStrategy,2023.2.3,Win32,60.97560976,4,1,11,-0.030555556,0.010185185,1,0,0,0.9803,rock_grid_rect_2,7,15,-1,-1,0.98,0.147222222,-0.261111111,1,0,0,2.0086,Diorite_rect,3,2.009,0,10,0,10,0,1,,,,,,,,,,,,,
63e7f2a754618d35c2b61ba5,TCN,2024-06-11_13h09.57.865,LearnStrategy,2023.2.3,Win32,60.97560976,4,1,12,-0.018518519,-0.015740741,1,0,0,1.1985,rock_grid_rect_2,3,7,-1,-1,1.198,0.107407407,-0.394444444,1,0,0,1.899,Peridotite_rect,7,1.899,0,11,0,11,0,1,,,,,,,,,,,,,
63e7f2a754618d35c2b61ba5,TCN,2024-06-11_13h09.57.865,LearnStrategy,2023.2.3,Win32,60.97560976,4,1,13,-0.043518519,0.008333333,1,0,0,1.3648,rock_grid_rect_2,1,2,-1,-1,1.365,0.110185185,-0.262037037,1,0,0,2.376,Diorite_rect,3,2.376,0,12,0,12,0,1,,,,,,,,,,,,,
63e7f2a754618d35c2b61ba5,TCN,2024-06-11_13h09.57.865,LearnStrategy,2023.2.3,Win32,60.97560976,4,1,14,-0.032407407,0.003703704,1,0,0,0.9809,rock_grid_rect_2,1,14,-1,-1,0.981,-0.117592593,-0.393518519,1,0,0,1.7835,Pegmatite_rect,6,1.784,0,13,0,13,0,1,,,,,,,,,,,,,
63e7f2a754618d35c2b61ba5,TCN,2024-06-11_13h09.57.865,LearnStrategy,2023.2.3,Win32,60.97560976,4,1,15,-0.003703704,-0.019444444,1,0,0,0.9487,rock_grid_rect_2,7,6,-1,-1,0.949,-0.12037037,-0.407407407,1,0,0,1.6883,Pegmatite_rect,6,1.688,0,14,0,14,0,1,,,,,,,,,,,,,
63e7f2a754618d35c2b61ba5,TCN,2024-06-11_13h09.57.865,LearnStrategy,2023.2.3,Win32,60.97560976,4,1,16,-0.030555556,-0.010185185,1,0,0,1.047,rock_grid_rect_2,4,12,-1,-1,1.047,-0.100925926,-0.250925926,1,0,0,1.4775,Basalt_rect,2,1.477,0,15,0,15,0,1,,,,,,,,,,,,,
63e7f2a754618d35c2b61ba5,TCN,2024-06-11_13h09.57.865,LearnStrategy,2023.2.3,Win32,60.97560976,4,2,1,,,,,,,,3,15,,,,,,,,,,,7,4.259,0,,,,,,0.164814815,-0.385185185,1,0,0,4.2593,Peridotite_rect,0,0,0,0,1,
63e7f2a754618d35c2b61ba5,TCN,2024-06-11_13h09.57.865,LearnStrategy,2023.2.3,Win32,60.97560976,4,2,2,,,,,,,,3,8,,,,,,,,,,,7,2.927,0,,,,,,0.113888889,-0.380555556,1,0,0,2.9272,Peridotite_rect,1,0,1,0,1,
63e7f2a754618d35c2b61ba5,TCN,2024-06-11_13h09.57.865,LearnStrategy,2023.2.3,Win32,60.97560976,4,2,3,,,,,,,,4,11,,,,,,,,,,,2,1.379,0,,,,,,-0.137037037,-0.253703704,1,0,0,1.3791,Basalt_rect,2,0,2,0,1,
63e7f2a754618d35c2b61ba5,TCN,2024-06-11_13h09.57.865,LearnStrategy,2023.2.3,Win32,60.97560976,4,2,4,,,,,,,,6,10,,,,,,,,,,,6,1.865,1,,,,,,-0.159259259,-0.393518519,1,0,0,1.8651,Pegmatite_rect,3,0,3,0,1,
63e7f2a754618d35c2b61ba5,TCN,2024-06-11_13h09.57.865,LearnStrategy,2023.2.3,Win32,60.97560976,4,2,5,,,,,,,,6,11,,,,,,,,,,,6,1.174,1,,,,,,-0.150925926,-0.396296296,1,0,0,1.1745,Pegmatite_rect,4,0,4,0,1,
63e7f2a754618d35c2b61ba5,TCN,2024-06-11_13h09.57.865,LearnStrategy,2023.2.3,Win32,60.97560976,4,2,6,,,,,,,,7,10,,,,,,,,,,,3,3.713,0,,,,,,0.136111111,-0.253703704,1,0,0,3.7131,Diorite_rect,5,0,5,0,1,
63e7f2a754618d35c2b61ba5,TCN,2024-06-11_13h09.57.865,LearnStrategy,2023.2.3,Win32,60.97560976,4,2,7,,,,,,,,8,14,,,,,,,,,,,8,2.4,1,,,,,,0.423148148,-0.378703704,1,0,0,2.3998,Pumice_rect,6,0,6,0,1,
63e7f2a754618d35c2b61ba5,TCN,2024-06-11_13h09.57.865,LearnStrategy,2023.2.3,Win32,60.97560976,4,2,8,,,,,,,,8,9,,,,,,,,,,,8,1.779,1,,,,,,0.377777778,-0.400925926,1,0,0,1.7793,Pumice_rect,7,0,7,0,1,
63e7f2a754618d35c2b61ba5,TCN,2024-06-11_13h09.57.865,LearnStrategy,2023.2.3,Win32,60.97560976,4,2,9,,,,,,,,2,1,,,,,,,,,,,2,1.578,1,,,,,,-0.080555556,-0.242592593,1,0,0,1.5776,Basalt_rect,8,0,8,0,1,
63e7f2a754618d35c2b61ba5,TCN,2024-06-11_13h09.57.865,LearnStrategy,2023.2.3,Win32,60.97560976,4,2,10,,,,,,,,1,5,,,,,,,,,,,6,3.391,0,,,,,,-0.146296296,-0.407407407,1,0,0,3.3913,Pegmatite_rect,9,0,9,0,1,
63e7f2a754618d35c2b61ba5,TCN,2024-06-11_13h09.57.865,LearnStrategy,2023.2.3,Win32,60.97560976,4,2,11,,,,,,,,5,5,,,,,,,,,,,5,2.932,1,,,,,,-0.414814815,-0.385185185,1,0,0,2.9324,Obsidian_rect,10,0,10,0,1,
63e7f2a754618d35c2b61ba5,TCN,2024-06-11_13h09.57.865,LearnStrategy,2023.2.3,Win32,60.97560976,4,2,12,,,,,,,,5,16,,,,,,,,,,,5,0.912,1,,,,,,-0.414814815,-0.385185185,1,0,0,0.9124,Obsidian_rect,11,0,11,0,1,
63e7f2a754618d35c2b61ba5,TCN,2024-06-11_13h09.57.865,LearnStrategy,2023.2.3,Win32,60.97560976,4,2,13,,,,,,,,2,5,,,,,,,,,,,5,0.784,0,,,,,,-0.415740741,-0.385185185,1,0,0,0.7844,Obsidian_rect,12,0,12,0,1,
63e7f2a754618d35c2b61ba5,TCN,2024-06-11_13h09.57.865,LearnStrategy,2023.2.3,Win32,60.97560976,4,2,14,,,,,,,,4,9,,,,,,,,,,,8,3.972,0,,,,,,0.447222222,-0.39537037,1,0,0,3.9719,Pumice_rect,13,0,13,0,1,
63e7f2a754618d35c2b61ba5,TCN,2024-06-11_13h09.57.865,LearnStrategy,2023.2.3,Win32,60.97560976,4,2,15,,,,,,,,7,12,,,,,,,,,,,3,2.523,0,,,,,,0.187037037,-0.258333333,1,0,0,2.5231,Diorite_rect,14,0,14,0,1,
63e7f2a754618d35c2b61ba5,TCN,2024-06-11_13h09.57.865,LearnStrategy,2023.2.3,Win32,60.97560976,4,2,16,,,,,,,,1,6,,,,,,,,,,,7,2.207,0,,,,,,0.14537037,-0.39537037,1,0,0,2.2074,Peridotite_rect,15,0,15,0,1,
63e7f2a754618d35c2b61ba5,TCN,2024-06-11_13h09.57.865,LearnStrategy,2023.2.3,Win32,60.97560976,5,1,1,-0.031481481,-0.006481481,1,0,0,1.8164,rock_grid_rect_2,4,16,-1,-1,1.816,-0.090740741,-0.25462963,1,0,0,1.712,Basalt_rect,2,1.712,0,0,0,0,0,1,,,,,,,,,,,,,
63e7f2a754618d35c2b61ba5,TCN,2024-06-11_13h09.57.865,LearnStrategy,2023.2.3,Win32,60.97560976,5,1,2,0.015740741,-0.000925926,1,0,0,1.0827,rock_grid_rect_2,3,6,-1,-1,1.083,-0.134259259,-0.406481481,1,0,0,1.8749,Pegmatite_rect,6,1.875,0,1,0,1,0,1,,,,,,,,,,,,,
63e7f2a754618d35c2b61ba5,TCN,2024-06-11_13h09.57.865,LearnStrategy,2023.2.3,Win32,60.97560976,5,1,3,0,0.00462963,1,0,0,1.0165,rock_grid_rect_2,1,2,-1,-1,1.017,-0.094444444,-0.391666667,1,0,0,2.0252,Pegmatite_rect,6,2.025,0,2,0,2,0,1,,,,,,,,,,,,,
63e7f2a754618d35c2b61ba5,TCN,2024-06-11_13h09.57.865,LearnStrategy,2023.2.3,Win32,60.97560976,5,1,4,0.006481481,-0.005555556,1,0,0,0.8502,rock_grid_rect_2,7,15,-1,-1,0.85,0.089814815,-0.400925926,1,0,0,3.3371,Peridotite_rect,7,3.337,1,3,0,3,0,1,,,,,,,,,,,,,
63e7f2a754618d35c2b61ba5,TCN,2024-06-11_13h09.57.865,LearnStrategy,2023.2.3,Win32,60.97560976,5,1,5,0.033333333,-0.008333333,1,0,0,1.1978,rock_grid_rect_2,1,14,-1,-1,1.198,-0.085185185,-0.39537037,1,0,0,1.9292,Pegmatite_rect,6,1.929,0,4,0,4,0,1,,,,,,,,,,,,,
63e7f2a754618d35c2b61ba5,TCN,2024-06-11_13h09.57.865,LearnStrategy,2023.2.3,Win32,60.97560976,5,1,6,0.030555556,-0.008333333,1,0,0,1.0313,rock_grid_rect_2,3,7,-1,-1,1.031,-0.390740741,-0.247222222,1,0,0,3.2243,Andesite_rect,1,3.224,0,5,0,5,0,1,,,,,,,,,,,,,
63e7f2a754618d35c2b61ba5,TCN,2024-06-11_13h09.57.865,LearnStrategy,2023.2.3,Win32,60.97560976,5,1,7,0.02037037,0.003703704,1,0,0,1.1789,rock_grid_rect_2,5,7,-1,-1,1.179,-0.376851852,-0.399074074,1,0,0,2.7089,Obsidian_rect,5,2.709,1,6,0,6,0,1,,,,,,,,,,,,,
63e7f2a754618d35c2b61ba5,TCN,2024-06-11_13h09.57.865,LearnStrategy,2023.2.3,Win32,60.97560976,5,1,8,-0.02962963,-0.009259259,1,0,0,1.8149,rock_grid_rect_2,1,3,-1,-1,1.815,-0.136111111,-0.405555556,1,0,0,1.7785,Pegmatite_rect,6,1.779,0,7,0,7,0,1,,,,,,,,,,,,,
63e7f2a754618d35c2b61ba5,TCN,2024-06-11_13h09.57.865,LearnStrategy,2023.2.3,Win32,60.97560976,5,1,9,0.026851852,0.010185185,1,0,0,0.964,rock_grid_rect_2,7,6,-1,-1,0.964,0.114814815,-0.405555556,1,0,0,3.1333,Peridotite_rect,7,3.133,1,8,0,8,0,1,,,,,,,,,,,,,
63e7f2a754618d35c2b61ba5,TCN,2024-06-11_13h09.57.865,LearnStrategy,2023.2.3,Win32,60.97560976,5,1,10,0.037037037,0.006481481,1,0,0,0.7968,rock_grid_rect_2,6,13,-1,-1,0.797,-0.163888889,-0.416666667,1,0,0,2.1205,Pegmatite_rect,6,2.12,1,9,0,9,0,1,,,,,,,,,,,,,
63e7f2a754618d35c2b61ba5,TCN,2024-06-11_13h09.57.865,LearnStrategy,2023.2.3,Win32,60.97560976,5,1,11,-0.02962963,-0.015740741,1,0,0,1.2995,rock_grid_rect_2,3,9,-1,-1,1.3,0.15,-0.383333333,1,0,0,2.8562,Peridotite_rect,7,2.856,0,10,0,10,0,1,,,,,,,,,,,,,
63e7f2a754618d35c2b61ba5,TCN,2024-06-11_13h09.57.865,LearnStrategy,2023.2.3,Win32,60.97560976,5,1,12,0.001851852,-0.012037037,1,0,0,0.981,rock_grid_rect_2,4,16,-1,-1,0.981,-0.086111111,-0.253703704,1,0,0,1.4058,Basalt_rect,2,1.406,0,11,0,11,0,1,,,,,,,,,,,,,
63e7f2a754618d35c2b61ba5,TCN,2024-06-11_13h09.57.865,LearnStrategy,2023.2.3,Win32,60.97560976,5,1,13,-0.043518519,-0.016666667,1,0,0,1.5819,rock_grid_rect_2,2,6,-1,-1,1.582,-0.117592593,-0.24537037,1,0,0,1.4204,Basalt_rect,2,1.42,1,12,0,12,0,1,,,,,,,,,,,,,
63e7f2a754618d35c2b61ba5,TCN,2024-06-11_13h09.57.865,LearnStrategy,2023.2.3,Win32,60.97560976,5,1,14,-0.014814815,0.009259259,1,0,0,1.3498,rock_grid_rect_2,7,16,-1,-1,1.35,0.144444444,-0.232407407,1,0,0,2.0628,Diorite_rect,3,2.063,0,13,0,13,0,1,,,,,,,,,,,,,
63e7f2a754618d35c2b61ba5,TCN,2024-06-11_13h09.57.865,LearnStrategy,2023.2.3,Win32,60.97560976,5,1,15,0.05,0.003703704,1,0,0,0.7489,rock_grid_rect_2,4,8,-1,-1,0.749,0.375925926,-0.390740741,1,0,0,3.2802,Pumice_rect,8,3.28,0,14,0,14,0,1,,,,,,,,,,,,,
63e7f2a754618d35c2b61ba5,TCN,2024-06-11_13h09.57.865,LearnStrategy,2023.2.3,Win32,60.97560976,5,1,16,0.012037037,-0.007407407,1,0,0,1.1651,rock_grid_rect_2,2,9,-1,-1,1.165,-0.106481481,-0.241666667,1,0,0,2.1365,Basalt_rect,2,2.136,1,15,0,15,0,1,,,,,,,,,,,,,
63e7f2a754618d35c2b61ba5,TCN,2024-06-11_13h09.57.865,LearnStrategy,2023.2.3,Win32,60.97560976,5,2,1,,,,,,,,2,16,,,,,,,,,,,2,1.846,1,,,,,,-0.084259259,-0.230555556,1,0,0,1.8455,Basalt_rect,0,0,0,0,1,
63e7f2a754618d35c2b61ba5,TCN,2024-06-11_13h09.57.865,LearnStrategy,2023.2.3,Win32,60.97560976,5,2,2,,,,,,,,8,5,,,,,,,,,,,8,2.034,1,,,,,,0.34537037,-0.396296296,1,0,0,2.0336,Pumice_rect,1,0,1,0,1,
63e7f2a754618d35c2b61ba5,TCN,2024-06-11_13h09.57.865,LearnStrategy,2023.2.3,Win32,60.97560976,5,2,3,,,,,,,,6,3,,,,,,,,,,,6,1.441,1,,,,,,-0.115740741,-0.398148148,1,0,0,1.441,Pegmatite_rect,2,0,2,0,1,
63e7f2a754618d35c2b61ba5,TCN,2024-06-11_13h09.57.865,LearnStrategy,2023.2.3,Win32,60.97560976,5,2,4,,,,,,,,4,3,,,,,,,,,,,3,5.358,0,,,,,,0.156481481,-0.252777778,1,0,0,5.3578,Diorite_rect,3,0,3,0,1,
63e7f2a754618d35c2b61ba5,TCN,2024-06-11_13h09.57.865,LearnStrategy,2023.2.3,Win32,60.97560976,5,2,5,,,,,,,,4,13,,,,,,,,,,,7,1.879,0,,,,,,0.093518519,-0.402777778,1,0,0,1.8791,Peridotite_rect,4,0,4,0,1,
63e7f2a754618d35c2b61ba5,TCN,2024-06-11_13h09.57.865,LearnStrategy,2023.2.3,Win32,60.97560976,5,2,6,,,,,,,,5,8,,,,,,,,,,,5,1.551,1,,,,,,-0.359259259,-0.413888889,1,0,0,1.551,Obsidian_rect,5,0,5,0,1,
63e7f2a754618d35c2b61ba5,TCN,2024-06-11_13h09.57.865,LearnStrategy,2023.2.3,Win32,60.97560976,5,2,7,,,,,,,,7,4,,,,,,,,,,,6,1.719,0,,,,,,-0.163888889,-0.388888889,1,0,0,1.7193,Pegmatite_rect,6,0,6,0,1,
63e7f2a754618d35c2b61ba5,TCN,2024-06-11_13h09.57.865,LearnStrategy,2023.2.3,Win32,60.97560976,5,2,8,,,,,,,,6,15,,,,,,,,,,,6,1.067,1,,,,,,-0.100925926,-0.397222222,1,0,0,1.0669,Pegmatite_rect,7,0,7,0,1,
63e7f2a754618d35c2b61ba5,TCN,2024-06-11_13h09.57.865,LearnStrategy,2023.2.3,Win32,60.97560976,5,2,9,,,,,,,,8,3,,,,,,,,,,,8,1.567,1,,,,,,0.418518519,-0.391666667,1,0,0,1.5666,Pumice_rect,8,0,8,0,1,
63e7f2a754618d35c2b61ba5,TCN,2024-06-11_13h09.57.865,LearnStrategy,2023.2.3,Win32,60.97560976,5,2,10,,,,,,,,3,16,,,,,,,,,,,3,4.298,1,,,,,,0.065740741,-0.253703704,1,0,0,4.2976,Diorite_rect,9,0,9,0,1,
63e7f2a754618d35c2b61ba5,TCN,2024-06-11_13h09.57.865,LearnStrategy,2023.2.3,Win32,60.97560976,5,2,11,,,,,,,,1,9,,,,,,,,,,,1,1.864,1,,,,,,-0.383333333,-0.255555556,1,0,0,1.8642,Andesite_rect,10,0,10,0,1,
63e7f2a754618d35c2b61ba5,TCN,2024-06-11_13h09.57.865,LearnStrategy,2023.2.3,Win32,60.97560976,5,2,12,,,,,,,,7,7,,,,,,,,,,,1,2.372,0,,,,,,-0.362037037,-0.237037037,1,0,0,2.3722,Andesite_rect,11,0,11,0,1,
63e7f2a754618d35c2b61ba5,TCN,2024-06-11_13h09.57.865,LearnStrategy,2023.2.3,Win32,60.97560976,5,2,13,,,,,,,,3,14,,,,,,,,,,,7,2.451,0,,,,,,0.113888889,-0.390740741,1,0,0,2.4507,Peridotite_rect,12,0,12,0,1,
63e7f2a754618d35c2b61ba5,TCN,2024-06-11_13h09.57.865,LearnStrategy,2023.2.3,Win32,60.97560976,5,2,14,,,,,,,,5,11,,,,,,,,,,,5,1.368,1,,,,,,-0.387962963,-0.402777778,1,0,0,1.3677,Obsidian_rect,13,0,13,0,1,
63e7f2a754618d35c2b61ba5,TCN,2024-06-11_13h09.57.865,LearnStrategy,2023.2.3,Win32,60.97560976,5,2,15,,,,,,,,2,11,,,,,,,,,,,6,1.913,0,,,,,,-0.131481481,-0.391666667,1,0,0,1.9132,Pegmatite_rect,14,0,14,0,1,
63e7f2a754618d35c2b61ba5,TCN,2024-06-11_13h09.57.865,LearnStrategy,2023.2.3,Win32,60.97560976,5,2,16,,,,,,,,1,16,,,,,,,,,,,3,1.77,0,,,,,,0.189814815,-0.231481481,1,0,0,1.7705,Diorite_rect,15,0,15,0,1,
63e7f2a754618d35c2b61ba5,TCN,2024-06-11_13h09.57.865,LearnStrategy,2023.2.3,Win32,60.97560976,6,1,1,-0.006481481,-0.005555556,1,0,0,1.4799,rock_grid_rect_2,4,10,-1,-1,1.48,0.393518519,-0.387962963,1,0,0,3.9981,Pumice_rect,8,3.998,0,0,0,0,0,1,,,,,,,,,,,,,
63e7f2a754618d35c2b61ba5,TCN,2024-06-11_13h09.57.865,LearnStrategy,2023.2.3,Win32,60.97560976,6,1,2,-0.013888889,-0.02037037,1,0,0,1.3553,rock_grid_rect_2,3,6,-1,-1,1.355,0.147222222,-0.384259259,1,0,0,2.6808,Peridotite_rect,7,2.681,0,1,0,1,0,1,,,,,,,,,,,,,
63e7f2a754618d35c2b61ba5,TCN,2024-06-11_13h09.57.865,LearnStrategy,2023.2.3,Win32,60.97560976,6,1,3,0.032407407,0.013888889,1,0,0,1.0649,rock_grid_rect_2,5,7,-1,-1,1.065,-0.442592593,-0.39537037,1,0,0,1.5364,Obsidian_rect,5,1.536,1,2,0,2,0,1,,,,,,,,,,,,,
63e7f2a754618d35c2b61ba5,TCN,2024-06-11_13h09.57.865,LearnStrategy,2023.2.3,Win32,60.97560976,6,1,4,0.084259259,0.008333333,1,0,0,1.2306,rock_grid_rect_2,4,10,-1,-1,1.231,0.375925926,-0.22962963,1,0,0,2.4192,Gabbro_rect,4,2.419,1,3,0,3,0,1,,,,,,,,,,,,,
63e7f2a754618d35c2b61ba5,TCN,2024-06-11_13h09.57.865,LearnStrategy,2023.2.3,Win32,60.97560976,6,1,5,-0.049074074,-0.012037037,1,0,0,1.3298,rock_grid_rect_2,1,2,-1,-1,1.33,-0.382407407,-0.249074074,1,0,0,1.8232,Andesite_rect,1,1.823,1,4,0,4,0,1,,,,,,,,,,,,,
63e7f2a754618d35c2b61ba5,TCN,2024-06-11_13h09.57.865,LearnStrategy,2023.2.3,Win32,60.97560976,6,1,6,0.008333333,0,1,0,0,1.2157,rock_grid_rect_2,6,13,-1,-1,1.216,-0.132407407,-0.400925926,1,0,0,1.5151,Pegmatite_rect,6,1.515,1,5,0,5,0,1,,,,,,,,,,,,,
63e7f2a754618d35c2b61ba5,TCN,2024-06-11_13h09.57.865,LearnStrategy,2023.2.3,Win32,60.97560976,6,1,7,0.051851852,-0.005555556,1,0,0,1.2252,rock_grid_rect_2,7,14,-1,-1,1.225,0.199074074,-0.252777778,1,0,0,7.1782,Diorite_rect,3,7.178,0,6,0,6,0,1,,,,,,,,,,,,,
63e7f2a754618d35c2b61ba5,TCN,2024-06-11_13h09.57.865,LearnStrategy,2023.2.3,Win32,60.97560976,6,1,8,0.043518519,0.009259259,1,0,0,1.1054,rock_grid_rect_2,7,15,-1,-1,1.105,-0.112037037,-0.399074074,1,0,0,1.566,Pegmatite_rect,6,1.566,0,7,0,7,0,1,,,,,,,,,,,,,
63e7f2a754618d35c2b61ba5,TCN,2024-06-11_13h09.57.865,LearnStrategy,2023.2.3,Win32,60.97560976,6,1,9,0.028703704,-0.024074074,1,0,0,1.0468,rock_grid_rect_2,1,11,-1,-1,1.047,-0.15,-0.39537037,1,0,0,1.9637,Pegmatite_rect,6,1.964,0,8,0,8,0,1,,,,,,,,,,,,,
63e7f2a754618d35c2b61ba5,TCN,2024-06-11_13h09.57.865,LearnStrategy,2023.2.3,Win32,60.97560976,6,1,10,0.014814815,0.00462963,1,0,0,0.9989,rock_grid_rect_2,4,5,-1,-1,0.999,0.123148148,-0.387037037,1,0,0,1.6015,Peridotite_rect,7,1.602,0,9,0,9,0,1,,,,,,,,,,,,,
63e7f2a754618d35c2b61ba5,TCN,2024-06-11_13h09.57.865,LearnStrategy,2023.2.3,Win32,60.97560976,6,1,11,0.022222222,0.000925926,1,0,0,1.0083,rock_grid_rect_2,7,16,-1,-1,1.008,0.42037037,-0.238888889,1,0,0,2.1186,Gabbro_rect,4,2.119,0,10,0,10,0,1,,,,,,,,,,,,,
63e7f2a754618d35c2b61ba5,TCN,2024-06-11_13h09.57.865,LearnStrategy,2023.2.3,Win32,60.97560976,6,1,12,0.018518519,0.000925926,1,0,0,1.0486,rock_grid_rect_2,2,8,-1,-1,1.049,-0.106481481,-0.265740741,1,0,0,1.6383,Basalt_rect,2,1.638,1,11,0,11,0,1,,,,,,,,,,,,,
63e7f2a754618d35c2b61ba5,TCN,2024-06-11_13h09.57.865,LearnStrategy,2023.2.3,Win32,60.97560976,6,1,13,0.011111111,-0.016666667,1,0,0,1.2529,rock_grid_rect_2,3,12,-1,-1,1.253,-0.135185185,-0.382407407,1,0,0,1.4509,Pegmatite_rect,6,1.451,0,12,0,12,0,1,,,,,,,,,,,,,
63e7f2a754618d35c2b61ba5,TCN,2024-06-11_13h09.57.865,LearnStrategy,2023.2.3,Win32,60.97560976,6,1,14,-0.000925926,-0.009259259,1,0,0,1.148,rock_grid_rect_2,1,11,-1,-1,1.148,-0.34537037,-0.234259259,1,0,0,1.1861,Andesite_rect,1,1.186,1,13,0,13,0,1,,,,,,,,,,,,,
63e7f2a754618d35c2b61ba5,TCN,2024-06-11_13h09.57.865,LearnStrategy,2023.2.3,Win32,60.97560976,6,1,15,0.068518519,0.005555556,1,0,0,1.2119,rock_grid_rect_2,3,6,-1,-1,1.212,0.091666667,-0.240740741,1,0,0,1.5167,Diorite_rect,3,1.517,1,14,0,14,0,1,,,,,,,,,,,,,
63e7f2a754618d35c2b61ba5,TCN,2024-06-11_13h09.57.865,LearnStrategy,2023.2.3,Win32,60.97560976,6,1,16,0.034259259,0.001851852,1,0,0,0.936,rock_grid_rect_2,2,8,-1,-1,0.936,-0.175,-0.24537037,1,0,0,1.3996,Basalt_rect,2,1.4,1,15,0,15,0,1,,,,,,,,,,,,,
63e7f2a754618d35c2b61ba5,TCN,2024-06-11_13h09.57.865,LearnStrategy,2023.2.3,Win32,60.97560976,6,2,1,,,,,,,,2,2,,,,,,,,,,,2,1.533,1,,,,,,-0.137037037,-0.25462963,1,0,0,1.5326,Basalt_rect,0,0,0,0,1,
63e7f2a754618d35c2b61ba5,TCN,2024-06-11_13h09.57.865,LearnStrategy,2023.2.3,Win32,60.97560976,6,2,2,,,,,,,,5,14,,,,,,,,,,,5,1.543,1,,,,,,-0.361111111,-0.397222222,1,0,0,1.543,Obsidian_rect,1,0,1,0,1,
63e7f2a754618d35c2b61ba5,TCN,2024-06-11_13h09.57.865,LearnStrategy,2023.2.3,Win32,60.97560976,6,2,3,,,,,,,,3,10,,,,,,,,,,,3,3.031,1,,,,,,0.147222222,-0.243518519,1,0,0,3.0313,Diorite_rect,2,0,2,0,1,
63e7f2a754618d35c2b61ba5,TCN,2024-06-11_13h09.57.865,LearnStrategy,2023.2.3,Win32,60.97560976,6,2,4,,,,,,,,7,2,,,,,,,,,,,7,2.206,1,,,,,,0.103703704,-0.399074074,1,0,0,2.2058,Peridotite_rect,3,0,3,0,1,
63e7f2a754618d35c2b61ba5,TCN,2024-06-11_13h09.57.865,LearnStrategy,2023.2.3,Win32,60.97560976,6,2,5,,,,,,,,4,1,,,,,,,,,,,6,1.844,0,,,,,,-0.12962963,-0.398148148,1,0,0,1.8445,Pegmatite_rect,4,0,4,0,1,
63e7f2a754618d35c2b61ba5,TCN,2024-06-11_13h09.57.865,LearnStrategy,2023.2.3,Win32,60.97560976,6,2,6,,,,,,,,4,15,,,,,,,,,,,3,1.397,0,,,,,,0.123148148,-0.258333333,1,0,0,1.3965,Diorite_rect,5,0,5,0,1,
63e7f2a754618d35c2b61ba5,TCN,2024-06-11_13h09.57.865,LearnStrategy,2023.2.3,Win32,60.97560976,6,2,7,,,,,,,,1,10,,,,,,,,,,,6,1.844,0,,,,,,-0.117592593,-0.39537037,1,0,0,1.8441,Pegmatite_rect,6,0,6,0,1,
63e7f2a754618d35c2b61ba5,TCN,2024-06-11_13h09.57.865,LearnStrategy,2023.2.3,Win32,60.97560976,6,2,8,,,,,,,,8,8,,,,,,,,,,,8,2.42,1,,,,,,0.405555556,-0.394444444,1,0,0,2.4205,Pumice_rect,7,0,7,0,1,
63e7f2a754618d35c2b61ba5,TCN,2024-06-11_13h09.57.865,LearnStrategy,2023.2.3,Win32,60.97560976,6,2,9,,,,,,,,2,4,,,,,,,,,,,5,1.437,0,,,,,,-0.336111111,-0.405555556,1,0,0,1.4369,Obsidian_rect,8,0,8,0,1,
63e7f2a754618d35c2b61ba5,TCN,2024-06-11_13h09.57.865,LearnStrategy,2023.2.3,Win32,60.97560976,6,2,10,,,,,,,,6,8,,,,,,,,,,,6,1.237,1,,,,,,-0.107407407,-0.393518519,1,0,0,1.2367,Pegmatite_rect,9,0,9,0,1,
63e7f2a754618d35c2b61ba5,TCN,2024-06-11_13h09.57.865,LearnStrategy,2023.2.3,Win32,60.97560976,6,2,11,,,,,,,,6,5,,,,,,,,,,,6,0.825,1,,,,,,-0.110185185,-0.396296296,1,0,0,0.8249,Pegmatite_rect,10,0,10,0,1,
63e7f2a754618d35c2b61ba5,TCN,2024-06-11_13h09.57.865,LearnStrategy,2023.2.3,Win32,60.97560976,6,2,12,,,,,,,,5,2,,,,,,,,,,,5,1.153,1,,,,,,-0.399074074,-0.400925926,1,0,0,1.1528,Obsidian_rect,11,0,11,0,1,
63e7f2a754618d35c2b61ba5,TCN,2024-06-11_13h09.57.865,LearnStrategy,2023.2.3,Win32,60.97560976,6,2,13,,,,,,,,7,13,,,,,,,,,,,4,3.397,0,,,,,,0.425925926,-0.231481481,1,0,0,3.397,Gabbro_rect,12,0,12,0,1,
63e7f2a754618d35c2b61ba5,TCN,2024-06-11_13h09.57.865,LearnStrategy,2023.2.3,Win32,60.97560976,6,2,14,,,,,,,,8,16,,,,,,,,,,,8,2.086,1,,,,,,0.392592593,-0.391666667,1,0,0,2.0863,Pumice_rect,13,0,13,0,1,
63e7f2a754618d35c2b61ba5,TCN,2024-06-11_13h09.57.865,LearnStrategy,2023.2.3,Win32,60.97560976,6,2,15,,,,,,,,1,7,,,,,,,,,,,6,1.927,0,,,,,,-0.133333333,-0.414814815,1,0,0,1.9272,Pegmatite_rect,14,0,14,0,1,
63e7f2a754618d35c2b61ba5,TCN,2024-06-11_13h09.57.865,LearnStrategy,2023.2.3,Win32,60.97560976,6,2,16,,,,,,,,3,13,,,,,,,,,,,7,1.894,0,,,,,,0.146296296,-0.4,1,0,0,1.8938,Peridotite_rect,15,0,15,0,1,
63e7f2a754618d35c2b61ba5,TCN,2024-06-11_13h09.57.865,LearnStrategy,2023.2.3,Win32,60.97560976,7,1,1,-0.021296296,0.008333333,1,0,0,1.2347,rock_grid_rect_2,2,14,-1,-1,1.235,0.119444444,-0.239814815,1,0,0,2.4825,Diorite_rect,3,2.483,0,0,0,0,0,1,,,,,,,,,,,,,
63e7f2a754618d35c2b61ba5,TCN,2024-06-11_13h09.57.865,LearnStrategy,2023.2.3,Win32,60.97560976,7,1,2,0.013888889,0.007407407,1,0,0,1.2489,rock_grid_rect_2,5,4,-1,-1,1.249,-0.39537037,-0.397222222,1,0,0,1.4049,Obsidian_rect,5,1.405,1,1,0,1,0,1,,,,,,,,,,,,,
63e7f2a754618d35c2b61ba5,TCN,2024-06-11_13h09.57.865,LearnStrategy,2023.2.3,Win32,60.97560976,7,1,3,-0.016666667,0.002777778,1,0,0,1.1913,rock_grid_rect_2,7,15,-1,-1,1.191,-0.10462963,-0.393518519,1,0,0,1.6135,Pegmatite_rect,6,1.614,0,2,0,2,0,1,,,,,,,,,,,,,
63e7f2a754618d35c2b61ba5,TCN,2024-06-11_13h09.57.865,LearnStrategy,2023.2.3,Win32,60.97560976,7,1,4,0.016666667,0.008333333,1,0,0,1.0152,rock_grid_rect_2,4,10,-1,-1,1.015,-0.107407407,-0.244444444,1,0,0,3.2891,Basalt_rect,2,3.289,0,3,0,3,0,1,,,,,,,,,,,,,
63e7f2a754618d35c2b61ba5,TCN,2024-06-11_13h09.57.865,LearnStrategy,2023.2.3,Win32,60.97560976,7,1,5,0.003703704,0.012037037,1,0,0,0.7962,rock_grid_rect_2,1,3,-1,-1,0.796,-0.356481481,-0.238888889,1,0,0,1.5096,Andesite_rect,1,1.51,1,4,0,4,0,1,,,,,,,,,,,,,
63e7f2a754618d35c2b61ba5,TCN,2024-06-11_13h09.57.865,LearnStrategy,2023.2.3,Win32,60.97560976,7,1,6,0.049074074,0.012962963,1,0,0,1.1159,rock_grid_rect_2,6,6,-1,-1,1.116,-0.117592593,-0.388888889,1,0,0,1.4292,Pegmatite_rect,6,1.429,1,5,0,5,0,1,,,,,,,,,,,,,
63e7f2a754618d35c2b61ba5,TCN,2024-06-11_13h09.57.865,LearnStrategy,2023.2.3,Win32,60.97560976,7,1,7,0.034259259,-0.012037037,1,0,0,1.0661,rock_grid_rect_2,3,11,-1,-1,1.066,0.12962963,-0.399074074,1,0,0,2.035,Peridotite_rect,7,2.035,0,6,0,6,0,1,,,,,,,,,,,,,
63e7f2a754618d35c2b61ba5,TCN,2024-06-11_13h09.57.865,LearnStrategy,2023.2.3,Win32,60.97560976,7,1,8,-0.007407407,0.003703704,1,0,0,0.9187,rock_grid_rect_2,4,5,-1,-1,0.919,0.134259259,-0.387962963,1,0,0,1.6256,Peridotite_rect,7,1.626,0,7,0,7,0,1,,,,,,,,,,,,,
63e7f2a754618d35c2b61ba5,TCN,2024-06-11_13h09.57.865,LearnStrategy,2023.2.3,Win32,60.97560976,7,1,9,-0.002777778,-0.013888889,1,0,0,0.9324,rock_grid_rect_2,7,6,-1,-1,0.932,-0.088888889,-0.413888889,1,0,0,2.3544,Pegmatite_rect,6,2.354,0,8,0,8,0,1,,,,,,,,,,,,,
63e7f2a754618d35c2b61ba5,TCN,2024-06-11_13h09.57.865,LearnStrategy,2023.2.3,Win32,60.97560976,7,1,10,0.010185185,-0.001851852,1,0,0,0.8154,rock_grid_rect_2,1,4,-1,-1,0.815,0.142592593,-0.235185185,1,0,0,1.8563,Diorite_rect,3,1.856,0,9,0,9,0,1,,,,,,,,,,,,,
63e7f2a754618d35c2b61ba5,TCN,2024-06-11_13h09.57.865,LearnStrategy,2023.2.3,Win32,60.97560976,7,1,11,0.010185185,-0.019444444,1,0,0,1.148,rock_grid_rect_2,2,8,-1,-1,1.148,-0.112037037,-0.260185185,1,0,0,1.2564,Basalt_rect,2,1.256,1,10,0,10,0,1,,,,,,,,,,,,,
63e7f2a754618d35c2b61ba5,TCN,2024-06-11_13h09.57.865,LearnStrategy,2023.2.3,Win32,60.97560976,7,1,12,0.04537037,0.003703704,1,0,0,1.0307,rock_grid_rect_2,1,14,-1,-1,1.031,0.117592593,-0.25,1,0,0,3.478,Diorite_rect,3,3.478,0,11,0,11,0,1,,,,,,,,,,,,,
63e7f2a754618d35c2b61ba5,TCN,2024-06-11_13h09.57.865,LearnStrategy,2023.2.3,Win32,60.97560976,7,1,13,0.000925926,0.012962963,1,0,0,1.1143,rock_grid_rect_2,3,7,-1,-1,1.114,-0.17037037,-0.399074074,1,0,0,1.7868,Pegmatite_rect,6,1.787,0,12,0,12,0,1,,,,,,,,,,,,,
63e7f2a754618d35c2b61ba5,TCN,2024-06-11_13h09.57.865,LearnStrategy,2023.2.3,Win32,60.97560976,7,1,14,-0.00462963,0.011111111,1,0,0,0.9984,rock_grid_rect_2,3,11,-1,-1,0.998,0.141666667,-0.391666667,1,0,0,1.5774,Peridotite_rect,7,1.577,0,13,0,13,0,1,,,,,,,,,,,,,
63e7f2a754618d35c2b61ba5,TCN,2024-06-11_13h09.57.865,LearnStrategy,2023.2.3,Win32,60.97560976,7,1,15,0,0.003703704,1,0,0,0.9145,rock_grid_rect_2,4,14,-1,-1,0.914,0.171296296,-0.253703704,1,0,0,1.6901,Diorite_rect,3,1.69,0,14,0,14,0,1,,,,,,,,,,,,,
63e7f2a754618d35c2b61ba5,TCN,2024-06-11_13h09.57.865,LearnStrategy,2023.2.3,Win32,60.97560976,7,1,16,0.087962963,-0.009259259,1,0,0,1.2323,rock_grid_rect_2,7,6,-1,-1,1.232,-0.112037037,-0.389814815,1,0,0,1.7013,Pegmatite_rect,6,1.701,0,15,0,15,0,1,,,,,,,,,,,,,
63e7f2a754618d35c2b61ba5,TCN,2024-06-11_13h09.57.865,LearnStrategy,2023.2.3,Win32,60.97560976,7,2,1,,,,,,,,1,5,,,,,,,,,,,6,1.459,0,,,,,,-0.141666667,-0.40462963,1,0,0,1.4591,Pegmatite_rect,0,0,0,0,1,
63e7f2a754618d35c2b61ba5,TCN,2024-06-11_13h09.57.865,LearnStrategy,2023.2.3,Win32,60.97560976,7,2,2,,,,,,,,8,14,,,,,,,,,,,2,1.309,0,,,,,,-0.119444444,-0.244444444,1,0,0,1.3087,Basalt_rect,1,0,1,0,1,
63e7f2a754618d35c2b61ba5,TCN,2024-06-11_13h09.57.865,LearnStrategy,2023.2.3,Win32,60.97560976,7,2,3,,,,,,,,6,5,,,,,,,,,,,6,2.811,1,,,,,,-0.137962963,-0.385185185,1,0,0,2.8108,Pegmatite_rect,2,0,2,0,1,
63e7f2a754618d35c2b61ba5,TCN,2024-06-11_13h09.57.865,LearnStrategy,2023.2.3,Win32,60.97560976,7,2,4,,,,,,,,7,10,,,,,,,,,,,7,1.638,1,,,,,,0.118518519,-0.389814815,1,0,0,1.6378,Peridotite_rect,3,0,3,0,1,
63e7f2a754618d35c2b61ba5,TCN,2024-06-11_13h09.57.865,LearnStrategy,2023.2.3,Win32,60.97560976,7,2,5,,,,,,,,3,8,,,,,,,,,,,6,1.842,0,,,,,,-0.1,-0.39537037,1,0,0,1.8423,Pegmatite_rect,4,0,4,0,1,
63e7f2a754618d35c2b61ba5,TCN,2024-06-11_13h09.57.865,LearnStrategy,2023.2.3,Win32,60.97560976,7,2,6,,,,,,,,8,9,,,,,,,,,,,8,2.378,1,,,,,,0.368518519,-0.384259259,1,0,0,2.3777,Pumice_rect,5,0,5,0,1,
63e7f2a754618d35c2b61ba5,TCN,2024-06-11_13h09.57.865,LearnStrategy,2023.2.3,Win32,60.97560976,7,2,7,,,,,,,,3,10,,,,,,,,,,,3,1.632,1,,,,,,0.137962963,-0.252777778,1,0,0,1.6324,Diorite_rect,6,0,6,0,1,
63e7f2a754618d35c2b61ba5,TCN,2024-06-11_13h09.57.865,LearnStrategy,2023.2.3,Win32,60.97560976,7,2,8,,,,,,,,5,16,,,,,,,,,,,5,1.334,1,,,,,,-0.393518519,-0.399074074,1,0,0,1.3337,Obsidian_rect,7,0,7,0,1,
63e7f2a754618d35c2b61ba5,TCN,2024-06-11_13h09.57.865,LearnStrategy,2023.2.3,Win32,60.97560976,7,2,9,,,,,,,,7,2,,,,,,,,,,,3,2.361,0,,,,,,0.162962963,-0.231481481,1,0,0,2.3605,Diorite_rect,8,0,8,0,1,
63e7f2a754618d35c2b61ba5,TCN,2024-06-11_13h09.57.865,LearnStrategy,2023.2.3,Win32,60.97560976,7,2,10,,,,,,,,1,10,,,,,,,,,,,7,2.145,0,,,,,,0.119444444,-0.410185185,1,0,0,2.1451,Peridotite_rect,9,0,9,0,1,
63e7f2a754618d35c2b61ba5,TCN,2024-06-11_13h09.57.865,LearnStrategy,2023.2.3,Win32,60.97560976,7,2,11,,,,,,,,2,4,,,,,,,,,,,5,1.869,0,,,,,,-0.441666667,-0.408333333,1,0,0,1.8693,Obsidian_rect,10,0,10,0,1,
63e7f2a754618d35c2b61ba5,TCN,2024-06-11_13h09.57.865,LearnStrategy,2023.2.3,Win32,60.97560976,7,2,12,,,,,,,,2,1,,,,,,,,,,,5,2.577,0,,,,,,-0.40462963,-0.403703704,1,0,0,2.5768,Obsidian_rect,11,0,11,0,1,
63e7f2a754618d35c2b61ba5,TCN,2024-06-11_13h09.57.865,LearnStrategy,2023.2.3,Win32,60.97560976,7,2,13,,,,,,,,5,14,,,,,,,,,,,5,0.96,1,,,,,,-0.390740741,-0.389814815,1,0,0,0.9595,Obsidian_rect,12,0,12,0,1,
63e7f2a754618d35c2b61ba5,TCN,2024-06-11_13h09.57.865,LearnStrategy,2023.2.3,Win32,60.97560976,7,2,14,,,,,,,,4,15,,,,,,,,,,,3,1.629,0,,,,,,0.183333333,-0.236111111,1,0,0,1.6287,Diorite_rect,13,0,13,0,1,
63e7f2a754618d35c2b61ba5,TCN,2024-06-11_13h09.57.865,LearnStrategy,2023.2.3,Win32,60.97560976,7,2,15,,,,,,,,4,11,,,,,,,,,,,1,2.16,0,,,,,,-0.363888889,-0.261111111,1,0,0,2.1598,Andesite_rect,14,0,14,0,1,
63e7f2a754618d35c2b61ba5,TCN,2024-06-11_13h09.57.865,LearnStrategy,2023.2.3,Win32,60.97560976,7,2,16,,,,,,,,6,3,,,,,,,,,,,6,1.174,1,,,,,,-0.112037037,-0.396296296,1,0,0,1.1745,Pegmatite_rect,15,0,15,0,1,
63e7f2a754618d35c2b61ba5,TCN,2024-06-11_13h09.57.865,LearnStrategy,2023.2.3,Win32,60.97560976,8,1,1,-0.012037037,-0.003703704,1,0,0,1.4334,rock_grid_rect_2,1,11,-1,-1,1.433,-0.092592593,-0.390740741,1,0,0,1.6989,Pegmatite_rect,6,1.699,0,0,0,0,0,1,,,,,,,,,,,,,
63e7f2a754618d35c2b61ba5,TCN,2024-06-11_13h09.57.865,LearnStrategy,2023.2.3,Win32,60.97560976,8,1,2,0.02037037,0.001851852,1,0,0,1.5373,rock_grid_rect_2,1,11,-1,-1,1.537,-0.446296296,-0.25462963,1,0,0,1.3743,Andesite_rect,1,1.374,1,1,0,1,0,1,,,,,,,,,,,,,
63e7f2a754618d35c2b61ba5,TCN,2024-06-11_13h09.57.865,LearnStrategy,2023.2.3,Win32,60.97560976,8,1,3,0.000925926,0.000925926,1,0,0,1.2144,rock_grid_rect_2,6,6,-1,-1,1.214,-0.1,-0.413888889,1,0,0,1.5637,Pegmatite_rect,6,1.564,1,2,0,2,0,1,,,,,,,,,,,,,
63e7f2a754618d35c2b61ba5,TCN,2024-06-11_13h09.57.865,LearnStrategy,2023.2.3,Win32,60.97560976,8,1,4,-0.007407407,-0.005555556,1,0,0,1.3497,rock_grid_rect_2,1,2,-1,-1,1.35,0.137962963,-0.381481481,1,0,0,2.591,Peridotite_rect,7,2.591,0,3,0,3,0,1,,,,,,,,,,,,,
63e7f2a754618d35c2b61ba5,TCN,2024-06-11_13h09.57.865,LearnStrategy,2023.2.3,Win32,60.97560976,8,1,5,0.002777778,0.000925926,1,0,0,1.2327,rock_grid_rect_2,4,12,-1,-1,1.233,0.084259259,-0.236111111,1,0,0,2.1653,Diorite_rect,3,2.165,0,4,0,4,0,1,,,,,,,,,,,,,
63e7f2a754618d35c2b61ba5,TCN,2024-06-11_13h09.57.865,LearnStrategy,2023.2.3,Win32,60.97560976,8,1,6,0.021296296,0.023148148,1,0,0,1.0387,rock_grid_rect_2,8,6,-1,-1,1.039,0.431481481,-0.4,1,0,0,1.9757,Pumice_rect,8,1.976,1,5,0,5,0,1,,,,,,,,,,,,,
63e7f2a754618d35c2b61ba5,TCN,2024-06-11_13h09.57.865,LearnStrategy,2023.2.3,Win32,60.97560976,8,1,7,0.049074074,0.011111111,1,0,0,1.1316,rock_grid_rect_2,7,8,-1,-1,1.132,0.328703704,-0.250925926,1,0,0,3.5238,Gabbro_rect,4,3.524,0,6,0,6,0,1,,,,,,,,,,,,,
63e7f2a754618d35c2b61ba5,TCN,2024-06-11_13h09.57.865,LearnStrategy,2023.2.3,Win32,60.97560976,8,1,8,-0.015740741,0.002777778,1,0,0,0.9914,rock_grid_rect_2,5,6,-1,-1,0.991,-0.360185185,-0.401851852,1,0,0,1.5844,Obsidian_rect,5,1.584,1,7,0,7,0,1,,,,,,,,,,,,,
63e7f2a754618d35c2b61ba5,TCN,2024-06-11_13h09.57.865,LearnStrategy,2023.2.3,Win32,60.97560976,8,1,9,0.00462963,0.013888889,1,0,0,1.099,rock_grid_rect_2,2,6,-1,-1,1.099,-0.383333333,-0.396296296,1,0,0,1.8301,Obsidian_rect,5,1.83,0,8,0,8,0,1,,,,,,,,,,,,,
63e7f2a754618d35c2b61ba5,TCN,2024-06-11_13h09.57.865,LearnStrategy,2023.2.3,Win32,60.97560976,8,1,10,0.013888889,-0.010185185,1,0,0,1.0344,rock_grid_rect_2,7,6,-1,-1,1.034,-0.158333333,-0.4,1,0,0,2.5002,Pegmatite_rect,6,2.5,0,9,0,9,0,1,,,,,,,,,,,,,
63e7f2a754618d35c2b61ba5,TCN,2024-06-11_13h09.57.865,LearnStrategy,2023.2.3,Win32,60.97560976,8,1,11,0.068518519,-0.002777778,1,0,0,0.9805,rock_grid_rect_2,3,12,-1,-1,0.981,0.097222222,-0.252777778,1,0,0,2.6911,Diorite_rect,3,2.691,1,10,0,10,0,1,,,,,,,,,,,,,
63e7f2a754618d35c2b61ba5,TCN,2024-06-11_13h09.57.865,LearnStrategy,2023.2.3,Win32,60.97560976,8,1,12,0.006481481,0.012962963,1,0,0,0.8996,rock_grid_rect_2,4,8,-1,-1,0.9,0.372222222,-0.244444444,1,0,0,3.2758,Gabbro_rect,4,3.276,1,11,0,11,0,1,,,,,,,,,,,,,
63e7f2a754618d35c2b61ba5,TCN,2024-06-11_13h09.57.865,LearnStrategy,2023.2.3,Win32,60.97560976,8,1,13,-0.000925926,0.000925926,1,0,0,1.281,rock_grid_rect_2,3,9,-1,-1,1.281,-0.130555556,-0.385185185,1,0,0,2.3089,Pegmatite_rect,6,2.309,0,12,0,12,0,1,,,,,,,,,,,,,
63e7f2a754618d35c2b61ba5,TCN,2024-06-11_13h09.57.865,LearnStrategy,2023.2.3,Win32,60.97560976,8,1,14,-0.071296296,-0.007407407,1,0,0,1.5758,rock_grid_rect_2,1,14,-1,-1,1.576,-0.112037037,-0.409259259,1,0,0,1.7171,Pegmatite_rect,6,1.717,0,13,0,13,0,1,,,,,,,,,,,,,
63e7f2a754618d35c2b61ba5,TCN,2024-06-11_13h09.57.865,LearnStrategy,2023.2.3,Win32,60.97560976,8,1,15,-0.003703704,-0.014814815,1,0,0,0.8996,rock_grid_rect_2,2,6,-1,-1,0.9,-0.396296296,-0.399074074,1,0,0,1.9425,Obsidian_rect,5,1.942,0,14,0,14,0,1,,,,,,,,,,,,,
63e7f2a754618d35c2b61ba5,TCN,2024-06-11_13h09.57.865,LearnStrategy,2023.2.3,Win32,60.97560976,8,1,16,0.021296296,0.000925926,1,0,0,0.899,rock_grid_rect_2,4,12,-1,-1,0.899,0.150925926,-0.237962963,1,0,0,1.4216,Diorite_rect,3,1.422,0,15,0,15,0,1,,,,,,,,,,,,,
63e7f2a754618d35c2b61ba5,TCN,2024-06-11_13h09.57.865,LearnStrategy,2023.2.3,Win32,60.97560976,8,2,1,,,,,,,,1,7,,,,,,,,,,,6,2.607,0,,,,,,-0.088888889,-0.408333333,1,0,0,2.6071,Pegmatite_rect,0,0,0,0,1,
63e7f2a754618d35c2b61ba5,TCN,2024-06-11_13h09.57.865,LearnStrategy,2023.2.3,Win32,60.97560976,8,2,2,,,,,,,,1,6,,,,,,,,,,,1,1.64,1,,,,,,-0.34537037,-0.247222222,1,0,0,1.6398,Andesite_rect,1,0,1,0,1,
63e7f2a754618d35c2b61ba5,TCN,2024-06-11_13h09.57.865,LearnStrategy,2023.2.3,Win32,60.97560976,8,2,3,,,,,,,,2,16,,,,,,,,,,,4,3.324,0,,,,,,0.380555556,-0.244444444,1,0,0,3.3236,Gabbro_rect,2,0,2,0,1,
63e7f2a754618d35c2b61ba5,TCN,2024-06-11_13h09.57.865,LearnStrategy,2023.2.3,Win32,60.97560976,8,2,4,,,,,,,,7,7,,,,,,,,,,,7,3.726,1,,,,,,0.214814815,-0.400925926,1,0,0,3.7263,Peridotite_rect,3,0,3,0,1,
63e7f2a754618d35c2b61ba5,TCN,2024-06-11_13h09.57.865,LearnStrategy,2023.2.3,Win32,60.97560976,8,2,5,,,,,,,,7,13,,,,,,,,,,,3,2.701,0,,,,,,0.193518519,-0.268518519,1,0,0,2.7006,Diorite_rect,4,0,4,0,1,
63e7f2a754618d35c2b61ba5,TCN,2024-06-11_13h09.57.865,LearnStrategy,2023.2.3,Win32,60.97560976,8,2,6,,,,,,,,5,11,,,,,,,,,,,5,1.451,1,,,,,,-0.437037037,-0.408333333,1,0,0,1.4514,Obsidian_rect,5,0,5,0,1,
63e7f2a754618d35c2b61ba5,TCN,2024-06-11_13h09.57.865,LearnStrategy,2023.2.3,Win32,60.97560976,8,2,7,,,,,,,,8,8,,,,,,,,,,,8,1.544,1,,,,,,0.350925926,-0.398148148,1,0,0,1.5439,Pumice_rect,6,0,6,0,1,
63e7f2a754618d35c2b61ba5,TCN,2024-06-11_13h09.57.865,LearnStrategy,2023.2.3,Win32,60.97560976,8,2,8,,,,,,,,4,9,,,,,,,,,,,3,4.503,0,,,,,,0.125925926,-0.253703704,1,0,0,4.5029,Diorite_rect,7,0,7,0,1,
63e7f2a754618d35c2b61ba5,TCN,2024-06-11_13h09.57.865,LearnStrategy,2023.2.3,Win32,60.97560976,8,2,9,,,,,,,,6,10,,,,,,,,,,,6,1.3,1,,,,,,-0.144444444,-0.414814815,1,0,0,1.3001,Pegmatite_rect,8,0,8,0,1,
63e7f2a754618d35c2b61ba5,TCN,2024-06-11_13h09.57.865,LearnStrategy,2023.2.3,Win32,60.97560976,8,2,10,,,,,,,,3,13,,,,,,,,,,,7,1.706,0,,,,,,0.110185185,-0.392592593,1,0,0,1.7058,Peridotite_rect,9,0,9,0,1,
63e7f2a754618d35c2b61ba5,TCN,2024-06-11_13h09.57.865,LearnStrategy,2023.2.3,Win32,60.97560976,8,2,11,,,,,,,,5,5,,,,,,,,,,,5,2.797,1,,,,,,-0.384259259,-0.39537037,1,0,0,2.7969,Obsidian_rect,10,0,10,0,1,
63e7f2a754618d35c2b61ba5,TCN,2024-06-11_13h09.57.865,LearnStrategy,2023.2.3,Win32,60.97560976,8,2,12,,,,,,,,4,1,,,,,,,,,,,1,3.457,0,,,,,,-0.348148148,-0.256481481,1,0,0,3.4567,Andesite_rect,11,0,11,0,1,
63e7f2a754618d35c2b61ba5,TCN,2024-06-11_13h09.57.865,LearnStrategy,2023.2.3,Win32,60.97560976,8,2,13,,,,,,,,8,16,,,,,,,,,,,8,1.635,1,,,,,,0.357407407,-0.388888889,1,0,0,1.6347,Pumice_rect,12,0,12,0,1,
63e7f2a754618d35c2b61ba5,TCN,2024-06-11_13h09.57.865,LearnStrategy,2023.2.3,Win32,60.97560976,8,2,14,,,,,,,,2,2,,,,,,,,,,,5,1.792,0,,,,,,-0.39537037,-0.388888889,1,0,0,1.7921,Obsidian_rect,13,0,13,0,1,
63e7f2a754618d35c2b61ba5,TCN,2024-06-11_13h09.57.865,LearnStrategy,2023.2.3,Win32,60.97560976,8,2,15,,,,,,,,6,11,,,,,,,,,,,6,1.197,1,,,,,,-0.109259259,-0.410185185,1,0,0,1.1968,Pegmatite_rect,14,0,14,0,1,
63e7f2a754618d35c2b61ba5,TCN,2024-06-11_13h09.57.865,LearnStrategy,2023.2.3,Win32,60.97560976,8,2,16,,,,,,,,3,16,,,,,,,,,,,7,1.386,0,,,,,,0.159259259,-0.396296296,1,0,0,1.3862,Peridotite_rect,15,0,15,0,1,
63e7f2a754618d35c2b61ba5,TCN,2024-06-11_13h09.57.865,LearnStrategy,2023.2.3,Win32,60.97560976,9,1,1,0.022222222,0.012962963,1,0,0,1.5653,rock_grid_rect_2,3,6,-1,-1,1.565,0.126851852,-0.393518519,1,0,0,3.0179,Peridotite_rect,7,3.018,0,0,0,0,0,1,,,,,,,,,,,,,
63e7f2a754618d35c2b61ba5,TCN,2024-06-11_13h09.57.865,LearnStrategy,2023.2.3,Win32,60.97560976,9,1,2,-0.008333333,0.006481481,1,0,0,1.2319,rock_grid_rect_2,4,16,-1,-1,1.232,-0.136111111,-0.238888889,1,0,0,1.6249,Basalt_rect,2,1.625,0,1,0,1,0,1,,,,,,,,,,,,,
63e7f2a754618d35c2b61ba5,TCN,2024-06-11_13h09.57.865,LearnStrategy,2023.2.3,Win32,60.97560976,9,1,3,0.021296296,-0.000925926,1,0,0,1.2654,rock_grid_rect_2,2,10,-1,-1,1.265,-0.37037037,-0.393518519,1,0,0,2.025,Obsidian_rect,5,2.025,0,2,0,2,0,1,,,,,,,,,,,,,
63e7f2a754618d35c2b61ba5,TCN,2024-06-11_13h09.57.865,LearnStrategy,2023.2.3,Win32,60.97560976,9,1,4,-0.033333333,0.001851852,1,0,0,1.2643,rock_grid_rect_2,1,3,-1,-1,1.264,-0.127777778,-0.402777778,1,0,0,1.572,Pegmatite_rect,6,1.572,0,3,0,3,0,1,,,,,,,,,,,,,
63e7f2a754618d35c2b61ba5,TCN,2024-06-11_13h09.57.865,LearnStrategy,2023.2.3,Win32,60.97560976,9,1,5,0.015740741,0.010185185,1,0,0,0.9971,rock_grid_rect_2,5,7,-1,-1,0.997,-0.376851852,-0.401851852,1,0,0,1.5883,Obsidian_rect,5,1.588,1,4,0,4,0,1,,,,,,,,,,,,,
63e7f2a754618d35c2b61ba5,TCN,2024-06-11_13h09.57.865,LearnStrategy,2023.2.3,Win32,60.97560976,9,1,6,-0.006481481,0.000925926,1,0,0,1.2329,rock_grid_rect_2,4,16,-1,-1,1.233,0.133333333,-0.234259259,1,0,0,1.4975,Diorite_rect,3,1.497,0,5,0,5,0,1,,,,,,,,,,,,,
63e7f2a754618d35c2b61ba5,TCN,2024-06-11_13h09.57.865,LearnStrategy,2023.2.3,Win32,60.97560976,9,1,7,0.067592593,-0.000925926,1,0,0,1.0331,rock_grid_rect_2,6,9,-1,-1,1.033,-0.125,-0.387037037,1,0,0,1.4945,Pegmatite_rect,6,1.495,1,6,0,6,0,1,,,,,,,,,,,,,
63e7f2a754618d35c2b61ba5,TCN,2024-06-11_13h09.57.865,LearnStrategy,2023.2.3,Win32,60.97560976,9,1,8,0.058333333,0.010185185,1,0,0,1.6498,rock_grid_rect_2,1,14,-1,-1,1.65,0.125,-0.253703704,1,0,0,3.578,Diorite_rect,3,3.578,0,7,0,7,0,1,,,,,,,,,,,,,
63e7f2a754618d35c2b61ba5,TCN,2024-06-11_13h09.57.865,LearnStrategy,2023.2.3,Win32,60.97560976,9,1,9,0.07037037,-0.007407407,1,0,0,1.0312,rock_grid_rect_2,7,8,-1,-1,1.031,0.118518519,-0.409259259,1,0,0,1.3073,Peridotite_rect,7,1.307,1,8,0,8,0,1,,,,,,,,,,,,,
63e7f2a754618d35c2b61ba5,TCN,2024-06-11_13h09.57.865,LearnStrategy,2023.2.3,Win32,60.97560976,9,1,10,0.080555556,0.007407407,1,0,0,1.2485,rock_grid_rect_2,3,9,-1,-1,1.249,0.137037037,-0.240740741,1,0,0,1.8498,Diorite_rect,3,1.85,1,9,0,9,0,1,,,,,,,,,,,,,
63e7f2a754618d35c2b61ba5,TCN,2024-06-11_13h09.57.865,LearnStrategy,2023.2.3,Win32,60.97560976,9,1,11,0.019444444,-0.011111111,1,0,0,0.8822,rock_grid_rect_2,3,2,-1,-1,0.882,0.140740741,-0.253703704,1,0,0,1.441,Diorite_rect,3,1.441,1,10,0,10,0,1,,,,,,,,,,,,,
63e7f2a754618d35c2b61ba5,TCN,2024-06-11_13h09.57.865,LearnStrategy,2023.2.3,Win32,60.97560976,9,1,12,-0.017592593,-0.013888889,1,0,0,0.9979,rock_grid_rect_2,4,10,-1,-1,0.998,0.360185185,-0.252777778,1,0,0,1.9417,Gabbro_rect,4,1.942,1,11,0,11,0,1,,,,,,,,,,,,,
63e7f2a754618d35c2b61ba5,TCN,2024-06-11_13h09.57.865,LearnStrategy,2023.2.3,Win32,60.97560976,9,1,13,0.02037037,-0.00462963,1,0,0,0.8645,rock_grid_rect_2,7,16,-1,-1,0.864,0.369444444,-0.255555556,1,0,0,1.4208,Gabbro_rect,4,1.421,0,12,0,12,0,1,,,,,,,,,,,,,
63e7f2a754618d35c2b61ba5,TCN,2024-06-11_13h09.57.865,LearnStrategy,2023.2.3,Win32,60.97560976,9,1,14,0.066666667,0.012037037,1,0,0,0.8331,rock_grid_rect_2,2,14,-1,-1,0.833,0.12962963,-0.406481481,1,0,0,1.2378,Peridotite_rect,7,1.238,0,13,0,13,0,1,,,,,,,,,,,,,
63e7f2a754618d35c2b61ba5,TCN,2024-06-11_13h09.57.865,LearnStrategy,2023.2.3,Win32,60.97560976,9,1,15,0.024074074,-0.011111111,1,0,0,1.1994,rock_grid_rect_2,8,4,-1,-1,1.199,0.361111111,-0.414814815,1,0,0,1.6277,Pumice_rect,8,1.628,1,14,0,14,0,1,,,,,,,,,,,,,
63e7f2a754618d35c2b61ba5,TCN,2024-06-11_13h09.57.865,LearnStrategy,2023.2.3,Win32,60.97560976,9,1,16,0.077777778,-0.009259259,1,0,0,1.1655,rock_grid_rect_2,2,10,-1,-1,1.166,-0.377777778,-0.413888889,1,0,0,1.5529,Obsidian_rect,5,1.553,0,15,0,15,0,1,,,,,,,,,,,,,
63e7f2a754618d35c2b61ba5,TCN,2024-06-11_13h09.57.865,LearnStrategy,2023.2.3,Win32,60.97560976,9,2,1,,,,,,,,6,8,,,,,,,,,,,6,3.738,1,,,,,,-0.106481481,-0.382407407,1,0,0,3.7382,Pegmatite_rect,0,0,0,0,1,
63e7f2a754618d35c2b61ba5,TCN,2024-06-11_13h09.57.865,LearnStrategy,2023.2.3,Win32,60.97560976,9,2,2,,,,,,,,8,5,,,,,,,,,,,8,2.362,1,,,,,,0.371296296,-0.380555556,1,0,0,2.362,Pumice_rect,1,0,1,0,1,
63e7f2a754618d35c2b61ba5,TCN,2024-06-11_13h09.57.865,LearnStrategy,2023.2.3,Win32,60.97560976,9,2,3,,,,,,,,2,11,,,,,,,,,,,6,1.523,0,,,,,,-0.147222222,-0.399074074,1,0,0,1.5226,Pegmatite_rect,2,0,2,0,1,
63e7f2a754618d35c2b61ba5,TCN,2024-06-11_13h09.57.865,LearnStrategy,2023.2.3,Win32,60.97560976,9,2,4,,,,,,,,5,8,,,,,,,,,,,5,1.184,1,,,,,,-0.391666667,-0.390740741,1,0,0,1.1843,Obsidian_rect,3,0,3,0,1,
63e7f2a754618d35c2b61ba5,TCN,2024-06-11_13h09.57.865,LearnStrategy,2023.2.3,Win32,60.97560976,9,2,5,,,,,,,,7,12,,,,,,,,,,,7,2.079,1,,,,,,0.137962963,-0.388888889,1,0,0,2.079,Peridotite_rect,4,0,4,0,1,
63e7f2a754618d35c2b61ba5,TCN,2024-06-11_13h09.57.865,LearnStrategy,2023.2.3,Win32,60.97560976,9,2,6,,,,,,,,1,9,,,,,,,,,,,1,1.893,1,,,,,,-0.409259259,-0.252777778,1,0,0,1.8929,Andesite_rect,5,0,5,0,1,
63e7f2a754618d35c2b61ba5,TCN,2024-06-11_13h09.57.865,LearnStrategy,2023.2.3,Win32,60.97560976,9,2,7,,,,,,,,4,3,,,,,,,,,,,1,1.344,0,,,,,,-0.394444444,-0.256481481,1,0,0,1.3436,Andesite_rect,6,0,6,0,1,
63e7f2a754618d35c2b61ba5,TCN,2024-06-11_13h09.57.865,LearnStrategy,2023.2.3,Win32,60.97560976,9,2,8,,,,,,,,3,14,,,,,,,,,,,3,2.791,1,,,,,,0.126851852,-0.261111111,1,0,0,2.7908,Diorite_rect,7,0,7,0,1,
63e7f2a754618d35c2b61ba5,TCN,2024-06-11_13h09.57.865,LearnStrategy,2023.2.3,Win32,60.97560976,9,2,9,,,,,,,,7,4,,,,,,,,,,,3,1.082,0,,,,,,0.143518519,-0.251851852,1,0,0,1.0819,Diorite_rect,8,0,8,0,1,
63e7f2a754618d35c2b61ba5,TCN,2024-06-11_13h09.57.865,LearnStrategy,2023.2.3,Win32,60.97560976,9,2,10,,,,,,,,2,5,,,,,,,,,,,5,1.626,0,,,,,,-0.439814815,-0.389814815,1,0,0,1.6256,Obsidian_rect,9,0,9,0,1,
63e7f2a754618d35c2b61ba5,TCN,2024-06-11_13h09.57.865,LearnStrategy,2023.2.3,Win32,60.97560976,9,2,11,,,,,,,,3,15,,,,,,,,,,,3,2.176,1,,,,,,0.232407407,-0.24537037,1,0,0,2.1756,Diorite_rect,10,0,10,0,1,
63e7f2a754618d35c2b61ba5,TCN,2024-06-11_13h09.57.865,LearnStrategy,2023.2.3,Win32,60.97560976,9,2,12,,,,,,,,8,3,,,,,,,,,,,8,1.702,1,,,,,,0.403703704,-0.388888889,1,0,0,1.702,Pumice_rect,11,0,11,0,1,
63e7f2a754618d35c2b61ba5,TCN,2024-06-11_13h09.57.865,LearnStrategy,2023.2.3,Win32,60.97560976,9,2,13,,,,,,,,1,16,,,,,,,,,,,6,1.258,0,,,,,,-0.15,-0.388888889,1,0,0,1.2585,Pegmatite_rect,12,0,12,0,1,
63e7f2a754618d35c2b61ba5,TCN,2024-06-11_13h09.57.865,LearnStrategy,2023.2.3,Win32,60.97560976,9,2,14,,,,,,,,6,15,,,,,,,,,,,6,1.352,1,,,,,,-0.133333333,-0.393518519,1,0,0,1.3517,Pegmatite_rect,13,0,13,0,1,
63e7f2a754618d35c2b61ba5,TCN,2024-06-11_13h09.57.865,LearnStrategy,2023.2.3,Win32,60.97560976,9,2,15,,,,,,,,4,13,,,,,,,,,,,7,1.196,0,,,,,,0.14537037,-0.407407407,1,0,0,1.1961,Peridotite_rect,14,0,14,0,1,
63e7f2a754618d35c2b61ba5,TCN,2024-06-11_13h09.57.865,LearnStrategy,2023.2.3,Win32,60.97560976,9,2,16,,,,,,,,5,2,,,,,,,,,,,5,1.189,1,,,,,,-0.403703704,-0.390740741,1,0,0,1.1888,Obsidian_rect,15,0,15,0,1,
63e7f2a754618d35c2b61ba5,TCN,2024-06-11_13h09.57.865,LearnStrategy,2023.2.3,Win32,60.97560976,,,,,,,,,,,,,,,,,,,,,,,,,,,,,,,,,,,,,,,,,,,0
63e7f2a754618d35c2b61ba5,TCN,2024-06-11_13h09.57.865,LearnStrategy,2023.2.3,Win32,60.97560976,,,,,,,,,,,,,,,,,,,,,,,,,,,,,,,,,,,,,,,,,,,
63e7f2a754618d35c2b61ba5,TCN,2024-06-11_13h09.57.865,LearnStrategy,2023.2.3,Win32,60.97560976,,,,,,,,,,,3,12,1,1,,,,,,,,,,,,,,,,,,,,,,,,,,,,,
63e7f2a754618d35c2b61ba5,TCN,2024-06-11_13h09.57.865,LearnStrategy,2023.2.3,Win32,60.97560976,,,,,,,,,,,7,6,1,2,,,,,,,,,,,,,,,,,,,,,,,,,,,,,
63e7f2a754618d35c2b61ba5,TCN,2024-06-11_13h09.57.865,LearnStrategy,2023.2.3,Win32,60.97560976,,,,,,,,,,,6,6,1,3,,,,,,,,,,,,,,,,,,,,,,,,,,,,,
63e7f2a754618d35c2b61ba5,TCN,2024-06-11_13h09.57.865,LearnStrategy,2023.2.3,Win32,60.97560976,,,,,,,,,,,6,7,1,4,,,,,,,,,,,,,,,,,,,,,,,,,,,,,
63e7f2a754618d35c2b61ba5,TCN,2024-06-11_13h09.57.865,LearnStrategy,2023.2.3,Win32,60.97560976,,,,,,,,,,,1,1,1,5,,,,,,,,,,,,,,,,,,,,,,,,,,,,,
63e7f2a754618d35c2b61ba5,TCN,2024-06-11_13h09.57.865,LearnStrategy,2023.2.3,Win32,60.97560976,,,,,,,,,,,2,9,1,6,,,,,,,,,,,,,,,,,,,,,,,,,,,,,
63e7f2a754618d35c2b61ba5,TCN,2024-06-11_13h09.57.865,LearnStrategy,2023.2.3,Win32,60.97560976,,,,,,,,,,,4,14,1,7,,,,,,,,,,,,,,,,,,,,,,,,,,,,,
63e7f2a754618d35c2b61ba5,TCN,2024-06-11_13h09.57.865,LearnStrategy,2023.2.3,Win32,60.97560976,,,,,,,,,,,8,10,1,8,,,,,,,,,,,,,,,,,,,,,,,,,,,,,
63e7f2a754618d35c2b61ba5,TCN,2024-06-11_13h09.57.865,LearnStrategy,2023.2.3,Win32,60.97560976,,,,,,,,,,,2,14,2,1,,,,,,,,,,,,,,,,,,,,,,,,,,,,,
63e7f2a754618d35c2b61ba5,TCN,2024-06-11_13h09.57.865,LearnStrategy,2023.2.3,Win32,60.97560976,,,,,,,,,,,4,8,2,2,,,,,,,,,,,,,,,,,,,,,,,,,,,,,
63e7f2a754618d35c2b61ba5,TCN,2024-06-11_13h09.57.865,LearnStrategy,2023.2.3,Win32,60.97560976,,,,,,,,,,,6,9,2,3,,,,,,,,,,,,,,,,,,,,,,,,,,,,,
63e7f2a754618d35c2b61ba5,TCN,2024-06-11_13h09.57.865,LearnStrategy,2023.2.3,Win32,60.97560976,,,,,,,,,,,5,9,2,4,,,,,,,,,,,,,,,,,,,,,,,,,,,,,
63e7f2a754618d35c2b61ba5,TCN,2024-06-11_13h09.57.865,LearnStrategy,2023.2.3,Win32,60.97560976,,,,,,,,,,,7,8,2,5,,,,,,,,,,,,,,,,,,,,,,,,,,,,,
63e7f2a754618d35c2b61ba5,TCN,2024-06-11_13h09.57.865,LearnStrategy,2023.2.3,Win32,60.97560976,,,,,,,,,,,1,3,2,6,,,,,,,,,,,,,,,,,,,,,,,,,,,,,
63e7f2a754618d35c2b61ba5,TCN,2024-06-11_13h09.57.865,LearnStrategy,2023.2.3,Win32,60.97560976,,,,,,,,,,,7,5,2,7,,,,,,,,,,,,,,,,,,,,,,,,,,,,,
63e7f2a754618d35c2b61ba5,TCN,2024-06-11_13h09.57.865,LearnStrategy,2023.2.3,Win32,60.97560976,,,,,,,,,,,3,11,2,8,,,,,,,,,,,,,,,,,,,,,,,,,,,,,
63e7f2a754618d35c2b61ba5,TCN,2024-06-11_13h09.57.865,LearnStrategy,2023.2.3,Win32,60.97560976,,,,,,,,,,,2,6,3,1,,,,,,,,,,,,,,,,,,,,,,,,,,,,,
63e7f2a754618d35c2b61ba5,TCN,2024-06-11_13h09.57.865,LearnStrategy,2023.2.3,Win32,60.97560976,,,,,,,,,,,4,5,3,2,,,,,,,,,,,,,,,,,,,,,,,,,,,,,
63e7f2a754618d35c2b61ba5,TCN,2024-06-11_13h09.57.865,LearnStrategy,2023.2.3,Win32,60.97560976,,,,,,,,,,,1,2,3,3,,,,,,,,,,,,,,,,,,,,,,,,,,,,,
63e7f2a754618d35c2b61ba5,TCN,2024-06-11_13h09.57.865,LearnStrategy,2023.2.3,Win32,60.97560976,,,,,,,,,,,1,14,3,4,,,,,,,,,,,,,,,,,,,,,,,,,,,,,
63e7f2a754618d35c2b61ba5,TCN,2024-06-11_13h09.57.865,LearnStrategy,2023.2.3,Win32,60.97560976,,,,,,,,,,,8,15,3,5,,,,,,,,,,,,,,,,,,,,,,,,,,,,,
63e7f2a754618d35c2b61ba5,TCN,2024-06-11_13h09.57.865,LearnStrategy,2023.2.3,Win32,60.97560976,,,,,,,,,,,6,16,3,6,,,,,,,,,,,,,,,,,,,,,,,,,,,,,
63e7f2a754618d35c2b61ba5,TCN,2024-06-11_13h09.57.865,LearnStrategy,2023.2.3,Win32,60.97560976,,,,,,,,,,,8,6,3,7,,,,,,,,,,,,,,,,,,,,,,,,,,,,,
63e7f2a754618d35c2b61ba5,TCN,2024-06-11_13h09.57.865,LearnStrategy,2023.2.3,Win32,60.97560976,,,,,,,,,,,3,9,3,8,,,,,,,,,,,,,,,,,,,,,,,,,,,,,
63e7f2a754618d35c2b61ba5,TCN,2024-06-11_13h09.57.865,LearnStrategy,2023.2.3,Win32,60.97560976,,,,,,,,,,,5,4,4,1,,,,,,,,,,,,,,,,,,,,,,,,,,,,,
63e7f2a754618d35c2b61ba5,TCN,2024-06-11_13h09.57.865,LearnStrategy,2023.2.3,Win32,60.97560976,,,,,,,,,,,1,11,4,2,,,,,,,,,,,,,,,,,,,,,,,,,,,,,
63e7f2a754618d35c2b61ba5,TCN,2024-06-11_13h09.57.865,LearnStrategy,2023.2.3,Win32,60.97560976,,,,,,,,,,,5,10,4,3,,,,,,,,,,,,,,,,,,,,,,,,,,,,,
63e7f2a754618d35c2b61ba5,TCN,2024-06-11_13h09.57.865,LearnStrategy,2023.2.3,Win32,60.97560976,,,,,,,,,,,7,16,4,4,,,,,,,,,,,,,,,,,,,,,,,,,,,,,
63e7f2a754618d35c2b61ba5,TCN,2024-06-11_13h09.57.865,LearnStrategy,2023.2.3,Win32,60.97560976,,,,,,,,,,,4,16,4,5,,,,,,,,,,,,,,,,,,,,,,,,,,,,,
63e7f2a754618d35c2b61ba5,TCN,2024-06-11_13h09.57.865,LearnStrategy,2023.2.3,Win32,60.97560976,,,,,,,,,,,1,4,4,6,,,,,,,,,,,,,,,,,,,,,,,,,,,,,
63e7f2a754618d35c2b61ba5,TCN,2024-06-11_13h09.57.865,LearnStrategy,2023.2.3,Win32,60.97560976,,,,,,,,,,,3,2,4,7,,,,,,,,,,,,,,,,,,,,,,,,,,,,,
63e7f2a754618d35c2b61ba5,TCN,2024-06-11_13h09.57.865,LearnStrategy,2023.2.3,Win32,60.97560976,,,,,,,,,,,6,13,4,8,,,,,,,,,,,,,,,,,,,,,,,,,,,,,
63e7f2a754618d35c2b61ba5,TCN,2024-06-11_13h09.57.865,LearnStrategy,2023.2.3,Win32,60.97560976,,,,,,,,,,,4,10,5,1,,,,,,,,,,,,,,,,,,,,,,,,,,,,,
63e7f2a754618d35c2b61ba5,TCN,2024-06-11_13h09.57.865,LearnStrategy,2023.2.3,Win32,60.97560976,,,,,,,,,,,3,7,5,2,,,,,,,,,,,,,,,,,,,,,,,,,,,,,
63e7f2a754618d35c2b61ba5,TCN,2024-06-11_13h09.57.865,LearnStrategy,2023.2.3,Win32,60.97560976,,,,,,,,,,,2,8,5,3,,,,,,,,,,,,,,,,,,,,,,,,,,,,,
63e7f2a754618d35c2b61ba5,TCN,2024-06-11_13h09.57.865,LearnStrategy,2023.2.3,Win32,60.97560976,,,,,,,,,,,5,7,5,4,,,,,,,,,,,,,,,,,,,,,,,,,,,,,
63e7f2a754618d35c2b61ba5,TCN,2024-06-11_13h09.57.865,LearnStrategy,2023.2.3,Win32,60.97560976,,,,,,,,,,,7,15,5,5,,,,,,,,,,,,,,,,,,,,,,,,,,,,,
63e7f2a754618d35c2b61ba5,TCN,2024-06-11_13h09.57.865,LearnStrategy,2023.2.3,Win32,60.97560976,,,,,,,,,,,3,6,5,6,,,,,,,,,,,,,,,,,,,,,,,,,,,,,
63e7f2a754618d35c2b61ba5,TCN,2024-06-11_13h09.57.865,LearnStrategy,2023.2.3,Win32,60.97560976,,,,,,,,,,,5,6,5,7,,,,,,,,,,,,,,,,,,,,,,,,,,,,,
63e7f2a754618d35c2b61ba5,TCN,2024-06-11_13h09.57.865,LearnStrategy,2023.2.3,Win32,60.97560976,,,,,,,,,,,5,12,5,8,,,,,,,,,,,,,,,,,,,,,,,,,,,,,
63e7f2a754618d35c2b61ba5,TCN,2024-06-11_13h09.57.865,LearnStrategy,2023.2.3,Win32,60.97560976,,,,,,,,,,,2,10,6,1,,,,,,,,,,,,,,,,,,,,,,,,,,,,,
63e7f2a754618d35c2b61ba5,TCN,2024-06-11_13h09.57.865,LearnStrategy,2023.2.3,Win32,60.97560976,,,,,,,,,,,2,12,6,2,,,,,,,,,,,,,,,,,,,,,,,,,,,,,
63e7f2a754618d35c2b61ba5,TCN,2024-06-11_13h09.57.865,LearnStrategy,2023.2.3,Win32,60.97560976,,,,,,,,,,,7,14,6,3,,,,,,,,,,,,,,,,,,,,,,,,,,,,,
63e7f2a754618d35c2b61ba5,TCN,2024-06-11_13h09.57.865,LearnStrategy,2023.2.3,Win32,60.97560976,,,,,,,,,,,8,13,6,4,,,,,,,,,,,,,,,,,,,,,,,,,,,,,
63e7f2a754618d35c2b61ba5,TCN,2024-06-11_13h09.57.865,LearnStrategy,2023.2.3,Win32,60.97560976,,,,,,,,,,,4,12,6,5,,,,,,,,,,,,,,,,,,,,,,,,,,,,,
63e7f2a754618d35c2b61ba5,TCN,2024-06-11_13h09.57.865,LearnStrategy,2023.2.3,Win32,60.97560976,,,,,,,,,,,8,2,6,6,,,,,,,,,,,,,,,,,,,,,,,,,,,,,
63e7f2a754618d35c2b61ba5,TCN,2024-06-11_13h09.57.865,LearnStrategy,2023.2.3,Win32,60.97560976,,,,,,,,,,,6,12,6,7,,,,,,,,,,,,,,,,,,,,,,,,,,,,,
63e7f2a754618d35c2b61ba5,TCN,2024-06-11_13h09.57.865,LearnStrategy,2023.2.3,Win32,60.97560976,,,,,,,,,,,8,4,6,8,,,,,,,,,,,,,,,,,,,,,,,,,,,,,
