participant,condition,date,expName,psychopyVersion,OS,frameRate,block,phase,trial,learn_mouse.x,learn_mouse.y,learn_mouse.leftButton,learn_mouse.midButton,learn_mouse.rightButton,learn_mouse.time,learn_mouse.clicked_name,cat,token,row,col,t_select,cat_rec,token_rec,cat_mouse_l.x,cat_mouse_l.y,cat_mouse_l.leftButton,cat_mouse_l.midButton,cat_mouse_l.rightButton,cat_mouse_l.time,cat_mouse_l.clicked_name,resp,t_resp,corr,train_trials.thisRepN,train_trials.thisTrialN,train_trials.thisN,train_trials.thisIndex,train_trials.ran,cat_mouse_t.x,cat_mouse_t.y,cat_mouse_t.leftButton,cat_mouse_t.midButton,cat_mouse_t.rightButton,cat_mouse_t.time,cat_mouse_t.clicked_name,test_trials.thisRepN,test_trials.thisTrialN,test_trials.thisN,test_trials.thisIndex,test_trials.ran
63ed1fa5c88ecae92bf0c920,SCR,2024-06-10_15h36.49.659,LearnStrategy,2023.2.3,Win32,59.52380952,,,,,,,,,,,,,,,,,,,,,,,,,,,,,,,,,,,,,,,,,,,,
63ed1fa5c88ecae92bf0c920,SCR,2024-06-10_15h36.49.659,LearnStrategy,2023.2.3,Win32,59.52380952,1,1,1,-0.417592593,0.259259259,1,0,0,3.0574,Peridotite_10,7,10,5,2,3.057,7,10,0.309259259,-0.378703704,1,0,0,3.0825,Pumice_rect,8,3.082,0,0,0,0,0,1,,,,,,,,,,,,
63ed1fa5c88ecae92bf0c920,SCR,2024-06-10_15h36.49.659,LearnStrategy,2023.2.3,Win32,59.52380952,1,1,2,0.553703704,0.231481481,1,0,0,1.7736,Gabbro_16,4,16,5,8,1.774,4,16,-0.131481481,-0.412962963,1,0,0,5.7922,Pegmatite_rect,6,5.792,0,1,0,1,0,1,,,,,,,,,,,,
63ed1fa5c88ecae92bf0c920,SCR,2024-06-10_15h36.49.659,LearnStrategy,2023.2.3,Win32,59.52380952,1,1,3,0.369444444,-0.12037037,1,0,0,1.9815,Andesite_16,1,16,3,7,1.982,1,16,0.123148148,-0.236111111,1,0,0,3.912,Diorite_rect,3,3.912,0,2,0,2,0,1,,,,,,,,,,,,
63ed1fa5c88ecae92bf0c920,SCR,2024-06-10_15h36.49.659,LearnStrategy,2023.2.3,Win32,59.52380952,1,1,4,0.092592593,0.065740741,1,0,0,1.5674,Diorite_08,3,08,4,5,1.567,3,08,-0.10462963,-0.250925926,1,0,0,3.2752,Basalt_rect,2,3.275,0,3,0,3,0,1,,,,,,,,,,,,
63ed1fa5c88ecae92bf0c920,SCR,2024-06-10_15h36.49.659,LearnStrategy,2023.2.3,Win32,59.52380952,1,1,5,-0.05462963,0.225,1,0,0,2.2071,Pumice_05,8,05,5,4,2.207,8,05,-0.114814815,-0.238888889,1,0,0,2.7954,Basalt_rect,2,2.795,0,4,0,4,0,1,,,,,,,,,,,,
63ed1fa5c88ecae92bf0c920,SCR,2024-06-10_15h36.49.659,LearnStrategy,2023.2.3,Win32,59.52380952,1,1,6,-0.563888889,-0.425,1,0,0,1.5606,Peridotite_14,7,14,1,1,1.561,7,14,-0.187037037,-0.252777778,1,0,0,2.0344,Basalt_rect,2,2.034,0,5,0,5,0,1,,,,,,,,,,,,
63ed1fa5c88ecae92bf0c920,SCR,2024-06-10_15h36.49.659,LearnStrategy,2023.2.3,Win32,59.52380952,1,1,7,-0.053703704,-0.405555556,1,0,0,1.6517,Basalt_14,2,14,1,4,1.652,2,14,0.394444444,-0.263888889,1,0,0,4.6583,Gabbro_rect,4,4.658,0,6,0,6,0,1,,,,,,,,,,,,
63ed1fa5c88ecae92bf0c920,SCR,2024-06-10_15h36.49.659,LearnStrategy,2023.2.3,Win32,59.52380952,1,1,8,-0.403703704,0.392592593,1,0,0,1.7804,Pumice_14,8,14,6,2,1.78,8,14,-0.402777778,-0.40462963,1,0,0,3.0705,Obsidian_rect,5,3.071,0,7,0,7,0,1,,,,,,,,,,,,
63ed1fa5c88ecae92bf0c920,SCR,2024-06-10_15h36.49.659,LearnStrategy,2023.2.3,Win32,59.52380952,1,1,9,-0.198148148,0.217592593,1,0,0,1.2487,Diorite_14,3,14,5,3,1.249,3,14,0.12962963,-0.262962963,1,0,0,4.8292,Diorite_rect,3,4.829,1,8,0,8,0,1,,,,,,,,,,,,
63ed1fa5c88ecae92bf0c920,SCR,2024-06-10_15h36.49.659,LearnStrategy,2023.2.3,Win32,59.52380952,1,1,10,-0.362962963,-0.411111111,1,0,0,1.7885,Gabbro_15,4,15,1,2,1.788,4,15,0.383333333,-0.408333333,1,0,0,4.9969,Pumice_rect,8,4.997,0,9,0,9,0,1,,,,,,,,,,,,
63ed1fa5c88ecae92bf0c920,SCR,2024-06-10_15h36.49.659,LearnStrategy,2023.2.3,Win32,59.52380952,1,1,11,0.548148148,0.367592593,1,0,0,1.8234,Pegmatite_13,6,13,6,8,1.823,6,13,-0.341666667,-0.380555556,1,0,0,3.5828,Obsidian_rect,5,3.583,0,10,0,10,0,1,,,,,,,,,,,,
63ed1fa5c88ecae92bf0c920,SCR,2024-06-10_15h36.49.659,LearnStrategy,2023.2.3,Win32,59.52380952,1,1,12,0.066666667,-0.277777778,1,0,0,1.4727,Obsidian_08,5,08,2,5,1.473,5,08,-0.334259259,-0.394444444,1,0,0,0.9845,Obsidian_rect,5,0.984,1,11,0,11,0,1,,,,,,,,,,,,
63ed1fa5c88ecae92bf0c920,SCR,2024-06-10_15h36.49.659,LearnStrategy,2023.2.3,Win32,59.52380952,1,1,13,0.392592593,0.226851852,1,0,0,1.4595,Basalt_06,2,06,5,7,1.46,2,06,0.355555556,-0.407407407,1,0,0,7.1873,Pumice_rect,8,7.187,0,12,0,12,0,1,,,,,,,,,,,,
63ed1fa5c88ecae92bf0c920,SCR,2024-06-10_15h36.49.659,LearnStrategy,2023.2.3,Win32,59.52380952,1,1,14,-0.561111111,0.256481481,1,0,0,3.278,Pegmatite_16,6,16,5,1,3.278,6,16,-0.140740741,-0.385185185,1,0,0,5.7205,Pegmatite_rect,6,5.72,1,13,0,13,0,1,,,,,,,,,,,,
63ed1fa5c88ecae92bf0c920,SCR,2024-06-10_15h36.49.659,LearnStrategy,2023.2.3,Win32,59.52380952,1,1,15,0.39537037,-0.462037037,1,0,0,1.2601,Andesite_09,1,09,1,7,1.26,1,09,0.161111111,-0.410185185,1,0,0,7.6929,Peridotite_rect,7,7.693,0,14,0,14,0,1,,,,,,,,,,,,
63ed1fa5c88ecae92bf0c920,SCR,2024-06-10_15h36.49.659,LearnStrategy,2023.2.3,Win32,59.52380952,1,1,16,-0.07037037,-0.280555556,1,0,0,1.9055,Obsidian_09,5,09,2,4,1.906,5,09,-0.346296296,-0.393518519,1,0,0,1.4948,Obsidian_rect,5,1.495,1,15,0,15,0,1,,,,,,,,,,,,
63ed1fa5c88ecae92bf0c920,SCR,2024-06-10_15h36.49.659,LearnStrategy,2023.2.3,Win32,59.52380952,1,2,1,,,,,,,,6,10,,,,,,,,,,,,,3,12.629,0,,,,,,0.116666667,-0.234259259,1,0,0,12.6289,Diorite_rect,0,0,0,0,1
63ed1fa5c88ecae92bf0c920,SCR,2024-06-10_15h36.49.659,LearnStrategy,2023.2.3,Win32,59.52380952,1,2,2,,,,,,,,2,08,,,,,,,,,,,,,4,8.291,0,,,,,,0.401851852,-0.257407407,1,0,0,8.2914,Gabbro_rect,1,0,1,0,1
63ed1fa5c88ecae92bf0c920,SCR,2024-06-10_15h36.49.659,LearnStrategy,2023.2.3,Win32,59.52380952,1,2,3,,,,,,,,4,01,,,,,,,,,,,,,1,4.562,0,,,,,,-0.362037037,-0.246296296,1,0,0,4.562,Andesite_rect,2,0,2,0,1
63ed1fa5c88ecae92bf0c920,SCR,2024-06-10_15h36.49.659,LearnStrategy,2023.2.3,Win32,59.52380952,1,2,4,,,,,,,,5,06,,,,,,,,,,,,,5,1.764,1,,,,,,-0.387962963,-0.40462963,1,0,0,1.7636,Obsidian_rect,3,0,3,0,1
63ed1fa5c88ecae92bf0c920,SCR,2024-06-10_15h36.49.659,LearnStrategy,2023.2.3,Win32,59.52380952,1,2,5,,,,,,,,6,03,,,,,,,,,,,,,6,5.045,1,,,,,,-0.093518519,-0.406481481,1,0,0,5.0452,Pegmatite_rect,4,0,4,0,1
63ed1fa5c88ecae92bf0c920,SCR,2024-06-10_15h36.49.659,LearnStrategy,2023.2.3,Win32,59.52380952,1,2,6,,,,,,,,1,11,,,,,,,,,,,,,3,2.61,0,,,,,,0.111111111,-0.261111111,1,0,0,2.6104,Diorite_rect,5,0,5,0,1
63ed1fa5c88ecae92bf0c920,SCR,2024-06-10_15h36.49.659,LearnStrategy,2023.2.3,Win32,59.52380952,1,2,7,,,,,,,,7,04,,,,,,,,,,,,,2,4.551,0,,,,,,-0.115740741,-0.250925926,1,0,0,4.5514,Basalt_rect,6,0,6,0,1
63ed1fa5c88ecae92bf0c920,SCR,2024-06-10_15h36.49.659,LearnStrategy,2023.2.3,Win32,59.52380952,1,2,8,,,,,,,,5,16,,,,,,,,,,,,,5,1.63,1,,,,,,-0.37037037,-0.406481481,1,0,0,1.6295,Obsidian_rect,7,0,7,0,1
63ed1fa5c88ecae92bf0c920,SCR,2024-06-10_15h36.49.659,LearnStrategy,2023.2.3,Win32,59.52380952,1,2,9,,,,,,,,4,11,,,,,,,,,,,,,1,6.906,0,,,,,,-0.339814815,-0.244444444,1,0,0,6.9056,Andesite_rect,8,0,8,0,1
63ed1fa5c88ecae92bf0c920,SCR,2024-06-10_15h36.49.659,LearnStrategy,2023.2.3,Win32,59.52380952,1,2,10,,,,,,,,1,01,,,,,,,,,,,,,4,1.817,0,,,,,,0.338888889,-0.24537037,1,0,0,1.8174,Gabbro_rect,9,0,9,0,1
63ed1fa5c88ecae92bf0c920,SCR,2024-06-10_15h36.49.659,LearnStrategy,2023.2.3,Win32,59.52380952,1,2,11,,,,,,,,3,12,,,,,,,,,,,,,7,3.779,0,,,,,,0.185185185,-0.380555556,1,0,0,3.7791,Peridotite_rect,10,0,10,0,1
63ed1fa5c88ecae92bf0c920,SCR,2024-06-10_15h36.49.659,LearnStrategy,2023.2.3,Win32,59.52380952,1,2,12,,,,,,,,8,02,,,,,,,,,,,,,3,2.438,0,,,,,,0.212962963,-0.25462963,1,0,0,2.4383,Diorite_rect,11,0,11,0,1
63ed1fa5c88ecae92bf0c920,SCR,2024-06-10_15h36.49.659,LearnStrategy,2023.2.3,Win32,59.52380952,1,2,13,,,,,,,,7,06,,,,,,,,,,,,,6,3.601,0,,,,,,-0.10462963,-0.392592593,1,0,0,3.6006,Pegmatite_rect,12,0,12,0,1
63ed1fa5c88ecae92bf0c920,SCR,2024-06-10_15h36.49.659,LearnStrategy,2023.2.3,Win32,59.52380952,1,2,14,,,,,,,,8,06,,,,,,,,,,,,,2,3.964,0,,,,,,-0.118518519,-0.235185185,1,0,0,3.9636,Basalt_rect,13,0,13,0,1
63ed1fa5c88ecae92bf0c920,SCR,2024-06-10_15h36.49.659,LearnStrategy,2023.2.3,Win32,59.52380952,1,2,15,,,,,,,,3,11,,,,,,,,,,,,,8,2.827,0,,,,,,0.418518519,-0.412962963,1,0,0,2.8275,Pumice_rect,14,0,14,0,1
63ed1fa5c88ecae92bf0c920,SCR,2024-06-10_15h36.49.659,LearnStrategy,2023.2.3,Win32,59.52380952,1,2,16,,,,,,,,2,16,,,,,,,,,,,,,4,1.791,0,,,,,,0.392592593,-0.242592593,1,0,0,1.791,Gabbro_rect,15,0,15,0,1
63ed1fa5c88ecae92bf0c920,SCR,2024-06-10_15h36.49.659,LearnStrategy,2023.2.3,Win32,59.52380952,2,1,1,0.378703704,-0.393518519,1,0,0,1.9816,Andesite_09,1,09,1,7,1.982,1,09,0.167592593,-0.396296296,1,0,0,3.0951,Peridotite_rect,7,3.095,0,0,0,0,0,1,,,,,,,,,,,,
63ed1fa5c88ecae92bf0c920,SCR,2024-06-10_15h36.49.659,LearnStrategy,2023.2.3,Win32,59.52380952,2,1,2,-0.260185185,0.393518519,1,0,0,1.491,Gabbro_03,4,03,6,3,1.491,4,03,-0.127777778,-0.397222222,1,0,0,2.7352,Pegmatite_rect,6,2.735,0,1,0,1,0,1,,,,,,,,,,,,
63ed1fa5c88ecae92bf0c920,SCR,2024-06-10_15h36.49.659,LearnStrategy,2023.2.3,Win32,59.52380952,2,1,3,0.053703704,0.247222222,1,0,0,1.0736,Diorite_15,3,15,5,5,1.074,3,15,-0.115740741,-0.230555556,1,0,0,1.561,Basalt_rect,2,1.561,0,2,0,2,0,1,,,,,,,,,,,,
63ed1fa5c88ecae92bf0c920,SCR,2024-06-10_15h36.49.659,LearnStrategy,2023.2.3,Win32,59.52380952,2,1,4,0.427777778,-0.076851852,1,0,0,1.0102,Andesite_16,1,16,3,7,1.01,1,16,-0.360185185,-0.250925926,1,0,0,4.9273,Andesite_rect,1,4.927,1,3,0,3,0,1,,,,,,,,,,,,
63ed1fa5c88ecae92bf0c920,SCR,2024-06-10_15h36.49.659,LearnStrategy,2023.2.3,Win32,59.52380952,2,1,5,-0.398148148,0.223148148,1,0,0,1.2035,Peridotite_10,7,10,5,2,1.204,7,10,-0.356481481,-0.251851852,1,0,0,1.4334,Andesite_rect,1,1.433,0,4,0,4,0,1,,,,,,,,,,,,
63ed1fa5c88ecae92bf0c920,SCR,2024-06-10_15h36.49.659,LearnStrategy,2023.2.3,Win32,59.52380952,2,1,6,-0.371296296,0.383333333,1,0,0,1.5355,Pumice_14,8,14,6,2,1.535,8,14,0.338888889,-0.261111111,1,0,0,0.9528,Gabbro_rect,4,0.953,0,5,0,5,0,1,,,,,,,,,,,,
63ed1fa5c88ecae92bf0c920,SCR,2024-06-10_15h36.49.659,LearnStrategy,2023.2.3,Win32,59.52380952,2,1,7,0.550925926,-0.085185185,1,0,0,1.3648,Basalt_01,2,01,3,8,1.365,2,01,0.348148148,-0.241666667,1,0,0,0.9897,Gabbro_rect,4,0.99,0,6,0,6,0,1,,,,,,,,,,,,
63ed1fa5c88ecae92bf0c920,SCR,2024-06-10_15h36.49.659,LearnStrategy,2023.2.3,Win32,59.52380952,2,1,8,-0.571296296,0.088888889,1,0,0,0.9363,Pumice_08,8,08,4,1,0.936,8,08,0.071296296,-0.239814815,1,0,0,1.4503,Diorite_rect,3,1.45,0,7,0,7,0,1,,,,,,,,,,,,
63ed1fa5c88ecae92bf0c920,SCR,2024-06-10_15h36.49.659,LearnStrategy,2023.2.3,Win32,59.52380952,2,1,9,0.428703704,0.078703704,1,0,0,0.8993,Gabbro_05,4,05,4,7,0.899,4,05,0.142592593,-0.39537037,1,0,0,1.5151,Peridotite_rect,7,1.515,0,8,0,8,0,1,,,,,,,,,,,,
63ed1fa5c88ecae92bf0c920,SCR,2024-06-10_15h36.49.659,LearnStrategy,2023.2.3,Win32,59.52380952,2,1,10,-0.560185185,0.410185185,1,0,0,1.1491,Andesite_06,1,06,6,1,1.149,1,06,-0.433333333,-0.238888889,1,0,0,1.3796,Andesite_rect,1,1.38,1,9,0,9,0,1,,,,,,,,,,,,
63ed1fa5c88ecae92bf0c920,SCR,2024-06-10_15h36.49.659,LearnStrategy,2023.2.3,Win32,59.52380952,2,1,11,0.096296296,0.222222222,1,0,0,1.8595,Diorite_15,3,15,5,5,1.86,3,15,0.387037037,-0.378703704,1,0,0,1.4834,Pumice_rect,8,1.483,0,10,0,10,0,1,,,,,,,,,,,,
63ed1fa5c88ecae92bf0c920,SCR,2024-06-10_15h36.49.659,LearnStrategy,2023.2.3,Win32,59.52380952,2,1,12,0.252777778,0.241666667,1,0,0,1.2718,Basalt_11,2,11,5,6,1.272,2,11,-0.356481481,-0.241666667,1,0,0,4.5254,Andesite_rect,1,4.525,0,11,0,11,0,1,,,,,,,,,,,,
63ed1fa5c88ecae92bf0c920,SCR,2024-06-10_15h36.49.659,LearnStrategy,2023.2.3,Win32,59.52380952,2,1,13,-0.392592593,0.088888889,1,0,0,1.0372,Peridotite_16,7,16,4,2,1.037,7,16,-0.142592593,-0.417592593,1,0,0,2.9351,Pegmatite_rect,6,2.935,0,12,0,12,0,1,,,,,,,,,,,,
63ed1fa5c88ecae92bf0c920,SCR,2024-06-10_15h36.49.659,LearnStrategy,2023.2.3,Win32,59.52380952,2,1,14,-0.571296296,0.273148148,1,0,0,1.3104,Pegmatite_16,6,16,5,1,1.31,6,16,-0.086111111,-0.409259259,1,0,0,0.9521,Pegmatite_rect,6,0.952,1,13,0,13,0,1,,,,,,,,,,,,
63ed1fa5c88ecae92bf0c920,SCR,2024-06-10_15h36.49.659,LearnStrategy,2023.2.3,Win32,59.52380952,2,1,15,0.534259259,-0.413888889,1,0,0,1.6093,Gabbro_10,4,10,1,8,1.609,4,10,-0.084259259,-0.244444444,1,0,0,1.5773,Basalt_rect,2,1.577,0,14,0,14,0,1,,,,,,,,,,,,
63ed1fa5c88ecae92bf0c920,SCR,2024-06-10_15h36.49.659,LearnStrategy,2023.2.3,Win32,59.52380952,2,1,16,-0.377777778,-0.089814815,1,0,0,0.9424,Diorite_13,3,13,3,2,0.942,3,13,-0.085185185,-0.25462963,1,0,0,3.3931,Basalt_rect,2,3.393,0,15,0,15,0,1,,,,,,,,,,,,
63ed1fa5c88ecae92bf0c920,SCR,2024-06-10_15h36.49.659,LearnStrategy,2023.2.3,Win32,59.52380952,2,2,1,,,,,,,,3,10,,,,,,,,,,,,,1,1.862,0,,,,,,-0.393518519,-0.237962963,1,0,0,1.862,Andesite_rect,0,0,0,0,1
63ed1fa5c88ecae92bf0c920,SCR,2024-06-10_15h36.49.659,LearnStrategy,2023.2.3,Win32,59.52380952,2,2,2,,,,,,,,7,12,,,,,,,,,,,,,7,5.398,1,,,,,,0.116666667,-0.403703704,1,0,0,5.3975,Peridotite_rect,1,0,1,0,1
63ed1fa5c88ecae92bf0c920,SCR,2024-06-10_15h36.49.659,LearnStrategy,2023.2.3,Win32,59.52380952,2,2,3,,,,,,,,5,02,,,,,,,,,,,,,5,1.573,1,,,,,,-0.391666667,-0.394444444,1,0,0,1.5734,Obsidian_rect,2,0,2,0,1
63ed1fa5c88ecae92bf0c920,SCR,2024-06-10_15h36.49.659,LearnStrategy,2023.2.3,Win32,59.52380952,2,2,4,,,,,,,,2,10,,,,,,,,,,,,,8,2.204,0,,,,,,0.353703704,-0.393518519,1,0,0,2.2041,Pumice_rect,3,0,3,0,1
63ed1fa5c88ecae92bf0c920,SCR,2024-06-10_15h36.49.659,LearnStrategy,2023.2.3,Win32,59.52380952,2,2,5,,,,,,,,3,06,,,,,,,,,,,,,3,3.24,1,,,,,,0.123148148,-0.234259259,1,0,0,3.2395,Diorite_rect,4,0,4,0,1
63ed1fa5c88ecae92bf0c920,SCR,2024-06-10_15h36.49.659,LearnStrategy,2023.2.3,Win32,59.52380952,2,2,6,,,,,,,,8,04,,,,,,,,,,,,,2,5.234,0,,,,,,-0.114814815,-0.258333333,1,0,0,5.234,Basalt_rect,5,0,5,0,1
63ed1fa5c88ecae92bf0c920,SCR,2024-06-10_15h36.49.659,LearnStrategy,2023.2.3,Win32,59.52380952,2,2,7,,,,,,,,8,03,,,,,,,,,,,,,2,1.511,0,,,,,,-0.109259259,-0.258333333,1,0,0,1.5114,Basalt_rect,6,0,6,0,1
63ed1fa5c88ecae92bf0c920,SCR,2024-06-10_15h36.49.659,LearnStrategy,2023.2.3,Win32,59.52380952,2,2,8,,,,,,,,4,14,,,,,,,,,,,,,8,4.073,0,,,,,,0.37037037,-0.406481481,1,0,0,4.073,Pumice_rect,7,0,7,0,1
63ed1fa5c88ecae92bf0c920,SCR,2024-06-10_15h36.49.659,LearnStrategy,2023.2.3,Win32,59.52380952,2,2,9,,,,,,,,1,10,,,,,,,,,,,,,1,4.193,1,,,,,,-0.424074074,-0.246296296,1,0,0,4.1932,Andesite_rect,8,0,8,0,1
63ed1fa5c88ecae92bf0c920,SCR,2024-06-10_15h36.49.659,LearnStrategy,2023.2.3,Win32,59.52380952,2,2,10,,,,,,,,1,14,,,,,,,,,,,,,6,4.743,0,,,,,,-0.131481481,-0.399074074,1,0,0,4.7433,Pegmatite_rect,9,0,9,0,1
63ed1fa5c88ecae92bf0c920,SCR,2024-06-10_15h36.49.659,LearnStrategy,2023.2.3,Win32,59.52380952,2,2,11,,,,,,,,2,12,,,,,,,,,,,,,1,3.946,0,,,,,,-0.360185185,-0.234259259,1,0,0,3.946,Andesite_rect,10,0,10,0,1
63ed1fa5c88ecae92bf0c920,SCR,2024-06-10_15h36.49.659,LearnStrategy,2023.2.3,Win32,59.52380952,2,2,12,,,,,,,,7,05,,,,,,,,,,,,,3,2.562,0,,,,,,0.10462963,-0.259259259,1,0,0,2.5618,Diorite_rect,11,0,11,0,1
63ed1fa5c88ecae92bf0c920,SCR,2024-06-10_15h36.49.659,LearnStrategy,2023.2.3,Win32,59.52380952,2,2,13,,,,,,,,5,07,,,,,,,,,,,,,5,1.606,1,,,,,,-0.417592593,-0.401851852,1,0,0,1.606,Obsidian_rect,12,0,12,0,1
63ed1fa5c88ecae92bf0c920,SCR,2024-06-10_15h36.49.659,LearnStrategy,2023.2.3,Win32,59.52380952,2,2,14,,,,,,,,6,08,,,,,,,,,,,,,6,1.756,1,,,,,,-0.108333333,-0.393518519,1,0,0,1.7561,Pegmatite_rect,13,0,13,0,1
63ed1fa5c88ecae92bf0c920,SCR,2024-06-10_15h36.49.659,LearnStrategy,2023.2.3,Win32,59.52380952,2,2,15,,,,,,,,4,12,,,,,,,,,,,,,1,1.693,0,,,,,,-0.39537037,-0.236111111,1,0,0,1.6927,Andesite_rect,14,0,14,0,1
63ed1fa5c88ecae92bf0c920,SCR,2024-06-10_15h36.49.659,LearnStrategy,2023.2.3,Win32,59.52380952,2,2,16,,,,,,,,6,07,,,,,,,,,,,,,6,1.526,1,,,,,,-0.15462963,-0.390740741,1,0,0,1.5256,Pegmatite_rect,15,0,15,0,1
63ed1fa5c88ecae92bf0c920,SCR,2024-06-10_15h36.49.659,LearnStrategy,2023.2.3,Win32,59.52380952,3,1,1,-0.569444444,-0.246296296,1,0,0,2.1913,Pumice_13,8,13,2,1,2.191,8,13,0.375925926,-0.24537037,1,0,0,1.6681,Gabbro_rect,4,1.668,0,0,0,0,0,1,,,,,,,,,,,,
63ed1fa5c88ecae92bf0c920,SCR,2024-06-10_15h36.49.659,LearnStrategy,2023.2.3,Win32,59.52380952,3,1,2,-0.242592593,0.372222222,1,0,0,1.3453,Gabbro_03,4,03,6,3,1.345,4,03,-0.362037037,-0.264814815,1,0,0,1.6129,Andesite_rect,1,1.613,0,1,0,1,0,1,,,,,,,,,,,,
63ed1fa5c88ecae92bf0c920,SCR,2024-06-10_15h36.49.659,LearnStrategy,2023.2.3,Win32,59.52380952,3,1,3,0.57962963,0.414814815,1,0,0,1.8423,Pegmatite_13,6,13,6,8,1.842,6,13,-0.168518519,-0.392592593,1,0,0,0.7891,Pegmatite_rect,6,0.789,1,2,0,2,0,1,,,,,,,,,,,,
63ed1fa5c88ecae92bf0c920,SCR,2024-06-10_15h36.49.659,LearnStrategy,2023.2.3,Win32,59.52380952,3,1,4,0.265740741,-0.405555556,1,0,0,1.2592,Andesite_03,1,03,1,6,1.259,1,03,-0.409259259,-0.244444444,1,0,0,0.777,Andesite_rect,1,0.777,1,3,0,3,0,1,,,,,,,,,,,,
63ed1fa5c88ecae92bf0c920,SCR,2024-06-10_15h36.49.659,LearnStrategy,2023.2.3,Win32,59.52380952,3,1,5,0.542592593,-0.402777778,1,0,0,1.0401,Gabbro_10,4,10,1,8,1.04,4,10,0.103703704,-0.24537037,1,0,0,1.2958,Diorite_rect,3,1.296,0,4,0,4,0,1,,,,,,,,,,,,
63ed1fa5c88ecae92bf0c920,SCR,2024-06-10_15h36.49.659,LearnStrategy,2023.2.3,Win32,59.52380952,3,1,6,-0.576851852,-0.438888889,1,0,0,1.0256,Peridotite_14,7,14,1,1,1.026,7,14,0.115740741,-0.267592593,1,0,0,0.9455,Diorite_rect,3,0.946,0,5,0,5,0,1,,,,,,,,,,,,
63ed1fa5c88ecae92bf0c920,SCR,2024-06-10_15h36.49.659,LearnStrategy,2023.2.3,Win32,59.52380952,3,1,7,0.415740741,0.250925926,1,0,0,1.4782,Basalt_06,2,06,5,7,1.478,2,06,0.447222222,-0.398148148,1,0,0,1.0411,Pumice_rect,8,1.041,0,6,0,6,0,1,,,,,,,,,,,,
63ed1fa5c88ecae92bf0c920,SCR,2024-06-10_15h36.49.659,LearnStrategy,2023.2.3,Win32,59.52380952,3,1,8,-0.52962963,-0.097222222,1,0,0,0.9468,Basalt_05,2,05,3,1,0.947,2,05,-0.099074074,-0.233333333,1,0,0,0.9108,Basalt_rect,2,0.911,1,7,0,7,0,1,,,,,,,,,,,,
63ed1fa5c88ecae92bf0c920,SCR,2024-06-10_15h36.49.659,LearnStrategy,2023.2.3,Win32,59.52380952,3,1,9,0.37037037,-0.383333333,1,0,0,0.9951,Andesite_09,1,09,1,7,0.995,1,09,0.372222222,-0.246296296,1,0,0,1.9981,Gabbro_rect,4,1.998,0,8,0,8,0,1,,,,,,,,,,,,
63ed1fa5c88ecae92bf0c920,SCR,2024-06-10_15h36.49.659,LearnStrategy,2023.2.3,Win32,59.52380952,3,1,10,-0.374074074,-0.242592593,1,0,0,1.0338,Pumice_09,8,09,2,2,1.034,8,09,0.37962963,-0.393518519,1,0,0,2.335,Pumice_rect,8,2.335,1,9,0,9,0,1,,,,,,,,,,,,
63ed1fa5c88ecae92bf0c920,SCR,2024-06-10_15h36.49.659,LearnStrategy,2023.2.3,Win32,59.52380952,3,1,11,0.218518519,-0.092592593,1,0,0,0.8916,Basalt_04,2,04,3,6,0.892,2,04,0.138888889,-0.247222222,1,0,0,1.6269,Diorite_rect,3,1.627,0,10,0,10,0,1,,,,,,,,,,,,
63ed1fa5c88ecae92bf0c920,SCR,2024-06-10_15h36.49.659,LearnStrategy,2023.2.3,Win32,59.52380952,3,1,12,0.081481481,-0.086111111,1,0,0,0.8725,Diorite_07,3,07,3,5,0.872,3,07,0.091666667,-0.421296296,1,0,0,1.6363,Peridotite_rect,7,1.636,0,11,0,11,0,1,,,,,,,,,,,,
63ed1fa5c88ecae92bf0c920,SCR,2024-06-10_15h36.49.659,LearnStrategy,2023.2.3,Win32,59.52380952,3,1,13,0.548148148,-0.386111111,1,0,0,1.1498,Gabbro_10,4,10,1,8,1.15,4,10,0.356481481,-0.391666667,1,0,0,2.1063,Pumice_rect,8,2.106,0,12,0,12,0,1,,,,,,,,,,,,
63ed1fa5c88ecae92bf0c920,SCR,2024-06-10_15h36.49.659,LearnStrategy,2023.2.3,Win32,59.52380952,3,1,14,0.063888889,0.235185185,1,0,0,1.2946,Diorite_15,3,15,5,5,1.295,3,15,0.17962963,-0.258333333,1,0,0,3.6755,Diorite_rect,3,3.676,1,13,0,13,0,1,,,,,,,,,,,,
63ed1fa5c88ecae92bf0c920,SCR,2024-06-10_15h36.49.659,LearnStrategy,2023.2.3,Win32,59.52380952,3,1,15,-0.413888889,0.412037037,1,0,0,1.3307,Pumice_14,8,14,6,2,1.331,8,14,0.333333333,-0.419444444,1,0,0,2.0227,Pumice_rect,8,2.023,1,14,0,14,0,1,,,,,,,,,,,,
63ed1fa5c88ecae92bf0c920,SCR,2024-06-10_15h36.49.659,LearnStrategy,2023.2.3,Win32,59.52380952,3,1,16,-0.244444444,-0.264814815,1,0,0,1.1427,Peridotite_08,7,08,2,3,1.143,7,08,-0.098148148,-0.268518519,1,0,0,3.8551,Basalt_rect,2,3.855,0,15,0,15,0,1,,,,,,,,,,,,
63ed1fa5c88ecae92bf0c920,SCR,2024-06-10_15h36.49.659,LearnStrategy,2023.2.3,Win32,59.52380952,3,2,1,,,,,,,,3,02,,,,,,,,,,,,,3,5.376,1,,,,,,0.126851852,-0.258333333,1,0,0,5.3759,Diorite_rect,0,0,0,0,1
63ed1fa5c88ecae92bf0c920,SCR,2024-06-10_15h36.49.659,LearnStrategy,2023.2.3,Win32,59.52380952,3,2,2,,,,,,,,5,14,,,,,,,,,,,,,5,1.989,1,,,,,,-0.401851852,-0.40462963,1,0,0,1.9891,Obsidian_rect,1,0,1,0,1
63ed1fa5c88ecae92bf0c920,SCR,2024-06-10_15h36.49.659,LearnStrategy,2023.2.3,Win32,59.52380952,3,2,3,,,,,,,,4,08,,,,,,,,,,,,,1,2.024,0,,,,,,-0.349074074,-0.240740741,1,0,0,2.024,Andesite_rect,2,0,2,0,1
63ed1fa5c88ecae92bf0c920,SCR,2024-06-10_15h36.49.659,LearnStrategy,2023.2.3,Win32,59.52380952,3,2,4,,,,,,,,8,15,,,,,,,,,,,,,8,1.532,1,,,,,,0.384259259,-0.402777778,1,0,0,1.5319,Pumice_rect,3,0,3,0,1
63ed1fa5c88ecae92bf0c920,SCR,2024-06-10_15h36.49.659,LearnStrategy,2023.2.3,Win32,59.52380952,3,2,5,,,,,,,,4,09,,,,,,,,,,,,,7,5.805,0,,,,,,0.075925926,-0.400925926,1,0,0,5.8054,Peridotite_rect,4,0,4,0,1
63ed1fa5c88ecae92bf0c920,SCR,2024-06-10_15h36.49.659,LearnStrategy,2023.2.3,Win32,59.52380952,3,2,6,,,,,,,,6,15,,,,,,,,,,,,,6,2.004,1,,,,,,-0.128703704,-0.407407407,1,0,0,2.0044,Pegmatite_rect,5,0,5,0,1
63ed1fa5c88ecae92bf0c920,SCR,2024-06-10_15h36.49.659,LearnStrategy,2023.2.3,Win32,59.52380952,3,2,7,,,,,,,,6,11,,,,,,,,,,,,,6,1.788,1,,,,,,-0.115740741,-0.402777778,1,0,0,1.7885,Pegmatite_rect,6,0,6,0,1
63ed1fa5c88ecae92bf0c920,SCR,2024-06-10_15h36.49.659,LearnStrategy,2023.2.3,Win32,59.52380952,3,2,8,,,,,,,,1,07,,,,,,,,,,,,,1,1.864,1,,,,,,-0.375925926,-0.233333333,1,0,0,1.8636,Andesite_rect,7,0,7,0,1
63ed1fa5c88ecae92bf0c920,SCR,2024-06-10_15h36.49.659,LearnStrategy,2023.2.3,Win32,59.52380952,3,2,9,,,,,,,,3,09,,,,,,,,,,,,,3,4.005,1,,,,,,0.107407407,-0.259259259,1,0,0,4.0047,Diorite_rect,8,0,8,0,1
63ed1fa5c88ecae92bf0c920,SCR,2024-06-10_15h36.49.659,LearnStrategy,2023.2.3,Win32,59.52380952,3,2,10,,,,,,,,2,02,,,,,,,,,,,,,1,2.138,0,,,,,,-0.393518519,-0.260185185,1,0,0,2.1384,Andesite_rect,9,0,9,0,1
63ed1fa5c88ecae92bf0c920,SCR,2024-06-10_15h36.49.659,LearnStrategy,2023.2.3,Win32,59.52380952,3,2,11,,,,,,,,2,09,,,,,,,,,,,,,4,4.223,0,,,,,,0.368518519,-0.251851852,1,0,0,4.2233,Gabbro_rect,10,0,10,0,1
63ed1fa5c88ecae92bf0c920,SCR,2024-06-10_15h36.49.659,LearnStrategy,2023.2.3,Win32,59.52380952,3,2,12,,,,,,,,5,04,,,,,,,,,,,,,5,1.356,1,,,,,,-0.392592593,-0.411111111,1,0,0,1.3555,Obsidian_rect,11,0,11,0,1
63ed1fa5c88ecae92bf0c920,SCR,2024-06-10_15h36.49.659,LearnStrategy,2023.2.3,Win32,59.52380952,3,2,13,,,,,,,,7,02,,,,,,,,,,,,,3,6.811,0,,,,,,0.094444444,-0.265740741,1,0,0,6.8114,Diorite_rect,12,0,12,0,1
63ed1fa5c88ecae92bf0c920,SCR,2024-06-10_15h36.49.659,LearnStrategy,2023.2.3,Win32,59.52380952,3,2,14,,,,,,,,1,02,,,,,,,,,,,,,4,10.589,0,,,,,,0.359259259,-0.251851852,1,0,0,10.5888,Gabbro_rect,13,0,13,0,1
63ed1fa5c88ecae92bf0c920,SCR,2024-06-10_15h36.49.659,LearnStrategy,2023.2.3,Win32,59.52380952,3,2,15,,,,,,,,7,13,,,,,,,,,,,,,7,2.357,1,,,,,,0.15,-0.391666667,1,0,0,2.3572,Peridotite_rect,14,0,14,0,1
63ed1fa5c88ecae92bf0c920,SCR,2024-06-10_15h36.49.659,LearnStrategy,2023.2.3,Win32,59.52380952,3,2,16,,,,,,,,8,10,,,,,,,,,,,,,1,6.463,0,,,,,,-0.364814815,-0.255555556,1,0,0,6.4633,Andesite_rect,15,0,15,0,1
63ed1fa5c88ecae92bf0c920,SCR,2024-06-10_15h36.49.659,LearnStrategy,2023.2.3,Win32,59.52380952,4,1,1,0.426851852,-0.107407407,1,0,0,1.9416,Andesite_16,1,16,3,7,1.942,1,16,-0.350925926,-0.246296296,1,0,0,1.051,Andesite_rect,1,1.051,1,0,0,0,0,1,,,,,,,,,,,,
63ed1fa5c88ecae92bf0c920,SCR,2024-06-10_15h36.49.659,LearnStrategy,2023.2.3,Win32,59.52380952,4,1,2,-0.056481481,-0.371296296,1,0,0,1.0482,Basalt_14,2,14,1,4,1.048,2,14,-0.1,-0.232407407,1,0,0,1.8262,Basalt_rect,2,1.826,1,1,0,1,0,1,,,,,,,,,,,,
63ed1fa5c88ecae92bf0c920,SCR,2024-06-10_15h36.49.659,LearnStrategy,2023.2.3,Win32,59.52380952,4,1,3,0.543518519,-0.402777778,1,0,0,1.1346,Gabbro_10,4,10,1,8,1.135,4,10,0.211111111,-0.401851852,1,0,0,1.7677,Peridotite_rect,7,1.768,0,2,0,2,0,1,,,,,,,,,,,,
63ed1fa5c88ecae92bf0c920,SCR,2024-06-10_15h36.49.659,LearnStrategy,2023.2.3,Win32,59.52380952,4,1,4,0.081481481,0.087037037,1,0,0,0.9257,Diorite_08,3,08,4,5,0.926,3,08,0.211111111,-0.255555556,1,0,0,0.9763,Diorite_rect,3,0.976,1,3,0,3,0,1,,,,,,,,,,,,
63ed1fa5c88ecae92bf0c920,SCR,2024-06-10_15h36.49.659,LearnStrategy,2023.2.3,Win32,59.52380952,4,1,5,0.550925926,0.222222222,1,0,0,1.336,Gabbro_16,4,16,5,8,1.336,4,16,0.334259259,-0.237962963,1,0,0,2.78,Gabbro_rect,4,2.78,1,4,0,4,0,1,,,,,,,,,,,,
63ed1fa5c88ecae92bf0c920,SCR,2024-06-10_15h36.49.659,LearnStrategy,2023.2.3,Win32,59.52380952,4,1,6,-0.566666667,-0.257407407,1,0,0,1.282,Pumice_13,8,13,2,1,1.282,8,13,0.351851852,-0.390740741,1,0,0,1.1242,Pumice_rect,8,1.124,1,5,0,5,0,1,,,,,,,,,,,,
63ed1fa5c88ecae92bf0c920,SCR,2024-06-10_15h36.49.659,LearnStrategy,2023.2.3,Win32,59.52380952,4,1,7,0.237962963,-0.409259259,1,0,0,1.0596,Andesite_03,1,03,1,6,1.06,1,03,-0.360185185,-0.267592593,1,0,0,4.2278,Andesite_rect,1,4.228,1,6,0,6,0,1,,,,,,,,,,,,
63ed1fa5c88ecae92bf0c920,SCR,2024-06-10_15h36.49.659,LearnStrategy,2023.2.3,Win32,59.52380952,4,1,8,-0.539814815,0.390740741,1,0,0,1.3298,Andesite_06,1,06,6,1,1.33,1,06,-0.412962963,-0.239814815,1,0,0,0.894,Andesite_rect,1,0.894,1,7,0,7,0,1,,,,,,,,,,,,
63ed1fa5c88ecae92bf0c920,SCR,2024-06-10_15h36.49.659,LearnStrategy,2023.2.3,Win32,59.52380952,4,1,9,0.546296296,-0.418518519,1,0,0,0.9528,Gabbro_10,4,10,1,8,0.953,4,10,0.378703704,-0.264814815,1,0,0,1.5876,Gabbro_rect,4,1.588,1,8,0,8,0,1,,,,,,,,,,,,
63ed1fa5c88ecae92bf0c920,SCR,2024-06-10_15h36.49.659,LearnStrategy,2023.2.3,Win32,59.52380952,4,1,10,0.575,0.387962963,1,0,0,1.047,Pegmatite_13,6,13,6,8,1.047,6,13,-0.078703704,-0.400925926,1,0,0,1.4402,Pegmatite_rect,6,1.44,1,9,0,9,0,1,,,,,,,,,,,,
63ed1fa5c88ecae92bf0c920,SCR,2024-06-10_15h36.49.659,LearnStrategy,2023.2.3,Win32,59.52380952,4,1,11,0.237037037,-0.113888889,1,0,0,0.7894,Basalt_04,2,04,3,6,0.789,2,04,-0.084259259,-0.249074074,1,0,0,4.5069,Basalt_rect,2,4.507,1,10,0,10,0,1,,,,,,,,,,,,
63ed1fa5c88ecae92bf0c920,SCR,2024-06-10_15h36.49.659,LearnStrategy,2023.2.3,Win32,59.52380952,4,1,12,0.081481481,0.115740741,1,0,0,0.9056,Diorite_08,3,08,4,5,0.906,3,08,0.121296296,-0.4,1,0,0,1.2197,Peridotite_rect,7,1.22,0,11,0,11,0,1,,,,,,,,,,,,
63ed1fa5c88ecae92bf0c920,SCR,2024-06-10_15h36.49.659,LearnStrategy,2023.2.3,Win32,59.52380952,4,1,13,-0.399074074,0.264814815,1,0,0,0.9831,Peridotite_10,7,10,5,2,0.983,7,10,-0.156481481,-0.253703704,1,0,0,1.4051,Basalt_rect,2,1.405,0,12,0,12,0,1,,,,,,,,,,,,
63ed1fa5c88ecae92bf0c920,SCR,2024-06-10_15h36.49.659,LearnStrategy,2023.2.3,Win32,59.52380952,4,1,14,0.510185185,-0.100925926,1,0,0,1.1267,Basalt_01,2,01,3,8,1.127,2,01,0.393518519,-0.384259259,1,0,0,1.3443,Pumice_rect,8,1.344,0,13,0,13,0,1,,,,,,,,,,,,
63ed1fa5c88ecae92bf0c920,SCR,2024-06-10_15h36.49.659,LearnStrategy,2023.2.3,Win32,59.52380952,4,1,15,-0.559259259,-0.269444444,1,0,0,1.0377,Pumice_13,8,13,2,1,1.038,8,13,0.318518519,-0.400925926,1,0,0,0.9169,Pumice_rect,8,0.917,1,14,0,14,0,1,,,,,,,,,,,,
63ed1fa5c88ecae92bf0c920,SCR,2024-06-10_15h36.49.659,LearnStrategy,2023.2.3,Win32,59.52380952,4,1,16,-0.365740741,0.096296296,1,0,0,0.8741,Peridotite_16,7,16,4,2,0.874,7,16,0.093518519,-0.406481481,1,0,0,1.8379,Peridotite_rect,7,1.838,1,15,0,15,0,1,,,,,,,,,,,,
63ed1fa5c88ecae92bf0c920,SCR,2024-06-10_15h36.49.659,LearnStrategy,2023.2.3,Win32,59.52380952,4,2,1,,,,,,,,6,10,,,,,,,,,,,,,7,7.522,0,,,,,,0.085185185,-0.400925926,1,0,0,7.5216,Peridotite_rect,0,0,0,0,1
63ed1fa5c88ecae92bf0c920,SCR,2024-06-10_15h36.49.659,LearnStrategy,2023.2.3,Win32,59.52380952,4,2,2,,,,,,,,5,14,,,,,,,,,,,,,5,1.639,1,,,,,,-0.37037037,-0.401851852,1,0,0,1.6394,Obsidian_rect,1,0,1,0,1
63ed1fa5c88ecae92bf0c920,SCR,2024-06-10_15h36.49.659,LearnStrategy,2023.2.3,Win32,59.52380952,4,2,3,,,,,,,,3,11,,,,,,,,,,,,,3,3.935,1,,,,,,0.171296296,-0.233333333,1,0,0,3.9347,Diorite_rect,2,0,2,0,1
63ed1fa5c88ecae92bf0c920,SCR,2024-06-10_15h36.49.659,LearnStrategy,2023.2.3,Win32,59.52380952,4,2,4,,,,,,,,2,16,,,,,,,,,,,,,4,4.215,0,,,,,,0.387962963,-0.248148148,1,0,0,4.2145,Gabbro_rect,3,0,3,0,1
63ed1fa5c88ecae92bf0c920,SCR,2024-06-10_15h36.49.659,LearnStrategy,2023.2.3,Win32,59.52380952,4,2,5,,,,,,,,8,04,,,,,,,,,,,,,8,1.642,1,,,,,,0.382407407,-0.417592593,1,0,0,1.6423,Pumice_rect,4,0,4,0,1
63ed1fa5c88ecae92bf0c920,SCR,2024-06-10_15h36.49.659,LearnStrategy,2023.2.3,Win32,59.52380952,4,2,6,,,,,,,,8,15,,,,,,,,,,,,,8,2.423,1,,,,,,0.358333333,-0.401851852,1,0,0,2.4225,Pumice_rect,5,0,5,0,1
63ed1fa5c88ecae92bf0c920,SCR,2024-06-10_15h36.49.659,LearnStrategy,2023.2.3,Win32,59.52380952,4,2,7,,,,,,,,7,02,,,,,,,,,,,,,7,3.249,1,,,,,,0.108333333,-0.380555556,1,0,0,3.2487,Peridotite_rect,6,0,6,0,1
63ed1fa5c88ecae92bf0c920,SCR,2024-06-10_15h36.49.659,LearnStrategy,2023.2.3,Win32,59.52380952,4,2,8,,,,,,,,3,09,,,,,,,,,,,,,3,1.655,1,,,,,,0.115740741,-0.256481481,1,0,0,1.6546,Diorite_rect,7,0,7,0,1
63ed1fa5c88ecae92bf0c920,SCR,2024-06-10_15h36.49.659,LearnStrategy,2023.2.3,Win32,59.52380952,4,2,9,,,,,,,,6,07,,,,,,,,,,,,,6,1.529,1,,,,,,-0.092592593,-0.391666667,1,0,0,1.5288,Pegmatite_rect,8,0,8,0,1
63ed1fa5c88ecae92bf0c920,SCR,2024-06-10_15h36.49.659,LearnStrategy,2023.2.3,Win32,59.52380952,4,2,10,,,,,,,,1,14,,,,,,,,,,,,,6,2.125,0,,,,,,-0.087962963,-0.381481481,1,0,0,2.1245,Pegmatite_rect,9,0,9,0,1
63ed1fa5c88ecae92bf0c920,SCR,2024-06-10_15h36.49.659,LearnStrategy,2023.2.3,Win32,59.52380952,4,2,11,,,,,,,,2,08,,,,,,,,,,,,,2,4.941,1,,,,,,-0.10462963,-0.241666667,1,0,0,4.941,Basalt_rect,10,0,10,0,1
63ed1fa5c88ecae92bf0c920,SCR,2024-06-10_15h36.49.659,LearnStrategy,2023.2.3,Win32,59.52380952,4,2,12,,,,,,,,4,11,,,,,,,,,,,,,7,5.321,0,,,,,,0.141666667,-0.39537037,1,0,0,5.3209,Peridotite_rect,11,0,11,0,1
63ed1fa5c88ecae92bf0c920,SCR,2024-06-10_15h36.49.659,LearnStrategy,2023.2.3,Win32,59.52380952,4,2,13,,,,,,,,7,12,,,,,,,,,,,,,3,2.714,0,,,,,,0.110185185,-0.250925926,1,0,0,2.7137,Diorite_rect,12,0,12,0,1
63ed1fa5c88ecae92bf0c920,SCR,2024-06-10_15h36.49.659,LearnStrategy,2023.2.3,Win32,59.52380952,4,2,14,,,,,,,,4,14,,,,,,,,,,,,,4,5.591,1,,,,,,0.393518519,-0.244444444,1,0,0,5.5911,Gabbro_rect,13,0,13,0,1
63ed1fa5c88ecae92bf0c920,SCR,2024-06-10_15h36.49.659,LearnStrategy,2023.2.3,Win32,59.52380952,4,2,15,,,,,,,,1,11,,,,,,,,,,,,,1,2.609,1,,,,,,-0.451851852,-0.243518519,1,0,0,2.6087,Andesite_rect,14,0,14,0,1
63ed1fa5c88ecae92bf0c920,SCR,2024-06-10_15h36.49.659,LearnStrategy,2023.2.3,Win32,59.52380952,4,2,16,,,,,,,,5,16,,,,,,,,,,,,,5,1.238,1,,,,,,-0.430555556,-0.407407407,1,0,0,1.2382,Obsidian_rect,15,0,15,0,1
63ed1fa5c88ecae92bf0c920,SCR,2024-06-10_15h36.49.659,LearnStrategy,2023.2.3,Win32,59.52380952,5,1,1,-0.518518519,0.236111111,1,0,0,1.3995,Pegmatite_16,6,16,5,1,1.399,6,16,-0.143518519,-0.40462963,1,0,0,0.6775,Pegmatite_rect,6,0.677,1,0,0,0,0,1,,,,,,,,,,,,
63ed1fa5c88ecae92bf0c920,SCR,2024-06-10_15h36.49.659,LearnStrategy,2023.2.3,Win32,59.52380952,5,1,2,0.551851852,0.212962963,1,0,0,1.1237,Gabbro_16,4,16,5,8,1.124,4,16,0.432407407,-0.247222222,1,0,0,1.299,Gabbro_rect,4,1.299,1,1,0,1,0,1,,,,,,,,,,,,
63ed1fa5c88ecae92bf0c920,SCR,2024-06-10_15h36.49.659,LearnStrategy,2023.2.3,Win32,59.52380952,5,1,3,-0.052777778,0.367592593,1,0,0,0.9756,Andesite_04,1,04,6,4,0.976,1,04,0.117592593,-0.390740741,1,0,0,3.4279,Peridotite_rect,7,3.428,0,2,0,2,0,1,,,,,,,,,,,,
63ed1fa5c88ecae92bf0c920,SCR,2024-06-10_15h36.49.659,LearnStrategy,2023.2.3,Win32,59.52380952,5,1,4,0.42037037,-0.126851852,1,0,0,0.8996,Andesite_16,1,16,3,7,0.9,1,16,-0.387962963,-0.255555556,1,0,0,2.7605,Andesite_rect,1,2.761,1,3,0,3,0,1,,,,,,,,,,,,
63ed1fa5c88ecae92bf0c920,SCR,2024-06-10_15h36.49.659,LearnStrategy,2023.2.3,Win32,59.52380952,5,1,5,-0.425,-0.065740741,1,0,0,0.8282,Diorite_13,3,13,3,2,0.828,3,13,0.140740741,-0.247222222,1,0,0,1.7811,Diorite_rect,3,1.781,1,4,0,4,0,1,,,,,,,,,,,,
63ed1fa5c88ecae92bf0c920,SCR,2024-06-10_15h36.49.659,LearnStrategy,2023.2.3,Win32,59.52380952,5,1,6,-0.418518519,-0.25462963,1,0,0,0.8193,Pumice_09,8,09,2,2,0.819,8,09,-0.401851852,-0.25,1,0,0,1.6866,Andesite_rect,1,1.687,0,5,0,5,0,1,,,,,,,,,,,,
63ed1fa5c88ecae92bf0c920,SCR,2024-06-10_15h36.49.659,LearnStrategy,2023.2.3,Win32,59.52380952,5,1,7,-0.053703704,-0.100925926,1,0,0,0.695,Peridotite_15,7,15,3,4,0.695,7,15,0.127777778,-0.239814815,1,0,0,2.4347,Diorite_rect,3,2.435,0,6,0,6,0,1,,,,,,,,,,,,
63ed1fa5c88ecae92bf0c920,SCR,2024-06-10_15h36.49.659,LearnStrategy,2023.2.3,Win32,59.52380952,5,1,8,-0.585185185,-0.118518519,1,0,0,0.9469,Basalt_05,2,05,3,1,0.947,2,05,0.321296296,-0.237037037,1,0,0,1.0062,Gabbro_rect,4,1.006,0,7,0,7,0,1,,,,,,,,,,,,
63ed1fa5c88ecae92bf0c920,SCR,2024-06-10_15h36.49.659,LearnStrategy,2023.2.3,Win32,59.52380952,5,1,9,-0.555555556,-0.412037037,1,0,0,0.9657,Peridotite_14,7,14,1,1,0.966,7,14,-0.349074074,-0.246296296,1,0,0,1.33,Andesite_rect,1,1.33,0,8,0,8,0,1,,,,,,,,,,,,
63ed1fa5c88ecae92bf0c920,SCR,2024-06-10_15h36.49.659,LearnStrategy,2023.2.3,Win32,59.52380952,5,1,10,-0.533333333,0.399074074,1,0,0,1.132,Andesite_06,1,06,6,1,1.132,1,06,-0.337037037,-0.239814815,1,0,0,1.2444,Andesite_rect,1,1.244,1,9,0,9,0,1,,,,,,,,,,,,
63ed1fa5c88ecae92bf0c920,SCR,2024-06-10_15h36.49.659,LearnStrategy,2023.2.3,Win32,59.52380952,5,1,11,0.085185185,0.099074074,1,0,0,0.698,Diorite_08,3,08,4,5,0.698,3,08,0.05462963,-0.403703704,1,0,0,1.4775,Peridotite_rect,7,1.478,0,10,0,10,0,1,,,,,,,,,,,,
63ed1fa5c88ecae92bf0c920,SCR,2024-06-10_15h36.49.659,LearnStrategy,2023.2.3,Win32,59.52380952,5,1,12,0.208333333,-0.082407407,1,0,0,0.687,Basalt_04,2,04,3,6,0.687,2,04,-0.112037037,-0.250925926,1,0,0,1.3839,Basalt_rect,2,1.384,1,11,0,11,0,1,,,,,,,,,,,,
63ed1fa5c88ecae92bf0c920,SCR,2024-06-10_15h36.49.659,LearnStrategy,2023.2.3,Win32,59.52380952,5,1,13,0.424074074,0.249074074,1,0,0,0.9527,Basalt_06,2,06,5,7,0.953,2,06,-0.109259259,-0.242592593,1,0,0,0.6654,Basalt_rect,2,0.665,1,12,0,12,0,1,,,,,,,,,,,,
63ed1fa5c88ecae92bf0c920,SCR,2024-06-10_15h36.49.659,LearnStrategy,2023.2.3,Win32,59.52380952,5,1,14,-0.216666667,0.383333333,1,0,0,1.0928,Gabbro_03,4,03,6,3,1.093,4,03,-0.39537037,-0.231481481,1,0,0,1.8973,Andesite_rect,1,1.897,0,13,0,13,0,1,,,,,,,,,,,,
63ed1fa5c88ecae92bf0c920,SCR,2024-06-10_15h36.49.659,LearnStrategy,2023.2.3,Win32,59.52380952,5,1,15,-0.221296296,0.422222222,1,0,0,0.8293,Gabbro_03,4,03,6,3,0.829,4,03,0.375,-0.253703704,1,0,0,1.0256,Gabbro_rect,4,1.026,1,14,0,14,0,1,,,,,,,,,,,,
63ed1fa5c88ecae92bf0c920,SCR,2024-06-10_15h36.49.659,LearnStrategy,2023.2.3,Win32,59.52380952,5,1,16,-0.094444444,0.248148148,1,0,0,0.8204,Pumice_05,8,05,5,4,0.82,8,05,0.386111111,-0.402777778,1,0,0,0.9116,Pumice_rect,8,0.912,1,15,0,15,0,1,,,,,,,,,,,,
63ed1fa5c88ecae92bf0c920,SCR,2024-06-10_15h36.49.659,LearnStrategy,2023.2.3,Win32,59.52380952,5,2,1,,,,,,,,2,02,,,,,,,,,,,,,1,1.476,0,,,,,,-0.362962963,-0.256481481,1,0,0,1.4764,Andesite_rect,0,0,0,0,1
63ed1fa5c88ecae92bf0c920,SCR,2024-06-10_15h36.49.659,LearnStrategy,2023.2.3,Win32,59.52380952,5,2,2,,,,,,,,4,12,,,,,,,,,,,,,7,2.488,0,,,,,,0.122222222,-0.412037037,1,0,0,2.4884,Peridotite_rect,1,0,1,0,1
63ed1fa5c88ecae92bf0c920,SCR,2024-06-10_15h36.49.659,LearnStrategy,2023.2.3,Win32,59.52380952,5,2,3,,,,,,,,1,01,,,,,,,,,,,,,4,6.015,0,,,,,,0.380555556,-0.268518519,1,0,0,6.0147,Gabbro_rect,2,0,2,0,1
63ed1fa5c88ecae92bf0c920,SCR,2024-06-10_15h36.49.659,LearnStrategy,2023.2.3,Win32,59.52380952,5,2,4,,,,,,,,8,02,,,,,,,,,,,,,8,5.188,1,,,,,,0.373148148,-0.401851852,1,0,0,5.1882,Pumice_rect,3,0,3,0,1
63ed1fa5c88ecae92bf0c920,SCR,2024-06-10_15h36.49.659,LearnStrategy,2023.2.3,Win32,59.52380952,5,2,5,,,,,,,,4,08,,,,,,,,,,,,,7,1.934,0,,,,,,0.127777778,-0.385185185,1,0,0,1.9343,Peridotite_rect,4,0,4,0,1
63ed1fa5c88ecae92bf0c920,SCR,2024-06-10_15h36.49.659,LearnStrategy,2023.2.3,Win32,59.52380952,5,2,6,,,,,,,,7,05,,,,,,,,,,,,,1,1.995,0,,,,,,-0.37037037,-0.244444444,1,0,0,1.9951,Andesite_rect,5,0,5,0,1
63ed1fa5c88ecae92bf0c920,SCR,2024-06-10_15h36.49.659,LearnStrategy,2023.2.3,Win32,59.52380952,5,2,7,,,,,,,,6,11,,,,,,,,,,,,,6,1.707,1,,,,,,-0.125,-0.388888889,1,0,0,1.707,Pegmatite_rect,6,0,6,0,1
63ed1fa5c88ecae92bf0c920,SCR,2024-06-10_15h36.49.659,LearnStrategy,2023.2.3,Win32,59.52380952,5,2,8,,,,,,,,6,03,,,,,,,,,,,,,7,6.543,0,,,,,,0.073148148,-0.401851852,1,0,0,6.5427,Peridotite_rect,7,0,7,0,1
63ed1fa5c88ecae92bf0c920,SCR,2024-06-10_15h36.49.659,LearnStrategy,2023.2.3,Win32,59.52380952,5,2,9,,,,,,,,7,06,,,,,,,,,,,,,6,5.827,0,,,,,,-0.107407407,-0.411111111,1,0,0,5.8266,Pegmatite_rect,8,0,8,0,1
63ed1fa5c88ecae92bf0c920,SCR,2024-06-10_15h36.49.659,LearnStrategy,2023.2.3,Win32,59.52380952,5,2,10,,,,,,,,5,06,,,,,,,,,,,,,5,1.29,1,,,,,,-0.371296296,-0.405555556,1,0,0,1.2902,Obsidian_rect,9,0,9,0,1
63ed1fa5c88ecae92bf0c920,SCR,2024-06-10_15h36.49.659,LearnStrategy,2023.2.3,Win32,59.52380952,5,2,11,,,,,,,,8,10,,,,,,,,,,,,,1,2.469,0,,,,,,-0.407407407,-0.259259259,1,0,0,2.4689,Andesite_rect,10,0,10,0,1
63ed1fa5c88ecae92bf0c920,SCR,2024-06-10_15h36.49.659,LearnStrategy,2023.2.3,Win32,59.52380952,5,2,12,,,,,,,,3,02,,,,,,,,,,,,,3,2.321,1,,,,,,0.136111111,-0.262962963,1,0,0,2.3215,Diorite_rect,11,0,11,0,1
63ed1fa5c88ecae92bf0c920,SCR,2024-06-10_15h36.49.659,LearnStrategy,2023.2.3,Win32,59.52380952,5,2,13,,,,,,,,5,07,,,,,,,,,,,,,5,1.361,1,,,,,,-0.42962963,-0.415740741,1,0,0,1.3612,Obsidian_rect,12,0,12,0,1
63ed1fa5c88ecae92bf0c920,SCR,2024-06-10_15h36.49.659,LearnStrategy,2023.2.3,Win32,59.52380952,5,2,14,,,,,,,,1,10,,,,,,,,,,,,,1,1.473,1,,,,,,-0.37037037,-0.236111111,1,0,0,1.4729,Andesite_rect,13,0,13,0,1
63ed1fa5c88ecae92bf0c920,SCR,2024-06-10_15h36.49.659,LearnStrategy,2023.2.3,Win32,59.52380952,5,2,15,,,,,,,,2,12,,,,,,,,,,,,,1,1.224,0,,,,,,-0.385185185,-0.267592593,1,0,0,1.2241,Andesite_rect,14,0,14,0,1
63ed1fa5c88ecae92bf0c920,SCR,2024-06-10_15h36.49.659,LearnStrategy,2023.2.3,Win32,59.52380952,5,2,16,,,,,,,,3,10,,,,,,,,,,,,,4,3.372,0,,,,,,0.42037037,-0.265740741,1,0,0,3.3716,Gabbro_rect,15,0,15,0,1
63ed1fa5c88ecae92bf0c920,SCR,2024-06-10_15h36.49.659,LearnStrategy,2023.2.3,Win32,59.52380952,6,1,1,0.589814815,0.136111111,1,0,0,1.3476,Pegmatite_06,6,06,4,8,1.348,6,06,0.368518519,-0.25462963,1,0,0,1.4267,Gabbro_rect,4,1.427,0,0,0,0,0,1,,,,,,,,,,,,
63ed1fa5c88ecae92bf0c920,SCR,2024-06-10_15h36.49.659,LearnStrategy,2023.2.3,Win32,59.52380952,6,1,2,-0.05,0.073148148,1,0,0,0.949,Pegmatite_09,6,09,4,4,0.949,6,09,0.107407407,-0.39537037,1,0,0,1.564,Peridotite_rect,7,1.564,0,1,0,1,0,1,,,,,,,,,,,,
63ed1fa5c88ecae92bf0c920,SCR,2024-06-10_15h36.49.659,LearnStrategy,2023.2.3,Win32,59.52380952,6,1,3,-0.231481481,-0.226851852,1,0,0,0.8163,Peridotite_08,7,08,2,3,0.816,7,08,-0.368518519,-0.237962963,1,0,0,0.6701,Andesite_rect,1,0.67,0,2,0,2,0,1,,,,,,,,,,,,
63ed1fa5c88ecae92bf0c920,SCR,2024-06-10_15h36.49.659,LearnStrategy,2023.2.3,Win32,59.52380952,6,1,4,0.550925926,-0.119444444,1,0,0,1.0062,Basalt_01,2,01,3,8,1.006,2,01,0.411111111,-0.247222222,1,0,0,2.3452,Gabbro_rect,4,2.345,0,3,0,3,0,1,,,,,,,,,,,,
63ed1fa5c88ecae92bf0c920,SCR,2024-06-10_15h36.49.659,LearnStrategy,2023.2.3,Win32,59.52380952,6,1,5,-0.207407407,0.421296296,1,0,0,0.8811,Gabbro_03,4,03,6,3,0.881,4,03,0.15462963,-0.246296296,1,0,0,1.3927,Diorite_rect,3,1.393,0,4,0,4,0,1,,,,,,,,,,,,
63ed1fa5c88ecae92bf0c920,SCR,2024-06-10_15h36.49.659,LearnStrategy,2023.2.3,Win32,59.52380952,6,1,6,0.432407407,0.241666667,1,0,0,1.0878,Basalt_06,2,06,5,7,1.088,2,06,-0.097222222,-0.243518519,1,0,0,1.3547,Basalt_rect,2,1.355,1,5,0,5,0,1,,,,,,,,,,,,
63ed1fa5c88ecae92bf0c920,SCR,2024-06-10_15h36.49.659,LearnStrategy,2023.2.3,Win32,59.52380952,6,1,7,0.412037037,-0.271296296,1,0,0,1.0708,Pumice_16,8,16,2,7,1.071,8,16,0.431481481,-0.228703704,1,0,0,1.2384,Gabbro_rect,4,1.238,0,6,0,6,0,1,,,,,,,,,,,,
63ed1fa5c88ecae92bf0c920,SCR,2024-06-10_15h36.49.659,LearnStrategy,2023.2.3,Win32,59.52380952,6,1,8,0.440740741,-0.1,1,0,0,0.8435,Andesite_16,1,16,3,7,0.843,1,16,-0.37037037,-0.237037037,1,0,0,1.0441,Andesite_rect,1,1.044,1,7,0,7,0,1,,,,,,,,,,,,
63ed1fa5c88ecae92bf0c920,SCR,2024-06-10_15h36.49.659,LearnStrategy,2023.2.3,Win32,59.52380952,6,1,9,-0.556481481,0.12037037,1,0,0,0.8398,Pumice_08,8,08,4,1,0.84,8,08,0.359259259,-0.385185185,1,0,0,1.6862,Pumice_rect,8,1.686,1,8,0,8,0,1,,,,,,,,,,,,
63ed1fa5c88ecae92bf0c920,SCR,2024-06-10_15h36.49.659,LearnStrategy,2023.2.3,Win32,59.52380952,6,1,10,0.072222222,0.093518519,1,0,0,0.8818,Diorite_08,3,08,4,5,0.882,3,08,0.156481481,-0.37962963,1,0,0,1.1116,Peridotite_rect,7,1.112,0,9,0,9,0,1,,,,,,,,,,,,
63ed1fa5c88ecae92bf0c920,SCR,2024-06-10_15h36.49.659,LearnStrategy,2023.2.3,Win32,59.52380952,6,1,11,-0.561111111,-0.464814815,1,0,0,1.2746,Peridotite_14,7,14,1,1,1.275,7,14,-0.371296296,-0.263888889,1,0,0,1.5548,Andesite_rect,1,1.555,0,10,0,10,0,1,,,,,,,,,,,,
63ed1fa5c88ecae92bf0c920,SCR,2024-06-10_15h36.49.659,LearnStrategy,2023.2.3,Win32,59.52380952,6,1,12,0.557407407,-0.399074074,1,0,0,0.8424,Gabbro_10,4,10,1,8,0.842,4,10,0.385185185,-0.263888889,1,0,0,1.1944,Gabbro_rect,4,1.194,1,11,0,11,0,1,,,,,,,,,,,,
63ed1fa5c88ecae92bf0c920,SCR,2024-06-10_15h36.49.659,LearnStrategy,2023.2.3,Win32,59.52380952,6,1,13,-0.407407407,0.103703704,1,0,0,1.0023,Peridotite_16,7,16,4,2,1.002,7,16,0.076851852,-0.419444444,1,0,0,2.5004,Peridotite_rect,7,2.5,1,12,0,12,0,1,,,,,,,,,,,,
63ed1fa5c88ecae92bf0c920,SCR,2024-06-10_15h36.49.659,LearnStrategy,2023.2.3,Win32,59.52380952,6,1,14,0.224074074,-0.409259259,1,0,0,1.7698,Andesite_03,1,03,1,6,1.77,1,03,-0.099074074,-0.262962963,1,0,0,4.1989,Basalt_rect,2,4.199,0,13,0,13,0,1,,,,,,,,,,,,
63ed1fa5c88ecae92bf0c920,SCR,2024-06-10_15h36.49.659,LearnStrategy,2023.2.3,Win32,59.52380952,6,1,15,0.578703704,-0.113888889,1,0,0,0.9915,Basalt_01,2,01,3,8,0.992,2,01,-0.135185185,-0.258333333,1,0,0,1.5734,Basalt_rect,2,1.573,1,14,0,14,0,1,,,,,,,,,,,,
63ed1fa5c88ecae92bf0c920,SCR,2024-06-10_15h36.49.659,LearnStrategy,2023.2.3,Win32,59.52380952,6,1,16,-0.362037037,-0.398148148,1,0,0,1.3378,Gabbro_15,4,15,1,2,1.338,4,15,0.132407407,-0.248148148,1,0,0,1.9777,Diorite_rect,3,1.978,0,15,0,15,0,1,,,,,,,,,,,,
63ed1fa5c88ecae92bf0c920,SCR,2024-06-10_15h36.49.659,LearnStrategy,2023.2.3,Win32,59.52380952,6,2,1,,,,,,,,4,01,,,,,,,,,,,,,1,1.378,0,,,,,,-0.415740741,-0.25462963,1,0,0,1.3782,Andesite_rect,0,0,0,0,1
63ed1fa5c88ecae92bf0c920,SCR,2024-06-10_15h36.49.659,LearnStrategy,2023.2.3,Win32,59.52380952,6,2,2,,,,,,,,8,03,,,,,,,,,,,,,8,2.739,1,,,,,,0.403703704,-0.403703704,1,0,0,2.7386,Pumice_rect,1,0,1,0,1
63ed1fa5c88ecae92bf0c920,SCR,2024-06-10_15h36.49.659,LearnStrategy,2023.2.3,Win32,59.52380952,6,2,3,,,,,,,,1,02,,,,,,,,,,,,,7,4.384,0,,,,,,0.110185185,-0.389814815,1,0,0,4.3843,Peridotite_rect,2,0,2,0,1
63ed1fa5c88ecae92bf0c920,SCR,2024-06-10_15h36.49.659,LearnStrategy,2023.2.3,Win32,59.52380952,6,2,4,,,,,,,,6,08,,,,,,,,,,,,,6,1.74,1,,,,,,-0.125925926,-0.402777778,1,0,0,1.7399,Pegmatite_rect,3,0,3,0,1
63ed1fa5c88ecae92bf0c920,SCR,2024-06-10_15h36.49.659,LearnStrategy,2023.2.3,Win32,59.52380952,6,2,5,,,,,,,,2,10,,,,,,,,,,,,,2,6.028,1,,,,,,-0.113888889,-0.252777778,1,0,0,6.0278,Basalt_rect,4,0,4,0,1
63ed1fa5c88ecae92bf0c920,SCR,2024-06-10_15h36.49.659,LearnStrategy,2023.2.3,Win32,59.52380952,6,2,6,,,,,,,,7,13,,,,,,,,,,,,,3,2.757,0,,,,,,0.17037037,-0.261111111,1,0,0,2.7571,Diorite_rect,5,0,5,0,1
63ed1fa5c88ecae92bf0c920,SCR,2024-06-10_15h36.49.659,LearnStrategy,2023.2.3,Win32,59.52380952,6,2,7,,,,,,,,1,07,,,,,,,,,,,,,7,6.079,0,,,,,,0.165740741,-0.410185185,1,0,0,6.0785,Peridotite_rect,6,0,6,0,1
63ed1fa5c88ecae92bf0c920,SCR,2024-06-10_15h36.49.659,LearnStrategy,2023.2.3,Win32,59.52380952,6,2,8,,,,,,,,2,09,,,,,,,,,,,,,1,5.182,0,,,,,,-0.399074074,-0.246296296,1,0,0,5.1824,Andesite_rect,7,0,7,0,1
63ed1fa5c88ecae92bf0c920,SCR,2024-06-10_15h36.49.659,LearnStrategy,2023.2.3,Win32,59.52380952,6,2,9,,,,,,,,5,02,,,,,,,,,,,,,5,1.372,1,,,,,,-0.403703704,-0.40462963,1,0,0,1.3715,Obsidian_rect,8,0,8,0,1
63ed1fa5c88ecae92bf0c920,SCR,2024-06-10_15h36.49.659,LearnStrategy,2023.2.3,Win32,59.52380952,6,2,10,,,,,,,,4,09,,,,,,,,,,,,,7,4.038,0,,,,,,0.139814815,-0.403703704,1,0,0,4.0385,Peridotite_rect,9,0,9,0,1
63ed1fa5c88ecae92bf0c920,SCR,2024-06-10_15h36.49.659,LearnStrategy,2023.2.3,Win32,59.52380952,6,2,11,,,,,,,,7,04,,,,,,,,,,,,,3,1.635,0,,,,,,0.193518519,-0.237037037,1,0,0,1.6351,Diorite_rect,10,0,10,0,1
63ed1fa5c88ecae92bf0c920,SCR,2024-06-10_15h36.49.659,LearnStrategy,2023.2.3,Win32,59.52380952,6,2,12,,,,,,,,3,06,,,,,,,,,,,,,3,2.86,1,,,,,,0.130555556,-0.24537037,1,0,0,2.8596,Diorite_rect,11,0,11,0,1
63ed1fa5c88ecae92bf0c920,SCR,2024-06-10_15h36.49.659,LearnStrategy,2023.2.3,Win32,59.52380952,6,2,13,,,,,,,,6,15,,,,,,,,,,,,,6,1.563,1,,,,,,-0.127777778,-0.4,1,0,0,1.5628,Pegmatite_rect,12,0,12,0,1
63ed1fa5c88ecae92bf0c920,SCR,2024-06-10_15h36.49.659,LearnStrategy,2023.2.3,Win32,59.52380952,6,2,14,,,,,,,,8,06,,,,,,,,,,,,,8,1.993,1,,,,,,0.400925926,-0.402777778,1,0,0,1.993,Pumice_rect,13,0,13,0,1
63ed1fa5c88ecae92bf0c920,SCR,2024-06-10_15h36.49.659,LearnStrategy,2023.2.3,Win32,59.52380952,6,2,15,,,,,,,,3,12,,,,,,,,,,,,,7,2.262,0,,,,,,0.12962963,-0.4,1,0,0,2.2621,Peridotite_rect,14,0,14,0,1
63ed1fa5c88ecae92bf0c920,SCR,2024-06-10_15h36.49.659,LearnStrategy,2023.2.3,Win32,59.52380952,6,2,16,,,,,,,,5,04,,,,,,,,,,,,,5,1.336,1,,,,,,-0.39537037,-0.39537037,1,0,0,1.336,Obsidian_rect,15,0,15,0,1
63ed1fa5c88ecae92bf0c920,SCR,2024-06-10_15h36.49.659,LearnStrategy,2023.2.3,Win32,59.52380952,7,1,1,-0.246296296,-0.233333333,1,0,0,1.1363,Peridotite_08,7,08,2,3,1.136,7,08,0.130555556,-0.246296296,1,0,0,1.1622,Diorite_rect,3,1.162,0,0,0,0,0,1,,,,,,,,,,,,
63ed1fa5c88ecae92bf0c920,SCR,2024-06-10_15h36.49.659,LearnStrategy,2023.2.3,Win32,59.52380952,7,1,2,-0.54537037,-0.4,1,0,0,0.9912,Peridotite_14,7,14,1,1,0.991,7,14,-0.374074074,-0.22962963,1,0,0,1.3364,Andesite_rect,1,1.336,0,1,0,1,0,1,,,,,,,,,,,,
63ed1fa5c88ecae92bf0c920,SCR,2024-06-10_15h36.49.659,LearnStrategy,2023.2.3,Win32,59.52380952,7,1,3,-0.372222222,0.213888889,1,0,0,1.1932,Peridotite_10,7,10,5,2,1.193,7,10,-0.373148148,-0.260185185,1,0,0,0.9123,Andesite_rect,1,0.912,0,2,0,2,0,1,,,,,,,,,,,,
63ed1fa5c88ecae92bf0c920,SCR,2024-06-10_15h36.49.659,LearnStrategy,2023.2.3,Win32,59.52380952,7,1,4,-0.371296296,0.374074074,1,0,0,1.0273,Pumice_14,8,14,6,2,1.027,8,14,0.406481481,-0.419444444,1,0,0,1.6782,Pumice_rect,8,1.678,1,3,0,3,0,1,,,,,,,,,,,,
63ed1fa5c88ecae92bf0c920,SCR,2024-06-10_15h36.49.659,LearnStrategy,2023.2.3,Win32,59.52380952,7,1,5,0.532407407,-0.106481481,1,0,0,1.0265,Basalt_01,2,01,3,8,1.026,2,01,-0.138888889,-0.246296296,1,0,0,1.2783,Basalt_rect,2,1.278,1,4,0,4,0,1,,,,,,,,,,,,
63ed1fa5c88ecae92bf0c920,SCR,2024-06-10_15h36.49.659,LearnStrategy,2023.2.3,Win32,59.52380952,7,1,6,0.265740741,0.402777778,1,0,0,1.1414,Gabbro_13,4,13,6,6,1.141,4,13,0.406481481,-0.25,1,0,0,2.1081,Gabbro_rect,4,2.108,1,5,0,5,0,1,,,,,,,,,,,,
63ed1fa5c88ecae92bf0c920,SCR,2024-06-10_15h36.49.659,LearnStrategy,2023.2.3,Win32,59.52380952,7,1,7,-0.387962963,-0.397222222,1,0,0,1.1109,Gabbro_15,4,15,1,2,1.111,4,15,0.4,-0.262037037,1,0,0,0.7089,Gabbro_rect,4,0.709,1,6,0,6,0,1,,,,,,,,,,,,
63ed1fa5c88ecae92bf0c920,SCR,2024-06-10_15h36.49.659,LearnStrategy,2023.2.3,Win32,59.52380952,7,1,8,0.524074074,0.255555556,1,0,0,1.0996,Gabbro_16,4,16,5,8,1.1,4,16,0.414814815,-0.252777778,1,0,0,0.7521,Gabbro_rect,4,0.752,1,7,0,7,0,1,,,,,,,,,,,,
63ed1fa5c88ecae92bf0c920,SCR,2024-06-10_15h36.49.659,LearnStrategy,2023.2.3,Win32,59.52380952,7,1,9,0.387037037,-0.415740741,1,0,0,1.0237,Andesite_09,1,09,1,7,1.024,1,09,-0.4,-0.262962963,1,0,0,0.7197,Andesite_rect,1,0.72,1,8,0,8,0,1,,,,,,,,,,,,
63ed1fa5c88ecae92bf0c920,SCR,2024-06-10_15h36.49.659,LearnStrategy,2023.2.3,Win32,59.52380952,7,1,10,0.265740741,-0.103703704,1,0,0,0.9569,Basalt_04,2,04,3,6,0.957,2,04,-0.130555556,-0.235185185,1,0,0,2.7132,Basalt_rect,2,2.713,1,9,0,9,0,1,,,,,,,,,,,,
63ed1fa5c88ecae92bf0c920,SCR,2024-06-10_15h36.49.659,LearnStrategy,2023.2.3,Win32,59.52380952,7,1,11,0.247222222,-0.103703704,1,0,0,0.8554,Basalt_04,2,04,3,6,0.855,2,04,-0.181481481,-0.257407407,1,0,0,0.717,Basalt_rect,2,0.717,1,10,0,10,0,1,,,,,,,,,,,,
63ed1fa5c88ecae92bf0c920,SCR,2024-06-10_15h36.49.659,LearnStrategy,2023.2.3,Win32,59.52380952,7,1,12,0.380555556,-0.113888889,1,0,0,1.0053,Andesite_16,1,16,3,7,1.005,1,16,-0.382407407,-0.249074074,1,0,0,1.4722,Andesite_rect,1,1.472,1,11,0,11,0,1,,,,,,,,,,,,
63ed1fa5c88ecae92bf0c920,SCR,2024-06-10_15h36.49.659,LearnStrategy,2023.2.3,Win32,59.52380952,7,1,13,-0.553703704,0.386111111,1,0,0,1.0411,Andesite_06,1,06,6,1,1.041,1,06,-0.377777778,-0.240740741,1,0,0,0.8296,Andesite_rect,1,0.83,1,12,0,12,0,1,,,,,,,,,,,,
63ed1fa5c88ecae92bf0c920,SCR,2024-06-10_15h36.49.659,LearnStrategy,2023.2.3,Win32,59.52380952,7,1,14,0.516666667,0.406481481,1,0,0,1.3402,Pegmatite_13,6,13,6,8,1.34,6,13,-0.125,-0.40462963,1,0,0,1.5691,Pegmatite_rect,6,1.569,1,13,0,13,0,1,,,,,,,,,,,,
63ed1fa5c88ecae92bf0c920,SCR,2024-06-10_15h36.49.659,LearnStrategy,2023.2.3,Win32,59.52380952,7,1,15,0.07037037,0.239814815,1,0,0,0.9523,Diorite_15,3,15,5,5,0.952,3,15,0.12037037,-0.266666667,1,0,0,1.0846,Diorite_rect,3,1.085,1,14,0,14,0,1,,,,,,,,,,,,
63ed1fa5c88ecae92bf0c920,SCR,2024-06-10_15h36.49.659,LearnStrategy,2023.2.3,Win32,59.52380952,7,1,16,0.065740741,-0.116666667,1,0,0,0.6157,Diorite_07,3,07,3,5,0.616,3,07,0.100925926,-0.246296296,1,0,0,0.6438,Diorite_rect,3,0.644,1,15,0,15,0,1,,,,,,,,,,,,
63ed1fa5c88ecae92bf0c920,SCR,2024-06-10_15h36.49.659,LearnStrategy,2023.2.3,Win32,59.52380952,7,2,1,,,,,,,,5,04,,,,,,,,,,,,,5,1.414,1,,,,,,-0.350925926,-0.389814815,1,0,0,1.4139,Obsidian_rect,0,0,0,0,1
63ed1fa5c88ecae92bf0c920,SCR,2024-06-10_15h36.49.659,LearnStrategy,2023.2.3,Win32,59.52380952,7,2,2,,,,,,,,2,10,,,,,,,,,,,,,2,1.474,1,,,,,,-0.078703704,-0.24537037,1,0,0,1.4735,Basalt_rect,1,0,1,0,1
63ed1fa5c88ecae92bf0c920,SCR,2024-06-10_15h36.49.659,LearnStrategy,2023.2.3,Win32,59.52380952,7,2,3,,,,,,,,8,03,,,,,,,,,,,,,8,1.464,1,,,,,,0.412037037,-0.393518519,1,0,0,1.4643,Pumice_rect,2,0,2,0,1
63ed1fa5c88ecae92bf0c920,SCR,2024-06-10_15h36.49.659,LearnStrategy,2023.2.3,Win32,59.52380952,7,2,4,,,,,,,,1,02,,,,,,,,,,,,,3,1.221,0,,,,,,0.123148148,-0.249074074,1,0,0,1.2214,Diorite_rect,3,0,3,0,1
63ed1fa5c88ecae92bf0c920,SCR,2024-06-10_15h36.49.659,LearnStrategy,2023.2.3,Win32,59.52380952,7,2,5,,,,,,,,4,11,,,,,,,,,,,,,1,1.269,0,,,,,,-0.434259259,-0.240740741,1,0,0,1.2686,Andesite_rect,4,0,4,0,1
63ed1fa5c88ecae92bf0c920,SCR,2024-06-10_15h36.49.659,LearnStrategy,2023.2.3,Win32,59.52380952,7,2,6,,,,,,,,4,12,,,,,,,,,,,,,1,1.128,0,,,,,,-0.4,-0.243518519,1,0,0,1.128,Andesite_rect,5,0,5,0,1
63ed1fa5c88ecae92bf0c920,SCR,2024-06-10_15h36.49.659,LearnStrategy,2023.2.3,Win32,59.52380952,7,2,7,,,,,,,,3,11,,,,,,,,,,,,,3,1.072,1,,,,,,0.126851852,-0.25,1,0,0,1.0722,Diorite_rect,6,0,6,0,1
63ed1fa5c88ecae92bf0c920,SCR,2024-06-10_15h36.49.659,LearnStrategy,2023.2.3,Win32,59.52380952,7,2,8,,,,,,,,7,04,,,,,,,,,,,,,7,1.412,1,,,,,,0.097222222,-0.402777778,1,0,0,1.412,Peridotite_rect,7,0,7,0,1
63ed1fa5c88ecae92bf0c920,SCR,2024-06-10_15h36.49.659,LearnStrategy,2023.2.3,Win32,59.52380952,7,2,9,,,,,,,,8,04,,,,,,,,,,,,,8,1.505,1,,,,,,0.388888889,-0.388888889,1,0,0,1.505,Pumice_rect,8,0,8,0,1
63ed1fa5c88ecae92bf0c920,SCR,2024-06-10_15h36.49.659,LearnStrategy,2023.2.3,Win32,59.52380952,7,2,10,,,,,,,,1,11,,,,,,,,,,,,,1,2.509,1,,,,,,-0.32037037,-0.25,1,0,0,2.5089,Andesite_rect,9,0,9,0,1
63ed1fa5c88ecae92bf0c920,SCR,2024-06-10_15h36.49.659,LearnStrategy,2023.2.3,Win32,59.52380952,7,2,11,,,,,,,,3,10,,,,,,,,,,,,,3,1.107,1,,,,,,0.157407407,-0.257407407,1,0,0,1.1066,Diorite_rect,10,0,10,0,1
63ed1fa5c88ecae92bf0c920,SCR,2024-06-10_15h36.49.659,LearnStrategy,2023.2.3,Win32,59.52380952,7,2,12,,,,,,,,7,05,,,,,,,,,,,,,7,1.762,1,,,,,,0.118518519,-0.394444444,1,0,0,1.7616,Peridotite_rect,11,0,11,0,1
63ed1fa5c88ecae92bf0c920,SCR,2024-06-10_15h36.49.659,LearnStrategy,2023.2.3,Win32,59.52380952,7,2,13,,,,,,,,6,15,,,,,,,,,,,,,6,0.991,1,,,,,,-0.158333333,-0.387037037,1,0,0,0.9906,Pegmatite_rect,12,0,12,0,1
63ed1fa5c88ecae92bf0c920,SCR,2024-06-10_15h36.49.659,LearnStrategy,2023.2.3,Win32,59.52380952,7,2,14,,,,,,,,2,08,,,,,,,,,,,,,2,2.979,1,,,,,,-0.147222222,-0.267592593,1,0,0,2.979,Basalt_rect,13,0,13,0,1
63ed1fa5c88ecae92bf0c920,SCR,2024-06-10_15h36.49.659,LearnStrategy,2023.2.3,Win32,59.52380952,7,2,15,,,,,,,,6,10,,,,,,,,,,,,,6,5.379,1,,,,,,-0.087962963,-0.417592593,1,0,0,5.3791,Pegmatite_rect,14,0,14,0,1
63ed1fa5c88ecae92bf0c920,SCR,2024-06-10_15h36.49.659,LearnStrategy,2023.2.3,Win32,59.52380952,7,2,16,,,,,,,,5,16,,,,,,,,,,,,,5,1.157,1,,,,,,-0.387962963,-0.399074074,1,0,0,1.1573,Obsidian_rect,15,0,15,0,1
63ed1fa5c88ecae92bf0c920,SCR,2024-06-10_15h36.49.659,LearnStrategy,2023.2.3,Win32,59.52380952,8,1,1,0.252777778,-0.243518519,1,0,0,1.0899,Andesite_05,1,05,2,6,1.09,1,05,-0.364814815,-0.25,1,0,0,0.8616,Andesite_rect,1,0.862,1,0,0,0,0,1,,,,,,,,,,,,
63ed1fa5c88ecae92bf0c920,SCR,2024-06-10_15h36.49.659,LearnStrategy,2023.2.3,Win32,59.52380952,8,1,2,-0.212037037,-0.255555556,1,0,0,0.8868,Peridotite_08,7,08,2,3,0.887,7,08,0.14537037,-0.246296296,1,0,0,1.3287,Diorite_rect,3,1.329,0,1,0,1,0,1,,,,,,,,,,,,
63ed1fa5c88ecae92bf0c920,SCR,2024-06-10_15h36.49.659,LearnStrategy,2023.2.3,Win32,59.52380952,8,1,3,0.55462963,-0.113888889,1,0,0,0.8595,Basalt_01,2,01,3,8,0.86,2,01,0.366666667,-0.238888889,1,0,0,0.7784,Gabbro_rect,4,0.778,0,2,0,2,0,1,,,,,,,,,,,,
63ed1fa5c88ecae92bf0c920,SCR,2024-06-10_15h36.49.659,LearnStrategy,2023.2.3,Win32,59.52380952,8,1,4,-0.526851852,-0.375,1,0,0,0.96,Peridotite_14,7,14,1,1,0.96,7,14,-0.392592593,-0.244444444,1,0,0,1.1343,Andesite_rect,1,1.134,0,3,0,3,0,1,,,,,,,,,,,,
63ed1fa5c88ecae92bf0c920,SCR,2024-06-10_15h36.49.659,LearnStrategy,2023.2.3,Win32,59.52380952,8,1,5,0.35462963,-0.262962963,1,0,0,0.9708,Pumice_16,8,16,2,7,0.971,8,16,0.34537037,-0.399074074,1,0,0,1.5765,Pumice_rect,8,1.576,1,4,0,4,0,1,,,,,,,,,,,,
63ed1fa5c88ecae92bf0c920,SCR,2024-06-10_15h36.49.659,LearnStrategy,2023.2.3,Win32,59.52380952,8,1,6,0.574074074,0.242592593,1,0,0,0.9694,Gabbro_16,4,16,5,8,0.969,4,16,0.349074074,-0.271296296,1,0,0,2.8553,Gabbro_rect,4,2.855,1,5,0,5,0,1,,,,,,,,,,,,
63ed1fa5c88ecae92bf0c920,SCR,2024-06-10_15h36.49.659,LearnStrategy,2023.2.3,Win32,59.52380952,8,1,7,0.112037037,0.271296296,1,0,0,1.2368,Diorite_15,3,15,5,5,1.237,3,15,0.144444444,-0.235185185,1,0,0,0.703,Diorite_rect,3,0.703,1,6,0,6,0,1,,,,,,,,,,,,
63ed1fa5c88ecae92bf0c920,SCR,2024-06-10_15h36.49.659,LearnStrategy,2023.2.3,Win32,59.52380952,8,1,8,0.198148148,0.110185185,1,0,0,0.7903,Pegmatite_12,6,12,4,6,0.79,6,12,0.098148148,-0.378703704,1,0,0,1.0688,Peridotite_rect,7,1.069,0,7,0,7,0,1,,,,,,,,,,,,
63ed1fa5c88ecae92bf0c920,SCR,2024-06-10_15h36.49.659,LearnStrategy,2023.2.3,Win32,59.52380952,8,1,9,-0.069444444,0.369444444,1,0,0,0.8518,Andesite_04,1,04,6,4,0.852,1,04,-0.413888889,-0.25,1,0,0,1.5761,Andesite_rect,1,1.576,1,8,0,8,0,1,,,,,,,,,,,,
63ed1fa5c88ecae92bf0c920,SCR,2024-06-10_15h36.49.659,LearnStrategy,2023.2.3,Win32,59.52380952,8,1,10,0.277777778,0.425,1,0,0,0.7538,Gabbro_13,4,13,6,6,0.754,4,13,0.421296296,-0.25,1,0,0,1.2742,Gabbro_rect,4,1.274,1,9,0,9,0,1,,,,,,,,,,,,
63ed1fa5c88ecae92bf0c920,SCR,2024-06-10_15h36.49.659,LearnStrategy,2023.2.3,Win32,59.52380952,8,1,11,0.401851852,0.251851852,1,0,0,0.9198,Basalt_06,2,06,5,7,0.92,2,06,-0.107407407,-0.266666667,1,0,0,0.9497,Basalt_rect,2,0.95,1,10,0,10,0,1,,,,,,,,,,,,
63ed1fa5c88ecae92bf0c920,SCR,2024-06-10_15h36.49.659,LearnStrategy,2023.2.3,Win32,59.52380952,8,1,12,0.232407407,0.431481481,1,0,0,0.9032,Gabbro_13,4,13,6,6,0.903,4,13,0.147222222,-0.42037037,1,0,0,1.9859,Peridotite_rect,7,1.986,0,11,0,11,0,1,,,,,,,,,,,,
63ed1fa5c88ecae92bf0c920,SCR,2024-06-10_15h36.49.659,LearnStrategy,2023.2.3,Win32,59.52380952,8,1,13,0.526851852,0.262962963,1,0,0,0.9877,Gabbro_16,4,16,5,8,0.988,4,16,0.387037037,-0.24537037,1,0,0,0.6985,Gabbro_rect,4,0.698,1,12,0,12,0,1,,,,,,,,,,,,
63ed1fa5c88ecae92bf0c920,SCR,2024-06-10_15h36.49.659,LearnStrategy,2023.2.3,Win32,59.52380952,8,1,14,-0.080555556,-0.1,1,0,0,0.7426,Peridotite_15,7,15,3,4,0.743,7,15,0.156481481,-0.228703704,1,0,0,0.9438,Diorite_rect,3,0.944,0,13,0,13,0,1,,,,,,,,,,,,
63ed1fa5c88ecae92bf0c920,SCR,2024-06-10_15h36.49.659,LearnStrategy,2023.2.3,Win32,59.52380952,8,1,15,-0.592592593,0.444444444,1,0,0,0.9631,Andesite_06,1,06,6,1,0.963,1,06,-0.35462963,-0.237037037,1,0,0,1.0681,Andesite_rect,1,1.068,1,14,0,14,0,1,,,,,,,,,,,,
63ed1fa5c88ecae92bf0c920,SCR,2024-06-10_15h36.49.659,LearnStrategy,2023.2.3,Win32,59.52380952,8,1,16,-0.212037037,0.263888889,1,0,0,0.8397,Diorite_14,3,14,5,3,0.84,3,14,0.171296296,-0.399074074,1,0,0,1.5203,Peridotite_rect,7,1.52,0,15,0,15,0,1,,,,,,,,,,,,
63ed1fa5c88ecae92bf0c920,SCR,2024-06-10_15h36.49.659,LearnStrategy,2023.2.3,Win32,59.52380952,8,2,1,,,,,,,,3,12,,,,,,,,,,,,,7,2.264,0,,,,,,0.121296296,-0.412037037,1,0,0,2.2635,Peridotite_rect,0,0,0,0,1
63ed1fa5c88ecae92bf0c920,SCR,2024-06-10_15h36.49.659,LearnStrategy,2023.2.3,Win32,59.52380952,8,2,2,,,,,,,,4,14,,,,,,,,,,,,,4,1.218,1,,,,,,0.401851852,-0.249074074,1,0,0,1.2181,Gabbro_rect,1,0,1,0,1
63ed1fa5c88ecae92bf0c920,SCR,2024-06-10_15h36.49.659,LearnStrategy,2023.2.3,Win32,59.52380952,8,2,3,,,,,,,,5,14,,,,,,,,,,,,,5,1.943,1,,,,,,-0.378703704,-0.411111111,1,0,0,1.9427,Obsidian_rect,2,0,2,0,1
63ed1fa5c88ecae92bf0c920,SCR,2024-06-10_15h36.49.659,LearnStrategy,2023.2.3,Win32,59.52380952,8,2,4,,,,,,,,3,09,,,,,,,,,,,,,3,1.016,1,,,,,,0.194444444,-0.235185185,1,0,0,1.0165,Diorite_rect,3,0,3,0,1
63ed1fa5c88ecae92bf0c920,SCR,2024-06-10_15h36.49.659,LearnStrategy,2023.2.3,Win32,59.52380952,8,2,5,,,,,,,,1,14,,,,,,,,,,,,,1,1.879,1,,,,,,-0.391666667,-0.259259259,1,0,0,1.8787,Andesite_rect,4,0,4,0,1
63ed1fa5c88ecae92bf0c920,SCR,2024-06-10_15h36.49.659,LearnStrategy,2023.2.3,Win32,59.52380952,8,2,6,,,,,,,,7,02,,,,,,,,,,,,,7,1.662,1,,,,,,0.148148148,-0.389814815,1,0,0,1.6618,Peridotite_rect,5,0,5,0,1
63ed1fa5c88ecae92bf0c920,SCR,2024-06-10_15h36.49.659,LearnStrategy,2023.2.3,Win32,59.52380952,8,2,7,,,,,,,,2,12,,,,,,,,,,,,,1,1.413,0,,,,,,-0.436111111,-0.242592593,1,0,0,1.4127,Andesite_rect,6,0,6,0,1
63ed1fa5c88ecae92bf0c920,SCR,2024-06-10_15h36.49.659,LearnStrategy,2023.2.3,Win32,59.52380952,8,2,8,,,,,,,,6,07,,,,,,,,,,,,,6,1.173,1,,,,,,-0.152777778,-0.382407407,1,0,0,1.1726,Pegmatite_rect,7,0,7,0,1
63ed1fa5c88ecae92bf0c920,SCR,2024-06-10_15h36.49.659,LearnStrategy,2023.2.3,Win32,59.52380952,8,2,9,,,,,,,,2,16,,,,,,,,,,,,,4,1.116,0,,,,,,0.392592593,-0.239814815,1,0,0,1.1158,Gabbro_rect,8,0,8,0,1
63ed1fa5c88ecae92bf0c920,SCR,2024-06-10_15h36.49.659,LearnStrategy,2023.2.3,Win32,59.52380952,8,2,10,,,,,,,,6,03,,,,,,,,,,,,,7,2.889,0,,,,,,0.189814815,-0.382407407,1,0,0,2.8887,Peridotite_rect,9,0,9,0,1
63ed1fa5c88ecae92bf0c920,SCR,2024-06-10_15h36.49.659,LearnStrategy,2023.2.3,Win32,59.52380952,8,2,11,,,,,,,,8,15,,,,,,,,,,,,,8,2.754,1,,,,,,0.40462963,-0.4,1,0,0,2.7535,Pumice_rect,10,0,10,0,1
63ed1fa5c88ecae92bf0c920,SCR,2024-06-10_15h36.49.659,LearnStrategy,2023.2.3,Win32,59.52380952,8,2,12,,,,,,,,1,01,,,,,,,,,,,,,7,9.371,0,,,,,,0.136111111,-0.415740741,1,0,0,9.371,Peridotite_rect,11,0,11,0,1
63ed1fa5c88ecae92bf0c920,SCR,2024-06-10_15h36.49.659,LearnStrategy,2023.2.3,Win32,59.52380952,8,2,13,,,,,,,,8,02,,,,,,,,,,,,,8,3.67,1,,,,,,0.416666667,-0.417592593,1,0,0,3.6696,Pumice_rect,12,0,12,0,1
63ed1fa5c88ecae92bf0c920,SCR,2024-06-10_15h36.49.659,LearnStrategy,2023.2.3,Win32,59.52380952,8,2,14,,,,,,,,7,12,,,,,,,,,,,,,3,3.022,0,,,,,,0.112962963,-0.238888889,1,0,0,3.0217,Diorite_rect,13,0,13,0,1
63ed1fa5c88ecae92bf0c920,SCR,2024-06-10_15h36.49.659,LearnStrategy,2023.2.3,Win32,59.52380952,8,2,15,,,,,,,,4,08,,,,,,,,,,,,,1,3.272,0,,,,,,-0.362037037,-0.246296296,1,0,0,3.2725,Andesite_rect,14,0,14,0,1
63ed1fa5c88ecae92bf0c920,SCR,2024-06-10_15h36.49.659,LearnStrategy,2023.2.3,Win32,59.52380952,8,2,16,,,,,,,,5,06,,,,,,,,,,,,,5,1.24,1,,,,,,-0.424074074,-0.402777778,1,0,0,1.2397,Obsidian_rect,15,0,15,0,1
63ed1fa5c88ecae92bf0c920,SCR,2024-06-10_15h36.49.659,LearnStrategy,2023.2.3,Win32,59.52380952,9,1,1,0.101851852,-0.100925926,1,0,0,1.1788,Diorite_07,3,07,3,5,1.179,3,07,0.15462963,-0.250925926,1,0,0,1.5157,Diorite_rect,3,1.516,1,0,0,0,0,1,,,,,,,,,,,,
63ed1fa5c88ecae92bf0c920,SCR,2024-06-10_15h36.49.659,LearnStrategy,2023.2.3,Win32,59.52380952,9,1,2,0.590740741,-0.39537037,1,0,0,1.0187,Gabbro_10,4,10,1,8,1.019,4,10,0.364814815,-0.242592593,1,0,0,1.6269,Gabbro_rect,4,1.627,1,1,0,1,0,1,,,,,,,,,,,,
63ed1fa5c88ecae92bf0c920,SCR,2024-06-10_15h36.49.659,LearnStrategy,2023.2.3,Win32,59.52380952,9,1,3,0.237962963,0.071296296,1,0,0,0.9611,Pegmatite_12,6,12,4,6,0.961,6,12,0.130555556,-0.249074074,1,0,0,1.2789,Diorite_rect,3,1.279,0,2,0,2,0,1,,,,,,,,,,,,
63ed1fa5c88ecae92bf0c920,SCR,2024-06-10_15h36.49.659,LearnStrategy,2023.2.3,Win32,59.52380952,9,1,4,-0.065740741,-0.105555556,1,0,0,0.7317,Peridotite_15,7,15,3,4,0.732,7,15,0.098148148,-0.25462963,1,0,0,1.4796,Diorite_rect,3,1.48,0,3,0,3,0,1,,,,,,,,,,,,
63ed1fa5c88ecae92bf0c920,SCR,2024-06-10_15h36.49.659,LearnStrategy,2023.2.3,Win32,59.52380952,9,1,5,-0.57962963,-0.392592593,1,0,0,0.9322,Peridotite_14,7,14,1,1,0.932,7,14,-0.461111111,-0.262037037,1,0,0,1.0786,Andesite_rect,1,1.079,0,4,0,4,0,1,,,,,,,,,,,,
63ed1fa5c88ecae92bf0c920,SCR,2024-06-10_15h36.49.659,LearnStrategy,2023.2.3,Win32,59.52380952,9,1,6,-0.073148148,0.381481481,1,0,0,1.035,Andesite_04,1,04,6,4,1.035,1,04,0.369444444,-0.262962963,1,0,0,1.5867,Gabbro_rect,4,1.587,0,5,0,5,0,1,,,,,,,,,,,,
63ed1fa5c88ecae92bf0c920,SCR,2024-06-10_15h36.49.659,LearnStrategy,2023.2.3,Win32,59.52380952,9,1,7,-0.07962963,-0.402777778,1,0,0,0.9795,Basalt_14,2,14,1,4,0.979,2,14,0.391666667,-0.249074074,1,0,0,0.9368,Gabbro_rect,4,0.937,0,6,0,6,0,1,,,,,,,,,,,,
63ed1fa5c88ecae92bf0c920,SCR,2024-06-10_15h36.49.659,LearnStrategy,2023.2.3,Win32,59.52380952,9,1,8,0.544444444,-0.382407407,1,0,0,0.9756,Gabbro_10,4,10,1,8,0.976,4,10,0.363888889,-0.246296296,1,0,0,0.6633,Gabbro_rect,4,0.663,1,7,0,7,0,1,,,,,,,,,,,,
63ed1fa5c88ecae92bf0c920,SCR,2024-06-10_15h36.49.659,LearnStrategy,2023.2.3,Win32,59.52380952,9,1,9,0.385185185,0.118518519,1,0,0,1.1093,Gabbro_05,4,05,4,7,1.109,4,05,0.125925926,-0.265740741,1,0,0,3.2326,Diorite_rect,3,3.233,0,8,0,8,0,1,,,,,,,,,,,,
63ed1fa5c88ecae92bf0c920,SCR,2024-06-10_15h36.49.659,LearnStrategy,2023.2.3,Win32,59.52380952,9,1,10,0.248148148,-0.269444444,1,0,0,0.675,Andesite_05,1,05,2,6,0.675,1,05,-0.35462963,-0.256481481,1,0,0,1.5038,Andesite_rect,1,1.504,1,9,0,9,0,1,,,,,,,,,,,,
63ed1fa5c88ecae92bf0c920,SCR,2024-06-10_15h36.49.659,LearnStrategy,2023.2.3,Win32,59.52380952,9,1,11,-0.408333333,0.226851852,1,0,0,1.4432,Peridotite_10,7,10,5,2,1.443,7,10,-0.423148148,-0.257407407,1,0,0,1.1932,Andesite_rect,1,1.193,0,10,0,10,0,1,,,,,,,,,,,,
63ed1fa5c88ecae92bf0c920,SCR,2024-06-10_15h36.49.659,LearnStrategy,2023.2.3,Win32,59.52380952,9,1,12,0.392592593,0.260185185,1,0,0,1.0033,Basalt_06,2,06,5,7,1.003,2,06,-0.126851852,-0.236111111,1,0,0,0.8777,Basalt_rect,2,0.878,1,11,0,11,0,1,,,,,,,,,,,,
63ed1fa5c88ecae92bf0c920,SCR,2024-06-10_15h36.49.659,LearnStrategy,2023.2.3,Win32,59.52380952,9,1,13,0.213888889,-0.422222222,1,0,0,1.4476,Andesite_03,1,03,1,6,1.448,1,03,-0.383333333,-0.262037037,1,0,0,2.4527,Andesite_rect,1,2.453,1,12,0,12,0,1,,,,,,,,,,,,
63ed1fa5c88ecae92bf0c920,SCR,2024-06-10_15h36.49.659,LearnStrategy,2023.2.3,Win32,59.52380952,9,1,14,-0.205555556,0.240740741,1,0,0,0.9203,Diorite_14,3,14,5,3,0.92,3,14,0.131481481,-0.246296296,1,0,0,1.0964,Diorite_rect,3,1.096,1,13,0,13,0,1,,,,,,,,,,,,
63ed1fa5c88ecae92bf0c920,SCR,2024-06-10_15h36.49.659,LearnStrategy,2023.2.3,Win32,59.52380952,9,1,15,-0.410185185,-0.288888889,1,0,0,0.8761,Pumice_09,8,09,2,2,0.876,8,09,0.344444444,-0.413888889,1,0,0,1.2439,Pumice_rect,8,1.244,1,14,0,14,0,1,,,,,,,,,,,,
63ed1fa5c88ecae92bf0c920,SCR,2024-06-10_15h36.49.659,LearnStrategy,2023.2.3,Win32,59.52380952,9,1,16,-0.077777778,-0.394444444,1,0,0,0.9125,Basalt_14,2,14,1,4,0.912,2,14,0.425925926,-0.271296296,1,0,0,1.0029,Gabbro_rect,4,1.003,0,15,0,15,0,1,,,,,,,,,,,,
63ed1fa5c88ecae92bf0c920,SCR,2024-06-10_15h36.49.659,LearnStrategy,2023.2.3,Win32,59.52380952,9,2,1,,,,,,,,1,07,,,,,,,,,,,,,3,1.291,0,,,,,,0.094444444,-0.25,1,0,0,1.2907,Diorite_rect,0,0,0,0,1
63ed1fa5c88ecae92bf0c920,SCR,2024-06-10_15h36.49.659,LearnStrategy,2023.2.3,Win32,59.52380952,9,2,2,,,,,,,,8,06,,,,,,,,,,,,,8,2.222,1,,,,,,0.409259259,-0.405555556,1,0,0,2.2221,Pumice_rect,1,0,1,0,1
63ed1fa5c88ecae92bf0c920,SCR,2024-06-10_15h36.49.659,LearnStrategy,2023.2.3,Win32,59.52380952,9,2,3,,,,,,,,2,09,,,,,,,,,,,,,2,4.293,1,,,,,,-0.087037037,-0.262037037,1,0,0,4.2926,Basalt_rect,2,0,2,0,1
63ed1fa5c88ecae92bf0c920,SCR,2024-06-10_15h36.49.659,LearnStrategy,2023.2.3,Win32,59.52380952,9,2,4,,,,,,,,6,08,,,,,,,,,,,,,6,1.132,1,,,,,,-0.12962963,-0.403703704,1,0,0,1.1319,Pegmatite_rect,3,0,3,0,1
63ed1fa5c88ecae92bf0c920,SCR,2024-06-10_15h36.49.659,LearnStrategy,2023.2.3,Win32,59.52380952,9,2,5,,,,,,,,3,02,,,,,,,,,,,,,3,1.138,1,,,,,,0.171296296,-0.256481481,1,0,0,1.1381,Diorite_rect,4,0,4,0,1
63ed1fa5c88ecae92bf0c920,SCR,2024-06-10_15h36.49.659,LearnStrategy,2023.2.3,Win32,59.52380952,9,2,6,,,,,,,,4,09,,,,,,,,,,,,,7,2.981,0,,,,,,0.153703704,-0.407407407,1,0,0,2.9811,Peridotite_rect,5,0,5,0,1
63ed1fa5c88ecae92bf0c920,SCR,2024-06-10_15h36.49.659,LearnStrategy,2023.2.3,Win32,59.52380952,9,2,7,,,,,,,,5,07,,,,,,,,,,,,,5,1.356,1,,,,,,-0.447222222,-0.39537037,1,0,0,1.3563,Obsidian_rect,6,0,6,0,1
63ed1fa5c88ecae92bf0c920,SCR,2024-06-10_15h36.49.659,LearnStrategy,2023.2.3,Win32,59.52380952,9,2,8,,,,,,,,6,11,,,,,,,,,,,,,6,1.17,1,,,,,,-0.139814815,-0.397222222,1,0,0,1.1702,Pegmatite_rect,7,0,7,0,1
63ed1fa5c88ecae92bf0c920,SCR,2024-06-10_15h36.49.659,LearnStrategy,2023.2.3,Win32,59.52380952,9,2,9,,,,,,,,7,06,,,,,,,,,,,,,3,3.187,0,,,,,,0.180555556,-0.244444444,1,0,0,3.1871,Diorite_rect,8,0,8,0,1
63ed1fa5c88ecae92bf0c920,SCR,2024-06-10_15h36.49.659,LearnStrategy,2023.2.3,Win32,59.52380952,9,2,10,,,,,,,,4,01,,,,,,,,,,,,,7,3.325,0,,,,,,0.151851852,-0.388888889,1,0,0,3.3255,Peridotite_rect,9,0,9,0,1
63ed1fa5c88ecae92bf0c920,SCR,2024-06-10_15h36.49.659,LearnStrategy,2023.2.3,Win32,59.52380952,9,2,11,,,,,,,,5,02,,,,,,,,,,,,,5,1.29,1,,,,,,-0.457407407,-0.396296296,1,0,0,1.2897,Obsidian_rect,10,0,10,0,1
63ed1fa5c88ecae92bf0c920,SCR,2024-06-10_15h36.49.659,LearnStrategy,2023.2.3,Win32,59.52380952,9,2,12,,,,,,,,3,06,,,,,,,,,,,,,7,3.672,0,,,,,,0.125925926,-0.412037037,1,0,0,3.6722,Peridotite_rect,11,0,11,0,1
63ed1fa5c88ecae92bf0c920,SCR,2024-06-10_15h36.49.659,LearnStrategy,2023.2.3,Win32,59.52380952,9,2,13,,,,,,,,8,10,,,,,,,,,,,,,1,5.488,0,,,,,,-0.359259259,-0.234259259,1,0,0,5.488,Andesite_rect,12,0,12,0,1
63ed1fa5c88ecae92bf0c920,SCR,2024-06-10_15h36.49.659,LearnStrategy,2023.2.3,Win32,59.52380952,9,2,14,,,,,,,,7,13,,,,,,,,,,,,,4,5.293,0,,,,,,0.391666667,-0.261111111,1,0,0,5.293,Gabbro_rect,13,0,13,0,1
63ed1fa5c88ecae92bf0c920,SCR,2024-06-10_15h36.49.659,LearnStrategy,2023.2.3,Win32,59.52380952,9,2,15,,,,,,,,1,10,,,,,,,,,,,,,4,1.998,0,,,,,,0.327777778,-0.262037037,1,0,0,1.9985,Gabbro_rect,14,0,14,0,1
63ed1fa5c88ecae92bf0c920,SCR,2024-06-10_15h36.49.659,LearnStrategy,2023.2.3,Win32,59.52380952,9,2,16,,,,,,,,2,02,,,,,,,,,,,,,2,3.625,1,,,,,,-0.090740741,-0.237962963,1,0,0,3.6247,Basalt_rect,15,0,15,0,1
63ed1fa5c88ecae92bf0c920,SCR,2024-06-10_15h36.49.659,LearnStrategy,2023.2.3,Win32,59.52380952,,,,,,,,,,,,,,,,,,,,,,,,,,,,,,,,,,,,,,,,,,,,
63ed1fa5c88ecae92bf0c920,SCR,2024-06-10_15h36.49.659,LearnStrategy,2023.2.3,Win32,59.52380952,,,,,,,,,,,,,,,,,,,,,,,,,,,,,,,,,,,,,,,,,,,,
63ed1fa5c88ecae92bf0c920,SCR,2024-06-10_15h36.49.659,LearnStrategy,2023.2.3,Win32,59.52380952,,,,,,,,,,,7,14,1,1,,,,,,,,,,,,,,,,,,,,,,,,,,,,,,
63ed1fa5c88ecae92bf0c920,SCR,2024-06-10_15h36.49.659,LearnStrategy,2023.2.3,Win32,59.52380952,,,,,,,,,,,4,15,1,2,,,,,,,,,,,,,,,,,,,,,,,,,,,,,,
63ed1fa5c88ecae92bf0c920,SCR,2024-06-10_15h36.49.659,LearnStrategy,2023.2.3,Win32,59.52380952,,,,,,,,,,,5,11,1,3,,,,,,,,,,,,,,,,,,,,,,,,,,,,,,
63ed1fa5c88ecae92bf0c920,SCR,2024-06-10_15h36.49.659,LearnStrategy,2023.2.3,Win32,59.52380952,,,,,,,,,,,2,14,1,4,,,,,,,,,,,,,,,,,,,,,,,,,,,,,,
63ed1fa5c88ecae92bf0c920,SCR,2024-06-10_15h36.49.659,LearnStrategy,2023.2.3,Win32,59.52380952,,,,,,,,,,,7,07,1,5,,,,,,,,,,,,,,,,,,,,,,,,,,,,,,
63ed1fa5c88ecae92bf0c920,SCR,2024-06-10_15h36.49.659,LearnStrategy,2023.2.3,Win32,59.52380952,,,,,,,,,,,1,03,1,6,,,,,,,,,,,,,,,,,,,,,,,,,,,,,,
63ed1fa5c88ecae92bf0c920,SCR,2024-06-10_15h36.49.659,LearnStrategy,2023.2.3,Win32,59.52380952,,,,,,,,,,,1,09,1,7,,,,,,,,,,,,,,,,,,,,,,,,,,,,,,
63ed1fa5c88ecae92bf0c920,SCR,2024-06-10_15h36.49.659,LearnStrategy,2023.2.3,Win32,59.52380952,,,,,,,,,,,4,10,1,8,,,,,,,,,,,,,,,,,,,,,,,,,,,,,,
63ed1fa5c88ecae92bf0c920,SCR,2024-06-10_15h36.49.659,LearnStrategy,2023.2.3,Win32,59.52380952,,,,,,,,,,,8,13,2,1,,,,,,,,,,,,,,,,,,,,,,,,,,,,,,
63ed1fa5c88ecae92bf0c920,SCR,2024-06-10_15h36.49.659,LearnStrategy,2023.2.3,Win32,59.52380952,,,,,,,,,,,8,09,2,2,,,,,,,,,,,,,,,,,,,,,,,,,,,,,,
63ed1fa5c88ecae92bf0c920,SCR,2024-06-10_15h36.49.659,LearnStrategy,2023.2.3,Win32,59.52380952,,,,,,,,,,,7,08,2,3,,,,,,,,,,,,,,,,,,,,,,,,,,,,,,
63ed1fa5c88ecae92bf0c920,SCR,2024-06-10_15h36.49.659,LearnStrategy,2023.2.3,Win32,59.52380952,,,,,,,,,,,5,09,2,4,,,,,,,,,,,,,,,,,,,,,,,,,,,,,,
63ed1fa5c88ecae92bf0c920,SCR,2024-06-10_15h36.49.659,LearnStrategy,2023.2.3,Win32,59.52380952,,,,,,,,,,,5,08,2,5,,,,,,,,,,,,,,,,,,,,,,,,,,,,,,
63ed1fa5c88ecae92bf0c920,SCR,2024-06-10_15h36.49.659,LearnStrategy,2023.2.3,Win32,59.52380952,,,,,,,,,,,1,05,2,6,,,,,,,,,,,,,,,,,,,,,,,,,,,,,,
63ed1fa5c88ecae92bf0c920,SCR,2024-06-10_15h36.49.659,LearnStrategy,2023.2.3,Win32,59.52380952,,,,,,,,,,,8,16,2,7,,,,,,,,,,,,,,,,,,,,,,,,,,,,,,
63ed1fa5c88ecae92bf0c920,SCR,2024-06-10_15h36.49.659,LearnStrategy,2023.2.3,Win32,59.52380952,,,,,,,,,,,5,10,2,8,,,,,,,,,,,,,,,,,,,,,,,,,,,,,,
63ed1fa5c88ecae92bf0c920,SCR,2024-06-10_15h36.49.659,LearnStrategy,2023.2.3,Win32,59.52380952,,,,,,,,,,,2,05,3,1,,,,,,,,,,,,,,,,,,,,,,,,,,,,,,
63ed1fa5c88ecae92bf0c920,SCR,2024-06-10_15h36.49.659,LearnStrategy,2023.2.3,Win32,59.52380952,,,,,,,,,,,3,13,3,2,,,,,,,,,,,,,,,,,,,,,,,,,,,,,,
63ed1fa5c88ecae92bf0c920,SCR,2024-06-10_15h36.49.659,LearnStrategy,2023.2.3,Win32,59.52380952,,,,,,,,,,,3,16,3,3,,,,,,,,,,,,,,,,,,,,,,,,,,,,,,
63ed1fa5c88ecae92bf0c920,SCR,2024-06-10_15h36.49.659,LearnStrategy,2023.2.3,Win32,59.52380952,,,,,,,,,,,7,15,3,4,,,,,,,,,,,,,,,,,,,,,,,,,,,,,,
63ed1fa5c88ecae92bf0c920,SCR,2024-06-10_15h36.49.659,LearnStrategy,2023.2.3,Win32,59.52380952,,,,,,,,,,,3,07,3,5,,,,,,,,,,,,,,,,,,,,,,,,,,,,,,
63ed1fa5c88ecae92bf0c920,SCR,2024-06-10_15h36.49.659,LearnStrategy,2023.2.3,Win32,59.52380952,,,,,,,,,,,2,04,3,6,,,,,,,,,,,,,,,,,,,,,,,,,,,,,,
63ed1fa5c88ecae92bf0c920,SCR,2024-06-10_15h36.49.659,LearnStrategy,2023.2.3,Win32,59.52380952,,,,,,,,,,,1,16,3,7,,,,,,,,,,,,,,,,,,,,,,,,,,,,,,
63ed1fa5c88ecae92bf0c920,SCR,2024-06-10_15h36.49.659,LearnStrategy,2023.2.3,Win32,59.52380952,,,,,,,,,,,2,01,3,8,,,,,,,,,,,,,,,,,,,,,,,,,,,,,,
63ed1fa5c88ecae92bf0c920,SCR,2024-06-10_15h36.49.659,LearnStrategy,2023.2.3,Win32,59.52380952,,,,,,,,,,,8,08,4,1,,,,,,,,,,,,,,,,,,,,,,,,,,,,,,
63ed1fa5c88ecae92bf0c920,SCR,2024-06-10_15h36.49.659,LearnStrategy,2023.2.3,Win32,59.52380952,,,,,,,,,,,7,16,4,2,,,,,,,,,,,,,,,,,,,,,,,,,,,,,,
63ed1fa5c88ecae92bf0c920,SCR,2024-06-10_15h36.49.659,LearnStrategy,2023.2.3,Win32,59.52380952,,,,,,,,,,,5,12,4,3,,,,,,,,,,,,,,,,,,,,,,,,,,,,,,
63ed1fa5c88ecae92bf0c920,SCR,2024-06-10_15h36.49.659,LearnStrategy,2023.2.3,Win32,59.52380952,,,,,,,,,,,6,09,4,4,,,,,,,,,,,,,,,,,,,,,,,,,,,,,,
63ed1fa5c88ecae92bf0c920,SCR,2024-06-10_15h36.49.659,LearnStrategy,2023.2.3,Win32,59.52380952,,,,,,,,,,,3,08,4,5,,,,,,,,,,,,,,,,,,,,,,,,,,,,,,
63ed1fa5c88ecae92bf0c920,SCR,2024-06-10_15h36.49.659,LearnStrategy,2023.2.3,Win32,59.52380952,,,,,,,,,,,6,12,4,6,,,,,,,,,,,,,,,,,,,,,,,,,,,,,,
63ed1fa5c88ecae92bf0c920,SCR,2024-06-10_15h36.49.659,LearnStrategy,2023.2.3,Win32,59.52380952,,,,,,,,,,,4,05,4,7,,,,,,,,,,,,,,,,,,,,,,,,,,,,,,
63ed1fa5c88ecae92bf0c920,SCR,2024-06-10_15h36.49.659,LearnStrategy,2023.2.3,Win32,59.52380952,,,,,,,,,,,6,06,4,8,,,,,,,,,,,,,,,,,,,,,,,,,,,,,,
63ed1fa5c88ecae92bf0c920,SCR,2024-06-10_15h36.49.659,LearnStrategy,2023.2.3,Win32,59.52380952,,,,,,,,,,,6,16,5,1,,,,,,,,,,,,,,,,,,,,,,,,,,,,,,
63ed1fa5c88ecae92bf0c920,SCR,2024-06-10_15h36.49.659,LearnStrategy,2023.2.3,Win32,59.52380952,,,,,,,,,,,7,10,5,2,,,,,,,,,,,,,,,,,,,,,,,,,,,,,,
63ed1fa5c88ecae92bf0c920,SCR,2024-06-10_15h36.49.659,LearnStrategy,2023.2.3,Win32,59.52380952,,,,,,,,,,,3,14,5,3,,,,,,,,,,,,,,,,,,,,,,,,,,,,,,
63ed1fa5c88ecae92bf0c920,SCR,2024-06-10_15h36.49.659,LearnStrategy,2023.2.3,Win32,59.52380952,,,,,,,,,,,8,05,5,4,,,,,,,,,,,,,,,,,,,,,,,,,,,,,,
63ed1fa5c88ecae92bf0c920,SCR,2024-06-10_15h36.49.659,LearnStrategy,2023.2.3,Win32,59.52380952,,,,,,,,,,,3,15,5,5,,,,,,,,,,,,,,,,,,,,,,,,,,,,,,
63ed1fa5c88ecae92bf0c920,SCR,2024-06-10_15h36.49.659,LearnStrategy,2023.2.3,Win32,59.52380952,,,,,,,,,,,2,11,5,6,,,,,,,,,,,,,,,,,,,,,,,,,,,,,,
63ed1fa5c88ecae92bf0c920,SCR,2024-06-10_15h36.49.659,LearnStrategy,2023.2.3,Win32,59.52380952,,,,,,,,,,,2,06,5,7,,,,,,,,,,,,,,,,,,,,,,,,,,,,,,
63ed1fa5c88ecae92bf0c920,SCR,2024-06-10_15h36.49.659,LearnStrategy,2023.2.3,Win32,59.52380952,,,,,,,,,,,4,16,5,8,,,,,,,,,,,,,,,,,,,,,,,,,,,,,,
63ed1fa5c88ecae92bf0c920,SCR,2024-06-10_15h36.49.659,LearnStrategy,2023.2.3,Win32,59.52380952,,,,,,,,,,,1,06,6,1,,,,,,,,,,,,,,,,,,,,,,,,,,,,,,
63ed1fa5c88ecae92bf0c920,SCR,2024-06-10_15h36.49.659,LearnStrategy,2023.2.3,Win32,59.52380952,,,,,,,,,,,8,14,6,2,,,,,,,,,,,,,,,,,,,,,,,,,,,,,,
63ed1fa5c88ecae92bf0c920,SCR,2024-06-10_15h36.49.659,LearnStrategy,2023.2.3,Win32,59.52380952,,,,,,,,,,,4,03,6,3,,,,,,,,,,,,,,,,,,,,,,,,,,,,,,
63ed1fa5c88ecae92bf0c920,SCR,2024-06-10_15h36.49.659,LearnStrategy,2023.2.3,Win32,59.52380952,,,,,,,,,,,1,04,6,4,,,,,,,,,,,,,,,,,,,,,,,,,,,,,,
63ed1fa5c88ecae92bf0c920,SCR,2024-06-10_15h36.49.659,LearnStrategy,2023.2.3,Win32,59.52380952,,,,,,,,,,,5,05,6,5,,,,,,,,,,,,,,,,,,,,,,,,,,,,,,
63ed1fa5c88ecae92bf0c920,SCR,2024-06-10_15h36.49.659,LearnStrategy,2023.2.3,Win32,59.52380952,,,,,,,,,,,4,13,6,6,,,,,,,,,,,,,,,,,,,,,,,,,,,,,,
63ed1fa5c88ecae92bf0c920,SCR,2024-06-10_15h36.49.659,LearnStrategy,2023.2.3,Win32,59.52380952,,,,,,,,,,,6,05,6,7,,,,,,,,,,,,,,,,,,,,,,,,,,,,,,
63ed1fa5c88ecae92bf0c920,SCR,2024-06-10_15h36.49.659,LearnStrategy,2023.2.3,Win32,59.52380952,,,,,,,,,,,6,13,6,8,,,,,,,,,,,,,,,,,,,,,,,,,,,,,,