participant,condition,date,expName,psychopyVersion,OS,frameRate,block,phase,trial,learn_mouse.x,learn_mouse.y,learn_mouse.leftButton,learn_mouse.midButton,learn_mouse.rightButton,learn_mouse.time,learn_mouse.clicked_name,cat,token,row,col,t_select,cat_mouse_l.x,cat_mouse_l.y,cat_mouse_l.leftButton,cat_mouse_l.midButton,cat_mouse_l.rightButton,cat_mouse_l.time,cat_mouse_l.clicked_name,resp,t_resp,corr,train_trials.thisRepN,train_trials.thisTrialN,train_trials.thisN,train_trials.thisIndex,train_trials.ran,cat_mouse_t.x,cat_mouse_t.y,cat_mouse_t.leftButton,cat_mouse_t.midButton,cat_mouse_t.rightButton,cat_mouse_t.time,cat_mouse_t.clicked_name,test_trials.thisRepN,test_trials.thisTrialN,test_trials.thisN,test_trials.thisIndex,test_trials.ran,Bonus
63f77b9ca8439f6e1620c1cd,SCN,2024-06-20_13h30.05.615,LearnStrategy,2023.2.3,Win32,62.5,,,,,,,,,,,,,,,,,,,,,,,,,,,,,,,,,,,,,,,,,,,
63f77b9ca8439f6e1620c1cd,SCN,2024-06-20_13h30.05.615,LearnStrategy,2023.2.3,Win32,62.5,1,1,1,-0.556481467,0.273148148,1,0,0,17.784,Obsidian_06,5,06,5,1,17.784,-0.371296282,-0.260185171,1,0,0,5.394,Andesite_rect,1,5.394,0,0,0,0,0,1,,,,,,,,,,,,,
63f77b9ca8439f6e1620c1cd,SCN,2024-06-20_13h30.05.615,LearnStrategy,2023.2.3,Win32,62.5,1,1,2,0.046296296,-0.089814822,1,0,0,1.212,Obsidian_12,5,12,3,5,1.212,0.087037051,-0.253703718,1,0,0,1.357,Diorite_rect,3,1.357,0,1,0,1,0,1,,,,,,,,,,,,,
63f77b9ca8439f6e1620c1cd,SCN,2024-06-20_13h30.05.615,LearnStrategy,2023.2.3,Win32,62.5,1,1,3,0.038888931,-0.407407407,1,0,0,1.514,Obsidian_04,5,04,1,5,1.514,-0.323148127,-0.400000042,1,0,0,1.62,Obsidian_rect,5,1.62,1,2,0,2,0,1,,,,,,,,,,,,,
63f77b9ca8439f6e1620c1cd,SCN,2024-06-20_13h30.05.615,LearnStrategy,2023.2.3,Win32,62.5,1,1,4,0.54814812,0.092592593,1,0,0,1.063,Andesite_11,1,11,4,8,1.063,0.389814871,-0.237963005,1,0,0,1.439,Gabbro_rect,4,1.439,0,3,0,3,0,1,,,,,,,,,,,,,
63f77b9ca8439f6e1620c1cd,SCN,2024-06-20_13h30.05.615,LearnStrategy,2023.2.3,Win32,62.5,1,1,5,-0.373148141,-0.261111153,1,0,0,2.296,Pegmatite_10,6,10,2,2,2.296,-0.158333319,-0.259259259,1,0,0,1.368,Basalt_rect,2,1.368,0,4,0,4,0,1,,,,,,,,,,,,,
63f77b9ca8439f6e1620c1cd,SCN,2024-06-20_13h30.05.615,LearnStrategy,2023.2.3,Win32,62.5,1,1,6,0.365740741,-0.397222236,1,0,0,3.558,Basalt_16,2,16,1,7,3.558,-0.181481467,-0.402777778,1,0,0,1.978,Pegmatite_rect,6,1.978,0,5,0,5,0,1,,,,,,,,,,,,,
63f77b9ca8439f6e1620c1cd,SCN,2024-06-20_13h30.05.615,LearnStrategy,2023.2.3,Win32,62.5,1,1,7,-0.424999979,0.098148134,1,0,0,1.929,Pumice_04,8,04,4,2,1.929,-0.116666653,-0.252777806,1,0,0,3.337,Basalt_rect,2,3.337,0,6,0,6,0,1,,,,,,,,,,,,,
63f77b9ca8439f6e1620c1cd,SCN,2024-06-20_13h30.05.615,LearnStrategy,2023.2.3,Win32,62.5,1,1,8,0.540740826,0.387037039,1,0,0,2.628,Basalt_12,2,12,6,8,2.628,-0.142592607,-0.262962977,1,0,0,3.551,Basalt_rect,2,3.551,1,7,0,7,0,1,,,,,,,,,,,,,
63f77b9ca8439f6e1620c1cd,SCN,2024-06-20_13h30.05.615,LearnStrategy,2023.2.3,Win32,62.5,1,1,9,-0.104629587,-0.395370413,1,0,0,4.494,Diorite_07,3,07,1,4,4.494,-0.121296282,-0.395370413,1,0,0,1.546,Pegmatite_rect,6,1.546,0,8,0,8,0,1,,,,,,,,,,,,,
63f77b9ca8439f6e1620c1cd,SCN,2024-06-20_13h30.05.615,LearnStrategy,2023.2.3,Win32,62.5,1,1,10,0.532407407,-0.408333319,1,0,0,1.164,Pumice_10,8,10,1,8,1.164,-0.10555557,-0.260185171,1,0,0,3.602,Basalt_rect,2,3.602,0,9,0,9,0,1,,,,,,,,,,,,,
63f77b9ca8439f6e1620c1cd,SCN,2024-06-20_13h30.05.615,LearnStrategy,2023.2.3,Win32,62.5,1,1,11,-0.092592593,0.233333323,1,0,0,4.594,Gabbro_03,4,03,5,4,4.594,-0.111111111,-0.251851894,1,0,0,2.392,Basalt_rect,2,2.392,0,10,0,10,0,1,,,,,,,,,,,,,
63f77b9ca8439f6e1620c1cd,SCN,2024-06-20_13h30.05.615,LearnStrategy,2023.2.3,Win32,62.5,1,1,12,0.18240745,0.25462963,1,0,0,2.029,Peridotite_07,7,07,5,6,2.029,0.384259259,-0.401851866,1,0,0,2.154,Pumice_rect,8,2.154,0,11,0,11,0,1,,,,,,,,,,,,,
63f77b9ca8439f6e1620c1cd,SCN,2024-06-20_13h30.05.615,LearnStrategy,2023.2.3,Win32,62.5,1,1,13,-0.110185199,-0.260185171,1,0,0,2.043,Pumice_09,8,09,2,4,2.043,0.350926011,-0.413888931,1,0,0,1.057,Pumice_rect,8,1.057,1,12,0,12,0,1,,,,,,,,,,,,,
63f77b9ca8439f6e1620c1cd,SCN,2024-06-20_13h30.05.615,LearnStrategy,2023.2.3,Win32,62.5,1,1,14,0.235185199,-0.265740783,1,0,0,2.014,Obsidian_14,5,14,2,6,2.014,-0.39166666,-0.404629672,1,0,0,4.468,Obsidian_rect,5,4.468,1,13,0,13,0,1,,,,,,,,,,,,,
63f77b9ca8439f6e1620c1cd,SCN,2024-06-20_13h30.05.615,LearnStrategy,2023.2.3,Win32,62.5,1,1,15,-0.074074074,0.090740734,1,0,0,1.377,Pegmatite_03,6,03,4,4,1.377,-0.125,-0.401851866,1,0,0,1.486,Pegmatite_rect,6,1.486,1,14,0,14,0,1,,,,,,,,,,,,,
63f77b9ca8439f6e1620c1cd,SCN,2024-06-20_13h30.05.615,LearnStrategy,2023.2.3,Win32,62.5,1,1,16,0.187037079,0.086111104,1,0,0,1.313,Pumice_15,8,15,4,6,1.313,0.375925982,-0.420370384,1,0,0,1.222,Pumice_rect,8,1.222,1,15,0,15,0,1,,,,,,,,,,,,,
63f77b9ca8439f6e1620c1cd,SCN,2024-06-20_13h30.05.615,LearnStrategy,2023.2.3,Win32,62.5,1,2,1,,,,,,,,4,01,,,,,,,,,,,7,34.898,0,,,,,,0.103703746,-0.400925954,1,0,0,34.898,Peridotite_rect,0,0,0,0,1,
63f77b9ca8439f6e1620c1cd,SCN,2024-06-20_13h30.05.615,LearnStrategy,2023.2.3,Win32,62.5,1,2,2,,,,,,,,5,08,,,,,,,,,,,5,1.636,1,,,,,,-0.431481467,-0.414814843,1,0,0,1.636,Obsidian_rect,1,0,1,0,1,
63f77b9ca8439f6e1620c1cd,SCN,2024-06-20_13h30.05.615,LearnStrategy,2023.2.3,Win32,62.5,1,2,3,,,,,,,,8,14,,,,,,,,,,,8,1.487,1,,,,,,0.374074159,-0.397222236,1,0,0,1.487,Pumice_rect,2,0,2,0,1,
63f77b9ca8439f6e1620c1cd,SCN,2024-06-20_13h30.05.615,LearnStrategy,2023.2.3,Win32,62.5,1,2,4,,,,,,,,7,13,,,,,,,,,,,8,6.172,0,,,,,,0.419444473,-0.39444443,1,0,0,6.172,Pumice_rect,3,0,3,0,1,
63f77b9ca8439f6e1620c1cd,SCN,2024-06-20_13h30.05.615,LearnStrategy,2023.2.3,Win32,62.5,1,2,5,,,,,,,,1,05,,,,,,,,,,,7,13.053,0,,,,,,0.135185171,-0.392592607,1,0,0,13.053,Peridotite_rect,4,0,4,0,1,
63f77b9ca8439f6e1620c1cd,SCN,2024-06-20_13h30.05.615,LearnStrategy,2023.2.3,Win32,62.5,1,2,6,,,,,,,,3,14,,,,,,,,,,,3,8.655,1,,,,,,0.094444487,-0.262962977,1,0,0,8.655,Diorite_rect,5,0,5,0,1,
63f77b9ca8439f6e1620c1cd,SCN,2024-06-20_13h30.05.615,LearnStrategy,2023.2.3,Win32,62.5,1,2,7,,,,,,,,4,12,,,,,,,,,,,4,24.002,1,,,,,,0.332407492,-0.25462963,1,0,0,24.002,Gabbro_rect,6,0,6,0,1,
63f77b9ca8439f6e1620c1cd,SCN,2024-06-20_13h30.05.615,LearnStrategy,2023.2.3,Win32,62.5,1,2,8,,,,,,,,8,03,,,,,,,,,,,8,1.287,1,,,,,,0.40833339,-0.392592607,1,0,0,1.287,Pumice_rect,7,0,7,0,1,
63f77b9ca8439f6e1620c1cd,SCN,2024-06-20_13h30.05.615,LearnStrategy,2023.2.3,Win32,62.5,1,2,9,,,,,,,,5,07,,,,,,,,,,,5,1.691,1,,,,,,-0.426851838,-0.39444443,1,0,0,1.691,Obsidian_rect,8,0,8,0,1,
63f77b9ca8439f6e1620c1cd,SCN,2024-06-20_13h30.05.615,LearnStrategy,2023.2.3,Win32,62.5,1,2,10,,,,,,,,7,06,,,,,,,,,,,6,9.927,0,,,,,,-0.101851852,-0.400925954,1,0,0,9.927,Pegmatite_rect,9,0,9,0,1,
63f77b9ca8439f6e1620c1cd,SCN,2024-06-20_13h30.05.615,LearnStrategy,2023.2.3,Win32,62.5,1,2,11,,,,,,,,1,16,,,,,,,,,,,7,10.186,0,,,,,,0.111111111,-0.408333319,1,0,0,10.186,Peridotite_rect,10,0,10,0,1,
63f77b9ca8439f6e1620c1cd,SCN,2024-06-20_13h30.05.615,LearnStrategy,2023.2.3,Win32,62.5,1,2,12,,,,,,,,3,06,,,,,,,,,,,3,7.97,1,,,,,,0.108333376,-0.263888889,1,0,0,7.97,Diorite_rect,11,0,11,0,1,
63f77b9ca8439f6e1620c1cd,SCN,2024-06-20_13h30.05.615,LearnStrategy,2023.2.3,Win32,62.5,1,2,13,,,,,,,,6,09,,,,,,,,,,,6,5.635,1,,,,,,-0.098148134,-0.407407407,1,0,0,5.635,Pegmatite_rect,12,0,12,0,1,
63f77b9ca8439f6e1620c1cd,SCN,2024-06-20_13h30.05.615,LearnStrategy,2023.2.3,Win32,62.5,1,2,14,,,,,,,,6,13,,,,,,,,,,,6,2.07,1,,,,,,-0.098148134,-0.407407407,1,0,0,2.07,Pegmatite_rect,13,0,13,0,1,
63f77b9ca8439f6e1620c1cd,SCN,2024-06-20_13h30.05.615,LearnStrategy,2023.2.3,Win32,62.5,1,2,15,,,,,,,,2,05,,,,,,,,,,,1,5.388,0,,,,,,-0.338888875,-0.249074088,1,0,0,5.388,Andesite_rect,14,0,14,0,1,
63f77b9ca8439f6e1620c1cd,SCN,2024-06-20_13h30.05.615,LearnStrategy,2023.2.3,Win32,62.5,1,2,16,,,,,,,,2,09,,,,,,,,,,,2,11.118,1,,,,,,-0.116666653,-0.240740741,1,0,0,11.118,Basalt_rect,15,0,15,0,1,
63f77b9ca8439f6e1620c1cd,SCN,2024-06-20_13h30.05.615,LearnStrategy,2023.2.3,Win32,62.5,2,1,1,-0.071296268,0.122222229,1,0,0,10.045,Pegmatite_03,6,03,4,4,10.045,-0.412037037,-0.255555541,1,0,0,1.988,Andesite_rect,1,1.988,0,0,0,0,0,1,,,,,,,,,,,,,
63f77b9ca8439f6e1620c1cd,SCN,2024-06-20_13h30.05.615,LearnStrategy,2023.2.3,Win32,62.5,2,1,2,-0.061111097,0.256481471,1,0,0,3.679,Gabbro_03,4,03,5,4,3.679,0.097222222,-0.241666653,1,0,0,1.113,Diorite_rect,3,1.113,0,1,0,1,0,1,,,,,,,,,,,,,
63f77b9ca8439f6e1620c1cd,SCN,2024-06-20_13h30.05.615,LearnStrategy,2023.2.3,Win32,62.5,2,1,3,0.57685188,-0.118518547,1,0,0,2.512,Peridotite_14,7,14,3,8,2.512,0.179629644,-0.255555541,1,0,0,0.871,Diorite_rect,3,0.871,0,2,0,2,0,1,,,,,,,,,,,,,
63f77b9ca8439f6e1620c1cd,SCN,2024-06-20_13h30.05.615,LearnStrategy,2023.2.3,Win32,62.5,2,1,4,0.550925926,0.231481481,1,0,0,6.539,Diorite_16,3,16,5,8,6.539,0.088888875,-0.240740741,1,0,0,1.022,Diorite_rect,3,1.022,1,3,0,3,0,1,,,,,,,,,,,,,
63f77b9ca8439f6e1620c1cd,SCN,2024-06-20_13h30.05.615,LearnStrategy,2023.2.3,Win32,62.5,2,1,5,-0.534259266,0.105555534,1,0,0,3.397,Andesite_03,1,03,4,1,3.397,-0.176851838,-0.409259302,1,0,0,1.404,Pegmatite_rect,6,1.404,0,4,0,4,0,1,,,,,,,,,,,,,
63f77b9ca8439f6e1620c1cd,SCN,2024-06-20_13h30.05.615,LearnStrategy,2023.2.3,Win32,62.5,2,1,6,0.224074116,-0.091666681,1,0,0,1.846,Gabbro_11,4,11,3,6,1.846,-0.087037051,-0.40370369,1,0,0,0.718,Pegmatite_rect,6,0.718,0,5,0,5,0,1,,,,,,,,,,,,,
63f77b9ca8439f6e1620c1cd,SCN,2024-06-20_13h30.05.615,LearnStrategy,2023.2.3,Win32,62.5,2,1,7,0.099074116,0.387962959,1,0,0,4.296,Peridotite_12,7,12,6,5,4.296,0.18240745,-0.421296296,1,0,0,1.08,Peridotite_rect,7,1.08,1,6,0,6,0,1,,,,,,,,,,,,,
63f77b9ca8439f6e1620c1cd,SCN,2024-06-20_13h30.05.615,LearnStrategy,2023.2.3,Win32,62.5,2,1,8,-0.108333305,-0.406481496,1,0,0,4.046,Diorite_07,3,07,1,4,4.046,0.148148148,-0.419444473,1,0,0,0.76,Peridotite_rect,7,0.76,0,7,0,7,0,1,,,,,,,,,,,,,
63f77b9ca8439f6e1620c1cd,SCN,2024-06-20_13h30.05.615,LearnStrategy,2023.2.3,Win32,62.5,2,1,9,0.069444444,0.079629616,1,0,0,1.032,Andesite_07,1,07,4,5,1.032,-0.390740748,-0.387037065,1,0,0,1.754,Obsidian_rect,5,1.754,0,8,0,8,0,1,,,,,,,,,,,,,
63f77b9ca8439f6e1620c1cd,SCN,2024-06-20_13h30.05.615,LearnStrategy,2023.2.3,Win32,62.5,2,1,10,-0.551851838,-0.425000014,1,0,0,7.23,Diorite_02,3,02,1,1,7.23,-0.386111118,-0.40370369,1,0,0,0.727,Obsidian_rect,5,0.727,0,9,0,9,0,1,,,,,,,,,,,,,
63f77b9ca8439f6e1620c1cd,SCN,2024-06-20_13h30.05.615,LearnStrategy,2023.2.3,Win32,62.5,2,1,11,-0.249074088,0.417592587,1,0,0,3.445,Gabbro_16,4,16,6,3,3.445,-0.408333319,-0.25462963,1,0,0,0.919,Andesite_rect,1,0.919,0,10,0,10,0,1,,,,,,,,,,,,,
63f77b9ca8439f6e1620c1cd,SCN,2024-06-20_13h30.05.615,LearnStrategy,2023.2.3,Win32,62.5,2,1,12,-0.237037023,-0.115740741,1,0,0,2.031,Andesite_04,1,04,3,3,2.031,0.362962935,-0.410185213,1,0,0,0.956,Pumice_rect,8,0.956,0,11,0,11,0,1,,,,,,,,,,,,,
63f77b9ca8439f6e1620c1cd,SCN,2024-06-20_13h30.05.615,LearnStrategy,2023.2.3,Win32,62.5,2,1,13,-0.061111097,-0.125925912,1,0,0,5.664,Pumice_02,8,02,3,4,5.664,0.356481481,-0.409259302,1,0,0,0.759,Pumice_rect,8,0.759,1,12,0,12,0,1,,,,,,,,,,,,,
63f77b9ca8439f6e1620c1cd,SCN,2024-06-20_13h30.05.615,LearnStrategy,2023.2.3,Win32,62.5,2,1,14,0.359259288,0.244444441,1,0,0,2.346,Basalt_01,2,01,5,7,2.346,-0.342592593,-0.409259302,1,0,0,1.053,Obsidian_rect,5,1.053,0,13,0,13,0,1,,,,,,,,,,,,,
63f77b9ca8439f6e1620c1cd,SCN,2024-06-20_13h30.05.615,LearnStrategy,2023.2.3,Win32,62.5,2,1,15,-0.253703718,-0.137037065,1,0,0,8.763,Andesite_04,1,04,3,3,8.763,-0.437962956,-0.411111125,1,0,0,1.625,Obsidian_rect,5,1.625,0,14,0,14,0,1,,,,,,,,,,,,,
63f77b9ca8439f6e1620c1cd,SCN,2024-06-20_13h30.05.615,LearnStrategy,2023.2.3,Win32,62.5,2,1,16,0.237963005,-0.425000014,1,0,0,1.563,Pegmatite_06,6,06,1,6,1.563,-0.085185157,-0.385185171,1,0,0,0.802,Pegmatite_rect,6,0.802,1,15,0,15,0,1,,,,,,,,,,,,,
63f77b9ca8439f6e1620c1cd,SCN,2024-06-20_13h30.05.615,LearnStrategy,2023.2.3,Win32,62.5,2,2,1,,,,,,,,1,09,,,,,,,,,,,4,26.733,0,,,,,,0.337962963,-0.253703718,1,0,0,26.733,Gabbro_rect,0,0,0,0,1,
63f77b9ca8439f6e1620c1cd,SCN,2024-06-20_13h30.05.615,LearnStrategy,2023.2.3,Win32,62.5,2,2,2,,,,,,,,3,08,,,,,,,,,,,3,8.368,1,,,,,,0.142592607,-0.242592635,1,0,0,8.368,Diorite_rect,1,0,1,0,1,
63f77b9ca8439f6e1620c1cd,SCN,2024-06-20_13h30.05.615,LearnStrategy,2023.2.3,Win32,62.5,2,2,3,,,,,,,,7,15,,,,,,,,,,,6,8.861,0,,,,,,-0.131481453,-0.400925954,1,0,0,8.861,Pegmatite_rect,2,0,2,0,1,
63f77b9ca8439f6e1620c1cd,SCN,2024-06-20_13h30.05.615,LearnStrategy,2023.2.3,Win32,62.5,2,2,4,,,,,,,,8,06,,,,,,,,,,,8,1.68,1,,,,,,0.362962935,-0.405555584,1,0,0,1.68,Pumice_rect,3,0,3,0,1,
63f77b9ca8439f6e1620c1cd,SCN,2024-06-20_13h30.05.615,LearnStrategy,2023.2.3,Win32,62.5,2,2,5,,,,,,,,3,12,,,,,,,,,,,3,11.853,1,,,,,,0.148148148,-0.261111153,1,0,0,11.853,Diorite_rect,4,0,4,0,1,
63f77b9ca8439f6e1620c1cd,SCN,2024-06-20_13h30.05.615,LearnStrategy,2023.2.3,Win32,62.5,2,2,6,,,,,,,,5,10,,,,,,,,,,,5,1.181,1,,,,,,-0.449999986,-0.396296325,1,0,0,1.181,Obsidian_rect,5,0,5,0,1,
63f77b9ca8439f6e1620c1cd,SCN,2024-06-20_13h30.05.615,LearnStrategy,2023.2.3,Win32,62.5,2,2,7,,,,,,,,5,05,,,,,,,,,,,5,1.054,1,,,,,,-0.404629637,-0.39444443,1,0,0,1.054,Obsidian_rect,6,0,6,0,1,
63f77b9ca8439f6e1620c1cd,SCN,2024-06-20_13h30.05.615,LearnStrategy,2023.2.3,Win32,62.5,2,2,8,,,,,,,,6,05,,,,,,,,,,,5,1.254,0,,,,,,-0.404629637,-0.39444443,1,0,0,1.254,Obsidian_rect,7,0,7,0,1,
63f77b9ca8439f6e1620c1cd,SCN,2024-06-20_13h30.05.615,LearnStrategy,2023.2.3,Win32,62.5,2,2,9,,,,,,,,1,14,,,,,,,,,,,1,33.455,1,,,,,,-0.439814815,-0.257407436,1,0,0,33.455,Andesite_rect,8,0,8,0,1,
63f77b9ca8439f6e1620c1cd,SCN,2024-06-20_13h30.05.615,LearnStrategy,2023.2.3,Win32,62.5,2,2,10,,,,,,,,4,09,,,,,,,,,,,5,1.756,0,,,,,,-0.449999986,-0.404629672,1,0,0,1.756,Obsidian_rect,9,0,9,0,1,
63f77b9ca8439f6e1620c1cd,SCN,2024-06-20_13h30.05.615,LearnStrategy,2023.2.3,Win32,62.5,2,2,11,,,,,,,,6,08,,,,,,,,,,,5,1.221,0,,,,,,-0.449999986,-0.40370369,1,0,0,1.221,Obsidian_rect,10,0,10,0,1,
63f77b9ca8439f6e1620c1cd,SCN,2024-06-20_13h30.05.615,LearnStrategy,2023.2.3,Win32,62.5,2,2,12,,,,,,,,2,10,,,,,,,,,,,4,16.336,0,,,,,,0.416666667,-0.247222265,1,0,0,16.336,Gabbro_rect,11,0,11,0,1,
63f77b9ca8439f6e1620c1cd,SCN,2024-06-20_13h30.05.615,LearnStrategy,2023.2.3,Win32,62.5,2,2,13,,,,,,,,4,08,,,,,,,,,,,1,26.839,0,,,,,,-0.375925912,-0.236111111,1,0,0,26.839,Andesite_rect,12,0,12,0,1,
63f77b9ca8439f6e1620c1cd,SCN,2024-06-20_13h30.05.615,LearnStrategy,2023.2.3,Win32,62.5,2,2,14,,,,,,,,2,14,,,,,,,,,,,1,27.028,0,,,,,,-0.375,-0.25462963,1,0,0,27.028,Andesite_rect,13,0,13,0,1,
63f77b9ca8439f6e1620c1cd,SCN,2024-06-20_13h30.05.615,LearnStrategy,2023.2.3,Win32,62.5,2,2,15,,,,,,,,7,08,,,,,,,,,,,1,7.327,0,,,,,,-0.361111111,-0.240740741,1,0,0,7.327,Andesite_rect,14,0,14,0,1,
63f77b9ca8439f6e1620c1cd,SCN,2024-06-20_13h30.05.615,LearnStrategy,2023.2.3,Win32,62.5,2,2,16,,,,,,,,8,08,,,,,,,,,,,8,1.249,1,,,,,,0.339814787,-0.397222236,1,0,0,1.249,Pumice_rect,15,0,15,0,1,
63f77b9ca8439f6e1620c1cd,SCN,2024-06-20_13h30.05.615,LearnStrategy,2023.2.3,Win32,62.5,3,1,1,0.413888861,-0.391666695,1,0,0,4.521,Basalt_16,2,16,1,7,4.521,-0.378703683,-0.251851894,1,0,0,1.742,Andesite_rect,1,1.742,0,0,0,0,0,1,,,,,,,,,,,,,
63f77b9ca8439f6e1620c1cd,SCN,2024-06-20_13h30.05.615,LearnStrategy,2023.2.3,Win32,62.5,3,1,2,-0.233333305,-0.404629672,1,0,0,13.578,Gabbro_10,4,10,1,3,13.578,-0.140740712,-0.266666695,1,0,0,1.105,Basalt_rect,2,1.105,0,1,0,1,0,1,,,,,,,,,,,,,
63f77b9ca8439f6e1620c1cd,SCN,2024-06-20_13h30.05.615,LearnStrategy,2023.2.3,Win32,62.5,3,1,3,0.565740797,-0.116666653,1,0,0,3.197,Peridotite_14,7,14,3,8,3.197,-0.383333312,-0.238888917,1,0,0,1.198,Andesite_rect,1,1.198,0,2,0,2,0,1,,,,,,,,,,,,,
63f77b9ca8439f6e1620c1cd,SCN,2024-06-20_13h30.05.615,LearnStrategy,2023.2.3,Win32,62.5,3,1,4,0.53333339,0.251851841,1,0,0,3.664,Diorite_16,3,16,5,8,3.664,-0.386111118,-0.400925954,1,0,0,2.211,Obsidian_rect,5,2.211,0,3,0,3,0,1,,,,,,,,,,,,,
63f77b9ca8439f6e1620c1cd,SCN,2024-06-20_13h30.05.615,LearnStrategy,2023.2.3,Win32,62.5,3,1,5,-0.38703703,0.37962963,1,0,0,7.728,Andesite_01,1,01,6,2,7.728,-0.389814801,-0.417592578,1,0,0,1.239,Obsidian_rect,5,1.239,0,4,0,4,0,1,,,,,,,,,,,,,
63f77b9ca8439f6e1620c1cd,SCN,2024-06-20_13h30.05.615,LearnStrategy,2023.2.3,Win32,62.5,3,1,6,-0.386111118,-0.386111153,1,0,0,3.646,Pegmatite_16,6,16,1,2,3.646,-0.127777735,-0.417592578,1,0,0,0.949,Pegmatite_rect,6,0.949,1,5,0,5,0,1,,,,,,,,,,,,,
63f77b9ca8439f6e1620c1cd,SCN,2024-06-20_13h30.05.615,LearnStrategy,2023.2.3,Win32,62.5,3,1,7,0.24537037,-0.428703732,1,0,0,2.83,Pegmatite_06,6,06,1,6,2.83,-0.366666653,-0.236111111,1,0,0,0.786,Andesite_rect,1,0.786,0,6,0,6,0,1,,,,,,,,,,,,,
63f77b9ca8439f6e1620c1cd,SCN,2024-06-20_13h30.05.615,LearnStrategy,2023.2.3,Win32,62.5,3,1,8,0.41851849,-0.262962977,1,0,0,1.664,Diorite_13,3,13,2,7,1.664,-0.074074074,-0.391666695,1,0,0,1.955,Pegmatite_rect,6,1.955,0,7,0,7,0,1,,,,,,,,,,,,,
63f77b9ca8439f6e1620c1cd,SCN,2024-06-20_13h30.05.615,LearnStrategy,2023.2.3,Win32,62.5,3,1,9,-0.220370328,-0.086111104,1,0,0,2.596,Andesite_04,1,04,3,3,2.596,-0.108333305,-0.250925912,1,0,0,1.216,Basalt_rect,2,1.216,0,8,0,8,0,1,,,,,,,,,,,,,
63f77b9ca8439f6e1620c1cd,SCN,2024-06-20_13h30.05.615,LearnStrategy,2023.2.3,Win32,62.5,3,1,10,-0.075925898,-0.113888917,1,0,0,4.313,Pumice_02,8,02,3,4,4.313,0.382407436,-0.386111153,1,0,0,0.923,Pumice_rect,8,0.923,1,9,0,9,0,1,,,,,,,,,,,,,
63f77b9ca8439f6e1620c1cd,SCN,2024-06-20_13h30.05.615,LearnStrategy,2023.2.3,Win32,62.5,3,1,11,-0.069444444,0.065740727,1,0,0,5.048,Pegmatite_03,6,03,4,4,5.048,-0.3824074,-0.237037023,1,0,0,1.057,Andesite_rect,1,1.057,0,10,0,10,0,1,,,,,,,,,,,,,
63f77b9ca8439f6e1620c1cd,SCN,2024-06-20_13h30.05.615,LearnStrategy,2023.2.3,Win32,62.5,3,1,12,0.026851866,0.067592586,1,0,0,2.963,Andesite_07,1,07,4,5,2.963,0.37037037,-0.257407436,1,0,0,0.812,Gabbro_rect,4,0.812,0,11,0,11,0,1,,,,,,,,,,,,,
63f77b9ca8439f6e1620c1cd,SCN,2024-06-20_13h30.05.615,LearnStrategy,2023.2.3,Win32,62.5,3,1,13,-0.383333312,0.25,1,0,0,4.046,Basalt_08,2,08,5,2,4.046,-0.345370363,-0.402777778,1,0,0,0.786,Obsidian_rect,5,0.786,0,12,0,12,0,1,,,,,,,,,,,,,
63f77b9ca8439f6e1620c1cd,SCN,2024-06-20_13h30.05.615,LearnStrategy,2023.2.3,Win32,62.5,3,1,14,-0.233333305,0.382407409,1,0,0,5.83,Gabbro_16,4,16,6,3,5.83,-0.441666674,-0.412962949,1,0,0,1.113,Obsidian_rect,5,1.113,0,13,0,13,0,1,,,,,,,,,,,,,
63f77b9ca8439f6e1620c1cd,SCN,2024-06-20_13h30.05.615,LearnStrategy,2023.2.3,Win32,62.5,3,1,15,0.220370399,0.231481481,1,0,0,2.147,Peridotite_07,7,07,5,6,2.147,0.192592621,-0.40370369,1,0,0,0.802,Peridotite_rect,7,0.802,1,14,0,14,0,1,,,,,,,,,,,,,
63f77b9ca8439f6e1620c1cd,SCN,2024-06-20_13h30.05.615,LearnStrategy,2023.2.3,Win32,62.5,3,1,16,-0.585185192,-0.125925912,1,0,0,2.996,Diorite_15,3,15,3,1,2.996,0.158333319,-0.382407436,1,0,0,0.924,Peridotite_rect,7,0.924,0,15,0,15,0,1,,,,,,,,,,,,,
63f77b9ca8439f6e1620c1cd,SCN,2024-06-20_13h30.05.615,LearnStrategy,2023.2.3,Win32,62.5,3,2,1,,,,,,,,8,16,,,,,,,,,,,8,19.484,1,,,,,,0.366666723,-0.409259302,1,0,0,19.484,Pumice_rect,0,0,0,0,1,
63f77b9ca8439f6e1620c1cd,SCN,2024-06-20_13h30.05.615,LearnStrategy,2023.2.3,Win32,62.5,3,2,2,,,,,,,,8,13,,,,,,,,,,,8,1.229,1,,,,,,0.373148176,-0.391666695,1,0,0,1.229,Pumice_rect,1,0,1,0,1,
63f77b9ca8439f6e1620c1cd,SCN,2024-06-20_13h30.05.615,LearnStrategy,2023.2.3,Win32,62.5,3,2,3,,,,,,,,6,07,,,,,,,,,,,6,4.377,1,,,,,,-0.12037037,-0.398148148,1,0,0,4.377,Pegmatite_rect,2,0,2,0,1,
63f77b9ca8439f6e1620c1cd,SCN,2024-06-20_13h30.05.615,LearnStrategy,2023.2.3,Win32,62.5,3,2,4,,,,,,,,5,09,,,,,,,,,,,5,1.036,1,,,,,,-0.418518526,-0.391666695,1,0,0,1.036,Obsidian_rect,3,0,3,0,1,
63f77b9ca8439f6e1620c1cd,SCN,2024-06-20_13h30.05.615,LearnStrategy,2023.2.3,Win32,62.5,3,2,5,,,,,,,,3,11,,,,,,,,,,,3,10.453,1,,,,,,0.092592593,-0.261111153,1,0,0,10.453,Diorite_rect,4,0,4,0,1,
63f77b9ca8439f6e1620c1cd,SCN,2024-06-20_13h30.05.615,LearnStrategy,2023.2.3,Win32,62.5,3,2,6,,,,,,,,1,10,,,,,,,,,,,1,17.994,1,,,,,,-0.375925912,-0.233333376,1,0,0,17.994,Andesite_rect,5,0,5,0,1,
63f77b9ca8439f6e1620c1cd,SCN,2024-06-20_13h30.05.615,LearnStrategy,2023.2.3,Win32,62.5,3,2,7,,,,,,,,4,13,,,,,,,,,,,7,8.514,0,,,,,,0.111111111,-0.407407407,1,0,0,8.514,Peridotite_rect,6,0,6,0,1,
63f77b9ca8439f6e1620c1cd,SCN,2024-06-20_13h30.05.615,LearnStrategy,2023.2.3,Win32,62.5,3,2,8,,,,,,,,5,11,,,,,,,,,,,5,1.197,1,,,,,,-0.383333312,-0.392592607,1,0,0,1.197,Obsidian_rect,7,0,7,0,1,
63f77b9ca8439f6e1620c1cd,SCN,2024-06-20_13h30.05.615,LearnStrategy,2023.2.3,Win32,62.5,3,2,9,,,,,,,,7,16,,,,,,,,,,,7,10.69,1,,,,,,0.085185228,-0.393518519,1,0,0,10.69,Peridotite_rect,8,0,8,0,1,
63f77b9ca8439f6e1620c1cd,SCN,2024-06-20_13h30.05.615,LearnStrategy,2023.2.3,Win32,62.5,3,2,10,,,,,,,,3,10,,,,,,,,,,,3,4.345,1,,,,,,0.113888917,-0.231481481,1,0,0,4.345,Diorite_rect,9,0,9,0,1,
63f77b9ca8439f6e1620c1cd,SCN,2024-06-20_13h30.05.615,LearnStrategy,2023.2.3,Win32,62.5,3,2,11,,,,,,,,2,11,,,,,,,,,,,7,42.96,0,,,,,,0.107407393,-0.414814843,1,0,0,42.96,Peridotite_rect,10,0,10,0,1,
63f77b9ca8439f6e1620c1cd,SCN,2024-06-20_13h30.05.615,LearnStrategy,2023.2.3,Win32,62.5,3,2,12,,,,,,,,1,02,,,,,,,,,,,1,18.479,1,,,,,,-0.336111104,-0.246296282,1,0,0,18.479,Andesite_rect,11,0,11,0,1,
63f77b9ca8439f6e1620c1cd,SCN,2024-06-20_13h30.05.615,LearnStrategy,2023.2.3,Win32,62.5,3,2,13,,,,,,,,7,05,,,,,,,,,,,6,5.045,0,,,,,,-0.116666653,-0.413888931,1,0,0,5.045,Pegmatite_rect,12,0,12,0,1,
63f77b9ca8439f6e1620c1cd,SCN,2024-06-20_13h30.05.615,LearnStrategy,2023.2.3,Win32,62.5,3,2,14,,,,,,,,2,06,,,,,,,,,,,2,11.888,1,,,,,,-0.169444402,-0.244444459,1,0,0,11.888,Basalt_rect,13,0,13,0,1,
63f77b9ca8439f6e1620c1cd,SCN,2024-06-20_13h30.05.615,LearnStrategy,2023.2.3,Win32,62.5,3,2,15,,,,,,,,6,11,,,,,,,,,,,7,14.16,0,,,,,,0.088888875,-0.384259259,1,0,0,14.16,Peridotite_rect,14,0,14,0,1,
63f77b9ca8439f6e1620c1cd,SCN,2024-06-20_13h30.05.615,LearnStrategy,2023.2.3,Win32,62.5,3,2,16,,,,,,,,4,14,,,,,,,,,,,3,13.345,0,,,,,,0.086111139,-0.262037065,1,0,0,13.345,Diorite_rect,15,0,15,0,1,
63f77b9ca8439f6e1620c1cd,SCN,2024-06-20_13h30.05.615,LearnStrategy,2023.2.3,Win32,62.5,4,1,1,0.537037037,0.386111109,1,0,0,14.546,Basalt_12,2,12,6,8,14.546,-0.057407379,-0.382407436,1,0,0,4.46,Pegmatite_rect,6,4.46,0,0,0,0,0,1,,,,,,,,,,,,,
63f77b9ca8439f6e1620c1cd,SCN,2024-06-20_13h30.05.615,LearnStrategy,2023.2.3,Win32,62.5,4,1,2,0.584259316,0.239814811,1,0,0,0.797,Diorite_16,3,16,5,8,0.797,0.140740783,-0.395370413,1,0,0,1.347,Peridotite_rect,7,1.347,0,1,0,1,0,1,,,,,,,,,,,,,
63f77b9ca8439f6e1620c1cd,SCN,2024-06-20_13h30.05.615,LearnStrategy,2023.2.3,Win32,62.5,4,1,3,0.546296296,0.109259252,1,0,0,0.907,Andesite_11,1,11,4,8,0.907,-0.341666645,-0.392592607,1,0,0,1.337,Obsidian_rect,5,1.337,0,2,0,2,0,1,,,,,,,,,,,,,
63f77b9ca8439f6e1620c1cd,SCN,2024-06-20_13h30.05.615,LearnStrategy,2023.2.3,Win32,62.5,4,1,4,0.573148233,-0.087037051,1,0,0,0.978,Peridotite_14,7,14,3,8,0.978,0.08148151,-0.265740783,1,0,0,1.373,Diorite_rect,3,1.373,0,3,0,3,0,1,,,,,,,,,,,,,
63f77b9ca8439f6e1620c1cd,SCN,2024-06-20_13h30.05.615,LearnStrategy,2023.2.3,Win32,62.5,4,1,5,0.562962991,-0.236111111,1,0,0,1.014,Pumice_05,8,05,2,8,1.014,0.368518547,-0.408333319,1,0,0,0.569,Pumice_rect,8,0.569,1,4,0,4,0,1,,,,,,,,,,,,,
63f77b9ca8439f6e1620c1cd,SCN,2024-06-20_13h30.05.615,LearnStrategy,2023.2.3,Win32,62.5,4,1,6,0.58148151,-0.431481467,1,0,0,0.907,Pumice_10,8,10,1,8,0.907,0.368518547,-0.398148148,1,0,0,0.598,Pumice_rect,8,0.598,1,5,0,5,0,1,,,,,,,,,,,,,
63f77b9ca8439f6e1620c1cd,SCN,2024-06-20_13h30.05.615,LearnStrategy,2023.2.3,Win32,62.5,4,1,7,0.40370376,0.396296298,1,0,0,0.746,Gabbro_15,4,15,6,7,0.746,-0.15370369,-0.417592578,1,0,0,2.204,Pegmatite_rect,6,2.204,0,6,0,6,0,1,,,,,,,,,,,,,
63f77b9ca8439f6e1620c1cd,SCN,2024-06-20_13h30.05.615,LearnStrategy,2023.2.3,Win32,62.5,4,1,8,0.392592677,0.279629619,1,0,0,0.691,Basalt_01,2,01,5,7,0.691,0.145370413,-0.255555541,1,0,0,1.359,Diorite_rect,3,1.359,0,7,0,7,0,1,,,,,,,,,,,,,
63f77b9ca8439f6e1620c1cd,SCN,2024-06-20_13h30.05.615,LearnStrategy,2023.2.3,Win32,62.5,4,1,9,0.40833339,0.10833334,1,0,0,0.928,Gabbro_05,4,05,4,7,0.928,0.097222222,-0.262037065,1,0,0,2.281,Diorite_rect,3,2.281,0,8,0,8,0,1,,,,,,,,,,,,,
63f77b9ca8439f6e1620c1cd,SCN,2024-06-20_13h30.05.615,LearnStrategy,2023.2.3,Win32,62.5,4,1,10,0.417592649,0.077777757,1,0,0,0.996,Gabbro_05,4,05,4,7,0.996,0.103703746,-0.240740741,1,0,0,1.335,Diorite_rect,3,1.335,0,9,0,9,0,1,,,,,,,,,,,,,
63f77b9ca8439f6e1620c1cd,SCN,2024-06-20_13h30.05.615,LearnStrategy,2023.2.3,Win32,62.5,4,1,11,0.351851852,-0.101851852,1,0,0,1.264,Peridotite_10,7,10,3,7,1.264,-0.147222236,-0.385185171,1,0,0,1.603,Pegmatite_rect,6,1.603,0,10,0,10,0,1,,,,,,,,,,,,,
63f77b9ca8439f6e1620c1cd,SCN,2024-06-20_13h30.05.615,LearnStrategy,2023.2.3,Win32,62.5,4,1,12,0.392592677,-0.268518519,1,0,0,1.063,Diorite_13,3,13,2,7,1.063,-0.146296254,-0.406481496,1,0,0,1.103,Pegmatite_rect,6,1.103,0,11,0,11,0,1,,,,,,,,,,,,,
63f77b9ca8439f6e1620c1cd,SCN,2024-06-20_13h30.05.615,LearnStrategy,2023.2.3,Win32,62.5,4,1,13,0.378703788,-0.39907406,1,0,0,0.914,Basalt_16,2,16,1,7,0.914,-0.433333326,-0.395370413,1,0,0,1.49,Obsidian_rect,5,1.49,0,12,0,12,0,1,,,,,,,,,,,,,
63f77b9ca8439f6e1620c1cd,SCN,2024-06-20_13h30.05.615,LearnStrategy,2023.2.3,Win32,62.5,4,1,14,0.240740741,0.412962958,1,0,0,2.663,Basalt_04,2,04,6,6,2.663,-0.381481489,-0.404629672,1,0,0,1.778,Obsidian_rect,5,1.778,0,13,0,13,0,1,,,,,,,,,,,,,
63f77b9ca8439f6e1620c1cd,SCN,2024-06-20_13h30.05.615,LearnStrategy,2023.2.3,Win32,62.5,4,1,15,0.350926011,0.224999993,1,0,0,1.595,Basalt_01,2,01,5,7,1.595,-0.387962942,-0.405555584,1,0,0,1.009,Obsidian_rect,5,1.009,0,14,0,14,0,1,,,,,,,,,,,,,
63f77b9ca8439f6e1620c1cd,SCN,2024-06-20_13h30.05.615,LearnStrategy,2023.2.3,Win32,62.5,4,1,16,0.375,0.094444452,1,0,0,0.831,Gabbro_05,4,05,4,7,0.831,0.147222236,-0.258333347,1,0,0,1.285,Diorite_rect,3,1.285,0,15,0,15,0,1,,,,,,,,,,,,,
63f77b9ca8439f6e1620c1cd,SCN,2024-06-20_13h30.05.615,LearnStrategy,2023.2.3,Win32,62.5,4,2,1,,,,,,,,3,12,,,,,,,,,,,3,20.902,1,,,,,,0.094444487,-0.249074088,1,0,0,20.902,Diorite_rect,0,0,0,0,1,
63f77b9ca8439f6e1620c1cd,SCN,2024-06-20_13h30.05.615,LearnStrategy,2023.2.3,Win32,62.5,4,2,2,,,,,,,,3,14,,,,,,,,,,,7,5.381,0,,,,,,0.161111125,-0.382407436,1,0,0,5.381,Peridotite_rect,1,0,1,0,1,
63f77b9ca8439f6e1620c1cd,SCN,2024-06-20_13h30.05.615,LearnStrategy,2023.2.3,Win32,62.5,4,2,3,,,,,,,,2,06,,,,,,,,,,,2,6.095,1,,,,,,-0.220370328,-0.25462963,1,0,0,6.095,Basalt_rect,2,0,2,0,1,
63f77b9ca8439f6e1620c1cd,SCN,2024-06-20_13h30.05.615,LearnStrategy,2023.2.3,Win32,62.5,4,2,4,,,,,,,,6,13,,,,,,,,,,,4,10.593,0,,,,,,0.376851824,-0.253703718,1,0,0,10.593,Gabbro_rect,3,0,3,0,1,
63f77b9ca8439f6e1620c1cd,SCN,2024-06-20_13h30.05.615,LearnStrategy,2023.2.3,Win32,62.5,4,2,5,,,,,,,,4,13,,,,,,,,,,,4,3.895,1,,,,,,0.404629601,-0.249074088,1,0,0,3.895,Gabbro_rect,4,0,4,0,1,
63f77b9ca8439f6e1620c1cd,SCN,2024-06-20_13h30.05.615,LearnStrategy,2023.2.3,Win32,62.5,4,2,6,,,,,,,,7,06,,,,,,,,,,,7,15.7,1,,,,,,0.090740769,-0.406481496,1,0,0,15.7,Peridotite_rect,5,0,5,0,1,
63f77b9ca8439f6e1620c1cd,SCN,2024-06-20_13h30.05.615,LearnStrategy,2023.2.3,Win32,62.5,4,2,7,,,,,,,,4,12,,,,,,,,,,,2,24.455,0,,,,,,-0.10555557,-0.233333376,1,0,0,24.455,Basalt_rect,6,0,6,0,1,
63f77b9ca8439f6e1620c1cd,SCN,2024-06-20_13h30.05.615,LearnStrategy,2023.2.3,Win32,62.5,4,2,8,,,,,,,,1,05,,,,,,,,,,,7,13.224,0,,,,,,0.10092594,-0.416666667,1,0,0,13.224,Peridotite_rect,7,0,7,0,1,
63f77b9ca8439f6e1620c1cd,SCN,2024-06-20_13h30.05.615,LearnStrategy,2023.2.3,Win32,62.5,4,2,9,,,,,,,,1,16,,,,,,,,,,,7,13.166,0,,,,,,0.062962991,-0.396296325,1,0,0,13.166,Peridotite_rect,8,0,8,0,1,
63f77b9ca8439f6e1620c1cd,SCN,2024-06-20_13h30.05.615,LearnStrategy,2023.2.3,Win32,62.5,4,2,10,,,,,,,,8,16,,,,,,,,,,,8,1.263,1,,,,,,0.3648149,-0.417592578,1,0,0,1.263,Pumice_rect,9,0,9,0,1,
63f77b9ca8439f6e1620c1cd,SCN,2024-06-20_13h30.05.615,LearnStrategy,2023.2.3,Win32,62.5,4,2,11,,,,,,,,8,03,,,,,,,,,,,8,1.054,1,,,,,,0.388888889,-0.389814801,1,0,0,1.054,Pumice_rect,10,0,10,0,1,
63f77b9ca8439f6e1620c1cd,SCN,2024-06-20_13h30.05.615,LearnStrategy,2023.2.3,Win32,62.5,4,2,12,,,,,,,,7,16,,,,,,,,,,,4,5.289,0,,,,,,0.362962935,-0.257407436,1,0,0,5.289,Gabbro_rect,11,0,11,0,1,
63f77b9ca8439f6e1620c1cd,SCN,2024-06-20_13h30.05.615,LearnStrategy,2023.2.3,Win32,62.5,4,2,13,,,,,,,,5,08,,,,,,,,,,,5,1.169,1,,,,,,-0.39444443,-0.413888931,1,0,0,1.169,Obsidian_rect,12,0,12,0,1,
63f77b9ca8439f6e1620c1cd,SCN,2024-06-20_13h30.05.615,LearnStrategy,2023.2.3,Win32,62.5,4,2,14,,,,,,,,5,05,,,,,,,,,,,5,0.67,1,,,,,,-0.39444443,-0.413888931,1,0,0,0.67,Obsidian_rect,13,0,13,0,1,
63f77b9ca8439f6e1620c1cd,SCN,2024-06-20_13h30.05.615,LearnStrategy,2023.2.3,Win32,62.5,4,2,15,,,,,,,,6,11,,,,,,,,,,,6,13.223,1,,,,,,-0.127777735,-0.405555584,1,0,0,13.223,Pegmatite_rect,14,0,14,0,1,
63f77b9ca8439f6e1620c1cd,SCN,2024-06-20_13h30.05.615,LearnStrategy,2023.2.3,Win32,62.5,4,2,16,,,,,,,,2,05,,,,,,,,,,,4,3.562,0,,,,,,0.375,-0.260185171,1,0,0,3.562,Gabbro_rect,15,0,15,0,1,
63f77b9ca8439f6e1620c1cd,SCN,2024-06-20_13h30.05.615,LearnStrategy,2023.2.3,Win32,62.5,5,1,1,0.209259245,0.392592589,1,0,0,8.28,Basalt_04,2,04,6,6,8.28,0.41851849,-0.237963005,1,0,0,1.815,Gabbro_rect,4,1.815,0,0,0,0,0,1,,,,,,,,,,,,,
63f77b9ca8439f6e1620c1cd,SCN,2024-06-20_13h30.05.615,LearnStrategy,2023.2.3,Win32,62.5,5,1,2,0.242592635,0.255555559,1,0,0,1.464,Peridotite_07,7,07,5,6,1.464,-0.162962949,-0.409259302,1,0,0,1.187,Pegmatite_rect,6,1.187,0,1,0,1,0,1,,,,,,,,,,,,,
63f77b9ca8439f6e1620c1cd,SCN,2024-06-20_13h30.05.615,LearnStrategy,2023.2.3,Win32,62.5,5,1,3,0.251851894,0.082407386,1,0,0,1.298,Pumice_15,8,15,4,6,1.298,0.385185242,-0.416666667,1,0,0,1.003,Pumice_rect,8,1.003,1,2,0,2,0,1,,,,,,,,,,,,,
63f77b9ca8439f6e1620c1cd,SCN,2024-06-20_13h30.05.615,LearnStrategy,2023.2.3,Win32,62.5,5,1,4,0.233333376,-0.095370399,1,0,0,0.88,Gabbro_11,4,11,3,6,0.88,-0.163888861,-0.390740783,1,0,0,3.109,Pegmatite_rect,6,3.109,0,3,0,3,0,1,,,,,,,,,,,,,
63f77b9ca8439f6e1620c1cd,SCN,2024-06-20_13h30.05.615,LearnStrategy,2023.2.3,Win32,62.5,5,1,5,0.25,-0.250925912,1,0,0,1.879,Obsidian_14,5,14,2,6,1.879,-0.416666667,-0.417592578,1,0,0,1.603,Obsidian_rect,5,1.603,1,4,0,4,0,1,,,,,,,,,,,,,
63f77b9ca8439f6e1620c1cd,SCN,2024-06-20_13h30.05.615,LearnStrategy,2023.2.3,Win32,62.5,5,1,6,0.23055557,-0.425000014,1,0,0,1.048,Pegmatite_06,6,06,1,6,1.048,0.125,-0.404629672,1,0,0,2.32,Peridotite_rect,7,2.32,0,5,0,5,0,1,,,,,,,,,,,,,
63f77b9ca8439f6e1620c1cd,SCN,2024-06-20_13h30.05.615,LearnStrategy,2023.2.3,Win32,62.5,5,1,7,0.040740755,0.400925928,1,0,0,2.63,Peridotite_12,7,12,6,5,2.63,0.07685188,-0.401851866,1,0,0,1.644,Peridotite_rect,7,1.644,1,6,0,6,0,1,,,,,,,,,,,,,
63f77b9ca8439f6e1620c1cd,SCN,2024-06-20_13h30.05.615,LearnStrategy,2023.2.3,Win32,62.5,5,1,8,0.045370384,0.226851852,1,0,0,1.947,Basalt_02,2,02,5,5,1.947,-0.098148134,-0.238888917,1,0,0,1.254,Basalt_rect,2,1.254,1,7,0,7,0,1,,,,,,,,,,,,,
63f77b9ca8439f6e1620c1cd,SCN,2024-06-20_13h30.05.615,LearnStrategy,2023.2.3,Win32,62.5,5,1,9,0.073148162,0.087962963,1,0,0,3.713,Andesite_07,1,07,4,5,3.713,0.122222265,-0.396296325,1,0,0,1.064,Peridotite_rect,7,1.064,0,8,0,8,0,1,,,,,,,,,,,,,
63f77b9ca8439f6e1620c1cd,SCN,2024-06-20_13h30.05.615,LearnStrategy,2023.2.3,Win32,62.5,5,1,10,0.07222225,-0.268518519,1,0,0,1.53,Peridotite_04,7,04,2,5,1.53,-0.12962963,-0.395370413,1,0,0,1.203,Pegmatite_rect,6,1.203,0,9,0,9,0,1,,,,,,,,,,,,,
63f77b9ca8439f6e1620c1cd,SCN,2024-06-20_13h30.05.615,LearnStrategy,2023.2.3,Win32,62.5,5,1,11,-0.081481439,0.250925929,1,0,0,3.615,Gabbro_03,4,03,5,4,3.615,-0.12037037,-0.261111153,1,0,0,1.18,Basalt_rect,2,1.18,0,10,0,10,0,1,,,,,,,,,,,,,
63f77b9ca8439f6e1620c1cd,SCN,2024-06-20_13h30.05.615,LearnStrategy,2023.2.3,Win32,62.5,5,1,12,-0.094444416,0.114814794,1,0,0,0.797,Pegmatite_03,6,03,4,4,0.797,0.062037079,-0.404629672,1,0,0,1.421,Peridotite_rect,7,1.421,0,11,0,11,0,1,,,,,,,,,,,,,
63f77b9ca8439f6e1620c1cd,SCN,2024-06-20_13h30.05.615,LearnStrategy,2023.2.3,Win32,62.5,5,1,13,-0.233333305,0.26203703,1,0,0,3.728,Andesite_06,1,06,5,3,3.728,-0.152777778,-0.243518547,1,0,0,0.999,Basalt_rect,2,0.999,0,12,0,12,0,1,,,,,,,,,,,,,
63f77b9ca8439f6e1620c1cd,SCN,2024-06-20_13h30.05.615,LearnStrategy,2023.2.3,Win32,62.5,5,1,14,-0.088888875,0.220370363,1,0,0,2.08,Gabbro_03,4,03,5,4,2.08,-0.142592607,-0.239814829,1,0,0,0.888,Basalt_rect,2,0.888,0,13,0,13,0,1,,,,,,,,,,,,,
63f77b9ca8439f6e1620c1cd,SCN,2024-06-20_13h30.05.615,LearnStrategy,2023.2.3,Win32,62.5,5,1,15,-0.101851852,0.099074081,1,0,0,0.781,Pegmatite_03,6,03,4,4,0.781,0.05740745,-0.421296296,1,0,0,1.803,Peridotite_rect,7,1.803,0,14,0,14,0,1,,,,,,,,,,,,,
63f77b9ca8439f6e1620c1cd,SCN,2024-06-20_13h30.05.615,LearnStrategy,2023.2.3,Win32,62.5,5,1,16,-0.237037023,-0.433333362,1,0,0,2.613,Gabbro_10,4,10,1,3,2.613,-0.432407414,-0.387037065,1,0,0,1.288,Obsidian_rect,5,1.288,0,15,0,15,0,1,,,,,,,,,,,,,
63f77b9ca8439f6e1620c1cd,SCN,2024-06-20_13h30.05.615,LearnStrategy,2023.2.3,Win32,62.5,5,2,1,,,,,,,,5,11,,,,,,,,,,,5,3.97,1,,,,,,-0.375925912,-0.401851866,1,0,0,3.97,Obsidian_rect,0,0,0,0,1,
63f77b9ca8439f6e1620c1cd,SCN,2024-06-20_13h30.05.615,LearnStrategy,2023.2.3,Win32,62.5,5,2,2,,,,,,,,4,01,,,,,,,,,,,7,24.129,0,,,,,,0.084259245,-0.386111153,1,0,0,24.129,Peridotite_rect,1,0,1,0,1,
63f77b9ca8439f6e1620c1cd,SCN,2024-06-20_13h30.05.615,LearnStrategy,2023.2.3,Win32,62.5,5,2,3,,,,,,,,8,06,,,,,,,,,,,8,1.015,1,,,,,,0.391666695,-0.412037037,1,0,0,1.015,Pumice_rect,2,0,2,0,1,
63f77b9ca8439f6e1620c1cd,SCN,2024-06-20_13h30.05.615,LearnStrategy,2023.2.3,Win32,62.5,5,2,4,,,,,,,,5,07,,,,,,,,,,,5,1.773,1,,,,,,-0.387962942,-0.409259302,1,0,0,1.773,Obsidian_rect,3,0,3,0,1,
63f77b9ca8439f6e1620c1cd,SCN,2024-06-20_13h30.05.615,LearnStrategy,2023.2.3,Win32,62.5,5,2,5,,,,,,,,6,07,,,,,,,,,,,6,36.806,1,,,,,,-0.107407393,-0.405555584,1,0,0,36.806,Pegmatite_rect,4,0,4,0,1,
63f77b9ca8439f6e1620c1cd,SCN,2024-06-20_13h30.05.615,LearnStrategy,2023.2.3,Win32,62.5,5,2,6,,,,,,,,7,08,,,,,,,,,,,6,1.164,0,,,,,,-0.107407393,-0.405555584,1,0,0,1.164,Pegmatite_rect,5,0,5,0,1,
63f77b9ca8439f6e1620c1cd,SCN,2024-06-20_13h30.05.615,LearnStrategy,2023.2.3,Win32,62.5,5,2,7,,,,,,,,3,11,,,,,,,,,,,3,29.817,1,,,,,,0.138888889,-0.252777806,1,0,0,29.817,Diorite_rect,6,0,6,0,1,
63f77b9ca8439f6e1620c1cd,SCN,2024-06-20_13h30.05.615,LearnStrategy,2023.2.3,Win32,62.5,5,2,8,,,,,,,,3,10,,,,,,,,,,,3,1.769,1,,,,,,0.138888889,-0.251851894,1,0,0,1.769,Diorite_rect,7,0,7,0,1,
63f77b9ca8439f6e1620c1cd,SCN,2024-06-20_13h30.05.615,LearnStrategy,2023.2.3,Win32,62.5,5,2,9,,,,,,,,2,10,,,,,,,,,,,4,7.637,0,,,,,,0.32222225,-0.242592635,1,0,0,7.637,Gabbro_rect,8,0,8,0,1,
63f77b9ca8439f6e1620c1cd,SCN,2024-06-20_13h30.05.615,LearnStrategy,2023.2.3,Win32,62.5,5,2,10,,,,,,,,1,14,,,,,,,,,,,1,15.963,1,,,,,,-0.337037016,-0.228703746,1,0,0,15.963,Andesite_rect,9,0,9,0,1,
63f77b9ca8439f6e1620c1cd,SCN,2024-06-20_13h30.05.615,LearnStrategy,2023.2.3,Win32,62.5,5,2,11,,,,,,,,1,10,,,,,,,,,,,2,7.247,0,,,,,,-0.112037023,-0.255555541,1,0,0,7.247,Basalt_rect,10,0,10,0,1,
63f77b9ca8439f6e1620c1cd,SCN,2024-06-20_13h30.05.615,LearnStrategy,2023.2.3,Win32,62.5,5,2,12,,,,,,,,7,13,,,,,,,,,,,6,5.448,0,,,,,,-0.077777792,-0.39444443,1,0,0,5.448,Pegmatite_rect,11,0,11,0,1,
63f77b9ca8439f6e1620c1cd,SCN,2024-06-20_13h30.05.615,LearnStrategy,2023.2.3,Win32,62.5,5,2,13,,,,,,,,4,08,,,,,,,,,,,7,1.583,0,,,,,,0.108333376,-0.412962949,1,0,0,1.583,Peridotite_rect,12,0,12,0,1,
63f77b9ca8439f6e1620c1cd,SCN,2024-06-20_13h30.05.615,LearnStrategy,2023.2.3,Win32,62.5,5,2,14,,,,,,,,2,14,,,,,,,,,,,8,16.77,0,,,,,,0.334259316,-0.392592607,1,0,0,16.77,Pumice_rect,13,0,13,0,1,
63f77b9ca8439f6e1620c1cd,SCN,2024-06-20_13h30.05.615,LearnStrategy,2023.2.3,Win32,62.5,5,2,15,,,,,,,,6,09,,,,,,,,,,,7,5.433,0,,,,,,0.162962949,-0.397222236,1,0,0,5.433,Peridotite_rect,14,0,14,0,1,
63f77b9ca8439f6e1620c1cd,SCN,2024-06-20_13h30.05.615,LearnStrategy,2023.2.3,Win32,62.5,5,2,16,,,,,,,,8,14,,,,,,,,,,,8,1.1,1,,,,,,0.372222194,-0.408333319,1,0,0,1.1,Pumice_rect,15,0,15,0,1,
63f77b9ca8439f6e1620c1cd,SCN,2024-06-20_13h30.05.615,LearnStrategy,2023.2.3,Win32,62.5,6,1,1,-0.542592578,0.392592589,1,0,0,1.318,Peridotite_02,7,02,6,1,1.318,-0.148148148,-0.413888931,1,0,0,2.818,Pegmatite_rect,6,2.818,0,0,0,0,0,1,,,,,,,,,,,,,
63f77b9ca8439f6e1620c1cd,SCN,2024-06-20_13h30.05.615,LearnStrategy,2023.2.3,Win32,62.5,6,1,2,-0.551851838,0.100925905,1,0,0,1.447,Andesite_03,1,03,4,1,1.447,0.390740712,-0.25462963,1,0,0,1.388,Gabbro_rect,4,1.388,0,1,0,1,0,1,,,,,,,,,,,,,
63f77b9ca8439f6e1620c1cd,SCN,2024-06-20_13h30.05.615,LearnStrategy,2023.2.3,Win32,62.5,6,1,3,-0.421296296,-0.12037037,1,0,0,6.01,Pegmatite_15,6,15,3,2,6.01,-0.10555557,-0.389814801,1,0,0,1.604,Pegmatite_rect,6,1.604,1,2,0,2,0,1,,,,,,,,,,,,,
63f77b9ca8439f6e1620c1cd,SCN,2024-06-20_13h30.05.615,LearnStrategy,2023.2.3,Win32,62.5,6,1,4,-0.355555534,-0.228703746,1,0,0,5.131,Pegmatite_10,6,10,2,2,5.131,0.168518561,-0.404629672,1,0,0,1.406,Peridotite_rect,7,1.406,0,3,0,3,0,1,,,,,,,,,,,,,
63f77b9ca8439f6e1620c1cd,SCN,2024-06-20_13h30.05.615,LearnStrategy,2023.2.3,Win32,62.5,6,1,5,-0.106481481,-0.434259273,1,0,0,6.423,Diorite_07,3,07,1,4,6.423,0.088888875,-0.243518547,1,0,0,2.785,Diorite_rect,3,2.785,1,4,0,4,0,1,,,,,,,,,,,,,
63f77b9ca8439f6e1620c1cd,SCN,2024-06-20_13h30.05.615,LearnStrategy,2023.2.3,Win32,62.5,6,1,6,0.093518504,0.425925926,1,0,0,5.597,Peridotite_12,7,12,6,5,5.597,-0.084259245,-0.39907406,1,0,0,1.39,Pegmatite_rect,6,1.39,0,5,0,5,0,1,,,,,,,,,,,,,
63f77b9ca8439f6e1620c1cd,SCN,2024-06-20_13h30.05.615,LearnStrategy,2023.2.3,Win32,62.5,6,1,7,-0.380555541,-0.392592607,1,0,0,3.197,Pegmatite_16,6,16,1,2,3.197,-0.181481467,-0.39907406,1,0,0,1.522,Pegmatite_rect,6,1.522,1,6,0,6,0,1,,,,,,,,,,,,,
63f77b9ca8439f6e1620c1cd,SCN,2024-06-20_13h30.05.615,LearnStrategy,2023.2.3,Win32,62.5,6,1,8,0.392592677,-0.406481496,1,0,0,4.592,Basalt_16,2,16,1,7,4.592,-0.119444459,-0.250925912,1,0,0,2.605,Basalt_rect,2,2.605,1,7,0,7,0,1,,,,,,,,,,,,,
63f77b9ca8439f6e1620c1cd,SCN,2024-06-20_13h30.05.615,LearnStrategy,2023.2.3,Win32,62.5,6,1,9,-0.062962921,0.067592586,1,0,0,5.614,Pegmatite_03,6,03,4,4,5.614,0.088888875,-0.402777778,1,0,0,1.82,Peridotite_rect,7,1.82,0,8,0,8,0,1,,,,,,,,,,,,,
63f77b9ca8439f6e1620c1cd,SCN,2024-06-20_13h30.05.615,LearnStrategy,2023.2.3,Win32,62.5,6,1,10,0.537963019,-0.106481481,1,0,0,2.425,Peridotite_14,7,14,3,8,2.425,0.074999986,-0.416666667,1,0,0,1.481,Peridotite_rect,7,1.481,1,9,0,9,0,1,,,,,,,,,,,,,
63f77b9ca8439f6e1620c1cd,SCN,2024-06-20_13h30.05.615,LearnStrategy,2023.2.3,Win32,62.5,6,1,11,-0.527777778,-0.082407422,1,0,0,2.996,Diorite_15,3,15,3,1,2.996,-0.141666624,-0.411111125,1,0,0,1.655,Pegmatite_rect,6,1.655,0,10,0,10,0,1,,,,,,,,,,,,,
63f77b9ca8439f6e1620c1cd,SCN,2024-06-20_13h30.05.615,LearnStrategy,2023.2.3,Win32,62.5,6,1,12,-0.274999972,0.236111111,1,0,0,6.845,Andesite_06,1,06,5,3,6.845,0.137962977,-0.243518547,1,0,0,1.939,Diorite_rect,3,1.939,0,11,0,11,0,1,,,,,,,,,,,,,
63f77b9ca8439f6e1620c1cd,SCN,2024-06-20_13h30.05.615,LearnStrategy,2023.2.3,Win32,62.5,6,1,13,-0.578703704,0.099999993,1,0,0,1.197,Andesite_03,1,03,4,1,1.197,-0.373148141,-0.404629672,1,0,0,3.437,Obsidian_rect,5,3.437,0,12,0,12,0,1,,,,,,,,,,,,,
63f77b9ca8439f6e1620c1cd,SCN,2024-06-20_13h30.05.615,LearnStrategy,2023.2.3,Win32,62.5,6,1,14,0.069444444,0.26574073,1,0,0,1.43,Basalt_02,2,02,5,5,1.43,-0.413888896,-0.255555541,1,0,0,1.57,Andesite_rect,1,1.57,0,13,0,13,0,1,,,,,,,,,,,,,
63f77b9ca8439f6e1620c1cd,SCN,2024-06-20_13h30.05.615,LearnStrategy,2023.2.3,Win32,62.5,6,1,15,0.219444487,-0.089814822,1,0,0,1.262,Gabbro_11,4,11,3,6,1.262,-0.151851866,-0.255555541,1,0,0,2.891,Basalt_rect,2,2.891,0,14,0,14,0,1,,,,,,,,,,,,,
63f77b9ca8439f6e1620c1cd,SCN,2024-06-20_13h30.05.615,LearnStrategy,2023.2.3,Win32,62.5,6,1,16,-0.544444437,0.38981481,1,0,0,2.879,Peridotite_02,7,02,6,1,2.879,-0.116666653,-0.397222236,1,0,0,1.612,Pegmatite_rect,6,1.612,0,15,0,15,0,1,,,,,,,,,,,,,
63f77b9ca8439f6e1620c1cd,SCN,2024-06-20_13h30.05.615,LearnStrategy,2023.2.3,Win32,62.5,6,2,1,,,,,,,,2,11,,,,,,,,,,,2,14.957,1,,,,,,-0.137036995,-0.244444459,1,0,0,14.957,Basalt_rect,0,0,0,0,1,
63f77b9ca8439f6e1620c1cd,SCN,2024-06-20_13h30.05.615,LearnStrategy,2023.2.3,Win32,62.5,6,2,2,,,,,,,,5,09,,,,,,,,,,,5,1.237,1,,,,,,-0.40370369,-0.391666695,1,0,0,1.237,Obsidian_rect,1,0,1,0,1,
63f77b9ca8439f6e1620c1cd,SCN,2024-06-20_13h30.05.615,LearnStrategy,2023.2.3,Win32,62.5,6,2,3,,,,,,,,1,02,,,,,,,,,,,3,8.436,0,,,,,,0.10555557,-0.246296282,1,0,0,8.436,Diorite_rect,2,0,2,0,1,
63f77b9ca8439f6e1620c1cd,SCN,2024-06-20_13h30.05.615,LearnStrategy,2023.2.3,Win32,62.5,6,2,4,,,,,,,,5,10,,,,,,,,,,,5,1.67,1,,,,,,-0.377777771,-0.402777778,1,0,0,1.67,Obsidian_rect,3,0,3,0,1,
63f77b9ca8439f6e1620c1cd,SCN,2024-06-20_13h30.05.615,LearnStrategy,2023.2.3,Win32,62.5,6,2,5,,,,,,,,4,14,,,,,,,,,,,2,5.841,0,,,,,,-0.167592578,-0.241666653,1,0,0,5.841,Basalt_rect,4,0,4,0,1,
63f77b9ca8439f6e1620c1cd,SCN,2024-06-20_13h30.05.615,LearnStrategy,2023.2.3,Win32,62.5,6,2,6,,,,,,,,6,05,,,,,,,,,,,6,3.8,1,,,,,,-0.149999972,-0.39907406,1,0,0,3.8,Pegmatite_rect,5,0,5,0,1,
63f77b9ca8439f6e1620c1cd,SCN,2024-06-20_13h30.05.615,LearnStrategy,2023.2.3,Win32,62.5,6,2,7,,,,,,,,8,08,,,,,,,,,,,8,1.396,1,,,,,,0.425925926,-0.391666695,1,0,0,1.396,Pumice_rect,6,0,6,0,1,
63f77b9ca8439f6e1620c1cd,SCN,2024-06-20_13h30.05.615,LearnStrategy,2023.2.3,Win32,62.5,6,2,8,,,,,,,,6,08,,,,,,,,,,,6,1.454,1,,,,,,-0.089814787,-0.396296325,1,0,0,1.454,Pegmatite_rect,7,0,7,0,1,
63f77b9ca8439f6e1620c1cd,SCN,2024-06-20_13h30.05.615,LearnStrategy,2023.2.3,Win32,62.5,6,2,9,,,,,,,,3,06,,,,,,,,,,,7,4.305,0,,,,,,0.140740783,-0.411111125,1,0,0,4.305,Peridotite_rect,8,0,8,0,1,
63f77b9ca8439f6e1620c1cd,SCN,2024-06-20_13h30.05.615,LearnStrategy,2023.2.3,Win32,62.5,6,2,10,,,,,,,,1,09,,,,,,,,,,,4,18.532,0,,,,,,0.400925954,-0.236111111,1,0,0,18.532,Gabbro_rect,9,0,9,0,1,
63f77b9ca8439f6e1620c1cd,SCN,2024-06-20_13h30.05.615,LearnStrategy,2023.2.3,Win32,62.5,6,2,11,,,,,,,,4,09,,,,,,,,,,,1,3.436,0,,,,,,-0.39907406,-0.229629658,1,0,0,3.436,Andesite_rect,10,0,10,0,1,
63f77b9ca8439f6e1620c1cd,SCN,2024-06-20_13h30.05.615,LearnStrategy,2023.2.3,Win32,62.5,6,2,12,,,,,,,,3,08,,,,,,,,,,,6,1.393,0,,,,,,-0.189814815,-0.408333319,1,0,0,1.393,Pegmatite_rect,11,0,11,0,1,
63f77b9ca8439f6e1620c1cd,SCN,2024-06-20_13h30.05.615,LearnStrategy,2023.2.3,Win32,62.5,6,2,13,,,,,,,,7,15,,,,,,,,,,,7,4.144,1,,,,,,0.05277782,-0.402777778,1,0,0,4.144,Peridotite_rect,12,0,12,0,1,
63f77b9ca8439f6e1620c1cd,SCN,2024-06-20_13h30.05.615,LearnStrategy,2023.2.3,Win32,62.5,6,2,14,,,,,,,,2,09,,,,,,,,,,,2,7.472,1,,,,,,-0.124074088,-0.262037065,1,0,0,7.472,Basalt_rect,13,0,13,0,1,
63f77b9ca8439f6e1620c1cd,SCN,2024-06-20_13h30.05.615,LearnStrategy,2023.2.3,Win32,62.5,6,2,15,,,,,,,,7,05,,,,,,,,,,,7,6.202,1,,,,,,0.086111139,-0.382407436,1,0,0,6.202,Peridotite_rect,14,0,14,0,1,
63f77b9ca8439f6e1620c1cd,SCN,2024-06-20_13h30.05.615,LearnStrategy,2023.2.3,Win32,62.5,6,2,16,,,,,,,,8,13,,,,,,,,,,,8,1.024,1,,,,,,0.368518547,-0.391666695,1,0,0,1.024,Pumice_rect,15,0,15,0,1,
63f77b9ca8439f6e1620c1cd,SCN,2024-06-20_13h30.05.615,LearnStrategy,2023.2.3,Win32,62.5,7,1,1,-0.41111109,0.264814818,1,0,0,3.332,Basalt_08,2,08,5,2,3.332,-0.113888847,-0.24537037,1,0,0,4.054,Basalt_rect,2,4.054,1,0,0,0,0,1,,,,,,,,,,,,,
63f77b9ca8439f6e1620c1cd,SCN,2024-06-20_13h30.05.615,LearnStrategy,2023.2.3,Win32,62.5,7,1,2,-0.059259273,0.407407407,1,0,0,1.212,Pegmatite_12,6,12,6,4,1.212,0.137037065,-0.400000042,1,0,0,1.57,Peridotite_rect,7,1.57,0,1,0,1,0,1,,,,,,,,,,,,,
63f77b9ca8439f6e1620c1cd,SCN,2024-06-20_13h30.05.615,LearnStrategy,2023.2.3,Win32,62.5,7,1,3,0.054629644,0.399999998,1,0,0,1.694,Peridotite_12,7,12,6,5,1.694,-0.171296296,-0.401851866,1,0,0,0.957,Pegmatite_rect,6,0.957,0,2,0,2,0,1,,,,,,,,,,,,,
63f77b9ca8439f6e1620c1cd,SCN,2024-06-20_13h30.05.615,LearnStrategy,2023.2.3,Win32,62.5,7,1,4,0.090740769,0.103703711,1,0,0,1.179,Andesite_07,1,07,4,5,1.179,-0.122222194,-0.409259302,1,0,0,0.875,Pegmatite_rect,6,0.875,0,3,0,3,0,1,,,,,,,,,,,,,
63f77b9ca8439f6e1620c1cd,SCN,2024-06-20_13h30.05.615,LearnStrategy,2023.2.3,Win32,62.5,7,1,5,0.539814843,0.25462963,1,0,0,1.881,Diorite_16,3,16,5,8,1.881,-0.372222229,-0.249074088,1,0,0,1.743,Andesite_rect,1,1.743,0,4,0,4,0,1,,,,,,,,,,,,,
63f77b9ca8439f6e1620c1cd,SCN,2024-06-20_13h30.05.615,LearnStrategy,2023.2.3,Win32,62.5,7,1,6,-0.557407414,-0.092592593,1,0,0,1.378,Diorite_15,3,15,3,1,1.378,-0.368518511,-0.243518547,1,0,0,2.556,Andesite_rect,1,2.556,0,5,0,5,0,1,,,,,,,,,,,,,
63f77b9ca8439f6e1620c1cd,SCN,2024-06-20_13h30.05.615,LearnStrategy,2023.2.3,Win32,62.5,7,1,7,-0.070370356,0.066666674,1,0,0,0.83,Pegmatite_03,6,03,4,4,0.83,0.100000028,-0.392592607,1,0,0,1.202,Peridotite_rect,7,1.202,0,6,0,6,0,1,,,,,,,,,,,,,
63f77b9ca8439f6e1620c1cd,SCN,2024-06-20_13h30.05.615,LearnStrategy,2023.2.3,Win32,62.5,7,1,8,0.104629658,0.114814794,1,0,0,0.764,Andesite_07,1,07,4,5,0.764,0.090740769,-0.257407436,1,0,0,1.477,Diorite_rect,3,1.477,0,7,0,7,0,1,,,,,,,,,,,,,
63f77b9ca8439f6e1620c1cd,SCN,2024-06-20_13h30.05.615,LearnStrategy,2023.2.3,Win32,62.5,7,1,9,-0.581481474,-0.400925954,1,0,0,2.53,Diorite_02,3,02,1,1,2.53,-0.187037009,-0.396296325,1,0,0,1.306,Pegmatite_rect,6,1.306,0,8,0,8,0,1,,,,,,,,,,,,,
63f77b9ca8439f6e1620c1cd,SCN,2024-06-20_13h30.05.615,LearnStrategy,2023.2.3,Win32,62.5,7,1,10,-0.260185171,-0.224074116,1,0,0,10.196,Diorite_09,3,09,2,3,10.196,-0.106481481,-0.411111125,1,0,0,0.833,Pegmatite_rect,6,0.833,0,9,0,9,0,1,,,,,,,,,,,,,
63f77b9ca8439f6e1620c1cd,SCN,2024-06-20_13h30.05.615,LearnStrategy,2023.2.3,Win32,62.5,7,1,11,0.25,-0.412037037,1,0,0,3.292,Pegmatite_06,6,06,1,6,3.292,0.123148176,-0.258333347,1,0,0,1.809,Diorite_rect,3,1.809,0,10,0,10,0,1,,,,,,,,,,,,,
63f77b9ca8439f6e1620c1cd,SCN,2024-06-20_13h30.05.615,LearnStrategy,2023.2.3,Win32,62.5,7,1,12,-0.539814808,0.114814794,1,0,0,2.844,Andesite_03,1,03,4,1,2.844,-0.162962949,-0.246296282,1,0,0,1.591,Basalt_rect,2,1.591,0,11,0,11,0,1,,,,,,,,,,,,,
63f77b9ca8439f6e1620c1cd,SCN,2024-06-20_13h30.05.615,LearnStrategy,2023.2.3,Win32,62.5,7,1,13,0.051851838,0.223148152,1,0,0,2.029,Basalt_02,2,02,5,5,2.029,-0.103703675,-0.249074088,1,0,0,1.36,Basalt_rect,2,1.36,1,12,0,12,0,1,,,,,,,,,,,,,
63f77b9ca8439f6e1620c1cd,SCN,2024-06-20_13h30.05.615,LearnStrategy,2023.2.3,Win32,62.5,7,1,14,0.37962963,0.238888882,1,0,0,1.715,Basalt_01,2,01,5,7,1.715,-0.126851824,-0.258333347,1,0,0,1.616,Basalt_rect,2,1.616,1,13,0,13,0,1,,,,,,,,,,,,,
63f77b9ca8439f6e1620c1cd,SCN,2024-06-20_13h30.05.615,LearnStrategy,2023.2.3,Win32,62.5,7,1,15,0.247222265,-0.087962963,1,0,0,1.795,Gabbro_11,4,11,3,6,1.795,0.103703746,-0.250925912,1,0,0,0.823,Diorite_rect,3,0.823,0,14,0,14,0,1,,,,,,,,,,,,,
63f77b9ca8439f6e1620c1cd,SCN,2024-06-20_13h30.05.615,LearnStrategy,2023.2.3,Win32,62.5,7,1,16,-0.380555541,0.214814804,1,0,0,2.761,Basalt_08,2,08,5,2,2.761,-0.113888847,-0.260185171,1,0,0,1.107,Basalt_rect,2,1.107,1,15,0,15,0,1,,,,,,,,,,,,,
63f77b9ca8439f6e1620c1cd,SCN,2024-06-20_13h30.05.615,LearnStrategy,2023.2.3,Win32,62.5,7,2,1,,,,,,,,1,02,,,,,,,,,,,3,19.013,0,,,,,,0.106481481,-0.237037023,1,0,0,19.013,Diorite_rect,0,0,0,0,1,
63f77b9ca8439f6e1620c1cd,SCN,2024-06-20_13h30.05.615,LearnStrategy,2023.2.3,Win32,62.5,7,2,2,,,,,,,,5,05,,,,,,,,,,,5,1.319,1,,,,,,-0.385185171,-0.398148148,1,0,0,1.319,Obsidian_rect,1,0,1,0,1,
63f77b9ca8439f6e1620c1cd,SCN,2024-06-20_13h30.05.615,LearnStrategy,2023.2.3,Win32,62.5,7,2,3,,,,,,,,2,06,,,,,,,,,,,2,1.406,1,,,,,,-0.181481467,-0.25,1,0,0,1.406,Basalt_rect,2,0,2,0,1,
63f77b9ca8439f6e1620c1cd,SCN,2024-06-20_13h30.05.615,LearnStrategy,2023.2.3,Win32,62.5,7,2,4,,,,,,,,1,09,,,,,,,,,,,3,16.543,0,,,,,,0.116666653,-0.259259259,1,0,0,16.543,Diorite_rect,3,0,3,0,1,
63f77b9ca8439f6e1620c1cd,SCN,2024-06-20_13h30.05.615,LearnStrategy,2023.2.3,Win32,62.5,7,2,5,,,,,,,,6,11,,,,,,,,,,,6,9.019,1,,,,,,-0.117592564,-0.410185213,1,0,0,9.019,Pegmatite_rect,4,0,4,0,1,
63f77b9ca8439f6e1620c1cd,SCN,2024-06-20_13h30.05.615,LearnStrategy,2023.2.3,Win32,62.5,7,2,6,,,,,,,,4,09,,,,,,,,,,,7,11.066,0,,,,,,0.154629672,-0.397222236,1,0,0,11.066,Peridotite_rect,5,0,5,0,1,
63f77b9ca8439f6e1620c1cd,SCN,2024-06-20_13h30.05.615,LearnStrategy,2023.2.3,Win32,62.5,7,2,7,,,,,,,,6,09,,,,,,,,,,,7,0.892,0,,,,,,0.154629672,-0.397222236,1,0,0,0.892,Peridotite_rect,6,0,6,0,1,
63f77b9ca8439f6e1620c1cd,SCN,2024-06-20_13h30.05.615,LearnStrategy,2023.2.3,Win32,62.5,7,2,8,,,,,,,,2,09,,,,,,,,,,,2,11.03,1,,,,,,-0.146296254,-0.242592635,1,0,0,11.03,Basalt_rect,7,0,7,0,1,
63f77b9ca8439f6e1620c1cd,SCN,2024-06-20_13h30.05.615,LearnStrategy,2023.2.3,Win32,62.5,7,2,9,,,,,,,,7,15,,,,,,,,,,,7,21.502,1,,,,,,0.121296282,-0.388888889,1,0,0,21.502,Peridotite_rect,8,0,8,0,1,
63f77b9ca8439f6e1620c1cd,SCN,2024-06-20_13h30.05.615,LearnStrategy,2023.2.3,Win32,62.5,7,2,10,,,,,,,,4,01,,,,,,,,,,,1,15.049,0,,,,,,-0.39907406,-0.24537037,1,0,0,15.049,Andesite_rect,9,0,9,0,1,
63f77b9ca8439f6e1620c1cd,SCN,2024-06-20_13h30.05.615,LearnStrategy,2023.2.3,Win32,62.5,7,2,11,,,,,,,,8,16,,,,,,,,,,,8,2.307,1,,,,,,0.388888889,-0.393518519,1,0,0,2.307,Pumice_rect,10,0,10,0,1,
63f77b9ca8439f6e1620c1cd,SCN,2024-06-20_13h30.05.615,LearnStrategy,2023.2.3,Win32,62.5,7,2,12,,,,,,,,5,09,,,,,,,,,,,5,1.176,1,,,,,,-0.417592578,-0.402777778,1,0,0,1.176,Obsidian_rect,11,0,11,0,1,
63f77b9ca8439f6e1620c1cd,SCN,2024-06-20_13h30.05.615,LearnStrategy,2023.2.3,Win32,62.5,7,2,13,,,,,,,,8,13,,,,,,,,,,,8,1.009,1,,,,,,0.350000028,-0.408333319,1,0,0,1.009,Pumice_rect,12,0,12,0,1,
63f77b9ca8439f6e1620c1cd,SCN,2024-06-20_13h30.05.615,LearnStrategy,2023.2.3,Win32,62.5,7,2,14,,,,,,,,7,08,,,,,,,,,,,7,10.41,1,,,,,,0.180555556,-0.408333319,1,0,0,10.41,Peridotite_rect,13,0,13,0,1,
63f77b9ca8439f6e1620c1cd,SCN,2024-06-20_13h30.05.615,LearnStrategy,2023.2.3,Win32,62.5,7,2,15,,,,,,,,3,10,,,,,,,,,,,4,19.247,0,,,,,,0.359259288,-0.246296282,1,0,0,19.247,Gabbro_rect,14,0,14,0,1,
63f77b9ca8439f6e1620c1cd,SCN,2024-06-20_13h30.05.615,LearnStrategy,2023.2.3,Win32,62.5,7,2,16,,,,,,,,3,11,,,,,,,,,,,4,1.892,0,,,,,,0.359259288,-0.246296282,1,0,0,1.892,Gabbro_rect,15,0,15,0,1,
63f77b9ca8439f6e1620c1cd,SCN,2024-06-20_13h30.05.615,LearnStrategy,2023.2.3,Win32,62.5,8,1,1,0.399999972,-0.067592586,1,0,0,13.163,Peridotite_10,7,10,3,7,13.163,-0.158333319,-0.401851866,1,0,0,1.754,Pegmatite_rect,6,1.754,0,0,0,0,0,1,,,,,,,,,,,,,
63f77b9ca8439f6e1620c1cd,SCN,2024-06-20_13h30.05.615,LearnStrategy,2023.2.3,Win32,62.5,8,1,2,0.380555612,-0.237037023,1,0,0,2.812,Diorite_13,3,13,2,7,2.812,0.155555584,-0.388888889,1,0,0,1.278,Peridotite_rect,7,1.278,0,1,0,1,0,1,,,,,,,,,,,,,
63f77b9ca8439f6e1620c1cd,SCN,2024-06-20_13h30.05.615,LearnStrategy,2023.2.3,Win32,62.5,8,1,3,0.056481467,0.099074081,1,0,0,1.531,Andesite_07,1,07,4,5,1.531,0.14444443,-0.238888917,1,0,0,1.336,Diorite_rect,3,1.336,0,2,0,2,0,1,,,,,,,,,,,,,
63f77b9ca8439f6e1620c1cd,SCN,2024-06-20_13h30.05.615,LearnStrategy,2023.2.3,Win32,62.5,8,1,4,0.585185157,0.2574074,1,0,0,1.858,Diorite_16,3,16,5,8,1.858,-0.149999972,-0.402777778,1,0,0,1.28,Pegmatite_rect,6,1.28,0,3,0,3,0,1,,,,,,,,,,,,,
63f77b9ca8439f6e1620c1cd,SCN,2024-06-20_13h30.05.615,LearnStrategy,2023.2.3,Win32,62.5,8,1,5,0.030555584,0.055555556,1,0,0,4.83,Andesite_07,1,07,4,5,4.83,-0.381481489,-0.415740755,1,0,0,3.403,Obsidian_rect,5,3.403,0,4,0,4,0,1,,,,,,,,,,,,,
63f77b9ca8439f6e1620c1cd,SCN,2024-06-20_13h30.05.615,LearnStrategy,2023.2.3,Win32,62.5,8,1,6,-0.051851838,0.107407393,1,0,0,1.454,Pegmatite_03,6,03,4,4,1.454,-0.09629631,-0.410185213,1,0,0,1.588,Pegmatite_rect,6,1.588,1,5,0,5,0,1,,,,,,,,,,,,,
63f77b9ca8439f6e1620c1cd,SCN,2024-06-20_13h30.05.615,LearnStrategy,2023.2.3,Win32,62.5,8,1,7,-0.257407365,-0.268518519,1,0,0,2.608,Diorite_09,3,09,2,3,2.608,-0.139814801,-0.262962977,1,0,0,2.685,Basalt_rect,2,2.685,0,6,0,6,0,1,,,,,,,,,,,,,
63f77b9ca8439f6e1620c1cd,SCN,2024-06-20_13h30.05.615,LearnStrategy,2023.2.3,Win32,62.5,8,1,8,0.046296296,0.237037041,1,0,0,4.246,Basalt_02,2,02,5,5,4.246,-0.140740712,-0.246296282,1,0,0,1.203,Basalt_rect,2,1.203,1,7,0,7,0,1,,,,,,,,,,,,,
63f77b9ca8439f6e1620c1cd,SCN,2024-06-20_13h30.05.615,LearnStrategy,2023.2.3,Win32,62.5,8,1,9,0.544444473,0.076851845,1,0,0,1.563,Andesite_11,1,11,4,8,1.563,0.413888861,-0.248148176,1,0,0,1.938,Gabbro_rect,4,1.938,0,8,0,8,0,1,,,,,,,,,,,,,
63f77b9ca8439f6e1620c1cd,SCN,2024-06-20_13h30.05.615,LearnStrategy,2023.2.3,Win32,62.5,8,1,10,0.500925982,0.408333328,1,0,0,1.712,Basalt_12,2,12,6,8,1.712,-0.40648146,-0.409259302,1,0,0,1.705,Obsidian_rect,5,1.705,0,9,0,9,0,1,,,,,,,,,,,,,
63f77b9ca8439f6e1620c1cd,SCN,2024-06-20_13h30.05.615,LearnStrategy,2023.2.3,Win32,62.5,8,1,11,-0.257407365,-0.424074102,1,0,0,3.031,Gabbro_10,4,10,1,3,3.031,0.119444459,-0.266666695,1,0,0,2.207,Diorite_rect,3,2.207,0,10,0,10,0,1,,,,,,,,,,,,,
63f77b9ca8439f6e1620c1cd,SCN,2024-06-20_13h30.05.615,LearnStrategy,2023.2.3,Win32,62.5,8,1,12,-0.443518497,-0.131481524,1,0,0,2.767,Pegmatite_15,6,15,3,2,2.767,-0.199999986,-0.400925954,1,0,0,1.544,Pegmatite_rect,6,1.544,1,11,0,11,0,1,,,,,,,,,,,,,
63f77b9ca8439f6e1620c1cd,SCN,2024-06-20_13h30.05.615,LearnStrategy,2023.2.3,Win32,62.5,8,1,13,-0.559259238,0.417592587,1,0,0,6.413,Peridotite_02,7,02,6,1,6.413,-0.137036995,-0.402777778,1,0,0,1.797,Pegmatite_rect,6,1.797,0,12,0,12,0,1,,,,,,,,,,,,,
63f77b9ca8439f6e1620c1cd,SCN,2024-06-20_13h30.05.615,LearnStrategy,2023.2.3,Win32,62.5,8,1,14,-0.555555556,-0.097222222,1,0,0,2.33,Diorite_15,3,15,3,1,2.33,0.147222236,-0.249074088,1,0,0,2.256,Diorite_rect,3,2.256,1,13,0,13,0,1,,,,,,,,,,,,,
63f77b9ca8439f6e1620c1cd,SCN,2024-06-20_13h30.05.615,LearnStrategy,2023.2.3,Win32,62.5,8,1,15,-0.522222201,0.097222222,1,0,0,1.396,Andesite_03,1,03,4,1,1.396,-0.14907406,-0.246296282,1,0,0,0.802,Basalt_rect,2,0.802,0,14,0,14,0,1,,,,,,,,,,,,,
63f77b9ca8439f6e1620c1cd,SCN,2024-06-20_13h30.05.615,LearnStrategy,2023.2.3,Win32,62.5,8,1,16,0.517592677,0.110185164,1,0,0,1.797,Andesite_11,1,11,4,8,1.797,-0.374074053,-0.257407436,1,0,0,1.177,Andesite_rect,1,1.177,1,15,0,15,0,1,,,,,,,,,,,,,
63f77b9ca8439f6e1620c1cd,SCN,2024-06-20_13h30.05.615,LearnStrategy,2023.2.3,Win32,62.5,8,2,1,,,,,,,,4,12,,,,,,,,,,,4,18.735,1,,,,,,0.406481566,-0.25462963,1,0,0,18.735,Gabbro_rect,0,0,0,0,1,
63f77b9ca8439f6e1620c1cd,SCN,2024-06-20_13h30.05.615,LearnStrategy,2023.2.3,Win32,62.5,8,2,2,,,,,,,,2,05,,,,,,,,,,,2,6.52,1,,,,,,-0.097222222,-0.253703718,1,0,0,6.52,Basalt_rect,1,0,1,0,1,
63f77b9ca8439f6e1620c1cd,SCN,2024-06-20_13h30.05.615,LearnStrategy,2023.2.3,Win32,62.5,8,2,3,,,,,,,,1,14,,,,,,,,,,,1,19.783,1,,,,,,-0.440740727,-0.242592635,1,0,0,19.783,Andesite_rect,2,0,2,0,1,
63f77b9ca8439f6e1620c1cd,SCN,2024-06-20_13h30.05.615,LearnStrategy,2023.2.3,Win32,62.5,8,2,4,,,,,,,,6,13,,,,,,,,,,,3,13.527,0,,,,,,0.055555556,-0.252777806,1,0,0,13.527,Diorite_rect,3,0,3,0,1,
63f77b9ca8439f6e1620c1cd,SCN,2024-06-20_13h30.05.615,LearnStrategy,2023.2.3,Win32,62.5,8,2,5,,,,,,,,4,13,,,,,,,,,,,6,11.215,0,,,,,,-0.182407379,-0.400925954,1,0,0,11.215,Pegmatite_rect,4,0,4,0,1,
63f77b9ca8439f6e1620c1cd,SCN,2024-06-20_13h30.05.615,LearnStrategy,2023.2.3,Win32,62.5,8,2,6,,,,,,,,6,08,,,,,,,,,,,6,1.55,1,,,,,,-0.182407379,-0.400925954,1,0,0,1.55,Pegmatite_rect,5,0,5,0,1,
63f77b9ca8439f6e1620c1cd,SCN,2024-06-20_13h30.05.615,LearnStrategy,2023.2.3,Win32,62.5,8,2,7,,,,,,,,7,16,,,,,,,,,,,4,11.853,0,,,,,,0.342592593,-0.237963005,1,0,0,11.853,Gabbro_rect,6,0,6,0,1,
63f77b9ca8439f6e1620c1cd,SCN,2024-06-20_13h30.05.615,LearnStrategy,2023.2.3,Win32,62.5,8,2,8,,,,,,,,3,12,,,,,,,,,,,3,9.5,1,,,,,,0.14907406,-0.263888889,1,0,0,9.5,Diorite_rect,7,0,7,0,1,
63f77b9ca8439f6e1620c1cd,SCN,2024-06-20_13h30.05.615,LearnStrategy,2023.2.3,Win32,62.5,8,2,9,,,,,,,,5,08,,,,,,,,,,,5,1.099,1,,,,,,-0.353703711,-0.39907406,1,0,0,1.099,Obsidian_rect,8,0,8,0,1,
63f77b9ca8439f6e1620c1cd,SCN,2024-06-20_13h30.05.615,LearnStrategy,2023.2.3,Win32,62.5,8,2,10,,,,,,,,8,06,,,,,,,,,,,8,1.006,1,,,,,,0.40370376,-0.421296296,1,0,0,1.006,Pumice_rect,9,0,9,0,1,
63f77b9ca8439f6e1620c1cd,SCN,2024-06-20_13h30.05.615,LearnStrategy,2023.2.3,Win32,62.5,8,2,11,,,,,,,,5,07,,,,,,,,,,,5,1.063,1,,,,,,-0.38703703,-0.408333319,1,0,0,1.063,Obsidian_rect,10,0,10,0,1,
63f77b9ca8439f6e1620c1cd,SCN,2024-06-20_13h30.05.615,LearnStrategy,2023.2.3,Win32,62.5,8,2,12,,,,,,,,1,10,,,,,,,,,,,1,8.937,1,,,,,,-0.393518519,-0.242592635,1,0,0,8.937,Andesite_rect,11,0,11,0,1,
63f77b9ca8439f6e1620c1cd,SCN,2024-06-20_13h30.05.615,LearnStrategy,2023.2.3,Win32,62.5,8,2,13,,,,,,,,7,05,,,,,,,,,,,6,3.278,0,,,,,,-0.17314812,-0.384259259,1,0,0,3.278,Pegmatite_rect,12,0,12,0,1,
63f77b9ca8439f6e1620c1cd,SCN,2024-06-20_13h30.05.615,LearnStrategy,2023.2.3,Win32,62.5,8,2,14,,,,,,,,3,06,,,,,,,,,,,3,44.311,1,,,,,,0.094444487,-0.252777806,1,0,0,44.311,Diorite_rect,13,0,13,0,1,
63f77b9ca8439f6e1620c1cd,SCN,2024-06-20_13h30.05.615,LearnStrategy,2023.2.3,Win32,62.5,8,2,15,,,,,,,,8,03,,,,,,,,,,,8,1.134,1,,,,,,0.337962963,-0.397222236,1,0,0,1.134,Pumice_rect,14,0,14,0,1,
63f77b9ca8439f6e1620c1cd,SCN,2024-06-20_13h30.05.615,LearnStrategy,2023.2.3,Win32,62.5,8,2,16,,,,,,,,2,14,,,,,,,,,,,2,34.202,1,,,,,,-0.119444459,-0.25,1,0,0,34.202,Basalt_rect,15,0,15,0,1,
63f77b9ca8439f6e1620c1cd,SCN,2024-06-20_13h30.05.615,LearnStrategy,2023.2.3,Win32,62.5,9,1,1,-0.523148148,-0.08888891,1,0,0,7.834,Diorite_15,3,15,3,1,7.834,-0.172222208,-0.390740783,1,0,0,2.826,Pegmatite_rect,6,2.826,0,0,0,0,0,1,,,,,,,,,,,,,
63f77b9ca8439f6e1620c1cd,SCN,2024-06-20_13h30.05.615,LearnStrategy,2023.2.3,Win32,62.5,9,1,2,-0.074999986,-0.095370399,1,0,0,1.863,Pumice_02,8,02,3,4,1.863,-0.137962977,-0.257407436,1,0,0,1.306,Basalt_rect,2,1.306,0,1,0,1,0,1,,,,,,,,,,,,,
63f77b9ca8439f6e1620c1cd,SCN,2024-06-20_13h30.05.615,LearnStrategy,2023.2.3,Win32,62.5,9,1,3,0.210185228,0.271296289,1,0,0,3.43,Peridotite_07,7,07,5,6,3.43,-0.431481467,-0.396296325,1,0,0,2.233,Obsidian_rect,5,2.233,0,2,0,2,0,1,,,,,,,,,,,,,
63f77b9ca8439f6e1620c1cd,SCN,2024-06-20_13h30.05.615,LearnStrategy,2023.2.3,Win32,62.5,9,1,4,-0.25,-0.09629631,1,0,0,5.046,Andesite_04,1,04,3,3,5.046,-0.143518519,-0.247222265,1,0,0,1.312,Basalt_rect,2,1.312,0,3,0,3,0,1,,,,,,,,,,,,,
63f77b9ca8439f6e1620c1cd,SCN,2024-06-20_13h30.05.615,LearnStrategy,2023.2.3,Win32,62.5,9,1,5,0.392592677,-0.397222236,1,0,0,2.831,Basalt_16,2,16,1,7,2.831,0.082407422,-0.257407436,1,0,0,1.457,Diorite_rect,3,1.457,0,4,0,4,0,1,,,,,,,,,,,,,
63f77b9ca8439f6e1620c1cd,SCN,2024-06-20_13h30.05.615,LearnStrategy,2023.2.3,Win32,62.5,9,1,6,-0.253703718,-0.109259288,1,0,0,1.464,Andesite_04,1,04,3,3,1.464,-0.141666624,-0.25,1,0,0,1.329,Basalt_rect,2,1.329,0,5,0,5,0,1,,,,,,,,,,,,,
63f77b9ca8439f6e1620c1cd,SCN,2024-06-20_13h30.05.615,LearnStrategy,2023.2.3,Win32,62.5,9,1,7,0.519444501,0.403703698,1,0,0,7.146,Basalt_12,2,12,6,8,7.146,-0.106481481,-0.253703718,1,0,0,1.445,Basalt_rect,2,1.445,1,6,0,6,0,1,,,,,,,,,,,,,
63f77b9ca8439f6e1620c1cd,SCN,2024-06-20_13h30.05.615,LearnStrategy,2023.2.3,Win32,62.5,9,1,8,-0.53611109,-0.39907406,1,0,0,2.081,Diorite_02,3,02,1,1,2.081,-0.141666624,-0.414814843,1,0,0,2.47,Pegmatite_rect,6,2.47,0,7,0,7,0,1,,,,,,,,,,,,,
63f77b9ca8439f6e1620c1cd,SCN,2024-06-20_13h30.05.615,LearnStrategy,2023.2.3,Win32,62.5,9,1,9,-0.224074046,-0.242592635,1,0,0,2.798,Diorite_09,3,09,2,3,2.798,0.125925912,-0.256481524,1,0,0,0.999,Diorite_rect,3,0.999,1,8,0,8,0,1,,,,,,,,,,,,,
63f77b9ca8439f6e1620c1cd,SCN,2024-06-20_13h30.05.615,LearnStrategy,2023.2.3,Win32,62.5,9,1,10,-0.590740734,0.093518504,1,0,0,1.913,Andesite_03,1,03,4,1,1.913,-0.112037023,-0.242592635,1,0,0,0.823,Basalt_rect,2,0.823,0,9,0,9,0,1,,,,,,,,,,,,,
63f77b9ca8439f6e1620c1cd,SCN,2024-06-20_13h30.05.615,LearnStrategy,2023.2.3,Win32,62.5,9,1,11,-0.102777764,0.250925929,1,0,0,1.512,Gabbro_03,4,03,5,4,1.512,-0.140740712,-0.250925912,1,0,0,1.058,Basalt_rect,2,1.058,0,10,0,10,0,1,,,,,,,,,,,,,
63f77b9ca8439f6e1620c1cd,SCN,2024-06-20_13h30.05.615,LearnStrategy,2023.2.3,Win32,62.5,9,1,12,0.242592635,0.2537037,1,0,0,1.714,Peridotite_07,7,07,5,6,1.714,-0.132407365,-0.37962963,1,0,0,2.839,Pegmatite_rect,6,2.839,0,11,0,11,0,1,,,,,,,,,,,,,
63f77b9ca8439f6e1620c1cd,SCN,2024-06-20_13h30.05.615,LearnStrategy,2023.2.3,Win32,62.5,9,1,13,-0.402777778,0.388888889,1,0,0,2.381,Andesite_01,1,01,6,2,2.381,0.085185228,-0.270370413,1,0,0,1.33,Diorite_rect,3,1.33,0,12,0,12,0,1,,,,,,,,,,,,,
63f77b9ca8439f6e1620c1cd,SCN,2024-06-20_13h30.05.615,LearnStrategy,2023.2.3,Win32,62.5,9,1,14,0.190740727,-0.104629658,1,0,0,3.147,Gabbro_11,4,11,3,6,3.147,-0.106481481,-0.249074088,1,0,0,1.436,Basalt_rect,2,1.436,0,13,0,13,0,1,,,,,,,,,,,,,
63f77b9ca8439f6e1620c1cd,SCN,2024-06-20_13h30.05.615,LearnStrategy,2023.2.3,Win32,62.5,9,1,15,-0.273148148,0.222222222,1,0,0,5.829,Andesite_06,1,06,5,3,5.829,-0.099074046,-0.236111111,1,0,0,1.052,Basalt_rect,2,1.052,0,14,0,14,0,1,,,,,,,,,,,,,
63f77b9ca8439f6e1620c1cd,SCN,2024-06-20_13h30.05.615,LearnStrategy,2023.2.3,Win32,62.5,9,1,16,0.412037037,0.393518519,1,0,0,4.34,Gabbro_15,4,15,6,7,4.34,0.122222265,-0.237037023,1,0,0,1.474,Diorite_rect,3,1.474,0,15,0,15,0,1,,,,,,,,,,,,,
63f77b9ca8439f6e1620c1cd,SCN,2024-06-20_13h30.05.615,LearnStrategy,2023.2.3,Win32,62.5,9,2,1,,,,,,,,6,07,,,,,,,,,,,6,9.071,1,,,,,,-0.140740712,-0.418518561,1,0,0,9.071,Pegmatite_rect,0,0,0,0,1,
63f77b9ca8439f6e1620c1cd,SCN,2024-06-20_13h30.05.615,LearnStrategy,2023.2.3,Win32,62.5,9,2,2,,,,,,,,3,14,,,,,,,,,,,3,22.826,1,,,,,,0.068518533,-0.250925912,1,0,0,22.826,Diorite_rect,1,0,1,0,1,
63f77b9ca8439f6e1620c1cd,SCN,2024-06-20_13h30.05.615,LearnStrategy,2023.2.3,Win32,62.5,9,2,3,,,,,,,,5,11,,,,,,,,,,,5,1.249,1,,,,,,-0.41111109,-0.39907406,1,0,0,1.249,Obsidian_rect,2,0,2,0,1,
63f77b9ca8439f6e1620c1cd,SCN,2024-06-20_13h30.05.615,LearnStrategy,2023.2.3,Win32,62.5,9,2,4,,,,,,,,4,08,,,,,,,,,,,1,14.288,0,,,,,,-0.433333326,-0.25462963,1,0,0,14.288,Andesite_rect,3,0,3,0,1,
63f77b9ca8439f6e1620c1cd,SCN,2024-06-20_13h30.05.615,LearnStrategy,2023.2.3,Win32,62.5,9,2,5,,,,,,,,7,13,,,,,,,,,,,7,43.898,1,,,,,,0.198148162,-0.405555584,1,0,0,43.898,Peridotite_rect,4,0,4,0,1,
63f77b9ca8439f6e1620c1cd,SCN,2024-06-20_13h30.05.615,LearnStrategy,2023.2.3,Win32,62.5,9,2,6,,,,,,,,8,14,,,,,,,,,,,8,0.963,1,,,,,,0.419444473,-0.405555584,1,0,0,0.963,Pumice_rect,5,0,5,0,1,
63f77b9ca8439f6e1620c1cd,SCN,2024-06-20_13h30.05.615,LearnStrategy,2023.2.3,Win32,62.5,9,2,7,,,,,,,,1,16,,,,,,,,,,,1,13.352,1,,,,,,-0.378703683,-0.229629658,1,0,0,13.352,Andesite_rect,6,0,6,0,1,
63f77b9ca8439f6e1620c1cd,SCN,2024-06-20_13h30.05.615,LearnStrategy,2023.2.3,Win32,62.5,9,2,8,,,,,,,,2,11,,,,,,,,,,,2,7.695,1,,,,,,-0.090740698,-0.241666653,1,0,0,7.695,Basalt_rect,7,0,7,0,1,
63f77b9ca8439f6e1620c1cd,SCN,2024-06-20_13h30.05.615,LearnStrategy,2023.2.3,Win32,62.5,9,2,9,,,,,,,,5,10,,,,,,,,,,,5,1.045,1,,,,,,-0.429629608,-0.400000042,1,0,0,1.045,Obsidian_rect,8,0,8,0,1,
63f77b9ca8439f6e1620c1cd,SCN,2024-06-20_13h30.05.615,LearnStrategy,2023.2.3,Win32,62.5,9,2,10,,,,,,,,3,08,,,,,,,,,,,3,22.788,1,,,,,,0.109259288,-0.251851894,1,0,0,22.788,Diorite_rect,9,0,9,0,1,
63f77b9ca8439f6e1620c1cd,SCN,2024-06-20_13h30.05.615,LearnStrategy,2023.2.3,Win32,62.5,9,2,11,,,,,,,,2,10,,,,,,,,,,,2,11.891,1,,,,,,-0.15370369,-0.247222265,1,0,0,11.891,Basalt_rect,10,0,10,0,1,
63f77b9ca8439f6e1620c1cd,SCN,2024-06-20_13h30.05.615,LearnStrategy,2023.2.3,Win32,62.5,9,2,12,,,,,,,,8,08,,,,,,,,,,,8,2.615,1,,,,,,0.356481481,-0.386111153,1,0,0,2.615,Pumice_rect,11,0,11,0,1,
63f77b9ca8439f6e1620c1cd,SCN,2024-06-20_13h30.05.615,LearnStrategy,2023.2.3,Win32,62.5,9,2,13,,,,,,,,7,06,,,,,,,,,,,6,1.575,0,,,,,,-0.09629631,-0.384259259,1,0,0,1.575,Pegmatite_rect,12,0,12,0,1,
63f77b9ca8439f6e1620c1cd,SCN,2024-06-20_13h30.05.615,LearnStrategy,2023.2.3,Win32,62.5,9,2,14,,,,,,,,4,14,,,,,,,,,,,1,8.236,0,,,,,,-0.351851852,-0.235185199,1,0,0,8.236,Andesite_rect,13,0,13,0,1,
63f77b9ca8439f6e1620c1cd,SCN,2024-06-20_13h30.05.615,LearnStrategy,2023.2.3,Win32,62.5,9,2,15,,,,,,,,6,05,,,,,,,,,,,6,2.574,1,,,,,,-0.186111097,-0.390740783,1,0,0,2.574,Pegmatite_rect,14,0,14,0,1,
63f77b9ca8439f6e1620c1cd,SCN,2024-06-20_13h30.05.615,LearnStrategy,2023.2.3,Win32,62.5,9,2,16,,,,,,,,1,05,,,,,,,,,,,1,21.77,1,,,,,,-0.355555534,-0.243518547,1,0,0,21.77,Andesite_rect,15,0,15,0,1,
63f77b9ca8439f6e1620c1cd,SCN,2024-06-20_13h30.05.615,LearnStrategy,2023.2.3,Win32,62.5,,,,,,,,,,,,,,,,,,,,,,,,,,,,,,,,,,,,,,,,,,,1
63f77b9ca8439f6e1620c1cd,SCN,2024-06-20_13h30.05.615,LearnStrategy,2023.2.3,Win32,62.5,,,,,,,,,,,,,,,,,,,,,,,,,,,,,,,,,,,,,,,,,,,
63f77b9ca8439f6e1620c1cd,SCN,2024-06-20_13h30.05.615,LearnStrategy,2023.2.3,Win32,62.5,,,,,,,,,,,3,02,1,1,,,,,,,,,,,,,,,,,,,,,,,,,,,,,
63f77b9ca8439f6e1620c1cd,SCN,2024-06-20_13h30.05.615,LearnStrategy,2023.2.3,Win32,62.5,,,,,,,,,,,6,16,1,2,,,,,,,,,,,,,,,,,,,,,,,,,,,,,
63f77b9ca8439f6e1620c1cd,SCN,2024-06-20_13h30.05.615,LearnStrategy,2023.2.3,Win32,62.5,,,,,,,,,,,4,10,1,3,,,,,,,,,,,,,,,,,,,,,,,,,,,,,
63f77b9ca8439f6e1620c1cd,SCN,2024-06-20_13h30.05.615,LearnStrategy,2023.2.3,Win32,62.5,,,,,,,,,,,3,07,1,4,,,,,,,,,,,,,,,,,,,,,,,,,,,,,
63f77b9ca8439f6e1620c1cd,SCN,2024-06-20_13h30.05.615,LearnStrategy,2023.2.3,Win32,62.5,,,,,,,,,,,5,04,1,5,,,,,,,,,,,,,,,,,,,,,,,,,,,,,
63f77b9ca8439f6e1620c1cd,SCN,2024-06-20_13h30.05.615,LearnStrategy,2023.2.3,Win32,62.5,,,,,,,,,,,6,06,1,6,,,,,,,,,,,,,,,,,,,,,,,,,,,,,
63f77b9ca8439f6e1620c1cd,SCN,2024-06-20_13h30.05.615,LearnStrategy,2023.2.3,Win32,62.5,,,,,,,,,,,2,16,1,7,,,,,,,,,,,,,,,,,,,,,,,,,,,,,
63f77b9ca8439f6e1620c1cd,SCN,2024-06-20_13h30.05.615,LearnStrategy,2023.2.3,Win32,62.5,,,,,,,,,,,8,10,1,8,,,,,,,,,,,,,,,,,,,,,,,,,,,,,
63f77b9ca8439f6e1620c1cd,SCN,2024-06-20_13h30.05.615,LearnStrategy,2023.2.3,Win32,62.5,,,,,,,,,,,5,02,2,1,,,,,,,,,,,,,,,,,,,,,,,,,,,,,
63f77b9ca8439f6e1620c1cd,SCN,2024-06-20_13h30.05.615,LearnStrategy,2023.2.3,Win32,62.5,,,,,,,,,,,6,10,2,2,,,,,,,,,,,,,,,,,,,,,,,,,,,,,
63f77b9ca8439f6e1620c1cd,SCN,2024-06-20_13h30.05.615,LearnStrategy,2023.2.3,Win32,62.5,,,,,,,,,,,3,09,2,3,,,,,,,,,,,,,,,,,,,,,,,,,,,,,
63f77b9ca8439f6e1620c1cd,SCN,2024-06-20_13h30.05.615,LearnStrategy,2023.2.3,Win32,62.5,,,,,,,,,,,8,09,2,4,,,,,,,,,,,,,,,,,,,,,,,,,,,,,
63f77b9ca8439f6e1620c1cd,SCN,2024-06-20_13h30.05.615,LearnStrategy,2023.2.3,Win32,62.5,,,,,,,,,,,7,04,2,5,,,,,,,,,,,,,,,,,,,,,,,,,,,,,
63f77b9ca8439f6e1620c1cd,SCN,2024-06-20_13h30.05.615,LearnStrategy,2023.2.3,Win32,62.5,,,,,,,,,,,5,14,2,6,,,,,,,,,,,,,,,,,,,,,,,,,,,,,
63f77b9ca8439f6e1620c1cd,SCN,2024-06-20_13h30.05.615,LearnStrategy,2023.2.3,Win32,62.5,,,,,,,,,,,3,13,2,7,,,,,,,,,,,,,,,,,,,,,,,,,,,,,
63f77b9ca8439f6e1620c1cd,SCN,2024-06-20_13h30.05.615,LearnStrategy,2023.2.3,Win32,62.5,,,,,,,,,,,8,05,2,8,,,,,,,,,,,,,,,,,,,,,,,,,,,,,
63f77b9ca8439f6e1620c1cd,SCN,2024-06-20_13h30.05.615,LearnStrategy,2023.2.3,Win32,62.5,,,,,,,,,,,3,15,3,1,,,,,,,,,,,,,,,,,,,,,,,,,,,,,
63f77b9ca8439f6e1620c1cd,SCN,2024-06-20_13h30.05.615,LearnStrategy,2023.2.3,Win32,62.5,,,,,,,,,,,6,15,3,2,,,,,,,,,,,,,,,,,,,,,,,,,,,,,
63f77b9ca8439f6e1620c1cd,SCN,2024-06-20_13h30.05.615,LearnStrategy,2023.2.3,Win32,62.5,,,,,,,,,,,1,04,3,3,,,,,,,,,,,,,,,,,,,,,,,,,,,,,
63f77b9ca8439f6e1620c1cd,SCN,2024-06-20_13h30.05.615,LearnStrategy,2023.2.3,Win32,62.5,,,,,,,,,,,8,02,3,4,,,,,,,,,,,,,,,,,,,,,,,,,,,,,
63f77b9ca8439f6e1620c1cd,SCN,2024-06-20_13h30.05.615,LearnStrategy,2023.2.3,Win32,62.5,,,,,,,,,,,5,12,3,5,,,,,,,,,,,,,,,,,,,,,,,,,,,,,
63f77b9ca8439f6e1620c1cd,SCN,2024-06-20_13h30.05.615,LearnStrategy,2023.2.3,Win32,62.5,,,,,,,,,,,4,11,3,6,,,,,,,,,,,,,,,,,,,,,,,,,,,,,
63f77b9ca8439f6e1620c1cd,SCN,2024-06-20_13h30.05.615,LearnStrategy,2023.2.3,Win32,62.5,,,,,,,,,,,7,10,3,7,,,,,,,,,,,,,,,,,,,,,,,,,,,,,
63f77b9ca8439f6e1620c1cd,SCN,2024-06-20_13h30.05.615,LearnStrategy,2023.2.3,Win32,62.5,,,,,,,,,,,7,14,3,8,,,,,,,,,,,,,,,,,,,,,,,,,,,,,
63f77b9ca8439f6e1620c1cd,SCN,2024-06-20_13h30.05.615,LearnStrategy,2023.2.3,Win32,62.5,,,,,,,,,,,1,03,4,1,,,,,,,,,,,,,,,,,,,,,,,,,,,,,
63f77b9ca8439f6e1620c1cd,SCN,2024-06-20_13h30.05.615,LearnStrategy,2023.2.3,Win32,62.5,,,,,,,,,,,8,04,4,2,,,,,,,,,,,,,,,,,,,,,,,,,,,,,
63f77b9ca8439f6e1620c1cd,SCN,2024-06-20_13h30.05.615,LearnStrategy,2023.2.3,Win32,62.5,,,,,,,,,,,5,16,4,3,,,,,,,,,,,,,,,,,,,,,,,,,,,,,
63f77b9ca8439f6e1620c1cd,SCN,2024-06-20_13h30.05.615,LearnStrategy,2023.2.3,Win32,62.5,,,,,,,,,,,6,03,4,4,,,,,,,,,,,,,,,,,,,,,,,,,,,,,
63f77b9ca8439f6e1620c1cd,SCN,2024-06-20_13h30.05.615,LearnStrategy,2023.2.3,Win32,62.5,,,,,,,,,,,1,07,4,5,,,,,,,,,,,,,,,,,,,,,,,,,,,,,
63f77b9ca8439f6e1620c1cd,SCN,2024-06-20_13h30.05.615,LearnStrategy,2023.2.3,Win32,62.5,,,,,,,,,,,8,15,4,6,,,,,,,,,,,,,,,,,,,,,,,,,,,,,
63f77b9ca8439f6e1620c1cd,SCN,2024-06-20_13h30.05.615,LearnStrategy,2023.2.3,Win32,62.5,,,,,,,,,,,4,05,4,7,,,,,,,,,,,,,,,,,,,,,,,,,,,,,
63f77b9ca8439f6e1620c1cd,SCN,2024-06-20_13h30.05.615,LearnStrategy,2023.2.3,Win32,62.5,,,,,,,,,,,1,11,4,8,,,,,,,,,,,,,,,,,,,,,,,,,,,,,
63f77b9ca8439f6e1620c1cd,SCN,2024-06-20_13h30.05.615,LearnStrategy,2023.2.3,Win32,62.5,,,,,,,,,,,5,06,5,1,,,,,,,,,,,,,,,,,,,,,,,,,,,,,
63f77b9ca8439f6e1620c1cd,SCN,2024-06-20_13h30.05.615,LearnStrategy,2023.2.3,Win32,62.5,,,,,,,,,,,2,08,5,2,,,,,,,,,,,,,,,,,,,,,,,,,,,,,
63f77b9ca8439f6e1620c1cd,SCN,2024-06-20_13h30.05.615,LearnStrategy,2023.2.3,Win32,62.5,,,,,,,,,,,1,06,5,3,,,,,,,,,,,,,,,,,,,,,,,,,,,,,
63f77b9ca8439f6e1620c1cd,SCN,2024-06-20_13h30.05.615,LearnStrategy,2023.2.3,Win32,62.5,,,,,,,,,,,4,03,5,4,,,,,,,,,,,,,,,,,,,,,,,,,,,,,
63f77b9ca8439f6e1620c1cd,SCN,2024-06-20_13h30.05.615,LearnStrategy,2023.2.3,Win32,62.5,,,,,,,,,,,2,02,5,5,,,,,,,,,,,,,,,,,,,,,,,,,,,,,
63f77b9ca8439f6e1620c1cd,SCN,2024-06-20_13h30.05.615,LearnStrategy,2023.2.3,Win32,62.5,,,,,,,,,,,7,07,5,6,,,,,,,,,,,,,,,,,,,,,,,,,,,,,
63f77b9ca8439f6e1620c1cd,SCN,2024-06-20_13h30.05.615,LearnStrategy,2023.2.3,Win32,62.5,,,,,,,,,,,2,01,5,7,,,,,,,,,,,,,,,,,,,,,,,,,,,,,
63f77b9ca8439f6e1620c1cd,SCN,2024-06-20_13h30.05.615,LearnStrategy,2023.2.3,Win32,62.5,,,,,,,,,,,3,16,5,8,,,,,,,,,,,,,,,,,,,,,,,,,,,,,
63f77b9ca8439f6e1620c1cd,SCN,2024-06-20_13h30.05.615,LearnStrategy,2023.2.3,Win32,62.5,,,,,,,,,,,7,02,6,1,,,,,,,,,,,,,,,,,,,,,,,,,,,,,
63f77b9ca8439f6e1620c1cd,SCN,2024-06-20_13h30.05.615,LearnStrategy,2023.2.3,Win32,62.5,,,,,,,,,,,1,01,6,2,,,,,,,,,,,,,,,,,,,,,,,,,,,,,
63f77b9ca8439f6e1620c1cd,SCN,2024-06-20_13h30.05.615,LearnStrategy,2023.2.3,Win32,62.5,,,,,,,,,,,4,16,6,3,,,,,,,,,,,,,,,,,,,,,,,,,,,,,
63f77b9ca8439f6e1620c1cd,SCN,2024-06-20_13h30.05.615,LearnStrategy,2023.2.3,Win32,62.5,,,,,,,,,,,6,12,6,4,,,,,,,,,,,,,,,,,,,,,,,,,,,,,
63f77b9ca8439f6e1620c1cd,SCN,2024-06-20_13h30.05.615,LearnStrategy,2023.2.3,Win32,62.5,,,,,,,,,,,7,12,6,5,,,,,,,,,,,,,,,,,,,,,,,,,,,,,
63f77b9ca8439f6e1620c1cd,SCN,2024-06-20_13h30.05.615,LearnStrategy,2023.2.3,Win32,62.5,,,,,,,,,,,2,04,6,6,,,,,,,,,,,,,,,,,,,,,,,,,,,,,
63f77b9ca8439f6e1620c1cd,SCN,2024-06-20_13h30.05.615,LearnStrategy,2023.2.3,Win32,62.5,,,,,,,,,,,4,15,6,7,,,,,,,,,,,,,,,,,,,,,,,,,,,,,
63f77b9ca8439f6e1620c1cd,SCN,2024-06-20_13h30.05.615,LearnStrategy,2023.2.3,Win32,62.5,,,,,,,,,,,2,12,6,8,,,,,,,,,,,,,,,,,,,,,,,,,,,,,