participant,condition,date,expName,psychopyVersion,OS,frameRate,block,phase,trial,learn_mouse.x,learn_mouse.y,learn_mouse.leftButton,learn_mouse.midButton,learn_mouse.rightButton,learn_mouse.time,learn_mouse.clicked_name,cat,token,row,col,t_select,cat_rec,token_rec,cat_mouse_l.x,cat_mouse_l.y,cat_mouse_l.leftButton,cat_mouse_l.midButton,cat_mouse_l.rightButton,cat_mouse_l.time,cat_mouse_l.clicked_name,resp,t_resp,corr,train_trials.thisRepN,train_trials.thisTrialN,train_trials.thisN,train_trials.thisIndex,train_trials.ran,cat_mouse_t.x,cat_mouse_t.y,cat_mouse_t.leftButton,cat_mouse_t.midButton,cat_mouse_t.rightButton,cat_mouse_t.time,cat_mouse_t.clicked_name,test_trials.thisRepN,test_trials.thisTrialN,test_trials.thisN,test_trials.thisIndex,test_trials.ran,Bonus
6400f8f41e203f131c68b79f,SCR,2024-06-21_10h47.30.109,LearnStrategy,2023.2.3,MacIntel,59.52380952,,,,,,,,,,,,,,,,,,,,,,,,,,,,,,,,,,,,,,,,,,,,,
6400f8f41e203f131c68b79f,SCR,2024-06-21_10h47.30.109,LearnStrategy,2023.2.3,MacIntel,59.52380952,1,1,1,0.555746528,-0.392139757,1,0,0,7.5354,Andesite_11,1,11,1,8,7.535,5,08,-0.442269965,-0.40046441,1,0,0,6.8254,Obsidian_rect,5,6.825,0,0,0,0,0,1,,,,,,,,,,,,,
6400f8f41e203f131c68b79f,SCR,2024-06-21_10h47.30.109,LearnStrategy,2023.2.3,MacIntel,59.52380952,1,1,2,0.094210069,-0.093789063,1,0,0,14.1462,Gabbro_03,4,03,3,5,14.146,7,02,0.156527778,-0.238216146,1,0,0,8.5144,Diorite_rect,3,8.514,0,1,0,1,0,1,,,,,,,,,,,,,
6400f8f41e203f131c68b79f,SCR,2024-06-21_10h47.30.109,LearnStrategy,2023.2.3,MacIntel,59.52380952,1,1,3,-0.543151042,-0.067899306,1,0,0,6.9466,Andesite_03,1,03,3,1,6.947,5,06,-0.382013889,-0.418138021,1,0,0,3.28,Obsidian_rect,5,3.28,0,2,0,2,0,1,,,,,,,,,,,,,
6400f8f41e203f131c68b79f,SCR,2024-06-21_10h47.30.109,LearnStrategy,2023.2.3,MacIntel,59.52380952,1,1,4,-0.052213542,0.411840278,1,0,0,6.9806,Pumice_15,8,15,6,4,6.981,7,08,-0.115924479,-0.263771701,1,0,0,4.2301,Basalt_rect,2,4.23,0,3,0,3,0,1,,,,,,,,,,,,,
6400f8f41e203f131c68b79f,SCR,2024-06-21_10h47.30.109,LearnStrategy,2023.2.3,MacIntel,59.52380952,1,1,5,-0.2284375,0.144097222,1,0,0,6.1978,Obsidian_10,5,10,4,3,6.198,2,05,-0.433988715,-0.415282118,1,0,0,3.2796,Obsidian_rect,5,3.28,1,4,0,4,0,1,,,,,,,,,,,,,
6400f8f41e203f131c68b79f,SCR,2024-06-21_10h47.30.109,LearnStrategy,2023.2.3,MacIntel,59.52380952,1,1,6,-0.546605903,0.098776042,1,0,0,5.095,Obsidian_12,5,12,4,1,5.095,2,08,-0.365447049,-0.412421875,1,0,0,1.6989,Obsidian_rect,5,1.699,1,5,0,5,0,1,,,,,,,,,,,,,
6400f8f41e203f131c68b79f,SCR,2024-06-21_10h47.30.109,LearnStrategy,2023.2.3,MacIntel,59.52380952,1,1,7,-0.242304688,0.361141493,1,0,0,5.5638,Pegmatite_16,6,16,6,3,5.564,6,03,0.398263889,-0.385902778,1,0,0,5.8641,Pumice_rect,8,5.864,0,6,0,6,0,1,,,,,,,,,,,,,
6400f8f41e203f131c68b79f,SCR,2024-06-21_10h47.30.109,LearnStrategy,2023.2.3,MacIntel,59.52380952,1,1,8,-0.07766059,-0.459392361,1,0,0,2.1956,Pegmatite_03,6,03,1,4,2.196,3,10,0.360490451,-0.394921875,1,0,0,5.0584,Pumice_rect,8,5.058,0,7,0,7,0,1,,,,,,,,,,,,,
6400f8f41e203f131c68b79f,SCR,2024-06-21_10h47.30.109,LearnStrategy,2023.2.3,MacIntel,59.52380952,1,1,9,-0.379348958,-0.057434896,1,0,0,3.697,Obsidian_07,5,07,3,2,3.697,1,03,-0.399618056,-0.402196181,1,0,0,5.063,Obsidian_rect,5,5.063,1,8,0,8,0,1,,,,,,,,,,,,,
6400f8f41e203f131c68b79f,SCR,2024-06-21_10h47.30.109,LearnStrategy,2023.2.3,MacIntel,59.52380952,1,1,10,0.236111111,-0.423268229,1,0,0,3.1463,Peridotite_04,7,04,1,6,3.146,1,05,-0.048289931,-0.389887153,1,0,0,2.8813,Pegmatite_rect,6,2.881,0,9,0,9,0,1,,,,,,,,,,,,,
6400f8f41e203f131c68b79f,SCR,2024-06-21_10h47.30.109,LearnStrategy,2023.2.3,MacIntel,59.52380952,1,1,11,-0.088177083,-0.085221354,1,0,0,90.3505,Basalt_04,2,04,3,4,90.351,3,12,-0.297313368,-0.250407986,1,0,0,3.5297,Andesite_rect,1,3.53,0,10,0,10,0,1,,,,,,,,,,,,,
6400f8f41e203f131c68b79f,SCR,2024-06-21_10h47.30.109,LearnStrategy,2023.2.3,MacIntel,59.52380952,1,1,12,0.359496528,-0.436835937,1,0,0,1.3294,Obsidian_08,5,08,1,7,1.329,4,01,-0.329913194,-0.392356771,1,0,0,2.4252,Obsidian_rect,5,2.425,1,11,0,11,0,1,,,,,,,,,,,,,
6400f8f41e203f131c68b79f,SCR,2024-06-21_10h47.30.109,LearnStrategy,2023.2.3,MacIntel,59.52380952,1,1,13,0.19421441,0.382860243,1,0,0,6.3298,Diorite_13,3,13,6,6,6.33,4,14,0.362204861,-0.413546007,1,0,0,4.765,Pumice_rect,8,4.765,0,12,0,12,0,1,,,,,,,,,,,,,
6400f8f41e203f131c68b79f,SCR,2024-06-21_10h47.30.109,LearnStrategy,2023.2.3,MacIntel,59.52380952,1,1,14,-0.378216146,-0.400694444,1,0,0,4.1636,Gabbro_16,4,16,1,2,4.164,6,06,-0.186588542,-0.391575521,1,0,0,1.965,Pegmatite_rect,6,1.965,0,13,0,13,0,1,,,,,,,,,,,,,
6400f8f41e203f131c68b79f,SCR,2024-06-21_10h47.30.109,LearnStrategy,2023.2.3,MacIntel,59.52380952,1,1,15,0.543719618,-0.247921007,1,0,0,3.9976,Basalt_16,2,16,2,8,3.998,8,04,0.345759549,-0.260690104,1,0,0,1.4477,Gabbro_rect,4,1.448,0,14,0,14,0,1,,,,,,,,,,,,,
6400f8f41e203f131c68b79f,SCR,2024-06-21_10h47.30.109,LearnStrategy,2023.2.3,MacIntel,59.52380952,1,1,16,-0.398980035,0.264960937,1,0,0,2.7966,Diorite_09,3,09,5,2,2.797,8,16,-0.101332465,-0.257673611,1,0,0,3.1573,Basalt_rect,2,3.157,0,15,0,15,0,1,,,,,,,,,,,,,
6400f8f41e203f131c68b79f,SCR,2024-06-21_10h47.30.109,LearnStrategy,2023.2.3,MacIntel,59.52380952,1,2,1,,,,,,,,7,13,,,,,,,,,,,,,4,10.139,0,,,,,,0.376223958,-0.250173611,1,0,0,10.1387,Gabbro_rect,0,0,0,0,1,
6400f8f41e203f131c68b79f,SCR,2024-06-21_10h47.30.109,LearnStrategy,2023.2.3,MacIntel,59.52380952,1,2,2,,,,,,,,2,06,,,,,,,,,,,,,6,8.857,0,,,,,,-0.072248264,-0.404652778,1,0,0,8.8566,Pegmatite_rect,1,0,1,0,1,
6400f8f41e203f131c68b79f,SCR,2024-06-21_10h47.30.109,LearnStrategy,2023.2.3,MacIntel,59.52380952,1,2,3,,,,,,,,6,12,,,,,,,,,,,,,5,1.623,0,,,,,,-0.323697917,-0.398072917,1,0,0,1.6233,Obsidian_rect,2,0,2,0,1,
6400f8f41e203f131c68b79f,SCR,2024-06-21_10h47.30.109,LearnStrategy,2023.2.3,MacIntel,59.52380952,1,2,4,,,,,,,,8,05,,,,,,,,,,,,,3,6.691,0,,,,,,0.167374132,-0.261575521,1,0,0,6.6906,Diorite_rect,3,0,3,0,1,
6400f8f41e203f131c68b79f,SCR,2024-06-21_10h47.30.109,LearnStrategy,2023.2.3,MacIntel,59.52380952,1,2,5,,,,,,,,3,14,,,,,,,,,,,,,1,3.356,0,,,,,,-0.355950521,-0.236532118,1,0,0,3.3556,Andesite_rect,4,0,4,0,1,
6400f8f41e203f131c68b79f,SCR,2024-06-21_10h47.30.109,LearnStrategy,2023.2.3,MacIntel,59.52380952,1,2,6,,,,,,,,1,09,,,,,,,,,,,,,6,8.257,0,,,,,,-0.091341146,-0.410078125,1,0,0,8.2567,Pegmatite_rect,5,0,5,0,1,
6400f8f41e203f131c68b79f,SCR,2024-06-21_10h47.30.109,LearnStrategy,2023.2.3,MacIntel,59.52380952,1,2,7,,,,,,,,8,08,,,,,,,,,,,,,8,3.356,1,,,,,,0.370373264,-0.391102431,1,0,0,3.3564,Pumice_rect,6,0,6,0,1,
6400f8f41e203f131c68b79f,SCR,2024-06-21_10h47.30.109,LearnStrategy,2023.2.3,MacIntel,59.52380952,1,2,8,,,,,,,,5,16,,,,,,,,,,,,,1,2.574,0,,,,,,-0.378216146,-0.241853299,1,0,0,2.5735,Andesite_rect,7,0,7,0,1,
6400f8f41e203f131c68b79f,SCR,2024-06-21_10h47.30.109,LearnStrategy,2023.2.3,MacIntel,59.52380952,1,2,9,,,,,,,,6,15,,,,,,,,,,,,,5,2.024,0,,,,,,-0.356740451,-0.404131944,1,0,0,2.0237,Obsidian_rect,8,0,8,0,1,
6400f8f41e203f131c68b79f,SCR,2024-06-21_10h47.30.109,LearnStrategy,2023.2.3,MacIntel,59.52380952,1,2,10,,,,,,,,2,09,,,,,,,,,,,,,4,2.758,0,,,,,,0.343671875,-0.246111111,1,0,0,2.7578,Gabbro_rect,9,0,9,0,1,
6400f8f41e203f131c68b79f,SCR,2024-06-21_10h47.30.109,LearnStrategy,2023.2.3,MacIntel,59.52380952,1,2,11,,,,,,,,4,10,,,,,,,,,,,,,3,2.207,0,,,,,,0.068789062,-0.238524306,1,0,0,2.207,Diorite_rect,10,0,10,0,1,
6400f8f41e203f131c68b79f,SCR,2024-06-21_10h47.30.109,LearnStrategy,2023.2.3,MacIntel,59.52380952,1,2,12,,,,,,,,5,02,,,,,,,,,,,,,5,4.041,1,,,,,,-0.326905382,-0.414479167,1,0,0,4.0412,Obsidian_rect,11,0,11,0,1,
6400f8f41e203f131c68b79f,SCR,2024-06-21_10h47.30.109,LearnStrategy,2023.2.3,MacIntel,59.52380952,1,2,13,,,,,,,,3,02,,,,,,,,,,,,,1,2.941,0,,,,,,-0.385438368,-0.24969184,1,0,0,2.9409,Andesite_rect,12,0,12,0,1,
6400f8f41e203f131c68b79f,SCR,2024-06-21_10h47.30.109,LearnStrategy,2023.2.3,MacIntel,59.52380952,1,2,14,,,,,,,,1,02,,,,,,,,,,,,,7,1.257,0,,,,,,0.076006944,-0.421354167,1,0,0,1.2566,Peridotite_rect,13,0,13,0,1,
6400f8f41e203f131c68b79f,SCR,2024-06-21_10h47.30.109,LearnStrategy,2023.2.3,MacIntel,59.52380952,1,2,15,,,,,,,,7,14,,,,,,,,,,,,,2,1.89,0,,,,,,-0.070794271,-0.265026042,1,0,0,1.8905,Basalt_rect,14,0,14,0,1,
6400f8f41e203f131c68b79f,SCR,2024-06-21_10h47.30.109,LearnStrategy,2023.2.3,MacIntel,59.52380952,1,2,16,,,,,,,,4,11,,,,,,,,,,,,,8,2.725,0,,,,,,0.371354167,-0.408085937,1,0,0,2.7246,Pumice_rect,15,0,15,0,1,
6400f8f41e203f131c68b79f,SCR,2024-06-21_10h47.30.109,LearnStrategy,2023.2.3,MacIntel,59.52380952,2,1,1,-0.125247396,0.387760417,1,0,0,21.1988,Pumice_15,8,15,6,4,21.199,6,03,0.381310764,-0.420759549,1,0,0,3.9301,Pumice_rect,8,3.93,1,0,0,0,0,1,,,,,,,,,,,,,
6400f8f41e203f131c68b79f,SCR,2024-06-21_10h47.30.109,LearnStrategy,2023.2.3,MacIntel,59.52380952,2,1,2,0.36952691,0.055373264,1,0,0,4.5131,Diorite_10,3,10,4,7,4.513,7,15,0.186132812,-0.271979167,1,0,0,1.8965,Diorite_rect,3,1.897,1,1,0,1,0,1,,,,,,,,,,,,,
6400f8f41e203f131c68b79f,SCR,2024-06-21_10h47.30.109,LearnStrategy,2023.2.3,MacIntel,59.52380952,2,1,3,0.099748264,-0.059809028,1,0,0,2.7483,Gabbro_03,4,03,3,5,2.748,2,04,0.12672309,-0.232851562,1,0,0,1.1979,Diorite_rect,3,1.198,0,2,0,2,0,1,,,,,,,,,,,,,
6400f8f41e203f131c68b79f,SCR,2024-06-21_10h47.30.109,LearnStrategy,2023.2.3,MacIntel,59.52380952,2,1,4,0.218372396,0.236315104,1,0,0,2.6531,Basalt_05,2,05,5,6,2.653,1,11,0.350021701,-0.409353299,1,0,0,3.0082,Pumice_rect,8,3.008,0,3,0,3,0,1,,,,,,,,,,,,,
6400f8f41e203f131c68b79f,SCR,2024-06-21_10h47.30.109,LearnStrategy,2023.2.3,MacIntel,59.52380952,2,1,5,0.051037326,-0.250859375,1,0,0,1.079,Andesite_14,1,14,2,5,1.079,8,10,-0.093463542,-0.391080729,1,0,0,1.4432,Pegmatite_rect,6,1.443,0,4,0,4,0,1,,,,,,,,,,,,,
6400f8f41e203f131c68b79f,SCR,2024-06-21_10h47.30.109,LearnStrategy,2023.2.3,MacIntel,59.52380952,2,1,6,0.252456597,0.3846875,1,0,0,3.0143,Diorite_13,3,13,6,6,3.014,2,04,0.348993056,-0.413897569,1,0,0,2.9435,Pumice_rect,8,2.943,0,5,0,5,0,1,,,,,,,,,,,,,
6400f8f41e203f131c68b79f,SCR,2024-06-21_10h47.30.109,LearnStrategy,2023.2.3,MacIntel,59.52380952,2,1,7,0.112135417,-0.430590278,1,0,0,0.9785,Gabbro_14,4,14,1,5,0.979,4,08,0.295828993,-0.412864583,1,0,0,1.8752,Pumice_rect,8,1.875,0,6,0,6,0,1,,,,,,,,,,,,,
6400f8f41e203f131c68b79f,SCR,2024-06-21_10h47.30.109,LearnStrategy,2023.2.3,MacIntel,59.52380952,2,1,8,-0.238068576,0.387799479,1,0,0,4.2974,Pegmatite_16,6,16,6,3,4.297,5,06,-0.355212674,-0.262309028,1,0,0,5.5145,Andesite_rect,1,5.514,0,7,0,7,0,1,,,,,,,,,,,,,
6400f8f41e203f131c68b79f,SCR,2024-06-21_10h47.30.109,LearnStrategy,2023.2.3,MacIntel,59.52380952,2,1,9,-0.069518229,-0.270021701,1,0,0,1.1131,Pegmatite_11,6,11,2,4,1.113,1,05,0.224075521,-0.403606771,1,0,0,6.0075,Peridotite_rect,7,6.008,0,8,0,8,0,1,,,,,,,,,,,,,
6400f8f41e203f131c68b79f,SCR,2024-06-21_10h47.30.109,LearnStrategy,2023.2.3,MacIntel,59.52380952,2,1,10,0.384626736,0.273498264,1,0,0,106.4185,Pegmatite_06,6,06,5,7,106.419,4,03,0.384162326,-0.236336806,1,0,0,2.7466,Gabbro_rect,4,2.747,0,9,0,9,0,1,,,,,,,,,,,,,
6400f8f41e203f131c68b79f,SCR,2024-06-21_10h47.30.109,LearnStrategy,2023.2.3,MacIntel,59.52380952,2,1,11,-0.091740451,0.24250434,1,0,0,6.6794,Diorite_07,3,07,5,4,6.679,3,09,0.080651042,-0.391241319,1,0,0,2.7978,Peridotite_rect,7,2.798,0,10,0,10,0,1,,,,,,,,,,,,,
6400f8f41e203f131c68b79f,SCR,2024-06-21_10h47.30.109,LearnStrategy,2023.2.3,MacIntel,59.52380952,2,1,12,0.097695313,0.4034375,1,0,0,1.6961,Gabbro_01,4,01,6,5,1.696,7,15,0.12296441,-0.407486979,1,0,0,1.8755,Peridotite_rect,7,1.875,0,11,0,11,0,1,,,,,,,,,,,,,
6400f8f41e203f131c68b79f,SCR,2024-06-21_10h47.30.109,LearnStrategy,2023.2.3,MacIntel,59.52380952,2,1,13,0.0371875,0.115972222,1,0,0,2.5802,Peridotite_10,7,10,4,5,2.58,5,11,0.3378125,-0.244709201,1,0,0,2.5808,Gabbro_rect,4,2.581,0,12,0,12,0,1,,,,,,,,,,,,,
6400f8f41e203f131c68b79f,SCR,2024-06-21_10h47.30.109,LearnStrategy,2023.2.3,MacIntel,59.52380952,2,1,14,0.240477431,-0.253090278,1,0,0,2.8959,Gabbro_09,4,09,2,6,2.896,3,06,0.240477431,-0.253090278,1,0,0,2.3243,Diorite_rect,3,2.324,0,13,0,13,0,1,,,,,,,,,,,,,
6400f8f41e203f131c68b79f,SCR,2024-06-21_10h47.30.109,LearnStrategy,2023.2.3,MacIntel,59.52380952,2,1,15,-0.549965278,-0.104513889,1,0,0,3.1807,Andesite_03,1,03,3,1,3.181,1,07,-0.090542535,-0.405021701,1,0,0,6.5735,Pegmatite_rect,6,6.573,0,14,0,14,0,1,,,,,,,,,,,,,
6400f8f41e203f131c68b79f,SCR,2024-06-21_10h47.30.109,LearnStrategy,2023.2.3,MacIntel,59.52380952,2,1,16,-0.359136285,0.379127604,1,0,0,3.0634,Andesite_06,1,06,6,2,3.063,6,03,-0.365082465,-0.234435764,1,0,0,1.2988,Andesite_rect,1,1.299,1,15,0,15,0,1,,,,,,,,,,,,,
6400f8f41e203f131c68b79f,SCR,2024-06-21_10h47.30.109,LearnStrategy,2023.2.3,MacIntel,59.52380952,2,2,1,,,,,,,,4,15,,,,,,,,,,,,,4,10.31,1,,,,,,0.319596354,-0.250551215,1,0,0,10.3095,Gabbro_rect,0,0,0,0,1,
6400f8f41e203f131c68b79f,SCR,2024-06-21_10h47.30.109,LearnStrategy,2023.2.3,MacIntel,59.52380952,2,2,2,,,,,,,,2,14,,,,,,,,,,,,,8,10.674,0,,,,,,0.331180556,-0.390303819,1,0,0,10.6742,Pumice_rect,1,0,1,0,1,
6400f8f41e203f131c68b79f,SCR,2024-06-21_10h47.30.109,LearnStrategy,2023.2.3,MacIntel,59.52380952,2,2,3,,,,,,,,3,11,,,,,,,,,,,,,3,5.69,1,,,,,,0.166180556,-0.252374132,1,0,0,5.6902,Diorite_rect,2,0,2,0,1,
6400f8f41e203f131c68b79f,SCR,2024-06-21_10h47.30.109,LearnStrategy,2023.2.3,MacIntel,59.52380952,2,2,4,,,,,,,,1,04,,,,,,,,,,,,,6,1.474,0,,,,,,-0.050390625,-0.413858507,1,0,0,1.4738,Pegmatite_rect,3,0,3,0,1,
6400f8f41e203f131c68b79f,SCR,2024-06-21_10h47.30.109,LearnStrategy,2023.2.3,MacIntel,59.52380952,2,2,5,,,,,,,,6,13,,,,,,,,,,,,,8,3.341,0,,,,,,0.343376736,-0.381358507,1,0,0,3.3411,Pumice_rect,4,0,4,0,1,
6400f8f41e203f131c68b79f,SCR,2024-06-21_10h47.30.109,LearnStrategy,2023.2.3,MacIntel,59.52380952,2,2,6,,,,,,,,2,02,,,,,,,,,,,,,7,1.173,0,,,,,,0.173789063,-0.392829861,1,0,0,1.1727,Peridotite_rect,5,0,5,0,1,
6400f8f41e203f131c68b79f,SCR,2024-06-21_10h47.30.109,LearnStrategy,2023.2.3,MacIntel,59.52380952,2,2,7,,,,,,,,1,01,,,,,,,,,,,,,3,1.49,0,,,,,,0.181050347,-0.248077257,1,0,0,1.4896,Diorite_rect,6,0,6,0,1,
6400f8f41e203f131c68b79f,SCR,2024-06-21_10h47.30.109,LearnStrategy,2023.2.3,MacIntel,59.52380952,2,2,8,,,,,,,,8,09,,,,,,,,,,,,,1,1.957,0,,,,,,-0.310486111,-0.23546441,1,0,0,1.9569,Andesite_rect,7,0,7,0,1,
6400f8f41e203f131c68b79f,SCR,2024-06-21_10h47.30.109,LearnStrategy,2023.2.3,MacIntel,59.52380952,2,2,9,,,,,,,,4,12,,,,,,,,,,,,,3,1.931,0,,,,,,0.171649306,-0.247387153,1,0,0,1.9308,Diorite_rect,8,0,8,0,1,
6400f8f41e203f131c68b79f,SCR,2024-06-21_10h47.30.109,LearnStrategy,2023.2.3,MacIntel,59.52380952,2,2,10,,,,,,,,3,16,,,,,,,,,,,,,7,0.99,0,,,,,,0.121306424,-0.421085069,1,0,0,0.9904,Peridotite_rect,9,0,9,0,1,
6400f8f41e203f131c68b79f,SCR,2024-06-21_10h47.30.109,LearnStrategy,2023.2.3,MacIntel,59.52380952,2,2,11,,,,,,,,7,06,,,,,,,,,,,,,2,2.274,0,,,,,,-0.076727431,-0.256002604,1,0,0,2.2735,Basalt_rect,10,0,10,0,1,
6400f8f41e203f131c68b79f,SCR,2024-06-21_10h47.30.109,LearnStrategy,2023.2.3,MacIntel,59.52380952,2,2,12,,,,,,,,8,03,,,,,,,,,,,,,4,1.791,0,,,,,,0.390590278,-0.252044271,1,0,0,1.7908,Gabbro_rect,11,0,11,0,1,
6400f8f41e203f131c68b79f,SCR,2024-06-21_10h47.30.109,LearnStrategy,2023.2.3,MacIntel,59.52380952,2,2,13,,,,,,,,5,14,,,,,,,,,,,,,5,1.241,1,,,,,,-0.369414062,-0.405590278,1,0,0,1.2406,Obsidian_rect,12,0,12,0,1,
6400f8f41e203f131c68b79f,SCR,2024-06-21_10h47.30.109,LearnStrategy,2023.2.3,MacIntel,59.52380952,2,2,14,,,,,,,,7,16,,,,,,,,,,,,,8,1.474,0,,,,,,0.330828993,-0.409913194,1,0,0,1.4737,Pumice_rect,13,0,13,0,1,
6400f8f41e203f131c68b79f,SCR,2024-06-21_10h47.30.109,LearnStrategy,2023.2.3,MacIntel,59.52380952,2,2,15,,,,,,,,5,05,,,,,,,,,,,,,5,1.374,1,,,,,,-0.363606771,-0.40828559,1,0,0,1.374,Obsidian_rect,14,0,14,0,1,
6400f8f41e203f131c68b79f,SCR,2024-06-21_10h47.30.109,LearnStrategy,2023.2.3,MacIntel,59.52380952,2,2,16,,,,,,,,6,10,,,,,,,,,,,,,7,3.841,0,,,,,,0.094396701,-0.402287326,1,0,0,3.8407,Peridotite_rect,15,0,15,0,1,
6400f8f41e203f131c68b79f,SCR,2024-06-21_10h47.30.109,LearnStrategy,2023.2.3,MacIntel,59.52380952,3,1,1,0.370928819,0.391289063,1,0,0,206.7223,Peridotite_15,7,15,6,7,206.722,2,04,0.370724826,-0.386753472,1,0,0,3.9632,Pumice_rect,8,3.963,0,0,0,0,0,1,,,,,,,,,,,,,
6400f8f41e203f131c68b79f,SCR,2024-06-21_10h47.30.109,LearnStrategy,2023.2.3,MacIntel,59.52380952,3,1,2,0.074678819,-0.11640191,1,0,0,0.7967,Gabbro_03,4,03,3,5,0.797,1,03,0.318723958,-0.381571181,1,0,0,1.6751,Pumice_rect,8,1.675,0,1,0,1,0,1,,,,,,,,,,,,,
6400f8f41e203f131c68b79f,SCR,2024-06-21_10h47.30.109,LearnStrategy,2023.2.3,MacIntel,59.52380952,3,1,3,-0.079544271,0.081332465,1,0,0,1.7136,Gabbro_08,4,08,4,4,1.714,1,14,0.379730903,-0.401059028,1,0,0,2.0083,Pumice_rect,8,2.008,0,2,0,2,0,1,,,,,,,,,,,,,
6400f8f41e203f131c68b79f,SCR,2024-06-21_10h47.30.109,LearnStrategy,2023.2.3,MacIntel,59.52380952,3,1,4,-0.496835937,-0.082131076,1,0,0,2.9484,Andesite_03,1,03,3,1,2.948,4,09,0.329053819,-0.269014757,1,0,0,1.5909,Gabbro_rect,4,1.591,0,3,0,3,0,1,,,,,,,,,,,,,
6400f8f41e203f131c68b79f,SCR,2024-06-21_10h47.30.109,LearnStrategy,2023.2.3,MacIntel,59.52380952,3,1,5,0.528624132,-0.392200521,1,0,0,1.2308,Andesite_11,1,11,1,8,1.231,7,10,-0.465368924,-0.26874566,1,0,0,1.2256,Andesite_rect,1,1.226,1,4,0,4,0,1,,,,,,,,,,,,,
6400f8f41e203f131c68b79f,SCR,2024-06-21_10h47.30.109,LearnStrategy,2023.2.3,MacIntel,59.52380952,3,1,6,-0.218289931,0.393767361,1,0,0,1.8971,Pegmatite_16,6,16,6,3,1.897,3,07,-0.355234375,-0.417469618,1,0,0,2.5924,Obsidian_rect,5,2.592,0,5,0,5,0,1,,,,,,,,,,,,,
6400f8f41e203f131c68b79f,SCR,2024-06-21_10h47.30.109,LearnStrategy,2023.2.3,MacIntel,59.52380952,3,1,7,-0.571510417,0.260334201,1,0,0,4.8633,Pegmatite_05,6,05,5,1,4.863,7,04,-0.041775174,-0.402048611,1,0,0,2.03,Pegmatite_rect,6,2.03,1,6,0,6,0,1,,,,,,,,,,,,,
6400f8f41e203f131c68b79f,SCR,2024-06-21_10h47.30.109,LearnStrategy,2023.2.3,MacIntel,59.52380952,3,1,8,0.075390625,0.24530816,1,0,0,2.6849,Obsidian_06,5,06,5,5,2.685,6,11,-0.428172743,-0.404188368,1,0,0,2.2745,Obsidian_rect,5,2.274,1,7,0,7,0,1,,,,,,,,,,,,,
6400f8f41e203f131c68b79f,SCR,2024-06-21_10h47.30.109,LearnStrategy,2023.2.3,MacIntel,59.52380952,3,1,9,0.239960937,0.247647569,1,0,0,2.3683,Basalt_05,2,05,5,6,2.368,7,15,0.374939236,-0.235134549,1,0,0,3.5091,Gabbro_rect,4,3.509,0,8,0,8,0,1,,,,,,,,,,,,,
6400f8f41e203f131c68b79f,SCR,2024-06-21_10h47.30.109,LearnStrategy,2023.2.3,MacIntel,59.52380952,3,1,10,-0.222413194,-0.410577257,1,0,0,2.7313,Pumice_04,8,04,1,3,2.731,2,05,-0.149144965,-0.250664063,1,0,0,2.8302,Basalt_rect,2,2.83,0,9,0,9,0,1,,,,,,,,,,,,,
6400f8f41e203f131c68b79f,SCR,2024-06-21_10h47.30.109,LearnStrategy,2023.2.3,MacIntel,59.52380952,3,1,11,0.251905382,-0.383233507,1,0,0,2.0136,Peridotite_04,7,04,1,6,2.014,5,11,0.344539931,-0.239131944,1,0,0,3.3746,Gabbro_rect,4,3.375,0,10,0,10,0,1,,,,,,,,,,,,,
6400f8f41e203f131c68b79f,SCR,2024-06-21_10h47.30.109,LearnStrategy,2023.2.3,MacIntel,59.52380952,3,1,12,0.092278646,0.369262153,1,0,0,4.2303,Gabbro_01,4,01,6,5,4.23,6,05,0.085108507,-0.411132813,1,0,0,29.8808,Peridotite_rect,7,29.881,0,11,0,11,0,1,,,,,,,,,,,,,
6400f8f41e203f131c68b79f,SCR,2024-06-21_10h47.30.109,LearnStrategy,2023.2.3,MacIntel,59.52380952,3,1,13,-0.06328125,-0.13094184,1,0,0,1.7972,Basalt_04,2,04,3,4,1.797,3,10,0.357795139,-0.243181424,1,0,0,2.9424,Gabbro_rect,4,2.942,0,12,0,12,0,1,,,,,,,,,,,,,
6400f8f41e203f131c68b79f,SCR,2024-06-21_10h47.30.109,LearnStrategy,2023.2.3,MacIntel,59.52380952,3,1,14,0.228342014,-0.093198785,1,0,0,1.9633,Basalt_08,2,08,3,6,1.963,8,04,-0.06640191,-0.2465625,1,0,0,1.0426,Basalt_rect,2,1.043,1,13,0,13,0,1,,,,,,,,,,,,,
6400f8f41e203f131c68b79f,SCR,2024-06-21_10h47.30.109,LearnStrategy,2023.2.3,MacIntel,59.52380952,3,1,15,-0.53875434,-0.092699653,1,0,0,4.0646,Andesite_03,1,03,3,1,4.065,8,02,-0.428546007,-0.251059028,1,0,0,2.4977,Andesite_rect,1,2.498,1,14,0,14,0,1,,,,,,,,,,,,,
6400f8f41e203f131c68b79f,SCR,2024-06-21_10h47.30.109,LearnStrategy,2023.2.3,MacIntel,59.52380952,3,1,16,-0.532252604,-0.432690972,1,0,0,3.598,Basalt_11,2,11,1,1,3.598,4,09,-0.41984809,-0.263003472,1,0,0,0.996,Andesite_rect,1,0.996,0,15,0,15,0,1,,,,,,,,,,,,,
6400f8f41e203f131c68b79f,SCR,2024-06-21_10h47.30.109,LearnStrategy,2023.2.3,MacIntel,59.52380952,3,2,1,,,,,,,,4,05,,,,,,,,,,,,,2,3.857,0,,,,,,-0.120177951,-0.23453559,1,0,0,3.8572,Basalt_rect,0,0,0,0,1,
6400f8f41e203f131c68b79f,SCR,2024-06-21_10h47.30.109,LearnStrategy,2023.2.3,MacIntel,59.52380952,3,2,2,,,,,,,,3,08,,,,,,,,,,,,,2,3.191,0,,,,,,-0.120177951,-0.23453559,1,0,0,3.1908,Basalt_rect,1,0,1,0,1,
6400f8f41e203f131c68b79f,SCR,2024-06-21_10h47.30.109,LearnStrategy,2023.2.3,MacIntel,59.52380952,3,2,3,,,,,,,,3,15,,,,,,,,,,,,,8,2.316,0,,,,,,0.309769965,-0.386597222,1,0,0,2.3158,Pumice_rect,2,0,2,0,1,
6400f8f41e203f131c68b79f,SCR,2024-06-21_10h47.30.109,LearnStrategy,2023.2.3,MacIntel,59.52380952,3,2,4,,,,,,,,5,09,,,,,,,,,,,,,5,1.323,1,,,,,,-0.436137153,-0.397829861,1,0,0,1.3232,Obsidian_rect,3,0,3,0,1,
6400f8f41e203f131c68b79f,SCR,2024-06-21_10h47.30.109,LearnStrategy,2023.2.3,MacIntel,59.52380952,3,2,5,,,,,,,,4,13,,,,,,,,,,,,,4,2.973,1,,,,,,0.327287326,-0.262521701,1,0,0,2.9732,Gabbro_rect,4,0,4,0,1,
6400f8f41e203f131c68b79f,SCR,2024-06-21_10h47.30.109,LearnStrategy,2023.2.3,MacIntel,59.52380952,3,2,6,,,,,,,,7,12,,,,,,,,,,,,,1,4.015,0,,,,,,-0.329231771,-0.269027778,1,0,0,4.0155,Andesite_rect,5,0,5,0,1,
6400f8f41e203f131c68b79f,SCR,2024-06-21_10h47.30.109,LearnStrategy,2023.2.3,MacIntel,59.52380952,3,2,7,,,,,,,,8,14,,,,,,,,,,,,,8,3.266,1,,,,,,0.429635417,-0.385577257,1,0,0,3.2657,Pumice_rect,6,0,6,0,1,
6400f8f41e203f131c68b79f,SCR,2024-06-21_10h47.30.109,LearnStrategy,2023.2.3,MacIntel,59.52380952,3,2,8,,,,,,,,7,07,,,,,,,,,,,,,6,2.515,0,,,,,,-0.087907986,-0.407135417,1,0,0,2.515,Pegmatite_rect,7,0,7,0,1,
6400f8f41e203f131c68b79f,SCR,2024-06-21_10h47.30.109,LearnStrategy,2023.2.3,MacIntel,59.52380952,3,2,9,,,,,,,,1,10,,,,,,,,,,,,,3,1.623,0,,,,,,0.125529514,-0.264036458,1,0,0,1.6232,Diorite_rect,8,0,8,0,1,
6400f8f41e203f131c68b79f,SCR,2024-06-21_10h47.30.109,LearnStrategy,2023.2.3,MacIntel,59.52380952,3,2,10,,,,,,,,8,13,,,,,,,,,,,,,7,4.273,0,,,,,,0.101519097,-0.410907118,1,0,0,4.2733,Peridotite_rect,9,0,9,0,1,
6400f8f41e203f131c68b79f,SCR,2024-06-21_10h47.30.109,LearnStrategy,2023.2.3,MacIntel,59.52380952,3,2,11,,,,,,,,1,16,,,,,,,,,,,,,6,2.04,0,,,,,,-0.035750868,-0.403038194,1,0,0,2.0404,Pegmatite_rect,10,0,10,0,1,
6400f8f41e203f131c68b79f,SCR,2024-06-21_10h47.30.109,LearnStrategy,2023.2.3,MacIntel,59.52380952,3,2,12,,,,,,,,5,04,,,,,,,,,,,,,5,1.207,1,,,,,,-0.402556424,-0.380060764,1,0,0,1.207,Obsidian_rect,11,0,11,0,1,
6400f8f41e203f131c68b79f,SCR,2024-06-21_10h47.30.109,LearnStrategy,2023.2.3,MacIntel,59.52380952,3,2,13,,,,,,,,2,10,,,,,,,,,,,,,3,3.94,0,,,,,,0.123168403,-0.230733507,1,0,0,3.9401,Diorite_rect,12,0,12,0,1,
6400f8f41e203f131c68b79f,SCR,2024-06-21_10h47.30.109,LearnStrategy,2023.2.3,MacIntel,59.52380952,3,2,14,,,,,,,,6,08,,,,,,,,,,,,,7,3.758,0,,,,,,0.10469184,-0.40844184,1,0,0,3.7582,Peridotite_rect,13,0,13,0,1,
6400f8f41e203f131c68b79f,SCR,2024-06-21_10h47.30.109,LearnStrategy,2023.2.3,MacIntel,59.52380952,3,2,15,,,,,,,,6,07,,,,,,,,,,,,,7,2.857,0,,,,,,0.149171007,-0.393342014,1,0,0,2.8572,Peridotite_rect,14,0,14,0,1,
6400f8f41e203f131c68b79f,SCR,2024-06-21_10h47.30.109,LearnStrategy,2023.2.3,MacIntel,59.52380952,3,2,16,,,,,,,,2,12,,,,,,,,,,,,,1,3.165,0,,,,,,-0.297109375,-0.266523438,1,0,0,3.1653,Andesite_rect,15,0,15,0,1,
6400f8f41e203f131c68b79f,SCR,2024-06-21_10h47.30.109,LearnStrategy,2023.2.3,MacIntel,59.52380952,4,1,1,0.112782118,-0.240967882,1,0,0,6.5642,Andesite_14,1,14,2,5,6.564,2,08,-0.320108507,-0.256384549,1,0,0,11.3139,Andesite_rect,1,11.314,1,0,0,0,0,1,,,,,,,,,,,,,
6400f8f41e203f131c68b79f,SCR,2024-06-21_10h47.30.109,LearnStrategy,2023.2.3,MacIntel,59.52380952,4,1,2,0.028624132,-0.077387153,1,0,0,0.8304,Gabbro_03,4,03,3,5,0.83,7,10,0.066497396,-0.235542535,1,0,0,1.3402,Diorite_rect,3,1.34,0,1,0,1,0,1,,,,,,,,,,,,,
6400f8f41e203f131c68b79f,SCR,2024-06-21_10h47.30.109,LearnStrategy,2023.2.3,MacIntel,59.52380952,4,1,3,-0.068090278,-0.0728125,1,0,0,0.7806,Basalt_04,2,04,3,4,0.781,1,14,-0.384583333,-0.239405382,1,0,0,1.0735,Andesite_rect,1,1.074,0,2,0,2,0,1,,,,,,,,,,,,,
6400f8f41e203f131c68b79f,SCR,2024-06-21_10h47.30.109,LearnStrategy,2023.2.3,MacIntel,59.52380952,4,1,4,0.230017361,-0.105611979,1,0,0,1.1478,Basalt_08,2,08,3,6,1.148,6,03,-0.107799479,-0.244270833,1,0,0,0.8254,Basalt_rect,2,0.825,1,3,0,3,0,1,,,,,,,,,,,,,
6400f8f41e203f131c68b79f,SCR,2024-06-21_10h47.30.109,LearnStrategy,2023.2.3,MacIntel,59.52380952,4,1,5,0.252708333,0.232899306,1,0,0,1.2981,Basalt_05,2,05,5,6,1.298,8,06,-0.149036458,-0.251019965,1,0,0,0.9914,Basalt_rect,2,0.991,1,4,0,4,0,1,,,,,,,,,,,,,
6400f8f41e203f131c68b79f,SCR,2024-06-21_10h47.30.109,LearnStrategy,2023.2.3,MacIntel,59.52380952,4,1,6,-0.072734375,0.2259375,1,0,0,1.515,Diorite_07,3,07,5,4,1.515,3,12,-0.109800347,-0.418090278,1,0,0,2.3897,Pegmatite_rect,6,2.39,0,5,0,5,0,1,,,,,,,,,,,,,
6400f8f41e203f131c68b79f,SCR,2024-06-21_10h47.30.109,LearnStrategy,2023.2.3,MacIntel,59.52380952,4,1,7,-0.103350694,-0.404513889,1,0,0,3.1133,Pegmatite_03,6,03,1,4,3.113,2,11,-0.3478125,-0.403828125,1,0,0,2.2426,Obsidian_rect,5,2.243,0,6,0,6,0,1,,,,,,,,,,,,,
6400f8f41e203f131c68b79f,SCR,2024-06-21_10h47.30.109,LearnStrategy,2023.2.3,MacIntel,59.52380952,4,1,8,-0.073302951,-0.27141059,1,0,0,1.9495,Pegmatite_11,6,11,2,4,1.95,6,03,-0.062903646,-0.411974826,1,0,0,1.2073,Pegmatite_rect,6,1.207,1,7,0,7,0,1,,,,,,,,,,,,,
6400f8f41e203f131c68b79f,SCR,2024-06-21_10h47.30.109,LearnStrategy,2023.2.3,MacIntel,59.52380952,4,1,9,0.43249566,-0.421684028,1,0,0,2.7809,Obsidian_08,5,08,1,7,2.781,4,08,-0.078007812,-0.394878472,1,0,0,1.891,Pegmatite_rect,6,1.891,0,8,0,8,0,1,,,,,,,,,,,,,
6400f8f41e203f131c68b79f,SCR,2024-06-21_10h47.30.109,LearnStrategy,2023.2.3,MacIntel,59.52380952,4,1,10,-0.518993056,0.125993924,1,0,0,1.8151,Obsidian_12,5,12,4,1,1.815,8,02,-0.346857639,-0.396024306,1,0,0,1.274,Obsidian_rect,5,1.274,1,9,0,9,0,1,,,,,,,,,,,,,
6400f8f41e203f131c68b79f,SCR,2024-06-21_10h47.30.109,LearnStrategy,2023.2.3,MacIntel,59.52380952,4,1,11,-0.23172309,0.136106771,1,0,0,1.748,Obsidian_10,5,10,4,3,1.748,3,06,-0.11594184,-0.411888021,1,0,0,1.5758,Pegmatite_rect,6,1.576,0,10,0,10,0,1,,,,,,,,,,,,,
6400f8f41e203f131c68b79f,SCR,2024-06-21_10h47.30.109,LearnStrategy,2023.2.3,MacIntel,59.52380952,4,1,12,-0.122309028,0.26874566,1,0,0,2.0482,Diorite_07,3,07,5,4,2.048,1,06,0.127595486,-0.415894097,1,0,0,1.6406,Peridotite_rect,7,1.641,0,11,0,11,0,1,,,,,,,,,,,,,
6400f8f41e203f131c68b79f,SCR,2024-06-21_10h47.30.109,LearnStrategy,2023.2.3,MacIntel,59.52380952,4,1,13,-0.263381076,0.374422743,1,0,0,1.6816,Pegmatite_16,6,16,6,3,1.682,7,15,-0.22453125,-0.39499566,1,0,0,1.9088,Pegmatite_rect,6,1.909,1,12,0,12,0,1,,,,,,,,,,,,,
6400f8f41e203f131c68b79f,SCR,2024-06-21_10h47.30.109,LearnStrategy,2023.2.3,MacIntel,59.52380952,4,1,14,0.258611111,-0.425976562,1,0,0,2.198,Peridotite_04,7,04,1,6,2.198,1,06,0.085559896,-0.398836806,1,0,0,1.7742,Peridotite_rect,7,1.774,1,13,0,13,0,1,,,,,,,,,,,,,
6400f8f41e203f131c68b79f,SCR,2024-06-21_10h47.30.109,LearnStrategy,2023.2.3,MacIntel,59.52380952,4,1,15,-0.533450521,-0.306384549,1,0,0,2.931,Peridotite_08,7,08,2,1,2.931,4,03,-0.059774306,-0.382326389,1,0,0,3.2154,Pegmatite_rect,6,3.215,0,14,0,14,0,1,,,,,,,,,,,,,
6400f8f41e203f131c68b79f,SCR,2024-06-21_10h47.30.109,LearnStrategy,2023.2.3,MacIntel,59.52380952,4,1,16,-0.225837674,0.225347222,1,0,0,1.4971,Diorite_12,3,12,5,3,1.497,7,08,-0.152052951,-0.254153646,1,0,0,2.2742,Basalt_rect,2,2.274,0,15,0,15,0,1,,,,,,,,,,,,,
6400f8f41e203f131c68b79f,SCR,2024-06-21_10h47.30.109,LearnStrategy,2023.2.3,MacIntel,59.52380952,4,2,1,,,,,,,,5,09,,,,,,,,,,,,,5,2.09,1,,,,,,-0.328333333,-0.392374132,1,0,0,2.0898,Obsidian_rect,0,0,0,0,1,
6400f8f41e203f131c68b79f,SCR,2024-06-21_10h47.30.109,LearnStrategy,2023.2.3,MacIntel,59.52380952,4,2,2,,,,,,,,2,14,,,,,,,,,,,,,4,5.481,0,,,,,,0.423832465,-0.234700521,1,0,0,5.4809,Gabbro_rect,1,0,1,0,1,
6400f8f41e203f131c68b79f,SCR,2024-06-21_10h47.30.109,LearnStrategy,2023.2.3,MacIntel,59.52380952,4,2,3,,,,,,,,2,12,,,,,,,,,,,,,7,1.848,0,,,,,,0.101644965,-0.407725694,1,0,0,1.8484,Peridotite_rect,2,0,2,0,1,
6400f8f41e203f131c68b79f,SCR,2024-06-21_10h47.30.109,LearnStrategy,2023.2.3,MacIntel,59.52380952,4,2,4,,,,,,,,6,12,,,,,,,,,,,,,2,1.741,0,,,,,,-0.055091146,-0.241323785,1,0,0,1.7414,Basalt_rect,3,0,3,0,1,
6400f8f41e203f131c68b79f,SCR,2024-06-21_10h47.30.109,LearnStrategy,2023.2.3,MacIntel,59.52380952,4,2,5,,,,,,,,1,01,,,,,,,,,,,,,3,1.107,0,,,,,,0.066019965,-0.26093316,1,0,0,1.107,Diorite_rect,4,0,4,0,1,
6400f8f41e203f131c68b79f,SCR,2024-06-21_10h47.30.109,LearnStrategy,2023.2.3,MacIntel,59.52380952,4,2,6,,,,,,,,3,08,,,,,,,,,,,,,7,2.123,0,,,,,,0.088697917,-0.388563368,1,0,0,2.1233,Peridotite_rect,5,0,5,0,1,
6400f8f41e203f131c68b79f,SCR,2024-06-21_10h47.30.109,LearnStrategy,2023.2.3,MacIntel,59.52380952,4,2,7,,,,,,,,8,08,,,,,,,,,,,,,1,1.773,0,,,,,,-0.469835069,-0.234787326,1,0,0,1.7733,Andesite_rect,6,0,6,0,1,
6400f8f41e203f131c68b79f,SCR,2024-06-21_10h47.30.109,LearnStrategy,2023.2.3,MacIntel,59.52380952,4,2,8,,,,,,,,7,14,,,,,,,,,,,,,6,2.057,0,,,,,,-0.054127604,-0.413007813,1,0,0,2.0569,Pegmatite_rect,7,0,7,0,1,
6400f8f41e203f131c68b79f,SCR,2024-06-21_10h47.30.109,LearnStrategy,2023.2.3,MacIntel,59.52380952,4,2,9,,,,,,,,7,16,,,,,,,,,,,,,4,1.766,0,,,,,,0.306688368,-0.263962674,1,0,0,1.7657,Gabbro_rect,8,0,8,0,1,
6400f8f41e203f131c68b79f,SCR,2024-06-21_10h47.30.109,LearnStrategy,2023.2.3,MacIntel,59.52380952,4,2,10,,,,,,,,3,11,,,,,,,,,,,,,8,1.124,0,,,,,,0.329422743,-0.405742188,1,0,0,1.1238,Pumice_rect,9,0,9,0,1,
6400f8f41e203f131c68b79f,SCR,2024-06-21_10h47.30.109,LearnStrategy,2023.2.3,MacIntel,59.52380952,4,2,11,,,,,,,,4,10,,,,,,,,,,,,,2,1.241,0,,,,,,-0.110295139,-0.242526042,1,0,0,1.2406,Basalt_rect,10,0,10,0,1,
6400f8f41e203f131c68b79f,SCR,2024-06-21_10h47.30.109,LearnStrategy,2023.2.3,MacIntel,59.52380952,4,2,12,,,,,,,,4,05,,,,,,,,,,,,,3,1.707,0,,,,,,0.033198785,-0.249934896,1,0,0,1.7066,Diorite_rect,11,0,11,0,1,
6400f8f41e203f131c68b79f,SCR,2024-06-21_10h47.30.109,LearnStrategy,2023.2.3,MacIntel,59.52380952,4,2,13,,,,,,,,8,09,,,,,,,,,,,,,1,1.258,0,,,,,,-0.428046875,-0.249835069,1,0,0,1.2584,Andesite_rect,12,0,12,0,1,
6400f8f41e203f131c68b79f,SCR,2024-06-21_10h47.30.109,LearnStrategy,2023.2.3,MacIntel,59.52380952,4,2,14,,,,,,,,6,13,,,,,,,,,,,,,7,1.257,0,,,,,,0.04640191,-0.38858941,1,0,0,1.2568,Peridotite_rect,13,0,13,0,1,
6400f8f41e203f131c68b79f,SCR,2024-06-21_10h47.30.109,LearnStrategy,2023.2.3,MacIntel,59.52380952,4,2,15,,,,,,,,1,09,,,,,,,,,,,,,1,1.507,1,,,,,,-0.392391493,-0.254166667,1,0,0,1.5066,Andesite_rect,14,0,14,0,1,
6400f8f41e203f131c68b79f,SCR,2024-06-21_10h47.30.109,LearnStrategy,2023.2.3,MacIntel,59.52380952,4,2,16,,,,,,,,5,14,,,,,,,,,,,,,5,1.458,1,,,,,,-0.361015625,-0.378936632,1,0,0,1.4584,Obsidian_rect,15,0,15,0,1,
6400f8f41e203f131c68b79f,SCR,2024-06-21_10h47.30.109,LearnStrategy,2023.2.3,MacIntel,59.52380952,5,1,1,0.082530382,-0.070664062,1,0,0,1.0811,Gabbro_03,4,03,3,5,1.081,7,04,0.093897569,-0.2571875,1,0,0,1.3575,Diorite_rect,3,1.357,0,0,0,0,0,1,,,,,,,,,,,,,
6400f8f41e203f131c68b79f,SCR,2024-06-21_10h47.30.109,LearnStrategy,2023.2.3,MacIntel,59.52380952,5,1,2,0.226119792,0.080646701,1,0,0,1.5985,Andesite_07,1,07,4,6,1.599,8,06,0.354448785,-0.256067708,1,0,0,0.9099,Gabbro_rect,4,0.91,0,1,0,1,0,1,,,,,,,,,,,,,
6400f8f41e203f131c68b79f,SCR,2024-06-21_10h47.30.109,LearnStrategy,2023.2.3,MacIntel,59.52380952,5,1,3,-0.196362847,0.241788194,1,0,0,1.966,Diorite_12,3,12,5,3,1.966,1,05,-0.108684896,-0.248715278,1,0,0,1.9904,Basalt_rect,2,1.99,0,2,0,2,0,1,,,,,,,,,,,,,
6400f8f41e203f131c68b79f,SCR,2024-06-21_10h47.30.109,LearnStrategy,2023.2.3,MacIntel,59.52380952,5,1,4,0.062556424,0.260946181,1,0,0,3.031,Obsidian_06,5,06,5,5,3.031,7,08,-0.358072917,-0.37827691,1,0,0,16.5919,Obsidian_rect,5,16.592,1,3,0,3,0,1,,,,,,,,,,,,,
6400f8f41e203f131c68b79f,SCR,2024-06-21_10h47.30.109,LearnStrategy,2023.2.3,MacIntel,59.52380952,5,1,5,-0.390499132,0.374548611,1,0,0,2.8792,Andesite_06,1,06,6,2,2.879,3,13,-0.34828559,-0.263038194,1,0,0,3.6313,Andesite_rect,1,3.631,1,4,0,4,0,1,,,,,,,,,,,,,
6400f8f41e203f131c68b79f,SCR,2024-06-21_10h47.30.109,LearnStrategy,2023.2.3,MacIntel,59.52380952,5,1,6,0.581145833,-0.434188368,1,0,0,1.5967,Andesite_11,1,11,1,8,1.597,8,16,-0.343289931,-0.251640625,1,0,0,1.4584,Andesite_rect,1,1.458,1,5,0,5,0,1,,,,,,,,,,,,,
6400f8f41e203f131c68b79f,SCR,2024-06-21_10h47.30.109,LearnStrategy,2023.2.3,MacIntel,59.52380952,5,1,7,0.20077691,0.075247396,1,0,0,1.1661,Andesite_07,1,07,4,6,1.166,2,11,-0.36453559,-0.245616319,1,0,0,0.9737,Andesite_rect,1,0.974,1,6,0,6,0,1,,,,,,,,,,,,,
6400f8f41e203f131c68b79f,SCR,2024-06-21_10h47.30.109,LearnStrategy,2023.2.3,MacIntel,59.52380952,5,1,8,-0.543559028,-0.444262153,1,0,0,1.565,Basalt_11,2,11,1,1,1.565,6,11,-0.480846354,-0.251219618,1,0,0,0.8254,Andesite_rect,1,0.825,0,7,0,7,0,1,,,,,,,,,,,,,
6400f8f41e203f131c68b79f,SCR,2024-06-21_10h47.30.109,LearnStrategy,2023.2.3,MacIntel,59.52380952,5,1,9,-0.069592014,-0.109496528,1,0,0,1.3151,Basalt_04,2,04,3,4,1.315,2,05,-0.37953559,-0.270017361,1,0,0,0.9096,Andesite_rect,1,0.91,0,8,0,8,0,1,,,,,,,,,,,,,
6400f8f41e203f131c68b79f,SCR,2024-06-21_10h47.30.109,LearnStrategy,2023.2.3,MacIntel,59.52380952,5,1,10,0.208355035,-0.076510417,1,0,0,1.7815,Basalt_08,2,08,3,6,1.782,7,08,-0.059162326,-0.259913194,1,0,0,0.8742,Basalt_rect,2,0.874,1,9,0,9,0,1,,,,,,,,,,,,,
6400f8f41e203f131c68b79f,SCR,2024-06-21_10h47.30.109,LearnStrategy,2023.2.3,MacIntel,59.52380952,5,1,11,-0.351679688,0.235039063,1,0,0,3.514,Diorite_09,3,09,5,2,3.514,4,03,-0.163567708,-0.412703993,1,0,0,1.5821,Pegmatite_rect,6,1.582,0,10,0,10,0,1,,,,,,,,,,,,,
6400f8f41e203f131c68b79f,SCR,2024-06-21_10h47.30.109,LearnStrategy,2023.2.3,MacIntel,59.52380952,5,1,12,0.198880208,0.050065104,1,0,0,1.2977,Andesite_07,1,07,4,6,1.298,4,14,0.153654514,-0.248394097,1,0,0,1.7254,Diorite_rect,3,1.725,0,11,0,11,0,1,,,,,,,,,,,,,
6400f8f41e203f131c68b79f,SCR,2024-06-21_10h47.30.109,LearnStrategy,2023.2.3,MacIntel,59.52380952,5,1,13,-0.379700521,-0.258914931,1,0,0,1.9642,Peridotite_05,7,05,2,2,1.964,3,07,0.091896701,-0.254600694,1,0,0,1.2597,Diorite_rect,3,1.26,0,12,0,12,0,1,,,,,,,,,,,,,
6400f8f41e203f131c68b79f,SCR,2024-06-21_10h47.30.109,LearnStrategy,2023.2.3,MacIntel,59.52380952,5,1,14,0.5809375,-0.420924479,1,0,0,1.3978,Andesite_11,1,11,1,8,1.398,2,11,-0.350039062,-0.246584201,1,0,0,1.626,Andesite_rect,1,1.626,1,13,0,13,0,1,,,,,,,,,,,,,
6400f8f41e203f131c68b79f,SCR,2024-06-21_10h47.30.109,LearnStrategy,2023.2.3,MacIntel,59.52380952,5,1,15,-0.198038194,0.255373264,1,0,0,0.9487,Diorite_12,3,12,5,3,0.949,1,11,-0.141831597,-0.256315104,1,0,0,1.7588,Basalt_rect,2,1.759,0,14,0,14,0,1,,,,,,,,,,,,,
6400f8f41e203f131c68b79f,SCR,2024-06-21_10h47.30.109,LearnStrategy,2023.2.3,MacIntel,59.52380952,5,1,16,-0.341549479,0.388033854,1,0,0,2.7155,Andesite_06,1,06,6,2,2.716,6,03,0.131974826,-0.238541667,1,0,0,5.5566,Diorite_rect,3,5.557,0,15,0,15,0,1,,,,,,,,,,,,,
6400f8f41e203f131c68b79f,SCR,2024-06-21_10h47.30.109,LearnStrategy,2023.2.3,MacIntel,59.52380952,5,2,1,,,,,,,,3,02,,,,,,,,,,,,,3,6.141,1,,,,,,0.025368924,-0.252126736,1,0,0,6.141,Diorite_rect,0,0,0,0,1,
6400f8f41e203f131c68b79f,SCR,2024-06-21_10h47.30.109,LearnStrategy,2023.2.3,MacIntel,59.52380952,5,2,2,,,,,,,,6,10,,,,,,,,,,,,,7,4.049,0,,,,,,0.071814236,-0.390507812,1,0,0,4.0489,Peridotite_rect,1,0,1,0,1,
6400f8f41e203f131c68b79f,SCR,2024-06-21_10h47.30.109,LearnStrategy,2023.2.3,MacIntel,59.52380952,5,2,3,,,,,,,,3,16,,,,,,,,,,,,,6,1.465,0,,,,,,-0.110386285,-0.399626736,1,0,0,1.4654,Pegmatite_rect,2,0,2,0,1,
6400f8f41e203f131c68b79f,SCR,2024-06-21_10h47.30.109,LearnStrategy,2023.2.3,MacIntel,59.52380952,5,2,4,,,,,,,,5,02,,,,,,,,,,,,,5,1.557,1,,,,,,-0.377569444,-0.400868056,1,0,0,1.5569,Obsidian_rect,3,0,3,0,1,
6400f8f41e203f131c68b79f,SCR,2024-06-21_10h47.30.109,LearnStrategy,2023.2.3,MacIntel,59.52380952,5,2,5,,,,,,,,7,06,,,,,,,,,,,,,3,3.306,0,,,,,,0.074014757,-0.248125,1,0,0,3.3062,Diorite_rect,4,0,4,0,1,
6400f8f41e203f131c68b79f,SCR,2024-06-21_10h47.30.109,LearnStrategy,2023.2.3,MacIntel,59.52380952,5,2,6,,,,,,,,4,13,,,,,,,,,,,,,6,2.73,0,,,,,,-0.151371528,-0.41124566,1,0,0,2.7298,Pegmatite_rect,5,0,5,0,1,
6400f8f41e203f131c68b79f,SCR,2024-06-21_10h47.30.109,LearnStrategy,2023.2.3,MacIntel,59.52380952,5,2,7,,,,,,,,2,02,,,,,,,,,,,,,1,1.264,0,,,,,,-0.326853299,-0.264552951,1,0,0,1.2642,Andesite_rect,6,0,6,0,1,
6400f8f41e203f131c68b79f,SCR,2024-06-21_10h47.30.109,LearnStrategy,2023.2.3,MacIntel,59.52380952,5,2,8,,,,,,,,8,14,,,,,,,,,,,,,3,1.541,0,,,,,,0.153689236,-0.242200521,1,0,0,1.5408,Diorite_rect,7,0,7,0,1,
6400f8f41e203f131c68b79f,SCR,2024-06-21_10h47.30.109,LearnStrategy,2023.2.3,MacIntel,59.52380952,5,2,9,,,,,,,,5,04,,,,,,,,,,,,,5,1.223,1,,,,,,-0.320082465,-0.391002604,1,0,0,1.2227,Obsidian_rect,8,0,8,0,1,
6400f8f41e203f131c68b79f,SCR,2024-06-21_10h47.30.109,LearnStrategy,2023.2.3,MacIntel,59.52380952,5,2,10,,,,,,,,7,07,,,,,,,,,,,,,8,1.258,0,,,,,,0.366727431,-0.418836806,1,0,0,1.2584,Pumice_rect,9,0,9,0,1,
6400f8f41e203f131c68b79f,SCR,2024-06-21_10h47.30.109,LearnStrategy,2023.2.3,MacIntel,59.52380952,5,2,11,,,,,,,,1,04,,,,,,,,,,,,,4,0.974,0,,,,,,0.373832465,-0.260789931,1,0,0,0.9737,Gabbro_rect,10,0,10,0,1,
6400f8f41e203f131c68b79f,SCR,2024-06-21_10h47.30.109,LearnStrategy,2023.2.3,MacIntel,59.52380952,5,2,12,,,,,,,,4,11,,,,,,,,,,,,,3,1.273,0,,,,,,0.051310764,-0.259240451,1,0,0,1.2731,Diorite_rect,11,0,11,0,1,
6400f8f41e203f131c68b79f,SCR,2024-06-21_10h47.30.109,LearnStrategy,2023.2.3,MacIntel,59.52380952,5,2,13,,,,,,,,6,15,,,,,,,,,,,,,7,1.59,0,,,,,,0.037977431,-0.412517361,1,0,0,1.5903,Peridotite_rect,12,0,12,0,1,
6400f8f41e203f131c68b79f,SCR,2024-06-21_10h47.30.109,LearnStrategy,2023.2.3,MacIntel,59.52380952,5,2,14,,,,,,,,2,10,,,,,,,,,,,,,6,1.974,0,,,,,,-0.169635417,-0.393025174,1,0,0,1.9742,Pegmatite_rect,13,0,13,0,1,
6400f8f41e203f131c68b79f,SCR,2024-06-21_10h47.30.109,LearnStrategy,2023.2.3,MacIntel,59.52380952,5,2,15,,,,,,,,8,05,,,,,,,,,,,,,2,2.424,0,,,,,,-0.144639757,-0.268697917,1,0,0,2.4239,Basalt_rect,14,0,14,0,1,
6400f8f41e203f131c68b79f,SCR,2024-06-21_10h47.30.109,LearnStrategy,2023.2.3,MacIntel,59.52380952,5,2,16,,,,,,,,1,10,,,,,,,,,,,,,6,1.265,0,,,,,,-0.120798611,-0.382417535,1,0,0,1.2652,Pegmatite_rect,15,0,15,0,1,
6400f8f41e203f131c68b79f,SCR,2024-06-21_10h47.30.109,LearnStrategy,2023.2.3,MacIntel,59.52380952,6,1,1,0.355451389,0.39703559,1,0,0,62.4673,Peridotite_15,7,15,6,7,62.467,6,03,0.080516493,-0.260065104,1,0,0,1.7962,Diorite_rect,3,1.796,0,0,0,0,0,1,,,,,,,,,,,,,
6400f8f41e203f131c68b79f,SCR,2024-06-21_10h47.30.109,LearnStrategy,2023.2.3,MacIntel,59.52380952,6,1,2,-0.066067708,-0.274557292,1,0,0,2.6813,Pegmatite_11,6,11,2,4,2.681,6,09,0.083064236,-0.408546007,1,0,0,1.5817,Peridotite_rect,7,1.582,0,1,0,1,0,1,,,,,,,,,,,,,
6400f8f41e203f131c68b79f,SCR,2024-06-21_10h47.30.109,LearnStrategy,2023.2.3,MacIntel,59.52380952,6,1,3,-0.186193576,-0.102421875,1,0,0,1.4807,Diorite_06,3,06,3,3,1.481,8,10,-0.182239583,-0.253628472,1,0,0,1.3415,Basalt_rect,2,1.341,0,2,0,2,0,1,,,,,,,,,,,,,
6400f8f41e203f131c68b79f,SCR,2024-06-21_10h47.30.109,LearnStrategy,2023.2.3,MacIntel,59.52380952,6,1,4,0.046236979,0.240264757,1,0,0,2.6658,Obsidian_06,5,06,5,5,2.666,3,09,-0.40671441,-0.419674479,1,0,0,1.6569,Obsidian_rect,5,1.657,1,3,0,3,0,1,,,,,,,,,,,,,
6400f8f41e203f131c68b79f,SCR,2024-06-21_10h47.30.109,LearnStrategy,2023.2.3,MacIntel,59.52380952,6,1,5,-0.091358507,-0.387148437,1,0,0,0.9479,Pegmatite_03,6,03,1,4,0.948,3,13,-0.064539931,-0.42000434,1,0,0,1.3747,Pegmatite_rect,6,1.375,1,4,0,4,0,1,,,,,,,,,,,,,
6400f8f41e203f131c68b79f,SCR,2024-06-21_10h47.30.109,LearnStrategy,2023.2.3,MacIntel,59.52380952,6,1,6,-0.072777778,-0.287860243,1,0,0,2.3975,Pegmatite_11,6,11,2,4,2.398,1,14,-0.06374566,-0.391488715,1,0,0,1.6426,Pegmatite_rect,6,1.643,1,5,0,5,0,1,,,,,,,,,,,,,
6400f8f41e203f131c68b79f,SCR,2024-06-21_10h47.30.109,LearnStrategy,2023.2.3,MacIntel,59.52380952,6,1,7,-0.377439236,0.280477431,1,0,0,3.3315,Diorite_09,3,09,5,2,3.332,1,06,-0.087413194,-0.384583333,1,0,0,1.8481,Pegmatite_rect,6,1.848,0,6,0,6,0,1,,,,,,,,,,,,,
6400f8f41e203f131c68b79f,SCR,2024-06-21_10h47.30.109,LearnStrategy,2023.2.3,MacIntel,59.52380952,6,1,8,0.032309028,-0.07953559,1,0,0,0.6317,Gabbro_03,4,03,3,5,0.632,2,05,-0.323125,-0.235277778,1,0,0,1.0593,Andesite_rect,1,1.059,0,7,0,7,0,1,,,,,,,,,,,,,
6400f8f41e203f131c68b79f,SCR,2024-06-21_10h47.30.109,LearnStrategy,2023.2.3,MacIntel,59.52380952,6,1,9,0.371649306,-0.429709201,1,0,0,1.1156,Obsidian_08,5,08,1,7,1.116,7,15,-0.307981771,-0.408250868,1,0,0,1.4416,Obsidian_rect,5,1.442,1,8,0,8,0,1,,,,,,,,,,,,,
6400f8f41e203f131c68b79f,SCR,2024-06-21_10h47.30.109,LearnStrategy,2023.2.3,MacIntel,59.52380952,6,1,10,-0.124657118,-0.090043403,1,0,0,1.4304,Basalt_04,2,04,3,4,1.43,7,05,-0.347508681,-0.248064236,1,0,0,0.8414,Andesite_rect,1,0.841,0,9,0,9,0,1,,,,,,,,,,,,,
6400f8f41e203f131c68b79f,SCR,2024-06-21_10h47.30.109,LearnStrategy,2023.2.3,MacIntel,59.52380952,6,1,11,0.217530382,-0.107243924,1,0,0,1.7134,Basalt_08,2,08,3,6,1.713,2,16,-0.132864583,-0.257304688,1,0,0,1.0912,Basalt_rect,2,1.091,1,10,0,10,0,1,,,,,,,,,,,,,
6400f8f41e203f131c68b79f,SCR,2024-06-21_10h47.30.109,LearnStrategy,2023.2.3,MacIntel,59.52380952,6,1,12,0.215989583,0.244592014,1,0,0,0.8304,Basalt_05,2,05,5,6,0.83,4,16,-0.079162326,-0.255381944,1,0,0,0.7741,Basalt_rect,2,0.774,1,11,0,11,0,1,,,,,,,,,,,,,
6400f8f41e203f131c68b79f,SCR,2024-06-21_10h47.30.109,LearnStrategy,2023.2.3,MacIntel,59.52380952,6,1,13,-0.426241319,0.415269097,1,0,0,3.7813,Andesite_06,1,06,6,2,3.781,6,11,-0.332543403,-0.252960069,1,0,0,4.9987,Andesite_rect,1,4.999,1,12,0,12,0,1,,,,,,,,,,,,,
6400f8f41e203f131c68b79f,SCR,2024-06-21_10h47.30.109,LearnStrategy,2023.2.3,MacIntel,59.52380952,6,1,14,0.520390625,-0.421840278,1,0,0,1.1498,Andesite_11,1,11,1,8,1.15,8,16,-0.381193576,-0.233940972,1,0,0,0.7904,Andesite_rect,1,0.79,1,13,0,13,0,1,,,,,,,,,,,,,
6400f8f41e203f131c68b79f,SCR,2024-06-21_10h47.30.109,LearnStrategy,2023.2.3,MacIntel,59.52380952,6,1,15,-0.586749132,-0.426901042,1,0,0,1.0987,Basalt_11,2,11,1,1,1.099,4,08,-0.375594618,-0.234344618,1,0,0,0.8089,Andesite_rect,1,0.809,0,14,0,14,0,1,,,,,,,,,,,,,
6400f8f41e203f131c68b79f,SCR,2024-06-21_10h47.30.109,LearnStrategy,2023.2.3,MacIntel,59.52380952,6,1,16,0.546289062,0.368836806,1,0,0,1.0144,Pumice_10,8,10,6,8,1.014,7,15,-0.227473958,-0.233272569,1,0,0,1.1239,Basalt_rect,2,1.124,0,15,0,15,0,1,,,,,,,,,,,,,
6400f8f41e203f131c68b79f,SCR,2024-06-21_10h47.30.109,LearnStrategy,2023.2.3,MacIntel,59.52380952,6,2,1,,,,,,,,8,13,,,,,,,,,,,,,8,6.04,1,,,,,,0.363984375,-0.379101562,1,0,0,6.0401,Pumice_rect,0,0,0,0,1,
6400f8f41e203f131c68b79f,SCR,2024-06-21_10h47.30.109,LearnStrategy,2023.2.3,MacIntel,59.52380952,6,2,2,,,,,,,,2,09,,,,,,,,,,,,,1,2.482,0,,,,,,-0.339084201,-0.252617188,1,0,0,2.4821,Andesite_rect,1,0,1,0,1,
6400f8f41e203f131c68b79f,SCR,2024-06-21_10h47.30.109,LearnStrategy,2023.2.3,MacIntel,59.52380952,6,2,3,,,,,,,,1,02,,,,,,,,,,,,,3,2.489,0,,,,,,0.135681424,-0.240980903,1,0,0,2.4893,Diorite_rect,2,0,2,0,1,
6400f8f41e203f131c68b79f,SCR,2024-06-21_10h47.30.109,LearnStrategy,2023.2.3,MacIntel,59.52380952,6,2,4,,,,,,,,2,06,,,,,,,,,,,,,2,1.532,1,,,,,,-0.07265625,-0.263849826,1,0,0,1.5318,Basalt_rect,3,0,3,0,1,
6400f8f41e203f131c68b79f,SCR,2024-06-21_10h47.30.109,LearnStrategy,2023.2.3,MacIntel,59.52380952,6,2,5,,,,,,,,7,13,,,,,,,,,,,,,4,1.54,0,,,,,,0.381697049,-0.261145833,1,0,0,1.5402,Gabbro_rect,4,0,4,0,1,
6400f8f41e203f131c68b79f,SCR,2024-06-21_10h47.30.109,LearnStrategy,2023.2.3,MacIntel,59.52380952,6,2,6,,,,,,,,4,12,,,,,,,,,,,,,6,1.507,0,,,,,,-0.060256076,-0.40343316,1,0,0,1.5074,Pegmatite_rect,5,0,5,0,1,
6400f8f41e203f131c68b79f,SCR,2024-06-21_10h47.30.109,LearnStrategy,2023.2.3,MacIntel,59.52380952,6,2,7,,,,,,,,1,16,,,,,,,,,,,,,7,1.073,0,,,,,,0.101271701,-0.38546875,1,0,0,1.0735,Peridotite_rect,6,0,6,0,1,
6400f8f41e203f131c68b79f,SCR,2024-06-21_10h47.30.109,LearnStrategy,2023.2.3,MacIntel,59.52380952,6,2,8,,,,,,,,5,05,,,,,,,,,,,,,5,1.174,1,,,,,,-0.386080729,-0.420104167,1,0,0,1.1738,Obsidian_rect,7,0,7,0,1,
6400f8f41e203f131c68b79f,SCR,2024-06-21_10h47.30.109,LearnStrategy,2023.2.3,MacIntel,59.52380952,6,2,9,,,,,,,,3,15,,,,,,,,,,,,,3,3.191,1,,,,,,0.088116319,-0.26327691,1,0,0,3.1905,Diorite_rect,8,0,8,0,1,
6400f8f41e203f131c68b79f,SCR,2024-06-21_10h47.30.109,LearnStrategy,2023.2.3,MacIntel,59.52380952,6,2,10,,,,,,,,6,08,,,,,,,,,,,,,7,1.64,0,,,,,,0.058333333,-0.408789063,1,0,0,1.6402,Peridotite_rect,9,0,9,0,1,
6400f8f41e203f131c68b79f,SCR,2024-06-21_10h47.30.109,LearnStrategy,2023.2.3,MacIntel,59.52380952,6,2,11,,,,,,,,8,03,,,,,,,,,,,,,1,1.957,0,,,,,,-0.368697917,-0.247829861,1,0,0,1.9568,Andesite_rect,10,0,10,0,1,
6400f8f41e203f131c68b79f,SCR,2024-06-21_10h47.30.109,LearnStrategy,2023.2.3,MacIntel,59.52380952,6,2,12,,,,,,,,7,12,,,,,,,,,,,,,6,1.298,0,,,,,,-0.110164931,-0.406440972,1,0,0,1.2978,Pegmatite_rect,11,0,11,0,1,
6400f8f41e203f131c68b79f,SCR,2024-06-21_10h47.30.109,LearnStrategy,2023.2.3,MacIntel,59.52380952,6,2,13,,,,,,,,5,16,,,,,,,,,,,,,5,1.057,1,,,,,,-0.343164062,-0.405520833,1,0,0,1.0572,Obsidian_rect,12,0,12,0,1,
6400f8f41e203f131c68b79f,SCR,2024-06-21_10h47.30.109,LearnStrategy,2023.2.3,MacIntel,59.52380952,6,2,14,,,,,,,,3,14,,,,,,,,,,,,,3,2.774,1,,,,,,0.050967882,-0.265047743,1,0,0,2.7736,Diorite_rect,13,0,13,0,1,
6400f8f41e203f131c68b79f,SCR,2024-06-21_10h47.30.109,LearnStrategy,2023.2.3,MacIntel,59.52380952,6,2,15,,,,,,,,6,07,,,,,,,,,,,,,6,1.782,1,,,,,,-0.068519965,-0.394600694,1,0,0,1.7815,Pegmatite_rect,14,0,14,0,1,
6400f8f41e203f131c68b79f,SCR,2024-06-21_10h47.30.109,LearnStrategy,2023.2.3,MacIntel,59.52380952,6,2,16,,,,,,,,4,15,,,,,,,,,,,,,7,1.156,0,,,,,,0.11030816,-0.399127604,1,0,0,1.1563,Peridotite_rect,15,0,15,0,1,
6400f8f41e203f131c68b79f,SCR,2024-06-21_10h47.30.109,LearnStrategy,2023.2.3,MacIntel,59.52380952,7,1,1,-0.092647569,0.242196181,1,0,0,3.348,Diorite_07,3,07,5,4,3.348,6,06,-0.117703993,-0.41406684,1,0,0,2.3478,Pegmatite_rect,6,2.348,0,0,0,0,0,1,,,,,,,,,,,,,
6400f8f41e203f131c68b79f,SCR,2024-06-21_10h47.30.109,LearnStrategy,2023.2.3,MacIntel,59.52380952,7,1,2,-0.233368056,0.243394097,1,0,0,1.2661,Diorite_12,3,12,5,3,1.266,7,04,0.066258681,-0.399340278,1,0,0,1.8739,Peridotite_rect,7,1.874,0,1,0,1,0,1,,,,,,,,,,,,,
6400f8f41e203f131c68b79f,SCR,2024-06-21_10h47.30.109,LearnStrategy,2023.2.3,MacIntel,59.52380952,7,1,3,-0.250980903,-0.287890625,1,0,0,1.1984,Peridotite_02,7,02,2,3,1.198,8,02,0.114639757,-0.259001736,1,0,0,1.0235,Diorite_rect,3,1.023,0,2,0,2,0,1,,,,,,,,,,,,,
6400f8f41e203f131c68b79f,SCR,2024-06-21_10h47.30.109,LearnStrategy,2023.2.3,MacIntel,59.52380952,7,1,4,-0.390911458,-0.256419271,1,0,0,2.5482,Peridotite_05,7,05,2,2,2.548,4,16,0.077703993,-0.386019965,1,0,0,1.8091,Peridotite_rect,7,1.809,1,3,0,3,0,1,,,,,,,,,,,,,
6400f8f41e203f131c68b79f,SCR,2024-06-21_10h47.30.109,LearnStrategy,2023.2.3,MacIntel,59.52380952,7,1,5,-0.034184028,-0.378585069,1,0,0,1.1635,Pegmatite_03,6,03,1,4,1.164,2,04,-0.034184028,-0.380646701,1,0,0,2.3912,Pegmatite_rect,6,2.391,1,4,0,4,0,1,,,,,,,,,,,,,
6400f8f41e203f131c68b79f,SCR,2024-06-21_10h47.30.109,LearnStrategy,2023.2.3,MacIntel,59.52380952,7,1,6,0.37703559,-0.26405816,1,0,0,2.3821,Pumice_16,8,16,2,7,2.382,2,16,-0.179010417,-0.244236111,1,0,0,1.7737,Basalt_rect,2,1.774,0,5,0,5,0,1,,,,,,,,,,,,,
6400f8f41e203f131c68b79f,SCR,2024-06-21_10h47.30.109,LearnStrategy,2023.2.3,MacIntel,59.52380952,7,1,7,0.543029514,-0.248667535,1,0,0,2.3318,Basalt_16,2,16,2,8,2.332,3,12,0.426840278,-0.404340278,1,0,0,1.3918,Pumice_rect,8,1.392,0,6,0,6,0,1,,,,,,,,,,,,,
6400f8f41e203f131c68b79f,SCR,2024-06-21_10h47.30.109,LearnStrategy,2023.2.3,MacIntel,59.52380952,7,1,8,-0.575195313,0.263637153,1,0,0,6.7979,Pegmatite_05,6,05,5,1,6.798,1,14,-0.113537326,-0.249717882,1,0,0,3.6321,Basalt_rect,2,3.632,0,7,0,7,0,1,,,,,,,,,,,,,
6400f8f41e203f131c68b79f,SCR,2024-06-21_10h47.30.109,LearnStrategy,2023.2.3,MacIntel,59.52380952,7,1,9,-0.093515625,0.371571181,1,0,0,1.432,Pumice_15,8,15,6,4,1.432,4,09,-0.069157986,-0.395425347,1,0,0,2.6089,Pegmatite_rect,6,2.609,0,8,0,8,0,1,,,,,,,,,,,,,
6400f8f41e203f131c68b79f,SCR,2024-06-21_10h47.30.109,LearnStrategy,2023.2.3,MacIntel,59.52380952,7,1,10,0.224401042,0.396853299,1,0,0,1.799,Diorite_13,3,13,6,6,1.799,1,11,0.400412326,-0.388511285,1,0,0,1.109,Pumice_rect,8,1.109,0,9,0,9,0,1,,,,,,,,,,,,,
6400f8f41e203f131c68b79f,SCR,2024-06-21_10h47.30.109,LearnStrategy,2023.2.3,MacIntel,59.52380952,7,1,11,-0.182942708,-0.274435764,1,0,0,1.8813,Peridotite_02,7,02,2,3,1.881,3,13,-0.159144965,-0.418203125,1,0,0,1.1746,Pegmatite_rect,6,1.175,0,10,0,10,0,1,,,,,,,,,,,,,
6400f8f41e203f131c68b79f,SCR,2024-06-21_10h47.30.109,LearnStrategy,2023.2.3,MacIntel,59.52380952,7,1,12,-0.586740451,-0.26952691,1,0,0,2.1982,Peridotite_08,7,08,2,1,2.198,7,04,0.063884549,-0.400555556,1,0,0,2.6587,Peridotite_rect,7,2.659,1,11,0,11,0,1,,,,,,,,,,,,,
6400f8f41e203f131c68b79f,SCR,2024-06-21_10h47.30.109,LearnStrategy,2023.2.3,MacIntel,59.52380952,7,1,13,-0.51733941,0.234184028,1,0,0,1.5658,Pegmatite_05,6,05,5,1,1.566,1,11,0.092604167,-0.411944444,1,0,0,2.7741,Peridotite_rect,7,2.774,0,12,0,12,0,1,,,,,,,,,,,,,
6400f8f41e203f131c68b79f,SCR,2024-06-21_10h47.30.109,LearnStrategy,2023.2.3,MacIntel,59.52380952,7,1,14,-0.092426215,0.239331597,1,0,0,1.8152,Diorite_07,3,07,5,4,1.815,8,04,-0.093098958,-0.386315104,1,0,0,2.9392,Pegmatite_rect,6,2.939,0,13,0,13,0,1,,,,,,,,,,,,,
6400f8f41e203f131c68b79f,SCR,2024-06-21_10h47.30.109,LearnStrategy,2023.2.3,MacIntel,59.52380952,7,1,15,-0.518988715,-0.254032118,1,0,0,1.733,Peridotite_08,7,08,2,1,1.733,6,06,0.035416667,-0.25406684,1,0,0,0.8744,Diorite_rect,3,0.874,0,14,0,14,0,1,,,,,,,,,,,,,
6400f8f41e203f131c68b79f,SCR,2024-06-21_10h47.30.109,LearnStrategy,2023.2.3,MacIntel,59.52380952,7,1,16,-0.084791667,-0.437912326,1,0,0,1.9977,Pegmatite_03,6,03,1,4,1.998,7,15,-0.190928819,-0.408875868,1,0,0,2.2088,Pegmatite_rect,6,2.209,1,15,0,15,0,1,,,,,,,,,,,,,
6400f8f41e203f131c68b79f,SCR,2024-06-21_10h47.30.109,LearnStrategy,2023.2.3,MacIntel,59.52380952,7,2,1,,,,,,,,4,10,,,,,,,,,,,,,3,3.791,0,,,,,,0.082903646,-0.23375434,1,0,0,3.7908,Diorite_rect,0,0,0,0,1,
6400f8f41e203f131c68b79f,SCR,2024-06-21_10h47.30.109,LearnStrategy,2023.2.3,MacIntel,59.52380952,7,2,2,,,,,,,,8,09,,,,,,,,,,,,,4,5.483,0,,,,,,0.315325521,-0.246575521,1,0,0,5.4827,Gabbro_rect,1,0,1,0,1,
6400f8f41e203f131c68b79f,SCR,2024-06-21_10h47.30.109,LearnStrategy,2023.2.3,MacIntel,59.52380952,7,2,3,,,,,,,,6,13,,,,,,,,,,,,,6,1.35,1,,,,,,-0.063641493,-0.404179687,1,0,0,1.3495,Pegmatite_rect,2,0,2,0,1,
6400f8f41e203f131c68b79f,SCR,2024-06-21_10h47.30.109,LearnStrategy,2023.2.3,MacIntel,59.52380952,7,2,4,,,,,,,,7,06,,,,,,,,,,,,,6,1.623,0,,,,,,-0.038897569,-0.416015625,1,0,0,1.6233,Pegmatite_rect,3,0,3,0,1,
6400f8f41e203f131c68b79f,SCR,2024-06-21_10h47.30.109,LearnStrategy,2023.2.3,MacIntel,59.52380952,7,2,5,,,,,,,,4,11,,,,,,,,,,,,,3,2.24,0,,,,,,0.068133681,-0.248402778,1,0,0,2.2403,Diorite_rect,4,0,4,0,1,
6400f8f41e203f131c68b79f,SCR,2024-06-21_10h47.30.109,LearnStrategy,2023.2.3,MacIntel,59.52380952,7,2,6,,,,,,,,2,14,,,,,,,,,,,,,2,2.816,1,,,,,,-0.079696181,-0.238064236,1,0,0,2.816,Basalt_rect,5,0,5,0,1,
6400f8f41e203f131c68b79f,SCR,2024-06-21_10h47.30.109,LearnStrategy,2023.2.3,MacIntel,59.52380952,7,2,7,,,,,,,,5,09,,,,,,,,,,,,,5,1.207,1,,,,,,-0.352508681,-0.382096354,1,0,0,1.2072,Obsidian_rect,6,0,6,0,1,
6400f8f41e203f131c68b79f,SCR,2024-06-21_10h47.30.109,LearnStrategy,2023.2.3,MacIntel,59.52380952,7,2,8,,,,,,,,3,16,,,,,,,,,,,,,7,0.991,0,,,,,,0.077903646,-0.419991319,1,0,0,0.9909,Peridotite_rect,7,0,7,0,1,
6400f8f41e203f131c68b79f,SCR,2024-06-21_10h47.30.109,LearnStrategy,2023.2.3,MacIntel,59.52380952,7,2,9,,,,,,,,8,13,,,,,,,,,,,,,8,3.606,1,,,,,,0.367317708,-0.414891493,1,0,0,3.6065,Pumice_rect,8,0,8,0,1,
6400f8f41e203f131c68b79f,SCR,2024-06-21_10h47.30.109,LearnStrategy,2023.2.3,MacIntel,59.52380952,7,2,10,,,,,,,,1,04,,,,,,,,,,,,,4,1.199,0,,,,,,0.339492187,-0.253064236,1,0,0,1.1991,Gabbro_rect,9,0,9,0,1,
6400f8f41e203f131c68b79f,SCR,2024-06-21_10h47.30.109,LearnStrategy,2023.2.3,MacIntel,59.52380952,7,2,11,,,,,,,,1,10,,,,,,,,,,,,,1,1.357,1,,,,,,-0.375542535,-0.25656684,1,0,0,1.357,Andesite_rect,10,0,10,0,1,
6400f8f41e203f131c68b79f,SCR,2024-06-21_10h47.30.109,LearnStrategy,2023.2.3,MacIntel,59.52380952,7,2,12,,,,,,,,5,16,,,,,,,,,,,,,5,1.04,1,,,,,,-0.368424479,-0.40140625,1,0,0,1.0404,Obsidian_rect,11,0,11,0,1,
6400f8f41e203f131c68b79f,SCR,2024-06-21_10h47.30.109,LearnStrategy,2023.2.3,MacIntel,59.52380952,7,2,13,,,,,,,,7,16,,,,,,,,,,,,,6,2.406,0,,,,,,-0.092894965,-0.416506076,1,0,0,2.406,Pegmatite_rect,12,0,12,0,1,
6400f8f41e203f131c68b79f,SCR,2024-06-21_10h47.30.109,LearnStrategy,2023.2.3,MacIntel,59.52380952,7,2,14,,,,,,,,3,15,,,,,,,,,,,,,3,1.064,1,,,,,,0.056519097,-0.254657118,1,0,0,1.0645,Diorite_rect,13,0,13,0,1,
6400f8f41e203f131c68b79f,SCR,2024-06-21_10h47.30.109,LearnStrategy,2023.2.3,MacIntel,59.52380952,7,2,15,,,,,,,,2,10,,,,,,,,,,,,,7,1.84,0,,,,,,0.069036458,-0.407842882,1,0,0,1.84,Peridotite_rect,14,0,14,0,1,
6400f8f41e203f131c68b79f,SCR,2024-06-21_10h47.30.109,LearnStrategy,2023.2.3,MacIntel,59.52380952,7,2,16,,,,,,,,6,10,,,,,,,,,,,,,6,1.372,1,,,,,,-0.074557292,-0.40328125,1,0,0,1.3723,Pegmatite_rect,15,0,15,0,1,
6400f8f41e203f131c68b79f,SCR,2024-06-21_10h47.30.109,LearnStrategy,2023.2.3,MacIntel,59.52380952,8,1,1,-0.23515191,0.223667535,1,0,0,1.4474,Diorite_12,3,12,5,3,1.447,3,13,0.063454861,-0.25796441,1,0,0,1.7919,Diorite_rect,3,1.792,1,0,0,0,0,1,,,,,,,,,,,,,
6400f8f41e203f131c68b79f,SCR,2024-06-21_10h47.30.109,LearnStrategy,2023.2.3,MacIntel,59.52380952,8,1,2,-0.083802083,0.21265625,1,0,0,1.8791,Diorite_07,3,07,5,4,1.879,6,16,0.101289062,-0.263815104,1,0,0,1.0096,Diorite_rect,3,1.01,1,1,0,1,0,1,,,,,,,,,,,,,
6400f8f41e203f131c68b79f,SCR,2024-06-21_10h47.30.109,LearnStrategy,2023.2.3,MacIntel,59.52380952,8,1,3,-0.409366319,0.236579861,1,0,0,1.5993,Diorite_09,3,09,5,2,1.599,2,05,0.074305556,-0.264275174,1,0,0,0.8743,Diorite_rect,3,0.874,1,2,0,2,0,1,,,,,,,,,,,,,
6400f8f41e203f131c68b79f,SCR,2024-06-21_10h47.30.109,LearnStrategy,2023.2.3,MacIntel,59.52380952,8,1,4,-0.551822917,0.235911458,1,0,0,1.1657,Pegmatite_05,6,05,5,1,1.166,4,09,0.063033854,-0.25500434,1,0,0,0.8736,Diorite_rect,3,0.874,0,3,0,3,0,1,,,,,,,,,,,,,
6400f8f41e203f131c68b79f,SCR,2024-06-21_10h47.30.109,LearnStrategy,2023.2.3,MacIntel,59.52380952,8,1,5,-0.379947917,0.061666667,1,0,0,1.7153,Pumice_02,8,02,4,2,1.715,4,03,0.366779514,-0.258307292,1,0,0,1.7248,Gabbro_rect,4,1.725,0,4,0,4,0,1,,,,,,,,,,,,,
6400f8f41e203f131c68b79f,SCR,2024-06-21_10h47.30.109,LearnStrategy,2023.2.3,MacIntel,59.52380952,8,1,6,-0.277934028,-0.115186632,1,0,0,1.0643,Diorite_06,3,06,3,3,1.064,1,05,0.399809028,-0.382699653,1,0,0,1.2744,Pumice_rect,8,1.274,0,5,0,5,0,1,,,,,,,,,,,,,
6400f8f41e203f131c68b79f,SCR,2024-06-21_10h47.30.109,LearnStrategy,2023.2.3,MacIntel,59.52380952,8,1,7,0.07905816,-0.110052083,1,0,0,2.2146,Gabbro_03,4,03,3,5,2.215,4,16,0.121241319,-0.238676215,1,0,0,1.0257,Diorite_rect,3,1.026,0,6,0,6,0,1,,,,,,,,,,,,,
6400f8f41e203f131c68b79f,SCR,2024-06-21_10h47.30.109,LearnStrategy,2023.2.3,MacIntel,59.52380952,8,1,8,0.571276042,-0.44358941,1,0,0,1.715,Andesite_11,1,11,1,8,1.715,1,07,-0.349231771,-0.262083333,1,0,0,1.474,Andesite_rect,1,1.474,1,7,0,7,0,1,,,,,,,,,,,,,
6400f8f41e203f131c68b79f,SCR,2024-06-21_10h47.30.109,LearnStrategy,2023.2.3,MacIntel,59.52380952,8,1,9,-0.542365451,-0.141640625,1,0,0,1.1476,Andesite_03,1,03,3,1,1.148,7,04,-0.445855035,-0.236818576,1,0,0,0.5921,Andesite_rect,1,0.592,1,8,0,8,0,1,,,,,,,,,,,,,
6400f8f41e203f131c68b79f,SCR,2024-06-21_10h47.30.109,LearnStrategy,2023.2.3,MacIntel,59.52380952,8,1,10,-0.570481771,-0.413298611,1,0,0,0.782,Basalt_11,2,11,1,1,0.782,7,05,-0.44859809,-0.263020833,1,0,0,0.7909,Andesite_rect,1,0.791,0,9,0,9,0,1,,,,,,,,,,,,,
6400f8f41e203f131c68b79f,SCR,2024-06-21_10h47.30.109,LearnStrategy,2023.2.3,MacIntel,59.52380952,8,1,11,-0.43016059,0.391106771,1,0,0,1.1967,Andesite_06,1,06,6,2,1.197,3,12,-0.14375,-0.243519965,1,0,0,1.6414,Basalt_rect,2,1.641,0,10,0,10,0,1,,,,,,,,,,,,,
6400f8f41e203f131c68b79f,SCR,2024-06-21_10h47.30.109,LearnStrategy,2023.2.3,MacIntel,59.52380952,8,1,12,0.080390625,0.423463542,1,0,0,1.797,Gabbro_01,4,01,6,5,1.797,6,11,-0.106918403,-0.259696181,1,0,0,1.3602,Basalt_rect,2,1.36,0,11,0,11,0,1,,,,,,,,,,,,,
6400f8f41e203f131c68b79f,SCR,2024-06-21_10h47.30.109,LearnStrategy,2023.2.3,MacIntel,59.52380952,8,1,13,-0.519483507,-0.124717882,1,0,0,1.3803,Andesite_03,1,03,3,1,1.38,8,16,-0.420099826,-0.241970486,1,0,0,0.9253,Andesite_rect,1,0.925,1,12,0,12,0,1,,,,,,,,,,,,,
6400f8f41e203f131c68b79f,SCR,2024-06-21_10h47.30.109,LearnStrategy,2023.2.3,MacIntel,59.52380952,8,1,14,0.102625868,-0.279917535,1,0,0,2.0656,Andesite_14,1,14,2,5,2.066,8,15,0.112391493,-0.378671875,1,0,0,1.4249,Peridotite_rect,7,1.425,0,13,0,13,0,1,,,,,,,,,,,,,
6400f8f41e203f131c68b79f,SCR,2024-06-21_10h47.30.109,LearnStrategy,2023.2.3,MacIntel,59.52380952,8,1,15,0.208237847,0.279053819,1,0,0,1.0307,Basalt_05,2,05,5,6,1.031,2,04,-0.095481771,-0.259726562,1,0,0,1.1917,Basalt_rect,2,1.192,1,14,0,14,0,1,,,,,,,,,,,,,
6400f8f41e203f131c68b79f,SCR,2024-06-21_10h47.30.109,LearnStrategy,2023.2.3,MacIntel,59.52380952,8,1,16,-0.047061632,-0.085407986,1,0,0,1.1974,Basalt_04,2,04,3,4,1.197,7,02,-0.098580729,-0.239609375,1,0,0,0.7756,Basalt_rect,2,0.776,1,15,0,15,0,1,,,,,,,,,,,,,
6400f8f41e203f131c68b79f,SCR,2024-06-21_10h47.30.109,LearnStrategy,2023.2.3,MacIntel,59.52380952,8,2,1,,,,,,,,7,14,,,,,,,,,,,,,7,3.074,1,,,,,,0.104756944,-0.398867187,1,0,0,3.074,Peridotite_rect,0,0,0,0,1,
6400f8f41e203f131c68b79f,SCR,2024-06-21_10h47.30.109,LearnStrategy,2023.2.3,MacIntel,59.52380952,8,2,2,,,,,,,,6,15,,,,,,,,,,,,,6,1.164,1,,,,,,-0.097842882,-0.383732639,1,0,0,1.1638,Pegmatite_rect,1,0,1,0,1,
6400f8f41e203f131c68b79f,SCR,2024-06-21_10h47.30.109,LearnStrategy,2023.2.3,MacIntel,59.52380952,8,2,3,,,,,,,,5,02,,,,,,,,,,,,,5,1.506,1,,,,,,-0.313424479,-0.385282118,1,0,0,1.5065,Obsidian_rect,2,0,2,0,1,
6400f8f41e203f131c68b79f,SCR,2024-06-21_10h47.30.109,LearnStrategy,2023.2.3,MacIntel,59.52380952,8,2,4,,,,,,,,2,09,,,,,,,,,,,,,1,1.257,0,,,,,,-0.333320312,-0.256276042,1,0,0,1.2573,Andesite_rect,3,0,3,0,1,
6400f8f41e203f131c68b79f,SCR,2024-06-21_10h47.30.109,LearnStrategy,2023.2.3,MacIntel,59.52380952,8,2,5,,,,,,,,3,11,,,,,,,,,,,,,3,1.174,1,,,,,,0.049900174,-0.26687934,1,0,0,1.1738,Diorite_rect,4,0,4,0,1,
6400f8f41e203f131c68b79f,SCR,2024-06-21_10h47.30.109,LearnStrategy,2023.2.3,MacIntel,59.52380952,8,2,6,,,,,,,,4,12,,,,,,,,,,,,,2,0.907,0,,,,,,-0.063563368,-0.261966146,1,0,0,0.9068,Basalt_rect,5,0,5,0,1,
6400f8f41e203f131c68b79f,SCR,2024-06-21_10h47.30.109,LearnStrategy,2023.2.3,MacIntel,59.52380952,8,2,7,,,,,,,,5,14,,,,,,,,,,,,,5,1.541,1,,,,,,-0.34640191,-0.396666667,1,0,0,1.5406,Obsidian_rect,6,0,6,0,1,
6400f8f41e203f131c68b79f,SCR,2024-06-21_10h47.30.109,LearnStrategy,2023.2.3,MacIntel,59.52380952,8,2,8,,,,,,,,1,16,,,,,,,,,,,,,3,2.291,0,,,,,,0.183758681,-0.266215278,1,0,0,2.2911,Diorite_rect,7,0,7,0,1,
6400f8f41e203f131c68b79f,SCR,2024-06-21_10h47.30.109,LearnStrategy,2023.2.3,MacIntel,59.52380952,8,2,9,,,,,,,,6,08,,,,,,,,,,,,,7,1.49,0,,,,,,0.082708333,-0.39624566,1,0,0,1.49,Peridotite_rect,8,0,8,0,1,
6400f8f41e203f131c68b79f,SCR,2024-06-21_10h47.30.109,LearnStrategy,2023.2.3,MacIntel,59.52380952,8,2,10,,,,,,,,8,05,,,,,,,,,,,,,1,1.89,0,,,,,,-0.354045139,-0.244908854,1,0,0,1.8899,Andesite_rect,9,0,9,0,1,
6400f8f41e203f131c68b79f,SCR,2024-06-21_10h47.30.109,LearnStrategy,2023.2.3,MacIntel,59.52380952,8,2,11,,,,,,,,8,14,,,,,,,,,,,,,2,0.948,0,,,,,,-0.207430556,-0.26422309,1,0,0,0.948,Basalt_rect,10,0,10,0,1,
6400f8f41e203f131c68b79f,SCR,2024-06-21_10h47.30.109,LearnStrategy,2023.2.3,MacIntel,59.52380952,8,2,12,,,,,,,,4,15,,,,,,,,,,,,,8,1.24,0,,,,,,0.355425347,-0.405078125,1,0,0,1.2398,Pumice_rect,11,0,11,0,1,
6400f8f41e203f131c68b79f,SCR,2024-06-21_10h47.30.109,LearnStrategy,2023.2.3,MacIntel,59.52380952,8,2,13,,,,,,,,1,09,,,,,,,,,,,,,1,1.49,1,,,,,,-0.326875,-0.248871528,1,0,0,1.4901,Andesite_rect,12,0,12,0,1,
6400f8f41e203f131c68b79f,SCR,2024-06-21_10h47.30.109,LearnStrategy,2023.2.3,MacIntel,59.52380952,8,2,14,,,,,,,,7,07,,,,,,,,,,,,,3,1.69,0,,,,,,0.137230903,-0.270190972,1,0,0,1.6903,Diorite_rect,13,0,13,0,1,
6400f8f41e203f131c68b79f,SCR,2024-06-21_10h47.30.109,LearnStrategy,2023.2.3,MacIntel,59.52380952,8,2,15,,,,,,,,3,02,,,,,,,,,,,,,4,1.257,0,,,,,,0.371827257,-0.259487847,1,0,0,1.2573,Gabbro_rect,14,0,14,0,1,
6400f8f41e203f131c68b79f,SCR,2024-06-21_10h47.30.109,LearnStrategy,2023.2.3,MacIntel,59.52380952,8,2,16,,,,,,,,2,12,,,,,,,,,,,,,1,1.273,0,,,,,,-0.352517361,-0.250381944,1,0,0,1.2733,Andesite_rect,15,0,15,0,1,
6400f8f41e203f131c68b79f,SCR,2024-06-21_10h47.30.109,LearnStrategy,2023.2.3,MacIntel,59.52380952,9,1,1,-0.071328125,0.079114583,1,0,0,0.9314,Gabbro_08,4,08,4,4,0.931,4,01,-0.297361111,-0.254752604,1,0,0,1.9405,Andesite_rect,1,1.94,0,0,0,0,0,1,,,,,,,,,,,,,
6400f8f41e203f131c68b79f,SCR,2024-06-21_10h47.30.109,LearnStrategy,2023.2.3,MacIntel,59.52380952,9,1,2,0.045538194,0.117482639,1,0,0,0.8308,Peridotite_10,7,10,4,5,0.831,1,06,0.04453125,-0.255542535,1,0,0,2.0764,Diorite_rect,3,2.076,0,1,0,1,0,1,,,,,,,,,,,,,
6400f8f41e203f131c68b79f,SCR,2024-06-21_10h47.30.109,LearnStrategy,2023.2.3,MacIntel,59.52380952,9,1,3,0.208159722,0.216180556,1,0,0,2.398,Basalt_05,2,05,5,6,2.398,3,06,-0.194756944,-0.235399306,1,0,0,1.1587,Basalt_rect,2,1.159,1,2,0,2,0,1,,,,,,,,,,,,,
6400f8f41e203f131c68b79f,SCR,2024-06-21_10h47.30.109,LearnStrategy,2023.2.3,MacIntel,59.52380952,9,1,4,0.184800347,-0.274266493,1,0,0,1.2805,Gabbro_09,4,09,2,6,1.28,7,02,-0.031458333,-0.24875,1,0,0,1.0257,Basalt_rect,2,1.026,0,3,0,3,0,1,,,,,,,,,,,,,
6400f8f41e203f131c68b79f,SCR,2024-06-21_10h47.30.109,LearnStrategy,2023.2.3,MacIntel,59.52380952,9,1,5,0.069565972,-0.255394965,1,0,0,0.9144,Andesite_14,1,14,2,5,0.914,7,04,0.085394965,-0.391388889,1,0,0,1.0243,Peridotite_rect,7,1.024,0,4,0,4,0,1,,,,,,,,,,,,,
6400f8f41e203f131c68b79f,SCR,2024-06-21_10h47.30.109,LearnStrategy,2023.2.3,MacIntel,59.52380952,9,1,6,-0.113459201,-0.113606771,1,0,0,0.8811,Basalt_04,2,04,3,4,0.881,2,11,-0.153424479,-0.246679687,1,0,0,0.9761,Basalt_rect,2,0.976,1,5,0,5,0,1,,,,,,,,,,,,,
6400f8f41e203f131c68b79f,SCR,2024-06-21_10h47.30.109,LearnStrategy,2023.2.3,MacIntel,59.52380952,9,1,7,-0.356888021,0.231427951,1,0,0,2.4483,Diorite_09,3,09,5,2,2.448,6,05,0.081210937,-0.264978299,1,0,0,1.4242,Diorite_rect,3,1.424,1,6,0,6,0,1,,,,,,,,,,,,,
6400f8f41e203f131c68b79f,SCR,2024-06-21_10h47.30.109,LearnStrategy,2023.2.3,MacIntel,59.52380952,9,1,8,-0.192873264,-0.275755208,1,0,0,2.3314,Peridotite_02,7,02,2,3,2.331,1,11,0.078602431,-0.411657986,1,0,0,1.4986,Peridotite_rect,7,1.499,1,7,0,7,0,1,,,,,,,,,,,,,
6400f8f41e203f131c68b79f,SCR,2024-06-21_10h47.30.109,LearnStrategy,2023.2.3,MacIntel,59.52380952,9,1,9,-0.537013889,-0.229344618,1,0,0,2.3141,Peridotite_08,7,08,2,1,2.314,7,05,0.02515191,-0.390733507,1,0,0,1.5925,Peridotite_rect,7,1.593,1,8,0,8,0,1,,,,,,,,,,,,,
6400f8f41e203f131c68b79f,SCR,2024-06-21_10h47.30.109,LearnStrategy,2023.2.3,MacIntel,59.52380952,9,1,10,0.104600694,0.093372396,1,0,0,1.4643,Peridotite_10,7,10,4,5,1.464,6,03,0.128350694,-0.40765191,1,0,0,1.0932,Peridotite_rect,7,1.093,1,9,0,9,0,1,,,,,,,,,,,,,
6400f8f41e203f131c68b79f,SCR,2024-06-21_10h47.30.109,LearnStrategy,2023.2.3,MacIntel,59.52380952,9,1,11,0.374765625,0.09171875,1,0,0,1.2317,Diorite_10,3,10,4,7,1.232,4,01,0.08046875,-0.268958333,1,0,0,1.5406,Diorite_rect,3,1.541,1,10,0,10,0,1,,,,,,,,,,,,,
6400f8f41e203f131c68b79f,SCR,2024-06-21_10h47.30.109,LearnStrategy,2023.2.3,MacIntel,59.52380952,9,1,12,-0.076219618,0.243654514,1,0,0,1.1305,Diorite_07,3,07,5,4,1.131,2,08,0.09734809,-0.407118056,1,0,0,1.8251,Peridotite_rect,7,1.825,0,11,0,11,0,1,,,,,,,,,,,,,
6400f8f41e203f131c68b79f,SCR,2024-06-21_10h47.30.109,LearnStrategy,2023.2.3,MacIntel,59.52380952,9,1,13,-0.227065972,0.245078125,1,0,0,1.4644,Diorite_12,3,12,5,3,1.464,8,06,0.047643229,-0.271684028,1,0,0,1.2754,Diorite_rect,3,1.275,1,12,0,12,0,1,,,,,,,,,,,,,
6400f8f41e203f131c68b79f,SCR,2024-06-21_10h47.30.109,LearnStrategy,2023.2.3,MacIntel,59.52380952,9,1,14,-0.075290799,-0.41641059,1,0,0,1.3639,Pegmatite_03,6,03,1,4,1.364,4,16,-0.075290799,-0.41641059,1,0,0,1.2595,Pegmatite_rect,6,1.26,1,13,0,13,0,1,,,,,,,,,,,,,
6400f8f41e203f131c68b79f,SCR,2024-06-21_10h47.30.109,LearnStrategy,2023.2.3,MacIntel,59.52380952,9,1,15,-0.358780382,-0.225594618,1,0,0,1.6328,Peridotite_05,7,05,2,2,1.633,8,16,0.070095486,-0.271966146,1,0,0,2.2074,Diorite_rect,3,2.207,0,14,0,14,0,1,,,,,,,,,,,,,
6400f8f41e203f131c68b79f,SCR,2024-06-21_10h47.30.109,LearnStrategy,2023.2.3,MacIntel,59.52380952,9,1,16,0.045842014,0.26234809,1,0,0,2.0201,Obsidian_06,5,06,5,5,2.02,3,13,-0.359118924,-0.393576389,1,0,0,1.8763,Obsidian_rect,5,1.876,1,15,0,15,0,1,,,,,,,,,,,,,
6400f8f41e203f131c68b79f,SCR,2024-06-21_10h47.30.109,LearnStrategy,2023.2.3,MacIntel,59.52380952,9,2,1,,,,,,,,3,14,,,,,,,,,,,,,7,5.774,0,,,,,,0.069414062,-0.403476563,1,0,0,5.7744,Peridotite_rect,0,0,0,0,1,
6400f8f41e203f131c68b79f,SCR,2024-06-21_10h47.30.109,LearnStrategy,2023.2.3,MacIntel,59.52380952,9,2,2,,,,,,,,5,05,,,,,,,,,,,,,5,1.55,1,,,,,,-0.345338542,-0.411276042,1,0,0,1.5497,Obsidian_rect,1,0,1,0,1,
6400f8f41e203f131c68b79f,SCR,2024-06-21_10h47.30.109,LearnStrategy,2023.2.3,MacIntel,59.52380952,9,2,3,,,,,,,,4,05,,,,,,,,,,,,,7,2.072,0,,,,,,0.055017361,-0.398155382,1,0,0,2.0723,Peridotite_rect,2,0,2,0,1,
6400f8f41e203f131c68b79f,SCR,2024-06-21_10h47.30.109,LearnStrategy,2023.2.3,MacIntel,59.52380952,9,2,4,,,,,,,,7,12,,,,,,,,,,,,,3,1.557,0,,,,,,0.084275174,-0.257552083,1,0,0,1.5566,Diorite_rect,3,0,3,0,1,
6400f8f41e203f131c68b79f,SCR,2024-06-21_10h47.30.109,LearnStrategy,2023.2.3,MacIntel,59.52380952,9,2,5,,,,,,,,4,13,,,,,,,,,,,,,8,4.477,0,,,,,,0.335733507,-0.403676215,1,0,0,4.4767,Pumice_rect,4,0,4,0,1,
6400f8f41e203f131c68b79f,SCR,2024-06-21_10h47.30.109,LearnStrategy,2023.2.3,MacIntel,59.52380952,9,2,6,,,,,,,,6,12,,,,,,,,,,,,,3,1.598,0,,,,,,0.158098958,-0.257013889,1,0,0,1.5982,Diorite_rect,5,0,5,0,1,
6400f8f41e203f131c68b79f,SCR,2024-06-21_10h47.30.109,LearnStrategy,2023.2.3,MacIntel,59.52380952,9,2,7,,,,,,,,6,07,,,,,,,,,,,,,6,1.106,1,,,,,,-0.050247396,-0.401506076,1,0,0,1.1065,Pegmatite_rect,6,0,6,0,1,
6400f8f41e203f131c68b79f,SCR,2024-06-21_10h47.30.109,LearnStrategy,2023.2.3,MacIntel,59.52380952,9,2,8,,,,,,,,7,13,,,,,,,,,,,,,7,0.942,1,,,,,,0.100590278,-0.406657986,1,0,0,0.9418,Peridotite_rect,7,0,7,0,1,
6400f8f41e203f131c68b79f,SCR,2024-06-21_10h47.30.109,LearnStrategy,2023.2.3,MacIntel,59.52380952,9,2,9,,,,,,,,8,08,,,,,,,,,,,,,1,1.19,0,,,,,,-0.368823785,-0.265802951,1,0,0,1.1901,Andesite_rect,8,0,8,0,1,
6400f8f41e203f131c68b79f,SCR,2024-06-21_10h47.30.109,LearnStrategy,2023.2.3,MacIntel,59.52380952,9,2,10,,,,,,,,3,08,,,,,,,,,,,,,3,1.14,1,,,,,,0.049826389,-0.263467882,1,0,0,1.1405,Diorite_rect,9,0,9,0,1,
6400f8f41e203f131c68b79f,SCR,2024-06-21_10h47.30.109,LearnStrategy,2023.2.3,MacIntel,59.52380952,9,2,11,,,,,,,,2,06,,,,,,,,,,,,,2,0.973,1,,,,,,-0.096588542,-0.261779514,1,0,0,0.9734,Basalt_rect,10,0,10,0,1,
6400f8f41e203f131c68b79f,SCR,2024-06-21_10h47.30.109,LearnStrategy,2023.2.3,MacIntel,59.52380952,9,2,12,,,,,,,,2,02,,,,,,,,,,,,,1,1.457,0,,,,,,-0.326979167,-0.258693576,1,0,0,1.4574,Andesite_rect,11,0,11,0,1,
6400f8f41e203f131c68b79f,SCR,2024-06-21_10h47.30.109,LearnStrategy,2023.2.3,MacIntel,59.52380952,9,2,13,,,,,,,,5,04,,,,,,,,,,,,,5,0.873,1,,,,,,-0.366840278,-0.404782986,1,0,0,0.8733,Obsidian_rect,12,0,12,0,1,
6400f8f41e203f131c68b79f,SCR,2024-06-21_10h47.30.109,LearnStrategy,2023.2.3,MacIntel,59.52380952,9,2,14,,,,,,,,8,03,,,,,,,,,,,,,8,1.941,1,,,,,,0.3703125,-0.395286458,1,0,0,1.9412,Pumice_rect,13,0,13,0,1,
6400f8f41e203f131c68b79f,SCR,2024-06-21_10h47.30.109,LearnStrategy,2023.2.3,MacIntel,59.52380952,9,2,15,,,,,,,,1,01,,,,,,,,,,,,,4,1.148,0,,,,,,0.376124132,-0.260672743,1,0,0,1.148,Gabbro_rect,14,0,14,0,1,
6400f8f41e203f131c68b79f,SCR,2024-06-21_10h47.30.109,LearnStrategy,2023.2.3,MacIntel,59.52380952,9,2,16,,,,,,,,1,02,,,,,,,,,,,,,1,3.407,1,,,,,,-0.371462674,-0.236336806,1,0,0,3.4074,Andesite_rect,15,0,15,0,1,
6400f8f41e203f131c68b79f,SCR,2024-06-21_10h47.30.109,LearnStrategy,2023.2.3,MacIntel,59.52380952,,,,,,,,,,,,,,,,,,,,,,,,,,,,,,,,,,,,,,,,,,,,,0
6400f8f41e203f131c68b79f,SCR,2024-06-21_10h47.30.109,LearnStrategy,2023.2.3,MacIntel,59.52380952,,,,,,,,,,,,,,,,,,,,,,,,,,,,,,,,,,,,,,,,,,,,,
6400f8f41e203f131c68b79f,SCR,2024-06-21_10h47.30.109,LearnStrategy,2023.2.3,MacIntel,59.52380952,,,,,,,,,,,2,11,1,1,,,,,,,,,,,,,,,,,,,,,,,,,,,,,,,
6400f8f41e203f131c68b79f,SCR,2024-06-21_10h47.30.109,LearnStrategy,2023.2.3,MacIntel,59.52380952,,,,,,,,,,,4,16,1,2,,,,,,,,,,,,,,,,,,,,,,,,,,,,,,,
6400f8f41e203f131c68b79f,SCR,2024-06-21_10h47.30.109,LearnStrategy,2023.2.3,MacIntel,59.52380952,,,,,,,,,,,8,04,1,3,,,,,,,,,,,,,,,,,,,,,,,,,,,,,,,
6400f8f41e203f131c68b79f,SCR,2024-06-21_10h47.30.109,LearnStrategy,2023.2.3,MacIntel,59.52380952,,,,,,,,,,,6,03,1,4,,,,,,,,,,,,,,,,,,,,,,,,,,,,,,,
6400f8f41e203f131c68b79f,SCR,2024-06-21_10h47.30.109,LearnStrategy,2023.2.3,MacIntel,59.52380952,,,,,,,,,,,4,14,1,5,,,,,,,,,,,,,,,,,,,,,,,,,,,,,,,
6400f8f41e203f131c68b79f,SCR,2024-06-21_10h47.30.109,LearnStrategy,2023.2.3,MacIntel,59.52380952,,,,,,,,,,,7,04,1,6,,,,,,,,,,,,,,,,,,,,,,,,,,,,,,,
6400f8f41e203f131c68b79f,SCR,2024-06-21_10h47.30.109,LearnStrategy,2023.2.3,MacIntel,59.52380952,,,,,,,,,,,5,08,1,7,,,,,,,,,,,,,,,,,,,,,,,,,,,,,,,
6400f8f41e203f131c68b79f,SCR,2024-06-21_10h47.30.109,LearnStrategy,2023.2.3,MacIntel,59.52380952,,,,,,,,,,,1,11,1,8,,,,,,,,,,,,,,,,,,,,,,,,,,,,,,,
6400f8f41e203f131c68b79f,SCR,2024-06-21_10h47.30.109,LearnStrategy,2023.2.3,MacIntel,59.52380952,,,,,,,,,,,7,08,2,1,,,,,,,,,,,,,,,,,,,,,,,,,,,,,,,
6400f8f41e203f131c68b79f,SCR,2024-06-21_10h47.30.109,LearnStrategy,2023.2.3,MacIntel,59.52380952,,,,,,,,,,,7,05,2,2,,,,,,,,,,,,,,,,,,,,,,,,,,,,,,,
6400f8f41e203f131c68b79f,SCR,2024-06-21_10h47.30.109,LearnStrategy,2023.2.3,MacIntel,59.52380952,,,,,,,,,,,7,02,2,3,,,,,,,,,,,,,,,,,,,,,,,,,,,,,,,
6400f8f41e203f131c68b79f,SCR,2024-06-21_10h47.30.109,LearnStrategy,2023.2.3,MacIntel,59.52380952,,,,,,,,,,,6,11,2,4,,,,,,,,,,,,,,,,,,,,,,,,,,,,,,,
6400f8f41e203f131c68b79f,SCR,2024-06-21_10h47.30.109,LearnStrategy,2023.2.3,MacIntel,59.52380952,,,,,,,,,,,1,14,2,5,,,,,,,,,,,,,,,,,,,,,,,,,,,,,,,
6400f8f41e203f131c68b79f,SCR,2024-06-21_10h47.30.109,LearnStrategy,2023.2.3,MacIntel,59.52380952,,,,,,,,,,,4,09,2,6,,,,,,,,,,,,,,,,,,,,,,,,,,,,,,,
6400f8f41e203f131c68b79f,SCR,2024-06-21_10h47.30.109,LearnStrategy,2023.2.3,MacIntel,59.52380952,,,,,,,,,,,8,16,2,7,,,,,,,,,,,,,,,,,,,,,,,,,,,,,,,
6400f8f41e203f131c68b79f,SCR,2024-06-21_10h47.30.109,LearnStrategy,2023.2.3,MacIntel,59.52380952,,,,,,,,,,,2,16,2,8,,,,,,,,,,,,,,,,,,,,,,,,,,,,,,,
6400f8f41e203f131c68b79f,SCR,2024-06-21_10h47.30.109,LearnStrategy,2023.2.3,MacIntel,59.52380952,,,,,,,,,,,1,03,3,1,,,,,,,,,,,,,,,,,,,,,,,,,,,,,,,
6400f8f41e203f131c68b79f,SCR,2024-06-21_10h47.30.109,LearnStrategy,2023.2.3,MacIntel,59.52380952,,,,,,,,,,,5,07,3,2,,,,,,,,,,,,,,,,,,,,,,,,,,,,,,,
6400f8f41e203f131c68b79f,SCR,2024-06-21_10h47.30.109,LearnStrategy,2023.2.3,MacIntel,59.52380952,,,,,,,,,,,3,06,3,3,,,,,,,,,,,,,,,,,,,,,,,,,,,,,,,
6400f8f41e203f131c68b79f,SCR,2024-06-21_10h47.30.109,LearnStrategy,2023.2.3,MacIntel,59.52380952,,,,,,,,,,,2,04,3,4,,,,,,,,,,,,,,,,,,,,,,,,,,,,,,,
6400f8f41e203f131c68b79f,SCR,2024-06-21_10h47.30.109,LearnStrategy,2023.2.3,MacIntel,59.52380952,,,,,,,,,,,4,03,3,5,,,,,,,,,,,,,,,,,,,,,,,,,,,,,,,
6400f8f41e203f131c68b79f,SCR,2024-06-21_10h47.30.109,LearnStrategy,2023.2.3,MacIntel,59.52380952,,,,,,,,,,,2,08,3,6,,,,,,,,,,,,,,,,,,,,,,,,,,,,,,,
6400f8f41e203f131c68b79f,SCR,2024-06-21_10h47.30.109,LearnStrategy,2023.2.3,MacIntel,59.52380952,,,,,,,,,,,2,01,3,7,,,,,,,,,,,,,,,,,,,,,,,,,,,,,,,
6400f8f41e203f131c68b79f,SCR,2024-06-21_10h47.30.109,LearnStrategy,2023.2.3,MacIntel,59.52380952,,,,,,,,,,,8,06,3,8,,,,,,,,,,,,,,,,,,,,,,,,,,,,,,,
6400f8f41e203f131c68b79f,SCR,2024-06-21_10h47.30.109,LearnStrategy,2023.2.3,MacIntel,59.52380952,,,,,,,,,,,5,12,4,1,,,,,,,,,,,,,,,,,,,,,,,,,,,,,,,
6400f8f41e203f131c68b79f,SCR,2024-06-21_10h47.30.109,LearnStrategy,2023.2.3,MacIntel,59.52380952,,,,,,,,,,,8,02,4,2,,,,,,,,,,,,,,,,,,,,,,,,,,,,,,,
6400f8f41e203f131c68b79f,SCR,2024-06-21_10h47.30.109,LearnStrategy,2023.2.3,MacIntel,59.52380952,,,,,,,,,,,5,10,4,3,,,,,,,,,,,,,,,,,,,,,,,,,,,,,,,
6400f8f41e203f131c68b79f,SCR,2024-06-21_10h47.30.109,LearnStrategy,2023.2.3,MacIntel,59.52380952,,,,,,,,,,,4,08,4,4,,,,,,,,,,,,,,,,,,,,,,,,,,,,,,,
6400f8f41e203f131c68b79f,SCR,2024-06-21_10h47.30.109,LearnStrategy,2023.2.3,MacIntel,59.52380952,,,,,,,,,,,7,10,4,5,,,,,,,,,,,,,,,,,,,,,,,,,,,,,,,
6400f8f41e203f131c68b79f,SCR,2024-06-21_10h47.30.109,LearnStrategy,2023.2.3,MacIntel,59.52380952,,,,,,,,,,,1,07,4,6,,,,,,,,,,,,,,,,,,,,,,,,,,,,,,,
6400f8f41e203f131c68b79f,SCR,2024-06-21_10h47.30.109,LearnStrategy,2023.2.3,MacIntel,59.52380952,,,,,,,,,,,3,10,4,7,,,,,,,,,,,,,,,,,,,,,,,,,,,,,,,
6400f8f41e203f131c68b79f,SCR,2024-06-21_10h47.30.109,LearnStrategy,2023.2.3,MacIntel,59.52380952,,,,,,,,,,,5,11,4,8,,,,,,,,,,,,,,,,,,,,,,,,,,,,,,,
6400f8f41e203f131c68b79f,SCR,2024-06-21_10h47.30.109,LearnStrategy,2023.2.3,MacIntel,59.52380952,,,,,,,,,,,6,05,5,1,,,,,,,,,,,,,,,,,,,,,,,,,,,,,,,
6400f8f41e203f131c68b79f,SCR,2024-06-21_10h47.30.109,LearnStrategy,2023.2.3,MacIntel,59.52380952,,,,,,,,,,,3,09,5,2,,,,,,,,,,,,,,,,,,,,,,,,,,,,,,,
6400f8f41e203f131c68b79f,SCR,2024-06-21_10h47.30.109,LearnStrategy,2023.2.3,MacIntel,59.52380952,,,,,,,,,,,3,12,5,3,,,,,,,,,,,,,,,,,,,,,,,,,,,,,,,
6400f8f41e203f131c68b79f,SCR,2024-06-21_10h47.30.109,LearnStrategy,2023.2.3,MacIntel,59.52380952,,,,,,,,,,,3,07,5,4,,,,,,,,,,,,,,,,,,,,,,,,,,,,,,,
6400f8f41e203f131c68b79f,SCR,2024-06-21_10h47.30.109,LearnStrategy,2023.2.3,MacIntel,59.52380952,,,,,,,,,,,5,06,5,5,,,,,,,,,,,,,,,,,,,,,,,,,,,,,,,
6400f8f41e203f131c68b79f,SCR,2024-06-21_10h47.30.109,LearnStrategy,2023.2.3,MacIntel,59.52380952,,,,,,,,,,,2,05,5,6,,,,,,,,,,,,,,,,,,,,,,,,,,,,,,,
6400f8f41e203f131c68b79f,SCR,2024-06-21_10h47.30.109,LearnStrategy,2023.2.3,MacIntel,59.52380952,,,,,,,,,,,6,06,5,7,,,,,,,,,,,,,,,,,,,,,,,,,,,,,,,
6400f8f41e203f131c68b79f,SCR,2024-06-21_10h47.30.109,LearnStrategy,2023.2.3,MacIntel,59.52380952,,,,,,,,,,,6,09,5,8,,,,,,,,,,,,,,,,,,,,,,,,,,,,,,,
6400f8f41e203f131c68b79f,SCR,2024-06-21_10h47.30.109,LearnStrategy,2023.2.3,MacIntel,59.52380952,,,,,,,,,,,1,05,6,1,,,,,,,,,,,,,,,,,,,,,,,,,,,,,,,
6400f8f41e203f131c68b79f,SCR,2024-06-21_10h47.30.109,LearnStrategy,2023.2.3,MacIntel,59.52380952,,,,,,,,,,,1,06,6,2,,,,,,,,,,,,,,,,,,,,,,,,,,,,,,,
6400f8f41e203f131c68b79f,SCR,2024-06-21_10h47.30.109,LearnStrategy,2023.2.3,MacIntel,59.52380952,,,,,,,,,,,6,16,6,3,,,,,,,,,,,,,,,,,,,,,,,,,,,,,,,
6400f8f41e203f131c68b79f,SCR,2024-06-21_10h47.30.109,LearnStrategy,2023.2.3,MacIntel,59.52380952,,,,,,,,,,,8,15,6,4,,,,,,,,,,,,,,,,,,,,,,,,,,,,,,,
6400f8f41e203f131c68b79f,SCR,2024-06-21_10h47.30.109,LearnStrategy,2023.2.3,MacIntel,59.52380952,,,,,,,,,,,4,01,6,5,,,,,,,,,,,,,,,,,,,,,,,,,,,,,,,
6400f8f41e203f131c68b79f,SCR,2024-06-21_10h47.30.109,LearnStrategy,2023.2.3,MacIntel,59.52380952,,,,,,,,,,,3,13,6,6,,,,,,,,,,,,,,,,,,,,,,,,,,,,,,,
6400f8f41e203f131c68b79f,SCR,2024-06-21_10h47.30.109,LearnStrategy,2023.2.3,MacIntel,59.52380952,,,,,,,,,,,7,15,6,7,,,,,,,,,,,,,,,,,,,,,,,,,,,,,,,
6400f8f41e203f131c68b79f,SCR,2024-06-21_10h47.30.109,LearnStrategy,2023.2.3,MacIntel,59.52380952,,,,,,,,,,,8,10,6,8,,,,,,,,,,,,,,,,,,,,,,,,,,,,,,,