participant,condition,date,expName,psychopyVersion,OS,frameRate,block,phase,trial,learn_mouse.x,learn_mouse.y,learn_mouse.leftButton,learn_mouse.midButton,learn_mouse.rightButton,learn_mouse.time,learn_mouse.clicked_name,cat,token,row,col,t_select,cat_rec,token_rec,cat_mouse_l.x,cat_mouse_l.y,cat_mouse_l.leftButton,cat_mouse_l.midButton,cat_mouse_l.rightButton,cat_mouse_l.time,cat_mouse_l.clicked_name,resp,t_resp,corr,train_trials.thisRepN,train_trials.thisTrialN,train_trials.thisN,train_trials.thisIndex,train_trials.ran,cat_mouse_t.x,cat_mouse_t.y,cat_mouse_t.leftButton,cat_mouse_t.midButton,cat_mouse_t.rightButton,cat_mouse_t.time,cat_mouse_t.clicked_name,test_trials.thisRepN,test_trials.thisTrialN,test_trials.thisN,test_trials.thisIndex,test_trials.ran
6413c7853eba2b2215197ff4,SCR,2024-06-10_11h44.30.273,LearnStrategy,2023.2.3,Win32,119.047619,,,,,,,,,,,,,,,,,,,,,,,,,,,,,,,,,,,,,,,,,,,,
6413c7853eba2b2215197ff4,SCR,2024-06-10_11h44.30.273,LearnStrategy,2023.2.3,Win32,119.047619,1,1,1,-0.40648146,-0.261111153,1,0,0,13.2448,Obsidian_08,5,08,2,2,13.245,6,11,-0.365740741,-0.400925954,1,0,0,6.0542,Obsidian_rect,5,6.054,1,0,0,0,0,1,,,,,,,,,,,,
6413c7853eba2b2215197ff4,SCR,2024-06-10_11h44.30.273,LearnStrategy,2023.2.3,Win32,119.047619,1,1,2,0.074999986,-0.08888891,1,0,0,13.9266,Pumice_08,8,08,3,5,13.927,8,08,0.357407464,-0.412037037,1,0,0,4.8632,Pumice_rect,8,4.863,1,1,0,1,0,1,,,,,,,,,,,,
6413c7853eba2b2215197ff4,SCR,2024-06-10_11h44.30.273,LearnStrategy,2023.2.3,Win32,119.047619,1,1,3,0.559259344,0.251851841,1,0,0,4.4607,Pegmatite_09,6,09,5,8,4.461,5,14,0.164814843,-0.395370413,1,0,0,6.7933,Peridotite_rect,7,6.793,0,2,0,2,0,1,,,,,,,,,,,,
6413c7853eba2b2215197ff4,SCR,2024-06-10_11h44.30.273,LearnStrategy,2023.2.3,Win32,119.047619,1,1,4,-0.400925919,0.25462963,1,0,0,1.8137,Andesite_03,1,03,5,2,1.814,7,06,-0.137036995,-0.247222265,1,0,0,5.827,Basalt_rect,2,5.827,0,3,0,3,0,1,,,,,,,,,,,,
6413c7853eba2b2215197ff4,SCR,2024-06-10_11h44.30.273,LearnStrategy,2023.2.3,Win32,119.047619,1,1,5,-0.218518504,0.409259257,1,0,0,2.43,Pegmatite_11,6,11,6,3,2.43,1,02,0.402777778,-0.248148176,1,0,0,5.2254,Gabbro_rect,4,5.225,0,4,0,4,0,1,,,,,,,,,,,,
6413c7853eba2b2215197ff4,SCR,2024-06-10_11h44.30.273,LearnStrategy,2023.2.3,Win32,119.047619,1,1,6,-0.07222218,-0.267592607,1,0,0,9.6256,Obsidian_12,5,12,2,4,9.626,1,03,-0.383333312,-0.409259302,1,0,0,3.8028,Obsidian_rect,5,3.803,1,5,0,5,0,1,,,,,,,,,,,,
6413c7853eba2b2215197ff4,SCR,2024-06-10_11h44.30.273,LearnStrategy,2023.2.3,Win32,119.047619,1,1,7,-0.232407393,-0.250925912,1,0,0,26.3706,Obsidian_09,5,09,2,3,26.371,4,05,-0.400925919,-0.389814801,1,0,0,2.1934,Obsidian_rect,5,2.193,1,6,0,6,0,1,,,,,,,,,,,,
6413c7853eba2b2215197ff4,SCR,2024-06-10_11h44.30.273,LearnStrategy,2023.2.3,Win32,119.047619,1,1,8,0.412037037,0.096296275,1,0,0,1.2388,Obsidian_14,5,14,4,7,1.239,7,04,-0.377777771,-0.39907406,1,0,0,2.0206,Obsidian_rect,5,2.021,1,7,0,7,0,1,,,,,,,,,,,,
6413c7853eba2b2215197ff4,SCR,2024-06-10_11h44.30.273,LearnStrategy,2023.2.3,Win32,119.047619,1,1,9,-0.388888889,0.093518504,1,0,0,1.8551,Obsidian_16,5,16,4,2,1.855,3,13,-0.410185178,-0.410185213,1,0,0,1.0094,Obsidian_rect,5,1.009,1,8,0,8,0,1,,,,,,,,,,,,
6413c7853eba2b2215197ff4,SCR,2024-06-10_11h44.30.273,LearnStrategy,2023.2.3,Win32,119.047619,1,1,10,-0.211111069,-0.411111125,1,0,0,6.8844,Pumice_04,8,04,1,3,6.884,6,09,0.406481566,-0.397222236,1,0,0,1.2805,Pumice_rect,8,1.28,1,9,0,9,0,1,,,,,,,,,,,,
6413c7853eba2b2215197ff4,SCR,2024-06-10_11h44.30.273,LearnStrategy,2023.2.3,Win32,119.047619,1,1,11,0.117592635,-0.117592635,1,0,0,2.0136,Pumice_08,8,08,3,5,2.014,2,09,0.444444444,-0.410185213,1,0,0,0.939,Pumice_rect,8,0.939,1,10,0,10,0,1,,,,,,,,,,,,
6413c7853eba2b2215197ff4,SCR,2024-06-10_11h44.30.273,LearnStrategy,2023.2.3,Win32,119.047619,1,1,12,-0.07222218,0.409259257,1,0,0,6.9278,Pegmatite_16,6,16,6,4,6.928,2,10,-0.395370377,-0.242592635,1,0,0,5.2037,Andesite_rect,1,5.204,0,11,0,11,0,1,,,,,,,,,,,,
6413c7853eba2b2215197ff4,SCR,2024-06-10_11h44.30.273,LearnStrategy,2023.2.3,Win32,119.047619,1,1,13,-0.368518511,-0.085185192,1,0,0,3.2787,Pegmatite_08,6,08,3,2,3.279,5,16,-0.14444443,-0.396296325,1,0,0,3.4833,Pegmatite_rect,6,3.483,1,12,0,12,0,1,,,,,,,,,,,,
6413c7853eba2b2215197ff4,SCR,2024-06-10_11h44.30.273,LearnStrategy,2023.2.3,Win32,119.047619,1,1,14,0.104629658,0.424074076,1,0,0,4.271,Pegmatite_05,6,05,6,5,4.271,8,03,-0.104629587,-0.404629672,1,0,0,4.8327,Pegmatite_rect,6,4.833,1,13,0,13,0,1,,,,,,,,,,,,
6413c7853eba2b2215197ff4,SCR,2024-06-10_11h44.30.273,LearnStrategy,2023.2.3,Win32,119.047619,1,1,15,0.399999972,-0.421296296,1,0,0,4.1467,Peridotite_04,7,04,1,7,4.147,4,14,0.365740741,-0.264814801,1,0,0,7.4126,Gabbro_rect,4,7.413,0,14,0,14,0,1,,,,,,,,,,,,
6413c7853eba2b2215197ff4,SCR,2024-06-10_11h44.30.273,LearnStrategy,2023.2.3,Win32,119.047619,1,1,16,0.090740769,0.405555557,1,0,0,7.618,Pegmatite_05,6,05,6,5,7.618,3,15,0.139814801,-0.400000042,1,0,0,2.8292,Peridotite_rect,7,2.829,0,15,0,15,0,1,,,,,,,,,,,,
6413c7853eba2b2215197ff4,SCR,2024-06-10_11h44.30.273,LearnStrategy,2023.2.3,Win32,119.047619,1,2,1,,,,,,,,6,03,,,,,,,,,,,,,7,10.575,0,,,,,,0.12037037,-0.391666695,1,0,0,10.5747,Peridotite_rect,0,0,0,0,1
6413c7853eba2b2215197ff4,SCR,2024-06-10_11h44.30.273,LearnStrategy,2023.2.3,Win32,119.047619,1,2,2,,,,,,,,6,15,,,,,,,,,,,,,1,11.569,0,,,,,,-0.395370377,-0.25,1,0,0,11.5691,Andesite_rect,1,0,1,0,1
6413c7853eba2b2215197ff4,SCR,2024-06-10_11h44.30.273,LearnStrategy,2023.2.3,Win32,119.047619,1,2,3,,,,,,,,8,14,,,,,,,,,,,,,8,2.349,1,,,,,,0.40833339,-0.412962949,1,0,0,2.3487,Pumice_rect,2,0,2,0,1
6413c7853eba2b2215197ff4,SCR,2024-06-10_11h44.30.273,LearnStrategy,2023.2.3,Win32,119.047619,1,2,4,,,,,,,,4,15,,,,,,,,,,,,,6,7.096,0,,,,,,-0.115740741,-0.407407407,1,0,0,7.0962,Pegmatite_rect,3,0,3,0,1
6413c7853eba2b2215197ff4,SCR,2024-06-10_11h44.30.273,LearnStrategy,2023.2.3,Win32,119.047619,1,2,5,,,,,,,,7,07,,,,,,,,,,,,,6,3.434,0,,,,,,-0.117592564,-0.408333319,1,0,0,3.4337,Pegmatite_rect,4,0,4,0,1
6413c7853eba2b2215197ff4,SCR,2024-06-10_11h44.30.273,LearnStrategy,2023.2.3,Win32,119.047619,1,2,6,,,,,,,,2,11,,,,,,,,,,,,,6,1.935,0,,,,,,-0.117592564,-0.40370369,1,0,0,1.9347,Pegmatite_rect,5,0,5,0,1
6413c7853eba2b2215197ff4,SCR,2024-06-10_11h44.30.273,LearnStrategy,2023.2.3,Win32,119.047619,1,2,7,,,,,,,,5,04,,,,,,,,,,,,,5,1.382,1,,,,,,-0.347222222,-0.387962977,1,0,0,1.3821,Obsidian_rect,6,0,6,0,1
6413c7853eba2b2215197ff4,SCR,2024-06-10_11h44.30.273,LearnStrategy,2023.2.3,Win32,119.047619,1,2,8,,,,,,,,8,13,,,,,,,,,,,,,1,5.798,0,,,,,,-0.35833334,-0.236111111,1,0,0,5.7978,Andesite_rect,7,0,7,0,1
6413c7853eba2b2215197ff4,SCR,2024-06-10_11h44.30.273,LearnStrategy,2023.2.3,Win32,119.047619,1,2,9,,,,,,,,7,05,,,,,,,,,,,,,6,2.478,0,,,,,,-0.149999972,-0.400000042,1,0,0,2.4781,Pegmatite_rect,8,0,8,0,1
6413c7853eba2b2215197ff4,SCR,2024-06-10_11h44.30.273,LearnStrategy,2023.2.3,Win32,119.047619,1,2,10,,,,,,,,1,05,,,,,,,,,,,,,6,2.225,0,,,,,,-0.148148148,-0.396296325,1,0,0,2.2247,Pegmatite_rect,9,0,9,0,1
6413c7853eba2b2215197ff4,SCR,2024-06-10_11h44.30.273,LearnStrategy,2023.2.3,Win32,119.047619,1,2,11,,,,,,,,3,16,,,,,,,,,,,,,6,3.207,0,,,,,,-0.147222236,-0.392592607,1,0,0,3.207,Pegmatite_rect,10,0,10,0,1
6413c7853eba2b2215197ff4,SCR,2024-06-10_11h44.30.273,LearnStrategy,2023.2.3,Win32,119.047619,1,2,12,,,,,,,,3,14,,,,,,,,,,,,,6,1.036,0,,,,,,-0.147222236,-0.392592607,1,0,0,1.036,Pegmatite_rect,11,0,11,0,1
6413c7853eba2b2215197ff4,SCR,2024-06-10_11h44.30.273,LearnStrategy,2023.2.3,Win32,119.047619,1,2,13,,,,,,,,4,11,,,,,,,,,,,,,6,1.362,0,,,,,,-0.147222236,-0.392592607,1,0,0,1.3618,Pegmatite_rect,12,0,12,0,1
6413c7853eba2b2215197ff4,SCR,2024-06-10_11h44.30.273,LearnStrategy,2023.2.3,Win32,119.047619,1,2,14,,,,,,,,2,14,,,,,,,,,,,,,1,6.452,0,,,,,,-0.359259252,-0.240740741,1,0,0,6.4523,Andesite_rect,13,0,13,0,1
6413c7853eba2b2215197ff4,SCR,2024-06-10_11h44.30.273,LearnStrategy,2023.2.3,Win32,119.047619,1,2,15,,,,,,,,1,11,,,,,,,,,,,,,1,1.455,1,,,,,,-0.360185164,-0.240740741,1,0,0,1.4549,Andesite_rect,14,0,14,0,1
6413c7853eba2b2215197ff4,SCR,2024-06-10_11h44.30.273,LearnStrategy,2023.2.3,Win32,119.047619,1,2,16,,,,,,,,5,05,,,,,,,,,,,,,5,2.8,1,,,,,,-0.322222215,-0.390740783,1,0,0,2.8,Obsidian_rect,15,0,15,0,1
6413c7853eba2b2215197ff4,SCR,2024-06-10_11h44.30.273,LearnStrategy,2023.2.3,Win32,119.047619,2,1,1,-0.404629637,0.404629628,1,0,0,7.1879,Diorite_12,3,12,6,2,7.188,7,13,-0.38703703,-0.239814829,1,0,0,5.8747,Andesite_rect,1,5.875,0,0,0,0,0,1,,,,,,,,,,,,
6413c7853eba2b2215197ff4,SCR,2024-06-10_11h44.30.273,LearnStrategy,2023.2.3,Win32,119.047619,2,1,2,-0.074074074,0.25462963,1,0,0,1.9804,Peridotite_12,7,12,5,4,1.98,2,02,0.159259302,-0.237963005,1,0,0,1.0526,Diorite_rect,3,1.053,0,1,0,1,0,1,,,,,,,,,,,,
6413c7853eba2b2215197ff4,SCR,2024-06-10_11h44.30.273,LearnStrategy,2023.2.3,Win32,119.047619,2,1,3,0.217592593,0.408333328,1,0,0,3.3546,Diorite_10,3,10,6,6,3.355,1,04,0.155555584,-0.246296282,1,0,0,3.2234,Diorite_rect,3,3.223,1,2,0,2,0,1,,,,,,,,,,,,
6413c7853eba2b2215197ff4,SCR,2024-06-10_11h44.30.273,LearnStrategy,2023.2.3,Win32,119.047619,2,1,4,-0.104629587,0.271296289,1,0,0,2.7112,Peridotite_12,7,12,5,4,2.711,3,10,0.14907406,-0.237037023,1,0,0,1.1087,Diorite_rect,3,1.109,0,3,0,3,0,1,,,,,,,,,,,,
6413c7853eba2b2215197ff4,SCR,2024-06-10_11h44.30.273,LearnStrategy,2023.2.3,Win32,119.047619,2,1,5,-0.525000007,0.078703704,1,0,0,1.6972,Andesite_06,1,06,4,1,1.697,3,13,0.143518519,-0.25,1,0,0,1.6462,Diorite_rect,3,1.646,0,4,0,4,0,1,,,,,,,,,,,,
6413c7853eba2b2215197ff4,SCR,2024-06-10_11h44.30.273,LearnStrategy,2023.2.3,Win32,119.047619,2,1,6,-0.056481467,0.236111111,1,0,0,2.4054,Peridotite_12,7,12,5,4,2.405,6,11,0.131481524,-0.400000042,1,0,0,2.567,Peridotite_rect,7,2.567,1,5,0,5,0,1,,,,,,,,,,,,
6413c7853eba2b2215197ff4,SCR,2024-06-10_11h44.30.273,LearnStrategy,2023.2.3,Win32,119.047619,2,1,7,0.07685188,0.085185192,1,0,0,4.7824,Andesite_16,1,16,4,5,4.782,4,09,0.133333347,-0.389814801,1,0,0,3.9994,Peridotite_rect,7,3.999,0,6,0,6,0,1,,,,,,,,,,,,
6413c7853eba2b2215197ff4,SCR,2024-06-10_11h44.30.273,LearnStrategy,2023.2.3,Win32,119.047619,2,1,8,-0.214814787,-0.10555557,1,0,0,2.0309,Gabbro_03,4,03,3,3,2.031,6,08,-0.345370363,-0.246296282,1,0,0,1.9198,Andesite_rect,1,1.92,0,7,0,7,0,1,,,,,,,,,,,,
6413c7853eba2b2215197ff4,SCR,2024-06-10_11h44.30.273,LearnStrategy,2023.2.3,Win32,119.047619,2,1,9,-0.575925933,-0.402777778,1,0,0,4.5319,Peridotite_15,7,15,1,1,4.532,6,05,0.12037037,-0.395370413,1,0,0,1.5277,Peridotite_rect,7,1.528,1,8,0,8,0,1,,,,,,,,,,,,
6413c7853eba2b2215197ff4,SCR,2024-06-10_11h44.30.273,LearnStrategy,2023.2.3,Win32,119.047619,2,1,10,-0.525925919,-0.085185192,1,0,0,1.8279,Diorite_09,3,09,3,1,1.828,2,09,0.135185171,-0.389814801,1,0,0,1.7779,Peridotite_rect,7,1.778,0,9,0,9,0,1,,,,,,,,,,,,
6413c7853eba2b2215197ff4,SCR,2024-06-10_11h44.30.273,LearnStrategy,2023.2.3,Win32,119.047619,2,1,11,-0.365740741,-0.085185192,1,0,0,2.2525,Pegmatite_08,6,08,3,2,2.252,2,10,0.112963005,-0.40370369,1,0,0,4.959,Peridotite_rect,7,4.959,0,10,0,10,0,1,,,,,,,,,,,,
6413c7853eba2b2215197ff4,SCR,2024-06-10_11h44.30.273,LearnStrategy,2023.2.3,Win32,119.047619,2,1,12,-0.212037051,0.428703701,1,0,0,2.022,Pegmatite_11,6,11,6,3,2.022,7,15,-0.10092594,-0.400925954,1,0,0,1.7952,Pegmatite_rect,6,1.795,1,11,0,11,0,1,,,,,,,,,,,,
6413c7853eba2b2215197ff4,SCR,2024-06-10_11h44.30.273,LearnStrategy,2023.2.3,Win32,119.047619,2,1,13,-0.033333319,0.430555556,1,0,0,1.1694,Pegmatite_16,6,16,6,4,1.169,4,08,-0.098148134,-0.407407407,1,0,0,1.1185,Pegmatite_rect,6,1.119,1,12,0,12,0,1,,,,,,,,,,,,
6413c7853eba2b2215197ff4,SCR,2024-06-10_11h44.30.273,LearnStrategy,2023.2.3,Win32,119.047619,2,1,14,0.536111196,-0.087037051,1,0,0,4.9383,Gabbro_14,4,14,3,8,4.938,3,13,0.148148148,-0.395370413,1,0,0,5.3628,Peridotite_rect,7,5.363,0,13,0,13,0,1,,,,,,,,,,,,
6413c7853eba2b2215197ff4,SCR,2024-06-10_11h44.30.273,LearnStrategy,2023.2.3,Win32,119.047619,2,1,15,0.58148151,-0.416666667,1,0,0,8.7118,Gabbro_05,4,05,1,8,8.712,8,08,0.417592649,-0.244444459,1,0,0,1.5785,Gabbro_rect,4,1.578,1,14,0,14,0,1,,,,,,,,,,,,
6413c7853eba2b2215197ff4,SCR,2024-06-10_11h44.30.273,LearnStrategy,2023.2.3,Win32,119.047619,2,1,16,-0.372222229,-0.408333319,1,0,0,3.0585,Peridotite_10,7,10,1,2,3.058,1,02,0.125925912,-0.400000042,1,0,0,4.5052,Peridotite_rect,7,4.505,1,15,0,15,0,1,,,,,,,,,,,,
6413c7853eba2b2215197ff4,SCR,2024-06-10_11h44.30.273,LearnStrategy,2023.2.3,Win32,119.047619,2,2,1,,,,,,,,4,16,,,,,,,,,,,,,7,3.053,0,,,,,,0.154629672,-0.39444443,1,0,0,3.0528,Peridotite_rect,0,0,0,0,1
6413c7853eba2b2215197ff4,SCR,2024-06-10_11h44.30.273,LearnStrategy,2023.2.3,Win32,119.047619,2,2,2,,,,,,,,2,06,,,,,,,,,,,,,7,4.375,0,,,,,,0.134259259,-0.400925954,1,0,0,4.3752,Peridotite_rect,1,0,1,0,1
6413c7853eba2b2215197ff4,SCR,2024-06-10_11h44.30.273,LearnStrategy,2023.2.3,Win32,119.047619,2,2,3,,,,,,,,6,13,,,,,,,,,,,,,7,3.742,0,,,,,,0.134259259,-0.400925954,1,0,0,3.7422,Peridotite_rect,2,0,2,0,1
6413c7853eba2b2215197ff4,SCR,2024-06-10_11h44.30.273,LearnStrategy,2023.2.3,Win32,119.047619,2,2,4,,,,,,,,3,11,,,,,,,,,,,,,4,4.77,0,,,,,,0.412963019,-0.24537037,1,0,0,4.7695,Gabbro_rect,3,0,3,0,1
6413c7853eba2b2215197ff4,SCR,2024-06-10_11h44.30.273,LearnStrategy,2023.2.3,Win32,119.047619,2,2,5,,,,,,,,8,09,,,,,,,,,,,,,8,2.578,1,,,,,,0.390740712,-0.389814801,1,0,0,2.5785,Pumice_rect,4,0,4,0,1
6413c7853eba2b2215197ff4,SCR,2024-06-10_11h44.30.273,LearnStrategy,2023.2.3,Win32,119.047619,2,2,6,,,,,,,,5,02,,,,,,,,,,,,,5,1.597,1,,,,,,-0.347222222,-0.395370413,1,0,0,1.597,Obsidian_rect,5,0,5,0,1
6413c7853eba2b2215197ff4,SCR,2024-06-10_11h44.30.273,LearnStrategy,2023.2.3,Win32,119.047619,2,2,7,,,,,,,,7,16,,,,,,,,,,,,,7,2.078,1,,,,,,0.138888889,-0.389814801,1,0,0,2.0782,Peridotite_rect,6,0,6,0,1
6413c7853eba2b2215197ff4,SCR,2024-06-10_11h44.30.273,LearnStrategy,2023.2.3,Win32,119.047619,2,2,8,,,,,,,,5,11,,,,,,,,,,,,,5,1.319,1,,,,,,-0.41111109,-0.390740783,1,0,0,1.3191,Obsidian_rect,7,0,7,0,1
6413c7853eba2b2215197ff4,SCR,2024-06-10_11h44.30.273,LearnStrategy,2023.2.3,Win32,119.047619,2,2,9,,,,,,,,3,08,,,,,,,,,,,,,7,5.769,0,,,,,,0.111111111,-0.397222236,1,0,0,5.7695,Peridotite_rect,8,0,8,0,1
6413c7853eba2b2215197ff4,SCR,2024-06-10_11h44.30.273,LearnStrategy,2023.2.3,Win32,119.047619,2,2,10,,,,,,,,7,08,,,,,,,,,,,,,7,0.934,1,,,,,,0.108333376,-0.400000042,1,0,0,0.9338,Peridotite_rect,9,0,9,0,1
6413c7853eba2b2215197ff4,SCR,2024-06-10_11h44.30.273,LearnStrategy,2023.2.3,Win32,119.047619,2,2,11,,,,,,,,1,10,,,,,,,,,,,,,7,0.762,0,,,,,,0.10555557,-0.402777778,1,0,0,0.7616,Peridotite_rect,10,0,10,0,1
6413c7853eba2b2215197ff4,SCR,2024-06-10_11h44.30.273,LearnStrategy,2023.2.3,Win32,119.047619,2,2,12,,,,,,,,2,01,,,,,,,,,,,,,4,3.259,0,,,,,,0.445370427,-0.247222265,1,0,0,3.2594,Gabbro_rect,11,0,11,0,1
6413c7853eba2b2215197ff4,SCR,2024-06-10_11h44.30.273,LearnStrategy,2023.2.3,Win32,119.047619,2,2,13,,,,,,,,6,10,,,,,,,,,,,,,7,3.456,0,,,,,,0.12962963,-0.385185171,1,0,0,3.4556,Peridotite_rect,12,0,12,0,1
6413c7853eba2b2215197ff4,SCR,2024-06-10_11h44.30.273,LearnStrategy,2023.2.3,Win32,119.047619,2,2,14,,,,,,,,8,10,,,,,,,,,,,,,8,4.876,1,,,,,,0.369444529,-0.405555584,1,0,0,4.8758,Pumice_rect,13,0,13,0,1
6413c7853eba2b2215197ff4,SCR,2024-06-10_11h44.30.273,LearnStrategy,2023.2.3,Win32,119.047619,2,2,15,,,,,,,,1,14,,,,,,,,,,,,,7,3.479,0,,,,,,0.112963005,-0.387037065,1,0,0,3.4787,Peridotite_rect,14,0,14,0,1
6413c7853eba2b2215197ff4,SCR,2024-06-10_11h44.30.273,LearnStrategy,2023.2.3,Win32,119.047619,2,2,16,,,,,,,,4,01,,,,,,,,,,,,,7,1.115,0,,,,,,0.114814829,-0.393518519,1,0,0,1.1155,Peridotite_rect,15,0,15,0,1
6413c7853eba2b2215197ff4,SCR,2024-06-10_11h44.30.273,LearnStrategy,2023.2.3,Win32,119.047619,3,1,1,-0.551851838,0.411111108,1,0,0,3.5809,Gabbro_10,4,10,6,1,3.581,6,09,-0.373148141,-0.251851894,1,0,0,6.1365,Andesite_rect,1,6.136,0,0,0,0,0,1,,,,,,,,,,,,
6413c7853eba2b2215197ff4,SCR,2024-06-10_11h44.30.273,LearnStrategy,2023.2.3,Win32,119.047619,3,1,2,-0.543518526,0.397222219,1,0,0,1.2556,Gabbro_10,4,10,6,1,1.256,2,02,0.350000028,-0.235185199,1,0,0,1.4058,Gabbro_rect,4,1.406,1,1,0,1,0,1,,,,,,,,,,,,
6413c7853eba2b2215197ff4,SCR,2024-06-10_11h44.30.273,LearnStrategy,2023.2.3,Win32,119.047619,3,1,3,-0.389814801,0.412037037,1,0,0,3.1889,Diorite_12,3,12,6,2,3.189,7,12,0.134259259,-0.25,1,0,0,2.8585,Diorite_rect,3,2.858,1,2,0,2,0,1,,,,,,,,,,,,
6413c7853eba2b2215197ff4,SCR,2024-06-10_11h44.30.273,LearnStrategy,2023.2.3,Win32,119.047619,3,1,4,-0.24537037,0.413888887,1,0,0,1.7133,Pegmatite_11,6,11,6,3,1.713,3,09,0.12962963,-0.389814801,1,0,0,6.7156,Peridotite_rect,7,6.716,0,3,0,3,0,1,,,,,,,,,,,,
6413c7853eba2b2215197ff4,SCR,2024-06-10_11h44.30.273,LearnStrategy,2023.2.3,Win32,119.047619,3,1,5,-0.066666638,0.44074074,1,0,0,1.689,Pegmatite_16,6,16,6,4,1.689,6,12,-0.116666653,-0.413888931,1,0,0,1.1466,Pegmatite_rect,6,1.147,1,4,0,4,0,1,,,,,,,,,,,,
6413c7853eba2b2215197ff4,SCR,2024-06-10_11h44.30.273,LearnStrategy,2023.2.3,Win32,119.047619,3,1,6,-0.410185178,-0.082407422,1,0,0,1.4362,Pegmatite_08,6,08,3,2,1.436,6,05,-0.162037037,-0.393518519,1,0,0,0.9107,Pegmatite_rect,6,0.911,1,5,0,5,0,1,,,,,,,,,,,,
6413c7853eba2b2215197ff4,SCR,2024-06-10_11h44.30.273,LearnStrategy,2023.2.3,Win32,119.047619,3,1,7,0.089814857,0.420370367,1,0,0,3.6132,Pegmatite_05,6,05,6,5,3.613,2,10,0.156481496,-0.231481481,1,0,0,2.596,Diorite_rect,3,2.596,0,6,0,6,0,1,,,,,,,,,,,,
6413c7853eba2b2215197ff4,SCR,2024-06-10_11h44.30.273,LearnStrategy,2023.2.3,Win32,119.047619,3,1,8,-0.073148162,0.401851848,1,0,0,1.6017,Pegmatite_16,6,16,6,4,1.602,4,03,-0.131481453,-0.404629672,1,0,0,1.272,Pegmatite_rect,6,1.272,1,7,0,7,0,1,,,,,,,,,,,,
6413c7853eba2b2215197ff4,SCR,2024-06-10_11h44.30.273,LearnStrategy,2023.2.3,Win32,119.047619,3,1,9,0.238888917,0.405555557,1,0,0,1.6917,Diorite_10,3,10,6,6,1.692,4,08,0.404629601,-0.261111153,1,0,0,4.3536,Gabbro_rect,4,4.354,0,8,0,8,0,1,,,,,,,,,,,,
6413c7853eba2b2215197ff4,SCR,2024-06-10_11h44.30.273,LearnStrategy,2023.2.3,Win32,119.047619,3,1,10,0.220370399,0.104629623,1,0,0,3.4625,Diorite_15,3,15,4,6,3.462,8,06,0.148148148,-0.244444459,1,0,0,1.0038,Diorite_rect,3,1.004,1,9,0,9,0,1,,,,,,,,,,,,
6413c7853eba2b2215197ff4,SCR,2024-06-10_11h44.30.273,LearnStrategy,2023.2.3,Win32,119.047619,3,1,11,-0.544444437,-0.08888891,1,0,0,2.5262,Diorite_09,3,09,3,1,2.526,4,05,0.187962991,-0.249074088,1,0,0,1.0758,Diorite_rect,3,1.076,1,10,0,10,0,1,,,,,,,,,,,,
6413c7853eba2b2215197ff4,SCR,2024-06-10_11h44.30.273,LearnStrategy,2023.2.3,Win32,119.047619,3,1,12,-0.544444437,-0.246296282,1,0,0,2.072,Andesite_02,1,02,2,1,2.072,3,06,0.159259302,-0.24537037,1,0,0,1.1899,Diorite_rect,3,1.19,0,11,0,11,0,1,,,,,,,,,,,,
6413c7853eba2b2215197ff4,SCR,2024-06-10_11h44.30.273,LearnStrategy,2023.2.3,Win32,119.047619,3,1,13,0.397222307,-0.410185213,1,0,0,4.5437,Peridotite_04,7,04,1,7,4.544,7,15,0.151851866,-0.247222265,1,0,0,1.7219,Diorite_rect,3,1.722,0,12,0,12,0,1,,,,,,,,,,,,
6413c7853eba2b2215197ff4,SCR,2024-06-10_11h44.30.273,LearnStrategy,2023.2.3,Win32,119.047619,3,1,14,-0.054629644,-0.122222265,1,0,0,1.8137,Peridotite_06,7,06,3,4,1.814,2,09,0.12037037,-0.240740741,1,0,0,1.4261,Diorite_rect,3,1.426,0,13,0,13,0,1,,,,,,,,,,,,
6413c7853eba2b2215197ff4,SCR,2024-06-10_11h44.30.273,LearnStrategy,2023.2.3,Win32,119.047619,3,1,15,0.388888889,-0.232407393,1,0,0,3.3798,Pumice_15,8,15,2,7,3.38,1,16,0.150000042,-0.244444459,1,0,0,1.2187,Diorite_rect,3,1.219,0,14,0,14,0,1,,,,,,,,,,,,
6413c7853eba2b2215197ff4,SCR,2024-06-10_11h44.30.273,LearnStrategy,2023.2.3,Win32,119.047619,3,1,16,-0.413888896,-0.423148191,1,0,0,4.3803,Peridotite_10,7,10,1,2,4.38,3,13,0.155555584,-0.241666653,1,0,0,1.2968,Diorite_rect,3,1.297,0,15,0,15,0,1,,,,,,,,,,,,
6413c7853eba2b2215197ff4,SCR,2024-06-10_11h44.30.273,LearnStrategy,2023.2.3,Win32,119.047619,3,2,1,,,,,,,,2,08,,,,,,,,,,,,,4,5.067,0,,,,,,0.411111196,-0.251851894,1,0,0,5.0675,Gabbro_rect,0,0,0,0,1
6413c7853eba2b2215197ff4,SCR,2024-06-10_11h44.30.273,LearnStrategy,2023.2.3,Win32,119.047619,3,2,2,,,,,,,,5,07,,,,,,,,,,,,,5,1.852,1,,,,,,-0.393518519,-0.39907406,1,0,0,1.8516,Obsidian_rect,1,0,1,0,1
6413c7853eba2b2215197ff4,SCR,2024-06-10_11h44.30.273,LearnStrategy,2023.2.3,Win32,119.047619,3,2,3,,,,,,,,8,16,,,,,,,,,,,,,8,1.857,1,,,,,,0.378703788,-0.396296325,1,0,0,1.8575,Pumice_rect,2,0,2,0,1
6413c7853eba2b2215197ff4,SCR,2024-06-10_11h44.30.273,LearnStrategy,2023.2.3,Win32,119.047619,3,2,4,,,,,,,,6,06,,,,,,,,,,,,,7,3.413,0,,,,,,0.156481496,-0.404629672,1,0,0,3.4135,Peridotite_rect,3,0,3,0,1
6413c7853eba2b2215197ff4,SCR,2024-06-10_11h44.30.273,LearnStrategy,2023.2.3,Win32,119.047619,3,2,5,,,,,,,,3,02,,,,,,,,,,,,,3,2.42,1,,,,,,0.159259302,-0.242592635,1,0,0,2.4197,Diorite_rect,4,0,4,0,1
6413c7853eba2b2215197ff4,SCR,2024-06-10_11h44.30.273,LearnStrategy,2023.2.3,Win32,119.047619,3,2,6,,,,,,,,5,06,,,,,,,,,,,,,5,1.202,1,,,,,,-0.378703683,-0.39444443,1,0,0,1.2025,Obsidian_rect,5,0,5,0,1
6413c7853eba2b2215197ff4,SCR,2024-06-10_11h44.30.273,LearnStrategy,2023.2.3,Win32,119.047619,3,2,7,,,,,,,,4,13,,,,,,,,,,,,,7,4.302,0,,,,,,0.152777778,-0.39444443,1,0,0,4.3017,Peridotite_rect,6,0,6,0,1
6413c7853eba2b2215197ff4,SCR,2024-06-10_11h44.30.273,LearnStrategy,2023.2.3,Win32,119.047619,3,2,8,,,,,,,,1,07,,,,,,,,,,,,,4,3.073,0,,,,,,0.414814843,-0.241666653,1,0,0,3.0726,Gabbro_rect,7,0,7,0,1
6413c7853eba2b2215197ff4,SCR,2024-06-10_11h44.30.273,LearnStrategy,2023.2.3,Win32,119.047619,3,2,9,,,,,,,,7,14,,,,,,,,,,,,,7,2.945,1,,,,,,0.093518504,-0.405555584,1,0,0,2.945,Peridotite_rect,8,0,8,0,1
6413c7853eba2b2215197ff4,SCR,2024-06-10_11h44.30.273,LearnStrategy,2023.2.3,Win32,119.047619,3,2,10,,,,,,,,4,12,,,,,,,,,,,,,3,4.301,0,,,,,,0.131481524,-0.242592635,1,0,0,4.3008,Diorite_rect,9,0,9,0,1
6413c7853eba2b2215197ff4,SCR,2024-06-10_11h44.30.273,LearnStrategy,2023.2.3,Win32,119.047619,3,2,11,,,,,,,,7,02,,,,,,,,,,,,,7,2.454,1,,,,,,0.137962977,-0.39907406,1,0,0,2.4539,Peridotite_rect,10,0,10,0,1
6413c7853eba2b2215197ff4,SCR,2024-06-10_11h44.30.273,LearnStrategy,2023.2.3,Win32,119.047619,3,2,12,,,,,,,,3,07,,,,,,,,,,,,,7,1.524,0,,,,,,0.137962977,-0.39907406,1,0,0,1.5237,Peridotite_rect,11,0,11,0,1
6413c7853eba2b2215197ff4,SCR,2024-06-10_11h44.30.273,LearnStrategy,2023.2.3,Win32,119.047619,3,2,13,,,,,,,,2,12,,,,,,,,,,,,,7,1.877,0,,,,,,0.137962977,-0.39907406,1,0,0,1.8766,Peridotite_rect,12,0,12,0,1
6413c7853eba2b2215197ff4,SCR,2024-06-10_11h44.30.273,LearnStrategy,2023.2.3,Win32,119.047619,3,2,14,,,,,,,,6,07,,,,,,,,,,,,,7,0.998,0,,,,,,0.137962977,-0.39907406,1,0,0,0.998,Peridotite_rect,13,0,13,0,1
6413c7853eba2b2215197ff4,SCR,2024-06-10_11h44.30.273,LearnStrategy,2023.2.3,Win32,119.047619,3,2,15,,,,,,,,8,02,,,,,,,,,,,,,8,1.587,1,,,,,,0.362962935,-0.387962977,1,0,0,1.5869,Pumice_rect,14,0,14,0,1
6413c7853eba2b2215197ff4,SCR,2024-06-10_11h44.30.273,LearnStrategy,2023.2.3,Win32,119.047619,3,2,16,,,,,,,,1,01,,,,,,,,,,,,,4,2.293,0,,,,,,0.350000028,-0.247222265,1,0,0,2.2933,Gabbro_rect,15,0,15,0,1
6413c7853eba2b2215197ff4,SCR,2024-06-10_11h44.30.273,LearnStrategy,2023.2.3,Win32,119.047619,4,1,1,-0.565740727,0.25833333,1,0,0,5.7289,Andesite_04,1,04,5,1,5.729,2,04,-0.051851838,-0.258333347,1,0,0,2.891,Basalt_rect,2,2.891,0,0,0,0,0,1,,,,,,,,,,,,
6413c7853eba2b2215197ff4,SCR,2024-06-10_11h44.30.273,LearnStrategy,2023.2.3,Win32,119.047619,4,1,2,-0.550925926,0.276851848,1,0,0,1.137,Andesite_04,1,04,5,1,1.137,6,09,-0.364814794,-0.25,1,0,0,0.9629,Andesite_rect,1,0.963,1,1,0,1,0,1,,,,,,,,,,,,
6413c7853eba2b2215197ff4,SCR,2024-06-10_11h44.30.273,LearnStrategy,2023.2.3,Win32,119.047619,4,1,3,0.086111139,0.110185164,1,0,0,8.2675,Andesite_16,1,16,4,5,8.268,7,15,-0.400000007,-0.233333376,1,0,0,1.5263,Andesite_rect,1,1.526,1,2,0,2,0,1,,,,,,,,,,,,
6413c7853eba2b2215197ff4,SCR,2024-06-10_11h44.30.273,LearnStrategy,2023.2.3,Win32,119.047619,4,1,4,0.05740745,0.10833334,1,0,0,2.3635,Andesite_16,1,16,4,5,2.364,2,10,-0.395370377,-0.241666653,1,0,0,1.2598,Andesite_rect,1,1.26,1,3,0,3,0,1,,,,,,,,,,,,
6413c7853eba2b2215197ff4,SCR,2024-06-10_11h44.30.273,LearnStrategy,2023.2.3,Win32,119.047619,4,1,5,-0.52870369,0.256481471,1,0,0,8.0262,Andesite_04,1,04,5,1,8.026,4,08,-0.400000007,-0.238888917,1,0,0,2.2429,Andesite_rect,1,2.243,1,4,0,4,0,1,,,,,,,,,,,,
6413c7853eba2b2215197ff4,SCR,2024-06-10_11h44.30.273,LearnStrategy,2023.2.3,Win32,119.047619,4,1,6,0.591666751,-0.261111153,1,0,0,2.4017,Basalt_09,2,09,2,8,2.402,2,16,-0.427777785,-0.242592635,1,0,0,1.5245,Andesite_rect,1,1.524,0,5,0,5,0,1,,,,,,,,,,,,
6413c7853eba2b2215197ff4,SCR,2024-06-10_11h44.30.273,LearnStrategy,2023.2.3,Win32,119.047619,4,1,7,0.229629658,-0.262037065,1,0,0,2.947,Basalt_02,2,02,2,6,2.947,4,05,-0.088888875,-0.25,1,0,0,0.8143,Basalt_rect,2,0.814,1,6,0,6,0,1,,,,,,,,,,,,
6413c7853eba2b2215197ff4,SCR,2024-06-10_11h44.30.273,LearnStrategy,2023.2.3,Win32,119.047619,4,1,8,-0.04814812,0.093518504,1,0,0,1.2648,Andesite_09,1,09,4,4,1.265,1,04,-0.131481453,-0.242592635,1,0,0,0.859,Basalt_rect,2,0.859,0,7,0,7,0,1,,,,,,,,,,,,
6413c7853eba2b2215197ff4,SCR,2024-06-10_11h44.30.273,LearnStrategy,2023.2.3,Win32,119.047619,4,1,9,0.266666695,-0.256481524,1,0,0,4.6547,Basalt_02,2,02,2,6,4.655,1,03,-0.146296254,-0.246296282,1,0,0,1.0609,Basalt_rect,2,1.061,1,8,0,8,0,1,,,,,,,,,,,,
6413c7853eba2b2215197ff4,SCR,2024-06-10_11h44.30.273,LearnStrategy,2023.2.3,Win32,119.047619,4,1,10,0.409259231,0.249074071,1,0,0,2.2745,Basalt_10,2,10,5,7,2.274,4,08,-0.117592564,-0.25,1,0,0,2.4458,Basalt_rect,2,2.446,1,9,0,9,0,1,,,,,,,,,,,,
6413c7853eba2b2215197ff4,SCR,2024-06-10_11h44.30.273,LearnStrategy,2023.2.3,Win32,119.047619,4,1,11,-0.063888903,0.096296275,1,0,0,3.1583,Andesite_09,1,09,4,4,3.158,6,08,-0.15370369,-0.247222265,1,0,0,1.5007,Basalt_rect,2,1.501,0,10,0,10,0,1,,,,,,,,,,,,
6413c7853eba2b2215197ff4,SCR,2024-06-10_11h44.30.273,LearnStrategy,2023.2.3,Win32,119.047619,4,1,12,0.407407407,0.405555557,1,0,0,19.5506,Basalt_04,2,04,6,7,19.551,3,10,-0.097222222,-0.252777806,1,0,0,1.6639,Basalt_rect,2,1.664,1,11,0,11,0,1,,,,,,,,,,,,
6413c7853eba2b2215197ff4,SCR,2024-06-10_11h44.30.273,LearnStrategy,2023.2.3,Win32,119.047619,4,1,13,0.397222307,0.260185189,1,0,0,2.2356,Basalt_10,2,10,5,7,2.236,3,12,-0.128703718,-0.255555541,1,0,0,1.2778,Basalt_rect,2,1.278,1,12,0,12,0,1,,,,,,,,,,,,
6413c7853eba2b2215197ff4,SCR,2024-06-10_11h44.30.273,LearnStrategy,2023.2.3,Win32,119.047619,4,1,14,0.236111111,0.262962959,1,0,0,3.0301,Basalt_05,2,05,5,6,3.03,7,10,-0.107407393,-0.24537037,1,0,0,1.2488,Basalt_rect,2,1.249,1,13,0,13,0,1,,,,,,,,,,,,
6413c7853eba2b2215197ff4,SCR,2024-06-10_11h44.30.273,LearnStrategy,2023.2.3,Win32,119.047619,4,1,15,0.237963005,-0.25,1,0,0,2.5758,Basalt_02,2,02,2,6,2.576,8,03,-0.104629587,-0.238888917,1,0,0,1.2868,Basalt_rect,2,1.287,1,14,0,14,0,1,,,,,,,,,,,,
6413c7853eba2b2215197ff4,SCR,2024-06-10_11h44.30.273,LearnStrategy,2023.2.3,Win32,119.047619,4,1,16,0.545370455,-0.255555541,1,0,0,1.6057,Basalt_09,2,09,2,8,1.606,6,11,-0.110185199,-0.240740741,1,0,0,1.2012,Basalt_rect,2,1.201,1,15,0,15,0,1,,,,,,,,,,,,
6413c7853eba2b2215197ff4,SCR,2024-06-10_11h44.30.273,LearnStrategy,2023.2.3,Win32,119.047619,4,2,1,,,,,,,,7,08,,,,,,,,,,,,,1,3.396,0,,,,,,-0.400000007,-0.249074088,1,0,0,3.3959,Andesite_rect,0,0,0,0,1
6413c7853eba2b2215197ff4,SCR,2024-06-10_11h44.30.273,LearnStrategy,2023.2.3,Win32,119.047619,4,2,2,,,,,,,,8,14,,,,,,,,,,,,,8,2.425,1,,,,,,0.365740741,-0.418518561,1,0,0,2.4248,Pumice_rect,1,0,1,0,1
6413c7853eba2b2215197ff4,SCR,2024-06-10_11h44.30.273,LearnStrategy,2023.2.3,Win32,119.047619,4,2,3,,,,,,,,8,02,,,,,,,,,,,,,8,1.003,1,,,,,,0.381481453,-0.400925954,1,0,0,1.0028,Pumice_rect,2,0,2,0,1
6413c7853eba2b2215197ff4,SCR,2024-06-10_11h44.30.273,LearnStrategy,2023.2.3,Win32,119.047619,4,2,4,,,,,,,,5,06,,,,,,,,,,,,,5,1.294,1,,,,,,-0.395370377,-0.382407436,1,0,0,1.294,Obsidian_rect,3,0,3,0,1
6413c7853eba2b2215197ff4,SCR,2024-06-10_11h44.30.273,LearnStrategy,2023.2.3,Win32,119.047619,4,2,5,,,,,,,,6,07,,,,,,,,,,,,,7,2.1,0,,,,,,0.119444459,-0.400000042,1,0,0,2.1002,Peridotite_rect,4,0,4,0,1
6413c7853eba2b2215197ff4,SCR,2024-06-10_11h44.30.273,LearnStrategy,2023.2.3,Win32,119.047619,4,2,6,,,,,,,,4,15,,,,,,,,,,,,,7,1.308,0,,,,,,0.119444459,-0.400000042,1,0,0,1.3085,Peridotite_rect,5,0,5,0,1
6413c7853eba2b2215197ff4,SCR,2024-06-10_11h44.30.273,LearnStrategy,2023.2.3,Win32,119.047619,4,2,7,,,,,,,,7,14,,,,,,,,,,,,,1,2.476,0,,,,,,-0.425925926,-0.247222265,1,0,0,2.4756,Andesite_rect,6,0,6,0,1
6413c7853eba2b2215197ff4,SCR,2024-06-10_11h44.30.273,LearnStrategy,2023.2.3,Win32,119.047619,4,2,8,,,,,,,,3,14,,,,,,,,,,,,,1,1.428,0,,,,,,-0.425925926,-0.24537037,1,0,0,1.4281,Andesite_rect,7,0,7,0,1
6413c7853eba2b2215197ff4,SCR,2024-06-10_11h44.30.273,LearnStrategy,2023.2.3,Win32,119.047619,4,2,9,,,,,,,,6,03,,,,,,,,,,,,,7,1.318,0,,,,,,0.112037023,-0.402777778,1,0,0,1.3178,Peridotite_rect,8,0,8,0,1
6413c7853eba2b2215197ff4,SCR,2024-06-10_11h44.30.273,LearnStrategy,2023.2.3,Win32,119.047619,4,2,10,,,,,,,,5,04,,,,,,,,,,,,,5,1.277,1,,,,,,-0.38703703,-0.383333347,1,0,0,1.2766,Obsidian_rect,9,0,9,0,1
6413c7853eba2b2215197ff4,SCR,2024-06-10_11h44.30.273,LearnStrategy,2023.2.3,Win32,119.047619,4,2,11,,,,,,,,1,14,,,,,,,,,,,,,7,3.496,0,,,,,,0.125,-0.389814801,1,0,0,3.4959,Peridotite_rect,10,0,10,0,1
6413c7853eba2b2215197ff4,SCR,2024-06-10_11h44.30.273,LearnStrategy,2023.2.3,Win32,119.047619,4,2,12,,,,,,,,2,11,,,,,,,,,,,,,6,4.235,0,,,,,,-0.137962977,-0.402777778,1,0,0,4.235,Pegmatite_rect,11,0,11,0,1
6413c7853eba2b2215197ff4,SCR,2024-06-10_11h44.30.273,LearnStrategy,2023.2.3,Win32,119.047619,4,2,13,,,,,,,,2,12,,,,,,,,,,,,,8,1.286,0,,,,,,0.392592677,-0.391666695,1,0,0,1.2858,Pumice_rect,12,0,12,0,1
6413c7853eba2b2215197ff4,SCR,2024-06-10_11h44.30.273,LearnStrategy,2023.2.3,Win32,119.047619,4,2,14,,,,,,,,1,01,,,,,,,,,,,,,6,3.859,0,,,,,,-0.115740741,-0.386111153,1,0,0,3.8594,Pegmatite_rect,13,0,13,0,1
6413c7853eba2b2215197ff4,SCR,2024-06-10_11h44.30.273,LearnStrategy,2023.2.3,Win32,119.047619,4,2,15,,,,,,,,3,16,,,,,,,,,,,,,6,2.079,0,,,,,,-0.113888847,-0.384259259,1,0,0,2.0785,Pegmatite_rect,14,0,14,0,1
6413c7853eba2b2215197ff4,SCR,2024-06-10_11h44.30.273,LearnStrategy,2023.2.3,Win32,119.047619,4,2,16,,,,,,,,4,01,,,,,,,,,,,,,6,0.88,0,,,,,,-0.113888847,-0.384259259,1,0,0,0.8798,Pegmatite_rect,15,0,15,0,1
6413c7853eba2b2215197ff4,SCR,2024-06-10_11h44.30.273,LearnStrategy,2023.2.3,Win32,119.047619,5,1,1,0.393518519,-0.086111104,1,0,0,2.1677,Peridotite_13,7,13,3,7,2.168,6,12,0.384259259,-0.243518547,1,0,0,1.3512,Gabbro_rect,4,1.351,0,0,0,0,0,1,,,,,,,,,,,,
6413c7853eba2b2215197ff4,SCR,2024-06-10_11h44.30.273,LearnStrategy,2023.2.3,Win32,119.047619,5,1,2,0.233333376,0.115740741,1,0,0,2.8939,Diorite_15,3,15,4,6,2.894,1,09,0.139814801,-0.382407436,1,0,0,1.7409,Peridotite_rect,7,1.741,0,1,0,1,0,1,,,,,,,,,,,,
6413c7853eba2b2215197ff4,SCR,2024-06-10_11h44.30.273,LearnStrategy,2023.2.3,Win32,119.047619,5,1,3,0.396296325,-0.100000028,1,0,0,2.8888,Peridotite_13,7,13,3,7,2.889,6,05,0.169444473,-0.248148176,1,0,0,1.2766,Diorite_rect,3,1.277,0,2,0,2,0,1,,,,,,,,,,,,
6413c7853eba2b2215197ff4,SCR,2024-06-10_11h44.30.273,LearnStrategy,2023.2.3,Win32,119.047619,5,1,4,-0.051851838,-0.114814829,1,0,0,1.381,Peridotite_06,7,06,3,4,1.381,2,02,0.114814829,-0.241666653,1,0,0,1.822,Diorite_rect,3,1.822,0,3,0,3,0,1,,,,,,,,,,,,
6413c7853eba2b2215197ff4,SCR,2024-06-10_11h44.30.273,LearnStrategy,2023.2.3,Win32,119.047619,5,1,5,-0.224074046,-0.10555557,1,0,0,1.4221,Gabbro_03,4,03,3,3,1.422,6,12,-0.365740741,-0.235185199,1,0,0,1.8699,Andesite_rect,1,1.87,0,4,0,4,0,1,,,,,,,,,,,,
6413c7853eba2b2215197ff4,SCR,2024-06-10_11h44.30.273,LearnStrategy,2023.2.3,Win32,119.047619,5,1,6,-0.40370369,0.282407407,1,0,0,3.9609,Andesite_03,1,03,5,2,3.961,7,04,0.137962977,-0.241666653,1,0,0,1.7935,Diorite_rect,3,1.793,0,5,0,5,0,1,,,,,,,,,,,,
6413c7853eba2b2215197ff4,SCR,2024-06-10_11h44.30.273,LearnStrategy,2023.2.3,Win32,119.047619,5,1,7,-0.06759255,0.099074081,1,0,0,2.798,Andesite_09,1,09,4,4,2.798,2,09,-0.364814794,-0.234259288,1,0,0,0.8105,Andesite_rect,1,0.811,1,6,0,6,0,1,,,,,,,,,,,,
6413c7853eba2b2215197ff4,SCR,2024-06-10_11h44.30.273,LearnStrategy,2023.2.3,Win32,119.047619,5,1,8,0.251851894,-0.255555541,1,0,0,1.5809,Basalt_02,2,02,2,6,1.581,4,03,-0.348148134,-0.235185199,1,0,0,1.2213,Andesite_rect,1,1.221,0,7,0,7,0,1,,,,,,,,,,,,
6413c7853eba2b2215197ff4,SCR,2024-06-10_11h44.30.273,LearnStrategy,2023.2.3,Win32,119.047619,5,1,9,-0.41574072,-0.40370369,1,0,0,1.3783,Peridotite_10,7,10,1,2,1.378,3,13,-0.117592564,-0.24537037,1,0,0,2.6996,Basalt_rect,2,2.7,0,8,0,8,0,1,,,,,,,,,,,,
6413c7853eba2b2215197ff4,SCR,2024-06-10_11h44.30.273,LearnStrategy,2023.2.3,Win32,119.047619,5,1,10,-0.574074074,-0.26944443,1,0,0,2.6937,Andesite_02,1,02,2,1,2.694,1,16,-0.194444444,-0.396296325,1,0,0,3.6675,Pegmatite_rect,6,3.668,0,9,0,9,0,1,,,,,,,,,,,,
6413c7853eba2b2215197ff4,SCR,2024-06-10_11h44.30.273,LearnStrategy,2023.2.3,Win32,119.047619,5,1,11,0.575000057,-0.072222215,1,0,0,3.0055,Gabbro_14,4,14,3,8,3.005,2,02,0.354629658,-0.250925912,1,0,0,2.4279,Gabbro_rect,4,2.428,1,10,0,10,0,1,,,,,,,,,,,,
6413c7853eba2b2215197ff4,SCR,2024-06-10_11h44.30.273,LearnStrategy,2023.2.3,Win32,119.047619,5,1,12,-0.073148162,-0.397222236,1,0,0,6.0491,Diorite_13,3,13,1,4,6.049,4,14,0.42314812,-0.232407393,1,0,0,1.1846,Gabbro_rect,4,1.185,0,11,0,11,0,1,,,,,,,,,,,,
6413c7853eba2b2215197ff4,SCR,2024-06-10_11h44.30.273,LearnStrategy,2023.2.3,Win32,119.047619,5,1,13,-0.52407406,-0.073148162,1,0,0,4.0672,Diorite_09,3,09,3,1,4.067,1,03,0.450925898,-0.244444459,1,0,0,1.7409,Gabbro_rect,4,1.741,0,12,0,12,0,1,,,,,,,,,,,,
6413c7853eba2b2215197ff4,SCR,2024-06-10_11h44.30.273,LearnStrategy,2023.2.3,Win32,119.047619,5,1,14,-0.549999979,-0.248148176,1,0,0,1.3392,Andesite_02,1,02,2,1,1.339,7,04,0.150925954,-0.239814829,1,0,0,1.5366,Diorite_rect,3,1.537,0,13,0,13,0,1,,,,,,,,,,,,
6413c7853eba2b2215197ff4,SCR,2024-06-10_11h44.30.273,LearnStrategy,2023.2.3,Win32,119.047619,5,1,15,-0.520370377,0.098148134,1,0,0,1.8814,Andesite_06,1,06,4,1,1.881,4,08,0.099074116,-0.238888917,1,0,0,1.6452,Diorite_rect,3,1.645,0,14,0,14,0,1,,,,,,,,,,,,
6413c7853eba2b2215197ff4,SCR,2024-06-10_11h44.30.273,LearnStrategy,2023.2.3,Win32,119.047619,5,1,16,-0.231481481,0.110185164,1,0,0,2.7468,Gabbro_08,4,08,4,3,2.747,3,10,-0.39166666,-0.236111111,1,0,0,1.2687,Andesite_rect,1,1.269,0,15,0,15,0,1,,,,,,,,,,,,
6413c7853eba2b2215197ff4,SCR,2024-06-10_11h44.30.273,LearnStrategy,2023.2.3,Win32,119.047619,5,2,1,,,,,,,,3,02,,,,,,,,,,,,,1,2.578,0,,,,,,-0.41111109,-0.25,1,0,0,2.578,Andesite_rect,0,0,0,0,1
6413c7853eba2b2215197ff4,SCR,2024-06-10_11h44.30.273,LearnStrategy,2023.2.3,Win32,119.047619,5,2,2,,,,,,,,5,05,,,,,,,,,,,,,5,1.667,1,,,,,,-0.405555548,-0.414814843,1,0,0,1.6674,Obsidian_rect,1,0,1,0,1
6413c7853eba2b2215197ff4,SCR,2024-06-10_11h44.30.273,LearnStrategy,2023.2.3,Win32,119.047619,5,2,3,,,,,,,,1,05,,,,,,,,,,,,,1,1.852,1,,,,,,-0.360185164,-0.241666653,1,0,0,1.8517,Andesite_rect,2,0,2,0,1
6413c7853eba2b2215197ff4,SCR,2024-06-10_11h44.30.273,LearnStrategy,2023.2.3,Win32,119.047619,5,2,4,,,,,,,,2,14,,,,,,,,,,,,,4,3.814,0,,,,,,0.398148148,-0.240740741,1,0,0,3.8143,Gabbro_rect,3,0,3,0,1
6413c7853eba2b2215197ff4,SCR,2024-06-10_11h44.30.273,LearnStrategy,2023.2.3,Win32,119.047619,5,2,5,,,,,,,,7,05,,,,,,,,,,,,,3,1.538,0,,,,,,0.060185185,-0.242592635,1,0,0,1.5384,Diorite_rect,4,0,4,0,1
6413c7853eba2b2215197ff4,SCR,2024-06-10_11h44.30.273,LearnStrategy,2023.2.3,Win32,119.047619,5,2,6,,,,,,,,4,16,,,,,,,,,,,,,3,1.208,0,,,,,,0.077777792,-0.239814829,1,0,0,1.2085,Diorite_rect,5,0,5,0,1
6413c7853eba2b2215197ff4,SCR,2024-06-10_11h44.30.273,LearnStrategy,2023.2.3,Win32,119.047619,5,2,7,,,,,,,,8,16,,,,,,,,,,,,,8,3.714,1,,,,,,0.390740712,-0.39907406,1,0,0,3.7136,Pumice_rect,6,0,6,0,1
6413c7853eba2b2215197ff4,SCR,2024-06-10_11h44.30.273,LearnStrategy,2023.2.3,Win32,119.047619,5,2,8,,,,,,,,1,10,,,,,,,,,,,,,3,2.108,0,,,,,,0.171296296,-0.243518547,1,0,0,2.1076,Diorite_rect,7,0,7,0,1
6413c7853eba2b2215197ff4,SCR,2024-06-10_11h44.30.273,LearnStrategy,2023.2.3,Win32,119.047619,5,2,9,,,,,,,,4,13,,,,,,,,,,,,,1,2.497,0,,,,,,-0.400925919,-0.240740741,1,0,0,2.4973,Andesite_rect,8,0,8,0,1
6413c7853eba2b2215197ff4,SCR,2024-06-10_11h44.30.273,LearnStrategy,2023.2.3,Win32,119.047619,5,2,10,,,,,,,,5,07,,,,,,,,,,,,,5,0.951,1,,,,,,-0.428703697,-0.404629672,1,0,0,0.9512,Obsidian_rect,9,0,9,0,1
6413c7853eba2b2215197ff4,SCR,2024-06-10_11h44.30.273,LearnStrategy,2023.2.3,Win32,119.047619,5,2,11,,,,,,,,7,02,,,,,,,,,,,,,7,1.495,1,,,,,,0.143518519,-0.400000042,1,0,0,1.4952,Peridotite_rect,10,0,10,0,1
6413c7853eba2b2215197ff4,SCR,2024-06-10_11h44.30.273,LearnStrategy,2023.2.3,Win32,119.047619,5,2,12,,,,,,,,6,13,,,,,,,,,,,,,7,0.954,0,,,,,,0.143518519,-0.400000042,1,0,0,0.9543,Peridotite_rect,11,0,11,0,1
6413c7853eba2b2215197ff4,SCR,2024-06-10_11h44.30.273,LearnStrategy,2023.2.3,Win32,119.047619,5,2,13,,,,,,,,2,06,,,,,,,,,,,,,2,2.061,1,,,,,,-0.107407393,-0.250925912,1,0,0,2.0606,Basalt_rect,12,0,12,0,1
6413c7853eba2b2215197ff4,SCR,2024-06-10_11h44.30.273,LearnStrategy,2023.2.3,Win32,119.047619,5,2,14,,,,,,,,8,09,,,,,,,,,,,,,8,1.894,1,,,,,,0.430555556,-0.418518561,1,0,0,1.8939,Pumice_rect,13,0,13,0,1
6413c7853eba2b2215197ff4,SCR,2024-06-10_11h44.30.273,LearnStrategy,2023.2.3,Win32,119.047619,5,2,15,,,,,,,,6,06,,,,,,,,,,,,,7,1.334,0,,,,,,0.167592578,-0.386111153,1,0,0,1.3338,Peridotite_rect,14,0,14,0,1
6413c7853eba2b2215197ff4,SCR,2024-06-10_11h44.30.273,LearnStrategy,2023.2.3,Win32,119.047619,5,2,16,,,,,,,,3,08,,,,,,,,,,,,,1,1.976,0,,,,,,-0.364814794,-0.238888917,1,0,0,1.9755,Andesite_rect,15,0,15,0,1
6413c7853eba2b2215197ff4,SCR,2024-06-10_11h44.30.273,LearnStrategy,2023.2.3,Win32,119.047619,6,1,1,0.537037037,0.248148141,1,0,0,15.7769,Pegmatite_09,6,09,5,8,15.777,1,02,0.125,-0.405555584,1,0,0,3.1171,Peridotite_rect,7,3.117,0,0,0,0,0,1,,,,,,,,,,,,
6413c7853eba2b2215197ff4,SCR,2024-06-10_11h44.30.273,LearnStrategy,2023.2.3,Win32,119.047619,6,1,2,0.554629714,0.251851841,1,0,0,5.29,Pegmatite_09,6,09,5,8,5.29,6,05,-0.128703718,-0.404629672,1,0,0,2.5689,Pegmatite_rect,6,2.569,1,1,0,1,0,1,,,,,,,,,,,,
6413c7853eba2b2215197ff4,SCR,2024-06-10_11h44.30.273,LearnStrategy,2023.2.3,Win32,119.047619,6,1,3,0.077777792,-0.385185171,1,0,0,6.4841,Pegmatite_12,6,12,1,5,6.484,4,08,-0.131481453,-0.400000042,1,0,0,2.405,Pegmatite_rect,6,2.405,1,2,0,2,0,1,,,,,,,,,,,,
6413c7853eba2b2215197ff4,SCR,2024-06-10_11h44.30.273,LearnStrategy,2023.2.3,Win32,119.047619,6,1,4,-0.087962963,-0.103703746,1,0,0,4.4555,Peridotite_06,7,06,3,4,4.456,7,13,-0.187962921,-0.382407436,1,0,0,1.487,Pegmatite_rect,6,1.487,0,3,0,3,0,1,,,,,,,,,,,,
6413c7853eba2b2215197ff4,SCR,2024-06-10_11h44.30.273,LearnStrategy,2023.2.3,Win32,119.047619,6,1,5,0.062962991,0.409259257,1,0,0,4.8968,Pegmatite_05,6,05,6,5,4.897,2,09,-0.098148134,-0.384259259,1,0,0,1.7474,Pegmatite_rect,6,1.747,1,4,0,4,0,1,,,,,,,,,,,,
6413c7853eba2b2215197ff4,SCR,2024-06-10_11h44.30.273,LearnStrategy,2023.2.3,Win32,119.047619,6,1,6,0.10555557,-0.248148176,1,0,0,4.8043,Diorite_06,3,06,2,5,4.804,6,16,0.147222236,-0.242592635,1,0,0,3.8898,Diorite_rect,3,3.89,1,5,0,5,0,1,,,,,,,,,,,,
6413c7853eba2b2215197ff4,SCR,2024-06-10_11h44.30.273,LearnStrategy,2023.2.3,Win32,119.047619,6,1,7,-0.23055557,-0.092592593,1,0,0,1.8807,Gabbro_03,4,03,3,3,1.881,7,06,0.134259259,-0.24537037,1,0,0,2.0283,Diorite_rect,3,2.028,0,6,0,6,0,1,,,,,,,,,,,,
6413c7853eba2b2215197ff4,SCR,2024-06-10_11h44.30.273,LearnStrategy,2023.2.3,Win32,119.047619,6,1,8,-0.559259238,-0.253703718,1,0,0,2.0024,Andesite_02,1,02,2,1,2.002,3,09,0.161111125,-0.240740741,1,0,0,1.5517,Diorite_rect,3,1.552,0,7,0,7,0,1,,,,,,,,,,,,
6413c7853eba2b2215197ff4,SCR,2024-06-10_11h44.30.273,LearnStrategy,2023.2.3,Win32,119.047619,6,1,9,-0.537037037,-0.070370392,1,0,0,1.3972,Diorite_09,3,09,3,1,1.397,4,14,-0.37962963,-0.24537037,1,0,0,1.0179,Andesite_rect,1,1.018,0,8,0,8,0,1,,,,,,,,,,,,
6413c7853eba2b2215197ff4,SCR,2024-06-10_11h44.30.273,LearnStrategy,2023.2.3,Win32,119.047619,6,1,10,-0.553703697,-0.253703718,1,0,0,1.2223,Andesite_02,1,02,2,1,1.222,6,16,0.138888889,-0.24537037,1,0,0,2.1367,Diorite_rect,3,2.137,0,9,0,9,0,1,,,,,,,,,,,,
6413c7853eba2b2215197ff4,SCR,2024-06-10_11h44.30.273,LearnStrategy,2023.2.3,Win32,119.047619,6,1,11,-0.544444437,-0.098148134,1,0,0,1.0231,Diorite_09,3,09,3,1,1.023,3,15,-0.408333319,-0.248148176,1,0,0,1.7543,Andesite_rect,1,1.754,0,10,0,10,0,1,,,,,,,,,,,,
6413c7853eba2b2215197ff4,SCR,2024-06-10_11h44.30.273,LearnStrategy,2023.2.3,Win32,119.047619,6,1,12,-0.591666645,0.122222229,1,0,0,5.6936,Andesite_06,1,06,4,1,5.694,1,16,-0.139814801,-0.262962977,1,0,0,4.171,Basalt_rect,2,4.171,0,11,0,11,0,1,,,,,,,,,,,,
6413c7853eba2b2215197ff4,SCR,2024-06-10_11h44.30.273,LearnStrategy,2023.2.3,Win32,119.047619,6,1,13,0.077777792,0.086111104,1,0,0,2.4555,Andesite_16,1,16,4,5,2.456,4,09,-0.37037037,-0.238888917,1,0,0,1.7634,Andesite_rect,1,1.763,1,12,0,12,0,1,,,,,,,,,,,,
6413c7853eba2b2215197ff4,SCR,2024-06-10_11h44.30.273,LearnStrategy,2023.2.3,Win32,119.047619,6,1,14,0.22592594,0.398148148,1,0,0,3.1694,Diorite_10,3,10,6,6,3.169,2,05,-0.3675926,-0.25462963,1,0,0,1.5185,Andesite_rect,1,1.518,0,13,0,13,0,1,,,,,,,,,,,,
6413c7853eba2b2215197ff4,SCR,2024-06-10_11h44.30.273,LearnStrategy,2023.2.3,Win32,119.047619,6,1,15,0.558333362,-0.415740755,1,0,0,2.1801,Gabbro_05,4,05,1,8,2.18,1,09,-0.425925926,-0.247222265,1,0,0,1.8364,Andesite_rect,1,1.836,0,14,0,14,0,1,,,,,,,,,,,,
6413c7853eba2b2215197ff4,SCR,2024-06-10_11h44.30.273,LearnStrategy,2023.2.3,Win32,119.047619,6,1,16,-0.066666638,-0.103703746,1,0,0,2.2054,Peridotite_06,7,06,3,4,2.205,3,09,0.382407436,-0.238888917,1,0,0,1.8615,Gabbro_rect,4,1.861,0,15,0,15,0,1,,,,,,,,,,,,
6413c7853eba2b2215197ff4,SCR,2024-06-10_11h44.30.273,LearnStrategy,2023.2.3,Win32,119.047619,6,2,1,,,,,,,,1,11,,,,,,,,,,,,,2,7.946,0,,,,,,-0.124074088,-0.249074088,1,0,0,7.9457,Basalt_rect,0,0,0,0,1
6413c7853eba2b2215197ff4,SCR,2024-06-10_11h44.30.273,LearnStrategy,2023.2.3,Win32,119.047619,6,2,2,,,,,,,,2,01,,,,,,,,,,,,,2,0.985,1,,,,,,-0.124074088,-0.249074088,1,0,0,0.9845,Basalt_rect,1,0,1,0,1
6413c7853eba2b2215197ff4,SCR,2024-06-10_11h44.30.273,LearnStrategy,2023.2.3,Win32,119.047619,6,2,3,,,,,,,,7,07,,,,,,,,,,,,,1,3.752,0,,,,,,-0.419444437,-0.24537037,1,0,0,3.7517,Andesite_rect,2,0,2,0,1
6413c7853eba2b2215197ff4,SCR,2024-06-10_11h44.30.273,LearnStrategy,2023.2.3,Win32,119.047619,6,2,4,,,,,,,,1,07,,,,,,,,,,,,,3,2.075,0,,,,,,0.106481481,-0.248148176,1,0,0,2.0753,Diorite_rect,3,0,3,0,1
6413c7853eba2b2215197ff4,SCR,2024-06-10_11h44.30.273,LearnStrategy,2023.2.3,Win32,119.047619,6,2,5,,,,,,,,3,07,,,,,,,,,,,,,3,1.053,1,,,,,,0.10555557,-0.247222265,1,0,0,1.0526,Diorite_rect,4,0,4,0,1
6413c7853eba2b2215197ff4,SCR,2024-06-10_11h44.30.273,LearnStrategy,2023.2.3,Win32,119.047619,6,2,6,,,,,,,,6,10,,,,,,,,,,,,,7,1.288,0,,,,,,0.175000014,-0.404629672,1,0,0,1.2882,Peridotite_rect,5,0,5,0,1
6413c7853eba2b2215197ff4,SCR,2024-06-10_11h44.30.273,LearnStrategy,2023.2.3,Win32,119.047619,6,2,7,,,,,,,,8,10,,,,,,,,,,,,,3,3.251,0,,,,,,0.161111125,-0.241666653,1,0,0,3.2509,Diorite_rect,6,0,6,0,1
6413c7853eba2b2215197ff4,SCR,2024-06-10_11h44.30.273,LearnStrategy,2023.2.3,Win32,119.047619,6,2,8,,,,,,,,6,15,,,,,,,,,,,,,7,2.289,0,,,,,,0.125,-0.395370413,1,0,0,2.2893,Peridotite_rect,7,0,7,0,1
6413c7853eba2b2215197ff4,SCR,2024-06-10_11h44.30.273,LearnStrategy,2023.2.3,Win32,119.047619,6,2,9,,,,,,,,7,16,,,,,,,,,,,,,4,3.207,0,,,,,,0.375,-0.241666653,1,0,0,3.2072,Gabbro_rect,8,0,8,0,1
6413c7853eba2b2215197ff4,SCR,2024-06-10_11h44.30.273,LearnStrategy,2023.2.3,Win32,119.047619,6,2,10,,,,,,,,8,13,,,,,,,,,,,,,7,4.809,0,,,,,,0.150925954,-0.388888889,1,0,0,4.8086,Peridotite_rect,9,0,9,0,1
6413c7853eba2b2215197ff4,SCR,2024-06-10_11h44.30.273,LearnStrategy,2023.2.3,Win32,119.047619,6,2,11,,,,,,,,4,12,,,,,,,,,,,,,4,3.562,1,,,,,,0.391666695,-0.239814829,1,0,0,3.5617,Gabbro_rect,10,0,10,0,1
6413c7853eba2b2215197ff4,SCR,2024-06-10_11h44.30.273,LearnStrategy,2023.2.3,Win32,119.047619,6,2,12,,,,,,,,5,02,,,,,,,,,,,,,5,1.827,1,,,,,,-0.348148134,-0.400000042,1,0,0,1.827,Obsidian_rect,11,0,11,0,1
6413c7853eba2b2215197ff4,SCR,2024-06-10_11h44.30.273,LearnStrategy,2023.2.3,Win32,119.047619,6,2,13,,,,,,,,4,11,,,,,,,,,,,,,4,1.919,1,,,,,,0.412963019,-0.25,1,0,0,1.9194,Gabbro_rect,12,0,12,0,1
6413c7853eba2b2215197ff4,SCR,2024-06-10_11h44.30.273,LearnStrategy,2023.2.3,Win32,119.047619,6,2,14,,,,,,,,5,11,,,,,,,,,,,,,5,2.502,1,,,,,,-0.390740748,-0.396296325,1,0,0,2.5017,Obsidian_rect,13,0,13,0,1
6413c7853eba2b2215197ff4,SCR,2024-06-10_11h44.30.273,LearnStrategy,2023.2.3,Win32,119.047619,6,2,15,,,,,,,,3,11,,,,,,,,,,,,,3,2.093,1,,,,,,0.12037037,-0.252777806,1,0,0,2.0933,Diorite_rect,14,0,14,0,1
6413c7853eba2b2215197ff4,SCR,2024-06-10_11h44.30.273,LearnStrategy,2023.2.3,Win32,119.047619,6,2,16,,,,,,,,2,08,,,,,,,,,,,,,2,2.512,1,,,,,,-0.111111111,-0.241666653,1,0,0,2.5119,Basalt_rect,15,0,15,0,1
6413c7853eba2b2215197ff4,SCR,2024-06-10_11h44.30.273,LearnStrategy,2023.2.3,Win32,119.047619,7,1,1,0.383333418,-0.252777806,1,0,0,3.4941,Pumice_15,8,15,2,7,3.494,6,12,-0.137036995,-0.252777806,1,0,0,2.8072,Basalt_rect,2,2.807,0,0,0,0,0,1,,,,,,,,,,,,
6413c7853eba2b2215197ff4,SCR,2024-06-10_11h44.30.273,LearnStrategy,2023.2.3,Win32,119.047619,7,1,2,-0.25,-0.426851838,1,0,0,3.344,Pumice_04,8,04,1,3,3.344,6,16,0.398148148,-0.393518519,1,0,0,2.0203,Pumice_rect,8,2.02,1,1,0,1,0,1,,,,,,,,,,,,
6413c7853eba2b2215197ff4,SCR,2024-06-10_11h44.30.273,LearnStrategy,2023.2.3,Win32,119.047619,7,1,3,-0.556481467,-0.410185213,1,0,0,2.1335,Peridotite_15,7,15,1,1,2.133,3,06,0.135185171,-0.388888889,1,0,0,1.8527,Peridotite_rect,7,1.853,1,2,0,2,0,1,,,,,,,,,,,,
6413c7853eba2b2215197ff4,SCR,2024-06-10_11h44.30.273,LearnStrategy,2023.2.3,Win32,119.047619,7,1,4,-0.583333333,-0.240740741,1,0,0,1.3389,Andesite_02,1,02,2,1,1.339,7,10,-0.361111111,-0.25,1,0,0,1.535,Andesite_rect,1,1.535,1,3,0,3,0,1,,,,,,,,,,,,
6413c7853eba2b2215197ff4,SCR,2024-06-10_11h44.30.273,LearnStrategy,2023.2.3,Win32,119.047619,7,1,5,-0.551851838,-0.089814822,1,0,0,1.8278,Diorite_09,3,09,3,1,1.828,4,08,0.132407436,-0.248148176,1,0,0,1.4882,Diorite_rect,3,1.488,1,4,0,4,0,1,,,,,,,,,,,,
6413c7853eba2b2215197ff4,SCR,2024-06-10_11h44.30.273,LearnStrategy,2023.2.3,Win32,119.047619,7,1,6,-0.557407414,0.122222229,1,0,0,1.4865,Andesite_06,1,06,4,1,1.486,2,04,-0.41574072,-0.247222265,1,0,0,4.0367,Andesite_rect,1,4.037,1,5,0,5,0,1,,,,,,,,,,,,
6413c7853eba2b2215197ff4,SCR,2024-06-10_11h44.30.273,LearnStrategy,2023.2.3,Win32,119.047619,7,1,7,-0.527777778,0.409259257,1,0,0,2.1807,Gabbro_10,4,10,6,1,2.181,1,04,0.409259231,-0.231481481,1,0,0,3.9938,Gabbro_rect,4,3.994,1,6,0,6,0,1,,,,,,,,,,,,
6413c7853eba2b2215197ff4,SCR,2024-06-10_11h44.30.273,LearnStrategy,2023.2.3,Win32,119.047619,7,1,8,-0.400925919,0.43888889,1,0,0,1.7057,Diorite_12,3,12,6,2,1.706,3,09,-0.405555548,-0.247222265,1,0,0,2.906,Andesite_rect,1,2.906,0,7,0,7,0,1,,,,,,,,,,,,
6413c7853eba2b2215197ff4,SCR,2024-06-10_11h44.30.273,LearnStrategy,2023.2.3,Win32,119.047619,7,1,9,-0.38703703,0.289814808,1,0,0,1.9206,Andesite_03,1,03,5,2,1.921,1,16,-0.115740741,-0.25,1,0,0,1.7893,Basalt_rect,2,1.789,0,8,0,8,0,1,,,,,,,,,,,,
6413c7853eba2b2215197ff4,SCR,2024-06-10_11h44.30.273,LearnStrategy,2023.2.3,Win32,119.047619,7,1,10,-0.392592571,-0.089814822,1,0,0,2.331,Pegmatite_08,6,08,3,2,2.331,7,04,0.158333319,-0.396296325,1,0,0,1.5151,Peridotite_rect,7,1.515,0,9,0,9,0,1,,,,,,,,,,,,
6413c7853eba2b2215197ff4,SCR,2024-06-10_11h44.30.273,LearnStrategy,2023.2.3,Win32,119.047619,7,1,11,-0.241666653,0.424074076,1,0,0,4.1882,Pegmatite_11,6,11,6,3,4.188,7,10,-0.097222222,-0.396296325,1,0,0,1.6282,Pegmatite_rect,6,1.628,1,10,0,10,0,1,,,,,,,,,,,,
6413c7853eba2b2215197ff4,SCR,2024-06-10_11h44.30.273,LearnStrategy,2023.2.3,Win32,119.047619,7,1,12,-0.06759255,0.444444444,1,0,0,0.9726,Pegmatite_16,6,16,6,4,0.973,4,09,-0.159259231,-0.407407407,1,0,0,1.1461,Pegmatite_rect,6,1.146,1,11,0,11,0,1,,,,,,,,,,,,
6413c7853eba2b2215197ff4,SCR,2024-06-10_11h44.30.273,LearnStrategy,2023.2.3,Win32,119.047619,7,1,13,0.079629616,-0.420370384,1,0,0,2.8145,Pegmatite_12,6,12,1,5,2.814,2,09,-0.363888882,-0.238888917,1,0,0,2.9993,Andesite_rect,1,2.999,0,12,0,12,0,1,,,,,,,,,,,,
6413c7853eba2b2215197ff4,SCR,2024-06-10_11h44.30.273,LearnStrategy,2023.2.3,Win32,119.047619,7,1,14,0.402777778,-0.093518504,1,0,0,4.7884,Peridotite_13,7,13,3,7,4.788,1,16,0.136111153,-0.252777806,1,0,0,1.3483,Diorite_rect,3,1.348,0,13,0,13,0,1,,,,,,,,,,,,
6413c7853eba2b2215197ff4,SCR,2024-06-10_11h44.30.273,LearnStrategy,2023.2.3,Win32,119.047619,7,1,15,0.256481524,0.091666645,1,0,0,3.0471,Diorite_15,3,15,4,6,3.047,6,16,0.104629658,-0.246296282,1,0,0,1.4061,Diorite_rect,3,1.406,1,14,0,14,0,1,,,,,,,,,,,,
6413c7853eba2b2215197ff4,SCR,2024-06-10_11h44.30.273,LearnStrategy,2023.2.3,Win32,119.047619,7,1,16,0.091666681,0.076851845,1,0,0,1.5681,Andesite_16,1,16,4,5,1.568,8,03,0.107407393,-0.249074088,1,0,0,1.1849,Diorite_rect,3,1.185,0,15,0,15,0,1,,,,,,,,,,,,
6413c7853eba2b2215197ff4,SCR,2024-06-10_11h44.30.273,LearnStrategy,2023.2.3,Win32,119.047619,7,2,1,,,,,,,,3,08,,,,,,,,,,,,,1,2.901,0,,,,,,-0.390740748,-0.244444459,1,0,0,2.9013,Andesite_rect,0,0,0,0,1
6413c7853eba2b2215197ff4,SCR,2024-06-10_11h44.30.273,LearnStrategy,2023.2.3,Win32,119.047619,7,2,2,,,,,,,,3,16,,,,,,,,,,,,,3,2.704,1,,,,,,0.131481524,-0.241666653,1,0,0,2.7036,Diorite_rect,1,0,1,0,1
6413c7853eba2b2215197ff4,SCR,2024-06-10_11h44.30.273,LearnStrategy,2023.2.3,Win32,119.047619,7,2,3,,,,,,,,4,13,,,,,,,,,,,,,3,1.626,0,,,,,,0.134259259,-0.242592635,1,0,0,1.6265,Diorite_rect,2,0,2,0,1
6413c7853eba2b2215197ff4,SCR,2024-06-10_11h44.30.273,LearnStrategy,2023.2.3,Win32,119.047619,7,2,4,,,,,,,,2,06,,,,,,,,,,,,,2,1.911,1,,,,,,-0.114814829,-0.258333347,1,0,0,1.9112,Basalt_rect,3,0,3,0,1
6413c7853eba2b2215197ff4,SCR,2024-06-10_11h44.30.273,LearnStrategy,2023.2.3,Win32,119.047619,7,2,5,,,,,,,,4,15,,,,,,,,,,,,,1,2.188,0,,,,,,-0.387962942,-0.24537037,1,0,0,2.188,Andesite_rect,4,0,4,0,1
6413c7853eba2b2215197ff4,SCR,2024-06-10_11h44.30.273,LearnStrategy,2023.2.3,Win32,119.047619,7,2,6,,,,,,,,8,13,,,,,,,,,,,,,8,4.495,1,,,,,,0.421296296,-0.400000042,1,0,0,4.4945,Pumice_rect,5,0,5,0,1
6413c7853eba2b2215197ff4,SCR,2024-06-10_11h44.30.273,LearnStrategy,2023.2.3,Win32,119.047619,7,2,7,,,,,,,,7,08,,,,,,,,,,,,,3,1.812,0,,,,,,0.14907406,-0.246296282,1,0,0,1.8115,Diorite_rect,6,0,6,0,1
6413c7853eba2b2215197ff4,SCR,2024-06-10_11h44.30.273,LearnStrategy,2023.2.3,Win32,119.047619,7,2,8,,,,,,,,8,10,,,,,,,,,,,,,8,1.602,1,,,,,,0.412037037,-0.419444473,1,0,0,1.6017,Pumice_rect,7,0,7,0,1
6413c7853eba2b2215197ff4,SCR,2024-06-10_11h44.30.273,LearnStrategy,2023.2.3,Win32,119.047619,7,2,9,,,,,,,,2,12,,,,,,,,,,,,,1,4.522,0,,,,,,-0.410185178,-0.249074088,1,0,0,4.5215,Andesite_rect,8,0,8,0,1
6413c7853eba2b2215197ff4,SCR,2024-06-10_11h44.30.273,LearnStrategy,2023.2.3,Win32,119.047619,7,2,10,,,,,,,,5,02,,,,,,,,,,,,,5,1.151,1,,,,,,-0.419444437,-0.407407407,1,0,0,1.1513,Obsidian_rect,9,0,9,0,1
6413c7853eba2b2215197ff4,SCR,2024-06-10_11h44.30.273,LearnStrategy,2023.2.3,Win32,119.047619,7,2,11,,,,,,,,7,05,,,,,,,,,,,,,3,4.049,0,,,,,,0.122222265,-0.24537037,1,0,0,4.0493,Diorite_rect,10,0,10,0,1
6413c7853eba2b2215197ff4,SCR,2024-06-10_11h44.30.273,LearnStrategy,2023.2.3,Win32,119.047619,7,2,12,,,,,,,,1,11,,,,,,,,,,,,,1,2.057,1,,,,,,-0.419444437,-0.247222265,1,0,0,2.0574,Andesite_rect,11,0,11,0,1
6413c7853eba2b2215197ff4,SCR,2024-06-10_11h44.30.273,LearnStrategy,2023.2.3,Win32,119.047619,7,2,13,,,,,,,,6,06,,,,,,,,,,,,,6,3.043,1,,,,,,-0.099074046,-0.400000042,1,0,0,3.0434,Pegmatite_rect,12,0,12,0,1
6413c7853eba2b2215197ff4,SCR,2024-06-10_11h44.30.273,LearnStrategy,2023.2.3,Win32,119.047619,7,2,14,,,,,,,,1,05,,,,,,,,,,,,,1,1.659,1,,,,,,-0.341666645,-0.247222265,1,0,0,1.6585,Andesite_rect,13,0,13,0,1
6413c7853eba2b2215197ff4,SCR,2024-06-10_11h44.30.273,LearnStrategy,2023.2.3,Win32,119.047619,7,2,15,,,,,,,,6,13,,,,,,,,,,,,,6,2.226,1,,,,,,-0.112037023,-0.402777778,1,0,0,2.226,Pegmatite_rect,14,0,14,0,1
6413c7853eba2b2215197ff4,SCR,2024-06-10_11h44.30.273,LearnStrategy,2023.2.3,Win32,119.047619,7,2,16,,,,,,,,5,05,,,,,,,,,,,,,5,1.421,1,,,,,,-0.350925905,-0.393518519,1,0,0,1.4207,Obsidian_rect,15,0,15,0,1
6413c7853eba2b2215197ff4,SCR,2024-06-10_11h44.30.273,LearnStrategy,2023.2.3,Win32,119.047619,8,1,1,0.551851908,0.244444441,1,0,0,8.9623,Pegmatite_09,6,09,5,8,8.962,7,06,0.134259259,-0.39907406,1,0,0,2.4494,Peridotite_rect,7,2.449,0,0,0,0,0,1,,,,,,,,,,,,
6413c7853eba2b2215197ff4,SCR,2024-06-10_11h44.30.273,LearnStrategy,2023.2.3,Win32,119.047619,8,1,2,-0.053703661,0.397222219,1,0,0,4.7301,Pegmatite_16,6,16,6,4,4.73,1,03,-0.131481453,-0.39907406,1,0,0,1.4058,Pegmatite_rect,6,1.406,1,1,0,1,0,1,,,,,,,,,,,,
6413c7853eba2b2215197ff4,SCR,2024-06-10_11h44.30.273,LearnStrategy,2023.2.3,Win32,119.047619,8,1,3,0.412037037,0.425925926,1,0,0,3.1134,Basalt_04,2,04,6,7,3.113,7,12,0.397222307,-0.247222265,1,0,0,1.3179,Gabbro_rect,4,1.318,0,2,0,2,0,1,,,,,,,,,,,,
6413c7853eba2b2215197ff4,SCR,2024-06-10_11h44.30.273,LearnStrategy,2023.2.3,Win32,119.047619,8,1,4,-0.242592564,0.243518511,1,0,0,3.6286,Basalt_16,2,16,5,3,3.629,3,06,0.426851908,-0.242592635,1,0,0,2.4655,Gabbro_rect,4,2.466,0,3,0,3,0,1,,,,,,,,,,,,
6413c7853eba2b2215197ff4,SCR,2024-06-10_11h44.30.273,LearnStrategy,2023.2.3,Win32,119.047619,8,1,5,-0.087962963,0.085185192,1,0,0,2.1893,Andesite_09,1,09,4,4,2.189,8,08,0.433333362,-0.24537037,1,0,0,1.3331,Gabbro_rect,4,1.333,0,4,0,4,0,1,,,,,,,,,,,,
6413c7853eba2b2215197ff4,SCR,2024-06-10_11h44.30.273,LearnStrategy,2023.2.3,Win32,119.047619,8,1,6,0.27407406,-0.256481524,1,0,0,1.709,Basalt_02,2,02,2,6,1.709,6,11,-0.142592607,-0.233333376,1,0,0,0.9351,Basalt_rect,2,0.935,1,5,0,5,0,1,,,,,,,,,,,,
6413c7853eba2b2215197ff4,SCR,2024-06-10_11h44.30.273,LearnStrategy,2023.2.3,Win32,119.047619,8,1,7,0.54351849,-0.270370413,1,0,0,2.1363,Basalt_09,2,09,2,8,2.136,1,02,-0.122222194,-0.250925912,1,0,0,1.1039,Basalt_rect,2,1.104,1,6,0,6,0,1,,,,,,,,,,,,
6413c7853eba2b2215197ff4,SCR,2024-06-10_11h44.30.273,LearnStrategy,2023.2.3,Win32,119.047619,8,1,8,-0.41574072,0.278703707,1,0,0,2.6888,Andesite_03,1,03,5,2,2.689,2,02,-0.373148141,-0.242592635,1,0,0,3.9847,Andesite_rect,1,3.985,1,7,0,7,0,1,,,,,,,,,,,,
6413c7853eba2b2215197ff4,SCR,2024-06-10_11h44.30.273,LearnStrategy,2023.2.3,Win32,119.047619,8,1,9,-0.574999986,-0.412962949,1,0,0,4.6514,Peridotite_15,7,15,1,1,4.651,4,14,0.113888917,-0.387962977,1,0,0,1.4476,Peridotite_rect,7,1.448,1,8,0,8,0,1,,,,,,,,,,,,
6413c7853eba2b2215197ff4,SCR,2024-06-10_11h44.30.273,LearnStrategy,2023.2.3,Win32,119.047619,8,1,10,-0.549999979,-0.263888889,1,0,0,2.5555,Andesite_02,1,02,2,1,2.556,7,15,-0.396296289,-0.250925912,1,0,0,2.4594,Andesite_rect,1,2.459,1,9,0,9,0,1,,,,,,,,,,,,
6413c7853eba2b2215197ff4,SCR,2024-06-10_11h44.30.273,LearnStrategy,2023.2.3,Win32,119.047619,8,1,11,0.553703732,-0.082407422,1,0,0,4.8802,Gabbro_14,4,14,3,8,4.88,1,02,0.372222194,-0.256481524,1,0,0,1.6534,Gabbro_rect,4,1.653,1,10,0,10,0,1,,,,,,,,,,,,
6413c7853eba2b2215197ff4,SCR,2024-06-10_11h44.30.273,LearnStrategy,2023.2.3,Win32,119.047619,8,1,12,-0.27407406,0.293518508,1,0,0,1.9799,Basalt_16,2,16,5,3,1.98,2,02,0.375925982,-0.233333376,1,0,0,1.3362,Gabbro_rect,4,1.336,0,11,0,11,0,1,,,,,,,,,,,,
6413c7853eba2b2215197ff4,SCR,2024-06-10_11h44.30.273,LearnStrategy,2023.2.3,Win32,119.047619,8,1,13,0.384259259,-0.262962977,1,0,0,4.4556,Pumice_15,8,15,2,7,4.456,3,12,0.390740712,-0.413888931,1,0,0,2.9725,Pumice_rect,8,2.973,1,12,0,12,0,1,,,,,,,,,,,,
6413c7853eba2b2215197ff4,SCR,2024-06-10_11h44.30.273,LearnStrategy,2023.2.3,Win32,119.047619,8,1,14,0.393518519,-0.39907406,1,0,0,8.5831,Peridotite_04,7,04,1,7,8.583,4,09,0.092592593,-0.386111153,1,0,0,1.5406,Peridotite_rect,7,1.541,1,13,0,13,0,1,,,,,,,,,,,,
6413c7853eba2b2215197ff4,SCR,2024-06-10_11h44.30.273,LearnStrategy,2023.2.3,Win32,119.047619,8,1,15,0.557407379,0.118518511,1,0,0,6.6872,Pumice_06,8,06,4,8,6.687,6,08,0.394444501,-0.412037037,1,0,0,2.0281,Pumice_rect,8,2.028,1,14,0,14,0,1,,,,,,,,,,,,
6413c7853eba2b2215197ff4,SCR,2024-06-10_11h44.30.273,LearnStrategy,2023.2.3,Win32,119.047619,8,1,16,0.074074074,0.248148141,1,0,0,5.6493,Pumice_03,8,03,5,5,5.649,4,05,0.376851824,-0.415740755,1,0,0,2.0238,Pumice_rect,8,2.024,1,15,0,15,0,1,,,,,,,,,,,,
6413c7853eba2b2215197ff4,SCR,2024-06-10_11h44.30.273,LearnStrategy,2023.2.3,Win32,119.047619,8,2,1,,,,,,,,3,02,,,,,,,,,,,,,1,3.284,0,,,,,,-0.392592571,-0.252777806,1,0,0,3.2843,Andesite_rect,0,0,0,0,1
6413c7853eba2b2215197ff4,SCR,2024-06-10_11h44.30.273,LearnStrategy,2023.2.3,Win32,119.047619,8,2,2,,,,,,,,7,02,,,,,,,,,,,,,7,2.061,1,,,,,,0.155555584,-0.400000042,1,0,0,2.0613,Peridotite_rect,1,0,1,0,1
6413c7853eba2b2215197ff4,SCR,2024-06-10_11h44.30.273,LearnStrategy,2023.2.3,Win32,119.047619,8,2,3,,,,,,,,8,14,,,,,,,,,,,,,8,1.466,1,,,,,,0.362962935,-0.404629672,1,0,0,1.4661,Pumice_rect,2,0,2,0,1
6413c7853eba2b2215197ff4,SCR,2024-06-10_11h44.30.273,LearnStrategy,2023.2.3,Win32,119.047619,8,2,4,,,,,,,,6,03,,,,,,,,,,,,,7,1.703,0,,,,,,0.151851866,-0.398148148,1,0,0,1.7025,Peridotite_rect,3,0,3,0,1
6413c7853eba2b2215197ff4,SCR,2024-06-10_11h44.30.273,LearnStrategy,2023.2.3,Win32,119.047619,8,2,5,,,,,,,,2,11,,,,,,,,,,,,,2,14.902,1,,,,,,-0.109259217,-0.264814801,1,0,0,14.9016,Basalt_rect,4,0,4,0,1
6413c7853eba2b2215197ff4,SCR,2024-06-10_11h44.30.273,LearnStrategy,2023.2.3,Win32,119.047619,8,2,6,,,,,,,,1,10,,,,,,,,,,,,,2,1.686,0,,,,,,-0.145370342,-0.242592635,1,0,0,1.6855,Basalt_rect,5,0,5,0,1
6413c7853eba2b2215197ff4,SCR,2024-06-10_11h44.30.273,LearnStrategy,2023.2.3,Win32,119.047619,8,2,7,,,,,,,,2,14,,,,,,,,,,,,,2,1.242,1,,,,,,-0.130555541,-0.239814829,1,0,0,1.2415,Basalt_rect,6,0,6,0,1
6413c7853eba2b2215197ff4,SCR,2024-06-10_11h44.30.273,LearnStrategy,2023.2.3,Win32,119.047619,8,2,8,,,,,,,,4,12,,,,,,,,,,,,,1,2.339,0,,,,,,-0.383333312,-0.247222265,1,0,0,2.3389,Andesite_rect,7,0,7,0,1
6413c7853eba2b2215197ff4,SCR,2024-06-10_11h44.30.273,LearnStrategy,2023.2.3,Win32,119.047619,8,2,9,,,,,,,,1,14,,,,,,,,,,,,,6,7.048,0,,,,,,-0.10555557,-0.397222236,1,0,0,7.0481,Pegmatite_rect,8,0,8,0,1
6413c7853eba2b2215197ff4,SCR,2024-06-10_11h44.30.273,LearnStrategy,2023.2.3,Win32,119.047619,8,2,10,,,,,,,,3,07,,,,,,,,,,,,,3,2.255,1,,,,,,0.125,-0.25,1,0,0,2.2555,Diorite_rect,9,0,9,0,1
6413c7853eba2b2215197ff4,SCR,2024-06-10_11h44.30.273,LearnStrategy,2023.2.3,Win32,119.047619,8,2,11,,,,,,,,5,06,,,,,,,,,,,,,5,1.329,1,,,,,,-0.369444423,-0.400925954,1,0,0,1.329,Obsidian_rect,10,0,10,0,1
6413c7853eba2b2215197ff4,SCR,2024-06-10_11h44.30.273,LearnStrategy,2023.2.3,Win32,119.047619,8,2,12,,,,,,,,4,01,,,,,,,,,,,,,1,3.345,0,,,,,,-0.38703703,-0.251851894,1,0,0,3.3452,Andesite_rect,11,0,11,0,1
6413c7853eba2b2215197ff4,SCR,2024-06-10_11h44.30.273,LearnStrategy,2023.2.3,Win32,119.047619,8,2,13,,,,,,,,5,04,,,,,,,,,,,,,5,1.251,1,,,,,,-0.396296289,-0.396296325,1,0,0,1.2509,Obsidian_rect,12,0,12,0,1
6413c7853eba2b2215197ff4,SCR,2024-06-10_11h44.30.273,LearnStrategy,2023.2.3,Win32,119.047619,8,2,14,,,,,,,,8,16,,,,,,,,,,,,,8,3.633,1,,,,,,0.404629601,-0.401851866,1,0,0,3.6326,Pumice_rect,13,0,13,0,1
6413c7853eba2b2215197ff4,SCR,2024-06-10_11h44.30.273,LearnStrategy,2023.2.3,Win32,119.047619,8,2,15,,,,,,,,6,15,,,,,,,,,,,,,6,2.262,1,,,,,,-0.12962963,-0.400000042,1,0,0,2.2615,Pegmatite_rect,14,0,14,0,1
6413c7853eba2b2215197ff4,SCR,2024-06-10_11h44.30.273,LearnStrategy,2023.2.3,Win32,119.047619,8,2,16,,,,,,,,7,16,,,,,,,,,,,,,2,3.862,0,,,,,,-0.106481481,-0.25,1,0,0,3.8622,Basalt_rect,15,0,15,0,1
6413c7853eba2b2215197ff4,SCR,2024-06-10_11h44.30.273,LearnStrategy,2023.2.3,Win32,119.047619,9,1,1,0.23055557,0.416666667,1,0,0,3.6898,Diorite_10,3,10,6,6,3.69,3,12,0.139814801,-0.244444459,1,0,0,1.9286,Diorite_rect,3,1.929,1,0,0,0,0,1,,,,,,,,,,,,
6413c7853eba2b2215197ff4,SCR,2024-06-10_11h44.30.273,LearnStrategy,2023.2.3,Win32,119.047619,9,1,2,0.399999972,0.435185185,1,0,0,1.5947,Basalt_04,2,04,6,7,1.595,4,10,-0.143518519,-0.250925912,1,0,0,1.7221,Basalt_rect,2,1.722,1,1,0,1,0,1,,,,,,,,,,,,
6413c7853eba2b2215197ff4,SCR,2024-06-10_11h44.30.273,LearnStrategy,2023.2.3,Win32,119.047619,9,1,3,0.586111139,0.43888889,1,0,0,1.1475,Pumice_05,8,05,6,8,1.148,7,13,0.406481566,-0.40370369,1,0,0,1.8344,Pumice_rect,8,1.834,1,2,0,2,0,1,,,,,,,,,,,,
6413c7853eba2b2215197ff4,SCR,2024-06-10_11h44.30.273,LearnStrategy,2023.2.3,Win32,119.047619,9,1,4,-0.541666667,0.25462963,1,0,0,1.2555,Andesite_04,1,04,5,1,1.255,4,09,0.134259259,-0.252777806,1,0,0,3.6268,Diorite_rect,3,3.627,0,3,0,3,0,1,,,,,,,,,,,,
6413c7853eba2b2215197ff4,SCR,2024-06-10_11h44.30.273,LearnStrategy,2023.2.3,Win32,119.047619,9,1,5,-0.418518526,0.263888889,1,0,0,1.1197,Andesite_03,1,03,5,2,1.12,1,02,-0.401851831,-0.246296282,1,0,0,2.0743,Andesite_rect,1,2.074,1,4,0,4,0,1,,,,,,,,,,,,
6413c7853eba2b2215197ff4,SCR,2024-06-10_11h44.30.273,LearnStrategy,2023.2.3,Win32,119.047619,9,1,6,-0.242592564,0.26203703,1,0,0,1.3195,Basalt_16,2,16,5,3,1.32,3,06,-0.117592564,-0.248148176,1,0,0,2.2985,Basalt_rect,2,2.298,1,5,0,5,0,1,,,,,,,,,,,,
6413c7853eba2b2215197ff4,SCR,2024-06-10_11h44.30.273,LearnStrategy,2023.2.3,Win32,119.047619,9,1,7,-0.053703661,0.261111101,1,0,0,1.0002,Peridotite_12,7,12,5,4,1,8,06,0.121296282,-0.252777806,1,0,0,1.8965,Diorite_rect,3,1.896,0,6,0,6,0,1,,,,,,,,,,,,
6413c7853eba2b2215197ff4,SCR,2024-06-10_11h44.30.273,LearnStrategy,2023.2.3,Win32,119.047619,9,1,8,-0.233333305,0.2537037,1,0,0,1.3304,Basalt_16,2,16,5,3,1.33,1,03,-0.099999958,-0.263888889,1,0,0,1.5118,Basalt_rect,2,1.512,1,7,0,7,0,1,,,,,,,,,,,,
6413c7853eba2b2215197ff4,SCR,2024-06-10_11h44.30.273,LearnStrategy,2023.2.3,Win32,119.047619,9,1,9,-0.086111069,0.260185189,1,0,0,1.311,Peridotite_12,7,12,5,4,1.311,1,04,0.14907406,-0.402777778,1,0,0,1.5356,Peridotite_rect,7,1.536,1,8,0,8,0,1,,,,,,,,,,,,
6413c7853eba2b2215197ff4,SCR,2024-06-10_11h44.30.273,LearnStrategy,2023.2.3,Win32,119.047619,9,1,10,0.08148151,0.264814818,1,0,0,1.2865,Pumice_03,8,03,5,5,1.287,7,06,0.328703704,-0.397222236,1,0,0,1.4014,Pumice_rect,8,1.401,1,9,0,9,0,1,,,,,,,,,,,,
6413c7853eba2b2215197ff4,SCR,2024-06-10_11h44.30.273,LearnStrategy,2023.2.3,Win32,119.047619,9,1,11,0.268518519,0.287962966,1,0,0,2.2617,Basalt_05,2,05,5,6,2.262,1,09,-0.130555541,-0.249074088,1,0,0,1.1645,Basalt_rect,2,1.165,1,10,0,10,0,1,,,,,,,,,,,,
6413c7853eba2b2215197ff4,SCR,2024-06-10_11h44.30.273,LearnStrategy,2023.2.3,Win32,119.047619,9,1,12,0.412037037,0.277777778,1,0,0,2.6223,Basalt_10,2,10,5,7,2.622,6,12,-0.17314812,-0.250925912,1,0,0,1.1871,Basalt_rect,2,1.187,1,11,0,11,0,1,,,,,,,,,,,,
6413c7853eba2b2215197ff4,SCR,2024-06-10_11h44.30.273,LearnStrategy,2023.2.3,Win32,119.047619,9,1,13,0.573148233,0.274074078,1,0,0,1.6186,Pegmatite_09,6,09,5,8,1.619,7,15,0.140740783,-0.400925954,1,0,0,3.2051,Peridotite_rect,7,3.205,0,12,0,12,0,1,,,,,,,,,,,,
6413c7853eba2b2215197ff4,SCR,2024-06-10_11h44.30.273,LearnStrategy,2023.2.3,Win32,119.047619,9,1,14,-0.556481467,0.093518504,1,0,0,3.5134,Andesite_06,1,06,4,1,3.513,2,02,0.128703718,-0.241666653,1,0,0,1.2436,Diorite_rect,3,1.244,0,13,0,13,0,1,,,,,,,,,,,,
6413c7853eba2b2215197ff4,SCR,2024-06-10_11h44.30.273,LearnStrategy,2023.2.3,Win32,119.047619,9,1,15,-0.368518511,0.110185164,1,0,0,1.3779,Obsidian_16,5,16,4,2,1.378,4,10,-0.356481481,-0.397222236,1,0,0,0.8718,Obsidian_rect,5,0.872,1,14,0,14,0,1,,,,,,,,,,,,
6413c7853eba2b2215197ff4,SCR,2024-06-10_11h44.30.273,LearnStrategy,2023.2.3,Win32,119.047619,9,1,16,-0.241666653,0.111111111,1,0,0,1.0946,Gabbro_08,4,08,4,3,1.095,6,08,0.118518547,-0.25,1,0,0,1.7279,Diorite_rect,3,1.728,0,15,0,15,0,1,,,,,,,,,,,,
6413c7853eba2b2215197ff4,SCR,2024-06-10_11h44.30.273,LearnStrategy,2023.2.3,Win32,119.047619,9,2,1,,,,,,,,7,14,,,,,,,,,,,,,1,6.353,0,,,,,,-0.390740748,-0.247222265,1,0,0,6.3528,Andesite_rect,0,0,0,0,1
6413c7853eba2b2215197ff4,SCR,2024-06-10_11h44.30.273,LearnStrategy,2023.2.3,Win32,119.047619,9,2,2,,,,,,,,3,14,,,,,,,,,,,,,1,1.239,0,,,,,,-0.381481489,-0.251851894,1,0,0,1.2394,Andesite_rect,1,0,1,0,1
6413c7853eba2b2215197ff4,SCR,2024-06-10_11h44.30.273,LearnStrategy,2023.2.3,Win32,119.047619,9,2,3,,,,,,,,5,11,,,,,,,,,,,,,5,1.038,1,,,,,,-0.385185171,-0.415740755,1,0,0,1.0375,Obsidian_rect,2,0,2,0,1
6413c7853eba2b2215197ff4,SCR,2024-06-10_11h44.30.273,LearnStrategy,2023.2.3,Win32,119.047619,9,2,4,,,,,,,,8,02,,,,,,,,,,,,,8,2.473,1,,,,,,0.437037009,-0.401851866,1,0,0,2.4726,Pumice_rect,3,0,3,0,1
6413c7853eba2b2215197ff4,SCR,2024-06-10_11h44.30.273,LearnStrategy,2023.2.3,Win32,119.047619,9,2,5,,,,,,,,8,09,,,,,,,,,,,,,8,0.73,1,,,,,,0.436111168,-0.401851866,1,0,0,0.7297,Pumice_rect,4,0,4,0,1
6413c7853eba2b2215197ff4,SCR,2024-06-10_11h44.30.273,LearnStrategy,2023.2.3,Win32,119.047619,9,2,6,,,,,,,,1,07,,,,,,,,,,,,,3,2.226,0,,,,,,0.142592607,-0.256481524,1,0,0,2.2259,Diorite_rect,5,0,5,0,1
6413c7853eba2b2215197ff4,SCR,2024-06-10_11h44.30.273,LearnStrategy,2023.2.3,Win32,119.047619,9,2,7,,,,,,,,4,11,,,,,,,,,,,,,2,1.519,0,,,,,,-0.127777735,-0.252777806,1,0,0,1.5186,Basalt_rect,6,0,6,0,1
6413c7853eba2b2215197ff4,SCR,2024-06-10_11h44.30.273,LearnStrategy,2023.2.3,Win32,119.047619,9,2,8,,,,,,,,1,01,,,,,,,,,,,,,3,1.593,0,,,,,,0.150000042,-0.246296282,1,0,0,1.5927,Diorite_rect,7,0,7,0,1
6413c7853eba2b2215197ff4,SCR,2024-06-10_11h44.30.273,LearnStrategy,2023.2.3,Win32,119.047619,9,2,9,,,,,,,,7,07,,,,,,,,,,,,,1,1.755,0,,,,,,-0.39166666,-0.25462963,1,0,0,1.7548,Andesite_rect,8,0,8,0,1
6413c7853eba2b2215197ff4,SCR,2024-06-10_11h44.30.273,LearnStrategy,2023.2.3,Win32,119.047619,9,2,10,,,,,,,,6,07,,,,,,,,,,,,,6,2.07,1,,,,,,-0.159259231,-0.405555584,1,0,0,2.0701,Pegmatite_rect,9,0,9,0,1
6413c7853eba2b2215197ff4,SCR,2024-06-10_11h44.30.273,LearnStrategy,2023.2.3,Win32,119.047619,9,2,11,,,,,,,,4,16,,,,,,,,,,,,,1,3.323,0,,,,,,-0.371296282,-0.250925912,1,0,0,3.3231,Andesite_rect,10,0,10,0,1
6413c7853eba2b2215197ff4,SCR,2024-06-10_11h44.30.273,LearnStrategy,2023.2.3,Win32,119.047619,9,2,12,,,,,,,,6,10,,,,,,,,,,,,,6,4.612,1,,,,,,-0.098148134,-0.409259302,1,0,0,4.612,Pegmatite_rect,11,0,11,0,1
6413c7853eba2b2215197ff4,SCR,2024-06-10_11h44.30.273,LearnStrategy,2023.2.3,Win32,119.047619,9,2,13,,,,,,,,2,08,,,,,,,,,,,,,2,1.975,1,,,,,,-0.134259259,-0.253703718,1,0,0,1.9752,Basalt_rect,12,0,12,0,1
6413c7853eba2b2215197ff4,SCR,2024-06-10_11h44.30.273,LearnStrategy,2023.2.3,Win32,119.047619,9,2,14,,,,,,,,3,11,,,,,,,,,,,,,3,1.839,1,,,,,,0.143518519,-0.249074088,1,0,0,1.8391,Diorite_rect,13,0,13,0,1
6413c7853eba2b2215197ff4,SCR,2024-06-10_11h44.30.273,LearnStrategy,2023.2.3,Win32,119.047619,9,2,15,,,,,,,,5,07,,,,,,,,,,,,,5,1.047,1,,,,,,-0.416666667,-0.380555541,1,0,0,1.0468,Obsidian_rect,14,0,14,0,1
6413c7853eba2b2215197ff4,SCR,2024-06-10_11h44.30.273,LearnStrategy,2023.2.3,Win32,119.047619,9,2,16,,,,,,,,2,01,,,,,,,,,,,,,2,1.496,1,,,,,,-0.087037051,-0.229629658,1,0,0,1.4958,Basalt_rect,15,0,15,0,1
6413c7853eba2b2215197ff4,SCR,2024-06-10_11h44.30.273,LearnStrategy,2023.2.3,Win32,119.047619,,,,,,,,,,,,,,,,,,,,,,,,,,,,,,,,,,,,,,,,,,,,
6413c7853eba2b2215197ff4,SCR,2024-06-10_11h44.30.273,LearnStrategy,2023.2.3,Win32,119.047619,,,,,,,,,,,,,,,,,,,,,,,,,,,,,,,,,,,,,,,,,,,,
6413c7853eba2b2215197ff4,SCR,2024-06-10_11h44.30.273,LearnStrategy,2023.2.3,Win32,119.047619,,,,,,,,,,,7,15,1,1,,,,,,,,,,,,,,,,,,,,,,,,,,,,,,
6413c7853eba2b2215197ff4,SCR,2024-06-10_11h44.30.273,LearnStrategy,2023.2.3,Win32,119.047619,,,,,,,,,,,7,10,1,2,,,,,,,,,,,,,,,,,,,,,,,,,,,,,,
6413c7853eba2b2215197ff4,SCR,2024-06-10_11h44.30.273,LearnStrategy,2023.2.3,Win32,119.047619,,,,,,,,,,,8,04,1,3,,,,,,,,,,,,,,,,,,,,,,,,,,,,,,
6413c7853eba2b2215197ff4,SCR,2024-06-10_11h44.30.273,LearnStrategy,2023.2.3,Win32,119.047619,,,,,,,,,,,3,13,1,4,,,,,,,,,,,,,,,,,,,,,,,,,,,,,,
6413c7853eba2b2215197ff4,SCR,2024-06-10_11h44.30.273,LearnStrategy,2023.2.3,Win32,119.047619,,,,,,,,,,,6,12,1,5,,,,,,,,,,,,,,,,,,,,,,,,,,,,,,
6413c7853eba2b2215197ff4,SCR,2024-06-10_11h44.30.273,LearnStrategy,2023.2.3,Win32,119.047619,,,,,,,,,,,5,10,1,6,,,,,,,,,,,,,,,,,,,,,,,,,,,,,,
6413c7853eba2b2215197ff4,SCR,2024-06-10_11h44.30.273,LearnStrategy,2023.2.3,Win32,119.047619,,,,,,,,,,,7,04,1,7,,,,,,,,,,,,,,,,,,,,,,,,,,,,,,
6413c7853eba2b2215197ff4,SCR,2024-06-10_11h44.30.273,LearnStrategy,2023.2.3,Win32,119.047619,,,,,,,,,,,4,05,1,8,,,,,,,,,,,,,,,,,,,,,,,,,,,,,,
6413c7853eba2b2215197ff4,SCR,2024-06-10_11h44.30.273,LearnStrategy,2023.2.3,Win32,119.047619,,,,,,,,,,,1,02,2,1,,,,,,,,,,,,,,,,,,,,,,,,,,,,,,
6413c7853eba2b2215197ff4,SCR,2024-06-10_11h44.30.273,LearnStrategy,2023.2.3,Win32,119.047619,,,,,,,,,,,5,08,2,2,,,,,,,,,,,,,,,,,,,,,,,,,,,,,,
6413c7853eba2b2215197ff4,SCR,2024-06-10_11h44.30.273,LearnStrategy,2023.2.3,Win32,119.047619,,,,,,,,,,,5,09,2,3,,,,,,,,,,,,,,,,,,,,,,,,,,,,,,
6413c7853eba2b2215197ff4,SCR,2024-06-10_11h44.30.273,LearnStrategy,2023.2.3,Win32,119.047619,,,,,,,,,,,5,12,2,4,,,,,,,,,,,,,,,,,,,,,,,,,,,,,,
6413c7853eba2b2215197ff4,SCR,2024-06-10_11h44.30.273,LearnStrategy,2023.2.3,Win32,119.047619,,,,,,,,,,,3,06,2,5,,,,,,,,,,,,,,,,,,,,,,,,,,,,,,
6413c7853eba2b2215197ff4,SCR,2024-06-10_11h44.30.273,LearnStrategy,2023.2.3,Win32,119.047619,,,,,,,,,,,2,02,2,6,,,,,,,,,,,,,,,,,,,,,,,,,,,,,,
6413c7853eba2b2215197ff4,SCR,2024-06-10_11h44.30.273,LearnStrategy,2023.2.3,Win32,119.047619,,,,,,,,,,,8,15,2,7,,,,,,,,,,,,,,,,,,,,,,,,,,,,,,
6413c7853eba2b2215197ff4,SCR,2024-06-10_11h44.30.273,LearnStrategy,2023.2.3,Win32,119.047619,,,,,,,,,,,2,09,2,8,,,,,,,,,,,,,,,,,,,,,,,,,,,,,,
6413c7853eba2b2215197ff4,SCR,2024-06-10_11h44.30.273,LearnStrategy,2023.2.3,Win32,119.047619,,,,,,,,,,,3,09,3,1,,,,,,,,,,,,,,,,,,,,,,,,,,,,,,
6413c7853eba2b2215197ff4,SCR,2024-06-10_11h44.30.273,LearnStrategy,2023.2.3,Win32,119.047619,,,,,,,,,,,6,08,3,2,,,,,,,,,,,,,,,,,,,,,,,,,,,,,,
6413c7853eba2b2215197ff4,SCR,2024-06-10_11h44.30.273,LearnStrategy,2023.2.3,Win32,119.047619,,,,,,,,,,,4,03,3,3,,,,,,,,,,,,,,,,,,,,,,,,,,,,,,
6413c7853eba2b2215197ff4,SCR,2024-06-10_11h44.30.273,LearnStrategy,2023.2.3,Win32,119.047619,,,,,,,,,,,7,06,3,4,,,,,,,,,,,,,,,,,,,,,,,,,,,,,,
6413c7853eba2b2215197ff4,SCR,2024-06-10_11h44.30.273,LearnStrategy,2023.2.3,Win32,119.047619,,,,,,,,,,,8,08,3,5,,,,,,,,,,,,,,,,,,,,,,,,,,,,,,
6413c7853eba2b2215197ff4,SCR,2024-06-10_11h44.30.273,LearnStrategy,2023.2.3,Win32,119.047619,,,,,,,,,,,4,09,3,6,,,,,,,,,,,,,,,,,,,,,,,,,,,,,,
6413c7853eba2b2215197ff4,SCR,2024-06-10_11h44.30.273,LearnStrategy,2023.2.3,Win32,119.047619,,,,,,,,,,,7,13,3,7,,,,,,,,,,,,,,,,,,,,,,,,,,,,,,
6413c7853eba2b2215197ff4,SCR,2024-06-10_11h44.30.273,LearnStrategy,2023.2.3,Win32,119.047619,,,,,,,,,,,4,14,3,8,,,,,,,,,,,,,,,,,,,,,,,,,,,,,,
6413c7853eba2b2215197ff4,SCR,2024-06-10_11h44.30.273,LearnStrategy,2023.2.3,Win32,119.047619,,,,,,,,,,,1,06,4,1,,,,,,,,,,,,,,,,,,,,,,,,,,,,,,
6413c7853eba2b2215197ff4,SCR,2024-06-10_11h44.30.273,LearnStrategy,2023.2.3,Win32,119.047619,,,,,,,,,,,5,16,4,2,,,,,,,,,,,,,,,,,,,,,,,,,,,,,,
6413c7853eba2b2215197ff4,SCR,2024-06-10_11h44.30.273,LearnStrategy,2023.2.3,Win32,119.047619,,,,,,,,,,,4,08,4,3,,,,,,,,,,,,,,,,,,,,,,,,,,,,,,
6413c7853eba2b2215197ff4,SCR,2024-06-10_11h44.30.273,LearnStrategy,2023.2.3,Win32,119.047619,,,,,,,,,,,1,09,4,4,,,,,,,,,,,,,,,,,,,,,,,,,,,,,,
6413c7853eba2b2215197ff4,SCR,2024-06-10_11h44.30.273,LearnStrategy,2023.2.3,Win32,119.047619,,,,,,,,,,,1,16,4,5,,,,,,,,,,,,,,,,,,,,,,,,,,,,,,
6413c7853eba2b2215197ff4,SCR,2024-06-10_11h44.30.273,LearnStrategy,2023.2.3,Win32,119.047619,,,,,,,,,,,3,15,4,6,,,,,,,,,,,,,,,,,,,,,,,,,,,,,,
6413c7853eba2b2215197ff4,SCR,2024-06-10_11h44.30.273,LearnStrategy,2023.2.3,Win32,119.047619,,,,,,,,,,,5,14,4,7,,,,,,,,,,,,,,,,,,,,,,,,,,,,,,
6413c7853eba2b2215197ff4,SCR,2024-06-10_11h44.30.273,LearnStrategy,2023.2.3,Win32,119.047619,,,,,,,,,,,8,06,4,8,,,,,,,,,,,,,,,,,,,,,,,,,,,,,,
6413c7853eba2b2215197ff4,SCR,2024-06-10_11h44.30.273,LearnStrategy,2023.2.3,Win32,119.047619,,,,,,,,,,,1,04,5,1,,,,,,,,,,,,,,,,,,,,,,,,,,,,,,
6413c7853eba2b2215197ff4,SCR,2024-06-10_11h44.30.273,LearnStrategy,2023.2.3,Win32,119.047619,,,,,,,,,,,1,03,5,2,,,,,,,,,,,,,,,,,,,,,,,,,,,,,,
6413c7853eba2b2215197ff4,SCR,2024-06-10_11h44.30.273,LearnStrategy,2023.2.3,Win32,119.047619,,,,,,,,,,,2,16,5,3,,,,,,,,,,,,,,,,,,,,,,,,,,,,,,
6413c7853eba2b2215197ff4,SCR,2024-06-10_11h44.30.273,LearnStrategy,2023.2.3,Win32,119.047619,,,,,,,,,,,7,12,5,4,,,,,,,,,,,,,,,,,,,,,,,,,,,,,,
6413c7853eba2b2215197ff4,SCR,2024-06-10_11h44.30.273,LearnStrategy,2023.2.3,Win32,119.047619,,,,,,,,,,,8,03,5,5,,,,,,,,,,,,,,,,,,,,,,,,,,,,,,
6413c7853eba2b2215197ff4,SCR,2024-06-10_11h44.30.273,LearnStrategy,2023.2.3,Win32,119.047619,,,,,,,,,,,2,05,5,6,,,,,,,,,,,,,,,,,,,,,,,,,,,,,,
6413c7853eba2b2215197ff4,SCR,2024-06-10_11h44.30.273,LearnStrategy,2023.2.3,Win32,119.047619,,,,,,,,,,,2,10,5,7,,,,,,,,,,,,,,,,,,,,,,,,,,,,,,
6413c7853eba2b2215197ff4,SCR,2024-06-10_11h44.30.273,LearnStrategy,2023.2.3,Win32,119.047619,,,,,,,,,,,6,09,5,8,,,,,,,,,,,,,,,,,,,,,,,,,,,,,,
6413c7853eba2b2215197ff4,SCR,2024-06-10_11h44.30.273,LearnStrategy,2023.2.3,Win32,119.047619,,,,,,,,,,,4,10,6,1,,,,,,,,,,,,,,,,,,,,,,,,,,,,,,
6413c7853eba2b2215197ff4,SCR,2024-06-10_11h44.30.273,LearnStrategy,2023.2.3,Win32,119.047619,,,,,,,,,,,3,12,6,2,,,,,,,,,,,,,,,,,,,,,,,,,,,,,,
6413c7853eba2b2215197ff4,SCR,2024-06-10_11h44.30.273,LearnStrategy,2023.2.3,Win32,119.047619,,,,,,,,,,,6,11,6,3,,,,,,,,,,,,,,,,,,,,,,,,,,,,,,
6413c7853eba2b2215197ff4,SCR,2024-06-10_11h44.30.273,LearnStrategy,2023.2.3,Win32,119.047619,,,,,,,,,,,6,16,6,4,,,,,,,,,,,,,,,,,,,,,,,,,,,,,,
6413c7853eba2b2215197ff4,SCR,2024-06-10_11h44.30.273,LearnStrategy,2023.2.3,Win32,119.047619,,,,,,,,,,,6,05,6,5,,,,,,,,,,,,,,,,,,,,,,,,,,,,,,
6413c7853eba2b2215197ff4,SCR,2024-06-10_11h44.30.273,LearnStrategy,2023.2.3,Win32,119.047619,,,,,,,,,,,3,10,6,6,,,,,,,,,,,,,,,,,,,,,,,,,,,,,,
6413c7853eba2b2215197ff4,SCR,2024-06-10_11h44.30.273,LearnStrategy,2023.2.3,Win32,119.047619,,,,,,,,,,,2,04,6,7,,,,,,,,,,,,,,,,,,,,,,,,,,,,,,
6413c7853eba2b2215197ff4,SCR,2024-06-10_11h44.30.273,LearnStrategy,2023.2.3,Win32,119.047619,,,,,,,,,,,8,05,6,8,,,,,,,,,,,,,,,,,,,,,,,,,,,,,,