participant,condition,date,expName,psychopyVersion,OS,frameRate,block,phase,trial,learn_mouse.x,learn_mouse.y,learn_mouse.leftButton,learn_mouse.midButton,learn_mouse.rightButton,learn_mouse.time,learn_mouse.clicked_name,cat,token,row,col,t_select,cat_rec,token_rec,cat_mouse_l.x,cat_mouse_l.y,cat_mouse_l.leftButton,cat_mouse_l.midButton,cat_mouse_l.rightButton,cat_mouse_l.time,cat_mouse_l.clicked_name,resp,t_resp,corr,train_trials.thisRepN,train_trials.thisTrialN,train_trials.thisN,train_trials.thisIndex,train_trials.ran,cat_mouse_t.x,cat_mouse_t.y,cat_mouse_t.leftButton,cat_mouse_t.midButton,cat_mouse_t.rightButton,cat_mouse_t.time,cat_mouse_t.clicked_name,test_trials.thisRepN,test_trials.thisTrialN,test_trials.thisN,test_trials.thisIndex,test_trials.ran,Bonus
6415e163b670eed64ad645ff,SCR,2024-06-20_16h27.54.301,LearnStrategy,2023.2.3,Linux x86_64,59.52380952,,,,,,,,,,,,,,,,,,,,,,,,,,,,,,,,,,,,,,,,,,,,,
6415e163b670eed64ad645ff,SCR,2024-06-20_16h27.54.301,LearnStrategy,2023.2.3,Linux x86_64,59.52380952,1,1,1,0.369231748,0.095871079,1,0,0,3.6926,Peridotite_15,7,15,4,7,3.693,2,09,0.390262228,-0.402206779,1,0,0,4.2401,Pumice_rect,8,4.24,0,0,0,0,0,1,,,,,,,,,,,,,
6415e163b670eed64ad645ff,SCR,2024-06-20_16h27.54.301,LearnStrategy,2023.2.3,Linux x86_64,59.52380952,1,1,2,-0.053810227,0.079332665,1,0,0,1.3813,Pegmatite_13,6,13,4,4,1.381,5,10,-0.394683265,-0.381753196,1,0,0,4.2881,Obsidian_rect,5,4.288,0,1,0,1,0,1,,,,,,,,,,,,,
6415e163b670eed64ad645ff,SCR,2024-06-20_16h27.54.301,LearnStrategy,2023.2.3,Linux x86_64,59.52380952,1,1,3,0.057910686,-0.395964645,1,0,0,2.0415,Pumice_02,8,02,1,5,2.041,7,04,0.129923216,-0.243216,1,0,0,2.6529,Diorite_rect,3,2.653,0,2,0,2,0,1,,,,,,,,,,,,,
6415e163b670eed64ad645ff,SCR,2024-06-20_16h27.54.301,LearnStrategy,2023.2.3,Linux x86_64,59.52380952,1,1,4,-0.549470606,-0.408256567,1,0,0,1.496,Pegmatite_09,6,09,1,1,1.496,8,02,-0.393561027,-0.261746259,1,0,0,1.6065,Andesite_rect,1,1.606,0,3,0,3,0,1,,,,,,,,,,,,,
6415e163b670eed64ad645ff,SCR,2024-06-20_16h27.54.301,LearnStrategy,2023.2.3,Linux x86_64,59.52380952,1,1,5,0.072871678,0.099064894,1,0,0,2.8835,Gabbro_16,4,16,4,5,2.883,3,07,-0.096699459,-0.247794711,1,0,0,1.7774,Basalt_rect,2,1.777,0,4,0,4,0,1,,,,,,,,,,,,,
6415e163b670eed64ad645ff,SCR,2024-06-20_16h27.54.301,LearnStrategy,2023.2.3,Linux x86_64,59.52380952,1,1,6,0.245482682,0.231402563,1,0,0,1.9204,Obsidian_02,5,02,5,6,1.92,6,09,0.095903423,-0.393639936,1,0,0,2.0249,Peridotite_rect,7,2.025,0,5,0,5,0,1,,,,,,,,,,,,,
6415e163b670eed64ad645ff,SCR,2024-06-20_16h27.54.301,LearnStrategy,2023.2.3,Linux x86_64,59.52380952,1,1,7,-0.520732647,0.372935291,1,0,0,2.8788,Pumice_16,8,16,6,1,2.879,2,16,0.396478787,-0.384478932,1,0,0,3.0983,Pumice_rect,8,3.098,1,6,0,6,0,1,,,,,,,,,,,,,
6415e163b670eed64ad645ff,SCR,2024-06-20_16h27.54.301,LearnStrategy,2023.2.3,Linux x86_64,59.52380952,1,1,8,-0.236620478,0.393601127,1,0,0,2.1146,Obsidian_10,5,10,6,3,2.115,6,13,0.398864603,-0.230708377,1,0,0,1.6018,Gabbro_rect,4,1.602,0,7,0,7,0,1,,,,,,,,,,,,,
6415e163b670eed64ad645ff,SCR,2024-06-20_16h27.54.301,LearnStrategy,2023.2.3,Linux x86_64,59.52380952,1,1,9,-0.389968621,0.4251176,1,0,0,3.2956,Pegmatite_08,6,08,6,2,3.296,1,03,-0.343976052,-0.385079541,1,0,0,2.1134,Obsidian_rect,5,2.113,0,8,0,8,0,1,,,,,,,,,,,,,
6415e163b670eed64ad645ff,SCR,2024-06-20_16h27.54.301,LearnStrategy,2023.2.3,Linux x86_64,59.52380952,1,1,10,0.252169255,-0.265570842,1,0,0,1.7219,Obsidian_05,5,05,2,6,1.722,7,16,-0.430973035,-0.400019471,1,0,0,1.3998,Obsidian_rect,5,1.4,1,9,0,9,0,1,,,,,,,,,,,,,
6415e163b670eed64ad645ff,SCR,2024-06-20_16h27.54.301,LearnStrategy,2023.2.3,Linux x86_64,59.52380952,1,1,11,0.247808895,-0.257463124,1,0,0,1.9539,Obsidian_05,5,05,2,6,1.954,4,16,-0.366051257,-0.401152418,1,0,0,2.6214,Obsidian_rect,5,2.621,1,10,0,10,0,1,,,,,,,,,,,,,
6415e163b670eed64ad645ff,SCR,2024-06-20_16h27.54.301,LearnStrategy,2023.2.3,Linux x86_64,59.52380952,1,1,12,0.570415228,-0.090321107,1,0,0,3.4968,Diorite_11,3,11,3,8,3.497,1,07,-0.144763642,-0.416883298,1,0,0,1.9056,Pegmatite_rect,6,1.906,0,11,0,11,0,1,,,,,,,,,,,,,
6415e163b670eed64ad645ff,SCR,2024-06-20_16h27.54.301,LearnStrategy,2023.2.3,Linux x86_64,59.52380952,1,1,13,0.560908501,-0.276493914,1,0,0,1.3758,Diorite_10,3,10,2,8,1.376,5,14,0.133465118,-0.257848534,1,0,0,4.0426,Diorite_rect,3,4.043,1,12,0,12,0,1,,,,,,,,,,,,,
6415e163b670eed64ad645ff,SCR,2024-06-20_16h27.54.301,LearnStrategy,2023.2.3,Linux x86_64,59.52380952,1,1,14,0.578903986,-0.28312239,1,0,0,1.447,Diorite_10,3,10,2,8,1.447,3,13,0.150377157,-0.269262108,1,0,0,1.5586,Diorite_rect,3,1.559,1,13,0,13,0,1,,,,,,,,,,,,,
6415e163b670eed64ad645ff,SCR,2024-06-20_16h27.54.301,LearnStrategy,2023.2.3,Linux x86_64,59.52380952,1,1,15,0.058817044,-0.0875391,1,0,0,0.8528,Diorite_07,3,07,3,5,0.853,8,05,0.09894988,-0.232753772,1,0,0,2.8341,Diorite_rect,3,2.834,1,14,0,14,0,1,,,,,,,,,,,,,
6415e163b670eed64ad645ff,SCR,2024-06-20_16h27.54.301,LearnStrategy,2023.2.3,Linux x86_64,59.52380952,1,1,16,-0.242124746,-0.251859925,1,0,0,1.1822,Diorite_12,3,12,2,3,1.182,4,11,0.077581415,-0.244659639,1,0,0,1.1103,Diorite_rect,3,1.11,1,15,0,15,0,1,,,,,,,,,,,,,
6415e163b670eed64ad645ff,SCR,2024-06-20_16h27.54.301,LearnStrategy,2023.2.3,Linux x86_64,59.52380952,1,2,1,,,,,,,,7,13,,,,,,,,,,,,,3,3.686,0,,,,,,0.168544572,-0.249004525,1,0,0,3.6864,Diorite_rect,0,0,0,0,1,
6415e163b670eed64ad645ff,SCR,2024-06-20_16h27.54.301,LearnStrategy,2023.2.3,Linux x86_64,59.52380952,1,2,2,,,,,,,,3,08,,,,,,,,,,,,,3,1.814,1,,,,,,0.138967165,-0.255618888,1,0,0,1.8135,Diorite_rect,1,0,1,0,1,
6415e163b670eed64ad645ff,SCR,2024-06-20_16h27.54.301,LearnStrategy,2023.2.3,Linux x86_64,59.52380952,1,2,3,,,,,,,,6,05,,,,,,,,,,,,,5,3.511,0,,,,,,-0.473031201,-0.390666621,1,0,0,3.5112,Obsidian_rect,2,0,2,0,1,
6415e163b670eed64ad645ff,SCR,2024-06-20_16h27.54.301,LearnStrategy,2023.2.3,Linux x86_64,59.52380952,1,2,4,,,,,,,,8,10,,,,,,,,,,,,,8,2.528,1,,,,,,0.348184075,-0.394741936,1,0,0,2.5283,Pumice_rect,3,0,3,0,1,
6415e163b670eed64ad645ff,SCR,2024-06-20_16h27.54.301,LearnStrategy,2023.2.3,Linux x86_64,59.52380952,1,2,5,,,,,,,,2,08,,,,,,,,,,,,,2,1.65,1,,,,,,-0.15186822,-0.257908279,1,0,0,1.6502,Basalt_rect,4,0,4,0,1,
6415e163b670eed64ad645ff,SCR,2024-06-20_16h27.54.301,LearnStrategy,2023.2.3,Linux x86_64,59.52380952,1,2,6,,,,,,,,6,15,,,,,,,,,,,,,4,1.833,0,,,,,,0.328374442,-0.245317414,1,0,0,1.8327,Gabbro_rect,5,0,5,0,1,
6415e163b670eed64ad645ff,SCR,2024-06-20_16h27.54.301,LearnStrategy,2023.2.3,Linux x86_64,59.52380952,1,2,7,,,,,,,,1,16,,,,,,,,,,,,,8,1.256,0,,,,,,0.338750991,-0.398840174,1,0,0,1.2556,Pumice_rect,6,0,6,0,1,
6415e163b670eed64ad645ff,SCR,2024-06-20_16h27.54.301,LearnStrategy,2023.2.3,Linux x86_64,59.52380952,1,2,8,,,,,,,,5,04,,,,,,,,,,,,,3,1.591,0,,,,,,0.073908058,-0.250415712,1,0,0,1.5915,Diorite_rect,7,0,7,0,1,
6415e163b670eed64ad645ff,SCR,2024-06-20_16h27.54.301,LearnStrategy,2023.2.3,Linux x86_64,59.52380952,1,2,9,,,,,,,,3,15,,,,,,,,,,,,,1,2.086,0,,,,,,-0.449670962,-0.259829741,1,0,0,2.0864,Andesite_rect,8,0,8,0,1,
6415e163b670eed64ad645ff,SCR,2024-06-20_16h27.54.301,LearnStrategy,2023.2.3,Linux x86_64,59.52380952,1,2,10,,,,,,,,4,08,,,,,,,,,,,,,3,1.206,0,,,,,,0.097839785,-0.264699658,1,0,0,1.2063,Diorite_rect,9,0,9,0,1,
6415e163b670eed64ad645ff,SCR,2024-06-20_16h27.54.301,LearnStrategy,2023.2.3,Linux x86_64,59.52380952,1,2,11,,,,,,,,1,04,,,,,,,,,,,,,8,1.27,0,,,,,,0.426303917,-0.382527526,1,0,0,1.2703,Pumice_rect,10,0,10,0,1,
6415e163b670eed64ad645ff,SCR,2024-06-20_16h27.54.301,LearnStrategy,2023.2.3,Linux x86_64,59.52380952,1,2,12,,,,,,,,7,12,,,,,,,,,,,,,3,1.514,0,,,,,,0.176306138,-0.243177101,1,0,0,1.5141,Diorite_rect,11,0,11,0,1,
6415e163b670eed64ad645ff,SCR,2024-06-20_16h27.54.301,LearnStrategy,2023.2.3,Linux x86_64,59.52380952,1,2,13,,,,,,,,2,06,,,,,,,,,,,,,3,1.255,0,,,,,,0.171808019,-0.261124015,1,0,0,1.2554,Diorite_rect,12,0,12,0,1,
6415e163b670eed64ad645ff,SCR,2024-06-20_16h27.54.301,LearnStrategy,2023.2.3,Linux x86_64,59.52380952,1,2,14,,,,,,,,5,12,,,,,,,,,,,,,3,0.942,0,,,,,,0.171021367,-0.261910667,1,0,0,0.9425,Diorite_rect,13,0,13,0,1,
6415e163b670eed64ad645ff,SCR,2024-06-20_16h27.54.301,LearnStrategy,2023.2.3,Linux x86_64,59.52380952,1,2,15,,,,,,,,4,15,,,,,,,,,,,,,5,0.975,0,,,,,,-0.441179338,-0.384349554,1,0,0,0.9745,Obsidian_rect,14,0,14,0,1,
6415e163b670eed64ad645ff,SCR,2024-06-20_16h27.54.301,LearnStrategy,2023.2.3,Linux x86_64,59.52380952,1,2,16,,,,,,,,8,15,,,,,,,,,,,,,1,1.511,0,,,,,,-0.379082514,-0.235769997,1,0,0,1.511,Andesite_rect,15,0,15,0,1,
6415e163b670eed64ad645ff,SCR,2024-06-20_16h27.54.301,LearnStrategy,2023.2.3,Linux x86_64,59.52380952,2,1,1,0.06382644,-0.097110587,1,0,0,1.6564,Diorite_07,3,07,3,5,1.656,1,07,0.189436433,-0.259821431,1,0,0,1.7864,Diorite_rect,3,1.786,1,0,0,0,0,1,,,,,,,,,,,,,
6415e163b670eed64ad645ff,SCR,2024-06-20_16h27.54.301,LearnStrategy,2023.2.3,Linux x86_64,59.52380952,2,1,2,0.223879819,-0.281465271,1,0,0,2.1668,Obsidian_05,5,05,2,6,2.167,6,12,0.14571069,-0.266730223,1,0,0,0.9266,Diorite_rect,3,0.927,0,1,0,1,0,1,,,,,,,,,,,,,
6415e163b670eed64ad645ff,SCR,2024-06-20_16h27.54.301,LearnStrategy,2023.2.3,Linux x86_64,59.52380952,2,1,3,-0.541388534,0.279877837,1,0,0,1.6625,Pumice_05,8,05,5,1,1.662,1,14,0.423954207,-0.410383198,1,0,0,1.1579,Pumice_rect,8,1.158,1,2,0,2,0,1,,,,,,,,,,,,,
6415e163b670eed64ad645ff,SCR,2024-06-20_16h27.54.301,LearnStrategy,2023.2.3,Linux x86_64,59.52380952,2,1,4,0.380994054,0.37803546,1,0,0,2.3351,Peridotite_14,7,14,6,7,2.335,5,14,0.343370035,-0.405812581,1,0,0,1.1471,Pumice_rect,8,1.147,0,3,0,3,0,1,,,,,,,,,,,,,
6415e163b670eed64ad645ff,SCR,2024-06-20_16h27.54.301,LearnStrategy,2023.2.3,Linux x86_64,59.52380952,2,1,5,-0.073572078,-0.445657148,1,0,0,2.8802,Gabbro_11,4,11,1,4,2.88,7,14,-0.05908024,-0.397990195,1,0,0,0.8304,Pegmatite_rect,6,0.83,0,4,0,4,0,1,,,,,,,,,,,,,
6415e163b670eed64ad645ff,SCR,2024-06-20_16h27.54.301,LearnStrategy,2023.2.3,Linux x86_64,59.52380952,2,1,6,-0.242785028,0.429982638,1,0,0,3.1447,Obsidian_10,5,10,6,3,3.145,7,05,-0.352808599,-0.380215784,1,0,0,3.2946,Obsidian_rect,5,3.295,1,5,0,5,0,1,,,,,,,,,,,,,
6415e163b670eed64ad645ff,SCR,2024-06-20_16h27.54.301,LearnStrategy,2023.2.3,Linux x86_64,59.52380952,2,1,7,-0.202323806,-0.395102058,1,0,0,2.0275,Obsidian_09,5,09,1,3,2.027,8,02,-0.461975671,-0.411472804,1,0,0,1.3719,Obsidian_rect,5,1.372,1,6,0,6,0,1,,,,,,,,,,,,,
6415e163b670eed64ad645ff,SCR,2024-06-20_16h27.54.301,LearnStrategy,2023.2.3,Linux x86_64,59.52380952,2,1,8,0.230801649,0.247177088,1,0,0,1.7486,Obsidian_02,5,02,5,6,1.749,3,11,-0.4577463,-0.397810815,1,0,0,2.0743,Obsidian_rect,5,2.074,1,7,0,7,0,1,,,,,,,,,,,,,
6415e163b670eed64ad645ff,SCR,2024-06-20_16h27.54.301,LearnStrategy,2023.2.3,Linux x86_64,59.52380952,2,1,9,0.092467187,-0.085247882,1,0,0,3.3585,Diorite_07,3,07,3,5,3.358,4,10,0.089883867,-0.248786102,1,0,0,1.3803,Diorite_rect,3,1.38,1,8,0,8,0,1,,,,,,,,,,,,,
6415e163b670eed64ad645ff,SCR,2024-06-20_16h27.54.301,LearnStrategy,2023.2.3,Linux x86_64,59.52380952,2,1,10,-0.263186101,-0.269024558,1,0,0,0.9834,Diorite_12,3,12,2,3,0.983,4,14,0.136432415,-0.262822397,1,0,0,0.9,Diorite_rect,3,0.9,1,9,0,9,0,1,,,,,,,,,,,,,
6415e163b670eed64ad645ff,SCR,2024-06-20_16h27.54.301,LearnStrategy,2023.2.3,Linux x86_64,59.52380952,2,1,11,0.221618223,-0.099977269,1,0,0,1.0941,Andesite_09,1,09,3,6,1.094,3,14,0.398280614,-0.416328824,1,0,0,1.2538,Pumice_rect,8,1.254,0,10,0,10,0,1,,,,,,,,,,,,,
6415e163b670eed64ad645ff,SCR,2024-06-20_16h27.54.301,LearnStrategy,2023.2.3,Linux x86_64,59.52380952,2,1,12,-0.077413854,0.380857074,1,0,0,2.5786,Pumice_09,8,09,6,4,2.579,8,16,0.359086874,-0.41853397,1,0,0,0.9979,Pumice_rect,8,0.998,1,11,0,11,0,1,,,,,,,,,,,,,
6415e163b670eed64ad645ff,SCR,2024-06-20_16h27.54.301,LearnStrategy,2023.2.3,Linux x86_64,59.52380952,2,1,13,-0.247326703,0.426377283,1,0,0,2.2521,Obsidian_10,5,10,6,3,2.252,2,09,-0.417754733,-0.389665917,1,0,0,2.5649,Obsidian_rect,5,2.565,1,12,0,12,0,1,,,,,,,,,,,,,
6415e163b670eed64ad645ff,SCR,2024-06-20_16h27.54.301,LearnStrategy,2023.2.3,Linux x86_64,59.52380952,2,1,14,-0.391959249,-0.244570808,1,0,0,2.3401,Peridotite_04,7,04,2,2,2.34,5,05,0.168015529,-0.248820274,1,0,0,2.708,Diorite_rect,3,2.708,0,13,0,13,0,1,,,,,,,,,,,,,
6415e163b670eed64ad645ff,SCR,2024-06-20_16h27.54.301,LearnStrategy,2023.2.3,Linux x86_64,59.52380952,2,1,15,0.107428394,-0.424163245,1,0,0,4.8874,Pumice_02,8,02,1,5,4.887,6,09,0.3824695,-0.388676531,1,0,0,2.429,Pumice_rect,8,2.429,1,14,0,14,0,1,,,,,,,,,,,,,
6415e163b670eed64ad645ff,SCR,2024-06-20_16h27.54.301,LearnStrategy,2023.2.3,Linux x86_64,59.52380952,2,1,16,-0.570932451,0.117618686,1,0,0,1.0315,Peridotite_10,7,10,4,1,1.031,1,01,0.125904638,-0.246412035,1,0,0,1.1812,Diorite_rect,3,1.181,0,15,0,15,0,1,,,,,,,,,,,,,
6415e163b670eed64ad645ff,SCR,2024-06-20_16h27.54.301,LearnStrategy,2023.2.3,Linux x86_64,59.52380952,2,2,1,,,,,,,,7,07,,,,,,,,,,,,,3,2.955,0,,,,,,0.106211918,-0.23445989,1,0,0,2.9552,Diorite_rect,0,0,0,0,1,
6415e163b670eed64ad645ff,SCR,2024-06-20_16h27.54.301,LearnStrategy,2023.2.3,Linux x86_64,59.52380952,2,2,2,,,,,,,,2,05,,,,,,,,,,,,,3,7.484,0,,,,,,0.124983882,-0.25544703,1,0,0,7.4845,Diorite_rect,1,0,1,0,1,
6415e163b670eed64ad645ff,SCR,2024-06-20_16h27.54.301,LearnStrategy,2023.2.3,Linux x86_64,59.52380952,2,2,3,,,,,,,,4,03,,,,,,,,,,,,,3,3.286,0,,,,,,0.117117152,-0.258069106,1,0,0,3.2863,Diorite_rect,2,0,2,0,1,
6415e163b670eed64ad645ff,SCR,2024-06-20_16h27.54.301,LearnStrategy,2023.2.3,Linux x86_64,59.52380952,2,2,4,,,,,,,,5,06,,,,,,,,,,,,,3,1.097,0,,,,,,0.117117152,-0.258069106,1,0,0,1.0971,Diorite_rect,3,0,3,0,1,
6415e163b670eed64ad645ff,SCR,2024-06-20_16h27.54.301,LearnStrategy,2023.2.3,Linux x86_64,59.52380952,2,2,5,,,,,,,,6,06,,,,,,,,,,,,,3,1.515,0,,,,,,0.117117152,-0.258069106,1,0,0,1.5148,Diorite_rect,4,0,4,0,1,
6415e163b670eed64ad645ff,SCR,2024-06-20_16h27.54.301,LearnStrategy,2023.2.3,Linux x86_64,59.52380952,2,2,6,,,,,,,,4,13,,,,,,,,,,,,,3,1.351,0,,,,,,0.117117152,-0.258069106,1,0,0,1.3513,Diorite_rect,5,0,5,0,1,
6415e163b670eed64ad645ff,SCR,2024-06-20_16h27.54.301,LearnStrategy,2023.2.3,Linux x86_64,59.52380952,2,2,7,,,,,,,,6,16,,,,,,,,,,,,,3,0.993,0,,,,,,0.117117152,-0.258069106,1,0,0,0.9933,Diorite_rect,6,0,6,0,1,
6415e163b670eed64ad645ff,SCR,2024-06-20_16h27.54.301,LearnStrategy,2023.2.3,Linux x86_64,59.52380952,2,2,8,,,,,,,,8,14,,,,,,,,,,,,,8,1.575,1,,,,,,0.434515438,-0.416230824,1,0,0,1.5754,Pumice_rect,7,0,7,0,1,
6415e163b670eed64ad645ff,SCR,2024-06-20_16h27.54.301,LearnStrategy,2023.2.3,Linux x86_64,59.52380952,2,2,9,,,,,,,,3,16,,,,,,,,,,,,,3,1.745,1,,,,,,0.156087311,-0.254170521,1,0,0,1.745,Diorite_rect,8,0,8,0,1,
6415e163b670eed64ad645ff,SCR,2024-06-20_16h27.54.301,LearnStrategy,2023.2.3,Linux x86_64,59.52380952,2,2,10,,,,,,,,5,08,,,,,,,,,,,,,3,1.201,0,,,,,,0.180167615,-0.266251971,1,0,0,1.2014,Diorite_rect,9,0,9,0,1,
6415e163b670eed64ad645ff,SCR,2024-06-20_16h27.54.301,LearnStrategy,2023.2.3,Linux x86_64,59.52380952,2,2,11,,,,,,,,8,08,,,,,,,,,,,,,8,1.31,1,,,,,,0.368364934,-0.395063588,1,0,0,1.31,Pumice_rect,10,0,10,0,1,
6415e163b670eed64ad645ff,SCR,2024-06-20_16h27.54.301,LearnStrategy,2023.2.3,Linux x86_64,59.52380952,2,2,12,,,,,,,,1,11,,,,,,,,,,,,,5,1.613,0,,,,,,-0.451374896,-0.387790447,1,0,0,1.6129,Obsidian_rect,11,0,11,0,1,
6415e163b670eed64ad645ff,SCR,2024-06-20_16h27.54.301,LearnStrategy,2023.2.3,Linux x86_64,59.52380952,2,2,13,,,,,,,,1,05,,,,,,,,,,,,,5,0.992,0,,,,,,-0.451112667,-0.387790447,1,0,0,0.9922,Obsidian_rect,12,0,12,0,1,
6415e163b670eed64ad645ff,SCR,2024-06-20_16h27.54.301,LearnStrategy,2023.2.3,Linux x86_64,59.52380952,2,2,14,,,,,,,,3,06,,,,,,,,,,,,,5,1.475,0,,,,,,-0.334701681,-0.397711526,1,0,0,1.4747,Obsidian_rect,13,0,13,0,1,
6415e163b670eed64ad645ff,SCR,2024-06-20_16h27.54.301,LearnStrategy,2023.2.3,Linux x86_64,59.52380952,2,2,15,,,,,,,,7,02,,,,,,,,,,,,,5,0.767,0,,,,,,-0.334701681,-0.397711526,1,0,0,0.7665,Obsidian_rect,14,0,14,0,1,
6415e163b670eed64ad645ff,SCR,2024-06-20_16h27.54.301,LearnStrategy,2023.2.3,Linux x86_64,59.52380952,2,2,16,,,,,,,,2,14,,,,,,,,,,,,,6,2.155,0,,,,,,-0.105787107,-0.405113757,1,0,0,2.1547,Pegmatite_rect,15,0,15,0,1,
6415e163b670eed64ad645ff,SCR,2024-06-20_16h27.54.301,LearnStrategy,2023.2.3,Linux x86_64,59.52380952,3,1,1,-0.280726473,-0.075775182,1,0,0,2.9691,Diorite_14,3,14,3,3,2.969,1,07,-0.10754459,-0.228449289,1,0,0,0.7907,Basalt_rect,2,0.791,0,0,0,0,0,1,,,,,,,,,,,,,
6415e163b670eed64ad645ff,SCR,2024-06-20_16h27.54.301,LearnStrategy,2023.2.3,Linux x86_64,59.52380952,3,1,2,-0.426631695,0.240621826,1,0,0,3.1019,Peridotite_16,7,16,5,2,3.102,6,07,0.411941457,-0.271438885,1,0,0,1.6946,Gabbro_rect,4,1.695,0,1,0,1,0,1,,,,,,,,,,,,,
6415e163b670eed64ad645ff,SCR,2024-06-20_16h27.54.301,LearnStrategy,2023.2.3,Linux x86_64,59.52380952,3,1,3,-0.224677359,-0.059628196,1,0,0,1.5043,Diorite_14,3,14,3,3,1.504,6,12,-0.359004491,-0.397917842,1,0,0,2.3358,Obsidian_rect,5,2.336,0,2,0,2,0,1,,,,,,,,,,,,,
6415e163b670eed64ad645ff,SCR,2024-06-20_16h27.54.301,LearnStrategy,2023.2.3,Linux x86_64,59.52380952,3,1,4,-0.062176413,0.229346011,1,0,0,1.3848,Gabbro_09,4,09,5,4,1.385,4,12,0.112661227,-0.243202747,1,0,0,1.4918,Diorite_rect,3,1.492,0,3,0,3,0,1,,,,,,,,,,,,,
6415e163b670eed64ad645ff,SCR,2024-06-20_16h27.54.301,LearnStrategy,2023.2.3,Linux x86_64,59.52380952,3,1,5,0.437251848,0.263362473,1,0,0,1.4799,Obsidian_14,5,14,5,7,1.48,7,10,0.124178819,-0.239959359,1,0,0,1.0492,Diorite_rect,3,1.049,0,4,0,4,0,1,,,,,,,,,,,,,
6415e163b670eed64ad645ff,SCR,2024-06-20_16h27.54.301,LearnStrategy,2023.2.3,Linux x86_64,59.52380952,3,1,6,0.24207639,0.272300541,1,0,0,1.4904,Obsidian_02,5,02,5,6,1.49,4,10,-0.38534793,-0.399182745,1,0,0,1.9799,Obsidian_rect,5,1.98,1,5,0,5,0,1,,,,,,,,,,,,,
6415e163b670eed64ad645ff,SCR,2024-06-20_16h27.54.301,LearnStrategy,2023.2.3,Linux x86_64,59.52380952,3,1,7,-0.522550628,-0.254459363,1,0,0,1.8358,Andesite_01,1,01,2,1,1.836,5,09,-0.371361531,-0.402664256,1,0,0,4.2231,Obsidian_rect,5,4.223,0,6,0,6,0,1,,,,,,,,,,,,,
6415e163b670eed64ad645ff,SCR,2024-06-20_16h27.54.301,LearnStrategy,2023.2.3,Linux x86_64,59.52380952,3,1,8,0.226400814,-0.233374511,1,0,0,1.0987,Obsidian_05,5,05,2,6,1.099,8,09,0.127272628,-0.413473783,1,0,0,2.1486,Peridotite_rect,7,2.149,0,7,0,7,0,1,,,,,,,,,,,,,
6415e163b670eed64ad645ff,SCR,2024-06-20_16h27.54.301,LearnStrategy,2023.2.3,Linux x86_64,59.52380952,3,1,9,0.076362073,-0.105639534,1,0,0,1.2886,Diorite_07,3,07,3,5,1.289,2,16,0.431797654,-0.395296912,1,0,0,1.1459,Pumice_rect,8,1.146,0,8,0,8,0,1,,,,,,,,,,,,,
6415e163b670eed64ad645ff,SCR,2024-06-20_16h27.54.301,LearnStrategy,2023.2.3,Linux x86_64,59.52380952,3,1,10,0.092686828,-0.103111375,1,0,0,0.5875,Diorite_07,3,07,3,5,0.587,5,02,0.105978379,-0.250355322,1,0,0,0.8296,Diorite_rect,3,0.83,1,9,0,9,0,1,,,,,,,,,,,,,
6415e163b670eed64ad645ff,SCR,2024-06-20_16h27.54.301,LearnStrategy,2023.2.3,Linux x86_64,59.52380952,3,1,11,0.403915477,0.090488129,1,0,0,0.8465,Peridotite_15,7,15,4,7,0.846,3,12,0.192042964,-0.25255882,1,0,0,1.0589,Diorite_rect,3,1.059,0,10,0,10,0,1,,,,,,,,,,,,,
6415e163b670eed64ad645ff,SCR,2024-06-20_16h27.54.301,LearnStrategy,2023.2.3,Linux x86_64,59.52380952,3,1,12,-0.082842473,0.089046639,1,0,0,1.4811,Pegmatite_13,6,13,4,4,1.481,7,15,0.139023042,-0.406114677,1,0,0,1.7576,Peridotite_rect,7,1.758,0,11,0,11,0,1,,,,,,,,,,,,,
6415e163b670eed64ad645ff,SCR,2024-06-20_16h27.54.301,LearnStrategy,2023.2.3,Linux x86_64,59.52380952,3,1,13,-0.218764686,-0.07201887,1,0,0,1.3909,Diorite_14,3,14,3,3,1.391,1,01,-0.108729188,-0.242677644,1,0,0,0.9599,Basalt_rect,2,0.96,0,12,0,12,0,1,,,,,,,,,,,,,
6415e163b670eed64ad645ff,SCR,2024-06-20_16h27.54.301,LearnStrategy,2023.2.3,Linux x86_64,59.52380952,3,1,14,0.088603275,-0.417439277,1,0,0,1.5995,Pumice_02,8,02,1,5,1.6,2,01,0.340662137,-0.38146507,1,0,0,1.4493,Pumice_rect,8,1.449,1,13,0,13,0,1,,,,,,,,,,,,,
6415e163b670eed64ad645ff,SCR,2024-06-20_16h27.54.301,LearnStrategy,2023.2.3,Linux x86_64,59.52380952,3,1,15,-0.081477206,-0.043424544,1,0,0,1.064,Basalt_02,2,02,3,4,1.064,3,07,0.152274333,-0.260018577,1,0,0,1.7185,Diorite_rect,3,1.719,0,14,0,14,0,1,,,,,,,,,,,,,
6415e163b670eed64ad645ff,SCR,2024-06-20_16h27.54.301,LearnStrategy,2023.2.3,Linux x86_64,59.52380952,3,1,16,-0.212868561,0.109431235,1,0,0,1.4174,Pumice_04,8,04,4,3,1.417,5,10,0.402141589,-0.393812869,1,0,0,1.1574,Pumice_rect,8,1.157,1,15,0,15,0,1,,,,,,,,,,,,,
6415e163b670eed64ad645ff,SCR,2024-06-20_16h27.54.301,LearnStrategy,2023.2.3,Linux x86_64,59.52380952,3,2,1,,,,,,,,8,06,,,,,,,,,,,,,8,3.934,1,,,,,,0.396945147,-0.382972968,1,0,0,3.9341,Pumice_rect,0,0,0,0,1,
6415e163b670eed64ad645ff,SCR,2024-06-20_16h27.54.301,LearnStrategy,2023.2.3,Linux x86_64,59.52380952,3,2,2,,,,,,,,3,09,,,,,,,,,,,,,3,1.985,1,,,,,,0.114403738,-0.258739848,1,0,0,1.9849,Diorite_rect,1,0,1,0,1,
6415e163b670eed64ad645ff,SCR,2024-06-20_16h27.54.301,LearnStrategy,2023.2.3,Linux x86_64,59.52380952,3,2,3,,,,,,,,5,11,,,,,,,,,,,,,5,5.53,1,,,,,,-0.368673226,-0.381886299,1,0,0,5.53,Obsidian_rect,2,0,2,0,1,
6415e163b670eed64ad645ff,SCR,2024-06-20_16h27.54.301,LearnStrategy,2023.2.3,Linux x86_64,59.52380952,3,2,4,,,,,,,,2,04,,,,,,,,,,,,,6,1.781,0,,,,,,-0.167817308,-0.420179197,1,0,0,1.7809,Pegmatite_rect,3,0,3,0,1,
6415e163b670eed64ad645ff,SCR,2024-06-20_16h27.54.301,LearnStrategy,2023.2.3,Linux x86_64,59.52380952,3,2,5,,,,,,,,1,02,,,,,,,,,,,,,7,1.408,0,,,,,,0.149434336,-0.396821429,1,0,0,1.4075,Peridotite_rect,4,0,4,0,1,
6415e163b670eed64ad645ff,SCR,2024-06-20_16h27.54.301,LearnStrategy,2023.2.3,Linux x86_64,59.52380952,3,2,6,,,,,,,,4,05,,,,,,,,,,,,,7,0.673,0,,,,,,0.149434336,-0.396821429,1,0,0,0.6732,Peridotite_rect,5,0,5,0,1,
6415e163b670eed64ad645ff,SCR,2024-06-20_16h27.54.301,LearnStrategy,2023.2.3,Linux x86_64,59.52380952,3,2,7,,,,,,,,2,12,,,,,,,,,,,,,7,0.608,0,,,,,,0.149434336,-0.396821429,1,0,0,0.6084,Peridotite_rect,6,0,6,0,1,
6415e163b670eed64ad645ff,SCR,2024-06-20_16h27.54.301,LearnStrategy,2023.2.3,Linux x86_64,59.52380952,3,2,8,,,,,,,,5,16,,,,,,,,,,,,,5,1.276,1,,,,,,-0.329506279,-0.383071685,1,0,0,1.2764,Obsidian_rect,7,0,7,0,1,
6415e163b670eed64ad645ff,SCR,2024-06-20_16h27.54.301,LearnStrategy,2023.2.3,Linux x86_64,59.52380952,3,2,9,,,,,,,,3,02,,,,,,,,,,,,,7,1.323,0,,,,,,0.077696966,-0.421087131,1,0,0,1.3234,Peridotite_rect,8,0,8,0,1,
6415e163b670eed64ad645ff,SCR,2024-06-20_16h27.54.301,LearnStrategy,2023.2.3,Linux x86_64,59.52380952,3,2,10,,,,,,,,8,13,,,,,,,,,,,,,6,2.181,0,,,,,,-0.045325409,-0.417716371,1,0,0,2.1807,Pegmatite_rect,9,0,9,0,1,
6415e163b670eed64ad645ff,SCR,2024-06-20_16h27.54.301,LearnStrategy,2023.2.3,Linux x86_64,59.52380952,3,2,11,,,,,,,,4,01,,,,,,,,,,,,,6,0.93,0,,,,,,-0.045325409,-0.417716371,1,0,0,0.9304,Pegmatite_rect,10,0,10,0,1,
6415e163b670eed64ad645ff,SCR,2024-06-20_16h27.54.301,LearnStrategy,2023.2.3,Linux x86_64,59.52380952,3,2,12,,,,,,,,7,06,,,,,,,,,,,,,7,0.989,1,,,,,,0.147397323,-0.397454777,1,0,0,0.9893,Peridotite_rect,11,0,11,0,1,
6415e163b670eed64ad645ff,SCR,2024-06-20_16h27.54.301,LearnStrategy,2023.2.3,Linux x86_64,59.52380952,3,2,13,,,,,,,,1,10,,,,,,,,,,,,,7,1.525,0,,,,,,0.147397323,-0.397454777,1,0,0,1.5247,Peridotite_rect,12,0,12,0,1,
6415e163b670eed64ad645ff,SCR,2024-06-20_16h27.54.301,LearnStrategy,2023.2.3,Linux x86_64,59.52380952,3,2,14,,,,,,,,6,03,,,,,,,,,,,,,5,1.861,0,,,,,,-0.373521473,-0.3802165,1,0,0,1.8614,Obsidian_rect,13,0,13,0,1,
6415e163b670eed64ad645ff,SCR,2024-06-20_16h27.54.301,LearnStrategy,2023.2.3,Linux x86_64,59.52380952,3,2,15,,,,,,,,7,08,,,,,,,,,,,,,6,1.337,0,,,,,,-0.105472905,-0.404075945,1,0,0,1.337,Pegmatite_rect,14,0,14,0,1,
6415e163b670eed64ad645ff,SCR,2024-06-20_16h27.54.301,LearnStrategy,2023.2.3,Linux x86_64,59.52380952,3,2,16,,,,,,,,6,10,,,,,,,,,,,,,7,1.649,0,,,,,,0.106528985,-0.418738065,1,0,0,1.6492,Peridotite_rect,15,0,15,0,1,
6415e163b670eed64ad645ff,SCR,2024-06-20_16h27.54.301,LearnStrategy,2023.2.3,Linux x86_64,59.52380952,4,1,1,-0.045112574,0.078509156,1,0,0,9.9596,Pegmatite_13,6,13,4,4,9.96,3,12,0.147130259,-0.248048021,1,0,0,15.4031,Diorite_rect,3,15.403,0,0,0,0,0,1,,,,,,,,,,,,,
6415e163b670eed64ad645ff,SCR,2024-06-20_16h27.54.301,LearnStrategy,2023.2.3,Linux x86_64,59.52380952,4,1,2,-0.229861336,-0.104204133,1,0,0,22.3169,Diorite_14,3,14,3,3,22.317,8,16,-0.160944119,-0.399045344,1,0,0,14.4525,Pegmatite_rect,6,14.453,0,1,0,1,0,1,,,,,,,,,,,,,
6415e163b670eed64ad645ff,SCR,2024-06-20_16h27.54.301,LearnStrategy,2023.2.3,Linux x86_64,59.52380952,4,1,3,-0.537906414,0.240271053,1,0,0,5.1364,Pumice_05,8,05,5,1,5.136,5,07,-0.057893493,-0.406206946,1,0,0,4.185,Pegmatite_rect,6,4.185,0,2,0,2,0,1,,,,,,,,,,,,,
6415e163b670eed64ad645ff,SCR,2024-06-20_16h27.54.301,LearnStrategy,2023.2.3,Linux x86_64,59.52380952,4,1,4,0.373152755,-0.251643221,1,0,0,32.8476,Basalt_11,2,11,2,7,32.848,2,11,0.168140107,-0.239820095,1,0,0,168.1042,Diorite_rect,3,168.104,0,3,0,3,0,1,,,,,,,,,,,,,
6415e163b670eed64ad645ff,SCR,2024-06-20_16h27.54.301,LearnStrategy,2023.2.3,Linux x86_64,59.52380952,4,1,5,0.078576746,-0.072747387,1,0,0,6.412,Diorite_07,3,07,3,5,6.412,6,07,-0.080656813,-0.232255461,1,0,0,5.3126,Basalt_rect,2,5.313,0,4,0,4,0,1,,,,,,,,,,,,,
6415e163b670eed64ad645ff,SCR,2024-06-20_16h27.54.301,LearnStrategy,2023.2.3,Linux x86_64,59.52380952,4,1,6,0.399743882,0.410737454,1,0,0,8.5691,Peridotite_14,7,14,6,7,8.569,7,05,-0.446778991,-0.411819888,1,0,0,30.2235,Obsidian_rect,5,30.223,0,5,0,5,0,1,,,,,,,,,,,,,
6415e163b670eed64ad645ff,SCR,2024-06-20_16h27.54.301,LearnStrategy,2023.2.3,Linux x86_64,59.52380952,4,1,7,0.070092644,-0.095507196,1,0,0,2.7629,Diorite_07,3,07,3,5,2.763,2,09,0.123117724,-0.402884183,1,0,0,2.3,Peridotite_rect,7,2.3,0,6,0,6,0,1,,,,,,,,,,,,,
6415e163b670eed64ad645ff,SCR,2024-06-20_16h27.54.301,LearnStrategy,2023.2.3,Linux x86_64,59.52380952,4,1,8,-0.248707158,0.425969034,1,0,0,1.8843,Obsidian_10,5,10,6,3,1.884,4,12,-0.363801231,-0.398151451,1,0,0,3.855,Obsidian_rect,5,3.855,1,7,0,7,0,1,,,,,,,,,,,,,
6415e163b670eed64ad645ff,SCR,2024-06-20_16h27.54.301,LearnStrategy,2023.2.3,Linux x86_64,59.52380952,4,1,9,-0.386596107,0.400146995,1,0,0,3.3622,Pegmatite_08,6,08,6,2,3.362,5,14,0.083690804,-0.246376073,1,0,0,2.482,Diorite_rect,3,2.482,0,8,0,8,0,1,,,,,,,,,,,,,
6415e163b670eed64ad645ff,SCR,2024-06-20_16h27.54.301,LearnStrategy,2023.2.3,Linux x86_64,59.52380952,4,1,10,-0.394687062,0.387539286,1,0,0,0.7734,Pegmatite_08,6,08,6,2,0.773,4,16,0.100378404,-0.395146831,1,0,0,1.2939,Peridotite_rect,7,1.294,0,9,0,9,0,1,,,,,,,,,,,,,
6415e163b670eed64ad645ff,SCR,2024-06-20_16h27.54.301,LearnStrategy,2023.2.3,Linux x86_64,59.52380952,4,1,11,0.550943581,-0.392121078,1,0,0,0.9617,Diorite_13,3,13,1,8,0.962,1,01,0.410363282,-0.392625406,1,0,0,0.7564,Pumice_rect,8,0.756,0,10,0,10,0,1,,,,,,,,,,,,,
6415e163b670eed64ad645ff,SCR,2024-06-20_16h27.54.301,LearnStrategy,2023.2.3,Linux x86_64,59.52380952,4,1,12,0.541335558,-0.098109501,1,0,0,0.707,Diorite_11,3,11,3,8,0.707,6,07,0.152463958,-0.389095253,1,0,0,1.2823,Peridotite_rect,7,1.282,0,11,0,11,0,1,,,,,,,,,,,,,
6415e163b670eed64ad645ff,SCR,2024-06-20_16h27.54.301,LearnStrategy,2023.2.3,Linux x86_64,59.52380952,4,1,13,-0.214663367,-0.096596516,1,0,0,0.6466,Diorite_14,3,14,3,3,0.647,7,16,0.118077309,-0.245367489,1,0,0,0.8299,Diorite_rect,3,0.83,1,12,0,12,0,1,,,,,,,,,,,,,
6415e163b670eed64ad645ff,SCR,2024-06-20_16h27.54.301,LearnStrategy,2023.2.3,Linux x86_64,59.52380952,4,1,14,-0.236407714,-0.092562107,1,0,0,0.6876,Diorite_14,3,14,3,3,0.688,1,06,0.135776359,-0.386069284,1,0,0,0.662,Peridotite_rect,7,0.662,0,13,0,13,0,1,,,,,,,,,,,,,
6415e163b670eed64ad645ff,SCR,2024-06-20_16h27.54.301,LearnStrategy,2023.2.3,Linux x86_64,59.52380952,4,1,15,-0.409351904,-0.401702952,1,0,0,0.7116,Andesite_03,1,03,1,2,0.712,6,12,0.135270669,-0.251419067,1,0,0,2.5471,Diorite_rect,3,2.547,0,14,0,14,0,1,,,,,,,,,,,,,
6415e163b670eed64ad645ff,SCR,2024-06-20_16h27.54.301,LearnStrategy,2023.2.3,Linux x86_64,59.52380952,4,1,16,-0.381033562,0.098066375,1,0,0,1.0553,Gabbro_12,4,12,4,2,1.055,3,10,0.160554913,-0.252427795,1,0,0,0.8099,Diorite_rect,3,0.81,0,15,0,15,0,1,,,,,,,,,,,,,
6415e163b670eed64ad645ff,SCR,2024-06-20_16h27.54.301,LearnStrategy,2023.2.3,Linux x86_64,59.52380952,4,2,1,,,,,,,,8,13,,,,,,,,,,,,,8,2.364,1,,,,,,0.429579184,-0.398677127,1,0,0,2.3641,Pumice_rect,0,0,0,0,1,
6415e163b670eed64ad645ff,SCR,2024-06-20_16h27.54.301,LearnStrategy,2023.2.3,Linux x86_64,59.52380952,4,2,2,,,,,,,,5,04,,,,,,,,,,,,,5,1.83,1,,,,,,-0.407329183,-0.383547859,1,0,0,1.8299,Obsidian_rect,1,0,1,0,1,
6415e163b670eed64ad645ff,SCR,2024-06-20_16h27.54.301,LearnStrategy,2023.2.3,Linux x86_64,59.52380952,4,2,3,,,,,,,,4,13,,,,,,,,,,,,,6,1.494,0,,,,,,-0.084196565,-0.420362374,1,0,0,1.4937,Pegmatite_rect,2,0,2,0,1,
6415e163b670eed64ad645ff,SCR,2024-06-20_16h27.54.301,LearnStrategy,2023.2.3,Linux x86_64,59.52380952,4,2,4,,,,,,,,3,02,,,,,,,,,,,,,7,0.992,0,,,,,,0.150441201,-0.413302068,1,0,0,0.9916,Peridotite_rect,3,0,3,0,1,
6415e163b670eed64ad645ff,SCR,2024-06-20_16h27.54.301,LearnStrategy,2023.2.3,Linux x86_64,59.52380952,4,2,5,,,,,,,,4,05,,,,,,,,,,,,,6,0.822,0,,,,,,-0.085713633,-0.404728706,1,0,0,0.8218,Pegmatite_rect,4,0,4,0,1,
6415e163b670eed64ad645ff,SCR,2024-06-20_16h27.54.301,LearnStrategy,2023.2.3,Linux x86_64,59.52380952,4,2,6,,,,,,,,7,02,,,,,,,,,,,,,7,0.689,1,,,,,,0.140833179,-0.399181312,1,0,0,0.689,Peridotite_rect,5,0,5,0,1,
6415e163b670eed64ad645ff,SCR,2024-06-20_16h27.54.301,LearnStrategy,2023.2.3,Linux x86_64,59.52380952,4,2,7,,,,,,,,2,05,,,,,,,,,,,,,5,1.101,0,,,,,,-0.369402854,-0.390103765,1,0,0,1.1015,Obsidian_rect,6,0,6,0,1,
6415e163b670eed64ad645ff,SCR,2024-06-20_16h27.54.301,LearnStrategy,2023.2.3,Linux x86_64,59.52380952,4,2,8,,,,,,,,6,10,,,,,,,,,,,,,7,4.752,0,,,,,,0.167634489,-0.398172799,1,0,0,4.7518,Peridotite_rect,7,0,7,0,1,
6415e163b670eed64ad645ff,SCR,2024-06-20_16h27.54.301,LearnStrategy,2023.2.3,Linux x86_64,59.52380952,4,2,9,,,,,,,,8,08,,,,,,,,,,,,,8,1.024,1,,,,,,0.41693717,-0.404224521,1,0,0,1.0237,Pumice_rect,8,0,8,0,1,
6415e163b670eed64ad645ff,SCR,2024-06-20_16h27.54.301,LearnStrategy,2023.2.3,Linux x86_64,59.52380952,4,2,10,,,,,,,,6,03,,,,,,,,,,,,,5,2.235,0,,,,,,-0.381033562,-0.416327893,1,0,0,2.2345,Obsidian_rect,9,0,9,0,1,
6415e163b670eed64ad645ff,SCR,2024-06-20_16h27.54.301,LearnStrategy,2023.2.3,Linux x86_64,59.52380952,4,2,11,,,,,,,,1,16,,,,,,,,,,,,,7,3.76,0,,,,,,0.133753602,-0.391616678,1,0,0,3.7601,Peridotite_rect,10,0,10,0,1,
6415e163b670eed64ad645ff,SCR,2024-06-20_16h27.54.301,LearnStrategy,2023.2.3,Linux x86_64,59.52380952,4,2,12,,,,,,,,2,12,,,,,,,,,,,,,8,1.127,0,,,,,,0.431096323,-0.413302068,1,0,0,1.127,Pumice_rect,11,0,11,0,1,
6415e163b670eed64ad645ff,SCR,2024-06-20_16h27.54.301,LearnStrategy,2023.2.3,Linux x86_64,59.52380952,4,2,13,,,,,,,,1,05,,,,,,,,,,,,,4,1.187,0,,,,,,0.398732503,-0.264026767,1,0,0,1.1867,Gabbro_rect,12,0,12,0,1,
6415e163b670eed64ad645ff,SCR,2024-06-20_16h27.54.301,LearnStrategy,2023.2.3,Linux x86_64,59.52380952,4,2,14,,,,,,,,3,08,,,,,,,,,,,,,6,1.887,0,,,,,,-0.11959452,-0.408763259,1,0,0,1.8871,Pegmatite_rect,13,0,13,0,1,
6415e163b670eed64ad645ff,SCR,2024-06-20_16h27.54.301,LearnStrategy,2023.2.3,Linux x86_64,59.52380952,4,2,15,,,,,,,,7,12,,,,,,,,,,,,,7,0.641,1,,,,,,0.190895976,-0.416327893,1,0,0,0.6406,Peridotite_rect,14,0,14,0,1,
6415e163b670eed64ad645ff,SCR,2024-06-20_16h27.54.301,LearnStrategy,2023.2.3,Linux x86_64,59.52380952,4,2,16,,,,,,,,5,06,,,,,,,,,,,,,5,1.178,1,,,,,,-0.357266386,-0.398172799,1,0,0,1.1783,Obsidian_rect,15,0,15,0,1,
6415e163b670eed64ad645ff,SCR,2024-06-20_16h27.54.301,LearnStrategy,2023.2.3,Linux x86_64,59.52380952,5,1,1,-0.067003349,-0.093570727,1,0,0,0.6969,Basalt_02,2,02,3,4,0.697,2,09,-0.127179714,-0.389599581,1,0,0,2.5617,Pegmatite_rect,6,2.562,0,0,0,0,0,1,,,,,,,,,,,,,
6415e163b670eed64ad645ff,SCR,2024-06-20_16h27.54.301,LearnStrategy,2023.2.3,Linux x86_64,59.52380952,5,1,2,0.392158616,0.117230088,1,0,0,0.6758,Peridotite_15,7,15,4,7,0.676,7,05,0.420476922,-0.25494922,1,0,0,0.8848,Gabbro_rect,4,0.885,0,1,0,1,0,1,,,,,,,,,,,,,
6415e163b670eed64ad645ff,SCR,2024-06-20_16h27.54.301,LearnStrategy,2023.2.3,Linux x86_64,59.52380952,5,1,3,0.067003205,-0.06885962,1,0,0,0.8183,Diorite_07,3,07,3,5,0.818,3,11,-0.10846943,-0.416327893,1,0,0,2.6005,Pegmatite_rect,6,2.6,0,2,0,2,0,1,,,,,,,,,,,,,
6415e163b670eed64ad645ff,SCR,2024-06-20_16h27.54.301,LearnStrategy,2023.2.3,Linux x86_64,59.52380952,5,1,4,0.076611228,-0.261505342,1,0,0,0.9261,Pegmatite_11,6,11,2,5,0.926,6,13,0.170668624,-0.406746018,1,0,0,0.6768,Peridotite_rect,7,0.677,0,3,0,3,0,1,,,,,,,,,,,,,
6415e163b670eed64ad645ff,SCR,2024-06-20_16h27.54.301,LearnStrategy,2023.2.3,Linux x86_64,59.52380952,5,1,5,-0.104423989,-0.111725785,1,0,0,0.5829,Basalt_02,2,02,3,4,0.583,2,09,-0.109986498,-0.416327893,1,0,0,0.7818,Pegmatite_rect,6,0.782,0,4,0,4,0,1,,,,,,,,,,,,,
6415e163b670eed64ad645ff,SCR,2024-06-20_16h27.54.301,LearnStrategy,2023.2.3,Linux x86_64,59.52380952,5,1,6,-0.391147237,-0.24738473,1,0,0,0.6077,Peridotite_04,7,04,2,2,0.608,4,16,0.108469287,-0.420362374,1,0,0,3.7113,Peridotite_rect,7,3.711,1,5,0,5,0,1,,,,,,,,,,,,,
6415e163b670eed64ad645ff,SCR,2024-06-20_16h27.54.301,LearnStrategy,2023.2.3,Linux x86_64,59.52380952,5,1,7,0.534256053,-0.40019004,1,0,0,0.9232,Diorite_13,3,13,1,8,0.923,7,14,-0.126168408,-0.398677127,1,0,0,2.1736,Pegmatite_rect,6,2.174,0,6,0,6,0,1,,,,,,,,,,,,,
6415e163b670eed64ad645ff,SCR,2024-06-20_16h27.54.301,LearnStrategy,2023.2.3,Linux x86_64,59.52380952,5,1,8,-0.2217428,0.078398369,1,0,0,0.8722,Pumice_04,8,04,4,3,0.872,6,07,0.427556427,-0.398677127,1,0,0,4.112,Pumice_rect,8,4.112,1,7,0,7,0,1,,,,,,,,,,,,,
6415e163b670eed64ad645ff,SCR,2024-06-20_16h27.54.301,LearnStrategy,2023.2.3,Linux x86_64,59.52380952,5,1,9,0.528187783,0.076381128,1,0,0,2.1183,Andesite_06,1,06,4,8,2.118,1,07,0.164094594,-0.250914883,1,0,0,3.3607,Diorite_rect,3,3.361,0,8,0,8,0,1,,,,,,,,,,,,,
6415e163b670eed64ad645ff,SCR,2024-06-20_16h27.54.301,LearnStrategy,2023.2.3,Linux x86_64,59.52380952,5,1,10,-0.510488913,-0.233264046,1,0,0,0.6812,Andesite_01,1,01,2,1,0.681,8,03,-0.120100138,-0.391112493,1,0,0,3.5301,Pegmatite_rect,6,3.53,0,9,0,9,0,1,,,,,,,,,,,,,
6415e163b670eed64ad645ff,SCR,2024-06-20_16h27.54.301,LearnStrategy,2023.2.3,Linux x86_64,59.52380952,5,1,11,0.251578103,0.103109476,1,0,0,0.7055,Pumice_03,8,03,4,6,0.706,3,14,0.428567949,-0.386573684,1,0,0,0.8724,Pumice_rect,8,0.872,1,10,0,10,0,1,,,,,,,,,,,,,
6415e163b670eed64ad645ff,SCR,2024-06-20_16h27.54.301,LearnStrategy,2023.2.3,Linux x86_64,59.52380952,5,1,12,0.574205139,0.121768862,1,0,0,0.6623,Andesite_06,1,06,4,8,0.662,4,14,0.412891657,-0.239820095,1,0,0,2.1331,Gabbro_rect,4,2.133,0,11,0,11,0,1,,,,,,,,,,,,,
6415e163b670eed64ad645ff,SCR,2024-06-20_16h27.54.301,LearnStrategy,2023.2.3,Linux x86_64,59.52380952,5,1,13,0.274333972,0.112187023,1,0,0,0.755,Pumice_03,8,03,4,6,0.755,1,06,0.426545192,-0.388086525,1,0,0,0.7578,Pumice_rect,8,0.758,1,12,0,12,0,1,,,,,,,,,,,,,
6415e163b670eed64ad645ff,SCR,2024-06-20_16h27.54.301,LearnStrategy,2023.2.3,Linux x86_64,59.52380952,5,1,14,0.418959927,0.242802866,1,0,0,0.8633,Obsidian_14,5,14,5,7,0.863,6,12,-0.393170066,-0.409771771,1,0,0,1.0066,Obsidian_rect,5,1.007,1,13,0,13,0,1,,,,,,,,,,,,,
6415e163b670eed64ad645ff,SCR,2024-06-20_16h27.54.301,LearnStrategy,2023.2.3,Linux x86_64,59.52380952,5,1,15,0.260174747,0.238264093,1,0,0,0.6406,Obsidian_02,5,02,5,6,0.641,4,10,-0.376482467,-0.392625406,1,0,0,0.7499,Obsidian_rect,5,0.75,1,14,0,14,0,1,,,,,,,,,,,,,
6415e163b670eed64ad645ff,SCR,2024-06-20_16h27.54.301,LearnStrategy,2023.2.3,Linux x86_64,59.52380952,5,1,16,-0.267254467,0.395608221,1,0,0,0.9235,Obsidian_10,5,10,6,3,0.923,5,14,-0.375471052,-0.419353646,1,0,0,2.3038,Obsidian_rect,5,2.304,1,15,0,15,0,1,,,,,,,,,,,,,
6415e163b670eed64ad645ff,SCR,2024-06-20_16h27.54.301,LearnStrategy,2023.2.3,Linux x86_64,59.52380952,5,2,1,,,,,,,,1,10,,,,,,,,,,,,,6,2.474,0,,,,,,-0.099367097,-0.411789012,1,0,0,2.4736,Pegmatite_rect,0,0,0,0,1,
6415e163b670eed64ad645ff,SCR,2024-06-20_16h27.54.301,LearnStrategy,2023.2.3,Linux x86_64,59.52380952,5,2,2,,,,,,,,8,06,,,,,,,,,,,,,8,3.485,1,,,,,,0.419971305,-0.402711465,1,0,0,3.4845,Pumice_rect,1,0,1,0,1,
6415e163b670eed64ad645ff,SCR,2024-06-20_16h27.54.301,LearnStrategy,2023.2.3,Linux x86_64,59.52380952,5,2,3,,,,,,,,3,09,,,,,,,,,,,,,7,1.023,0,,,,,,0.161060459,-0.394138318,1,0,0,1.0228,Peridotite_rect,2,0,2,0,1,
6415e163b670eed64ad645ff,SCR,2024-06-20_16h27.54.301,LearnStrategy,2023.2.3,Linux x86_64,59.52380952,5,2,4,,,,,,,,6,06,,,,,,,,,,,,,3,1.45,0,,,,,,0.11352625,-0.248897642,1,0,0,1.4504,Diorite_rect,3,0,3,0,1,
6415e163b670eed64ad645ff,SCR,2024-06-20_16h27.54.301,LearnStrategy,2023.2.3,Linux x86_64,59.52380952,5,2,5,,,,,,,,7,06,,,,,,,,,,,,,6,0.606,0,,,,,,-0.115043318,-0.417840805,1,0,0,0.6064,Pegmatite_rect,4,0,4,0,1,
6415e163b670eed64ad645ff,SCR,2024-06-20_16h27.54.301,LearnStrategy,2023.2.3,Linux x86_64,59.52380952,5,2,6,,,,,,,,1,11,,,,,,,,,,,,,7,0.573,0,,,,,,0.12970816,-0.390608165,1,0,0,0.5733,Peridotite_rect,5,0,5,0,1,
6415e163b670eed64ad645ff,SCR,2024-06-20_16h27.54.301,LearnStrategy,2023.2.3,Linux x86_64,59.52380952,5,2,7,,,,,,,,7,07,,,,,,,,,,,,,7,0.869,1,,,,,,0.158532084,-0.396659887,1,0,0,0.8693,Peridotite_rect,6,0,6,0,1,
6415e163b670eed64ad645ff,SCR,2024-06-20_16h27.54.301,LearnStrategy,2023.2.3,Linux x86_64,59.52380952,5,2,8,,,,,,,,4,01,,,,,,,,,,,,,3,0.769,0,,,,,,0.16207198,-0.246880401,1,0,0,0.7688,Diorite_rect,7,0,7,0,1,
6415e163b670eed64ad645ff,SCR,2024-06-20_16h27.54.301,LearnStrategy,2023.2.3,Linux x86_64,59.52380952,5,2,9,,,,,,,,5,16,,,,,,,,,,,,,3,0.661,0,,,,,,0.149429823,-0.265539823,1,0,0,0.6613,Diorite_rect,8,0,8,0,1,
6415e163b670eed64ad645ff,SCR,2024-06-20_16h27.54.301,LearnStrategy,2023.2.3,Linux x86_64,59.52380952,5,2,10,,,,,,,,2,04,,,,,,,,,,,,,6,1.411,0,,,,,,-0.04475324,-0.382034946,1,0,0,1.4109,Pegmatite_rect,9,0,9,0,1,
6415e163b670eed64ad645ff,SCR,2024-06-20_16h27.54.301,LearnStrategy,2023.2.3,Linux x86_64,59.52380952,5,2,11,,,,,,,,3,15,,,,,,,,,,,,,7,1.253,0,,,,,,0.145384381,-0.416832221,1,0,0,1.2529,Peridotite_rect,10,0,10,0,1,
6415e163b670eed64ad645ff,SCR,2024-06-20_16h27.54.301,LearnStrategy,2023.2.3,Linux x86_64,59.52380952,5,2,12,,,,,,,,2,14,,,,,,,,,,,,,3,0.968,0,,,,,,0.150441201,-0.24738473,1,0,0,0.968,Diorite_rect,11,0,11,0,1,
6415e163b670eed64ad645ff,SCR,2024-06-20_16h27.54.301,LearnStrategy,2023.2.3,Linux x86_64,59.52380952,5,2,13,,,,,,,,4,08,,,,,,,,,,,,,4,1.429,1,,,,,,0.426545192,-0.243854433,1,0,0,1.429,Gabbro_rect,12,0,12,0,1,
6415e163b670eed64ad645ff,SCR,2024-06-20_16h27.54.301,LearnStrategy,2023.2.3,Linux x86_64,59.52380952,5,2,14,,,,,,,,6,05,,,,,,,,,,,,,2,1.482,0,,,,,,-0.101389854,-0.258983773,1,0,0,1.4817,Basalt_rect,13,0,13,0,1,
6415e163b670eed64ad645ff,SCR,2024-06-20_16h27.54.301,LearnStrategy,2023.2.3,Linux x86_64,59.52380952,5,2,15,,,,,,,,5,12,,,,,,,,,,,,,5,1.143,1,,,,,,-0.372942678,-0.408258859,1,0,0,1.1432,Obsidian_rect,14,0,14,0,1,
6415e163b670eed64ad645ff,SCR,2024-06-20_16h27.54.301,LearnStrategy,2023.2.3,Linux x86_64,59.52380952,5,2,16,,,,,,,,8,10,,,,,,,,,,,,,3,4.11,0,,,,,,0.155497949,-0.26200967,1,0,0,4.1102,Diorite_rect,15,0,15,0,1,
6415e163b670eed64ad645ff,SCR,2024-06-20_16h27.54.301,LearnStrategy,2023.2.3,Linux x86_64,59.52380952,6,1,1,-0.526670859,-0.278147523,1,0,0,2.2003,Andesite_01,1,01,2,1,2.2,5,02,0.145889927,-0.248393314,1,0,0,2.858,Diorite_rect,3,2.858,0,0,0,0,0,1,,,,,,,,,,,,,
6415e163b670eed64ad645ff,SCR,2024-06-20_16h27.54.301,LearnStrategy,2023.2.3,Linux x86_64,59.52380952,6,1,2,-0.555494855,-0.063312226,1,0,0,0.6893,Pegmatite_12,6,12,3,1,0.689,4,14,0.139316111,-0.236794127,1,0,0,0.7469,Diorite_rect,3,0.747,0,1,0,1,0,1,,,,,,,,,,,,,
6415e163b670eed64ad645ff,SCR,2024-06-20_16h27.54.301,LearnStrategy,2023.2.3,Linux x86_64,59.52380952,6,1,3,-0.569148355,0.128829204,1,0,0,0.7253,Peridotite_10,7,10,4,1,0.725,7,05,0.408340526,-0.235281286,1,0,0,0.9991,Gabbro_rect,4,0.999,0,2,0,2,0,1,,,,,,,,,,,,,
6415e163b670eed64ad645ff,SCR,2024-06-20_16h27.54.301,LearnStrategy,2023.2.3,Linux x86_64,59.52380952,6,1,4,-0.41693717,-0.104161151,1,0,0,0.8634,Peridotite_05,7,05,3,2,0.863,6,08,0.161060459,-0.385060772,1,0,0,1.5487,Peridotite_rect,7,1.549,1,3,0,3,0,1,,,,,,,,,,,,,
6415e163b670eed64ad645ff,SCR,2024-06-20_16h27.54.301,LearnStrategy,2023.2.3,Linux x86_64,59.52380952,6,1,5,-0.575216553,0.11622154,1,0,0,0.6863,Peridotite_10,7,10,4,1,0.686,2,02,-0.106952363,-0.258479374,1,0,0,4.0536,Basalt_rect,2,4.054,0,4,0,4,0,1,,,,,,,,,,,,,
6415e163b670eed64ad645ff,SCR,2024-06-20_16h27.54.301,LearnStrategy,2023.2.3,Linux x86_64,59.52380952,6,1,6,-0.394181372,0.131350737,1,0,0,0.7564,Gabbro_12,4,12,4,2,0.756,1,03,0.409857522,-0.250914883,1,0,0,1.1489,Gabbro_rect,4,1.149,1,5,0,5,0,1,,,,,,,,,,,,,
6415e163b670eed64ad645ff,SCR,2024-06-20_16h27.54.301,LearnStrategy,2023.2.3,Linux x86_64,59.52380952,6,1,7,-0.23893616,-0.229733892,1,0,0,0.8229,Diorite_12,3,12,2,3,0.823,4,11,-0.120100138,-0.241333008,1,0,0,0.9617,Basalt_rect,2,0.962,0,6,0,6,0,1,,,,,,,,,,,,,
6415e163b670eed64ad645ff,SCR,2024-06-20_16h27.54.301,LearnStrategy,2023.2.3,Linux x86_64,59.52380952,6,1,8,0.271299837,0.268522558,1,0,0,0.5255,Obsidian_02,5,02,5,6,0.525,3,14,-0.376482467,-0.379008978,1,0,0,0.7569,Obsidian_rect,5,0.757,1,7,0,7,0,1,,,,,,,,,,,,,
6415e163b670eed64ad645ff,SCR,2024-06-20_16h27.54.301,LearnStrategy,2023.2.3,Linux x86_64,59.52380952,6,1,9,0.550437963,-0.401198624,1,0,0,0.7401,Diorite_13,3,13,1,8,0.74,6,12,-0.13577643,-0.407250346,1,0,0,1.304,Pegmatite_rect,6,1.304,0,8,0,8,0,1,,,,,,,,,,,,,
6415e163b670eed64ad645ff,SCR,2024-06-20_16h27.54.301,LearnStrategy,2023.2.3,Linux x86_64,59.52380952,6,1,10,0.557517468,-0.384052187,1,0,0,0.6576,Diorite_13,3,13,1,8,0.658,6,09,0.140327418,-0.270078561,1,0,0,1.165,Diorite_rect,3,1.165,1,9,0,9,0,1,,,,,,,,,,,,,
6415e163b670eed64ad645ff,SCR,2024-06-20_16h27.54.301,LearnStrategy,2023.2.3,Linux x86_64,59.52380952,6,1,11,0.396709603,0.095544842,1,0,0,1.7676,Peridotite_15,7,15,4,7,1.768,3,12,0.179265125,-0.249906227,1,0,0,1.5751,Diorite_rect,3,1.575,0,10,0,10,0,1,,,,,,,,,,,,,
6415e163b670eed64ad645ff,SCR,2024-06-20_16h27.54.301,LearnStrategy,2023.2.3,Linux x86_64,59.52380952,6,1,12,0.25410662,0.093023309,1,0,0,0.7542,Pumice_03,8,03,4,6,0.754,3,11,0.36839144,-0.407754674,1,0,0,4.6662,Pumice_rect,8,4.666,1,11,0,11,0,1,,,,,,,,,,,,,
6415e163b670eed64ad645ff,SCR,2024-06-20_16h27.54.301,LearnStrategy,2023.2.3,Linux x86_64,59.52380952,6,1,13,-0.075600064,0.089997448,1,0,0,0.7523,Pegmatite_13,6,13,4,4,0.752,1,03,0.137293283,-0.24082868,1,0,0,2.2227,Diorite_rect,3,2.223,0,12,0,12,0,1,,,,,,,,,,,,,
6415e163b670eed64ad645ff,SCR,2024-06-20_16h27.54.301,LearnStrategy,2023.2.3,Linux x86_64,59.52380952,6,1,14,0.554989094,0.393590972,1,0,0,1.2216,Basalt_10,2,10,6,8,1.222,2,09,-0.393675719,-0.391616678,1,0,0,1.2502,Obsidian_rect,5,1.25,0,13,0,13,0,1,,,,,,,,,,,,,
6415e163b670eed64ad645ff,SCR,2024-06-20_16h27.54.301,LearnStrategy,2023.2.3,Linux x86_64,59.52380952,6,1,15,-0.546392521,0.257932117,1,0,0,1.0384,Pumice_05,8,05,5,1,1.038,8,02,0.434636076,-0.413806253,1,0,0,1.223,Pumice_rect,8,1.223,1,14,0,14,0,1,,,,,,,,,,,,,
6415e163b670eed64ad645ff,SCR,2024-06-20_16h27.54.301,LearnStrategy,2023.2.3,Linux x86_64,59.52380952,6,1,16,-0.099367097,-0.272095801,1,0,0,0.9381,Gabbro_14,4,14,2,4,0.938,7,04,0.163083359,-0.385060772,1,0,0,2.2999,Peridotite_rect,7,2.3,0,15,0,15,0,1,,,,,,,,,,,,,
6415e163b670eed64ad645ff,SCR,2024-06-20_16h27.54.301,LearnStrategy,2023.2.3,Linux x86_64,59.52380952,6,2,1,,,,,,,,6,15,,,,,,,,,,,,,3,0.728,0,,,,,,0.179265125,-0.245871674,1,0,0,0.7283,Diorite_rect,0,0,0,0,1,
6415e163b670eed64ad645ff,SCR,2024-06-20_16h27.54.301,LearnStrategy,2023.2.3,Linux x86_64,59.52380952,6,2,2,,,,,,,,5,08,,,,,,,,,,,,,5,1.119,1,,,,,,-0.372436917,-0.407250346,1,0,0,1.1185,Obsidian_rect,1,0,1,0,1,
6415e163b670eed64ad645ff,SCR,2024-06-20_16h27.54.301,LearnStrategy,2023.2.3,Linux x86_64,59.52380952,6,2,3,,,,,,,,2,06,,,,,,,,,,,,,2,6.989,1,,,,,,-0.153475336,-0.232759789,1,0,0,6.9886,Basalt_rect,2,0,2,0,1,
6415e163b670eed64ad645ff,SCR,2024-06-20_16h27.54.301,LearnStrategy,2023.2.3,Linux x86_64,59.52380952,6,2,4,,,,,,,,3,16,,,,,,,,,,,,,6,2.721,0,,,,,,-0.102401232,-0.410276171,1,0,0,2.7212,Pegmatite_rect,3,0,3,0,1,
6415e163b670eed64ad645ff,SCR,2024-06-20_16h27.54.301,LearnStrategy,2023.2.3,Linux x86_64,59.52380952,6,2,5,,,,,,,,5,11,,,,,,,,,,,,,5,1.707,1,,,,,,-0.451323782,-0.419353646,1,0,0,1.7068,Obsidian_rect,4,0,4,0,1,
6415e163b670eed64ad645ff,SCR,2024-06-20_16h27.54.301,LearnStrategy,2023.2.3,Linux x86_64,59.52380952,6,2,6,,,,,,,,4,15,,,,,,,,,,,,,7,1.091,0,,,,,,0.151958269,-0.386573684,1,0,0,1.091,Peridotite_rect,5,0,5,0,1,
6415e163b670eed64ad645ff,SCR,2024-06-20_16h27.54.301,LearnStrategy,2023.2.3,Linux x86_64,59.52380952,6,2,7,,,,,,,,8,14,,,,,,,,,,,,,8,1.143,1,,,,,,0.402272256,-0.384052187,1,0,0,1.1426,Pumice_rect,6,0,6,0,1,
6415e163b670eed64ad645ff,SCR,2024-06-20_16h27.54.301,LearnStrategy,2023.2.3,Linux x86_64,59.52380952,6,2,8,,,,,,,,1,02,,,,,,,,,,,,,4,0.923,0,,,,,,0.398732503,-0.228725308,1,0,0,0.9232,Gabbro_rect,7,0,7,0,1,
6415e163b670eed64ad645ff,SCR,2024-06-20_16h27.54.301,LearnStrategy,2023.2.3,Linux x86_64,59.52380952,6,2,9,,,,,,,,7,13,,,,,,,,,,,,,2,1.572,0,,,,,,-0.122628727,-0.238811439,1,0,0,1.5721,Basalt_rect,8,0,8,0,1,
6415e163b670eed64ad645ff,SCR,2024-06-20_16h27.54.301,LearnStrategy,2023.2.3,Linux x86_64,59.52380952,6,2,10,,,,,,,,7,08,,,,,,,,,,,,,7,0.538,1,,,,,,0.186850534,-0.396659887,1,0,0,0.5385,Peridotite_rect,9,0,9,0,1,
6415e163b670eed64ad645ff,SCR,2024-06-20_16h27.54.301,LearnStrategy,2023.2.3,Linux x86_64,59.52380952,6,2,11,,,,,,,,4,03,,,,,,,,,,,,,6,0.751,0,,,,,,-0.098355719,-0.38758234,1,0,0,0.7508,Pegmatite_rect,10,0,10,0,1,
6415e163b670eed64ad645ff,SCR,2024-06-20_16h27.54.301,LearnStrategy,2023.2.3,Linux x86_64,59.52380952,6,2,12,,,,,,,,3,06,,,,,,,,,,,,,6,1.435,0,,,,,,-0.12465134,-0.382034946,1,0,0,1.4345,Pegmatite_rect,11,0,11,0,1,
6415e163b670eed64ad645ff,SCR,2024-06-20_16h27.54.301,LearnStrategy,2023.2.3,Linux x86_64,59.52380952,6,2,13,,,,,,,,8,15,,,,,,,,,,,,,8,2.106,1,,,,,,0.423511057,-0.397164072,1,0,0,2.1062,Pumice_rect,12,0,12,0,1,
6415e163b670eed64ad645ff,SCR,2024-06-20_16h27.54.301,LearnStrategy,2023.2.3,Linux x86_64,59.52380952,6,2,14,,,,,,,,6,16,,,,,,,,,,,,,3,1.289,0,,,,,,0.111503494,-0.261001014,1,0,0,1.289,Diorite_rect,13,0,13,0,1,
6415e163b670eed64ad645ff,SCR,2024-06-20_16h27.54.301,LearnStrategy,2023.2.3,Linux x86_64,59.52380952,6,2,15,,,,,,,,2,08,,,,,,,,,,,,,4,2.053,0,,,,,,0.415420031,-0.25293198,1,0,0,2.0528,Gabbro_rect,14,0,14,0,1,
6415e163b670eed64ad645ff,SCR,2024-06-20_16h27.54.301,LearnStrategy,2023.2.3,Linux x86_64,59.52380952,6,2,16,,,,,,,,1,04,,,,,,,,,,,,,7,1.179,0,,,,,,0.110997661,-0.419858046,1,0,0,1.1788,Peridotite_rect,15,0,15,0,1,
6415e163b670eed64ad645ff,SCR,2024-06-20_16h27.54.301,LearnStrategy,2023.2.3,Linux x86_64,59.52380952,7,1,1,0.078633984,-0.076424182,1,0,0,0.7907,Diorite_07,3,07,3,5,0.791,5,10,0.165106115,-0.250914883,1,0,0,0.6906,Diorite_rect,3,0.691,1,0,0,0,0,1,,,,,,,,,,,,,
6415e163b670eed64ad645ff,SCR,2024-06-20_16h27.54.301,LearnStrategy,2023.2.3,Linux x86_64,59.52380952,7,1,2,0.574205139,-0.370435831,1,0,0,2.2668,Diorite_13,3,13,1,8,2.267,3,14,0.406823387,-0.406241618,1,0,0,4.848,Pumice_rect,8,4.848,0,1,0,1,0,1,,,,,,,,,,,,,
6415e163b670eed64ad645ff,SCR,2024-06-20_16h27.54.301,LearnStrategy,2023.2.3,Linux x86_64,59.52380952,7,1,3,-0.081668119,-0.097605137,1,0,0,0.7437,Basalt_02,2,02,3,4,0.744,6,11,0.142350246,-0.25343638,1,0,0,0.9182,Diorite_rect,3,0.918,0,2,0,2,0,1,,,,,,,,,,,,,
6415e163b670eed64ad645ff,SCR,2024-06-20_16h27.54.301,LearnStrategy,2023.2.3,Linux x86_64,59.52380952,7,1,4,-0.063969214,0.066294997,1,0,0,0.7238,Pegmatite_13,6,13,4,4,0.724,6,07,0.155497949,-0.403215865,1,0,0,0.8474,Peridotite_rect,7,0.847,0,3,0,3,0,1,,,,,,,,,,,,,
6415e163b670eed64ad645ff,SCR,2024-06-20_16h27.54.301,LearnStrategy,2023.2.3,Linux x86_64,59.52380952,7,1,5,-0.047787232,-0.419353646,1,0,0,0.7412,Gabbro_11,4,11,1,4,0.741,1,14,0.159037845,-0.238811439,1,0,0,0.7156,Diorite_rect,3,0.716,0,4,0,4,0,1,,,,,,,,,,,,,
6415e163b670eed64ad645ff,SCR,2024-06-20_16h27.54.301,LearnStrategy,2023.2.3,Linux x86_64,59.52380952,7,1,6,-0.520602589,0.390060828,1,0,0,1.3472,Pumice_16,8,16,6,1,1.347,2,10,0.454863499,-0.384556372,1,0,0,1.3389,Pumice_rect,8,1.339,1,5,0,5,0,1,,,,,,,,,,,,,
6415e163b670eed64ad645ff,SCR,2024-06-20_16h27.54.301,LearnStrategy,2023.2.3,Linux x86_64,59.52380952,7,1,7,0.535773192,0.426875316,1,0,0,0.923,Basalt_10,2,10,6,8,0.923,3,12,-0.404800773,-0.41279774,1,0,0,1.0989,Obsidian_rect,5,1.099,0,6,0,6,0,1,,,,,,,,,,,,,
6415e163b670eed64ad645ff,SCR,2024-06-20_16h27.54.301,LearnStrategy,2023.2.3,Linux x86_64,59.52380952,7,1,8,-0.392158652,0.11521292,1,0,0,1.3065,Gabbro_12,4,12,4,2,1.306,6,12,-0.13577643,-0.257470861,1,0,0,1.1793,Basalt_rect,2,1.179,0,7,0,7,0,1,,,,,,,,,,,,,
6415e163b670eed64ad645ff,SCR,2024-06-20_16h27.54.301,LearnStrategy,2023.2.3,Linux x86_64,59.52380952,7,1,9,0.53021054,-0.101135326,1,0,0,0.54,Diorite_11,3,11,3,8,0.54,2,09,-0.130213849,-0.405737434,1,0,0,2.2237,Pegmatite_rect,6,2.224,0,8,0,8,0,1,,,,,,,,,,,,,
6415e163b670eed64ad645ff,SCR,2024-06-20_16h27.54.301,LearnStrategy,2023.2.3,Linux x86_64,59.52380952,7,1,10,0.371425575,-0.09710088,1,0,0,2.0046,Obsidian_07,5,07,3,7,2.005,1,03,-0.391147237,-0.404728706,1,0,0,1.2665,Obsidian_rect,5,1.266,1,9,0,9,0,1,,,,,,,,,,,,,
6415e163b670eed64ad645ff,SCR,2024-06-20_16h27.54.301,LearnStrategy,2023.2.3,Linux x86_64,59.52380952,7,1,11,-0.539312909,-0.099118121,1,0,0,0.6734,Pegmatite_12,6,12,3,1,0.673,7,14,-0.411880386,-0.399181312,1,0,0,1.9174,Obsidian_rect,5,1.917,0,10,0,10,0,1,,,,,,,,,,,,,
6415e163b670eed64ad645ff,SCR,2024-06-20_16h27.54.301,LearnStrategy,2023.2.3,Linux x86_64,59.52380952,7,1,12,-0.240958845,-0.25545362,1,0,0,0.8716,Diorite_12,3,12,2,3,0.872,4,12,-0.105435295,-0.404728706,1,0,0,1.7063,Pegmatite_rect,6,1.706,0,11,0,11,0,1,,,,,,,,,,,,,
6415e163b670eed64ad645ff,SCR,2024-06-20_16h27.54.301,LearnStrategy,2023.2.3,Linux x86_64,59.52380952,7,1,13,0.229833755,-0.428935593,1,0,0,1.0565,Andesite_07,1,07,1,6,1.056,3,10,0.118077309,-0.389095253,1,0,0,8.2674,Peridotite_rect,7,8.267,0,12,0,12,0,1,,,,,,,,,,,,,
6415e163b670eed64ad645ff,SCR,2024-06-20_16h27.54.301,LearnStrategy,2023.2.3,Linux x86_64,59.52380952,7,1,14,0.069025962,-0.115760266,1,0,0,0.5296,Diorite_07,3,07,3,5,0.53,4,10,-0.160049295,-0.386573684,1,0,0,2.7749,Pegmatite_rect,6,2.775,0,13,0,13,0,1,,,,,,,,,,,,,
6415e163b670eed64ad645ff,SCR,2024-06-20_16h27.54.301,LearnStrategy,2023.2.3,Linux x86_64,59.52380952,7,1,15,0.073577021,-0.099622413,1,0,0,0.6601,Diorite_07,3,07,3,5,0.66,7,14,-0.136282119,-0.412293412,1,0,0,0.73,Pegmatite_rect,6,0.73,0,14,0,14,0,1,,,,,,,,,,,,,
6415e163b670eed64ad645ff,SCR,2024-06-20_16h27.54.301,LearnStrategy,2023.2.3,Linux x86_64,59.52380952,7,1,16,0.070542886,-0.092562107,1,0,0,0.5861,Diorite_07,3,07,3,5,0.586,8,05,0.134259291,-0.234776886,1,0,0,1.3185,Diorite_rect,3,1.318,1,15,0,15,0,1,,,,,,,,,,,,,
6415e163b670eed64ad645ff,SCR,2024-06-20_16h27.54.301,LearnStrategy,2023.2.3,Linux x86_64,59.52380952,7,2,1,,,,,,,,1,10,,,,,,,,,,,,,3,3.174,0,,,,,,0.130213849,-0.247888986,1,0,0,3.1743,Diorite_rect,0,0,0,0,1,
6415e163b670eed64ad645ff,SCR,2024-06-20_16h27.54.301,LearnStrategy,2023.2.3,Linux x86_64,59.52380952,7,2,2,,,,,,,,7,06,,,,,,,,,,,,,6,2.406,0,,,,,,-0.138304804,-0.395146831,1,0,0,2.4058,Pegmatite_rect,1,0,1,0,1,
6415e163b670eed64ad645ff,SCR,2024-06-20_16h27.54.301,LearnStrategy,2023.2.3,Linux x86_64,59.52380952,7,2,3,,,,,,,,3,02,,,,,,,,,,,,,4,1.536,0,,,,,,0.445255477,-0.244863161,1,0,0,1.536,Gabbro_rect,2,0,2,0,1,
6415e163b670eed64ad645ff,SCR,2024-06-20_16h27.54.301,LearnStrategy,2023.2.3,Linux x86_64,59.52380952,7,2,4,,,,,,,,2,14,,,,,,,,,,,,,3,3.114,0,,,,,,0.169657174,-0.237802855,1,0,0,3.1139,Diorite_rect,3,0,3,0,1,
6415e163b670eed64ad645ff,SCR,2024-06-20_16h27.54.301,LearnStrategy,2023.2.3,Linux x86_64,59.52380952,7,2,5,,,,,,,,5,11,,,,,,,,,,,,,5,0.907,1,,,,,,-0.416431517,-0.388590925,1,0,0,0.9067,Obsidian_rect,4,0,4,0,1,
6415e163b670eed64ad645ff,SCR,2024-06-20_16h27.54.301,LearnStrategy,2023.2.3,Linux x86_64,59.52380952,7,2,6,,,,,,,,2,12,,,,,,,,,,,,,8,3.163,0,,,,,,0.475596683,-0.413806253,1,0,0,3.1629,Pumice_rect,5,0,5,0,1,
6415e163b670eed64ad645ff,SCR,2024-06-20_16h27.54.301,LearnStrategy,2023.2.3,Linux x86_64,59.52380952,7,2,7,,,,,,,,5,12,,,,,,,,,,,,,5,2.582,1,,,,,,-0.385584728,-0.409771771,1,0,0,2.5823,Obsidian_rect,6,0,6,0,1,
6415e163b670eed64ad645ff,SCR,2024-06-20_16h27.54.301,LearnStrategy,2023.2.3,Linux x86_64,59.52380952,7,2,8,,,,,,,,4,03,,,,,,,,,,,,,6,1.487,0,,,,,,-0.139821872,-0.391112493,1,0,0,1.4867,Pegmatite_rect,7,0,7,0,1,
6415e163b670eed64ad645ff,SCR,2024-06-20_16h27.54.301,LearnStrategy,2023.2.3,Linux x86_64,59.52380952,7,2,9,,,,,,,,7,07,,,,,,,,,,,,,7,1.087,1,,,,,,0.148418516,-0.380017706,1,0,0,1.0868,Peridotite_rect,8,0,8,0,1,
6415e163b670eed64ad645ff,SCR,2024-06-20_16h27.54.301,LearnStrategy,2023.2.3,Linux x86_64,59.52380952,7,2,10,,,,,,,,6,03,,,,,,,,,,,,,3,4.095,0,,,,,,0.149429823,-0.247888986,1,0,0,4.0952,Diorite_rect,9,0,9,0,1,
6415e163b670eed64ad645ff,SCR,2024-06-20_16h27.54.301,LearnStrategy,2023.2.3,Linux x86_64,59.52380952,7,2,11,,,,,,,,1,05,,,,,,,,,,,,,4,1.158,0,,,,,,0.403283634,-0.249906227,1,0,0,1.1583,Gabbro_rect,10,0,10,0,1,
6415e163b670eed64ad645ff,SCR,2024-06-20_16h27.54.301,LearnStrategy,2023.2.3,Linux x86_64,59.52380952,7,2,12,,,,,,,,3,09,,,,,,,,,,,,,7,3.19,0,,,,,,0.130213849,-0.396659887,1,0,0,3.1905,Peridotite_rect,11,0,11,0,1,
6415e163b670eed64ad645ff,SCR,2024-06-20_16h27.54.301,LearnStrategy,2023.2.3,Linux x86_64,59.52380952,7,2,13,,,,,,,,4,05,,,,,,,,,,,,,6,2.5,0,,,,,,-0.155498093,-0.418849462,1,0,0,2.5,Pegmatite_rect,12,0,12,0,1,
6415e163b670eed64ad645ff,SCR,2024-06-20_16h27.54.301,LearnStrategy,2023.2.3,Linux x86_64,59.52380952,7,2,14,,,,,,,,8,06,,,,,,,,,,,,,8,0.982,1,,,,,,0.379010697,-0.398172799,1,0,0,0.9821,Pumice_rect,13,0,13,0,1,
6415e163b670eed64ad645ff,SCR,2024-06-20_16h27.54.301,LearnStrategy,2023.2.3,Linux x86_64,59.52380952,7,2,15,,,,,,,,6,16,,,,,,,,,,,,,2,3.534,0,,,,,,-0.113020704,-0.230742549,1,0,0,3.5344,Basalt_rect,14,0,14,0,1,
6415e163b670eed64ad645ff,SCR,2024-06-20_16h27.54.301,LearnStrategy,2023.2.3,Linux x86_64,59.52380952,7,2,16,,,,,,,,8,10,,,,,,,,,,,,,8,1.398,1,,,,,,0.415925792,-0.407754674,1,0,0,1.398,Pumice_rect,15,0,15,0,1,
6415e163b670eed64ad645ff,SCR,2024-06-20_16h27.54.301,LearnStrategy,2023.2.3,Linux x86_64,59.52380952,8,1,1,0.372942571,0.095544842,1,0,0,0.8069,Peridotite_15,7,15,4,7,0.807,7,04,0.177242512,-0.395651231,1,0,0,0.9109,Peridotite_rect,7,0.911,1,0,0,0,0,1,,,,,,,,,,,,,
6415e163b670eed64ad645ff,SCR,2024-06-20_16h27.54.301,LearnStrategy,2023.2.3,Linux x86_64,59.52380952,8,1,2,0.545381071,-0.399181312,1,0,0,0.7742,Diorite_13,3,13,1,8,0.774,1,06,0.426545192,-0.403720193,1,0,0,1.6658,Pumice_rect,8,1.666,0,1,0,1,0,1,,,,,,,,,,,,,
6415e163b670eed64ad645ff,SCR,2024-06-20_16h27.54.301,LearnStrategy,2023.2.3,Linux x86_64,59.52380952,8,1,3,-0.122122894,-0.202501252,1,0,0,0.5026,Gabbro_14,4,14,2,4,0.503,5,14,-0.075094232,-0.399181312,1,0,0,1.0035,Pegmatite_rect,6,1.004,0,2,0,2,0,1,,,,,,,,,,,,,
6415e163b670eed64ad645ff,SCR,2024-06-20_16h27.54.301,LearnStrategy,2023.2.3,Linux x86_64,59.52380952,8,1,4,0.071554408,-0.08449318,1,0,0,0.7124,Diorite_07,3,07,3,5,0.712,3,11,-0.129708304,-0.405737434,1,0,0,1.4379,Pegmatite_rect,6,1.438,0,3,0,3,0,1,,,,,,,,,,,,,
6415e163b670eed64ad645ff,SCR,2024-06-20_16h27.54.301,LearnStrategy,2023.2.3,Linux x86_64,59.52380952,8,1,5,0.228316688,-0.079954407,1,0,0,1.2217,Andesite_09,1,09,3,6,1.222,6,07,0.165106115,-0.403215865,1,0,0,2.9446,Peridotite_rect,7,2.945,0,4,0,4,0,1,,,,,,,,,,,,,
6415e163b670eed64ad645ff,SCR,2024-06-20_16h27.54.301,LearnStrategy,2023.2.3,Linux x86_64,59.52380952,8,1,6,-0.38811321,-0.111725785,1,0,0,1.0704,Peridotite_05,7,05,3,2,1.07,6,08,-0.146395903,-0.41279774,1,0,0,2.6339,Pegmatite_rect,6,2.634,0,5,0,5,0,1,,,,,,,,,,,,,
6415e163b670eed64ad645ff,SCR,2024-06-20_16h27.54.301,LearnStrategy,2023.2.3,Linux x86_64,59.52380952,8,1,7,-0.093298899,0.059234691,1,0,0,0.7227,Pegmatite_13,6,13,4,4,0.723,2,10,0.399238121,-0.244358833,1,0,0,1.6208,Gabbro_rect,4,1.621,0,6,0,6,0,1,,,,,,,,,,,,,
6415e163b670eed64ad645ff,SCR,2024-06-20_16h27.54.301,LearnStrategy,2023.2.3,Linux x86_64,59.52380952,8,1,8,-0.397215543,-0.122820572,1,0,0,0.7219,Peridotite_05,7,05,3,2,0.722,6,09,0.146395759,-0.25545362,1,0,0,1.0237,Diorite_rect,3,1.024,0,7,0,7,0,1,,,,,,,,,,,,,
6415e163b670eed64ad645ff,SCR,2024-06-20_16h27.54.301,LearnStrategy,2023.2.3,Linux x86_64,59.52380952,8,1,9,-0.219720115,0.407207301,1,0,0,1.153,Obsidian_10,5,10,6,3,1.153,3,14,-0.404295048,-0.401702952,1,0,0,3.0433,Obsidian_rect,5,3.043,1,8,0,8,0,1,,,,,,,,,,,,,
6415e163b670eed64ad645ff,SCR,2024-06-20_16h27.54.301,LearnStrategy,2023.2.3,Linux x86_64,59.52380952,8,1,10,0.566114256,-0.412293412,1,0,0,0.9367,Diorite_13,3,13,1,8,0.937,2,11,0.442221342,-0.410780499,1,0,0,1.2594,Pumice_rect,8,1.259,0,9,0,9,0,1,,,,,,,,,,,,,
6415e163b670eed64ad645ff,SCR,2024-06-20_16h27.54.301,LearnStrategy,2023.2.3,Linux x86_64,59.52380952,8,1,11,0.392664233,0.400146995,1,0,0,1.3363,Peridotite_14,7,14,6,7,1.336,8,04,0.156509471,-0.243854433,1,0,0,1.8132,Diorite_rect,3,1.813,0,10,0,10,0,1,,,,,,,,,,,,,
6415e163b670eed64ad645ff,SCR,2024-06-20_16h27.54.301,LearnStrategy,2023.2.3,Linux x86_64,59.52380952,8,1,12,-0.233879268,-0.422379615,1,0,0,1.3258,Obsidian_09,5,09,1,3,1.326,7,14,-0.391652998,-0.396155559,1,0,0,0.6807,Obsidian_rect,5,0.681,1,11,0,11,0,1,,,,,,,,,,,,,
6415e163b670eed64ad645ff,SCR,2024-06-20_16h27.54.301,LearnStrategy,2023.2.3,Linux x86_64,59.52380952,8,1,13,0.247027043,-0.405233106,1,0,0,1.9851,Andesite_07,1,07,1,6,1.985,1,01,-0.112514944,-0.40019004,1,0,0,1.9288,Pegmatite_rect,6,1.929,0,12,0,12,0,1,,,,,,,,,,,,,
6415e163b670eed64ad645ff,SCR,2024-06-20_16h27.54.301,LearnStrategy,2023.2.3,Linux x86_64,59.52380952,8,1,14,0.25916344,0.104118096,1,0,0,0.8478,Pumice_03,8,03,4,6,0.848,4,12,0.450817986,-0.403215865,1,0,0,0.714,Pumice_rect,8,0.714,1,13,0,13,0,1,,,,,,,,,,,,,
6415e163b670eed64ad645ff,SCR,2024-06-20_16h27.54.301,LearnStrategy,2023.2.3,Linux x86_64,59.52380952,8,1,15,0.539818562,0.236751144,1,0,0,0.8155,Gabbro_10,4,10,5,8,0.816,4,09,0.165106115,-0.244863161,1,0,0,2.7634,Diorite_rect,3,2.763,0,14,0,14,0,1,,,,,,,,,,,,,
6415e163b670eed64ad645ff,SCR,2024-06-20_16h27.54.301,LearnStrategy,2023.2.3,Linux x86_64,59.52380952,8,1,16,-0.215168913,-0.108699888,1,0,0,0.7068,Diorite_14,3,14,3,3,0.707,3,13,0.152969575,-0.24032428,1,0,0,0.8676,Diorite_rect,3,0.868,1,15,0,15,0,1,,,,,,,,,,,,,
6415e163b670eed64ad645ff,SCR,2024-06-20_16h27.54.301,LearnStrategy,2023.2.3,Linux x86_64,59.52380952,8,2,1,,,,,,,,8,15,,,,,,,,,,,,,8,22.882,1,,,,,,0.421721123,-0.401936276,1,0,0,22.8821,Pumice_rect,0,0,0,0,1,
6415e163b670eed64ad645ff,SCR,2024-06-20_16h27.54.301,LearnStrategy,2023.2.3,Linux x86_64,59.52380952,8,2,2,,,,,,,,3,08,,,,,,,,,,,,,3,1.256,1,,,,,,0.147529065,-0.233406533,1,0,0,1.2559,Diorite_rect,1,0,1,0,1,
6415e163b670eed64ad645ff,SCR,2024-06-20_16h27.54.301,LearnStrategy,2023.2.3,Linux x86_64,59.52380952,8,2,3,,,,,,,,2,05,,,,,,,,,,,,,6,2.457,0,,,,,,-0.112919982,-0.419672433,1,0,0,2.4569,Pegmatite_rect,2,0,2,0,1,
6415e163b670eed64ad645ff,SCR,2024-06-20_16h27.54.301,LearnStrategy,2023.2.3,Linux x86_64,59.52380952,8,2,4,,,,,,,,2,04,,,,,,,,,,,,,6,21.128,0,,,,,,-0.12724426,-0.408060781,1,0,0,21.1275,Pegmatite_rect,3,0,3,0,1,
6415e163b670eed64ad645ff,SCR,2024-06-20_16h27.54.301,LearnStrategy,2023.2.3,Linux x86_64,59.52380952,8,2,5,,,,,,,,5,08,,,,,,,,,,,,,5,1.57,1,,,,,,-0.434764235,-0.413634108,1,0,0,1.57,Obsidian_rect,4,0,4,0,1,
6415e163b670eed64ad645ff,SCR,2024-06-20_16h27.54.301,LearnStrategy,2023.2.3,Linux x86_64,59.52380952,8,2,6,,,,,,,,1,11,,,,,,,,,,,,,4,6.4,0,,,,,,0.438980747,-0.239345282,1,0,0,6.4,Gabbro_rect,5,0,5,0,1,
6415e163b670eed64ad645ff,SCR,2024-06-20_16h27.54.301,LearnStrategy,2023.2.3,Linux x86_64,59.52380952,8,2,7,,,,,,,,6,15,,,,,,,,,,,,,8,1.043,0,,,,,,0.321182752,-0.387336838,1,0,0,1.0431,Pumice_rect,6,0,6,0,1,
6415e163b670eed64ad645ff,SCR,2024-06-20_16h27.54.301,LearnStrategy,2023.2.3,Linux x86_64,59.52380952,8,2,8,,,,,,,,6,10,,,,,,,,,,,,,7,0.626,0,,,,,,0.175473495,-0.381452963,1,0,0,0.6261,Peridotite_rect,7,0,7,0,1,
6415e163b670eed64ad645ff,SCR,2024-06-20_16h27.54.301,LearnStrategy,2023.2.3,Linux x86_64,59.52380952,8,2,9,,,,,,,,4,13,,,,,,,,,,,,,3,0.708,0,,,,,,0.139529233,-0.25569468,1,0,0,0.7082,Diorite_rect,8,0,8,0,1,
6415e163b670eed64ad645ff,SCR,2024-06-20_16h27.54.301,LearnStrategy,2023.2.3,Linux x86_64,59.52380952,8,2,10,,,,,,,,8,13,,,,,,,,,,,,,8,1.403,1,,,,,,0.41181122,-0.397182626,1,0,0,1.4034,Pumice_rect,9,0,9,0,1,
6415e163b670eed64ad645ff,SCR,2024-06-20_16h27.54.301,LearnStrategy,2023.2.3,Linux x86_64,59.52380952,8,2,11,,,,,,,,7,08,,,,,,,,,,,,,8,1.535,0,,,,,,0.375738153,-0.399741589,1,0,0,1.5347,Pumice_rect,10,0,10,0,1,
6415e163b670eed64ad645ff,SCR,2024-06-20_16h27.54.301,LearnStrategy,2023.2.3,Linux x86_64,59.52380952,8,2,12,,,,,,,,4,08,,,,,,,,,,,,,8,1.122,0,,,,,,0.373378127,-0.399741589,1,0,0,1.1219,Pumice_rect,11,0,11,0,1,
6415e163b670eed64ad645ff,SCR,2024-06-20_16h27.54.301,LearnStrategy,2023.2.3,Linux x86_64,59.52380952,8,2,13,,,,,,,,1,02,,,,,,,,,,,,,8,0.856,0,,,,,,0.373378127,-0.399741589,1,0,0,0.8562,Pumice_rect,12,0,12,0,1,
6415e163b670eed64ad645ff,SCR,2024-06-20_16h27.54.301,LearnStrategy,2023.2.3,Linux x86_64,59.52380952,8,2,14,,,,,,,,3,16,,,,,,,,,,,,,6,1.321,0,,,,,,-0.088871342,-0.398331835,1,0,0,1.3211,Pegmatite_rect,13,0,13,0,1,
6415e163b670eed64ad645ff,SCR,2024-06-20_16h27.54.301,LearnStrategy,2023.2.3,Linux x86_64,59.52380952,8,2,15,,,,,,,,7,13,,,,,,,,,,,,,3,1.052,0,,,,,,0.122238517,-0.252876747,1,0,0,1.0524,Diorite_rect,14,0,14,0,1,
6415e163b670eed64ad645ff,SCR,2024-06-20_16h27.54.301,LearnStrategy,2023.2.3,Linux x86_64,59.52380952,8,2,16,,,,,,,,5,06,,,,,,,,,,,,,5,1.583,1,,,,,,-0.467358047,-0.386591379,1,0,0,1.5827,Obsidian_rect,15,0,15,0,1,
6415e163b670eed64ad645ff,SCR,2024-06-20_16h27.54.301,LearnStrategy,2023.2.3,Linux x86_64,59.52380952,9,1,1,-0.058108263,-0.074375779,1,0,0,0.7945,Basalt_02,2,02,3,4,0.794,4,12,0.189570396,-0.247837908,1,0,0,0.9845,Diorite_rect,3,0.984,0,0,0,0,0,1,,,,,,,,,,,,,
6415e163b670eed64ad645ff,SCR,2024-06-20_16h27.54.301,LearnStrategy,2023.2.3,Linux x86_64,59.52380952,9,1,2,0.528060268,-0.411467288,1,0,0,1.2575,Diorite_13,3,13,1,8,1.257,3,13,0.395305938,-0.407589192,1,0,0,1.079,Pumice_rect,8,1.079,0,1,0,1,0,1,,,,,,,,,,,,,
6415e163b670eed64ad645ff,SCR,2024-06-20_16h27.54.301,LearnStrategy,2023.2.3,Linux x86_64,59.52380952,9,1,3,0.3447492,-0.422364857,1,0,0,2.6372,Andesite_14,1,14,1,7,2.637,2,09,0.374072151,-0.413725947,1,0,0,0.6082,Pumice_rect,8,0.608,0,2,0,2,0,1,,,,,,,,,,,,,
6415e163b670eed64ad645ff,SCR,2024-06-20_16h27.54.301,LearnStrategy,2023.2.3,Linux x86_64,59.52380952,9,1,4,-0.211013149,-0.231700772,1,0,0,1.2248,Diorite_12,3,12,2,3,1.225,7,16,-0.193738266,-0.233108879,1,0,0,1.3361,Basalt_rect,2,1.336,0,3,0,3,0,1,,,,,,,,,,,,,
6415e163b670eed64ad645ff,SCR,2024-06-20_16h27.54.301,LearnStrategy,2023.2.3,Linux x86_64,59.52380952,9,1,5,-0.358986008,0.098460202,1,0,0,2.1579,Gabbro_12,4,12,4,2,2.158,1,06,0.143074215,-0.233145056,1,0,0,1.0215,Diorite_rect,3,1.022,0,4,0,4,0,1,,,,,,,,,,,,,
6415e163b670eed64ad645ff,SCR,2024-06-20_16h27.54.301,LearnStrategy,2023.2.3,Linux x86_64,59.52380952,9,1,6,-0.527483157,0.113540864,1,0,0,1.0042,Peridotite_10,7,10,4,1,1.004,3,11,0.174921672,-0.393615221,1,0,0,1.4179,Peridotite_rect,7,1.418,1,5,0,5,0,1,,,,,,,,,,,,,
6415e163b670eed64ad645ff,SCR,2024-06-20_16h27.54.301,LearnStrategy,2023.2.3,Linux x86_64,59.52380952,9,1,7,-0.543155366,0.256779362,1,0,0,1.2874,Pumice_05,8,05,5,1,1.287,1,07,0.391003389,-0.395278071,1,0,0,5.6678,Pumice_rect,8,5.668,1,6,0,6,0,1,,,,,,,,,,,,,
6415e163b670eed64ad645ff,SCR,2024-06-20_16h27.54.301,LearnStrategy,2023.2.3,Linux x86_64,59.52380952,9,1,8,-0.067801176,0.085351792,1,0,0,1.0078,Pegmatite_13,6,13,4,4,1.008,1,01,0.145184441,-0.40021103,1,0,0,0.8836,Peridotite_rect,7,0.884,0,7,0,7,0,1,,,,,,,,,,,,,
6415e163b670eed64ad645ff,SCR,2024-06-20_16h27.54.301,LearnStrategy,2023.2.3,Linux x86_64,59.52380952,9,1,9,-0.213858878,0.082394416,1,0,0,1.257,Pumice_04,8,04,4,3,1.257,7,14,0.399362913,-0.393940455,1,0,0,1.0892,Pumice_rect,8,1.089,1,8,0,8,0,1,,,,,,,,,,,,,
6415e163b670eed64ad645ff,SCR,2024-06-20_16h27.54.301,LearnStrategy,2023.2.3,Linux x86_64,59.52380952,9,1,10,0.261905581,0.22967146,1,0,0,1.1546,Obsidian_02,5,02,5,6,1.155,8,04,-0.371000048,-0.398885808,1,0,0,0.8211,Obsidian_rect,5,0.821,1,9,0,9,0,1,,,,,,,,,,,,,
6415e163b670eed64ad645ff,SCR,2024-06-20_16h27.54.301,LearnStrategy,2023.2.3,Linux x86_64,59.52380952,9,1,11,-0.276724157,0.102368207,1,0,0,0.839,Pumice_04,8,04,4,3,0.839,4,10,0.437044242,-0.406675813,1,0,0,2.3617,Pumice_rect,8,2.362,1,10,0,10,0,1,,,,,,,,,,,,,
6415e163b670eed64ad645ff,SCR,2024-06-20_16h27.54.301,LearnStrategy,2023.2.3,Linux x86_64,59.52380952,9,1,12,0.245707982,0.110093166,1,0,0,1.1395,Pumice_03,8,03,4,6,1.139,2,01,0.398749123,-0.406038168,1,0,0,1.0342,Pumice_rect,8,1.034,1,11,0,11,0,1,,,,,,,,,,,,,
6415e163b670eed64ad645ff,SCR,2024-06-20_16h27.54.301,LearnStrategy,2023.2.3,Linux x86_64,59.52380952,9,1,13,-0.524077151,-0.412240973,1,0,0,1.1935,Pegmatite_09,6,09,1,1,1.193,6,13,0.095127159,-0.237099088,1,0,0,1.3008,Diorite_rect,3,1.301,0,12,0,12,0,1,,,,,,,,,,,,,
6415e163b670eed64ad645ff,SCR,2024-06-20_16h27.54.301,LearnStrategy,2023.2.3,Linux x86_64,59.52380952,9,1,14,-0.225717607,-0.061593356,1,0,0,0.829,Diorite_14,3,14,3,3,0.829,6,07,0.153334927,-0.233548876,1,0,0,1.8961,Diorite_rect,3,1.896,1,13,0,13,0,1,,,,,,,,,,,,,
6415e163b670eed64ad645ff,SCR,2024-06-20_16h27.54.301,LearnStrategy,2023.2.3,Linux x86_64,59.52380952,9,1,15,-0.1128919,0.094702313,1,0,0,0.8444,Pegmatite_13,6,13,4,4,0.844,4,16,0.378601361,-0.245566999,1,0,0,0.9746,Gabbro_rect,4,0.975,0,14,0,14,0,1,,,,,,,,,,,,,
6415e163b670eed64ad645ff,SCR,2024-06-20_16h27.54.301,LearnStrategy,2023.2.3,Linux x86_64,59.52380952,9,1,16,-0.23075881,-0.069794991,1,0,0,0.9161,Diorite_14,3,14,3,3,0.916,6,12,-0.133038087,-0.411390994,1,0,0,162.5962,Pegmatite_rect,6,162.596,0,15,0,15,0,1,,,,,,,,,,,,,
6415e163b670eed64ad645ff,SCR,2024-06-20_16h27.54.301,LearnStrategy,2023.2.3,Linux x86_64,59.52380952,9,2,1,,,,,,,,4,01,,,,,,,,,,,,,7,2.347,0,,,,,,0.064276968,-0.396504362,1,0,0,2.3473,Peridotite_rect,0,0,0,0,1,
6415e163b670eed64ad645ff,SCR,2024-06-20_16h27.54.301,LearnStrategy,2023.2.3,Linux x86_64,59.52380952,9,2,2,,,,,,,,1,04,,,,,,,,,,,,,6,1.242,0,,,,,,-0.164815124,-0.414884039,1,0,0,1.2415,Pegmatite_rect,1,0,1,0,1,
6415e163b670eed64ad645ff,SCR,2024-06-20_16h27.54.301,LearnStrategy,2023.2.3,Linux x86_64,59.52380952,9,2,3,,,,,,,,8,08,,,,,,,,,,,,,8,1.497,1,,,,,,0.438117802,-0.399166053,1,0,0,1.4973,Pumice_rect,2,0,2,0,1,
6415e163b670eed64ad645ff,SCR,2024-06-20_16h27.54.301,LearnStrategy,2023.2.3,Linux x86_64,59.52380952,9,2,4,,,,,,,,3,06,,,,,,,,,,,,,4,1.076,0,,,,,,0.373400478,-0.253810256,1,0,0,1.0764,Gabbro_rect,3,0,3,0,1,
6415e163b670eed64ad645ff,SCR,2024-06-20_16h27.54.301,LearnStrategy,2023.2.3,Linux x86_64,59.52380952,9,2,5,,,,,,,,7,12,,,,,,,,,,,,,3,1.144,0,,,,,,0.144644724,-0.236129689,1,0,0,1.1444,Diorite_rect,4,0,4,0,1,
6415e163b670eed64ad645ff,SCR,2024-06-20_16h27.54.301,LearnStrategy,2023.2.3,Linux x86_64,59.52380952,9,2,6,,,,,,,,2,06,,,,,,,,,,,,,5,1.229,0,,,,,,-0.441859393,-0.399454036,1,0,0,1.2291,Obsidian_rect,5,0,5,0,1,
6415e163b670eed64ad645ff,SCR,2024-06-20_16h27.54.301,LearnStrategy,2023.2.3,Linux x86_64,59.52380952,9,2,7,,,,,,,,5,16,,,,,,,,,,,,,5,2.157,1,,,,,,-0.392480841,-0.3957877,1,0,0,2.1568,Obsidian_rect,6,0,6,0,1,
6415e163b670eed64ad645ff,SCR,2024-06-20_16h27.54.301,LearnStrategy,2023.2.3,Linux x86_64,59.52380952,9,2,8,,,,,,,,6,05,,,,,,,,,,,,,3,0.906,0,,,,,,0.173732489,-0.234832835,1,0,0,0.9056,Diorite_rect,7,0,7,0,1,
6415e163b670eed64ad645ff,SCR,2024-06-20_16h27.54.301,LearnStrategy,2023.2.3,Linux x86_64,59.52380952,9,2,9,,,,,,,,7,02,,,,,,,,,,,,,7,0.726,1,,,,,,0.129586663,-0.387200942,1,0,0,0.7256,Peridotite_rect,8,0,8,0,1,
6415e163b670eed64ad645ff,SCR,2024-06-20_16h27.54.301,LearnStrategy,2023.2.3,Linux x86_64,59.52380952,9,2,10,,,,,,,,6,06,,,,,,,,,,,,,6,0.63,1,,,,,,-0.070929012,-0.401661116,1,0,0,0.6301,Pegmatite_rect,9,0,9,0,1,
6415e163b670eed64ad645ff,SCR,2024-06-20_16h27.54.301,LearnStrategy,2023.2.3,Linux x86_64,59.52380952,9,2,11,,,,,,,,5,04,,,,,,,,,,,,,7,3.397,0,,,,,,0.168178791,-0.406745158,1,0,0,3.3966,Peridotite_rect,10,0,10,0,1,
6415e163b670eed64ad645ff,SCR,2024-06-20_16h27.54.301,LearnStrategy,2023.2.3,Linux x86_64,59.52380952,9,2,12,,,,,,,,3,15,,,,,,,,,,,,,7,0.674,0,,,,,,0.168178791,-0.406745158,1,0,0,0.6743,Peridotite_rect,11,0,11,0,1,
6415e163b670eed64ad645ff,SCR,2024-06-20_16h27.54.301,LearnStrategy,2023.2.3,Linux x86_64,59.52380952,9,2,13,,,,,,,,1,16,,,,,,,,,,,,,3,2.865,0,,,,,,0.184484992,-0.249542523,1,0,0,2.8647,Diorite_rect,12,0,12,0,1,
6415e163b670eed64ad645ff,SCR,2024-06-20_16h27.54.301,LearnStrategy,2023.2.3,Linux x86_64,59.52380952,9,2,14,,,,,,,,2,08,,,,,,,,,,,,,6,0.821,0,,,,,,-0.084484978,-0.395045822,1,0,0,0.8211,Pegmatite_rect,13,0,13,0,1,
6415e163b670eed64ad645ff,SCR,2024-06-20_16h27.54.301,LearnStrategy,2023.2.3,Linux x86_64,59.52380952,9,2,15,,,,,,,,8,14,,,,,,,,,,,,,8,1.333,1,,,,,,0.452398596,-0.41235896,1,0,0,1.3326,Pumice_rect,14,0,14,0,1,
6415e163b670eed64ad645ff,SCR,2024-06-20_16h27.54.301,LearnStrategy,2023.2.3,Linux x86_64,59.52380952,9,2,16,,,,,,,,4,15,,,,,,,,,,,,,5,0.905,0,,,,,,-0.352082481,-0.416196366,1,0,0,0.9049,Obsidian_rect,15,0,15,0,1,
6415e163b670eed64ad645ff,SCR,2024-06-20_16h27.54.301,LearnStrategy,2023.2.3,Linux x86_64,59.52380952,,,,,,,,,,,,,,,,,,,,,,,,,,,,,,,,,,,,,,,,,,,,,0
6415e163b670eed64ad645ff,SCR,2024-06-20_16h27.54.301,LearnStrategy,2023.2.3,Linux x86_64,59.52380952,,,,,,,,,,,,,,,,,,,,,,,,,,,,,,,,,,,,,,,,,,,,,
6415e163b670eed64ad645ff,SCR,2024-06-20_16h27.54.301,LearnStrategy,2023.2.3,Linux x86_64,59.52380952,,,,,,,,,,,6,09,1,1,,,,,,,,,,,,,,,,,,,,,,,,,,,,,,,
6415e163b670eed64ad645ff,SCR,2024-06-20_16h27.54.301,LearnStrategy,2023.2.3,Linux x86_64,59.52380952,,,,,,,,,,,1,03,1,2,,,,,,,,,,,,,,,,,,,,,,,,,,,,,,,
6415e163b670eed64ad645ff,SCR,2024-06-20_16h27.54.301,LearnStrategy,2023.2.3,Linux x86_64,59.52380952,,,,,,,,,,,5,09,1,3,,,,,,,,,,,,,,,,,,,,,,,,,,,,,,,
6415e163b670eed64ad645ff,SCR,2024-06-20_16h27.54.301,LearnStrategy,2023.2.3,Linux x86_64,59.52380952,,,,,,,,,,,4,11,1,4,,,,,,,,,,,,,,,,,,,,,,,,,,,,,,,
6415e163b670eed64ad645ff,SCR,2024-06-20_16h27.54.301,LearnStrategy,2023.2.3,Linux x86_64,59.52380952,,,,,,,,,,,8,02,1,5,,,,,,,,,,,,,,,,,,,,,,,,,,,,,,,
6415e163b670eed64ad645ff,SCR,2024-06-20_16h27.54.301,LearnStrategy,2023.2.3,Linux x86_64,59.52380952,,,,,,,,,,,1,07,1,6,,,,,,,,,,,,,,,,,,,,,,,,,,,,,,,
6415e163b670eed64ad645ff,SCR,2024-06-20_16h27.54.301,LearnStrategy,2023.2.3,Linux x86_64,59.52380952,,,,,,,,,,,1,14,1,7,,,,,,,,,,,,,,,,,,,,,,,,,,,,,,,
6415e163b670eed64ad645ff,SCR,2024-06-20_16h27.54.301,LearnStrategy,2023.2.3,Linux x86_64,59.52380952,,,,,,,,,,,3,13,1,8,,,,,,,,,,,,,,,,,,,,,,,,,,,,,,,
6415e163b670eed64ad645ff,SCR,2024-06-20_16h27.54.301,LearnStrategy,2023.2.3,Linux x86_64,59.52380952,,,,,,,,,,,1,01,2,1,,,,,,,,,,,,,,,,,,,,,,,,,,,,,,,
6415e163b670eed64ad645ff,SCR,2024-06-20_16h27.54.301,LearnStrategy,2023.2.3,Linux x86_64,59.52380952,,,,,,,,,,,7,04,2,2,,,,,,,,,,,,,,,,,,,,,,,,,,,,,,,
6415e163b670eed64ad645ff,SCR,2024-06-20_16h27.54.301,LearnStrategy,2023.2.3,Linux x86_64,59.52380952,,,,,,,,,,,3,12,2,3,,,,,,,,,,,,,,,,,,,,,,,,,,,,,,,
6415e163b670eed64ad645ff,SCR,2024-06-20_16h27.54.301,LearnStrategy,2023.2.3,Linux x86_64,59.52380952,,,,,,,,,,,4,14,2,4,,,,,,,,,,,,,,,,,,,,,,,,,,,,,,,
6415e163b670eed64ad645ff,SCR,2024-06-20_16h27.54.301,LearnStrategy,2023.2.3,Linux x86_64,59.52380952,,,,,,,,,,,6,11,2,5,,,,,,,,,,,,,,,,,,,,,,,,,,,,,,,
6415e163b670eed64ad645ff,SCR,2024-06-20_16h27.54.301,LearnStrategy,2023.2.3,Linux x86_64,59.52380952,,,,,,,,,,,5,05,2,6,,,,,,,,,,,,,,,,,,,,,,,,,,,,,,,
6415e163b670eed64ad645ff,SCR,2024-06-20_16h27.54.301,LearnStrategy,2023.2.3,Linux x86_64,59.52380952,,,,,,,,,,,2,11,2,7,,,,,,,,,,,,,,,,,,,,,,,,,,,,,,,
6415e163b670eed64ad645ff,SCR,2024-06-20_16h27.54.301,LearnStrategy,2023.2.3,Linux x86_64,59.52380952,,,,,,,,,,,3,10,2,8,,,,,,,,,,,,,,,,,,,,,,,,,,,,,,,
6415e163b670eed64ad645ff,SCR,2024-06-20_16h27.54.301,LearnStrategy,2023.2.3,Linux x86_64,59.52380952,,,,,,,,,,,6,12,3,1,,,,,,,,,,,,,,,,,,,,,,,,,,,,,,,
6415e163b670eed64ad645ff,SCR,2024-06-20_16h27.54.301,LearnStrategy,2023.2.3,Linux x86_64,59.52380952,,,,,,,,,,,7,05,3,2,,,,,,,,,,,,,,,,,,,,,,,,,,,,,,,
6415e163b670eed64ad645ff,SCR,2024-06-20_16h27.54.301,LearnStrategy,2023.2.3,Linux x86_64,59.52380952,,,,,,,,,,,3,14,3,3,,,,,,,,,,,,,,,,,,,,,,,,,,,,,,,
6415e163b670eed64ad645ff,SCR,2024-06-20_16h27.54.301,LearnStrategy,2023.2.3,Linux x86_64,59.52380952,,,,,,,,,,,2,02,3,4,,,,,,,,,,,,,,,,,,,,,,,,,,,,,,,
6415e163b670eed64ad645ff,SCR,2024-06-20_16h27.54.301,LearnStrategy,2023.2.3,Linux x86_64,59.52380952,,,,,,,,,,,3,07,3,5,,,,,,,,,,,,,,,,,,,,,,,,,,,,,,,
6415e163b670eed64ad645ff,SCR,2024-06-20_16h27.54.301,LearnStrategy,2023.2.3,Linux x86_64,59.52380952,,,,,,,,,,,1,09,3,6,,,,,,,,,,,,,,,,,,,,,,,,,,,,,,,
6415e163b670eed64ad645ff,SCR,2024-06-20_16h27.54.301,LearnStrategy,2023.2.3,Linux x86_64,59.52380952,,,,,,,,,,,5,07,3,7,,,,,,,,,,,,,,,,,,,,,,,,,,,,,,,
6415e163b670eed64ad645ff,SCR,2024-06-20_16h27.54.301,LearnStrategy,2023.2.3,Linux x86_64,59.52380952,,,,,,,,,,,3,11,3,8,,,,,,,,,,,,,,,,,,,,,,,,,,,,,,,
6415e163b670eed64ad645ff,SCR,2024-06-20_16h27.54.301,LearnStrategy,2023.2.3,Linux x86_64,59.52380952,,,,,,,,,,,7,10,4,1,,,,,,,,,,,,,,,,,,,,,,,,,,,,,,,
6415e163b670eed64ad645ff,SCR,2024-06-20_16h27.54.301,LearnStrategy,2023.2.3,Linux x86_64,59.52380952,,,,,,,,,,,4,12,4,2,,,,,,,,,,,,,,,,,,,,,,,,,,,,,,,
6415e163b670eed64ad645ff,SCR,2024-06-20_16h27.54.301,LearnStrategy,2023.2.3,Linux x86_64,59.52380952,,,,,,,,,,,8,04,4,3,,,,,,,,,,,,,,,,,,,,,,,,,,,,,,,
6415e163b670eed64ad645ff,SCR,2024-06-20_16h27.54.301,LearnStrategy,2023.2.3,Linux x86_64,59.52380952,,,,,,,,,,,6,13,4,4,,,,,,,,,,,,,,,,,,,,,,,,,,,,,,,
6415e163b670eed64ad645ff,SCR,2024-06-20_16h27.54.301,LearnStrategy,2023.2.3,Linux x86_64,59.52380952,,,,,,,,,,,4,16,4,5,,,,,,,,,,,,,,,,,,,,,,,,,,,,,,,
6415e163b670eed64ad645ff,SCR,2024-06-20_16h27.54.301,LearnStrategy,2023.2.3,Linux x86_64,59.52380952,,,,,,,,,,,8,03,4,6,,,,,,,,,,,,,,,,,,,,,,,,,,,,,,,
6415e163b670eed64ad645ff,SCR,2024-06-20_16h27.54.301,LearnStrategy,2023.2.3,Linux x86_64,59.52380952,,,,,,,,,,,7,15,4,7,,,,,,,,,,,,,,,,,,,,,,,,,,,,,,,
6415e163b670eed64ad645ff,SCR,2024-06-20_16h27.54.301,LearnStrategy,2023.2.3,Linux x86_64,59.52380952,,,,,,,,,,,1,06,4,8,,,,,,,,,,,,,,,,,,,,,,,,,,,,,,,
6415e163b670eed64ad645ff,SCR,2024-06-20_16h27.54.301,LearnStrategy,2023.2.3,Linux x86_64,59.52380952,,,,,,,,,,,8,05,5,1,,,,,,,,,,,,,,,,,,,,,,,,,,,,,,,
6415e163b670eed64ad645ff,SCR,2024-06-20_16h27.54.301,LearnStrategy,2023.2.3,Linux x86_64,59.52380952,,,,,,,,,,,7,16,5,2,,,,,,,,,,,,,,,,,,,,,,,,,,,,,,,
6415e163b670eed64ad645ff,SCR,2024-06-20_16h27.54.301,LearnStrategy,2023.2.3,Linux x86_64,59.52380952,,,,,,,,,,,2,09,5,3,,,,,,,,,,,,,,,,,,,,,,,,,,,,,,,
6415e163b670eed64ad645ff,SCR,2024-06-20_16h27.54.301,LearnStrategy,2023.2.3,Linux x86_64,59.52380952,,,,,,,,,,,4,09,5,4,,,,,,,,,,,,,,,,,,,,,,,,,,,,,,,
6415e163b670eed64ad645ff,SCR,2024-06-20_16h27.54.301,LearnStrategy,2023.2.3,Linux x86_64,59.52380952,,,,,,,,,,,6,07,5,5,,,,,,,,,,,,,,,,,,,,,,,,,,,,,,,
6415e163b670eed64ad645ff,SCR,2024-06-20_16h27.54.301,LearnStrategy,2023.2.3,Linux x86_64,59.52380952,,,,,,,,,,,5,02,5,6,,,,,,,,,,,,,,,,,,,,,,,,,,,,,,,
6415e163b670eed64ad645ff,SCR,2024-06-20_16h27.54.301,LearnStrategy,2023.2.3,Linux x86_64,59.52380952,,,,,,,,,,,5,14,5,7,,,,,,,,,,,,,,,,,,,,,,,,,,,,,,,
6415e163b670eed64ad645ff,SCR,2024-06-20_16h27.54.301,LearnStrategy,2023.2.3,Linux x86_64,59.52380952,,,,,,,,,,,4,10,5,8,,,,,,,,,,,,,,,,,,,,,,,,,,,,,,,
6415e163b670eed64ad645ff,SCR,2024-06-20_16h27.54.301,LearnStrategy,2023.2.3,Linux x86_64,59.52380952,,,,,,,,,,,8,16,6,1,,,,,,,,,,,,,,,,,,,,,,,,,,,,,,,
6415e163b670eed64ad645ff,SCR,2024-06-20_16h27.54.301,LearnStrategy,2023.2.3,Linux x86_64,59.52380952,,,,,,,,,,,6,08,6,2,,,,,,,,,,,,,,,,,,,,,,,,,,,,,,,
6415e163b670eed64ad645ff,SCR,2024-06-20_16h27.54.301,LearnStrategy,2023.2.3,Linux x86_64,59.52380952,,,,,,,,,,,5,10,6,3,,,,,,,,,,,,,,,,,,,,,,,,,,,,,,,
6415e163b670eed64ad645ff,SCR,2024-06-20_16h27.54.301,LearnStrategy,2023.2.3,Linux x86_64,59.52380952,,,,,,,,,,,8,09,6,4,,,,,,,,,,,,,,,,,,,,,,,,,,,,,,,
6415e163b670eed64ad645ff,SCR,2024-06-20_16h27.54.301,LearnStrategy,2023.2.3,Linux x86_64,59.52380952,,,,,,,,,,,2,16,6,5,,,,,,,,,,,,,,,,,,,,,,,,,,,,,,,
6415e163b670eed64ad645ff,SCR,2024-06-20_16h27.54.301,LearnStrategy,2023.2.3,Linux x86_64,59.52380952,,,,,,,,,,,2,01,6,6,,,,,,,,,,,,,,,,,,,,,,,,,,,,,,,
6415e163b670eed64ad645ff,SCR,2024-06-20_16h27.54.301,LearnStrategy,2023.2.3,Linux x86_64,59.52380952,,,,,,,,,,,7,14,6,7,,,,,,,,,,,,,,,,,,,,,,,,,,,,,,,
6415e163b670eed64ad645ff,SCR,2024-06-20_16h27.54.301,LearnStrategy,2023.2.3,Linux x86_64,59.52380952,,,,,,,,,,,2,10,6,8,,,,,,,,,,,,,,,,,,,,,,,,,,,,,,,