participant,condition,date,expName,psychopyVersion,OS,frameRate,block,phase,trial,learn_mouse_2.x,learn_mouse_2.y,learn_mouse_2.leftButton,learn_mouse_2.midButton,learn_mouse_2.rightButton,learn_mouse_2.time,learn_mouse_2.clicked_name,cat,token,row,col,t_select,cat_mouse_l.x,cat_mouse_l.y,cat_mouse_l.leftButton,cat_mouse_l.midButton,cat_mouse_l.rightButton,cat_mouse_l.time,cat_mouse_l.clicked_name,resp,t_resp,corr,train_trials.thisRepN,train_trials.thisTrialN,train_trials.thisN,train_trials.thisIndex,train_trials.ran,cat_mouse_t.x,cat_mouse_t.y,cat_mouse_t.leftButton,cat_mouse_t.midButton,cat_mouse_t.rightButton,cat_mouse_t.time,cat_mouse_t.clicked_name,test_trials.thisRepN,test_trials.thisTrialN,test_trials.thisN,test_trials.thisIndex,test_trials.ran,Bonus
6422f34be2b8257efb345837,TCN,2024-06-11_10h10.12.859,LearnStrategy,2023.2.3,Win32,59.88023952,,,,,,,,,,,,,,,,,,,,,,,,,,,,,,,,,,,,,,,,,,,
6422f34be2b8257efb345837,TCN,2024-06-11_10h10.12.859,LearnStrategy,2023.2.3,Win32,59.88023952,1,1,1,-0.04537037,0.002777778,1,0,0,2.9594,rock_grid_rect_2,3,09,-1,-1,2.959,0.128703704,-0.394444444,1,0,0,8.0769,Peridotite_rect,7,8.077,0,0,0,0,0,1,,,,,,,,,,,,,
6422f34be2b8257efb345837,TCN,2024-06-11_10h10.12.859,LearnStrategy,2023.2.3,Win32,59.88023952,1,1,2,-0.012962963,-0.00462963,1,0,0,7.1526,rock_grid_rect_2,5,04,-1,-1,7.153,-0.410185185,-0.388888889,1,0,0,3.3042,Obsidian_rect,5,3.304,1,1,0,1,0,1,,,,,,,,,,,,,
6422f34be2b8257efb345837,TCN,2024-06-11_10h10.12.859,LearnStrategy,2023.2.3,Win32,59.88023952,1,1,3,-0.013888889,0.008333333,1,0,0,1.1156,rock_grid_rect_2,7,04,-1,-1,1.116,-0.150925926,-0.407407407,1,0,0,28.0437,Pegmatite_rect,6,28.044,0,2,0,2,0,1,,,,,,,,,,,,,
6422f34be2b8257efb345837,TCN,2024-06-11_10h10.12.859,LearnStrategy,2023.2.3,Win32,59.88023952,1,1,4,-0.063888889,0,1,0,0,1.0245,rock_grid_rect_2,4,08,-1,-1,1.024,-0.118518519,-0.262037037,1,0,0,5.1173,Basalt_rect,2,5.117,0,3,0,3,0,1,,,,,,,,,,,,,
6422f34be2b8257efb345837,TCN,2024-06-11_10h10.12.859,LearnStrategy,2023.2.3,Win32,59.88023952,1,1,5,-0.038888889,-0.002777778,1,0,0,0.8424,rock_grid_rect_2,6,05,-1,-1,0.842,0.123148148,-0.396296296,1,0,0,5.266,Peridotite_rect,7,5.266,0,4,0,4,0,1,,,,,,,,,,,,,
6422f34be2b8257efb345837,TCN,2024-06-11_10h10.12.859,LearnStrategy,2023.2.3,Win32,59.88023952,1,1,6,0.019444444,-0.014814815,1,0,0,1.0279,rock_grid_rect_2,2,09,-1,-1,1.028,-0.364814815,-0.242592593,1,0,0,7.3001,Andesite_rect,1,7.3,0,5,0,5,0,1,,,,,,,,,,,,,
6422f34be2b8257efb345837,TCN,2024-06-11_10h10.12.859,LearnStrategy,2023.2.3,Win32,59.88023952,1,1,7,0.032407407,-0.012962963,1,0,0,1.0802,rock_grid_rect_2,7,15,-1,-1,1.08,-0.352777778,-0.243518519,1,0,0,7.5168,Andesite_rect,1,7.517,0,6,0,6,0,1,,,,,,,,,,,,,
6422f34be2b8257efb345837,TCN,2024-06-11_10h10.12.859,LearnStrategy,2023.2.3,Win32,59.88023952,1,1,8,-0.002777778,-0.005555556,1,0,0,1.1399,rock_grid_rect_2,8,06,-1,-1,1.14,0.392592593,-0.400925926,1,0,0,2.4639,Pumice_rect,8,2.464,1,7,0,7,0,1,,,,,,,,,,,,,
6422f34be2b8257efb345837,TCN,2024-06-11_10h10.12.859,LearnStrategy,2023.2.3,Win32,59.88023952,1,1,9,0.044444444,0.009259259,1,0,0,1.3464,rock_grid_rect_2,3,15,-1,-1,1.346,-0.388888889,-0.243518519,1,0,0,5.7516,Andesite_rect,1,5.752,0,8,0,8,0,1,,,,,,,,,,,,,
6422f34be2b8257efb345837,TCN,2024-06-11_10h10.12.859,LearnStrategy,2023.2.3,Win32,59.88023952,1,1,10,-0.014814815,-0.005555556,1,0,0,1.2721,rock_grid_rect_2,6,07,-1,-1,1.272,-0.361111111,-0.256481481,1,0,0,6.724,Andesite_rect,1,6.724,0,9,0,9,0,1,,,,,,,,,,,,,
6422f34be2b8257efb345837,TCN,2024-06-11_10h10.12.859,LearnStrategy,2023.2.3,Win32,59.88023952,1,1,11,0.001851852,-0.00462963,1,0,0,1.3756,rock_grid_rect_2,5,02,-1,-1,1.376,-0.377777778,-0.398148148,1,0,0,2.4479,Obsidian_rect,5,2.448,1,10,0,10,0,1,,,,,,,,,,,,,
6422f34be2b8257efb345837,TCN,2024-06-11_10h10.12.859,LearnStrategy,2023.2.3,Win32,59.88023952,1,1,12,0.086111111,0.008333333,1,0,0,1.2449,rock_grid_rect_2,2,16,-1,-1,1.245,0.391666667,-0.409259259,1,0,0,5.0344,Pumice_rect,8,5.034,0,11,0,11,0,1,,,,,,,,,,,,,
6422f34be2b8257efb345837,TCN,2024-06-11_10h10.12.859,LearnStrategy,2023.2.3,Win32,59.88023952,1,1,13,0.109259259,-0.014814815,1,0,0,1.4267,rock_grid_rect_2,1,14,-1,-1,1.427,0.134259259,-0.247222222,1,0,0,7.3859,Diorite_rect,3,7.386,0,12,0,12,0,1,,,,,,,,,,,,,
6422f34be2b8257efb345837,TCN,2024-06-11_10h10.12.859,LearnStrategy,2023.2.3,Win32,59.88023952,1,1,14,0.033333333,0.010185185,1,0,0,1.3576,rock_grid_rect_2,8,10,-1,-1,1.358,0.391666667,-0.396296296,1,0,0,4.6895,Pumice_rect,8,4.69,1,13,0,13,0,1,,,,,,,,,,,,,
6422f34be2b8257efb345837,TCN,2024-06-11_10h10.12.859,LearnStrategy,2023.2.3,Win32,59.88023952,1,1,15,0.07962963,0.005555556,1,0,0,0.9926,rock_grid_rect_2,4,05,-1,-1,0.993,0.15462963,-0.397222222,1,0,0,6.5252,Peridotite_rect,7,6.525,0,14,0,14,0,1,,,,,,,,,,,,,
6422f34be2b8257efb345837,TCN,2024-06-11_10h10.12.859,LearnStrategy,2023.2.3,Win32,59.88023952,1,1,16,0.008333333,-0.010185185,1,0,0,1.2232,rock_grid_rect_2,1,04,-1,-1,1.223,0.15,-0.269444444,1,0,0,5.6684,Diorite_rect,3,5.668,0,15,0,15,0,1,,,,,,,,,,,,,
6422f34be2b8257efb345837,TCN,2024-06-11_10h10.12.859,LearnStrategy,2023.2.3,Win32,59.88023952,1,2,1,,,,,,,,6,11,,,,,,,,,,,6,23.499,1,,,,,,-0.081481481,-0.405555556,1,0,0,23.4993,Pegmatite_rect,0,0,0,0,1,
6422f34be2b8257efb345837,TCN,2024-06-11_10h10.12.859,LearnStrategy,2023.2.3,Win32,59.88023952,1,2,2,,,,,,,,6,10,,,,,,,,,,,7,6.28,0,,,,,,0.160185185,-0.385185185,1,0,0,6.2798,Peridotite_rect,1,0,1,0,1,
6422f34be2b8257efb345837,TCN,2024-06-11_10h10.12.859,LearnStrategy,2023.2.3,Win32,59.88023952,1,2,3,,,,,,,,5,11,,,,,,,,,,,5,1.303,1,,,,,,-0.373148148,-0.402777778,1,0,0,1.3028,Obsidian_rect,2,0,2,0,1,
6422f34be2b8257efb345837,TCN,2024-06-11_10h10.12.859,LearnStrategy,2023.2.3,Win32,59.88023952,1,2,4,,,,,,,,1,16,,,,,,,,,,,4,12.533,0,,,,,,0.444444444,-0.24537037,1,0,0,12.5332,Gabbro_rect,3,0,3,0,1,
6422f34be2b8257efb345837,TCN,2024-06-11_10h10.12.859,LearnStrategy,2023.2.3,Win32,59.88023952,1,2,5,,,,,,,,2,02,,,,,,,,,,,2,3.399,1,,,,,,-0.146296296,-0.24537037,1,0,0,3.3987,Basalt_rect,4,0,4,0,1,
6422f34be2b8257efb345837,TCN,2024-06-11_10h10.12.859,LearnStrategy,2023.2.3,Win32,59.88023952,1,2,6,,,,,,,,3,08,,,,,,,,,,,7,23.348,0,,,,,,0.150925926,-0.418518519,1,0,0,23.3479,Peridotite_rect,5,0,5,0,1,
6422f34be2b8257efb345837,TCN,2024-06-11_10h10.12.859,LearnStrategy,2023.2.3,Win32,59.88023952,1,2,7,,,,,,,,7,13,,,,,,,,,,,7,6.388,1,,,,,,0.174074074,-0.398148148,1,0,0,6.3878,Peridotite_rect,6,0,6,0,1,
6422f34be2b8257efb345837,TCN,2024-06-11_10h10.12.859,LearnStrategy,2023.2.3,Win32,59.88023952,1,2,8,,,,,,,,3,12,,,,,,,,,,,4,4.732,0,,,,,,0.433333333,-0.265740741,1,0,0,4.7317,Gabbro_rect,7,0,7,0,1,
6422f34be2b8257efb345837,TCN,2024-06-11_10h10.12.859,LearnStrategy,2023.2.3,Win32,59.88023952,1,2,9,,,,,,,,8,03,,,,,,,,,,,8,2.378,1,,,,,,0.372222222,-0.415740741,1,0,0,2.3784,Pumice_rect,8,0,8,0,1,
6422f34be2b8257efb345837,TCN,2024-06-11_10h10.12.859,LearnStrategy,2023.2.3,Win32,59.88023952,1,2,10,,,,,,,,4,03,,,,,,,,,,,2,4.771,0,,,,,,-0.105555556,-0.253703704,1,0,0,4.7714,Basalt_rect,9,0,9,0,1,
6422f34be2b8257efb345837,TCN,2024-06-11_10h10.12.859,LearnStrategy,2023.2.3,Win32,59.88023952,1,2,11,,,,,,,,1,03,,,,,,,,,,,2,3.902,0,,,,,,-0.10462963,-0.25,1,0,0,3.9023,Basalt_rect,10,0,10,0,1,
6422f34be2b8257efb345837,TCN,2024-06-11_10h10.12.859,LearnStrategy,2023.2.3,Win32,59.88023952,1,2,12,,,,,,,,2,05,,,,,,,,,,,2,5.894,1,,,,,,-0.102777778,-0.25,1,0,0,5.8944,Basalt_rect,11,0,11,0,1,
6422f34be2b8257efb345837,TCN,2024-06-11_10h10.12.859,LearnStrategy,2023.2.3,Win32,59.88023952,1,2,13,,,,,,,,8,16,,,,,,,,,,,1,15.96,0,,,,,,-0.408333333,-0.252777778,1,0,0,15.9597,Andesite_rect,12,0,12,0,1,
6422f34be2b8257efb345837,TCN,2024-06-11_10h10.12.859,LearnStrategy,2023.2.3,Win32,59.88023952,1,2,14,,,,,,,,4,11,,,,,,,,,,,2,2.38,0,,,,,,-0.102777778,-0.269444444,1,0,0,2.3797,Basalt_rect,13,0,13,0,1,
6422f34be2b8257efb345837,TCN,2024-06-11_10h10.12.859,LearnStrategy,2023.2.3,Win32,59.88023952,1,2,15,,,,,,,,5,10,,,,,,,,,,,5,1.234,1,,,,,,-0.362037037,-0.4,1,0,0,1.2335,Obsidian_rect,14,0,14,0,1,
6422f34be2b8257efb345837,TCN,2024-06-11_10h10.12.859,LearnStrategy,2023.2.3,Win32,59.88023952,1,2,16,,,,,,,,7,06,,,,,,,,,,,7,12.806,1,,,,,,0.183333333,-0.409259259,1,0,0,12.8056,Peridotite_rect,15,0,15,0,1,
6422f34be2b8257efb345837,TCN,2024-06-11_10h10.12.859,LearnStrategy,2023.2.3,Win32,59.88023952,2,1,1,0.036111111,-0.011111111,1,0,0,1.6643,rock_grid_rect_2,8,14,-1,-1,1.664,0.440740741,-0.407407407,1,0,0,4.2061,Pumice_rect,8,4.206,1,0,0,0,0,1,,,,,,,,,,,,,
6422f34be2b8257efb345837,TCN,2024-06-11_10h10.12.859,LearnStrategy,2023.2.3,Win32,59.88023952,2,1,2,0.040740741,-0.013888889,1,0,0,1.2626,rock_grid_rect_2,6,13,-1,-1,1.263,-0.106481481,-0.411111111,1,0,0,10.4021,Pegmatite_rect,6,10.402,1,1,0,1,0,1,,,,,,,,,,,,,
6422f34be2b8257efb345837,TCN,2024-06-11_10h10.12.859,LearnStrategy,2023.2.3,Win32,59.88023952,2,1,3,0.042592593,0.021296296,1,0,0,1.2494,rock_grid_rect_2,4,16,-1,-1,1.249,0.403703704,-0.262037037,1,0,0,5.0486,Gabbro_rect,4,5.049,1,2,0,2,0,1,,,,,,,,,,,,,
6422f34be2b8257efb345837,TCN,2024-06-11_10h10.12.859,LearnStrategy,2023.2.3,Win32,59.88023952,2,1,4,0.009259259,-0.024074074,1,0,0,0.9659,rock_grid_rect_2,6,03,-1,-1,0.966,0.123148148,-0.418518519,1,0,0,4.6894,Peridotite_rect,7,4.689,0,3,0,3,0,1,,,,,,,,,,,,,
6422f34be2b8257efb345837,TCN,2024-06-11_10h10.12.859,LearnStrategy,2023.2.3,Win32,59.88023952,2,1,5,0.125925926,0.001851852,1,0,0,1.024,rock_grid_rect_2,7,05,-1,-1,1.024,0.387037037,-0.258333333,1,0,0,9.5666,Gabbro_rect,4,9.567,0,4,0,4,0,1,,,,,,,,,,,,,
6422f34be2b8257efb345837,TCN,2024-06-11_10h10.12.859,LearnStrategy,2023.2.3,Win32,59.88023952,2,1,6,0.040740741,-0.002777778,1,0,0,1.0632,rock_grid_rect_2,2,04,-1,-1,1.063,-0.097222222,-0.25462963,1,0,0,2.0639,Basalt_rect,2,2.064,1,5,0,5,0,1,,,,,,,,,,,,,
6422f34be2b8257efb345837,TCN,2024-06-11_10h10.12.859,LearnStrategy,2023.2.3,Win32,59.88023952,2,1,7,-0.017592593,0.005555556,1,0,0,0.7996,rock_grid_rect_2,8,09,-1,-1,0.8,0.427777778,-0.412037037,1,0,0,1.897,Pumice_rect,8,1.897,1,6,0,6,0,1,,,,,,,,,,,,,
6422f34be2b8257efb345837,TCN,2024-06-11_10h10.12.859,LearnStrategy,2023.2.3,Win32,59.88023952,2,1,8,0.034259259,-0.022222222,1,0,0,0.8477,rock_grid_rect_2,5,06,-1,-1,0.848,-0.363888889,-0.392592593,1,0,0,1.6994,Obsidian_rect,5,1.699,1,7,0,7,0,1,,,,,,,,,,,,,
6422f34be2b8257efb345837,TCN,2024-06-11_10h10.12.859,LearnStrategy,2023.2.3,Win32,59.88023952,2,1,9,0.061111111,-0.022222222,1,0,0,0.9963,rock_grid_rect_2,7,12,-1,-1,0.996,0.1,-0.405555556,1,0,0,11.2715,Peridotite_rect,7,11.272,1,8,0,8,0,1,,,,,,,,,,,,,
6422f34be2b8257efb345837,TCN,2024-06-11_10h10.12.859,LearnStrategy,2023.2.3,Win32,59.88023952,2,1,10,-0.015740741,-0.010185185,1,0,0,0.9969,rock_grid_rect_2,3,02,-1,-1,0.997,0.150925926,-0.249074074,1,0,0,6.6323,Diorite_rect,3,6.632,1,9,0,9,0,1,,,,,,,,,,,,,
6422f34be2b8257efb345837,TCN,2024-06-11_10h10.12.859,LearnStrategy,2023.2.3,Win32,59.88023952,2,1,11,0.056481481,0.000925926,1,0,0,0.8955,rock_grid_rect_2,1,06,-1,-1,0.895,0.125,-0.386111111,1,0,0,6.6498,Peridotite_rect,7,6.65,0,10,0,10,0,1,,,,,,,,,,,,,
6422f34be2b8257efb345837,TCN,2024-06-11_10h10.12.859,LearnStrategy,2023.2.3,Win32,59.88023952,2,1,12,0.017592593,0,1,0,0,11.0216,rock_grid_rect_2,2,08,-1,-1,11.022,-0.099074074,-0.251851852,1,0,0,2.1298,Basalt_rect,2,2.13,1,11,0,11,0,1,,,,,,,,,,,,,
6422f34be2b8257efb345837,TCN,2024-06-11_10h10.12.859,LearnStrategy,2023.2.3,Win32,59.88023952,2,1,13,-0.024074074,0.002777778,1,0,0,0.8153,rock_grid_rect_2,4,14,-1,-1,0.815,-0.352777778,-0.249074074,1,0,0,2.5522,Andesite_rect,1,2.552,0,12,0,12,0,1,,,,,,,,,,,,,
6422f34be2b8257efb345837,TCN,2024-06-11_10h10.12.859,LearnStrategy,2023.2.3,Win32,59.88023952,2,1,14,0.040740741,-0.017592593,1,0,0,1.0283,rock_grid_rect_2,3,06,-1,-1,1.028,-0.316666667,-0.25462963,1,0,0,12.639,Andesite_rect,1,12.639,0,13,0,13,0,1,,,,,,,,,,,,,
6422f34be2b8257efb345837,TCN,2024-06-11_10h10.12.859,LearnStrategy,2023.2.3,Win32,59.88023952,2,1,15,0.038888889,0,1,0,0,0.9247,rock_grid_rect_2,5,07,-1,-1,0.925,-0.42037037,-0.407407407,1,0,0,1.753,Obsidian_rect,5,1.753,1,14,0,14,0,1,,,,,,,,,,,,,
6422f34be2b8257efb345837,TCN,2024-06-11_10h10.12.859,LearnStrategy,2023.2.3,Win32,59.88023952,2,1,16,0.069444444,0.003703704,1,0,0,1.0999,rock_grid_rect_2,1,11,-1,-1,1.1,0.090740741,-0.393518519,1,0,0,11.0356,Peridotite_rect,7,11.036,0,15,0,15,0,1,,,,,,,,,,,,,
6422f34be2b8257efb345837,TCN,2024-06-11_10h10.12.859,LearnStrategy,2023.2.3,Win32,59.88023952,2,2,1,,,,,,,,7,02,,,,,,,,,,,7,5.749,1,,,,,,0.12037037,-0.410185185,1,0,0,5.749,Peridotite_rect,0,0,0,0,1,
6422f34be2b8257efb345837,TCN,2024-06-11_10h10.12.859,LearnStrategy,2023.2.3,Win32,59.88023952,2,2,2,,,,,,,,1,10,,,,,,,,,,,1,12.939,1,,,,,,-0.352777778,-0.258333333,1,0,0,12.9391,Andesite_rect,1,0,1,0,1,
6422f34be2b8257efb345837,TCN,2024-06-11_10h10.12.859,LearnStrategy,2023.2.3,Win32,59.88023952,2,2,3,,,,,,,,4,09,,,,,,,,,,,2,7.602,0,,,,,,-0.128703704,-0.25462963,1,0,0,7.6017,Basalt_rect,2,0,2,0,1,
6422f34be2b8257efb345837,TCN,2024-06-11_10h10.12.859,LearnStrategy,2023.2.3,Win32,59.88023952,2,2,4,,,,,,,,2,01,,,,,,,,,,,2,4.23,1,,,,,,-0.127777778,-0.249074074,1,0,0,4.23,Basalt_rect,3,0,3,0,1,
6422f34be2b8257efb345837,TCN,2024-06-11_10h10.12.859,LearnStrategy,2023.2.3,Win32,59.88023952,2,2,5,,,,,,,,3,11,,,,,,,,,,,3,22.482,1,,,,,,0.090740741,-0.262037037,1,0,0,22.4825,Diorite_rect,4,0,4,0,1,
6422f34be2b8257efb345837,TCN,2024-06-11_10h10.12.859,LearnStrategy,2023.2.3,Win32,59.88023952,2,2,6,,,,,,,,5,09,,,,,,,,,,,5,1.236,1,,,,,,-0.366666667,-0.4,1,0,0,1.2358,Obsidian_rect,5,0,5,0,1,
6422f34be2b8257efb345837,TCN,2024-06-11_10h10.12.859,LearnStrategy,2023.2.3,Win32,59.88023952,2,2,7,,,,,,,,5,12,,,,,,,,,,,5,1.037,1,,,,,,-0.433333333,-0.4,1,0,0,1.0367,Obsidian_rect,6,0,6,0,1,
6422f34be2b8257efb345837,TCN,2024-06-11_10h10.12.859,LearnStrategy,2023.2.3,Win32,59.88023952,2,2,8,,,,,,,,8,02,,,,,,,,,,,8,1.379,1,,,,,,0.387962963,-0.39537037,1,0,0,1.379,Pumice_rect,7,0,7,0,1,
6422f34be2b8257efb345837,TCN,2024-06-11_10h10.12.859,LearnStrategy,2023.2.3,Win32,59.88023952,2,2,9,,,,,,,,8,08,,,,,,,,,,,8,2.669,1,,,,,,0.37037037,-0.405555556,1,0,0,2.669,Pumice_rect,8,0,8,0,1,
6422f34be2b8257efb345837,TCN,2024-06-11_10h10.12.859,LearnStrategy,2023.2.3,Win32,59.88023952,2,2,10,,,,,,,,1,05,,,,,,,,,,,1,21.65,1,,,,,,-0.435185185,-0.252777778,1,0,0,21.6504,Andesite_rect,9,0,9,0,1,
6422f34be2b8257efb345837,TCN,2024-06-11_10h10.12.859,LearnStrategy,2023.2.3,Win32,59.88023952,2,2,11,,,,,,,,6,12,,,,,,,,,,,1,2.125,0,,,,,,-0.401851852,-0.235185185,1,0,0,2.1246,Andesite_rect,10,0,10,0,1,
6422f34be2b8257efb345837,TCN,2024-06-11_10h10.12.859,LearnStrategy,2023.2.3,Win32,59.88023952,2,2,12,,,,,,,,4,15,,,,,,,,,,,1,4.214,0,,,,,,-0.357407407,-0.236111111,1,0,0,4.2138,Andesite_rect,11,0,11,0,1,
6422f34be2b8257efb345837,TCN,2024-06-11_10h10.12.859,LearnStrategy,2023.2.3,Win32,59.88023952,2,2,13,,,,,,,,7,14,,,,,,,,,,,4,7.786,0,,,,,,0.385185185,-0.251851852,1,0,0,7.7857,Gabbro_rect,12,0,12,0,1,
6422f34be2b8257efb345837,TCN,2024-06-11_10h10.12.859,LearnStrategy,2023.2.3,Win32,59.88023952,2,2,14,,,,,,,,2,14,,,,,,,,,,,6,6.66,0,,,,,,-0.091666667,-0.389814815,1,0,0,6.6597,Pegmatite_rect,13,0,13,0,1,
6422f34be2b8257efb345837,TCN,2024-06-11_10h10.12.859,LearnStrategy,2023.2.3,Win32,59.88023952,2,2,15,,,,,,,,3,16,,,,,,,,,,,4,24.601,0,,,,,,0.382407407,-0.25,1,0,0,24.601,Gabbro_rect,14,0,14,0,1,
6422f34be2b8257efb345837,TCN,2024-06-11_10h10.12.859,LearnStrategy,2023.2.3,Win32,59.88023952,2,2,16,,,,,,,,6,16,,,,,,,,,,,7,7.402,0,,,,,,0.122222222,-0.392592593,1,0,0,7.4021,Peridotite_rect,15,0,15,0,1,
6422f34be2b8257efb345837,TCN,2024-06-11_10h10.12.859,LearnStrategy,2023.2.3,Win32,59.88023952,3,1,1,0.022222222,0.008333333,1,0,0,1.0831,rock_grid_rect_2,4,13,-1,-1,1.083,-0.397222222,-0.239814815,1,0,0,8.3274,Andesite_rect,1,8.327,0,0,0,0,0,1,,,,,,,,,,,,,
6422f34be2b8257efb345837,TCN,2024-06-11_10h10.12.859,LearnStrategy,2023.2.3,Win32,59.88023952,3,1,2,0.02962963,0.006481481,1,0,0,1.459,rock_grid_rect_2,6,09,-1,-1,1.459,0.105555556,-0.387037037,1,0,0,1.8285,Peridotite_rect,7,1.829,0,1,0,1,0,1,,,,,,,,,,,,,
6422f34be2b8257efb345837,TCN,2024-06-11_10h10.12.859,LearnStrategy,2023.2.3,Win32,59.88023952,3,1,3,-0.038888889,-0.003703704,1,0,0,0.9069,rock_grid_rect_2,4,12,-1,-1,0.907,-0.375925926,-0.267592593,1,0,0,12.5384,Andesite_rect,1,12.538,0,2,0,2,0,1,,,,,,,,,,,,,
6422f34be2b8257efb345837,TCN,2024-06-11_10h10.12.859,LearnStrategy,2023.2.3,Win32,59.88023952,3,1,4,0.032407407,-0.010185185,1,0,0,1.0291,rock_grid_rect_2,7,16,-1,-1,1.029,0.162962963,-0.412037037,1,0,0,2.3809,Peridotite_rect,7,2.381,1,3,0,3,0,1,,,,,,,,,,,,,
6422f34be2b8257efb345837,TCN,2024-06-11_10h10.12.859,LearnStrategy,2023.2.3,Win32,59.88023952,3,1,5,0.008333333,-0.016666667,1,0,0,0.9799,rock_grid_rect_2,2,10,-1,-1,0.98,-0.146296296,-0.258333333,1,0,0,3.1484,Basalt_rect,2,3.148,1,4,0,4,0,1,,,,,,,,,,,,,
6422f34be2b8257efb345837,TCN,2024-06-11_10h10.12.859,LearnStrategy,2023.2.3,Win32,59.88023952,3,1,6,0.024074074,0.00462963,1,0,0,1.1452,rock_grid_rect_2,8,05,-1,-1,1.145,0.403703704,-0.405555556,1,0,0,1.5605,Pumice_rect,8,1.561,1,5,0,5,0,1,,,,,,,,,,,,,
6422f34be2b8257efb345837,TCN,2024-06-11_10h10.12.859,LearnStrategy,2023.2.3,Win32,59.88023952,3,1,7,-0.066666667,0.000925926,1,0,0,0.9636,rock_grid_rect_2,6,08,-1,-1,0.964,-0.137037037,-0.387962963,1,0,0,21.2783,Pegmatite_rect,6,21.278,1,6,0,6,0,1,,,,,,,,,,,,,
6422f34be2b8257efb345837,TCN,2024-06-11_10h10.12.859,LearnStrategy,2023.2.3,Win32,59.88023952,3,1,8,-0.008333333,-0.001851852,1,0,0,1.2296,rock_grid_rect_2,2,11,-1,-1,1.23,-0.117592593,-0.237962963,1,0,0,9.135,Basalt_rect,2,9.135,1,7,0,7,0,1,,,,,,,,,,,,,
6422f34be2b8257efb345837,TCN,2024-06-11_10h10.12.859,LearnStrategy,2023.2.3,Win32,59.88023952,3,1,9,0.025,-0.015740741,1,0,0,1.4832,rock_grid_rect_2,5,08,-1,-1,1.483,-0.424074074,-0.401851852,1,0,0,1.1099,Obsidian_rect,5,1.11,1,8,0,8,0,1,,,,,,,,,,,,,
6422f34be2b8257efb345837,TCN,2024-06-11_10h10.12.859,LearnStrategy,2023.2.3,Win32,59.88023952,3,1,10,0.001851852,0.014814815,1,0,0,1.0669,rock_grid_rect_2,7,07,-1,-1,1.067,0.130555556,-0.415740741,1,0,0,2.4356,Peridotite_rect,7,2.436,1,9,0,9,0,1,,,,,,,,,,,,,
6422f34be2b8257efb345837,TCN,2024-06-11_10h10.12.859,LearnStrategy,2023.2.3,Win32,59.88023952,3,1,11,0.021296296,0.009259259,1,0,0,1.0809,rock_grid_rect_2,1,02,-1,-1,1.081,-0.42037037,-0.259259259,1,0,0,6.126,Andesite_rect,1,6.126,1,10,0,10,0,1,,,,,,,,,,,,,
6422f34be2b8257efb345837,TCN,2024-06-11_10h10.12.859,LearnStrategy,2023.2.3,Win32,59.88023952,3,1,12,-0.032407407,-0.008333333,1,0,0,1.1157,rock_grid_rect_2,8,13,-1,-1,1.116,0.45,-0.391666667,1,0,0,3.5153,Pumice_rect,8,3.515,1,11,0,11,0,1,,,,,,,,,,,,,
6422f34be2b8257efb345837,TCN,2024-06-11_10h10.12.859,LearnStrategy,2023.2.3,Win32,59.88023952,3,1,13,-0.037962963,0.012962963,1,0,0,0.9286,rock_grid_rect_2,3,07,-1,-1,0.929,-0.426851852,-0.248148148,1,0,0,10.3555,Andesite_rect,1,10.355,0,12,0,12,0,1,,,,,,,,,,,,,
6422f34be2b8257efb345837,TCN,2024-06-11_10h10.12.859,LearnStrategy,2023.2.3,Win32,59.88023952,3,1,14,0.001851852,-0.013888889,1,0,0,1.0778,rock_grid_rect_2,3,10,-1,-1,1.078,0.144444444,-0.232407407,1,0,0,12.0205,Diorite_rect,3,12.021,1,13,0,13,0,1,,,,,,,,,,,,,
6422f34be2b8257efb345837,TCN,2024-06-11_10h10.12.859,LearnStrategy,2023.2.3,Win32,59.88023952,3,1,15,0.057407407,0.006481481,1,0,0,1.0616,rock_grid_rect_2,5,16,-1,-1,1.062,-0.439814815,-0.400925926,1,0,0,1.1506,Obsidian_rect,5,1.151,1,14,0,14,0,1,,,,,,,,,,,,,
6422f34be2b8257efb345837,TCN,2024-06-11_10h10.12.859,LearnStrategy,2023.2.3,Win32,59.88023952,3,1,16,-0.009259259,-0.000925926,1,0,0,0.8658,rock_grid_rect_2,1,01,-1,-1,0.866,0.131481481,-0.242592593,1,0,0,4.5082,Diorite_rect,3,4.508,0,15,0,15,0,1,,,,,,,,,,,,,
6422f34be2b8257efb345837,TCN,2024-06-11_10h10.12.859,LearnStrategy,2023.2.3,Win32,59.88023952,3,2,1,,,,,,,,2,12,,,,,,,,,,,1,13.808,0,,,,,,-0.443518519,-0.246296296,1,0,0,13.8077,Andesite_rect,0,0,0,0,1,
6422f34be2b8257efb345837,TCN,2024-06-11_10h10.12.859,LearnStrategy,2023.2.3,Win32,59.88023952,3,2,2,,,,,,,,1,09,,,,,,,,,,,3,57.559,0,,,,,,0.149074074,-0.267592593,1,0,0,57.5587,Diorite_rect,1,0,1,0,1,
6422f34be2b8257efb345837,TCN,2024-06-11_10h10.12.859,LearnStrategy,2023.2.3,Win32,59.88023952,3,2,3,,,,,,,,6,06,,,,,,,,,,,6,4.764,1,,,,,,-0.1,-0.393518519,1,0,0,4.7638,Pegmatite_rect,2,0,2,0,1,
6422f34be2b8257efb345837,TCN,2024-06-11_10h10.12.859,LearnStrategy,2023.2.3,Win32,59.88023952,3,2,4,,,,,,,,6,15,,,,,,,,,,,6,2.708,1,,,,,,-0.123148148,-0.387037037,1,0,0,2.708,Pegmatite_rect,3,0,3,0,1,
6422f34be2b8257efb345837,TCN,2024-06-11_10h10.12.859,LearnStrategy,2023.2.3,Win32,59.88023952,3,2,5,,,,,,,,5,14,,,,,,,,,,,5,1.113,1,,,,,,-0.476851852,-0.40462963,1,0,0,1.1129,Obsidian_rect,4,0,4,0,1,
6422f34be2b8257efb345837,TCN,2024-06-11_10h10.12.859,LearnStrategy,2023.2.3,Win32,59.88023952,3,2,6,,,,,,,,1,07,,,,,,,,,,,1,5.034,1,,,,,,-0.413888889,-0.237962963,1,0,0,5.0344,Andesite_rect,5,0,5,0,1,
6422f34be2b8257efb345837,TCN,2024-06-11_10h10.12.859,LearnStrategy,2023.2.3,Win32,59.88023952,3,2,7,,,,,,,,2,06,,,,,,,,,,,2,1.493,1,,,,,,-0.178703704,-0.231481481,1,0,0,1.4929,Basalt_rect,6,0,6,0,1,
6422f34be2b8257efb345837,TCN,2024-06-11_10h10.12.859,LearnStrategy,2023.2.3,Win32,59.88023952,3,2,8,,,,,,,,8,04,,,,,,,,,,,8,1.026,1,,,,,,0.383333333,-0.413888889,1,0,0,1.0261,Pumice_rect,7,0,7,0,1,
6422f34be2b8257efb345837,TCN,2024-06-11_10h10.12.859,LearnStrategy,2023.2.3,Win32,59.88023952,3,2,9,,,,,,,,7,08,,,,,,,,,,,7,6.068,1,,,,,,0.164814815,-0.393518519,1,0,0,6.0679,Peridotite_rect,8,0,8,0,1,
6422f34be2b8257efb345837,TCN,2024-06-11_10h10.12.859,LearnStrategy,2023.2.3,Win32,59.88023952,3,2,10,,,,,,,,5,05,,,,,,,,,,,5,3.58,1,,,,,,-0.372222222,-0.397222222,1,0,0,3.5802,Obsidian_rect,9,0,9,0,1,
6422f34be2b8257efb345837,TCN,2024-06-11_10h10.12.859,LearnStrategy,2023.2.3,Win32,59.88023952,3,2,11,,,,,,,,4,01,,,,,,,,,,,2,2.527,0,,,,,,-0.122222222,-0.252777778,1,0,0,2.5267,Basalt_rect,10,0,10,0,1,
6422f34be2b8257efb345837,TCN,2024-06-11_10h10.12.859,LearnStrategy,2023.2.3,Win32,59.88023952,3,2,12,,,,,,,,8,15,,,,,,,,,,,8,1.167,1,,,,,,0.368518519,-0.409259259,1,0,0,1.1673,Pumice_rect,11,0,11,0,1,
6422f34be2b8257efb345837,TCN,2024-06-11_10h10.12.859,LearnStrategy,2023.2.3,Win32,59.88023952,3,2,13,,,,,,,,4,10,,,,,,,,,,,4,3.265,1,,,,,,0.380555556,-0.263888889,1,0,0,3.2654,Gabbro_rect,12,0,12,0,1,
6422f34be2b8257efb345837,TCN,2024-06-11_10h10.12.859,LearnStrategy,2023.2.3,Win32,59.88023952,3,2,14,,,,,,,,3,14,,,,,,,,,,,1,22.344,0,,,,,,-0.373148148,-0.236111111,1,0,0,22.3437,Andesite_rect,13,0,13,0,1,
6422f34be2b8257efb345837,TCN,2024-06-11_10h10.12.859,LearnStrategy,2023.2.3,Win32,59.88023952,3,2,15,,,,,,,,7,10,,,,,,,,,,,7,2.663,1,,,,,,0.166666667,-0.398148148,1,0,0,2.6626,Peridotite_rect,14,0,14,0,1,
6422f34be2b8257efb345837,TCN,2024-06-11_10h10.12.859,LearnStrategy,2023.2.3,Win32,59.88023952,3,2,16,,,,,,,,3,13,,,,,,,,,,,6,2.714,0,,,,,,-0.117592593,-0.412037037,1,0,0,2.7143,Pegmatite_rect,15,0,15,0,1,
6422f34be2b8257efb345837,TCN,2024-06-11_10h10.12.859,LearnStrategy,2023.2.3,Win32,59.88023952,4,1,1,0.130555556,-0.002777778,1,0,0,1.1513,rock_grid_rect_2,8,10,-1,-1,1.151,-0.339814815,-0.260185185,1,0,0,7.241,Andesite_rect,1,7.241,0,0,0,0,0,1,,,,,,,,,,,,,
6422f34be2b8257efb345837,TCN,2024-06-11_10h10.12.859,LearnStrategy,2023.2.3,Win32,59.88023952,4,1,2,0.025,-0.003703704,1,0,0,1.0797,rock_grid_rect_2,1,04,-1,-1,1.08,0.411111111,-0.265740741,1,0,0,5.0793,Gabbro_rect,4,5.079,0,1,0,1,0,1,,,,,,,,,,,,,
6422f34be2b8257efb345837,TCN,2024-06-11_10h10.12.859,LearnStrategy,2023.2.3,Win32,59.88023952,4,1,3,0.072222222,-0.000925926,1,0,0,1.0483,rock_grid_rect_2,6,03,-1,-1,1.048,0.100925926,-0.399074074,1,0,0,1.5385,Peridotite_rect,7,1.538,0,2,0,2,0,1,,,,,,,,,,,,,
6422f34be2b8257efb345837,TCN,2024-06-11_10h10.12.859,LearnStrategy,2023.2.3,Win32,59.88023952,4,1,4,0.073148148,-0.009259259,1,0,0,0.9168,rock_grid_rect_2,4,16,-1,-1,0.917,0.449074074,-0.263888889,1,0,0,3.1102,Gabbro_rect,4,3.11,1,3,0,3,0,1,,,,,,,,,,,,,
6422f34be2b8257efb345837,TCN,2024-06-11_10h10.12.859,LearnStrategy,2023.2.3,Win32,59.88023952,4,1,5,0.106481481,0.003703704,1,0,0,1.0491,rock_grid_rect_2,7,04,-1,-1,1.049,0.150925926,-0.412037037,1,0,0,12.9897,Peridotite_rect,7,12.99,1,4,0,4,0,1,,,,,,,,,,,,,
6422f34be2b8257efb345837,TCN,2024-06-11_10h10.12.859,LearnStrategy,2023.2.3,Win32,59.88023952,4,1,6,0.025925926,0.003703704,1,0,0,0.7923,rock_grid_rect_2,5,06,-1,-1,0.792,-0.393518519,-0.394444444,1,0,0,1.0837,Obsidian_rect,5,1.084,1,5,0,5,0,1,,,,,,,,,,,,,
6422f34be2b8257efb345837,TCN,2024-06-11_10h10.12.859,LearnStrategy,2023.2.3,Win32,59.88023952,4,1,7,0,0.010185185,1,0,0,0.7985,rock_grid_rect_2,6,08,-1,-1,0.799,-0.147222222,-0.409259259,1,0,0,4.5148,Pegmatite_rect,6,4.515,1,6,0,6,0,1,,,,,,,,,,,,,
6422f34be2b8257efb345837,TCN,2024-06-11_10h10.12.859,LearnStrategy,2023.2.3,Win32,59.88023952,4,1,8,-0.003703704,-0.006481481,1,0,0,0.8322,rock_grid_rect_2,4,14,-1,-1,0.832,-0.127777778,-0.247222222,1,0,0,7.8614,Basalt_rect,2,7.861,0,7,0,7,0,1,,,,,,,,,,,,,
6422f34be2b8257efb345837,TCN,2024-06-11_10h10.12.859,LearnStrategy,2023.2.3,Win32,59.88023952,4,1,9,-0.028703704,-0.012037037,1,0,0,0.8622,rock_grid_rect_2,3,06,-1,-1,0.862,0.121296296,-0.234259259,1,0,0,7.0258,Diorite_rect,3,7.026,1,8,0,8,0,1,,,,,,,,,,,,,
6422f34be2b8257efb345837,TCN,2024-06-11_10h10.12.859,LearnStrategy,2023.2.3,Win32,59.88023952,4,1,10,0.022222222,0.014814815,1,0,0,1.3122,rock_grid_rect_2,5,16,-1,-1,1.312,-0.406481481,-0.4,1,0,0,1.0439,Obsidian_rect,5,1.044,1,9,0,9,0,1,,,,,,,,,,,,,
6422f34be2b8257efb345837,TCN,2024-06-11_10h10.12.859,LearnStrategy,2023.2.3,Win32,59.88023952,4,1,11,0.019444444,0.022222222,1,0,0,0.8666,rock_grid_rect_2,1,01,-1,-1,0.867,0.140740741,-0.260185185,1,0,0,3.8219,Diorite_rect,3,3.822,0,10,0,10,0,1,,,,,,,,,,,,,
6422f34be2b8257efb345837,TCN,2024-06-11_10h10.12.859,LearnStrategy,2023.2.3,Win32,59.88023952,4,1,12,-0.030555556,-0.001851852,1,0,0,0.9632,rock_grid_rect_2,2,11,-1,-1,0.963,-0.081481481,-0.22962963,1,0,0,2.3781,Basalt_rect,2,2.378,1,11,0,11,0,1,,,,,,,,,,,,,
6422f34be2b8257efb345837,TCN,2024-06-11_10h10.12.859,LearnStrategy,2023.2.3,Win32,59.88023952,4,1,13,-0.041666667,0.013888889,1,0,0,0.7329,rock_grid_rect_2,7,05,-1,-1,0.733,0.149074074,-0.383333333,1,0,0,1.3452,Peridotite_rect,7,1.345,1,12,0,12,0,1,,,,,,,,,,,,,
6422f34be2b8257efb345837,TCN,2024-06-11_10h10.12.859,LearnStrategy,2023.2.3,Win32,59.88023952,4,1,14,0.068518519,0.007407407,1,0,0,0.7815,rock_grid_rect_2,2,10,-1,-1,0.782,-0.1,-0.237962963,1,0,0,1.9951,Basalt_rect,2,1.995,1,13,0,13,0,1,,,,,,,,,,,,,
6422f34be2b8257efb345837,TCN,2024-06-11_10h10.12.859,LearnStrategy,2023.2.3,Win32,59.88023952,4,1,15,-0.007407407,-0.011111111,1,0,0,0.7976,rock_grid_rect_2,3,10,-1,-1,0.798,-0.425,-0.252777778,1,0,0,2.1806,Andesite_rect,1,2.181,0,14,0,14,0,1,,,,,,,,,,,,,
6422f34be2b8257efb345837,TCN,2024-06-11_10h10.12.859,LearnStrategy,2023.2.3,Win32,59.88023952,4,1,16,-0.053703704,-0.016666667,1,0,0,1.0161,rock_grid_rect_2,8,06,-1,-1,1.016,0.42962963,-0.409259259,1,0,0,1.2623,Pumice_rect,8,1.262,1,15,0,15,0,1,,,,,,,,,,,,,
6422f34be2b8257efb345837,TCN,2024-06-11_10h10.12.859,LearnStrategy,2023.2.3,Win32,59.88023952,4,2,1,,,,,,,,5,14,,,,,,,,,,,5,1.136,1,,,,,,-0.374074074,-0.406481481,1,0,0,1.1363,Obsidian_rect,0,0,0,0,1,
6422f34be2b8257efb345837,TCN,2024-06-11_10h10.12.859,LearnStrategy,2023.2.3,Win32,59.88023952,4,2,2,,,,,,,,2,06,,,,,,,,,,,2,3.365,1,,,,,,-0.137037037,-0.246296296,1,0,0,3.3654,Basalt_rect,1,0,1,0,1,
6422f34be2b8257efb345837,TCN,2024-06-11_10h10.12.859,LearnStrategy,2023.2.3,Win32,59.88023952,4,2,3,,,,,,,,7,13,,,,,,,,,,,7,1.141,1,,,,,,0.185185185,-0.416666667,1,0,0,1.1408,Peridotite_rect,2,0,2,0,1,
6422f34be2b8257efb345837,TCN,2024-06-11_10h10.12.859,LearnStrategy,2023.2.3,Win32,59.88023952,4,2,4,,,,,,,,5,10,,,,,,,,,,,5,1.396,1,,,,,,-0.425925926,-0.403703704,1,0,0,1.3955,Obsidian_rect,3,0,3,0,1,
6422f34be2b8257efb345837,TCN,2024-06-11_10h10.12.859,LearnStrategy,2023.2.3,Win32,59.88023952,4,2,5,,,,,,,,1,10,,,,,,,,,,,1,5.895,1,,,,,,-0.384259259,-0.257407407,1,0,0,5.8953,Andesite_rect,4,0,4,0,1,
6422f34be2b8257efb345837,TCN,2024-06-11_10h10.12.859,LearnStrategy,2023.2.3,Win32,59.88023952,4,2,6,,,,,,,,4,03,,,,,,,,,,,1,1.47,0,,,,,,-0.372222222,-0.243518519,1,0,0,1.4701,Andesite_rect,5,0,5,0,1,
6422f34be2b8257efb345837,TCN,2024-06-11_10h10.12.859,LearnStrategy,2023.2.3,Win32,59.88023952,4,2,7,,,,,,,,6,16,,,,,,,,,,,6,6.741,1,,,,,,-0.206481481,-0.405555556,1,0,0,6.7411,Pegmatite_rect,6,0,6,0,1,
6422f34be2b8257efb345837,TCN,2024-06-11_10h10.12.859,LearnStrategy,2023.2.3,Win32,59.88023952,4,2,8,,,,,,,,7,06,,,,,,,,,,,7,5.843,1,,,,,,0.122222222,-0.394444444,1,0,0,5.8435,Peridotite_rect,7,0,7,0,1,
6422f34be2b8257efb345837,TCN,2024-06-11_10h10.12.859,LearnStrategy,2023.2.3,Win32,59.88023952,4,2,9,,,,,,,,1,05,,,,,,,,,,,1,23.132,1,,,,,,-0.369444444,-0.239814815,1,0,0,23.132,Andesite_rect,8,0,8,0,1,
6422f34be2b8257efb345837,TCN,2024-06-11_10h10.12.859,LearnStrategy,2023.2.3,Win32,59.88023952,4,2,10,,,,,,,,6,06,,,,,,,,,,,6,3.627,1,,,,,,-0.117592593,-0.400925926,1,0,0,3.6271,Pegmatite_rect,9,0,9,0,1,
6422f34be2b8257efb345837,TCN,2024-06-11_10h10.12.859,LearnStrategy,2023.2.3,Win32,59.88023952,4,2,11,,,,,,,,2,02,,,,,,,,,,,2,1.87,1,,,,,,-0.125925926,-0.251851852,1,0,0,1.8703,Basalt_rect,10,0,10,0,1,
6422f34be2b8257efb345837,TCN,2024-06-11_10h10.12.859,LearnStrategy,2023.2.3,Win32,59.88023952,4,2,12,,,,,,,,4,15,,,,,,,,,,,1,2.569,0,,,,,,-0.387962963,-0.247222222,1,0,0,2.5692,Andesite_rect,11,0,11,0,1,
6422f34be2b8257efb345837,TCN,2024-06-11_10h10.12.859,LearnStrategy,2023.2.3,Win32,59.88023952,4,2,13,,,,,,,,3,16,,,,,,,,,,,1,1.028,0,,,,,,-0.364814815,-0.251851852,1,0,0,1.0279,Andesite_rect,12,0,12,0,1,
6422f34be2b8257efb345837,TCN,2024-06-11_10h10.12.859,LearnStrategy,2023.2.3,Win32,59.88023952,4,2,14,,,,,,,,3,13,,,,,,,,,,,1,0.97,0,,,,,,-0.37037037,-0.238888889,1,0,0,0.9699,Andesite_rect,13,0,13,0,1,
6422f34be2b8257efb345837,TCN,2024-06-11_10h10.12.859,LearnStrategy,2023.2.3,Win32,59.88023952,4,2,15,,,,,,,,8,02,,,,,,,,,,,8,1.246,1,,,,,,0.398148148,-0.381481481,1,0,0,1.2462,Pumice_rect,14,0,14,0,1,
6422f34be2b8257efb345837,TCN,2024-06-11_10h10.12.859,LearnStrategy,2023.2.3,Win32,59.88023952,4,2,16,,,,,,,,8,03,,,,,,,,,,,8,1.956,1,,,,,,0.359259259,-0.408333333,1,0,0,1.9555,Pumice_rect,15,0,15,0,1,
6422f34be2b8257efb345837,TCN,2024-06-11_10h10.12.859,LearnStrategy,2023.2.3,Win32,59.88023952,5,1,1,0.017592593,-0.00462963,1,0,0,1.1724,rock_grid_rect_2,6,13,-1,-1,1.172,-0.099074074,-0.406481481,1,0,0,6.2638,Pegmatite_rect,6,6.264,1,0,0,0,0,1,,,,,,,,,,,,,
6422f34be2b8257efb345837,TCN,2024-06-11_10h10.12.859,LearnStrategy,2023.2.3,Win32,59.88023952,5,1,2,0.043518519,-0.014814815,1,0,0,1.0951,rock_grid_rect_2,3,07,-1,-1,1.095,0.142592593,-0.411111111,1,0,0,7.7875,Peridotite_rect,7,7.788,0,1,0,1,0,1,,,,,,,,,,,,,
6422f34be2b8257efb345837,TCN,2024-06-11_10h10.12.859,LearnStrategy,2023.2.3,Win32,59.88023952,5,1,3,0.055555556,-0.002777778,1,0,0,1.2101,rock_grid_rect_2,8,09,-1,-1,1.21,0.437037037,-0.417592593,1,0,0,1.1445,Pumice_rect,8,1.145,1,2,0,2,0,1,,,,,,,,,,,,,
6422f34be2b8257efb345837,TCN,2024-06-11_10h10.12.859,LearnStrategy,2023.2.3,Win32,59.88023952,5,1,4,0.022222222,0.006481481,1,0,0,0.949,rock_grid_rect_2,1,14,-1,-1,0.949,-0.356481481,-0.234259259,1,0,0,6.5646,Andesite_rect,1,6.565,1,3,0,3,0,1,,,,,,,,,,,,,
6422f34be2b8257efb345837,TCN,2024-06-11_10h10.12.859,LearnStrategy,2023.2.3,Win32,59.88023952,5,1,5,0.00462963,0.000925926,1,0,0,1.0322,rock_grid_rect_2,3,02,-1,-1,1.032,0.158333333,-0.405555556,1,0,0,9.3,Peridotite_rect,7,9.3,0,4,0,4,0,1,,,,,,,,,,,,,
6422f34be2b8257efb345837,TCN,2024-06-11_10h10.12.859,LearnStrategy,2023.2.3,Win32,59.88023952,5,1,6,0.024074074,0.010185185,1,0,0,0.8806,rock_grid_rect_2,5,07,-1,-1,0.881,-0.380555556,-0.392592593,1,0,0,1.1512,Obsidian_rect,5,1.151,1,5,0,5,0,1,,,,,,,,,,,,,
6422f34be2b8257efb345837,TCN,2024-06-11_10h10.12.859,LearnStrategy,2023.2.3,Win32,59.88023952,5,1,7,-0.046296296,0.010185185,1,0,0,0.8806,rock_grid_rect_2,7,15,-1,-1,0.881,0.112962963,-0.391666667,1,0,0,1.6641,Peridotite_rect,7,1.664,1,6,0,6,0,1,,,,,,,,,,,,,
6422f34be2b8257efb345837,TCN,2024-06-11_10h10.12.859,LearnStrategy,2023.2.3,Win32,59.88023952,5,1,8,0.037962963,0.023148148,1,0,0,0.8334,rock_grid_rect_2,2,09,-1,-1,0.833,-0.128703704,-0.243518519,1,0,0,1.1512,Basalt_rect,2,1.151,1,7,0,7,0,1,,,,,,,,,,,,,
6422f34be2b8257efb345837,TCN,2024-06-11_10h10.12.859,LearnStrategy,2023.2.3,Win32,59.88023952,5,1,9,-0.037962963,-0.011111111,1,0,0,0.6761,rock_grid_rect_2,4,12,-1,-1,0.676,-0.112962963,-0.237037037,1,0,0,1.0167,Basalt_rect,2,1.017,0,8,0,8,0,1,,,,,,,,,,,,,
6422f34be2b8257efb345837,TCN,2024-06-11_10h10.12.859,LearnStrategy,2023.2.3,Win32,59.88023952,5,1,10,0.006481481,0.021296296,1,0,0,0.9144,rock_grid_rect_2,7,07,-1,-1,0.914,0.123148148,-0.381481481,1,0,0,2.1811,Peridotite_rect,7,2.181,1,9,0,9,0,1,,,,,,,,,,,,,
6422f34be2b8257efb345837,TCN,2024-06-11_10h10.12.859,LearnStrategy,2023.2.3,Win32,59.88023952,5,1,11,0.028703704,0.005555556,1,0,0,0.8307,rock_grid_rect_2,2,16,-1,-1,0.831,-0.122222222,-0.256481481,1,0,0,7.531,Basalt_rect,2,7.531,1,10,0,10,0,1,,,,,,,,,,,,,
6422f34be2b8257efb345837,TCN,2024-06-11_10h10.12.859,LearnStrategy,2023.2.3,Win32,59.88023952,5,1,12,0.044444444,-0.012037037,1,0,0,1.2494,rock_grid_rect_2,8,13,-1,-1,1.249,0.373148148,-0.4,1,0,0,1.5467,Pumice_rect,8,1.547,1,11,0,11,0,1,,,,,,,,,,,,,
6422f34be2b8257efb345837,TCN,2024-06-11_10h10.12.859,LearnStrategy,2023.2.3,Win32,59.88023952,5,1,13,-0.041666667,-0.00462963,1,0,0,0.8326,rock_grid_rect_2,1,02,-1,-1,0.833,-0.407407407,-0.268518519,1,0,0,4.6763,Andesite_rect,1,4.676,1,12,0,12,0,1,,,,,,,,,,,,,
6422f34be2b8257efb345837,TCN,2024-06-11_10h10.12.859,LearnStrategy,2023.2.3,Win32,59.88023952,5,1,14,0.067592593,-0.003703704,1,0,0,0.7793,rock_grid_rect_2,5,04,-1,-1,0.779,-0.433333333,-0.397222222,1,0,0,1.0078,Obsidian_rect,5,1.008,1,13,0,13,0,1,,,,,,,,,,,,,
6422f34be2b8257efb345837,TCN,2024-06-11_10h10.12.859,LearnStrategy,2023.2.3,Win32,59.88023952,5,1,15,-0.040740741,-0.011111111,1,0,0,1.0816,rock_grid_rect_2,6,07,-1,-1,1.082,0.396296296,-0.252777778,1,0,0,4.6095,Gabbro_rect,4,4.61,0,14,0,14,0,1,,,,,,,,,,,,,
6422f34be2b8257efb345837,TCN,2024-06-11_10h10.12.859,LearnStrategy,2023.2.3,Win32,59.88023952,5,1,16,0.086111111,-0.024074074,1,0,0,0.8298,rock_grid_rect_2,4,08,-1,-1,0.83,0.409259259,-0.250925926,1,0,0,20.8484,Gabbro_rect,4,20.848,1,15,0,15,0,1,,,,,,,,,,,,,
6422f34be2b8257efb345837,TCN,2024-06-11_10h10.12.859,LearnStrategy,2023.2.3,Win32,59.88023952,5,2,1,,,,,,,,4,09,,,,,,,,,,,4,4.933,1,,,,,,0.442592593,-0.25462963,1,0,0,4.933,Gabbro_rect,0,0,0,0,1,
6422f34be2b8257efb345837,TCN,2024-06-11_10h10.12.859,LearnStrategy,2023.2.3,Win32,59.88023952,5,2,2,,,,,,,,7,08,,,,,,,,,,,7,1.351,1,,,,,,0.147222222,-0.413888889,1,0,0,1.351,Peridotite_rect,1,0,1,0,1,
6422f34be2b8257efb345837,TCN,2024-06-11_10h10.12.859,LearnStrategy,2023.2.3,Win32,59.88023952,5,2,3,,,,,,,,8,15,,,,,,,,,,,8,1.455,1,,,,,,0.359259259,-0.394444444,1,0,0,1.4546,Pumice_rect,2,0,2,0,1,
6422f34be2b8257efb345837,TCN,2024-06-11_10h10.12.859,LearnStrategy,2023.2.3,Win32,59.88023952,5,2,4,,,,,,,,1,03,,,,,,,,,,,1,13.273,1,,,,,,-0.421296296,-0.241666667,1,0,0,13.2729,Andesite_rect,3,0,3,0,1,
6422f34be2b8257efb345837,TCN,2024-06-11_10h10.12.859,LearnStrategy,2023.2.3,Win32,59.88023952,5,2,5,,,,,,,,1,09,,,,,,,,,,,1,1.067,1,,,,,,-0.417592593,-0.241666667,1,0,0,1.0671,Andesite_rect,4,0,4,0,1,
6422f34be2b8257efb345837,TCN,2024-06-11_10h10.12.859,LearnStrategy,2023.2.3,Win32,59.88023952,5,2,6,,,,,,,,6,12,,,,,,,,,,,6,14.176,1,,,,,,-0.169444444,-0.380555556,1,0,0,14.1759,Pegmatite_rect,5,0,5,0,1,
6422f34be2b8257efb345837,TCN,2024-06-11_10h10.12.859,LearnStrategy,2023.2.3,Win32,59.88023952,5,2,7,,,,,,,,6,11,,,,,,,,,,,6,2.244,1,,,,,,-0.103703704,-0.416666667,1,0,0,2.2439,Pegmatite_rect,6,0,6,0,1,
6422f34be2b8257efb345837,TCN,2024-06-11_10h10.12.859,LearnStrategy,2023.2.3,Win32,59.88023952,5,2,8,,,,,,,,4,11,,,,,,,,,,,4,9.319,1,,,,,,0.441666667,-0.256481481,1,0,0,9.3193,Gabbro_rect,7,0,7,0,1,
6422f34be2b8257efb345837,TCN,2024-06-11_10h10.12.859,LearnStrategy,2023.2.3,Win32,59.88023952,5,2,9,,,,,,,,2,05,,,,,,,,,,,2,4.313,1,,,,,,-0.094444444,-0.262962963,1,0,0,4.3134,Basalt_rect,8,0,8,0,1,
6422f34be2b8257efb345837,TCN,2024-06-11_10h10.12.859,LearnStrategy,2023.2.3,Win32,59.88023952,5,2,10,,,,,,,,5,09,,,,,,,,,,,5,1.043,1,,,,,,-0.361111111,-0.383333333,1,0,0,1.0429,Obsidian_rect,9,0,9,0,1,
6422f34be2b8257efb345837,TCN,2024-06-11_10h10.12.859,LearnStrategy,2023.2.3,Win32,59.88023952,5,2,11,,,,,,,,5,12,,,,,,,,,,,5,1.451,1,,,,,,-0.441666667,-0.400925926,1,0,0,1.4514,Obsidian_rect,10,0,10,0,1,
6422f34be2b8257efb345837,TCN,2024-06-11_10h10.12.859,LearnStrategy,2023.2.3,Win32,59.88023952,5,2,12,,,,,,,,2,01,,,,,,,,,,,2,2.696,1,,,,,,-0.12962963,-0.247222222,1,0,0,2.6961,Basalt_rect,11,0,11,0,1,
6422f34be2b8257efb345837,TCN,2024-06-11_10h10.12.859,LearnStrategy,2023.2.3,Win32,59.88023952,5,2,13,,,,,,,,3,11,,,,,,,,,,,3,15.14,1,,,,,,0.112037037,-0.242592593,1,0,0,15.14,Diorite_rect,12,0,12,0,1,
6422f34be2b8257efb345837,TCN,2024-06-11_10h10.12.859,LearnStrategy,2023.2.3,Win32,59.88023952,5,2,14,,,,,,,,8,08,,,,,,,,,,,8,1.769,1,,,,,,0.399074074,-0.416666667,1,0,0,1.7694,Pumice_rect,13,0,13,0,1,
6422f34be2b8257efb345837,TCN,2024-06-11_10h10.12.859,LearnStrategy,2023.2.3,Win32,59.88023952,5,2,15,,,,,,,,3,08,,,,,,,,,,,3,3.516,1,,,,,,0.157407407,-0.230555556,1,0,0,3.5162,Diorite_rect,14,0,14,0,1,
6422f34be2b8257efb345837,TCN,2024-06-11_10h10.12.859,LearnStrategy,2023.2.3,Win32,59.88023952,5,2,16,,,,,,,,7,10,,,,,,,,,,,7,1.322,1,,,,,,0.143518519,-0.398148148,1,0,0,1.322,Peridotite_rect,15,0,15,0,1,
6422f34be2b8257efb345837,TCN,2024-06-11_10h10.12.859,LearnStrategy,2023.2.3,Win32,59.88023952,6,1,1,0.049074074,0.012037037,1,0,0,1.3614,rock_grid_rect_2,4,13,-1,-1,1.361,0.40462963,-0.268518519,1,0,0,9.6372,Gabbro_rect,4,9.637,1,0,0,0,0,1,,,,,,,,,,,,,
6422f34be2b8257efb345837,TCN,2024-06-11_10h10.12.859,LearnStrategy,2023.2.3,Win32,59.88023952,6,1,2,0.078703704,-0.001851852,1,0,0,1.1996,rock_grid_rect_2,3,09,-1,-1,1.2,0.174074074,-0.248148148,1,0,0,4.8875,Diorite_rect,3,4.888,1,1,0,1,0,1,,,,,,,,,,,,,
6422f34be2b8257efb345837,TCN,2024-06-11_10h10.12.859,LearnStrategy,2023.2.3,Win32,59.88023952,6,1,3,0.025925926,-0.015740741,1,0,0,0.8989,rock_grid_rect_2,2,08,-1,-1,0.899,-0.133333333,-0.233333333,1,0,0,1.5101,Basalt_rect,2,1.51,1,2,0,2,0,1,,,,,,,,,,,,,
6422f34be2b8257efb345837,TCN,2024-06-11_10h10.12.859,LearnStrategy,2023.2.3,Win32,59.88023952,6,1,4,0.002777778,-0.003703704,1,0,0,0.8988,rock_grid_rect_2,1,11,-1,-1,0.899,-0.435185185,-0.240740741,1,0,0,21.4506,Andesite_rect,1,21.451,1,3,0,3,0,1,,,,,,,,,,,,,
6422f34be2b8257efb345837,TCN,2024-06-11_10h10.12.859,LearnStrategy,2023.2.3,Win32,59.88023952,6,1,5,0.04537037,0.007407407,1,0,0,1.114,rock_grid_rect_2,6,09,-1,-1,1.114,0.136111111,-0.389814815,1,0,0,1.9108,Peridotite_rect,7,1.911,0,4,0,4,0,1,,,,,,,,,,,,,
6422f34be2b8257efb345837,TCN,2024-06-11_10h10.12.859,LearnStrategy,2023.2.3,Win32,59.88023952,6,1,6,0.086111111,-0.000925926,1,0,0,0.9658,rock_grid_rect_2,2,04,-1,-1,0.966,-0.117592593,-0.25,1,0,0,1.6528,Basalt_rect,2,1.653,1,5,0,5,0,1,,,,,,,,,,,,,
6422f34be2b8257efb345837,TCN,2024-06-11_10h10.12.859,LearnStrategy,2023.2.3,Win32,59.88023952,6,1,7,-0.014814815,-0.014814815,1,0,0,1.5483,rock_grid_rect_2,4,05,-1,-1,1.548,0.426851852,-0.262962963,1,0,0,13.6813,Gabbro_rect,4,13.681,1,6,0,6,0,1,,,,,,,,,,,,,
6422f34be2b8257efb345837,TCN,2024-06-11_10h10.12.859,LearnStrategy,2023.2.3,Win32,59.88023952,6,1,8,0.059259259,-0.008333333,1,0,0,1.0305,rock_grid_rect_2,3,15,-1,-1,1.031,0.115740741,-0.27037037,1,0,0,17.1947,Diorite_rect,3,17.195,1,7,0,7,0,1,,,,,,,,,,,,,
6422f34be2b8257efb345837,TCN,2024-06-11_10h10.12.859,LearnStrategy,2023.2.3,Win32,59.88023952,6,1,9,0.04537037,-0.007407407,1,0,0,1.9648,rock_grid_rect_2,1,06,-1,-1,1.965,0.139814815,-0.249074074,1,0,0,1.7435,Diorite_rect,3,1.743,0,8,0,8,0,1,,,,,,,,,,,,,
6422f34be2b8257efb345837,TCN,2024-06-11_10h10.12.859,LearnStrategy,2023.2.3,Win32,59.88023952,6,1,10,0.069444444,-0.014814815,1,0,0,1.083,rock_grid_rect_2,5,02,-1,-1,1.083,-0.427777778,-0.399074074,1,0,0,1.7473,Obsidian_rect,5,1.747,1,9,0,9,0,1,,,,,,,,,,,,,
6422f34be2b8257efb345837,TCN,2024-06-11_10h10.12.859,LearnStrategy,2023.2.3,Win32,59.88023952,6,1,11,0.027777778,-0.003703704,1,0,0,0.9485,rock_grid_rect_2,8,05,-1,-1,0.948,0.426851852,-0.387962963,1,0,0,1.0465,Pumice_rect,8,1.046,1,10,0,10,0,1,,,,,,,,,,,,,
6422f34be2b8257efb345837,TCN,2024-06-11_10h10.12.859,LearnStrategy,2023.2.3,Win32,59.88023952,6,1,12,0.015740741,0,1,0,0,0.9493,rock_grid_rect_2,5,08,-1,-1,0.949,-0.408333333,-0.388888889,1,0,0,1.0466,Obsidian_rect,5,1.047,1,11,0,11,0,1,,,,,,,,,,,,,
6422f34be2b8257efb345837,TCN,2024-06-11_10h10.12.859,LearnStrategy,2023.2.3,Win32,59.88023952,6,1,13,0.013888889,0.016666667,1,0,0,0.9327,rock_grid_rect_2,7,16,-1,-1,0.933,0.148148148,-0.396296296,1,0,0,1.3628,Peridotite_rect,7,1.363,1,12,0,12,0,1,,,,,,,,,,,,,
6422f34be2b8257efb345837,TCN,2024-06-11_10h10.12.859,LearnStrategy,2023.2.3,Win32,59.88023952,6,1,14,0.047222222,0.003703704,1,0,0,1.0981,rock_grid_rect_2,7,12,-1,-1,1.098,-0.138888889,-0.406481481,1,0,0,1.0766,Pegmatite_rect,6,1.077,0,13,0,13,0,1,,,,,,,,,,,,,
6422f34be2b8257efb345837,TCN,2024-06-11_10h10.12.859,LearnStrategy,2023.2.3,Win32,59.88023952,6,1,15,0.067592593,-0.00462963,1,0,0,0.9166,rock_grid_rect_2,8,14,-1,-1,0.917,0.417592593,-0.401851852,1,0,0,1.1464,Pumice_rect,8,1.146,1,14,0,14,0,1,,,,,,,,,,,,,
6422f34be2b8257efb345837,TCN,2024-06-11_10h10.12.859,LearnStrategy,2023.2.3,Win32,59.88023952,6,1,16,-0.008333333,0.017592593,1,0,0,0.7144,rock_grid_rect_2,6,05,-1,-1,0.714,-0.141666667,-0.403703704,1,0,0,6.5466,Pegmatite_rect,6,6.547,1,15,0,15,0,1,,,,,,,,,,,,,
6422f34be2b8257efb345837,TCN,2024-06-11_10h10.12.859,LearnStrategy,2023.2.3,Win32,59.88023952,6,2,1,,,,,,,,5,05,,,,,,,,,,,5,3.632,1,,,,,,-0.397222222,-0.406481481,1,0,0,3.6318,Obsidian_rect,0,0,0,0,1,
6422f34be2b8257efb345837,TCN,2024-06-11_10h10.12.859,LearnStrategy,2023.2.3,Win32,59.88023952,6,2,2,,,,,,,,2,12,,,,,,,,,,,1,38.957,0,,,,,,-0.37037037,-0.266666667,1,0,0,38.9573,Andesite_rect,1,0,1,0,1,
6422f34be2b8257efb345837,TCN,2024-06-11_10h10.12.859,LearnStrategy,2023.2.3,Win32,59.88023952,6,2,3,,,,,,,,3,14,,,,,,,,,,,1,10.384,0,,,,,,-0.388888889,-0.246296296,1,0,0,10.3841,Andesite_rect,2,0,2,0,1,
6422f34be2b8257efb345837,TCN,2024-06-11_10h10.12.859,LearnStrategy,2023.2.3,Win32,59.88023952,6,2,4,,,,,,,,1,07,,,,,,,,,,,1,0.727,1,,,,,,-0.356481481,-0.228703704,1,0,0,0.7268,Andesite_rect,3,0,3,0,1,
6422f34be2b8257efb345837,TCN,2024-06-11_10h10.12.859,LearnStrategy,2023.2.3,Win32,59.88023952,6,2,5,,,,,,,,7,14,,,,,,,,,,,6,4.246,0,,,,,,-0.122222222,-0.397222222,1,0,0,4.2462,Pegmatite_rect,4,0,4,0,1,
6422f34be2b8257efb345837,TCN,2024-06-11_10h10.12.859,LearnStrategy,2023.2.3,Win32,59.88023952,6,2,6,,,,,,,,3,12,,,,,,,,,,,1,1.195,0,,,,,,-0.365740741,-0.248148148,1,0,0,1.1946,Andesite_rect,5,0,5,0,1,
6422f34be2b8257efb345837,TCN,2024-06-11_10h10.12.859,LearnStrategy,2023.2.3,Win32,59.88023952,6,2,7,,,,,,,,5,11,,,,,,,,,,,5,1.063,1,,,,,,-0.387962963,-0.391666667,1,0,0,1.0627,Obsidian_rect,6,0,6,0,1,
6422f34be2b8257efb345837,TCN,2024-06-11_10h10.12.859,LearnStrategy,2023.2.3,Win32,59.88023952,6,2,8,,,,,,,,8,04,,,,,,,,,,,8,1.225,1,,,,,,0.397222222,-0.412037037,1,0,0,1.2252,Pumice_rect,7,0,7,0,1,
6422f34be2b8257efb345837,TCN,2024-06-11_10h10.12.859,LearnStrategy,2023.2.3,Win32,59.88023952,6,2,9,,,,,,,,7,02,,,,,,,,,,,7,1.094,1,,,,,,0.160185185,-0.387962963,1,0,0,1.0944,Peridotite_rect,8,0,8,0,1,
6422f34be2b8257efb345837,TCN,2024-06-11_10h10.12.859,LearnStrategy,2023.2.3,Win32,59.88023952,6,2,10,,,,,,,,4,10,,,,,,,,,,,4,2.214,1,,,,,,0.35462963,-0.246296296,1,0,0,2.2138,Gabbro_rect,9,0,9,0,1,
6422f34be2b8257efb345837,TCN,2024-06-11_10h10.12.859,LearnStrategy,2023.2.3,Win32,59.88023952,6,2,11,,,,,,,,4,01,,,,,,,,,,,4,2.352,1,,,,,,0.433333333,-0.25,1,0,0,2.3521,Gabbro_rect,10,0,10,0,1,
6422f34be2b8257efb345837,TCN,2024-06-11_10h10.12.859,LearnStrategy,2023.2.3,Win32,59.88023952,6,2,12,,,,,,,,8,16,,,,,,,,,,,8,2.047,1,,,,,,0.427777778,-0.413888889,1,0,0,2.0467,Pumice_rect,11,0,11,0,1,
6422f34be2b8257efb345837,TCN,2024-06-11_10h10.12.859,LearnStrategy,2023.2.3,Win32,59.88023952,6,2,13,,,,,,,,1,16,,,,,,,,,,,3,4.312,0,,,,,,0.124074074,-0.243518519,1,0,0,4.3119,Diorite_rect,12,0,12,0,1,
6422f34be2b8257efb345837,TCN,2024-06-11_10h10.12.859,LearnStrategy,2023.2.3,Win32,59.88023952,6,2,14,,,,,,,,6,10,,,,,,,,,,,7,1.09,0,,,,,,0.113888889,-0.412962963,1,0,0,1.0902,Peridotite_rect,13,0,13,0,1,
6422f34be2b8257efb345837,TCN,2024-06-11_10h10.12.859,LearnStrategy,2023.2.3,Win32,59.88023952,6,2,15,,,,,,,,6,15,,,,,,,,,,,6,7.401,1,,,,,,-0.136111111,-0.416666667,1,0,0,7.4012,Pegmatite_rect,14,0,14,0,1,
6422f34be2b8257efb345837,TCN,2024-06-11_10h10.12.859,LearnStrategy,2023.2.3,Win32,59.88023952,6,2,16,,,,,,,,2,14,,,,,,,,,,,3,5.232,0,,,,,,0.103703704,-0.25,1,0,0,5.2317,Diorite_rect,15,0,15,0,1,
6422f34be2b8257efb345837,TCN,2024-06-11_10h10.12.859,LearnStrategy,2023.2.3,Win32,59.88023952,7,1,1,0.075,0.018518519,1,0,0,1.2691,rock_grid_rect_2,3,02,-1,-1,1.269,0.152777778,-0.246296296,1,0,0,8.8646,Diorite_rect,3,8.865,1,0,0,0,0,1,,,,,,,,,,,,,
6422f34be2b8257efb345837,TCN,2024-06-11_10h10.12.859,LearnStrategy,2023.2.3,Win32,59.88023952,7,1,2,-0.017592593,-0.008333333,1,0,0,0.9633,rock_grid_rect_2,7,16,-1,-1,0.963,0.139814815,-0.405555556,1,0,0,2.0443,Peridotite_rect,7,2.044,1,1,0,1,0,1,,,,,,,,,,,,,
6422f34be2b8257efb345837,TCN,2024-06-11_10h10.12.859,LearnStrategy,2023.2.3,Win32,59.88023952,7,1,3,-0.006481481,0.003703704,1,0,0,0.9307,rock_grid_rect_2,5,16,-1,-1,0.931,-0.412037037,-0.403703704,1,0,0,1.1953,Obsidian_rect,5,1.195,1,2,0,2,0,1,,,,,,,,,,,,,
6422f34be2b8257efb345837,TCN,2024-06-11_10h10.12.859,LearnStrategy,2023.2.3,Win32,59.88023952,7,1,4,-0.10462963,0.006481481,1,0,0,0.8972,rock_grid_rect_2,2,10,-1,-1,0.897,-0.137962963,-0.235185185,1,0,0,2.2387,Basalt_rect,2,2.239,1,3,0,3,0,1,,,,,,,,,,,,,
6422f34be2b8257efb345837,TCN,2024-06-11_10h10.12.859,LearnStrategy,2023.2.3,Win32,59.88023952,7,1,5,-0.026851852,-0.006481481,1,0,0,0.758,rock_grid_rect_2,3,07,-1,-1,0.758,-0.381481481,-0.241666667,1,0,0,15.9023,Andesite_rect,1,15.902,0,4,0,4,0,1,,,,,,,,,,,,,
6422f34be2b8257efb345837,TCN,2024-06-11_10h10.12.859,LearnStrategy,2023.2.3,Win32,59.88023952,7,1,6,0.012962963,-0.019444444,1,0,0,1.6964,rock_grid_rect_2,4,12,-1,-1,1.696,-0.12037037,-0.25462963,1,0,0,1.5723,Basalt_rect,2,1.572,0,5,0,5,0,1,,,,,,,,,,,,,
6422f34be2b8257efb345837,TCN,2024-06-11_10h10.12.859,LearnStrategy,2023.2.3,Win32,59.88023952,7,1,7,-0.010185185,0.00462963,1,0,0,0.7149,rock_grid_rect_2,6,07,-1,-1,0.715,-0.114814815,-0.385185185,1,0,0,6.995,Pegmatite_rect,6,6.995,1,6,0,6,0,1,,,,,,,,,,,,,
6422f34be2b8257efb345837,TCN,2024-06-11_10h10.12.859,LearnStrategy,2023.2.3,Win32,59.88023952,7,1,8,0.015740741,-0.011111111,1,0,0,0.9324,rock_grid_rect_2,8,14,-1,-1,0.932,0.425925926,-0.412962963,1,0,0,1.0937,Pumice_rect,8,1.094,1,7,0,7,0,1,,,,,,,,,,,,,
6422f34be2b8257efb345837,TCN,2024-06-11_10h10.12.859,LearnStrategy,2023.2.3,Win32,59.88023952,7,1,9,-0.05462963,0,1,0,0,0.714,rock_grid_rect_2,4,08,-1,-1,0.714,-0.088888889,-0.253703704,1,0,0,2.219,Basalt_rect,2,2.219,0,8,0,8,0,1,,,,,,,,,,,,,
6422f34be2b8257efb345837,TCN,2024-06-11_10h10.12.859,LearnStrategy,2023.2.3,Win32,59.88023952,7,1,10,-0.034259259,-0.013888889,1,0,0,0.8473,rock_grid_rect_2,6,09,-1,-1,0.847,0.146296296,-0.409259259,1,0,0,1.5606,Peridotite_rect,7,1.561,0,9,0,9,0,1,,,,,,,,,,,,,
6422f34be2b8257efb345837,TCN,2024-06-11_10h10.12.859,LearnStrategy,2023.2.3,Win32,59.88023952,7,1,11,-0.065740741,-0.010185185,1,0,0,0.8832,rock_grid_rect_2,8,10,-1,-1,0.883,0.402777778,-0.394444444,1,0,0,1.7706,Pumice_rect,8,1.771,1,10,0,10,0,1,,,,,,,,,,,,,
6422f34be2b8257efb345837,TCN,2024-06-11_10h10.12.859,LearnStrategy,2023.2.3,Win32,59.88023952,7,1,12,-0.062962963,0.003703704,1,0,0,0.9827,rock_grid_rect_2,7,07,-1,-1,0.983,0.100925926,-0.401851852,1,0,0,2.5932,Peridotite_rect,7,2.593,1,11,0,11,0,1,,,,,,,,,,,,,
6422f34be2b8257efb345837,TCN,2024-06-11_10h10.12.859,LearnStrategy,2023.2.3,Win32,59.88023952,7,1,13,-0.003703704,-0.009259259,1,0,0,0.9143,rock_grid_rect_2,2,09,-1,-1,0.914,-0.112962963,-0.250925926,1,0,0,1.8285,Basalt_rect,2,1.828,1,12,0,12,0,1,,,,,,,,,,,,,
6422f34be2b8257efb345837,TCN,2024-06-11_10h10.12.859,LearnStrategy,2023.2.3,Win32,59.88023952,7,1,14,-0.061111111,0.014814815,1,0,0,0.7478,rock_grid_rect_2,5,02,-1,-1,0.748,-0.358333333,-0.37962963,1,0,0,1.095,Obsidian_rect,5,1.095,1,13,0,13,0,1,,,,,,,,,,,,,
6422f34be2b8257efb345837,TCN,2024-06-11_10h10.12.859,LearnStrategy,2023.2.3,Win32,59.88023952,7,1,15,-0.061111111,-0.000925926,1,0,0,0.7134,rock_grid_rect_2,1,11,-1,-1,0.713,0.156481481,-0.415740741,1,0,0,9.4351,Peridotite_rect,7,9.435,0,14,0,14,0,1,,,,,,,,,,,,,
6422f34be2b8257efb345837,TCN,2024-06-11_10h10.12.859,LearnStrategy,2023.2.3,Win32,59.88023952,7,1,16,0.013888889,-0.024074074,1,0,0,0.8322,rock_grid_rect_2,1,04,-1,-1,0.832,-0.373148148,-0.249074074,1,0,0,2.046,Andesite_rect,1,2.046,1,15,0,15,0,1,,,,,,,,,,,,,
6422f34be2b8257efb345837,TCN,2024-06-11_10h10.12.859,LearnStrategy,2023.2.3,Win32,59.88023952,7,2,1,,,,,,,,1,09,,,,,,,,,,,1,1.215,1,,,,,,-0.37962963,-0.262037037,1,0,0,1.2148,Andesite_rect,0,0,0,0,1,
6422f34be2b8257efb345837,TCN,2024-06-11_10h10.12.859,LearnStrategy,2023.2.3,Win32,59.88023952,7,2,2,,,,,,,,3,08,,,,,,,,,,,1,2.547,0,,,,,,-0.35,-0.236111111,1,0,0,2.5466,Andesite_rect,1,0,1,0,1,
6422f34be2b8257efb345837,TCN,2024-06-11_10h10.12.859,LearnStrategy,2023.2.3,Win32,59.88023952,7,2,3,,,,,,,,7,08,,,,,,,,,,,7,1.251,1,,,,,,0.153703704,-0.413888889,1,0,0,1.2514,Peridotite_rect,2,0,2,0,1,
6422f34be2b8257efb345837,TCN,2024-06-11_10h10.12.859,LearnStrategy,2023.2.3,Win32,59.88023952,7,2,4,,,,,,,,3,14,,,,,,,,,,,1,1.21,0,,,,,,-0.380555556,-0.238888889,1,0,0,1.2099,Andesite_rect,3,0,3,0,1,
6422f34be2b8257efb345837,TCN,2024-06-11_10h10.12.859,LearnStrategy,2023.2.3,Win32,59.88023952,7,2,5,,,,,,,,6,16,,,,,,,,,,,6,12.174,1,,,,,,-0.122222222,-0.386111111,1,0,0,12.1738,Pegmatite_rect,4,0,4,0,1,
6422f34be2b8257efb345837,TCN,2024-06-11_10h10.12.859,LearnStrategy,2023.2.3,Win32,59.88023952,7,2,6,,,,,,,,8,16,,,,,,,,,,,8,4.285,1,,,,,,0.394444444,-0.396296296,1,0,0,4.2846,Pumice_rect,5,0,5,0,1,
6422f34be2b8257efb345837,TCN,2024-06-11_10h10.12.859,LearnStrategy,2023.2.3,Win32,59.88023952,7,2,7,,,,,,,,4,11,,,,,,,,,,,2,1.578,0,,,,,,-0.15462963,-0.247222222,1,0,0,1.5779,Basalt_rect,6,0,6,0,1,
6422f34be2b8257efb345837,TCN,2024-06-11_10h10.12.859,LearnStrategy,2023.2.3,Win32,59.88023952,7,2,8,,,,,,,,2,05,,,,,,,,,,,2,1.169,1,,,,,,-0.15462963,-0.24537037,1,0,0,1.1693,Basalt_rect,7,0,7,0,1,
6422f34be2b8257efb345837,TCN,2024-06-11_10h10.12.859,LearnStrategy,2023.2.3,Win32,59.88023952,7,2,9,,,,,,,,5,09,,,,,,,,,,,5,1.138,1,,,,,,-0.385185185,-0.400925926,1,0,0,1.1376,Obsidian_rect,8,0,8,0,1,
6422f34be2b8257efb345837,TCN,2024-06-11_10h10.12.859,LearnStrategy,2023.2.3,Win32,59.88023952,7,2,10,,,,,,,,6,10,,,,,,,,,,,7,1.678,0,,,,,,0.128703704,-0.411111111,1,0,0,1.6781,Peridotite_rect,9,0,9,0,1,
6422f34be2b8257efb345837,TCN,2024-06-11_10h10.12.859,LearnStrategy,2023.2.3,Win32,59.88023952,7,2,11,,,,,,,,2,01,,,,,,,,,,,2,1.695,1,,,,,,-0.102777778,-0.264814815,1,0,0,1.6945,Basalt_rect,10,0,10,0,1,
6422f34be2b8257efb345837,TCN,2024-06-11_10h10.12.859,LearnStrategy,2023.2.3,Win32,59.88023952,7,2,12,,,,,,,,5,12,,,,,,,,,,,5,1.126,1,,,,,,-0.410185185,-0.400925926,1,0,0,1.1263,Obsidian_rect,11,0,11,0,1,
6422f34be2b8257efb345837,TCN,2024-06-11_10h10.12.859,LearnStrategy,2023.2.3,Win32,59.88023952,7,2,13,,,,,,,,1,03,,,,,,,,,,,1,1.63,1,,,,,,-0.368518519,-0.258333333,1,0,0,1.63,Andesite_rect,12,0,12,0,1,
6422f34be2b8257efb345837,TCN,2024-06-11_10h10.12.859,LearnStrategy,2023.2.3,Win32,59.88023952,7,2,14,,,,,,,,7,10,,,,,,,,,,,6,1.891,0,,,,,,-0.118518519,-0.403703704,1,0,0,1.8908,Pegmatite_rect,13,0,13,0,1,
6422f34be2b8257efb345837,TCN,2024-06-11_10h10.12.859,LearnStrategy,2023.2.3,Win32,59.88023952,7,2,15,,,,,,,,8,04,,,,,,,,,,,8,1.136,1,,,,,,0.407407407,-0.405555556,1,0,0,1.1363,Pumice_rect,14,0,14,0,1,
6422f34be2b8257efb345837,TCN,2024-06-11_10h10.12.859,LearnStrategy,2023.2.3,Win32,59.88023952,7,2,16,,,,,,,,4,09,,,,,,,,,,,4,3.036,1,,,,,,0.415740741,-0.25462963,1,0,0,3.0361,Gabbro_rect,15,0,15,0,1,
6422f34be2b8257efb345837,TCN,2024-06-11_10h10.12.859,LearnStrategy,2023.2.3,Win32,59.88023952,8,1,1,0.002777778,-0.017592593,1,0,0,0.8432,rock_grid_rect_2,7,15,-1,-1,0.843,0.143518519,-0.409259259,1,0,0,1.4783,Peridotite_rect,7,1.478,1,0,0,0,0,1,,,,,,,,,,,,,
6422f34be2b8257efb345837,TCN,2024-06-11_10h10.12.859,LearnStrategy,2023.2.3,Win32,59.88023952,8,1,2,-0.024074074,0.010185185,1,0,0,1.481,rock_grid_rect_2,5,06,-1,-1,1.481,-0.374074074,-0.42037037,1,0,0,1.1438,Obsidian_rect,5,1.144,1,1,0,1,0,1,,,,,,,,,,,,,
6422f34be2b8257efb345837,TCN,2024-06-11_10h10.12.859,LearnStrategy,2023.2.3,Win32,59.88023952,8,1,3,-0.019444444,-0.013888889,1,0,0,0.9982,rock_grid_rect_2,7,04,-1,-1,0.998,0.147222222,-0.409259259,1,0,0,11.2716,Peridotite_rect,7,11.272,1,2,0,2,0,1,,,,,,,,,,,,,
6422f34be2b8257efb345837,TCN,2024-06-11_10h10.12.859,LearnStrategy,2023.2.3,Win32,59.88023952,8,1,4,-0.013888889,0.002777778,1,0,0,1.4462,rock_grid_rect_2,5,04,-1,-1,1.446,-0.400925926,-0.402777778,1,0,0,0.933,Obsidian_rect,5,0.933,1,3,0,3,0,1,,,,,,,,,,,,,
6422f34be2b8257efb345837,TCN,2024-06-11_10h10.12.859,LearnStrategy,2023.2.3,Win32,59.88023952,8,1,5,0.012962963,0.003703704,1,0,0,0.9667,rock_grid_rect_2,2,08,-1,-1,0.967,-0.102777778,-0.258333333,1,0,0,1.3132,Basalt_rect,2,1.313,1,4,0,4,0,1,,,,,,,,,,,,,
6422f34be2b8257efb345837,TCN,2024-06-11_10h10.12.859,LearnStrategy,2023.2.3,Win32,59.88023952,8,1,6,-0.075925926,-0.022222222,1,0,0,0.8309,rock_grid_rect_2,6,08,-1,-1,0.831,-0.114814815,-0.391666667,1,0,0,7.4987,Pegmatite_rect,6,7.499,1,5,0,5,0,1,,,,,,,,,,,,,
6422f34be2b8257efb345837,TCN,2024-06-11_10h10.12.859,LearnStrategy,2023.2.3,Win32,59.88023952,8,1,7,-0.043518519,-0.00462963,1,0,0,0.6955,rock_grid_rect_2,3,09,-1,-1,0.695,-0.373148148,-0.248148148,1,0,0,2.011,Andesite_rect,1,2.011,0,6,0,6,0,1,,,,,,,,,,,,,
6422f34be2b8257efb345837,TCN,2024-06-11_10h10.12.859,LearnStrategy,2023.2.3,Win32,59.88023952,8,1,8,0.035185185,-0.011111111,1,0,0,0.8157,rock_grid_rect_2,4,16,-1,-1,0.816,0.4,-0.251851852,1,0,0,2.5968,Gabbro_rect,4,2.597,1,7,0,7,0,1,,,,,,,,,,,,,
6422f34be2b8257efb345837,TCN,2024-06-11_10h10.12.859,LearnStrategy,2023.2.3,Win32,59.88023952,8,1,9,0.025,-0.006481481,1,0,0,0.728,rock_grid_rect_2,8,09,-1,-1,0.728,0.438888889,-0.397222222,1,0,0,1.1839,Pumice_rect,8,1.184,1,8,0,8,0,1,,,,,,,,,,,,,
6422f34be2b8257efb345837,TCN,2024-06-11_10h10.12.859,LearnStrategy,2023.2.3,Win32,59.88023952,8,1,10,0.068518519,0.001851852,1,0,0,0.9151,rock_grid_rect_2,8,05,-1,-1,0.915,0.411111111,-0.410185185,1,0,0,1.5701,Pumice_rect,8,1.57,1,9,0,9,0,1,,,,,,,,,,,,,
6422f34be2b8257efb345837,TCN,2024-06-11_10h10.12.859,LearnStrategy,2023.2.3,Win32,59.88023952,8,1,11,-0.025,0.001851852,1,0,0,0.7737,rock_grid_rect_2,6,13,-1,-1,0.774,-0.127777778,-0.410185185,1,0,0,4.0907,Pegmatite_rect,6,4.091,1,10,0,10,0,1,,,,,,,,,,,,,
6422f34be2b8257efb345837,TCN,2024-06-11_10h10.12.859,LearnStrategy,2023.2.3,Win32,59.88023952,8,1,12,0.013888889,-0.005555556,1,0,0,0.9466,rock_grid_rect_2,2,11,-1,-1,0.947,0.398148148,-0.248148148,1,0,0,2.6547,Gabbro_rect,4,2.655,0,11,0,11,0,1,,,,,,,,,,,,,
6422f34be2b8257efb345837,TCN,2024-06-11_10h10.12.859,LearnStrategy,2023.2.3,Win32,59.88023952,8,1,13,-0.025,0.000925926,1,0,0,1.1461,rock_grid_rect_2,1,01,-1,-1,1.146,-0.367592593,-0.251851852,1,0,0,2.4802,Andesite_rect,1,2.48,1,12,0,12,0,1,,,,,,,,,,,,,
6422f34be2b8257efb345837,TCN,2024-06-11_10h10.12.859,LearnStrategy,2023.2.3,Win32,59.88023952,8,1,14,-0.024074074,0.012962963,1,0,0,1.2466,rock_grid_rect_2,3,06,-1,-1,1.247,-0.439814815,-0.25462963,1,0,0,1.3952,Andesite_rect,1,1.395,0,13,0,13,0,1,,,,,,,,,,,,,
6422f34be2b8257efb345837,TCN,2024-06-11_10h10.12.859,LearnStrategy,2023.2.3,Win32,59.88023952,8,1,15,0.026851852,-0.001851852,1,0,0,1.0505,rock_grid_rect_2,1,06,-1,-1,1.051,-0.363888889,-0.246296296,1,0,0,1.6218,Andesite_rect,1,1.622,1,14,0,14,0,1,,,,,,,,,,,,,
6422f34be2b8257efb345837,TCN,2024-06-11_10h10.12.859,LearnStrategy,2023.2.3,Win32,59.88023952,8,1,16,-0.010185185,0.013888889,1,0,0,0.8868,rock_grid_rect_2,4,14,-1,-1,0.887,-0.350925926,-0.248148148,1,0,0,2.2919,Andesite_rect,1,2.292,0,15,0,15,0,1,,,,,,,,,,,,,
6422f34be2b8257efb345837,TCN,2024-06-11_10h10.12.859,LearnStrategy,2023.2.3,Win32,59.88023952,8,2,1,,,,,,,,4,01,,,,,,,,,,,1,2.646,0,,,,,,-0.378703704,-0.247222222,1,0,0,2.6455,Andesite_rect,0,0,0,0,1,
6422f34be2b8257efb345837,TCN,2024-06-11_10h10.12.859,LearnStrategy,2023.2.3,Win32,59.88023952,8,2,2,,,,,,,,6,15,,,,,,,,,,,6,4.041,1,,,,,,-0.116666667,-0.407407407,1,0,0,4.0407,Pegmatite_rect,1,0,1,0,1,
6422f34be2b8257efb345837,TCN,2024-06-11_10h10.12.859,LearnStrategy,2023.2.3,Win32,59.88023952,8,2,3,,,,,,,,3,11,,,,,,,,,,,1,1.194,0,,,,,,-0.428703704,-0.250925926,1,0,0,1.1939,Andesite_rect,2,0,2,0,1,
6422f34be2b8257efb345837,TCN,2024-06-11_10h10.12.859,LearnStrategy,2023.2.3,Win32,59.88023952,8,2,4,,,,,,,,1,16,,,,,,,,,,,1,0.693,1,,,,,,-0.428703704,-0.250925926,1,0,0,0.6932,Andesite_rect,3,0,3,0,1,
6422f34be2b8257efb345837,TCN,2024-06-11_10h10.12.859,LearnStrategy,2023.2.3,Win32,59.88023952,8,2,5,,,,,,,,3,12,,,,,,,,,,,1,2.478,0,,,,,,-0.428703704,-0.250925926,1,0,0,2.4776,Andesite_rect,4,0,4,0,1,
6422f34be2b8257efb345837,TCN,2024-06-11_10h10.12.859,LearnStrategy,2023.2.3,Win32,59.88023952,8,2,6,,,,,,,,1,10,,,,,,,,,,,4,3.979,0,,,,,,0.405555556,-0.249074074,1,0,0,3.9792,Gabbro_rect,5,0,5,0,1,
6422f34be2b8257efb345837,TCN,2024-06-11_10h10.12.859,LearnStrategy,2023.2.3,Win32,59.88023952,8,2,7,,,,,,,,6,06,,,,,,,,,,,6,2.481,1,,,,,,-0.086111111,-0.394444444,1,0,0,2.4812,Pegmatite_rect,6,0,6,0,1,
6422f34be2b8257efb345837,TCN,2024-06-11_10h10.12.859,LearnStrategy,2023.2.3,Win32,59.88023952,8,2,8,,,,,,,,8,03,,,,,,,,,,,8,1.254,1,,,,,,0.376851852,-0.383333333,1,0,0,1.2543,Pumice_rect,7,0,7,0,1,
6422f34be2b8257efb345837,TCN,2024-06-11_10h10.12.859,LearnStrategy,2023.2.3,Win32,59.88023952,8,2,9,,,,,,,,5,11,,,,,,,,,,,5,1.263,1,,,,,,-0.438888889,-0.405555556,1,0,0,1.2632,Obsidian_rect,8,0,8,0,1,
6422f34be2b8257efb345837,TCN,2024-06-11_10h10.12.859,LearnStrategy,2023.2.3,Win32,59.88023952,8,2,10,,,,,,,,2,14,,,,,,,,,,,4,5.916,0,,,,,,0.419444444,-0.257407407,1,0,0,5.916,Gabbro_rect,9,0,9,0,1,
6422f34be2b8257efb345837,TCN,2024-06-11_10h10.12.859,LearnStrategy,2023.2.3,Win32,59.88023952,8,2,11,,,,,,,,7,02,,,,,,,,,,,7,1.259,1,,,,,,0.142592593,-0.39537037,1,0,0,1.2592,Peridotite_rect,10,0,10,0,1,
6422f34be2b8257efb345837,TCN,2024-06-11_10h10.12.859,LearnStrategy,2023.2.3,Win32,59.88023952,8,2,12,,,,,,,,5,10,,,,,,,,,,,5,1.26,1,,,,,,-0.37037037,-0.410185185,1,0,0,1.2604,Obsidian_rect,11,0,11,0,1,
6422f34be2b8257efb345837,TCN,2024-06-11_10h10.12.859,LearnStrategy,2023.2.3,Win32,59.88023952,8,2,13,,,,,,,,2,12,,,,,,,,,,,3,5.751,0,,,,,,0.155555556,-0.261111111,1,0,0,5.7507,Diorite_rect,12,0,12,0,1,
6422f34be2b8257efb345837,TCN,2024-06-11_10h10.12.859,LearnStrategy,2023.2.3,Win32,59.88023952,8,2,14,,,,,,,,4,15,,,,,,,,,,,4,4.473,1,,,,,,0.415740741,-0.252777778,1,0,0,4.4734,Gabbro_rect,13,0,13,0,1,
6422f34be2b8257efb345837,TCN,2024-06-11_10h10.12.859,LearnStrategy,2023.2.3,Win32,59.88023952,8,2,15,,,,,,,,8,15,,,,,,,,,,,8,1.117,1,,,,,,0.358333333,-0.410185185,1,0,0,1.1166,Pumice_rect,14,0,14,0,1,
6422f34be2b8257efb345837,TCN,2024-06-11_10h10.12.859,LearnStrategy,2023.2.3,Win32,59.88023952,8,2,16,,,,,,,,7,14,,,,,,,,,,,6,4.53,0,,,,,,-0.181481481,-0.397222222,1,0,0,4.5297,Pegmatite_rect,15,0,15,0,1,
6422f34be2b8257efb345837,TCN,2024-06-11_10h10.12.859,LearnStrategy,2023.2.3,Win32,59.88023952,9,1,1,0.005555556,0.007407407,1,0,0,1.4436,rock_grid_rect_2,6,05,-1,-1,1.444,-0.132407407,-0.412037037,1,0,0,4.0819,Pegmatite_rect,6,4.082,1,0,0,0,0,1,,,,,,,,,,,,,
6422f34be2b8257efb345837,TCN,2024-06-11_10h10.12.859,LearnStrategy,2023.2.3,Win32,59.88023952,9,1,2,-0.021296296,0,1,0,0,1.18,rock_grid_rect_2,3,10,-1,-1,1.18,-0.45462963,-0.264814815,1,0,0,1.2354,Andesite_rect,1,1.235,0,1,0,1,0,1,,,,,,,,,,,,,
6422f34be2b8257efb345837,TCN,2024-06-11_10h10.12.859,LearnStrategy,2023.2.3,Win32,59.88023952,9,1,3,0.012962963,-0.001851852,1,0,0,0.8749,rock_grid_rect_2,5,08,-1,-1,0.875,-0.387037037,-0.391666667,1,0,0,1.0844,Obsidian_rect,5,1.084,1,2,0,2,0,1,,,,,,,,,,,,,
6422f34be2b8257efb345837,TCN,2024-06-11_10h10.12.859,LearnStrategy,2023.2.3,Win32,59.88023952,9,1,4,-0.033333333,-0.011111111,1,0,0,1.5807,rock_grid_rect_2,7,12,-1,-1,1.581,-0.390740741,-0.265740741,1,0,0,1.322,Andesite_rect,1,1.322,0,3,0,3,0,1,,,,,,,,,,,,,
6422f34be2b8257efb345837,TCN,2024-06-11_10h10.12.859,LearnStrategy,2023.2.3,Win32,59.88023952,9,1,5,-0.00462963,0.011111111,1,0,0,0.7894,rock_grid_rect_2,1,14,-1,-1,0.789,-0.113888889,-0.408333333,1,0,0,7.5293,Pegmatite_rect,6,7.529,0,4,0,4,0,1,,,,,,,,,,,,,
6422f34be2b8257efb345837,TCN,2024-06-11_10h10.12.859,LearnStrategy,2023.2.3,Win32,59.88023952,9,1,6,0.001851852,-0.002777778,1,0,0,0.9125,rock_grid_rect_2,7,05,-1,-1,0.913,0.083333333,-0.385185185,1,0,0,1.4298,Peridotite_rect,7,1.43,1,5,0,5,0,1,,,,,,,,,,,,,
6422f34be2b8257efb345837,TCN,2024-06-11_10h10.12.859,LearnStrategy,2023.2.3,Win32,59.88023952,9,1,7,0.010185185,-0.00462963,1,0,0,1.3672,rock_grid_rect_2,4,13,-1,-1,1.367,-0.427777778,-0.237037037,1,0,0,1.4275,Andesite_rect,1,1.428,0,6,0,6,0,1,,,,,,,,,,,,,
6422f34be2b8257efb345837,TCN,2024-06-11_10h10.12.859,LearnStrategy,2023.2.3,Win32,59.88023952,9,1,8,-0.031481481,0,1,0,0,0.8992,rock_grid_rect_2,8,13,-1,-1,0.899,0.409259259,-0.401851852,1,0,0,1.4631,Pumice_rect,8,1.463,1,7,0,7,0,1,,,,,,,,,,,,,
6422f34be2b8257efb345837,TCN,2024-06-11_10h10.12.859,LearnStrategy,2023.2.3,Win32,59.88023952,9,1,9,0.05462963,0.00462963,1,0,0,0.9504,rock_grid_rect_2,3,15,-1,-1,0.95,-0.401851852,-0.244444444,1,0,0,1.2008,Andesite_rect,1,1.201,0,8,0,8,0,1,,,,,,,,,,,,,
6422f34be2b8257efb345837,TCN,2024-06-11_10h10.12.859,LearnStrategy,2023.2.3,Win32,59.88023952,9,1,10,0.036111111,-0.003703704,1,0,0,0.8498,rock_grid_rect_2,6,03,-1,-1,0.85,-0.110185185,-0.390740741,1,0,0,1.8193,Pegmatite_rect,6,1.819,1,9,0,9,0,1,,,,,,,,,,,,,
6422f34be2b8257efb345837,TCN,2024-06-11_10h10.12.859,LearnStrategy,2023.2.3,Win32,59.88023952,9,1,11,0.035185185,-0.012037037,1,0,0,0.9027,rock_grid_rect_2,5,07,-1,-1,0.903,-0.406481481,-0.418518519,1,0,0,1.1666,Obsidian_rect,5,1.167,1,10,0,10,0,1,,,,,,,,,,,,,
6422f34be2b8257efb345837,TCN,2024-06-11_10h10.12.859,LearnStrategy,2023.2.3,Win32,59.88023952,9,1,12,0.011111111,-0.013888889,1,0,0,0.8659,rock_grid_rect_2,1,02,-1,-1,0.866,-0.403703704,-0.239814815,1,0,0,1.738,Andesite_rect,1,1.738,1,11,0,11,0,1,,,,,,,,,,,,,
6422f34be2b8257efb345837,TCN,2024-06-11_10h10.12.859,LearnStrategy,2023.2.3,Win32,59.88023952,9,1,13,-0.076851852,0.012962963,1,0,0,0.8864,rock_grid_rect_2,2,16,-1,-1,0.886,-0.15,-0.228703704,1,0,0,1.1734,Basalt_rect,2,1.173,1,12,0,12,0,1,,,,,,,,,,,,,
6422f34be2b8257efb345837,TCN,2024-06-11_10h10.12.859,LearnStrategy,2023.2.3,Win32,59.88023952,9,1,14,-0.051851852,0.00462963,1,0,0,0.8311,rock_grid_rect_2,8,06,-1,-1,0.831,0.368518519,-0.392592593,1,0,0,1.0384,Pumice_rect,8,1.038,1,13,0,13,0,1,,,,,,,,,,,,,
6422f34be2b8257efb345837,TCN,2024-06-11_10h10.12.859,LearnStrategy,2023.2.3,Win32,59.88023952,9,1,15,-0.005555556,-0.005555556,1,0,0,0.7139,rock_grid_rect_2,2,04,-1,-1,0.714,0.100925926,-0.235185185,1,0,0,1.5788,Diorite_rect,3,1.579,0,14,0,14,0,1,,,,,,,,,,,,,
6422f34be2b8257efb345837,TCN,2024-06-11_10h10.12.859,LearnStrategy,2023.2.3,Win32,59.88023952,9,1,16,0.030555556,0.016666667,1,0,0,0.7485,rock_grid_rect_2,4,05,-1,-1,0.749,0.139814815,-0.233333333,1,0,0,1.197,Diorite_rect,3,1.197,0,15,0,15,0,1,,,,,,,,,,,,,
6422f34be2b8257efb345837,TCN,2024-06-11_10h10.12.859,LearnStrategy,2023.2.3,Win32,59.88023952,9,2,1,,,,,,,,5,05,,,,,,,,,,,5,8.764,1,,,,,,-0.406481481,-0.410185185,1,0,0,8.7635,Obsidian_rect,0,0,0,0,1,
6422f34be2b8257efb345837,TCN,2024-06-11_10h10.12.859,LearnStrategy,2023.2.3,Win32,59.88023952,9,2,2,,,,,,,,3,16,,,,,,,,,,,1,1.178,0,,,,,,-0.369444444,-0.250925926,1,0,0,1.1781,Andesite_rect,1,0,1,0,1,
6422f34be2b8257efb345837,TCN,2024-06-11_10h10.12.859,LearnStrategy,2023.2.3,Win32,59.88023952,9,2,3,,,,,,,,5,14,,,,,,,,,,,4,9.538,0,,,,,,0.453703704,-0.261111111,1,0,0,9.538,Gabbro_rect,2,0,2,0,1,
6422f34be2b8257efb345837,TCN,2024-06-11_10h10.12.859,LearnStrategy,2023.2.3,Win32,59.88023952,9,2,4,,,,,,,,6,11,,,,,,,,,,,6,3.426,1,,,,,,-0.094444444,-0.409259259,1,0,0,3.4257,Pegmatite_rect,3,0,3,0,1,
6422f34be2b8257efb345837,TCN,2024-06-11_10h10.12.859,LearnStrategy,2023.2.3,Win32,59.88023952,9,2,5,,,,,,,,4,03,,,,,,,,,,,1,2.871,0,,,,,,-0.343518519,-0.230555556,1,0,0,2.8714,Andesite_rect,4,0,4,0,1,
6422f34be2b8257efb345837,TCN,2024-06-11_10h10.12.859,LearnStrategy,2023.2.3,Win32,59.88023952,9,2,6,,,,,,,,4,10,,,,,,,,,,,3,1.664,0,,,,,,0.146296296,-0.271296296,1,0,0,1.6635,Diorite_rect,5,0,5,0,1,
6422f34be2b8257efb345837,TCN,2024-06-11_10h10.12.859,LearnStrategy,2023.2.3,Win32,59.88023952,9,2,7,,,,,,,,6,12,,,,,,,,,,,6,10.871,1,,,,,,-0.102777778,-0.387037037,1,0,0,10.8706,Pegmatite_rect,6,0,6,0,1,
6422f34be2b8257efb345837,TCN,2024-06-11_10h10.12.859,LearnStrategy,2023.2.3,Win32,59.88023952,9,2,8,,,,,,,,1,05,,,,,,,,,,,1,8.669,1,,,,,,-0.37037037,-0.243518519,1,0,0,8.6692,Andesite_rect,7,0,7,0,1,
6422f34be2b8257efb345837,TCN,2024-06-11_10h10.12.859,LearnStrategy,2023.2.3,Win32,59.88023952,9,2,9,,,,,,,,2,06,,,,,,,,,,,2,1.75,1,,,,,,-0.078703704,-0.266666667,1,0,0,1.75,Basalt_rect,8,0,8,0,1,
6422f34be2b8257efb345837,TCN,2024-06-11_10h10.12.859,LearnStrategy,2023.2.3,Win32,59.88023952,9,2,10,,,,,,,,8,08,,,,,,,,,,,8,1.361,1,,,,,,0.431481481,-0.386111111,1,0,0,1.3606,Pumice_rect,9,0,9,0,1,
6422f34be2b8257efb345837,TCN,2024-06-11_10h10.12.859,LearnStrategy,2023.2.3,Win32,59.88023952,9,2,11,,,,,,,,2,02,,,,,,,,,,,2,0.956,1,,,,,,-0.123148148,-0.250925926,1,0,0,0.9556,Basalt_rect,10,0,10,0,1,
6422f34be2b8257efb345837,TCN,2024-06-11_10h10.12.859,LearnStrategy,2023.2.3,Win32,59.88023952,9,2,12,,,,,,,,3,13,,,,,,,,,,,1,3.964,0,,,,,,-0.35,-0.248148148,1,0,0,3.9637,Andesite_rect,11,0,11,0,1,
6422f34be2b8257efb345837,TCN,2024-06-11_10h10.12.859,LearnStrategy,2023.2.3,Win32,59.88023952,9,2,13,,,,,,,,8,02,,,,,,,,,,,8,1.114,1,,,,,,0.450925926,-0.412037037,1,0,0,1.1144,Pumice_rect,12,0,12,0,1,
6422f34be2b8257efb345837,TCN,2024-06-11_10h10.12.859,LearnStrategy,2023.2.3,Win32,59.88023952,9,2,14,,,,,,,,7,13,,,,,,,,,,,7,1.045,1,,,,,,0.15,-0.402777778,1,0,0,1.0449,Peridotite_rect,13,0,13,0,1,
6422f34be2b8257efb345837,TCN,2024-06-11_10h10.12.859,LearnStrategy,2023.2.3,Win32,59.88023952,9,2,15,,,,,,,,1,07,,,,,,,,,,,3,6.115,0,,,,,,0.161111111,-0.259259259,1,0,0,6.1149,Diorite_rect,14,0,14,0,1,
6422f34be2b8257efb345837,TCN,2024-06-11_10h10.12.859,LearnStrategy,2023.2.3,Win32,59.88023952,9,2,16,,,,,,,,7,06,,,,,,,,,,,7,1.057,1,,,,,,0.123148148,-0.385185185,1,0,0,1.0565,Peridotite_rect,15,0,15,0,1,
6422f34be2b8257efb345837,TCN,2024-06-11_10h10.12.859,LearnStrategy,2023.2.3,Win32,59.88023952,,,,,,,,,,,,,,,,,,,,,,,,,,,,,,,,,,,,,,,,,,,0
6422f34be2b8257efb345837,TCN,2024-06-11_10h10.12.859,LearnStrategy,2023.2.3,Win32,59.88023952,,,,,,,,,,,,,,,,,,,,,,,,,,,,,,,,,,,,,,,,,,,
6422f34be2b8257efb345837,TCN,2024-06-11_10h10.12.859,LearnStrategy,2023.2.3,Win32,59.88023952,,,,,,,,,,,6,13,1,1,,,,,,,,,,,,,,,,,,,,,,,,,,,,,
6422f34be2b8257efb345837,TCN,2024-06-11_10h10.12.859,LearnStrategy,2023.2.3,Win32,59.88023952,,,,,,,,,,,8,14,1,2,,,,,,,,,,,,,,,,,,,,,,,,,,,,,
6422f34be2b8257efb345837,TCN,2024-06-11_10h10.12.859,LearnStrategy,2023.2.3,Win32,59.88023952,,,,,,,,,,,8,09,1,3,,,,,,,,,,,,,,,,,,,,,,,,,,,,,
6422f34be2b8257efb345837,TCN,2024-06-11_10h10.12.859,LearnStrategy,2023.2.3,Win32,59.88023952,,,,,,,,,,,4,05,1,4,,,,,,,,,,,,,,,,,,,,,,,,,,,,,
6422f34be2b8257efb345837,TCN,2024-06-11_10h10.12.859,LearnStrategy,2023.2.3,Win32,59.88023952,,,,,,,,,,,7,12,1,5,,,,,,,,,,,,,,,,,,,,,,,,,,,,,
6422f34be2b8257efb345837,TCN,2024-06-11_10h10.12.859,LearnStrategy,2023.2.3,Win32,59.88023952,,,,,,,,,,,6,03,1,6,,,,,,,,,,,,,,,,,,,,,,,,,,,,,
6422f34be2b8257efb345837,TCN,2024-06-11_10h10.12.859,LearnStrategy,2023.2.3,Win32,59.88023952,,,,,,,,,,,2,16,1,7,,,,,,,,,,,,,,,,,,,,,,,,,,,,,
6422f34be2b8257efb345837,TCN,2024-06-11_10h10.12.859,LearnStrategy,2023.2.3,Win32,59.88023952,,,,,,,,,,,3,15,1,8,,,,,,,,,,,,,,,,,,,,,,,,,,,,,
6422f34be2b8257efb345837,TCN,2024-06-11_10h10.12.859,LearnStrategy,2023.2.3,Win32,59.88023952,,,,,,,,,,,1,04,2,1,,,,,,,,,,,,,,,,,,,,,,,,,,,,,
6422f34be2b8257efb345837,TCN,2024-06-11_10h10.12.859,LearnStrategy,2023.2.3,Win32,59.88023952,,,,,,,,,,,4,13,2,2,,,,,,,,,,,,,,,,,,,,,,,,,,,,,
6422f34be2b8257efb345837,TCN,2024-06-11_10h10.12.859,LearnStrategy,2023.2.3,Win32,59.88023952,,,,,,,,,,,6,08,2,3,,,,,,,,,,,,,,,,,,,,,,,,,,,,,
6422f34be2b8257efb345837,TCN,2024-06-11_10h10.12.859,LearnStrategy,2023.2.3,Win32,59.88023952,,,,,,,,,,,6,05,2,4,,,,,,,,,,,,,,,,,,,,,,,,,,,,,
6422f34be2b8257efb345837,TCN,2024-06-11_10h10.12.859,LearnStrategy,2023.2.3,Win32,59.88023952,,,,,,,,,,,3,10,2,5,,,,,,,,,,,,,,,,,,,,,,,,,,,,,
6422f34be2b8257efb345837,TCN,2024-06-11_10h10.12.859,LearnStrategy,2023.2.3,Win32,59.88023952,,,,,,,,,,,2,04,2,6,,,,,,,,,,,,,,,,,,,,,,,,,,,,,
6422f34be2b8257efb345837,TCN,2024-06-11_10h10.12.859,LearnStrategy,2023.2.3,Win32,59.88023952,,,,,,,,,,,4,14,2,7,,,,,,,,,,,,,,,,,,,,,,,,,,,,,
6422f34be2b8257efb345837,TCN,2024-06-11_10h10.12.859,LearnStrategy,2023.2.3,Win32,59.88023952,,,,,,,,,,,7,04,2,8,,,,,,,,,,,,,,,,,,,,,,,,,,,,,
6422f34be2b8257efb345837,TCN,2024-06-11_10h10.12.859,LearnStrategy,2023.2.3,Win32,59.88023952,,,,,,,,,,,5,04,3,1,,,,,,,,,,,,,,,,,,,,,,,,,,,,,
6422f34be2b8257efb345837,TCN,2024-06-11_10h10.12.859,LearnStrategy,2023.2.3,Win32,59.88023952,,,,,,,,,,,3,06,3,2,,,,,,,,,,,,,,,,,,,,,,,,,,,,,
6422f34be2b8257efb345837,TCN,2024-06-11_10h10.12.859,LearnStrategy,2023.2.3,Win32,59.88023952,,,,,,,,,,,2,08,3,3,,,,,,,,,,,,,,,,,,,,,,,,,,,,,
6422f34be2b8257efb345837,TCN,2024-06-11_10h10.12.859,LearnStrategy,2023.2.3,Win32,59.88023952,,,,,,,,,,,1,06,3,4,,,,,,,,,,,,,,,,,,,,,,,,,,,,,
6422f34be2b8257efb345837,TCN,2024-06-11_10h10.12.859,LearnStrategy,2023.2.3,Win32,59.88023952,,,,,,,,,,,4,12,3,5,,,,,,,,,,,,,,,,,,,,,,,,,,,,,
6422f34be2b8257efb345837,TCN,2024-06-11_10h10.12.859,LearnStrategy,2023.2.3,Win32,59.88023952,,,,,,,,,,,4,16,3,6,,,,,,,,,,,,,,,,,,,,,,,,,,,,,
6422f34be2b8257efb345837,TCN,2024-06-11_10h10.12.859,LearnStrategy,2023.2.3,Win32,59.88023952,,,,,,,,,,,6,09,3,7,,,,,,,,,,,,,,,,,,,,,,,,,,,,,
6422f34be2b8257efb345837,TCN,2024-06-11_10h10.12.859,LearnStrategy,2023.2.3,Win32,59.88023952,,,,,,,,,,,7,16,3,8,,,,,,,,,,,,,,,,,,,,,,,,,,,,,
6422f34be2b8257efb345837,TCN,2024-06-11_10h10.12.859,LearnStrategy,2023.2.3,Win32,59.88023952,,,,,,,,,,,5,06,4,1,,,,,,,,,,,,,,,,,,,,,,,,,,,,,
6422f34be2b8257efb345837,TCN,2024-06-11_10h10.12.859,LearnStrategy,2023.2.3,Win32,59.88023952,,,,,,,,,,,1,01,4,2,,,,,,,,,,,,,,,,,,,,,,,,,,,,,
6422f34be2b8257efb345837,TCN,2024-06-11_10h10.12.859,LearnStrategy,2023.2.3,Win32,59.88023952,,,,,,,,,,,1,02,4,3,,,,,,,,,,,,,,,,,,,,,,,,,,,,,
6422f34be2b8257efb345837,TCN,2024-06-11_10h10.12.859,LearnStrategy,2023.2.3,Win32,59.88023952,,,,,,,,,,,7,07,4,4,,,,,,,,,,,,,,,,,,,,,,,,,,,,,
6422f34be2b8257efb345837,TCN,2024-06-11_10h10.12.859,LearnStrategy,2023.2.3,Win32,59.88023952,,,,,,,,,,,5,16,4,5,,,,,,,,,,,,,,,,,,,,,,,,,,,,,
6422f34be2b8257efb345837,TCN,2024-06-11_10h10.12.859,LearnStrategy,2023.2.3,Win32,59.88023952,,,,,,,,,,,5,08,4,6,,,,,,,,,,,,,,,,,,,,,,,,,,,,,
6422f34be2b8257efb345837,TCN,2024-06-11_10h10.12.859,LearnStrategy,2023.2.3,Win32,59.88023952,,,,,,,,,,,1,11,4,7,,,,,,,,,,,,,,,,,,,,,,,,,,,,,
6422f34be2b8257efb345837,TCN,2024-06-11_10h10.12.859,LearnStrategy,2023.2.3,Win32,59.88023952,,,,,,,,,,,3,09,4,8,,,,,,,,,,,,,,,,,,,,,,,,,,,,,
6422f34be2b8257efb345837,TCN,2024-06-11_10h10.12.859,LearnStrategy,2023.2.3,Win32,59.88023952,,,,,,,,,,,5,02,5,1,,,,,,,,,,,,,,,,,,,,,,,,,,,,,
6422f34be2b8257efb345837,TCN,2024-06-11_10h10.12.859,LearnStrategy,2023.2.3,Win32,59.88023952,,,,,,,,,,,2,11,5,2,,,,,,,,,,,,,,,,,,,,,,,,,,,,,
6422f34be2b8257efb345837,TCN,2024-06-11_10h10.12.859,LearnStrategy,2023.2.3,Win32,59.88023952,,,,,,,,,,,3,07,5,3,,,,,,,,,,,,,,,,,,,,,,,,,,,,,
6422f34be2b8257efb345837,TCN,2024-06-11_10h10.12.859,LearnStrategy,2023.2.3,Win32,59.88023952,,,,,,,,,,,2,10,5,4,,,,,,,,,,,,,,,,,,,,,,,,,,,,,
6422f34be2b8257efb345837,TCN,2024-06-11_10h10.12.859,LearnStrategy,2023.2.3,Win32,59.88023952,,,,,,,,,,,8,06,5,5,,,,,,,,,,,,,,,,,,,,,,,,,,,,,
6422f34be2b8257efb345837,TCN,2024-06-11_10h10.12.859,LearnStrategy,2023.2.3,Win32,59.88023952,,,,,,,,,,,3,02,5,6,,,,,,,,,,,,,,,,,,,,,,,,,,,,,
6422f34be2b8257efb345837,TCN,2024-06-11_10h10.12.859,LearnStrategy,2023.2.3,Win32,59.88023952,,,,,,,,,,,6,07,5,7,,,,,,,,,,,,,,,,,,,,,,,,,,,,,
6422f34be2b8257efb345837,TCN,2024-06-11_10h10.12.859,LearnStrategy,2023.2.3,Win32,59.88023952,,,,,,,,,,,2,09,5,8,,,,,,,,,,,,,,,,,,,,,,,,,,,,,
6422f34be2b8257efb345837,TCN,2024-06-11_10h10.12.859,LearnStrategy,2023.2.3,Win32,59.88023952,,,,,,,,,,,8,13,6,1,,,,,,,,,,,,,,,,,,,,,,,,,,,,,
6422f34be2b8257efb345837,TCN,2024-06-11_10h10.12.859,LearnStrategy,2023.2.3,Win32,59.88023952,,,,,,,,,,,8,05,6,2,,,,,,,,,,,,,,,,,,,,,,,,,,,,,
6422f34be2b8257efb345837,TCN,2024-06-11_10h10.12.859,LearnStrategy,2023.2.3,Win32,59.88023952,,,,,,,,,,,7,15,6,3,,,,,,,,,,,,,,,,,,,,,,,,,,,,,
6422f34be2b8257efb345837,TCN,2024-06-11_10h10.12.859,LearnStrategy,2023.2.3,Win32,59.88023952,,,,,,,,,,,8,10,6,4,,,,,,,,,,,,,,,,,,,,,,,,,,,,,
6422f34be2b8257efb345837,TCN,2024-06-11_10h10.12.859,LearnStrategy,2023.2.3,Win32,59.88023952,,,,,,,,,,,1,14,6,5,,,,,,,,,,,,,,,,,,,,,,,,,,,,,
6422f34be2b8257efb345837,TCN,2024-06-11_10h10.12.859,LearnStrategy,2023.2.3,Win32,59.88023952,,,,,,,,,,,7,05,6,6,,,,,,,,,,,,,,,,,,,,,,,,,,,,,
6422f34be2b8257efb345837,TCN,2024-06-11_10h10.12.859,LearnStrategy,2023.2.3,Win32,59.88023952,,,,,,,,,,,4,08,6,7,,,,,,,,,,,,,,,,,,,,,,,,,,,,,
6422f34be2b8257efb345837,TCN,2024-06-11_10h10.12.859,LearnStrategy,2023.2.3,Win32,59.88023952,,,,,,,,,,,5,07,6,8,,,,,,,,,,,,,,,,,,,,,,,,,,,,,