participant,condition,date,expName,psychopyVersion,OS,frameRate,block,phase,trial,learn_mouse_2.x,learn_mouse_2.y,learn_mouse_2.leftButton,learn_mouse_2.midButton,learn_mouse_2.rightButton,learn_mouse_2.time,learn_mouse_2.clicked_name,cat,token,row,col,t_select,cat_mouse_l.x,cat_mouse_l.y,cat_mouse_l.leftButton,cat_mouse_l.midButton,cat_mouse_l.rightButton,cat_mouse_l.time,cat_mouse_l.clicked_name,resp,t_resp,corr,train_trials.thisRepN,train_trials.thisTrialN,train_trials.thisN,train_trials.thisIndex,train_trials.ran,cat_mouse_t.x,cat_mouse_t.y,cat_mouse_t.leftButton,cat_mouse_t.midButton,cat_mouse_t.rightButton,cat_mouse_t.time,cat_mouse_t.clicked_name,test_trials.thisRepN,test_trials.thisTrialN,test_trials.thisN,test_trials.thisIndex,test_trials.ran,Bonus
64226a9ac7739618beeee60d,TCR,2024-06-11_10h33.12.960,LearnStrategy,2023.2.3,Win32,144.9275362,,,,,,,,,,,,,,,,,,,,,,,,,,,,,,,,,,,,,,,,,,,
64226a9ac7739618beeee60d,TCR,2024-06-11_10h33.12.960,LearnStrategy,2023.2.3,Win32,144.9275362,1,1,1,0.029305573,-0.004166679,1,0,0,2.7627,rock_grid_rect_2,3,13,-1,-1,2.763,-0.323472214,-0.248611145,1,0,0,4.0011,Andesite_rect,1,4.001,0,0,0,0,0,1,,,,,,,,,,,,,
64226a9ac7739618beeee60d,TCR,2024-06-11_10h33.12.960,LearnStrategy,2023.2.3,Win32,144.9275362,1,1,2,-0.044305496,-0.008333359,1,0,0,1.8114,rock_grid_rect_2,1,04,-1,-1,1.811,-0.380416641,-0.2625,1,0,0,2.579,Andesite_rect,1,2.579,1,1,0,1,0,1,,,,,,,,,,,,,
64226a9ac7739618beeee60d,TCR,2024-06-11_10h33.12.960,LearnStrategy,2023.2.3,Win32,144.9275362,1,1,3,0.041805573,0.018055534,1,0,0,1.4645,rock_grid_rect_2,5,08,-1,-1,1.465,-0.322083321,-0.400000153,1,0,0,2.3277,Obsidian_rect,5,2.328,1,2,0,2,0,1,,,,,,,,,,,,,
64226a9ac7739618beeee60d,TCR,2024-06-11_10h33.12.960,LearnStrategy,2023.2.3,Win32,144.9275362,1,1,4,-0.040138855,0.012499924,1,0,0,1.4043,rock_grid_rect_2,2,09,-1,-1,1.404,0.350138931,-0.418055573,1,0,0,2.0631,Pumice_rect,8,2.063,0,3,0,3,0,1,,,,,,,,,,,,,
64226a9ac7739618beeee60d,TCR,2024-06-11_10h33.12.960,LearnStrategy,2023.2.3,Win32,144.9275362,1,1,5,0.032083359,-0.008333359,1,0,0,0.9993,rock_grid_rect_2,7,02,-1,-1,0.999,-0.104027634,-0.401388931,1,0,0,3.4757,Pegmatite_rect,6,3.476,0,4,0,4,0,1,,,,,,,,,,,,,
64226a9ac7739618beeee60d,TCR,2024-06-11_10h33.12.960,LearnStrategy,2023.2.3,Win32,144.9275362,1,1,6,-0.052638855,-0.005555573,1,0,0,1.0335,rock_grid_rect_2,5,14,-1,-1,1.034,-0.384583321,-0.418055573,1,0,0,1.3616,Obsidian_rect,5,1.362,1,5,0,5,0,1,,,,,,,,,,,,,
64226a9ac7739618beeee60d,TCR,2024-06-11_10h33.12.960,LearnStrategy,2023.2.3,Win32,144.9275362,1,1,7,0.090416718,0.023611107,1,0,0,0.9571,rock_grid_rect_2,1,11,-1,-1,0.957,0.386250153,-0.247222366,1,0,0,1.5631,Gabbro_rect,4,1.563,0,6,0,6,0,1,,,,,,,,,,,,,
64226a9ac7739618beeee60d,TCR,2024-06-11_10h33.12.960,LearnStrategy,2023.2.3,Win32,144.9275362,1,1,8,0.039027786,-0.020833359,1,0,0,0.9017,rock_grid_rect_2,7,07,-1,-1,0.902,-0.109583282,-0.420833359,1,0,0,3.3554,Pegmatite_rect,6,3.355,0,7,0,7,0,1,,,,,,,,,,,,,
64226a9ac7739618beeee60d,TCR,2024-06-11_10h33.12.960,LearnStrategy,2023.2.3,Win32,144.9275362,1,1,9,0.043194504,0.004166641,1,0,0,0.9244,rock_grid_rect_2,3,02,-1,-1,0.924,0.147361145,-0.244444504,1,0,0,1.1094,Diorite_rect,3,1.109,1,8,0,8,0,1,,,,,,,,,,,,,
64226a9ac7739618beeee60d,TCR,2024-06-11_10h33.12.960,LearnStrategy,2023.2.3,Win32,144.9275362,1,1,10,-0.012361069,0.004166641,1,0,0,1.2713,rock_grid_rect_2,8,09,-1,-1,1.271,0.348750153,-0.419444504,1,0,0,1.4257,Pumice_rect,8,1.426,1,9,0,9,0,1,,,,,,,,,,,,,
64226a9ac7739618beeee60d,TCR,2024-06-11_10h33.12.960,LearnStrategy,2023.2.3,Win32,144.9275362,1,1,11,0.015416718,0.018055534,1,0,0,0.9368,rock_grid_rect_2,4,15,-1,-1,0.937,0.389027939,-0.248611145,1,0,0,2.2811,Gabbro_rect,4,2.281,1,10,0,10,0,1,,,,,,,,,,,,,
64226a9ac7739618beeee60d,TCR,2024-06-11_10h33.12.960,LearnStrategy,2023.2.3,Win32,144.9275362,1,1,12,0.065416718,-0.023611145,1,0,0,0.9848,rock_grid_rect_2,6,09,-1,-1,0.985,0.079305573,-0.400000153,1,0,0,1.8256,Peridotite_rect,7,1.826,0,11,0,11,0,1,,,,,,,,,,,,,
64226a9ac7739618beeee60d,TCR,2024-06-11_10h33.12.960,LearnStrategy,2023.2.3,Win32,144.9275362,1,1,13,0.016805573,-0.009722252,1,0,0,0.8118,rock_grid_rect_2,4,08,-1,-1,0.812,-0.424861107,-0.252777786,1,0,0,2.2465,Andesite_rect,1,2.246,0,12,0,12,0,1,,,,,,,,,,,,,
64226a9ac7739618beeee60d,TCR,2024-06-11_10h33.12.960,LearnStrategy,2023.2.3,Win32,144.9275362,1,1,14,-0.019305496,0.004166641,1,0,0,1.1173,rock_grid_rect_2,2,06,-1,-1,1.117,0.379305725,-0.247222366,1,0,0,5.4481,Gabbro_rect,4,5.448,0,13,0,13,0,1,,,,,,,,,,,,,
64226a9ac7739618beeee60d,TCR,2024-06-11_10h33.12.960,LearnStrategy,2023.2.3,Win32,144.9275362,1,1,15,0.066805573,0.013888855,1,0,0,0.708,rock_grid_rect_2,8,10,-1,-1,0.708,0.40847229,-0.409722366,1,0,0,1.9315,Pumice_rect,8,1.931,1,14,0,14,0,1,,,,,,,,,,,,,
64226a9ac7739618beeee60d,TCR,2024-06-11_10h33.12.960,LearnStrategy,2023.2.3,Win32,144.9275362,1,1,16,0.005694504,0.006944427,1,0,0,1.0132,rock_grid_rect_2,6,15,-1,-1,1.013,-0.165138855,-0.270833359,1,0,0,1.7799,Basalt_rect,2,1.78,0,15,0,15,0,1,,,,,,,,,,,,,
64226a9ac7739618beeee60d,TCR,2024-06-11_10h33.12.960,LearnStrategy,2023.2.3,Win32,144.9275362,1,2,1,,,,,,,,3,15,,,,,,,,,,,3,4.216,1,,,,,,0.14597229,-0.259722366,1,0,0,4.2157,Diorite_rect,0,0,0,0,1,
64226a9ac7739618beeee60d,TCR,2024-06-11_10h33.12.960,LearnStrategy,2023.2.3,Win32,144.9275362,1,2,2,,,,,,,,2,10,,,,,,,,,,,4,3.043,0,,,,,,0.45569458,-0.252777786,1,0,0,3.0428,Gabbro_rect,1,0,1,0,1,
64226a9ac7739618beeee60d,TCR,2024-06-11_10h33.12.960,LearnStrategy,2023.2.3,Win32,144.9275362,1,2,3,,,,,,,,8,03,,,,,,,,,,,8,1.653,1,,,,,,0.400139008,-0.386111145,1,0,0,1.6534,Pumice_rect,2,0,2,0,1,
64226a9ac7739618beeee60d,TCR,2024-06-11_10h33.12.960,LearnStrategy,2023.2.3,Win32,144.9275362,1,2,4,,,,,,,,6,07,,,,,,,,,,,7,3.479,0,,,,,,0.122361145,-0.408333359,1,0,0,3.4789,Peridotite_rect,3,0,3,0,1,
64226a9ac7739618beeee60d,TCR,2024-06-11_10h33.12.960,LearnStrategy,2023.2.3,Win32,144.9275362,1,2,5,,,,,,,,4,14,,,,,,,,,,,2,3.198,0,,,,,,-0.072083282,-0.256944504,1,0,0,3.1981,Basalt_rect,4,0,4,0,1,
64226a9ac7739618beeee60d,TCR,2024-06-11_10h33.12.960,LearnStrategy,2023.2.3,Win32,144.9275362,1,2,6,,,,,,,,7,10,,,,,,,,,,,6,2.99,0,,,,,,-0.10125,-0.387500153,1,0,0,2.9902,Pegmatite_rect,5,0,5,0,1,
64226a9ac7739618beeee60d,TCR,2024-06-11_10h33.12.960,LearnStrategy,2023.2.3,Win32,144.9275362,1,2,7,,,,,,,,1,09,,,,,,,,,,,1,2.983,1,,,,,,-0.381805534,-0.268055573,1,0,0,2.9834,Andesite_rect,6,0,6,0,1,
64226a9ac7739618beeee60d,TCR,2024-06-11_10h33.12.960,LearnStrategy,2023.2.3,Win32,144.9275362,1,2,8,,,,,,,,2,14,,,,,,,,,,,4,1.497,0,,,,,,0.437639008,-0.247222366,1,0,0,1.4973,Gabbro_rect,7,0,7,0,1,
64226a9ac7739618beeee60d,TCR,2024-06-11_10h33.12.960,LearnStrategy,2023.2.3,Win32,144.9275362,1,2,9,,,,,,,,5,09,,,,,,,,,,,5,1.209,1,,,,,,-0.440138817,-0.406944504,1,0,0,1.2091,Obsidian_rect,8,0,8,0,1,
64226a9ac7739618beeee60d,TCR,2024-06-11_10h33.12.960,LearnStrategy,2023.2.3,Win32,144.9275362,1,2,10,,,,,,,,4,01,,,,,,,,,,,7,4.934,0,,,,,,0.134861145,-0.416666718,1,0,0,4.9341,Peridotite_rect,9,0,9,0,1,
64226a9ac7739618beeee60d,TCR,2024-06-11_10h33.12.960,LearnStrategy,2023.2.3,Win32,144.9275362,1,2,11,,,,,,,,1,06,,,,,,,,,,,1,1.565,1,,,,,,-0.381805534,-0.261111145,1,0,0,1.5653,Andesite_rect,10,0,10,0,1,
64226a9ac7739618beeee60d,TCR,2024-06-11_10h33.12.960,LearnStrategy,2023.2.3,Win32,144.9275362,1,2,12,,,,,,,,8,08,,,,,,,,,,,8,1.079,1,,,,,,0.40847229,-0.401388931,1,0,0,1.0792,Pumice_rect,11,0,11,0,1,
64226a9ac7739618beeee60d,TCR,2024-06-11_10h33.12.960,LearnStrategy,2023.2.3,Win32,144.9275362,1,2,13,,,,,,,,3,06,,,,,,,,,,,2,1.607,0,,,,,,-0.209583282,-0.244444504,1,0,0,1.6072,Basalt_rect,12,0,12,0,1,
64226a9ac7739618beeee60d,TCR,2024-06-11_10h33.12.960,LearnStrategy,2023.2.3,Win32,144.9275362,1,2,14,,,,,,,,5,05,,,,,,,,,,,5,1.097,1,,,,,,-0.430416641,-0.413888931,1,0,0,1.0973,Obsidian_rect,13,0,13,0,1,
64226a9ac7739618beeee60d,TCR,2024-06-11_10h33.12.960,LearnStrategy,2023.2.3,Win32,144.9275362,1,2,15,,,,,,,,7,14,,,,,,,,,,,6,1.801,0,,,,,,-0.084583282,-0.402777786,1,0,0,1.8013,Pegmatite_rect,14,0,14,0,1,
64226a9ac7739618beeee60d,TCR,2024-06-11_10h33.12.960,LearnStrategy,2023.2.3,Win32,144.9275362,1,2,16,,,,,,,,6,10,,,,,,,,,,,7,0.959,0,,,,,,0.139027939,-0.397222366,1,0,0,0.9589,Peridotite_rect,15,0,15,0,1,
64226a9ac7739618beeee60d,TCR,2024-06-11_10h33.12.960,LearnStrategy,2023.2.3,Win32,144.9275362,2,1,1,-0.031805496,0.004166641,1,0,0,1.4784,rock_grid_rect_2,4,15,-1,-1,1.478,-0.060972214,-0.25,1,0,0,1.6902,Basalt_rect,2,1.69,0,0,0,0,0,1,,,,,,,,,,,,,
64226a9ac7739618beeee60d,TCR,2024-06-11_10h33.12.960,LearnStrategy,2023.2.3,Win32,144.9275362,2,1,2,0.076527786,0.020833321,1,0,0,1.5004,rock_grid_rect_2,4,08,-1,-1,1.5,-0.365138855,-0.248611145,1,0,0,1.5033,Andesite_rect,1,1.503,0,1,0,1,0,1,,,,,,,,,,,,,
64226a9ac7739618beeee60d,TCR,2024-06-11_10h33.12.960,LearnStrategy,2023.2.3,Win32,144.9275362,2,1,3,0.066805573,0.012499924,1,0,0,1.1669,rock_grid_rect_2,2,09,-1,-1,1.167,-0.070694427,-0.251388931,1,0,0,5.5358,Basalt_rect,2,5.536,1,2,0,2,0,1,,,,,,,,,,,,,
64226a9ac7739618beeee60d,TCR,2024-06-11_10h33.12.960,LearnStrategy,2023.2.3,Win32,144.9275362,2,1,4,0.052916718,0.005555534,1,0,0,0.8178,rock_grid_rect_2,2,16,-1,-1,0.818,0.41125,-0.252777786,1,0,0,2.5451,Gabbro_rect,4,2.545,0,3,0,3,0,1,,,,,,,,,,,,,
64226a9ac7739618beeee60d,TCR,2024-06-11_10h33.12.960,LearnStrategy,2023.2.3,Win32,144.9275362,2,1,5,0.064027786,-0.001388969,1,0,0,6.1109,rock_grid_rect_2,7,06,-1,-1,6.111,0.17097229,-0.391666718,1,0,0,1.4334,Peridotite_rect,7,1.433,1,4,0,4,0,1,,,,,,,,,,,,,
64226a9ac7739618beeee60d,TCR,2024-06-11_10h33.12.960,LearnStrategy,2023.2.3,Win32,144.9275362,2,1,6,0.011250153,-0.016666679,1,0,0,1.0484,rock_grid_rect_2,2,09,-1,-1,1.048,0.407083435,-0.261111145,1,0,0,6.745,Gabbro_rect,4,6.745,0,5,0,5,0,1,,,,,,,,,,,,,
64226a9ac7739618beeee60d,TCR,2024-06-11_10h33.12.960,LearnStrategy,2023.2.3,Win32,144.9275362,2,1,7,0.016805573,0.009722214,1,0,0,1.2086,rock_grid_rect_2,2,08,-1,-1,1.209,-0.427638817,-0.415277786,1,0,0,2.4406,Obsidian_rect,5,2.441,0,6,0,6,0,1,,,,,,,,,,,,,
64226a9ac7739618beeee60d,TCR,2024-06-11_10h33.12.960,LearnStrategy,2023.2.3,Win32,144.9275362,2,1,8,0.086250153,-0.002777786,1,0,0,1.1532,rock_grid_rect_2,7,02,-1,-1,1.153,-0.099861069,-0.411111145,1,0,0,2.7855,Pegmatite_rect,6,2.785,0,7,0,7,0,1,,,,,,,,,,,,,
64226a9ac7739618beeee60d,TCR,2024-06-11_10h33.12.960,LearnStrategy,2023.2.3,Win32,144.9275362,2,1,9,0.119583359,-0.022222252,1,0,0,0.8336,rock_grid_rect_2,6,09,-1,-1,0.834,0.119583359,-0.415277786,1,0,0,1.1838,Peridotite_rect,7,1.184,0,8,0,8,0,1,,,,,,,,,,,,,
64226a9ac7739618beeee60d,TCR,2024-06-11_10h33.12.960,LearnStrategy,2023.2.3,Win32,144.9275362,2,1,10,0.075138931,-0.016666679,1,0,0,0.9154,rock_grid_rect_2,1,07,-1,-1,0.915,-0.15125,-0.252777786,1,0,0,1.5517,Basalt_rect,2,1.552,0,9,0,9,0,1,,,,,,,,,,,,,
64226a9ac7739618beeee60d,TCR,2024-06-11_10h33.12.960,LearnStrategy,2023.2.3,Win32,144.9275362,2,1,11,0.077916718,0.008333321,1,0,0,0.9432,rock_grid_rect_2,4,05,-1,-1,0.943,0.41819458,-0.233333359,1,0,0,2.6328,Gabbro_rect,4,2.633,1,10,0,10,0,1,,,,,,,,,,,,,
64226a9ac7739618beeee60d,TCR,2024-06-11_10h33.12.960,LearnStrategy,2023.2.3,Win32,144.9275362,2,1,12,0.036250153,-0.016666679,1,0,0,4.1105,rock_grid_rect_2,6,05,-1,-1,4.111,0.165416718,-0.256944504,1,0,0,2.5792,Diorite_rect,3,2.579,0,11,0,11,0,1,,,,,,,,,,,,,
64226a9ac7739618beeee60d,TCR,2024-06-11_10h33.12.960,LearnStrategy,2023.2.3,Win32,144.9275362,2,1,13,0.041805573,-0.015277786,1,0,0,1.124,rock_grid_rect_2,7,07,-1,-1,1.124,-0.092916641,-0.413888931,1,0,0,1.7117,Pegmatite_rect,6,1.712,0,12,0,12,0,1,,,,,,,,,,,,,
64226a9ac7739618beeee60d,TCR,2024-06-11_10h33.12.960,LearnStrategy,2023.2.3,Win32,144.9275362,2,1,14,0.040416718,-0.012500076,1,0,0,0.6935,rock_grid_rect_2,3,02,-1,-1,0.694,0.101527939,-0.391666718,1,0,0,1.1837,Peridotite_rect,7,1.184,0,13,0,13,0,1,,,,,,,,,,,,,
64226a9ac7739618beeee60d,TCR,2024-06-11_10h33.12.960,LearnStrategy,2023.2.3,Win32,144.9275362,2,1,15,-0.031805496,0.008333321,1,0,0,0.7973,rock_grid_rect_2,3,13,-1,-1,0.797,-0.097083282,-0.25,1,0,0,1.9894,Basalt_rect,2,1.989,0,14,0,14,0,1,,,,,,,,,,,,,
64226a9ac7739618beeee60d,TCR,2024-06-11_10h33.12.960,LearnStrategy,2023.2.3,Win32,144.9275362,2,1,16,0.058472366,0.016666641,1,0,0,0.5821,rock_grid_rect_2,6,05,-1,-1,0.582,0.130694504,-0.245833359,1,0,0,2.1282,Diorite_rect,3,2.128,0,15,0,15,0,1,,,,,,,,,,,,,
64226a9ac7739618beeee60d,TCR,2024-06-11_10h33.12.960,LearnStrategy,2023.2.3,Win32,144.9275362,2,2,1,,,,,,,,3,07,,,,,,,,,,,3,48.348,1,,,,,,0.086250153,-0.252777786,1,0,0,48.3481,Diorite_rect,0,0,0,0,1,
64226a9ac7739618beeee60d,TCR,2024-06-11_10h33.12.960,LearnStrategy,2023.2.3,Win32,144.9275362,2,2,2,,,,,,,,5,16,,,,,,,,,,,5,4.704,1,,,,,,-0.459583321,-0.409722366,1,0,0,4.7043,Obsidian_rect,1,0,1,0,1,
64226a9ac7739618beeee60d,TCR,2024-06-11_10h33.12.960,LearnStrategy,2023.2.3,Win32,144.9275362,2,2,3,,,,,,,,7,05,,,,,,,,,,,7,15.583,1,,,,,,0.070972366,-0.391666718,1,0,0,15.5826,Peridotite_rect,2,0,2,0,1,
64226a9ac7739618beeee60d,TCR,2024-06-11_10h33.12.960,LearnStrategy,2023.2.3,Win32,144.9275362,2,2,4,,,,,,,,5,11,,,,,,,,,,,5,1.199,1,,,,,,-0.440138817,-0.416666718,1,0,0,1.1993,Obsidian_rect,3,0,3,0,1,
64226a9ac7739618beeee60d,TCR,2024-06-11_10h33.12.960,LearnStrategy,2023.2.3,Win32,144.9275362,2,2,5,,,,,,,,3,08,,,,,,,,,,,1,6.694,0,,,,,,-0.360972214,-0.258333359,1,0,0,6.6943,Andesite_rect,4,0,4,0,1,
64226a9ac7739618beeee60d,TCR,2024-06-11_10h33.12.960,LearnStrategy,2023.2.3,Win32,144.9275362,2,2,6,,,,,,,,1,16,,,,,,,,,,,4,2.122,0,,,,,,0.348750153,-0.248611145,1,0,0,2.1221,Gabbro_rect,5,0,5,0,1,
64226a9ac7739618beeee60d,TCR,2024-06-11_10h33.12.960,LearnStrategy,2023.2.3,Win32,144.9275362,2,2,7,,,,,,,,6,06,,,,,,,,,,,4,4.466,0,,,,,,0.361250153,-0.230555573,1,0,0,4.4662,Gabbro_rect,6,0,6,0,1,
64226a9ac7739618beeee60d,TCR,2024-06-11_10h33.12.960,LearnStrategy,2023.2.3,Win32,144.9275362,2,2,8,,,,,,,,4,16,,,,,,,,,,,2,4.531,0,,,,,,-0.169305496,-0.243055573,1,0,0,4.5307,Basalt_rect,7,0,7,0,1,
64226a9ac7739618beeee60d,TCR,2024-06-11_10h33.12.960,LearnStrategy,2023.2.3,Win32,144.9275362,2,2,9,,,,,,,,6,13,,,,,,,,,,,7,5.046,0,,,,,,0.062638931,-0.420833359,1,0,0,5.0464,Peridotite_rect,8,0,8,0,1,
64226a9ac7739618beeee60d,TCR,2024-06-11_10h33.12.960,LearnStrategy,2023.2.3,Win32,144.9275362,2,2,10,,,,,,,,7,13,,,,,,,,,,,7,4.109,1,,,,,,0.125138931,-0.405555573,1,0,0,4.1088,Peridotite_rect,9,0,9,0,1,
64226a9ac7739618beeee60d,TCR,2024-06-11_10h33.12.960,LearnStrategy,2023.2.3,Win32,144.9275362,2,2,11,,,,,,,,4,11,,,,,,,,,,,2,2.72,0,,,,,,-0.037361069,-0.241666718,1,0,0,2.7196,Basalt_rect,10,0,10,0,1,
64226a9ac7739618beeee60d,TCR,2024-06-11_10h33.12.960,LearnStrategy,2023.2.3,Win32,144.9275362,2,2,12,,,,,,,,8,04,,,,,,,,,,,8,1.753,1,,,,,,0.43069458,-0.397222366,1,0,0,1.7531,Pumice_rect,11,0,11,0,1,
64226a9ac7739618beeee60d,TCR,2024-06-11_10h33.12.960,LearnStrategy,2023.2.3,Win32,144.9275362,2,2,13,,,,,,,,2,04,,,,,,,,,,,2,3.4,1,,,,,,-0.141527634,-0.256944504,1,0,0,3.4003,Basalt_rect,12,0,12,0,1,
64226a9ac7739618beeee60d,TCR,2024-06-11_10h33.12.960,LearnStrategy,2023.2.3,Win32,144.9275362,2,2,14,,,,,,,,8,15,,,,,,,,,,,8,3.355,1,,,,,,0.459861145,-0.398611145,1,0,0,3.3549,Pumice_rect,13,0,13,0,1,
64226a9ac7739618beeee60d,TCR,2024-06-11_10h33.12.960,LearnStrategy,2023.2.3,Win32,144.9275362,2,2,15,,,,,,,,2,02,,,,,,,,,,,2,3.118,1,,,,,,-0.116527634,-0.233333359,1,0,0,3.1182,Basalt_rect,14,0,14,0,1,
64226a9ac7739618beeee60d,TCR,2024-06-11_10h33.12.960,LearnStrategy,2023.2.3,Win32,144.9275362,2,2,16,,,,,,,,1,10,,,,,,,,,,,4,1.608,0,,,,,,0.379305725,-0.241666718,1,0,0,1.6085,Gabbro_rect,15,0,15,0,1,
64226a9ac7739618beeee60d,TCR,2024-06-11_10h33.12.960,LearnStrategy,2023.2.3,Win32,144.9275362,3,1,1,-0.042916641,-0.005555573,1,0,0,3.5204,rock_grid_rect_2,4,08,-1,-1,3.52,0.362638931,-0.251388931,1,0,0,3.876,Gabbro_rect,4,3.876,1,0,0,0,0,1,,,,,,,,,,,,,
64226a9ac7739618beeee60d,TCR,2024-06-11_10h33.12.960,LearnStrategy,2023.2.3,Win32,144.9275362,3,1,2,0.019583359,-0.004166679,1,0,0,0.8458,rock_grid_rect_2,6,09,-1,-1,0.846,-0.067916641,-0.412500153,1,0,0,3.6493,Pegmatite_rect,6,3.649,1,1,0,1,0,1,,,,,,,,,,,,,
64226a9ac7739618beeee60d,TCR,2024-06-11_10h33.12.960,LearnStrategy,2023.2.3,Win32,144.9275362,3,1,3,0.011250153,0.020833321,1,0,0,1.2002,rock_grid_rect_2,3,09,-1,-1,1.2,-0.358194427,-0.265277786,1,0,0,1.2645,Andesite_rect,1,1.264,0,2,0,2,0,1,,,,,,,,,,,,,
64226a9ac7739618beeee60d,TCR,2024-06-11_10h33.12.960,LearnStrategy,2023.2.3,Win32,144.9275362,3,1,4,0.002916718,-0.004166679,1,0,0,0.7349,rock_grid_rect_2,4,09,-1,-1,0.735,0.459861145,-0.245833359,1,0,0,1.7046,Gabbro_rect,4,1.705,1,3,0,3,0,1,,,,,,,,,,,,,
64226a9ac7739618beeee60d,TCR,2024-06-11_10h33.12.960,LearnStrategy,2023.2.3,Win32,144.9275362,3,1,5,-0.024861069,-0.012500076,1,0,0,1.277,rock_grid_rect_2,1,03,-1,-1,1.277,-0.060972214,-0.2625,1,0,0,2.1397,Basalt_rect,2,2.14,0,4,0,4,0,1,,,,,,,,,,,,,
64226a9ac7739618beeee60d,TCR,2024-06-11_10h33.12.960,LearnStrategy,2023.2.3,Win32,144.9275362,3,1,6,0.112638931,0.009722214,1,0,0,0.8629,rock_grid_rect_2,7,06,-1,-1,0.863,0.169583359,-0.416666718,1,0,0,3.0004,Peridotite_rect,7,3,1,5,0,5,0,1,,,,,,,,,,,,,
64226a9ac7739618beeee60d,TCR,2024-06-11_10h33.12.960,LearnStrategy,2023.2.3,Win32,144.9275362,3,1,7,0.002916718,0.022222214,1,0,0,0.9014,rock_grid_rect_2,4,03,-1,-1,0.901,0.140416718,-0.244444504,1,0,0,4.1633,Diorite_rect,3,4.163,0,6,0,6,0,1,,,,,,,,,,,,,
64226a9ac7739618beeee60d,TCR,2024-06-11_10h33.12.960,LearnStrategy,2023.2.3,Win32,144.9275362,3,1,8,0.009861145,0.023611107,1,0,0,1.2697,rock_grid_rect_2,3,10,-1,-1,1.27,-0.405416641,-0.229166718,1,0,0,2.0936,Andesite_rect,1,2.094,0,7,0,7,0,1,,,,,,,,,,,,,
64226a9ac7739618beeee60d,TCR,2024-06-11_10h33.12.960,LearnStrategy,2023.2.3,Win32,144.9275362,3,1,9,-0.023472214,0.024999924,1,0,0,0.5752,rock_grid_rect_2,1,04,-1,-1,0.575,-0.135972214,-0.234722366,1,0,0,1.2811,Basalt_rect,2,1.281,0,8,0,8,0,1,,,,,,,,,,,,,
64226a9ac7739618beeee60d,TCR,2024-06-11_10h33.12.960,LearnStrategy,2023.2.3,Win32,144.9275362,3,1,10,-0.026249847,0.008333321,1,0,0,0.8808,rock_grid_rect_2,1,07,-1,-1,0.881,0.08347229,-0.258333359,1,0,0,2.1145,Diorite_rect,3,2.115,0,9,0,9,0,1,,,,,,,,,,,,,
64226a9ac7739618beeee60d,TCR,2024-06-11_10h33.12.960,LearnStrategy,2023.2.3,Win32,144.9275362,3,1,11,-0.054027634,0.018055534,1,0,0,0.8043,rock_grid_rect_2,7,02,-1,-1,0.804,-0.131805496,-0.408333359,1,0,0,1.1482,Pegmatite_rect,6,1.148,0,10,0,10,0,1,,,,,,,,,,,,,
64226a9ac7739618beeee60d,TCR,2024-06-11_10h33.12.960,LearnStrategy,2023.2.3,Win32,144.9275362,3,1,12,0.062638931,0.009722214,1,0,0,0.7093,rock_grid_rect_2,2,08,-1,-1,0.709,-0.099861069,-0.240277786,1,0,0,1.0982,Basalt_rect,2,1.098,1,11,0,11,0,1,,,,,,,,,,,,,
64226a9ac7739618beeee60d,TCR,2024-06-11_10h33.12.960,LearnStrategy,2023.2.3,Win32,144.9275362,3,1,13,-0.009583282,-0.002777786,1,0,0,0.742,rock_grid_rect_2,2,05,-1,-1,0.742,-0.115138855,-0.251388931,1,0,0,1.1075,Basalt_rect,2,1.108,1,12,0,12,0,1,,,,,,,,,,,,,
64226a9ac7739618beeee60d,TCR,2024-06-11_10h33.12.960,LearnStrategy,2023.2.3,Win32,144.9275362,3,1,14,-0.017916641,0.001388855,1,0,0,0.7698,rock_grid_rect_2,6,05,-1,-1,0.77,0.394583435,-0.233333359,1,0,0,1.5773,Gabbro_rect,4,1.577,0,13,0,13,0,1,,,,,,,,,,,,,
64226a9ac7739618beeee60d,TCR,2024-06-11_10h33.12.960,LearnStrategy,2023.2.3,Win32,144.9275362,3,1,15,-0.010972214,0.004166641,1,0,0,0.8347,rock_grid_rect_2,4,09,-1,-1,0.835,0.036250153,-0.240277786,1,0,0,1.5981,Diorite_rect,3,1.598,0,14,0,14,0,1,,,,,,,,,,,,,
64226a9ac7739618beeee60d,TCR,2024-06-11_10h33.12.960,LearnStrategy,2023.2.3,Win32,144.9275362,3,1,16,-0.040138855,0.002777748,1,0,0,0.7282,rock_grid_rect_2,6,09,-1,-1,0.728,0.059861145,-0.398611145,1,0,0,1.5657,Peridotite_rect,7,1.566,0,15,0,15,0,1,,,,,,,,,,,,,
64226a9ac7739618beeee60d,TCR,2024-06-11_10h33.12.960,LearnStrategy,2023.2.3,Win32,144.9275362,3,2,1,,,,,,,,7,08,,,,,,,,,,,6,1.836,0,,,,,,-0.105416641,-0.419444504,1,0,0,1.836,Pegmatite_rect,0,0,0,0,1,
64226a9ac7739618beeee60d,TCR,2024-06-11_10h33.12.960,LearnStrategy,2023.2.3,Win32,144.9275362,3,2,2,,,,,,,,6,12,,,,,,,,,,,3,2.114,0,,,,,,0.180694504,-0.240277786,1,0,0,2.1139,Diorite_rect,1,0,1,0,1,
64226a9ac7739618beeee60d,TCR,2024-06-11_10h33.12.960,LearnStrategy,2023.2.3,Win32,144.9275362,3,2,3,,,,,,,,8,02,,,,,,,,,,,8,1.023,1,,,,,,0.39875,-0.383333359,1,0,0,1.0233,Pumice_rect,2,0,2,0,1,
64226a9ac7739618beeee60d,TCR,2024-06-11_10h33.12.960,LearnStrategy,2023.2.3,Win32,144.9275362,3,2,4,,,,,,,,3,14,,,,,,,,,,,3,2.061,1,,,,,,0.139027939,-0.270833359,1,0,0,2.0607,Diorite_rect,3,0,3,0,1,
64226a9ac7739618beeee60d,TCR,2024-06-11_10h33.12.960,LearnStrategy,2023.2.3,Win32,144.9275362,3,2,5,,,,,,,,4,12,,,,,,,,,,,2,1.482,0,,,,,,-0.15125,-0.241666718,1,0,0,1.4817,Basalt_rect,4,0,4,0,1,
64226a9ac7739618beeee60d,TCR,2024-06-11_10h33.12.960,LearnStrategy,2023.2.3,Win32,144.9275362,3,2,6,,,,,,,,6,11,,,,,,,,,,,7,1.427,0,,,,,,0.077916718,-0.393055573,1,0,0,1.4266,Peridotite_rect,5,0,5,0,1,
64226a9ac7739618beeee60d,TCR,2024-06-11_10h33.12.960,LearnStrategy,2023.2.3,Win32,144.9275362,3,2,7,,,,,,,,7,15,,,,,,,,,,,7,1.267,1,,,,,,0.077916718,-0.393055573,1,0,0,1.2666,Peridotite_rect,6,0,6,0,1,
64226a9ac7739618beeee60d,TCR,2024-06-11_10h33.12.960,LearnStrategy,2023.2.3,Win32,144.9275362,3,2,8,,,,,,,,5,04,,,,,,,,,,,5,1.274,1,,,,,,-0.349861031,-0.409722366,1,0,0,1.2739,Obsidian_rect,7,0,7,0,1,
64226a9ac7739618beeee60d,TCR,2024-06-11_10h33.12.960,LearnStrategy,2023.2.3,Win32,144.9275362,3,2,9,,,,,,,,2,11,,,,,,,,,,,4,2.128,0,,,,,,0.318194504,-0.247222366,1,0,0,2.1276,Gabbro_rect,8,0,8,0,1,
64226a9ac7739618beeee60d,TCR,2024-06-11_10h33.12.960,LearnStrategy,2023.2.3,Win32,144.9275362,3,2,10,,,,,,,,4,10,,,,,,,,,,,4,2.538,1,,,,,,0.509861145,-0.263888931,1,0,0,2.5378,Gabbro_rect,9,0,9,0,1,
64226a9ac7739618beeee60d,TCR,2024-06-11_10h33.12.960,LearnStrategy,2023.2.3,Win32,144.9275362,3,2,11,,,,,,,,8,16,,,,,,,,,,,8,1.414,1,,,,,,0.43625,-0.384722366,1,0,0,1.4141,Pumice_rect,10,0,10,0,1,
64226a9ac7739618beeee60d,TCR,2024-06-11_10h33.12.960,LearnStrategy,2023.2.3,Win32,144.9275362,3,2,12,,,,,,,,3,16,,,,,,,,,,,3,2.185,1,,,,,,0.084861145,-0.252777786,1,0,0,2.1854,Diorite_rect,11,0,11,0,1,
64226a9ac7739618beeee60d,TCR,2024-06-11_10h33.12.960,LearnStrategy,2023.2.3,Win32,144.9275362,3,2,13,,,,,,,,5,06,,,,,,,,,,,5,1.071,1,,,,,,-0.423472214,-0.393055573,1,0,0,1.0711,Obsidian_rect,12,0,12,0,1,
64226a9ac7739618beeee60d,TCR,2024-06-11_10h33.12.960,LearnStrategy,2023.2.3,Win32,144.9275362,3,2,14,,,,,,,,2,12,,,,,,,,,,,8,3.642,0,,,,,,0.394583435,-0.400000153,1,0,0,3.6419,Pumice_rect,13,0,13,0,1,
64226a9ac7739618beeee60d,TCR,2024-06-11_10h33.12.960,LearnStrategy,2023.2.3,Win32,144.9275362,3,2,15,,,,,,,,1,05,,,,,,,,,,,1,3.581,1,,,,,,-0.387361031,-0.251388931,1,0,0,3.5809,Andesite_rect,14,0,14,0,1,
64226a9ac7739618beeee60d,TCR,2024-06-11_10h33.12.960,LearnStrategy,2023.2.3,Win32,144.9275362,3,2,16,,,,,,,,1,02,,,,,,,,,,,4,2.384,0,,,,,,0.394583435,-0.2375,1,0,0,2.3837,Gabbro_rect,15,0,15,0,1,
64226a9ac7739618beeee60d,TCR,2024-06-11_10h33.12.960,LearnStrategy,2023.2.3,Win32,144.9275362,4,1,1,-0.083194427,0.023611107,1,0,0,1.1796,rock_grid_rect_2,4,08,-1,-1,1.18,0.397361145,-0.234722366,1,0,0,2.6264,Gabbro_rect,4,2.626,1,0,0,0,0,1,,,,,,,,,,,,,
64226a9ac7739618beeee60d,TCR,2024-06-11_10h33.12.960,LearnStrategy,2023.2.3,Win32,144.9275362,4,1,2,0.061250153,-0.008333359,1,0,0,0.9245,rock_grid_rect_2,7,02,-1,-1,0.925,0.166805573,-0.391666718,1,0,0,1.0762,Peridotite_rect,7,1.076,1,1,0,1,0,1,,,,,,,,,,,,,
64226a9ac7739618beeee60d,TCR,2024-06-11_10h33.12.960,LearnStrategy,2023.2.3,Win32,144.9275362,4,1,3,-0.023472214,-0.022222252,1,0,0,1.1241,rock_grid_rect_2,1,03,-1,-1,1.124,0.075138931,-0.238888931,1,0,0,2.5173,Diorite_rect,3,2.517,0,2,0,2,0,1,,,,,,,,,,,,,
64226a9ac7739618beeee60d,TCR,2024-06-11_10h33.12.960,LearnStrategy,2023.2.3,Win32,144.9275362,4,1,4,-0.097083282,-0.008333359,1,0,0,0.7767,rock_grid_rect_2,2,01,-1,-1,0.777,-0.170694427,-0.25,1,0,0,1.0734,Basalt_rect,2,1.073,1,3,0,3,0,1,,,,,,,,,,,,,
64226a9ac7739618beeee60d,TCR,2024-06-11_10h33.12.960,LearnStrategy,2023.2.3,Win32,144.9275362,4,1,5,-0.017916641,-0.019444466,1,0,0,0.6587,rock_grid_rect_2,1,14,-1,-1,0.659,0.091805573,-0.254166718,1,0,0,2.2,Diorite_rect,3,2.2,0,4,0,4,0,1,,,,,,,,,,,,,
64226a9ac7739618beeee60d,TCR,2024-06-11_10h33.12.960,LearnStrategy,2023.2.3,Win32,144.9275362,4,1,6,-0.001249847,-0.020833359,1,0,0,0.86,rock_grid_rect_2,7,04,-1,-1,0.86,0.10847229,-0.412500153,1,0,0,1.1697,Peridotite_rect,7,1.17,1,5,0,5,0,1,,,,,,,,,,,,,
64226a9ac7739618beeee60d,TCR,2024-06-11_10h33.12.960,LearnStrategy,2023.2.3,Win32,144.9275362,4,1,7,0.018194504,-0.008333359,1,0,0,0.8185,rock_grid_rect_2,2,05,-1,-1,0.818,-0.129027634,-0.25,1,0,0,1.0568,Basalt_rect,2,1.057,1,6,0,6,0,1,,,,,,,,,,,,,
64226a9ac7739618beeee60d,TCR,2024-06-11_10h33.12.960,LearnStrategy,2023.2.3,Win32,144.9275362,4,1,8,0.019583359,-0.020833359,1,0,0,0.7163,rock_grid_rect_2,1,11,-1,-1,0.716,0.144583359,-0.243055573,1,0,0,2.4942,Diorite_rect,3,2.494,0,7,0,7,0,1,,,,,,,,,,,,,
64226a9ac7739618beeee60d,TCR,2024-06-11_10h33.12.960,LearnStrategy,2023.2.3,Win32,144.9275362,4,1,9,0.027916718,-0.006944466,1,0,0,0.5894,rock_grid_rect_2,3,11,-1,-1,0.589,0.159861145,-0.259722366,1,0,0,2.1276,Diorite_rect,3,2.128,1,8,0,8,0,1,,,,,,,,,,,,,
64226a9ac7739618beeee60d,TCR,2024-06-11_10h33.12.960,LearnStrategy,2023.2.3,Win32,144.9275362,4,1,10,-0.023472214,-0.002777786,1,0,0,0.6585,rock_grid_rect_2,4,03,-1,-1,0.659,0.150138931,-0.252777786,1,0,0,1.0659,Diorite_rect,3,1.066,0,9,0,9,0,1,,,,,,,,,,,,,
64226a9ac7739618beeee60d,TCR,2024-06-11_10h33.12.960,LearnStrategy,2023.2.3,Win32,144.9275362,4,1,11,-0.002638855,-0.011111145,1,0,0,0.8596,rock_grid_rect_2,6,08,-1,-1,0.86,-0.331805534,-0.397222366,1,0,0,1.2463,Obsidian_rect,5,1.246,0,10,0,10,0,1,,,,,,,,,,,,,
64226a9ac7739618beeee60d,TCR,2024-06-11_10h33.12.960,LearnStrategy,2023.2.3,Win32,144.9275362,4,1,12,0.033472366,0.008333321,1,0,0,0.6794,rock_grid_rect_2,2,09,-1,-1,0.679,-0.092916641,-0.238888931,1,0,0,0.82,Basalt_rect,2,0.82,1,11,0,11,0,1,,,,,,,,,,,,,
64226a9ac7739618beeee60d,TCR,2024-06-11_10h33.12.960,LearnStrategy,2023.2.3,Win32,144.9275362,4,1,13,-0.022083282,0.001388855,1,0,0,0.7491,rock_grid_rect_2,6,16,-1,-1,0.749,0.080694504,-0.395833359,1,0,0,1.8714,Peridotite_rect,7,1.871,0,12,0,12,0,1,,,,,,,,,,,,,
64226a9ac7739618beeee60d,TCR,2024-06-11_10h33.12.960,LearnStrategy,2023.2.3,Win32,144.9275362,4,1,14,-0.004027634,0.018055534,1,0,0,0.7904,rock_grid_rect_2,4,09,-1,-1,0.79,-0.090138855,-0.234722366,1,0,0,1.3993,Basalt_rect,2,1.399,0,13,0,13,0,1,,,,,,,,,,,,,
64226a9ac7739618beeee60d,TCR,2024-06-11_10h33.12.960,LearnStrategy,2023.2.3,Win32,144.9275362,4,1,15,-0.010972214,-0.022222252,1,0,0,0.5615,rock_grid_rect_2,6,05,-1,-1,0.562,0.148750153,-0.409722366,1,0,0,1.802,Peridotite_rect,7,1.802,0,14,0,14,0,1,,,,,,,,,,,,,
64226a9ac7739618beeee60d,TCR,2024-06-11_10h33.12.960,LearnStrategy,2023.2.3,Win32,144.9275362,4,1,16,0.018194504,0.019444427,1,0,0,1.4779,rock_grid_rect_2,6,03,-1,-1,1.478,0.105694504,-0.409722366,1,0,0,1.9825,Peridotite_rect,7,1.983,0,15,0,15,0,1,,,,,,,,,,,,,
64226a9ac7739618beeee60d,TCR,2024-06-11_10h33.12.960,LearnStrategy,2023.2.3,Win32,144.9275362,4,2,1,,,,,,,,8,02,,,,,,,,,,,8,1.489,1,,,,,,0.415416718,-0.418055573,1,0,0,1.4888,Pumice_rect,0,0,0,0,1,
64226a9ac7739618beeee60d,TCR,2024-06-11_10h33.12.960,LearnStrategy,2023.2.3,Win32,144.9275362,4,2,2,,,,,,,,5,16,,,,,,,,,,,5,0.941,1,,,,,,-0.48875,-0.393055573,1,0,0,0.9405,Obsidian_rect,1,0,1,0,1,
64226a9ac7739618beeee60d,TCR,2024-06-11_10h33.12.960,LearnStrategy,2023.2.3,Win32,144.9275362,4,2,3,,,,,,,,3,16,,,,,,,,,,,3,3.947,1,,,,,,0.097361145,-0.265277786,1,0,0,3.9474,Diorite_rect,2,0,2,0,1,
64226a9ac7739618beeee60d,TCR,2024-06-11_10h33.12.960,LearnStrategy,2023.2.3,Win32,144.9275362,4,2,4,,,,,,,,7,05,,,,,,,,,,,7,1.22,1,,,,,,0.13347229,-0.412500153,1,0,0,1.2197,Peridotite_rect,3,0,3,0,1,
64226a9ac7739618beeee60d,TCR,2024-06-11_10h33.12.960,LearnStrategy,2023.2.3,Win32,144.9275362,4,2,5,,,,,,,,1,06,,,,,,,,,,,3,2.543,0,,,,,,0.197361145,-0.252777786,1,0,0,2.5427,Diorite_rect,4,0,4,0,1,
64226a9ac7739618beeee60d,TCR,2024-06-11_10h33.12.960,LearnStrategy,2023.2.3,Win32,144.9275362,4,2,6,,,,,,,,5,11,,,,,,,,,,,5,0.857,1,,,,,,-0.449861107,-0.408333359,1,0,0,0.8571,Obsidian_rect,5,0,5,0,1,
64226a9ac7739618beeee60d,TCR,2024-06-11_10h33.12.960,LearnStrategy,2023.2.3,Win32,144.9275362,4,2,7,,,,,,,,7,15,,,,,,,,,,,7,1.044,1,,,,,,0.152916718,-0.387500153,1,0,0,1.0443,Peridotite_rect,6,0,6,0,1,
64226a9ac7739618beeee60d,TCR,2024-06-11_10h33.12.960,LearnStrategy,2023.2.3,Win32,144.9275362,4,2,8,,,,,,,,1,09,,,,,,,,,,,1,1.531,1,,,,,,-0.385972214,-0.265277786,1,0,0,1.531,Andesite_rect,7,0,7,0,1,
64226a9ac7739618beeee60d,TCR,2024-06-11_10h33.12.960,LearnStrategy,2023.2.3,Win32,144.9275362,4,2,9,,,,,,,,6,11,,,,,,,,,,,6,1.503,1,,,,,,-0.067916641,-0.405555573,1,0,0,1.5027,Pegmatite_rect,8,0,8,0,1,
64226a9ac7739618beeee60d,TCR,2024-06-11_10h33.12.960,LearnStrategy,2023.2.3,Win32,144.9275362,4,2,10,,,,,,,,2,14,,,,,,,,,,,2,2.218,1,,,,,,-0.122083282,-0.261111145,1,0,0,2.2183,Basalt_rect,9,0,9,0,1,
64226a9ac7739618beeee60d,TCR,2024-06-11_10h33.12.960,LearnStrategy,2023.2.3,Win32,144.9275362,4,2,11,,,,,,,,6,07,,,,,,,,,,,6,1.246,1,,,,,,-0.034583282,-0.408333359,1,0,0,1.2458,Pegmatite_rect,10,0,10,0,1,
64226a9ac7739618beeee60d,TCR,2024-06-11_10h33.12.960,LearnStrategy,2023.2.3,Win32,144.9275362,4,2,12,,,,,,,,8,04,,,,,,,,,,,8,0.973,1,,,,,,0.43625,-0.391666718,1,0,0,0.9729,Pumice_rect,11,0,11,0,1,
64226a9ac7739618beeee60d,TCR,2024-06-11_10h33.12.960,LearnStrategy,2023.2.3,Win32,144.9275362,4,2,13,,,,,,,,4,14,,,,,,,,,,,4,0.989,1,,,,,,0.326527939,-0.241666718,1,0,0,0.9891,Gabbro_rect,12,0,12,0,1,
64226a9ac7739618beeee60d,TCR,2024-06-11_10h33.12.960,LearnStrategy,2023.2.3,Win32,144.9275362,4,2,14,,,,,,,,2,11,,,,,,,,,,,4,3.044,0,,,,,,0.352916718,-0.254166718,1,0,0,3.0445,Gabbro_rect,13,0,13,0,1,
64226a9ac7739618beeee60d,TCR,2024-06-11_10h33.12.960,LearnStrategy,2023.2.3,Win32,144.9275362,4,2,15,,,,,,,,3,06,,,,,,,,,,,1,1.456,0,,,,,,-0.409583321,-0.255555573,1,0,0,1.4559,Andesite_rect,14,0,14,0,1,
64226a9ac7739618beeee60d,TCR,2024-06-11_10h33.12.960,LearnStrategy,2023.2.3,Win32,144.9275362,4,2,16,,,,,,,,4,10,,,,,,,,,,,4,2.309,1,,,,,,0.454305573,-0.269444504,1,0,0,2.3088,Gabbro_rect,15,0,15,0,1,
64226a9ac7739618beeee60d,TCR,2024-06-11_10h33.12.960,LearnStrategy,2023.2.3,Win32,144.9275362,5,1,1,-0.029027634,-0.012500076,1,0,0,0.9921,rock_grid_rect_2,7,16,-1,-1,0.992,0.111250153,-0.408333359,1,0,0,2.274,Peridotite_rect,7,2.274,1,0,0,0,0,1,,,,,,,,,,,,,
64226a9ac7739618beeee60d,TCR,2024-06-11_10h33.12.960,LearnStrategy,2023.2.3,Win32,144.9275362,5,1,2,0.100138931,0.011111031,1,0,0,1.0894,rock_grid_rect_2,6,03,-1,-1,1.089,-0.084583282,-0.381944504,1,0,0,0.996,Pegmatite_rect,6,0.996,1,1,0,1,0,1,,,,,,,,,,,,,
64226a9ac7739618beeee60d,TCR,2024-06-11_10h33.12.960,LearnStrategy,2023.2.3,Win32,144.9275362,5,1,3,0.023750153,-0.011111145,1,0,0,1.0682,rock_grid_rect_2,4,03,-1,-1,1.068,-0.417916641,-0.243055573,1,0,0,2.0081,Andesite_rect,1,2.008,0,2,0,2,0,1,,,,,,,,,,,,,
64226a9ac7739618beeee60d,TCR,2024-06-11_10h33.12.960,LearnStrategy,2023.2.3,Win32,144.9275362,5,1,4,-0.027638855,0.005555534,1,0,0,0.6544,rock_grid_rect_2,4,05,-1,-1,0.654,0.366805725,-0.256944504,1,0,0,1.2246,Gabbro_rect,4,1.225,1,3,0,3,0,1,,,,,,,,,,,,,
64226a9ac7739618beeee60d,TCR,2024-06-11_10h33.12.960,LearnStrategy,2023.2.3,Win32,144.9275362,5,1,5,0.023750153,-0.022222252,1,0,0,0.7698,rock_grid_rect_2,1,01,-1,-1,0.77,0.062638931,-0.251388931,1,0,0,2.378,Diorite_rect,3,2.378,0,4,0,4,0,1,,,,,,,,,,,,,
64226a9ac7739618beeee60d,TCR,2024-06-11_10h33.12.960,LearnStrategy,2023.2.3,Win32,144.9275362,5,1,6,0.015416718,0.008333321,1,0,0,0.5823,rock_grid_rect_2,2,06,-1,-1,0.582,-0.080416641,-0.244444504,1,0,0,1.0033,Basalt_rect,2,1.003,1,5,0,5,0,1,,,,,,,,,,,,,
64226a9ac7739618beeee60d,TCR,2024-06-11_10h33.12.960,LearnStrategy,2023.2.3,Win32,144.9275362,5,1,7,0.011250153,-0.009722252,1,0,0,0.7422,rock_grid_rect_2,8,05,-1,-1,0.742,0.425139008,-0.415277786,1,0,0,1.1571,Pumice_rect,8,1.157,1,6,0,6,0,1,,,,,,,,,,,,,
64226a9ac7739618beeee60d,TCR,2024-06-11_10h33.12.960,LearnStrategy,2023.2.3,Win32,144.9275362,5,1,8,0.072361145,0.015277748,1,0,0,0.7557,rock_grid_rect_2,1,04,-1,-1,0.756,0.137638931,-0.251388931,1,0,0,1.6352,Diorite_rect,3,1.635,0,7,0,7,0,1,,,,,,,,,,,,,
64226a9ac7739618beeee60d,TCR,2024-06-11_10h33.12.960,LearnStrategy,2023.2.3,Win32,144.9275362,5,1,9,0.016805573,0.020833321,1,0,0,0.61,rock_grid_rect_2,2,01,-1,-1,0.61,-0.084583282,-0.236111145,1,0,0,0.8833,Basalt_rect,2,0.883,1,8,0,8,0,1,,,,,,,,,,,,,
64226a9ac7739618beeee60d,TCR,2024-06-11_10h33.12.960,LearnStrategy,2023.2.3,Win32,144.9275362,5,1,10,0.000138931,-0.006944466,1,0,0,0.6508,rock_grid_rect_2,3,02,-1,-1,0.651,-0.412361107,-0.2625,1,0,0,2.1283,Andesite_rect,1,2.128,0,9,0,9,0,1,,,,,,,,,,,,,
64226a9ac7739618beeee60d,TCR,2024-06-11_10h33.12.960,LearnStrategy,2023.2.3,Win32,144.9275362,5,1,11,-0.030416641,0.022222214,1,0,0,0.6029,rock_grid_rect_2,6,09,-1,-1,0.603,-0.063749847,-0.418055573,1,0,0,0.9755,Pegmatite_rect,6,0.976,1,10,0,10,0,1,,,,,,,,,,,,,
64226a9ac7739618beeee60d,TCR,2024-06-11_10h33.12.960,LearnStrategy,2023.2.3,Win32,144.9275362,5,1,12,0.008472366,-0.001388969,1,0,0,0.6869,rock_grid_rect_2,3,10,-1,-1,0.687,-0.405416641,-0.236111145,1,0,0,1.7627,Andesite_rect,1,1.763,0,11,0,11,0,1,,,,,,,,,,,,,
64226a9ac7739618beeee60d,TCR,2024-06-11_10h33.12.960,LearnStrategy,2023.2.3,Win32,144.9275362,5,1,13,-0.019305496,0.011111031,1,0,0,0.5542,rock_grid_rect_2,7,07,-1,-1,0.554,0.114027939,-0.394444504,1,0,0,1.2506,Peridotite_rect,7,1.251,1,12,0,12,0,1,,,,,,,,,,,,,
64226a9ac7739618beeee60d,TCR,2024-06-11_10h33.12.960,LearnStrategy,2023.2.3,Win32,144.9275362,5,1,14,-0.008194427,0.005555534,1,0,0,0.6474,rock_grid_rect_2,4,09,-1,-1,0.647,0.459861145,-0.268055573,1,0,0,1.6811,Gabbro_rect,4,1.681,1,13,0,13,0,1,,,,,,,,,,,,,
64226a9ac7739618beeee60d,TCR,2024-06-11_10h33.12.960,LearnStrategy,2023.2.3,Win32,144.9275362,5,1,15,0.025138931,-0.002777786,1,0,0,0.6168,rock_grid_rect_2,2,09,-1,-1,0.617,-0.067916641,-0.2625,1,0,0,0.8939,Basalt_rect,2,0.894,1,14,0,14,0,1,,,,,,,,,,,,,
64226a9ac7739618beeee60d,TCR,2024-06-11_10h33.12.960,LearnStrategy,2023.2.3,Win32,144.9275362,5,1,16,0.047361145,-0.011111145,1,0,0,0.499,rock_grid_rect_2,6,15,-1,-1,0.499,-0.106805496,-0.406944504,1,0,0,1.1679,Pegmatite_rect,6,1.168,1,15,0,15,0,1,,,,,,,,,,,,,
64226a9ac7739618beeee60d,TCR,2024-06-11_10h33.12.960,LearnStrategy,2023.2.3,Win32,144.9275362,5,2,1,,,,,,,,3,15,,,,,,,,,,,3,1.336,1,,,,,,0.105694504,-0.238888931,1,0,0,1.3364,Diorite_rect,0,0,0,0,1,
64226a9ac7739618beeee60d,TCR,2024-06-11_10h33.12.960,LearnStrategy,2023.2.3,Win32,144.9275362,5,2,2,,,,,,,,4,11,,,,,,,,,,,2,1.225,0,,,,,,-0.104027634,-0.269444504,1,0,0,1.2248,Basalt_rect,1,0,1,0,1,
64226a9ac7739618beeee60d,TCR,2024-06-11_10h33.12.960,LearnStrategy,2023.2.3,Win32,144.9275362,5,2,3,,,,,,,,5,09,,,,,,,,,,,5,0.882,1,,,,,,-0.349861031,-0.397222366,1,0,0,0.8823,Obsidian_rect,2,0,2,0,1,
64226a9ac7739618beeee60d,TCR,2024-06-11_10h33.12.960,LearnStrategy,2023.2.3,Win32,144.9275362,5,2,4,,,,,,,,2,10,,,,,,,,,,,4,1.21,0,,,,,,0.40847229,-0.234722366,1,0,0,1.2099,Gabbro_rect,3,0,3,0,1,
64226a9ac7739618beeee60d,TCR,2024-06-11_10h33.12.960,LearnStrategy,2023.2.3,Win32,144.9275362,5,2,5,,,,,,,,4,01,,,,,,,,,,,4,3.24,1,,,,,,0.451527863,-0.231944504,1,0,0,3.2405,Gabbro_rect,4,0,4,0,1,
64226a9ac7739618beeee60d,TCR,2024-06-11_10h33.12.960,LearnStrategy,2023.2.3,Win32,144.9275362,5,2,6,,,,,,,,5,05,,,,,,,,,,,5,1.22,1,,,,,,-0.352638855,-0.386111145,1,0,0,1.2196,Obsidian_rect,5,0,5,0,1,
64226a9ac7739618beeee60d,TCR,2024-06-11_10h33.12.960,LearnStrategy,2023.2.3,Win32,144.9275362,5,2,7,,,,,,,,1,16,,,,,,,,,,,4,1.704,0,,,,,,0.339027939,-0.270833359,1,0,0,1.7044,Gabbro_rect,6,0,6,0,1,
64226a9ac7739618beeee60d,TCR,2024-06-11_10h33.12.960,LearnStrategy,2023.2.3,Win32,144.9275362,5,2,8,,,,,,,,6,06,,,,,,,,,,,6,1.82,1,,,,,,-0.083194427,-0.380555573,1,0,0,1.82,Pegmatite_rect,7,0,7,0,1,
64226a9ac7739618beeee60d,TCR,2024-06-11_10h33.12.960,LearnStrategy,2023.2.3,Win32,144.9275362,5,2,9,,,,,,,,1,05,,,,,,,,,,,3,1.699,0,,,,,,0.151527939,-0.258333359,1,0,0,1.6993,Diorite_rect,8,0,8,0,1,
64226a9ac7739618beeee60d,TCR,2024-06-11_10h33.12.960,LearnStrategy,2023.2.3,Win32,144.9275362,5,2,10,,,,,,,,8,16,,,,,,,,,,,8,2.1,1,,,,,,0.379305725,-0.406944504,1,0,0,2.1003,Pumice_rect,9,0,9,0,1,
64226a9ac7739618beeee60d,TCR,2024-06-11_10h33.12.960,LearnStrategy,2023.2.3,Win32,144.9275362,5,2,11,,,,,,,,2,04,,,,,,,,,,,2,0.984,1,,,,,,-0.052638855,-0.251388931,1,0,0,0.9835,Basalt_rect,10,0,10,0,1,
64226a9ac7739618beeee60d,TCR,2024-06-11_10h33.12.960,LearnStrategy,2023.2.3,Win32,144.9275362,5,2,12,,,,,,,,8,03,,,,,,,,,,,8,1.289,1,,,,,,0.375138931,-0.411111145,1,0,0,1.2886,Pumice_rect,11,0,11,0,1,
64226a9ac7739618beeee60d,TCR,2024-06-11_10h33.12.960,LearnStrategy,2023.2.3,Win32,144.9275362,5,2,13,,,,,,,,6,13,,,,,,,,,,,6,1.014,1,,,,,,-0.094305496,-0.404166718,1,0,0,1.0142,Pegmatite_rect,12,0,12,0,1,
64226a9ac7739618beeee60d,TCR,2024-06-11_10h33.12.960,LearnStrategy,2023.2.3,Win32,144.9275362,5,2,14,,,,,,,,3,08,,,,,,,,,,,1,2.219,0,,,,,,-0.329027748,-0.265277786,1,0,0,2.2185,Andesite_rect,13,0,13,0,1,
64226a9ac7739618beeee60d,TCR,2024-06-11_10h33.12.960,LearnStrategy,2023.2.3,Win32,144.9275362,5,2,15,,,,,,,,7,14,,,,,,,,,,,7,1.28,1,,,,,,0.101527939,-0.395833359,1,0,0,1.2805,Peridotite_rect,14,0,14,0,1,
64226a9ac7739618beeee60d,TCR,2024-06-11_10h33.12.960,LearnStrategy,2023.2.3,Win32,144.9275362,5,2,16,,,,,,,,7,08,,,,,,,,,,,7,2.126,1,,,,,,0.104305573,-0.397222366,1,0,0,2.1258,Peridotite_rect,15,0,15,0,1,
64226a9ac7739618beeee60d,TCR,2024-06-11_10h33.12.960,LearnStrategy,2023.2.3,Win32,144.9275362,6,1,1,-0.042916641,0.018055534,1,0,0,1.1815,rock_grid_rect_2,2,01,-1,-1,1.182,-0.106805496,-0.229166718,1,0,0,0.9209,Basalt_rect,2,0.921,1,0,0,0,0,1,,,,,,,,,,,,,
64226a9ac7739618beeee60d,TCR,2024-06-11_10h33.12.960,LearnStrategy,2023.2.3,Win32,144.9275362,6,1,2,-0.017916641,0.019444427,1,0,0,1.0129,rock_grid_rect_2,2,06,-1,-1,1.013,-0.11375,-0.247222366,1,0,0,1.0379,Basalt_rect,2,1.038,1,1,0,1,0,1,,,,,,,,,,,,,
64226a9ac7739618beeee60d,TCR,2024-06-11_10h33.12.960,LearnStrategy,2023.2.3,Win32,144.9275362,6,1,3,-0.056805496,-0.008333359,1,0,0,0.666,rock_grid_rect_2,6,16,-1,-1,0.666,-0.141527634,-0.404166718,1,0,0,1.3502,Pegmatite_rect,6,1.35,1,2,0,2,0,1,,,,,,,,,,,,,
64226a9ac7739618beeee60d,TCR,2024-06-11_10h33.12.960,LearnStrategy,2023.2.3,Win32,144.9275362,6,1,4,-0.029027634,-0.016666679,1,0,0,0.8245,rock_grid_rect_2,5,02,-1,-1,0.825,-0.315138855,-0.384722366,1,0,0,0.8642,Obsidian_rect,5,0.864,1,3,0,3,0,1,,,,,,,,,,,,,
64226a9ac7739618beeee60d,TCR,2024-06-11_10h33.12.960,LearnStrategy,2023.2.3,Win32,144.9275362,6,1,5,0.000138931,-0.001388969,1,0,0,0.902,rock_grid_rect_2,4,03,-1,-1,0.902,0.072361145,-0.2375,1,0,0,1.6285,Diorite_rect,3,1.629,0,4,0,4,0,1,,,,,,,,,,,,,
64226a9ac7739618beeee60d,TCR,2024-06-11_10h33.12.960,LearnStrategy,2023.2.3,Win32,144.9275362,6,1,6,-0.012361069,0.012499924,1,0,0,0.6512,rock_grid_rect_2,8,14,-1,-1,0.651,0.35847229,-0.401388931,1,0,0,1.8946,Pumice_rect,8,1.895,1,5,0,5,0,1,,,,,,,,,,,,,
64226a9ac7739618beeee60d,TCR,2024-06-11_10h33.12.960,LearnStrategy,2023.2.3,Win32,144.9275362,6,1,7,0.034861145,-0.006944466,1,0,0,0.6311,rock_grid_rect_2,4,05,-1,-1,0.631,0.076527786,-0.391666718,1,0,0,1.7048,Peridotite_rect,7,1.705,0,6,0,6,0,1,,,,,,,,,,,,,
64226a9ac7739618beeee60d,TCR,2024-06-11_10h33.12.960,LearnStrategy,2023.2.3,Win32,144.9275362,6,1,8,0.020972366,-0.013888969,1,0,0,1.172,rock_grid_rect_2,6,09,-1,-1,1.172,0.141805573,-0.404166718,1,0,0,1.7742,Peridotite_rect,7,1.774,0,7,0,7,0,1,,,,,,,,,,,,,
64226a9ac7739618beeee60d,TCR,2024-06-11_10h33.12.960,LearnStrategy,2023.2.3,Win32,144.9275362,6,1,9,0.072361145,0.002777748,1,0,0,0.5754,rock_grid_rect_2,3,11,-1,-1,0.575,0.162638931,-0.268055573,1,0,0,1.9182,Diorite_rect,3,1.918,1,8,0,8,0,1,,,,,,,,,,,,,
64226a9ac7739618beeee60d,TCR,2024-06-11_10h33.12.960,LearnStrategy,2023.2.3,Win32,144.9275362,6,1,10,-0.001249847,0.012499924,1,0,0,0.8903,rock_grid_rect_2,1,04,-1,-1,0.89,-0.491527748,-0.244444504,1,0,0,3.1331,Andesite_rect,1,3.133,1,9,0,9,0,1,,,,,,,,,,,,,
64226a9ac7739618beeee60d,TCR,2024-06-11_10h33.12.960,LearnStrategy,2023.2.3,Win32,144.9275362,6,1,11,-0.004027634,0.004166641,1,0,0,0.6585,rock_grid_rect_2,1,11,-1,-1,0.659,0.38347229,-0.244444504,1,0,0,1.545,Gabbro_rect,4,1.545,0,10,0,10,0,1,,,,,,,,,,,,,
64226a9ac7739618beeee60d,TCR,2024-06-11_10h33.12.960,LearnStrategy,2023.2.3,Win32,144.9275362,6,1,12,-0.019305496,-0.018055573,1,0,0,0.7907,rock_grid_rect_2,4,09,-1,-1,0.791,0.482083435,-0.234722366,1,0,0,1.7465,Gabbro_rect,4,1.746,1,11,0,11,0,1,,,,,,,,,,,,,
64226a9ac7739618beeee60d,TCR,2024-06-11_10h33.12.960,LearnStrategy,2023.2.3,Win32,144.9275362,6,1,13,0.048750153,-0.018055573,1,0,0,0.6934,rock_grid_rect_2,7,07,-1,-1,0.693,0.119583359,-0.413888931,1,0,0,1.4894,Peridotite_rect,7,1.489,1,12,0,12,0,1,,,,,,,,,,,,,
64226a9ac7739618beeee60d,TCR,2024-06-11_10h33.12.960,LearnStrategy,2023.2.3,Win32,144.9275362,6,1,14,0.039027786,-0.009722252,1,0,0,0.5962,rock_grid_rect_2,3,02,-1,-1,0.596,0.082083359,-0.256944504,1,0,0,1.5728,Diorite_rect,3,1.573,1,13,0,13,0,1,,,,,,,,,,,,,
64226a9ac7739618beeee60d,TCR,2024-06-11_10h33.12.960,LearnStrategy,2023.2.3,Win32,144.9275362,6,1,15,0.029305573,-0.001388969,1,0,0,0.5894,rock_grid_rect_2,1,14,-1,-1,0.589,-0.355416641,-0.254166718,1,0,0,0.9316,Andesite_rect,1,0.932,1,14,0,14,0,1,,,,,,,,,,,,,
64226a9ac7739618beeee60d,TCR,2024-06-11_10h33.12.960,LearnStrategy,2023.2.3,Win32,144.9275362,6,1,16,0.016805573,0.013888855,1,0,0,0.5962,rock_grid_rect_2,2,09,-1,-1,0.596,-0.122083282,-0.252777786,1,0,0,0.7949,Basalt_rect,2,0.795,1,15,0,15,0,1,,,,,,,,,,,,,
64226a9ac7739618beeee60d,TCR,2024-06-11_10h33.12.960,LearnStrategy,2023.2.3,Win32,144.9275362,6,2,1,,,,,,,,1,10,,,,,,,,,,,4,3.135,0,,,,,,0.384861145,-0.2625,1,0,0,3.1352,Gabbro_rect,0,0,0,0,1,
64226a9ac7739618beeee60d,TCR,2024-06-11_10h33.12.960,LearnStrategy,2023.2.3,Win32,144.9275362,6,2,2,,,,,,,,3,07,,,,,,,,,,,3,2.824,1,,,,,,0.126527939,-0.241666718,1,0,0,2.8237,Diorite_rect,1,0,1,0,1,
64226a9ac7739618beeee60d,TCR,2024-06-11_10h33.12.960,LearnStrategy,2023.2.3,Win32,144.9275362,6,2,3,,,,,,,,8,08,,,,,,,,,,,8,1.072,1,,,,,,0.37097229,-0.405555573,1,0,0,1.0724,Pumice_rect,2,0,2,0,1,
64226a9ac7739618beeee60d,TCR,2024-06-11_10h33.12.960,LearnStrategy,2023.2.3,Win32,144.9275362,6,2,4,,,,,,,,2,02,,,,,,,,,,,2,0.861,1,,,,,,-0.127638855,-0.231944504,1,0,0,0.8615,Basalt_rect,3,0,3,0,1,
64226a9ac7739618beeee60d,TCR,2024-06-11_10h33.12.960,LearnStrategy,2023.2.3,Win32,144.9275362,6,2,5,,,,,,,,1,02,,,,,,,,,,,1,1.334,1,,,,,,-0.434583321,-0.265277786,1,0,0,1.3342,Andesite_rect,4,0,4,0,1,
64226a9ac7739618beeee60d,TCR,2024-06-11_10h33.12.960,LearnStrategy,2023.2.3,Win32,144.9275362,6,2,6,,,,,,,,5,04,,,,,,,,,,,5,0.968,1,,,,,,-0.394305534,-0.402777786,1,0,0,0.9684,Obsidian_rect,5,0,5,0,1,
64226a9ac7739618beeee60d,TCR,2024-06-11_10h33.12.960,LearnStrategy,2023.2.3,Win32,144.9275362,6,2,7,,,,,,,,3,14,,,,,,,,,,,3,1.35,1,,,,,,0.072361145,-0.247222366,1,0,0,1.3498,Diorite_rect,6,0,6,0,1,
64226a9ac7739618beeee60d,TCR,2024-06-11_10h33.12.960,LearnStrategy,2023.2.3,Win32,144.9275362,6,2,8,,,,,,,,4,16,,,,,,,,,,,4,1.184,1,,,,,,0.39319458,-0.247222366,1,0,0,1.1835,Gabbro_rect,7,0,7,0,1,
64226a9ac7739618beeee60d,TCR,2024-06-11_10h33.12.960,LearnStrategy,2023.2.3,Win32,144.9275362,6,2,9,,,,,,,,5,06,,,,,,,,,,,5,0.996,1,,,,,,-0.352638855,-0.388888931,1,0,0,0.9961,Obsidian_rect,8,0,8,0,1,
64226a9ac7739618beeee60d,TCR,2024-06-11_10h33.12.960,LearnStrategy,2023.2.3,Win32,144.9275362,6,2,10,,,,,,,,7,10,,,,,,,,,,,7,0.987,1,,,,,,0.116805573,-0.391666718,1,0,0,0.9867,Peridotite_rect,9,0,9,0,1,
64226a9ac7739618beeee60d,TCR,2024-06-11_10h33.12.960,LearnStrategy,2023.2.3,Win32,144.9275362,6,2,11,,,,,,,,2,12,,,,,,,,,,,8,1.392,0,,,,,,0.50569458,-0.395833359,1,0,0,1.3917,Pumice_rect,10,0,10,0,1,
64226a9ac7739618beeee60d,TCR,2024-06-11_10h33.12.960,LearnStrategy,2023.2.3,Win32,144.9275362,6,2,12,,,,,,,,4,12,,,,,,,,,,,2,1.098,0,,,,,,-0.127638855,-0.233333359,1,0,0,1.0983,Basalt_rect,11,0,11,0,1,
64226a9ac7739618beeee60d,TCR,2024-06-11_10h33.12.960,LearnStrategy,2023.2.3,Win32,144.9275362,6,2,13,,,,,,,,6,10,,,,,,,,,,,6,1.966,1,,,,,,-0.137361069,-0.418055573,1,0,0,1.9658,Pegmatite_rect,12,0,12,0,1,
64226a9ac7739618beeee60d,TCR,2024-06-11_10h33.12.960,LearnStrategy,2023.2.3,Win32,144.9275362,6,2,14,,,,,,,,8,15,,,,,,,,,,,4,1.329,0,,,,,,0.39875,-0.256944504,1,0,0,1.3287,Gabbro_rect,13,0,13,0,1,
64226a9ac7739618beeee60d,TCR,2024-06-11_10h33.12.960,LearnStrategy,2023.2.3,Win32,144.9275362,6,2,15,,,,,,,,6,12,,,,,,,,,,,3,3.799,0,,,,,,0.139027939,-0.261111145,1,0,0,3.7991,Diorite_rect,14,0,14,0,1,
64226a9ac7739618beeee60d,TCR,2024-06-11_10h33.12.960,LearnStrategy,2023.2.3,Win32,144.9275362,6,2,16,,,,,,,,7,13,,,,,,,,,,,7,1.519,1,,,,,,0.194583359,-0.393055573,1,0,0,1.519,Peridotite_rect,15,0,15,0,1,
64226a9ac7739618beeee60d,TCR,2024-06-11_10h33.12.960,LearnStrategy,2023.2.3,Win32,144.9275362,7,1,1,-0.038749847,0.020833321,1,0,0,1.4437,rock_grid_rect_2,6,15,-1,-1,1.444,-0.135972214,-0.419444504,1,0,0,1.2996,Pegmatite_rect,6,1.3,1,0,0,0,0,1,,,,,,,,,,,,,
64226a9ac7739618beeee60d,TCR,2024-06-11_10h33.12.960,LearnStrategy,2023.2.3,Win32,144.9275362,7,1,2,0.011250153,0.001388855,1,0,0,0.9949,rock_grid_rect_2,1,03,-1,-1,0.995,-0.105416641,-0.2625,1,0,0,2.2214,Basalt_rect,2,2.221,0,1,0,1,0,1,,,,,,,,,,,,,
64226a9ac7739618beeee60d,TCR,2024-06-11_10h33.12.960,LearnStrategy,2023.2.3,Win32,144.9275362,7,1,3,-0.002638855,0.019444427,1,0,0,0.6054,rock_grid_rect_2,2,08,-1,-1,0.605,-0.108194427,-0.248611145,1,0,0,0.9668,Basalt_rect,2,0.967,1,2,0,2,0,1,,,,,,,,,,,,,
64226a9ac7739618beeee60d,TCR,2024-06-11_10h33.12.960,LearnStrategy,2023.2.3,Win32,144.9275362,7,1,4,-0.022083282,-0.023611145,1,0,0,0.5544,rock_grid_rect_2,5,10,-1,-1,0.554,-0.404027748,-0.405555573,1,0,0,1.5306,Obsidian_rect,5,1.531,1,3,0,3,0,1,,,,,,,,,,,,,
64226a9ac7739618beeee60d,TCR,2024-06-11_10h33.12.960,LearnStrategy,2023.2.3,Win32,144.9275362,7,1,5,-0.033194427,0.022222214,1,0,0,0.6241,rock_grid_rect_2,3,10,-1,-1,0.624,0.093194504,-0.248611145,1,0,0,1.3898,Diorite_rect,3,1.39,1,4,0,4,0,1,,,,,,,,,,,,,
64226a9ac7739618beeee60d,TCR,2024-06-11_10h33.12.960,LearnStrategy,2023.2.3,Win32,144.9275362,7,1,6,0.009861145,-0.004166679,1,0,0,0.5195,rock_grid_rect_2,3,10,-1,-1,0.519,0.082083359,-0.25,1,0,0,0.6965,Diorite_rect,3,0.697,1,5,0,5,0,1,,,,,,,,,,,,,
64226a9ac7739618beeee60d,TCR,2024-06-11_10h33.12.960,LearnStrategy,2023.2.3,Win32,144.9275362,7,1,7,0.041805573,-0.008333359,1,0,0,0.5547,rock_grid_rect_2,2,16,-1,-1,0.555,-0.172083282,-0.25,1,0,0,2.8946,Basalt_rect,2,2.895,1,6,0,6,0,1,,,,,,,,,,,,,
64226a9ac7739618beeee60d,TCR,2024-06-11_10h33.12.960,LearnStrategy,2023.2.3,Win32,144.9275362,7,1,8,-0.030416641,0.022222214,1,0,0,0.4848,rock_grid_rect_2,4,05,-1,-1,0.485,0.373750153,-0.240277786,1,0,0,1.2395,Gabbro_rect,4,1.24,1,7,0,7,0,1,,,,,,,,,,,,,
64226a9ac7739618beeee60d,TCR,2024-06-11_10h33.12.960,LearnStrategy,2023.2.3,Win32,144.9275362,7,1,9,0.000138931,0.008333321,1,0,0,0.5198,rock_grid_rect_2,4,09,-1,-1,0.52,0.354305725,-0.25,1,0,0,1.4545,Gabbro_rect,4,1.454,1,8,0,8,0,1,,,,,,,,,,,,,
64226a9ac7739618beeee60d,TCR,2024-06-11_10h33.12.960,LearnStrategy,2023.2.3,Win32,144.9275362,7,1,10,-0.009583282,-0.006944466,1,0,0,0.7003,rock_grid_rect_2,2,06,-1,-1,0.7,-0.085972214,-0.238888931,1,0,0,0.7713,Basalt_rect,2,0.771,1,9,0,9,0,1,,,,,,,,,,,,,
64226a9ac7739618beeee60d,TCR,2024-06-11_10h33.12.960,LearnStrategy,2023.2.3,Win32,144.9275362,7,1,11,-0.023472214,-0.015277786,1,0,0,0.6254,rock_grid_rect_2,7,04,-1,-1,0.625,0.12097229,-0.411111145,1,0,0,1.2579,Peridotite_rect,7,1.258,1,10,0,10,0,1,,,,,,,,,,,,,
64226a9ac7739618beeee60d,TCR,2024-06-11_10h33.12.960,LearnStrategy,2023.2.3,Win32,144.9275362,7,1,12,-0.045694427,-0.018055573,1,0,0,0.4849,rock_grid_rect_2,6,08,-1,-1,0.485,-0.063749847,-0.384722366,1,0,0,0.9545,Pegmatite_rect,6,0.954,1,11,0,11,0,1,,,,,,,,,,,,,
64226a9ac7739618beeee60d,TCR,2024-06-11_10h33.12.960,LearnStrategy,2023.2.3,Win32,144.9275362,7,1,13,0.000138931,0.016666641,1,0,0,0.5267,rock_grid_rect_2,1,14,-1,-1,0.527,-0.349861031,-0.233333359,1,0,0,1.1561,Andesite_rect,1,1.156,1,12,0,12,0,1,,,,,,,,,,,,,
64226a9ac7739618beeee60d,TCR,2024-06-11_10h33.12.960,LearnStrategy,2023.2.3,Win32,144.9275362,7,1,14,-0.030416641,0.012499924,1,0,0,0.5266,rock_grid_rect_2,1,11,-1,-1,0.527,-0.347083321,-0.243055573,1,0,0,0.9266,Andesite_rect,1,0.927,1,13,0,13,0,1,,,,,,,,,,,,,
64226a9ac7739618beeee60d,TCR,2024-06-11_10h33.12.960,LearnStrategy,2023.2.3,Win32,144.9275362,7,1,15,-0.023472214,-0.012500076,1,0,0,0.4994,rock_grid_rect_2,8,05,-1,-1,0.499,0.444583435,-0.406944504,1,0,0,1.0585,Pumice_rect,8,1.058,1,14,0,14,0,1,,,,,,,,,,,,,
64226a9ac7739618beeee60d,TCR,2024-06-11_10h33.12.960,LearnStrategy,2023.2.3,Win32,144.9275362,7,1,16,0.011250153,-0.023611145,1,0,0,0.6654,rock_grid_rect_2,4,03,-1,-1,0.665,0.164027939,-0.251388931,1,0,0,1.6465,Diorite_rect,3,1.646,0,15,0,15,0,1,,,,,,,,,,,,,
64226a9ac7739618beeee60d,TCR,2024-06-11_10h33.12.960,LearnStrategy,2023.2.3,Win32,144.9275362,7,2,1,,,,,,,,1,16,,,,,,,,,,,4,1.945,0,,,,,,0.407083435,-0.256944504,1,0,0,1.9449,Gabbro_rect,0,0,0,0,1,
64226a9ac7739618beeee60d,TCR,2024-06-11_10h33.12.960,LearnStrategy,2023.2.3,Win32,144.9275362,7,2,2,,,,,,,,2,12,,,,,,,,,,,8,1.124,0,,,,,,0.409861145,-0.393055573,1,0,0,1.1241,Pumice_rect,1,0,1,0,1,
64226a9ac7739618beeee60d,TCR,2024-06-11_10h33.12.960,LearnStrategy,2023.2.3,Win32,144.9275362,7,2,3,,,,,,,,1,09,,,,,,,,,,,1,1.771,1,,,,,,-0.372083321,-0.248611145,1,0,0,1.7706,Andesite_rect,2,0,2,0,1,
64226a9ac7739618beeee60d,TCR,2024-06-11_10h33.12.960,LearnStrategy,2023.2.3,Win32,144.9275362,7,2,4,,,,,,,,6,07,,,,,,,,,,,6,1.002,1,,,,,,-0.119305496,-0.401388931,1,0,0,1.0021,Pegmatite_rect,3,0,3,0,1,
64226a9ac7739618beeee60d,TCR,2024-06-11_10h33.12.960,LearnStrategy,2023.2.3,Win32,144.9275362,7,2,5,,,,,,,,8,03,,,,,,,,,,,8,1.427,1,,,,,,0.341805725,-0.418055573,1,0,0,1.4266,Pumice_rect,4,0,4,0,1,
64226a9ac7739618beeee60d,TCR,2024-06-11_10h33.12.960,LearnStrategy,2023.2.3,Win32,144.9275362,7,2,6,,,,,,,,8,16,,,,,,,,,,,8,1.091,1,,,,,,0.39875,-0.406944504,1,0,0,1.0913,Pumice_rect,5,0,5,0,1,
64226a9ac7739618beeee60d,TCR,2024-06-11_10h33.12.960,LearnStrategy,2023.2.3,Win32,144.9275362,7,2,7,,,,,,,,3,08,,,,,,,,,,,3,1.142,1,,,,,,0.20847229,-0.251388931,1,0,0,1.142,Diorite_rect,6,0,6,0,1,
64226a9ac7739618beeee60d,TCR,2024-06-11_10h33.12.960,LearnStrategy,2023.2.3,Win32,144.9275362,7,2,8,,,,,,,,4,14,,,,,,,,,,,4,1.001,1,,,,,,0.350138931,-0.259722366,1,0,0,1.0008,Gabbro_rect,7,0,7,0,1,
64226a9ac7739618beeee60d,TCR,2024-06-11_10h33.12.960,LearnStrategy,2023.2.3,Win32,144.9275362,7,2,9,,,,,,,,6,06,,,,,,,,,,,6,1.09,1,,,,,,-0.094305496,-0.416666718,1,0,0,1.0897,Pegmatite_rect,8,0,8,0,1,
64226a9ac7739618beeee60d,TCR,2024-06-11_10h33.12.960,LearnStrategy,2023.2.3,Win32,144.9275362,7,2,10,,,,,,,,4,01,,,,,,,,,,,4,1.577,1,,,,,,0.366805725,-0.25,1,0,0,1.5774,Gabbro_rect,9,0,9,0,1,
64226a9ac7739618beeee60d,TCR,2024-06-11_10h33.12.960,LearnStrategy,2023.2.3,Win32,144.9275362,7,2,11,,,,,,,,5,11,,,,,,,,,,,5,0.802,1,,,,,,-0.426249924,-0.387500153,1,0,0,0.8018,Obsidian_rect,10,0,10,0,1,
64226a9ac7739618beeee60d,TCR,2024-06-11_10h33.12.960,LearnStrategy,2023.2.3,Win32,144.9275362,7,2,12,,,,,,,,5,05,,,,,,,,,,,5,0.76,1,,,,,,-0.355416641,-0.391666718,1,0,0,0.76,Obsidian_rect,11,0,11,0,1,
64226a9ac7739618beeee60d,TCR,2024-06-11_10h33.12.960,LearnStrategy,2023.2.3,Win32,144.9275362,7,2,13,,,,,,,,2,14,,,,,,,,,,,4,2.114,0,,,,,,0.439027863,-0.268055573,1,0,0,2.114,Gabbro_rect,12,0,12,0,1,
64226a9ac7739618beeee60d,TCR,2024-06-11_10h33.12.960,LearnStrategy,2023.2.3,Win32,144.9275362,7,2,14,,,,,,,,7,14,,,,,,,,,,,7,1.049,1,,,,,,0.166805573,-0.412500153,1,0,0,1.0493,Peridotite_rect,13,0,13,0,1,
64226a9ac7739618beeee60d,TCR,2024-06-11_10h33.12.960,LearnStrategy,2023.2.3,Win32,144.9275362,7,2,15,,,,,,,,3,07,,,,,,,,,,,3,0.817,1,,,,,,0.134861145,-0.251388931,1,0,0,0.8168,Diorite_rect,14,0,14,0,1,
64226a9ac7739618beeee60d,TCR,2024-06-11_10h33.12.960,LearnStrategy,2023.2.3,Win32,144.9275362,7,2,16,,,,,,,,7,10,,,,,,,,,,,7,1.122,1,,,,,,0.219583359,-0.397222366,1,0,0,1.1224,Peridotite_rect,15,0,15,0,1,
64226a9ac7739618beeee60d,TCR,2024-06-11_10h33.12.960,LearnStrategy,2023.2.3,Win32,144.9275362,8,1,1,0.044583359,0.002777748,1,0,0,1.1242,rock_grid_rect_2,1,01,-1,-1,1.124,0.329305725,-0.251388931,1,0,0,3.1075,Gabbro_rect,4,3.108,0,0,0,0,0,1,,,,,,,,,,,,,
64226a9ac7739618beeee60d,TCR,2024-06-11_10h33.12.960,LearnStrategy,2023.2.3,Win32,144.9275362,8,1,2,0.009861145,-0.019444466,1,0,0,1.7072,rock_grid_rect_2,2,01,-1,-1,1.707,-0.074861069,-0.240277786,1,0,0,1.4101,Basalt_rect,2,1.41,1,1,0,1,0,1,,,,,,,,,,,,,
64226a9ac7739618beeee60d,TCR,2024-06-11_10h33.12.960,LearnStrategy,2023.2.3,Win32,144.9275362,8,1,3,0.012638931,0.005555534,1,0,0,0.7795,rock_grid_rect_2,1,14,-1,-1,0.779,-0.460972214,-0.238888931,1,0,0,1.1256,Andesite_rect,1,1.126,1,2,0,2,0,1,,,,,,,,,,,,,
64226a9ac7739618beeee60d,TCR,2024-06-11_10h33.12.960,LearnStrategy,2023.2.3,Win32,144.9275362,8,1,4,-0.030416641,-0.008333359,1,0,0,0.5684,rock_grid_rect_2,2,09,-1,-1,0.568,-0.119305496,-0.240277786,1,0,0,0.7286,Basalt_rect,2,0.729,1,3,0,3,0,1,,,,,,,,,,,,,
64226a9ac7739618beeee60d,TCR,2024-06-11_10h33.12.960,LearnStrategy,2023.2.3,Win32,144.9275362,8,1,5,-0.048472214,0.024999924,1,0,0,0.4853,rock_grid_rect_2,8,06,-1,-1,0.485,0.384861145,-0.395833359,1,0,0,0.9825,Pumice_rect,8,0.983,1,4,0,4,0,1,,,,,,,,,,,,,
64226a9ac7739618beeee60d,TCR,2024-06-11_10h33.12.960,LearnStrategy,2023.2.3,Win32,144.9275362,8,1,6,-0.008194427,-0.022222252,1,0,0,0.6104,rock_grid_rect_2,4,05,-1,-1,0.61,0.104305573,-0.418055573,1,0,0,1.1143,Peridotite_rect,7,1.114,0,5,0,5,0,1,,,,,,,,,,,,,
64226a9ac7739618beeee60d,TCR,2024-06-11_10h33.12.960,LearnStrategy,2023.2.3,Win32,144.9275362,8,1,7,0.09597229,-0.001388969,1,0,0,0.4641,rock_grid_rect_2,3,12,-1,-1,0.464,0.044583359,-0.248611145,1,0,0,0.917,Diorite_rect,3,0.917,1,6,0,6,0,1,,,,,,,,,,,,,
64226a9ac7739618beeee60d,TCR,2024-06-11_10h33.12.960,LearnStrategy,2023.2.3,Win32,144.9275362,8,1,8,-0.002638855,-0.019444466,1,0,0,0.541,rock_grid_rect_2,4,13,-1,-1,0.541,0.362638931,-0.254166718,1,0,0,1.1123,Gabbro_rect,4,1.112,1,7,0,7,0,1,,,,,,,,,,,,,
64226a9ac7739618beeee60d,TCR,2024-06-11_10h33.12.960,LearnStrategy,2023.2.3,Win32,144.9275362,8,1,9,0.066805573,-0.015277786,1,0,0,0.5427,rock_grid_rect_2,6,05,-1,-1,0.543,-0.081805496,-0.408333359,1,0,0,1.7135,Pegmatite_rect,6,1.714,1,8,0,8,0,1,,,,,,,,,,,,,
64226a9ac7739618beeee60d,TCR,2024-06-11_10h33.12.960,LearnStrategy,2023.2.3,Win32,144.9275362,8,1,10,-0.005416641,0.006944427,1,0,0,0.6391,rock_grid_rect_2,7,07,-1,-1,0.639,0.144583359,-0.402777786,1,0,0,1.2062,Peridotite_rect,7,1.206,1,9,0,9,0,1,,,,,,,,,,,,,
64226a9ac7739618beeee60d,TCR,2024-06-11_10h33.12.960,LearnStrategy,2023.2.3,Win32,144.9275362,8,1,11,0.034861145,0.020833321,1,0,0,0.8879,rock_grid_rect_2,2,06,-1,-1,0.888,-0.104027634,-0.255555573,1,0,0,1.1032,Basalt_rect,2,1.103,1,10,0,10,0,1,,,,,,,,,,,,,
64226a9ac7739618beeee60d,TCR,2024-06-11_10h33.12.960,LearnStrategy,2023.2.3,Win32,144.9275362,8,1,12,0.000138931,0.009722214,1,0,0,0.5755,rock_grid_rect_2,1,11,-1,-1,0.575,-0.351249924,-0.254166718,1,0,0,0.8551,Andesite_rect,1,0.855,1,11,0,11,0,1,,,,,,,,,,,,,
64226a9ac7739618beeee60d,TCR,2024-06-11_10h33.12.960,LearnStrategy,2023.2.3,Win32,144.9275362,8,1,13,-0.024861069,0.012499924,1,0,0,0.6034,rock_grid_rect_2,6,08,-1,-1,0.603,-0.085972214,-0.405555573,1,0,0,0.9475,Pegmatite_rect,6,0.947,1,12,0,12,0,1,,,,,,,,,,,,,
64226a9ac7739618beeee60d,TCR,2024-06-11_10h33.12.960,LearnStrategy,2023.2.3,Win32,144.9275362,8,1,14,-0.037361069,0.005555534,1,0,0,0.5618,rock_grid_rect_2,5,02,-1,-1,0.562,-0.466527748,-0.394444504,1,0,0,0.8851,Obsidian_rect,5,0.885,1,13,0,13,0,1,,,,,,,,,,,,,
64226a9ac7739618beeee60d,TCR,2024-06-11_10h33.12.960,LearnStrategy,2023.2.3,Win32,144.9275362,8,1,15,-0.002638855,0.004166641,1,0,0,0.9993,rock_grid_rect_2,4,13,-1,-1,0.999,0.332083359,-0.261111145,1,0,0,0.9311,Gabbro_rect,4,0.931,1,14,0,14,0,1,,,,,,,,,,,,,
64226a9ac7739618beeee60d,TCR,2024-06-11_10h33.12.960,LearnStrategy,2023.2.3,Win32,144.9275362,8,1,16,0.055694504,0.024999924,1,0,0,0.652,rock_grid_rect_2,2,05,-1,-1,0.652,-0.079027634,-0.255555573,1,0,0,1.0705,Basalt_rect,2,1.071,1,15,0,15,0,1,,,,,,,,,,,,,
64226a9ac7739618beeee60d,TCR,2024-06-11_10h33.12.960,LearnStrategy,2023.2.3,Win32,144.9275362,8,2,1,,,,,,,,8,08,,,,,,,,,,,8,2.369,1,,,,,,0.47097229,-0.411111145,1,0,0,2.3686,Pumice_rect,0,0,0,0,1,
64226a9ac7739618beeee60d,TCR,2024-06-11_10h33.12.960,LearnStrategy,2023.2.3,Win32,144.9275362,8,2,2,,,,,,,,3,14,,,,,,,,,,,3,1.973,1,,,,,,0.054305573,-0.269444504,1,0,0,1.973,Diorite_rect,1,0,1,0,1,
64226a9ac7739618beeee60d,TCR,2024-06-11_10h33.12.960,LearnStrategy,2023.2.3,Win32,144.9275362,8,2,3,,,,,,,,4,12,,,,,,,,,,,2,1.053,0,,,,,,-0.073472214,-0.256944504,1,0,0,1.053,Basalt_rect,2,0,2,0,1,
64226a9ac7739618beeee60d,TCR,2024-06-11_10h33.12.960,LearnStrategy,2023.2.3,Win32,144.9275362,8,2,4,,,,,,,,5,09,,,,,,,,,,,5,1.421,1,,,,,,-0.459583321,-0.415277786,1,0,0,1.421,Obsidian_rect,3,0,3,0,1,
64226a9ac7739618beeee60d,TCR,2024-06-11_10h33.12.960,LearnStrategy,2023.2.3,Win32,144.9275362,8,2,5,,,,,,,,1,06,,,,,,,,,,,1,1.232,1,,,,,,-0.331805534,-0.2625,1,0,0,1.2321,Andesite_rect,4,0,4,0,1,
64226a9ac7739618beeee60d,TCR,2024-06-11_10h33.12.960,LearnStrategy,2023.2.3,Win32,144.9275362,8,2,6,,,,,,,,2,11,,,,,,,,,,,4,1.737,0,,,,,,0.491805573,-0.268055573,1,0,0,1.7368,Gabbro_rect,5,0,5,0,1,
64226a9ac7739618beeee60d,TCR,2024-06-11_10h33.12.960,LearnStrategy,2023.2.3,Win32,144.9275362,8,2,7,,,,,,,,2,02,,,,,,,,,,,2,1.038,1,,,,,,-0.055416641,-0.268055573,1,0,0,1.0379,Basalt_rect,6,0,6,0,1,
64226a9ac7739618beeee60d,TCR,2024-06-11_10h33.12.960,LearnStrategy,2023.2.3,Win32,144.9275362,8,2,8,,,,,,,,4,10,,,,,,,,,,,4,1.809,1,,,,,,0.380694504,-0.243055573,1,0,0,1.8087,Gabbro_rect,7,0,7,0,1,
64226a9ac7739618beeee60d,TCR,2024-06-11_10h33.12.960,LearnStrategy,2023.2.3,Win32,144.9275362,8,2,9,,,,,,,,6,12,,,,,,,,,,,3,1.336,0,,,,,,0.122361145,-0.252777786,1,0,0,1.3362,Diorite_rect,8,0,8,0,1,
64226a9ac7739618beeee60d,TCR,2024-06-11_10h33.12.960,LearnStrategy,2023.2.3,Win32,144.9275362,8,2,10,,,,,,,,7,05,,,,,,,,,,,7,0.857,1,,,,,,0.132083359,-0.393055573,1,0,0,0.8568,Peridotite_rect,9,0,9,0,1,
64226a9ac7739618beeee60d,TCR,2024-06-11_10h33.12.960,LearnStrategy,2023.2.3,Win32,144.9275362,8,2,11,,,,,,,,8,02,,,,,,,,,,,8,0.834,1,,,,,,0.39319458,-0.412500153,1,0,0,0.8337,Pumice_rect,10,0,10,0,1,
64226a9ac7739618beeee60d,TCR,2024-06-11_10h33.12.960,LearnStrategy,2023.2.3,Win32,144.9275362,8,2,12,,,,,,,,6,10,,,,,,,,,,,6,1.188,1,,,,,,-0.094305496,-0.416666718,1,0,0,1.1883,Pegmatite_rect,11,0,11,0,1,
64226a9ac7739618beeee60d,TCR,2024-06-11_10h33.12.960,LearnStrategy,2023.2.3,Win32,144.9275362,8,2,13,,,,,,,,1,05,,,,,,,,,,,1,1.612,1,,,,,,-0.335972214,-0.240277786,1,0,0,1.6122,Andesite_rect,12,0,12,0,1,
64226a9ac7739618beeee60d,TCR,2024-06-11_10h33.12.960,LearnStrategy,2023.2.3,Win32,144.9275362,8,2,14,,,,,,,,3,15,,,,,,,,,,,4,2.634,0,,,,,,0.373750153,-0.255555573,1,0,0,2.6336,Gabbro_rect,13,0,13,0,1,
64226a9ac7739618beeee60d,TCR,2024-06-11_10h33.12.960,LearnStrategy,2023.2.3,Win32,144.9275362,8,2,15,,,,,,,,7,15,,,,,,,,,,,7,1.586,1,,,,,,0.107083359,-0.418055573,1,0,0,1.5857,Peridotite_rect,14,0,14,0,1,
64226a9ac7739618beeee60d,TCR,2024-06-11_10h33.12.960,LearnStrategy,2023.2.3,Win32,144.9275362,8,2,16,,,,,,,,5,04,,,,,,,,,,,5,0.774,1,,,,,,-0.476249924,-0.395833359,1,0,0,0.7736,Obsidian_rect,15,0,15,0,1,
64226a9ac7739618beeee60d,TCR,2024-06-11_10h33.12.960,LearnStrategy,2023.2.3,Win32,144.9275362,9,1,1,0.091805573,-0.011111145,1,0,0,73.995,rock_grid_rect_2,6,09,-1,-1,73.995,-0.141527634,-0.406944504,1,0,0,1.7432,Pegmatite_rect,6,1.743,1,0,0,0,0,1,,,,,,,,,,,,,
64226a9ac7739618beeee60d,TCR,2024-06-11_10h33.12.960,LearnStrategy,2023.2.3,Win32,144.9275362,9,1,2,-0.006805496,-0.015277786,1,0,0,0.9019,rock_grid_rect_2,4,05,-1,-1,0.902,0.129305573,-0.391666718,1,0,0,1.1678,Peridotite_rect,7,1.168,0,1,0,1,0,1,,,,,,,,,,,,,
64226a9ac7739618beeee60d,TCR,2024-06-11_10h33.12.960,LearnStrategy,2023.2.3,Win32,144.9275362,9,1,3,0.073750153,-0.013888969,1,0,0,0.492,rock_grid_rect_2,3,10,-1,-1,0.492,0.080694504,-0.256944504,1,0,0,1.2252,Diorite_rect,3,1.225,1,2,0,2,0,1,,,,,,,,,,,,,
64226a9ac7739618beeee60d,TCR,2024-06-11_10h33.12.960,LearnStrategy,2023.2.3,Win32,144.9275362,9,1,4,0.112638931,-0.022222252,1,0,0,0.8463,rock_grid_rect_2,2,01,-1,-1,0.846,-0.10125,-0.252777786,1,0,0,0.9582,Basalt_rect,2,0.958,1,3,0,3,0,1,,,,,,,,,,,,,
64226a9ac7739618beeee60d,TCR,2024-06-11_10h33.12.960,LearnStrategy,2023.2.3,Win32,144.9275362,9,1,5,0.029305573,-0.019444466,1,0,0,0.499,rock_grid_rect_2,2,16,-1,-1,0.499,0.330694504,-0.251388931,1,0,0,1.5795,Gabbro_rect,4,1.579,0,4,0,4,0,1,,,,,,,,,,,,,
64226a9ac7739618beeee60d,TCR,2024-06-11_10h33.12.960,LearnStrategy,2023.2.3,Win32,144.9275362,9,1,6,0.093194504,0.006944427,1,0,0,0.4919,rock_grid_rect_2,2,06,-1,-1,0.492,-0.10125,-0.238888931,1,0,0,0.649,Basalt_rect,2,0.649,1,5,0,5,0,1,,,,,,,,,,,,,
64226a9ac7739618beeee60d,TCR,2024-06-11_10h33.12.960,LearnStrategy,2023.2.3,Win32,144.9275362,9,1,7,0.016805573,0.004166641,1,0,0,0.5062,rock_grid_rect_2,4,15,-1,-1,0.506,0.190416718,-0.238888931,1,0,0,1.0728,Diorite_rect,3,1.073,0,6,0,6,0,1,,,,,,,,,,,,,
64226a9ac7739618beeee60d,TCR,2024-06-11_10h33.12.960,LearnStrategy,2023.2.3,Win32,144.9275362,9,1,8,0.065416718,0.022222214,1,0,0,0.4778,rock_grid_rect_2,1,04,-1,-1,0.478,-0.360972214,-0.252777786,1,0,0,0.8329,Andesite_rect,1,0.833,1,7,0,7,0,1,,,,,,,,,,,,,
64226a9ac7739618beeee60d,TCR,2024-06-11_10h33.12.960,LearnStrategy,2023.2.3,Win32,144.9275362,9,1,9,0.057083359,0.005555534,1,0,0,0.659,rock_grid_rect_2,6,09,-1,-1,0.659,-0.116527634,-0.390277786,1,0,0,0.7879,Pegmatite_rect,6,0.788,1,8,0,8,0,1,,,,,,,,,,,,,
64226a9ac7739618beeee60d,TCR,2024-06-11_10h33.12.960,LearnStrategy,2023.2.3,Win32,144.9275362,9,1,10,-0.019305496,-0.011111145,1,0,0,0.5062,rock_grid_rect_2,7,07,-1,-1,0.506,0.082083359,-0.405555573,1,0,0,0.8575,Peridotite_rect,7,0.857,1,9,0,9,0,1,,,,,,,,,,,,,
64226a9ac7739618beeee60d,TCR,2024-06-11_10h33.12.960,LearnStrategy,2023.2.3,Win32,144.9275362,9,1,11,0.036250153,0.015277748,1,0,0,0.6794,rock_grid_rect_2,2,09,-1,-1,0.679,-0.095694427,-0.254166718,1,0,0,1.3068,Basalt_rect,2,1.307,1,10,0,10,0,1,,,,,,,,,,,,,
64226a9ac7739618beeee60d,TCR,2024-06-11_10h33.12.960,LearnStrategy,2023.2.3,Win32,144.9275362,9,1,12,0.001527786,-0.015277786,1,0,0,0.7432,rock_grid_rect_2,5,12,-1,-1,0.743,-0.363749924,-0.393055573,1,0,0,0.9104,Obsidian_rect,5,0.91,1,11,0,11,0,1,,,,,,,,,,,,,
64226a9ac7739618beeee60d,TCR,2024-06-11_10h33.12.960,LearnStrategy,2023.2.3,Win32,144.9275362,9,1,13,0.055694504,0.012499924,1,0,0,0.5061,rock_grid_rect_2,4,09,-1,-1,0.506,0.368194504,-0.240277786,1,0,0,1.0842,Gabbro_rect,4,1.084,1,12,0,12,0,1,,,,,,,,,,,,,
64226a9ac7739618beeee60d,TCR,2024-06-11_10h33.12.960,LearnStrategy,2023.2.3,Win32,144.9275362,9,1,14,0.061250153,0.002777748,1,0,0,0.6446,rock_grid_rect_2,3,11,-1,-1,0.645,0.147361145,-0.248611145,1,0,0,1.0029,Diorite_rect,3,1.003,1,13,0,13,0,1,,,,,,,,,,,,,
64226a9ac7739618beeee60d,TCR,2024-06-11_10h33.12.960,LearnStrategy,2023.2.3,Win32,144.9275362,9,1,15,0.039027786,-0.020833359,1,0,0,0.6727,rock_grid_rect_2,1,14,-1,-1,0.673,-0.309583321,-0.2625,1,0,0,1.2324,Andesite_rect,1,1.232,1,14,0,14,0,1,,,,,,,,,,,,,
64226a9ac7739618beeee60d,TCR,2024-06-11_10h33.12.960,LearnStrategy,2023.2.3,Win32,144.9275362,9,1,16,0.040416718,-0.016666679,1,0,0,0.6589,rock_grid_rect_2,8,14,-1,-1,0.659,0.372361145,-0.387500153,1,0,0,1.0364,Pumice_rect,8,1.036,1,15,0,15,0,1,,,,,,,,,,,,,
64226a9ac7739618beeee60d,TCR,2024-06-11_10h33.12.960,LearnStrategy,2023.2.3,Win32,144.9275362,9,2,1,,,,,,,,2,04,,,,,,,,,,,2,0.961,1,,,,,,-0.112361069,-0.229166718,1,0,0,0.9609,Basalt_rect,0,0,0,0,1,
64226a9ac7739618beeee60d,TCR,2024-06-11_10h33.12.960,LearnStrategy,2023.2.3,Win32,144.9275362,9,2,2,,,,,,,,6,13,,,,,,,,,,,6,1.258,1,,,,,,-0.11375,-0.402777786,1,0,0,1.2578,Pegmatite_rect,1,0,1,0,1,
64226a9ac7739618beeee60d,TCR,2024-06-11_10h33.12.960,LearnStrategy,2023.2.3,Win32,144.9275362,9,2,3,,,,,,,,7,13,,,,,,,,,,,7,0.954,1,,,,,,0.107083359,-0.404166718,1,0,0,0.9541,Peridotite_rect,2,0,2,0,1,
64226a9ac7739618beeee60d,TCR,2024-06-11_10h33.12.960,LearnStrategy,2023.2.3,Win32,144.9275362,9,2,4,,,,,,,,8,04,,,,,,,,,,,8,0.878,1,,,,,,0.37097229,-0.401388931,1,0,0,0.8778,Pumice_rect,3,0,3,0,1,
64226a9ac7739618beeee60d,TCR,2024-06-11_10h33.12.960,LearnStrategy,2023.2.3,Win32,144.9275362,9,2,5,,,,,,,,6,11,,,,,,,,,,,6,0.906,1,,,,,,-0.090138855,-0.401388931,1,0,0,0.9056,Pegmatite_rect,4,0,4,0,1,
64226a9ac7739618beeee60d,TCR,2024-06-11_10h33.12.960,LearnStrategy,2023.2.3,Win32,144.9275362,9,2,6,,,,,,,,2,10,,,,,,,,,,,2,2.742,1,,,,,,-0.165138855,-0.241666718,1,0,0,2.742,Basalt_rect,5,0,5,0,1,
64226a9ac7739618beeee60d,TCR,2024-06-11_10h33.12.960,LearnStrategy,2023.2.3,Win32,144.9275362,9,2,7,,,,,,,,8,15,,,,,,,,,,,8,4.218,1,,,,,,0.404305573,-0.418055573,1,0,0,4.2179,Pumice_rect,6,0,6,0,1,
64226a9ac7739618beeee60d,TCR,2024-06-11_10h33.12.960,LearnStrategy,2023.2.3,Win32,144.9275362,9,2,8,,,,,,,,1,10,,,,,,,,,,,1,0.978,1,,,,,,-0.334583321,-0.2625,1,0,0,0.9781,Andesite_rect,7,0,7,0,1,
64226a9ac7739618beeee60d,TCR,2024-06-11_10h33.12.960,LearnStrategy,2023.2.3,Win32,144.9275362,9,2,9,,,,,,,,3,16,,,,,,,,,,,3,1.1,1,,,,,,0.177916718,-0.251388931,1,0,0,1.0999,Diorite_rect,8,0,8,0,1,
64226a9ac7739618beeee60d,TCR,2024-06-11_10h33.12.960,LearnStrategy,2023.2.3,Win32,144.9275362,9,2,10,,,,,,,,1,02,,,,,,,,,,,4,2.336,0,,,,,,0.390416718,-0.255555573,1,0,0,2.336,Gabbro_rect,9,0,9,0,1,
64226a9ac7739618beeee60d,TCR,2024-06-11_10h33.12.960,LearnStrategy,2023.2.3,Win32,144.9275362,9,2,11,,,,,,,,4,16,,,,,,,,,,,2,0.951,0,,,,,,-0.076249847,-0.2375,1,0,0,0.9511,Basalt_rect,10,0,10,0,1,
64226a9ac7739618beeee60d,TCR,2024-06-11_10h33.12.960,LearnStrategy,2023.2.3,Win32,144.9275362,9,2,12,,,,,,,,3,06,,,,,,,,,,,3,1.17,1,,,,,,0.116805573,-0.236111145,1,0,0,1.1697,Diorite_rect,11,0,11,0,1,
64226a9ac7739618beeee60d,TCR,2024-06-11_10h33.12.960,LearnStrategy,2023.2.3,Win32,144.9275362,9,2,13,,,,,,,,5,16,,,,,,,,,,,5,0.885,1,,,,,,-0.360972214,-0.386111145,1,0,0,0.8848,Obsidian_rect,12,0,12,0,1,
64226a9ac7739618beeee60d,TCR,2024-06-11_10h33.12.960,LearnStrategy,2023.2.3,Win32,144.9275362,9,2,14,,,,,,,,4,11,,,,,,,,,,,2,1.093,0,,,,,,-0.079027634,-0.230555573,1,0,0,1.093,Basalt_rect,13,0,13,0,1,
64226a9ac7739618beeee60d,TCR,2024-06-11_10h33.12.960,LearnStrategy,2023.2.3,Win32,144.9275362,9,2,15,,,,,,,,5,06,,,,,,,,,,,5,0.857,1,,,,,,-0.369305534,-0.404166718,1,0,0,0.8571,Obsidian_rect,14,0,14,0,1,
64226a9ac7739618beeee60d,TCR,2024-06-11_10h33.12.960,LearnStrategy,2023.2.3,Win32,144.9275362,9,2,16,,,,,,,,7,08,,,,,,,,,,,7,1.031,1,,,,,,0.127916718,-0.401388931,1,0,0,1.0307,Peridotite_rect,15,0,15,0,1,
64226a9ac7739618beeee60d,TCR,2024-06-11_10h33.12.960,LearnStrategy,2023.2.3,Win32,144.9275362,,,,,,,,,,,,,,,,,,,,,,,,,,,,,,,,,,,,,,,,,,,1
64226a9ac7739618beeee60d,TCR,2024-06-11_10h33.12.960,LearnStrategy,2023.2.3,Win32,144.9275362,,,,,,,,,,,,,,,,,,,,,,,,,,,,,,,,,,,,,,,,,,,
64226a9ac7739618beeee60d,TCR,2024-06-11_10h33.12.960,LearnStrategy,2023.2.3,Win32,144.9275362,,,,,,,,,,,1,14,1,1,,,,,,,,,,,,,,,,,,,,,,,,,,,,,
64226a9ac7739618beeee60d,TCR,2024-06-11_10h33.12.960,LearnStrategy,2023.2.3,Win32,144.9275362,,,,,,,,,,,8,05,1,2,,,,,,,,,,,,,,,,,,,,,,,,,,,,,
64226a9ac7739618beeee60d,TCR,2024-06-11_10h33.12.960,LearnStrategy,2023.2.3,Win32,144.9275362,,,,,,,,,,,4,09,1,3,,,,,,,,,,,,,,,,,,,,,,,,,,,,,
64226a9ac7739618beeee60d,TCR,2024-06-11_10h33.12.960,LearnStrategy,2023.2.3,Win32,144.9275362,,,,,,,,,,,7,16,1,4,,,,,,,,,,,,,,,,,,,,,,,,,,,,,
64226a9ac7739618beeee60d,TCR,2024-06-11_10h33.12.960,LearnStrategy,2023.2.3,Win32,144.9275362,,,,,,,,,,,3,02,1,5,,,,,,,,,,,,,,,,,,,,,,,,,,,,,
64226a9ac7739618beeee60d,TCR,2024-06-11_10h33.12.960,LearnStrategy,2023.2.3,Win32,144.9275362,,,,,,,,,,,1,07,1,6,,,,,,,,,,,,,,,,,,,,,,,,,,,,,
64226a9ac7739618beeee60d,TCR,2024-06-11_10h33.12.960,LearnStrategy,2023.2.3,Win32,144.9275362,,,,,,,,,,,8,14,1,7,,,,,,,,,,,,,,,,,,,,,,,,,,,,,
64226a9ac7739618beeee60d,TCR,2024-06-11_10h33.12.960,LearnStrategy,2023.2.3,Win32,144.9275362,,,,,,,,,,,3,11,1,8,,,,,,,,,,,,,,,,,,,,,,,,,,,,,
64226a9ac7739618beeee60d,TCR,2024-06-11_10h33.12.960,LearnStrategy,2023.2.3,Win32,144.9275362,,,,,,,,,,,5,10,2,1,,,,,,,,,,,,,,,,,,,,,,,,,,,,,
64226a9ac7739618beeee60d,TCR,2024-06-11_10h33.12.960,LearnStrategy,2023.2.3,Win32,144.9275362,,,,,,,,,,,3,12,2,2,,,,,,,,,,,,,,,,,,,,,,,,,,,,,
64226a9ac7739618beeee60d,TCR,2024-06-11_10h33.12.960,LearnStrategy,2023.2.3,Win32,144.9275362,,,,,,,,,,,8,13,2,3,,,,,,,,,,,,,,,,,,,,,,,,,,,,,
64226a9ac7739618beeee60d,TCR,2024-06-11_10h33.12.960,LearnStrategy,2023.2.3,Win32,144.9275362,,,,,,,,,,,5,07,2,4,,,,,,,,,,,,,,,,,,,,,,,,,,,,,
64226a9ac7739618beeee60d,TCR,2024-06-11_10h33.12.960,LearnStrategy,2023.2.3,Win32,144.9275362,,,,,,,,,,,4,13,2,5,,,,,,,,,,,,,,,,,,,,,,,,,,,,,
64226a9ac7739618beeee60d,TCR,2024-06-11_10h33.12.960,LearnStrategy,2023.2.3,Win32,144.9275362,,,,,,,,,,,1,03,2,6,,,,,,,,,,,,,,,,,,,,,,,,,,,,,
64226a9ac7739618beeee60d,TCR,2024-06-11_10h33.12.960,LearnStrategy,2023.2.3,Win32,144.9275362,,,,,,,,,,,4,03,2,7,,,,,,,,,,,,,,,,,,,,,,,,,,,,,
64226a9ac7739618beeee60d,TCR,2024-06-11_10h33.12.960,LearnStrategy,2023.2.3,Win32,144.9275362,,,,,,,,,,,6,16,2,8,,,,,,,,,,,,,,,,,,,,,,,,,,,,,
64226a9ac7739618beeee60d,TCR,2024-06-11_10h33.12.960,LearnStrategy,2023.2.3,Win32,144.9275362,,,,,,,,,,,5,08,3,1,,,,,,,,,,,,,,,,,,,,,,,,,,,,,
64226a9ac7739618beeee60d,TCR,2024-06-11_10h33.12.960,LearnStrategy,2023.2.3,Win32,144.9275362,,,,,,,,,,,7,04,3,2,,,,,,,,,,,,,,,,,,,,,,,,,,,,,
64226a9ac7739618beeee60d,TCR,2024-06-11_10h33.12.960,LearnStrategy,2023.2.3,Win32,144.9275362,,,,,,,,,,,2,08,3,3,,,,,,,,,,,,,,,,,,,,,,,,,,,,,
64226a9ac7739618beeee60d,TCR,2024-06-11_10h33.12.960,LearnStrategy,2023.2.3,Win32,144.9275362,,,,,,,,,,,6,15,3,4,,,,,,,,,,,,,,,,,,,,,,,,,,,,,
64226a9ac7739618beeee60d,TCR,2024-06-11_10h33.12.960,LearnStrategy,2023.2.3,Win32,144.9275362,,,,,,,,,,,7,02,3,5,,,,,,,,,,,,,,,,,,,,,,,,,,,,,
64226a9ac7739618beeee60d,TCR,2024-06-11_10h33.12.960,LearnStrategy,2023.2.3,Win32,144.9275362,,,,,,,,,,,7,07,3,6,,,,,,,,,,,,,,,,,,,,,,,,,,,,,
64226a9ac7739618beeee60d,TCR,2024-06-11_10h33.12.960,LearnStrategy,2023.2.3,Win32,144.9275362,,,,,,,,,,,5,12,3,7,,,,,,,,,,,,,,,,,,,,,,,,,,,,,
64226a9ac7739618beeee60d,TCR,2024-06-11_10h33.12.960,LearnStrategy,2023.2.3,Win32,144.9275362,,,,,,,,,,,5,14,3,8,,,,,,,,,,,,,,,,,,,,,,,,,,,,,
64226a9ac7739618beeee60d,TCR,2024-06-11_10h33.12.960,LearnStrategy,2023.2.3,Win32,144.9275362,,,,,,,,,,,3,09,4,1,,,,,,,,,,,,,,,,,,,,,,,,,,,,,
64226a9ac7739618beeee60d,TCR,2024-06-11_10h33.12.960,LearnStrategy,2023.2.3,Win32,144.9275362,,,,,,,,,,,2,06,4,2,,,,,,,,,,,,,,,,,,,,,,,,,,,,,
64226a9ac7739618beeee60d,TCR,2024-06-11_10h33.12.960,LearnStrategy,2023.2.3,Win32,144.9275362,,,,,,,,,,,6,09,4,3,,,,,,,,,,,,,,,,,,,,,,,,,,,,,
64226a9ac7739618beeee60d,TCR,2024-06-11_10h33.12.960,LearnStrategy,2023.2.3,Win32,144.9275362,,,,,,,,,,,1,11,4,4,,,,,,,,,,,,,,,,,,,,,,,,,,,,,
64226a9ac7739618beeee60d,TCR,2024-06-11_10h33.12.960,LearnStrategy,2023.2.3,Win32,144.9275362,,,,,,,,,,,8,06,4,5,,,,,,,,,,,,,,,,,,,,,,,,,,,,,
64226a9ac7739618beeee60d,TCR,2024-06-11_10h33.12.960,LearnStrategy,2023.2.3,Win32,144.9275362,,,,,,,,,,,7,12,4,6,,,,,,,,,,,,,,,,,,,,,,,,,,,,,
64226a9ac7739618beeee60d,TCR,2024-06-11_10h33.12.960,LearnStrategy,2023.2.3,Win32,144.9275362,,,,,,,,,,,2,01,4,7,,,,,,,,,,,,,,,,,,,,,,,,,,,,,
64226a9ac7739618beeee60d,TCR,2024-06-11_10h33.12.960,LearnStrategy,2023.2.3,Win32,144.9275362,,,,,,,,,,,2,09,4,8,,,,,,,,,,,,,,,,,,,,,,,,,,,,,
64226a9ac7739618beeee60d,TCR,2024-06-11_10h33.12.960,LearnStrategy,2023.2.3,Win32,144.9275362,,,,,,,,,,,4,15,5,1,,,,,,,,,,,,,,,,,,,,,,,,,,,,,
64226a9ac7739618beeee60d,TCR,2024-06-11_10h33.12.960,LearnStrategy,2023.2.3,Win32,144.9275362,,,,,,,,,,,6,05,5,2,,,,,,,,,,,,,,,,,,,,,,,,,,,,,
64226a9ac7739618beeee60d,TCR,2024-06-11_10h33.12.960,LearnStrategy,2023.2.3,Win32,144.9275362,,,,,,,,,,,8,09,5,3,,,,,,,,,,,,,,,,,,,,,,,,,,,,,
64226a9ac7739618beeee60d,TCR,2024-06-11_10h33.12.960,LearnStrategy,2023.2.3,Win32,144.9275362,,,,,,,,,,,4,08,5,4,,,,,,,,,,,,,,,,,,,,,,,,,,,,,
64226a9ac7739618beeee60d,TCR,2024-06-11_10h33.12.960,LearnStrategy,2023.2.3,Win32,144.9275362,,,,,,,,,,,7,06,5,5,,,,,,,,,,,,,,,,,,,,,,,,,,,,,
64226a9ac7739618beeee60d,TCR,2024-06-11_10h33.12.960,LearnStrategy,2023.2.3,Win32,144.9275362,,,,,,,,,,,1,04,5,6,,,,,,,,,,,,,,,,,,,,,,,,,,,,,
64226a9ac7739618beeee60d,TCR,2024-06-11_10h33.12.960,LearnStrategy,2023.2.3,Win32,144.9275362,,,,,,,,,,,3,10,5,7,,,,,,,,,,,,,,,,,,,,,,,,,,,,,
64226a9ac7739618beeee60d,TCR,2024-06-11_10h33.12.960,LearnStrategy,2023.2.3,Win32,144.9275362,,,,,,,,,,,6,08,5,8,,,,,,,,,,,,,,,,,,,,,,,,,,,,,
64226a9ac7739618beeee60d,TCR,2024-06-11_10h33.12.960,LearnStrategy,2023.2.3,Win32,144.9275362,,,,,,,,,,,3,13,6,1,,,,,,,,,,,,,,,,,,,,,,,,,,,,,
64226a9ac7739618beeee60d,TCR,2024-06-11_10h33.12.960,LearnStrategy,2023.2.3,Win32,144.9275362,,,,,,,,,,,2,05,6,2,,,,,,,,,,,,,,,,,,,,,,,,,,,,,
64226a9ac7739618beeee60d,TCR,2024-06-11_10h33.12.960,LearnStrategy,2023.2.3,Win32,144.9275362,,,,,,,,,,,1,01,6,3,,,,,,,,,,,,,,,,,,,,,,,,,,,,,
64226a9ac7739618beeee60d,TCR,2024-06-11_10h33.12.960,LearnStrategy,2023.2.3,Win32,144.9275362,,,,,,,,,,,2,16,6,4,,,,,,,,,,,,,,,,,,,,,,,,,,,,,
64226a9ac7739618beeee60d,TCR,2024-06-11_10h33.12.960,LearnStrategy,2023.2.3,Win32,144.9275362,,,,,,,,,,,8,10,6,5,,,,,,,,,,,,,,,,,,,,,,,,,,,,,
64226a9ac7739618beeee60d,TCR,2024-06-11_10h33.12.960,LearnStrategy,2023.2.3,Win32,144.9275362,,,,,,,,,,,4,05,6,6,,,,,,,,,,,,,,,,,,,,,,,,,,,,,
64226a9ac7739618beeee60d,TCR,2024-06-11_10h33.12.960,LearnStrategy,2023.2.3,Win32,144.9275362,,,,,,,,,,,5,02,6,7,,,,,,,,,,,,,,,,,,,,,,,,,,,,,
64226a9ac7739618beeee60d,TCR,2024-06-11_10h33.12.960,LearnStrategy,2023.2.3,Win32,144.9275362,,,,,,,,,,,6,03,6,8,,,,,,,,,,,,,,,,,,,,,,,,,,,,,