participant,condition,date,expName,psychopyVersion,OS,frameRate,block,phase,trial,learn_mouse_2.x,learn_mouse_2.y,learn_mouse_2.leftButton,learn_mouse_2.midButton,learn_mouse_2.rightButton,learn_mouse_2.time,learn_mouse_2.clicked_name,cat,token,row,col,t_select,cat_mouse_l.x,cat_mouse_l.y,cat_mouse_l.leftButton,cat_mouse_l.midButton,cat_mouse_l.rightButton,cat_mouse_l.time,cat_mouse_l.clicked_name,resp,t_resp,corr,train_trials.thisRepN,train_trials.thisTrialN,train_trials.thisN,train_trials.thisIndex,train_trials.ran,cat_mouse_t.x,cat_mouse_t.y,cat_mouse_t.leftButton,cat_mouse_t.midButton,cat_mouse_t.rightButton,cat_mouse_t.time,cat_mouse_t.clicked_name,test_trials.thisRepN,test_trials.thisTrialN,test_trials.thisN,test_trials.thisIndex,test_trials.ran,Bonus
643adb4a213b87bfc7e21e3f,TCN,2024-06-21_13h47.35.936,LearnStrategy,2023.2.3,Linux x86_64,59.88023952,,,,,,,,,,,,,,,,,,,,,,,,,,,,,,,,,,,,,,,,,,,
643adb4a213b87bfc7e21e3f,TCN,2024-06-21_13h47.35.936,LearnStrategy,2023.2.3,Linux x86_64,59.88023952,1,1,1,0.076497257,0.003669332,1,0,0,3.7531,rock_grid_rect_2,7,16,-1,-1,3.753,0.120651308,-0.418668275,1,0,0,6.038,Peridotite_rect,7,6.038,1,0,0,0,0,1,,,,,,,,,,,,,
643adb4a213b87bfc7e21e3f,TCN,2024-06-21_13h47.35.936,LearnStrategy,2023.2.3,Linux x86_64,59.88023952,1,1,2,-0.011585742,0.000955271,1,0,0,2.377,rock_grid_rect_2,4,14,-1,-1,2.377,0.046069937,-0.242972691,1,0,0,6.0625,Diorite_rect,3,6.063,0,1,0,1,0,1,,,,,,,,,,,,,
643adb4a213b87bfc7e21e3f,TCN,2024-06-21_13h47.35.936,LearnStrategy,2023.2.3,Linux x86_64,59.88023952,1,1,3,0.018553769,-0.002178771,1,0,0,1.6534,rock_grid_rect_2,1,07,-1,-1,1.653,-0.468516923,-0.239021353,1,0,0,7.523,Andesite_rect,1,7.523,1,2,0,2,0,1,,,,,,,,,,,,,
643adb4a213b87bfc7e21e3f,TCN,2024-06-21_13h47.35.936,LearnStrategy,2023.2.3,Linux x86_64,59.88023952,1,1,4,-0.022346465,0.007521936,1,0,0,1.186,rock_grid_rect_2,8,13,-1,-1,1.186,0.404308397,-0.386630996,1,0,0,5.3897,Pumice_rect,8,5.39,1,3,0,3,0,1,,,,,,,,,,,,,
643adb4a213b87bfc7e21e3f,TCN,2024-06-21_13h47.35.936,LearnStrategy,2023.2.3,Linux x86_64,59.88023952,1,1,5,-0.093482731,-0.00918458,1,0,0,1.1634,rock_grid_rect_2,8,05,-1,-1,1.163,0.397541845,-0.403323736,1,0,0,2.0481,Pumice_rect,8,2.048,1,4,0,4,0,1,,,,,,,,,,,,,
643adb4a213b87bfc7e21e3f,TCN,2024-06-21_13h47.35.936,LearnStrategy,2023.2.3,Linux x86_64,59.88023952,1,1,6,-0.020324707,-0.000578456,1,0,0,1.0803,rock_grid_rect_2,2,06,-1,-1,1.08,-0.414375274,-0.381490767,1,0,0,6.1911,Obsidian_rect,5,6.191,0,5,0,5,0,1,,,,,,,,,,,,,
643adb4a213b87bfc7e21e3f,TCN,2024-06-21_13h47.35.936,LearnStrategy,2023.2.3,Linux x86_64,59.88023952,1,1,7,-0.036041719,0.015757674,1,0,0,1.1566,rock_grid_rect_2,5,14,-1,-1,1.157,-0.36455706,-0.402372138,1,0,0,1.8212,Obsidian_rect,5,1.821,1,6,0,6,0,1,,,,,,,,,,,,,
643adb4a213b87bfc7e21e3f,TCN,2024-06-21_13h47.35.936,LearnStrategy,2023.2.3,Linux x86_64,59.88023952,1,1,8,-0.003924452,0.021031579,1,0,0,1.1064,rock_grid_rect_2,3,14,-1,-1,1.106,-0.14903658,-0.398864245,1,0,0,5.4761,Pegmatite_rect,6,5.476,0,7,0,7,0,1,,,,,,,,,,,,,
643adb4a213b87bfc7e21e3f,TCN,2024-06-21_13h47.35.936,LearnStrategy,2023.2.3,Linux x86_64,59.88023952,1,1,9,0.007278046,0.005095308,1,0,0,1.9117,rock_grid_rect_2,6,10,-1,-1,1.912,0.194452497,-0.405162973,1,0,0,4.7408,Peridotite_rect,7,4.741,0,8,0,8,0,1,,,,,,,,,,,,,
643adb4a213b87bfc7e21e3f,TCN,2024-06-21_13h47.35.936,LearnStrategy,2023.2.3,Linux x86_64,59.88023952,1,1,10,-0.062086865,-0.007824315,1,0,0,1.2979,rock_grid_rect_2,3,08,-1,-1,1.298,0.095984254,-0.255126118,1,0,0,2.8453,Diorite_rect,3,2.845,1,9,0,9,0,1,,,,,,,,,,,,,
643adb4a213b87bfc7e21e3f,TCN,2024-06-21_13h47.35.936,LearnStrategy,2023.2.3,Linux x86_64,59.88023952,1,1,11,-0.00831222,0.012082122,1,0,0,1.1634,rock_grid_rect_2,2,16,-1,-1,1.163,-0.090536762,-0.252188165,1,0,0,3.3198,Basalt_rect,2,3.32,1,10,0,10,0,1,,,,,,,,,,,,,
643adb4a213b87bfc7e21e3f,TCN,2024-06-21_13h47.35.936,LearnStrategy,2023.2.3,Linux x86_64,59.88023952,1,1,12,-0.066173799,-0.002969431,1,0,0,1.0456,rock_grid_rect_2,4,13,-1,-1,1.046,0.41756029,-0.237655452,1,0,0,4.0879,Gabbro_rect,4,4.088,1,11,0,11,0,1,,,,,,,,,,,,,
643adb4a213b87bfc7e21e3f,TCN,2024-06-21_13h47.35.936,LearnStrategy,2023.2.3,Linux x86_64,59.88023952,1,1,13,0.008836321,-0.01149135,1,0,0,0.9268,rock_grid_rect_2,7,06,-1,-1,0.927,0.222243365,-0.25737131,1,0,0,4.9388,Diorite_rect,3,4.939,0,12,0,12,0,1,,,,,,,,,,,,,
643adb4a213b87bfc7e21e3f,TCN,2024-06-21_13h47.35.936,LearnStrategy,2023.2.3,Linux x86_64,59.88023952,1,1,14,0.015011392,-0.000960907,1,0,0,1.1807,rock_grid_rect_2,6,12,-1,-1,1.181,0.059830985,-0.238195751,1,0,0,1.8566,Diorite_rect,3,1.857,0,13,0,13,0,1,,,,,,,,,,,,,
643adb4a213b87bfc7e21e3f,TCN,2024-06-21_13h47.35.936,LearnStrategy,2023.2.3,Linux x86_64,59.88023952,1,1,15,-0.007018876,-0.004291999,1,0,0,1.1971,rock_grid_rect_2,1,11,-1,-1,1.197,-0.384212885,-0.238345875,1,0,0,4.0391,Andesite_rect,1,4.039,1,14,0,14,0,1,,,,,,,,,,,,,
643adb4a213b87bfc7e21e3f,TCN,2024-06-21_13h47.35.936,LearnStrategy,2023.2.3,Linux x86_64,59.88023952,1,1,16,-0.102669733,-0.01026284,1,0,0,1.2141,rock_grid_rect_2,5,05,-1,-1,1.214,-0.375042917,-0.382218096,1,0,0,5.0536,Obsidian_rect,5,5.054,1,15,0,15,0,1,,,,,,,,,,,,,
643adb4a213b87bfc7e21e3f,TCN,2024-06-21_13h47.35.936,LearnStrategy,2023.2.3,Linux x86_64,59.88023952,1,2,1,,,,,,,,1,03,,,,,,,,,,,4,10.34,0,,,,,,0.333293868,-0.244707726,1,0,0,10.3402,Gabbro_rect,0,0,0,0,1,
643adb4a213b87bfc7e21e3f,TCN,2024-06-21_13h47.35.936,LearnStrategy,2023.2.3,Linux x86_64,59.88023952,1,2,2,,,,,,,,4,03,,,,,,,,,,,1,5.86,0,,,,,,-0.344379347,-0.241571972,1,0,0,5.8601,Andesite_rect,1,0,1,0,1,
643adb4a213b87bfc7e21e3f,TCN,2024-06-21_13h47.35.936,LearnStrategy,2023.2.3,Linux x86_64,59.88023952,1,2,3,,,,,,,,4,15,,,,,,,,,,,4,2.819,1,,,,,,0.335790298,-0.243809983,1,0,0,2.8194,Gabbro_rect,2,0,2,0,1,
643adb4a213b87bfc7e21e3f,TCN,2024-06-21_13h47.35.936,LearnStrategy,2023.2.3,Linux x86_64,59.88023952,1,2,4,,,,,,,,8,03,,,,,,,,,,,8,1.307,1,,,,,,0.345257677,-0.399985839,1,0,0,1.3066,Pumice_rect,3,0,3,0,1,
643adb4a213b87bfc7e21e3f,TCN,2024-06-21_13h47.35.936,LearnStrategy,2023.2.3,Linux x86_64,59.88023952,1,2,5,,,,,,,,3,16,,,,,,,,,,,3,1.28,1,,,,,,0.18529021,-0.23902152,1,0,0,1.2802,Diorite_rect,4,0,4,0,1,
643adb4a213b87bfc7e21e3f,TCN,2024-06-21_13h47.35.936,LearnStrategy,2023.2.3,Linux x86_64,59.88023952,1,2,6,,,,,,,,1,09,,,,,,,,,,,1,4.519,1,,,,,,-0.299998021,-0.241699553,1,0,0,4.5186,Andesite_rect,5,0,5,0,1,
643adb4a213b87bfc7e21e3f,TCN,2024-06-21_13h47.35.936,LearnStrategy,2023.2.3,Linux x86_64,59.88023952,1,2,7,,,,,,,,8,08,,,,,,,,,,,8,1.271,1,,,,,,0.413196819,-0.401932702,1,0,0,1.2709,Pumice_rect,6,0,6,0,1,
643adb4a213b87bfc7e21e3f,TCN,2024-06-21_13h47.35.936,LearnStrategy,2023.2.3,Linux x86_64,59.88023952,1,2,8,,,,,,,,5,04,,,,,,,,,,,5,1.289,1,,,,,,-0.334511398,-0.40724393,1,0,0,1.2893,Obsidian_rect,7,0,7,0,1,
643adb4a213b87bfc7e21e3f,TCN,2024-06-21_13h47.35.936,LearnStrategy,2023.2.3,Linux x86_64,59.88023952,1,2,9,,,,,,,,7,05,,,,,,,,,,,7,1.476,1,,,,,,0.164701073,-0.421103502,1,0,0,1.4756,Peridotite_rect,8,0,8,0,1,
643adb4a213b87bfc7e21e3f,TCN,2024-06-21_13h47.35.936,LearnStrategy,2023.2.3,Linux x86_64,59.88023952,1,2,10,,,,,,,,2,01,,,,,,,,,,,2,2.21,1,,,,,,-0.066623255,-0.260511406,1,0,0,2.2102,Basalt_rect,9,0,9,0,1,
643adb4a213b87bfc7e21e3f,TCN,2024-06-21_13h47.35.936,LearnStrategy,2023.2.3,Linux x86_64,59.88023952,1,2,11,,,,,,,,6,13,,,,,,,,,,,6,1.827,1,,,,,,-0.093482815,-0.392100615,1,0,0,1.8268,Pegmatite_rect,10,0,10,0,1,
643adb4a213b87bfc7e21e3f,TCN,2024-06-21_13h47.35.936,LearnStrategy,2023.2.3,Linux x86_64,59.88023952,1,2,12,,,,,,,,7,02,,,,,,,,,,,7,2.143,1,,,,,,0.118250981,-0.389532128,1,0,0,2.1431,Peridotite_rect,11,0,11,0,1,
643adb4a213b87bfc7e21e3f,TCN,2024-06-21_13h47.35.936,LearnStrategy,2023.2.3,Linux x86_64,59.88023952,1,2,13,,,,,,,,6,06,,,,,,,,,,,3,5.012,0,,,,,,0.212204627,-0.255304798,1,0,0,5.0119,Diorite_rect,12,0,12,0,1,
643adb4a213b87bfc7e21e3f,TCN,2024-06-21_13h47.35.936,LearnStrategy,2023.2.3,Linux x86_64,59.88023952,1,2,14,,,,,,,,2,14,,,,,,,,,,,4,2.458,0,,,,,,0.33438532,-0.262199433,1,0,0,2.4582,Gabbro_rect,13,0,13,0,1,
643adb4a213b87bfc7e21e3f,TCN,2024-06-21_13h47.35.936,LearnStrategy,2023.2.3,Linux x86_64,59.88023952,1,2,15,,,,,,,,5,07,,,,,,,,,,,5,1.832,1,,,,,,-0.377570198,-0.390143649,1,0,0,1.8318,Obsidian_rect,14,0,14,0,1,
643adb4a213b87bfc7e21e3f,TCN,2024-06-21_13h47.35.936,LearnStrategy,2023.2.3,Linux x86_64,59.88023952,1,2,16,,,,,,,,3,13,,,,,,,,,,,3,1.532,1,,,,,,0.102049779,-0.265200175,1,0,0,1.532,Diorite_rect,15,0,15,0,1,
643adb4a213b87bfc7e21e3f,TCN,2024-06-21_13h47.35.936,LearnStrategy,2023.2.3,Linux x86_64,59.88023952,2,1,1,-0.008566464,-0.00322451,1,0,0,2.4495,rock_grid_rect_2,8,10,-1,-1,2.45,0.444563713,-0.392786363,1,0,0,2.2954,Pumice_rect,8,2.295,1,0,0,0,0,1,,,,,,,,,,,,,
643adb4a213b87bfc7e21e3f,TCN,2024-06-21_13h47.35.936,LearnStrategy,2023.2.3,Linux x86_64,59.88023952,2,1,2,0.047326293,0.01854162,1,0,0,1.2314,rock_grid_rect_2,7,04,-1,-1,1.231,-0.375689505,-0.250221012,1,0,0,3.5865,Andesite_rect,1,3.587,0,1,0,1,0,1,,,,,,,,,,,,,
643adb4a213b87bfc7e21e3f,TCN,2024-06-21_13h47.35.936,LearnStrategy,2023.2.3,Linux x86_64,59.88023952,2,1,3,0.074149699,0.005187905,1,0,0,0.9454,rock_grid_rect_2,4,05,-1,-1,0.945,-0.175689823,-0.242943969,1,0,0,2.5092,Basalt_rect,2,2.509,0,2,0,2,0,1,,,,,,,,,,,,,
643adb4a213b87bfc7e21e3f,TCN,2024-06-21_13h47.35.936,LearnStrategy,2023.2.3,Linux x86_64,59.88023952,2,1,4,-0.048253342,-0.012673854,1,0,0,1.015,rock_grid_rect_2,2,11,-1,-1,1.015,-0.379787878,-0.252550368,1,0,0,2.6057,Andesite_rect,1,2.606,0,3,0,3,0,1,,,,,,,,,,,,,
643adb4a213b87bfc7e21e3f,TCN,2024-06-21_13h47.35.936,LearnStrategy,2023.2.3,Linux x86_64,59.88023952,2,1,5,-0.013990577,-0.00409783,1,0,0,0.9149,rock_grid_rect_2,4,10,-1,-1,0.915,0.398715707,-0.258202507,1,0,0,2.6262,Gabbro_rect,4,2.626,1,4,0,4,0,1,,,,,,,,,,,,,
643adb4a213b87bfc7e21e3f,TCN,2024-06-21_13h47.35.936,LearnStrategy,2023.2.3,Linux x86_64,59.88023952,2,1,6,-0.017462567,-0.022452922,1,0,0,1.0473,rock_grid_rect_2,1,05,-1,-1,1.047,0.069929506,-0.261792643,1,0,0,2.0352,Diorite_rect,3,2.035,0,5,0,5,0,1,,,,,,,,,,,,,
643adb4a213b87bfc7e21e3f,TCN,2024-06-21_13h47.35.936,LearnStrategy,2023.2.3,Linux x86_64,59.88023952,2,1,7,-0.052910634,0.008494741,1,0,0,0.8144,rock_grid_rect_2,5,11,-1,-1,0.814,-0.460674322,-0.390332182,1,0,0,1.1299,Obsidian_rect,5,1.13,1,6,0,6,0,1,,,,,,,,,,,,,
643adb4a213b87bfc7e21e3f,TCN,2024-06-21_13h47.35.936,LearnStrategy,2023.2.3,Linux x86_64,59.88023952,2,1,8,-0.028544414,-0.018926785,1,0,0,0.9817,rock_grid_rect_2,7,14,-1,-1,0.982,0.155095091,-0.399214007,1,0,0,1.65,Peridotite_rect,7,1.65,1,7,0,7,0,1,,,,,,,,,,,,,
643adb4a213b87bfc7e21e3f,TCN,2024-06-21_13h47.35.936,LearnStrategy,2023.2.3,Linux x86_64,59.88023952,2,1,9,0.01461529,-0.002926598,1,0,0,0.8835,rock_grid_rect_2,3,09,-1,-1,0.884,0.186967967,-0.242384716,1,0,0,1.3403,Diorite_rect,3,1.34,1,8,0,8,0,1,,,,,,,,,,,,,
643adb4a213b87bfc7e21e3f,TCN,2024-06-21_13h47.35.936,LearnStrategy,2023.2.3,Linux x86_64,59.88023952,2,1,10,-0.025189902,-0.002384796,1,0,0,0.7929,rock_grid_rect_2,8,16,-1,-1,0.793,0.412292063,-0.242560224,1,0,0,1.4219,Gabbro_rect,4,1.422,0,9,0,9,0,1,,,,,,,,,,,,,
643adb4a213b87bfc7e21e3f,TCN,2024-06-21_13h47.35.936,LearnStrategy,2023.2.3,Linux x86_64,59.88023952,2,1,11,-0.002704751,-0.010650927,1,0,0,0.8459,rock_grid_rect_2,6,07,-1,-1,0.846,0.060902232,-0.403906617,1,0,0,2.3509,Peridotite_rect,7,2.351,0,10,0,10,0,1,,,,,,,,,,,,,
643adb4a213b87bfc7e21e3f,TCN,2024-06-21_13h47.35.936,LearnStrategy,2023.2.3,Linux x86_64,59.88023952,2,1,12,0.026602728,0.000330684,1,0,0,0.7793,rock_grid_rect_2,3,07,-1,-1,0.779,0.12845312,-0.257485281,1,0,0,0.8779,Diorite_rect,3,0.878,1,11,0,11,0,1,,,,,,,,,,,,,
643adb4a213b87bfc7e21e3f,TCN,2024-06-21_13h47.35.936,LearnStrategy,2023.2.3,Linux x86_64,59.88023952,2,1,13,0.048439621,0.007911609,1,0,0,1.0447,rock_grid_rect_2,2,08,-1,-1,1.045,-0.380992884,-0.409647846,1,0,0,2.2972,Obsidian_rect,5,2.297,0,12,0,12,0,1,,,,,,,,,,,,,
643adb4a213b87bfc7e21e3f,TCN,2024-06-21_13h47.35.936,LearnStrategy,2023.2.3,Linux x86_64,59.88023952,2,1,14,-0.029463699,-0.017781812,1,0,0,0.9293,rock_grid_rect_2,1,16,-1,-1,0.929,0.157429456,-0.264120329,1,0,0,1.2022,Diorite_rect,3,1.202,0,13,0,13,0,1,,,,,,,,,,,,,
643adb4a213b87bfc7e21e3f,TCN,2024-06-21_13h47.35.936,LearnStrategy,2023.2.3,Linux x86_64,59.88023952,2,1,15,0.000101614,0.023972664,1,0,0,0.6456,rock_grid_rect_2,5,02,-1,-1,0.646,-0.481957306,-0.416856507,1,0,0,1.2135,Obsidian_rect,5,1.214,1,14,0,14,0,1,,,,,,,,,,,,,
643adb4a213b87bfc7e21e3f,TCN,2024-06-21_13h47.35.936,LearnStrategy,2023.2.3,Linux x86_64,59.88023952,2,1,16,-0.019867987,0.014538725,1,0,0,0.7947,rock_grid_rect_2,6,03,-1,-1,0.795,0.08203793,-0.399474012,1,0,0,1.1961,Peridotite_rect,7,1.196,0,15,0,15,0,1,,,,,,,,,,,,,
643adb4a213b87bfc7e21e3f,TCN,2024-06-21_13h47.35.936,LearnStrategy,2023.2.3,Linux x86_64,59.88023952,2,2,1,,,,,,,,8,06,,,,,,,,,,,8,4.368,1,,,,,,0.379268119,-0.385289976,1,0,0,4.3683,Pumice_rect,0,0,0,0,1,
643adb4a213b87bfc7e21e3f,TCN,2024-06-21_13h47.35.936,LearnStrategy,2023.2.3,Linux x86_64,59.88023952,2,2,2,,,,,,,,1,14,,,,,,,,,,,1,4.437,1,,,,,,-0.372109764,-0.267795464,1,0,0,4.4372,Andesite_rect,1,0,1,0,1,
643adb4a213b87bfc7e21e3f,TCN,2024-06-21_13h47.35.936,LearnStrategy,2023.2.3,Linux x86_64,59.88023952,2,2,3,,,,,,,,2,04,,,,,,,,,,,2,3.051,1,,,,,,-0.071314362,-0.245457932,1,0,0,3.0513,Basalt_rect,2,0,2,0,1,
643adb4a213b87bfc7e21e3f,TCN,2024-06-21_13h47.35.936,LearnStrategy,2023.2.3,Linux x86_64,59.88023952,2,2,4,,,,,,,,6,16,,,,,,,,,,,3,1.971,0,,,,,,0.09412598,-0.231735376,1,0,0,1.9708,Diorite_rect,3,0,3,0,1,
643adb4a213b87bfc7e21e3f,TCN,2024-06-21_13h47.35.936,LearnStrategy,2023.2.3,Linux x86_64,59.88023952,2,2,5,,,,,,,,3,06,,,,,,,,,,,3,1.179,1,,,,,,0.09412598,-0.231735376,1,0,0,1.1792,Diorite_rect,4,0,4,0,1,
643adb4a213b87bfc7e21e3f,TCN,2024-06-21_13h47.35.936,LearnStrategy,2023.2.3,Linux x86_64,59.88023952,2,2,6,,,,,,,,5,06,,,,,,,,,,,5,1.722,1,,,,,,-0.339191692,-0.403601943,1,0,0,1.7217,Obsidian_rect,5,0,5,0,1,
643adb4a213b87bfc7e21e3f,TCN,2024-06-21_13h47.35.936,LearnStrategy,2023.2.3,Linux x86_64,59.88023952,2,2,7,,,,,,,,4,01,,,,,,,,,,,1,4.216,0,,,,,,-0.358447157,-0.259468632,1,0,0,4.216,Andesite_rect,6,0,6,0,1,
643adb4a213b87bfc7e21e3f,TCN,2024-06-21_13h47.35.936,LearnStrategy,2023.2.3,Linux x86_64,59.88023952,2,2,8,,,,,,,,3,15,,,,,,,,,,,4,2.727,0,,,,,,0.324189193,-0.254534052,1,0,0,2.7266,Gabbro_rect,7,0,7,0,1,
643adb4a213b87bfc7e21e3f,TCN,2024-06-21_13h47.35.936,LearnStrategy,2023.2.3,Linux x86_64,59.88023952,2,2,9,,,,,,,,6,09,,,,,,,,,,,7,0.998,0,,,,,,0.224055216,-0.390987871,1,0,0,0.9981,Peridotite_rect,8,0,8,0,1,
643adb4a213b87bfc7e21e3f,TCN,2024-06-21_13h47.35.936,LearnStrategy,2023.2.3,Linux x86_64,59.88023952,2,2,10,,,,,,,,1,06,,,,,,,,,,,1,2.488,1,,,,,,-0.352058296,-0.255447576,1,0,0,2.4875,Andesite_rect,9,0,9,0,1,
643adb4a213b87bfc7e21e3f,TCN,2024-06-21_13h47.35.936,LearnStrategy,2023.2.3,Linux x86_64,59.88023952,2,2,11,,,,,,,,7,15,,,,,,,,,,,7,1.131,1,,,,,,0.091376559,-0.382260846,1,0,0,1.1306,Peridotite_rect,10,0,10,0,1,
643adb4a213b87bfc7e21e3f,TCN,2024-06-21_13h47.35.936,LearnStrategy,2023.2.3,Linux x86_64,59.88023952,2,2,12,,,,,,,,4,11,,,,,,,,,,,1,2.78,0,,,,,,-0.293430187,-0.268478289,1,0,0,2.7797,Andesite_rect,11,0,11,0,1,
643adb4a213b87bfc7e21e3f,TCN,2024-06-21_13h47.35.936,LearnStrategy,2023.2.3,Linux x86_64,59.88023952,2,2,13,,,,,,,,5,12,,,,,,,,,,,5,0.951,1,,,,,,-0.297813071,-0.385302417,1,0,0,0.9513,Obsidian_rect,12,0,12,0,1,
643adb4a213b87bfc7e21e3f,TCN,2024-06-21_13h47.35.936,LearnStrategy,2023.2.3,Linux x86_64,59.88023952,2,2,14,,,,,,,,2,09,,,,,,,,,,,2,3.108,1,,,,,,-0.165739172,-0.251196072,1,0,0,3.1079,Basalt_rect,13,0,13,0,1,
643adb4a213b87bfc7e21e3f,TCN,2024-06-21_13h47.35.936,LearnStrategy,2023.2.3,Linux x86_64,59.88023952,2,2,15,,,,,,,,8,02,,,,,,,,,,,8,1.563,1,,,,,,0.388814485,-0.403565205,1,0,0,1.5632,Pumice_rect,14,0,14,0,1,
643adb4a213b87bfc7e21e3f,TCN,2024-06-21_13h47.35.936,LearnStrategy,2023.2.3,Linux x86_64,59.88023952,2,2,16,,,,,,,,7,10,,,,,,,,,,,7,1.352,1,,,,,,0.135343413,-0.391860064,1,0,0,1.352,Peridotite_rect,15,0,15,0,1,
643adb4a213b87bfc7e21e3f,TCN,2024-06-21_13h47.35.936,LearnStrategy,2023.2.3,Linux x86_64,59.88023952,3,1,1,-0.111085404,0.007482067,1,0,0,1.1321,rock_grid_rect_2,4,12,-1,-1,1.132,-0.348344962,-0.241781211,1,0,0,4.5766,Andesite_rect,1,4.577,0,0,0,0,0,1,,,,,,,,,,,,,
643adb4a213b87bfc7e21e3f,TCN,2024-06-21_13h47.35.936,LearnStrategy,2023.2.3,Linux x86_64,59.88023952,3,1,2,-0.053960672,-0.010733295,1,0,0,0.9652,rock_grid_rect_2,3,12,-1,-1,0.965,0.183543903,-0.236937976,1,0,0,2.0052,Diorite_rect,3,2.005,1,1,0,1,0,1,,,,,,,,,,,,,
643adb4a213b87bfc7e21e3f,TCN,2024-06-21_13h47.35.936,LearnStrategy,2023.2.3,Linux x86_64,59.88023952,3,1,3,0.012610982,-0.010213494,1,0,0,0.8983,rock_grid_rect_2,1,10,-1,-1,0.898,-0.127310151,-0.381336635,1,0,0,2.0404,Pegmatite_rect,6,2.04,0,2,0,2,0,1,,,,,,,,,,,,,
643adb4a213b87bfc7e21e3f,TCN,2024-06-21_13h47.35.936,LearnStrategy,2023.2.3,Linux x86_64,59.88023952,3,1,4,0.002693729,-0.016536603,1,0,0,0.6658,rock_grid_rect_2,2,10,-1,-1,0.666,-0.345820186,-0.397369009,1,0,0,1.081,Obsidian_rect,5,1.081,0,3,0,3,0,1,,,,,,,,,,,,,
643adb4a213b87bfc7e21e3f,TCN,2024-06-21_13h47.35.936,LearnStrategy,2023.2.3,Linux x86_64,59.88023952,3,1,5,-0.018963064,-0.014592412,1,0,0,0.7463,rock_grid_rect_2,5,09,-1,-1,0.746,-0.397446326,-0.415298483,1,0,0,1.0899,Obsidian_rect,5,1.09,1,4,0,4,0,1,,,,,,,,,,,,,
643adb4a213b87bfc7e21e3f,TCN,2024-06-21_13h47.35.936,LearnStrategy,2023.2.3,Linux x86_64,59.88023952,3,1,6,-0.025923409,0.016310998,1,0,0,0.7312,rock_grid_rect_2,2,02,-1,-1,0.731,-0.398194194,-0.254640175,1,0,0,1.934,Andesite_rect,1,1.934,0,5,0,5,0,1,,,,,,,,,,,,,
643adb4a213b87bfc7e21e3f,TCN,2024-06-21_13h47.35.936,LearnStrategy,2023.2.3,Linux x86_64,59.88023952,3,1,7,-0.093269651,0.01402456,1,0,0,0.6114,rock_grid_rect_2,6,05,-1,-1,0.611,0.141988647,-0.238580331,1,0,0,1.3934,Diorite_rect,3,1.393,0,6,0,6,0,1,,,,,,,,,,,,,
643adb4a213b87bfc7e21e3f,TCN,2024-06-21_13h47.35.936,LearnStrategy,2023.2.3,Linux x86_64,59.88023952,3,1,8,0.009687056,0.003386449,1,0,0,0.6991,rock_grid_rect_2,5,10,-1,-1,0.699,-0.388533774,-0.378328044,1,0,0,2.2833,Obsidian_rect,5,2.283,1,7,0,7,0,1,,,,,,,,,,,,,
643adb4a213b87bfc7e21e3f,TCN,2024-06-21_13h47.35.936,LearnStrategy,2023.2.3,Linux x86_64,59.88023952,3,1,9,-0.07268569,-0.007900796,1,0,0,0.8631,rock_grid_rect_2,6,15,-1,-1,0.863,-0.139734772,-0.3850789,1,0,0,3.3016,Pegmatite_rect,6,3.302,1,8,0,8,0,1,,,,,,,,,,,,,
643adb4a213b87bfc7e21e3f,TCN,2024-06-21_13h47.35.936,LearnStrategy,2023.2.3,Linux x86_64,59.88023952,3,1,10,-0.010441103,-0.012479059,1,0,0,0.9624,rock_grid_rect_2,7,13,-1,-1,0.962,0.087087065,-0.381634714,1,0,0,1.0804,Peridotite_rect,7,1.08,1,9,0,9,0,1,,,,,,,,,,,,,
643adb4a213b87bfc7e21e3f,TCN,2024-06-21_13h47.35.936,LearnStrategy,2023.2.3,Linux x86_64,59.88023952,3,1,11,0.034245064,-0.001868377,1,0,0,0.8306,rock_grid_rect_2,4,16,-1,-1,0.831,0.44917216,-0.249988979,1,0,0,1.87,Gabbro_rect,4,1.87,1,10,0,10,0,1,,,,,,,,,,,,,
643adb4a213b87bfc7e21e3f,TCN,2024-06-21_13h47.35.936,LearnStrategy,2023.2.3,Linux x86_64,59.88023952,3,1,12,0.051656282,-0.009976576,1,0,0,0.8295,rock_grid_rect_2,8,09,-1,-1,0.829,0.373446067,-0.407987122,1,0,0,1.1706,Pumice_rect,8,1.171,1,11,0,11,0,1,,,,,,,,,,,,,
643adb4a213b87bfc7e21e3f,TCN,2024-06-21_13h47.35.936,LearnStrategy,2023.2.3,Linux x86_64,59.88023952,3,1,13,0.071917616,-0.004695658,1,0,0,0.7972,rock_grid_rect_2,3,10,-1,-1,0.797,-0.125556497,-0.413921309,1,0,0,3.5691,Pegmatite_rect,6,3.569,0,12,0,12,0,1,,,,,,,,,,,,,
643adb4a213b87bfc7e21e3f,TCN,2024-06-21_13h47.35.936,LearnStrategy,2023.2.3,Linux x86_64,59.88023952,3,1,14,-0.066204943,-0.002624762,1,0,0,1.0488,rock_grid_rect_2,7,12,-1,-1,1.049,0.11974939,-0.411560142,1,0,0,1.0985,Peridotite_rect,7,1.098,1,13,0,13,0,1,,,,,,,,,,,,,
643adb4a213b87bfc7e21e3f,TCN,2024-06-21_13h47.35.936,LearnStrategy,2023.2.3,Linux x86_64,59.88023952,3,1,15,0.076898369,0.01267949,1,0,0,1.0983,rock_grid_rect_2,8,14,-1,-1,1.098,0.37671199,-0.397716016,1,0,0,1.665,Pumice_rect,8,1.665,1,14,0,14,0,1,,,,,,,,,,,,,
643adb4a213b87bfc7e21e3f,TCN,2024-06-21_13h47.35.936,LearnStrategy,2023.2.3,Linux x86_64,59.88023952,3,1,16,0.080599804,-0.011526711,1,0,0,0.7984,rock_grid_rect_2,1,02,-1,-1,0.798,0.179602669,-0.238557369,1,0,0,2.8809,Diorite_rect,3,2.881,0,15,0,15,0,1,,,,,,,,,,,,,
643adb4a213b87bfc7e21e3f,TCN,2024-06-21_13h47.35.936,LearnStrategy,2023.2.3,Linux x86_64,59.88023952,3,2,1,,,,,,,,7,08,,,,,,,,,,,6,6.529,0,,,,,,-0.072749064,-0.396063141,1,0,0,6.5288,Pegmatite_rect,0,0,0,0,1,
643adb4a213b87bfc7e21e3f,TCN,2024-06-21_13h47.35.936,LearnStrategy,2023.2.3,Linux x86_64,59.88023952,3,2,2,,,,,,,,8,15,,,,,,,,,,,8,1.171,1,,,,,,0.443505826,-0.413686019,1,0,0,1.1705,Pumice_rect,1,0,1,0,1,
643adb4a213b87bfc7e21e3f,TCN,2024-06-21_13h47.35.936,LearnStrategy,2023.2.3,Linux x86_64,59.88023952,3,2,3,,,,,,,,6,11,,,,,,,,,,,6,2.356,1,,,,,,-0.052989871,-0.401130645,1,0,0,2.3562,Pegmatite_rect,2,0,2,0,1,
643adb4a213b87bfc7e21e3f,TCN,2024-06-21_13h47.35.936,LearnStrategy,2023.2.3,Linux x86_64,59.88023952,3,2,4,,,,,,,,2,05,,,,,,,,,,,2,3.596,1,,,,,,-0.087695663,-0.265358316,1,0,0,3.5959,Basalt_rect,3,0,3,0,1,
643adb4a213b87bfc7e21e3f,TCN,2024-06-21_13h47.35.936,LearnStrategy,2023.2.3,Linux x86_64,59.88023952,3,2,5,,,,,,,,6,08,,,,,,,,,,,6,1.519,1,,,,,,-0.093891191,-0.39571104,1,0,0,1.5187,Pegmatite_rect,4,0,4,0,1,
643adb4a213b87bfc7e21e3f,TCN,2024-06-21_13h47.35.936,LearnStrategy,2023.2.3,Linux x86_64,59.88023952,3,2,6,,,,,,,,7,07,,,,,,,,,,,1,3.167,0,,,,,,-0.362282937,-0.270209567,1,0,0,3.1673,Andesite_rect,5,0,5,0,1,
643adb4a213b87bfc7e21e3f,TCN,2024-06-21_13h47.35.936,LearnStrategy,2023.2.3,Linux x86_64,59.88023952,3,2,7,,,,,,,,5,16,,,,,,,,,,,5,1.39,1,,,,,,-0.371739253,-0.416455312,1,0,0,1.3904,Obsidian_rect,6,0,6,0,1,
643adb4a213b87bfc7e21e3f,TCN,2024-06-21_13h47.35.936,LearnStrategy,2023.2.3,Linux x86_64,59.88023952,3,2,8,,,,,,,,8,04,,,,,,,,,,,8,1.037,1,,,,,,0.450954453,-0.403597601,1,0,0,1.0371,Pumice_rect,7,0,7,0,1,
643adb4a213b87bfc7e21e3f,TCN,2024-06-21_13h47.35.936,LearnStrategy,2023.2.3,Linux x86_64,59.88023952,3,2,9,,,,,,,,4,08,,,,,,,,,,,1,2.993,0,,,,,,-0.372108887,-0.252676696,1,0,0,2.9934,Andesite_rect,8,0,8,0,1,
643adb4a213b87bfc7e21e3f,TCN,2024-06-21_13h47.35.936,LearnStrategy,2023.2.3,Linux x86_64,59.88023952,3,2,10,,,,,,,,1,04,,,,,,,,,,,4,2.396,0,,,,,,0.453257925,-0.248399142,1,0,0,2.3956,Gabbro_rect,9,0,9,0,1,
643adb4a213b87bfc7e21e3f,TCN,2024-06-21_13h47.35.936,LearnStrategy,2023.2.3,Linux x86_64,59.88023952,3,2,11,,,,,,,,3,11,,,,,,,,,,,3,1.235,1,,,,,,0.237432936,-0.252884266,1,0,0,1.2347,Diorite_rect,10,0,10,0,1,
643adb4a213b87bfc7e21e3f,TCN,2024-06-21_13h47.35.936,LearnStrategy,2023.2.3,Linux x86_64,59.88023952,3,2,12,,,,,,,,5,08,,,,,,,,,,,5,0.952,1,,,,,,-0.485714016,-0.398011005,1,0,0,0.952,Obsidian_rect,11,0,11,0,1,
643adb4a213b87bfc7e21e3f,TCN,2024-06-21_13h47.35.936,LearnStrategy,2023.2.3,Linux x86_64,59.88023952,3,2,13,,,,,,,,4,09,,,,,,,,,,,2,10.518,0,,,,,,-0.087847875,-0.257380578,1,0,0,10.5182,Basalt_rect,12,0,12,0,1,
643adb4a213b87bfc7e21e3f,TCN,2024-06-21_13h47.35.936,LearnStrategy,2023.2.3,Linux x86_64,59.88023952,3,2,14,,,,,,,,2,12,,,,,,,,,,,2,2.063,1,,,,,,-0.087847875,-0.257380578,1,0,0,2.0626,Basalt_rect,13,0,13,0,1,
643adb4a213b87bfc7e21e3f,TCN,2024-06-21_13h47.35.936,LearnStrategy,2023.2.3,Linux x86_64,59.88023952,3,2,15,,,,,,,,1,01,,,,,,,,,,,3,1.959,0,,,,,,0.119271963,-0.264225032,1,0,0,1.9594,Diorite_rect,14,0,14,0,1,
643adb4a213b87bfc7e21e3f,TCN,2024-06-21_13h47.35.936,LearnStrategy,2023.2.3,Linux x86_64,59.88023952,3,2,16,,,,,,,,3,02,,,,,,,,,,,3,0.895,1,,,,,,0.107002811,-0.264225032,1,0,0,0.8953,Diorite_rect,15,0,15,0,1,
643adb4a213b87bfc7e21e3f,TCN,2024-06-21_13h47.35.936,LearnStrategy,2023.2.3,Linux x86_64,59.88023952,4,1,1,-0.027074143,-0.002305851,1,0,0,1.248,rock_grid_rect_2,1,10,-1,-1,1.248,-0.335143292,-0.240621961,1,0,0,4.7192,Andesite_rect,1,4.719,1,0,0,0,0,1,,,,,,,,,,,,,
643adb4a213b87bfc7e21e3f,TCN,2024-06-21_13h47.35.936,LearnStrategy,2023.2.3,Linux x86_64,59.88023952,4,1,2,0.026669524,-0.01031014,1,0,0,1.0308,rock_grid_rect_2,4,05,-1,-1,1.031,-0.128994672,-0.407480222,1,0,0,3.6055,Pegmatite_rect,6,3.606,0,1,0,1,0,1,,,,,,,,,,,,,
643adb4a213b87bfc7e21e3f,TCN,2024-06-21_13h47.35.936,LearnStrategy,2023.2.3,Linux x86_64,59.88023952,4,1,3,-0.02157956,0.020205225,1,0,0,0.8462,rock_grid_rect_2,5,09,-1,-1,0.846,-0.359210848,-0.421065512,1,0,0,2.0792,Obsidian_rect,5,2.079,1,2,0,2,0,1,,,,,,,,,,,,,
643adb4a213b87bfc7e21e3f,TCN,2024-06-21_13h47.35.936,LearnStrategy,2023.2.3,Linux x86_64,59.88023952,4,1,4,0.002990138,0.003895813,1,0,0,0.7975,rock_grid_rect_2,8,16,-1,-1,0.798,0.362018549,-0.400678183,1,0,0,2.5766,Pumice_rect,8,2.577,1,3,0,3,0,1,,,,,,,,,,,,,
643adb4a213b87bfc7e21e3f,TCN,2024-06-21_13h47.35.936,LearnStrategy,2023.2.3,Linux x86_64,59.88023952,4,1,5,0.070851296,-0.024728465,1,0,0,0.8528,rock_grid_rect_2,5,10,-1,-1,0.853,-0.425213648,-0.406570873,1,0,0,1.0697,Obsidian_rect,5,1.07,1,4,0,4,0,1,,,,,,,,,,,,,
643adb4a213b87bfc7e21e3f,TCN,2024-06-21_13h47.35.936,LearnStrategy,2023.2.3,Linux x86_64,59.88023952,4,1,6,-0.031319301,-0.00115065,1,0,0,0.944,rock_grid_rect_2,1,05,-1,-1,0.944,0.167732792,-0.239549713,1,0,0,1.5586,Diorite_rect,3,1.559,0,5,0,5,0,1,,,,,,,,,,,,,
643adb4a213b87bfc7e21e3f,TCN,2024-06-21_13h47.35.936,LearnStrategy,2023.2.3,Linux x86_64,59.88023952,4,1,7,-0.018699803,-0.020283711,1,0,0,0.7783,rock_grid_rect_2,6,12,-1,-1,0.778,-0.340202029,-0.25538654,1,0,0,2.7071,Andesite_rect,1,2.707,0,6,0,6,0,1,,,,,,,,,,,,,
643adb4a213b87bfc7e21e3f,TCN,2024-06-21_13h47.35.936,LearnStrategy,2023.2.3,Linux x86_64,59.88023952,4,1,8,-0.067159796,0.005220844,1,0,0,0.7617,rock_grid_rect_2,8,05,-1,-1,0.762,0.392057865,-0.382231121,1,0,0,1.0202,Pumice_rect,8,1.02,1,7,0,7,0,1,,,,,,,,,,,,,
643adb4a213b87bfc7e21e3f,TCN,2024-06-21_13h47.35.936,LearnStrategy,2023.2.3,Linux x86_64,59.88023952,4,1,9,-0.012250198,-0.013402894,1,0,0,0.9953,rock_grid_rect_2,2,11,-1,-1,0.995,-0.035889674,-0.256476072,1,0,0,3.8642,Basalt_rect,2,3.864,1,8,0,8,0,1,,,,,,,,,,,,,
643adb4a213b87bfc7e21e3f,TCN,2024-06-21_13h47.35.936,LearnStrategy,2023.2.3,Linux x86_64,59.88023952,4,1,10,-0.050272512,-0.007625971,1,0,0,1.2815,rock_grid_rect_2,6,03,-1,-1,1.282,0.113718766,-0.39092383,1,0,0,1.9204,Peridotite_rect,7,1.92,0,9,0,9,0,1,,,,,,,,,,,,,
643adb4a213b87bfc7e21e3f,TCN,2024-06-21_13h47.35.936,LearnStrategy,2023.2.3,Linux x86_64,59.88023952,4,1,11,0.043885196,-0.0125904,1,0,0,1.4785,rock_grid_rect_2,4,16,-1,-1,1.479,0.401827581,-0.247738777,1,0,0,2.2622,Gabbro_rect,4,2.262,1,10,0,10,0,1,,,,,,,,,,,,,
643adb4a213b87bfc7e21e3f,TCN,2024-06-21_13h47.35.936,LearnStrategy,2023.2.3,Linux x86_64,59.88023952,4,1,12,-0.039814293,0.005742314,1,0,0,0.7119,rock_grid_rect_2,2,02,-1,-1,0.712,-0.154705502,-0.246157624,1,0,0,1.9495,Basalt_rect,2,1.95,1,11,0,11,0,1,,,,,,,,,,,,,
643adb4a213b87bfc7e21e3f,TCN,2024-06-21_13h47.35.936,LearnStrategy,2023.2.3,Linux x86_64,59.88023952,4,1,13,-0.05078985,-0.011403179,1,0,0,0.8145,rock_grid_rect_2,3,08,-1,-1,0.815,0.115067134,-0.259037879,1,0,0,1.7324,Diorite_rect,3,1.732,1,12,0,12,0,1,,,,,,,,,,,,,
643adb4a213b87bfc7e21e3f,TCN,2024-06-21_13h47.35.936,LearnStrategy,2023.2.3,Linux x86_64,59.88023952,4,1,14,0.03625146,-0.002949643,1,0,0,1.1988,rock_grid_rect_2,3,10,-1,-1,1.199,-0.115032149,-0.401756527,1,0,0,1.6405,Pegmatite_rect,6,1.64,0,13,0,13,0,1,,,,,,,,,,,,,
643adb4a213b87bfc7e21e3f,TCN,2024-06-21_13h47.35.936,LearnStrategy,2023.2.3,Linux x86_64,59.88023952,4,1,15,0.015143816,0.000453505,1,0,0,0.746,rock_grid_rect_2,7,16,-1,-1,0.746,0.133888339,-0.415745684,1,0,0,1.7936,Peridotite_rect,7,1.794,1,14,0,14,0,1,,,,,,,,,,,,,
643adb4a213b87bfc7e21e3f,TCN,2024-06-21_13h47.35.936,LearnStrategy,2023.2.3,Linux x86_64,59.88023952,4,1,16,0.045312801,-0.003386867,1,0,0,1.196,rock_grid_rect_2,7,14,-1,-1,1.196,-0.155156544,-0.37990377,1,0,0,2.1175,Pegmatite_rect,6,2.117,0,15,0,15,0,1,,,,,,,,,,,,,
643adb4a213b87bfc7e21e3f,TCN,2024-06-21_13h47.35.936,LearnStrategy,2023.2.3,Linux x86_64,59.88023952,4,2,1,,,,,,,,8,06,,,,,,,,,,,8,6.297,1,,,,,,0.479507718,-0.40670171,1,0,0,6.2968,Pumice_rect,0,0,0,0,1,
643adb4a213b87bfc7e21e3f,TCN,2024-06-21_13h47.35.936,LearnStrategy,2023.2.3,Linux x86_64,59.88023952,4,2,2,,,,,,,,2,12,,,,,,,,,,,2,2.876,1,,,,,,-0.097556556,-0.25735937,1,0,0,2.8763,Basalt_rect,1,0,1,0,1,
643adb4a213b87bfc7e21e3f,TCN,2024-06-21_13h47.35.936,LearnStrategy,2023.2.3,Linux x86_64,59.88023952,4,2,3,,,,,,,,8,02,,,,,,,,,,,8,1.688,1,,,,,,0.353345795,-0.402876367,1,0,0,1.6882,Pumice_rect,2,0,2,0,1,
643adb4a213b87bfc7e21e3f,TCN,2024-06-21_13h47.35.936,LearnStrategy,2023.2.3,Linux x86_64,59.88023952,4,2,4,,,,,,,,4,09,,,,,,,,,,,4,6.078,1,,,,,,0.403857689,-0.253033973,1,0,0,6.0781,Gabbro_rect,3,0,3,0,1,
643adb4a213b87bfc7e21e3f,TCN,2024-06-21_13h47.35.936,LearnStrategy,2023.2.3,Linux x86_64,59.88023952,4,2,5,,,,,,,,3,11,,,,,,,,,,,3,0.935,1,,,,,,0.170397632,-0.251030918,1,0,0,0.9351,Diorite_rect,4,0,4,0,1,
643adb4a213b87bfc7e21e3f,TCN,2024-06-21_13h47.35.936,LearnStrategy,2023.2.3,Linux x86_64,59.88023952,4,2,6,,,,,,,,4,08,,,,,,,,,,,4,1.128,1,,,,,,0.367735898,-0.251030918,1,0,0,1.1279,Gabbro_rect,5,0,5,0,1,
643adb4a213b87bfc7e21e3f,TCN,2024-06-21_13h47.35.936,LearnStrategy,2023.2.3,Linux x86_64,59.88023952,4,2,7,,,,,,,,3,13,,,,,,,,,,,3,1.765,1,,,,,,0.173687519,-0.270683236,1,0,0,1.7648,Diorite_rect,6,0,6,0,1,
643adb4a213b87bfc7e21e3f,TCN,2024-06-21_13h47.35.936,LearnStrategy,2023.2.3,Linux x86_64,59.88023952,4,2,8,,,,,,,,7,10,,,,,,,,,,,6,2.449,0,,,,,,-0.103471957,-0.392230283,1,0,0,2.4487,Pegmatite_rect,7,0,7,0,1,
643adb4a213b87bfc7e21e3f,TCN,2024-06-21_13h47.35.936,LearnStrategy,2023.2.3,Linux x86_64,59.88023952,4,2,9,,,,,,,,1,01,,,,,,,,,,,2,2.215,0,,,,,,-0.068485203,-0.251322651,1,0,0,2.2153,Basalt_rect,8,0,8,0,1,
643adb4a213b87bfc7e21e3f,TCN,2024-06-21_13h47.35.936,LearnStrategy,2023.2.3,Linux x86_64,59.88023952,4,2,10,,,,,,,,2,05,,,,,,,,,,,2,1.48,1,,,,,,-0.068485203,-0.251322651,1,0,0,1.4797,Basalt_rect,9,0,9,0,1,
643adb4a213b87bfc7e21e3f,TCN,2024-06-21_13h47.35.936,LearnStrategy,2023.2.3,Linux x86_64,59.88023952,4,2,11,,,,,,,,6,16,,,,,,,,,,,3,3.07,0,,,,,,0.211199342,-0.259739908,1,0,0,3.0696,Diorite_rect,10,0,10,0,1,
643adb4a213b87bfc7e21e3f,TCN,2024-06-21_13h47.35.936,LearnStrategy,2023.2.3,Linux x86_64,59.88023952,4,2,12,,,,,,,,5,07,,,,,,,,,,,5,0.994,1,,,,,,-0.356865378,-0.384050988,1,0,0,0.9936,Obsidian_rect,11,0,11,0,1,
643adb4a213b87bfc7e21e3f,TCN,2024-06-21_13h47.35.936,LearnStrategy,2023.2.3,Linux x86_64,59.88023952,4,2,13,,,,,,,,6,13,,,,,,,,,,,3,5.003,0,,,,,,0.11004956,-0.251060475,1,0,0,5.0031,Diorite_rect,12,0,12,0,1,
643adb4a213b87bfc7e21e3f,TCN,2024-06-21_13h47.35.936,LearnStrategy,2023.2.3,Linux x86_64,59.88023952,4,2,14,,,,,,,,1,09,,,,,,,,,,,2,1.163,0,,,,,,-0.072057554,-0.268883159,1,0,0,1.163,Basalt_rect,13,0,13,0,1,
643adb4a213b87bfc7e21e3f,TCN,2024-06-21_13h47.35.936,LearnStrategy,2023.2.3,Linux x86_64,59.88023952,4,2,15,,,,,,,,7,08,,,,,,,,,,,7,3.094,1,,,,,,0.116620065,-0.39324851,1,0,0,3.0938,Peridotite_rect,14,0,14,0,1,
643adb4a213b87bfc7e21e3f,TCN,2024-06-21_13h47.35.936,LearnStrategy,2023.2.3,Linux x86_64,59.88023952,4,2,16,,,,,,,,5,06,,,,,,,,,,,5,1.101,1,,,,,,-0.331502181,-0.397250195,1,0,0,1.1015,Obsidian_rect,15,0,15,0,1,
643adb4a213b87bfc7e21e3f,TCN,2024-06-21_13h47.35.936,LearnStrategy,2023.2.3,Linux x86_64,59.88023952,5,1,1,0.100754598,0.005006093,1,0,0,1.132,rock_grid_rect_2,3,14,-1,-1,1.132,0.097296468,-0.242016668,1,0,0,3.1337,Diorite_rect,3,3.134,1,0,0,0,0,1,,,,,,,,,,,,,
643adb4a213b87bfc7e21e3f,TCN,2024-06-21_13h47.35.936,LearnStrategy,2023.2.3,Linux x86_64,59.88023952,5,1,2,0.021671822,-0.005339282,1,0,0,1.0617,rock_grid_rect_2,2,10,-1,-1,1.062,0.358111547,-0.252296542,1,0,0,2.2717,Gabbro_rect,4,2.272,0,1,0,1,0,1,,,,,,,,,,,,,
643adb4a213b87bfc7e21e3f,TCN,2024-06-21_13h47.35.936,LearnStrategy,2023.2.3,Linux x86_64,59.88023952,5,1,3,-0.041697449,-0.001390199,1,0,0,1.0796,rock_grid_rect_2,6,15,-1,-1,1.08,-0.167212949,-0.388007084,1,0,0,1.8618,Pegmatite_rect,6,1.862,1,2,0,2,0,1,,,,,,,,,,,,,
643adb4a213b87bfc7e21e3f,TCN,2024-06-21_13h47.35.936,LearnStrategy,2023.2.3,Linux x86_64,59.88023952,5,1,4,0.024156646,0.002958994,1,0,0,0.9575,rock_grid_rect_2,6,07,-1,-1,0.957,-0.122267529,-0.398644736,1,0,0,1.1251,Pegmatite_rect,6,1.125,1,3,0,3,0,1,,,,,,,,,,,,,
643adb4a213b87bfc7e21e3f,TCN,2024-06-21_13h47.35.936,LearnStrategy,2023.2.3,Linux x86_64,59.88023952,5,1,5,0.015345207,-0.008424981,1,0,0,0.8467,rock_grid_rect_2,7,04,-1,-1,0.847,-0.386492269,-0.242345974,1,0,0,1.4648,Andesite_rect,1,1.465,0,4,0,4,0,1,,,,,,,,,,,,,
643adb4a213b87bfc7e21e3f,TCN,2024-06-21_13h47.35.936,LearnStrategy,2023.2.3,Linux x86_64,59.88023952,5,1,6,0.038492393,0.011144009,1,0,0,0.7441,rock_grid_rect_2,3,09,-1,-1,0.744,0.049390467,-0.253600239,1,0,0,1.1073,Diorite_rect,3,1.107,1,5,0,5,0,1,,,,,,,,,,,,,
643adb4a213b87bfc7e21e3f,TCN,2024-06-21_13h47.35.936,LearnStrategy,2023.2.3,Linux x86_64,59.88023952,5,1,7,0.030613598,0.021336296,1,0,0,0.7312,rock_grid_rect_2,1,11,-1,-1,0.731,-0.065826959,-0.234668236,1,0,0,2.7811,Basalt_rect,2,2.781,0,6,0,6,0,1,,,,,,,,,,,,,
643adb4a213b87bfc7e21e3f,TCN,2024-06-21_13h47.35.936,LearnStrategy,2023.2.3,Linux x86_64,59.88023952,5,1,8,-0.026837267,-0.010146573,1,0,0,0.9784,rock_grid_rect_2,4,13,-1,-1,0.978,0.425926365,-0.250819925,1,0,0,2.0515,Gabbro_rect,4,2.052,1,7,0,7,0,1,,,,,,,,,,,,,
643adb4a213b87bfc7e21e3f,TCN,2024-06-21_13h47.35.936,LearnStrategy,2023.2.3,Linux x86_64,59.88023952,5,1,9,-0.008677513,-0.002880843,1,0,0,0.6633,rock_grid_rect_2,8,10,-1,-1,0.663,0.362215347,-0.406178027,1,0,0,1.2359,Pumice_rect,8,1.236,1,8,0,8,0,1,,,,,,,,,,,,,
643adb4a213b87bfc7e21e3f,TCN,2024-06-21_13h47.35.936,LearnStrategy,2023.2.3,Linux x86_64,59.88023952,5,1,10,0.076867141,0.005359112,1,0,0,0.7316,rock_grid_rect_2,1,02,-1,-1,0.732,-0.154544689,-0.240249571,1,0,0,2.9167,Basalt_rect,2,2.917,0,9,0,9,0,1,,,,,,,,,,,,,
643adb4a213b87bfc7e21e3f,TCN,2024-06-21_13h47.35.936,LearnStrategy,2023.2.3,Linux x86_64,59.88023952,5,1,11,0.062173783,0.021603982,1,0,0,0.6853,rock_grid_rect_2,7,06,-1,-1,0.685,0.058308864,-0.398158542,1,0,0,1.1922,Peridotite_rect,7,1.192,1,10,0,10,0,1,,,,,,,,,,,,,
643adb4a213b87bfc7e21e3f,TCN,2024-06-21_13h47.35.936,LearnStrategy,2023.2.3,Linux x86_64,59.88023952,5,1,12,0.023311505,-0.005921078,1,0,0,0.5978,rock_grid_rect_2,5,11,-1,-1,0.598,-0.381805378,-0.4135905,1,0,0,1.4689,Obsidian_rect,5,1.469,1,11,0,11,0,1,,,,,,,,,,,,,
643adb4a213b87bfc7e21e3f,TCN,2024-06-21_13h47.35.936,LearnStrategy,2023.2.3,Linux x86_64,59.88023952,5,1,13,-0.041268867,0.00535619,1,0,0,0.6769,rock_grid_rect_2,5,05,-1,-1,0.677,-0.33750162,-0.392090261,1,0,0,1.1648,Obsidian_rect,5,1.165,1,12,0,12,0,1,,,,,,,,,,,,,
643adb4a213b87bfc7e21e3f,TCN,2024-06-21_13h47.35.936,LearnStrategy,2023.2.3,Linux x86_64,59.88023952,5,1,14,-0.019227744,0.008384778,1,0,0,0.8447,rock_grid_rect_2,4,12,-1,-1,0.845,-0.066392056,-0.229191938,1,0,0,4.089,Basalt_rect,2,4.089,0,13,0,13,0,1,,,,,,,,,,,,,
643adb4a213b87bfc7e21e3f,TCN,2024-06-21_13h47.35.936,LearnStrategy,2023.2.3,Linux x86_64,59.88023952,5,1,15,-0.004813428,-0.010874736,1,0,0,0.6298,rock_grid_rect_2,2,16,-1,-1,0.63,-0.061408798,-0.234613045,1,0,0,1.3291,Basalt_rect,2,1.329,1,14,0,14,0,1,,,,,,,,,,,,,
643adb4a213b87bfc7e21e3f,TCN,2024-06-21_13h47.35.936,LearnStrategy,2023.2.3,Linux x86_64,59.88023952,5,1,16,-0.021993363,0.00993128,1,0,0,0.7486,rock_grid_rect_2,8,13,-1,-1,0.749,0.354561739,-0.389560099,1,0,0,1.2683,Pumice_rect,8,1.268,1,15,0,15,0,1,,,,,,,,,,,,,
643adb4a213b87bfc7e21e3f,TCN,2024-06-21_13h47.35.936,LearnStrategy,2023.2.3,Linux x86_64,59.88023952,5,2,1,,,,,,,,3,15,,,,,,,,,,,4,3.801,0,,,,,,0.346971254,-0.248509857,1,0,0,3.8014,Gabbro_rect,0,0,0,0,1,
643adb4a213b87bfc7e21e3f,TCN,2024-06-21_13h47.35.936,LearnStrategy,2023.2.3,Linux x86_64,59.88023952,5,2,2,,,,,,,,8,04,,,,,,,,,,,8,1.649,1,,,,,,0.340222903,-0.421230833,1,0,0,1.6494,Pumice_rect,1,0,1,0,1,
643adb4a213b87bfc7e21e3f,TCN,2024-06-21_13h47.35.936,LearnStrategy,2023.2.3,Linux x86_64,59.88023952,5,2,3,,,,,,,,3,06,,,,,,,,,,,1,3.137,0,,,,,,-0.417443313,-0.253074636,1,0,0,3.1374,Andesite_rect,2,0,2,0,1,
643adb4a213b87bfc7e21e3f,TCN,2024-06-21_13h47.35.936,LearnStrategy,2023.2.3,Linux x86_64,59.88023952,5,2,4,,,,,,,,4,01,,,,,,,,,,,1,4.134,0,,,,,,-0.375424616,-0.230670892,1,0,0,4.1339,Andesite_rect,3,0,3,0,1,
643adb4a213b87bfc7e21e3f,TCN,2024-06-21_13h47.35.936,LearnStrategy,2023.2.3,Linux x86_64,59.88023952,5,2,5,,,,,,,,1,04,,,,,,,,,,,1,2.207,1,,,,,,-0.362788251,-0.249186838,1,0,0,2.2065,Andesite_rect,4,0,4,0,1,
643adb4a213b87bfc7e21e3f,TCN,2024-06-21_13h47.35.936,LearnStrategy,2023.2.3,Linux x86_64,59.88023952,5,2,6,,,,,,,,5,12,,,,,,,,,,,5,0.88,1,,,,,,-0.406448594,-0.386639179,1,0,0,0.8803,Obsidian_rect,5,0,5,0,1,
643adb4a213b87bfc7e21e3f,TCN,2024-06-21_13h47.35.936,LearnStrategy,2023.2.3,Linux x86_64,59.88023952,5,2,7,,,,,,,,6,08,,,,,,,,,,,6,1.531,1,,,,,,-0.094094753,-0.397894529,1,0,0,1.5308,Pegmatite_rect,6,0,6,0,1,
643adb4a213b87bfc7e21e3f,TCN,2024-06-21_13h47.35.936,LearnStrategy,2023.2.3,Linux x86_64,59.88023952,5,2,8,,,,,,,,7,15,,,,,,,,,,,7,1.841,1,,,,,,0.044918535,-0.39779901,1,0,0,1.8408,Peridotite_rect,7,0,7,0,1,
643adb4a213b87bfc7e21e3f,TCN,2024-06-21_13h47.35.936,LearnStrategy,2023.2.3,Linux x86_64,59.88023952,5,2,9,,,,,,,,2,04,,,,,,,,,,,2,4.427,1,,,,,,-0.104476991,-0.271422505,1,0,0,4.4269,Basalt_rect,8,0,8,0,1,
643adb4a213b87bfc7e21e3f,TCN,2024-06-21_13h47.35.936,LearnStrategy,2023.2.3,Linux x86_64,59.88023952,5,2,10,,,,,,,,2,09,,,,,,,,,,,2,0.877,1,,,,,,-0.104476991,-0.270450368,1,0,0,0.8774,Basalt_rect,9,0,9,0,1,
643adb4a213b87bfc7e21e3f,TCN,2024-06-21_13h47.35.936,LearnStrategy,2023.2.3,Linux x86_64,59.88023952,5,2,11,,,,,,,,1,03,,,,,,,,,,,2,2.247,0,,,,,,-0.116227052,-0.253224844,1,0,0,2.2471,Basalt_rect,10,0,10,0,1,
643adb4a213b87bfc7e21e3f,TCN,2024-06-21_13h47.35.936,LearnStrategy,2023.2.3,Linux x86_64,59.88023952,5,2,12,,,,,,,,5,08,,,,,,,,,,,5,1.169,1,,,,,,-0.333908269,-0.382684168,1,0,0,1.169,Obsidian_rect,11,0,11,0,1,
643adb4a213b87bfc7e21e3f,TCN,2024-06-21_13h47.35.936,LearnStrategy,2023.2.3,Linux x86_64,59.88023952,5,2,13,,,,,,,,4,11,,,,,,,,,,,4,2.376,1,,,,,,0.402095769,-0.262257462,1,0,0,2.3758,Gabbro_rect,12,0,12,0,1,
643adb4a213b87bfc7e21e3f,TCN,2024-06-21_13h47.35.936,LearnStrategy,2023.2.3,Linux x86_64,59.88023952,5,2,14,,,,,,,,6,11,,,,,,,,,,,6,0.935,1,,,,,,-0.110797762,-0.40829305,1,0,0,0.9346,Pegmatite_rect,13,0,13,0,1,
643adb4a213b87bfc7e21e3f,TCN,2024-06-21_13h47.35.936,LearnStrategy,2023.2.3,Linux x86_64,59.88023952,5,2,15,,,,,,,,7,05,,,,,,,,,,,7,4.151,1,,,,,,0.091875361,-0.389421998,1,0,0,4.1507,Peridotite_rect,14,0,14,0,1,
643adb4a213b87bfc7e21e3f,TCN,2024-06-21_13h47.35.936,LearnStrategy,2023.2.3,Linux x86_64,59.88023952,5,2,16,,,,,,,,8,03,,,,,,,,,,,8,2.009,1,,,,,,0.298286156,-0.406462329,1,0,0,2.0091,Pumice_rect,15,0,15,0,1,
643adb4a213b87bfc7e21e3f,TCN,2024-06-21_13h47.35.936,LearnStrategy,2023.2.3,Linux x86_64,59.88023952,6,1,1,0.005671594,0.001887706,1,0,0,1.0628,rock_grid_rect_2,2,08,-1,-1,1.063,-0.094533271,-0.251710654,1,0,0,3.3264,Basalt_rect,2,3.326,1,0,0,0,0,1,,,,,,,,,,,,,
643adb4a213b87bfc7e21e3f,TCN,2024-06-21_13h47.35.936,LearnStrategy,2023.2.3,Linux x86_64,59.88023952,6,1,2,-0.033585785,-0.000382743,1,0,0,1.0111,rock_grid_rect_2,6,10,-1,-1,1.011,-0.106946202,-0.395811485,1,0,0,2.3153,Pegmatite_rect,6,2.315,1,1,0,1,0,1,,,,,,,,,,,,,
643adb4a213b87bfc7e21e3f,TCN,2024-06-21_13h47.35.936,LearnStrategy,2023.2.3,Linux x86_64,59.88023952,6,1,3,-0.033606909,0.018805675,1,0,0,1.2486,rock_grid_rect_2,3,07,-1,-1,1.249,0.189258247,-0.239218486,1,0,0,1.0456,Diorite_rect,3,1.046,1,2,0,2,0,1,,,,,,,,,,,,,
643adb4a213b87bfc7e21e3f,TCN,2024-06-21_13h47.35.936,LearnStrategy,2023.2.3,Linux x86_64,59.88023952,6,1,4,-0.001158416,0.021794018,1,0,0,0.7266,rock_grid_rect_2,1,16,-1,-1,0.727,-0.397907972,-0.256753861,1,0,0,4.5501,Andesite_rect,1,4.55,1,3,0,3,0,1,,,,,,,,,,,,,
643adb4a213b87bfc7e21e3f,TCN,2024-06-21_13h47.35.936,LearnStrategy,2023.2.3,Linux x86_64,59.88023952,6,1,5,0.002966092,-0.004082634,1,0,0,0.8316,rock_grid_rect_2,8,09,-1,-1,0.832,0.471539582,-0.404169544,1,0,0,1.262,Pumice_rect,8,1.262,1,4,0,4,0,1,,,,,,,,,,,,,
643adb4a213b87bfc7e21e3f,TCN,2024-06-21_13h47.35.936,LearnStrategy,2023.2.3,Linux x86_64,59.88023952,6,1,6,-0.001832725,0.005640784,1,0,0,0.6814,rock_grid_rect_2,3,12,-1,-1,0.681,-0.46857299,-0.244598263,1,0,0,1.3119,Andesite_rect,1,1.312,0,5,0,5,0,1,,,,,,,,,,,,,
643adb4a213b87bfc7e21e3f,TCN,2024-06-21_13h47.35.936,LearnStrategy,2023.2.3,Linux x86_64,59.88023952,6,1,7,0.024593995,-0.021200198,1,0,0,1.333,rock_grid_rect_2,1,07,-1,-1,1.333,0.111606582,-0.254862273,1,0,0,0.8874,Diorite_rect,3,0.887,0,6,0,6,0,1,,,,,,,,,,,,,
643adb4a213b87bfc7e21e3f,TCN,2024-06-21_13h47.35.936,LearnStrategy,2023.2.3,Linux x86_64,59.88023952,6,1,8,0.00823841,0.019450802,1,0,0,0.6719,rock_grid_rect_2,5,02,-1,-1,0.672,-0.365190373,-0.390744482,1,0,0,1.3794,Obsidian_rect,5,1.379,1,7,0,7,0,1,,,,,,,,,,,,,
643adb4a213b87bfc7e21e3f,TCN,2024-06-21_13h47.35.936,LearnStrategy,2023.2.3,Linux x86_64,59.88023952,6,1,9,-0.013432243,0.011029287,1,0,0,0.8108,rock_grid_rect_2,4,10,-1,-1,0.811,0.346893686,-0.269803445,1,0,0,4.3754,Gabbro_rect,4,4.375,1,8,0,8,0,1,,,,,,,,,,,,,
643adb4a213b87bfc7e21e3f,TCN,2024-06-21_13h47.35.936,LearnStrategy,2023.2.3,Linux x86_64,59.88023952,6,1,10,0.081474419,-0.002451342,1,0,0,0.7645,rock_grid_rect_2,8,14,-1,-1,0.764,0.40753249,-0.383226554,1,0,0,1.1114,Pumice_rect,8,1.111,1,9,0,9,0,1,,,,,,,,,,,,,
643adb4a213b87bfc7e21e3f,TCN,2024-06-21_13h47.35.936,LearnStrategy,2023.2.3,Linux x86_64,59.88023952,6,1,11,0.031288408,-0.002484323,1,0,0,0.798,rock_grid_rect_2,2,06,-1,-1,0.798,-0.081914941,-0.242442328,1,0,0,2.4753,Basalt_rect,2,2.475,1,10,0,10,0,1,,,,,,,,,,,,,
643adb4a213b87bfc7e21e3f,TCN,2024-06-21_13h47.35.936,LearnStrategy,2023.2.3,Linux x86_64,59.88023952,6,1,12,0.002932693,0.019684172,1,0,0,0.7309,rock_grid_rect_2,4,14,-1,-1,0.731,0.365389593,-0.237139701,1,0,0,3.7973,Gabbro_rect,4,3.797,1,11,0,11,0,1,,,,,,,,,,,,,
643adb4a213b87bfc7e21e3f,TCN,2024-06-21_13h47.35.936,LearnStrategy,2023.2.3,Linux x86_64,59.88023952,6,1,13,0.045785802,0.004715195,1,0,0,0.6288,rock_grid_rect_2,7,12,-1,-1,0.629,0.12310457,-0.268045783,1,0,0,0.9833,Diorite_rect,3,0.983,0,12,0,12,0,1,,,,,,,,,,,,,
643adb4a213b87bfc7e21e3f,TCN,2024-06-21_13h47.35.936,LearnStrategy,2023.2.3,Linux x86_64,59.88023952,6,1,14,0.052391626,0.011143926,1,0,0,0.6618,rock_grid_rect_2,7,13,-1,-1,0.662,0.111007586,-0.379085932,1,0,0,1.632,Peridotite_rect,7,1.632,1,13,0,13,0,1,,,,,,,,,,,,,
643adb4a213b87bfc7e21e3f,TCN,2024-06-21_13h47.35.936,LearnStrategy,2023.2.3,Linux x86_64,59.88023952,6,1,15,0.089359143,-0.019477562,1,0,0,1.0628,rock_grid_rect_2,6,05,-1,-1,1.063,0.095061964,-0.237876882,1,0,0,1.3203,Diorite_rect,3,1.32,0,14,0,14,0,1,,,,,,,,,,,,,
643adb4a213b87bfc7e21e3f,TCN,2024-06-21_13h47.35.936,LearnStrategy,2023.2.3,Linux x86_64,59.88023952,6,1,16,0.061551575,-0.017291903,1,0,0,1.7615,rock_grid_rect_2,5,14,-1,-1,1.762,-0.438003227,-0.386817442,1,0,0,1.187,Obsidian_rect,5,1.187,1,15,0,15,0,1,,,,,,,,,,,,,
643adb4a213b87bfc7e21e3f,TCN,2024-06-21_13h47.35.936,LearnStrategy,2023.2.3,Linux x86_64,59.88023952,6,2,1,,,,,,,,3,16,,,,,,,,,,,3,2.295,1,,,,,,0.12686295,-0.242400497,1,0,0,2.2947,Diorite_rect,0,0,0,0,1,
643adb4a213b87bfc7e21e3f,TCN,2024-06-21_13h47.35.936,LearnStrategy,2023.2.3,Linux x86_64,59.88023952,6,2,2,,,,,,,,5,04,,,,,,,,,,,5,1.195,1,,,,,,-0.48501708,-0.418558311,1,0,0,1.1953,Obsidian_rect,1,0,1,0,1,
643adb4a213b87bfc7e21e3f,TCN,2024-06-21_13h47.35.936,LearnStrategy,2023.2.3,Linux x86_64,59.88023952,6,2,3,,,,,,,,7,07,,,,,,,,,,,1,2.388,0,,,,,,-0.354619142,-0.268045282,1,0,0,2.3877,Andesite_rect,2,0,2,0,1,
643adb4a213b87bfc7e21e3f,TCN,2024-06-21_13h47.35.936,LearnStrategy,2023.2.3,Linux x86_64,59.88023952,6,2,4,,,,,,,,5,16,,,,,,,,,,,5,1.232,1,,,,,,-0.353411882,-0.391189012,1,0,0,1.2318,Obsidian_rect,3,0,3,0,1,
643adb4a213b87bfc7e21e3f,TCN,2024-06-21_13h47.35.936,LearnStrategy,2023.2.3,Linux x86_64,59.88023952,6,2,5,,,,,,,,6,09,,,,,,,,,,,6,1.115,1,,,,,,-0.161256636,-0.400980687,1,0,0,1.1155,Pegmatite_rect,4,0,4,0,1,
643adb4a213b87bfc7e21e3f,TCN,2024-06-21_13h47.35.936,LearnStrategy,2023.2.3,Linux x86_64,59.88023952,6,2,6,,,,,,,,2,14,,,,,,,,,,,4,2.351,0,,,,,,0.379387935,-0.261285743,1,0,0,2.3511,Gabbro_rect,5,0,5,0,1,
643adb4a213b87bfc7e21e3f,TCN,2024-06-21_13h47.35.936,LearnStrategy,2023.2.3,Linux x86_64,59.88023952,6,2,7,,,,,,,,7,02,,,,,,,,,,,7,1.103,1,,,,,,0.137911065,-0.393722847,1,0,0,1.1033,Peridotite_rect,6,0,6,0,1,
643adb4a213b87bfc7e21e3f,TCN,2024-06-21_13h47.35.936,LearnStrategy,2023.2.3,Linux x86_64,59.88023952,6,2,8,,,,,,,,1,14,,,,,,,,,,,1,2.058,1,,,,,,-0.357526453,-0.24713402,1,0,0,2.0585,Andesite_rect,7,0,7,0,1,
643adb4a213b87bfc7e21e3f,TCN,2024-06-21_13h47.35.936,LearnStrategy,2023.2.3,Linux x86_64,59.88023952,6,2,9,,,,,,,,2,01,,,,,,,,,,,2,1.025,1,,,,,,-0.124726803,-0.250867601,1,0,0,1.0252,Basalt_rect,8,0,8,0,1,
643adb4a213b87bfc7e21e3f,TCN,2024-06-21_13h47.35.936,LearnStrategy,2023.2.3,Linux x86_64,59.88023952,6,2,10,,,,,,,,6,06,,,,,,,,,,,6,1.391,1,,,,,,-0.128156628,-0.390733795,1,0,0,1.3909,Pegmatite_rect,9,0,9,0,1,
643adb4a213b87bfc7e21e3f,TCN,2024-06-21_13h47.35.936,LearnStrategy,2023.2.3,Linux x86_64,59.88023952,6,2,11,,,,,,,,4,03,,,,,,,,,,,1,2.776,0,,,,,,-0.385492411,-0.258608796,1,0,0,2.7762,Andesite_rect,10,0,10,0,1,
643adb4a213b87bfc7e21e3f,TCN,2024-06-21_13h47.35.936,LearnStrategy,2023.2.3,Linux x86_64,59.88023952,6,2,12,,,,,,,,8,08,,,,,,,,,,,8,1.95,1,,,,,,0.309479469,-0.387874661,1,0,0,1.9496,Pumice_rect,11,0,11,0,1,
643adb4a213b87bfc7e21e3f,TCN,2024-06-21_13h47.35.936,LearnStrategy,2023.2.3,Linux x86_64,59.88023952,6,2,13,,,,,,,,4,15,,,,,,,,,,,4,3.222,1,,,,,,0.391223328,-0.268387196,1,0,0,3.2219,Gabbro_rect,12,0,12,0,1,
643adb4a213b87bfc7e21e3f,TCN,2024-06-21_13h47.35.936,LearnStrategy,2023.2.3,Linux x86_64,59.88023952,6,2,14,,,,,,,,1,06,,,,,,,,,,,1,2.283,1,,,,,,-0.371223418,-0.239470392,1,0,0,2.2826,Andesite_rect,13,0,13,0,1,
643adb4a213b87bfc7e21e3f,TCN,2024-06-21_13h47.35.936,LearnStrategy,2023.2.3,Linux x86_64,59.88023952,6,2,15,,,,,,,,8,15,,,,,,,,,,,8,1.202,1,,,,,,0.396244493,-0.398985647,1,0,0,1.2023,Pumice_rect,14,0,14,0,1,
643adb4a213b87bfc7e21e3f,TCN,2024-06-21_13h47.35.936,LearnStrategy,2023.2.3,Linux x86_64,59.88023952,6,2,16,,,,,,,,3,02,,,,,,,,,,,3,0.826,1,,,,,,0.141797276,-0.269698909,1,0,0,0.8256,Diorite_rect,15,0,15,0,1,
643adb4a213b87bfc7e21e3f,TCN,2024-06-21_13h47.35.936,LearnStrategy,2023.2.3,Linux x86_64,59.88023952,7,1,1,-0.078853832,-0.007492796,1,0,0,1.1836,rock_grid_rect_2,7,06,-1,-1,1.184,-0.148292468,-0.393316976,1,0,0,1.4772,Pegmatite_rect,6,1.477,0,0,0,0,0,1,,,,,,,,,,,,,
643adb4a213b87bfc7e21e3f,TCN,2024-06-21_13h47.35.936,LearnStrategy,2023.2.3,Linux x86_64,59.88023952,7,1,2,0.049692887,-0.013591719,1,0,0,0.7652,rock_grid_rect_2,5,14,-1,-1,0.765,-0.491301321,-0.406461577,1,0,0,1.1141,Obsidian_rect,5,1.114,1,1,0,1,0,1,,,,,,,,,,,,,
643adb4a213b87bfc7e21e3f,TCN,2024-06-21_13h47.35.936,LearnStrategy,2023.2.3,Linux x86_64,59.88023952,7,1,3,-0.009313497,-0.011205337,1,0,0,0.7885,rock_grid_rect_2,1,10,-1,-1,0.788,-0.356054387,-0.253179088,1,0,0,1.3574,Andesite_rect,1,1.357,1,2,0,2,0,1,,,,,,,,,,,,,
643adb4a213b87bfc7e21e3f,TCN,2024-06-21_13h47.35.936,LearnStrategy,2023.2.3,Linux x86_64,59.88023952,7,1,4,-0.009860893,-0.017106835,1,0,0,0.6788,rock_grid_rect_2,8,16,-1,-1,0.679,0.411121624,-0.413131693,1,0,0,2.7774,Pumice_rect,8,2.777,1,3,0,3,0,1,,,,,,,,,,,,,
643adb4a213b87bfc7e21e3f,TCN,2024-06-21_13h47.35.936,LearnStrategy,2023.2.3,Linux x86_64,59.88023952,7,1,5,0.011383349,-0.008122226,1,0,0,0.5984,rock_grid_rect_2,7,12,-1,-1,0.598,0.085308362,-0.390263632,1,0,0,1.8735,Peridotite_rect,7,1.874,1,4,0,4,0,1,,,,,,,,,,,,,
643adb4a213b87bfc7e21e3f,TCN,2024-06-21_13h47.35.936,LearnStrategy,2023.2.3,Linux x86_64,59.88023952,7,1,6,0.051944926,-0.002543605,1,0,0,0.7633,rock_grid_rect_2,4,16,-1,-1,0.763,-0.037235119,-0.2415607,1,0,0,2.975,Basalt_rect,2,2.975,0,5,0,5,0,1,,,,,,,,,,,,,
643adb4a213b87bfc7e21e3f,TCN,2024-06-21_13h47.35.936,LearnStrategy,2023.2.3,Linux x86_64,59.88023952,7,1,7,0.1024726,-0.002481902,1,0,0,0.6981,rock_grid_rect_2,5,05,-1,-1,0.698,0.170509015,-0.247099619,1,0,0,1.2117,Diorite_rect,3,1.212,0,6,0,6,0,1,,,,,,,,,,,,,
643adb4a213b87bfc7e21e3f,TCN,2024-06-21_13h47.35.936,LearnStrategy,2023.2.3,Linux x86_64,59.88023952,7,1,8,-0.004841733,-0.022754841,1,0,0,0.7983,rock_grid_rect_2,3,08,-1,-1,0.798,0.088127669,-0.249973448,1,0,0,1.7081,Diorite_rect,3,1.708,1,7,0,7,0,1,,,,,,,,,,,,,
643adb4a213b87bfc7e21e3f,TCN,2024-06-21_13h47.35.936,LearnStrategy,2023.2.3,Linux x86_64,59.88023952,7,1,9,-0.013180588,-0.011738538,1,0,0,0.6811,rock_grid_rect_2,1,16,-1,-1,0.681,-0.380814872,-0.234041519,1,0,0,1.1134,Andesite_rect,1,1.113,1,8,0,8,0,1,,,,,,,,,,,,,
643adb4a213b87bfc7e21e3f,TCN,2024-06-21_13h47.35.936,LearnStrategy,2023.2.3,Linux x86_64,59.88023952,7,1,10,0.010232698,0.00962936,1,0,0,0.6636,rock_grid_rect_2,2,08,-1,-1,0.664,-0.108466152,-0.253312347,1,0,0,1.5023,Basalt_rect,2,1.502,1,9,0,9,0,1,,,,,,,,,,,,,
643adb4a213b87bfc7e21e3f,TCN,2024-06-21_13h47.35.936,LearnStrategy,2023.2.3,Linux x86_64,59.88023952,7,1,11,0.022611146,-0.01408501,1,0,0,0.9627,rock_grid_rect_2,8,14,-1,-1,0.963,0.414252953,-0.420631419,1,0,0,1.0391,Pumice_rect,8,1.039,1,10,0,10,0,1,,,,,,,,,,,,,
643adb4a213b87bfc7e21e3f,TCN,2024-06-21_13h47.35.936,LearnStrategy,2023.2.3,Linux x86_64,59.88023952,7,1,12,0.071388506,-0.011848377,1,0,0,0.5942,rock_grid_rect_2,4,12,-1,-1,0.594,-0.334370667,-0.234250508,1,0,0,2.3091,Andesite_rect,1,2.309,0,11,0,11,0,1,,,,,,,,,,,,,
643adb4a213b87bfc7e21e3f,TCN,2024-06-21_13h47.35.936,LearnStrategy,2023.2.3,Linux x86_64,59.88023952,7,1,13,0.009683132,0.008397051,1,0,0,0.5139,rock_grid_rect_2,2,06,-1,-1,0.514,-0.064293649,-0.254240649,1,0,0,1.4861,Basalt_rect,2,1.486,1,12,0,12,0,1,,,,,,,,,,,,,
643adb4a213b87bfc7e21e3f,TCN,2024-06-21_13h47.35.936,LearnStrategy,2023.2.3,Linux x86_64,59.88023952,7,1,14,-0.019279261,-0.010282712,1,0,0,0.5766,rock_grid_rect_2,6,03,-1,-1,0.577,-0.041055452,-0.407757927,1,0,0,2.5217,Pegmatite_rect,6,2.522,1,13,0,13,0,1,,,,,,,,,,,,,
643adb4a213b87bfc7e21e3f,TCN,2024-06-21_13h47.35.936,LearnStrategy,2023.2.3,Linux x86_64,59.88023952,7,1,15,0.019712101,-0.023467809,1,0,0,0.6316,rock_grid_rect_2,6,07,-1,-1,0.632,-0.0990128,-0.421618001,1,0,0,1.5649,Pegmatite_rect,6,1.565,1,14,0,14,0,1,,,,,,,,,,,,,
643adb4a213b87bfc7e21e3f,TCN,2024-06-21_13h47.35.936,LearnStrategy,2023.2.3,Linux x86_64,59.88023952,7,1,16,-0.051898252,0.014771134,1,0,0,0.6773,rock_grid_rect_2,3,14,-1,-1,0.677,0.113190323,-0.237488127,1,0,0,0.9317,Diorite_rect,3,0.932,1,15,0,15,0,1,,,,,,,,,,,,,
643adb4a213b87bfc7e21e3f,TCN,2024-06-21_13h47.35.936,LearnStrategy,2023.2.3,Linux x86_64,59.88023952,7,2,1,,,,,,,,3,06,,,,,,,,,,,1,3.659,0,,,,,,-0.348685415,-0.256257732,1,0,0,3.6595,Andesite_rect,0,0,0,0,1,
643adb4a213b87bfc7e21e3f,TCN,2024-06-21_13h47.35.936,LearnStrategy,2023.2.3,Linux x86_64,59.88023952,7,2,2,,,,,,,,7,15,,,,,,,,,,,7,1.106,1,,,,,,0.100642464,-0.41932672,1,0,0,1.106,Peridotite_rect,1,0,1,0,1,
643adb4a213b87bfc7e21e3f,TCN,2024-06-21_13h47.35.936,LearnStrategy,2023.2.3,Linux x86_64,59.88023952,7,2,3,,,,,,,,6,13,,,,,,,,,,,6,4.192,1,,,,,,-0.082736118,-0.413608535,1,0,0,4.1917,Pegmatite_rect,2,0,2,0,1,
643adb4a213b87bfc7e21e3f,TCN,2024-06-21_13h47.35.936,LearnStrategy,2023.2.3,Linux x86_64,59.88023952,7,2,4,,,,,,,,5,08,,,,,,,,,,,5,1.088,1,,,,,,-0.321496006,-0.415020026,1,0,0,1.0876,Obsidian_rect,3,0,3,0,1,
643adb4a213b87bfc7e21e3f,TCN,2024-06-21_13h47.35.936,LearnStrategy,2023.2.3,Linux x86_64,59.88023952,7,2,5,,,,,,,,1,01,,,,,,,,,,,2,3.373,0,,,,,,-0.148641563,-0.271815685,1,0,0,3.3727,Basalt_rect,4,0,4,0,1,
643adb4a213b87bfc7e21e3f,TCN,2024-06-21_13h47.35.936,LearnStrategy,2023.2.3,Linux x86_64,59.88023952,7,2,6,,,,,,,,1,09,,,,,,,,,,,2,3.653,0,,,,,,-0.147659991,-0.267472253,1,0,0,3.6526,Basalt_rect,5,0,5,0,1,
643adb4a213b87bfc7e21e3f,TCN,2024-06-21_13h47.35.936,LearnStrategy,2023.2.3,Linux x86_64,59.88023952,7,2,7,,,,,,,,3,11,,,,,,,,,,,1,1.906,0,,,,,,-0.332998169,-0.25211686,1,0,0,1.9062,Andesite_rect,6,0,6,0,1,
643adb4a213b87bfc7e21e3f,TCN,2024-06-21_13h47.35.936,LearnStrategy,2023.2.3,Linux x86_64,59.88023952,7,2,8,,,,,,,,2,05,,,,,,,,,,,2,1.966,1,,,,,,-0.107489339,-0.256924526,1,0,0,1.9657,Basalt_rect,7,0,7,0,1,
643adb4a213b87bfc7e21e3f,TCN,2024-06-21_13h47.35.936,LearnStrategy,2023.2.3,Linux x86_64,59.88023952,7,2,9,,,,,,,,6,08,,,,,,,,,,,6,1.306,1,,,,,,-0.136560693,-0.420795905,1,0,0,1.3063,Pegmatite_rect,8,0,8,0,1,
643adb4a213b87bfc7e21e3f,TCN,2024-06-21_13h47.35.936,LearnStrategy,2023.2.3,Linux x86_64,59.88023952,7,2,10,,,,,,,,8,02,,,,,,,,,,,8,1.254,1,,,,,,0.437438213,-0.400197834,1,0,0,1.254,Pumice_rect,9,0,9,0,1,
643adb4a213b87bfc7e21e3f,TCN,2024-06-21_13h47.35.936,LearnStrategy,2023.2.3,Linux x86_64,59.88023952,7,2,11,,,,,,,,8,15,,,,,,,,,,,8,1.328,1,,,,,,0.434288432,-0.399183281,1,0,0,1.328,Pumice_rect,10,0,10,0,1,
643adb4a213b87bfc7e21e3f,TCN,2024-06-21_13h47.35.936,LearnStrategy,2023.2.3,Linux x86_64,59.88023952,7,2,12,,,,,,,,5,07,,,,,,,,,,,5,0.944,1,,,,,,-0.333256253,-0.402188782,1,0,0,0.9441,Obsidian_rect,11,0,11,0,1,
643adb4a213b87bfc7e21e3f,TCN,2024-06-21_13h47.35.936,LearnStrategy,2023.2.3,Linux x86_64,59.88023952,7,2,13,,,,,,,,2,01,,,,,,,,,,,2,1.257,1,,,,,,-0.147785818,-0.254241234,1,0,0,1.2566,Basalt_rect,12,0,12,0,1,
643adb4a213b87bfc7e21e3f,TCN,2024-06-21_13h47.35.936,LearnStrategy,2023.2.3,Linux x86_64,59.88023952,7,2,14,,,,,,,,4,03,,,,,,,,,,,2,1.611,0,,,,,,-0.149760318,-0.257428421,1,0,0,1.6111,Basalt_rect,13,0,13,0,1,
643adb4a213b87bfc7e21e3f,TCN,2024-06-21_13h47.35.936,LearnStrategy,2023.2.3,Linux x86_64,59.88023952,7,2,15,,,,,,,,7,08,,,,,,,,,,,4,3.097,0,,,,,,0.373219377,-0.259402587,1,0,0,3.0969,Gabbro_rect,14,0,14,0,1,
643adb4a213b87bfc7e21e3f,TCN,2024-06-21_13h47.35.936,LearnStrategy,2023.2.3,Linux x86_64,59.88023952,7,2,16,,,,,,,,4,09,,,,,,,,,,,4,1.47,1,,,,,,0.40702108,-0.258910465,1,0,0,1.4701,Gabbro_rect,15,0,15,0,1,
643adb4a213b87bfc7e21e3f,TCN,2024-06-21_13h47.35.936,LearnStrategy,2023.2.3,Linux x86_64,59.88023952,8,1,1,0.094815068,-0.011446638,1,0,0,0.6882,rock_grid_rect_2,7,14,-1,-1,0.688,0.146134446,-0.381806297,1,0,0,1.6954,Peridotite_rect,7,1.695,1,0,0,0,0,1,,,,,,,,,,,,,
643adb4a213b87bfc7e21e3f,TCN,2024-06-21_13h47.35.936,LearnStrategy,2023.2.3,Linux x86_64,59.88023952,8,1,2,0.05223215,-0.001248424,1,0,0,0.9957,rock_grid_rect_2,2,16,-1,-1,0.996,-0.112577801,-0.260323875,1,0,0,1.8259,Basalt_rect,2,1.826,1,1,0,1,0,1,,,,,,,,,,,,,
643adb4a213b87bfc7e21e3f,TCN,2024-06-21_13h47.35.936,LearnStrategy,2023.2.3,Linux x86_64,59.88023952,8,1,3,-0.000918617,-0.022966419,1,0,0,0.5788,rock_grid_rect_2,7,16,-1,-1,0.579,-0.058745795,-0.394164872,1,0,0,3.4938,Pegmatite_rect,6,3.494,0,2,0,2,0,1,,,,,,,,,,,,,
643adb4a213b87bfc7e21e3f,TCN,2024-06-21_13h47.35.936,LearnStrategy,2023.2.3,Linux x86_64,59.88023952,8,1,4,0.046789835,-0.024809163,1,0,0,1.0152,rock_grid_rect_2,5,02,-1,-1,1.015,-0.37409349,-0.405359354,1,0,0,2.1314,Obsidian_rect,5,2.131,1,3,0,3,0,1,,,,,,,,,,,,,
643adb4a213b87bfc7e21e3f,TCN,2024-06-21_13h47.35.936,LearnStrategy,2023.2.3,Linux x86_64,59.88023952,8,1,5,0.012178058,0.023317726,1,0,0,0.6143,rock_grid_rect_2,5,10,-1,-1,0.614,-0.430151735,-0.406997451,1,0,0,1.0255,Obsidian_rect,5,1.025,1,4,0,4,0,1,,,,,,,,,,,,,
643adb4a213b87bfc7e21e3f,TCN,2024-06-21_13h47.35.936,LearnStrategy,2023.2.3,Linux x86_64,59.88023952,8,1,6,0.004017215,-0.010809694,1,0,0,0.9296,rock_grid_rect_2,1,07,-1,-1,0.93,0.121487347,-0.241837487,1,0,0,1.4517,Diorite_rect,3,1.452,0,5,0,5,0,1,,,,,,,,,,,,,
643adb4a213b87bfc7e21e3f,TCN,2024-06-21_13h47.35.936,LearnStrategy,2023.2.3,Linux x86_64,59.88023952,8,1,7,0.003331384,-0.019842688,1,0,0,1.1985,rock_grid_rect_2,1,05,-1,-1,1.199,-0.396610411,-0.238748323,1,0,0,1.0855,Andesite_rect,1,1.086,1,6,0,6,0,1,,,,,,,,,,,,,
643adb4a213b87bfc7e21e3f,TCN,2024-06-21_13h47.35.936,LearnStrategy,2023.2.3,Linux x86_64,59.88023952,8,1,8,0.001188056,-0.008775995,1,0,0,0.9815,rock_grid_rect_2,2,02,-1,-1,0.981,-0.080205873,-0.265204434,1,0,0,1.0067,Basalt_rect,2,1.007,1,7,0,7,0,1,,,,,,,,,,,,,
643adb4a213b87bfc7e21e3f,TCN,2024-06-21_13h47.35.936,LearnStrategy,2023.2.3,Linux x86_64,59.88023952,8,1,9,0.046855128,-0.004298386,1,0,0,0.8965,rock_grid_rect_2,3,10,-1,-1,0.897,-0.339386279,-0.247893995,1,0,0,1.6779,Andesite_rect,1,1.678,0,8,0,8,0,1,,,,,,,,,,,,,
643adb4a213b87bfc7e21e3f,TCN,2024-06-21_13h47.35.936,LearnStrategy,2023.2.3,Linux x86_64,59.88023952,8,1,10,0.016113782,0.006662643,1,0,0,0.6929,rock_grid_rect_2,6,05,-1,-1,0.693,-0.182042155,-0.409936991,1,0,0,1.1479,Pegmatite_rect,6,1.148,1,9,0,9,0,1,,,,,,,,,,,,,
643adb4a213b87bfc7e21e3f,TCN,2024-06-21_13h47.35.936,LearnStrategy,2023.2.3,Linux x86_64,59.88023952,8,1,11,-0.054426577,-0.01339993,1,0,0,0.6477,rock_grid_rect_2,8,09,-1,-1,0.648,0.370798093,-0.40202964,1,0,0,1.1411,Pumice_rect,8,1.141,1,10,0,10,0,1,,,,,,,,,,,,,
643adb4a213b87bfc7e21e3f,TCN,2024-06-21_13h47.35.936,LearnStrategy,2023.2.3,Linux x86_64,59.88023952,8,1,12,0.029059581,-0.007222062,1,0,0,1.1341,rock_grid_rect_2,3,07,-1,-1,1.134,0.169796882,-0.247500815,1,0,0,1.3329,Diorite_rect,3,1.333,1,11,0,11,0,1,,,,,,,,,,,,,
643adb4a213b87bfc7e21e3f,TCN,2024-06-21_13h47.35.936,LearnStrategy,2023.2.3,Linux x86_64,59.88023952,8,1,13,0.052147736,-0.003350504,1,0,0,0.6647,rock_grid_rect_2,4,05,-1,-1,0.665,-0.083185073,-0.238524222,1,0,0,1.0219,Basalt_rect,2,1.022,0,12,0,12,0,1,,,,,,,,,,,,,
643adb4a213b87bfc7e21e3f,TCN,2024-06-21_13h47.35.936,LearnStrategy,2023.2.3,Linux x86_64,59.88023952,8,1,14,0.084437922,0.004440245,1,0,0,0.5979,rock_grid_rect_2,8,05,-1,-1,0.598,0.421499104,-0.420110241,1,0,0,0.8865,Pumice_rect,8,0.887,1,13,0,13,0,1,,,,,,,,,,,,,
643adb4a213b87bfc7e21e3f,TCN,2024-06-21_13h47.35.936,LearnStrategy,2023.2.3,Linux x86_64,59.88023952,8,1,15,0.039732885,0.014006024,1,0,0,0.7479,rock_grid_rect_2,6,12,-1,-1,0.748,-0.328367262,-0.24988987,1,0,0,4.215,Andesite_rect,1,4.215,0,14,0,14,0,1,,,,,,,,,,,,,
643adb4a213b87bfc7e21e3f,TCN,2024-06-21_13h47.35.936,LearnStrategy,2023.2.3,Linux x86_64,59.88023952,8,1,16,-0.023503962,0.020091671,1,0,0,0.9989,rock_grid_rect_2,4,14,-1,-1,0.999,-0.128363029,-0.239812556,1,0,0,1.0113,Basalt_rect,2,1.011,0,15,0,15,0,1,,,,,,,,,,,,,
643adb4a213b87bfc7e21e3f,TCN,2024-06-21_13h47.35.936,LearnStrategy,2023.2.3,Linux x86_64,59.88023952,8,2,1,,,,,,,,6,11,,,,,,,,,,,6,1.709,1,,,,,,-0.151131396,-0.411963508,1,0,0,1.7094,Pegmatite_rect,0,0,0,0,1,
643adb4a213b87bfc7e21e3f,TCN,2024-06-21_13h47.35.936,LearnStrategy,2023.2.3,Linux x86_64,59.88023952,8,2,2,,,,,,,,8,06,,,,,,,,,,,8,1.044,1,,,,,,0.415622445,-0.415833021,1,0,0,1.0442,Pumice_rect,1,0,1,0,1,
643adb4a213b87bfc7e21e3f,TCN,2024-06-21_13h47.35.936,LearnStrategy,2023.2.3,Linux x86_64,59.88023952,8,2,3,,,,,,,,8,04,,,,,,,,,,,8,0.747,1,,,,,,0.415622445,-0.417968416,1,0,0,0.7466,Pumice_rect,2,0,2,0,1,
643adb4a213b87bfc7e21e3f,TCN,2024-06-21_13h47.35.936,LearnStrategy,2023.2.3,Linux x86_64,59.88023952,8,2,4,,,,,,,,5,04,,,,,,,,,,,5,1.02,1,,,,,,-0.394253168,-0.402916696,1,0,0,1.0198,Obsidian_rect,3,0,3,0,1,
643adb4a213b87bfc7e21e3f,TCN,2024-06-21_13h47.35.936,LearnStrategy,2023.2.3,Linux x86_64,59.88023952,8,2,5,,,,,,,,1,06,,,,,,,,,,,1,4.03,1,,,,,,-0.419817547,-0.248257617,1,0,0,4.0298,Andesite_rect,4,0,4,0,1,
643adb4a213b87bfc7e21e3f,TCN,2024-06-21_13h47.35.936,LearnStrategy,2023.2.3,Linux x86_64,59.88023952,8,2,6,,,,,,,,5,12,,,,,,,,,,,5,1.075,1,,,,,,-0.35077255,-0.415114208,1,0,0,1.0749,Obsidian_rect,5,0,5,0,1,
643adb4a213b87bfc7e21e3f,TCN,2024-06-21_13h47.35.936,LearnStrategy,2023.2.3,Linux x86_64,59.88023952,8,2,7,,,,,,,,6,16,,,,,,,,,,,6,1.119,1,,,,,,-0.084243795,-0.405986488,1,0,0,1.1186,Pegmatite_rect,6,0,6,0,1,
643adb4a213b87bfc7e21e3f,TCN,2024-06-21_13h47.35.936,LearnStrategy,2023.2.3,Linux x86_64,59.88023952,8,2,8,,,,,,,,3,16,,,,,,,,,,,3,1.766,1,,,,,,0.139050861,-0.25851286,1,0,0,1.7659,Diorite_rect,7,0,7,0,1,
643adb4a213b87bfc7e21e3f,TCN,2024-06-21_13h47.35.936,LearnStrategy,2023.2.3,Linux x86_64,59.88023952,8,2,9,,,,,,,,1,03,,,,,,,,,,,2,1.017,0,,,,,,-0.08219106,-0.262797427,1,0,0,1.0175,Basalt_rect,8,0,8,0,1,
643adb4a213b87bfc7e21e3f,TCN,2024-06-21_13h47.35.936,LearnStrategy,2023.2.3,Linux x86_64,59.88023952,8,2,10,,,,,,,,2,12,,,,,,,,,,,4,1.445,0,,,,,,0.368848892,-0.233271775,1,0,0,1.4451,Gabbro_rect,9,0,9,0,1,
643adb4a213b87bfc7e21e3f,TCN,2024-06-21_13h47.35.936,LearnStrategy,2023.2.3,Linux x86_64,59.88023952,8,2,11,,,,,,,,4,08,,,,,,,,,,,4,0.853,1,,,,,,0.41631362,-0.247288403,1,0,0,0.8527,Gabbro_rect,10,0,10,0,1,
643adb4a213b87bfc7e21e3f,TCN,2024-06-21_13h47.35.936,LearnStrategy,2023.2.3,Linux x86_64,59.88023952,8,2,12,,,,,,,,2,09,,,,,,,,,,,2,1.252,1,,,,,,-0.040388574,-0.25535189,1,0,0,1.252,Basalt_rect,11,0,11,0,1,
643adb4a213b87bfc7e21e3f,TCN,2024-06-21_13h47.35.936,LearnStrategy,2023.2.3,Linux x86_64,59.88023952,8,2,13,,,,,,,,7,05,,,,,,,,,,,7,1.429,1,,,,,,0.055690447,-0.395975804,1,0,0,1.4294,Peridotite_rect,12,0,12,0,1,
643adb4a213b87bfc7e21e3f,TCN,2024-06-21_13h47.35.936,LearnStrategy,2023.2.3,Linux x86_64,59.88023952,8,2,14,,,,,,,,7,02,,,,,,,,,,,7,0.961,1,,,,,,0.056685379,-0.387982286,1,0,0,0.961,Peridotite_rect,13,0,13,0,1,
643adb4a213b87bfc7e21e3f,TCN,2024-06-21_13h47.35.936,LearnStrategy,2023.2.3,Linux x86_64,59.88023952,8,2,15,,,,,,,,3,13,,,,,,,,,,,3,1.012,1,,,,,,0.152223433,-0.253588216,1,0,0,1.0124,Diorite_rect,14,0,14,0,1,
643adb4a213b87bfc7e21e3f,TCN,2024-06-21_13h47.35.936,LearnStrategy,2023.2.3,Linux x86_64,59.88023952,8,2,16,,,,,,,,4,01,,,,,,,,,,,4,3.125,1,,,,,,0.412816999,-0.266576013,1,0,0,3.1255,Gabbro_rect,15,0,15,0,1,
643adb4a213b87bfc7e21e3f,TCN,2024-06-21_13h47.35.936,LearnStrategy,2023.2.3,Linux x86_64,59.88023952,9,1,1,0.042533655,-0.001499536,1,0,0,0.9324,rock_grid_rect_2,6,15,-1,-1,0.932,-0.12119336,-0.395292478,1,0,0,1.5528,Pegmatite_rect,6,1.553,1,0,0,0,0,1,,,,,,,,,,,,,
643adb4a213b87bfc7e21e3f,TCN,2024-06-21_13h47.35.936,LearnStrategy,2023.2.3,Linux x86_64,59.88023952,9,1,2,-0.085479361,0.007269738,1,0,0,0.7978,rock_grid_rect_2,2,10,-1,-1,0.798,-0.087485505,-0.237168005,1,0,0,2.4679,Basalt_rect,2,2.468,1,1,0,1,0,1,,,,,,,,,,,,,
643adb4a213b87bfc7e21e3f,TCN,2024-06-21_13h47.35.936,LearnStrategy,2023.2.3,Linux x86_64,59.88023952,9,1,3,-0.044085,-0.018330043,1,0,0,0.9972,rock_grid_rect_2,7,13,-1,-1,0.997,0.091620366,-0.42090328,1,0,0,1.0125,Peridotite_rect,7,1.013,1,2,0,2,0,1,,,,,,,,,,,,,
643adb4a213b87bfc7e21e3f,TCN,2024-06-21_13h47.35.936,LearnStrategy,2023.2.3,Linux x86_64,59.88023952,9,1,4,-0.042183559,-0.012236296,1,0,0,0.553,rock_grid_rect_2,4,13,-1,-1,0.553,0.421409263,-0.237239144,1,0,0,2.3328,Gabbro_rect,4,2.333,1,3,0,3,0,1,,,,,,,,,,,,,
643adb4a213b87bfc7e21e3f,TCN,2024-06-21_13h47.35.936,LearnStrategy,2023.2.3,Linux x86_64,59.88023952,9,1,5,-0.014937833,0.006135912,1,0,0,0.5782,rock_grid_rect_2,1,02,-1,-1,0.578,-0.360921252,-0.233734674,1,0,0,1.1635,Andesite_rect,1,1.163,1,4,0,4,0,1,,,,,,,,,,,,,
643adb4a213b87bfc7e21e3f,TCN,2024-06-21_13h47.35.936,LearnStrategy,2023.2.3,Linux x86_64,59.88023952,9,1,6,-0.008640524,0.023638014,1,0,0,0.5803,rock_grid_rect_2,3,09,-1,-1,0.58,0.120614904,-0.266411443,1,0,0,0.8988,Diorite_rect,3,0.899,1,5,0,5,0,1,,,,,,,,,,,,,
643adb4a213b87bfc7e21e3f,TCN,2024-06-21_13h47.35.936,LearnStrategy,2023.2.3,Linux x86_64,59.88023952,9,1,7,0.063824989,0.016596887,1,0,0,0.5817,rock_grid_rect_2,7,04,-1,-1,0.582,-0.110286854,-0.386445803,1,0,0,1.1686,Pegmatite_rect,6,1.169,0,6,0,6,0,1,,,,,,,,,,,,,
643adb4a213b87bfc7e21e3f,TCN,2024-06-21_13h47.35.936,LearnStrategy,2023.2.3,Linux x86_64,59.88023952,9,1,8,0.032370676,0.014713522,1,0,0,0.6612,rock_grid_rect_2,8,10,-1,-1,0.661,0.377465202,-0.401798191,1,0,0,1.1941,Pumice_rect,8,1.194,1,7,0,7,0,1,,,,,,,,,,,,,
643adb4a213b87bfc7e21e3f,TCN,2024-06-21_13h47.35.936,LearnStrategy,2023.2.3,Linux x86_64,59.88023952,9,1,9,0.039312819,0.013131117,1,0,0,0.7635,rock_grid_rect_2,1,11,-1,-1,0.764,-0.380145948,-0.248649211,1,0,0,1.5644,Andesite_rect,1,1.564,1,8,0,8,0,1,,,,,,,,,,,,,
643adb4a213b87bfc7e21e3f,TCN,2024-06-21_13h47.35.936,LearnStrategy,2023.2.3,Linux x86_64,59.88023952,9,1,10,0.012935111,-0.001386066,1,0,0,0.5977,rock_grid_rect_2,3,12,-1,-1,0.598,0.094639059,-0.232645893,1,0,0,2.1868,Diorite_rect,3,2.187,1,9,0,9,0,1,,,,,,,,,,,,,
643adb4a213b87bfc7e21e3f,TCN,2024-06-21_13h47.35.936,LearnStrategy,2023.2.3,Linux x86_64,59.88023952,9,1,11,0.080295714,0.004195353,1,0,0,0.6024,rock_grid_rect_2,5,11,-1,-1,0.602,-0.359982053,-0.409362375,1,0,0,1.4642,Obsidian_rect,5,1.464,1,10,0,10,0,1,,,,,,,,,,,,,
643adb4a213b87bfc7e21e3f,TCN,2024-06-21_13h47.35.936,LearnStrategy,2023.2.3,Linux x86_64,59.88023952,9,1,12,0.02720448,-0.011357716,1,0,0,0.6468,rock_grid_rect_2,8,13,-1,-1,0.647,0.348655941,-0.383740635,1,0,0,1.0341,Pumice_rect,8,1.034,1,11,0,11,0,1,,,,,,,,,,,,,
643adb4a213b87bfc7e21e3f,TCN,2024-06-21_13h47.35.936,LearnStrategy,2023.2.3,Linux x86_64,59.88023952,9,1,13,0.026984386,-0.021356794,1,0,0,0.6792,rock_grid_rect_2,2,11,-1,-1,0.679,-0.127016248,-0.247844148,1,0,0,3.0011,Basalt_rect,2,3.001,1,12,0,12,0,1,,,,,,,,,,,,,
643adb4a213b87bfc7e21e3f,TCN,2024-06-21_13h47.35.936,LearnStrategy,2023.2.3,Linux x86_64,59.88023952,9,1,14,0.023128984,-0.012428795,1,0,0,0.6646,rock_grid_rect_2,6,10,-1,-1,0.665,-0.070614336,-0.396973074,1,0,0,1.213,Pegmatite_rect,6,1.213,1,13,0,13,0,1,,,,,,,,,,,,,
643adb4a213b87bfc7e21e3f,TCN,2024-06-21_13h47.35.936,LearnStrategy,2023.2.3,Linux x86_64,59.88023952,9,1,15,0.058108057,-0.019229247,1,0,0,0.5783,rock_grid_rect_2,4,10,-1,-1,0.578,0.399101539,-0.266543366,1,0,0,1.4738,Gabbro_rect,4,1.474,1,14,0,14,0,1,,,,,,,,,,,,,
643adb4a213b87bfc7e21e3f,TCN,2024-06-21_13h47.35.936,LearnStrategy,2023.2.3,Linux x86_64,59.88023952,9,1,16,0.046436566,-0.019305979,1,0,0,0.5336,rock_grid_rect_2,5,09,-1,-1,0.534,-0.381712114,-0.393501918,1,0,0,0.953,Obsidian_rect,5,0.953,1,15,0,15,0,1,,,,,,,,,,,,,
643adb4a213b87bfc7e21e3f,TCN,2024-06-21_13h47.35.936,LearnStrategy,2023.2.3,Linux x86_64,59.88023952,9,2,1,,,,,,,,5,06,,,,,,,,,,,5,2.138,1,,,,,,-0.447005036,-0.392536377,1,0,0,2.1377,Obsidian_rect,0,0,0,0,1,
643adb4a213b87bfc7e21e3f,TCN,2024-06-21_13h47.35.936,LearnStrategy,2023.2.3,Linux x86_64,59.88023952,9,2,2,,,,,,,,8,03,,,,,,,,,,,8,1.024,1,,,,,,0.347109939,-0.384044058,1,0,0,1.0243,Pumice_rect,1,0,1,0,1,
643adb4a213b87bfc7e21e3f,TCN,2024-06-21_13h47.35.936,LearnStrategy,2023.2.3,Linux x86_64,59.88023952,9,2,3,,,,,,,,8,08,,,,,,,,,,,8,0.915,1,,,,,,0.347109939,-0.38307167,1,0,0,0.9153,Pumice_rect,2,0,2,0,1,
643adb4a213b87bfc7e21e3f,TCN,2024-06-21_13h47.35.936,LearnStrategy,2023.2.3,Linux x86_64,59.88023952,9,2,4,,,,,,,,4,15,,,,,,,,,,,4,3.936,1,,,,,,0.371750859,-0.26220127,1,0,0,3.9358,Gabbro_rect,3,0,3,0,1,
643adb4a213b87bfc7e21e3f,TCN,2024-06-21_13h47.35.936,LearnStrategy,2023.2.3,Linux x86_64,59.88023952,9,2,5,,,,,,,,4,11,,,,,,,,,,,2,1.048,0,,,,,,-0.059295279,-0.269616081,1,0,0,1.0482,Basalt_rect,4,0,4,0,1,
643adb4a213b87bfc7e21e3f,TCN,2024-06-21_13h47.35.936,LearnStrategy,2023.2.3,Linux x86_64,59.88023952,9,2,6,,,,,,,,2,14,,,,,,,,,,,2,0.909,1,,,,,,-0.059295279,-0.26124316,1,0,0,0.9095,Basalt_rect,5,0,5,0,1,
643adb4a213b87bfc7e21e3f,TCN,2024-06-21_13h47.35.936,LearnStrategy,2023.2.3,Linux x86_64,59.88023952,9,2,7,,,,,,,,6,09,,,,,,,,,,,6,0.863,1,,,,,,-0.113783308,-0.410006042,1,0,0,0.8634,Pegmatite_rect,6,0,6,0,1,
643adb4a213b87bfc7e21e3f,TCN,2024-06-21_13h47.35.936,LearnStrategy,2023.2.3,Linux x86_64,59.88023952,9,2,8,,,,,,,,1,14,,,,,,,,,,,1,1.655,1,,,,,,-0.353890895,-0.266999251,1,0,0,1.655,Andesite_rect,7,0,7,0,1,
643adb4a213b87bfc7e21e3f,TCN,2024-06-21_13h47.35.936,LearnStrategy,2023.2.3,Linux x86_64,59.88023952,9,2,9,,,,,,,,6,06,,,,,,,,,,,6,2.004,1,,,,,,-0.081907009,-0.399986674,1,0,0,2.0037,Pegmatite_rect,8,0,8,0,1,
643adb4a213b87bfc7e21e3f,TCN,2024-06-21_13h47.35.936,LearnStrategy,2023.2.3,Linux x86_64,59.88023952,9,2,10,,,,,,,,3,02,,,,,,,,,,,3,2.13,1,,,,,,0.087544286,-0.264794388,1,0,0,2.1298,Diorite_rect,9,0,9,0,1,
643adb4a213b87bfc7e21e3f,TCN,2024-06-21_13h47.35.936,LearnStrategy,2023.2.3,Linux x86_64,59.88023952,9,2,11,,,,,,,,3,15,,,,,,,,,,,4,6.328,0,,,,,,0.355079578,-0.265459178,1,0,0,6.328,Gabbro_rect,10,0,10,0,1,
643adb4a213b87bfc7e21e3f,TCN,2024-06-21_13h47.35.936,LearnStrategy,2023.2.3,Linux x86_64,59.88023952,9,2,12,,,,,,,,7,10,,,,,,,,,,,7,1.342,1,,,,,,0.157165945,-0.393750234,1,0,0,1.3423,Peridotite_rect,11,0,11,0,1,
643adb4a213b87bfc7e21e3f,TCN,2024-06-21_13h47.35.936,LearnStrategy,2023.2.3,Linux x86_64,59.88023952,9,2,13,,,,,,,,2,04,,,,,,,,,,,2,1.117,1,,,,,,-0.130767196,-0.254585151,1,0,0,1.1166,Basalt_rect,12,0,12,0,1,
643adb4a213b87bfc7e21e3f,TCN,2024-06-21_13h47.35.936,LearnStrategy,2023.2.3,Linux x86_64,59.88023952,9,2,14,,,,,,,,7,07,,,,,,,,,,,7,2.092,1,,,,,,0.081453044,-0.41935277,1,0,0,2.0923,Peridotite_rect,13,0,13,0,1,
643adb4a213b87bfc7e21e3f,TCN,2024-06-21_13h47.35.936,LearnStrategy,2023.2.3,Linux x86_64,59.88023952,9,2,15,,,,,,,,5,16,,,,,,,,,,,5,0.947,1,,,,,,-0.381540197,-0.390403821,1,0,0,0.9469,Obsidian_rect,14,0,14,0,1,
643adb4a213b87bfc7e21e3f,TCN,2024-06-21_13h47.35.936,LearnStrategy,2023.2.3,Linux x86_64,59.88023952,9,2,16,,,,,,,,1,04,,,,,,,,,,,1,1.602,1,,,,,,-0.400887924,-0.246759626,1,0,0,1.6021,Andesite_rect,15,0,15,0,1,
643adb4a213b87bfc7e21e3f,TCN,2024-06-21_13h47.35.936,LearnStrategy,2023.2.3,Linux x86_64,59.88023952,,,,,,,,,,,,,,,,,,,,,,,,,,,,,,,,,,,,,,,,,,,1
643adb4a213b87bfc7e21e3f,TCN,2024-06-21_13h47.35.936,LearnStrategy,2023.2.3,Linux x86_64,59.88023952,,,,,,,,,,,,,,,,,,,,,,,,,,,,,,,,,,,,,,,,,,,
643adb4a213b87bfc7e21e3f,TCN,2024-06-21_13h47.35.936,LearnStrategy,2023.2.3,Linux x86_64,59.88023952,,,,,,,,,,,1,07,1,1,,,,,,,,,,,,,,,,,,,,,,,,,,,,,
643adb4a213b87bfc7e21e3f,TCN,2024-06-21_13h47.35.936,LearnStrategy,2023.2.3,Linux x86_64,59.88023952,,,,,,,,,,,1,05,1,2,,,,,,,,,,,,,,,,,,,,,,,,,,,,,
643adb4a213b87bfc7e21e3f,TCN,2024-06-21_13h47.35.936,LearnStrategy,2023.2.3,Linux x86_64,59.88023952,,,,,,,,,,,8,14,1,3,,,,,,,,,,,,,,,,,,,,,,,,,,,,,
643adb4a213b87bfc7e21e3f,TCN,2024-06-21_13h47.35.936,LearnStrategy,2023.2.3,Linux x86_64,59.88023952,,,,,,,,,,,4,12,1,4,,,,,,,,,,,,,,,,,,,,,,,,,,,,,
643adb4a213b87bfc7e21e3f,TCN,2024-06-21_13h47.35.936,LearnStrategy,2023.2.3,Linux x86_64,59.88023952,,,,,,,,,,,8,05,1,5,,,,,,,,,,,,,,,,,,,,,,,,,,,,,
643adb4a213b87bfc7e21e3f,TCN,2024-06-21_13h47.35.936,LearnStrategy,2023.2.3,Linux x86_64,59.88023952,,,,,,,,,,,3,10,1,6,,,,,,,,,,,,,,,,,,,,,,,,,,,,,
643adb4a213b87bfc7e21e3f,TCN,2024-06-21_13h47.35.936,LearnStrategy,2023.2.3,Linux x86_64,59.88023952,,,,,,,,,,,2,02,1,7,,,,,,,,,,,,,,,,,,,,,,,,,,,,,
643adb4a213b87bfc7e21e3f,TCN,2024-06-21_13h47.35.936,LearnStrategy,2023.2.3,Linux x86_64,59.88023952,,,,,,,,,,,2,11,1,8,,,,,,,,,,,,,,,,,,,,,,,,,,,,,
643adb4a213b87bfc7e21e3f,TCN,2024-06-21_13h47.35.936,LearnStrategy,2023.2.3,Linux x86_64,59.88023952,,,,,,,,,,,2,08,2,1,,,,,,,,,,,,,,,,,,,,,,,,,,,,,
643adb4a213b87bfc7e21e3f,TCN,2024-06-21_13h47.35.936,LearnStrategy,2023.2.3,Linux x86_64,59.88023952,,,,,,,,,,,5,09,2,2,,,,,,,,,,,,,,,,,,,,,,,,,,,,,
643adb4a213b87bfc7e21e3f,TCN,2024-06-21_13h47.35.936,LearnStrategy,2023.2.3,Linux x86_64,59.88023952,,,,,,,,,,,7,12,2,3,,,,,,,,,,,,,,,,,,,,,,,,,,,,,
643adb4a213b87bfc7e21e3f,TCN,2024-06-21_13h47.35.936,LearnStrategy,2023.2.3,Linux x86_64,59.88023952,,,,,,,,,,,5,05,2,4,,,,,,,,,,,,,,,,,,,,,,,,,,,,,
643adb4a213b87bfc7e21e3f,TCN,2024-06-21_13h47.35.936,LearnStrategy,2023.2.3,Linux x86_64,59.88023952,,,,,,,,,,,4,13,2,5,,,,,,,,,,,,,,,,,,,,,,,,,,,,,
643adb4a213b87bfc7e21e3f,TCN,2024-06-21_13h47.35.936,LearnStrategy,2023.2.3,Linux x86_64,59.88023952,,,,,,,,,,,3,08,2,6,,,,,,,,,,,,,,,,,,,,,,,,,,,,,
643adb4a213b87bfc7e21e3f,TCN,2024-06-21_13h47.35.936,LearnStrategy,2023.2.3,Linux x86_64,59.88023952,,,,,,,,,,,5,10,2,7,,,,,,,,,,,,,,,,,,,,,,,,,,,,,
643adb4a213b87bfc7e21e3f,TCN,2024-06-21_13h47.35.936,LearnStrategy,2023.2.3,Linux x86_64,59.88023952,,,,,,,,,,,5,11,2,8,,,,,,,,,,,,,,,,,,,,,,,,,,,,,
643adb4a213b87bfc7e21e3f,TCN,2024-06-21_13h47.35.936,LearnStrategy,2023.2.3,Linux x86_64,59.88023952,,,,,,,,,,,8,16,3,1,,,,,,,,,,,,,,,,,,,,,,,,,,,,,
643adb4a213b87bfc7e21e3f,TCN,2024-06-21_13h47.35.936,LearnStrategy,2023.2.3,Linux x86_64,59.88023952,,,,,,,,,,,6,03,3,2,,,,,,,,,,,,,,,,,,,,,,,,,,,,,
643adb4a213b87bfc7e21e3f,TCN,2024-06-21_13h47.35.936,LearnStrategy,2023.2.3,Linux x86_64,59.88023952,,,,,,,,,,,4,10,3,3,,,,,,,,,,,,,,,,,,,,,,,,,,,,,
643adb4a213b87bfc7e21e3f,TCN,2024-06-21_13h47.35.936,LearnStrategy,2023.2.3,Linux x86_64,59.88023952,,,,,,,,,,,5,14,3,4,,,,,,,,,,,,,,,,,,,,,,,,,,,,,
643adb4a213b87bfc7e21e3f,TCN,2024-06-21_13h47.35.936,LearnStrategy,2023.2.3,Linux x86_64,59.88023952,,,,,,,,,,,1,10,3,5,,,,,,,,,,,,,,,,,,,,,,,,,,,,,
643adb4a213b87bfc7e21e3f,TCN,2024-06-21_13h47.35.936,LearnStrategy,2023.2.3,Linux x86_64,59.88023952,,,,,,,,,,,6,07,3,6,,,,,,,,,,,,,,,,,,,,,,,,,,,,,
643adb4a213b87bfc7e21e3f,TCN,2024-06-21_13h47.35.936,LearnStrategy,2023.2.3,Linux x86_64,59.88023952,,,,,,,,,,,3,07,3,7,,,,,,,,,,,,,,,,,,,,,,,,,,,,,
643adb4a213b87bfc7e21e3f,TCN,2024-06-21_13h47.35.936,LearnStrategy,2023.2.3,Linux x86_64,59.88023952,,,,,,,,,,,6,10,3,8,,,,,,,,,,,,,,,,,,,,,,,,,,,,,
643adb4a213b87bfc7e21e3f,TCN,2024-06-21_13h47.35.936,LearnStrategy,2023.2.3,Linux x86_64,59.88023952,,,,,,,,,,,3,14,4,1,,,,,,,,,,,,,,,,,,,,,,,,,,,,,
643adb4a213b87bfc7e21e3f,TCN,2024-06-21_13h47.35.936,LearnStrategy,2023.2.3,Linux x86_64,59.88023952,,,,,,,,,,,1,02,4,2,,,,,,,,,,,,,,,,,,,,,,,,,,,,,
643adb4a213b87bfc7e21e3f,TCN,2024-06-21_13h47.35.936,LearnStrategy,2023.2.3,Linux x86_64,59.88023952,,,,,,,,,,,7,13,4,3,,,,,,,,,,,,,,,,,,,,,,,,,,,,,
643adb4a213b87bfc7e21e3f,TCN,2024-06-21_13h47.35.936,LearnStrategy,2023.2.3,Linux x86_64,59.88023952,,,,,,,,,,,7,04,4,4,,,,,,,,,,,,,,,,,,,,,,,,,,,,,
643adb4a213b87bfc7e21e3f,TCN,2024-06-21_13h47.35.936,LearnStrategy,2023.2.3,Linux x86_64,59.88023952,,,,,,,,,,,3,12,4,5,,,,,,,,,,,,,,,,,,,,,,,,,,,,,
643adb4a213b87bfc7e21e3f,TCN,2024-06-21_13h47.35.936,LearnStrategy,2023.2.3,Linux x86_64,59.88023952,,,,,,,,,,,8,09,4,6,,,,,,,,,,,,,,,,,,,,,,,,,,,,,
643adb4a213b87bfc7e21e3f,TCN,2024-06-21_13h47.35.936,LearnStrategy,2023.2.3,Linux x86_64,59.88023952,,,,,,,,,,,7,14,4,7,,,,,,,,,,,,,,,,,,,,,,,,,,,,,
643adb4a213b87bfc7e21e3f,TCN,2024-06-21_13h47.35.936,LearnStrategy,2023.2.3,Linux x86_64,59.88023952,,,,,,,,,,,1,11,4,8,,,,,,,,,,,,,,,,,,,,,,,,,,,,,
643adb4a213b87bfc7e21e3f,TCN,2024-06-21_13h47.35.936,LearnStrategy,2023.2.3,Linux x86_64,59.88023952,,,,,,,,,,,8,10,5,1,,,,,,,,,,,,,,,,,,,,,,,,,,,,,
643adb4a213b87bfc7e21e3f,TCN,2024-06-21_13h47.35.936,LearnStrategy,2023.2.3,Linux x86_64,59.88023952,,,,,,,,,,,6,15,5,2,,,,,,,,,,,,,,,,,,,,,,,,,,,,,
643adb4a213b87bfc7e21e3f,TCN,2024-06-21_13h47.35.936,LearnStrategy,2023.2.3,Linux x86_64,59.88023952,,,,,,,,,,,4,16,5,3,,,,,,,,,,,,,,,,,,,,,,,,,,,,,
643adb4a213b87bfc7e21e3f,TCN,2024-06-21_13h47.35.936,LearnStrategy,2023.2.3,Linux x86_64,59.88023952,,,,,,,,,,,2,10,5,4,,,,,,,,,,,,,,,,,,,,,,,,,,,,,
643adb4a213b87bfc7e21e3f,TCN,2024-06-21_13h47.35.936,LearnStrategy,2023.2.3,Linux x86_64,59.88023952,,,,,,,,,,,4,05,5,5,,,,,,,,,,,,,,,,,,,,,,,,,,,,,
643adb4a213b87bfc7e21e3f,TCN,2024-06-21_13h47.35.936,LearnStrategy,2023.2.3,Linux x86_64,59.88023952,,,,,,,,,,,2,16,5,6,,,,,,,,,,,,,,,,,,,,,,,,,,,,,
643adb4a213b87bfc7e21e3f,TCN,2024-06-21_13h47.35.936,LearnStrategy,2023.2.3,Linux x86_64,59.88023952,,,,,,,,,,,8,13,5,7,,,,,,,,,,,,,,,,,,,,,,,,,,,,,
643adb4a213b87bfc7e21e3f,TCN,2024-06-21_13h47.35.936,LearnStrategy,2023.2.3,Linux x86_64,59.88023952,,,,,,,,,,,3,09,5,8,,,,,,,,,,,,,,,,,,,,,,,,,,,,,
643adb4a213b87bfc7e21e3f,TCN,2024-06-21_13h47.35.936,LearnStrategy,2023.2.3,Linux x86_64,59.88023952,,,,,,,,,,,7,06,6,1,,,,,,,,,,,,,,,,,,,,,,,,,,,,,
643adb4a213b87bfc7e21e3f,TCN,2024-06-21_13h47.35.936,LearnStrategy,2023.2.3,Linux x86_64,59.88023952,,,,,,,,,,,2,06,6,2,,,,,,,,,,,,,,,,,,,,,,,,,,,,,
643adb4a213b87bfc7e21e3f,TCN,2024-06-21_13h47.35.936,LearnStrategy,2023.2.3,Linux x86_64,59.88023952,,,,,,,,,,,7,16,6,3,,,,,,,,,,,,,,,,,,,,,,,,,,,,,
643adb4a213b87bfc7e21e3f,TCN,2024-06-21_13h47.35.936,LearnStrategy,2023.2.3,Linux x86_64,59.88023952,,,,,,,,,,,6,12,6,4,,,,,,,,,,,,,,,,,,,,,,,,,,,,,
643adb4a213b87bfc7e21e3f,TCN,2024-06-21_13h47.35.936,LearnStrategy,2023.2.3,Linux x86_64,59.88023952,,,,,,,,,,,6,05,6,5,,,,,,,,,,,,,,,,,,,,,,,,,,,,,
643adb4a213b87bfc7e21e3f,TCN,2024-06-21_13h47.35.936,LearnStrategy,2023.2.3,Linux x86_64,59.88023952,,,,,,,,,,,4,14,6,6,,,,,,,,,,,,,,,,,,,,,,,,,,,,,
643adb4a213b87bfc7e21e3f,TCN,2024-06-21_13h47.35.936,LearnStrategy,2023.2.3,Linux x86_64,59.88023952,,,,,,,,,,,5,02,6,7,,,,,,,,,,,,,,,,,,,,,,,,,,,,,
643adb4a213b87bfc7e21e3f,TCN,2024-06-21_13h47.35.936,LearnStrategy,2023.2.3,Linux x86_64,59.88023952,,,,,,,,,,,1,16,6,8,,,,,,,,,,,,,,,,,,,,,,,,,,,,,