participant,condition,date,expName,psychopyVersion,OS,frameRate,block,phase,trial,learn_mouse.x,learn_mouse.y,learn_mouse.leftButton,learn_mouse.midButton,learn_mouse.rightButton,learn_mouse.time,learn_mouse.clicked_name,cat,token,row,col,t_select,cat_rec,token_rec,cat_mouse_l.x,cat_mouse_l.y,cat_mouse_l.leftButton,cat_mouse_l.midButton,cat_mouse_l.rightButton,cat_mouse_l.time,cat_mouse_l.clicked_name,resp,t_resp,corr,train_trials.thisRepN,train_trials.thisTrialN,train_trials.thisN,train_trials.thisIndex,train_trials.ran,cat_mouse_t.x,cat_mouse_t.y,cat_mouse_t.leftButton,cat_mouse_t.midButton,cat_mouse_t.rightButton,cat_mouse_t.time,cat_mouse_t.clicked_name,test_trials.thisRepN,test_trials.thisTrialN,test_trials.thisN,test_trials.thisIndex,test_trials.ran,Bonus
64441dd1c4c3ae59c00e4685,SCR,2024-06-21_17h50.09.871,LearnStrategy,2023.2.3,Win32,60.60606061,,,,,,,,,,,,,,,,,,,,,,,,,,,,,,,,,,,,,,,,,,,,,
64441dd1c4c3ae59c00e4685,SCR,2024-06-21_17h50.09.871,LearnStrategy,2023.2.3,Win32,60.60606061,1,1,1,-0.072916667,-0.084635417,1,0,0,15.6145,Andesite_16,1,16,3,4,15.614,3,11,0.122395833,-0.239583333,1,0,0,150.6716,Diorite_rect,3,150.672,0,0,0,0,0,1,,,,,,,,,,,,,
64441dd1c4c3ae59c00e4685,SCR,2024-06-21_17h50.09.871,LearnStrategy,2023.2.3,Win32,60.60606061,1,1,2,0.23828125,0.41796875,1,0,0,98.9529,Peridotite_14,7,14,6,6,98.953,6,05,0.3828125,-0.233072917,1,0,0,5.1249,Gabbro_rect,4,5.125,0,1,0,1,0,1,,,,,,,,,,,,,
64441dd1c4c3ae59c00e4685,SCR,2024-06-21_17h50.09.871,LearnStrategy,2023.2.3,Win32,60.60606061,1,1,3,-0.390625,-0.251302083,1,0,0,32.0684,Diorite_08,3,08,2,2,32.068,2,12,0.122395833,-0.243489583,1,0,0,12.2224,Diorite_rect,3,12.222,1,2,0,2,0,1,,,,,,,,,,,,,
64441dd1c4c3ae59c00e4685,SCR,2024-06-21_17h50.09.871,LearnStrategy,2023.2.3,Win32,60.60606061,1,1,4,-0.234375,0.096354167,1,0,0,79.333,Gabbro_03,4,03,4,3,79.333,4,08,0.390625,-0.234375,1,0,0,45.4681,Gabbro_rect,4,45.468,1,3,0,3,0,1,,,,,,,,,,,,,
64441dd1c4c3ae59c00e4685,SCR,2024-06-21_17h50.09.871,LearnStrategy,2023.2.3,Win32,60.60606061,1,1,5,-0.235677083,-0.106770833,1,0,0,11.8147,Diorite_15,3,15,3,3,11.815,7,07,0.369791667,-0.407552083,1,0,0,5.8363,Pumice_rect,8,5.836,0,4,0,4,0,1,,,,,,,,,,,,,
64441dd1c4c3ae59c00e4685,SCR,2024-06-21_17h50.09.871,LearnStrategy,2023.2.3,Win32,60.60606061,1,1,6,0.239583333,0.39453125,1,0,0,173.9094,Peridotite_14,7,14,6,6,173.909,2,02,-0.139322917,-0.404947917,1,0,0,40.9048,Pegmatite_rect,6,40.905,0,5,0,5,0,1,,,,,,,,,,,,,
64441dd1c4c3ae59c00e4685,SCR,2024-06-21_17h50.09.871,LearnStrategy,2023.2.3,Win32,60.60606061,1,1,7,0.544270833,-0.24609375,1,0,0,15.2819,Andesite_02,1,02,2,8,15.282,6,06,0.358072917,-0.393229167,1,0,0,18.1606,Pumice_rect,8,18.161,0,6,0,6,0,1,,,,,,,,,,,,,
64441dd1c4c3ae59c00e4685,SCR,2024-06-21_17h50.09.871,LearnStrategy,2023.2.3,Win32,60.60606061,1,1,8,-0.403645833,-0.243489583,1,0,0,6.8661,Diorite_08,3,08,2,2,6.866,5,05,0.125,-0.23046875,1,0,0,17.0825,Diorite_rect,3,17.082,1,7,0,7,0,1,,,,,,,,,,,,,
64441dd1c4c3ae59c00e4685,SCR,2024-06-21_17h50.09.871,LearnStrategy,2023.2.3,Win32,60.60606061,1,1,9,-0.388020833,-0.248697917,1,0,0,8.1981,Diorite_08,3,08,2,2,8.198,8,16,0.151041667,-0.239583333,1,0,0,3.8026,Diorite_rect,3,3.803,1,8,0,8,0,1,,,,,,,,,,,,,
64441dd1c4c3ae59c00e4685,SCR,2024-06-21_17h50.09.871,LearnStrategy,2023.2.3,Win32,60.60606061,1,1,10,-0.240885417,0.115885417,1,0,0,13.0147,Gabbro_03,4,03,4,3,13.015,1,10,0.37890625,-0.2421875,1,0,0,3.8423,Gabbro_rect,4,3.842,1,9,0,9,0,1,,,,,,,,,,,,,
64441dd1c4c3ae59c00e4685,SCR,2024-06-21_17h50.09.871,LearnStrategy,2023.2.3,Win32,60.60606061,1,1,11,-0.235677083,0.091145833,1,0,0,20.334,Gabbro_03,4,03,4,3,20.334,5,02,0.3984375,-0.233072917,1,0,0,1.2727,Gabbro_rect,4,1.273,1,10,0,10,0,1,,,,,,,,,,,,,
64441dd1c4c3ae59c00e4685,SCR,2024-06-21_17h50.09.871,LearnStrategy,2023.2.3,Win32,60.60606061,1,1,12,-0.40234375,-0.263020833,1,0,0,1.0523,Diorite_08,3,08,2,2,1.052,3,07,0.14453125,-0.236979167,1,0,0,2.6122,Diorite_rect,3,2.612,1,11,0,11,0,1,,,,,,,,,,,,,
64441dd1c4c3ae59c00e4685,SCR,2024-06-21_17h50.09.871,LearnStrategy,2023.2.3,Win32,60.60606061,1,1,13,-0.239583333,0.098958333,1,0,0,0.9996,Gabbro_03,4,03,4,3,1,1,16,0.389322917,-0.236979167,1,0,0,2.7127,Gabbro_rect,4,2.713,1,12,0,12,0,1,,,,,,,,,,,,,
64441dd1c4c3ae59c00e4685,SCR,2024-06-21_17h50.09.871,LearnStrategy,2023.2.3,Win32,60.60606061,1,1,14,-0.39453125,-0.24609375,1,0,0,0.8834,Diorite_08,3,08,2,2,0.883,8,05,0.14453125,-0.243489583,1,0,0,0.8628,Diorite_rect,3,0.863,1,13,0,13,0,1,,,,,,,,,,,,,
64441dd1c4c3ae59c00e4685,SCR,2024-06-21_17h50.09.871,LearnStrategy,2023.2.3,Win32,60.60606061,1,1,15,0.083333333,0.26953125,1,0,0,4.9011,Peridotite_06,7,06,5,5,4.901,7,06,-0.416666667,-0.3984375,1,0,0,4.123,Obsidian_rect,5,4.123,0,14,0,14,0,1,,,,,,,,,,,,,
64441dd1c4c3ae59c00e4685,SCR,2024-06-21_17h50.09.871,LearnStrategy,2023.2.3,Win32,60.60606061,1,1,16,-0.256510417,-0.404947917,1,0,0,3.4492,Gabbro_13,4,13,1,3,3.449,4,13,-0.393229167,-0.399739583,1,0,0,12.7726,Obsidian_rect,5,12.773,0,15,0,15,0,1,,,,,,,,,,,,,
64441dd1c4c3ae59c00e4685,SCR,2024-06-21_17h50.09.871,LearnStrategy,2023.2.3,Win32,60.60606061,1,2,1,,,,,,,,5,11,,,,,,,,,,,,,5,37.539,1,,,,,,-0.403645833,-0.41796875,1,0,0,37.5386,Obsidian_rect,0,0,0,0,1,
64441dd1c4c3ae59c00e4685,SCR,2024-06-21_17h50.09.871,LearnStrategy,2023.2.3,Win32,60.60606061,1,2,2,,,,,,,,8,15,,,,,,,,,,,,,8,16.789,1,,,,,,0.3359375,-0.388020833,1,0,0,16.7885,Pumice_rect,1,0,1,0,1,
64441dd1c4c3ae59c00e4685,SCR,2024-06-21_17h50.09.871,LearnStrategy,2023.2.3,Win32,60.60606061,1,2,3,,,,,,,,2,08,,,,,,,,,,,,,2,5.671,1,,,,,,-0.151041667,-0.240885417,1,0,0,5.6712,Basalt_rect,2,0,2,0,1,
64441dd1c4c3ae59c00e4685,SCR,2024-06-21_17h50.09.871,LearnStrategy,2023.2.3,Win32,60.60606061,1,2,4,,,,,,,,8,13,,,,,,,,,,,,,8,7.388,1,,,,,,0.35546875,-0.397135417,1,0,0,7.3881,Pumice_rect,3,0,3,0,1,
64441dd1c4c3ae59c00e4685,SCR,2024-06-21_17h50.09.871,LearnStrategy,2023.2.3,Win32,60.60606061,1,2,5,,,,,,,,5,12,,,,,,,,,,,,,5,7.487,1,,,,,,-0.416666667,-0.401041667,1,0,0,7.487,Obsidian_rect,4,0,4,0,1,
64441dd1c4c3ae59c00e4685,SCR,2024-06-21_17h50.09.871,LearnStrategy,2023.2.3,Win32,60.60606061,1,2,6,,,,,,,,4,05,,,,,,,,,,,,,4,8.954,1,,,,,,0.368489583,-0.256510417,1,0,0,8.9543,Gabbro_rect,5,0,5,0,1,
64441dd1c4c3ae59c00e4685,SCR,2024-06-21_17h50.09.871,LearnStrategy,2023.2.3,Win32,60.60606061,1,2,7,,,,,,,,3,06,,,,,,,,,,,,,3,3.837,1,,,,,,0.119791667,-0.244791667,1,0,0,3.8372,Diorite_rect,6,0,6,0,1,
64441dd1c4c3ae59c00e4685,SCR,2024-06-21_17h50.09.871,LearnStrategy,2023.2.3,Win32,60.60606061,1,2,8,,,,,,,,2,01,,,,,,,,,,,,,2,5.637,1,,,,,,-0.162760417,-0.24609375,1,0,0,5.6373,Basalt_rect,7,0,7,0,1,
64441dd1c4c3ae59c00e4685,SCR,2024-06-21_17h50.09.871,LearnStrategy,2023.2.3,Win32,60.60606061,1,2,9,,,,,,,,6,11,,,,,,,,,,,,,7,11.855,0,,,,,,0.1015625,-0.411458333,1,0,0,11.8553,Peridotite_rect,8,0,8,0,1,
64441dd1c4c3ae59c00e4685,SCR,2024-06-21_17h50.09.871,LearnStrategy,2023.2.3,Win32,60.60606061,1,2,10,,,,,,,,4,01,,,,,,,,,,,,,3,9.088,0,,,,,,0.119791667,-0.24609375,1,0,0,9.0884,Diorite_rect,9,0,9,0,1,
64441dd1c4c3ae59c00e4685,SCR,2024-06-21_17h50.09.871,LearnStrategy,2023.2.3,Win32,60.60606061,1,2,11,,,,,,,,7,16,,,,,,,,,,,,,4,2.669,0,,,,,,0.380208333,-0.236979167,1,0,0,2.6693,Gabbro_rect,10,0,10,0,1,
64441dd1c4c3ae59c00e4685,SCR,2024-06-21_17h50.09.871,LearnStrategy,2023.2.3,Win32,60.60606061,1,2,12,,,,,,,,7,08,,,,,,,,,,,,,3,4.137,0,,,,,,0.151041667,-0.25,1,0,0,4.1369,Diorite_rect,11,0,11,0,1,
64441dd1c4c3ae59c00e4685,SCR,2024-06-21_17h50.09.871,LearnStrategy,2023.2.3,Win32,60.60606061,1,2,13,,,,,,,,6,12,,,,,,,,,,,,,3,6.754,0,,,,,,0.125,-0.23828125,1,0,0,6.7542,Diorite_rect,12,0,12,0,1,
64441dd1c4c3ae59c00e4685,SCR,2024-06-21_17h50.09.871,LearnStrategy,2023.2.3,Win32,60.60606061,1,2,14,,,,,,,,3,10,,,,,,,,,,,,,4,97.878,0,,,,,,0.35546875,-0.255208333,1,0,0,97.878,Gabbro_rect,13,0,13,0,1,
64441dd1c4c3ae59c00e4685,SCR,2024-06-21_17h50.09.871,LearnStrategy,2023.2.3,Win32,60.60606061,1,2,15,,,,,,,,1,06,,,,,,,,,,,,,7,12.155,0,,,,,,0.100260417,-0.420572917,1,0,0,12.1554,Peridotite_rect,14,0,14,0,1,
64441dd1c4c3ae59c00e4685,SCR,2024-06-21_17h50.09.871,LearnStrategy,2023.2.3,Win32,60.60606061,1,2,16,,,,,,,,1,07,,,,,,,,,,,,,4,4.987,0,,,,,,0.346354167,-0.23828125,1,0,0,4.9873,Gabbro_rect,15,0,15,0,1,
64441dd1c4c3ae59c00e4685,SCR,2024-06-21_17h50.09.871,LearnStrategy,2023.2.3,Win32,60.60606061,2,1,1,-0.397135417,-0.255208333,1,0,0,8.0035,Diorite_08,3,08,2,2,8.004,3,15,0.12890625,-0.244791667,1,0,0,1.9881,Diorite_rect,3,1.988,1,0,0,0,0,1,,,,,,,,,,,,,
64441dd1c4c3ae59c00e4685,SCR,2024-06-21_17h50.09.871,LearnStrategy,2023.2.3,Win32,60.60606061,2,1,2,-0.243489583,0.10546875,1,0,0,1.6931,Gabbro_03,4,03,4,3,1.693,7,14,0.37890625,-0.240885417,1,0,0,2.6115,Gabbro_rect,4,2.611,1,1,0,1,0,1,,,,,,,,,,,,,
64441dd1c4c3ae59c00e4685,SCR,2024-06-21_17h50.09.871,LearnStrategy,2023.2.3,Win32,60.60606061,2,1,3,0.376302083,0.265625,1,0,0,17.337,Obsidian_10,5,10,5,7,17.337,7,07,-0.157552083,-0.236979167,1,0,0,3.9891,Basalt_rect,2,3.989,0,2,0,2,0,1,,,,,,,,,,,,,
64441dd1c4c3ae59c00e4685,SCR,2024-06-21_17h50.09.871,LearnStrategy,2023.2.3,Win32,60.60606061,2,1,4,0.061197917,-0.25,1,0,0,1.8508,Pumice_05,8,05,2,5,1.851,7,06,-0.390625,-0.234375,1,0,0,3.8617,Andesite_rect,1,3.862,0,3,0,3,0,1,,,,,,,,,,,,,
64441dd1c4c3ae59c00e4685,SCR,2024-06-21_17h50.09.871,LearnStrategy,2023.2.3,Win32,60.60606061,2,1,5,-0.084635417,-0.108072917,1,0,0,6.0267,Andesite_16,1,16,3,4,6.027,3,12,0.389322917,-0.252604167,1,0,0,5.9052,Gabbro_rect,4,5.905,0,4,0,4,0,1,,,,,,,,,,,,,
64441dd1c4c3ae59c00e4685,SCR,2024-06-21_17h50.09.871,LearnStrategy,2023.2.3,Win32,60.60606061,2,1,6,-0.393229167,-0.234375,1,0,0,3.1008,Diorite_08,3,08,2,2,3.101,6,07,0.131510417,-0.240885417,1,0,0,1.3884,Diorite_rect,3,1.388,1,5,0,5,0,1,,,,,,,,,,,,,
64441dd1c4c3ae59c00e4685,SCR,2024-06-21_17h50.09.871,LearnStrategy,2023.2.3,Win32,60.60606061,2,1,7,-0.243489583,0.1171875,1,0,0,1.7675,Gabbro_03,4,03,4,3,1.767,4,03,0.397135417,-0.248697917,1,0,0,0.9954,Gabbro_rect,4,0.995,1,6,0,6,0,1,,,,,,,,,,,,,
64441dd1c4c3ae59c00e4685,SCR,2024-06-21_17h50.09.871,LearnStrategy,2023.2.3,Win32,60.60606061,2,1,8,0.381510417,0.25390625,1,0,0,17.3023,Obsidian_10,5,10,5,7,17.302,4,11,0.373697917,-0.404947917,1,0,0,4.9053,Pumice_rect,8,4.905,0,7,0,7,0,1,,,,,,,,,,,,,
64441dd1c4c3ae59c00e4685,SCR,2024-06-21_17h50.09.871,LearnStrategy,2023.2.3,Win32,60.60606061,2,1,9,-0.549479167,0.1015625,1,0,0,2.3345,Andesite_09,1,09,4,1,2.334,1,10,-0.134114583,-0.255208333,1,0,0,5.4953,Basalt_rect,2,5.495,0,8,0,8,0,1,,,,,,,,,,,,,
64441dd1c4c3ae59c00e4685,SCR,2024-06-21_17h50.09.871,LearnStrategy,2023.2.3,Win32,60.60606061,2,1,10,-0.5859375,-0.088541667,1,0,0,7.0831,Pumice_04,8,04,3,1,7.083,6,08,0.346354167,-0.404947917,1,0,0,7.9059,Pumice_rect,8,7.906,1,9,0,9,0,1,,,,,,,,,,,,,
64441dd1c4c3ae59c00e4685,SCR,2024-06-21_17h50.09.871,LearnStrategy,2023.2.3,Win32,60.60606061,2,1,11,0.380208333,0.23828125,1,0,0,5.1664,Obsidian_10,5,10,5,7,5.166,1,16,-0.419270833,-0.393229167,1,0,0,14.5742,Obsidian_rect,5,14.574,1,10,0,10,0,1,,,,,,,,,,,,,
64441dd1c4c3ae59c00e4685,SCR,2024-06-21_17h50.09.871,LearnStrategy,2023.2.3,Win32,60.60606061,2,1,12,-0.5703125,-0.084635417,1,0,0,5.4506,Pumice_04,8,04,3,1,5.451,7,06,0.348958333,-0.40234375,1,0,0,19.7225,Pumice_rect,8,19.722,1,11,0,11,0,1,,,,,,,,,,,,,
64441dd1c4c3ae59c00e4685,SCR,2024-06-21_17h50.09.871,LearnStrategy,2023.2.3,Win32,60.60606061,2,1,13,-0.243489583,0.114583333,1,0,0,6.2358,Gabbro_03,4,03,4,3,6.236,4,16,0.375,-0.248697917,1,0,0,16.0079,Gabbro_rect,4,16.008,1,12,0,12,0,1,,,,,,,,,,,,,
64441dd1c4c3ae59c00e4685,SCR,2024-06-21_17h50.09.871,LearnStrategy,2023.2.3,Win32,60.60606061,2,1,14,-0.544270833,0.109375,1,0,0,12.5523,Andesite_09,1,09,4,1,12.552,3,15,-0.42578125,-0.251302083,1,0,0,16.239,Andesite_rect,1,16.239,1,13,0,13,0,1,,,,,,,,,,,,,
64441dd1c4c3ae59c00e4685,SCR,2024-06-21_17h50.09.871,LearnStrategy,2023.2.3,Win32,60.60606061,2,1,15,-0.2421875,0.102864583,1,0,0,6.1188,Gabbro_03,4,03,4,3,6.119,6,13,0.361979167,-0.239583333,1,0,0,1.7499,Gabbro_rect,4,1.75,1,14,0,14,0,1,,,,,,,,,,,,,
64441dd1c4c3ae59c00e4685,SCR,2024-06-21_17h50.09.871,LearnStrategy,2023.2.3,Win32,60.60606061,2,1,16,-0.416666667,-0.233072917,1,0,0,1.0145,Diorite_08,3,08,2,2,1.014,1,02,0.138020833,-0.236979167,1,0,0,0.8771,Diorite_rect,3,0.877,1,15,0,15,0,1,,,,,,,,,,,,,
64441dd1c4c3ae59c00e4685,SCR,2024-06-21_17h50.09.871,LearnStrategy,2023.2.3,Win32,60.60606061,2,2,1,,,,,,,,1,14,,,,,,,,,,,,,1,13.588,1,,,,,,-0.424479167,-0.2578125,1,0,0,13.5882,Andesite_rect,0,0,0,0,1,
64441dd1c4c3ae59c00e4685,SCR,2024-06-21_17h50.09.871,LearnStrategy,2023.2.3,Win32,60.60606061,2,2,2,,,,,,,,2,09,,,,,,,,,,,,,1,20.538,0,,,,,,-0.424479167,-0.2578125,1,0,0,20.5385,Andesite_rect,1,0,1,0,1,
64441dd1c4c3ae59c00e4685,SCR,2024-06-21_17h50.09.871,LearnStrategy,2023.2.3,Win32,60.60606061,2,2,3,,,,,,,,7,05,,,,,,,,,,,,,1,1.995,0,,,,,,-0.412760417,-0.2421875,1,0,0,1.9945,Andesite_rect,2,0,2,0,1,
64441dd1c4c3ae59c00e4685,SCR,2024-06-21_17h50.09.871,LearnStrategy,2023.2.3,Win32,60.60606061,2,2,4,,,,,,,,4,12,,,,,,,,,,,,,1,2.721,0,,,,,,-0.412760417,-0.2421875,1,0,0,2.7205,Andesite_rect,3,0,3,0,1,
64441dd1c4c3ae59c00e4685,SCR,2024-06-21_17h50.09.871,LearnStrategy,2023.2.3,Win32,60.60606061,2,2,5,,,,,,,,8,08,,,,,,,,,,,,,8,13.389,1,,,,,,0.348958333,-0.419270833,1,0,0,13.3889,Pumice_rect,4,0,4,0,1,
64441dd1c4c3ae59c00e4685,SCR,2024-06-21_17h50.09.871,LearnStrategy,2023.2.3,Win32,60.60606061,2,2,6,,,,,,,,5,14,,,,,,,,,,,,,5,11.927,1,,,,,,-0.397135417,-0.3984375,1,0,0,11.9266,Obsidian_rect,5,0,5,0,1,
64441dd1c4c3ae59c00e4685,SCR,2024-06-21_17h50.09.871,LearnStrategy,2023.2.3,Win32,60.60606061,2,2,7,,,,,,,,6,10,,,,,,,,,,,,,3,45.641,0,,,,,,0.10546875,-0.255208333,1,0,0,45.6407,Diorite_rect,6,0,6,0,1,
64441dd1c4c3ae59c00e4685,SCR,2024-06-21_17h50.09.871,LearnStrategy,2023.2.3,Win32,60.60606061,2,2,8,,,,,,,,7,02,,,,,,,,,,,,,4,3.772,0,,,,,,0.389322917,-0.259114583,1,0,0,3.7721,Gabbro_rect,7,0,7,0,1,
64441dd1c4c3ae59c00e4685,SCR,2024-06-21_17h50.09.871,LearnStrategy,2023.2.3,Win32,60.60606061,2,2,9,,,,,,,,4,09,,,,,,,,,,,,,1,4.987,0,,,,,,-0.390625,-0.239583333,1,0,0,4.9869,Andesite_rect,8,0,8,0,1,
64441dd1c4c3ae59c00e4685,SCR,2024-06-21_17h50.09.871,LearnStrategy,2023.2.3,Win32,60.60606061,2,2,10,,,,,,,,5,06,,,,,,,,,,,,,3,3.921,0,,,,,,0.158854167,-0.256510417,1,0,0,3.9212,Diorite_rect,9,0,9,0,1,
64441dd1c4c3ae59c00e4685,SCR,2024-06-21_17h50.09.871,LearnStrategy,2023.2.3,Win32,60.60606061,2,2,11,,,,,,,,2,06,,,,,,,,,,,,,1,1.771,0,,,,,,-0.421875,-0.252604167,1,0,0,1.7708,Andesite_rect,10,0,10,0,1,
64441dd1c4c3ae59c00e4685,SCR,2024-06-21_17h50.09.871,LearnStrategy,2023.2.3,Win32,60.60606061,2,2,12,,,,,,,,6,03,,,,,,,,,,,,,7,4.624,0,,,,,,0.131510417,-0.421875,1,0,0,4.6236,Peridotite_rect,11,0,11,0,1,
64441dd1c4c3ae59c00e4685,SCR,2024-06-21_17h50.09.871,LearnStrategy,2023.2.3,Win32,60.60606061,2,2,13,,,,,,,,8,10,,,,,,,,,,,,,5,11.505,0,,,,,,-0.3984375,-0.416666667,1,0,0,11.5054,Obsidian_rect,12,0,12,0,1,
64441dd1c4c3ae59c00e4685,SCR,2024-06-21_17h50.09.871,LearnStrategy,2023.2.3,Win32,60.60606061,2,2,14,,,,,,,,3,14,,,,,,,,,,,,,3,1.871,1,,,,,,0.10546875,-0.256510417,1,0,0,1.8708,Diorite_rect,13,0,13,0,1,
64441dd1c4c3ae59c00e4685,SCR,2024-06-21_17h50.09.871,LearnStrategy,2023.2.3,Win32,60.60606061,2,2,15,,,,,,,,1,05,,,,,,,,,,,,,4,2.155,0,,,,,,0.368489583,-0.270833333,1,0,0,2.1547,Gabbro_rect,14,0,14,0,1,
64441dd1c4c3ae59c00e4685,SCR,2024-06-21_17h50.09.871,LearnStrategy,2023.2.3,Win32,60.60606061,2,2,16,,,,,,,,3,09,,,,,,,,,,,,,3,2.505,1,,,,,,0.118489583,-0.23828125,1,0,0,2.5053,Diorite_rect,15,0,15,0,1,
64441dd1c4c3ae59c00e4685,SCR,2024-06-21_17h50.09.871,LearnStrategy,2023.2.3,Win32,60.60606061,3,1,1,-0.404947917,-0.25390625,1,0,0,87.4017,Diorite_08,3,08,2,2,87.402,4,16,0.125,-0.233072917,1,0,0,1.452,Diorite_rect,3,1.452,1,0,0,0,0,1,,,,,,,,,,,,,
64441dd1c4c3ae59c00e4685,SCR,2024-06-21_17h50.09.871,LearnStrategy,2023.2.3,Win32,60.60606061,3,1,2,-0.255208333,0.08984375,1,0,0,0.8813,Gabbro_03,4,03,4,3,0.881,3,13,0.37109375,-0.2421875,1,0,0,0.8767,Gabbro_rect,4,0.877,1,1,0,1,0,1,,,,,,,,,,,,,
64441dd1c4c3ae59c00e4685,SCR,2024-06-21_17h50.09.871,LearnStrategy,2023.2.3,Win32,60.60606061,3,1,3,0.216145833,0.23828125,1,0,0,0.9986,Obsidian_02,5,02,5,6,0.999,4,13,0.377604167,-0.411458333,1,0,0,26.712,Pumice_rect,8,26.712,0,2,0,2,0,1,,,,,,,,,,,,,
64441dd1c4c3ae59c00e4685,SCR,2024-06-21_17h50.09.871,LearnStrategy,2023.2.3,Win32,60.60606061,3,1,4,-0.389322917,-0.252604167,1,0,0,9.5489,Diorite_08,3,08,2,2,9.549,8,16,0.138020833,-0.235677083,1,0,0,0.7673,Diorite_rect,3,0.767,1,3,0,3,0,1,,,,,,,,,,,,,
64441dd1c4c3ae59c00e4685,SCR,2024-06-21_17h50.09.871,LearnStrategy,2023.2.3,Win32,60.60606061,3,1,5,-0.088541667,-0.420572917,1,0,0,8.2592,Obsidian_05,5,05,1,4,8.259,1,11,-0.407552083,-0.248697917,1,0,0,1.618,Andesite_rect,1,1.618,0,4,0,4,0,1,,,,,,,,,,,,,
64441dd1c4c3ae59c00e4685,SCR,2024-06-21_17h50.09.871,LearnStrategy,2023.2.3,Win32,60.60606061,3,1,6,0.083333333,-0.096354167,1,0,0,1.0977,Peridotite_15,7,15,3,5,1.098,6,06,0.1171875,-0.229166667,1,0,0,1.3273,Diorite_rect,3,1.327,0,5,0,5,0,1,,,,,,,,,,,,,
64441dd1c4c3ae59c00e4685,SCR,2024-06-21_17h50.09.871,LearnStrategy,2023.2.3,Win32,60.60606061,3,1,7,-0.23046875,0.098958333,1,0,0,3.7647,Gabbro_03,4,03,4,3,3.765,7,15,0.381510417,-0.233072917,1,0,0,0.8529,Gabbro_rect,4,0.853,1,6,0,6,0,1,,,,,,,,,,,,,
64441dd1c4c3ae59c00e4685,SCR,2024-06-21_17h50.09.871,LearnStrategy,2023.2.3,Win32,60.60606061,3,1,8,0.05859375,-0.259114583,1,0,0,19.9325,Pumice_05,8,05,2,5,19.932,5,02,0.348958333,-0.390625,1,0,0,19.8214,Pumice_rect,8,19.821,1,7,0,7,0,1,,,,,,,,,,,,,
64441dd1c4c3ae59c00e4685,SCR,2024-06-21_17h50.09.871,LearnStrategy,2023.2.3,Win32,60.60606061,3,1,9,-0.236979167,0.100260417,1,0,0,4.915,Gabbro_03,4,03,4,3,4.915,7,06,0.391927083,-0.252604167,1,0,0,1.4366,Gabbro_rect,4,1.437,1,8,0,8,0,1,,,,,,,,,,,,,
64441dd1c4c3ae59c00e4685,SCR,2024-06-21_17h50.09.871,LearnStrategy,2023.2.3,Win32,60.60606061,3,1,10,-0.404947917,-0.248697917,1,0,0,0.9813,Diorite_08,3,08,2,2,0.981,2,02,0.143229167,-0.2421875,1,0,0,0.6266,Diorite_rect,3,0.627,1,9,0,9,0,1,,,,,,,,,,,,,
64441dd1c4c3ae59c00e4685,SCR,2024-06-21_17h50.09.871,LearnStrategy,2023.2.3,Win32,60.60606061,3,1,11,0.231770833,0.236979167,1,0,0,4.7146,Obsidian_02,5,02,5,6,4.715,1,04,-0.41015625,-0.40625,1,0,0,0.9727,Obsidian_rect,5,0.973,1,10,0,10,0,1,,,,,,,,,,,,,
64441dd1c4c3ae59c00e4685,SCR,2024-06-21_17h50.09.871,LearnStrategy,2023.2.3,Win32,60.60606061,3,1,12,-0.548177083,-0.098958333,1,0,0,19.493,Pumice_04,8,04,3,1,19.493,6,08,-0.401041667,-0.399739583,1,0,0,1.9365,Obsidian_rect,5,1.937,0,11,0,11,0,1,,,,,,,,,,,,,
64441dd1c4c3ae59c00e4685,SCR,2024-06-21_17h50.09.871,LearnStrategy,2023.2.3,Win32,60.60606061,3,1,13,0.39453125,0.239583333,1,0,0,3.5819,Obsidian_10,5,10,5,7,3.582,4,03,-0.408854167,-0.411458333,1,0,0,3.3601,Obsidian_rect,5,3.36,1,12,0,12,0,1,,,,,,,,,,,,,
64441dd1c4c3ae59c00e4685,SCR,2024-06-21_17h50.09.871,LearnStrategy,2023.2.3,Win32,60.60606061,3,1,14,-0.2109375,0.095052083,1,0,0,2.2145,Gabbro_03,4,03,4,3,2.215,6,06,0.407552083,-0.239583333,1,0,0,1.177,Gabbro_rect,4,1.177,1,13,0,13,0,1,,,,,,,,,,,,,
64441dd1c4c3ae59c00e4685,SCR,2024-06-21_17h50.09.871,LearnStrategy,2023.2.3,Win32,60.60606061,3,1,15,-0.397135417,-0.2578125,1,0,0,1.1816,Diorite_08,3,08,2,2,1.182,7,07,0.140625,-0.255208333,1,0,0,0.9105,Diorite_rect,3,0.91,1,14,0,14,0,1,,,,,,,,,,,,,
64441dd1c4c3ae59c00e4685,SCR,2024-06-21_17h50.09.871,LearnStrategy,2023.2.3,Win32,60.60606061,3,1,16,-0.576822917,-0.096354167,1,0,0,7.5648,Pumice_04,8,04,3,1,7.565,2,10,0.384114583,-0.403645833,1,0,0,14.1922,Pumice_rect,8,14.192,1,15,0,15,0,1,,,,,,,,,,,,,
64441dd1c4c3ae59c00e4685,SCR,2024-06-21_17h50.09.871,LearnStrategy,2023.2.3,Win32,60.60606061,3,2,1,,,,,,,,1,01,,,,,,,,,,,,,4,21.072,0,,,,,,0.377604167,-0.251302083,1,0,0,21.0725,Gabbro_rect,0,0,0,0,1,
64441dd1c4c3ae59c00e4685,SCR,2024-06-21_17h50.09.871,LearnStrategy,2023.2.3,Win32,60.60606061,3,2,2,,,,,,,,2,14,,,,,,,,,,,,,5,8.856,0,,,,,,-0.395833333,-0.412760417,1,0,0,8.8559,Obsidian_rect,1,0,1,0,1,
64441dd1c4c3ae59c00e4685,SCR,2024-06-21_17h50.09.871,LearnStrategy,2023.2.3,Win32,60.60606061,3,2,3,,,,,,,,4,15,,,,,,,,,,,,,1,3.988,0,,,,,,-0.4296875,-0.248697917,1,0,0,3.9876,Andesite_rect,2,0,2,0,1,
64441dd1c4c3ae59c00e4685,SCR,2024-06-21_17h50.09.871,LearnStrategy,2023.2.3,Win32,60.60606061,3,2,4,,,,,,,,5,08,,,,,,,,,,,,,5,5.471,1,,,,,,-0.4140625,-0.408854167,1,0,0,5.4712,Obsidian_rect,3,0,3,0,1,
64441dd1c4c3ae59c00e4685,SCR,2024-06-21_17h50.09.871,LearnStrategy,2023.2.3,Win32,60.60606061,3,2,5,,,,,,,,4,10,,,,,,,,,,,,,7,11.322,0,,,,,,0.122395833,-0.40625,1,0,0,11.3224,Peridotite_rect,4,0,4,0,1,
64441dd1c4c3ae59c00e4685,SCR,2024-06-21_17h50.09.871,LearnStrategy,2023.2.3,Win32,60.60606061,3,2,6,,,,,,,,5,04,,,,,,,,,,,,,5,4.804,1,,,,,,-0.385416667,-0.391927083,1,0,0,4.8039,Obsidian_rect,5,0,5,0,1,
64441dd1c4c3ae59c00e4685,SCR,2024-06-21_17h50.09.871,LearnStrategy,2023.2.3,Win32,60.60606061,3,2,7,,,,,,,,8,09,,,,,,,,,,,,,8,6.555,1,,,,,,0.381510417,-0.404947917,1,0,0,6.5549,Pumice_rect,6,0,6,0,1,
64441dd1c4c3ae59c00e4685,SCR,2024-06-21_17h50.09.871,LearnStrategy,2023.2.3,Win32,60.60606061,3,2,8,,,,,,,,3,16,,,,,,,,,,,,,3,2.311,1,,,,,,0.13671875,-0.25,1,0,0,2.3106,Diorite_rect,7,0,7,0,1,
64441dd1c4c3ae59c00e4685,SCR,2024-06-21_17h50.09.871,LearnStrategy,2023.2.3,Win32,60.60606061,3,2,9,,,,,,,,1,03,,,,,,,,,,,,,4,2.102,0,,,,,,0.37109375,-0.270833333,1,0,0,2.1016,Gabbro_rect,8,0,8,0,1,
64441dd1c4c3ae59c00e4685,SCR,2024-06-21_17h50.09.871,LearnStrategy,2023.2.3,Win32,60.60606061,3,2,10,,,,,,,,8,14,,,,,,,,,,,,,8,2.644,1,,,,,,0.380208333,-0.399739583,1,0,0,2.6441,Pumice_rect,9,0,9,0,1,
64441dd1c4c3ae59c00e4685,SCR,2024-06-21_17h50.09.871,LearnStrategy,2023.2.3,Win32,60.60606061,3,2,11,,,,,,,,3,02,,,,,,,,,,,,,3,1.293,1,,,,,,0.115885417,-0.24609375,1,0,0,1.2929,Diorite_rect,10,0,10,0,1,
64441dd1c4c3ae59c00e4685,SCR,2024-06-21_17h50.09.871,LearnStrategy,2023.2.3,Win32,60.60606061,3,2,12,,,,,,,,7,12,,,,,,,,,,,,,4,1.444,0,,,,,,0.375,-0.248697917,1,0,0,1.444,Gabbro_rect,11,0,11,0,1,
64441dd1c4c3ae59c00e4685,SCR,2024-06-21_17h50.09.871,LearnStrategy,2023.2.3,Win32,60.60606061,3,2,13,,,,,,,,2,11,,,,,,,,,,,,,1,5.396,0,,,,,,-0.4296875,-0.239583333,1,0,0,5.3956,Andesite_rect,12,0,12,0,1,
64441dd1c4c3ae59c00e4685,SCR,2024-06-21_17h50.09.871,LearnStrategy,2023.2.3,Win32,60.60606061,3,2,14,,,,,,,,6,15,,,,,,,,,,,,,3,2.396,0,,,,,,0.127604167,-0.2421875,1,0,0,2.3963,Diorite_rect,13,0,13,0,1,
64441dd1c4c3ae59c00e4685,SCR,2024-06-21_17h50.09.871,LearnStrategy,2023.2.3,Win32,60.60606061,3,2,15,,,,,,,,6,16,,,,,,,,,,,,,3,3.044,0,,,,,,0.171875,-0.25390625,1,0,0,3.0443,Diorite_rect,14,0,14,0,1,
64441dd1c4c3ae59c00e4685,SCR,2024-06-21_17h50.09.871,LearnStrategy,2023.2.3,Win32,60.60606061,3,2,16,,,,,,,,7,04,,,,,,,,,,,,,4,1.666,0,,,,,,0.348958333,-0.263020833,1,0,0,1.6664,Gabbro_rect,15,0,15,0,1,
64441dd1c4c3ae59c00e4685,SCR,2024-06-21_17h50.09.871,LearnStrategy,2023.2.3,Win32,60.60606061,4,1,1,-0.102864583,-0.12109375,1,0,0,8.2141,Andesite_16,1,16,3,4,8.214,1,16,0.071614583,-0.252604167,1,0,0,1.9868,Diorite_rect,3,1.987,0,0,0,0,0,1,,,,,,,,,,,,,
64441dd1c4c3ae59c00e4685,SCR,2024-06-21_17h50.09.871,LearnStrategy,2023.2.3,Win32,60.60606061,4,1,2,-0.0703125,0.231770833,1,0,0,1.8314,Obsidian_09,5,09,5,4,1.831,6,06,-0.377604167,-0.263020833,1,0,0,1.3601,Andesite_rect,1,1.36,0,1,0,1,0,1,,,,,,,,,,,,,
64441dd1c4c3ae59c00e4685,SCR,2024-06-21_17h50.09.871,LearnStrategy,2023.2.3,Win32,60.60606061,4,1,3,0.220052083,-0.236979167,1,0,0,1.4646,Pegmatite_07,6,07,2,6,1.465,3,08,0.088541667,-0.40625,1,0,0,2.0283,Peridotite_rect,7,2.028,0,2,0,2,0,1,,,,,,,,,,,,,
64441dd1c4c3ae59c00e4685,SCR,2024-06-21_17h50.09.871,LearnStrategy,2023.2.3,Win32,60.60606061,4,1,4,-0.227864583,0.10546875,1,0,0,9.0487,Gabbro_03,4,03,4,3,9.049,5,02,0.377604167,-0.24609375,1,0,0,3.1691,Gabbro_rect,4,3.169,1,3,0,3,0,1,,,,,,,,,,,,,
64441dd1c4c3ae59c00e4685,SCR,2024-06-21_17h50.09.871,LearnStrategy,2023.2.3,Win32,60.60606061,4,1,5,-0.39453125,-0.265625,1,0,0,0.8472,Diorite_08,3,08,2,2,0.847,4,03,0.115885417,-0.239583333,1,0,0,1.2765,Diorite_rect,3,1.276,1,4,0,4,0,1,,,,,,,,,,,,,
64441dd1c4c3ae59c00e4685,SCR,2024-06-21_17h50.09.871,LearnStrategy,2023.2.3,Win32,60.60606061,4,1,6,-0.5546875,-0.096354167,1,0,0,3.1818,Pumice_04,8,04,3,1,3.182,7,14,0.38671875,-0.397135417,1,0,0,0.9927,Pumice_rect,8,0.993,1,5,0,5,0,1,,,,,,,,,,,,,
64441dd1c4c3ae59c00e4685,SCR,2024-06-21_17h50.09.871,LearnStrategy,2023.2.3,Win32,60.60606061,4,1,7,0.350260417,0.26953125,1,0,0,2.2641,Obsidian_10,5,10,5,7,2.264,6,13,-0.4296875,-0.415364583,1,0,0,3.2606,Obsidian_rect,5,3.261,1,6,0,6,0,1,,,,,,,,,,,,,
64441dd1c4c3ae59c00e4685,SCR,2024-06-21_17h50.09.871,LearnStrategy,2023.2.3,Win32,60.60606061,4,1,8,-0.41796875,-0.234375,1,0,0,12.7422,Diorite_08,3,08,2,2,12.742,4,13,0.130208333,-0.255208333,1,0,0,1.1028,Diorite_rect,3,1.103,1,7,0,7,0,1,,,,,,,,,,,,,
64441dd1c4c3ae59c00e4685,SCR,2024-06-21_17h50.09.871,LearnStrategy,2023.2.3,Win32,60.60606061,4,1,9,-0.263020833,0.108072917,1,0,0,0.9487,Gabbro_03,4,03,4,3,0.949,6,05,0.373697917,-0.25,1,0,0,0.8763,Gabbro_rect,4,0.876,1,8,0,8,0,1,,,,,,,,,,,,,
64441dd1c4c3ae59c00e4685,SCR,2024-06-21_17h50.09.871,LearnStrategy,2023.2.3,Win32,60.60606061,4,1,10,0.384114583,0.24609375,1,0,0,2.0652,Obsidian_10,5,10,5,7,2.065,4,08,-0.4140625,-0.412760417,1,0,0,1.3933,Obsidian_rect,5,1.393,1,9,0,9,0,1,,,,,,,,,,,,,
64441dd1c4c3ae59c00e4685,SCR,2024-06-21_17h50.09.871,LearnStrategy,2023.2.3,Win32,60.60606061,4,1,11,-0.234375,0.102864583,1,0,0,0.9973,Gabbro_03,4,03,4,3,0.997,2,05,0.380208333,-0.244791667,1,0,0,1.1604,Gabbro_rect,4,1.16,1,10,0,10,0,1,,,,,,,,,,,,,
64441dd1c4c3ae59c00e4685,SCR,2024-06-21_17h50.09.871,LearnStrategy,2023.2.3,Win32,60.60606061,4,1,12,-0.419270833,-0.268229167,1,0,0,0.8815,Diorite_08,3,08,2,2,0.881,1,11,0.127604167,-0.239583333,1,0,0,0.7771,Diorite_rect,3,0.777,1,11,0,11,0,1,,,,,,,,,,,,,
64441dd1c4c3ae59c00e4685,SCR,2024-06-21_17h50.09.871,LearnStrategy,2023.2.3,Win32,60.60606061,4,1,13,-0.544270833,-0.087239583,1,0,0,3.7156,Pumice_04,8,04,3,1,3.716,7,10,0.3671875,-0.395833333,1,0,0,0.6698,Pumice_rect,8,0.67,1,12,0,12,0,1,,,,,,,,,,,,,
64441dd1c4c3ae59c00e4685,SCR,2024-06-21_17h50.09.871,LearnStrategy,2023.2.3,Win32,60.60606061,4,1,14,-0.25,0.092447917,1,0,0,3.1154,Gabbro_03,4,03,4,3,3.115,1,02,0.369791667,-0.26171875,1,0,0,1.0434,Gabbro_rect,4,1.043,1,13,0,13,0,1,,,,,,,,,,,,,
64441dd1c4c3ae59c00e4685,SCR,2024-06-21_17h50.09.871,LearnStrategy,2023.2.3,Win32,60.60606061,4,1,15,-0.393229167,-0.255208333,1,0,0,0.7642,Diorite_08,3,08,2,2,0.764,2,04,0.182291667,-0.259114583,1,0,0,1.7949,Diorite_rect,3,1.795,1,14,0,14,0,1,,,,,,,,,,,,,
64441dd1c4c3ae59c00e4685,SCR,2024-06-21_17h50.09.871,LearnStrategy,2023.2.3,Win32,60.60606061,4,1,16,0.390625,0.239583333,1,0,0,0.8641,Obsidian_10,5,10,5,7,0.864,7,07,-0.401041667,-0.403645833,1,0,0,16.6616,Obsidian_rect,5,16.662,1,15,0,15,0,1,,,,,,,,,,,,,
64441dd1c4c3ae59c00e4685,SCR,2024-06-21_17h50.09.871,LearnStrategy,2023.2.3,Win32,60.60606061,4,2,1,,,,,,,,6,03,,,,,,,,,,,,,3,5.495,0,,,,,,0.138020833,-0.239583333,1,0,0,5.4947,Diorite_rect,0,0,0,0,1,
64441dd1c4c3ae59c00e4685,SCR,2024-06-21_17h50.09.871,LearnStrategy,2023.2.3,Win32,60.60606061,4,2,2,,,,,,,,3,09,,,,,,,,,,,,,3,3.262,1,,,,,,0.108072917,-0.233072917,1,0,0,3.2615,Diorite_rect,1,0,1,0,1,
64441dd1c4c3ae59c00e4685,SCR,2024-06-21_17h50.09.871,LearnStrategy,2023.2.3,Win32,60.60606061,4,2,3,,,,,,,,1,01,,,,,,,,,,,,,4,1.379,0,,,,,,0.368489583,-0.235677083,1,0,0,1.3788,Gabbro_rect,2,0,2,0,1,
64441dd1c4c3ae59c00e4685,SCR,2024-06-21_17h50.09.871,LearnStrategy,2023.2.3,Win32,60.60606061,4,2,4,,,,,,,,2,11,,,,,,,,,,,,,7,3.175,0,,,,,,0.118489583,-0.41796875,1,0,0,3.1748,Peridotite_rect,3,0,3,0,1,
64441dd1c4c3ae59c00e4685,SCR,2024-06-21_17h50.09.871,LearnStrategy,2023.2.3,Win32,60.60606061,4,2,5,,,,,,,,5,12,,,,,,,,,,,,,5,3.841,1,,,,,,-0.397135417,-0.41015625,1,0,0,3.8413,Obsidian_rect,4,0,4,0,1,
64441dd1c4c3ae59c00e4685,SCR,2024-06-21_17h50.09.871,LearnStrategy,2023.2.3,Win32,60.60606061,4,2,6,,,,,,,,4,01,,,,,,,,,,,,,3,1.279,0,,,,,,0.139322917,-0.236979167,1,0,0,1.2789,Diorite_rect,5,0,5,0,1,
64441dd1c4c3ae59c00e4685,SCR,2024-06-21_17h50.09.871,LearnStrategy,2023.2.3,Win32,60.60606061,4,2,7,,,,,,,,3,16,,,,,,,,,,,,,3,1.221,1,,,,,,0.177083333,-0.248697917,1,0,0,1.2213,Diorite_rect,6,0,6,0,1,
64441dd1c4c3ae59c00e4685,SCR,2024-06-21_17h50.09.871,LearnStrategy,2023.2.3,Win32,60.60606061,4,2,8,,,,,,,,7,16,,,,,,,,,,,,,4,1.19,0,,,,,,0.359375,-0.239583333,1,0,0,1.1897,Gabbro_rect,7,0,7,0,1,
64441dd1c4c3ae59c00e4685,SCR,2024-06-21_17h50.09.871,LearnStrategy,2023.2.3,Win32,60.60606061,4,2,9,,,,,,,,6,12,,,,,,,,,,,,,3,0.964,0,,,,,,0.115885417,-0.248697917,1,0,0,0.9639,Diorite_rect,8,0,8,0,1,
64441dd1c4c3ae59c00e4685,SCR,2024-06-21_17h50.09.871,LearnStrategy,2023.2.3,Win32,60.60606061,4,2,10,,,,,,,,4,15,,,,,,,,,,,,,7,2.36,0,,,,,,0.108072917,-0.408854167,1,0,0,2.3602,Peridotite_rect,9,0,9,0,1,
64441dd1c4c3ae59c00e4685,SCR,2024-06-21_17h50.09.871,LearnStrategy,2023.2.3,Win32,60.60606061,4,2,11,,,,,,,,5,08,,,,,,,,,,,,,5,1.895,1,,,,,,-0.377604167,-0.41015625,1,0,0,1.8947,Obsidian_rect,10,0,10,0,1,
64441dd1c4c3ae59c00e4685,SCR,2024-06-21_17h50.09.871,LearnStrategy,2023.2.3,Win32,60.60606061,4,2,12,,,,,,,,8,10,,,,,,,,,,,,,8,2.847,1,,,,,,0.341145833,-0.393229167,1,0,0,2.8468,Pumice_rect,11,0,11,0,1,
64441dd1c4c3ae59c00e4685,SCR,2024-06-21_17h50.09.871,LearnStrategy,2023.2.3,Win32,60.60606061,4,2,13,,,,,,,,8,09,,,,,,,,,,,,,8,1.273,1,,,,,,0.341145833,-0.393229167,1,0,0,1.2727,Pumice_rect,12,0,12,0,1,
64441dd1c4c3ae59c00e4685,SCR,2024-06-21_17h50.09.871,LearnStrategy,2023.2.3,Win32,60.60606061,4,2,14,,,,,,,,2,01,,,,,,,,,,,,,4,4.371,0,,,,,,0.385416667,-0.26171875,1,0,0,4.3714,Gabbro_rect,13,0,13,0,1,
64441dd1c4c3ae59c00e4685,SCR,2024-06-21_17h50.09.871,LearnStrategy,2023.2.3,Win32,60.60606061,4,2,15,,,,,,,,7,04,,,,,,,,,,,,,7,4.276,1,,,,,,0.12109375,-0.412760417,1,0,0,4.2761,Peridotite_rect,14,0,14,0,1,
64441dd1c4c3ae59c00e4685,SCR,2024-06-21_17h50.09.871,LearnStrategy,2023.2.3,Win32,60.60606061,4,2,16,,,,,,,,1,06,,,,,,,,,,,,,2,3.71,0,,,,,,-0.122395833,-0.23828125,1,0,0,3.7102,Basalt_rect,15,0,15,0,1,
64441dd1c4c3ae59c00e4685,SCR,2024-06-21_17h50.09.871,LearnStrategy,2023.2.3,Win32,60.60606061,5,1,1,-0.39453125,-0.268229167,1,0,0,3.2975,Diorite_08,3,08,2,2,3.298,6,07,0.122395833,-0.23828125,1,0,0,1.1697,Diorite_rect,3,1.17,1,0,0,0,0,1,,,,,,,,,,,,,
64441dd1c4c3ae59c00e4685,SCR,2024-06-21_17h50.09.871,LearnStrategy,2023.2.3,Win32,60.60606061,5,1,2,-0.239583333,0.110677083,1,0,0,1.2475,Gabbro_03,4,03,4,3,1.247,2,16,0.397135417,-0.251302083,1,0,0,0.9435,Gabbro_rect,4,0.943,1,1,0,1,0,1,,,,,,,,,,,,,
64441dd1c4c3ae59c00e4685,SCR,2024-06-21_17h50.09.871,LearnStrategy,2023.2.3,Win32,60.60606061,5,1,3,0.388020833,0.2578125,1,0,0,2.5819,Obsidian_10,5,10,5,7,2.582,7,06,-0.388020833,-0.421875,1,0,0,4.2602,Obsidian_rect,5,4.26,1,2,0,2,0,1,,,,,,,,,,,,,
64441dd1c4c3ae59c00e4685,SCR,2024-06-21_17h50.09.871,LearnStrategy,2023.2.3,Win32,60.60606061,5,1,4,-0.55859375,-0.108072917,1,0,0,2.181,Pumice_04,8,04,3,1,2.181,4,14,0.368489583,-0.40234375,1,0,0,0.9934,Pumice_rect,8,0.993,1,3,0,3,0,1,,,,,,,,,,,,,
64441dd1c4c3ae59c00e4685,SCR,2024-06-21_17h50.09.871,LearnStrategy,2023.2.3,Win32,60.60606061,5,1,5,-0.25,0.095052083,1,0,0,1.9313,Gabbro_03,4,03,4,3,1.931,2,04,0.38671875,-0.259114583,1,0,0,1.8272,Gabbro_rect,4,1.827,1,4,0,4,0,1,,,,,,,,,,,,,
64441dd1c4c3ae59c00e4685,SCR,2024-06-21_17h50.09.871,LearnStrategy,2023.2.3,Win32,60.60606061,5,1,6,-0.419270833,-0.255208333,1,0,0,0.848,Diorite_08,3,08,2,2,0.848,3,15,0.12890625,-0.248697917,1,0,0,0.9265,Diorite_rect,3,0.927,1,5,0,5,0,1,,,,,,,,,,,,,
64441dd1c4c3ae59c00e4685,SCR,2024-06-21_17h50.09.871,LearnStrategy,2023.2.3,Win32,60.60606061,5,1,7,0.393229167,0.234375,1,0,0,1.732,Obsidian_10,5,10,5,7,1.732,6,13,-0.4140625,-0.41015625,1,0,0,0.9456,Obsidian_rect,5,0.946,1,6,0,6,0,1,,,,,,,,,,,,,
64441dd1c4c3ae59c00e4685,SCR,2024-06-21_17h50.09.871,LearnStrategy,2023.2.3,Win32,60.60606061,5,1,8,-0.393229167,-0.255208333,1,0,0,11.16,Diorite_08,3,08,2,2,11.16,5,02,0.135416667,-0.247395833,1,0,0,0.6854,Diorite_rect,3,0.685,1,7,0,7,0,1,,,,,,,,,,,,,
64441dd1c4c3ae59c00e4685,SCR,2024-06-21_17h50.09.871,LearnStrategy,2023.2.3,Win32,60.60606061,5,1,9,-0.225260417,0.114583333,1,0,0,3.1645,Gabbro_03,4,03,4,3,3.164,1,04,0.397135417,-0.255208333,1,0,0,1.1104,Gabbro_rect,4,1.11,1,8,0,8,0,1,,,,,,,,,,,,,
64441dd1c4c3ae59c00e4685,SCR,2024-06-21_17h50.09.871,LearnStrategy,2023.2.3,Win32,60.60606061,5,1,10,0.412760417,0.229166667,1,0,0,1.1986,Obsidian_10,5,10,5,7,1.199,4,16,-0.397135417,-0.41796875,1,0,0,2.2768,Obsidian_rect,5,2.277,1,9,0,9,0,1,,,,,,,,,,,,,
64441dd1c4c3ae59c00e4685,SCR,2024-06-21_17h50.09.871,LearnStrategy,2023.2.3,Win32,60.60606061,5,1,11,-0.596354167,-0.072916667,1,0,0,0.8652,Pumice_04,8,04,3,1,0.865,7,07,0.365885417,-0.393229167,1,0,0,0.9269,Pumice_rect,8,0.927,1,10,0,10,0,1,,,,,,,,,,,,,
64441dd1c4c3ae59c00e4685,SCR,2024-06-21_17h50.09.871,LearnStrategy,2023.2.3,Win32,60.60606061,5,1,12,-0.234375,0.115885417,1,0,0,12.4821,Gabbro_03,4,03,4,3,12.482,2,10,0.381510417,-0.248697917,1,0,0,0.7702,Gabbro_rect,4,0.77,1,11,0,11,0,1,,,,,,,,,,,,,
64441dd1c4c3ae59c00e4685,SCR,2024-06-21_17h50.09.871,LearnStrategy,2023.2.3,Win32,60.60606061,5,1,13,-0.390625,-0.25390625,1,0,0,1.215,Diorite_08,3,08,2,2,1.215,1,10,0.388020833,-0.248697917,1,0,0,0.8935,Gabbro_rect,4,0.894,0,12,0,12,0,1,,,,,,,,,,,,,
64441dd1c4c3ae59c00e4685,SCR,2024-06-21_17h50.09.871,LearnStrategy,2023.2.3,Win32,60.60606061,5,1,14,-0.4140625,-0.260416667,1,0,0,0.7984,Diorite_08,3,08,2,2,0.798,4,16,0.130208333,-0.256510417,1,0,0,1.4765,Diorite_rect,3,1.476,1,13,0,13,0,1,,,,,,,,,,,,,
64441dd1c4c3ae59c00e4685,SCR,2024-06-21_17h50.09.871,LearnStrategy,2023.2.3,Win32,60.60606061,5,1,15,-0.247395833,0.111979167,1,0,0,1.2317,Gabbro_03,4,03,4,3,1.232,1,02,0.385416667,-0.239583333,1,0,0,0.9931,Gabbro_rect,4,0.993,1,14,0,14,0,1,,,,,,,,,,,,,
64441dd1c4c3ae59c00e4685,SCR,2024-06-21_17h50.09.871,LearnStrategy,2023.2.3,Win32,60.60606061,5,1,16,-0.541666667,-0.092447917,1,0,0,2.0482,Pumice_04,8,04,3,1,2.048,6,06,0.365885417,-0.40234375,1,0,0,1.1434,Pumice_rect,8,1.143,1,15,0,15,0,1,,,,,,,,,,,,,
64441dd1c4c3ae59c00e4685,SCR,2024-06-21_17h50.09.871,LearnStrategy,2023.2.3,Win32,60.60606061,5,2,1,,,,,,,,1,05,,,,,,,,,,,,,1,19.425,1,,,,,,-0.43359375,-0.259114583,1,0,0,19.4252,Andesite_rect,0,0,0,0,1,
64441dd1c4c3ae59c00e4685,SCR,2024-06-21_17h50.09.871,LearnStrategy,2023.2.3,Win32,60.60606061,5,2,2,,,,,,,,6,16,,,,,,,,,,,,,3,2.393,0,,,,,,0.08984375,-0.256510417,1,0,0,2.3927,Diorite_rect,1,0,1,0,1,
64441dd1c4c3ae59c00e4685,SCR,2024-06-21_17h50.09.871,LearnStrategy,2023.2.3,Win32,60.60606061,5,2,3,,,,,,,,4,10,,,,,,,,,,,,,5,5.522,0,,,,,,-0.4140625,-0.408854167,1,0,0,5.5216,Obsidian_rect,2,0,2,0,1,
64441dd1c4c3ae59c00e4685,SCR,2024-06-21_17h50.09.871,LearnStrategy,2023.2.3,Win32,60.60606061,5,2,4,,,,,,,,1,03,,,,,,,,,,,,,7,4.239,0,,,,,,0.130208333,-0.419270833,1,0,0,4.2386,Peridotite_rect,3,0,3,0,1,
64441dd1c4c3ae59c00e4685,SCR,2024-06-21_17h50.09.871,LearnStrategy,2023.2.3,Win32,60.60606061,5,2,5,,,,,,,,5,06,,,,,,,,,,,,,5,2.313,1,,,,,,-0.420572917,-0.40234375,1,0,0,2.3135,Obsidian_rect,4,0,4,0,1,
64441dd1c4c3ae59c00e4685,SCR,2024-06-21_17h50.09.871,LearnStrategy,2023.2.3,Win32,60.60606061,5,2,6,,,,,,,,4,12,,,,,,,,,,,,,4,5.293,1,,,,,,0.391927083,-0.252604167,1,0,0,5.2935,Gabbro_rect,5,0,5,0,1,
64441dd1c4c3ae59c00e4685,SCR,2024-06-21_17h50.09.871,LearnStrategy,2023.2.3,Win32,60.60606061,5,2,7,,,,,,,,6,15,,,,,,,,,,,,,3,1.164,0,,,,,,0.127604167,-0.252604167,1,0,0,1.1637,Diorite_rect,6,0,6,0,1,
64441dd1c4c3ae59c00e4685,SCR,2024-06-21_17h50.09.871,LearnStrategy,2023.2.3,Win32,60.60606061,5,2,8,,,,,,,,7,12,,,,,,,,,,,,,3,2.877,0,,,,,,0.127604167,-0.252604167,1,0,0,2.8769,Diorite_rect,7,0,7,0,1,
64441dd1c4c3ae59c00e4685,SCR,2024-06-21_17h50.09.871,LearnStrategy,2023.2.3,Win32,60.60606061,5,2,9,,,,,,,,7,02,,,,,,,,,,,,,3,1.038,0,,,,,,0.127604167,-0.235677083,1,0,0,1.0381,Diorite_rect,8,0,8,0,1,
64441dd1c4c3ae59c00e4685,SCR,2024-06-21_17h50.09.871,LearnStrategy,2023.2.3,Win32,60.60606061,5,2,10,,,,,,,,2,06,,,,,,,,,,,,,5,3.905,0,,,,,,-0.42578125,-0.403645833,1,0,0,3.9049,Obsidian_rect,9,0,9,0,1,
64441dd1c4c3ae59c00e4685,SCR,2024-06-21_17h50.09.871,LearnStrategy,2023.2.3,Win32,60.60606061,5,2,11,,,,,,,,2,09,,,,,,,,,,,,,4,8.406,0,,,,,,0.384114583,-0.239583333,1,0,0,8.4058,Gabbro_rect,10,0,10,0,1,
64441dd1c4c3ae59c00e4685,SCR,2024-06-21_17h50.09.871,LearnStrategy,2023.2.3,Win32,60.60606061,5,2,12,,,,,,,,8,13,,,,,,,,,,,,,8,2.145,1,,,,,,0.360677083,-0.41015625,1,0,0,2.1446,Pumice_rect,11,0,11,0,1,
64441dd1c4c3ae59c00e4685,SCR,2024-06-21_17h50.09.871,LearnStrategy,2023.2.3,Win32,60.60606061,5,2,13,,,,,,,,8,08,,,,,,,,,,,,,8,1.055,1,,,,,,0.354166667,-0.395833333,1,0,0,1.0553,Pumice_rect,12,0,12,0,1,
64441dd1c4c3ae59c00e4685,SCR,2024-06-21_17h50.09.871,LearnStrategy,2023.2.3,Win32,60.60606061,5,2,14,,,,,,,,5,04,,,,,,,,,,,,,5,1.527,1,,,,,,-0.397135417,-0.40234375,1,0,0,1.5273,Obsidian_rect,13,0,13,0,1,
64441dd1c4c3ae59c00e4685,SCR,2024-06-21_17h50.09.871,LearnStrategy,2023.2.3,Win32,60.60606061,5,2,15,,,,,,,,3,10,,,,,,,,,,,,,3,1.154,1,,,,,,0.138020833,-0.24609375,1,0,0,1.1543,Diorite_rect,14,0,14,0,1,
64441dd1c4c3ae59c00e4685,SCR,2024-06-21_17h50.09.871,LearnStrategy,2023.2.3,Win32,60.60606061,5,2,16,,,,,,,,3,14,,,,,,,,,,,,,3,1.488,1,,,,,,0.138020833,-0.24609375,1,0,0,1.4879,Diorite_rect,15,0,15,0,1,
64441dd1c4c3ae59c00e4685,SCR,2024-06-21_17h50.09.871,LearnStrategy,2023.2.3,Win32,60.60606061,6,1,1,-0.229166667,0.10546875,1,0,0,4.2812,Gabbro_03,4,03,4,3,4.281,6,08,0.377604167,-0.231770833,1,0,0,1.0026,Gabbro_rect,4,1.003,1,0,0,0,0,1,,,,,,,,,,,,,
64441dd1c4c3ae59c00e4685,SCR,2024-06-21_17h50.09.871,LearnStrategy,2023.2.3,Win32,60.60606061,6,1,2,-0.397135417,-0.25,1,0,0,1.3481,Diorite_08,3,08,2,2,1.348,7,10,0.143229167,-0.240885417,1,0,0,0.6437,Diorite_rect,3,0.644,1,1,0,1,0,1,,,,,,,,,,,,,
64441dd1c4c3ae59c00e4685,SCR,2024-06-21_17h50.09.871,LearnStrategy,2023.2.3,Win32,60.60606061,6,1,3,0.358072917,0.2421875,1,0,0,1.1481,Obsidian_10,5,10,5,7,1.148,6,05,-0.40625,-0.416666667,1,0,0,1.477,Obsidian_rect,5,1.477,1,2,0,2,0,1,,,,,,,,,,,,,
64441dd1c4c3ae59c00e4685,SCR,2024-06-21_17h50.09.871,LearnStrategy,2023.2.3,Win32,60.60606061,6,1,4,-0.54296875,-0.102864583,1,0,0,0.8156,Pumice_04,8,04,3,1,0.816,2,05,0.399739583,-0.395833333,1,0,0,0.6765,Pumice_rect,8,0.677,1,3,0,3,0,1,,,,,,,,,,,,,
64441dd1c4c3ae59c00e4685,SCR,2024-06-21_17h50.09.871,LearnStrategy,2023.2.3,Win32,60.60606061,6,1,5,0.391927083,0.2578125,1,0,0,7.2984,Obsidian_10,5,10,5,7,7.298,1,16,-0.447916667,-0.388020833,1,0,0,0.7697,Obsidian_rect,5,0.77,1,4,0,4,0,1,,,,,,,,,,,,,
64441dd1c4c3ae59c00e4685,SCR,2024-06-21_17h50.09.871,LearnStrategy,2023.2.3,Win32,60.60606061,6,1,6,-0.23828125,0.108072917,1,0,0,1.0482,Gabbro_03,4,03,4,3,1.048,7,06,0.354166667,-0.239583333,1,0,0,1.3602,Gabbro_rect,4,1.36,1,5,0,5,0,1,,,,,,,,,,,,,
64441dd1c4c3ae59c00e4685,SCR,2024-06-21_17h50.09.871,LearnStrategy,2023.2.3,Win32,60.60606061,6,1,7,-0.403645833,-0.252604167,1,0,0,0.8979,Diorite_08,3,08,2,2,0.898,5,05,0.131510417,-0.2421875,1,0,0,0.6108,Diorite_rect,3,0.611,1,6,0,6,0,1,,,,,,,,,,,,,
64441dd1c4c3ae59c00e4685,SCR,2024-06-21_17h50.09.871,LearnStrategy,2023.2.3,Win32,60.60606061,6,1,8,-0.388020833,-0.24609375,1,0,0,13.3094,Diorite_08,3,08,2,2,13.309,3,15,0.165364583,-0.248697917,1,0,0,0.9527,Diorite_rect,3,0.953,1,7,0,7,0,1,,,,,,,,,,,,,
64441dd1c4c3ae59c00e4685,SCR,2024-06-21_17h50.09.871,LearnStrategy,2023.2.3,Win32,60.60606061,6,1,9,-0.240885417,0.1015625,1,0,0,2.1153,Gabbro_03,4,03,4,3,2.115,1,10,0.395833333,-0.233072917,1,0,0,0.66,Gabbro_rect,4,0.66,1,8,0,8,0,1,,,,,,,,,,,,,
64441dd1c4c3ae59c00e4685,SCR,2024-06-21_17h50.09.871,LearnStrategy,2023.2.3,Win32,60.60606061,6,1,10,-0.541666667,-0.087239583,1,0,0,3.2659,Pumice_04,8,04,3,1,3.266,4,16,0.381510417,-0.401041667,1,0,0,2.1028,Pumice_rect,8,2.103,1,9,0,9,0,1,,,,,,,,,,,,,
64441dd1c4c3ae59c00e4685,SCR,2024-06-21_17h50.09.871,LearnStrategy,2023.2.3,Win32,60.60606061,6,1,11,0.361979167,0.234375,1,0,0,1.4983,Obsidian_10,5,10,5,7,1.498,2,12,-0.438802083,-0.3984375,1,0,0,0.8102,Obsidian_rect,5,0.81,1,10,0,10,0,1,,,,,,,,,,,,,
64441dd1c4c3ae59c00e4685,SCR,2024-06-21_17h50.09.871,LearnStrategy,2023.2.3,Win32,60.60606061,6,1,12,-0.567708333,-0.100260417,1,0,0,1.1982,Pumice_04,8,04,3,1,1.198,4,11,0.372395833,-0.40234375,1,0,0,1.0267,Pumice_rect,8,1.027,1,11,0,11,0,1,,,,,,,,,,,,,
64441dd1c4c3ae59c00e4685,SCR,2024-06-21_17h50.09.871,LearnStrategy,2023.2.3,Win32,60.60606061,6,1,13,0.389322917,0.23828125,1,0,0,1.3822,Obsidian_10,5,10,5,7,1.382,4,14,-0.399739583,-0.403645833,1,0,0,1.5938,Obsidian_rect,5,1.594,1,12,0,12,0,1,,,,,,,,,,,,,
64441dd1c4c3ae59c00e4685,SCR,2024-06-21_17h50.09.871,LearnStrategy,2023.2.3,Win32,60.60606061,6,1,14,-0.2421875,0.09375,1,0,0,0.9481,Gabbro_03,4,03,4,3,0.948,2,16,0.41015625,-0.244791667,1,0,0,0.9271,Gabbro_rect,4,0.927,1,13,0,13,0,1,,,,,,,,,,,,,
64441dd1c4c3ae59c00e4685,SCR,2024-06-21_17h50.09.871,LearnStrategy,2023.2.3,Win32,60.60606061,6,1,15,-0.397135417,-0.2265625,1,0,0,0.831,Diorite_08,3,08,2,2,0.831,6,09,0.118489583,-0.243489583,1,0,0,0.5768,Diorite_rect,3,0.577,1,14,0,14,0,1,,,,,,,,,,,,,
64441dd1c4c3ae59c00e4685,SCR,2024-06-21_17h50.09.871,LearnStrategy,2023.2.3,Win32,60.60606061,6,1,16,-0.390625,-0.255208333,1,0,0,3.632,Diorite_08,3,08,2,2,3.632,7,15,0.115885417,-0.252604167,1,0,0,0.7533,Diorite_rect,3,0.753,1,15,0,15,0,1,,,,,,,,,,,,,
64441dd1c4c3ae59c00e4685,SCR,2024-06-21_17h50.09.871,LearnStrategy,2023.2.3,Win32,60.60606061,6,2,1,,,,,,,,3,02,,,,,,,,,,,,,1,7.321,0,,,,,,-0.403645833,-0.252604167,1,0,0,7.321,Andesite_rect,0,0,0,0,1,
64441dd1c4c3ae59c00e4685,SCR,2024-06-21_17h50.09.871,LearnStrategy,2023.2.3,Win32,60.60606061,6,2,2,,,,,,,,3,06,,,,,,,,,,,,,1,6.163,0,,,,,,-0.381510417,-0.25,1,0,0,6.1633,Andesite_rect,1,0,1,0,1,
64441dd1c4c3ae59c00e4685,SCR,2024-06-21_17h50.09.871,LearnStrategy,2023.2.3,Win32,60.60606061,6,2,3,,,,,,,,6,11,,,,,,,,,,,,,3,1.678,0,,,,,,0.149739583,-0.240885417,1,0,0,1.6775,Diorite_rect,2,0,2,0,1,
64441dd1c4c3ae59c00e4685,SCR,2024-06-21_17h50.09.871,LearnStrategy,2023.2.3,Win32,60.60606061,6,2,4,,,,,,,,8,15,,,,,,,,,,,,,8,1.322,1,,,,,,0.356770833,-0.391927083,1,0,0,1.3222,Pumice_rect,3,0,3,0,1,
64441dd1c4c3ae59c00e4685,SCR,2024-06-21_17h50.09.871,LearnStrategy,2023.2.3,Win32,60.60606061,6,2,5,,,,,,,,4,05,,,,,,,,,,,,,4,10.189,1,,,,,,0.356770833,-0.268229167,1,0,0,10.1886,Gabbro_rect,4,0,4,0,1,
64441dd1c4c3ae59c00e4685,SCR,2024-06-21_17h50.09.871,LearnStrategy,2023.2.3,Win32,60.60606061,6,2,6,,,,,,,,7,05,,,,,,,,,,,,,1,5.063,0,,,,,,-0.39453125,-0.252604167,1,0,0,5.063,Andesite_rect,5,0,5,0,1,
64441dd1c4c3ae59c00e4685,SCR,2024-06-21_17h50.09.871,LearnStrategy,2023.2.3,Win32,60.60606061,6,2,7,,,,,,,,4,09,,,,,,,,,,,,,5,6.727,0,,,,,,-0.399739583,-0.397135417,1,0,0,6.7271,Obsidian_rect,6,0,6,0,1,
64441dd1c4c3ae59c00e4685,SCR,2024-06-21_17h50.09.871,LearnStrategy,2023.2.3,Win32,60.60606061,6,2,8,,,,,,,,2,14,,,,,,,,,,,,,5,7.209,0,,,,,,-0.397135417,-0.408854167,1,0,0,7.2091,Obsidian_rect,7,0,7,0,1,
64441dd1c4c3ae59c00e4685,SCR,2024-06-21_17h50.09.871,LearnStrategy,2023.2.3,Win32,60.60606061,6,2,9,,,,,,,,8,14,,,,,,,,,,,,,8,1.24,1,,,,,,0.368489583,-0.411458333,1,0,0,1.2402,Pumice_rect,8,0,8,0,1,
64441dd1c4c3ae59c00e4685,SCR,2024-06-21_17h50.09.871,LearnStrategy,2023.2.3,Win32,60.60606061,6,2,10,,,,,,,,1,07,,,,,,,,,,,,,3,1.822,0,,,,,,0.134114583,-0.248697917,1,0,0,1.822,Diorite_rect,9,0,9,0,1,
64441dd1c4c3ae59c00e4685,SCR,2024-06-21_17h50.09.871,LearnStrategy,2023.2.3,Win32,60.60606061,6,2,11,,,,,,,,6,10,,,,,,,,,,,,,3,2.019,0,,,,,,0.134114583,-0.248697917,1,0,0,2.019,Diorite_rect,10,0,10,0,1,
64441dd1c4c3ae59c00e4685,SCR,2024-06-21_17h50.09.871,LearnStrategy,2023.2.3,Win32,60.60606061,6,2,12,,,,,,,,7,08,,,,,,,,,,,,,8,4.474,0,,,,,,0.35546875,-0.412760417,1,0,0,4.4744,Pumice_rect,11,0,11,0,1,
64441dd1c4c3ae59c00e4685,SCR,2024-06-21_17h50.09.871,LearnStrategy,2023.2.3,Win32,60.60606061,6,2,13,,,,,,,,1,14,,,,,,,,,,,,,3,1.23,0,,,,,,0.15234375,-0.25390625,1,0,0,1.23,Diorite_rect,12,0,12,0,1,
64441dd1c4c3ae59c00e4685,SCR,2024-06-21_17h50.09.871,LearnStrategy,2023.2.3,Win32,60.60606061,6,2,14,,,,,,,,5,14,,,,,,,,,,,,,5,2.088,1,,,,,,-0.39453125,-0.40234375,1,0,0,2.0884,Obsidian_rect,13,0,13,0,1,
64441dd1c4c3ae59c00e4685,SCR,2024-06-21_17h50.09.871,LearnStrategy,2023.2.3,Win32,60.60606061,6,2,15,,,,,,,,2,08,,,,,,,,,,,,,4,6.122,0,,,,,,0.365885417,-0.266927083,1,0,0,6.1221,Gabbro_rect,14,0,14,0,1,
64441dd1c4c3ae59c00e4685,SCR,2024-06-21_17h50.09.871,LearnStrategy,2023.2.3,Win32,60.60606061,6,2,16,,,,,,,,5,11,,,,,,,,,,,,,5,1.411,1,,,,,,-0.391927083,-0.411458333,1,0,0,1.4113,Obsidian_rect,15,0,15,0,1,
64441dd1c4c3ae59c00e4685,SCR,2024-06-21_17h50.09.871,LearnStrategy,2023.2.3,Win32,60.60606061,7,1,1,-0.420572917,-0.247395833,1,0,0,4.4631,Diorite_08,3,08,2,2,4.463,7,13,0.114583333,-0.239583333,1,0,0,1.8863,Diorite_rect,3,1.886,1,0,0,0,0,1,,,,,,,,,,,,,
64441dd1c4c3ae59c00e4685,SCR,2024-06-21_17h50.09.871,LearnStrategy,2023.2.3,Win32,60.60606061,7,1,2,-0.263020833,0.10546875,1,0,0,0.7316,Gabbro_03,4,03,4,3,0.732,2,10,0.358072917,-0.229166667,1,0,0,0.7931,Gabbro_rect,4,0.793,1,1,0,1,0,1,,,,,,,,,,,,,
64441dd1c4c3ae59c00e4685,SCR,2024-06-21_17h50.09.871,LearnStrategy,2023.2.3,Win32,60.60606061,7,1,3,0.397135417,0.25390625,1,0,0,2.0646,Obsidian_10,5,10,5,7,2.065,3,07,-0.404947917,-0.3984375,1,0,0,0.8275,Obsidian_rect,5,0.827,1,2,0,2,0,1,,,,,,,,,,,,,
64441dd1c4c3ae59c00e4685,SCR,2024-06-21_17h50.09.871,LearnStrategy,2023.2.3,Win32,60.60606061,7,1,4,-0.55859375,-0.119791667,1,0,0,1.7818,Pumice_04,8,04,3,1,1.782,7,07,0.380208333,-0.401041667,1,0,0,0.8267,Pumice_rect,8,0.827,1,3,0,3,0,1,,,,,,,,,,,,,
64441dd1c4c3ae59c00e4685,SCR,2024-06-21_17h50.09.871,LearnStrategy,2023.2.3,Win32,60.60606061,7,1,5,-0.240885417,0.09765625,1,0,0,1.0819,Gabbro_03,4,03,4,3,1.082,7,06,0.384114583,-0.24609375,1,0,0,0.8439,Gabbro_rect,4,0.844,1,4,0,4,0,1,,,,,,,,,,,,,
64441dd1c4c3ae59c00e4685,SCR,2024-06-21_17h50.09.871,LearnStrategy,2023.2.3,Win32,60.60606061,7,1,6,-0.419270833,-0.268229167,1,0,0,0.7816,Diorite_08,3,08,2,2,0.782,6,06,0.118489583,-0.239583333,1,0,0,0.5771,Diorite_rect,3,0.577,1,5,0,5,0,1,,,,,,,,,,,,,
64441dd1c4c3ae59c00e4685,SCR,2024-06-21_17h50.09.871,LearnStrategy,2023.2.3,Win32,60.60606061,7,1,7,0.391927083,0.259114583,1,0,0,1.2316,Obsidian_10,5,10,5,7,1.232,1,11,-0.434895833,-0.397135417,1,0,0,1.0603,Obsidian_rect,5,1.06,1,6,0,6,0,1,,,,,,,,,,,,,
64441dd1c4c3ae59c00e4685,SCR,2024-06-21_17h50.09.871,LearnStrategy,2023.2.3,Win32,60.60606061,7,1,8,-0.569010417,-0.10546875,1,0,0,1.5586,Pumice_04,8,04,3,1,1.559,3,13,0.352864583,-0.408854167,1,0,0,0.7939,Pumice_rect,8,0.794,1,7,0,7,0,1,,,,,,,,,,,,,
64441dd1c4c3ae59c00e4685,SCR,2024-06-21_17h50.09.871,LearnStrategy,2023.2.3,Win32,60.60606061,7,1,9,0.39453125,0.252604167,1,0,0,1.1151,Obsidian_10,5,10,5,7,1.115,1,16,-0.3984375,-0.411458333,1,0,0,1.1932,Obsidian_rect,5,1.193,1,8,0,8,0,1,,,,,,,,,,,,,
64441dd1c4c3ae59c00e4685,SCR,2024-06-21_17h50.09.871,LearnStrategy,2023.2.3,Win32,60.60606061,7,1,10,-0.389322917,-0.233072917,1,0,0,0.8315,Diorite_08,3,08,2,2,0.831,6,05,0.13671875,-0.239583333,1,0,0,0.6101,Diorite_rect,3,0.61,1,9,0,9,0,1,,,,,,,,,,,,,
64441dd1c4c3ae59c00e4685,SCR,2024-06-21_17h50.09.871,LearnStrategy,2023.2.3,Win32,60.60606061,7,1,11,-0.221354167,0.102864583,1,0,0,1.6652,Gabbro_03,4,03,4,3,1.665,2,05,0.391927083,-0.251302083,1,0,0,0.9098,Gabbro_rect,4,0.91,1,10,0,10,0,1,,,,,,,,,,,,,
64441dd1c4c3ae59c00e4685,SCR,2024-06-21_17h50.09.871,LearnStrategy,2023.2.3,Win32,60.60606061,7,1,12,0.368489583,0.27734375,1,0,0,3.6152,Obsidian_10,5,10,5,7,3.615,1,02,-0.397135417,-0.407552083,1,0,0,0.9035,Obsidian_rect,5,0.903,1,11,0,11,0,1,,,,,,,,,,,,,
64441dd1c4c3ae59c00e4685,SCR,2024-06-21_17h50.09.871,LearnStrategy,2023.2.3,Win32,60.60606061,7,1,13,-0.236979167,0.0859375,1,0,0,1.9991,Gabbro_03,4,03,4,3,1.999,2,04,0.390625,-0.243489583,1,0,0,0.7931,Gabbro_rect,4,0.793,1,12,0,12,0,1,,,,,,,,,,,,,
64441dd1c4c3ae59c00e4685,SCR,2024-06-21_17h50.09.871,LearnStrategy,2023.2.3,Win32,60.60606061,7,1,14,-0.393229167,-0.248697917,1,0,0,1.0819,Diorite_08,3,08,2,2,1.082,4,08,0.1171875,-0.248697917,1,0,0,0.544,Diorite_rect,3,0.544,1,13,0,13,0,1,,,,,,,,,,,,,
64441dd1c4c3ae59c00e4685,SCR,2024-06-21_17h50.09.871,LearnStrategy,2023.2.3,Win32,60.60606061,7,1,15,-0.41796875,-0.252604167,1,0,0,0.8649,Diorite_08,3,08,2,2,0.865,4,14,0.110677083,-0.259114583,1,0,0,0.6098,Diorite_rect,3,0.61,1,14,0,14,0,1,,,,,,,,,,,,,
64441dd1c4c3ae59c00e4685,SCR,2024-06-21_17h50.09.871,LearnStrategy,2023.2.3,Win32,60.60606061,7,1,16,-0.260416667,0.076822917,1,0,0,1.2313,Gabbro_03,4,03,4,3,1.231,6,13,0.368489583,-0.24609375,1,0,0,0.61,Gabbro_rect,4,0.61,1,15,0,15,0,1,,,,,,,,,,,,,
64441dd1c4c3ae59c00e4685,SCR,2024-06-21_17h50.09.871,LearnStrategy,2023.2.3,Win32,60.60606061,7,2,1,,,,,,,,6,10,,,,,,,,,,,,,3,3.338,0,,,,,,0.109375,-0.243489583,1,0,0,3.3376,Diorite_rect,0,0,0,0,1,
64441dd1c4c3ae59c00e4685,SCR,2024-06-21_17h50.09.871,LearnStrategy,2023.2.3,Win32,60.60606061,7,2,2,,,,,,,,7,08,,,,,,,,,,,,,8,6.157,0,,,,,,0.377604167,-0.416666667,1,0,0,6.1571,Pumice_rect,1,0,1,0,1,
64441dd1c4c3ae59c00e4685,SCR,2024-06-21_17h50.09.871,LearnStrategy,2023.2.3,Win32,60.60606061,7,2,3,,,,,,,,8,09,,,,,,,,,,,,,8,4.212,1,,,,,,0.345052083,-0.38671875,1,0,0,4.2124,Pumice_rect,2,0,2,0,1,
64441dd1c4c3ae59c00e4685,SCR,2024-06-21_17h50.09.871,LearnStrategy,2023.2.3,Win32,60.60606061,7,2,4,,,,,,,,1,06,,,,,,,,,,,,,4,7.998,0,,,,,,0.390625,-0.243489583,1,0,0,7.9976,Gabbro_rect,3,0,3,0,1,
64441dd1c4c3ae59c00e4685,SCR,2024-06-21_17h50.09.871,LearnStrategy,2023.2.3,Win32,60.60606061,7,2,5,,,,,,,,2,06,,,,,,,,,,,,,1,12.095,0,,,,,,-0.42578125,-0.23828125,1,0,0,12.0952,Andesite_rect,4,0,4,0,1,
64441dd1c4c3ae59c00e4685,SCR,2024-06-21_17h50.09.871,LearnStrategy,2023.2.3,Win32,60.60606061,7,2,6,,,,,,,,3,10,,,,,,,,,,,,,1,4.889,0,,,,,,-0.38671875,-0.255208333,1,0,0,4.8888,Andesite_rect,5,0,5,0,1,
64441dd1c4c3ae59c00e4685,SCR,2024-06-21_17h50.09.871,LearnStrategy,2023.2.3,Win32,60.60606061,7,2,7,,,,,,,,2,14,,,,,,,,,,,,,7,5.801,0,,,,,,0.127604167,-0.395833333,1,0,0,5.801,Peridotite_rect,6,0,6,0,1,
64441dd1c4c3ae59c00e4685,SCR,2024-06-21_17h50.09.871,LearnStrategy,2023.2.3,Win32,60.60606061,7,2,8,,,,,,,,6,11,,,,,,,,,,,,,3,1.208,0,,,,,,0.171875,-0.236979167,1,0,0,1.2081,Diorite_rect,7,0,7,0,1,
64441dd1c4c3ae59c00e4685,SCR,2024-06-21_17h50.09.871,LearnStrategy,2023.2.3,Win32,60.60606061,7,2,9,,,,,,,,4,09,,,,,,,,,,,,,5,3.094,0,,,,,,-0.390625,-0.411458333,1,0,0,3.0936,Obsidian_rect,8,0,8,0,1,
64441dd1c4c3ae59c00e4685,SCR,2024-06-21_17h50.09.871,LearnStrategy,2023.2.3,Win32,60.60606061,7,2,10,,,,,,,,8,08,,,,,,,,,,,,,8,1.221,1,,,,,,0.3671875,-0.393229167,1,0,0,1.221,Pumice_rect,9,0,9,0,1,
64441dd1c4c3ae59c00e4685,SCR,2024-06-21_17h50.09.871,LearnStrategy,2023.2.3,Win32,60.60606061,7,2,11,,,,,,,,5,14,,,,,,,,,,,,,5,1.371,1,,,,,,-0.391927083,-0.416666667,1,0,0,1.3706,Obsidian_rect,10,0,10,0,1,
64441dd1c4c3ae59c00e4685,SCR,2024-06-21_17h50.09.871,LearnStrategy,2023.2.3,Win32,60.60606061,7,2,12,,,,,,,,1,14,,,,,,,,,,,,,3,1.105,0,,,,,,0.149739583,-0.244791667,1,0,0,1.1053,Diorite_rect,11,0,11,0,1,
64441dd1c4c3ae59c00e4685,SCR,2024-06-21_17h50.09.871,LearnStrategy,2023.2.3,Win32,60.60606061,7,2,13,,,,,,,,5,04,,,,,,,,,,,,,5,1.255,1,,,,,,-0.401041667,-0.40625,1,0,0,1.2553,Obsidian_rect,12,0,12,0,1,
64441dd1c4c3ae59c00e4685,SCR,2024-06-21_17h50.09.871,LearnStrategy,2023.2.3,Win32,60.60606061,7,2,14,,,,,,,,4,15,,,,,,,,,,,,,1,2.255,0,,,,,,-0.390625,-0.240885417,1,0,0,2.255,Andesite_rect,13,0,13,0,1,
64441dd1c4c3ae59c00e4685,SCR,2024-06-21_17h50.09.871,LearnStrategy,2023.2.3,Win32,60.60606061,7,2,15,,,,,,,,3,06,,,,,,,,,,,,,3,2.205,1,,,,,,0.157552083,-0.266927083,1,0,0,2.2051,Diorite_rect,14,0,14,0,1,
64441dd1c4c3ae59c00e4685,SCR,2024-06-21_17h50.09.871,LearnStrategy,2023.2.3,Win32,60.60606061,7,2,16,,,,,,,,7,04,,,,,,,,,,,,,3,2.963,0,,,,,,0.111979167,-0.25390625,1,0,0,2.963,Diorite_rect,15,0,15,0,1,
64441dd1c4c3ae59c00e4685,SCR,2024-06-21_17h50.09.871,LearnStrategy,2023.2.3,Win32,60.60606061,8,1,1,-0.41796875,-0.239583333,1,0,0,3.7821,Diorite_08,3,08,2,2,3.782,3,07,0.143229167,-0.233072917,1,0,0,1.0029,Diorite_rect,3,1.003,1,0,0,0,0,1,,,,,,,,,,,,,
64441dd1c4c3ae59c00e4685,SCR,2024-06-21_17h50.09.871,LearnStrategy,2023.2.3,Win32,60.60606061,8,1,2,0.381510417,0.240885417,1,0,0,2.6989,Obsidian_10,5,10,5,7,2.699,2,02,-0.419270833,-0.419270833,1,0,0,1.0195,Obsidian_rect,5,1.019,1,1,0,1,0,1,,,,,,,,,,,,,
64441dd1c4c3ae59c00e4685,SCR,2024-06-21_17h50.09.871,LearnStrategy,2023.2.3,Win32,60.60606061,8,1,3,-0.235677083,0.100260417,1,0,0,1.115,Gabbro_03,4,03,4,3,1.115,7,13,0.39453125,-0.240885417,1,0,0,0.9103,Gabbro_rect,4,0.91,1,2,0,2,0,1,,,,,,,,,,,,,
64441dd1c4c3ae59c00e4685,SCR,2024-06-21_17h50.09.871,LearnStrategy,2023.2.3,Win32,60.60606061,8,1,4,-0.3984375,-0.248697917,1,0,0,0.7149,Diorite_08,3,08,2,2,0.715,6,07,0.143229167,-0.24609375,1,0,0,0.744,Diorite_rect,3,0.744,1,3,0,3,0,1,,,,,,,,,,,,,
64441dd1c4c3ae59c00e4685,SCR,2024-06-21_17h50.09.871,LearnStrategy,2023.2.3,Win32,60.60606061,8,1,5,-0.244791667,0.08984375,1,0,0,1.1984,Gabbro_03,4,03,4,3,1.198,1,16,0.385416667,-0.231770833,1,0,0,0.7104,Gabbro_rect,4,0.71,1,4,0,4,0,1,,,,,,,,,,,,,
64441dd1c4c3ae59c00e4685,SCR,2024-06-21_17h50.09.871,LearnStrategy,2023.2.3,Win32,60.60606061,8,1,6,-0.5546875,-0.108072917,1,0,0,0.6984,Pumice_04,8,04,3,1,0.698,2,10,0.401041667,-0.403645833,1,0,0,0.6938,Pumice_rect,8,0.694,1,5,0,5,0,1,,,,,,,,,,,,,
64441dd1c4c3ae59c00e4685,SCR,2024-06-21_17h50.09.871,LearnStrategy,2023.2.3,Win32,60.60606061,8,1,7,-0.39453125,-0.252604167,1,0,0,1.9146,Diorite_08,3,08,2,2,1.915,4,13,0.149739583,-0.25,1,0,0,0.6436,Diorite_rect,3,0.644,1,6,0,6,0,1,,,,,,,,,,,,,
64441dd1c4c3ae59c00e4685,SCR,2024-06-21_17h50.09.871,LearnStrategy,2023.2.3,Win32,60.60606061,8,1,8,-0.231770833,0.10546875,1,0,0,1.8148,Gabbro_03,4,03,4,3,1.815,1,11,0.385416667,-0.236979167,1,0,0,0.8768,Gabbro_rect,4,0.877,1,7,0,7,0,1,,,,,,,,,,,,,
64441dd1c4c3ae59c00e4685,SCR,2024-06-21_17h50.09.871,LearnStrategy,2023.2.3,Win32,60.60606061,8,1,9,-0.54296875,-0.083333333,1,0,0,2.1651,Pumice_04,8,04,3,1,2.165,6,05,0.375,-0.397135417,1,0,0,1.077,Pumice_rect,8,1.077,1,8,0,8,0,1,,,,,,,,,,,,,
64441dd1c4c3ae59c00e4685,SCR,2024-06-21_17h50.09.871,LearnStrategy,2023.2.3,Win32,60.60606061,8,1,10,0.381510417,0.243489583,1,0,0,1.3149,Obsidian_10,5,10,5,7,1.315,7,10,-0.416666667,-0.411458333,1,0,0,1.2599,Obsidian_rect,5,1.26,1,9,0,9,0,1,,,,,,,,,,,,,
64441dd1c4c3ae59c00e4685,SCR,2024-06-21_17h50.09.871,LearnStrategy,2023.2.3,Win32,60.60606061,8,1,11,-0.234375,0.09765625,1,0,0,1.6645,Gabbro_03,4,03,4,3,1.664,2,05,0.403645833,-0.248697917,1,0,0,1.0273,Gabbro_rect,4,1.027,1,10,0,10,0,1,,,,,,,,,,,,,
64441dd1c4c3ae59c00e4685,SCR,2024-06-21_17h50.09.871,LearnStrategy,2023.2.3,Win32,60.60606061,8,1,12,-0.401041667,-0.248697917,1,0,0,1.265,Diorite_08,3,08,2,2,1.265,7,07,0.138020833,-0.255208333,1,0,0,0.8274,Diorite_rect,3,0.827,1,11,0,11,0,1,,,,,,,,,,,,,
64441dd1c4c3ae59c00e4685,SCR,2024-06-21_17h50.09.871,LearnStrategy,2023.2.3,Win32,60.60606061,8,1,13,-0.54296875,-0.096354167,1,0,0,4.0483,Pumice_04,8,04,3,1,4.048,4,08,0.342447917,-0.407552083,1,0,0,1.703,Pumice_rect,8,1.703,1,12,0,12,0,1,,,,,,,,,,,,,
64441dd1c4c3ae59c00e4685,SCR,2024-06-21_17h50.09.871,LearnStrategy,2023.2.3,Win32,60.60606061,8,1,14,-0.236979167,0.096354167,1,0,0,1.815,Gabbro_03,4,03,4,3,1.815,1,10,0.388020833,-0.23828125,1,0,0,0.9269,Gabbro_rect,4,0.927,1,13,0,13,0,1,,,,,,,,,,,,,
64441dd1c4c3ae59c00e4685,SCR,2024-06-21_17h50.09.871,LearnStrategy,2023.2.3,Win32,60.60606061,8,1,15,-0.39453125,-0.26171875,1,0,0,1.8815,Diorite_08,3,08,2,2,1.881,6,07,0.153645833,-0.255208333,1,0,0,1.8096,Diorite_rect,3,1.81,1,14,0,14,0,1,,,,,,,,,,,,,
64441dd1c4c3ae59c00e4685,SCR,2024-06-21_17h50.09.871,LearnStrategy,2023.2.3,Win32,60.60606061,8,1,16,-0.561197917,-0.087239583,1,0,0,2.1984,Pumice_04,8,04,3,1,2.198,3,15,0.381510417,-0.404947917,1,0,0,0.8935,Pumice_rect,8,0.893,1,15,0,15,0,1,,,,,,,,,,,,,
64441dd1c4c3ae59c00e4685,SCR,2024-06-21_17h50.09.871,LearnStrategy,2023.2.3,Win32,60.60606061,8,2,1,,,,,,,,7,12,,,,,,,,,,,,,1,12.655,0,,,,,,-0.407552083,-0.231770833,1,0,0,12.6554,Andesite_rect,0,0,0,0,1,
64441dd1c4c3ae59c00e4685,SCR,2024-06-21_17h50.09.871,LearnStrategy,2023.2.3,Win32,60.60606061,8,2,2,,,,,,,,7,02,,,,,,,,,,,,,8,5.893,0,,,,,,0.368489583,-0.395833333,1,0,0,5.893,Pumice_rect,1,0,1,0,1,
64441dd1c4c3ae59c00e4685,SCR,2024-06-21_17h50.09.871,LearnStrategy,2023.2.3,Win32,60.60606061,8,2,3,,,,,,,,8,13,,,,,,,,,,,,,8,1.26,1,,,,,,0.368489583,-0.395833333,1,0,0,1.2605,Pumice_rect,2,0,2,0,1,
64441dd1c4c3ae59c00e4685,SCR,2024-06-21_17h50.09.871,LearnStrategy,2023.2.3,Win32,60.60606061,8,2,4,,,,,,,,4,10,,,,,,,,,,,,,5,4.622,0,,,,,,-0.4140625,-0.40625,1,0,0,4.6221,Obsidian_rect,3,0,3,0,1,
64441dd1c4c3ae59c00e4685,SCR,2024-06-21_17h50.09.871,LearnStrategy,2023.2.3,Win32,60.60606061,8,2,5,,,,,,,,1,07,,,,,,,,,,,,,3,2.216,0,,,,,,0.125,-0.25390625,1,0,0,2.2157,Diorite_rect,4,0,4,0,1,
64441dd1c4c3ae59c00e4685,SCR,2024-06-21_17h50.09.871,LearnStrategy,2023.2.3,Win32,60.60606061,8,2,6,,,,,,,,3,16,,,,,,,,,,,,,3,1.162,1,,,,,,0.14453125,-0.23046875,1,0,0,1.1621,Diorite_rect,5,0,5,0,1,
64441dd1c4c3ae59c00e4685,SCR,2024-06-21_17h50.09.871,LearnStrategy,2023.2.3,Win32,60.60606061,8,2,7,,,,,,,,6,15,,,,,,,,,,,,,3,1.106,0,,,,,,0.131510417,-0.239583333,1,0,0,1.1055,Diorite_rect,6,0,6,0,1,
64441dd1c4c3ae59c00e4685,SCR,2024-06-21_17h50.09.871,LearnStrategy,2023.2.3,Win32,60.60606061,8,2,8,,,,,,,,4,01,,,,,,,,,,,,,1,5.155,0,,,,,,-0.403645833,-0.240885417,1,0,0,5.1551,Andesite_rect,7,0,7,0,1,
64441dd1c4c3ae59c00e4685,SCR,2024-06-21_17h50.09.871,LearnStrategy,2023.2.3,Win32,60.60606061,8,2,9,,,,,,,,8,10,,,,,,,,,,,,,8,1.612,1,,,,,,0.368489583,-0.40625,1,0,0,1.6123,Pumice_rect,8,0,8,0,1,
64441dd1c4c3ae59c00e4685,SCR,2024-06-21_17h50.09.871,LearnStrategy,2023.2.3,Win32,60.60606061,8,2,10,,,,,,,,5,08,,,,,,,,,,,,,5,1.288,1,,,,,,-0.390625,-0.399739583,1,0,0,1.2879,Obsidian_rect,9,0,9,0,1,
64441dd1c4c3ae59c00e4685,SCR,2024-06-21_17h50.09.871,LearnStrategy,2023.2.3,Win32,60.60606061,8,2,11,,,,,,,,6,12,,,,,,,,,,,,,3,2.172,0,,,,,,0.204427083,-0.23828125,1,0,0,2.1722,Diorite_rect,10,0,10,0,1,
64441dd1c4c3ae59c00e4685,SCR,2024-06-21_17h50.09.871,LearnStrategy,2023.2.3,Win32,60.60606061,8,2,12,,,,,,,,1,01,,,,,,,,,,,,,1,3.738,1,,,,,,-0.4140625,-0.234375,1,0,0,3.7378,Andesite_rect,11,0,11,0,1,
64441dd1c4c3ae59c00e4685,SCR,2024-06-21_17h50.09.871,LearnStrategy,2023.2.3,Win32,60.60606061,8,2,13,,,,,,,,3,02,,,,,,,,,,,,,3,1.597,1,,,,,,0.169270833,-0.255208333,1,0,0,1.5973,Diorite_rect,12,0,12,0,1,
64441dd1c4c3ae59c00e4685,SCR,2024-06-21_17h50.09.871,LearnStrategy,2023.2.3,Win32,60.60606061,8,2,14,,,,,,,,2,08,,,,,,,,,,,,,4,1.639,0,,,,,,0.364583333,-0.23046875,1,0,0,1.6386,Gabbro_rect,13,0,13,0,1,
64441dd1c4c3ae59c00e4685,SCR,2024-06-21_17h50.09.871,LearnStrategy,2023.2.3,Win32,60.60606061,8,2,15,,,,,,,,5,12,,,,,,,,,,,,,5,1.254,1,,,,,,-0.376302083,-0.3984375,1,0,0,1.2541,Obsidian_rect,14,0,14,0,1,
64441dd1c4c3ae59c00e4685,SCR,2024-06-21_17h50.09.871,LearnStrategy,2023.2.3,Win32,60.60606061,8,2,16,,,,,,,,2,01,,,,,,,,,,,,,4,6.672,0,,,,,,0.372395833,-0.244791667,1,0,0,6.6723,Gabbro_rect,15,0,15,0,1,
64441dd1c4c3ae59c00e4685,SCR,2024-06-21_17h50.09.871,LearnStrategy,2023.2.3,Win32,60.60606061,9,1,1,-0.40625,-0.25,1,0,0,1.5661,Diorite_08,3,08,2,2,1.566,2,02,0.147135417,-0.243489583,1,0,0,1.027,Diorite_rect,3,1.027,1,0,0,0,0,1,,,,,,,,,,,,,
64441dd1c4c3ae59c00e4685,SCR,2024-06-21_17h50.09.871,LearnStrategy,2023.2.3,Win32,60.60606061,9,1,2,0.22265625,0.252604167,1,0,0,1.4316,Obsidian_02,5,02,5,6,1.432,3,08,-0.384114583,-0.399739583,1,0,0,3.2602,Obsidian_rect,5,3.26,1,1,0,1,0,1,,,,,,,,,,,,,
64441dd1c4c3ae59c00e4685,SCR,2024-06-21_17h50.09.871,LearnStrategy,2023.2.3,Win32,60.60606061,9,1,3,-0.252604167,0.108072917,1,0,0,1.9983,Gabbro_03,4,03,4,3,1.998,2,12,0.390625,-0.25,1,0,0,0.9275,Gabbro_rect,4,0.928,1,2,0,2,0,1,,,,,,,,,,,,,
64441dd1c4c3ae59c00e4685,SCR,2024-06-21_17h50.09.871,LearnStrategy,2023.2.3,Win32,60.60606061,9,1,4,-0.544270833,-0.095052083,1,0,0,1.8477,Pumice_04,8,04,3,1,1.848,1,02,0.372395833,-0.40625,1,0,0,0.927,Pumice_rect,8,0.927,1,3,0,3,0,1,,,,,,,,,,,,,
64441dd1c4c3ae59c00e4685,SCR,2024-06-21_17h50.09.871,LearnStrategy,2023.2.3,Win32,60.60606061,9,1,5,-0.393229167,-0.265625,1,0,0,2.3258,Diorite_08,3,08,2,2,2.326,6,13,0.1328125,-0.235677083,1,0,0,0.7099,Diorite_rect,3,0.71,1,4,0,4,0,1,,,,,,,,,,,,,
64441dd1c4c3ae59c00e4685,SCR,2024-06-21_17h50.09.871,LearnStrategy,2023.2.3,Win32,60.60606061,9,1,6,0.377604167,0.239583333,1,0,0,1.7485,Obsidian_10,5,10,5,7,1.748,4,13,-0.397135417,-0.399739583,1,0,0,1.2436,Obsidian_rect,5,1.244,1,5,0,5,0,1,,,,,,,,,,,,,
64441dd1c4c3ae59c00e4685,SCR,2024-06-21_17h50.09.871,LearnStrategy,2023.2.3,Win32,60.60606061,9,1,7,-0.247395833,0.083333333,1,0,0,3.8485,Gabbro_03,4,03,4,3,3.849,4,08,0.385416667,-0.240885417,1,0,0,0.7699,Gabbro_rect,4,0.77,1,6,0,6,0,1,,,,,,,,,,,,,
64441dd1c4c3ae59c00e4685,SCR,2024-06-21_17h50.09.871,LearnStrategy,2023.2.3,Win32,60.60606061,9,1,8,-0.549479167,-0.083333333,1,0,0,2.165,Pumice_04,8,04,3,1,2.165,2,10,0.375,-0.395833333,1,0,0,0.8768,Pumice_rect,8,0.877,1,7,0,7,0,1,,,,,,,,,,,,,
64441dd1c4c3ae59c00e4685,SCR,2024-06-21_17h50.09.871,LearnStrategy,2023.2.3,Win32,60.60606061,9,1,9,-0.407552083,-0.233072917,1,0,0,0.9485,Diorite_08,3,08,2,2,0.948,4,16,0.147135417,-0.2421875,1,0,0,0.7932,Diorite_rect,3,0.793,1,8,0,8,0,1,,,,,,,,,,,,,
64441dd1c4c3ae59c00e4685,SCR,2024-06-21_17h50.09.871,LearnStrategy,2023.2.3,Win32,60.60606061,9,1,10,0.401041667,0.234375,1,0,0,1.7484,Obsidian_10,5,10,5,7,1.748,3,07,-0.403645833,-0.403645833,1,0,0,2.577,Obsidian_rect,5,2.577,1,9,0,9,0,1,,,,,,,,,,,,,
64441dd1c4c3ae59c00e4685,SCR,2024-06-21_17h50.09.871,LearnStrategy,2023.2.3,Win32,60.60606061,9,1,11,-0.252604167,0.100260417,1,0,0,1.132,Gabbro_03,4,03,4,3,1.132,7,15,0.393229167,-0.240885417,1,0,0,4.1777,Gabbro_rect,4,4.178,1,10,0,10,0,1,,,,,,,,,,,,,
64441dd1c4c3ae59c00e4685,SCR,2024-06-21_17h50.09.871,LearnStrategy,2023.2.3,Win32,60.60606061,9,1,12,-0.416666667,-0.268229167,1,0,0,1.0983,Diorite_08,3,08,2,2,1.098,1,16,0.143229167,-0.25,1,0,0,0.6606,Diorite_rect,3,0.661,1,11,0,11,0,1,,,,,,,,,,,,,
64441dd1c4c3ae59c00e4685,SCR,2024-06-21_17h50.09.871,LearnStrategy,2023.2.3,Win32,60.60606061,9,1,13,-0.544270833,-0.092447917,1,0,0,1.8811,Pumice_04,8,04,3,1,1.881,6,09,0.385416667,-0.389322917,1,0,0,0.7101,Pumice_rect,8,0.71,1,12,0,12,0,1,,,,,,,,,,,,,
64441dd1c4c3ae59c00e4685,SCR,2024-06-21_17h50.09.871,LearnStrategy,2023.2.3,Win32,60.60606061,9,1,14,0.373697917,0.264322917,1,0,0,1.6147,Obsidian_10,5,10,5,7,1.615,6,13,-0.41796875,-0.408854167,1,0,0,1.0603,Obsidian_rect,5,1.06,1,13,0,13,0,1,,,,,,,,,,,,,
64441dd1c4c3ae59c00e4685,SCR,2024-06-21_17h50.09.871,LearnStrategy,2023.2.3,Win32,60.60606061,9,1,15,-0.240885417,0.098958333,1,0,0,1.3314,Gabbro_03,4,03,4,3,1.331,7,10,0.35546875,-0.243489583,1,0,0,1.6938,Gabbro_rect,4,1.694,1,14,0,14,0,1,,,,,,,,,,,,,
64441dd1c4c3ae59c00e4685,SCR,2024-06-21_17h50.09.871,LearnStrategy,2023.2.3,Win32,60.60606061,9,1,16,-0.40234375,-0.263020833,1,0,0,0.9484,Diorite_08,3,08,2,2,0.948,7,06,0.110677083,-0.264322917,1,0,0,0.5935,Diorite_rect,3,0.593,1,15,0,15,0,1,,,,,,,,,,,,,
64441dd1c4c3ae59c00e4685,SCR,2024-06-21_17h50.09.871,LearnStrategy,2023.2.3,Win32,60.60606061,9,2,1,,,,,,,,8,15,,,,,,,,,,,,,8,2.804,1,,,,,,0.3984375,-0.416666667,1,0,0,2.8043,Pumice_rect,0,0,0,0,1,
64441dd1c4c3ae59c00e4685,SCR,2024-06-21_17h50.09.871,LearnStrategy,2023.2.3,Win32,60.60606061,9,2,2,,,,,,,,5,11,,,,,,,,,,,,,5,2.627,1,,,,,,-0.388020833,-0.40625,1,0,0,2.6271,Obsidian_rect,1,0,1,0,1,
64441dd1c4c3ae59c00e4685,SCR,2024-06-21_17h50.09.871,LearnStrategy,2023.2.3,Win32,60.60606061,9,2,3,,,,,,,,2,11,,,,,,,,,,,,,1,10.281,0,,,,,,-0.40234375,-0.240885417,1,0,0,10.2807,Andesite_rect,2,0,2,0,1,
64441dd1c4c3ae59c00e4685,SCR,2024-06-21_17h50.09.871,LearnStrategy,2023.2.3,Win32,60.60606061,9,2,4,,,,,,,,3,09,,,,,,,,,,,,,3,1.097,1,,,,,,0.139322917,-0.239583333,1,0,0,1.0971,Diorite_rect,3,0,3,0,1,
64441dd1c4c3ae59c00e4685,SCR,2024-06-21_17h50.09.871,LearnStrategy,2023.2.3,Win32,60.60606061,9,2,5,,,,,,,,4,05,,,,,,,,,,,,,2,2.372,0,,,,,,-0.145833333,-0.25390625,1,0,0,2.3719,Basalt_rect,4,0,4,0,1,
64441dd1c4c3ae59c00e4685,SCR,2024-06-21_17h50.09.871,LearnStrategy,2023.2.3,Win32,60.60606061,9,2,6,,,,,,,,1,05,,,,,,,,,,,,,6,1.909,0,,,,,,-0.115885417,-0.411458333,1,0,0,1.9094,Pegmatite_rect,5,0,5,0,1,
64441dd1c4c3ae59c00e4685,SCR,2024-06-21_17h50.09.871,LearnStrategy,2023.2.3,Win32,60.60606061,9,2,7,,,,,,,,4,12,,,,,,,,,,,,,7,1.744,0,,,,,,0.111979167,-0.399739583,1,0,0,1.7441,Peridotite_rect,6,0,6,0,1,
64441dd1c4c3ae59c00e4685,SCR,2024-06-21_17h50.09.871,LearnStrategy,2023.2.3,Win32,60.60606061,9,2,8,,,,,,,,6,16,,,,,,,,,,,,,3,1.252,0,,,,,,0.14453125,-0.23828125,1,0,0,1.2521,Diorite_rect,7,0,7,0,1,
64441dd1c4c3ae59c00e4685,SCR,2024-06-21_17h50.09.871,LearnStrategy,2023.2.3,Win32,60.60606061,9,2,9,,,,,,,,1,03,,,,,,,,,,,,,2,1.822,0,,,,,,-0.13671875,-0.23046875,1,0,0,1.8215,Basalt_rect,8,0,8,0,1,
64441dd1c4c3ae59c00e4685,SCR,2024-06-21_17h50.09.871,LearnStrategy,2023.2.3,Win32,60.60606061,9,2,10,,,,,,,,7,16,,,,,,,,,,,,,7,1.305,1,,,,,,0.098958333,-0.393229167,1,0,0,1.3052,Peridotite_rect,9,0,9,0,1,
64441dd1c4c3ae59c00e4685,SCR,2024-06-21_17h50.09.871,LearnStrategy,2023.2.3,Win32,60.60606061,9,2,11,,,,,,,,3,14,,,,,,,,,,,,,3,2.488,1,,,,,,0.157552083,-0.255208333,1,0,0,2.4884,Diorite_rect,10,0,10,0,1,
64441dd1c4c3ae59c00e4685,SCR,2024-06-21_17h50.09.871,LearnStrategy,2023.2.3,Win32,60.60606061,9,2,12,,,,,,,,8,14,,,,,,,,,,,,,8,1.16,1,,,,,,0.329427083,-0.408854167,1,0,0,1.1595,Pumice_rect,11,0,11,0,1,
64441dd1c4c3ae59c00e4685,SCR,2024-06-21_17h50.09.871,LearnStrategy,2023.2.3,Win32,60.60606061,9,2,13,,,,,,,,7,05,,,,,,,,,,,,,2,1.939,0,,,,,,-0.158854167,-0.26171875,1,0,0,1.939,Basalt_rect,12,0,12,0,1,
64441dd1c4c3ae59c00e4685,SCR,2024-06-21_17h50.09.871,LearnStrategy,2023.2.3,Win32,60.60606061,9,2,14,,,,,,,,2,09,,,,,,,,,,,,,4,2.195,0,,,,,,0.388020833,-0.252604167,1,0,0,2.195,Gabbro_rect,13,0,13,0,1,
64441dd1c4c3ae59c00e4685,SCR,2024-06-21_17h50.09.871,LearnStrategy,2023.2.3,Win32,60.60606061,9,2,15,,,,,,,,5,06,,,,,,,,,,,,,5,3.094,1,,,,,,-0.38671875,-0.408854167,1,0,0,3.0938,Obsidian_rect,14,0,14,0,1,
64441dd1c4c3ae59c00e4685,SCR,2024-06-21_17h50.09.871,LearnStrategy,2023.2.3,Win32,60.60606061,9,2,16,,,,,,,,6,03,,,,,,,,,,,,,3,1.353,0,,,,,,0.111979167,-0.236979167,1,0,0,1.3529,Diorite_rect,15,0,15,0,1,
64441dd1c4c3ae59c00e4685,SCR,2024-06-21_17h50.09.871,LearnStrategy,2023.2.3,Win32,60.60606061,,,,,,,,,,,,,,,,,,,,,,,,,,,,,,,,,,,,,,,,,,,,,0
64441dd1c4c3ae59c00e4685,SCR,2024-06-21_17h50.09.871,LearnStrategy,2023.2.3,Win32,60.60606061,,,,,,,,,,,,,,,,,,,,,,,,,,,,,,,,,,,,,,,,,,,,,
64441dd1c4c3ae59c00e4685,SCR,2024-06-21_17h50.09.871,LearnStrategy,2023.2.3,Win32,60.60606061,,,,,,,,,,,2,02,1,1,,,,,,,,,,,,,,,,,,,,,,,,,,,,,,,
64441dd1c4c3ae59c00e4685,SCR,2024-06-21_17h50.09.871,LearnStrategy,2023.2.3,Win32,60.60606061,,,,,,,,,,,7,07,1,2,,,,,,,,,,,,,,,,,,,,,,,,,,,,,,,
64441dd1c4c3ae59c00e4685,SCR,2024-06-21_17h50.09.871,LearnStrategy,2023.2.3,Win32,60.60606061,,,,,,,,,,,4,13,1,3,,,,,,,,,,,,,,,,,,,,,,,,,,,,,,,
64441dd1c4c3ae59c00e4685,SCR,2024-06-21_17h50.09.871,LearnStrategy,2023.2.3,Win32,60.60606061,,,,,,,,,,,5,05,1,4,,,,,,,,,,,,,,,,,,,,,,,,,,,,,,,
64441dd1c4c3ae59c00e4685,SCR,2024-06-21_17h50.09.871,LearnStrategy,2023.2.3,Win32,60.60606061,,,,,,,,,,,4,14,1,5,,,,,,,,,,,,,,,,,,,,,,,,,,,,,,,
64441dd1c4c3ae59c00e4685,SCR,2024-06-21_17h50.09.871,LearnStrategy,2023.2.3,Win32,60.60606061,,,,,,,,,,,7,13,1,6,,,,,,,,,,,,,,,,,,,,,,,,,,,,,,,
64441dd1c4c3ae59c00e4685,SCR,2024-06-21_17h50.09.871,LearnStrategy,2023.2.3,Win32,60.60606061,,,,,,,,,,,4,16,1,7,,,,,,,,,,,,,,,,,,,,,,,,,,,,,,,
64441dd1c4c3ae59c00e4685,SCR,2024-06-21_17h50.09.871,LearnStrategy,2023.2.3,Win32,60.60606061,,,,,,,,,,,4,11,1,8,,,,,,,,,,,,,,,,,,,,,,,,,,,,,,,
64441dd1c4c3ae59c00e4685,SCR,2024-06-21_17h50.09.871,LearnStrategy,2023.2.3,Win32,60.60606061,,,,,,,,,,,6,06,2,1,,,,,,,,,,,,,,,,,,,,,,,,,,,,,,,
64441dd1c4c3ae59c00e4685,SCR,2024-06-21_17h50.09.871,LearnStrategy,2023.2.3,Win32,60.60606061,,,,,,,,,,,3,08,2,2,,,,,,,,,,,,,,,,,,,,,,,,,,,,,,,
64441dd1c4c3ae59c00e4685,SCR,2024-06-21_17h50.09.871,LearnStrategy,2023.2.3,Win32,60.60606061,,,,,,,,,,,1,04,2,3,,,,,,,,,,,,,,,,,,,,,,,,,,,,,,,
64441dd1c4c3ae59c00e4685,SCR,2024-06-21_17h50.09.871,LearnStrategy,2023.2.3,Win32,60.60606061,,,,,,,,,,,5,16,2,4,,,,,,,,,,,,,,,,,,,,,,,,,,,,,,,
64441dd1c4c3ae59c00e4685,SCR,2024-06-21_17h50.09.871,LearnStrategy,2023.2.3,Win32,60.60606061,,,,,,,,,,,8,05,2,5,,,,,,,,,,,,,,,,,,,,,,,,,,,,,,,
64441dd1c4c3ae59c00e4685,SCR,2024-06-21_17h50.09.871,LearnStrategy,2023.2.3,Win32,60.60606061,,,,,,,,,,,6,07,2,6,,,,,,,,,,,,,,,,,,,,,,,,,,,,,,,
64441dd1c4c3ae59c00e4685,SCR,2024-06-21_17h50.09.871,LearnStrategy,2023.2.3,Win32,60.60606061,,,,,,,,,,,2,16,2,7,,,,,,,,,,,,,,,,,,,,,,,,,,,,,,,
64441dd1c4c3ae59c00e4685,SCR,2024-06-21_17h50.09.871,LearnStrategy,2023.2.3,Win32,60.60606061,,,,,,,,,,,1,02,2,8,,,,,,,,,,,,,,,,,,,,,,,,,,,,,,,
64441dd1c4c3ae59c00e4685,SCR,2024-06-21_17h50.09.871,LearnStrategy,2023.2.3,Win32,60.60606061,,,,,,,,,,,8,04,3,1,,,,,,,,,,,,,,,,,,,,,,,,,,,,,,,
64441dd1c4c3ae59c00e4685,SCR,2024-06-21_17h50.09.871,LearnStrategy,2023.2.3,Win32,60.60606061,,,,,,,,,,,5,07,3,2,,,,,,,,,,,,,,,,,,,,,,,,,,,,,,,
64441dd1c4c3ae59c00e4685,SCR,2024-06-21_17h50.09.871,LearnStrategy,2023.2.3,Win32,60.60606061,,,,,,,,,,,3,15,3,3,,,,,,,,,,,,,,,,,,,,,,,,,,,,,,,
64441dd1c4c3ae59c00e4685,SCR,2024-06-21_17h50.09.871,LearnStrategy,2023.2.3,Win32,60.60606061,,,,,,,,,,,1,16,3,4,,,,,,,,,,,,,,,,,,,,,,,,,,,,,,,
64441dd1c4c3ae59c00e4685,SCR,2024-06-21_17h50.09.871,LearnStrategy,2023.2.3,Win32,60.60606061,,,,,,,,,,,7,15,3,5,,,,,,,,,,,,,,,,,,,,,,,,,,,,,,,
64441dd1c4c3ae59c00e4685,SCR,2024-06-21_17h50.09.871,LearnStrategy,2023.2.3,Win32,60.60606061,,,,,,,,,,,8,16,3,6,,,,,,,,,,,,,,,,,,,,,,,,,,,,,,,
64441dd1c4c3ae59c00e4685,SCR,2024-06-21_17h50.09.871,LearnStrategy,2023.2.3,Win32,60.60606061,,,,,,,,,,,1,10,3,7,,,,,,,,,,,,,,,,,,,,,,,,,,,,,,,
64441dd1c4c3ae59c00e4685,SCR,2024-06-21_17h50.09.871,LearnStrategy,2023.2.3,Win32,60.60606061,,,,,,,,,,,8,06,3,8,,,,,,,,,,,,,,,,,,,,,,,,,,,,,,,
64441dd1c4c3ae59c00e4685,SCR,2024-06-21_17h50.09.871,LearnStrategy,2023.2.3,Win32,60.60606061,,,,,,,,,,,1,09,4,1,,,,,,,,,,,,,,,,,,,,,,,,,,,,,,,
64441dd1c4c3ae59c00e4685,SCR,2024-06-21_17h50.09.871,LearnStrategy,2023.2.3,Win32,60.60606061,,,,,,,,,,,2,05,4,2,,,,,,,,,,,,,,,,,,,,,,,,,,,,,,,
64441dd1c4c3ae59c00e4685,SCR,2024-06-21_17h50.09.871,LearnStrategy,2023.2.3,Win32,60.60606061,,,,,,,,,,,4,03,4,3,,,,,,,,,,,,,,,,,,,,,,,,,,,,,,,
64441dd1c4c3ae59c00e4685,SCR,2024-06-21_17h50.09.871,LearnStrategy,2023.2.3,Win32,60.60606061,,,,,,,,,,,8,02,4,4,,,,,,,,,,,,,,,,,,,,,,,,,,,,,,,
64441dd1c4c3ae59c00e4685,SCR,2024-06-21_17h50.09.871,LearnStrategy,2023.2.3,Win32,60.60606061,,,,,,,,,,,3,13,4,5,,,,,,,,,,,,,,,,,,,,,,,,,,,,,,,
64441dd1c4c3ae59c00e4685,SCR,2024-06-21_17h50.09.871,LearnStrategy,2023.2.3,Win32,60.60606061,,,,,,,,,,,8,03,4,6,,,,,,,,,,,,,,,,,,,,,,,,,,,,,,,
64441dd1c4c3ae59c00e4685,SCR,2024-06-21_17h50.09.871,LearnStrategy,2023.2.3,Win32,60.60606061,,,,,,,,,,,2,10,4,7,,,,,,,,,,,,,,,,,,,,,,,,,,,,,,,
64441dd1c4c3ae59c00e4685,SCR,2024-06-21_17h50.09.871,LearnStrategy,2023.2.3,Win32,60.60606061,,,,,,,,,,,6,13,4,8,,,,,,,,,,,,,,,,,,,,,,,,,,,,,,,
64441dd1c4c3ae59c00e4685,SCR,2024-06-21_17h50.09.871,LearnStrategy,2023.2.3,Win32,60.60606061,,,,,,,,,,,2,12,5,1,,,,,,,,,,,,,,,,,,,,,,,,,,,,,,,
64441dd1c4c3ae59c00e4685,SCR,2024-06-21_17h50.09.871,LearnStrategy,2023.2.3,Win32,60.60606061,,,,,,,,,,,2,04,5,2,,,,,,,,,,,,,,,,,,,,,,,,,,,,,,,
64441dd1c4c3ae59c00e4685,SCR,2024-06-21_17h50.09.871,LearnStrategy,2023.2.3,Win32,60.60606061,,,,,,,,,,,4,08,5,3,,,,,,,,,,,,,,,,,,,,,,,,,,,,,,,
64441dd1c4c3ae59c00e4685,SCR,2024-06-21_17h50.09.871,LearnStrategy,2023.2.3,Win32,60.60606061,,,,,,,,,,,5,09,5,4,,,,,,,,,,,,,,,,,,,,,,,,,,,,,,,
64441dd1c4c3ae59c00e4685,SCR,2024-06-21_17h50.09.871,LearnStrategy,2023.2.3,Win32,60.60606061,,,,,,,,,,,7,06,5,5,,,,,,,,,,,,,,,,,,,,,,,,,,,,,,,
64441dd1c4c3ae59c00e4685,SCR,2024-06-21_17h50.09.871,LearnStrategy,2023.2.3,Win32,60.60606061,,,,,,,,,,,5,02,5,6,,,,,,,,,,,,,,,,,,,,,,,,,,,,,,,
64441dd1c4c3ae59c00e4685,SCR,2024-06-21_17h50.09.871,LearnStrategy,2023.2.3,Win32,60.60606061,,,,,,,,,,,5,10,5,7,,,,,,,,,,,,,,,,,,,,,,,,,,,,,,,
64441dd1c4c3ae59c00e4685,SCR,2024-06-21_17h50.09.871,LearnStrategy,2023.2.3,Win32,60.60606061,,,,,,,,,,,6,05,5,8,,,,,,,,,,,,,,,,,,,,,,,,,,,,,,,
64441dd1c4c3ae59c00e4685,SCR,2024-06-21_17h50.09.871,LearnStrategy,2023.2.3,Win32,60.60606061,,,,,,,,,,,7,10,6,1,,,,,,,,,,,,,,,,,,,,,,,,,,,,,,,
64441dd1c4c3ae59c00e4685,SCR,2024-06-21_17h50.09.871,LearnStrategy,2023.2.3,Win32,60.60606061,,,,,,,,,,,6,08,6,2,,,,,,,,,,,,,,,,,,,,,,,,,,,,,,,
64441dd1c4c3ae59c00e4685,SCR,2024-06-21_17h50.09.871,LearnStrategy,2023.2.3,Win32,60.60606061,,,,,,,,,,,3,07,6,3,,,,,,,,,,,,,,,,,,,,,,,,,,,,,,,
64441dd1c4c3ae59c00e4685,SCR,2024-06-21_17h50.09.871,LearnStrategy,2023.2.3,Win32,60.60606061,,,,,,,,,,,6,09,6,4,,,,,,,,,,,,,,,,,,,,,,,,,,,,,,,
64441dd1c4c3ae59c00e4685,SCR,2024-06-21_17h50.09.871,LearnStrategy,2023.2.3,Win32,60.60606061,,,,,,,,,,,3,12,6,5,,,,,,,,,,,,,,,,,,,,,,,,,,,,,,,
64441dd1c4c3ae59c00e4685,SCR,2024-06-21_17h50.09.871,LearnStrategy,2023.2.3,Win32,60.60606061,,,,,,,,,,,7,14,6,6,,,,,,,,,,,,,,,,,,,,,,,,,,,,,,,
64441dd1c4c3ae59c00e4685,SCR,2024-06-21_17h50.09.871,LearnStrategy,2023.2.3,Win32,60.60606061,,,,,,,,,,,1,11,6,7,,,,,,,,,,,,,,,,,,,,,,,,,,,,,,,
64441dd1c4c3ae59c00e4685,SCR,2024-06-21_17h50.09.871,LearnStrategy,2023.2.3,Win32,60.60606061,,,,,,,,,,,3,11,6,8,,,,,,,,,,,,,,,,,,,,,,,,,,,,,,,