participant,condition,date,expName,psychopyVersion,OS,frameRate,block,phase,trial,learn_mouse_2.x,learn_mouse_2.y,learn_mouse_2.leftButton,learn_mouse_2.midButton,learn_mouse_2.rightButton,learn_mouse_2.time,learn_mouse_2.clicked_name,cat,token,row,col,t_select,cat_mouse_l.x,cat_mouse_l.y,cat_mouse_l.leftButton,cat_mouse_l.midButton,cat_mouse_l.rightButton,cat_mouse_l.time,cat_mouse_l.clicked_name,resp,t_resp,corr,train_trials.thisRepN,train_trials.thisTrialN,train_trials.thisN,train_trials.thisIndex,train_trials.ran,cat_mouse_t.x,cat_mouse_t.y,cat_mouse_t.leftButton,cat_mouse_t.midButton,cat_mouse_t.rightButton,cat_mouse_t.time,cat_mouse_t.clicked_name,test_trials.thisRepN,test_trials.thisTrialN,test_trials.thisN,test_trials.thisIndex,test_trials.ran,Bonus
645eb589e88d24fd5d75c724,TCN,2024-06-11_11h04.58.334,LearnStrategy,2023.2.3,Win32,59.88023952,,,,,,,,,,,,,,,,,,,,,,,,,,,,,,,,,,,,,,,,,,,
645eb589e88d24fd5d75c724,TCN,2024-06-11_11h04.58.334,LearnStrategy,2023.2.3,Win32,59.88023952,1,1,1,-0.036805556,-0.011805556,1,0,0,1.9836,rock_grid_rect_2,6,13,-1,-1,1.984,-0.31875,-0.254861111,1,0,0,1.7597,Andesite_rect,1,1.76,0,0,0,0,0,1,,,,,,,,,,,,,
645eb589e88d24fd5d75c724,TCN,2024-06-11_11h04.58.334,LearnStrategy,2023.2.3,Win32,59.88023952,1,1,2,0.068055556,-0.010416667,1,0,0,1.9171,rock_grid_rect_2,4,10,-1,-1,1.917,0.104166667,-0.260416667,1,0,0,1.1976,Diorite_rect,3,1.198,0,1,0,1,0,1,,,,,,,,,,,,,
645eb589e88d24fd5d75c724,TCN,2024-06-11_11h04.58.334,LearnStrategy,2023.2.3,Win32,59.88023952,1,1,3,0.045833333,-0.015972222,1,0,0,0.9498,rock_grid_rect_2,3,12,-1,-1,0.95,-0.089583333,-0.245833333,1,0,0,0.9642,Basalt_rect,2,0.964,0,2,0,2,0,1,,,,,,,,,,,,,
645eb589e88d24fd5d75c724,TCN,2024-06-11_11h04.58.334,LearnStrategy,2023.2.3,Win32,59.88023952,1,1,4,0.043055556,-0.024305556,1,0,0,0.8334,rock_grid_rect_2,7,10,-1,-1,0.833,-0.104861111,-0.253472222,1,0,0,1.0143,Basalt_rect,2,1.014,0,3,0,3,0,1,,,,,,,,,,,,,
645eb589e88d24fd5d75c724,TCN,2024-06-11_11h04.58.334,LearnStrategy,2023.2.3,Win32,59.88023952,1,1,5,0.022222222,-0.023611111,1,0,0,0.8833,rock_grid_rect_2,1,06,-1,-1,0.883,0.06875,-0.260416667,1,0,0,0.5306,Diorite_rect,3,0.531,0,4,0,4,0,1,,,,,,,,,,,,,
645eb589e88d24fd5d75c724,TCN,2024-06-11_11h04.58.334,LearnStrategy,2023.2.3,Win32,59.88023952,1,1,6,0.0125,-0.023611111,1,0,0,1.05,rock_grid_rect_2,4,01,-1,-1,1.05,0.094444444,-0.389583333,1,0,0,1.5647,Peridotite_rect,7,1.565,0,5,0,5,0,1,,,,,,,,,,,,,
645eb589e88d24fd5d75c724,TCN,2024-06-11_11h04.58.334,LearnStrategy,2023.2.3,Win32,59.88023952,1,1,7,0.024305556,0.014583333,1,0,0,0.5665,rock_grid_rect_2,8,10,-1,-1,0.566,0.129861111,-0.25,1,0,0,0.5139,Diorite_rect,3,0.514,0,6,0,6,0,1,,,,,,,,,,,,,
645eb589e88d24fd5d75c724,TCN,2024-06-11_11h04.58.334,LearnStrategy,2023.2.3,Win32,59.88023952,1,1,8,0.013194444,-0.009027778,1,0,0,0.9997,rock_grid_rect_2,2,12,-1,-1,1,-0.088888889,-0.381944444,1,0,0,1.0143,Pegmatite_rect,6,1.014,0,7,0,7,0,1,,,,,,,,,,,,,
645eb589e88d24fd5d75c724,TCN,2024-06-11_11h04.58.334,LearnStrategy,2023.2.3,Win32,59.88023952,1,1,9,-0.011805556,-0.000694444,1,0,0,0.6664,rock_grid_rect_2,3,06,-1,-1,0.666,-0.357638889,-0.379861111,1,0,0,1.6649,Obsidian_rect,5,1.665,0,8,0,8,0,1,,,,,,,,,,,,,
645eb589e88d24fd5d75c724,TCN,2024-06-11_11h04.58.334,LearnStrategy,2023.2.3,Win32,59.88023952,1,1,10,-0.018055556,-0.014583333,1,0,0,0.7665,rock_grid_rect_2,5,02,-1,-1,0.767,-0.181944444,-0.257638889,1,0,0,0.7641,Basalt_rect,2,0.764,0,9,0,9,0,1,,,,,,,,,,,,,
645eb589e88d24fd5d75c724,TCN,2024-06-11_11h04.58.334,LearnStrategy,2023.2.3,Win32,59.88023952,1,1,11,-0.054166667,-0.021527778,1,0,0,0.7331,rock_grid_rect_2,8,13,-1,-1,0.733,-0.141666667,-0.232638889,1,0,0,4.317,Basalt_rect,2,4.317,0,10,0,10,0,1,,,,,,,,,,,,,
645eb589e88d24fd5d75c724,TCN,2024-06-11_11h04.58.334,LearnStrategy,2023.2.3,Win32,59.88023952,1,1,12,-0.035416667,-0.023611111,1,0,0,0.6662,rock_grid_rect_2,6,16,-1,-1,0.666,0.030555556,-0.232638889,1,0,0,1.4316,Diorite_rect,3,1.432,0,11,0,11,0,1,,,,,,,,,,,,,
645eb589e88d24fd5d75c724,TCN,2024-06-11_11h04.58.334,LearnStrategy,2023.2.3,Win32,59.88023952,1,1,13,0.003472222,-0.009722222,1,0,0,1.0168,rock_grid_rect_2,7,15,-1,-1,1.017,-0.307638889,-0.247222222,1,0,0,1.2313,Andesite_rect,1,1.231,0,12,0,12,0,1,,,,,,,,,,,,,
645eb589e88d24fd5d75c724,TCN,2024-06-11_11h04.58.334,LearnStrategy,2023.2.3,Win32,59.88023952,1,1,14,-0.007638889,-0.020833333,1,0,0,0.7833,rock_grid_rect_2,1,09,-1,-1,0.783,0.172222222,-0.388194444,1,0,0,2.8159,Peridotite_rect,7,2.816,0,13,0,13,0,1,,,,,,,,,,,,,
645eb589e88d24fd5d75c724,TCN,2024-06-11_11h04.58.334,LearnStrategy,2023.2.3,Win32,59.88023952,1,1,15,0.009027778,-0.018055556,1,0,0,1.0168,rock_grid_rect_2,5,09,-1,-1,1.017,-0.326388889,-0.389583333,1,0,0,2.0985,Obsidian_rect,5,2.099,1,14,0,14,0,1,,,,,,,,,,,,,
645eb589e88d24fd5d75c724,TCN,2024-06-11_11h04.58.334,LearnStrategy,2023.2.3,Win32,59.88023952,1,1,16,-0.042361111,-0.0125,1,0,0,0.8,rock_grid_rect_2,2,04,-1,-1,0.8,-0.322916667,-0.379861111,1,0,0,2.2153,Obsidian_rect,5,2.215,0,15,0,15,0,1,,,,,,,,,,,,,
645eb589e88d24fd5d75c724,TCN,2024-06-11_11h04.58.334,LearnStrategy,2023.2.3,Win32,59.88023952,1,2,1,,,,,,,,1,14,,,,,,,,,,,7,2.965,0,,,,,,0.209027778,-0.394444444,1,0,0,2.9654,Peridotite_rect,0,0,0,0,1,
645eb589e88d24fd5d75c724,TCN,2024-06-11_11h04.58.334,LearnStrategy,2023.2.3,Win32,59.88023952,1,2,2,,,,,,,,4,11,,,,,,,,,,,2,1.994,0,,,,,,-0.046527778,-0.256944444,1,0,0,1.9941,Basalt_rect,1,0,1,0,1,
645eb589e88d24fd5d75c724,TCN,2024-06-11_11h04.58.334,LearnStrategy,2023.2.3,Win32,59.88023952,1,2,3,,,,,,,,8,08,,,,,,,,,,,1,1.048,0,,,,,,-0.319444444,-0.25,1,0,0,1.0476,Andesite_rect,2,0,2,0,1,
645eb589e88d24fd5d75c724,TCN,2024-06-11_11h04.58.334,LearnStrategy,2023.2.3,Win32,59.88023952,1,2,4,,,,,,,,5,12,,,,,,,,,,,5,1.214,1,,,,,,-0.326388889,-0.397222222,1,0,0,1.214,Obsidian_rect,3,0,3,0,1,
645eb589e88d24fd5d75c724,TCN,2024-06-11_11h04.58.334,LearnStrategy,2023.2.3,Win32,59.88023952,1,2,5,,,,,,,,2,05,,,,,,,,,,,2,0.797,1,,,,,,-0.196527778,-0.263194444,1,0,0,0.7974,Basalt_rect,4,0,4,0,1,
645eb589e88d24fd5d75c724,TCN,2024-06-11_11h04.58.334,LearnStrategy,2023.2.3,Win32,59.88023952,1,2,6,,,,,,,,3,15,,,,,,,,,,,2,0.33,0,,,,,,-0.147222222,-0.268055556,1,0,0,0.3296,Basalt_rect,5,0,5,0,1,
645eb589e88d24fd5d75c724,TCN,2024-06-11_11h04.58.334,LearnStrategy,2023.2.3,Win32,59.88023952,1,2,7,,,,,,,,2,16,,,,,,,,,,,3,0.28,0,,,,,,0.042361111,-0.265277778,1,0,0,0.2798,Diorite_rect,6,0,6,0,1,
645eb589e88d24fd5d75c724,TCN,2024-06-11_11h04.58.334,LearnStrategy,2023.2.3,Win32,59.88023952,1,2,8,,,,,,,,7,04,,,,,,,,,,,7,0.664,1,,,,,,0.058333333,-0.383333333,1,0,0,0.664,Peridotite_rect,7,0,7,0,1,
645eb589e88d24fd5d75c724,TCN,2024-06-11_11h04.58.334,LearnStrategy,2023.2.3,Win32,59.88023952,1,2,9,,,,,,,,4,08,,,,,,,,,,,4,0.53,1,,,,,,0.341666667,-0.252777778,1,0,0,0.53,Gabbro_rect,8,0,8,0,1,
645eb589e88d24fd5d75c724,TCN,2024-06-11_11h04.58.334,LearnStrategy,2023.2.3,Win32,59.88023952,1,2,10,,,,,,,,3,10,,,,,,,,,,,2,0.48,0,,,,,,-0.036111111,-0.247916667,1,0,0,0.4803,Basalt_rect,9,0,9,0,1,
645eb589e88d24fd5d75c724,TCN,2024-06-11_11h04.58.334,LearnStrategy,2023.2.3,Win32,59.88023952,1,2,11,,,,,,,,6,05,,,,,,,,,,,6,1.565,1,,,,,,-0.057638889,-0.378472222,1,0,0,1.5647,Pegmatite_rect,10,0,10,0,1,
645eb589e88d24fd5d75c724,TCN,2024-06-11_11h04.58.334,LearnStrategy,2023.2.3,Win32,59.88023952,1,2,12,,,,,,,,7,05,,,,,,,,,,,3,0.56,0,,,,,,0.072222222,-0.2625,1,0,0,0.5595,Diorite_rect,11,0,11,0,1,
645eb589e88d24fd5d75c724,TCN,2024-06-11_11h04.58.334,LearnStrategy,2023.2.3,Win32,59.88023952,1,2,13,,,,,,,,6,08,,,,,,,,,,,7,0.497,0,,,,,,0.042361111,-0.397222222,1,0,0,0.4972,Peridotite_rect,12,0,12,0,1,
645eb589e88d24fd5d75c724,TCN,2024-06-11_11h04.58.334,LearnStrategy,2023.2.3,Win32,59.88023952,1,2,14,,,,,,,,1,05,,,,,,,,,,,2,0.447,0,,,,,,-0.101388889,-0.247916667,1,0,0,0.4471,Basalt_rect,13,0,13,0,1,
645eb589e88d24fd5d75c724,TCN,2024-06-11_11h04.58.334,LearnStrategy,2023.2.3,Win32,59.88023952,1,2,15,,,,,,,,5,11,,,,,,,,,,,5,1.098,1,,,,,,-0.333333333,-0.420138889,1,0,0,1.0976,Obsidian_rect,14,0,14,0,1,
645eb589e88d24fd5d75c724,TCN,2024-06-11_11h04.58.334,LearnStrategy,2023.2.3,Win32,59.88023952,1,2,16,,,,,,,,8,02,,,,,,,,,,,2,0.464,0,,,,,,-0.186111111,-0.256944444,1,0,0,0.4637,Basalt_rect,15,0,15,0,1,
645eb589e88d24fd5d75c724,TCN,2024-06-11_11h04.58.334,LearnStrategy,2023.2.3,Win32,59.88023952,2,1,1,-0.078472222,0.010416667,1,0,0,0.8668,rock_grid_rect_2,1,04,-1,-1,0.867,-0.079861111,-0.25,1,0,0,2.3153,Basalt_rect,2,2.315,0,0,0,0,0,1,,,,,,,,,,,,,
645eb589e88d24fd5d75c724,TCN,2024-06-11_11h04.58.334,LearnStrategy,2023.2.3,Win32,59.88023952,2,1,2,-0.034722222,-0.017361111,1,0,0,1.0333,rock_grid_rect_2,4,13,-1,-1,1.033,-0.384027778,-0.234722222,1,0,0,2.1653,Andesite_rect,1,2.165,0,1,0,1,0,1,,,,,,,,,,,,,
645eb589e88d24fd5d75c724,TCN,2024-06-11_11h04.58.334,LearnStrategy,2023.2.3,Win32,59.88023952,2,1,3,-0.074305556,-0.004166667,1,0,0,0.8167,rock_grid_rect_2,3,16,-1,-1,0.817,0.085416667,-0.260416667,1,0,0,1.5313,Diorite_rect,3,1.531,1,2,0,2,0,1,,,,,,,,,,,,,
645eb589e88d24fd5d75c724,TCN,2024-06-11_11h04.58.334,LearnStrategy,2023.2.3,Win32,59.88023952,2,1,4,-0.018055556,-0.020138889,1,0,0,1.0334,rock_grid_rect_2,6,03,-1,-1,1.033,-0.315277778,-0.392361111,1,0,0,1.2815,Obsidian_rect,5,1.282,0,3,0,3,0,1,,,,,,,,,,,,,
645eb589e88d24fd5d75c724,TCN,2024-06-11_11h04.58.334,LearnStrategy,2023.2.3,Win32,59.88023952,2,1,5,-0.076388889,0.006944444,1,0,0,0.7165,rock_grid_rect_2,2,09,-1,-1,0.716,-0.052777778,-0.390277778,1,0,0,2.1488,Pegmatite_rect,6,2.149,0,4,0,4,0,1,,,,,,,,,,,,,
645eb589e88d24fd5d75c724,TCN,2024-06-11_11h04.58.334,LearnStrategy,2023.2.3,Win32,59.88023952,2,1,6,-0.026388889,-0.019444444,1,0,0,0.95,rock_grid_rect_2,8,03,-1,-1,0.95,0.058333333,-0.39375,1,0,0,3.0825,Peridotite_rect,7,3.082,0,5,0,5,0,1,,,,,,,,,,,,,
645eb589e88d24fd5d75c724,TCN,2024-06-11_11h04.58.334,LearnStrategy,2023.2.3,Win32,59.88023952,2,1,7,-0.004166667,-0.016666667,1,0,0,1.0169,rock_grid_rect_2,7,06,-1,-1,1.017,-0.333333333,-0.382638889,1,0,0,1.6316,Obsidian_rect,5,1.632,0,6,0,6,0,1,,,,,,,,,,,,,
645eb589e88d24fd5d75c724,TCN,2024-06-11_11h04.58.334,LearnStrategy,2023.2.3,Win32,59.88023952,2,1,8,-0.094444444,0.002083333,1,0,0,0.9668,rock_grid_rect_2,7,12,-1,-1,0.967,-0.156944444,-0.38125,1,0,0,1.4647,Pegmatite_rect,6,1.465,0,7,0,7,0,1,,,,,,,,,,,,,
645eb589e88d24fd5d75c724,TCN,2024-06-11_11h04.58.334,LearnStrategy,2023.2.3,Win32,59.88023952,2,1,9,-0.072916667,-0.01875,1,0,0,0.5829,rock_grid_rect_2,6,11,-1,-1,0.583,-0.329861111,-0.3875,1,0,0,1.298,Obsidian_rect,5,1.298,0,8,0,8,0,1,,,,,,,,,,,,,
645eb589e88d24fd5d75c724,TCN,2024-06-11_11h04.58.334,LearnStrategy,2023.2.3,Win32,59.88023952,2,1,10,-0.086805556,-0.01875,1,0,0,1.0669,rock_grid_rect_2,1,02,-1,-1,1.067,-0.346527778,-0.399305556,1,0,0,1.8485,Obsidian_rect,5,1.849,0,9,0,9,0,1,,,,,,,,,,,,,
645eb589e88d24fd5d75c724,TCN,2024-06-11_11h04.58.334,LearnStrategy,2023.2.3,Win32,59.88023952,2,1,11,-0.080555556,-0.024305556,1,0,0,1.2669,rock_grid_rect_2,3,11,-1,-1,1.267,-0.35625,-0.386805556,1,0,0,0.6809,Obsidian_rect,5,0.681,0,10,0,10,0,1,,,,,,,,,,,,,
645eb589e88d24fd5d75c724,TCN,2024-06-11_11h04.58.334,LearnStrategy,2023.2.3,Win32,59.88023952,2,1,12,-0.070138889,-0.021527778,1,0,0,0.95,rock_grid_rect_2,8,15,-1,-1,0.95,-0.314583333,-0.402083333,1,0,0,0.6475,Obsidian_rect,5,0.648,0,11,0,11,0,1,,,,,,,,,,,,,
645eb589e88d24fd5d75c724,TCN,2024-06-11_11h04.58.334,LearnStrategy,2023.2.3,Win32,59.88023952,2,1,13,-0.113194444,-0.024305556,1,0,0,1.0503,rock_grid_rect_2,5,08,-1,-1,1.05,-0.315277778,-0.3875,1,0,0,0.9306,Obsidian_rect,5,0.931,1,12,0,12,0,1,,,,,,,,,,,,,
645eb589e88d24fd5d75c724,TCN,2024-06-11_11h04.58.334,LearnStrategy,2023.2.3,Win32,59.88023952,2,1,14,-0.083333333,0.001388889,1,0,0,0.6999,rock_grid_rect_2,5,06,-1,-1,0.7,-0.320833333,-0.39375,1,0,0,1.1812,Obsidian_rect,5,1.181,1,13,0,13,0,1,,,,,,,,,,,,,
645eb589e88d24fd5d75c724,TCN,2024-06-11_11h04.58.334,LearnStrategy,2023.2.3,Win32,59.88023952,2,1,15,-0.094444444,-0.021527778,1,0,0,1.167,rock_grid_rect_2,2,08,-1,-1,1.167,0.054861111,-0.255555556,1,0,0,1.0478,Diorite_rect,3,1.048,0,14,0,14,0,1,,,,,,,,,,,,,
645eb589e88d24fd5d75c724,TCN,2024-06-11_11h04.58.334,LearnStrategy,2023.2.3,Win32,59.88023952,2,1,16,-0.048611111,-0.007638889,1,0,0,0.7163,rock_grid_rect_2,4,05,-1,-1,0.716,-0.110416667,-0.405555556,1,0,0,1.5649,Pegmatite_rect,6,1.565,0,15,0,15,0,1,,,,,,,,,,,,,
645eb589e88d24fd5d75c724,TCN,2024-06-11_11h04.58.334,LearnStrategy,2023.2.3,Win32,59.88023952,2,2,1,,,,,,,,4,03,,,,,,,,,,,3,1.197,0,,,,,,0.052083333,-0.238888889,1,0,0,1.1974,Diorite_rect,0,0,0,0,1,
645eb589e88d24fd5d75c724,TCN,2024-06-11_11h04.58.334,LearnStrategy,2023.2.3,Win32,59.88023952,2,2,2,,,,,,,,6,06,,,,,,,,,,,2,0.564,0,,,,,,-0.075694444,-0.244444444,1,0,0,0.5638,Basalt_rect,1,0,1,0,1,
645eb589e88d24fd5d75c724,TCN,2024-06-11_11h04.58.334,LearnStrategy,2023.2.3,Win32,59.88023952,2,2,3,,,,,,,,6,15,,,,,,,,,,,1,1.064,0,,,,,,-0.336111111,-0.259027778,1,0,0,1.0642,Andesite_rect,2,0,2,0,1,
645eb589e88d24fd5d75c724,TCN,2024-06-11_11h04.58.334,LearnStrategy,2023.2.3,Win32,59.88023952,2,2,4,,,,,,,,8,05,,,,,,,,,,,6,0.781,0,,,,,,-0.136805556,-0.382638889,1,0,0,0.7806,Pegmatite_rect,3,0,3,0,1,
645eb589e88d24fd5d75c724,TCN,2024-06-11_11h04.58.334,LearnStrategy,2023.2.3,Win32,59.88023952,2,2,5,,,,,,,,2,02,,,,,,,,,,,7,0.347,0,,,,,,0.031944444,-0.397222222,1,0,0,0.3469,Peridotite_rect,4,0,4,0,1,
645eb589e88d24fd5d75c724,TCN,2024-06-11_11h04.58.334,LearnStrategy,2023.2.3,Win32,59.88023952,2,2,6,,,,,,,,2,10,,,,,,,,,,,7,0.731,0,,,,,,0.04375,-0.404861111,1,0,0,0.7307,Peridotite_rect,5,0,5,0,1,
645eb589e88d24fd5d75c724,TCN,2024-06-11_11h04.58.334,LearnStrategy,2023.2.3,Win32,59.88023952,2,2,7,,,,,,,,3,08,,,,,,,,,,,4,1.365,0,,,,,,0.322916667,-0.258333333,1,0,0,1.3645,Gabbro_rect,6,0,6,0,1,
645eb589e88d24fd5d75c724,TCN,2024-06-11_11h04.58.334,LearnStrategy,2023.2.3,Win32,59.88023952,2,2,8,,,,,,,,4,09,,,,,,,,,,,8,0.53,0,,,,,,0.298611111,-0.395833333,1,0,0,0.5305,Pumice_rect,7,0,7,0,1,
645eb589e88d24fd5d75c724,TCN,2024-06-11_11h04.58.334,LearnStrategy,2023.2.3,Win32,59.88023952,2,2,9,,,,,,,,8,16,,,,,,,,,,,4,1.231,0,,,,,,0.297916667,-0.2625,1,0,0,1.231,Gabbro_rect,8,0,8,0,1,
645eb589e88d24fd5d75c724,TCN,2024-06-11_11h04.58.334,LearnStrategy,2023.2.3,Win32,59.88023952,2,2,10,,,,,,,,5,04,,,,,,,,,,,5,0.964,1,,,,,,-0.358333333,-0.409027778,1,0,0,0.9641,Obsidian_rect,9,0,9,0,1,
645eb589e88d24fd5d75c724,TCN,2024-06-11_11h04.58.334,LearnStrategy,2023.2.3,Win32,59.88023952,2,2,11,,,,,,,,7,16,,,,,,,,,,,2,0.898,0,,,,,,-0.149305556,-0.249305556,1,0,0,0.8976,Basalt_rect,10,0,10,0,1,
645eb589e88d24fd5d75c724,TCN,2024-06-11_11h04.58.334,LearnStrategy,2023.2.3,Win32,59.88023952,2,2,12,,,,,,,,5,07,,,,,,,,,,,5,1.397,1,,,,,,-0.327083333,-0.404166667,1,0,0,1.3971,Obsidian_rect,11,0,11,0,1,
645eb589e88d24fd5d75c724,TCN,2024-06-11_11h04.58.334,LearnStrategy,2023.2.3,Win32,59.88023952,2,2,13,,,,,,,,1,11,,,,,,,,,,,7,1.148,0,,,,,,0.065972222,-0.388888889,1,0,0,1.1476,Peridotite_rect,12,0,12,0,1,
645eb589e88d24fd5d75c724,TCN,2024-06-11_11h04.58.334,LearnStrategy,2023.2.3,Win32,59.88023952,2,2,14,,,,,,,,1,10,,,,,,,,,,,3,0.847,0,,,,,,0.039583333,-0.270138889,1,0,0,0.8474,Diorite_rect,13,0,13,0,1,
645eb589e88d24fd5d75c724,TCN,2024-06-11_11h04.58.334,LearnStrategy,2023.2.3,Win32,59.88023952,2,2,15,,,,,,,,7,08,,,,,,,,,,,4,1.514,0,,,,,,0.297222222,-0.258333333,1,0,0,1.5144,Gabbro_rect,14,0,14,0,1,
645eb589e88d24fd5d75c724,TCN,2024-06-11_11h04.58.334,LearnStrategy,2023.2.3,Win32,59.88023952,2,2,16,,,,,,,,3,07,,,,,,,,,,,8,0.897,0,,,,,,0.311805556,-0.392361111,1,0,0,0.8974,Pumice_rect,15,0,15,0,1,
645eb589e88d24fd5d75c724,TCN,2024-06-11_11h04.58.334,LearnStrategy,2023.2.3,Win32,59.88023952,3,1,1,-0.0375,-0.009722222,1,0,0,1.0669,rock_grid_rect_2,5,05,-1,-1,1.067,-0.309722222,-0.379166667,1,0,0,1.5819,Obsidian_rect,5,1.582,1,0,0,0,0,1,,,,,,,,,,,,,
645eb589e88d24fd5d75c724,TCN,2024-06-11_11h04.58.334,LearnStrategy,2023.2.3,Win32,59.88023952,3,1,2,-0.070833333,0.009722222,1,0,0,0.7833,rock_grid_rect_2,5,14,-1,-1,0.783,-0.311111111,-0.379166667,1,0,0,1.3647,Obsidian_rect,5,1.365,1,1,0,1,0,1,,,,,,,,,,,,,
645eb589e88d24fd5d75c724,TCN,2024-06-11_11h04.58.334,LearnStrategy,2023.2.3,Win32,59.88023952,3,1,3,-0.097222222,-0.019444444,1,0,0,0.7999,rock_grid_rect_2,6,10,-1,-1,0.8,-0.186111111,-0.395833333,1,0,0,1.3141,Pegmatite_rect,6,1.314,1,2,0,2,0,1,,,,,,,,,,,,,
645eb589e88d24fd5d75c724,TCN,2024-06-11_11h04.58.334,LearnStrategy,2023.2.3,Win32,59.88023952,3,1,4,-0.077083333,-0.020138889,1,0,0,0.8833,rock_grid_rect_2,8,14,-1,-1,0.883,0.313194444,-0.238194444,1,0,0,1.7318,Gabbro_rect,4,1.732,0,3,0,3,0,1,,,,,,,,,,,,,
645eb589e88d24fd5d75c724,TCN,2024-06-11_11h04.58.334,LearnStrategy,2023.2.3,Win32,59.88023952,3,1,5,-0.039583333,-0.019444444,1,0,0,0.9666,rock_grid_rect_2,2,14,-1,-1,0.967,-0.097222222,-0.2625,1,0,0,1.1813,Basalt_rect,2,1.181,1,4,0,4,0,1,,,,,,,,,,,,,
645eb589e88d24fd5d75c724,TCN,2024-06-11_11h04.58.334,LearnStrategy,2023.2.3,Win32,59.88023952,3,1,6,-0.083333333,-0.023611111,1,0,0,0.8667,rock_grid_rect_2,7,14,-1,-1,0.867,-0.306944444,-0.252083333,1,0,0,1.665,Andesite_rect,1,1.665,0,5,0,5,0,1,,,,,,,,,,,,,
645eb589e88d24fd5d75c724,TCN,2024-06-11_11h04.58.334,LearnStrategy,2023.2.3,Win32,59.88023952,3,1,7,-0.049305556,-0.016666667,1,0,0,0.7501,rock_grid_rect_2,1,03,-1,-1,0.75,0.102777778,-0.254166667,1,0,0,1.9151,Diorite_rect,3,1.915,0,6,0,6,0,1,,,,,,,,,,,,,
645eb589e88d24fd5d75c724,TCN,2024-06-11_11h04.58.334,LearnStrategy,2023.2.3,Win32,59.88023952,3,1,8,-0.027083333,-0.022222222,1,0,0,0.6665,rock_grid_rect_2,8,09,-1,-1,0.666,0.052777778,-0.401388889,1,0,0,1.6317,Peridotite_rect,7,1.632,0,7,0,7,0,1,,,,,,,,,,,,,
645eb589e88d24fd5d75c724,TCN,2024-06-11_11h04.58.334,LearnStrategy,2023.2.3,Win32,59.88023952,3,1,9,-0.047916667,0.018055556,1,0,0,0.7166,rock_grid_rect_2,6,12,-1,-1,0.717,-0.083333333,-0.3875,1,0,0,1.9654,Pegmatite_rect,6,1.965,1,8,0,8,0,1,,,,,,,,,,,,,
645eb589e88d24fd5d75c724,TCN,2024-06-11_11h04.58.334,LearnStrategy,2023.2.3,Win32,59.88023952,3,1,10,-0.070833333,-0.016666667,1,0,0,1.0669,rock_grid_rect_2,1,01,-1,-1,1.067,0.340277778,-0.411805556,1,0,0,4.1504,Pumice_rect,8,4.15,0,9,0,9,0,1,,,,,,,,,,,,,
645eb589e88d24fd5d75c724,TCN,2024-06-11_11h04.58.334,LearnStrategy,2023.2.3,Win32,59.88023952,3,1,11,-0.020833333,-0.015972222,1,0,0,1.1169,rock_grid_rect_2,2,11,-1,-1,1.117,-0.307638889,-0.244444444,1,0,0,1.7817,Andesite_rect,1,1.782,0,10,0,10,0,1,,,,,,,,,,,,,
645eb589e88d24fd5d75c724,TCN,2024-06-11_11h04.58.334,LearnStrategy,2023.2.3,Win32,59.88023952,3,1,12,-0.069444444,-0.023611111,1,0,0,0.7665,rock_grid_rect_2,3,09,-1,-1,0.767,0.079861111,-0.3875,1,0,0,2.7159,Peridotite_rect,7,2.716,0,11,0,11,0,1,,,,,,,,,,,,,
645eb589e88d24fd5d75c724,TCN,2024-06-11_11h04.58.334,LearnStrategy,2023.2.3,Win32,59.88023952,3,1,13,-0.036111111,-0.004166667,1,0,0,0.8167,rock_grid_rect_2,4,15,-1,-1,0.817,-0.079861111,-0.251388889,1,0,0,0.9311,Basalt_rect,2,0.931,0,12,0,12,0,1,,,,,,,,,,,,,
645eb589e88d24fd5d75c724,TCN,2024-06-11_11h04.58.334,LearnStrategy,2023.2.3,Win32,59.88023952,3,1,14,-0.002083333,-0.017361111,1,0,0,1.0835,rock_grid_rect_2,7,02,-1,-1,1.084,0.309027778,-0.25,1,0,0,1.4648,Gabbro_rect,4,1.465,0,13,0,13,0,1,,,,,,,,,,,,,
645eb589e88d24fd5d75c724,TCN,2024-06-11_11h04.58.334,LearnStrategy,2023.2.3,Win32,59.88023952,3,1,15,-0.092361111,-0.013888889,1,0,0,1.0168,rock_grid_rect_2,3,13,-1,-1,1.017,-0.121527778,-0.2625,1,0,0,0.564,Basalt_rect,2,0.564,0,14,0,14,0,1,,,,,,,,,,,,,
645eb589e88d24fd5d75c724,TCN,2024-06-11_11h04.58.334,LearnStrategy,2023.2.3,Win32,59.88023952,3,1,16,-0.107638889,-0.007638889,1,0,0,0.9166,rock_grid_rect_2,4,12,-1,-1,0.917,-0.316666667,-0.2375,1,0,0,1.1478,Andesite_rect,1,1.148,0,15,0,15,0,1,,,,,,,,,,,,,
645eb589e88d24fd5d75c724,TCN,2024-06-11_11h04.58.334,LearnStrategy,2023.2.3,Win32,59.88023952,3,2,1,,,,,,,,4,16,,,,,,,,,,,3,1.514,0,,,,,,0.049305556,-0.257638889,1,0,0,1.5143,Diorite_rect,0,0,0,0,1,
645eb589e88d24fd5d75c724,TCN,2024-06-11_11h04.58.334,LearnStrategy,2023.2.3,Win32,59.88023952,3,2,2,,,,,,,,5,16,,,,,,,,,,,5,1.198,1,,,,,,-0.302777778,-0.40625,1,0,0,1.1978,Obsidian_rect,1,0,1,0,1,
645eb589e88d24fd5d75c724,TCN,2024-06-11_11h04.58.334,LearnStrategy,2023.2.3,Win32,59.88023952,3,2,3,,,,,,,,6,09,,,,,,,,,,,6,0.864,1,,,,,,-0.151388889,-0.415277778,1,0,0,0.8643,Pegmatite_rect,2,0,2,0,1,
645eb589e88d24fd5d75c724,TCN,2024-06-11_11h04.58.334,LearnStrategy,2023.2.3,Win32,59.88023952,3,2,4,,,,,,,,7,13,,,,,,,,,,,2,0.314,0,,,,,,-0.15,-0.240277778,1,0,0,0.3136,Basalt_rect,3,0,3,0,1,
645eb589e88d24fd5d75c724,TCN,2024-06-11_11h04.58.334,LearnStrategy,2023.2.3,Win32,59.88023952,3,2,5,,,,,,,,8,06,,,,,,,,,,,1,0.497,0,,,,,,-0.297222222,-0.2625,1,0,0,0.4972,Andesite_rect,4,0,4,0,1,
645eb589e88d24fd5d75c724,TCN,2024-06-11_11h04.58.334,LearnStrategy,2023.2.3,Win32,59.88023952,3,2,6,,,,,,,,8,04,,,,,,,,,,,7,1.164,0,,,,,,0.030555556,-0.388888889,1,0,0,1.1644,Peridotite_rect,5,0,5,0,1,
645eb589e88d24fd5d75c724,TCN,2024-06-11_11h04.58.334,LearnStrategy,2023.2.3,Win32,59.88023952,3,2,7,,,,,,,,3,02,,,,,,,,,,,2,0.681,0,,,,,,-0.077083333,-0.247916667,1,0,0,0.6807,Basalt_rect,6,0,6,0,1,
645eb589e88d24fd5d75c724,TCN,2024-06-11_11h04.58.334,LearnStrategy,2023.2.3,Win32,59.88023952,3,2,8,,,,,,,,7,07,,,,,,,,,,,3,0.347,0,,,,,,0.032638889,-0.253472222,1,0,0,0.3469,Diorite_rect,7,0,7,0,1,
645eb589e88d24fd5d75c724,TCN,2024-06-11_11h04.58.334,LearnStrategy,2023.2.3,Win32,59.88023952,3,2,9,,,,,,,,2,01,,,,,,,,,,,2,0.18,1,,,,,,-0.111805556,-0.252083333,1,0,0,0.1803,Basalt_rect,8,0,8,0,1,
645eb589e88d24fd5d75c724,TCN,2024-06-11_11h04.58.334,LearnStrategy,2023.2.3,Win32,59.88023952,3,2,10,,,,,,,,5,10,,,,,,,,,,,5,1.114,1,,,,,,-0.324305556,-0.408333333,1,0,0,1.1144,Obsidian_rect,9,0,9,0,1,
645eb589e88d24fd5d75c724,TCN,2024-06-11_11h04.58.334,LearnStrategy,2023.2.3,Win32,59.88023952,3,2,11,,,,,,,,4,14,,,,,,,,,,,2,0.314,0,,,,,,-0.122916667,-0.244444444,1,0,0,0.3136,Basalt_rect,10,0,10,0,1,
645eb589e88d24fd5d75c724,TCN,2024-06-11_11h04.58.334,LearnStrategy,2023.2.3,Win32,59.88023952,3,2,12,,,,,,,,2,06,,,,,,,,,,,3,0.547,0,,,,,,0.124305556,-0.264583333,1,0,0,0.5468,Diorite_rect,11,0,11,0,1,
645eb589e88d24fd5d75c724,TCN,2024-06-11_11h04.58.334,LearnStrategy,2023.2.3,Win32,59.88023952,3,2,13,,,,,,,,6,07,,,,,,,,,,,7,0.931,0,,,,,,0.203472222,-0.380555556,1,0,0,0.9307,Peridotite_rect,12,0,12,0,1,
645eb589e88d24fd5d75c724,TCN,2024-06-11_11h04.58.334,LearnStrategy,2023.2.3,Win32,59.88023952,3,2,14,,,,,,,,1,16,,,,,,,,,,,6,0.497,0,,,,,,-0.0875,-0.404166667,1,0,0,0.4973,Pegmatite_rect,13,0,13,0,1,
645eb589e88d24fd5d75c724,TCN,2024-06-11_11h04.58.334,LearnStrategy,2023.2.3,Win32,59.88023952,3,2,15,,,,,,,,1,07,,,,,,,,,,,4,1.832,0,,,,,,0.313194444,-0.264583333,1,0,0,1.8316,Gabbro_rect,14,0,14,0,1,
645eb589e88d24fd5d75c724,TCN,2024-06-11_11h04.58.334,LearnStrategy,2023.2.3,Win32,59.88023952,3,2,16,,,,,,,,3,14,,,,,,,,,,,8,0.63,0,,,,,,0.293055556,-0.38125,1,0,0,0.6302,Pumice_rect,15,0,15,0,1,
645eb589e88d24fd5d75c724,TCN,2024-06-11_11h04.58.334,LearnStrategy,2023.2.3,Win32,59.88023952,4,1,1,-0.036111111,-0.002083333,1,0,0,0.7835,rock_grid_rect_2,2,09,-1,-1,0.784,-0.109027778,-0.258333333,1,0,0,4.3504,Basalt_rect,2,4.35,1,0,0,0,0,1,,,,,,,,,,,,,
645eb589e88d24fd5d75c724,TCN,2024-06-11_11h04.58.334,LearnStrategy,2023.2.3,Win32,59.88023952,4,1,2,-0.032638889,-0.021527778,1,0,0,1.0498,rock_grid_rect_2,4,05,-1,-1,1.05,0.048611111,-0.261805556,1,0,0,1.148,Diorite_rect,3,1.148,0,1,0,1,0,1,,,,,,,,,,,,,
645eb589e88d24fd5d75c724,TCN,2024-06-11_11h04.58.334,LearnStrategy,2023.2.3,Win32,59.88023952,4,1,3,-0.034722222,-0.020833333,1,0,0,0.9833,rock_grid_rect_2,2,11,-1,-1,0.983,0.157638889,-0.390277778,1,0,0,0.6476,Peridotite_rect,7,0.648,0,2,0,2,0,1,,,,,,,,,,,,,
645eb589e88d24fd5d75c724,TCN,2024-06-11_11h04.58.334,LearnStrategy,2023.2.3,Win32,59.88023952,4,1,4,-0.009027778,-0.000694444,1,0,0,0.9001,rock_grid_rect_2,7,15,-1,-1,0.9,0.305555556,-0.252083333,1,0,0,1.1642,Gabbro_rect,4,1.164,0,3,0,3,0,1,,,,,,,,,,,,,
645eb589e88d24fd5d75c724,TCN,2024-06-11_11h04.58.334,LearnStrategy,2023.2.3,Win32,59.88023952,4,1,5,-0.021527778,-0.013194444,1,0,0,0.8166,rock_grid_rect_2,8,14,-1,-1,0.817,0.353472222,-0.386805556,1,0,0,0.7475,Pumice_rect,8,0.748,1,4,0,4,0,1,,,,,,,,,,,,,
645eb589e88d24fd5d75c724,TCN,2024-06-11_11h04.58.334,LearnStrategy,2023.2.3,Win32,59.88023952,4,1,6,0.017361111,-0.014583333,1,0,0,0.8166,rock_grid_rect_2,4,15,-1,-1,0.817,-0.306944444,-0.259722222,1,0,0,1.0144,Andesite_rect,1,1.014,0,5,0,5,0,1,,,,,,,,,,,,,
645eb589e88d24fd5d75c724,TCN,2024-06-11_11h04.58.334,LearnStrategy,2023.2.3,Win32,59.88023952,4,1,7,-0.065972222,-0.017361111,1,0,0,0.9667,rock_grid_rect_2,3,09,-1,-1,0.967,0.027777778,-0.392361111,1,0,0,2.2984,Peridotite_rect,7,2.298,0,6,0,6,0,1,,,,,,,,,,,,,
645eb589e88d24fd5d75c724,TCN,2024-06-11_11h04.58.334,LearnStrategy,2023.2.3,Win32,59.88023952,4,1,8,-0.029861111,-0.018055556,1,0,0,0.5999,rock_grid_rect_2,3,11,-1,-1,0.6,-0.097222222,-0.385416667,1,0,0,1.347,Pegmatite_rect,6,1.347,0,7,0,7,0,1,,,,,,,,,,,,,
645eb589e88d24fd5d75c724,TCN,2024-06-11_11h04.58.334,LearnStrategy,2023.2.3,Win32,59.88023952,4,1,9,-0.070138889,-0.004861111,1,0,0,0.8499,rock_grid_rect_2,6,11,-1,-1,0.85,0.320138889,-0.238194444,1,0,0,1.1146,Gabbro_rect,4,1.115,0,8,0,8,0,1,,,,,,,,,,,,,
645eb589e88d24fd5d75c724,TCN,2024-06-11_11h04.58.334,LearnStrategy,2023.2.3,Win32,59.88023952,4,1,10,-0.013888889,-0.018055556,1,0,0,0.5664,rock_grid_rect_2,6,13,-1,-1,0.566,0.079861111,-0.256944444,1,0,0,0.5477,Diorite_rect,3,0.548,0,9,0,9,0,1,,,,,,,,,,,,,
645eb589e88d24fd5d75c724,TCN,2024-06-11_11h04.58.334,LearnStrategy,2023.2.3,Win32,59.88023952,4,1,11,-0.035416667,-0.017361111,1,0,0,0.5831,rock_grid_rect_2,5,02,-1,-1,0.583,-0.358333333,-0.402777778,1,0,0,0.9812,Obsidian_rect,5,0.981,1,10,0,10,0,1,,,,,,,,,,,,,
645eb589e88d24fd5d75c724,TCN,2024-06-11_11h04.58.334,LearnStrategy,2023.2.3,Win32,59.88023952,4,1,12,-0.071527778,-0.016666667,1,0,0,0.7666,rock_grid_rect_2,1,09,-1,-1,0.767,-0.311111111,-0.257638889,1,0,0,1.6477,Andesite_rect,1,1.648,1,11,0,11,0,1,,,,,,,,,,,,,
645eb589e88d24fd5d75c724,TCN,2024-06-11_11h04.58.334,LearnStrategy,2023.2.3,Win32,59.88023952,4,1,13,-0.09375,-0.020138889,1,0,0,0.6831,rock_grid_rect_2,7,02,-1,-1,0.683,-0.179166667,-0.257638889,1,0,0,1.0311,Basalt_rect,2,1.031,0,12,0,12,0,1,,,,,,,,,,,,,
645eb589e88d24fd5d75c724,TCN,2024-06-11_11h04.58.334,LearnStrategy,2023.2.3,Win32,59.88023952,4,1,14,-0.066666667,-0.018055556,1,0,0,0.6998,rock_grid_rect_2,5,08,-1,-1,0.7,-0.393055556,-0.411111111,1,0,0,1.1145,Obsidian_rect,5,1.115,1,13,0,13,0,1,,,,,,,,,,,,,
645eb589e88d24fd5d75c724,TCN,2024-06-11_11h04.58.334,LearnStrategy,2023.2.3,Win32,59.88023952,4,1,15,-0.064583333,-0.024305556,1,0,0,1.2503,rock_grid_rect_2,1,01,-1,-1,1.25,0.041666667,-0.396527778,1,0,0,1.2313,Peridotite_rect,7,1.231,0,14,0,14,0,1,,,,,,,,,,,,,
645eb589e88d24fd5d75c724,TCN,2024-06-11_11h04.58.334,LearnStrategy,2023.2.3,Win32,59.88023952,4,1,16,-0.1,-0.014583333,1,0,0,0.9667,rock_grid_rect_2,8,13,-1,-1,0.967,-0.122916667,-0.259027778,1,0,0,1.8484,Basalt_rect,2,1.848,0,15,0,15,0,1,,,,,,,,,,,,,
645eb589e88d24fd5d75c724,TCN,2024-06-11_11h04.58.334,LearnStrategy,2023.2.3,Win32,59.88023952,4,2,1,,,,,,,,7,13,,,,,,,,,,,6,2.916,0,,,,,,-0.147916667,-0.389583333,1,0,0,2.9155,Pegmatite_rect,0,0,0,0,1,
645eb589e88d24fd5d75c724,TCN,2024-06-11_11h04.58.334,LearnStrategy,2023.2.3,Win32,59.88023952,4,2,2,,,,,,,,3,10,,,,,,,,,,,2,0.948,0,,,,,,-0.211111111,-0.244444444,1,0,0,0.9476,Basalt_rect,1,0,1,0,1,
645eb589e88d24fd5d75c724,TCN,2024-06-11_11h04.58.334,LearnStrategy,2023.2.3,Win32,59.88023952,4,2,3,,,,,,,,1,16,,,,,,,,,,,3,0.614,0,,,,,,0.0375,-0.241666667,1,0,0,0.614,Diorite_rect,2,0,2,0,1,
645eb589e88d24fd5d75c724,TCN,2024-06-11_11h04.58.334,LearnStrategy,2023.2.3,Win32,59.88023952,4,2,4,,,,,,,,3,07,,,,,,,,,,,4,0.948,0,,,,,,0.304861111,-0.257638889,1,0,0,0.9476,Gabbro_rect,3,0,3,0,1,
645eb589e88d24fd5d75c724,TCN,2024-06-11_11h04.58.334,LearnStrategy,2023.2.3,Win32,59.88023952,4,2,5,,,,,,,,8,05,,,,,,,,,,,8,0.714,1,,,,,,0.305555556,-0.392361111,1,0,0,0.7139,Pumice_rect,4,0,4,0,1,
645eb589e88d24fd5d75c724,TCN,2024-06-11_11h04.58.334,LearnStrategy,2023.2.3,Win32,59.88023952,4,2,6,,,,,,,,4,03,,,,,,,,,,,7,0.347,0,,,,,,0.176388889,-0.403472222,1,0,0,0.3472,Peridotite_rect,5,0,5,0,1,
645eb589e88d24fd5d75c724,TCN,2024-06-11_11h04.58.334,LearnStrategy,2023.2.3,Win32,59.88023952,4,2,7,,,,,,,,7,05,,,,,,,,,,,1,0.498,0,,,,,,-0.377083333,-0.252777778,1,0,0,0.4984,Andesite_rect,6,0,6,0,1,
645eb589e88d24fd5d75c724,TCN,2024-06-11_11h04.58.334,LearnStrategy,2023.2.3,Win32,59.88023952,4,2,8,,,,,,,,8,02,,,,,,,,,,,2,0.681,0,,,,,,-0.236111111,-0.248611111,1,0,0,0.6812,Basalt_rect,7,0,7,0,1,
645eb589e88d24fd5d75c724,TCN,2024-06-11_11h04.58.334,LearnStrategy,2023.2.3,Win32,59.88023952,4,2,9,,,,,,,,6,06,,,,,,,,,,,6,1.198,1,,,,,,-0.119444444,-0.3875,1,0,0,1.1979,Pegmatite_rect,8,0,8,0,1,
645eb589e88d24fd5d75c724,TCN,2024-06-11_11h04.58.334,LearnStrategy,2023.2.3,Win32,59.88023952,4,2,10,,,,,,,,2,06,,,,,,,,,,,7,0.914,0,,,,,,0.046527778,-0.381944444,1,0,0,0.914,Peridotite_rect,9,0,9,0,1,
645eb589e88d24fd5d75c724,TCN,2024-06-11_11h04.58.334,LearnStrategy,2023.2.3,Win32,59.88023952,4,2,11,,,,,,,,2,10,,,,,,,,,,,3,0.931,0,,,,,,0.031944444,-0.254861111,1,0,0,0.9309,Diorite_rect,10,0,10,0,1,
645eb589e88d24fd5d75c724,TCN,2024-06-11_11h04.58.334,LearnStrategy,2023.2.3,Win32,59.88023952,4,2,12,,,,,,,,5,11,,,,,,,,,,,5,0.997,1,,,,,,-0.386805556,-0.416666667,1,0,0,0.9973,Obsidian_rect,11,0,11,0,1,
645eb589e88d24fd5d75c724,TCN,2024-06-11_11h04.58.334,LearnStrategy,2023.2.3,Win32,59.88023952,4,2,13,,,,,,,,6,08,,,,,,,,,,,2,1.148,0,,,,,,-0.222916667,-0.261805556,1,0,0,1.1475,Basalt_rect,12,0,12,0,1,
645eb589e88d24fd5d75c724,TCN,2024-06-11_11h04.58.334,LearnStrategy,2023.2.3,Win32,59.88023952,4,2,14,,,,,,,,1,07,,,,,,,,,,,6,1.031,0,,,,,,-0.120833333,-0.397916667,1,0,0,1.031,Pegmatite_rect,13,0,13,0,1,
645eb589e88d24fd5d75c724,TCN,2024-06-11_11h04.58.334,LearnStrategy,2023.2.3,Win32,59.88023952,4,2,15,,,,,,,,4,14,,,,,,,,,,,7,1.581,0,,,,,,0.028472222,-0.390972222,1,0,0,1.5807,Peridotite_rect,14,0,14,0,1,
645eb589e88d24fd5d75c724,TCN,2024-06-11_11h04.58.334,LearnStrategy,2023.2.3,Win32,59.88023952,4,2,16,,,,,,,,5,10,,,,,,,,,,,5,0.78,1,,,,,,-0.359027778,-0.407638889,1,0,0,0.7803,Obsidian_rect,15,0,15,0,1,
645eb589e88d24fd5d75c724,TCN,2024-06-11_11h04.58.334,LearnStrategy,2023.2.3,Win32,59.88023952,5,1,1,-0.054166667,0,1,0,0,0.9837,rock_grid_rect_2,3,16,-1,-1,0.984,-0.160416667,-0.263194444,1,0,0,1.7316,Basalt_rect,2,1.732,0,0,0,0,0,1,,,,,,,,,,,,,
645eb589e88d24fd5d75c724,TCN,2024-06-11_11h04.58.334,LearnStrategy,2023.2.3,Win32,59.88023952,5,1,2,-0.025,-0.01875,1,0,0,1.0497,rock_grid_rect_2,5,09,-1,-1,1.05,-0.340972222,-0.393055556,1,0,0,1.7312,Obsidian_rect,5,1.731,1,1,0,1,0,1,,,,,,,,,,,,,
645eb589e88d24fd5d75c724,TCN,2024-06-11_11h04.58.334,LearnStrategy,2023.2.3,Win32,59.88023952,5,1,3,-0.070138889,-0.020138889,1,0,0,1.1002,rock_grid_rect_2,4,13,-1,-1,1.1,-0.379166667,-0.25,1,0,0,1.5815,Andesite_rect,1,1.582,0,2,0,2,0,1,,,,,,,,,,,,,
645eb589e88d24fd5d75c724,TCN,2024-06-11_11h04.58.334,LearnStrategy,2023.2.3,Win32,59.88023952,5,1,4,-0.068055556,-0.016666667,1,0,0,1.3837,rock_grid_rect_2,5,06,-1,-1,1.384,-0.407638889,-0.420138889,1,0,0,1.0813,Obsidian_rect,5,1.081,1,3,0,3,0,1,,,,,,,,,,,,,
645eb589e88d24fd5d75c724,TCN,2024-06-11_11h04.58.334,LearnStrategy,2023.2.3,Win32,59.88023952,5,1,5,-0.046527778,-0.017361111,1,0,0,1.4172,rock_grid_rect_2,7,10,-1,-1,1.417,0.325694444,-0.246527778,1,0,0,1.2647,Gabbro_rect,4,1.265,0,4,0,4,0,1,,,,,,,,,,,,,
645eb589e88d24fd5d75c724,TCN,2024-06-11_11h04.58.334,LearnStrategy,2023.2.3,Win32,59.88023952,5,1,6,-0.090277778,-0.017361111,1,0,0,1.4171,rock_grid_rect_2,1,06,-1,-1,1.417,0.070833333,-0.394444444,1,0,0,0.9973,Peridotite_rect,7,0.997,0,5,0,5,0,1,,,,,,,,,,,,,
645eb589e88d24fd5d75c724,TCN,2024-06-11_11h04.58.334,LearnStrategy,2023.2.3,Win32,59.88023952,5,1,7,-0.110416667,-0.0125,1,0,0,0.8833,rock_grid_rect_2,8,15,-1,-1,0.883,-0.315972222,-0.251388889,1,0,0,0.5969,Andesite_rect,1,0.597,0,6,0,6,0,1,,,,,,,,,,,,,
645eb589e88d24fd5d75c724,TCN,2024-06-11_11h04.58.334,LearnStrategy,2023.2.3,Win32,59.88023952,5,1,8,-0.051388889,-0.024305556,1,0,0,0.6164,rock_grid_rect_2,8,10,-1,-1,0.616,-0.025694444,-0.267361111,1,0,0,0.5136,Basalt_rect,2,0.514,0,7,0,7,0,1,,,,,,,,,,,,,
645eb589e88d24fd5d75c724,TCN,2024-06-11_11h04.58.334,LearnStrategy,2023.2.3,Win32,59.88023952,5,1,9,-0.088888889,-0.018055556,1,0,0,0.5665,rock_grid_rect_2,6,10,-1,-1,0.566,-0.119444444,-0.401388889,1,0,0,0.9141,Pegmatite_rect,6,0.914,1,8,0,8,0,1,,,,,,,,,,,,,
645eb589e88d24fd5d75c724,TCN,2024-06-11_11h04.58.334,LearnStrategy,2023.2.3,Win32,59.88023952,5,1,10,-0.100694444,-0.025,1,0,0,0.9002,rock_grid_rect_2,1,03,-1,-1,0.9,0.075694444,-0.392361111,1,0,0,0.8804,Peridotite_rect,7,0.88,0,9,0,9,0,1,,,,,,,,,,,,,
645eb589e88d24fd5d75c724,TCN,2024-06-11_11h04.58.334,LearnStrategy,2023.2.3,Win32,59.88023952,5,1,11,-0.03125,-0.013194444,1,0,0,1.1503,rock_grid_rect_2,6,16,-1,-1,1.15,0.099305556,-0.261805556,1,0,0,0.514,Diorite_rect,3,0.514,0,10,0,10,0,1,,,,,,,,,,,,,
645eb589e88d24fd5d75c724,TCN,2024-06-11_11h04.58.334,LearnStrategy,2023.2.3,Win32,59.88023952,5,1,12,0.020138889,-0.020138889,1,0,0,0.6331,rock_grid_rect_2,7,06,-1,-1,0.633,-0.054861111,-0.247916667,1,0,0,0.6475,Basalt_rect,2,0.647,0,11,0,11,0,1,,,,,,,,,,,,,
645eb589e88d24fd5d75c724,TCN,2024-06-11_11h04.58.334,LearnStrategy,2023.2.3,Win32,59.88023952,5,1,13,-0.051388889,-0.006944444,1,0,0,0.5331,rock_grid_rect_2,2,14,-1,-1,0.533,-0.310416667,-0.2375,1,0,0,0.6474,Andesite_rect,1,0.647,0,12,0,12,0,1,,,,,,,,,,,,,
645eb589e88d24fd5d75c724,TCN,2024-06-11_11h04.58.334,LearnStrategy,2023.2.3,Win32,59.88023952,5,1,14,-0.075,-0.015277778,1,0,0,0.5164,rock_grid_rect_2,4,01,-1,-1,0.516,0.044444444,-0.265972222,1,0,0,0.8808,Diorite_rect,3,0.881,0,13,0,13,0,1,,,,,,,,,,,,,
645eb589e88d24fd5d75c724,TCN,2024-06-11_11h04.58.334,LearnStrategy,2023.2.3,Win32,59.88023952,5,1,15,-0.126388889,-0.0125,1,0,0,0.9167,rock_grid_rect_2,3,06,-1,-1,0.917,0.298611111,-0.23125,1,0,0,1.5649,Gabbro_rect,4,1.565,0,14,0,14,0,1,,,,,,,,,,,,,
645eb589e88d24fd5d75c724,TCN,2024-06-11_11h04.58.334,LearnStrategy,2023.2.3,Win32,59.88023952,5,1,16,-0.046527778,-0.008333333,1,0,0,1.0501,rock_grid_rect_2,2,04,-1,-1,1.05,0.045833333,-0.380555556,1,0,0,1.7478,Peridotite_rect,7,1.748,0,15,0,15,0,1,,,,,,,,,,,,,
645eb589e88d24fd5d75c724,TCN,2024-06-11_11h04.58.334,LearnStrategy,2023.2.3,Win32,59.88023952,5,2,1,,,,,,,,1,10,,,,,,,,,,,1,0.981,1,,,,,,-0.317361111,-0.244444444,1,0,0,0.9807,Andesite_rect,0,0,0,0,1,
645eb589e88d24fd5d75c724,TCN,2024-06-11_11h04.58.334,LearnStrategy,2023.2.3,Win32,59.88023952,5,2,2,,,,,,,,6,15,,,,,,,,,,,2,0.731,0,,,,,,-0.08125,-0.261111111,1,0,0,0.7306,Basalt_rect,1,0,1,0,1,
645eb589e88d24fd5d75c724,TCN,2024-06-11_11h04.58.334,LearnStrategy,2023.2.3,Win32,59.88023952,5,2,3,,,,,,,,2,01,,,,,,,,,,,7,0.948,0,,,,,,0.091666667,-0.393055556,1,0,0,0.9477,Peridotite_rect,2,0,2,0,1,
645eb589e88d24fd5d75c724,TCN,2024-06-11_11h04.58.334,LearnStrategy,2023.2.3,Win32,59.88023952,5,2,4,,,,,,,,5,12,,,,,,,,,,,5,1.031,1,,,,,,-0.33125,-0.396527778,1,0,0,1.0309,Obsidian_rect,3,0,3,0,1,
645eb589e88d24fd5d75c724,TCN,2024-06-11_11h04.58.334,LearnStrategy,2023.2.3,Win32,59.88023952,5,2,5,,,,,,,,3,15,,,,,,,,,,,6,0.93,0,,,,,,-0.084027778,-0.399305556,1,0,0,0.9303,Pegmatite_rect,4,0,4,0,1,
645eb589e88d24fd5d75c724,TCN,2024-06-11_11h04.58.334,LearnStrategy,2023.2.3,Win32,59.88023952,5,2,6,,,,,,,,6,07,,,,,,,,,,,3,0.18,0,,,,,,0.027777778,-0.254166667,1,0,0,0.1803,Diorite_rect,5,0,5,0,1,
645eb589e88d24fd5d75c724,TCN,2024-06-11_11h04.58.334,LearnStrategy,2023.2.3,Win32,59.88023952,5,2,7,,,,,,,,4,08,,,,,,,,,,,8,1.164,0,,,,,,0.322916667,-0.388194444,1,0,0,1.1644,Pumice_rect,6,0,6,0,1,
645eb589e88d24fd5d75c724,TCN,2024-06-11_11h04.58.334,LearnStrategy,2023.2.3,Win32,59.88023952,5,2,8,,,,,,,,3,08,,,,,,,,,,,7,0.314,0,,,,,,0.186805556,-0.404861111,1,0,0,0.3138,Peridotite_rect,7,0,7,0,1,
645eb589e88d24fd5d75c724,TCN,2024-06-11_11h04.58.334,LearnStrategy,2023.2.3,Win32,59.88023952,5,2,9,,,,,,,,7,08,,,,,,,,,,,8,0.297,0,,,,,,0.295833333,-0.390972222,1,0,0,0.2971,Pumice_rect,8,0,8,0,1,
645eb589e88d24fd5d75c724,TCN,2024-06-11_11h04.58.334,LearnStrategy,2023.2.3,Win32,59.88023952,5,2,10,,,,,,,,7,04,,,,,,,,,,,8,0.38,0,,,,,,0.304861111,-0.382638889,1,0,0,0.3804,Pumice_rect,9,0,9,0,1,
645eb589e88d24fd5d75c724,TCN,2024-06-11_11h04.58.334,LearnStrategy,2023.2.3,Win32,59.88023952,5,2,11,,,,,,,,1,11,,,,,,,,,,,3,0.78,0,,,,,,0.140972222,-0.259027778,1,0,0,0.7797,Diorite_rect,10,0,10,0,1,
645eb589e88d24fd5d75c724,TCN,2024-06-11_11h04.58.334,LearnStrategy,2023.2.3,Win32,59.88023952,5,2,12,,,,,,,,8,16,,,,,,,,,,,3,0.397,0,,,,,,0.117361111,-0.249305556,1,0,0,0.3971,Diorite_rect,11,0,11,0,1,
645eb589e88d24fd5d75c724,TCN,2024-06-11_11h04.58.334,LearnStrategy,2023.2.3,Win32,59.88023952,5,2,13,,,,,,,,2,05,,,,,,,,,,,2,0.664,1,,,,,,-0.098611111,-0.249305556,1,0,0,0.664,Basalt_rect,12,0,12,0,1,
645eb589e88d24fd5d75c724,TCN,2024-06-11_11h04.58.334,LearnStrategy,2023.2.3,Win32,59.88023952,5,2,14,,,,,,,,8,04,,,,,,,,,,,1,0.213,0,,,,,,-0.353472222,-0.259027778,1,0,0,0.2134,Andesite_rect,13,0,13,0,1,
645eb589e88d24fd5d75c724,TCN,2024-06-11_11h04.58.334,LearnStrategy,2023.2.3,Win32,59.88023952,5,2,15,,,,,,,,4,11,,,,,,,,,,,4,0.464,1,,,,,,0.386805556,-0.235416667,1,0,0,0.464,Gabbro_rect,14,0,14,0,1,
645eb589e88d24fd5d75c724,TCN,2024-06-11_11h04.58.334,LearnStrategy,2023.2.3,Win32,59.88023952,5,2,16,,,,,,,,5,07,,,,,,,,,,,5,1.031,1,,,,,,-0.340972222,-0.408333333,1,0,0,1.0309,Obsidian_rect,15,0,15,0,1,
645eb589e88d24fd5d75c724,TCN,2024-06-11_11h04.58.334,LearnStrategy,2023.2.3,Win32,59.88023952,6,1,1,-0.077083333,0.00625,1,0,0,0.8834,rock_grid_rect_2,8,09,-1,-1,0.883,-0.302777778,-0.261805556,1,0,0,1.6651,Andesite_rect,1,1.665,0,0,0,0,0,1,,,,,,,,,,,,,
645eb589e88d24fd5d75c724,TCN,2024-06-11_11h04.58.334,LearnStrategy,2023.2.3,Win32,59.88023952,6,1,2,-0.04375,-0.013888889,1,0,0,1.1334,rock_grid_rect_2,2,08,-1,-1,1.133,0.091666667,-0.263194444,1,0,0,0.5641,Diorite_rect,3,0.564,0,1,0,1,0,1,,,,,,,,,,,,,
645eb589e88d24fd5d75c724,TCN,2024-06-11_11h04.58.334,LearnStrategy,2023.2.3,Win32,59.88023952,6,1,3,-0.053472222,-0.025,1,0,0,0.6999,rock_grid_rect_2,8,03,-1,-1,0.7,0.075,-0.392361111,1,0,0,1.0312,Peridotite_rect,7,1.031,0,2,0,2,0,1,,,,,,,,,,,,,
645eb589e88d24fd5d75c724,TCN,2024-06-11_11h04.58.334,LearnStrategy,2023.2.3,Win32,59.88023952,6,1,4,-0.004861111,-0.022222222,1,0,0,0.9164,rock_grid_rect_2,6,12,-1,-1,0.916,-0.071527778,-0.395138889,1,0,0,0.8645,Pegmatite_rect,6,0.865,1,3,0,3,0,1,,,,,,,,,,,,,
645eb589e88d24fd5d75c724,TCN,2024-06-11_11h04.58.334,LearnStrategy,2023.2.3,Win32,59.88023952,6,1,5,-0.040972222,-0.020833333,1,0,0,0.6832,rock_grid_rect_2,4,12,-1,-1,0.683,0.353472222,-0.245833333,1,0,0,1.0312,Gabbro_rect,4,1.031,1,4,0,4,0,1,,,,,,,,,,,,,
645eb589e88d24fd5d75c724,TCN,2024-06-11_11h04.58.334,LearnStrategy,2023.2.3,Win32,59.88023952,6,1,6,-0.031944444,-0.023611111,1,0,0,0.7332,rock_grid_rect_2,7,14,-1,-1,0.733,-0.059027778,-0.259027778,1,0,0,1.6152,Basalt_rect,2,1.615,0,5,0,5,0,1,,,,,,,,,,,,,
645eb589e88d24fd5d75c724,TCN,2024-06-11_11h04.58.334,LearnStrategy,2023.2.3,Win32,59.88023952,6,1,7,-0.054166667,-0.015277778,1,0,0,1.0335,rock_grid_rect_2,5,05,-1,-1,1.034,-0.372916667,-0.4,1,0,0,1.2982,Obsidian_rect,5,1.298,1,6,0,6,0,1,,,,,,,,,,,,,
645eb589e88d24fd5d75c724,TCN,2024-06-11_11h04.58.334,LearnStrategy,2023.2.3,Win32,59.88023952,6,1,8,-0.002777778,0.002083333,1,0,0,0.6998,rock_grid_rect_2,2,12,-1,-1,0.7,0.102777778,-0.389583333,1,0,0,1.0971,Peridotite_rect,7,1.097,0,7,0,7,0,1,,,,,,,,,,,,,
645eb589e88d24fd5d75c724,TCN,2024-06-11_11h04.58.334,LearnStrategy,2023.2.3,Win32,59.88023952,6,1,9,-0.011111111,-0.008333333,1,0,0,0.5332,rock_grid_rect_2,6,03,-1,-1,0.533,-0.352083333,-0.385416667,1,0,0,1.1809,Obsidian_rect,5,1.181,0,8,0,8,0,1,,,,,,,,,,,,,
645eb589e88d24fd5d75c724,TCN,2024-06-11_11h04.58.334,LearnStrategy,2023.2.3,Win32,59.88023952,6,1,10,0.009027778,-0.005555556,1,0,0,0.6833,rock_grid_rect_2,4,10,-1,-1,0.683,-0.347222222,-0.248611111,1,0,0,1.1312,Andesite_rect,1,1.131,0,9,0,9,0,1,,,,,,,,,,,,,
645eb589e88d24fd5d75c724,TCN,2024-06-11_11h04.58.334,LearnStrategy,2023.2.3,Win32,59.88023952,6,1,11,-0.006944444,-0.006944444,1,0,0,0.6664,rock_grid_rect_2,1,04,-1,-1,0.666,-0.073611111,-0.266666667,1,0,0,0.5639,Basalt_rect,2,0.564,0,10,0,10,0,1,,,,,,,,,,,,,
645eb589e88d24fd5d75c724,TCN,2024-06-11_11h04.58.334,LearnStrategy,2023.2.3,Win32,59.88023952,6,1,12,0.027083333,-0.025,1,0,0,0.5162,rock_grid_rect_2,7,12,-1,-1,0.516,-0.168055556,-0.404166667,1,0,0,1.8485,Pegmatite_rect,6,1.849,0,11,0,11,0,1,,,,,,,,,,,,,
645eb589e88d24fd5d75c724,TCN,2024-06-11_11h04.58.334,LearnStrategy,2023.2.3,Win32,59.88023952,6,1,13,0,-0.015277778,1,0,0,0.8834,rock_grid_rect_2,3,13,-1,-1,0.883,0.332638889,-0.391666667,1,0,0,1.4809,Pumice_rect,8,1.481,0,12,0,12,0,1,,,,,,,,,,,,,
645eb589e88d24fd5d75c724,TCN,2024-06-11_11h04.58.334,LearnStrategy,2023.2.3,Win32,59.88023952,6,1,14,0.004861111,0.011111111,1,0,0,0.6667,rock_grid_rect_2,3,12,-1,-1,0.667,0.102083333,-0.232638889,1,0,0,0.547,Diorite_rect,3,0.547,1,13,0,13,0,1,,,,,,,,,,,,,
645eb589e88d24fd5d75c724,TCN,2024-06-11_11h04.58.334,LearnStrategy,2023.2.3,Win32,59.88023952,6,1,15,0.027777778,-0.002083333,1,0,0,0.8,rock_grid_rect_2,5,14,-1,-1,0.8,-0.095833333,-0.236805556,1,0,0,0.8476,Basalt_rect,2,0.848,0,14,0,14,0,1,,,,,,,,,,,,,
645eb589e88d24fd5d75c724,TCN,2024-06-11_11h04.58.334,LearnStrategy,2023.2.3,Win32,59.88023952,6,1,16,0.038888889,-0.019444444,1,0,0,0.5833,rock_grid_rect_2,1,02,-1,-1,0.583,-0.3,-0.243055556,1,0,0,1.0308,Andesite_rect,1,1.031,1,15,0,15,0,1,,,,,,,,,,,,,
645eb589e88d24fd5d75c724,TCN,2024-06-11_11h04.58.334,LearnStrategy,2023.2.3,Win32,59.88023952,6,2,1,,,,,,,,8,06,,,,,,,,,,,2,2.115,0,,,,,,-0.184722222,-0.241666667,1,0,0,2.115,Basalt_rect,0,0,0,0,1,
645eb589e88d24fd5d75c724,TCN,2024-06-11_11h04.58.334,LearnStrategy,2023.2.3,Win32,59.88023952,6,2,2,,,,,,,,1,14,,,,,,,,,,,3,1.114,0,,,,,,0.090972222,-0.252777778,1,0,0,1.1143,Diorite_rect,1,0,1,0,1,
645eb589e88d24fd5d75c724,TCN,2024-06-11_11h04.58.334,LearnStrategy,2023.2.3,Win32,59.88023952,6,2,3,,,,,,,,6,05,,,,,,,,,,,4,0.264,0,,,,,,0.31875,-0.243055556,1,0,0,0.2636,Gabbro_rect,2,0,2,0,1,
645eb589e88d24fd5d75c724,TCN,2024-06-11_11h04.58.334,LearnStrategy,2023.2.3,Win32,59.88023952,6,2,4,,,,,,,,7,07,,,,,,,,,,,7,0.714,1,,,,,,0.104166667,-0.398611111,1,0,0,0.7141,Peridotite_rect,3,0,3,0,1,
645eb589e88d24fd5d75c724,TCN,2024-06-11_11h04.58.334,LearnStrategy,2023.2.3,Win32,59.88023952,6,2,5,,,,,,,,3,02,,,,,,,,,,,6,0.163,0,,,,,,-0.033333333,-0.380555556,1,0,0,0.1632,Pegmatite_rect,4,0,4,0,1,
645eb589e88d24fd5d75c724,TCN,2024-06-11_11h04.58.334,LearnStrategy,2023.2.3,Win32,59.88023952,6,2,6,,,,,,,,8,08,,,,,,,,,,,2,0.414,0,,,,,,-0.044444444,-0.256944444,1,0,0,0.4136,Basalt_rect,5,0,5,0,1,
645eb589e88d24fd5d75c724,TCN,2024-06-11_11h04.58.334,LearnStrategy,2023.2.3,Win32,59.88023952,6,2,7,,,,,,,,7,16,,,,,,,,,,,1,1.081,0,,,,,,-0.295833333,-0.24375,1,0,0,1.0812,Andesite_rect,6,0,6,0,1,
645eb589e88d24fd5d75c724,TCN,2024-06-11_11h04.58.334,LearnStrategy,2023.2.3,Win32,59.88023952,6,2,8,,,,,,,,4,09,,,,,,,,,,,2,0.631,0,,,,,,-0.155555556,-0.242361111,1,0,0,0.6306,Basalt_rect,7,0,7,0,1,
645eb589e88d24fd5d75c724,TCN,2024-06-11_11h04.58.334,LearnStrategy,2023.2.3,Win32,59.88023952,6,2,9,,,,,,,,5,04,,,,,,,,,,,5,1.047,1,,,,,,-0.379861111,-0.4,1,0,0,1.047,Obsidian_rect,8,0,8,0,1,
645eb589e88d24fd5d75c724,TCN,2024-06-11_11h04.58.334,LearnStrategy,2023.2.3,Win32,59.88023952,6,2,10,,,,,,,,5,16,,,,,,,,,,,5,0.898,1,,,,,,-0.322222222,-0.379166667,1,0,0,0.8975,Obsidian_rect,9,0,9,0,1,
645eb589e88d24fd5d75c724,TCN,2024-06-11_11h04.58.334,LearnStrategy,2023.2.3,Win32,59.88023952,6,2,11,,,,,,,,4,16,,,,,,,,,,,2,0.697,0,,,,,,-0.220138889,-0.265277778,1,0,0,0.6973,Basalt_rect,10,0,10,0,1,
645eb589e88d24fd5d75c724,TCN,2024-06-11_11h04.58.334,LearnStrategy,2023.2.3,Win32,59.88023952,6,2,12,,,,,,,,6,09,,,,,,,,,,,6,0.797,1,,,,,,-0.095833333,-0.390972222,1,0,0,0.7968,Pegmatite_rect,11,0,11,0,1,
645eb589e88d24fd5d75c724,TCN,2024-06-11_11h04.58.334,LearnStrategy,2023.2.3,Win32,59.88023952,6,2,13,,,,,,,,3,14,,,,,,,,,,,3,0.664,1,,,,,,0.058333333,-0.244444444,1,0,0,0.6638,Diorite_rect,12,0,12,0,1,
645eb589e88d24fd5d75c724,TCN,2024-06-11_11h04.58.334,LearnStrategy,2023.2.3,Win32,59.88023952,6,2,14,,,,,,,,2,02,,,,,,,,,,,7,0.647,0,,,,,,0.084722222,-0.392361111,1,0,0,0.6474,Peridotite_rect,13,0,13,0,1,
645eb589e88d24fd5d75c724,TCN,2024-06-11_11h04.58.334,LearnStrategy,2023.2.3,Win32,59.88023952,6,2,15,,,,,,,,2,16,,,,,,,,,,,3,0.53,0,,,,,,0.115972222,-0.258333333,1,0,0,0.5303,Diorite_rect,14,0,14,0,1,
645eb589e88d24fd5d75c724,TCN,2024-06-11_11h04.58.334,LearnStrategy,2023.2.3,Win32,59.88023952,6,2,16,,,,,,,,1,05,,,,,,,,,,,7,0.814,0,,,,,,0.222222222,-0.409027778,1,0,0,0.8139,Peridotite_rect,15,0,15,0,1,
645eb589e88d24fd5d75c724,TCN,2024-06-11_11h04.58.334,LearnStrategy,2023.2.3,Win32,59.88023952,7,1,1,-0.045138889,0.010416667,1,0,0,1.1504,rock_grid_rect_2,1,06,-1,-1,1.15,-0.092361111,-0.26875,1,0,0,0.9809,Basalt_rect,2,0.981,0,0,0,0,0,1,,,,,,,,,,,,,
645eb589e88d24fd5d75c724,TCN,2024-06-11_11h04.58.334,LearnStrategy,2023.2.3,Win32,59.88023952,7,1,2,-0.015277778,-0.014583333,1,0,0,0.6666,rock_grid_rect_2,3,11,-1,-1,0.667,-0.400694444,-0.238888889,1,0,0,0.5476,Andesite_rect,1,0.548,0,1,0,1,0,1,,,,,,,,,,,,,
645eb589e88d24fd5d75c724,TCN,2024-06-11_11h04.58.334,LearnStrategy,2023.2.3,Win32,59.88023952,7,1,3,-0.007638889,-0.008333333,1,0,0,0.6996,rock_grid_rect_2,8,14,-1,-1,0.7,0.059027778,-0.257638889,1,0,0,0.8974,Diorite_rect,3,0.897,0,2,0,2,0,1,,,,,,,,,,,,,
645eb589e88d24fd5d75c724,TCN,2024-06-11_11h04.58.334,LearnStrategy,2023.2.3,Win32,59.88023952,7,1,4,0.113888889,-0.003472222,1,0,0,0.6666,rock_grid_rect_2,1,03,-1,-1,0.667,0.380555556,-0.245138889,1,0,0,0.7977,Gabbro_rect,4,0.798,0,3,0,3,0,1,,,,,,,,,,,,,
645eb589e88d24fd5d75c724,TCN,2024-06-11_11h04.58.334,LearnStrategy,2023.2.3,Win32,59.88023952,7,1,5,0.047222222,-0.015972222,1,0,0,0.9668,rock_grid_rect_2,5,08,-1,-1,0.967,-0.38125,-0.418055556,1,0,0,1.1142,Obsidian_rect,5,1.114,1,4,0,4,0,1,,,,,,,,,,,,,
645eb589e88d24fd5d75c724,TCN,2024-06-11_11h04.58.334,LearnStrategy,2023.2.3,Win32,59.88023952,7,1,6,-0.103472222,-0.008333333,1,0,0,0.9831,rock_grid_rect_2,2,14,-1,-1,0.983,-0.131944444,-0.386805556,1,0,0,1.0319,Pegmatite_rect,6,1.032,0,5,0,5,0,1,,,,,,,,,,,,,
645eb589e88d24fd5d75c724,TCN,2024-06-11_11h04.58.334,LearnStrategy,2023.2.3,Win32,59.88023952,7,1,7,-0.071527778,-0.020138889,1,0,0,0.5833,rock_grid_rect_2,4,10,-1,-1,0.583,0.095833333,-0.411805556,1,0,0,0.564,Peridotite_rect,7,0.564,0,6,0,6,0,1,,,,,,,,,,,,,
645eb589e88d24fd5d75c724,TCN,2024-06-11_11h04.58.334,LearnStrategy,2023.2.3,Win32,59.88023952,7,1,8,-0.002777778,-0.017361111,1,0,0,0.6498,rock_grid_rect_2,7,10,-1,-1,0.65,0.311805556,-0.395833333,1,0,0,1.665,Pumice_rect,8,1.665,0,7,0,7,0,1,,,,,,,,,,,,,
645eb589e88d24fd5d75c724,TCN,2024-06-11_11h04.58.334,LearnStrategy,2023.2.3,Win32,59.88023952,7,1,9,-0.034722222,-0.023611111,1,0,0,0.9832,rock_grid_rect_2,5,14,-1,-1,0.983,-0.318055556,-0.385416667,1,0,0,1.398,Obsidian_rect,5,1.398,1,8,0,8,0,1,,,,,,,,,,,,,
645eb589e88d24fd5d75c724,TCN,2024-06-11_11h04.58.334,LearnStrategy,2023.2.3,Win32,59.88023952,7,1,10,-0.125694444,-0.016666667,1,0,0,1,rock_grid_rect_2,6,12,-1,-1,1,-0.3,-0.251388889,1,0,0,0.981,Andesite_rect,1,0.981,0,9,0,9,0,1,,,,,,,,,,,,,
645eb589e88d24fd5d75c724,TCN,2024-06-11_11h04.58.334,LearnStrategy,2023.2.3,Win32,59.88023952,7,1,11,-0.046527778,-0.014583333,1,0,0,0.5998,rock_grid_rect_2,3,13,-1,-1,0.6,-0.1125,-0.229861111,1,0,0,0.4807,Basalt_rect,2,0.481,0,10,0,10,0,1,,,,,,,,,,,,,
645eb589e88d24fd5d75c724,TCN,2024-06-11_11h04.58.334,LearnStrategy,2023.2.3,Win32,59.88023952,7,1,12,-0.028472222,0.000694444,1,0,0,0.633,rock_grid_rect_2,4,13,-1,-1,0.633,0.058333333,-0.241666667,1,0,0,0.4973,Diorite_rect,3,0.497,0,11,0,11,0,1,,,,,,,,,,,,,
645eb589e88d24fd5d75c724,TCN,2024-06-11_11h04.58.334,LearnStrategy,2023.2.3,Win32,59.88023952,7,1,13,0.024305556,-0.002083333,1,0,0,0.7998,rock_grid_rect_2,8,13,-1,-1,0.8,0.320138889,-0.239583333,1,0,0,0.8476,Gabbro_rect,4,0.848,0,12,0,12,0,1,,,,,,,,,,,,,
645eb589e88d24fd5d75c724,TCN,2024-06-11_11h04.58.334,LearnStrategy,2023.2.3,Win32,59.88023952,7,1,14,-0.061805556,-0.019444444,1,0,0,0.6663,rock_grid_rect_2,6,10,-1,-1,0.666,-0.040972222,-0.388888889,1,0,0,1.5316,Pegmatite_rect,6,1.532,1,13,0,13,0,1,,,,,,,,,,,,,
645eb589e88d24fd5d75c724,TCN,2024-06-11_11h04.58.334,LearnStrategy,2023.2.3,Win32,59.88023952,7,1,15,-0.111111111,-0.017361111,1,0,0,0.6498,rock_grid_rect_2,2,08,-1,-1,0.65,-0.024305556,-0.233333333,1,0,0,1.5816,Basalt_rect,2,1.582,1,14,0,14,0,1,,,,,,,,,,,,,
645eb589e88d24fd5d75c724,TCN,2024-06-11_11h04.58.334,LearnStrategy,2023.2.3,Win32,59.88023952,7,1,16,-0.018055556,-0.002777778,1,0,0,0.6831,rock_grid_rect_2,7,02,-1,-1,0.683,0.105555556,-0.398611111,1,0,0,0.9475,Peridotite_rect,7,0.947,1,15,0,15,0,1,,,,,,,,,,,,,
645eb589e88d24fd5d75c724,TCN,2024-06-11_11h04.58.334,LearnStrategy,2023.2.3,Win32,59.88023952,7,2,1,,,,,,,,7,16,,,,,,,,,,,6,1.814,0,,,,,,-0.052777778,-0.397222222,1,0,0,1.8142,Pegmatite_rect,0,0,0,0,1,
645eb589e88d24fd5d75c724,TCN,2024-06-11_11h04.58.334,LearnStrategy,2023.2.3,Win32,59.88023952,7,2,2,,,,,,,,4,08,,,,,,,,,,,3,0.914,0,,,,,,0.057638889,-0.234027778,1,0,0,0.9141,Diorite_rect,1,0,1,0,1,
645eb589e88d24fd5d75c724,TCN,2024-06-11_11h04.58.334,LearnStrategy,2023.2.3,Win32,59.88023952,7,2,3,,,,,,,,4,03,,,,,,,,,,,2,0.613,0,,,,,,-0.056944444,-0.249305556,1,0,0,0.6135,Basalt_rect,2,0,2,0,1,
645eb589e88d24fd5d75c724,TCN,2024-06-11_11h04.58.334,LearnStrategy,2023.2.3,Win32,59.88023952,7,2,4,,,,,,,,8,05,,,,,,,,,,,4,0.697,0,,,,,,0.329166667,-0.241666667,1,0,0,0.6971,Gabbro_rect,3,0,3,0,1,
645eb589e88d24fd5d75c724,TCN,2024-06-11_11h04.58.334,LearnStrategy,2023.2.3,Win32,59.88023952,7,2,5,,,,,,,,3,15,,,,,,,,,,,8,1.064,0,,,,,,0.314583333,-0.39375,1,0,0,1.0643,Pumice_rect,4,0,4,0,1,
645eb589e88d24fd5d75c724,TCN,2024-06-11_11h04.58.334,LearnStrategy,2023.2.3,Win32,59.88023952,7,2,6,,,,,,,,7,07,,,,,,,,,,,7,0.464,1,,,,,,0.161805556,-0.395138889,1,0,0,0.4638,Peridotite_rect,5,0,5,0,1,
645eb589e88d24fd5d75c724,TCN,2024-06-11_11h04.58.334,LearnStrategy,2023.2.3,Win32,59.88023952,7,2,7,,,,,,,,5,07,,,,,,,,,,,3,0.38,0,,,,,,0.096527778,-0.251388889,1,0,0,0.3802,Diorite_rect,6,0,6,0,1,
645eb589e88d24fd5d75c724,TCN,2024-06-11_11h04.58.334,LearnStrategy,2023.2.3,Win32,59.88023952,7,2,8,,,,,,,,1,07,,,,,,,,,,,2,0.73,0,,,,,,-0.043055556,-0.2375,1,0,0,0.7305,Basalt_rect,7,0,7,0,1,
645eb589e88d24fd5d75c724,TCN,2024-06-11_11h04.58.334,LearnStrategy,2023.2.3,Win32,59.88023952,7,2,9,,,,,,,,6,15,,,,,,,,,,,1,0.747,0,,,,,,-0.322222222,-0.230555556,1,0,0,0.7473,Andesite_rect,8,0,8,0,1,
645eb589e88d24fd5d75c724,TCN,2024-06-11_11h04.58.334,LearnStrategy,2023.2.3,Win32,59.88023952,7,2,10,,,,,,,,5,16,,,,,,,,,,,5,1.565,1,,,,,,-0.325694444,-0.390972222,1,0,0,1.5649,Obsidian_rect,9,0,9,0,1,
645eb589e88d24fd5d75c724,TCN,2024-06-11_11h04.58.334,LearnStrategy,2023.2.3,Win32,59.88023952,7,2,11,,,,,,,,6,09,,,,,,,,,,,1,0.964,0,,,,,,-0.324305556,-0.244444444,1,0,0,0.9642,Andesite_rect,10,0,10,0,1,
645eb589e88d24fd5d75c724,TCN,2024-06-11_11h04.58.334,LearnStrategy,2023.2.3,Win32,59.88023952,7,2,12,,,,,,,,1,11,,,,,,,,,,,6,0.964,0,,,,,,-0.120138889,-0.391666667,1,0,0,0.964,Pegmatite_rect,11,0,11,0,1,
645eb589e88d24fd5d75c724,TCN,2024-06-11_11h04.58.334,LearnStrategy,2023.2.3,Win32,59.88023952,7,2,13,,,,,,,,8,08,,,,,,,,,,,3,0.881,0,,,,,,0.067361111,-0.232638889,1,0,0,0.8809,Diorite_rect,12,0,12,0,1,
645eb589e88d24fd5d75c724,TCN,2024-06-11_11h04.58.334,LearnStrategy,2023.2.3,Win32,59.88023952,7,2,14,,,,,,,,2,06,,,,,,,,,,,2,0.964,1,,,,,,-0.083333333,-0.242361111,1,0,0,0.9642,Basalt_rect,13,0,13,0,1,
645eb589e88d24fd5d75c724,TCN,2024-06-11_11h04.58.334,LearnStrategy,2023.2.3,Win32,59.88023952,7,2,15,,,,,,,,2,05,,,,,,,,,,,7,0.814,0,,,,,,0.122916667,-0.399305556,1,0,0,0.814,Peridotite_rect,14,0,14,0,1,
645eb589e88d24fd5d75c724,TCN,2024-06-11_11h04.58.334,LearnStrategy,2023.2.3,Win32,59.88023952,7,2,16,,,,,,,,3,02,,,,,,,,,,,6,0.881,0,,,,,,-0.040972222,-0.391666667,1,0,0,0.8808,Pegmatite_rect,15,0,15,0,1,
645eb589e88d24fd5d75c724,TCN,2024-06-11_11h04.58.334,LearnStrategy,2023.2.3,Win32,59.88023952,8,1,1,0.034722222,0.0125,1,0,0,0.8669,rock_grid_rect_2,6,11,-1,-1,0.867,-0.059027778,-0.240972222,1,0,0,0.9805,Basalt_rect,2,0.981,0,0,0,0,0,1,,,,,,,,,,,,,
645eb589e88d24fd5d75c724,TCN,2024-06-11_11h04.58.334,LearnStrategy,2023.2.3,Win32,59.88023952,8,1,2,-0.004166667,-0.019444444,1,0,0,0.933,rock_grid_rect_2,1,02,-1,-1,0.933,0.1375,-0.266666667,1,0,0,0.8477,Diorite_rect,3,0.848,0,1,0,1,0,1,,,,,,,,,,,,,
645eb589e88d24fd5d75c724,TCN,2024-06-11_11h04.58.334,LearnStrategy,2023.2.3,Win32,59.88023952,8,1,3,0.001388889,0.009027778,1,0,0,0.5331,rock_grid_rect_2,3,16,-1,-1,0.533,0.44375,-0.254861111,1,0,0,0.4805,Gabbro_rect,4,0.481,0,2,0,2,0,1,,,,,,,,,,,,,
645eb589e88d24fd5d75c724,TCN,2024-06-11_11h04.58.334,LearnStrategy,2023.2.3,Win32,59.88023952,8,1,4,-0.073611111,0.011111111,1,0,0,0.9834,rock_grid_rect_2,7,14,-1,-1,0.983,-0.338194444,-0.238888889,1,0,0,1.6983,Andesite_rect,1,1.698,0,3,0,3,0,1,,,,,,,,,,,,,
645eb589e88d24fd5d75c724,TCN,2024-06-11_11h04.58.334,LearnStrategy,2023.2.3,Win32,59.88023952,8,1,5,-0.118055556,0.00625,1,0,0,0.5996,rock_grid_rect_2,5,05,-1,-1,0.6,-0.301388889,-0.391666667,1,0,0,1.231,Obsidian_rect,5,1.231,1,4,0,4,0,1,,,,,,,,,,,,,
645eb589e88d24fd5d75c724,TCN,2024-06-11_11h04.58.334,LearnStrategy,2023.2.3,Win32,59.88023952,8,1,6,-0.002083333,0.013194444,1,0,0,0.5498,rock_grid_rect_2,4,12,-1,-1,0.55,-0.0875,-0.246527778,1,0,0,1.4983,Basalt_rect,2,1.498,0,5,0,5,0,1,,,,,,,,,,,,,
645eb589e88d24fd5d75c724,TCN,2024-06-11_11h04.58.334,LearnStrategy,2023.2.3,Win32,59.88023952,8,1,7,-0.00625,-0.023611111,1,0,0,0.9835,rock_grid_rect_2,2,04,-1,-1,0.983,-0.061111111,-0.245833333,1,0,0,1.3978,Basalt_rect,2,1.398,1,6,0,6,0,1,,,,,,,,,,,,,
645eb589e88d24fd5d75c724,TCN,2024-06-11_11h04.58.334,LearnStrategy,2023.2.3,Win32,59.88023952,8,1,8,-0.078472222,0.009027778,1,0,0,0.8835,rock_grid_rect_2,1,04,-1,-1,0.883,0.098611111,-0.245138889,1,0,0,1.2144,Diorite_rect,3,1.214,0,7,0,7,0,1,,,,,,,,,,,,,
645eb589e88d24fd5d75c724,TCN,2024-06-11_11h04.58.334,LearnStrategy,2023.2.3,Win32,59.88023952,8,1,9,-0.008333333,-0.023611111,1,0,0,0.6332,rock_grid_rect_2,4,15,-1,-1,0.633,0.102083333,-0.384722222,1,0,0,1.5325,Peridotite_rect,7,1.532,0,8,0,8,0,1,,,,,,,,,,,,,
645eb589e88d24fd5d75c724,TCN,2024-06-11_11h04.58.334,LearnStrategy,2023.2.3,Win32,59.88023952,8,1,10,-0.039583333,-0.019444444,1,0,0,0.8332,rock_grid_rect_2,2,12,-1,-1,0.833,-0.024305556,-0.247916667,1,0,0,1.2975,Basalt_rect,2,1.298,1,9,0,9,0,1,,,,,,,,,,,,,
645eb589e88d24fd5d75c724,TCN,2024-06-11_11h04.58.334,LearnStrategy,2023.2.3,Win32,59.88023952,8,1,11,-0.013194444,-0.021527778,1,0,0,0.8167,rock_grid_rect_2,6,03,-1,-1,0.817,-0.082638889,-0.391666667,1,0,0,1.4149,Pegmatite_rect,6,1.415,1,10,0,10,0,1,,,,,,,,,,,,,
645eb589e88d24fd5d75c724,TCN,2024-06-11_11h04.58.334,LearnStrategy,2023.2.3,Win32,59.88023952,8,1,12,-0.088888889,-0.020833333,1,0,0,1.1337,rock_grid_rect_2,3,12,-1,-1,1.134,0.336805556,-0.25,1,0,0,1.6143,Gabbro_rect,4,1.614,0,11,0,11,0,1,,,,,,,,,,,,,
645eb589e88d24fd5d75c724,TCN,2024-06-11_11h04.58.334,LearnStrategy,2023.2.3,Win32,59.88023952,8,1,13,0.024305556,-0.004166667,1,0,0,0.5498,rock_grid_rect_2,8,03,-1,-1,0.55,0.059027778,-0.261805556,1,0,0,1.1312,Diorite_rect,3,1.131,0,12,0,12,0,1,,,,,,,,,,,,,
645eb589e88d24fd5d75c724,TCN,2024-06-11_11h04.58.334,LearnStrategy,2023.2.3,Win32,59.88023952,8,1,14,0.029166667,-0.00625,1,0,0,0.4662,rock_grid_rect_2,8,15,-1,-1,0.466,0.329861111,-0.415277778,1,0,0,1.0478,Pumice_rect,8,1.048,1,13,0,13,0,1,,,,,,,,,,,,,
645eb589e88d24fd5d75c724,TCN,2024-06-11_11h04.58.334,LearnStrategy,2023.2.3,Win32,59.88023952,8,1,15,0.034722222,-0.00625,1,0,0,1.7003,rock_grid_rect_2,7,15,-1,-1,1.7,-0.119444444,-0.390277778,1,0,0,1.6149,Pegmatite_rect,6,1.615,0,14,0,14,0,1,,,,,,,,,,,,,
645eb589e88d24fd5d75c724,TCN,2024-06-11_11h04.58.334,LearnStrategy,2023.2.3,Win32,59.88023952,8,1,16,0.016666667,-0.013888889,1,0,0,0.8834,rock_grid_rect_2,5,09,-1,-1,0.883,-0.359722222,-0.398611111,1,0,0,1.0979,Obsidian_rect,5,1.098,1,15,0,15,0,1,,,,,,,,,,,,,
645eb589e88d24fd5d75c724,TCN,2024-06-11_11h04.58.334,LearnStrategy,2023.2.3,Win32,59.88023952,8,2,1,,,,,,,,5,10,,,,,,,,,,,5,1.081,1,,,,,,-0.323611111,-0.395138889,1,0,0,1.0809,Obsidian_rect,0,0,0,0,1,
645eb589e88d24fd5d75c724,TCN,2024-06-11_11h04.58.334,LearnStrategy,2023.2.3,Win32,59.88023952,8,2,2,,,,,,,,7,13,,,,,,,,,,,7,1.415,1,,,,,,0.082638889,-0.395833333,1,0,0,1.4147,Peridotite_rect,1,0,1,0,1,
645eb589e88d24fd5d75c724,TCN,2024-06-11_11h04.58.334,LearnStrategy,2023.2.3,Win32,59.88023952,8,2,3,,,,,,,,2,01,,,,,,,,,,,3,1.181,0,,,,,,0.0625,-0.247222222,1,0,0,1.1811,Diorite_rect,2,0,2,0,1,
645eb589e88d24fd5d75c724,TCN,2024-06-11_11h04.58.334,LearnStrategy,2023.2.3,Win32,59.88023952,8,2,4,,,,,,,,8,06,,,,,,,,,,,4,2.115,0,,,,,,0.384722222,-0.24375,1,0,0,2.1153,Gabbro_rect,3,0,3,0,1,
645eb589e88d24fd5d75c724,TCN,2024-06-11_11h04.58.334,LearnStrategy,2023.2.3,Win32,59.88023952,8,2,5,,,,,,,,2,02,,,,,,,,,,,2,0.981,1,,,,,,-0.070833333,-0.263194444,1,0,0,0.9809,Basalt_rect,4,0,4,0,1,
645eb589e88d24fd5d75c724,TCN,2024-06-11_11h04.58.334,LearnStrategy,2023.2.3,Win32,59.88023952,8,2,6,,,,,,,,4,16,,,,,,,,,,,2,0.997,0,,,,,,-0.121527778,-0.271527778,1,0,0,0.9971,Basalt_rect,5,0,5,0,1,
645eb589e88d24fd5d75c724,TCN,2024-06-11_11h04.58.334,LearnStrategy,2023.2.3,Win32,59.88023952,8,2,7,,,,,,,,6,05,,,,,,,,,,,1,1.365,0,,,,,,-0.294444444,-0.252083333,1,0,0,1.3646,Andesite_rect,6,0,6,0,1,
645eb589e88d24fd5d75c724,TCN,2024-06-11_11h04.58.334,LearnStrategy,2023.2.3,Win32,59.88023952,8,2,8,,,,,,,,1,05,,,,,,,,,,,8,1.698,0,,,,,,0.320138889,-0.406944444,1,0,0,1.6983,Pumice_rect,7,0,7,0,1,
645eb589e88d24fd5d75c724,TCN,2024-06-11_11h04.58.334,LearnStrategy,2023.2.3,Win32,59.88023952,8,2,9,,,,,,,,8,02,,,,,,,,,,,4,2.349,0,,,,,,0.326388889,-0.245138889,1,0,0,2.3486,Gabbro_rect,8,0,8,0,1,
645eb589e88d24fd5d75c724,TCN,2024-06-11_11h04.58.334,LearnStrategy,2023.2.3,Win32,59.88023952,8,2,10,,,,,,,,1,14,,,,,,,,,,,2,1.181,0,,,,,,-0.056944444,-0.248611111,1,0,0,1.1811,Basalt_rect,9,0,9,0,1,
645eb589e88d24fd5d75c724,TCN,2024-06-11_11h04.58.334,LearnStrategy,2023.2.3,Win32,59.88023952,8,2,11,,,,,,,,7,04,,,,,,,,,,,1,2.132,0,,,,,,-0.342361111,-0.2375,1,0,0,2.1319,Andesite_rect,10,0,10,0,1,
645eb589e88d24fd5d75c724,TCN,2024-06-11_11h04.58.334,LearnStrategy,2023.2.3,Win32,59.88023952,8,2,12,,,,,,,,3,08,,,,,,,,,,,3,1.582,1,,,,,,0.113194444,-0.249305556,1,0,0,1.5816,Diorite_rect,11,0,11,0,1,
645eb589e88d24fd5d75c724,TCN,2024-06-11_11h04.58.334,LearnStrategy,2023.2.3,Win32,59.88023952,8,2,13,,,,,,,,6,07,,,,,,,,,,,4,0.913,0,,,,,,0.334722222,-0.259027778,1,0,0,0.913,Gabbro_rect,12,0,12,0,1,
645eb589e88d24fd5d75c724,TCN,2024-06-11_11h04.58.334,LearnStrategy,2023.2.3,Win32,59.88023952,8,2,14,,,,,,,,3,10,,,,,,,,,,,8,1.881,0,,,,,,0.345833333,-0.388194444,1,0,0,1.8807,Pumice_rect,13,0,13,0,1,
645eb589e88d24fd5d75c724,TCN,2024-06-11_11h04.58.334,LearnStrategy,2023.2.3,Win32,59.88023952,8,2,15,,,,,,,,4,09,,,,,,,,,,,6,1.481,0,,,,,,-0.134027778,-0.393055556,1,0,0,1.4812,Pegmatite_rect,14,0,14,0,1,
645eb589e88d24fd5d75c724,TCN,2024-06-11_11h04.58.334,LearnStrategy,2023.2.3,Win32,59.88023952,8,2,16,,,,,,,,5,12,,,,,,,,,,,5,0.981,1,,,,,,-0.313888889,-0.395833333,1,0,0,0.9809,Obsidian_rect,15,0,15,0,1,
645eb589e88d24fd5d75c724,TCN,2024-06-11_11h04.58.334,LearnStrategy,2023.2.3,Win32,59.88023952,9,1,1,0.011111111,0.0125,1,0,0,0.7835,rock_grid_rect_2,8,10,-1,-1,0.784,-0.1,-0.265972222,1,0,0,1.2312,Basalt_rect,2,1.231,0,0,0,0,0,1,,,,,,,,,,,,,
645eb589e88d24fd5d75c724,TCN,2024-06-11_11h04.58.334,LearnStrategy,2023.2.3,Win32,59.88023952,9,1,2,0.000694444,-0.024305556,1,0,0,0.9836,rock_grid_rect_2,6,16,-1,-1,0.984,0.097222222,-0.270833333,1,0,0,0.9311,Diorite_rect,3,0.931,0,1,0,1,0,1,,,,,,,,,,,,,
645eb589e88d24fd5d75c724,TCN,2024-06-11_11h04.58.334,LearnStrategy,2023.2.3,Win32,59.88023952,9,1,3,0.045138889,-0.011805556,1,0,0,0.7667,rock_grid_rect_2,2,11,-1,-1,0.767,0.433333333,-0.264583333,1,0,0,0.9143,Gabbro_rect,4,0.914,0,2,0,2,0,1,,,,,,,,,,,,,
645eb589e88d24fd5d75c724,TCN,2024-06-11_11h04.58.334,LearnStrategy,2023.2.3,Win32,59.88023952,9,1,4,-0.026388889,0.001388889,1,0,0,0.633,rock_grid_rect_2,4,05,-1,-1,0.633,-0.063194444,-0.388194444,1,0,0,1.0644,Pegmatite_rect,6,1.064,0,3,0,3,0,1,,,,,,,,,,,,,
645eb589e88d24fd5d75c724,TCN,2024-06-11_11h04.58.334,LearnStrategy,2023.2.3,Win32,59.88023952,9,1,5,-0.016666667,-0.017361111,1,0,0,0.9168,rock_grid_rect_2,3,06,-1,-1,0.917,0.100694444,-0.400694444,1,0,0,1.0145,Peridotite_rect,7,1.015,0,4,0,4,0,1,,,,,,,,,,,,,
645eb589e88d24fd5d75c724,TCN,2024-06-11_11h04.58.334,LearnStrategy,2023.2.3,Win32,59.88023952,9,1,6,0.055555556,-0.025,1,0,0,1.05,rock_grid_rect_2,5,02,-1,-1,1.05,-0.326388889,-0.415277778,1,0,0,1.248,Obsidian_rect,5,1.248,1,5,0,5,0,1,,,,,,,,,,,,,
645eb589e88d24fd5d75c724,TCN,2024-06-11_11h04.58.334,LearnStrategy,2023.2.3,Win32,59.88023952,9,1,7,-0.03125,0.00625,1,0,0,0.6498,rock_grid_rect_2,3,09,-1,-1,0.65,-0.302777778,-0.266666667,1,0,0,0.8643,Andesite_rect,1,0.864,0,6,0,6,0,1,,,,,,,,,,,,,
645eb589e88d24fd5d75c724,TCN,2024-06-11_11h04.58.334,LearnStrategy,2023.2.3,Win32,59.88023952,9,1,8,-0.011805556,-0.0125,1,0,0,0.9835,rock_grid_rect_2,6,13,-1,-1,0.983,-0.155555556,-0.397916667,1,0,0,0.9477,Pegmatite_rect,6,0.948,1,7,0,7,0,1,,,,,,,,,,,,,
645eb589e88d24fd5d75c724,TCN,2024-06-11_11h04.58.334,LearnStrategy,2023.2.3,Win32,59.88023952,9,1,9,-0.025694444,0.001388889,1,0,0,0.5496,rock_grid_rect_2,8,09,-1,-1,0.55,-0.052083333,-0.270138889,1,0,0,1.0478,Basalt_rect,2,1.048,0,8,0,8,0,1,,,,,,,,,,,,,
645eb589e88d24fd5d75c724,TCN,2024-06-11_11h04.58.334,LearnStrategy,2023.2.3,Win32,59.88023952,9,1,10,-0.050694444,-0.001388889,1,0,0,0.6833,rock_grid_rect_2,5,06,-1,-1,0.683,-0.340277778,-0.395138889,1,0,0,1.1309,Obsidian_rect,5,1.131,1,9,0,9,0,1,,,,,,,,,,,,,
645eb589e88d24fd5d75c724,TCN,2024-06-11_11h04.58.334,LearnStrategy,2023.2.3,Win32,59.88023952,9,1,11,-0.054166667,-0.014583333,1,0,0,0.75,rock_grid_rect_2,2,09,-1,-1,0.75,-0.051388889,-0.245138889,1,0,0,1.2308,Basalt_rect,2,1.231,1,10,0,10,0,1,,,,,,,,,,,,,
645eb589e88d24fd5d75c724,TCN,2024-06-11_11h04.58.334,LearnStrategy,2023.2.3,Win32,59.88023952,9,1,12,-0.08125,-0.00625,1,0,0,0.5998,rock_grid_rect_2,7,12,-1,-1,0.6,0.120138889,-0.39375,1,0,0,1.3147,Peridotite_rect,7,1.315,1,11,0,11,0,1,,,,,,,,,,,,,
645eb589e88d24fd5d75c724,TCN,2024-06-11_11h04.58.334,LearnStrategy,2023.2.3,Win32,59.88023952,9,1,13,-0.027777778,-0.015972222,1,0,0,0.8999,rock_grid_rect_2,1,09,-1,-1,0.9,-0.303472222,-0.256944444,1,0,0,1.5483,Andesite_rect,1,1.548,1,12,0,12,0,1,,,,,,,,,,,,,
645eb589e88d24fd5d75c724,TCN,2024-06-11_11h04.58.334,LearnStrategy,2023.2.3,Win32,59.88023952,9,1,14,-0.006944444,-0.0125,1,0,0,1.0335,rock_grid_rect_2,4,01,-1,-1,1.034,0.313888889,-0.238888889,1,0,0,1.5148,Gabbro_rect,4,1.515,1,13,0,13,0,1,,,,,,,,,,,,,
645eb589e88d24fd5d75c724,TCN,2024-06-11_11h04.58.334,LearnStrategy,2023.2.3,Win32,59.88023952,9,1,15,-0.004166667,-0.009027778,1,0,0,0.6998,rock_grid_rect_2,7,06,-1,-1,0.7,-0.047916667,-0.394444444,1,0,0,3.7,Pegmatite_rect,6,3.7,0,14,0,14,0,1,,,,,,,,,,,,,
645eb589e88d24fd5d75c724,TCN,2024-06-11_11h04.58.334,LearnStrategy,2023.2.3,Win32,59.88023952,9,1,16,-0.004166667,0.001388889,1,0,0,0.5831,rock_grid_rect_2,1,01,-1,-1,0.583,0.074305556,-0.229861111,1,0,0,1.2982,Diorite_rect,3,1.298,0,15,0,15,0,1,,,,,,,,,,,,,
645eb589e88d24fd5d75c724,TCN,2024-06-11_11h04.58.334,LearnStrategy,2023.2.3,Win32,59.88023952,9,2,1,,,,,,,,4,14,,,,,,,,,,,1,1.865,0,,,,,,-0.291666667,-0.244444444,1,0,0,1.8648,Andesite_rect,0,0,0,0,1,
645eb589e88d24fd5d75c724,TCN,2024-06-11_11h04.58.334,LearnStrategy,2023.2.3,Win32,59.88023952,9,2,2,,,,,,,,1,16,,,,,,,,,,,2,1.031,0,,,,,,-0.095138889,-0.260416667,1,0,0,1.0309,Basalt_rect,1,0,1,0,1,
645eb589e88d24fd5d75c724,TCN,2024-06-11_11h04.58.334,LearnStrategy,2023.2.3,Win32,59.88023952,9,2,3,,,,,,,,2,10,,,,,,,,,,,3,0.997,0,,,,,,0.047916667,-0.255555556,1,0,0,0.9974,Diorite_rect,2,0,2,0,1,
645eb589e88d24fd5d75c724,TCN,2024-06-11_11h04.58.334,LearnStrategy,2023.2.3,Win32,59.88023952,9,2,4,,,,,,,,8,16,,,,,,,,,,,8,2.832,1,,,,,,0.320833333,-0.397222222,1,0,0,2.8325,Pumice_rect,3,0,3,0,1,
645eb589e88d24fd5d75c724,TCN,2024-06-11_11h04.58.334,LearnStrategy,2023.2.3,Win32,59.88023952,9,2,5,,,,,,,,6,06,,,,,,,,,,,8,1.06,0,,,,,,0.301388889,-0.390972222,1,0,0,1.0603,Pumice_rect,4,0,4,0,1,
645eb589e88d24fd5d75c724,TCN,2024-06-11_11h04.58.334,LearnStrategy,2023.2.3,Win32,59.88023952,9,2,6,,,,,,,,8,04,,,,,,,,,,,8,1.014,1,,,,,,0.332638889,-0.390277778,1,0,0,1.0143,Pumice_rect,5,0,5,0,1,
645eb589e88d24fd5d75c724,TCN,2024-06-11_11h04.58.334,LearnStrategy,2023.2.3,Win32,59.88023952,9,2,7,,,,,,,,2,16,,,,,,,,,,,2,1.498,1,,,,,,-0.065277778,-0.259722222,1,0,0,1.498,Basalt_rect,6,0,6,0,1,
645eb589e88d24fd5d75c724,TCN,2024-06-11_11h04.58.334,LearnStrategy,2023.2.3,Win32,59.88023952,9,2,8,,,,,,,,3,07,,,,,,,,,,,6,1.181,0,,,,,,-0.025694444,-0.380555556,1,0,0,1.181,Pegmatite_rect,7,0,7,0,1,
645eb589e88d24fd5d75c724,TCN,2024-06-11_11h04.58.334,LearnStrategy,2023.2.3,Win32,59.88023952,9,2,9,,,,,,,,5,04,,,,,,,,,,,5,0.98,1,,,,,,-0.334027778,-0.389583333,1,0,0,0.9802,Obsidian_rect,8,0,8,0,1,
645eb589e88d24fd5d75c724,TCN,2024-06-11_11h04.58.334,LearnStrategy,2023.2.3,Win32,59.88023952,9,2,10,,,,,,,,7,08,,,,,,,,,,,5,1.181,0,,,,,,-0.341666667,-0.382638889,1,0,0,1.1811,Obsidian_rect,9,0,9,0,1,
645eb589e88d24fd5d75c724,TCN,2024-06-11_11h04.58.334,LearnStrategy,2023.2.3,Win32,59.88023952,9,2,11,,,,,,,,6,08,,,,,,,,,,,6,1.465,1,,,,,,-0.091666667,-0.389583333,1,0,0,1.4647,Pegmatite_rect,10,0,10,0,1,
645eb589e88d24fd5d75c724,TCN,2024-06-11_11h04.58.334,LearnStrategy,2023.2.3,Win32,59.88023952,9,2,12,,,,,,,,1,10,,,,,,,,,,,3,0.864,0,,,,,,0.077777778,-0.265972222,1,0,0,0.8643,Diorite_rect,11,0,11,0,1,
645eb589e88d24fd5d75c724,TCN,2024-06-11_11h04.58.334,LearnStrategy,2023.2.3,Win32,59.88023952,9,2,13,,,,,,,,4,11,,,,,,,,,,,7,0.597,0,,,,,,0.070833333,-0.4,1,0,0,0.5971,Peridotite_rect,12,0,12,0,1,
645eb589e88d24fd5d75c724,TCN,2024-06-11_11h04.58.334,LearnStrategy,2023.2.3,Win32,59.88023952,9,2,14,,,,,,,,5,11,,,,,,,,,,,5,0.964,1,,,,,,-0.309722222,-0.395138889,1,0,0,0.9642,Obsidian_rect,13,0,13,0,1,
645eb589e88d24fd5d75c724,TCN,2024-06-11_11h04.58.334,LearnStrategy,2023.2.3,Win32,59.88023952,9,2,15,,,,,,,,7,05,,,,,,,,,,,2,1.081,0,,,,,,-0.054861111,-0.263194444,1,0,0,1.0808,Basalt_rect,14,0,14,0,1,
645eb589e88d24fd5d75c724,TCN,2024-06-11_11h04.58.334,LearnStrategy,2023.2.3,Win32,59.88023952,9,2,16,,,,,,,,3,14,,,,,,,,,,,4,1.131,0,,,,,,0.291666667,-0.261111111,1,0,0,1.1309,Gabbro_rect,15,0,15,0,1,
645eb589e88d24fd5d75c724,TCN,2024-06-11_11h04.58.334,LearnStrategy,2023.2.3,Win32,59.88023952,,,,,,,,,,,,,,,,,,,,,,,,,,,,,,,,,,,,,,,,,,,0
645eb589e88d24fd5d75c724,TCN,2024-06-11_11h04.58.334,LearnStrategy,2023.2.3,Win32,59.88023952,,,,,,,,,,,,,,,,,,,,,,,,,,,,,,,,,,,,,,,,,,,
645eb589e88d24fd5d75c724,TCN,2024-06-11_11h04.58.334,LearnStrategy,2023.2.3,Win32,59.88023952,,,,,,,,,,,6,10,1,1,,,,,,,,,,,,,,,,,,,,,,,,,,,,,
645eb589e88d24fd5d75c724,TCN,2024-06-11_11h04.58.334,LearnStrategy,2023.2.3,Win32,59.88023952,,,,,,,,,,,2,09,1,2,,,,,,,,,,,,,,,,,,,,,,,,,,,,,
645eb589e88d24fd5d75c724,TCN,2024-06-11_11h04.58.334,LearnStrategy,2023.2.3,Win32,59.88023952,,,,,,,,,,,5,06,1,3,,,,,,,,,,,,,,,,,,,,,,,,,,,,,
645eb589e88d24fd5d75c724,TCN,2024-06-11_11h04.58.334,LearnStrategy,2023.2.3,Win32,59.88023952,,,,,,,,,,,6,03,1,4,,,,,,,,,,,,,,,,,,,,,,,,,,,,,
645eb589e88d24fd5d75c724,TCN,2024-06-11_11h04.58.334,LearnStrategy,2023.2.3,Win32,59.88023952,,,,,,,,,,,6,16,1,5,,,,,,,,,,,,,,,,,,,,,,,,,,,,,
645eb589e88d24fd5d75c724,TCN,2024-06-11_11h04.58.334,LearnStrategy,2023.2.3,Win32,59.88023952,,,,,,,,,,,1,06,1,6,,,,,,,,,,,,,,,,,,,,,,,,,,,,,
645eb589e88d24fd5d75c724,TCN,2024-06-11_11h04.58.334,LearnStrategy,2023.2.3,Win32,59.88023952,,,,,,,,,,,3,06,1,7,,,,,,,,,,,,,,,,,,,,,,,,,,,,,
645eb589e88d24fd5d75c724,TCN,2024-06-11_11h04.58.334,LearnStrategy,2023.2.3,Win32,59.88023952,,,,,,,,,,,6,13,1,8,,,,,,,,,,,,,,,,,,,,,,,,,,,,,
645eb589e88d24fd5d75c724,TCN,2024-06-11_11h04.58.334,LearnStrategy,2023.2.3,Win32,59.88023952,,,,,,,,,,,8,13,2,1,,,,,,,,,,,,,,,,,,,,,,,,,,,,,
645eb589e88d24fd5d75c724,TCN,2024-06-11_11h04.58.334,LearnStrategy,2023.2.3,Win32,59.88023952,,,,,,,,,,,1,04,2,2,,,,,,,,,,,,,,,,,,,,,,,,,,,,,
645eb589e88d24fd5d75c724,TCN,2024-06-11_11h04.58.334,LearnStrategy,2023.2.3,Win32,59.88023952,,,,,,,,,,,3,16,2,3,,,,,,,,,,,,,,,,,,,,,,,,,,,,,
645eb589e88d24fd5d75c724,TCN,2024-06-11_11h04.58.334,LearnStrategy,2023.2.3,Win32,59.88023952,,,,,,,,,,,7,12,2,4,,,,,,,,,,,,,,,,,,,,,,,,,,,,,
645eb589e88d24fd5d75c724,TCN,2024-06-11_11h04.58.334,LearnStrategy,2023.2.3,Win32,59.88023952,,,,,,,,,,,6,11,2,5,,,,,,,,,,,,,,,,,,,,,,,,,,,,,
645eb589e88d24fd5d75c724,TCN,2024-06-11_11h04.58.334,LearnStrategy,2023.2.3,Win32,59.88023952,,,,,,,,,,,8,15,2,6,,,,,,,,,,,,,,,,,,,,,,,,,,,,,
645eb589e88d24fd5d75c724,TCN,2024-06-11_11h04.58.334,LearnStrategy,2023.2.3,Win32,59.88023952,,,,,,,,,,,4,15,2,7,,,,,,,,,,,,,,,,,,,,,,,,,,,,,
645eb589e88d24fd5d75c724,TCN,2024-06-11_11h04.58.334,LearnStrategy,2023.2.3,Win32,59.88023952,,,,,,,,,,,5,09,2,8,,,,,,,,,,,,,,,,,,,,,,,,,,,,,
645eb589e88d24fd5d75c724,TCN,2024-06-11_11h04.58.334,LearnStrategy,2023.2.3,Win32,59.88023952,,,,,,,,,,,1,01,3,1,,,,,,,,,,,,,,,,,,,,,,,,,,,,,
645eb589e88d24fd5d75c724,TCN,2024-06-11_11h04.58.334,LearnStrategy,2023.2.3,Win32,59.88023952,,,,,,,,,,,4,13,3,2,,,,,,,,,,,,,,,,,,,,,,,,,,,,,
645eb589e88d24fd5d75c724,TCN,2024-06-11_11h04.58.334,LearnStrategy,2023.2.3,Win32,59.88023952,,,,,,,,,,,2,12,3,3,,,,,,,,,,,,,,,,,,,,,,,,,,,,,
645eb589e88d24fd5d75c724,TCN,2024-06-11_11h04.58.334,LearnStrategy,2023.2.3,Win32,59.88023952,,,,,,,,,,,1,03,3,4,,,,,,,,,,,,,,,,,,,,,,,,,,,,,
645eb589e88d24fd5d75c724,TCN,2024-06-11_11h04.58.334,LearnStrategy,2023.2.3,Win32,59.88023952,,,,,,,,,,,4,10,3,5,,,,,,,,,,,,,,,,,,,,,,,,,,,,,
645eb589e88d24fd5d75c724,TCN,2024-06-11_11h04.58.334,LearnStrategy,2023.2.3,Win32,59.88023952,,,,,,,,,,,7,06,3,6,,,,,,,,,,,,,,,,,,,,,,,,,,,,,
645eb589e88d24fd5d75c724,TCN,2024-06-11_11h04.58.334,LearnStrategy,2023.2.3,Win32,59.88023952,,,,,,,,,,,2,08,3,7,,,,,,,,,,,,,,,,,,,,,,,,,,,,,
645eb589e88d24fd5d75c724,TCN,2024-06-11_11h04.58.334,LearnStrategy,2023.2.3,Win32,59.88023952,,,,,,,,,,,7,02,3,8,,,,,,,,,,,,,,,,,,,,,,,,,,,,,
645eb589e88d24fd5d75c724,TCN,2024-06-11_11h04.58.334,LearnStrategy,2023.2.3,Win32,59.88023952,,,,,,,,,,,8,03,4,1,,,,,,,,,,,,,,,,,,,,,,,,,,,,,
645eb589e88d24fd5d75c724,TCN,2024-06-11_11h04.58.334,LearnStrategy,2023.2.3,Win32,59.88023952,,,,,,,,,,,7,15,4,2,,,,,,,,,,,,,,,,,,,,,,,,,,,,,
645eb589e88d24fd5d75c724,TCN,2024-06-11_11h04.58.334,LearnStrategy,2023.2.3,Win32,59.88023952,,,,,,,,,,,3,12,4,3,,,,,,,,,,,,,,,,,,,,,,,,,,,,,
645eb589e88d24fd5d75c724,TCN,2024-06-11_11h04.58.334,LearnStrategy,2023.2.3,Win32,59.88023952,,,,,,,,,,,6,12,4,4,,,,,,,,,,,,,,,,,,,,,,,,,,,,,
645eb589e88d24fd5d75c724,TCN,2024-06-11_11h04.58.334,LearnStrategy,2023.2.3,Win32,59.88023952,,,,,,,,,,,8,14,4,5,,,,,,,,,,,,,,,,,,,,,,,,,,,,,
645eb589e88d24fd5d75c724,TCN,2024-06-11_11h04.58.334,LearnStrategy,2023.2.3,Win32,59.88023952,,,,,,,,,,,5,14,4,6,,,,,,,,,,,,,,,,,,,,,,,,,,,,,
645eb589e88d24fd5d75c724,TCN,2024-06-11_11h04.58.334,LearnStrategy,2023.2.3,Win32,59.88023952,,,,,,,,,,,4,12,4,7,,,,,,,,,,,,,,,,,,,,,,,,,,,,,
645eb589e88d24fd5d75c724,TCN,2024-06-11_11h04.58.334,LearnStrategy,2023.2.3,Win32,59.88023952,,,,,,,,,,,3,13,4,8,,,,,,,,,,,,,,,,,,,,,,,,,,,,,
645eb589e88d24fd5d75c724,TCN,2024-06-11_11h04.58.334,LearnStrategy,2023.2.3,Win32,59.88023952,,,,,,,,,,,1,09,5,1,,,,,,,,,,,,,,,,,,,,,,,,,,,,,
645eb589e88d24fd5d75c724,TCN,2024-06-11_11h04.58.334,LearnStrategy,2023.2.3,Win32,59.88023952,,,,,,,,,,,8,10,5,2,,,,,,,,,,,,,,,,,,,,,,,,,,,,,
645eb589e88d24fd5d75c724,TCN,2024-06-11_11h04.58.334,LearnStrategy,2023.2.3,Win32,59.88023952,,,,,,,,,,,4,01,5,3,,,,,,,,,,,,,,,,,,,,,,,,,,,,,
645eb589e88d24fd5d75c724,TCN,2024-06-11_11h04.58.334,LearnStrategy,2023.2.3,Win32,59.88023952,,,,,,,,,,,2,04,5,4,,,,,,,,,,,,,,,,,,,,,,,,,,,,,
645eb589e88d24fd5d75c724,TCN,2024-06-11_11h04.58.334,LearnStrategy,2023.2.3,Win32,59.88023952,,,,,,,,,,,3,11,5,5,,,,,,,,,,,,,,,,,,,,,,,,,,,,,
645eb589e88d24fd5d75c724,TCN,2024-06-11_11h04.58.334,LearnStrategy,2023.2.3,Win32,59.88023952,,,,,,,,,,,2,11,5,6,,,,,,,,,,,,,,,,,,,,,,,,,,,,,
645eb589e88d24fd5d75c724,TCN,2024-06-11_11h04.58.334,LearnStrategy,2023.2.3,Win32,59.88023952,,,,,,,,,,,4,05,5,7,,,,,,,,,,,,,,,,,,,,,,,,,,,,,
645eb589e88d24fd5d75c724,TCN,2024-06-11_11h04.58.334,LearnStrategy,2023.2.3,Win32,59.88023952,,,,,,,,,,,7,14,5,8,,,,,,,,,,,,,,,,,,,,,,,,,,,,,
645eb589e88d24fd5d75c724,TCN,2024-06-11_11h04.58.334,LearnStrategy,2023.2.3,Win32,59.88023952,,,,,,,,,,,5,05,6,1,,,,,,,,,,,,,,,,,,,,,,,,,,,,,
645eb589e88d24fd5d75c724,TCN,2024-06-11_11h04.58.334,LearnStrategy,2023.2.3,Win32,59.88023952,,,,,,,,,,,5,08,6,2,,,,,,,,,,,,,,,,,,,,,,,,,,,,,
645eb589e88d24fd5d75c724,TCN,2024-06-11_11h04.58.334,LearnStrategy,2023.2.3,Win32,59.88023952,,,,,,,,,,,2,14,6,3,,,,,,,,,,,,,,,,,,,,,,,,,,,,,
645eb589e88d24fd5d75c724,TCN,2024-06-11_11h04.58.334,LearnStrategy,2023.2.3,Win32,59.88023952,,,,,,,,,,,3,09,6,4,,,,,,,,,,,,,,,,,,,,,,,,,,,,,
645eb589e88d24fd5d75c724,TCN,2024-06-11_11h04.58.334,LearnStrategy,2023.2.3,Win32,59.88023952,,,,,,,,,,,8,09,6,5,,,,,,,,,,,,,,,,,,,,,,,,,,,,,
645eb589e88d24fd5d75c724,TCN,2024-06-11_11h04.58.334,LearnStrategy,2023.2.3,Win32,59.88023952,,,,,,,,,,,1,02,6,6,,,,,,,,,,,,,,,,,,,,,,,,,,,,,
645eb589e88d24fd5d75c724,TCN,2024-06-11_11h04.58.334,LearnStrategy,2023.2.3,Win32,59.88023952,,,,,,,,,,,5,02,6,7,,,,,,,,,,,,,,,,,,,,,,,,,,,,,
645eb589e88d24fd5d75c724,TCN,2024-06-11_11h04.58.334,LearnStrategy,2023.2.3,Win32,59.88023952,,,,,,,,,,,7,10,6,8,,,,,,,,,,,,,,,,,,,,,,,,,,,,,