participant,condition,date,expName,psychopyVersion,OS,frameRate,block,phase,trial,learn_mouse.x,learn_mouse.y,learn_mouse.leftButton,learn_mouse.midButton,learn_mouse.rightButton,learn_mouse.time,learn_mouse.clicked_name,cat,token,row,col,t_select,cat_mouse_l.x,cat_mouse_l.y,cat_mouse_l.leftButton,cat_mouse_l.midButton,cat_mouse_l.rightButton,cat_mouse_l.time,cat_mouse_l.clicked_name,resp,t_resp,corr,train_trials.thisRepN,train_trials.thisTrialN,train_trials.thisN,train_trials.thisIndex,train_trials.ran,cat_mouse_t.x,cat_mouse_t.y,cat_mouse_t.leftButton,cat_mouse_t.midButton,cat_mouse_t.rightButton,cat_mouse_t.time,cat_mouse_t.clicked_name,test_trials.thisRepN,test_trials.thisTrialN,test_trials.thisN,test_trials.thisIndex,test_trials.ran,Bonus
646774e0f86825ab62c37581,SCN,2024-06-25_11h44.51.736,LearnStrategy,2023.2.3,Win32,60.24096386,,,,,,,,,,,,,,,,,,,,,,,,,,,,,,,,,,,,,,,,,,,
646774e0f86825ab62c37581,SCN,2024-06-25_11h44.51.736,LearnStrategy,2023.2.3,Win32,60.24096386,1,1,1,-0.549479167,0.411458333,1,0,0,2.5087,Pegmatite_05,6,05,6,1,2.509,-0.080729167,-0.399739583,1,0,0,7.1651,Pegmatite_rect,6,7.165,1,0,0,0,0,1,,,,,,,,,,,,,
646774e0f86825ab62c37581,SCN,2024-06-25_11h44.51.736,LearnStrategy,2023.2.3,Win32,60.24096386,1,1,2,-0.36328125,0.399739583,1,0,0,2.6161,Pegmatite_07,6,07,6,2,2.616,0.122395833,-0.4140625,1,0,0,5.5901,Peridotite_rect,7,5.59,0,1,0,1,0,1,,,,,,,,,,,,,
646774e0f86825ab62c37581,SCN,2024-06-25_11h44.51.736,LearnStrategy,2023.2.3,Win32,60.24096386,1,1,3,-0.20703125,0.403645833,1,0,0,1.7456,Andesite_10,1,10,6,3,1.746,-0.360677083,-0.247395833,1,0,0,5.6899,Andesite_rect,1,5.69,1,2,0,2,0,1,,,,,,,,,,,,,
646774e0f86825ab62c37581,SCN,2024-06-25_11h44.51.736,LearnStrategy,2023.2.3,Win32,60.24096386,1,1,4,-0.08203125,0.40234375,1,0,0,1.7626,Pegmatite_11,6,11,6,4,1.763,0.3359375,-0.40625,1,0,0,6.5018,Pumice_rect,8,6.502,0,3,0,3,0,1,,,,,,,,,,,,,
646774e0f86825ab62c37581,SCN,2024-06-25_11h44.51.736,LearnStrategy,2023.2.3,Win32,60.24096386,1,1,5,0.072916667,0.364583333,1,0,0,1.1927,Peridotite_10,7,10,6,5,1.193,0.140625,-0.268229167,1,0,0,2.8175,Diorite_rect,3,2.817,0,4,0,4,0,1,,,,,,,,,,,,,
646774e0f86825ab62c37581,SCN,2024-06-25_11h44.51.736,LearnStrategy,2023.2.3,Win32,60.24096386,1,1,6,0.223958333,0.428385417,1,0,0,1.1631,Obsidian_07,5,07,6,6,1.163,-0.451822917,-0.407552083,1,0,0,3.6121,Obsidian_rect,5,3.612,1,5,0,5,0,1,,,,,,,,,,,,,
646774e0f86825ab62c37581,SCN,2024-06-25_11h44.51.736,LearnStrategy,2023.2.3,Win32,60.24096386,1,1,7,0.430989583,0.427083333,1,0,0,0.9555,Pumice_08,8,08,6,7,0.956,0.364583333,-0.39453125,1,0,0,3.8758,Pumice_rect,8,3.876,1,6,0,6,0,1,,,,,,,,,,,,,
646774e0f86825ab62c37581,SCN,2024-06-25_11h44.51.736,LearnStrategy,2023.2.3,Win32,60.24096386,1,1,8,0.584635417,0.39453125,1,0,0,0.9467,Peridotite_02,7,02,6,8,0.947,0.140625,-0.255208333,1,0,0,2.5255,Diorite_rect,3,2.525,0,7,0,7,0,1,,,,,,,,,,,,,
646774e0f86825ab62c37581,SCN,2024-06-25_11h44.51.736,LearnStrategy,2023.2.3,Win32,60.24096386,1,1,9,0.54296875,0.436197917,1,0,0,1.263,Peridotite_02,7,02,6,8,1.263,0.119791667,-0.3828125,1,0,0,1.8122,Peridotite_rect,7,1.812,1,8,0,8,0,1,,,,,,,,,,,,,
646774e0f86825ab62c37581,SCN,2024-06-25_11h44.51.736,LearnStrategy,2023.2.3,Win32,60.24096386,1,1,10,-0.561197917,0.25390625,1,0,0,0.7801,Gabbro_09,4,09,5,1,0.78,0.401041667,-0.234375,1,0,0,4.7962,Gabbro_rect,4,4.796,1,9,0,9,0,1,,,,,,,,,,,,,
646774e0f86825ab62c37581,SCN,2024-06-25_11h44.51.736,LearnStrategy,2023.2.3,Win32,60.24096386,1,1,11,-0.369791667,0.244791667,1,0,0,0.9616,Basalt_11,2,11,5,2,0.962,0.3671875,-0.3984375,1,0,0,1.237,Pumice_rect,8,1.237,0,10,0,10,0,1,,,,,,,,,,,,,
646774e0f86825ab62c37581,SCN,2024-06-25_11h44.51.736,LearnStrategy,2023.2.3,Win32,60.24096386,1,1,12,-0.240885417,0.255208333,1,0,0,1.0453,Pegmatite_08,6,08,5,3,1.045,-0.07421875,-0.40625,1,0,0,1.6569,Pegmatite_rect,6,1.657,1,11,0,11,0,1,,,,,,,,,,,,,
646774e0f86825ab62c37581,SCN,2024-06-25_11h44.51.736,LearnStrategy,2023.2.3,Win32,60.24096386,1,1,13,-0.108072917,0.247395833,1,0,0,0.8298,Gabbro_15,4,15,5,4,0.83,-0.141927083,-0.2578125,1,0,0,1.536,Basalt_rect,2,1.536,0,12,0,12,0,1,,,,,,,,,,,,,
646774e0f86825ab62c37581,SCN,2024-06-25_11h44.51.736,LearnStrategy,2023.2.3,Win32,60.24096386,1,1,14,0.046875,0.25,1,0,0,1.48,Andesite_06,1,06,5,5,1.48,-0.38671875,-0.26171875,1,0,0,2.8713,Andesite_rect,1,2.871,1,13,0,13,0,1,,,,,,,,,,,,,
646774e0f86825ab62c37581,SCN,2024-06-25_11h44.51.736,LearnStrategy,2023.2.3,Win32,60.24096386,1,1,15,0.263020833,0.266927083,1,0,0,2.6136,Andesite_11,1,11,5,6,2.614,0.37890625,-0.2421875,1,0,0,3.0645,Gabbro_rect,4,3.064,0,14,0,14,0,1,,,,,,,,,,,,,
646774e0f86825ab62c37581,SCN,2024-06-25_11h44.51.736,LearnStrategy,2023.2.3,Win32,60.24096386,1,1,16,0.380208333,0.240885417,1,0,0,0.7555,Pumice_13,8,13,5,7,0.755,0.385416667,-0.416666667,1,0,0,1.0694,Pumice_rect,8,1.069,1,15,0,15,0,1,,,,,,,,,,,,,
646774e0f86825ab62c37581,SCN,2024-06-25_11h44.51.736,LearnStrategy,2023.2.3,Win32,60.24096386,1,2,1,,,,,,,,5,08,,,,,,,,,,,5,4.501,1,,,,,,-0.365885417,-0.412760417,1,0,0,4.5006,Obsidian_rect,0,0,0,0,1,
646774e0f86825ab62c37581,SCN,2024-06-25_11h44.51.736,LearnStrategy,2023.2.3,Win32,60.24096386,1,2,2,,,,,,,,4,03,,,,,,,,,,,2,2.36,0,,,,,,-0.165364583,-0.244791667,1,0,0,2.36,Basalt_rect,1,0,1,0,1,
646774e0f86825ab62c37581,SCN,2024-06-25_11h44.51.736,LearnStrategy,2023.2.3,Win32,60.24096386,1,2,3,,,,,,,,8,03,,,,,,,,,,,8,1.253,1,,,,,,0.37890625,-0.41796875,1,0,0,1.253,Pumice_rect,2,0,2,0,1,
646774e0f86825ab62c37581,SCN,2024-06-25_11h44.51.736,LearnStrategy,2023.2.3,Win32,60.24096386,1,2,4,,,,,,,,3,12,,,,,,,,,,,1,3.402,0,,,,,,-0.333333333,-0.23046875,1,0,0,3.4022,Andesite_rect,3,0,3,0,1,
646774e0f86825ab62c37581,SCN,2024-06-25_11h44.51.736,LearnStrategy,2023.2.3,Win32,60.24096386,1,2,5,,,,,,,,2,10,,,,,,,,,,,2,1.332,1,,,,,,-0.088541667,-0.231770833,1,0,0,1.332,Basalt_rect,4,0,4,0,1,
646774e0f86825ab62c37581,SCN,2024-06-25_11h44.51.736,LearnStrategy,2023.2.3,Win32,60.24096386,1,2,6,,,,,,,,4,11,,,,,,,,,,,4,4.506,1,,,,,,0.368489583,-0.236979167,1,0,0,4.5063,Gabbro_rect,5,0,5,0,1,
646774e0f86825ab62c37581,SCN,2024-06-25_11h44.51.736,LearnStrategy,2023.2.3,Win32,60.24096386,1,2,7,,,,,,,,3,14,,,,,,,,,,,3,32.303,1,,,,,,0.1171875,-0.252604167,1,0,0,32.3025,Diorite_rect,6,0,6,0,1,
646774e0f86825ab62c37581,SCN,2024-06-25_11h44.51.736,LearnStrategy,2023.2.3,Win32,60.24096386,1,2,8,,,,,,,,6,13,,,,,,,,,,,6,7.094,1,,,,,,-0.12109375,-0.3984375,1,0,0,7.0944,Pegmatite_rect,7,0,7,0,1,
646774e0f86825ab62c37581,SCN,2024-06-25_11h44.51.736,LearnStrategy,2023.2.3,Win32,60.24096386,1,2,9,,,,,,,,5,05,,,,,,,,,,,5,2.007,1,,,,,,-0.330729167,-0.404947917,1,0,0,2.0067,Obsidian_rect,8,0,8,0,1,
646774e0f86825ab62c37581,SCN,2024-06-25_11h44.51.736,LearnStrategy,2023.2.3,Win32,60.24096386,1,2,10,,,,,,,,7,12,,,,,,,,,,,7,7.79,1,,,,,,0.131510417,-0.4140625,1,0,0,7.7905,Peridotite_rect,9,0,9,0,1,
646774e0f86825ab62c37581,SCN,2024-06-25_11h44.51.736,LearnStrategy,2023.2.3,Win32,60.24096386,1,2,11,,,,,,,,8,09,,,,,,,,,,,8,1.319,1,,,,,,0.34765625,-0.404947917,1,0,0,1.3187,Pumice_rect,10,0,10,0,1,
646774e0f86825ab62c37581,SCN,2024-06-25_11h44.51.736,LearnStrategy,2023.2.3,Win32,60.24096386,1,2,12,,,,,,,,6,06,,,,,,,,,,,6,4.826,1,,,,,,-0.161458333,-0.399739583,1,0,0,4.8259,Pegmatite_rect,11,0,11,0,1,
646774e0f86825ab62c37581,SCN,2024-06-25_11h44.51.736,LearnStrategy,2023.2.3,Win32,60.24096386,1,2,13,,,,,,,,2,06,,,,,,,,,,,2,1.204,1,,,,,,-0.088541667,-0.26171875,1,0,0,1.2042,Basalt_rect,12,0,12,0,1,
646774e0f86825ab62c37581,SCN,2024-06-25_11h44.51.736,LearnStrategy,2023.2.3,Win32,60.24096386,1,2,14,,,,,,,,1,02,,,,,,,,,,,1,2.078,1,,,,,,-0.341145833,-0.233072917,1,0,0,2.0784,Andesite_rect,13,0,13,0,1,
646774e0f86825ab62c37581,SCN,2024-06-25_11h44.51.736,LearnStrategy,2023.2.3,Win32,60.24096386,1,2,15,,,,,,,,7,15,,,,,,,,,,,7,8.69,1,,,,,,0.114583333,-0.403645833,1,0,0,8.6899,Peridotite_rect,14,0,14,0,1,
646774e0f86825ab62c37581,SCN,2024-06-25_11h44.51.736,LearnStrategy,2023.2.3,Win32,60.24096386,1,2,16,,,,,,,,1,04,,,,,,,,,,,1,3.06,1,,,,,,-0.360677083,-0.235677083,1,0,0,3.0596,Andesite_rect,15,0,15,0,1,
646774e0f86825ab62c37581,SCN,2024-06-25_11h44.51.736,LearnStrategy,2023.2.3,Win32,60.24096386,2,1,1,-0.53515625,0.40234375,1,0,0,7.625,Pegmatite_05,6,05,6,1,7.625,-0.095052083,-0.391927083,1,0,0,2.3898,Pegmatite_rect,6,2.39,1,0,0,0,0,1,,,,,,,,,,,,,
646774e0f86825ab62c37581,SCN,2024-06-25_11h44.51.736,LearnStrategy,2023.2.3,Win32,60.24096386,2,1,2,-0.3828125,0.408854167,1,0,0,1.1477,Pegmatite_07,6,07,6,2,1.148,-0.059895833,-0.389322917,1,0,0,4.0211,Pegmatite_rect,6,4.021,1,1,0,1,0,1,,,,,,,,,,,,,
646774e0f86825ab62c37581,SCN,2024-06-25_11h44.51.736,LearnStrategy,2023.2.3,Win32,60.24096386,2,1,3,-0.21484375,0.419270833,1,0,0,0.8134,Andesite_10,1,10,6,3,0.813,0.350260417,-0.244791667,1,0,0,3.3023,Gabbro_rect,4,3.302,0,2,0,2,0,1,,,,,,,,,,,,,
646774e0f86825ab62c37581,SCN,2024-06-25_11h44.51.736,LearnStrategy,2023.2.3,Win32,60.24096386,2,1,4,-0.083333333,0.427083333,1,0,0,0.6984,Pegmatite_11,6,11,6,4,0.698,0.119791667,-0.251302083,1,0,0,2.0096,Diorite_rect,3,2.01,0,3,0,3,0,1,,,,,,,,,,,,,
646774e0f86825ab62c37581,SCN,2024-06-25_11h44.51.736,LearnStrategy,2023.2.3,Win32,60.24096386,2,1,5,-0.041666667,0.395833333,1,0,0,1.3637,Pegmatite_11,6,11,6,4,1.364,-0.087239583,-0.39453125,1,0,0,1.5979,Pegmatite_rect,6,1.598,1,4,0,4,0,1,,,,,,,,,,,,,
646774e0f86825ab62c37581,SCN,2024-06-25_11h44.51.736,LearnStrategy,2023.2.3,Win32,60.24096386,2,1,6,-0.248697917,0.41796875,1,0,0,0.9269,Andesite_10,1,10,6,3,0.927,-0.342447917,-0.239583333,1,0,0,6.4667,Andesite_rect,1,6.467,1,5,0,5,0,1,,,,,,,,,,,,,
646774e0f86825ab62c37581,SCN,2024-06-25_11h44.51.736,LearnStrategy,2023.2.3,Win32,60.24096386,2,1,7,0.087239583,0.4140625,1,0,0,1.4955,Peridotite_10,7,10,6,5,1.496,0.1875,-0.236979167,1,0,0,1.5385,Diorite_rect,3,1.538,0,6,0,6,0,1,,,,,,,,,,,,,
646774e0f86825ab62c37581,SCN,2024-06-25_11h44.51.736,LearnStrategy,2023.2.3,Win32,60.24096386,2,1,8,0.243489583,0.4375,1,0,0,0.7981,Obsidian_07,5,07,6,6,0.798,-0.321614583,-0.3984375,1,0,0,1.4636,Obsidian_rect,5,1.464,1,7,0,7,0,1,,,,,,,,,,,,,
646774e0f86825ab62c37581,SCN,2024-06-25_11h44.51.736,LearnStrategy,2023.2.3,Win32,60.24096386,2,1,9,0.427083333,0.427083333,1,0,0,1.1334,Pumice_08,8,08,6,7,1.133,0.342447917,-0.38671875,1,0,0,1.0329,Pumice_rect,8,1.033,1,8,0,8,0,1,,,,,,,,,,,,,
646774e0f86825ab62c37581,SCN,2024-06-25_11h44.51.736,LearnStrategy,2023.2.3,Win32,60.24096386,2,1,10,0.569010417,0.424479167,1,0,0,1.1987,Peridotite_02,7,02,6,8,1.199,0.127604167,-0.403645833,1,0,0,2.7037,Peridotite_rect,7,2.704,1,9,0,9,0,1,,,,,,,,,,,,,
646774e0f86825ab62c37581,SCN,2024-06-25_11h44.51.736,LearnStrategy,2023.2.3,Win32,60.24096386,2,1,11,-0.513020833,0.251302083,1,0,0,1.2973,Gabbro_09,4,09,5,1,1.297,0.39453125,-0.263020833,1,0,0,2.0267,Gabbro_rect,4,2.027,1,10,0,10,0,1,,,,,,,,,,,,,
646774e0f86825ab62c37581,SCN,2024-06-25_11h44.51.736,LearnStrategy,2023.2.3,Win32,60.24096386,2,1,12,-0.430989583,0.259114583,1,0,0,0.78,Basalt_11,2,11,5,2,0.78,-0.40625,-0.236979167,1,0,0,2.7344,Andesite_rect,1,2.734,0,11,0,11,0,1,,,,,,,,,,,,,
646774e0f86825ab62c37581,SCN,2024-06-25_11h44.51.736,LearnStrategy,2023.2.3,Win32,60.24096386,2,1,13,-0.247395833,0.24609375,1,0,0,1.1501,Pegmatite_08,6,08,5,3,1.15,-0.11328125,-0.401041667,1,0,0,2.9442,Pegmatite_rect,6,2.944,1,12,0,12,0,1,,,,,,,,,,,,,
646774e0f86825ab62c37581,SCN,2024-06-25_11h44.51.736,LearnStrategy,2023.2.3,Win32,60.24096386,2,1,14,-0.106770833,0.259114583,1,0,0,1.0469,Gabbro_15,4,15,5,4,1.047,-0.315104167,-0.259114583,1,0,0,2.6595,Andesite_rect,1,2.66,0,13,0,13,0,1,,,,,,,,,,,,,
646774e0f86825ab62c37581,SCN,2024-06-25_11h44.51.736,LearnStrategy,2023.2.3,Win32,60.24096386,2,1,15,-0.0859375,0.248697917,1,0,0,0.9803,Gabbro_15,4,15,5,4,0.98,-0.356770833,-0.239583333,1,0,0,2.4195,Andesite_rect,1,2.42,0,14,0,14,0,1,,,,,,,,,,,,,
646774e0f86825ab62c37581,SCN,2024-06-25_11h44.51.736,LearnStrategy,2023.2.3,Win32,60.24096386,2,1,16,-0.063802083,0.217447917,1,0,0,1.0143,Gabbro_15,4,15,5,4,1.014,0.337239583,-0.24609375,1,0,0,2.0255,Gabbro_rect,4,2.025,1,15,0,15,0,1,,,,,,,,,,,,,
646774e0f86825ab62c37581,SCN,2024-06-25_11h44.51.736,LearnStrategy,2023.2.3,Win32,60.24096386,2,2,1,,,,,,,,4,14,,,,,,,,,,,4,6.03,1,,,,,,0.411458333,-0.25,1,0,0,6.0298,Gabbro_rect,0,0,0,0,1,
646774e0f86825ab62c37581,SCN,2024-06-25_11h44.51.736,LearnStrategy,2023.2.3,Win32,60.24096386,2,2,2,,,,,,,,8,15,,,,,,,,,,,8,1.473,1,,,,,,0.34375,-0.385416667,1,0,0,1.4731,Pumice_rect,1,0,1,0,1,
646774e0f86825ab62c37581,SCN,2024-06-25_11h44.51.736,LearnStrategy,2023.2.3,Win32,60.24096386,2,2,3,,,,,,,,6,03,,,,,,,,,,,3,4.797,0,,,,,,0.1328125,-0.251302083,1,0,0,4.7973,Diorite_rect,2,0,2,0,1,
646774e0f86825ab62c37581,SCN,2024-06-25_11h44.51.736,LearnStrategy,2023.2.3,Win32,60.24096386,2,2,4,,,,,,,,6,12,,,,,,,,,,,6,37.532,1,,,,,,-0.072916667,-0.401041667,1,0,0,37.5324,Pegmatite_rect,3,0,3,0,1,
646774e0f86825ab62c37581,SCN,2024-06-25_11h44.51.736,LearnStrategy,2023.2.3,Win32,60.24096386,2,2,5,,,,,,,,3,06,,,,,,,,,,,2,2.184,0,,,,,,-0.127604167,-0.247395833,1,0,0,2.1839,Basalt_rect,4,0,4,0,1,
646774e0f86825ab62c37581,SCN,2024-06-25_11h44.51.736,LearnStrategy,2023.2.3,Win32,60.24096386,2,2,6,,,,,,,,5,14,,,,,,,,,,,5,1.484,1,,,,,,-0.342447917,-0.391927083,1,0,0,1.4843,Obsidian_rect,5,0,5,0,1,
646774e0f86825ab62c37581,SCN,2024-06-25_11h44.51.736,LearnStrategy,2023.2.3,Win32,60.24096386,2,2,7,,,,,,,,2,16,,,,,,,,,,,2,1.655,1,,,,,,-0.1328125,-0.23046875,1,0,0,1.6547,Basalt_rect,6,0,6,0,1,
646774e0f86825ab62c37581,SCN,2024-06-25_11h44.51.736,LearnStrategy,2023.2.3,Win32,60.24096386,2,2,8,,,,,,,,5,11,,,,,,,,,,,5,1.355,1,,,,,,-0.326822917,-0.389322917,1,0,0,1.3545,Obsidian_rect,7,0,7,0,1,
646774e0f86825ab62c37581,SCN,2024-06-25_11h44.51.736,LearnStrategy,2023.2.3,Win32,60.24096386,2,2,9,,,,,,,,7,13,,,,,,,,,,,7,3.566,1,,,,,,0.08984375,-0.393229167,1,0,0,3.5661,Peridotite_rect,8,0,8,0,1,
646774e0f86825ab62c37581,SCN,2024-06-25_11h44.51.736,LearnStrategy,2023.2.3,Win32,60.24096386,2,2,10,,,,,,,,1,16,,,,,,,,,,,1,4.348,1,,,,,,-0.360677083,-0.23828125,1,0,0,4.3477,Andesite_rect,9,0,9,0,1,
646774e0f86825ab62c37581,SCN,2024-06-25_11h44.51.736,LearnStrategy,2023.2.3,Win32,60.24096386,2,2,11,,,,,,,,1,01,,,,,,,,,,,4,4.944,0,,,,,,0.365885417,-0.251302083,1,0,0,4.9439,Gabbro_rect,10,0,10,0,1,
646774e0f86825ab62c37581,SCN,2024-06-25_11h44.51.736,LearnStrategy,2023.2.3,Win32,60.24096386,2,2,12,,,,,,,,2,12,,,,,,,,,,,4,11.135,0,,,,,,0.326822917,-0.2421875,1,0,0,11.1347,Gabbro_rect,11,0,11,0,1,
646774e0f86825ab62c37581,SCN,2024-06-25_11h44.51.736,LearnStrategy,2023.2.3,Win32,60.24096386,2,2,13,,,,,,,,8,04,,,,,,,,,,,8,1.219,1,,,,,,0.43359375,-0.412760417,1,0,0,1.2186,Pumice_rect,12,0,12,0,1,
646774e0f86825ab62c37581,SCN,2024-06-25_11h44.51.736,LearnStrategy,2023.2.3,Win32,60.24096386,2,2,14,,,,,,,,3,11,,,,,,,,,,,7,3.313,0,,,,,,0.098958333,-0.397135417,1,0,0,3.313,Peridotite_rect,13,0,13,0,1,
646774e0f86825ab62c37581,SCN,2024-06-25_11h44.51.736,LearnStrategy,2023.2.3,Win32,60.24096386,2,2,15,,,,,,,,4,16,,,,,,,,,,,2,2.159,0,,,,,,-0.12890625,-0.24609375,1,0,0,2.1586,Basalt_rect,14,0,14,0,1,
646774e0f86825ab62c37581,SCN,2024-06-25_11h44.51.736,LearnStrategy,2023.2.3,Win32,60.24096386,2,2,16,,,,,,,,7,07,,,,,,,,,,,7,2.314,1,,,,,,0.135416667,-0.395833333,1,0,0,2.314,Peridotite_rect,15,0,15,0,1,
646774e0f86825ab62c37581,SCN,2024-06-25_11h44.51.736,LearnStrategy,2023.2.3,Win32,60.24096386,3,1,1,-0.510416667,-0.127604167,1,0,0,1.9657,Obsidian_10,5,10,3,1,1.966,-0.33203125,-0.41015625,1,0,0,1.3176,Obsidian_rect,5,1.318,1,0,0,0,0,1,,,,,,,,,,,,,
646774e0f86825ab62c37581,SCN,2024-06-25_11h44.51.736,LearnStrategy,2023.2.3,Win32,60.24096386,3,1,2,-0.408854167,-0.102864583,1,0,0,1.0131,Diorite_15,3,15,3,2,1.013,0.13671875,-0.251302083,1,0,0,4.1011,Diorite_rect,3,4.101,1,1,0,1,0,1,,,,,,,,,,,,,
646774e0f86825ab62c37581,SCN,2024-06-25_11h44.51.736,LearnStrategy,2023.2.3,Win32,60.24096386,3,1,3,-0.23828125,-0.079427083,1,0,0,0.7813,Pumice_16,8,16,3,3,0.781,0.44140625,-0.41015625,1,0,0,1.0536,Pumice_rect,8,1.054,1,2,0,2,0,1,,,,,,,,,,,,,
646774e0f86825ab62c37581,SCN,2024-06-25_11h44.51.736,LearnStrategy,2023.2.3,Win32,60.24096386,3,1,4,-0.076822917,-0.084635417,1,0,0,0.7825,Pumice_06,8,06,3,4,0.783,0.350260417,-0.395833333,1,0,0,0.8972,Pumice_rect,8,0.897,1,3,0,3,0,1,,,,,,,,,,,,,
646774e0f86825ab62c37581,SCN,2024-06-25_11h44.51.736,LearnStrategy,2023.2.3,Win32,60.24096386,3,1,5,0.098958333,-0.11328125,1,0,0,0.8312,Basalt_05,2,05,3,5,0.831,-0.122395833,-0.2578125,1,0,0,0.9716,Basalt_rect,2,0.972,1,4,0,4,0,1,,,,,,,,,,,,,
646774e0f86825ab62c37581,SCN,2024-06-25_11h44.51.736,LearnStrategy,2023.2.3,Win32,60.24096386,3,1,6,0.1953125,-0.100260417,1,0,0,1.3467,Basalt_01,2,01,3,6,1.347,-0.170572917,-0.25390625,1,0,0,1.1558,Basalt_rect,2,1.156,1,5,0,5,0,1,,,,,,,,,,,,,
646774e0f86825ab62c37581,SCN,2024-06-25_11h44.51.736,LearnStrategy,2023.2.3,Win32,60.24096386,3,1,7,0.384114583,-0.111979167,1,0,0,1.0311,Basalt_08,2,08,3,7,1.031,-0.087239583,-0.26171875,1,0,0,1.4685,Basalt_rect,2,1.468,1,6,0,6,0,1,,,,,,,,,,,,,
646774e0f86825ab62c37581,SCN,2024-06-25_11h44.51.736,LearnStrategy,2023.2.3,Win32,60.24096386,3,1,8,0.540364583,-0.09765625,1,0,0,1.0467,Obsidian_02,5,02,3,8,1.047,-0.345052083,-0.397135417,1,0,0,1.0085,Obsidian_rect,5,1.009,1,7,0,7,0,1,,,,,,,,,,,,,
646774e0f86825ab62c37581,SCN,2024-06-25_11h44.51.736,LearnStrategy,2023.2.3,Win32,60.24096386,3,1,9,-0.53125,-0.2421875,1,0,0,0.8626,Obsidian_06,5,06,2,1,0.863,-0.4140625,-0.3984375,1,0,0,0.6765,Obsidian_rect,5,0.676,1,8,0,8,0,1,,,,,,,,,,,,,
646774e0f86825ab62c37581,SCN,2024-06-25_11h44.51.736,LearnStrategy,2023.2.3,Win32,60.24096386,3,1,10,-0.416666667,-0.296875,1,0,0,0.8467,Peridotite_14,7,14,2,2,0.847,0.1171875,-0.233072917,1,0,0,1.7666,Diorite_rect,3,1.767,0,9,0,9,0,1,,,,,,,,,,,,,
646774e0f86825ab62c37581,SCN,2024-06-25_11h44.51.736,LearnStrategy,2023.2.3,Win32,60.24096386,3,1,11,-0.203125,-0.22265625,1,0,0,1.7296,Basalt_02,2,02,2,3,1.73,-0.134114583,-0.2578125,1,0,0,1.5444,Basalt_rect,2,1.544,1,10,0,10,0,1,,,,,,,,,,,,,
646774e0f86825ab62c37581,SCN,2024-06-25_11h44.51.736,LearnStrategy,2023.2.3,Win32,60.24096386,3,1,12,-0.071614583,-0.259114583,1,0,0,1.0471,Gabbro_08,4,08,2,4,1.047,0.442708333,-0.243489583,1,0,0,1.0651,Gabbro_rect,4,1.065,1,11,0,11,0,1,,,,,,,,,,,,,
646774e0f86825ab62c37581,SCN,2024-06-25_11h44.51.736,LearnStrategy,2023.2.3,Win32,60.24096386,3,1,13,0.095052083,-0.248697917,1,0,0,1.3429,Peridotite_05,7,05,2,5,1.343,0.151041667,-0.385416667,1,0,0,2.3786,Peridotite_rect,7,2.379,1,12,0,12,0,1,,,,,,,,,,,,,
646774e0f86825ab62c37581,SCN,2024-06-25_11h44.51.736,LearnStrategy,2023.2.3,Win32,60.24096386,3,1,14,0.21875,-0.255208333,1,0,0,1.2471,Pumice_10,8,10,2,6,1.247,0.407552083,-0.421875,1,0,0,1.449,Pumice_rect,8,1.449,1,13,0,13,0,1,,,,,,,,,,,,,
646774e0f86825ab62c37581,SCN,2024-06-25_11h44.51.736,LearnStrategy,2023.2.3,Win32,60.24096386,3,1,15,0.376302083,-0.234375,1,0,0,1.3965,Pumice_14,8,14,2,7,1.397,0.37109375,-0.399739583,1,0,0,0.5862,Pumice_rect,8,0.586,1,14,0,14,0,1,,,,,,,,,,,,,
646774e0f86825ab62c37581,SCN,2024-06-25_11h44.51.736,LearnStrategy,2023.2.3,Win32,60.24096386,3,1,16,0.571614583,-0.26953125,1,0,0,1.0302,Diorite_16,3,16,2,8,1.03,-0.330729167,-0.240885417,1,0,0,1.8277,Andesite_rect,1,1.828,0,15,0,15,0,1,,,,,,,,,,,,,
646774e0f86825ab62c37581,SCN,2024-06-25_11h44.51.736,LearnStrategy,2023.2.3,Win32,60.24096386,3,2,1,,,,,,,,3,13,,,,,,,,,,,3,2.269,1,,,,,,0.12109375,-0.25,1,0,0,2.2695,Diorite_rect,0,0,0,0,1,
646774e0f86825ab62c37581,SCN,2024-06-25_11h44.51.736,LearnStrategy,2023.2.3,Win32,60.24096386,3,2,2,,,,,,,,4,05,,,,,,,,,,,4,3.281,1,,,,,,0.424479167,-0.251302083,1,0,0,3.2808,Gabbro_rect,1,0,1,0,1,
646774e0f86825ab62c37581,SCN,2024-06-25_11h44.51.736,LearnStrategy,2023.2.3,Win32,60.24096386,3,2,3,,,,,,,,8,02,,,,,,,,,,,8,1.063,1,,,,,,0.3828125,-0.407552083,1,0,0,1.0632,Pumice_rect,2,0,2,0,1,
646774e0f86825ab62c37581,SCN,2024-06-25_11h44.51.736,LearnStrategy,2023.2.3,Win32,60.24096386,3,2,4,,,,,,,,7,16,,,,,,,,,,,7,6.088,1,,,,,,0.07421875,-0.41015625,1,0,0,6.088,Peridotite_rect,3,0,3,0,1,
646774e0f86825ab62c37581,SCN,2024-06-25_11h44.51.736,LearnStrategy,2023.2.3,Win32,60.24096386,3,2,5,,,,,,,,4,10,,,,,,,,,,,4,2.291,1,,,,,,0.4609375,-0.263020833,1,0,0,2.2911,Gabbro_rect,4,0,4,0,1,
646774e0f86825ab62c37581,SCN,2024-06-25_11h44.51.736,LearnStrategy,2023.2.3,Win32,60.24096386,3,2,6,,,,,,,,5,16,,,,,,,,,,,5,1.552,1,,,,,,-0.415364583,-0.408854167,1,0,0,1.5517,Obsidian_rect,5,0,5,0,1,
646774e0f86825ab62c37581,SCN,2024-06-25_11h44.51.736,LearnStrategy,2023.2.3,Win32,60.24096386,3,2,7,,,,,,,,3,10,,,,,,,,,,,1,3.259,0,,,,,,-0.4375,-0.25,1,0,0,3.2589,Andesite_rect,6,0,6,0,1,
646774e0f86825ab62c37581,SCN,2024-06-25_11h44.51.736,LearnStrategy,2023.2.3,Win32,60.24096386,3,2,8,,,,,,,,7,08,,,,,,,,,,,7,1.949,1,,,,,,0.063802083,-0.399739583,1,0,0,1.9491,Peridotite_rect,7,0,7,0,1,
646774e0f86825ab62c37581,SCN,2024-06-25_11h44.51.736,LearnStrategy,2023.2.3,Win32,60.24096386,3,2,9,,,,,,,,5,12,,,,,,,,,,,5,1.267,1,,,,,,-0.359375,-0.39453125,1,0,0,1.2667,Obsidian_rect,8,0,8,0,1,
646774e0f86825ab62c37581,SCN,2024-06-25_11h44.51.736,LearnStrategy,2023.2.3,Win32,60.24096386,3,2,10,,,,,,,,2,09,,,,,,,,,,,2,1.096,1,,,,,,-0.108072917,-0.247395833,1,0,0,1.0959,Basalt_rect,9,0,9,0,1,
646774e0f86825ab62c37581,SCN,2024-06-25_11h44.51.736,LearnStrategy,2023.2.3,Win32,60.24096386,3,2,11,,,,,,,,6,10,,,,,,,,,,,6,2.93,1,,,,,,-0.096354167,-0.395833333,1,0,0,2.9302,Pegmatite_rect,10,0,10,0,1,
646774e0f86825ab62c37581,SCN,2024-06-25_11h44.51.736,LearnStrategy,2023.2.3,Win32,60.24096386,3,2,12,,,,,,,,1,09,,,,,,,,,,,4,3.226,0,,,,,,0.35546875,-0.248697917,1,0,0,3.2263,Gabbro_rect,11,0,11,0,1,
646774e0f86825ab62c37581,SCN,2024-06-25_11h44.51.736,LearnStrategy,2023.2.3,Win32,60.24096386,3,2,13,,,,,,,,8,05,,,,,,,,,,,8,1.196,1,,,,,,0.33203125,-0.384114583,1,0,0,1.1961,Pumice_rect,12,0,12,0,1,
646774e0f86825ab62c37581,SCN,2024-06-25_11h44.51.736,LearnStrategy,2023.2.3,Win32,60.24096386,3,2,14,,,,,,,,6,16,,,,,,,,,,,7,5.24,0,,,,,,0.087239583,-0.390625,1,0,0,5.2401,Peridotite_rect,13,0,13,0,1,
646774e0f86825ab62c37581,SCN,2024-06-25_11h44.51.736,LearnStrategy,2023.2.3,Win32,60.24096386,3,2,15,,,,,,,,1,07,,,,,,,,,,,1,4.641,1,,,,,,-0.3828125,-0.25,1,0,0,4.6414,Andesite_rect,14,0,14,0,1,
646774e0f86825ab62c37581,SCN,2024-06-25_11h44.51.736,LearnStrategy,2023.2.3,Win32,60.24096386,3,2,16,,,,,,,,2,04,,,,,,,,,,,2,1.181,1,,,,,,-0.15625,-0.260416667,1,0,0,1.1811,Basalt_rect,15,0,15,0,1,
646774e0f86825ab62c37581,SCN,2024-06-25_11h44.51.736,LearnStrategy,2023.2.3,Win32,60.24096386,4,1,1,-0.528645833,0.390625,1,0,0,3.1135,Pegmatite_05,6,05,6,1,3.113,-0.10546875,-0.408854167,1,0,0,3.4147,Pegmatite_rect,6,3.415,1,0,0,0,0,1,,,,,,,,,,,,,
646774e0f86825ab62c37581,SCN,2024-06-25_11h44.51.736,LearnStrategy,2023.2.3,Win32,60.24096386,4,1,2,-0.415364583,0.424479167,1,0,0,0.9298,Pegmatite_07,6,07,6,2,0.93,-0.109375,-0.411458333,1,0,0,0.9577,Pegmatite_rect,6,0.958,1,1,0,1,0,1,,,,,,,,,,,,,
646774e0f86825ab62c37581,SCN,2024-06-25_11h44.51.736,LearnStrategy,2023.2.3,Win32,60.24096386,4,1,3,-0.2578125,0.420572917,1,0,0,0.9644,Andesite_10,1,10,6,3,0.964,0.33984375,-0.266927083,1,0,0,2.0013,Gabbro_rect,4,2.001,0,2,0,2,0,1,,,,,,,,,,,,,
646774e0f86825ab62c37581,SCN,2024-06-25_11h44.51.736,LearnStrategy,2023.2.3,Win32,60.24096386,4,1,4,-0.088541667,0.397135417,1,0,0,0.9298,Pegmatite_11,6,11,6,4,0.93,0.118489583,-0.412760417,1,0,0,2.1729,Peridotite_rect,7,2.173,0,3,0,3,0,1,,,,,,,,,,,,,
646774e0f86825ab62c37581,SCN,2024-06-25_11h44.51.736,LearnStrategy,2023.2.3,Win32,60.24096386,4,1,5,0.055989583,0.41796875,1,0,0,1.499,Peridotite_10,7,10,6,5,1.499,0.091145833,-0.407552083,1,0,0,2.3526,Peridotite_rect,7,2.353,1,4,0,4,0,1,,,,,,,,,,,,,
646774e0f86825ab62c37581,SCN,2024-06-25_11h44.51.736,LearnStrategy,2023.2.3,Win32,60.24096386,4,1,6,0.234375,0.416666667,1,0,0,1.0404,Obsidian_07,5,07,6,6,1.04,-0.317708333,-0.389322917,1,0,0,1.3206,Obsidian_rect,5,1.321,1,5,0,5,0,1,,,,,,,,,,,,,
646774e0f86825ab62c37581,SCN,2024-06-25_11h44.51.736,LearnStrategy,2023.2.3,Win32,60.24096386,4,1,7,0.369791667,0.407552083,1,0,0,0.7761,Pumice_08,8,08,6,7,0.776,0.395833333,-0.416666667,1,0,0,1.123,Pumice_rect,8,1.123,1,6,0,6,0,1,,,,,,,,,,,,,
646774e0f86825ab62c37581,SCN,2024-06-25_11h44.51.736,LearnStrategy,2023.2.3,Win32,60.24096386,4,1,8,0.548177083,0.411458333,1,0,0,0.8316,Peridotite_02,7,02,6,8,0.832,0.108072917,-0.3984375,1,0,0,2.0476,Peridotite_rect,7,2.048,1,7,0,7,0,1,,,,,,,,,,,,,
646774e0f86825ab62c37581,SCN,2024-06-25_11h44.51.736,LearnStrategy,2023.2.3,Win32,60.24096386,4,1,9,-0.513020833,0.248697917,1,0,0,1.3969,Gabbro_09,4,09,5,1,1.397,0.475260417,-0.247395833,1,0,0,1.7827,Gabbro_rect,4,1.783,1,8,0,8,0,1,,,,,,,,,,,,,
646774e0f86825ab62c37581,SCN,2024-06-25_11h44.51.736,LearnStrategy,2023.2.3,Win32,60.24096386,4,1,10,-0.358072917,0.2578125,1,0,0,0.7811,Basalt_11,2,11,5,2,0.781,0.321614583,-0.247395833,1,0,0,2.2986,Gabbro_rect,4,2.299,0,9,0,9,0,1,,,,,,,,,,,,,
646774e0f86825ab62c37581,SCN,2024-06-25_11h44.51.736,LearnStrategy,2023.2.3,Win32,60.24096386,4,1,11,-0.345052083,0.252604167,1,0,0,1.8486,Basalt_11,2,11,5,2,1.849,-0.108072917,-0.255208333,1,0,0,1.5338,Basalt_rect,2,1.534,1,10,0,10,0,1,,,,,,,,,,,,,
646774e0f86825ab62c37581,SCN,2024-06-25_11h44.51.736,LearnStrategy,2023.2.3,Win32,60.24096386,4,1,12,-0.182291667,0.26171875,1,0,0,0.8185,Pegmatite_08,6,08,5,3,0.819,-0.106770833,-0.380208333,1,0,0,2.1375,Pegmatite_rect,6,2.138,1,11,0,11,0,1,,,,,,,,,,,,,
646774e0f86825ab62c37581,SCN,2024-06-25_11h44.51.736,LearnStrategy,2023.2.3,Win32,60.24096386,4,1,13,-0.087239583,0.243489583,1,0,0,1.0791,Gabbro_15,4,15,5,4,1.079,0.397135417,-0.25,1,0,0,0.9288,Gabbro_rect,4,0.929,1,12,0,12,0,1,,,,,,,,,,,,,
646774e0f86825ab62c37581,SCN,2024-06-25_11h44.51.736,LearnStrategy,2023.2.3,Win32,60.24096386,4,1,14,0.078125,0.231770833,1,0,0,1.4271,Andesite_06,1,06,5,5,1.427,-0.317708333,-0.243489583,1,0,0,4.9526,Andesite_rect,1,4.953,1,13,0,13,0,1,,,,,,,,,,,,,
646774e0f86825ab62c37581,SCN,2024-06-25_11h44.51.736,LearnStrategy,2023.2.3,Win32,60.24096386,4,1,15,0.37890625,0.2421875,1,0,0,2.6758,Pumice_13,8,13,5,7,2.676,0.419270833,-0.40234375,1,0,0,1.6327,Pumice_rect,8,1.633,1,14,0,14,0,1,,,,,,,,,,,,,
646774e0f86825ab62c37581,SCN,2024-06-25_11h44.51.736,LearnStrategy,2023.2.3,Win32,60.24096386,4,1,16,0.52734375,0.235677083,1,0,0,1.4968,Pegmatite_15,6,15,5,8,1.497,-0.111979167,-0.399739583,1,0,0,1.8614,Pegmatite_rect,6,1.861,1,15,0,15,0,1,,,,,,,,,,,,,
646774e0f86825ab62c37581,SCN,2024-06-25_11h44.51.736,LearnStrategy,2023.2.3,Win32,60.24096386,4,2,1,,,,,,,,8,09,,,,,,,,,,,8,1.811,1,,,,,,0.34375,-0.399739583,1,0,0,1.8113,Pumice_rect,0,0,0,0,1,
646774e0f86825ab62c37581,SCN,2024-06-25_11h44.51.736,LearnStrategy,2023.2.3,Win32,60.24096386,4,2,2,,,,,,,,6,13,,,,,,,,,,,6,6.587,1,,,,,,-0.178385417,-0.40625,1,0,0,6.587,Pegmatite_rect,1,0,1,0,1,
646774e0f86825ab62c37581,SCN,2024-06-25_11h44.51.736,LearnStrategy,2023.2.3,Win32,60.24096386,4,2,3,,,,,,,,3,10,,,,,,,,,,,4,1.674,0,,,,,,0.39453125,-0.255208333,1,0,0,1.6745,Gabbro_rect,2,0,2,0,1,
646774e0f86825ab62c37581,SCN,2024-06-25_11h44.51.736,LearnStrategy,2023.2.3,Win32,60.24096386,4,2,4,,,,,,,,4,16,,,,,,,,,,,2,2.014,0,,,,,,-0.131510417,-0.24609375,1,0,0,2.0136,Basalt_rect,3,0,3,0,1,
646774e0f86825ab62c37581,SCN,2024-06-25_11h44.51.736,LearnStrategy,2023.2.3,Win32,60.24096386,4,2,5,,,,,,,,2,09,,,,,,,,,,,2,2.388,1,,,,,,-0.151041667,-0.24609375,1,0,0,2.3876,Basalt_rect,4,0,4,0,1,
646774e0f86825ab62c37581,SCN,2024-06-25_11h44.51.736,LearnStrategy,2023.2.3,Win32,60.24096386,4,2,6,,,,,,,,7,13,,,,,,,,,,,7,1.947,1,,,,,,0.115885417,-0.403645833,1,0,0,1.9471,Peridotite_rect,5,0,5,0,1,
646774e0f86825ab62c37581,SCN,2024-06-25_11h44.51.736,LearnStrategy,2023.2.3,Win32,60.24096386,4,2,7,,,,,,,,3,11,,,,,,,,,,,4,3.784,0,,,,,,0.37890625,-0.26171875,1,0,0,3.7837,Gabbro_rect,6,0,6,0,1,
646774e0f86825ab62c37581,SCN,2024-06-25_11h44.51.736,LearnStrategy,2023.2.3,Win32,60.24096386,4,2,8,,,,,,,,4,10,,,,,,,,,,,1,2.079,0,,,,,,-0.42578125,-0.25,1,0,0,2.0791,Andesite_rect,7,0,7,0,1,
646774e0f86825ab62c37581,SCN,2024-06-25_11h44.51.736,LearnStrategy,2023.2.3,Win32,60.24096386,4,2,9,,,,,,,,1,04,,,,,,,,,,,4,3.339,0,,,,,,0.44140625,-0.252604167,1,0,0,3.3393,Gabbro_rect,8,0,8,0,1,
646774e0f86825ab62c37581,SCN,2024-06-25_11h44.51.736,LearnStrategy,2023.2.3,Win32,60.24096386,4,2,10,,,,,,,,8,02,,,,,,,,,,,8,1.263,1,,,,,,0.377604167,-0.385416667,1,0,0,1.2626,Pumice_rect,9,0,9,0,1,
646774e0f86825ab62c37581,SCN,2024-06-25_11h44.51.736,LearnStrategy,2023.2.3,Win32,60.24096386,4,2,11,,,,,,,,6,12,,,,,,,,,,,3,5.885,0,,,,,,0.088541667,-0.26171875,1,0,0,5.885,Diorite_rect,10,0,10,0,1,
646774e0f86825ab62c37581,SCN,2024-06-25_11h44.51.736,LearnStrategy,2023.2.3,Win32,60.24096386,4,2,12,,,,,,,,5,16,,,,,,,,,,,5,1.589,1,,,,,,-0.393229167,-0.403645833,1,0,0,1.5891,Obsidian_rect,11,0,11,0,1,
646774e0f86825ab62c37581,SCN,2024-06-25_11h44.51.736,LearnStrategy,2023.2.3,Win32,60.24096386,4,2,13,,,,,,,,7,07,,,,,,,,,,,7,1.823,1,,,,,,0.138020833,-0.404947917,1,0,0,1.8235,Peridotite_rect,12,0,12,0,1,
646774e0f86825ab62c37581,SCN,2024-06-25_11h44.51.736,LearnStrategy,2023.2.3,Win32,60.24096386,4,2,14,,,,,,,,1,02,,,,,,,,,,,1,3.971,1,,,,,,-0.342447917,-0.240885417,1,0,0,3.9709,Andesite_rect,13,0,13,0,1,
646774e0f86825ab62c37581,SCN,2024-06-25_11h44.51.736,LearnStrategy,2023.2.3,Win32,60.24096386,4,2,15,,,,,,,,5,11,,,,,,,,,,,5,1.271,1,,,,,,-0.397135417,-0.39453125,1,0,0,1.2706,Obsidian_rect,14,0,14,0,1,
646774e0f86825ab62c37581,SCN,2024-06-25_11h44.51.736,LearnStrategy,2023.2.3,Win32,60.24096386,4,2,16,,,,,,,,2,16,,,,,,,,,,,2,1.812,1,,,,,,-0.1484375,-0.252604167,1,0,0,1.8122,Basalt_rect,15,0,15,0,1,
646774e0f86825ab62c37581,SCN,2024-06-25_11h44.51.736,LearnStrategy,2023.2.3,Win32,60.24096386,5,1,1,-0.536458333,-0.411458333,1,0,0,2.5471,Gabbro_13,4,13,1,1,2.547,0.454427083,-0.266927083,1,0,0,1.7756,Gabbro_rect,4,1.776,1,0,0,0,0,1,,,,,,,,,,,,,
646774e0f86825ab62c37581,SCN,2024-06-25_11h44.51.736,LearnStrategy,2023.2.3,Win32,60.24096386,5,1,2,-0.393229167,-0.419270833,1,0,0,1.0297,Andesite_03,1,03,1,2,1.03,0.315104167,-0.25390625,1,0,0,2.7097,Gabbro_rect,4,2.71,0,1,0,1,0,1,,,,,,,,,,,,,
646774e0f86825ab62c37581,SCN,2024-06-25_11h44.51.736,LearnStrategy,2023.2.3,Win32,60.24096386,5,1,3,-0.348958333,0.243489583,1,0,0,5.0308,Basalt_11,2,11,5,2,5.031,-0.37109375,-0.25,1,0,0,2.397,Andesite_rect,1,2.397,0,2,0,2,0,1,,,,,,,,,,,,,
646774e0f86825ab62c37581,SCN,2024-06-25_11h44.51.736,LearnStrategy,2023.2.3,Win32,60.24096386,5,1,4,-0.19921875,-0.231770833,1,0,0,1.5811,Basalt_02,2,02,2,3,1.581,-0.14453125,-0.26953125,1,0,0,0.7993,Basalt_rect,2,0.799,1,3,0,3,0,1,,,,,,,,,,,,,
646774e0f86825ab62c37581,SCN,2024-06-25_11h44.51.736,LearnStrategy,2023.2.3,Win32,60.24096386,5,1,5,-0.256510417,-0.385416667,1,0,0,0.8901,Diorite_07,3,07,1,3,0.89,0.16015625,-0.266927083,1,0,0,1.2476,Diorite_rect,3,1.248,1,4,0,4,0,1,,,,,,,,,,,,,
646774e0f86825ab62c37581,SCN,2024-06-25_11h44.51.736,LearnStrategy,2023.2.3,Win32,60.24096386,5,1,6,0.21484375,-0.397135417,1,0,0,2.017,Peridotite_06,7,06,1,6,2.017,0.166666667,-0.40625,1,0,0,1.2509,Peridotite_rect,7,1.251,1,5,0,5,0,1,,,,,,,,,,,,,
646774e0f86825ab62c37581,SCN,2024-06-25_11h44.51.736,LearnStrategy,2023.2.3,Win32,60.24096386,5,1,7,0.55078125,0.2421875,1,0,0,2.7622,Pegmatite_15,6,15,5,8,2.762,-0.055989583,-0.3984375,1,0,0,1.5146,Pegmatite_rect,6,1.515,1,6,0,6,0,1,,,,,,,,,,,,,
646774e0f86825ab62c37581,SCN,2024-06-25_11h44.51.736,LearnStrategy,2023.2.3,Win32,60.24096386,5,1,8,0.565104167,0.423177083,1,0,0,2.1112,Peridotite_02,7,02,6,8,2.111,0.08984375,-0.401041667,1,0,0,1.3119,Peridotite_rect,7,1.312,1,7,0,7,0,1,,,,,,,,,,,,,
646774e0f86825ab62c37581,SCN,2024-06-25_11h44.51.736,LearnStrategy,2023.2.3,Win32,60.24096386,5,1,9,-0.098958333,0.091145833,1,0,0,1.6172,Pegmatite_09,6,09,4,4,1.617,-0.125,-0.399739583,1,0,0,1.3344,Pegmatite_rect,6,1.334,1,8,0,8,0,1,,,,,,,,,,,,,
646774e0f86825ab62c37581,SCN,2024-06-25_11h44.51.736,LearnStrategy,2023.2.3,Win32,60.24096386,5,1,10,0.213541667,-0.25390625,1,0,0,4.2969,Pumice_10,8,10,2,6,4.297,0.372395833,-0.39453125,1,0,0,2.3317,Pumice_rect,8,2.332,1,9,0,9,0,1,,,,,,,,,,,,,
646774e0f86825ab62c37581,SCN,2024-06-25_11h44.51.736,LearnStrategy,2023.2.3,Win32,60.24096386,5,1,11,-0.23828125,-0.260416667,1,0,0,2.1814,Basalt_02,2,02,2,3,2.181,-0.12890625,-0.2578125,1,0,0,0.8932,Basalt_rect,2,0.893,1,10,0,10,0,1,,,,,,,,,,,,,
646774e0f86825ab62c37581,SCN,2024-06-25_11h44.51.736,LearnStrategy,2023.2.3,Win32,60.24096386,5,1,12,-0.05859375,-0.263020833,1,0,0,1.3972,Gabbro_08,4,08,2,4,1.397,-0.368489583,-0.248697917,1,0,0,1.3005,Andesite_rect,1,1.301,0,11,0,11,0,1,,,,,,,,,,,,,
646774e0f86825ab62c37581,SCN,2024-06-25_11h44.51.736,LearnStrategy,2023.2.3,Win32,60.24096386,5,1,13,-0.365885417,-0.1171875,1,0,0,1.431,Diorite_15,3,15,3,2,1.431,-0.328125,-0.25390625,1,0,0,1.0713,Andesite_rect,1,1.071,0,12,0,12,0,1,,,,,,,,,,,,,
646774e0f86825ab62c37581,SCN,2024-06-25_11h44.51.736,LearnStrategy,2023.2.3,Win32,60.24096386,5,1,14,0.588541667,0.087239583,1,0,0,3.3634,Diorite_09,3,09,4,8,3.363,0.154947917,-0.239583333,1,0,0,1.3756,Diorite_rect,3,1.376,1,13,0,13,0,1,,,,,,,,,,,,,
646774e0f86825ab62c37581,SCN,2024-06-25_11h44.51.736,LearnStrategy,2023.2.3,Win32,60.24096386,5,1,15,0.223958333,-0.244791667,1,0,0,4.4143,Pumice_10,8,10,2,6,4.414,0.41796875,-0.404947917,1,0,0,1.2497,Pumice_rect,8,1.25,1,14,0,14,0,1,,,,,,,,,,,,,
646774e0f86825ab62c37581,SCN,2024-06-25_11h44.51.736,LearnStrategy,2023.2.3,Win32,60.24096386,5,1,16,-0.075520833,-0.263020833,1,0,0,1.1634,Gabbro_08,4,08,2,4,1.163,0.432291667,-0.2578125,1,0,0,1.8121,Gabbro_rect,4,1.812,1,15,0,15,0,1,,,,,,,,,,,,,
646774e0f86825ab62c37581,SCN,2024-06-25_11h44.51.736,LearnStrategy,2023.2.3,Win32,60.24096386,5,2,1,,,,,,,,8,04,,,,,,,,,,,8,1.102,1,,,,,,0.377604167,-0.407552083,1,0,0,1.1018,Pumice_rect,0,0,0,0,1,
646774e0f86825ab62c37581,SCN,2024-06-25_11h44.51.736,LearnStrategy,2023.2.3,Win32,60.24096386,5,2,2,,,,,,,,7,15,,,,,,,,,,,7,2.971,1,,,,,,0.096354167,-0.4140625,1,0,0,2.9706,Peridotite_rect,1,0,1,0,1,
646774e0f86825ab62c37581,SCN,2024-06-25_11h44.51.736,LearnStrategy,2023.2.3,Win32,60.24096386,5,2,3,,,,,,,,1,07,,,,,,,,,,,3,1.688,0,,,,,,0.12890625,-0.239583333,1,0,0,1.6882,Diorite_rect,2,0,2,0,1,
646774e0f86825ab62c37581,SCN,2024-06-25_11h44.51.736,LearnStrategy,2023.2.3,Win32,60.24096386,5,2,4,,,,,,,,5,12,,,,,,,,,,,5,1.195,1,,,,,,-0.404947917,-0.41015625,1,0,0,1.1951,Obsidian_rect,3,0,3,0,1,
646774e0f86825ab62c37581,SCN,2024-06-25_11h44.51.736,LearnStrategy,2023.2.3,Win32,60.24096386,5,2,5,,,,,,,,6,06,,,,,,,,,,,6,1.428,1,,,,,,-0.165364583,-0.3984375,1,0,0,1.428,Pegmatite_rect,4,0,4,0,1,
646774e0f86825ab62c37581,SCN,2024-06-25_11h44.51.736,LearnStrategy,2023.2.3,Win32,60.24096386,5,2,6,,,,,,,,4,14,,,,,,,,,,,4,2.26,1,,,,,,0.359375,-0.247395833,1,0,0,2.2599,Gabbro_rect,5,0,5,0,1,
646774e0f86825ab62c37581,SCN,2024-06-25_11h44.51.736,LearnStrategy,2023.2.3,Win32,60.24096386,5,2,7,,,,,,,,8,05,,,,,,,,,,,8,1.157,1,,,,,,0.37109375,-0.388020833,1,0,0,1.1568,Pumice_rect,6,0,6,0,1,
646774e0f86825ab62c37581,SCN,2024-06-25_11h44.51.736,LearnStrategy,2023.2.3,Win32,60.24096386,5,2,8,,,,,,,,2,06,,,,,,,,,,,2,1.666,1,,,,,,-0.16796875,-0.26953125,1,0,0,1.6659,Basalt_rect,7,0,7,0,1,
646774e0f86825ab62c37581,SCN,2024-06-25_11h44.51.736,LearnStrategy,2023.2.3,Win32,60.24096386,5,2,9,,,,,,,,3,13,,,,,,,,,,,7,1.687,0,,,,,,0.088541667,-0.40234375,1,0,0,1.6866,Peridotite_rect,8,0,8,0,1,
646774e0f86825ab62c37581,SCN,2024-06-25_11h44.51.736,LearnStrategy,2023.2.3,Win32,60.24096386,5,2,10,,,,,,,,7,08,,,,,,,,,,,7,1.533,1,,,,,,0.091145833,-0.41015625,1,0,0,1.5327,Peridotite_rect,9,0,9,0,1,
646774e0f86825ab62c37581,SCN,2024-06-25_11h44.51.736,LearnStrategy,2023.2.3,Win32,60.24096386,5,2,11,,,,,,,,2,04,,,,,,,,,,,2,1.682,1,,,,,,-0.173177083,-0.244791667,1,0,0,1.6823,Basalt_rect,10,0,10,0,1,
646774e0f86825ab62c37581,SCN,2024-06-25_11h44.51.736,LearnStrategy,2023.2.3,Win32,60.24096386,5,2,12,,,,,,,,6,03,,,,,,,,,,,6,2.75,1,,,,,,-0.115885417,-0.40625,1,0,0,2.7499,Pegmatite_rect,11,0,11,0,1,
646774e0f86825ab62c37581,SCN,2024-06-25_11h44.51.736,LearnStrategy,2023.2.3,Win32,60.24096386,5,2,13,,,,,,,,4,05,,,,,,,,,,,4,3.677,1,,,,,,0.420572917,-0.265625,1,0,0,3.6765,Gabbro_rect,12,0,12,0,1,
646774e0f86825ab62c37581,SCN,2024-06-25_11h44.51.736,LearnStrategy,2023.2.3,Win32,60.24096386,5,2,14,,,,,,,,1,09,,,,,,,,,,,2,1.061,0,,,,,,-0.096354167,-0.26953125,1,0,0,1.0608,Basalt_rect,13,0,13,0,1,
646774e0f86825ab62c37581,SCN,2024-06-25_11h44.51.736,LearnStrategy,2023.2.3,Win32,60.24096386,5,2,15,,,,,,,,5,05,,,,,,,,,,,5,1.174,1,,,,,,-0.385416667,-0.397135417,1,0,0,1.1743,Obsidian_rect,14,0,14,0,1,
646774e0f86825ab62c37581,SCN,2024-06-25_11h44.51.736,LearnStrategy,2023.2.3,Win32,60.24096386,5,2,16,,,,,,,,3,12,,,,,,,,,,,3,2.897,1,,,,,,0.10546875,-0.24609375,1,0,0,2.8972,Diorite_rect,15,0,15,0,1,
646774e0f86825ab62c37581,SCN,2024-06-25_11h44.51.736,LearnStrategy,2023.2.3,Win32,60.24096386,6,1,1,-0.389322917,-0.083333333,1,0,0,2.4828,Diorite_15,3,15,3,2,2.483,0.169270833,-0.26953125,1,0,0,1.6385,Diorite_rect,3,1.639,1,0,0,0,0,1,,,,,,,,,,,,,
646774e0f86825ab62c37581,SCN,2024-06-25_11h44.51.736,LearnStrategy,2023.2.3,Win32,60.24096386,6,1,2,0.25,-0.263020833,1,0,0,1.6819,Pumice_10,8,10,2,6,1.682,0.3671875,-0.415364583,1,0,0,0.9856,Pumice_rect,8,0.986,1,1,0,1,0,1,,,,,,,,,,,,,
646774e0f86825ab62c37581,SCN,2024-06-25_11h44.51.736,LearnStrategy,2023.2.3,Win32,60.24096386,6,1,3,0.408854167,-0.41796875,1,0,0,0.9479,Peridotite_04,7,04,1,7,0.948,-0.053385417,-0.403645833,1,0,0,1.3128,Pegmatite_rect,6,1.313,0,2,0,2,0,1,,,,,,,,,,,,,
646774e0f86825ab62c37581,SCN,2024-06-25_11h44.51.736,LearnStrategy,2023.2.3,Win32,60.24096386,6,1,4,-0.373697917,-0.260416667,1,0,0,2.1311,Peridotite_14,7,14,2,2,2.131,0.149739583,-0.2578125,1,0,0,1.4606,Diorite_rect,3,1.461,0,3,0,3,0,1,,,,,,,,,,,,,
646774e0f86825ab62c37581,SCN,2024-06-25_11h44.51.736,LearnStrategy,2023.2.3,Win32,60.24096386,6,1,5,-0.203125,-0.385416667,1,0,0,1.5807,Diorite_07,3,07,1,3,1.581,0.092447917,-0.411458333,1,0,0,2.5995,Peridotite_rect,7,2.6,0,4,0,4,0,1,,,,,,,,,,,,,
646774e0f86825ab62c37581,SCN,2024-06-25_11h44.51.736,LearnStrategy,2023.2.3,Win32,60.24096386,6,1,6,0.075520833,-0.41015625,1,0,0,2.0555,Andesite_14,1,14,1,5,2.055,0.12890625,-0.248697917,1,0,0,1.8858,Diorite_rect,3,1.886,0,5,0,5,0,1,,,,,,,,,,,,,
646774e0f86825ab62c37581,SCN,2024-06-25_11h44.51.736,LearnStrategy,2023.2.3,Win32,60.24096386,6,1,7,0.5546875,-0.259114583,1,0,0,4.1291,Diorite_16,3,16,2,8,4.129,0.453125,-0.260416667,1,0,0,0.8747,Gabbro_rect,4,0.875,0,6,0,6,0,1,,,,,,,,,,,,,
646774e0f86825ab62c37581,SCN,2024-06-25_11h44.51.736,LearnStrategy,2023.2.3,Win32,60.24096386,6,1,8,0.529947917,-0.391927083,1,0,0,1.1139,Diorite_02,3,02,1,8,1.114,-0.40625,-0.247395833,1,0,0,3.3533,Andesite_rect,1,3.353,0,7,0,7,0,1,,,,,,,,,,,,,
646774e0f86825ab62c37581,SCN,2024-06-25_11h44.51.736,LearnStrategy,2023.2.3,Win32,60.24096386,6,1,9,0.067708333,-0.421875,1,0,0,1.3424,Andesite_14,1,14,1,5,1.342,0.131510417,-0.260416667,1,0,0,3.4959,Diorite_rect,3,3.496,0,8,0,8,0,1,,,,,,,,,,,,,
646774e0f86825ab62c37581,SCN,2024-06-25_11h44.51.736,LearnStrategy,2023.2.3,Win32,60.24096386,6,1,10,-0.389322917,0.37890625,1,0,0,1.0637,Pegmatite_07,6,07,6,2,1.064,-0.11328125,-0.41015625,1,0,0,2.5334,Pegmatite_rect,6,2.533,1,9,0,9,0,1,,,,,,,,,,,,,
646774e0f86825ab62c37581,SCN,2024-06-25_11h44.51.736,LearnStrategy,2023.2.3,Win32,60.24096386,6,1,11,0.231770833,0.27734375,1,0,0,1.3138,Andesite_11,1,11,5,6,1.314,0.376302083,-0.264322917,1,0,0,1.322,Gabbro_rect,4,1.322,0,10,0,10,0,1,,,,,,,,,,,,,
646774e0f86825ab62c37581,SCN,2024-06-25_11h44.51.736,LearnStrategy,2023.2.3,Win32,60.24096386,6,1,12,0.552083333,0.4140625,1,0,0,2.1121,Peridotite_02,7,02,6,8,2.112,0.091145833,-0.3828125,1,0,0,1.9792,Peridotite_rect,7,1.979,1,11,0,11,0,1,,,,,,,,,,,,,
646774e0f86825ab62c37581,SCN,2024-06-25_11h44.51.736,LearnStrategy,2023.2.3,Win32,60.24096386,6,1,13,-0.549479167,0.126302083,1,0,0,1.78,Gabbro_12,4,12,4,1,1.78,-0.1484375,-0.247395833,1,0,0,0.7712,Basalt_rect,2,0.771,0,12,0,12,0,1,,,,,,,,,,,,,
646774e0f86825ab62c37581,SCN,2024-06-25_11h44.51.736,LearnStrategy,2023.2.3,Win32,60.24096386,6,1,14,-0.069010417,-0.26171875,1,0,0,1.08,Gabbro_08,4,08,2,4,1.08,0.397135417,-0.247395833,1,0,0,2.564,Gabbro_rect,4,2.564,1,13,0,13,0,1,,,,,,,,,,,,,
646774e0f86825ab62c37581,SCN,2024-06-25_11h44.51.736,LearnStrategy,2023.2.3,Win32,60.24096386,6,1,15,0.1171875,-0.403645833,1,0,0,1.0294,Andesite_14,1,14,1,5,1.029,0.083333333,-0.265625,1,0,0,3.1185,Diorite_rect,3,3.118,0,14,0,14,0,1,,,,,,,,,,,,,
646774e0f86825ab62c37581,SCN,2024-06-25_11h44.51.736,LearnStrategy,2023.2.3,Win32,60.24096386,6,1,16,-0.537760417,0.102864583,1,0,0,1.6288,Gabbro_12,4,12,4,1,1.629,-0.151041667,-0.263020833,1,0,0,1.0091,Basalt_rect,2,1.009,0,15,0,15,0,1,,,,,,,,,,,,,
646774e0f86825ab62c37581,SCN,2024-06-25_11h44.51.736,LearnStrategy,2023.2.3,Win32,60.24096386,6,2,1,,,,,,,,8,15,,,,,,,,,,,8,1.954,1,,,,,,0.40234375,-0.415364583,1,0,0,1.9535,Pumice_rect,0,0,0,0,1,
646774e0f86825ab62c37581,SCN,2024-06-25_11h44.51.736,LearnStrategy,2023.2.3,Win32,60.24096386,6,2,2,,,,,,,,7,16,,,,,,,,,,,7,4.268,1,,,,,,0.084635417,-0.41015625,1,0,0,4.268,Peridotite_rect,1,0,1,0,1,
646774e0f86825ab62c37581,SCN,2024-06-25_11h44.51.736,LearnStrategy,2023.2.3,Win32,60.24096386,6,2,3,,,,,,,,7,12,,,,,,,,,,,7,2.321,1,,,,,,0.096354167,-0.415364583,1,0,0,2.3212,Peridotite_rect,2,0,2,0,1,
646774e0f86825ab62c37581,SCN,2024-06-25_11h44.51.736,LearnStrategy,2023.2.3,Win32,60.24096386,6,2,4,,,,,,,,4,03,,,,,,,,,,,4,3.042,1,,,,,,0.403645833,-0.239583333,1,0,0,3.0417,Gabbro_rect,3,0,3,0,1,
646774e0f86825ab62c37581,SCN,2024-06-25_11h44.51.736,LearnStrategy,2023.2.3,Win32,60.24096386,6,2,5,,,,,,,,6,10,,,,,,,,,,,6,1.24,1,,,,,,-0.10546875,-0.397135417,1,0,0,1.2402,Pegmatite_rect,4,0,4,0,1,
646774e0f86825ab62c37581,SCN,2024-06-25_11h44.51.736,LearnStrategy,2023.2.3,Win32,60.24096386,6,2,6,,,,,,,,2,12,,,,,,,,,,,1,5.916,0,,,,,,-0.407552083,-0.2421875,1,0,0,5.9162,Andesite_rect,5,0,5,0,1,
646774e0f86825ab62c37581,SCN,2024-06-25_11h44.51.736,LearnStrategy,2023.2.3,Win32,60.24096386,6,2,7,,,,,,,,6,16,,,,,,,,,,,6,3.127,1,,,,,,-0.083333333,-0.399739583,1,0,0,3.1271,Pegmatite_rect,6,0,6,0,1,
646774e0f86825ab62c37581,SCN,2024-06-25_11h44.51.736,LearnStrategy,2023.2.3,Win32,60.24096386,6,2,8,,,,,,,,1,16,,,,,,,,,,,3,2.272,0,,,,,,0.1328125,-0.235677083,1,0,0,2.2716,Diorite_rect,7,0,7,0,1,
646774e0f86825ab62c37581,SCN,2024-06-25_11h44.51.736,LearnStrategy,2023.2.3,Win32,60.24096386,6,2,9,,,,,,,,8,03,,,,,,,,,,,8,1.129,1,,,,,,0.381510417,-0.395833333,1,0,0,1.1287,Pumice_rect,8,0,8,0,1,
646774e0f86825ab62c37581,SCN,2024-06-25_11h44.51.736,LearnStrategy,2023.2.3,Win32,60.24096386,6,2,10,,,,,,,,3,14,,,,,,,,,,,1,4.046,0,,,,,,-0.3515625,-0.236979167,1,0,0,4.0459,Andesite_rect,9,0,9,0,1,
646774e0f86825ab62c37581,SCN,2024-06-25_11h44.51.736,LearnStrategy,2023.2.3,Win32,60.24096386,6,2,11,,,,,,,,5,08,,,,,,,,,,,5,1.577,1,,,,,,-0.391927083,-0.401041667,1,0,0,1.5767,Obsidian_rect,10,0,10,0,1,
646774e0f86825ab62c37581,SCN,2024-06-25_11h44.51.736,LearnStrategy,2023.2.3,Win32,60.24096386,6,2,12,,,,,,,,3,06,,,,,,,,,,,2,3.517,0,,,,,,-0.1328125,-0.235677083,1,0,0,3.5167,Basalt_rect,11,0,11,0,1,
646774e0f86825ab62c37581,SCN,2024-06-25_11h44.51.736,LearnStrategy,2023.2.3,Win32,60.24096386,6,2,13,,,,,,,,4,11,,,,,,,,,,,2,1.138,0,,,,,,-0.149739583,-0.264322917,1,0,0,1.138,Basalt_rect,12,0,12,0,1,
646774e0f86825ab62c37581,SCN,2024-06-25_11h44.51.736,LearnStrategy,2023.2.3,Win32,60.24096386,6,2,14,,,,,,,,2,10,,,,,,,,,,,2,1.327,1,,,,,,-0.143229167,-0.26171875,1,0,0,1.3273,Basalt_rect,13,0,13,0,1,
646774e0f86825ab62c37581,SCN,2024-06-25_11h44.51.736,LearnStrategy,2023.2.3,Win32,60.24096386,6,2,15,,,,,,,,5,14,,,,,,,,,,,5,1.16,1,,,,,,-0.395833333,-0.404947917,1,0,0,1.1603,Obsidian_rect,14,0,14,0,1,
646774e0f86825ab62c37581,SCN,2024-06-25_11h44.51.736,LearnStrategy,2023.2.3,Win32,60.24096386,6,2,16,,,,,,,,1,01,,,,,,,,,,,3,2.752,0,,,,,,0.12890625,-0.248697917,1,0,0,2.7515,Diorite_rect,15,0,15,0,1,
646774e0f86825ab62c37581,SCN,2024-06-25_11h44.51.736,LearnStrategy,2023.2.3,Win32,60.24096386,7,1,1,-0.56640625,-0.096354167,1,0,0,2.0748,Obsidian_10,5,10,3,1,2.075,-0.3203125,-0.40625,1,0,0,2.825,Obsidian_rect,5,2.825,1,0,0,0,0,1,,,,,,,,,,,,,
646774e0f86825ab62c37581,SCN,2024-06-25_11h44.51.736,LearnStrategy,2023.2.3,Win32,60.24096386,7,1,2,-0.095052083,-0.083333333,1,0,0,0.6635,Pumice_06,8,06,3,4,0.663,0.356770833,-0.388020833,1,0,0,1.5106,Pumice_rect,8,1.511,1,1,0,1,0,1,,,,,,,,,,,,,
646774e0f86825ab62c37581,SCN,2024-06-25_11h44.51.736,LearnStrategy,2023.2.3,Win32,60.24096386,7,1,3,0.229166667,-0.263020833,1,0,0,0.7799,Pumice_10,8,10,2,6,0.78,0.352864583,-0.408854167,1,0,0,0.9053,Pumice_rect,8,0.905,1,2,0,2,0,1,,,,,,,,,,,,,
646774e0f86825ab62c37581,SCN,2024-06-25_11h44.51.736,LearnStrategy,2023.2.3,Win32,60.24096386,7,1,4,-0.234375,-0.2890625,1,0,0,1.3643,Basalt_02,2,02,2,3,1.364,-0.427083333,-0.231770833,1,0,0,1.9204,Andesite_rect,1,1.92,0,3,0,3,0,1,,,,,,,,,,,,,
646774e0f86825ab62c37581,SCN,2024-06-25_11h44.51.736,LearnStrategy,2023.2.3,Win32,60.24096386,7,1,5,-0.234375,-0.272135417,1,0,0,1.6384,Basalt_02,2,02,2,3,1.638,-0.162760417,-0.268229167,1,0,0,1.1291,Basalt_rect,2,1.129,1,4,0,4,0,1,,,,,,,,,,,,,
646774e0f86825ab62c37581,SCN,2024-06-25_11h44.51.736,LearnStrategy,2023.2.3,Win32,60.24096386,7,1,6,0.518229167,-0.248697917,1,0,0,1.2001,Diorite_16,3,16,2,8,1.2,0.447916667,-0.2578125,1,0,0,1.0495,Gabbro_rect,4,1.049,0,5,0,5,0,1,,,,,,,,,,,,,
646774e0f86825ab62c37581,SCN,2024-06-25_11h44.51.736,LearnStrategy,2023.2.3,Win32,60.24096386,7,1,7,0.553385417,-0.4140625,1,0,0,0.8794,Diorite_02,3,02,1,8,0.879,0.16796875,-0.265625,1,0,0,1.3999,Diorite_rect,3,1.4,1,6,0,6,0,1,,,,,,,,,,,,,
646774e0f86825ab62c37581,SCN,2024-06-25_11h44.51.736,LearnStrategy,2023.2.3,Win32,60.24096386,7,1,8,0.048177083,-0.25,1,0,0,1.0012,Peridotite_05,7,05,2,5,1.001,0.088541667,-0.389322917,1,0,0,1.4234,Peridotite_rect,7,1.423,1,7,0,7,0,1,,,,,,,,,,,,,
646774e0f86825ab62c37581,SCN,2024-06-25_11h44.51.736,LearnStrategy,2023.2.3,Win32,60.24096386,7,1,9,0.0703125,0.08984375,1,0,0,1.8108,Diorite_08,3,08,4,5,1.811,0.1171875,-0.25390625,1,0,0,0.701,Diorite_rect,3,0.701,1,8,0,8,0,1,,,,,,,,,,,,,
646774e0f86825ab62c37581,SCN,2024-06-25_11h44.51.736,LearnStrategy,2023.2.3,Win32,60.24096386,7,1,10,-0.197916667,0.083333333,1,0,0,1.3423,Gabbro_01,4,01,4,3,1.342,0.1328125,-0.2421875,1,0,0,1.7994,Diorite_rect,3,1.799,0,9,0,9,0,1,,,,,,,,,,,,,
646774e0f86825ab62c37581,SCN,2024-06-25_11h44.51.736,LearnStrategy,2023.2.3,Win32,60.24096386,7,1,11,0.053385417,0.095052083,1,0,0,0.9243,Diorite_08,3,08,4,5,0.924,0.115885417,-0.235677083,1,0,0,1.6507,Diorite_rect,3,1.651,1,10,0,10,0,1,,,,,,,,,,,,,
646774e0f86825ab62c37581,SCN,2024-06-25_11h44.51.736,LearnStrategy,2023.2.3,Win32,60.24096386,7,1,12,-0.20703125,0.243489583,1,0,0,1.3385,Pegmatite_08,6,08,5,3,1.338,-0.126302083,-0.384114583,1,0,0,0.9144,Pegmatite_rect,6,0.914,1,11,0,11,0,1,,,,,,,,,,,,,
646774e0f86825ab62c37581,SCN,2024-06-25_11h44.51.736,LearnStrategy,2023.2.3,Win32,60.24096386,7,1,13,-0.096354167,0.453125,1,0,0,0.9127,Pegmatite_11,6,11,6,4,0.913,-0.12890625,-0.412760417,1,0,0,1.3209,Pegmatite_rect,6,1.321,1,12,0,12,0,1,,,,,,,,,,,,,
646774e0f86825ab62c37581,SCN,2024-06-25_11h44.51.736,LearnStrategy,2023.2.3,Win32,60.24096386,7,1,14,0.526041667,0.403645833,1,0,0,1.7768,Peridotite_02,7,02,6,8,1.777,0.102864583,-0.39453125,1,0,0,1.4628,Peridotite_rect,7,1.463,1,13,0,13,0,1,,,,,,,,,,,,,
646774e0f86825ab62c37581,SCN,2024-06-25_11h44.51.736,LearnStrategy,2023.2.3,Win32,60.24096386,7,1,15,-0.348958333,-0.260416667,1,0,0,1.3168,Peridotite_14,7,14,2,2,1.317,0.091145833,-0.2421875,1,0,0,1.0808,Diorite_rect,3,1.081,0,14,0,14,0,1,,,,,,,,,,,,,
646774e0f86825ab62c37581,SCN,2024-06-25_11h44.51.736,LearnStrategy,2023.2.3,Win32,60.24096386,7,1,16,-0.225260417,-0.4296875,1,0,0,1.5636,Diorite_07,3,07,1,3,1.564,0.39453125,-0.270833333,1,0,0,1.4731,Gabbro_rect,4,1.473,0,15,0,15,0,1,,,,,,,,,,,,,
646774e0f86825ab62c37581,SCN,2024-06-25_11h44.51.736,LearnStrategy,2023.2.3,Win32,60.24096386,7,2,1,,,,,,,,8,15,,,,,,,,,,,8,1.207,1,,,,,,0.375,-0.419270833,1,0,0,1.207,Pumice_rect,0,0,0,0,1,
646774e0f86825ab62c37581,SCN,2024-06-25_11h44.51.736,LearnStrategy,2023.2.3,Win32,60.24096386,7,2,2,,,,,,,,3,12,,,,,,,,,,,3,4.78,1,,,,,,0.1328125,-0.265625,1,0,0,4.7805,Diorite_rect,1,0,1,0,1,
646774e0f86825ab62c37581,SCN,2024-06-25_11h44.51.736,LearnStrategy,2023.2.3,Win32,60.24096386,7,2,3,,,,,,,,7,13,,,,,,,,,,,7,1.323,1,,,,,,0.109375,-0.40234375,1,0,0,1.3232,Peridotite_rect,2,0,2,0,1,
646774e0f86825ab62c37581,SCN,2024-06-25_11h44.51.736,LearnStrategy,2023.2.3,Win32,60.24096386,7,2,4,,,,,,,,5,05,,,,,,,,,,,5,1.287,1,,,,,,-0.399739583,-0.397135417,1,0,0,1.2868,Obsidian_rect,3,0,3,0,1,
646774e0f86825ab62c37581,SCN,2024-06-25_11h44.51.736,LearnStrategy,2023.2.3,Win32,60.24096386,7,2,5,,,,,,,,6,03,,,,,,,,,,,6,1.207,1,,,,,,-0.174479167,-0.399739583,1,0,0,1.2073,Pegmatite_rect,4,0,4,0,1,
646774e0f86825ab62c37581,SCN,2024-06-25_11h44.51.736,LearnStrategy,2023.2.3,Win32,60.24096386,7,2,6,,,,,,,,5,14,,,,,,,,,,,5,1.165,1,,,,,,-0.380208333,-0.397135417,1,0,0,1.1653,Obsidian_rect,5,0,5,0,1,
646774e0f86825ab62c37581,SCN,2024-06-25_11h44.51.736,LearnStrategy,2023.2.3,Win32,60.24096386,7,2,7,,,,,,,,3,11,,,,,,,,,,,3,2.52,1,,,,,,0.149739583,-0.259114583,1,0,0,2.5195,Diorite_rect,6,0,6,0,1,
646774e0f86825ab62c37581,SCN,2024-06-25_11h44.51.736,LearnStrategy,2023.2.3,Win32,60.24096386,7,2,8,,,,,,,,1,04,,,,,,,,,,,4,1.695,0,,,,,,0.364583333,-0.234375,1,0,0,1.6951,Gabbro_rect,7,0,7,0,1,
646774e0f86825ab62c37581,SCN,2024-06-25_11h44.51.736,LearnStrategy,2023.2.3,Win32,60.24096386,7,2,9,,,,,,,,2,10,,,,,,,,,,,2,1.193,1,,,,,,-0.143229167,-0.247395833,1,0,0,1.1926,Basalt_rect,8,0,8,0,1,
646774e0f86825ab62c37581,SCN,2024-06-25_11h44.51.736,LearnStrategy,2023.2.3,Win32,60.24096386,7,2,10,,,,,,,,4,11,,,,,,,,,,,1,3.208,0,,,,,,-0.40625,-0.233072917,1,0,0,3.2077,Andesite_rect,9,0,9,0,1,
646774e0f86825ab62c37581,SCN,2024-06-25_11h44.51.736,LearnStrategy,2023.2.3,Win32,60.24096386,7,2,11,,,,,,,,7,12,,,,,,,,,,,7,3.156,1,,,,,,0.1484375,-0.395833333,1,0,0,3.1564,Peridotite_rect,10,0,10,0,1,
646774e0f86825ab62c37581,SCN,2024-06-25_11h44.51.736,LearnStrategy,2023.2.3,Win32,60.24096386,7,2,12,,,,,,,,4,03,,,,,,,,,,,4,1.965,1,,,,,,0.41015625,-0.229166667,1,0,0,1.9645,Gabbro_rect,11,0,11,0,1,
646774e0f86825ab62c37581,SCN,2024-06-25_11h44.51.736,LearnStrategy,2023.2.3,Win32,60.24096386,7,2,13,,,,,,,,8,05,,,,,,,,,,,8,1.145,1,,,,,,0.345052083,-0.399739583,1,0,0,1.1454,Pumice_rect,12,0,12,0,1,
646774e0f86825ab62c37581,SCN,2024-06-25_11h44.51.736,LearnStrategy,2023.2.3,Win32,60.24096386,7,2,14,,,,,,,,6,12,,,,,,,,,,,6,2.6,1,,,,,,-0.06640625,-0.411458333,1,0,0,2.6004,Pegmatite_rect,13,0,13,0,1,
646774e0f86825ab62c37581,SCN,2024-06-25_11h44.51.736,LearnStrategy,2023.2.3,Win32,60.24096386,7,2,15,,,,,,,,2,16,,,,,,,,,,,2,2.974,1,,,,,,-0.127604167,-0.26171875,1,0,0,2.9743,Basalt_rect,14,0,14,0,1,
646774e0f86825ab62c37581,SCN,2024-06-25_11h44.51.736,LearnStrategy,2023.2.3,Win32,60.24096386,7,2,16,,,,,,,,1,02,,,,,,,,,,,3,5.21,0,,,,,,0.161458333,-0.25390625,1,0,0,5.2101,Diorite_rect,15,0,15,0,1,
646774e0f86825ab62c37581,SCN,2024-06-25_11h44.51.736,LearnStrategy,2023.2.3,Win32,60.24096386,8,1,1,-0.533854167,-0.115885417,1,0,0,0.9956,Obsidian_10,5,10,3,1,0.996,-0.375,-0.416666667,1,0,0,1.0036,Obsidian_rect,5,1.004,1,0,0,0,0,1,,,,,,,,,,,,,
646774e0f86825ab62c37581,SCN,2024-06-25_11h44.51.736,LearnStrategy,2023.2.3,Win32,60.24096386,8,1,2,-0.041666667,-0.0859375,1,0,0,0.7337,Pumice_06,8,06,3,4,0.734,0.434895833,-0.419270833,1,0,0,0.9536,Pumice_rect,8,0.954,1,1,0,1,0,1,,,,,,,,,,,,,
646774e0f86825ab62c37581,SCN,2024-06-25_11h44.51.736,LearnStrategy,2023.2.3,Win32,60.24096386,8,1,3,0.091145833,-0.08984375,1,0,0,0.9642,Basalt_05,2,05,3,5,0.964,-0.06640625,-0.236979167,1,0,0,0.9012,Basalt_rect,2,0.901,1,2,0,2,0,1,,,,,,,,,,,,,
646774e0f86825ab62c37581,SCN,2024-06-25_11h44.51.736,LearnStrategy,2023.2.3,Win32,60.24096386,8,1,4,0.04296875,0.1015625,1,0,0,0.682,Diorite_08,3,08,4,5,0.682,0.135416667,-0.26171875,1,0,0,0.8951,Diorite_rect,3,0.895,1,3,0,3,0,1,,,,,,,,,,,,,
646774e0f86825ab62c37581,SCN,2024-06-25_11h44.51.736,LearnStrategy,2023.2.3,Win32,60.24096386,8,1,5,-0.21875,0.08203125,1,0,0,1.0797,Gabbro_01,4,01,4,3,1.08,0.376302083,-0.247395833,1,0,0,1.2078,Gabbro_rect,4,1.208,1,4,0,4,0,1,,,,,,,,,,,,,
646774e0f86825ab62c37581,SCN,2024-06-25_11h44.51.736,LearnStrategy,2023.2.3,Win32,60.24096386,8,1,6,0.07421875,0.23828125,1,0,0,0.8811,Andesite_06,1,06,5,5,0.881,0.34765625,-0.252604167,1,0,0,1.3023,Gabbro_rect,4,1.302,0,5,0,5,0,1,,,,,,,,,,,,,
646774e0f86825ab62c37581,SCN,2024-06-25_11h44.51.736,LearnStrategy,2023.2.3,Win32,60.24096386,8,1,7,0.235677083,0.25,1,0,0,1.2143,Andesite_11,1,11,5,6,1.214,-0.438802083,-0.243489583,1,0,0,1.1722,Andesite_rect,1,1.172,1,6,0,6,0,1,,,,,,,,,,,,,
646774e0f86825ab62c37581,SCN,2024-06-25_11h44.51.736,LearnStrategy,2023.2.3,Win32,60.24096386,8,1,8,0.404947917,0.11328125,1,0,0,0.8628,Andesite_05,1,05,4,7,0.863,0.447916667,-0.240885417,1,0,0,2.0892,Gabbro_rect,4,2.089,0,7,0,7,0,1,,,,,,,,,,,,,
646774e0f86825ab62c37581,SCN,2024-06-25_11h44.51.736,LearnStrategy,2023.2.3,Win32,60.24096386,8,1,9,0.561197917,-0.264322917,1,0,0,2.347,Diorite_16,3,16,2,8,2.347,0.434895833,-0.259114583,1,0,0,1.2006,Gabbro_rect,4,1.201,0,8,0,8,0,1,,,,,,,,,,,,,
646774e0f86825ab62c37581,SCN,2024-06-25_11h44.51.736,LearnStrategy,2023.2.3,Win32,60.24096386,8,1,10,0.552083333,-0.4296875,1,0,0,2.147,Diorite_02,3,02,1,8,2.147,0.1640625,-0.244791667,1,0,0,1.3499,Diorite_rect,3,1.35,1,9,0,9,0,1,,,,,,,,,,,,,
646774e0f86825ab62c37581,SCN,2024-06-25_11h44.51.736,LearnStrategy,2023.2.3,Win32,60.24096386,8,1,11,0.278645833,-0.442708333,1,0,0,1.2491,Peridotite_06,7,06,1,6,1.249,0.126302083,-0.411458333,1,0,0,1.7389,Peridotite_rect,7,1.739,1,10,0,10,0,1,,,,,,,,,,,,,
646774e0f86825ab62c37581,SCN,2024-06-25_11h44.51.736,LearnStrategy,2023.2.3,Win32,60.24096386,8,1,12,-0.220052083,-0.403645833,1,0,0,2.9476,Diorite_07,3,07,1,3,2.948,0.102864583,-0.23046875,1,0,0,2.5688,Diorite_rect,3,2.569,1,11,0,11,0,1,,,,,,,,,,,,,
646774e0f86825ab62c37581,SCN,2024-06-25_11h44.51.736,LearnStrategy,2023.2.3,Win32,60.24096386,8,1,13,0.251302083,-0.430989583,1,0,0,1.0469,Peridotite_06,7,06,1,6,1.047,0.19140625,-0.421875,1,0,0,1.2796,Peridotite_rect,7,1.28,1,12,0,12,0,1,,,,,,,,,,,,,
646774e0f86825ab62c37581,SCN,2024-06-25_11h44.51.736,LearnStrategy,2023.2.3,Win32,60.24096386,8,1,14,-0.19140625,0.256510417,1,0,0,0.8631,Pegmatite_08,6,08,5,3,0.863,-0.114583333,-0.4140625,1,0,0,1.1068,Pegmatite_rect,6,1.107,1,13,0,13,0,1,,,,,,,,,,,,,
646774e0f86825ab62c37581,SCN,2024-06-25_11h44.51.736,LearnStrategy,2023.2.3,Win32,60.24096386,8,1,15,0.2265625,0.2734375,1,0,0,1.4629,Andesite_11,1,11,5,6,1.463,0.3828125,-0.2578125,1,0,0,1.9,Gabbro_rect,4,1.9,0,14,0,14,0,1,,,,,,,,,,,,,
646774e0f86825ab62c37581,SCN,2024-06-25_11h44.51.736,LearnStrategy,2023.2.3,Win32,60.24096386,8,1,16,-0.045572917,0.395833333,1,0,0,0.9204,Pegmatite_11,6,11,6,4,0.92,-0.084635417,-0.395833333,1,0,0,1.1339,Pegmatite_rect,6,1.134,1,15,0,15,0,1,,,,,,,,,,,,,
646774e0f86825ab62c37581,SCN,2024-06-25_11h44.51.736,LearnStrategy,2023.2.3,Win32,60.24096386,8,2,1,,,,,,,,7,16,,,,,,,,,,,7,4.503,1,,,,,,0.134114583,-0.381510417,1,0,0,4.5033,Peridotite_rect,0,0,0,0,1,
646774e0f86825ab62c37581,SCN,2024-06-25_11h44.51.736,LearnStrategy,2023.2.3,Win32,60.24096386,8,2,2,,,,,,,,6,10,,,,,,,,,,,6,1.351,1,,,,,,-0.104166667,-0.399739583,1,0,0,1.3509,Pegmatite_rect,1,0,1,0,1,
646774e0f86825ab62c37581,SCN,2024-06-25_11h44.51.736,LearnStrategy,2023.2.3,Win32,60.24096386,8,2,3,,,,,,,,8,04,,,,,,,,,,,8,0.994,1,,,,,,0.401041667,-0.395833333,1,0,0,0.9942,Pumice_rect,2,0,2,0,1,
646774e0f86825ab62c37581,SCN,2024-06-25_11h44.51.736,LearnStrategy,2023.2.3,Win32,60.24096386,8,2,4,,,,,,,,3,13,,,,,,,,,,,7,2.095,0,,,,,,0.09375,-0.395833333,1,0,0,2.0947,Peridotite_rect,3,0,3,0,1,
646774e0f86825ab62c37581,SCN,2024-06-25_11h44.51.736,LearnStrategy,2023.2.3,Win32,60.24096386,8,2,5,,,,,,,,2,06,,,,,,,,,,,2,1.216,1,,,,,,-0.15234375,-0.251302083,1,0,0,1.216,Basalt_rect,4,0,4,0,1,
646774e0f86825ab62c37581,SCN,2024-06-25_11h44.51.736,LearnStrategy,2023.2.3,Win32,60.24096386,8,2,6,,,,,,,,3,10,,,,,,,,,,,3,2.405,1,,,,,,0.1328125,-0.247395833,1,0,0,2.4048,Diorite_rect,5,0,5,0,1,
646774e0f86825ab62c37581,SCN,2024-06-25_11h44.51.736,LearnStrategy,2023.2.3,Win32,60.24096386,8,2,7,,,,,,,,5,12,,,,,,,,,,,5,1.312,1,,,,,,-0.32421875,-0.390625,1,0,0,1.312,Obsidian_rect,6,0,6,0,1,
646774e0f86825ab62c37581,SCN,2024-06-25_11h44.51.736,LearnStrategy,2023.2.3,Win32,60.24096386,8,2,8,,,,,,,,1,09,,,,,,,,,,,4,3.443,0,,,,,,0.403645833,-0.243489583,1,0,0,3.4431,Gabbro_rect,7,0,7,0,1,
646774e0f86825ab62c37581,SCN,2024-06-25_11h44.51.736,LearnStrategy,2023.2.3,Win32,60.24096386,8,2,9,,,,,,,,1,01,,,,,,,,,,,1,1.248,1,,,,,,-0.397135417,-0.23046875,1,0,0,1.2481,Andesite_rect,8,0,8,0,1,
646774e0f86825ab62c37581,SCN,2024-06-25_11h44.51.736,LearnStrategy,2023.2.3,Win32,60.24096386,8,2,10,,,,,,,,4,16,,,,,,,,,,,2,1.654,0,,,,,,-0.1171875,-0.240885417,1,0,0,1.6544,Basalt_rect,9,0,9,0,1,
646774e0f86825ab62c37581,SCN,2024-06-25_11h44.51.736,LearnStrategy,2023.2.3,Win32,60.24096386,8,2,11,,,,,,,,4,14,,,,,,,,,,,4,2.484,1,,,,,,0.375,-0.252604167,1,0,0,2.4836,Gabbro_rect,10,0,10,0,1,
646774e0f86825ab62c37581,SCN,2024-06-25_11h44.51.736,LearnStrategy,2023.2.3,Win32,60.24096386,8,2,12,,,,,,,,5,11,,,,,,,,,,,5,1.656,1,,,,,,-0.33984375,-0.395833333,1,0,0,1.6558,Obsidian_rect,11,0,11,0,1,
646774e0f86825ab62c37581,SCN,2024-06-25_11h44.51.736,LearnStrategy,2023.2.3,Win32,60.24096386,8,2,13,,,,,,,,8,09,,,,,,,,,,,8,1.416,1,,,,,,0.447916667,-0.408854167,1,0,0,1.4163,Pumice_rect,12,0,12,0,1,
646774e0f86825ab62c37581,SCN,2024-06-25_11h44.51.736,LearnStrategy,2023.2.3,Win32,60.24096386,8,2,14,,,,,,,,2,04,,,,,,,,,,,2,1.864,1,,,,,,-0.166666667,-0.235677083,1,0,0,1.8641,Basalt_rect,13,0,13,0,1,
646774e0f86825ab62c37581,SCN,2024-06-25_11h44.51.736,LearnStrategy,2023.2.3,Win32,60.24096386,8,2,15,,,,,,,,6,16,,,,,,,,,,,6,1.692,1,,,,,,-0.1015625,-0.411458333,1,0,0,1.6918,Pegmatite_rect,14,0,14,0,1,
646774e0f86825ab62c37581,SCN,2024-06-25_11h44.51.736,LearnStrategy,2023.2.3,Win32,60.24096386,8,2,16,,,,,,,,7,07,,,,,,,,,,,7,1.257,1,,,,,,0.115885417,-0.395833333,1,0,0,1.2567,Peridotite_rect,15,0,15,0,1,
646774e0f86825ab62c37581,SCN,2024-06-25_11h44.51.736,LearnStrategy,2023.2.3,Win32,60.24096386,9,1,1,0.063802083,0.1171875,1,0,0,1.18,Diorite_08,3,08,4,5,1.18,0.153645833,-0.25390625,1,0,0,1.3739,Diorite_rect,3,1.374,1,0,0,0,0,1,,,,,,,,,,,,,
646774e0f86825ab62c37581,SCN,2024-06-25_11h44.51.736,LearnStrategy,2023.2.3,Win32,60.24096386,9,1,2,0.423177083,0.057291667,1,0,0,0.8228,Andesite_05,1,05,4,7,0.823,0.43359375,-0.236979167,1,0,0,1.2689,Gabbro_rect,4,1.269,0,1,0,1,0,1,,,,,,,,,,,,,
646774e0f86825ab62c37581,SCN,2024-06-25_11h44.51.736,LearnStrategy,2023.2.3,Win32,60.24096386,9,1,3,0.075520833,-0.4453125,1,0,0,0.7944,Andesite_14,1,14,1,5,0.794,0.341145833,-0.260416667,1,0,0,5.0025,Gabbro_rect,4,5.002,0,2,0,2,0,1,,,,,,,,,,,,,
646774e0f86825ab62c37581,SCN,2024-06-25_11h44.51.736,LearnStrategy,2023.2.3,Win32,60.24096386,9,1,4,-0.205729167,0.092447917,1,0,0,0.9462,Gabbro_01,4,01,4,3,0.946,-0.403645833,-0.240885417,1,0,0,1.5964,Andesite_rect,1,1.596,0,3,0,3,0,1,,,,,,,,,,,,,
646774e0f86825ab62c37581,SCN,2024-06-25_11h44.51.736,LearnStrategy,2023.2.3,Win32,60.24096386,9,1,5,-0.078125,-0.259114583,1,0,0,0.7646,Gabbro_08,4,08,2,4,0.765,0.455729167,-0.252604167,1,0,0,1.7766,Gabbro_rect,4,1.777,1,4,0,4,0,1,,,,,,,,,,,,,
646774e0f86825ab62c37581,SCN,2024-06-25_11h44.51.736,LearnStrategy,2023.2.3,Win32,60.24096386,9,1,6,0.108072917,-0.29296875,1,0,0,1.0662,Peridotite_05,7,05,2,5,1.066,0.145833333,-0.420572917,1,0,0,1.0079,Peridotite_rect,7,1.008,1,5,0,5,0,1,,,,,,,,,,,,,
646774e0f86825ab62c37581,SCN,2024-06-25_11h44.51.736,LearnStrategy,2023.2.3,Win32,60.24096386,9,1,7,0.424479167,0.390625,1,0,0,1.6684,Pumice_08,8,08,6,7,1.668,0.3515625,-0.40234375,1,0,0,1.6652,Pumice_rect,8,1.665,1,6,0,6,0,1,,,,,,,,,,,,,
646774e0f86825ab62c37581,SCN,2024-06-25_11h44.51.736,LearnStrategy,2023.2.3,Win32,60.24096386,9,1,8,-0.204427083,-0.266927083,1,0,0,2.4808,Basalt_02,2,02,2,3,2.481,-0.1953125,-0.259114583,1,0,0,1.0695,Basalt_rect,2,1.07,1,7,0,7,0,1,,,,,,,,,,,,,
646774e0f86825ab62c37581,SCN,2024-06-25_11h44.51.736,LearnStrategy,2023.2.3,Win32,60.24096386,9,1,9,-0.21875,-0.395833333,1,0,0,0.9969,Diorite_07,3,07,1,3,0.997,0.204427083,-0.233072917,1,0,0,1.5357,Diorite_rect,3,1.536,1,8,0,8,0,1,,,,,,,,,,,,,
646774e0f86825ab62c37581,SCN,2024-06-25_11h44.51.736,LearnStrategy,2023.2.3,Win32,60.24096386,9,1,10,0.234375,0.259114583,1,0,0,1.2082,Andesite_11,1,11,5,6,1.208,-0.302083333,-0.247395833,1,0,0,1.5599,Andesite_rect,1,1.56,1,9,0,9,0,1,,,,,,,,,,,,,
646774e0f86825ab62c37581,SCN,2024-06-25_11h44.51.736,LearnStrategy,2023.2.3,Win32,60.24096386,9,1,11,0.515625,0.395833333,1,0,0,1.5507,Peridotite_02,7,02,6,8,1.551,0.092447917,-0.390625,1,0,0,0.9761,Peridotite_rect,7,0.976,1,10,0,10,0,1,,,,,,,,,,,,,
646774e0f86825ab62c37581,SCN,2024-06-25_11h44.51.736,LearnStrategy,2023.2.3,Win32,60.24096386,9,1,12,-0.506510417,0.268229167,1,0,0,1.2179,Gabbro_09,4,09,5,1,1.218,-0.337239583,-0.240885417,1,0,0,1.2135,Andesite_rect,1,1.214,0,11,0,11,0,1,,,,,,,,,,,,,
646774e0f86825ab62c37581,SCN,2024-06-25_11h44.51.736,LearnStrategy,2023.2.3,Win32,60.24096386,9,1,13,0.07421875,0.25,1,0,0,1.4977,Andesite_06,1,06,5,5,1.498,-0.380208333,-0.263020833,1,0,0,1.4923,Andesite_rect,1,1.492,1,12,0,12,0,1,,,,,,,,,,,,,
646774e0f86825ab62c37581,SCN,2024-06-25_11h44.51.736,LearnStrategy,2023.2.3,Win32,60.24096386,9,1,14,-0.557291667,0.24609375,1,0,0,1.2115,Gabbro_09,4,09,5,1,1.212,0.463541667,-0.2578125,1,0,0,1.7419,Gabbro_rect,4,1.742,1,13,0,13,0,1,,,,,,,,,,,,,
646774e0f86825ab62c37581,SCN,2024-06-25_11h44.51.736,LearnStrategy,2023.2.3,Win32,60.24096386,9,1,15,0.076822917,-0.259114583,1,0,0,0.9643,Peridotite_05,7,05,2,5,0.964,0.1015625,-0.381510417,1,0,0,1.0114,Peridotite_rect,7,1.011,1,14,0,14,0,1,,,,,,,,,,,,,
646774e0f86825ab62c37581,SCN,2024-06-25_11h44.51.736,LearnStrategy,2023.2.3,Win32,60.24096386,9,1,16,-0.0546875,0.260416667,1,0,0,1.6928,Gabbro_15,4,15,5,4,1.693,-0.34375,-0.243489583,1,0,0,1.8859,Andesite_rect,1,1.886,0,15,0,15,0,1,,,,,,,,,,,,,
646774e0f86825ab62c37581,SCN,2024-06-25_11h44.51.736,LearnStrategy,2023.2.3,Win32,60.24096386,9,2,1,,,,,,,,6,13,,,,,,,,,,,6,2.076,1,,,,,,-0.111979167,-0.412760417,1,0,0,2.0757,Pegmatite_rect,0,0,0,0,1,
646774e0f86825ab62c37581,SCN,2024-06-25_11h44.51.736,LearnStrategy,2023.2.3,Win32,60.24096386,9,2,2,,,,,,,,7,15,,,,,,,,,,,7,1.28,1,,,,,,0.079427083,-0.389322917,1,0,0,1.2796,Peridotite_rect,1,0,1,0,1,
646774e0f86825ab62c37581,SCN,2024-06-25_11h44.51.736,LearnStrategy,2023.2.3,Win32,60.24096386,9,2,3,,,,,,,,1,07,,,,,,,,,,,3,1.738,0,,,,,,0.158854167,-0.25,1,0,0,1.7376,Diorite_rect,2,0,2,0,1,
646774e0f86825ab62c37581,SCN,2024-06-25_11h44.51.736,LearnStrategy,2023.2.3,Win32,60.24096386,9,2,4,,,,,,,,8,03,,,,,,,,,,,8,1.288,1,,,,,,0.305989583,-0.40625,1,0,0,1.2883,Pumice_rect,3,0,3,0,1,
646774e0f86825ab62c37581,SCN,2024-06-25_11h44.51.736,LearnStrategy,2023.2.3,Win32,60.24096386,9,2,5,,,,,,,,4,10,,,,,,,,,,,4,2.986,1,,,,,,0.384114583,-0.26953125,1,0,0,2.9855,Gabbro_rect,4,0,4,0,1,
646774e0f86825ab62c37581,SCN,2024-06-25_11h44.51.736,LearnStrategy,2023.2.3,Win32,60.24096386,9,2,6,,,,,,,,5,08,,,,,,,,,,,5,1.333,1,,,,,,-0.350260417,-0.404947917,1,0,0,1.333,Obsidian_rect,5,0,5,0,1,
646774e0f86825ab62c37581,SCN,2024-06-25_11h44.51.736,LearnStrategy,2023.2.3,Win32,60.24096386,9,2,7,,,,,,,,6,06,,,,,,,,,,,6,2.184,1,,,,,,-0.16796875,-0.39453125,1,0,0,2.184,Pegmatite_rect,6,0,6,0,1,
646774e0f86825ab62c37581,SCN,2024-06-25_11h44.51.736,LearnStrategy,2023.2.3,Win32,60.24096386,9,2,8,,,,,,,,7,08,,,,,,,,,,,7,1.341,1,,,,,,0.100260417,-0.3984375,1,0,0,1.341,Peridotite_rect,7,0,7,0,1,
646774e0f86825ab62c37581,SCN,2024-06-25_11h44.51.736,LearnStrategy,2023.2.3,Win32,60.24096386,9,2,9,,,,,,,,8,02,,,,,,,,,,,8,1.014,1,,,,,,0.328125,-0.40625,1,0,0,1.0145,Pumice_rect,8,0,8,0,1,
646774e0f86825ab62c37581,SCN,2024-06-25_11h44.51.736,LearnStrategy,2023.2.3,Win32,60.24096386,9,2,10,,,,,,,,2,09,,,,,,,,,,,2,1.469,1,,,,,,-0.162760417,-0.256510417,1,0,0,1.4694,Basalt_rect,9,0,9,0,1,
646774e0f86825ab62c37581,SCN,2024-06-25_11h44.51.736,LearnStrategy,2023.2.3,Win32,60.24096386,9,2,11,,,,,,,,2,12,,,,,,,,,,,4,2.318,0,,,,,,0.385416667,-0.2421875,1,0,0,2.3183,Gabbro_rect,10,0,10,0,1,
646774e0f86825ab62c37581,SCN,2024-06-25_11h44.51.736,LearnStrategy,2023.2.3,Win32,60.24096386,9,2,12,,,,,,,,3,14,,,,,,,,,,,3,2.192,1,,,,,,0.10546875,-0.240885417,1,0,0,2.1922,Diorite_rect,11,0,11,0,1,
646774e0f86825ab62c37581,SCN,2024-06-25_11h44.51.736,LearnStrategy,2023.2.3,Win32,60.24096386,9,2,13,,,,,,,,4,05,,,,,,,,,,,1,2.449,0,,,,,,-0.4453125,-0.255208333,1,0,0,2.4494,Andesite_rect,12,0,12,0,1,
646774e0f86825ab62c37581,SCN,2024-06-25_11h44.51.736,LearnStrategy,2023.2.3,Win32,60.24096386,9,2,14,,,,,,,,1,16,,,,,,,,,,,3,2.839,0,,,,,,0.11328125,-0.25,1,0,0,2.8391,Diorite_rect,13,0,13,0,1,
646774e0f86825ab62c37581,SCN,2024-06-25_11h44.51.736,LearnStrategy,2023.2.3,Win32,60.24096386,9,2,15,,,,,,,,5,16,,,,,,,,,,,5,1.689,1,,,,,,-0.393229167,-0.395833333,1,0,0,1.689,Obsidian_rect,14,0,14,0,1,
646774e0f86825ab62c37581,SCN,2024-06-25_11h44.51.736,LearnStrategy,2023.2.3,Win32,60.24096386,9,2,16,,,,,,,,3,06,,,,,,,,,,,3,3.784,1,,,,,,0.045572917,-0.243489583,1,0,0,3.7836,Diorite_rect,15,0,15,0,1,
646774e0f86825ab62c37581,SCN,2024-06-25_11h44.51.736,LearnStrategy,2023.2.3,Win32,60.24096386,,,,,,,,,,,,,,,,,,,,,,,,,,,,,,,,,,,,,,,,,,,1
646774e0f86825ab62c37581,SCN,2024-06-25_11h44.51.736,LearnStrategy,2023.2.3,Win32,60.24096386,,,,,,,,,,,,,,,,,,,,,,,,,,,,,,,,,,,,,,,,,,,
646774e0f86825ab62c37581,SCN,2024-06-25_11h44.51.736,LearnStrategy,2023.2.3,Win32,60.24096386,,,,,,,,,,,4,13,1,1,,,,,,,,,,,,,,,,,,,,,,,,,,,,,
646774e0f86825ab62c37581,SCN,2024-06-25_11h44.51.736,LearnStrategy,2023.2.3,Win32,60.24096386,,,,,,,,,,,1,03,1,2,,,,,,,,,,,,,,,,,,,,,,,,,,,,,
646774e0f86825ab62c37581,SCN,2024-06-25_11h44.51.736,LearnStrategy,2023.2.3,Win32,60.24096386,,,,,,,,,,,3,07,1,3,,,,,,,,,,,,,,,,,,,,,,,,,,,,,
646774e0f86825ab62c37581,SCN,2024-06-25_11h44.51.736,LearnStrategy,2023.2.3,Win32,60.24096386,,,,,,,,,,,5,04,1,4,,,,,,,,,,,,,,,,,,,,,,,,,,,,,
646774e0f86825ab62c37581,SCN,2024-06-25_11h44.51.736,LearnStrategy,2023.2.3,Win32,60.24096386,,,,,,,,,,,1,14,1,5,,,,,,,,,,,,,,,,,,,,,,,,,,,,,
646774e0f86825ab62c37581,SCN,2024-06-25_11h44.51.736,LearnStrategy,2023.2.3,Win32,60.24096386,,,,,,,,,,,7,06,1,6,,,,,,,,,,,,,,,,,,,,,,,,,,,,,
646774e0f86825ab62c37581,SCN,2024-06-25_11h44.51.736,LearnStrategy,2023.2.3,Win32,60.24096386,,,,,,,,,,,7,04,1,7,,,,,,,,,,,,,,,,,,,,,,,,,,,,,
646774e0f86825ab62c37581,SCN,2024-06-25_11h44.51.736,LearnStrategy,2023.2.3,Win32,60.24096386,,,,,,,,,,,3,02,1,8,,,,,,,,,,,,,,,,,,,,,,,,,,,,,
646774e0f86825ab62c37581,SCN,2024-06-25_11h44.51.736,LearnStrategy,2023.2.3,Win32,60.24096386,,,,,,,,,,,5,06,2,1,,,,,,,,,,,,,,,,,,,,,,,,,,,,,
646774e0f86825ab62c37581,SCN,2024-06-25_11h44.51.736,LearnStrategy,2023.2.3,Win32,60.24096386,,,,,,,,,,,7,14,2,2,,,,,,,,,,,,,,,,,,,,,,,,,,,,,
646774e0f86825ab62c37581,SCN,2024-06-25_11h44.51.736,LearnStrategy,2023.2.3,Win32,60.24096386,,,,,,,,,,,2,02,2,3,,,,,,,,,,,,,,,,,,,,,,,,,,,,,
646774e0f86825ab62c37581,SCN,2024-06-25_11h44.51.736,LearnStrategy,2023.2.3,Win32,60.24096386,,,,,,,,,,,4,08,2,4,,,,,,,,,,,,,,,,,,,,,,,,,,,,,
646774e0f86825ab62c37581,SCN,2024-06-25_11h44.51.736,LearnStrategy,2023.2.3,Win32,60.24096386,,,,,,,,,,,7,05,2,5,,,,,,,,,,,,,,,,,,,,,,,,,,,,,
646774e0f86825ab62c37581,SCN,2024-06-25_11h44.51.736,LearnStrategy,2023.2.3,Win32,60.24096386,,,,,,,,,,,8,10,2,6,,,,,,,,,,,,,,,,,,,,,,,,,,,,,
646774e0f86825ab62c37581,SCN,2024-06-25_11h44.51.736,LearnStrategy,2023.2.3,Win32,60.24096386,,,,,,,,,,,8,14,2,7,,,,,,,,,,,,,,,,,,,,,,,,,,,,,
646774e0f86825ab62c37581,SCN,2024-06-25_11h44.51.736,LearnStrategy,2023.2.3,Win32,60.24096386,,,,,,,,,,,3,16,2,8,,,,,,,,,,,,,,,,,,,,,,,,,,,,,
646774e0f86825ab62c37581,SCN,2024-06-25_11h44.51.736,LearnStrategy,2023.2.3,Win32,60.24096386,,,,,,,,,,,5,10,3,1,,,,,,,,,,,,,,,,,,,,,,,,,,,,,
646774e0f86825ab62c37581,SCN,2024-06-25_11h44.51.736,LearnStrategy,2023.2.3,Win32,60.24096386,,,,,,,,,,,3,15,3,2,,,,,,,,,,,,,,,,,,,,,,,,,,,,,
646774e0f86825ab62c37581,SCN,2024-06-25_11h44.51.736,LearnStrategy,2023.2.3,Win32,60.24096386,,,,,,,,,,,8,16,3,3,,,,,,,,,,,,,,,,,,,,,,,,,,,,,
646774e0f86825ab62c37581,SCN,2024-06-25_11h44.51.736,LearnStrategy,2023.2.3,Win32,60.24096386,,,,,,,,,,,8,06,3,4,,,,,,,,,,,,,,,,,,,,,,,,,,,,,
646774e0f86825ab62c37581,SCN,2024-06-25_11h44.51.736,LearnStrategy,2023.2.3,Win32,60.24096386,,,,,,,,,,,2,05,3,5,,,,,,,,,,,,,,,,,,,,,,,,,,,,,
646774e0f86825ab62c37581,SCN,2024-06-25_11h44.51.736,LearnStrategy,2023.2.3,Win32,60.24096386,,,,,,,,,,,2,01,3,6,,,,,,,,,,,,,,,,,,,,,,,,,,,,,
646774e0f86825ab62c37581,SCN,2024-06-25_11h44.51.736,LearnStrategy,2023.2.3,Win32,60.24096386,,,,,,,,,,,2,08,3,7,,,,,,,,,,,,,,,,,,,,,,,,,,,,,
646774e0f86825ab62c37581,SCN,2024-06-25_11h44.51.736,LearnStrategy,2023.2.3,Win32,60.24096386,,,,,,,,,,,5,02,3,8,,,,,,,,,,,,,,,,,,,,,,,,,,,,,
646774e0f86825ab62c37581,SCN,2024-06-25_11h44.51.736,LearnStrategy,2023.2.3,Win32,60.24096386,,,,,,,,,,,4,12,4,1,,,,,,,,,,,,,,,,,,,,,,,,,,,,,
646774e0f86825ab62c37581,SCN,2024-06-25_11h44.51.736,LearnStrategy,2023.2.3,Win32,60.24096386,,,,,,,,,,,5,09,4,2,,,,,,,,,,,,,,,,,,,,,,,,,,,,,
646774e0f86825ab62c37581,SCN,2024-06-25_11h44.51.736,LearnStrategy,2023.2.3,Win32,60.24096386,,,,,,,,,,,4,01,4,3,,,,,,,,,,,,,,,,,,,,,,,,,,,,,
646774e0f86825ab62c37581,SCN,2024-06-25_11h44.51.736,LearnStrategy,2023.2.3,Win32,60.24096386,,,,,,,,,,,6,09,4,4,,,,,,,,,,,,,,,,,,,,,,,,,,,,,
646774e0f86825ab62c37581,SCN,2024-06-25_11h44.51.736,LearnStrategy,2023.2.3,Win32,60.24096386,,,,,,,,,,,3,08,4,5,,,,,,,,,,,,,,,,,,,,,,,,,,,,,
646774e0f86825ab62c37581,SCN,2024-06-25_11h44.51.736,LearnStrategy,2023.2.3,Win32,60.24096386,,,,,,,,,,,2,14,4,6,,,,,,,,,,,,,,,,,,,,,,,,,,,,,
646774e0f86825ab62c37581,SCN,2024-06-25_11h44.51.736,LearnStrategy,2023.2.3,Win32,60.24096386,,,,,,,,,,,1,05,4,7,,,,,,,,,,,,,,,,,,,,,,,,,,,,,
646774e0f86825ab62c37581,SCN,2024-06-25_11h44.51.736,LearnStrategy,2023.2.3,Win32,60.24096386,,,,,,,,,,,3,09,4,8,,,,,,,,,,,,,,,,,,,,,,,,,,,,,
646774e0f86825ab62c37581,SCN,2024-06-25_11h44.51.736,LearnStrategy,2023.2.3,Win32,60.24096386,,,,,,,,,,,4,09,5,1,,,,,,,,,,,,,,,,,,,,,,,,,,,,,
646774e0f86825ab62c37581,SCN,2024-06-25_11h44.51.736,LearnStrategy,2023.2.3,Win32,60.24096386,,,,,,,,,,,2,11,5,2,,,,,,,,,,,,,,,,,,,,,,,,,,,,,
646774e0f86825ab62c37581,SCN,2024-06-25_11h44.51.736,LearnStrategy,2023.2.3,Win32,60.24096386,,,,,,,,,,,6,08,5,3,,,,,,,,,,,,,,,,,,,,,,,,,,,,,
646774e0f86825ab62c37581,SCN,2024-06-25_11h44.51.736,LearnStrategy,2023.2.3,Win32,60.24096386,,,,,,,,,,,4,15,5,4,,,,,,,,,,,,,,,,,,,,,,,,,,,,,
646774e0f86825ab62c37581,SCN,2024-06-25_11h44.51.736,LearnStrategy,2023.2.3,Win32,60.24096386,,,,,,,,,,,1,06,5,5,,,,,,,,,,,,,,,,,,,,,,,,,,,,,
646774e0f86825ab62c37581,SCN,2024-06-25_11h44.51.736,LearnStrategy,2023.2.3,Win32,60.24096386,,,,,,,,,,,1,11,5,6,,,,,,,,,,,,,,,,,,,,,,,,,,,,,
646774e0f86825ab62c37581,SCN,2024-06-25_11h44.51.736,LearnStrategy,2023.2.3,Win32,60.24096386,,,,,,,,,,,8,13,5,7,,,,,,,,,,,,,,,,,,,,,,,,,,,,,
646774e0f86825ab62c37581,SCN,2024-06-25_11h44.51.736,LearnStrategy,2023.2.3,Win32,60.24096386,,,,,,,,,,,6,15,5,8,,,,,,,,,,,,,,,,,,,,,,,,,,,,,
646774e0f86825ab62c37581,SCN,2024-06-25_11h44.51.736,LearnStrategy,2023.2.3,Win32,60.24096386,,,,,,,,,,,6,05,6,1,,,,,,,,,,,,,,,,,,,,,,,,,,,,,
646774e0f86825ab62c37581,SCN,2024-06-25_11h44.51.736,LearnStrategy,2023.2.3,Win32,60.24096386,,,,,,,,,,,6,07,6,2,,,,,,,,,,,,,,,,,,,,,,,,,,,,,
646774e0f86825ab62c37581,SCN,2024-06-25_11h44.51.736,LearnStrategy,2023.2.3,Win32,60.24096386,,,,,,,,,,,1,10,6,3,,,,,,,,,,,,,,,,,,,,,,,,,,,,,
646774e0f86825ab62c37581,SCN,2024-06-25_11h44.51.736,LearnStrategy,2023.2.3,Win32,60.24096386,,,,,,,,,,,6,11,6,4,,,,,,,,,,,,,,,,,,,,,,,,,,,,,
646774e0f86825ab62c37581,SCN,2024-06-25_11h44.51.736,LearnStrategy,2023.2.3,Win32,60.24096386,,,,,,,,,,,7,10,6,5,,,,,,,,,,,,,,,,,,,,,,,,,,,,,
646774e0f86825ab62c37581,SCN,2024-06-25_11h44.51.736,LearnStrategy,2023.2.3,Win32,60.24096386,,,,,,,,,,,5,07,6,6,,,,,,,,,,,,,,,,,,,,,,,,,,,,,
646774e0f86825ab62c37581,SCN,2024-06-25_11h44.51.736,LearnStrategy,2023.2.3,Win32,60.24096386,,,,,,,,,,,8,08,6,7,,,,,,,,,,,,,,,,,,,,,,,,,,,,,
646774e0f86825ab62c37581,SCN,2024-06-25_11h44.51.736,LearnStrategy,2023.2.3,Win32,60.24096386,,,,,,,,,,,7,02,6,8,,,,,,,,,,,,,,,,,,,,,,,,,,,,,