participant,condition,date,expName,psychopyVersion,OS,frameRate,block,phase,trial,learn_mouse.x,learn_mouse.y,learn_mouse.leftButton,learn_mouse.midButton,learn_mouse.rightButton,learn_mouse.time,learn_mouse.clicked_name,cat,token,row,col,t_select,cat_rec,token_rec,cat_mouse_l.x,cat_mouse_l.y,cat_mouse_l.leftButton,cat_mouse_l.midButton,cat_mouse_l.rightButton,cat_mouse_l.time,cat_mouse_l.clicked_name,resp,t_resp,corr,train_trials.thisRepN,train_trials.thisTrialN,train_trials.thisN,train_trials.thisIndex,train_trials.ran,cat_mouse_t.x,cat_mouse_t.y,cat_mouse_t.leftButton,cat_mouse_t.midButton,cat_mouse_t.rightButton,cat_mouse_t.time,cat_mouse_t.clicked_name,test_trials.thisRepN,test_trials.thisTrialN,test_trials.thisN,test_trials.thisIndex,test_trials.ran,Bonus
6474a3bea5c73f10d2742769,SCR,2024-06-21_12h46.47.922,LearnStrategy,2023.2.3,Win32,30.03003003,,,,,,,,,,,,,,,,,,,,,,,,,,,,,,,,,,,,,,,,,,,,,
6474a3bea5c73f10d2742769,SCR,2024-06-21_12h46.47.922,LearnStrategy,2023.2.3,Win32,30.03003003,1,1,1,0.410833333,-0.250833333,1,0,0,4.1112,Pumice_14,8,14,2,7,4.111,8,14,-0.113333333,-0.249166667,1,0,0,4.4684,Basalt_rect,2,4.468,0,0,0,0,0,1,,,,,,,,,,,,,
6474a3bea5c73f10d2742769,SCR,2024-06-21_12h46.47.922,LearnStrategy,2023.2.3,Win32,30.03003003,1,1,2,0.046666667,-0.124166667,1,0,0,2.0012,Pumice_15,8,15,3,5,2.001,8,05,0.3625,-0.396666667,1,0,0,2.5895,Pumice_rect,8,2.59,1,1,0,1,0,1,,,,,,,,,,,,,
6474a3bea5c73f10d2742769,SCR,2024-06-21_12h46.47.922,LearnStrategy,2023.2.3,Win32,30.03003003,1,1,3,-0.374166667,-0.074166667,1,0,0,2.8015,Diorite_02,3,02,3,2,2.802,3,02,-0.373333333,-0.395833333,1,0,0,2.9775,Obsidian_rect,5,2.977,0,2,0,2,0,1,,,,,,,,,,,,,
6474a3bea5c73f10d2742769,SCR,2024-06-21_12h46.47.922,LearnStrategy,2023.2.3,Win32,30.03003003,1,1,4,0.250833333,-0.429166667,1,0,0,4.0407,Diorite_11,3,11,1,6,4.041,5,06,0.166666667,-0.229166667,1,0,0,1.7108,Diorite_rect,3,1.711,1,3,0,3,0,1,,,,,,,,,,,,,
6474a3bea5c73f10d2742769,SCR,2024-06-21_12h46.47.922,LearnStrategy,2023.2.3,Win32,30.03003003,1,1,5,0.545,-0.414166667,1,0,0,1.4327,Peridotite_13,7,13,1,8,1.433,3,06,0.125833333,-0.256666667,1,0,0,1.3225,Diorite_rect,3,1.323,0,4,0,4,0,1,,,,,,,,,,,,,
6474a3bea5c73f10d2742769,SCR,2024-06-21_12h46.47.922,LearnStrategy,2023.2.3,Win32,30.03003003,1,1,6,-0.4075,-0.261666667,1,0,0,2.7337,Peridotite_10,7,10,2,2,2.734,2,14,-0.4075,-0.261666667,1,0,0,0.2526,Andesite_rect,1,0.253,0,5,0,5,0,1,,,,,,,,,,,,,
6474a3bea5c73f10d2742769,SCR,2024-06-21_12h46.47.922,LearnStrategy,2023.2.3,Win32,30.03003003,1,1,7,-0.066666667,-0.416666667,1,0,0,2.3029,Pegmatite_08,6,08,1,4,2.303,6,08,-0.0675,-0.408333333,1,0,0,2.2907,Pegmatite_rect,6,2.291,1,6,0,6,0,1,,,,,,,,,,,,,
6474a3bea5c73f10d2742769,SCR,2024-06-21_12h46.47.922,LearnStrategy,2023.2.3,Win32,30.03003003,1,1,8,-0.543333333,0.419166667,1,0,0,5.8086,Pumice_05,8,05,6,1,5.809,4,11,0.383333333,-0.400833333,1,0,0,2.7421,Pumice_rect,8,2.742,1,7,0,7,0,1,,,,,,,,,,,,,
6474a3bea5c73f10d2742769,SCR,2024-06-21_12h46.47.922,LearnStrategy,2023.2.3,Win32,30.03003003,1,1,9,0.373333333,0.085833333,1,0,0,2.0009,Pegmatite_11,6,11,4,7,2.001,7,13,0.098333333,-0.239166667,1,0,0,1.8569,Diorite_rect,3,1.857,0,8,0,8,0,1,,,,,,,,,,,,,
6474a3bea5c73f10d2742769,SCR,2024-06-21_12h46.47.922,LearnStrategy,2023.2.3,Win32,30.03003003,1,1,10,-0.073333333,-0.423333333,1,0,0,2.7392,Pegmatite_08,6,08,1,4,2.739,6,12,-0.0725,-0.421666667,1,0,0,1.0855,Pegmatite_rect,6,1.086,1,9,0,9,0,1,,,,,,,,,,,,,
6474a3bea5c73f10d2742769,SCR,2024-06-21_12h46.47.922,LearnStrategy,2023.2.3,Win32,30.03003003,1,1,11,-0.0625,0.0875,1,0,0,1.6328,Obsidian_02,5,02,4,4,1.633,7,07,-0.391666667,-0.410833333,1,0,0,2.5256,Obsidian_rect,5,2.526,1,10,0,10,0,1,,,,,,,,,,,,,
6474a3bea5c73f10d2742769,SCR,2024-06-21_12h46.47.922,LearnStrategy,2023.2.3,Win32,30.03003003,1,1,12,-0.210833333,-0.115,1,0,0,1.2997,Obsidian_11,5,11,3,3,1.3,2,10,-0.3575,-0.389166667,1,0,0,1.6576,Obsidian_rect,5,1.658,1,11,0,11,0,1,,,,,,,,,,,,,
6474a3bea5c73f10d2742769,SCR,2024-06-21_12h46.47.922,LearnStrategy,2023.2.3,Win32,30.03003003,1,1,13,-0.115833333,-0.240833333,1,0,0,1.2994,Andesite_03,1,03,2,4,1.299,1,03,-0.125,-0.246666667,1,0,0,2.2255,Basalt_rect,2,2.226,0,12,0,12,0,1,,,,,,,,,,,,,
6474a3bea5c73f10d2742769,SCR,2024-06-21_12h46.47.922,LearnStrategy,2023.2.3,Win32,30.03003003,1,1,14,-0.555833333,-0.089166667,1,0,0,3.8057,Gabbro_10,4,10,3,1,3.806,4,10,0.373333333,-0.240833333,1,0,0,3.5831,Gabbro_rect,4,3.583,1,13,0,13,0,1,,,,,,,,,,,,,
6474a3bea5c73f10d2742769,SCR,2024-06-21_12h46.47.922,LearnStrategy,2023.2.3,Win32,30.03003003,1,1,15,0.065833333,0.066666667,1,0,0,2.8709,Obsidian_09,5,09,4,5,2.871,5,09,-0.371666667,-0.388333333,1,0,0,1.6543,Obsidian_rect,5,1.654,1,14,0,14,0,1,,,,,,,,,,,,,
6474a3bea5c73f10d2742769,SCR,2024-06-21_12h46.47.922,LearnStrategy,2023.2.3,Win32,30.03003003,1,1,16,0.245833333,0.275833333,1,0,0,2.7357,Andesite_11,1,11,5,6,2.736,1,11,-0.365833333,-0.256666667,1,0,0,4.5972,Andesite_rect,1,4.597,1,15,0,15,0,1,,,,,,,,,,,,,
6474a3bea5c73f10d2742769,SCR,2024-06-21_12h46.47.922,LearnStrategy,2023.2.3,Win32,30.03003003,1,2,1,,,,,,,,7,14,,,,,,,,,,,,,4,4.063,0,,,,,,0.410833333,-0.259166667,1,0,0,4.0633,Gabbro_rect,0,0,0,0,1,
6474a3bea5c73f10d2742769,SCR,2024-06-21_12h46.47.922,LearnStrategy,2023.2.3,Win32,30.03003003,1,2,2,,,,,,,,1,14,,,,,,,,,,,,,1,3.211,1,,,,,,-0.379166667,-0.243333333,1,0,0,3.2107,Andesite_rect,1,0,1,0,1,
6474a3bea5c73f10d2742769,SCR,2024-06-21_12h46.47.922,LearnStrategy,2023.2.3,Win32,30.03003003,1,2,3,,,,,,,,2,08,,,,,,,,,,,,,6,3.661,0,,,,,,-0.1575,-0.416666667,1,0,0,3.6613,Pegmatite_rect,2,0,2,0,1,
6474a3bea5c73f10d2742769,SCR,2024-06-21_12h46.47.922,LearnStrategy,2023.2.3,Win32,30.03003003,1,2,4,,,,,,,,5,12,,,,,,,,,,,,,5,1.619,1,,,,,,-0.354166667,-0.4025,1,0,0,1.6187,Obsidian_rect,3,0,3,0,1,
6474a3bea5c73f10d2742769,SCR,2024-06-21_12h46.47.922,LearnStrategy,2023.2.3,Win32,30.03003003,1,2,5,,,,,,,,3,13,,,,,,,,,,,,,6,3.415,0,,,,,,-0.125,-0.4,1,0,0,3.415,Pegmatite_rect,4,0,4,0,1,
6474a3bea5c73f10d2742769,SCR,2024-06-21_12h46.47.922,LearnStrategy,2023.2.3,Win32,30.03003003,1,2,6,,,,,,,,8,13,,,,,,,,,,,,,8,1.958,1,,,,,,0.359166667,-0.398333333,1,0,0,1.9578,Pumice_rect,5,0,5,0,1,
6474a3bea5c73f10d2742769,SCR,2024-06-21_12h46.47.922,LearnStrategy,2023.2.3,Win32,30.03003003,1,2,7,,,,,,,,7,16,,,,,,,,,,,,,1,4.85,0,,,,,,-0.361666667,-0.238333333,1,0,0,4.8504,Andesite_rect,6,0,6,0,1,
6474a3bea5c73f10d2742769,SCR,2024-06-21_12h46.47.922,LearnStrategy,2023.2.3,Win32,30.03003003,1,2,8,,,,,,,,6,06,,,,,,,,,,,,,6,3.722,1,,,,,,-0.103333333,-0.391666667,1,0,0,3.7218,Pegmatite_rect,7,0,7,0,1,
6474a3bea5c73f10d2742769,SCR,2024-06-21_12h46.47.922,LearnStrategy,2023.2.3,Win32,30.03003003,1,2,9,,,,,,,,4,16,,,,,,,,,,,,,3,3.851,0,,,,,,0.115,-0.26,1,0,0,3.8505,Diorite_rect,8,0,8,0,1,
6474a3bea5c73f10d2742769,SCR,2024-06-21_12h46.47.922,LearnStrategy,2023.2.3,Win32,30.03003003,1,2,10,,,,,,,,6,05,,,,,,,,,,,,,6,2.877,1,,,,,,-0.19,-0.403333333,1,0,0,2.8774,Pegmatite_rect,9,0,9,0,1,
6474a3bea5c73f10d2742769,SCR,2024-06-21_12h46.47.922,LearnStrategy,2023.2.3,Win32,30.03003003,1,2,11,,,,,,,,1,06,,,,,,,,,,,,,4,2.533,0,,,,,,0.431666667,-0.248333333,1,0,0,2.5327,Gabbro_rect,10,0,10,0,1,
6474a3bea5c73f10d2742769,SCR,2024-06-21_12h46.47.922,LearnStrategy,2023.2.3,Win32,30.03003003,1,2,12,,,,,,,,4,05,,,,,,,,,,,,,1,1.71,0,,,,,,-0.44,-0.234166667,1,0,0,1.7096,Andesite_rect,11,0,11,0,1,
6474a3bea5c73f10d2742769,SCR,2024-06-21_12h46.47.922,LearnStrategy,2023.2.3,Win32,30.03003003,1,2,13,,,,,,,,8,09,,,,,,,,,,,,,8,1.424,1,,,,,,0.373333333,-0.389166667,1,0,0,1.4238,Pumice_rect,12,0,12,0,1,
6474a3bea5c73f10d2742769,SCR,2024-06-21_12h46.47.922,LearnStrategy,2023.2.3,Win32,30.03003003,1,2,14,,,,,,,,3,12,,,,,,,,,,,,,6,2.861,0,,,,,,-0.084166667,-0.391666667,1,0,0,2.8605,Pegmatite_rect,13,0,13,0,1,
6474a3bea5c73f10d2742769,SCR,2024-06-21_12h46.47.922,LearnStrategy,2023.2.3,Win32,30.03003003,1,2,15,,,,,,,,5,07,,,,,,,,,,,,,7,3.447,0,,,,,,0.135833333,-0.408333333,1,0,0,3.4468,Peridotite_rect,14,0,14,0,1,
6474a3bea5c73f10d2742769,SCR,2024-06-21_12h46.47.922,LearnStrategy,2023.2.3,Win32,30.03003003,1,2,16,,,,,,,,2,16,,,,,,,,,,,,,2,3.95,1,,,,,,-0.113333333,-0.263333333,1,0,0,3.9497,Basalt_rect,15,0,15,0,1,
6474a3bea5c73f10d2742769,SCR,2024-06-21_12h46.47.922,LearnStrategy,2023.2.3,Win32,30.03003003,2,1,1,-0.423333333,-0.388333333,1,0,0,2.2716,Basalt_10,2,10,1,2,2.272,2,10,0.153333333,-0.253333333,1,0,0,3.2476,Diorite_rect,3,3.248,0,0,0,0,0,1,,,,,,,,,,,,,
6474a3bea5c73f10d2742769,SCR,2024-06-21_12h46.47.922,LearnStrategy,2023.2.3,Win32,30.03003003,2,1,2,-0.051666667,-0.413333333,1,0,0,3.1042,Pegmatite_08,6,08,1,4,3.104,4,11,-0.0625,-0.395833333,1,0,0,1.4227,Pegmatite_rect,6,1.423,1,1,0,1,0,1,,,,,,,,,,,,,
6474a3bea5c73f10d2742769,SCR,2024-06-21_12h46.47.922,LearnStrategy,2023.2.3,Win32,30.03003003,2,1,3,0.569166667,0.216666667,1,0,0,3.3058,Obsidian_06,5,06,5,8,3.306,4,10,-0.326666667,-0.4125,1,0,0,2.2791,Obsidian_rect,5,2.279,1,2,0,2,0,1,,,,,,,,,,,,,
6474a3bea5c73f10d2742769,SCR,2024-06-21_12h46.47.922,LearnStrategy,2023.2.3,Win32,30.03003003,2,1,4,-0.408333333,-0.083333333,1,0,0,2.6358,Diorite_02,3,02,3,2,2.636,5,08,0.215833333,-0.421666667,1,0,0,2.3258,Peridotite_rect,7,2.326,0,3,0,3,0,1,,,,,,,,,,,,,
6474a3bea5c73f10d2742769,SCR,2024-06-21_12h46.47.922,LearnStrategy,2023.2.3,Win32,30.03003003,2,1,5,0.241666667,-0.2925,1,0,0,1.566,Diorite_06,3,06,2,6,1.566,7,12,0.179166667,-0.25,1,0,0,1.3898,Diorite_rect,3,1.39,1,4,0,4,0,1,,,,,,,,,,,,,
6474a3bea5c73f10d2742769,SCR,2024-06-21_12h46.47.922,LearnStrategy,2023.2.3,Win32,30.03003003,2,1,6,-0.23,-0.3875,1,0,0,1.7007,Obsidian_05,5,05,1,3,1.701,2,05,-0.328333333,-0.3925,1,0,0,1.5189,Obsidian_rect,5,1.519,1,5,0,5,0,1,,,,,,,,,,,,,
6474a3bea5c73f10d2742769,SCR,2024-06-21_12h46.47.922,LearnStrategy,2023.2.3,Win32,30.03003003,2,1,7,0.229166667,0.275833333,1,0,0,2.7371,Andesite_11,1,11,5,6,2.737,1,03,-0.071666667,-0.239166667,1,0,0,1.5718,Basalt_rect,2,1.572,0,6,0,6,0,1,,,,,,,,,,,,,
6474a3bea5c73f10d2742769,SCR,2024-06-21_12h46.47.922,LearnStrategy,2023.2.3,Win32,30.03003003,2,1,8,0.5175,-0.106666667,1,0,0,4.2398,Diorite_10,3,10,3,8,4.24,3,02,0.361666667,-0.248333333,1,0,0,2.7938,Gabbro_rect,4,2.794,0,7,0,7,0,1,,,,,,,,,,,,,
6474a3bea5c73f10d2742769,SCR,2024-06-21_12h46.47.922,LearnStrategy,2023.2.3,Win32,30.03003003,2,1,9,0.2075,0.293333333,1,0,0,1.3675,Andesite_11,1,11,5,6,1.368,3,06,-0.0775,-0.261666667,1,0,0,1.989,Basalt_rect,2,1.989,0,8,0,8,0,1,,,,,,,,,,,,,
6474a3bea5c73f10d2742769,SCR,2024-06-21_12h46.47.922,LearnStrategy,2023.2.3,Win32,30.03003003,2,1,10,-0.2125,0.261666667,1,0,0,1.3004,Peridotite_07,7,07,5,3,1.3,1,03,-0.081666667,-0.255833333,1,0,0,4.6637,Basalt_rect,2,4.664,0,9,0,9,0,1,,,,,,,,,,,,,
6474a3bea5c73f10d2742769,SCR,2024-06-21_12h46.47.922,LearnStrategy,2023.2.3,Win32,30.03003003,2,1,11,0.521666667,-0.398333333,1,0,0,1.3969,Peridotite_13,7,13,1,8,1.397,5,11,0.126666667,-0.385,1,0,0,1.6243,Peridotite_rect,7,1.624,1,10,0,10,0,1,,,,,,,,,,,,,
6474a3bea5c73f10d2742769,SCR,2024-06-21_12h46.47.922,LearnStrategy,2023.2.3,Win32,30.03003003,2,1,12,-0.369166667,0.251666667,1,0,0,2.1015,Gabbro_15,4,15,5,2,2.101,4,10,-0.3225,-0.251666667,1,0,0,3.7961,Andesite_rect,1,3.796,0,11,0,11,0,1,,,,,,,,,,,,,
6474a3bea5c73f10d2742769,SCR,2024-06-21_12h46.47.922,LearnStrategy,2023.2.3,Win32,30.03003003,2,1,13,0.535,0.416666667,1,0,0,3.8041,Andesite_05,1,05,6,8,3.804,7,13,0.135833333,-0.254166667,1,0,0,3.044,Diorite_rect,3,3.044,0,12,0,12,0,1,,,,,,,,,,,,,
6474a3bea5c73f10d2742769,SCR,2024-06-21_12h46.47.922,LearnStrategy,2023.2.3,Win32,30.03003003,2,1,14,0.383333333,0.41,1,0,0,1.8,Pegmatite_09,6,09,6,7,1.8,6,09,0.23,-0.414166667,1,0,0,2.8939,Peridotite_rect,7,2.894,0,13,0,13,0,1,,,,,,,,,,,,,
6474a3bea5c73f10d2742769,SCR,2024-06-21_12h46.47.922,LearnStrategy,2023.2.3,Win32,30.03003003,2,1,15,-0.405833333,-0.084166667,1,0,0,1.3669,Diorite_02,3,02,3,2,1.367,7,12,0.18,-0.25,1,0,0,2.1916,Diorite_rect,3,2.192,1,14,0,14,0,1,,,,,,,,,,,,,
6474a3bea5c73f10d2742769,SCR,2024-06-21_12h46.47.922,LearnStrategy,2023.2.3,Win32,30.03003003,2,1,16,-0.56,0.2575,1,0,0,3.5723,Gabbro_12,4,12,5,1,3.572,3,02,-0.378333333,-0.239166667,1,0,0,4.0809,Andesite_rect,1,4.081,0,15,0,15,0,1,,,,,,,,,,,,,
6474a3bea5c73f10d2742769,SCR,2024-06-21_12h46.47.922,LearnStrategy,2023.2.3,Win32,30.03003003,2,2,1,,,,,,,,6,03,,,,,,,,,,,,,7,3.829,0,,,,,,0.103333333,-0.401666667,1,0,0,3.8286,Peridotite_rect,0,0,0,0,1,
6474a3bea5c73f10d2742769,SCR,2024-06-21_12h46.47.922,LearnStrategy,2023.2.3,Win32,30.03003003,2,2,2,,,,,,,,2,11,,,,,,,,,,,,,8,3.247,0,,,,,,0.345833333,-0.3975,1,0,0,3.2475,Pumice_rect,1,0,1,0,1,
6474a3bea5c73f10d2742769,SCR,2024-06-21_12h46.47.922,LearnStrategy,2023.2.3,Win32,30.03003003,2,2,3,,,,,,,,6,16,,,,,,,,,,,,,3,2.142,0,,,,,,0.159166667,-0.27,1,0,0,2.1421,Diorite_rect,2,0,2,0,1,
6474a3bea5c73f10d2742769,SCR,2024-06-21_12h46.47.922,LearnStrategy,2023.2.3,Win32,30.03003003,2,2,4,,,,,,,,3,15,,,,,,,,,,,,,3,2.092,1,,,,,,0.166666667,-0.26,1,0,0,2.0924,Diorite_rect,3,0,3,0,1,
6474a3bea5c73f10d2742769,SCR,2024-06-21_12h46.47.922,LearnStrategy,2023.2.3,Win32,30.03003003,2,2,5,,,,,,,,1,07,,,,,,,,,,,,,1,5.8,1,,,,,,-0.355,-0.24,1,0,0,5.8001,Andesite_rect,4,0,4,0,1,
6474a3bea5c73f10d2742769,SCR,2024-06-21_12h46.47.922,LearnStrategy,2023.2.3,Win32,30.03003003,2,2,6,,,,,,,,3,16,,,,,,,,,,,,,3,2.278,1,,,,,,0.054166667,-0.248333333,1,0,0,2.2784,Diorite_rect,5,0,5,0,1,
6474a3bea5c73f10d2742769,SCR,2024-06-21_12h46.47.922,LearnStrategy,2023.2.3,Win32,30.03003003,2,2,7,,,,,,,,7,06,,,,,,,,,,,,,7,2.749,1,,,,,,0.159166667,-0.380833333,1,0,0,2.7486,Peridotite_rect,6,0,6,0,1,
6474a3bea5c73f10d2742769,SCR,2024-06-21_12h46.47.922,LearnStrategy,2023.2.3,Win32,30.03003003,2,2,8,,,,,,,,1,10,,,,,,,,,,,,,6,2.029,0,,,,,,-0.069166667,-0.386666667,1,0,0,2.0286,Pegmatite_rect,7,0,7,0,1,
6474a3bea5c73f10d2742769,SCR,2024-06-21_12h46.47.922,LearnStrategy,2023.2.3,Win32,30.03003003,2,2,9,,,,,,,,4,09,,,,,,,,,,,,,5,4.047,0,,,,,,-0.36,-0.384166667,1,0,0,4.0469,Obsidian_rect,8,0,8,0,1,
6474a3bea5c73f10d2742769,SCR,2024-06-21_12h46.47.922,LearnStrategy,2023.2.3,Win32,30.03003003,2,2,10,,,,,,,,5,14,,,,,,,,,,,,,5,1.777,1,,,,,,-0.345833333,-0.414166667,1,0,0,1.7766,Obsidian_rect,9,0,9,0,1,
6474a3bea5c73f10d2742769,SCR,2024-06-21_12h46.47.922,LearnStrategy,2023.2.3,Win32,30.03003003,2,2,11,,,,,,,,7,04,,,,,,,,,,,,,7,2.694,1,,,,,,0.1025,-0.4075,1,0,0,2.694,Peridotite_rect,10,0,10,0,1,
6474a3bea5c73f10d2742769,SCR,2024-06-21_12h46.47.922,LearnStrategy,2023.2.3,Win32,30.03003003,2,2,12,,,,,,,,5,04,,,,,,,,,,,,,5,1.31,1,,,,,,-0.390833333,-0.396666667,1,0,0,1.3103,Obsidian_rect,11,0,11,0,1,
6474a3bea5c73f10d2742769,SCR,2024-06-21_12h46.47.922,LearnStrategy,2023.2.3,Win32,30.03003003,2,2,13,,,,,,,,8,03,,,,,,,,,,,,,8,1.627,1,,,,,,0.344166667,-0.388333333,1,0,0,1.6267,Pumice_rect,12,0,12,0,1,
6474a3bea5c73f10d2742769,SCR,2024-06-21_12h46.47.922,LearnStrategy,2023.2.3,Win32,30.03003003,2,2,14,,,,,,,,2,02,,,,,,,,,,,,,2,4.463,1,,,,,,-0.1425,-0.2325,1,0,0,4.4632,Basalt_rect,13,0,13,0,1,
6474a3bea5c73f10d2742769,SCR,2024-06-21_12h46.47.922,LearnStrategy,2023.2.3,Win32,30.03003003,2,2,15,,,,,,,,4,08,,,,,,,,,,,,,1,3.949,0,,,,,,-0.356666667,-0.245,1,0,0,3.9491,Andesite_rect,14,0,14,0,1,
6474a3bea5c73f10d2742769,SCR,2024-06-21_12h46.47.922,LearnStrategy,2023.2.3,Win32,30.03003003,2,2,16,,,,,,,,8,04,,,,,,,,,,,,,8,1.409,1,,,,,,0.375833333,-0.385833333,1,0,0,1.4088,Pumice_rect,15,0,15,0,1,
6474a3bea5c73f10d2742769,SCR,2024-06-21_12h46.47.922,LearnStrategy,2023.2.3,Win32,30.03003003,3,1,1,-0.379166667,-0.079166667,1,0,0,2.9706,Diorite_02,3,02,3,2,2.971,2,14,0.124166667,-0.246666667,1,0,0,1.6235,Diorite_rect,3,1.623,1,0,0,0,0,1,,,,,,,,,,,,,
6474a3bea5c73f10d2742769,SCR,2024-06-21_12h46.47.922,LearnStrategy,2023.2.3,Win32,30.03003003,3,1,2,0.1,-0.2475,1,0,0,1.2673,Gabbro_01,4,01,2,5,1.267,4,12,-0.345,-0.251666667,1,0,0,1.8242,Andesite_rect,1,1.824,0,1,0,1,0,1,,,,,,,,,,,,,
6474a3bea5c73f10d2742769,SCR,2024-06-21_12h46.47.922,LearnStrategy,2023.2.3,Win32,30.03003003,3,1,3,0.428333333,0.074166667,1,0,0,2.0017,Pegmatite_11,6,11,4,7,2.002,6,11,0.374166667,-0.245,1,0,0,3.6635,Gabbro_rect,4,3.663,0,2,0,2,0,1,,,,,,,,,,,,,
6474a3bea5c73f10d2742769,SCR,2024-06-21_12h46.47.922,LearnStrategy,2023.2.3,Win32,30.03003003,3,1,4,0.550833333,0.286666667,1,0,0,2.3004,Obsidian_06,5,06,5,8,2.3,4,01,-0.445,-0.3975,1,0,0,1.3949,Obsidian_rect,5,1.395,1,3,0,3,0,1,,,,,,,,,,,,,
6474a3bea5c73f10d2742769,SCR,2024-06-21_12h46.47.922,LearnStrategy,2023.2.3,Win32,30.03003003,3,1,5,-0.091666667,-0.249166667,1,0,0,2.4375,Andesite_03,1,03,2,4,2.438,1,03,0.415,-0.260833333,1,0,0,4.1955,Gabbro_rect,4,4.195,0,4,0,4,0,1,,,,,,,,,,,,,
6474a3bea5c73f10d2742769,SCR,2024-06-21_12h46.47.922,LearnStrategy,2023.2.3,Win32,30.03003003,3,1,6,-0.3875,-0.265833333,1,0,0,1.7679,Peridotite_10,7,10,2,2,1.768,6,11,0.1625,-0.389166667,1,0,0,1.9257,Peridotite_rect,7,1.926,1,5,0,5,0,1,,,,,,,,,,,,,
6474a3bea5c73f10d2742769,SCR,2024-06-21_12h46.47.922,LearnStrategy,2023.2.3,Win32,30.03003003,3,1,7,-0.576666667,-0.384166667,1,0,0,1.7019,Gabbro_13,4,13,1,1,1.702,2,05,-0.433333333,-0.2625,1,0,0,2.158,Andesite_rect,1,2.158,0,6,0,6,0,1,,,,,,,,,,,,,
6474a3bea5c73f10d2742769,SCR,2024-06-21_12h46.47.922,LearnStrategy,2023.2.3,Win32,30.03003003,3,1,8,-0.375,0.391666667,1,0,0,2.6024,Basalt_01,2,01,6,2,2.602,3,10,-0.0825,-0.269166667,1,0,0,5.3651,Basalt_rect,2,5.365,1,7,0,7,0,1,,,,,,,,,,,,,
6474a3bea5c73f10d2742769,SCR,2024-06-21_12h46.47.922,LearnStrategy,2023.2.3,Win32,30.03003003,3,1,9,0.2075,0.379166667,1,0,0,1.9024,Pegmatite_15,6,15,6,6,1.902,4,10,-0.104166667,-0.388333333,1,0,0,2.2918,Pegmatite_rect,6,2.292,1,8,0,8,0,1,,,,,,,,,,,,,
6474a3bea5c73f10d2742769,SCR,2024-06-21_12h46.47.922,LearnStrategy,2023.2.3,Win32,30.03003003,3,1,10,0.365,0.444166667,1,0,0,1.3661,Pegmatite_09,6,09,6,7,1.366,5,06,0.1375,-0.401666667,1,0,0,2.4256,Peridotite_rect,7,2.426,0,9,0,9,0,1,,,,,,,,,,,,,
6474a3bea5c73f10d2742769,SCR,2024-06-21_12h46.47.922,LearnStrategy,2023.2.3,Win32,30.03003003,3,1,11,-0.36,0.2325,1,0,0,1.7011,Gabbro_15,4,15,5,2,1.701,4,13,-0.334166667,-0.265,1,0,0,1.6244,Andesite_rect,1,1.624,0,10,0,10,0,1,,,,,,,,,,,,,
6474a3bea5c73f10d2742769,SCR,2024-06-21_12h46.47.922,LearnStrategy,2023.2.3,Win32,30.03003003,3,1,12,-0.375,-0.4325,1,0,0,3.7399,Basalt_10,2,10,1,2,3.74,3,02,-0.1475,-0.263333333,1,0,0,2.3144,Basalt_rect,2,2.314,1,11,0,11,0,1,,,,,,,,,,,,,
6474a3bea5c73f10d2742769,SCR,2024-06-21_12h46.47.922,LearnStrategy,2023.2.3,Win32,30.03003003,3,1,13,0.088333333,0.235833333,1,0,0,3.6063,Basalt_06,2,06,5,5,3.606,1,03,-0.346666667,-0.250833333,1,0,0,3.1476,Andesite_rect,1,3.148,0,12,0,12,0,1,,,,,,,,,,,,,
6474a3bea5c73f10d2742769,SCR,2024-06-21_12h46.47.922,LearnStrategy,2023.2.3,Win32,30.03003003,3,1,14,-0.350833333,-0.095833333,1,0,0,1.8675,Diorite_02,3,02,3,2,1.867,7,10,-0.351666667,-0.249166667,1,0,0,1.8912,Andesite_rect,1,1.891,0,13,0,13,0,1,,,,,,,,,,,,,
6474a3bea5c73f10d2742769,SCR,2024-06-21_12h46.47.922,LearnStrategy,2023.2.3,Win32,30.03003003,3,1,15,-0.375833333,0.101666667,1,0,0,2.3357,Peridotite_02,7,02,4,2,2.336,6,08,0.175833333,-0.385,1,0,0,1.1959,Peridotite_rect,7,1.196,1,14,0,14,0,1,,,,,,,,,,,,,
6474a3bea5c73f10d2742769,SCR,2024-06-21_12h46.47.922,LearnStrategy,2023.2.3,Win32,30.03003003,3,1,16,0.365833333,0.255,1,0,0,2.0678,Pumice_08,8,08,5,7,2.068,7,12,0.345833333,-0.399166667,1,0,0,1.2893,Pumice_rect,8,1.289,1,15,0,15,0,1,,,,,,,,,,,,,
6474a3bea5c73f10d2742769,SCR,2024-06-21_12h46.47.922,LearnStrategy,2023.2.3,Win32,30.03003003,3,2,1,,,,,,,,5,16,,,,,,,,,,,,,5,1.591,1,,,,,,-0.3825,-0.4075,1,0,0,1.5906,Obsidian_rect,0,0,0,0,1,
6474a3bea5c73f10d2742769,SCR,2024-06-21_12h46.47.922,LearnStrategy,2023.2.3,Win32,30.03003003,3,2,2,,,,,,,,8,06,,,,,,,,,,,,,8,1.356,1,,,,,,0.4425,-0.4075,1,0,0,1.3565,Pumice_rect,1,0,1,0,1,
6474a3bea5c73f10d2742769,SCR,2024-06-21_12h46.47.922,LearnStrategy,2023.2.3,Win32,30.03003003,3,2,3,,,,,,,,2,04,,,,,,,,,,,,,2,1.959,1,,,,,,-0.111666667,-0.25,1,0,0,1.9594,Basalt_rect,2,0,2,0,1,
6474a3bea5c73f10d2742769,SCR,2024-06-21_12h46.47.922,LearnStrategy,2023.2.3,Win32,30.03003003,3,2,4,,,,,,,,1,09,,,,,,,,,,,,,1,3.029,1,,,,,,-0.3325,-0.241666667,1,0,0,3.0291,Andesite_rect,3,0,3,0,1,
6474a3bea5c73f10d2742769,SCR,2024-06-21_12h46.47.922,LearnStrategy,2023.2.3,Win32,30.03003003,3,2,5,,,,,,,,5,10,,,,,,,,,,,,,5,1.345,1,,,,,,-0.375,-0.388333333,1,0,0,1.3448,Obsidian_rect,4,0,4,0,1,
6474a3bea5c73f10d2742769,SCR,2024-06-21_12h46.47.922,LearnStrategy,2023.2.3,Win32,30.03003003,3,2,6,,,,,,,,6,10,,,,,,,,,,,,,7,1.457,0,,,,,,0.073333333,-0.4,1,0,0,1.4573,Peridotite_rect,5,0,5,0,1,
6474a3bea5c73f10d2742769,SCR,2024-06-21_12h46.47.922,LearnStrategy,2023.2.3,Win32,30.03003003,3,2,7,,,,,,,,7,15,,,,,,,,,,,,,4,4.865,0,,,,,,0.3975,-0.2675,1,0,0,4.8655,Gabbro_rect,6,0,6,0,1,
6474a3bea5c73f10d2742769,SCR,2024-06-21_12h46.47.922,LearnStrategy,2023.2.3,Win32,30.03003003,3,2,8,,,,,,,,7,05,,,,,,,,,,,,,6,6.489,0,,,,,,-0.1925,-0.395,1,0,0,6.4891,Pegmatite_rect,7,0,7,0,1,
6474a3bea5c73f10d2742769,SCR,2024-06-21_12h46.47.922,LearnStrategy,2023.2.3,Win32,30.03003003,3,2,9,,,,,,,,2,12,,,,,,,,,,,,,2,2.811,1,,,,,,-0.108333333,-0.259166667,1,0,0,2.8108,Basalt_rect,8,0,8,0,1,
6474a3bea5c73f10d2742769,SCR,2024-06-21_12h46.47.922,LearnStrategy,2023.2.3,Win32,30.03003003,3,2,10,,,,,,,,4,14,,,,,,,,,,,,,1,2.009,0,,,,,,-0.323333333,-0.244166667,1,0,0,2.009,Andesite_rect,9,0,9,0,1,
6474a3bea5c73f10d2742769,SCR,2024-06-21_12h46.47.922,LearnStrategy,2023.2.3,Win32,30.03003003,3,2,11,,,,,,,,1,16,,,,,,,,,,,,,3,1.46,0,,,,,,0.09,-0.2375,1,0,0,1.4596,Diorite_rect,10,0,10,0,1,
6474a3bea5c73f10d2742769,SCR,2024-06-21_12h46.47.922,LearnStrategy,2023.2.3,Win32,30.03003003,3,2,12,,,,,,,,6,13,,,,,,,,,,,,,4,3.529,0,,,,,,0.409166667,-0.2475,1,0,0,3.5287,Gabbro_rect,11,0,11,0,1,
6474a3bea5c73f10d2742769,SCR,2024-06-21_12h46.47.922,LearnStrategy,2023.2.3,Win32,30.03003003,3,2,13,,,,,,,,3,09,,,,,,,,,,,,,1,1.977,0,,,,,,-0.3475,-0.2625,1,0,0,1.9771,Andesite_rect,12,0,12,0,1,
6474a3bea5c73f10d2742769,SCR,2024-06-21_12h46.47.922,LearnStrategy,2023.2.3,Win32,30.03003003,3,2,14,,,,,,,,4,03,,,,,,,,,,,,,3,1.768,0,,,,,,0.115833333,-0.240833333,1,0,0,1.7678,Diorite_rect,13,0,13,0,1,
6474a3bea5c73f10d2742769,SCR,2024-06-21_12h46.47.922,LearnStrategy,2023.2.3,Win32,30.03003003,3,2,15,,,,,,,,8,02,,,,,,,,,,,,,8,1.358,1,,,,,,0.370833333,-0.4075,1,0,0,1.3578,Pumice_rect,14,0,14,0,1,
6474a3bea5c73f10d2742769,SCR,2024-06-21_12h46.47.922,LearnStrategy,2023.2.3,Win32,30.03003003,3,2,16,,,,,,,,3,08,,,,,,,,,,,,,1,2.559,0,,,,,,-0.370833333,-0.26,1,0,0,2.5595,Andesite_rect,15,0,15,0,1,
6474a3bea5c73f10d2742769,SCR,2024-06-21_12h46.47.922,LearnStrategy,2023.2.3,Win32,30.03003003,4,1,1,-0.045833333,-0.109166667,1,0,0,2.0678,Gabbro_11,4,11,3,4,2.068,3,11,0.3425,-0.239166667,1,0,0,3.5259,Gabbro_rect,4,3.526,1,0,0,0,0,1,,,,,,,,,,,,,
6474a3bea5c73f10d2742769,SCR,2024-06-21_12h46.47.922,LearnStrategy,2023.2.3,Win32,30.03003003,4,1,2,-0.559166667,-0.2675,1,0,0,1.4687,Peridotite_08,7,08,2,1,1.469,7,08,-0.106666667,-0.4025,1,0,0,3.1617,Pegmatite_rect,6,3.162,0,1,0,1,0,1,,,,,,,,,,,,,
6474a3bea5c73f10d2742769,SCR,2024-06-21_12h46.47.922,LearnStrategy,2023.2.3,Win32,30.03003003,4,1,3,0.271666667,-0.426666667,1,0,0,1.9018,Diorite_11,3,11,1,6,1.902,5,11,-0.375833333,-0.240833333,1,0,0,1.2224,Andesite_rect,1,1.222,0,2,0,2,0,1,,,,,,,,,,,,,
6474a3bea5c73f10d2742769,SCR,2024-06-21_12h46.47.922,LearnStrategy,2023.2.3,Win32,30.03003003,4,1,4,-0.058333333,0.411666667,1,0,0,4.2397,Diorite_14,3,14,6,4,4.24,6,09,0.15,-0.240833333,1,0,0,1.1405,Diorite_rect,3,1.141,1,3,0,3,0,1,,,,,,,,,,,,,
6474a3bea5c73f10d2742769,SCR,2024-06-21_12h46.47.922,LearnStrategy,2023.2.3,Win32,30.03003003,4,1,5,-0.109166667,0.236666667,1,0,0,1.4344,Basalt_05,2,05,5,4,1.434,2,05,-0.154166667,-0.2675,1,0,0,1.1557,Basalt_rect,2,1.156,1,4,0,4,0,1,,,,,,,,,,,,,
6474a3bea5c73f10d2742769,SCR,2024-06-21_12h46.47.922,LearnStrategy,2023.2.3,Win32,30.03003003,4,1,6,-0.510833333,0.254166667,1,0,0,1.1322,Gabbro_12,4,12,5,1,1.132,1,02,-0.16,-0.236666667,1,0,0,2.3268,Basalt_rect,2,2.327,0,5,0,5,0,1,,,,,,,,,,,,,
6474a3bea5c73f10d2742769,SCR,2024-06-21_12h46.47.922,LearnStrategy,2023.2.3,Win32,30.03003003,4,1,7,-0.536666667,0.0575,1,0,0,2.5708,Andesite_04,1,04,4,1,2.571,4,11,-0.076666667,-0.384166667,1,0,0,2.6261,Pegmatite_rect,6,2.626,0,6,0,6,0,1,,,,,,,,,,,,,
6474a3bea5c73f10d2742769,SCR,2024-06-21_12h46.47.922,LearnStrategy,2023.2.3,Win32,30.03003003,4,1,8,0.513333333,-0.106666667,1,0,0,1.6349,Diorite_10,3,10,3,8,1.635,6,11,0.179166667,-0.234166667,1,0,0,2.1244,Diorite_rect,3,2.124,1,7,0,7,0,1,,,,,,,,,,,,,
6474a3bea5c73f10d2742769,SCR,2024-06-21_12h46.47.922,LearnStrategy,2023.2.3,Win32,30.03003003,4,1,9,0.245,-0.391666667,1,0,0,1.6681,Diorite_11,3,11,1,6,1.668,3,10,0.160833333,-0.248333333,1,0,0,2.3243,Diorite_rect,3,2.324,1,8,0,8,0,1,,,,,,,,,,,,,
6474a3bea5c73f10d2742769,SCR,2024-06-21_12h46.47.922,LearnStrategy,2023.2.3,Win32,30.03003003,4,1,10,-0.6,0.109166667,1,0,0,2.1012,Andesite_04,1,04,4,1,2.101,6,07,-0.421666667,-0.233333333,1,0,0,1.4226,Andesite_rect,1,1.423,1,9,0,9,0,1,,,,,,,,,,,,,
6474a3bea5c73f10d2742769,SCR,2024-06-21_12h46.47.922,LearnStrategy,2023.2.3,Win32,30.03003003,4,1,11,-0.530833333,-0.248333333,1,0,0,1.5347,Peridotite_08,7,08,2,1,1.535,4,12,0.156666667,-0.401666667,1,0,0,1.6904,Peridotite_rect,7,1.69,1,10,0,10,0,1,,,,,,,,,,,,,
6474a3bea5c73f10d2742769,SCR,2024-06-21_12h46.47.922,LearnStrategy,2023.2.3,Win32,30.03003003,4,1,12,-0.375,-0.444166667,1,0,0,2.0018,Basalt_10,2,10,1,2,2.002,4,12,-0.379166667,-0.413333333,1,0,0,2.357,Obsidian_rect,5,2.357,0,11,0,11,0,1,,,,,,,,,,,,,
6474a3bea5c73f10d2742769,SCR,2024-06-21_12h46.47.922,LearnStrategy,2023.2.3,Win32,30.03003003,4,1,13,0.246666667,-0.415,1,0,0,2.1029,Diorite_11,3,11,1,6,2.103,3,10,0.099166667,-0.254166667,1,0,0,1.0224,Diorite_rect,3,1.022,1,12,0,12,0,1,,,,,,,,,,,,,
6474a3bea5c73f10d2742769,SCR,2024-06-21_12h46.47.922,LearnStrategy,2023.2.3,Win32,30.03003003,4,1,14,0.078333333,0.405,1,0,0,2.2346,Andesite_02,1,02,6,5,2.235,7,13,0.4175,-0.235,1,0,0,2.7344,Gabbro_rect,4,2.734,0,13,0,13,0,1,,,,,,,,,,,,,
6474a3bea5c73f10d2742769,SCR,2024-06-21_12h46.47.922,LearnStrategy,2023.2.3,Win32,30.03003003,4,1,15,-0.578333333,0.266666667,1,0,0,1.3005,Gabbro_12,4,12,5,1,1.301,1,11,-0.48,-0.248333333,1,0,0,1.2884,Andesite_rect,1,1.288,0,14,0,14,0,1,,,,,,,,,,,,,
6474a3bea5c73f10d2742769,SCR,2024-06-21_12h46.47.922,LearnStrategy,2023.2.3,Win32,30.03003003,4,1,16,-0.548333333,0.076666667,1,0,0,1.0004,Andesite_04,1,04,4,1,1,7,12,-0.4075,-0.238333333,1,0,0,1.1216,Andesite_rect,1,1.122,1,15,0,15,0,1,,,,,,,,,,,,,
6474a3bea5c73f10d2742769,SCR,2024-06-21_12h46.47.922,LearnStrategy,2023.2.3,Win32,30.03003003,4,2,1,,,,,,,,5,10,,,,,,,,,,,,,5,1.757,1,,,,,,-0.355,-0.388333333,1,0,0,1.7572,Obsidian_rect,0,0,0,0,1,
6474a3bea5c73f10d2742769,SCR,2024-06-21_12h46.47.922,LearnStrategy,2023.2.3,Win32,30.03003003,4,2,2,,,,,,,,7,04,,,,,,,,,,,,,7,1.89,1,,,,,,0.138333333,-0.418333333,1,0,0,1.8896,Peridotite_rect,1,0,1,0,1,
6474a3bea5c73f10d2742769,SCR,2024-06-21_12h46.47.922,LearnStrategy,2023.2.3,Win32,30.03003003,4,2,3,,,,,,,,4,08,,,,,,,,,,,,,1,6.667,0,,,,,,-0.410833333,-0.239166667,1,0,0,6.6666,Andesite_rect,2,0,2,0,1,
6474a3bea5c73f10d2742769,SCR,2024-06-21_12h46.47.922,LearnStrategy,2023.2.3,Win32,30.03003003,4,2,4,,,,,,,,1,10,,,,,,,,,,,,,1,1.04,1,,,,,,-0.411666667,-0.24,1,0,0,1.0398,Andesite_rect,3,0,3,0,1,
6474a3bea5c73f10d2742769,SCR,2024-06-21_12h46.47.922,LearnStrategy,2023.2.3,Win32,30.03003003,4,2,5,,,,,,,,1,16,,,,,,,,,,,,,6,2.8,0,,,,,,-0.145,-0.415833333,1,0,0,2.7996,Pegmatite_rect,4,0,4,0,1,
6474a3bea5c73f10d2742769,SCR,2024-06-21_12h46.47.922,LearnStrategy,2023.2.3,Win32,30.03003003,4,2,6,,,,,,,,3,08,,,,,,,,,,,,,3,2.211,1,,,,,,0.13,-0.245833333,1,0,0,2.2105,Diorite_rect,5,0,5,0,1,
6474a3bea5c73f10d2742769,SCR,2024-06-21_12h46.47.922,LearnStrategy,2023.2.3,Win32,30.03003003,4,2,7,,,,,,,,8,09,,,,,,,,,,,,,8,1.223,1,,,,,,0.418333333,-0.4075,1,0,0,1.2232,Pumice_rect,6,0,6,0,1,
6474a3bea5c73f10d2742769,SCR,2024-06-21_12h46.47.922,LearnStrategy,2023.2.3,Win32,30.03003003,4,2,8,,,,,,,,6,16,,,,,,,,,,,,,4,4.164,0,,,,,,0.500833333,-0.245,1,0,0,4.1639,Gabbro_rect,7,0,7,0,1,
6474a3bea5c73f10d2742769,SCR,2024-06-21_12h46.47.922,LearnStrategy,2023.2.3,Win32,30.03003003,4,2,9,,,,,,,,2,16,,,,,,,,,,,,,2,2.043,1,,,,,,-0.148333333,-0.238333333,1,0,0,2.0429,Basalt_rect,8,0,8,0,1,
6474a3bea5c73f10d2742769,SCR,2024-06-21_12h46.47.922,LearnStrategy,2023.2.3,Win32,30.03003003,4,2,10,,,,,,,,4,03,,,,,,,,,,,,,1,4.031,0,,,,,,-0.428333333,-0.2375,1,0,0,4.031,Andesite_rect,9,0,9,0,1,
6474a3bea5c73f10d2742769,SCR,2024-06-21_12h46.47.922,LearnStrategy,2023.2.3,Win32,30.03003003,4,2,11,,,,,,,,6,05,,,,,,,,,,,,,1,2.781,0,,,,,,-0.429166667,-0.2375,1,0,0,2.781,Andesite_rect,10,0,10,0,1,
6474a3bea5c73f10d2742769,SCR,2024-06-21_12h46.47.922,LearnStrategy,2023.2.3,Win32,30.03003003,4,2,12,,,,,,,,8,06,,,,,,,,,,,,,8,1.275,1,,,,,,0.385833333,-0.404166667,1,0,0,1.2751,Pumice_rect,11,0,11,0,1,
6474a3bea5c73f10d2742769,SCR,2024-06-21_12h46.47.922,LearnStrategy,2023.2.3,Win32,30.03003003,4,2,13,,,,,,,,7,05,,,,,,,,,,,,,7,1.29,1,,,,,,0.196666667,-0.399166667,1,0,0,1.2905,Peridotite_rect,12,0,12,0,1,
6474a3bea5c73f10d2742769,SCR,2024-06-21_12h46.47.922,LearnStrategy,2023.2.3,Win32,30.03003003,4,2,14,,,,,,,,2,02,,,,,,,,,,,,,2,1.29,1,,,,,,-0.184166667,-0.235,1,0,0,1.2902,Basalt_rect,13,0,13,0,1,
6474a3bea5c73f10d2742769,SCR,2024-06-21_12h46.47.922,LearnStrategy,2023.2.3,Win32,30.03003003,4,2,15,,,,,,,,3,12,,,,,,,,,,,,,3,1.458,1,,,,,,0.168333333,-0.2575,1,0,0,1.4577,Diorite_rect,14,0,14,0,1,
6474a3bea5c73f10d2742769,SCR,2024-06-21_12h46.47.922,LearnStrategy,2023.2.3,Win32,30.03003003,4,2,16,,,,,,,,5,12,,,,,,,,,,,,,5,1.391,1,,,,,,-0.434166667,-0.378333333,1,0,0,1.3913,Obsidian_rect,15,0,15,0,1,
6474a3bea5c73f10d2742769,SCR,2024-06-21_12h46.47.922,LearnStrategy,2023.2.3,Win32,30.03003003,5,1,1,-0.2125,0.245,1,0,0,2.5214,Peridotite_07,7,07,5,3,2.521,7,07,0.414166667,-0.241666667,1,0,0,2.2923,Gabbro_rect,4,2.292,0,0,0,0,0,1,,,,,,,,,,,,,
6474a3bea5c73f10d2742769,SCR,2024-06-21_12h46.47.922,LearnStrategy,2023.2.3,Win32,30.03003003,5,1,2,0.39,0.115,1,0,0,2.4033,Pegmatite_11,6,11,4,7,2.403,6,11,-0.11,-0.385833333,1,0,0,3.1784,Pegmatite_rect,6,3.178,1,1,0,1,0,1,,,,,,,,,,,,,
6474a3bea5c73f10d2742769,SCR,2024-06-21_12h46.47.922,LearnStrategy,2023.2.3,Win32,30.03003003,5,1,3,0.381666667,-0.116666667,1,0,0,2.5018,Diorite_07,3,07,3,7,2.502,3,02,0.13,-0.238333333,1,0,0,1.5353,Diorite_rect,3,1.535,1,2,0,2,0,1,,,,,,,,,,,,,
6474a3bea5c73f10d2742769,SCR,2024-06-21_12h46.47.922,LearnStrategy,2023.2.3,Win32,30.03003003,5,1,4,0.066666667,-0.265833333,1,0,0,1.6686,Gabbro_01,4,01,2,5,1.669,4,01,-0.314166667,-0.248333333,1,0,0,2.4585,Andesite_rect,1,2.458,0,3,0,3,0,1,,,,,,,,,,,,,
6474a3bea5c73f10d2742769,SCR,2024-06-21_12h46.47.922,LearnStrategy,2023.2.3,Win32,30.03003003,5,1,5,0.545,0.438333333,1,0,0,3.5043,Andesite_05,1,05,6,8,3.504,1,05,-0.381666667,-0.238333333,1,0,0,2.9775,Andesite_rect,1,2.977,1,4,0,4,0,1,,,,,,,,,,,,,
6474a3bea5c73f10d2742769,SCR,2024-06-21_12h46.47.922,LearnStrategy,2023.2.3,Win32,30.03003003,5,1,6,-0.26,0.26,1,0,0,1.267,Peridotite_07,7,07,5,3,1.267,7,07,0.451666667,-0.2525,1,0,0,4.163,Gabbro_rect,4,4.163,0,5,0,5,0,1,,,,,,,,,,,,,
6474a3bea5c73f10d2742769,SCR,2024-06-21_12h46.47.922,LearnStrategy,2023.2.3,Win32,30.03003003,5,1,7,-0.076666667,-0.390833333,1,0,0,1.6013,Pegmatite_08,6,08,1,4,1.601,6,08,0.358333333,-0.24,1,0,0,3.4278,Gabbro_rect,4,3.428,0,6,0,6,0,1,,,,,,,,,,,,,
6474a3bea5c73f10d2742769,SCR,2024-06-21_12h46.47.922,LearnStrategy,2023.2.3,Win32,30.03003003,5,1,8,-0.365,-0.415,1,0,0,1.8004,Basalt_10,2,10,1,2,1.8,2,10,-0.185,-0.235,1,0,0,1.2226,Basalt_rect,2,1.223,1,7,0,7,0,1,,,,,,,,,,,,,
6474a3bea5c73f10d2742769,SCR,2024-06-21_12h46.47.922,LearnStrategy,2023.2.3,Win32,30.03003003,5,1,9,-0.3875,0.261666667,1,0,0,2.0678,Gabbro_15,4,15,5,2,2.068,4,15,-0.3575,-0.256666667,1,0,0,6.5017,Andesite_rect,1,6.502,0,8,0,8,0,1,,,,,,,,,,,,,
6474a3bea5c73f10d2742769,SCR,2024-06-21_12h46.47.922,LearnStrategy,2023.2.3,Win32,30.03003003,5,1,10,0.3725,-0.098333333,1,0,0,1.6679,Diorite_07,3,07,3,7,1.668,3,07,0.0875,-0.244166667,1,0,0,1.0896,Diorite_rect,3,1.09,1,9,0,9,0,1,,,,,,,,,,,,,
6474a3bea5c73f10d2742769,SCR,2024-06-21_12h46.47.922,LearnStrategy,2023.2.3,Win32,30.03003003,5,1,11,-0.12,-0.235,1,0,0,1.669,Andesite_03,1,03,2,4,1.669,1,03,-0.350833333,-0.229166667,1,0,0,1.3281,Andesite_rect,1,1.328,1,10,0,10,0,1,,,,,,,,,,,,,
6474a3bea5c73f10d2742769,SCR,2024-06-21_12h46.47.922,LearnStrategy,2023.2.3,Win32,30.03003003,5,1,12,0.41,-0.4,1,0,0,1.6669,Pegmatite_07,6,07,1,7,1.667,6,07,-0.068333333,-0.408333333,1,0,0,2.6933,Pegmatite_rect,6,2.693,1,11,0,11,0,1,,,,,,,,,,,,,
6474a3bea5c73f10d2742769,SCR,2024-06-21_12h46.47.922,LearnStrategy,2023.2.3,Win32,30.03003003,5,1,13,0.5725,0.446666667,1,0,0,1.8687,Andesite_05,1,05,6,8,1.869,1,05,0.429166667,-0.260833333,1,0,0,3.3605,Gabbro_rect,4,3.361,0,12,0,12,0,1,,,,,,,,,,,,,
6474a3bea5c73f10d2742769,SCR,2024-06-21_12h46.47.922,LearnStrategy,2023.2.3,Win32,30.03003003,5,1,14,-0.399166667,0.286666667,1,0,0,1.8356,Gabbro_15,4,15,5,2,1.836,4,15,-0.0975,-0.408333333,1,0,0,3.5264,Pegmatite_rect,6,3.526,0,13,0,13,0,1,,,,,,,,,,,,,
6474a3bea5c73f10d2742769,SCR,2024-06-21_12h46.47.922,LearnStrategy,2023.2.3,Win32,30.03003003,5,1,15,0.408333333,0.3575,1,0,0,1.7346,Pegmatite_09,6,09,6,7,1.735,6,09,0.158333333,-0.413333333,1,0,0,1.6235,Peridotite_rect,7,1.624,0,14,0,14,0,1,,,,,,,,,,,,,
6474a3bea5c73f10d2742769,SCR,2024-06-21_12h46.47.922,LearnStrategy,2023.2.3,Win32,30.03003003,5,1,16,-0.564166667,0.26,1,0,0,2.437,Gabbro_12,4,12,5,1,2.437,4,12,-0.209166667,-0.254166667,1,0,0,1.3228,Basalt_rect,2,1.323,0,15,0,15,0,1,,,,,,,,,,,,,
6474a3bea5c73f10d2742769,SCR,2024-06-21_12h46.47.922,LearnStrategy,2023.2.3,Win32,30.03003003,5,2,1,,,,,,,,6,10,,,,,,,,,,,,,7,1.588,0,,,,,,0.158333333,-0.419166667,1,0,0,1.5881,Peridotite_rect,0,0,0,0,1,
6474a3bea5c73f10d2742769,SCR,2024-06-21_12h46.47.922,LearnStrategy,2023.2.3,Win32,30.03003003,5,2,2,,,,,,,,8,13,,,,,,,,,,,,,8,1.231,1,,,,,,0.391666667,-0.3975,1,0,0,1.2305,Pumice_rect,1,0,1,0,1,
6474a3bea5c73f10d2742769,SCR,2024-06-21_12h46.47.922,LearnStrategy,2023.2.3,Win32,30.03003003,5,2,3,,,,,,,,5,16,,,,,,,,,,,,,5,1.324,1,,,,,,-0.315833333,-0.413333333,1,0,0,1.3241,Obsidian_rect,2,0,2,0,1,
6474a3bea5c73f10d2742769,SCR,2024-06-21_12h46.47.922,LearnStrategy,2023.2.3,Win32,30.03003003,5,2,4,,,,,,,,2,11,,,,,,,,,,,,,2,1.557,1,,,,,,-0.126666667,-0.2475,1,0,0,1.5571,Basalt_rect,3,0,3,0,1,
6474a3bea5c73f10d2742769,SCR,2024-06-21_12h46.47.922,LearnStrategy,2023.2.3,Win32,30.03003003,5,2,5,,,,,,,,8,02,,,,,,,,,,,,,8,1.324,1,,,,,,0.3675,-0.385833333,1,0,0,1.324,Pumice_rect,4,0,4,0,1,
6474a3bea5c73f10d2742769,SCR,2024-06-21_12h46.47.922,LearnStrategy,2023.2.3,Win32,30.03003003,5,2,6,,,,,,,,6,06,,,,,,,,,,,,,6,2.955,1,,,,,,-0.0475,-0.401666667,1,0,0,2.9545,Pegmatite_rect,5,0,5,0,1,
6474a3bea5c73f10d2742769,SCR,2024-06-21_12h46.47.922,LearnStrategy,2023.2.3,Win32,30.03003003,5,2,7,,,,,,,,5,14,,,,,,,,,,,,,5,1.257,1,,,,,,-0.3475,-0.394166667,1,0,0,1.2574,Obsidian_rect,6,0,6,0,1,
6474a3bea5c73f10d2742769,SCR,2024-06-21_12h46.47.922,LearnStrategy,2023.2.3,Win32,30.03003003,5,2,8,,,,,,,,7,14,,,,,,,,,,,,,1,2.961,0,,,,,,-0.3775,-0.23,1,0,0,2.9613,Andesite_rect,7,0,7,0,1,
6474a3bea5c73f10d2742769,SCR,2024-06-21_12h46.47.922,LearnStrategy,2023.2.3,Win32,30.03003003,5,2,9,,,,,,,,4,14,,,,,,,,,,,,,3,2.539,0,,,,,,0.1425,-0.2575,1,0,0,2.5386,Diorite_rect,8,0,8,0,1,
6474a3bea5c73f10d2742769,SCR,2024-06-21_12h46.47.922,LearnStrategy,2023.2.3,Win32,30.03003003,5,2,10,,,,,,,,4,05,,,,,,,,,,,,,3,1.341,0,,,,,,0.14,-0.2575,1,0,0,1.3407,Diorite_rect,9,0,9,0,1,
6474a3bea5c73f10d2742769,SCR,2024-06-21_12h46.47.922,LearnStrategy,2023.2.3,Win32,30.03003003,5,2,11,,,,,,,,1,06,,,,,,,,,,,,,3,0.989,0,,,,,,0.1325,-0.259166667,1,0,0,0.9887,Diorite_rect,10,0,10,0,1,
6474a3bea5c73f10d2742769,SCR,2024-06-21_12h46.47.922,LearnStrategy,2023.2.3,Win32,30.03003003,5,2,12,,,,,,,,1,14,,,,,,,,,,,,,3,0.996,0,,,,,,0.1325,-0.259166667,1,0,0,0.9957,Diorite_rect,11,0,11,0,1,
6474a3bea5c73f10d2742769,SCR,2024-06-21_12h46.47.922,LearnStrategy,2023.2.3,Win32,30.03003003,5,2,13,,,,,,,,3,16,,,,,,,,,,,,,3,0.857,1,,,,,,0.1325,-0.259166667,1,0,0,0.8573,Diorite_rect,12,0,12,0,1,
6474a3bea5c73f10d2742769,SCR,2024-06-21_12h46.47.922,LearnStrategy,2023.2.3,Win32,30.03003003,5,2,14,,,,,,,,3,15,,,,,,,,,,,,,3,1.091,1,,,,,,0.1325,-0.259166667,1,0,0,1.0907,Diorite_rect,13,0,13,0,1,
6474a3bea5c73f10d2742769,SCR,2024-06-21_12h46.47.922,LearnStrategy,2023.2.3,Win32,30.03003003,5,2,15,,,,,,,,2,08,,,,,,,,,,,,,2,1.36,1,,,,,,-0.1125,-0.251666667,1,0,0,1.3597,Basalt_rect,14,0,14,0,1,
6474a3bea5c73f10d2742769,SCR,2024-06-21_12h46.47.922,LearnStrategy,2023.2.3,Win32,30.03003003,5,2,16,,,,,,,,7,16,,,,,,,,,,,,,7,2.36,1,,,,,,0.075,-0.395833333,1,0,0,2.3595,Peridotite_rect,15,0,15,0,1,
6474a3bea5c73f10d2742769,SCR,2024-06-21_12h46.47.922,LearnStrategy,2023.2.3,Win32,30.03003003,6,1,1,-0.53,-0.1325,1,0,0,1.884,Gabbro_10,4,10,3,1,1.884,4,10,0.436666667,-0.246666667,1,0,0,3.3946,Gabbro_rect,4,3.395,1,0,0,0,0,1,,,,,,,,,,,,,
6474a3bea5c73f10d2742769,SCR,2024-06-21_12h46.47.922,LearnStrategy,2023.2.3,Win32,30.03003003,6,1,2,-0.081666667,0.455833333,1,0,0,1.5333,Diorite_14,3,14,6,4,1.533,3,14,0.088333333,-0.245,1,0,0,1.5234,Diorite_rect,3,1.523,1,1,0,1,0,1,,,,,,,,,,,,,
6474a3bea5c73f10d2742769,SCR,2024-06-21_12h46.47.922,LearnStrategy,2023.2.3,Win32,30.03003003,6,1,3,-0.533333333,0.250833333,1,0,0,1.9021,Gabbro_12,4,12,5,1,1.902,4,12,-0.124166667,-0.245,1,0,0,1.5894,Basalt_rect,2,1.589,0,2,0,2,0,1,,,,,,,,,,,,,
6474a3bea5c73f10d2742769,SCR,2024-06-21_12h46.47.922,LearnStrategy,2023.2.3,Win32,30.03003003,6,1,4,0.566666667,0.051666667,1,0,0,1.401,Peridotite_12,7,12,4,8,1.401,7,12,0.2,-0.408333333,1,0,0,2.1592,Peridotite_rect,7,2.159,1,3,0,3,0,1,,,,,,,,,,,,,
6474a3bea5c73f10d2742769,SCR,2024-06-21_12h46.47.922,LearnStrategy,2023.2.3,Win32,30.03003003,6,1,5,0.2,-0.435,1,0,0,1.4009,Diorite_11,3,11,1,6,1.401,3,11,0.143333333,-0.260833333,1,0,0,2.0632,Diorite_rect,3,2.063,1,4,0,4,0,1,,,,,,,,,,,,,
6474a3bea5c73f10d2742769,SCR,2024-06-21_12h46.47.922,LearnStrategy,2023.2.3,Win32,30.03003003,6,1,6,-0.0475,0.068333333,1,0,0,1.2661,Obsidian_02,5,02,4,4,1.266,5,02,-0.395833333,-0.3975,1,0,0,1.2534,Obsidian_rect,5,1.253,1,5,0,5,0,1,,,,,,,,,,,,,
6474a3bea5c73f10d2742769,SCR,2024-06-21_12h46.47.922,LearnStrategy,2023.2.3,Win32,30.03003003,6,1,7,-0.57,0.276666667,1,0,0,1.4342,Gabbro_12,4,12,5,1,1.434,1,11,-0.375833333,-0.24,1,0,0,1.6242,Andesite_rect,1,1.624,0,6,0,6,0,1,,,,,,,,,,,,,
6474a3bea5c73f10d2742769,SCR,2024-06-21_12h46.47.922,LearnStrategy,2023.2.3,Win32,30.03003003,6,1,8,-0.434166667,-0.386666667,1,0,0,1.4338,Basalt_10,2,10,1,2,1.434,2,10,-0.1675,-0.235,1,0,0,1.5573,Basalt_rect,2,1.557,1,7,0,7,0,1,,,,,,,,,,,,,
6474a3bea5c73f10d2742769,SCR,2024-06-21_12h46.47.922,LearnStrategy,2023.2.3,Win32,30.03003003,6,1,9,0.046666667,0.4225,1,0,0,1.7017,Andesite_02,1,02,6,5,1.702,1,02,-0.336666667,-0.2325,1,0,0,2.9599,Andesite_rect,1,2.96,1,8,0,8,0,1,,,,,,,,,,,,,
6474a3bea5c73f10d2742769,SCR,2024-06-21_12h46.47.922,LearnStrategy,2023.2.3,Win32,30.03003003,6,1,10,-0.081666667,-0.414166667,1,0,0,1.2004,Pegmatite_08,6,08,1,4,1.2,6,08,-0.083333333,-0.41,1,0,0,1.7894,Pegmatite_rect,6,1.789,1,9,0,9,0,1,,,,,,,,,,,,,
6474a3bea5c73f10d2742769,SCR,2024-06-21_12h46.47.922,LearnStrategy,2023.2.3,Win32,30.03003003,6,1,11,0.064166667,-0.23,1,0,0,1.0007,Gabbro_01,4,01,2,5,1.001,4,01,0.376666667,-0.234166667,1,0,0,2.1876,Gabbro_rect,4,2.188,1,10,0,10,0,1,,,,,,,,,,,,,
6474a3bea5c73f10d2742769,SCR,2024-06-21_12h46.47.922,LearnStrategy,2023.2.3,Win32,30.03003003,6,1,12,0.4025,-0.441666667,1,0,0,1.2659,Pegmatite_07,6,07,1,7,1.266,6,07,-0.173333333,-0.4,1,0,0,1.5236,Pegmatite_rect,6,1.524,1,11,0,11,0,1,,,,,,,,,,,,,
6474a3bea5c73f10d2742769,SCR,2024-06-21_12h46.47.922,LearnStrategy,2023.2.3,Win32,30.03003003,6,1,13,0.373333333,0.419166667,1,0,0,2.1021,Pegmatite_09,6,09,6,7,2.102,6,09,-0.1375,-0.396666667,1,0,0,1.7239,Pegmatite_rect,6,1.724,1,12,0,12,0,1,,,,,,,,,,,,,
6474a3bea5c73f10d2742769,SCR,2024-06-21_12h46.47.922,LearnStrategy,2023.2.3,Win32,30.03003003,6,1,14,0.2025,0.231666667,1,0,0,1.3015,Andesite_11,1,11,5,6,1.301,1,11,0.2975,-0.235833333,1,0,0,2.3923,Gabbro_rect,4,2.392,0,13,0,13,0,1,,,,,,,,,,,,,
6474a3bea5c73f10d2742769,SCR,2024-06-21_12h46.47.922,LearnStrategy,2023.2.3,Win32,30.03003003,6,1,15,0.575,-0.380833333,1,0,0,1.6353,Peridotite_13,7,13,1,8,1.635,7,13,0.190833333,-0.404166667,1,0,0,1.3548,Peridotite_rect,7,1.355,1,14,0,14,0,1,,,,,,,,,,,,,
6474a3bea5c73f10d2742769,SCR,2024-06-21_12h46.47.922,LearnStrategy,2023.2.3,Win32,30.03003003,6,1,16,0.055833333,-0.213333333,1,0,0,1.1668,Gabbro_01,4,01,2,5,1.167,4,01,0.4375,-0.230833333,1,0,0,2.8918,Gabbro_rect,4,2.892,1,15,0,15,0,1,,,,,,,,,,,,,
6474a3bea5c73f10d2742769,SCR,2024-06-21_12h46.47.922,LearnStrategy,2023.2.3,Win32,30.03003003,6,2,1,,,,,,,,8,04,,,,,,,,,,,,,8,1.257,1,,,,,,0.328333333,-0.404166667,1,0,0,1.2571,Pumice_rect,0,0,0,0,1,
6474a3bea5c73f10d2742769,SCR,2024-06-21_12h46.47.922,LearnStrategy,2023.2.3,Win32,30.03003003,6,2,2,,,,,,,,5,04,,,,,,,,,,,,,5,1.391,1,,,,,,-0.421666667,-0.410833333,1,0,0,1.3909,Obsidian_rect,1,0,1,0,1,
6474a3bea5c73f10d2742769,SCR,2024-06-21_12h46.47.922,LearnStrategy,2023.2.3,Win32,30.03003003,6,2,3,,,,,,,,3,13,,,,,,,,,,,,,3,1.465,1,,,,,,0.060833333,-0.231666667,1,0,0,1.4653,Diorite_rect,2,0,2,0,1,
6474a3bea5c73f10d2742769,SCR,2024-06-21_12h46.47.922,LearnStrategy,2023.2.3,Win32,30.03003003,6,2,4,,,,,,,,7,06,,,,,,,,,,,,,6,3.094,0,,,,,,-0.081666667,-0.386666667,1,0,0,3.094,Pegmatite_rect,3,0,3,0,1,
6474a3bea5c73f10d2742769,SCR,2024-06-21_12h46.47.922,LearnStrategy,2023.2.3,Win32,30.03003003,6,2,5,,,,,,,,8,03,,,,,,,,,,,,,8,2.26,1,,,,,,0.360833333,-0.385833333,1,0,0,2.2604,Pumice_rect,4,0,4,0,1,
6474a3bea5c73f10d2742769,SCR,2024-06-21_12h46.47.922,LearnStrategy,2023.2.3,Win32,30.03003003,6,2,6,,,,,,,,6,03,,,,,,,,,,,,,7,2.413,0,,,,,,0.173333333,-0.401666667,1,0,0,2.4134,Peridotite_rect,5,0,5,0,1,
6474a3bea5c73f10d2742769,SCR,2024-06-21_12h46.47.922,LearnStrategy,2023.2.3,Win32,30.03003003,6,2,7,,,,,,,,2,04,,,,,,,,,,,,,2,1.158,1,,,,,,-0.190833333,-0.244166667,1,0,0,1.1575,Basalt_rect,6,0,6,0,1,
6474a3bea5c73f10d2742769,SCR,2024-06-21_12h46.47.922,LearnStrategy,2023.2.3,Win32,30.03003003,6,2,8,,,,,,,,1,07,,,,,,,,,,,,,1,1.725,1,,,,,,-0.3675,-0.241666667,1,0,0,1.7247,Andesite_rect,7,0,7,0,1,
6474a3bea5c73f10d2742769,SCR,2024-06-21_12h46.47.922,LearnStrategy,2023.2.3,Win32,30.03003003,6,2,9,,,,,,,,7,15,,,,,,,,,,,,,6,2.826,0,,,,,,-0.080833333,-0.4025,1,0,0,2.8256,Pegmatite_rect,8,0,8,0,1,
6474a3bea5c73f10d2742769,SCR,2024-06-21_12h46.47.922,LearnStrategy,2023.2.3,Win32,30.03003003,6,2,10,,,,,,,,3,09,,,,,,,,,,,,,1,2.978,0,,,,,,-0.3725,-0.25,1,0,0,2.9778,Andesite_rect,9,0,9,0,1,
6474a3bea5c73f10d2742769,SCR,2024-06-21_12h46.47.922,LearnStrategy,2023.2.3,Win32,30.03003003,6,2,11,,,,,,,,5,07,,,,,,,,,,,,,5,2.144,1,,,,,,-0.384166667,-0.4075,1,0,0,2.1437,Obsidian_rect,10,0,10,0,1,
6474a3bea5c73f10d2742769,SCR,2024-06-21_12h46.47.922,LearnStrategy,2023.2.3,Win32,30.03003003,6,2,12,,,,,,,,6,13,,,,,,,,,,,,,4,2.727,0,,,,,,0.413333333,-0.2425,1,0,0,2.7272,Gabbro_rect,11,0,11,0,1,
6474a3bea5c73f10d2742769,SCR,2024-06-21_12h46.47.922,LearnStrategy,2023.2.3,Win32,30.03003003,6,2,13,,,,,,,,1,09,,,,,,,,,,,,,1,1.311,1,,,,,,-0.416666667,-0.2575,1,0,0,1.3112,Andesite_rect,12,0,12,0,1,
6474a3bea5c73f10d2742769,SCR,2024-06-21_12h46.47.922,LearnStrategy,2023.2.3,Win32,30.03003003,6,2,14,,,,,,,,4,16,,,,,,,,,,,,,2,1.524,0,,,,,,-0.159166667,-0.244166667,1,0,0,1.5242,Basalt_rect,13,0,13,0,1,
6474a3bea5c73f10d2742769,SCR,2024-06-21_12h46.47.922,LearnStrategy,2023.2.3,Win32,30.03003003,6,2,15,,,,,,,,2,12,,,,,,,,,,,,,2,1.257,1,,,,,,-0.1675,-0.241666667,1,0,0,1.2567,Basalt_rect,14,0,14,0,1,
6474a3bea5c73f10d2742769,SCR,2024-06-21_12h46.47.922,LearnStrategy,2023.2.3,Win32,30.03003003,6,2,16,,,,,,,,4,09,,,,,,,,,,,,,5,1.95,0,,,,,,-0.365833333,-0.403333333,1,0,0,1.95,Obsidian_rect,15,0,15,0,1,
6474a3bea5c73f10d2742769,SCR,2024-06-21_12h46.47.922,LearnStrategy,2023.2.3,Win32,30.03003003,7,1,1,-0.554166667,-0.409166667,1,0,0,1.4342,Gabbro_13,4,13,1,1,1.434,4,13,-0.375833333,-0.234166667,1,0,0,4.1029,Andesite_rect,1,4.103,0,0,0,0,0,1,,,,,,,,,,,,,
6474a3bea5c73f10d2742769,SCR,2024-06-21_12h46.47.922,LearnStrategy,2023.2.3,Win32,30.03003003,7,1,2,0.510833333,0.418333333,1,0,0,2.1362,Andesite_05,1,05,6,8,2.136,1,05,0.3525,-0.245,1,0,0,2.29,Gabbro_rect,4,2.29,0,1,0,1,0,1,,,,,,,,,,,,,
6474a3bea5c73f10d2742769,SCR,2024-06-21_12h46.47.922,LearnStrategy,2023.2.3,Win32,30.03003003,7,1,3,-0.361666667,0.405,1,0,0,1.3665,Basalt_01,2,01,6,2,1.367,2,01,-0.141666667,-0.255,1,0,0,1.155,Basalt_rect,2,1.155,1,2,0,2,0,1,,,,,,,,,,,,,
6474a3bea5c73f10d2742769,SCR,2024-06-21_12h46.47.922,LearnStrategy,2023.2.3,Win32,30.03003003,7,1,4,0.196666667,0.241666667,1,0,0,1.2333,Andesite_11,1,11,5,6,1.233,1,11,-0.45,-0.2625,1,0,0,0.8888,Andesite_rect,1,0.889,1,3,0,3,0,1,,,,,,,,,,,,,
6474a3bea5c73f10d2742769,SCR,2024-06-21_12h46.47.922,LearnStrategy,2023.2.3,Win32,30.03003003,7,1,5,-0.406666667,0.2325,1,0,0,2.1022,Gabbro_15,4,15,5,2,2.102,4,15,0.435,-0.259166667,1,0,0,3.3965,Gabbro_rect,4,3.397,1,4,0,4,0,1,,,,,,,,,,,,,
6474a3bea5c73f10d2742769,SCR,2024-06-21_12h46.47.922,LearnStrategy,2023.2.3,Win32,30.03003003,7,1,6,-0.2275,0.2325,1,0,0,1.7016,Peridotite_07,7,07,5,3,1.702,7,07,-0.109166667,-0.3925,1,0,0,1.5569,Pegmatite_rect,6,1.557,0,5,0,5,0,1,,,,,,,,,,,,,
6474a3bea5c73f10d2742769,SCR,2024-06-21_12h46.47.922,LearnStrategy,2023.2.3,Win32,30.03003003,7,1,7,0.220833333,-0.2325,1,0,0,1.1335,Diorite_06,3,06,2,6,1.133,3,06,0.166666667,-0.244166667,1,0,0,1.9901,Diorite_rect,3,1.99,1,6,0,6,0,1,,,,,,,,,,,,,
6474a3bea5c73f10d2742769,SCR,2024-06-21_12h46.47.922,LearnStrategy,2023.2.3,Win32,30.03003003,7,1,8,-0.091666667,-0.435,1,0,0,1.5327,Pegmatite_08,6,08,1,4,1.533,6,08,-0.103333333,-0.416666667,1,0,0,0.8886,Pegmatite_rect,6,0.889,1,7,0,7,0,1,,,,,,,,,,,,,
6474a3bea5c73f10d2742769,SCR,2024-06-21_12h46.47.922,LearnStrategy,2023.2.3,Win32,30.03003003,7,1,9,-0.236666667,0.2425,1,0,0,1.4344,Peridotite_07,7,07,5,3,1.434,7,07,0.131666667,-0.415833333,1,0,0,1.6228,Peridotite_rect,7,1.623,1,8,0,8,0,1,,,,,,,,,,,,,
6474a3bea5c73f10d2742769,SCR,2024-06-21_12h46.47.922,LearnStrategy,2023.2.3,Win32,30.03003003,7,1,10,0.260833333,-0.248333333,1,0,0,1.0345,Diorite_06,3,06,2,6,1.034,3,06,0.110833333,-0.239166667,1,0,0,1.3521,Diorite_rect,3,1.352,1,9,0,9,0,1,,,,,,,,,,,,,
6474a3bea5c73f10d2742769,SCR,2024-06-21_12h46.47.922,LearnStrategy,2023.2.3,Win32,30.03003003,7,1,11,0.26,0.440833333,1,0,0,1.9342,Pegmatite_15,6,15,6,6,1.934,6,15,-0.166666667,-0.385833333,1,0,0,1.1229,Pegmatite_rect,6,1.123,1,10,0,10,0,1,,,,,,,,,,,,,
6474a3bea5c73f10d2742769,SCR,2024-06-21_12h46.47.922,LearnStrategy,2023.2.3,Win32,30.03003003,7,1,12,-0.549166667,-0.076666667,1,0,0,1.5023,Gabbro_10,4,10,3,1,1.502,4,10,-0.35,-0.381666667,1,0,0,2.6249,Obsidian_rect,5,2.625,0,11,0,11,0,1,,,,,,,,,,,,,
6474a3bea5c73f10d2742769,SCR,2024-06-21_12h46.47.922,LearnStrategy,2023.2.3,Win32,30.03003003,7,1,13,0.573333333,-0.419166667,1,0,0,1.3331,Peridotite_13,7,13,1,8,1.333,7,13,0.103333333,-0.390833333,1,0,0,0.6872,Peridotite_rect,7,0.687,1,12,0,12,0,1,,,,,,,,,,,,,
6474a3bea5c73f10d2742769,SCR,2024-06-21_12h46.47.922,LearnStrategy,2023.2.3,Win32,30.03003003,7,1,14,0.074166667,0.075833333,1,0,0,0.9377,Obsidian_09,5,09,4,5,0.938,5,09,-0.36,-0.4,1,0,0,1.1763,Obsidian_rect,5,1.176,1,13,0,13,0,1,,,,,,,,,,,,,
6474a3bea5c73f10d2742769,SCR,2024-06-21_12h46.47.922,LearnStrategy,2023.2.3,Win32,30.03003003,7,1,15,0.195,0.3725,1,0,0,1.6685,Pegmatite_15,6,15,6,6,1.668,6,15,-0.205833333,-0.396666667,1,0,0,1.2874,Pegmatite_rect,6,1.287,1,14,0,14,0,1,,,,,,,,,,,,,
6474a3bea5c73f10d2742769,SCR,2024-06-21_12h46.47.922,LearnStrategy,2023.2.3,Win32,30.03003003,7,1,16,0.0875,-0.224166667,1,0,0,1.2345,Gabbro_01,4,01,2,5,1.235,4,01,0.376666667,-0.2475,1,0,0,1.0215,Gabbro_rect,4,1.021,1,15,0,15,0,1,,,,,,,,,,,,,
6474a3bea5c73f10d2742769,SCR,2024-06-21_12h46.47.922,LearnStrategy,2023.2.3,Win32,30.03003003,7,2,1,,,,,,,,5,14,,,,,,,,,,,,,5,1.387,1,,,,,,-0.384166667,-0.399166667,1,0,0,1.3871,Obsidian_rect,0,0,0,0,1,
6474a3bea5c73f10d2742769,SCR,2024-06-21_12h46.47.922,LearnStrategy,2023.2.3,Win32,30.03003003,7,2,2,,,,,,,,8,09,,,,,,,,,,,,,8,1.224,1,,,,,,0.4225,-0.3975,1,0,0,1.2242,Pumice_rect,1,0,1,0,1,
6474a3bea5c73f10d2742769,SCR,2024-06-21_12h46.47.922,LearnStrategy,2023.2.3,Win32,30.03003003,7,2,3,,,,,,,,2,11,,,,,,,,,,,,,2,1.725,1,,,,,,-0.071666667,-0.264166667,1,0,0,1.7246,Basalt_rect,2,0,2,0,1,
6474a3bea5c73f10d2742769,SCR,2024-06-21_12h46.47.922,LearnStrategy,2023.2.3,Win32,30.03003003,7,2,4,,,,,,,,1,09,,,,,,,,,,,,,1,2.16,1,,,,,,-0.313333333,-0.255833333,1,0,0,2.1598,Andesite_rect,3,0,3,0,1,
6474a3bea5c73f10d2742769,SCR,2024-06-21_12h46.47.922,LearnStrategy,2023.2.3,Win32,30.03003003,7,2,5,,,,,,,,4,14,,,,,,,,,,,,,4,2.589,1,,,,,,0.378333333,-0.265833333,1,0,0,2.5889,Gabbro_rect,4,0,4,0,1,
6474a3bea5c73f10d2742769,SCR,2024-06-21_12h46.47.922,LearnStrategy,2023.2.3,Win32,30.03003003,7,2,6,,,,,,,,4,05,,,,,,,,,,,,,4,3.661,1,,,,,,0.376666667,-0.265833333,1,0,0,3.6607,Gabbro_rect,5,0,5,0,1,
6474a3bea5c73f10d2742769,SCR,2024-06-21_12h46.47.922,LearnStrategy,2023.2.3,Win32,30.03003003,7,2,7,,,,,,,,5,16,,,,,,,,,,,,,5,1.208,1,,,,,,-0.386666667,-0.380833333,1,0,0,1.2085,Obsidian_rect,6,0,6,0,1,
6474a3bea5c73f10d2742769,SCR,2024-06-21_12h46.47.922,LearnStrategy,2023.2.3,Win32,30.03003003,7,2,8,,,,,,,,8,06,,,,,,,,,,,,,8,1.224,1,,,,,,0.446666667,-0.4175,1,0,0,1.2238,Pumice_rect,7,0,7,0,1,
6474a3bea5c73f10d2742769,SCR,2024-06-21_12h46.47.922,LearnStrategy,2023.2.3,Win32,30.03003003,7,2,9,,,,,,,,6,16,,,,,,,,,,,,,6,1.458,1,,,,,,-0.174166667,-0.4025,1,0,0,1.4584,Pegmatite_rect,8,0,8,0,1,
6474a3bea5c73f10d2742769,SCR,2024-06-21_12h46.47.922,LearnStrategy,2023.2.3,Win32,30.03003003,7,2,10,,,,,,,,1,10,,,,,,,,,,,,,1,2.527,1,,,,,,-0.328333333,-0.256666667,1,0,0,2.5271,Andesite_rect,9,0,9,0,1,
6474a3bea5c73f10d2742769,SCR,2024-06-21_12h46.47.922,LearnStrategy,2023.2.3,Win32,30.03003003,7,2,11,,,,,,,,7,05,,,,,,,,,,,,,7,1.679,1,,,,,,0.168333333,-0.398333333,1,0,0,1.6794,Peridotite_rect,10,0,10,0,1,
6474a3bea5c73f10d2742769,SCR,2024-06-21_12h46.47.922,LearnStrategy,2023.2.3,Win32,30.03003003,7,2,12,,,,,,,,2,04,,,,,,,,,,,,,2,1.591,1,,,,,,-0.081666667,-0.26,1,0,0,1.5911,Basalt_rect,11,0,11,0,1,
6474a3bea5c73f10d2742769,SCR,2024-06-21_12h46.47.922,LearnStrategy,2023.2.3,Win32,30.03003003,7,2,13,,,,,,,,3,12,,,,,,,,,,,,,3,1.524,1,,,,,,0.149166667,-0.271666667,1,0,0,1.5242,Diorite_rect,12,0,12,0,1,
6474a3bea5c73f10d2742769,SCR,2024-06-21_12h46.47.922,LearnStrategy,2023.2.3,Win32,30.03003003,7,2,14,,,,,,,,3,15,,,,,,,,,,,,,3,1.684,1,,,,,,0.14,-0.2625,1,0,0,1.6838,Diorite_rect,13,0,13,0,1,
6474a3bea5c73f10d2742769,SCR,2024-06-21_12h46.47.922,LearnStrategy,2023.2.3,Win32,30.03003003,7,2,15,,,,,,,,6,13,,,,,,,,,,,,,6,1.49,1,,,,,,-0.1025,-0.395833333,1,0,0,1.4903,Pegmatite_rect,14,0,14,0,1,
6474a3bea5c73f10d2742769,SCR,2024-06-21_12h46.47.922,LearnStrategy,2023.2.3,Win32,30.03003003,7,2,16,,,,,,,,7,04,,,,,,,,,,,,,4,4.097,0,,,,,,0.3525,-0.265833333,1,0,0,4.0973,Gabbro_rect,15,0,15,0,1,
6474a3bea5c73f10d2742769,SCR,2024-06-21_12h46.47.922,LearnStrategy,2023.2.3,Win32,30.03003003,8,1,1,-0.03,-0.093333333,1,0,0,0.9007,Gabbro_11,4,11,3,4,0.901,4,11,0.476666667,-0.255,1,0,0,2.9286,Gabbro_rect,4,2.929,1,0,0,0,0,1,,,,,,,,,,,,,
6474a3bea5c73f10d2742769,SCR,2024-06-21_12h46.47.922,LearnStrategy,2023.2.3,Win32,30.03003003,8,1,2,-0.530833333,0.238333333,1,0,0,1.8689,Gabbro_12,4,12,5,1,1.869,4,12,0.340833333,-0.24,1,0,0,3.227,Gabbro_rect,4,3.227,1,1,0,1,0,1,,,,,,,,,,,,,
6474a3bea5c73f10d2742769,SCR,2024-06-21_12h46.47.922,LearnStrategy,2023.2.3,Win32,30.03003003,8,1,3,-0.214166667,0.386666667,1,0,0,1.5323,Basalt_14,2,14,6,3,1.532,2,14,-0.154166667,-0.258333333,1,0,0,3.5937,Basalt_rect,2,3.594,1,2,0,2,0,1,,,,,,,,,,,,,
6474a3bea5c73f10d2742769,SCR,2024-06-21_12h46.47.922,LearnStrategy,2023.2.3,Win32,30.03003003,8,1,4,-0.090833333,0.383333333,1,0,0,1.5677,Diorite_14,3,14,6,4,1.568,3,14,0.14,-0.2625,1,0,0,1.3201,Diorite_rect,3,1.32,1,3,0,3,0,1,,,,,,,,,,,,,
6474a3bea5c73f10d2742769,SCR,2024-06-21_12h46.47.922,LearnStrategy,2023.2.3,Win32,30.03003003,8,1,5,0.540833333,0.373333333,1,0,0,1.3004,Andesite_05,1,05,6,8,1.3,1,05,-0.066666667,-0.405,1,0,0,1.6572,Pegmatite_rect,6,1.657,0,4,0,4,0,1,,,,,,,,,,,,,
6474a3bea5c73f10d2742769,SCR,2024-06-21_12h46.47.922,LearnStrategy,2023.2.3,Win32,30.03003003,8,1,6,-0.053333333,-0.093333333,1,0,0,0.899,Gabbro_11,4,11,3,4,0.899,4,11,0.424166667,-0.249166667,1,0,0,4.1363,Gabbro_rect,4,4.136,1,5,0,5,0,1,,,,,,,,,,,,,
6474a3bea5c73f10d2742769,SCR,2024-06-21_12h46.47.922,LearnStrategy,2023.2.3,Win32,30.03003003,8,1,7,0.344166667,0.106666667,1,0,0,1.3001,Pegmatite_11,6,11,4,7,1.3,6,11,-0.088333333,-0.408333333,1,0,0,0.7542,Pegmatite_rect,6,0.754,1,6,0,6,0,1,,,,,,,,,,,,,
6474a3bea5c73f10d2742769,SCR,2024-06-21_12h46.47.922,LearnStrategy,2023.2.3,Win32,30.03003003,8,1,8,-0.373333333,0.088333333,1,0,0,1.8668,Peridotite_02,7,02,4,2,1.867,7,02,0.134166667,-0.3925,1,0,0,1.4533,Peridotite_rect,7,1.453,1,7,0,7,0,1,,,,,,,,,,,,,
6474a3bea5c73f10d2742769,SCR,2024-06-21_12h46.47.922,LearnStrategy,2023.2.3,Win32,30.03003003,8,1,9,-0.580833333,-0.276666667,1,0,0,2.1361,Peridotite_08,7,08,2,1,2.136,7,08,0.1025,-0.405,1,0,0,1.6243,Peridotite_rect,7,1.624,1,8,0,8,0,1,,,,,,,,,,,,,
6474a3bea5c73f10d2742769,SCR,2024-06-21_12h46.47.922,LearnStrategy,2023.2.3,Win32,30.03003003,8,1,10,-0.089166667,0.091666667,1,0,0,0.9343,Obsidian_02,5,02,4,4,0.934,5,02,-0.431666667,-0.401666667,1,0,0,0.9875,Obsidian_rect,5,0.988,1,9,0,9,0,1,,,,,,,,,,,,,
6474a3bea5c73f10d2742769,SCR,2024-06-21_12h46.47.922,LearnStrategy,2023.2.3,Win32,30.03003003,8,1,11,-0.379166667,0.075,1,0,0,1.1345,Peridotite_02,7,02,4,2,1.134,7,02,0.091666667,-0.395833333,1,0,0,1.1576,Peridotite_rect,7,1.158,1,10,0,10,0,1,,,,,,,,,,,,,
6474a3bea5c73f10d2742769,SCR,2024-06-21_12h46.47.922,LearnStrategy,2023.2.3,Win32,30.03003003,8,1,12,-0.0975,-0.438333333,1,0,0,1.5012,Pegmatite_08,6,08,1,4,1.501,6,08,-0.146666667,-0.3925,1,0,0,0.7884,Pegmatite_rect,6,0.788,1,11,0,11,0,1,,,,,,,,,,,,,
6474a3bea5c73f10d2742769,SCR,2024-06-21_12h46.47.922,LearnStrategy,2023.2.3,Win32,30.03003003,8,1,13,0.391666667,0.376666667,1,0,0,1.6341,Pegmatite_09,6,09,6,7,1.634,6,09,0.18,-0.405833333,1,0,0,1.6551,Peridotite_rect,7,1.655,0,12,0,12,0,1,,,,,,,,,,,,,
6474a3bea5c73f10d2742769,SCR,2024-06-21_12h46.47.922,LearnStrategy,2023.2.3,Win32,30.03003003,8,1,14,-0.0975,-0.233333333,1,0,0,1.1676,Andesite_03,1,03,2,4,1.168,1,03,-0.4275,-0.228333333,1,0,0,1.6242,Andesite_rect,1,1.624,1,13,0,13,0,1,,,,,,,,,,,,,
6474a3bea5c73f10d2742769,SCR,2024-06-21_12h46.47.922,LearnStrategy,2023.2.3,Win32,30.03003003,8,1,15,-0.418333333,-0.070833333,1,0,0,1.5345,Diorite_02,3,02,3,2,1.535,3,02,0.45,-0.2475,1,0,0,2.1255,Gabbro_rect,4,2.125,0,14,0,14,0,1,,,,,,,,,,,,,
6474a3bea5c73f10d2742769,SCR,2024-06-21_12h46.47.922,LearnStrategy,2023.2.3,Win32,30.03003003,8,1,16,0.204166667,-0.396666667,1,0,0,1.602,Diorite_11,3,11,1,6,1.602,4,15,0.111666667,-0.2525,1,0,0,1.7921,Diorite_rect,3,1.792,1,15,0,15,0,1,,,,,,,,,,,,,
6474a3bea5c73f10d2742769,SCR,2024-06-21_12h46.47.922,LearnStrategy,2023.2.3,Win32,30.03003003,8,2,1,,,,,,,,7,14,,,,,,,,,,,,,6,2.626,0,,,,,,-0.145833333,-0.393333333,1,0,0,2.6256,Pegmatite_rect,0,0,0,0,1,
6474a3bea5c73f10d2742769,SCR,2024-06-21_12h46.47.922,LearnStrategy,2023.2.3,Win32,30.03003003,8,2,2,,,,,,,,4,09,,,,,,,,,,,,,2,4.297,0,,,,,,-0.1825,-0.231666667,1,0,0,4.297,Basalt_rect,1,0,1,0,1,
6474a3bea5c73f10d2742769,SCR,2024-06-21_12h46.47.922,LearnStrategy,2023.2.3,Win32,30.03003003,8,2,3,,,,,,,,1,14,,,,,,,,,,,,,1,1.275,1,,,,,,-0.385833333,-0.246666667,1,0,0,1.2753,Andesite_rect,2,0,2,0,1,
6474a3bea5c73f10d2742769,SCR,2024-06-21_12h46.47.922,LearnStrategy,2023.2.3,Win32,30.03003003,8,2,4,,,,,,,,2,16,,,,,,,,,,,,,2,1.489,1,,,,,,-0.2275,-0.259166667,1,0,0,1.4892,Basalt_rect,3,0,3,0,1,
6474a3bea5c73f10d2742769,SCR,2024-06-21_12h46.47.922,LearnStrategy,2023.2.3,Win32,30.03003003,8,2,5,,,,,,,,6,10,,,,,,,,,,,,,6,4.265,1,,,,,,-0.11,-0.409166667,1,0,0,4.265,Pegmatite_rect,4,0,4,0,1,
6474a3bea5c73f10d2742769,SCR,2024-06-21_12h46.47.922,LearnStrategy,2023.2.3,Win32,30.03003003,8,2,6,,,,,,,,2,08,,,,,,,,,,,,,2,3.122,1,,,,,,-0.0725,-0.26,1,0,0,3.1222,Basalt_rect,5,0,5,0,1,
6474a3bea5c73f10d2742769,SCR,2024-06-21_12h46.47.922,LearnStrategy,2023.2.3,Win32,30.03003003,8,2,7,,,,,,,,5,07,,,,,,,,,,,,,5,1.075,1,,,,,,-0.358333333,-0.398333333,1,0,0,1.0747,Obsidian_rect,6,0,6,0,1,
6474a3bea5c73f10d2742769,SCR,2024-06-21_12h46.47.922,LearnStrategy,2023.2.3,Win32,30.03003003,8,2,8,,,,,,,,1,07,,,,,,,,,,,,,3,2.659,0,,,,,,0.194166667,-0.27,1,0,0,2.6585,Diorite_rect,7,0,7,0,1,
6474a3bea5c73f10d2742769,SCR,2024-06-21_12h46.47.922,LearnStrategy,2023.2.3,Win32,30.03003003,8,2,9,,,,,,,,4,16,,,,,,,,,,,,,2,2.046,0,,,,,,-0.081666667,-0.256666667,1,0,0,2.0458,Basalt_rect,8,0,8,0,1,
6474a3bea5c73f10d2742769,SCR,2024-06-21_12h46.47.922,LearnStrategy,2023.2.3,Win32,30.03003003,8,2,10,,,,,,,,5,10,,,,,,,,,,,,,5,1.19,1,,,,,,-0.335,-0.381666667,1,0,0,1.19,Obsidian_rect,9,0,9,0,1,
6474a3bea5c73f10d2742769,SCR,2024-06-21_12h46.47.922,LearnStrategy,2023.2.3,Win32,30.03003003,8,2,11,,,,,,,,8,02,,,,,,,,,,,,,8,1.056,1,,,,,,0.4125,-0.388333333,1,0,0,1.0563,Pumice_rect,10,0,10,0,1,
6474a3bea5c73f10d2742769,SCR,2024-06-21_12h46.47.922,LearnStrategy,2023.2.3,Win32,30.03003003,8,2,12,,,,,,,,8,04,,,,,,,,,,,,,8,0.89,1,,,,,,0.3825,-0.4,1,0,0,0.8899,Pumice_rect,11,0,11,0,1,
6474a3bea5c73f10d2742769,SCR,2024-06-21_12h46.47.922,LearnStrategy,2023.2.3,Win32,30.03003003,8,2,13,,,,,,,,7,15,,,,,,,,,,,,,7,1.591,1,,,,,,0.195833333,-0.410833333,1,0,0,1.5911,Peridotite_rect,12,0,12,0,1,
6474a3bea5c73f10d2742769,SCR,2024-06-21_12h46.47.922,LearnStrategy,2023.2.3,Win32,30.03003003,8,2,14,,,,,,,,3,13,,,,,,,,,,,,,3,1.524,1,,,,,,0.148333333,-0.26,1,0,0,1.5241,Diorite_rect,13,0,13,0,1,
6474a3bea5c73f10d2742769,SCR,2024-06-21_12h46.47.922,LearnStrategy,2023.2.3,Win32,30.03003003,8,2,15,,,,,,,,6,03,,,,,,,,,,,,,7,2.293,0,,,,,,0.149166667,-0.400833333,1,0,0,2.293,Peridotite_rect,14,0,14,0,1,
6474a3bea5c73f10d2742769,SCR,2024-06-21_12h46.47.922,LearnStrategy,2023.2.3,Win32,30.03003003,8,2,16,,,,,,,,3,09,,,,,,,,,,,,,3,1.659,1,,,,,,0.15,-0.245,1,0,0,1.6586,Diorite_rect,15,0,15,0,1,
6474a3bea5c73f10d2742769,SCR,2024-06-21_12h46.47.922,LearnStrategy,2023.2.3,Win32,30.03003003,9,1,1,0.575,0.4325,1,0,0,2.2704,Andesite_05,1,05,6,8,2.27,1,05,0.43,-0.2375,1,0,0,1.2888,Gabbro_rect,4,1.289,0,0,0,0,0,1,,,,,,,,,,,,,
6474a3bea5c73f10d2742769,SCR,2024-06-21_12h46.47.922,LearnStrategy,2023.2.3,Win32,30.03003003,9,1,2,-0.376666667,-0.264166667,1,0,0,2.3371,Peridotite_10,7,10,2,2,2.337,7,10,0.143333333,-0.418333333,1,0,0,1.3907,Peridotite_rect,7,1.391,1,1,0,1,0,1,,,,,,,,,,,,,
6474a3bea5c73f10d2742769,SCR,2024-06-21_12h46.47.922,LearnStrategy,2023.2.3,Win32,30.03003003,9,1,3,-0.195,0.1,1,0,0,1.0666,Pegmatite_12,6,12,4,3,1.067,6,12,-0.145,-0.379166667,1,0,0,1.6899,Pegmatite_rect,6,1.69,1,2,0,2,0,1,,,,,,,,,,,,,
6474a3bea5c73f10d2742769,SCR,2024-06-21_12h46.47.922,LearnStrategy,2023.2.3,Win32,30.03003003,9,1,4,-0.059166667,0.090833333,1,0,0,0.8669,Obsidian_02,5,02,4,4,0.867,5,02,-0.3925,-0.388333333,1,0,0,1.6569,Obsidian_rect,5,1.657,1,3,0,3,0,1,,,,,,,,,,,,,
6474a3bea5c73f10d2742769,SCR,2024-06-21_12h46.47.922,LearnStrategy,2023.2.3,Win32,30.03003003,9,1,5,0.06,-0.236666667,1,0,0,0.999,Gabbro_01,4,01,2,5,0.999,4,01,0.383333333,-0.239166667,1,0,0,1.6908,Gabbro_rect,4,1.691,1,4,0,4,0,1,,,,,,,,,,,,,
6474a3bea5c73f10d2742769,SCR,2024-06-21_12h46.47.922,LearnStrategy,2023.2.3,Win32,30.03003003,9,1,6,-0.534166667,0.123333333,1,0,0,1.8335,Andesite_04,1,04,4,1,1.833,1,04,-0.355833333,-0.240833333,1,0,0,2.4243,Andesite_rect,1,2.424,1,5,0,5,0,1,,,,,,,,,,,,,
6474a3bea5c73f10d2742769,SCR,2024-06-21_12h46.47.922,LearnStrategy,2023.2.3,Win32,30.03003003,9,1,7,-0.555,0.279166667,1,0,0,1.6011,Gabbro_12,4,12,5,1,1.601,4,12,-0.365,-0.260833333,1,0,0,1.9244,Andesite_rect,1,1.924,0,6,0,6,0,1,,,,,,,,,,,,,
6474a3bea5c73f10d2742769,SCR,2024-06-21_12h46.47.922,LearnStrategy,2023.2.3,Win32,30.03003003,9,1,8,-0.0875,0.260833333,1,0,0,1.2333,Basalt_05,2,05,5,4,1.233,2,05,-0.163333333,-0.2325,1,0,0,1.2554,Basalt_rect,2,1.255,1,7,0,7,0,1,,,,,,,,,,,,,
6474a3bea5c73f10d2742769,SCR,2024-06-21_12h46.47.922,LearnStrategy,2023.2.3,Win32,30.03003003,9,1,9,-0.438333333,0.308333333,1,0,0,1.4336,Gabbro_15,4,15,5,2,1.434,4,15,-0.1325,-0.393333333,1,0,0,1.6235,Pegmatite_rect,6,1.623,0,8,0,8,0,1,,,,,,,,,,,,,
6474a3bea5c73f10d2742769,SCR,2024-06-21_12h46.47.922,LearnStrategy,2023.2.3,Win32,30.03003003,9,1,10,-0.095833333,-0.141666667,1,0,0,3.0384,Gabbro_11,4,11,3,4,3.038,4,10,0.346666667,-0.264166667,1,0,0,1.562,Gabbro_rect,4,1.562,1,9,0,9,0,1,,,,,,,,,,,,,
6474a3bea5c73f10d2742769,SCR,2024-06-21_12h46.47.922,LearnStrategy,2023.2.3,Win32,30.03003003,9,1,11,-0.401666667,0.103333333,1,0,0,1.4006,Peridotite_02,7,02,4,2,1.401,8,05,0.175833333,-0.401666667,1,0,0,1.5275,Peridotite_rect,7,1.527,1,10,0,10,0,1,,,,,,,,,,,,,
6474a3bea5c73f10d2742769,SCR,2024-06-21_12h46.47.922,LearnStrategy,2023.2.3,Win32,30.03003003,9,1,12,0.43,-0.449166667,1,0,0,1.0672,Pegmatite_07,6,07,1,7,1.067,6,07,-0.0775,-0.394166667,1,0,0,0.8221,Pegmatite_rect,6,0.822,1,11,0,11,0,1,,,,,,,,,,,,,
6474a3bea5c73f10d2742769,SCR,2024-06-21_12h46.47.922,LearnStrategy,2023.2.3,Win32,30.03003003,9,1,13,-0.255,-0.270833333,1,0,0,1.2004,Basalt_09,2,09,2,3,1.2,6,15,-0.159166667,-0.241666667,1,0,0,1.2585,Basalt_rect,2,1.258,1,12,0,12,0,1,,,,,,,,,,,,,
6474a3bea5c73f10d2742769,SCR,2024-06-21_12h46.47.922,LearnStrategy,2023.2.3,Win32,30.03003003,9,1,14,-0.540833333,0.0975,1,0,0,1.3343,Andesite_04,1,04,4,1,1.334,7,13,-0.426666667,-0.235,1,0,0,1.5249,Andesite_rect,1,1.525,1,13,0,13,0,1,,,,,,,,,,,,,
6474a3bea5c73f10d2742769,SCR,2024-06-21_12h46.47.922,LearnStrategy,2023.2.3,Win32,30.03003003,9,1,15,-0.574166667,-0.2325,1,0,0,1.0332,Peridotite_08,7,08,2,1,1.033,7,08,0.345833333,-0.249166667,1,0,0,2.1911,Gabbro_rect,4,2.191,0,14,0,14,0,1,,,,,,,,,,,,,
6474a3bea5c73f10d2742769,SCR,2024-06-21_12h46.47.922,LearnStrategy,2023.2.3,Win32,30.03003003,9,1,16,0.541666667,0.1,1,0,0,1.2995,Peridotite_12,7,12,4,8,1.3,3,10,0.351666667,-0.244166667,1,0,0,2.9349,Gabbro_rect,4,2.935,0,15,0,15,0,1,,,,,,,,,,,,,
6474a3bea5c73f10d2742769,SCR,2024-06-21_12h46.47.922,LearnStrategy,2023.2.3,Win32,30.03003003,9,2,1,,,,,,,,6,06,,,,,,,,,,,,,6,2.801,1,,,,,,-0.12,-0.386666667,1,0,0,2.8014,Pegmatite_rect,0,0,0,0,1,
6474a3bea5c73f10d2742769,SCR,2024-06-21_12h46.47.922,LearnStrategy,2023.2.3,Win32,30.03003003,9,2,2,,,,,,,,2,02,,,,,,,,,,,,,2,1.475,1,,,,,,-0.1175,-0.254166667,1,0,0,1.4753,Basalt_rect,1,0,1,0,1,
6474a3bea5c73f10d2742769,SCR,2024-06-21_12h46.47.922,LearnStrategy,2023.2.3,Win32,30.03003003,9,2,3,,,,,,,,5,04,,,,,,,,,,,,,5,1.157,1,,,,,,-0.378333333,-0.389166667,1,0,0,1.1566,Obsidian_rect,2,0,2,0,1,
6474a3bea5c73f10d2742769,SCR,2024-06-21_12h46.47.922,LearnStrategy,2023.2.3,Win32,30.03003003,9,2,4,,,,,,,,4,08,,,,,,,,,,,,,4,9.208,1,,,,,,0.3625,-0.2475,1,0,0,9.2077,Gabbro_rect,3,0,3,0,1,
6474a3bea5c73f10d2742769,SCR,2024-06-21_12h46.47.922,LearnStrategy,2023.2.3,Win32,30.03003003,9,2,5,,,,,,,,8,13,,,,,,,,,,,,,8,1.309,1,,,,,,0.380833333,-0.380833333,1,0,0,1.3088,Pumice_rect,4,0,4,0,1,
6474a3bea5c73f10d2742769,SCR,2024-06-21_12h46.47.922,LearnStrategy,2023.2.3,Win32,30.03003003,9,2,6,,,,,,,,5,12,,,,,,,,,,,,,5,1.291,1,,,,,,-0.35,-0.415833333,1,0,0,1.2906,Obsidian_rect,5,0,5,0,1,
6474a3bea5c73f10d2742769,SCR,2024-06-21_12h46.47.922,LearnStrategy,2023.2.3,Win32,30.03003003,9,2,7,,,,,,,,4,03,,,,,,,,,,,,,3,4.598,0,,,,,,0.09,-0.256666667,1,0,0,4.5977,Diorite_rect,6,0,6,0,1,
6474a3bea5c73f10d2742769,SCR,2024-06-21_12h46.47.922,LearnStrategy,2023.2.3,Win32,30.03003003,9,2,8,,,,,,,,3,16,,,,,,,,,,,,,3,0.9,1,,,,,,0.09,-0.256666667,1,0,0,0.8998,Diorite_rect,7,0,7,0,1,
6474a3bea5c73f10d2742769,SCR,2024-06-21_12h46.47.922,LearnStrategy,2023.2.3,Win32,30.03003003,9,2,9,,,,,,,,7,06,,,,,,,,,,,,,6,1.621,0,,,,,,-0.148333333,-0.411666667,1,0,0,1.6207,Pegmatite_rect,8,0,8,0,1,
6474a3bea5c73f10d2742769,SCR,2024-06-21_12h46.47.922,LearnStrategy,2023.2.3,Win32,30.03003003,9,2,10,,,,,,,,1,06,,,,,,,,,,,,,1,1.754,1,,,,,,-0.365,-0.236666667,1,0,0,1.7542,Andesite_rect,9,0,9,0,1,
6474a3bea5c73f10d2742769,SCR,2024-06-21_12h46.47.922,LearnStrategy,2023.2.3,Win32,30.03003003,9,2,11,,,,,,,,6,05,,,,,,,,,,,,,6,3.83,1,,,,,,-0.136666667,-0.4075,1,0,0,3.8299,Pegmatite_rect,10,0,10,0,1,
6474a3bea5c73f10d2742769,SCR,2024-06-21_12h46.47.922,LearnStrategy,2023.2.3,Win32,30.03003003,9,2,12,,,,,,,,2,12,,,,,,,,,,,,,2,2.645,1,,,,,,-0.119166667,-0.2625,1,0,0,2.6452,Basalt_rect,11,0,11,0,1,
6474a3bea5c73f10d2742769,SCR,2024-06-21_12h46.47.922,LearnStrategy,2023.2.3,Win32,30.03003003,9,2,13,,,,,,,,3,08,,,,,,,,,,,,,3,1.375,1,,,,,,0.096666667,-0.258333333,1,0,0,1.3746,Diorite_rect,12,0,12,0,1,
6474a3bea5c73f10d2742769,SCR,2024-06-21_12h46.47.922,LearnStrategy,2023.2.3,Win32,30.03003003,9,2,14,,,,,,,,7,16,,,,,,,,,,,,,7,1.525,1,,,,,,0.058333333,-0.405833333,1,0,0,1.5247,Peridotite_rect,13,0,13,0,1,
6474a3bea5c73f10d2742769,SCR,2024-06-21_12h46.47.922,LearnStrategy,2023.2.3,Win32,30.03003003,9,2,15,,,,,,,,8,03,,,,,,,,,,,,,8,1.224,1,,,,,,0.3625,-0.3825,1,0,0,1.2237,Pumice_rect,14,0,14,0,1,
6474a3bea5c73f10d2742769,SCR,2024-06-21_12h46.47.922,LearnStrategy,2023.2.3,Win32,30.03003003,9,2,16,,,,,,,,1,16,,,,,,,,,,,,,4,1.357,0,,,,,,0.368333333,-0.265833333,1,0,0,1.3567,Gabbro_rect,15,0,15,0,1,
6474a3bea5c73f10d2742769,SCR,2024-06-21_12h46.47.922,LearnStrategy,2023.2.3,Win32,30.03003003,,,,,,,,,,,,,,,,,,,,,,,,,,,,,,,,,,,,,,,,,,,,,1
6474a3bea5c73f10d2742769,SCR,2024-06-21_12h46.47.922,LearnStrategy,2023.2.3,Win32,30.03003003,,,,,,,,,,,,,,,,,,,,,,,,,,,,,,,,,,,,,,,,,,,,,
6474a3bea5c73f10d2742769,SCR,2024-06-21_12h46.47.922,LearnStrategy,2023.2.3,Win32,30.03003003,,,,,,,,,,,4,13,1,1,,,,,,,,,,,,,,,,,,,,,,,,,,,,,,,
6474a3bea5c73f10d2742769,SCR,2024-06-21_12h46.47.922,LearnStrategy,2023.2.3,Win32,30.03003003,,,,,,,,,,,2,10,1,2,,,,,,,,,,,,,,,,,,,,,,,,,,,,,,,
6474a3bea5c73f10d2742769,SCR,2024-06-21_12h46.47.922,LearnStrategy,2023.2.3,Win32,30.03003003,,,,,,,,,,,5,05,1,3,,,,,,,,,,,,,,,,,,,,,,,,,,,,,,,
6474a3bea5c73f10d2742769,SCR,2024-06-21_12h46.47.922,LearnStrategy,2023.2.3,Win32,30.03003003,,,,,,,,,,,6,08,1,4,,,,,,,,,,,,,,,,,,,,,,,,,,,,,,,
6474a3bea5c73f10d2742769,SCR,2024-06-21_12h46.47.922,LearnStrategy,2023.2.3,Win32,30.03003003,,,,,,,,,,,8,10,1,5,,,,,,,,,,,,,,,,,,,,,,,,,,,,,,,
6474a3bea5c73f10d2742769,SCR,2024-06-21_12h46.47.922,LearnStrategy,2023.2.3,Win32,30.03003003,,,,,,,,,,,3,11,1,6,,,,,,,,,,,,,,,,,,,,,,,,,,,,,,,
6474a3bea5c73f10d2742769,SCR,2024-06-21_12h46.47.922,LearnStrategy,2023.2.3,Win32,30.03003003,,,,,,,,,,,6,07,1,7,,,,,,,,,,,,,,,,,,,,,,,,,,,,,,,
6474a3bea5c73f10d2742769,SCR,2024-06-21_12h46.47.922,LearnStrategy,2023.2.3,Win32,30.03003003,,,,,,,,,,,7,13,1,8,,,,,,,,,,,,,,,,,,,,,,,,,,,,,,,
6474a3bea5c73f10d2742769,SCR,2024-06-21_12h46.47.922,LearnStrategy,2023.2.3,Win32,30.03003003,,,,,,,,,,,7,08,2,1,,,,,,,,,,,,,,,,,,,,,,,,,,,,,,,
6474a3bea5c73f10d2742769,SCR,2024-06-21_12h46.47.922,LearnStrategy,2023.2.3,Win32,30.03003003,,,,,,,,,,,7,10,2,2,,,,,,,,,,,,,,,,,,,,,,,,,,,,,,,
6474a3bea5c73f10d2742769,SCR,2024-06-21_12h46.47.922,LearnStrategy,2023.2.3,Win32,30.03003003,,,,,,,,,,,2,09,2,3,,,,,,,,,,,,,,,,,,,,,,,,,,,,,,,
6474a3bea5c73f10d2742769,SCR,2024-06-21_12h46.47.922,LearnStrategy,2023.2.3,Win32,30.03003003,,,,,,,,,,,1,03,2,4,,,,,,,,,,,,,,,,,,,,,,,,,,,,,,,
6474a3bea5c73f10d2742769,SCR,2024-06-21_12h46.47.922,LearnStrategy,2023.2.3,Win32,30.03003003,,,,,,,,,,,4,01,2,5,,,,,,,,,,,,,,,,,,,,,,,,,,,,,,,
6474a3bea5c73f10d2742769,SCR,2024-06-21_12h46.47.922,LearnStrategy,2023.2.3,Win32,30.03003003,,,,,,,,,,,3,06,2,6,,,,,,,,,,,,,,,,,,,,,,,,,,,,,,,
6474a3bea5c73f10d2742769,SCR,2024-06-21_12h46.47.922,LearnStrategy,2023.2.3,Win32,30.03003003,,,,,,,,,,,8,14,2,7,,,,,,,,,,,,,,,,,,,,,,,,,,,,,,,
6474a3bea5c73f10d2742769,SCR,2024-06-21_12h46.47.922,LearnStrategy,2023.2.3,Win32,30.03003003,,,,,,,,,,,5,08,2,8,,,,,,,,,,,,,,,,,,,,,,,,,,,,,,,
6474a3bea5c73f10d2742769,SCR,2024-06-21_12h46.47.922,LearnStrategy,2023.2.3,Win32,30.03003003,,,,,,,,,,,4,10,3,1,,,,,,,,,,,,,,,,,,,,,,,,,,,,,,,
6474a3bea5c73f10d2742769,SCR,2024-06-21_12h46.47.922,LearnStrategy,2023.2.3,Win32,30.03003003,,,,,,,,,,,3,02,3,2,,,,,,,,,,,,,,,,,,,,,,,,,,,,,,,
6474a3bea5c73f10d2742769,SCR,2024-06-21_12h46.47.922,LearnStrategy,2023.2.3,Win32,30.03003003,,,,,,,,,,,5,11,3,3,,,,,,,,,,,,,,,,,,,,,,,,,,,,,,,
6474a3bea5c73f10d2742769,SCR,2024-06-21_12h46.47.922,LearnStrategy,2023.2.3,Win32,30.03003003,,,,,,,,,,,4,11,3,4,,,,,,,,,,,,,,,,,,,,,,,,,,,,,,,
6474a3bea5c73f10d2742769,SCR,2024-06-21_12h46.47.922,LearnStrategy,2023.2.3,Win32,30.03003003,,,,,,,,,,,8,15,3,5,,,,,,,,,,,,,,,,,,,,,,,,,,,,,,,
6474a3bea5c73f10d2742769,SCR,2024-06-21_12h46.47.922,LearnStrategy,2023.2.3,Win32,30.03003003,,,,,,,,,,,1,01,3,6,,,,,,,,,,,,,,,,,,,,,,,,,,,,,,,
6474a3bea5c73f10d2742769,SCR,2024-06-21_12h46.47.922,LearnStrategy,2023.2.3,Win32,30.03003003,,,,,,,,,,,3,07,3,7,,,,,,,,,,,,,,,,,,,,,,,,,,,,,,,
6474a3bea5c73f10d2742769,SCR,2024-06-21_12h46.47.922,LearnStrategy,2023.2.3,Win32,30.03003003,,,,,,,,,,,3,10,3,8,,,,,,,,,,,,,,,,,,,,,,,,,,,,,,,
6474a3bea5c73f10d2742769,SCR,2024-06-21_12h46.47.922,LearnStrategy,2023.2.3,Win32,30.03003003,,,,,,,,,,,1,04,4,1,,,,,,,,,,,,,,,,,,,,,,,,,,,,,,,
6474a3bea5c73f10d2742769,SCR,2024-06-21_12h46.47.922,LearnStrategy,2023.2.3,Win32,30.03003003,,,,,,,,,,,7,02,4,2,,,,,,,,,,,,,,,,,,,,,,,,,,,,,,,
6474a3bea5c73f10d2742769,SCR,2024-06-21_12h46.47.922,LearnStrategy,2023.2.3,Win32,30.03003003,,,,,,,,,,,6,12,4,3,,,,,,,,,,,,,,,,,,,,,,,,,,,,,,,
6474a3bea5c73f10d2742769,SCR,2024-06-21_12h46.47.922,LearnStrategy,2023.2.3,Win32,30.03003003,,,,,,,,,,,5,02,4,4,,,,,,,,,,,,,,,,,,,,,,,,,,,,,,,
6474a3bea5c73f10d2742769,SCR,2024-06-21_12h46.47.922,LearnStrategy,2023.2.3,Win32,30.03003003,,,,,,,,,,,5,09,4,5,,,,,,,,,,,,,,,,,,,,,,,,,,,,,,,
6474a3bea5c73f10d2742769,SCR,2024-06-21_12h46.47.922,LearnStrategy,2023.2.3,Win32,30.03003003,,,,,,,,,,,8,16,4,6,,,,,,,,,,,,,,,,,,,,,,,,,,,,,,,
6474a3bea5c73f10d2742769,SCR,2024-06-21_12h46.47.922,LearnStrategy,2023.2.3,Win32,30.03003003,,,,,,,,,,,6,11,4,7,,,,,,,,,,,,,,,,,,,,,,,,,,,,,,,
6474a3bea5c73f10d2742769,SCR,2024-06-21_12h46.47.922,LearnStrategy,2023.2.3,Win32,30.03003003,,,,,,,,,,,7,12,4,8,,,,,,,,,,,,,,,,,,,,,,,,,,,,,,,
6474a3bea5c73f10d2742769,SCR,2024-06-21_12h46.47.922,LearnStrategy,2023.2.3,Win32,30.03003003,,,,,,,,,,,4,12,5,1,,,,,,,,,,,,,,,,,,,,,,,,,,,,,,,
6474a3bea5c73f10d2742769,SCR,2024-06-21_12h46.47.922,LearnStrategy,2023.2.3,Win32,30.03003003,,,,,,,,,,,4,15,5,2,,,,,,,,,,,,,,,,,,,,,,,,,,,,,,,
6474a3bea5c73f10d2742769,SCR,2024-06-21_12h46.47.922,LearnStrategy,2023.2.3,Win32,30.03003003,,,,,,,,,,,7,07,5,3,,,,,,,,,,,,,,,,,,,,,,,,,,,,,,,
6474a3bea5c73f10d2742769,SCR,2024-06-21_12h46.47.922,LearnStrategy,2023.2.3,Win32,30.03003003,,,,,,,,,,,2,05,5,4,,,,,,,,,,,,,,,,,,,,,,,,,,,,,,,
6474a3bea5c73f10d2742769,SCR,2024-06-21_12h46.47.922,LearnStrategy,2023.2.3,Win32,30.03003003,,,,,,,,,,,2,06,5,5,,,,,,,,,,,,,,,,,,,,,,,,,,,,,,,
6474a3bea5c73f10d2742769,SCR,2024-06-21_12h46.47.922,LearnStrategy,2023.2.3,Win32,30.03003003,,,,,,,,,,,1,11,5,6,,,,,,,,,,,,,,,,,,,,,,,,,,,,,,,
6474a3bea5c73f10d2742769,SCR,2024-06-21_12h46.47.922,LearnStrategy,2023.2.3,Win32,30.03003003,,,,,,,,,,,8,08,5,7,,,,,,,,,,,,,,,,,,,,,,,,,,,,,,,
6474a3bea5c73f10d2742769,SCR,2024-06-21_12h46.47.922,LearnStrategy,2023.2.3,Win32,30.03003003,,,,,,,,,,,5,06,5,8,,,,,,,,,,,,,,,,,,,,,,,,,,,,,,,
6474a3bea5c73f10d2742769,SCR,2024-06-21_12h46.47.922,LearnStrategy,2023.2.3,Win32,30.03003003,,,,,,,,,,,8,05,6,1,,,,,,,,,,,,,,,,,,,,,,,,,,,,,,,
6474a3bea5c73f10d2742769,SCR,2024-06-21_12h46.47.922,LearnStrategy,2023.2.3,Win32,30.03003003,,,,,,,,,,,2,01,6,2,,,,,,,,,,,,,,,,,,,,,,,,,,,,,,,
6474a3bea5c73f10d2742769,SCR,2024-06-21_12h46.47.922,LearnStrategy,2023.2.3,Win32,30.03003003,,,,,,,,,,,2,14,6,3,,,,,,,,,,,,,,,,,,,,,,,,,,,,,,,
6474a3bea5c73f10d2742769,SCR,2024-06-21_12h46.47.922,LearnStrategy,2023.2.3,Win32,30.03003003,,,,,,,,,,,3,14,6,4,,,,,,,,,,,,,,,,,,,,,,,,,,,,,,,
6474a3bea5c73f10d2742769,SCR,2024-06-21_12h46.47.922,LearnStrategy,2023.2.3,Win32,30.03003003,,,,,,,,,,,1,02,6,5,,,,,,,,,,,,,,,,,,,,,,,,,,,,,,,
6474a3bea5c73f10d2742769,SCR,2024-06-21_12h46.47.922,LearnStrategy,2023.2.3,Win32,30.03003003,,,,,,,,,,,6,15,6,6,,,,,,,,,,,,,,,,,,,,,,,,,,,,,,,
6474a3bea5c73f10d2742769,SCR,2024-06-21_12h46.47.922,LearnStrategy,2023.2.3,Win32,30.03003003,,,,,,,,,,,6,09,6,7,,,,,,,,,,,,,,,,,,,,,,,,,,,,,,,
6474a3bea5c73f10d2742769,SCR,2024-06-21_12h46.47.922,LearnStrategy,2023.2.3,Win32,30.03003003,,,,,,,,,,,1,05,6,8,,,,,,,,,,,,,,,,,,,,,,,,,,,,,,,