participant,condition,date,expName,psychopyVersion,OS,frameRate,block,phase,trial,learn_mouse.x,learn_mouse.y,learn_mouse.leftButton,learn_mouse.midButton,learn_mouse.rightButton,learn_mouse.time,learn_mouse.clicked_name,cat,token,row,col,t_select,cat_mouse_l.x,cat_mouse_l.y,cat_mouse_l.leftButton,cat_mouse_l.midButton,cat_mouse_l.rightButton,cat_mouse_l.time,cat_mouse_l.clicked_name,resp,t_resp,corr,train_trials.thisRepN,train_trials.thisTrialN,train_trials.thisN,train_trials.thisIndex,train_trials.ran,cat_mouse_t.x,cat_mouse_t.y,cat_mouse_t.leftButton,cat_mouse_t.midButton,cat_mouse_t.rightButton,cat_mouse_t.time,cat_mouse_t.clicked_name,test_trials.thisRepN,test_trials.thisTrialN,test_trials.thisN,test_trials.thisIndex,test_trials.ran,Bonus
64a03e8c3fdf9acaea61a0fb,SCN,2024-06-24_16h40.25.955,LearnStrategy,2023.2.3,Win32,60.24096386,,,,,,,,,,,,,,,,,,,,,,,,,,,,,,,,,,,,,,,,,,,
64a03e8c3fdf9acaea61a0fb,SCN,2024-06-24_16h40.25.955,LearnStrategy,2023.2.3,Win32,60.24096386,1,1,1,-0.53125,0.41015625,1,0,0,8.5573,Pumice_06,8,06,6,1,8.557,0.38671875,-0.399739583,1,0,0,5.1658,Pumice_rect,8,5.166,1,0,0,0,0,1,,,,,,,,,,,,,
64a03e8c3fdf9acaea61a0fb,SCN,2024-06-24_16h40.25.955,LearnStrategy,2023.2.3,Win32,60.24096386,1,1,2,-0.388020833,0.403645833,1,0,0,1.5452,Diorite_08,3,08,6,2,1.545,0.063802083,-0.3828125,1,0,0,5.9794,Peridotite_rect,7,5.979,0,1,0,1,0,1,,,,,,,,,,,,,
64a03e8c3fdf9acaea61a0fb,SCN,2024-06-24_16h40.25.955,LearnStrategy,2023.2.3,Win32,60.24096386,1,1,3,-0.23046875,0.390625,1,0,0,2.7608,Gabbro_11,4,11,6,3,2.761,-0.364583333,-0.3984375,1,0,0,9.0287,Obsidian_rect,5,9.029,0,2,0,2,0,1,,,,,,,,,,,,,
64a03e8c3fdf9acaea61a0fb,SCN,2024-06-24_16h40.25.955,LearnStrategy,2023.2.3,Win32,60.24096386,1,1,4,-0.100260417,0.365885417,1,0,0,2.1786,Pumice_03,8,03,6,4,2.179,0.326822917,-0.39453125,1,0,0,1.6022,Pumice_rect,8,1.602,1,3,0,3,0,1,,,,,,,,,,,,,
64a03e8c3fdf9acaea61a0fb,SCN,2024-06-24_16h40.25.955,LearnStrategy,2023.2.3,Win32,60.24096386,1,1,5,0.235677083,0.393229167,1,0,0,2.1118,Peridotite_14,7,14,6,6,2.112,-0.39453125,-0.248697917,1,0,0,5.4328,Andesite_rect,1,5.433,0,4,0,4,0,1,,,,,,,,,,,,,
64a03e8c3fdf9acaea61a0fb,SCN,2024-06-24_16h40.25.955,LearnStrategy,2023.2.3,Win32,60.24096386,1,1,6,0.38671875,0.432291667,1,0,0,2.4686,Diorite_07,3,07,6,7,2.469,-0.46484375,-0.407552083,1,0,0,7.5886,Obsidian_rect,5,7.589,0,5,0,5,0,1,,,,,,,,,,,,,
64a03e8c3fdf9acaea61a0fb,SCN,2024-06-24_16h40.25.955,LearnStrategy,2023.2.3,Win32,60.24096386,1,1,7,0.576822917,0.41796875,1,0,0,1.8122,Pegmatite_10,6,10,6,8,1.812,-0.19140625,-0.397135417,1,0,0,7.8961,Pegmatite_rect,6,7.896,1,6,0,6,0,1,,,,,,,,,,,,,
64a03e8c3fdf9acaea61a0fb,SCN,2024-06-24_16h40.25.955,LearnStrategy,2023.2.3,Win32,60.24096386,1,1,8,-0.5625,0.26171875,1,0,0,2.0612,Diorite_16,3,16,5,1,2.061,0.131510417,-0.419270833,1,0,0,7.2981,Peridotite_rect,7,7.298,0,7,0,7,0,1,,,,,,,,,,,,,
64a03e8c3fdf9acaea61a0fb,SCN,2024-06-24_16h40.25.955,LearnStrategy,2023.2.3,Win32,60.24096386,1,1,9,-0.227864583,0.265625,1,0,0,1.5291,Obsidian_05,5,05,5,3,1.529,-0.178385417,-0.2578125,1,0,0,6.3316,Basalt_rect,2,6.332,0,8,0,8,0,1,,,,,,,,,,,,,
64a03e8c3fdf9acaea61a0fb,SCN,2024-06-24_16h40.25.955,LearnStrategy,2023.2.3,Win32,60.24096386,1,1,10,0.072916667,0.255208333,1,0,0,1.8958,Peridotite_15,7,15,5,5,1.896,0.415364583,-0.235677083,1,0,0,5.0997,Gabbro_rect,4,5.1,0,9,0,9,0,1,,,,,,,,,,,,,
64a03e8c3fdf9acaea61a0fb,SCN,2024-06-24_16h40.25.955,LearnStrategy,2023.2.3,Win32,60.24096386,1,1,11,-0.3828125,0.091145833,1,0,0,6.3398,Basalt_05,2,05,4,2,6.34,-0.165364583,-0.229166667,1,0,0,2.9019,Basalt_rect,2,2.902,1,10,0,10,0,1,,,,,,,,,,,,,
64a03e8c3fdf9acaea61a0fb,SCN,2024-06-24_16h40.25.955,LearnStrategy,2023.2.3,Win32,60.24096386,1,1,12,0.053385417,0.1171875,1,0,0,1.7612,Obsidian_04,5,04,4,5,1.761,-0.359375,-0.389322917,1,0,0,3.334,Obsidian_rect,5,3.334,1,11,0,11,0,1,,,,,,,,,,,,,
64a03e8c3fdf9acaea61a0fb,SCN,2024-06-24_16h40.25.955,LearnStrategy,2023.2.3,Win32,60.24096386,1,1,13,0.209635417,0.096354167,1,0,0,3.3971,Pegmatite_05,6,05,4,6,3.397,0.118489583,-0.401041667,1,0,0,2.4515,Peridotite_rect,7,2.452,0,12,0,12,0,1,,,,,,,,,,,,,
64a03e8c3fdf9acaea61a0fb,SCN,2024-06-24_16h40.25.955,LearnStrategy,2023.2.3,Win32,60.24096386,1,1,14,0.540364583,0.1171875,1,0,0,2.5629,Andesite_03,1,03,4,8,2.563,0.42578125,-0.23046875,1,0,0,4.9006,Gabbro_rect,4,4.901,0,13,0,13,0,1,,,,,,,,,,,,,
64a03e8c3fdf9acaea61a0fb,SCN,2024-06-24_16h40.25.955,LearnStrategy,2023.2.3,Win32,60.24096386,1,1,15,-0.380208333,-0.092447917,1,0,0,2.6104,Gabbro_12,4,12,3,2,2.61,-0.395833333,-0.263020833,1,0,0,6.0646,Andesite_rect,1,6.065,0,14,0,14,0,1,,,,,,,,,,,,,
64a03e8c3fdf9acaea61a0fb,SCN,2024-06-24_16h40.25.955,LearnStrategy,2023.2.3,Win32,60.24096386,1,1,16,-0.072916667,-0.091145833,1,0,0,1.4647,Basalt_12,2,12,3,4,1.465,0.463541667,-0.404947917,1,0,0,1.7126,Pumice_rect,8,1.713,0,15,0,15,0,1,,,,,,,,,,,,,
64a03e8c3fdf9acaea61a0fb,SCN,2024-06-24_16h40.25.955,LearnStrategy,2023.2.3,Win32,60.24096386,1,2,1,,,,,,,,2,16,,,,,,,,,,,8,4.066,0,,,,,,0.424479167,-0.397135417,1,0,0,4.0659,Pumice_rect,0,0,0,0,1,
64a03e8c3fdf9acaea61a0fb,SCN,2024-06-24_16h40.25.955,LearnStrategy,2023.2.3,Win32,60.24096386,1,2,2,,,,,,,,8,05,,,,,,,,,,,8,1.829,1,,,,,,0.421875,-0.391927083,1,0,0,1.8289,Pumice_rect,1,0,1,0,1,
64a03e8c3fdf9acaea61a0fb,SCN,2024-06-24_16h40.25.955,LearnStrategy,2023.2.3,Win32,60.24096386,1,2,3,,,,,,,,4,05,,,,,,,,,,,7,9.755,0,,,,,,0.145833333,-0.399739583,1,0,0,9.7546,Peridotite_rect,2,0,2,0,1,
64a03e8c3fdf9acaea61a0fb,SCN,2024-06-24_16h40.25.955,LearnStrategy,2023.2.3,Win32,60.24096386,1,2,4,,,,,,,,1,10,,,,,,,,,,,4,2.602,0,,,,,,0.345052083,-0.243489583,1,0,0,2.6023,Gabbro_rect,3,0,3,0,1,
64a03e8c3fdf9acaea61a0fb,SCN,2024-06-24_16h40.25.955,LearnStrategy,2023.2.3,Win32,60.24096386,1,2,5,,,,,,,,7,04,,,,,,,,,,,3,6.715,0,,,,,,0.154947917,-0.256510417,1,0,0,6.7147,Diorite_rect,4,0,4,0,1,
64a03e8c3fdf9acaea61a0fb,SCN,2024-06-24_16h40.25.955,LearnStrategy,2023.2.3,Win32,60.24096386,1,2,6,,,,,,,,6,13,,,,,,,,,,,5,4.317,0,,,,,,-0.34765625,-0.407552083,1,0,0,4.3175,Obsidian_rect,5,0,5,0,1,
64a03e8c3fdf9acaea61a0fb,SCN,2024-06-24_16h40.25.955,LearnStrategy,2023.2.3,Win32,60.24096386,1,2,7,,,,,,,,8,08,,,,,,,,,,,8,1.77,1,,,,,,0.338541667,-0.41796875,1,0,0,1.7696,Pumice_rect,6,0,6,0,1,
64a03e8c3fdf9acaea61a0fb,SCN,2024-06-24_16h40.25.955,LearnStrategy,2023.2.3,Win32,60.24096386,1,2,8,,,,,,,,4,03,,,,,,,,,,,2,5.734,0,,,,,,-0.078125,-0.260416667,1,0,0,5.7337,Basalt_rect,7,0,7,0,1,
64a03e8c3fdf9acaea61a0fb,SCN,2024-06-24_16h40.25.955,LearnStrategy,2023.2.3,Win32,60.24096386,1,2,9,,,,,,,,1,11,,,,,,,,,,,1,3.819,1,,,,,,-0.33203125,-0.251302083,1,0,0,3.8191,Andesite_rect,8,0,8,0,1,
64a03e8c3fdf9acaea61a0fb,SCN,2024-06-24_16h40.25.955,LearnStrategy,2023.2.3,Win32,60.24096386,1,2,10,,,,,,,,3,13,,,,,,,,,,,4,9.328,0,,,,,,0.393229167,-0.268229167,1,0,0,9.3282,Gabbro_rect,9,0,9,0,1,
64a03e8c3fdf9acaea61a0fb,SCN,2024-06-24_16h40.25.955,LearnStrategy,2023.2.3,Win32,60.24096386,1,2,11,,,,,,,,6,03,,,,,,,,,,,7,5.583,0,,,,,,0.19140625,-0.390625,1,0,0,5.5827,Peridotite_rect,10,0,10,0,1,
64a03e8c3fdf9acaea61a0fb,SCN,2024-06-24_16h40.25.955,LearnStrategy,2023.2.3,Win32,60.24096386,1,2,12,,,,,,,,5,12,,,,,,,,,,,5,6.432,1,,,,,,-0.372395833,-0.399739583,1,0,0,6.4323,Obsidian_rect,11,0,11,0,1,
64a03e8c3fdf9acaea61a0fb,SCN,2024-06-24_16h40.25.955,LearnStrategy,2023.2.3,Win32,60.24096386,1,2,13,,,,,,,,3,14,,,,,,,,,,,1,7.747,0,,,,,,-0.348958333,-0.256510417,1,0,0,7.7473,Andesite_rect,12,0,12,0,1,
64a03e8c3fdf9acaea61a0fb,SCN,2024-06-24_16h40.25.955,LearnStrategy,2023.2.3,Win32,60.24096386,1,2,14,,,,,,,,7,02,,,,,,,,,,,4,5.65,0,,,,,,0.411458333,-0.252604167,1,0,0,5.6496,Gabbro_rect,13,0,13,0,1,
64a03e8c3fdf9acaea61a0fb,SCN,2024-06-24_16h40.25.955,LearnStrategy,2023.2.3,Win32,60.24096386,1,2,15,,,,,,,,5,16,,,,,,,,,,,5,2.411,1,,,,,,-0.388020833,-0.40625,1,0,0,2.4113,Obsidian_rect,14,0,14,0,1,
64a03e8c3fdf9acaea61a0fb,SCN,2024-06-24_16h40.25.955,LearnStrategy,2023.2.3,Win32,60.24096386,1,2,16,,,,,,,,2,09,,,,,,,,,,,7,7.714,0,,,,,,0.079427083,-0.385416667,1,0,0,7.714,Peridotite_rect,15,0,15,0,1,
64a03e8c3fdf9acaea61a0fb,SCN,2024-06-24_16h40.25.955,LearnStrategy,2023.2.3,Win32,60.24096386,2,1,1,0.069010417,-0.09375,1,0,0,2.3286,Obsidian_09,5,09,3,5,2.329,-0.3984375,-0.401041667,1,0,0,1.653,Obsidian_rect,5,1.653,1,0,0,0,0,1,,,,,,,,,,,,,
64a03e8c3fdf9acaea61a0fb,SCN,2024-06-24_16h40.25.955,LearnStrategy,2023.2.3,Win32,60.24096386,2,1,2,0.563802083,-0.412760417,1,0,0,4.534,Obsidian_06,5,06,1,8,4.534,-0.352864583,-0.401041667,1,0,0,2.7624,Obsidian_rect,5,2.762,1,1,0,1,0,1,,,,,,,,,,,,,
64a03e8c3fdf9acaea61a0fb,SCN,2024-06-24_16h40.25.955,LearnStrategy,2023.2.3,Win32,60.24096386,2,1,3,0.2421875,-0.11328125,1,0,0,4.9097,Pegmatite_07,6,07,3,6,4.91,0.360677083,-0.234375,1,0,0,2.9352,Gabbro_rect,4,2.935,0,2,0,2,0,1,,,,,,,,,,,,,
64a03e8c3fdf9acaea61a0fb,SCN,2024-06-24_16h40.25.955,LearnStrategy,2023.2.3,Win32,60.24096386,2,1,4,0.555989583,0.4296875,1,0,0,4.8256,Pegmatite_10,6,10,6,8,4.826,-0.16015625,-0.412760417,1,0,0,1.9699,Pegmatite_rect,6,1.97,1,3,0,3,0,1,,,,,,,,,,,,,
64a03e8c3fdf9acaea61a0fb,SCN,2024-06-24_16h40.25.955,LearnStrategy,2023.2.3,Win32,60.24096386,2,1,5,0.2578125,-0.41015625,1,0,0,4.2835,Pegmatite_12,6,12,1,6,4.284,-0.091145833,-0.234375,1,0,0,3.4437,Basalt_rect,2,3.444,0,4,0,4,0,1,,,,,,,,,,,,,
64a03e8c3fdf9acaea61a0fb,SCN,2024-06-24_16h40.25.955,LearnStrategy,2023.2.3,Win32,60.24096386,2,1,6,0.217447917,-0.098958333,1,0,0,2.876,Pegmatite_07,6,07,3,6,2.876,-0.100260417,-0.408854167,1,0,0,2.9176,Pegmatite_rect,6,2.918,1,5,0,5,0,1,,,,,,,,,,,,,
64a03e8c3fdf9acaea61a0fb,SCN,2024-06-24_16h40.25.955,LearnStrategy,2023.2.3,Win32,60.24096386,2,1,7,-0.372395833,-0.0859375,1,0,0,3.6932,Gabbro_12,4,12,3,2,3.693,-0.145833333,-0.260416667,1,0,0,1.454,Basalt_rect,2,1.454,0,6,0,6,0,1,,,,,,,,,,,,,
64a03e8c3fdf9acaea61a0fb,SCN,2024-06-24_16h40.25.955,LearnStrategy,2023.2.3,Win32,60.24096386,2,1,8,0.561197917,-0.251302083,1,0,0,1.7302,Basalt_04,2,04,2,8,1.73,0.444010417,-0.233072917,1,0,0,1.6692,Gabbro_rect,4,1.669,0,7,0,7,0,1,,,,,,,,,,,,,
64a03e8c3fdf9acaea61a0fb,SCN,2024-06-24_16h40.25.955,LearnStrategy,2023.2.3,Win32,60.24096386,2,1,9,-0.052083333,-0.278645833,1,0,0,1.8799,Andesite_01,1,01,2,4,1.88,0.359375,-0.252604167,1,0,0,5.2145,Gabbro_rect,4,5.214,0,8,0,8,0,1,,,,,,,,,,,,,
64a03e8c3fdf9acaea61a0fb,SCN,2024-06-24_16h40.25.955,LearnStrategy,2023.2.3,Win32,60.24096386,2,1,10,0.240885417,0.096354167,1,0,0,4.2101,Pegmatite_05,6,05,4,6,4.21,0.334635417,-0.259114583,1,0,0,6.6983,Gabbro_rect,4,6.698,0,9,0,9,0,1,,,,,,,,,,,,,
64a03e8c3fdf9acaea61a0fb,SCN,2024-06-24_16h40.25.955,LearnStrategy,2023.2.3,Win32,60.24096386,2,1,11,-0.234375,-0.446614583,1,0,0,2.4099,Peridotite_16,7,16,1,3,2.41,0.114583333,-0.2578125,1,0,0,3.9993,Diorite_rect,3,3.999,0,10,0,10,0,1,,,,,,,,,,,,,
64a03e8c3fdf9acaea61a0fb,SCN,2024-06-24_16h40.25.955,LearnStrategy,2023.2.3,Win32,60.24096386,2,1,12,0.212239583,-0.248697917,1,0,0,3.9929,Pegmatite_16,6,16,2,6,3.993,-0.095052083,-0.39453125,1,0,0,5.8569,Pegmatite_rect,6,5.857,1,11,0,11,0,1,,,,,,,,,,,,,
64a03e8c3fdf9acaea61a0fb,SCN,2024-06-24_16h40.25.955,LearnStrategy,2023.2.3,Win32,60.24096386,2,1,13,0.403645833,-0.118489583,1,0,0,2.0965,Diorite_02,3,02,3,7,2.096,0.375,-0.23828125,1,0,0,4.2928,Gabbro_rect,4,4.293,0,12,0,12,0,1,,,,,,,,,,,,,
64a03e8c3fdf9acaea61a0fb,SCN,2024-06-24_16h40.25.955,LearnStrategy,2023.2.3,Win32,60.24096386,2,1,14,0.104166667,-0.42578125,1,0,0,3.776,Obsidian_14,5,14,1,5,3.776,-0.37890625,-0.404947917,1,0,0,2.5849,Obsidian_rect,5,2.585,1,13,0,13,0,1,,,,,,,,,,,,,
64a03e8c3fdf9acaea61a0fb,SCN,2024-06-24_16h40.25.955,LearnStrategy,2023.2.3,Win32,60.24096386,2,1,15,0.100260417,0.256510417,1,0,0,3.9099,Peridotite_15,7,15,5,5,3.91,0.102864583,-0.395833333,1,0,0,4.1343,Peridotite_rect,7,4.134,1,14,0,14,0,1,,,,,,,,,,,,,
64a03e8c3fdf9acaea61a0fb,SCN,2024-06-24_16h40.25.955,LearnStrategy,2023.2.3,Win32,60.24096386,2,1,16,0.188802083,-0.25390625,1,0,0,4.8927,Pegmatite_16,6,16,2,6,4.893,-0.076822917,-0.403645833,1,0,0,4.6811,Pegmatite_rect,6,4.681,1,15,0,15,0,1,,,,,,,,,,,,,
64a03e8c3fdf9acaea61a0fb,SCN,2024-06-24_16h40.25.955,LearnStrategy,2023.2.3,Win32,60.24096386,2,2,1,,,,,,,,6,09,,,,,,,,,,,7,6.849,0,,,,,,0.135416667,-0.391927083,1,0,0,6.8486,Peridotite_rect,0,0,0,0,1,
64a03e8c3fdf9acaea61a0fb,SCN,2024-06-24_16h40.25.955,LearnStrategy,2023.2.3,Win32,60.24096386,2,2,2,,,,,,,,5,08,,,,,,,,,,,5,6.217,1,,,,,,-0.3984375,-0.408854167,1,0,0,6.2171,Obsidian_rect,1,0,1,0,1,
64a03e8c3fdf9acaea61a0fb,SCN,2024-06-24_16h40.25.955,LearnStrategy,2023.2.3,Win32,60.24096386,2,2,3,,,,,,,,4,09,,,,,,,,,,,4,6.432,1,,,,,,0.3515625,-0.25,1,0,0,6.432,Gabbro_rect,2,0,2,0,1,
64a03e8c3fdf9acaea61a0fb,SCN,2024-06-24_16h40.25.955,LearnStrategy,2023.2.3,Win32,60.24096386,2,2,4,,,,,,,,2,10,,,,,,,,,,,2,5.249,1,,,,,,-0.09765625,-0.23828125,1,0,0,5.2491,Basalt_rect,3,0,3,0,1,
64a03e8c3fdf9acaea61a0fb,SCN,2024-06-24_16h40.25.955,LearnStrategy,2023.2.3,Win32,60.24096386,2,2,5,,,,,,,,7,13,,,,,,,,,,,7,2.036,1,,,,,,0.135416667,-0.41015625,1,0,0,2.0355,Peridotite_rect,4,0,4,0,1,
64a03e8c3fdf9acaea61a0fb,SCN,2024-06-24_16h40.25.955,LearnStrategy,2023.2.3,Win32,60.24096386,2,2,6,,,,,,,,4,10,,,,,,,,,,,1,4.8,0,,,,,,-0.389322917,-0.243489583,1,0,0,4.8002,Andesite_rect,5,0,5,0,1,
64a03e8c3fdf9acaea61a0fb,SCN,2024-06-24_16h40.25.955,LearnStrategy,2023.2.3,Win32,60.24096386,2,2,7,,,,,,,,3,11,,,,,,,,,,,1,17.239,0,,,,,,-0.354166667,-0.25,1,0,0,17.2387,Andesite_rect,6,0,6,0,1,
64a03e8c3fdf9acaea61a0fb,SCN,2024-06-24_16h40.25.955,LearnStrategy,2023.2.3,Win32,60.24096386,2,2,8,,,,,,,,5,10,,,,,,,,,,,5,1.701,1,,,,,,-0.404947917,-0.408854167,1,0,0,1.7013,Obsidian_rect,7,0,7,0,1,
64a03e8c3fdf9acaea61a0fb,SCN,2024-06-24_16h40.25.955,LearnStrategy,2023.2.3,Win32,60.24096386,2,2,9,,,,,,,,3,06,,,,,,,,,,,6,5.817,0,,,,,,-0.092447917,-0.411458333,1,0,0,5.817,Pegmatite_rect,8,0,8,0,1,
64a03e8c3fdf9acaea61a0fb,SCN,2024-06-24_16h40.25.955,LearnStrategy,2023.2.3,Win32,60.24096386,2,2,10,,,,,,,,1,16,,,,,,,,,,,3,10.929,0,,,,,,0.169270833,-0.252604167,1,0,0,10.9286,Diorite_rect,9,0,9,0,1,
64a03e8c3fdf9acaea61a0fb,SCN,2024-06-24_16h40.25.955,LearnStrategy,2023.2.3,Win32,60.24096386,2,2,11,,,,,,,,2,08,,,,,,,,,,,4,5.617,0,,,,,,0.3671875,-0.270833333,1,0,0,5.6173,Gabbro_rect,10,0,10,0,1,
64a03e8c3fdf9acaea61a0fb,SCN,2024-06-24_16h40.25.955,LearnStrategy,2023.2.3,Win32,60.24096386,2,2,12,,,,,,,,6,15,,,,,,,,,,,3,8.723,0,,,,,,0.106770833,-0.2578125,1,0,0,8.7228,Diorite_rect,11,0,11,0,1,
64a03e8c3fdf9acaea61a0fb,SCN,2024-06-24_16h40.25.955,LearnStrategy,2023.2.3,Win32,60.24096386,2,2,13,,,,,,,,8,15,,,,,,,,,,,8,2.02,1,,,,,,0.38671875,-0.4140625,1,0,0,2.0196,Pumice_rect,12,0,12,0,1,
64a03e8c3fdf9acaea61a0fb,SCN,2024-06-24_16h40.25.955,LearnStrategy,2023.2.3,Win32,60.24096386,2,2,14,,,,,,,,7,12,,,,,,,,,,,7,2.837,1,,,,,,0.1640625,-0.40625,1,0,0,2.8372,Peridotite_rect,13,0,13,0,1,
64a03e8c3fdf9acaea61a0fb,SCN,2024-06-24_16h40.25.955,LearnStrategy,2023.2.3,Win32,60.24096386,2,2,15,,,,,,,,1,05,,,,,,,,,,,1,4.334,1,,,,,,-0.359375,-0.252604167,1,0,0,4.3341,Andesite_rect,14,0,14,0,1,
64a03e8c3fdf9acaea61a0fb,SCN,2024-06-24_16h40.25.955,LearnStrategy,2023.2.3,Win32,60.24096386,2,2,16,,,,,,,,8,13,,,,,,,,,,,8,1.903,1,,,,,,0.358072917,-0.401041667,1,0,0,1.9033,Pumice_rect,15,0,15,0,1,
64a03e8c3fdf9acaea61a0fb,SCN,2024-06-24_16h40.25.955,LearnStrategy,2023.2.3,Win32,60.24096386,3,1,1,-0.0703125,-0.264322917,1,0,0,2.495,Andesite_01,1,01,2,4,2.495,0.411458333,-0.259114583,1,0,0,3.1185,Gabbro_rect,4,3.119,0,0,0,0,0,1,,,,,,,,,,,,,
64a03e8c3fdf9acaea61a0fb,SCN,2024-06-24_16h40.25.955,LearnStrategy,2023.2.3,Win32,60.24096386,3,1,2,-0.572916667,-0.243489583,1,0,0,2.8275,Gabbro_16,4,16,2,1,2.827,-0.424479167,-0.24609375,1,0,0,1.6528,Andesite_rect,1,1.653,0,1,0,1,0,1,,,,,,,,,,,,,
64a03e8c3fdf9acaea61a0fb,SCN,2024-06-24_16h40.25.955,LearnStrategy,2023.2.3,Win32,60.24096386,3,1,3,0.540364583,-0.247395833,1,0,0,1.7624,Basalt_04,2,04,2,8,1.762,0.401041667,-0.25,1,0,0,5.5999,Gabbro_rect,4,5.6,0,2,0,2,0,1,,,,,,,,,,,,,
64a03e8c3fdf9acaea61a0fb,SCN,2024-06-24_16h40.25.955,LearnStrategy,2023.2.3,Win32,60.24096386,3,1,4,-0.05078125,-0.1171875,1,0,0,1.3795,Basalt_12,2,12,3,4,1.38,0.361979167,-0.4140625,1,0,0,1.694,Pumice_rect,8,1.694,0,3,0,3,0,1,,,,,,,,,,,,,
64a03e8c3fdf9acaea61a0fb,SCN,2024-06-24_16h40.25.955,LearnStrategy,2023.2.3,Win32,60.24096386,3,1,5,0.545572917,0.092447917,1,0,0,1.5797,Andesite_03,1,03,4,8,1.58,-0.403645833,-0.240885417,1,0,0,2.0671,Andesite_rect,1,2.067,1,4,0,4,0,1,,,,,,,,,,,,,
64a03e8c3fdf9acaea61a0fb,SCN,2024-06-24_16h40.25.955,LearnStrategy,2023.2.3,Win32,60.24096386,3,1,6,0.244791667,-0.106770833,1,0,0,2.4787,Pegmatite_07,6,07,3,6,2.479,0.13671875,-0.404947917,1,0,0,2.3697,Peridotite_rect,7,2.37,0,5,0,5,0,1,,,,,,,,,,,,,
64a03e8c3fdf9acaea61a0fb,SCN,2024-06-24_16h40.25.955,LearnStrategy,2023.2.3,Win32,60.24096386,3,1,7,-0.234375,0.2734375,1,0,0,2.976,Obsidian_05,5,05,5,3,2.976,-0.3671875,-0.39453125,1,0,0,2.236,Obsidian_rect,5,2.236,1,6,0,6,0,1,,,,,,,,,,,,,
64a03e8c3fdf9acaea61a0fb,SCN,2024-06-24_16h40.25.955,LearnStrategy,2023.2.3,Win32,60.24096386,3,1,8,0.251302083,0.26953125,1,0,0,1.4471,Pegmatite_08,6,08,5,6,1.447,-0.09375,-0.401041667,1,0,0,2.4513,Pegmatite_rect,6,2.451,1,7,0,7,0,1,,,,,,,,,,,,,
64a03e8c3fdf9acaea61a0fb,SCN,2024-06-24_16h40.25.955,LearnStrategy,2023.2.3,Win32,60.24096386,3,1,9,0.380208333,-0.419270833,1,0,0,5.1081,Gabbro_14,4,14,1,7,5.108,0.115885417,-0.263020833,1,0,0,4.7665,Diorite_rect,3,4.767,0,8,0,8,0,1,,,,,,,,,,,,,
64a03e8c3fdf9acaea61a0fb,SCN,2024-06-24_16h40.25.955,LearnStrategy,2023.2.3,Win32,60.24096386,3,1,10,-0.365885417,-0.092447917,1,0,0,2.8935,Gabbro_12,4,12,3,2,2.893,-0.165364583,-0.25,1,0,0,1.603,Basalt_rect,2,1.603,0,9,0,9,0,1,,,,,,,,,,,,,
64a03e8c3fdf9acaea61a0fb,SCN,2024-06-24_16h40.25.955,LearnStrategy,2023.2.3,Win32,60.24096386,3,1,11,0.5390625,0.13671875,1,0,0,1.5299,Andesite_03,1,03,4,8,1.53,0.37890625,-0.260416667,1,0,0,1.5199,Gabbro_rect,4,1.52,0,10,0,10,0,1,,,,,,,,,,,,,
64a03e8c3fdf9acaea61a0fb,SCN,2024-06-24_16h40.25.955,LearnStrategy,2023.2.3,Win32,60.24096386,3,1,12,-0.381510417,0.091145833,1,0,0,2.0958,Basalt_05,2,05,4,2,2.096,0.34765625,-0.25390625,1,0,0,2.2777,Gabbro_rect,4,2.278,0,11,0,11,0,1,,,,,,,,,,,,,
64a03e8c3fdf9acaea61a0fb,SCN,2024-06-24_16h40.25.955,LearnStrategy,2023.2.3,Win32,60.24096386,3,1,13,-0.513020833,0.260416667,1,0,0,2.8935,Diorite_16,3,16,5,1,2.894,-0.100260417,-0.403645833,1,0,0,4.1167,Pegmatite_rect,6,4.117,0,12,0,12,0,1,,,,,,,,,,,,,
64a03e8c3fdf9acaea61a0fb,SCN,2024-06-24_16h40.25.955,LearnStrategy,2023.2.3,Win32,60.24096386,3,1,14,0.225260417,0.071614583,1,0,0,1.944,Pegmatite_05,6,05,4,6,1.944,0.13671875,-0.2578125,1,0,0,2.2897,Diorite_rect,3,2.29,0,13,0,13,0,1,,,,,,,,,,,,,
64a03e8c3fdf9acaea61a0fb,SCN,2024-06-24_16h40.25.955,LearnStrategy,2023.2.3,Win32,60.24096386,3,1,15,0.087239583,0.28515625,1,0,0,2.3603,Peridotite_15,7,15,5,5,2.36,0.140625,-0.39453125,1,0,0,1.9582,Peridotite_rect,7,1.958,1,14,0,14,0,1,,,,,,,,,,,,,
64a03e8c3fdf9acaea61a0fb,SCN,2024-06-24_16h40.25.955,LearnStrategy,2023.2.3,Win32,60.24096386,3,1,16,0.401041667,-0.104166667,1,0,0,7.4736,Diorite_02,3,02,3,7,7.474,-0.16015625,-0.420572917,1,0,0,3.7843,Pegmatite_rect,6,3.784,0,15,0,15,0,1,,,,,,,,,,,,,
64a03e8c3fdf9acaea61a0fb,SCN,2024-06-24_16h40.25.955,LearnStrategy,2023.2.3,Win32,60.24096386,3,2,1,,,,,,,,3,12,,,,,,,,,,,6,9.612,0,,,,,,-0.09375,-0.411458333,1,0,0,9.6125,Pegmatite_rect,0,0,0,0,1,
64a03e8c3fdf9acaea61a0fb,SCN,2024-06-24_16h40.25.955,LearnStrategy,2023.2.3,Win32,60.24096386,3,2,2,,,,,,,,1,07,,,,,,,,,,,3,2.874,0,,,,,,0.171875,-0.251302083,1,0,0,2.8735,Diorite_rect,1,0,1,0,1,
64a03e8c3fdf9acaea61a0fb,SCN,2024-06-24_16h40.25.955,LearnStrategy,2023.2.3,Win32,60.24096386,3,2,3,,,,,,,,8,02,,,,,,,,,,,8,1.553,1,,,,,,0.364583333,-0.41015625,1,0,0,1.5533,Pumice_rect,2,0,2,0,1,
64a03e8c3fdf9acaea61a0fb,SCN,2024-06-24_16h40.25.955,LearnStrategy,2023.2.3,Win32,60.24096386,3,2,4,,,,,,,,1,06,,,,,,,,,,,3,4.401,0,,,,,,0.15625,-0.25,1,0,0,4.4012,Diorite_rect,3,0,3,0,1,
64a03e8c3fdf9acaea61a0fb,SCN,2024-06-24_16h40.25.955,LearnStrategy,2023.2.3,Win32,60.24096386,3,2,5,,,,,,,,2,06,,,,,,,,,,,1,3.102,0,,,,,,-0.348958333,-0.255208333,1,0,0,3.1024,Andesite_rect,4,0,4,0,1,
64a03e8c3fdf9acaea61a0fb,SCN,2024-06-24_16h40.25.955,LearnStrategy,2023.2.3,Win32,60.24096386,3,2,6,,,,,,,,6,06,,,,,,,,,,,6,3.202,1,,,,,,-0.122395833,-0.412760417,1,0,0,3.2016,Pegmatite_rect,5,0,5,0,1,
64a03e8c3fdf9acaea61a0fb,SCN,2024-06-24_16h40.25.955,LearnStrategy,2023.2.3,Win32,60.24096386,3,2,7,,,,,,,,2,01,,,,,,,,,,,4,7.698,0,,,,,,0.381510417,-0.244791667,1,0,0,7.6979,Gabbro_rect,6,0,6,0,1,
64a03e8c3fdf9acaea61a0fb,SCN,2024-06-24_16h40.25.955,LearnStrategy,2023.2.3,Win32,60.24096386,3,2,8,,,,,,,,8,04,,,,,,,,,,,8,1.319,1,,,,,,0.404947917,-0.420572917,1,0,0,1.3187,Pumice_rect,7,0,7,0,1,
64a03e8c3fdf9acaea61a0fb,SCN,2024-06-24_16h40.25.955,LearnStrategy,2023.2.3,Win32,60.24096386,3,2,9,,,,,,,,3,09,,,,,,,,,,,3,3.225,1,,,,,,0.123697917,-0.234375,1,0,0,3.2254,Diorite_rect,8,0,8,0,1,
64a03e8c3fdf9acaea61a0fb,SCN,2024-06-24_16h40.25.955,LearnStrategy,2023.2.3,Win32,60.24096386,3,2,10,,,,,,,,5,02,,,,,,,,,,,5,2.815,1,,,,,,-0.41015625,-0.393229167,1,0,0,2.8154,Obsidian_rect,9,0,9,0,1,
64a03e8c3fdf9acaea61a0fb,SCN,2024-06-24_16h40.25.955,LearnStrategy,2023.2.3,Win32,60.24096386,3,2,11,,,,,,,,4,15,,,,,,,,,,,2,11.661,0,,,,,,-0.1015625,-0.239583333,1,0,0,11.6609,Basalt_rect,10,0,10,0,1,
64a03e8c3fdf9acaea61a0fb,SCN,2024-06-24_16h40.25.955,LearnStrategy,2023.2.3,Win32,60.24096386,3,2,12,,,,,,,,4,01,,,,,,,,,,,3,3.302,0,,,,,,0.100260417,-0.26171875,1,0,0,3.3015,Diorite_rect,11,0,11,0,1,
64a03e8c3fdf9acaea61a0fb,SCN,2024-06-24_16h40.25.955,LearnStrategy,2023.2.3,Win32,60.24096386,3,2,13,,,,,,,,7,07,,,,,,,,,,,7,2.767,1,,,,,,0.118489583,-0.420572917,1,0,0,2.7673,Peridotite_rect,12,0,12,0,1,
64a03e8c3fdf9acaea61a0fb,SCN,2024-06-24_16h40.25.955,LearnStrategy,2023.2.3,Win32,60.24096386,3,2,14,,,,,,,,5,07,,,,,,,,,,,5,3.668,1,,,,,,-0.3984375,-0.415364583,1,0,0,3.6679,Obsidian_rect,13,0,13,0,1,
64a03e8c3fdf9acaea61a0fb,SCN,2024-06-24_16h40.25.955,LearnStrategy,2023.2.3,Win32,60.24096386,3,2,15,,,,,,,,7,05,,,,,,,,,,,3,8.713,0,,,,,,0.143229167,-0.248697917,1,0,0,8.713,Diorite_rect,14,0,14,0,1,
64a03e8c3fdf9acaea61a0fb,SCN,2024-06-24_16h40.25.955,LearnStrategy,2023.2.3,Win32,60.24096386,3,2,16,,,,,,,,6,11,,,,,,,,,,,6,7.947,1,,,,,,-0.110677083,-0.380208333,1,0,0,7.9466,Pegmatite_rect,15,0,15,0,1,
64a03e8c3fdf9acaea61a0fb,SCN,2024-06-24_16h40.25.955,LearnStrategy,2023.2.3,Win32,60.24096386,4,1,1,-0.375,0.408854167,1,0,0,1.9964,Diorite_08,3,08,6,2,1.996,-0.106770833,-0.395833333,1,0,0,3.1517,Pegmatite_rect,6,3.152,0,0,0,0,0,1,,,,,,,,,,,,,
64a03e8c3fdf9acaea61a0fb,SCN,2024-06-24_16h40.25.955,LearnStrategy,2023.2.3,Win32,60.24096386,4,1,2,-0.23828125,0.428385417,1,0,0,1.9462,Gabbro_11,4,11,6,3,1.946,0.399739583,-0.2578125,1,0,0,2.5186,Gabbro_rect,4,2.519,1,1,0,1,0,1,,,,,,,,,,,,,
64a03e8c3fdf9acaea61a0fb,SCN,2024-06-24_16h40.25.955,LearnStrategy,2023.2.3,Win32,60.24096386,4,1,3,0.080729167,0.419270833,1,0,0,2.6123,Pumice_14,8,14,6,5,2.612,0.37890625,-0.397135417,1,0,0,1.5187,Pumice_rect,8,1.519,1,2,0,2,0,1,,,,,,,,,,,,,
64a03e8c3fdf9acaea61a0fb,SCN,2024-06-24_16h40.25.955,LearnStrategy,2023.2.3,Win32,60.24096386,4,1,4,0.233072917,0.420572917,1,0,0,1.3461,Peridotite_14,7,14,6,6,1.346,0.114583333,-0.397135417,1,0,0,3.4343,Peridotite_rect,7,3.434,1,3,0,3,0,1,,,,,,,,,,,,,
64a03e8c3fdf9acaea61a0fb,SCN,2024-06-24_16h40.25.955,LearnStrategy,2023.2.3,Win32,60.24096386,4,1,5,0.51953125,0.41015625,1,0,0,1.5109,Pegmatite_10,6,10,6,8,1.511,-0.154947917,-0.393229167,1,0,0,2.3501,Pegmatite_rect,6,2.35,1,4,0,4,0,1,,,,,,,,,,,,,
64a03e8c3fdf9acaea61a0fb,SCN,2024-06-24_16h40.25.955,LearnStrategy,2023.2.3,Win32,60.24096386,4,1,6,0.22265625,0.24609375,1,0,0,3.8576,Pegmatite_08,6,08,5,6,3.858,-0.118489583,-0.40234375,1,0,0,6.4154,Pegmatite_rect,6,6.415,1,5,0,5,0,1,,,,,,,,,,,,,
64a03e8c3fdf9acaea61a0fb,SCN,2024-06-24_16h40.25.955,LearnStrategy,2023.2.3,Win32,60.24096386,4,1,7,-0.40234375,0.076822917,1,0,0,3.7097,Basalt_05,2,05,4,2,3.71,0.30859375,-0.23046875,1,0,0,2.5504,Gabbro_rect,4,2.55,0,6,0,6,0,1,,,,,,,,,,,,,
64a03e8c3fdf9acaea61a0fb,SCN,2024-06-24_16h40.25.955,LearnStrategy,2023.2.3,Win32,60.24096386,4,1,8,0.498697917,0.102864583,1,0,0,1.8452,Andesite_03,1,03,4,8,1.845,0.153645833,-0.255208333,1,0,0,2.2043,Diorite_rect,3,2.204,0,7,0,7,0,1,,,,,,,,,,,,,
64a03e8c3fdf9acaea61a0fb,SCN,2024-06-24_16h40.25.955,LearnStrategy,2023.2.3,Win32,60.24096386,4,1,9,0.536458333,-0.100260417,1,0,0,3.3601,Andesite_09,1,09,3,8,3.36,0.15234375,-0.25,1,0,0,2.0538,Diorite_rect,3,2.054,0,8,0,8,0,1,,,,,,,,,,,,,
64a03e8c3fdf9acaea61a0fb,SCN,2024-06-24_16h40.25.955,LearnStrategy,2023.2.3,Win32,60.24096386,4,1,10,-0.389322917,-0.1015625,1,0,0,2.6784,Gabbro_12,4,12,3,2,2.678,0.354166667,-0.248697917,1,0,0,3.0177,Gabbro_rect,4,3.018,1,9,0,9,0,1,,,,,,,,,,,,,
64a03e8c3fdf9acaea61a0fb,SCN,2024-06-24_16h40.25.955,LearnStrategy,2023.2.3,Win32,60.24096386,4,1,11,-0.549479167,-0.404947917,1,0,0,3.4436,Peridotite_06,7,06,1,1,3.444,0.075520833,-0.41015625,1,0,0,2.1535,Peridotite_rect,7,2.154,1,10,0,10,0,1,,,,,,,,,,,,,
64a03e8c3fdf9acaea61a0fb,SCN,2024-06-24_16h40.25.955,LearnStrategy,2023.2.3,Win32,60.24096386,4,1,12,-0.227864583,-0.432291667,1,0,0,1.8285,Peridotite_16,7,16,1,3,1.829,0.134114583,-0.236979167,1,0,0,6.1141,Diorite_rect,3,6.114,0,11,0,11,0,1,,,,,,,,,,,,,
64a03e8c3fdf9acaea61a0fb,SCN,2024-06-24_16h40.25.955,LearnStrategy,2023.2.3,Win32,60.24096386,4,1,13,0.264322917,-0.36328125,1,0,0,3.5266,Pegmatite_12,6,12,1,6,3.527,0.125,-0.248697917,1,0,0,2.7488,Diorite_rect,3,2.749,0,12,0,12,0,1,,,,,,,,,,,,,
64a03e8c3fdf9acaea61a0fb,SCN,2024-06-24_16h40.25.955,LearnStrategy,2023.2.3,Win32,60.24096386,4,1,14,0.548177083,-0.25390625,1,0,0,1.9606,Basalt_04,2,04,2,8,1.961,0.44921875,-0.2421875,1,0,0,3.7697,Gabbro_rect,4,3.77,0,13,0,13,0,1,,,,,,,,,,,,,
64a03e8c3fdf9acaea61a0fb,SCN,2024-06-24_16h40.25.955,LearnStrategy,2023.2.3,Win32,60.24096386,4,1,15,0.39453125,-0.408854167,1,0,0,2.4266,Gabbro_14,4,14,1,7,2.427,-0.381510417,-0.2421875,1,0,0,5.8401,Andesite_rect,1,5.84,0,14,0,14,0,1,,,,,,,,,,,,,
64a03e8c3fdf9acaea61a0fb,SCN,2024-06-24_16h40.25.955,LearnStrategy,2023.2.3,Win32,60.24096386,4,1,16,-0.529947917,-0.255208333,1,0,0,3.4617,Gabbro_16,4,16,2,1,3.462,0.389322917,-0.252604167,1,0,0,4.1211,Gabbro_rect,4,4.121,1,15,0,15,0,1,,,,,,,,,,,,,
64a03e8c3fdf9acaea61a0fb,SCN,2024-06-24_16h40.25.955,LearnStrategy,2023.2.3,Win32,60.24096386,4,2,1,,,,,,,,5,02,,,,,,,,,,,5,1.953,1,,,,,,-0.375,-0.395833333,1,0,0,1.9531,Obsidian_rect,0,0,0,0,1,
64a03e8c3fdf9acaea61a0fb,SCN,2024-06-24_16h40.25.955,LearnStrategy,2023.2.3,Win32,60.24096386,4,2,2,,,,,,,,1,11,,,,,,,,,,,3,6.634,0,,,,,,0.122395833,-0.252604167,1,0,0,6.6343,Diorite_rect,1,0,1,0,1,
64a03e8c3fdf9acaea61a0fb,SCN,2024-06-24_16h40.25.955,LearnStrategy,2023.2.3,Win32,60.24096386,4,2,3,,,,,,,,3,06,,,,,,,,,,,6,6.682,0,,,,,,-0.106770833,-0.403645833,1,0,0,6.6817,Pegmatite_rect,2,0,2,0,1,
64a03e8c3fdf9acaea61a0fb,SCN,2024-06-24_16h40.25.955,LearnStrategy,2023.2.3,Win32,60.24096386,4,2,4,,,,,,,,8,15,,,,,,,,,,,8,2.37,1,,,,,,0.359375,-0.399739583,1,0,0,2.37,Pumice_rect,3,0,3,0,1,
64a03e8c3fdf9acaea61a0fb,SCN,2024-06-24_16h40.25.955,LearnStrategy,2023.2.3,Win32,60.24096386,4,2,5,,,,,,,,6,09,,,,,,,,,,,7,1.626,0,,,,,,0.16015625,-0.395833333,1,0,0,1.6257,Peridotite_rect,4,0,4,0,1,
64a03e8c3fdf9acaea61a0fb,SCN,2024-06-24_16h40.25.955,LearnStrategy,2023.2.3,Win32,60.24096386,4,2,6,,,,,,,,7,02,,,,,,,,,,,7,1.028,1,,,,,,0.16015625,-0.395833333,1,0,0,1.0283,Peridotite_rect,5,0,5,0,1,
64a03e8c3fdf9acaea61a0fb,SCN,2024-06-24_16h40.25.955,LearnStrategy,2023.2.3,Win32,60.24096386,4,2,7,,,,,,,,7,13,,,,,,,,,,,7,0.888,1,,,,,,0.16015625,-0.395833333,1,0,0,0.8876,Peridotite_rect,6,0,6,0,1,
64a03e8c3fdf9acaea61a0fb,SCN,2024-06-24_16h40.25.955,LearnStrategy,2023.2.3,Win32,60.24096386,4,2,8,,,,,,,,1,16,,,,,,,,,,,3,1.704,0,,,,,,0.149739583,-0.255208333,1,0,0,1.7043,Diorite_rect,7,0,7,0,1,
64a03e8c3fdf9acaea61a0fb,SCN,2024-06-24_16h40.25.955,LearnStrategy,2023.2.3,Win32,60.24096386,4,2,9,,,,,,,,4,09,,,,,,,,,,,1,6.533,0,,,,,,-0.36328125,-0.236979167,1,0,0,6.5327,Andesite_rect,8,0,8,0,1,
64a03e8c3fdf9acaea61a0fb,SCN,2024-06-24_16h40.25.955,LearnStrategy,2023.2.3,Win32,60.24096386,4,2,10,,,,,,,,2,16,,,,,,,,,,,2,5.666,1,,,,,,-0.1328125,-0.248697917,1,0,0,5.6658,Basalt_rect,9,0,9,0,1,
64a03e8c3fdf9acaea61a0fb,SCN,2024-06-24_16h40.25.955,LearnStrategy,2023.2.3,Win32,60.24096386,4,2,11,,,,,,,,2,10,,,,,,,,,,,4,2.436,0,,,,,,0.33203125,-0.244791667,1,0,0,2.4363,Gabbro_rect,10,0,10,0,1,
64a03e8c3fdf9acaea61a0fb,SCN,2024-06-24_16h40.25.955,LearnStrategy,2023.2.3,Win32,60.24096386,4,2,12,,,,,,,,6,15,,,,,,,,,,,6,4.253,1,,,,,,-0.12109375,-0.3984375,1,0,0,4.2527,Pegmatite_rect,11,0,11,0,1,
64a03e8c3fdf9acaea61a0fb,SCN,2024-06-24_16h40.25.955,LearnStrategy,2023.2.3,Win32,60.24096386,4,2,13,,,,,,,,8,08,,,,,,,,,,,8,1.832,1,,,,,,0.365885417,-0.407552083,1,0,0,1.8324,Pumice_rect,12,0,12,0,1,
64a03e8c3fdf9acaea61a0fb,SCN,2024-06-24_16h40.25.955,LearnStrategy,2023.2.3,Win32,60.24096386,4,2,14,,,,,,,,5,08,,,,,,,,,,,5,1.837,1,,,,,,-0.376302083,-0.399739583,1,0,0,1.8374,Obsidian_rect,13,0,13,0,1,
64a03e8c3fdf9acaea61a0fb,SCN,2024-06-24_16h40.25.955,LearnStrategy,2023.2.3,Win32,60.24096386,4,2,15,,,,,,,,3,12,,,,,,,,,,,7,1.918,0,,,,,,0.1015625,-0.411458333,1,0,0,1.9184,Peridotite_rect,14,0,14,0,1,
64a03e8c3fdf9acaea61a0fb,SCN,2024-06-24_16h40.25.955,LearnStrategy,2023.2.3,Win32,60.24096386,4,2,16,,,,,,,,4,15,,,,,,,,,,,3,4.785,0,,,,,,0.1015625,-0.239583333,1,0,0,4.7854,Diorite_rect,15,0,15,0,1,
64a03e8c3fdf9acaea61a0fb,SCN,2024-06-24_16h40.25.955,LearnStrategy,2023.2.3,Win32,60.24096386,5,1,1,-0.252604167,0.446614583,1,0,0,3.586,Gabbro_11,4,11,6,3,3.586,-0.138020833,-0.243489583,1,0,0,3.8934,Basalt_rect,2,3.893,0,0,0,0,0,1,,,,,,,,,,,,,
64a03e8c3fdf9acaea61a0fb,SCN,2024-06-24_16h40.25.955,LearnStrategy,2023.2.3,Win32,60.24096386,5,1,2,0.57421875,0.111979167,1,0,0,1.7113,Andesite_03,1,03,4,8,1.711,0.188802083,-0.231770833,1,0,0,2.0186,Diorite_rect,3,2.019,0,1,0,1,0,1,,,,,,,,,,,,,
64a03e8c3fdf9acaea61a0fb,SCN,2024-06-24_16h40.25.955,LearnStrategy,2023.2.3,Win32,60.24096386,5,1,3,-0.053385417,-0.1171875,1,0,0,1.3988,Basalt_12,2,12,3,4,1.399,0.3828125,-0.420572917,1,0,0,1.9781,Pumice_rect,8,1.978,0,2,0,2,0,1,,,,,,,,,,,,,
64a03e8c3fdf9acaea61a0fb,SCN,2024-06-24_16h40.25.955,LearnStrategy,2023.2.3,Win32,60.24096386,5,1,4,-0.561197917,-0.0859375,1,0,0,2.8286,Andesite_14,1,14,3,1,2.829,0.102864583,-0.2421875,1,0,0,2.0039,Diorite_rect,3,2.004,0,3,0,3,0,1,,,,,,,,,,,,,
64a03e8c3fdf9acaea61a0fb,SCN,2024-06-24_16h40.25.955,LearnStrategy,2023.2.3,Win32,60.24096386,5,1,5,-0.3984375,0.115885417,1,0,0,1.9962,Basalt_05,2,05,4,2,1.996,-0.16015625,-0.243489583,1,0,0,1.8856,Basalt_rect,2,1.886,1,4,0,4,0,1,,,,,,,,,,,,,
64a03e8c3fdf9acaea61a0fb,SCN,2024-06-24_16h40.25.955,LearnStrategy,2023.2.3,Win32,60.24096386,5,1,6,0.545572917,-0.221354167,1,0,0,1.4456,Basalt_04,2,04,2,8,1.446,-0.076822917,-0.239583333,1,0,0,1.757,Basalt_rect,2,1.757,1,5,0,5,0,1,,,,,,,,,,,,,
64a03e8c3fdf9acaea61a0fb,SCN,2024-06-24_16h40.25.955,LearnStrategy,2023.2.3,Win32,60.24096386,5,1,7,-0.078125,-0.447916667,1,0,0,1.6302,Basalt_02,2,02,1,4,1.63,-0.127604167,-0.247395833,1,0,0,2.4339,Basalt_rect,2,2.434,1,6,0,6,0,1,,,,,,,,,,,,,
64a03e8c3fdf9acaea61a0fb,SCN,2024-06-24_16h40.25.955,LearnStrategy,2023.2.3,Win32,60.24096386,5,1,8,0.51171875,-0.0859375,1,0,0,3.5463,Andesite_09,1,09,3,8,3.546,-0.389322917,-0.252604167,1,0,0,1.8954,Andesite_rect,1,1.895,1,7,0,7,0,1,,,,,,,,,,,,,
64a03e8c3fdf9acaea61a0fb,SCN,2024-06-24_16h40.25.955,LearnStrategy,2023.2.3,Win32,60.24096386,5,1,9,0.5390625,-0.23046875,1,0,0,1.6952,Basalt_04,2,04,2,8,1.695,-0.098958333,-0.251302083,1,0,0,3.3841,Basalt_rect,2,3.384,1,8,0,8,0,1,,,,,,,,,,,,,
64a03e8c3fdf9acaea61a0fb,SCN,2024-06-24_16h40.25.955,LearnStrategy,2023.2.3,Win32,60.24096386,5,1,10,-0.05078125,-0.4140625,1,0,0,1.7613,Basalt_02,2,02,1,4,1.761,-0.123697917,-0.247395833,1,0,0,1.9187,Basalt_rect,2,1.919,1,9,0,9,0,1,,,,,,,,,,,,,
64a03e8c3fdf9acaea61a0fb,SCN,2024-06-24_16h40.25.955,LearnStrategy,2023.2.3,Win32,60.24096386,5,1,11,-0.227864583,0.391927083,1,0,0,1.8126,Gabbro_11,4,11,6,3,1.813,-0.115885417,-0.240885417,1,0,0,2.6851,Basalt_rect,2,2.685,0,10,0,10,0,1,,,,,,,,,,,,,
64a03e8c3fdf9acaea61a0fb,SCN,2024-06-24_16h40.25.955,LearnStrategy,2023.2.3,Win32,60.24096386,5,1,12,0.391927083,0.091145833,1,0,0,1.9952,Diorite_10,3,10,4,7,1.995,0.154947917,-0.260416667,1,0,0,2.0195,Diorite_rect,3,2.02,1,11,0,11,0,1,,,,,,,,,,,,,
64a03e8c3fdf9acaea61a0fb,SCN,2024-06-24_16h40.25.955,LearnStrategy,2023.2.3,Win32,60.24096386,5,1,13,-0.212239583,-0.2890625,1,0,0,2.8787,Peridotite_10,7,10,2,3,2.879,0.12890625,-0.40625,1,0,0,1.6045,Peridotite_rect,7,1.604,1,12,0,12,0,1,,,,,,,,,,,,,
64a03e8c3fdf9acaea61a0fb,SCN,2024-06-24_16h40.25.955,LearnStrategy,2023.2.3,Win32,60.24096386,5,1,14,-0.057291667,-0.286458333,1,0,0,1.4802,Andesite_01,1,01,2,4,1.48,-0.354166667,-0.23828125,1,0,0,5.0156,Andesite_rect,1,5.016,1,13,0,13,0,1,,,,,,,,,,,,,
64a03e8c3fdf9acaea61a0fb,SCN,2024-06-24_16h40.25.955,LearnStrategy,2023.2.3,Win32,60.24096386,5,1,15,-0.56640625,0.1015625,1,0,0,2.2108,Andesite_02,1,02,4,1,2.211,-0.415364583,-0.26171875,1,0,0,2.2035,Andesite_rect,1,2.204,1,14,0,14,0,1,,,,,,,,,,,,,
64a03e8c3fdf9acaea61a0fb,SCN,2024-06-24_16h40.25.955,LearnStrategy,2023.2.3,Win32,60.24096386,5,1,16,-0.549479167,0.24609375,1,0,0,1.5792,Diorite_16,3,16,5,1,1.579,-0.391927083,-0.247395833,1,0,0,3.0852,Andesite_rect,1,3.085,0,15,0,15,0,1,,,,,,,,,,,,,
64a03e8c3fdf9acaea61a0fb,SCN,2024-06-24_16h40.25.955,LearnStrategy,2023.2.3,Win32,60.24096386,5,2,1,,,,,,,,1,07,,,,,,,,,,,3,4.799,0,,,,,,0.1484375,-0.229166667,1,0,0,4.7994,Diorite_rect,0,0,0,0,1,
64a03e8c3fdf9acaea61a0fb,SCN,2024-06-24_16h40.25.955,LearnStrategy,2023.2.3,Win32,60.24096386,5,2,2,,,,,,,,5,10,,,,,,,,,,,5,1.683,1,,,,,,-0.40625,-0.397135417,1,0,0,1.683,Obsidian_rect,1,0,1,0,1,
64a03e8c3fdf9acaea61a0fb,SCN,2024-06-24_16h40.25.955,LearnStrategy,2023.2.3,Win32,60.24096386,5,2,3,,,,,,,,6,06,,,,,,,,,,,6,4.434,1,,,,,,-0.13671875,-0.41015625,1,0,0,4.4342,Pegmatite_rect,2,0,2,0,1,
64a03e8c3fdf9acaea61a0fb,SCN,2024-06-24_16h40.25.955,LearnStrategy,2023.2.3,Win32,60.24096386,5,2,4,,,,,,,,3,13,,,,,,,,,,,6,5.883,0,,,,,,-0.13671875,-0.41015625,1,0,0,5.8826,Pegmatite_rect,3,0,3,0,1,
64a03e8c3fdf9acaea61a0fb,SCN,2024-06-24_16h40.25.955,LearnStrategy,2023.2.3,Win32,60.24096386,5,2,5,,,,,,,,2,09,,,,,,,,,,,4,5.233,0,,,,,,0.376302083,-0.255208333,1,0,0,5.2326,Gabbro_rect,4,0,4,0,1,
64a03e8c3fdf9acaea61a0fb,SCN,2024-06-24_16h40.25.955,LearnStrategy,2023.2.3,Win32,60.24096386,5,2,6,,,,,,,,6,13,,,,,,,,,,,3,10.743,0,,,,,,0.13671875,-0.248697917,1,0,0,10.7429,Diorite_rect,5,0,5,0,1,
64a03e8c3fdf9acaea61a0fb,SCN,2024-06-24_16h40.25.955,LearnStrategy,2023.2.3,Win32,60.24096386,5,2,7,,,,,,,,8,04,,,,,,,,,,,8,1.603,1,,,,,,0.34375,-0.388020833,1,0,0,1.6032,Pumice_rect,6,0,6,0,1,
64a03e8c3fdf9acaea61a0fb,SCN,2024-06-24_16h40.25.955,LearnStrategy,2023.2.3,Win32,60.24096386,5,2,8,,,,,,,,8,05,,,,,,,,,,,8,1.012,1,,,,,,0.34375,-0.388020833,1,0,0,1.0118,Pumice_rect,7,0,7,0,1,
64a03e8c3fdf9acaea61a0fb,SCN,2024-06-24_16h40.25.955,LearnStrategy,2023.2.3,Win32,60.24096386,5,2,9,,,,,,,,3,11,,,,,,,,,,,3,5.297,1,,,,,,0.16796875,-0.239583333,1,0,0,5.2968,Diorite_rect,8,0,8,0,1,
64a03e8c3fdf9acaea61a0fb,SCN,2024-06-24_16h40.25.955,LearnStrategy,2023.2.3,Win32,60.24096386,5,2,10,,,,,,,,5,07,,,,,,,,,,,5,2.054,1,,,,,,-0.381510417,-0.40625,1,0,0,2.0538,Obsidian_rect,9,0,9,0,1,
64a03e8c3fdf9acaea61a0fb,SCN,2024-06-24_16h40.25.955,LearnStrategy,2023.2.3,Win32,60.24096386,5,2,11,,,,,,,,7,04,,,,,,,,,,,6,4.352,0,,,,,,-0.1484375,-0.3984375,1,0,0,4.352,Pegmatite_rect,10,0,10,0,1,
64a03e8c3fdf9acaea61a0fb,SCN,2024-06-24_16h40.25.955,LearnStrategy,2023.2.3,Win32,60.24096386,5,2,12,,,,,,,,4,01,,,,,,,,,,,3,10.262,0,,,,,,0.080729167,-0.260416667,1,0,0,10.2621,Diorite_rect,11,0,11,0,1,
64a03e8c3fdf9acaea61a0fb,SCN,2024-06-24_16h40.25.955,LearnStrategy,2023.2.3,Win32,60.24096386,5,2,13,,,,,,,,1,10,,,,,,,,,,,4,9.672,0,,,,,,0.342447917,-0.243489583,1,0,0,9.6721,Gabbro_rect,12,0,12,0,1,
64a03e8c3fdf9acaea61a0fb,SCN,2024-06-24_16h40.25.955,LearnStrategy,2023.2.3,Win32,60.24096386,5,2,14,,,,,,,,4,03,,,,,,,,,,,3,11.525,0,,,,,,0.09375,-0.240885417,1,0,0,11.5255,Diorite_rect,13,0,13,0,1,
64a03e8c3fdf9acaea61a0fb,SCN,2024-06-24_16h40.25.955,LearnStrategy,2023.2.3,Win32,60.24096386,5,2,15,,,,,,,,7,05,,,,,,,,,,,7,3.568,1,,,,,,0.11328125,-0.412760417,1,0,0,3.5684,Peridotite_rect,14,0,14,0,1,
64a03e8c3fdf9acaea61a0fb,SCN,2024-06-24_16h40.25.955,LearnStrategy,2023.2.3,Win32,60.24096386,5,2,16,,,,,,,,2,01,,,,,,,,,,,2,5.732,1,,,,,,-0.088541667,-0.263020833,1,0,0,5.7325,Basalt_rect,15,0,15,0,1,
64a03e8c3fdf9acaea61a0fb,SCN,2024-06-24_16h40.25.955,LearnStrategy,2023.2.3,Win32,60.24096386,6,1,1,-0.385416667,0.071614583,1,0,0,1.9293,Basalt_05,2,05,4,2,1.929,-0.122395833,-0.240885417,1,0,0,1.7025,Basalt_rect,2,1.703,1,0,0,0,0,1,,,,,,,,,,,,,
64a03e8c3fdf9acaea61a0fb,SCN,2024-06-24_16h40.25.955,LearnStrategy,2023.2.3,Win32,60.24096386,6,1,2,0.079427083,-0.259114583,1,0,0,1.3127,Pumice_16,8,16,2,5,1.313,0.365885417,-0.391927083,1,0,0,1.1201,Pumice_rect,8,1.12,1,1,0,1,0,1,,,,,,,,,,,,,
64a03e8c3fdf9acaea61a0fb,SCN,2024-06-24_16h40.25.955,LearnStrategy,2023.2.3,Win32,60.24096386,6,1,3,-0.21484375,-0.240885417,1,0,0,1.08,Peridotite_10,7,10,2,3,1.08,0.065104167,-0.3984375,1,0,0,1.386,Peridotite_rect,7,1.386,1,2,0,2,0,1,,,,,,,,,,,,,
64a03e8c3fdf9acaea61a0fb,SCN,2024-06-24_16h40.25.955,LearnStrategy,2023.2.3,Win32,60.24096386,6,1,4,-0.209635417,-0.40234375,1,0,0,1.1295,Peridotite_16,7,16,1,3,1.13,0.069010417,-0.390625,1,0,0,1.3512,Peridotite_rect,7,1.351,1,3,0,3,0,1,,,,,,,,,,,,,
64a03e8c3fdf9acaea61a0fb,SCN,2024-06-24_16h40.25.955,LearnStrategy,2023.2.3,Win32,60.24096386,6,1,5,-0.377604167,-0.403645833,1,0,0,1.5296,Basalt_11,2,11,1,2,1.53,0.095052083,-0.2578125,1,0,0,3.286,Diorite_rect,3,3.286,0,4,0,4,0,1,,,,,,,,,,,,,
64a03e8c3fdf9acaea61a0fb,SCN,2024-06-24_16h40.25.955,LearnStrategy,2023.2.3,Win32,60.24096386,6,1,6,0.41015625,-0.09765625,1,0,0,1.5448,Diorite_02,3,02,3,7,1.545,-0.088541667,-0.407552083,1,0,0,4.9333,Pegmatite_rect,6,4.933,0,5,0,5,0,1,,,,,,,,,,,,,
64a03e8c3fdf9acaea61a0fb,SCN,2024-06-24_16h40.25.955,LearnStrategy,2023.2.3,Win32,60.24096386,6,1,7,0.546875,-0.221354167,1,0,0,1.9941,Basalt_04,2,04,2,8,1.994,-0.095052083,-0.25,1,0,0,5.0598,Basalt_rect,2,5.06,1,6,0,6,0,1,,,,,,,,,,,,,
64a03e8c3fdf9acaea61a0fb,SCN,2024-06-24_16h40.25.955,LearnStrategy,2023.2.3,Win32,60.24096386,6,1,8,-0.200520833,0.256510417,1,0,0,1.645,Obsidian_05,5,05,5,3,1.645,-0.403645833,-0.408854167,1,0,0,2.2927,Obsidian_rect,5,2.293,1,7,0,7,0,1,,,,,,,,,,,,,
64a03e8c3fdf9acaea61a0fb,SCN,2024-06-24_16h40.25.955,LearnStrategy,2023.2.3,Win32,60.24096386,6,1,9,0.384114583,0.23828125,1,0,0,2.2619,Gabbro_08,4,08,5,7,2.262,-0.390625,-0.2421875,1,0,0,2.7442,Andesite_rect,1,2.744,0,8,0,8,0,1,,,,,,,,,,,,,
64a03e8c3fdf9acaea61a0fb,SCN,2024-06-24_16h40.25.955,LearnStrategy,2023.2.3,Win32,60.24096386,6,1,10,0.3984375,-0.412760417,1,0,0,4.0129,Gabbro_14,4,14,1,7,4.013,0.12109375,-0.252604167,1,0,0,4.659,Diorite_rect,3,4.659,0,9,0,9,0,1,,,,,,,,,,,,,
64a03e8c3fdf9acaea61a0fb,SCN,2024-06-24_16h40.25.955,LearnStrategy,2023.2.3,Win32,60.24096386,6,1,11,-0.23828125,-0.126302083,1,0,0,2.2607,Andesite_04,1,04,3,3,2.261,0.134114583,-0.229166667,1,0,0,1.3526,Diorite_rect,3,1.353,0,10,0,10,0,1,,,,,,,,,,,,,
64a03e8c3fdf9acaea61a0fb,SCN,2024-06-24_16h40.25.955,LearnStrategy,2023.2.3,Win32,60.24096386,6,1,12,-0.052083333,0.088541667,1,0,0,1.8292,Gabbro_13,4,13,4,4,1.829,-0.36328125,-0.264322917,1,0,0,8.1375,Andesite_rect,1,8.137,0,11,0,11,0,1,,,,,,,,,,,,,
64a03e8c3fdf9acaea61a0fb,SCN,2024-06-24_16h40.25.955,LearnStrategy,2023.2.3,Win32,60.24096386,6,1,13,-0.0703125,-0.100260417,1,0,0,1.7129,Basalt_12,2,12,3,4,1.713,0.37109375,-0.384114583,1,0,0,1.869,Pumice_rect,8,1.869,0,12,0,12,0,1,,,,,,,,,,,,,
64a03e8c3fdf9acaea61a0fb,SCN,2024-06-24_16h40.25.955,LearnStrategy,2023.2.3,Win32,60.24096386,6,1,14,0.389322917,0.0859375,1,0,0,2.2619,Diorite_10,3,10,4,7,2.262,0.147135417,-0.259114583,1,0,0,3.2199,Diorite_rect,3,3.22,1,13,0,13,0,1,,,,,,,,,,,,,
64a03e8c3fdf9acaea61a0fb,SCN,2024-06-24_16h40.25.955,LearnStrategy,2023.2.3,Win32,60.24096386,6,1,15,-0.533854167,-0.259114583,1,0,0,3.0773,Gabbro_16,4,16,2,1,3.077,0.37109375,-0.25,1,0,0,4.9655,Gabbro_rect,4,4.966,1,14,0,14,0,1,,,,,,,,,,,,,
64a03e8c3fdf9acaea61a0fb,SCN,2024-06-24_16h40.25.955,LearnStrategy,2023.2.3,Win32,60.24096386,6,1,16,-0.0859375,0.404947917,1,0,0,5.1911,Pumice_03,8,03,6,4,5.191,0.407552083,-0.408854167,1,0,0,3.3346,Pumice_rect,8,3.335,1,15,0,15,0,1,,,,,,,,,,,,,
64a03e8c3fdf9acaea61a0fb,SCN,2024-06-24_16h40.25.955,LearnStrategy,2023.2.3,Win32,60.24096386,6,2,1,,,,,,,,4,05,,,,,,,,,,,1,13.815,0,,,,,,-0.342447917,-0.252604167,1,0,0,13.8155,Andesite_rect,0,0,0,0,1,
64a03e8c3fdf9acaea61a0fb,SCN,2024-06-24_16h40.25.955,LearnStrategy,2023.2.3,Win32,60.24096386,6,2,2,,,,,,,,5,16,,,,,,,,,,,5,1.369,1,,,,,,-0.356770833,-0.415364583,1,0,0,1.369,Obsidian_rect,1,0,1,0,1,
64a03e8c3fdf9acaea61a0fb,SCN,2024-06-24_16h40.25.955,LearnStrategy,2023.2.3,Win32,60.24096386,6,2,3,,,,,,,,1,06,,,,,,,,,,,3,4.136,0,,,,,,0.131510417,-0.264322917,1,0,0,4.1355,Diorite_rect,2,0,2,0,1,
64a03e8c3fdf9acaea61a0fb,SCN,2024-06-24_16h40.25.955,LearnStrategy,2023.2.3,Win32,60.24096386,6,2,4,,,,,,,,4,10,,,,,,,,,,,4,8.364,1,,,,,,0.395833333,-0.259114583,1,0,0,8.3644,Gabbro_rect,3,0,3,0,1,
64a03e8c3fdf9acaea61a0fb,SCN,2024-06-24_16h40.25.955,LearnStrategy,2023.2.3,Win32,60.24096386,6,2,5,,,,,,,,5,12,,,,,,,,,,,5,2.618,1,,,,,,-0.352864583,-0.40625,1,0,0,2.6184,Obsidian_rect,4,0,4,0,1,
64a03e8c3fdf9acaea61a0fb,SCN,2024-06-24_16h40.25.955,LearnStrategy,2023.2.3,Win32,60.24096386,6,2,6,,,,,,,,7,12,,,,,,,,,,,7,1.859,1,,,,,,0.091145833,-0.39453125,1,0,0,1.8592,Peridotite_rect,5,0,5,0,1,
64a03e8c3fdf9acaea61a0fb,SCN,2024-06-24_16h40.25.955,LearnStrategy,2023.2.3,Win32,60.24096386,6,2,7,,,,,,,,8,13,,,,,,,,,,,8,2.453,1,,,,,,0.3515625,-0.407552083,1,0,0,2.4525,Pumice_rect,6,0,6,0,1,
64a03e8c3fdf9acaea61a0fb,SCN,2024-06-24_16h40.25.955,LearnStrategy,2023.2.3,Win32,60.24096386,6,2,8,,,,,,,,3,14,,,,,,,,,,,6,11.144,0,,,,,,-0.1015625,-0.393229167,1,0,0,11.1443,Pegmatite_rect,7,0,7,0,1,
64a03e8c3fdf9acaea61a0fb,SCN,2024-06-24_16h40.25.955,LearnStrategy,2023.2.3,Win32,60.24096386,6,2,9,,,,,,,,2,06,,,,,,,,,,,2,5.85,1,,,,,,-0.091145833,-0.2578125,1,0,0,5.8496,Basalt_rect,8,0,8,0,1,
64a03e8c3fdf9acaea61a0fb,SCN,2024-06-24_16h40.25.955,LearnStrategy,2023.2.3,Win32,60.24096386,6,2,10,,,,,,,,8,02,,,,,,,,,,,8,3.286,1,,,,,,0.4296875,-0.41015625,1,0,0,3.2857,Pumice_rect,9,0,9,0,1,
64a03e8c3fdf9acaea61a0fb,SCN,2024-06-24_16h40.25.955,LearnStrategy,2023.2.3,Win32,60.24096386,6,2,11,,,,,,,,6,03,,,,,,,,,,,7,1.819,0,,,,,,0.16015625,-0.416666667,1,0,0,1.8189,Peridotite_rect,10,0,10,0,1,
64a03e8c3fdf9acaea61a0fb,SCN,2024-06-24_16h40.25.955,LearnStrategy,2023.2.3,Win32,60.24096386,6,2,12,,,,,,,,7,07,,,,,,,,,,,6,2.953,0,,,,,,-0.115885417,-0.40625,1,0,0,2.9533,Pegmatite_rect,11,0,11,0,1,
64a03e8c3fdf9acaea61a0fb,SCN,2024-06-24_16h40.25.955,LearnStrategy,2023.2.3,Win32,60.24096386,6,2,13,,,,,,,,2,08,,,,,,,,,,,4,7.358,0,,,,,,0.38671875,-0.236979167,1,0,0,7.3582,Gabbro_rect,12,0,12,0,1,
64a03e8c3fdf9acaea61a0fb,SCN,2024-06-24_16h40.25.955,LearnStrategy,2023.2.3,Win32,60.24096386,6,2,14,,,,,,,,6,11,,,,,,,,,,,6,6.782,1,,,,,,-0.126302083,-0.412760417,1,0,0,6.782,Pegmatite_rect,13,0,13,0,1,
64a03e8c3fdf9acaea61a0fb,SCN,2024-06-24_16h40.25.955,LearnStrategy,2023.2.3,Win32,60.24096386,6,2,15,,,,,,,,1,05,,,,,,,,,,,3,5.833,0,,,,,,0.10546875,-0.240885417,1,0,0,5.8332,Diorite_rect,14,0,14,0,1,
64a03e8c3fdf9acaea61a0fb,SCN,2024-06-24_16h40.25.955,LearnStrategy,2023.2.3,Win32,60.24096386,6,2,16,,,,,,,,3,09,,,,,,,,,,,3,4.634,1,,,,,,0.10546875,-0.240885417,1,0,0,4.6344,Diorite_rect,15,0,15,0,1,
64a03e8c3fdf9acaea61a0fb,SCN,2024-06-24_16h40.25.955,LearnStrategy,2023.2.3,Win32,60.24096386,7,1,1,0.100260417,-0.1171875,1,0,0,1.5161,Obsidian_09,5,09,3,5,1.516,-0.329427083,-0.41015625,1,0,0,1.3118,Obsidian_rect,5,1.312,1,0,0,0,0,1,,,,,,,,,,,,,
64a03e8c3fdf9acaea61a0fb,SCN,2024-06-24_16h40.25.955,LearnStrategy,2023.2.3,Win32,60.24096386,7,1,2,0.243489583,-0.098958333,1,0,0,2.279,Pegmatite_07,6,07,3,6,2.279,0.111979167,-0.412760417,1,0,0,2.339,Peridotite_rect,7,2.339,0,1,0,1,0,1,,,,,,,,,,,,,
64a03e8c3fdf9acaea61a0fb,SCN,2024-06-24_16h40.25.955,LearnStrategy,2023.2.3,Win32,60.24096386,7,1,3,0.2421875,-0.234375,1,0,0,1.8957,Pegmatite_16,6,16,2,6,1.896,-0.125,-0.3984375,1,0,0,4.6986,Pegmatite_rect,6,4.699,1,2,0,2,0,1,,,,,,,,,,,,,
64a03e8c3fdf9acaea61a0fb,SCN,2024-06-24_16h40.25.955,LearnStrategy,2023.2.3,Win32,60.24096386,7,1,4,-0.552083333,-0.41796875,1,0,0,2.561,Peridotite_06,7,06,1,1,2.561,0.049479167,-0.37890625,1,0,0,2.0359,Peridotite_rect,7,2.036,1,3,0,3,0,1,,,,,,,,,,,,,
64a03e8c3fdf9acaea61a0fb,SCN,2024-06-24_16h40.25.955,LearnStrategy,2023.2.3,Win32,60.24096386,7,1,5,0.411458333,0.098958333,1,0,0,2.3783,Diorite_10,3,10,4,7,2.378,0.131510417,-0.240885417,1,0,0,5.2061,Diorite_rect,3,5.206,1,4,0,4,0,1,,,,,,,,,,,,,
64a03e8c3fdf9acaea61a0fb,SCN,2024-06-24_16h40.25.955,LearnStrategy,2023.2.3,Win32,60.24096386,7,1,6,-0.266927083,0.127604167,1,0,0,3.3763,Diorite_15,3,15,4,3,3.376,0.141927083,-0.244791667,1,0,0,3.0852,Diorite_rect,3,3.085,1,5,0,5,0,1,,,,,,,,,,,,,
64a03e8c3fdf9acaea61a0fb,SCN,2024-06-24_16h40.25.955,LearnStrategy,2023.2.3,Win32,60.24096386,7,1,7,-0.236979167,-0.102864583,1,0,0,5.3931,Andesite_04,1,04,3,3,5.393,0.14453125,-0.233072917,1,0,0,1.3198,Diorite_rect,3,1.32,0,6,0,6,0,1,,,,,,,,,,,,,
64a03e8c3fdf9acaea61a0fb,SCN,2024-06-24_16h40.25.955,LearnStrategy,2023.2.3,Win32,60.24096386,7,1,8,0.407552083,0.05859375,1,0,0,1.6137,Diorite_10,3,10,4,7,1.614,-0.377604167,-0.243489583,1,0,0,1.7012,Andesite_rect,1,1.701,0,7,0,7,0,1,,,,,,,,,,,,,
64a03e8c3fdf9acaea61a0fb,SCN,2024-06-24_16h40.25.955,LearnStrategy,2023.2.3,Win32,60.24096386,7,1,9,-0.56640625,-0.08203125,1,0,0,2.6453,Andesite_14,1,14,3,1,2.645,-0.3984375,-0.247395833,1,0,0,2.1023,Andesite_rect,1,2.102,1,8,0,8,0,1,,,,,,,,,,,,,
64a03e8c3fdf9acaea61a0fb,SCN,2024-06-24_16h40.25.955,LearnStrategy,2023.2.3,Win32,60.24096386,7,1,10,-0.388020833,0.244791667,1,0,0,2.145,Pumice_10,8,10,5,2,2.145,0.424479167,-0.4140625,1,0,0,1.7041,Pumice_rect,8,1.704,1,9,0,9,0,1,,,,,,,,,,,,,
64a03e8c3fdf9acaea61a0fb,SCN,2024-06-24_16h40.25.955,LearnStrategy,2023.2.3,Win32,60.24096386,7,1,11,-0.58203125,0.266927083,1,0,0,1.7461,Diorite_16,3,16,5,1,1.746,-0.41015625,-0.23828125,1,0,0,2.0516,Andesite_rect,1,2.052,0,10,0,10,0,1,,,,,,,,,,,,,
64a03e8c3fdf9acaea61a0fb,SCN,2024-06-24_16h40.25.955,LearnStrategy,2023.2.3,Win32,60.24096386,7,1,12,0.518229167,0.079427083,1,0,0,1.5956,Andesite_03,1,03,4,8,1.596,0.131510417,-0.265625,1,0,0,1.5621,Diorite_rect,3,1.562,0,11,0,11,0,1,,,,,,,,,,,,,
64a03e8c3fdf9acaea61a0fb,SCN,2024-06-24_16h40.25.955,LearnStrategy,2023.2.3,Win32,60.24096386,7,1,13,0.38671875,-0.25,1,0,0,3.7567,Basalt_14,2,14,2,7,3.757,0.38671875,-0.25,1,0,0,4.0695,Gabbro_rect,4,4.07,0,12,0,12,0,1,,,,,,,,,,,,,
64a03e8c3fdf9acaea61a0fb,SCN,2024-06-24_16h40.25.955,LearnStrategy,2023.2.3,Win32,60.24096386,7,1,14,-0.279947917,-0.08984375,1,0,0,2.3502,Andesite_04,1,04,3,3,2.35,0.127604167,-0.2421875,1,0,0,2.2615,Diorite_rect,3,2.262,0,13,0,13,0,1,,,,,,,,,,,,,
64a03e8c3fdf9acaea61a0fb,SCN,2024-06-24_16h40.25.955,LearnStrategy,2023.2.3,Win32,60.24096386,7,1,15,0.256510417,-0.388020833,1,0,0,2.9119,Pegmatite_12,6,12,1,6,2.912,-0.065104167,-0.419270833,1,0,0,3.0024,Pegmatite_rect,6,3.002,1,14,0,14,0,1,,,,,,,,,,,,,
64a03e8c3fdf9acaea61a0fb,SCN,2024-06-24_16h40.25.955,LearnStrategy,2023.2.3,Win32,60.24096386,7,1,16,-0.377604167,-0.412760417,1,0,0,1.9276,Basalt_11,2,11,1,2,1.928,-0.3515625,-0.259114583,1,0,0,4.5664,Andesite_rect,1,4.566,0,15,0,15,0,1,,,,,,,,,,,,,
64a03e8c3fdf9acaea61a0fb,SCN,2024-06-24_16h40.25.955,LearnStrategy,2023.2.3,Win32,60.24096386,7,2,1,,,,,,,,5,12,,,,,,,,,,,5,1.399,1,,,,,,-0.399739583,-0.421875,1,0,0,1.3994,Obsidian_rect,0,0,0,0,1,
64a03e8c3fdf9acaea61a0fb,SCN,2024-06-24_16h40.25.955,LearnStrategy,2023.2.3,Win32,60.24096386,7,2,2,,,,,,,,8,08,,,,,,,,,,,8,1.785,1,,,,,,0.356770833,-0.40234375,1,0,0,1.7855,Pumice_rect,1,0,1,0,1,
64a03e8c3fdf9acaea61a0fb,SCN,2024-06-24_16h40.25.955,LearnStrategy,2023.2.3,Win32,60.24096386,7,2,3,,,,,,,,6,06,,,,,,,,,,,6,1.971,1,,,,,,-0.083333333,-0.404947917,1,0,0,1.971,Pegmatite_rect,2,0,2,0,1,
64a03e8c3fdf9acaea61a0fb,SCN,2024-06-24_16h40.25.955,LearnStrategy,2023.2.3,Win32,60.24096386,7,2,4,,,,,,,,2,09,,,,,,,,,,,4,9.482,0,,,,,,0.401041667,-0.23046875,1,0,0,9.4816,Gabbro_rect,3,0,3,0,1,
64a03e8c3fdf9acaea61a0fb,SCN,2024-06-24_16h40.25.955,LearnStrategy,2023.2.3,Win32,60.24096386,7,2,5,,,,,,,,4,09,,,,,,,,,,,1,7.748,0,,,,,,-0.3828125,-0.240885417,1,0,0,7.748,Andesite_rect,4,0,4,0,1,
64a03e8c3fdf9acaea61a0fb,SCN,2024-06-24_16h40.25.955,LearnStrategy,2023.2.3,Win32,60.24096386,7,2,6,,,,,,,,1,07,,,,,,,,,,,3,2.62,0,,,,,,0.14453125,-0.26171875,1,0,0,2.6197,Diorite_rect,5,0,5,0,1,
64a03e8c3fdf9acaea61a0fb,SCN,2024-06-24_16h40.25.955,LearnStrategy,2023.2.3,Win32,60.24096386,7,2,7,,,,,,,,2,06,,,,,,,,,,,2,6.523,1,,,,,,-0.12890625,-0.26171875,1,0,0,6.5229,Basalt_rect,6,0,6,0,1,
64a03e8c3fdf9acaea61a0fb,SCN,2024-06-24_16h40.25.955,LearnStrategy,2023.2.3,Win32,60.24096386,7,2,8,,,,,,,,6,03,,,,,,,,,,,7,2.35,0,,,,,,0.171875,-0.401041667,1,0,0,2.3501,Peridotite_rect,7,0,7,0,1,
64a03e8c3fdf9acaea61a0fb,SCN,2024-06-24_16h40.25.955,LearnStrategy,2023.2.3,Win32,60.24096386,7,2,9,,,,,,,,3,14,,,,,,,,,,,6,2.483,0,,,,,,-0.106770833,-0.393229167,1,0,0,2.4834,Pegmatite_rect,8,0,8,0,1,
64a03e8c3fdf9acaea61a0fb,SCN,2024-06-24_16h40.25.955,LearnStrategy,2023.2.3,Win32,60.24096386,7,2,10,,,,,,,,1,06,,,,,,,,,,,1,6.504,1,,,,,,-0.34375,-0.247395833,1,0,0,6.5035,Andesite_rect,9,0,9,0,1,
64a03e8c3fdf9acaea61a0fb,SCN,2024-06-24_16h40.25.955,LearnStrategy,2023.2.3,Win32,60.24096386,7,2,11,,,,,,,,7,13,,,,,,,,,,,7,1.853,1,,,,,,0.09375,-0.412760417,1,0,0,1.8532,Peridotite_rect,10,0,10,0,1,
64a03e8c3fdf9acaea61a0fb,SCN,2024-06-24_16h40.25.955,LearnStrategy,2023.2.3,Win32,60.24096386,7,2,12,,,,,,,,4,03,,,,,,,,,,,2,5.7,0,,,,,,-0.0859375,-0.265625,1,0,0,5.6997,Basalt_rect,11,0,11,0,1,
64a03e8c3fdf9acaea61a0fb,SCN,2024-06-24_16h40.25.955,LearnStrategy,2023.2.3,Win32,60.24096386,7,2,13,,,,,,,,8,02,,,,,,,,,,,8,1.688,1,,,,,,0.416666667,-0.40625,1,0,0,1.6877,Pumice_rect,12,0,12,0,1,
64a03e8c3fdf9acaea61a0fb,SCN,2024-06-24_16h40.25.955,LearnStrategy,2023.2.3,Win32,60.24096386,7,2,14,,,,,,,,3,13,,,,,,,,,,,6,3.702,0,,,,,,-0.098958333,-0.407552083,1,0,0,3.7018,Pegmatite_rect,13,0,13,0,1,
64a03e8c3fdf9acaea61a0fb,SCN,2024-06-24_16h40.25.955,LearnStrategy,2023.2.3,Win32,60.24096386,7,2,15,,,,,,,,7,12,,,,,,,,,,,7,1.672,1,,,,,,0.111979167,-0.416666667,1,0,0,1.6718,Peridotite_rect,14,0,14,0,1,
64a03e8c3fdf9acaea61a0fb,SCN,2024-06-24_16h40.25.955,LearnStrategy,2023.2.3,Win32,60.24096386,7,2,16,,,,,,,,5,16,,,,,,,,,,,5,1.522,1,,,,,,-0.35546875,-0.397135417,1,0,0,1.5221,Obsidian_rect,15,0,15,0,1,
64a03e8c3fdf9acaea61a0fb,SCN,2024-06-24_16h40.25.955,LearnStrategy,2023.2.3,Win32,60.24096386,8,1,1,0.234375,0.084635417,1,0,0,1.7923,Pegmatite_05,6,05,4,6,1.792,-0.1484375,-0.419270833,1,0,0,1.71,Pegmatite_rect,6,1.71,1,0,0,0,0,1,,,,,,,,,,,,,
64a03e8c3fdf9acaea61a0fb,SCN,2024-06-24_16h40.25.955,LearnStrategy,2023.2.3,Win32,60.24096386,8,1,2,0.545572917,0.096354167,1,0,0,1.2801,Andesite_03,1,03,4,8,1.28,0.125,-0.240885417,1,0,0,1.8379,Diorite_rect,3,1.838,0,1,0,1,0,1,,,,,,,,,,,,,
64a03e8c3fdf9acaea61a0fb,SCN,2024-06-24_16h40.25.955,LearnStrategy,2023.2.3,Win32,60.24096386,8,1,3,-0.390625,0.102864583,1,0,0,2.0789,Basalt_05,2,05,4,2,2.079,0.381510417,-0.256510417,1,0,0,1.6789,Gabbro_rect,4,1.679,0,2,0,2,0,1,,,,,,,,,,,,,
64a03e8c3fdf9acaea61a0fb,SCN,2024-06-24_16h40.25.955,LearnStrategy,2023.2.3,Win32,60.24096386,8,1,4,-0.229166667,0.420572917,1,0,0,1.9645,Gabbro_11,4,11,6,3,1.965,-0.12890625,-0.236979167,1,0,0,2.8948,Basalt_rect,2,2.895,0,3,0,3,0,1,,,,,,,,,,,,,
64a03e8c3fdf9acaea61a0fb,SCN,2024-06-24_16h40.25.955,LearnStrategy,2023.2.3,Win32,60.24096386,8,1,5,0.368489583,0.2421875,1,0,0,1.3957,Gabbro_08,4,08,5,7,1.396,-0.365885417,-0.24609375,1,0,0,5.2576,Andesite_rect,1,5.258,0,4,0,4,0,1,,,,,,,,,,,,,
64a03e8c3fdf9acaea61a0fb,SCN,2024-06-24_16h40.25.955,LearnStrategy,2023.2.3,Win32,60.24096386,8,1,6,0.541666667,-0.098958333,1,0,0,1.5488,Andesite_09,1,09,3,8,1.549,-0.397135417,-0.247395833,1,0,0,1.8605,Andesite_rect,1,1.861,1,5,0,5,0,1,,,,,,,,,,,,,
64a03e8c3fdf9acaea61a0fb,SCN,2024-06-24_16h40.25.955,LearnStrategy,2023.2.3,Win32,60.24096386,8,1,7,-0.53515625,-0.083333333,1,0,0,5.8918,Andesite_14,1,14,3,1,5.892,-0.404947917,-0.2421875,1,0,0,2.5479,Andesite_rect,1,2.548,1,6,0,6,0,1,,,,,,,,,,,,,
64a03e8c3fdf9acaea61a0fb,SCN,2024-06-24_16h40.25.955,LearnStrategy,2023.2.3,Win32,60.24096386,8,1,8,-0.384114583,-0.411458333,1,0,0,2.1605,Basalt_11,2,11,1,2,2.16,-0.356770833,-0.26171875,1,0,0,2.0688,Andesite_rect,1,2.069,0,7,0,7,0,1,,,,,,,,,,,,,
64a03e8c3fdf9acaea61a0fb,SCN,2024-06-24_16h40.25.955,LearnStrategy,2023.2.3,Win32,60.24096386,8,1,9,-0.545572917,-0.111979167,1,0,0,7.4735,Andesite_14,1,14,3,1,7.474,-0.401041667,-0.248697917,1,0,0,2.3936,Andesite_rect,1,2.394,1,8,0,8,0,1,,,,,,,,,,,,,
64a03e8c3fdf9acaea61a0fb,SCN,2024-06-24_16h40.25.955,LearnStrategy,2023.2.3,Win32,60.24096386,8,1,10,0.419270833,-0.407552083,1,0,0,3.3106,Gabbro_14,4,14,1,7,3.311,0.373697917,-0.25,1,0,0,2.7857,Gabbro_rect,4,2.786,1,9,0,9,0,1,,,,,,,,,,,,,
64a03e8c3fdf9acaea61a0fb,SCN,2024-06-24_16h40.25.955,LearnStrategy,2023.2.3,Win32,60.24096386,8,1,11,0.389322917,0.235677083,1,0,0,4.9433,Gabbro_08,4,08,5,7,4.943,-0.37109375,-0.243489583,1,0,0,2.6607,Andesite_rect,1,2.661,0,10,0,10,0,1,,,,,,,,,,,,,
64a03e8c3fdf9acaea61a0fb,SCN,2024-06-24_16h40.25.955,LearnStrategy,2023.2.3,Win32,60.24096386,8,1,12,-0.044270833,-0.07421875,1,0,0,1.3818,Basalt_12,2,12,3,4,1.382,0.359375,-0.388020833,1,0,0,2.3103,Pumice_rect,8,2.31,0,11,0,11,0,1,,,,,,,,,,,,,
64a03e8c3fdf9acaea61a0fb,SCN,2024-06-24_16h40.25.955,LearnStrategy,2023.2.3,Win32,60.24096386,8,1,13,-0.21484375,-0.09375,1,0,0,1.9636,Andesite_04,1,04,3,3,1.964,0.127604167,-0.239583333,1,0,0,4.2489,Diorite_rect,3,4.249,0,12,0,12,0,1,,,,,,,,,,,,,
64a03e8c3fdf9acaea61a0fb,SCN,2024-06-24_16h40.25.955,LearnStrategy,2023.2.3,Win32,60.24096386,8,1,14,0.5390625,-0.239583333,1,0,0,7.6572,Basalt_04,2,04,2,8,7.657,0.401041667,-0.248697917,1,0,0,2.4679,Gabbro_rect,4,2.468,0,13,0,13,0,1,,,,,,,,,,,,,
64a03e8c3fdf9acaea61a0fb,SCN,2024-06-24_16h40.25.955,LearnStrategy,2023.2.3,Win32,60.24096386,8,1,15,-0.385416667,-0.41796875,1,0,0,2.1446,Basalt_11,2,11,1,2,2.145,-0.096354167,-0.247395833,1,0,0,3.4426,Basalt_rect,2,3.443,1,14,0,14,0,1,,,,,,,,,,,,,
64a03e8c3fdf9acaea61a0fb,SCN,2024-06-24_16h40.25.955,LearnStrategy,2023.2.3,Win32,60.24096386,8,1,16,0.375,0.08203125,1,0,0,2.6651,Diorite_10,3,10,4,7,2.665,0.119791667,-0.25390625,1,0,0,1.7005,Diorite_rect,3,1.701,1,15,0,15,0,1,,,,,,,,,,,,,
64a03e8c3fdf9acaea61a0fb,SCN,2024-06-24_16h40.25.955,LearnStrategy,2023.2.3,Win32,60.24096386,8,2,1,,,,,,,,3,06,,,,,,,,,,,3,8.671,1,,,,,,0.096354167,-0.244791667,1,0,0,8.6707,Diorite_rect,0,0,0,0,1,
64a03e8c3fdf9acaea61a0fb,SCN,2024-06-24_16h40.25.955,LearnStrategy,2023.2.3,Win32,60.24096386,8,2,2,,,,,,,,6,11,,,,,,,,,,,6,7.981,1,,,,,,-0.111979167,-0.404947917,1,0,0,7.9807,Pegmatite_rect,1,0,1,0,1,
64a03e8c3fdf9acaea61a0fb,SCN,2024-06-24_16h40.25.955,LearnStrategy,2023.2.3,Win32,60.24096386,8,2,3,,,,,,,,4,05,,,,,,,,,,,4,13.657,1,,,,,,0.40234375,-0.25390625,1,0,0,13.6573,Gabbro_rect,2,0,2,0,1,
64a03e8c3fdf9acaea61a0fb,SCN,2024-06-24_16h40.25.955,LearnStrategy,2023.2.3,Win32,60.24096386,8,2,4,,,,,,,,7,04,,,,,,,,,,,6,9.021,0,,,,,,-0.106770833,-0.390625,1,0,0,9.0207,Pegmatite_rect,3,0,3,0,1,
64a03e8c3fdf9acaea61a0fb,SCN,2024-06-24_16h40.25.955,LearnStrategy,2023.2.3,Win32,60.24096386,8,2,5,,,,,,,,5,10,,,,,,,,,,,5,4.118,1,,,,,,-0.356770833,-0.389322917,1,0,0,4.1178,Obsidian_rect,4,0,4,0,1,
64a03e8c3fdf9acaea61a0fb,SCN,2024-06-24_16h40.25.955,LearnStrategy,2023.2.3,Win32,60.24096386,8,2,6,,,,,,,,8,13,,,,,,,,,,,8,5.158,1,,,,,,0.369791667,-0.399739583,1,0,0,5.1584,Pumice_rect,5,0,5,0,1,
64a03e8c3fdf9acaea61a0fb,SCN,2024-06-24_16h40.25.955,LearnStrategy,2023.2.3,Win32,60.24096386,8,2,7,,,,,,,,1,11,,,,,,,,,,,3,4.951,0,,,,,,0.153645833,-0.23828125,1,0,0,4.9509,Diorite_rect,6,0,6,0,1,
64a03e8c3fdf9acaea61a0fb,SCN,2024-06-24_16h40.25.955,LearnStrategy,2023.2.3,Win32,60.24096386,8,2,8,,,,,,,,4,01,,,,,,,,,,,1,6.648,0,,,,,,-0.3515625,-0.251302083,1,0,0,6.6484,Andesite_rect,7,0,7,0,1,
64a03e8c3fdf9acaea61a0fb,SCN,2024-06-24_16h40.25.955,LearnStrategy,2023.2.3,Win32,60.24096386,8,2,9,,,,,,,,8,04,,,,,,,,,,,8,3.295,1,,,,,,0.330729167,-0.416666667,1,0,0,3.2955,Pumice_rect,8,0,8,0,1,
64a03e8c3fdf9acaea61a0fb,SCN,2024-06-24_16h40.25.955,LearnStrategy,2023.2.3,Win32,60.24096386,8,2,10,,,,,,,,2,16,,,,,,,,,,,2,6.266,1,,,,,,-0.139322917,-0.260416667,1,0,0,6.2664,Basalt_rect,9,0,9,0,1,
64a03e8c3fdf9acaea61a0fb,SCN,2024-06-24_16h40.25.955,LearnStrategy,2023.2.3,Win32,60.24096386,8,2,11,,,,,,,,7,05,,,,,,,,,,,7,3.623,1,,,,,,0.127604167,-0.420572917,1,0,0,3.6231,Peridotite_rect,10,0,10,0,1,
64a03e8c3fdf9acaea61a0fb,SCN,2024-06-24_16h40.25.955,LearnStrategy,2023.2.3,Win32,60.24096386,8,2,12,,,,,,,,6,09,,,,,,,,,,,7,2.503,0,,,,,,0.127604167,-0.420572917,1,0,0,2.5028,Peridotite_rect,11,0,11,0,1,
64a03e8c3fdf9acaea61a0fb,SCN,2024-06-24_16h40.25.955,LearnStrategy,2023.2.3,Win32,60.24096386,8,2,13,,,,,,,,2,01,,,,,,,,,,,4,5.884,0,,,,,,0.420572917,-0.25,1,0,0,5.8836,Gabbro_rect,12,0,12,0,1,
64a03e8c3fdf9acaea61a0fb,SCN,2024-06-24_16h40.25.955,LearnStrategy,2023.2.3,Win32,60.24096386,8,2,14,,,,,,,,3,11,,,,,,,,,,,3,10.312,1,,,,,,0.15625,-0.255208333,1,0,0,10.3122,Diorite_rect,13,0,13,0,1,
64a03e8c3fdf9acaea61a0fb,SCN,2024-06-24_16h40.25.955,LearnStrategy,2023.2.3,Win32,60.24096386,8,2,15,,,,,,,,5,02,,,,,,,,,,,5,3.736,1,,,,,,-0.346354167,-0.403645833,1,0,0,3.7357,Obsidian_rect,14,0,14,0,1,
64a03e8c3fdf9acaea61a0fb,SCN,2024-06-24_16h40.25.955,LearnStrategy,2023.2.3,Win32,60.24096386,8,2,16,,,,,,,,1,10,,,,,,,,,,,1,8.514,1,,,,,,-0.416666667,-0.255208333,1,0,0,8.5144,Andesite_rect,15,0,15,0,1,
64a03e8c3fdf9acaea61a0fb,SCN,2024-06-24_16h40.25.955,LearnStrategy,2023.2.3,Win32,60.24096386,9,1,1,-0.227864583,-0.26171875,1,0,0,1.3139,Peridotite_10,7,10,2,3,1.314,-0.161458333,-0.397135417,1,0,0,3.3141,Pegmatite_rect,6,3.314,0,0,0,0,0,1,,,,,,,,,,,,,
64a03e8c3fdf9acaea61a0fb,SCN,2024-06-24_16h40.25.955,LearnStrategy,2023.2.3,Win32,60.24096386,9,1,2,0.252604167,-0.3828125,1,0,0,1.9444,Pegmatite_12,6,12,1,6,1.944,-0.071614583,-0.40625,1,0,0,1.7201,Pegmatite_rect,6,1.72,1,1,0,1,0,1,,,,,,,,,,,,,
64a03e8c3fdf9acaea61a0fb,SCN,2024-06-24_16h40.25.955,LearnStrategy,2023.2.3,Win32,60.24096386,9,1,3,0.24609375,0.07421875,1,0,0,1.9678,Pegmatite_05,6,05,4,6,1.968,-0.083333333,-0.401041667,1,0,0,2.1771,Pegmatite_rect,6,2.177,1,2,0,2,0,1,,,,,,,,,,,,,
64a03e8c3fdf9acaea61a0fb,SCN,2024-06-24_16h40.25.955,LearnStrategy,2023.2.3,Win32,60.24096386,9,1,4,-0.369791667,0.079427083,1,0,0,2.7778,Basalt_05,2,05,4,2,2.778,-0.1484375,-0.23828125,1,0,0,4.1377,Basalt_rect,2,4.138,1,3,0,3,0,1,,,,,,,,,,,,,
64a03e8c3fdf9acaea61a0fb,SCN,2024-06-24_16h40.25.955,LearnStrategy,2023.2.3,Win32,60.24096386,9,1,5,0.565104167,0.118489583,1,0,0,1.4951,Andesite_03,1,03,4,8,1.495,0.13671875,-0.264322917,1,0,0,2.3346,Diorite_rect,3,2.335,0,4,0,4,0,1,,,,,,,,,,,,,
64a03e8c3fdf9acaea61a0fb,SCN,2024-06-24_16h40.25.955,LearnStrategy,2023.2.3,Win32,60.24096386,9,1,6,0.360677083,0.266927083,1,0,0,2.6786,Gabbro_08,4,08,5,7,2.679,-0.365885417,-0.251302083,1,0,0,3.7014,Andesite_rect,1,3.701,0,5,0,5,0,1,,,,,,,,,,,,,
64a03e8c3fdf9acaea61a0fb,SCN,2024-06-24_16h40.25.955,LearnStrategy,2023.2.3,Win32,60.24096386,9,1,7,-0.053385417,0.380208333,1,0,0,2.1604,Pumice_03,8,03,6,4,2.16,0.408854167,-0.411458333,1,0,0,2.4178,Pumice_rect,8,2.418,1,6,0,6,0,1,,,,,,,,,,,,,
64a03e8c3fdf9acaea61a0fb,SCN,2024-06-24_16h40.25.955,LearnStrategy,2023.2.3,Win32,60.24096386,9,1,8,0.234375,0.393229167,1,0,0,3.2961,Peridotite_14,7,14,6,6,3.296,0.126302083,-0.239583333,1,0,0,2.8679,Diorite_rect,3,2.868,0,7,0,7,0,1,,,,,,,,,,,,,
64a03e8c3fdf9acaea61a0fb,SCN,2024-06-24_16h40.25.955,LearnStrategy,2023.2.3,Win32,60.24096386,9,1,9,-0.399739583,0.071614583,1,0,0,1.5618,Basalt_05,2,05,4,2,1.562,-0.16796875,-0.236979167,1,0,0,1.5692,Basalt_rect,2,1.569,1,8,0,8,0,1,,,,,,,,,,,,,
64a03e8c3fdf9acaea61a0fb,SCN,2024-06-24_16h40.25.955,LearnStrategy,2023.2.3,Win32,60.24096386,9,1,10,0.572916667,-0.274739583,1,0,0,1.6972,Basalt_04,2,04,2,8,1.697,-0.084635417,-0.240885417,1,0,0,1.2686,Basalt_rect,2,1.269,1,9,0,9,0,1,,,,,,,,,,,,,
64a03e8c3fdf9acaea61a0fb,SCN,2024-06-24_16h40.25.955,LearnStrategy,2023.2.3,Win32,60.24096386,9,1,11,-0.09765625,-0.4140625,1,0,0,3.0445,Basalt_02,2,02,1,4,3.044,0.1171875,-0.233072917,1,0,0,3.1528,Diorite_rect,3,3.153,0,10,0,10,0,1,,,,,,,,,,,,,
64a03e8c3fdf9acaea61a0fb,SCN,2024-06-24_16h40.25.955,LearnStrategy,2023.2.3,Win32,60.24096386,9,1,12,-0.397135417,-0.104166667,1,0,0,2.044,Gabbro_12,4,12,3,2,2.044,-0.13671875,-0.234375,1,0,0,1.3533,Basalt_rect,2,1.353,0,11,0,11,0,1,,,,,,,,,,,,,
64a03e8c3fdf9acaea61a0fb,SCN,2024-06-24_16h40.25.955,LearnStrategy,2023.2.3,Win32,60.24096386,9,1,13,-0.04296875,-0.071614583,1,0,0,7.2901,Basalt_12,2,12,3,4,7.29,-0.134114583,-0.251302083,1,0,0,2.1533,Basalt_rect,2,2.153,1,12,0,12,0,1,,,,,,,,,,,,,
64a03e8c3fdf9acaea61a0fb,SCN,2024-06-24_16h40.25.955,LearnStrategy,2023.2.3,Win32,60.24096386,9,1,14,0.563802083,-0.091145833,1,0,0,4.1604,Andesite_09,1,09,3,8,4.16,-0.115885417,-0.243489583,1,0,0,1.2205,Basalt_rect,2,1.22,0,13,0,13,0,1,,,,,,,,,,,,,
64a03e8c3fdf9acaea61a0fb,SCN,2024-06-24_16h40.25.955,LearnStrategy,2023.2.3,Win32,60.24096386,9,1,15,0.401041667,-0.404947917,1,0,0,2.1124,Gabbro_14,4,14,1,7,2.112,0.401041667,-0.25390625,1,0,0,4.3835,Gabbro_rect,4,4.383,1,14,0,14,0,1,,,,,,,,,,,,,
64a03e8c3fdf9acaea61a0fb,SCN,2024-06-24_16h40.25.955,LearnStrategy,2023.2.3,Win32,60.24096386,9,1,16,-0.578125,-0.247395833,1,0,0,2.2939,Gabbro_16,4,16,2,1,2.294,0.368489583,-0.229166667,1,0,0,1.4369,Gabbro_rect,4,1.437,1,15,0,15,0,1,,,,,,,,,,,,,
64a03e8c3fdf9acaea61a0fb,SCN,2024-06-24_16h40.25.955,LearnStrategy,2023.2.3,Win32,60.24096386,9,2,1,,,,,,,,2,08,,,,,,,,,,,2,9.012,1,,,,,,-0.134114583,-0.247395833,1,0,0,9.0124,Basalt_rect,0,0,0,0,1,
64a03e8c3fdf9acaea61a0fb,SCN,2024-06-24_16h40.25.955,LearnStrategy,2023.2.3,Win32,60.24096386,9,2,2,,,,,,,,8,15,,,,,,,,,,,8,5.6,1,,,,,,0.412760417,-0.404947917,1,0,0,5.6,Pumice_rect,1,0,1,0,1,
64a03e8c3fdf9acaea61a0fb,SCN,2024-06-24_16h40.25.955,LearnStrategy,2023.2.3,Win32,60.24096386,9,2,3,,,,,,,,3,09,,,,,,,,,,,3,6.465,1,,,,,,0.140625,-0.25390625,1,0,0,6.4654,Diorite_rect,2,0,2,0,1,
64a03e8c3fdf9acaea61a0fb,SCN,2024-06-24_16h40.25.955,LearnStrategy,2023.2.3,Win32,60.24096386,9,2,4,,,,,,,,4,10,,,,,,,,,,,1,9.229,0,,,,,,-0.3359375,-0.25,1,0,0,9.2293,Andesite_rect,3,0,3,0,1,
64a03e8c3fdf9acaea61a0fb,SCN,2024-06-24_16h40.25.955,LearnStrategy,2023.2.3,Win32,60.24096386,9,2,5,,,,,,,,7,07,,,,,,,,,,,7,4.997,1,,,,,,0.078125,-0.412760417,1,0,0,4.9975,Peridotite_rect,4,0,4,0,1,
64a03e8c3fdf9acaea61a0fb,SCN,2024-06-24_16h40.25.955,LearnStrategy,2023.2.3,Win32,60.24096386,9,2,6,,,,,,,,5,08,,,,,,,,,,,5,5.5,1,,,,,,-0.377604167,-0.411458333,1,0,0,5.5004,Obsidian_rect,5,0,5,0,1,
64a03e8c3fdf9acaea61a0fb,SCN,2024-06-24_16h40.25.955,LearnStrategy,2023.2.3,Win32,60.24096386,9,2,7,,,,,,,,5,07,,,,,,,,,,,5,1.489,1,,,,,,-0.377604167,-0.411458333,1,0,0,1.4887,Obsidian_rect,6,0,6,0,1,
64a03e8c3fdf9acaea61a0fb,SCN,2024-06-24_16h40.25.955,LearnStrategy,2023.2.3,Win32,60.24096386,9,2,8,,,,,,,,3,12,,,,,,,,,,,3,15.407,1,,,,,,0.10546875,-0.240885417,1,0,0,15.4065,Diorite_rect,7,0,7,0,1,
64a03e8c3fdf9acaea61a0fb,SCN,2024-06-24_16h40.25.955,LearnStrategy,2023.2.3,Win32,60.24096386,9,2,9,,,,,,,,6,15,,,,,,,,,,,6,5.833,1,,,,,,-0.131510417,-0.39453125,1,0,0,5.8326,Pegmatite_rect,8,0,8,0,1,
64a03e8c3fdf9acaea61a0fb,SCN,2024-06-24_16h40.25.955,LearnStrategy,2023.2.3,Win32,60.24096386,9,2,10,,,,,,,,7,02,,,,,,,,,,,7,4.949,1,,,,,,0.084635417,-0.399739583,1,0,0,4.9495,Peridotite_rect,9,0,9,0,1,
64a03e8c3fdf9acaea61a0fb,SCN,2024-06-24_16h40.25.955,LearnStrategy,2023.2.3,Win32,60.24096386,9,2,11,,,,,,,,1,05,,,,,,,,,,,1,8.997,1,,,,,,-0.329427083,-0.231770833,1,0,0,8.9968,Andesite_rect,10,0,10,0,1,
64a03e8c3fdf9acaea61a0fb,SCN,2024-06-24_16h40.25.955,LearnStrategy,2023.2.3,Win32,60.24096386,9,2,12,,,,,,,,6,13,,,,,,,,,,,6,6.832,1,,,,,,-0.166666667,-0.408854167,1,0,0,6.832,Pegmatite_rect,11,0,11,0,1,
64a03e8c3fdf9acaea61a0fb,SCN,2024-06-24_16h40.25.955,LearnStrategy,2023.2.3,Win32,60.24096386,9,2,13,,,,,,,,8,05,,,,,,,,,,,8,5.867,1,,,,,,0.368489583,-0.419270833,1,0,0,5.8667,Pumice_rect,12,0,12,0,1,
64a03e8c3fdf9acaea61a0fb,SCN,2024-06-24_16h40.25.955,LearnStrategy,2023.2.3,Win32,60.24096386,9,2,14,,,,,,,,1,16,,,,,,,,,,,4,9.445,0,,,,,,0.408854167,-0.229166667,1,0,0,9.4452,Gabbro_rect,13,0,13,0,1,
64a03e8c3fdf9acaea61a0fb,SCN,2024-06-24_16h40.25.955,LearnStrategy,2023.2.3,Win32,60.24096386,9,2,15,,,,,,,,2,10,,,,,,,,,,,4,3.635,0,,,,,,0.408854167,-0.229166667,1,0,0,3.6349,Gabbro_rect,14,0,14,0,1,
64a03e8c3fdf9acaea61a0fb,SCN,2024-06-24_16h40.25.955,LearnStrategy,2023.2.3,Win32,60.24096386,9,2,16,,,,,,,,4,15,,,,,,,,,,,2,5.083,0,,,,,,-0.0234375,-0.255208333,1,0,0,5.0835,Basalt_rect,15,0,15,0,1,
64a03e8c3fdf9acaea61a0fb,SCN,2024-06-24_16h40.25.955,LearnStrategy,2023.2.3,Win32,60.24096386,,,,,,,,,,,,,,,,,,,,,,,,,,,,,,,,,,,,,,,,,,,1
64a03e8c3fdf9acaea61a0fb,SCN,2024-06-24_16h40.25.955,LearnStrategy,2023.2.3,Win32,60.24096386,,,,,,,,,,,,,,,,,,,,,,,,,,,,,,,,,,,,,,,,,,,
64a03e8c3fdf9acaea61a0fb,SCN,2024-06-24_16h40.25.955,LearnStrategy,2023.2.3,Win32,60.24096386,,,,,,,,,,,7,06,1,1,,,,,,,,,,,,,,,,,,,,,,,,,,,,,
64a03e8c3fdf9acaea61a0fb,SCN,2024-06-24_16h40.25.955,LearnStrategy,2023.2.3,Win32,60.24096386,,,,,,,,,,,2,11,1,2,,,,,,,,,,,,,,,,,,,,,,,,,,,,,
64a03e8c3fdf9acaea61a0fb,SCN,2024-06-24_16h40.25.955,LearnStrategy,2023.2.3,Win32,60.24096386,,,,,,,,,,,7,16,1,3,,,,,,,,,,,,,,,,,,,,,,,,,,,,,
64a03e8c3fdf9acaea61a0fb,SCN,2024-06-24_16h40.25.955,LearnStrategy,2023.2.3,Win32,60.24096386,,,,,,,,,,,2,02,1,4,,,,,,,,,,,,,,,,,,,,,,,,,,,,,
64a03e8c3fdf9acaea61a0fb,SCN,2024-06-24_16h40.25.955,LearnStrategy,2023.2.3,Win32,60.24096386,,,,,,,,,,,5,14,1,5,,,,,,,,,,,,,,,,,,,,,,,,,,,,,
64a03e8c3fdf9acaea61a0fb,SCN,2024-06-24_16h40.25.955,LearnStrategy,2023.2.3,Win32,60.24096386,,,,,,,,,,,6,12,1,6,,,,,,,,,,,,,,,,,,,,,,,,,,,,,
64a03e8c3fdf9acaea61a0fb,SCN,2024-06-24_16h40.25.955,LearnStrategy,2023.2.3,Win32,60.24096386,,,,,,,,,,,4,14,1,7,,,,,,,,,,,,,,,,,,,,,,,,,,,,,
64a03e8c3fdf9acaea61a0fb,SCN,2024-06-24_16h40.25.955,LearnStrategy,2023.2.3,Win32,60.24096386,,,,,,,,,,,5,06,1,8,,,,,,,,,,,,,,,,,,,,,,,,,,,,,
64a03e8c3fdf9acaea61a0fb,SCN,2024-06-24_16h40.25.955,LearnStrategy,2023.2.3,Win32,60.24096386,,,,,,,,,,,4,16,2,1,,,,,,,,,,,,,,,,,,,,,,,,,,,,,
64a03e8c3fdf9acaea61a0fb,SCN,2024-06-24_16h40.25.955,LearnStrategy,2023.2.3,Win32,60.24096386,,,,,,,,,,,5,11,2,2,,,,,,,,,,,,,,,,,,,,,,,,,,,,,
64a03e8c3fdf9acaea61a0fb,SCN,2024-06-24_16h40.25.955,LearnStrategy,2023.2.3,Win32,60.24096386,,,,,,,,,,,7,10,2,3,,,,,,,,,,,,,,,,,,,,,,,,,,,,,
64a03e8c3fdf9acaea61a0fb,SCN,2024-06-24_16h40.25.955,LearnStrategy,2023.2.3,Win32,60.24096386,,,,,,,,,,,1,01,2,4,,,,,,,,,,,,,,,,,,,,,,,,,,,,,
64a03e8c3fdf9acaea61a0fb,SCN,2024-06-24_16h40.25.955,LearnStrategy,2023.2.3,Win32,60.24096386,,,,,,,,,,,8,16,2,5,,,,,,,,,,,,,,,,,,,,,,,,,,,,,
64a03e8c3fdf9acaea61a0fb,SCN,2024-06-24_16h40.25.955,LearnStrategy,2023.2.3,Win32,60.24096386,,,,,,,,,,,6,16,2,6,,,,,,,,,,,,,,,,,,,,,,,,,,,,,
64a03e8c3fdf9acaea61a0fb,SCN,2024-06-24_16h40.25.955,LearnStrategy,2023.2.3,Win32,60.24096386,,,,,,,,,,,2,14,2,7,,,,,,,,,,,,,,,,,,,,,,,,,,,,,
64a03e8c3fdf9acaea61a0fb,SCN,2024-06-24_16h40.25.955,LearnStrategy,2023.2.3,Win32,60.24096386,,,,,,,,,,,2,04,2,8,,,,,,,,,,,,,,,,,,,,,,,,,,,,,
64a03e8c3fdf9acaea61a0fb,SCN,2024-06-24_16h40.25.955,LearnStrategy,2023.2.3,Win32,60.24096386,,,,,,,,,,,1,14,3,1,,,,,,,,,,,,,,,,,,,,,,,,,,,,,
64a03e8c3fdf9acaea61a0fb,SCN,2024-06-24_16h40.25.955,LearnStrategy,2023.2.3,Win32,60.24096386,,,,,,,,,,,4,12,3,2,,,,,,,,,,,,,,,,,,,,,,,,,,,,,
64a03e8c3fdf9acaea61a0fb,SCN,2024-06-24_16h40.25.955,LearnStrategy,2023.2.3,Win32,60.24096386,,,,,,,,,,,1,04,3,3,,,,,,,,,,,,,,,,,,,,,,,,,,,,,
64a03e8c3fdf9acaea61a0fb,SCN,2024-06-24_16h40.25.955,LearnStrategy,2023.2.3,Win32,60.24096386,,,,,,,,,,,2,12,3,4,,,,,,,,,,,,,,,,,,,,,,,,,,,,,
64a03e8c3fdf9acaea61a0fb,SCN,2024-06-24_16h40.25.955,LearnStrategy,2023.2.3,Win32,60.24096386,,,,,,,,,,,5,09,3,5,,,,,,,,,,,,,,,,,,,,,,,,,,,,,
64a03e8c3fdf9acaea61a0fb,SCN,2024-06-24_16h40.25.955,LearnStrategy,2023.2.3,Win32,60.24096386,,,,,,,,,,,6,07,3,6,,,,,,,,,,,,,,,,,,,,,,,,,,,,,
64a03e8c3fdf9acaea61a0fb,SCN,2024-06-24_16h40.25.955,LearnStrategy,2023.2.3,Win32,60.24096386,,,,,,,,,,,3,02,3,7,,,,,,,,,,,,,,,,,,,,,,,,,,,,,
64a03e8c3fdf9acaea61a0fb,SCN,2024-06-24_16h40.25.955,LearnStrategy,2023.2.3,Win32,60.24096386,,,,,,,,,,,1,09,3,8,,,,,,,,,,,,,,,,,,,,,,,,,,,,,
64a03e8c3fdf9acaea61a0fb,SCN,2024-06-24_16h40.25.955,LearnStrategy,2023.2.3,Win32,60.24096386,,,,,,,,,,,1,02,4,1,,,,,,,,,,,,,,,,,,,,,,,,,,,,,
64a03e8c3fdf9acaea61a0fb,SCN,2024-06-24_16h40.25.955,LearnStrategy,2023.2.3,Win32,60.24096386,,,,,,,,,,,2,05,4,2,,,,,,,,,,,,,,,,,,,,,,,,,,,,,
64a03e8c3fdf9acaea61a0fb,SCN,2024-06-24_16h40.25.955,LearnStrategy,2023.2.3,Win32,60.24096386,,,,,,,,,,,3,15,4,3,,,,,,,,,,,,,,,,,,,,,,,,,,,,,
64a03e8c3fdf9acaea61a0fb,SCN,2024-06-24_16h40.25.955,LearnStrategy,2023.2.3,Win32,60.24096386,,,,,,,,,,,4,13,4,4,,,,,,,,,,,,,,,,,,,,,,,,,,,,,
64a03e8c3fdf9acaea61a0fb,SCN,2024-06-24_16h40.25.955,LearnStrategy,2023.2.3,Win32,60.24096386,,,,,,,,,,,5,04,4,5,,,,,,,,,,,,,,,,,,,,,,,,,,,,,
64a03e8c3fdf9acaea61a0fb,SCN,2024-06-24_16h40.25.955,LearnStrategy,2023.2.3,Win32,60.24096386,,,,,,,,,,,6,05,4,6,,,,,,,,,,,,,,,,,,,,,,,,,,,,,
64a03e8c3fdf9acaea61a0fb,SCN,2024-06-24_16h40.25.955,LearnStrategy,2023.2.3,Win32,60.24096386,,,,,,,,,,,3,10,4,7,,,,,,,,,,,,,,,,,,,,,,,,,,,,,
64a03e8c3fdf9acaea61a0fb,SCN,2024-06-24_16h40.25.955,LearnStrategy,2023.2.3,Win32,60.24096386,,,,,,,,,,,1,03,4,8,,,,,,,,,,,,,,,,,,,,,,,,,,,,,
64a03e8c3fdf9acaea61a0fb,SCN,2024-06-24_16h40.25.955,LearnStrategy,2023.2.3,Win32,60.24096386,,,,,,,,,,,3,16,5,1,,,,,,,,,,,,,,,,,,,,,,,,,,,,,
64a03e8c3fdf9acaea61a0fb,SCN,2024-06-24_16h40.25.955,LearnStrategy,2023.2.3,Win32,60.24096386,,,,,,,,,,,8,10,5,2,,,,,,,,,,,,,,,,,,,,,,,,,,,,,
64a03e8c3fdf9acaea61a0fb,SCN,2024-06-24_16h40.25.955,LearnStrategy,2023.2.3,Win32,60.24096386,,,,,,,,,,,5,05,5,3,,,,,,,,,,,,,,,,,,,,,,,,,,,,,
64a03e8c3fdf9acaea61a0fb,SCN,2024-06-24_16h40.25.955,LearnStrategy,2023.2.3,Win32,60.24096386,,,,,,,,,,,8,09,5,4,,,,,,,,,,,,,,,,,,,,,,,,,,,,,
64a03e8c3fdf9acaea61a0fb,SCN,2024-06-24_16h40.25.955,LearnStrategy,2023.2.3,Win32,60.24096386,,,,,,,,,,,7,15,5,5,,,,,,,,,,,,,,,,,,,,,,,,,,,,,
64a03e8c3fdf9acaea61a0fb,SCN,2024-06-24_16h40.25.955,LearnStrategy,2023.2.3,Win32,60.24096386,,,,,,,,,,,6,08,5,6,,,,,,,,,,,,,,,,,,,,,,,,,,,,,
64a03e8c3fdf9acaea61a0fb,SCN,2024-06-24_16h40.25.955,LearnStrategy,2023.2.3,Win32,60.24096386,,,,,,,,,,,4,08,5,7,,,,,,,,,,,,,,,,,,,,,,,,,,,,,
64a03e8c3fdf9acaea61a0fb,SCN,2024-06-24_16h40.25.955,LearnStrategy,2023.2.3,Win32,60.24096386,,,,,,,,,,,7,08,5,8,,,,,,,,,,,,,,,,,,,,,,,,,,,,,
64a03e8c3fdf9acaea61a0fb,SCN,2024-06-24_16h40.25.955,LearnStrategy,2023.2.3,Win32,60.24096386,,,,,,,,,,,8,06,6,1,,,,,,,,,,,,,,,,,,,,,,,,,,,,,
64a03e8c3fdf9acaea61a0fb,SCN,2024-06-24_16h40.25.955,LearnStrategy,2023.2.3,Win32,60.24096386,,,,,,,,,,,3,08,6,2,,,,,,,,,,,,,,,,,,,,,,,,,,,,,
64a03e8c3fdf9acaea61a0fb,SCN,2024-06-24_16h40.25.955,LearnStrategy,2023.2.3,Win32,60.24096386,,,,,,,,,,,4,11,6,3,,,,,,,,,,,,,,,,,,,,,,,,,,,,,
64a03e8c3fdf9acaea61a0fb,SCN,2024-06-24_16h40.25.955,LearnStrategy,2023.2.3,Win32,60.24096386,,,,,,,,,,,8,03,6,4,,,,,,,,,,,,,,,,,,,,,,,,,,,,,
64a03e8c3fdf9acaea61a0fb,SCN,2024-06-24_16h40.25.955,LearnStrategy,2023.2.3,Win32,60.24096386,,,,,,,,,,,8,14,6,5,,,,,,,,,,,,,,,,,,,,,,,,,,,,,
64a03e8c3fdf9acaea61a0fb,SCN,2024-06-24_16h40.25.955,LearnStrategy,2023.2.3,Win32,60.24096386,,,,,,,,,,,7,14,6,6,,,,,,,,,,,,,,,,,,,,,,,,,,,,,
64a03e8c3fdf9acaea61a0fb,SCN,2024-06-24_16h40.25.955,LearnStrategy,2023.2.3,Win32,60.24096386,,,,,,,,,,,3,07,6,7,,,,,,,,,,,,,,,,,,,,,,,,,,,,,
64a03e8c3fdf9acaea61a0fb,SCN,2024-06-24_16h40.25.955,LearnStrategy,2023.2.3,Win32,60.24096386,,,,,,,,,,,6,10,6,8,,,,,,,,,,,,,,,,,,,,,,,,,,,,,