participant,condition,date,expName,psychopyVersion,OS,frameRate,block,phase,trial,learn_mouse.x,learn_mouse.y,learn_mouse.leftButton,learn_mouse.midButton,learn_mouse.rightButton,learn_mouse.time,learn_mouse.clicked_name,cat,token,row,col,t_select,cat_mouse_l.x,cat_mouse_l.y,cat_mouse_l.leftButton,cat_mouse_l.midButton,cat_mouse_l.rightButton,cat_mouse_l.time,cat_mouse_l.clicked_name,resp,t_resp,corr,train_trials.thisRepN,train_trials.thisTrialN,train_trials.thisN,train_trials.thisIndex,train_trials.ran,cat_mouse_t.x,cat_mouse_t.y,cat_mouse_t.leftButton,cat_mouse_t.midButton,cat_mouse_t.rightButton,cat_mouse_t.time,cat_mouse_t.clicked_name,test_trials.thisRepN,test_trials.thisTrialN,test_trials.thisN,test_trials.thisIndex,test_trials.ran,Bonus
64c0a2d8031339ab6ec5e54a,SCN,2024-06-11_13h40.24.527,LearnStrategy,2023.2.3,Win32,238.0952381,,,,,,,,,,,,,,,,,,,,,,,,,,,,,,,,,,,,,,,,,,,
64c0a2d8031339ab6ec5e54a,SCN,2024-06-11_13h40.24.527,LearnStrategy,2023.2.3,Win32,238.0952381,1,1,1,0.220833333,-0.378472222,1,0,0,2.9368,Pegmatite_13,6,13,1,6,2.937,0.347916667,-0.390972222,1,0,0,8.2478,Pumice_rect,8,8.248,0,0,0,0,0,1,,,,,,,,,,,,,
64c0a2d8031339ab6ec5e54a,SCN,2024-06-11_13h40.24.527,LearnStrategy,2023.2.3,Win32,238.0952381,1,1,2,-0.565972222,0.441666667,1,0,0,2.6949,Pumice_04,8,04,6,1,2.695,-0.352083333,-0.2625,1,0,0,9.477,Andesite_rect,1,9.477,0,1,0,1,0,1,,,,,,,,,,,,,
64c0a2d8031339ab6ec5e54a,SCN,2024-06-11_13h40.24.527,LearnStrategy,2023.2.3,Win32,238.0952381,1,1,3,-0.078472222,0.377083333,1,0,0,3.5915,Pumice_15,8,15,6,4,3.591,0.099305556,-0.259722222,1,0,0,6.6272,Diorite_rect,3,6.627,0,2,0,2,0,1,,,,,,,,,,,,,
64c0a2d8031339ab6ec5e54a,SCN,2024-06-11_13h40.24.527,LearnStrategy,2023.2.3,Win32,238.0952381,1,1,4,-0.543055556,0.417361111,1,0,0,1.3453,Pumice_04,8,04,6,1,1.345,0.346527778,-0.389583333,1,0,0,1.6931,Pumice_rect,8,1.693,1,3,0,3,0,1,,,,,,,,,,,,,
64c0a2d8031339ab6ec5e54a,SCN,2024-06-11_13h40.24.527,LearnStrategy,2023.2.3,Win32,238.0952381,1,1,5,-0.076388889,0.379166667,1,0,0,0.662,Pumice_15,8,15,6,4,0.662,0.3875,-0.4125,1,0,0,0.7637,Pumice_rect,8,0.764,1,4,0,4,0,1,,,,,,,,,,,,,
64c0a2d8031339ab6ec5e54a,SCN,2024-06-11_13h40.24.527,LearnStrategy,2023.2.3,Win32,238.0952381,1,1,6,0.236805556,-0.403472222,1,0,0,0.6369,Pegmatite_13,6,13,1,6,0.637,-0.159027778,-0.379166667,1,0,0,0.7805,Pegmatite_rect,6,0.781,1,5,0,5,0,1,,,,,,,,,,,,,
64c0a2d8031339ab6ec5e54a,SCN,2024-06-11_13h40.24.527,LearnStrategy,2023.2.3,Win32,238.0952381,1,1,7,-0.361805556,0.409027778,1,0,0,1.0535,Andesite_01,1,01,6,2,1.053,0.35,-0.235416667,1,0,0,3.8642,Gabbro_rect,4,3.864,0,6,0,6,0,1,,,,,,,,,,,,,
64c0a2d8031339ab6ec5e54a,SCN,2024-06-11_13h40.24.527,LearnStrategy,2023.2.3,Win32,238.0952381,1,1,8,-0.367361111,0.363194444,1,0,0,0.8493,Andesite_01,1,01,6,2,0.849,-0.34375,-0.257638889,1,0,0,2.323,Andesite_rect,1,2.323,1,7,0,7,0,1,,,,,,,,,,,,,
64c0a2d8031339ab6ec5e54a,SCN,2024-06-11_13h40.24.527,LearnStrategy,2023.2.3,Win32,238.0952381,1,1,9,-0.221527778,0.388194444,1,0,0,0.8576,Gabbro_13,4,13,6,3,0.858,-0.318055556,-0.256944444,1,0,0,1.5039,Andesite_rect,1,1.504,0,8,0,8,0,1,,,,,,,,,,,,,
64c0a2d8031339ab6ec5e54a,SCN,2024-06-11_13h40.24.527,LearnStrategy,2023.2.3,Win32,238.0952381,1,1,10,-0.188194444,0.421527778,1,0,0,0.5616,Gabbro_13,4,13,6,3,0.562,0.338194444,-0.263194444,1,0,0,1.1773,Gabbro_rect,4,1.177,1,9,0,9,0,1,,,,,,,,,,,,,
64c0a2d8031339ab6ec5e54a,SCN,2024-06-11_13h40.24.527,LearnStrategy,2023.2.3,Win32,238.0952381,1,1,11,0.074305556,0.383333333,1,0,0,2.3244,Pegmatite_10,6,10,6,5,2.324,-0.061111111,-0.234027778,1,0,0,2.5631,Basalt_rect,2,2.563,0,10,0,10,0,1,,,,,,,,,,,,,
64c0a2d8031339ab6ec5e54a,SCN,2024-06-11_13h40.24.527,LearnStrategy,2023.2.3,Win32,238.0952381,1,1,12,0.084027778,0.390972222,1,0,0,1.0701,Pegmatite_10,6,10,6,5,1.07,-0.10625,-0.402083333,1,0,0,1.4061,Pegmatite_rect,6,1.406,1,11,0,11,0,1,,,,,,,,,,,,,
64c0a2d8031339ab6ec5e54a,SCN,2024-06-11_13h40.24.527,LearnStrategy,2023.2.3,Win32,238.0952381,1,1,13,0.252777778,0.444444444,1,0,0,8.0794,Gabbro_10,4,10,6,6,8.079,-0.104861111,-0.248611111,1,0,0,2.581,Basalt_rect,2,2.581,0,12,0,12,0,1,,,,,,,,,,,,,
64c0a2d8031339ab6ec5e54a,SCN,2024-06-11_13h40.24.527,LearnStrategy,2023.2.3,Win32,238.0952381,1,1,14,-0.052777778,0.380555556,1,0,0,1.5071,Pumice_15,8,15,6,4,1.507,0.336805556,-0.231944444,1,0,0,0.56,Gabbro_rect,4,0.56,0,13,0,13,0,1,,,,,,,,,,,,,
64c0a2d8031339ab6ec5e54a,SCN,2024-06-11_13h40.24.527,LearnStrategy,2023.2.3,Win32,238.0952381,1,1,15,-0.197222222,0.409027778,1,0,0,1.133,Gabbro_13,4,13,6,3,1.133,0.375694444,-0.23125,1,0,0,0.4733,Gabbro_rect,4,0.473,1,14,0,14,0,1,,,,,,,,,,,,,
64c0a2d8031339ab6ec5e54a,SCN,2024-06-11_13h40.24.527,LearnStrategy,2023.2.3,Win32,238.0952381,1,1,16,0.240972222,0.372222222,1,0,0,2.6914,Gabbro_10,4,10,6,6,2.691,0.3375,-0.25625,1,0,0,1.1156,Gabbro_rect,4,1.116,1,15,0,15,0,1,,,,,,,,,,,,,
64c0a2d8031339ab6ec5e54a,SCN,2024-06-11_13h40.24.527,LearnStrategy,2023.2.3,Win32,238.0952381,1,2,1,,,,,,,,6,09,,,,,,,,,,,6,10.461,1,,,,,,-0.042361111,-0.402777778,1,0,0,10.461,Pegmatite_rect,0,0,0,0,1,
64c0a2d8031339ab6ec5e54a,SCN,2024-06-11_13h40.24.527,LearnStrategy,2023.2.3,Win32,238.0952381,1,2,2,,,,,,,,4,05,,,,,,,,,,,4,10.434,1,,,,,,0.3625,-0.238194444,1,0,0,10.4341,Gabbro_rect,1,0,1,0,1,
64c0a2d8031339ab6ec5e54a,SCN,2024-06-11_13h40.24.527,LearnStrategy,2023.2.3,Win32,238.0952381,1,2,3,,,,,,,,7,04,,,,,,,,,,,3,4.305,0,,,,,,0.092361111,-0.250694444,1,0,0,4.3054,Diorite_rect,2,0,2,0,1,
64c0a2d8031339ab6ec5e54a,SCN,2024-06-11_13h40.24.527,LearnStrategy,2023.2.3,Win32,238.0952381,1,2,4,,,,,,,,1,07,,,,,,,,,,,2,2.281,0,,,,,,-0.146527778,-0.270138889,1,0,0,2.2806,Basalt_rect,3,0,3,0,1,
64c0a2d8031339ab6ec5e54a,SCN,2024-06-11_13h40.24.527,LearnStrategy,2023.2.3,Win32,238.0952381,1,2,5,,,,,,,,1,11,,,,,,,,,,,1,2.097,1,,,,,,-0.331944444,-0.255555556,1,0,0,2.0971,Andesite_rect,4,0,4,0,1,
64c0a2d8031339ab6ec5e54a,SCN,2024-06-11_13h40.24.527,LearnStrategy,2023.2.3,Win32,238.0952381,1,2,6,,,,,,,,4,01,,,,,,,,,,,4,1.907,1,,,,,,0.363888889,-0.267361111,1,0,0,1.9068,Gabbro_rect,5,0,5,0,1,
64c0a2d8031339ab6ec5e54a,SCN,2024-06-11_13h40.24.527,LearnStrategy,2023.2.3,Win32,238.0952381,1,2,7,,,,,,,,8,02,,,,,,,,,,,6,4.532,0,,,,,,-0.040972222,-0.39375,1,0,0,4.532,Pegmatite_rect,6,0,6,0,1,
64c0a2d8031339ab6ec5e54a,SCN,2024-06-11_13h40.24.527,LearnStrategy,2023.2.3,Win32,238.0952381,1,2,8,,,,,,,,3,08,,,,,,,,,,,7,3.126,0,,,,,,0.105555556,-0.386805556,1,0,0,3.1263,Peridotite_rect,7,0,7,0,1,
64c0a2d8031339ab6ec5e54a,SCN,2024-06-11_13h40.24.527,LearnStrategy,2023.2.3,Win32,238.0952381,1,2,9,,,,,,,,3,02,,,,,,,,,,,7,3.819,0,,,,,,0.104861111,-0.386805556,1,0,0,3.8188,Peridotite_rect,8,0,8,0,1,
64c0a2d8031339ab6ec5e54a,SCN,2024-06-11_13h40.24.527,LearnStrategy,2023.2.3,Win32,238.0952381,1,2,10,,,,,,,,6,08,,,,,,,,,,,7,2.347,0,,,,,,0.104861111,-0.386805556,1,0,0,2.3473,Peridotite_rect,9,0,9,0,1,
64c0a2d8031339ab6ec5e54a,SCN,2024-06-11_13h40.24.527,LearnStrategy,2023.2.3,Win32,238.0952381,1,2,11,,,,,,,,5,08,,,,,,,,,,,5,3.028,1,,,,,,-0.375,-0.383333333,1,0,0,3.0276,Obsidian_rect,10,0,10,0,1,
64c0a2d8031339ab6ec5e54a,SCN,2024-06-11_13h40.24.527,LearnStrategy,2023.2.3,Win32,238.0952381,1,2,12,,,,,,,,2,16,,,,,,,,,,,8,2.947,0,,,,,,0.356944444,-0.400694444,1,0,0,2.9467,Pumice_rect,11,0,11,0,1,
64c0a2d8031339ab6ec5e54a,SCN,2024-06-11_13h40.24.527,LearnStrategy,2023.2.3,Win32,238.0952381,1,2,13,,,,,,,,2,10,,,,,,,,,,,1,10.641,0,,,,,,-0.298611111,-0.266666667,1,0,0,10.6411,Andesite_rect,12,0,12,0,1,
64c0a2d8031339ab6ec5e54a,SCN,2024-06-11_13h40.24.527,LearnStrategy,2023.2.3,Win32,238.0952381,1,2,14,,,,,,,,7,16,,,,,,,,,,,4,43.302,0,,,,,,0.304166667,-0.265277778,1,0,0,43.3021,Gabbro_rect,13,0,13,0,1,
64c0a2d8031339ab6ec5e54a,SCN,2024-06-11_13h40.24.527,LearnStrategy,2023.2.3,Win32,238.0952381,1,2,15,,,,,,,,5,07,,,,,,,,,,,2,2.538,0,,,,,,-0.174305556,-0.2625,1,0,0,2.538,Basalt_rect,14,0,14,0,1,
64c0a2d8031339ab6ec5e54a,SCN,2024-06-11_13h40.24.527,LearnStrategy,2023.2.3,Win32,238.0952381,1,2,16,,,,,,,,8,08,,,,,,,,,,,7,1.581,0,,,,,,0.0375,-0.386805556,1,0,0,1.5808,Peridotite_rect,15,0,15,0,1,
64c0a2d8031339ab6ec5e54a,SCN,2024-06-11_13h40.24.527,LearnStrategy,2023.2.3,Win32,238.0952381,2,1,1,0.502777778,0.25,1,0,0,5.6709,Obsidian_06,5,06,5,8,5.671,-0.161111111,-0.25625,1,0,0,0.8018,Basalt_rect,2,0.802,0,0,0,0,0,1,,,,,,,,,,,,,
64c0a2d8031339ab6ec5e54a,SCN,2024-06-11_13h40.24.527,LearnStrategy,2023.2.3,Win32,238.0952381,2,1,2,-0.225694444,-0.095833333,1,0,0,2.2368,Obsidian_02,5,02,3,3,2.237,-0.313888889,-0.384027778,1,0,0,1.4224,Obsidian_rect,5,1.422,1,1,0,1,0,1,,,,,,,,,,,,,
64c0a2d8031339ab6ec5e54a,SCN,2024-06-11_13h40.24.527,LearnStrategy,2023.2.3,Win32,238.0952381,2,1,3,-0.263888889,0.11875,1,0,0,0.5161,Obsidian_12,5,12,4,3,0.516,-0.365972222,-0.399305556,1,0,0,0.6304,Obsidian_rect,5,0.63,1,2,0,2,0,1,,,,,,,,,,,,,
64c0a2d8031339ab6ec5e54a,SCN,2024-06-11_13h40.24.527,LearnStrategy,2023.2.3,Win32,238.0952381,2,1,4,-0.220138889,0.224305556,1,0,0,1.7869,Obsidian_05,5,05,5,3,1.787,0.309027778,-0.259027778,1,0,0,1.2178,Gabbro_rect,4,1.218,0,3,0,3,0,1,,,,,,,,,,,,,
64c0a2d8031339ab6ec5e54a,SCN,2024-06-11_13h40.24.527,LearnStrategy,2023.2.3,Win32,238.0952381,2,1,5,-0.536805556,0.239583333,1,0,0,2.1535,Obsidian_11,5,11,5,1,2.153,-0.377777778,-0.413194444,1,0,0,0.7852,Obsidian_rect,5,0.785,1,4,0,4,0,1,,,,,,,,,,,,,
64c0a2d8031339ab6ec5e54a,SCN,2024-06-11_13h40.24.527,LearnStrategy,2023.2.3,Win32,238.0952381,2,1,6,-0.35625,-0.252083333,1,0,0,1.4452,Diorite_13,3,13,2,2,1.445,0.370833333,-0.230555556,1,0,0,1.0925,Gabbro_rect,4,1.092,0,5,0,5,0,1,,,,,,,,,,,,,
64c0a2d8031339ab6ec5e54a,SCN,2024-06-11_13h40.24.527,LearnStrategy,2023.2.3,Win32,238.0952381,2,1,7,0.076388889,-0.227777778,1,0,0,1.1246,Pumice_05,8,05,2,5,1.125,0.050694444,-0.2625,1,0,0,0.5403,Diorite_rect,3,0.54,0,6,0,6,0,1,,,,,,,,,,,,,
64c0a2d8031339ab6ec5e54a,SCN,2024-06-11_13h40.24.527,LearnStrategy,2023.2.3,Win32,238.0952381,2,1,8,0.250694444,-0.381944444,1,0,0,0.7911,Pegmatite_13,6,13,1,6,0.791,0.157638889,-0.229861111,1,0,0,0.3833,Diorite_rect,3,0.383,0,7,0,7,0,1,,,,,,,,,,,,,
64c0a2d8031339ab6ec5e54a,SCN,2024-06-11_13h40.24.527,LearnStrategy,2023.2.3,Win32,238.0952381,2,1,9,0.396527778,-0.088194444,1,0,0,2.5417,Peridotite_12,7,12,3,7,2.542,0.145833333,-0.230555556,1,0,0,0.8551,Diorite_rect,3,0.855,0,8,0,8,0,1,,,,,,,,,,,,,
64c0a2d8031339ab6ec5e54a,SCN,2024-06-11_13h40.24.527,LearnStrategy,2023.2.3,Win32,238.0952381,2,1,10,0.05625,-0.24375,1,0,0,2.1824,Pumice_05,8,05,2,5,2.182,0.054166667,-0.379166667,1,0,0,0.6316,Peridotite_rect,7,0.632,0,9,0,9,0,1,,,,,,,,,,,,,
64c0a2d8031339ab6ec5e54a,SCN,2024-06-11_13h40.24.527,LearnStrategy,2023.2.3,Win32,238.0952381,2,1,11,-0.521527778,-0.288194444,1,0,0,3.5915,Pegmatite_07,6,07,2,1,3.591,0.311111111,-0.244444444,1,0,0,1.2895,Gabbro_rect,4,1.29,0,10,0,10,0,1,,,,,,,,,,,,,
64c0a2d8031339ab6ec5e54a,SCN,2024-06-11_13h40.24.527,LearnStrategy,2023.2.3,Win32,238.0952381,2,1,12,-0.347222222,0.404861111,1,0,0,2.2576,Andesite_01,1,01,6,2,2.258,0.354166667,-0.267361111,1,0,0,1.0553,Gabbro_rect,4,1.055,0,11,0,11,0,1,,,,,,,,,,,,,
64c0a2d8031339ab6ec5e54a,SCN,2024-06-11_13h40.24.527,LearnStrategy,2023.2.3,Win32,238.0952381,2,1,13,0.516666667,0.386805556,1,0,0,3.7989,Diorite_14,3,14,6,8,3.799,0.329166667,-0.245138889,1,0,0,0.6273,Gabbro_rect,4,0.627,0,12,0,12,0,1,,,,,,,,,,,,,
64c0a2d8031339ab6ec5e54a,SCN,2024-06-11_13h40.24.527,LearnStrategy,2023.2.3,Win32,238.0952381,2,1,14,0.236805556,-0.409027778,1,0,0,3.2664,Pegmatite_13,6,13,1,6,3.266,0.204861111,-0.378472222,1,0,0,1.1932,Peridotite_rect,7,1.193,0,13,0,13,0,1,,,,,,,,,,,,,
64c0a2d8031339ab6ec5e54a,SCN,2024-06-11_13h40.24.527,LearnStrategy,2023.2.3,Win32,238.0952381,2,1,15,0.354861111,-0.407638889,1,0,0,2.0671,Peridotite_10,7,10,1,7,2.067,-0.291666667,-0.250694444,1,0,0,2.5637,Andesite_rect,1,2.564,0,14,0,14,0,1,,,,,,,,,,,,,
64c0a2d8031339ab6ec5e54a,SCN,2024-06-11_13h40.24.527,LearnStrategy,2023.2.3,Win32,238.0952381,2,1,16,0.270138889,-0.459722222,1,0,0,0.5002,Pegmatite_13,6,13,1,6,0.5,-0.043055556,-0.406944444,1,0,0,1.0318,Pegmatite_rect,6,1.032,1,15,0,15,0,1,,,,,,,,,,,,,
64c0a2d8031339ab6ec5e54a,SCN,2024-06-11_13h40.24.527,LearnStrategy,2023.2.3,Win32,238.0952381,2,2,1,,,,,,,,2,09,,,,,,,,,,,3,7.954,0,,,,,,0.113194444,-0.265277778,1,0,0,7.9539,Diorite_rect,0,0,0,0,1,
64c0a2d8031339ab6ec5e54a,SCN,2024-06-11_13h40.24.527,LearnStrategy,2023.2.3,Win32,238.0952381,2,2,2,,,,,,,,5,04,,,,,,,,,,,5,1.995,1,,,,,,-0.35625,-0.404166667,1,0,0,1.9953,Obsidian_rect,1,0,1,0,1,
64c0a2d8031339ab6ec5e54a,SCN,2024-06-11_13h40.24.527,LearnStrategy,2023.2.3,Win32,238.0952381,2,2,3,,,,,,,,4,08,,,,,,,,,,,8,5.94,0,,,,,,0.418055556,-0.415277778,1,0,0,5.94,Pumice_rect,2,0,2,0,1,
64c0a2d8031339ab6ec5e54a,SCN,2024-06-11_13h40.24.527,LearnStrategy,2023.2.3,Win32,238.0952381,2,2,4,,,,,,,,1,06,,,,,,,,,,,6,6.086,0,,,,,,-0.070833333,-0.404166667,1,0,0,6.0863,Pegmatite_rect,3,0,3,0,1,
64c0a2d8031339ab6ec5e54a,SCN,2024-06-11_13h40.24.527,LearnStrategy,2023.2.3,Win32,238.0952381,2,2,5,,,,,,,,3,07,,,,,,,,,,,6,0.985,0,,,,,,-0.070833333,-0.404166667,1,0,0,0.985,Pegmatite_rect,4,0,4,0,1,
64c0a2d8031339ab6ec5e54a,SCN,2024-06-11_13h40.24.527,LearnStrategy,2023.2.3,Win32,238.0952381,2,2,6,,,,,,,,7,14,,,,,,,,,,,7,2.839,1,,,,,,0.076388889,-0.394444444,1,0,0,2.8393,Peridotite_rect,5,0,5,0,1,
64c0a2d8031339ab6ec5e54a,SCN,2024-06-11_13h40.24.527,LearnStrategy,2023.2.3,Win32,238.0952381,2,2,7,,,,,,,,8,14,,,,,,,,,,,8,6.629,1,,,,,,0.323611111,-0.38125,1,0,0,6.6289,Pumice_rect,6,0,6,0,1,
64c0a2d8031339ab6ec5e54a,SCN,2024-06-11_13h40.24.527,LearnStrategy,2023.2.3,Win32,238.0952381,2,2,8,,,,,,,,2,05,,,,,,,,,,,1,2.319,0,,,,,,-0.299305556,-0.251388889,1,0,0,2.3188,Andesite_rect,7,0,7,0,1,
64c0a2d8031339ab6ec5e54a,SCN,2024-06-11_13h40.24.527,LearnStrategy,2023.2.3,Win32,238.0952381,2,2,9,,,,,,,,4,12,,,,,,,,,,,3,2.639,0,,,,,,0.0875,-0.263888889,1,0,0,2.6392,Diorite_rect,8,0,8,0,1,
64c0a2d8031339ab6ec5e54a,SCN,2024-06-11_13h40.24.527,LearnStrategy,2023.2.3,Win32,238.0952381,2,2,10,,,,,,,,7,06,,,,,,,,,,,4,1.714,0,,,,,,0.3875,-0.248611111,1,0,0,1.7138,Gabbro_rect,9,0,9,0,1,
64c0a2d8031339ab6ec5e54a,SCN,2024-06-11_13h40.24.527,LearnStrategy,2023.2.3,Win32,238.0952381,2,2,11,,,,,,,,6,06,,,,,,,,,,,1,4.409,0,,,,,,-0.334722222,-0.254166667,1,0,0,4.4092,Andesite_rect,10,0,10,0,1,
64c0a2d8031339ab6ec5e54a,SCN,2024-06-11_13h40.24.527,LearnStrategy,2023.2.3,Win32,238.0952381,2,2,12,,,,,,,,8,06,,,,,,,,,,,8,2.585,1,,,,,,0.327777778,-0.385416667,1,0,0,2.5851,Pumice_rect,11,0,11,0,1,
64c0a2d8031339ab6ec5e54a,SCN,2024-06-11_13h40.24.527,LearnStrategy,2023.2.3,Win32,238.0952381,2,2,13,,,,,,,,5,09,,,,,,,,,,,5,1.094,1,,,,,,-0.335416667,-0.384027778,1,0,0,1.0936,Obsidian_rect,12,0,12,0,1,
64c0a2d8031339ab6ec5e54a,SCN,2024-06-11_13h40.24.527,LearnStrategy,2023.2.3,Win32,238.0952381,2,2,14,,,,,,,,6,12,,,,,,,,,,,4,1.368,0,,,,,,0.475,-0.236111111,1,0,0,1.3682,Gabbro_rect,13,0,13,0,1,
64c0a2d8031339ab6ec5e54a,SCN,2024-06-11_13h40.24.527,LearnStrategy,2023.2.3,Win32,238.0952381,2,2,15,,,,,,,,3,10,,,,,,,,,,,8,2.292,0,,,,,,0.323611111,-0.394444444,1,0,0,2.2918,Pumice_rect,14,0,14,0,1,
64c0a2d8031339ab6ec5e54a,SCN,2024-06-11_13h40.24.527,LearnStrategy,2023.2.3,Win32,238.0952381,2,2,16,,,,,,,,1,10,,,,,,,,,,,2,2.195,0,,,,,,-0.215277778,-0.234722222,1,0,0,2.1952,Basalt_rect,15,0,15,0,1,
64c0a2d8031339ab6ec5e54a,SCN,2024-06-11_13h40.24.527,LearnStrategy,2023.2.3,Win32,238.0952381,3,1,1,-0.504861111,0.390972222,1,0,0,2.5786,Pumice_04,8,04,6,1,2.579,0.332638889,-0.386805556,1,0,0,0.7683,Pumice_rect,8,0.768,1,0,0,0,0,1,,,,,,,,,,,,,
64c0a2d8031339ab6ec5e54a,SCN,2024-06-11_13h40.24.527,LearnStrategy,2023.2.3,Win32,238.0952381,3,1,2,0.051388889,-0.278472222,1,0,0,1.2494,Pumice_05,8,05,2,5,1.249,0.379166667,-0.414583333,1,0,0,0.3644,Pumice_rect,8,0.364,1,1,0,1,0,1,,,,,,,,,,,,,
64c0a2d8031339ab6ec5e54a,SCN,2024-06-11_13h40.24.527,LearnStrategy,2023.2.3,Win32,238.0952381,3,1,3,-0.420833333,0.119444444,1,0,0,1.7707,Pegmatite_03,6,03,4,2,1.771,-0.363194444,-0.235416667,1,0,0,1.091,Andesite_rect,1,1.091,0,2,0,2,0,1,,,,,,,,,,,,,
64c0a2d8031339ab6ec5e54a,SCN,2024-06-11_13h40.24.527,LearnStrategy,2023.2.3,Win32,238.0952381,3,1,4,-0.394444444,0.080555556,1,0,0,0.9409,Pegmatite_03,6,03,4,2,0.941,-0.353472222,-0.252083333,1,0,0,2.8269,Andesite_rect,1,2.827,0,3,0,3,0,1,,,,,,,,,,,,,
64c0a2d8031339ab6ec5e54a,SCN,2024-06-11_13h40.24.527,LearnStrategy,2023.2.3,Win32,238.0952381,3,1,5,-0.429166667,0.127777778,1,0,0,0.9089,Pegmatite_03,6,03,4,2,0.909,-0.096527778,-0.398611111,1,0,0,1.1293,Pegmatite_rect,6,1.129,1,4,0,4,0,1,,,,,,,,,,,,,
64c0a2d8031339ab6ec5e54a,SCN,2024-06-11_13h40.24.527,LearnStrategy,2023.2.3,Win32,238.0952381,3,1,6,0.283333333,-0.382638889,1,0,0,2.6995,Pegmatite_13,6,13,1,6,2.699,-0.096527778,-0.395138889,1,0,0,1.1441,Pegmatite_rect,6,1.144,1,5,0,5,0,1,,,,,,,,,,,,,
64c0a2d8031339ab6ec5e54a,SCN,2024-06-11_13h40.24.527,LearnStrategy,2023.2.3,Win32,238.0952381,3,1,7,0.361805556,-0.377083333,1,0,0,3.1662,Peridotite_10,7,10,1,7,3.166,-0.122222222,-0.40625,1,0,0,1.5134,Pegmatite_rect,6,1.513,0,6,0,6,0,1,,,,,,,,,,,,,
64c0a2d8031339ab6ec5e54a,SCN,2024-06-11_13h40.24.527,LearnStrategy,2023.2.3,Win32,238.0952381,3,1,8,-0.575,0.415972222,1,0,0,2.2537,Pumice_04,8,04,6,1,2.254,0.321527778,-0.393055556,1,0,0,2.0269,Pumice_rect,8,2.027,1,7,0,7,0,1,,,,,,,,,,,,,
64c0a2d8031339ab6ec5e54a,SCN,2024-06-11_13h40.24.527,LearnStrategy,2023.2.3,Win32,238.0952381,3,1,9,0.422916667,-0.245138889,1,0,0,19.2974,Basalt_06,2,06,2,7,19.297,-0.09375,-0.248611111,1,0,0,1.1828,Basalt_rect,2,1.183,1,8,0,8,0,1,,,,,,,,,,,,,
64c0a2d8031339ab6ec5e54a,SCN,2024-06-11_13h40.24.527,LearnStrategy,2023.2.3,Win32,238.0952381,3,1,10,0.066666667,0.242361111,1,0,0,0.991,Basalt_08,2,08,5,5,0.991,-0.099305556,-0.259722222,1,0,0,0.7928,Basalt_rect,2,0.793,1,9,0,9,0,1,,,,,,,,,,,,,
64c0a2d8031339ab6ec5e54a,SCN,2024-06-11_13h40.24.527,LearnStrategy,2023.2.3,Win32,238.0952381,3,1,11,-0.052083333,-0.373611111,1,0,0,2.1578,Andesite_04,1,04,1,4,2.158,0.363194444,-0.400694444,1,0,0,2.3683,Pumice_rect,8,2.368,0,10,0,10,0,1,,,,,,,,,,,,,
64c0a2d8031339ab6ec5e54a,SCN,2024-06-11_13h40.24.527,LearnStrategy,2023.2.3,Win32,238.0952381,3,1,12,-0.388888889,-0.405555556,1,0,0,1.6517,Gabbro_03,4,03,1,2,1.652,-0.311111111,-0.251388889,1,0,0,1.3953,Andesite_rect,1,1.395,0,11,0,11,0,1,,,,,,,,,,,,,
64c0a2d8031339ab6ec5e54a,SCN,2024-06-11_13h40.24.527,LearnStrategy,2023.2.3,Win32,238.0952381,3,1,13,-0.363194444,-0.418055556,1,0,0,0.6043,Gabbro_03,4,03,1,2,0.604,0.340972222,-0.230555556,1,0,0,1.5401,Gabbro_rect,4,1.54,1,12,0,12,0,1,,,,,,,,,,,,,
64c0a2d8031339ab6ec5e54a,SCN,2024-06-11_13h40.24.527,LearnStrategy,2023.2.3,Win32,238.0952381,3,1,14,-0.509722222,-0.394444444,1,0,0,0.9076,Peridotite_13,7,13,1,1,0.908,0.291666667,-0.381944444,1,0,0,3.2769,Pumice_rect,8,3.277,0,13,0,13,0,1,,,,,,,,,,,,,
64c0a2d8031339ab6ec5e54a,SCN,2024-06-11_13h40.24.527,LearnStrategy,2023.2.3,Win32,238.0952381,3,1,15,0.279166667,-0.438194444,1,0,0,1.3619,Pegmatite_13,6,13,1,6,1.362,0.072916667,-0.388888889,1,0,0,0.9137,Peridotite_rect,7,0.914,0,14,0,14,0,1,,,,,,,,,,,,,
64c0a2d8031339ab6ec5e54a,SCN,2024-06-11_13h40.24.527,LearnStrategy,2023.2.3,Win32,238.0952381,3,1,16,-0.388194444,-0.263194444,1,0,0,1.581,Diorite_13,3,13,2,2,1.581,0.097222222,-0.415277778,1,0,0,0.7212,Peridotite_rect,7,0.721,0,15,0,15,0,1,,,,,,,,,,,,,
64c0a2d8031339ab6ec5e54a,SCN,2024-06-11_13h40.24.527,LearnStrategy,2023.2.3,Win32,238.0952381,3,2,1,,,,,,,,1,03,,,,,,,,,,,1,7.182,1,,,,,,-0.311111111,-0.249305556,1,0,0,7.182,Andesite_rect,0,0,0,0,1,
64c0a2d8031339ab6ec5e54a,SCN,2024-06-11_13h40.24.527,LearnStrategy,2023.2.3,Win32,238.0952381,3,2,2,,,,,,,,2,04,,,,,,,,,,,1,2.44,0,,,,,,-0.322222222,-0.245138889,1,0,0,2.4399,Andesite_rect,1,0,1,0,1,
64c0a2d8031339ab6ec5e54a,SCN,2024-06-11_13h40.24.527,LearnStrategy,2023.2.3,Win32,238.0952381,3,2,3,,,,,,,,5,14,,,,,,,,,,,5,1.302,1,,,,,,-0.3875,-0.405555556,1,0,0,1.3021,Obsidian_rect,2,0,2,0,1,
64c0a2d8031339ab6ec5e54a,SCN,2024-06-11_13h40.24.527,LearnStrategy,2023.2.3,Win32,238.0952381,3,2,4,,,,,,,,8,09,,,,,,,,,,,8,4.004,1,,,,,,0.347222222,-0.403472222,1,0,0,4.0044,Pumice_rect,3,0,3,0,1,
64c0a2d8031339ab6ec5e54a,SCN,2024-06-11_13h40.24.527,LearnStrategy,2023.2.3,Win32,238.0952381,3,2,5,,,,,,,,7,15,,,,,,,,,,,7,9.109,1,,,,,,0.072916667,-0.381944444,1,0,0,9.1089,Peridotite_rect,4,0,4,0,1,
64c0a2d8031339ab6ec5e54a,SCN,2024-06-11_13h40.24.527,LearnStrategy,2023.2.3,Win32,238.0952381,3,2,6,,,,,,,,7,05,,,,,,,,,,,6,3.32,0,,,,,,-0.043055556,-0.391666667,1,0,0,3.3201,Pegmatite_rect,5,0,5,0,1,
64c0a2d8031339ab6ec5e54a,SCN,2024-06-11_13h40.24.527,LearnStrategy,2023.2.3,Win32,238.0952381,3,2,7,,,,,,,,2,01,,,,,,,,,,,1,2.154,0,,,,,,-0.334027778,-0.245138889,1,0,0,2.154,Andesite_rect,6,0,6,0,1,
64c0a2d8031339ab6ec5e54a,SCN,2024-06-11_13h40.24.527,LearnStrategy,2023.2.3,Win32,238.0952381,3,2,8,,,,,,,,4,16,,,,,,,,,,,1,1.068,0,,,,,,-0.334027778,-0.245138889,1,0,0,1.0682,Andesite_rect,7,0,7,0,1,
64c0a2d8031339ab6ec5e54a,SCN,2024-06-11_13h40.24.527,LearnStrategy,2023.2.3,Win32,238.0952381,3,2,9,,,,,,,,8,03,,,,,,,,,,,8,1.908,1,,,,,,0.349305556,-0.416666667,1,0,0,1.9081,Pumice_rect,8,0,8,0,1,
64c0a2d8031339ab6ec5e54a,SCN,2024-06-11_13h40.24.527,LearnStrategy,2023.2.3,Win32,238.0952381,3,2,10,,,,,,,,3,11,,,,,,,,,,,4,3.11,0,,,,,,0.342361111,-0.247222222,1,0,0,3.1103,Gabbro_rect,9,0,9,0,1,
64c0a2d8031339ab6ec5e54a,SCN,2024-06-11_13h40.24.527,LearnStrategy,2023.2.3,Win32,238.0952381,3,2,11,,,,,,,,4,14,,,,,,,,,,,3,1.968,0,,,,,,0.104861111,-0.268055556,1,0,0,1.9684,Diorite_rect,10,0,10,0,1,
64c0a2d8031339ab6ec5e54a,SCN,2024-06-11_13h40.24.527,LearnStrategy,2023.2.3,Win32,238.0952381,3,2,12,,,,,,,,5,16,,,,,,,,,,,5,1.062,1,,,,,,-0.329861111,-0.408333333,1,0,0,1.0621,Obsidian_rect,11,0,11,0,1,
64c0a2d8031339ab6ec5e54a,SCN,2024-06-11_13h40.24.527,LearnStrategy,2023.2.3,Win32,238.0952381,3,2,13,,,,,,,,6,16,,,,,,,,,,,4,24.886,0,,,,,,0.390277778,-0.253472222,1,0,0,24.8862,Gabbro_rect,12,0,12,0,1,
64c0a2d8031339ab6ec5e54a,SCN,2024-06-11_13h40.24.527,LearnStrategy,2023.2.3,Win32,238.0952381,3,2,14,,,,,,,,3,16,,,,,,,,,,,4,7.556,0,,,,,,0.361805556,-0.266666667,1,0,0,7.5557,Gabbro_rect,13,0,13,0,1,
64c0a2d8031339ab6ec5e54a,SCN,2024-06-11_13h40.24.527,LearnStrategy,2023.2.3,Win32,238.0952381,3,2,15,,,,,,,,1,16,,,,,,,,,,,8,2.935,0,,,,,,0.329166667,-0.394444444,1,0,0,2.9351,Pumice_rect,14,0,14,0,1,
64c0a2d8031339ab6ec5e54a,SCN,2024-06-11_13h40.24.527,LearnStrategy,2023.2.3,Win32,238.0952381,3,2,16,,,,,,,,6,11,,,,,,,,,,,7,3.73,0,,,,,,0.051388889,-0.39375,1,0,0,3.7303,Peridotite_rect,15,0,15,0,1,
64c0a2d8031339ab6ec5e54a,SCN,2024-06-11_13h40.24.527,LearnStrategy,2023.2.3,Win32,238.0952381,4,1,1,-0.576388889,0.439583333,1,0,0,1.9646,Pumice_04,8,04,6,1,1.965,0.342361111,-0.3875,1,0,0,0.6539,Pumice_rect,8,0.654,1,0,0,0,0,1,,,,,,,,,,,,,
64c0a2d8031339ab6ec5e54a,SCN,2024-06-11_13h40.24.527,LearnStrategy,2023.2.3,Win32,238.0952381,4,1,2,0.270138889,-0.428472222,1,0,0,0.854,Pegmatite_13,6,13,1,6,0.854,0.097916667,-0.379861111,1,0,0,0.7384,Peridotite_rect,7,0.738,0,1,0,1,0,1,,,,,,,,,,,,,
64c0a2d8031339ab6ec5e54a,SCN,2024-06-11_13h40.24.527,LearnStrategy,2023.2.3,Win32,238.0952381,4,1,3,0.272222222,-0.438194444,1,0,0,0.4663,Pegmatite_13,6,13,1,6,0.466,-0.110416667,-0.395138889,1,0,0,0.6977,Pegmatite_rect,6,0.698,1,2,0,2,0,1,,,,,,,,,,,,,
64c0a2d8031339ab6ec5e54a,SCN,2024-06-11_13h40.24.527,LearnStrategy,2023.2.3,Win32,238.0952381,4,1,4,-0.508333333,-0.409722222,1,0,0,1.129,Peridotite_13,7,13,1,1,1.129,0.091666667,-0.4125,1,0,0,0.5645,Peridotite_rect,7,0.565,1,3,0,3,0,1,,,,,,,,,,,,,
64c0a2d8031339ab6ec5e54a,SCN,2024-06-11_13h40.24.527,LearnStrategy,2023.2.3,Win32,238.0952381,4,1,5,-0.397222222,-0.41875,1,0,0,2.3413,Gabbro_03,4,03,1,2,2.341,-0.334027778,-0.234722222,1,0,0,0.7095,Andesite_rect,1,0.709,0,4,0,4,0,1,,,,,,,,,,,,,
64c0a2d8031339ab6ec5e54a,SCN,2024-06-11_13h40.24.527,LearnStrategy,2023.2.3,Win32,238.0952381,4,1,6,-0.108333333,-0.294444444,1,0,0,2.1202,Diorite_15,3,15,2,4,2.12,0.350694444,-0.234027778,1,0,0,0.6306,Gabbro_rect,4,0.631,0,5,0,5,0,1,,,,,,,,,,,,,
64c0a2d8031339ab6ec5e54a,SCN,2024-06-11_13h40.24.527,LearnStrategy,2023.2.3,Win32,238.0952381,4,1,7,0.527083333,-0.39375,1,0,0,2.2897,Andesite_09,1,09,1,8,2.29,0.361805556,-0.234027778,1,0,0,1.4621,Gabbro_rect,4,1.462,0,6,0,6,0,1,,,,,,,,,,,,,
64c0a2d8031339ab6ec5e54a,SCN,2024-06-11_13h40.24.527,LearnStrategy,2023.2.3,Win32,238.0952381,4,1,8,0.422916667,0.096527778,1,0,0,2.0493,Andesite_05,1,05,4,7,2.049,0.415277778,-0.248611111,1,0,0,0.513,Gabbro_rect,4,0.513,0,7,0,7,0,1,,,,,,,,,,,,,
64c0a2d8031339ab6ec5e54a,SCN,2024-06-11_13h40.24.527,LearnStrategy,2023.2.3,Win32,238.0952381,4,1,9,-0.349305556,0.252777778,1,0,0,2.554,Diorite_09,3,09,5,2,2.554,0.392361111,-0.25625,1,0,0,0.8656,Gabbro_rect,4,0.866,0,8,0,8,0,1,,,,,,,,,,,,,
64c0a2d8031339ab6ec5e54a,SCN,2024-06-11_13h40.24.527,LearnStrategy,2023.2.3,Win32,238.0952381,4,1,10,-0.371527778,0.397916667,1,0,0,5.5122,Andesite_01,1,01,6,2,5.512,0.386111111,-0.234027778,1,0,0,0.8309,Gabbro_rect,4,0.831,0,9,0,9,0,1,,,,,,,,,,,,,
64c0a2d8031339ab6ec5e54a,SCN,2024-06-11_13h40.24.527,LearnStrategy,2023.2.3,Win32,238.0952381,4,1,11,0.088888889,0.399305556,1,0,0,0.9329,Pegmatite_10,6,10,6,5,0.933,-0.030555556,-0.414583333,1,0,0,3.3844,Pegmatite_rect,6,3.384,1,10,0,10,0,1,,,,,,,,,,,,,
64c0a2d8031339ab6ec5e54a,SCN,2024-06-11_13h40.24.527,LearnStrategy,2023.2.3,Win32,238.0952381,4,1,12,0.281944444,0.395138889,1,0,0,3.6246,Gabbro_10,4,10,6,6,3.625,0.314583333,-0.252777778,1,0,0,0.8436,Gabbro_rect,4,0.844,1,11,0,11,0,1,,,,,,,,,,,,,
64c0a2d8031339ab6ec5e54a,SCN,2024-06-11_13h40.24.527,LearnStrategy,2023.2.3,Win32,238.0952381,4,1,13,0.361805556,0.3625,1,0,0,2.1201,Diorite_06,3,06,6,7,2.12,0.392361111,-0.240277778,1,0,0,0.955,Gabbro_rect,4,0.955,0,12,0,12,0,1,,,,,,,,,,,,,
64c0a2d8031339ab6ec5e54a,SCN,2024-06-11_13h40.24.527,LearnStrategy,2023.2.3,Win32,238.0952381,4,1,14,0.402083333,0.263888889,1,0,0,2.2119,Pumice_16,8,16,5,7,2.212,0.325,-0.400694444,1,0,0,1.21,Pumice_rect,8,1.21,1,13,0,13,0,1,,,,,,,,,,,,,
64c0a2d8031339ab6ec5e54a,SCN,2024-06-11_13h40.24.527,LearnStrategy,2023.2.3,Win32,238.0952381,4,1,15,0.1,-0.143055556,1,0,0,1.7456,Peridotite_02,7,02,3,5,1.746,-0.041666667,-0.415277778,1,0,0,4.1385,Pegmatite_rect,6,4.139,0,14,0,14,0,1,,,,,,,,,,,,,
64c0a2d8031339ab6ec5e54a,SCN,2024-06-11_13h40.24.527,LearnStrategy,2023.2.3,Win32,238.0952381,4,1,16,-0.526388889,-0.430555556,1,0,0,3.4996,Peridotite_13,7,13,1,1,3.5,-0.136805556,-0.396527778,1,0,0,0.5555,Pegmatite_rect,6,0.555,0,15,0,15,0,1,,,,,,,,,,,,,
64c0a2d8031339ab6ec5e54a,SCN,2024-06-11_13h40.24.527,LearnStrategy,2023.2.3,Win32,238.0952381,4,2,1,,,,,,,,8,08,,,,,,,,,,,8,1.071,1,,,,,,0.404166667,-0.384027778,1,0,0,1.0708,Pumice_rect,0,0,0,0,1,
64c0a2d8031339ab6ec5e54a,SCN,2024-06-11_13h40.24.527,LearnStrategy,2023.2.3,Win32,238.0952381,4,2,2,,,,,,,,3,07,,,,,,,,,,,7,5.482,0,,,,,,0.031944444,-0.400694444,1,0,0,5.4815,Peridotite_rect,1,0,1,0,1,
64c0a2d8031339ab6ec5e54a,SCN,2024-06-11_13h40.24.527,LearnStrategy,2023.2.3,Win32,238.0952381,4,2,3,,,,,,,,7,06,,,,,,,,,,,7,3.718,1,,,,,,0.029861111,-0.381944444,1,0,0,3.718,Peridotite_rect,2,0,2,0,1,
64c0a2d8031339ab6ec5e54a,SCN,2024-06-11_13h40.24.527,LearnStrategy,2023.2.3,Win32,238.0952381,4,2,4,,,,,,,,4,08,,,,,,,,,,,1,4.481,0,,,,,,-0.306944444,-0.270833333,1,0,0,4.4813,Andesite_rect,3,0,3,0,1,
64c0a2d8031339ab6ec5e54a,SCN,2024-06-11_13h40.24.527,LearnStrategy,2023.2.3,Win32,238.0952381,4,2,5,,,,,,,,6,11,,,,,,,,,,,7,9.557,0,,,,,,0.179861111,-0.410416667,1,0,0,9.5566,Peridotite_rect,4,0,4,0,1,
64c0a2d8031339ab6ec5e54a,SCN,2024-06-11_13h40.24.527,LearnStrategy,2023.2.3,Win32,238.0952381,4,2,6,,,,,,,,8,02,,,,,,,,,,,8,1.211,1,,,,,,0.379166667,-0.384027778,1,0,0,1.211,Pumice_rect,5,0,5,0,1,
64c0a2d8031339ab6ec5e54a,SCN,2024-06-11_13h40.24.527,LearnStrategy,2023.2.3,Win32,238.0952381,4,2,7,,,,,,,,2,09,,,,,,,,,,,3,2.993,0,,,,,,0.108333333,-0.247222222,1,0,0,2.9934,Diorite_rect,6,0,6,0,1,
64c0a2d8031339ab6ec5e54a,SCN,2024-06-11_13h40.24.527,LearnStrategy,2023.2.3,Win32,238.0952381,4,2,8,,,,,,,,3,10,,,,,,,,,,,1,2.694,0,,,,,,-0.309722222,-0.243055556,1,0,0,2.6936,Andesite_rect,7,0,7,0,1,
64c0a2d8031339ab6ec5e54a,SCN,2024-06-11_13h40.24.527,LearnStrategy,2023.2.3,Win32,238.0952381,4,2,9,,,,,,,,6,08,,,,,,,,,,,7,2.785,0,,,,,,0.075,-0.397916667,1,0,0,2.7852,Peridotite_rect,8,0,8,0,1,
64c0a2d8031339ab6ec5e54a,SCN,2024-06-11_13h40.24.527,LearnStrategy,2023.2.3,Win32,238.0952381,4,2,10,,,,,,,,4,01,,,,,,,,,,,1,1.29,0,,,,,,-0.315972222,-0.245833333,1,0,0,1.2905,Andesite_rect,9,0,9,0,1,
64c0a2d8031339ab6ec5e54a,SCN,2024-06-11_13h40.24.527,LearnStrategy,2023.2.3,Win32,238.0952381,4,2,11,,,,,,,,1,11,,,,,,,,,,,3,3.755,0,,,,,,0.088888889,-0.25,1,0,0,3.7546,Diorite_rect,10,0,10,0,1,
64c0a2d8031339ab6ec5e54a,SCN,2024-06-11_13h40.24.527,LearnStrategy,2023.2.3,Win32,238.0952381,4,2,12,,,,,,,,5,08,,,,,,,,,,,5,1.365,1,,,,,,-0.477777778,-0.406944444,1,0,0,1.3647,Obsidian_rect,11,0,11,0,1,
64c0a2d8031339ab6ec5e54a,SCN,2024-06-11_13h40.24.527,LearnStrategy,2023.2.3,Win32,238.0952381,4,2,13,,,,,,,,2,01,,,,,,,,,,,1,1.703,0,,,,,,-0.336805556,-0.246527778,1,0,0,1.7034,Andesite_rect,12,0,12,0,1,
64c0a2d8031339ab6ec5e54a,SCN,2024-06-11_13h40.24.527,LearnStrategy,2023.2.3,Win32,238.0952381,4,2,14,,,,,,,,1,10,,,,,,,,,,,8,1.383,0,,,,,,0.347916667,-0.404861111,1,0,0,1.3833,Pumice_rect,13,0,13,0,1,
64c0a2d8031339ab6ec5e54a,SCN,2024-06-11_13h40.24.527,LearnStrategy,2023.2.3,Win32,238.0952381,4,2,15,,,,,,,,7,05,,,,,,,,,,,6,3.094,0,,,,,,-0.211805556,-0.39375,1,0,0,3.0942,Pegmatite_rect,14,0,14,0,1,
64c0a2d8031339ab6ec5e54a,SCN,2024-06-11_13h40.24.527,LearnStrategy,2023.2.3,Win32,238.0952381,4,2,16,,,,,,,,5,16,,,,,,,,,,,5,0.715,1,,,,,,-0.438888889,-0.3875,1,0,0,0.7153,Obsidian_rect,15,0,15,0,1,
64c0a2d8031339ab6ec5e54a,SCN,2024-06-11_13h40.24.527,LearnStrategy,2023.2.3,Win32,238.0952381,5,1,1,-0.586111111,-0.438888889,1,0,0,2.6884,Peridotite_13,7,13,1,1,2.688,-0.109722222,-0.414583333,1,0,0,0.5673,Pegmatite_rect,6,0.567,0,0,0,0,0,1,,,,,,,,,,,,,
64c0a2d8031339ab6ec5e54a,SCN,2024-06-11_13h40.24.527,LearnStrategy,2023.2.3,Win32,238.0952381,5,1,2,0.110416667,-0.101388889,1,0,0,4.7667,Peridotite_02,7,02,3,5,4.767,-0.172916667,-0.404166667,1,0,0,0.936,Pegmatite_rect,6,0.936,0,1,0,1,0,1,,,,,,,,,,,,,
64c0a2d8031339ab6ec5e54a,SCN,2024-06-11_13h40.24.527,LearnStrategy,2023.2.3,Win32,238.0952381,5,1,3,-0.507638889,-0.440972222,1,0,0,0.635,Peridotite_13,7,13,1,1,0.635,0.070138889,-0.381944444,1,0,0,0.8559,Peridotite_rect,7,0.856,1,2,0,2,0,1,,,,,,,,,,,,,
64c0a2d8031339ab6ec5e54a,SCN,2024-06-11_13h40.24.527,LearnStrategy,2023.2.3,Win32,238.0952381,5,1,4,0.258333333,-0.127777778,1,0,0,0.725,Gabbro_09,4,09,3,6,0.725,0.131944444,-0.413194444,1,0,0,0.8502,Peridotite_rect,7,0.85,0,3,0,3,0,1,,,,,,,,,,,,,
64c0a2d8031339ab6ec5e54a,SCN,2024-06-11_13h40.24.527,LearnStrategy,2023.2.3,Win32,238.0952381,5,1,5,0.243055556,-0.138888889,1,0,0,0.4987,Gabbro_09,4,09,3,6,0.499,0.323611111,-0.247222222,1,0,0,0.8851,Gabbro_rect,4,0.885,1,4,0,4,0,1,,,,,,,,,,,,,
64c0a2d8031339ab6ec5e54a,SCN,2024-06-11_13h40.24.527,LearnStrategy,2023.2.3,Win32,238.0952381,5,1,6,0.204861111,0.381944444,1,0,0,0.8661,Gabbro_10,4,10,6,6,0.866,0.424305556,-0.248611111,1,0,0,0.7508,Gabbro_rect,4,0.751,1,5,0,5,0,1,,,,,,,,,,,,,
64c0a2d8031339ab6ec5e54a,SCN,2024-06-11_13h40.24.527,LearnStrategy,2023.2.3,Win32,238.0952381,5,1,7,-0.186805556,0.261111111,1,0,0,0.954,Obsidian_05,5,05,5,3,0.954,0.418055556,-0.228472222,1,0,0,0.5052,Gabbro_rect,4,0.505,0,6,0,6,0,1,,,,,,,,,,,,,
64c0a2d8031339ab6ec5e54a,SCN,2024-06-11_13h40.24.527,LearnStrategy,2023.2.3,Win32,238.0952381,5,1,8,0.409722222,-0.236805556,1,0,0,2.7979,Basalt_06,2,06,2,7,2.798,0.292361111,-0.2625,1,0,0,1.0044,Gabbro_rect,4,1.004,0,7,0,7,0,1,,,,,,,,,,,,,
64c0a2d8031339ab6ec5e54a,SCN,2024-06-11_13h40.24.527,LearnStrategy,2023.2.3,Win32,238.0952381,5,1,9,-0.409722222,0.402777778,1,0,0,4.2584,Andesite_01,1,01,6,2,4.258,-0.340972222,-0.261111111,1,0,0,0.9993,Andesite_rect,1,0.999,1,8,0,8,0,1,,,,,,,,,,,,,
64c0a2d8031339ab6ec5e54a,SCN,2024-06-11_13h40.24.527,LearnStrategy,2023.2.3,Win32,238.0952381,5,1,10,0.379166667,0.370833333,1,0,0,11.3205,Diorite_06,3,06,6,7,11.32,-0.061805556,-0.245833333,1,0,0,1.91,Basalt_rect,2,1.91,0,9,0,9,0,1,,,,,,,,,,,,,
64c0a2d8031339ab6ec5e54a,SCN,2024-06-11_13h40.24.527,LearnStrategy,2023.2.3,Win32,238.0952381,5,1,11,0.275,0.28125,1,0,0,1.5663,Gabbro_11,4,11,5,6,1.566,0.138888889,-0.2375,1,0,0,0.5639,Diorite_rect,3,0.564,0,10,0,10,0,1,,,,,,,,,,,,,
64c0a2d8031339ab6ec5e54a,SCN,2024-06-11_13h40.24.527,LearnStrategy,2023.2.3,Win32,238.0952381,5,1,12,0.423611111,0.09375,1,0,0,3.108,Andesite_05,1,05,4,7,3.108,0.322222222,-0.255555556,1,0,0,0.4599,Gabbro_rect,4,0.46,0,11,0,11,0,1,,,,,,,,,,,,,
64c0a2d8031339ab6ec5e54a,SCN,2024-06-11_13h40.24.527,LearnStrategy,2023.2.3,Win32,238.0952381,5,1,13,0.420833333,-0.254861111,1,0,0,0.8747,Basalt_06,2,06,2,7,0.875,-0.302083333,-0.26875,1,0,0,1.1465,Andesite_rect,1,1.146,0,12,0,12,0,1,,,,,,,,,,,,,
64c0a2d8031339ab6ec5e54a,SCN,2024-06-11_13h40.24.527,LearnStrategy,2023.2.3,Win32,238.0952381,5,1,14,-0.205555556,0.429861111,1,0,0,5.0459,Gabbro_13,4,13,6,3,5.046,-0.374305556,-0.268055556,1,0,0,1.3353,Andesite_rect,1,1.335,0,13,0,13,0,1,,,,,,,,,,,,,
64c0a2d8031339ab6ec5e54a,SCN,2024-06-11_13h40.24.527,LearnStrategy,2023.2.3,Win32,238.0952381,5,1,15,-0.518055556,-0.113888889,1,0,0,4.1041,Pumice_13,8,13,3,1,4.104,0.346527778,-0.416666667,1,0,0,0.9634,Pumice_rect,8,0.963,1,14,0,14,0,1,,,,,,,,,,,,,
64c0a2d8031339ab6ec5e54a,SCN,2024-06-11_13h40.24.527,LearnStrategy,2023.2.3,Win32,238.0952381,5,1,16,-0.090277778,0.088888889,1,0,0,1.4329,Obsidian_10,5,10,4,4,1.433,-0.345833333,-0.385416667,1,0,0,0.5184,Obsidian_rect,5,0.518,1,15,0,15,0,1,,,,,,,,,,,,,
64c0a2d8031339ab6ec5e54a,SCN,2024-06-11_13h40.24.527,LearnStrategy,2023.2.3,Win32,238.0952381,5,2,1,,,,,,,,3,11,,,,,,,,,,,4,6.402,0,,,,,,0.422916667,-0.259722222,1,0,0,6.4023,Gabbro_rect,0,0,0,0,1,
64c0a2d8031339ab6ec5e54a,SCN,2024-06-11_13h40.24.527,LearnStrategy,2023.2.3,Win32,238.0952381,5,2,2,,,,,,,,1,06,,,,,,,,,,,4,3.156,0,,,,,,0.386111111,-0.245138889,1,0,0,3.1563,Gabbro_rect,1,0,1,0,1,
64c0a2d8031339ab6ec5e54a,SCN,2024-06-11_13h40.24.527,LearnStrategy,2023.2.3,Win32,238.0952381,5,2,3,,,,,,,,3,02,,,,,,,,,,,4,0.943,0,,,,,,0.383333333,-0.244444444,1,0,0,0.9429,Gabbro_rect,2,0,2,0,1,
64c0a2d8031339ab6ec5e54a,SCN,2024-06-11_13h40.24.527,LearnStrategy,2023.2.3,Win32,238.0952381,5,2,4,,,,,,,,4,16,,,,,,,,,,,4,1.74,1,,,,,,0.382638889,-0.24375,1,0,0,1.7395,Gabbro_rect,3,0,3,0,1,
64c0a2d8031339ab6ec5e54a,SCN,2024-06-11_13h40.24.527,LearnStrategy,2023.2.3,Win32,238.0952381,5,2,5,,,,,,,,4,12,,,,,,,,,,,1,2.307,0,,,,,,-0.339583333,-0.252777778,1,0,0,2.307,Andesite_rect,4,0,4,0,1,
64c0a2d8031339ab6ec5e54a,SCN,2024-06-11_13h40.24.527,LearnStrategy,2023.2.3,Win32,238.0952381,5,2,6,,,,,,,,5,14,,,,,,,,,,,5,0.757,1,,,,,,-0.392361111,-0.415277778,1,0,0,0.7572,Obsidian_rect,5,0,5,0,1,
64c0a2d8031339ab6ec5e54a,SCN,2024-06-11_13h40.24.527,LearnStrategy,2023.2.3,Win32,238.0952381,5,2,7,,,,,,,,6,16,,,,,,,,,,,7,5.331,0,,,,,,0.170138889,-0.420833333,1,0,0,5.3308,Peridotite_rect,6,0,6,0,1,
64c0a2d8031339ab6ec5e54a,SCN,2024-06-11_13h40.24.527,LearnStrategy,2023.2.3,Win32,238.0952381,5,2,8,,,,,,,,5,07,,,,,,,,,,,5,3.738,1,,,,,,-0.332638889,-0.38125,1,0,0,3.738,Obsidian_rect,7,0,7,0,1,
64c0a2d8031339ab6ec5e54a,SCN,2024-06-11_13h40.24.527,LearnStrategy,2023.2.3,Win32,238.0952381,5,2,9,,,,,,,,8,06,,,,,,,,,,,8,1.01,1,,,,,,0.325694444,-0.404861111,1,0,0,1.0096,Pumice_rect,8,0,8,0,1,
64c0a2d8031339ab6ec5e54a,SCN,2024-06-11_13h40.24.527,LearnStrategy,2023.2.3,Win32,238.0952381,5,2,10,,,,,,,,8,14,,,,,,,,,,,8,0.881,1,,,,,,0.386111111,-0.38125,1,0,0,0.8807,Pumice_rect,9,0,9,0,1,
64c0a2d8031339ab6ec5e54a,SCN,2024-06-11_13h40.24.527,LearnStrategy,2023.2.3,Win32,238.0952381,5,2,11,,,,,,,,1,03,,,,,,,,,,,3,5.949,0,,,,,,0.164583333,-0.263194444,1,0,0,5.9489,Diorite_rect,10,0,10,0,1,
64c0a2d8031339ab6ec5e54a,SCN,2024-06-11_13h40.24.527,LearnStrategy,2023.2.3,Win32,238.0952381,5,2,12,,,,,,,,2,10,,,,,,,,,,,2,2.219,1,,,,,,-0.222916667,-0.25,1,0,0,2.2188,Basalt_rect,11,0,11,0,1,
64c0a2d8031339ab6ec5e54a,SCN,2024-06-11_13h40.24.527,LearnStrategy,2023.2.3,Win32,238.0952381,5,2,13,,,,,,,,2,05,,,,,,,,,,,2,0.714,1,,,,,,-0.222916667,-0.25,1,0,0,0.7142,Basalt_rect,12,0,12,0,1,
64c0a2d8031339ab6ec5e54a,SCN,2024-06-11_13h40.24.527,LearnStrategy,2023.2.3,Win32,238.0952381,5,2,14,,,,,,,,7,04,,,,,,,,,,,6,1.968,0,,,,,,-0.113194444,-0.390277778,1,0,0,1.9685,Pegmatite_rect,13,0,13,0,1,
64c0a2d8031339ab6ec5e54a,SCN,2024-06-11_13h40.24.527,LearnStrategy,2023.2.3,Win32,238.0952381,5,2,15,,,,,,,,7,15,,,,,,,,,,,6,0.91,0,,,,,,-0.1125,-0.390972222,1,0,0,0.91,Pegmatite_rect,14,0,14,0,1,
64c0a2d8031339ab6ec5e54a,SCN,2024-06-11_13h40.24.527,LearnStrategy,2023.2.3,Win32,238.0952381,5,2,16,,,,,,,,6,09,,,,,,,,,,,7,1.664,0,,,,,,0.114583333,-0.407638889,1,0,0,1.6644,Peridotite_rect,15,0,15,0,1,
64c0a2d8031339ab6ec5e54a,SCN,2024-06-11_13h40.24.527,LearnStrategy,2023.2.3,Win32,238.0952381,6,1,1,0.268055556,-0.425,1,0,0,2.6874,Pegmatite_13,6,13,1,6,2.687,0.052083333,-0.394444444,1,0,0,0.6124,Peridotite_rect,7,0.612,0,0,0,0,0,1,,,,,,,,,,,,,
64c0a2d8031339ab6ec5e54a,SCN,2024-06-11_13h40.24.527,LearnStrategy,2023.2.3,Win32,238.0952381,6,1,2,0.253472222,-0.390972222,1,0,0,0.4329,Pegmatite_13,6,13,1,6,0.433,-0.031944444,-0.409027778,1,0,0,0.3724,Pegmatite_rect,6,0.372,1,1,0,1,0,1,,,,,,,,,,,,,
64c0a2d8031339ab6ec5e54a,SCN,2024-06-11_13h40.24.527,LearnStrategy,2023.2.3,Win32,238.0952381,6,1,3,-0.518055556,-0.394444444,1,0,0,0.5412,Peridotite_13,7,13,1,1,0.541,0.080555556,-0.409027778,1,0,0,0.4396,Peridotite_rect,7,0.44,1,2,0,2,0,1,,,,,,,,,,,,,
64c0a2d8031339ab6ec5e54a,SCN,2024-06-11_13h40.24.527,LearnStrategy,2023.2.3,Win32,238.0952381,6,1,4,0.263194444,0.081944444,1,0,0,16.5472,Pegmatite_05,6,05,4,6,16.547,-0.06875,-0.386111111,1,0,0,2.5218,Pegmatite_rect,6,2.522,1,3,0,3,0,1,,,,,,,,,,,,,
64c0a2d8031339ab6ec5e54a,SCN,2024-06-11_13h40.24.527,LearnStrategy,2023.2.3,Win32,238.0952381,6,1,5,-0.049305556,0.267361111,1,0,0,1.3838,Basalt_12,2,12,5,4,1.384,0.393055556,-0.383333333,1,0,0,0.9552,Pumice_rect,8,0.955,0,4,0,4,0,1,,,,,,,,,,,,,
64c0a2d8031339ab6ec5e54a,SCN,2024-06-11_13h40.24.527,LearnStrategy,2023.2.3,Win32,238.0952381,6,1,6,0.289583333,0.130555556,1,0,0,12.1927,Pegmatite_05,6,05,4,6,12.193,-0.050694444,-0.415277778,1,0,0,1.7883,Pegmatite_rect,6,1.788,1,5,0,5,0,1,,,,,,,,,,,,,
64c0a2d8031339ab6ec5e54a,SCN,2024-06-11_13h40.24.527,LearnStrategy,2023.2.3,Win32,238.0952381,6,1,7,-0.071527778,0.223611111,1,0,0,1.2206,Basalt_12,2,12,5,4,1.221,-0.168055556,-0.242361111,1,0,0,0.6434,Basalt_rect,2,0.643,1,6,0,6,0,1,,,,,,,,,,,,,
64c0a2d8031339ab6ec5e54a,SCN,2024-06-11_13h40.24.527,LearnStrategy,2023.2.3,Win32,238.0952381,6,1,8,-0.080555556,0.378472222,1,0,0,0.8705,Pumice_15,8,15,6,4,0.87,0.361805556,-0.404861111,1,0,0,1.1919,Pumice_rect,8,1.192,1,7,0,7,0,1,,,,,,,,,,,,,
64c0a2d8031339ab6ec5e54a,SCN,2024-06-11_13h40.24.527,LearnStrategy,2023.2.3,Win32,238.0952381,6,1,9,0.536111111,0.121527778,1,0,0,2.4124,Basalt_11,2,11,4,8,2.412,-0.069444444,-0.246527778,1,0,0,0.6428,Basalt_rect,2,0.643,1,8,0,8,0,1,,,,,,,,,,,,,
64c0a2d8031339ab6ec5e54a,SCN,2024-06-11_13h40.24.527,LearnStrategy,2023.2.3,Win32,238.0952381,6,1,10,0.090972222,-0.433333333,1,0,0,3.4342,Andesite_14,1,14,1,5,3.434,-0.053472222,-0.250694444,1,0,0,0.9636,Basalt_rect,2,0.964,0,9,0,9,0,1,,,,,,,,,,,,,
64c0a2d8031339ab6ec5e54a,SCN,2024-06-11_13h40.24.527,LearnStrategy,2023.2.3,Win32,238.0952381,6,1,11,0.518055556,0.090972222,1,0,0,4.1331,Basalt_11,2,11,4,8,4.133,-0.154166667,-0.251388889,1,0,0,0.556,Basalt_rect,2,0.556,1,10,0,10,0,1,,,,,,,,,,,,,
64c0a2d8031339ab6ec5e54a,SCN,2024-06-11_13h40.24.527,LearnStrategy,2023.2.3,Win32,238.0952381,6,1,12,-0.363888889,-0.115277778,1,0,0,3.8206,Diorite_12,3,12,3,2,3.821,0.338888889,-0.270833333,1,0,0,2.5996,Gabbro_rect,4,2.6,0,11,0,11,0,1,,,,,,,,,,,,,
64c0a2d8031339ab6ec5e54a,SCN,2024-06-11_13h40.24.527,LearnStrategy,2023.2.3,Win32,238.0952381,6,1,13,-0.383333333,0.25625,1,0,0,3.3375,Diorite_09,3,09,5,2,3.337,-0.166666667,-0.258333333,1,0,0,0.8967,Basalt_rect,2,0.897,0,12,0,12,0,1,,,,,,,,,,,,,
64c0a2d8031339ab6ec5e54a,SCN,2024-06-11_13h40.24.527,LearnStrategy,2023.2.3,Win32,238.0952381,6,1,14,0.515972222,-0.254861111,1,0,0,2.554,Peridotite_08,7,08,2,8,2.554,0.099305556,-0.418055556,1,0,0,2.4434,Peridotite_rect,7,2.443,1,13,0,13,0,1,,,,,,,,,,,,,
64c0a2d8031339ab6ec5e54a,SCN,2024-06-11_13h40.24.527,LearnStrategy,2023.2.3,Win32,238.0952381,6,1,15,0.228472222,-0.225,1,0,0,1.112,Basalt_14,2,14,2,6,1.112,0.36875,-0.405555556,1,0,0,1.7477,Pumice_rect,8,1.748,0,14,0,14,0,1,,,,,,,,,,,,,
64c0a2d8031339ab6ec5e54a,SCN,2024-06-11_13h40.24.527,LearnStrategy,2023.2.3,Win32,238.0952381,6,1,16,0.352777778,0.253472222,1,0,0,2.1871,Pumice_16,8,16,5,7,2.187,0.363194444,-0.407638889,1,0,0,1.4767,Pumice_rect,8,1.477,1,15,0,15,0,1,,,,,,,,,,,,,
64c0a2d8031339ab6ec5e54a,SCN,2024-06-11_13h40.24.527,LearnStrategy,2023.2.3,Win32,238.0952381,6,2,1,,,,,,,,5,09,,,,,,,,,,,5,0.9,1,,,,,,-0.339583333,-0.386805556,1,0,0,0.9005,Obsidian_rect,0,0,0,0,1,
64c0a2d8031339ab6ec5e54a,SCN,2024-06-11_13h40.24.527,LearnStrategy,2023.2.3,Win32,238.0952381,6,2,2,,,,,,,,6,12,,,,,,,,,,,6,5.052,1,,,,,,-0.131944444,-0.4125,1,0,0,5.0522,Pegmatite_rect,1,0,1,0,1,
64c0a2d8031339ab6ec5e54a,SCN,2024-06-11_13h40.24.527,LearnStrategy,2023.2.3,Win32,238.0952381,6,2,3,,,,,,,,6,06,,,,,,,,,,,6,3.647,1,,,,,,-0.124305556,-0.383333333,1,0,0,3.6466,Pegmatite_rect,2,0,2,0,1,
64c0a2d8031339ab6ec5e54a,SCN,2024-06-11_13h40.24.527,LearnStrategy,2023.2.3,Win32,238.0952381,6,2,4,,,,,,,,1,16,,,,,,,,,,,1,13.8,1,,,,,,-0.346527778,-0.264583333,1,0,0,13.8001,Andesite_rect,3,0,3,0,1,
64c0a2d8031339ab6ec5e54a,SCN,2024-06-11_13h40.24.527,LearnStrategy,2023.2.3,Win32,238.0952381,6,2,5,,,,,,,,2,16,,,,,,,,,,,1,31.44,0,,,,,,-0.359027778,-0.259722222,1,0,0,31.4402,Andesite_rect,4,0,4,0,1,
64c0a2d8031339ab6ec5e54a,SCN,2024-06-11_13h40.24.527,LearnStrategy,2023.2.3,Win32,238.0952381,6,2,6,,,,,,,,8,03,,,,,,,,,,,8,1.794,1,,,,,,0.427083333,-0.413888889,1,0,0,1.7942,Pumice_rect,5,0,5,0,1,
64c0a2d8031339ab6ec5e54a,SCN,2024-06-11_13h40.24.527,LearnStrategy,2023.2.3,Win32,238.0952381,6,2,7,,,,,,,,3,08,,,,,,,,,,,7,2.443,0,,,,,,0.177777778,-0.402083333,1,0,0,2.4425,Peridotite_rect,6,0,6,0,1,
64c0a2d8031339ab6ec5e54a,SCN,2024-06-11_13h40.24.527,LearnStrategy,2023.2.3,Win32,238.0952381,6,2,8,,,,,,,,4,05,,,,,,,,,,,4,3.452,1,,,,,,0.353472222,-0.240277778,1,0,0,3.4521,Gabbro_rect,7,0,7,0,1,
64c0a2d8031339ab6ec5e54a,SCN,2024-06-11_13h40.24.527,LearnStrategy,2023.2.3,Win32,238.0952381,6,2,9,,,,,,,,7,16,,,,,,,,,,,4,0.785,0,,,,,,0.328472222,-0.247916667,1,0,0,0.7851,Gabbro_rect,8,0,8,0,1,
64c0a2d8031339ab6ec5e54a,SCN,2024-06-11_13h40.24.527,LearnStrategy,2023.2.3,Win32,238.0952381,6,2,10,,,,,,,,4,14,,,,,,,,,,,3,2.755,0,,,,,,0.079166667,-0.248611111,1,0,0,2.7551,Diorite_rect,9,0,9,0,1,
64c0a2d8031339ab6ec5e54a,SCN,2024-06-11_13h40.24.527,LearnStrategy,2023.2.3,Win32,238.0952381,6,2,11,,,,,,,,1,07,,,,,,,,,,,1,7.876,1,,,,,,-0.305555556,-0.240277778,1,0,0,7.8763,Andesite_rect,10,0,10,0,1,
64c0a2d8031339ab6ec5e54a,SCN,2024-06-11_13h40.24.527,LearnStrategy,2023.2.3,Win32,238.0952381,6,2,12,,,,,,,,3,16,,,,,,,,,,,4,1.33,0,,,,,,0.354166667,-0.230555556,1,0,0,1.3299,Gabbro_rect,11,0,11,0,1,
64c0a2d8031339ab6ec5e54a,SCN,2024-06-11_13h40.24.527,LearnStrategy,2023.2.3,Win32,238.0952381,6,2,13,,,,,,,,5,04,,,,,,,,,,,5,0.91,1,,,,,,-0.420833333,-0.410416667,1,0,0,0.91,Obsidian_rect,12,0,12,0,1,
64c0a2d8031339ab6ec5e54a,SCN,2024-06-11_13h40.24.527,LearnStrategy,2023.2.3,Win32,238.0952381,6,2,14,,,,,,,,8,09,,,,,,,,,,,8,1.119,1,,,,,,0.361805556,-0.418055556,1,0,0,1.1185,Pumice_rect,13,0,13,0,1,
64c0a2d8031339ab6ec5e54a,SCN,2024-06-11_13h40.24.527,LearnStrategy,2023.2.3,Win32,238.0952381,6,2,15,,,,,,,,7,14,,,,,,,,,,,4,3.656,0,,,,,,0.39375,-0.245138889,1,0,0,3.6562,Gabbro_rect,14,0,14,0,1,
64c0a2d8031339ab6ec5e54a,SCN,2024-06-11_13h40.24.527,LearnStrategy,2023.2.3,Win32,238.0952381,6,2,16,,,,,,,,2,04,,,,,,,,,,,3,3.619,0,,,,,,0.080555556,-0.267361111,1,0,0,3.6187,Diorite_rect,15,0,15,0,1,
64c0a2d8031339ab6ec5e54a,SCN,2024-06-11_13h40.24.527,LearnStrategy,2023.2.3,Win32,238.0952381,7,1,1,-0.35,-0.095833333,1,0,0,8.4881,Diorite_12,3,12,3,2,8.488,-0.0875,-0.264583333,1,0,0,1.133,Basalt_rect,2,1.133,0,0,0,0,0,1,,,,,,,,,,,,,
64c0a2d8031339ab6ec5e54a,SCN,2024-06-11_13h40.24.527,LearnStrategy,2023.2.3,Win32,238.0952381,7,1,2,-0.389583333,0.059027778,1,0,0,5.8544,Pegmatite_03,6,03,4,2,5.854,0.120138889,-0.404166667,1,0,0,2.1486,Peridotite_rect,7,2.149,0,1,0,1,0,1,,,,,,,,,,,,,
64c0a2d8031339ab6ec5e54a,SCN,2024-06-11_13h40.24.527,LearnStrategy,2023.2.3,Win32,238.0952381,7,1,3,0.410416667,0.410416667,1,0,0,7.1828,Diorite_06,3,06,6,7,7.183,0.055555556,-0.263888889,1,0,0,0.6405,Diorite_rect,3,0.64,1,2,0,2,0,1,,,,,,,,,,,,,
64c0a2d8031339ab6ec5e54a,SCN,2024-06-11_13h40.24.527,LearnStrategy,2023.2.3,Win32,238.0952381,7,1,4,-0.418055556,-0.279166667,1,0,0,13.7718,Diorite_13,3,13,2,2,13.772,0.173611111,-0.257638889,1,0,0,1.5702,Diorite_rect,3,1.57,1,3,0,3,0,1,,,,,,,,,,,,,
64c0a2d8031339ab6ec5e54a,SCN,2024-06-11_13h40.24.527,LearnStrategy,2023.2.3,Win32,238.0952381,7,1,5,0.111805556,-0.086111111,1,0,0,7.0673,Peridotite_02,7,02,3,5,7.067,0.1625,-0.253472222,1,0,0,1.1826,Diorite_rect,3,1.183,0,4,0,4,0,1,,,,,,,,,,,,,
64c0a2d8031339ab6ec5e54a,SCN,2024-06-11_13h40.24.527,LearnStrategy,2023.2.3,Win32,238.0952381,7,1,6,0.404166667,-0.11875,1,0,0,91.8977,Peridotite_12,7,12,3,7,91.898,0.053472222,-0.384722222,1,0,0,6.053,Peridotite_rect,7,6.053,1,5,0,5,0,1,,,,,,,,,,,,,
64c0a2d8031339ab6ec5e54a,SCN,2024-06-11_13h40.24.527,LearnStrategy,2023.2.3,Win32,238.0952381,7,1,7,0.264583333,0.084722222,1,0,0,8.1505,Pegmatite_05,6,05,4,6,8.15,-0.436805556,-0.230555556,1,0,0,3.4433,Andesite_rect,1,3.443,0,6,0,6,0,1,,,,,,,,,,,,,
64c0a2d8031339ab6ec5e54a,SCN,2024-06-11_13h40.24.527,LearnStrategy,2023.2.3,Win32,238.0952381,7,1,8,0.09375,0.072916667,1,0,0,0.9997,Pumice_10,8,10,4,5,1,0.425,-0.38125,1,0,0,1.0581,Pumice_rect,8,1.058,1,7,0,7,0,1,,,,,,,,,,,,,
64c0a2d8031339ab6ec5e54a,SCN,2024-06-11_13h40.24.527,LearnStrategy,2023.2.3,Win32,238.0952381,7,1,9,-0.079166667,0.277777778,1,0,0,1.1249,Basalt_12,2,12,5,4,1.125,-0.079166667,-0.265277778,1,0,0,1.3527,Basalt_rect,2,1.353,1,8,0,8,0,1,,,,,,,,,,,,,
64c0a2d8031339ab6ec5e54a,SCN,2024-06-11_13h40.24.527,LearnStrategy,2023.2.3,Win32,238.0952381,7,1,10,0.100694444,0.264583333,1,0,0,1.487,Basalt_08,2,08,5,5,1.487,-0.106944444,-0.240277778,1,0,0,1.106,Basalt_rect,2,1.106,1,9,0,9,0,1,,,,,,,,,,,,,
64c0a2d8031339ab6ec5e54a,SCN,2024-06-11_13h40.24.527,LearnStrategy,2023.2.3,Win32,238.0952381,7,1,11,-0.208333333,0.402777778,1,0,0,3.304,Gabbro_13,4,13,6,3,3.304,-0.320833333,-0.230555556,1,0,0,1.0721,Andesite_rect,1,1.072,0,10,0,10,0,1,,,,,,,,,,,,,
64c0a2d8031339ab6ec5e54a,SCN,2024-06-11_13h40.24.527,LearnStrategy,2023.2.3,Win32,238.0952381,7,1,12,0.355555556,0.382638889,1,0,0,2.6832,Diorite_06,3,06,6,7,2.683,-0.111805556,-0.263194444,1,0,0,2.9616,Basalt_rect,2,2.962,0,11,0,11,0,1,,,,,,,,,,,,,
64c0a2d8031339ab6ec5e54a,SCN,2024-06-11_13h40.24.527,LearnStrategy,2023.2.3,Win32,238.0952381,7,1,13,-0.395138889,-0.075694444,1,0,0,1.7087,Diorite_12,3,12,3,2,1.709,0.211805556,-0.241666667,1,0,0,0.7399,Diorite_rect,3,0.74,1,12,0,12,0,1,,,,,,,,,,,,,
64c0a2d8031339ab6ec5e54a,SCN,2024-06-11_13h40.24.527,LearnStrategy,2023.2.3,Win32,238.0952381,7,1,14,0.528472222,0.105555556,1,0,0,3.0832,Basalt_11,2,11,4,8,3.083,-0.09375,-0.259027778,1,0,0,0.6208,Basalt_rect,2,0.621,1,13,0,13,0,1,,,,,,,,,,,,,
64c0a2d8031339ab6ec5e54a,SCN,2024-06-11_13h40.24.527,LearnStrategy,2023.2.3,Win32,238.0952381,7,1,15,0.363888889,0.073611111,1,0,0,1.0967,Andesite_05,1,05,4,7,1.097,-0.152083333,-0.248611111,1,0,0,0.6957,Basalt_rect,2,0.696,0,14,0,14,0,1,,,,,,,,,,,,,
64c0a2d8031339ab6ec5e54a,SCN,2024-06-11_13h40.24.527,LearnStrategy,2023.2.3,Win32,238.0952381,7,1,16,0.356944444,0.106944444,1,0,0,1.2545,Andesite_05,1,05,4,7,1.255,-0.347222222,-0.255555556,1,0,0,0.9066,Andesite_rect,1,0.907,1,15,0,15,0,1,,,,,,,,,,,,,
64c0a2d8031339ab6ec5e54a,SCN,2024-06-11_13h40.24.527,LearnStrategy,2023.2.3,Win32,238.0952381,7,2,1,,,,,,,,1,16,,,,,,,,,,,7,4.152,0,,,,,,0.055555556,-0.3875,1,0,0,4.1524,Peridotite_rect,0,0,0,0,1,
64c0a2d8031339ab6ec5e54a,SCN,2024-06-11_13h40.24.527,LearnStrategy,2023.2.3,Win32,238.0952381,7,2,2,,,,,,,,7,14,,,,,,,,,,,4,3.643,0,,,,,,0.380555556,-0.263888889,1,0,0,3.6429,Gabbro_rect,1,0,1,0,1,
64c0a2d8031339ab6ec5e54a,SCN,2024-06-11_13h40.24.527,LearnStrategy,2023.2.3,Win32,238.0952381,7,2,3,,,,,,,,2,16,,,,,,,,,,,2,4.398,1,,,,,,-0.072222222,-0.234027778,1,0,0,4.3984,Basalt_rect,2,0,2,0,1,
64c0a2d8031339ab6ec5e54a,SCN,2024-06-11_13h40.24.527,LearnStrategy,2023.2.3,Win32,238.0952381,7,2,4,,,,,,,,3,11,,,,,,,,,,,3,6.419,1,,,,,,0.126388889,-0.259722222,1,0,0,6.4194,Diorite_rect,3,0,3,0,1,
64c0a2d8031339ab6ec5e54a,SCN,2024-06-11_13h40.24.527,LearnStrategy,2023.2.3,Win32,238.0952381,7,2,5,,,,,,,,3,10,,,,,,,,,,,3,1.314,1,,,,,,0.126388889,-0.259722222,1,0,0,1.3144,Diorite_rect,4,0,4,0,1,
64c0a2d8031339ab6ec5e54a,SCN,2024-06-11_13h40.24.527,LearnStrategy,2023.2.3,Win32,238.0952381,7,2,6,,,,,,,,4,16,,,,,,,,,,,1,4.906,0,,,,,,-0.348611111,-0.240277778,1,0,0,4.9062,Andesite_rect,5,0,5,0,1,
64c0a2d8031339ab6ec5e54a,SCN,2024-06-11_13h40.24.527,LearnStrategy,2023.2.3,Win32,238.0952381,7,2,7,,,,,,,,6,11,,,,,,,,,,,7,3.648,0,,,,,,0.0875,-0.384027778,1,0,0,3.6478,Peridotite_rect,6,0,6,0,1,
64c0a2d8031339ab6ec5e54a,SCN,2024-06-11_13h40.24.527,LearnStrategy,2023.2.3,Win32,238.0952381,7,2,8,,,,,,,,2,09,,,,,,,,,,,2,16.212,1,,,,,,-0.065277778,-0.234027778,1,0,0,16.2122,Basalt_rect,7,0,7,0,1,
64c0a2d8031339ab6ec5e54a,SCN,2024-06-11_13h40.24.527,LearnStrategy,2023.2.3,Win32,238.0952381,7,2,9,,,,,,,,1,06,,,,,,,,,,,4,13.913,0,,,,,,0.391666667,-0.234027778,1,0,0,13.9128,Gabbro_rect,8,0,8,0,1,
64c0a2d8031339ab6ec5e54a,SCN,2024-06-11_13h40.24.527,LearnStrategy,2023.2.3,Win32,238.0952381,7,2,10,,,,,,,,4,05,,,,,,,,,,,1,6.349,0,,,,,,-0.435416667,-0.228472222,1,0,0,6.3487,Andesite_rect,9,0,9,0,1,
64c0a2d8031339ab6ec5e54a,SCN,2024-06-11_13h40.24.527,LearnStrategy,2023.2.3,Win32,238.0952381,7,2,11,,,,,,,,5,09,,,,,,,,,,,5,0.927,1,,,,,,-0.361111111,-0.411805556,1,0,0,0.9266,Obsidian_rect,10,0,10,0,1,
64c0a2d8031339ab6ec5e54a,SCN,2024-06-11_13h40.24.527,LearnStrategy,2023.2.3,Win32,238.0952381,7,2,12,,,,,,,,6,06,,,,,,,,,,,7,3.399,0,,,,,,0.0875,-0.397916667,1,0,0,3.399,Peridotite_rect,11,0,11,0,1,
64c0a2d8031339ab6ec5e54a,SCN,2024-06-11_13h40.24.527,LearnStrategy,2023.2.3,Win32,238.0952381,7,2,13,,,,,,,,8,09,,,,,,,,,,,8,1.091,1,,,,,,0.379166667,-0.386111111,1,0,0,1.0908,Pumice_rect,12,0,12,0,1,
64c0a2d8031339ab6ec5e54a,SCN,2024-06-11_13h40.24.527,LearnStrategy,2023.2.3,Win32,238.0952381,7,2,14,,,,,,,,7,06,,,,,,,,,,,7,1.116,1,,,,,,0.2,-0.408333333,1,0,0,1.1162,Peridotite_rect,13,0,13,0,1,
64c0a2d8031339ab6ec5e54a,SCN,2024-06-11_13h40.24.527,LearnStrategy,2023.2.3,Win32,238.0952381,7,2,15,,,,,,,,8,08,,,,,,,,,,,8,1.21,1,,,,,,0.384027778,-0.395138889,1,0,0,1.2102,Pumice_rect,14,0,14,0,1,
64c0a2d8031339ab6ec5e54a,SCN,2024-06-11_13h40.24.527,LearnStrategy,2023.2.3,Win32,238.0952381,7,2,16,,,,,,,,5,16,,,,,,,,,,,5,0.96,1,,,,,,-0.373611111,-0.410416667,1,0,0,0.9601,Obsidian_rect,15,0,15,0,1,
64c0a2d8031339ab6ec5e54a,SCN,2024-06-11_13h40.24.527,LearnStrategy,2023.2.3,Win32,238.0952381,8,1,1,-0.190972222,0.4,1,0,0,8.0003,Gabbro_13,4,13,6,3,8,0.350694444,-0.231944444,1,0,0,0.7478,Gabbro_rect,4,0.748,1,0,0,0,0,1,,,,,,,,,,,,,
64c0a2d8031339ab6ec5e54a,SCN,2024-06-11_13h40.24.527,LearnStrategy,2023.2.3,Win32,238.0952381,8,1,2,0.397222222,0.359722222,1,0,0,1.5915,Diorite_06,3,06,6,7,1.591,0.322222222,-0.245138889,1,0,0,4.2018,Gabbro_rect,4,4.202,0,1,0,1,0,1,,,,,,,,,,,,,
64c0a2d8031339ab6ec5e54a,SCN,2024-06-11_13h40.24.527,LearnStrategy,2023.2.3,Win32,238.0952381,8,1,3,-0.372222222,0.420833333,1,0,0,4.3335,Andesite_01,1,01,6,2,4.334,0.3625,-0.270138889,1,0,0,1.2383,Gabbro_rect,4,1.238,0,2,0,2,0,1,,,,,,,,,,,,,
64c0a2d8031339ab6ec5e54a,SCN,2024-06-11_13h40.24.527,LearnStrategy,2023.2.3,Win32,238.0952381,8,1,4,-0.364583333,0.395833333,1,0,0,1.3453,Andesite_01,1,01,6,2,1.345,-0.326388889,-0.229861111,1,0,0,1.2841,Andesite_rect,1,1.284,1,3,0,3,0,1,,,,,,,,,,,,,
64c0a2d8031339ab6ec5e54a,SCN,2024-06-11_13h40.24.527,LearnStrategy,2023.2.3,Win32,238.0952381,8,1,5,-0.086111111,-0.246527778,1,0,0,2.7047,Diorite_15,3,15,2,4,2.705,-0.30625,-0.243055556,1,0,0,0.7461,Andesite_rect,1,0.746,0,4,0,4,0,1,,,,,,,,,,,,,
64c0a2d8031339ab6ec5e54a,SCN,2024-06-11_13h40.24.527,LearnStrategy,2023.2.3,Win32,238.0952381,8,1,6,-0.072916667,-0.436111111,1,0,0,4.8007,Andesite_04,1,04,1,4,4.801,-0.355555556,-0.265972222,1,0,0,0.559,Andesite_rect,1,0.559,1,5,0,5,0,1,,,,,,,,,,,,,
64c0a2d8031339ab6ec5e54a,SCN,2024-06-11_13h40.24.527,LearnStrategy,2023.2.3,Win32,238.0952381,8,1,7,0.533333333,-0.397222222,1,0,0,1.6288,Andesite_09,1,09,1,8,1.629,-0.400694444,-0.229166667,1,0,0,0.9472,Andesite_rect,1,0.947,1,6,0,6,0,1,,,,,,,,,,,,,
64c0a2d8031339ab6ec5e54a,SCN,2024-06-11_13h40.24.527,LearnStrategy,2023.2.3,Win32,238.0952381,8,1,8,0.559722222,-0.25625,1,0,0,0.7788,Peridotite_08,7,08,2,8,0.779,-0.054861111,-0.407638889,1,0,0,2.1765,Pegmatite_rect,6,2.177,0,7,0,7,0,1,,,,,,,,,,,,,
64c0a2d8031339ab6ec5e54a,SCN,2024-06-11_13h40.24.527,LearnStrategy,2023.2.3,Win32,238.0952381,8,1,9,0.434027778,-0.114583333,1,0,0,1.3163,Peridotite_12,7,12,3,7,1.316,0.097222222,-0.417361111,1,0,0,0.6848,Peridotite_rect,7,0.685,1,8,0,8,0,1,,,,,,,,,,,,,
64c0a2d8031339ab6ec5e54a,SCN,2024-06-11_13h40.24.527,LearnStrategy,2023.2.3,Win32,238.0952381,8,1,10,0.596527778,-0.120138889,1,0,0,0.7455,Gabbro_15,4,15,3,8,0.745,0.334722222,-0.233333333,1,0,0,1.2766,Gabbro_rect,4,1.277,1,9,0,9,0,1,,,,,,,,,,,,,
64c0a2d8031339ab6ec5e54a,SCN,2024-06-11_13h40.24.527,LearnStrategy,2023.2.3,Win32,238.0952381,8,1,11,-0.555555556,-0.26875,1,0,0,3.2541,Pegmatite_07,6,07,2,1,3.254,0.099305556,-0.388888889,1,0,0,0.8467,Peridotite_rect,7,0.847,0,10,0,10,0,1,,,,,,,,,,,,,
64c0a2d8031339ab6ec5e54a,SCN,2024-06-11_13h40.24.527,LearnStrategy,2023.2.3,Win32,238.0952381,8,1,12,-0.506944444,-0.402083333,1,0,0,0.9167,Peridotite_13,7,13,1,1,0.917,0.042361111,-0.39375,1,0,0,0.7241,Peridotite_rect,7,0.724,1,11,0,11,0,1,,,,,,,,,,,,,
64c0a2d8031339ab6ec5e54a,SCN,2024-06-11_13h40.24.527,LearnStrategy,2023.2.3,Win32,238.0952381,8,1,13,-0.5125,-0.086805556,1,0,0,1.9374,Pumice_13,8,13,3,1,1.937,0.386805556,-0.418055556,1,0,0,0.814,Pumice_rect,8,0.814,1,12,0,12,0,1,,,,,,,,,,,,,
64c0a2d8031339ab6ec5e54a,SCN,2024-06-11_13h40.24.527,LearnStrategy,2023.2.3,Win32,238.0952381,8,1,14,0.090972222,0.090972222,1,0,0,1.3539,Pumice_10,8,10,4,5,1.354,0.358333333,-0.388194444,1,0,0,0.7092,Pumice_rect,8,0.709,1,13,0,13,0,1,,,,,,,,,,,,,
64c0a2d8031339ab6ec5e54a,SCN,2024-06-11_13h40.24.527,LearnStrategy,2023.2.3,Win32,238.0952381,8,1,15,-0.084027778,0.247222222,1,0,0,2.2002,Basalt_12,2,12,5,4,2.2,-0.118055556,-0.238194444,1,0,0,1.5255,Basalt_rect,2,1.526,1,14,0,14,0,1,,,,,,,,,,,,,
64c0a2d8031339ab6ec5e54a,SCN,2024-06-11_13h40.24.527,LearnStrategy,2023.2.3,Win32,238.0952381,8,1,16,-0.394444444,0.279861111,1,0,0,2.9666,Diorite_09,3,09,5,2,2.967,-0.053472222,-0.404861111,1,0,0,3.2683,Pegmatite_rect,6,3.268,0,15,0,15,0,1,,,,,,,,,,,,,
64c0a2d8031339ab6ec5e54a,SCN,2024-06-11_13h40.24.527,LearnStrategy,2023.2.3,Win32,238.0952381,8,2,1,,,,,,,,4,12,,,,,,,,,,,1,3.206,0,,,,,,-0.368055556,-0.240972222,1,0,0,3.2059,Andesite_rect,0,0,0,0,1,
64c0a2d8031339ab6ec5e54a,SCN,2024-06-11_13h40.24.527,LearnStrategy,2023.2.3,Win32,238.0952381,8,2,2,,,,,,,,3,02,,,,,,,,,,,3,7.413,1,,,,,,0.097916667,-0.229166667,1,0,0,7.4134,Diorite_rect,1,0,1,0,1,
64c0a2d8031339ab6ec5e54a,SCN,2024-06-11_13h40.24.527,LearnStrategy,2023.2.3,Win32,238.0952381,8,2,3,,,,,,,,7,15,,,,,,,,,,,7,4.759,1,,,,,,0.086805556,-0.392361111,1,0,0,4.7586,Peridotite_rect,2,0,2,0,1,
64c0a2d8031339ab6ec5e54a,SCN,2024-06-11_13h40.24.527,LearnStrategy,2023.2.3,Win32,238.0952381,8,2,4,,,,,,,,6,16,,,,,,,,,,,6,1.627,1,,,,,,-0.079166667,-0.397916667,1,0,0,1.6272,Pegmatite_rect,3,0,3,0,1,
64c0a2d8031339ab6ec5e54a,SCN,2024-06-11_13h40.24.527,LearnStrategy,2023.2.3,Win32,238.0952381,8,2,5,,,,,,,,4,08,,,,,,,,,,,2,11.756,0,,,,,,-0.205555556,-0.266666667,1,0,0,11.7558,Basalt_rect,4,0,4,0,1,
64c0a2d8031339ab6ec5e54a,SCN,2024-06-11_13h40.24.527,LearnStrategy,2023.2.3,Win32,238.0952381,8,2,6,,,,,,,,1,11,,,,,,,,,,,1,2.369,1,,,,,,-0.400694444,-0.242361111,1,0,0,2.3687,Andesite_rect,5,0,5,0,1,
64c0a2d8031339ab6ec5e54a,SCN,2024-06-11_13h40.24.527,LearnStrategy,2023.2.3,Win32,238.0952381,8,2,7,,,,,,,,1,07,,,,,,,,,,,1,1.585,1,,,,,,-0.397222222,-0.244444444,1,0,0,1.5848,Andesite_rect,6,0,6,0,1,
64c0a2d8031339ab6ec5e54a,SCN,2024-06-11_13h40.24.527,LearnStrategy,2023.2.3,Win32,238.0952381,8,2,8,,,,,,,,8,02,,,,,,,,,,,8,1.652,1,,,,,,0.436805556,-0.415277778,1,0,0,1.6523,Pumice_rect,7,0,7,0,1,
64c0a2d8031339ab6ec5e54a,SCN,2024-06-11_13h40.24.527,LearnStrategy,2023.2.3,Win32,238.0952381,8,2,9,,,,,,,,7,04,,,,,,,,,,,6,9.749,0,,,,,,-0.042361111,-0.382638889,1,0,0,9.7491,Pegmatite_rect,8,0,8,0,1,
64c0a2d8031339ab6ec5e54a,SCN,2024-06-11_13h40.24.527,LearnStrategy,2023.2.3,Win32,238.0952381,8,2,10,,,,,,,,8,14,,,,,,,,,,,8,0.91,1,,,,,,0.347222222,-0.400694444,1,0,0,0.9101,Pumice_rect,9,0,9,0,1,
64c0a2d8031339ab6ec5e54a,SCN,2024-06-11_13h40.24.527,LearnStrategy,2023.2.3,Win32,238.0952381,8,2,11,,,,,,,,2,01,,,,,,,,,,,2,4.494,1,,,,,,-0.186805556,-0.249305556,1,0,0,4.4937,Basalt_rect,10,0,10,0,1,
64c0a2d8031339ab6ec5e54a,SCN,2024-06-11_13h40.24.527,LearnStrategy,2023.2.3,Win32,238.0952381,8,2,12,,,,,,,,2,04,,,,,,,,,,,2,0.927,1,,,,,,-0.188888889,-0.25,1,0,0,0.9272,Basalt_rect,11,0,11,0,1,
64c0a2d8031339ab6ec5e54a,SCN,2024-06-11_13h40.24.527,LearnStrategy,2023.2.3,Win32,238.0952381,8,2,13,,,,,,,,3,16,,,,,,,,,,,3,2.63,1,,,,,,0.038888889,-0.249305556,1,0,0,2.6305,Diorite_rect,12,0,12,0,1,
64c0a2d8031339ab6ec5e54a,SCN,2024-06-11_13h40.24.527,LearnStrategy,2023.2.3,Win32,238.0952381,8,2,14,,,,,,,,5,08,,,,,,,,,,,5,0.952,1,,,,,,-0.361805556,-0.378472222,1,0,0,0.9518,Obsidian_rect,13,0,13,0,1,
64c0a2d8031339ab6ec5e54a,SCN,2024-06-11_13h40.24.527,LearnStrategy,2023.2.3,Win32,238.0952381,8,2,15,,,,,,,,6,08,,,,,,,,,,,6,8.723,1,,,,,,-0.104861111,-0.39375,1,0,0,8.7231,Pegmatite_rect,14,0,14,0,1,
64c0a2d8031339ab6ec5e54a,SCN,2024-06-11_13h40.24.527,LearnStrategy,2023.2.3,Win32,238.0952381,8,2,16,,,,,,,,5,07,,,,,,,,,,,5,1.011,1,,,,,,-0.343055556,-0.386805556,1,0,0,1.0112,Obsidian_rect,15,0,15,0,1,
64c0a2d8031339ab6ec5e54a,SCN,2024-06-11_13h40.24.527,LearnStrategy,2023.2.3,Win32,238.0952381,9,1,1,-0.232638889,0.365277778,1,0,0,2.9543,Gabbro_13,4,13,6,3,2.954,0.402083333,-0.256944444,1,0,0,0.6542,Gabbro_rect,4,0.654,1,0,0,0,0,1,,,,,,,,,,,,,
64c0a2d8031339ab6ec5e54a,SCN,2024-06-11_13h40.24.527,LearnStrategy,2023.2.3,Win32,238.0952381,9,1,2,-0.401388889,0.265972222,1,0,0,3.6534,Diorite_09,3,09,5,2,3.653,-0.040972222,-0.385416667,1,0,0,4.4232,Pegmatite_rect,6,4.423,0,1,0,1,0,1,,,,,,,,,,,,,
64c0a2d8031339ab6ec5e54a,SCN,2024-06-11_13h40.24.527,LearnStrategy,2023.2.3,Win32,238.0952381,9,1,3,-0.051388889,-0.254861111,1,0,0,5.6168,Diorite_15,3,15,2,4,5.617,0.057638889,-0.268055556,1,0,0,3.3553,Diorite_rect,3,3.355,1,2,0,2,0,1,,,,,,,,,,,,,
64c0a2d8031339ab6ec5e54a,SCN,2024-06-11_13h40.24.527,LearnStrategy,2023.2.3,Win32,238.0952381,9,1,4,-0.056944444,-0.384027778,1,0,0,4.1124,Andesite_04,1,04,1,4,4.112,-0.354861111,-0.251388889,1,0,0,0.5535,Andesite_rect,1,0.553,1,3,0,3,0,1,,,,,,,,,,,,,
64c0a2d8031339ab6ec5e54a,SCN,2024-06-11_13h40.24.527,LearnStrategy,2023.2.3,Win32,238.0952381,9,1,5,-0.236111111,-0.420833333,1,0,0,0.4749,Pegmatite_15,6,15,1,3,0.475,-0.073611111,-0.409027778,1,0,0,1.1904,Pegmatite_rect,6,1.19,1,4,0,4,0,1,,,,,,,,,,,,,
64c0a2d8031339ab6ec5e54a,SCN,2024-06-11_13h40.24.527,LearnStrategy,2023.2.3,Win32,238.0952381,9,1,6,-0.519444444,-0.223611111,1,0,0,1.2996,Pegmatite_07,6,07,2,1,1.3,-0.058333333,-0.384027778,1,0,0,0.6292,Pegmatite_rect,6,0.629,1,5,0,5,0,1,,,,,,,,,,,,,
64c0a2d8031339ab6ec5e54a,SCN,2024-06-11_13h40.24.527,LearnStrategy,2023.2.3,Win32,238.0952381,9,1,7,0.111805556,-0.102083333,1,0,0,2.3791,Peridotite_02,7,02,3,5,2.379,-0.028472222,-0.397222222,1,0,0,2.6557,Pegmatite_rect,6,2.656,0,6,0,6,0,1,,,,,,,,,,,,,
64c0a2d8031339ab6ec5e54a,SCN,2024-06-11_13h40.24.527,LearnStrategy,2023.2.3,Win32,238.0952381,9,1,8,-0.50625,0.0875,1,0,0,6.571,Andesite_02,1,02,4,1,6.571,-0.397222222,-0.25625,1,0,0,3.9156,Andesite_rect,1,3.916,1,7,0,7,0,1,,,,,,,,,,,,,
64c0a2d8031339ab6ec5e54a,SCN,2024-06-11_13h40.24.527,LearnStrategy,2023.2.3,Win32,238.0952381,9,1,9,0.259027778,0.390972222,1,0,0,2.8501,Gabbro_10,4,10,6,6,2.85,0.428472222,-0.261805556,1,0,0,0.6326,Gabbro_rect,4,0.633,1,8,0,8,0,1,,,,,,,,,,,,,
64c0a2d8031339ab6ec5e54a,SCN,2024-06-11_13h40.24.527,LearnStrategy,2023.2.3,Win32,238.0952381,9,1,10,-0.2125,0.408333333,1,0,0,0.583,Gabbro_13,4,13,6,3,0.583,0.38125,-0.265277778,1,0,0,3.6597,Gabbro_rect,4,3.66,1,9,0,9,0,1,,,,,,,,,,,,,
64c0a2d8031339ab6ec5e54a,SCN,2024-06-11_13h40.24.527,LearnStrategy,2023.2.3,Win32,238.0952381,9,1,11,-0.238888889,0.245138889,1,0,0,2.5163,Obsidian_05,5,05,5,3,2.516,-0.342361111,-0.413888889,1,0,0,2.2644,Obsidian_rect,5,2.264,1,10,0,10,0,1,,,,,,,,,,,,,
64c0a2d8031339ab6ec5e54a,SCN,2024-06-11_13h40.24.527,LearnStrategy,2023.2.3,Win32,238.0952381,9,1,12,-0.53125,0.072222222,1,0,0,2.4457,Andesite_02,1,02,4,1,2.446,-0.334027778,-0.229861111,1,0,0,2.5141,Andesite_rect,1,2.514,1,11,0,11,0,1,,,,,,,,,,,,,
64c0a2d8031339ab6ec5e54a,SCN,2024-06-11_13h40.24.527,LearnStrategy,2023.2.3,Win32,238.0952381,9,1,13,0.505555556,-0.094444444,1,0,0,0.9453,Gabbro_15,4,15,3,8,0.945,0.359722222,-0.254861111,1,0,0,0.4337,Gabbro_rect,4,0.434,1,12,0,12,0,1,,,,,,,,,,,,,
64c0a2d8031339ab6ec5e54a,SCN,2024-06-11_13h40.24.527,LearnStrategy,2023.2.3,Win32,238.0952381,9,1,14,0.431944444,-0.236111111,1,0,0,6.2843,Basalt_06,2,06,2,7,6.284,-0.038888889,-0.248611111,1,0,0,1.5561,Basalt_rect,2,1.556,1,13,0,13,0,1,,,,,,,,,,,,,
64c0a2d8031339ab6ec5e54a,SCN,2024-06-11_13h40.24.527,LearnStrategy,2023.2.3,Win32,238.0952381,9,1,15,0.255555556,-0.245833333,1,0,0,1.0496,Basalt_14,2,14,2,6,1.05,0.369444444,-0.386111111,1,0,0,1.6142,Pumice_rect,8,1.614,0,14,0,14,0,1,,,,,,,,,,,,,
64c0a2d8031339ab6ec5e54a,SCN,2024-06-11_13h40.24.527,LearnStrategy,2023.2.3,Win32,238.0952381,9,1,16,0.350694444,-0.257638889,1,0,0,1.1245,Basalt_06,2,06,2,7,1.124,-0.072916667,-0.234722222,1,0,0,0.9054,Basalt_rect,2,0.905,1,15,0,15,0,1,,,,,,,,,,,,,
64c0a2d8031339ab6ec5e54a,SCN,2024-06-11_13h40.24.527,LearnStrategy,2023.2.3,Win32,238.0952381,9,2,1,,,,,,,,3,07,,,,,,,,,,,7,5.196,0,,,,,,0.05,-0.410416667,1,0,0,5.1963,Peridotite_rect,0,0,0,0,1,
64c0a2d8031339ab6ec5e54a,SCN,2024-06-11_13h40.24.527,LearnStrategy,2023.2.3,Win32,238.0952381,9,2,2,,,,,,,,6,09,,,,,,,,,,,6,1.051,1,,,,,,-0.054861111,-0.38125,1,0,0,1.0507,Pegmatite_rect,1,0,1,0,1,
64c0a2d8031339ab6ec5e54a,SCN,2024-06-11_13h40.24.527,LearnStrategy,2023.2.3,Win32,238.0952381,9,2,3,,,,,,,,1,10,,,,,,,,,,,2,5.144,0,,,,,,-0.118055556,-0.255555556,1,0,0,5.1439,Basalt_rect,2,0,2,0,1,
64c0a2d8031339ab6ec5e54a,SCN,2024-06-11_13h40.24.527,LearnStrategy,2023.2.3,Win32,238.0952381,9,2,4,,,,,,,,3,08,,,,,,,,,,,7,9.116,0,,,,,,0.067361111,-0.399305556,1,0,0,9.1157,Peridotite_rect,3,0,3,0,1,
64c0a2d8031339ab6ec5e54a,SCN,2024-06-11_13h40.24.527,LearnStrategy,2023.2.3,Win32,238.0952381,9,2,5,,,,,,,,5,14,,,,,,,,,,,5,0.881,1,,,,,,-0.352777778,-0.413194444,1,0,0,0.8814,Obsidian_rect,4,0,4,0,1,
64c0a2d8031339ab6ec5e54a,SCN,2024-06-11_13h40.24.527,LearnStrategy,2023.2.3,Win32,238.0952381,9,2,6,,,,,,,,7,05,,,,,,,,,,,7,4.479,1,,,,,,0.132638889,-0.388194444,1,0,0,4.4793,Peridotite_rect,5,0,5,0,1,
64c0a2d8031339ab6ec5e54a,SCN,2024-06-11_13h40.24.527,LearnStrategy,2023.2.3,Win32,238.0952381,9,2,7,,,,,,,,6,12,,,,,,,,,,,6,6.481,1,,,,,,-0.04375,-0.400694444,1,0,0,6.4808,Pegmatite_rect,6,0,6,0,1,
64c0a2d8031339ab6ec5e54a,SCN,2024-06-11_13h40.24.527,LearnStrategy,2023.2.3,Win32,238.0952381,9,2,8,,,,,,,,8,06,,,,,,,,,,,8,1.284,1,,,,,,0.39375,-0.398611111,1,0,0,1.2842,Pumice_rect,7,0,7,0,1,
64c0a2d8031339ab6ec5e54a,SCN,2024-06-11_13h40.24.527,LearnStrategy,2023.2.3,Win32,238.0952381,9,2,9,,,,,,,,8,03,,,,,,,,,,,8,0.626,1,,,,,,0.361805556,-0.397222222,1,0,0,0.6261,Pumice_rect,8,0,8,0,1,
64c0a2d8031339ab6ec5e54a,SCN,2024-06-11_13h40.24.527,LearnStrategy,2023.2.3,Win32,238.0952381,9,2,10,,,,,,,,2,10,,,,,,,,,,,2,2.423,1,,,,,,-0.181944444,-0.252083333,1,0,0,2.4229,Basalt_rect,9,0,9,0,1,
64c0a2d8031339ab6ec5e54a,SCN,2024-06-11_13h40.24.527,LearnStrategy,2023.2.3,Win32,238.0952381,9,2,11,,,,,,,,7,16,,,,,,,,,,,4,9.224,0,,,,,,0.370833333,-0.254166667,1,0,0,9.2235,Gabbro_rect,10,0,10,0,1,
64c0a2d8031339ab6ec5e54a,SCN,2024-06-11_13h40.24.527,LearnStrategy,2023.2.3,Win32,238.0952381,9,2,12,,,,,,,,2,05,,,,,,,,,,,2,2.005,1,,,,,,-0.093055556,-0.239583333,1,0,0,2.005,Basalt_rect,11,0,11,0,1,
64c0a2d8031339ab6ec5e54a,SCN,2024-06-11_13h40.24.527,LearnStrategy,2023.2.3,Win32,238.0952381,9,2,13,,,,,,,,1,03,,,,,,,,,,,1,2.214,1,,,,,,-0.36875,-0.247916667,1,0,0,2.2144,Andesite_rect,12,0,12,0,1,
64c0a2d8031339ab6ec5e54a,SCN,2024-06-11_13h40.24.527,LearnStrategy,2023.2.3,Win32,238.0952381,9,2,14,,,,,,,,5,04,,,,,,,,,,,5,0.844,1,,,,,,-0.333333333,-0.390277778,1,0,0,0.8437,Obsidian_rect,13,0,13,0,1,
64c0a2d8031339ab6ec5e54a,SCN,2024-06-11_13h40.24.527,LearnStrategy,2023.2.3,Win32,238.0952381,9,2,15,,,,,,,,4,01,,,,,,,,,,,3,1.94,0,,,,,,0.095833333,-0.249305556,1,0,0,1.9401,Diorite_rect,14,0,14,0,1,
64c0a2d8031339ab6ec5e54a,SCN,2024-06-11_13h40.24.527,LearnStrategy,2023.2.3,Win32,238.0952381,9,2,16,,,,,,,,4,14,,,,,,,,,,,4,1.975,1,,,,,,0.386805556,-0.236111111,1,0,0,1.9754,Gabbro_rect,15,0,15,0,1,
64c0a2d8031339ab6ec5e54a,SCN,2024-06-11_13h40.24.527,LearnStrategy,2023.2.3,Win32,238.0952381,,,,,,,,,,,,,,,,,,,,,,,,,,,,,,,,,,,,,,,,,,,1
64c0a2d8031339ab6ec5e54a,SCN,2024-06-11_13h40.24.527,LearnStrategy,2023.2.3,Win32,238.0952381,,,,,,,,,,,,,,,,,,,,,,,,,,,,,,,,,,,,,,,,,,,
64c0a2d8031339ab6ec5e54a,SCN,2024-06-11_13h40.24.527,LearnStrategy,2023.2.3,Win32,238.0952381,,,,,,,,,,,7,13,1,1,,,,,,,,,,,,,,,,,,,,,,,,,,,,,
64c0a2d8031339ab6ec5e54a,SCN,2024-06-11_13h40.24.527,LearnStrategy,2023.2.3,Win32,238.0952381,,,,,,,,,,,4,03,1,2,,,,,,,,,,,,,,,,,,,,,,,,,,,,,
64c0a2d8031339ab6ec5e54a,SCN,2024-06-11_13h40.24.527,LearnStrategy,2023.2.3,Win32,238.0952381,,,,,,,,,,,6,15,1,3,,,,,,,,,,,,,,,,,,,,,,,,,,,,,
64c0a2d8031339ab6ec5e54a,SCN,2024-06-11_13h40.24.527,LearnStrategy,2023.2.3,Win32,238.0952381,,,,,,,,,,,1,04,1,4,,,,,,,,,,,,,,,,,,,,,,,,,,,,,
64c0a2d8031339ab6ec5e54a,SCN,2024-06-11_13h40.24.527,LearnStrategy,2023.2.3,Win32,238.0952381,,,,,,,,,,,1,14,1,5,,,,,,,,,,,,,,,,,,,,,,,,,,,,,
64c0a2d8031339ab6ec5e54a,SCN,2024-06-11_13h40.24.527,LearnStrategy,2023.2.3,Win32,238.0952381,,,,,,,,,,,6,13,1,6,,,,,,,,,,,,,,,,,,,,,,,,,,,,,
64c0a2d8031339ab6ec5e54a,SCN,2024-06-11_13h40.24.527,LearnStrategy,2023.2.3,Win32,238.0952381,,,,,,,,,,,7,10,1,7,,,,,,,,,,,,,,,,,,,,,,,,,,,,,
64c0a2d8031339ab6ec5e54a,SCN,2024-06-11_13h40.24.527,LearnStrategy,2023.2.3,Win32,238.0952381,,,,,,,,,,,1,09,1,8,,,,,,,,,,,,,,,,,,,,,,,,,,,,,
64c0a2d8031339ab6ec5e54a,SCN,2024-06-11_13h40.24.527,LearnStrategy,2023.2.3,Win32,238.0952381,,,,,,,,,,,6,07,2,1,,,,,,,,,,,,,,,,,,,,,,,,,,,,,
64c0a2d8031339ab6ec5e54a,SCN,2024-06-11_13h40.24.527,LearnStrategy,2023.2.3,Win32,238.0952381,,,,,,,,,,,3,13,2,2,,,,,,,,,,,,,,,,,,,,,,,,,,,,,
64c0a2d8031339ab6ec5e54a,SCN,2024-06-11_13h40.24.527,LearnStrategy,2023.2.3,Win32,238.0952381,,,,,,,,,,,7,07,2,3,,,,,,,,,,,,,,,,,,,,,,,,,,,,,
64c0a2d8031339ab6ec5e54a,SCN,2024-06-11_13h40.24.527,LearnStrategy,2023.2.3,Win32,238.0952381,,,,,,,,,,,3,15,2,4,,,,,,,,,,,,,,,,,,,,,,,,,,,,,
64c0a2d8031339ab6ec5e54a,SCN,2024-06-11_13h40.24.527,LearnStrategy,2023.2.3,Win32,238.0952381,,,,,,,,,,,8,05,2,5,,,,,,,,,,,,,,,,,,,,,,,,,,,,,
64c0a2d8031339ab6ec5e54a,SCN,2024-06-11_13h40.24.527,LearnStrategy,2023.2.3,Win32,238.0952381,,,,,,,,,,,2,14,2,6,,,,,,,,,,,,,,,,,,,,,,,,,,,,,
64c0a2d8031339ab6ec5e54a,SCN,2024-06-11_13h40.24.527,LearnStrategy,2023.2.3,Win32,238.0952381,,,,,,,,,,,2,06,2,7,,,,,,,,,,,,,,,,,,,,,,,,,,,,,
64c0a2d8031339ab6ec5e54a,SCN,2024-06-11_13h40.24.527,LearnStrategy,2023.2.3,Win32,238.0952381,,,,,,,,,,,7,08,2,8,,,,,,,,,,,,,,,,,,,,,,,,,,,,,
64c0a2d8031339ab6ec5e54a,SCN,2024-06-11_13h40.24.527,LearnStrategy,2023.2.3,Win32,238.0952381,,,,,,,,,,,8,13,3,1,,,,,,,,,,,,,,,,,,,,,,,,,,,,,
64c0a2d8031339ab6ec5e54a,SCN,2024-06-11_13h40.24.527,LearnStrategy,2023.2.3,Win32,238.0952381,,,,,,,,,,,3,12,3,2,,,,,,,,,,,,,,,,,,,,,,,,,,,,,
64c0a2d8031339ab6ec5e54a,SCN,2024-06-11_13h40.24.527,LearnStrategy,2023.2.3,Win32,238.0952381,,,,,,,,,,,5,02,3,3,,,,,,,,,,,,,,,,,,,,,,,,,,,,,
64c0a2d8031339ab6ec5e54a,SCN,2024-06-11_13h40.24.527,LearnStrategy,2023.2.3,Win32,238.0952381,,,,,,,,,,,2,02,3,4,,,,,,,,,,,,,,,,,,,,,,,,,,,,,
64c0a2d8031339ab6ec5e54a,SCN,2024-06-11_13h40.24.527,LearnStrategy,2023.2.3,Win32,238.0952381,,,,,,,,,,,7,02,3,5,,,,,,,,,,,,,,,,,,,,,,,,,,,,,
64c0a2d8031339ab6ec5e54a,SCN,2024-06-11_13h40.24.527,LearnStrategy,2023.2.3,Win32,238.0952381,,,,,,,,,,,4,09,3,6,,,,,,,,,,,,,,,,,,,,,,,,,,,,,
64c0a2d8031339ab6ec5e54a,SCN,2024-06-11_13h40.24.527,LearnStrategy,2023.2.3,Win32,238.0952381,,,,,,,,,,,7,12,3,7,,,,,,,,,,,,,,,,,,,,,,,,,,,,,
64c0a2d8031339ab6ec5e54a,SCN,2024-06-11_13h40.24.527,LearnStrategy,2023.2.3,Win32,238.0952381,,,,,,,,,,,4,15,3,8,,,,,,,,,,,,,,,,,,,,,,,,,,,,,
64c0a2d8031339ab6ec5e54a,SCN,2024-06-11_13h40.24.527,LearnStrategy,2023.2.3,Win32,238.0952381,,,,,,,,,,,1,02,4,1,,,,,,,,,,,,,,,,,,,,,,,,,,,,,
64c0a2d8031339ab6ec5e54a,SCN,2024-06-11_13h40.24.527,LearnStrategy,2023.2.3,Win32,238.0952381,,,,,,,,,,,6,03,4,2,,,,,,,,,,,,,,,,,,,,,,,,,,,,,
64c0a2d8031339ab6ec5e54a,SCN,2024-06-11_13h40.24.527,LearnStrategy,2023.2.3,Win32,238.0952381,,,,,,,,,,,5,12,4,3,,,,,,,,,,,,,,,,,,,,,,,,,,,,,
64c0a2d8031339ab6ec5e54a,SCN,2024-06-11_13h40.24.527,LearnStrategy,2023.2.3,Win32,238.0952381,,,,,,,,,,,5,10,4,4,,,,,,,,,,,,,,,,,,,,,,,,,,,,,
64c0a2d8031339ab6ec5e54a,SCN,2024-06-11_13h40.24.527,LearnStrategy,2023.2.3,Win32,238.0952381,,,,,,,,,,,8,10,4,5,,,,,,,,,,,,,,,,,,,,,,,,,,,,,
64c0a2d8031339ab6ec5e54a,SCN,2024-06-11_13h40.24.527,LearnStrategy,2023.2.3,Win32,238.0952381,,,,,,,,,,,6,05,4,6,,,,,,,,,,,,,,,,,,,,,,,,,,,,,
64c0a2d8031339ab6ec5e54a,SCN,2024-06-11_13h40.24.527,LearnStrategy,2023.2.3,Win32,238.0952381,,,,,,,,,,,1,05,4,7,,,,,,,,,,,,,,,,,,,,,,,,,,,,,
64c0a2d8031339ab6ec5e54a,SCN,2024-06-11_13h40.24.527,LearnStrategy,2023.2.3,Win32,238.0952381,,,,,,,,,,,2,11,4,8,,,,,,,,,,,,,,,,,,,,,,,,,,,,,
64c0a2d8031339ab6ec5e54a,SCN,2024-06-11_13h40.24.527,LearnStrategy,2023.2.3,Win32,238.0952381,,,,,,,,,,,5,11,5,1,,,,,,,,,,,,,,,,,,,,,,,,,,,,,
64c0a2d8031339ab6ec5e54a,SCN,2024-06-11_13h40.24.527,LearnStrategy,2023.2.3,Win32,238.0952381,,,,,,,,,,,3,09,5,2,,,,,,,,,,,,,,,,,,,,,,,,,,,,,
64c0a2d8031339ab6ec5e54a,SCN,2024-06-11_13h40.24.527,LearnStrategy,2023.2.3,Win32,238.0952381,,,,,,,,,,,5,05,5,3,,,,,,,,,,,,,,,,,,,,,,,,,,,,,
64c0a2d8031339ab6ec5e54a,SCN,2024-06-11_13h40.24.527,LearnStrategy,2023.2.3,Win32,238.0952381,,,,,,,,,,,2,12,5,4,,,,,,,,,,,,,,,,,,,,,,,,,,,,,
64c0a2d8031339ab6ec5e54a,SCN,2024-06-11_13h40.24.527,LearnStrategy,2023.2.3,Win32,238.0952381,,,,,,,,,,,2,08,5,5,,,,,,,,,,,,,,,,,,,,,,,,,,,,,
64c0a2d8031339ab6ec5e54a,SCN,2024-06-11_13h40.24.527,LearnStrategy,2023.2.3,Win32,238.0952381,,,,,,,,,,,4,11,5,6,,,,,,,,,,,,,,,,,,,,,,,,,,,,,
64c0a2d8031339ab6ec5e54a,SCN,2024-06-11_13h40.24.527,LearnStrategy,2023.2.3,Win32,238.0952381,,,,,,,,,,,8,16,5,7,,,,,,,,,,,,,,,,,,,,,,,,,,,,,
64c0a2d8031339ab6ec5e54a,SCN,2024-06-11_13h40.24.527,LearnStrategy,2023.2.3,Win32,238.0952381,,,,,,,,,,,5,06,5,8,,,,,,,,,,,,,,,,,,,,,,,,,,,,,
64c0a2d8031339ab6ec5e54a,SCN,2024-06-11_13h40.24.527,LearnStrategy,2023.2.3,Win32,238.0952381,,,,,,,,,,,8,04,6,1,,,,,,,,,,,,,,,,,,,,,,,,,,,,,
64c0a2d8031339ab6ec5e54a,SCN,2024-06-11_13h40.24.527,LearnStrategy,2023.2.3,Win32,238.0952381,,,,,,,,,,,1,01,6,2,,,,,,,,,,,,,,,,,,,,,,,,,,,,,
64c0a2d8031339ab6ec5e54a,SCN,2024-06-11_13h40.24.527,LearnStrategy,2023.2.3,Win32,238.0952381,,,,,,,,,,,4,13,6,3,,,,,,,,,,,,,,,,,,,,,,,,,,,,,
64c0a2d8031339ab6ec5e54a,SCN,2024-06-11_13h40.24.527,LearnStrategy,2023.2.3,Win32,238.0952381,,,,,,,,,,,8,15,6,4,,,,,,,,,,,,,,,,,,,,,,,,,,,,,
64c0a2d8031339ab6ec5e54a,SCN,2024-06-11_13h40.24.527,LearnStrategy,2023.2.3,Win32,238.0952381,,,,,,,,,,,6,10,6,5,,,,,,,,,,,,,,,,,,,,,,,,,,,,,
64c0a2d8031339ab6ec5e54a,SCN,2024-06-11_13h40.24.527,LearnStrategy,2023.2.3,Win32,238.0952381,,,,,,,,,,,4,10,6,6,,,,,,,,,,,,,,,,,,,,,,,,,,,,,
64c0a2d8031339ab6ec5e54a,SCN,2024-06-11_13h40.24.527,LearnStrategy,2023.2.3,Win32,238.0952381,,,,,,,,,,,3,06,6,7,,,,,,,,,,,,,,,,,,,,,,,,,,,,,
64c0a2d8031339ab6ec5e54a,SCN,2024-06-11_13h40.24.527,LearnStrategy,2023.2.3,Win32,238.0952381,,,,,,,,,,,3,14,6,8,,,,,,,,,,,,,,,,,,,,,,,,,,,,,