participant,condition,date,expName,psychopyVersion,OS,frameRate,block,phase,trial,learn_mouse_2.x,learn_mouse_2.y,learn_mouse_2.leftButton,learn_mouse_2.midButton,learn_mouse_2.rightButton,learn_mouse_2.time,learn_mouse_2.clicked_name,cat,token,row,col,t_select,cat_mouse_l.x,cat_mouse_l.y,cat_mouse_l.leftButton,cat_mouse_l.midButton,cat_mouse_l.rightButton,cat_mouse_l.time,cat_mouse_l.clicked_name,resp,t_resp,corr,train_trials.thisRepN,train_trials.thisTrialN,train_trials.thisN,train_trials.thisIndex,train_trials.ran,cat_mouse_t.x,cat_mouse_t.y,cat_mouse_t.leftButton,cat_mouse_t.midButton,cat_mouse_t.rightButton,cat_mouse_t.time,cat_mouse_t.clicked_name,test_trials.thisRepN,test_trials.thisTrialN,test_trials.thisN,test_trials.thisIndex,test_trials.ran,Bonus
6509bd2dd6e135ced062c241,TCR,2024-06-24_14h36.15.168,LearnStrategy,2023.2.3,Win32,59.88023952,,,,,,,,,,,,,,,,,,,,,,,,,,,,,,,,,,,,,,,,,,,
6509bd2dd6e135ced062c241,TCR,2024-06-24_14h36.15.168,LearnStrategy,2023.2.3,Win32,59.88023952,1,1,1,0.067592621,-0.006481489,1,0,0,5.9391,rock_grid_rect_2,2,09,-1,-1,5.939,-0.3824074,-0.237037023,1,0,0,47.5137,Andesite_rect,1,47.514,0,0,0,0,0,1,,,,,,,,,,,,,
6509bd2dd6e135ced062c241,TCR,2024-06-24_14h36.15.168,LearnStrategy,2023.2.3,Win32,59.88023952,1,1,2,0.008333347,-0.010185206,1,0,0,2.7111,rock_grid_rect_2,3,11,-1,-1,2.711,-0.167592578,-0.253703718,1,0,0,139.5879,Basalt_rect,2,139.588,0,1,0,1,0,1,,,,,,,,,,,,,
6509bd2dd6e135ced062c241,TCR,2024-06-24_14h36.15.168,LearnStrategy,2023.2.3,Win32,59.88023952,1,1,3,0.025000042,-0.013888889,1,0,0,2.6201,rock_grid_rect_2,1,10,-1,-1,2.62,-0.361111111,-0.24537037,1,0,0,7.7706,Andesite_rect,1,7.771,1,2,0,2,0,1,,,,,,,,,,,,,
6509bd2dd6e135ced062c241,TCR,2024-06-24_14h36.15.168,LearnStrategy,2023.2.3,Win32,59.88023952,1,1,4,0.071296339,0.001851859,1,0,0,1.9032,rock_grid_rect_2,4,08,-1,-1,1.903,0.350000028,-0.407407407,1,0,0,20.9742,Pumice_rect,8,20.974,0,3,0,3,0,1,,,,,,,,,,,,,
6509bd2dd6e135ced062c241,TCR,2024-06-24_14h36.15.168,LearnStrategy,2023.2.3,Win32,59.88023952,1,1,5,-0.000925912,-0.00462963,1,0,0,1.7032,rock_grid_rect_2,8,15,-1,-1,1.703,0.348148205,-0.402777778,1,0,0,4.2067,Pumice_rect,8,4.207,1,4,0,4,0,1,,,,,,,,,,,,,
6509bd2dd6e135ced062c241,TCR,2024-06-24_14h36.15.168,LearnStrategy,2023.2.3,Win32,59.88023952,1,1,6,0.018518519,-0.003703718,1,0,0,1.6873,rock_grid_rect_2,5,12,-1,-1,1.687,0.127777806,-0.398148148,1,0,0,13.4148,Peridotite_rect,7,13.415,0,5,0,5,0,1,,,,,,,,,,,,,
6509bd2dd6e135ced062c241,TCR,2024-06-24_14h36.15.168,LearnStrategy,2023.2.3,Win32,59.88023952,1,1,7,0.02870369,-0.005555577,1,0,0,2.2049,rock_grid_rect_2,7,10,-1,-1,2.205,-0.10092594,-0.240740741,1,0,0,22.6239,Basalt_rect,2,22.624,0,6,0,6,0,1,,,,,,,,,,,,,
6509bd2dd6e135ced062c241,TCR,2024-06-24_14h36.15.168,LearnStrategy,2023.2.3,Win32,59.88023952,1,1,8,0.075925968,0.002777771,1,0,0,1.5902,rock_grid_rect_2,2,02,-1,-1,1.59,0.475926011,-0.260185171,1,0,0,21.1078,Gabbro_rect,4,21.108,0,7,0,7,0,1,,,,,,,,,,,,,
6509bd2dd6e135ced062c241,TCR,2024-06-24_14h36.15.168,LearnStrategy,2023.2.3,Win32,59.88023952,1,1,9,-0.024999972,0.001851859,1,0,0,1.2046,rock_grid_rect_2,7,02,-1,-1,1.205,0.07685188,-0.240740741,1,0,0,8.0864,Diorite_rect,3,8.086,0,8,0,8,0,1,,,,,,,,,,,,,
6509bd2dd6e135ced062c241,TCR,2024-06-24_14h36.15.168,LearnStrategy,2023.2.3,Win32,59.88023952,1,1,10,-0.037962949,-0.000925947,1,0,0,1.2392,rock_grid_rect_2,5,16,-1,-1,1.239,-0.330555563,-0.395370413,1,0,0,6.671,Obsidian_rect,5,6.671,1,9,0,9,0,1,,,,,,,,,,,,,
6509bd2dd6e135ced062c241,TCR,2024-06-24_14h36.15.168,LearnStrategy,2023.2.3,Win32,59.88023952,1,1,11,0.040740755,-0.011111118,1,0,0,1.3449,rock_grid_rect_2,1,11,-1,-1,1.345,0.338888945,-0.250925912,1,0,0,35.5136,Gabbro_rect,4,35.514,0,10,0,10,0,1,,,,,,,,,,,,,
6509bd2dd6e135ced062c241,TCR,2024-06-24_14h36.15.168,LearnStrategy,2023.2.3,Win32,59.88023952,1,1,12,0.075925968,0.003703683,1,0,0,1.3039,rock_grid_rect_2,6,12,-1,-1,1.304,0.12037037,-0.397222236,1,0,0,11.6356,Peridotite_rect,7,11.636,0,11,0,11,0,1,,,,,,,,,,,,,
6509bd2dd6e135ced062c241,TCR,2024-06-24_14h36.15.168,LearnStrategy,2023.2.3,Win32,59.88023952,1,1,13,0.034259302,-0.000925947,1,0,0,1.6718,rock_grid_rect_2,6,05,-1,-1,1.672,-0.363888882,-0.393518519,1,0,0,12.8173,Obsidian_rect,5,12.817,0,12,0,12,0,1,,,,,,,,,,,,,
6509bd2dd6e135ced062c241,TCR,2024-06-24_14h36.15.168,LearnStrategy,2023.2.3,Win32,59.88023952,1,1,14,-0.003703718,0.002777771,1,0,0,1.1555,rock_grid_rect_2,3,07,-1,-1,1.156,0.136111153,-0.255555541,1,0,0,8.0704,Diorite_rect,3,8.07,1,13,0,13,0,1,,,,,,,,,,,,,
6509bd2dd6e135ced062c241,TCR,2024-06-24_14h36.15.168,LearnStrategy,2023.2.3,Win32,59.88023952,1,1,15,0.050000014,-0.009259259,1,0,0,1.2071,rock_grid_rect_2,4,09,-1,-1,1.207,-0.359259252,-0.259259259,1,0,0,5.0246,Andesite_rect,1,5.025,0,14,0,14,0,1,,,,,,,,,,,,,
6509bd2dd6e135ced062c241,TCR,2024-06-24_14h36.15.168,LearnStrategy,2023.2.3,Win32,59.88023952,1,1,16,-0.038888861,0.0074074,1,0,0,1.3215,rock_grid_rect_2,8,05,-1,-1,1.322,0.357407464,-0.391666695,1,0,0,2.3739,Pumice_rect,8,2.374,1,15,0,15,0,1,,,,,,,,,,,,,
6509bd2dd6e135ced062c241,TCR,2024-06-24_14h36.15.168,LearnStrategy,2023.2.3,Win32,59.88023952,1,2,1,,,,,,,,6,16,,,,,,,,,,,6,30.381,1,,,,,,-0.104629587,-0.40370369,1,0,0,30.3808,Pegmatite_rect,0,0,0,0,1,
6509bd2dd6e135ced062c241,TCR,2024-06-24_14h36.15.168,LearnStrategy,2023.2.3,Win32,59.88023952,1,2,2,,,,,,,,2,16,,,,,,,,,,,8,7.102,0,,,,,,0.422222279,-0.400000042,1,0,0,7.1017,Pumice_rect,1,0,1,0,1,
6509bd2dd6e135ced062c241,TCR,2024-06-24_14h36.15.168,LearnStrategy,2023.2.3,Win32,59.88023952,1,2,3,,,,,,,,2,05,,,,,,,,,,,2,26.219,1,,,,,,-0.10092594,-0.249074088,1,0,0,26.2189,Basalt_rect,2,0,2,0,1,
6509bd2dd6e135ced062c241,TCR,2024-06-24_14h36.15.168,LearnStrategy,2023.2.3,Win32,59.88023952,1,2,4,,,,,,,,5,08,,,,,,,,,,,5,5.62,1,,,,,,-0.328703704,-0.388888889,1,0,0,5.6204,Obsidian_rect,3,0,3,0,1,
6509bd2dd6e135ced062c241,TCR,2024-06-24_14h36.15.168,LearnStrategy,2023.2.3,Win32,59.88023952,1,2,5,,,,,,,,7,14,,,,,,,,,,,7,22.208,1,,,,,,0.125,-0.39444443,1,0,0,22.2079,Peridotite_rect,4,0,4,0,1,
6509bd2dd6e135ced062c241,TCR,2024-06-24_14h36.15.168,LearnStrategy,2023.2.3,Win32,59.88023952,1,2,6,,,,,,,,7,06,,,,,,,,,,,6,15.695,0,,,,,,-0.076851809,-0.391666695,1,0,0,15.6945,Pegmatite_rect,5,0,5,0,1,
6509bd2dd6e135ced062c241,TCR,2024-06-24_14h36.15.168,LearnStrategy,2023.2.3,Win32,59.88023952,1,2,7,,,,,,,,8,13,,,,,,,,,,,8,5.487,1,,,,,,0.307407379,-0.384259259,1,0,0,5.4871,Pumice_rect,6,0,6,0,1,
6509bd2dd6e135ced062c241,TCR,2024-06-24_14h36.15.168,LearnStrategy,2023.2.3,Win32,59.88023952,1,2,8,,,,,,,,3,09,,,,,,,,,,,3,21.789,1,,,,,,0.15370369,-0.238888917,1,0,0,21.7893,Diorite_rect,7,0,7,0,1,
6509bd2dd6e135ced062c241,TCR,2024-06-24_14h36.15.168,LearnStrategy,2023.2.3,Win32,59.88023952,1,2,9,,,,,,,,1,04,,,,,,,,,,,1,30.932,1,,,,,,-0.333333333,-0.25,1,0,0,30.9317,Andesite_rect,8,0,8,0,1,
6509bd2dd6e135ced062c241,TCR,2024-06-24_14h36.15.168,LearnStrategy,2023.2.3,Win32,59.88023952,1,2,10,,,,,,,,8,02,,,,,,,,,,,8,1.756,1,,,,,,0.42777775,-0.405555584,1,0,0,1.7559,Pumice_rect,9,0,9,0,1,
6509bd2dd6e135ced062c241,TCR,2024-06-24_14h36.15.168,LearnStrategy,2023.2.3,Win32,59.88023952,1,2,11,,,,,,,,1,14,,,,,,,,,,,3,11.398,0,,,,,,0.097222222,-0.236111111,1,0,0,11.3982,Diorite_rect,10,0,10,0,1,
6509bd2dd6e135ced062c241,TCR,2024-06-24_14h36.15.168,LearnStrategy,2023.2.3,Win32,59.88023952,1,2,12,,,,,,,,4,13,,,,,,,,,,,7,24.171,0,,,,,,0.05740745,-0.405555584,1,0,0,24.1709,Peridotite_rect,11,0,11,0,1,
6509bd2dd6e135ced062c241,TCR,2024-06-24_14h36.15.168,LearnStrategy,2023.2.3,Win32,59.88023952,1,2,13,,,,,,,,3,10,,,,,,,,,,,3,14.278,1,,,,,,0.084259245,-0.249074088,1,0,0,14.2782,Diorite_rect,12,0,12,0,1,
6509bd2dd6e135ced062c241,TCR,2024-06-24_14h36.15.168,LearnStrategy,2023.2.3,Win32,59.88023952,1,2,14,,,,,,,,6,07,,,,,,,,,,,1,12.051,0,,,,,,-0.390740748,-0.253703718,1,0,0,12.0508,Andesite_rect,13,0,13,0,1,
6509bd2dd6e135ced062c241,TCR,2024-06-24_14h36.15.168,LearnStrategy,2023.2.3,Win32,59.88023952,1,2,15,,,,,,,,5,10,,,,,,,,,,,5,1.809,1,,,,,,-0.364814794,-0.412962949,1,0,0,1.8085,Obsidian_rect,14,0,14,0,1,
6509bd2dd6e135ced062c241,TCR,2024-06-24_14h36.15.168,LearnStrategy,2023.2.3,Win32,59.88023952,1,2,16,,,,,,,,4,15,,,,,,,,,,,1,5.723,0,,,,,,-0.375925912,-0.246296282,1,0,0,5.7234,Andesite_rect,15,0,15,0,1,
6509bd2dd6e135ced062c241,TCR,2024-06-24_14h36.15.168,LearnStrategy,2023.2.3,Win32,59.88023952,2,1,1,-0.057407379,-0.006481489,1,0,0,1.7627,rock_grid_rect_2,1,06,-1,-1,1.763,-0.351851852,-0.233333376,1,0,0,16.0983,Andesite_rect,1,16.098,1,0,0,0,0,1,,,,,,,,,,,,,
6509bd2dd6e135ced062c241,TCR,2024-06-24_14h36.15.168,LearnStrategy,2023.2.3,Win32,59.88023952,2,1,2,0.001851894,-0.002777771,1,0,0,1.1868,rock_grid_rect_2,6,12,-1,-1,1.187,-0.069444444,-0.383333347,1,0,0,16.7296,Pegmatite_rect,6,16.73,1,1,0,1,0,1,,,,,,,,,,,,,
6509bd2dd6e135ced062c241,TCR,2024-06-24_14h36.15.168,LearnStrategy,2023.2.3,Win32,59.88023952,2,1,3,-0.016666624,-0.018518519,1,0,0,1.1619,rock_grid_rect_2,2,04,-1,-1,1.162,-0.077777792,-0.240740741,1,0,0,9.2374,Basalt_rect,2,9.237,1,2,0,2,0,1,,,,,,,,,,,,,
6509bd2dd6e135ced062c241,TCR,2024-06-24_14h36.15.168,LearnStrategy,2023.2.3,Win32,59.88023952,2,1,4,-0.01944443,-0.014814836,1,0,0,1.4118,rock_grid_rect_2,8,15,-1,-1,1.412,0.358333305,-0.410185213,1,0,0,1.7763,Pumice_rect,8,1.776,1,3,0,3,0,1,,,,,,,,,,,,,
6509bd2dd6e135ced062c241,TCR,2024-06-24_14h36.15.168,LearnStrategy,2023.2.3,Win32,59.88023952,2,1,5,-0.000925912,-0.01666666,1,0,0,1.0952,rock_grid_rect_2,7,02,-1,-1,1.095,0.104629658,-0.414814843,1,0,0,6.0908,Peridotite_rect,7,6.091,1,4,0,4,0,1,,,,,,,,,,,,,
6509bd2dd6e135ced062c241,TCR,2024-06-24_14h36.15.168,LearnStrategy,2023.2.3,Win32,59.88023952,2,1,6,-0.076851809,-0.01666666,1,0,0,1.5789,rock_grid_rect_2,4,14,-1,-1,1.579,0.424074102,-0.258333347,1,0,0,26.3863,Gabbro_rect,4,26.386,1,5,0,5,0,1,,,,,,,,,,,,,
6509bd2dd6e135ced062c241,TCR,2024-06-24_14h36.15.168,LearnStrategy,2023.2.3,Win32,59.88023952,2,1,7,0.016666695,-0.01203703,1,0,0,1.221,rock_grid_rect_2,4,14,-1,-1,1.221,0.329629686,-0.248148176,1,0,0,2.3097,Gabbro_rect,4,2.31,1,6,0,6,0,1,,,,,,,,,,,,,
6509bd2dd6e135ced062c241,TCR,2024-06-24_14h36.15.168,LearnStrategy,2023.2.3,Win32,59.88023952,2,1,8,0.025925954,-0.010185206,1,0,0,1.4285,rock_grid_rect_2,1,01,-1,-1,1.428,0.312962991,-0.23055557,1,0,0,11.4006,Gabbro_rect,4,11.401,0,7,0,7,0,1,,,,,,,,,,,,,
6509bd2dd6e135ced062c241,TCR,2024-06-24_14h36.15.168,LearnStrategy,2023.2.3,Win32,59.88023952,2,1,9,-0.025925884,-0.017592607,1,0,0,1.5303,rock_grid_rect_2,6,10,-1,-1,1.53,-0.04814812,-0.401851866,1,0,0,8.586,Pegmatite_rect,6,8.586,1,8,0,8,0,1,,,,,,,,,,,,,
6509bd2dd6e135ced062c241,TCR,2024-06-24_14h36.15.168,LearnStrategy,2023.2.3,Win32,59.88023952,2,1,10,-0.06759255,0.009259259,1,0,0,1.4709,rock_grid_rect_2,1,01,-1,-1,1.471,0.413888861,-0.263888889,1,0,0,3.8407,Gabbro_rect,4,3.841,0,9,0,9,0,1,,,,,,,,,,,,,
6509bd2dd6e135ced062c241,TCR,2024-06-24_14h36.15.168,LearnStrategy,2023.2.3,Win32,59.88023952,2,1,11,-0.04814812,0.012962942,1,0,0,1.2294,rock_grid_rect_2,4,01,-1,-1,1.229,-0.348148134,-0.25462963,1,0,0,12.9333,Andesite_rect,1,12.933,0,10,0,10,0,1,,,,,,,,,,,,,
6509bd2dd6e135ced062c241,TCR,2024-06-24_14h36.15.168,LearnStrategy,2023.2.3,Win32,59.88023952,2,1,12,-0.016666624,-0.003703718,1,0,0,1.2089,rock_grid_rect_2,4,08,-1,-1,1.209,-0.333333333,-0.237963005,1,0,0,14.1459,Andesite_rect,1,14.146,0,11,0,11,0,1,,,,,,,,,,,,,
6509bd2dd6e135ced062c241,TCR,2024-06-24_14h36.15.168,LearnStrategy,2023.2.3,Win32,59.88023952,2,1,13,0.054629644,-0.011111118,1,0,0,1.895,rock_grid_rect_2,7,10,-1,-1,1.895,0.107407393,-0.412962949,1,0,0,12.4845,Peridotite_rect,7,12.485,1,12,0,12,0,1,,,,,,,,,,,,,
6509bd2dd6e135ced062c241,TCR,2024-06-24_14h36.15.168,LearnStrategy,2023.2.3,Win32,59.88023952,2,1,14,-0.054629644,-0.006481489,1,0,0,1.4452,rock_grid_rect_2,3,08,-1,-1,1.445,0.155555584,-0.234259288,1,0,0,11.334,Diorite_rect,3,11.334,1,13,0,13,0,1,,,,,,,,,,,,,
6509bd2dd6e135ced062c241,TCR,2024-06-24_14h36.15.168,LearnStrategy,2023.2.3,Win32,59.88023952,2,1,15,-0.030555513,-0.013888889,1,0,0,1.3622,rock_grid_rect_2,2,10,-1,-1,1.362,-0.083333333,-0.247222265,1,0,0,14.0172,Basalt_rect,2,14.017,1,14,0,14,0,1,,,,,,,,,,,,,
6509bd2dd6e135ced062c241,TCR,2024-06-24_14h36.15.168,LearnStrategy,2023.2.3,Win32,59.88023952,2,1,16,0.026851866,-0.015740748,1,0,0,1.1454,rock_grid_rect_2,7,07,-1,-1,1.145,0.123148176,-0.390740783,1,0,0,9.4696,Peridotite_rect,7,9.47,1,15,0,15,0,1,,,,,,,,,,,,,
6509bd2dd6e135ced062c241,TCR,2024-06-24_14h36.15.168,LearnStrategy,2023.2.3,Win32,59.88023952,2,2,1,,,,,,,,8,03,,,,,,,,,,,8,2.456,1,,,,,,0.37962963,-0.412037037,1,0,0,2.4561,Pumice_rect,0,0,0,0,1,
6509bd2dd6e135ced062c241,TCR,2024-06-24_14h36.15.168,LearnStrategy,2023.2.3,Win32,59.88023952,2,2,2,,,,,,,,6,11,,,,,,,,,,,1,23.472,0,,,,,,-0.351851852,-0.25462963,1,0,0,23.4722,Andesite_rect,1,0,1,0,1,
6509bd2dd6e135ced062c241,TCR,2024-06-24_14h36.15.168,LearnStrategy,2023.2.3,Win32,59.88023952,2,2,3,,,,,,,,8,10,,,,,,,,,,,8,2.072,1,,,,,,0.315740797,-0.391666695,1,0,0,2.0725,Pumice_rect,2,0,2,0,1,
6509bd2dd6e135ced062c241,TCR,2024-06-24_14h36.15.168,LearnStrategy,2023.2.3,Win32,59.88023952,2,2,4,,,,,,,,7,04,,,,,,,,,,,4,7.838,0,,,,,,0.437962991,-0.262037065,1,0,0,7.8379,Gabbro_rect,3,0,3,0,1,
6509bd2dd6e135ced062c241,TCR,2024-06-24_14h36.15.168,LearnStrategy,2023.2.3,Win32,59.88023952,2,2,5,,,,,,,,4,12,,,,,,,,,,,4,4.455,1,,,,,,0.414814843,-0.263888889,1,0,0,4.4546,Gabbro_rect,4,0,4,0,1,
6509bd2dd6e135ced062c241,TCR,2024-06-24_14h36.15.168,LearnStrategy,2023.2.3,Win32,59.88023952,2,2,6,,,,,,,,7,12,,,,,,,,,,,7,11.298,1,,,,,,0.062037079,-0.411111125,1,0,0,11.2981,Peridotite_rect,5,0,5,0,1,
6509bd2dd6e135ced062c241,TCR,2024-06-24_14h36.15.168,LearnStrategy,2023.2.3,Win32,59.88023952,2,2,7,,,,,,,,2,11,,,,,,,,,,,8,3.288,0,,,,,,0.320370427,-0.402777778,1,0,0,3.2884,Pumice_rect,6,0,6,0,1,
6509bd2dd6e135ced062c241,TCR,2024-06-24_14h36.15.168,LearnStrategy,2023.2.3,Win32,59.88023952,2,2,8,,,,,,,,6,06,,,,,,,,,,,6,20.841,1,,,,,,-0.082407422,-0.408333319,1,0,0,20.8406,Pegmatite_rect,7,0,7,0,1,
6509bd2dd6e135ced062c241,TCR,2024-06-24_14h36.15.168,LearnStrategy,2023.2.3,Win32,59.88023952,2,2,9,,,,,,,,5,07,,,,,,,,,,,5,3.322,1,,,,,,-0.353703711,-0.401851866,1,0,0,3.322,Obsidian_rect,8,0,8,0,1,
6509bd2dd6e135ced062c241,TCR,2024-06-24_14h36.15.168,LearnStrategy,2023.2.3,Win32,59.88023952,2,2,10,,,,,,,,3,06,,,,,,,,,,,3,15.827,1,,,,,,0.087037051,-0.252777806,1,0,0,15.8273,Diorite_rect,9,0,9,0,1,
6509bd2dd6e135ced062c241,TCR,2024-06-24_14h36.15.168,LearnStrategy,2023.2.3,Win32,59.88023952,2,2,11,,,,,,,,3,14,,,,,,,,,,,3,2.756,1,,,,,,0.126851894,-0.250925912,1,0,0,2.7558,Diorite_rect,10,0,10,0,1,
6509bd2dd6e135ced062c241,TCR,2024-06-24_14h36.15.168,LearnStrategy,2023.2.3,Win32,59.88023952,2,2,12,,,,,,,,1,09,,,,,,,,,,,1,5.357,1,,,,,,-0.337962963,-0.258333347,1,0,0,5.3567,Andesite_rect,11,0,11,0,1,
6509bd2dd6e135ced062c241,TCR,2024-06-24_14h36.15.168,LearnStrategy,2023.2.3,Win32,59.88023952,2,2,13,,,,,,,,4,11,,,,,,,,,,,4,4.87,1,,,,,,0.369444529,-0.260185171,1,0,0,4.8705,Gabbro_rect,12,0,12,0,1,
6509bd2dd6e135ced062c241,TCR,2024-06-24_14h36.15.168,LearnStrategy,2023.2.3,Win32,59.88023952,2,2,14,,,,,,,,1,03,,,,,,,,,,,1,6.488,1,,,,,,-0.338888875,-0.258333347,1,0,0,6.488,Andesite_rect,13,0,13,0,1,
6509bd2dd6e135ced062c241,TCR,2024-06-24_14h36.15.168,LearnStrategy,2023.2.3,Win32,59.88023952,2,2,15,,,,,,,,5,09,,,,,,,,,,,5,1.189,1,,,,,,-0.363888882,-0.39907406,1,0,0,1.189,Obsidian_rect,14,0,14,0,1,
6509bd2dd6e135ced062c241,TCR,2024-06-24_14h36.15.168,LearnStrategy,2023.2.3,Win32,59.88023952,2,2,16,,,,,,,,2,12,,,,,,,,,,,1,9.185,0,,,,,,-0.431481467,-0.250925912,1,0,0,9.185,Andesite_rect,15,0,15,0,1,
6509bd2dd6e135ced062c241,TCR,2024-06-24_14h36.15.168,LearnStrategy,2023.2.3,Win32,59.88023952,3,1,1,0.032407407,0.013888889,1,0,0,1.662,rock_grid_rect_2,6,08,-1,-1,1.662,-0.098148134,-0.386111153,1,0,0,37.1775,Pegmatite_rect,6,37.178,1,0,0,0,0,1,,,,,,,,,,,,,
6509bd2dd6e135ced062c241,TCR,2024-06-24_14h36.15.168,LearnStrategy,2023.2.3,Win32,59.88023952,3,1,2,0.020370413,-0.002777771,1,0,0,1.3613,rock_grid_rect_2,7,10,-1,-1,1.361,0.077777792,-0.386111153,1,0,0,22.6891,Peridotite_rect,7,22.689,1,1,0,1,0,1,,,,,,,,,,,,,
6509bd2dd6e135ced062c241,TCR,2024-06-24_14h36.15.168,LearnStrategy,2023.2.3,Win32,59.88023952,3,1,3,-0.037037037,-0.009259259,1,0,0,1.1807,rock_grid_rect_2,6,15,-1,-1,1.181,-0.080555527,-0.411111125,1,0,0,7.3873,Pegmatite_rect,6,7.387,1,2,0,2,0,1,,,,,,,,,,,,,
6509bd2dd6e135ced062c241,TCR,2024-06-24_14h36.15.168,LearnStrategy,2023.2.3,Win32,59.88023952,3,1,4,-0.039814772,-0.021296289,1,0,0,1.4465,rock_grid_rect_2,2,04,-1,-1,1.447,0.366666723,-0.241666653,1,0,0,3.4744,Gabbro_rect,4,3.474,0,3,0,3,0,1,,,,,,,,,,,,,
6509bd2dd6e135ced062c241,TCR,2024-06-24_14h36.15.168,LearnStrategy,2023.2.3,Win32,59.88023952,3,1,5,0.012037065,-0.017592607,1,0,0,1.5282,rock_grid_rect_2,2,09,-1,-1,1.528,0.334259316,-0.233333376,1,0,0,1.9267,Gabbro_rect,4,1.927,0,4,0,4,0,1,,,,,,,,,,,,,
6509bd2dd6e135ced062c241,TCR,2024-06-24_14h36.15.168,LearnStrategy,2023.2.3,Win32,59.88023952,3,1,6,-0.062962921,-0.01666666,1,0,0,1.2944,rock_grid_rect_2,2,02,-1,-1,1.294,0.395370342,-0.240740741,1,0,0,3.5242,Gabbro_rect,4,3.524,0,5,0,5,0,1,,,,,,,,,,,,,
6509bd2dd6e135ced062c241,TCR,2024-06-24_14h36.15.168,LearnStrategy,2023.2.3,Win32,59.88023952,3,1,7,-0.039814772,-0.019444466,1,0,0,1.0294,rock_grid_rect_2,4,08,-1,-1,1.029,0.413888861,-0.240740741,1,0,0,15.1308,Gabbro_rect,4,15.131,1,6,0,6,0,1,,,,,,,,,,,,,
6509bd2dd6e135ced062c241,TCR,2024-06-24_14h36.15.168,LearnStrategy,2023.2.3,Win32,59.88023952,3,1,8,-0.001851824,0.000925912,1,0,0,1.3125,rock_grid_rect_2,1,02,-1,-1,1.313,-0.361111111,-0.24537037,1,0,0,5.7723,Andesite_rect,1,5.772,1,7,0,7,0,1,,,,,,,,,,,,,
6509bd2dd6e135ced062c241,TCR,2024-06-24_14h36.15.168,LearnStrategy,2023.2.3,Win32,59.88023952,3,1,9,-0.023148148,-0.0074074,1,0,0,1.5134,rock_grid_rect_2,6,05,-1,-1,1.513,-0.058333291,-0.39907406,1,0,0,15.6962,Pegmatite_rect,6,15.696,1,8,0,8,0,1,,,,,,,,,,,,,
6509bd2dd6e135ced062c241,TCR,2024-06-24_14h36.15.168,LearnStrategy,2023.2.3,Win32,59.88023952,3,1,10,0.056481467,-0.009259259,1,0,0,1.2079,rock_grid_rect_2,1,11,-1,-1,1.208,-0.346296275,-0.24537037,1,0,0,16.261,Andesite_rect,1,16.261,1,9,0,9,0,1,,,,,,,,,,,,,
6509bd2dd6e135ced062c241,TCR,2024-06-24_14h36.15.168,LearnStrategy,2023.2.3,Win32,59.88023952,3,1,11,0.005555541,0.00462963,1,0,0,1.2789,rock_grid_rect_2,7,05,-1,-1,1.279,0.103703746,-0.404629672,1,0,0,15.3484,Peridotite_rect,7,15.348,1,10,0,10,0,1,,,,,,,,,,,,,
6509bd2dd6e135ced062c241,TCR,2024-06-24_14h36.15.168,LearnStrategy,2023.2.3,Win32,59.88023952,3,1,12,-0.127777735,-0.012962977,1,0,0,1.5125,rock_grid_rect_2,7,13,-1,-1,1.513,0.131481524,-0.381481524,1,0,0,3.2397,Peridotite_rect,7,3.24,1,11,0,11,0,1,,,,,,,,,,,,,
6509bd2dd6e135ced062c241,TCR,2024-06-24_14h36.15.168,LearnStrategy,2023.2.3,Win32,59.88023952,3,1,13,0.00462963,-0.01666666,1,0,0,1.3125,rock_grid_rect_2,3,11,-1,-1,1.313,0.116666653,-0.262962977,1,0,0,7.5703,Diorite_rect,3,7.57,1,12,0,12,0,1,,,,,,,,,,,,,
6509bd2dd6e135ced062c241,TCR,2024-06-24_14h36.15.168,LearnStrategy,2023.2.3,Win32,59.88023952,3,1,14,-0.00462963,-0.011111118,1,0,0,1.3283,rock_grid_rect_2,8,04,-1,-1,1.328,0.350926011,-0.405555584,1,0,0,2.3405,Pumice_rect,8,2.341,1,13,0,13,0,1,,,,,,,,,,,,,
6509bd2dd6e135ced062c241,TCR,2024-06-24_14h36.15.168,LearnStrategy,2023.2.3,Win32,59.88023952,3,1,15,0.020370413,-0.0074074,1,0,0,1.1288,rock_grid_rect_2,4,16,-1,-1,1.129,0.376851824,-0.258333347,1,0,0,13.1488,Gabbro_rect,4,13.149,1,14,0,14,0,1,,,,,,,,,,,,,
6509bd2dd6e135ced062c241,TCR,2024-06-24_14h36.15.168,LearnStrategy,2023.2.3,Win32,59.88023952,3,1,16,0.003703718,-0.008333347,1,0,0,1.2618,rock_grid_rect_2,2,02,-1,-1,1.262,-0.066666638,-0.23055557,1,0,0,8.7706,Basalt_rect,2,8.771,1,15,0,15,0,1,,,,,,,,,,,,,
6509bd2dd6e135ced062c241,TCR,2024-06-24_14h36.15.168,LearnStrategy,2023.2.3,Win32,59.88023952,3,2,1,,,,,,,,5,14,,,,,,,,,,,5,1.59,1,,,,,,-0.362037023,-0.404629672,1,0,0,1.5897,Obsidian_rect,0,0,0,0,1,
6509bd2dd6e135ced062c241,TCR,2024-06-24_14h36.15.168,LearnStrategy,2023.2.3,Win32,59.88023952,3,2,2,,,,,,,,8,06,,,,,,,,,,,8,1.66,1,,,,,,0.346296381,-0.388888889,1,0,0,1.66,Pumice_rect,1,0,1,0,1,
6509bd2dd6e135ced062c241,TCR,2024-06-24_14h36.15.168,LearnStrategy,2023.2.3,Win32,59.88023952,3,2,3,,,,,,,,6,13,,,,,,,,,,,7,13.247,0,,,,,,0.139814801,-0.393518519,1,0,0,13.2472,Peridotite_rect,2,0,2,0,1,
6509bd2dd6e135ced062c241,TCR,2024-06-24_14h36.15.168,LearnStrategy,2023.2.3,Win32,59.88023952,3,2,4,,,,,,,,8,16,,,,,,,,,,,8,1.856,1,,,,,,0.304629714,-0.411111125,1,0,0,1.856,Pumice_rect,3,0,3,0,1,
6509bd2dd6e135ced062c241,TCR,2024-06-24_14h36.15.168,LearnStrategy,2023.2.3,Win32,59.88023952,3,2,5,,,,,,,,2,08,,,,,,,,,,,2,17.229,1,,,,,,-0.117592564,-0.241666653,1,0,0,17.229,Basalt_rect,4,0,4,0,1,
6509bd2dd6e135ced062c241,TCR,2024-06-24_14h36.15.168,LearnStrategy,2023.2.3,Win32,59.88023952,3,2,6,,,,,,,,7,08,,,,,,,,,,,7,7.088,1,,,,,,0.089814857,-0.385185171,1,0,0,7.0878,Peridotite_rect,5,0,5,0,1,
6509bd2dd6e135ced062c241,TCR,2024-06-24_14h36.15.168,LearnStrategy,2023.2.3,Win32,59.88023952,3,2,7,,,,,,,,4,05,,,,,,,,,,,7,6.953,0,,,,,,0.097222222,-0.409259302,1,0,0,6.9526,Peridotite_rect,6,0,6,0,1,
6509bd2dd6e135ced062c241,TCR,2024-06-24_14h36.15.168,LearnStrategy,2023.2.3,Win32,59.88023952,3,2,8,,,,,,,,2,01,,,,,,,,,,,2,4.622,1,,,,,,-0.039814772,-0.250925912,1,0,0,4.6218,Basalt_rect,7,0,7,0,1,
6509bd2dd6e135ced062c241,TCR,2024-06-24_14h36.15.168,LearnStrategy,2023.2.3,Win32,59.88023952,3,2,9,,,,,,,,3,02,,,,,,,,,,,3,8.868,1,,,,,,0.056481467,-0.262962977,1,0,0,8.8681,Diorite_rect,8,0,8,0,1,
6509bd2dd6e135ced062c241,TCR,2024-06-24_14h36.15.168,LearnStrategy,2023.2.3,Win32,59.88023952,3,2,10,,,,,,,,1,07,,,,,,,,,,,3,2.457,0,,,,,,0.074074074,-0.257407436,1,0,0,2.4567,Diorite_rect,9,0,9,0,1,
6509bd2dd6e135ced062c241,TCR,2024-06-24_14h36.15.168,LearnStrategy,2023.2.3,Win32,59.88023952,3,2,11,,,,,,,,5,04,,,,,,,,,,,5,1.424,1,,,,,,-0.329629616,-0.397222236,1,0,0,1.424,Obsidian_rect,10,0,10,0,1,
6509bd2dd6e135ced062c241,TCR,2024-06-24_14h36.15.168,LearnStrategy,2023.2.3,Win32,59.88023952,3,2,12,,,,,,,,4,10,,,,,,,,,,,4,22.489,1,,,,,,0.317592621,-0.248148176,1,0,0,22.4887,Gabbro_rect,11,0,11,0,1,
6509bd2dd6e135ced062c241,TCR,2024-06-24_14h36.15.168,LearnStrategy,2023.2.3,Win32,59.88023952,3,2,13,,,,,,,,1,16,,,,,,,,,,,3,6.068,0,,,,,,0.054629644,-0.257407436,1,0,0,6.0678,Diorite_rect,12,0,12,0,1,
6509bd2dd6e135ced062c241,TCR,2024-06-24_14h36.15.168,LearnStrategy,2023.2.3,Win32,59.88023952,3,2,14,,,,,,,,7,15,,,,,,,,,,,7,7.335,1,,,,,,0.05740745,-0.391666695,1,0,0,7.3353,Peridotite_rect,13,0,13,0,1,
6509bd2dd6e135ced062c241,TCR,2024-06-24_14h36.15.168,LearnStrategy,2023.2.3,Win32,59.88023952,3,2,15,,,,,,,,3,12,,,,,,,,,,,3,8.518,1,,,,,,0.090740769,-0.261111153,1,0,0,8.5176,Diorite_rect,14,0,14,0,1,
6509bd2dd6e135ced062c241,TCR,2024-06-24_14h36.15.168,LearnStrategy,2023.2.3,Win32,59.88023952,3,2,16,,,,,,,,6,09,,,,,,,,,,,7,14.879,0,,,,,,0.094444487,-0.400000042,1,0,0,14.8792,Peridotite_rect,15,0,15,0,1,
6509bd2dd6e135ced062c241,TCR,2024-06-24_14h36.15.168,LearnStrategy,2023.2.3,Win32,59.88023952,4,1,1,0.111111111,0,1,0,0,2.6457,rock_grid_rect_2,2,14,-1,-1,2.646,0.363888917,-0.255555541,1,0,0,17.1631,Gabbro_rect,4,17.163,0,0,0,0,0,1,,,,,,,,,,,,,
6509bd2dd6e135ced062c241,TCR,2024-06-24_14h36.15.168,LearnStrategy,2023.2.3,Win32,59.88023952,4,1,2,0.029629672,0.013888889,1,0,0,1.8032,rock_grid_rect_2,1,06,-1,-1,1.803,0.347222222,-0.253703718,1,0,0,8.6524,Gabbro_rect,4,8.652,0,1,0,1,0,1,,,,,,,,,,,,,
6509bd2dd6e135ced062c241,TCR,2024-06-24_14h36.15.168,LearnStrategy,2023.2.3,Win32,59.88023952,4,1,3,0.045370384,0,1,0,0,1.6041,rock_grid_rect_2,6,15,-1,-1,1.604,-0.111111111,-0.397222236,1,0,0,6.639,Pegmatite_rect,6,6.639,1,2,0,2,0,1,,,,,,,,,,,,,
6509bd2dd6e135ced062c241,TCR,2024-06-24_14h36.15.168,LearnStrategy,2023.2.3,Win32,59.88023952,4,1,4,0.058333362,-0.019444466,1,0,0,1.4123,rock_grid_rect_2,7,10,-1,-1,1.412,0.098148134,-0.389814801,1,0,0,4.9898,Peridotite_rect,7,4.99,1,3,0,3,0,1,,,,,,,,,,,,,
6509bd2dd6e135ced062c241,TCR,2024-06-24_14h36.15.168,LearnStrategy,2023.2.3,Win32,59.88023952,4,1,5,0.040740755,0,1,0,0,1.1548,rock_grid_rect_2,5,02,-1,-1,1.155,-0.396296289,-0.392592607,1,0,0,2.1586,Obsidian_rect,5,2.159,1,4,0,4,0,1,,,,,,,,,,,,,
6509bd2dd6e135ced062c241,TCR,2024-06-24_14h36.15.168,LearnStrategy,2023.2.3,Win32,59.88023952,4,1,6,-0.04351849,-0.01203703,1,0,0,1.1617,rock_grid_rect_2,3,07,-1,-1,1.162,0.110185199,-0.238888917,1,0,0,8.1381,Diorite_rect,3,8.138,1,5,0,5,0,1,,,,,,,,,,,,,
6509bd2dd6e135ced062c241,TCR,2024-06-24_14h36.15.168,LearnStrategy,2023.2.3,Win32,59.88023952,4,1,7,-0.127777735,-0.011111118,1,0,0,0.9959,rock_grid_rect_2,7,05,-1,-1,0.996,-0.346296275,-0.23055557,1,0,0,5.9709,Andesite_rect,1,5.971,0,6,0,6,0,1,,,,,,,,,,,,,
6509bd2dd6e135ced062c241,TCR,2024-06-24_14h36.15.168,LearnStrategy,2023.2.3,Win32,59.88023952,4,1,8,0.02870369,0.001851859,1,0,0,1.7219,rock_grid_rect_2,1,02,-1,-1,1.722,-0.172222208,-0.390740783,1,0,0,23.841,Pegmatite_rect,6,23.841,0,7,0,7,0,1,,,,,,,,,,,,,
6509bd2dd6e135ced062c241,TCR,2024-06-24_14h36.15.168,LearnStrategy,2023.2.3,Win32,59.88023952,4,1,9,0.049074102,-0.013888889,1,0,0,1.5874,rock_grid_rect_2,2,14,-1,-1,1.587,-0.134259259,-0.244444459,1,0,0,7.2726,Basalt_rect,2,7.273,1,8,0,8,0,1,,,,,,,,,,,,,
6509bd2dd6e135ced062c241,TCR,2024-06-24_14h36.15.168,LearnStrategy,2023.2.3,Win32,59.88023952,4,1,10,-0.022222236,-0.003703718,1,0,0,1.0803,rock_grid_rect_2,1,05,-1,-1,1.08,0.375,-0.237963005,1,0,0,5.9876,Gabbro_rect,4,5.988,0,9,0,9,0,1,,,,,,,,,,,,,
6509bd2dd6e135ced062c241,TCR,2024-06-24_14h36.15.168,LearnStrategy,2023.2.3,Win32,59.88023952,4,1,11,0.012962977,-0.008333347,1,0,0,1.5384,rock_grid_rect_2,6,10,-1,-1,1.538,-0.158333319,-0.415740755,1,0,0,27.0374,Pegmatite_rect,6,27.037,1,10,0,10,0,1,,,,,,,,,,,,,
6509bd2dd6e135ced062c241,TCR,2024-06-24_14h36.15.168,LearnStrategy,2023.2.3,Win32,59.88023952,4,1,12,0.031481496,0.01666666,1,0,0,0.9387,rock_grid_rect_2,6,03,-1,-1,0.939,-0.324074074,-0.235185199,1,0,0,8.504,Andesite_rect,1,8.504,0,11,0,11,0,1,,,,,,,,,,,,,
6509bd2dd6e135ced062c241,TCR,2024-06-24_14h36.15.168,LearnStrategy,2023.2.3,Win32,59.88023952,4,1,13,0.023148148,-0.0074074,1,0,0,1.2366,rock_grid_rect_2,8,08,-1,-1,1.237,0.384259259,-0.402777778,1,0,0,1.4747,Pumice_rect,8,1.475,1,12,0,12,0,1,,,,,,,,,,,,,
6509bd2dd6e135ced062c241,TCR,2024-06-24_14h36.15.168,LearnStrategy,2023.2.3,Win32,59.88023952,4,1,14,0.012962977,-0.012962977,1,0,0,1.0296,rock_grid_rect_2,4,01,-1,-1,1.03,0.406481566,-0.236111111,1,0,0,14.1483,Gabbro_rect,4,14.148,1,13,0,13,0,1,,,,,,,,,,,,,
6509bd2dd6e135ced062c241,TCR,2024-06-24_14h36.15.168,LearnStrategy,2023.2.3,Win32,59.88023952,4,1,15,-0.023148148,-0.0074074,1,0,0,0.9149,rock_grid_rect_2,6,05,-1,-1,0.915,-0.082407422,-0.405555584,1,0,0,7.6182,Pegmatite_rect,6,7.618,1,14,0,14,0,1,,,,,,,,,,,,,
6509bd2dd6e135ced062c241,TCR,2024-06-24_14h36.15.168,LearnStrategy,2023.2.3,Win32,59.88023952,4,1,16,-0.064814815,0.010185171,1,0,0,0.8124,rock_grid_rect_2,4,14,-1,-1,0.812,0.354629658,-0.259259259,1,0,0,6.7393,Gabbro_rect,4,6.739,1,15,0,15,0,1,,,,,,,,,,,,,
6509bd2dd6e135ced062c241,TCR,2024-06-24_14h36.15.168,LearnStrategy,2023.2.3,Win32,59.88023952,4,2,1,,,,,,,,1,16,,,,,,,,,,,1,10.335,1,,,,,,-0.307407414,-0.233333376,1,0,0,10.3353,Andesite_rect,0,0,0,0,1,
6509bd2dd6e135ced062c241,TCR,2024-06-24_14h36.15.168,LearnStrategy,2023.2.3,Win32,59.88023952,4,2,2,,,,,,,,6,16,,,,,,,,,,,3,15.711,0,,,,,,0.061111097,-0.249074088,1,0,0,15.7111,Diorite_rect,1,0,1,0,1,
6509bd2dd6e135ced062c241,TCR,2024-06-24_14h36.15.168,LearnStrategy,2023.2.3,Win32,59.88023952,4,2,3,,,,,,,,8,13,,,,,,,,,,,8,2.439,1,,,,,,0.350000028,-0.410185213,1,0,0,2.4394,Pumice_rect,2,0,2,0,1,
6509bd2dd6e135ced062c241,TCR,2024-06-24_14h36.15.168,LearnStrategy,2023.2.3,Win32,59.88023952,4,2,4,,,,,,,,7,12,,,,,,,,,,,3,2.706,0,,,,,,0.114814829,-0.23055557,1,0,0,2.7062,Diorite_rect,3,0,3,0,1,
6509bd2dd6e135ced062c241,TCR,2024-06-24_14h36.15.168,LearnStrategy,2023.2.3,Win32,59.88023952,4,2,5,,,,,,,,4,12,,,,,,,,,,,1,8.417,0,,,,,,-0.337037016,-0.24537037,1,0,0,8.4172,Andesite_rect,4,0,4,0,1,
6509bd2dd6e135ced062c241,TCR,2024-06-24_14h36.15.168,LearnStrategy,2023.2.3,Win32,59.88023952,4,2,6,,,,,,,,3,06,,,,,,,,,,,7,14.379,0,,,,,,0.084259245,-0.393518519,1,0,0,14.3791,Peridotite_rect,5,0,5,0,1,
6509bd2dd6e135ced062c241,TCR,2024-06-24_14h36.15.168,LearnStrategy,2023.2.3,Win32,59.88023952,4,2,7,,,,,,,,2,16,,,,,,,,,,,4,9.453,0,,,,,,0.457407492,-0.250925912,1,0,0,9.453,Gabbro_rect,6,0,6,0,1,
6509bd2dd6e135ced062c241,TCR,2024-06-24_14h36.15.168,LearnStrategy,2023.2.3,Win32,59.88023952,4,2,8,,,,,,,,8,02,,,,,,,,,,,8,1.924,1,,,,,,0.371296353,-0.389814801,1,0,0,1.9237,Pumice_rect,7,0,7,0,1,
6509bd2dd6e135ced062c241,TCR,2024-06-24_14h36.15.168,LearnStrategy,2023.2.3,Win32,59.88023952,4,2,9,,,,,,,,5,08,,,,,,,,,,,5,1.108,1,,,,,,-0.402777778,-0.387037065,1,0,0,1.1079,Obsidian_rect,8,0,8,0,1,
6509bd2dd6e135ced062c241,TCR,2024-06-24_14h36.15.168,LearnStrategy,2023.2.3,Win32,59.88023952,4,2,10,,,,,,,,1,14,,,,,,,,,,,6,10.433,0,,,,,,-0.155555513,-0.395370413,1,0,0,10.4332,Pegmatite_rect,9,0,9,0,1,
6509bd2dd6e135ced062c241,TCR,2024-06-24_14h36.15.168,LearnStrategy,2023.2.3,Win32,59.88023952,4,2,11,,,,,,,,6,13,,,,,,,,,,,6,2.057,1,,,,,,-0.155555513,-0.395370413,1,0,0,2.0569,Pegmatite_rect,10,0,10,0,1,
6509bd2dd6e135ced062c241,TCR,2024-06-24_14h36.15.168,LearnStrategy,2023.2.3,Win32,59.88023952,4,2,12,,,,,,,,7,06,,,,,,,,,,,6,5.038,0,,,,,,-0.14907406,-0.39444443,1,0,0,5.0376,Pegmatite_rect,11,0,11,0,1,
6509bd2dd6e135ced062c241,TCR,2024-06-24_14h36.15.168,LearnStrategy,2023.2.3,Win32,59.88023952,4,2,13,,,,,,,,5,10,,,,,,,,,,,5,1.524,1,,,,,,-0.314814815,-0.395370413,1,0,0,1.5239,Obsidian_rect,12,0,12,0,1,
6509bd2dd6e135ced062c241,TCR,2024-06-24_14h36.15.168,LearnStrategy,2023.2.3,Win32,59.88023952,4,2,14,,,,,,,,2,01,,,,,,,,,,,1,20.89,0,,,,,,-0.353703711,-0.239814829,1,0,0,20.8899,Andesite_rect,13,0,13,0,1,
6509bd2dd6e135ced062c241,TCR,2024-06-24_14h36.15.168,LearnStrategy,2023.2.3,Win32,59.88023952,4,2,15,,,,,,,,4,10,,,,,,,,,,,1,2.373,0,,,,,,-0.355555534,-0.247222265,1,0,0,2.3727,Andesite_rect,14,0,14,0,1,
6509bd2dd6e135ced062c241,TCR,2024-06-24_14h36.15.168,LearnStrategy,2023.2.3,Win32,59.88023952,4,2,16,,,,,,,,3,02,,,,,,,,,,,3,9.15,1,,,,,,0.114814829,-0.259259259,1,0,0,9.1497,Diorite_rect,15,0,15,0,1,
6509bd2dd6e135ced062c241,TCR,2024-06-24_14h36.15.168,LearnStrategy,2023.2.3,Win32,59.88023952,5,1,1,-0.06759255,-0.022222236,1,0,0,1.4467,rock_grid_rect_2,1,01,-1,-1,1.447,-0.162037037,-0.244444459,1,0,0,9.7843,Basalt_rect,2,9.784,0,0,0,0,0,1,,,,,,,,,,,,,
6509bd2dd6e135ced062c241,TCR,2024-06-24_14h36.15.168,LearnStrategy,2023.2.3,Win32,59.88023952,5,1,2,-0.050925926,0.018518519,1,0,0,1.2219,rock_grid_rect_2,1,10,-1,-1,1.222,-0.371296282,-0.252777806,1,0,0,11.7011,Andesite_rect,1,11.701,1,1,0,1,0,1,,,,,,,,,,,,,
6509bd2dd6e135ced062c241,TCR,2024-06-24_14h36.15.168,LearnStrategy,2023.2.3,Win32,59.88023952,5,1,3,-0.018518519,-0.012962977,1,0,0,1.4951,rock_grid_rect_2,2,04,-1,-1,1.495,0.371296353,-0.259259259,1,0,0,2.4578,Gabbro_rect,4,2.458,0,2,0,2,0,1,,,,,,,,,,,,,
6509bd2dd6e135ced062c241,TCR,2024-06-24_14h36.15.168,LearnStrategy,2023.2.3,Win32,59.88023952,5,1,4,-0.01944443,-0.005555577,1,0,0,1.9285,rock_grid_rect_2,2,09,-1,-1,1.928,-0.088888875,-0.237963005,1,0,0,27.4701,Basalt_rect,2,27.47,1,3,0,3,0,1,,,,,,,,,,,,,
6509bd2dd6e135ced062c241,TCR,2024-06-24_14h36.15.168,LearnStrategy,2023.2.3,Win32,59.88023952,5,1,5,0.007407436,0.001851859,1,0,0,1.445,rock_grid_rect_2,7,05,-1,-1,1.445,0.469444416,-0.249074088,1,0,0,16.704,Gabbro_rect,4,16.704,0,4,0,4,0,1,,,,,,,,,,,,,
6509bd2dd6e135ced062c241,TCR,2024-06-24_14h36.15.168,LearnStrategy,2023.2.3,Win32,59.88023952,5,1,6,0.064814815,-0.002777771,1,0,0,1.1447,rock_grid_rect_2,6,03,-1,-1,1.145,-0.145370342,-0.411111125,1,0,0,13.5564,Pegmatite_rect,6,13.556,1,5,0,5,0,1,,,,,,,,,,,,,
6509bd2dd6e135ced062c241,TCR,2024-06-24_14h36.15.168,LearnStrategy,2023.2.3,Win32,59.88023952,5,1,7,0.061111097,0.005555541,1,0,0,1.3185,rock_grid_rect_2,7,07,-1,-1,1.318,0.086111139,-0.413888931,1,0,0,12.7859,Peridotite_rect,7,12.786,1,6,0,6,0,1,,,,,,,,,,,,,
6509bd2dd6e135ced062c241,TCR,2024-06-24_14h36.15.168,LearnStrategy,2023.2.3,Win32,59.88023952,5,1,8,-0.013888889,0.005555541,1,0,0,0.9699,rock_grid_rect_2,4,16,-1,-1,0.97,-0.143518519,-0.262037065,1,0,0,9.6348,Basalt_rect,2,9.635,0,7,0,7,0,1,,,,,,,,,,,,,
6509bd2dd6e135ced062c241,TCR,2024-06-24_14h36.15.168,LearnStrategy,2023.2.3,Win32,59.88023952,5,1,9,0.016666695,-0.013888889,1,0,0,1.6102,rock_grid_rect_2,6,15,-1,-1,1.61,-0.180555556,-0.400925954,1,0,0,7.8853,Pegmatite_rect,6,7.885,1,8,0,8,0,1,,,,,,,,,,,,,
6509bd2dd6e135ced062c241,TCR,2024-06-24_14h36.15.168,LearnStrategy,2023.2.3,Win32,59.88023952,5,1,10,-0.123148106,-0.022222236,1,0,0,1.0866,rock_grid_rect_2,3,15,-1,-1,1.087,0.175925926,-0.234259288,1,0,0,7.4553,Diorite_rect,3,7.455,1,9,0,9,0,1,,,,,,,,,,,,,
6509bd2dd6e135ced062c241,TCR,2024-06-24_14h36.15.168,LearnStrategy,2023.2.3,Win32,59.88023952,5,1,11,-0.040740755,-0.00462963,1,0,0,1.3031,rock_grid_rect_2,4,03,-1,-1,1.303,0.122222265,-0.24537037,1,0,0,1.9099,Diorite_rect,3,1.91,0,10,0,10,0,1,,,,,,,,,,,,,
6509bd2dd6e135ced062c241,TCR,2024-06-24_14h36.15.168,LearnStrategy,2023.2.3,Win32,59.88023952,5,1,12,0.056481467,-0.008333347,1,0,0,1.1612,rock_grid_rect_2,4,14,-1,-1,1.161,0.402777778,-0.256481524,1,0,0,19.0451,Gabbro_rect,4,19.045,1,11,0,11,0,1,,,,,,,,,,,,,
6509bd2dd6e135ced062c241,TCR,2024-06-24_14h36.15.168,LearnStrategy,2023.2.3,Win32,59.88023952,5,1,13,-0.000925912,-0.01203703,1,0,0,1.5173,rock_grid_rect_2,2,09,-1,-1,1.517,-0.133333347,-0.25462963,1,0,0,5.8093,Basalt_rect,2,5.809,1,12,0,12,0,1,,,,,,,,,,,,,
6509bd2dd6e135ced062c241,TCR,2024-06-24_14h36.15.168,LearnStrategy,2023.2.3,Win32,59.88023952,5,1,14,0,0.002777771,1,0,0,1.4524,rock_grid_rect_2,1,01,-1,-1,1.452,-0.40648146,-0.246296282,1,0,0,6.1718,Andesite_rect,1,6.172,1,13,0,13,0,1,,,,,,,,,,,,,
6509bd2dd6e135ced062c241,TCR,2024-06-24_14h36.15.168,LearnStrategy,2023.2.3,Win32,59.88023952,5,1,15,-0.024999972,0.014814801,1,0,0,1.1038,rock_grid_rect_2,7,13,-1,-1,1.104,-0.07222218,-0.258333347,1,0,0,51.0303,Basalt_rect,2,51.03,0,14,0,14,0,1,,,,,,,,,,,,,
6509bd2dd6e135ced062c241,TCR,2024-06-24_14h36.15.168,LearnStrategy,2023.2.3,Win32,59.88023952,5,1,16,0.001851894,-0.001851859,1,0,0,1.9789,rock_grid_rect_2,6,05,-1,-1,1.979,-0.098148134,-0.396296325,1,0,0,5.7474,Pegmatite_rect,6,5.747,1,15,0,15,0,1,,,,,,,,,,,,,
6509bd2dd6e135ced062c241,TCR,2024-06-24_14h36.15.168,LearnStrategy,2023.2.3,Win32,59.88023952,5,2,1,,,,,,,,1,07,,,,,,,,,,,1,30.876,1,,,,,,-0.371296282,-0.255555541,1,0,0,30.8762,Andesite_rect,0,0,0,0,1,
6509bd2dd6e135ced062c241,TCR,2024-06-24_14h36.15.168,LearnStrategy,2023.2.3,Win32,59.88023952,5,2,2,,,,,,,,6,09,,,,,,,,,,,6,11.218,1,,,,,,-0.064814815,-0.386111153,1,0,0,11.218,Pegmatite_rect,1,0,1,0,1,
6509bd2dd6e135ced062c241,TCR,2024-06-24_14h36.15.168,LearnStrategy,2023.2.3,Win32,59.88023952,5,2,3,,,,,,,,5,07,,,,,,,,,,,5,4.274,1,,,,,,-0.352777764,-0.398148148,1,0,0,4.2738,Obsidian_rect,2,0,2,0,1,
6509bd2dd6e135ced062c241,TCR,2024-06-24_14h36.15.168,LearnStrategy,2023.2.3,Win32,59.88023952,5,2,4,,,,,,,,3,12,,,,,,,,,,,3,11.498,1,,,,,,0.160185213,-0.250925912,1,0,0,11.4979,Diorite_rect,3,0,3,0,1,
6509bd2dd6e135ced062c241,TCR,2024-06-24_14h36.15.168,LearnStrategy,2023.2.3,Win32,59.88023952,5,2,5,,,,,,,,8,16,,,,,,,,,,,8,1.223,1,,,,,,0.35555564,-0.418518561,1,0,0,1.223,Pumice_rect,4,0,4,0,1,
6509bd2dd6e135ced062c241,TCR,2024-06-24_14h36.15.168,LearnStrategy,2023.2.3,Win32,59.88023952,5,2,6,,,,,,,,3,09,,,,,,,,,,,3,2.175,1,,,,,,0.167592578,-0.262962977,1,0,0,2.1746,Diorite_rect,5,0,5,0,1,
6509bd2dd6e135ced062c241,TCR,2024-06-24_14h36.15.168,LearnStrategy,2023.2.3,Win32,59.88023952,5,2,7,,,,,,,,2,11,,,,,,,,,,,8,1.292,0,,,,,,0.362037094,-0.39907406,1,0,0,1.2916,Pumice_rect,6,0,6,0,1,
6509bd2dd6e135ced062c241,TCR,2024-06-24_14h36.15.168,LearnStrategy,2023.2.3,Win32,59.88023952,5,2,8,,,,,,,,5,04,,,,,,,,,,,5,1.277,1,,,,,,-0.38703703,-0.408333319,1,0,0,1.2767,Obsidian_rect,7,0,7,0,1,
6509bd2dd6e135ced062c241,TCR,2024-06-24_14h36.15.168,LearnStrategy,2023.2.3,Win32,59.88023952,5,2,9,,,,,,,,7,14,,,,,,,,,,,6,47.603,0,,,,,,-0.062962921,-0.39907406,1,0,0,47.6033,Pegmatite_rect,8,0,8,0,1,
6509bd2dd6e135ced062c241,TCR,2024-06-24_14h36.15.168,LearnStrategy,2023.2.3,Win32,59.88023952,5,2,10,,,,,,,,2,05,,,,,,,,,,,2,2.356,1,,,,,,-0.074074074,-0.234259288,1,0,0,2.3562,Basalt_rect,9,0,9,0,1,
6509bd2dd6e135ced062c241,TCR,2024-06-24_14h36.15.168,LearnStrategy,2023.2.3,Win32,59.88023952,5,2,11,,,,,,,,7,15,,,,,,,,,,,7,8.386,1,,,,,,0.164814843,-0.414814843,1,0,0,8.3857,Peridotite_rect,10,0,10,0,1,
6509bd2dd6e135ced062c241,TCR,2024-06-24_14h36.15.168,LearnStrategy,2023.2.3,Win32,59.88023952,5,2,12,,,,,,,,4,15,,,,,,,,,,,4,20.541,1,,,,,,0.486111111,-0.262962977,1,0,0,20.5409,Gabbro_rect,11,0,11,0,1,
6509bd2dd6e135ced062c241,TCR,2024-06-24_14h36.15.168,LearnStrategy,2023.2.3,Win32,59.88023952,5,2,13,,,,,,,,6,06,,,,,,,,,,,6,10.933,1,,,,,,-0.054629644,-0.381481524,1,0,0,10.9329,Pegmatite_rect,12,0,12,0,1,
6509bd2dd6e135ced062c241,TCR,2024-06-24_14h36.15.168,LearnStrategy,2023.2.3,Win32,59.88023952,5,2,14,,,,,,,,8,06,,,,,,,,,,,8,1.258,1,,,,,,0.345370399,-0.398148148,1,0,0,1.2578,Pumice_rect,13,0,13,0,1,
6509bd2dd6e135ced062c241,TCR,2024-06-24_14h36.15.168,LearnStrategy,2023.2.3,Win32,59.88023952,5,2,15,,,,,,,,1,03,,,,,,,,,,,1,22.355,1,,,,,,-0.339814822,-0.24537037,1,0,0,22.3554,Andesite_rect,14,0,14,0,1,
6509bd2dd6e135ced062c241,TCR,2024-06-24_14h36.15.168,LearnStrategy,2023.2.3,Win32,59.88023952,5,2,16,,,,,,,,4,13,,,,,,,,,,,2,12.265,0,,,,,,-0.191666638,-0.249074088,1,0,0,12.2653,Basalt_rect,15,0,15,0,1,
6509bd2dd6e135ced062c241,TCR,2024-06-24_14h36.15.168,LearnStrategy,2023.2.3,Win32,59.88023952,6,1,1,-0.000925912,-0.01666666,1,0,0,1.6136,rock_grid_rect_2,7,05,-1,-1,1.614,0.175000014,-0.409259302,1,0,0,16.9122,Peridotite_rect,7,16.912,1,0,0,0,0,1,,,,,,,,,,,,,
6509bd2dd6e135ced062c241,TCR,2024-06-24_14h36.15.168,LearnStrategy,2023.2.3,Win32,59.88023952,6,1,2,0.007407436,-0.011111118,1,0,0,1.5289,rock_grid_rect_2,4,16,-1,-1,1.529,0.454629686,-0.25,1,0,0,8.1371,Gabbro_rect,4,8.137,1,1,0,1,0,1,,,,,,,,,,,,,
6509bd2dd6e135ced062c241,TCR,2024-06-24_14h36.15.168,LearnStrategy,2023.2.3,Win32,59.88023952,6,1,3,-0.037962949,-0.019444466,1,0,0,1.8635,rock_grid_rect_2,7,13,-1,-1,1.863,0.109259288,-0.39444443,1,0,0,10.2839,Peridotite_rect,7,10.284,1,2,0,2,0,1,,,,,,,,,,,,,
6509bd2dd6e135ced062c241,TCR,2024-06-24_14h36.15.168,LearnStrategy,2023.2.3,Win32,59.88023952,6,1,4,-0.017592607,-0.013888889,1,0,0,3.5529,rock_grid_rect_2,6,05,-1,-1,3.553,-0.069444444,-0.39907406,1,0,0,12.4749,Pegmatite_rect,6,12.475,1,3,0,3,0,1,,,,,,,,,,,,,
6509bd2dd6e135ced062c241,TCR,2024-06-24_14h36.15.168,LearnStrategy,2023.2.3,Win32,59.88023952,6,1,5,0.050925926,-0.003703718,1,0,0,1.2626,rock_grid_rect_2,6,12,-1,-1,1.263,-0.106481481,-0.404629672,1,0,0,6.0633,Pegmatite_rect,6,6.063,1,4,0,4,0,1,,,,,,,,,,,,,
6509bd2dd6e135ced062c241,TCR,2024-06-24_14h36.15.168,LearnStrategy,2023.2.3,Win32,59.88023952,6,1,6,-0.025925884,-0.015740748,1,0,0,1.3038,rock_grid_rect_2,7,10,-1,-1,1.304,0.399074131,-0.236111111,1,0,0,17.9947,Gabbro_rect,4,17.995,0,5,0,5,0,1,,,,,,,,,,,,,
6509bd2dd6e135ced062c241,TCR,2024-06-24_14h36.15.168,LearnStrategy,2023.2.3,Win32,59.88023952,6,1,7,0.038888931,0.002777771,1,0,0,3.7266,rock_grid_rect_2,3,11,-1,-1,3.727,0.087037051,-0.262037065,1,0,0,5.8297,Diorite_rect,3,5.83,1,6,0,6,0,1,,,,,,,,,,,,,
6509bd2dd6e135ced062c241,TCR,2024-06-24_14h36.15.168,LearnStrategy,2023.2.3,Win32,59.88023952,6,1,8,-0.045370384,0.003703683,1,0,0,1.3025,rock_grid_rect_2,8,05,-1,-1,1.302,0.323148233,-0.390740783,1,0,0,1.5096,Pumice_rect,8,1.51,1,7,0,7,0,1,,,,,,,,,,,,,
6509bd2dd6e135ced062c241,TCR,2024-06-24_14h36.15.168,LearnStrategy,2023.2.3,Win32,59.88023952,6,1,9,0.020370413,-0.015740748,1,0,0,1.0799,rock_grid_rect_2,1,10,-1,-1,1.08,-0.359259252,-0.247222265,1,0,0,7.4108,Andesite_rect,1,7.411,1,8,0,8,0,1,,,,,,,,,,,,,
6509bd2dd6e135ced062c241,TCR,2024-06-24_14h36.15.168,LearnStrategy,2023.2.3,Win32,59.88023952,6,1,10,0.012037065,-0.002777771,1,0,0,1.1201,rock_grid_rect_2,4,03,-1,-1,1.12,-0.346296275,-0.256481524,1,0,0,16.5482,Andesite_rect,1,16.548,0,9,0,9,0,1,,,,,,,,,,,,,
6509bd2dd6e135ced062c241,TCR,2024-06-24_14h36.15.168,LearnStrategy,2023.2.3,Win32,59.88023952,6,1,11,0.011111153,-0.017592607,1,0,0,1.7775,rock_grid_rect_2,2,02,-1,-1,1.777,-0.106481481,-0.244444459,1,0,0,21.7593,Basalt_rect,2,21.759,1,10,0,10,0,1,,,,,,,,,,,,,
6509bd2dd6e135ced062c241,TCR,2024-06-24_14h36.15.168,LearnStrategy,2023.2.3,Win32,59.88023952,6,1,12,-0.022222236,-0.002777771,1,0,0,1.1459,rock_grid_rect_2,2,06,-1,-1,1.146,-0.059259273,-0.25462963,1,0,0,13.743,Basalt_rect,2,13.743,1,11,0,11,0,1,,,,,,,,,,,,,
6509bd2dd6e135ced062c241,TCR,2024-06-24_14h36.15.168,LearnStrategy,2023.2.3,Win32,59.88023952,6,1,13,-0.051851838,-0.008333347,1,0,0,1.3524,rock_grid_rect_2,5,12,-1,-1,1.352,-0.348148134,-0.418518561,1,0,0,1.3655,Obsidian_rect,5,1.366,1,12,0,12,0,1,,,,,,,,,,,,,
6509bd2dd6e135ced062c241,TCR,2024-06-24_14h36.15.168,LearnStrategy,2023.2.3,Win32,59.88023952,6,1,14,-0.017592607,0.010185171,1,0,0,0.8533,rock_grid_rect_2,1,10,-1,-1,0.853,-0.338888875,-0.232407393,1,0,0,14.4833,Andesite_rect,1,14.483,1,13,0,13,0,1,,,,,,,,,,,,,
6509bd2dd6e135ced062c241,TCR,2024-06-24_14h36.15.168,LearnStrategy,2023.2.3,Win32,59.88023952,6,1,15,-0.039814772,-0.008333347,1,0,0,1.3623,rock_grid_rect_2,2,02,-1,-1,1.362,-0.085185157,-0.233333376,1,0,0,2.5483,Basalt_rect,2,2.548,1,14,0,14,0,1,,,,,,,,,,,,,
6509bd2dd6e135ced062c241,TCR,2024-06-24_14h36.15.168,LearnStrategy,2023.2.3,Win32,59.88023952,6,1,16,-0.011111083,-0.019444466,1,0,0,0.9694,rock_grid_rect_2,4,03,-1,-1,0.969,-0.339814822,-0.239814829,1,0,0,3.3076,Andesite_rect,1,3.308,0,15,0,15,0,1,,,,,,,,,,,,,
6509bd2dd6e135ced062c241,TCR,2024-06-24_14h36.15.168,LearnStrategy,2023.2.3,Win32,59.88023952,6,2,1,,,,,,,,6,11,,,,,,,,,,,6,16.698,1,,,,,,-0.137962977,-0.37962963,1,0,0,16.6984,Pegmatite_rect,0,0,0,0,1,
6509bd2dd6e135ced062c241,TCR,2024-06-24_14h36.15.168,LearnStrategy,2023.2.3,Win32,59.88023952,6,2,2,,,,,,,,7,04,,,,,,,,,,,6,4.764,0,,,,,,-0.092592593,-0.37962963,1,0,0,4.7644,Pegmatite_rect,1,0,1,0,1,
6509bd2dd6e135ced062c241,TCR,2024-06-24_14h36.15.168,LearnStrategy,2023.2.3,Win32,59.88023952,6,2,3,,,,,,,,5,14,,,,,,,,,,,5,1.251,1,,,,,,-0.323148127,-0.404629672,1,0,0,1.2515,Obsidian_rect,2,0,2,0,1,
6509bd2dd6e135ced062c241,TCR,2024-06-24_14h36.15.168,LearnStrategy,2023.2.3,Win32,59.88023952,6,2,4,,,,,,,,3,14,,,,,,,,,,,3,7.014,1,,,,,,0.15370369,-0.250925912,1,0,0,7.0137,Diorite_rect,3,0,3,0,1,
6509bd2dd6e135ced062c241,TCR,2024-06-24_14h36.15.168,LearnStrategy,2023.2.3,Win32,59.88023952,6,2,5,,,,,,,,7,08,,,,,,,,,,,7,16.632,1,,,,,,0.07222225,-0.397222236,1,0,0,16.6322,Peridotite_rect,4,0,4,0,1,
6509bd2dd6e135ced062c241,TCR,2024-06-24_14h36.15.168,LearnStrategy,2023.2.3,Win32,59.88023952,6,2,6,,,,,,,,8,10,,,,,,,,,,,8,1.767,1,,,,,,0.344444416,-0.400925954,1,0,0,1.7672,Pumice_rect,5,0,5,0,1,
6509bd2dd6e135ced062c241,TCR,2024-06-24_14h36.15.168,LearnStrategy,2023.2.3,Win32,59.88023952,6,2,7,,,,,,,,2,12,,,,,,,,,,,1,20.984,0,,,,,,-0.330555563,-0.25,1,0,0,20.9841,Andesite_rect,6,0,6,0,1,
6509bd2dd6e135ced062c241,TCR,2024-06-24_14h36.15.168,LearnStrategy,2023.2.3,Win32,59.88023952,6,2,8,,,,,,,,2,08,,,,,,,,,,,1,21.182,0,,,,,,-0.356481481,-0.234259288,1,0,0,21.1818,Andesite_rect,7,0,7,0,1,
6509bd2dd6e135ced062c241,TCR,2024-06-24_14h36.15.168,LearnStrategy,2023.2.3,Win32,59.88023952,6,2,9,,,,,,,,4,11,,,,,,,,,,,4,9.358,1,,,,,,0.312962991,-0.236111111,1,0,0,9.3579,Gabbro_rect,8,0,8,0,1,
6509bd2dd6e135ced062c241,TCR,2024-06-24_14h36.15.168,LearnStrategy,2023.2.3,Win32,59.88023952,6,2,10,,,,,,,,8,03,,,,,,,,,,,8,1.333,1,,,,,,0.337037122,-0.412037037,1,0,0,1.3328,Pumice_rect,9,0,9,0,1,
6509bd2dd6e135ced062c241,TCR,2024-06-24_14h36.15.168,LearnStrategy,2023.2.3,Win32,59.88023952,6,2,11,,,,,,,,6,07,,,,,,,,,,,6,7.011,1,,,,,,-0.054629644,-0.392592607,1,0,0,7.0113,Pegmatite_rect,10,0,10,0,1,
6509bd2dd6e135ced062c241,TCR,2024-06-24_14h36.15.168,LearnStrategy,2023.2.3,Win32,59.88023952,6,2,12,,,,,,,,5,09,,,,,,,,,,,5,1.316,1,,,,,,-0.342592593,-0.401851866,1,0,0,1.3162,Obsidian_rect,11,0,11,0,1,
6509bd2dd6e135ced062c241,TCR,2024-06-24_14h36.15.168,LearnStrategy,2023.2.3,Win32,59.88023952,6,2,13,,,,,,,,1,04,,,,,,,,,,,1,9.676,1,,,,,,-0.353703711,-0.257407436,1,0,0,9.6757,Andesite_rect,12,0,12,0,1,
6509bd2dd6e135ced062c241,TCR,2024-06-24_14h36.15.168,LearnStrategy,2023.2.3,Win32,59.88023952,6,2,14,,,,,,,,3,10,,,,,,,,,,,4,5.515,0,,,,,,0.363888917,-0.237963005,1,0,0,5.5154,Gabbro_rect,13,0,13,0,1,
6509bd2dd6e135ced062c241,TCR,2024-06-24_14h36.15.168,LearnStrategy,2023.2.3,Win32,59.88023952,6,2,15,,,,,,,,1,09,,,,,,,,,,,1,16.836,1,,,,,,-0.490740741,-0.238888917,1,0,0,16.8362,Andesite_rect,14,0,14,0,1,
6509bd2dd6e135ced062c241,TCR,2024-06-24_14h36.15.168,LearnStrategy,2023.2.3,Win32,59.88023952,6,2,16,,,,,,,,4,05,,,,,,,,,,,4,12.004,1,,,,,,0.381481453,-0.241666653,1,0,0,12.0038,Gabbro_rect,15,0,15,0,1,
6509bd2dd6e135ced062c241,TCR,2024-06-24_14h36.15.168,LearnStrategy,2023.2.3,Win32,59.88023952,7,1,1,0.036111125,0.002777771,1,0,0,1.5923,rock_grid_rect_2,8,14,-1,-1,1.592,0.333333333,-0.39907406,1,0,0,1.7406,Pumice_rect,8,1.741,1,0,0,0,0,1,,,,,,,,,,,,,
6509bd2dd6e135ced062c241,TCR,2024-06-24_14h36.15.168,LearnStrategy,2023.2.3,Win32,59.88023952,7,1,2,0.049074102,0.0074074,1,0,0,1.1124,rock_grid_rect_2,4,14,-1,-1,1.112,0.350000028,-0.247222265,1,0,0,13.8982,Gabbro_rect,4,13.898,1,1,0,1,0,1,,,,,,,,,,,,,
6509bd2dd6e135ced062c241,TCR,2024-06-24_14h36.15.168,LearnStrategy,2023.2.3,Win32,59.88023952,7,1,3,-0.04351849,-0.013888889,1,0,0,1.1886,rock_grid_rect_2,4,16,-1,-1,1.189,0.357407464,-0.240740741,1,0,0,1.3417,Gabbro_rect,4,1.342,1,2,0,2,0,1,,,,,,,,,,,,,
6509bd2dd6e135ced062c241,TCR,2024-06-24_14h36.15.168,LearnStrategy,2023.2.3,Win32,59.88023952,7,1,4,0.012962977,-0.008333347,1,0,0,1.1805,rock_grid_rect_2,2,04,-1,-1,1.18,-0.16851849,-0.255555541,1,0,0,6.9226,Basalt_rect,2,6.923,1,3,0,3,0,1,,,,,,,,,,,,,
6509bd2dd6e135ced062c241,TCR,2024-06-24_14h36.15.168,LearnStrategy,2023.2.3,Win32,59.88023952,7,1,5,-0.025925884,-0.002777771,1,0,0,1.1783,rock_grid_rect_2,1,06,-1,-1,1.178,-0.325925933,-0.240740741,1,0,0,6.7214,Andesite_rect,1,6.721,1,4,0,4,0,1,,,,,,,,,,,,,
6509bd2dd6e135ced062c241,TCR,2024-06-24_14h36.15.168,LearnStrategy,2023.2.3,Win32,59.88023952,7,1,6,-0.068518533,-0.021296289,1,0,0,0.8475,rock_grid_rect_2,1,02,-1,-1,0.848,-0.400925919,-0.262037065,1,0,0,8.1201,Andesite_rect,1,8.12,1,5,0,5,0,1,,,,,,,,,,,,,
6509bd2dd6e135ced062c241,TCR,2024-06-24_14h36.15.168,LearnStrategy,2023.2.3,Win32,59.88023952,7,1,7,-0.037037037,-0.002777771,1,0,0,1.3284,rock_grid_rect_2,2,10,-1,-1,1.328,-0.076851809,-0.257407436,1,0,0,5.5896,Basalt_rect,2,5.59,1,6,0,6,0,1,,,,,,,,,,,,,
6509bd2dd6e135ced062c241,TCR,2024-06-24_14h36.15.168,LearnStrategy,2023.2.3,Win32,59.88023952,7,1,8,-0.018518519,0.002777771,1,0,0,1.0626,rock_grid_rect_2,3,08,-1,-1,1.063,0.090740769,-0.237037023,1,0,0,5.4889,Diorite_rect,3,5.489,1,7,0,7,0,1,,,,,,,,,,,,,
6509bd2dd6e135ced062c241,TCR,2024-06-24_14h36.15.168,LearnStrategy,2023.2.3,Win32,59.88023952,7,1,9,0.000925912,-0.01203703,1,0,0,1.2796,rock_grid_rect_2,7,13,-1,-1,1.28,0.135185171,-0.386111153,1,0,0,4.0078,Peridotite_rect,7,4.008,1,8,0,8,0,1,,,,,,,,,,,,,
6509bd2dd6e135ced062c241,TCR,2024-06-24_14h36.15.168,LearnStrategy,2023.2.3,Win32,59.88023952,7,1,10,0.069444444,0.002777771,1,0,0,1.6285,rock_grid_rect_2,7,07,-1,-1,1.628,0.15370369,-0.395370413,1,0,0,6.2389,Peridotite_rect,7,6.239,1,9,0,9,0,1,,,,,,,,,,,,,
6509bd2dd6e135ced062c241,TCR,2024-06-24_14h36.15.168,LearnStrategy,2023.2.3,Win32,59.88023952,7,1,11,-0.034259231,0.001851859,1,0,0,1.4447,rock_grid_rect_2,2,06,-1,-1,1.445,-0.108333305,-0.236111111,1,0,0,8.3377,Basalt_rect,2,8.338,1,10,0,10,0,1,,,,,,,,,,,,,
6509bd2dd6e135ced062c241,TCR,2024-06-24_14h36.15.168,LearnStrategy,2023.2.3,Win32,59.88023952,7,1,12,-0.065740727,0.001851859,1,0,0,1.1627,rock_grid_rect_2,6,10,-1,-1,1.163,-0.07222218,-0.412037037,1,0,0,8.8845,Pegmatite_rect,6,8.884,1,11,0,11,0,1,,,,,,,,,,,,,
6509bd2dd6e135ced062c241,TCR,2024-06-24_14h36.15.168,LearnStrategy,2023.2.3,Win32,59.88023952,7,1,13,-0.038888861,-0.00462963,1,0,0,2.2277,rock_grid_rect_2,6,05,-1,-1,2.228,-0.084259245,-0.39444443,1,0,0,13.9988,Pegmatite_rect,6,13.999,1,12,0,12,0,1,,,,,,,,,,,,,
6509bd2dd6e135ced062c241,TCR,2024-06-24_14h36.15.168,LearnStrategy,2023.2.3,Win32,59.88023952,7,1,14,0.041666667,0.009259259,1,0,0,1.1969,rock_grid_rect_2,2,02,-1,-1,1.197,-0.061111097,-0.242592635,1,0,0,5.4058,Basalt_rect,2,5.406,1,13,0,13,0,1,,,,,,,,,,,,,
6509bd2dd6e135ced062c241,TCR,2024-06-24_14h36.15.168,LearnStrategy,2023.2.3,Win32,59.88023952,7,1,15,-0.00462963,-0.008333347,1,0,0,0.9457,rock_grid_rect_2,3,11,-1,-1,0.946,0.098148134,-0.23055557,1,0,0,6.2708,Diorite_rect,3,6.271,1,14,0,14,0,1,,,,,,,,,,,,,
6509bd2dd6e135ced062c241,TCR,2024-06-24_14h36.15.168,LearnStrategy,2023.2.3,Win32,59.88023952,7,1,16,0.006481524,-0.006481489,1,0,0,1.1956,rock_grid_rect_2,7,16,-1,-1,1.196,0.109259288,-0.393518519,1,0,0,11.883,Peridotite_rect,7,11.883,1,15,0,15,0,1,,,,,,,,,,,,,
6509bd2dd6e135ced062c241,TCR,2024-06-24_14h36.15.168,LearnStrategy,2023.2.3,Win32,59.88023952,7,2,1,,,,,,,,2,11,,,,,,,,,,,8,2.041,0,,,,,,0.341666751,-0.386111153,1,0,0,2.0412,Pumice_rect,0,0,0,0,1,
6509bd2dd6e135ced062c241,TCR,2024-06-24_14h36.15.168,LearnStrategy,2023.2.3,Win32,59.88023952,7,2,2,,,,,,,,5,14,,,,,,,,,,,5,1.825,1,,,,,,-0.364814794,-0.400925954,1,0,0,1.8254,Obsidian_rect,1,0,1,0,1,
6509bd2dd6e135ced062c241,TCR,2024-06-24_14h36.15.168,LearnStrategy,2023.2.3,Win32,59.88023952,7,2,3,,,,,,,,6,16,,,,,,,,,,,3,10.53,0,,,,,,0.08148151,-0.260185171,1,0,0,10.5302,Diorite_rect,2,0,2,0,1,
6509bd2dd6e135ced062c241,TCR,2024-06-24_14h36.15.168,LearnStrategy,2023.2.3,Win32,59.88023952,7,2,4,,,,,,,,4,13,,,,,,,,,,,4,10.75,1,,,,,,0.380555612,-0.248148176,1,0,0,10.7498,Gabbro_rect,3,0,3,0,1,
6509bd2dd6e135ced062c241,TCR,2024-06-24_14h36.15.168,LearnStrategy,2023.2.3,Win32,59.88023952,7,2,5,,,,,,,,6,07,,,,,,,,,,,6,7.838,1,,,,,,-0.066666638,-0.398148148,1,0,0,7.8376,Pegmatite_rect,4,0,4,0,1,
6509bd2dd6e135ced062c241,TCR,2024-06-24_14h36.15.168,LearnStrategy,2023.2.3,Win32,59.88023952,7,2,6,,,,,,,,7,06,,,,,,,,,,,6,2.388,0,,,,,,-0.066666638,-0.398148148,1,0,0,2.3878,Pegmatite_rect,5,0,5,0,1,
6509bd2dd6e135ced062c241,TCR,2024-06-24_14h36.15.168,LearnStrategy,2023.2.3,Win32,59.88023952,7,2,7,,,,,,,,1,04,,,,,,,,,,,1,22.043,1,,,,,,-0.36296297,-0.24537037,1,0,0,22.0428,Andesite_rect,6,0,6,0,1,
6509bd2dd6e135ced062c241,TCR,2024-06-24_14h36.15.168,LearnStrategy,2023.2.3,Win32,59.88023952,7,2,8,,,,,,,,1,16,,,,,,,,,,,1,5.407,1,,,,,,-0.342592593,-0.247222265,1,0,0,5.4067,Andesite_rect,7,0,7,0,1,
6509bd2dd6e135ced062c241,TCR,2024-06-24_14h36.15.168,LearnStrategy,2023.2.3,Win32,59.88023952,7,2,9,,,,,,,,5,10,,,,,,,,,,,5,1.459,1,,,,,,-0.404629637,-0.397222236,1,0,0,1.4587,Obsidian_rect,8,0,8,0,1,
6509bd2dd6e135ced062c241,TCR,2024-06-24_14h36.15.168,LearnStrategy,2023.2.3,Win32,59.88023952,7,2,10,,,,,,,,3,10,,,,,,,,,,,3,5.706,1,,,,,,0.108333376,-0.232407393,1,0,0,5.7065,Diorite_rect,9,0,9,0,1,
6509bd2dd6e135ced062c241,TCR,2024-06-24_14h36.15.168,LearnStrategy,2023.2.3,Win32,59.88023952,7,2,11,,,,,,,,2,12,,,,,,,,,,,1,44.14,0,,,,,,-0.321296303,-0.244444459,1,0,0,44.1396,Andesite_rect,10,0,10,0,1,
6509bd2dd6e135ced062c241,TCR,2024-06-24_14h36.15.168,LearnStrategy,2023.2.3,Win32,59.88023952,7,2,12,,,,,,,,4,12,,,,,,,,,,,4,12.967,1,,,,,,0.380555612,-0.229629658,1,0,0,12.9666,Gabbro_rect,11,0,11,0,1,
6509bd2dd6e135ced062c241,TCR,2024-06-24_14h36.15.168,LearnStrategy,2023.2.3,Win32,59.88023952,7,2,13,,,,,,,,3,12,,,,,,,,,,,3,5.286,1,,,,,,0.104629658,-0.257407436,1,0,0,5.2864,Diorite_rect,12,0,12,0,1,
6509bd2dd6e135ced062c241,TCR,2024-06-24_14h36.15.168,LearnStrategy,2023.2.3,Win32,59.88023952,7,2,14,,,,,,,,8,02,,,,,,,,,,,8,1.659,1,,,,,,0.332407492,-0.411111125,1,0,0,1.6589,Pumice_rect,13,0,13,0,1,
6509bd2dd6e135ced062c241,TCR,2024-06-24_14h36.15.168,LearnStrategy,2023.2.3,Win32,59.88023952,7,2,15,,,,,,,,8,16,,,,,,,,,,,8,1.392,1,,,,,,0.356481481,-0.400000042,1,0,0,1.3925,Pumice_rect,14,0,14,0,1,
6509bd2dd6e135ced062c241,TCR,2024-06-24_14h36.15.168,LearnStrategy,2023.2.3,Win32,59.88023952,7,2,16,,,,,,,,7,14,,,,,,,,,,,7,26.988,1,,,,,,0.107407393,-0.40370369,1,0,0,26.9879,Peridotite_rect,15,0,15,0,1,
6509bd2dd6e135ced062c241,TCR,2024-06-24_14h36.15.168,LearnStrategy,2023.2.3,Win32,59.88023952,8,1,1,-0.032407407,-0.006481489,1,0,0,1.4305,rock_grid_rect_2,3,15,-1,-1,1.43,0.142592607,-0.237037023,1,0,0,8.7195,Diorite_rect,3,8.719,1,0,0,0,0,1,,,,,,,,,,,,,
6509bd2dd6e135ced062c241,TCR,2024-06-24_14h36.15.168,LearnStrategy,2023.2.3,Win32,59.88023952,8,1,2,0.012037065,-0.003703718,1,0,0,0.9966,rock_grid_rect_2,7,07,-1,-1,0.997,0.386111083,-0.259259259,1,0,0,12.283,Gabbro_rect,4,12.283,0,1,0,1,0,1,,,,,,,,,,,,,
6509bd2dd6e135ced062c241,TCR,2024-06-24_14h36.15.168,LearnStrategy,2023.2.3,Win32,59.88023952,8,1,3,0.043518561,-0.019444466,1,0,0,1.6018,rock_grid_rect_2,2,14,-1,-1,1.602,-0.093518504,-0.236111111,1,0,0,10.4514,Basalt_rect,2,10.451,1,2,0,2,0,1,,,,,,,,,,,,,
6509bd2dd6e135ced062c241,TCR,2024-06-24_14h36.15.168,LearnStrategy,2023.2.3,Win32,59.88023952,8,1,4,-0.032407407,0.001851859,1,0,0,1.1289,rock_grid_rect_2,8,04,-1,-1,1.129,0.389814871,-0.402777778,1,0,0,1.2597,Pumice_rect,8,1.26,1,3,0,3,0,1,,,,,,,,,,,,,
6509bd2dd6e135ced062c241,TCR,2024-06-24_14h36.15.168,LearnStrategy,2023.2.3,Win32,59.88023952,8,1,5,0.062962991,-0.005555577,1,0,0,0.981,rock_grid_rect_2,3,08,-1,-1,0.981,0.088888875,-0.242592635,1,0,0,10.9833,Diorite_rect,3,10.983,1,4,0,4,0,1,,,,,,,,,,,,,
6509bd2dd6e135ced062c241,TCR,2024-06-24_14h36.15.168,LearnStrategy,2023.2.3,Win32,59.88023952,8,1,6,-0.032407407,-0.001851859,1,0,0,1.2793,rock_grid_rect_2,6,05,-1,-1,1.279,-0.057407379,-0.400925954,1,0,0,15.1475,Pegmatite_rect,6,15.148,1,5,0,5,0,1,,,,,,,,,,,,,
6509bd2dd6e135ced062c241,TCR,2024-06-24_14h36.15.168,LearnStrategy,2023.2.3,Win32,59.88023952,8,1,7,0.116666653,-0.000925947,1,0,0,1.213,rock_grid_rect_2,7,05,-1,-1,1.213,0.330555527,-0.238888917,1,0,0,10.2515,Gabbro_rect,4,10.251,0,6,0,6,0,1,,,,,,,,,,,,,
6509bd2dd6e135ced062c241,TCR,2024-06-24_14h36.15.168,LearnStrategy,2023.2.3,Win32,59.88023952,8,1,8,-0.030555513,0.001851859,1,0,0,1.705,rock_grid_rect_2,6,05,-1,-1,1.705,-0.150925884,-0.396296325,1,0,0,13.8989,Pegmatite_rect,6,13.899,1,7,0,7,0,1,,,,,,,,,,,,,
6509bd2dd6e135ced062c241,TCR,2024-06-24_14h36.15.168,LearnStrategy,2023.2.3,Win32,59.88023952,8,1,9,-0.007407365,-0.009259259,1,0,0,1.2121,rock_grid_rect_2,2,14,-1,-1,1.212,-0.097222222,-0.235185199,1,0,0,5.2057,Basalt_rect,2,5.206,1,8,0,8,0,1,,,,,,,,,,,,,
6509bd2dd6e135ced062c241,TCR,2024-06-24_14h36.15.168,LearnStrategy,2023.2.3,Win32,59.88023952,8,1,10,-0.009259259,-0.005555577,1,0,0,1.0791,rock_grid_rect_2,4,09,-1,-1,1.079,0.332407492,-0.236111111,1,0,0,11.7997,Gabbro_rect,4,11.8,1,9,0,9,0,1,,,,,,,,,,,,,
6509bd2dd6e135ced062c241,TCR,2024-06-24_14h36.15.168,LearnStrategy,2023.2.3,Win32,59.88023952,8,1,11,0.008333347,-0.009259259,1,0,0,1.1957,rock_grid_rect_2,7,13,-1,-1,1.196,0.113888917,-0.409259302,1,0,0,2.3417,Peridotite_rect,7,2.342,1,10,0,10,0,1,,,,,,,,,,,,,
6509bd2dd6e135ced062c241,TCR,2024-06-24_14h36.15.168,LearnStrategy,2023.2.3,Win32,59.88023952,8,1,12,0.062962991,-0.012962977,1,0,0,1.0784,rock_grid_rect_2,4,14,-1,-1,1.078,0.336111139,-0.249074088,1,0,0,2.8417,Gabbro_rect,4,2.842,1,11,0,11,0,1,,,,,,,,,,,,,
6509bd2dd6e135ced062c241,TCR,2024-06-24_14h36.15.168,LearnStrategy,2023.2.3,Win32,59.88023952,8,1,13,0.029629672,-0.0074074,1,0,0,1.0126,rock_grid_rect_2,2,09,-1,-1,1.013,-0.101851852,-0.255555541,1,0,0,8.2859,Basalt_rect,2,8.286,1,12,0,12,0,1,,,,,,,,,,,,,
6509bd2dd6e135ced062c241,TCR,2024-06-24_14h36.15.168,LearnStrategy,2023.2.3,Win32,59.88023952,8,1,14,-0.024999972,-0.011111118,1,0,0,1.2453,rock_grid_rect_2,1,01,-1,-1,1.245,0.362962935,-0.243518547,1,0,0,8.8029,Gabbro_rect,4,8.803,0,13,0,13,0,1,,,,,,,,,,,,,
6509bd2dd6e135ced062c241,TCR,2024-06-24_14h36.15.168,LearnStrategy,2023.2.3,Win32,59.88023952,8,1,15,-0.050000014,-0.003703718,1,0,0,1.1228,rock_grid_rect_2,5,02,-1,-1,1.123,-0.368518511,-0.405555584,1,0,0,1.3923,Obsidian_rect,5,1.392,1,14,0,14,0,1,,,,,,,,,,,,,
6509bd2dd6e135ced062c241,TCR,2024-06-24_14h36.15.168,LearnStrategy,2023.2.3,Win32,59.88023952,8,1,16,-0.030555513,-0.000925947,1,0,0,1.0632,rock_grid_rect_2,2,06,-1,-1,1.063,-0.142592607,-0.23055557,1,0,0,10.9999,Basalt_rect,2,11,1,15,0,15,0,1,,,,,,,,,,,,,
6509bd2dd6e135ced062c241,TCR,2024-06-24_14h36.15.168,LearnStrategy,2023.2.3,Win32,59.88023952,8,2,1,,,,,,,,4,10,,,,,,,,,,,4,29.616,1,,,,,,0.454629686,-0.25,1,0,0,29.6157,Gabbro_rect,0,0,0,0,1,
6509bd2dd6e135ced062c241,TCR,2024-06-24_14h36.15.168,LearnStrategy,2023.2.3,Win32,59.88023952,8,2,2,,,,,,,,7,12,,,,,,,,,,,3,5.307,0,,,,,,0.158333319,-0.256481524,1,0,0,5.3068,Diorite_rect,1,0,1,0,1,
6509bd2dd6e135ced062c241,TCR,2024-06-24_14h36.15.168,LearnStrategy,2023.2.3,Win32,59.88023952,8,2,3,,,,,,,,2,16,,,,,,,,,,,2,4.323,1,,,,,,-0.223148134,-0.238888917,1,0,0,4.3235,Basalt_rect,2,0,2,0,1,
6509bd2dd6e135ced062c241,TCR,2024-06-24_14h36.15.168,LearnStrategy,2023.2.3,Win32,59.88023952,8,2,4,,,,,,,,5,08,,,,,,,,,,,5,1.342,1,,,,,,-0.375,-0.391666695,1,0,0,1.3419,Obsidian_rect,3,0,3,0,1,
6509bd2dd6e135ced062c241,TCR,2024-06-24_14h36.15.168,LearnStrategy,2023.2.3,Win32,59.88023952,8,2,5,,,,,,,,4,05,,,,,,,,,,,4,37.361,1,,,,,,0.362037094,-0.268518519,1,0,0,37.3614,Gabbro_rect,4,0,4,0,1,
6509bd2dd6e135ced062c241,TCR,2024-06-24_14h36.15.168,LearnStrategy,2023.2.3,Win32,59.88023952,8,2,6,,,,,,,,3,09,,,,,,,,,,,3,3.539,1,,,,,,0.14907406,-0.253703718,1,0,0,3.5388,Diorite_rect,5,0,5,0,1,
6509bd2dd6e135ced062c241,TCR,2024-06-24_14h36.15.168,LearnStrategy,2023.2.3,Win32,59.88023952,8,2,7,,,,,,,,7,08,,,,,,,,,,,4,6.752,0,,,,,,0.366666723,-0.231481481,1,0,0,6.752,Gabbro_rect,6,0,6,0,1,
6509bd2dd6e135ced062c241,TCR,2024-06-24_14h36.15.168,LearnStrategy,2023.2.3,Win32,59.88023952,8,2,8,,,,,,,,8,13,,,,,,,,,,,8,1.227,1,,,,,,0.345370399,-0.39907406,1,0,0,1.2273,Pumice_rect,7,0,7,0,1,
6509bd2dd6e135ced062c241,TCR,2024-06-24_14h36.15.168,LearnStrategy,2023.2.3,Win32,59.88023952,8,2,9,,,,,,,,1,07,,,,,,,,,,,3,7.869,0,,,,,,0.142592607,-0.260185171,1,0,0,7.8685,Diorite_rect,8,0,8,0,1,
6509bd2dd6e135ced062c241,TCR,2024-06-24_14h36.15.168,LearnStrategy,2023.2.3,Win32,59.88023952,8,2,10,,,,,,,,3,06,,,,,,,,,,,3,1.775,1,,,,,,0.125925912,-0.259259259,1,0,0,1.7751,Diorite_rect,9,0,9,0,1,
6509bd2dd6e135ced062c241,TCR,2024-06-24_14h36.15.168,LearnStrategy,2023.2.3,Win32,59.88023952,8,2,11,,,,,,,,1,09,,,,,,,,,,,1,6.62,1,,,,,,-0.317592586,-0.252777806,1,0,0,6.6197,Andesite_rect,10,0,10,0,1,
6509bd2dd6e135ced062c241,TCR,2024-06-24_14h36.15.168,LearnStrategy,2023.2.3,Win32,59.88023952,8,2,12,,,,,,,,6,13,,,,,,,,,,,6,6.253,1,,,,,,-0.184259273,-0.414814843,1,0,0,6.2534,Pegmatite_rect,11,0,11,0,1,
6509bd2dd6e135ced062c241,TCR,2024-06-24_14h36.15.168,LearnStrategy,2023.2.3,Win32,59.88023952,8,2,13,,,,,,,,2,08,,,,,,,,,,,2,27.102,1,,,,,,-0.088888875,-0.232407393,1,0,0,27.1024,Basalt_rect,12,0,12,0,1,
6509bd2dd6e135ced062c241,TCR,2024-06-24_14h36.15.168,LearnStrategy,2023.2.3,Win32,59.88023952,8,2,14,,,,,,,,5,09,,,,,,,,,,,5,1.488,1,,,,,,-0.309259238,-0.387037065,1,0,0,1.4884,Obsidian_rect,13,0,13,0,1,
6509bd2dd6e135ced062c241,TCR,2024-06-24_14h36.15.168,LearnStrategy,2023.2.3,Win32,59.88023952,8,2,15,,,,,,,,8,06,,,,,,,,,,,8,1.407,1,,,,,,0.378703788,-0.408333319,1,0,0,1.4073,Pumice_rect,14,0,14,0,1,
6509bd2dd6e135ced062c241,TCR,2024-06-24_14h36.15.168,LearnStrategy,2023.2.3,Win32,59.88023952,8,2,16,,,,,,,,6,09,,,,,,,,,,,6,6.388,1,,,,,,-0.061111097,-0.402777778,1,0,0,6.3884,Pegmatite_rect,15,0,15,0,1,
6509bd2dd6e135ced062c241,TCR,2024-06-24_14h36.15.168,LearnStrategy,2023.2.3,Win32,59.88023952,9,1,1,0.042592578,-0.010185206,1,0,0,1.4961,rock_grid_rect_2,2,14,-1,-1,1.496,-0.111111111,-0.228703746,1,0,0,16.9778,Basalt_rect,2,16.978,1,0,0,0,0,1,,,,,,,,,,,,,
6509bd2dd6e135ced062c241,TCR,2024-06-24_14h36.15.168,LearnStrategy,2023.2.3,Win32,59.88023952,9,1,2,-0.057407379,0.006481489,1,0,0,1.1955,rock_grid_rect_2,7,05,-1,-1,1.195,0.080555598,-0.419444473,1,0,0,20.1092,Peridotite_rect,7,20.109,1,1,0,1,0,1,,,,,,,,,,,,,
6509bd2dd6e135ced062c241,TCR,2024-06-24_14h36.15.168,LearnStrategy,2023.2.3,Win32,59.88023952,9,1,3,0.00462963,-0.0074074,1,0,0,1.5207,rock_grid_rect_2,2,04,-1,-1,1.521,-0.068518533,-0.251851894,1,0,0,9.4365,Basalt_rect,2,9.437,1,2,0,2,0,1,,,,,,,,,,,,,
6509bd2dd6e135ced062c241,TCR,2024-06-24_14h36.15.168,LearnStrategy,2023.2.3,Win32,59.88023952,9,1,4,0.07685188,-0.003703718,1,0,0,1.472,rock_grid_rect_2,7,10,-1,-1,1.472,0.131481524,-0.401851866,1,0,0,5.5886,Peridotite_rect,7,5.589,1,3,0,3,0,1,,,,,,,,,,,,,
6509bd2dd6e135ced062c241,TCR,2024-06-24_14h36.15.168,LearnStrategy,2023.2.3,Win32,59.88023952,9,1,5,-0.044444402,0.013888889,1,0,0,0.9791,rock_grid_rect_2,6,05,-1,-1,0.979,-0.147222236,-0.391666695,1,0,0,12.1161,Pegmatite_rect,6,12.116,1,4,0,4,0,1,,,,,,,,,,,,,
6509bd2dd6e135ced062c241,TCR,2024-06-24_14h36.15.168,LearnStrategy,2023.2.3,Win32,59.88023952,9,1,6,-0.02407406,-0.008333347,1,0,0,1.2293,rock_grid_rect_2,7,07,-1,-1,1.229,0.143518519,-0.397222236,1,0,0,5.9038,Peridotite_rect,7,5.904,1,5,0,5,0,1,,,,,,,,,,,,,
6509bd2dd6e135ced062c241,TCR,2024-06-24_14h36.15.168,LearnStrategy,2023.2.3,Win32,59.88023952,9,1,7,-0.02870369,-0.008333347,1,0,0,1.1633,rock_grid_rect_2,1,06,-1,-1,1.163,-0.361111111,-0.231481481,1,0,0,12.8144,Andesite_rect,1,12.814,1,6,0,6,0,1,,,,,,,,,,,,,
6509bd2dd6e135ced062c241,TCR,2024-06-24_14h36.15.168,LearnStrategy,2023.2.3,Win32,59.88023952,9,1,8,0.077777792,-0.018518519,1,0,0,2.0621,rock_grid_rect_2,8,14,-1,-1,2.062,0.359259288,-0.387037065,1,0,0,2.2086,Pumice_rect,8,2.209,1,7,0,7,0,1,,,,,,,,,,,,,
6509bd2dd6e135ced062c241,TCR,2024-06-24_14h36.15.168,LearnStrategy,2023.2.3,Win32,59.88023952,9,1,9,0.014814801,-0.001851859,1,0,0,1.0124,rock_grid_rect_2,3,16,-1,-1,1.012,0.117592635,-0.241666653,1,0,0,23.7061,Diorite_rect,3,23.706,1,8,0,8,0,1,,,,,,,,,,,,,
6509bd2dd6e135ced062c241,TCR,2024-06-24_14h36.15.168,LearnStrategy,2023.2.3,Win32,59.88023952,9,1,10,0.030555584,0.009259259,1,0,0,2.2283,rock_grid_rect_2,2,10,-1,-1,2.228,0.341666751,-0.237037023,1,0,0,20.4419,Gabbro_rect,4,20.442,0,9,0,9,0,1,,,,,,,,,,,,,
6509bd2dd6e135ced062c241,TCR,2024-06-24_14h36.15.168,LearnStrategy,2023.2.3,Win32,59.88023952,9,1,11,-0.041666667,-0.000925947,1,0,0,1.0627,rock_grid_rect_2,6,08,-1,-1,1.063,-0.068518533,-0.397222236,1,0,0,9.6358,Pegmatite_rect,6,9.636,1,10,0,10,0,1,,,,,,,,,,,,,
6509bd2dd6e135ced062c241,TCR,2024-06-24_14h36.15.168,LearnStrategy,2023.2.3,Win32,59.88023952,9,1,12,-0.029629601,0.001851859,1,0,0,1.238,rock_grid_rect_2,1,10,-1,-1,1.238,-0.331481474,-0.237037023,1,0,0,9.934,Andesite_rect,1,9.934,1,11,0,11,0,1,,,,,,,,,,,,,
6509bd2dd6e135ced062c241,TCR,2024-06-24_14h36.15.168,LearnStrategy,2023.2.3,Win32,59.88023952,9,1,13,0.010185171,-0.014814836,1,0,0,1.4626,rock_grid_rect_2,5,02,-1,-1,1.463,-0.337962963,-0.412037037,1,0,0,2.1092,Obsidian_rect,5,2.109,1,12,0,12,0,1,,,,,,,,,,,,,
6509bd2dd6e135ced062c241,TCR,2024-06-24_14h36.15.168,LearnStrategy,2023.2.3,Win32,59.88023952,9,1,14,-0.003703718,0.000925912,1,0,0,0.896,rock_grid_rect_2,4,14,-1,-1,0.896,0.37962963,-0.270370413,1,0,0,9.9202,Gabbro_rect,4,9.92,1,13,0,13,0,1,,,,,,,,,,,,,
6509bd2dd6e135ced062c241,TCR,2024-06-24_14h36.15.168,LearnStrategy,2023.2.3,Win32,59.88023952,9,1,15,-0.021296254,-0.009259259,1,0,0,1.1622,rock_grid_rect_2,3,11,-1,-1,1.162,0.060185185,-0.241666653,1,0,0,6.9217,Diorite_rect,3,6.922,1,14,0,14,0,1,,,,,,,,,,,,,
6509bd2dd6e135ced062c241,TCR,2024-06-24_14h36.15.168,LearnStrategy,2023.2.3,Win32,59.88023952,9,1,16,-0.050925926,-0.002777771,1,0,0,0.9793,rock_grid_rect_2,7,07,-1,-1,0.979,0.125925912,-0.406481496,1,0,0,4.2231,Peridotite_rect,7,4.223,1,15,0,15,0,1,,,,,,,,,,,,,
6509bd2dd6e135ced062c241,TCR,2024-06-24_14h36.15.168,LearnStrategy,2023.2.3,Win32,59.88023952,9,2,1,,,,,,,,4,11,,,,,,,,,,,1,5.687,0,,,,,,-0.387962942,-0.244444459,1,0,0,5.6868,Andesite_rect,0,0,0,0,1,
6509bd2dd6e135ced062c241,TCR,2024-06-24_14h36.15.168,LearnStrategy,2023.2.3,Win32,59.88023952,9,2,2,,,,,,,,3,14,,,,,,,,,,,3,6.005,1,,,,,,0.123148176,-0.256481524,1,0,0,6.0052,Diorite_rect,1,0,1,0,1,
6509bd2dd6e135ced062c241,TCR,2024-06-24_14h36.15.168,LearnStrategy,2023.2.3,Win32,59.88023952,9,2,3,,,,,,,,6,11,,,,,,,,,,,6,9.8,1,,,,,,-0.091666681,-0.409259302,1,0,0,9.7999,Pegmatite_rect,2,0,2,0,1,
6509bd2dd6e135ced062c241,TCR,2024-06-24_14h36.15.168,LearnStrategy,2023.2.3,Win32,59.88023952,9,2,4,,,,,,,,6,06,,,,,,,,,,,6,9.8,1,,,,,,-0.064814815,-0.408333319,1,0,0,9.8004,Pegmatite_rect,3,0,3,0,1,
6509bd2dd6e135ced062c241,TCR,2024-06-24_14h36.15.168,LearnStrategy,2023.2.3,Win32,59.88023952,9,2,5,,,,,,,,4,15,,,,,,,,,,,6,5.603,0,,,,,,-0.073148162,-0.392592607,1,0,0,5.6034,Pegmatite_rect,4,0,4,0,1,
6509bd2dd6e135ced062c241,TCR,2024-06-24_14h36.15.168,LearnStrategy,2023.2.3,Win32,59.88023952,9,2,6,,,,,,,,2,01,,,,,,,,,,,2,5.704,1,,,,,,-0.110185199,-0.256481524,1,0,0,5.7038,Basalt_rect,5,0,5,0,1,
6509bd2dd6e135ced062c241,TCR,2024-06-24_14h36.15.168,LearnStrategy,2023.2.3,Win32,59.88023952,9,2,7,,,,,,,,8,10,,,,,,,,,,,8,1.474,1,,,,,,0.338888945,-0.395370413,1,0,0,1.4739,Pumice_rect,6,0,6,0,1,
6509bd2dd6e135ced062c241,TCR,2024-06-24_14h36.15.168,LearnStrategy,2023.2.3,Win32,59.88023952,9,2,8,,,,,,,,5,04,,,,,,,,,,,5,1.323,1,,,,,,-0.376851859,-0.412037037,1,0,0,1.3234,Obsidian_rect,7,0,7,0,1,
6509bd2dd6e135ced062c241,TCR,2024-06-24_14h36.15.168,LearnStrategy,2023.2.3,Win32,59.88023952,9,2,9,,,,,,,,8,03,,,,,,,,,,,8,1.043,1,,,,,,0.362037094,-0.401851866,1,0,0,1.0427,Pumice_rect,8,0,8,0,1,
6509bd2dd6e135ced062c241,TCR,2024-06-24_14h36.15.168,LearnStrategy,2023.2.3,Win32,59.88023952,9,2,10,,,,,,,,1,14,,,,,,,,,,,1,14.029,1,,,,,,-0.381481489,-0.262037065,1,0,0,14.0295,Andesite_rect,9,0,9,0,1,
6509bd2dd6e135ced062c241,TCR,2024-06-24_14h36.15.168,LearnStrategy,2023.2.3,Win32,59.88023952,9,2,11,,,,,,,,2,05,,,,,,,,,,,2,16.464,1,,,,,,-0.17777775,-0.255555541,1,0,0,16.4642,Basalt_rect,10,0,10,0,1,
6509bd2dd6e135ced062c241,TCR,2024-06-24_14h36.15.168,LearnStrategy,2023.2.3,Win32,59.88023952,9,2,12,,,,,,,,5,07,,,,,,,,,,,5,3.123,1,,,,,,-0.336111104,-0.39907406,1,0,0,3.1228,Obsidian_rect,11,0,11,0,1,
6509bd2dd6e135ced062c241,TCR,2024-06-24_14h36.15.168,LearnStrategy,2023.2.3,Win32,59.88023952,9,2,13,,,,,,,,7,04,,,,,,,,,,,1,4.106,0,,,,,,-0.323148127,-0.238888917,1,0,0,4.1062,Andesite_rect,12,0,12,0,1,
6509bd2dd6e135ced062c241,TCR,2024-06-24_14h36.15.168,LearnStrategy,2023.2.3,Win32,59.88023952,9,2,14,,,,,,,,3,02,,,,,,,,,,,3,12.647,1,,,,,,0.080555598,-0.252777806,1,0,0,12.6473,Diorite_rect,13,0,13,0,1,
6509bd2dd6e135ced062c241,TCR,2024-06-24_14h36.15.168,LearnStrategy,2023.2.3,Win32,59.88023952,9,2,15,,,,,,,,7,15,,,,,,,,,,,7,2.338,1,,,,,,0.07685188,-0.421296296,1,0,0,2.3385,Peridotite_rect,14,0,14,0,1,
6509bd2dd6e135ced062c241,TCR,2024-06-24_14h36.15.168,LearnStrategy,2023.2.3,Win32,59.88023952,9,2,16,,,,,,,,1,03,,,,,,,,,,,1,3.939,1,,,,,,-0.334259245,-0.249074088,1,0,0,3.9386,Andesite_rect,15,0,15,0,1,
6509bd2dd6e135ced062c241,TCR,2024-06-24_14h36.15.168,LearnStrategy,2023.2.3,Win32,59.88023952,,,,,,,,,,,,,,,,,,,,,,,,,,,,,,,,,,,,,,,,,,,1
6509bd2dd6e135ced062c241,TCR,2024-06-24_14h36.15.168,LearnStrategy,2023.2.3,Win32,59.88023952,,,,,,,,,,,,,,,,,,,,,,,,,,,,,,,,,,,,,,,,,,,
6509bd2dd6e135ced062c241,TCR,2024-06-24_14h36.15.168,LearnStrategy,2023.2.3,Win32,59.88023952,,,,,,,,,,,4,16,1,1,,,,,,,,,,,,,,,,,,,,,,,,,,,,,
6509bd2dd6e135ced062c241,TCR,2024-06-24_14h36.15.168,LearnStrategy,2023.2.3,Win32,59.88023952,,,,,,,,,,,3,16,1,2,,,,,,,,,,,,,,,,,,,,,,,,,,,,,
6509bd2dd6e135ced062c241,TCR,2024-06-24_14h36.15.168,LearnStrategy,2023.2.3,Win32,59.88023952,,,,,,,,,,,4,03,1,3,,,,,,,,,,,,,,,,,,,,,,,,,,,,,
6509bd2dd6e135ced062c241,TCR,2024-06-24_14h36.15.168,LearnStrategy,2023.2.3,Win32,59.88023952,,,,,,,,,,,7,13,1,4,,,,,,,,,,,,,,,,,,,,,,,,,,,,,
6509bd2dd6e135ced062c241,TCR,2024-06-24_14h36.15.168,LearnStrategy,2023.2.3,Win32,59.88023952,,,,,,,,,,,7,02,1,5,,,,,,,,,,,,,,,,,,,,,,,,,,,,,
6509bd2dd6e135ced062c241,TCR,2024-06-24_14h36.15.168,LearnStrategy,2023.2.3,Win32,59.88023952,,,,,,,,,,,6,15,1,6,,,,,,,,,,,,,,,,,,,,,,,,,,,,,
6509bd2dd6e135ced062c241,TCR,2024-06-24_14h36.15.168,LearnStrategy,2023.2.3,Win32,59.88023952,,,,,,,,,,,6,12,1,7,,,,,,,,,,,,,,,,,,,,,,,,,,,,,
6509bd2dd6e135ced062c241,TCR,2024-06-24_14h36.15.168,LearnStrategy,2023.2.3,Win32,59.88023952,,,,,,,,,,,1,02,1,8,,,,,,,,,,,,,,,,,,,,,,,,,,,,,
6509bd2dd6e135ced062c241,TCR,2024-06-24_14h36.15.168,LearnStrategy,2023.2.3,Win32,59.88023952,,,,,,,,,,,1,06,2,1,,,,,,,,,,,,,,,,,,,,,,,,,,,,,
6509bd2dd6e135ced062c241,TCR,2024-06-24_14h36.15.168,LearnStrategy,2023.2.3,Win32,59.88023952,,,,,,,,,,,5,06,2,2,,,,,,,,,,,,,,,,,,,,,,,,,,,,,
6509bd2dd6e135ced062c241,TCR,2024-06-24_14h36.15.168,LearnStrategy,2023.2.3,Win32,59.88023952,,,,,,,,,,,6,08,2,3,,,,,,,,,,,,,,,,,,,,,,,,,,,,,
6509bd2dd6e135ced062c241,TCR,2024-06-24_14h36.15.168,LearnStrategy,2023.2.3,Win32,59.88023952,,,,,,,,,,,8,05,2,4,,,,,,,,,,,,,,,,,,,,,,,,,,,,,
6509bd2dd6e135ced062c241,TCR,2024-06-24_14h36.15.168,LearnStrategy,2023.2.3,Win32,59.88023952,,,,,,,,,,,1,10,2,5,,,,,,,,,,,,,,,,,,,,,,,,,,,,,
6509bd2dd6e135ced062c241,TCR,2024-06-24_14h36.15.168,LearnStrategy,2023.2.3,Win32,59.88023952,,,,,,,,,,,4,08,2,6,,,,,,,,,,,,,,,,,,,,,,,,,,,,,
6509bd2dd6e135ced062c241,TCR,2024-06-24_14h36.15.168,LearnStrategy,2023.2.3,Win32,59.88023952,,,,,,,,,,,7,05,2,7,,,,,,,,,,,,,,,,,,,,,,,,,,,,,
6509bd2dd6e135ced062c241,TCR,2024-06-24_14h36.15.168,LearnStrategy,2023.2.3,Win32,59.88023952,,,,,,,,,,,5,12,2,8,,,,,,,,,,,,,,,,,,,,,,,,,,,,,
6509bd2dd6e135ced062c241,TCR,2024-06-24_14h36.15.168,LearnStrategy,2023.2.3,Win32,59.88023952,,,,,,,,,,,2,04,3,1,,,,,,,,,,,,,,,,,,,,,,,,,,,,,
6509bd2dd6e135ced062c241,TCR,2024-06-24_14h36.15.168,LearnStrategy,2023.2.3,Win32,59.88023952,,,,,,,,,,,3,08,3,2,,,,,,,,,,,,,,,,,,,,,,,,,,,,,
6509bd2dd6e135ced062c241,TCR,2024-06-24_14h36.15.168,LearnStrategy,2023.2.3,Win32,59.88023952,,,,,,,,,,,1,05,3,3,,,,,,,,,,,,,,,,,,,,,,,,,,,,,
6509bd2dd6e135ced062c241,TCR,2024-06-24_14h36.15.168,LearnStrategy,2023.2.3,Win32,59.88023952,,,,,,,,,,,4,14,3,4,,,,,,,,,,,,,,,,,,,,,,,,,,,,,
6509bd2dd6e135ced062c241,TCR,2024-06-24_14h36.15.168,LearnStrategy,2023.2.3,Win32,59.88023952,,,,,,,,,,,2,06,3,5,,,,,,,,,,,,,,,,,,,,,,,,,,,,,
6509bd2dd6e135ced062c241,TCR,2024-06-24_14h36.15.168,LearnStrategy,2023.2.3,Win32,59.88023952,,,,,,,,,,,8,09,3,6,,,,,,,,,,,,,,,,,,,,,,,,,,,,,
6509bd2dd6e135ced062c241,TCR,2024-06-24_14h36.15.168,LearnStrategy,2023.2.3,Win32,59.88023952,,,,,,,,,,,3,13,3,7,,,,,,,,,,,,,,,,,,,,,,,,,,,,,
6509bd2dd6e135ced062c241,TCR,2024-06-24_14h36.15.168,LearnStrategy,2023.2.3,Win32,59.88023952,,,,,,,,,,,3,11,3,8,,,,,,,,,,,,,,,,,,,,,,,,,,,,,
6509bd2dd6e135ced062c241,TCR,2024-06-24_14h36.15.168,LearnStrategy,2023.2.3,Win32,59.88023952,,,,,,,,,,,6,05,4,1,,,,,,,,,,,,,,,,,,,,,,,,,,,,,
6509bd2dd6e135ced062c241,TCR,2024-06-24_14h36.15.168,LearnStrategy,2023.2.3,Win32,59.88023952,,,,,,,,,,,8,14,4,2,,,,,,,,,,,,,,,,,,,,,,,,,,,,,
6509bd2dd6e135ced062c241,TCR,2024-06-24_14h36.15.168,LearnStrategy,2023.2.3,Win32,59.88023952,,,,,,,,,,,8,04,4,3,,,,,,,,,,,,,,,,,,,,,,,,,,,,,
6509bd2dd6e135ced062c241,TCR,2024-06-24_14h36.15.168,LearnStrategy,2023.2.3,Win32,59.88023952,,,,,,,,,,,3,07,4,4,,,,,,,,,,,,,,,,,,,,,,,,,,,,,
6509bd2dd6e135ced062c241,TCR,2024-06-24_14h36.15.168,LearnStrategy,2023.2.3,Win32,59.88023952,,,,,,,,,,,1,01,4,5,,,,,,,,,,,,,,,,,,,,,,,,,,,,,
6509bd2dd6e135ced062c241,TCR,2024-06-24_14h36.15.168,LearnStrategy,2023.2.3,Win32,59.88023952,,,,,,,,,,,5,11,4,6,,,,,,,,,,,,,,,,,,,,,,,,,,,,,
6509bd2dd6e135ced062c241,TCR,2024-06-24_14h36.15.168,LearnStrategy,2023.2.3,Win32,59.88023952,,,,,,,,,,,8,15,4,7,,,,,,,,,,,,,,,,,,,,,,,,,,,,,
6509bd2dd6e135ced062c241,TCR,2024-06-24_14h36.15.168,LearnStrategy,2023.2.3,Win32,59.88023952,,,,,,,,,,,6,03,4,8,,,,,,,,,,,,,,,,,,,,,,,,,,,,,
6509bd2dd6e135ced062c241,TCR,2024-06-24_14h36.15.168,LearnStrategy,2023.2.3,Win32,59.88023952,,,,,,,,,,,1,11,5,1,,,,,,,,,,,,,,,,,,,,,,,,,,,,,
6509bd2dd6e135ced062c241,TCR,2024-06-24_14h36.15.168,LearnStrategy,2023.2.3,Win32,59.88023952,,,,,,,,,,,7,16,5,2,,,,,,,,,,,,,,,,,,,,,,,,,,,,,
6509bd2dd6e135ced062c241,TCR,2024-06-24_14h36.15.168,LearnStrategy,2023.2.3,Win32,59.88023952,,,,,,,,,,,2,09,5,3,,,,,,,,,,,,,,,,,,,,,,,,,,,,,
6509bd2dd6e135ced062c241,TCR,2024-06-24_14h36.15.168,LearnStrategy,2023.2.3,Win32,59.88023952,,,,,,,,,,,4,01,5,4,,,,,,,,,,,,,,,,,,,,,,,,,,,,,
6509bd2dd6e135ced062c241,TCR,2024-06-24_14h36.15.168,LearnStrategy,2023.2.3,Win32,59.88023952,,,,,,,,,,,3,15,5,5,,,,,,,,,,,,,,,,,,,,,,,,,,,,,
6509bd2dd6e135ced062c241,TCR,2024-06-24_14h36.15.168,LearnStrategy,2023.2.3,Win32,59.88023952,,,,,,,,,,,8,08,5,6,,,,,,,,,,,,,,,,,,,,,,,,,,,,,
6509bd2dd6e135ced062c241,TCR,2024-06-24_14h36.15.168,LearnStrategy,2023.2.3,Win32,59.88023952,,,,,,,,,,,2,10,5,7,,,,,,,,,,,,,,,,,,,,,,,,,,,,,
6509bd2dd6e135ced062c241,TCR,2024-06-24_14h36.15.168,LearnStrategy,2023.2.3,Win32,59.88023952,,,,,,,,,,,2,14,5,8,,,,,,,,,,,,,,,,,,,,,,,,,,,,,
6509bd2dd6e135ced062c241,TCR,2024-06-24_14h36.15.168,LearnStrategy,2023.2.3,Win32,59.88023952,,,,,,,,,,,2,02,6,1,,,,,,,,,,,,,,,,,,,,,,,,,,,,,
6509bd2dd6e135ced062c241,TCR,2024-06-24_14h36.15.168,LearnStrategy,2023.2.3,Win32,59.88023952,,,,,,,,,,,4,09,6,2,,,,,,,,,,,,,,,,,,,,,,,,,,,,,
6509bd2dd6e135ced062c241,TCR,2024-06-24_14h36.15.168,LearnStrategy,2023.2.3,Win32,59.88023952,,,,,,,,,,,5,16,6,3,,,,,,,,,,,,,,,,,,,,,,,,,,,,,
6509bd2dd6e135ced062c241,TCR,2024-06-24_14h36.15.168,LearnStrategy,2023.2.3,Win32,59.88023952,,,,,,,,,,,7,07,6,4,,,,,,,,,,,,,,,,,,,,,,,,,,,,,
6509bd2dd6e135ced062c241,TCR,2024-06-24_14h36.15.168,LearnStrategy,2023.2.3,Win32,59.88023952,,,,,,,,,,,6,10,6,5,,,,,,,,,,,,,,,,,,,,,,,,,,,,,
6509bd2dd6e135ced062c241,TCR,2024-06-24_14h36.15.168,LearnStrategy,2023.2.3,Win32,59.88023952,,,,,,,,,,,5,05,6,6,,,,,,,,,,,,,,,,,,,,,,,,,,,,,
6509bd2dd6e135ced062c241,TCR,2024-06-24_14h36.15.168,LearnStrategy,2023.2.3,Win32,59.88023952,,,,,,,,,,,5,02,6,7,,,,,,,,,,,,,,,,,,,,,,,,,,,,,
6509bd2dd6e135ced062c241,TCR,2024-06-24_14h36.15.168,LearnStrategy,2023.2.3,Win32,59.88023952,,,,,,,,,,,7,10,6,8,,,,,,,,,,,,,,,,,,,,,,,,,,,,,