participant,condition,date,expName,psychopyVersion,OS,frameRate,block,phase,trial,learn_mouse.x,learn_mouse.y,learn_mouse.leftButton,learn_mouse.midButton,learn_mouse.rightButton,learn_mouse.time,learn_mouse.clicked_name,cat,token,row,col,t_select,cat_rec,token_rec,cat_mouse_l.x,cat_mouse_l.y,cat_mouse_l.leftButton,cat_mouse_l.midButton,cat_mouse_l.rightButton,cat_mouse_l.time,cat_mouse_l.clicked_name,resp,t_resp,corr,train_trials.thisRepN,train_trials.thisTrialN,train_trials.thisN,train_trials.thisIndex,train_trials.ran,cat_mouse_t.x,cat_mouse_t.y,cat_mouse_t.leftButton,cat_mouse_t.midButton,cat_mouse_t.rightButton,cat_mouse_t.time,cat_mouse_t.clicked_name,test_trials.thisRepN,test_trials.thisTrialN,test_trials.thisN,test_trials.thisIndex,test_trials.ran,Bonus
65181c2f753b188afdddd2c4,SCR,2024-06-21_11h07.32.509,LearnStrategy,2023.2.3,Win32,59.52380952,,,,,,,,,,,,,,,,,,,,,,,,,,,,,,,,,,,,,,,,,,,,,
65181c2f753b188afdddd2c4,SCR,2024-06-21_11h07.32.509,LearnStrategy,2023.2.3,Win32,59.52380952,1,1,1,-0.205092578,0.07870369,1,0,0,3.6659,Gabbro_13,4,13,4,3,3.666,4,13,-0.352777778,-0.393518575,1,0,0,5.6022,Obsidian_rect,5,5.602,0,0,0,0,0,1,,,,,,,,,,,,,
65181c2f753b188afdddd2c4,SCR,2024-06-21_11h07.32.509,LearnStrategy,2023.2.3,Win32,59.52380952,1,1,2,-0.365277778,-0.095370399,1,0,0,1.6626,Andesite_04,1,04,3,2,1.663,1,04,-0.101388889,-0.252314843,1,0,0,3.0754,Basalt_rect,2,3.075,0,1,0,1,0,1,,,,,,,,,,,,,
65181c2f753b188afdddd2c4,SCR,2024-06-21_11h07.32.509,LearnStrategy,2023.2.3,Win32,59.52380952,1,1,3,0.383333333,-0.259259288,1,0,0,1.5483,Obsidian_04,5,04,2,7,1.548,5,04,-0.368981467,-0.390277778,1,0,0,8.5768,Obsidian_rect,5,8.577,1,2,0,2,0,1,,,,,,,,,,,,,
65181c2f753b188afdddd2c4,SCR,2024-06-21_11h07.32.509,LearnStrategy,2023.2.3,Win32,59.52380952,1,1,4,0.553240797,0.392592589,1,0,0,2.0318,Basalt_14,2,14,6,8,2.032,2,14,-0.115740712,-0.25,1,0,0,6.6387,Basalt_rect,2,6.639,1,3,0,3,0,1,,,,,,,,,,,,,
65181c2f753b188afdddd2c4,SCR,2024-06-21_11h07.32.509,LearnStrategy,2023.2.3,Win32,59.52380952,1,1,5,-0.212037023,-0.2625,1,0,0,1.0132,Andesite_01,1,01,2,3,1.013,1,01,-0.439814801,-0.244907464,1,0,0,6.3288,Andesite_rect,1,6.329,1,4,0,4,0,1,,,,,,,,,,,,,
65181c2f753b188afdddd2c4,SCR,2024-06-21_11h07.32.509,LearnStrategy,2023.2.3,Win32,59.52380952,1,1,6,0.349537065,0.090740712,1,0,0,2.1314,Diorite_06,3,06,4,7,2.131,3,06,0.142129686,-0.408333333,1,0,0,11.0921,Peridotite_rect,7,11.092,0,5,0,5,0,1,,,,,,,,,,,,,
65181c2f753b188afdddd2c4,SCR,2024-06-21_11h07.32.509,LearnStrategy,2023.2.3,Win32,59.52380952,1,1,7,0.411574131,-0.398148176,1,0,0,1.3813,Obsidian_16,5,16,1,7,1.381,5,16,-0.363425912,-0.384722222,1,0,0,1.8749,Obsidian_rect,5,1.875,1,6,0,6,0,1,,,,,,,,,,,,,
65181c2f753b188afdddd2c4,SCR,2024-06-21_11h07.32.509,LearnStrategy,2023.2.3,Win32,59.52380952,1,1,8,0.078240797,-0.422685242,1,0,0,1.3976,Pegmatite_09,6,09,1,5,1.398,6,09,0.399537065,-0.398611111,1,0,0,3.5961,Pumice_rect,8,3.596,0,7,0,7,0,1,,,,,,,,,,,,,
65181c2f753b188afdddd2c4,SCR,2024-06-21_11h07.32.509,LearnStrategy,2023.2.3,Win32,59.52380952,1,1,9,-0.233796268,-0.10879631,1,0,0,1.8247,Diorite_14,3,14,3,3,1.825,3,14,-0.107407379,-0.394444444,1,0,0,12.9113,Pegmatite_rect,6,12.911,0,8,0,8,0,1,,,,,,,,,,,,,
65181c2f753b188afdddd2c4,SCR,2024-06-21_11h07.32.509,LearnStrategy,2023.2.3,Win32,59.52380952,1,1,10,0.523148176,0.273148134,1,0,0,2.3801,Peridotite_13,7,13,5,8,2.38,7,13,0.405092621,-0.408333333,1,0,0,5.1929,Pumice_rect,8,5.193,0,9,0,9,0,1,,,,,,,,,,,,,
65181c2f753b188afdddd2c4,SCR,2024-06-21_11h07.32.509,LearnStrategy,2023.2.3,Win32,59.52380952,1,1,11,-0.514351824,-0.228240797,1,0,0,1.6144,Pegmatite_11,6,11,2,1,1.614,6,11,0.417592621,-0.254166667,1,0,0,6.3274,Gabbro_rect,4,6.327,0,10,0,10,0,1,,,,,,,,,,,,,
65181c2f753b188afdddd2c4,SCR,2024-06-21_11h07.32.509,LearnStrategy,2023.2.3,Win32,59.52380952,1,1,12,-0.367129601,-0.403703732,1,0,0,1.131,Peridotite_14,7,14,1,2,1.131,7,14,-0.119907379,-0.260648176,1,0,0,54.5894,Basalt_rect,2,54.589,0,11,0,11,0,1,,,,,,,,,,,,,
65181c2f753b188afdddd2c4,SCR,2024-06-21_11h07.32.509,LearnStrategy,2023.2.3,Win32,59.52380952,1,1,13,-0.401851824,-0.246759288,1,0,0,0.9815,Basalt_11,2,11,2,2,0.981,2,11,-0.096759203,-0.270370399,1,0,0,10.0628,Basalt_rect,2,10.063,1,12,0,12,0,1,,,,,,,,,,,,,
65181c2f753b188afdddd2c4,SCR,2024-06-21_11h07.32.509,LearnStrategy,2023.2.3,Win32,59.52380952,1,1,14,-0.215277778,-0.415740797,1,0,0,0.798,Gabbro_12,4,12,1,3,0.798,4,12,-0.362962935,-0.254166667,1,0,0,4.4926,Andesite_rect,1,4.493,0,13,0,13,0,1,,,,,,,,,,,,,
65181c2f753b188afdddd2c4,SCR,2024-06-21_11h07.32.509,LearnStrategy,2023.2.3,Win32,59.52380952,1,1,15,0.078703732,-0.096759288,1,0,0,1.063,Pumice_13,8,13,3,5,1.063,8,13,0.386111111,-0.399537065,1,0,0,2.0269,Pumice_rect,8,2.027,1,14,0,14,0,1,,,,,,,,,,,,,
65181c2f753b188afdddd2c4,SCR,2024-06-21_11h07.32.509,LearnStrategy,2023.2.3,Win32,59.52380952,1,1,16,0.388888889,0.246296289,1,0,0,1.2981,Pumice_10,8,10,5,7,1.298,8,10,-0.087036981,-0.251851908,1,0,0,3.6543,Basalt_rect,2,3.654,0,15,0,15,0,1,,,,,,,,,,,,,
65181c2f753b188afdddd2c4,SCR,2024-06-21_11h07.32.509,LearnStrategy,2023.2.3,Win32,59.52380952,1,2,1,,,,,,,,5,14,,,,,,,,,,,,,2,2.526,0,,,,,,-0.160185157,-0.267129686,1,0,0,2.5264,Basalt_rect,0,0,0,0,1,
65181c2f753b188afdddd2c4,SCR,2024-06-21_11h07.32.509,LearnStrategy,2023.2.3,Win32,59.52380952,1,2,2,,,,,,,,8,05,,,,,,,,,,,,,1,12.428,0,,,,,,-0.364814801,-0.260648176,1,0,0,12.4279,Andesite_rect,1,0,1,0,1,
65181c2f753b188afdddd2c4,SCR,2024-06-21_11h07.32.509,LearnStrategy,2023.2.3,Win32,59.52380952,1,2,3,,,,,,,,1,14,,,,,,,,,,,,,3,8.395,0,,,,,,0.143055556,-0.243055556,1,0,0,8.3953,Diorite_rect,2,0,2,0,1,
65181c2f753b188afdddd2c4,SCR,2024-06-21_11h07.32.509,LearnStrategy,2023.2.3,Win32,59.52380952,1,2,4,,,,,,,,7,02,,,,,,,,,,,,,2,12.067,0,,,,,,-0.126851824,-0.256018575,1,0,0,12.0674,Basalt_rect,3,0,3,0,1,
65181c2f753b188afdddd2c4,SCR,2024-06-21_11h07.32.509,LearnStrategy,2023.2.3,Win32,59.52380952,1,2,5,,,,,,,,3,09,,,,,,,,,,,,,3,3.894,1,,,,,,0.133333333,-0.24398151,1,0,0,3.8938,Diorite_rect,4,0,4,0,1,
65181c2f753b188afdddd2c4,SCR,2024-06-21_11h07.32.509,LearnStrategy,2023.2.3,Win32,59.52380952,1,2,6,,,,,,,,4,09,,,,,,,,,,,,,5,1.149,0,,,,,,-0.443981467,-0.412963019,1,0,0,1.1492,Obsidian_rect,5,0,5,0,1,
65181c2f753b188afdddd2c4,SCR,2024-06-21_11h07.32.509,LearnStrategy,2023.2.3,Win32,59.52380952,1,2,7,,,,,,,,8,16,,,,,,,,,,,,,4,5.062,0,,,,,,0.377777778,-0.259722222,1,0,0,5.0619,Gabbro_rect,6,0,6,0,1,
65181c2f753b188afdddd2c4,SCR,2024-06-21_11h07.32.509,LearnStrategy,2023.2.3,Win32,59.52380952,1,2,8,,,,,,,,3,07,,,,,,,,,,,,,6,10.728,0,,,,,,-0.078240712,-0.409259288,1,0,0,10.728,Pegmatite_rect,7,0,7,0,1,
65181c2f753b188afdddd2c4,SCR,2024-06-21_11h07.32.509,LearnStrategy,2023.2.3,Win32,59.52380952,1,2,9,,,,,,,,6,08,,,,,,,,,,,,,5,7.06,0,,,,,,-0.376388889,-0.412037065,1,0,0,7.0602,Obsidian_rect,8,0,8,0,1,
65181c2f753b188afdddd2c4,SCR,2024-06-21_11h07.32.509,LearnStrategy,2023.2.3,Win32,59.52380952,1,2,10,,,,,,,,7,10,,,,,,,,,,,,,2,16.179,0,,,,,,-0.117129601,-0.270370399,1,0,0,16.1793,Basalt_rect,9,0,9,0,1,
65181c2f753b188afdddd2c4,SCR,2024-06-21_11h07.32.509,LearnStrategy,2023.2.3,Win32,59.52380952,1,2,11,,,,,,,,2,04,,,,,,,,,,,,,5,1.402,0,,,,,,-0.326851824,-0.383796353,1,0,0,1.4022,Obsidian_rect,10,0,10,0,1,
65181c2f753b188afdddd2c4,SCR,2024-06-21_11h07.32.509,LearnStrategy,2023.2.3,Win32,59.52380952,1,2,12,,,,,,,,2,16,,,,,,,,,,,,,4,1.445,0,,,,,,0.361574131,-0.230555556,1,0,0,1.4447,Gabbro_rect,11,0,11,0,1,
65181c2f753b188afdddd2c4,SCR,2024-06-21_11h07.32.509,LearnStrategy,2023.2.3,Win32,59.52380952,1,2,13,,,,,,,,1,10,,,,,,,,,,,,,1,3.428,1,,,,,,-0.36851849,-0.246759288,1,0,0,3.4283,Andesite_rect,12,0,12,0,1,
65181c2f753b188afdddd2c4,SCR,2024-06-21_11h07.32.509,LearnStrategy,2023.2.3,Win32,59.52380952,1,2,14,,,,,,,,6,12,,,,,,,,,,,,,6,6.314,1,,,,,,-0.061574046,-0.391666667,1,0,0,6.3142,Pegmatite_rect,13,0,13,0,1,
65181c2f753b188afdddd2c4,SCR,2024-06-21_11h07.32.509,LearnStrategy,2023.2.3,Win32,59.52380952,1,2,15,,,,,,,,4,01,,,,,,,,,,,,,8,6.813,0,,,,,,0.482407464,-0.382870399,1,0,0,6.8127,Pumice_rect,14,0,14,0,1,
65181c2f753b188afdddd2c4,SCR,2024-06-21_11h07.32.509,LearnStrategy,2023.2.3,Win32,59.52380952,1,2,16,,,,,,,,5,10,,,,,,,,,,,,,5,1.604,1,,,,,,-0.375462935,-0.393518575,1,0,0,1.604,Obsidian_rect,15,0,15,0,1,
65181c2f753b188afdddd2c4,SCR,2024-06-21_11h07.32.509,LearnStrategy,2023.2.3,Win32,59.52380952,2,1,1,-0.580092578,-0.105092621,1,0,0,2.0819,Pegmatite_05,6,05,3,1,2.082,6,05,-0.323611111,-0.404166667,1,0,0,2.8482,Obsidian_rect,5,2.848,0,0,0,0,0,1,,,,,,,,,,,,,
65181c2f753b188afdddd2c4,SCR,2024-06-21_11h07.32.509,LearnStrategy,2023.2.3,Win32,59.52380952,2,1,2,-0.0625,-0.384722222,1,0,0,1.2968,Peridotite_15,7,15,1,4,1.297,7,15,-0.098611111,-0.240740797,1,0,0,4.9983,Basalt_rect,2,4.998,0,1,0,1,0,1,,,,,,,,,,,,,
65181c2f753b188afdddd2c4,SCR,2024-06-21_11h07.32.509,LearnStrategy,2023.2.3,Win32,59.52380952,2,1,3,0.553240797,-0.258333333,1,0,0,1.6315,Gabbro_11,4,11,2,8,1.631,4,11,-0.420370356,-0.391666667,1,0,0,2.226,Obsidian_rect,5,2.226,0,2,0,2,0,1,,,,,,,,,,,,,
65181c2f753b188afdddd2c4,SCR,2024-06-21_11h07.32.509,LearnStrategy,2023.2.3,Win32,59.52380952,2,1,4,0.094444444,0.434722222,1,0,0,1.7205,Pumice_15,8,15,6,5,1.721,8,15,0.351851908,-0.240740797,1,0,0,4.2303,Gabbro_rect,4,4.23,0,3,0,3,0,1,,,,,,,,,,,,,
65181c2f753b188afdddd2c4,SCR,2024-06-21_11h07.32.509,LearnStrategy,2023.2.3,Win32,59.52380952,2,1,5,-0.060648092,0.446759256,1,0,0,0.6978,Obsidian_11,5,11,6,4,0.698,5,11,-0.447222222,-0.381944444,1,0,0,1.1091,Obsidian_rect,5,1.109,1,4,0,4,0,1,,,,,,,,,,,,,
65181c2f753b188afdddd2c4,SCR,2024-06-21_11h07.32.509,LearnStrategy,2023.2.3,Win32,59.52380952,2,1,6,0.101388889,0.065740712,1,0,0,0.8153,Andesite_11,1,11,4,5,0.815,1,11,-0.323148134,-0.260648176,1,0,0,2.0452,Andesite_rect,1,2.045,1,5,0,5,0,1,,,,,,,,,,,,,
65181c2f753b188afdddd2c4,SCR,2024-06-21_11h07.32.509,LearnStrategy,2023.2.3,Win32,59.52380952,2,1,7,-0.365277778,0.238888889,1,0,0,0.8785,Basalt_05,2,05,5,2,0.879,2,05,-0.368055556,-0.394444444,1,0,0,5.1782,Obsidian_rect,5,5.178,0,6,0,6,0,1,,,,,,,,,,,,,
65181c2f753b188afdddd2c4,SCR,2024-06-21_11h07.32.509,LearnStrategy,2023.2.3,Win32,59.52380952,2,1,8,0.50648151,-0.237963019,1,0,0,0.9985,Gabbro_11,4,11,2,8,0.999,4,11,0.102777778,-0.389351908,1,0,0,4.1647,Peridotite_rect,7,4.165,0,7,0,7,0,1,,,,,,,,,,,,,
65181c2f753b188afdddd2c4,SCR,2024-06-21_11h07.32.509,LearnStrategy,2023.2.3,Win32,59.52380952,2,1,9,0.429629686,0.258796289,1,0,0,1.4317,Pumice_10,8,10,5,7,1.432,8,10,0.375925954,-0.389814843,1,0,0,1.4357,Pumice_rect,8,1.436,1,8,0,8,0,1,,,,,,,,,,,,,
65181c2f753b188afdddd2c4,SCR,2024-06-21_11h07.32.509,LearnStrategy,2023.2.3,Win32,59.52380952,2,1,10,-0.071296268,-0.115277778,1,0,0,1.1989,Basalt_09,2,09,3,4,1.199,2,09,-0.406944444,-0.245833333,1,0,0,5.127,Andesite_rect,1,5.127,0,9,0,9,0,1,,,,,,,,,,,,,
65181c2f753b188afdddd2c4,SCR,2024-06-21_11h07.32.509,LearnStrategy,2023.2.3,Win32,59.52380952,2,1,11,-0.36620369,-0.383333333,1,0,0,0.9983,Peridotite_14,7,14,1,2,0.998,7,14,-0.133333333,-0.39398151,1,0,0,4.5933,Pegmatite_rect,6,4.593,0,10,0,10,0,1,,,,,,,,,,,,,
65181c2f753b188afdddd2c4,SCR,2024-06-21_11h07.32.509,LearnStrategy,2023.2.3,Win32,59.52380952,2,1,12,-0.357870356,0.101388889,1,0,0,1.2144,Gabbro_16,4,16,4,2,1.214,4,16,0.086574131,-0.249537065,1,0,0,7.5446,Diorite_rect,3,7.545,0,11,0,11,0,1,,,,,,,,,,,,,
65181c2f753b188afdddd2c4,SCR,2024-06-21_11h07.32.509,LearnStrategy,2023.2.3,Win32,59.52380952,2,1,13,0.39398151,0.415740739,1,0,0,1.0295,Pumice_09,8,09,6,7,1.029,8,09,0.342592621,-0.386574131,1,0,0,1.8101,Pumice_rect,8,1.81,1,12,0,12,0,1,,,,,,,,,,,,,
65181c2f753b188afdddd2c4,SCR,2024-06-21_11h07.32.509,LearnStrategy,2023.2.3,Win32,59.52380952,2,1,14,0.390740797,-0.085648176,1,0,0,1.0651,Diorite_15,3,15,3,7,1.065,3,15,0.299074131,-0.243518575,1,0,0,5.4609,Gabbro_rect,4,5.461,0,13,0,13,0,1,,,,,,,,,,,,,
65181c2f753b188afdddd2c4,SCR,2024-06-21_11h07.32.509,LearnStrategy,2023.2.3,Win32,59.52380952,2,1,15,-0.213888889,0.24120369,1,0,0,0.8636,Obsidian_12,5,12,5,3,0.864,5,12,-0.353240712,-0.387037065,1,0,0,0.742,Obsidian_rect,5,0.742,1,14,0,14,0,1,,,,,,,,,,,,,
65181c2f753b188afdddd2c4,SCR,2024-06-21_11h07.32.509,LearnStrategy,2023.2.3,Win32,59.52380952,2,1,16,0.252314843,-0.094444444,1,0,0,1.0479,Basalt_06,2,06,3,6,1.048,2,06,-0.400462935,-0.393518575,1,0,0,1.6097,Obsidian_rect,5,1.61,0,15,0,15,0,1,,,,,,,,,,,,,
65181c2f753b188afdddd2c4,SCR,2024-06-21_11h07.32.509,LearnStrategy,2023.2.3,Win32,59.52380952,2,2,1,,,,,,,,1,09,,,,,,,,,,,,,7,11.311,0,,,,,,0.053703732,-0.390277778,1,0,0,11.3107,Peridotite_rect,0,0,0,0,1,
65181c2f753b188afdddd2c4,SCR,2024-06-21_11h07.32.509,LearnStrategy,2023.2.3,Win32,59.52380952,2,2,2,,,,,,,,3,08,,,,,,,,,,,,,2,8.411,0,,,,,,-0.080555556,-0.251388889,1,0,0,8.4112,Basalt_rect,1,0,1,0,1,
65181c2f753b188afdddd2c4,SCR,2024-06-21_11h07.32.509,LearnStrategy,2023.2.3,Win32,59.52380952,2,2,3,,,,,,,,2,01,,,,,,,,,,,,,1,2.402,0,,,,,,-0.352314801,-0.248148176,1,0,0,2.4021,Andesite_rect,2,0,2,0,1,
65181c2f753b188afdddd2c4,SCR,2024-06-21_11h07.32.509,LearnStrategy,2023.2.3,Win32,59.52380952,2,2,4,,,,,,,,4,10,,,,,,,,,,,,,3,9.33,0,,,,,,0.162037065,-0.267129686,1,0,0,9.3295,Diorite_rect,3,0,3,0,1,
65181c2f753b188afdddd2c4,SCR,2024-06-21_11h07.32.509,LearnStrategy,2023.2.3,Win32,59.52380952,2,2,5,,,,,,,,3,10,,,,,,,,,,,,,7,5.802,0,,,,,,0.107870399,-0.395370399,1,0,0,5.8025,Peridotite_rect,4,0,4,0,1,
65181c2f753b188afdddd2c4,SCR,2024-06-21_11h07.32.509,LearnStrategy,2023.2.3,Win32,59.52380952,2,2,6,,,,,,,,6,13,,,,,,,,,,,,,3,3.362,0,,,,,,0.169907464,-0.251851908,1,0,0,3.3616,Diorite_rect,5,0,5,0,1,
65181c2f753b188afdddd2c4,SCR,2024-06-21_11h07.32.509,LearnStrategy,2023.2.3,Win32,59.52380952,2,2,7,,,,,,,,8,02,,,,,,,,,,,,,8,1.377,1,,,,,,0.354166667,-0.391666667,1,0,0,1.3769,Pumice_rect,6,0,6,0,1,
65181c2f753b188afdddd2c4,SCR,2024-06-21_11h07.32.509,LearnStrategy,2023.2.3,Win32,59.52380952,2,2,8,,,,,,,,4,03,,,,,,,,,,,,,3,3.966,0,,,,,,0.208796353,-0.257870399,1,0,0,3.9659,Diorite_rect,7,0,7,0,1,
65181c2f753b188afdddd2c4,SCR,2024-06-21_11h07.32.509,LearnStrategy,2023.2.3,Win32,59.52380952,2,2,9,,,,,,,,7,16,,,,,,,,,,,,,4,5.029,0,,,,,,0.346759288,-0.256018575,1,0,0,5.0292,Gabbro_rect,8,0,8,0,1,
65181c2f753b188afdddd2c4,SCR,2024-06-21_11h07.32.509,LearnStrategy,2023.2.3,Win32,59.52380952,2,2,10,,,,,,,,8,03,,,,,,,,,,,,,6,4.344,0,,,,,,-0.086111111,-0.408796353,1,0,0,4.3442,Pegmatite_rect,9,0,9,0,1,
65181c2f753b188afdddd2c4,SCR,2024-06-21_11h07.32.509,LearnStrategy,2023.2.3,Win32,59.52380952,2,2,11,,,,,,,,7,08,,,,,,,,,,,,,2,3.279,0,,,,,,-0.045370314,-0.253703732,1,0,0,3.2793,Basalt_rect,10,0,10,0,1,
65181c2f753b188afdddd2c4,SCR,2024-06-21_11h07.32.509,LearnStrategy,2023.2.3,Win32,59.52380952,2,2,12,,,,,,,,5,02,,,,,,,,,,,,,5,1.233,1,,,,,,-0.425,-0.389814843,1,0,0,1.2329,Obsidian_rect,11,0,11,0,1,
65181c2f753b188afdddd2c4,SCR,2024-06-21_11h07.32.509,LearnStrategy,2023.2.3,Win32,59.52380952,2,2,13,,,,,,,,1,06,,,,,,,,,,,,,3,2.564,0,,,,,,0.157870399,-0.249074131,1,0,0,2.5639,Diorite_rect,12,0,12,0,1,
65181c2f753b188afdddd2c4,SCR,2024-06-21_11h07.32.509,LearnStrategy,2023.2.3,Win32,59.52380952,2,2,14,,,,,,,,2,10,,,,,,,,,,,,,1,2.19,0,,,,,,-0.372685157,-0.234722222,1,0,0,2.1896,Andesite_rect,13,0,13,0,1,
65181c2f753b188afdddd2c4,SCR,2024-06-21_11h07.32.509,LearnStrategy,2023.2.3,Win32,59.52380952,2,2,15,,,,,,,,5,09,,,,,,,,,,,,,5,1.962,1,,,,,,-0.39351849,-0.383333333,1,0,0,1.9622,Obsidian_rect,14,0,14,0,1,
65181c2f753b188afdddd2c4,SCR,2024-06-21_11h07.32.509,LearnStrategy,2023.2.3,Win32,59.52380952,2,2,16,,,,,,,,6,03,,,,,,,,,,,,,7,6.713,0,,,,,,0.101388889,-0.381018575,1,0,0,6.7126,Peridotite_rect,15,0,15,0,1,
65181c2f753b188afdddd2c4,SCR,2024-06-21_11h07.32.509,LearnStrategy,2023.2.3,Win32,59.52380952,3,1,1,-0.395370356,0.091666667,1,0,0,14.2161,Gabbro_16,4,16,4,2,14.216,4,16,0.380092621,-0.256944444,1,0,0,27.1211,Gabbro_rect,4,27.121,1,0,0,0,0,1,,,,,,,,,,,,,
65181c2f753b188afdddd2c4,SCR,2024-06-21_11h07.32.509,LearnStrategy,2023.2.3,Win32,59.52380952,3,1,2,-0.418981467,-0.401388889,1,0,0,1.7138,Peridotite_14,7,14,1,2,1.714,7,14,0.121296353,-0.25,1,0,0,5.0777,Diorite_rect,3,5.078,0,1,0,1,0,1,,,,,,,,,,,,,
65181c2f753b188afdddd2c4,SCR,2024-06-21_11h07.32.509,LearnStrategy,2023.2.3,Win32,59.52380952,3,1,3,0.58703715,-0.385648176,1,0,0,1.1647,Pegmatite_16,6,16,1,8,1.165,6,16,-0.125,-0.421296353,1,0,0,10.6434,Pegmatite_rect,6,10.643,1,2,0,2,0,1,,,,,,,,,,,,,
65181c2f753b188afdddd2c4,SCR,2024-06-21_11h07.32.509,LearnStrategy,2023.2.3,Win32,59.52380952,3,1,4,-0.423611111,-0.111111111,1,0,0,1.1476,Andesite_04,1,04,3,2,1.148,1,04,-0.355555556,-0.240740797,1,0,0,1.864,Andesite_rect,1,1.864,1,3,0,3,0,1,,,,,,,,,,,,,
65181c2f753b188afdddd2c4,SCR,2024-06-21_11h07.32.509,LearnStrategy,2023.2.3,Win32,59.52380952,3,1,5,-0.094444444,-0.4125,1,0,0,1.0162,Peridotite_15,7,15,1,4,1.016,7,15,0.125925954,-0.260648176,1,0,0,2.7276,Diorite_rect,3,2.728,0,4,0,4,0,1,,,,,,,,,,,,,
65181c2f753b188afdddd2c4,SCR,2024-06-21_11h07.32.509,LearnStrategy,2023.2.3,Win32,59.52380952,3,1,6,0.405092621,0.451388889,1,0,0,1.4312,Pumice_09,8,09,6,7,1.431,8,09,0.370833333,-0.402314843,1,0,0,1.7941,Pumice_rect,8,1.794,1,5,0,5,0,1,,,,,,,,,,,,,
65181c2f753b188afdddd2c4,SCR,2024-06-21_11h07.32.509,LearnStrategy,2023.2.3,Win32,59.52380952,3,1,7,-0.215277778,0.432870367,1,0,0,0.9984,Diorite_13,3,13,6,3,0.998,3,13,-0.103240712,-0.246296353,1,0,0,5.8271,Basalt_rect,2,5.827,0,6,0,6,0,1,,,,,,,,,,,,,
65181c2f753b188afdddd2c4,SCR,2024-06-21_11h07.32.509,LearnStrategy,2023.2.3,Win32,59.52380952,3,1,8,-0.363425912,0.281944444,1,0,0,0.8477,Basalt_05,2,05,5,2,0.848,2,05,-0.366666667,-0.235185242,1,0,0,1.677,Andesite_rect,1,1.677,0,7,0,7,0,1,,,,,,,,,,,,,
65181c2f753b188afdddd2c4,SCR,2024-06-21_11h07.32.509,LearnStrategy,2023.2.3,Win32,59.52380952,3,1,9,-0.282870356,0.134259245,1,0,0,0.8154,Gabbro_13,4,13,4,3,0.815,4,13,0.157407464,-0.261574131,1,0,0,7.5499,Diorite_rect,3,7.55,0,8,0,8,0,1,,,,,,,,,,,,,
65181c2f753b188afdddd2c4,SCR,2024-06-21_11h07.32.509,LearnStrategy,2023.2.3,Win32,59.52380952,3,1,10,-0.185185157,-0.084259288,1,0,0,0.5801,Diorite_14,3,14,3,3,0.58,3,14,-0.215277778,-0.402314843,1,0,0,4.2433,Pegmatite_rect,6,4.243,0,9,0,9,0,1,,,,,,,,,,,,,
65181c2f753b188afdddd2c4,SCR,2024-06-21_11h07.32.509,LearnStrategy,2023.2.3,Win32,59.52380952,3,1,11,-0.042129601,-0.081018533,1,0,0,0.5321,Basalt_09,2,09,3,4,0.532,2,09,-0.334259245,-0.229629686,1,0,0,0.8273,Andesite_rect,1,0.827,0,10,0,10,0,1,,,,,,,,,,,,,
65181c2f753b188afdddd2c4,SCR,2024-06-21_11h07.32.509,LearnStrategy,2023.2.3,Win32,59.52380952,3,1,12,-0.207407379,0.24120369,1,0,0,0.8152,Obsidian_12,5,12,5,3,0.815,5,12,-0.357407379,-0.39398151,1,0,0,1.1423,Obsidian_rect,5,1.142,1,11,0,11,0,1,,,,,,,,,,,,,
65181c2f753b188afdddd2c4,SCR,2024-06-21_11h07.32.509,LearnStrategy,2023.2.3,Win32,59.52380952,3,1,13,0.058796353,0.387037034,1,0,0,1.2486,Pumice_15,8,15,6,5,1.249,8,15,0.375,-0.259722222,1,0,0,5.5117,Gabbro_rect,4,5.512,0,12,0,12,0,1,,,,,,,,,,,,,
65181c2f753b188afdddd2c4,SCR,2024-06-21_11h07.32.509,LearnStrategy,2023.2.3,Win32,59.52380952,3,1,14,-0.056481425,0.10601849,1,0,0,0.5301,Basalt_02,2,02,4,4,0.53,2,02,-0.049536981,-0.239351908,1,0,0,5.3434,Basalt_rect,2,5.343,1,13,0,13,0,1,,,,,,,,,,,,,
65181c2f753b188afdddd2c4,SCR,2024-06-21_11h07.32.509,LearnStrategy,2023.2.3,Win32,59.52380952,3,1,15,-0.550925912,0.091666667,1,0,0,0.9128,Andesite_16,1,16,4,1,0.913,1,16,0.102777778,-0.388425954,1,0,0,4.2434,Peridotite_rect,7,4.243,0,14,0,14,0,1,,,,,,,,,,,,,
65181c2f753b188afdddd2c4,SCR,2024-06-21_11h07.32.509,LearnStrategy,2023.2.3,Win32,59.52380952,3,1,16,0.547685242,-0.385185242,1,0,0,1.5477,Pegmatite_16,6,16,1,8,1.548,6,16,0.319907464,-0.265740797,1,0,0,6.1931,Gabbro_rect,4,6.193,0,15,0,15,0,1,,,,,,,,,,,,,
65181c2f753b188afdddd2c4,SCR,2024-06-21_11h07.32.509,LearnStrategy,2023.2.3,Win32,59.52380952,3,2,1,,,,,,,,6,10,,,,,,,,,,,,,1,57.903,0,,,,,,-0.352777778,-0.244444444,1,0,0,57.9033,Andesite_rect,0,0,0,0,1,
65181c2f753b188afdddd2c4,SCR,2024-06-21_11h07.32.509,LearnStrategy,2023.2.3,Win32,59.52380952,3,2,2,,,,,,,,5,07,,,,,,,,,,,,,5,1.645,1,,,,,,-0.347222222,-0.4125,1,0,0,1.6451,Obsidian_rect,1,0,1,0,1,
65181c2f753b188afdddd2c4,SCR,2024-06-21_11h07.32.509,LearnStrategy,2023.2.3,Win32,59.52380952,3,2,3,,,,,,,,2,08,,,,,,,,,,,,,2,2.078,1,,,,,,-0.065740712,-0.251388889,1,0,0,2.0775,Basalt_rect,2,0,2,0,1,
65181c2f753b188afdddd2c4,SCR,2024-06-21_11h07.32.509,LearnStrategy,2023.2.3,Win32,59.52380952,3,2,4,,,,,,,,8,06,,,,,,,,,,,,,8,2.323,1,,,,,,0.3875,-0.394907464,1,0,0,2.3226,Pumice_rect,3,0,3,0,1,
65181c2f753b188afdddd2c4,SCR,2024-06-21_11h07.32.509,LearnStrategy,2023.2.3,Win32,59.52380952,3,2,5,,,,,,,,6,06,,,,,,,,,,,,,7,6.26,0,,,,,,0.139351908,-0.387037065,1,0,0,6.2604,Peridotite_rect,4,0,4,0,1,
65181c2f753b188afdddd2c4,SCR,2024-06-21_11h07.32.509,LearnStrategy,2023.2.3,Win32,59.52380952,3,2,6,,,,,,,,5,08,,,,,,,,,,,,,5,0.994,1,,,,,,-0.368981467,-0.406944444,1,0,0,0.9936,Obsidian_rect,5,0,5,0,1,
65181c2f753b188afdddd2c4,SCR,2024-06-21_11h07.32.509,LearnStrategy,2023.2.3,Win32,59.52380952,3,2,7,,,,,,,,1,07,,,,,,,,,,,,,7,5.015,0,,,,,,0.083796353,-0.383796353,1,0,0,5.0149,Peridotite_rect,6,0,6,0,1,
65181c2f753b188afdddd2c4,SCR,2024-06-21_11h07.32.509,LearnStrategy,2023.2.3,Win32,59.52380952,3,2,8,,,,,,,,3,11,,,,,,,,,,,,,7,1.476,0,,,,,,0.107870399,-0.415277778,1,0,0,1.4759,Peridotite_rect,7,0,7,0,1,
65181c2f753b188afdddd2c4,SCR,2024-06-21_11h07.32.509,LearnStrategy,2023.2.3,Win32,59.52380952,3,2,9,,,,,,,,4,14,,,,,,,,,,,,,4,3.644,1,,,,,,0.416666667,-0.255092621,1,0,0,3.6445,Gabbro_rect,8,0,8,0,1,
65181c2f753b188afdddd2c4,SCR,2024-06-21_11h07.32.509,LearnStrategy,2023.2.3,Win32,59.52380952,3,2,10,,,,,,,,8,08,,,,,,,,,,,,,8,3.077,1,,,,,,0.370833333,-0.385648176,1,0,0,3.0769,Pumice_rect,9,0,9,0,1,
65181c2f753b188afdddd2c4,SCR,2024-06-21_11h07.32.509,LearnStrategy,2023.2.3,Win32,59.52380952,3,2,11,,,,,,,,2,12,,,,,,,,,,,,,3,3.012,0,,,,,,0.185648176,-0.256018575,1,0,0,3.0122,Diorite_rect,10,0,10,0,1,
65181c2f753b188afdddd2c4,SCR,2024-06-21_11h07.32.509,LearnStrategy,2023.2.3,Win32,59.52380952,3,2,12,,,,,,,,1,05,,,,,,,,,,,,,3,0.962,0,,,,,,0.182870399,-0.256018575,1,0,0,0.9622,Diorite_rect,11,0,11,0,1,
65181c2f753b188afdddd2c4,SCR,2024-06-21_11h07.32.509,LearnStrategy,2023.2.3,Win32,59.52380952,3,2,13,,,,,,,,3,16,,,,,,,,,,,,,6,2.962,0,,,,,,-0.064351824,-0.389351908,1,0,0,2.9621,Pegmatite_rect,12,0,12,0,1,
65181c2f753b188afdddd2c4,SCR,2024-06-21_11h07.32.509,LearnStrategy,2023.2.3,Win32,59.52380952,3,2,14,,,,,,,,7,05,,,,,,,,,,,,,3,2.677,0,,,,,,0.073148176,-0.269444444,1,0,0,2.6767,Diorite_rect,13,0,13,0,1,
65181c2f753b188afdddd2c4,SCR,2024-06-21_11h07.32.509,LearnStrategy,2023.2.3,Win32,59.52380952,3,2,15,,,,,,,,7,04,,,,,,,,,,,,,7,6.778,1,,,,,,0.083333333,-0.401388889,1,0,0,6.7785,Peridotite_rect,14,0,14,0,1,
65181c2f753b188afdddd2c4,SCR,2024-06-21_11h07.32.509,LearnStrategy,2023.2.3,Win32,59.52380952,3,2,16,,,,,,,,4,05,,,,,,,,,,,,,3,2.527,0,,,,,,0.129629686,-0.245833333,1,0,0,2.5271,Diorite_rect,15,0,15,0,1,
65181c2f753b188afdddd2c4,SCR,2024-06-21_11h07.32.509,LearnStrategy,2023.2.3,Win32,59.52380952,4,1,1,-0.401851824,-0.247685242,1,0,0,1.3324,Basalt_11,2,11,2,2,1.332,2,11,0.363425954,-0.263888889,1,0,0,7.5122,Gabbro_rect,4,7.512,0,0,0,0,0,1,,,,,,,,,,,,,
65181c2f753b188afdddd2c4,SCR,2024-06-21_11h07.32.509,LearnStrategy,2023.2.3,Win32,59.52380952,4,1,2,0.597222222,-0.385648176,1,0,0,1.1638,Pegmatite_16,6,16,1,8,1.164,6,16,0.032870399,-0.401388889,1,0,0,5.4267,Peridotite_rect,7,5.427,0,1,0,1,0,1,,,,,,,,,,,,,
65181c2f753b188afdddd2c4,SCR,2024-06-21_11h07.32.509,LearnStrategy,2023.2.3,Win32,59.52380952,4,1,3,-0.241666667,0.3912037,1,0,0,0.98,Diorite_13,3,13,6,3,0.98,3,13,0.08148151,-0.268518575,1,0,0,3.2932,Diorite_rect,3,3.293,1,2,0,2,0,1,,,,,,,,,,,,,
65181c2f753b188afdddd2c4,SCR,2024-06-21_11h07.32.509,LearnStrategy,2023.2.3,Win32,59.52380952,4,1,4,0.434722222,-0.41898151,1,0,0,1.1322,Obsidian_16,5,16,1,7,1.132,5,16,-0.317129601,-0.3875,1,0,0,1.188,Obsidian_rect,5,1.188,1,3,0,3,0,1,,,,,,,,,,,,,
65181c2f753b188afdddd2c4,SCR,2024-06-21_11h07.32.509,LearnStrategy,2023.2.3,Win32,59.52380952,4,1,5,-0.57870369,0.1,1,0,0,0.9651,Andesite_16,1,16,4,1,0.965,1,16,0.104629686,-0.243055556,1,0,0,6.8283,Diorite_rect,3,6.828,0,4,0,4,0,1,,,,,,,,,,,,,
65181c2f753b188afdddd2c4,SCR,2024-06-21_11h07.32.509,LearnStrategy,2023.2.3,Win32,59.52380952,4,1,6,-0.208796268,-0.243518575,1,0,0,1.0138,Andesite_01,1,01,2,3,1.014,1,01,-0.096296268,-0.255092621,1,0,0,2.5939,Basalt_rect,2,2.594,0,5,0,5,0,1,,,,,,,,,,,,,
65181c2f753b188afdddd2c4,SCR,2024-06-21_11h07.32.509,LearnStrategy,2023.2.3,Win32,59.52380952,4,1,7,-0.5625,-0.400925954,1,0,0,1.1964,Andesite_03,1,03,1,1,1.196,1,03,-0.152314758,-0.229166667,1,0,0,3.7102,Basalt_rect,2,3.71,0,6,0,6,0,1,,,,,,,,,,,,,
65181c2f753b188afdddd2c4,SCR,2024-06-21_11h07.32.509,LearnStrategy,2023.2.3,Win32,59.52380952,4,1,8,0.546759372,0.260648134,1,0,0,1.0981,Peridotite_13,7,13,5,8,1.098,7,13,0.354166667,-0.238425954,1,0,0,3.8777,Gabbro_rect,4,3.878,0,7,0,7,0,1,,,,,,,,,,,,,
65181c2f753b188afdddd2c4,SCR,2024-06-21_11h07.32.509,LearnStrategy,2023.2.3,Win32,59.52380952,4,1,9,-0.225925912,0.082407379,1,0,0,0.8154,Gabbro_13,4,13,4,3,0.815,4,13,0.364351908,-0.242129686,1,0,0,8.5313,Gabbro_rect,4,8.531,1,8,0,8,0,1,,,,,,,,,,,,,
65181c2f753b188afdddd2c4,SCR,2024-06-21_11h07.32.509,LearnStrategy,2023.2.3,Win32,59.52380952,4,1,10,0.399537065,0.077314801,1,0,0,0.8805,Diorite_06,3,06,4,7,0.88,3,06,0.151388889,-0.252777778,1,0,0,1.0929,Diorite_rect,3,1.093,1,9,0,9,0,1,,,,,,,,,,,,,
65181c2f753b188afdddd2c4,SCR,2024-06-21_11h07.32.509,LearnStrategy,2023.2.3,Win32,59.52380952,4,1,11,0.527777778,-0.379629686,1,0,0,1.2985,Pegmatite_16,6,16,1,8,1.299,6,16,0.144444444,-0.385185242,1,0,0,8.5947,Peridotite_rect,7,8.595,0,10,0,10,0,1,,,,,,,,,,,,,
65181c2f753b188afdddd2c4,SCR,2024-06-21_11h07.32.509,LearnStrategy,2023.2.3,Win32,59.52380952,4,1,12,-0.038425869,-0.30648151,1,0,0,0.696,Peridotite_06,7,06,2,4,0.696,7,06,0.176388889,-0.259722222,1,0,0,5.0933,Diorite_rect,3,5.093,0,11,0,11,0,1,,,,,,,,,,,,,
65181c2f753b188afdddd2c4,SCR,2024-06-21_11h07.32.509,LearnStrategy,2023.2.3,Win32,59.52380952,4,1,13,0.097685242,0.446759256,1,0,0,0.9815,Pumice_15,8,15,6,5,0.982,8,15,0.418518575,-0.4125,1,0,0,2.175,Pumice_rect,8,2.175,1,12,0,12,0,1,,,,,,,,,,,,,
65181c2f753b188afdddd2c4,SCR,2024-06-21_11h07.32.509,LearnStrategy,2023.2.3,Win32,59.52380952,4,1,14,-0.207407379,0.095833333,1,0,0,0.6986,Gabbro_13,4,13,4,3,0.699,4,13,-0.366666667,-0.244444444,1,0,0,7.6272,Andesite_rect,1,7.627,0,13,0,13,0,1,,,,,,,,,,,,,
65181c2f753b188afdddd2c4,SCR,2024-06-21_11h07.32.509,LearnStrategy,2023.2.3,Win32,59.52380952,4,1,15,-0.367129601,0.375462956,1,0,0,1.0641,Diorite_02,3,02,6,2,1.064,3,02,0.349074131,-0.385648176,1,0,0,3.0768,Pumice_rect,8,3.077,0,14,0,14,0,1,,,,,,,,,,,,,
65181c2f753b188afdddd2c4,SCR,2024-06-21_11h07.32.509,LearnStrategy,2023.2.3,Win32,59.52380952,4,1,16,-0.070833333,-0.099537065,1,0,0,0.6812,Basalt_09,2,09,3,4,0.681,2,09,-0.104629601,-0.247685242,1,0,0,1.7582,Basalt_rect,2,1.758,1,15,0,15,0,1,,,,,,,,,,,,,
65181c2f753b188afdddd2c4,SCR,2024-06-21_11h07.32.509,LearnStrategy,2023.2.3,Win32,59.52380952,4,2,1,,,,,,,,8,06,,,,,,,,,,,,,8,1.455,1,,,,,,0.438425954,-0.384259288,1,0,0,1.455,Pumice_rect,0,0,0,0,1,
65181c2f753b188afdddd2c4,SCR,2024-06-21_11h07.32.509,LearnStrategy,2023.2.3,Win32,59.52380952,4,2,2,,,,,,,,1,10,,,,,,,,,,,,,1,3.43,1,,,,,,-0.293055556,-0.240277778,1,0,0,3.43,Andesite_rect,1,0,1,0,1,
65181c2f753b188afdddd2c4,SCR,2024-06-21_11h07.32.509,LearnStrategy,2023.2.3,Win32,59.52380952,4,2,3,,,,,,,,5,02,,,,,,,,,,,,,5,0.944,1,,,,,,-0.341666667,-0.397685242,1,0,0,0.9444,Obsidian_rect,2,0,2,0,1,
65181c2f753b188afdddd2c4,SCR,2024-06-21_11h07.32.509,LearnStrategy,2023.2.3,Win32,59.52380952,4,2,4,,,,,,,,2,01,,,,,,,,,,,,,2,3.654,1,,,,,,-0.150925869,-0.263425954,1,0,0,3.6538,Basalt_rect,3,0,3,0,1,
65181c2f753b188afdddd2c4,SCR,2024-06-21_11h07.32.509,LearnStrategy,2023.2.3,Win32,59.52380952,4,2,5,,,,,,,,6,06,,,,,,,,,,,,,7,1.71,0,,,,,,0.024537065,-0.400925954,1,0,0,1.7104,Peridotite_rect,4,0,4,0,1,
65181c2f753b188afdddd2c4,SCR,2024-06-21_11h07.32.509,LearnStrategy,2023.2.3,Win32,59.52380952,4,2,6,,,,,,,,3,07,,,,,,,,,,,,,3,3.044,1,,,,,,0.097222222,-0.256018575,1,0,0,3.0438,Diorite_rect,5,0,5,0,1,
65181c2f753b188afdddd2c4,SCR,2024-06-21_11h07.32.509,LearnStrategy,2023.2.3,Win32,59.52380952,4,2,7,,,,,,,,5,09,,,,,,,,,,,,,5,1.059,1,,,,,,-0.373148134,-0.402314843,1,0,0,1.0593,Obsidian_rect,6,0,6,0,1,
65181c2f753b188afdddd2c4,SCR,2024-06-21_11h07.32.509,LearnStrategy,2023.2.3,Win32,59.52380952,4,2,8,,,,,,,,6,13,,,,,,,,,,,,,7,2.828,0,,,,,,0.119907464,-0.392592621,1,0,0,2.828,Peridotite_rect,7,0,7,0,1,
65181c2f753b188afdddd2c4,SCR,2024-06-21_11h07.32.509,LearnStrategy,2023.2.3,Win32,59.52380952,4,2,9,,,,,,,,1,09,,,,,,,,,,,,,8,33.347,0,,,,,,0.445370399,-0.39398151,1,0,0,33.3471,Pumice_rect,8,0,8,0,1,
65181c2f753b188afdddd2c4,SCR,2024-06-21_11h07.32.509,LearnStrategy,2023.2.3,Win32,59.52380952,4,2,10,,,,,,,,2,08,,,,,,,,,,,,,2,2.528,1,,,,,,-0.152777778,-0.263425954,1,0,0,2.5281,Basalt_rect,9,0,9,0,1,
65181c2f753b188afdddd2c4,SCR,2024-06-21_11h07.32.509,LearnStrategy,2023.2.3,Win32,59.52380952,4,2,11,,,,,,,,8,03,,,,,,,,,,,,,8,1.311,1,,,,,,0.424537065,-0.401388889,1,0,0,1.3106,Pumice_rect,10,0,10,0,1,
65181c2f753b188afdddd2c4,SCR,2024-06-21_11h07.32.509,LearnStrategy,2023.2.3,Win32,59.52380952,4,2,12,,,,,,,,4,10,,,,,,,,,,,,,4,3.163,1,,,,,,0.393055556,-0.247222222,1,0,0,3.1626,Gabbro_rect,11,0,11,0,1,
65181c2f753b188afdddd2c4,SCR,2024-06-21_11h07.32.509,LearnStrategy,2023.2.3,Win32,59.52380952,4,2,13,,,,,,,,3,11,,,,,,,,,,,,,6,1.783,0,,,,,,-0.123148092,-0.416666667,1,0,0,1.7828,Pegmatite_rect,12,0,12,0,1,
65181c2f753b188afdddd2c4,SCR,2024-06-21_11h07.32.509,LearnStrategy,2023.2.3,Win32,59.52380952,4,2,14,,,,,,,,7,04,,,,,,,,,,,,,7,1.362,1,,,,,,0.133333333,-0.386111111,1,0,0,1.362,Peridotite_rect,13,0,13,0,1,
65181c2f753b188afdddd2c4,SCR,2024-06-21_11h07.32.509,LearnStrategy,2023.2.3,Win32,59.52380952,4,2,15,,,,,,,,7,08,,,,,,,,,,,,,3,1.611,0,,,,,,0.150925954,-0.25648151,1,0,0,1.6109,Diorite_rect,14,0,14,0,1,
65181c2f753b188afdddd2c4,SCR,2024-06-21_11h07.32.509,LearnStrategy,2023.2.3,Win32,59.52380952,4,2,16,,,,,,,,4,05,,,,,,,,,,,,,3,0.945,0,,,,,,0.119907464,-0.260185242,1,0,0,0.9446,Diorite_rect,15,0,15,0,1,
65181c2f753b188afdddd2c4,SCR,2024-06-21_11h07.32.509,LearnStrategy,2023.2.3,Win32,59.52380952,5,1,1,-0.041666667,-0.390277778,1,0,0,1.8479,Peridotite_15,7,15,1,4,1.848,7,15,0.149074131,-0.392592621,1,0,0,198.9615,Peridotite_rect,7,198.962,1,0,0,0,0,1,,,,,,,,,,,,,
65181c2f753b188afdddd2c4,SCR,2024-06-21_11h07.32.509,LearnStrategy,2023.2.3,Win32,59.52380952,5,1,2,-0.595370356,0.427314811,1,0,0,1.3635,Diorite_12,3,12,6,1,1.363,3,12,-0.06851849,-0.390740797,1,0,0,1.6772,Pegmatite_rect,6,1.677,0,1,0,1,0,1,,,,,,,,,,,,,
65181c2f753b188afdddd2c4,SCR,2024-06-21_11h07.32.509,LearnStrategy,2023.2.3,Win32,59.52380952,5,1,3,-0.522685157,-0.085648176,1,0,0,0.9648,Pegmatite_05,6,05,3,1,0.965,6,05,-0.387962935,-0.381944444,1,0,0,0.9981,Obsidian_rect,5,0.998,0,2,0,2,0,1,,,,,,,,,,,,,
65181c2f753b188afdddd2c4,SCR,2024-06-21_11h07.32.509,LearnStrategy,2023.2.3,Win32,59.52380952,5,1,4,-0.585648134,0.426388889,1,0,0,0.9987,Diorite_12,3,12,6,1,0.999,3,12,0.0875,-0.236574131,1,0,0,3.6633,Diorite_rect,3,3.663,1,3,0,3,0,1,,,,,,,,,,,,,
65181c2f753b188afdddd2c4,SCR,2024-06-21_11h07.32.509,LearnStrategy,2023.2.3,Win32,59.52380952,5,1,5,-0.261574046,0.435648145,1,0,0,0.8489,Diorite_13,3,13,6,3,0.849,3,13,0.142592621,-0.407870399,1,0,0,5.8795,Peridotite_rect,7,5.88,0,4,0,4,0,1,,,,,,,,,,,,,
65181c2f753b188afdddd2c4,SCR,2024-06-21_11h07.32.509,LearnStrategy,2023.2.3,Win32,59.52380952,5,1,6,0.075,0.295370356,1,0,0,1.0464,Andesite_02,1,02,5,5,1.046,1,02,0.413425954,-0.249074131,1,0,0,4.9644,Gabbro_rect,4,4.964,0,5,0,5,0,1,,,,,,,,,,,,,
65181c2f753b188afdddd2c4,SCR,2024-06-21_11h07.32.509,LearnStrategy,2023.2.3,Win32,59.52380952,5,1,7,0.575926039,0.418981478,1,0,0,0.8977,Basalt_14,2,14,6,8,0.898,2,14,0.407870399,-0.267592621,1,0,0,1.7772,Gabbro_rect,4,1.777,0,6,0,6,0,1,,,,,,,,,,,,,
65181c2f753b188afdddd2c4,SCR,2024-06-21_11h07.32.509,LearnStrategy,2023.2.3,Win32,59.52380952,5,1,8,-0.53101849,0.121296268,1,0,0,1.1306,Andesite_16,1,16,4,1,1.131,1,16,0.084259288,-0.419907464,1,0,0,2.6444,Peridotite_rect,7,2.644,0,7,0,7,0,1,,,,,,,,,,,,,
65181c2f753b188afdddd2c4,SCR,2024-06-21_11h07.32.509,LearnStrategy,2023.2.3,Win32,59.52380952,5,1,9,-0.081944444,0.425,1,0,0,0.8319,Obsidian_11,5,11,6,4,0.832,5,11,-0.4125,-0.407407464,1,0,0,0.6687,Obsidian_rect,5,0.669,1,8,0,8,0,1,,,,,,,,,,,,,
65181c2f753b188afdddd2c4,SCR,2024-06-21_11h07.32.509,LearnStrategy,2023.2.3,Win32,59.52380952,5,1,10,-0.267592578,0.100925912,1,0,0,0.648,Gabbro_13,4,13,4,3,0.648,4,13,0.399537065,-0.243055556,1,0,0,5.145,Gabbro_rect,4,5.145,1,9,0,9,0,1,,,,,,,,,,,,,
65181c2f753b188afdddd2c4,SCR,2024-06-21_11h07.32.509,LearnStrategy,2023.2.3,Win32,59.52380952,5,1,11,-0.087036981,0.287962956,1,0,0,0.5801,Pegmatite_07,6,07,5,4,0.58,6,07,0.152314843,-0.229166667,1,0,0,1.8112,Diorite_rect,3,1.811,0,10,0,10,0,1,,,,,,,,,,,,,
65181c2f753b188afdddd2c4,SCR,2024-06-21_11h07.32.509,LearnStrategy,2023.2.3,Win32,59.52380952,5,1,12,0.032870399,0.388888889,1,0,0,0.6651,Pumice_15,8,15,6,5,0.665,8,15,0.385185242,-0.254629686,1,0,0,8.1765,Gabbro_rect,4,8.176,0,11,0,11,0,1,,,,,,,,,,,,,
65181c2f753b188afdddd2c4,SCR,2024-06-21_11h07.32.509,LearnStrategy,2023.2.3,Win32,59.52380952,5,1,13,0.531944444,-0.240277778,1,0,0,1.1645,Gabbro_11,4,11,2,8,1.165,4,11,-0.149074046,-0.252314843,1,0,0,2.344,Basalt_rect,2,2.344,0,12,0,12,0,1,,,,,,,,,,,,,
65181c2f753b188afdddd2c4,SCR,2024-06-21_11h07.32.509,LearnStrategy,2023.2.3,Win32,59.52380952,5,1,14,0.573148261,-0.397685242,1,0,0,1.0481,Pegmatite_16,6,16,1,8,1.048,6,16,-0.355092578,-0.240277778,1,0,0,0.9942,Andesite_rect,1,0.994,0,13,0,13,0,1,,,,,,,,,,,,,
65181c2f753b188afdddd2c4,SCR,2024-06-21_11h07.32.509,LearnStrategy,2023.2.3,Win32,59.52380952,5,1,15,-0.067592536,0.093055556,1,0,0,0.5322,Basalt_02,2,02,4,4,0.532,2,02,-0.368981467,-0.251388889,1,0,0,0.7826,Andesite_rect,1,0.783,0,14,0,14,0,1,,,,,,,,,,,,,
65181c2f753b188afdddd2c4,SCR,2024-06-21_11h07.32.509,LearnStrategy,2023.2.3,Win32,59.52380952,5,1,16,-0.053703647,-0.241666667,1,0,0,0.7824,Peridotite_06,7,06,2,4,0.782,7,06,0.189814843,-0.250925954,1,0,0,3.7952,Diorite_rect,3,3.795,0,15,0,15,0,1,,,,,,,,,,,,,
65181c2f753b188afdddd2c4,SCR,2024-06-21_11h07.32.509,LearnStrategy,2023.2.3,Win32,59.52380952,5,2,1,,,,,,,,3,08,,,,,,,,,,,,,3,1.779,1,,,,,,0.144444444,-0.239814843,1,0,0,1.7787,Diorite_rect,0,0,0,0,1,
65181c2f753b188afdddd2c4,SCR,2024-06-21_11h07.32.509,LearnStrategy,2023.2.3,Win32,59.52380952,5,2,2,,,,,,,,6,12,,,,,,,,,,,,,1,2.077,0,,,,,,-0.340277778,-0.258333333,1,0,0,2.077,Andesite_rect,1,0,1,0,1,
65181c2f753b188afdddd2c4,SCR,2024-06-21_11h07.32.509,LearnStrategy,2023.2.3,Win32,59.52380952,5,2,3,,,,,,,,6,03,,,,,,,,,,,,,6,2.506,1,,,,,,-0.059722222,-0.411111111,1,0,0,2.5061,Pegmatite_rect,2,0,2,0,1,
65181c2f753b188afdddd2c4,SCR,2024-06-21_11h07.32.509,LearnStrategy,2023.2.3,Win32,59.52380952,5,2,4,,,,,,,,8,02,,,,,,,,,,,,,8,1.043,1,,,,,,0.342129686,-0.391203732,1,0,0,1.0433,Pumice_rect,3,0,3,0,1,
65181c2f753b188afdddd2c4,SCR,2024-06-21_11h07.32.509,LearnStrategy,2023.2.3,Win32,59.52380952,5,2,5,,,,,,,,4,14,,,,,,,,,,,,,4,2.282,1,,,,,,0.377777778,-0.25,1,0,0,2.282,Gabbro_rect,4,0,4,0,1,
65181c2f753b188afdddd2c4,SCR,2024-06-21_11h07.32.509,LearnStrategy,2023.2.3,Win32,59.52380952,5,2,6,,,,,,,,5,07,,,,,,,,,,,,,5,2.095,1,,,,,,-0.395370356,-0.395370399,1,0,0,2.0948,Obsidian_rect,5,0,5,0,1,
65181c2f753b188afdddd2c4,SCR,2024-06-21_11h07.32.509,LearnStrategy,2023.2.3,Win32,59.52380952,5,2,7,,,,,,,,1,05,,,,,,,,,,,,,7,3.077,0,,,,,,0.025925954,-0.388888889,1,0,0,3.077,Peridotite_rect,6,0,6,0,1,
65181c2f753b188afdddd2c4,SCR,2024-06-21_11h07.32.509,LearnStrategy,2023.2.3,Win32,59.52380952,5,2,8,,,,,,,,2,12,,,,,,,,,,,,,8,3.247,0,,,,,,0.332870399,-0.402777778,1,0,0,3.2465,Pumice_rect,7,0,7,0,1,
65181c2f753b188afdddd2c4,SCR,2024-06-21_11h07.32.509,LearnStrategy,2023.2.3,Win32,59.52380952,5,2,9,,,,,,,,5,10,,,,,,,,,,,,,5,1.11,1,,,,,,-0.427777778,-0.408333333,1,0,0,1.1098,Obsidian_rect,8,0,8,0,1,
65181c2f753b188afdddd2c4,SCR,2024-06-21_11h07.32.509,LearnStrategy,2023.2.3,Win32,59.52380952,5,2,10,,,,,,,,1,06,,,,,,,,,,,,,1,2.129,1,,,,,,-0.374074046,-0.254166667,1,0,0,2.1293,Andesite_rect,9,0,9,0,1,
65181c2f753b188afdddd2c4,SCR,2024-06-21_11h07.32.509,LearnStrategy,2023.2.3,Win32,59.52380952,5,2,11,,,,,,,,4,09,,,,,,,,,,,,,4,6.112,1,,,,,,0.432870399,-0.255555556,1,0,0,6.1116,Gabbro_rect,10,0,10,0,1,
65181c2f753b188afdddd2c4,SCR,2024-06-21_11h07.32.509,LearnStrategy,2023.2.3,Win32,59.52380952,5,2,12,,,,,,,,7,05,,,,,,,,,,,,,3,1.909,0,,,,,,0.160185242,-0.245833333,1,0,0,1.9094,Diorite_rect,11,0,11,0,1,
65181c2f753b188afdddd2c4,SCR,2024-06-21_11h07.32.509,LearnStrategy,2023.2.3,Win32,59.52380952,5,2,13,,,,,,,,2,16,,,,,,,,,,,,,2,1.421,1,,,,,,-0.109259203,-0.253703732,1,0,0,1.4208,Basalt_rect,12,0,12,0,1,
65181c2f753b188afdddd2c4,SCR,2024-06-21_11h07.32.509,LearnStrategy,2023.2.3,Win32,59.52380952,5,2,14,,,,,,,,7,10,,,,,,,,,,,,,7,2.078,1,,,,,,0.087963019,-0.379629686,1,0,0,2.078,Peridotite_rect,13,0,13,0,1,
65181c2f753b188afdddd2c4,SCR,2024-06-21_11h07.32.509,LearnStrategy,2023.2.3,Win32,59.52380952,5,2,15,,,,,,,,8,16,,,,,,,,,,,,,8,2.696,1,,,,,,0.381018575,-0.390740797,1,0,0,2.6956,Pumice_rect,14,0,14,0,1,
65181c2f753b188afdddd2c4,SCR,2024-06-21_11h07.32.509,LearnStrategy,2023.2.3,Win32,59.52380952,5,2,16,,,,,,,,3,10,,,,,,,,,,,,,6,2.615,0,,,,,,-0.090277778,-0.40648151,1,0,0,2.6152,Pegmatite_rect,15,0,15,0,1,
65181c2f753b188afdddd2c4,SCR,2024-06-21_11h07.32.509,LearnStrategy,2023.2.3,Win32,59.52380952,6,1,1,0.590740797,0.119444444,1,0,0,1.4138,Peridotite_07,7,07,4,8,1.414,7,07,-0.0875,-0.405555556,1,0,0,2.6827,Pegmatite_rect,6,2.683,0,0,0,0,0,1,,,,,,,,,,,,,
65181c2f753b188afdddd2c4,SCR,2024-06-21_11h07.32.509,LearnStrategy,2023.2.3,Win32,59.52380952,6,1,2,0.053703732,-0.098148176,1,0,0,0.9975,Pumice_13,8,13,3,5,0.997,8,13,-0.056944444,-0.25,1,0,0,4.7284,Basalt_rect,2,4.728,0,1,0,1,0,1,,,,,,,,,,,,,
65181c2f753b188afdddd2c4,SCR,2024-06-21_11h07.32.509,LearnStrategy,2023.2.3,Win32,59.52380952,6,1,3,-0.383333333,0.244444444,1,0,0,0.8975,Basalt_05,2,05,5,2,0.898,2,05,-0.449537023,-0.249537065,1,0,0,1.0604,Andesite_rect,1,1.06,0,2,0,2,0,1,,,,,,,,,,,,,
65181c2f753b188afdddd2c4,SCR,2024-06-21_11h07.32.509,LearnStrategy,2023.2.3,Win32,59.52380952,6,1,4,0.434722222,0.126388889,1,0,0,0.8376,Diorite_06,3,06,4,7,0.838,3,06,-0.379166667,-0.257407464,1,0,0,0.9371,Andesite_rect,1,0.937,0,3,0,3,0,1,,,,,,,,,,,,,
65181c2f753b188afdddd2c4,SCR,2024-06-21_11h07.32.509,LearnStrategy,2023.2.3,Win32,59.52380952,6,1,5,0.100925954,0.250925912,1,0,0,0.7483,Andesite_02,1,02,5,5,0.748,1,02,-0.356481467,-0.242592621,1,0,0,1.9809,Andesite_rect,1,1.981,1,4,0,4,0,1,,,,,,,,,,,,,
65181c2f753b188afdddd2c4,SCR,2024-06-21_11h07.32.509,LearnStrategy,2023.2.3,Win32,59.52380952,6,1,6,-0.089351824,-0.416666667,1,0,0,0.915,Peridotite_15,7,15,1,4,0.915,7,15,0.091666667,-0.412037065,1,0,0,0.9435,Peridotite_rect,7,0.943,1,5,0,5,0,1,,,,,,,,,,,,,
65181c2f753b188afdddd2c4,SCR,2024-06-21_11h07.32.509,LearnStrategy,2023.2.3,Win32,59.52380952,6,1,7,0.1125,0.062962935,1,0,0,0.7041,Andesite_11,1,11,4,5,0.704,6,15,-0.385648134,-0.389351908,1,0,0,1.6208,Obsidian_rect,5,1.621,0,6,0,6,0,1,,,,,,,,,,,,,
65181c2f753b188afdddd2c4,SCR,2024-06-21_11h07.32.509,LearnStrategy,2023.2.3,Win32,59.52380952,6,1,8,-0.514814801,0.247222222,1,0,0,0.9648,Gabbro_08,4,08,5,1,0.965,4,08,-0.366666667,-0.229629686,1,0,0,2.3761,Andesite_rect,1,2.376,0,7,0,7,0,1,,,,,,,,,,,,,
65181c2f753b188afdddd2c4,SCR,2024-06-21_11h07.32.509,LearnStrategy,2023.2.3,Win32,59.52380952,6,1,9,0.224537065,0.093981467,1,0,0,0.6969,Pegmatite_15,6,15,4,6,0.697,6,15,0.201851908,-0.409259288,1,0,0,2.3764,Peridotite_rect,7,2.376,0,8,0,8,0,1,,,,,,,,,,,,,
65181c2f753b188afdddd2c4,SCR,2024-06-21_11h07.32.509,LearnStrategy,2023.2.3,Win32,59.52380952,6,1,10,-0.517592578,-0.090740755,1,0,0,0.9146,Pegmatite_05,6,05,3,1,0.915,6,05,0.095833333,-0.411574131,1,0,0,1.4775,Peridotite_rect,7,1.477,0,9,0,9,0,1,,,,,,,,,,,,,
65181c2f753b188afdddd2c4,SCR,2024-06-21_11h07.32.509,LearnStrategy,2023.2.3,Win32,59.52380952,6,1,11,-0.05601849,-0.255555556,1,0,0,0.7324,Peridotite_06,7,06,2,4,0.732,7,06,0.080555556,-0.228240797,1,0,0,4.1436,Diorite_rect,3,4.144,0,10,0,10,0,1,,,,,,,,,,,,,
65181c2f753b188afdddd2c4,SCR,2024-06-21_11h07.32.509,LearnStrategy,2023.2.3,Win32,59.52380952,6,1,12,-0.395833333,-0.107870399,1,0,0,0.8306,Andesite_04,1,04,3,2,0.831,1,04,0.341203732,-0.258333333,1,0,0,3.5927,Gabbro_rect,4,3.593,0,11,0,11,0,1,,,,,,,,,,,,,
65181c2f753b188afdddd2c4,SCR,2024-06-21_11h07.32.509,LearnStrategy,2023.2.3,Win32,59.52380952,6,1,13,-0.235648134,0.418055556,1,0,0,0.8629,Diorite_13,3,13,6,3,0.863,3,13,0.09398151,-0.241203732,1,0,0,1.6937,Diorite_rect,3,1.694,1,12,0,12,0,1,,,,,,,,,,,,,
65181c2f753b188afdddd2c4,SCR,2024-06-21_11h07.32.509,LearnStrategy,2023.2.3,Win32,59.52380952,6,1,14,-0.34120369,0.114351824,1,0,0,0.7488,Gabbro_16,4,16,4,2,0.749,4,16,-0.153240712,-0.250925954,1,0,0,1.6102,Basalt_rect,2,1.61,0,13,0,13,0,1,,,,,,,,,,,,,
65181c2f753b188afdddd2c4,SCR,2024-06-21_11h07.32.509,LearnStrategy,2023.2.3,Win32,59.52380952,6,1,15,0.35648151,0.085185157,1,0,0,0.9993,Diorite_06,3,06,4,7,0.999,3,06,-0.344444444,-0.247685242,1,0,0,1.0607,Andesite_rect,1,1.061,0,14,0,14,0,1,,,,,,,,,,,,,
65181c2f753b188afdddd2c4,SCR,2024-06-21_11h07.32.509,LearnStrategy,2023.2.3,Win32,59.52380952,6,1,16,-0.058796268,-0.09629631,1,0,0,0.5653,Basalt_09,2,09,3,4,0.565,2,09,-0.326388889,-0.25,1,0,0,2.443,Andesite_rect,1,2.443,0,15,0,15,0,1,,,,,,,,,,,,,
65181c2f753b188afdddd2c4,SCR,2024-06-21_11h07.32.509,LearnStrategy,2023.2.3,Win32,59.52380952,6,2,1,,,,,,,,3,09,,,,,,,,,,,,,6,50.931,0,,,,,,-0.089814758,-0.4,1,0,0,50.9314,Pegmatite_rect,0,0,0,0,1,
65181c2f753b188afdddd2c4,SCR,2024-06-21_11h07.32.509,LearnStrategy,2023.2.3,Win32,59.52380952,6,2,2,,,,,,,,4,01,,,,,,,,,,,,,2,4.529,0,,,,,,-0.080092536,-0.247685242,1,0,0,4.5289,Basalt_rect,1,0,1,0,1,
65181c2f753b188afdddd2c4,SCR,2024-06-21_11h07.32.509,LearnStrategy,2023.2.3,Win32,59.52380952,6,2,3,,,,,,,,3,16,,,,,,,,,,,,,3,2.63,1,,,,,,0.150463019,-0.261574131,1,0,0,2.6305,Diorite_rect,2,0,2,0,1,
65181c2f753b188afdddd2c4,SCR,2024-06-21_11h07.32.509,LearnStrategy,2023.2.3,Win32,59.52380952,6,2,4,,,,,,,,8,08,,,,,,,,,,,,,1,1.743,0,,,,,,-0.361111111,-0.247222222,1,0,0,1.7434,Andesite_rect,3,0,3,0,1,
65181c2f753b188afdddd2c4,SCR,2024-06-21_11h07.32.509,LearnStrategy,2023.2.3,Win32,59.52380952,6,2,5,,,,,,,,5,08,,,,,,,,,,,,,5,1.043,1,,,,,,-0.499074046,-0.40648151,1,0,0,1.0426,Obsidian_rect,4,0,4,0,1,
65181c2f753b188afdddd2c4,SCR,2024-06-21_11h07.32.509,LearnStrategy,2023.2.3,Win32,59.52380952,6,2,6,,,,,,,,8,05,,,,,,,,,,,,,8,1.127,1,,,,,,0.385648176,-0.385185242,1,0,0,1.1268,Pumice_rect,5,0,5,0,1,
65181c2f753b188afdddd2c4,SCR,2024-06-21_11h07.32.509,LearnStrategy,2023.2.3,Win32,59.52380952,6,2,7,,,,,,,,6,10,,,,,,,,,,,,,3,2.661,0,,,,,,0.110185242,-0.249537065,1,0,0,2.6614,Diorite_rect,6,0,6,0,1,
65181c2f753b188afdddd2c4,SCR,2024-06-21_11h07.32.509,LearnStrategy,2023.2.3,Win32,59.52380952,6,2,8,,,,,,,,2,04,,,,,,,,,,,,,2,1.245,1,,,,,,-0.097685157,-0.247222222,1,0,0,1.245,Basalt_rect,7,0,7,0,1,
65181c2f753b188afdddd2c4,SCR,2024-06-21_11h07.32.509,LearnStrategy,2023.2.3,Win32,59.52380952,6,2,9,,,,,,,,6,08,,,,,,,,,,,,,7,2.795,0,,,,,,0.045370399,-0.396759288,1,0,0,2.795,Peridotite_rect,8,0,8,0,1,
65181c2f753b188afdddd2c4,SCR,2024-06-21_11h07.32.509,LearnStrategy,2023.2.3,Win32,59.52380952,6,2,10,,,,,,,,7,16,,,,,,,,,,,,,7,1.427,1,,,,,,0.096759288,-0.420833333,1,0,0,1.4273,Peridotite_rect,9,0,9,0,1,
65181c2f753b188afdddd2c4,SCR,2024-06-21_11h07.32.509,LearnStrategy,2023.2.3,Win32,59.52380952,6,2,11,,,,,,,,2,10,,,,,,,,,,,,,2,4.81,1,,,,,,-0.152777778,-0.247685242,1,0,0,4.8104,Basalt_rect,10,0,10,0,1,
65181c2f753b188afdddd2c4,SCR,2024-06-21_11h07.32.509,LearnStrategy,2023.2.3,Win32,59.52380952,6,2,12,,,,,,,,1,07,,,,,,,,,,,,,3,1.444,0,,,,,,0.132870399,-0.259259288,1,0,0,1.4441,Diorite_rect,11,0,11,0,1,
65181c2f753b188afdddd2c4,SCR,2024-06-21_11h07.32.509,LearnStrategy,2023.2.3,Win32,59.52380952,6,2,13,,,,,,,,1,14,,,,,,,,,,,,,6,3.094,0,,,,,,-0.052314758,-0.403240797,1,0,0,3.0942,Pegmatite_rect,12,0,12,0,1,
65181c2f753b188afdddd2c4,SCR,2024-06-21_11h07.32.509,LearnStrategy,2023.2.3,Win32,59.52380952,6,2,14,,,,,,,,7,02,,,,,,,,,,,,,3,1.177,0,,,,,,0.091666667,-0.25648151,1,0,0,1.177,Diorite_rect,13,0,13,0,1,
65181c2f753b188afdddd2c4,SCR,2024-06-21_11h07.32.509,LearnStrategy,2023.2.3,Win32,59.52380952,6,2,15,,,,,,,,4,03,,,,,,,,,,,,,3,1.843,0,,,,,,0.075,-0.255555556,1,0,0,1.8429,Diorite_rect,14,0,14,0,1,
65181c2f753b188afdddd2c4,SCR,2024-06-21_11h07.32.509,LearnStrategy,2023.2.3,Win32,59.52380952,6,2,16,,,,,,,,5,14,,,,,,,,,,,,,5,1.028,1,,,,,,-0.387037023,-0.400463019,1,0,0,1.0278,Obsidian_rect,15,0,15,0,1,
65181c2f753b188afdddd2c4,SCR,2024-06-21_11h07.32.509,LearnStrategy,2023.2.3,Win32,59.52380952,7,1,1,-0.536111111,-0.097222222,1,0,0,1.2317,Pegmatite_05,6,05,3,1,1.232,6,05,0.133796353,-0.253703732,1,0,0,2.9876,Diorite_rect,3,2.988,0,0,0,0,0,1,,,,,,,,,,,,,
65181c2f753b188afdddd2c4,SCR,2024-06-21_11h07.32.509,LearnStrategy,2023.2.3,Win32,59.52380952,7,1,2,0.555555556,-0.390740797,1,0,0,1.4817,Pegmatite_16,6,16,1,8,1.482,6,16,-0.054629601,-0.397222222,1,0,0,3.2098,Pegmatite_rect,6,3.21,1,1,0,1,0,1,,,,,,,,,,,,,
65181c2f753b188afdddd2c4,SCR,2024-06-21_11h07.32.509,LearnStrategy,2023.2.3,Win32,59.52380952,7,1,3,0.579629686,-0.278240797,1,0,0,0.9042,Gabbro_11,4,11,2,8,0.904,4,11,-0.354166667,-0.251851908,1,0,0,4.0386,Andesite_rect,1,4.039,0,2,0,2,0,1,,,,,,,,,,,,,
65181c2f753b188afdddd2c4,SCR,2024-06-21_11h07.32.509,LearnStrategy,2023.2.3,Win32,59.52380952,7,1,4,-0.552777778,-0.434259288,1,0,0,1.0151,Andesite_03,1,03,1,1,1.015,1,03,-0.089351824,-0.250463019,1,0,0,6.0578,Basalt_rect,2,6.058,0,3,0,3,0,1,,,,,,,,,,,,,
65181c2f753b188afdddd2c4,SCR,2024-06-21_11h07.32.509,LearnStrategy,2023.2.3,Win32,59.52380952,7,1,5,-0.247222222,-0.086111111,1,0,0,0.6813,Diorite_14,3,14,3,3,0.681,3,14,0.142592621,-0.265740797,1,0,0,124.8532,Diorite_rect,3,124.853,1,4,0,4,0,1,,,,,,,,,,,,,
65181c2f753b188afdddd2c4,SCR,2024-06-21_11h07.32.509,LearnStrategy,2023.2.3,Win32,59.52380952,7,1,6,-0.084722222,0.411111111,1,0,0,1.6987,Obsidian_11,5,11,6,4,1.699,5,11,-0.4,-0.4125,1,0,0,3.5443,Obsidian_rect,5,3.544,1,5,0,5,0,1,,,,,,,,,,,,,
65181c2f753b188afdddd2c4,SCR,2024-06-21_11h07.32.509,LearnStrategy,2023.2.3,Win32,59.52380952,7,1,7,0.055555556,0.409722222,1,0,0,0.8819,Pumice_15,8,15,6,5,0.882,8,15,0.370833333,-0.396296353,1,0,0,0.8593,Pumice_rect,8,0.859,1,6,0,6,0,1,,,,,,,,,,,,,
65181c2f753b188afdddd2c4,SCR,2024-06-21_11h07.32.509,LearnStrategy,2023.2.3,Win32,59.52380952,7,1,8,-0.193055556,-0.373148176,1,0,0,1.1649,Gabbro_12,4,12,1,3,1.165,4,12,0.091203732,-0.255092621,1,0,0,4.0937,Diorite_rect,3,4.094,0,7,0,7,0,1,,,,,,,,,,,,,
65181c2f753b188afdddd2c4,SCR,2024-06-21_11h07.32.509,LearnStrategy,2023.2.3,Win32,59.52380952,7,1,9,0.392592621,-0.102777778,1,0,0,1.0804,Diorite_15,3,15,3,7,1.08,3,15,-0.025462935,-0.404166667,1,0,0,63.2483,Pegmatite_rect,6,63.248,0,8,0,8,0,1,,,,,,,,,,,,,
65181c2f753b188afdddd2c4,SCR,2024-06-21_11h07.32.509,LearnStrategy,2023.2.3,Win32,59.52380952,7,1,10,0.040740797,-0.375925954,1,0,0,32.2509,Pegmatite_09,6,09,1,5,32.251,6,09,0.158333333,-0.238888889,1,0,0,2.0552,Diorite_rect,3,2.055,0,9,0,9,0,1,,,,,,,,,,,,,
65181c2f753b188afdddd2c4,SCR,2024-06-21_11h07.32.509,LearnStrategy,2023.2.3,Win32,59.52380952,7,1,11,-0.373611111,-0.200462977,1,0,0,0.8822,Basalt_11,2,11,2,2,0.882,2,11,-0.432870356,-0.264814843,1,0,0,1.3774,Andesite_rect,1,1.377,0,10,0,10,0,1,,,,,,,,,,,,,
65181c2f753b188afdddd2c4,SCR,2024-06-21_11h07.32.509,LearnStrategy,2023.2.3,Win32,59.52380952,7,1,12,-0.066203647,-0.38148151,1,0,0,0.666,Peridotite_15,7,15,1,4,0.666,7,15,-0.076851824,-0.407407464,1,0,0,0.677,Pegmatite_rect,6,0.677,0,11,0,11,0,1,,,,,,,,,,,,,
65181c2f753b188afdddd2c4,SCR,2024-06-21_11h07.32.509,LearnStrategy,2023.2.3,Win32,59.52380952,7,1,13,0.056018575,0.106944444,1,0,0,0.6658,Andesite_11,1,11,4,5,0.666,1,11,0.133333333,-0.250463019,1,0,0,2.2428,Diorite_rect,3,2.243,0,12,0,12,0,1,,,,,,,,,,,,,
65181c2f753b188afdddd2c4,SCR,2024-06-21_11h07.32.509,LearnStrategy,2023.2.3,Win32,59.52380952,7,1,14,-0.06851849,-0.272222222,1,0,0,0.5827,Peridotite_06,7,06,2,4,0.583,7,06,-0.159259203,-0.240740797,1,0,0,1.0595,Basalt_rect,2,1.059,0,13,0,13,0,1,,,,,,,,,,,,,
65181c2f753b188afdddd2c4,SCR,2024-06-21_11h07.32.509,LearnStrategy,2023.2.3,Win32,59.52380952,7,1,15,-0.218055556,0.42685185,1,0,0,0.8651,Diorite_13,3,13,6,3,0.865,3,13,0.136111111,-0.402777778,1,0,0,4.212,Peridotite_rect,7,4.212,0,14,0,14,0,1,,,,,,,,,,,,,
65181c2f753b188afdddd2c4,SCR,2024-06-21_11h07.32.509,LearnStrategy,2023.2.3,Win32,59.52380952,7,1,16,-0.521296268,-0.423148176,1,0,0,0.9811,Andesite_03,1,03,1,1,0.981,1,03,-0.351851824,-0.262037065,1,0,0,3.9298,Andesite_rect,1,3.93,1,15,0,15,0,1,,,,,,,,,,,,,
65181c2f753b188afdddd2c4,SCR,2024-06-21_11h07.32.509,LearnStrategy,2023.2.3,Win32,59.52380952,7,2,1,,,,,,,,3,08,,,,,,,,,,,,,2,210.58,0,,,,,,-0.083333333,-0.238888889,1,0,0,210.5796,Basalt_rect,0,0,0,0,1,
65181c2f753b188afdddd2c4,SCR,2024-06-21_11h07.32.509,LearnStrategy,2023.2.3,Win32,59.52380952,7,2,2,,,,,,,,1,14,,,,,,,,,,,,,5,1.045,0,,,,,,-0.332870356,-0.379629686,1,0,0,1.045,Obsidian_rect,1,0,1,0,1,
65181c2f753b188afdddd2c4,SCR,2024-06-21_11h07.32.509,LearnStrategy,2023.2.3,Win32,59.52380952,7,2,3,,,,,,,,7,05,,,,,,,,,,,,,7,1.928,1,,,,,,0.20648151,-0.381944444,1,0,0,1.9283,Peridotite_rect,2,0,2,0,1,
65181c2f753b188afdddd2c4,SCR,2024-06-21_11h07.32.509,LearnStrategy,2023.2.3,Win32,59.52380952,7,2,4,,,,,,,,1,05,,,,,,,,,,,,,4,1.777,0,,,,,,0.355092621,-0.264814843,1,0,0,1.7772,Gabbro_rect,3,0,3,0,1,
65181c2f753b188afdddd2c4,SCR,2024-06-21_11h07.32.509,LearnStrategy,2023.2.3,Win32,59.52380952,7,2,5,,,,,,,,6,12,,,,,,,,,,,,,6,0.677,1,,,,,,-0.1,-0.390740797,1,0,0,0.6768,Pegmatite_rect,4,0,4,0,1,
65181c2f753b188afdddd2c4,SCR,2024-06-21_11h07.32.509,LearnStrategy,2023.2.3,Win32,59.52380952,7,2,6,,,,,,,,5,08,,,,,,,,,,,,,5,2.014,1,,,,,,-0.426851824,-0.404166667,1,0,0,2.0137,Obsidian_rect,5,0,5,0,1,
65181c2f753b188afdddd2c4,SCR,2024-06-21_11h07.32.509,LearnStrategy,2023.2.3,Win32,59.52380952,7,2,7,,,,,,,,6,10,,,,,,,,,,,,,1,0.87,0,,,,,,-0.314351824,-0.258796353,1,0,0,0.8703,Andesite_rect,6,0,6,0,1,
65181c2f753b188afdddd2c4,SCR,2024-06-21_11h07.32.509,LearnStrategy,2023.2.3,Win32,59.52380952,7,2,8,,,,,,,,4,03,,,,,,,,,,,,,6,1.878,0,,,,,,-0.055555556,-0.40648151,1,0,0,1.8776,Pegmatite_rect,7,0,7,0,1,
65181c2f753b188afdddd2c4,SCR,2024-06-21_11h07.32.509,LearnStrategy,2023.2.3,Win32,59.52380952,7,2,9,,,,,,,,2,12,,,,,,,,,,,,,8,1.189,0,,,,,,0.363888889,-0.39398151,1,0,0,1.1887,Pumice_rect,8,0,8,0,1,
65181c2f753b188afdddd2c4,SCR,2024-06-21_11h07.32.509,LearnStrategy,2023.2.3,Win32,59.52380952,7,2,10,,,,,,,,8,16,,,,,,,,,,,,,8,2.861,1,,,,,,0.393518575,-0.387037065,1,0,0,2.8606,Pumice_rect,9,0,9,0,1,
65181c2f753b188afdddd2c4,SCR,2024-06-21_11h07.32.509,LearnStrategy,2023.2.3,Win32,59.52380952,7,2,11,,,,,,,,3,16,,,,,,,,,,,,,6,2.894,0,,,,,,-0.153703647,-0.407870399,1,0,0,2.8941,Pegmatite_rect,10,0,10,0,1,
65181c2f753b188afdddd2c4,SCR,2024-06-21_11h07.32.509,LearnStrategy,2023.2.3,Win32,59.52380952,7,2,12,,,,,,,,5,10,,,,,,,,,,,,,7,2.934,0,,,,,,0.085648176,-0.412963019,1,0,0,2.9342,Peridotite_rect,11,0,11,0,1,
65181c2f753b188afdddd2c4,SCR,2024-06-21_11h07.32.509,LearnStrategy,2023.2.3,Win32,59.52380952,7,2,13,,,,,,,,8,03,,,,,,,,,,,,,8,0.927,1,,,,,,0.341666667,-0.405092621,1,0,0,0.9271,Pumice_rect,12,0,12,0,1,
65181c2f753b188afdddd2c4,SCR,2024-06-21_11h07.32.509,LearnStrategy,2023.2.3,Win32,59.52380952,7,2,14,,,,,,,,4,10,,,,,,,,,,,,,3,2.11,0,,,,,,0.197685242,-0.253703732,1,0,0,2.1101,Diorite_rect,13,0,13,0,1,
65181c2f753b188afdddd2c4,SCR,2024-06-21_11h07.32.509,LearnStrategy,2023.2.3,Win32,59.52380952,7,2,15,,,,,,,,7,16,,,,,,,,,,,,,3,1.56,0,,,,,,0.222685242,-0.244444444,1,0,0,1.5601,Diorite_rect,14,0,14,0,1,
65181c2f753b188afdddd2c4,SCR,2024-06-21_11h07.32.509,LearnStrategy,2023.2.3,Win32,59.52380952,7,2,16,,,,,,,,2,08,,,,,,,,,,,,,1,0.983,0,,,,,,-0.328240712,-0.259259288,1,0,0,0.9825,Andesite_rect,15,0,15,0,1,
65181c2f753b188afdddd2c4,SCR,2024-06-21_11h07.32.509,LearnStrategy,2023.2.3,Win32,59.52380952,8,1,1,0.256018575,0.356944444,1,0,0,1.3476,Obsidian_06,5,06,6,6,1.348,5,06,-0.407870356,-0.418055556,1,0,0,0.9085,Obsidian_rect,5,0.909,1,0,0,0,0,1,,,,,,,,,,,,,
65181c2f753b188afdddd2c4,SCR,2024-06-21_11h07.32.509,LearnStrategy,2023.2.3,Win32,59.52380952,8,1,2,-0.565740734,-0.276388889,1,0,0,0.8859,Pegmatite_11,6,11,2,1,0.886,6,11,0.09398151,-0.392129686,1,0,0,1.0684,Peridotite_rect,7,1.068,0,1,0,1,0,1,,,,,,,,,,,,,
65181c2f753b188afdddd2c4,SCR,2024-06-21_11h07.32.509,LearnStrategy,2023.2.3,Win32,59.52380952,8,1,3,0.077314843,0.408796289,1,0,0,0.8485,Pumice_15,8,15,6,5,0.849,8,15,-0.082870314,-0.40648151,1,0,0,2.2103,Pegmatite_rect,6,2.21,0,2,0,2,0,1,,,,,,,,,,,,,
65181c2f753b188afdddd2c4,SCR,2024-06-21_11h07.32.509,LearnStrategy,2023.2.3,Win32,59.52380952,8,1,4,-0.101851824,0.130555556,1,0,0,0.5986,Basalt_02,2,02,4,4,0.599,2,02,-0.151851824,-0.266203732,1,0,0,2.6777,Basalt_rect,2,2.678,1,3,0,3,0,1,,,,,,,,,,,,,
65181c2f753b188afdddd2c4,SCR,2024-06-21_11h07.32.509,LearnStrategy,2023.2.3,Win32,59.52380952,8,1,5,0.591666667,-0.246296353,1,0,0,1.1792,Gabbro_11,4,11,2,8,1.179,4,11,0.509259288,-0.233333333,1,0,0,1.8766,Gabbro_rect,4,1.877,1,4,0,4,0,1,,,,,,,,,,,,,
65181c2f753b188afdddd2c4,SCR,2024-06-21_11h07.32.509,LearnStrategy,2023.2.3,Win32,59.52380952,8,1,6,-0.578240734,-0.419907464,1,0,0,1.0167,Andesite_03,1,03,1,1,1.017,1,03,0.147222222,-0.261111111,1,0,0,4.3593,Diorite_rect,3,4.359,0,5,0,5,0,1,,,,,,,,,,,,,
65181c2f753b188afdddd2c4,SCR,2024-06-21_11h07.32.509,LearnStrategy,2023.2.3,Win32,59.52380952,8,1,7,0.421296353,-0.112962977,1,0,0,1.2146,Diorite_15,3,15,3,7,1.215,3,15,-0.0625,-0.4125,1,0,0,1.9262,Pegmatite_rect,6,1.926,0,6,0,6,0,1,,,,,,,,,,,,,
65181c2f753b188afdddd2c4,SCR,2024-06-21_11h07.32.509,LearnStrategy,2023.2.3,Win32,59.52380952,8,1,8,0.098611111,0.131944444,1,0,0,0.5328,Andesite_11,1,11,4,5,0.533,1,11,0.083796353,-0.396759288,1,0,0,3.4419,Peridotite_rect,7,3.442,0,7,0,7,0,1,,,,,,,,,,,,,
65181c2f753b188afdddd2c4,SCR,2024-06-21_11h07.32.509,LearnStrategy,2023.2.3,Win32,59.52380952,8,1,9,0.275463019,-0.080092621,1,0,0,0.5981,Basalt_06,2,06,3,6,0.598,2,06,-0.054629601,-0.241203732,1,0,0,1.9598,Basalt_rect,2,1.96,1,8,0,8,0,1,,,,,,,,,,,,,
65181c2f753b188afdddd2c4,SCR,2024-06-21_11h07.32.509,LearnStrategy,2023.2.3,Win32,59.52380952,8,1,10,-0.524537023,0.454166667,1,0,0,1.0826,Diorite_12,3,12,6,1,1.083,3,12,0.163425954,-0.261574131,1,0,0,2.6428,Diorite_rect,3,2.643,1,9,0,9,0,1,,,,,,,,,,,,,
65181c2f753b188afdddd2c4,SCR,2024-06-21_11h07.32.509,LearnStrategy,2023.2.3,Win32,59.52380952,8,1,11,0.057407464,0.286111111,1,0,0,0.5476,Andesite_02,1,02,5,5,0.548,1,02,-0.324074046,-0.246296353,1,0,0,1.6276,Andesite_rect,1,1.628,1,10,0,10,0,1,,,,,,,,,,,,,
65181c2f753b188afdddd2c4,SCR,2024-06-21_11h07.32.509,LearnStrategy,2023.2.3,Win32,59.52380952,8,1,12,0.524074131,-0.416203732,1,0,0,1.3984,Pegmatite_16,6,16,1,8,1.398,6,16,-0.055555556,-0.393055556,1,0,0,4.1109,Pegmatite_rect,6,4.111,1,11,0,11,0,1,,,,,,,,,,,,,
65181c2f753b188afdddd2c4,SCR,2024-06-21_11h07.32.509,LearnStrategy,2023.2.3,Win32,59.52380952,8,1,13,-0.060185157,-0.206944444,1,0,0,0.6301,Peridotite_06,7,06,2,4,0.63,7,06,-0.099074046,-0.378240797,1,0,0,0.8798,Pegmatite_rect,6,0.88,0,12,0,12,0,1,,,,,,,,,,,,,
65181c2f753b188afdddd2c4,SCR,2024-06-21_11h07.32.509,LearnStrategy,2023.2.3,Win32,59.52380952,8,1,14,-0.215277778,-0.062037065,1,0,0,0.698,Diorite_14,3,14,3,3,0.698,3,14,0.054629686,-0.402314843,1,0,0,0.9796,Peridotite_rect,7,0.98,0,13,0,13,0,1,,,,,,,,,,,,,
65181c2f753b188afdddd2c4,SCR,2024-06-21_11h07.32.509,LearnStrategy,2023.2.3,Win32,59.52380952,8,1,15,0.603240797,0.264814801,1,0,0,0.8318,Peridotite_13,7,13,5,8,0.832,7,13,0.145833333,-0.404166667,1,0,0,1.3764,Peridotite_rect,7,1.376,1,14,0,14,0,1,,,,,,,,,,,,,
65181c2f753b188afdddd2c4,SCR,2024-06-21_11h07.32.509,LearnStrategy,2023.2.3,Win32,59.52380952,8,1,16,-0.208333333,0.075925912,1,0,0,0.798,Gabbro_13,4,13,4,3,0.798,4,13,0.349074131,-0.229629686,1,0,0,0.7749,Gabbro_rect,4,0.775,1,15,0,15,0,1,,,,,,,,,,,,,
65181c2f753b188afdddd2c4,SCR,2024-06-21_11h07.32.509,LearnStrategy,2023.2.3,Win32,59.52380952,8,2,1,,,,,,,,4,05,,,,,,,,,,,,,7,3.878,0,,,,,,0.15648151,-0.393055556,1,0,0,3.8781,Peridotite_rect,0,0,0,0,1,
65181c2f753b188afdddd2c4,SCR,2024-06-21_11h07.32.509,LearnStrategy,2023.2.3,Win32,59.52380952,8,2,2,,,,,,,,4,01,,,,,,,,,,,,,7,1.606,0,,,,,,0.099537065,-0.39398151,1,0,0,1.6055,Peridotite_rect,1,0,1,0,1,
65181c2f753b188afdddd2c4,SCR,2024-06-21_11h07.32.509,LearnStrategy,2023.2.3,Win32,59.52380952,8,2,3,,,,,,,,3,09,,,,,,,,,,,,,6,1.678,0,,,,,,-0.058333333,-0.419444444,1,0,0,1.6777,Pegmatite_rect,2,0,2,0,1,
65181c2f753b188afdddd2c4,SCR,2024-06-21_11h07.32.509,LearnStrategy,2023.2.3,Win32,59.52380952,8,2,4,,,,,,,,7,04,,,,,,,,,,,,,6,2.31,0,,,,,,-0.071296268,-0.404629686,1,0,0,2.3103,Pegmatite_rect,3,0,3,0,1,
65181c2f753b188afdddd2c4,SCR,2024-06-21_11h07.32.509,LearnStrategy,2023.2.3,Win32,59.52380952,8,2,5,,,,,,,,5,07,,,,,,,,,,,,,5,1.96,1,,,,,,-0.349074046,-0.404629686,1,0,0,1.9597,Obsidian_rect,4,0,4,0,1,
65181c2f753b188afdddd2c4,SCR,2024-06-21_11h07.32.509,LearnStrategy,2023.2.3,Win32,59.52380952,8,2,6,,,,,,,,1,07,,,,,,,,,,,,,7,48.176,0,,,,,,0.118518575,-0.401388889,1,0,0,48.1763,Peridotite_rect,5,0,5,0,1,
65181c2f753b188afdddd2c4,SCR,2024-06-21_11h07.32.509,LearnStrategy,2023.2.3,Win32,59.52380952,8,2,7,,,,,,,,2,04,,,,,,,,,,,,,2,2.338,1,,,,,,-0.161574046,-0.264351908,1,0,0,2.3382,Basalt_rect,6,0,6,0,1,
65181c2f753b188afdddd2c4,SCR,2024-06-21_11h07.32.509,LearnStrategy,2023.2.3,Win32,59.52380952,8,2,8,,,,,,,,5,14,,,,,,,,,,,,,5,0.928,1,,,,,,-0.35370369,-0.404166667,1,0,0,0.9275,Obsidian_rect,7,0,7,0,1,
65181c2f753b188afdddd2c4,SCR,2024-06-21_11h07.32.509,LearnStrategy,2023.2.3,Win32,59.52380952,8,2,9,,,,,,,,8,06,,,,,,,,,,,,,8,0.977,1,,,,,,0.447222222,-0.383796353,1,0,0,0.9773,Pumice_rect,8,0,8,0,1,
65181c2f753b188afdddd2c4,SCR,2024-06-21_11h07.32.509,LearnStrategy,2023.2.3,Win32,59.52380952,8,2,10,,,,,,,,7,02,,,,,,,,,,,,,7,0.927,1,,,,,,0.131018575,-0.386574131,1,0,0,0.9267,Peridotite_rect,9,0,9,0,1,
65181c2f753b188afdddd2c4,SCR,2024-06-21_11h07.32.509,LearnStrategy,2023.2.3,Win32,59.52380952,8,2,11,,,,,,,,6,06,,,,,,,,,,,,,6,1.094,1,,,,,,-0.0625,-0.415740797,1,0,0,1.0942,Pegmatite_rect,10,0,10,0,1,
65181c2f753b188afdddd2c4,SCR,2024-06-21_11h07.32.509,LearnStrategy,2023.2.3,Win32,59.52380952,8,2,12,,,,,,,,2,01,,,,,,,,,,,,,2,1.978,1,,,,,,-0.076388889,-0.260185242,1,0,0,1.978,Basalt_rect,11,0,11,0,1,
65181c2f753b188afdddd2c4,SCR,2024-06-21_11h07.32.509,LearnStrategy,2023.2.3,Win32,59.52380952,8,2,13,,,,,,,,8,05,,,,,,,,,,,,,8,1.328,1,,,,,,0.333796353,-0.393055556,1,0,0,1.3279,Pumice_rect,12,0,12,0,1,
65181c2f753b188afdddd2c4,SCR,2024-06-21_11h07.32.509,LearnStrategy,2023.2.3,Win32,59.52380952,8,2,14,,,,,,,,6,13,,,,,,,,,,,,,7,1.376,0,,,,,,0.108796353,-0.409259288,1,0,0,1.3762,Peridotite_rect,13,0,13,0,1,
65181c2f753b188afdddd2c4,SCR,2024-06-21_11h07.32.509,LearnStrategy,2023.2.3,Win32,59.52380952,8,2,15,,,,,,,,1,06,,,,,,,,,,,,,6,1.995,0,,,,,,-0.126388889,-0.410185242,1,0,0,1.9948,Pegmatite_rect,14,0,14,0,1,
65181c2f753b188afdddd2c4,SCR,2024-06-21_11h07.32.509,LearnStrategy,2023.2.3,Win32,59.52380952,8,2,16,,,,,,,,3,10,,,,,,,,,,,,,3,2.56,1,,,,,,0.144444444,-0.252777778,1,0,0,2.5602,Diorite_rect,15,0,15,0,1,
65181c2f753b188afdddd2c4,SCR,2024-06-21_11h07.32.509,LearnStrategy,2023.2.3,Win32,59.52380952,9,1,1,0.238888889,0.406944444,1,0,0,1.4641,Obsidian_06,5,06,6,6,1.464,5,06,-0.396759245,-0.400925954,1,0,0,0.6436,Obsidian_rect,5,0.644,1,0,0,0,0,1,,,,,,,,,,,,,
65181c2f753b188afdddd2c4,SCR,2024-06-21_11h07.32.509,LearnStrategy,2023.2.3,Win32,59.52380952,9,1,2,-0.189814801,-0.408333333,1,0,0,0.8978,Gabbro_12,4,12,1,3,0.898,4,12,-0.349074046,-0.253703732,1,0,0,0.9602,Andesite_rect,1,0.96,0,1,0,1,0,1,,,,,,,,,,,,,
65181c2f753b188afdddd2c4,SCR,2024-06-21_11h07.32.509,LearnStrategy,2023.2.3,Win32,59.52380952,9,1,3,-0.241666667,-0.445833333,1,0,0,0.6994,Gabbro_12,4,12,1,3,0.699,4,12,0.437963019,-0.240740797,1,0,0,1.7107,Gabbro_rect,4,1.711,1,2,0,2,0,1,,,,,,,,,,,,,
65181c2f753b188afdddd2c4,SCR,2024-06-21_11h07.32.509,LearnStrategy,2023.2.3,Win32,59.52380952,9,1,4,0.512963019,0.268518511,1,0,0,1.1156,Peridotite_13,7,13,5,8,1.116,7,13,0.114351908,-0.399074131,1,0,0,1.1928,Peridotite_rect,7,1.193,1,3,0,3,0,1,,,,,,,,,,,,,
65181c2f753b188afdddd2c4,SCR,2024-06-21_11h07.32.509,LearnStrategy,2023.2.3,Win32,59.52380952,9,1,5,0.573148261,0.258333333,1,0,0,1.049,Peridotite_13,7,13,5,8,1.049,7,13,0.097685242,-0.411111111,1,0,0,0.6598,Peridotite_rect,7,0.66,1,4,0,4,0,1,,,,,,,,,,,,,
65181c2f753b188afdddd2c4,SCR,2024-06-21_11h07.32.509,LearnStrategy,2023.2.3,Win32,59.52380952,9,1,6,-0.104629601,0.247222222,1,0,0,0.9486,Pegmatite_07,6,07,5,4,0.949,6,07,0.070833333,-0.246759288,1,0,0,3.2266,Diorite_rect,3,3.227,0,5,0,5,0,1,,,,,,,,,,,,,
65181c2f753b188afdddd2c4,SCR,2024-06-21_11h07.32.509,LearnStrategy,2023.2.3,Win32,59.52380952,9,1,7,-0.073611111,0.090277778,1,0,0,0.5151,Basalt_02,2,02,4,4,0.515,2,02,-0.395833333,-0.257407464,1,0,0,0.9262,Andesite_rect,1,0.926,0,6,0,6,0,1,,,,,,,,,,,,,
65181c2f753b188afdddd2c4,SCR,2024-06-21_11h07.32.509,LearnStrategy,2023.2.3,Win32,59.52380952,9,1,8,-0.195833333,-0.378703732,1,0,0,0.8658,Gabbro_12,4,12,1,3,0.866,4,12,0.395370399,-0.258333333,1,0,0,3.2102,Gabbro_rect,4,3.21,1,7,0,7,0,1,,,,,,,,,,,,,
65181c2f753b188afdddd2c4,SCR,2024-06-21_11h07.32.509,LearnStrategy,2023.2.3,Win32,59.52380952,9,1,9,-0.232870356,-0.096759288,1,0,0,0.6811,Diorite_14,3,14,3,3,0.681,3,14,-0.080092536,-0.380092621,1,0,0,0.7096,Pegmatite_rect,6,0.71,0,8,0,8,0,1,,,,,,,,,,,,,
65181c2f753b188afdddd2c4,SCR,2024-06-21_11h07.32.509,LearnStrategy,2023.2.3,Win32,59.52380952,9,1,10,0.071296353,0.406944444,1,0,0,1.1996,Pumice_15,8,15,6,5,1.2,8,15,0.357870399,-0.419444444,1,0,0,1.1254,Pumice_rect,8,1.125,1,9,0,9,0,1,,,,,,,,,,,,,
65181c2f753b188afdddd2c4,SCR,2024-06-21_11h07.32.509,LearnStrategy,2023.2.3,Win32,59.52380952,9,1,11,-0.562037023,-0.358333333,1,0,0,1.0829,Andesite_03,1,03,1,1,1.083,1,03,-0.389814801,-0.253703732,1,0,0,1.2927,Andesite_rect,1,1.293,1,10,0,10,0,1,,,,,,,,,,,,,
65181c2f753b188afdddd2c4,SCR,2024-06-21_11h07.32.509,LearnStrategy,2023.2.3,Win32,59.52380952,9,1,12,-0.581018511,0.104629601,1,0,0,1.0149,Andesite_16,1,16,4,1,1.015,1,16,-0.064814758,-0.405092621,1,0,0,1.9418,Pegmatite_rect,6,1.942,0,11,0,11,0,1,,,,,,,,,,,,,
65181c2f753b188afdddd2c4,SCR,2024-06-21_11h07.32.509,LearnStrategy,2023.2.3,Win32,59.52380952,9,1,13,0.098148176,0.291666667,1,0,0,0.5826,Andesite_02,1,02,5,5,0.583,1,02,-0.337037023,-0.251851908,1,0,0,1.3766,Andesite_rect,1,1.377,1,12,0,12,0,1,,,,,,,,,,,,,
65181c2f753b188afdddd2c4,SCR,2024-06-21_11h07.32.509,LearnStrategy,2023.2.3,Win32,59.52380952,9,1,14,0.389351908,0.056481467,1,0,0,0.8823,Diorite_06,3,06,4,7,0.882,3,06,0.145370399,-0.2375,1,0,0,1.059,Diorite_rect,3,1.059,1,13,0,13,0,1,,,,,,,,,,,,,
65181c2f753b188afdddd2c4,SCR,2024-06-21_11h07.32.509,LearnStrategy,2023.2.3,Win32,59.52380952,9,1,15,0.257407464,0.084259245,1,0,0,0.7314,Pegmatite_15,6,15,4,6,0.731,6,15,-0.379166667,-0.4125,1,0,0,1.4442,Obsidian_rect,5,1.444,0,14,0,14,0,1,,,,,,,,,,,,,
65181c2f753b188afdddd2c4,SCR,2024-06-21_11h07.32.509,LearnStrategy,2023.2.3,Win32,59.52380952,9,1,16,0.056944444,-0.431944444,1,0,0,0.9641,Pegmatite_09,6,09,1,5,0.964,6,09,0.157870399,-0.230092621,1,0,0,3.0106,Diorite_rect,3,3.011,0,15,0,15,0,1,,,,,,,,,,,,,
65181c2f753b188afdddd2c4,SCR,2024-06-21_11h07.32.509,LearnStrategy,2023.2.3,Win32,59.52380952,9,2,1,,,,,,,,2,16,,,,,,,,,,,,,4,2.234,0,,,,,,0.389351908,-0.247685242,1,0,0,2.2343,Gabbro_rect,0,0,0,0,1,
65181c2f753b188afdddd2c4,SCR,2024-06-21_11h07.32.509,LearnStrategy,2023.2.3,Win32,59.52380952,9,2,2,,,,,,,,1,09,,,,,,,,,,,,,1,6.328,1,,,,,,-0.438425912,-0.251388889,1,0,0,6.3279,Andesite_rect,1,0,1,0,1,
65181c2f753b188afdddd2c4,SCR,2024-06-21_11h07.32.509,LearnStrategy,2023.2.3,Win32,59.52380952,9,2,3,,,,,,,,6,08,,,,,,,,,,,,,6,2.921,1,,,,,,-0.114351824,-0.400463019,1,0,0,2.9213,Pegmatite_rect,2,0,2,0,1,
65181c2f753b188afdddd2c4,SCR,2024-06-21_11h07.32.509,LearnStrategy,2023.2.3,Win32,59.52380952,9,2,4,,,,,,,,4,14,,,,,,,,,,,,,4,1.888,1,,,,,,0.354629686,-0.241203732,1,0,0,1.8882,Gabbro_rect,3,0,3,0,1,
65181c2f753b188afdddd2c4,SCR,2024-06-21_11h07.32.509,LearnStrategy,2023.2.3,Win32,59.52380952,9,2,5,,,,,,,,4,09,,,,,,,,,,,,,6,3.945,0,,,,,,-0.112036981,-0.390277778,1,0,0,3.9446,Pegmatite_rect,4,0,4,0,1,
65181c2f753b188afdddd2c4,SCR,2024-06-21_11h07.32.509,LearnStrategy,2023.2.3,Win32,59.52380952,9,2,6,,,,,,,,5,09,,,,,,,,,,,,,5,1.037,1,,,,,,-0.424537023,-0.413425954,1,0,0,1.0375,Obsidian_rect,5,0,5,0,1,
65181c2f753b188afdddd2c4,SCR,2024-06-21_11h07.32.509,LearnStrategy,2023.2.3,Win32,59.52380952,9,2,7,,,,,,,,3,07,,,,,,,,,,,,,3,4.18,1,,,,,,0.138888889,-0.238888889,1,0,0,4.1795,Diorite_rect,6,0,6,0,1,
65181c2f753b188afdddd2c4,SCR,2024-06-21_11h07.32.509,LearnStrategy,2023.2.3,Win32,59.52380952,9,2,8,,,,,,,,2,10,,,,,,,,,,,,,1,3.406,0,,,,,,-0.346759245,-0.270370399,1,0,0,3.4062,Andesite_rect,7,0,7,0,1,
65181c2f753b188afdddd2c4,SCR,2024-06-21_11h07.32.509,LearnStrategy,2023.2.3,Win32,59.52380952,9,2,9,,,,,,,,1,10,,,,,,,,,,,,,4,5.322,0,,,,,,0.342592621,-0.25648151,1,0,0,5.3217,Gabbro_rect,8,0,8,0,1,
65181c2f753b188afdddd2c4,SCR,2024-06-21_11h07.32.509,LearnStrategy,2023.2.3,Win32,59.52380952,9,2,10,,,,,,,,7,08,,,,,,,,,,,,,6,2.704,0,,,,,,-0.077314758,-0.412963019,1,0,0,2.7041,Pegmatite_rect,9,0,9,0,1,
65181c2f753b188afdddd2c4,SCR,2024-06-21_11h07.32.509,LearnStrategy,2023.2.3,Win32,59.52380952,9,2,11,,,,,,,,5,02,,,,,,,,,,,,,5,1.042,1,,,,,,-0.420370356,-0.419907464,1,0,0,1.0417,Obsidian_rect,10,0,10,0,1,
65181c2f753b188afdddd2c4,SCR,2024-06-21_11h07.32.509,LearnStrategy,2023.2.3,Win32,59.52380952,9,2,12,,,,,,,,3,11,,,,,,,,,,,,,6,2.428,0,,,,,,-0.079166667,-0.397685242,1,0,0,2.4283,Pegmatite_rect,11,0,11,0,1,
65181c2f753b188afdddd2c4,SCR,2024-06-21_11h07.32.509,LearnStrategy,2023.2.3,Win32,59.52380952,9,2,13,,,,,,,,8,02,,,,,,,,,,,,,8,1.026,1,,,,,,0.365277778,-0.408333333,1,0,0,1.0265,Pumice_rect,12,0,12,0,1,
65181c2f753b188afdddd2c4,SCR,2024-06-21_11h07.32.509,LearnStrategy,2023.2.3,Win32,59.52380952,9,2,14,,,,,,,,8,08,,,,,,,,,,,,,1,2.595,0,,,,,,-0.440740712,-0.256018575,1,0,0,2.5949,Andesite_rect,13,0,13,0,1,
65181c2f753b188afdddd2c4,SCR,2024-06-21_11h07.32.509,LearnStrategy,2023.2.3,Win32,59.52380952,9,2,15,,,,,,,,7,10,,,,,,,,,,,,,7,4.491,1,,,,,,0.067592621,-0.389351908,1,0,0,4.4906,Peridotite_rect,14,0,14,0,1,
65181c2f753b188afdddd2c4,SCR,2024-06-21_11h07.32.509,LearnStrategy,2023.2.3,Win32,59.52380952,9,2,16,,,,,,,,6,03,,,,,,,,,,,,,6,2.223,1,,,,,,-0.081944444,-0.40648151,1,0,0,2.2234,Pegmatite_rect,15,0,15,0,1,
65181c2f753b188afdddd2c4,SCR,2024-06-21_11h07.32.509,LearnStrategy,2023.2.3,Win32,59.52380952,,,,,,,,,,,,,,,,,,,,,,,,,,,,,,,,,,,,,,,,,,,,,0
65181c2f753b188afdddd2c4,SCR,2024-06-21_11h07.32.509,LearnStrategy,2023.2.3,Win32,59.52380952,,,,,,,,,,,,,,,,,,,,,,,,,,,,,,,,,,,,,,,,,,,,,
65181c2f753b188afdddd2c4,SCR,2024-06-21_11h07.32.509,LearnStrategy,2023.2.3,Win32,59.52380952,,,,,,,,,,,1,03,1,1,,,,,,,,,,,,,,,,,,,,,,,,,,,,,,,
65181c2f753b188afdddd2c4,SCR,2024-06-21_11h07.32.509,LearnStrategy,2023.2.3,Win32,59.52380952,,,,,,,,,,,7,14,1,2,,,,,,,,,,,,,,,,,,,,,,,,,,,,,,,
65181c2f753b188afdddd2c4,SCR,2024-06-21_11h07.32.509,LearnStrategy,2023.2.3,Win32,59.52380952,,,,,,,,,,,4,12,1,3,,,,,,,,,,,,,,,,,,,,,,,,,,,,,,,
65181c2f753b188afdddd2c4,SCR,2024-06-21_11h07.32.509,LearnStrategy,2023.2.3,Win32,59.52380952,,,,,,,,,,,7,15,1,4,,,,,,,,,,,,,,,,,,,,,,,,,,,,,,,
65181c2f753b188afdddd2c4,SCR,2024-06-21_11h07.32.509,LearnStrategy,2023.2.3,Win32,59.52380952,,,,,,,,,,,6,09,1,5,,,,,,,,,,,,,,,,,,,,,,,,,,,,,,,
65181c2f753b188afdddd2c4,SCR,2024-06-21_11h07.32.509,LearnStrategy,2023.2.3,Win32,59.52380952,,,,,,,,,,,8,14,1,6,,,,,,,,,,,,,,,,,,,,,,,,,,,,,,,
65181c2f753b188afdddd2c4,SCR,2024-06-21_11h07.32.509,LearnStrategy,2023.2.3,Win32,59.52380952,,,,,,,,,,,5,16,1,7,,,,,,,,,,,,,,,,,,,,,,,,,,,,,,,
65181c2f753b188afdddd2c4,SCR,2024-06-21_11h07.32.509,LearnStrategy,2023.2.3,Win32,59.52380952,,,,,,,,,,,6,16,1,8,,,,,,,,,,,,,,,,,,,,,,,,,,,,,,,
65181c2f753b188afdddd2c4,SCR,2024-06-21_11h07.32.509,LearnStrategy,2023.2.3,Win32,59.52380952,,,,,,,,,,,6,11,2,1,,,,,,,,,,,,,,,,,,,,,,,,,,,,,,,
65181c2f753b188afdddd2c4,SCR,2024-06-21_11h07.32.509,LearnStrategy,2023.2.3,Win32,59.52380952,,,,,,,,,,,2,11,2,2,,,,,,,,,,,,,,,,,,,,,,,,,,,,,,,
65181c2f753b188afdddd2c4,SCR,2024-06-21_11h07.32.509,LearnStrategy,2023.2.3,Win32,59.52380952,,,,,,,,,,,1,01,2,3,,,,,,,,,,,,,,,,,,,,,,,,,,,,,,,
65181c2f753b188afdddd2c4,SCR,2024-06-21_11h07.32.509,LearnStrategy,2023.2.3,Win32,59.52380952,,,,,,,,,,,7,06,2,4,,,,,,,,,,,,,,,,,,,,,,,,,,,,,,,
65181c2f753b188afdddd2c4,SCR,2024-06-21_11h07.32.509,LearnStrategy,2023.2.3,Win32,59.52380952,,,,,,,,,,,4,15,2,5,,,,,,,,,,,,,,,,,,,,,,,,,,,,,,,
65181c2f753b188afdddd2c4,SCR,2024-06-21_11h07.32.509,LearnStrategy,2023.2.3,Win32,59.52380952,,,,,,,,,,,7,12,2,6,,,,,,,,,,,,,,,,,,,,,,,,,,,,,,,
65181c2f753b188afdddd2c4,SCR,2024-06-21_11h07.32.509,LearnStrategy,2023.2.3,Win32,59.52380952,,,,,,,,,,,5,04,2,7,,,,,,,,,,,,,,,,,,,,,,,,,,,,,,,
65181c2f753b188afdddd2c4,SCR,2024-06-21_11h07.32.509,LearnStrategy,2023.2.3,Win32,59.52380952,,,,,,,,,,,4,11,2,8,,,,,,,,,,,,,,,,,,,,,,,,,,,,,,,
65181c2f753b188afdddd2c4,SCR,2024-06-21_11h07.32.509,LearnStrategy,2023.2.3,Win32,59.52380952,,,,,,,,,,,6,05,3,1,,,,,,,,,,,,,,,,,,,,,,,,,,,,,,,
65181c2f753b188afdddd2c4,SCR,2024-06-21_11h07.32.509,LearnStrategy,2023.2.3,Win32,59.52380952,,,,,,,,,,,1,04,3,2,,,,,,,,,,,,,,,,,,,,,,,,,,,,,,,
65181c2f753b188afdddd2c4,SCR,2024-06-21_11h07.32.509,LearnStrategy,2023.2.3,Win32,59.52380952,,,,,,,,,,,3,14,3,3,,,,,,,,,,,,,,,,,,,,,,,,,,,,,,,
65181c2f753b188afdddd2c4,SCR,2024-06-21_11h07.32.509,LearnStrategy,2023.2.3,Win32,59.52380952,,,,,,,,,,,2,09,3,4,,,,,,,,,,,,,,,,,,,,,,,,,,,,,,,
65181c2f753b188afdddd2c4,SCR,2024-06-21_11h07.32.509,LearnStrategy,2023.2.3,Win32,59.52380952,,,,,,,,,,,8,13,3,5,,,,,,,,,,,,,,,,,,,,,,,,,,,,,,,
65181c2f753b188afdddd2c4,SCR,2024-06-21_11h07.32.509,LearnStrategy,2023.2.3,Win32,59.52380952,,,,,,,,,,,2,06,3,6,,,,,,,,,,,,,,,,,,,,,,,,,,,,,,,
65181c2f753b188afdddd2c4,SCR,2024-06-21_11h07.32.509,LearnStrategy,2023.2.3,Win32,59.52380952,,,,,,,,,,,3,15,3,7,,,,,,,,,,,,,,,,,,,,,,,,,,,,,,,
65181c2f753b188afdddd2c4,SCR,2024-06-21_11h07.32.509,LearnStrategy,2023.2.3,Win32,59.52380952,,,,,,,,,,,8,04,3,8,,,,,,,,,,,,,,,,,,,,,,,,,,,,,,,
65181c2f753b188afdddd2c4,SCR,2024-06-21_11h07.32.509,LearnStrategy,2023.2.3,Win32,59.52380952,,,,,,,,,,,1,16,4,1,,,,,,,,,,,,,,,,,,,,,,,,,,,,,,,
65181c2f753b188afdddd2c4,SCR,2024-06-21_11h07.32.509,LearnStrategy,2023.2.3,Win32,59.52380952,,,,,,,,,,,4,16,4,2,,,,,,,,,,,,,,,,,,,,,,,,,,,,,,,
65181c2f753b188afdddd2c4,SCR,2024-06-21_11h07.32.509,LearnStrategy,2023.2.3,Win32,59.52380952,,,,,,,,,,,4,13,4,3,,,,,,,,,,,,,,,,,,,,,,,,,,,,,,,
65181c2f753b188afdddd2c4,SCR,2024-06-21_11h07.32.509,LearnStrategy,2023.2.3,Win32,59.52380952,,,,,,,,,,,2,02,4,4,,,,,,,,,,,,,,,,,,,,,,,,,,,,,,,
65181c2f753b188afdddd2c4,SCR,2024-06-21_11h07.32.509,LearnStrategy,2023.2.3,Win32,59.52380952,,,,,,,,,,,1,11,4,5,,,,,,,,,,,,,,,,,,,,,,,,,,,,,,,
65181c2f753b188afdddd2c4,SCR,2024-06-21_11h07.32.509,LearnStrategy,2023.2.3,Win32,59.52380952,,,,,,,,,,,6,15,4,6,,,,,,,,,,,,,,,,,,,,,,,,,,,,,,,
65181c2f753b188afdddd2c4,SCR,2024-06-21_11h07.32.509,LearnStrategy,2023.2.3,Win32,59.52380952,,,,,,,,,,,3,06,4,7,,,,,,,,,,,,,,,,,,,,,,,,,,,,,,,
65181c2f753b188afdddd2c4,SCR,2024-06-21_11h07.32.509,LearnStrategy,2023.2.3,Win32,59.52380952,,,,,,,,,,,7,07,4,8,,,,,,,,,,,,,,,,,,,,,,,,,,,,,,,
65181c2f753b188afdddd2c4,SCR,2024-06-21_11h07.32.509,LearnStrategy,2023.2.3,Win32,59.52380952,,,,,,,,,,,4,08,5,1,,,,,,,,,,,,,,,,,,,,,,,,,,,,,,,
65181c2f753b188afdddd2c4,SCR,2024-06-21_11h07.32.509,LearnStrategy,2023.2.3,Win32,59.52380952,,,,,,,,,,,2,05,5,2,,,,,,,,,,,,,,,,,,,,,,,,,,,,,,,
65181c2f753b188afdddd2c4,SCR,2024-06-21_11h07.32.509,LearnStrategy,2023.2.3,Win32,59.52380952,,,,,,,,,,,5,12,5,3,,,,,,,,,,,,,,,,,,,,,,,,,,,,,,,
65181c2f753b188afdddd2c4,SCR,2024-06-21_11h07.32.509,LearnStrategy,2023.2.3,Win32,59.52380952,,,,,,,,,,,6,07,5,4,,,,,,,,,,,,,,,,,,,,,,,,,,,,,,,
65181c2f753b188afdddd2c4,SCR,2024-06-21_11h07.32.509,LearnStrategy,2023.2.3,Win32,59.52380952,,,,,,,,,,,1,02,5,5,,,,,,,,,,,,,,,,,,,,,,,,,,,,,,,
65181c2f753b188afdddd2c4,SCR,2024-06-21_11h07.32.509,LearnStrategy,2023.2.3,Win32,59.52380952,,,,,,,,,,,5,05,5,6,,,,,,,,,,,,,,,,,,,,,,,,,,,,,,,
65181c2f753b188afdddd2c4,SCR,2024-06-21_11h07.32.509,LearnStrategy,2023.2.3,Win32,59.52380952,,,,,,,,,,,8,10,5,7,,,,,,,,,,,,,,,,,,,,,,,,,,,,,,,
65181c2f753b188afdddd2c4,SCR,2024-06-21_11h07.32.509,LearnStrategy,2023.2.3,Win32,59.52380952,,,,,,,,,,,7,13,5,8,,,,,,,,,,,,,,,,,,,,,,,,,,,,,,,
65181c2f753b188afdddd2c4,SCR,2024-06-21_11h07.32.509,LearnStrategy,2023.2.3,Win32,59.52380952,,,,,,,,,,,3,12,6,1,,,,,,,,,,,,,,,,,,,,,,,,,,,,,,,
65181c2f753b188afdddd2c4,SCR,2024-06-21_11h07.32.509,LearnStrategy,2023.2.3,Win32,59.52380952,,,,,,,,,,,3,02,6,2,,,,,,,,,,,,,,,,,,,,,,,,,,,,,,,
65181c2f753b188afdddd2c4,SCR,2024-06-21_11h07.32.509,LearnStrategy,2023.2.3,Win32,59.52380952,,,,,,,,,,,3,13,6,3,,,,,,,,,,,,,,,,,,,,,,,,,,,,,,,
65181c2f753b188afdddd2c4,SCR,2024-06-21_11h07.32.509,LearnStrategy,2023.2.3,Win32,59.52380952,,,,,,,,,,,5,11,6,4,,,,,,,,,,,,,,,,,,,,,,,,,,,,,,,
65181c2f753b188afdddd2c4,SCR,2024-06-21_11h07.32.509,LearnStrategy,2023.2.3,Win32,59.52380952,,,,,,,,,,,8,15,6,5,,,,,,,,,,,,,,,,,,,,,,,,,,,,,,,
65181c2f753b188afdddd2c4,SCR,2024-06-21_11h07.32.509,LearnStrategy,2023.2.3,Win32,59.52380952,,,,,,,,,,,5,06,6,6,,,,,,,,,,,,,,,,,,,,,,,,,,,,,,,
65181c2f753b188afdddd2c4,SCR,2024-06-21_11h07.32.509,LearnStrategy,2023.2.3,Win32,59.52380952,,,,,,,,,,,8,09,6,7,,,,,,,,,,,,,,,,,,,,,,,,,,,,,,,
65181c2f753b188afdddd2c4,SCR,2024-06-21_11h07.32.509,LearnStrategy,2023.2.3,Win32,59.52380952,,,,,,,,,,,2,14,6,8,,,,,,,,,,,,,,,,,,,,,,,,,,,,,,,