participant,condition,date,expName,psychopyVersion,OS,frameRate,block,phase,trial,learn_mouse.x,learn_mouse.y,learn_mouse.leftButton,learn_mouse.midButton,learn_mouse.rightButton,learn_mouse.time,learn_mouse.clicked_name,cat,token,row,col,t_select,cat_rec,token_rec,cat_mouse_l.x,cat_mouse_l.y,cat_mouse_l.leftButton,cat_mouse_l.midButton,cat_mouse_l.rightButton,cat_mouse_l.time,cat_mouse_l.clicked_name,resp,t_resp,corr,train_trials.thisRepN,train_trials.thisTrialN,train_trials.thisN,train_trials.thisIndex,train_trials.ran,cat_mouse_t.x,cat_mouse_t.y,cat_mouse_t.leftButton,cat_mouse_t.midButton,cat_mouse_t.rightButton,cat_mouse_t.time,cat_mouse_t.clicked_name,test_trials.thisRepN,test_trials.thisTrialN,test_trials.thisN,test_trials.thisIndex,test_trials.ran
651c2643ebbc43fca485ae24,SCR,2024-06-10_14h15.53.717,LearnStrategy,2023.2.3,Win32,60.24096386,,,,,,,,,,,,,,,,,,,,,,,,,,,,,,,,,,,,,,,,,,,,
651c2643ebbc43fca485ae24,SCR,2024-06-10_14h15.53.717,LearnStrategy,2023.2.3,Win32,60.24096386,1,1,1,-0.547622183,-0.092855255,1,0,0,3.1496,Diorite_08,3,08,3,1,3.15,3,08,0.106276062,-0.23898818,1,0,0,5.3668,Diorite_rect,3,5.367,1,0,0,0,0,1,,,,,,,,,,,,
651c2643ebbc43fca485ae24,SCR,2024-06-10_14h15.53.717,LearnStrategy,2023.2.3,Win32,60.24096386,1,1,2,-0.076852589,0.097672279,1,0,0,2.4472,Pumice_13,8,13,4,4,2.447,8,13,0.364320478,-0.395294642,1,0,0,3.7273,Pumice_rect,8,3.727,1,1,0,1,0,1,,,,,,,,,,,,
651c2643ebbc43fca485ae24,SCR,2024-06-10_14h15.53.717,LearnStrategy,2023.2.3,Win32,60.24096386,1,1,3,-0.39224053,0.094897669,1,0,0,2.2975,Gabbro_09,4,09,4,2,2.297,4,09,-0.151768761,-0.23898818,1,0,0,2.544,Basalt_rect,2,2.544,0,2,0,2,0,1,,,,,,,,,,,,
651c2643ebbc43fca485ae24,SCR,2024-06-10_14h15.53.717,LearnStrategy,2023.2.3,Win32,60.24096386,1,1,4,0.231136152,-0.105803719,1,0,0,1.2636,Obsidian_04,5,04,3,6,1.264,5,04,-0.405188993,-0.399919097,1,0,0,3.1276,Obsidian_rect,5,3.128,1,3,0,3,0,1,,,,,,,,,,,,
651c2643ebbc43fca485ae24,SCR,2024-06-10_14h15.53.717,LearnStrategy,2023.2.3,Win32,60.24096386,1,1,5,-0.533748842,0.120794619,1,0,0,1.4472,Basalt_11,2,11,4,1,1.447,2,11,-0.134195888,-0.257485998,1,0,0,4.7435,Basalt_rect,2,4.743,1,4,0,4,0,1,,,,,,,,,,,,
651c2643ebbc43fca485ae24,SCR,2024-06-10_14h15.53.717,LearnStrategy,2023.2.3,Win32,60.24096386,1,1,6,0.399466314,0.272476762,1,0,0,1.4639,Pegmatite_10,6,10,5,7,1.464,6,10,-0.457907747,-0.270434462,1,0,0,7.4106,Andesite_rect,1,7.411,0,5,0,5,0,1,,,,,,,,,,,,
651c2643ebbc43fca485ae24,SCR,2024-06-10_14h15.53.717,LearnStrategy,2023.2.3,Win32,60.24096386,1,1,7,0.404090768,-0.270434462,1,0,0,1.6303,Obsidian_02,5,02,2,7,1.63,5,02,-0.356169703,-0.403618787,1,0,0,5.7611,Obsidian_rect,5,5.761,1,6,0,6,0,1,,,,,,,,,,,,
651c2643ebbc43fca485ae24,SCR,2024-06-10_14h15.53.717,LearnStrategy,2023.2.3,Win32,60.24096386,1,1,8,0.590918929,-0.418416915,1,0,0,2.2306,Pumice_02,8,02,1,8,2.231,8,02,-0.364493667,-0.243612635,1,0,0,3.8891,Andesite_rect,1,3.889,0,7,0,7,0,1,,,,,,,,,,,,
651c2643ebbc43fca485ae24,SCR,2024-06-10_14h15.53.717,LearnStrategy,2023.2.3,Win32,60.24096386,1,1,9,0.097027153,-0.132625682,1,0,0,0.9806,Peridotite_14,7,14,3,5,0.981,7,14,0.106276062,-0.399919097,1,0,0,2.6604,Peridotite_rect,7,2.66,1,8,0,8,0,1,,,,,,,,,,,,
651c2643ebbc43fca485ae24,SCR,2024-06-10_14h15.53.717,LearnStrategy,2023.2.3,Win32,60.24096386,1,1,10,0.381893622,0.378839238,1,0,0,1.5641,Gabbro_16,4,16,6,7,1.564,4,16,0.368944932,-0.23898818,1,0,0,7.0608,Gabbro_rect,4,7.061,1,9,0,9,0,1,,,,,,,,,,,,
651c2643ebbc43fca485ae24,SCR,2024-06-10_14h15.53.717,LearnStrategy,2023.2.3,Win32,60.24096386,1,1,11,-0.378367166,-0.408243242,1,0,0,1.3484,Andesite_09,1,09,1,2,1.348,1,09,0.119224299,-0.265810007,1,0,0,4.2436,Diorite_rect,3,4.244,0,10,0,10,0,1,,,,,,,,,,,,
651c2643ebbc43fca485ae24,SCR,2024-06-10_14h15.53.717,LearnStrategy,2023.2.3,Win32,60.24096386,1,1,12,-0.232234287,-0.111353073,1,0,0,1.4308,Diorite_16,3,16,3,3,1.431,3,16,0.12477388,-0.257485998,1,0,0,2.2602,Diorite_rect,3,2.26,1,11,0,11,0,1,,,,,,,,,,,,
651c2643ebbc43fca485ae24,SCR,2024-06-10_14h15.53.717,LearnStrategy,2023.2.3,Win32,60.24096386,1,1,13,-0.369118122,-0.09655481,1,0,0,1.0303,Pegmatite_05,6,05,3,2,1.03,6,05,0.079454009,-0.412867696,1,0,0,6.81,Peridotite_rect,7,6.81,0,12,0,12,0,1,,,,,,,,,,,,
651c2643ebbc43fca485ae24,SCR,2024-06-10_14h15.53.717,LearnStrategy,2023.2.3,Win32,60.24096386,1,1,14,0.239460388,-0.417492151,1,0,0,1.564,Peridotite_10,7,10,1,6,1.564,7,10,0.136797353,-0.399919097,1,0,0,7.5775,Peridotite_rect,7,7.577,1,13,0,13,0,1,,,,,,,,,,,,
651c2643ebbc43fca485ae24,SCR,2024-06-10_14h15.53.717,LearnStrategy,2023.2.3,Win32,60.24096386,1,1,15,0.52895122,-0.101179264,1,0,0,1.1802,Andesite_03,1,03,3,8,1.18,1,03,-0.124946934,-0.399919097,1,0,0,6.6769,Pegmatite_rect,6,6.677,0,14,0,14,0,1,,,,,,,,,,,,
651c2643ebbc43fca485ae24,SCR,2024-06-10_14h15.53.717,LearnStrategy,2023.2.3,Win32,60.24096386,1,1,16,0.226511698,0.38716327,1,0,0,1.6137,Basalt_09,2,09,6,6,1.614,2,09,-0.169341634,-0.23898818,1,0,0,2.1104,Basalt_rect,2,2.11,1,15,0,15,0,1,,,,,,,,,,,,
651c2643ebbc43fca485ae24,SCR,2024-06-10_14h15.53.717,LearnStrategy,2023.2.3,Win32,60.24096386,1,2,1,,,,,,,,3,10,,,,,,,,,,,,,3,3.178,1,,,,,,0.119224299,-0.249161853,1,0,0,3.1778,Diorite_rect,0,0,0,0,1
651c2643ebbc43fca485ae24,SCR,2024-06-10_14h15.53.717,LearnStrategy,2023.2.3,Win32,60.24096386,1,2,2,,,,,,,,5,07,,,,,,,,,,,,,5,8.745,1,,,,,,-0.406113893,-0.409168006,1,0,0,8.7446,Obsidian_rect,1,0,1,0,1
651c2643ebbc43fca485ae24,SCR,2024-06-10_14h15.53.717,LearnStrategy,2023.2.3,Win32,60.24096386,1,2,3,,,,,,,,7,15,,,,,,,,,,,,,7,2.095,1,,,,,,0.150670626,-0.403618787,1,0,0,2.0949,Peridotite_rect,2,0,2,0,1
651c2643ebbc43fca485ae24,SCR,2024-06-10_14h15.53.717,LearnStrategy,2023.2.3,Win32,60.24096386,1,2,4,,,,,,,,7,12,,,,,,,,,,,,,7,2.895,1,,,,,,0.110900517,-0.395294642,1,0,0,2.8949,Peridotite_rect,3,0,3,0,1
651c2643ebbc43fca485ae24,SCR,2024-06-10_14h15.53.717,LearnStrategy,2023.2.3,Win32,60.24096386,1,2,5,,,,,,,,5,08,,,,,,,,,,,,,5,1.561,1,,,,,,-0.405188993,-0.390670188,1,0,0,1.5608,Obsidian_rect,4,0,4,0,1
651c2643ebbc43fca485ae24,SCR,2024-06-10_14h15.53.717,LearnStrategy,2023.2.3,Win32,60.24096386,1,2,6,,,,,,,,1,02,,,,,,,,,,,,,1,5.328,1,,,,,,-0.422761911,-0.248237089,1,0,0,5.3281,Andesite_rect,5,0,5,0,1
651c2643ebbc43fca485ae24,SCR,2024-06-10_14h15.53.717,LearnStrategy,2023.2.3,Win32,60.24096386,1,2,7,,,,,,,,8,08,,,,,,,,,,,,,8,3.994,1,,,,,,0.417964132,-0.408243242,1,0,0,3.9943,Pumice_rect,6,0,6,0,1
651c2643ebbc43fca485ae24,SCR,2024-06-10_14h15.53.717,LearnStrategy,2023.2.3,Win32,60.24096386,1,2,8,,,,,,,,2,06,,,,,,,,,,,,,2,9.828,1,,,,,,-0.124946934,-0.257485998,1,0,0,9.828,Basalt_rect,7,0,7,0,1
651c2643ebbc43fca485ae24,SCR,2024-06-10_14h15.53.717,LearnStrategy,2023.2.3,Win32,60.24096386,1,2,9,,,,,,,,6,09,,,,,,,,,,,,,6,8.394,1,,,,,,-0.182290233,-0.403618787,1,0,0,8.3944,Pegmatite_rect,8,0,8,0,1
651c2643ebbc43fca485ae24,SCR,2024-06-10_14h15.53.717,LearnStrategy,2023.2.3,Win32,60.24096386,1,2,10,,,,,,,,4,08,,,,,,,,,,,,,4,6.062,1,,,,,,0.395766895,-0.257485998,1,0,0,6.0615,Gabbro_rect,9,0,9,0,1
651c2643ebbc43fca485ae24,SCR,2024-06-10_14h15.53.717,LearnStrategy,2023.2.3,Win32,60.24096386,1,2,11,,,,,,,,4,13,,,,,,,,,,,,,1,6.694,0,,,,,,-0.39131563,-0.270434462,1,0,0,6.6942,Andesite_rect,10,0,10,0,1
651c2643ebbc43fca485ae24,SCR,2024-06-10_14h15.53.717,LearnStrategy,2023.2.3,Win32,60.24096386,1,2,12,,,,,,,,6,03,,,,,,,,,,,,,7,6.878,0,,,,,,0.110900517,-0.399919097,1,0,0,6.8778,Peridotite_rect,11,0,11,0,1
651c2643ebbc43fca485ae24,SCR,2024-06-10_14h15.53.717,LearnStrategy,2023.2.3,Win32,60.24096386,1,2,13,,,,,,,,8,05,,,,,,,,,,,,,8,1.812,1,,,,,,0.441086676,-0.404543551,1,0,0,1.8117,Pumice_rect,12,0,12,0,1
651c2643ebbc43fca485ae24,SCR,2024-06-10_14h15.53.717,LearnStrategy,2023.2.3,Win32,60.24096386,1,2,14,,,,,,,,2,08,,,,,,,,,,,,,2,3.899,1,,,,,,-0.170266579,-0.252861544,1,0,0,3.8991,Basalt_rect,13,0,13,0,1
651c2643ebbc43fca485ae24,SCR,2024-06-10_14h15.53.717,LearnStrategy,2023.2.3,Win32,60.24096386,1,2,15,,,,,,,,1,11,,,,,,,,,,,,,4,4.795,0,,,,,,0.377269168,-0.23528849,1,0,0,4.7946,Gabbro_rect,14,0,14,0,1
651c2643ebbc43fca485ae24,SCR,2024-06-10_14h15.53.717,LearnStrategy,2023.2.3,Win32,60.24096386,1,2,16,,,,,,,,3,11,,,,,,,,,,,,,3,2.177,1,,,,,,0.120149426,-0.248237089,1,0,0,2.1772,Diorite_rect,15,0,15,0,1
651c2643ebbc43fca485ae24,SCR,2024-06-10_14h15.53.717,LearnStrategy,2023.2.3,Win32,60.24096386,2,1,1,-0.231309342,-0.128001227,1,0,0,5.6139,Diorite_16,3,16,3,3,5.614,4,10,0.088702918,-0.253786308,1,0,0,6.6061,Diorite_rect,3,6.606,1,0,0,0,0,1,,,,,,,,,,,,
651c2643ebbc43fca485ae24,SCR,2024-06-10_14h15.53.717,LearnStrategy,2023.2.3,Win32,60.24096386,2,1,2,-0.213736469,0.409360665,1,0,0,7.5142,Obsidian_06,5,06,6,3,7.514,6,08,-0.418137457,-0.403618787,1,0,0,1.5721,Obsidian_rect,5,1.572,1,1,0,1,0,1,,,,,,,,,,,,
651c2643ebbc43fca485ae24,SCR,2024-06-10_14h15.53.717,LearnStrategy,2023.2.3,Win32,60.24096386,2,1,3,0.414264713,0.24935449,1,0,0,1.8827,Pegmatite_10,6,10,5,7,1.883,6,10,-0.098125152,-0.412867696,1,0,0,1.1938,Pegmatite_rect,6,1.194,1,2,0,2,0,1,,,,,,,,,,,,
651c2643ebbc43fca485ae24,SCR,2024-06-10_14h15.53.717,LearnStrategy,2023.2.3,Win32,60.24096386,2,1,4,-0.401489439,0.075474951,1,0,0,1.5002,Gabbro_09,4,09,4,2,1.5,4,09,0.421663731,-0.258410762,1,0,0,2.6436,Gabbro_rect,4,2.644,1,3,0,3,0,1,,,,,,,,,,,,
651c2643ebbc43fca485ae24,SCR,2024-06-10_14h15.53.717,LearnStrategy,2023.2.3,Win32,60.24096386,2,1,5,0.405015804,0.244730035,1,0,0,1.0814,Pegmatite_10,6,10,5,7,1.081,6,10,-0.11107357,-0.399919097,1,0,0,3.1106,Pegmatite_rect,6,3.111,1,4,0,4,0,1,,,,,,,,,,,,
651c2643ebbc43fca485ae24,SCR,2024-06-10_14h15.53.717,LearnStrategy,2023.2.3,Win32,60.24096386,2,1,6,-0.547622183,-0.115052628,1,0,0,1.0643,Diorite_08,3,08,3,1,1.064,3,08,0.159919535,-0.23528849,1,0,0,0.9595,Diorite_rect,3,0.959,1,5,0,5,0,1,,,,,,,,,,,,
651c2643ebbc43fca485ae24,SCR,2024-06-10_14h15.53.717,LearnStrategy,2023.2.3,Win32,60.24096386,2,1,7,-0.386691176,-0.390670188,1,0,0,1.0153,Andesite_09,1,09,1,2,1.015,1,09,-0.382991621,-0.244537399,1,0,0,4.7277,Andesite_rect,1,4.728,1,6,0,6,0,1,,,,,,,,,,,,
651c2643ebbc43fca485ae24,SCR,2024-06-10_14h15.53.717,LearnStrategy,2023.2.3,Win32,60.24096386,2,1,8,0.368944932,0.098597178,1,0,0,1.1138,Obsidian_09,5,09,4,7,1.114,5,09,-0.400564539,-0.395294642,1,0,0,1.0109,Obsidian_rect,5,1.011,1,7,0,7,0,1,,,,,,,,,,,,
651c2643ebbc43fca485ae24,SCR,2024-06-10_14h15.53.717,LearnStrategy,2023.2.3,Win32,60.24096386,2,1,9,-0.262755759,-0.270434462,1,0,0,1.1312,Andesite_06,1,06,2,3,1.131,1,06,0.146971026,-0.257485998,1,0,0,1.4612,Diorite_rect,3,1.461,0,8,0,8,0,1,,,,,,,,,,,,
651c2643ebbc43fca485ae24,SCR,2024-06-10_14h15.53.717,LearnStrategy,2023.2.3,Win32,60.24096386,2,1,10,-0.049105862,0.276176339,1,0,0,4.2308,Basalt_02,2,02,5,4,4.231,2,02,-0.133270988,-0.243612635,1,0,0,3.2562,Basalt_rect,2,3.256,1,9,0,9,0,1,,,,,,,,,,,,
651c2643ebbc43fca485ae24,SCR,2024-06-10_14h15.53.717,LearnStrategy,2023.2.3,Win32,60.24096386,2,1,11,0.061881046,0.240105581,1,0,0,1.0637,Gabbro_11,4,11,5,5,1.064,4,11,-0.115698025,-0.23898818,1,0,0,2.2941,Basalt_rect,2,2.294,0,10,0,10,0,1,,,,,,,,,,,,
651c2643ebbc43fca485ae24,SCR,2024-06-10_14h15.53.717,LearnStrategy,2023.2.3,Win32,60.24096386,2,1,12,0.097951827,-0.408243242,1,0,0,1.6469,Pegmatite_12,6,12,1,5,1.647,6,12,0.110900517,-0.252861544,1,0,0,4.9099,Diorite_rect,3,4.91,0,11,0,11,0,1,,,,,,,,,,,,
651c2643ebbc43fca485ae24,SCR,2024-06-10_14h15.53.717,LearnStrategy,2023.2.3,Win32,60.24096386,2,1,13,0.373569387,0.370515218,1,0,0,0.8649,Gabbro_16,4,16,6,7,0.865,4,16,-0.142519897,-0.23898818,1,0,0,1.6941,Basalt_rect,2,1.694,0,12,0,12,0,1,,,,,,,,,,,,
651c2643ebbc43fca485ae24,SCR,2024-06-10_14h15.53.717,LearnStrategy,2023.2.3,Win32,60.24096386,2,1,14,0.56872142,-0.422116605,1,0,0,1.1319,Pumice_02,8,02,1,8,1.132,8,02,0.350447114,-0.408243242,1,0,0,1.2773,Pumice_rect,8,1.277,1,13,0,13,0,1,,,,,,,,,,,,
651c2643ebbc43fca485ae24,SCR,2024-06-10_14h15.53.717,LearnStrategy,2023.2.3,Win32,60.24096386,2,1,15,-0.079627244,-0.279683371,1,0,0,0.9318,Peridotite_04,7,04,2,4,0.932,7,04,0.097027153,-0.391595133,1,0,0,2.4106,Peridotite_rect,7,2.411,1,14,0,14,0,1,,,,,,,,,,,,
651c2643ebbc43fca485ae24,SCR,2024-06-10_14h15.53.717,LearnStrategy,2023.2.3,Win32,60.24096386,2,1,16,-0.570744523,0.427858488,1,0,0,1.0137,Andesite_01,1,01,6,1,1.014,1,01,0.128473208,-0.265810007,1,0,0,2.1103,Diorite_rect,3,2.11,0,15,0,15,0,1,,,,,,,,,,,,
651c2643ebbc43fca485ae24,SCR,2024-06-10_14h15.53.717,LearnStrategy,2023.2.3,Win32,60.24096386,2,2,1,,,,,,,,3,02,,,,,,,,,,,,,3,1.462,1,,,,,,0.128473208,-0.239912944,1,0,0,1.4617,Diorite_rect,0,0,0,0,1
651c2643ebbc43fca485ae24,SCR,2024-06-10_14h15.53.717,LearnStrategy,2023.2.3,Win32,60.24096386,2,2,2,,,,,,,,4,12,,,,,,,,,,,,,4,5.462,1,,,,,,0.404090768,-0.258410762,1,0,0,5.4618,Gabbro_rect,1,0,1,0,1
651c2643ebbc43fca485ae24,SCR,2024-06-10_14h15.53.717,LearnStrategy,2023.2.3,Win32,60.24096386,2,2,3,,,,,,,,6,16,,,,,,,,,,,,,6,7.262,1,,,,,,-0.148069252,-0.408243242,1,0,0,7.2619,Pegmatite_rect,2,0,2,0,1
651c2643ebbc43fca485ae24,SCR,2024-06-10_14h15.53.717,LearnStrategy,2023.2.3,Win32,60.24096386,2,2,4,,,,,,,,5,10,,,,,,,,,,,,,5,2.378,1,,,,,,-0.427386366,-0.403618787,1,0,0,2.378,Obsidian_rect,3,0,3,0,1
651c2643ebbc43fca485ae24,SCR,2024-06-10_14h15.53.717,LearnStrategy,2023.2.3,Win32,60.24096386,2,2,5,,,,,,,,7,16,,,,,,,,,,,,,4,2.645,0,,,,,,0.421663731,-0.236213435,1,0,0,2.6453,Gabbro_rect,4,0,4,0,1
651c2643ebbc43fca485ae24,SCR,2024-06-10_14h15.53.717,LearnStrategy,2023.2.3,Win32,60.24096386,2,2,6,,,,,,,,3,15,,,,,,,,,,,,,1,7.995,0,,,,,,-0.43293572,-0.248237089,1,0,0,7.9952,Andesite_rect,5,0,5,0,1
651c2643ebbc43fca485ae24,SCR,2024-06-10_14h15.53.717,LearnStrategy,2023.2.3,Win32,60.24096386,2,2,7,,,,,,,,2,05,,,,,,,,,,,,,2,1.828,1,,,,,,-0.148069252,-0.265810007,1,0,0,1.8282,Basalt_rect,6,0,6,0,1
651c2643ebbc43fca485ae24,SCR,2024-06-10_14h15.53.717,LearnStrategy,2023.2.3,Win32,60.24096386,2,2,8,,,,,,,,8,06,,,,,,,,,,,,,8,1.006,1,,,,,,0.421663731,-0.412867696,1,0,0,1.0062,Pumice_rect,7,0,7,0,1
651c2643ebbc43fca485ae24,SCR,2024-06-10_14h15.53.717,LearnStrategy,2023.2.3,Win32,60.24096386,2,2,9,,,,,,,,8,10,,,,,,,,,,,,,8,1.262,1,,,,,,0.355071569,-0.381421279,1,0,0,1.2624,Pumice_rect,8,0,8,0,1
651c2643ebbc43fca485ae24,SCR,2024-06-10_14h15.53.717,LearnStrategy,2023.2.3,Win32,60.24096386,2,2,10,,,,,,,,2,16,,,,,,,,,,,,,4,6.229,0,,,,,,0.368944932,-0.261185553,1,0,0,6.2286,Gabbro_rect,9,0,9,0,1
651c2643ebbc43fca485ae24,SCR,2024-06-10_14h15.53.717,LearnStrategy,2023.2.3,Win32,60.24096386,2,2,11,,,,,,,,7,06,,,,,,,,,,,,,7,2.945,1,,,,,,0.159919535,-0.400844042,1,0,0,2.9449,Peridotite_rect,10,0,10,0,1
651c2643ebbc43fca485ae24,SCR,2024-06-10_14h15.53.717,LearnStrategy,2023.2.3,Win32,60.24096386,2,2,12,,,,,,,,6,11,,,,,,,,,,,,,6,2.329,1,,,,,,-0.128646534,-0.396219587,1,0,0,2.3289,Pegmatite_rect,11,0,11,0,1
651c2643ebbc43fca485ae24,SCR,2024-06-10_14h15.53.717,LearnStrategy,2023.2.3,Win32,60.24096386,2,2,13,,,,,,,,1,16,,,,,,,,,,,,,3,5.481,0,,,,,,0.092402699,-0.23528849,1,0,0,5.4812,Diorite_rect,12,0,12,0,1
651c2643ebbc43fca485ae24,SCR,2024-06-10_14h15.53.717,LearnStrategy,2023.2.3,Win32,60.24096386,2,2,14,,,,,,,,1,04,,,,,,,,,,,,,6,6.145,0,,,,,,-0.156393215,-0.400844042,1,0,0,6.1453,Pegmatite_rect,13,0,13,0,1
651c2643ebbc43fca485ae24,SCR,2024-06-10_14h15.53.717,LearnStrategy,2023.2.3,Win32,60.24096386,2,2,15,,,,,,,,5,11,,,,,,,,,,,,,5,0.962,1,,,,,,-0.43201082,-0.396219587,1,0,0,0.9621,Obsidian_rect,14,0,14,0,1
651c2643ebbc43fca485ae24,SCR,2024-06-10_14h15.53.717,LearnStrategy,2023.2.3,Win32,60.24096386,2,2,16,,,,,,,,4,05,,,,,,,,,,,,,4,7.595,1,,,,,,0.426288186,-0.253786308,1,0,0,7.5953,Gabbro_rect,15,0,15,0,1
651c2643ebbc43fca485ae24,SCR,2024-06-10_14h15.53.717,LearnStrategy,2023.2.3,Win32,60.24096386,3,1,1,0.542824584,0.382538815,1,0,0,5.3494,Diorite_13,3,13,6,8,5.349,6,12,-0.386691176,-0.258410762,1,0,0,1.805,Andesite_rect,1,1.805,0,0,0,0,0,1,,,,,,,,,,,,
651c2643ebbc43fca485ae24,SCR,2024-06-10_14h15.53.717,LearnStrategy,2023.2.3,Win32,60.24096386,3,1,2,-0.244257941,-0.133550582,1,0,0,3.2649,Diorite_16,3,16,3,3,3.265,1,01,-0.43293572,-0.243612635,1,0,0,1.7229,Andesite_rect,1,1.723,0,1,0,1,0,1,,,,,,,,,,,,
651c2643ebbc43fca485ae24,SCR,2024-06-10_14h15.53.717,LearnStrategy,2023.2.3,Win32,60.24096386,3,1,3,-0.044481408,0.271551885,1,0,0,2.3988,Basalt_02,2,02,5,4,2.399,2,02,-0.137895443,-0.23898818,1,0,0,2.0276,Basalt_rect,2,2.028,1,2,0,2,0,1,,,,,,,,,,,,
651c2643ebbc43fca485ae24,SCR,2024-06-10_14h15.53.717,LearnStrategy,2023.2.3,Win32,60.24096386,3,1,4,-0.356169703,-0.252861544,1,0,0,0.9308,Pumice_03,8,03,2,2,0.931,8,03,0.422588858,-0.403618787,1,0,0,1.094,Pumice_rect,8,1.094,1,3,0,3,0,1,,,,,,,,,,,,
651c2643ebbc43fca485ae24,SCR,2024-06-10_14h15.53.717,LearnStrategy,2023.2.3,Win32,60.24096386,3,1,5,-0.596641473,-0.089155746,1,0,0,0.7822,Diorite_08,3,08,3,1,0.782,3,08,-0.43571042,-0.257485998,1,0,0,2.7778,Andesite_rect,1,2.778,0,4,0,4,0,1,,,,,,,,,,,,
651c2643ebbc43fca485ae24,SCR,2024-06-10_14h15.53.717,LearnStrategy,2023.2.3,Win32,60.24096386,3,1,6,-0.405188993,-0.412867696,1,0,0,1.031,Andesite_09,1,09,1,2,1.031,1,09,0.408715223,-0.258410762,1,0,0,2.0441,Gabbro_rect,4,2.044,0,5,0,5,0,1,,,,,,,,,,,,
651c2643ebbc43fca485ae24,SCR,2024-06-10_14h15.53.717,LearnStrategy,2023.2.3,Win32,60.24096386,3,1,7,-0.240558251,-0.279683371,1,0,0,1.2138,Andesite_06,1,06,2,3,1.214,1,06,-0.39131563,-0.239912944,1,0,0,2.9596,Andesite_rect,1,2.96,1,6,0,6,0,1,,,,,,,,,,,,
651c2643ebbc43fca485ae24,SCR,2024-06-10_14h15.53.717,LearnStrategy,2023.2.3,Win32,60.24096386,3,1,8,0.600167838,0.262302931,1,0,0,0.9971,Basalt_14,2,14,5,8,0.997,2,14,0.404090768,-0.408243242,1,0,0,1.9944,Pumice_rect,8,1.994,0,7,0,7,0,1,,,,,,,,,,,,
651c2643ebbc43fca485ae24,SCR,2024-06-10_14h15.53.717,LearnStrategy,2023.2.3,Win32,60.24096386,3,1,9,-0.436635275,0.276176339,1,0,0,0.964,Gabbro_03,4,03,5,2,0.964,4,03,0.107200736,-0.252861544,1,0,0,1.5766,Diorite_rect,3,1.577,0,8,0,8,0,1,,,,,,,,,,,,
651c2643ebbc43fca485ae24,SCR,2024-06-10_14h15.53.717,LearnStrategy,2023.2.3,Win32,60.24096386,3,1,10,0.052632137,0.236405981,1,0,0,1.1145,Gabbro_11,4,11,5,5,1.115,4,11,0.368944932,-0.23528849,1,0,0,2.1446,Gabbro_rect,4,2.145,1,9,0,9,0,1,,,,,,,,,,,,
651c2643ebbc43fca485ae24,SCR,2024-06-10_14h15.53.717,LearnStrategy,2023.2.3,Win32,60.24096386,3,1,11,0.582594784,-0.115052628,1,0,0,1.1475,Andesite_03,1,03,3,8,1.148,1,03,0.101651608,-0.257485998,1,0,0,4.1776,Diorite_rect,3,4.178,0,10,0,10,0,1,,,,,,,,,,,,
651c2643ebbc43fca485ae24,SCR,2024-06-10_14h15.53.717,LearnStrategy,2023.2.3,Win32,60.24096386,3,1,12,0.226511698,0.081024306,1,0,0,1.1307,Peridotite_02,7,02,4,6,1.131,7,02,0.088702918,-0.390670188,1,0,0,2.2934,Peridotite_rect,7,2.293,1,11,0,11,0,1,,,,,,,,,,,,
651c2643ebbc43fca485ae24,SCR,2024-06-10_14h15.53.717,LearnStrategy,2023.2.3,Win32,60.24096386,3,1,13,0.199689825,-0.395294642,1,0,0,1.0645,Peridotite_10,7,10,1,6,1.065,7,10,0.156219935,-0.390670188,1,0,0,1.2945,Peridotite_rect,7,1.294,1,12,0,12,0,1,,,,,,,,,,,,
651c2643ebbc43fca485ae24,SCR,2024-06-10_14h15.53.717,LearnStrategy,2023.2.3,Win32,60.24096386,3,1,14,0.0665055,-0.403618787,1,0,0,0.8993,Pegmatite_12,6,12,1,5,0.899,6,12,-0.11107357,-0.382346224,1,0,0,1.2278,Pegmatite_rect,6,1.228,1,13,0,13,0,1,,,,,,,,,,,,
651c2643ebbc43fca485ae24,SCR,2024-06-10_14h15.53.717,LearnStrategy,2023.2.3,Win32,60.24096386,3,1,15,-0.552246637,-0.265810007,1,0,0,0.9484,Diorite_09,3,09,2,1,0.948,3,09,-0.386691176,-0.248237089,1,0,0,8.3278,Andesite_rect,1,8.328,0,14,0,14,0,1,,,,,,,,,,,,
651c2643ebbc43fca485ae24,SCR,2024-06-10_14h15.53.717,LearnStrategy,2023.2.3,Win32,60.24096386,3,1,16,-0.218360924,0.40473621,1,0,0,1.6973,Obsidian_06,5,06,6,3,1.697,5,06,-0.414437902,-0.390670188,1,0,0,5.7109,Obsidian_rect,5,5.711,1,15,0,15,0,1,,,,,,,,,,,,
651c2643ebbc43fca485ae24,SCR,2024-06-10_14h15.53.717,LearnStrategy,2023.2.3,Win32,60.24096386,3,2,1,,,,,,,,2,10,,,,,,,,,,,,,2,11.562,1,,,,,,-0.15546827,-0.230664035,1,0,0,11.5618,Basalt_rect,0,0,0,0,1
651c2643ebbc43fca485ae24,SCR,2024-06-10_14h15.53.717,LearnStrategy,2023.2.3,Win32,60.24096386,3,2,2,,,,,,,,5,12,,,,,,,,,,,,,5,2.545,1,,,,,,-0.444959329,-0.409168006,1,0,0,2.5451,Obsidian_rect,1,0,1,0,1
651c2643ebbc43fca485ae24,SCR,2024-06-10_14h15.53.717,LearnStrategy,2023.2.3,Win32,60.24096386,3,2,3,,,,,,,,1,07,,,,,,,,,,,,,1,11.628,1,,,,,,-0.440334875,-0.261185553,1,0,0,11.6282,Andesite_rect,2,0,2,0,1
651c2643ebbc43fca485ae24,SCR,2024-06-10_14h15.53.717,LearnStrategy,2023.2.3,Win32,60.24096386,3,2,4,,,,,,,,3,14,,,,,,,,,,,,,3,3.211,1,,,,,,0.11182519,-0.252861544,1,0,0,3.211,Diorite_rect,3,0,3,0,1
651c2643ebbc43fca485ae24,SCR,2024-06-10_14h15.53.717,LearnStrategy,2023.2.3,Win32,60.24096386,3,2,5,,,,,,,,8,15,,,,,,,,,,,,,8,2.512,1,,,,,,0.413339677,-0.395294642,1,0,0,2.5118,Pumice_rect,4,0,4,0,1
651c2643ebbc43fca485ae24,SCR,2024-06-10_14h15.53.717,LearnStrategy,2023.2.3,Win32,60.24096386,3,2,6,,,,,,,,7,13,,,,,,,,,,,,,7,2.345,1,,,,,,0.136797353,-0.412867696,1,0,0,2.3454,Peridotite_rect,5,0,5,0,1
651c2643ebbc43fca485ae24,SCR,2024-06-10_14h15.53.717,LearnStrategy,2023.2.3,Win32,60.24096386,3,2,7,,,,,,,,8,09,,,,,,,,,,,,,8,1.395,1,,,,,,0.373569387,-0.403618787,1,0,0,1.3953,Pumice_rect,6,0,6,0,1
651c2643ebbc43fca485ae24,SCR,2024-06-10_14h15.53.717,LearnStrategy,2023.2.3,Win32,60.24096386,3,2,8,,,,,,,,4,15,,,,,,,,,,,,,3,10.694,0,,,,,,0.107200736,-0.244537399,1,0,0,10.6937,Diorite_rect,7,0,7,0,1
651c2643ebbc43fca485ae24,SCR,2024-06-10_14h15.53.717,LearnStrategy,2023.2.3,Win32,60.24096386,3,2,9,,,,,,,,5,14,,,,,,,,,,,,,5,1.345,1,,,,,,-0.48472962,-0.408243242,1,0,0,1.3448,Obsidian_rect,8,0,8,0,1
651c2643ebbc43fca485ae24,SCR,2024-06-10_14h15.53.717,LearnStrategy,2023.2.3,Win32,60.24096386,3,2,10,,,,,,,,4,01,,,,,,,,,,,,,1,10.045,0,,,,,,-0.39131563,-0.243612635,1,0,0,10.045,Andesite_rect,9,0,9,0,1
651c2643ebbc43fca485ae24,SCR,2024-06-10_14h15.53.717,LearnStrategy,2023.2.3,Win32,60.24096386,3,2,11,,,,,,,,1,05,,,,,,,,,,,,,4,8.461,0,,,,,,0.418889167,-0.23898818,1,0,0,8.4614,Gabbro_rect,10,0,10,0,1
651c2643ebbc43fca485ae24,SCR,2024-06-10_14h15.53.717,LearnStrategy,2023.2.3,Win32,60.24096386,3,2,12,,,,,,,,2,01,,,,,,,,,,,,,2,4.578,1,,,,,,-0.106449116,-0.248237089,1,0,0,4.5785,Basalt_rect,11,0,11,0,1
651c2643ebbc43fca485ae24,SCR,2024-06-10_14h15.53.717,LearnStrategy,2023.2.3,Win32,60.24096386,3,2,13,,,,,,,,6,06,,,,,,,,,,,,,6,3.477,1,,,,,,-0.121247425,-0.391595133,1,0,0,3.4775,Pegmatite_rect,12,0,12,0,1
651c2643ebbc43fca485ae24,SCR,2024-06-10_14h15.53.717,LearnStrategy,2023.2.3,Win32,60.24096386,3,2,14,,,,,,,,7,07,,,,,,,,,,,,,7,1.795,1,,,,,,0.172868225,-0.409168006,1,0,0,1.7952,Peridotite_rect,13,0,13,0,1
651c2643ebbc43fca485ae24,SCR,2024-06-10_14h15.53.717,LearnStrategy,2023.2.3,Win32,60.24096386,3,2,15,,,,,,,,6,15,,,,,,,,,,,,,6,1.695,1,,,,,,-0.124946934,-0.412867696,1,0,0,1.6951,Pegmatite_rect,14,0,14,0,1
651c2643ebbc43fca485ae24,SCR,2024-06-10_14h15.53.717,LearnStrategy,2023.2.3,Win32,60.24096386,3,2,16,,,,,,,,3,12,,,,,,,,,,,,,3,7.962,1,,,,,,0.141421808,-0.252861544,1,0,0,7.9619,Diorite_rect,15,0,15,0,1
651c2643ebbc43fca485ae24,SCR,2024-06-10_14h15.53.717,LearnStrategy,2023.2.3,Win32,60.24096386,4,1,1,-0.396864984,-0.270434462,1,0,0,1.033,Pumice_03,8,03,2,2,1.033,8,03,0.408715223,-0.390670188,1,0,0,1.0606,Pumice_rect,8,1.061,1,0,0,0,0,1,,,,,,,,,,,,
651c2643ebbc43fca485ae24,SCR,2024-06-10_14h15.53.717,LearnStrategy,2023.2.3,Win32,60.24096386,4,1,2,0.590918929,0.262302931,1,0,0,0.7991,Basalt_14,2,14,5,8,0.799,2,14,-0.137895443,-0.258410762,1,0,0,2.027,Basalt_rect,2,2.027,1,1,0,1,0,1,,,,,,,,,,,,
651c2643ebbc43fca485ae24,SCR,2024-06-10_14h15.53.717,LearnStrategy,2023.2.3,Win32,60.24096386,4,1,3,-0.053730317,-0.386045733,1,0,0,0.9964,Diorite_06,3,06,1,4,0.996,3,06,0.120149426,-0.243612635,1,0,0,3.3446,Diorite_rect,3,3.345,1,2,0,2,0,1,,,,,,,,,,,,
651c2643ebbc43fca485ae24,SCR,2024-06-10_14h15.53.717,LearnStrategy,2023.2.3,Win32,60.24096386,4,1,4,-0.378367166,0.093972769,1,0,0,0.8479,Gabbro_09,4,09,4,2,0.848,4,09,0.395766895,-0.248237089,1,0,0,1.7935,Gabbro_rect,4,1.793,1,3,0,3,0,1,,,,,,,,,,,,
651c2643ebbc43fca485ae24,SCR,2024-06-10_14h15.53.717,LearnStrategy,2023.2.3,Win32,60.24096386,4,1,5,0.533575675,-0.083606346,1,0,0,0.916,Andesite_03,1,03,3,8,0.916,1,03,-0.457907747,-0.257485998,1,0,0,3.2101,Andesite_rect,1,3.21,1,4,0,4,0,1,,,,,,,,,,,,
651c2643ebbc43fca485ae24,SCR,2024-06-10_14h15.53.717,LearnStrategy,2023.2.3,Win32,60.24096386,4,1,6,-0.374667521,0.40473621,1,0,0,0.9141,Gabbro_10,4,10,6,2,0.914,4,10,0.396691659,-0.252861544,1,0,0,2.6608,Gabbro_rect,4,2.661,1,5,0,5,0,1,,,,,,,,,,,,
651c2643ebbc43fca485ae24,SCR,2024-06-10_14h15.53.717,LearnStrategy,2023.2.3,Win32,60.24096386,4,1,7,-0.378367166,0.075474951,1,0,0,0.8476,Gabbro_09,4,09,4,2,0.848,4,09,0.381893622,-0.23898818,1,0,0,2.2268,Gabbro_rect,4,2.227,1,6,0,6,0,1,,,,,,,,,,,,
651c2643ebbc43fca485ae24,SCR,2024-06-10_14h15.53.717,LearnStrategy,2023.2.3,Win32,60.24096386,4,1,8,-0.218360924,0.057901988,1,0,0,1.2304,Peridotite_08,7,08,4,3,1.23,7,08,0.133097663,-0.400844042,1,0,0,1.7939,Peridotite_rect,7,1.794,1,7,0,7,0,1,,,,,,,,,,,,
651c2643ebbc43fca485ae24,SCR,2024-06-10_14h15.53.717,LearnStrategy,2023.2.3,Win32,60.24096386,4,1,9,0.212638334,-0.284307825,1,0,0,1.1315,Andesite_10,1,10,2,6,1.132,1,10,0.123848754,-0.252861544,1,0,0,7.4935,Diorite_rect,3,7.493,0,8,0,8,0,1,,,,,,,,,,,,
651c2643ebbc43fca485ae24,SCR,2024-06-10_14h15.53.717,LearnStrategy,2023.2.3,Win32,60.24096386,4,1,10,-0.080552189,-0.084531292,1,0,0,0.7305,Peridotite_05,7,05,3,4,0.731,7,05,0.155295081,-0.382346224,1,0,0,1.6271,Peridotite_rect,7,1.627,1,9,0,9,0,1,,,,,,,,,,,,
651c2643ebbc43fca485ae24,SCR,2024-06-10_14h15.53.717,LearnStrategy,2023.2.3,Win32,60.24096386,4,1,11,0.395766895,-0.115052628,1,0,0,0.982,Pegmatite_07,6,07,3,7,0.982,6,07,-0.098125152,-0.403618787,1,0,0,0.9439,Pegmatite_rect,6,0.944,1,10,0,10,0,1,,,,,,,,,,,,
651c2643ebbc43fca485ae24,SCR,2024-06-10_14h15.53.717,LearnStrategy,2023.2.3,Win32,60.24096386,4,1,12,0.386518077,0.38716327,1,0,0,0.8322,Gabbro_16,4,16,6,7,0.832,4,16,-0.137895443,-0.23528849,1,0,0,3.9777,Basalt_rect,2,3.978,0,11,0,11,0,1,,,,,,,,,,,,
651c2643ebbc43fca485ae24,SCR,2024-06-10_14h15.53.717,LearnStrategy,2023.2.3,Win32,60.24096386,4,1,13,-0.360794158,-0.417492151,1,0,0,0.9808,Andesite_09,1,09,1,2,0.981,1,09,-0.428311175,-0.257485998,1,0,0,5.2443,Andesite_rect,1,5.244,1,12,0,12,0,1,,,,,,,,,,,,
651c2643ebbc43fca485ae24,SCR,2024-06-10_14h15.53.717,LearnStrategy,2023.2.3,Win32,60.24096386,4,1,14,0.582594784,0.413985119,1,0,0,0.9796,Diorite_13,3,13,6,8,0.98,3,13,0.134022699,-0.257485998,1,0,0,0.8938,Diorite_rect,3,0.894,1,13,0,13,0,1,,,,,,,,,,,,
651c2643ebbc43fca485ae24,SCR,2024-06-10_14h15.53.717,LearnStrategy,2023.2.3,Win32,60.24096386,4,1,15,-0.240558251,-0.257485998,1,0,0,1.1151,Andesite_06,1,06,2,3,1.115,1,06,-0.458832693,-0.266734771,1,0,0,1.761,Andesite_rect,1,1.761,1,14,0,14,0,1,,,,,,,,,,,,
651c2643ebbc43fca485ae24,SCR,2024-06-10_14h15.53.717,LearnStrategy,2023.2.3,Win32,60.24096386,4,1,16,0.538200129,0.103221633,1,0,0,0.9811,Obsidian_05,5,05,4,8,0.981,5,05,-0.409813448,-0.404543551,1,0,0,5.4113,Obsidian_rect,5,5.411,1,15,0,15,0,1,,,,,,,,,,,,
651c2643ebbc43fca485ae24,SCR,2024-06-10_14h15.53.717,LearnStrategy,2023.2.3,Win32,60.24096386,4,2,1,,,,,,,,6,09,,,,,,,,,,,,,6,2.079,1,,,,,,-0.156393215,-0.404543551,1,0,0,2.0785,Pegmatite_rect,0,0,0,0,1
651c2643ebbc43fca485ae24,SCR,2024-06-10_14h15.53.717,LearnStrategy,2023.2.3,Win32,60.24096386,4,2,2,,,,,,,,3,15,,,,,,,,,,,,,1,11.027,0,,,,,,-0.43201082,-0.244537399,1,0,0,11.0269,Andesite_rect,1,0,1,0,1
651c2643ebbc43fca485ae24,SCR,2024-06-10_14h15.53.717,LearnStrategy,2023.2.3,Win32,60.24096386,4,2,3,,,,,,,,8,09,,,,,,,,,,,,,8,1.212,1,,,,,,0.377269168,-0.41379246,1,0,0,1.2117,Pumice_rect,2,0,2,0,1
651c2643ebbc43fca485ae24,SCR,2024-06-10_14h15.53.717,LearnStrategy,2023.2.3,Win32,60.24096386,4,2,4,,,,,,,,2,16,,,,,,,,,,,,,4,5.462,0,,,,,,0.373569387,-0.248237089,1,0,0,5.4621,Gabbro_rect,3,0,3,0,1
651c2643ebbc43fca485ae24,SCR,2024-06-10_14h15.53.717,LearnStrategy,2023.2.3,Win32,60.24096386,4,2,5,,,,,,,,1,11,,,,,,,,,,,,,1,6.762,1,,,,,,-0.39131563,-0.249161853,1,0,0,6.762,Andesite_rect,4,0,4,0,1
651c2643ebbc43fca485ae24,SCR,2024-06-10_14h15.53.717,LearnStrategy,2023.2.3,Win32,60.24096386,4,2,6,,,,,,,,7,15,,,,,,,,,,,,,7,1.428,1,,,,,,0.074829645,-0.403618787,1,0,0,1.4282,Peridotite_rect,5,0,5,0,1
651c2643ebbc43fca485ae24,SCR,2024-06-10_14h15.53.717,LearnStrategy,2023.2.3,Win32,60.24096386,4,2,7,,,,,,,,3,12,,,,,,,,,,,,,3,5.178,1,,,,,,0.114599845,-0.230664035,1,0,0,5.178,Diorite_rect,6,0,6,0,1
651c2643ebbc43fca485ae24,SCR,2024-06-10_14h15.53.717,LearnStrategy,2023.2.3,Win32,60.24096386,4,2,8,,,,,,,,8,15,,,,,,,,,,,,,8,1.361,1,,,,,,0.377269168,-0.390670188,1,0,0,1.3615,Pumice_rect,7,0,7,0,1
651c2643ebbc43fca485ae24,SCR,2024-06-10_14h15.53.717,LearnStrategy,2023.2.3,Win32,60.24096386,4,2,9,,,,,,,,6,03,,,,,,,,,,,,,6,2.679,1,,,,,,-0.147144306,-0.396219587,1,0,0,2.6789,Pegmatite_rect,8,0,8,0,1
651c2643ebbc43fca485ae24,SCR,2024-06-10_14h15.53.717,LearnStrategy,2023.2.3,Win32,60.24096386,4,2,10,,,,,,,,1,16,,,,,,,,,,,,,1,5.878,1,,,,,,-0.395940084,-0.23528849,1,0,0,5.8779,Andesite_rect,9,0,9,0,1
651c2643ebbc43fca485ae24,SCR,2024-06-10_14h15.53.717,LearnStrategy,2023.2.3,Win32,60.24096386,4,2,11,,,,,,,,4,05,,,,,,,,,,,,,4,2.412,1,,,,,,0.408715223,-0.261185553,1,0,0,2.4116,Gabbro_rect,10,0,10,0,1
651c2643ebbc43fca485ae24,SCR,2024-06-10_14h15.53.717,LearnStrategy,2023.2.3,Win32,60.24096386,4,2,12,,,,,,,,2,06,,,,,,,,,,,,,2,2.694,1,,,,,,-0.142519897,-0.23528849,1,0,0,2.694,Basalt_rect,11,0,11,0,1
651c2643ebbc43fca485ae24,SCR,2024-06-10_14h15.53.717,LearnStrategy,2023.2.3,Win32,60.24096386,4,2,13,,,,,,,,5,08,,,,,,,,,,,,,5,1.395,1,,,,,,-0.369118122,-0.386045733,1,0,0,1.3953,Obsidian_rect,12,0,12,0,1
651c2643ebbc43fca485ae24,SCR,2024-06-10_14h15.53.717,LearnStrategy,2023.2.3,Win32,60.24096386,4,2,14,,,,,,,,5,07,,,,,,,,,,,,,5,1.395,1,,,,,,-0.409813448,-0.412867696,1,0,0,1.3954,Obsidian_rect,13,0,13,0,1
651c2643ebbc43fca485ae24,SCR,2024-06-10_14h15.53.717,LearnStrategy,2023.2.3,Win32,60.24096386,4,2,15,,,,,,,,4,12,,,,,,,,,,,,,4,6.162,1,,,,,,0.39114244,-0.23898818,1,0,0,6.1621,Gabbro_rect,14,0,14,0,1
651c2643ebbc43fca485ae24,SCR,2024-06-10_14h15.53.717,LearnStrategy,2023.2.3,Win32,60.24096386,4,2,16,,,,,,,,7,12,,,,,,,,,,,,,7,1.828,1,,,,,,0.092402699,-0.408243242,1,0,0,1.8281,Peridotite_rect,15,0,15,0,1
651c2643ebbc43fca485ae24,SCR,2024-06-10_14h15.53.717,LearnStrategy,2023.2.3,Win32,60.24096386,5,1,1,-0.39131563,0.40473621,1,0,0,1.0832,Gabbro_10,4,10,6,2,1.083,4,10,0.355071569,-0.248237089,1,0,0,2.1435,Gabbro_rect,4,2.143,1,0,0,0,0,1,,,,,,,,,,,,
651c2643ebbc43fca485ae24,SCR,2024-06-10_14h15.53.717,LearnStrategy,2023.2.3,Win32,60.24096386,5,1,2,-0.428311175,0.418609568,1,0,0,0.8977,Gabbro_10,4,10,6,2,0.898,4,10,0.359696023,-0.252861544,1,0,0,0.9947,Gabbro_rect,4,0.995,1,1,0,1,0,1,,,,,,,,,,,,
651c2643ebbc43fca485ae24,SCR,2024-06-10_14h15.53.717,LearnStrategy,2023.2.3,Win32,60.24096386,5,1,3,0.257033079,0.258603399,1,0,0,0.8474,Pumice_16,8,16,5,6,0.847,8,16,0.355071569,-0.386045733,1,0,0,0.8776,Pumice_rect,8,0.878,1,2,0,2,0,1,,,,,,,,,,,,
651c2643ebbc43fca485ae24,SCR,2024-06-10_14h15.53.717,LearnStrategy,2023.2.3,Win32,60.24096386,5,1,4,0.234835933,-0.399919097,1,0,0,0.8322,Peridotite_10,7,10,1,6,0.832,7,10,0.07020519,-0.409168006,1,0,0,0.9945,Peridotite_rect,7,0.995,1,3,0,3,0,1,,,,,,,,,,,,
651c2643ebbc43fca485ae24,SCR,2024-06-10_14h15.53.717,LearnStrategy,2023.2.3,Win32,60.24096386,5,1,5,0.0665055,-0.399919097,1,0,0,0.9484,Pegmatite_12,6,12,1,5,0.948,6,12,-0.173041188,-0.408243242,1,0,0,1.344,Pegmatite_rect,6,1.344,1,4,0,4,0,1,,,,,,,,,,,,
651c2643ebbc43fca485ae24,SCR,2024-06-10_14h15.53.717,LearnStrategy,2023.2.3,Win32,60.24096386,5,1,6,-0.588317396,0.423234017,1,0,0,0.8982,Andesite_01,1,01,6,1,0.898,1,01,-0.48103002,-0.249161853,1,0,0,3.5609,Andesite_rect,1,3.561,1,5,0,5,0,1,,,,,,,,,,,,
651c2643ebbc43fca485ae24,SCR,2024-06-10_14h15.53.717,LearnStrategy,2023.2.3,Win32,60.24096386,5,1,7,-0.098125152,-0.430440569,1,0,0,1.0143,Diorite_06,3,06,1,4,1.014,3,06,0.159919535,-0.23898818,1,0,0,0.8775,Diorite_rect,3,0.878,1,6,0,6,0,1,,,,,,,,,,,,
651c2643ebbc43fca485ae24,SCR,2024-06-10_14h15.53.717,LearnStrategy,2023.2.3,Win32,60.24096386,5,1,8,-0.596641473,-0.078981937,1,0,0,0.8483,Diorite_08,3,08,3,1,0.848,3,08,0.142346572,-0.23528849,1,0,0,1.8611,Diorite_rect,3,1.861,1,7,0,7,0,1,,,,,,,,,,,,
651c2643ebbc43fca485ae24,SCR,2024-06-10_14h15.53.717,LearnStrategy,2023.2.3,Win32,60.24096386,5,1,9,0.212638334,-0.252861544,1,0,0,1.0473,Andesite_10,1,10,2,6,1.047,1,10,-0.449583784,-0.257485998,1,0,0,5.4446,Andesite_rect,1,5.445,1,8,0,8,0,1,,,,,,,,,,,,
651c2643ebbc43fca485ae24,SCR,2024-06-10_14h15.53.717,LearnStrategy,2023.2.3,Win32,60.24096386,5,1,10,0.56872142,0.39641219,1,0,0,1.2818,Diorite_13,3,13,6,8,1.282,3,13,0.142346572,-0.261185553,1,0,0,1.2777,Diorite_rect,3,1.278,1,9,0,9,0,1,,,,,,,,,,,,
651c2643ebbc43fca485ae24,SCR,2024-06-10_14h15.53.717,LearnStrategy,2023.2.3,Win32,60.24096386,5,1,11,0.386518077,0.401036645,1,0,0,0.9328,Gabbro_16,4,16,6,7,0.933,4,16,0.386518077,-0.248237089,1,0,0,1.3441,Gabbro_rect,4,1.344,1,10,0,10,0,1,,,,,,,,,,,,
651c2643ebbc43fca485ae24,SCR,2024-06-10_14h15.53.717,LearnStrategy,2023.2.3,Win32,60.24096386,5,1,12,0.533575675,0.258603399,1,0,0,0.8809,Basalt_14,2,14,5,8,0.881,2,14,-0.169341634,-0.230664035,1,0,0,1.0115,Basalt_rect,2,1.012,1,11,0,11,0,1,,,,,,,,,,,,
651c2643ebbc43fca485ae24,SCR,2024-06-10_14h15.53.717,LearnStrategy,2023.2.3,Win32,60.24096386,5,1,13,0.395766895,0.098597178,1,0,0,0.9322,Obsidian_09,5,09,4,7,0.932,5,09,-0.449583784,-0.395294642,1,0,0,2.611,Obsidian_rect,5,2.611,1,12,0,12,0,1,,,,,,,,,,,,
651c2643ebbc43fca485ae24,SCR,2024-06-10_14h15.53.717,LearnStrategy,2023.2.3,Win32,60.24096386,5,1,14,-0.547622183,-0.42304155,1,0,0,1.0632,Basalt_04,2,04,1,1,1.063,2,04,-0.148069252,-0.23528849,1,0,0,3.1448,Basalt_rect,2,3.145,1,13,0,13,0,1,,,,,,,,,,,,
651c2643ebbc43fca485ae24,SCR,2024-06-10_14h15.53.717,LearnStrategy,2023.2.3,Win32,60.24096386,5,1,15,-0.382991621,-0.417492151,1,0,0,0.965,Andesite_09,1,09,1,2,0.965,1,09,-0.43293572,-0.23898818,1,0,0,3.4768,Andesite_rect,1,3.477,1,14,0,14,0,1,,,,,,,,,,,,
651c2643ebbc43fca485ae24,SCR,2024-06-10_14h15.53.717,LearnStrategy,2023.2.3,Win32,60.24096386,5,1,16,0.564096966,0.277101217,1,0,0,0.9145,Basalt_14,2,14,5,8,0.914,2,14,-0.150843861,-0.23898818,1,0,0,3.3604,Basalt_rect,2,3.36,1,15,0,15,0,1,,,,,,,,,,,,
651c2643ebbc43fca485ae24,SCR,2024-06-10_14h15.53.717,LearnStrategy,2023.2.3,Win32,60.24096386,5,2,1,,,,,,,,8,06,,,,,,,,,,,,,8,2.662,1,,,,,,0.413339677,-0.396219587,1,0,0,2.6615,Pumice_rect,0,0,0,0,1
651c2643ebbc43fca485ae24,SCR,2024-06-10_14h15.53.717,LearnStrategy,2023.2.3,Win32,60.24096386,5,2,2,,,,,,,,4,13,,,,,,,,,,,,,1,3.462,0,,,,,,-0.373742712,-0.252861544,1,0,0,3.4618,Andesite_rect,1,0,1,0,1
651c2643ebbc43fca485ae24,SCR,2024-06-10_14h15.53.717,LearnStrategy,2023.2.3,Win32,60.24096386,5,2,3,,,,,,,,6,11,,,,,,,,,,,,,6,1.778,1,,,,,,-0.128646534,-0.399919097,1,0,0,1.7783,Pegmatite_rect,2,0,2,0,1
651c2643ebbc43fca485ae24,SCR,2024-06-10_14h15.53.717,LearnStrategy,2023.2.3,Win32,60.24096386,5,2,4,,,,,,,,8,10,,,,,,,,,,,,,8,1.311,1,,,,,,0.381893622,-0.403618787,1,0,0,1.3107,Pumice_rect,3,0,3,0,1
651c2643ebbc43fca485ae24,SCR,2024-06-10_14h15.53.717,LearnStrategy,2023.2.3,Win32,60.24096386,5,2,5,,,,,,,,5,10,,,,,,,,,,,,,5,1.461,1,,,,,,-0.395940084,-0.395294642,1,0,0,1.4613,Obsidian_rect,4,0,4,0,1
651c2643ebbc43fca485ae24,SCR,2024-06-10_14h15.53.717,LearnStrategy,2023.2.3,Win32,60.24096386,5,2,6,,,,,,,,7,07,,,,,,,,,,,,,7,1.428,1,,,,,,0.079454009,-0.399919097,1,0,0,1.4283,Peridotite_rect,5,0,5,0,1
651c2643ebbc43fca485ae24,SCR,2024-06-10_14h15.53.717,LearnStrategy,2023.2.3,Win32,60.24096386,5,2,7,,,,,,,,2,01,,,,,,,,,,,,,2,2.062,1,,,,,,-0.142519897,-0.252861544,1,0,0,2.0617,Basalt_rect,6,0,6,0,1
651c2643ebbc43fca485ae24,SCR,2024-06-10_14h15.53.717,LearnStrategy,2023.2.3,Win32,60.24096386,5,2,8,,,,,,,,1,05,,,,,,,,,,,,,6,6.295,0,,,,,,-0.120322479,-0.417492151,1,0,0,6.2952,Pegmatite_rect,7,0,7,0,1
651c2643ebbc43fca485ae24,SCR,2024-06-10_14h15.53.717,LearnStrategy,2023.2.3,Win32,60.24096386,5,2,9,,,,,,,,1,07,,,,,,,,,,,,,1,3.378,1,,,,,,-0.418137457,-0.248237089,1,0,0,3.3782,Andesite_rect,8,0,8,0,1
651c2643ebbc43fca485ae24,SCR,2024-06-10_14h15.53.717,LearnStrategy,2023.2.3,Win32,60.24096386,5,2,10,,,,,,,,2,10,,,,,,,,,,,,,2,1.778,1,,,,,,-0.164717179,-0.248237089,1,0,0,1.7777,Basalt_rect,9,0,9,0,1
651c2643ebbc43fca485ae24,SCR,2024-06-10_14h15.53.717,LearnStrategy,2023.2.3,Win32,60.24096386,5,2,11,,,,,,,,3,14,,,,,,,,,,,,,3,3.062,1,,,,,,0.119224299,-0.249161853,1,0,0,3.0622,Diorite_rect,10,0,10,0,1
651c2643ebbc43fca485ae24,SCR,2024-06-10_14h15.53.717,LearnStrategy,2023.2.3,Win32,60.24096386,5,2,12,,,,,,,,6,15,,,,,,,,,,,,,6,1.228,1,,,,,,-0.137895443,-0.403618787,1,0,0,1.2283,Pegmatite_rect,11,0,11,0,1
651c2643ebbc43fca485ae24,SCR,2024-06-10_14h15.53.717,LearnStrategy,2023.2.3,Win32,60.24096386,5,2,13,,,,,,,,5,11,,,,,,,,,,,,,5,1.527,1,,,,,,-0.43571042,-0.395294642,1,0,0,1.5273,Obsidian_rect,12,0,12,0,1
651c2643ebbc43fca485ae24,SCR,2024-06-10_14h15.53.717,LearnStrategy,2023.2.3,Win32,60.24096386,5,2,14,,,,,,,,7,13,,,,,,,,,,,,,7,1.562,1,,,,,,0.101651608,-0.390670188,1,0,0,1.5616,Peridotite_rect,13,0,13,0,1
651c2643ebbc43fca485ae24,SCR,2024-06-10_14h15.53.717,LearnStrategy,2023.2.3,Win32,60.24096386,5,2,15,,,,,,,,4,01,,,,,,,,,,,,,1,4.828,0,,,,,,-0.43571042,-0.23528849,1,0,0,4.8277,Andesite_rect,14,0,14,0,1
651c2643ebbc43fca485ae24,SCR,2024-06-10_14h15.53.717,LearnStrategy,2023.2.3,Win32,60.24096386,5,2,16,,,,,,,,3,10,,,,,,,,,,,,,3,3.944,1,,,,,,0.119224299,-0.258410762,1,0,0,3.9444,Diorite_rect,15,0,15,0,1
651c2643ebbc43fca485ae24,SCR,2024-06-10_14h15.53.717,LearnStrategy,2023.2.3,Win32,60.24096386,6,1,1,0.560397638,-0.213091163,1,0,0,1.2329,Pegmatite_08,6,08,2,8,1.233,6,08,-0.199863151,-0.395294642,1,0,0,0.8434,Pegmatite_rect,6,0.843,1,0,0,0,0,1,,,,,,,,,,,,
651c2643ebbc43fca485ae24,SCR,2024-06-10_14h15.53.717,LearnStrategy,2023.2.3,Win32,60.24096386,6,1,2,-0.552246637,0.40473621,1,0,0,0.8826,Andesite_01,1,01,6,1,0.883,1,01,-0.39224053,-0.236213435,1,0,0,3.5443,Andesite_rect,1,3.544,1,1,0,1,0,1,,,,,,,,,,,,
651c2643ebbc43fca485ae24,SCR,2024-06-10_14h15.53.717,LearnStrategy,2023.2.3,Win32,60.24096386,6,1,3,0.074829645,-0.083606346,1,0,0,0.7801,Peridotite_14,7,14,3,5,0.78,7,14,0.137722117,-0.395294642,1,0,0,1.7111,Peridotite_rect,7,1.711,1,2,0,2,0,1,,,,,,,,,,,,
651c2643ebbc43fca485ae24,SCR,2024-06-10_14h15.53.717,LearnStrategy,2023.2.3,Win32,60.24096386,6,1,4,0.506753712,-0.070657973,1,0,0,1.0316,Andesite_03,1,03,3,8,1.032,1,03,-0.423686766,-0.23898818,1,0,0,1.8116,Andesite_rect,1,1.812,1,3,0,3,0,1,,,,,,,,,,,,
651c2643ebbc43fca485ae24,SCR,2024-06-10_14h15.53.717,LearnStrategy,2023.2.3,Win32,60.24096386,6,1,5,-0.271079768,-0.106728619,1,0,0,0.7489,Diorite_16,3,16,3,3,0.749,3,16,0.150670626,-0.243612635,1,0,0,0.9614,Diorite_rect,3,0.961,1,4,0,4,0,1,,,,,,,,,,,,
651c2643ebbc43fca485ae24,SCR,2024-06-10_14h15.53.717,LearnStrategy,2023.2.3,Win32,60.24096386,6,1,6,-0.226684887,0.227157072,1,0,0,0.798,Gabbro_14,4,14,5,3,0.798,4,14,0.378193841,-0.252861544,1,0,0,4.7278,Gabbro_rect,4,4.728,1,5,0,5,0,1,,,,,,,,,,,,
651c2643ebbc43fca485ae24,SCR,2024-06-10_14h15.53.717,LearnStrategy,2023.2.3,Win32,60.24096386,6,1,7,-0.552246637,-0.257485998,1,0,0,0.8638,Diorite_09,3,09,2,1,0.864,3,09,0.061881046,-0.257485998,1,0,0,1.2449,Diorite_rect,3,1.245,1,6,0,6,0,1,,,,,,,,,,,,
651c2643ebbc43fca485ae24,SCR,2024-06-10_14h15.53.717,LearnStrategy,2023.2.3,Win32,60.24096386,6,1,8,-0.066678825,0.227157072,1,0,0,0.7322,Basalt_02,2,02,5,4,0.732,2,02,-0.15546827,-0.257485998,1,0,0,2.1113,Basalt_rect,2,2.111,1,7,0,7,0,1,,,,,,,,,,,,
651c2643ebbc43fca485ae24,SCR,2024-06-10_14h15.53.717,LearnStrategy,2023.2.3,Win32,60.24096386,6,1,9,-0.395940084,0.401036645,1,0,0,1.0476,Gabbro_10,4,10,6,2,1.048,4,10,0.417964132,-0.248237089,1,0,0,1.6607,Gabbro_rect,4,1.661,1,8,0,8,0,1,,,,,,,,,,,,
651c2643ebbc43fca485ae24,SCR,2024-06-10_14h15.53.717,LearnStrategy,2023.2.3,Win32,60.24096386,6,1,10,-0.565195169,-0.42674106,1,0,0,0.982,Basalt_04,2,04,1,1,0.982,2,04,-0.120322479,-0.258410762,1,0,0,0.9948,Basalt_rect,2,0.995,1,9,0,9,0,1,,,,,,,,,,,,
651c2643ebbc43fca485ae24,SCR,2024-06-10_14h15.53.717,LearnStrategy,2023.2.3,Win32,60.24096386,6,1,11,-0.289577541,-0.42674106,1,0,0,0.9806,Obsidian_16,5,16,1,3,0.981,5,16,-0.400564539,-0.386045733,1,0,0,1.1613,Obsidian_rect,5,1.161,1,10,0,10,0,1,,,,,,,,,,,,
651c2643ebbc43fca485ae24,SCR,2024-06-10_14h15.53.717,LearnStrategy,2023.2.3,Win32,60.24096386,6,1,12,0.244084842,0.266927408,1,0,0,0.9481,Pumice_16,8,16,5,6,0.948,8,16,0.368944932,-0.400844042,1,0,0,0.6444,Pumice_rect,8,0.644,1,11,0,11,0,1,,,,,,,,,,,,
651c2643ebbc43fca485ae24,SCR,2024-06-10_14h15.53.717,LearnStrategy,2023.2.3,Win32,60.24096386,6,1,13,-0.373742712,-0.422116605,1,0,0,0.9326,Andesite_09,1,09,1,2,0.933,1,09,-0.445884184,-0.252861544,1,0,0,2.2106,Andesite_rect,1,2.211,1,12,0,12,0,1,,,,,,,,,,,,
651c2643ebbc43fca485ae24,SCR,2024-06-10_14h15.53.717,LearnStrategy,2023.2.3,Win32,60.24096386,6,1,14,0.057256591,0.227157072,1,0,0,0.8308,Gabbro_11,4,11,5,5,0.831,4,11,0.414264713,-0.239912944,1,0,0,2.7446,Gabbro_rect,4,2.745,1,13,0,13,0,1,,,,,,,,,,,,
651c2643ebbc43fca485ae24,SCR,2024-06-10_14h15.53.717,LearnStrategy,2023.2.3,Win32,60.24096386,6,1,15,-0.400564539,0.262302931,1,0,0,0.7643,Gabbro_03,4,03,5,2,0.764,4,03,-0.423686766,-0.258410762,1,0,0,6.4773,Andesite_rect,1,6.477,0,14,0,14,0,1,,,,,,,,,,,,
651c2643ebbc43fca485ae24,SCR,2024-06-10_14h15.53.717,LearnStrategy,2023.2.3,Win32,60.24096386,6,1,16,-0.373742712,0.075474951,1,0,0,0.7309,Gabbro_09,4,09,4,2,0.731,4,09,0.359696023,-0.261185553,1,0,0,1.0101,Gabbro_rect,4,1.01,1,15,0,15,0,1,,,,,,,,,,,,
651c2643ebbc43fca485ae24,SCR,2024-06-10_14h15.53.717,LearnStrategy,2023.2.3,Win32,60.24096386,6,2,1,,,,,,,,5,12,,,,,,,,,,,,,5,1.144,1,,,,,,-0.422761911,-0.403618787,1,0,0,1.1444,Obsidian_rect,0,0,0,0,1
651c2643ebbc43fca485ae24,SCR,2024-06-10_14h15.53.717,LearnStrategy,2023.2.3,Win32,60.24096386,6,2,2,,,,,,,,6,06,,,,,,,,,,,,,6,1.578,1,,,,,,-0.11107357,-0.403618787,1,0,0,1.578,Pegmatite_rect,1,0,1,0,1
651c2643ebbc43fca485ae24,SCR,2024-06-10_14h15.53.717,LearnStrategy,2023.2.3,Win32,60.24096386,6,2,3,,,,,,,,1,04,,,,,,,,,,,,,4,7.146,0,,,,,,0.444786004,-0.270434462,1,0,0,7.1456,Gabbro_rect,2,0,2,0,1
651c2643ebbc43fca485ae24,SCR,2024-06-10_14h15.53.717,LearnStrategy,2023.2.3,Win32,60.24096386,6,2,4,,,,,,,,2,08,,,,,,,,,,,,,2,1.712,1,,,,,,-0.182290233,-0.243612635,1,0,0,1.7116,Basalt_rect,3,0,3,0,1
651c2643ebbc43fca485ae24,SCR,2024-06-10_14h15.53.717,LearnStrategy,2023.2.3,Win32,60.24096386,6,2,5,,,,,,,,3,11,,,,,,,,,,,,,3,2.011,1,,,,,,0.177492679,-0.252861544,1,0,0,2.011,Diorite_rect,4,0,4,0,1
651c2643ebbc43fca485ae24,SCR,2024-06-10_14h15.53.717,LearnStrategy,2023.2.3,Win32,60.24096386,6,2,6,,,,,,,,8,05,,,,,,,,,,,,,8,1.128,1,,,,,,0.381893622,-0.399919097,1,0,0,1.1278,Pumice_rect,5,0,5,0,1
651c2643ebbc43fca485ae24,SCR,2024-06-10_14h15.53.717,LearnStrategy,2023.2.3,Win32,60.24096386,6,2,7,,,,,,,,5,14,,,,,,,,,,,,,5,1.594,1,,,,,,-0.427386366,-0.404543551,1,0,0,1.5944,Obsidian_rect,6,0,6,0,1
651c2643ebbc43fca485ae24,SCR,2024-06-10_14h15.53.717,LearnStrategy,2023.2.3,Win32,60.24096386,6,2,8,,,,,,,,8,08,,,,,,,,,,,,,8,1.261,1,,,,,,0.359696023,-0.412867696,1,0,0,1.2614,Pumice_rect,7,0,7,0,1
651c2643ebbc43fca485ae24,SCR,2024-06-10_14h15.53.717,LearnStrategy,2023.2.3,Win32,60.24096386,6,2,9,,,,,,,,4,08,,,,,,,,,,,,,4,2.895,1,,,,,,0.395766895,-0.23898818,1,0,0,2.8951,Gabbro_rect,8,0,8,0,1
651c2643ebbc43fca485ae24,SCR,2024-06-10_14h15.53.717,LearnStrategy,2023.2.3,Win32,60.24096386,6,2,10,,,,,,,,3,02,,,,,,,,,,,,,3,3.729,1,,,,,,0.137722117,-0.248237089,1,0,0,3.7285,Diorite_rect,9,0,9,0,1
651c2643ebbc43fca485ae24,SCR,2024-06-10_14h15.53.717,LearnStrategy,2023.2.3,Win32,60.24096386,6,2,11,,,,,,,,1,02,,,,,,,,,,,,,4,5.028,0,,,,,,0.408715223,-0.252861544,1,0,0,5.0279,Gabbro_rect,10,0,10,0,1
651c2643ebbc43fca485ae24,SCR,2024-06-10_14h15.53.717,LearnStrategy,2023.2.3,Win32,60.24096386,6,2,12,,,,,,,,2,05,,,,,,,,,,,,,2,1.929,1,,,,,,-0.128646534,-0.243612635,1,0,0,1.9289,Basalt_rect,11,0,11,0,1
651c2643ebbc43fca485ae24,SCR,2024-06-10_14h15.53.717,LearnStrategy,2023.2.3,Win32,60.24096386,6,2,13,,,,,,,,7,16,,,,,,,,,,,,,4,2.711,0,,,,,,0.368944932,-0.248237089,1,0,0,2.7111,Gabbro_rect,12,0,12,0,1
651c2643ebbc43fca485ae24,SCR,2024-06-10_14h15.53.717,LearnStrategy,2023.2.3,Win32,60.24096386,6,2,14,,,,,,,,7,06,,,,,,,,,,,,,7,3.078,1,,,,,,0.129398244,-0.417492151,1,0,0,3.0778,Peridotite_rect,13,0,13,0,1
651c2643ebbc43fca485ae24,SCR,2024-06-10_14h15.53.717,LearnStrategy,2023.2.3,Win32,60.24096386,6,2,15,,,,,,,,4,15,,,,,,,,,,,,,1,3.312,0,,,,,,-0.418137457,-0.23898818,1,0,0,3.3119,Andesite_rect,14,0,14,0,1
651c2643ebbc43fca485ae24,SCR,2024-06-10_14h15.53.717,LearnStrategy,2023.2.3,Win32,60.24096386,6,2,16,,,,,,,,6,16,,,,,,,,,,,,,6,1.395,1,,,,,,-0.160092725,-0.395294642,1,0,0,1.3955,Pegmatite_rect,15,0,15,0,1
651c2643ebbc43fca485ae24,SCR,2024-06-10_14h15.53.717,LearnStrategy,2023.2.3,Win32,60.24096386,7,1,1,0.546524274,0.39641219,1,0,0,0.8937,Diorite_13,3,13,6,8,0.894,3,13,0.134022699,-0.230664035,1,0,0,1.2109,Diorite_rect,3,1.211,1,0,0,0,0,1,,,,,,,,,,,,
651c2643ebbc43fca485ae24,SCR,2024-06-10_14h15.53.717,LearnStrategy,2023.2.3,Win32,60.24096386,7,1,2,-0.542997728,0.418609568,1,0,0,0.7991,Andesite_01,1,01,6,1,0.799,1,01,-0.423686766,-0.243612635,1,0,0,1.5939,Andesite_rect,1,1.594,1,1,0,1,0,1,,,,,,,,,,,,
651c2643ebbc43fca485ae24,SCR,2024-06-10_14h15.53.717,LearnStrategy,2023.2.3,Win32,60.24096386,7,1,3,-0.382991621,0.40473621,1,0,0,0.6657,Gabbro_10,4,10,6,2,0.666,4,10,0.39114244,-0.23528849,1,0,0,1.578,Gabbro_rect,4,1.578,1,2,0,2,0,1,,,,,,,,,,,,
651c2643ebbc43fca485ae24,SCR,2024-06-10_14h15.53.717,LearnStrategy,2023.2.3,Win32,60.24096386,7,1,4,-0.529124387,0.253978944,1,0,0,0.7981,Andesite_14,1,14,5,1,0.798,1,14,0.146046172,-0.248237089,1,0,0,4.5443,Diorite_rect,3,4.544,0,3,0,3,0,1,,,,,,,,,,,,
651c2643ebbc43fca485ae24,SCR,2024-06-10_14h15.53.717,LearnStrategy,2023.2.3,Win32,60.24096386,7,1,5,-0.076852589,0.440806963,1,0,0,1.2157,Pumice_04,8,04,6,4,1.216,8,04,0.418889167,-0.399919097,1,0,0,1.2596,Pumice_rect,8,1.26,1,4,0,4,0,1,,,,,,,,,,,,
651c2643ebbc43fca485ae24,SCR,2024-06-10_14h15.53.717,LearnStrategy,2023.2.3,Win32,60.24096386,7,1,6,-0.248882396,-0.243612635,1,0,0,0.966,Andesite_06,1,06,2,3,0.966,1,06,-0.454208238,-0.239912944,1,0,0,1.6773,Andesite_rect,1,1.677,1,5,0,5,0,1,,,,,,,,,,,,
651c2643ebbc43fca485ae24,SCR,2024-06-10_14h15.53.717,LearnStrategy,2023.2.3,Win32,60.24096386,7,1,7,0.24963397,-0.440614332,1,0,0,1.0152,Peridotite_10,7,10,1,6,1.015,7,10,0.115524971,-0.391595133,1,0,0,1.111,Peridotite_rect,7,1.111,1,6,0,6,0,1,,,,,,,,,,,,
651c2643ebbc43fca485ae24,SCR,2024-06-10_14h15.53.717,LearnStrategy,2023.2.3,Win32,60.24096386,7,1,8,0.399466314,-0.265810007,1,0,0,0.8992,Obsidian_02,5,02,2,7,0.899,5,02,-0.373742712,-0.386045733,1,0,0,0.8105,Obsidian_rect,5,0.81,1,7,0,7,0,1,,,,,,,,,,,,
651c2643ebbc43fca485ae24,SCR,2024-06-10_14h15.53.717,LearnStrategy,2023.2.3,Win32,60.24096386,7,1,9,-0.204487605,0.253978944,1,0,0,0.7657,Gabbro_14,4,14,5,3,0.766,4,14,0.43091264,-0.258410762,1,0,0,1.4114,Gabbro_rect,4,1.411,1,8,0,8,0,1,,,,,,,,,,,,
651c2643ebbc43fca485ae24,SCR,2024-06-10_14h15.53.717,LearnStrategy,2023.2.3,Win32,60.24096386,7,1,10,-0.244257941,0.08472386,1,0,0,0.7159,Peridotite_08,7,08,4,3,0.716,7,08,0.16824377,-0.412867696,1,0,0,0.8442,Peridotite_rect,7,0.844,1,9,0,9,0,1,,,,,,,,,,,,
651c2643ebbc43fca485ae24,SCR,2024-06-10_14h15.53.717,LearnStrategy,2023.2.3,Win32,60.24096386,7,1,11,-0.520800401,0.090273215,1,0,0,0.6487,Basalt_11,2,11,4,1,0.649,2,11,0.414264713,-0.261185553,1,0,0,3.0113,Gabbro_rect,4,3.011,0,10,0,10,0,1,,,,,,,,,,,,
651c2643ebbc43fca485ae24,SCR,2024-06-10_14h15.53.717,LearnStrategy,2023.2.3,Win32,60.24096386,7,1,12,0.399466314,0.277101217,1,0,0,1.4973,Pegmatite_10,6,10,5,7,1.497,6,10,-0.143444797,-0.418416915,1,0,0,0.8607,Pegmatite_rect,6,0.861,1,11,0,11,0,1,,,,,,,,,,,,
651c2643ebbc43fca485ae24,SCR,2024-06-10_14h15.53.717,LearnStrategy,2023.2.3,Win32,60.24096386,7,1,13,0.413339677,0.450055878,1,0,0,0.8491,Gabbro_16,4,16,6,7,0.849,4,16,-0.165642124,-0.23528849,1,0,0,2.8779,Basalt_rect,2,2.878,0,12,0,12,0,1,,,,,,,,,,,,
651c2643ebbc43fca485ae24,SCR,2024-06-10_14h15.53.717,LearnStrategy,2023.2.3,Win32,60.24096386,7,1,14,0.244084842,-0.288007334,1,0,0,0.8811,Andesite_10,1,10,2,6,0.881,1,10,-0.338596831,-0.23898818,1,0,0,2.2601,Andesite_rect,1,2.26,1,13,0,13,0,1,,,,,,,,,,,,
651c2643ebbc43fca485ae24,SCR,2024-06-10_14h15.53.717,LearnStrategy,2023.2.3,Win32,60.24096386,7,1,15,-0.565195169,0.418609568,1,0,0,0.7983,Andesite_01,1,01,6,1,0.798,1,01,-0.418137457,-0.262110317,1,0,0,1.9126,Andesite_rect,1,1.913,1,14,0,14,0,1,,,,,,,,,,,,
651c2643ebbc43fca485ae24,SCR,2024-06-10_14h15.53.717,LearnStrategy,2023.2.3,Win32,60.24096386,7,1,16,-0.34229634,0.409360665,1,0,0,0.6977,Gabbro_10,4,10,6,2,0.698,4,10,0.435537095,-0.257485998,1,0,0,2.4444,Gabbro_rect,4,2.444,1,15,0,15,0,1,,,,,,,,,,,,
651c2643ebbc43fca485ae24,SCR,2024-06-10_14h15.53.717,LearnStrategy,2023.2.3,Win32,60.24096386,7,2,1,,,,,,,,7,16,,,,,,,,,,,,,7,6.345,1,,,,,,0.12477388,-0.41379246,1,0,0,6.3451,Peridotite_rect,0,0,0,0,1
651c2643ebbc43fca485ae24,SCR,2024-06-10_14h15.53.717,LearnStrategy,2023.2.3,Win32,60.24096386,7,2,2,,,,,,,,8,15,,,,,,,,,,,,,8,1.245,1,,,,,,0.381893622,-0.408243242,1,0,0,1.245,Pumice_rect,1,0,1,0,1
651c2643ebbc43fca485ae24,SCR,2024-06-10_14h15.53.717,LearnStrategy,2023.2.3,Win32,60.24096386,7,2,3,,,,,,,,4,08,,,,,,,,,,,,,4,6.161,1,,,,,,0.414264713,-0.23528849,1,0,0,6.1615,Gabbro_rect,2,0,2,0,1
651c2643ebbc43fca485ae24,SCR,2024-06-10_14h15.53.717,LearnStrategy,2023.2.3,Win32,60.24096386,7,2,4,,,,,,,,1,02,,,,,,,,,,,,,1,6.645,1,,,,,,-0.400564539,-0.252861544,1,0,0,6.6447,Andesite_rect,3,0,3,0,1
651c2643ebbc43fca485ae24,SCR,2024-06-10_14h15.53.717,LearnStrategy,2023.2.3,Win32,60.24096386,7,2,5,,,,,,,,5,10,,,,,,,,,,,,,5,1.061,1,,,,,,-0.400564539,-0.404543551,1,0,0,1.0613,Obsidian_rect,4,0,4,0,1
651c2643ebbc43fca485ae24,SCR,2024-06-10_14h15.53.717,LearnStrategy,2023.2.3,Win32,60.24096386,7,2,6,,,,,,,,6,16,,,,,,,,,,,,,6,1.278,1,,,,,,-0.11107357,-0.408243242,1,0,0,1.2782,Pegmatite_rect,5,0,5,0,1
651c2643ebbc43fca485ae24,SCR,2024-06-10_14h15.53.717,LearnStrategy,2023.2.3,Win32,60.24096386,7,2,7,,,,,,,,3,15,,,,,,,,,,,,,3,1.661,1,,,,,,0.141421808,-0.249161853,1,0,0,1.6614,Diorite_rect,6,0,6,0,1
651c2643ebbc43fca485ae24,SCR,2024-06-10_14h15.53.717,LearnStrategy,2023.2.3,Win32,60.24096386,7,2,8,,,,,,,,3,12,,,,,,,,,,,,,3,1.445,1,,,,,,0.146046172,-0.248237089,1,0,0,1.4453,Diorite_rect,7,0,7,0,1
651c2643ebbc43fca485ae24,SCR,2024-06-10_14h15.53.717,LearnStrategy,2023.2.3,Win32,60.24096386,7,2,9,,,,,,,,5,07,,,,,,,,,,,,,5,1.112,1,,,,,,-0.364493667,-0.412867696,1,0,0,1.1118,Obsidian_rect,8,0,8,0,1
651c2643ebbc43fca485ae24,SCR,2024-06-10_14h15.53.717,LearnStrategy,2023.2.3,Win32,60.24096386,7,2,10,,,,,,,,8,10,,,,,,,,,,,,,8,1.161,1,,,,,,0.337498605,-0.404543551,1,0,0,1.1612,Pumice_rect,9,0,9,0,1
651c2643ebbc43fca485ae24,SCR,2024-06-10_14h15.53.717,LearnStrategy,2023.2.3,Win32,60.24096386,7,2,11,,,,,,,,2,05,,,,,,,,,,,,,2,1.078,1,,,,,,-0.142519897,-0.23898818,1,0,0,1.0778,Basalt_rect,10,0,10,0,1
651c2643ebbc43fca485ae24,SCR,2024-06-10_14h15.53.717,LearnStrategy,2023.2.3,Win32,60.24096386,7,2,12,,,,,,,,6,03,,,,,,,,,,,,,6,6.178,1,,,,,,-0.124946934,-0.396219587,1,0,0,6.1785,Pegmatite_rect,11,0,11,0,1
651c2643ebbc43fca485ae24,SCR,2024-06-10_14h15.53.717,LearnStrategy,2023.2.3,Win32,60.24096386,7,2,13,,,,,,,,2,10,,,,,,,,,,,,,2,1.879,1,,,,,,-0.137895443,-0.270434462,1,0,0,1.8785,Basalt_rect,12,0,12,0,1
651c2643ebbc43fca485ae24,SCR,2024-06-10_14h15.53.717,LearnStrategy,2023.2.3,Win32,60.24096386,7,2,14,,,,,,,,4,05,,,,,,,,,,,,,4,1.428,1,,,,,,0.404090768,-0.270434462,1,0,0,1.4284,Gabbro_rect,13,0,13,0,1
651c2643ebbc43fca485ae24,SCR,2024-06-10_14h15.53.717,LearnStrategy,2023.2.3,Win32,60.24096386,7,2,15,,,,,,,,1,11,,,,,,,,,,,,,1,2.545,1,,,,,,-0.386691176,-0.248237089,1,0,0,2.545,Andesite_rect,14,0,14,0,1
651c2643ebbc43fca485ae24,SCR,2024-06-10_14h15.53.717,LearnStrategy,2023.2.3,Win32,60.24096386,7,2,16,,,,,,,,7,12,,,,,,,,,,,,,7,2.446,1,,,,,,0.084078463,-0.418416915,1,0,0,2.4464,Peridotite_rect,15,0,15,0,1
651c2643ebbc43fca485ae24,SCR,2024-06-10_14h15.53.717,LearnStrategy,2023.2.3,Win32,60.24096386,8,1,1,-0.538373274,-0.390670188,1,0,0,0.9826,Basalt_04,2,04,1,1,0.983,2,04,-0.196163596,-0.262110317,1,0,0,1.0767,Basalt_rect,2,1.077,1,0,0,0,0,1,,,,,,,,,,,,
651c2643ebbc43fca485ae24,SCR,2024-06-10_14h15.53.717,LearnStrategy,2023.2.3,Win32,60.24096386,8,1,2,-0.574444055,0.22253264,1,0,0,0.6829,Andesite_14,1,14,5,1,0.683,1,14,-0.467156656,-0.248237089,1,0,0,6.4605,Andesite_rect,1,6.46,1,1,0,1,0,1,,,,,,,,,,,,
651c2643ebbc43fca485ae24,SCR,2024-06-10_14h15.53.717,LearnStrategy,2023.2.3,Win32,60.24096386,8,1,3,0.074829645,0.228081995,1,0,0,0.9477,Gabbro_11,4,11,5,5,0.948,4,11,0.364320478,-0.23898818,1,0,0,2.9274,Gabbro_rect,4,2.927,1,2,0,2,0,1,,,,,,,,,,,,
651c2643ebbc43fca485ae24,SCR,2024-06-10_14h15.53.717,LearnStrategy,2023.2.3,Win32,60.24096386,8,1,4,0.538200129,-0.066033519,1,0,0,1.0478,Andesite_03,1,03,3,8,1.048,1,03,-0.395940084,-0.248237089,1,0,0,3.0237,Andesite_rect,1,3.024,1,3,0,3,0,1,,,,,,,,,,,,
651c2643ebbc43fca485ae24,SCR,2024-06-10_14h15.53.717,LearnStrategy,2023.2.3,Win32,60.24096386,8,1,5,-0.232234287,-0.119677082,1,0,0,0.7813,Diorite_16,3,16,3,3,0.781,3,16,0.16824377,-0.243612635,1,0,0,0.8271,Diorite_rect,3,0.827,1,4,0,4,0,1,,,,,,,,,,,,
651c2643ebbc43fca485ae24,SCR,2024-06-10_14h15.53.717,LearnStrategy,2023.2.3,Win32,60.24096386,8,1,6,0.604792292,-0.079906837,1,0,0,0.8823,Andesite_03,1,03,3,8,0.882,1,03,-0.43571042,-0.243612635,1,0,0,2.7938,Andesite_rect,1,2.794,1,5,0,5,0,1,,,,,,,,,,,,
651c2643ebbc43fca485ae24,SCR,2024-06-10_14h15.53.717,LearnStrategy,2023.2.3,Win32,60.24096386,8,1,7,0.254258425,-0.427666005,1,0,0,1.0808,Peridotite_10,7,10,1,6,1.081,7,10,0.110900517,-0.409168006,1,0,0,1.6268,Peridotite_rect,7,1.627,1,6,0,6,0,1,,,,,,,,,,,,
651c2643ebbc43fca485ae24,SCR,2024-06-10_14h15.53.717,LearnStrategy,2023.2.3,Win32,60.24096386,8,1,8,-0.062054371,0.374214784,1,0,0,0.8157,Pumice_04,8,04,6,4,0.816,8,04,0.364320478,-0.390670188,1,0,0,1.3772,Pumice_rect,8,1.377,1,7,0,7,0,1,,,,,,,,,,,,
651c2643ebbc43fca485ae24,SCR,2024-06-10_14h15.53.717,LearnStrategy,2023.2.3,Win32,60.24096386,8,1,9,-0.386691176,0.08472386,1,0,0,0.6991,Gabbro_09,4,09,4,2,0.699,4,09,0.381893622,-0.243612635,1,0,0,1.3441,Gabbro_rect,4,1.344,1,8,0,8,0,1,,,,,,,,,,,,
651c2643ebbc43fca485ae24,SCR,2024-06-10_14h15.53.717,LearnStrategy,2023.2.3,Win32,60.24096386,8,1,10,0.284779806,-0.253786308,1,0,0,1.1821,Andesite_10,1,10,2,6,1.182,1,10,-0.427386366,-0.243612635,1,0,0,3.4448,Andesite_rect,1,3.445,1,9,0,9,0,1,,,,,,,,,,,,
651c2643ebbc43fca485ae24,SCR,2024-06-10_14h15.53.717,LearnStrategy,2023.2.3,Win32,60.24096386,8,1,11,-0.552246637,0.262302931,1,0,0,0.7472,Andesite_14,1,14,5,1,0.747,1,14,0.080378864,-0.239912944,1,0,0,3.6775,Diorite_rect,3,3.678,0,10,0,10,0,1,,,,,,,,,,,,
651c2643ebbc43fca485ae24,SCR,2024-06-10_14h15.53.717,LearnStrategy,2023.2.3,Win32,60.24096386,8,1,12,-0.373742712,0.227157072,1,0,0,0.7651,Gabbro_03,4,03,5,2,0.765,4,03,0.12477388,-0.252861544,1,0,0,1.861,Diorite_rect,3,1.861,0,11,0,11,0,1,,,,,,,,,,,,
651c2643ebbc43fca485ae24,SCR,2024-06-10_14h15.53.717,LearnStrategy,2023.2.3,Win32,60.24096386,8,1,13,0.373569387,0.40473621,1,0,0,1.0159,Gabbro_16,4,16,6,7,1.016,4,16,-0.124946934,-0.252861544,1,0,0,2.261,Basalt_rect,2,2.261,0,12,0,12,0,1,,,,,,,,,,,,
651c2643ebbc43fca485ae24,SCR,2024-06-10_14h15.53.717,LearnStrategy,2023.2.3,Win32,60.24096386,8,1,14,0.399466314,-0.248237089,1,0,0,0.9309,Obsidian_02,5,02,2,7,0.931,5,02,-0.39131563,-0.400844042,1,0,0,0.7775,Obsidian_rect,5,0.778,1,13,0,13,0,1,,,,,,,,,,,,
651c2643ebbc43fca485ae24,SCR,2024-06-10_14h15.53.717,LearnStrategy,2023.2.3,Win32,60.24096386,8,1,15,-0.382991621,-0.119677082,1,0,0,0.7656,Pegmatite_05,6,05,3,2,0.766,6,05,0.097027153,-0.249161853,1,0,0,5.7269,Diorite_rect,3,5.727,0,14,0,14,0,1,,,,,,,,,,,,
651c2643ebbc43fca485ae24,SCR,2024-06-10_14h15.53.717,LearnStrategy,2023.2.3,Win32,60.24096386,8,1,16,0.079454009,-0.093780201,1,0,0,0.8648,Peridotite_14,7,14,3,5,0.865,7,14,0.151595481,-0.399919097,1,0,0,1.6434,Peridotite_rect,7,1.643,1,15,0,15,0,1,,,,,,,,,,,,
651c2643ebbc43fca485ae24,SCR,2024-06-10_14h15.53.717,LearnStrategy,2023.2.3,Win32,60.24096386,8,2,1,,,,,,,,3,14,,,,,,,,,,,,,3,1.795,1,,,,,,0.120149426,-0.252861544,1,0,0,1.7949,Diorite_rect,0,0,0,0,1
651c2643ebbc43fca485ae24,SCR,2024-06-10_14h15.53.717,LearnStrategy,2023.2.3,Win32,60.24096386,8,2,2,,,,,,,,6,15,,,,,,,,,,,,,6,1.212,1,,,,,,-0.084251789,-0.412867696,1,0,0,1.2117,Pegmatite_rect,1,0,1,0,1
651c2643ebbc43fca485ae24,SCR,2024-06-10_14h15.53.717,LearnStrategy,2023.2.3,Win32,60.24096386,8,2,3,,,,,,,,3,02,,,,,,,,,,,,,3,1.795,1,,,,,,0.107200736,-0.23528849,1,0,0,1.7951,Diorite_rect,2,0,2,0,1
651c2643ebbc43fca485ae24,SCR,2024-06-10_14h15.53.717,LearnStrategy,2023.2.3,Win32,60.24096386,8,2,4,,,,,,,,1,04,,,,,,,,,,,,,1,2.161,1,,,,,,-0.454208238,-0.23898818,1,0,0,2.1614,Andesite_rect,3,0,3,0,1
651c2643ebbc43fca485ae24,SCR,2024-06-10_14h15.53.717,LearnStrategy,2023.2.3,Win32,60.24096386,8,2,5,,,,,,,,5,12,,,,,,,,,,,,,5,0.995,1,,,,,,-0.409813448,-0.399919097,1,0,0,0.9947,Obsidian_rect,4,0,4,0,1
651c2643ebbc43fca485ae24,SCR,2024-06-10_14h15.53.717,LearnStrategy,2023.2.3,Win32,60.24096386,8,2,6,,,,,,,,6,11,,,,,,,,,,,,,6,3.812,1,,,,,,-0.106449116,-0.399919097,1,0,0,3.8122,Pegmatite_rect,5,0,5,0,1
651c2643ebbc43fca485ae24,SCR,2024-06-10_14h15.53.717,LearnStrategy,2023.2.3,Win32,60.24096386,8,2,7,,,,,,,,4,12,,,,,,,,,,,,,4,2.795,1,,,,,,0.449410458,-0.23898818,1,0,0,2.795,Gabbro_rect,6,0,6,0,1
651c2643ebbc43fca485ae24,SCR,2024-06-10_14h15.53.717,LearnStrategy,2023.2.3,Win32,60.24096386,8,2,8,,,,,,,,8,09,,,,,,,,,,,,,8,1.428,1,,,,,,0.426288186,-0.396219587,1,0,0,1.4278,Pumice_rect,7,0,7,0,1
651c2643ebbc43fca485ae24,SCR,2024-06-10_14h15.53.717,LearnStrategy,2023.2.3,Win32,60.24096386,8,2,9,,,,,,,,7,06,,,,,,,,,,,,,7,1.412,1,,,,,,0.133097663,-0.399919097,1,0,0,1.4125,Peridotite_rect,8,0,8,0,1
651c2643ebbc43fca485ae24,SCR,2024-06-10_14h15.53.717,LearnStrategy,2023.2.3,Win32,60.24096386,8,2,10,,,,,,,,4,13,,,,,,,,,,,,,1,3.079,0,,,,,,-0.427386366,-0.257485998,1,0,0,3.0786,Andesite_rect,9,0,9,0,1
651c2643ebbc43fca485ae24,SCR,2024-06-10_14h15.53.717,LearnStrategy,2023.2.3,Win32,60.24096386,8,2,11,,,,,,,,7,07,,,,,,,,,,,,,7,1.178,1,,,,,,0.150670626,-0.399919097,1,0,0,1.1783,Peridotite_rect,10,0,10,0,1
651c2643ebbc43fca485ae24,SCR,2024-06-10_14h15.53.717,LearnStrategy,2023.2.3,Win32,60.24096386,8,2,12,,,,,,,,5,08,,,,,,,,,,,,,5,1.012,1,,,,,,-0.427386366,-0.395294642,1,0,0,1.012,Obsidian_rect,11,0,11,0,1
651c2643ebbc43fca485ae24,SCR,2024-06-10_14h15.53.717,LearnStrategy,2023.2.3,Win32,60.24096386,8,2,13,,,,,,,,2,01,,,,,,,,,,,,,2,1.428,1,,,,,,-0.106449116,-0.252861544,1,0,0,1.4284,Basalt_rect,12,0,12,0,1
651c2643ebbc43fca485ae24,SCR,2024-06-10_14h15.53.717,LearnStrategy,2023.2.3,Win32,60.24096386,8,2,14,,,,,,,,2,16,,,,,,,,,,,,,4,2.945,0,,,,,,0.404090768,-0.270434462,1,0,0,2.9449,Gabbro_rect,13,0,13,0,1
651c2643ebbc43fca485ae24,SCR,2024-06-10_14h15.53.717,LearnStrategy,2023.2.3,Win32,60.24096386,8,2,15,,,,,,,,8,06,,,,,,,,,,,,,8,2.128,1,,,,,,0.377269168,-0.408243242,1,0,0,2.1283,Pumice_rect,14,0,14,0,1
651c2643ebbc43fca485ae24,SCR,2024-06-10_14h15.53.717,LearnStrategy,2023.2.3,Win32,60.24096386,8,2,16,,,,,,,,1,07,,,,,,,,,,,,,1,4.762,1,,,,,,-0.449583784,-0.249161853,1,0,0,4.7615,Andesite_rect,15,0,15,0,1
651c2643ebbc43fca485ae24,SCR,2024-06-10_14h15.53.717,LearnStrategy,2023.2.3,Win32,60.24096386,9,1,1,-0.395940084,0.071775397,1,0,0,1.0986,Gabbro_09,4,09,4,2,1.099,4,09,0.392067205,-0.270434462,1,0,0,2.2601,Gabbro_rect,4,2.26,1,0,0,0,0,1,,,,,,,,,,,,
651c2643ebbc43fca485ae24,SCR,2024-06-10_14h15.53.717,LearnStrategy,2023.2.3,Win32,60.24096386,9,1,2,-0.364493667,-0.404543551,1,0,0,0.7974,Andesite_09,1,09,1,2,0.797,1,09,-0.405188993,-0.248237089,1,0,0,2.7278,Andesite_rect,1,2.728,1,1,0,1,0,1,,,,,,,,,,,,
651c2643ebbc43fca485ae24,SCR,2024-06-10_14h15.53.717,LearnStrategy,2023.2.3,Win32,60.24096386,9,1,3,0.52895122,-0.110428173,1,0,0,0.9145,Andesite_03,1,03,3,8,0.915,1,03,-0.462532202,-0.244537399,1,0,0,1.1774,Andesite_rect,1,1.177,1,2,0,2,0,1,,,,,,,,,,,,
651c2643ebbc43fca485ae24,SCR,2024-06-10_14h15.53.717,LearnStrategy,2023.2.3,Win32,60.24096386,9,1,4,-0.236858741,0.413985119,1,0,0,0.7989,Obsidian_06,5,06,6,3,0.799,5,06,-0.455133093,-0.386045733,1,0,0,0.7113,Obsidian_rect,5,0.711,1,3,0,3,0,1,,,,,,,,,,,,
651c2643ebbc43fca485ae24,SCR,2024-06-10_14h15.53.717,LearnStrategy,2023.2.3,Win32,60.24096386,9,1,5,0.261657534,0.40473621,1,0,0,0.8324,Basalt_09,2,09,6,6,0.832,2,09,-0.165642124,-0.23528849,1,0,0,2.611,Basalt_rect,2,2.611,1,4,0,4,0,1,,,,,,,,,,,,
651c2643ebbc43fca485ae24,SCR,2024-06-10_14h15.53.717,LearnStrategy,2023.2.3,Win32,60.24096386,9,1,6,-0.226684887,0.093972769,1,0,0,0.698,Peridotite_08,7,08,4,3,0.698,7,08,0.101651608,-0.404543551,1,0,0,1.044,Peridotite_rect,7,1.044,1,5,0,5,0,1,,,,,,,,,,,,
651c2643ebbc43fca485ae24,SCR,2024-06-10_14h15.53.717,LearnStrategy,2023.2.3,Win32,60.24096386,9,1,7,-0.423686766,0.410285548,1,0,0,0.8154,Gabbro_10,4,10,6,2,0.815,4,10,0.417964132,-0.243612635,1,0,0,2.8613,Gabbro_rect,4,2.861,1,6,0,6,0,1,,,,,,,,,,,,
651c2643ebbc43fca485ae24,SCR,2024-06-10_14h15.53.717,LearnStrategy,2023.2.3,Win32,60.24096386,9,1,8,0.07020519,-0.110428173,1,0,0,0.8475,Peridotite_14,7,14,3,5,0.848,7,14,0.120149426,-0.404543551,1,0,0,0.727,Peridotite_rect,7,0.727,1,7,0,7,0,1,,,,,,,,,,,,
651c2643ebbc43fca485ae24,SCR,2024-06-10_14h15.53.717,LearnStrategy,2023.2.3,Win32,60.24096386,9,1,9,0.547449038,-0.092855255,1,0,0,0.8494,Andesite_03,1,03,3,8,0.849,1,03,-0.409813448,-0.23898818,1,0,0,1.0112,Andesite_rect,1,1.011,1,8,0,8,0,1,,,,,,,,,,,,
651c2643ebbc43fca485ae24,SCR,2024-06-10_14h15.53.717,LearnStrategy,2023.2.3,Win32,60.24096386,9,1,10,0.54189982,-0.258410762,1,0,0,0.8808,Pegmatite_08,6,08,2,8,0.881,6,08,-0.182290233,-0.399919097,1,0,0,1.1939,Pegmatite_rect,6,1.194,1,9,0,9,0,1,,,,,,,,,,,,
651c2643ebbc43fca485ae24,SCR,2024-06-10_14h15.53.717,LearnStrategy,2023.2.3,Win32,60.24096386,9,1,11,0.359696023,0.40473621,1,0,0,0.8321,Gabbro_16,4,16,6,7,0.832,4,16,0.369870059,-0.262110317,1,0,0,3.0111,Gabbro_rect,4,3.011,1,10,0,10,0,1,,,,,,,,,,,,
651c2643ebbc43fca485ae24,SCR,2024-06-10_14h15.53.717,LearnStrategy,2023.2.3,Win32,60.24096386,9,1,12,-0.574444055,-0.408243242,1,0,0,0.7815,Basalt_04,2,04,1,1,0.782,2,04,-0.16101767,-0.23898818,1,0,0,0.9614,Basalt_rect,2,0.961,1,11,0,11,0,1,,,,,,,,,,,,
651c2643ebbc43fca485ae24,SCR,2024-06-10_14h15.53.717,LearnStrategy,2023.2.3,Win32,60.24096386,9,1,13,-0.574444055,-0.105803719,1,0,0,0.7819,Diorite_08,3,08,3,1,0.782,3,08,0.079454009,-0.248237089,1,0,0,0.9937,Diorite_rect,3,0.994,1,12,0,12,0,1,,,,,,,,,,,,
651c2643ebbc43fca485ae24,SCR,2024-06-10_14h15.53.717,LearnStrategy,2023.2.3,Win32,60.24096386,9,1,14,-0.538373274,-0.422116605,1,0,0,0.9492,Basalt_04,2,04,1,1,0.949,2,04,-0.183214997,-0.23528849,1,0,0,0.877,Basalt_rect,2,0.877,1,13,0,13,0,1,,,,,,,,,,,,
651c2643ebbc43fca485ae24,SCR,2024-06-10_14h15.53.717,LearnStrategy,2023.2.3,Win32,60.24096386,9,1,15,-0.085176553,0.075474951,1,0,0,0.765,Pumice_13,8,13,4,4,0.765,8,13,0.405015804,-0.412867696,1,0,0,1.028,Pumice_rect,8,1.028,1,14,0,14,0,1,,,,,,,,,,,,
651c2643ebbc43fca485ae24,SCR,2024-06-10_14h15.53.717,LearnStrategy,2023.2.3,Win32,60.24096386,9,1,16,0.057256591,0.253978944,1,0,0,0.6992,Gabbro_11,4,11,5,5,0.699,4,11,0.417964132,-0.252861544,1,0,0,3.0441,Gabbro_rect,4,3.044,1,15,0,15,0,1,,,,,,,,,,,,
651c2643ebbc43fca485ae24,SCR,2024-06-10_14h15.53.717,LearnStrategy,2023.2.3,Win32,60.24096386,9,2,1,,,,,,,,1,16,,,,,,,,,,,,,1,7.311,1,,,,,,-0.427386366,-0.23898818,1,0,0,7.3113,Andesite_rect,0,0,0,0,1
651c2643ebbc43fca485ae24,SCR,2024-06-10_14h15.53.717,LearnStrategy,2023.2.3,Win32,60.24096386,9,2,2,,,,,,,,3,11,,,,,,,,,,,,,3,2.462,1,,,,,,0.107200736,-0.253786308,1,0,0,2.4616,Diorite_rect,1,0,1,0,1
651c2643ebbc43fca485ae24,SCR,2024-06-10_14h15.53.717,LearnStrategy,2023.2.3,Win32,60.24096386,9,2,3,,,,,,,,8,05,,,,,,,,,,,,,8,1.045,1,,,,,,0.395766895,-0.391595133,1,0,0,1.0448,Pumice_rect,2,0,2,0,1
651c2643ebbc43fca485ae24,SCR,2024-06-10_14h15.53.717,LearnStrategy,2023.2.3,Win32,60.24096386,9,2,4,,,,,,,,7,13,,,,,,,,,,,,,7,1.478,1,,,,,,0.120149426,-0.41379246,1,0,0,1.4784,Peridotite_rect,3,0,3,0,1
651c2643ebbc43fca485ae24,SCR,2024-06-10_14h15.53.717,LearnStrategy,2023.2.3,Win32,60.24096386,9,2,5,,,,,,,,1,05,,,,,,,,,,,,,1,9.779,1,,,,,,-0.428311175,-0.252861544,1,0,0,9.7791,Andesite_rect,4,0,4,0,1
651c2643ebbc43fca485ae24,SCR,2024-06-10_14h15.53.717,LearnStrategy,2023.2.3,Win32,60.24096386,9,2,6,,,,,,,,7,15,,,,,,,,,,,,,7,1.112,1,,,,,,0.110900517,-0.395294642,1,0,0,1.1116,Peridotite_rect,5,0,5,0,1
651c2643ebbc43fca485ae24,SCR,2024-06-10_14h15.53.717,LearnStrategy,2023.2.3,Win32,60.24096386,9,2,7,,,,,,,,4,01,,,,,,,,,,,,,4,9.879,1,,,,,,0.408715223,-0.249161853,1,0,0,9.8785,Gabbro_rect,6,0,6,0,1
651c2643ebbc43fca485ae24,SCR,2024-06-10_14h15.53.717,LearnStrategy,2023.2.3,Win32,60.24096386,9,2,8,,,,,,,,8,08,,,,,,,,,,,,,8,1.078,1,,,,,,0.350447114,-0.395294642,1,0,0,1.078,Pumice_rect,7,0,7,0,1
651c2643ebbc43fca485ae24,SCR,2024-06-10_14h15.53.717,LearnStrategy,2023.2.3,Win32,60.24096386,9,2,9,,,,,,,,2,06,,,,,,,,,,,,,2,3.51,1,,,,,,-0.173041188,-0.248237089,1,0,0,3.51,Basalt_rect,8,0,8,0,1
651c2643ebbc43fca485ae24,SCR,2024-06-10_14h15.53.717,LearnStrategy,2023.2.3,Win32,60.24096386,9,2,10,,,,,,,,6,09,,,,,,,,,,,,,6,2.295,1,,,,,,-0.102749607,-0.396219587,1,0,0,2.2953,Pegmatite_rect,9,0,9,0,1
651c2643ebbc43fca485ae24,SCR,2024-06-10_14h15.53.717,LearnStrategy,2023.2.3,Win32,60.24096386,9,2,11,,,,,,,,6,06,,,,,,,,,,,,,6,1.128,1,,,,,,-0.102749607,-0.396219587,1,0,0,1.1275,Pegmatite_rect,10,0,10,0,1
651c2643ebbc43fca485ae24,SCR,2024-06-10_14h15.53.717,LearnStrategy,2023.2.3,Win32,60.24096386,9,2,12,,,,,,,,3,10,,,,,,,,,,,,,3,1.779,1,,,,,,0.156219935,-0.248237089,1,0,0,1.7787,Diorite_rect,11,0,11,0,1
651c2643ebbc43fca485ae24,SCR,2024-06-10_14h15.53.717,LearnStrategy,2023.2.3,Win32,60.24096386,9,2,13,,,,,,,,4,15,,,,,,,,,,,,,4,9.612,1,,,,,,0.427213312,-0.252861544,1,0,0,9.6121,Gabbro_rect,12,0,12,0,1
651c2643ebbc43fca485ae24,SCR,2024-06-10_14h15.53.717,LearnStrategy,2023.2.3,Win32,60.24096386,9,2,14,,,,,,,,5,11,,,,,,,,,,,,,5,1.212,1,,,,,,-0.43571042,-0.404543551,1,0,0,1.2122,Obsidian_rect,13,0,13,0,1
651c2643ebbc43fca485ae24,SCR,2024-06-10_14h15.53.717,LearnStrategy,2023.2.3,Win32,60.24096386,9,2,15,,,,,,,,2,08,,,,,,,,,,,,,2,1.415,1,,,,,,-0.134195888,-0.270434462,1,0,0,1.4146,Basalt_rect,14,0,14,0,1
651c2643ebbc43fca485ae24,SCR,2024-06-10_14h15.53.717,LearnStrategy,2023.2.3,Win32,60.24096386,9,2,16,,,,,,,,5,14,,,,,,,,,,,,,5,2.509,1,,,,,,-0.409813448,-0.395294642,1,0,0,2.5095,Obsidian_rect,15,0,15,0,1
651c2643ebbc43fca485ae24,SCR,2024-06-10_14h15.53.717,LearnStrategy,2023.2.3,Win32,60.24096386,,,,,,,,,,,,,,,,,,,,,,,,,,,,,,,,,,,,,,,,,,,,
651c2643ebbc43fca485ae24,SCR,2024-06-10_14h15.53.717,LearnStrategy,2023.2.3,Win32,60.24096386,,,,,,,,,,,,,,,,,,,,,,,,,,,,,,,,,,,,,,,,,,,,
651c2643ebbc43fca485ae24,SCR,2024-06-10_14h15.53.717,LearnStrategy,2023.2.3,Win32,60.24096386,,,,,,,,,,,2,04,1,1,,,,,,,,,,,,,,,,,,,,,,,,,,,,,,
651c2643ebbc43fca485ae24,SCR,2024-06-10_14h15.53.717,LearnStrategy,2023.2.3,Win32,60.24096386,,,,,,,,,,,1,09,1,2,,,,,,,,,,,,,,,,,,,,,,,,,,,,,,
651c2643ebbc43fca485ae24,SCR,2024-06-10_14h15.53.717,LearnStrategy,2023.2.3,Win32,60.24096386,,,,,,,,,,,5,16,1,3,,,,,,,,,,,,,,,,,,,,,,,,,,,,,,
651c2643ebbc43fca485ae24,SCR,2024-06-10_14h15.53.717,LearnStrategy,2023.2.3,Win32,60.24096386,,,,,,,,,,,3,06,1,4,,,,,,,,,,,,,,,,,,,,,,,,,,,,,,
651c2643ebbc43fca485ae24,SCR,2024-06-10_14h15.53.717,LearnStrategy,2023.2.3,Win32,60.24096386,,,,,,,,,,,6,12,1,5,,,,,,,,,,,,,,,,,,,,,,,,,,,,,,
651c2643ebbc43fca485ae24,SCR,2024-06-10_14h15.53.717,LearnStrategy,2023.2.3,Win32,60.24096386,,,,,,,,,,,7,10,1,6,,,,,,,,,,,,,,,,,,,,,,,,,,,,,,
651c2643ebbc43fca485ae24,SCR,2024-06-10_14h15.53.717,LearnStrategy,2023.2.3,Win32,60.24096386,,,,,,,,,,,8,14,1,7,,,,,,,,,,,,,,,,,,,,,,,,,,,,,,
651c2643ebbc43fca485ae24,SCR,2024-06-10_14h15.53.717,LearnStrategy,2023.2.3,Win32,60.24096386,,,,,,,,,,,8,02,1,8,,,,,,,,,,,,,,,,,,,,,,,,,,,,,,
651c2643ebbc43fca485ae24,SCR,2024-06-10_14h15.53.717,LearnStrategy,2023.2.3,Win32,60.24096386,,,,,,,,,,,3,09,2,1,,,,,,,,,,,,,,,,,,,,,,,,,,,,,,
651c2643ebbc43fca485ae24,SCR,2024-06-10_14h15.53.717,LearnStrategy,2023.2.3,Win32,60.24096386,,,,,,,,,,,8,03,2,2,,,,,,,,,,,,,,,,,,,,,,,,,,,,,,
651c2643ebbc43fca485ae24,SCR,2024-06-10_14h15.53.717,LearnStrategy,2023.2.3,Win32,60.24096386,,,,,,,,,,,1,06,2,3,,,,,,,,,,,,,,,,,,,,,,,,,,,,,,
651c2643ebbc43fca485ae24,SCR,2024-06-10_14h15.53.717,LearnStrategy,2023.2.3,Win32,60.24096386,,,,,,,,,,,7,04,2,4,,,,,,,,,,,,,,,,,,,,,,,,,,,,,,
651c2643ebbc43fca485ae24,SCR,2024-06-10_14h15.53.717,LearnStrategy,2023.2.3,Win32,60.24096386,,,,,,,,,,,3,07,2,5,,,,,,,,,,,,,,,,,,,,,,,,,,,,,,
651c2643ebbc43fca485ae24,SCR,2024-06-10_14h15.53.717,LearnStrategy,2023.2.3,Win32,60.24096386,,,,,,,,,,,1,10,2,6,,,,,,,,,,,,,,,,,,,,,,,,,,,,,,
651c2643ebbc43fca485ae24,SCR,2024-06-10_14h15.53.717,LearnStrategy,2023.2.3,Win32,60.24096386,,,,,,,,,,,5,02,2,7,,,,,,,,,,,,,,,,,,,,,,,,,,,,,,
651c2643ebbc43fca485ae24,SCR,2024-06-10_14h15.53.717,LearnStrategy,2023.2.3,Win32,60.24096386,,,,,,,,,,,6,08,2,8,,,,,,,,,,,,,,,,,,,,,,,,,,,,,,
651c2643ebbc43fca485ae24,SCR,2024-06-10_14h15.53.717,LearnStrategy,2023.2.3,Win32,60.24096386,,,,,,,,,,,3,08,3,1,,,,,,,,,,,,,,,,,,,,,,,,,,,,,,
651c2643ebbc43fca485ae24,SCR,2024-06-10_14h15.53.717,LearnStrategy,2023.2.3,Win32,60.24096386,,,,,,,,,,,6,05,3,2,,,,,,,,,,,,,,,,,,,,,,,,,,,,,,
651c2643ebbc43fca485ae24,SCR,2024-06-10_14h15.53.717,LearnStrategy,2023.2.3,Win32,60.24096386,,,,,,,,,,,3,16,3,3,,,,,,,,,,,,,,,,,,,,,,,,,,,,,,
651c2643ebbc43fca485ae24,SCR,2024-06-10_14h15.53.717,LearnStrategy,2023.2.3,Win32,60.24096386,,,,,,,,,,,7,05,3,4,,,,,,,,,,,,,,,,,,,,,,,,,,,,,,
651c2643ebbc43fca485ae24,SCR,2024-06-10_14h15.53.717,LearnStrategy,2023.2.3,Win32,60.24096386,,,,,,,,,,,7,14,3,5,,,,,,,,,,,,,,,,,,,,,,,,,,,,,,
651c2643ebbc43fca485ae24,SCR,2024-06-10_14h15.53.717,LearnStrategy,2023.2.3,Win32,60.24096386,,,,,,,,,,,5,04,3,6,,,,,,,,,,,,,,,,,,,,,,,,,,,,,,
651c2643ebbc43fca485ae24,SCR,2024-06-10_14h15.53.717,LearnStrategy,2023.2.3,Win32,60.24096386,,,,,,,,,,,6,07,3,7,,,,,,,,,,,,,,,,,,,,,,,,,,,,,,
651c2643ebbc43fca485ae24,SCR,2024-06-10_14h15.53.717,LearnStrategy,2023.2.3,Win32,60.24096386,,,,,,,,,,,1,03,3,8,,,,,,,,,,,,,,,,,,,,,,,,,,,,,,
651c2643ebbc43fca485ae24,SCR,2024-06-10_14h15.53.717,LearnStrategy,2023.2.3,Win32,60.24096386,,,,,,,,,,,2,11,4,1,,,,,,,,,,,,,,,,,,,,,,,,,,,,,,
651c2643ebbc43fca485ae24,SCR,2024-06-10_14h15.53.717,LearnStrategy,2023.2.3,Win32,60.24096386,,,,,,,,,,,4,09,4,2,,,,,,,,,,,,,,,,,,,,,,,,,,,,,,
651c2643ebbc43fca485ae24,SCR,2024-06-10_14h15.53.717,LearnStrategy,2023.2.3,Win32,60.24096386,,,,,,,,,,,7,08,4,3,,,,,,,,,,,,,,,,,,,,,,,,,,,,,,
651c2643ebbc43fca485ae24,SCR,2024-06-10_14h15.53.717,LearnStrategy,2023.2.3,Win32,60.24096386,,,,,,,,,,,8,13,4,4,,,,,,,,,,,,,,,,,,,,,,,,,,,,,,
651c2643ebbc43fca485ae24,SCR,2024-06-10_14h15.53.717,LearnStrategy,2023.2.3,Win32,60.24096386,,,,,,,,,,,6,13,4,5,,,,,,,,,,,,,,,,,,,,,,,,,,,,,,
651c2643ebbc43fca485ae24,SCR,2024-06-10_14h15.53.717,LearnStrategy,2023.2.3,Win32,60.24096386,,,,,,,,,,,7,02,4,6,,,,,,,,,,,,,,,,,,,,,,,,,,,,,,
651c2643ebbc43fca485ae24,SCR,2024-06-10_14h15.53.717,LearnStrategy,2023.2.3,Win32,60.24096386,,,,,,,,,,,5,09,4,7,,,,,,,,,,,,,,,,,,,,,,,,,,,,,,
651c2643ebbc43fca485ae24,SCR,2024-06-10_14h15.53.717,LearnStrategy,2023.2.3,Win32,60.24096386,,,,,,,,,,,5,05,4,8,,,,,,,,,,,,,,,,,,,,,,,,,,,,,,
651c2643ebbc43fca485ae24,SCR,2024-06-10_14h15.53.717,LearnStrategy,2023.2.3,Win32,60.24096386,,,,,,,,,,,1,14,5,1,,,,,,,,,,,,,,,,,,,,,,,,,,,,,,
651c2643ebbc43fca485ae24,SCR,2024-06-10_14h15.53.717,LearnStrategy,2023.2.3,Win32,60.24096386,,,,,,,,,,,4,03,5,2,,,,,,,,,,,,,,,,,,,,,,,,,,,,,,
651c2643ebbc43fca485ae24,SCR,2024-06-10_14h15.53.717,LearnStrategy,2023.2.3,Win32,60.24096386,,,,,,,,,,,4,14,5,3,,,,,,,,,,,,,,,,,,,,,,,,,,,,,,
651c2643ebbc43fca485ae24,SCR,2024-06-10_14h15.53.717,LearnStrategy,2023.2.3,Win32,60.24096386,,,,,,,,,,,2,02,5,4,,,,,,,,,,,,,,,,,,,,,,,,,,,,,,
651c2643ebbc43fca485ae24,SCR,2024-06-10_14h15.53.717,LearnStrategy,2023.2.3,Win32,60.24096386,,,,,,,,,,,4,11,5,5,,,,,,,,,,,,,,,,,,,,,,,,,,,,,,
651c2643ebbc43fca485ae24,SCR,2024-06-10_14h15.53.717,LearnStrategy,2023.2.3,Win32,60.24096386,,,,,,,,,,,8,16,5,6,,,,,,,,,,,,,,,,,,,,,,,,,,,,,,
651c2643ebbc43fca485ae24,SCR,2024-06-10_14h15.53.717,LearnStrategy,2023.2.3,Win32,60.24096386,,,,,,,,,,,6,10,5,7,,,,,,,,,,,,,,,,,,,,,,,,,,,,,,
651c2643ebbc43fca485ae24,SCR,2024-06-10_14h15.53.717,LearnStrategy,2023.2.3,Win32,60.24096386,,,,,,,,,,,2,14,5,8,,,,,,,,,,,,,,,,,,,,,,,,,,,,,,
651c2643ebbc43fca485ae24,SCR,2024-06-10_14h15.53.717,LearnStrategy,2023.2.3,Win32,60.24096386,,,,,,,,,,,1,01,6,1,,,,,,,,,,,,,,,,,,,,,,,,,,,,,,
651c2643ebbc43fca485ae24,SCR,2024-06-10_14h15.53.717,LearnStrategy,2023.2.3,Win32,60.24096386,,,,,,,,,,,4,10,6,2,,,,,,,,,,,,,,,,,,,,,,,,,,,,,,
651c2643ebbc43fca485ae24,SCR,2024-06-10_14h15.53.717,LearnStrategy,2023.2.3,Win32,60.24096386,,,,,,,,,,,5,06,6,3,,,,,,,,,,,,,,,,,,,,,,,,,,,,,,
651c2643ebbc43fca485ae24,SCR,2024-06-10_14h15.53.717,LearnStrategy,2023.2.3,Win32,60.24096386,,,,,,,,,,,8,04,6,4,,,,,,,,,,,,,,,,,,,,,,,,,,,,,,
651c2643ebbc43fca485ae24,SCR,2024-06-10_14h15.53.717,LearnStrategy,2023.2.3,Win32,60.24096386,,,,,,,,,,,2,12,6,5,,,,,,,,,,,,,,,,,,,,,,,,,,,,,,
651c2643ebbc43fca485ae24,SCR,2024-06-10_14h15.53.717,LearnStrategy,2023.2.3,Win32,60.24096386,,,,,,,,,,,2,09,6,6,,,,,,,,,,,,,,,,,,,,,,,,,,,,,,
651c2643ebbc43fca485ae24,SCR,2024-06-10_14h15.53.717,LearnStrategy,2023.2.3,Win32,60.24096386,,,,,,,,,,,4,16,6,7,,,,,,,,,,,,,,,,,,,,,,,,,,,,,,
651c2643ebbc43fca485ae24,SCR,2024-06-10_14h15.53.717,LearnStrategy,2023.2.3,Win32,60.24096386,,,,,,,,,,,3,13,6,8,,,,,,,,,,,,,,,,,,,,,,,,,,,,,,