participant,condition,date,expName,psychopyVersion,OS,frameRate,block,phase,trial,learn_mouse_2.x,learn_mouse_2.y,learn_mouse_2.leftButton,learn_mouse_2.midButton,learn_mouse_2.rightButton,learn_mouse_2.time,learn_mouse_2.clicked_name,cat,token,row,col,t_select,cat_mouse_l.x,cat_mouse_l.y,cat_mouse_l.leftButton,cat_mouse_l.midButton,cat_mouse_l.rightButton,cat_mouse_l.time,cat_mouse_l.clicked_name,resp,t_resp,corr,train_trials.thisRepN,train_trials.thisTrialN,train_trials.thisN,train_trials.thisIndex,train_trials.ran,cat_mouse_t.x,cat_mouse_t.y,cat_mouse_t.leftButton,cat_mouse_t.midButton,cat_mouse_t.rightButton,cat_mouse_t.time,cat_mouse_t.clicked_name,test_trials.thisRepN,test_trials.thisTrialN,test_trials.thisN,test_trials.thisIndex,test_trials.ran,Bonus
6543f753696f612571ac356c,TCN,2024-06-26_13h53.25.481,LearnStrategy,2023.2.3,Linux x86_64,60.24096386,,,,,,,,,,,,,,,,,,,,,,,,,,,,,,,,,,,,,,,,,,,
6543f753696f612571ac356c,TCN,2024-06-26_13h53.25.481,LearnStrategy,2023.2.3,Linux x86_64,60.24096386,1,1,1,0.001776111,0.002320703,1,0,0,7.4947,rock_grid_rect_2,8,03,-1,-1,7.495,-0.138916389,-0.230390187,1,0,0,9.7918,Basalt_rect,2,9.792,0,0,0,0,0,1,,,,,,,,,,,,,
6543f753696f612571ac356c,TCN,2024-06-26_13h53.25.481,LearnStrategy,2023.2.3,Linux x86_64,60.24096386,1,1,2,-0.009753319,-0.002729583,1,0,0,4.6177,rock_grid_rect_2,3,06,-1,-1,4.618,0.148916272,-0.253075998,1,0,0,6.2458,Diorite_rect,3,6.246,1,1,0,1,0,1,,,,,,,,,,,,,
6543f753696f612571ac356c,TCN,2024-06-26_13h53.25.481,LearnStrategy,2023.2.3,Linux x86_64,60.24096386,1,1,3,0.020145393,-0.005073812,1,0,0,10.201,rock_grid_rect_2,4,10,-1,-1,10.201,-0.364477464,-0.415765953,1,0,0,4.95,Obsidian_rect,5,4.95,0,2,0,2,0,1,,,,,,,,,,,,,
6543f753696f612571ac356c,TCN,2024-06-26_13h53.25.481,LearnStrategy,2023.2.3,Linux x86_64,60.24096386,1,1,4,0.02361209,3.01757E-05,1,0,0,2.9004,rock_grid_rect_2,3,09,-1,-1,2.9,-0.390705054,-0.236091319,1,0,0,5.3263,Andesite_rect,1,5.326,0,3,0,3,0,1,,,,,,,,,,,,,
6543f753696f612571ac356c,TCN,2024-06-26_13h53.25.481,LearnStrategy,2023.2.3,Linux x86_64,60.24096386,1,1,5,-0.001374099,0.000343929,1,0,0,3.1359,rock_grid_rect_2,2,09,-1,-1,3.136,-0.046925531,-0.395856434,1,0,0,6.4083,Pegmatite_rect,6,6.408,0,4,0,4,0,1,,,,,,,,,,,,,
6543f753696f612571ac356c,TCN,2024-06-26_13h53.25.481,LearnStrategy,2023.2.3,Linux x86_64,60.24096386,1,1,6,0.004960256,-0.010275598,1,0,0,3.0291,rock_grid_rect_2,5,14,-1,-1,3.029,-0.428071778,-0.241547066,1,0,0,3.4491,Andesite_rect,1,3.449,0,5,0,5,0,1,,,,,,,,,,,,,
6543f753696f612571ac356c,TCN,2024-06-26_13h53.25.481,LearnStrategy,2023.2.3,Linux x86_64,60.24096386,1,1,7,-0.002189745,-0.00812529,1,0,0,2.2521,rock_grid_rect_2,8,14,-1,-1,2.252,0.413058465,-0.407873647,1,0,0,3.4878,Pumice_rect,8,3.488,1,6,0,6,0,1,,,,,,,,,,,,,
6543f753696f612571ac356c,TCN,2024-06-26_13h53.25.481,LearnStrategy,2023.2.3,Linux x86_64,60.24096386,1,1,8,-0.010856116,-0.005690378,1,0,0,4.104,rock_grid_rect_2,6,07,-1,-1,4.104,-0.334479928,-0.24839792,1,0,0,8.6709,Andesite_rect,1,8.671,0,7,0,7,0,1,,,,,,,,,,,,,
6543f753696f612571ac356c,TCN,2024-06-26_13h53.25.481,LearnStrategy,2023.2.3,Linux x86_64,60.24096386,1,1,9,-0.096838802,0.001049407,1,0,0,2.2177,rock_grid_rect_2,1,06,-1,-1,2.218,-0.3917553,-0.255357047,1,0,0,8.8536,Andesite_rect,1,8.854,1,8,0,8,0,1,,,,,,,,,,,,,
6543f753696f612571ac356c,TCN,2024-06-26_13h53.25.481,LearnStrategy,2023.2.3,Linux x86_64,60.24096386,1,1,10,0.002960827,0.001620166,1,0,0,2.5695,rock_grid_rect_2,6,10,-1,-1,2.569,0.098246899,-0.394053784,1,0,0,12.9297,Peridotite_rect,7,12.93,0,9,0,9,0,1,,,,,,,,,,,,,
6543f753696f612571ac356c,TCN,2024-06-26_13h53.25.481,LearnStrategy,2023.2.3,Linux x86_64,60.24096386,1,1,11,-0.027898909,0.00119724,1,0,0,2.3025,rock_grid_rect_2,4,13,-1,-1,2.303,-0.385513026,-0.237778673,1,0,0,4.6849,Andesite_rect,1,4.685,0,10,0,10,0,1,,,,,,,,,,,,,
6543f753696f612571ac356c,TCN,2024-06-26_13h53.25.481,LearnStrategy,2023.2.3,Linux x86_64,60.24096386,1,1,12,0.01706809,-0.001811632,1,0,0,2.453,rock_grid_rect_2,2,14,-1,-1,2.453,-0.394981804,-0.249067007,1,0,0,5.2295,Andesite_rect,1,5.23,0,11,0,11,0,1,,,,,,,,,,,,,
6543f753696f612571ac356c,TCN,2024-06-26_13h53.25.481,LearnStrategy,2023.2.3,Linux x86_64,60.24096386,1,1,13,0.005460595,0.002709165,1,0,0,2.6659,rock_grid_rect_2,7,04,-1,-1,2.666,0.134687995,-0.257164794,1,0,0,4.9055,Diorite_rect,3,4.905,0,12,0,12,0,1,,,,,,,,,,,,,
6543f753696f612571ac356c,TCN,2024-06-26_13h53.25.481,LearnStrategy,2023.2.3,Linux x86_64,60.24096386,1,1,14,0.011894832,-0.013507664,1,0,0,2.7696,rock_grid_rect_2,1,05,-1,-1,2.77,-0.388498714,-0.254720777,1,0,0,12.5442,Andesite_rect,1,12.544,1,13,0,13,0,1,,,,,,,,,,,,,
6543f753696f612571ac356c,TCN,2024-06-26_13h53.25.481,LearnStrategy,2023.2.3,Linux x86_64,60.24096386,1,1,15,-0.010005663,0.004136592,1,0,0,2.4856,rock_grid_rect_2,7,06,-1,-1,2.486,0.210333115,-0.389132373,1,0,0,4.2269,Peridotite_rect,7,4.227,1,14,0,14,0,1,,,,,,,,,,,,,
6543f753696f612571ac356c,TCN,2024-06-26_13h53.25.481,LearnStrategy,2023.2.3,Linux x86_64,60.24096386,1,1,16,0.001261787,-0.007221354,1,0,0,3.1863,rock_grid_rect_2,5,10,-1,-1,3.186,-0.43578623,-0.399620911,1,0,0,3.1688,Obsidian_rect,5,3.169,1,15,0,15,0,1,,,,,,,,,,,,,
6543f753696f612571ac356c,TCN,2024-06-26_13h53.25.481,LearnStrategy,2023.2.3,Linux x86_64,60.24096386,1,2,1,,,,,,,,3,16,,,,,,,,,,,1,4.05,0,,,,,,-0.353010003,-0.25222337,1,0,0,4.0502,Andesite_rect,0,0,0,0,1,
6543f753696f612571ac356c,TCN,2024-06-26_13h53.25.481,LearnStrategy,2023.2.3,Linux x86_64,60.24096386,1,2,2,,,,,,,,3,14,,,,,,,,,,,6,7.085,0,,,,,,-0.093105712,-0.402765154,1,0,0,7.0854,Pegmatite_rect,1,0,1,0,1,
6543f753696f612571ac356c,TCN,2024-06-26_13h53.25.481,LearnStrategy,2023.2.3,Linux x86_64,60.24096386,1,2,3,,,,,,,,1,04,,,,,,,,,,,2,5.787,0,,,,,,-0.140085877,-0.249254215,1,0,0,5.7869,Basalt_rect,2,0,2,0,1,
6543f753696f612571ac356c,TCN,2024-06-26_13h53.25.481,LearnStrategy,2023.2.3,Linux x86_64,60.24096386,1,2,4,,,,,,,,1,10,,,,,,,,,,,2,1.415,0,,,,,,-0.140085877,-0.249254215,1,0,0,1.4145,Basalt_rect,3,0,3,0,1,
6543f753696f612571ac356c,TCN,2024-06-26_13h53.25.481,LearnStrategy,2023.2.3,Linux x86_64,60.24096386,1,2,5,,,,,,,,4,14,,,,,,,,,,,5,2.387,0,,,,,,-0.426069551,-0.406358148,1,0,0,2.3866,Obsidian_rect,4,0,4,0,1,
6543f753696f612571ac356c,TCN,2024-06-26_13h53.25.481,LearnStrategy,2023.2.3,Linux x86_64,60.24096386,1,2,6,,,,,,,,7,02,,,,,,,,,,,6,3.811,0,,,,,,-0.101563805,-0.407618629,1,0,0,3.8112,Pegmatite_rect,5,0,5,0,1,
6543f753696f612571ac356c,TCN,2024-06-26_13h53.25.481,LearnStrategy,2023.2.3,Linux x86_64,60.24096386,1,2,7,,,,,,,,6,15,,,,,,,,,,,3,6.059,0,,,,,,0.153148333,-0.266959818,1,0,0,6.0588,Diorite_rect,6,0,6,0,1,
6543f753696f612571ac356c,TCN,2024-06-26_13h53.25.481,LearnStrategy,2023.2.3,Linux x86_64,60.24096386,1,2,8,,,,,,,,8,15,,,,,,,,,,,8,2.105,1,,,,,,0.352779474,-0.401149587,1,0,0,2.1047,Pumice_rect,7,0,7,0,1,
6543f753696f612571ac356c,TCN,2024-06-26_13h53.25.481,LearnStrategy,2023.2.3,Linux x86_64,60.24096386,1,2,9,,,,,,,,6,09,,,,,,,,,,,6,4.279,1,,,,,,-0.136263472,-0.399702395,1,0,0,4.2786,Pegmatite_rect,8,0,8,0,1,
6543f753696f612571ac356c,TCN,2024-06-26_13h53.25.481,LearnStrategy,2023.2.3,Linux x86_64,60.24096386,1,2,10,,,,,,,,8,16,,,,,,,,,,,8,4.69,1,,,,,,0.388794691,-0.41837965,1,0,0,4.6903,Pumice_rect,9,0,9,0,1,
6543f753696f612571ac356c,TCN,2024-06-26_13h53.25.481,LearnStrategy,2023.2.3,Linux x86_64,60.24096386,1,2,11,,,,,,,,2,05,,,,,,,,,,,5,3.199,0,,,,,,-0.428985844,-0.413437045,1,0,0,3.1992,Obsidian_rect,10,0,10,0,1,
6543f753696f612571ac356c,TCN,2024-06-26_13h53.25.481,LearnStrategy,2023.2.3,Linux x86_64,60.24096386,1,2,12,,,,,,,,2,08,,,,,,,,,,,2,3.596,1,,,,,,-0.183799977,-0.248606571,1,0,0,3.5955,Basalt_rect,11,0,11,0,1,
6543f753696f612571ac356c,TCN,2024-06-26_13h53.25.481,LearnStrategy,2023.2.3,Linux x86_64,60.24096386,1,2,13,,,,,,,,5,02,,,,,,,,,,,5,2.07,1,,,,,,-0.4378434,-0.408754182,1,0,0,2.0704,Obsidian_rect,12,0,12,0,1,
6543f753696f612571ac356c,TCN,2024-06-26_13h53.25.481,LearnStrategy,2023.2.3,Linux x86_64,60.24096386,1,2,14,,,,,,,,5,09,,,,,,,,,,,5,1.829,1,,,,,,-0.4378434,-0.408754182,1,0,0,1.8295,Obsidian_rect,13,0,13,0,1,
6543f753696f612571ac356c,TCN,2024-06-26_13h53.25.481,LearnStrategy,2023.2.3,Linux x86_64,60.24096386,1,2,15,,,,,,,,7,14,,,,,,,,,,,4,7.953,0,,,,,,0.374458764,-0.238256513,1,0,0,7.9526,Gabbro_rect,14,0,14,0,1,
6543f753696f612571ac356c,TCN,2024-06-26_13h53.25.481,LearnStrategy,2023.2.3,Linux x86_64,60.24096386,1,2,16,,,,,,,,4,08,,,,,,,,,,,1,8.277,0,,,,,,-0.398478522,-0.230841363,1,0,0,8.2774,Andesite_rect,15,0,15,0,1,
6543f753696f612571ac356c,TCN,2024-06-26_13h53.25.481,LearnStrategy,2023.2.3,Linux x86_64,60.24096386,2,1,1,-0.023825216,0.000645127,1,0,0,4.0139,rock_grid_rect_2,2,02,-1,-1,4.014,-0.173145923,-0.264420022,1,0,0,10.7083,Basalt_rect,2,10.708,1,0,0,0,0,1,,,,,,,,,,,,,
6543f753696f612571ac356c,TCN,2024-06-26_13h53.25.481,LearnStrategy,2023.2.3,Linux x86_64,60.24096386,2,1,2,0.009431237,0.006898931,1,0,0,2.536,rock_grid_rect_2,5,12,-1,-1,2.536,-0.391077077,-0.393645184,1,0,0,3.589,Obsidian_rect,5,3.589,1,1,0,1,0,1,,,,,,,,,,,,,
6543f753696f612571ac356c,TCN,2024-06-26_13h53.25.481,LearnStrategy,2023.2.3,Linux x86_64,60.24096386,2,1,3,-0.01465254,0.008616989,1,0,0,2.414,rock_grid_rect_2,5,05,-1,-1,2.414,0.144819147,-0.401745083,1,0,0,4.7348,Peridotite_rect,7,4.735,0,2,0,2,0,1,,,,,,,,,,,,,
6543f753696f612571ac356c,TCN,2024-06-26_13h53.25.481,LearnStrategy,2023.2.3,Linux x86_64,60.24096386,2,1,4,0.021993789,-0.001064417,1,0,0,1.6862,rock_grid_rect_2,4,16,-1,-1,1.686,0.369562153,-0.234648664,1,0,0,8.6371,Gabbro_rect,4,8.637,1,3,0,3,0,1,,,,,,,,,,,,,
6543f753696f612571ac356c,TCN,2024-06-26_13h53.25.481,LearnStrategy,2023.2.3,Linux x86_64,60.24096386,2,1,5,0.048179673,-0.005683231,1,0,0,1.7433,rock_grid_rect_2,4,15,-1,-1,1.743,-0.348974721,-0.395147817,1,0,0,1.9273,Obsidian_rect,5,1.927,0,4,0,4,0,1,,,,,,,,,,,,,
6543f753696f612571ac356c,TCN,2024-06-26_13h53.25.481,LearnStrategy,2023.2.3,Linux x86_64,60.24096386,2,1,6,0.01559125,-0.004646752,1,0,0,2.547,rock_grid_rect_2,8,04,-1,-1,2.547,-0.146639573,-0.24838406,1,0,0,2.9716,Basalt_rect,2,2.972,0,5,0,5,0,1,,,,,,,,,,,,,
6543f753696f612571ac356c,TCN,2024-06-26_13h53.25.481,LearnStrategy,2023.2.3,Linux x86_64,60.24096386,2,1,7,-0.013413004,0.000116818,1,0,0,2.1208,rock_grid_rect_2,1,07,-1,-1,2.121,-0.385581613,-0.248015798,1,0,0,4.1964,Andesite_rect,1,4.196,1,6,0,6,0,1,,,,,,,,,,,,,
6543f753696f612571ac356c,TCN,2024-06-26_13h53.25.481,LearnStrategy,2023.2.3,Linux x86_64,60.24096386,2,1,8,-0.051199049,-0.012723934,1,0,0,2.1808,rock_grid_rect_2,8,13,-1,-1,2.181,0.420442228,-0.40029988,1,0,0,2.1683,Pumice_rect,8,2.168,1,7,0,7,0,1,,,,,,,,,,,,,
6543f753696f612571ac356c,TCN,2024-06-26_13h53.25.481,LearnStrategy,2023.2.3,Linux x86_64,60.24096386,2,1,9,0.011644414,-0.002506326,1,0,0,1.5972,rock_grid_rect_2,6,11,-1,-1,1.597,0.073876468,-0.402659927,1,0,0,2.4387,Peridotite_rect,7,2.439,0,8,0,8,0,1,,,,,,,,,,,,,
6543f753696f612571ac356c,TCN,2024-06-26_13h53.25.481,LearnStrategy,2023.2.3,Linux x86_64,60.24096386,2,1,10,-0.06186373,-0.003136815,1,0,0,2.6207,rock_grid_rect_2,1,01,-1,-1,2.621,-0.413161455,-0.263028209,1,0,0,5.1047,Andesite_rect,1,5.105,1,9,0,9,0,1,,,,,,,,,,,,,
6543f753696f612571ac356c,TCN,2024-06-26_13h53.25.481,LearnStrategy,2023.2.3,Linux x86_64,60.24096386,2,1,11,0.019485256,-0.013359085,1,0,0,1.9458,rock_grid_rect_2,3,11,-1,-1,1.946,0.100926852,-0.253126529,1,0,0,8.8356,Diorite_rect,3,8.836,1,10,0,10,0,1,,,,,,,,,,,,,
6543f753696f612571ac356c,TCN,2024-06-26_13h53.25.481,LearnStrategy,2023.2.3,Linux x86_64,60.24096386,2,1,12,-0.009492396,-0.001973014,1,0,0,2.4456,rock_grid_rect_2,3,13,-1,-1,2.446,0.102629061,-0.251752492,1,0,0,1.6872,Diorite_rect,3,1.687,1,11,0,11,0,1,,,,,,,,,,,,,
6543f753696f612571ac356c,TCN,2024-06-26_13h53.25.481,LearnStrategy,2023.2.3,Linux x86_64,60.24096386,2,1,13,-0.051488872,0.002150029,1,0,0,1.8803,rock_grid_rect_2,2,10,-1,-1,1.88,-0.398437251,-0.405179709,1,0,0,3.1296,Obsidian_rect,5,3.13,0,12,0,12,0,1,,,,,,,,,,,,,
6543f753696f612571ac356c,TCN,2024-06-26_13h53.25.481,LearnStrategy,2023.2.3,Linux x86_64,60.24096386,2,1,14,-0.059522205,-0.000421341,1,0,0,1.7141,rock_grid_rect_2,7,07,-1,-1,1.714,0.097777823,-0.397328177,1,0,0,3.967,Peridotite_rect,7,3.967,1,13,0,13,0,1,,,,,,,,,,,,,
6543f753696f612571ac356c,TCN,2024-06-26_13h53.25.481,LearnStrategy,2023.2.3,Linux x86_64,60.24096386,2,1,15,0.002799972,-0.005919633,1,0,0,2.2462,rock_grid_rect_2,7,10,-1,-1,2.246,0.155119544,-0.410584863,1,0,0,1.8048,Peridotite_rect,7,1.805,1,14,0,14,0,1,,,,,,,,,,,,,
6543f753696f612571ac356c,TCN,2024-06-26_13h53.25.481,LearnStrategy,2023.2.3,Linux x86_64,60.24096386,2,1,16,-0.018766259,-0.011652339,1,0,0,1.3308,rock_grid_rect_2,6,16,-1,-1,1.331,-0.093224302,-0.395301772,1,0,0,2.9071,Pegmatite_rect,6,2.907,1,15,0,15,0,1,,,,,,,,,,,,,
6543f753696f612571ac356c,TCN,2024-06-26_13h53.25.481,LearnStrategy,2023.2.3,Linux x86_64,60.24096386,2,2,1,,,,,,,,1,02,,,,,,,,,,,2,3.821,0,,,,,,-0.204636459,-0.256256787,1,0,0,3.8209,Basalt_rect,0,0,0,0,1,
6543f753696f612571ac356c,TCN,2024-06-26_13h53.25.481,LearnStrategy,2023.2.3,Linux x86_64,60.24096386,2,2,2,,,,,,,,2,11,,,,,,,,,,,1,4.587,0,,,,,,-0.3303273,-0.256424851,1,0,0,4.5871,Andesite_rect,1,0,1,0,1,
6543f753696f612571ac356c,TCN,2024-06-26_13h53.25.481,LearnStrategy,2023.2.3,Linux x86_64,60.24096386,2,2,3,,,,,,,,1,09,,,,,,,,,,,1,1.219,1,,,,,,-0.330473921,-0.261121699,1,0,0,1.2185,Andesite_rect,2,0,2,0,1,
6543f753696f612571ac356c,TCN,2024-06-26_13h53.25.481,LearnStrategy,2023.2.3,Linux x86_64,60.24096386,2,2,4,,,,,,,,7,08,,,,,,,,,,,4,10.481,0,,,,,,0.371231732,-0.238141155,1,0,0,10.4812,Gabbro_rect,3,0,3,0,1,
6543f753696f612571ac356c,TCN,2024-06-26_13h53.25.481,LearnStrategy,2023.2.3,Linux x86_64,60.24096386,2,2,5,,,,,,,,7,13,,,,,,,,,,,6,3.811,0,,,,,,-0.060089546,-0.415155415,1,0,0,3.8112,Pegmatite_rect,4,0,4,0,1,
6543f753696f612571ac356c,TCN,2024-06-26_13h53.25.481,LearnStrategy,2023.2.3,Linux x86_64,60.24096386,2,2,6,,,,,,,,4,12,,,,,,,,,,,1,2.624,0,,,,,,-0.325938549,-0.240105219,1,0,0,2.624,Andesite_rect,5,0,5,0,1,
6543f753696f612571ac356c,TCN,2024-06-26_13h53.25.481,LearnStrategy,2023.2.3,Linux x86_64,60.24096386,2,2,7,,,,,,,,5,07,,,,,,,,,,,5,1.604,1,,,,,,-0.355066987,-0.393646116,1,0,0,1.6036,Obsidian_rect,6,0,6,0,1,
6543f753696f612571ac356c,TCN,2024-06-26_13h53.25.481,LearnStrategy,2023.2.3,Linux x86_64,60.24096386,2,2,8,,,,,,,,4,01,,,,,,,,,,,1,2.281,0,,,,,,-0.334536178,-0.237415508,1,0,0,2.281,Andesite_rect,7,0,7,0,1,
6543f753696f612571ac356c,TCN,2024-06-26_13h53.25.481,LearnStrategy,2023.2.3,Linux x86_64,60.24096386,2,2,9,,,,,,,,6,03,,,,,,,,,,,6,2.343,1,,,,,,-0.188904679,-0.395409609,1,0,0,2.3434,Pegmatite_rect,8,0,8,0,1,
6543f753696f612571ac356c,TCN,2024-06-26_13h53.25.481,LearnStrategy,2023.2.3,Linux x86_64,60.24096386,2,2,10,,,,,,,,2,04,,,,,,,,,,,2,4.632,1,,,,,,-0.170592019,-0.235586318,1,0,0,4.6318,Basalt_rect,9,0,9,0,1,
6543f753696f612571ac356c,TCN,2024-06-26_13h53.25.481,LearnStrategy,2023.2.3,Linux x86_64,60.24096386,2,2,11,,,,,,,,3,12,,,,,,,,,,,3,5.305,1,,,,,,0.14499641,-0.245820708,1,0,0,5.3051,Diorite_rect,10,0,10,0,1,
6543f753696f612571ac356c,TCN,2024-06-26_13h53.25.481,LearnStrategy,2023.2.3,Linux x86_64,60.24096386,2,2,12,,,,,,,,6,05,,,,,,,,,,,6,3.427,1,,,,,,-0.158001995,-0.41019752,1,0,0,3.4266,Pegmatite_rect,11,0,11,0,1,
6543f753696f612571ac356c,TCN,2024-06-26_13h53.25.481,LearnStrategy,2023.2.3,Linux x86_64,60.24096386,2,2,13,,,,,,,,3,15,,,,,,,,,,,4,2.782,0,,,,,,0.342270612,-0.252354515,1,0,0,2.782,Gabbro_rect,12,0,12,0,1,
6543f753696f612571ac356c,TCN,2024-06-26_13h53.25.481,LearnStrategy,2023.2.3,Linux x86_64,60.24096386,2,2,14,,,,,,,,8,10,,,,,,,,,,,1,2.289,0,,,,,,-0.325396256,-0.242501875,1,0,0,2.2889,Andesite_rect,13,0,13,0,1,
6543f753696f612571ac356c,TCN,2024-06-26_13h53.25.481,LearnStrategy,2023.2.3,Linux x86_64,60.24096386,2,2,15,,,,,,,,5,11,,,,,,,,,,,5,2.862,1,,,,,,-0.35878404,-0.414556313,1,0,0,2.8617,Obsidian_rect,14,0,14,0,1,
6543f753696f612571ac356c,TCN,2024-06-26_13h53.25.481,LearnStrategy,2023.2.3,Linux x86_64,60.24096386,2,2,16,,,,,,,,8,06,,,,,,,,,,,8,1.919,1,,,,,,0.461009474,-0.388793883,1,0,0,1.9194,Pumice_rect,15,0,15,0,1,
6543f753696f612571ac356c,TCN,2024-06-26_13h53.25.481,LearnStrategy,2023.2.3,Linux x86_64,60.24096386,3,1,1,-0.032513279,-0.013435473,1,0,0,1.8814,rock_grid_rect_2,8,02,-1,-1,1.881,0.393559411,-0.391735318,1,0,0,3.1469,Pumice_rect,8,3.147,1,0,0,0,0,1,,,,,,,,,,,,,
6543f753696f612571ac356c,TCN,2024-06-26_13h53.25.481,LearnStrategy,2023.2.3,Linux x86_64,60.24096386,3,1,2,-0.040387995,0.002030662,1,0,0,2.3644,rock_grid_rect_2,3,07,-1,-1,2.364,0.133530502,-0.253813765,1,0,0,2.8141,Diorite_rect,3,2.814,1,1,0,1,0,1,,,,,,,,,,,,,
6543f753696f612571ac356c,TCN,2024-06-26_13h53.25.481,LearnStrategy,2023.2.3,Linux x86_64,60.24096386,3,1,3,0.010881723,0.000983586,1,0,0,1.9869,rock_grid_rect_2,7,05,-1,-1,1.987,-0.349906533,-0.253902956,1,0,0,3.1131,Andesite_rect,1,3.113,0,2,0,2,0,1,,,,,,,,,,,,,
6543f753696f612571ac356c,TCN,2024-06-26_13h53.25.481,LearnStrategy,2023.2.3,Linux x86_64,60.24096386,3,1,4,-0.015227277,-0.016003238,1,0,0,1.4536,rock_grid_rect_2,6,12,-1,-1,1.454,-0.392137485,-0.393350201,1,0,0,2.6631,Obsidian_rect,5,2.663,0,3,0,3,0,1,,,,,,,,,,,,,
6543f753696f612571ac356c,TCN,2024-06-26_13h53.25.481,LearnStrategy,2023.2.3,Linux x86_64,60.24096386,3,1,5,-0.03576915,0.001226546,1,0,0,1.787,rock_grid_rect_2,2,06,-1,-1,1.787,0.317293559,-0.253154374,1,0,0,3.2781,Gabbro_rect,4,3.278,0,4,0,4,0,1,,,,,,,,,,,,,
6543f753696f612571ac356c,TCN,2024-06-26_13h53.25.481,LearnStrategy,2023.2.3,Linux x86_64,60.24096386,3,1,6,-0.023488715,-0.000918262,1,0,0,1.7641,rock_grid_rect_2,4,09,-1,-1,1.764,0.3338183,-0.256737548,1,0,0,5.8475,Gabbro_rect,4,5.848,1,5,0,5,0,1,,,,,,,,,,,,,
6543f753696f612571ac356c,TCN,2024-06-26_13h53.25.481,LearnStrategy,2023.2.3,Linux x86_64,60.24096386,3,1,7,-0.100173235,-0.013446536,1,0,0,2.2381,rock_grid_rect_2,1,14,-1,-1,2.238,0.109266852,-0.401243501,1,0,0,5.7114,Peridotite_rect,7,5.711,0,6,0,6,0,1,,,,,,,,,,,,,
6543f753696f612571ac356c,TCN,2024-06-26_13h53.25.481,LearnStrategy,2023.2.3,Linux x86_64,60.24096386,3,1,8,0.022380821,-0.01824572,1,0,0,1.9466,rock_grid_rect_2,5,08,-1,-1,1.947,-0.328301269,-0.387990792,1,0,0,1.8982,Obsidian_rect,5,1.898,1,7,0,7,0,1,,,,,,,,,,,,,
6543f753696f612571ac356c,TCN,2024-06-26_13h53.25.481,LearnStrategy,2023.2.3,Linux x86_64,60.24096386,3,1,9,-0.001483987,-0.004748436,1,0,0,2.4473,rock_grid_rect_2,8,09,-1,-1,2.447,0.329998817,-0.382476123,1,0,0,2.8817,Pumice_rect,8,2.882,1,8,0,8,0,1,,,,,,,,,,,,,
6543f753696f612571ac356c,TCN,2024-06-26_13h53.25.481,LearnStrategy,2023.2.3,Linux x86_64,60.24096386,3,1,10,-0.018247896,0.002317751,1,0,0,1.6798,rock_grid_rect_2,3,08,-1,-1,1.68,0.430036929,-0.248175596,1,0,0,6.5163,Gabbro_rect,4,6.516,0,9,0,9,0,1,,,,,,,,,,,,,
6543f753696f612571ac356c,TCN,2024-06-26_13h53.25.481,LearnStrategy,2023.2.3,Linux x86_64,60.24096386,3,1,11,-0.036948645,-0.006685401,1,0,0,2.603,rock_grid_rect_2,4,03,-1,-1,2.603,-0.134666054,-0.256569049,1,0,0,3.0699,Basalt_rect,2,3.07,0,10,0,10,0,1,,,,,,,,,,,,,
6543f753696f612571ac356c,TCN,2024-06-26_13h53.25.481,LearnStrategy,2023.2.3,Linux x86_64,60.24096386,3,1,12,0.008832073,0.004920074,1,0,0,1.6809,rock_grid_rect_2,7,12,-1,-1,1.681,0.324815552,-0.255443192,1,0,0,4.8681,Gabbro_rect,4,4.868,0,11,0,11,0,1,,,,,,,,,,,,,
6543f753696f612571ac356c,TCN,2024-06-26_13h53.25.481,LearnStrategy,2023.2.3,Linux x86_64,60.24096386,3,1,13,0.003083829,0.004229326,1,0,0,2.2131,rock_grid_rect_2,2,01,-1,-1,2.213,-0.431018651,-0.254316466,1,0,0,1.9575,Andesite_rect,1,1.957,0,12,0,12,0,1,,,,,,,,,,,,,
6543f753696f612571ac356c,TCN,2024-06-26_13h53.25.481,LearnStrategy,2023.2.3,Linux x86_64,60.24096386,3,1,14,0.010745357,0.004846546,1,0,0,1.2143,rock_grid_rect_2,6,06,-1,-1,1.214,-0.078720683,-0.40234922,1,0,0,2.3492,Pegmatite_rect,6,2.349,1,13,0,13,0,1,,,,,,,,,,,,,
6543f753696f612571ac356c,TCN,2024-06-26_13h53.25.481,LearnStrategy,2023.2.3,Linux x86_64,60.24096386,3,1,15,0.05203937,-0.001405891,1,0,0,2.1309,rock_grid_rect_2,5,06,-1,-1,2.131,-0.410918506,-0.420430418,1,0,0,1.7021,Obsidian_rect,5,1.702,1,14,0,14,0,1,,,,,,,,,,,,,
6543f753696f612571ac356c,TCN,2024-06-26_13h53.25.481,LearnStrategy,2023.2.3,Linux x86_64,60.24096386,3,1,16,0.023362294,-0.000236962,1,0,0,1.1473,rock_grid_rect_2,1,16,-1,-1,1.147,-0.34363688,-0.243687834,1,0,0,1.862,Andesite_rect,1,1.862,1,15,0,15,0,1,,,,,,,,,,,,,
6543f753696f612571ac356c,TCN,2024-06-26_13h53.25.481,LearnStrategy,2023.2.3,Linux x86_64,60.24096386,3,2,1,,,,,,,,8,08,,,,,,,,,,,8,7.467,1,,,,,,0.330590646,-0.405506825,1,0,0,7.4667,Pumice_rect,0,0,0,0,1,
6543f753696f612571ac356c,TCN,2024-06-26_13h53.25.481,LearnStrategy,2023.2.3,Linux x86_64,60.24096386,3,2,2,,,,,,,,5,04,,,,,,,,,,,5,2.195,1,,,,,,-0.383598001,-0.416596826,1,0,0,2.1951,Obsidian_rect,1,0,1,0,1,
6543f753696f612571ac356c,TCN,2024-06-26_13h53.25.481,LearnStrategy,2023.2.3,Linux x86_64,60.24096386,3,2,3,,,,,,,,8,05,,,,,,,,,,,8,4.283,1,,,,,,0.386427124,-0.398818068,1,0,0,4.2834,Pumice_rect,2,0,2,0,1,
6543f753696f612571ac356c,TCN,2024-06-26_13h53.25.481,LearnStrategy,2023.2.3,Linux x86_64,60.24096386,3,2,4,,,,,,,,6,08,,,,,,,,,,,3,2.927,0,,,,,,0.141697466,-0.24694731,1,0,0,2.927,Diorite_rect,3,0,3,0,1,
6543f753696f612571ac356c,TCN,2024-06-26_13h53.25.481,LearnStrategy,2023.2.3,Linux x86_64,60.24096386,3,2,5,,,,,,,,4,05,,,,,,,,,,,7,7.238,0,,,,,,0.109673028,-0.408077947,1,0,0,7.2381,Peridotite_rect,4,0,4,0,1,
6543f753696f612571ac356c,TCN,2024-06-26_13h53.25.481,LearnStrategy,2023.2.3,Linux x86_64,60.24096386,3,2,6,,,,,,,,3,10,,,,,,,,,,,1,2.507,0,,,,,,-0.341615075,-0.262033995,1,0,0,2.5065,Andesite_rect,5,0,5,0,1,
6543f753696f612571ac356c,TCN,2024-06-26_13h53.25.481,LearnStrategy,2023.2.3,Linux x86_64,60.24096386,3,2,7,,,,,,,,1,03,,,,,,,,,,,1,1.848,1,,,,,,-0.340440863,-0.262914716,1,0,0,1.848,Andesite_rect,6,0,6,0,1,
6543f753696f612571ac356c,TCN,2024-06-26_13h53.25.481,LearnStrategy,2023.2.3,Linux x86_64,60.24096386,3,2,8,,,,,,,,5,16,,,,,,,,,,,5,1.488,1,,,,,,-0.338310723,-0.402423556,1,0,0,1.4881,Obsidian_rect,7,0,7,0,1,
6543f753696f612571ac356c,TCN,2024-06-26_13h53.25.481,LearnStrategy,2023.2.3,Linux x86_64,60.24096386,3,2,9,,,,,,,,7,15,,,,,,,,,,,6,1.731,0,,,,,,-0.086342433,-0.392171141,1,0,0,1.7313,Pegmatite_rect,8,0,8,0,1,
6543f753696f612571ac356c,TCN,2024-06-26_13h53.25.481,LearnStrategy,2023.2.3,Linux x86_64,60.24096386,3,2,10,,,,,,,,1,11,,,,,,,,,,,4,2.693,0,,,,,,0.391964169,-0.257122778,1,0,0,2.6934,Gabbro_rect,9,0,9,0,1,
6543f753696f612571ac356c,TCN,2024-06-26_13h53.25.481,LearnStrategy,2023.2.3,Linux x86_64,60.24096386,3,2,11,,,,,,,,7,16,,,,,,,,,,,2,3.811,0,,,,,,-0.155641327,-0.252924342,1,0,0,3.8107,Basalt_rect,10,0,10,0,1,
6543f753696f612571ac356c,TCN,2024-06-26_13h53.25.481,LearnStrategy,2023.2.3,Linux x86_64,60.24096386,3,2,12,,,,,,,,2,16,,,,,,,,,,,8,3.318,0,,,,,,0.341174963,-0.415691368,1,0,0,3.3177,Pumice_rect,11,0,11,0,1,
6543f753696f612571ac356c,TCN,2024-06-26_13h53.25.481,LearnStrategy,2023.2.3,Linux x86_64,60.24096386,3,2,13,,,,,,,,2,12,,,,,,,,,,,6,5.72,0,,,,,,-0.081324808,-0.401151762,1,0,0,5.7195,Pegmatite_rect,12,0,12,0,1,
6543f753696f612571ac356c,TCN,2024-06-26_13h53.25.481,LearnStrategy,2023.2.3,Linux x86_64,60.24096386,3,2,14,,,,,,,,6,13,,,,,,,,,,,6,1.019,1,,,,,,-0.081324808,-0.401151762,1,0,0,1.0186,Pegmatite_rect,13,0,13,0,1,
6543f753696f612571ac356c,TCN,2024-06-26_13h53.25.481,LearnStrategy,2023.2.3,Linux x86_64,60.24096386,3,2,15,,,,,,,,4,11,,,,,,,,,,,2,3.497,0,,,,,,-0.089547897,-0.253522263,1,0,0,3.4971,Basalt_rect,14,0,14,0,1,
6543f753696f612571ac356c,TCN,2024-06-26_13h53.25.481,LearnStrategy,2023.2.3,Linux x86_64,60.24096386,3,2,16,,,,,,,,3,02,,,,,,,,,,,3,1.455,1,,,,,,0.161679767,-0.260552804,1,0,0,1.4548,Diorite_rect,15,0,15,0,1,
6543f753696f612571ac356c,TCN,2024-06-26_13h53.25.481,LearnStrategy,2023.2.3,Linux x86_64,60.24096386,4,1,1,-0.012576971,-0.003854911,1,0,0,2.9782,rock_grid_rect_2,6,10,-1,-1,2.978,-0.08569454,-0.399376086,1,0,0,2.5407,Pegmatite_rect,6,2.541,1,0,0,0,0,1,,,,,,,,,,,,,
6543f753696f612571ac356c,TCN,2024-06-26_13h53.25.481,LearnStrategy,2023.2.3,Linux x86_64,60.24096386,4,1,2,-0.017759179,-0.003836824,1,0,0,2.3641,rock_grid_rect_2,4,09,-1,-1,2.364,0.069689407,-0.26453078,1,0,0,6.9675,Diorite_rect,3,6.968,0,1,0,1,0,1,,,,,,,,,,,,,
6543f753696f612571ac356c,TCN,2024-06-26_13h53.25.481,LearnStrategy,2023.2.3,Linux x86_64,60.24096386,4,1,3,0.026762859,-0.00203579,1,0,0,2.3798,rock_grid_rect_2,5,08,-1,-1,2.38,-0.400694993,-0.386590091,1,0,0,1.5035,Obsidian_rect,5,1.504,1,2,0,2,0,1,,,,,,,,,,,,,
6543f753696f612571ac356c,TCN,2024-06-26_13h53.25.481,LearnStrategy,2023.2.3,Linux x86_64,60.24096386,4,1,4,-0.005327524,-0.010234141,1,0,0,2.0803,rock_grid_rect_2,3,09,-1,-1,2.08,0.135857732,-0.232474768,1,0,0,1.7222,Diorite_rect,3,1.722,1,3,0,3,0,1,,,,,,,,,,,,,
6543f753696f612571ac356c,TCN,2024-06-26_13h53.25.481,LearnStrategy,2023.2.3,Linux x86_64,60.24096386,4,1,5,0.045610541,0.000726113,1,0,0,1.4803,rock_grid_rect_2,2,14,-1,-1,1.48,0.354189374,-0.397735347,1,0,0,3.6769,Pumice_rect,8,3.677,0,4,0,4,0,1,,,,,,,,,,,,,
6543f753696f612571ac356c,TCN,2024-06-26_13h53.25.481,LearnStrategy,2023.2.3,Linux x86_64,60.24096386,4,1,6,0.00881641,-0.003086129,1,0,0,1.8458,rock_grid_rect_2,5,10,-1,-1,1.846,-0.34100982,-0.41866823,1,0,0,2.1429,Obsidian_rect,5,2.143,1,5,0,5,0,1,,,,,,,,,,,,,
6543f753696f612571ac356c,TCN,2024-06-26_13h53.25.481,LearnStrategy,2023.2.3,Linux x86_64,60.24096386,4,1,7,-0.010669405,0.001697548,1,0,0,1.714,rock_grid_rect_2,7,06,-1,-1,1.714,0.128016889,-0.232331192,1,0,0,2.9911,Diorite_rect,3,2.991,0,6,0,6,0,1,,,,,,,,,,,,,
6543f753696f612571ac356c,TCN,2024-06-26_13h53.25.481,LearnStrategy,2023.2.3,Linux x86_64,60.24096386,4,1,8,-0.069945978,0.002490321,1,0,0,1.6977,rock_grid_rect_2,8,03,-1,-1,1.698,0.366192664,-0.40570174,1,0,0,2.4137,Pumice_rect,8,2.414,1,7,0,7,0,1,,,,,,,,,,,,,
6543f753696f612571ac356c,TCN,2024-06-26_13h53.25.481,LearnStrategy,2023.2.3,Linux x86_64,60.24096386,4,1,9,-0.004622823,0.002700588,1,0,0,2.1304,rock_grid_rect_2,1,01,-1,-1,2.13,0.132444238,-0.243878398,1,0,0,5.4011,Diorite_rect,3,5.401,0,8,0,8,0,1,,,,,,,,,,,,,
6543f753696f612571ac356c,TCN,2024-06-26_13h53.25.481,LearnStrategy,2023.2.3,Linux x86_64,60.24096386,4,1,10,-0.000783637,-0.00452521,1,0,0,2.0617,rock_grid_rect_2,2,06,-1,-1,2.062,-0.08878185,-0.231195889,1,0,0,2.726,Basalt_rect,2,2.726,1,9,0,9,0,1,,,,,,,,,,,,,
6543f753696f612571ac356c,TCN,2024-06-26_13h53.25.481,LearnStrategy,2023.2.3,Linux x86_64,60.24096386,4,1,11,-0.003771314,-0.006127227,1,0,0,1.3123,rock_grid_rect_2,6,16,-1,-1,1.312,0.362122204,-0.240021871,1,0,0,3.6802,Gabbro_rect,4,3.68,0,10,0,10,0,1,,,,,,,,,,,,,
6543f753696f612571ac356c,TCN,2024-06-26_13h53.25.481,LearnStrategy,2023.2.3,Linux x86_64,60.24096386,4,1,12,-0.006049007,-0.006673933,1,0,0,2.3478,rock_grid_rect_2,8,09,-1,-1,2.348,0.319197086,-0.398150784,1,0,0,2.5711,Pumice_rect,8,2.571,1,11,0,11,0,1,,,,,,,,,,,,,
6543f753696f612571ac356c,TCN,2024-06-26_13h53.25.481,LearnStrategy,2023.2.3,Linux x86_64,60.24096386,4,1,13,-0.021793529,0.00332365,1,0,0,1.9808,rock_grid_rect_2,7,12,-1,-1,1.981,0.142605659,-0.238234386,1,0,0,2.3353,Diorite_rect,3,2.335,0,12,0,12,0,1,,,,,,,,,,,,,
6543f753696f612571ac356c,TCN,2024-06-26_13h53.25.481,LearnStrategy,2023.2.3,Linux x86_64,60.24096386,4,1,14,0.022034251,-0.000869067,1,0,0,1.631,rock_grid_rect_2,4,10,-1,-1,1.631,-0.134812986,-0.241377261,1,0,0,1.674,Basalt_rect,2,1.674,0,13,0,13,0,1,,,,,,,,,,,,,
6543f753696f612571ac356c,TCN,2024-06-26_13h53.25.481,LearnStrategy,2023.2.3,Linux x86_64,60.24096386,4,1,15,0.109790499,0.002429193,1,0,0,1.3963,rock_grid_rect_2,3,06,-1,-1,1.396,-0.312835383,-0.239018706,1,0,0,3.9409,Andesite_rect,1,3.941,0,14,0,14,0,1,,,,,,,,,,,,,
6543f753696f612571ac356c,TCN,2024-06-26_13h53.25.481,LearnStrategy,2023.2.3,Linux x86_64,60.24096386,4,1,16,-0.003936146,0.005969854,1,0,0,1.9975,rock_grid_rect_2,1,14,-1,-1,1.997,0.372011391,-0.239130708,1,0,0,9.07,Gabbro_rect,4,9.07,0,15,0,15,0,1,,,,,,,,,,,,,
6543f753696f612571ac356c,TCN,2024-06-26_13h53.25.481,LearnStrategy,2023.2.3,Linux x86_64,60.24096386,4,2,1,,,,,,,,6,09,,,,,,,,,,,6,3.274,1,,,,,,-0.138239594,-0.401979217,1,0,0,3.2738,Pegmatite_rect,0,0,0,0,1,
6543f753696f612571ac356c,TCN,2024-06-26_13h53.25.481,LearnStrategy,2023.2.3,Linux x86_64,60.24096386,4,2,2,,,,,,,,6,03,,,,,,,,,,,6,1.628,1,,,,,,-0.134276971,-0.401979217,1,0,0,1.6283,Pegmatite_rect,1,0,1,0,1,
6543f753696f612571ac356c,TCN,2024-06-26_13h53.25.481,LearnStrategy,2023.2.3,Linux x86_64,60.24096386,4,2,3,,,,,,,,4,05,,,,,,,,,,,7,4.794,0,,,,,,0.135678107,-0.40633888,1,0,0,4.7937,Peridotite_rect,2,0,2,0,1,
6543f753696f612571ac356c,TCN,2024-06-26_13h53.25.481,LearnStrategy,2023.2.3,Linux x86_64,60.24096386,4,2,4,,,,,,,,7,15,,,,,,,,,,,6,3.905,0,,,,,,-0.149535449,-0.394170757,1,0,0,3.9045,Pegmatite_rect,3,0,3,0,1,
6543f753696f612571ac356c,TCN,2024-06-26_13h53.25.481,LearnStrategy,2023.2.3,Linux x86_64,60.24096386,4,2,5,,,,,,,,7,14,,,,,,,,,,,2,7.177,0,,,,,,-0.132563822,-0.246989575,1,0,0,7.1774,Basalt_rect,4,0,4,0,1,
6543f753696f612571ac356c,TCN,2024-06-26_13h53.25.481,LearnStrategy,2023.2.3,Linux x86_64,60.24096386,4,2,6,,,,,,,,2,16,,,,,,,,,,,4,5.1,0,,,,,,0.314408126,-0.253317714,1,0,0,5.0999,Gabbro_rect,5,0,5,0,1,
6543f753696f612571ac356c,TCN,2024-06-26_13h53.25.481,LearnStrategy,2023.2.3,Linux x86_64,60.24096386,4,2,7,,,,,,,,1,10,,,,,,,,,,,1,4.012,1,,,,,,-0.334188178,-0.261037356,1,0,0,4.0118,Andesite_rect,6,0,6,0,1,
6543f753696f612571ac356c,TCN,2024-06-26_13h53.25.481,LearnStrategy,2023.2.3,Linux x86_64,60.24096386,4,2,8,,,,,,,,8,15,,,,,,,,,,,8,3.256,1,,,,,,0.371442558,-0.39030211,1,0,0,3.2557,Pumice_rect,7,0,7,0,1,
6543f753696f612571ac356c,TCN,2024-06-26_13h53.25.481,LearnStrategy,2023.2.3,Linux x86_64,60.24096386,4,2,9,,,,,,,,8,10,,,,,,,,,,,3,3.768,0,,,,,,0.160469257,-0.243668877,1,0,0,3.7678,Diorite_rect,8,0,8,0,1,
6543f753696f612571ac356c,TCN,2024-06-26_13h53.25.481,LearnStrategy,2023.2.3,Linux x86_64,60.24096386,4,2,10,,,,,,,,1,11,,,,,,,,,,,1,3.091,1,,,,,,-0.407399879,-0.253092344,1,0,0,3.0914,Andesite_rect,9,0,9,0,1,
6543f753696f612571ac356c,TCN,2024-06-26_13h53.25.481,LearnStrategy,2023.2.3,Linux x86_64,60.24096386,4,2,11,,,,,,,,5,16,,,,,,,,,,,5,1.407,1,,,,,,-0.387039091,-0.417806901,1,0,0,1.4074,Obsidian_rect,10,0,10,0,1,
6543f753696f612571ac356c,TCN,2024-06-26_13h53.25.481,LearnStrategy,2023.2.3,Linux x86_64,60.24096386,4,2,12,,,,,,,,3,10,,,,,,,,,,,4,5.323,0,,,,,,0.33215792,-0.269867316,1,0,0,5.3226,Gabbro_rect,11,0,11,0,1,
6543f753696f612571ac356c,TCN,2024-06-26_13h53.25.481,LearnStrategy,2023.2.3,Linux x86_64,60.24096386,4,2,13,,,,,,,,3,15,,,,,,,,,,,2,6.791,0,,,,,,-0.123234269,-0.248992236,1,0,0,6.7912,Basalt_rect,12,0,12,0,1,
6543f753696f612571ac356c,TCN,2024-06-26_13h53.25.481,LearnStrategy,2023.2.3,Linux x86_64,60.24096386,4,2,14,,,,,,,,5,04,,,,,,,,,,,5,1.323,1,,,,,,-0.404020725,-0.384624225,1,0,0,1.3233,Obsidian_rect,13,0,13,0,1,
6543f753696f612571ac356c,TCN,2024-06-26_13h53.25.481,LearnStrategy,2023.2.3,Linux x86_64,60.24096386,4,2,15,,,,,,,,2,04,,,,,,,,,,,2,1.833,1,,,,,,-0.10429143,-0.239906699,1,0,0,1.8332,Basalt_rect,14,0,14,0,1,
6543f753696f612571ac356c,TCN,2024-06-26_13h53.25.481,LearnStrategy,2023.2.3,Linux x86_64,60.24096386,4,2,16,,,,,,,,4,08,,,,,,,,,,,4,1.621,1,,,,,,0.410949956,-0.268306258,1,0,0,1.6215,Gabbro_rect,15,0,15,0,1,
6543f753696f612571ac356c,TCN,2024-06-26_13h53.25.481,LearnStrategy,2023.2.3,Linux x86_64,60.24096386,5,1,1,-0.153206944,0.001331524,1,0,0,2.0311,rock_grid_rect_2,4,13,-1,-1,2.031,0.318983152,-0.236472509,1,0,0,2.3725,Gabbro_rect,4,2.373,1,0,0,0,0,1,,,,,,,,,,,,,
6543f753696f612571ac356c,TCN,2024-06-26_13h53.25.481,LearnStrategy,2023.2.3,Linux x86_64,60.24096386,5,1,2,-0.007332547,0.000823788,1,0,0,1.5872,rock_grid_rect_2,7,05,-1,-1,1.587,-0.083120995,-0.258186667,1,0,0,4.1427,Basalt_rect,2,4.143,0,1,0,1,0,1,,,,,,,,,,,,,
6543f753696f612571ac356c,TCN,2024-06-26_13h53.25.481,LearnStrategy,2023.2.3,Linux x86_64,60.24096386,5,1,3,-0.000637389,0.003502281,1,0,0,2.503,rock_grid_rect_2,1,05,-1,-1,2.503,-0.150934285,-0.248248937,1,0,0,5.8051,Basalt_rect,2,5.805,0,2,0,2,0,1,,,,,,,,,,,,,
6543f753696f612571ac356c,TCN,2024-06-26_13h53.25.481,LearnStrategy,2023.2.3,Linux x86_64,60.24096386,5,1,4,-0.042308862,0.000401825,1,0,0,1.9457,rock_grid_rect_2,4,16,-1,-1,1.946,0.407198718,-0.260833243,1,0,0,2.5581,Gabbro_rect,4,2.558,1,3,0,3,0,1,,,,,,,,,,,,,
6543f753696f612571ac356c,TCN,2024-06-26_13h53.25.481,LearnStrategy,2023.2.3,Linux x86_64,60.24096386,5,1,5,-0.017035521,0.005983776,1,0,0,2.187,rock_grid_rect_2,6,06,-1,-1,2.187,-0.135760026,-0.408444282,1,0,0,5.6167,Pegmatite_rect,6,5.617,1,4,0,4,0,1,,,,,,,,,,,,,
6543f753696f612571ac356c,TCN,2024-06-26_13h53.25.481,LearnStrategy,2023.2.3,Linux x86_64,60.24096386,5,1,6,-0.00691046,-0.00824189,1,0,0,1.6464,rock_grid_rect_2,3,13,-1,-1,1.646,0.106264507,-0.246180393,1,0,0,3.1941,Diorite_rect,3,3.194,1,5,0,5,0,1,,,,,,,,,,,,,
6543f753696f612571ac356c,TCN,2024-06-26_13h53.25.481,LearnStrategy,2023.2.3,Linux x86_64,60.24096386,5,1,7,0.00318023,-0.003047997,1,0,0,1.2478,rock_grid_rect_2,6,11,-1,-1,1.248,-0.116173148,-0.408772766,1,0,0,2.7099,Pegmatite_rect,6,2.71,1,6,0,6,0,1,,,,,,,,,,,,,
6543f753696f612571ac356c,TCN,2024-06-26_13h53.25.481,LearnStrategy,2023.2.3,Linux x86_64,60.24096386,5,1,8,-0.000318104,-0.006529021,1,0,0,1.6141,rock_grid_rect_2,1,07,-1,-1,1.614,-0.368289365,-0.254636248,1,0,0,8.0672,Andesite_rect,1,8.067,1,7,0,7,0,1,,,,,,,,,,,,,
6543f753696f612571ac356c,TCN,2024-06-26_13h53.25.481,LearnStrategy,2023.2.3,Linux x86_64,60.24096386,5,1,9,-0.043334899,-0.007212093,1,0,0,1.8288,rock_grid_rect_2,8,14,-1,-1,1.829,0.329167073,-0.401762922,1,0,0,1.8798,Pumice_rect,8,1.88,1,8,0,8,0,1,,,,,,,,,,,,,
6543f753696f612571ac356c,TCN,2024-06-26_13h53.25.481,LearnStrategy,2023.2.3,Linux x86_64,60.24096386,5,1,10,-0.004142124,0.00026403,1,0,0,1.5972,rock_grid_rect_2,3,08,-1,-1,1.597,0.114875747,-0.239386533,1,0,0,1.832,Diorite_rect,3,1.832,1,9,0,9,0,1,,,,,,,,,,,,,
6543f753696f612571ac356c,TCN,2024-06-26_13h53.25.481,LearnStrategy,2023.2.3,Linux x86_64,60.24096386,5,1,11,0.006971309,0.003776846,1,0,0,2.1144,rock_grid_rect_2,2,01,-1,-1,2.114,-0.122268584,-0.235471271,1,0,0,2.541,Basalt_rect,2,2.541,1,10,0,10,0,1,,,,,,,,,,,,,
6543f753696f612571ac356c,TCN,2024-06-26_13h53.25.481,LearnStrategy,2023.2.3,Linux x86_64,60.24096386,5,1,12,-0.036774365,0.001195313,1,0,0,1.514,rock_grid_rect_2,7,04,-1,-1,1.514,-0.07645107,-0.406406441,1,0,0,2.6522,Pegmatite_rect,6,2.652,0,11,0,11,0,1,,,,,,,,,,,,,
6543f753696f612571ac356c,TCN,2024-06-26_13h53.25.481,LearnStrategy,2023.2.3,Linux x86_64,60.24096386,5,1,13,-0.021659898,0.001425221,1,0,0,1.6441,rock_grid_rect_2,5,05,-1,-1,1.644,-0.372631718,-0.404104633,1,0,0,3.7945,Obsidian_rect,5,3.794,1,12,0,12,0,1,,,,,,,,,,,,,
6543f753696f612571ac356c,TCN,2024-06-26_13h53.25.481,LearnStrategy,2023.2.3,Linux x86_64,60.24096386,5,1,14,-0.010221586,-0.001768528,1,0,0,3.9141,rock_grid_rect_2,5,14,-1,-1,3.914,0.333237036,-0.250428676,1,0,0,3.2904,Gabbro_rect,4,3.29,0,13,0,13,0,1,,,,,,,,,,,,,
6543f753696f612571ac356c,TCN,2024-06-26_13h53.25.481,LearnStrategy,2023.2.3,Linux x86_64,60.24096386,5,1,15,-0.005221924,-0.000442287,1,0,0,2.1709,rock_grid_rect_2,2,02,-1,-1,2.171,-0.142567621,-0.249720805,1,0,0,2.6063,Basalt_rect,2,2.606,1,14,0,14,0,1,,,,,,,,,,,,,
6543f753696f612571ac356c,TCN,2024-06-26_13h53.25.481,LearnStrategy,2023.2.3,Linux x86_64,60.24096386,5,1,16,-0.027518403,0.002778995,1,0,0,1.7311,rock_grid_rect_2,8,02,-1,-1,1.731,0.383386305,-0.411670506,1,0,0,2.4153,Pumice_rect,8,2.415,1,15,0,15,0,1,,,,,,,,,,,,,
6543f753696f612571ac356c,TCN,2024-06-26_13h53.25.481,LearnStrategy,2023.2.3,Linux x86_64,60.24096386,5,2,1,,,,,,,,2,08,,,,,,,,,,,4,9.339,0,,,,,,0.324615665,-0.242374708,1,0,0,9.3385,Gabbro_rect,0,0,0,0,1,
6543f753696f612571ac356c,TCN,2024-06-26_13h53.25.481,LearnStrategy,2023.2.3,Linux x86_64,60.24096386,5,2,2,,,,,,,,7,16,,,,,,,,,,,6,4.056,0,,,,,,-0.072562659,-0.420693889,1,0,0,4.0563,Pegmatite_rect,1,0,1,0,1,
6543f753696f612571ac356c,TCN,2024-06-26_13h53.25.481,LearnStrategy,2023.2.3,Linux x86_64,60.24096386,5,2,3,,,,,,,,4,11,,,,,,,,,,,2,3.57,0,,,,,,-0.102935107,-0.255775032,1,0,0,3.5703,Basalt_rect,2,0,2,0,1,
6543f753696f612571ac356c,TCN,2024-06-26_13h53.25.481,LearnStrategy,2023.2.3,Linux x86_64,60.24096386,5,2,4,,,,,,,,2,11,,,,,,,,,,,1,3.609,0,,,,,,-0.361613039,-0.253304849,1,0,0,3.6092,Andesite_rect,3,0,3,0,1,
6543f753696f612571ac356c,TCN,2024-06-26_13h53.25.481,LearnStrategy,2023.2.3,Linux x86_64,60.24096386,5,2,5,,,,,,,,7,02,,,,,,,,,,,6,3.294,0,,,,,,-0.137186707,-0.401336546,1,0,0,3.2941,Pegmatite_rect,4,0,4,0,1,
6543f753696f612571ac356c,TCN,2024-06-26_13h53.25.481,LearnStrategy,2023.2.3,Linux x86_64,60.24096386,5,2,6,,,,,,,,5,09,,,,,,,,,,,5,1.308,1,,,,,,-0.420219903,-0.39441409,1,0,0,1.3082,Obsidian_rect,5,0,5,0,1,
6543f753696f612571ac356c,TCN,2024-06-26_13h53.25.481,LearnStrategy,2023.2.3,Linux x86_64,60.24096386,5,2,7,,,,,,,,5,02,,,,,,,,,,,5,0.761,1,,,,,,-0.420219903,-0.39441409,1,0,0,0.7613,Obsidian_rect,6,0,6,0,1,
6543f753696f612571ac356c,TCN,2024-06-26_13h53.25.481,LearnStrategy,2023.2.3,Linux x86_64,60.24096386,5,2,8,,,,,,,,6,15,,,,,,,,,,,6,1.544,1,,,,,,-0.127411075,-0.395236697,1,0,0,1.5439,Pegmatite_rect,7,0,7,0,1,
6543f753696f612571ac356c,TCN,2024-06-26_13h53.25.481,LearnStrategy,2023.2.3,Linux x86_64,60.24096386,5,2,9,,,,,,,,1,03,,,,,,,,,,,1,4.859,1,,,,,,-0.374163936,-0.243612503,1,0,0,4.8591,Andesite_rect,8,0,8,0,1,
6543f753696f612571ac356c,TCN,2024-06-26_13h53.25.481,LearnStrategy,2023.2.3,Linux x86_64,60.24096386,5,2,10,,,,,,,,1,04,,,,,,,,,,,3,6.048,0,,,,,,0.143810016,-0.261909003,1,0,0,6.0485,Diorite_rect,9,0,9,0,1,
6543f753696f612571ac356c,TCN,2024-06-26_13h53.25.481,LearnStrategy,2023.2.3,Linux x86_64,60.24096386,5,2,11,,,,,,,,8,05,,,,,,,,,,,8,1.597,1,,,,,,0.362822803,-0.3914243,1,0,0,1.5974,Pumice_rect,10,0,10,0,1,
6543f753696f612571ac356c,TCN,2024-06-26_13h53.25.481,LearnStrategy,2023.2.3,Linux x86_64,60.24096386,5,2,12,,,,,,,,6,08,,,,,,,,,,,6,1.739,1,,,,,,-0.132825366,-0.40073589,1,0,0,1.739,Pegmatite_rect,11,0,11,0,1,
6543f753696f612571ac356c,TCN,2024-06-26_13h53.25.481,LearnStrategy,2023.2.3,Linux x86_64,60.24096386,5,2,13,,,,,,,,3,16,,,,,,,,,,,3,3.488,1,,,,,,0.091500463,-0.243307949,1,0,0,3.4883,Diorite_rect,12,0,12,0,1,
6543f753696f612571ac356c,TCN,2024-06-26_13h53.25.481,LearnStrategy,2023.2.3,Linux x86_64,60.24096386,5,2,14,,,,,,,,4,12,,,,,,,,,,,2,2.501,0,,,,,,-0.061377314,-0.256548849,1,0,0,2.5013,Basalt_rect,13,0,13,0,1,
6543f753696f612571ac356c,TCN,2024-06-26_13h53.25.481,LearnStrategy,2023.2.3,Linux x86_64,60.24096386,5,2,15,,,,,,,,3,12,,,,,,,,,,,7,4.343,0,,,,,,0.130217574,-0.397465102,1,0,0,4.3431,Peridotite_rect,14,0,14,0,1,
6543f753696f612571ac356c,TCN,2024-06-26_13h53.25.481,LearnStrategy,2023.2.3,Linux x86_64,60.24096386,5,2,16,,,,,,,,8,06,,,,,,,,,,,8,2.119,1,,,,,,0.408075461,-0.421311077,1,0,0,2.1189,Pumice_rect,15,0,15,0,1,
6543f753696f612571ac356c,TCN,2024-06-26_13h53.25.481,LearnStrategy,2023.2.3,Linux x86_64,60.24096386,6,1,1,0.000809928,0.007137167,1,0,0,1.4977,rock_grid_rect_2,2,09,-1,-1,1.498,-0.121279528,-0.256943588,1,0,0,2.0782,Basalt_rect,2,2.078,1,0,0,0,0,1,,,,,,,,,,,,,
6543f753696f612571ac356c,TCN,2024-06-26_13h53.25.481,LearnStrategy,2023.2.3,Linux x86_64,60.24096386,6,1,2,-0.055635658,0.003791421,1,0,0,1.3977,rock_grid_rect_2,7,07,-1,-1,1.398,0.098816664,-0.406475308,1,0,0,5.3165,Peridotite_rect,7,5.316,1,1,0,1,0,1,,,,,,,,,,,,,
6543f753696f612571ac356c,TCN,2024-06-26_13h53.25.481,LearnStrategy,2023.2.3,Linux x86_64,60.24096386,6,1,3,-0.012247245,-0.003984315,1,0,0,1.8129,rock_grid_rect_2,6,12,-1,-1,1.813,0.134177462,-0.237509298,1,0,0,10.4638,Diorite_rect,3,10.464,0,2,0,2,0,1,,,,,,,,,,,,,
6543f753696f612571ac356c,TCN,2024-06-26_13h53.25.481,LearnStrategy,2023.2.3,Linux x86_64,60.24096386,6,1,4,-0.002914957,-0.013754975,1,0,0,2.8629,rock_grid_rect_2,4,03,-1,-1,2.863,-0.319415122,-0.253862804,1,0,0,3.9823,Andesite_rect,1,3.982,0,3,0,3,0,1,,,,,,,,,,,,,
6543f753696f612571ac356c,TCN,2024-06-26_13h53.25.481,LearnStrategy,2023.2.3,Linux x86_64,60.24096386,6,1,5,0.021895523,-0.006200476,1,0,0,1.3138,rock_grid_rect_2,5,12,-1,-1,1.314,-0.329146873,-0.392554693,1,0,0,1.4321,Obsidian_rect,5,1.432,1,4,0,4,0,1,,,,,,,,,,,,,
6543f753696f612571ac356c,TCN,2024-06-26_13h53.25.481,LearnStrategy,2023.2.3,Linux x86_64,60.24096386,6,1,6,0.075880062,-0.004934556,1,0,0,1.6774,rock_grid_rect_2,3,11,-1,-1,1.677,0.13879842,-0.259743933,1,0,0,1.919,Diorite_rect,3,1.919,1,5,0,5,0,1,,,,,,,,,,,,,
6543f753696f612571ac356c,TCN,2024-06-26_13h53.25.481,LearnStrategy,2023.2.3,Linux x86_64,60.24096386,6,1,7,-0.000897068,-0.006033064,1,0,0,2.3145,rock_grid_rect_2,8,13,-1,-1,2.314,0.346074681,-0.400379686,1,0,0,2.2202,Pumice_rect,8,2.22,1,6,0,6,0,1,,,,,,,,,,,,,
6543f753696f612571ac356c,TCN,2024-06-26_13h53.25.481,LearnStrategy,2023.2.3,Linux x86_64,60.24096386,6,1,8,0.006673343,-0.002323718,1,0,0,1.6134,rock_grid_rect_2,6,07,-1,-1,1.613,-0.121808147,-0.405565374,1,0,0,2.3782,Pegmatite_rect,6,2.378,1,7,0,7,0,1,,,,,,,,,,,,,
6543f753696f612571ac356c,TCN,2024-06-26_13h53.25.481,LearnStrategy,2023.2.3,Linux x86_64,60.24096386,6,1,9,-0.018078713,0.000510843,1,0,0,1.6978,rock_grid_rect_2,1,06,-1,-1,1.698,-0.321884249,-0.2511606,1,0,0,2.1342,Andesite_rect,1,2.134,1,8,0,8,0,1,,,,,,,,,,,,,
6543f753696f612571ac356c,TCN,2024-06-26_13h53.25.481,LearnStrategy,2023.2.3,Linux x86_64,60.24096386,6,1,10,0.047576469,-0.009040817,1,0,0,1.7141,rock_grid_rect_2,5,06,-1,-1,1.714,-0.371460489,-0.414167105,1,0,0,1.8452,Obsidian_rect,5,1.845,1,9,0,9,0,1,,,,,,,,,,,,,
6543f753696f612571ac356c,TCN,2024-06-26_13h53.25.481,LearnStrategy,2023.2.3,Linux x86_64,60.24096386,6,1,11,-0.003513251,-0.006054228,1,0,0,2.0307,rock_grid_rect_2,2,10,-1,-1,2.031,0.384038548,-0.251731733,1,0,0,3.2347,Gabbro_rect,4,3.235,0,10,0,10,0,1,,,,,,,,,,,,,
6543f753696f612571ac356c,TCN,2024-06-26_13h53.25.481,LearnStrategy,2023.2.3,Linux x86_64,60.24096386,6,1,12,0.031398983,-0.002928755,1,0,0,1.7309,rock_grid_rect_2,3,07,-1,-1,1.731,0.092983953,-0.237731934,1,0,0,1.8362,Diorite_rect,3,1.836,1,11,0,11,0,1,,,,,,,,,,,,,
6543f753696f612571ac356c,TCN,2024-06-26_13h53.25.481,LearnStrategy,2023.2.3,Linux x86_64,60.24096386,6,1,13,-0.003549673,0.007820549,1,0,0,2.0461,rock_grid_rect_2,1,16,-1,-1,2.046,-0.36970057,-0.263933916,1,0,0,1.9566,Andesite_rect,1,1.957,1,12,0,12,0,1,,,,,,,,,,,,,
6543f753696f612571ac356c,TCN,2024-06-26_13h53.25.481,LearnStrategy,2023.2.3,Linux x86_64,60.24096386,6,1,14,0.002679145,-0.004216833,1,0,0,1.5303,rock_grid_rect_2,7,10,-1,-1,1.53,0.355868648,-0.23816726,1,0,0,4.3025,Gabbro_rect,4,4.303,0,13,0,13,0,1,,,,,,,,,,,,,
6543f753696f612571ac356c,TCN,2024-06-26_13h53.25.481,LearnStrategy,2023.2.3,Linux x86_64,60.24096386,6,1,15,0.010017783,-0.005277459,1,0,0,1.1627,rock_grid_rect_2,8,04,-1,-1,1.163,0.392947941,-0.395365356,1,0,0,2.0367,Pumice_rect,8,2.037,1,14,0,14,0,1,,,,,,,,,,,,,
6543f753696f612571ac356c,TCN,2024-06-26_13h53.25.481,LearnStrategy,2023.2.3,Linux x86_64,60.24096386,6,1,16,-0.050136279,0.003254784,1,0,0,1.3641,rock_grid_rect_2,4,15,-1,-1,1.364,-0.381700877,-0.414184384,1,0,0,1.9576,Obsidian_rect,5,1.958,0,15,0,15,0,1,,,,,,,,,,,,,
6543f753696f612571ac356c,TCN,2024-06-26_13h53.25.481,LearnStrategy,2023.2.3,Linux x86_64,60.24096386,6,2,1,,,,,,,,3,14,,,,,,,,,,,3,2.684,1,,,,,,0.160642667,-0.247555113,1,0,0,2.6844,Diorite_rect,0,0,0,0,1,
6543f753696f612571ac356c,TCN,2024-06-26_13h53.25.481,LearnStrategy,2023.2.3,Linux x86_64,60.24096386,6,2,2,,,,,,,,6,13,,,,,,,,,,,7,6.6,0,,,,,,0.079952077,-0.399626629,1,0,0,6.6001,Peridotite_rect,1,0,1,0,1,
6543f753696f612571ac356c,TCN,2024-06-26_13h53.25.481,LearnStrategy,2023.2.3,Linux x86_64,60.24096386,6,2,3,,,,,,,,5,11,,,,,,,,,,,5,1.514,1,,,,,,-0.32706857,-0.419830882,1,0,0,1.5142,Obsidian_rect,2,0,2,0,1,
6543f753696f612571ac356c,TCN,2024-06-26_13h53.25.481,LearnStrategy,2023.2.3,Linux x86_64,60.24096386,6,2,4,,,,,,,,8,16,,,,,,,,,,,8,2.249,1,,,,,,0.355058037,-0.404770177,1,0,0,2.2486,Pumice_rect,3,0,3,0,1,
6543f753696f612571ac356c,TCN,2024-06-26_13h53.25.481,LearnStrategy,2023.2.3,Linux x86_64,60.24096386,6,2,5,,,,,,,,6,05,,,,,,,,,,,6,3.615,1,,,,,,-0.15310526,-0.405395881,1,0,0,3.6151,Pegmatite_rect,4,0,4,0,1,
6543f753696f612571ac356c,TCN,2024-06-26_13h53.25.481,LearnStrategy,2023.2.3,Linux x86_64,60.24096386,6,2,6,,,,,,,,7,08,,,,,,,,,,,7,2.873,1,,,,,,0.120171572,-0.400002412,1,0,0,2.8728,Peridotite_rect,5,0,5,0,1,
6543f753696f612571ac356c,TCN,2024-06-26_13h53.25.481,LearnStrategy,2023.2.3,Linux x86_64,60.24096386,6,2,7,,,,,,,,2,05,,,,,,,,,,,2,2.712,1,,,,,,-0.156828467,-0.246755627,1,0,0,2.7121,Basalt_rect,6,0,6,0,1,
6543f753696f612571ac356c,TCN,2024-06-26_13h53.25.481,LearnStrategy,2023.2.3,Linux x86_64,60.24096386,6,2,8,,,,,,,,8,08,,,,,,,,,,,8,2.808,1,,,,,,0.346717477,-0.406242542,1,0,0,2.8082,Pumice_rect,7,0,7,0,1,
6543f753696f612571ac356c,TCN,2024-06-26_13h53.25.481,LearnStrategy,2023.2.3,Linux x86_64,60.24096386,6,2,9,,,,,,,,4,14,,,,,,,,,,,4,2.749,1,,,,,,0.380934208,-0.254406278,1,0,0,2.7488,Gabbro_rect,8,0,8,0,1,
6543f753696f612571ac356c,TCN,2024-06-26_13h53.25.481,LearnStrategy,2023.2.3,Linux x86_64,60.24096386,6,2,10,,,,,,,,5,07,,,,,,,,,,,5,2.773,1,,,,,,-0.378630784,-0.406570403,1,0,0,2.7731,Obsidian_rect,9,0,9,0,1,
6543f753696f612571ac356c,TCN,2024-06-26_13h53.25.481,LearnStrategy,2023.2.3,Linux x86_64,60.24096386,6,2,11,,,,,,,,4,01,,,,,,,,,,,1,3.367,0,,,,,,-0.410338547,-0.238379578,1,0,0,3.367,Andesite_rect,10,0,10,0,1,
6543f753696f612571ac356c,TCN,2024-06-26_13h53.25.481,LearnStrategy,2023.2.3,Linux x86_64,60.24096386,6,2,12,,,,,,,,2,12,,,,,,,,,,,8,10.476,0,,,,,,0.355777779,-0.38810298,1,0,0,10.4763,Pumice_rect,11,0,11,0,1,
6543f753696f612571ac356c,TCN,2024-06-26_13h53.25.481,LearnStrategy,2023.2.3,Linux x86_64,60.24096386,6,2,13,,,,,,,,3,02,,,,,,,,,,,4,3.679,0,,,,,,0.39783324,-0.238726024,1,0,0,3.6789,Gabbro_rect,12,0,12,0,1,
6543f753696f612571ac356c,TCN,2024-06-26_13h53.25.481,LearnStrategy,2023.2.3,Linux x86_64,60.24096386,6,2,14,,,,,,,,1,09,,,,,,,,,,,1,3.056,1,,,,,,-0.38705407,-0.255670614,1,0,0,3.056,Andesite_rect,13,0,13,0,1,
6543f753696f612571ac356c,TCN,2024-06-26_13h53.25.481,LearnStrategy,2023.2.3,Linux x86_64,60.24096386,6,2,15,,,,,,,,1,02,,,,,,,,,,,7,3.33,0,,,,,,0.111265412,-0.400678273,1,0,0,3.3301,Peridotite_rect,14,0,14,0,1,
6543f753696f612571ac356c,TCN,2024-06-26_13h53.25.481,LearnStrategy,2023.2.3,Linux x86_64,60.24096386,6,2,16,,,,,,,,7,13,,,,,,,,,,,6,2.453,0,,,,,,-0.118772985,-0.412731784,1,0,0,2.4529,Pegmatite_rect,15,0,15,0,1,
6543f753696f612571ac356c,TCN,2024-06-26_13h53.25.481,LearnStrategy,2023.2.3,Linux x86_64,60.24096386,7,1,1,-0.01373117,-0.008670193,1,0,0,1.8476,rock_grid_rect_2,5,10,-1,-1,1.848,-0.396262485,-0.385907517,1,0,0,1.5803,Obsidian_rect,5,1.58,1,0,0,0,0,1,,,,,,,,,,,,,
6543f753696f612571ac356c,TCN,2024-06-26_13h53.25.481,LearnStrategy,2023.2.3,Linux x86_64,60.24096386,7,1,2,-0.000947164,-0.004161081,1,0,0,2.1972,rock_grid_rect_2,4,13,-1,-1,2.197,0.359658671,-0.241001417,1,0,0,4.1456,Gabbro_rect,4,4.146,1,1,0,1,0,1,,,,,,,,,,,,,
6543f753696f612571ac356c,TCN,2024-06-26_13h53.25.481,LearnStrategy,2023.2.3,Linux x86_64,60.24096386,7,1,3,0.033378523,-0.004782714,1,0,0,1.2139,rock_grid_rect_2,3,07,-1,-1,1.214,0.129843407,-0.25242276,1,0,0,1.7941,Diorite_rect,3,1.794,1,2,0,2,0,1,,,,,,,,,,,,,
6543f753696f612571ac356c,TCN,2024-06-26_13h53.25.481,LearnStrategy,2023.2.3,Linux x86_64,60.24096386,7,1,4,-0.003031371,-0.000421,1,0,0,1.5313,rock_grid_rect_2,1,01,-1,-1,1.531,0.37687941,-0.258480344,1,0,0,5.2813,Gabbro_rect,4,5.281,0,3,0,3,0,1,,,,,,,,,,,,,
6543f753696f612571ac356c,TCN,2024-06-26_13h53.25.481,LearnStrategy,2023.2.3,Linux x86_64,60.24096386,7,1,5,-0.003078484,-0.005783951,1,0,0,1.5692,rock_grid_rect_2,1,16,-1,-1,1.569,0.081793076,-0.39086336,1,0,0,2.262,Peridotite_rect,7,2.262,0,4,0,4,0,1,,,,,,,,,,,,,
6543f753696f612571ac356c,TCN,2024-06-26_13h53.25.481,LearnStrategy,2023.2.3,Linux x86_64,60.24096386,7,1,6,-0.004373461,-0.001928636,1,0,0,1.3477,rock_grid_rect_2,8,14,-1,-1,1.348,0.375476348,-0.401665775,1,0,0,1.7676,Pumice_rect,8,1.768,1,5,0,5,0,1,,,,,,,,,,,,,
6543f753696f612571ac356c,TCN,2024-06-26_13h53.25.481,LearnStrategy,2023.2.3,Linux x86_64,60.24096386,7,1,7,0.03230873,-0.007954366,1,0,0,1.2645,rock_grid_rect_2,6,06,-1,-1,1.264,-0.086901632,-0.401544637,1,0,0,2.4061,Pegmatite_rect,6,2.406,1,6,0,6,0,1,,,,,,,,,,,,,
6543f753696f612571ac356c,TCN,2024-06-26_13h53.25.481,LearnStrategy,2023.2.3,Linux x86_64,60.24096386,7,1,8,-0.032426885,-0.009054646,1,0,0,1.013,rock_grid_rect_2,7,04,-1,-1,1.013,0.091553853,-0.394717587,1,0,0,2.004,Peridotite_rect,7,2.004,1,7,0,7,0,1,,,,,,,,,,,,,
6543f753696f612571ac356c,TCN,2024-06-26_13h53.25.481,LearnStrategy,2023.2.3,Linux x86_64,60.24096386,7,1,9,-0.007455239,-0.000862697,1,0,0,1.8487,rock_grid_rect_2,3,13,-1,-1,1.849,0.113046868,-0.248426449,1,0,0,2.394,Diorite_rect,3,2.394,1,8,0,8,0,1,,,,,,,,,,,,,
6543f753696f612571ac356c,TCN,2024-06-26_13h53.25.481,LearnStrategy,2023.2.3,Linux x86_64,60.24096386,7,1,10,-0.002559126,0.005204397,1,0,0,1.4806,rock_grid_rect_2,2,02,-1,-1,1.481,-0.186085625,-0.2528937,1,0,0,2.1201,Basalt_rect,2,2.12,1,9,0,9,0,1,,,,,,,,,,,,,
6543f753696f612571ac356c,TCN,2024-06-26_13h53.25.481,LearnStrategy,2023.2.3,Linux x86_64,60.24096386,7,1,11,-0.000271302,-0.001733411,1,0,0,1.6143,rock_grid_rect_2,4,03,-1,-1,1.614,0.129471105,-0.24757898,1,0,0,4.0745,Diorite_rect,3,4.074,0,10,0,10,0,1,,,,,,,,,,,,,
6543f753696f612571ac356c,TCN,2024-06-26_13h53.25.481,LearnStrategy,2023.2.3,Linux x86_64,60.24096386,7,1,12,-0.006218563,0.003006976,1,0,0,1.3463,rock_grid_rect_2,2,01,-1,-1,1.346,-0.137721666,-0.251354583,1,0,0,2.3847,Basalt_rect,2,2.385,1,11,0,11,0,1,,,,,,,,,,,,,
6543f753696f612571ac356c,TCN,2024-06-26_13h53.25.481,LearnStrategy,2023.2.3,Linux x86_64,60.24096386,7,1,13,-0.053019848,-0.002462104,1,0,0,1.6308,rock_grid_rect_2,7,07,-1,-1,1.631,0.08896769,-0.417030412,1,0,0,2.809,Peridotite_rect,7,2.809,1,12,0,12,0,1,,,,,,,,,,,,,
6543f753696f612571ac356c,TCN,2024-06-26_13h53.25.481,LearnStrategy,2023.2.3,Linux x86_64,60.24096386,7,1,14,-0.027805802,0.001396941,1,0,0,1.5302,rock_grid_rect_2,6,12,-1,-1,1.53,0.129811646,-0.396909135,1,0,0,3.833,Peridotite_rect,7,3.833,0,13,0,13,0,1,,,,,,,,,,,,,
6543f753696f612571ac356c,TCN,2024-06-26_13h53.25.481,LearnStrategy,2023.2.3,Linux x86_64,60.24096386,7,1,15,-0.044287408,0.005437785,1,0,0,1.2379,rock_grid_rect_2,5,05,-1,-1,1.238,-0.432412484,-0.409820059,1,0,0,2.1091,Obsidian_rect,5,2.109,1,14,0,14,0,1,,,,,,,,,,,,,
6543f753696f612571ac356c,TCN,2024-06-26_13h53.25.481,LearnStrategy,2023.2.3,Linux x86_64,60.24096386,7,1,16,0.011905274,-0.002333258,1,0,0,1.8136,rock_grid_rect_2,8,09,-1,-1,1.814,0.347616347,-0.395175662,1,0,0,3.2955,Pumice_rect,8,3.295,1,15,0,15,0,1,,,,,,,,,,,,,
6543f753696f612571ac356c,TCN,2024-06-26_13h53.25.481,LearnStrategy,2023.2.3,Linux x86_64,60.24096386,7,2,1,,,,,,,,4,01,,,,,,,,,,,1,9.829,0,,,,,,-0.39778852,-0.251292988,1,0,0,9.829,Andesite_rect,0,0,0,0,1,
6543f753696f612571ac356c,TCN,2024-06-26_13h53.25.481,LearnStrategy,2023.2.3,Linux x86_64,60.24096386,7,2,2,,,,,,,,8,08,,,,,,,,,,,8,3.583,1,,,,,,0.361341053,-0.40426586,1,0,0,3.5828,Pumice_rect,1,0,1,0,1,
6543f753696f612571ac356c,TCN,2024-06-26_13h53.25.481,LearnStrategy,2023.2.3,Linux x86_64,60.24096386,7,2,3,,,,,,,,1,02,,,,,,,,,,,6,3.572,0,,,,,,-0.180531053,-0.402810899,1,0,0,3.5719,Pegmatite_rect,2,0,2,0,1,
6543f753696f612571ac356c,TCN,2024-06-26_13h53.25.481,LearnStrategy,2023.2.3,Linux x86_64,60.24096386,7,2,4,,,,,,,,2,12,,,,,,,,,,,8,5.001,0,,,,,,0.37772545,-0.399076194,1,0,0,5.0008,Pumice_rect,3,0,3,0,1,
6543f753696f612571ac356c,TCN,2024-06-26_13h53.25.481,LearnStrategy,2023.2.3,Linux x86_64,60.24096386,7,2,5,,,,,,,,6,08,,,,,,,,,,,6,2.291,1,,,,,,-0.143850975,-0.390336917,1,0,0,2.2908,Pegmatite_rect,4,0,4,0,1,
6543f753696f612571ac356c,TCN,2024-06-26_13h53.25.481,LearnStrategy,2023.2.3,Linux x86_64,60.24096386,7,2,6,,,,,,,,8,16,,,,,,,,,,,8,3.742,1,,,,,,0.34748831,-0.384616766,1,0,0,3.7421,Pumice_rect,5,0,5,0,1,
6543f753696f612571ac356c,TCN,2024-06-26_13h53.25.481,LearnStrategy,2023.2.3,Linux x86_64,60.24096386,7,2,7,,,,,,,,5,11,,,,,,,,,,,5,1.242,1,,,,,,-0.327932634,-0.411396469,1,0,0,1.2421,Obsidian_rect,6,0,6,0,1,
6543f753696f612571ac356c,TCN,2024-06-26_13h53.25.481,LearnStrategy,2023.2.3,Linux x86_64,60.24096386,7,2,8,,,,,,,,2,05,,,,,,,,,,,2,3.73,1,,,,,,-0.113171548,-0.264320016,1,0,0,3.7295,Basalt_rect,7,0,7,0,1,
6543f753696f612571ac356c,TCN,2024-06-26_13h53.25.481,LearnStrategy,2023.2.3,Linux x86_64,60.24096386,7,2,9,,,,,,,,3,12,,,,,,,,,,,3,2.229,1,,,,,,0.086385506,-0.256070388,1,0,0,2.229,Diorite_rect,8,0,8,0,1,
6543f753696f612571ac356c,TCN,2024-06-26_13h53.25.481,LearnStrategy,2023.2.3,Linux x86_64,60.24096386,7,2,10,,,,,,,,4,08,,,,,,,,,,,7,4.396,0,,,,,,0.09239262,-0.397779041,1,0,0,4.3962,Peridotite_rect,9,0,9,0,1,
6543f753696f612571ac356c,TCN,2024-06-26_13h53.25.481,LearnStrategy,2023.2.3,Linux x86_64,60.24096386,7,2,11,,,,,,,,5,07,,,,,,,,,,,5,1.709,1,,,,,,-0.428098504,-0.41539968,1,0,0,1.7091,Obsidian_rect,10,0,10,0,1,
6543f753696f612571ac356c,TCN,2024-06-26_13h53.25.481,LearnStrategy,2023.2.3,Linux x86_64,60.24096386,7,2,12,,,,,,,,7,08,,,,,,,,,,,7,2.766,1,,,,,,0.071417286,-0.388720231,1,0,0,2.7656,Peridotite_rect,11,0,11,0,1,
6543f753696f612571ac356c,TCN,2024-06-26_13h53.25.481,LearnStrategy,2023.2.3,Linux x86_64,60.24096386,7,2,13,,,,,,,,7,14,,,,,,,,,,,7,8.793,1,,,,,,0.071466077,-0.389481119,1,0,0,8.7929,Peridotite_rect,12,0,12,0,1,
6543f753696f612571ac356c,TCN,2024-06-26_13h53.25.481,LearnStrategy,2023.2.3,Linux x86_64,60.24096386,7,2,14,,,,,,,,6,13,,,,,,,,,,,6,1.79,1,,,,,,-0.138325118,-0.389815383,1,0,0,1.7902,Pegmatite_rect,13,0,13,0,1,
6543f753696f612571ac356c,TCN,2024-06-26_13h53.25.481,LearnStrategy,2023.2.3,Linux x86_64,60.24096386,7,2,15,,,,,,,,1,11,,,,,,,,,,,1,2.925,1,,,,,,-0.359195251,-0.236268271,1,0,0,2.9249,Andesite_rect,14,0,14,0,1,
6543f753696f612571ac356c,TCN,2024-06-26_13h53.25.481,LearnStrategy,2023.2.3,Linux x86_64,60.24096386,7,2,16,,,,,,,,3,16,,,,,,,,,,,3,3.795,1,,,,,,0.103732667,-0.247704593,1,0,0,3.7952,Diorite_rect,15,0,15,0,1,
6543f753696f612571ac356c,TCN,2024-06-26_13h53.25.481,LearnStrategy,2023.2.3,Linux x86_64,60.24096386,8,1,1,0.005537542,-0.005498851,1,0,0,2.2643,rock_grid_rect_2,8,13,-1,-1,2.264,0.349496628,-0.393805976,1,0,0,5.0221,Pumice_rect,8,5.022,1,0,0,0,0,1,,,,,,,,,,,,,
6543f753696f612571ac356c,TCN,2024-06-26_13h53.25.481,LearnStrategy,2023.2.3,Linux x86_64,60.24096386,8,1,2,0.016534001,0.001785807,1,0,0,1.6312,rock_grid_rect_2,4,10,-1,-1,1.631,0.376821607,-0.246736422,1,0,0,2.331,Gabbro_rect,4,2.331,1,1,0,1,0,1,,,,,,,,,,,,,
6543f753696f612571ac356c,TCN,2024-06-26_13h53.25.481,LearnStrategy,2023.2.3,Linux x86_64,60.24096386,8,1,3,-0.039339023,-0.00359461,1,0,0,1.4148,rock_grid_rect_2,1,14,-1,-1,1.415,-0.352656347,-0.244524798,1,0,0,3.5723,Andesite_rect,1,3.572,1,2,0,2,0,1,,,,,,,,,,,,,
6543f753696f612571ac356c,TCN,2024-06-26_13h53.25.481,LearnStrategy,2023.2.3,Linux x86_64,60.24096386,8,1,4,0.003381049,-0.007726603,1,0,0,1.6976,rock_grid_rect_2,4,09,-1,-1,1.698,0.357068716,-0.258659782,1,0,0,2.7953,Gabbro_rect,4,2.795,1,3,0,3,0,1,,,,,,,,,,,,,
6543f753696f612571ac356c,TCN,2024-06-26_13h53.25.481,LearnStrategy,2023.2.3,Linux x86_64,60.24096386,8,1,5,0.00404013,-0.011001525,1,0,0,1.4475,rock_grid_rect_2,5,08,-1,-1,1.447,-0.390696974,-0.397273419,1,0,0,1.5929,Obsidian_rect,5,1.593,1,4,0,4,0,1,,,,,,,,,,,,,
6543f753696f612571ac356c,TCN,2024-06-26_13h53.25.481,LearnStrategy,2023.2.3,Linux x86_64,60.24096386,8,1,6,0.042292577,0.006543161,1,0,0,1.7311,rock_grid_rect_2,1,06,-1,-1,1.731,0.07124108,-0.236743562,1,0,0,2.8476,Diorite_rect,3,2.848,0,5,0,5,0,1,,,,,,,,,,,,,
6543f753696f612571ac356c,TCN,2024-06-26_13h53.25.481,LearnStrategy,2023.2.3,Linux x86_64,60.24096386,8,1,7,0.002621218,0.006663491,1,0,0,1.6972,rock_grid_rect_2,7,12,-1,-1,1.697,-0.11434228,-0.401357678,1,0,0,3.0371,Pegmatite_rect,6,3.037,0,6,0,6,0,1,,,,,,,,,,,,,
6543f753696f612571ac356c,TCN,2024-06-26_13h53.25.481,LearnStrategy,2023.2.3,Linux x86_64,60.24096386,8,1,8,-0.012347251,0.007129366,1,0,0,1.6039,rock_grid_rect_2,8,04,-1,-1,1.604,0.342439795,-0.386886628,1,0,0,2.6289,Pumice_rect,8,2.629,1,7,0,7,0,1,,,,,,,,,,,,,
6543f753696f612571ac356c,TCN,2024-06-26_13h53.25.481,LearnStrategy,2023.2.3,Linux x86_64,60.24096386,8,1,9,0.002420709,0.00254654,1,0,0,1.3794,rock_grid_rect_2,7,05,-1,-1,1.379,0.086185618,-0.39730462,1,0,0,1.8986,Peridotite_rect,7,1.899,1,8,0,8,0,1,,,,,,,,,,,,,
6543f753696f612571ac356c,TCN,2024-06-26_13h53.25.481,LearnStrategy,2023.2.3,Linux x86_64,60.24096386,8,1,10,0.072375327,-0.013199288,1,0,0,1.1637,rock_grid_rect_2,6,07,-1,-1,1.164,-0.139003777,-0.41570094,1,0,0,1.8155,Pegmatite_rect,6,1.815,1,9,0,9,0,1,,,,,,,,,,,,,
6543f753696f612571ac356c,TCN,2024-06-26_13h53.25.481,LearnStrategy,2023.2.3,Linux x86_64,60.24096386,8,1,11,-0.106932289,0.009068507,1,0,0,1.4305,rock_grid_rect_2,2,14,-1,-1,1.43,0.377667398,-0.252543339,1,0,0,2.7975,Gabbro_rect,4,2.798,0,10,0,10,0,1,,,,,,,,,,,,,
6543f753696f612571ac356c,TCN,2024-06-26_13h53.25.481,LearnStrategy,2023.2.3,Linux x86_64,60.24096386,8,1,12,-0.01205637,-0.002088621,1,0,0,1.6548,rock_grid_rect_2,5,14,-1,-1,1.655,-0.338387421,-0.394104439,1,0,0,2.1806,Obsidian_rect,5,2.181,1,11,0,11,0,1,,,,,,,,,,,,,
6543f753696f612571ac356c,TCN,2024-06-26_13h53.25.481,LearnStrategy,2023.2.3,Linux x86_64,60.24096386,8,1,13,0.009750646,0.006561466,1,0,0,1.8477,rock_grid_rect_2,6,10,-1,-1,1.848,-0.112854812,-0.396744924,1,0,0,1.738,Pegmatite_rect,6,1.738,1,12,0,12,0,1,,,,,,,,,,,,,
6543f753696f612571ac356c,TCN,2024-06-26_13h53.25.481,LearnStrategy,2023.2.3,Linux x86_64,60.24096386,8,1,14,0.042792979,0.005788488,1,0,0,2.0982,rock_grid_rect_2,2,10,-1,-1,2.098,-0.374572567,-0.403923268,1,0,0,4.1496,Obsidian_rect,5,4.15,0,13,0,13,0,1,,,,,,,,,,,,,
6543f753696f612571ac356c,TCN,2024-06-26_13h53.25.481,LearnStrategy,2023.2.3,Linux x86_64,60.24096386,8,1,15,0.013172965,-0.003720348,1,0,0,2.2866,rock_grid_rect_2,3,06,-1,-1,2.287,0.20654011,-0.233301477,1,0,0,1.8544,Diorite_rect,3,1.854,1,14,0,14,0,1,,,,,,,,,,,,,
6543f753696f612571ac356c,TCN,2024-06-26_13h53.25.481,LearnStrategy,2023.2.3,Linux x86_64,60.24096386,8,1,16,-0.029740716,-0.001662214,1,0,0,2.2644,rock_grid_rect_2,3,11,-1,-1,2.264,0.089464673,-0.243287127,1,0,0,2.317,Diorite_rect,3,2.317,1,15,0,15,0,1,,,,,,,,,,,,,
6543f753696f612571ac356c,TCN,2024-06-26_13h53.25.481,LearnStrategy,2023.2.3,Linux x86_64,60.24096386,8,2,1,,,,,,,,5,09,,,,,,,,,,,5,1.587,1,,,,,,-0.341688789,-0.378827439,1,0,0,1.5871,Obsidian_rect,0,0,0,0,1,
6543f753696f612571ac356c,TCN,2024-06-26_13h53.25.481,LearnStrategy,2023.2.3,Linux x86_64,60.24096386,8,2,2,,,,,,,,8,10,,,,,,,,,,,8,1.775,1,,,,,,0.345077484,-0.39126214,1,0,0,1.7747,Pumice_rect,1,0,1,0,1,
6543f753696f612571ac356c,TCN,2024-06-26_13h53.25.481,LearnStrategy,2023.2.3,Linux x86_64,60.24096386,8,2,3,,,,,,,,7,15,,,,,,,,,,,6,2.371,0,,,,,,-0.130886723,-0.406066522,1,0,0,2.3713,Pegmatite_rect,2,0,2,0,1,
6543f753696f612571ac356c,TCN,2024-06-26_13h53.25.481,LearnStrategy,2023.2.3,Linux x86_64,60.24096386,8,2,4,,,,,,,,7,16,,,,,,,,,,,4,3.407,0,,,,,,0.358575328,-0.252391807,1,0,0,3.4074,Gabbro_rect,3,0,3,0,1,
6543f753696f612571ac356c,TCN,2024-06-26_13h53.25.481,LearnStrategy,2023.2.3,Linux x86_64,60.24096386,8,2,5,,,,,,,,6,03,,,,,,,,,,,6,1.69,1,,,,,,-0.047937584,-0.397176024,1,0,0,1.6904,Pegmatite_rect,4,0,4,0,1,
6543f753696f612571ac356c,TCN,2024-06-26_13h53.25.481,LearnStrategy,2023.2.3,Linux x86_64,60.24096386,8,2,6,,,,,,,,4,05,,,,,,,,,,,7,4.311,0,,,,,,0.148649631,-0.396627018,1,0,0,4.311,Peridotite_rect,5,0,5,0,1,
6543f753696f612571ac356c,TCN,2024-06-26_13h53.25.481,LearnStrategy,2023.2.3,Linux x86_64,60.24096386,8,2,7,,,,,,,,6,09,,,,,,,,,,,6,2.862,1,,,,,,-0.178920893,-0.405385687,1,0,0,2.8619,Pegmatite_rect,6,0,6,0,1,
6543f753696f612571ac356c,TCN,2024-06-26_13h53.25.481,LearnStrategy,2023.2.3,Linux x86_64,60.24096386,8,2,8,,,,,,,,1,03,,,,,,,,,,,1,3.504,1,,,,,,-0.385391981,-0.243437602,1,0,0,3.5042,Andesite_rect,7,0,7,0,1,
6543f753696f612571ac356c,TCN,2024-06-26_13h53.25.481,LearnStrategy,2023.2.3,Linux x86_64,60.24096386,8,2,9,,,,,,,,1,09,,,,,,,,,,,1,2.514,1,,,,,,-0.385391981,-0.243437602,1,0,0,2.5145,Andesite_rect,8,0,8,0,1,
6543f753696f612571ac356c,TCN,2024-06-26_13h53.25.481,LearnStrategy,2023.2.3,Linux x86_64,60.24096386,8,2,10,,,,,,,,4,11,,,,,,,,,,,2,1.498,0,,,,,,-0.219605984,-0.262408099,1,0,0,1.4985,Basalt_rect,9,0,9,0,1,
6543f753696f612571ac356c,TCN,2024-06-26_13h53.25.481,LearnStrategy,2023.2.3,Linux x86_64,60.24096386,8,2,11,,,,,,,,5,02,,,,,,,,,,,5,1.579,1,,,,,,-0.358666942,-0.402135596,1,0,0,1.579,Obsidian_rect,10,0,10,0,1,
6543f753696f612571ac356c,TCN,2024-06-26_13h53.25.481,LearnStrategy,2023.2.3,Linux x86_64,60.24096386,8,2,12,,,,,,,,2,11,,,,,,,,,,,4,4.859,0,,,,,,0.386203618,-0.238316678,1,0,0,4.8587,Gabbro_rect,11,0,11,0,1,
6543f753696f612571ac356c,TCN,2024-06-26_13h53.25.481,LearnStrategy,2023.2.3,Linux x86_64,60.24096386,8,2,13,,,,,,,,3,14,,,,,,,,,,,3,2.334,1,,,,,,0.103616066,-0.249533597,1,0,0,2.3335,Diorite_rect,12,0,12,0,1,
6543f753696f612571ac356c,TCN,2024-06-26_13h53.25.481,LearnStrategy,2023.2.3,Linux x86_64,60.24096386,8,2,14,,,,,,,,8,15,,,,,,,,,,,8,1.454,1,,,,,,0.334845828,-0.411444452,1,0,0,1.4535,Pumice_rect,13,0,13,0,1,
6543f753696f612571ac356c,TCN,2024-06-26_13h53.25.481,LearnStrategy,2023.2.3,Linux x86_64,60.24096386,8,2,15,,,,,,,,3,10,,,,,,,,,,,7,1.9,0,,,,,,0.160271981,-0.393417079,1,0,0,1.8999,Peridotite_rect,14,0,14,0,1,
6543f753696f612571ac356c,TCN,2024-06-26_13h53.25.481,LearnStrategy,2023.2.3,Linux x86_64,60.24096386,8,2,16,,,,,,,,2,16,,,,,,,,,,,4,10.467,0,,,,,,0.357381351,-0.237093675,1,0,0,10.4667,Gabbro_rect,15,0,15,0,1,
6543f753696f612571ac356c,TCN,2024-06-26_13h53.25.481,LearnStrategy,2023.2.3,Linux x86_64,60.24096386,9,1,1,-0.082713762,-0.004852264,1,0,0,1.965,rock_grid_rect_2,5,12,-1,-1,1.965,-0.369052366,-0.415955709,1,0,0,2.698,Obsidian_rect,5,2.698,1,0,0,0,0,1,,,,,,,,,,,,,
6543f753696f612571ac356c,TCN,2024-06-26_13h53.25.481,LearnStrategy,2023.2.3,Linux x86_64,60.24096386,9,1,2,-0.010838526,0.000644257,1,0,0,2.5473,rock_grid_rect_2,6,11,-1,-1,2.547,-0.134132463,-0.403051,1,0,0,2.7889,Pegmatite_rect,6,2.789,1,1,0,1,0,1,,,,,,,,,,,,,
6543f753696f612571ac356c,TCN,2024-06-26_13h53.25.481,LearnStrategy,2023.2.3,Linux x86_64,60.24096386,9,1,3,0.010952454,0.002068452,1,0,0,2.381,rock_grid_rect_2,2,09,-1,-1,2.381,-0.190563132,-0.249397853,1,0,0,1.6277,Basalt_rect,2,1.628,1,2,0,2,0,1,,,,,,,,,,,,,
6543f753696f612571ac356c,TCN,2024-06-26_13h53.25.481,LearnStrategy,2023.2.3,Linux x86_64,60.24096386,9,1,4,-0.001890971,0.001287394,1,0,0,1.6312,rock_grid_rect_2,3,09,-1,-1,1.631,0.116272843,-0.235592471,1,0,0,1.9417,Diorite_rect,3,1.942,1,3,0,3,0,1,,,,,,,,,,,,,
6543f753696f612571ac356c,TCN,2024-06-26_13h53.25.481,LearnStrategy,2023.2.3,Linux x86_64,60.24096386,9,1,5,-0.019727159,-0.00507782,1,0,0,1.8307,rock_grid_rect_2,2,06,-1,-1,1.831,-0.12976472,-0.234122655,1,0,0,3.1443,Basalt_rect,2,3.144,1,4,0,4,0,1,,,,,,,,,,,,,
6543f753696f612571ac356c,TCN,2024-06-26_13h53.25.481,LearnStrategy,2023.2.3,Linux x86_64,60.24096386,9,1,6,0.008227253,0.000572127,1,0,0,1.6978,rock_grid_rect_2,1,05,-1,-1,1.698,-0.464943196,-0.238407485,1,0,0,4.4943,Andesite_rect,1,4.494,1,5,0,5,0,1,,,,,,,,,,,,,
6543f753696f612571ac356c,TCN,2024-06-26_13h53.25.481,LearnStrategy,2023.2.3,Linux x86_64,60.24096386,9,1,7,-0.001969471,-0.00928359,1,0,0,1.7714,rock_grid_rect_2,6,16,-1,-1,1.771,-0.065536157,-0.379228829,1,0,0,2.1305,Pegmatite_rect,6,2.13,1,6,0,6,0,1,,,,,,,,,,,,,
6543f753696f612571ac356c,TCN,2024-06-26_13h53.25.481,LearnStrategy,2023.2.3,Linux x86_64,60.24096386,9,1,8,0.001166318,0.000968016,1,0,0,2.3321,rock_grid_rect_2,8,03,-1,-1,2.332,0.35284399,-0.398856169,1,0,0,2.7529,Pumice_rect,8,2.753,1,7,0,7,0,1,,,,,,,,,,,,,
6543f753696f612571ac356c,TCN,2024-06-26_13h53.25.481,LearnStrategy,2023.2.3,Linux x86_64,60.24096386,9,1,9,-0.129276998,0.006559042,1,0,0,1.7821,rock_grid_rect_2,8,02,-1,-1,1.782,0.347321116,-0.399996196,1,0,0,1.8412,Pumice_rect,8,1.841,1,8,0,8,0,1,,,,,,,,,,,,,
6543f753696f612571ac356c,TCN,2024-06-26_13h53.25.481,LearnStrategy,2023.2.3,Linux x86_64,60.24096386,9,1,10,-0.000797746,0.001918598,1,0,0,1.9308,rock_grid_rect_2,4,16,-1,-1,1.931,0.37232129,-0.248386298,1,0,0,2.4283,Gabbro_rect,4,2.428,1,9,0,9,0,1,,,,,,,,,,,,,
6543f753696f612571ac356c,TCN,2024-06-26_13h53.25.481,LearnStrategy,2023.2.3,Linux x86_64,60.24096386,9,1,11,0.003217771,0.002731479,1,0,0,1.7305,rock_grid_rect_2,7,06,-1,-1,1.731,0.081273469,-0.236153286,1,0,0,2.8393,Diorite_rect,3,2.839,0,10,0,10,0,1,,,,,,,,,,,,,
6543f753696f612571ac356c,TCN,2024-06-26_13h53.25.481,LearnStrategy,2023.2.3,Linux x86_64,60.24096386,9,1,12,0.013854732,-0.004362056,1,0,0,1.5306,rock_grid_rect_2,3,08,-1,-1,1.531,0.165089407,-0.236034261,1,0,0,1.5363,Diorite_rect,3,1.536,1,11,0,11,0,1,,,,,,,,,,,,,
6543f753696f612571ac356c,TCN,2024-06-26_13h53.25.481,LearnStrategy,2023.2.3,Linux x86_64,60.24096386,9,1,13,-0.062836936,0.014069194,1,0,0,2.4643,rock_grid_rect_2,5,06,-1,-1,2.464,-0.452269078,-0.421630859,1,0,0,1.4592,Obsidian_rect,5,1.459,1,12,0,12,0,1,,,,,,,,,,,,,
6543f753696f612571ac356c,TCN,2024-06-26_13h53.25.481,LearnStrategy,2023.2.3,Linux x86_64,60.24096386,9,1,14,0.069903714,-0.003269669,1,0,0,2.2143,rock_grid_rect_2,4,15,-1,-1,2.214,0.372290959,-0.251090304,1,0,0,2.3464,Gabbro_rect,4,2.346,1,13,0,13,0,1,,,,,,,,,,,,,
6543f753696f612571ac356c,TCN,2024-06-26_13h53.25.481,LearnStrategy,2023.2.3,Linux x86_64,60.24096386,9,1,15,0.036714076,-0.008417009,1,0,0,1.2468,rock_grid_rect_2,1,07,-1,-1,1.247,-0.085383025,-0.245782048,1,0,0,3.6564,Basalt_rect,2,3.656,0,14,0,14,0,1,,,,,,,,,,,,,
6543f753696f612571ac356c,TCN,2024-06-26_13h53.25.481,LearnStrategy,2023.2.3,Linux x86_64,60.24096386,9,1,16,0.012657834,0.005717136,1,0,0,1.614,rock_grid_rect_2,7,10,-1,-1,1.614,0.146664435,-0.395978877,1,0,0,2.0678,Peridotite_rect,7,2.068,1,15,0,15,0,1,,,,,,,,,,,,,
6543f753696f612571ac356c,TCN,2024-06-26_13h53.25.481,LearnStrategy,2023.2.3,Linux x86_64,60.24096386,9,2,1,,,,,,,,4,14,,,,,,,,,,,4,2.885,1,,,,,,0.414022721,-0.246049931,1,0,0,2.8854,Gabbro_rect,0,0,0,0,1,
6543f753696f612571ac356c,TCN,2024-06-26_13h53.25.481,LearnStrategy,2023.2.3,Linux x86_64,60.24096386,9,2,2,,,,,,,,1,10,,,,,,,,,,,7,11.687,0,,,,,,0.137274033,-0.413703499,1,0,0,11.6867,Peridotite_rect,1,0,1,0,1,
6543f753696f612571ac356c,TCN,2024-06-26_13h53.25.481,LearnStrategy,2023.2.3,Linux x86_64,60.24096386,9,2,3,,,,,,,,3,02,,,,,,,,,,,3,3.609,1,,,,,,0.118719035,-0.237964265,1,0,0,3.6091,Diorite_rect,2,0,2,0,1,
6543f753696f612571ac356c,TCN,2024-06-26_13h53.25.481,LearnStrategy,2023.2.3,Linux x86_64,60.24096386,9,2,4,,,,,,,,6,15,,,,,,,,,,,6,1.838,1,,,,,,-0.119490925,-0.394836426,1,0,0,1.8384,Pegmatite_rect,3,0,3,0,1,
6543f753696f612571ac356c,TCN,2024-06-26_13h53.25.481,LearnStrategy,2023.2.3,Linux x86_64,60.24096386,9,2,5,,,,,,,,1,04,,,,,,,,,,,1,2.412,1,,,,,,-0.352821925,-0.235230487,1,0,0,2.4124,Andesite_rect,4,0,4,0,1,
6543f753696f612571ac356c,TCN,2024-06-26_13h53.25.481,LearnStrategy,2023.2.3,Linux x86_64,60.24096386,9,2,6,,,,,,,,5,04,,,,,,,,,,,5,2.382,1,,,,,,-0.376537875,-0.407173172,1,0,0,2.3818,Obsidian_rect,5,0,5,0,1,
6543f753696f612571ac356c,TCN,2024-06-26_13h53.25.481,LearnStrategy,2023.2.3,Linux x86_64,60.24096386,9,2,7,,,,,,,,8,06,,,,,,,,,,,8,1.903,1,,,,,,0.40622315,-0.406204752,1,0,0,1.9033,Pumice_rect,6,0,6,0,1,
6543f753696f612571ac356c,TCN,2024-06-26_13h53.25.481,LearnStrategy,2023.2.3,Linux x86_64,60.24096386,9,2,8,,,,,,,,6,05,,,,,,,,,,,6,3.669,1,,,,,,-0.161395351,-0.409562804,1,0,0,3.6688,Pegmatite_rect,7,0,7,0,1,
6543f753696f612571ac356c,TCN,2024-06-26_13h53.25.481,LearnStrategy,2023.2.3,Linux x86_64,60.24096386,9,2,9,,,,,,,,2,08,,,,,,,,,,,2,2.464,1,,,,,,-0.103832486,-0.238229227,1,0,0,2.4643,Basalt_rect,8,0,8,0,1,
6543f753696f612571ac356c,TCN,2024-06-26_13h53.25.481,LearnStrategy,2023.2.3,Linux x86_64,60.24096386,9,2,10,,,,,,,,5,16,,,,,,,,,,,5,1.976,1,,,,,,-0.318816393,-0.406993983,1,0,0,1.9763,Obsidian_rect,9,0,9,0,1,
6543f753696f612571ac356c,TCN,2024-06-26_13h53.25.481,LearnStrategy,2023.2.3,Linux x86_64,60.24096386,9,2,11,,,,,,,,7,13,,,,,,,,,,,7,3.151,1,,,,,,0.098055651,-0.391678758,1,0,0,3.1507,Peridotite_rect,10,0,10,0,1,
6543f753696f612571ac356c,TCN,2024-06-26_13h53.25.481,LearnStrategy,2023.2.3,Linux x86_64,60.24096386,9,2,12,,,,,,,,4,12,,,,,,,,,,,2,2.004,0,,,,,,-0.185144553,-0.240112056,1,0,0,2.004,Basalt_rect,11,0,11,0,1,
6543f753696f612571ac356c,TCN,2024-06-26_13h53.25.481,LearnStrategy,2023.2.3,Linux x86_64,60.24096386,9,2,13,,,,,,,,8,05,,,,,,,,,,,8,2.393,1,,,,,,0.353602019,-0.407814539,1,0,0,2.3928,Pumice_rect,12,0,12,0,1,
6543f753696f612571ac356c,TCN,2024-06-26_13h53.25.481,LearnStrategy,2023.2.3,Linux x86_64,60.24096386,9,2,14,,,,,,,,2,04,,,,,,,,,,,2,2.632,1,,,,,,-0.099747605,-0.260939215,1,0,0,2.6317,Basalt_rect,13,0,13,0,1,
6543f753696f612571ac356c,TCN,2024-06-26_13h53.25.481,LearnStrategy,2023.2.3,Linux x86_64,60.24096386,9,2,15,,,,,,,,7,02,,,,,,,,,,,7,1.748,1,,,,,,0.096984055,-0.404033342,1,0,0,1.7484,Peridotite_rect,14,0,14,0,1,
6543f753696f612571ac356c,TCN,2024-06-26_13h53.25.481,LearnStrategy,2023.2.3,Linux x86_64,60.24096386,9,2,16,,,,,,,,3,15,,,,,,,,,,,3,3.302,1,,,,,,0.121661961,-0.231748997,1,0,0,3.3017,Diorite_rect,15,0,15,0,1,
6543f753696f612571ac356c,TCN,2024-06-26_13h53.25.481,LearnStrategy,2023.2.3,Linux x86_64,60.24096386,,,,,,,,,,,,,,,,,,,,,,,,,,,,,,,,,,,,,,,,,,,1
6543f753696f612571ac356c,TCN,2024-06-26_13h53.25.481,LearnStrategy,2023.2.3,Linux x86_64,60.24096386,,,,,,,,,,,,,,,,,,,,,,,,,,,,,,,,,,,,,,,,,,,
6543f753696f612571ac356c,TCN,2024-06-26_13h53.25.481,LearnStrategy,2023.2.3,Linux x86_64,60.24096386,,,,,,,,,,,8,02,1,1,,,,,,,,,,,,,,,,,,,,,,,,,,,,,
6543f753696f612571ac356c,TCN,2024-06-26_13h53.25.481,LearnStrategy,2023.2.3,Linux x86_64,60.24096386,,,,,,,,,,,3,08,1,2,,,,,,,,,,,,,,,,,,,,,,,,,,,,,
6543f753696f612571ac356c,TCN,2024-06-26_13h53.25.481,LearnStrategy,2023.2.3,Linux x86_64,60.24096386,,,,,,,,,,,1,16,1,3,,,,,,,,,,,,,,,,,,,,,,,,,,,,,
6543f753696f612571ac356c,TCN,2024-06-26_13h53.25.481,LearnStrategy,2023.2.3,Linux x86_64,60.24096386,,,,,,,,,,,1,01,1,4,,,,,,,,,,,,,,,,,,,,,,,,,,,,,
6543f753696f612571ac356c,TCN,2024-06-26_13h53.25.481,LearnStrategy,2023.2.3,Linux x86_64,60.24096386,,,,,,,,,,,2,02,1,5,,,,,,,,,,,,,,,,,,,,,,,,,,,,,
6543f753696f612571ac356c,TCN,2024-06-26_13h53.25.481,LearnStrategy,2023.2.3,Linux x86_64,60.24096386,,,,,,,,,,,3,11,1,6,,,,,,,,,,,,,,,,,,,,,,,,,,,,,
6543f753696f612571ac356c,TCN,2024-06-26_13h53.25.481,LearnStrategy,2023.2.3,Linux x86_64,60.24096386,,,,,,,,,,,5,10,1,7,,,,,,,,,,,,,,,,,,,,,,,,,,,,,
6543f753696f612571ac356c,TCN,2024-06-26_13h53.25.481,LearnStrategy,2023.2.3,Linux x86_64,60.24096386,,,,,,,,,,,8,04,1,8,,,,,,,,,,,,,,,,,,,,,,,,,,,,,
6543f753696f612571ac356c,TCN,2024-06-26_13h53.25.481,LearnStrategy,2023.2.3,Linux x86_64,60.24096386,,,,,,,,,,,3,09,2,1,,,,,,,,,,,,,,,,,,,,,,,,,,,,,
6543f753696f612571ac356c,TCN,2024-06-26_13h53.25.481,LearnStrategy,2023.2.3,Linux x86_64,60.24096386,,,,,,,,,,,5,12,2,2,,,,,,,,,,,,,,,,,,,,,,,,,,,,,
6543f753696f612571ac356c,TCN,2024-06-26_13h53.25.481,LearnStrategy,2023.2.3,Linux x86_64,60.24096386,,,,,,,,,,,6,06,2,3,,,,,,,,,,,,,,,,,,,,,,,,,,,,,
6543f753696f612571ac356c,TCN,2024-06-26_13h53.25.481,LearnStrategy,2023.2.3,Linux x86_64,60.24096386,,,,,,,,,,,8,13,2,4,,,,,,,,,,,,,,,,,,,,,,,,,,,,,
6543f753696f612571ac356c,TCN,2024-06-26_13h53.25.481,LearnStrategy,2023.2.3,Linux x86_64,60.24096386,,,,,,,,,,,6,07,2,5,,,,,,,,,,,,,,,,,,,,,,,,,,,,,
6543f753696f612571ac356c,TCN,2024-06-26_13h53.25.481,LearnStrategy,2023.2.3,Linux x86_64,60.24096386,,,,,,,,,,,1,07,2,6,,,,,,,,,,,,,,,,,,,,,,,,,,,,,
6543f753696f612571ac356c,TCN,2024-06-26_13h53.25.481,LearnStrategy,2023.2.3,Linux x86_64,60.24096386,,,,,,,,,,,2,14,2,7,,,,,,,,,,,,,,,,,,,,,,,,,,,,,
6543f753696f612571ac356c,TCN,2024-06-26_13h53.25.481,LearnStrategy,2023.2.3,Linux x86_64,60.24096386,,,,,,,,,,,4,03,2,8,,,,,,,,,,,,,,,,,,,,,,,,,,,,,
6543f753696f612571ac356c,TCN,2024-06-26_13h53.25.481,LearnStrategy,2023.2.3,Linux x86_64,60.24096386,,,,,,,,,,,4,13,3,1,,,,,,,,,,,,,,,,,,,,,,,,,,,,,
6543f753696f612571ac356c,TCN,2024-06-26_13h53.25.481,LearnStrategy,2023.2.3,Linux x86_64,60.24096386,,,,,,,,,,,3,06,3,2,,,,,,,,,,,,,,,,,,,,,,,,,,,,,
6543f753696f612571ac356c,TCN,2024-06-26_13h53.25.481,LearnStrategy,2023.2.3,Linux x86_64,60.24096386,,,,,,,,,,,5,08,3,3,,,,,,,,,,,,,,,,,,,,,,,,,,,,,
6543f753696f612571ac356c,TCN,2024-06-26_13h53.25.481,LearnStrategy,2023.2.3,Linux x86_64,60.24096386,,,,,,,,,,,4,09,3,4,,,,,,,,,,,,,,,,,,,,,,,,,,,,,
6543f753696f612571ac356c,TCN,2024-06-26_13h53.25.481,LearnStrategy,2023.2.3,Linux x86_64,60.24096386,,,,,,,,,,,6,10,3,5,,,,,,,,,,,,,,,,,,,,,,,,,,,,,
6543f753696f612571ac356c,TCN,2024-06-26_13h53.25.481,LearnStrategy,2023.2.3,Linux x86_64,60.24096386,,,,,,,,,,,5,05,3,6,,,,,,,,,,,,,,,,,,,,,,,,,,,,,
6543f753696f612571ac356c,TCN,2024-06-26_13h53.25.481,LearnStrategy,2023.2.3,Linux x86_64,60.24096386,,,,,,,,,,,8,03,3,7,,,,,,,,,,,,,,,,,,,,,,,,,,,,,
6543f753696f612571ac356c,TCN,2024-06-26_13h53.25.481,LearnStrategy,2023.2.3,Linux x86_64,60.24096386,,,,,,,,,,,7,04,3,8,,,,,,,,,,,,,,,,,,,,,,,,,,,,,
6543f753696f612571ac356c,TCN,2024-06-26_13h53.25.481,LearnStrategy,2023.2.3,Linux x86_64,60.24096386,,,,,,,,,,,4,16,4,1,,,,,,,,,,,,,,,,,,,,,,,,,,,,,
6543f753696f612571ac356c,TCN,2024-06-26_13h53.25.481,LearnStrategy,2023.2.3,Linux x86_64,60.24096386,,,,,,,,,,,6,16,4,2,,,,,,,,,,,,,,,,,,,,,,,,,,,,,
6543f753696f612571ac356c,TCN,2024-06-26_13h53.25.481,LearnStrategy,2023.2.3,Linux x86_64,60.24096386,,,,,,,,,,,8,09,4,3,,,,,,,,,,,,,,,,,,,,,,,,,,,,,
6543f753696f612571ac356c,TCN,2024-06-26_13h53.25.481,LearnStrategy,2023.2.3,Linux x86_64,60.24096386,,,,,,,,,,,5,14,4,4,,,,,,,,,,,,,,,,,,,,,,,,,,,,,
6543f753696f612571ac356c,TCN,2024-06-26_13h53.25.481,LearnStrategy,2023.2.3,Linux x86_64,60.24096386,,,,,,,,,,,8,14,4,5,,,,,,,,,,,,,,,,,,,,,,,,,,,,,
6543f753696f612571ac356c,TCN,2024-06-26_13h53.25.481,LearnStrategy,2023.2.3,Linux x86_64,60.24096386,,,,,,,,,,,1,14,4,6,,,,,,,,,,,,,,,,,,,,,,,,,,,,,
6543f753696f612571ac356c,TCN,2024-06-26_13h53.25.481,LearnStrategy,2023.2.3,Linux x86_64,60.24096386,,,,,,,,,,,2,01,4,7,,,,,,,,,,,,,,,,,,,,,,,,,,,,,
6543f753696f612571ac356c,TCN,2024-06-26_13h53.25.481,LearnStrategy,2023.2.3,Linux x86_64,60.24096386,,,,,,,,,,,7,07,4,8,,,,,,,,,,,,,,,,,,,,,,,,,,,,,
6543f753696f612571ac356c,TCN,2024-06-26_13h53.25.481,LearnStrategy,2023.2.3,Linux x86_64,60.24096386,,,,,,,,,,,6,11,5,1,,,,,,,,,,,,,,,,,,,,,,,,,,,,,
6543f753696f612571ac356c,TCN,2024-06-26_13h53.25.481,LearnStrategy,2023.2.3,Linux x86_64,60.24096386,,,,,,,,,,,3,07,5,2,,,,,,,,,,,,,,,,,,,,,,,,,,,,,
6543f753696f612571ac356c,TCN,2024-06-26_13h53.25.481,LearnStrategy,2023.2.3,Linux x86_64,60.24096386,,,,,,,,,,,5,06,5,3,,,,,,,,,,,,,,,,,,,,,,,,,,,,,
6543f753696f612571ac356c,TCN,2024-06-26_13h53.25.481,LearnStrategy,2023.2.3,Linux x86_64,60.24096386,,,,,,,,,,,3,13,5,4,,,,,,,,,,,,,,,,,,,,,,,,,,,,,
6543f753696f612571ac356c,TCN,2024-06-26_13h53.25.481,LearnStrategy,2023.2.3,Linux x86_64,60.24096386,,,,,,,,,,,7,06,5,5,,,,,,,,,,,,,,,,,,,,,,,,,,,,,
6543f753696f612571ac356c,TCN,2024-06-26_13h53.25.481,LearnStrategy,2023.2.3,Linux x86_64,60.24096386,,,,,,,,,,,1,05,5,6,,,,,,,,,,,,,,,,,,,,,,,,,,,,,
6543f753696f612571ac356c,TCN,2024-06-26_13h53.25.481,LearnStrategy,2023.2.3,Linux x86_64,60.24096386,,,,,,,,,,,1,06,5,7,,,,,,,,,,,,,,,,,,,,,,,,,,,,,
6543f753696f612571ac356c,TCN,2024-06-26_13h53.25.481,LearnStrategy,2023.2.3,Linux x86_64,60.24096386,,,,,,,,,,,2,10,5,8,,,,,,,,,,,,,,,,,,,,,,,,,,,,,
6543f753696f612571ac356c,TCN,2024-06-26_13h53.25.481,LearnStrategy,2023.2.3,Linux x86_64,60.24096386,,,,,,,,,,,2,09,6,1,,,,,,,,,,,,,,,,,,,,,,,,,,,,,
6543f753696f612571ac356c,TCN,2024-06-26_13h53.25.481,LearnStrategy,2023.2.3,Linux x86_64,60.24096386,,,,,,,,,,,7,12,6,2,,,,,,,,,,,,,,,,,,,,,,,,,,,,,
6543f753696f612571ac356c,TCN,2024-06-26_13h53.25.481,LearnStrategy,2023.2.3,Linux x86_64,60.24096386,,,,,,,,,,,4,10,6,3,,,,,,,,,,,,,,,,,,,,,,,,,,,,,
6543f753696f612571ac356c,TCN,2024-06-26_13h53.25.481,LearnStrategy,2023.2.3,Linux x86_64,60.24096386,,,,,,,,,,,2,06,6,4,,,,,,,,,,,,,,,,,,,,,,,,,,,,,
6543f753696f612571ac356c,TCN,2024-06-26_13h53.25.481,LearnStrategy,2023.2.3,Linux x86_64,60.24096386,,,,,,,,,,,6,12,6,5,,,,,,,,,,,,,,,,,,,,,,,,,,,,,
6543f753696f612571ac356c,TCN,2024-06-26_13h53.25.481,LearnStrategy,2023.2.3,Linux x86_64,60.24096386,,,,,,,,,,,7,05,6,6,,,,,,,,,,,,,,,,,,,,,,,,,,,,,
6543f753696f612571ac356c,TCN,2024-06-26_13h53.25.481,LearnStrategy,2023.2.3,Linux x86_64,60.24096386,,,,,,,,,,,7,10,6,7,,,,,,,,,,,,,,,,,,,,,,,,,,,,,
6543f753696f612571ac356c,TCN,2024-06-26_13h53.25.481,LearnStrategy,2023.2.3,Linux x86_64,60.24096386,,,,,,,,,,,4,15,6,8,,,,,,,,,,,,,,,,,,,,,,,,,,,,,