participant,condition,date,expName,psychopyVersion,OS,frameRate,block,phase,trial,learn_mouse_2.x,learn_mouse_2.y,learn_mouse_2.leftButton,learn_mouse_2.midButton,learn_mouse_2.rightButton,learn_mouse_2.time,learn_mouse_2.clicked_name,cat,token,row,col,t_select,cat_mouse_l.x,cat_mouse_l.y,cat_mouse_l.leftButton,cat_mouse_l.midButton,cat_mouse_l.rightButton,cat_mouse_l.time,cat_mouse_l.clicked_name,resp,t_resp,corr,train_trials.thisRepN,train_trials.thisTrialN,train_trials.thisN,train_trials.thisIndex,train_trials.ran,cat_mouse_t.x,cat_mouse_t.y,cat_mouse_t.leftButton,cat_mouse_t.midButton,cat_mouse_t.rightButton,cat_mouse_t.time,cat_mouse_t.clicked_name,test_trials.thisRepN,test_trials.thisTrialN,test_trials.thisN,test_trials.thisIndex,test_trials.ran,Bonus
6544fd84cf4e51f1de212e54,TCR,2024-06-21_12h46.51.047,LearnStrategy,2023.2.3,Win32,61.34969325,,,,,,,,,,,,,,,,,,,,,,,,,,,,,,,,,,,,,,,,,,,
6544fd84cf4e51f1de212e54,TCR,2024-06-21_12h46.51.047,LearnStrategy,2023.2.3,Win32,61.34969325,1,1,1,0.025,0.001851852,1,0,0,11.321,rock_grid_rect_2,4,05,-1,-1,11.321,-0.087037037,-0.249074074,1,0,0,7.9558,Basalt_rect,2,7.956,0,0,0,0,0,1,,,,,,,,,,,,,
6544fd84cf4e51f1de212e54,TCR,2024-06-21_12h46.51.047,LearnStrategy,2023.2.3,Win32,61.34969325,1,1,2,0.064814815,0.010185185,1,0,0,2.562,rock_grid_rect_2,5,14,-1,-1,2.562,-0.371296296,-0.394444444,1,0,0,3.0699,Obsidian_rect,5,3.07,1,1,0,1,0,1,,,,,,,,,,,,,
6544fd84cf4e51f1de212e54,TCR,2024-06-21_12h46.51.047,LearnStrategy,2023.2.3,Win32,61.34969325,1,1,3,0.028703704,-0.011111111,1,0,0,4.0355,rock_grid_rect_2,6,06,-1,-1,4.035,-0.326851852,-0.258333333,1,0,0,5.9396,Andesite_rect,1,5.94,0,2,0,2,0,1,,,,,,,,,,,,,
6544fd84cf4e51f1de212e54,TCR,2024-06-21_12h46.51.047,LearnStrategy,2023.2.3,Win32,61.34969325,1,1,4,0.006481481,-0.012037037,1,0,0,1.595,rock_grid_rect_2,5,09,-1,-1,1.595,-0.380555556,-0.403703704,1,0,0,1.9692,Obsidian_rect,5,1.969,1,3,0,3,0,1,,,,,,,,,,,,,
6544fd84cf4e51f1de212e54,TCR,2024-06-21_12h46.51.047,LearnStrategy,2023.2.3,Win32,61.34969325,1,1,5,0.003703704,-0.015740741,1,0,0,1.2709,rock_grid_rect_2,2,11,-1,-1,1.271,0.133333333,-0.267592593,1,0,0,5.2167,Diorite_rect,3,5.217,0,4,0,4,0,1,,,,,,,,,,,,,
6544fd84cf4e51f1de212e54,TCR,2024-06-21_12h46.51.047,LearnStrategy,2023.2.3,Win32,61.34969325,1,1,6,-0.017592593,0.009259259,1,0,0,1.3358,rock_grid_rect_2,7,12,-1,-1,1.336,0.362037037,-0.228703704,1,0,0,4.0312,Gabbro_rect,4,4.031,0,5,0,5,0,1,,,,,,,,,,,,,
6544fd84cf4e51f1de212e54,TCR,2024-06-21_12h46.51.047,LearnStrategy,2023.2.3,Win32,61.34969325,1,1,7,0.066666667,-0.003703704,1,0,0,1.0622,rock_grid_rect_2,8,10,-1,-1,1.062,0.327777778,-0.380555556,1,0,0,1.5361,Pumice_rect,8,1.536,1,6,0,6,0,1,,,,,,,,,,,,,
6544fd84cf4e51f1de212e54,TCR,2024-06-21_12h46.51.047,LearnStrategy,2023.2.3,Win32,61.34969325,1,1,8,0.034259259,-0.014814815,1,0,0,0.9996,rock_grid_rect_2,1,10,-1,-1,1,0.124074074,-0.256481481,1,0,0,3.5709,Diorite_rect,3,3.571,0,7,0,7,0,1,,,,,,,,,,,,,
6544fd84cf4e51f1de212e54,TCR,2024-06-21_12h46.51.047,LearnStrategy,2023.2.3,Win32,61.34969325,1,1,9,0.006481481,-0.006481481,1,0,0,0.9186,rock_grid_rect_2,3,13,-1,-1,0.919,-0.140740741,-0.387962963,1,0,0,2.3484,Pegmatite_rect,6,2.348,0,8,0,8,0,1,,,,,,,,,,,,,
6544fd84cf4e51f1de212e54,TCR,2024-06-21_12h46.51.047,LearnStrategy,2023.2.3,Win32,61.34969325,1,1,10,-0.012037037,0.000925926,1,0,0,0.878,rock_grid_rect_2,3,14,-1,-1,0.878,-0.086111111,-0.405555556,1,0,0,5.6065,Pegmatite_rect,6,5.606,0,9,0,9,0,1,,,,,,,,,,,,,
6544fd84cf4e51f1de212e54,TCR,2024-06-21_12h46.51.047,LearnStrategy,2023.2.3,Win32,61.34969325,1,1,11,0.00462963,-0.011111111,1,0,0,0.9599,rock_grid_rect_2,1,14,-1,-1,0.96,-0.082407407,-0.243518519,1,0,0,4.9401,Basalt_rect,2,4.94,0,10,0,10,0,1,,,,,,,,,,,,,
6544fd84cf4e51f1de212e54,TCR,2024-06-21_12h46.51.047,LearnStrategy,2023.2.3,Win32,61.34969325,1,1,12,0.007407407,-0.022222222,1,0,0,0.9451,rock_grid_rect_2,6,09,-1,-1,0.945,0.387962963,-0.242592593,1,0,0,4.7553,Gabbro_rect,4,4.755,0,11,0,11,0,1,,,,,,,,,,,,,
6544fd84cf4e51f1de212e54,TCR,2024-06-21_12h46.51.047,LearnStrategy,2023.2.3,Win32,61.34969325,1,1,13,-0.001851852,-0.02037037,1,0,0,1.0894,rock_grid_rect_2,2,16,-1,-1,1.089,-0.135185185,-0.242592593,1,0,0,3.5318,Basalt_rect,2,3.532,1,12,0,12,0,1,,,,,,,,,,,,,
6544fd84cf4e51f1de212e54,TCR,2024-06-21_12h46.51.047,LearnStrategy,2023.2.3,Win32,61.34969325,1,1,14,0.005555556,-0.007407407,1,0,0,0.8658,rock_grid_rect_2,7,14,-1,-1,0.866,0.427777778,-0.268518519,1,0,0,3.1549,Gabbro_rect,4,3.155,0,13,0,13,0,1,,,,,,,,,,,,,
6544fd84cf4e51f1de212e54,TCR,2024-06-21_12h46.51.047,LearnStrategy,2023.2.3,Win32,61.34969325,1,1,15,-0.056481481,0,1,0,0,1.011,rock_grid_rect_2,8,16,-1,-1,1.011,0.42037037,-0.394444444,1,0,0,2.9712,Pumice_rect,8,2.971,1,14,0,14,0,1,,,,,,,,,,,,,
6544fd84cf4e51f1de212e54,TCR,2024-06-21_12h46.51.047,LearnStrategy,2023.2.3,Win32,61.34969325,1,1,16,-0.010185185,0.003703704,1,0,0,0.8832,rock_grid_rect_2,4,11,-1,-1,0.883,-0.357407407,-0.25462963,1,0,0,10.3943,Andesite_rect,1,10.394,0,15,0,15,0,1,,,,,,,,,,,,,
6544fd84cf4e51f1de212e54,TCR,2024-06-21_12h46.51.047,LearnStrategy,2023.2.3,Win32,61.34969325,1,2,1,,,,,,,,1,02,,,,,,,,,,,1,14.828,1,,,,,,-0.372222222,-0.230555556,1,0,0,14.8277,Andesite_rect,0,0,0,0,1,
6544fd84cf4e51f1de212e54,TCR,2024-06-21_12h46.51.047,LearnStrategy,2023.2.3,Win32,61.34969325,1,2,2,,,,,,,,7,15,,,,,,,,,,,7,13.21,1,,,,,,0.087962963,-0.396296296,1,0,0,13.2096,Peridotite_rect,1,0,1,0,1,
6544fd84cf4e51f1de212e54,TCR,2024-06-21_12h46.51.047,LearnStrategy,2023.2.3,Win32,61.34969325,1,2,3,,,,,,,,2,05,,,,,,,,,,,2,7.12,1,,,,,,-0.143518519,-0.228703704,1,0,0,7.12,Basalt_rect,2,0,2,0,1,
6544fd84cf4e51f1de212e54,TCR,2024-06-21_12h46.51.047,LearnStrategy,2023.2.3,Win32,61.34969325,1,2,4,,,,,,,,8,02,,,,,,,,,,,8,2.482,1,,,,,,0.37962963,-0.393518519,1,0,0,2.4823,Pumice_rect,3,0,3,0,1,
6544fd84cf4e51f1de212e54,TCR,2024-06-21_12h46.51.047,LearnStrategy,2023.2.3,Win32,61.34969325,1,2,5,,,,,,,,7,06,,,,,,,,,,,3,12.392,0,,,,,,0.112962963,-0.252777778,1,0,0,12.392,Diorite_rect,4,0,4,0,1,
6544fd84cf4e51f1de212e54,TCR,2024-06-21_12h46.51.047,LearnStrategy,2023.2.3,Win32,61.34969325,1,2,6,,,,,,,,3,12,,,,,,,,,,,3,5.234,1,,,,,,0.117592593,-0.249074074,1,0,0,5.2342,Diorite_rect,5,0,5,0,1,
6544fd84cf4e51f1de212e54,TCR,2024-06-21_12h46.51.047,LearnStrategy,2023.2.3,Win32,61.34969325,1,2,7,,,,,,,,8,04,,,,,,,,,,,8,1.096,1,,,,,,0.326851852,-0.385185185,1,0,0,1.0965,Pumice_rect,6,0,6,0,1,
6544fd84cf4e51f1de212e54,TCR,2024-06-21_12h46.51.047,LearnStrategy,2023.2.3,Win32,61.34969325,1,2,8,,,,,,,,1,05,,,,,,,,,,,4,8.437,0,,,,,,0.394444444,-0.246296296,1,0,0,8.4373,Gabbro_rect,7,0,7,0,1,
6544fd84cf4e51f1de212e54,TCR,2024-06-21_12h46.51.047,LearnStrategy,2023.2.3,Win32,61.34969325,1,2,9,,,,,,,,4,13,,,,,,,,,,,1,19.117,0,,,,,,-0.408333333,-0.255555556,1,0,0,19.1167,Andesite_rect,8,0,8,0,1,
6544fd84cf4e51f1de212e54,TCR,2024-06-21_12h46.51.047,LearnStrategy,2023.2.3,Win32,61.34969325,1,2,10,,,,,,,,4,14,,,,,,,,,,,2,6.603,0,,,,,,-0.178703704,-0.258333333,1,0,0,6.6027,Basalt_rect,9,0,9,0,1,
6544fd84cf4e51f1de212e54,TCR,2024-06-21_12h46.51.047,LearnStrategy,2023.2.3,Win32,61.34969325,1,2,11,,,,,,,,5,06,,,,,,,,,,,5,1.915,1,,,,,,-0.348148148,-0.392592593,1,0,0,1.9145,Obsidian_rect,10,0,10,0,1,
6544fd84cf4e51f1de212e54,TCR,2024-06-21_12h46.51.047,LearnStrategy,2023.2.3,Win32,61.34969325,1,2,12,,,,,,,,5,10,,,,,,,,,,,5,1.459,1,,,,,,-0.342592593,-0.387962963,1,0,0,1.4588,Obsidian_rect,11,0,11,0,1,
6544fd84cf4e51f1de212e54,TCR,2024-06-21_12h46.51.047,LearnStrategy,2023.2.3,Win32,61.34969325,1,2,13,,,,,,,,2,06,,,,,,,,,,,2,4.234,1,,,,,,-0.064814815,-0.266666667,1,0,0,4.2341,Basalt_rect,12,0,12,0,1,
6544fd84cf4e51f1de212e54,TCR,2024-06-21_12h46.51.047,LearnStrategy,2023.2.3,Win32,61.34969325,1,2,14,,,,,,,,6,05,,,,,,,,,,,3,5.519,0,,,,,,0.088888889,-0.24537037,1,0,0,5.5187,Diorite_rect,13,0,13,0,1,
6544fd84cf4e51f1de212e54,TCR,2024-06-21_12h46.51.047,LearnStrategy,2023.2.3,Win32,61.34969325,1,2,15,,,,,,,,6,15,,,,,,,,,,,3,2.616,0,,,,,,0.088888889,-0.24537037,1,0,0,2.6157,Diorite_rect,14,0,14,0,1,
6544fd84cf4e51f1de212e54,TCR,2024-06-21_12h46.51.047,LearnStrategy,2023.2.3,Win32,61.34969325,1,2,16,,,,,,,,3,09,,,,,,,,,,,3,4.117,1,,,,,,0.088888889,-0.24537037,1,0,0,4.1166,Diorite_rect,15,0,15,0,1,
6544fd84cf4e51f1de212e54,TCR,2024-06-21_12h46.51.047,LearnStrategy,2023.2.3,Win32,61.34969325,2,1,1,-0.026851852,0,1,0,0,1.2001,rock_grid_rect_2,2,09,-1,-1,1.2,-0.115740741,-0.233333333,1,0,0,2.5486,Basalt_rect,2,2.549,1,0,0,0,0,1,,,,,,,,,,,,,
6544fd84cf4e51f1de212e54,TCR,2024-06-21_12h46.51.047,LearnStrategy,2023.2.3,Win32,61.34969325,2,1,2,0.024074074,-0.00462963,1,0,0,0.8489,rock_grid_rect_2,3,06,-1,-1,0.849,0.088888889,-0.232407407,1,0,0,7.6704,Diorite_rect,3,7.67,1,1,0,1,0,1,,,,,,,,,,,,,
6544fd84cf4e51f1de212e54,TCR,2024-06-21_12h46.51.047,LearnStrategy,2023.2.3,Win32,61.34969325,2,1,3,0.064814815,0.009259259,1,0,0,1.2169,rock_grid_rect_2,5,12,-1,-1,1.217,-0.385185185,-0.412962963,1,0,0,1.648,Obsidian_rect,5,1.648,1,2,0,2,0,1,,,,,,,,,,,,,
6544fd84cf4e51f1de212e54,TCR,2024-06-21_12h46.51.047,LearnStrategy,2023.2.3,Win32,61.34969325,2,1,4,-0.030555556,-0.019444444,1,0,0,0.9174,rock_grid_rect_2,1,01,-1,-1,0.917,0.344444444,-0.250925926,1,0,0,7.3034,Gabbro_rect,4,7.303,0,3,0,3,0,1,,,,,,,,,,,,,
6544fd84cf4e51f1de212e54,TCR,2024-06-21_12h46.51.047,LearnStrategy,2023.2.3,Win32,61.34969325,2,1,5,0.084259259,-0.003703704,1,0,0,1.0444,rock_grid_rect_2,4,12,-1,-1,1.044,-0.103703704,-0.247222222,1,0,0,11.7245,Basalt_rect,2,11.724,0,4,0,4,0,1,,,,,,,,,,,,,
6544fd84cf4e51f1de212e54,TCR,2024-06-21_12h46.51.047,LearnStrategy,2023.2.3,Win32,61.34969325,2,1,6,-0.044444444,-0.002777778,1,0,0,1.062,rock_grid_rect_2,4,12,-1,-1,1.062,0.44537037,-0.239814815,1,0,0,1.8309,Gabbro_rect,4,1.831,1,5,0,5,0,1,,,,,,,,,,,,,
6544fd84cf4e51f1de212e54,TCR,2024-06-21_12h46.51.047,LearnStrategy,2023.2.3,Win32,61.34969325,2,1,7,0.015740741,0.013888889,1,0,0,0.8491,rock_grid_rect_2,7,12,-1,-1,0.849,-0.39537037,-0.247222222,1,0,0,12.2255,Andesite_rect,1,12.226,0,6,0,6,0,1,,,,,,,,,,,,,
6544fd84cf4e51f1de212e54,TCR,2024-06-21_12h46.51.047,LearnStrategy,2023.2.3,Win32,61.34969325,2,1,8,-0.040740741,0.012962963,1,0,0,0.9111,rock_grid_rect_2,1,04,-1,-1,0.911,-0.360185185,-0.233333333,1,0,0,14.6943,Andesite_rect,1,14.694,1,7,0,7,0,1,,,,,,,,,,,,,
6544fd84cf4e51f1de212e54,TCR,2024-06-21_12h46.51.047,LearnStrategy,2023.2.3,Win32,61.34969325,2,1,9,0.025925926,-0.009259259,1,0,0,1.1168,rock_grid_rect_2,6,16,-1,-1,1.117,0.153703704,-0.268518519,1,0,0,4.4173,Diorite_rect,3,4.417,0,8,0,8,0,1,,,,,,,,,,,,,
6544fd84cf4e51f1de212e54,TCR,2024-06-21_12h46.51.047,LearnStrategy,2023.2.3,Win32,61.34969325,2,1,10,0.041666667,-0.021296296,1,0,0,0.8114,rock_grid_rect_2,7,16,-1,-1,0.811,0.457407407,-0.236111111,1,0,0,17.1297,Gabbro_rect,4,17.13,0,9,0,9,0,1,,,,,,,,,,,,,
6544fd84cf4e51f1de212e54,TCR,2024-06-21_12h46.51.047,LearnStrategy,2023.2.3,Win32,61.34969325,2,1,11,0.037037037,0.023148148,1,0,0,0.9166,rock_grid_rect_2,6,06,-1,-1,0.917,-0.10462963,-0.410185185,1,0,0,6.2525,Pegmatite_rect,6,6.252,1,10,0,10,0,1,,,,,,,,,,,,,
6544fd84cf4e51f1de212e54,TCR,2024-06-21_12h46.51.047,LearnStrategy,2023.2.3,Win32,61.34969325,2,1,12,0.025925926,-0.014814815,1,0,0,1.4332,rock_grid_rect_2,1,14,-1,-1,1.433,-0.350925926,-0.268518519,1,0,0,4.9516,Andesite_rect,1,4.952,1,11,0,11,0,1,,,,,,,,,,,,,
6544fd84cf4e51f1de212e54,TCR,2024-06-21_12h46.51.047,LearnStrategy,2023.2.3,Win32,61.34969325,2,1,13,0.006481481,-0.017592593,1,0,0,0.8328,rock_grid_rect_2,4,05,-1,-1,0.833,0.342592593,-0.260185185,1,0,0,7.8536,Gabbro_rect,4,7.854,1,12,0,12,0,1,,,,,,,,,,,,,
6544fd84cf4e51f1de212e54,TCR,2024-06-21_12h46.51.047,LearnStrategy,2023.2.3,Win32,61.34969325,2,1,14,0.062037037,-0.016666667,1,0,0,2.6843,rock_grid_rect_2,6,06,-1,-1,2.684,-0.101851852,-0.396296296,1,0,0,4.5014,Pegmatite_rect,6,4.501,1,13,0,13,0,1,,,,,,,,,,,,,
6544fd84cf4e51f1de212e54,TCR,2024-06-21_12h46.51.047,LearnStrategy,2023.2.3,Win32,61.34969325,2,1,15,0.025,0.002777778,1,0,0,0.8988,rock_grid_rect_2,6,13,-1,-1,0.899,-0.112037037,-0.388888889,1,0,0,15.9617,Pegmatite_rect,6,15.962,1,14,0,14,0,1,,,,,,,,,,,,,
6544fd84cf4e51f1de212e54,TCR,2024-06-21_12h46.51.047,LearnStrategy,2023.2.3,Win32,61.34969325,2,1,16,-0.017592593,0.011111111,1,0,0,1.0987,rock_grid_rect_2,4,11,-1,-1,1.099,-0.069444444,-0.256481481,1,0,0,2.8661,Basalt_rect,2,2.866,0,15,0,15,0,1,,,,,,,,,,,,,
6544fd84cf4e51f1de212e54,TCR,2024-06-21_12h46.51.047,LearnStrategy,2023.2.3,Win32,61.34969325,2,2,1,,,,,,,,1,03,,,,,,,,,,,4,14.693,0,,,,,,0.324074074,-0.25,1,0,0,14.6933,Gabbro_rect,0,0,0,0,1,
6544fd84cf4e51f1de212e54,TCR,2024-06-21_12h46.51.047,LearnStrategy,2023.2.3,Win32,61.34969325,2,2,2,,,,,,,,6,03,,,,,,,,,,,6,5.385,1,,,,,,-0.138888889,-0.401851852,1,0,0,5.3853,Pegmatite_rect,1,0,1,0,1,
6544fd84cf4e51f1de212e54,TCR,2024-06-21_12h46.51.047,LearnStrategy,2023.2.3,Win32,61.34969325,2,2,3,,,,,,,,7,04,,,,,,,,,,,6,2.565,0,,,,,,-0.10462963,-0.402777778,1,0,0,2.5655,Pegmatite_rect,2,0,2,0,1,
6544fd84cf4e51f1de212e54,TCR,2024-06-21_12h46.51.047,LearnStrategy,2023.2.3,Win32,61.34969325,2,2,4,,,,,,,,3,11,,,,,,,,,,,7,3.25,0,,,,,,0.127777778,-0.410185185,1,0,0,3.2501,Peridotite_rect,3,0,3,0,1,
6544fd84cf4e51f1de212e54,TCR,2024-06-21_12h46.51.047,LearnStrategy,2023.2.3,Win32,61.34969325,2,2,5,,,,,,,,1,16,,,,,,,,,,,3,9.189,0,,,,,,0.153703704,-0.246296296,1,0,0,9.1889,Diorite_rect,4,0,4,0,1,
6544fd84cf4e51f1de212e54,TCR,2024-06-21_12h46.51.047,LearnStrategy,2023.2.3,Win32,61.34969325,2,2,6,,,,,,,,2,10,,,,,,,,,,,5,3.099,0,,,,,,-0.311111111,-0.391666667,1,0,0,3.0987,Obsidian_rect,5,0,5,0,1,
6544fd84cf4e51f1de212e54,TCR,2024-06-21_12h46.51.047,LearnStrategy,2023.2.3,Win32,61.34969325,2,2,7,,,,,,,,5,05,,,,,,,,,,,5,0.881,1,,,,,,-0.32962963,-0.39537037,1,0,0,0.8808,Obsidian_rect,6,0,6,0,1,
6544fd84cf4e51f1de212e54,TCR,2024-06-21_12h46.51.047,LearnStrategy,2023.2.3,Win32,61.34969325,2,2,8,,,,,,,,7,10,,,,,,,,,,,4,6.304,0,,,,,,0.439814815,-0.240740741,1,0,0,6.3038,Gabbro_rect,7,0,7,0,1,
6544fd84cf4e51f1de212e54,TCR,2024-06-21_12h46.51.047,LearnStrategy,2023.2.3,Win32,61.34969325,2,2,9,,,,,,,,4,01,,,,,,,,,,,1,6.937,0,,,,,,-0.415740741,-0.251851852,1,0,0,6.9374,Andesite_rect,8,0,8,0,1,
6544fd84cf4e51f1de212e54,TCR,2024-06-21_12h46.51.047,LearnStrategy,2023.2.3,Win32,61.34969325,2,2,10,,,,,,,,4,03,,,,,,,,,,,4,6.086,1,,,,,,0.465740741,-0.240740741,1,0,0,6.0859,Gabbro_rect,9,0,9,0,1,
6544fd84cf4e51f1de212e54,TCR,2024-06-21_12h46.51.047,LearnStrategy,2023.2.3,Win32,61.34969325,2,2,11,,,,,,,,8,03,,,,,,,,,,,8,1.847,1,,,,,,0.401851852,-0.406481481,1,0,0,1.8472,Pumice_rect,10,0,10,0,1,
6544fd84cf4e51f1de212e54,TCR,2024-06-21_12h46.51.047,LearnStrategy,2023.2.3,Win32,61.34969325,2,2,12,,,,,,,,3,08,,,,,,,,,,,3,5.768,1,,,,,,0.173148148,-0.24537037,1,0,0,5.768,Diorite_rect,11,0,11,0,1,
6544fd84cf4e51f1de212e54,TCR,2024-06-21_12h46.51.047,LearnStrategy,2023.2.3,Win32,61.34969325,2,2,13,,,,,,,,8,09,,,,,,,,,,,8,1.397,1,,,,,,0.35462963,-0.4,1,0,0,1.3973,Pumice_rect,12,0,12,0,1,
6544fd84cf4e51f1de212e54,TCR,2024-06-21_12h46.51.047,LearnStrategy,2023.2.3,Win32,61.34969325,2,2,14,,,,,,,,2,14,,,,,,,,,,,2,5.152,1,,,,,,-0.127777778,-0.259259259,1,0,0,5.152,Basalt_rect,13,0,13,0,1,
6544fd84cf4e51f1de212e54,TCR,2024-06-21_12h46.51.047,LearnStrategy,2023.2.3,Win32,61.34969325,2,2,15,,,,,,,,6,07,,,,,,,,,,,6,10.408,1,,,,,,-0.085185185,-0.387962963,1,0,0,10.4082,Pegmatite_rect,14,0,14,0,1,
6544fd84cf4e51f1de212e54,TCR,2024-06-21_12h46.51.047,LearnStrategy,2023.2.3,Win32,61.34969325,2,2,16,,,,,,,,5,07,,,,,,,,,,,5,2.382,1,,,,,,-0.344444444,-0.385185185,1,0,0,2.3821,Obsidian_rect,15,0,15,0,1,
6544fd84cf4e51f1de212e54,TCR,2024-06-21_12h46.51.047,LearnStrategy,2023.2.3,Win32,61.34969325,3,1,1,0.012962963,-0.001851852,1,0,0,1.0498,rock_grid_rect_2,4,12,-1,-1,1.05,0.449074074,-0.265740741,1,0,0,6.2028,Gabbro_rect,4,6.203,1,0,0,0,0,1,,,,,,,,,,,,,
6544fd84cf4e51f1de212e54,TCR,2024-06-21_12h46.51.047,LearnStrategy,2023.2.3,Win32,61.34969325,3,1,2,0.026851852,0.014814815,1,0,0,0.8488,rock_grid_rect_2,6,06,-1,-1,0.849,-0.091666667,-0.407407407,1,0,0,6.4028,Pegmatite_rect,6,6.403,1,1,0,1,0,1,,,,,,,,,,,,,
6544fd84cf4e51f1de212e54,TCR,2024-06-21_12h46.51.047,LearnStrategy,2023.2.3,Win32,61.34969325,3,1,3,0.023148148,0,1,0,0,0.9499,rock_grid_rect_2,3,15,-1,-1,0.95,0.136111111,-0.232407407,1,0,0,15.2945,Diorite_rect,3,15.295,1,2,0,2,0,1,,,,,,,,,,,,,
6544fd84cf4e51f1de212e54,TCR,2024-06-21_12h46.51.047,LearnStrategy,2023.2.3,Win32,61.34969325,3,1,4,0.052777778,0.009259259,1,0,0,3.4466,rock_grid_rect_2,2,16,-1,-1,3.447,-0.106481481,-0.25462963,1,0,0,3.3662,Basalt_rect,2,3.366,1,3,0,3,0,1,,,,,,,,,,,,,
6544fd84cf4e51f1de212e54,TCR,2024-06-21_12h46.51.047,LearnStrategy,2023.2.3,Win32,61.34969325,3,1,5,0.015740741,-0.000925926,1,0,0,0.8324,rock_grid_rect_2,1,04,-1,-1,0.832,-0.344444444,-0.236111111,1,0,0,20.4169,Andesite_rect,1,20.417,1,4,0,4,0,1,,,,,,,,,,,,,
6544fd84cf4e51f1de212e54,TCR,2024-06-21_12h46.51.047,LearnStrategy,2023.2.3,Win32,61.34969325,3,1,6,-0.022222222,0.007407407,1,0,0,1.0623,rock_grid_rect_2,2,09,-1,-1,1.062,-0.115740741,-0.24537037,1,0,0,16.6461,Basalt_rect,2,16.646,1,5,0,5,0,1,,,,,,,,,,,,,
6544fd84cf4e51f1de212e54,TCR,2024-06-21_12h46.51.047,LearnStrategy,2023.2.3,Win32,61.34969325,3,1,7,0.037962963,-0.002777778,1,0,0,1.0994,rock_grid_rect_2,7,14,-1,-1,1.099,0.074074074,-0.387962963,1,0,0,4.7842,Peridotite_rect,7,4.784,1,6,0,6,0,1,,,,,,,,,,,,,
6544fd84cf4e51f1de212e54,TCR,2024-06-21_12h46.51.047,LearnStrategy,2023.2.3,Win32,61.34969325,3,1,8,0.008333333,-0.000925926,1,0,0,1.2667,rock_grid_rect_2,1,10,-1,-1,1.267,-0.382407407,-0.237037037,1,0,0,4.0664,Andesite_rect,1,4.066,1,7,0,7,0,1,,,,,,,,,,,,,
6544fd84cf4e51f1de212e54,TCR,2024-06-21_12h46.51.047,LearnStrategy,2023.2.3,Win32,61.34969325,3,1,9,-0.027777778,-0.000925926,1,0,0,0.7824,rock_grid_rect_2,4,08,-1,-1,0.782,0.376851852,-0.232407407,1,0,0,7.9877,Gabbro_rect,4,7.988,1,8,0,8,0,1,,,,,,,,,,,,,
6544fd84cf4e51f1de212e54,TCR,2024-06-21_12h46.51.047,LearnStrategy,2023.2.3,Win32,61.34969325,3,1,10,-0.007407407,-0.003703704,1,0,0,0.8491,rock_grid_rect_2,6,08,-1,-1,0.849,-0.09537037,-0.405555556,1,0,0,8.138,Pegmatite_rect,6,8.138,1,9,0,9,0,1,,,,,,,,,,,,,
6544fd84cf4e51f1de212e54,TCR,2024-06-21_12h46.51.047,LearnStrategy,2023.2.3,Win32,61.34969325,3,1,11,-0.011111111,-0.010185185,1,0,0,0.933,rock_grid_rect_2,4,08,-1,-1,0.933,-0.356481481,-0.255555556,1,0,0,9.1558,Andesite_rect,1,9.156,0,10,0,10,0,1,,,,,,,,,,,,,
6544fd84cf4e51f1de212e54,TCR,2024-06-21_12h46.51.047,LearnStrategy,2023.2.3,Win32,61.34969325,3,1,12,-0.012962963,0.024074074,1,0,0,0.8154,rock_grid_rect_2,7,12,-1,-1,0.815,0.137037037,-0.406481481,1,0,0,4.1172,Peridotite_rect,7,4.117,1,11,0,11,0,1,,,,,,,,,,,,,
6544fd84cf4e51f1de212e54,TCR,2024-06-21_12h46.51.047,LearnStrategy,2023.2.3,Win32,61.34969325,3,1,13,-0.021296296,0.010185185,1,0,0,1.0502,rock_grid_rect_2,5,08,-1,-1,1.05,-0.355555556,-0.4,1,0,0,1.1975,Obsidian_rect,5,1.197,1,12,0,12,0,1,,,,,,,,,,,,,
6544fd84cf4e51f1de212e54,TCR,2024-06-21_12h46.51.047,LearnStrategy,2023.2.3,Win32,61.34969325,3,1,14,-0.031481481,-0.011111111,1,0,0,0.9666,rock_grid_rect_2,7,02,-1,-1,0.967,0.100925926,-0.398148148,1,0,0,5.6521,Peridotite_rect,7,5.652,1,13,0,13,0,1,,,,,,,,,,,,,
6544fd84cf4e51f1de212e54,TCR,2024-06-21_12h46.51.047,LearnStrategy,2023.2.3,Win32,61.34969325,3,1,15,0.012037037,0.007407407,1,0,0,1.301,rock_grid_rect_2,1,09,-1,-1,1.301,0.447222222,-0.252777778,1,0,0,10.8729,Gabbro_rect,4,10.873,0,14,0,14,0,1,,,,,,,,,,,,,
6544fd84cf4e51f1de212e54,TCR,2024-06-21_12h46.51.047,LearnStrategy,2023.2.3,Win32,61.34969325,3,1,16,0.07037037,0.00462963,1,0,0,0.9825,rock_grid_rect_2,3,06,-1,-1,0.983,0.163888889,-0.236111111,1,0,0,6.8531,Diorite_rect,3,6.853,1,15,0,15,0,1,,,,,,,,,,,,,
6544fd84cf4e51f1de212e54,TCR,2024-06-21_12h46.51.047,LearnStrategy,2023.2.3,Win32,61.34969325,3,2,1,,,,,,,,6,11,,,,,,,,,,,6,4.451,1,,,,,,-0.112037037,-0.4,1,0,0,4.4514,Pegmatite_rect,0,0,0,0,1,
6544fd84cf4e51f1de212e54,TCR,2024-06-21_12h46.51.047,LearnStrategy,2023.2.3,Win32,61.34969325,3,2,2,,,,,,,,4,10,,,,,,,,,,,1,4.901,0,,,,,,-0.402777778,-0.253703704,1,0,0,4.9009,Andesite_rect,1,0,1,0,1,
6544fd84cf4e51f1de212e54,TCR,2024-06-21_12h46.51.047,LearnStrategy,2023.2.3,Win32,61.34969325,3,2,3,,,,,,,,6,10,,,,,,,,,,,6,7.22,1,,,,,,-0.144444444,-0.391666667,1,0,0,7.2197,Pegmatite_rect,2,0,2,0,1,
6544fd84cf4e51f1de212e54,TCR,2024-06-21_12h46.51.047,LearnStrategy,2023.2.3,Win32,61.34969325,3,2,4,,,,,,,,2,02,,,,,,,,,,,2,2.065,1,,,,,,-0.115740741,-0.267592593,1,0,0,2.0655,Basalt_rect,3,0,3,0,1,
6544fd84cf4e51f1de212e54,TCR,2024-06-21_12h46.51.047,LearnStrategy,2023.2.3,Win32,61.34969325,3,2,5,,,,,,,,8,13,,,,,,,,,,,8,1.631,1,,,,,,0.397222222,-0.411111111,1,0,0,1.631,Pumice_rect,4,0,4,0,1,
6544fd84cf4e51f1de212e54,TCR,2024-06-21_12h46.51.047,LearnStrategy,2023.2.3,Win32,61.34969325,3,2,6,,,,,,,,5,04,,,,,,,,,,,5,0.947,1,,,,,,-0.37037037,-0.384259259,1,0,0,0.9472,Obsidian_rect,5,0,5,0,1,
6544fd84cf4e51f1de212e54,TCR,2024-06-21_12h46.51.047,LearnStrategy,2023.2.3,Win32,61.34969325,3,2,7,,,,,,,,8,15,,,,,,,,,,,8,3.05,1,,,,,,0.362962963,-0.401851852,1,0,0,3.0498,Pumice_rect,6,0,6,0,1,
6544fd84cf4e51f1de212e54,TCR,2024-06-21_12h46.51.047,LearnStrategy,2023.2.3,Win32,61.34969325,3,2,8,,,,,,,,7,08,,,,,,,,,,,4,9.722,0,,,,,,0.363888889,-0.260185185,1,0,0,9.7222,Gabbro_rect,7,0,7,0,1,
6544fd84cf4e51f1de212e54,TCR,2024-06-21_12h46.51.047,LearnStrategy,2023.2.3,Win32,61.34969325,3,2,9,,,,,,,,1,07,,,,,,,,,,,3,4.751,0,,,,,,0.158333333,-0.249074074,1,0,0,4.7511,Diorite_rect,8,0,8,0,1,
6544fd84cf4e51f1de212e54,TCR,2024-06-21_12h46.51.047,LearnStrategy,2023.2.3,Win32,61.34969325,3,2,10,,,,,,,,5,11,,,,,,,,,,,5,1.03,1,,,,,,-0.352777778,-0.411111111,1,0,0,1.0302,Obsidian_rect,9,0,9,0,1,
6544fd84cf4e51f1de212e54,TCR,2024-06-21_12h46.51.047,LearnStrategy,2023.2.3,Win32,61.34969325,3,2,11,,,,,,,,3,07,,,,,,,,,,,3,3.549,1,,,,,,0.190740741,-0.264814815,1,0,0,3.5491,Diorite_rect,10,0,10,0,1,
6544fd84cf4e51f1de212e54,TCR,2024-06-21_12h46.51.047,LearnStrategy,2023.2.3,Win32,61.34969325,3,2,12,,,,,,,,2,01,,,,,,,,,,,2,2.616,1,,,,,,-0.083333333,-0.268518519,1,0,0,2.6159,Basalt_rect,11,0,11,0,1,
6544fd84cf4e51f1de212e54,TCR,2024-06-21_12h46.51.047,LearnStrategy,2023.2.3,Win32,61.34969325,3,2,13,,,,,,,,3,16,,,,,,,,,,,3,2.282,1,,,,,,0.091666667,-0.261111111,1,0,0,2.2818,Diorite_rect,12,0,12,0,1,
6544fd84cf4e51f1de212e54,TCR,2024-06-21_12h46.51.047,LearnStrategy,2023.2.3,Win32,61.34969325,3,2,14,,,,,,,,4,16,,,,,,,,,,,4,6.52,1,,,,,,0.349074074,-0.253703704,1,0,0,6.5196,Gabbro_rect,13,0,13,0,1,
6544fd84cf4e51f1de212e54,TCR,2024-06-21_12h46.51.047,LearnStrategy,2023.2.3,Win32,61.34969325,3,2,15,,,,,,,,7,07,,,,,,,,,,,4,5.435,0,,,,,,0.35462963,-0.253703704,1,0,0,5.4353,Gabbro_rect,14,0,14,0,1,
6544fd84cf4e51f1de212e54,TCR,2024-06-21_12h46.51.047,LearnStrategy,2023.2.3,Win32,61.34969325,3,2,16,,,,,,,,1,06,,,,,,,,,,,1,2.515,1,,,,,,-0.441666667,-0.25462963,1,0,0,2.515,Andesite_rect,15,0,15,0,1,
6544fd84cf4e51f1de212e54,TCR,2024-06-21_12h46.51.047,LearnStrategy,2023.2.3,Win32,61.34969325,4,1,1,0.074074074,0.010185185,1,0,0,6.8727,rock_grid_rect_2,5,16,-1,-1,6.873,-0.368518519,-0.396296296,1,0,0,1.2623,Obsidian_rect,5,1.262,1,0,0,0,0,1,,,,,,,,,,,,,
6544fd84cf4e51f1de212e54,TCR,2024-06-21_12h46.51.047,LearnStrategy,2023.2.3,Win32,61.34969325,4,1,2,0.075,-0.006481481,1,0,0,0.9163,rock_grid_rect_2,7,16,-1,-1,0.916,0.388888889,-0.251851852,1,0,0,10.0236,Gabbro_rect,4,10.024,0,1,0,1,0,1,,,,,,,,,,,,,
6544fd84cf4e51f1de212e54,TCR,2024-06-21_12h46.51.047,LearnStrategy,2023.2.3,Win32,61.34969325,4,1,3,-0.027777778,-0.012962963,1,0,0,1.0446,rock_grid_rect_2,7,05,-1,-1,1.045,-0.37962963,-0.24537037,1,0,0,8.1045,Andesite_rect,1,8.105,0,2,0,2,0,1,,,,,,,,,,,,,
6544fd84cf4e51f1de212e54,TCR,2024-06-21_12h46.51.047,LearnStrategy,2023.2.3,Win32,61.34969325,4,1,4,0.025925926,0.010185185,1,0,0,0.9449,rock_grid_rect_2,8,14,-1,-1,0.945,0.456481481,-0.42037037,1,0,0,1.1979,Pumice_rect,8,1.198,1,3,0,3,0,1,,,,,,,,,,,,,
6544fd84cf4e51f1de212e54,TCR,2024-06-21_12h46.51.047,LearnStrategy,2023.2.3,Win32,61.34969325,4,1,5,0.062962963,-0.021296296,1,0,0,0.9497,rock_grid_rect_2,4,05,-1,-1,0.95,0.140740741,-0.412037037,1,0,0,4,Peridotite_rect,7,4,0,4,0,4,0,1,,,,,,,,,,,,,
6544fd84cf4e51f1de212e54,TCR,2024-06-21_12h46.51.047,LearnStrategy,2023.2.3,Win32,61.34969325,4,1,6,-0.025925926,-0.009259259,1,0,0,0.8943,rock_grid_rect_2,7,13,-1,-1,0.894,-0.07962963,-0.396296296,1,0,0,11.074,Pegmatite_rect,6,11.074,0,5,0,5,0,1,,,,,,,,,,,,,
6544fd84cf4e51f1de212e54,TCR,2024-06-21_12h46.51.047,LearnStrategy,2023.2.3,Win32,61.34969325,4,1,7,-0.035185185,0.012962963,1,0,0,0.8662,rock_grid_rect_2,3,02,-1,-1,0.866,0.123148148,-0.262037037,1,0,0,3.5659,Diorite_rect,3,3.566,1,6,0,6,0,1,,,,,,,,,,,,,
6544fd84cf4e51f1de212e54,TCR,2024-06-21_12h46.51.047,LearnStrategy,2023.2.3,Win32,61.34969325,4,1,8,0.025925926,-0.005555556,1,0,0,1.0999,rock_grid_rect_2,2,11,-1,-1,1.1,0.421296296,-0.247222222,1,0,0,4.6673,Gabbro_rect,4,4.667,0,7,0,7,0,1,,,,,,,,,,,,,
6544fd84cf4e51f1de212e54,TCR,2024-06-21_12h46.51.047,LearnStrategy,2023.2.3,Win32,61.34969325,4,1,9,-0.102777778,-0.021296296,1,0,0,0.7627,rock_grid_rect_2,1,04,-1,-1,0.763,-0.37037037,-0.235185185,1,0,0,1.7639,Andesite_rect,1,1.764,1,8,0,8,0,1,,,,,,,,,,,,,
6544fd84cf4e51f1de212e54,TCR,2024-06-21_12h46.51.047,LearnStrategy,2023.2.3,Win32,61.34969325,4,1,10,-0.014814815,0.013888889,1,0,0,0.8162,rock_grid_rect_2,3,13,-1,-1,0.816,0.099074074,-0.387962963,1,0,0,6.1022,Peridotite_rect,7,6.102,0,9,0,9,0,1,,,,,,,,,,,,,
6544fd84cf4e51f1de212e54,TCR,2024-06-21_12h46.51.047,LearnStrategy,2023.2.3,Win32,61.34969325,4,1,11,0.024074074,-0.011111111,1,0,0,0.9989,rock_grid_rect_2,1,11,-1,-1,0.999,-0.375925926,-0.249074074,1,0,0,1.5476,Andesite_rect,1,1.548,1,10,0,10,0,1,,,,,,,,,,,,,
6544fd84cf4e51f1de212e54,TCR,2024-06-21_12h46.51.047,LearnStrategy,2023.2.3,Win32,61.34969325,4,1,12,0.02037037,-0.014814815,1,0,0,0.8495,rock_grid_rect_2,7,02,-1,-1,0.85,0.103703704,-0.416666667,1,0,0,2.3986,Peridotite_rect,7,2.399,1,11,0,11,0,1,,,,,,,,,,,,,
6544fd84cf4e51f1de212e54,TCR,2024-06-21_12h46.51.047,LearnStrategy,2023.2.3,Win32,61.34969325,4,1,13,0.030555556,0.016666667,1,0,0,0.8671,rock_grid_rect_2,6,12,-1,-1,0.867,-0.334259259,-0.258333333,1,0,0,17.6633,Andesite_rect,1,17.663,0,12,0,12,0,1,,,,,,,,,,,,,
6544fd84cf4e51f1de212e54,TCR,2024-06-21_12h46.51.047,LearnStrategy,2023.2.3,Win32,61.34969325,4,1,14,0.062962963,-0.022222222,1,0,0,0.9662,rock_grid_rect_2,4,15,-1,-1,0.966,0.123148148,-0.234259259,1,0,0,8.4547,Diorite_rect,3,8.455,0,13,0,13,0,1,,,,,,,,,,,,,
6544fd84cf4e51f1de212e54,TCR,2024-06-21_12h46.51.047,LearnStrategy,2023.2.3,Win32,61.34969325,4,1,15,0.012962963,-0.006481481,1,0,0,1.0823,rock_grid_rect_2,4,12,-1,-1,1.082,-0.09537037,-0.24537037,1,0,0,1.6644,Basalt_rect,2,1.664,0,14,0,14,0,1,,,,,,,,,,,,,
6544fd84cf4e51f1de212e54,TCR,2024-06-21_12h46.51.047,LearnStrategy,2023.2.3,Win32,61.34969325,4,1,16,0.002777778,-0.014814815,1,0,0,0.9499,rock_grid_rect_2,1,09,-1,-1,0.95,-0.113888889,-0.250925926,1,0,0,1.1467,Basalt_rect,2,1.147,0,15,0,15,0,1,,,,,,,,,,,,,
6544fd84cf4e51f1de212e54,TCR,2024-06-21_12h46.51.047,LearnStrategy,2023.2.3,Win32,61.34969325,4,2,1,,,,,,,,1,06,,,,,,,,,,,1,2.198,1,,,,,,-0.375925926,-0.243518519,1,0,0,2.1984,Andesite_rect,0,0,0,0,1,
6544fd84cf4e51f1de212e54,TCR,2024-06-21_12h46.51.047,LearnStrategy,2023.2.3,Win32,61.34969325,4,2,2,,,,,,,,2,02,,,,,,,,,,,2,9.29,1,,,,,,-0.073148148,-0.257407407,1,0,0,9.2898,Basalt_rect,1,0,1,0,1,
6544fd84cf4e51f1de212e54,TCR,2024-06-21_12h46.51.047,LearnStrategy,2023.2.3,Win32,61.34969325,4,2,3,,,,,,,,8,03,,,,,,,,,,,8,1.197,1,,,,,,0.340740741,-0.411111111,1,0,0,1.1968,Pumice_rect,2,0,2,0,1,
6544fd84cf4e51f1de212e54,TCR,2024-06-21_12h46.51.047,LearnStrategy,2023.2.3,Win32,61.34969325,4,2,4,,,,,,,,1,07,,,,,,,,,,,3,17.447,0,,,,,,0.126851852,-0.266666667,1,0,0,17.4475,Diorite_rect,3,0,3,0,1,
6544fd84cf4e51f1de212e54,TCR,2024-06-21_12h46.51.047,LearnStrategy,2023.2.3,Win32,61.34969325,4,2,5,,,,,,,,4,16,,,,,,,,,,,2,6.87,0,,,,,,-0.150925926,-0.246296296,1,0,0,6.8699,Basalt_rect,4,0,4,0,1,
6544fd84cf4e51f1de212e54,TCR,2024-06-21_12h46.51.047,LearnStrategy,2023.2.3,Win32,61.34969325,4,2,6,,,,,,,,4,14,,,,,,,,,,,2,2.215,0,,,,,,-0.150925926,-0.246296296,1,0,0,2.2147,Basalt_rect,5,0,5,0,1,
6544fd84cf4e51f1de212e54,TCR,2024-06-21_12h46.51.047,LearnStrategy,2023.2.3,Win32,61.34969325,4,2,7,,,,,,,,3,08,,,,,,,,,,,3,3.75,1,,,,,,0.153703704,-0.263888889,1,0,0,3.75,Diorite_rect,6,0,6,0,1,
6544fd84cf4e51f1de212e54,TCR,2024-06-21_12h46.51.047,LearnStrategy,2023.2.3,Win32,61.34969325,4,2,8,,,,,,,,3,12,,,,,,,,,,,3,1.165,1,,,,,,0.102777778,-0.255555556,1,0,0,1.1647,Diorite_rect,7,0,7,0,1,
6544fd84cf4e51f1de212e54,TCR,2024-06-21_12h46.51.047,LearnStrategy,2023.2.3,Win32,61.34969325,4,2,9,,,,,,,,5,06,,,,,,,,,,,5,3.817,1,,,,,,-0.340740741,-0.406481481,1,0,0,3.8172,Obsidian_rect,8,0,8,0,1,
6544fd84cf4e51f1de212e54,TCR,2024-06-21_12h46.51.047,LearnStrategy,2023.2.3,Win32,61.34969325,4,2,10,,,,,,,,2,05,,,,,,,,,,,2,1.764,1,,,,,,-0.130555556,-0.261111111,1,0,0,1.7635,Basalt_rect,9,0,9,0,1,
6544fd84cf4e51f1de212e54,TCR,2024-06-21_12h46.51.047,LearnStrategy,2023.2.3,Win32,61.34969325,4,2,11,,,,,,,,7,04,,,,,,,,,,,7,6.815,1,,,,,,0.097222222,-0.4,1,0,0,6.815,Peridotite_rect,10,0,10,0,1,
6544fd84cf4e51f1de212e54,TCR,2024-06-21_12h46.51.047,LearnStrategy,2023.2.3,Win32,61.34969325,4,2,12,,,,,,,,6,11,,,,,,,,,,,6,2.699,1,,,,,,-0.128703704,-0.407407407,1,0,0,2.6989,Pegmatite_rect,11,0,11,0,1,
6544fd84cf4e51f1de212e54,TCR,2024-06-21_12h46.51.047,LearnStrategy,2023.2.3,Win32,61.34969325,4,2,13,,,,,,,,8,02,,,,,,,,,,,8,1.13,1,,,,,,0.328703704,-0.387037037,1,0,0,1.1299,Pumice_rect,12,0,12,0,1,
6544fd84cf4e51f1de212e54,TCR,2024-06-21_12h46.51.047,LearnStrategy,2023.2.3,Win32,61.34969325,4,2,14,,,,,,,,5,10,,,,,,,,,,,5,1.197,1,,,,,,-0.385185185,-0.412037037,1,0,0,1.1973,Obsidian_rect,13,0,13,0,1,
6544fd84cf4e51f1de212e54,TCR,2024-06-21_12h46.51.047,LearnStrategy,2023.2.3,Win32,61.34969325,4,2,15,,,,,,,,7,06,,,,,,,,,,,6,2.899,0,,,,,,-0.197222222,-0.401851852,1,0,0,2.8992,Pegmatite_rect,14,0,14,0,1,
6544fd84cf4e51f1de212e54,TCR,2024-06-21_12h46.51.047,LearnStrategy,2023.2.3,Win32,61.34969325,4,2,16,,,,,,,,6,10,,,,,,,,,,,7,1.848,0,,,,,,0.114814815,-0.407407407,1,0,0,1.8482,Peridotite_rect,15,0,15,0,1,
6544fd84cf4e51f1de212e54,TCR,2024-06-21_12h46.51.047,LearnStrategy,2023.2.3,Win32,61.34969325,5,1,1,0.075,-0.017592593,1,0,0,1.3337,rock_grid_rect_2,3,15,-1,-1,1.334,0.146296296,-0.253703704,1,0,0,3.2837,Diorite_rect,3,3.284,1,0,0,0,0,1,,,,,,,,,,,,,
6544fd84cf4e51f1de212e54,TCR,2024-06-21_12h46.51.047,LearnStrategy,2023.2.3,Win32,61.34969325,5,1,2,0.012037037,-0.005555556,1,0,0,0.866,rock_grid_rect_2,4,09,-1,-1,0.866,0.373148148,-0.262037037,1,0,0,4.8512,Gabbro_rect,4,4.851,1,1,0,1,0,1,,,,,,,,,,,,,
6544fd84cf4e51f1de212e54,TCR,2024-06-21_12h46.51.047,LearnStrategy,2023.2.3,Win32,61.34969325,5,1,3,0.001851852,-0.017592593,1,0,0,0.9491,rock_grid_rect_2,4,05,-1,-1,0.949,0.367592593,-0.234259259,1,0,0,2.3152,Gabbro_rect,4,2.315,1,2,0,2,0,1,,,,,,,,,,,,,
6544fd84cf4e51f1de212e54,TCR,2024-06-21_12h46.51.047,LearnStrategy,2023.2.3,Win32,61.34969325,5,1,4,0.006481481,-0.009259259,1,0,0,0.866,rock_grid_rect_2,7,14,-1,-1,0.866,-0.421296296,-0.251851852,1,0,0,3.683,Andesite_rect,1,3.683,0,3,0,3,0,1,,,,,,,,,,,,,
6544fd84cf4e51f1de212e54,TCR,2024-06-21_12h46.51.047,LearnStrategy,2023.2.3,Win32,61.34969325,5,1,5,0.005555556,-0.003703704,1,0,0,0.8327,rock_grid_rect_2,6,13,-1,-1,0.833,-0.082407407,-0.394444444,1,0,0,2.3315,Pegmatite_rect,6,2.332,1,4,0,4,0,1,,,,,,,,,,,,,
6544fd84cf4e51f1de212e54,TCR,2024-06-21_12h46.51.047,LearnStrategy,2023.2.3,Win32,61.34969325,5,1,6,-0.010185185,0,1,0,0,0.9339,rock_grid_rect_2,7,14,-1,-1,0.934,0.078703704,-0.386111111,1,0,0,1.3471,Peridotite_rect,7,1.347,1,5,0,5,0,1,,,,,,,,,,,,,
6544fd84cf4e51f1de212e54,TCR,2024-06-21_12h46.51.047,LearnStrategy,2023.2.3,Win32,61.34969325,5,1,7,-0.000925926,0.014814815,1,0,0,0.7999,rock_grid_rect_2,7,02,-1,-1,0.8,-0.087962963,-0.382407407,1,0,0,2.0147,Pegmatite_rect,6,2.015,0,6,0,6,0,1,,,,,,,,,,,,,
6544fd84cf4e51f1de212e54,TCR,2024-06-21_12h46.51.047,LearnStrategy,2023.2.3,Win32,61.34969325,5,1,8,0.023148148,-0.012037037,1,0,0,0.9161,rock_grid_rect_2,1,14,-1,-1,0.916,-0.35,-0.261111111,1,0,0,2.0985,Andesite_rect,1,2.098,1,7,0,7,0,1,,,,,,,,,,,,,
6544fd84cf4e51f1de212e54,TCR,2024-06-21_12h46.51.047,LearnStrategy,2023.2.3,Win32,61.34969325,5,1,9,0.036111111,-0.018518519,1,0,0,0.9162,rock_grid_rect_2,5,08,-1,-1,0.916,-0.357407407,-0.409259259,1,0,0,1.0806,Obsidian_rect,5,1.081,1,8,0,8,0,1,,,,,,,,,,,,,
6544fd84cf4e51f1de212e54,TCR,2024-06-21_12h46.51.047,LearnStrategy,2023.2.3,Win32,61.34969325,5,1,10,-0.031481481,0.012037037,1,0,0,1.1834,rock_grid_rect_2,4,09,-1,-1,1.183,0.37962963,-0.27037037,1,0,0,2.8998,Gabbro_rect,4,2.9,1,9,0,9,0,1,,,,,,,,,,,,,
6544fd84cf4e51f1de212e54,TCR,2024-06-21_12h46.51.047,LearnStrategy,2023.2.3,Win32,61.34969325,5,1,11,-0.031481481,-0.00462963,1,0,0,0.732,rock_grid_rect_2,7,02,-1,-1,0.732,0.131481481,-0.412037037,1,0,0,2.6153,Peridotite_rect,7,2.615,1,10,0,10,0,1,,,,,,,,,,,,,
6544fd84cf4e51f1de212e54,TCR,2024-06-21_12h46.51.047,LearnStrategy,2023.2.3,Win32,61.34969325,5,1,12,0.013888889,-0.008333333,1,0,0,0.8493,rock_grid_rect_2,2,11,-1,-1,0.849,0.326851852,-0.384259259,1,0,0,5.8855,Pumice_rect,8,5.885,0,11,0,11,0,1,,,,,,,,,,,,,
6544fd84cf4e51f1de212e54,TCR,2024-06-21_12h46.51.047,LearnStrategy,2023.2.3,Win32,61.34969325,5,1,13,-0.009259259,-0.008333333,1,0,0,0.9157,rock_grid_rect_2,1,14,-1,-1,0.916,-0.337037037,-0.258333333,1,0,0,1.9822,Andesite_rect,1,1.982,1,12,0,12,0,1,,,,,,,,,,,,,
6544fd84cf4e51f1de212e54,TCR,2024-06-21_12h46.51.047,LearnStrategy,2023.2.3,Win32,61.34969325,5,1,14,-0.061111111,-0.002777778,1,0,0,0.8166,rock_grid_rect_2,4,09,-1,-1,0.817,0.32962963,-0.262962963,1,0,0,1.7644,Gabbro_rect,4,1.764,1,13,0,13,0,1,,,,,,,,,,,,,
6544fd84cf4e51f1de212e54,TCR,2024-06-21_12h46.51.047,LearnStrategy,2023.2.3,Win32,61.34969325,5,1,15,-0.048148148,-0.02037037,1,0,0,0.7497,rock_grid_rect_2,6,09,-1,-1,0.75,-0.085185185,-0.389814815,1,0,0,2.7653,Pegmatite_rect,6,2.765,1,14,0,14,0,1,,,,,,,,,,,,,
6544fd84cf4e51f1de212e54,TCR,2024-06-21_12h46.51.047,LearnStrategy,2023.2.3,Win32,61.34969325,5,1,16,0.002777778,-0.017592593,1,0,0,0.8819,rock_grid_rect_2,1,09,-1,-1,0.882,-0.080555556,-0.230555556,1,0,0,2.166,Basalt_rect,2,2.166,0,15,0,15,0,1,,,,,,,,,,,,,
6544fd84cf4e51f1de212e54,TCR,2024-06-21_12h46.51.047,LearnStrategy,2023.2.3,Win32,61.34969325,5,2,1,,,,,,,,7,15,,,,,,,,,,,7,2.216,1,,,,,,0.151851852,-0.383333333,1,0,0,2.2155,Peridotite_rect,0,0,0,0,1,
6544fd84cf4e51f1de212e54,TCR,2024-06-21_12h46.51.047,LearnStrategy,2023.2.3,Win32,61.34969325,5,2,2,,,,,,,,4,10,,,,,,,,,,,4,2.015,1,,,,,,0.369444444,-0.251851852,1,0,0,2.0152,Gabbro_rect,1,0,1,0,1,
6544fd84cf4e51f1de212e54,TCR,2024-06-21_12h46.51.047,LearnStrategy,2023.2.3,Win32,61.34969325,5,2,3,,,,,,,,8,13,,,,,,,,,,,8,1.192,1,,,,,,0.334259259,-0.392592593,1,0,0,1.1921,Pumice_rect,2,0,2,0,1,
6544fd84cf4e51f1de212e54,TCR,2024-06-21_12h46.51.047,LearnStrategy,2023.2.3,Win32,61.34969325,5,2,4,,,,,,,,3,11,,,,,,,,,,,3,2.032,1,,,,,,0.1,-0.262962963,1,0,0,2.0324,Diorite_rect,3,0,3,0,1,
6544fd84cf4e51f1de212e54,TCR,2024-06-21_12h46.51.047,LearnStrategy,2023.2.3,Win32,61.34969325,5,2,5,,,,,,,,1,02,,,,,,,,,,,1,2.482,1,,,,,,-0.328703704,-0.252777778,1,0,0,2.4819,Andesite_rect,4,0,4,0,1,
6544fd84cf4e51f1de212e54,TCR,2024-06-21_12h46.51.047,LearnStrategy,2023.2.3,Win32,61.34969325,5,2,6,,,,,,,,1,16,,,,,,,,,,,3,3.549,0,,,,,,0.082407407,-0.265740741,1,0,0,3.5491,Diorite_rect,5,0,5,0,1,
6544fd84cf4e51f1de212e54,TCR,2024-06-21_12h46.51.047,LearnStrategy,2023.2.3,Win32,61.34969325,5,2,7,,,,,,,,6,15,,,,,,,,,,,6,1.948,1,,,,,,-0.087037037,-0.389814815,1,0,0,1.948,Pegmatite_rect,6,0,6,0,1,
6544fd84cf4e51f1de212e54,TCR,2024-06-21_12h46.51.047,LearnStrategy,2023.2.3,Win32,61.34969325,5,2,8,,,,,,,,5,04,,,,,,,,,,,5,1.064,1,,,,,,-0.301851852,-0.387037037,1,0,0,1.0636,Obsidian_rect,7,0,7,0,1,
6544fd84cf4e51f1de212e54,TCR,2024-06-21_12h46.51.047,LearnStrategy,2023.2.3,Win32,61.34969325,5,2,9,,,,,,,,7,10,,,,,,,,,,,7,2.099,1,,,,,,0.108333333,-0.389814815,1,0,0,2.0986,Peridotite_rect,8,0,8,0,1,
6544fd84cf4e51f1de212e54,TCR,2024-06-21_12h46.51.047,LearnStrategy,2023.2.3,Win32,61.34969325,5,2,10,,,,,,,,2,01,,,,,,,,,,,2,1.998,1,,,,,,-0.064814815,-0.266666667,1,0,0,1.9983,Basalt_rect,9,0,9,0,1,
6544fd84cf4e51f1de212e54,TCR,2024-06-21_12h46.51.047,LearnStrategy,2023.2.3,Win32,61.34969325,5,2,11,,,,,,,,6,03,,,,,,,,,,,7,1.931,0,,,,,,0.077777778,-0.403703704,1,0,0,1.9313,Peridotite_rect,10,0,10,0,1,
6544fd84cf4e51f1de212e54,TCR,2024-06-21_12h46.51.047,LearnStrategy,2023.2.3,Win32,61.34969325,5,2,12,,,,,,,,8,04,,,,,,,,,,,8,1.113,1,,,,,,0.375,-0.410185185,1,0,0,1.1135,Pumice_rect,11,0,11,0,1,
6544fd84cf4e51f1de212e54,TCR,2024-06-21_12h46.51.047,LearnStrategy,2023.2.3,Win32,61.34969325,5,2,13,,,,,,,,2,06,,,,,,,,,,,2,3.2,1,,,,,,-0.087037037,-0.263888889,1,0,0,3.1996,Basalt_rect,12,0,12,0,1,
6544fd84cf4e51f1de212e54,TCR,2024-06-21_12h46.51.047,LearnStrategy,2023.2.3,Win32,61.34969325,5,2,14,,,,,,,,3,16,,,,,,,,,,,3,1.198,1,,,,,,0.092592593,-0.269444444,1,0,0,1.1984,Diorite_rect,13,0,13,0,1,
6544fd84cf4e51f1de212e54,TCR,2024-06-21_12h46.51.047,LearnStrategy,2023.2.3,Win32,61.34969325,5,2,15,,,,,,,,5,11,,,,,,,,,,,5,1.047,1,,,,,,-0.358333333,-0.400925926,1,0,0,1.047,Obsidian_rect,14,0,14,0,1,
6544fd84cf4e51f1de212e54,TCR,2024-06-21_12h46.51.047,LearnStrategy,2023.2.3,Win32,61.34969325,5,2,16,,,,,,,,4,13,,,,,,,,,,,6,3.449,0,,,,,,-0.135185185,-0.391666667,1,0,0,3.4489,Pegmatite_rect,15,0,15,0,1,
6544fd84cf4e51f1de212e54,TCR,2024-06-21_12h46.51.047,LearnStrategy,2023.2.3,Win32,61.34969325,6,1,1,0.02037037,-0.013888889,1,0,0,7.456,rock_grid_rect_2,6,06,-1,-1,7.456,-0.387962963,-0.25462963,1,0,0,1.8987,Andesite_rect,1,1.899,0,0,0,0,0,1,,,,,,,,,,,,,
6544fd84cf4e51f1de212e54,TCR,2024-06-21_12h46.51.047,LearnStrategy,2023.2.3,Win32,61.34969325,6,1,2,-0.063888889,0.024074074,1,0,0,1.2332,rock_grid_rect_2,7,16,-1,-1,1.233,0.363888889,-0.255555556,1,0,0,4.8849,Gabbro_rect,4,4.885,0,1,0,1,0,1,,,,,,,,,,,,,
6544fd84cf4e51f1de212e54,TCR,2024-06-21_12h46.51.047,LearnStrategy,2023.2.3,Win32,61.34969325,6,1,3,-0.02962963,0,1,0,0,0.9819,rock_grid_rect_2,4,11,-1,-1,0.982,0.34537037,-0.248148148,1,0,0,1.8147,Gabbro_rect,4,1.815,1,2,0,2,0,1,,,,,,,,,,,,,
6544fd84cf4e51f1de212e54,TCR,2024-06-21_12h46.51.047,LearnStrategy,2023.2.3,Win32,61.34969325,6,1,4,-0.031481481,-0.007407407,1,0,0,1.033,rock_grid_rect_2,1,04,-1,-1,1.033,-0.369444444,-0.249074074,1,0,0,1.3651,Andesite_rect,1,1.365,1,3,0,3,0,1,,,,,,,,,,,,,
6544fd84cf4e51f1de212e54,TCR,2024-06-21_12h46.51.047,LearnStrategy,2023.2.3,Win32,61.34969325,6,1,5,-0.007407407,-0.012962963,1,0,0,0.8159,rock_grid_rect_2,7,13,-1,-1,0.816,0.108333333,-0.394444444,1,0,0,1.3975,Peridotite_rect,7,1.398,1,4,0,4,0,1,,,,,,,,,,,,,
6544fd84cf4e51f1de212e54,TCR,2024-06-21_12h46.51.047,LearnStrategy,2023.2.3,Win32,61.34969325,6,1,6,0.019444444,-0.010185185,1,0,0,1.0498,rock_grid_rect_2,6,09,-1,-1,1.05,-0.103703704,-0.383333333,1,0,0,1.414,Pegmatite_rect,6,1.414,1,5,0,5,0,1,,,,,,,,,,,,,
6544fd84cf4e51f1de212e54,TCR,2024-06-21_12h46.51.047,LearnStrategy,2023.2.3,Win32,61.34969325,6,1,7,0.012962963,-0.007407407,1,0,0,0.8332,rock_grid_rect_2,6,13,-1,-1,0.833,-0.338888889,-0.241666667,1,0,0,2.7485,Andesite_rect,1,2.749,0,6,0,6,0,1,,,,,,,,,,,,,
6544fd84cf4e51f1de212e54,TCR,2024-06-21_12h46.51.047,LearnStrategy,2023.2.3,Win32,61.34969325,6,1,8,0.017592593,-0.007407407,1,0,0,0.9159,rock_grid_rect_2,2,12,-1,-1,0.916,0.350925926,-0.381481481,1,0,0,2.4155,Pumice_rect,8,2.416,0,7,0,7,0,1,,,,,,,,,,,,,
6544fd84cf4e51f1de212e54,TCR,2024-06-21_12h46.51.047,LearnStrategy,2023.2.3,Win32,61.34969325,6,1,9,0.028703704,0.011111111,1,0,0,0.7154,rock_grid_rect_2,4,09,-1,-1,0.715,0.399074074,-0.232407407,1,0,0,1.4473,Gabbro_rect,4,1.447,1,8,0,8,0,1,,,,,,,,,,,,,
6544fd84cf4e51f1de212e54,TCR,2024-06-21_12h46.51.047,LearnStrategy,2023.2.3,Win32,61.34969325,6,1,10,-0.025925926,0.007407407,1,0,0,0.8834,rock_grid_rect_2,3,14,-1,-1,0.883,0.084259259,-0.256481481,1,0,0,1.2972,Diorite_rect,3,1.297,1,9,0,9,0,1,,,,,,,,,,,,,
6544fd84cf4e51f1de212e54,TCR,2024-06-21_12h46.51.047,LearnStrategy,2023.2.3,Win32,61.34969325,6,1,11,-0.059259259,-0.002777778,1,0,0,0.8165,rock_grid_rect_2,1,01,-1,-1,0.816,-0.390740741,-0.250925926,1,0,0,4.3851,Andesite_rect,1,4.385,1,10,0,10,0,1,,,,,,,,,,,,,
6544fd84cf4e51f1de212e54,TCR,2024-06-21_12h46.51.047,LearnStrategy,2023.2.3,Win32,61.34969325,6,1,12,0.002777778,0.001851852,1,0,0,0.9317,rock_grid_rect_2,5,14,-1,-1,0.932,-0.375,-0.397222222,1,0,0,1.7644,Obsidian_rect,5,1.764,1,11,0,11,0,1,,,,,,,,,,,,,
6544fd84cf4e51f1de212e54,TCR,2024-06-21_12h46.51.047,LearnStrategy,2023.2.3,Win32,61.34969325,6,1,13,-0.040740741,-0.014814815,1,0,0,0.7323,rock_grid_rect_2,1,11,-1,-1,0.732,-0.371296296,-0.267592593,1,0,0,1.9814,Andesite_rect,1,1.981,1,12,0,12,0,1,,,,,,,,,,,,,
6544fd84cf4e51f1de212e54,TCR,2024-06-21_12h46.51.047,LearnStrategy,2023.2.3,Win32,61.34969325,6,1,14,-0.006481481,-0.000925926,1,0,0,0.8,rock_grid_rect_2,4,08,-1,-1,0.8,0.411111111,-0.271296296,1,0,0,2.7153,Gabbro_rect,4,2.715,1,13,0,13,0,1,,,,,,,,,,,,,
6544fd84cf4e51f1de212e54,TCR,2024-06-21_12h46.51.047,LearnStrategy,2023.2.3,Win32,61.34969325,6,1,15,-0.031481481,-0.014814815,1,0,0,0.7492,rock_grid_rect_2,7,16,-1,-1,0.749,0.146296296,-0.390740741,1,0,0,2.1322,Peridotite_rect,7,2.132,1,14,0,14,0,1,,,,,,,,,,,,,
6544fd84cf4e51f1de212e54,TCR,2024-06-21_12h46.51.047,LearnStrategy,2023.2.3,Win32,61.34969325,6,1,16,-0.047222222,0.003703704,1,0,0,0.7484,rock_grid_rect_2,4,08,-1,-1,0.748,0.409259259,-0.259259259,1,0,0,1.5649,Gabbro_rect,4,1.565,1,15,0,15,0,1,,,,,,,,,,,,,
6544fd84cf4e51f1de212e54,TCR,2024-06-21_12h46.51.047,LearnStrategy,2023.2.3,Win32,61.34969325,6,2,1,,,,,,,,8,15,,,,,,,,,,,8,1.964,1,,,,,,0.382407407,-0.394444444,1,0,0,1.9642,Pumice_rect,0,0,0,0,1,
6544fd84cf4e51f1de212e54,TCR,2024-06-21_12h46.51.047,LearnStrategy,2023.2.3,Win32,61.34969325,6,2,2,,,,,,,,7,08,,,,,,,,,,,7,2.616,1,,,,,,0.109259259,-0.406481481,1,0,0,2.6159,Peridotite_rect,1,0,1,0,1,
6544fd84cf4e51f1de212e54,TCR,2024-06-21_12h46.51.047,LearnStrategy,2023.2.3,Win32,61.34969325,6,2,3,,,,,,,,6,05,,,,,,,,,,,6,2.115,1,,,,,,-0.096296296,-0.406481481,1,0,0,2.1154,Pegmatite_rect,2,0,2,0,1,
6544fd84cf4e51f1de212e54,TCR,2024-06-21_12h46.51.047,LearnStrategy,2023.2.3,Win32,61.34969325,6,2,4,,,,,,,,5,07,,,,,,,,,,,5,1.698,1,,,,,,-0.361111111,-0.396296296,1,0,0,1.6979,Obsidian_rect,3,0,3,0,1,
6544fd84cf4e51f1de212e54,TCR,2024-06-21_12h46.51.047,LearnStrategy,2023.2.3,Win32,61.34969325,6,2,5,,,,,,,,5,05,,,,,,,,,,,5,0.942,1,,,,,,-0.361111111,-0.394444444,1,0,0,0.9421,Obsidian_rect,4,0,4,0,1,
6544fd84cf4e51f1de212e54,TCR,2024-06-21_12h46.51.047,LearnStrategy,2023.2.3,Win32,61.34969325,6,2,6,,,,,,,,3,09,,,,,,,,,,,3,1.965,1,,,,,,0.17037037,-0.238888889,1,0,0,1.965,Diorite_rect,5,0,5,0,1,
6544fd84cf4e51f1de212e54,TCR,2024-06-21_12h46.51.047,LearnStrategy,2023.2.3,Win32,61.34969325,6,2,7,,,,,,,,1,05,,,,,,,,,,,1,1.581,1,,,,,,-0.405555556,-0.253703704,1,0,0,1.5809,Andesite_rect,6,0,6,0,1,
6544fd84cf4e51f1de212e54,TCR,2024-06-21_12h46.51.047,LearnStrategy,2023.2.3,Win32,61.34969325,6,2,8,,,,,,,,2,10,,,,,,,,,,,2,2.844,1,,,,,,-0.158333333,-0.252777778,1,0,0,2.8443,Basalt_rect,7,0,7,0,1,
6544fd84cf4e51f1de212e54,TCR,2024-06-21_12h46.51.047,LearnStrategy,2023.2.3,Win32,61.34969325,6,2,9,,,,,,,,6,07,,,,,,,,,,,6,2.365,1,,,,,,-0.109259259,-0.410185185,1,0,0,2.3649,Pegmatite_rect,8,0,8,0,1,
6544fd84cf4e51f1de212e54,TCR,2024-06-21_12h46.51.047,LearnStrategy,2023.2.3,Win32,61.34969325,6,2,10,,,,,,,,4,01,,,,,,,,,,,1,4.202,0,,,,,,-0.467592593,-0.247222222,1,0,0,4.2016,Andesite_rect,9,0,9,0,1,
6544fd84cf4e51f1de212e54,TCR,2024-06-21_12h46.51.047,LearnStrategy,2023.2.3,Win32,61.34969325,6,2,11,,,,,,,,3,07,,,,,,,,,,,3,1.681,1,,,,,,0.077777778,-0.262962963,1,0,0,1.6808,Diorite_rect,10,0,10,0,1,
6544fd84cf4e51f1de212e54,TCR,2024-06-21_12h46.51.047,LearnStrategy,2023.2.3,Win32,61.34969325,6,2,12,,,,,,,,1,03,,,,,,,,,,,1,1.747,1,,,,,,-0.408333333,-0.242592593,1,0,0,1.7472,Andesite_rect,11,0,11,0,1,
6544fd84cf4e51f1de212e54,TCR,2024-06-21_12h46.51.047,LearnStrategy,2023.2.3,Win32,61.34969325,6,2,13,,,,,,,,7,07,,,,,,,,,,,7,1.232,1,,,,,,0.113888889,-0.384259259,1,0,0,1.2323,Peridotite_rect,12,0,12,0,1,
6544fd84cf4e51f1de212e54,TCR,2024-06-21_12h46.51.047,LearnStrategy,2023.2.3,Win32,61.34969325,6,2,14,,,,,,,,4,03,,,,,,,,,,,3,3.382,0,,,,,,0.088888889,-0.262962963,1,0,0,3.3818,Diorite_rect,13,0,13,0,1,
6544fd84cf4e51f1de212e54,TCR,2024-06-21_12h46.51.047,LearnStrategy,2023.2.3,Win32,61.34969325,6,2,15,,,,,,,,2,14,,,,,,,,,,,4,1.714,0,,,,,,0.405555556,-0.256481481,1,0,0,1.7143,Gabbro_rect,14,0,14,0,1,
6544fd84cf4e51f1de212e54,TCR,2024-06-21_12h46.51.047,LearnStrategy,2023.2.3,Win32,61.34969325,6,2,16,,,,,,,,8,09,,,,,,,,,,,8,1.013,1,,,,,,0.35,-0.402777778,1,0,0,1.0134,Pumice_rect,15,0,15,0,1,
6544fd84cf4e51f1de212e54,TCR,2024-06-21_12h46.51.047,LearnStrategy,2023.2.3,Win32,61.34969325,7,1,1,-0.011111111,-0.000925926,1,0,0,0.6996,rock_grid_rect_2,4,15,-1,-1,0.7,-0.123148148,-0.4,1,0,0,5.4014,Pegmatite_rect,6,5.401,0,0,0,0,0,1,,,,,,,,,,,,,
6544fd84cf4e51f1de212e54,TCR,2024-06-21_12h46.51.047,LearnStrategy,2023.2.3,Win32,61.34969325,7,1,2,0.05,0.009259259,1,0,0,0.8991,rock_grid_rect_2,1,09,-1,-1,0.899,-0.405555556,-0.268518519,1,0,0,1.5973,Andesite_rect,1,1.597,1,1,0,1,0,1,,,,,,,,,,,,,
6544fd84cf4e51f1de212e54,TCR,2024-06-21_12h46.51.047,LearnStrategy,2023.2.3,Win32,61.34969325,7,1,3,0.026851852,0.000925926,1,0,0,0.7328,rock_grid_rect_2,4,12,-1,-1,0.733,0.387037037,-0.239814815,1,0,0,2.2486,Gabbro_rect,4,2.249,1,2,0,2,0,1,,,,,,,,,,,,,
6544fd84cf4e51f1de212e54,TCR,2024-06-21_12h46.51.047,LearnStrategy,2023.2.3,Win32,61.34969325,7,1,4,0.010185185,-0.003703704,1,0,0,0.8822,rock_grid_rect_2,2,09,-1,-1,0.882,-0.101851852,-0.268518519,1,0,0,1.5977,Basalt_rect,2,1.598,1,3,0,3,0,1,,,,,,,,,,,,,
6544fd84cf4e51f1de212e54,TCR,2024-06-21_12h46.51.047,LearnStrategy,2023.2.3,Win32,61.34969325,7,1,5,0.002777778,-0.009259259,1,0,0,0.8661,rock_grid_rect_2,4,11,-1,-1,0.866,-0.091666667,-0.236111111,1,0,0,1.4977,Basalt_rect,2,1.498,0,4,0,4,0,1,,,,,,,,,,,,,
6544fd84cf4e51f1de212e54,TCR,2024-06-21_12h46.51.047,LearnStrategy,2023.2.3,Win32,61.34969325,7,1,6,0.017592593,-0.022222222,1,0,0,0.8164,rock_grid_rect_2,4,15,-1,-1,0.816,-0.062962963,-0.39537037,1,0,0,2.7661,Pegmatite_rect,6,2.766,0,5,0,5,0,1,,,,,,,,,,,,,
6544fd84cf4e51f1de212e54,TCR,2024-06-21_12h46.51.047,LearnStrategy,2023.2.3,Win32,61.34969325,7,1,7,0.036111111,0.016666667,1,0,0,0.8489,rock_grid_rect_2,1,01,-1,-1,0.849,0.155555556,-0.24537037,1,0,0,1.6647,Diorite_rect,3,1.665,0,6,0,6,0,1,,,,,,,,,,,,,
6544fd84cf4e51f1de212e54,TCR,2024-06-21_12h46.51.047,LearnStrategy,2023.2.3,Win32,61.34969325,7,1,8,-0.003703704,0.005555556,1,0,0,0.9833,rock_grid_rect_2,7,02,-1,-1,0.983,0.098148148,-0.381481481,1,0,0,1.1809,Peridotite_rect,7,1.181,1,7,0,7,0,1,,,,,,,,,,,,,
6544fd84cf4e51f1de212e54,TCR,2024-06-21_12h46.51.047,LearnStrategy,2023.2.3,Win32,61.34969325,7,1,9,-0.032407407,0.009259259,1,0,0,0.7665,rock_grid_rect_2,6,12,-1,-1,0.766,-0.140740741,-0.403703704,1,0,0,1.5311,Pegmatite_rect,6,1.531,1,8,0,8,0,1,,,,,,,,,,,,,
6544fd84cf4e51f1de212e54,TCR,2024-06-21_12h46.51.047,LearnStrategy,2023.2.3,Win32,61.34969325,7,1,10,-0.024074074,-0.009259259,1,0,0,1.15,rock_grid_rect_2,6,09,-1,-1,1.15,-0.106481481,-0.394444444,1,0,0,1.3474,Pegmatite_rect,6,1.347,1,9,0,9,0,1,,,,,,,,,,,,,
6544fd84cf4e51f1de212e54,TCR,2024-06-21_12h46.51.047,LearnStrategy,2023.2.3,Win32,61.34969325,7,1,11,-0.02037037,-0.007407407,1,0,0,0.7495,rock_grid_rect_2,5,12,-1,-1,0.75,-0.376851852,-0.388888889,1,0,0,1.2477,Obsidian_rect,5,1.248,1,10,0,10,0,1,,,,,,,,,,,,,
6544fd84cf4e51f1de212e54,TCR,2024-06-21_12h46.51.047,LearnStrategy,2023.2.3,Win32,61.34969325,7,1,12,-0.04537037,0.011111111,1,0,0,0.8833,rock_grid_rect_2,2,04,-1,-1,0.883,-0.098148148,-0.237037037,1,0,0,1.7965,Basalt_rect,2,1.796,1,11,0,11,0,1,,,,,,,,,,,,,
6544fd84cf4e51f1de212e54,TCR,2024-06-21_12h46.51.047,LearnStrategy,2023.2.3,Win32,61.34969325,7,1,13,-0.001851852,0.000925926,1,0,0,0.783,rock_grid_rect_2,7,12,-1,-1,0.783,0.107407407,-0.394444444,1,0,0,1.1138,Peridotite_rect,7,1.114,1,12,0,12,0,1,,,,,,,,,,,,,
6544fd84cf4e51f1de212e54,TCR,2024-06-21_12h46.51.047,LearnStrategy,2023.2.3,Win32,61.34969325,7,1,14,-0.003703704,-0.015740741,1,0,0,0.8665,rock_grid_rect_2,8,10,-1,-1,0.867,0.399074074,-0.416666667,1,0,0,1.2809,Pumice_rect,8,1.281,1,13,0,13,0,1,,,,,,,,,,,,,
6544fd84cf4e51f1de212e54,TCR,2024-06-21_12h46.51.047,LearnStrategy,2023.2.3,Win32,61.34969325,7,1,15,-0.021296296,-0.005555556,1,0,0,0.8163,rock_grid_rect_2,4,08,-1,-1,0.816,0.386111111,-0.25,1,0,0,2.1485,Gabbro_rect,4,2.149,1,14,0,14,0,1,,,,,,,,,,,,,
6544fd84cf4e51f1de212e54,TCR,2024-06-21_12h46.51.047,LearnStrategy,2023.2.3,Win32,61.34969325,7,1,16,-0.005555556,-0.001851852,1,0,0,0.8994,rock_grid_rect_2,3,14,-1,-1,0.899,0.087037037,-0.25,1,0,0,0.9973,Diorite_rect,3,0.997,1,15,0,15,0,1,,,,,,,,,,,,,
6544fd84cf4e51f1de212e54,TCR,2024-06-21_12h46.51.047,LearnStrategy,2023.2.3,Win32,61.34969325,7,2,1,,,,,,,,5,11,,,,,,,,,,,5,1.064,1,,,,,,-0.346296296,-0.394444444,1,0,0,1.0637,Obsidian_rect,0,0,0,0,1,
6544fd84cf4e51f1de212e54,TCR,2024-06-21_12h46.51.047,LearnStrategy,2023.2.3,Win32,61.34969325,7,2,2,,,,,,,,5,07,,,,,,,,,,,5,10.908,1,,,,,,-0.332407407,-0.4,1,0,0,10.9079,Obsidian_rect,1,0,1,0,1,
6544fd84cf4e51f1de212e54,TCR,2024-06-21_12h46.51.047,LearnStrategy,2023.2.3,Win32,61.34969325,7,2,3,,,,,,,,6,05,,,,,,,,,,,6,2.082,1,,,,,,-0.056481481,-0.392592593,1,0,0,2.0815,Pegmatite_rect,2,0,2,0,1,
6544fd84cf4e51f1de212e54,TCR,2024-06-21_12h46.51.047,LearnStrategy,2023.2.3,Win32,61.34969325,7,2,4,,,,,,,,6,15,,,,,,,,,,,6,0.913,1,,,,,,-0.056481481,-0.392592593,1,0,0,0.9135,Pegmatite_rect,3,0,3,0,1,
6544fd84cf4e51f1de212e54,TCR,2024-06-21_12h46.51.047,LearnStrategy,2023.2.3,Win32,61.34969325,7,2,5,,,,,,,,1,03,,,,,,,,,,,1,2.015,1,,,,,,-0.349074074,-0.258333333,1,0,0,2.0152,Andesite_rect,4,0,4,0,1,
6544fd84cf4e51f1de212e54,TCR,2024-06-21_12h46.51.047,LearnStrategy,2023.2.3,Win32,61.34969325,7,2,6,,,,,,,,1,06,,,,,,,,,,,1,3.216,1,,,,,,-0.347222222,-0.25462963,1,0,0,3.2163,Andesite_rect,5,0,5,0,1,
6544fd84cf4e51f1de212e54,TCR,2024-06-21_12h46.51.047,LearnStrategy,2023.2.3,Win32,61.34969325,7,2,7,,,,,,,,8,04,,,,,,,,,,,8,1.397,1,,,,,,0.353703704,-0.397222222,1,0,0,1.397,Pumice_rect,6,0,6,0,1,
6544fd84cf4e51f1de212e54,TCR,2024-06-21_12h46.51.047,LearnStrategy,2023.2.3,Win32,61.34969325,7,2,8,,,,,,,,3,11,,,,,,,,,,,3,1.147,1,,,,,,0.12037037,-0.24537037,1,0,0,1.1471,Diorite_rect,7,0,7,0,1,
6544fd84cf4e51f1de212e54,TCR,2024-06-21_12h46.51.047,LearnStrategy,2023.2.3,Win32,61.34969325,7,2,9,,,,,,,,3,08,,,,,,,,,,,3,0.912,1,,,,,,0.12037037,-0.24537037,1,0,0,0.9118,Diorite_rect,8,0,8,0,1,
6544fd84cf4e51f1de212e54,TCR,2024-06-21_12h46.51.047,LearnStrategy,2023.2.3,Win32,61.34969325,7,2,10,,,,,,,,7,06,,,,,,,,,,,7,1.314,1,,,,,,0.10462963,-0.397222222,1,0,0,1.3139,Peridotite_rect,9,0,9,0,1,
6544fd84cf4e51f1de212e54,TCR,2024-06-21_12h46.51.047,LearnStrategy,2023.2.3,Win32,61.34969325,7,2,11,,,,,,,,4,14,,,,,,,,,,,4,6.387,1,,,,,,0.359259259,-0.252777778,1,0,0,6.3866,Gabbro_rect,10,0,10,0,1,
6544fd84cf4e51f1de212e54,TCR,2024-06-21_12h46.51.047,LearnStrategy,2023.2.3,Win32,61.34969325,7,2,12,,,,,,,,2,05,,,,,,,,,,,2,1.597,1,,,,,,-0.093518519,-0.258333333,1,0,0,1.5973,Basalt_rect,11,0,11,0,1,
6544fd84cf4e51f1de212e54,TCR,2024-06-21_12h46.51.047,LearnStrategy,2023.2.3,Win32,61.34969325,7,2,13,,,,,,,,8,13,,,,,,,,,,,8,1.214,1,,,,,,0.428703704,-0.40462963,1,0,0,1.2143,Pumice_rect,12,0,12,0,1,
6544fd84cf4e51f1de212e54,TCR,2024-06-21_12h46.51.047,LearnStrategy,2023.2.3,Win32,61.34969325,7,2,14,,,,,,,,4,10,,,,,,,,,,,4,1.431,1,,,,,,0.399074074,-0.236111111,1,0,0,1.4307,Gabbro_rect,13,0,13,0,1,
6544fd84cf4e51f1de212e54,TCR,2024-06-21_12h46.51.047,LearnStrategy,2023.2.3,Win32,61.34969325,7,2,15,,,,,,,,2,06,,,,,,,,,,,2,1.531,1,,,,,,-0.103703704,-0.268518519,1,0,0,1.5307,Basalt_rect,14,0,14,0,1,
6544fd84cf4e51f1de212e54,TCR,2024-06-21_12h46.51.047,LearnStrategy,2023.2.3,Win32,61.34969325,7,2,16,,,,,,,,7,15,,,,,,,,,,,7,1.013,1,,,,,,0.077777778,-0.411111111,1,0,0,1.0127,Peridotite_rect,15,0,15,0,1,
6544fd84cf4e51f1de212e54,TCR,2024-06-21_12h46.51.047,LearnStrategy,2023.2.3,Win32,61.34969325,8,1,1,-0.019444444,0.00462963,1,0,0,0.616,rock_grid_rect_2,6,12,-1,-1,0.616,-0.12962963,-0.408333333,1,0,0,1.5307,Pegmatite_rect,6,1.531,1,0,0,0,0,1,,,,,,,,,,,,,
6544fd84cf4e51f1de212e54,TCR,2024-06-21_12h46.51.047,LearnStrategy,2023.2.3,Win32,61.34969325,8,1,2,-0.000925926,0,1,0,0,0.7996,rock_grid_rect_2,4,08,-1,-1,0.8,0.443518519,-0.260185185,1,0,0,1.2973,Gabbro_rect,4,1.297,1,1,0,1,0,1,,,,,,,,,,,,,
6544fd84cf4e51f1de212e54,TCR,2024-06-21_12h46.51.047,LearnStrategy,2023.2.3,Win32,61.34969325,8,1,3,0.031481481,-0.003703704,1,0,0,0.7329,rock_grid_rect_2,3,06,-1,-1,0.733,0.119444444,-0.261111111,1,0,0,2.3988,Diorite_rect,3,2.399,1,2,0,2,0,1,,,,,,,,,,,,,
6544fd84cf4e51f1de212e54,TCR,2024-06-21_12h46.51.047,LearnStrategy,2023.2.3,Win32,61.34969325,8,1,4,-0.000925926,-0.013888889,1,0,0,0.8827,rock_grid_rect_2,8,10,-1,-1,0.883,0.372222222,-0.396296296,1,0,0,0.9298,Pumice_rect,8,0.93,1,3,0,3,0,1,,,,,,,,,,,,,
6544fd84cf4e51f1de212e54,TCR,2024-06-21_12h46.51.047,LearnStrategy,2023.2.3,Win32,61.34969325,8,1,5,-0.02037037,0.007407407,1,0,0,0.7495,rock_grid_rect_2,2,04,-1,-1,0.75,-0.107407407,-0.24537037,1,0,0,0.9138,Basalt_rect,2,0.914,1,4,0,4,0,1,,,,,,,,,,,,,
6544fd84cf4e51f1de212e54,TCR,2024-06-21_12h46.51.047,LearnStrategy,2023.2.3,Win32,61.34969325,8,1,6,-0.00462963,-0.011111111,1,0,0,0.7663,rock_grid_rect_2,1,09,-1,-1,0.766,-0.360185185,-0.236111111,1,0,0,2.5496,Andesite_rect,1,2.55,1,5,0,5,0,1,,,,,,,,,,,,,
6544fd84cf4e51f1de212e54,TCR,2024-06-21_12h46.51.047,LearnStrategy,2023.2.3,Win32,61.34969325,8,1,7,0.035185185,0.02037037,1,0,0,0.7485,rock_grid_rect_2,4,09,-1,-1,0.749,0.368518519,-0.238888889,1,0,0,1.8479,Gabbro_rect,4,1.848,1,6,0,6,0,1,,,,,,,,,,,,,
6544fd84cf4e51f1de212e54,TCR,2024-06-21_12h46.51.047,LearnStrategy,2023.2.3,Win32,61.34969325,8,1,8,-0.025,-0.003703704,1,0,0,0.8331,rock_grid_rect_2,7,12,-1,-1,0.833,0.12037037,-0.388888889,1,0,0,1.0971,Peridotite_rect,7,1.097,1,7,0,7,0,1,,,,,,,,,,,,,
6544fd84cf4e51f1de212e54,TCR,2024-06-21_12h46.51.047,LearnStrategy,2023.2.3,Win32,61.34969325,8,1,9,-0.035185185,0.010185185,1,0,0,0.6494,rock_grid_rect_2,4,12,-1,-1,0.649,0.336111111,-0.258333333,1,0,0,3.4331,Gabbro_rect,4,3.433,1,8,0,8,0,1,,,,,,,,,,,,,
6544fd84cf4e51f1de212e54,TCR,2024-06-21_12h46.51.047,LearnStrategy,2023.2.3,Win32,61.34969325,8,1,10,-0.066666667,0.009259259,1,0,0,0.6823,rock_grid_rect_2,2,04,-1,-1,0.682,-0.103703704,-0.250925926,1,0,0,0.9306,Basalt_rect,2,0.931,1,9,0,9,0,1,,,,,,,,,,,,,
6544fd84cf4e51f1de212e54,TCR,2024-06-21_12h46.51.047,LearnStrategy,2023.2.3,Win32,61.34969325,8,1,11,-0.02962963,-0.000925926,1,0,0,0.6662,rock_grid_rect_2,5,09,-1,-1,0.666,-0.431481481,-0.413888889,1,0,0,0.7468,Obsidian_rect,5,0.747,1,10,0,10,0,1,,,,,,,,,,,,,
6544fd84cf4e51f1de212e54,TCR,2024-06-21_12h46.51.047,LearnStrategy,2023.2.3,Win32,61.34969325,8,1,12,0.04537037,0.001851852,1,0,0,0.8327,rock_grid_rect_2,6,06,-1,-1,0.833,-0.126851852,-0.39537037,1,0,0,4.3677,Pegmatite_rect,6,4.368,1,11,0,11,0,1,,,,,,,,,,,,,
6544fd84cf4e51f1de212e54,TCR,2024-06-21_12h46.51.047,LearnStrategy,2023.2.3,Win32,61.34969325,8,1,13,-0.012962963,0.011111111,1,0,0,0.6658,rock_grid_rect_2,4,08,-1,-1,0.666,0.40462963,-0.236111111,1,0,0,1.7143,Gabbro_rect,4,1.714,1,12,0,12,0,1,,,,,,,,,,,,,
6544fd84cf4e51f1de212e54,TCR,2024-06-21_12h46.51.047,LearnStrategy,2023.2.3,Win32,61.34969325,8,1,14,0,-0.019444444,1,0,0,1.0166,rock_grid_rect_2,1,09,-1,-1,1.017,-0.323148148,-0.258333333,1,0,0,2.3487,Andesite_rect,1,2.349,1,13,0,13,0,1,,,,,,,,,,,,,
6544fd84cf4e51f1de212e54,TCR,2024-06-21_12h46.51.047,LearnStrategy,2023.2.3,Win32,61.34969325,8,1,15,0.013888889,0.009259259,1,0,0,0.7492,rock_grid_rect_2,4,15,-1,-1,0.749,-0.121296296,-0.396296296,1,0,0,5.351,Pegmatite_rect,6,5.351,0,14,0,14,0,1,,,,,,,,,,,,,
6544fd84cf4e51f1de212e54,TCR,2024-06-21_12h46.51.047,LearnStrategy,2023.2.3,Win32,61.34969325,8,1,16,-0.011111111,0.002777778,1,0,0,1.0496,rock_grid_rect_2,7,16,-1,-1,1.05,0.1,-0.383333333,1,0,0,1.881,Peridotite_rect,7,1.881,1,15,0,15,0,1,,,,,,,,,,,,,
6544fd84cf4e51f1de212e54,TCR,2024-06-21_12h46.51.047,LearnStrategy,2023.2.3,Win32,61.34969325,8,2,1,,,,,,,,4,13,,,,,,,,,,,6,5.051,0,,,,,,-0.153703704,-0.412037037,1,0,0,5.0514,Pegmatite_rect,0,0,0,0,1,
6544fd84cf4e51f1de212e54,TCR,2024-06-21_12h46.51.047,LearnStrategy,2023.2.3,Win32,61.34969325,8,2,2,,,,,,,,6,10,,,,,,,,,,,7,1.892,0,,,,,,0.068518519,-0.409259259,1,0,0,1.8925,Peridotite_rect,1,0,1,0,1,
6544fd84cf4e51f1de212e54,TCR,2024-06-21_12h46.51.047,LearnStrategy,2023.2.3,Win32,61.34969325,8,2,3,,,,,,,,6,03,,,,,,,,,,,6,6.286,1,,,,,,-0.111111111,-0.410185185,1,0,0,6.2861,Pegmatite_rect,2,0,2,0,1,
6544fd84cf4e51f1de212e54,TCR,2024-06-21_12h46.51.047,LearnStrategy,2023.2.3,Win32,61.34969325,8,2,4,,,,,,,,7,07,,,,,,,,,,,7,2.243,1,,,,,,0.077777778,-0.396296296,1,0,0,2.2428,Peridotite_rect,3,0,3,0,1,
6544fd84cf4e51f1de212e54,TCR,2024-06-21_12h46.51.047,LearnStrategy,2023.2.3,Win32,61.34969325,8,2,5,,,,,,,,2,10,,,,,,,,,,,2,4.761,1,,,,,,-0.127777778,-0.265740741,1,0,0,4.7613,Basalt_rect,4,0,4,0,1,
6544fd84cf4e51f1de212e54,TCR,2024-06-21_12h46.51.047,LearnStrategy,2023.2.3,Win32,61.34969325,8,2,6,,,,,,,,7,04,,,,,,,,,,,6,4.545,0,,,,,,-0.083333333,-0.402777778,1,0,0,4.5451,Pegmatite_rect,5,0,5,0,1,
6544fd84cf4e51f1de212e54,TCR,2024-06-21_12h46.51.047,LearnStrategy,2023.2.3,Win32,61.34969325,8,2,7,,,,,,,,5,06,,,,,,,,,,,5,1.069,1,,,,,,-0.335185185,-0.398148148,1,0,0,1.069,Obsidian_rect,6,0,6,0,1,
6544fd84cf4e51f1de212e54,TCR,2024-06-21_12h46.51.047,LearnStrategy,2023.2.3,Win32,61.34969325,8,2,8,,,,,,,,8,02,,,,,,,,,,,8,1.023,1,,,,,,0.458333333,-0.408333333,1,0,0,1.0229,Pumice_rect,7,0,7,0,1,
6544fd84cf4e51f1de212e54,TCR,2024-06-21_12h46.51.047,LearnStrategy,2023.2.3,Win32,61.34969325,8,2,9,,,,,,,,4,03,,,,,,,,,,,3,1.624,0,,,,,,0.153703704,-0.268518519,1,0,0,1.6238,Diorite_rect,8,0,8,0,1,
6544fd84cf4e51f1de212e54,TCR,2024-06-21_12h46.51.047,LearnStrategy,2023.2.3,Win32,61.34969325,8,2,10,,,,,,,,1,07,,,,,,,,,,,3,1.709,0,,,,,,0.151851852,-0.253703704,1,0,0,1.7094,Diorite_rect,9,0,9,0,1,
6544fd84cf4e51f1de212e54,TCR,2024-06-21_12h46.51.047,LearnStrategy,2023.2.3,Win32,61.34969325,8,2,11,,,,,,,,5,05,,,,,,,,,,,5,1.441,1,,,,,,-0.366666667,-0.393518519,1,0,0,1.4407,Obsidian_rect,10,0,10,0,1,
6544fd84cf4e51f1de212e54,TCR,2024-06-21_12h46.51.047,LearnStrategy,2023.2.3,Win32,61.34969325,8,2,12,,,,,,,,3,12,,,,,,,,,,,1,3.594,0,,,,,,-0.360185185,-0.244444444,1,0,0,3.5938,Andesite_rect,11,0,11,0,1,
6544fd84cf4e51f1de212e54,TCR,2024-06-21_12h46.51.047,LearnStrategy,2023.2.3,Win32,61.34969325,8,2,13,,,,,,,,2,02,,,,,,,,,,,2,2.484,1,,,,,,-0.076851852,-0.242592593,1,0,0,2.484,Basalt_rect,12,0,12,0,1,
6544fd84cf4e51f1de212e54,TCR,2024-06-21_12h46.51.047,LearnStrategy,2023.2.3,Win32,61.34969325,8,2,14,,,,,,,,3,09,,,,,,,,,,,3,1.052,1,,,,,,0.125925926,-0.24537037,1,0,0,1.0516,Diorite_rect,13,0,13,0,1,
6544fd84cf4e51f1de212e54,TCR,2024-06-21_12h46.51.047,LearnStrategy,2023.2.3,Win32,61.34969325,8,2,15,,,,,,,,1,05,,,,,,,,,,,6,2.815,0,,,,,,-0.101851852,-0.400925926,1,0,0,2.8151,Pegmatite_rect,14,0,14,0,1,
6544fd84cf4e51f1de212e54,TCR,2024-06-21_12h46.51.047,LearnStrategy,2023.2.3,Win32,61.34969325,8,2,16,,,,,,,,8,03,,,,,,,,,,,8,1.714,1,,,,,,0.37962963,-0.406481481,1,0,0,1.714,Pumice_rect,15,0,15,0,1,
6544fd84cf4e51f1de212e54,TCR,2024-06-21_12h46.51.047,LearnStrategy,2023.2.3,Win32,61.34969325,9,1,1,0.163888889,-0.005555556,1,0,0,10.3967,rock_grid_rect_2,3,06,-1,-1,10.397,0.147222222,-0.253703704,1,0,0,2.1676,Diorite_rect,3,2.168,1,0,0,0,0,1,,,,,,,,,,,,,
6544fd84cf4e51f1de212e54,TCR,2024-06-21_12h46.51.047,LearnStrategy,2023.2.3,Win32,61.34969325,9,1,2,0.000925926,-0.008333333,1,0,0,0.9067,rock_grid_rect_2,3,13,-1,-1,0.907,0.135185185,-0.241666667,1,0,0,2.4162,Diorite_rect,3,2.416,1,1,0,1,0,1,,,,,,,,,,,,,
6544fd84cf4e51f1de212e54,TCR,2024-06-21_12h46.51.047,LearnStrategy,2023.2.3,Win32,61.34969325,9,1,3,0.025925926,0.010185185,1,0,0,0.8157,rock_grid_rect_2,4,15,-1,-1,0.816,-0.365740741,-0.258333333,1,0,0,2.1827,Andesite_rect,1,2.183,0,2,0,2,0,1,,,,,,,,,,,,,
6544fd84cf4e51f1de212e54,TCR,2024-06-21_12h46.51.047,LearnStrategy,2023.2.3,Win32,61.34969325,9,1,4,-0.013888889,0.016666667,1,0,0,1.1562,rock_grid_rect_2,4,09,-1,-1,1.156,0.5,-0.240740741,1,0,0,1.2685,Gabbro_rect,4,1.268,1,3,0,3,0,1,,,,,,,,,,,,,
6544fd84cf4e51f1de212e54,TCR,2024-06-21_12h46.51.047,LearnStrategy,2023.2.3,Win32,61.34969325,9,1,5,0.009259259,0.011111111,1,0,0,0.8628,rock_grid_rect_2,4,05,-1,-1,0.863,0.380555556,-0.236111111,1,0,0,0.9917,Gabbro_rect,4,0.992,1,4,0,4,0,1,,,,,,,,,,,,,
6544fd84cf4e51f1de212e54,TCR,2024-06-21_12h46.51.047,LearnStrategy,2023.2.3,Win32,61.34969325,9,1,6,0.015740741,0.000925926,1,0,0,0.821,rock_grid_rect_2,7,13,-1,-1,0.821,0.075925926,-0.400925926,1,0,0,1.7196,Peridotite_rect,7,1.72,1,5,0,5,0,1,,,,,,,,,,,,,
6544fd84cf4e51f1de212e54,TCR,2024-06-21_12h46.51.047,LearnStrategy,2023.2.3,Win32,61.34969325,9,1,7,0.056481481,0.003703704,1,0,0,0.7329,rock_grid_rect_2,4,11,-1,-1,0.733,0.410185185,-0.241666667,1,0,0,3.3327,Gabbro_rect,4,3.333,1,6,0,6,0,1,,,,,,,,,,,,,
6544fd84cf4e51f1de212e54,TCR,2024-06-21_12h46.51.047,LearnStrategy,2023.2.3,Win32,61.34969325,9,1,8,0.009259259,-0.005555556,1,0,0,0.783,rock_grid_rect_2,1,09,-1,-1,0.783,-0.347222222,-0.258333333,1,0,0,1.3137,Andesite_rect,1,1.314,1,7,0,7,0,1,,,,,,,,,,,,,
6544fd84cf4e51f1de212e54,TCR,2024-06-21_12h46.51.047,LearnStrategy,2023.2.3,Win32,61.34969325,9,1,9,0.016666667,0.001851852,1,0,0,0.8498,rock_grid_rect_2,6,08,-1,-1,0.85,-0.130555556,-0.378703704,1,0,0,1.1642,Pegmatite_rect,6,1.164,1,8,0,8,0,1,,,,,,,,,,,,,
6544fd84cf4e51f1de212e54,TCR,2024-06-21_12h46.51.047,LearnStrategy,2023.2.3,Win32,61.34969325,9,1,10,0.037037037,0.010185185,1,0,0,0.9331,rock_grid_rect_2,5,02,-1,-1,0.933,-0.387037037,-0.398148148,1,0,0,0.9635,Obsidian_rect,5,0.964,1,9,0,9,0,1,,,,,,,,,,,,,
6544fd84cf4e51f1de212e54,TCR,2024-06-21_12h46.51.047,LearnStrategy,2023.2.3,Win32,61.34969325,9,1,11,0.019444444,-0.009259259,1,0,0,0.8666,rock_grid_rect_2,1,10,-1,-1,0.867,-0.342592593,-0.255555556,1,0,0,2.1151,Andesite_rect,1,2.115,1,10,0,10,0,1,,,,,,,,,,,,,
6544fd84cf4e51f1de212e54,TCR,2024-06-21_12h46.51.047,LearnStrategy,2023.2.3,Win32,61.34969325,9,1,12,0.02962963,0.001851852,1,0,0,0.9165,rock_grid_rect_2,6,13,-1,-1,0.917,-0.088888889,-0.399074074,1,0,0,1.4968,Pegmatite_rect,6,1.497,1,11,0,11,0,1,,,,,,,,,,,,,
6544fd84cf4e51f1de212e54,TCR,2024-06-21_12h46.51.047,LearnStrategy,2023.2.3,Win32,61.34969325,9,1,13,0.061111111,0.022222222,1,0,0,0.6495,rock_grid_rect_2,7,16,-1,-1,0.649,0.35462963,-0.239814815,1,0,0,1.2309,Gabbro_rect,4,1.231,0,12,0,12,0,1,,,,,,,,,,,,,
6544fd84cf4e51f1de212e54,TCR,2024-06-21_12h46.51.047,LearnStrategy,2023.2.3,Win32,61.34969325,9,1,14,0.032407407,0.003703704,1,0,0,0.9331,rock_grid_rect_2,1,01,-1,-1,0.933,0.159259259,-0.242592593,1,0,0,1.1128,Diorite_rect,3,1.113,0,13,0,13,0,1,,,,,,,,,,,,,
6544fd84cf4e51f1de212e54,TCR,2024-06-21_12h46.51.047,LearnStrategy,2023.2.3,Win32,61.34969325,9,1,15,0.009259259,-0.012037037,1,0,0,1.1001,rock_grid_rect_2,2,11,-1,-1,1.1,0.402777778,-0.238888889,1,0,0,2.0642,Gabbro_rect,4,2.064,0,14,0,14,0,1,,,,,,,,,,,,,
6544fd84cf4e51f1de212e54,TCR,2024-06-21_12h46.51.047,LearnStrategy,2023.2.3,Win32,61.34969325,9,1,16,0.023148148,0.007407407,1,0,0,0.9497,rock_grid_rect_2,8,14,-1,-1,0.95,0.339814815,-0.394444444,1,0,0,1.0471,Pumice_rect,8,1.047,1,15,0,15,0,1,,,,,,,,,,,,,
6544fd84cf4e51f1de212e54,TCR,2024-06-21_12h46.51.047,LearnStrategy,2023.2.3,Win32,61.34969325,9,2,1,,,,,,,,6,11,,,,,,,,,,,6,2.765,1,,,,,,-0.141666667,-0.402777778,1,0,0,2.7653,Pegmatite_rect,0,0,0,0,1,
6544fd84cf4e51f1de212e54,TCR,2024-06-21_12h46.51.047,LearnStrategy,2023.2.3,Win32,61.34969325,9,2,2,,,,,,,,3,16,,,,,,,,,,,3,1.2,1,,,,,,0.172222222,-0.268518519,1,0,0,1.2002,Diorite_rect,1,0,1,0,1,
6544fd84cf4e51f1de212e54,TCR,2024-06-21_12h46.51.047,LearnStrategy,2023.2.3,Win32,61.34969325,9,2,3,,,,,,,,4,01,,,,,,,,,,,4,1.542,1,,,,,,0.350925926,-0.259259259,1,0,0,1.5423,Gabbro_rect,2,0,2,0,1,
6544fd84cf4e51f1de212e54,TCR,2024-06-21_12h46.51.047,LearnStrategy,2023.2.3,Win32,61.34969325,9,2,4,,,,,,,,8,09,,,,,,,,,,,8,1.157,1,,,,,,0.318518519,-0.390740741,1,0,0,1.1567,Pumice_rect,3,0,3,0,1,
6544fd84cf4e51f1de212e54,TCR,2024-06-21_12h46.51.047,LearnStrategy,2023.2.3,Win32,61.34969325,9,2,5,,,,,,,,1,02,,,,,,,,,,,1,3.006,1,,,,,,-0.344444444,-0.25462963,1,0,0,3.0059,Andesite_rect,4,0,4,0,1,
6544fd84cf4e51f1de212e54,TCR,2024-06-21_12h46.51.047,LearnStrategy,2023.2.3,Win32,61.34969325,9,2,6,,,,,,,,2,14,,,,,,,,,,,4,2.176,0,,,,,,0.388888889,-0.255555556,1,0,0,2.1761,Gabbro_rect,5,0,5,0,1,
6544fd84cf4e51f1de212e54,TCR,2024-06-21_12h46.51.047,LearnStrategy,2023.2.3,Win32,61.34969325,9,2,7,,,,,,,,4,16,,,,,,,,,,,4,1.985,1,,,,,,0.382407407,-0.255555556,1,0,0,1.9851,Gabbro_rect,6,0,6,0,1,
6544fd84cf4e51f1de212e54,TCR,2024-06-21_12h46.51.047,LearnStrategy,2023.2.3,Win32,61.34969325,9,2,8,,,,,,,,8,15,,,,,,,,,,,8,2.142,1,,,,,,0.385185185,-0.416666667,1,0,0,2.1417,Pumice_rect,7,0,7,0,1,
6544fd84cf4e51f1de212e54,TCR,2024-06-21_12h46.51.047,LearnStrategy,2023.2.3,Win32,61.34969325,9,2,9,,,,,,,,5,04,,,,,,,,,,,5,1.157,1,,,,,,-0.405555556,-0.409259259,1,0,0,1.1574,Obsidian_rect,8,0,8,0,1,
6544fd84cf4e51f1de212e54,TCR,2024-06-21_12h46.51.047,LearnStrategy,2023.2.3,Win32,61.34969325,9,2,10,,,,,,,,7,10,,,,,,,,,,,7,1.12,1,,,,,,0.130555556,-0.400925926,1,0,0,1.1204,Peridotite_rect,9,0,9,0,1,
6544fd84cf4e51f1de212e54,TCR,2024-06-21_12h46.51.047,LearnStrategy,2023.2.3,Win32,61.34969325,9,2,11,,,,,,,,2,01,,,,,,,,,,,2,2.426,1,,,,,,-0.087037037,-0.271296296,1,0,0,2.4256,Basalt_rect,10,0,10,0,1,
6544fd84cf4e51f1de212e54,TCR,2024-06-21_12h46.51.047,LearnStrategy,2023.2.3,Win32,61.34969325,9,2,12,,,,,,,,1,16,,,,,,,,,,,3,3.943,0,,,,,,0.107407407,-0.253703704,1,0,0,3.9429,Diorite_rect,11,0,11,0,1,
6544fd84cf4e51f1de212e54,TCR,2024-06-21_12h46.51.047,LearnStrategy,2023.2.3,Win32,61.34969325,9,2,13,,,,,,,,7,08,,,,,,,,,,,7,1.067,1,,,,,,0.105555556,-0.386111111,1,0,0,1.0665,Peridotite_rect,12,0,12,0,1,
6544fd84cf4e51f1de212e54,TCR,2024-06-21_12h46.51.047,LearnStrategy,2023.2.3,Win32,61.34969325,9,2,14,,,,,,,,5,10,,,,,,,,,,,5,1.04,1,,,,,,-0.34537037,-0.417592593,1,0,0,1.04,Obsidian_rect,13,0,13,0,1,
6544fd84cf4e51f1de212e54,TCR,2024-06-21_12h46.51.047,LearnStrategy,2023.2.3,Win32,61.34969325,9,2,15,,,,,,,,3,07,,,,,,,,,,,3,3.041,1,,,,,,0.088888889,-0.253703704,1,0,0,3.0405,Diorite_rect,14,0,14,0,1,
6544fd84cf4e51f1de212e54,TCR,2024-06-21_12h46.51.047,LearnStrategy,2023.2.3,Win32,61.34969325,9,2,16,,,,,,,,6,07,,,,,,,,,,,6,1.77,1,,,,,,-0.100925926,-0.407407407,1,0,0,1.7699,Pegmatite_rect,15,0,15,0,1,
6544fd84cf4e51f1de212e54,TCR,2024-06-21_12h46.51.047,LearnStrategy,2023.2.3,Win32,61.34969325,,,,,,,,,,,,,,,,,,,,,,,,,,,,,,,,,,,,,,,,,,,1
6544fd84cf4e51f1de212e54,TCR,2024-06-21_12h46.51.047,LearnStrategy,2023.2.3,Win32,61.34969325,,,,,,,,,,,,,,,,,,,,,,,,,,,,,,,,,,,,,,,,,,,
6544fd84cf4e51f1de212e54,TCR,2024-06-21_12h46.51.047,LearnStrategy,2023.2.3,Win32,61.34969325,,,,,,,,,,,1,01,1,1,,,,,,,,,,,,,,,,,,,,,,,,,,,,,
6544fd84cf4e51f1de212e54,TCR,2024-06-21_12h46.51.047,LearnStrategy,2023.2.3,Win32,61.34969325,,,,,,,,,,,4,08,1,2,,,,,,,,,,,,,,,,,,,,,,,,,,,,,
6544fd84cf4e51f1de212e54,TCR,2024-06-21_12h46.51.047,LearnStrategy,2023.2.3,Win32,61.34969325,,,,,,,,,,,2,08,1,3,,,,,,,,,,,,,,,,,,,,,,,,,,,,,
6544fd84cf4e51f1de212e54,TCR,2024-06-21_12h46.51.047,LearnStrategy,2023.2.3,Win32,61.34969325,,,,,,,,,,,2,12,1,4,,,,,,,,,,,,,,,,,,,,,,,,,,,,,
6544fd84cf4e51f1de212e54,TCR,2024-06-21_12h46.51.047,LearnStrategy,2023.2.3,Win32,61.34969325,,,,,,,,,,,6,09,1,5,,,,,,,,,,,,,,,,,,,,,,,,,,,,,
6544fd84cf4e51f1de212e54,TCR,2024-06-21_12h46.51.047,LearnStrategy,2023.2.3,Win32,61.34969325,,,,,,,,,,,8,10,1,6,,,,,,,,,,,,,,,,,,,,,,,,,,,,,
6544fd84cf4e51f1de212e54,TCR,2024-06-21_12h46.51.047,LearnStrategy,2023.2.3,Win32,61.34969325,,,,,,,,,,,6,06,1,7,,,,,,,,,,,,,,,,,,,,,,,,,,,,,
6544fd84cf4e51f1de212e54,TCR,2024-06-21_12h46.51.047,LearnStrategy,2023.2.3,Win32,61.34969325,,,,,,,,,,,7,02,1,8,,,,,,,,,,,,,,,,,,,,,,,,,,,,,
6544fd84cf4e51f1de212e54,TCR,2024-06-21_12h46.51.047,LearnStrategy,2023.2.3,Win32,61.34969325,,,,,,,,,,,7,16,2,1,,,,,,,,,,,,,,,,,,,,,,,,,,,,,
6544fd84cf4e51f1de212e54,TCR,2024-06-21_12h46.51.047,LearnStrategy,2023.2.3,Win32,61.34969325,,,,,,,,,,,2,04,2,2,,,,,,,,,,,,,,,,,,,,,,,,,,,,,
6544fd84cf4e51f1de212e54,TCR,2024-06-21_12h46.51.047,LearnStrategy,2023.2.3,Win32,61.34969325,,,,,,,,,,,1,09,2,3,,,,,,,,,,,,,,,,,,,,,,,,,,,,,
6544fd84cf4e51f1de212e54,TCR,2024-06-21_12h46.51.047,LearnStrategy,2023.2.3,Win32,61.34969325,,,,,,,,,,,1,14,2,4,,,,,,,,,,,,,,,,,,,,,,,,,,,,,
6544fd84cf4e51f1de212e54,TCR,2024-06-21_12h46.51.047,LearnStrategy,2023.2.3,Win32,61.34969325,,,,,,,,,,,8,05,2,5,,,,,,,,,,,,,,,,,,,,,,,,,,,,,
6544fd84cf4e51f1de212e54,TCR,2024-06-21_12h46.51.047,LearnStrategy,2023.2.3,Win32,61.34969325,,,,,,,,,,,4,15,2,6,,,,,,,,,,,,,,,,,,,,,,,,,,,,,
6544fd84cf4e51f1de212e54,TCR,2024-06-21_12h46.51.047,LearnStrategy,2023.2.3,Win32,61.34969325,,,,,,,,,,,4,05,2,7,,,,,,,,,,,,,,,,,,,,,,,,,,,,,
6544fd84cf4e51f1de212e54,TCR,2024-06-21_12h46.51.047,LearnStrategy,2023.2.3,Win32,61.34969325,,,,,,,,,,,5,09,2,8,,,,,,,,,,,,,,,,,,,,,,,,,,,,,
6544fd84cf4e51f1de212e54,TCR,2024-06-21_12h46.51.047,LearnStrategy,2023.2.3,Win32,61.34969325,,,,,,,,,,,8,08,3,1,,,,,,,,,,,,,,,,,,,,,,,,,,,,,
6544fd84cf4e51f1de212e54,TCR,2024-06-21_12h46.51.047,LearnStrategy,2023.2.3,Win32,61.34969325,,,,,,,,,,,7,14,3,2,,,,,,,,,,,,,,,,,,,,,,,,,,,,,
6544fd84cf4e51f1de212e54,TCR,2024-06-21_12h46.51.047,LearnStrategy,2023.2.3,Win32,61.34969325,,,,,,,,,,,4,09,3,3,,,,,,,,,,,,,,,,,,,,,,,,,,,,,
6544fd84cf4e51f1de212e54,TCR,2024-06-21_12h46.51.047,LearnStrategy,2023.2.3,Win32,61.34969325,,,,,,,,,,,1,11,3,4,,,,,,,,,,,,,,,,,,,,,,,,,,,,,
6544fd84cf4e51f1de212e54,TCR,2024-06-21_12h46.51.047,LearnStrategy,2023.2.3,Win32,61.34969325,,,,,,,,,,,5,16,3,5,,,,,,,,,,,,,,,,,,,,,,,,,,,,,
6544fd84cf4e51f1de212e54,TCR,2024-06-21_12h46.51.047,LearnStrategy,2023.2.3,Win32,61.34969325,,,,,,,,,,,3,02,3,6,,,,,,,,,,,,,,,,,,,,,,,,,,,,,
6544fd84cf4e51f1de212e54,TCR,2024-06-21_12h46.51.047,LearnStrategy,2023.2.3,Win32,61.34969325,,,,,,,,,,,3,06,3,7,,,,,,,,,,,,,,,,,,,,,,,,,,,,,
6544fd84cf4e51f1de212e54,TCR,2024-06-21_12h46.51.047,LearnStrategy,2023.2.3,Win32,61.34969325,,,,,,,,,,,3,14,3,8,,,,,,,,,,,,,,,,,,,,,,,,,,,,,
6544fd84cf4e51f1de212e54,TCR,2024-06-21_12h46.51.047,LearnStrategy,2023.2.3,Win32,61.34969325,,,,,,,,,,,6,16,4,1,,,,,,,,,,,,,,,,,,,,,,,,,,,,,
6544fd84cf4e51f1de212e54,TCR,2024-06-21_12h46.51.047,LearnStrategy,2023.2.3,Win32,61.34969325,,,,,,,,,,,3,10,4,2,,,,,,,,,,,,,,,,,,,,,,,,,,,,,
6544fd84cf4e51f1de212e54,TCR,2024-06-21_12h46.51.047,LearnStrategy,2023.2.3,Win32,61.34969325,,,,,,,,,,,7,12,4,3,,,,,,,,,,,,,,,,,,,,,,,,,,,,,
6544fd84cf4e51f1de212e54,TCR,2024-06-21_12h46.51.047,LearnStrategy,2023.2.3,Win32,61.34969325,,,,,,,,,,,7,05,4,4,,,,,,,,,,,,,,,,,,,,,,,,,,,,,
6544fd84cf4e51f1de212e54,TCR,2024-06-21_12h46.51.047,LearnStrategy,2023.2.3,Win32,61.34969325,,,,,,,,,,,1,10,4,5,,,,,,,,,,,,,,,,,,,,,,,,,,,,,
6544fd84cf4e51f1de212e54,TCR,2024-06-21_12h46.51.047,LearnStrategy,2023.2.3,Win32,61.34969325,,,,,,,,,,,6,08,4,6,,,,,,,,,,,,,,,,,,,,,,,,,,,,,
6544fd84cf4e51f1de212e54,TCR,2024-06-21_12h46.51.047,LearnStrategy,2023.2.3,Win32,61.34969325,,,,,,,,,,,2,11,4,7,,,,,,,,,,,,,,,,,,,,,,,,,,,,,
6544fd84cf4e51f1de212e54,TCR,2024-06-21_12h46.51.047,LearnStrategy,2023.2.3,Win32,61.34969325,,,,,,,,,,,3,15,4,8,,,,,,,,,,,,,,,,,,,,,,,,,,,,,
6544fd84cf4e51f1de212e54,TCR,2024-06-21_12h46.51.047,LearnStrategy,2023.2.3,Win32,61.34969325,,,,,,,,,,,4,12,5,1,,,,,,,,,,,,,,,,,,,,,,,,,,,,,
6544fd84cf4e51f1de212e54,TCR,2024-06-21_12h46.51.047,LearnStrategy,2023.2.3,Win32,61.34969325,,,,,,,,,,,5,14,5,2,,,,,,,,,,,,,,,,,,,,,,,,,,,,,
6544fd84cf4e51f1de212e54,TCR,2024-06-21_12h46.51.047,LearnStrategy,2023.2.3,Win32,61.34969325,,,,,,,,,,,2,09,5,3,,,,,,,,,,,,,,,,,,,,,,,,,,,,,
6544fd84cf4e51f1de212e54,TCR,2024-06-21_12h46.51.047,LearnStrategy,2023.2.3,Win32,61.34969325,,,,,,,,,,,5,02,5,4,,,,,,,,,,,,,,,,,,,,,,,,,,,,,
6544fd84cf4e51f1de212e54,TCR,2024-06-21_12h46.51.047,LearnStrategy,2023.2.3,Win32,61.34969325,,,,,,,,,,,3,13,5,5,,,,,,,,,,,,,,,,,,,,,,,,,,,,,
6544fd84cf4e51f1de212e54,TCR,2024-06-21_12h46.51.047,LearnStrategy,2023.2.3,Win32,61.34969325,,,,,,,,,,,6,12,5,6,,,,,,,,,,,,,,,,,,,,,,,,,,,,,
6544fd84cf4e51f1de212e54,TCR,2024-06-21_12h46.51.047,LearnStrategy,2023.2.3,Win32,61.34969325,,,,,,,,,,,1,04,5,7,,,,,,,,,,,,,,,,,,,,,,,,,,,,,
6544fd84cf4e51f1de212e54,TCR,2024-06-21_12h46.51.047,LearnStrategy,2023.2.3,Win32,61.34969325,,,,,,,,,,,8,14,5,8,,,,,,,,,,,,,,,,,,,,,,,,,,,,,
6544fd84cf4e51f1de212e54,TCR,2024-06-21_12h46.51.047,LearnStrategy,2023.2.3,Win32,61.34969325,,,,,,,,,,,8,06,6,1,,,,,,,,,,,,,,,,,,,,,,,,,,,,,
6544fd84cf4e51f1de212e54,TCR,2024-06-21_12h46.51.047,LearnStrategy,2023.2.3,Win32,61.34969325,,,,,,,,,,,5,08,6,2,,,,,,,,,,,,,,,,,,,,,,,,,,,,,
6544fd84cf4e51f1de212e54,TCR,2024-06-21_12h46.51.047,LearnStrategy,2023.2.3,Win32,61.34969325,,,,,,,,,,,4,11,6,3,,,,,,,,,,,,,,,,,,,,,,,,,,,,,
6544fd84cf4e51f1de212e54,TCR,2024-06-21_12h46.51.047,LearnStrategy,2023.2.3,Win32,61.34969325,,,,,,,,,,,6,13,6,4,,,,,,,,,,,,,,,,,,,,,,,,,,,,,
6544fd84cf4e51f1de212e54,TCR,2024-06-21_12h46.51.047,LearnStrategy,2023.2.3,Win32,61.34969325,,,,,,,,,,,2,16,6,5,,,,,,,,,,,,,,,,,,,,,,,,,,,,,
6544fd84cf4e51f1de212e54,TCR,2024-06-21_12h46.51.047,LearnStrategy,2023.2.3,Win32,61.34969325,,,,,,,,,,,5,12,6,6,,,,,,,,,,,,,,,,,,,,,,,,,,,,,
6544fd84cf4e51f1de212e54,TCR,2024-06-21_12h46.51.047,LearnStrategy,2023.2.3,Win32,61.34969325,,,,,,,,,,,7,13,6,7,,,,,,,,,,,,,,,,,,,,,,,,,,,,,
6544fd84cf4e51f1de212e54,TCR,2024-06-21_12h46.51.047,LearnStrategy,2023.2.3,Win32,61.34969325,,,,,,,,,,,8,16,6,8,,,,,,,,,,,,,,,,,,,,,,,,,,,,,