participant,condition,date,expName,psychopyVersion,OS,frameRate,block,phase,trial,learn_mouse.x,learn_mouse.y,learn_mouse.leftButton,learn_mouse.midButton,learn_mouse.rightButton,learn_mouse.time,learn_mouse.clicked_name,cat,token,row,col,t_select,cat_rec,token_rec,cat_mouse_l.x,cat_mouse_l.y,cat_mouse_l.leftButton,cat_mouse_l.midButton,cat_mouse_l.rightButton,cat_mouse_l.time,cat_mouse_l.clicked_name,resp,t_resp,corr,train_trials.thisRepN,train_trials.thisTrialN,train_trials.thisN,train_trials.thisIndex,train_trials.ran,cat_mouse_t.x,cat_mouse_t.y,cat_mouse_t.leftButton,cat_mouse_t.midButton,cat_mouse_t.rightButton,cat_mouse_t.time,cat_mouse_t.clicked_name,test_trials.thisRepN,test_trials.thisTrialN,test_trials.thisN,test_trials.thisIndex,test_trials.ran,Bonus
6553ea53ba6af67a93e61594,SCR,2024-06-25_16h41.53.894,LearnStrategy,2023.2.3,Win32,59.99880002,,,,,,,,,,,,,,,,,,,,,,,,,,,,,,,,,,,,,,,,,,,,,
6553ea53ba6af67a93e61594,SCR,2024-06-25_16h41.53.894,LearnStrategy,2023.2.3,Win32,59.99880002,1,1,1,0.2109375,0.38671875,1,0,0,90.3938,Gabbro_01,4,01,6,6,90.394,4,01,-0.377604167,-0.263020833,1,0,0,7.4287,Andesite_rect,1,7.429,0,0,0,0,0,1,,,,,,,,,,,,,
6553ea53ba6af67a93e61594,SCR,2024-06-25_16h41.53.894,LearnStrategy,2023.2.3,Win32,59.99880002,1,1,2,-0.399739583,0.110677083,1,0,0,40.6709,Diorite_02,3,02,4,2,40.671,2,12,0.15625,-0.247395833,1,0,0,1.9521,Diorite_rect,3,1.952,1,1,0,1,0,1,,,,,,,,,,,,,
6553ea53ba6af67a93e61594,SCR,2024-06-25_16h41.53.894,LearnStrategy,2023.2.3,Win32,59.99880002,1,1,3,0.255208333,0.243489583,1,0,0,14.6748,Pumice_13,8,13,5,6,14.675,5,08,-0.360677083,-0.395833333,1,0,0,13.6828,Obsidian_rect,5,13.683,0,2,0,2,0,1,,,,,,,,,,,,,
6553ea53ba6af67a93e61594,SCR,2024-06-25_16h41.53.894,LearnStrategy,2023.2.3,Win32,59.99880002,1,1,4,-0.553385417,-0.08203125,1,0,0,47.6283,Gabbro_03,4,03,3,1,47.628,3,12,-0.17578125,-0.419270833,1,0,0,2.1518,Pegmatite_rect,6,2.152,0,3,0,3,0,1,,,,,,,,,,,,,
6553ea53ba6af67a93e61594,SCR,2024-06-25_16h41.53.894,LearnStrategy,2023.2.3,Win32,59.99880002,1,1,5,-0.368489583,0.087239583,1,0,0,2.0956,Diorite_02,3,02,4,2,2.096,6,05,0.143229167,-0.397135417,1,0,0,6.0624,Peridotite_rect,7,6.062,0,4,0,4,0,1,,,,,,,,,,,,,
6553ea53ba6af67a93e61594,SCR,2024-06-25_16h41.53.894,LearnStrategy,2023.2.3,Win32,59.99880002,1,1,6,-0.412760417,0.083333333,1,0,0,3.5616,Diorite_02,3,02,4,2,3.562,2,04,0.333333333,-0.233072917,1,0,0,1.6326,Gabbro_rect,4,1.633,0,5,0,5,0,1,,,,,,,,,,,,,
6553ea53ba6af67a93e61594,SCR,2024-06-25_16h41.53.894,LearnStrategy,2023.2.3,Win32,59.99880002,1,1,7,-0.3984375,0.102864583,1,0,0,1.8283,Diorite_02,3,02,4,2,1.828,6,11,0.174479167,-0.247395833,1,0,0,1.2195,Diorite_rect,3,1.22,1,6,0,6,0,1,,,,,,,,,,,,,
6553ea53ba6af67a93e61594,SCR,2024-06-25_16h41.53.894,LearnStrategy,2023.2.3,Win32,59.99880002,1,1,8,0.520833333,-0.25390625,1,0,0,3.3315,Diorite_08,3,08,2,8,3.332,7,14,0.421875,-0.268229167,1,0,0,1.0868,Gabbro_rect,4,1.087,0,7,0,7,0,1,,,,,,,,,,,,,
6553ea53ba6af67a93e61594,SCR,2024-06-25_16h41.53.894,LearnStrategy,2023.2.3,Win32,59.99880002,1,1,9,0.505208333,-0.279947917,1,0,0,2.3045,Diorite_08,3,08,2,8,2.304,1,07,0.186197917,-0.255208333,1,0,0,1.653,Diorite_rect,3,1.653,1,8,0,8,0,1,,,,,,,,,,,,,
6553ea53ba6af67a93e61594,SCR,2024-06-25_16h41.53.894,LearnStrategy,2023.2.3,Win32,59.99880002,1,1,10,-0.578125,0.407552083,1,0,0,1.3336,Peridotite_14,7,14,6,1,1.334,8,08,-0.37109375,-0.247395833,1,0,0,2.9442,Andesite_rect,1,2.944,0,9,0,9,0,1,,,,,,,,,,,,,
6553ea53ba6af67a93e61594,SCR,2024-06-25_16h41.53.894,LearnStrategy,2023.2.3,Win32,59.99880002,1,1,11,-0.561197917,0.385416667,1,0,0,1.1578,Peridotite_14,7,14,6,1,1.158,3,13,0.138020833,-0.404947917,1,0,0,2.0748,Peridotite_rect,7,2.075,1,10,0,10,0,1,,,,,,,,,,,,,
6553ea53ba6af67a93e61594,SCR,2024-06-25_16h41.53.894,LearnStrategy,2023.2.3,Win32,59.99880002,1,1,12,-0.377604167,0.41796875,1,0,0,1.1944,Obsidian_08,5,08,6,2,1.194,7,07,-0.12109375,-0.26171875,1,0,0,2.3466,Basalt_rect,2,2.347,0,11,0,11,0,1,,,,,,,,,,,,,
6553ea53ba6af67a93e61594,SCR,2024-06-25_16h41.53.894,LearnStrategy,2023.2.3,Win32,59.99880002,1,1,13,-0.399739583,0.43359375,1,0,0,1.5377,Obsidian_08,5,08,6,2,1.538,8,13,-0.3828125,-0.412760417,1,0,0,1.5535,Obsidian_rect,5,1.553,1,12,0,12,0,1,,,,,,,,,,,,,
6553ea53ba6af67a93e61594,SCR,2024-06-25_16h41.53.894,LearnStrategy,2023.2.3,Win32,59.99880002,1,1,14,-0.21484375,0.416666667,1,0,0,2.5078,Pumice_03,8,03,6,3,2.508,4,03,-0.127604167,-0.415364583,1,0,0,6.0898,Pegmatite_rect,6,6.09,0,13,0,13,0,1,,,,,,,,,,,,,
6553ea53ba6af67a93e61594,SCR,2024-06-25_16h41.53.894,LearnStrategy,2023.2.3,Win32,59.99880002,1,1,15,-0.192708333,0.428385417,1,0,0,0.9873,Pumice_03,8,03,6,3,0.987,5,12,0.337239583,-0.411458333,1,0,0,2.43,Pumice_rect,8,2.43,1,14,0,14,0,1,,,,,,,,,,,,,
6553ea53ba6af67a93e61594,SCR,2024-06-25_16h41.53.894,LearnStrategy,2023.2.3,Win32,59.99880002,1,1,16,-0.09375,0.4375,1,0,0,1.4175,Gabbro_13,4,13,6,4,1.418,1,02,-0.1328125,-0.404947917,1,0,0,3.4611,Pegmatite_rect,6,3.461,0,15,0,15,0,1,,,,,,,,,,,,,
6553ea53ba6af67a93e61594,SCR,2024-06-25_16h41.53.894,LearnStrategy,2023.2.3,Win32,59.99880002,1,2,1,,,,,,,,2,10,,,,,,,,,,,,,2,46.106,1,,,,,,-0.12890625,-0.251302083,1,0,0,46.1061,Basalt_rect,0,0,0,0,1,
6553ea53ba6af67a93e61594,SCR,2024-06-25_16h41.53.894,LearnStrategy,2023.2.3,Win32,59.99880002,1,2,2,,,,,,,,1,16,,,,,,,,,,,,,4,2.636,0,,,,,,0.430989583,-0.255208333,1,0,0,2.6359,Gabbro_rect,1,0,1,0,1,
6553ea53ba6af67a93e61594,SCR,2024-06-25_16h41.53.894,LearnStrategy,2023.2.3,Win32,59.99880002,1,2,3,,,,,,,,7,06,,,,,,,,,,,,,3,2.615,0,,,,,,0.209635417,-0.265625,1,0,0,2.6153,Diorite_rect,2,0,2,0,1,
6553ea53ba6af67a93e61594,SCR,2024-06-25_16h41.53.894,LearnStrategy,2023.2.3,Win32,59.99880002,1,2,4,,,,,,,,5,05,,,,,,,,,,,,,5,8.832,1,,,,,,-0.3359375,-0.389322917,1,0,0,8.8315,Obsidian_rect,3,0,3,0,1,
6553ea53ba6af67a93e61594,SCR,2024-06-25_16h41.53.894,LearnStrategy,2023.2.3,Win32,59.99880002,1,2,5,,,,,,,,1,09,,,,,,,,,,,,,3,5.551,0,,,,,,0.203125,-0.24609375,1,0,0,5.5513,Diorite_rect,4,0,4,0,1,
6553ea53ba6af67a93e61594,SCR,2024-06-25_16h41.53.894,LearnStrategy,2023.2.3,Win32,59.99880002,1,2,6,,,,,,,,4,09,,,,,,,,,,,,,4,3.559,1,,,,,,0.40234375,-0.252604167,1,0,0,3.5595,Gabbro_rect,5,0,5,0,1,
6553ea53ba6af67a93e61594,SCR,2024-06-25_16h41.53.894,LearnStrategy,2023.2.3,Win32,59.99880002,1,2,7,,,,,,,,6,09,,,,,,,,,,,,,3,2.676,0,,,,,,0.196614583,-0.256510417,1,0,0,2.6758,Diorite_rect,6,0,6,0,1,
6553ea53ba6af67a93e61594,SCR,2024-06-25_16h41.53.894,LearnStrategy,2023.2.3,Win32,59.99880002,1,2,8,,,,,,,,7,04,,,,,,,,,,,,,3,1.529,0,,,,,,0.196614583,-0.256510417,1,0,0,1.529,Diorite_rect,7,0,7,0,1,
6553ea53ba6af67a93e61594,SCR,2024-06-25_16h41.53.894,LearnStrategy,2023.2.3,Win32,59.99880002,1,2,9,,,,,,,,8,09,,,,,,,,,,,,,8,2.269,1,,,,,,0.337239583,-0.38671875,1,0,0,2.2691,Pumice_rect,8,0,8,0,1,
6553ea53ba6af67a93e61594,SCR,2024-06-25_16h41.53.894,LearnStrategy,2023.2.3,Win32,59.99880002,1,2,10,,,,,,,,3,11,,,,,,,,,,,,,4,2.784,0,,,,,,0.376302083,-0.265625,1,0,0,2.7836,Gabbro_rect,9,0,9,0,1,
6553ea53ba6af67a93e61594,SCR,2024-06-25_16h41.53.894,LearnStrategy,2023.2.3,Win32,59.99880002,1,2,11,,,,,,,,8,16,,,,,,,,,,,,,8,1.337,1,,,,,,0.345052083,-0.385416667,1,0,0,1.3367,Pumice_rect,10,0,10,0,1,
6553ea53ba6af67a93e61594,SCR,2024-06-25_16h41.53.894,LearnStrategy,2023.2.3,Win32,59.99880002,1,2,12,,,,,,,,2,14,,,,,,,,,,,,,8,1.091,0,,,,,,0.345052083,-0.384114583,1,0,0,1.0915,Pumice_rect,11,0,11,0,1,
6553ea53ba6af67a93e61594,SCR,2024-06-25_16h41.53.894,LearnStrategy,2023.2.3,Win32,59.99880002,1,2,13,,,,,,,,3,15,,,,,,,,,,,,,3,3.052,1,,,,,,0.197916667,-0.25390625,1,0,0,3.0517,Diorite_rect,12,0,12,0,1,
6553ea53ba6af67a93e61594,SCR,2024-06-25_16h41.53.894,LearnStrategy,2023.2.3,Win32,59.99880002,1,2,14,,,,,,,,5,06,,,,,,,,,,,,,6,2.123,0,,,,,,-0.158854167,-0.397135417,1,0,0,2.1226,Pegmatite_rect,13,0,13,0,1,
6553ea53ba6af67a93e61594,SCR,2024-06-25_16h41.53.894,LearnStrategy,2023.2.3,Win32,59.99880002,1,2,15,,,,,,,,4,11,,,,,,,,,,,,,3,2.155,0,,,,,,0.173177083,-0.259114583,1,0,0,2.1552,Diorite_rect,14,0,14,0,1,
6553ea53ba6af67a93e61594,SCR,2024-06-25_16h41.53.894,LearnStrategy,2023.2.3,Win32,59.99880002,1,2,16,,,,,,,,6,06,,,,,,,,,,,,,4,1.827,0,,,,,,0.346354167,-0.259114583,1,0,0,1.8267,Gabbro_rect,15,0,15,0,1,
6553ea53ba6af67a93e61594,SCR,2024-06-25_16h41.53.894,LearnStrategy,2023.2.3,Win32,59.99880002,2,1,1,-0.552083333,0.377604167,1,0,0,3.564,Peridotite_14,7,14,6,1,3.564,1,07,-0.420572917,-0.233072917,1,0,0,26.886,Andesite_rect,1,26.886,0,0,0,0,0,1,,,,,,,,,,,,,
6553ea53ba6af67a93e61594,SCR,2024-06-25_16h41.53.894,LearnStrategy,2023.2.3,Win32,59.99880002,2,1,2,-0.393229167,0.37890625,1,0,0,1.4958,Obsidian_08,5,08,6,2,1.496,6,05,-0.375,-0.3828125,1,0,0,1.2985,Obsidian_rect,5,1.298,1,1,0,1,0,1,,,,,,,,,,,,,
6553ea53ba6af67a93e61594,SCR,2024-06-25_16h41.53.894,LearnStrategy,2023.2.3,Win32,59.99880002,2,1,3,-0.209635417,0.389322917,1,0,0,2.34,Pumice_03,8,03,6,3,2.34,1,02,0.401041667,-0.391927083,1,0,0,2.3317,Pumice_rect,8,2.332,1,2,0,2,0,1,,,,,,,,,,,,,
6553ea53ba6af67a93e61594,SCR,2024-06-25_16h41.53.894,LearnStrategy,2023.2.3,Win32,59.99880002,2,1,4,-0.08984375,0.415364583,1,0,0,2.9809,Gabbro_13,4,13,6,4,2.981,2,05,0.391927083,-0.256510417,1,0,0,2.0971,Gabbro_rect,4,2.097,1,3,0,3,0,1,,,,,,,,,,,,,
6553ea53ba6af67a93e61594,SCR,2024-06-25_16h41.53.894,LearnStrategy,2023.2.3,Win32,59.99880002,2,1,5,0.059895833,0.377604167,1,0,0,1.2878,Pegmatite_10,6,10,6,5,1.288,7,16,0.138020833,-0.41015625,1,0,0,2.9954,Peridotite_rect,7,2.995,0,4,0,4,0,1,,,,,,,,,,,,,
6553ea53ba6af67a93e61594,SCR,2024-06-25_16h41.53.894,LearnStrategy,2023.2.3,Win32,59.99880002,2,1,6,0.0703125,0.401041667,1,0,0,1.361,Pegmatite_10,6,10,6,5,1.361,1,05,-0.126302083,-0.399739583,1,0,0,1.4305,Pegmatite_rect,6,1.431,1,5,0,5,0,1,,,,,,,,,,,,,
6553ea53ba6af67a93e61594,SCR,2024-06-25_16h41.53.894,LearnStrategy,2023.2.3,Win32,59.99880002,2,1,7,0.256510417,0.395833333,1,0,0,1.3079,Gabbro_01,4,01,6,6,1.308,6,15,0.106770833,-0.248697917,1,0,0,2.5952,Diorite_rect,3,2.595,0,6,0,6,0,1,,,,,,,,,,,,,
6553ea53ba6af67a93e61594,SCR,2024-06-25_16h41.53.894,LearnStrategy,2023.2.3,Win32,59.99880002,2,1,8,0.196614583,0.432291667,1,0,0,1.7785,Gabbro_01,4,01,6,6,1.778,4,05,0.372395833,-0.2421875,1,0,0,2.4027,Gabbro_rect,4,2.403,1,7,0,7,0,1,,,,,,,,,,,,,
6553ea53ba6af67a93e61594,SCR,2024-06-25_16h41.53.894,LearnStrategy,2023.2.3,Win32,59.99880002,2,1,9,0.377604167,0.401041667,1,0,0,1.331,Andesite_10,1,10,6,7,1.331,6,10,0.151041667,-0.229166667,1,0,0,3.253,Diorite_rect,3,3.253,0,8,0,8,0,1,,,,,,,,,,,,,
6553ea53ba6af67a93e61594,SCR,2024-06-25_16h41.53.894,LearnStrategy,2023.2.3,Win32,59.99880002,2,1,10,0.369791667,0.40625,1,0,0,1.4783,Andesite_10,1,10,6,7,1.478,4,13,-0.423177083,-0.26953125,1,0,0,1.1306,Andesite_rect,1,1.131,1,9,0,9,0,1,,,,,,,,,,,,,
6553ea53ba6af67a93e61594,SCR,2024-06-25_16h41.53.894,LearnStrategy,2023.2.3,Win32,59.99880002,2,1,11,0.533854167,0.380208333,1,0,0,1.9963,Diorite_10,3,10,6,8,1.996,3,16,0.36328125,-0.239583333,1,0,0,2.7831,Gabbro_rect,4,2.783,0,10,0,10,0,1,,,,,,,,,,,,,
6553ea53ba6af67a93e61594,SCR,2024-06-25_16h41.53.894,LearnStrategy,2023.2.3,Win32,59.99880002,2,1,12,0.515625,0.419270833,1,0,0,1.6127,Diorite_10,3,10,6,8,1.613,7,16,0.165364583,-0.265625,1,0,0,1.0412,Diorite_rect,3,1.041,1,11,0,11,0,1,,,,,,,,,,,,,
6553ea53ba6af67a93e61594,SCR,2024-06-25_16h41.53.894,LearnStrategy,2023.2.3,Win32,59.99880002,2,1,13,-0.55078125,0.26953125,1,0,0,1.529,Pegmatite_05,6,05,5,1,1.529,5,11,-0.411458333,-0.389322917,1,0,0,5.2375,Obsidian_rect,5,5.238,0,12,0,12,0,1,,,,,,,,,,,,,
6553ea53ba6af67a93e61594,SCR,2024-06-25_16h41.53.894,LearnStrategy,2023.2.3,Win32,59.99880002,2,1,14,-0.53125,0.282552083,1,0,0,2.821,Pegmatite_05,6,05,5,1,2.821,3,10,-0.188802083,-0.407552083,1,0,0,1.3529,Pegmatite_rect,6,1.353,1,13,0,13,0,1,,,,,,,,,,,,,
6553ea53ba6af67a93e61594,SCR,2024-06-25_16h41.53.894,LearnStrategy,2023.2.3,Win32,59.99880002,2,1,15,-0.358072917,0.24609375,1,0,0,1.5794,Diorite_12,3,12,5,2,1.579,5,11,0.173177083,-0.236979167,1,0,0,1.7039,Diorite_rect,3,1.704,1,14,0,14,0,1,,,,,,,,,,,,,
6553ea53ba6af67a93e61594,SCR,2024-06-25_16h41.53.894,LearnStrategy,2023.2.3,Win32,59.99880002,2,1,16,0.22265625,0.23046875,1,0,0,1.5788,Pumice_13,8,13,5,6,1.579,7,05,0.408854167,-0.40234375,1,0,0,1.32,Pumice_rect,8,1.32,1,15,0,15,0,1,,,,,,,,,,,,,
6553ea53ba6af67a93e61594,SCR,2024-06-25_16h41.53.894,LearnStrategy,2023.2.3,Win32,59.99880002,2,2,1,,,,,,,,2,08,,,,,,,,,,,,,7,5.978,0,,,,,,0.138020833,-0.403645833,1,0,0,5.9782,Peridotite_rect,0,0,0,0,1,
6553ea53ba6af67a93e61594,SCR,2024-06-25_16h41.53.894,LearnStrategy,2023.2.3,Win32,59.99880002,2,2,2,,,,,,,,4,16,,,,,,,,,,,,,6,4.332,0,,,,,,-0.153645833,-0.39453125,1,0,0,4.3321,Pegmatite_rect,1,0,1,0,1,
6553ea53ba6af67a93e61594,SCR,2024-06-25_16h41.53.894,LearnStrategy,2023.2.3,Win32,59.99880002,2,2,3,,,,,,,,8,10,,,,,,,,,,,,,8,1.914,1,,,,,,0.455729167,-0.407552083,1,0,0,1.9138,Pumice_rect,2,0,2,0,1,
6553ea53ba6af67a93e61594,SCR,2024-06-25_16h41.53.894,LearnStrategy,2023.2.3,Win32,59.99880002,2,2,4,,,,,,,,5,16,,,,,,,,,,,,,5,1.847,1,,,,,,-0.399739583,-0.385416667,1,0,0,1.8473,Obsidian_rect,3,0,3,0,1,
6553ea53ba6af67a93e61594,SCR,2024-06-25_16h41.53.894,LearnStrategy,2023.2.3,Win32,59.99880002,2,2,5,,,,,,,,3,09,,,,,,,,,,,,,3,2.102,1,,,,,,0.1796875,-0.252604167,1,0,0,2.1017,Diorite_rect,4,0,4,0,1,
6553ea53ba6af67a93e61594,SCR,2024-06-25_16h41.53.894,LearnStrategy,2023.2.3,Win32,59.99880002,2,2,6,,,,,,,,6,13,,,,,,,,,,,,,4,2.374,0,,,,,,0.348958333,-0.256510417,1,0,0,2.3743,Gabbro_rect,5,0,5,0,1,
6553ea53ba6af67a93e61594,SCR,2024-06-25_16h41.53.894,LearnStrategy,2023.2.3,Win32,59.99880002,2,2,7,,,,,,,,7,12,,,,,,,,,,,,,3,1.319,0,,,,,,0.196614583,-0.259114583,1,0,0,1.3188,Diorite_rect,6,0,6,0,1,
6553ea53ba6af67a93e61594,SCR,2024-06-25_16h41.53.894,LearnStrategy,2023.2.3,Win32,59.99880002,2,2,8,,,,,,,,1,03,,,,,,,,,,,,,4,1.321,0,,,,,,0.337239583,-0.25,1,0,0,1.3211,Gabbro_rect,7,0,7,0,1,
6553ea53ba6af67a93e61594,SCR,2024-06-25_16h41.53.894,LearnStrategy,2023.2.3,Win32,59.99880002,2,2,9,,,,,,,,7,10,,,,,,,,,,,,,3,3.557,0,,,,,,0.186197917,-0.255208333,1,0,0,3.5572,Diorite_rect,8,0,8,0,1,
6553ea53ba6af67a93e61594,SCR,2024-06-25_16h41.53.894,LearnStrategy,2023.2.3,Win32,59.99880002,2,2,10,,,,,,,,3,14,,,,,,,,,,,,,3,1.108,1,,,,,,0.186197917,-0.252604167,1,0,0,1.1076,Diorite_rect,9,0,9,0,1,
6553ea53ba6af67a93e61594,SCR,2024-06-25_16h41.53.894,LearnStrategy,2023.2.3,Win32,59.99880002,2,2,11,,,,,,,,5,07,,,,,,,,,,,,,5,2.09,1,,,,,,-0.432291667,-0.412760417,1,0,0,2.0898,Obsidian_rect,10,0,10,0,1,
6553ea53ba6af67a93e61594,SCR,2024-06-25_16h41.53.894,LearnStrategy,2023.2.3,Win32,59.99880002,2,2,12,,,,,,,,6,07,,,,,,,,,,,,,6,4.292,1,,,,,,-0.106770833,-0.3984375,1,0,0,4.292,Pegmatite_rect,11,0,11,0,1,
6553ea53ba6af67a93e61594,SCR,2024-06-25_16h41.53.894,LearnStrategy,2023.2.3,Win32,59.99880002,2,2,13,,,,,,,,8,15,,,,,,,,,,,,,8,1.805,1,,,,,,0.42578125,-0.419270833,1,0,0,1.8045,Pumice_rect,12,0,12,0,1,
6553ea53ba6af67a93e61594,SCR,2024-06-25_16h41.53.894,LearnStrategy,2023.2.3,Win32,59.99880002,2,2,14,,,,,,,,2,01,,,,,,,,,,,,,6,4.699,0,,,,,,-0.0859375,-0.39453125,1,0,0,4.6987,Pegmatite_rect,13,0,13,0,1,
6553ea53ba6af67a93e61594,SCR,2024-06-25_16h41.53.894,LearnStrategy,2023.2.3,Win32,59.99880002,2,2,15,,,,,,,,1,11,,,,,,,,,,,,,1,2.718,1,,,,,,-0.377604167,-0.239583333,1,0,0,2.7183,Andesite_rect,14,0,14,0,1,
6553ea53ba6af67a93e61594,SCR,2024-06-25_16h41.53.894,LearnStrategy,2023.2.3,Win32,59.99880002,2,2,16,,,,,,,,4,15,,,,,,,,,,,,,3,1.227,0,,,,,,0.119791667,-0.240885417,1,0,0,1.2267,Diorite_rect,15,0,15,0,1,
6553ea53ba6af67a93e61594,SCR,2024-06-25_16h41.53.894,LearnStrategy,2023.2.3,Win32,59.99880002,3,1,1,0.247395833,-0.10546875,1,0,0,6.3415,Obsidian_12,5,12,3,6,6.341,4,13,-0.369791667,-0.401041667,1,0,0,1.2859,Obsidian_rect,5,1.286,1,0,0,0,0,1,,,,,,,,,,,,,
6553ea53ba6af67a93e61594,SCR,2024-06-25_16h41.53.894,LearnStrategy,2023.2.3,Win32,59.99880002,3,1,2,0.248697917,0.41796875,1,0,0,4.1112,Gabbro_01,4,01,6,6,4.111,7,15,0.145833333,-0.240885417,1,0,0,3.0103,Diorite_rect,3,3.01,0,1,0,1,0,1,,,,,,,,,,,,,
6553ea53ba6af67a93e61594,SCR,2024-06-25_16h41.53.894,LearnStrategy,2023.2.3,Win32,59.99880002,3,1,3,-0.540364583,-0.095052083,1,0,0,2.2413,Gabbro_03,4,03,3,1,2.241,1,10,0.1953125,-0.252604167,1,0,0,1.276,Diorite_rect,3,1.276,0,2,0,2,0,1,,,,,,,,,,,,,
6553ea53ba6af67a93e61594,SCR,2024-06-25_16h41.53.894,LearnStrategy,2023.2.3,Win32,59.99880002,3,1,4,-0.423177083,-0.266927083,1,0,0,1.6234,Pegmatite_11,6,11,2,2,1.623,7,14,0.079427083,-0.243489583,1,0,0,1.3822,Diorite_rect,3,1.382,0,3,0,3,0,1,,,,,,,,,,,,,
6553ea53ba6af67a93e61594,SCR,2024-06-25_16h41.53.894,LearnStrategy,2023.2.3,Win32,59.99880002,3,1,5,0.05078125,-0.415364583,1,0,0,2.1798,Pegmatite_15,6,15,1,5,2.18,6,15,0.326822917,-0.3984375,1,0,0,2.0034,Pumice_rect,8,2.003,0,4,0,4,0,1,,,,,,,,,,,,,
6553ea53ba6af67a93e61594,SCR,2024-06-25_16h41.53.894,LearnStrategy,2023.2.3,Win32,59.99880002,3,1,6,0.21484375,-0.389322917,1,0,0,1.504,Obsidian_02,5,02,1,6,1.504,5,02,-0.393229167,-0.38671875,1,0,0,1.0555,Obsidian_rect,5,1.056,1,5,0,5,0,1,,,,,,,,,,,,,
6553ea53ba6af67a93e61594,SCR,2024-06-25_16h41.53.894,LearnStrategy,2023.2.3,Win32,59.99880002,3,1,7,-0.19921875,-0.2421875,1,0,0,3.1354,Basalt_12,2,12,2,3,3.135,4,03,0.466145833,-0.390625,1,0,0,1.2071,Pumice_rect,8,1.207,0,6,0,6,0,1,,,,,,,,,,,,,
6553ea53ba6af67a93e61594,SCR,2024-06-25_16h41.53.894,LearnStrategy,2023.2.3,Win32,59.99880002,3,1,8,0.598958333,-0.270833333,1,0,0,1.741,Diorite_08,3,08,2,8,1.741,7,13,0.23046875,-0.255208333,1,0,0,1.1585,Diorite_rect,3,1.159,1,7,0,7,0,1,,,,,,,,,,,,,
6553ea53ba6af67a93e61594,SCR,2024-06-25_16h41.53.894,LearnStrategy,2023.2.3,Win32,59.99880002,3,1,9,0.549479167,-0.135416667,1,0,0,1.6634,Pumice_06,8,06,3,8,1.663,6,05,0.40234375,-0.416666667,1,0,0,2.389,Pumice_rect,8,2.389,1,8,0,8,0,1,,,,,,,,,,,,,
6553ea53ba6af67a93e61594,SCR,2024-06-25_16h41.53.894,LearnStrategy,2023.2.3,Win32,59.99880002,3,1,10,-0.358072917,-0.100260417,1,0,0,1.7593,Peridotite_07,7,07,3,2,1.759,3,13,-0.057291667,-0.25390625,1,0,0,2.4812,Basalt_rect,2,2.481,0,9,0,9,0,1,,,,,,,,,,,,,
6553ea53ba6af67a93e61594,SCR,2024-06-25_16h41.53.894,LearnStrategy,2023.2.3,Win32,59.99880002,3,1,11,0.096354167,-0.091145833,1,0,0,1.5092,Pegmatite_16,6,16,3,5,1.509,2,11,-0.34375,-0.243489583,1,0,0,5.3109,Andesite_rect,1,5.311,0,10,0,10,0,1,,,,,,,,,,,,,
6553ea53ba6af67a93e61594,SCR,2024-06-25_16h41.53.894,LearnStrategy,2023.2.3,Win32,59.99880002,3,1,12,-0.065104167,-0.10546875,1,0,0,2.1134,Pumice_08,8,08,3,4,2.113,3,16,-0.108072917,-0.260416667,1,0,0,1.3481,Basalt_rect,2,1.348,0,11,0,11,0,1,,,,,,,,,,,,,
6553ea53ba6af67a93e61594,SCR,2024-06-25_16h41.53.894,LearnStrategy,2023.2.3,Win32,59.99880002,3,1,13,0.052083333,-0.243489583,1,0,0,2.456,Basalt_04,2,04,2,5,2.456,1,05,0.40234375,-0.408854167,1,0,0,1.4751,Pumice_rect,8,1.475,0,12,0,12,0,1,,,,,,,,,,,,,
6553ea53ba6af67a93e61594,SCR,2024-06-25_16h41.53.894,LearnStrategy,2023.2.3,Win32,59.99880002,3,1,14,0.553385417,-0.423177083,1,0,0,1.6788,Gabbro_10,4,10,1,8,1.679,2,16,-0.091145833,-0.259114583,1,0,0,3.6115,Basalt_rect,2,3.611,0,13,0,13,0,1,,,,,,,,,,,,,
6553ea53ba6af67a93e61594,SCR,2024-06-25_16h41.53.894,LearnStrategy,2023.2.3,Win32,59.99880002,3,1,15,-0.079427083,-0.399739583,1,0,0,1.3122,Andesite_04,1,04,1,4,1.312,2,04,0.372395833,-0.3984375,1,0,0,1.6072,Pumice_rect,8,1.607,0,14,0,14,0,1,,,,,,,,,,,,,
6553ea53ba6af67a93e61594,SCR,2024-06-25_16h41.53.894,LearnStrategy,2023.2.3,Win32,59.99880002,3,1,16,-0.53515625,-0.423177083,1,0,0,2.546,Basalt_02,2,02,1,1,2.546,4,10,0.08203125,-0.252604167,1,0,0,1.8604,Diorite_rect,3,1.86,0,15,0,15,0,1,,,,,,,,,,,,,
6553ea53ba6af67a93e61594,SCR,2024-06-25_16h41.53.894,LearnStrategy,2023.2.3,Win32,59.99880002,3,2,1,,,,,,,,1,06,,,,,,,,,,,,,1,4.897,1,,,,,,-0.338541667,-0.247395833,1,0,0,4.8972,Andesite_rect,0,0,0,0,1,
6553ea53ba6af67a93e61594,SCR,2024-06-25_16h41.53.894,LearnStrategy,2023.2.3,Win32,59.99880002,3,2,2,,,,,,,,7,08,,,,,,,,,,,,,2,5.002,0,,,,,,-0.165364583,-0.268229167,1,0,0,5.0024,Basalt_rect,1,0,1,0,1,
6553ea53ba6af67a93e61594,SCR,2024-06-25_16h41.53.894,LearnStrategy,2023.2.3,Win32,59.99880002,3,2,3,,,,,,,,6,03,,,,,,,,,,,,,6,3.92,1,,,,,,-0.149739583,-0.390625,1,0,0,3.9197,Pegmatite_rect,2,0,2,0,1,
6553ea53ba6af67a93e61594,SCR,2024-06-25_16h41.53.894,LearnStrategy,2023.2.3,Win32,59.99880002,3,2,4,,,,,,,,3,06,,,,,,,,,,,,,4,2.992,0,,,,,,0.419270833,-0.264322917,1,0,0,2.9915,Gabbro_rect,3,0,3,0,1,
6553ea53ba6af67a93e61594,SCR,2024-06-25_16h41.53.894,LearnStrategy,2023.2.3,Win32,59.99880002,3,2,5,,,,,,,,5,04,,,,,,,,,,,,,5,1.759,1,,,,,,-0.369791667,-0.37890625,1,0,0,1.7593,Obsidian_rect,4,0,4,0,1,
6553ea53ba6af67a93e61594,SCR,2024-06-25_16h41.53.894,LearnStrategy,2023.2.3,Win32,59.99880002,3,2,6,,,,,,,,8,14,,,,,,,,,,,,,8,1.738,1,,,,,,0.384114583,-0.395833333,1,0,0,1.7376,Pumice_rect,5,0,5,0,1,
6553ea53ba6af67a93e61594,SCR,2024-06-25_16h41.53.894,LearnStrategy,2023.2.3,Win32,59.99880002,3,2,7,,,,,,,,2,06,,,,,,,,,,,,,2,3.984,1,,,,,,-0.0703125,-0.264322917,1,0,0,3.9836,Basalt_rect,6,0,6,0,1,
6553ea53ba6af67a93e61594,SCR,2024-06-25_16h41.53.894,LearnStrategy,2023.2.3,Win32,59.99880002,3,2,8,,,,,,,,8,05,,,,,,,,,,,,,8,1.606,1,,,,,,0.41015625,-0.3984375,1,0,0,1.6062,Pumice_rect,7,0,7,0,1,
6553ea53ba6af67a93e61594,SCR,2024-06-25_16h41.53.894,LearnStrategy,2023.2.3,Win32,59.99880002,3,2,9,,,,,,,,4,08,,,,,,,,,,,,,4,3.811,1,,,,,,0.389322917,-0.234375,1,0,0,3.8112,Gabbro_rect,8,0,8,0,1,
6553ea53ba6af67a93e61594,SCR,2024-06-25_16h41.53.894,LearnStrategy,2023.2.3,Win32,59.99880002,3,2,10,,,,,,,,3,07,,,,,,,,,,,,,3,1.998,1,,,,,,0.171875,-0.25390625,1,0,0,1.9978,Diorite_rect,9,0,9,0,1,
6553ea53ba6af67a93e61594,SCR,2024-06-25_16h41.53.894,LearnStrategy,2023.2.3,Win32,59.99880002,3,2,11,,,,,,,,5,10,,,,,,,,,,,,,5,3.299,1,,,,,,-0.3671875,-0.397135417,1,0,0,3.2989,Obsidian_rect,10,0,10,0,1,
6553ea53ba6af67a93e61594,SCR,2024-06-25_16h41.53.894,LearnStrategy,2023.2.3,Win32,59.99880002,3,2,12,,,,,,,,4,12,,,,,,,,,,,,,3,4.053,0,,,,,,0.188802083,-0.25,1,0,0,4.0526,Diorite_rect,11,0,11,0,1,
6553ea53ba6af67a93e61594,SCR,2024-06-25_16h41.53.894,LearnStrategy,2023.2.3,Win32,59.99880002,3,2,13,,,,,,,,2,09,,,,,,,,,,,,,2,3.794,1,,,,,,-0.091145833,-0.236979167,1,0,0,3.7938,Basalt_rect,12,0,12,0,1,
6553ea53ba6af67a93e61594,SCR,2024-06-25_16h41.53.894,LearnStrategy,2023.2.3,Win32,59.99880002,3,2,14,,,,,,,,7,02,,,,,,,,,,,,,7,3.245,1,,,,,,0.122395833,-0.407552083,1,0,0,3.2452,Peridotite_rect,13,0,13,0,1,
6553ea53ba6af67a93e61594,SCR,2024-06-25_16h41.53.894,LearnStrategy,2023.2.3,Win32,59.99880002,3,2,15,,,,,,,,1,01,,,,,,,,,,,,,4,2.238,0,,,,,,0.34765625,-0.264322917,1,0,0,2.2377,Gabbro_rect,14,0,14,0,1,
6553ea53ba6af67a93e61594,SCR,2024-06-25_16h41.53.894,LearnStrategy,2023.2.3,Win32,59.99880002,3,2,16,,,,,,,,6,12,,,,,,,,,,,,,3,1.628,0,,,,,,0.135416667,-0.240885417,1,0,0,1.6278,Diorite_rect,15,0,15,0,1,
6553ea53ba6af67a93e61594,SCR,2024-06-25_16h41.53.894,LearnStrategy,2023.2.3,Win32,59.99880002,4,1,1,-0.25390625,-0.084635417,1,0,0,2.7394,Peridotite_15,7,15,3,3,2.739,7,15,-0.16796875,-0.233072917,1,0,0,1.5586,Basalt_rect,2,1.559,0,0,0,0,0,1,,,,,,,,,,,,,
6553ea53ba6af67a93e61594,SCR,2024-06-25_16h41.53.894,LearnStrategy,2023.2.3,Win32,59.99880002,4,1,2,0.559895833,-0.23828125,1,0,0,8.4319,Diorite_08,3,08,2,8,8.432,1,10,0.420572917,-0.235677083,1,0,0,1.4323,Gabbro_rect,4,1.432,0,1,0,1,0,1,,,,,,,,,,,,,
6553ea53ba6af67a93e61594,SCR,2024-06-25_16h41.53.894,LearnStrategy,2023.2.3,Win32,59.99880002,4,1,3,0.115885417,-0.243489583,1,0,0,3.6635,Basalt_04,2,04,2,5,3.664,6,11,-0.131510417,-0.263020833,1,0,0,1.4091,Basalt_rect,2,1.409,1,2,0,2,0,1,,,,,,,,,,,,,
6553ea53ba6af67a93e61594,SCR,2024-06-25_16h41.53.894,LearnStrategy,2023.2.3,Win32,59.99880002,4,1,4,0.559895833,0.076822917,1,0,0,4.7465,Gabbro_14,4,14,4,8,4.746,1,02,-0.108072917,-0.266927083,1,0,0,5.091,Basalt_rect,2,5.091,0,3,0,3,0,1,,,,,,,,,,,,,
6553ea53ba6af67a93e61594,SCR,2024-06-25_16h41.53.894,LearnStrategy,2023.2.3,Win32,59.99880002,4,1,5,-0.069010417,-0.26953125,1,0,0,5.2922,Pegmatite_08,6,08,2,4,5.292,6,08,-0.139322917,-0.421875,1,0,0,3.9477,Pegmatite_rect,6,3.948,1,4,0,4,0,1,,,,,,,,,,,,,
6553ea53ba6af67a93e61594,SCR,2024-06-25_16h41.53.894,LearnStrategy,2023.2.3,Win32,59.99880002,4,1,6,-0.223958333,-0.096354167,1,0,0,2.4287,Peridotite_15,7,15,3,3,2.429,5,14,-0.18359375,-0.408854167,1,0,0,2.757,Pegmatite_rect,6,2.757,0,5,0,5,0,1,,,,,,,,,,,,,
6553ea53ba6af67a93e61594,SCR,2024-06-25_16h41.53.894,LearnStrategy,2023.2.3,Win32,59.99880002,4,1,7,-0.212239583,-0.104166667,1,0,0,1.2272,Peridotite_15,7,15,3,3,1.227,4,10,0.157552083,-0.4140625,1,0,0,1.0297,Peridotite_rect,7,1.03,1,6,0,6,0,1,,,,,,,,,,,,,
6553ea53ba6af67a93e61594,SCR,2024-06-25_16h41.53.894,LearnStrategy,2023.2.3,Win32,59.99880002,4,1,8,0.221354167,0.115885417,1,0,0,2.5463,Peridotite_13,7,13,4,6,2.546,7,13,0.100260417,-0.390625,1,0,0,1.8152,Peridotite_rect,7,1.815,1,7,0,7,0,1,,,,,,,,,,,,,
6553ea53ba6af67a93e61594,SCR,2024-06-25_16h41.53.894,LearnStrategy,2023.2.3,Win32,59.99880002,4,1,9,-0.065104167,-0.2265625,1,0,0,3.1378,Pegmatite_08,6,08,2,4,3.138,4,14,-0.138020833,-0.421875,1,0,0,1.2747,Pegmatite_rect,6,1.275,1,8,0,8,0,1,,,,,,,,,,,,,
6553ea53ba6af67a93e61594,SCR,2024-06-25_16h41.53.894,LearnStrategy,2023.2.3,Win32,59.99880002,4,1,10,-0.057291667,0.260416667,1,0,0,4.7815,Obsidian_11,5,11,5,4,4.782,4,01,-0.3671875,-0.395833333,1,0,0,1.3483,Obsidian_rect,5,1.348,1,9,0,9,0,1,,,,,,,,,,,,,
6553ea53ba6af67a93e61594,SCR,2024-06-25_16h41.53.894,LearnStrategy,2023.2.3,Win32,59.99880002,4,1,11,0.071614583,-0.41015625,1,0,0,5.0804,Pegmatite_15,6,15,1,5,5.08,3,16,-0.1328125,-0.2421875,1,0,0,3.0888,Basalt_rect,2,3.089,0,10,0,10,0,1,,,,,,,,,,,,,
6553ea53ba6af67a93e61594,SCR,2024-06-25_16h41.53.894,LearnStrategy,2023.2.3,Win32,59.99880002,4,1,12,0.348958333,-0.244791667,1,0,0,1.8725,Basalt_16,2,16,2,7,1.872,2,16,-0.16015625,-0.236979167,1,0,0,2.2454,Basalt_rect,2,2.245,1,11,0,11,0,1,,,,,,,,,,,,,
6553ea53ba6af67a93e61594,SCR,2024-06-25_16h41.53.894,LearnStrategy,2023.2.3,Win32,59.99880002,4,1,13,-0.21484375,-0.251302083,1,0,0,3.0466,Basalt_12,2,12,2,3,3.047,3,16,0.395833333,-0.395833333,1,0,0,0.9866,Pumice_rect,8,0.987,0,12,0,12,0,1,,,,,,,,,,,,,
6553ea53ba6af67a93e61594,SCR,2024-06-25_16h41.53.894,LearnStrategy,2023.2.3,Win32,59.99880002,4,1,14,0.22265625,0.115885417,1,0,0,2.4133,Peridotite_13,7,13,4,6,2.413,2,11,-0.1796875,-0.395833333,1,0,0,1.4966,Pegmatite_rect,6,1.497,0,13,0,13,0,1,,,,,,,,,,,,,
6553ea53ba6af67a93e61594,SCR,2024-06-25_16h41.53.894,LearnStrategy,2023.2.3,Win32,59.99880002,4,1,15,0.213541667,0.087239583,1,0,0,0.9817,Peridotite_13,7,13,4,6,0.982,7,05,0.10546875,-0.407552083,1,0,0,0.9663,Peridotite_rect,7,0.966,1,14,0,14,0,1,,,,,,,,,,,,,
6553ea53ba6af67a93e61594,SCR,2024-06-25_16h41.53.894,LearnStrategy,2023.2.3,Win32,59.99880002,4,1,16,-0.208333333,-0.08203125,1,0,0,1.2262,Peridotite_15,7,15,3,3,1.226,6,11,-0.09375,-0.4140625,1,0,0,1.9262,Pegmatite_rect,6,1.926,0,15,0,15,0,1,,,,,,,,,,,,,
6553ea53ba6af67a93e61594,SCR,2024-06-25_16h41.53.894,LearnStrategy,2023.2.3,Win32,59.99880002,4,2,1,,,,,,,,4,09,,,,,,,,,,,,,4,16.226,1,,,,,,0.40625,-0.240885417,1,0,0,16.2258,Gabbro_rect,0,0,0,0,1,
6553ea53ba6af67a93e61594,SCR,2024-06-25_16h41.53.894,LearnStrategy,2023.2.3,Win32,59.99880002,4,2,2,,,,,,,,5,04,,,,,,,,,,,,,5,1.544,1,,,,,,-0.407552083,-0.380208333,1,0,0,1.5436,Obsidian_rect,1,0,1,0,1,
6553ea53ba6af67a93e61594,SCR,2024-06-25_16h41.53.894,LearnStrategy,2023.2.3,Win32,59.99880002,4,2,3,,,,,,,,7,08,,,,,,,,,,,,,7,2.334,1,,,,,,0.08984375,-0.40625,1,0,0,2.3337,Peridotite_rect,2,0,2,0,1,
6553ea53ba6af67a93e61594,SCR,2024-06-25_16h41.53.894,LearnStrategy,2023.2.3,Win32,59.99880002,4,2,4,,,,,,,,8,14,,,,,,,,,,,,,8,1.383,1,,,,,,0.37109375,-0.403645833,1,0,0,1.3828,Pumice_rect,3,0,3,0,1,
6553ea53ba6af67a93e61594,SCR,2024-06-25_16h41.53.894,LearnStrategy,2023.2.3,Win32,59.99880002,4,2,5,,,,,,,,2,09,,,,,,,,,,,,,1,5.431,0,,,,,,-0.399739583,-0.252604167,1,0,0,5.4309,Andesite_rect,4,0,4,0,1,
6553ea53ba6af67a93e61594,SCR,2024-06-25_16h41.53.894,LearnStrategy,2023.2.3,Win32,59.99880002,4,2,6,,,,,,,,6,12,,,,,,,,,,,,,3,1.506,0,,,,,,0.104166667,-0.259114583,1,0,0,1.5064,Diorite_rect,5,0,5,0,1,
6553ea53ba6af67a93e61594,SCR,2024-06-25_16h41.53.894,LearnStrategy,2023.2.3,Win32,59.99880002,4,2,7,,,,,,,,3,11,,,,,,,,,,,,,3,1.058,1,,,,,,0.141927083,-0.251302083,1,0,0,1.0584,Diorite_rect,6,0,6,0,1,
6553ea53ba6af67a93e61594,SCR,2024-06-25_16h41.53.894,LearnStrategy,2023.2.3,Win32,59.99880002,4,2,8,,,,,,,,2,08,,,,,,,,,,,,,4,2.528,0,,,,,,0.354166667,-0.2578125,1,0,0,2.5284,Gabbro_rect,7,0,7,0,1,
6553ea53ba6af67a93e61594,SCR,2024-06-25_16h41.53.894,LearnStrategy,2023.2.3,Win32,59.99880002,4,2,9,,,,,,,,4,11,,,,,,,,,,,,,4,1.31,1,,,,,,0.350260417,-0.25390625,1,0,0,1.3101,Gabbro_rect,8,0,8,0,1,
6553ea53ba6af67a93e61594,SCR,2024-06-25_16h41.53.894,LearnStrategy,2023.2.3,Win32,59.99880002,4,2,10,,,,,,,,6,03,,,,,,,,,,,,,6,2.405,1,,,,,,-0.075520833,-0.401041667,1,0,0,2.4054,Pegmatite_rect,9,0,9,0,1,
6553ea53ba6af67a93e61594,SCR,2024-06-25_16h41.53.894,LearnStrategy,2023.2.3,Win32,59.99880002,4,2,11,,,,,,,,5,16,,,,,,,,,,,,,5,2.678,1,,,,,,-0.430989583,-0.407552083,1,0,0,2.678,Obsidian_rect,10,0,10,0,1,
6553ea53ba6af67a93e61594,SCR,2024-06-25_16h41.53.894,LearnStrategy,2023.2.3,Win32,59.99880002,4,2,12,,,,,,,,7,02,,,,,,,,,,,,,6,6.246,0,,,,,,-0.069010417,-0.40625,1,0,0,6.246,Pegmatite_rect,11,0,11,0,1,
6553ea53ba6af67a93e61594,SCR,2024-06-25_16h41.53.894,LearnStrategy,2023.2.3,Win32,59.99880002,4,2,13,,,,,,,,1,09,,,,,,,,,,,,,2,5.428,0,,,,,,-0.171875,-0.247395833,1,0,0,5.4282,Basalt_rect,12,0,12,0,1,
6553ea53ba6af67a93e61594,SCR,2024-06-25_16h41.53.894,LearnStrategy,2023.2.3,Win32,59.99880002,4,2,14,,,,,,,,3,09,,,,,,,,,,,,,3,1.713,1,,,,,,0.119791667,-0.243489583,1,0,0,1.7127,Diorite_rect,13,0,13,0,1,
6553ea53ba6af67a93e61594,SCR,2024-06-25_16h41.53.894,LearnStrategy,2023.2.3,Win32,59.99880002,4,2,15,,,,,,,,1,03,,,,,,,,,,,,,1,2.483,1,,,,,,-0.380208333,-0.231770833,1,0,0,2.4831,Andesite_rect,14,0,14,0,1,
6553ea53ba6af67a93e61594,SCR,2024-06-25_16h41.53.894,LearnStrategy,2023.2.3,Win32,59.99880002,4,2,16,,,,,,,,8,09,,,,,,,,,,,,,8,1.299,1,,,,,,0.436197917,-0.399739583,1,0,0,1.2987,Pumice_rect,15,0,15,0,1,
6553ea53ba6af67a93e61594,SCR,2024-06-25_16h41.53.894,LearnStrategy,2023.2.3,Win32,59.99880002,5,1,1,-0.541666667,0.4140625,1,0,0,4.936,Peridotite_14,7,14,6,1,4.936,1,07,0.428385417,-0.247395833,1,0,0,4.4615,Gabbro_rect,4,4.462,0,0,0,0,0,1,,,,,,,,,,,,,
6553ea53ba6af67a93e61594,SCR,2024-06-25_16h41.53.894,LearnStrategy,2023.2.3,Win32,59.99880002,5,1,2,-0.372395833,0.368489583,1,0,0,2.7552,Obsidian_08,5,08,6,2,2.755,5,08,-0.342447917,-0.388020833,1,0,0,1.3739,Obsidian_rect,5,1.374,1,1,0,1,0,1,,,,,,,,,,,,,
6553ea53ba6af67a93e61594,SCR,2024-06-25_16h41.53.894,LearnStrategy,2023.2.3,Win32,59.99880002,5,1,3,-0.244791667,0.423177083,1,0,0,1.156,Pumice_03,8,03,6,3,1.156,4,14,0.380208333,-0.397135417,1,0,0,2.3566,Pumice_rect,8,2.357,1,2,0,2,0,1,,,,,,,,,,,,,
6553ea53ba6af67a93e61594,SCR,2024-06-25_16h41.53.894,LearnStrategy,2023.2.3,Win32,59.99880002,5,1,4,-0.41015625,-0.127604167,1,0,0,2.6412,Peridotite_07,7,07,3,2,2.641,7,07,0.057291667,-0.408854167,1,0,0,2.087,Peridotite_rect,7,2.087,1,3,0,3,0,1,,,,,,,,,,,,,
6553ea53ba6af67a93e61594,SCR,2024-06-25_16h41.53.894,LearnStrategy,2023.2.3,Win32,59.99880002,5,1,5,-0.217447917,-0.08203125,1,0,0,1.4616,Peridotite_15,7,15,3,3,1.462,2,02,0.07421875,-0.407552083,1,0,0,1.1647,Peridotite_rect,7,1.165,1,4,0,4,0,1,,,,,,,,,,,,,
6553ea53ba6af67a93e61594,SCR,2024-06-25_16h41.53.894,LearnStrategy,2023.2.3,Win32,59.99880002,5,1,6,0.208333333,0.098958333,1,0,0,1.2633,Peridotite_13,7,13,4,6,1.263,2,12,-0.10546875,-0.40234375,1,0,0,1.2991,Pegmatite_rect,6,1.299,0,5,0,5,0,1,,,,,,,,,,,,,
6553ea53ba6af67a93e61594,SCR,2024-06-25_16h41.53.894,LearnStrategy,2023.2.3,Win32,59.99880002,5,1,7,-0.361979167,-0.395833333,1,0,0,1.988,Diorite_16,3,16,1,2,1.988,6,05,0.174479167,-0.256510417,1,0,0,1.6151,Diorite_rect,3,1.615,1,6,0,6,0,1,,,,,,,,,,,,,
6553ea53ba6af67a93e61594,SCR,2024-06-25_16h41.53.894,LearnStrategy,2023.2.3,Win32,59.99880002,5,1,8,0.583333333,-0.248697917,1,0,0,1.4714,Diorite_08,3,08,2,8,1.471,7,05,0.3828125,-0.23828125,1,0,0,1.0746,Gabbro_rect,4,1.075,0,7,0,7,0,1,,,,,,,,,,,,,
6553ea53ba6af67a93e61594,SCR,2024-06-25_16h41.53.894,LearnStrategy,2023.2.3,Win32,59.99880002,5,1,9,0.104166667,-0.255208333,1,0,0,2.7062,Basalt_04,2,04,2,5,2.706,1,10,-0.095052083,-0.26171875,1,0,0,1.1365,Basalt_rect,2,1.137,1,8,0,8,0,1,,,,,,,,,,,,,
6553ea53ba6af67a93e61594,SCR,2024-06-25_16h41.53.894,LearnStrategy,2023.2.3,Win32,59.99880002,5,1,10,-0.080729167,0.11328125,1,0,0,1.5295,Obsidian_14,5,14,4,4,1.529,3,12,-0.369791667,-0.397135417,1,0,0,2.5723,Obsidian_rect,5,2.572,1,9,0,9,0,1,,,,,,,,,,,,,
6553ea53ba6af67a93e61594,SCR,2024-06-25_16h41.53.894,LearnStrategy,2023.2.3,Win32,59.99880002,5,1,11,0.048177083,-0.397135417,1,0,0,3.0281,Pegmatite_15,6,15,1,5,3.028,4,03,0.134114583,-0.4140625,1,0,0,4.4768,Peridotite_rect,7,4.477,0,10,0,10,0,1,,,,,,,,,,,,,
6553ea53ba6af67a93e61594,SCR,2024-06-25_16h41.53.894,LearnStrategy,2023.2.3,Win32,59.99880002,5,1,12,0.08203125,-0.3984375,1,0,0,1.325,Pegmatite_15,6,15,1,5,1.325,7,16,-0.106770833,-0.38671875,1,0,0,1.4306,Pegmatite_rect,6,1.431,1,11,0,11,0,1,,,,,,,,,,,,,
6553ea53ba6af67a93e61594,SCR,2024-06-25_16h41.53.894,LearnStrategy,2023.2.3,Win32,59.99880002,5,1,13,0.5703125,-0.4140625,1,0,0,1.459,Gabbro_10,4,10,1,8,1.459,6,15,0.408854167,-0.2578125,1,0,0,3.4583,Gabbro_rect,4,3.458,1,12,0,12,0,1,,,,,,,,,,,,,
6553ea53ba6af67a93e61594,SCR,2024-06-25_16h41.53.894,LearnStrategy,2023.2.3,Win32,59.99880002,5,1,14,0.096354167,-0.08984375,1,0,0,1.7234,Pegmatite_16,6,16,3,5,1.723,6,05,0.12109375,-0.248697917,1,0,0,3.1777,Diorite_rect,3,3.178,0,13,0,13,0,1,,,,,,,,,,,,,
6553ea53ba6af67a93e61594,SCR,2024-06-25_16h41.53.894,LearnStrategy,2023.2.3,Win32,59.99880002,5,1,15,-0.08203125,-0.076822917,1,0,0,1.0579,Pumice_08,8,08,3,4,1.058,3,08,0.450520833,-0.404947917,1,0,0,1.0753,Pumice_rect,8,1.075,1,14,0,14,0,1,,,,,,,,,,,,,
6553ea53ba6af67a93e61594,SCR,2024-06-25_16h41.53.894,LearnStrategy,2023.2.3,Win32,59.99880002,5,1,16,-0.22265625,-0.408854167,1,0,0,2.0799,Basalt_05,2,05,1,3,2.08,2,05,-0.071614583,-0.40234375,1,0,0,4.3427,Pegmatite_rect,6,4.343,0,15,0,15,0,1,,,,,,,,,,,,,
6553ea53ba6af67a93e61594,SCR,2024-06-25_16h41.53.894,LearnStrategy,2023.2.3,Win32,59.99880002,5,2,1,,,,,,,,7,10,,,,,,,,,,,,,7,2.707,1,,,,,,0.075520833,-0.399739583,1,0,0,2.7075,Peridotite_rect,0,0,0,0,1,
6553ea53ba6af67a93e61594,SCR,2024-06-25_16h41.53.894,LearnStrategy,2023.2.3,Win32,59.99880002,5,2,2,,,,,,,,5,10,,,,,,,,,,,,,5,1.463,1,,,,,,-0.395833333,-0.4140625,1,0,0,1.4632,Obsidian_rect,1,0,1,0,1,
6553ea53ba6af67a93e61594,SCR,2024-06-25_16h41.53.894,LearnStrategy,2023.2.3,Win32,59.99880002,5,2,3,,,,,,,,3,06,,,,,,,,,,,,,3,2.503,1,,,,,,0.194010417,-0.265625,1,0,0,2.5029,Diorite_rect,2,0,2,0,1,
6553ea53ba6af67a93e61594,SCR,2024-06-25_16h41.53.894,LearnStrategy,2023.2.3,Win32,59.99880002,5,2,4,,,,,,,,1,06,,,,,,,,,,,,,4,2.302,0,,,,,,0.333333333,-0.25,1,0,0,2.3024,Gabbro_rect,3,0,3,0,1,
6553ea53ba6af67a93e61594,SCR,2024-06-25_16h41.53.894,LearnStrategy,2023.2.3,Win32,59.99880002,5,2,5,,,,,,,,8,16,,,,,,,,,,,,,8,1.266,1,,,,,,0.333333333,-0.381510417,1,0,0,1.2664,Pumice_rect,4,0,4,0,1,
6553ea53ba6af67a93e61594,SCR,2024-06-25_16h41.53.894,LearnStrategy,2023.2.3,Win32,59.99880002,5,2,6,,,,,,,,8,05,,,,,,,,,,,,,8,1.124,1,,,,,,0.372395833,-0.411458333,1,0,0,1.1243,Pumice_rect,5,0,5,0,1,
6553ea53ba6af67a93e61594,SCR,2024-06-25_16h41.53.894,LearnStrategy,2023.2.3,Win32,59.99880002,5,2,7,,,,,,,,2,10,,,,,,,,,,,,,2,2.696,1,,,,,,-0.08984375,-0.265625,1,0,0,2.6963,Basalt_rect,6,0,6,0,1,
6553ea53ba6af67a93e61594,SCR,2024-06-25_16h41.53.894,LearnStrategy,2023.2.3,Win32,59.99880002,5,2,8,,,,,,,,6,09,,,,,,,,,,,,,6,1.604,1,,,,,,-0.1015625,-0.39453125,1,0,0,1.6037,Pegmatite_rect,7,0,7,0,1,
6553ea53ba6af67a93e61594,SCR,2024-06-25_16h41.53.894,LearnStrategy,2023.2.3,Win32,59.99880002,5,2,9,,,,,,,,5,05,,,,,,,,,,,,,5,1.875,1,,,,,,-0.411458333,-0.403645833,1,0,0,1.8748,Obsidian_rect,8,0,8,0,1,
6553ea53ba6af67a93e61594,SCR,2024-06-25_16h41.53.894,LearnStrategy,2023.2.3,Win32,59.99880002,5,2,10,,,,,,,,7,12,,,,,,,,,,,,,3,1.846,0,,,,,,0.171875,-0.263020833,1,0,0,1.8457,Diorite_rect,9,0,9,0,1,
6553ea53ba6af67a93e61594,SCR,2024-06-25_16h41.53.894,LearnStrategy,2023.2.3,Win32,59.99880002,5,2,11,,,,,,,,4,16,,,,,,,,,,,,,2,11.414,0,,,,,,-0.122395833,-0.26953125,1,0,0,11.4135,Basalt_rect,10,0,10,0,1,
6553ea53ba6af67a93e61594,SCR,2024-06-25_16h41.53.894,LearnStrategy,2023.2.3,Win32,59.99880002,5,2,12,,,,,,,,4,08,,,,,,,,,,,,,1,2.516,0,,,,,,-0.3515625,-0.25,1,0,0,2.5159,Andesite_rect,11,0,11,0,1,
6553ea53ba6af67a93e61594,SCR,2024-06-25_16h41.53.894,LearnStrategy,2023.2.3,Win32,59.99880002,5,2,13,,,,,,,,1,11,,,,,,,,,,,,,1,1.956,1,,,,,,-0.373697917,-0.2578125,1,0,0,1.9563,Andesite_rect,12,0,12,0,1,
6553ea53ba6af67a93e61594,SCR,2024-06-25_16h41.53.894,LearnStrategy,2023.2.3,Win32,59.99880002,5,2,14,,,,,,,,6,06,,,,,,,,,,,,,6,1.866,1,,,,,,-0.125,-0.421875,1,0,0,1.8658,Pegmatite_rect,13,0,13,0,1,
6553ea53ba6af67a93e61594,SCR,2024-06-25_16h41.53.894,LearnStrategy,2023.2.3,Win32,59.99880002,5,2,15,,,,,,,,2,01,,,,,,,,,,,,,7,4.116,0,,,,,,0.096354167,-0.412760417,1,0,0,4.1163,Peridotite_rect,14,0,14,0,1,
6553ea53ba6af67a93e61594,SCR,2024-06-25_16h41.53.894,LearnStrategy,2023.2.3,Win32,59.99880002,5,2,16,,,,,,,,3,07,,,,,,,,,,,,,3,1.842,1,,,,,,0.19140625,-0.26953125,1,0,0,1.8421,Diorite_rect,15,0,15,0,1,
6553ea53ba6af67a93e61594,SCR,2024-06-25_16h41.53.894,LearnStrategy,2023.2.3,Win32,59.99880002,6,1,1,-0.548177083,-0.408854167,1,0,0,2.9162,Basalt_02,2,02,1,1,2.916,3,08,-0.11328125,-0.41796875,1,0,0,2.5917,Pegmatite_rect,6,2.592,0,0,0,0,0,1,,,,,,,,,,,,,
6553ea53ba6af67a93e61594,SCR,2024-06-25_16h41.53.894,LearnStrategy,2023.2.3,Win32,59.99880002,6,1,2,0.51171875,-0.41015625,1,0,0,2.8974,Gabbro_10,4,10,1,8,2.897,4,05,0.41015625,-0.397135417,1,0,0,1.3711,Pumice_rect,8,1.371,0,1,0,1,0,1,,,,,,,,,,,,,
6553ea53ba6af67a93e61594,SCR,2024-06-25_16h41.53.894,LearnStrategy,2023.2.3,Win32,59.99880002,6,1,3,-0.537760417,-0.104166667,1,0,0,1.6595,Gabbro_03,4,03,3,1,1.659,7,15,0.390625,-0.24609375,1,0,0,2.1285,Gabbro_rect,4,2.128,1,2,0,2,0,1,,,,,,,,,,,,,
6553ea53ba6af67a93e61594,SCR,2024-06-25_16h41.53.894,LearnStrategy,2023.2.3,Win32,59.99880002,6,1,4,-0.2109375,-0.114583333,1,0,0,1.8749,Peridotite_15,7,15,3,3,1.875,1,14,-0.154947917,-0.407552083,1,0,0,1.1744,Pegmatite_rect,6,1.174,0,3,0,3,0,1,,,,,,,,,,,,,
6553ea53ba6af67a93e61594,SCR,2024-06-25_16h41.53.894,LearnStrategy,2023.2.3,Win32,59.99880002,6,1,5,-0.03515625,0.079427083,1,0,0,1.4169,Obsidian_14,5,14,4,4,1.417,1,04,-0.36328125,-0.39453125,1,0,0,1.5591,Obsidian_rect,5,1.559,1,4,0,4,0,1,,,,,,,,,,,,,
6553ea53ba6af67a93e61594,SCR,2024-06-25_16h41.53.894,LearnStrategy,2023.2.3,Win32,59.99880002,6,1,6,0.236979167,-0.108072917,1,0,0,2.144,Obsidian_12,5,12,3,6,2.144,6,15,-0.432291667,-0.380208333,1,0,0,1.1104,Obsidian_rect,5,1.11,1,5,0,5,0,1,,,,,,,,,,,,,
6553ea53ba6af67a93e61594,SCR,2024-06-25_16h41.53.894,LearnStrategy,2023.2.3,Win32,59.99880002,6,1,7,-0.399739583,0.412760417,1,0,0,2.6726,Obsidian_08,5,08,6,2,2.673,2,11,-0.411458333,-0.419270833,1,0,0,1.2531,Obsidian_rect,5,1.253,1,6,0,6,0,1,,,,,,,,,,,,,
6553ea53ba6af67a93e61594,SCR,2024-06-25_16h41.53.894,LearnStrategy,2023.2.3,Win32,59.99880002,6,1,8,0.233072917,-0.139322917,1,0,0,3.3898,Obsidian_12,5,12,3,6,3.39,2,12,-0.4140625,-0.403645833,1,0,0,1.213,Obsidian_rect,5,1.213,1,7,0,7,0,1,,,,,,,,,,,,,
6553ea53ba6af67a93e61594,SCR,2024-06-25_16h41.53.894,LearnStrategy,2023.2.3,Win32,59.99880002,6,1,9,-0.061197917,0.10546875,1,0,0,1.4513,Obsidian_14,5,14,4,4,1.451,6,11,-0.375,-0.415364583,1,0,0,3.3006,Obsidian_rect,5,3.301,1,8,0,8,0,1,,,,,,,,,,,,,
6553ea53ba6af67a93e61594,SCR,2024-06-25_16h41.53.894,LearnStrategy,2023.2.3,Win32,59.99880002,6,1,10,-0.223958333,-0.2265625,1,0,0,4.9584,Basalt_12,2,12,2,3,4.958,2,02,-0.139322917,-0.23046875,1,0,0,1.4532,Basalt_rect,2,1.453,1,9,0,9,0,1,,,,,,,,,,,,,
6553ea53ba6af67a93e61594,SCR,2024-06-25_16h41.53.894,LearnStrategy,2023.2.3,Win32,59.99880002,6,1,11,0.256510417,-0.2421875,1,0,0,2.2186,Andesite_14,1,14,2,6,2.219,4,03,0.384114583,-0.2578125,1,0,0,2.8769,Gabbro_rect,4,2.877,0,10,0,10,0,1,,,,,,,,,,,,,
6553ea53ba6af67a93e61594,SCR,2024-06-25_16h41.53.894,LearnStrategy,2023.2.3,Win32,59.99880002,6,1,12,-0.08203125,-0.108072917,1,0,0,2.1396,Pumice_08,8,08,3,4,2.14,1,02,0.412760417,-0.41015625,1,0,0,1.2398,Pumice_rect,8,1.24,1,11,0,11,0,1,,,,,,,,,,,,,
6553ea53ba6af67a93e61594,SCR,2024-06-25_16h41.53.894,LearnStrategy,2023.2.3,Win32,59.99880002,6,1,13,0.56640625,-0.276041667,1,0,0,1.4088,Diorite_08,3,08,2,8,1.409,4,14,0.173177083,-0.240885417,1,0,0,0.8538,Diorite_rect,3,0.854,1,12,0,12,0,1,,,,,,,,,,,,,
6553ea53ba6af67a93e61594,SCR,2024-06-25_16h41.53.894,LearnStrategy,2023.2.3,Win32,59.99880002,6,1,14,0.059895833,-0.252604167,1,0,0,2.748,Basalt_04,2,04,2,5,2.748,7,13,-0.165364583,-0.231770833,1,0,0,0.8657,Basalt_rect,2,0.866,1,13,0,13,0,1,,,,,,,,,,,,,
6553ea53ba6af67a93e61594,SCR,2024-06-25_16h41.53.894,LearnStrategy,2023.2.3,Win32,59.99880002,6,1,15,-0.217447917,0.10546875,1,0,0,1.468,Peridotite_16,7,16,4,3,1.468,5,11,0.092447917,-0.404947917,1,0,0,1.9391,Peridotite_rect,7,1.939,1,14,0,14,0,1,,,,,,,,,,,,,
6553ea53ba6af67a93e61594,SCR,2024-06-25_16h41.53.894,LearnStrategy,2023.2.3,Win32,59.99880002,6,1,16,-0.200520833,0.236979167,1,0,0,1.4759,Gabbro_05,4,05,5,3,1.476,7,05,0.109375,-0.399739583,1,0,0,1.4706,Peridotite_rect,7,1.471,0,15,0,15,0,1,,,,,,,,,,,,,
6553ea53ba6af67a93e61594,SCR,2024-06-25_16h41.53.894,LearnStrategy,2023.2.3,Win32,59.99880002,6,2,1,,,,,,,,7,04,,,,,,,,,,,,,4,3.578,0,,,,,,0.38671875,-0.243489583,1,0,0,3.578,Gabbro_rect,0,0,0,0,1,
6553ea53ba6af67a93e61594,SCR,2024-06-25_16h41.53.894,LearnStrategy,2023.2.3,Win32,59.99880002,6,2,2,,,,,,,,2,06,,,,,,,,,,,,,2,1.463,1,,,,,,-0.110677083,-0.243489583,1,0,0,1.4631,Basalt_rect,1,0,1,0,1,
6553ea53ba6af67a93e61594,SCR,2024-06-25_16h41.53.894,LearnStrategy,2023.2.3,Win32,59.99880002,6,2,3,,,,,,,,1,16,,,,,,,,,,,,,1,3.251,1,,,,,,-0.361979167,-0.248697917,1,0,0,3.2511,Andesite_rect,2,0,2,0,1,
6553ea53ba6af67a93e61594,SCR,2024-06-25_16h41.53.894,LearnStrategy,2023.2.3,Win32,59.99880002,6,2,4,,,,,,,,5,07,,,,,,,,,,,,,5,1.59,1,,,,,,-0.41015625,-0.401041667,1,0,0,1.5899,Obsidian_rect,3,0,3,0,1,
6553ea53ba6af67a93e61594,SCR,2024-06-25_16h41.53.894,LearnStrategy,2023.2.3,Win32,59.99880002,6,2,5,,,,,,,,5,06,,,,,,,,,,,,,5,1.333,1,,,,,,-0.391927083,-0.408854167,1,0,0,1.3332,Obsidian_rect,4,0,4,0,1,
6553ea53ba6af67a93e61594,SCR,2024-06-25_16h41.53.894,LearnStrategy,2023.2.3,Win32,59.99880002,6,2,6,,,,,,,,3,14,,,,,,,,,,,,,3,1.99,1,,,,,,0.161458333,-0.26171875,1,0,0,1.9903,Diorite_rect,5,0,5,0,1,
6553ea53ba6af67a93e61594,SCR,2024-06-25_16h41.53.894,LearnStrategy,2023.2.3,Win32,59.99880002,6,2,7,,,,,,,,6,13,,,,,,,,,,,,,4,2.478,0,,,,,,0.438802083,-0.243489583,1,0,0,2.4778,Gabbro_rect,6,0,6,0,1,
6553ea53ba6af67a93e61594,SCR,2024-06-25_16h41.53.894,LearnStrategy,2023.2.3,Win32,59.99880002,6,2,8,,,,,,,,1,01,,,,,,,,,,,,,1,3.614,1,,,,,,-0.358072917,-0.2578125,1,0,0,3.6142,Andesite_rect,7,0,7,0,1,
6553ea53ba6af67a93e61594,SCR,2024-06-25_16h41.53.894,LearnStrategy,2023.2.3,Win32,59.99880002,6,2,9,,,,,,,,4,12,,,,,,,,,,,,,1,7.098,0,,,,,,-0.390625,-0.264322917,1,0,0,7.098,Andesite_rect,8,0,8,0,1,
6553ea53ba6af67a93e61594,SCR,2024-06-25_16h41.53.894,LearnStrategy,2023.2.3,Win32,59.99880002,6,2,10,,,,,,,,4,15,,,,,,,,,,,,,6,2.301,0,,,,,,-0.153645833,-0.393229167,1,0,0,2.3008,Pegmatite_rect,9,0,9,0,1,
6553ea53ba6af67a93e61594,SCR,2024-06-25_16h41.53.894,LearnStrategy,2023.2.3,Win32,59.99880002,6,2,11,,,,,,,,8,15,,,,,,,,,,,,,8,1.422,1,,,,,,0.4296875,-0.407552083,1,0,0,1.4224,Pumice_rect,10,0,10,0,1,
6553ea53ba6af67a93e61594,SCR,2024-06-25_16h41.53.894,LearnStrategy,2023.2.3,Win32,59.99880002,6,2,12,,,,,,,,7,06,,,,,,,,,,,,,7,3.064,1,,,,,,0.096354167,-0.40234375,1,0,0,3.0644,Peridotite_rect,11,0,11,0,1,
6553ea53ba6af67a93e61594,SCR,2024-06-25_16h41.53.894,LearnStrategy,2023.2.3,Win32,59.99880002,6,2,13,,,,,,,,3,15,,,,,,,,,,,,,4,2.758,0,,,,,,0.352864583,-0.255208333,1,0,0,2.7585,Gabbro_rect,12,0,12,0,1,
6553ea53ba6af67a93e61594,SCR,2024-06-25_16h41.53.894,LearnStrategy,2023.2.3,Win32,59.99880002,6,2,14,,,,,,,,8,10,,,,,,,,,,,,,2,2.273,0,,,,,,-0.100260417,-0.263020833,1,0,0,2.2733,Basalt_rect,13,0,13,0,1,
6553ea53ba6af67a93e61594,SCR,2024-06-25_16h41.53.894,LearnStrategy,2023.2.3,Win32,59.99880002,6,2,15,,,,,,,,6,07,,,,,,,,,,,,,5,2.367,0,,,,,,-0.397135417,-0.388020833,1,0,0,2.3673,Obsidian_rect,14,0,14,0,1,
6553ea53ba6af67a93e61594,SCR,2024-06-25_16h41.53.894,LearnStrategy,2023.2.3,Win32,59.99880002,6,2,16,,,,,,,,2,14,,,,,,,,,,,,,8,4.98,0,,,,,,0.3984375,-0.408854167,1,0,0,4.9801,Pumice_rect,15,0,15,0,1,
6553ea53ba6af67a93e61594,SCR,2024-06-25_16h41.53.894,LearnStrategy,2023.2.3,Win32,59.99880002,7,1,1,-0.524739583,0.390625,1,0,0,112.232,Peridotite_14,7,14,6,1,112.232,1,07,-0.139322917,-0.41015625,1,0,0,5.3182,Pegmatite_rect,6,5.318,0,0,0,0,0,1,,,,,,,,,,,,,
6553ea53ba6af67a93e61594,SCR,2024-06-25_16h41.53.894,LearnStrategy,2023.2.3,Win32,59.99880002,7,1,2,-0.584635417,0.235677083,1,0,0,14.1767,Pegmatite_05,6,05,5,1,14.177,7,14,0.123697917,-0.4140625,1,0,0,3.2091,Peridotite_rect,7,3.209,0,1,0,1,0,1,,,,,,,,,,,,,
6553ea53ba6af67a93e61594,SCR,2024-06-25_16h41.53.894,LearnStrategy,2023.2.3,Win32,59.99880002,7,1,3,0.095052083,-0.2734375,1,0,0,16.2256,Basalt_04,2,04,2,5,16.226,3,10,-0.1171875,-0.26953125,1,0,0,1.4436,Basalt_rect,2,1.444,1,2,0,2,0,1,,,,,,,,,,,,,
6553ea53ba6af67a93e61594,SCR,2024-06-25_16h41.53.894,LearnStrategy,2023.2.3,Win32,59.99880002,7,1,4,-0.423177083,0.072916667,1,0,0,1.2266,Diorite_02,3,02,4,2,1.227,8,08,0.38671875,-0.264322917,1,0,0,1.4611,Gabbro_rect,4,1.461,0,3,0,3,0,1,,,,,,,,,,,,,
6553ea53ba6af67a93e61594,SCR,2024-06-25_16h41.53.894,LearnStrategy,2023.2.3,Win32,59.99880002,7,1,5,0.529947917,-0.11328125,1,0,0,1.5287,Pumice_06,8,06,3,8,1.529,6,16,-0.143229167,-0.40625,1,0,0,3.4654,Pegmatite_rect,6,3.465,0,4,0,4,0,1,,,,,,,,,,,,,
6553ea53ba6af67a93e61594,SCR,2024-06-25_16h41.53.894,LearnStrategy,2023.2.3,Win32,59.99880002,7,1,6,0.537760417,0.408854167,1,0,0,3.9954,Diorite_10,3,10,6,8,3.995,4,14,0.19921875,-0.256510417,1,0,0,2.472,Diorite_rect,3,2.472,1,5,0,5,0,1,,,,,,,,,,,,,
6553ea53ba6af67a93e61594,SCR,2024-06-25_16h41.53.894,LearnStrategy,2023.2.3,Win32,59.99880002,7,1,7,0.095052083,0.067708333,1,0,0,1.5126,Pumice_02,8,02,4,5,1.513,4,14,0.419270833,-0.411458333,1,0,0,1.248,Pumice_rect,8,1.248,1,6,0,6,0,1,,,,,,,,,,,,,
6553ea53ba6af67a93e61594,SCR,2024-06-25_16h41.53.894,LearnStrategy,2023.2.3,Win32,59.99880002,7,1,8,-0.528645833,-0.087239583,1,0,0,1.6231,Gabbro_03,4,03,3,1,1.623,7,15,0.151041667,-0.251302083,1,0,0,1.0197,Diorite_rect,3,1.02,0,7,0,7,0,1,,,,,,,,,,,,,
6553ea53ba6af67a93e61594,SCR,2024-06-25_16h41.53.894,LearnStrategy,2023.2.3,Win32,59.99880002,7,1,9,0.416666667,-0.407552083,1,0,0,13.6387,Andesite_07,1,07,1,7,13.639,1,07,0.1796875,-0.255208333,1,0,0,2.4278,Diorite_rect,3,2.428,0,8,0,8,0,1,,,,,,,,,,,,,
6553ea53ba6af67a93e61594,SCR,2024-06-25_16h41.53.894,LearnStrategy,2023.2.3,Win32,59.99880002,7,1,10,0.52734375,-0.119791667,1,0,0,2.0218,Pumice_06,8,06,3,8,2.022,3,02,0.466145833,-0.415364583,1,0,0,1.3399,Pumice_rect,8,1.34,1,9,0,9,0,1,,,,,,,,,,,,,
6553ea53ba6af67a93e61594,SCR,2024-06-25_16h41.53.894,LearnStrategy,2023.2.3,Win32,59.99880002,7,1,11,-0.3984375,-0.291666667,1,0,0,2.6466,Pegmatite_11,6,11,2,2,2.647,4,01,-0.139322917,-0.407552083,1,0,0,1.3927,Pegmatite_rect,6,1.393,1,10,0,10,0,1,,,,,,,,,,,,,
6553ea53ba6af67a93e61594,SCR,2024-06-25_16h41.53.894,LearnStrategy,2023.2.3,Win32,59.99880002,7,1,12,-0.377604167,-0.09375,1,0,0,3.0103,Peridotite_07,7,07,3,2,3.01,5,08,0.087239583,-0.411458333,1,0,0,2.1756,Peridotite_rect,7,2.176,1,11,0,11,0,1,,,,,,,,,,,,,
6553ea53ba6af67a93e61594,SCR,2024-06-25_16h41.53.894,LearnStrategy,2023.2.3,Win32,59.99880002,7,1,13,-0.266927083,-0.11328125,1,0,0,2.38,Peridotite_15,7,15,3,3,2.38,2,12,0.102864583,-0.401041667,1,0,0,1.4607,Peridotite_rect,7,1.461,1,12,0,12,0,1,,,,,,,,,,,,,
6553ea53ba6af67a93e61594,SCR,2024-06-25_16h41.53.894,LearnStrategy,2023.2.3,Win32,59.99880002,7,1,14,-0.3828125,-0.0859375,1,0,0,1.405,Peridotite_07,7,07,3,2,1.405,6,10,-0.09765625,-0.408854167,1,0,0,1.5525,Pegmatite_rect,6,1.553,0,13,0,13,0,1,,,,,,,,,,,,,
6553ea53ba6af67a93e61594,SCR,2024-06-25_16h41.53.894,LearnStrategy,2023.2.3,Win32,59.99880002,7,1,15,-0.350260417,-0.114583333,1,0,0,1.7626,Peridotite_07,7,07,3,2,1.763,2,16,0.140625,-0.393229167,1,0,0,1.6024,Peridotite_rect,7,1.602,1,14,0,14,0,1,,,,,,,,,,,,,
6553ea53ba6af67a93e61594,SCR,2024-06-25_16h41.53.894,LearnStrategy,2023.2.3,Win32,59.99880002,7,1,16,-0.197916667,0.088541667,1,0,0,3.2301,Peridotite_16,7,16,4,3,3.23,6,10,-0.173177083,-0.41796875,1,0,0,1.4604,Pegmatite_rect,6,1.46,0,15,0,15,0,1,,,,,,,,,,,,,
6553ea53ba6af67a93e61594,SCR,2024-06-25_16h41.53.894,LearnStrategy,2023.2.3,Win32,59.99880002,7,2,1,,,,,,,,4,15,,,,,,,,,,,,,1,10.288,0,,,,,,-0.364583333,-0.234375,1,0,0,10.2875,Andesite_rect,0,0,0,0,1,
6553ea53ba6af67a93e61594,SCR,2024-06-25_16h41.53.894,LearnStrategy,2023.2.3,Win32,59.99880002,7,2,2,,,,,,,,1,11,,,,,,,,,,,,,1,2.988,1,,,,,,-0.372395833,-0.2421875,1,0,0,2.9877,Andesite_rect,1,0,1,0,1,
6553ea53ba6af67a93e61594,SCR,2024-06-25_16h41.53.894,LearnStrategy,2023.2.3,Win32,59.99880002,7,2,3,,,,,,,,2,08,,,,,,,,,,,,,2,2.839,1,,,,,,-0.1484375,-0.256510417,1,0,0,2.8389,Basalt_rect,2,0,2,0,1,
6553ea53ba6af67a93e61594,SCR,2024-06-25_16h41.53.894,LearnStrategy,2023.2.3,Win32,59.99880002,7,2,4,,,,,,,,6,13,,,,,,,,,,,,,6,5.73,1,,,,,,-0.059895833,-0.385416667,1,0,0,5.7295,Pegmatite_rect,3,0,3,0,1,
6553ea53ba6af67a93e61594,SCR,2024-06-25_16h41.53.894,LearnStrategy,2023.2.3,Win32,59.99880002,7,2,5,,,,,,,,1,16,,,,,,,,,,,,,3,2.4,0,,,,,,0.184895833,-0.255208333,1,0,0,2.4004,Diorite_rect,4,0,4,0,1,
6553ea53ba6af67a93e61594,SCR,2024-06-25_16h41.53.894,LearnStrategy,2023.2.3,Win32,59.99880002,7,2,6,,,,,,,,2,14,,,,,,,,,,,,,8,2.101,0,,,,,,0.415364583,-0.419270833,1,0,0,2.1009,Pumice_rect,5,0,5,0,1,
6553ea53ba6af67a93e61594,SCR,2024-06-25_16h41.53.894,LearnStrategy,2023.2.3,Win32,59.99880002,7,2,7,,,,,,,,8,09,,,,,,,,,,,,,8,0.981,1,,,,,,0.41015625,-0.411458333,1,0,0,0.9814,Pumice_rect,6,0,6,0,1,
6553ea53ba6af67a93e61594,SCR,2024-06-25_16h41.53.894,LearnStrategy,2023.2.3,Win32,59.99880002,7,2,8,,,,,,,,5,10,,,,,,,,,,,,,5,1.591,1,,,,,,-0.369791667,-0.397135417,1,0,0,1.591,Obsidian_rect,7,0,7,0,1,
6553ea53ba6af67a93e61594,SCR,2024-06-25_16h41.53.894,LearnStrategy,2023.2.3,Win32,59.99880002,7,2,9,,,,,,,,3,14,,,,,,,,,,,,,4,1.648,0,,,,,,0.337239583,-0.2578125,1,0,0,1.6476,Gabbro_rect,8,0,8,0,1,
6553ea53ba6af67a93e61594,SCR,2024-06-25_16h41.53.894,LearnStrategy,2023.2.3,Win32,59.99880002,7,2,10,,,,,,,,8,15,,,,,,,,,,,,,2,2.168,0,,,,,,-0.087239583,-0.256510417,1,0,0,2.168,Basalt_rect,9,0,9,0,1,
6553ea53ba6af67a93e61594,SCR,2024-06-25_16h41.53.894,LearnStrategy,2023.2.3,Win32,59.99880002,7,2,11,,,,,,,,7,04,,,,,,,,,,,,,4,2.892,0,,,,,,0.36328125,-0.251302083,1,0,0,2.8917,Gabbro_rect,10,0,10,0,1,
6553ea53ba6af67a93e61594,SCR,2024-06-25_16h41.53.894,LearnStrategy,2023.2.3,Win32,59.99880002,7,2,12,,,,,,,,7,10,,,,,,,,,,,,,7,2.028,1,,,,,,0.092447917,-0.408854167,1,0,0,2.0281,Peridotite_rect,11,0,11,0,1,
6553ea53ba6af67a93e61594,SCR,2024-06-25_16h41.53.894,LearnStrategy,2023.2.3,Win32,59.99880002,7,2,13,,,,,,,,4,08,,,,,,,,,,,,,6,3.757,0,,,,,,-0.059895833,-0.412760417,1,0,0,3.7575,Pegmatite_rect,12,0,12,0,1,
6553ea53ba6af67a93e61594,SCR,2024-06-25_16h41.53.894,LearnStrategy,2023.2.3,Win32,59.99880002,7,2,14,,,,,,,,3,09,,,,,,,,,,,,,3,2.318,1,,,,,,0.145833333,-0.2578125,1,0,0,2.3181,Diorite_rect,13,0,13,0,1,
6553ea53ba6af67a93e61594,SCR,2024-06-25_16h41.53.894,LearnStrategy,2023.2.3,Win32,59.99880002,7,2,15,,,,,,,,6,12,,,,,,,,,,,,,6,4.334,1,,,,,,-0.102864583,-0.407552083,1,0,0,4.3337,Pegmatite_rect,14,0,14,0,1,
6553ea53ba6af67a93e61594,SCR,2024-06-25_16h41.53.894,LearnStrategy,2023.2.3,Win32,59.99880002,7,2,16,,,,,,,,5,05,,,,,,,,,,,,,5,1.391,1,,,,,,-0.352864583,-0.407552083,1,0,0,1.3907,Obsidian_rect,15,0,15,0,1,
6553ea53ba6af67a93e61594,SCR,2024-06-25_16h41.53.894,LearnStrategy,2023.2.3,Win32,59.99880002,8,1,1,-0.048177083,0.227864583,1,0,0,3.1004,Obsidian_11,5,11,5,4,3.1,6,05,-0.427083333,-0.389322917,1,0,0,1.3405,Obsidian_rect,5,1.341,1,0,0,0,0,1,,,,,,,,,,,,,
6553ea53ba6af67a93e61594,SCR,2024-06-25_16h41.53.894,LearnStrategy,2023.2.3,Win32,59.99880002,8,1,2,-0.25,-0.104166667,1,0,0,1.9334,Peridotite_15,7,15,3,3,1.933,1,10,0.143229167,-0.415364583,1,0,0,1.6795,Peridotite_rect,7,1.68,1,1,0,1,0,1,,,,,,,,,,,,,
6553ea53ba6af67a93e61594,SCR,2024-06-25_16h41.53.894,LearnStrategy,2023.2.3,Win32,59.99880002,8,1,3,0.21484375,0.100260417,1,0,0,1.757,Peridotite_13,7,13,4,6,1.757,8,13,0.095052083,-0.393229167,1,0,0,2.1291,Peridotite_rect,7,2.129,1,2,0,2,0,1,,,,,,,,,,,,,
6553ea53ba6af67a93e61594,SCR,2024-06-25_16h41.53.894,LearnStrategy,2023.2.3,Win32,59.99880002,8,1,4,0.388020833,0.087239583,1,0,0,1.259,Pumice_04,8,04,4,7,1.259,2,11,0.40625,-0.411458333,1,0,0,1.7465,Pumice_rect,8,1.747,1,3,0,3,0,1,,,,,,,,,,,,,
6553ea53ba6af67a93e61594,SCR,2024-06-25_16h41.53.894,LearnStrategy,2023.2.3,Win32,59.99880002,8,1,5,0.53125,0.114583333,1,0,0,1.5468,Gabbro_14,4,14,4,8,1.547,7,05,-0.13671875,-0.244791667,1,0,0,1.8157,Basalt_rect,2,1.816,0,4,0,4,0,1,,,,,,,,,,,,,
6553ea53ba6af67a93e61594,SCR,2024-06-25_16h41.53.894,LearnStrategy,2023.2.3,Win32,59.99880002,8,1,6,0.397135417,-0.08984375,1,0,0,3.337,Andesite_02,1,02,3,7,3.337,3,08,-0.170572917,-0.235677083,1,0,0,2.2563,Basalt_rect,2,2.256,0,5,0,5,0,1,,,,,,,,,,,,,
6553ea53ba6af67a93e61594,SCR,2024-06-25_16h41.53.894,LearnStrategy,2023.2.3,Win32,59.99880002,8,1,7,-0.552083333,0.088541667,1,0,0,12.6512,Andesite_05,1,05,4,1,12.651,7,16,-0.14453125,-0.381510417,1,0,0,6.2132,Pegmatite_rect,6,6.213,0,6,0,6,0,1,,,,,,,,,,,,,
6553ea53ba6af67a93e61594,SCR,2024-06-25_16h41.53.894,LearnStrategy,2023.2.3,Win32,59.99880002,8,1,8,-0.38671875,-0.276041667,1,0,0,4.6432,Pegmatite_11,6,11,2,2,4.643,4,05,0.080729167,-0.411458333,1,0,0,4.0096,Peridotite_rect,7,4.01,0,7,0,7,0,1,,,,,,,,,,,,,
6553ea53ba6af67a93e61594,SCR,2024-06-25_16h41.53.894,LearnStrategy,2023.2.3,Win32,59.99880002,8,1,9,-0.37109375,-0.087239583,1,0,0,3.4966,Peridotite_07,7,07,3,2,3.497,8,06,0.1015625,-0.41015625,1,0,0,2.8901,Peridotite_rect,7,2.89,1,8,0,8,0,1,,,,,,,,,,,,,
6553ea53ba6af67a93e61594,SCR,2024-06-25_16h41.53.894,LearnStrategy,2023.2.3,Win32,59.99880002,8,1,10,0.091145833,0.123697917,1,0,0,1.6937,Pumice_02,8,02,4,5,1.694,4,01,-0.091145833,-0.26171875,1,0,0,1.5872,Basalt_rect,2,1.587,0,9,0,9,0,1,,,,,,,,,,,,,
6553ea53ba6af67a93e61594,SCR,2024-06-25_16h41.53.894,LearnStrategy,2023.2.3,Win32,59.99880002,8,1,11,0.0703125,-0.41796875,1,0,0,20.6026,Pegmatite_15,6,15,1,5,20.603,6,15,-0.115885417,-0.40625,1,0,0,2.1353,Pegmatite_rect,6,2.135,1,10,0,10,0,1,,,,,,,,,,,,,
6553ea53ba6af67a93e61594,SCR,2024-06-25_16h41.53.894,LearnStrategy,2023.2.3,Win32,59.99880002,8,1,12,0.233072917,-0.420572917,1,0,0,2.0307,Obsidian_02,5,02,1,6,2.031,4,05,-0.313802083,-0.385416667,1,0,0,1.1705,Obsidian_rect,5,1.17,1,11,0,11,0,1,,,,,,,,,,,,,
6553ea53ba6af67a93e61594,SCR,2024-06-25_16h41.53.894,LearnStrategy,2023.2.3,Win32,59.99880002,8,1,13,-0.049479167,-0.423177083,1,0,0,1.8653,Andesite_04,1,04,1,4,1.865,3,02,-0.41796875,-0.24609375,1,0,0,3.2025,Andesite_rect,1,3.202,1,12,0,12,0,1,,,,,,,,,,,,,
6553ea53ba6af67a93e61594,SCR,2024-06-25_16h41.53.894,LearnStrategy,2023.2.3,Win32,59.99880002,8,1,14,0.420572917,-0.41015625,1,0,0,1.4725,Andesite_07,1,07,1,7,1.473,2,16,0.3984375,-0.243489583,1,0,0,1.9822,Gabbro_rect,4,1.982,0,13,0,13,0,1,,,,,,,,,,,,,
6553ea53ba6af67a93e61594,SCR,2024-06-25_16h41.53.894,LearnStrategy,2023.2.3,Win32,59.99880002,8,1,15,0.25,-0.125,1,0,0,3.4139,Obsidian_12,5,12,3,6,3.414,1,04,-0.372395833,-0.407552083,1,0,0,1.8806,Obsidian_rect,5,1.881,1,14,0,14,0,1,,,,,,,,,,,,,
6553ea53ba6af67a93e61594,SCR,2024-06-25_16h41.53.894,LearnStrategy,2023.2.3,Win32,59.99880002,8,1,16,-0.528645833,-0.25,1,0,0,2.1639,Basalt_11,2,11,2,1,2.164,4,14,-0.091145833,-0.26171875,1,0,0,1.8899,Basalt_rect,2,1.89,1,15,0,15,0,1,,,,,,,,,,,,,
6553ea53ba6af67a93e61594,SCR,2024-06-25_16h41.53.894,LearnStrategy,2023.2.3,Win32,59.99880002,8,2,1,,,,,,,,8,10,,,,,,,,,,,,,2,3.406,0,,,,,,-0.069010417,-0.252604167,1,0,0,3.406,Basalt_rect,0,0,0,0,1,
6553ea53ba6af67a93e61594,SCR,2024-06-25_16h41.53.894,LearnStrategy,2023.2.3,Win32,59.99880002,8,2,2,,,,,,,,5,16,,,,,,,,,,,,,5,1.307,1,,,,,,-0.360677083,-0.39453125,1,0,0,1.3074,Obsidian_rect,1,0,1,0,1,
6553ea53ba6af67a93e61594,SCR,2024-06-25_16h41.53.894,LearnStrategy,2023.2.3,Win32,59.99880002,8,2,3,,,,,,,,7,02,,,,,,,,,,,,,7,1.649,1,,,,,,0.100260417,-0.397135417,1,0,0,1.6494,Peridotite_rect,2,0,2,0,1,
6553ea53ba6af67a93e61594,SCR,2024-06-25_16h41.53.894,LearnStrategy,2023.2.3,Win32,59.99880002,8,2,4,,,,,,,,6,07,,,,,,,,,,,,,6,1.598,1,,,,,,-0.095052083,-0.411458333,1,0,0,1.5978,Pegmatite_rect,3,0,3,0,1,
6553ea53ba6af67a93e61594,SCR,2024-06-25_16h41.53.894,LearnStrategy,2023.2.3,Win32,59.99880002,8,2,5,,,,,,,,7,08,,,,,,,,,,,,,7,1.089,1,,,,,,0.0625,-0.39453125,1,0,0,1.0892,Peridotite_rect,4,0,4,0,1,
6553ea53ba6af67a93e61594,SCR,2024-06-25_16h41.53.894,LearnStrategy,2023.2.3,Win32,59.99880002,8,2,6,,,,,,,,4,12,,,,,,,,,,,,,1,4.389,0,,,,,,-0.356770833,-0.24609375,1,0,0,4.389,Andesite_rect,5,0,5,0,1,
6553ea53ba6af67a93e61594,SCR,2024-06-25_16h41.53.894,LearnStrategy,2023.2.3,Win32,59.99880002,8,2,7,,,,,,,,1,03,,,,,,,,,,,,,1,1.465,1,,,,,,-0.390625,-0.233072917,1,0,0,1.4645,Andesite_rect,6,0,6,0,1,
6553ea53ba6af67a93e61594,SCR,2024-06-25_16h41.53.894,LearnStrategy,2023.2.3,Win32,59.99880002,8,2,8,,,,,,,,3,06,,,,,,,,,,,,,3,1.798,1,,,,,,0.16015625,-0.255208333,1,0,0,1.798,Diorite_rect,7,0,7,0,1,
6553ea53ba6af67a93e61594,SCR,2024-06-25_16h41.53.894,LearnStrategy,2023.2.3,Win32,59.99880002,8,2,9,,,,,,,,2,10,,,,,,,,,,,,,4,2.795,0,,,,,,0.341145833,-0.23828125,1,0,0,2.795,Gabbro_rect,8,0,8,0,1,
6553ea53ba6af67a93e61594,SCR,2024-06-25_16h41.53.894,LearnStrategy,2023.2.3,Win32,59.99880002,8,2,10,,,,,,,,5,04,,,,,,,,,,,,,5,1.735,1,,,,,,-0.423177083,-0.41015625,1,0,0,1.7348,Obsidian_rect,9,0,9,0,1,
6553ea53ba6af67a93e61594,SCR,2024-06-25_16h41.53.894,LearnStrategy,2023.2.3,Win32,59.99880002,8,2,11,,,,,,,,3,11,,,,,,,,,,,,,3,2.82,1,,,,,,0.182291667,-0.266927083,1,0,0,2.82,Diorite_rect,10,0,10,0,1,
6553ea53ba6af67a93e61594,SCR,2024-06-25_16h41.53.894,LearnStrategy,2023.2.3,Win32,59.99880002,8,2,12,,,,,,,,8,16,,,,,,,,,,,,,8,1.698,1,,,,,,0.48046875,-0.411458333,1,0,0,1.6984,Pumice_rect,11,0,11,0,1,
6553ea53ba6af67a93e61594,SCR,2024-06-25_16h41.53.894,LearnStrategy,2023.2.3,Win32,59.99880002,8,2,13,,,,,,,,2,06,,,,,,,,,,,,,4,4.009,0,,,,,,0.4453125,-0.255208333,1,0,0,4.0086,Gabbro_rect,12,0,12,0,1,
6553ea53ba6af67a93e61594,SCR,2024-06-25_16h41.53.894,LearnStrategy,2023.2.3,Win32,59.99880002,8,2,14,,,,,,,,6,06,,,,,,,,,,,,,6,6.472,1,,,,,,-0.09765625,-0.399739583,1,0,0,6.4719,Pegmatite_rect,13,0,13,0,1,
6553ea53ba6af67a93e61594,SCR,2024-06-25_16h41.53.894,LearnStrategy,2023.2.3,Win32,59.99880002,8,2,15,,,,,,,,1,01,,,,,,,,,,,,,1,2.218,1,,,,,,-0.384114583,-0.26171875,1,0,0,2.2182,Andesite_rect,14,0,14,0,1,
6553ea53ba6af67a93e61594,SCR,2024-06-25_16h41.53.894,LearnStrategy,2023.2.3,Win32,59.99880002,8,2,16,,,,,,,,4,11,,,,,,,,,,,,,1,3.141,0,,,,,,-0.407552083,-0.240885417,1,0,0,3.1408,Andesite_rect,15,0,15,0,1,
6553ea53ba6af67a93e61594,SCR,2024-06-25_16h41.53.894,LearnStrategy,2023.2.3,Win32,59.99880002,9,1,1,-0.380208333,-0.274739583,1,0,0,4.4404,Pegmatite_11,6,11,2,2,4.44,4,01,-0.174479167,-0.40234375,1,0,0,0.9034,Pegmatite_rect,6,0.903,1,0,0,0,0,1,,,,,,,,,,,,,
6553ea53ba6af67a93e61594,SCR,2024-06-25_16h41.53.894,LearnStrategy,2023.2.3,Win32,59.99880002,9,1,2,-0.092447917,-0.434895833,1,0,0,1.0784,Andesite_04,1,04,1,4,1.078,7,15,-0.37890625,-0.26171875,1,0,0,1.3752,Andesite_rect,1,1.375,1,1,0,1,0,1,,,,,,,,,,,,,
6553ea53ba6af67a93e61594,SCR,2024-06-25_16h41.53.894,LearnStrategy,2023.2.3,Win32,59.99880002,9,1,3,0.055989583,-0.4140625,1,0,0,1.2457,Pegmatite_15,6,15,1,5,1.246,8,13,-0.170572917,-0.4140625,1,0,0,1.1366,Pegmatite_rect,6,1.137,1,2,0,2,0,1,,,,,,,,,,,,,
6553ea53ba6af67a93e61594,SCR,2024-06-25_16h41.53.894,LearnStrategy,2023.2.3,Win32,59.99880002,9,1,4,0.2265625,-0.4375,1,0,0,1.5921,Obsidian_02,5,02,1,6,1.592,4,14,-0.37890625,-0.388020833,1,0,0,0.6724,Obsidian_rect,5,0.672,1,3,0,3,0,1,,,,,,,,,,,,,
6553ea53ba6af67a93e61594,SCR,2024-06-25_16h41.53.894,LearnStrategy,2023.2.3,Win32,59.99880002,9,1,5,0.358072917,-0.411458333,1,0,0,0.9627,Andesite_07,1,07,1,7,0.963,5,12,-0.3828125,-0.251302083,1,0,0,1.6838,Andesite_rect,1,1.684,1,4,0,4,0,1,,,,,,,,,,,,,
6553ea53ba6af67a93e61594,SCR,2024-06-25_16h41.53.894,LearnStrategy,2023.2.3,Win32,59.99880002,9,1,6,0.583333333,-0.436197917,1,0,0,1.3634,Gabbro_10,4,10,1,8,1.363,4,14,0.37890625,-0.263020833,1,0,0,1.4866,Gabbro_rect,4,1.487,1,5,0,5,0,1,,,,,,,,,,,,,
6553ea53ba6af67a93e61594,SCR,2024-06-25_16h41.53.894,LearnStrategy,2023.2.3,Win32,59.99880002,9,1,7,-0.205729167,-0.381510417,1,0,0,2.9397,Basalt_05,2,05,1,3,2.94,2,04,0.3359375,-0.235677083,1,0,0,3.8686,Gabbro_rect,4,3.869,0,6,0,6,0,1,,,,,,,,,,,,,
6553ea53ba6af67a93e61594,SCR,2024-06-25_16h41.53.894,LearnStrategy,2023.2.3,Win32,59.99880002,9,1,8,-0.24609375,-0.37890625,1,0,0,1.2719,Basalt_05,2,05,1,3,1.272,2,12,-0.138020833,-0.240885417,1,0,0,0.9215,Basalt_rect,2,0.921,1,7,0,7,0,1,,,,,,,,,,,,,
6553ea53ba6af67a93e61594,SCR,2024-06-25_16h41.53.894,LearnStrategy,2023.2.3,Win32,59.99880002,9,1,9,-0.373697917,-0.40234375,1,0,0,1.2311,Diorite_16,3,16,1,2,1.231,6,16,0.069010417,-0.234375,1,0,0,0.9174,Diorite_rect,3,0.917,1,8,0,8,0,1,,,,,,,,,,,,,
6553ea53ba6af67a93e61594,SCR,2024-06-25_16h41.53.894,LearnStrategy,2023.2.3,Win32,59.99880002,9,1,10,-0.529947917,-0.388020833,1,0,0,1.214,Basalt_02,2,02,1,1,1.214,3,12,0.319010417,-0.252604167,1,0,0,3.3581,Gabbro_rect,4,3.358,0,9,0,9,0,1,,,,,,,,,,,,,
6553ea53ba6af67a93e61594,SCR,2024-06-25_16h41.53.894,LearnStrategy,2023.2.3,Win32,59.99880002,9,1,11,-0.528645833,-0.384114583,1,0,0,1.662,Basalt_02,2,02,1,1,1.662,8,04,-0.1875,-0.26171875,1,0,0,1.2623,Basalt_rect,2,1.262,1,10,0,10,0,1,,,,,,,,,,,,,
6553ea53ba6af67a93e61594,SCR,2024-06-25_16h41.53.894,LearnStrategy,2023.2.3,Win32,59.99880002,9,1,12,-0.53125,-0.260416667,1,0,0,2.7151,Basalt_11,2,11,2,1,2.715,1,05,0.37890625,-0.416666667,1,0,0,1.6688,Pumice_rect,8,1.669,0,11,0,11,0,1,,,,,,,,,,,,,
6553ea53ba6af67a93e61594,SCR,2024-06-25_16h41.53.894,LearnStrategy,2023.2.3,Win32,59.99880002,9,1,13,-0.416666667,-0.244791667,1,0,0,2.0067,Pegmatite_11,6,11,2,2,2.007,4,03,-0.153645833,-0.3984375,1,0,0,1.6392,Pegmatite_rect,6,1.639,1,12,0,12,0,1,,,,,,,,,,,,,
6553ea53ba6af67a93e61594,SCR,2024-06-25_16h41.53.894,LearnStrategy,2023.2.3,Win32,59.99880002,9,1,14,0.08984375,-0.244791667,1,0,0,1.8314,Basalt_04,2,04,2,5,1.831,1,07,-0.118489583,-0.2421875,1,0,0,1.1575,Basalt_rect,2,1.158,1,13,0,13,0,1,,,,,,,,,,,,,
6553ea53ba6af67a93e61594,SCR,2024-06-25_16h41.53.894,LearnStrategy,2023.2.3,Win32,59.99880002,9,1,15,0.216145833,-0.248697917,1,0,0,9.3822,Andesite_14,1,14,2,6,9.382,7,13,-0.345052083,-0.260416667,1,0,0,1.7485,Andesite_rect,1,1.748,1,14,0,14,0,1,,,,,,,,,,,,,
6553ea53ba6af67a93e61594,SCR,2024-06-25_16h41.53.894,LearnStrategy,2023.2.3,Win32,59.99880002,9,1,16,0.549479167,-0.260416667,1,0,0,6.7457,Diorite_08,3,08,2,8,6.746,2,05,0.368489583,-0.25,1,0,0,1.0917,Gabbro_rect,4,1.092,0,15,0,15,0,1,,,,,,,,,,,,,
6553ea53ba6af67a93e61594,SCR,2024-06-25_16h41.53.894,LearnStrategy,2023.2.3,Win32,59.99880002,9,2,1,,,,,,,,8,05,,,,,,,,,,,,,8,4.858,1,,,,,,0.375,-0.40625,1,0,0,4.8582,Pumice_rect,0,0,0,0,1,
6553ea53ba6af67a93e61594,SCR,2024-06-25_16h41.53.894,LearnStrategy,2023.2.3,Win32,59.99880002,9,2,2,,,,,,,,5,07,,,,,,,,,,,,,5,1.362,1,,,,,,-0.388020833,-0.393229167,1,0,0,1.3624,Obsidian_rect,1,0,1,0,1,
6553ea53ba6af67a93e61594,SCR,2024-06-25_16h41.53.894,LearnStrategy,2023.2.3,Win32,59.99880002,9,2,3,,,,,,,,8,14,,,,,,,,,,,,,2,3.234,0,,,,,,-0.139322917,-0.240885417,1,0,0,3.2337,Basalt_rect,2,0,2,0,1,
6553ea53ba6af67a93e61594,SCR,2024-06-25_16h41.53.894,LearnStrategy,2023.2.3,Win32,59.99880002,9,2,4,,,,,,,,1,09,,,,,,,,,,,,,1,1.822,1,,,,,,-0.368489583,-0.24609375,1,0,0,1.8218,Andesite_rect,3,0,3,0,1,
6553ea53ba6af67a93e61594,SCR,2024-06-25_16h41.53.894,LearnStrategy,2023.2.3,Win32,59.99880002,9,2,5,,,,,,,,3,15,,,,,,,,,,,,,3,1.831,1,,,,,,0.114583333,-0.251302083,1,0,0,1.8308,Diorite_rect,4,0,4,0,1,
6553ea53ba6af67a93e61594,SCR,2024-06-25_16h41.53.894,LearnStrategy,2023.2.3,Win32,59.99880002,9,2,6,,,,,,,,6,03,,,,,,,,,,,,,6,1.563,1,,,,,,-0.08984375,-0.40625,1,0,0,1.5626,Pegmatite_rect,5,0,5,0,1,
6553ea53ba6af67a93e61594,SCR,2024-06-25_16h41.53.894,LearnStrategy,2023.2.3,Win32,59.99880002,9,2,7,,,,,,,,3,07,,,,,,,,,,,,,3,1.512,1,,,,,,0.157552083,-0.25,1,0,0,1.5124,Diorite_rect,6,0,6,0,1,
6553ea53ba6af67a93e61594,SCR,2024-06-25_16h41.53.894,LearnStrategy,2023.2.3,Win32,59.99880002,9,2,8,,,,,,,,4,16,,,,,,,,,,,,,2,4.198,0,,,,,,-0.130208333,-0.240885417,1,0,0,4.1976,Basalt_rect,7,0,7,0,1,
6553ea53ba6af67a93e61594,SCR,2024-06-25_16h41.53.894,LearnStrategy,2023.2.3,Win32,59.99880002,9,2,9,,,,,,,,1,06,,,,,,,,,,,,,1,1.505,1,,,,,,-0.338541667,-0.24609375,1,0,0,1.5049,Andesite_rect,8,0,8,0,1,
6553ea53ba6af67a93e61594,SCR,2024-06-25_16h41.53.894,LearnStrategy,2023.2.3,Win32,59.99880002,9,2,10,,,,,,,,6,09,,,,,,,,,,,,,6,1.631,1,,,,,,-0.161458333,-0.391927083,1,0,0,1.6308,Pegmatite_rect,9,0,9,0,1,
6553ea53ba6af67a93e61594,SCR,2024-06-25_16h41.53.894,LearnStrategy,2023.2.3,Win32,59.99880002,9,2,11,,,,,,,,7,06,,,,,,,,,,,,,7,5.271,1,,,,,,0.080729167,-0.389322917,1,0,0,5.2708,Peridotite_rect,10,0,10,0,1,
6553ea53ba6af67a93e61594,SCR,2024-06-25_16h41.53.894,LearnStrategy,2023.2.3,Win32,59.99880002,9,2,12,,,,,,,,5,06,,,,,,,,,,,,,5,1.365,1,,,,,,-0.408854167,-0.411458333,1,0,0,1.365,Obsidian_rect,11,0,11,0,1,
6553ea53ba6af67a93e61594,SCR,2024-06-25_16h41.53.894,LearnStrategy,2023.2.3,Win32,59.99880002,9,2,13,,,,,,,,2,09,,,,,,,,,,,,,2,1.439,1,,,,,,-0.110677083,-0.24609375,1,0,0,1.4387,Basalt_rect,12,0,12,0,1,
6553ea53ba6af67a93e61594,SCR,2024-06-25_16h41.53.894,LearnStrategy,2023.2.3,Win32,59.99880002,9,2,14,,,,,,,,4,09,,,,,,,,,,,,,4,1.779,1,,,,,,0.376302083,-0.243489583,1,0,0,1.7792,Gabbro_rect,13,0,13,0,1,
6553ea53ba6af67a93e61594,SCR,2024-06-25_16h41.53.894,LearnStrategy,2023.2.3,Win32,59.99880002,9,2,15,,,,,,,,2,01,,,,,,,,,,,,,2,1.617,1,,,,,,-0.123697917,-0.239583333,1,0,0,1.6167,Basalt_rect,14,0,14,0,1,
6553ea53ba6af67a93e61594,SCR,2024-06-25_16h41.53.894,LearnStrategy,2023.2.3,Win32,59.99880002,9,2,16,,,,,,,,7,12,,,,,,,,,,,,,3,1.581,0,,,,,,0.138020833,-0.260416667,1,0,0,1.5811,Diorite_rect,15,0,15,0,1,
6553ea53ba6af67a93e61594,SCR,2024-06-25_16h41.53.894,LearnStrategy,2023.2.3,Win32,59.99880002,,,,,,,,,,,,,,,,,,,,,,,,,,,,,,,,,,,,,,,,,,,,,1
6553ea53ba6af67a93e61594,SCR,2024-06-25_16h41.53.894,LearnStrategy,2023.2.3,Win32,59.99880002,,,,,,,,,,,,,,,,,,,,,,,,,,,,,,,,,,,,,,,,,,,,,
6553ea53ba6af67a93e61594,SCR,2024-06-25_16h41.53.894,LearnStrategy,2023.2.3,Win32,59.99880002,,,,,,,,,,,2,02,1,1,,,,,,,,,,,,,,,,,,,,,,,,,,,,,,,
6553ea53ba6af67a93e61594,SCR,2024-06-25_16h41.53.894,LearnStrategy,2023.2.3,Win32,59.99880002,,,,,,,,,,,3,16,1,2,,,,,,,,,,,,,,,,,,,,,,,,,,,,,,,
6553ea53ba6af67a93e61594,SCR,2024-06-25_16h41.53.894,LearnStrategy,2023.2.3,Win32,59.99880002,,,,,,,,,,,2,05,1,3,,,,,,,,,,,,,,,,,,,,,,,,,,,,,,,
6553ea53ba6af67a93e61594,SCR,2024-06-25_16h41.53.894,LearnStrategy,2023.2.3,Win32,59.99880002,,,,,,,,,,,1,04,1,4,,,,,,,,,,,,,,,,,,,,,,,,,,,,,,,
6553ea53ba6af67a93e61594,SCR,2024-06-25_16h41.53.894,LearnStrategy,2023.2.3,Win32,59.99880002,,,,,,,,,,,6,15,1,5,,,,,,,,,,,,,,,,,,,,,,,,,,,,,,,
6553ea53ba6af67a93e61594,SCR,2024-06-25_16h41.53.894,LearnStrategy,2023.2.3,Win32,59.99880002,,,,,,,,,,,5,02,1,6,,,,,,,,,,,,,,,,,,,,,,,,,,,,,,,
6553ea53ba6af67a93e61594,SCR,2024-06-25_16h41.53.894,LearnStrategy,2023.2.3,Win32,59.99880002,,,,,,,,,,,1,07,1,7,,,,,,,,,,,,,,,,,,,,,,,,,,,,,,,
6553ea53ba6af67a93e61594,SCR,2024-06-25_16h41.53.894,LearnStrategy,2023.2.3,Win32,59.99880002,,,,,,,,,,,4,10,1,8,,,,,,,,,,,,,,,,,,,,,,,,,,,,,,,
6553ea53ba6af67a93e61594,SCR,2024-06-25_16h41.53.894,LearnStrategy,2023.2.3,Win32,59.99880002,,,,,,,,,,,2,11,2,1,,,,,,,,,,,,,,,,,,,,,,,,,,,,,,,
6553ea53ba6af67a93e61594,SCR,2024-06-25_16h41.53.894,LearnStrategy,2023.2.3,Win32,59.99880002,,,,,,,,,,,6,11,2,2,,,,,,,,,,,,,,,,,,,,,,,,,,,,,,,
6553ea53ba6af67a93e61594,SCR,2024-06-25_16h41.53.894,LearnStrategy,2023.2.3,Win32,59.99880002,,,,,,,,,,,2,12,2,3,,,,,,,,,,,,,,,,,,,,,,,,,,,,,,,
6553ea53ba6af67a93e61594,SCR,2024-06-25_16h41.53.894,LearnStrategy,2023.2.3,Win32,59.99880002,,,,,,,,,,,6,08,2,4,,,,,,,,,,,,,,,,,,,,,,,,,,,,,,,
6553ea53ba6af67a93e61594,SCR,2024-06-25_16h41.53.894,LearnStrategy,2023.2.3,Win32,59.99880002,,,,,,,,,,,2,04,2,5,,,,,,,,,,,,,,,,,,,,,,,,,,,,,,,
6553ea53ba6af67a93e61594,SCR,2024-06-25_16h41.53.894,LearnStrategy,2023.2.3,Win32,59.99880002,,,,,,,,,,,1,14,2,6,,,,,,,,,,,,,,,,,,,,,,,,,,,,,,,
6553ea53ba6af67a93e61594,SCR,2024-06-25_16h41.53.894,LearnStrategy,2023.2.3,Win32,59.99880002,,,,,,,,,,,2,16,2,7,,,,,,,,,,,,,,,,,,,,,,,,,,,,,,,
6553ea53ba6af67a93e61594,SCR,2024-06-25_16h41.53.894,LearnStrategy,2023.2.3,Win32,59.99880002,,,,,,,,,,,3,08,2,8,,,,,,,,,,,,,,,,,,,,,,,,,,,,,,,
6553ea53ba6af67a93e61594,SCR,2024-06-25_16h41.53.894,LearnStrategy,2023.2.3,Win32,59.99880002,,,,,,,,,,,4,03,3,1,,,,,,,,,,,,,,,,,,,,,,,,,,,,,,,
6553ea53ba6af67a93e61594,SCR,2024-06-25_16h41.53.894,LearnStrategy,2023.2.3,Win32,59.99880002,,,,,,,,,,,7,07,3,2,,,,,,,,,,,,,,,,,,,,,,,,,,,,,,,
6553ea53ba6af67a93e61594,SCR,2024-06-25_16h41.53.894,LearnStrategy,2023.2.3,Win32,59.99880002,,,,,,,,,,,7,15,3,3,,,,,,,,,,,,,,,,,,,,,,,,,,,,,,,
6553ea53ba6af67a93e61594,SCR,2024-06-25_16h41.53.894,LearnStrategy,2023.2.3,Win32,59.99880002,,,,,,,,,,,8,08,3,4,,,,,,,,,,,,,,,,,,,,,,,,,,,,,,,
6553ea53ba6af67a93e61594,SCR,2024-06-25_16h41.53.894,LearnStrategy,2023.2.3,Win32,59.99880002,,,,,,,,,,,6,16,3,5,,,,,,,,,,,,,,,,,,,,,,,,,,,,,,,
6553ea53ba6af67a93e61594,SCR,2024-06-25_16h41.53.894,LearnStrategy,2023.2.3,Win32,59.99880002,,,,,,,,,,,5,12,3,6,,,,,,,,,,,,,,,,,,,,,,,,,,,,,,,
6553ea53ba6af67a93e61594,SCR,2024-06-25_16h41.53.894,LearnStrategy,2023.2.3,Win32,59.99880002,,,,,,,,,,,1,02,3,7,,,,,,,,,,,,,,,,,,,,,,,,,,,,,,,
6553ea53ba6af67a93e61594,SCR,2024-06-25_16h41.53.894,LearnStrategy,2023.2.3,Win32,59.99880002,,,,,,,,,,,8,06,3,8,,,,,,,,,,,,,,,,,,,,,,,,,,,,,,,
6553ea53ba6af67a93e61594,SCR,2024-06-25_16h41.53.894,LearnStrategy,2023.2.3,Win32,59.99880002,,,,,,,,,,,1,05,4,1,,,,,,,,,,,,,,,,,,,,,,,,,,,,,,,
6553ea53ba6af67a93e61594,SCR,2024-06-25_16h41.53.894,LearnStrategy,2023.2.3,Win32,59.99880002,,,,,,,,,,,3,02,4,2,,,,,,,,,,,,,,,,,,,,,,,,,,,,,,,
6553ea53ba6af67a93e61594,SCR,2024-06-25_16h41.53.894,LearnStrategy,2023.2.3,Win32,59.99880002,,,,,,,,,,,7,16,4,3,,,,,,,,,,,,,,,,,,,,,,,,,,,,,,,
6553ea53ba6af67a93e61594,SCR,2024-06-25_16h41.53.894,LearnStrategy,2023.2.3,Win32,59.99880002,,,,,,,,,,,5,14,4,4,,,,,,,,,,,,,,,,,,,,,,,,,,,,,,,
6553ea53ba6af67a93e61594,SCR,2024-06-25_16h41.53.894,LearnStrategy,2023.2.3,Win32,59.99880002,,,,,,,,,,,8,02,4,5,,,,,,,,,,,,,,,,,,,,,,,,,,,,,,,
6553ea53ba6af67a93e61594,SCR,2024-06-25_16h41.53.894,LearnStrategy,2023.2.3,Win32,59.99880002,,,,,,,,,,,7,13,4,6,,,,,,,,,,,,,,,,,,,,,,,,,,,,,,,
6553ea53ba6af67a93e61594,SCR,2024-06-25_16h41.53.894,LearnStrategy,2023.2.3,Win32,59.99880002,,,,,,,,,,,8,04,4,7,,,,,,,,,,,,,,,,,,,,,,,,,,,,,,,
6553ea53ba6af67a93e61594,SCR,2024-06-25_16h41.53.894,LearnStrategy,2023.2.3,Win32,59.99880002,,,,,,,,,,,4,14,4,8,,,,,,,,,,,,,,,,,,,,,,,,,,,,,,,
6553ea53ba6af67a93e61594,SCR,2024-06-25_16h41.53.894,LearnStrategy,2023.2.3,Win32,59.99880002,,,,,,,,,,,6,05,5,1,,,,,,,,,,,,,,,,,,,,,,,,,,,,,,,
6553ea53ba6af67a93e61594,SCR,2024-06-25_16h41.53.894,LearnStrategy,2023.2.3,Win32,59.99880002,,,,,,,,,,,3,12,5,2,,,,,,,,,,,,,,,,,,,,,,,,,,,,,,,
6553ea53ba6af67a93e61594,SCR,2024-06-25_16h41.53.894,LearnStrategy,2023.2.3,Win32,59.99880002,,,,,,,,,,,4,05,5,3,,,,,,,,,,,,,,,,,,,,,,,,,,,,,,,
6553ea53ba6af67a93e61594,SCR,2024-06-25_16h41.53.894,LearnStrategy,2023.2.3,Win32,59.99880002,,,,,,,,,,,5,11,5,4,,,,,,,,,,,,,,,,,,,,,,,,,,,,,,,
6553ea53ba6af67a93e61594,SCR,2024-06-25_16h41.53.894,LearnStrategy,2023.2.3,Win32,59.99880002,,,,,,,,,,,7,05,5,5,,,,,,,,,,,,,,,,,,,,,,,,,,,,,,,
6553ea53ba6af67a93e61594,SCR,2024-06-25_16h41.53.894,LearnStrategy,2023.2.3,Win32,59.99880002,,,,,,,,,,,8,13,5,6,,,,,,,,,,,,,,,,,,,,,,,,,,,,,,,
6553ea53ba6af67a93e61594,SCR,2024-06-25_16h41.53.894,LearnStrategy,2023.2.3,Win32,59.99880002,,,,,,,,,,,3,13,5,7,,,,,,,,,,,,,,,,,,,,,,,,,,,,,,,
6553ea53ba6af67a93e61594,SCR,2024-06-25_16h41.53.894,LearnStrategy,2023.2.3,Win32,59.99880002,,,,,,,,,,,5,09,5,8,,,,,,,,,,,,,,,,,,,,,,,,,,,,,,,
6553ea53ba6af67a93e61594,SCR,2024-06-25_16h41.53.894,LearnStrategy,2023.2.3,Win32,59.99880002,,,,,,,,,,,7,14,6,1,,,,,,,,,,,,,,,,,,,,,,,,,,,,,,,
6553ea53ba6af67a93e61594,SCR,2024-06-25_16h41.53.894,LearnStrategy,2023.2.3,Win32,59.99880002,,,,,,,,,,,5,08,6,2,,,,,,,,,,,,,,,,,,,,,,,,,,,,,,,
6553ea53ba6af67a93e61594,SCR,2024-06-25_16h41.53.894,LearnStrategy,2023.2.3,Win32,59.99880002,,,,,,,,,,,8,03,6,3,,,,,,,,,,,,,,,,,,,,,,,,,,,,,,,
6553ea53ba6af67a93e61594,SCR,2024-06-25_16h41.53.894,LearnStrategy,2023.2.3,Win32,59.99880002,,,,,,,,,,,4,13,6,4,,,,,,,,,,,,,,,,,,,,,,,,,,,,,,,
6553ea53ba6af67a93e61594,SCR,2024-06-25_16h41.53.894,LearnStrategy,2023.2.3,Win32,59.99880002,,,,,,,,,,,6,10,6,5,,,,,,,,,,,,,,,,,,,,,,,,,,,,,,,
6553ea53ba6af67a93e61594,SCR,2024-06-25_16h41.53.894,LearnStrategy,2023.2.3,Win32,59.99880002,,,,,,,,,,,4,01,6,6,,,,,,,,,,,,,,,,,,,,,,,,,,,,,,,
6553ea53ba6af67a93e61594,SCR,2024-06-25_16h41.53.894,LearnStrategy,2023.2.3,Win32,59.99880002,,,,,,,,,,,1,10,6,7,,,,,,,,,,,,,,,,,,,,,,,,,,,,,,,
6553ea53ba6af67a93e61594,SCR,2024-06-25_16h41.53.894,LearnStrategy,2023.2.3,Win32,59.99880002,,,,,,,,,,,3,10,6,8,,,,,,,,,,,,,,,,,,,,,,,,,,,,,,,