participant,condition,date,expName,psychopyVersion,OS,frameRate,block,phase,trial,learn_mouse.x,learn_mouse.y,learn_mouse.leftButton,learn_mouse.midButton,learn_mouse.rightButton,learn_mouse.time,learn_mouse.clicked_name,cat,token,row,col,t_select,cat_rec,token_rec,cat_mouse_l.x,cat_mouse_l.y,cat_mouse_l.leftButton,cat_mouse_l.midButton,cat_mouse_l.rightButton,cat_mouse_l.time,cat_mouse_l.clicked_name,resp,t_resp,corr,train_trials.thisRepN,train_trials.thisTrialN,train_trials.thisN,train_trials.thisIndex,train_trials.ran,cat_mouse_t.x,cat_mouse_t.y,cat_mouse_t.leftButton,cat_mouse_t.midButton,cat_mouse_t.rightButton,cat_mouse_t.time,cat_mouse_t.clicked_name,test_trials.thisRepN,test_trials.thisTrialN,test_trials.thisN,test_trials.thisIndex,test_trials.ran,Bonus
65602c23bb03869d53e76a34,SCR,2024-06-24_13h46.14.537,LearnStrategy,2023.2.3,Win32,59.88023952,,,,,,,,,,,,,,,,,,,,,,,,,,,,,,,,,,,,,,,,,,,,,
65602c23bb03869d53e76a34,SCR,2024-06-24_13h46.14.537,LearnStrategy,2023.2.3,Win32,59.88023952,1,1,1,0.046296353,0.110185157,1,0,0,8.3342,Pegmatite_10,6,10,4,5,8.334,2,09,0.117592621,-0.398148176,1,0,0,4.6892,Peridotite_rect,7,4.689,0,0,0,0,0,1,,,,,,,,,,,,,
65602c23bb03869d53e76a34,SCR,2024-06-24_13h46.14.537,LearnStrategy,2023.2.3,Win32,59.88023952,1,1,2,0.082407464,0.057407379,1,0,0,2.0186,Pegmatite_10,6,10,4,5,2.019,6,07,-0.102777778,-0.404629686,1,0,0,2.7721,Pegmatite_rect,6,2.772,1,1,0,1,0,1,,,,,,,,,,,,,
65602c23bb03869d53e76a34,SCR,2024-06-24_13h46.14.537,LearnStrategy,2023.2.3,Win32,59.88023952,1,1,3,-0.235185157,-0.103703732,1,0,0,1.5753,Obsidian_10,5,10,3,3,1.575,3,11,-0.402777778,-0.400925954,1,0,0,1.9612,Obsidian_rect,5,1.961,1,2,0,2,0,1,,,,,,,,,,,,,
65602c23bb03869d53e76a34,SCR,2024-06-24_13h46.14.537,LearnStrategy,2023.2.3,Win32,59.88023952,1,1,4,0.555555556,-0.237037065,1,0,0,2.257,Obsidian_11,5,11,2,8,2.257,8,15,0.133333333,-0.413888889,1,0,0,4.364,Peridotite_rect,7,4.364,0,3,0,3,0,1,,,,,,,,,,,,,
65602c23bb03869d53e76a34,SCR,2024-06-24_13h46.14.537,LearnStrategy,2023.2.3,Win32,59.88023952,1,1,5,0.539814928,-0.278703732,1,0,0,1.0074,Obsidian_11,5,11,2,8,1.007,1,16,-0.366666667,-0.393518575,1,0,0,1.1948,Obsidian_rect,5,1.195,1,4,0,4,0,1,,,,,,,,,,,,,
65602c23bb03869d53e76a34,SCR,2024-06-24_13h46.14.537,LearnStrategy,2023.2.3,Win32,59.88023952,1,1,6,-0.536111111,0.4037037,1,0,0,3.5959,Peridotite_06,7,06,6,1,3.596,7,02,-0.113888889,-0.243518575,1,0,0,2.7274,Basalt_rect,2,2.727,0,5,0,5,0,1,,,,,,,,,,,,,
65602c23bb03869d53e76a34,SCR,2024-06-24_13h46.14.537,LearnStrategy,2023.2.3,Win32,59.88023952,1,1,7,-0.520370356,0.363888889,1,0,0,1.1353,Peridotite_06,7,06,6,1,1.135,3,08,0.150925954,-0.410185242,1,0,0,4.4934,Peridotite_rect,7,4.493,1,6,0,6,0,1,,,,,,,,,,,,,
65602c23bb03869d53e76a34,SCR,2024-06-24_13h46.14.537,LearnStrategy,2023.2.3,Win32,59.88023952,1,1,8,0.057407464,0.101851824,1,0,0,1.2297,Pegmatite_10,6,10,4,5,1.23,1,04,-0.078703647,-0.408333333,1,0,0,1.6861,Pegmatite_rect,6,1.686,1,7,0,7,0,1,,,,,,,,,,,,,
65602c23bb03869d53e76a34,SCR,2024-06-24_13h46.14.537,LearnStrategy,2023.2.3,Win32,59.88023952,1,1,9,0.55,0.074074046,1,0,0,1.2809,Obsidian_02,5,02,4,8,1.281,5,05,-0.431481467,-0.393518575,1,0,0,1.2932,Obsidian_rect,5,1.293,1,8,0,8,0,1,,,,,,,,,,,,,
65602c23bb03869d53e76a34,SCR,2024-06-24_13h46.14.537,LearnStrategy,2023.2.3,Win32,59.88023952,1,1,10,-0.544444444,-0.305555556,1,0,0,2.1087,Basalt_01,2,01,2,1,2.109,8,08,0.153703732,-0.260185242,1,0,0,2.3608,Diorite_rect,3,2.361,0,9,0,9,0,1,,,,,,,,,,,,,
65602c23bb03869d53e76a34,SCR,2024-06-24_13h46.14.537,LearnStrategy,2023.2.3,Win32,59.88023952,1,1,11,-0.565740734,-0.232407464,1,0,0,1.1777,Basalt_01,2,01,2,1,1.178,6,06,-0.130555556,-0.239814843,1,0,0,2.6185,Basalt_rect,2,2.619,1,10,0,10,0,1,,,,,,,,,,,,,
65602c23bb03869d53e76a34,SCR,2024-06-24_13h46.14.537,LearnStrategy,2023.2.3,Win32,59.88023952,1,1,12,0.245370399,0.202777778,1,0,0,1.2367,Andesite_09,1,09,5,6,1.237,4,09,-0.129629601,-0.239814843,1,0,0,1.7189,Basalt_rect,2,1.719,0,11,0,11,0,1,,,,,,,,,,,,,
65602c23bb03869d53e76a34,SCR,2024-06-24_13h46.14.537,LearnStrategy,2023.2.3,Win32,59.88023952,1,1,13,0.183333333,0.233333333,1,0,0,1.0615,Andesite_09,1,09,5,6,1.061,7,06,-0.316666667,-0.251851908,1,0,0,2.1018,Andesite_rect,1,2.102,1,12,0,12,0,1,,,,,,,,,,,,,
65602c23bb03869d53e76a34,SCR,2024-06-24_13h46.14.537,LearnStrategy,2023.2.3,Win32,59.88023952,1,1,14,0.058333333,0.113888889,1,0,0,0.9958,Pegmatite_10,6,10,4,5,0.996,4,03,-0.095370314,-0.396296353,1,0,0,1.9709,Pegmatite_rect,6,1.971,1,13,0,13,0,1,,,,,,,,,,,,,
65602c23bb03869d53e76a34,SCR,2024-06-24_13h46.14.537,LearnStrategy,2023.2.3,Win32,59.88023952,1,1,15,-0.084259203,-0.075,1,0,0,1.2483,Andesite_05,1,05,3,4,1.248,5,08,-0.132407379,-0.239814843,1,0,0,2.5346,Basalt_rect,2,2.535,0,14,0,14,0,1,,,,,,,,,,,,,
65602c23bb03869d53e76a34,SCR,2024-06-24_13h46.14.537,LearnStrategy,2023.2.3,Win32,59.88023952,1,1,16,-0.574074067,-0.258333333,1,0,0,2.1256,Basalt_01,2,01,2,1,2.126,2,01,-0.066666667,-0.262963019,1,0,0,2.0041,Basalt_rect,2,2.004,1,15,0,15,0,1,,,,,,,,,,,,,
65602c23bb03869d53e76a34,SCR,2024-06-24_13h46.14.537,LearnStrategy,2023.2.3,Win32,59.88023952,1,2,1,,,,,,,,4,01,,,,,,,,,,,,,3,6.471,0,,,,,,0.170370399,-0.245370399,1,0,0,6.4706,Diorite_rect,0,0,0,0,1,
65602c23bb03869d53e76a34,SCR,2024-06-24_13h46.14.537,LearnStrategy,2023.2.3,Win32,59.88023952,1,2,2,,,,,,,,7,14,,,,,,,,,,,,,4,3.355,0,,,,,,0.409259288,-0.242592621,1,0,0,3.3548,Gabbro_rect,1,0,1,0,1,
65602c23bb03869d53e76a34,SCR,2024-06-24_13h46.14.537,LearnStrategy,2023.2.3,Win32,59.88023952,1,2,3,,,,,,,,6,05,,,,,,,,,,,,,5,1.999,0,,,,,,-0.312962935,-0.392592621,1,0,0,1.9994,Obsidian_rect,2,0,2,0,1,
65602c23bb03869d53e76a34,SCR,2024-06-24_13h46.14.537,LearnStrategy,2023.2.3,Win32,59.88023952,1,2,4,,,,,,,,4,16,,,,,,,,,,,,,2,2.405,0,,,,,,-0.09351849,-0.252777778,1,0,0,2.4053,Basalt_rect,3,0,3,0,1,
65602c23bb03869d53e76a34,SCR,2024-06-24_13h46.14.537,LearnStrategy,2023.2.3,Win32,59.88023952,1,2,5,,,,,,,,3,12,,,,,,,,,,,,,8,2.863,0,,,,,,0.359259288,-0.401851908,1,0,0,2.8625,Pumice_rect,4,0,4,0,1,
65602c23bb03869d53e76a34,SCR,2024-06-24_13h46.14.537,LearnStrategy,2023.2.3,Win32,59.88023952,1,2,6,,,,,,,,5,04,,,,,,,,,,,,,5,1.285,1,,,,,,-0.434259245,-0.392592621,1,0,0,1.2851,Obsidian_rect,5,0,5,0,1,
65602c23bb03869d53e76a34,SCR,2024-06-24_13h46.14.537,LearnStrategy,2023.2.3,Win32,59.88023952,1,2,7,,,,,,,,7,07,,,,,,,,,,,,,7,3.476,1,,,,,,0.073148176,-0.394444444,1,0,0,3.476,Peridotite_rect,6,0,6,0,1,
65602c23bb03869d53e76a34,SCR,2024-06-24_13h46.14.537,LearnStrategy,2023.2.3,Win32,59.88023952,1,2,8,,,,,,,,2,10,,,,,,,,,,,,,2,1.567,1,,,,,,-0.154629601,-0.248148176,1,0,0,1.5667,Basalt_rect,7,0,7,0,1,
65602c23bb03869d53e76a34,SCR,2024-06-24_13h46.14.537,LearnStrategy,2023.2.3,Win32,59.88023952,1,2,9,,,,,,,,3,14,,,,,,,,,,,,,7,3.136,0,,,,,,0.091666667,-0.401851908,1,0,0,3.1361,Peridotite_rect,8,0,8,0,1,
65602c23bb03869d53e76a34,SCR,2024-06-24_13h46.14.537,LearnStrategy,2023.2.3,Win32,59.88023952,1,2,10,,,,,,,,8,09,,,,,,,,,,,,,3,1.478,0,,,,,,0.222222222,-0.232407464,1,0,0,1.4783,Diorite_rect,9,0,9,0,1,
65602c23bb03869d53e76a34,SCR,2024-06-24_13h46.14.537,LearnStrategy,2023.2.3,Win32,59.88023952,1,2,11,,,,,,,,8,10,,,,,,,,,,,,,3,1.425,0,,,,,,0.183333333,-0.251851908,1,0,0,1.4255,Diorite_rect,10,0,10,0,1,
65602c23bb03869d53e76a34,SCR,2024-06-24_13h46.14.537,LearnStrategy,2023.2.3,Win32,59.88023952,1,2,12,,,,,,,,6,12,,,,,,,,,,,,,1,1.632,0,,,,,,-0.392592578,-0.232407464,1,0,0,1.6322,Andesite_rect,11,0,11,0,1,
65602c23bb03869d53e76a34,SCR,2024-06-24_13h46.14.537,LearnStrategy,2023.2.3,Win32,59.88023952,1,2,13,,,,,,,,1,10,,,,,,,,,,,,,2,1.736,0,,,,,,-0.122222222,-0.248148176,1,0,0,1.7359,Basalt_rect,12,0,12,0,1,
65602c23bb03869d53e76a34,SCR,2024-06-24_13h46.14.537,LearnStrategy,2023.2.3,Win32,59.88023952,1,2,14,,,,,,,,5,16,,,,,,,,,,,,,5,1.189,1,,,,,,-0.401851824,-0.40648151,1,0,0,1.1888,Obsidian_rect,13,0,13,0,1,
65602c23bb03869d53e76a34,SCR,2024-06-24_13h46.14.537,LearnStrategy,2023.2.3,Win32,59.88023952,1,2,15,,,,,,,,1,11,,,,,,,,,,,,,4,1.605,0,,,,,,0.348148176,-0.247222222,1,0,0,1.6051,Gabbro_rect,14,0,14,0,1,
65602c23bb03869d53e76a34,SCR,2024-06-24_13h46.14.537,LearnStrategy,2023.2.3,Win32,59.88023952,1,2,16,,,,,,,,2,06,,,,,,,,,,,,,2,1.719,1,,,,,,-0.121296268,-0.268518575,1,0,0,1.7195,Basalt_rect,15,0,15,0,1,
65602c23bb03869d53e76a34,SCR,2024-06-24_13h46.14.537,LearnStrategy,2023.2.3,Win32,59.88023952,2,1,1,0.091666667,0.069444444,1,0,0,4.2007,Pegmatite_10,6,10,4,5,4.201,4,15,-0.137962935,-0.415740797,1,0,0,1.8557,Pegmatite_rect,6,1.856,1,0,0,0,0,1,,,,,,,,,,,,,
65602c23bb03869d53e76a34,SCR,2024-06-24_13h46.14.537,LearnStrategy,2023.2.3,Win32,59.88023952,2,1,2,0.228703732,0.123148134,1,0,0,1.1801,Obsidian_06,5,06,4,6,1.18,1,04,0.175,-0.244444444,1,0,0,1.9172,Diorite_rect,3,1.917,0,1,0,1,0,1,,,,,,,,,,,,,
65602c23bb03869d53e76a34,SCR,2024-06-24_13h46.14.537,LearnStrategy,2023.2.3,Win32,59.88023952,2,1,3,0.058333333,-0.260185242,1,0,0,1.0306,Peridotite_16,7,16,2,5,1.031,8,08,0.135185242,-0.420370399,1,0,0,2.2996,Peridotite_rect,7,2.3,1,2,0,2,0,1,,,,,,,,,,,,,
65602c23bb03869d53e76a34,SCR,2024-06-24_13h46.14.537,LearnStrategy,2023.2.3,Win32,59.88023952,2,1,4,-0.074074046,-0.236111111,1,0,0,1.0458,Pegmatite_11,6,11,2,4,1.046,8,06,0.165740797,-0.408333333,1,0,0,1.4359,Peridotite_rect,7,1.436,0,3,0,3,0,1,,,,,,,,,,,,,
65602c23bb03869d53e76a34,SCR,2024-06-24_13h46.14.537,LearnStrategy,2023.2.3,Win32,59.88023952,2,1,5,-0.125,-0.257407464,1,0,0,0.9316,Pegmatite_11,6,11,2,4,0.932,2,04,-0.125,-0.387963019,1,0,0,1.6983,Pegmatite_rect,6,1.698,1,4,0,4,0,1,,,,,,,,,,,,,
65602c23bb03869d53e76a34,SCR,2024-06-24_13h46.14.537,LearnStrategy,2023.2.3,Win32,59.88023952,2,1,6,-0.523148134,-0.262037065,1,0,0,1.3143,Basalt_01,2,01,2,1,1.314,7,06,-0.091666667,-0.230555556,1,0,0,1.3462,Basalt_rect,2,1.346,1,5,0,5,0,1,,,,,,,,,,,,,
65602c23bb03869d53e76a34,SCR,2024-06-24_13h46.14.537,LearnStrategy,2023.2.3,Win32,59.88023952,2,1,7,0.387037065,-0.210185199,1,0,0,1.1928,Pegmatite_16,6,16,2,7,1.193,4,13,-0.380555556,-0.387963019,1,0,0,2.8881,Obsidian_rect,5,2.888,0,6,0,6,0,1,,,,,,,,,,,,,
65602c23bb03869d53e76a34,SCR,2024-06-24_13h46.14.537,LearnStrategy,2023.2.3,Win32,59.88023952,2,1,8,0.396296353,-0.235185242,1,0,0,1.4625,Pegmatite_16,6,16,2,7,1.462,3,08,-0.187037023,-0.390740797,1,0,0,1.1566,Pegmatite_rect,6,1.157,1,7,0,7,0,1,,,,,,,,,,,,,
65602c23bb03869d53e76a34,SCR,2024-06-24_13h46.14.537,LearnStrategy,2023.2.3,Win32,59.88023952,2,1,9,0.244444444,0.438888889,1,0,0,1.5682,Diorite_11,3,11,6,6,1.568,1,06,0.372222222,-0.241666667,1,0,0,3.354,Gabbro_rect,4,3.354,0,8,0,8,0,1,,,,,,,,,,,,,
65602c23bb03869d53e76a34,SCR,2024-06-24_13h46.14.537,LearnStrategy,2023.2.3,Win32,59.88023952,2,1,10,0.260185242,0.396296289,1,0,0,1.0937,Diorite_11,3,11,6,6,1.094,4,05,0.137963019,-0.229629686,1,0,0,1.5445,Diorite_rect,3,1.544,1,9,0,9,0,1,,,,,,,,,,,,,
65602c23bb03869d53e76a34,SCR,2024-06-24_13h46.14.537,LearnStrategy,2023.2.3,Win32,59.88023952,2,1,11,0.540740797,0.233333333,1,0,0,2.0817,Gabbro_10,4,10,5,8,2.082,6,11,0.389814843,-0.266666667,1,0,0,2.1527,Gabbro_rect,4,2.153,1,10,0,10,0,1,,,,,,,,,,,,,
65602c23bb03869d53e76a34,SCR,2024-06-24_13h46.14.537,LearnStrategy,2023.2.3,Win32,59.88023952,2,1,12,0.388888889,-0.101851866,1,0,0,2.0617,Pegmatite_07,6,07,3,7,2.062,6,10,-0.177777778,-0.393518575,1,0,0,1.6425,Pegmatite_rect,6,1.642,1,11,0,11,0,1,,,,,,,,,,,,,
65602c23bb03869d53e76a34,SCR,2024-06-24_13h46.14.537,LearnStrategy,2023.2.3,Win32,59.88023952,2,1,13,-0.554629623,0.077777778,1,0,0,1.8138,Pumice_08,8,08,4,1,1.814,8,15,-0.429629601,-0.257407464,1,0,0,1.66,Andesite_rect,1,1.66,0,12,0,12,0,1,,,,,,,,,,,,,
65602c23bb03869d53e76a34,SCR,2024-06-24_13h46.14.537,LearnStrategy,2023.2.3,Win32,59.88023952,2,1,14,-0.552777778,0.1,1,0,0,1.0605,Pumice_08,8,08,4,1,1.06,3,15,0.321296353,-0.396296353,1,0,0,1.3722,Pumice_rect,8,1.372,1,13,0,13,0,1,,,,,,,,,,,,,
65602c23bb03869d53e76a34,SCR,2024-06-24_13h46.14.537,LearnStrategy,2023.2.3,Win32,59.88023952,2,1,15,0.075925954,-0.065740755,1,0,0,1.5901,Diorite_15,3,15,3,5,1.59,3,11,0.154629686,-0.248148176,1,0,0,0.921,Diorite_rect,3,0.921,1,14,0,14,0,1,,,,,,,,,,,,,
65602c23bb03869d53e76a34,SCR,2024-06-24_13h46.14.537,LearnStrategy,2023.2.3,Win32,59.88023952,2,1,16,-0.181481467,0.371296289,1,0,0,0.9488,Basalt_05,2,05,6,3,0.949,1,09,-0.137036981,-0.233333333,1,0,0,1.5048,Basalt_rect,2,1.505,1,15,0,15,0,1,,,,,,,,,,,,,
65602c23bb03869d53e76a34,SCR,2024-06-24_13h46.14.537,LearnStrategy,2023.2.3,Win32,59.88023952,2,2,1,,,,,,,,6,09,,,,,,,,,,,,,6,4.184,1,,,,,,-0.174074046,-0.415740797,1,0,0,4.1838,Pegmatite_rect,0,0,0,0,1,
65602c23bb03869d53e76a34,SCR,2024-06-24_13h46.14.537,LearnStrategy,2023.2.3,Win32,59.88023952,2,2,2,,,,,,,,3,10,,,,,,,,,,,,,6,0.941,0,,,,,,-0.174074046,-0.415740797,1,0,0,0.9412,Pegmatite_rect,1,0,1,0,1,
65602c23bb03869d53e76a34,SCR,2024-06-24_13h46.14.537,LearnStrategy,2023.2.3,Win32,59.88023952,2,2,3,,,,,,,,2,08,,,,,,,,,,,,,5,2.283,0,,,,,,-0.434259245,-0.388888889,1,0,0,2.283,Obsidian_rect,2,0,2,0,1,
65602c23bb03869d53e76a34,SCR,2024-06-24_13h46.14.537,LearnStrategy,2023.2.3,Win32,59.88023952,2,2,4,,,,,,,,5,07,,,,,,,,,,,,,3,3.032,0,,,,,,0.195370399,-0.257407464,1,0,0,3.0319,Diorite_rect,3,0,3,0,1,
65602c23bb03869d53e76a34,SCR,2024-06-24_13h46.14.537,LearnStrategy,2023.2.3,Win32,59.88023952,2,2,5,,,,,,,,2,12,,,,,,,,,,,,,8,3.002,0,,,,,,0.466666667,-0.387963019,1,0,0,3.002,Pumice_rect,4,0,4,0,1,
65602c23bb03869d53e76a34,SCR,2024-06-24_13h46.14.537,LearnStrategy,2023.2.3,Win32,59.88023952,2,2,6,,,,,,,,4,08,,,,,,,,,,,,,8,0.999,0,,,,,,0.466666667,-0.387963019,1,0,0,0.999,Pumice_rect,5,0,5,0,1,
65602c23bb03869d53e76a34,SCR,2024-06-24_13h46.14.537,LearnStrategy,2023.2.3,Win32,59.88023952,2,2,7,,,,,,,,1,02,,,,,,,,,,,,,3,2.563,0,,,,,,0.194444444,-0.248148176,1,0,0,2.5629,Diorite_rect,6,0,6,0,1,
65602c23bb03869d53e76a34,SCR,2024-06-24_13h46.14.537,LearnStrategy,2023.2.3,Win32,59.88023952,2,2,8,,,,,,,,7,15,,,,,,,,,,,,,3,2.075,0,,,,,,0.129629686,-0.248148176,1,0,0,2.0748,Diorite_rect,7,0,7,0,1,
65602c23bb03869d53e76a34,SCR,2024-06-24_13h46.14.537,LearnStrategy,2023.2.3,Win32,59.88023952,2,2,9,,,,,,,,7,12,,,,,,,,,,,,,3,0.77,0,,,,,,0.129629686,-0.248148176,1,0,0,0.7699,Diorite_rect,8,0,8,0,1,
65602c23bb03869d53e76a34,SCR,2024-06-24_13h46.14.537,LearnStrategy,2023.2.3,Win32,59.88023952,2,2,10,,,,,,,,1,03,,,,,,,,,,,,,2,3.161,0,,,,,,-0.199074046,-0.238888889,1,0,0,3.1611,Basalt_rect,9,0,9,0,1,
65602c23bb03869d53e76a34,SCR,2024-06-24_13h46.14.537,LearnStrategy,2023.2.3,Win32,59.88023952,2,2,11,,,,,,,,5,12,,,,,,,,,,,,,5,2.156,1,,,,,,-0.411111111,-0.398148176,1,0,0,2.1565,Obsidian_rect,10,0,10,0,1,
65602c23bb03869d53e76a34,SCR,2024-06-24_13h46.14.537,LearnStrategy,2023.2.3,Win32,59.88023952,2,2,12,,,,,,,,3,02,,,,,,,,,,,,,3,4.407,1,,,,,,0.138888889,-0.259259288,1,0,0,4.4072,Diorite_rect,11,0,11,0,1,
65602c23bb03869d53e76a34,SCR,2024-06-24_13h46.14.537,LearnStrategy,2023.2.3,Win32,59.88023952,2,2,13,,,,,,,,6,15,,,,,,,,,,,,,6,2.213,1,,,,,,-0.106481425,-0.401851908,1,0,0,2.2132,Pegmatite_rect,12,0,12,0,1,
65602c23bb03869d53e76a34,SCR,2024-06-24_13h46.14.537,LearnStrategy,2023.2.3,Win32,59.88023952,2,2,14,,,,,,,,8,04,,,,,,,,,,,,,8,4.352,1,,,,,,0.385185242,-0.395370399,1,0,0,4.3518,Pumice_rect,13,0,13,0,1,
65602c23bb03869d53e76a34,SCR,2024-06-24_13h46.14.537,LearnStrategy,2023.2.3,Win32,59.88023952,2,2,15,,,,,,,,4,11,,,,,,,,,,,,,2,1.773,0,,,,,,-0.119444444,-0.236111111,1,0,0,1.7734,Basalt_rect,14,0,14,0,1,
65602c23bb03869d53e76a34,SCR,2024-06-24_13h46.14.537,LearnStrategy,2023.2.3,Win32,59.88023952,2,2,16,,,,,,,,8,03,,,,,,,,,,,,,3,1.316,0,,,,,,0.114814843,-0.253703732,1,0,0,1.316,Diorite_rect,15,0,15,0,1,
65602c23bb03869d53e76a34,SCR,2024-06-24_13h46.14.537,LearnStrategy,2023.2.3,Win32,59.88023952,3,1,1,-0.102777778,-0.085185199,1,0,0,0.8422,Andesite_05,1,05,3,4,0.842,2,09,-0.149074046,-0.230555556,1,0,0,1.0765,Basalt_rect,2,1.076,0,0,0,0,0,1,,,,,,,,,,,,,
65602c23bb03869d53e76a34,SCR,2024-06-24_13h46.14.537,LearnStrategy,2023.2.3,Win32,59.88023952,3,1,2,0.112963019,-0.123148176,1,0,0,1.3313,Diorite_15,3,15,3,5,1.331,1,04,-0.415740712,-0.229629686,1,0,0,1.5057,Andesite_rect,1,1.506,0,1,0,1,0,1,,,,,,,,,,,,,
65602c23bb03869d53e76a34,SCR,2024-06-24_13h46.14.537,LearnStrategy,2023.2.3,Win32,59.88023952,3,1,3,0.082407464,-0.109259288,1,0,0,0.7669,Diorite_15,3,15,3,5,0.767,4,03,0.1,-0.237037065,1,0,0,0.8123,Diorite_rect,3,0.812,1,2,0,2,0,1,,,,,,,,,,,,,
65602c23bb03869d53e76a34,SCR,2024-06-24_13h46.14.537,LearnStrategy,2023.2.3,Win32,59.88023952,3,1,4,-0.240740712,0.105555556,1,0,0,1.576,Obsidian_05,5,05,4,3,1.576,1,14,-0.399074046,-0.389814843,1,0,0,1.4544,Obsidian_rect,5,1.454,1,3,0,3,0,1,,,,,,,,,,,,,
65602c23bb03869d53e76a34,SCR,2024-06-24_13h46.14.537,LearnStrategy,2023.2.3,Win32,59.88023952,3,1,5,-0.250925912,-0.223148176,1,0,0,1.0146,Basalt_14,2,14,2,3,1.015,3,06,-0.087962935,-0.246296353,1,0,0,1.0178,Basalt_rect,2,1.018,1,4,0,4,0,1,,,,,,,,,,,,,
65602c23bb03869d53e76a34,SCR,2024-06-24_13h46.14.537,LearnStrategy,2023.2.3,Win32,59.88023952,3,1,6,0.418518575,-0.128703732,1,0,0,0.848,Pegmatite_07,6,07,3,7,0.848,8,06,-0.157407379,-0.386111111,1,0,0,1.5261,Pegmatite_rect,6,1.526,1,5,0,5,0,1,,,,,,,,,,,,,
65602c23bb03869d53e76a34,SCR,2024-06-24_13h46.14.537,LearnStrategy,2023.2.3,Win32,59.88023952,3,1,7,0.534259372,0.231481467,1,0,0,1.144,Gabbro_10,4,10,5,8,1.144,2,04,0.087037065,-0.249074131,1,0,0,2.8484,Diorite_rect,3,2.848,0,6,0,6,0,1,,,,,,,,,,,,,
65602c23bb03869d53e76a34,SCR,2024-06-24_13h46.14.537,LearnStrategy,2023.2.3,Win32,59.88023952,3,1,8,0.227777778,0.264814801,1,0,0,1.1964,Andesite_09,1,09,5,6,1.196,3,11,-0.167592536,-0.247222222,1,0,0,1.5245,Basalt_rect,2,1.524,0,7,0,7,0,1,,,,,,,,,,,,,
65602c23bb03869d53e76a34,SCR,2024-06-24_13h46.14.537,LearnStrategy,2023.2.3,Win32,59.88023952,3,1,9,-0.42870369,0.2824074,1,0,0,0.982,Basalt_02,2,02,5,2,0.982,4,03,-0.429629601,-0.267592621,1,0,0,1.2549,Andesite_rect,1,1.255,0,8,0,8,0,1,,,,,,,,,,,,,
65602c23bb03869d53e76a34,SCR,2024-06-24_13h46.14.537,LearnStrategy,2023.2.3,Win32,59.88023952,3,1,10,-0.364814801,0.252777778,1,0,0,0.723,Basalt_02,2,02,5,2,0.723,4,09,-0.129629601,-0.236111111,1,0,0,1.8449,Basalt_rect,2,1.845,1,9,0,9,0,1,,,,,,,,,,,,,
65602c23bb03869d53e76a34,SCR,2024-06-24_13h46.14.537,LearnStrategy,2023.2.3,Win32,59.88023952,3,1,11,0.050925954,0.249074067,1,0,0,1.3491,Andesite_14,1,14,5,5,1.349,5,05,0.120370399,-0.233333333,1,0,0,1.4009,Diorite_rect,3,1.401,0,10,0,10,0,1,,,,,,,,,,,,,
65602c23bb03869d53e76a34,SCR,2024-06-24_13h46.14.537,LearnStrategy,2023.2.3,Win32,59.88023952,3,1,12,0.080555556,0.259259245,1,0,0,0.9562,Andesite_14,1,14,5,5,0.956,8,16,-0.423148134,-0.228703732,1,0,0,2.7716,Andesite_rect,1,2.772,1,11,0,11,0,1,,,,,,,,,,,,,
65602c23bb03869d53e76a34,SCR,2024-06-24_13h46.14.537,LearnStrategy,2023.2.3,Win32,59.88023952,3,1,13,0.217592621,-0.245370399,1,0,0,1.0631,Pumice_05,8,05,2,6,1.063,7,08,-0.091666667,-0.243518575,1,0,0,0.9789,Basalt_rect,2,0.979,0,12,0,12,0,1,,,,,,,,,,,,,
65602c23bb03869d53e76a34,SCR,2024-06-24_13h46.14.537,LearnStrategy,2023.2.3,Win32,59.88023952,3,1,14,0.213888889,-0.227777778,1,0,0,1.2519,Pumice_05,8,05,2,6,1.252,1,05,-0.142592536,-0.241666667,1,0,0,0.9314,Basalt_rect,2,0.931,0,13,0,13,0,1,,,,,,,,,,,,,
65602c23bb03869d53e76a34,SCR,2024-06-24_13h46.14.537,LearnStrategy,2023.2.3,Win32,59.88023952,3,1,15,0.218518575,-0.288888889,1,0,0,0.9494,Pumice_05,8,05,2,6,0.949,7,06,0.411111111,-0.391666667,1,0,0,2.6461,Pumice_rect,8,2.646,1,14,0,14,0,1,,,,,,,,,,,,,
65602c23bb03869d53e76a34,SCR,2024-06-24_13h46.14.537,LearnStrategy,2023.2.3,Win32,59.88023952,3,1,16,0.077777778,0.102777778,1,0,0,1.2838,Pegmatite_10,6,10,4,5,1.284,6,16,-0.171296268,-0.38148151,1,0,0,1.0904,Pegmatite_rect,6,1.09,1,15,0,15,0,1,,,,,,,,,,,,,
65602c23bb03869d53e76a34,SCR,2024-06-24_13h46.14.537,LearnStrategy,2023.2.3,Win32,59.88023952,3,2,1,,,,,,,,5,09,,,,,,,,,,,,,5,4.691,1,,,,,,-0.375925912,-0.404629686,1,0,0,4.6913,Obsidian_rect,0,0,0,0,1,
65602c23bb03869d53e76a34,SCR,2024-06-24_13h46.14.537,LearnStrategy,2023.2.3,Win32,59.88023952,3,2,2,,,,,,,,6,13,,,,,,,,,,,,,3,3.456,0,,,,,,0.126851908,-0.25,1,0,0,3.4557,Diorite_rect,1,0,1,0,1,
65602c23bb03869d53e76a34,SCR,2024-06-24_13h46.14.537,LearnStrategy,2023.2.3,Win32,59.88023952,3,2,3,,,,,,,,2,11,,,,,,,,,,,,,2,3.863,1,,,,,,-0.137036981,-0.246296353,1,0,0,3.8629,Basalt_rect,2,0,2,0,1,
65602c23bb03869d53e76a34,SCR,2024-06-24_13h46.14.537,LearnStrategy,2023.2.3,Win32,59.88023952,3,2,4,,,,,,,,4,12,,,,,,,,,,,,,2,4.879,0,,,,,,-0.1,-0.239814843,1,0,0,4.8787,Basalt_rect,3,0,3,0,1,
65602c23bb03869d53e76a34,SCR,2024-06-24_13h46.14.537,LearnStrategy,2023.2.3,Win32,59.88023952,3,2,5,,,,,,,,8,13,,,,,,,,,,,,,8,2.923,1,,,,,,0.378703732,-0.416666667,1,0,0,2.9231,Pumice_rect,4,0,4,0,1,
65602c23bb03869d53e76a34,SCR,2024-06-24_13h46.14.537,LearnStrategy,2023.2.3,Win32,59.88023952,3,2,6,,,,,,,,3,13,,,,,,,,,,,,,3,1.829,1,,,,,,0.186111111,-0.229629686,1,0,0,1.829,Diorite_rect,5,0,5,0,1,
65602c23bb03869d53e76a34,SCR,2024-06-24_13h46.14.537,LearnStrategy,2023.2.3,Win32,59.88023952,3,2,7,,,,,,,,1,01,,,,,,,,,,,,,3,1.237,0,,,,,,0.185185242,-0.252777778,1,0,0,1.2369,Diorite_rect,6,0,6,0,1,
65602c23bb03869d53e76a34,SCR,2024-06-24_13h46.14.537,LearnStrategy,2023.2.3,Win32,59.88023952,3,2,8,,,,,,,,8,02,,,,,,,,,,,,,8,5.724,1,,,,,,0.419444444,-0.4,1,0,0,5.7235,Pumice_rect,7,0,7,0,1,
65602c23bb03869d53e76a34,SCR,2024-06-24_13h46.14.537,LearnStrategy,2023.2.3,Win32,59.88023952,3,2,9,,,,,,,,7,10,,,,,,,,,,,,,1,1.843,0,,,,,,-0.34351849,-0.248148176,1,0,0,1.8428,Andesite_rect,8,0,8,0,1,
65602c23bb03869d53e76a34,SCR,2024-06-24_13h46.14.537,LearnStrategy,2023.2.3,Win32,59.88023952,3,2,10,,,,,,,,4,14,,,,,,,,,,,,,3,1.187,0,,,,,,0.125925954,-0.267592621,1,0,0,1.1872,Diorite_rect,9,0,9,0,1,
65602c23bb03869d53e76a34,SCR,2024-06-24_13h46.14.537,LearnStrategy,2023.2.3,Win32,59.88023952,3,2,11,,,,,,,,7,13,,,,,,,,,,,,,4,1.741,0,,,,,,0.402777778,-0.248148176,1,0,0,1.7412,Gabbro_rect,10,0,10,0,1,
65602c23bb03869d53e76a34,SCR,2024-06-24_13h46.14.537,LearnStrategy,2023.2.3,Win32,59.88023952,3,2,12,,,,,,,,2,16,,,,,,,,,,,,,2,1.652,1,,,,,,-0.067592536,-0.230555556,1,0,0,1.6517,Basalt_rect,11,0,11,0,1,
65602c23bb03869d53e76a34,SCR,2024-06-24_13h46.14.537,LearnStrategy,2023.2.3,Win32,59.88023952,3,2,13,,,,,,,,3,07,,,,,,,,,,,,,6,2.903,0,,,,,,-0.15,-0.412963019,1,0,0,2.9026,Pegmatite_rect,12,0,12,0,1,
65602c23bb03869d53e76a34,SCR,2024-06-24_13h46.14.537,LearnStrategy,2023.2.3,Win32,59.88023952,3,2,14,,,,,,,,1,07,,,,,,,,,,,,,3,1.726,0,,,,,,0.115740797,-0.23148151,1,0,0,1.7261,Diorite_rect,13,0,13,0,1,
65602c23bb03869d53e76a34,SCR,2024-06-24_13h46.14.537,LearnStrategy,2023.2.3,Win32,59.88023952,3,2,15,,,,,,,,6,03,,,,,,,,,,,,,6,1.794,1,,,,,,-0.141666667,-0.382407464,1,0,0,1.7944,Pegmatite_rect,14,0,14,0,1,
65602c23bb03869d53e76a34,SCR,2024-06-24_13h46.14.537,LearnStrategy,2023.2.3,Win32,59.88023952,3,2,16,,,,,,,,5,14,,,,,,,,,,,,,5,1.274,1,,,,,,-0.344444444,-0.387037065,1,0,0,1.2739,Obsidian_rect,15,0,15,0,1,
65602c23bb03869d53e76a34,SCR,2024-06-24_13h46.14.537,LearnStrategy,2023.2.3,Win32,59.88023952,4,1,1,-0.216666667,0.104629601,1,0,0,1.327,Obsidian_05,5,05,4,3,1.327,7,04,-0.380555556,-0.40648151,1,0,0,1.742,Obsidian_rect,5,1.742,1,0,0,0,0,1,,,,,,,,,,,,,
65602c23bb03869d53e76a34,SCR,2024-06-24_13h46.14.537,LearnStrategy,2023.2.3,Win32,59.88023952,4,1,2,0.084259288,0.052777778,1,0,0,0.8819,Pegmatite_10,6,10,4,5,0.882,6,06,-0.146296268,-0.413888889,1,0,0,1.1277,Pegmatite_rect,6,1.128,1,1,0,1,0,1,,,,,,,,,,,,,
65602c23bb03869d53e76a34,SCR,2024-06-24_13h46.14.537,LearnStrategy,2023.2.3,Win32,59.88023952,4,1,3,0.091666667,-0.133333333,1,0,0,1.1626,Diorite_15,3,15,3,5,1.163,1,16,0.097222222,-0.249074131,1,0,0,0.8916,Diorite_rect,3,0.892,1,2,0,2,0,1,,,,,,,,,,,,,
65602c23bb03869d53e76a34,SCR,2024-06-24_13h46.14.537,LearnStrategy,2023.2.3,Win32,59.88023952,4,1,4,-0.062036981,-0.094444444,1,0,0,1.0448,Andesite_05,1,05,3,4,1.045,4,05,-0.092592536,-0.246296353,1,0,0,1.0943,Basalt_rect,2,1.094,0,3,0,3,0,1,,,,,,,,,,,,,
65602c23bb03869d53e76a34,SCR,2024-06-24_13h46.14.537,LearnStrategy,2023.2.3,Win32,59.88023952,4,1,5,-0.09351849,-0.099074088,1,0,0,0.9947,Andesite_05,1,05,3,4,0.995,3,15,-0.370370356,-0.250925954,1,0,0,2.0957,Andesite_rect,1,2.096,1,4,0,4,0,1,,,,,,,,,,,,,
65602c23bb03869d53e76a34,SCR,2024-06-24_13h46.14.537,LearnStrategy,2023.2.3,Win32,59.88023952,4,1,6,0.421296353,-0.253703732,1,0,0,0.83,Pegmatite_16,6,16,2,7,0.83,3,06,0.092592621,-0.40648151,1,0,0,1.8046,Peridotite_rect,7,1.805,0,5,0,5,0,1,,,,,,,,,,,,,
65602c23bb03869d53e76a34,SCR,2024-06-24_13h46.14.537,LearnStrategy,2023.2.3,Win32,59.88023952,4,1,7,0.510185242,-0.287963019,1,0,0,1.305,Obsidian_11,5,11,2,8,1.305,8,06,-0.352777778,-0.400925954,1,0,0,1.0632,Obsidian_rect,5,1.063,1,6,0,6,0,1,,,,,,,,,,,,,
65602c23bb03869d53e76a34,SCR,2024-06-24_13h46.14.537,LearnStrategy,2023.2.3,Win32,59.88023952,4,1,8,0.364814843,0.377777778,1,0,0,1.4012,Gabbro_03,4,03,6,7,1.401,6,11,-0.132407379,-0.232407464,1,0,0,1.2915,Basalt_rect,2,1.291,0,7,0,7,0,1,,,,,,,,,,,,,
65602c23bb03869d53e76a34,SCR,2024-06-24_13h46.14.537,LearnStrategy,2023.2.3,Win32,59.88023952,4,1,9,0.574074131,0.413888889,1,0,0,1.1045,Gabbro_13,4,13,6,8,1.105,5,11,0.13148151,-0.259259288,1,0,0,2.2581,Diorite_rect,3,2.258,0,8,0,8,0,1,,,,,,,,,,,,,
65602c23bb03869d53e76a34,SCR,2024-06-24_13h46.14.537,LearnStrategy,2023.2.3,Win32,59.88023952,4,1,10,0.412037065,0.396296289,1,0,0,1.0505,Gabbro_03,4,03,6,7,1.05,7,16,0.335185242,-0.251851908,1,0,0,2.2931,Gabbro_rect,4,2.293,1,9,0,9,0,1,,,,,,,,,,,,,
65602c23bb03869d53e76a34,SCR,2024-06-24_13h46.14.537,LearnStrategy,2023.2.3,Win32,59.88023952,4,1,11,-0.405555556,0.4,1,0,0,1.997,Diorite_06,3,06,6,2,1.997,4,10,-0.336111111,-0.25,1,0,0,2.0238,Andesite_rect,1,2.024,0,10,0,10,0,1,,,,,,,,,,,,,
65602c23bb03869d53e76a34,SCR,2024-06-24_13h46.14.537,LearnStrategy,2023.2.3,Win32,59.88023952,4,1,12,-0.421296268,0.405555556,1,0,0,1.463,Diorite_06,3,06,6,2,1.463,1,06,-0.422222222,-0.234259288,1,0,0,2.3187,Andesite_rect,1,2.319,0,11,0,11,0,1,,,,,,,,,,,,,
65602c23bb03869d53e76a34,SCR,2024-06-24_13h46.14.537,LearnStrategy,2023.2.3,Win32,59.88023952,4,1,13,-0.389814801,-0.085185199,1,0,0,1.281,Basalt_09,2,09,3,2,1.281,2,01,-0.17870369,-0.243518575,1,0,0,0.8869,Basalt_rect,2,0.887,1,12,0,12,0,1,,,,,,,,,,,,,
65602c23bb03869d53e76a34,SCR,2024-06-24_13h46.14.537,LearnStrategy,2023.2.3,Win32,59.88023952,4,1,14,0.043518575,-0.232407464,1,0,0,0.9664,Peridotite_16,7,16,2,5,0.966,4,09,0.100925954,-0.401851908,1,0,0,2.8993,Peridotite_rect,7,2.899,1,13,0,13,0,1,,,,,,,,,,,,,
65602c23bb03869d53e76a34,SCR,2024-06-24_13h46.14.537,LearnStrategy,2023.2.3,Win32,59.88023952,4,1,15,-0.221296268,-0.264814843,1,0,0,1.0325,Basalt_14,2,14,2,3,1.033,1,09,0.374074131,-0.416666667,1,0,0,2.5283,Pumice_rect,8,2.528,0,14,0,14,0,1,,,,,,,,,,,,,
65602c23bb03869d53e76a34,SCR,2024-06-24_13h46.14.537,LearnStrategy,2023.2.3,Win32,59.88023952,4,1,16,-0.25,-0.258333333,1,0,0,1.1623,Basalt_14,2,14,2,3,1.162,7,05,-0.169444444,-0.248148176,1,0,0,0.8253,Basalt_rect,2,0.825,1,15,0,15,0,1,,,,,,,,,,,,,
65602c23bb03869d53e76a34,SCR,2024-06-24_13h46.14.537,LearnStrategy,2023.2.3,Win32,59.88023952,4,2,1,,,,,,,,5,12,,,,,,,,,,,,,5,1.452,1,,,,,,-0.39351849,-0.410185242,1,0,0,1.4515,Obsidian_rect,0,0,0,0,1,
65602c23bb03869d53e76a34,SCR,2024-06-24_13h46.14.537,LearnStrategy,2023.2.3,Win32,59.88023952,4,2,2,,,,,,,,8,13,,,,,,,,,,,,,2,1.137,0,,,,,,-0.151851824,-0.258333333,1,0,0,1.1373,Basalt_rect,1,0,1,0,1,
65602c23bb03869d53e76a34,SCR,2024-06-24_13h46.14.537,LearnStrategy,2023.2.3,Win32,59.88023952,4,2,3,,,,,,,,6,03,,,,,,,,,,,,,6,1.805,1,,,,,,-0.148148092,-0.397222222,1,0,0,1.8054,Pegmatite_rect,2,0,2,0,1,
65602c23bb03869d53e76a34,SCR,2024-06-24_13h46.14.537,LearnStrategy,2023.2.3,Win32,59.88023952,4,2,4,,,,,,,,4,16,,,,,,,,,,,,,2,3.231,0,,,,,,-0.161111111,-0.239814843,1,0,0,3.231,Basalt_rect,3,0,3,0,1,
65602c23bb03869d53e76a34,SCR,2024-06-24_13h46.14.537,LearnStrategy,2023.2.3,Win32,59.88023952,4,2,5,,,,,,,,7,13,,,,,,,,,,,,,4,1.786,0,,,,,,0.338888889,-0.251851908,1,0,0,1.7856,Gabbro_rect,4,0,4,0,1,
65602c23bb03869d53e76a34,SCR,2024-06-24_13h46.14.537,LearnStrategy,2023.2.3,Win32,59.88023952,4,2,6,,,,,,,,6,05,,,,,,,,,,,,,5,3.122,0,,,,,,-0.37870369,-0.391666667,1,0,0,3.1222,Obsidian_rect,5,0,5,0,1,
65602c23bb03869d53e76a34,SCR,2024-06-24_13h46.14.537,LearnStrategy,2023.2.3,Win32,59.88023952,4,2,7,,,,,,,,1,02,,,,,,,,,,,,,1,1.619,1,,,,,,-0.374074046,-0.257407464,1,0,0,1.6185,Andesite_rect,6,0,6,0,1,
65602c23bb03869d53e76a34,SCR,2024-06-24_13h46.14.537,LearnStrategy,2023.2.3,Win32,59.88023952,4,2,8,,,,,,,,2,11,,,,,,,,,,,,,8,2.107,0,,,,,,0.375925954,-0.408333333,1,0,0,2.107,Pumice_rect,7,0,7,0,1,
65602c23bb03869d53e76a34,SCR,2024-06-24_13h46.14.537,LearnStrategy,2023.2.3,Win32,59.88023952,4,2,9,,,,,,,,5,16,,,,,,,,,,,,,5,2.223,1,,,,,,-0.409259245,-0.413888889,1,0,0,2.223,Obsidian_rect,8,0,8,0,1,
65602c23bb03869d53e76a34,SCR,2024-06-24_13h46.14.537,LearnStrategy,2023.2.3,Win32,59.88023952,4,2,10,,,,,,,,3,14,,,,,,,,,,,,,6,1.655,0,,,,,,-0.130555556,-0.412037065,1,0,0,1.6546,Pegmatite_rect,9,0,9,0,1,
65602c23bb03869d53e76a34,SCR,2024-06-24_13h46.14.537,LearnStrategy,2023.2.3,Win32,59.88023952,4,2,11,,,,,,,,3,10,,,,,,,,,,,,,7,1.378,0,,,,,,0.082407464,-0.393518575,1,0,0,1.378,Peridotite_rect,10,0,10,0,1,
65602c23bb03869d53e76a34,SCR,2024-06-24_13h46.14.537,LearnStrategy,2023.2.3,Win32,59.88023952,4,2,12,,,,,,,,1,01,,,,,,,,,,,,,3,1.626,0,,,,,,0.071296353,-0.25648151,1,0,0,1.6256,Diorite_rect,11,0,11,0,1,
65602c23bb03869d53e76a34,SCR,2024-06-24_13h46.14.537,LearnStrategy,2023.2.3,Win32,59.88023952,4,2,13,,,,,,,,8,04,,,,,,,,,,,,,8,1.488,1,,,,,,0.375925954,-0.409259288,1,0,0,1.4875,Pumice_rect,12,0,12,0,1,
65602c23bb03869d53e76a34,SCR,2024-06-24_13h46.14.537,LearnStrategy,2023.2.3,Win32,59.88023952,4,2,14,,,,,,,,4,11,,,,,,,,,,,,,1,2.551,0,,,,,,-0.324074046,-0.229629686,1,0,0,2.5514,Andesite_rect,13,0,13,0,1,
65602c23bb03869d53e76a34,SCR,2024-06-24_13h46.14.537,LearnStrategy,2023.2.3,Win32,59.88023952,4,2,15,,,,,,,,2,12,,,,,,,,,,,,,8,1.895,0,,,,,,0.337037065,-0.409259288,1,0,0,1.8948,Pumice_rect,14,0,14,0,1,
65602c23bb03869d53e76a34,SCR,2024-06-24_13h46.14.537,LearnStrategy,2023.2.3,Win32,59.88023952,4,2,16,,,,,,,,7,10,,,,,,,,,,,,,4,1.236,0,,,,,,0.35648151,-0.232407464,1,0,0,1.236,Gabbro_rect,15,0,15,0,1,
65602c23bb03869d53e76a34,SCR,2024-06-24_13h46.14.537,LearnStrategy,2023.2.3,Win32,59.88023952,5,1,1,0.071296353,-0.104629644,1,0,0,0.8876,Diorite_15,3,15,3,5,0.888,1,05,-0.134259203,-0.245370399,1,0,0,2.5622,Basalt_rect,2,2.562,0,0,0,0,0,1,,,,,,,,,,,,,
65602c23bb03869d53e76a34,SCR,2024-06-24_13h46.14.537,LearnStrategy,2023.2.3,Win32,59.88023952,5,1,2,0.061111111,-0.1,1,0,0,2.5496,Diorite_15,3,15,3,5,2.55,3,11,0.124074131,-0.245370399,1,0,0,1.2514,Diorite_rect,3,1.251,1,1,0,1,0,1,,,,,,,,,,,,,
65602c23bb03869d53e76a34,SCR,2024-06-24_13h46.14.537,LearnStrategy,2023.2.3,Win32,59.88023952,5,1,3,0.394444444,-0.10648151,1,0,0,0.997,Pegmatite_07,6,07,3,7,0.997,7,16,-0.129629601,-0.416666667,1,0,0,1.1649,Pegmatite_rect,6,1.165,1,2,0,2,0,1,,,,,,,,,,,,,
65602c23bb03869d53e76a34,SCR,2024-06-24_13h46.14.537,LearnStrategy,2023.2.3,Win32,59.88023952,5,1,4,-0.41851849,-0.243518575,1,0,0,0.8656,Gabbro_15,4,15,2,2,0.866,3,11,0.160185242,-0.260185242,1,0,0,0.9006,Diorite_rect,3,0.901,0,3,0,3,0,1,,,,,,,,,,,,,
65602c23bb03869d53e76a34,SCR,2024-06-24_13h46.14.537,LearnStrategy,2023.2.3,Win32,59.88023952,5,1,5,-0.383333333,0.205555556,1,0,0,0.8933,Basalt_02,2,02,5,2,0.893,1,14,-0.159259203,-0.265740797,1,0,0,1.8192,Basalt_rect,2,1.819,1,4,0,4,0,1,,,,,,,,,,,,,
65602c23bb03869d53e76a34,SCR,2024-06-24_13h46.14.537,LearnStrategy,2023.2.3,Win32,59.88023952,5,1,6,0.249074131,-0.143518533,1,0,0,0.7836,Pumice_16,8,16,3,6,0.784,3,15,0.378703732,-0.401851908,1,0,0,2.6737,Pumice_rect,8,2.674,1,5,0,5,0,1,,,,,,,,,,,,,
65602c23bb03869d53e76a34,SCR,2024-06-24_13h46.14.537,LearnStrategy,2023.2.3,Win32,59.88023952,5,1,7,0.552777778,0.076851824,1,0,0,1.0026,Obsidian_02,5,02,4,8,1.003,6,11,-0.333333333,-0.385185242,1,0,0,1.181,Obsidian_rect,5,1.181,1,6,0,6,0,1,,,,,,,,,,,,,
65602c23bb03869d53e76a34,SCR,2024-06-24_13h46.14.537,LearnStrategy,2023.2.3,Win32,59.88023952,5,1,8,-0.34351849,-0.378703732,1,0,0,1.0021,Diorite_16,3,16,1,2,1.002,8,14,-0.347222222,-0.379629686,1,0,0,0.6248,Obsidian_rect,5,0.625,0,7,0,7,0,1,,,,,,,,,,,,,
65602c23bb03869d53e76a34,SCR,2024-06-24_13h46.14.537,LearnStrategy,2023.2.3,Win32,59.88023952,5,1,9,-0.350925912,-0.382407464,1,0,0,1.4212,Diorite_16,3,16,1,2,1.421,2,14,0.073148176,-0.253703732,1,0,0,1.1701,Diorite_rect,3,1.17,1,8,0,8,0,1,,,,,,,,,,,,,
65602c23bb03869d53e76a34,SCR,2024-06-24_13h46.14.537,LearnStrategy,2023.2.3,Win32,59.88023952,5,1,10,0.061111111,-0.38148151,1,0,0,1.1636,Pegmatite_08,6,08,1,5,1.164,7,06,-0.144444444,-0.399074131,1,0,0,0.8381,Pegmatite_rect,6,0.838,1,9,0,9,0,1,,,,,,,,,,,,,
65602c23bb03869d53e76a34,SCR,2024-06-24_13h46.14.537,LearnStrategy,2023.2.3,Win32,59.88023952,5,1,11,0.4,-0.293518575,1,0,0,1.0649,Pegmatite_16,6,16,2,7,1.065,4,09,-0.135185157,-0.398148176,1,0,0,1.0675,Pegmatite_rect,6,1.067,1,10,0,10,0,1,,,,,,,,,,,,,
65602c23bb03869d53e76a34,SCR,2024-06-24_13h46.14.537,LearnStrategy,2023.2.3,Win32,59.88023952,5,1,12,-0.351851824,0.219444444,1,0,0,1.08,Basalt_02,2,02,5,2,1.08,5,06,-0.186111111,-0.252777778,1,0,0,0.9954,Basalt_rect,2,0.995,1,11,0,11,0,1,,,,,,,,,,,,,
65602c23bb03869d53e76a34,SCR,2024-06-24_13h46.14.537,LearnStrategy,2023.2.3,Win32,59.88023952,5,1,13,0.243518575,0.211111111,1,0,0,1.2411,Andesite_09,1,09,5,6,1.241,4,10,-0.127777778,-0.251851908,1,0,0,1.0067,Basalt_rect,2,1.007,0,12,0,12,0,1,,,,,,,,,,,,,
65602c23bb03869d53e76a34,SCR,2024-06-24_13h46.14.537,LearnStrategy,2023.2.3,Win32,59.88023952,5,1,14,0.20648151,0.209259245,1,0,0,1.1383,Andesite_09,1,09,5,6,1.138,4,09,-0.355555556,-0.267592621,1,0,0,1.837,Andesite_rect,1,1.837,1,13,0,13,0,1,,,,,,,,,,,,,
65602c23bb03869d53e76a34,SCR,2024-06-24_13h46.14.537,LearnStrategy,2023.2.3,Win32,59.88023952,5,1,15,0.552777778,0.383333333,1,0,0,1.5444,Gabbro_13,4,13,6,8,1.544,2,02,0.102777778,-0.264814843,1,0,0,1.4066,Diorite_rect,3,1.407,0,14,0,14,0,1,,,,,,,,,,,,,
65602c23bb03869d53e76a34,SCR,2024-06-24_13h46.14.537,LearnStrategy,2023.2.3,Win32,59.88023952,5,1,16,0.404629686,0.397222222,1,0,0,1.1879,Gabbro_03,4,03,6,7,1.188,7,16,0.308333333,-0.262037065,1,0,0,1.0366,Gabbro_rect,4,1.037,1,15,0,15,0,1,,,,,,,,,,,,,
65602c23bb03869d53e76a34,SCR,2024-06-24_13h46.14.537,LearnStrategy,2023.2.3,Win32,59.88023952,5,2,1,,,,,,,,6,09,,,,,,,,,,,,,6,1.547,1,,,,,,-0.151851824,-0.392592621,1,0,0,1.5472,Pegmatite_rect,0,0,0,0,1,
65602c23bb03869d53e76a34,SCR,2024-06-24_13h46.14.537,LearnStrategy,2023.2.3,Win32,59.88023952,5,2,2,,,,,,,,8,03,,,,,,,,,,,,,8,2.2,1,,,,,,0.379629686,-0.394444444,1,0,0,2.2,Pumice_rect,1,0,1,0,1,
65602c23bb03869d53e76a34,SCR,2024-06-24_13h46.14.537,LearnStrategy,2023.2.3,Win32,59.88023952,5,2,3,,,,,,,,5,04,,,,,,,,,,,,,5,1.326,1,,,,,,-0.421296268,-0.396296353,1,0,0,1.3257,Obsidian_rect,2,0,2,0,1,
65602c23bb03869d53e76a34,SCR,2024-06-24_13h46.14.537,LearnStrategy,2023.2.3,Win32,59.88023952,5,2,4,,,,,,,,7,07,,,,,,,,,,,,,4,5.922,0,,,,,,0.390740797,-0.255555556,1,0,0,5.9218,Gabbro_rect,3,0,3,0,1,
65602c23bb03869d53e76a34,SCR,2024-06-24_13h46.14.537,LearnStrategy,2023.2.3,Win32,59.88023952,5,2,5,,,,,,,,4,12,,,,,,,,,,,,,2,2.127,0,,,,,,-0.120370314,-0.254629686,1,0,0,2.1269,Basalt_rect,4,0,4,0,1,
65602c23bb03869d53e76a34,SCR,2024-06-24_13h46.14.537,LearnStrategy,2023.2.3,Win32,59.88023952,5,2,6,,,,,,,,1,10,,,,,,,,,,,,,1,1.487,1,,,,,,-0.36851849,-0.247222222,1,0,0,1.4867,Andesite_rect,5,0,5,0,1,
65602c23bb03869d53e76a34,SCR,2024-06-24_13h46.14.537,LearnStrategy,2023.2.3,Win32,59.88023952,5,2,7,,,,,,,,8,09,,,,,,,,,,,,,8,1.645,1,,,,,,0.465740797,-0.399074131,1,0,0,1.6452,Pumice_rect,6,0,6,0,1,
65602c23bb03869d53e76a34,SCR,2024-06-24_13h46.14.537,LearnStrategy,2023.2.3,Win32,59.88023952,5,2,8,,,,,,,,6,12,,,,,,,,,,,,,3,3.691,0,,,,,,0.125925954,-0.261111111,1,0,0,3.6909,Diorite_rect,7,0,7,0,1,
65602c23bb03869d53e76a34,SCR,2024-06-24_13h46.14.537,LearnStrategy,2023.2.3,Win32,59.88023952,5,2,9,,,,,,,,2,08,,,,,,,,,,,,,2,3.54,1,,,,,,-0.163888889,-0.237963019,1,0,0,3.5402,Basalt_rect,8,0,8,0,1,
65602c23bb03869d53e76a34,SCR,2024-06-24_13h46.14.537,LearnStrategy,2023.2.3,Win32,59.88023952,5,2,10,,,,,,,,5,07,,,,,,,,,,,,,5,2.217,1,,,,,,-0.357407379,-0.394444444,1,0,0,2.2173,Obsidian_rect,9,0,9,0,1,
65602c23bb03869d53e76a34,SCR,2024-06-24_13h46.14.537,LearnStrategy,2023.2.3,Win32,59.88023952,5,2,11,,,,,,,,7,14,,,,,,,,,,,,,3,1.55,0,,,,,,0.127777778,-0.241666667,1,0,0,1.5496,Diorite_rect,10,0,10,0,1,
65602c23bb03869d53e76a34,SCR,2024-06-24_13h46.14.537,LearnStrategy,2023.2.3,Win32,59.88023952,5,2,12,,,,,,,,4,14,,,,,,,,,,,,,4,1.823,1,,,,,,0.338888889,-0.253703732,1,0,0,1.8229,Gabbro_rect,11,0,11,0,1,
65602c23bb03869d53e76a34,SCR,2024-06-24_13h46.14.537,LearnStrategy,2023.2.3,Win32,59.88023952,5,2,13,,,,,,,,1,11,,,,,,,,,,,,,4,1.445,0,,,,,,0.394444444,-0.233333333,1,0,0,1.4447,Gabbro_rect,12,0,12,0,1,
65602c23bb03869d53e76a34,SCR,2024-06-24_13h46.14.537,LearnStrategy,2023.2.3,Win32,59.88023952,5,2,14,,,,,,,,3,13,,,,,,,,,,,,,7,2.583,0,,,,,,0.126851908,-0.388888889,1,0,0,2.583,Peridotite_rect,13,0,13,0,1,
65602c23bb03869d53e76a34,SCR,2024-06-24_13h46.14.537,LearnStrategy,2023.2.3,Win32,59.88023952,5,2,15,,,,,,,,2,06,,,,,,,,,,,,,8,1.721,0,,,,,,0.342592621,-0.388888889,1,0,0,1.7208,Pumice_rect,14,0,14,0,1,
65602c23bb03869d53e76a34,SCR,2024-06-24_13h46.14.537,LearnStrategy,2023.2.3,Win32,59.88023952,5,2,16,,,,,,,,3,07,,,,,,,,,,,,,3,1.437,1,,,,,,0.088888889,-0.244444444,1,0,0,1.4373,Diorite_rect,15,0,15,0,1,
65602c23bb03869d53e76a34,SCR,2024-06-24_13h46.14.537,LearnStrategy,2023.2.3,Win32,59.88023952,6,1,1,0.065740797,-0.108333333,1,0,0,1.832,Diorite_15,3,15,3,5,1.832,7,05,0.103703732,-0.253703732,1,0,0,1.3089,Diorite_rect,3,1.309,1,0,0,0,0,1,,,,,,,,,,,,,
65602c23bb03869d53e76a34,SCR,2024-06-24_13h46.14.537,LearnStrategy,2023.2.3,Win32,59.88023952,6,1,2,0.521296353,-0.128703732,1,0,0,0.9489,Pumice_14,8,14,3,8,0.949,1,16,0.388888889,-0.403703732,1,0,0,1.0895,Pumice_rect,8,1.089,1,1,0,1,0,1,,,,,,,,,,,,,
65602c23bb03869d53e76a34,SCR,2024-06-24_13h46.14.537,LearnStrategy,2023.2.3,Win32,59.88023952,6,1,3,0.53148151,0.381481478,1,0,0,0.9838,Gabbro_13,4,13,6,8,0.984,4,13,0.375,-0.23148151,1,0,0,1.2519,Gabbro_rect,4,1.252,1,2,0,2,0,1,,,,,,,,,,,,,
65602c23bb03869d53e76a34,SCR,2024-06-24_13h46.14.537,LearnStrategy,2023.2.3,Win32,59.88023952,6,1,4,-0.369444444,0.379629623,1,0,0,1.2149,Diorite_06,3,06,6,2,1.215,5,06,-0.376851824,-0.267592621,1,0,0,2.399,Andesite_rect,1,2.399,0,3,0,3,0,1,,,,,,,,,,,,,
65602c23bb03869d53e76a34,SCR,2024-06-24_13h46.14.537,LearnStrategy,2023.2.3,Win32,59.88023952,6,1,5,-0.399074046,0.375,1,0,0,1.0971,Diorite_06,3,06,6,2,1.097,2,14,0.161111111,-0.266666667,1,0,0,1.1466,Diorite_rect,3,1.147,1,4,0,4,0,1,,,,,,,,,,,,,
65602c23bb03869d53e76a34,SCR,2024-06-24_13h46.14.537,LearnStrategy,2023.2.3,Win32,59.88023952,6,1,6,-0.114814758,-0.075925954,1,0,0,0.9326,Andesite_05,1,05,3,4,0.933,6,16,0.105555556,-0.242592621,1,0,0,0.9473,Diorite_rect,3,0.947,0,5,0,5,0,1,,,,,,,,,,,,,
65602c23bb03869d53e76a34,SCR,2024-06-24_13h46.14.537,LearnStrategy,2023.2.3,Win32,59.88023952,6,1,7,-0.112962935,-0.108333333,1,0,0,0.9497,Andesite_05,1,05,3,4,0.95,2,05,-0.371296268,-0.263888889,1,0,0,1.7911,Andesite_rect,1,1.791,1,6,0,6,0,1,,,,,,,,,,,,,
65602c23bb03869d53e76a34,SCR,2024-06-24_13h46.14.537,LearnStrategy,2023.2.3,Win32,59.88023952,6,1,8,-0.085185157,-0.275925954,1,0,0,1.1049,Pegmatite_11,6,11,2,4,1.105,4,09,-0.079629601,-0.404629686,1,0,0,0.7919,Pegmatite_rect,6,0.792,1,7,0,7,0,1,,,,,,,,,,,,,
65602c23bb03869d53e76a34,SCR,2024-06-24_13h46.14.537,LearnStrategy,2023.2.3,Win32,59.88023952,6,1,9,-0.586111111,-0.099074088,1,0,0,0.9537,Peridotite_08,7,08,3,1,0.954,6,07,0.20648151,-0.253703732,1,0,0,1.583,Diorite_rect,3,1.583,0,8,0,8,0,1,,,,,,,,,,,,,
65602c23bb03869d53e76a34,SCR,2024-06-24_13h46.14.537,LearnStrategy,2023.2.3,Win32,59.88023952,6,1,10,-0.594444444,0.120370356,1,0,0,1.0258,Pumice_08,8,08,4,1,1.026,3,16,0.412963019,-0.411111111,1,0,0,1.2663,Pumice_rect,8,1.266,1,9,0,9,0,1,,,,,,,,,,,,,
65602c23bb03869d53e76a34,SCR,2024-06-24_13h46.14.537,LearnStrategy,2023.2.3,Win32,59.88023952,6,1,11,-0.246296268,-0.262963019,1,0,0,1.0573,Basalt_14,2,14,2,3,1.057,7,02,0.400925954,-0.382407464,1,0,0,0.9303,Pumice_rect,8,0.93,0,10,0,10,0,1,,,,,,,,,,,,,
65602c23bb03869d53e76a34,SCR,2024-06-24_13h46.14.537,LearnStrategy,2023.2.3,Win32,59.88023952,6,1,12,-0.423148134,-0.25,1,0,0,0.8557,Gabbro_15,4,15,2,2,0.856,4,15,0.102777778,-0.253703732,1,0,0,1.3243,Diorite_rect,3,1.324,0,11,0,11,0,1,,,,,,,,,,,,,
65602c23bb03869d53e76a34,SCR,2024-06-24_13h46.14.537,LearnStrategy,2023.2.3,Win32,59.88023952,6,1,13,-0.387037023,-0.285185242,1,0,0,0.8518,Gabbro_15,4,15,2,2,0.852,1,06,0.422222222,-0.246296353,1,0,0,1.0632,Gabbro_rect,4,1.063,1,12,0,12,0,1,,,,,,,,,,,,,
65602c23bb03869d53e76a34,SCR,2024-06-24_13h46.14.537,LearnStrategy,2023.2.3,Win32,59.88023952,6,1,14,0.389814843,0.2,1,0,0,1.2052,Pumice_06,8,06,5,7,1.205,3,06,0.394444444,-0.399074131,1,0,0,1.5476,Pumice_rect,8,1.548,1,13,0,13,0,1,,,,,,,,,,,,,
65602c23bb03869d53e76a34,SCR,2024-06-24_13h46.14.537,LearnStrategy,2023.2.3,Win32,59.88023952,6,1,15,0.535185242,0.404629623,1,0,0,1.751,Gabbro_13,4,13,6,8,1.751,7,16,0.355555556,-0.253703732,1,0,0,1.6741,Gabbro_rect,4,1.674,1,14,0,14,0,1,,,,,,,,,,,,,
65602c23bb03869d53e76a34,SCR,2024-06-24_13h46.14.537,LearnStrategy,2023.2.3,Win32,59.88023952,6,1,16,0.257407464,0.418518517,1,0,0,1.9042,Diorite_11,3,11,6,6,1.904,8,08,0.125925954,-0.244444444,1,0,0,1.2177,Diorite_rect,3,1.218,1,15,0,15,0,1,,,,,,,,,,,,,
65602c23bb03869d53e76a34,SCR,2024-06-24_13h46.14.537,LearnStrategy,2023.2.3,Win32,59.88023952,6,2,1,,,,,,,,7,15,,,,,,,,,,,,,6,4.557,0,,,,,,-0.119444444,-0.395370399,1,0,0,4.5574,Pegmatite_rect,0,0,0,0,1,
65602c23bb03869d53e76a34,SCR,2024-06-24_13h46.14.537,LearnStrategy,2023.2.3,Win32,59.88023952,6,2,2,,,,,,,,8,02,,,,,,,,,,,,,8,1.707,1,,,,,,0.380555556,-0.388888889,1,0,0,1.7069,Pumice_rect,1,0,1,0,1,
65602c23bb03869d53e76a34,SCR,2024-06-24_13h46.14.537,LearnStrategy,2023.2.3,Win32,59.88023952,6,2,3,,,,,,,,1,07,,,,,,,,,,,,,7,3.972,0,,,,,,0.112963019,-0.410185242,1,0,0,3.9722,Peridotite_rect,2,0,2,0,1,
65602c23bb03869d53e76a34,SCR,2024-06-24_13h46.14.537,LearnStrategy,2023.2.3,Win32,59.88023952,6,2,4,,,,,,,,2,10,,,,,,,,,,,,,2,2.635,1,,,,,,-0.173148092,-0.260185242,1,0,0,2.635,Basalt_rect,3,0,3,0,1,
65602c23bb03869d53e76a34,SCR,2024-06-24_13h46.14.537,LearnStrategy,2023.2.3,Win32,59.88023952,6,2,5,,,,,,,,1,03,,,,,,,,,,,,,1,2.895,1,,,,,,-0.364814801,-0.237037065,1,0,0,2.8953,Andesite_rect,4,0,4,0,1,
65602c23bb03869d53e76a34,SCR,2024-06-24_13h46.14.537,LearnStrategy,2023.2.3,Win32,59.88023952,6,2,6,,,,,,,,6,15,,,,,,,,,,,,,6,1.447,1,,,,,,-0.179629601,-0.4,1,0,0,1.4469,Pegmatite_rect,5,0,5,0,1,
65602c23bb03869d53e76a34,SCR,2024-06-24_13h46.14.537,LearnStrategy,2023.2.3,Win32,59.88023952,6,2,7,,,,,,,,4,01,,,,,,,,,,,,,4,2.318,1,,,,,,0.333333333,-0.267592621,1,0,0,2.3183,Gabbro_rect,6,0,6,0,1,
65602c23bb03869d53e76a34,SCR,2024-06-24_13h46.14.537,LearnStrategy,2023.2.3,Win32,59.88023952,6,2,8,,,,,,,,3,12,,,,,,,,,,,,,4,0.985,0,,,,,,0.333333333,-0.267592621,1,0,0,0.9848,Gabbro_rect,7,0,7,0,1,
65602c23bb03869d53e76a34,SCR,2024-06-24_13h46.14.537,LearnStrategy,2023.2.3,Win32,59.88023952,6,2,9,,,,,,,,4,08,,,,,,,,,,,,,3,1.303,0,,,,,,0.172222222,-0.253703732,1,0,0,1.3028,Diorite_rect,8,0,8,0,1,
65602c23bb03869d53e76a34,SCR,2024-06-24_13h46.14.537,LearnStrategy,2023.2.3,Win32,59.88023952,6,2,10,,,,,,,,2,16,,,,,,,,,,,,,2,2.062,1,,,,,,-0.162962935,-0.242592621,1,0,0,2.0622,Basalt_rect,9,0,9,0,1,
65602c23bb03869d53e76a34,SCR,2024-06-24_13h46.14.537,LearnStrategy,2023.2.3,Win32,59.88023952,6,2,11,,,,,,,,7,12,,,,,,,,,,,,,7,1.481,1,,,,,,0.068518575,-0.401851908,1,0,0,1.4806,Peridotite_rect,10,0,10,0,1,
65602c23bb03869d53e76a34,SCR,2024-06-24_13h46.14.537,LearnStrategy,2023.2.3,Win32,59.88023952,6,2,12,,,,,,,,5,14,,,,,,,,,,,,,5,1.351,1,,,,,,-0.383333333,-0.387963019,1,0,0,1.3509,Obsidian_rect,11,0,11,0,1,
65602c23bb03869d53e76a34,SCR,2024-06-24_13h46.14.537,LearnStrategy,2023.2.3,Win32,59.88023952,6,2,13,,,,,,,,6,13,,,,,,,,,,,,,7,3.173,0,,,,,,0.091666667,-0.4,1,0,0,3.1733,Peridotite_rect,12,0,12,0,1,
65602c23bb03869d53e76a34,SCR,2024-06-24_13h46.14.537,LearnStrategy,2023.2.3,Win32,59.88023952,6,2,14,,,,,,,,8,10,,,,,,,,,,,,,8,1.586,1,,,,,,0.340740797,-0.388888889,1,0,0,1.5862,Pumice_rect,13,0,13,0,1,
65602c23bb03869d53e76a34,SCR,2024-06-24_13h46.14.537,LearnStrategy,2023.2.3,Win32,59.88023952,6,2,15,,,,,,,,5,09,,,,,,,,,,,,,5,1.508,1,,,,,,-0.370370356,-0.393518575,1,0,0,1.5076,Obsidian_rect,14,0,14,0,1,
65602c23bb03869d53e76a34,SCR,2024-06-24_13h46.14.537,LearnStrategy,2023.2.3,Win32,59.88023952,6,2,16,,,,,,,,3,02,,,,,,,,,,,,,7,1.306,0,,,,,,0.054629686,-0.407407464,1,0,0,1.3058,Peridotite_rect,15,0,15,0,1,
65602c23bb03869d53e76a34,SCR,2024-06-24_13h46.14.537,LearnStrategy,2023.2.3,Win32,59.88023952,7,1,1,-0.075,-0.092592621,1,0,0,1.0141,Andesite_05,1,05,3,4,1.014,1,06,0.123148176,-0.263888889,1,0,0,0.792,Diorite_rect,3,0.792,0,0,0,0,0,1,,,,,,,,,,,,,
65602c23bb03869d53e76a34,SCR,2024-06-24_13h46.14.537,LearnStrategy,2023.2.3,Win32,59.88023952,7,1,2,-0.099074046,-0.100925954,1,0,0,0.7807,Andesite_05,1,05,3,4,0.781,3,08,-0.329629601,-0.241666667,1,0,0,1.1787,Andesite_rect,1,1.179,1,1,0,1,0,1,,,,,,,,,,,,,
65602c23bb03869d53e76a34,SCR,2024-06-24_13h46.14.537,LearnStrategy,2023.2.3,Win32,59.88023952,7,1,3,0.090740797,-0.075925954,1,0,0,0.9179,Diorite_15,3,15,3,5,0.918,6,06,0.161111111,-0.253703732,1,0,0,0.8488,Diorite_rect,3,0.849,1,2,0,2,0,1,,,,,,,,,,,,,
65602c23bb03869d53e76a34,SCR,2024-06-24_13h46.14.537,LearnStrategy,2023.2.3,Win32,59.88023952,7,1,4,-0.130555556,-0.13148151,1,0,0,0.7982,Andesite_05,1,05,3,4,0.798,4,15,0.188888889,-0.244444444,1,0,0,2.0831,Diorite_rect,3,2.083,0,3,0,3,0,1,,,,,,,,,,,,,
65602c23bb03869d53e76a34,SCR,2024-06-24_13h46.14.537,LearnStrategy,2023.2.3,Win32,59.88023952,7,1,5,-0.046296268,-0.062962977,1,0,0,0.926,Andesite_05,1,05,3,4,0.926,2,14,-0.294444444,-0.234259288,1,0,0,1.5513,Andesite_rect,1,1.551,1,4,0,4,0,1,,,,,,,,,,,,,
65602c23bb03869d53e76a34,SCR,2024-06-24_13h46.14.537,LearnStrategy,2023.2.3,Win32,59.88023952,7,1,6,0.053703732,-0.080555556,1,0,0,0.7885,Diorite_15,3,15,3,5,0.788,7,05,0.176851908,-0.263888889,1,0,0,1.3371,Diorite_rect,3,1.337,1,5,0,5,0,1,,,,,,,,,,,,,
65602c23bb03869d53e76a34,SCR,2024-06-24_13h46.14.537,LearnStrategy,2023.2.3,Win32,59.88023952,7,1,7,0.566666667,0.409259256,1,0,0,1.6961,Gabbro_13,4,13,6,8,1.696,2,05,0.404629686,-0.257407464,1,0,0,1.5043,Gabbro_rect,4,1.504,1,6,0,6,0,1,,,,,,,,,,,,,
65602c23bb03869d53e76a34,SCR,2024-06-24_13h46.14.537,LearnStrategy,2023.2.3,Win32,59.88023952,7,1,8,-0.220370356,0.252777778,1,0,0,0.9671,Obsidian_08,5,08,5,3,0.967,1,06,-0.384259245,-0.405555556,1,0,0,2.0978,Obsidian_rect,5,2.098,1,7,0,7,0,1,,,,,,,,,,,,,
65602c23bb03869d53e76a34,SCR,2024-06-24_13h46.14.537,LearnStrategy,2023.2.3,Win32,59.88023952,7,1,9,0.105555556,-0.295370399,1,0,0,0.778,Peridotite_16,7,16,2,5,0.778,8,16,0.137963019,-0.388888889,1,0,0,1.4004,Peridotite_rect,7,1.4,1,8,0,8,0,1,,,,,,,,,,,,,
65602c23bb03869d53e76a34,SCR,2024-06-24_13h46.14.537,LearnStrategy,2023.2.3,Win32,59.88023952,7,1,10,-0.392592578,-0.409259288,1,0,0,1.5797,Diorite_16,3,16,1,2,1.58,4,09,0.130555556,-0.245370399,1,0,0,1.6933,Diorite_rect,3,1.693,1,9,0,9,0,1,,,,,,,,,,,,,
65602c23bb03869d53e76a34,SCR,2024-06-24_13h46.14.537,LearnStrategy,2023.2.3,Win32,59.88023952,7,1,11,0.112037065,0.090740712,1,0,0,1.0944,Pegmatite_10,6,10,4,5,1.094,3,06,-0.102777778,-0.393518575,1,0,0,1.3623,Pegmatite_rect,6,1.362,1,10,0,10,0,1,,,,,,,,,,,,,
65602c23bb03869d53e76a34,SCR,2024-06-24_13h46.14.537,LearnStrategy,2023.2.3,Win32,59.88023952,7,1,12,0.25648151,0.1,1,0,0,1.3643,Obsidian_06,5,06,4,6,1.364,4,13,-0.402777778,-0.4,1,0,0,2.1057,Obsidian_rect,5,2.106,1,11,0,11,0,1,,,,,,,,,,,,,
65602c23bb03869d53e76a34,SCR,2024-06-24_13h46.14.537,LearnStrategy,2023.2.3,Win32,59.88023952,7,1,13,-0.391666667,0.414814811,1,0,0,1.1051,Diorite_06,3,06,6,2,1.105,7,06,-0.351851824,-0.233333333,1,0,0,1.4716,Andesite_rect,1,1.472,0,12,0,12,0,1,,,,,,,,,,,,,
65602c23bb03869d53e76a34,SCR,2024-06-24_13h46.14.537,LearnStrategy,2023.2.3,Win32,59.88023952,7,1,14,-0.431481467,0.405555556,1,0,0,1.2558,Diorite_06,3,06,6,2,1.256,6,16,0.148148176,-0.254629686,1,0,0,1.196,Diorite_rect,3,1.196,1,13,0,13,0,1,,,,,,,,,,,,,
65602c23bb03869d53e76a34,SCR,2024-06-24_13h46.14.537,LearnStrategy,2023.2.3,Win32,59.88023952,7,1,15,0.065740797,-0.077777778,1,0,0,0.6608,Diorite_15,3,15,3,5,0.661,7,04,0.071296353,-0.237037065,1,0,0,0.838,Diorite_rect,3,0.838,1,14,0,14,0,1,,,,,,,,,,,,,
65602c23bb03869d53e76a34,SCR,2024-06-24_13h46.14.537,LearnStrategy,2023.2.3,Win32,59.88023952,7,1,16,0.046296353,0.06851849,1,0,0,1.2009,Pegmatite_10,6,10,4,5,1.201,3,08,-0.146296268,-0.387963019,1,0,0,1.0999,Pegmatite_rect,6,1.1,1,15,0,15,0,1,,,,,,,,,,,,,
65602c23bb03869d53e76a34,SCR,2024-06-24_13h46.14.537,LearnStrategy,2023.2.3,Win32,59.88023952,7,2,1,,,,,,,,7,15,,,,,,,,,,,,,6,5.875,0,,,,,,-0.137036981,-0.418518575,1,0,0,5.8751,Pegmatite_rect,0,0,0,0,1,
65602c23bb03869d53e76a34,SCR,2024-06-24_13h46.14.537,LearnStrategy,2023.2.3,Win32,59.88023952,7,2,2,,,,,,,,8,02,,,,,,,,,,,,,8,1.764,1,,,,,,0.353703732,-0.40648151,1,0,0,1.7644,Pumice_rect,1,0,1,0,1,
65602c23bb03869d53e76a34,SCR,2024-06-24_13h46.14.537,LearnStrategy,2023.2.3,Win32,59.88023952,7,2,3,,,,,,,,1,10,,,,,,,,,,,,,3,2.681,0,,,,,,0.175925954,-0.25648151,1,0,0,2.6808,Diorite_rect,2,0,2,0,1,
65602c23bb03869d53e76a34,SCR,2024-06-24_13h46.14.537,LearnStrategy,2023.2.3,Win32,59.88023952,7,2,4,,,,,,,,1,02,,,,,,,,,,,,,3,3.218,0,,,,,,0.173148176,-0.249074131,1,0,0,3.2179,Diorite_rect,3,0,3,0,1,
65602c23bb03869d53e76a34,SCR,2024-06-24_13h46.14.537,LearnStrategy,2023.2.3,Win32,59.88023952,7,2,5,,,,,,,,5,12,,,,,,,,,,,,,5,1.582,1,,,,,,-0.363888889,-0.402777778,1,0,0,1.5819,Obsidian_rect,4,0,4,0,1,
65602c23bb03869d53e76a34,SCR,2024-06-24_13h46.14.537,LearnStrategy,2023.2.3,Win32,59.88023952,7,2,6,,,,,,,,5,14,,,,,,,,,,,,,5,0.719,1,,,,,,-0.363888889,-0.402777778,1,0,0,0.7192,Obsidian_rect,5,0,5,0,1,
65602c23bb03869d53e76a34,SCR,2024-06-24_13h46.14.537,LearnStrategy,2023.2.3,Win32,59.88023952,7,2,7,,,,,,,,4,16,,,,,,,,,,,,,2,2.288,0,,,,,,-0.162962935,-0.247222222,1,0,0,2.2884,Basalt_rect,6,0,6,0,1,
65602c23bb03869d53e76a34,SCR,2024-06-24_13h46.14.537,LearnStrategy,2023.2.3,Win32,59.88023952,7,2,8,,,,,,,,3,13,,,,,,,,,,,,,3,1.553,1,,,,,,0.094444444,-0.248148176,1,0,0,1.5529,Diorite_rect,7,0,7,0,1,
65602c23bb03869d53e76a34,SCR,2024-06-24_13h46.14.537,LearnStrategy,2023.2.3,Win32,59.88023952,7,2,9,,,,,,,,4,08,,,,,,,,,,,,,1,2.286,0,,,,,,-0.369444444,-0.265740797,1,0,0,2.2857,Andesite_rect,8,0,8,0,1,
65602c23bb03869d53e76a34,SCR,2024-06-24_13h46.14.537,LearnStrategy,2023.2.3,Win32,59.88023952,7,2,10,,,,,,,,6,12,,,,,,,,,,,,,7,1.476,0,,,,,,0.139814843,-0.416666667,1,0,0,1.476,Peridotite_rect,9,0,9,0,1,
65602c23bb03869d53e76a34,SCR,2024-06-24_13h46.14.537,LearnStrategy,2023.2.3,Win32,59.88023952,7,2,11,,,,,,,,7,14,,,,,,,,,,,,,1,3.871,0,,,,,,-0.322222222,-0.259259288,1,0,0,3.8708,Andesite_rect,10,0,10,0,1,
65602c23bb03869d53e76a34,SCR,2024-06-24_13h46.14.537,LearnStrategy,2023.2.3,Win32,59.88023952,7,2,12,,,,,,,,2,12,,,,,,,,,,,,,2,1.324,1,,,,,,-0.153703647,-0.261111111,1,0,0,1.3244,Basalt_rect,11,0,11,0,1,
65602c23bb03869d53e76a34,SCR,2024-06-24_13h46.14.537,LearnStrategy,2023.2.3,Win32,59.88023952,7,2,13,,,,,,,,8,13,,,,,,,,,,,,,4,2.369,0,,,,,,0.420370399,-0.246296353,1,0,0,2.369,Gabbro_rect,12,0,12,0,1,
65602c23bb03869d53e76a34,SCR,2024-06-24_13h46.14.537,LearnStrategy,2023.2.3,Win32,59.88023952,7,2,14,,,,,,,,3,07,,,,,,,,,,,,,3,1.424,1,,,,,,0.161111111,-0.246296353,1,0,0,1.4245,Diorite_rect,13,0,13,0,1,
65602c23bb03869d53e76a34,SCR,2024-06-24_13h46.14.537,LearnStrategy,2023.2.3,Win32,59.88023952,7,2,15,,,,,,,,2,11,,,,,,,,,,,,,8,1.642,0,,,,,,0.340740797,-0.386111111,1,0,0,1.6424,Pumice_rect,14,0,14,0,1,
65602c23bb03869d53e76a34,SCR,2024-06-24_13h46.14.537,LearnStrategy,2023.2.3,Win32,59.88023952,7,2,16,,,,,,,,6,03,,,,,,,,,,,,,6,2.088,1,,,,,,-0.110185157,-0.390740797,1,0,0,2.0876,Pegmatite_rect,15,0,15,0,1,
65602c23bb03869d53e76a34,SCR,2024-06-24_13h46.14.537,LearnStrategy,2023.2.3,Win32,59.88023952,8,1,1,-0.09351849,0.113888889,1,0,0,0.9787,Gabbro_05,4,05,4,4,0.979,7,05,0.10648151,-0.250925954,1,0,0,1.0772,Diorite_rect,3,1.077,0,0,0,0,0,1,,,,,,,,,,,,,
65602c23bb03869d53e76a34,SCR,2024-06-24_13h46.14.537,LearnStrategy,2023.2.3,Win32,59.88023952,8,1,2,-0.117592536,0.123148134,1,0,0,0.7818,Gabbro_05,4,05,4,4,0.782,4,15,0.446296353,-0.268518575,1,0,0,0.7835,Gabbro_rect,4,0.784,1,1,0,1,0,1,,,,,,,,,,,,,
65602c23bb03869d53e76a34,SCR,2024-06-24_13h46.14.537,LearnStrategy,2023.2.3,Win32,59.88023952,8,1,3,0.089814843,0.045370356,1,0,0,0.7477,Pegmatite_10,6,10,4,5,0.748,4,10,-0.128703647,-0.408333333,1,0,0,1.4653,Pegmatite_rect,6,1.465,1,2,0,2,0,1,,,,,,,,,,,,,
65602c23bb03869d53e76a34,SCR,2024-06-24_13h46.14.537,LearnStrategy,2023.2.3,Win32,59.88023952,8,1,4,0.215740797,-0.103703732,1,0,0,1.2164,Pumice_16,8,16,3,6,1.216,4,13,0.335185242,-0.386111111,1,0,0,2.6791,Pumice_rect,8,2.679,1,3,0,3,0,1,,,,,,,,,,,,,
65602c23bb03869d53e76a34,SCR,2024-06-24_13h46.14.537,LearnStrategy,2023.2.3,Win32,59.88023952,8,1,5,0.546296353,0.422222222,1,0,0,1.308,Gabbro_13,4,13,6,8,1.308,8,15,0.402777778,-0.233333333,1,0,0,1.2743,Gabbro_rect,4,1.274,1,4,0,4,0,1,,,,,,,,,,,,,
65602c23bb03869d53e76a34,SCR,2024-06-24_13h46.14.537,LearnStrategy,2023.2.3,Win32,59.88023952,8,1,6,0.225,0.399074067,1,0,0,1.6608,Diorite_11,3,11,6,6,1.661,2,14,0.160185242,-0.260185242,1,0,0,2.0033,Diorite_rect,3,2.003,1,5,0,5,0,1,,,,,,,,,,,,,
65602c23bb03869d53e76a34,SCR,2024-06-24_13h46.14.537,LearnStrategy,2023.2.3,Win32,59.88023952,8,1,7,-0.404629601,0.096296268,1,0,0,1.2808,Basalt_04,2,04,4,2,1.281,7,16,-0.170370314,-0.233333333,1,0,0,1.0534,Basalt_rect,2,1.053,1,6,0,6,0,1,,,,,,,,,,,,,
65602c23bb03869d53e76a34,SCR,2024-06-24_13h46.14.537,LearnStrategy,2023.2.3,Win32,59.88023952,8,1,8,-0.209259245,-0.258333333,1,0,0,1.0018,Basalt_14,2,14,2,3,1.002,6,16,-0.209259245,-0.258333333,0,0,1,0.6386,Basalt_rect,2,0.639,1,7,0,7,0,1,,,,,,,,,,,,,
65602c23bb03869d53e76a34,SCR,2024-06-24_13h46.14.537,LearnStrategy,2023.2.3,Win32,59.88023952,8,1,9,0.268518575,-0.09629631,1,0,0,1.002,Pumice_16,8,16,3,6,1.002,6,06,-0.106481425,-0.254629686,1,0,0,1.3022,Basalt_rect,2,1.302,0,8,0,8,0,1,,,,,,,,,,,,,
65602c23bb03869d53e76a34,SCR,2024-06-24_13h46.14.537,LearnStrategy,2023.2.3,Win32,59.88023952,8,1,10,0.275,-0.087962977,1,0,0,1.5183,Pumice_16,8,16,3,6,1.518,3,15,0.35,-0.409259288,1,0,0,0.8394,Pumice_rect,8,0.839,1,9,0,9,0,1,,,,,,,,,,,,,
65602c23bb03869d53e76a34,SCR,2024-06-24_13h46.14.537,LearnStrategy,2023.2.3,Win32,59.88023952,8,1,11,-0.091666667,-0.230555556,1,0,0,0.817,Pegmatite_11,6,11,2,4,0.817,1,16,0.069444444,-0.405555556,1,0,0,1.0382,Peridotite_rect,7,1.038,0,10,0,10,0,1,,,,,,,,,,,,,
65602c23bb03869d53e76a34,SCR,2024-06-24_13h46.14.537,LearnStrategy,2023.2.3,Win32,59.88023952,8,1,12,-0.088888889,-0.268518575,1,0,0,0.9878,Pegmatite_11,6,11,2,4,0.988,1,05,-0.078703647,-0.415740797,1,0,0,0.7087,Pegmatite_rect,6,0.709,1,11,0,11,0,1,,,,,,,,,,,,,
65602c23bb03869d53e76a34,SCR,2024-06-24_13h46.14.537,LearnStrategy,2023.2.3,Win32,59.88023952,8,1,13,-0.355555556,0.222222222,1,0,0,0.8139,Basalt_02,2,02,5,2,0.814,1,06,0.348148176,-0.411111111,1,0,0,1.4459,Pumice_rect,8,1.446,0,12,0,12,0,1,,,,,,,,,,,,,
65602c23bb03869d53e76a34,SCR,2024-06-24_13h46.14.537,LearnStrategy,2023.2.3,Win32,59.88023952,8,1,14,-0.404629601,0.25,1,0,0,0.9769,Basalt_02,2,02,5,2,0.977,3,16,-0.1,-0.245370399,1,0,0,1.1455,Basalt_rect,2,1.145,1,13,0,13,0,1,,,,,,,,,,,,,
65602c23bb03869d53e76a34,SCR,2024-06-24_13h46.14.537,LearnStrategy,2023.2.3,Win32,59.88023952,8,1,15,0.069444444,0.099074046,1,0,0,0.7902,Pegmatite_10,6,10,4,5,0.79,2,04,-0.14351849,-0.412037065,1,0,0,2.2288,Pegmatite_rect,6,2.229,1,14,0,14,0,1,,,,,,,,,,,,,
65602c23bb03869d53e76a34,SCR,2024-06-24_13h46.14.537,LearnStrategy,2023.2.3,Win32,59.88023952,8,1,16,0.101851908,0.399074067,1,0,0,1.71,Andesite_04,1,04,6,5,1.71,7,06,0.386111111,-0.25648151,1,0,0,1.7324,Gabbro_rect,4,1.732,0,15,0,15,0,1,,,,,,,,,,,,,
65602c23bb03869d53e76a34,SCR,2024-06-24_13h46.14.537,LearnStrategy,2023.2.3,Win32,59.88023952,8,2,1,,,,,,,,5,09,,,,,,,,,,,,,5,2.481,1,,,,,,-0.425925912,-0.393518575,1,0,0,2.4809,Obsidian_rect,0,0,0,0,1,
65602c23bb03869d53e76a34,SCR,2024-06-24_13h46.14.537,LearnStrategy,2023.2.3,Win32,59.88023952,8,2,2,,,,,,,,7,12,,,,,,,,,,,,,3,2.692,0,,,,,,0.114814843,-0.249074131,1,0,0,2.6924,Diorite_rect,1,0,1,0,1,
65602c23bb03869d53e76a34,SCR,2024-06-24_13h46.14.537,LearnStrategy,2023.2.3,Win32,59.88023952,8,2,3,,,,,,,,2,08,,,,,,,,,,,,,2,2.421,1,,,,,,-0.104629601,-0.25,1,0,0,2.4215,Basalt_rect,2,0,2,0,1,
65602c23bb03869d53e76a34,SCR,2024-06-24_13h46.14.537,LearnStrategy,2023.2.3,Win32,59.88023952,8,2,4,,,,,,,,8,10,,,,,,,,,,,,,8,1.996,1,,,,,,0.429629686,-0.409259288,1,0,0,1.9964,Pumice_rect,3,0,3,0,1,
65602c23bb03869d53e76a34,SCR,2024-06-24_13h46.14.537,LearnStrategy,2023.2.3,Win32,59.88023952,8,2,5,,,,,,,,2,06,,,,,,,,,,,,,2,1.391,1,,,,,,-0.096296268,-0.257407464,1,0,0,1.391,Basalt_rect,4,0,4,0,1,
65602c23bb03869d53e76a34,SCR,2024-06-24_13h46.14.537,LearnStrategy,2023.2.3,Win32,59.88023952,8,2,6,,,,,,,,5,04,,,,,,,,,,,,,5,1.477,1,,,,,,-0.397222222,-0.4,1,0,0,1.4766,Obsidian_rect,5,0,5,0,1,
65602c23bb03869d53e76a34,SCR,2024-06-24_13h46.14.537,LearnStrategy,2023.2.3,Win32,59.88023952,8,2,7,,,,,,,,3,14,,,,,,,,,,,,,3,1.784,1,,,,,,0.153703732,-0.266666667,1,0,0,1.7843,Diorite_rect,6,0,6,0,1,
65602c23bb03869d53e76a34,SCR,2024-06-24_13h46.14.537,LearnStrategy,2023.2.3,Win32,59.88023952,8,2,8,,,,,,,,6,09,,,,,,,,,,,,,6,1.63,1,,,,,,-0.145370314,-0.398148176,1,0,0,1.6299,Pegmatite_rect,7,0,7,0,1,
65602c23bb03869d53e76a34,SCR,2024-06-24_13h46.14.537,LearnStrategy,2023.2.3,Win32,59.88023952,8,2,9,,,,,,,,4,11,,,,,,,,,,,,,1,3.222,0,,,,,,-0.34351849,-0.250925954,1,0,0,3.2219,Andesite_rect,8,0,8,0,1,
65602c23bb03869d53e76a34,SCR,2024-06-24_13h46.14.537,LearnStrategy,2023.2.3,Win32,59.88023952,8,2,10,,,,,,,,3,12,,,,,,,,,,,,,3,2.194,1,,,,,,0.135185242,-0.250925954,1,0,0,2.194,Diorite_rect,9,0,9,0,1,
65602c23bb03869d53e76a34,SCR,2024-06-24_13h46.14.537,LearnStrategy,2023.2.3,Win32,59.88023952,8,2,11,,,,,,,,1,11,,,,,,,,,,,,,4,2,0,,,,,,0.35648151,-0.239814843,1,0,0,1.9997,Gabbro_rect,10,0,10,0,1,
65602c23bb03869d53e76a34,SCR,2024-06-24_13h46.14.537,LearnStrategy,2023.2.3,Win32,59.88023952,8,2,12,,,,,,,,6,05,,,,,,,,,,,,,5,2.515,0,,,,,,-0.327777778,-0.40648151,1,0,0,2.5149,Obsidian_rect,11,0,11,0,1,
65602c23bb03869d53e76a34,SCR,2024-06-24_13h46.14.537,LearnStrategy,2023.2.3,Win32,59.88023952,8,2,13,,,,,,,,1,07,,,,,,,,,,,,,4,4.889,0,,,,,,0.362963019,-0.25648151,1,0,0,4.8891,Gabbro_rect,12,0,12,0,1,
65602c23bb03869d53e76a34,SCR,2024-06-24_13h46.14.537,LearnStrategy,2023.2.3,Win32,59.88023952,8,2,14,,,,,,,,4,14,,,,,,,,,,,,,2,3.035,0,,,,,,-0.088888889,-0.253703732,1,0,0,3.0352,Basalt_rect,13,0,13,0,1,
65602c23bb03869d53e76a34,SCR,2024-06-24_13h46.14.537,LearnStrategy,2023.2.3,Win32,59.88023952,8,2,15,,,,,,,,8,03,,,,,,,,,,,,,8,1.525,1,,,,,,0.358333333,-0.399074131,1,0,0,1.5253,Pumice_rect,14,0,14,0,1,
65602c23bb03869d53e76a34,SCR,2024-06-24_13h46.14.537,LearnStrategy,2023.2.3,Win32,59.88023952,8,2,16,,,,,,,,7,10,,,,,,,,,,,,,3,1.62,0,,,,,,0.111111111,-0.243518575,1,0,0,1.6201,Diorite_rect,15,0,15,0,1,
65602c23bb03869d53e76a34,SCR,2024-06-24_13h46.14.537,LearnStrategy,2023.2.3,Win32,59.88023952,9,1,1,-0.224074046,-0.07129631,1,0,0,1.4286,Obsidian_10,5,10,3,3,1.429,4,05,-0.359259245,-0.396296353,1,0,0,1.3257,Obsidian_rect,5,1.326,1,0,0,0,0,1,,,,,,,,,,,,,
65602c23bb03869d53e76a34,SCR,2024-06-24_13h46.14.537,LearnStrategy,2023.2.3,Win32,59.88023952,9,1,2,0.048148176,-0.083333333,1,0,0,1.0344,Diorite_15,3,15,3,5,1.034,4,05,0.10648151,-0.239814843,1,0,0,0.7402,Diorite_rect,3,0.74,1,1,0,1,0,1,,,,,,,,,,,,,
65602c23bb03869d53e76a34,SCR,2024-06-24_13h46.14.537,LearnStrategy,2023.2.3,Win32,59.88023952,9,1,3,-0.054629601,-0.126851866,1,0,0,1.1779,Andesite_05,1,05,3,4,1.178,2,14,0.374074131,-0.255555556,1,0,0,1.8279,Gabbro_rect,4,1.828,0,2,0,2,0,1,,,,,,,,,,,,,
65602c23bb03869d53e76a34,SCR,2024-06-24_13h46.14.537,LearnStrategy,2023.2.3,Win32,59.88023952,9,1,4,-0.121296268,-0.062962977,1,0,0,0.7621,Andesite_05,1,05,3,4,0.762,1,06,-0.323148134,-0.245370399,1,0,0,1.0379,Andesite_rect,1,1.038,1,3,0,3,0,1,,,,,,,,,,,,,
65602c23bb03869d53e76a34,SCR,2024-06-24_13h46.14.537,LearnStrategy,2023.2.3,Win32,59.88023952,9,1,5,-0.538888889,0.405555556,1,0,0,1.0433,Peridotite_06,7,06,6,1,1.043,6,10,0.101851908,-0.412037065,1,0,0,3.0429,Peridotite_rect,7,3.043,1,4,0,4,0,1,,,,,,,,,,,,,
65602c23bb03869d53e76a34,SCR,2024-06-24_13h46.14.537,LearnStrategy,2023.2.3,Win32,59.88023952,9,1,6,0.095370399,0.109259245,1,0,0,1.4272,Pegmatite_10,6,10,4,5,1.427,7,06,-0.200925912,-0.397222222,1,0,0,0.9837,Pegmatite_rect,6,0.984,1,5,0,5,0,1,,,,,,,,,,,,,
65602c23bb03869d53e76a34,SCR,2024-06-24_13h46.14.537,LearnStrategy,2023.2.3,Win32,59.88023952,9,1,7,0.217592621,0.075925912,1,0,0,0.9119,Obsidian_06,5,06,4,6,0.912,3,11,-0.334259245,-0.409259288,1,0,0,1.1643,Obsidian_rect,5,1.164,1,6,0,6,0,1,,,,,,,,,,,,,
65602c23bb03869d53e76a34,SCR,2024-06-24_13h46.14.537,LearnStrategy,2023.2.3,Win32,59.88023952,9,1,8,-0.262962935,-0.236111111,1,0,0,1.1904,Basalt_14,2,14,2,3,1.19,7,16,0.38148151,-0.387037065,1,0,0,1.1734,Pumice_rect,8,1.173,0,7,0,7,0,1,,,,,,,,,,,,,
65602c23bb03869d53e76a34,SCR,2024-06-24_13h46.14.537,LearnStrategy,2023.2.3,Win32,59.88023952,9,1,9,-0.214814801,-0.237963019,1,0,0,0.9609,Basalt_14,2,14,2,3,0.961,8,16,-0.120370314,-0.235185242,1,0,0,0.6346,Basalt_rect,2,0.635,1,8,0,8,0,1,,,,,,,,,,,,,
65602c23bb03869d53e76a34,SCR,2024-06-24_13h46.14.537,LearnStrategy,2023.2.3,Win32,59.88023952,9,1,10,-0.204629601,-0.092592621,1,0,0,1.4323,Obsidian_10,5,10,3,3,1.432,1,04,-0.406481467,-0.416666667,1,0,0,0.9831,Obsidian_rect,5,0.983,1,9,0,9,0,1,,,,,,,,,,,,,
65602c23bb03869d53e76a34,SCR,2024-06-24_13h46.14.537,LearnStrategy,2023.2.3,Win32,59.88023952,9,1,11,0.069444444,-0.397222222,1,0,0,1.1132,Pegmatite_08,6,08,1,5,1.113,6,11,0.069444444,-0.397222222,0,0,1,0.6084,Peridotite_rect,7,0.608,0,10,0,10,0,1,,,,,,,,,,,,,
65602c23bb03869d53e76a34,SCR,2024-06-24_13h46.14.537,LearnStrategy,2023.2.3,Win32,59.88023952,9,1,12,0.090740797,-0.43148151,1,0,0,1.12,Pegmatite_08,6,08,1,5,1.12,7,02,-0.080555556,-0.397222222,1,0,0,0.6685,Pegmatite_rect,6,0.668,1,11,0,11,0,1,,,,,,,,,,,,,
65602c23bb03869d53e76a34,SCR,2024-06-24_13h46.14.537,LearnStrategy,2023.2.3,Win32,59.88023952,9,1,13,0.093518575,0.071296268,1,0,0,0.8599,Pegmatite_10,6,10,4,5,0.86,3,09,-0.196296268,-0.397222222,1,0,0,0.9035,Pegmatite_rect,6,0.903,1,12,0,12,0,1,,,,,,,,,,,,,
65602c23bb03869d53e76a34,SCR,2024-06-24_13h46.14.537,LearnStrategy,2023.2.3,Win32,59.88023952,9,1,14,0.530555556,0.413888889,1,0,0,1.3989,Gabbro_13,4,13,6,8,1.399,1,14,0.408333333,-0.255555556,1,0,0,1.4829,Gabbro_rect,4,1.483,1,13,0,13,0,1,,,,,,,,,,,,,
65602c23bb03869d53e76a34,SCR,2024-06-24_13h46.14.537,LearnStrategy,2023.2.3,Win32,59.88023952,9,1,15,-0.410185157,-0.201851866,1,0,0,1.2282,Gabbro_15,4,15,2,2,1.228,5,08,0.082407464,-0.237037065,1,0,0,1.2215,Diorite_rect,3,1.221,0,14,0,14,0,1,,,,,,,,,,,,,
65602c23bb03869d53e76a34,SCR,2024-06-24_13h46.14.537,LearnStrategy,2023.2.3,Win32,59.88023952,9,1,16,-0.408333333,-0.222222222,1,0,0,1.3076,Gabbro_15,4,15,2,2,1.308,4,13,0.373148176,-0.247222222,1,0,0,1.0635,Gabbro_rect,4,1.063,1,15,0,15,0,1,,,,,,,,,,,,,
65602c23bb03869d53e76a34,SCR,2024-06-24_13h46.14.537,LearnStrategy,2023.2.3,Win32,59.88023952,9,2,1,,,,,,,,1,01,,,,,,,,,,,,,1,3.526,1,,,,,,-0.337962935,-0.253703732,1,0,0,3.526,Andesite_rect,0,0,0,0,1,
65602c23bb03869d53e76a34,SCR,2024-06-24_13h46.14.537,LearnStrategy,2023.2.3,Win32,59.88023952,9,2,2,,,,,,,,1,03,,,,,,,,,,,,,4,1.616,0,,,,,,0.422222222,-0.247222222,1,0,0,1.6157,Gabbro_rect,1,0,1,0,1,
65602c23bb03869d53e76a34,SCR,2024-06-24_13h46.14.537,LearnStrategy,2023.2.3,Win32,59.88023952,9,2,3,,,,,,,,8,09,,,,,,,,,,,,,8,2.018,1,,,,,,0.470370399,-0.38148151,1,0,0,2.0185,Pumice_rect,2,0,2,0,1,
65602c23bb03869d53e76a34,SCR,2024-06-24_13h46.14.537,LearnStrategy,2023.2.3,Win32,59.88023952,9,2,4,,,,,,,,6,13,,,,,,,,,,,,,5,2.437,0,,,,,,-0.332407379,-0.392592621,1,0,0,2.4368,Obsidian_rect,3,0,3,0,1,
65602c23bb03869d53e76a34,SCR,2024-06-24_13h46.14.537,LearnStrategy,2023.2.3,Win32,59.88023952,9,2,5,,,,,,,,2,10,,,,,,,,,,,,,2,3.713,1,,,,,,-0.135185157,-0.262037065,1,0,0,3.713,Basalt_rect,4,0,4,0,1,
65602c23bb03869d53e76a34,SCR,2024-06-24_13h46.14.537,LearnStrategy,2023.2.3,Win32,59.88023952,9,2,6,,,,,,,,5,16,,,,,,,,,,,,,5,1.297,1,,,,,,-0.36851849,-0.411111111,1,0,0,1.2967,Obsidian_rect,5,0,5,0,1,
65602c23bb03869d53e76a34,SCR,2024-06-24_13h46.14.537,LearnStrategy,2023.2.3,Win32,59.88023952,9,2,7,,,,,,,,4,12,,,,,,,,,,,,,4,1.74,1,,,,,,0.363888889,-0.247222222,1,0,0,1.7399,Gabbro_rect,6,0,6,0,1,
65602c23bb03869d53e76a34,SCR,2024-06-24_13h46.14.537,LearnStrategy,2023.2.3,Win32,59.88023952,9,2,8,,,,,,,,3,02,,,,,,,,,,,,,3,1.739,1,,,,,,0.129629686,-0.261111111,1,0,0,1.7386,Diorite_rect,7,0,7,0,1,
65602c23bb03869d53e76a34,SCR,2024-06-24_13h46.14.537,LearnStrategy,2023.2.3,Win32,59.88023952,9,2,9,,,,,,,,2,16,,,,,,,,,,,,,2,1.841,1,,,,,,-0.047222222,-0.258333333,1,0,0,1.8414,Basalt_rect,8,0,8,0,1,
65602c23bb03869d53e76a34,SCR,2024-06-24_13h46.14.537,LearnStrategy,2023.2.3,Win32,59.88023952,9,2,10,,,,,,,,3,10,,,,,,,,,,,,,3,1.33,1,,,,,,0.070370399,-0.265740797,1,0,0,1.33,Diorite_rect,9,0,9,0,1,
65602c23bb03869d53e76a34,SCR,2024-06-24_13h46.14.537,LearnStrategy,2023.2.3,Win32,59.88023952,9,2,11,,,,,,,,4,01,,,,,,,,,,,,,3,0.814,0,,,,,,0.070370399,-0.265740797,1,0,0,0.8141,Diorite_rect,10,0,10,0,1,
65602c23bb03869d53e76a34,SCR,2024-06-24_13h46.14.537,LearnStrategy,2023.2.3,Win32,59.88023952,9,2,12,,,,,,,,7,13,,,,,,,,,,,,,1,3.617,0,,,,,,-0.307407379,-0.238888889,1,0,0,3.6171,Andesite_rect,11,0,11,0,1,
65602c23bb03869d53e76a34,SCR,2024-06-24_13h46.14.537,LearnStrategy,2023.2.3,Win32,59.88023952,9,2,13,,,,,,,,6,15,,,,,,,,,,,,,6,3.012,1,,,,,,-0.046296268,-0.387963019,1,0,0,3.0122,Pegmatite_rect,12,0,12,0,1,
65602c23bb03869d53e76a34,SCR,2024-06-24_13h46.14.537,LearnStrategy,2023.2.3,Win32,59.88023952,9,2,14,,,,,,,,5,07,,,,,,,,,,,,,5,1.688,1,,,,,,-0.367592578,-0.405555556,1,0,0,1.6884,Obsidian_rect,13,0,13,0,1,
65602c23bb03869d53e76a34,SCR,2024-06-24_13h46.14.537,LearnStrategy,2023.2.3,Win32,59.88023952,9,2,15,,,,,,,,7,07,,,,,,,,,,,,,4,2.41,0,,,,,,0.362963019,-0.252777778,1,0,0,2.4104,Gabbro_rect,14,0,14,0,1,
65602c23bb03869d53e76a34,SCR,2024-06-24_13h46.14.537,LearnStrategy,2023.2.3,Win32,59.88023952,9,2,16,,,,,,,,8,04,,,,,,,,,,,,,8,1.496,1,,,,,,0.387963019,-0.400925954,1,0,0,1.4961,Pumice_rect,15,0,15,0,1,
65602c23bb03869d53e76a34,SCR,2024-06-24_13h46.14.537,LearnStrategy,2023.2.3,Win32,59.88023952,,,,,,,,,,,,,,,,,,,,,,,,,,,,,,,,,,,,,,,,,,,,,0
65602c23bb03869d53e76a34,SCR,2024-06-24_13h46.14.537,LearnStrategy,2023.2.3,Win32,59.88023952,,,,,,,,,,,,,,,,,,,,,,,,,,,,,,,,,,,,,,,,,,,,,
65602c23bb03869d53e76a34,SCR,2024-06-24_13h46.14.537,LearnStrategy,2023.2.3,Win32,59.88023952,,,,,,,,,,,1,06,1,1,,,,,,,,,,,,,,,,,,,,,,,,,,,,,,,
65602c23bb03869d53e76a34,SCR,2024-06-24_13h46.14.537,LearnStrategy,2023.2.3,Win32,59.88023952,,,,,,,,,,,3,16,1,2,,,,,,,,,,,,,,,,,,,,,,,,,,,,,,,
65602c23bb03869d53e76a34,SCR,2024-06-24_13h46.14.537,LearnStrategy,2023.2.3,Win32,59.88023952,,,,,,,,,,,7,02,1,3,,,,,,,,,,,,,,,,,,,,,,,,,,,,,,,
65602c23bb03869d53e76a34,SCR,2024-06-24_13h46.14.537,LearnStrategy,2023.2.3,Win32,59.88023952,,,,,,,,,,,1,16,1,4,,,,,,,,,,,,,,,,,,,,,,,,,,,,,,,
65602c23bb03869d53e76a34,SCR,2024-06-24_13h46.14.537,LearnStrategy,2023.2.3,Win32,59.88023952,,,,,,,,,,,6,08,1,5,,,,,,,,,,,,,,,,,,,,,,,,,,,,,,,
65602c23bb03869d53e76a34,SCR,2024-06-24_13h46.14.537,LearnStrategy,2023.2.3,Win32,59.88023952,,,,,,,,,,,4,09,1,6,,,,,,,,,,,,,,,,,,,,,,,,,,,,,,,
65602c23bb03869d53e76a34,SCR,2024-06-24_13h46.14.537,LearnStrategy,2023.2.3,Win32,59.88023952,,,,,,,,,,,3,09,1,7,,,,,,,,,,,,,,,,,,,,,,,,,,,,,,,
65602c23bb03869d53e76a34,SCR,2024-06-24_13h46.14.537,LearnStrategy,2023.2.3,Win32,59.88023952,,,,,,,,,,,8,15,1,8,,,,,,,,,,,,,,,,,,,,,,,,,,,,,,,
65602c23bb03869d53e76a34,SCR,2024-06-24_13h46.14.537,LearnStrategy,2023.2.3,Win32,59.88023952,,,,,,,,,,,2,01,2,1,,,,,,,,,,,,,,,,,,,,,,,,,,,,,,,
65602c23bb03869d53e76a34,SCR,2024-06-24_13h46.14.537,LearnStrategy,2023.2.3,Win32,59.88023952,,,,,,,,,,,4,15,2,2,,,,,,,,,,,,,,,,,,,,,,,,,,,,,,,
65602c23bb03869d53e76a34,SCR,2024-06-24_13h46.14.537,LearnStrategy,2023.2.3,Win32,59.88023952,,,,,,,,,,,2,14,2,3,,,,,,,,,,,,,,,,,,,,,,,,,,,,,,,
65602c23bb03869d53e76a34,SCR,2024-06-24_13h46.14.537,LearnStrategy,2023.2.3,Win32,59.88023952,,,,,,,,,,,6,11,2,4,,,,,,,,,,,,,,,,,,,,,,,,,,,,,,,
65602c23bb03869d53e76a34,SCR,2024-06-24_13h46.14.537,LearnStrategy,2023.2.3,Win32,59.88023952,,,,,,,,,,,7,16,2,5,,,,,,,,,,,,,,,,,,,,,,,,,,,,,,,
65602c23bb03869d53e76a34,SCR,2024-06-24_13h46.14.537,LearnStrategy,2023.2.3,Win32,59.88023952,,,,,,,,,,,8,05,2,6,,,,,,,,,,,,,,,,,,,,,,,,,,,,,,,
65602c23bb03869d53e76a34,SCR,2024-06-24_13h46.14.537,LearnStrategy,2023.2.3,Win32,59.88023952,,,,,,,,,,,6,16,2,7,,,,,,,,,,,,,,,,,,,,,,,,,,,,,,,
65602c23bb03869d53e76a34,SCR,2024-06-24_13h46.14.537,LearnStrategy,2023.2.3,Win32,59.88023952,,,,,,,,,,,5,11,2,8,,,,,,,,,,,,,,,,,,,,,,,,,,,,,,,
65602c23bb03869d53e76a34,SCR,2024-06-24_13h46.14.537,LearnStrategy,2023.2.3,Win32,59.88023952,,,,,,,,,,,7,08,3,1,,,,,,,,,,,,,,,,,,,,,,,,,,,,,,,
65602c23bb03869d53e76a34,SCR,2024-06-24_13h46.14.537,LearnStrategy,2023.2.3,Win32,59.88023952,,,,,,,,,,,2,09,3,2,,,,,,,,,,,,,,,,,,,,,,,,,,,,,,,
65602c23bb03869d53e76a34,SCR,2024-06-24_13h46.14.537,LearnStrategy,2023.2.3,Win32,59.88023952,,,,,,,,,,,5,10,3,3,,,,,,,,,,,,,,,,,,,,,,,,,,,,,,,
65602c23bb03869d53e76a34,SCR,2024-06-24_13h46.14.537,LearnStrategy,2023.2.3,Win32,59.88023952,,,,,,,,,,,1,05,3,4,,,,,,,,,,,,,,,,,,,,,,,,,,,,,,,
65602c23bb03869d53e76a34,SCR,2024-06-24_13h46.14.537,LearnStrategy,2023.2.3,Win32,59.88023952,,,,,,,,,,,3,15,3,5,,,,,,,,,,,,,,,,,,,,,,,,,,,,,,,
65602c23bb03869d53e76a34,SCR,2024-06-24_13h46.14.537,LearnStrategy,2023.2.3,Win32,59.88023952,,,,,,,,,,,8,16,3,6,,,,,,,,,,,,,,,,,,,,,,,,,,,,,,,
65602c23bb03869d53e76a34,SCR,2024-06-24_13h46.14.537,LearnStrategy,2023.2.3,Win32,59.88023952,,,,,,,,,,,6,07,3,7,,,,,,,,,,,,,,,,,,,,,,,,,,,,,,,
65602c23bb03869d53e76a34,SCR,2024-06-24_13h46.14.537,LearnStrategy,2023.2.3,Win32,59.88023952,,,,,,,,,,,8,14,3,8,,,,,,,,,,,,,,,,,,,,,,,,,,,,,,,
65602c23bb03869d53e76a34,SCR,2024-06-24_13h46.14.537,LearnStrategy,2023.2.3,Win32,59.88023952,,,,,,,,,,,8,08,4,1,,,,,,,,,,,,,,,,,,,,,,,,,,,,,,,
65602c23bb03869d53e76a34,SCR,2024-06-24_13h46.14.537,LearnStrategy,2023.2.3,Win32,59.88023952,,,,,,,,,,,2,04,4,2,,,,,,,,,,,,,,,,,,,,,,,,,,,,,,,
65602c23bb03869d53e76a34,SCR,2024-06-24_13h46.14.537,LearnStrategy,2023.2.3,Win32,59.88023952,,,,,,,,,,,5,05,4,3,,,,,,,,,,,,,,,,,,,,,,,,,,,,,,,
65602c23bb03869d53e76a34,SCR,2024-06-24_13h46.14.537,LearnStrategy,2023.2.3,Win32,59.88023952,,,,,,,,,,,4,05,4,4,,,,,,,,,,,,,,,,,,,,,,,,,,,,,,,
65602c23bb03869d53e76a34,SCR,2024-06-24_13h46.14.537,LearnStrategy,2023.2.3,Win32,59.88023952,,,,,,,,,,,6,10,4,5,,,,,,,,,,,,,,,,,,,,,,,,,,,,,,,
65602c23bb03869d53e76a34,SCR,2024-06-24_13h46.14.537,LearnStrategy,2023.2.3,Win32,59.88023952,,,,,,,,,,,5,06,4,6,,,,,,,,,,,,,,,,,,,,,,,,,,,,,,,
65602c23bb03869d53e76a34,SCR,2024-06-24_13h46.14.537,LearnStrategy,2023.2.3,Win32,59.88023952,,,,,,,,,,,6,06,4,7,,,,,,,,,,,,,,,,,,,,,,,,,,,,,,,
65602c23bb03869d53e76a34,SCR,2024-06-24_13h46.14.537,LearnStrategy,2023.2.3,Win32,59.88023952,,,,,,,,,,,5,02,4,8,,,,,,,,,,,,,,,,,,,,,,,,,,,,,,,
65602c23bb03869d53e76a34,SCR,2024-06-24_13h46.14.537,LearnStrategy,2023.2.3,Win32,59.88023952,,,,,,,,,,,7,04,5,1,,,,,,,,,,,,,,,,,,,,,,,,,,,,,,,
65602c23bb03869d53e76a34,SCR,2024-06-24_13h46.14.537,LearnStrategy,2023.2.3,Win32,59.88023952,,,,,,,,,,,2,02,5,2,,,,,,,,,,,,,,,,,,,,,,,,,,,,,,,
65602c23bb03869d53e76a34,SCR,2024-06-24_13h46.14.537,LearnStrategy,2023.2.3,Win32,59.88023952,,,,,,,,,,,5,08,5,3,,,,,,,,,,,,,,,,,,,,,,,,,,,,,,,
65602c23bb03869d53e76a34,SCR,2024-06-24_13h46.14.537,LearnStrategy,2023.2.3,Win32,59.88023952,,,,,,,,,,,7,05,5,4,,,,,,,,,,,,,,,,,,,,,,,,,,,,,,,
65602c23bb03869d53e76a34,SCR,2024-06-24_13h46.14.537,LearnStrategy,2023.2.3,Win32,59.88023952,,,,,,,,,,,1,14,5,5,,,,,,,,,,,,,,,,,,,,,,,,,,,,,,,
65602c23bb03869d53e76a34,SCR,2024-06-24_13h46.14.537,LearnStrategy,2023.2.3,Win32,59.88023952,,,,,,,,,,,1,09,5,6,,,,,,,,,,,,,,,,,,,,,,,,,,,,,,,
65602c23bb03869d53e76a34,SCR,2024-06-24_13h46.14.537,LearnStrategy,2023.2.3,Win32,59.88023952,,,,,,,,,,,8,06,5,7,,,,,,,,,,,,,,,,,,,,,,,,,,,,,,,
65602c23bb03869d53e76a34,SCR,2024-06-24_13h46.14.537,LearnStrategy,2023.2.3,Win32,59.88023952,,,,,,,,,,,4,10,5,8,,,,,,,,,,,,,,,,,,,,,,,,,,,,,,,
65602c23bb03869d53e76a34,SCR,2024-06-24_13h46.14.537,LearnStrategy,2023.2.3,Win32,59.88023952,,,,,,,,,,,7,06,6,1,,,,,,,,,,,,,,,,,,,,,,,,,,,,,,,
65602c23bb03869d53e76a34,SCR,2024-06-24_13h46.14.537,LearnStrategy,2023.2.3,Win32,59.88023952,,,,,,,,,,,3,06,6,2,,,,,,,,,,,,,,,,,,,,,,,,,,,,,,,
65602c23bb03869d53e76a34,SCR,2024-06-24_13h46.14.537,LearnStrategy,2023.2.3,Win32,59.88023952,,,,,,,,,,,2,05,6,3,,,,,,,,,,,,,,,,,,,,,,,,,,,,,,,
65602c23bb03869d53e76a34,SCR,2024-06-24_13h46.14.537,LearnStrategy,2023.2.3,Win32,59.88023952,,,,,,,,,,,3,08,6,4,,,,,,,,,,,,,,,,,,,,,,,,,,,,,,,
65602c23bb03869d53e76a34,SCR,2024-06-24_13h46.14.537,LearnStrategy,2023.2.3,Win32,59.88023952,,,,,,,,,,,1,04,6,5,,,,,,,,,,,,,,,,,,,,,,,,,,,,,,,
65602c23bb03869d53e76a34,SCR,2024-06-24_13h46.14.537,LearnStrategy,2023.2.3,Win32,59.88023952,,,,,,,,,,,3,11,6,6,,,,,,,,,,,,,,,,,,,,,,,,,,,,,,,
65602c23bb03869d53e76a34,SCR,2024-06-24_13h46.14.537,LearnStrategy,2023.2.3,Win32,59.88023952,,,,,,,,,,,4,03,6,7,,,,,,,,,,,,,,,,,,,,,,,,,,,,,,,
65602c23bb03869d53e76a34,SCR,2024-06-24_13h46.14.537,LearnStrategy,2023.2.3,Win32,59.88023952,,,,,,,,,,,4,13,6,8,,,,,,,,,,,,,,,,,,,,,,,,,,,,,,,