participant,condition,date,expName,psychopyVersion,OS,frameRate,block,phase,trial,learn_mouse_2.x,learn_mouse_2.y,learn_mouse_2.leftButton,learn_mouse_2.midButton,learn_mouse_2.rightButton,learn_mouse_2.time,learn_mouse_2.clicked_name,cat,token,row,col,t_select,cat_mouse_l.x,cat_mouse_l.y,cat_mouse_l.leftButton,cat_mouse_l.midButton,cat_mouse_l.rightButton,cat_mouse_l.time,cat_mouse_l.clicked_name,resp,t_resp,corr,train_trials.thisRepN,train_trials.thisTrialN,train_trials.thisN,train_trials.thisIndex,train_trials.ran,cat_mouse_t.x,cat_mouse_t.y,cat_mouse_t.leftButton,cat_mouse_t.midButton,cat_mouse_t.rightButton,cat_mouse_t.time,cat_mouse_t.clicked_name,test_trials.thisRepN,test_trials.thisTrialN,test_trials.thisN,test_trials.thisIndex,test_trials.ran,Bonus
656607db0fc2ad7c7b0948fa,TCR,2024-06-11_13h09.41.688,LearnStrategy,2023.2.3,Win32,60.24096386,,,,,,,,,,,,,,,,,,,,,,,,,,,,,,,,,,,,,,,,,,,
656607db0fc2ad7c7b0948fa,TCR,2024-06-11_13h09.41.688,LearnStrategy,2023.2.3,Win32,60.24096386,1,1,1,-0.005555556,-0.013888889,1,0,0,3.8799,rock_grid_rect_2,4,10,-1,-1,3.88,-0.114814815,-0.262037037,1,0,0,4.0931,Basalt_rect,2,4.093,0,0,0,0,0,1,,,,,,,,,,,,,
656607db0fc2ad7c7b0948fa,TCR,2024-06-11_13h09.41.688,LearnStrategy,2023.2.3,Win32,60.24096386,1,1,2,0.033333333,0,1,0,0,1.2116,rock_grid_rect_2,7,16,-1,-1,1.212,-0.356481481,-0.380555556,1,0,0,2.2477,Obsidian_rect,5,2.248,0,1,0,1,0,1,,,,,,,,,,,,,
656607db0fc2ad7c7b0948fa,TCR,2024-06-11_13h09.41.688,LearnStrategy,2023.2.3,Win32,60.24096386,1,1,3,0.010185185,-0.012962963,1,0,0,1.7461,rock_grid_rect_2,6,09,-1,-1,1.746,0.469444444,-0.402777778,1,0,0,5.034,Pumice_rect,8,5.034,0,2,0,2,0,1,,,,,,,,,,,,,
656607db0fc2ad7c7b0948fa,TCR,2024-06-11_13h09.41.688,LearnStrategy,2023.2.3,Win32,60.24096386,1,1,4,-0.000925926,0,1,0,0,1.2954,rock_grid_rect_2,2,09,-1,-1,1.295,0.163888889,-0.230555556,1,0,0,4.3333,Diorite_rect,3,4.333,0,3,0,3,0,1,,,,,,,,,,,,,
656607db0fc2ad7c7b0948fa,TCR,2024-06-11_13h09.41.688,LearnStrategy,2023.2.3,Win32,60.24096386,1,1,5,0.041666667,0.006481481,1,0,0,1.0787,rock_grid_rect_2,1,10,-1,-1,1.079,-0.115740741,-0.235185185,1,0,0,3.2658,Basalt_rect,2,3.266,0,4,0,4,0,1,,,,,,,,,,,,,
656607db0fc2ad7c7b0948fa,TCR,2024-06-11_13h09.41.688,LearnStrategy,2023.2.3,Win32,60.24096386,1,1,6,-0.039814815,0.009259259,1,0,0,1.0164,rock_grid_rect_2,3,09,-1,-1,1.016,-0.464814815,-0.402777778,1,0,0,4.8002,Obsidian_rect,5,4.8,0,5,0,5,0,1,,,,,,,,,,,,,
656607db0fc2ad7c7b0948fa,TCR,2024-06-11_13h09.41.688,LearnStrategy,2023.2.3,Win32,60.24096386,1,1,7,0.052777778,-0.014814815,1,0,0,0.8448,rock_grid_rect_2,8,03,-1,-1,0.845,0.452777778,-0.389814815,1,0,0,3.5662,Pumice_rect,8,3.566,1,6,0,6,0,1,,,,,,,,,,,,,
656607db0fc2ad7c7b0948fa,TCR,2024-06-11_13h09.41.688,LearnStrategy,2023.2.3,Win32,60.24096386,1,1,8,-0.060185185,-0.005555556,1,0,0,0.9284,rock_grid_rect_2,5,16,-1,-1,0.928,-0.363888889,-0.382407407,1,0,0,1.8637,Obsidian_rect,5,1.864,1,7,0,7,0,1,,,,,,,,,,,,,
656607db0fc2ad7c7b0948fa,TCR,2024-06-11_13h09.41.688,LearnStrategy,2023.2.3,Win32,60.24096386,1,1,9,0.006481481,-0.000925926,1,0,0,0.8488,rock_grid_rect_2,6,06,-1,-1,0.849,-0.094444444,-0.378703704,1,0,0,15.0776,Pegmatite_rect,6,15.078,1,8,0,8,0,1,,,,,,,,,,,,,
656607db0fc2ad7c7b0948fa,TCR,2024-06-11_13h09.41.688,LearnStrategy,2023.2.3,Win32,60.24096386,1,1,10,0.031481481,0.000925926,1,0,0,1.1448,rock_grid_rect_2,4,09,-1,-1,1.145,0.455555556,-0.234259259,1,0,0,9.7888,Gabbro_rect,4,9.789,1,9,0,9,0,1,,,,,,,,,,,,,
656607db0fc2ad7c7b0948fa,TCR,2024-06-11_13h09.41.688,LearnStrategy,2023.2.3,Win32,60.24096386,1,1,11,0.005555556,0,1,0,0,0.7283,rock_grid_rect_2,2,16,-1,-1,0.728,0.428703704,-0.408333333,1,0,0,10.5564,Pumice_rect,8,10.556,0,10,0,10,0,1,,,,,,,,,,,,,
656607db0fc2ad7c7b0948fa,TCR,2024-06-11_13h09.41.688,LearnStrategy,2023.2.3,Win32,60.24096386,1,1,12,-0.008333333,0.019444444,1,0,0,0.8945,rock_grid_rect_2,5,05,-1,-1,0.895,-0.361111111,-0.37962963,1,0,0,1.9643,Obsidian_rect,5,1.964,1,11,0,11,0,1,,,,,,,,,,,,,
656607db0fc2ad7c7b0948fa,TCR,2024-06-11_13h09.41.688,LearnStrategy,2023.2.3,Win32,60.24096386,1,1,13,0.032407407,-0.003703704,1,0,0,0.661,rock_grid_rect_2,7,02,-1,-1,0.661,0.140740741,-0.22962963,1,0,0,8.2204,Diorite_rect,3,8.22,0,12,0,12,0,1,,,,,,,,,,,,,
656607db0fc2ad7c7b0948fa,TCR,2024-06-11_13h09.41.688,LearnStrategy,2023.2.3,Win32,60.24096386,1,1,14,-0.05,-0.005555556,1,0,0,0.6939,rock_grid_rect_2,3,11,-1,-1,0.694,0.176851852,-0.388888889,1,0,0,8.938,Peridotite_rect,7,8.938,0,13,0,13,0,1,,,,,,,,,,,,,
656607db0fc2ad7c7b0948fa,TCR,2024-06-11_13h09.41.688,LearnStrategy,2023.2.3,Win32,60.24096386,1,1,15,0.074074074,0.016666667,1,0,0,2.1795,rock_grid_rect_2,1,07,-1,-1,2.18,0.142592593,-0.241666667,1,0,0,14.4101,Diorite_rect,3,14.41,0,14,0,14,0,1,,,,,,,,,,,,,
656607db0fc2ad7c7b0948fa,TCR,2024-06-11_13h09.41.688,LearnStrategy,2023.2.3,Win32,60.24096386,1,1,16,0.05,0.002777778,1,0,0,1.5334,rock_grid_rect_2,8,15,-1,-1,1.533,-0.128703704,-0.262037037,1,0,0,8.5708,Basalt_rect,2,8.571,0,15,0,15,0,1,,,,,,,,,,,,,
656607db0fc2ad7c7b0948fa,TCR,2024-06-11_13h09.41.688,LearnStrategy,2023.2.3,Win32,60.24096386,1,2,1,,,,,,,,6,15,,,,,,,,,,,6,7.018,1,,,,,,-0.164814815,-0.412037037,1,0,0,7.018,Pegmatite_rect,0,0,0,0,1,
656607db0fc2ad7c7b0948fa,TCR,2024-06-11_13h09.41.688,LearnStrategy,2023.2.3,Win32,60.24096386,1,2,2,,,,,,,,1,14,,,,,,,,,,,2,4.154,0,,,,,,-0.114814815,-0.25462963,1,0,0,4.1545,Basalt_rect,1,0,1,0,1,
656607db0fc2ad7c7b0948fa,TCR,2024-06-11_13h09.41.688,LearnStrategy,2023.2.3,Win32,60.24096386,1,2,3,,,,,,,,8,09,,,,,,,,,,,8,11.312,1,,,,,,0.384259259,-0.39537037,1,0,0,11.3119,Pumice_rect,2,0,2,0,1,
656607db0fc2ad7c7b0948fa,TCR,2024-06-11_13h09.41.688,LearnStrategy,2023.2.3,Win32,60.24096386,1,2,4,,,,,,,,4,14,,,,,,,,,,,2,3.621,0,,,,,,-0.123148148,-0.260185185,1,0,0,3.6207,Basalt_rect,3,0,3,0,1,
656607db0fc2ad7c7b0948fa,TCR,2024-06-11_13h09.41.688,LearnStrategy,2023.2.3,Win32,60.24096386,1,2,5,,,,,,,,4,01,,,,,,,,,,,1,12.281,0,,,,,,-0.343518519,-0.248148148,1,0,0,12.2811,Andesite_rect,4,0,4,0,1,
656607db0fc2ad7c7b0948fa,TCR,2024-06-11_13h09.41.688,LearnStrategy,2023.2.3,Win32,60.24096386,1,2,6,,,,,,,,5,09,,,,,,,,,,,5,2.32,1,,,,,,-0.335185185,-0.391666667,1,0,0,2.3202,Obsidian_rect,5,0,5,0,1,
656607db0fc2ad7c7b0948fa,TCR,2024-06-11_13h09.41.688,LearnStrategy,2023.2.3,Win32,60.24096386,1,2,7,,,,,,,,1,02,,,,,,,,,,,8,16.651,0,,,,,,0.448148148,-0.391666667,1,0,0,16.6511,Pumice_rect,6,0,6,0,1,
656607db0fc2ad7c7b0948fa,TCR,2024-06-11_13h09.41.688,LearnStrategy,2023.2.3,Win32,60.24096386,1,2,8,,,,,,,,8,04,,,,,,,,,,,4,16.65,0,,,,,,0.424074074,-0.255555556,1,0,0,16.6504,Gabbro_rect,7,0,7,0,1,
656607db0fc2ad7c7b0948fa,TCR,2024-06-11_13h09.41.688,LearnStrategy,2023.2.3,Win32,60.24096386,1,2,9,,,,,,,,5,07,,,,,,,,,,,5,2.152,1,,,,,,-0.425,-0.411111111,1,0,0,2.1524,Obsidian_rect,8,0,8,0,1,
656607db0fc2ad7c7b0948fa,TCR,2024-06-11_13h09.41.688,LearnStrategy,2023.2.3,Win32,60.24096386,1,2,10,,,,,,,,2,11,,,,,,,,,,,2,5.741,1,,,,,,-0.138888889,-0.25,1,0,0,5.7409,Basalt_rect,9,0,9,0,1,
656607db0fc2ad7c7b0948fa,TCR,2024-06-11_13h09.41.688,LearnStrategy,2023.2.3,Win32,60.24096386,1,2,11,,,,,,,,7,08,,,,,,,,,,,7,11.429,1,,,,,,0.180555556,-0.417592593,1,0,0,11.429,Peridotite_rect,10,0,10,0,1,
656607db0fc2ad7c7b0948fa,TCR,2024-06-11_13h09.41.688,LearnStrategy,2023.2.3,Win32,60.24096386,1,2,12,,,,,,,,7,15,,,,,,,,,,,3,5.023,0,,,,,,0.153703704,-0.241666667,1,0,0,5.023,Diorite_rect,11,0,11,0,1,
656607db0fc2ad7c7b0948fa,TCR,2024-06-11_13h09.41.688,LearnStrategy,2023.2.3,Win32,60.24096386,1,2,13,,,,,,,,3,10,,,,,,,,,,,7,3.098,0,,,,,,0.150925926,-0.411111111,1,0,0,3.0982,Peridotite_rect,12,0,12,0,1,
656607db0fc2ad7c7b0948fa,TCR,2024-06-11_13h09.41.688,LearnStrategy,2023.2.3,Win32,60.24096386,1,2,14,,,,,,,,2,05,,,,,,,,,,,2,6.91,1,,,,,,-0.177777778,-0.250925926,1,0,0,6.91,Basalt_rect,13,0,13,0,1,
656607db0fc2ad7c7b0948fa,TCR,2024-06-11_13h09.41.688,LearnStrategy,2023.2.3,Win32,60.24096386,1,2,15,,,,,,,,6,03,,,,,,,,,,,7,17.519,0,,,,,,0.162037037,-0.412037037,1,0,0,17.5193,Peridotite_rect,14,0,14,0,1,
656607db0fc2ad7c7b0948fa,TCR,2024-06-11_13h09.41.688,LearnStrategy,2023.2.3,Win32,60.24096386,1,2,16,,,,,,,,3,14,,,,,,,,,,,3,4.555,1,,,,,,0.085185185,-0.241666667,1,0,0,4.5555,Diorite_rect,15,0,15,0,1,
656607db0fc2ad7c7b0948fa,TCR,2024-06-11_13h09.41.688,LearnStrategy,2023.2.3,Win32,60.24096386,2,1,1,0.111111111,0.007407407,1,0,0,1.6837,rock_grid_rect_2,8,03,-1,-1,1.684,0.402777778,-0.412037037,1,0,0,7.9036,Pumice_rect,8,7.904,1,0,0,0,0,1,,,,,,,,,,,,,
656607db0fc2ad7c7b0948fa,TCR,2024-06-11_13h09.41.688,LearnStrategy,2023.2.3,Win32,60.24096386,2,1,2,0.060185185,0.001851852,1,0,0,1.1,rock_grid_rect_2,8,14,-1,-1,1.1,0.438888889,-0.387962963,1,0,0,5.6513,Pumice_rect,8,5.651,1,1,0,1,0,1,,,,,,,,,,,,,
656607db0fc2ad7c7b0948fa,TCR,2024-06-11_13h09.41.688,LearnStrategy,2023.2.3,Win32,60.24096386,2,1,3,0.048148148,0.00462963,1,0,0,1.1768,rock_grid_rect_2,1,10,-1,-1,1.177,-0.428703704,-0.239814815,1,0,0,5.9516,Andesite_rect,1,5.952,1,2,0,2,0,1,,,,,,,,,,,,,
656607db0fc2ad7c7b0948fa,TCR,2024-06-11_13h09.41.688,LearnStrategy,2023.2.3,Win32,60.24096386,2,1,4,0.060185185,-0.007407407,1,0,0,0.7498,rock_grid_rect_2,4,05,-1,-1,0.75,0.399074074,-0.27037037,1,0,0,4.0668,Gabbro_rect,4,4.067,1,3,0,3,0,1,,,,,,,,,,,,,
656607db0fc2ad7c7b0948fa,TCR,2024-06-11_13h09.41.688,LearnStrategy,2023.2.3,Win32,60.24096386,2,1,5,0.018518519,-0.002777778,1,0,0,4.632,rock_grid_rect_2,2,16,-1,-1,4.632,-0.087037037,-0.259259259,1,0,0,3.8158,Basalt_rect,2,3.816,1,4,0,4,0,1,,,,,,,,,,,,,
656607db0fc2ad7c7b0948fa,TCR,2024-06-11_13h09.41.688,LearnStrategy,2023.2.3,Win32,60.24096386,2,1,6,0.087037037,0.005555556,1,0,0,0.9329,rock_grid_rect_2,3,15,-1,-1,0.933,0.125925926,-0.236111111,1,0,0,4.7172,Diorite_rect,3,4.717,1,5,0,5,0,1,,,,,,,,,,,,,
656607db0fc2ad7c7b0948fa,TCR,2024-06-11_13h09.41.688,LearnStrategy,2023.2.3,Win32,60.24096386,2,1,7,0.016666667,0.016666667,1,0,0,0.9662,rock_grid_rect_2,1,01,-1,-1,0.966,0.110185185,-0.407407407,1,0,0,10.6553,Peridotite_rect,7,10.655,0,6,0,6,0,1,,,,,,,,,,,,,
656607db0fc2ad7c7b0948fa,TCR,2024-06-11_13h09.41.688,LearnStrategy,2023.2.3,Win32,60.24096386,2,1,8,0.050925926,-0.00462963,1,0,0,3.1462,rock_grid_rect_2,3,16,-1,-1,3.146,0.222222222,-0.233333333,1,0,0,10.2894,Diorite_rect,3,10.289,1,7,0,7,0,1,,,,,,,,,,,,,
656607db0fc2ad7c7b0948fa,TCR,2024-06-11_13h09.41.688,LearnStrategy,2023.2.3,Win32,60.24096386,2,1,9,0.087962963,0.012962963,1,0,0,1.7794,rock_grid_rect_2,7,02,-1,-1,1.779,0.141666667,-0.412962963,1,0,0,7.0862,Peridotite_rect,7,7.086,1,8,0,8,0,1,,,,,,,,,,,,,
656607db0fc2ad7c7b0948fa,TCR,2024-06-11_13h09.41.688,LearnStrategy,2023.2.3,Win32,60.24096386,2,1,10,-0.028703704,0.024074074,1,0,0,0.9497,rock_grid_rect_2,7,10,-1,-1,0.95,0.182407407,-0.416666667,1,0,0,4.1164,Peridotite_rect,7,4.116,1,9,0,9,0,1,,,,,,,,,,,,,
656607db0fc2ad7c7b0948fa,TCR,2024-06-11_13h09.41.688,LearnStrategy,2023.2.3,Win32,60.24096386,2,1,11,0.040740741,-0.018518519,1,0,0,1.0146,rock_grid_rect_2,4,10,-1,-1,1.015,0.325,-0.252777778,1,0,0,6.3858,Gabbro_rect,4,6.386,1,10,0,10,0,1,,,,,,,,,,,,,
656607db0fc2ad7c7b0948fa,TCR,2024-06-11_13h09.41.688,LearnStrategy,2023.2.3,Win32,60.24096386,2,1,12,0.037037037,0.008333333,1,0,0,0.6494,rock_grid_rect_2,4,05,-1,-1,0.649,0.127777778,-0.40462963,1,0,0,6.7027,Peridotite_rect,7,6.703,0,11,0,11,0,1,,,,,,,,,,,,,
656607db0fc2ad7c7b0948fa,TCR,2024-06-11_13h09.41.688,LearnStrategy,2023.2.3,Win32,60.24096386,2,1,13,0.10462963,0.012037037,1,0,0,4.5656,rock_grid_rect_2,6,08,-1,-1,4.566,-0.373148148,-0.399074074,1,0,0,5.9515,Obsidian_rect,5,5.952,0,12,0,12,0,1,,,,,,,,,,,,,
656607db0fc2ad7c7b0948fa,TCR,2024-06-11_13h09.41.688,LearnStrategy,2023.2.3,Win32,60.24096386,2,1,14,0.036111111,0.005555556,1,0,0,1.8291,rock_grid_rect_2,1,16,-1,-1,1.829,-0.321296296,-0.240740741,1,0,0,6.0854,Andesite_rect,1,6.085,1,13,0,13,0,1,,,,,,,,,,,,,
656607db0fc2ad7c7b0948fa,TCR,2024-06-11_13h09.41.688,LearnStrategy,2023.2.3,Win32,60.24096386,2,1,15,0.060185185,0.009259259,1,0,0,0.7824,rock_grid_rect_2,1,01,-1,-1,0.782,-0.347222222,-0.231481481,1,0,0,4.6507,Andesite_rect,1,4.651,1,14,0,14,0,1,,,,,,,,,,,,,
656607db0fc2ad7c7b0948fa,TCR,2024-06-11_13h09.41.688,LearnStrategy,2023.2.3,Win32,60.24096386,2,1,16,0.05462963,0.015740741,1,0,0,0.6663,rock_grid_rect_2,6,09,-1,-1,0.666,-0.099074074,-0.387962963,1,0,0,7.67,Pegmatite_rect,6,7.67,1,15,0,15,0,1,,,,,,,,,,,,,
656607db0fc2ad7c7b0948fa,TCR,2024-06-11_13h09.41.688,LearnStrategy,2023.2.3,Win32,60.24096386,2,2,1,,,,,,,,2,14,,,,,,,,,,,2,12.224,1,,,,,,-0.165740741,-0.261111111,1,0,0,12.2242,Basalt_rect,0,0,0,0,1,
656607db0fc2ad7c7b0948fa,TCR,2024-06-11_13h09.41.688,LearnStrategy,2023.2.3,Win32,60.24096386,2,2,2,,,,,,,,2,06,,,,,,,,,,,2,3.466,1,,,,,,-0.15462963,-0.257407407,1,0,0,3.4655,Basalt_rect,1,0,1,0,1,
656607db0fc2ad7c7b0948fa,TCR,2024-06-11_13h09.41.688,LearnStrategy,2023.2.3,Win32,60.24096386,2,2,3,,,,,,,,3,02,,,,,,,,,,,7,5.984,0,,,,,,0.165740741,-0.400925926,1,0,0,5.9843,Peridotite_rect,2,0,2,0,1,
656607db0fc2ad7c7b0948fa,TCR,2024-06-11_13h09.41.688,LearnStrategy,2023.2.3,Win32,60.24096386,2,2,4,,,,,,,,1,04,,,,,,,,,,,8,6.919,0,,,,,,0.428703704,-0.393518519,1,0,0,6.9187,Pumice_rect,3,0,3,0,1,
656607db0fc2ad7c7b0948fa,TCR,2024-06-11_13h09.41.688,LearnStrategy,2023.2.3,Win32,60.24096386,2,2,5,,,,,,,,6,11,,,,,,,,,,,6,5.795,1,,,,,,-0.194444444,-0.412037037,1,0,0,5.7947,Pegmatite_rect,4,0,4,0,1,
656607db0fc2ad7c7b0948fa,TCR,2024-06-11_13h09.41.688,LearnStrategy,2023.2.3,Win32,60.24096386,2,2,6,,,,,,,,1,05,,,,,,,,,,,4,4.199,0,,,,,,0.434259259,-0.240740741,1,0,0,4.1991,Gabbro_rect,5,0,5,0,1,
656607db0fc2ad7c7b0948fa,TCR,2024-06-11_13h09.41.688,LearnStrategy,2023.2.3,Win32,60.24096386,2,2,7,,,,,,,,5,06,,,,,,,,,,,5,1.58,1,,,,,,-0.351851852,-0.403703704,1,0,0,1.5802,Obsidian_rect,6,0,6,0,1,
656607db0fc2ad7c7b0948fa,TCR,2024-06-11_13h09.41.688,LearnStrategy,2023.2.3,Win32,60.24096386,2,2,8,,,,,,,,3,08,,,,,,,,,,,5,10.34,0,,,,,,-0.340740741,-0.401851852,1,0,0,10.3396,Obsidian_rect,7,0,7,0,1,
656607db0fc2ad7c7b0948fa,TCR,2024-06-11_13h09.41.688,LearnStrategy,2023.2.3,Win32,60.24096386,2,2,9,,,,,,,,4,16,,,,,,,,,,,2,2.998,0,,,,,,-0.1,-0.25,1,0,0,2.9978,Basalt_rect,8,0,8,0,1,
656607db0fc2ad7c7b0948fa,TCR,2024-06-11_13h09.41.688,LearnStrategy,2023.2.3,Win32,60.24096386,2,2,10,,,,,,,,8,16,,,,,,,,,,,8,5.384,1,,,,,,0.412037037,-0.405555556,1,0,0,5.384,Pumice_rect,9,0,9,0,1,
656607db0fc2ad7c7b0948fa,TCR,2024-06-11_13h09.41.688,LearnStrategy,2023.2.3,Win32,60.24096386,2,2,11,,,,,,,,7,04,,,,,,,,,,,7,7.419,1,,,,,,0.196296296,-0.410185185,1,0,0,7.4188,Peridotite_rect,10,0,10,0,1,
656607db0fc2ad7c7b0948fa,TCR,2024-06-11_13h09.41.688,LearnStrategy,2023.2.3,Win32,60.24096386,2,2,12,,,,,,,,6,13,,,,,,,,,,,6,4.616,1,,,,,,-0.031481481,-0.412962963,1,0,0,4.6162,Pegmatite_rect,11,0,11,0,1,
656607db0fc2ad7c7b0948fa,TCR,2024-06-11_13h09.41.688,LearnStrategy,2023.2.3,Win32,60.24096386,2,2,13,,,,,,,,5,08,,,,,,,,,,,5,1.462,1,,,,,,-0.373148148,-0.382407407,1,0,0,1.4615,Obsidian_rect,12,0,12,0,1,
656607db0fc2ad7c7b0948fa,TCR,2024-06-11_13h09.41.688,LearnStrategy,2023.2.3,Win32,60.24096386,2,2,14,,,,,,,,4,13,,,,,,,,,,,3,11.741,0,,,,,,0.130555556,-0.239814815,1,0,0,11.7409,Diorite_rect,13,0,13,0,1,
656607db0fc2ad7c7b0948fa,TCR,2024-06-11_13h09.41.688,LearnStrategy,2023.2.3,Win32,60.24096386,2,2,15,,,,,,,,7,06,,,,,,,,,,,1,13.626,0,,,,,,-0.4,-0.257407407,1,0,0,13.626,Andesite_rect,14,0,14,0,1,
656607db0fc2ad7c7b0948fa,TCR,2024-06-11_13h09.41.688,LearnStrategy,2023.2.3,Win32,60.24096386,2,2,16,,,,,,,,8,13,,,,,,,,,,,8,2.245,1,,,,,,0.424074074,-0.391666667,1,0,0,2.2446,Pumice_rect,15,0,15,0,1,
656607db0fc2ad7c7b0948fa,TCR,2024-06-11_13h09.41.688,LearnStrategy,2023.2.3,Win32,60.24096386,3,1,1,0.011111111,0.005555556,1,0,0,3.4025,rock_grid_rect_2,1,01,-1,-1,3.403,-0.362037037,-0.236111111,1,0,0,1.9635,Andesite_rect,1,1.963,1,0,0,0,0,1,,,,,,,,,,,,,
656607db0fc2ad7c7b0948fa,TCR,2024-06-11_13h09.41.688,LearnStrategy,2023.2.3,Win32,60.24096386,3,1,2,-0.010185185,-0.005555556,1,0,0,0.833,rock_grid_rect_2,1,07,-1,-1,0.833,0.14537037,-0.240740741,1,0,0,4.6505,Diorite_rect,3,4.651,0,1,0,1,0,1,,,,,,,,,,,,,
656607db0fc2ad7c7b0948fa,TCR,2024-06-11_13h09.41.688,LearnStrategy,2023.2.3,Win32,60.24096386,3,1,3,0.059259259,-0.001851852,1,0,0,0.8951,rock_grid_rect_2,4,12,-1,-1,0.895,0.416666667,-0.262037037,1,0,0,6.1687,Gabbro_rect,4,6.169,1,2,0,2,0,1,,,,,,,,,,,,,
656607db0fc2ad7c7b0948fa,TCR,2024-06-11_13h09.41.688,LearnStrategy,2023.2.3,Win32,60.24096386,3,1,4,-0.003703704,0.007407407,1,0,0,0.8818,rock_grid_rect_2,3,15,-1,-1,0.882,0.078703704,-0.238888889,1,0,0,5.0678,Diorite_rect,3,5.068,1,3,0,3,0,1,,,,,,,,,,,,,
656607db0fc2ad7c7b0948fa,TCR,2024-06-11_13h09.41.688,LearnStrategy,2023.2.3,Win32,60.24096386,3,1,5,0.173148148,0.010185185,1,0,0,0.8836,rock_grid_rect_2,3,16,-1,-1,0.884,0.148148148,-0.252777778,1,0,0,3.7823,Diorite_rect,3,3.782,1,4,0,4,0,1,,,,,,,,,,,,,
656607db0fc2ad7c7b0948fa,TCR,2024-06-11_13h09.41.688,LearnStrategy,2023.2.3,Win32,60.24096386,3,1,6,0.102777778,-0.010185185,1,0,0,0.7661,rock_grid_rect_2,5,02,-1,-1,0.766,-0.375925926,-0.389814815,1,0,0,1.0967,Obsidian_rect,5,1.097,1,5,0,5,0,1,,,,,,,,,,,,,
656607db0fc2ad7c7b0948fa,TCR,2024-06-11_13h09.41.688,LearnStrategy,2023.2.3,Win32,60.24096386,3,1,7,0.1,-0.016666667,1,0,0,0.6993,rock_grid_rect_2,2,10,-1,-1,0.699,-0.113888889,-0.243518519,1,0,0,3.5995,Basalt_rect,2,3.599,1,6,0,6,0,1,,,,,,,,,,,,,
656607db0fc2ad7c7b0948fa,TCR,2024-06-11_13h09.41.688,LearnStrategy,2023.2.3,Win32,60.24096386,3,1,8,0.122222222,-0.016666667,1,0,0,0.6165,rock_grid_rect_2,3,15,-1,-1,0.616,0.123148148,-0.262037037,1,0,0,5.6175,Diorite_rect,3,5.617,1,7,0,7,0,1,,,,,,,,,,,,,
656607db0fc2ad7c7b0948fa,TCR,2024-06-11_13h09.41.688,LearnStrategy,2023.2.3,Win32,60.24096386,3,1,9,0.113888889,-0.000925926,1,0,0,0.9285,rock_grid_rect_2,1,11,-1,-1,0.928,-0.440740741,-0.257407407,1,0,0,5.8016,Andesite_rect,1,5.802,1,8,0,8,0,1,,,,,,,,,,,,,
656607db0fc2ad7c7b0948fa,TCR,2024-06-11_13h09.41.688,LearnStrategy,2023.2.3,Win32,60.24096386,3,1,10,0.04537037,-0.00462963,1,0,0,0.7829,rock_grid_rect_2,4,05,-1,-1,0.783,0.164814815,-0.387962963,1,0,0,4.2166,Peridotite_rect,7,4.217,0,9,0,9,0,1,,,,,,,,,,,,,
656607db0fc2ad7c7b0948fa,TCR,2024-06-11_13h09.41.688,LearnStrategy,2023.2.3,Win32,60.24096386,3,1,11,0.014814815,-0.010185185,1,0,0,0.895,rock_grid_rect_2,7,14,-1,-1,0.895,0.109259259,-0.244444444,1,0,0,7.9032,Diorite_rect,3,7.903,0,10,0,10,0,1,,,,,,,,,,,,,
656607db0fc2ad7c7b0948fa,TCR,2024-06-11_13h09.41.688,LearnStrategy,2023.2.3,Win32,60.24096386,3,1,12,-0.093518519,-0.001851852,1,0,0,1.5458,rock_grid_rect_2,4,11,-1,-1,1.546,0.363888889,-0.247222222,1,0,0,6.6189,Gabbro_rect,4,6.619,1,11,0,11,0,1,,,,,,,,,,,,,
656607db0fc2ad7c7b0948fa,TCR,2024-06-11_13h09.41.688,LearnStrategy,2023.2.3,Win32,60.24096386,3,1,13,0.032407407,-0.002777778,1,0,0,0.7663,rock_grid_rect_2,8,06,-1,-1,0.766,0.377777778,-0.390740741,1,0,0,1.9309,Pumice_rect,8,1.931,1,12,0,12,0,1,,,,,,,,,,,,,
656607db0fc2ad7c7b0948fa,TCR,2024-06-11_13h09.41.688,LearnStrategy,2023.2.3,Win32,60.24096386,3,1,14,0.050925926,0.011111111,1,0,0,0.6332,rock_grid_rect_2,7,02,-1,-1,0.633,0.096296296,-0.42037037,1,0,0,8.1044,Peridotite_rect,7,8.104,1,13,0,13,0,1,,,,,,,,,,,,,
656607db0fc2ad7c7b0948fa,TCR,2024-06-11_13h09.41.688,LearnStrategy,2023.2.3,Win32,60.24096386,3,1,15,0.092592593,-0.014814815,1,0,0,0.7328,rock_grid_rect_2,6,06,-1,-1,0.733,-0.098148148,-0.410185185,1,0,0,4.2331,Pegmatite_rect,6,4.233,1,14,0,14,0,1,,,,,,,,,,,,,
656607db0fc2ad7c7b0948fa,TCR,2024-06-11_13h09.41.688,LearnStrategy,2023.2.3,Win32,60.24096386,3,1,16,0.082407407,-0.010185185,1,0,0,0.7164,rock_grid_rect_2,4,12,-1,-1,0.716,0.480555556,-0.243518519,1,0,0,9.839,Gabbro_rect,4,9.839,1,15,0,15,0,1,,,,,,,,,,,,,
656607db0fc2ad7c7b0948fa,TCR,2024-06-11_13h09.41.688,LearnStrategy,2023.2.3,Win32,60.24096386,3,2,1,,,,,,,,8,08,,,,,,,,,,,8,3.751,1,,,,,,0.414814815,-0.386111111,1,0,0,3.7505,Pumice_rect,0,0,0,0,1,
656607db0fc2ad7c7b0948fa,TCR,2024-06-11_13h09.41.688,LearnStrategy,2023.2.3,Win32,60.24096386,3,2,2,,,,,,,,6,12,,,,,,,,,,,3,5.417,0,,,,,,0.200925926,-0.262962963,1,0,0,5.4171,Diorite_rect,1,0,1,0,1,
656607db0fc2ad7c7b0948fa,TCR,2024-06-11_13h09.41.688,LearnStrategy,2023.2.3,Win32,60.24096386,3,2,3,,,,,,,,5,10,,,,,,,,,,,5,1.847,1,,,,,,-0.377777778,-0.397222222,1,0,0,1.8468,Obsidian_rect,2,0,2,0,1,
656607db0fc2ad7c7b0948fa,TCR,2024-06-11_13h09.41.688,LearnStrategy,2023.2.3,Win32,60.24096386,3,2,4,,,,,,,,3,07,,,,,,,,,,,1,5.017,0,,,,,,-0.351851852,-0.240740741,1,0,0,5.017,Andesite_rect,3,0,3,0,1,
656607db0fc2ad7c7b0948fa,TCR,2024-06-11_13h09.41.688,LearnStrategy,2023.2.3,Win32,60.24096386,3,2,5,,,,,,,,4,08,,,,,,,,,,,4,2.998,1,,,,,,0.458333333,-0.249074074,1,0,0,2.9983,Gabbro_rect,4,0,4,0,1,
656607db0fc2ad7c7b0948fa,TCR,2024-06-11_13h09.41.688,LearnStrategy,2023.2.3,Win32,60.24096386,3,2,6,,,,,,,,8,10,,,,,,,,,,,8,6.852,1,,,,,,0.403703704,-0.401851852,1,0,0,6.8517,Pumice_rect,5,0,5,0,1,
656607db0fc2ad7c7b0948fa,TCR,2024-06-11_13h09.41.688,LearnStrategy,2023.2.3,Win32,60.24096386,3,2,7,,,,,,,,6,10,,,,,,,,,,,7,5.568,0,,,,,,0.112037037,-0.412962963,1,0,0,5.5675,Peridotite_rect,6,0,6,0,1,
656607db0fc2ad7c7b0948fa,TCR,2024-06-11_13h09.41.688,LearnStrategy,2023.2.3,Win32,60.24096386,3,2,8,,,,,,,,3,13,,,,,,,,,,,6,7.452,0,,,,,,-0.166666667,-0.402777778,1,0,0,7.4523,Pegmatite_rect,7,0,7,0,1,
656607db0fc2ad7c7b0948fa,TCR,2024-06-11_13h09.41.688,LearnStrategy,2023.2.3,Win32,60.24096386,3,2,9,,,,,,,,2,04,,,,,,,,,,,2,4.583,1,,,,,,-0.126851852,-0.249074074,1,0,0,4.583,Basalt_rect,8,0,8,0,1,
656607db0fc2ad7c7b0948fa,TCR,2024-06-11_13h09.41.688,LearnStrategy,2023.2.3,Win32,60.24096386,3,2,10,,,,,,,,1,03,,,,,,,,,,,1,6.652,1,,,,,,-0.373148148,-0.265740741,1,0,0,6.6516,Andesite_rect,9,0,9,0,1,
656607db0fc2ad7c7b0948fa,TCR,2024-06-11_13h09.41.688,LearnStrategy,2023.2.3,Win32,60.24096386,3,2,11,,,,,,,,7,07,,,,,,,,,,,7,4.082,1,,,,,,0.128703704,-0.4,1,0,0,4.0822,Peridotite_rect,10,0,10,0,1,
656607db0fc2ad7c7b0948fa,TCR,2024-06-11_13h09.41.688,LearnStrategy,2023.2.3,Win32,60.24096386,3,2,12,,,,,,,,2,01,,,,,,,,,,,2,2.559,1,,,,,,-0.091666667,-0.244444444,1,0,0,2.5589,Basalt_rect,11,0,11,0,1,
656607db0fc2ad7c7b0948fa,TCR,2024-06-11_13h09.41.688,LearnStrategy,2023.2.3,Win32,60.24096386,3,2,13,,,,,,,,5,04,,,,,,,,,,,5,0.929,1,,,,,,-0.369444444,-0.392592593,1,0,0,0.929,Obsidian_rect,12,0,12,0,1,
656607db0fc2ad7c7b0948fa,TCR,2024-06-11_13h09.41.688,LearnStrategy,2023.2.3,Win32,60.24096386,3,2,14,,,,,,,,4,03,,,,,,,,,,,4,4.35,1,,,,,,0.375,-0.243518519,1,0,0,4.3495,Gabbro_rect,13,0,13,0,1,
656607db0fc2ad7c7b0948fa,TCR,2024-06-11_13h09.41.688,LearnStrategy,2023.2.3,Win32,60.24096386,3,2,15,,,,,,,,7,13,,,,,,,,,,,6,18.747,0,,,,,,-0.118518519,-0.412962963,1,0,0,18.7473,Pegmatite_rect,14,0,14,0,1,
656607db0fc2ad7c7b0948fa,TCR,2024-06-11_13h09.41.688,LearnStrategy,2023.2.3,Win32,60.24096386,3,2,16,,,,,,,,1,09,,,,,,,,,,,4,6.206,0,,,,,,0.428703704,-0.253703704,1,0,0,6.2062,Gabbro_rect,15,0,15,0,1,
656607db0fc2ad7c7b0948fa,TCR,2024-06-11_13h09.41.688,LearnStrategy,2023.2.3,Win32,60.24096386,4,1,1,-0.041666667,0.013888889,1,0,0,5.5386,rock_grid_rect_2,3,09,-1,-1,5.539,0.198148148,-0.256481481,1,0,0,11.1595,Diorite_rect,3,11.159,1,0,0,0,0,1,,,,,,,,,,,,,
656607db0fc2ad7c7b0948fa,TCR,2024-06-11_13h09.41.688,LearnStrategy,2023.2.3,Win32,60.24096386,4,1,2,-0.021296296,0,1,0,0,0.8784,rock_grid_rect_2,4,09,-1,-1,0.878,0.364814815,-0.25462963,1,0,0,8.1707,Gabbro_rect,4,8.171,1,1,0,1,0,1,,,,,,,,,,,,,
656607db0fc2ad7c7b0948fa,TCR,2024-06-11_13h09.41.688,LearnStrategy,2023.2.3,Win32,60.24096386,4,1,3,-0.003703704,0.001851852,1,0,0,0.8165,rock_grid_rect_2,7,14,-1,-1,0.817,0.117592593,-0.416666667,1,0,0,6.3186,Peridotite_rect,7,6.319,1,2,0,2,0,1,,,,,,,,,,,,,
656607db0fc2ad7c7b0948fa,TCR,2024-06-11_13h09.41.688,LearnStrategy,2023.2.3,Win32,60.24096386,4,1,4,0.058333333,0.000925926,1,0,0,0.7826,rock_grid_rect_2,3,11,-1,-1,0.783,0.108333333,-0.239814815,1,0,0,2.6982,Diorite_rect,3,2.698,1,3,0,3,0,1,,,,,,,,,,,,,
656607db0fc2ad7c7b0948fa,TCR,2024-06-11_13h09.41.688,LearnStrategy,2023.2.3,Win32,60.24096386,4,1,5,-0.001851852,0.02037037,1,0,0,0.6495,rock_grid_rect_2,6,06,-1,-1,0.649,-0.062962963,-0.397222222,1,0,0,6.2186,Pegmatite_rect,6,6.219,1,4,0,4,0,1,,,,,,,,,,,,,
656607db0fc2ad7c7b0948fa,TCR,2024-06-11_13h09.41.688,LearnStrategy,2023.2.3,Win32,60.24096386,4,1,6,0.012962963,0.005555556,1,0,0,0.7664,rock_grid_rect_2,3,11,-1,-1,0.766,0.075925926,-0.265740741,1,0,0,6.302,Diorite_rect,3,6.302,1,5,0,5,0,1,,,,,,,,,,,,,
656607db0fc2ad7c7b0948fa,TCR,2024-06-11_13h09.41.688,LearnStrategy,2023.2.3,Win32,60.24096386,4,1,7,0.059259259,0.00462963,1,0,0,0.7663,rock_grid_rect_2,1,10,-1,-1,0.766,-0.359259259,-0.241666667,1,0,0,1.3972,Andesite_rect,1,1.397,1,6,0,6,0,1,,,,,,,,,,,,,
656607db0fc2ad7c7b0948fa,TCR,2024-06-11_13h09.41.688,LearnStrategy,2023.2.3,Win32,60.24096386,4,1,8,0.09537037,0.00462963,1,0,0,0.7831,rock_grid_rect_2,2,12,-1,-1,0.783,0.374074074,-0.252777778,1,0,0,2.4499,Gabbro_rect,4,2.45,0,7,0,7,0,1,,,,,,,,,,,,,
656607db0fc2ad7c7b0948fa,TCR,2024-06-11_13h09.41.688,LearnStrategy,2023.2.3,Win32,60.24096386,4,1,9,0.114814815,0.007407407,1,0,0,0.6786,rock_grid_rect_2,1,11,-1,-1,0.679,-0.164814815,-0.230555556,1,0,0,4.4663,Basalt_rect,2,4.466,0,8,0,8,0,1,,,,,,,,,,,,,
656607db0fc2ad7c7b0948fa,TCR,2024-06-11_13h09.41.688,LearnStrategy,2023.2.3,Win32,60.24096386,4,1,10,0.023148148,-0.005555556,1,0,0,0.8491,rock_grid_rect_2,4,05,-1,-1,0.849,0.357407407,-0.256481481,1,0,0,2.6318,Gabbro_rect,4,2.632,1,9,0,9,0,1,,,,,,,,,,,,,
656607db0fc2ad7c7b0948fa,TCR,2024-06-11_13h09.41.688,LearnStrategy,2023.2.3,Win32,60.24096386,4,1,11,0.053703704,0.000925926,1,0,0,0.6828,rock_grid_rect_2,7,12,-1,-1,0.683,0.47037037,-0.232407407,1,0,0,5.5169,Gabbro_rect,4,5.517,0,10,0,10,0,1,,,,,,,,,,,,,
656607db0fc2ad7c7b0948fa,TCR,2024-06-11_13h09.41.688,LearnStrategy,2023.2.3,Win32,60.24096386,4,1,12,0.028703704,-0.008333333,1,0,0,1.129,rock_grid_rect_2,3,11,-1,-1,1.129,0.092592593,-0.243518519,1,0,0,6.6859,Diorite_rect,3,6.686,1,11,0,11,0,1,,,,,,,,,,,,,
656607db0fc2ad7c7b0948fa,TCR,2024-06-11_13h09.41.688,LearnStrategy,2023.2.3,Win32,60.24096386,4,1,13,0.05462963,-0.011111111,1,0,0,0.6492,rock_grid_rect_2,6,05,-1,-1,0.649,-0.326851852,-0.412962963,1,0,0,1.5467,Obsidian_rect,5,1.547,0,12,0,12,0,1,,,,,,,,,,,,,
656607db0fc2ad7c7b0948fa,TCR,2024-06-11_13h09.41.688,LearnStrategy,2023.2.3,Win32,60.24096386,4,1,14,0.044444444,0.002777778,1,0,0,0.6618,rock_grid_rect_2,6,16,-1,-1,0.662,-0.064814815,-0.384259259,1,0,0,13.9267,Pegmatite_rect,6,13.927,1,13,0,13,0,1,,,,,,,,,,,,,
656607db0fc2ad7c7b0948fa,TCR,2024-06-11_13h09.41.688,LearnStrategy,2023.2.3,Win32,60.24096386,4,1,15,0.036111111,0.013888889,1,0,0,0.6954,rock_grid_rect_2,8,14,-1,-1,0.695,0.40462963,-0.40462963,1,0,0,4.0325,Pumice_rect,8,4.033,1,14,0,14,0,1,,,,,,,,,,,,,
656607db0fc2ad7c7b0948fa,TCR,2024-06-11_13h09.41.688,LearnStrategy,2023.2.3,Win32,60.24096386,4,1,16,0.064814815,0.003703704,1,0,0,1.0499,rock_grid_rect_2,1,01,-1,-1,1.05,-0.387037037,-0.242592593,1,0,0,4.3503,Andesite_rect,1,4.35,1,15,0,15,0,1,,,,,,,,,,,,,
656607db0fc2ad7c7b0948fa,TCR,2024-06-11_13h09.41.688,LearnStrategy,2023.2.3,Win32,60.24096386,4,2,1,,,,,,,,8,16,,,,,,,,,,,8,1.746,1,,,,,,0.382407407,-0.412962963,1,0,0,1.7464,Pumice_rect,0,0,0,0,1,
656607db0fc2ad7c7b0948fa,TCR,2024-06-11_13h09.41.688,LearnStrategy,2023.2.3,Win32,60.24096386,4,2,2,,,,,,,,3,08,,,,,,,,,,,7,9.505,0,,,,,,0.144444444,-0.413888889,1,0,0,9.5052,Peridotite_rect,1,0,1,0,1,
656607db0fc2ad7c7b0948fa,TCR,2024-06-11_13h09.41.688,LearnStrategy,2023.2.3,Win32,60.24096386,4,2,3,,,,,,,,7,04,,,,,,,,,,,7,11.022,1,,,,,,0.144444444,-0.413888889,1,0,0,11.0224,Peridotite_rect,2,0,2,0,1,
656607db0fc2ad7c7b0948fa,TCR,2024-06-11_13h09.41.688,LearnStrategy,2023.2.3,Win32,60.24096386,4,2,4,,,,,,,,1,02,,,,,,,,,,,2,12.024,0,,,,,,-0.105555556,-0.255555556,1,0,0,12.0239,Basalt_rect,3,0,3,0,1,
656607db0fc2ad7c7b0948fa,TCR,2024-06-11_13h09.41.688,LearnStrategy,2023.2.3,Win32,60.24096386,4,2,5,,,,,,,,7,15,,,,,,,,,,,7,3.326,1,,,,,,0.075925926,-0.405555556,1,0,0,3.3263,Peridotite_rect,4,0,4,0,1,
656607db0fc2ad7c7b0948fa,TCR,2024-06-11_13h09.41.688,LearnStrategy,2023.2.3,Win32,60.24096386,4,2,6,,,,,,,,6,11,,,,,,,,,,,5,2.93,0,,,,,,-0.392592593,-0.388888889,1,0,0,2.9305,Obsidian_rect,5,0,5,0,1,
656607db0fc2ad7c7b0948fa,TCR,2024-06-11_13h09.41.688,LearnStrategy,2023.2.3,Win32,60.24096386,4,2,7,,,,,,,,8,13,,,,,,,,,,,8,1.563,1,,,,,,0.392592593,-0.391666667,1,0,0,1.5632,Pumice_rect,6,0,6,0,1,
656607db0fc2ad7c7b0948fa,TCR,2024-06-11_13h09.41.688,LearnStrategy,2023.2.3,Win32,60.24096386,4,2,8,,,,,,,,1,09,,,,,,,,,,,2,3.465,0,,,,,,-0.105555556,-0.259259259,1,0,0,3.4653,Basalt_rect,7,0,7,0,1,
656607db0fc2ad7c7b0948fa,TCR,2024-06-11_13h09.41.688,LearnStrategy,2023.2.3,Win32,60.24096386,4,2,9,,,,,,,,5,10,,,,,,,,,,,5,1.046,1,,,,,,-0.400925926,-0.418518519,1,0,0,1.0457,Obsidian_rect,8,0,8,0,1,
656607db0fc2ad7c7b0948fa,TCR,2024-06-11_13h09.41.688,LearnStrategy,2023.2.3,Win32,60.24096386,4,2,10,,,,,,,,4,01,,,,,,,,,,,4,6.635,1,,,,,,0.356481481,-0.237037037,1,0,0,6.6353,Gabbro_rect,9,0,9,0,1,
656607db0fc2ad7c7b0948fa,TCR,2024-06-11_13h09.41.688,LearnStrategy,2023.2.3,Win32,60.24096386,4,2,11,,,,,,,,4,03,,,,,,,,,,,4,2.23,1,,,,,,0.356481481,-0.237037037,1,0,0,2.2304,Gabbro_rect,10,0,10,0,1,
656607db0fc2ad7c7b0948fa,TCR,2024-06-11_13h09.41.688,LearnStrategy,2023.2.3,Win32,60.24096386,4,2,12,,,,,,,,6,15,,,,,,,,,,,6,4.917,1,,,,,,-0.128703704,-0.40462963,1,0,0,4.9168,Pegmatite_rect,11,0,11,0,1,
656607db0fc2ad7c7b0948fa,TCR,2024-06-11_13h09.41.688,LearnStrategy,2023.2.3,Win32,60.24096386,4,2,13,,,,,,,,3,10,,,,,,,,,,,3,7.763,1,,,,,,0.174074074,-0.255555556,1,0,0,7.7633,Diorite_rect,12,0,12,0,1,
656607db0fc2ad7c7b0948fa,TCR,2024-06-11_13h09.41.688,LearnStrategy,2023.2.3,Win32,60.24096386,4,2,14,,,,,,,,2,06,,,,,,,,,,,2,9.271,1,,,,,,-0.123148148,-0.262037037,1,0,0,9.2706,Basalt_rect,13,0,13,0,1,
656607db0fc2ad7c7b0948fa,TCR,2024-06-11_13h09.41.688,LearnStrategy,2023.2.3,Win32,60.24096386,4,2,15,,,,,,,,5,09,,,,,,,,,,,5,1.063,1,,,,,,-0.361111111,-0.4,1,0,0,1.0627,Obsidian_rect,14,0,14,0,1,
656607db0fc2ad7c7b0948fa,TCR,2024-06-11_13h09.41.688,LearnStrategy,2023.2.3,Win32,60.24096386,4,2,16,,,,,,,,2,01,,,,,,,,,,,2,3.248,1,,,,,,-0.135185185,-0.240740741,1,0,0,3.2481,Basalt_rect,15,0,15,0,1,
656607db0fc2ad7c7b0948fa,TCR,2024-06-11_13h09.41.688,LearnStrategy,2023.2.3,Win32,60.24096386,5,1,1,0.084259259,0.014814815,1,0,0,1.0332,rock_grid_rect_2,3,16,-1,-1,1.033,-0.359259259,-0.264814815,1,0,0,5.8857,Andesite_rect,1,5.886,0,0,0,0,0,1,,,,,,,,,,,,,
656607db0fc2ad7c7b0948fa,TCR,2024-06-11_13h09.41.688,LearnStrategy,2023.2.3,Win32,60.24096386,5,1,2,0.057407407,-0.001851852,1,0,0,0.8955,rock_grid_rect_2,5,02,-1,-1,0.896,-0.375925926,-0.39537037,1,0,0,1.0635,Obsidian_rect,5,1.063,1,1,0,1,0,1,,,,,,,,,,,,,
656607db0fc2ad7c7b0948fa,TCR,2024-06-11_13h09.41.688,LearnStrategy,2023.2.3,Win32,60.24096386,5,1,3,0.041666667,-0.011111111,1,0,0,0.4828,rock_grid_rect_2,6,07,-1,-1,0.483,-0.091666667,-0.394444444,1,0,0,4.8176,Pegmatite_rect,6,4.818,1,2,0,2,0,1,,,,,,,,,,,,,
656607db0fc2ad7c7b0948fa,TCR,2024-06-11_13h09.41.688,LearnStrategy,2023.2.3,Win32,60.24096386,5,1,4,0.02037037,-0.012037037,1,0,0,0.7163,rock_grid_rect_2,3,15,-1,-1,0.716,0.133333333,-0.237962963,1,0,0,4.0999,Diorite_rect,3,4.1,1,3,0,3,0,1,,,,,,,,,,,,,
656607db0fc2ad7c7b0948fa,TCR,2024-06-11_13h09.41.688,LearnStrategy,2023.2.3,Win32,60.24096386,5,1,5,0.032407407,-0.011111111,1,0,0,0.7329,rock_grid_rect_2,6,08,-1,-1,0.733,-0.372222222,-0.386111111,1,0,0,2.0643,Obsidian_rect,5,2.064,0,4,0,4,0,1,,,,,,,,,,,,,
656607db0fc2ad7c7b0948fa,TCR,2024-06-11_13h09.41.688,LearnStrategy,2023.2.3,Win32,60.24096386,5,1,6,0.059259259,-0.003703704,1,0,0,0.7328,rock_grid_rect_2,1,06,-1,-1,0.733,0.422222222,-0.251851852,1,0,0,3.2656,Gabbro_rect,4,3.266,0,5,0,5,0,1,,,,,,,,,,,,,
656607db0fc2ad7c7b0948fa,TCR,2024-06-11_13h09.41.688,LearnStrategy,2023.2.3,Win32,60.24096386,5,1,7,0.044444444,0.022222222,1,0,0,0.6828,rock_grid_rect_2,8,05,-1,-1,0.683,0.376851852,-0.393518519,1,0,0,1.2302,Pumice_rect,8,1.23,1,6,0,6,0,1,,,,,,,,,,,,,
656607db0fc2ad7c7b0948fa,TCR,2024-06-11_13h09.41.688,LearnStrategy,2023.2.3,Win32,60.24096386,5,1,8,0.037962963,-0.010185185,1,0,0,0.6332,rock_grid_rect_2,2,10,-1,-1,0.633,-0.131481481,-0.240740741,1,0,0,1.8642,Basalt_rect,2,1.864,1,7,0,7,0,1,,,,,,,,,,,,,
656607db0fc2ad7c7b0948fa,TCR,2024-06-11_13h09.41.688,LearnStrategy,2023.2.3,Win32,60.24096386,5,1,9,0.023148148,0.022222222,1,0,0,0.432,rock_grid_rect_2,4,15,-1,-1,0.432,-0.134259259,-0.414814815,1,0,0,3.4671,Pegmatite_rect,6,3.467,0,8,0,8,0,1,,,,,,,,,,,,,
656607db0fc2ad7c7b0948fa,TCR,2024-06-11_13h09.41.688,LearnStrategy,2023.2.3,Win32,60.24096386,5,1,10,0.037962963,0.012037037,1,0,0,0.7659,rock_grid_rect_2,4,09,-1,-1,0.766,0.411111111,-0.25462963,1,0,0,7.0859,Gabbro_rect,4,7.086,1,9,0,9,0,1,,,,,,,,,,,,,
656607db0fc2ad7c7b0948fa,TCR,2024-06-11_13h09.41.688,LearnStrategy,2023.2.3,Win32,60.24096386,5,1,11,0.041666667,-0.016666667,1,0,0,0.5822,rock_grid_rect_2,3,06,-1,-1,0.582,0.153703704,-0.256481481,1,0,0,4.1166,Diorite_rect,3,4.117,1,10,0,10,0,1,,,,,,,,,,,,,
656607db0fc2ad7c7b0948fa,TCR,2024-06-11_13h09.41.688,LearnStrategy,2023.2.3,Win32,60.24096386,5,1,12,0.014814815,-0.025,1,0,0,0.6161,rock_grid_rect_2,7,16,-1,-1,0.616,0.124074074,-0.389814815,1,0,0,6.4356,Peridotite_rect,7,6.436,1,11,0,11,0,1,,,,,,,,,,,,,
656607db0fc2ad7c7b0948fa,TCR,2024-06-11_13h09.41.688,LearnStrategy,2023.2.3,Win32,60.24096386,5,1,13,0.047222222,-0.021296296,1,0,0,0.8159,rock_grid_rect_2,6,06,-1,-1,0.816,-0.149074074,-0.415740741,1,0,0,3.5994,Pegmatite_rect,6,3.599,1,12,0,12,0,1,,,,,,,,,,,,,
656607db0fc2ad7c7b0948fa,TCR,2024-06-11_13h09.41.688,LearnStrategy,2023.2.3,Win32,60.24096386,5,1,14,0.037962963,0.012962963,1,0,0,0.5828,rock_grid_rect_2,1,10,-1,-1,0.583,-0.385185185,-0.240740741,1,0,0,1.4637,Andesite_rect,1,1.464,1,13,0,13,0,1,,,,,,,,,,,,,
656607db0fc2ad7c7b0948fa,TCR,2024-06-11_13h09.41.688,LearnStrategy,2023.2.3,Win32,60.24096386,5,1,15,0.076851852,-0.017592593,1,0,0,0.5826,rock_grid_rect_2,1,06,-1,-1,0.583,-0.411111111,-0.231481481,1,0,0,3.7327,Andesite_rect,1,3.733,1,14,0,14,0,1,,,,,,,,,,,,,
656607db0fc2ad7c7b0948fa,TCR,2024-06-11_13h09.41.688,LearnStrategy,2023.2.3,Win32,60.24096386,5,1,16,0.012037037,0.006481481,1,0,0,1.1284,rock_grid_rect_2,7,14,-1,-1,1.128,0.110185185,-0.397222222,1,0,0,4.5671,Peridotite_rect,7,4.567,1,15,0,15,0,1,,,,,,,,,,,,,
656607db0fc2ad7c7b0948fa,TCR,2024-06-11_13h09.41.688,LearnStrategy,2023.2.3,Win32,60.24096386,5,2,1,,,,,,,,1,05,,,,,,,,,,,1,6.152,1,,,,,,-0.408333333,-0.256481481,1,0,0,6.1518,Andesite_rect,0,0,0,0,1,
656607db0fc2ad7c7b0948fa,TCR,2024-06-11_13h09.41.688,LearnStrategy,2023.2.3,Win32,60.24096386,5,2,2,,,,,,,,4,16,,,,,,,,,,,2,13.417,0,,,,,,-0.097222222,-0.237037037,1,0,0,13.4174,Basalt_rect,1,0,1,0,1,
656607db0fc2ad7c7b0948fa,TCR,2024-06-11_13h09.41.688,LearnStrategy,2023.2.3,Win32,60.24096386,5,2,3,,,,,,,,2,04,,,,,,,,,,,2,2.204,1,,,,,,-0.097222222,-0.237037037,1,0,0,2.2035,Basalt_rect,2,0,2,0,1,
656607db0fc2ad7c7b0948fa,TCR,2024-06-11_13h09.41.688,LearnStrategy,2023.2.3,Win32,60.24096386,5,2,4,,,,,,,,4,14,,,,,,,,,,,4,11.931,1,,,,,,0.363888889,-0.235185185,1,0,0,11.9306,Gabbro_rect,3,0,3,0,1,
656607db0fc2ad7c7b0948fa,TCR,2024-06-11_13h09.41.688,LearnStrategy,2023.2.3,Win32,60.24096386,5,2,5,,,,,,,,8,09,,,,,,,,,,,8,3.154,1,,,,,,0.447222222,-0.412037037,1,0,0,3.1535,Pumice_rect,4,0,4,0,1,
656607db0fc2ad7c7b0948fa,TCR,2024-06-11_13h09.41.688,LearnStrategy,2023.2.3,Win32,60.24096386,5,2,6,,,,,,,,2,14,,,,,,,,,,,8,1.302,0,,,,,,0.447222222,-0.412037037,1,0,0,1.3017,Pumice_rect,5,0,5,0,1,
656607db0fc2ad7c7b0948fa,TCR,2024-06-11_13h09.41.688,LearnStrategy,2023.2.3,Win32,60.24096386,5,2,7,,,,,,,,8,04,,,,,,,,,,,8,1.069,1,,,,,,0.447222222,-0.412037037,1,0,0,1.0689,Pumice_rect,6,0,6,0,1,
656607db0fc2ad7c7b0948fa,TCR,2024-06-11_13h09.41.688,LearnStrategy,2023.2.3,Win32,60.24096386,5,2,8,,,,,,,,5,08,,,,,,,,,,,5,1.136,1,,,,,,-0.477777778,-0.394444444,1,0,0,1.1359,Obsidian_rect,7,0,7,0,1,
656607db0fc2ad7c7b0948fa,TCR,2024-06-11_13h09.41.688,LearnStrategy,2023.2.3,Win32,60.24096386,5,2,9,,,,,,,,3,07,,,,,,,,,,,3,6.841,1,,,,,,0.171296296,-0.263888889,1,0,0,6.8407,Diorite_rect,8,0,8,0,1,
656607db0fc2ad7c7b0948fa,TCR,2024-06-11_13h09.41.688,LearnStrategy,2023.2.3,Win32,60.24096386,5,2,10,,,,,,,,5,06,,,,,,,,,,,5,1.603,1,,,,,,-0.377777778,-0.396296296,1,0,0,1.6033,Obsidian_rect,9,0,9,0,1,
656607db0fc2ad7c7b0948fa,TCR,2024-06-11_13h09.41.688,LearnStrategy,2023.2.3,Win32,60.24096386,5,2,11,,,,,,,,7,06,,,,,,,,,,,7,5.59,1,,,,,,0.106481481,-0.393518519,1,0,0,5.5904,Peridotite_rect,10,0,10,0,1,
656607db0fc2ad7c7b0948fa,TCR,2024-06-11_13h09.41.688,LearnStrategy,2023.2.3,Win32,60.24096386,5,2,12,,,,,,,,6,13,,,,,,,,,,,6,3.521,1,,,,,,-0.124074074,-0.39537037,1,0,0,3.5215,Pegmatite_rect,11,0,11,0,1,
656607db0fc2ad7c7b0948fa,TCR,2024-06-11_13h09.41.688,LearnStrategy,2023.2.3,Win32,60.24096386,5,2,13,,,,,,,,1,14,,,,,,,,,,,4,12.963,0,,,,,,0.375925926,-0.242592593,1,0,0,12.9626,Gabbro_rect,12,0,12,0,1,
656607db0fc2ad7c7b0948fa,TCR,2024-06-11_13h09.41.688,LearnStrategy,2023.2.3,Win32,60.24096386,5,2,14,,,,,,,,7,08,,,,,,,,,,,7,11.156,1,,,,,,0.080555556,-0.410185185,1,0,0,11.1563,Peridotite_rect,13,0,13,0,1,
656607db0fc2ad7c7b0948fa,TCR,2024-06-11_13h09.41.688,LearnStrategy,2023.2.3,Win32,60.24096386,5,2,15,,,,,,,,6,10,,,,,,,,,,,6,7.392,1,,,,,,-0.121296296,-0.418518519,1,0,0,7.3918,Pegmatite_rect,14,0,14,0,1,
656607db0fc2ad7c7b0948fa,TCR,2024-06-11_13h09.41.688,LearnStrategy,2023.2.3,Win32,60.24096386,5,2,16,,,,,,,,3,14,,,,,,,,,,,3,6.024,1,,,,,,0.125,-0.268518519,1,0,0,6.0244,Diorite_rect,15,0,15,0,1,
656607db0fc2ad7c7b0948fa,TCR,2024-06-11_13h09.41.688,LearnStrategy,2023.2.3,Win32,60.24096386,6,1,1,0.025925926,0.019444444,1,0,0,0.9656,rock_grid_rect_2,6,09,-1,-1,0.966,0.133333333,-0.409259259,1,0,0,8.7206,Peridotite_rect,7,8.721,0,0,0,0,0,1,,,,,,,,,,,,,
656607db0fc2ad7c7b0948fa,TCR,2024-06-11_13h09.41.688,LearnStrategy,2023.2.3,Win32,60.24096386,6,1,2,-0.016666667,0.003703704,1,0,0,0.8995,rock_grid_rect_2,1,16,-1,-1,0.899,0.394444444,-0.235185185,1,0,0,5.3007,Gabbro_rect,4,5.301,0,1,0,1,0,1,,,,,,,,,,,,,
656607db0fc2ad7c7b0948fa,TCR,2024-06-11_13h09.41.688,LearnStrategy,2023.2.3,Win32,60.24096386,6,1,3,0.112037037,0.010185185,1,0,0,0.666,rock_grid_rect_2,3,11,-1,-1,0.666,0.143518519,-0.234259259,1,0,0,1.8976,Diorite_rect,3,1.898,1,2,0,2,0,1,,,,,,,,,,,,,
656607db0fc2ad7c7b0948fa,TCR,2024-06-11_13h09.41.688,LearnStrategy,2023.2.3,Win32,60.24096386,6,1,4,0.07037037,0.010185185,1,0,0,0.6994,rock_grid_rect_2,7,16,-1,-1,0.699,0.10462963,-0.392592593,1,0,0,5.5018,Peridotite_rect,7,5.502,1,3,0,3,0,1,,,,,,,,,,,,,
656607db0fc2ad7c7b0948fa,TCR,2024-06-11_13h09.41.688,LearnStrategy,2023.2.3,Win32,60.24096386,6,1,5,0.097222222,-0.00462963,1,0,0,0.8334,rock_grid_rect_2,4,12,-1,-1,0.833,-0.137962963,-0.257407407,1,0,0,2.1478,Basalt_rect,2,2.148,0,4,0,4,0,1,,,,,,,,,,,,,
656607db0fc2ad7c7b0948fa,TCR,2024-06-11_13h09.41.688,LearnStrategy,2023.2.3,Win32,60.24096386,6,1,6,0.061111111,0.005555556,1,0,0,0.8329,rock_grid_rect_2,1,06,-1,-1,0.833,-0.339814815,-0.262037037,1,0,0,1.2135,Andesite_rect,1,1.214,1,5,0,5,0,1,,,,,,,,,,,,,
656607db0fc2ad7c7b0948fa,TCR,2024-06-11_13h09.41.688,LearnStrategy,2023.2.3,Win32,60.24096386,6,1,7,0.060185185,-0.000925926,1,0,0,0.7338,rock_grid_rect_2,1,07,-1,-1,0.734,-0.361111111,-0.257407407,1,0,0,10.7386,Andesite_rect,1,10.739,1,6,0,6,0,1,,,,,,,,,,,,,
656607db0fc2ad7c7b0948fa,TCR,2024-06-11_13h09.41.688,LearnStrategy,2023.2.3,Win32,60.24096386,6,1,8,0.137037037,-0.008333333,1,0,0,2.0343,rock_grid_rect_2,3,09,-1,-1,2.034,0.144444444,-0.248148148,1,0,0,3.9492,Diorite_rect,3,3.949,1,7,0,7,0,1,,,,,,,,,,,,,
656607db0fc2ad7c7b0948fa,TCR,2024-06-11_13h09.41.688,LearnStrategy,2023.2.3,Win32,60.24096386,6,1,9,0.031481481,-0.016666667,1,0,0,0.5826,rock_grid_rect_2,5,02,-1,-1,0.583,-0.371296296,-0.401851852,1,0,0,1.0135,Obsidian_rect,5,1.014,1,8,0,8,0,1,,,,,,,,,,,,,
656607db0fc2ad7c7b0948fa,TCR,2024-06-11_13h09.41.688,LearnStrategy,2023.2.3,Win32,60.24096386,6,1,10,0.053703704,0.005555556,1,0,0,0.5331,rock_grid_rect_2,8,02,-1,-1,0.533,0.393518519,-0.383333333,1,0,0,1.1637,Pumice_rect,8,1.164,1,9,0,9,0,1,,,,,,,,,,,,,
656607db0fc2ad7c7b0948fa,TCR,2024-06-11_13h09.41.688,LearnStrategy,2023.2.3,Win32,60.24096386,6,1,11,0.040740741,0.013888889,1,0,0,0.5163,rock_grid_rect_2,2,16,-1,-1,0.516,-0.157407407,-0.259259259,1,0,0,5.4178,Basalt_rect,2,5.418,1,10,0,10,0,1,,,,,,,,,,,,,
656607db0fc2ad7c7b0948fa,TCR,2024-06-11_13h09.41.688,LearnStrategy,2023.2.3,Win32,60.24096386,6,1,12,0.022222222,-0.023148148,1,0,0,0.5,rock_grid_rect_2,6,06,-1,-1,0.5,-0.081481481,-0.402777778,1,0,0,2.4306,Pegmatite_rect,6,2.431,1,11,0,11,0,1,,,,,,,,,,,,,
656607db0fc2ad7c7b0948fa,TCR,2024-06-11_13h09.41.688,LearnStrategy,2023.2.3,Win32,60.24096386,6,1,13,0.009259259,-0.012037037,1,0,0,0.466,rock_grid_rect_2,4,12,-1,-1,0.466,0.450925926,-0.262037037,1,0,0,1.5473,Gabbro_rect,4,1.547,1,12,0,12,0,1,,,,,,,,,,,,,
656607db0fc2ad7c7b0948fa,TCR,2024-06-11_13h09.41.688,LearnStrategy,2023.2.3,Win32,60.24096386,6,1,14,0.036111111,0.001851852,1,0,0,0.4662,rock_grid_rect_2,3,12,-1,-1,0.466,0.140740741,-0.247222222,1,0,0,3.6827,Diorite_rect,3,3.683,1,13,0,13,0,1,,,,,,,,,,,,,
656607db0fc2ad7c7b0948fa,TCR,2024-06-11_13h09.41.688,LearnStrategy,2023.2.3,Win32,60.24096386,6,1,15,0.011111111,0.000925926,1,0,0,0.4488,rock_grid_rect_2,2,09,-1,-1,0.449,-0.092592593,-0.246296296,1,0,0,1.4638,Basalt_rect,2,1.464,1,14,0,14,0,1,,,,,,,,,,,,,
656607db0fc2ad7c7b0948fa,TCR,2024-06-11_13h09.41.688,LearnStrategy,2023.2.3,Win32,60.24096386,6,1,16,0.073148148,-0.000925926,1,0,0,0.5831,rock_grid_rect_2,1,10,-1,-1,0.583,-0.353703704,-0.247222222,1,0,0,1.0972,Andesite_rect,1,1.097,1,15,0,15,0,1,,,,,,,,,,,,,
656607db0fc2ad7c7b0948fa,TCR,2024-06-11_13h09.41.688,LearnStrategy,2023.2.3,Win32,60.24096386,6,2,1,,,,,,,,1,04,,,,,,,,,,,8,18.798,0,,,,,,0.413888889,-0.4,1,0,0,18.7978,Pumice_rect,0,0,0,0,1,
656607db0fc2ad7c7b0948fa,TCR,2024-06-11_13h09.41.688,LearnStrategy,2023.2.3,Win32,60.24096386,6,2,2,,,,,,,,8,08,,,,,,,,,,,8,0.863,1,,,,,,0.413888889,-0.4,1,0,0,0.8632,Pumice_rect,1,0,1,0,1,
656607db0fc2ad7c7b0948fa,TCR,2024-06-11_13h09.41.688,LearnStrategy,2023.2.3,Win32,60.24096386,6,2,3,,,,,,,,8,10,,,,,,,,,,,8,3.242,1,,,,,,0.413888889,-0.397222222,1,0,0,3.242,Pumice_rect,2,0,2,0,1,
656607db0fc2ad7c7b0948fa,TCR,2024-06-11_13h09.41.688,LearnStrategy,2023.2.3,Win32,60.24096386,6,2,4,,,,,,,,4,13,,,,,,,,,,,1,11.874,0,,,,,,-0.366666667,-0.244444444,1,0,0,11.8739,Andesite_rect,3,0,3,0,1,
656607db0fc2ad7c7b0948fa,TCR,2024-06-11_13h09.41.688,LearnStrategy,2023.2.3,Win32,60.24096386,6,2,5,,,,,,,,2,05,,,,,,,,,,,2,3.532,1,,,,,,-0.113888889,-0.261111111,1,0,0,3.5319,Basalt_rect,4,0,4,0,1,
656607db0fc2ad7c7b0948fa,TCR,2024-06-11_13h09.41.688,LearnStrategy,2023.2.3,Win32,60.24096386,6,2,6,,,,,,,,3,02,,,,,,,,,,,1,6.869,0,,,,,,-0.352777778,-0.256481481,1,0,0,6.8692,Andesite_rect,5,0,5,0,1,
656607db0fc2ad7c7b0948fa,TCR,2024-06-11_13h09.41.688,LearnStrategy,2023.2.3,Win32,60.24096386,6,2,7,,,,,,,,1,03,,,,,,,,,,,2,3.632,0,,,,,,-0.126851852,-0.236111111,1,0,0,3.6323,Basalt_rect,6,0,6,0,1,
656607db0fc2ad7c7b0948fa,TCR,2024-06-11_13h09.41.688,LearnStrategy,2023.2.3,Win32,60.24096386,6,2,8,,,,,,,,2,11,,,,,,,,,,,2,2.348,1,,,,,,-0.126851852,-0.237037037,1,0,0,2.3475,Basalt_rect,7,0,7,0,1,
656607db0fc2ad7c7b0948fa,TCR,2024-06-11_13h09.41.688,LearnStrategy,2023.2.3,Win32,60.24096386,6,2,9,,,,,,,,6,03,,,,,,,,,,,6,3.199,1,,,,,,-0.099074074,-0.402777778,1,0,0,3.1986,Pegmatite_rect,8,0,8,0,1,
656607db0fc2ad7c7b0948fa,TCR,2024-06-11_13h09.41.688,LearnStrategy,2023.2.3,Win32,60.24096386,6,2,10,,,,,,,,5,07,,,,,,,,,,,5,1.03,1,,,,,,-0.367592593,-0.40462963,1,0,0,1.0298,Obsidian_rect,9,0,9,0,1,
656607db0fc2ad7c7b0948fa,TCR,2024-06-11_13h09.41.688,LearnStrategy,2023.2.3,Win32,60.24096386,6,2,11,,,,,,,,5,04,,,,,,,,,,,5,0.629,1,,,,,,-0.367592593,-0.40462963,1,0,0,0.629,Obsidian_rect,10,0,10,0,1,
656607db0fc2ad7c7b0948fa,TCR,2024-06-11_13h09.41.688,LearnStrategy,2023.2.3,Win32,60.24096386,6,2,12,,,,,,,,6,12,,,,,,,,,,,3,7.403,0,,,,,,0.124074074,-0.235185185,1,0,0,7.4031,Diorite_rect,11,0,11,0,1,
656607db0fc2ad7c7b0948fa,TCR,2024-06-11_13h09.41.688,LearnStrategy,2023.2.3,Win32,60.24096386,6,2,13,,,,,,,,7,07,,,,,,,,,,,7,6.152,1,,,,,,0.087037037,-0.389814815,1,0,0,6.1524,Peridotite_rect,12,0,12,0,1,
656607db0fc2ad7c7b0948fa,TCR,2024-06-11_13h09.41.688,LearnStrategy,2023.2.3,Win32,60.24096386,6,2,14,,,,,,,,3,13,,,,,,,,,,,3,3.582,1,,,,,,0.097222222,-0.256481481,1,0,0,3.5815,Diorite_rect,13,0,13,0,1,
656607db0fc2ad7c7b0948fa,TCR,2024-06-11_13h09.41.688,LearnStrategy,2023.2.3,Win32,60.24096386,6,2,15,,,,,,,,4,08,,,,,,,,,,,1,3.182,0,,,,,,-0.352777778,-0.253703704,1,0,0,3.1817,Andesite_rect,14,0,14,0,1,
656607db0fc2ad7c7b0948fa,TCR,2024-06-11_13h09.41.688,LearnStrategy,2023.2.3,Win32,60.24096386,6,2,16,,,,,,,,7,13,,,,,,,,,,,3,2.398,0,,,,,,0.109259259,-0.255555556,1,0,0,2.3976,Diorite_rect,15,0,15,0,1,
656607db0fc2ad7c7b0948fa,TCR,2024-06-11_13h09.41.688,LearnStrategy,2023.2.3,Win32,60.24096386,7,1,1,0.130555556,-0.017592593,1,0,0,1.7668,rock_grid_rect_2,4,10,-1,-1,1.767,0.365740741,-0.235185185,1,0,0,4.0833,Gabbro_rect,4,4.083,1,0,0,0,0,1,,,,,,,,,,,,,
656607db0fc2ad7c7b0948fa,TCR,2024-06-11_13h09.41.688,LearnStrategy,2023.2.3,Win32,60.24096386,7,1,2,0.025,0.012037037,1,0,0,0.8162,rock_grid_rect_2,3,09,-1,-1,0.816,0.143518519,-0.250925926,1,0,0,2.2812,Diorite_rect,3,2.281,1,1,0,1,0,1,,,,,,,,,,,,,
656607db0fc2ad7c7b0948fa,TCR,2024-06-11_13h09.41.688,LearnStrategy,2023.2.3,Win32,60.24096386,7,1,3,0.094444444,0.001851852,1,0,0,0.5327,rock_grid_rect_2,1,11,-1,-1,0.533,-0.096296296,-0.236111111,1,0,0,2.6316,Basalt_rect,2,2.632,0,2,0,2,0,1,,,,,,,,,,,,,
656607db0fc2ad7c7b0948fa,TCR,2024-06-11_13h09.41.688,LearnStrategy,2023.2.3,Win32,60.24096386,7,1,4,0.057407407,-0.012037037,1,0,0,0.6163,rock_grid_rect_2,8,14,-1,-1,0.616,0.357407407,-0.403703704,1,0,0,1.3138,Pumice_rect,8,1.314,1,3,0,3,0,1,,,,,,,,,,,,,
656607db0fc2ad7c7b0948fa,TCR,2024-06-11_13h09.41.688,LearnStrategy,2023.2.3,Win32,60.24096386,7,1,5,0.05462963,0.000925926,1,0,0,0.5495,rock_grid_rect_2,7,14,-1,-1,0.55,0.108333333,-0.400925926,1,0,0,3.299,Peridotite_rect,7,3.299,1,4,0,4,0,1,,,,,,,,,,,,,
656607db0fc2ad7c7b0948fa,TCR,2024-06-11_13h09.41.688,LearnStrategy,2023.2.3,Win32,60.24096386,7,1,6,0.072222222,0.00462963,1,0,0,0.5489,rock_grid_rect_2,7,14,-1,-1,0.549,0.107407407,-0.4,1,0,0,1.0802,Peridotite_rect,7,1.08,1,5,0,5,0,1,,,,,,,,,,,,,
656607db0fc2ad7c7b0948fa,TCR,2024-06-11_13h09.41.688,LearnStrategy,2023.2.3,Win32,60.24096386,7,1,7,0.121296296,-0.00462963,1,0,0,0.4162,rock_grid_rect_2,6,16,-1,-1,0.416,-0.127777778,-0.406481481,1,0,0,2.6151,Pegmatite_rect,6,2.615,1,6,0,6,0,1,,,,,,,,,,,,,
656607db0fc2ad7c7b0948fa,TCR,2024-06-11_13h09.41.688,LearnStrategy,2023.2.3,Win32,60.24096386,7,1,8,0.037962963,-0.007407407,1,0,0,0.5491,rock_grid_rect_2,2,16,-1,-1,0.549,-0.103703704,-0.24537037,1,0,0,0.93,Basalt_rect,2,0.93,1,7,0,7,0,1,,,,,,,,,,,,,
656607db0fc2ad7c7b0948fa,TCR,2024-06-11_13h09.41.688,LearnStrategy,2023.2.3,Win32,60.24096386,7,1,9,0.028703704,0.006481481,1,0,0,0.4661,rock_grid_rect_2,4,09,-1,-1,0.466,-0.363888889,-0.246296296,1,0,0,5.5841,Andesite_rect,1,5.584,0,8,0,8,0,1,,,,,,,,,,,,,
656607db0fc2ad7c7b0948fa,TCR,2024-06-11_13h09.41.688,LearnStrategy,2023.2.3,Win32,60.24096386,7,1,10,0.017592593,0.008333333,1,0,0,0.832,rock_grid_rect_2,5,11,-1,-1,0.832,-0.407407407,-0.414814815,1,0,0,1.1136,Obsidian_rect,5,1.114,1,9,0,9,0,1,,,,,,,,,,,,,
656607db0fc2ad7c7b0948fa,TCR,2024-06-11_13h09.41.688,LearnStrategy,2023.2.3,Win32,60.24096386,7,1,11,0.060185185,0.002777778,1,0,0,0.5331,rock_grid_rect_2,3,12,-1,-1,0.533,0.100925926,-0.24537037,1,0,0,5.0509,Diorite_rect,3,5.051,1,10,0,10,0,1,,,,,,,,,,,,,
656607db0fc2ad7c7b0948fa,TCR,2024-06-11_13h09.41.688,LearnStrategy,2023.2.3,Win32,60.24096386,7,1,12,0.068518519,0.010185185,1,0,0,0.5158,rock_grid_rect_2,3,15,-1,-1,0.516,0.149074074,-0.231481481,1,0,0,3.599,Diorite_rect,3,3.599,1,11,0,11,0,1,,,,,,,,,,,,,
656607db0fc2ad7c7b0948fa,TCR,2024-06-11_13h09.41.688,LearnStrategy,2023.2.3,Win32,60.24096386,7,1,13,0.035185185,-0.017592593,1,0,0,0.5161,rock_grid_rect_2,6,09,-1,-1,0.516,0.100925926,-0.390740741,1,0,0,2.3982,Peridotite_rect,7,2.398,0,12,0,12,0,1,,,,,,,,,,,,,
656607db0fc2ad7c7b0948fa,TCR,2024-06-11_13h09.41.688,LearnStrategy,2023.2.3,Win32,60.24096386,7,1,14,0.021296296,0.000925926,1,0,0,0.9435,rock_grid_rect_2,4,15,-1,-1,0.944,-0.156481481,-0.25,1,0,0,11.0233,Basalt_rect,2,11.023,0,13,0,13,0,1,,,,,,,,,,,,,
656607db0fc2ad7c7b0948fa,TCR,2024-06-11_13h09.41.688,LearnStrategy,2023.2.3,Win32,60.24096386,7,1,15,0.022222222,-0.010185185,1,0,0,0.912,rock_grid_rect_2,1,06,-1,-1,0.912,0.431481481,-0.252777778,1,0,0,2.4477,Gabbro_rect,4,2.448,0,14,0,14,0,1,,,,,,,,,,,,,
656607db0fc2ad7c7b0948fa,TCR,2024-06-11_13h09.41.688,LearnStrategy,2023.2.3,Win32,60.24096386,7,1,16,0.052777778,0.021296296,1,0,0,0.5155,rock_grid_rect_2,1,16,-1,-1,0.515,-0.352777778,-0.251851852,1,0,0,2.167,Andesite_rect,1,2.167,1,15,0,15,0,1,,,,,,,,,,,,,
656607db0fc2ad7c7b0948fa,TCR,2024-06-11_13h09.41.688,LearnStrategy,2023.2.3,Win32,60.24096386,7,2,1,,,,,,,,2,05,,,,,,,,,,,2,9.572,1,,,,,,-0.094444444,-0.251851852,1,0,0,9.5719,Basalt_rect,0,0,0,0,1,
656607db0fc2ad7c7b0948fa,TCR,2024-06-11_13h09.41.688,LearnStrategy,2023.2.3,Win32,60.24096386,7,2,2,,,,,,,,5,09,,,,,,,,,,,5,0.996,1,,,,,,-0.337962963,-0.42037037,1,0,0,0.9958,Obsidian_rect,1,0,1,0,1,
656607db0fc2ad7c7b0948fa,TCR,2024-06-11_13h09.41.688,LearnStrategy,2023.2.3,Win32,60.24096386,7,2,3,,,,,,,,2,14,,,,,,,,,,,8,1.877,0,,,,,,0.376851852,-0.403703704,1,0,0,1.8769,Pumice_rect,2,0,2,0,1,
656607db0fc2ad7c7b0948fa,TCR,2024-06-11_13h09.41.688,LearnStrategy,2023.2.3,Win32,60.24096386,7,2,4,,,,,,,,7,04,,,,,,,,,,,1,13.492,0,,,,,,-0.369444444,-0.228703704,1,0,0,13.4918,Andesite_rect,3,0,3,0,1,
656607db0fc2ad7c7b0948fa,TCR,2024-06-11_13h09.41.688,LearnStrategy,2023.2.3,Win32,60.24096386,7,2,5,,,,,,,,4,13,,,,,,,,,,,4,6.751,1,,,,,,0.412037037,-0.246296296,1,0,0,6.7515,Gabbro_rect,4,0,4,0,1,
656607db0fc2ad7c7b0948fa,TCR,2024-06-11_13h09.41.688,LearnStrategy,2023.2.3,Win32,60.24096386,7,2,6,,,,,,,,5,06,,,,,,,,,,,5,0.963,1,,,,,,-0.356481481,-0.405555556,1,0,0,0.9625,Obsidian_rect,5,0,5,0,1,
656607db0fc2ad7c7b0948fa,TCR,2024-06-11_13h09.41.688,LearnStrategy,2023.2.3,Win32,60.24096386,7,2,7,,,,,,,,4,01,,,,,,,,,,,1,3.399,0,,,,,,-0.361111111,-0.25462963,1,0,0,3.3987,Andesite_rect,6,0,6,0,1,
656607db0fc2ad7c7b0948fa,TCR,2024-06-11_13h09.41.688,LearnStrategy,2023.2.3,Win32,60.24096386,7,2,8,,,,,,,,3,02,,,,,,,,,,,6,7.896,0,,,,,,-0.072222222,-0.4,1,0,0,7.8964,Pegmatite_rect,7,0,7,0,1,
656607db0fc2ad7c7b0948fa,TCR,2024-06-11_13h09.41.688,LearnStrategy,2023.2.3,Win32,60.24096386,7,2,9,,,,,,,,1,04,,,,,,,,,,,4,4.344,0,,,,,,0.388888889,-0.261111111,1,0,0,4.3438,Gabbro_rect,8,0,8,0,1,
656607db0fc2ad7c7b0948fa,TCR,2024-06-11_13h09.41.688,LearnStrategy,2023.2.3,Win32,60.24096386,7,2,10,,,,,,,,7,06,,,,,,,,,,,6,2.831,0,,,,,,-0.094444444,-0.387962963,1,0,0,2.8313,Pegmatite_rect,9,0,9,0,1,
656607db0fc2ad7c7b0948fa,TCR,2024-06-11_13h09.41.688,LearnStrategy,2023.2.3,Win32,60.24096386,7,2,11,,,,,,,,1,14,,,,,,,,,,,7,3.516,0,,,,,,0.140740741,-0.418518519,1,0,0,3.5156,Peridotite_rect,10,0,10,0,1,
656607db0fc2ad7c7b0948fa,TCR,2024-06-11_13h09.41.688,LearnStrategy,2023.2.3,Win32,60.24096386,7,2,12,,,,,,,,8,16,,,,,,,,,,,8,0.897,1,,,,,,0.389814815,-0.408333333,1,0,0,0.8965,Pumice_rect,11,0,11,0,1,
656607db0fc2ad7c7b0948fa,TCR,2024-06-11_13h09.41.688,LearnStrategy,2023.2.3,Win32,60.24096386,7,2,13,,,,,,,,6,15,,,,,,,,,,,6,4.049,1,,,,,,-0.093518519,-0.393518519,1,0,0,4.0489,Pegmatite_rect,12,0,12,0,1,
656607db0fc2ad7c7b0948fa,TCR,2024-06-11_13h09.41.688,LearnStrategy,2023.2.3,Win32,60.24096386,7,2,14,,,,,,,,6,11,,,,,,,,,,,5,3.699,0,,,,,,-0.394444444,-0.399074074,1,0,0,3.6992,Obsidian_rect,13,0,13,0,1,
656607db0fc2ad7c7b0948fa,TCR,2024-06-11_13h09.41.688,LearnStrategy,2023.2.3,Win32,60.24096386,7,2,15,,,,,,,,8,10,,,,,,,,,,,8,2.565,1,,,,,,0.390740741,-0.397222222,1,0,0,2.5651,Pumice_rect,14,0,14,0,1,
656607db0fc2ad7c7b0948fa,TCR,2024-06-11_13h09.41.688,LearnStrategy,2023.2.3,Win32,60.24096386,7,2,16,,,,,,,,3,10,,,,,,,,,,,1,3.816,0,,,,,,-0.411111111,-0.250925926,1,0,0,3.8159,Andesite_rect,15,0,15,0,1,
656607db0fc2ad7c7b0948fa,TCR,2024-06-11_13h09.41.688,LearnStrategy,2023.2.3,Win32,60.24096386,8,1,1,-0.023148148,-0.00462963,1,0,0,1.5502,rock_grid_rect_2,7,14,-1,-1,1.55,0.083333333,-0.406481481,1,0,0,5.4338,Peridotite_rect,7,5.434,1,0,0,0,0,1,,,,,,,,,,,,,
656607db0fc2ad7c7b0948fa,TCR,2024-06-11_13h09.41.688,LearnStrategy,2023.2.3,Win32,60.24096386,8,1,2,0,0.005555556,1,0,0,0.6492,rock_grid_rect_2,6,05,-1,-1,0.649,-0.101851852,-0.388888889,1,0,0,3.7828,Pegmatite_rect,6,3.783,1,1,0,1,0,1,,,,,,,,,,,,,
656607db0fc2ad7c7b0948fa,TCR,2024-06-11_13h09.41.688,LearnStrategy,2023.2.3,Win32,60.24096386,8,1,3,-0.001851852,-0.011111111,1,0,0,0.7663,rock_grid_rect_2,1,16,-1,-1,0.766,0.397222222,-0.243518519,1,0,0,3.8496,Gabbro_rect,4,3.85,0,2,0,2,0,1,,,,,,,,,,,,,
656607db0fc2ad7c7b0948fa,TCR,2024-06-11_13h09.41.688,LearnStrategy,2023.2.3,Win32,60.24096386,8,1,4,0.049074074,0.00462963,1,0,0,0.7829,rock_grid_rect_2,7,10,-1,-1,0.783,-0.331481481,-0.240740741,1,0,0,5.8679,Andesite_rect,1,5.868,0,3,0,3,0,1,,,,,,,,,,,,,
656607db0fc2ad7c7b0948fa,TCR,2024-06-11_13h09.41.688,LearnStrategy,2023.2.3,Win32,60.24096386,8,1,5,0.074074074,0.002777778,1,0,0,0.7993,rock_grid_rect_2,8,15,-1,-1,0.799,0.385185185,-0.386111111,1,0,0,1.0136,Pumice_rect,8,1.014,1,4,0,4,0,1,,,,,,,,,,,,,
656607db0fc2ad7c7b0948fa,TCR,2024-06-11_13h09.41.688,LearnStrategy,2023.2.3,Win32,60.24096386,8,1,6,0.041666667,-0.009259259,1,0,0,0.5996,rock_grid_rect_2,1,10,-1,-1,0.6,-0.362037037,-0.249074074,1,0,0,1.097,Andesite_rect,1,1.097,1,5,0,5,0,1,,,,,,,,,,,,,
656607db0fc2ad7c7b0948fa,TCR,2024-06-11_13h09.41.688,LearnStrategy,2023.2.3,Win32,60.24096386,8,1,7,0.02037037,0.012037037,1,0,0,0.4994,rock_grid_rect_2,1,06,-1,-1,0.499,0.314814815,-0.259259259,1,0,0,1.6473,Gabbro_rect,4,1.647,0,6,0,6,0,1,,,,,,,,,,,,,
656607db0fc2ad7c7b0948fa,TCR,2024-06-11_13h09.41.688,LearnStrategy,2023.2.3,Win32,60.24096386,8,1,8,0.07962963,-0.002777778,1,0,0,0.6331,rock_grid_rect_2,4,11,-1,-1,0.633,0.438888889,-0.247222222,1,0,0,3.4657,Gabbro_rect,4,3.466,1,7,0,7,0,1,,,,,,,,,,,,,
656607db0fc2ad7c7b0948fa,TCR,2024-06-11_13h09.41.688,LearnStrategy,2023.2.3,Win32,60.24096386,8,1,9,0.035185185,-0.021296296,1,0,0,0.666,rock_grid_rect_2,5,16,-1,-1,0.666,-0.426851852,-0.419444444,1,0,0,1.1299,Obsidian_rect,5,1.13,1,8,0,8,0,1,,,,,,,,,,,,,
656607db0fc2ad7c7b0948fa,TCR,2024-06-11_13h09.41.688,LearnStrategy,2023.2.3,Win32,60.24096386,8,1,10,0.009259259,0.002777778,1,0,0,0.6665,rock_grid_rect_2,3,11,-1,-1,0.667,0.122222222,-0.261111111,1,0,0,1.3806,Diorite_rect,3,1.381,1,9,0,9,0,1,,,,,,,,,,,,,
656607db0fc2ad7c7b0948fa,TCR,2024-06-11_13h09.41.688,LearnStrategy,2023.2.3,Win32,60.24096386,8,1,11,0.017592593,-0.018518519,1,0,0,0.6329,rock_grid_rect_2,3,16,-1,-1,0.633,-0.392592593,-0.267592593,1,0,0,9.4218,Andesite_rect,1,9.422,0,10,0,10,0,1,,,,,,,,,,,,,
656607db0fc2ad7c7b0948fa,TCR,2024-06-11_13h09.41.688,LearnStrategy,2023.2.3,Win32,60.24096386,8,1,12,0.085185185,0.001851852,1,0,0,0.7615,rock_grid_rect_2,2,10,-1,-1,0.762,-0.130555556,-0.262037037,1,0,0,0.9801,Basalt_rect,2,0.98,1,11,0,11,0,1,,,,,,,,,,,,,
656607db0fc2ad7c7b0948fa,TCR,2024-06-11_13h09.41.688,LearnStrategy,2023.2.3,Win32,60.24096386,8,1,13,0.028703704,-0.001851852,1,0,0,0.4995,rock_grid_rect_2,6,09,-1,-1,0.5,-0.098148148,-0.398148148,1,0,0,4.0834,Pegmatite_rect,6,4.083,1,12,0,12,0,1,,,,,,,,,,,,,
656607db0fc2ad7c7b0948fa,TCR,2024-06-11_13h09.41.688,LearnStrategy,2023.2.3,Win32,60.24096386,8,1,14,0.035185185,-0.000925926,1,0,0,0.4827,rock_grid_rect_2,4,15,-1,-1,0.483,0.40462963,-0.258333333,1,0,0,2.3319,Gabbro_rect,4,2.332,1,13,0,13,0,1,,,,,,,,,,,,,
656607db0fc2ad7c7b0948fa,TCR,2024-06-11_13h09.41.688,LearnStrategy,2023.2.3,Win32,60.24096386,8,1,15,0.112037037,0.00462963,1,0,0,0.5153,rock_grid_rect_2,1,10,-1,-1,0.515,-0.339814815,-0.25,1,0,0,0.9634,Andesite_rect,1,0.963,1,14,0,14,0,1,,,,,,,,,,,,,
656607db0fc2ad7c7b0948fa,TCR,2024-06-11_13h09.41.688,LearnStrategy,2023.2.3,Win32,60.24096386,8,1,16,0.077777778,0.010185185,1,0,0,0.5494,rock_grid_rect_2,3,12,-1,-1,0.549,0.173148148,-0.258333333,1,0,0,4.1998,Diorite_rect,3,4.2,1,15,0,15,0,1,,,,,,,,,,,,,
656607db0fc2ad7c7b0948fa,TCR,2024-06-11_13h09.41.688,LearnStrategy,2023.2.3,Win32,60.24096386,8,2,1,,,,,,,,8,09,,,,,,,,,,,8,1.08,1,,,,,,0.393518519,-0.388888889,1,0,0,1.0798,Pumice_rect,0,0,0,0,1,
656607db0fc2ad7c7b0948fa,TCR,2024-06-11_13h09.41.688,LearnStrategy,2023.2.3,Win32,60.24096386,8,2,2,,,,,,,,1,02,,,,,,,,,,,2,4.65,0,,,,,,-0.131481481,-0.249074074,1,0,0,4.6498,Basalt_rect,1,0,1,0,1,
656607db0fc2ad7c7b0948fa,TCR,2024-06-11_13h09.41.688,LearnStrategy,2023.2.3,Win32,60.24096386,8,2,3,,,,,,,,6,12,,,,,,,,,,,6,12.073,1,,,,,,-0.128703704,-0.398148148,1,0,0,12.0735,Pegmatite_rect,2,0,2,0,1,
656607db0fc2ad7c7b0948fa,TCR,2024-06-11_13h09.41.688,LearnStrategy,2023.2.3,Win32,60.24096386,8,2,4,,,,,,,,1,05,,,,,,,,,,,1,3.666,1,,,,,,-0.402777778,-0.257407407,1,0,0,3.6663,Andesite_rect,3,0,3,0,1,
656607db0fc2ad7c7b0948fa,TCR,2024-06-11_13h09.41.688,LearnStrategy,2023.2.3,Win32,60.24096386,8,2,5,,,,,,,,3,07,,,,,,,,,,,3,4.817,1,,,,,,0.146296296,-0.253703704,1,0,0,4.8167,Diorite_rect,4,0,4,0,1,
656607db0fc2ad7c7b0948fa,TCR,2024-06-11_13h09.41.688,LearnStrategy,2023.2.3,Win32,60.24096386,8,2,6,,,,,,,,8,13,,,,,,,,,,,8,0.946,1,,,,,,0.460185185,-0.414814815,1,0,0,0.9463,Pumice_rect,5,0,5,0,1,
656607db0fc2ad7c7b0948fa,TCR,2024-06-11_13h09.41.688,LearnStrategy,2023.2.3,Win32,60.24096386,8,2,7,,,,,,,,2,06,,,,,,,,,,,2,2.531,1,,,,,,-0.128703704,-0.252777778,1,0,0,2.5314,Basalt_rect,6,0,6,0,1,
656607db0fc2ad7c7b0948fa,TCR,2024-06-11_13h09.41.688,LearnStrategy,2023.2.3,Win32,60.24096386,8,2,8,,,,,,,,7,13,,,,,,,,,,,3,9.237,0,,,,,,0.133333333,-0.267592593,1,0,0,9.2373,Diorite_rect,7,0,7,0,1,
656607db0fc2ad7c7b0948fa,TCR,2024-06-11_13h09.41.688,LearnStrategy,2023.2.3,Win32,60.24096386,8,2,9,,,,,,,,4,16,,,,,,,,,,,2,5.484,0,,,,,,-0.125,-0.262037037,1,0,0,5.4841,Basalt_rect,8,0,8,0,1,
656607db0fc2ad7c7b0948fa,TCR,2024-06-11_13h09.41.688,LearnStrategy,2023.2.3,Win32,60.24096386,8,2,10,,,,,,,,5,08,,,,,,,,,,,5,1.446,1,,,,,,-0.388888889,-0.39537037,1,0,0,1.4464,Obsidian_rect,9,0,9,0,1,
656607db0fc2ad7c7b0948fa,TCR,2024-06-11_13h09.41.688,LearnStrategy,2023.2.3,Win32,60.24096386,8,2,11,,,,,,,,3,08,,,,,,,,,,,3,1.914,1,,,,,,0.177777778,-0.253703704,1,0,0,1.9135,Diorite_rect,10,0,10,0,1,
656607db0fc2ad7c7b0948fa,TCR,2024-06-11_13h09.41.688,LearnStrategy,2023.2.3,Win32,60.24096386,8,2,12,,,,,,,,4,08,,,,,,,,,,,4,3.099,1,,,,,,0.439814815,-0.237037037,1,0,0,3.0994,Gabbro_rect,11,0,11,0,1,
656607db0fc2ad7c7b0948fa,TCR,2024-06-11_13h09.41.688,LearnStrategy,2023.2.3,Win32,60.24096386,8,2,13,,,,,,,,2,11,,,,,,,,,,,1,5.184,0,,,,,,-0.393518519,-0.25462963,1,0,0,5.1836,Andesite_rect,12,0,12,0,1,
656607db0fc2ad7c7b0948fa,TCR,2024-06-11_13h09.41.688,LearnStrategy,2023.2.3,Win32,60.24096386,8,2,14,,,,,,,,7,08,,,,,,,,,,,3,3.065,0,,,,,,0.116666667,-0.252777778,1,0,0,3.0651,Diorite_rect,13,0,13,0,1,
656607db0fc2ad7c7b0948fa,TCR,2024-06-11_13h09.41.688,LearnStrategy,2023.2.3,Win32,60.24096386,8,2,15,,,,,,,,5,07,,,,,,,,,,,5,0.895,1,,,,,,-0.390740741,-0.398148148,1,0,0,0.8954,Obsidian_rect,14,0,14,0,1,
656607db0fc2ad7c7b0948fa,TCR,2024-06-11_13h09.41.688,LearnStrategy,2023.2.3,Win32,60.24096386,8,2,16,,,,,,,,6,13,,,,,,,,,,,6,4.133,1,,,,,,-0.156481481,-0.393518519,1,0,0,4.1331,Pegmatite_rect,15,0,15,0,1,
656607db0fc2ad7c7b0948fa,TCR,2024-06-11_13h09.41.688,LearnStrategy,2023.2.3,Win32,60.24096386,9,1,1,0.027777778,-0.007407407,1,0,0,1.217,rock_grid_rect_2,6,06,-1,-1,1.217,-0.075925926,-0.403703704,1,0,0,5.9741,Pegmatite_rect,6,5.974,1,0,0,0,0,1,,,,,,,,,,,,,
656607db0fc2ad7c7b0948fa,TCR,2024-06-11_13h09.41.688,LearnStrategy,2023.2.3,Win32,60.24096386,9,1,2,0.082407407,-0.007407407,1,0,0,0.8187,rock_grid_rect_2,8,14,-1,-1,0.819,0.4,-0.399074074,1,0,0,0.9145,Pumice_rect,8,0.915,1,1,0,1,0,1,,,,,,,,,,,,,
656607db0fc2ad7c7b0948fa,TCR,2024-06-11_13h09.41.688,LearnStrategy,2023.2.3,Win32,60.24096386,9,1,3,0.016666667,-0.014814815,1,0,0,0.7864,rock_grid_rect_2,1,16,-1,-1,0.786,-0.351851852,-0.264814815,1,0,0,8.2388,Andesite_rect,1,8.239,1,2,0,2,0,1,,,,,,,,,,,,,
656607db0fc2ad7c7b0948fa,TCR,2024-06-11_13h09.41.688,LearnStrategy,2023.2.3,Win32,60.24096386,9,1,4,0.055555556,-0.001851852,1,0,0,0.6826,rock_grid_rect_2,4,10,-1,-1,0.683,-0.374074074,-0.232407407,1,0,0,4.1225,Andesite_rect,1,4.122,0,3,0,3,0,1,,,,,,,,,,,,,
656607db0fc2ad7c7b0948fa,TCR,2024-06-11_13h09.41.688,LearnStrategy,2023.2.3,Win32,60.24096386,9,1,5,-0.006481481,0.02037037,1,0,0,0.6207,rock_grid_rect_2,1,10,-1,-1,0.621,-0.338888889,-0.249074074,1,0,0,0.9144,Andesite_rect,1,0.914,1,4,0,4,0,1,,,,,,,,,,,,,
656607db0fc2ad7c7b0948fa,TCR,2024-06-11_13h09.41.688,LearnStrategy,2023.2.3,Win32,60.24096386,9,1,6,0.011111111,-0.00462963,1,0,0,0.6491,rock_grid_rect_2,7,16,-1,-1,0.649,0.189814815,-0.392592593,1,0,0,5.843,Peridotite_rect,7,5.843,1,5,0,5,0,1,,,,,,,,,,,,,
656607db0fc2ad7c7b0948fa,TCR,2024-06-11_13h09.41.688,LearnStrategy,2023.2.3,Win32,60.24096386,9,1,7,0.011111111,0.002777778,1,0,0,0.6046,rock_grid_rect_2,3,09,-1,-1,0.605,0.127777778,-0.25,1,0,0,2.9495,Diorite_rect,3,2.95,1,6,0,6,0,1,,,,,,,,,,,,,
656607db0fc2ad7c7b0948fa,TCR,2024-06-11_13h09.41.688,LearnStrategy,2023.2.3,Win32,60.24096386,9,1,8,0.039814815,-0.008333333,1,0,0,0.501,rock_grid_rect_2,2,12,-1,-1,0.501,-0.133333333,-0.25,1,0,0,1.7318,Basalt_rect,2,1.732,1,7,0,7,0,1,,,,,,,,,,,,,
656607db0fc2ad7c7b0948fa,TCR,2024-06-11_13h09.41.688,LearnStrategy,2023.2.3,Win32,60.24096386,9,1,9,0.056481481,0.007407407,1,0,0,0.5355,rock_grid_rect_2,4,09,-1,-1,0.535,0.381481481,-0.246296296,1,0,0,1.5489,Gabbro_rect,4,1.549,1,8,0,8,0,1,,,,,,,,,,,,,
656607db0fc2ad7c7b0948fa,TCR,2024-06-11_13h09.41.688,LearnStrategy,2023.2.3,Win32,60.24096386,9,1,10,0.012962963,0.018518519,1,0,0,0.5546,rock_grid_rect_2,7,14,-1,-1,0.555,0.158333333,-0.393518519,1,0,0,4.6508,Peridotite_rect,7,4.651,1,9,0,9,0,1,,,,,,,,,,,,,
656607db0fc2ad7c7b0948fa,TCR,2024-06-11_13h09.41.688,LearnStrategy,2023.2.3,Win32,60.24096386,9,1,11,0.069444444,0.010185185,1,0,0,0.5209,rock_grid_rect_2,3,12,-1,-1,0.521,0.131481481,-0.25462963,1,0,0,5.0523,Diorite_rect,3,5.052,1,10,0,10,0,1,,,,,,,,,,,,,
656607db0fc2ad7c7b0948fa,TCR,2024-06-11_13h09.41.688,LearnStrategy,2023.2.3,Win32,60.24096386,9,1,12,0.047222222,0.021296296,1,0,0,0.5378,rock_grid_rect_2,1,06,-1,-1,0.538,-0.376851852,-0.24537037,1,0,0,2.6659,Andesite_rect,1,2.666,1,11,0,11,0,1,,,,,,,,,,,,,
656607db0fc2ad7c7b0948fa,TCR,2024-06-11_13h09.41.688,LearnStrategy,2023.2.3,Win32,60.24096386,9,1,13,0.036111111,0.013888889,1,0,0,0.4687,rock_grid_rect_2,7,10,-1,-1,0.469,0.366666667,-0.22962963,1,0,0,10.6071,Gabbro_rect,4,10.607,0,12,0,12,0,1,,,,,,,,,,,,,
656607db0fc2ad7c7b0948fa,TCR,2024-06-11_13h09.41.688,LearnStrategy,2023.2.3,Win32,60.24096386,9,1,14,0.132407407,0.003703704,1,0,0,0.7,rock_grid_rect_2,6,16,-1,-1,0.7,-0.125925926,-0.382407407,1,0,0,3.4836,Pegmatite_rect,6,3.484,1,13,0,13,0,1,,,,,,,,,,,,,
656607db0fc2ad7c7b0948fa,TCR,2024-06-11_13h09.41.688,LearnStrategy,2023.2.3,Win32,60.24096386,9,1,15,-0.003703704,-0.024074074,1,0,0,0.4492,rock_grid_rect_2,5,05,-1,-1,0.449,-0.460185185,-0.408333333,1,0,0,0.9358,Obsidian_rect,5,0.936,1,14,0,14,0,1,,,,,,,,,,,,,
656607db0fc2ad7c7b0948fa,TCR,2024-06-11_13h09.41.688,LearnStrategy,2023.2.3,Win32,60.24096386,9,1,16,0.025,-0.013888889,1,0,0,0.4144,rock_grid_rect_2,2,09,-1,-1,0.414,-0.135185185,-0.234259259,1,0,0,0.7852,Basalt_rect,2,0.785,1,15,0,15,0,1,,,,,,,,,,,,,
656607db0fc2ad7c7b0948fa,TCR,2024-06-11_13h09.41.688,LearnStrategy,2023.2.3,Win32,60.24096386,9,2,1,,,,,,,,3,13,,,,,,,,,,,3,9.461,1,,,,,,0.112962963,-0.235185185,1,0,0,9.461,Diorite_rect,0,0,0,0,1,
656607db0fc2ad7c7b0948fa,TCR,2024-06-11_13h09.41.688,LearnStrategy,2023.2.3,Win32,60.24096386,9,2,2,,,,,,,,1,03,,,,,,,,,,,2,3.322,0,,,,,,-0.138888889,-0.259259259,1,0,0,3.3216,Basalt_rect,1,0,1,0,1,
656607db0fc2ad7c7b0948fa,TCR,2024-06-11_13h09.41.688,LearnStrategy,2023.2.3,Win32,60.24096386,9,2,3,,,,,,,,2,04,,,,,,,,,,,2,3.138,1,,,,,,-0.136111111,-0.251851852,1,0,0,3.1378,Basalt_rect,2,0,2,0,1,
656607db0fc2ad7c7b0948fa,TCR,2024-06-11_13h09.41.688,LearnStrategy,2023.2.3,Win32,60.24096386,9,2,4,,,,,,,,4,14,,,,,,,,,,,4,3.639,1,,,,,,0.378703704,-0.237037037,1,0,0,3.639,Gabbro_rect,3,0,3,0,1,
656607db0fc2ad7c7b0948fa,TCR,2024-06-11_13h09.41.688,LearnStrategy,2023.2.3,Win32,60.24096386,9,2,5,,,,,,,,3,14,,,,,,,,,,,3,9.627,1,,,,,,0.12962963,-0.267592593,1,0,0,9.6269,Diorite_rect,4,0,4,0,1,
656607db0fc2ad7c7b0948fa,TCR,2024-06-11_13h09.41.688,LearnStrategy,2023.2.3,Win32,60.24096386,9,2,6,,,,,,,,7,07,,,,,,,,,,,7,1.719,1,,,,,,0.134259259,-0.382407407,1,0,0,1.719,Peridotite_rect,5,0,5,0,1,
656607db0fc2ad7c7b0948fa,TCR,2024-06-11_13h09.41.688,LearnStrategy,2023.2.3,Win32,60.24096386,9,2,7,,,,,,,,7,15,,,,,,,,,,,7,0.82,1,,,,,,0.134259259,-0.382407407,1,0,0,0.82,Peridotite_rect,6,0,6,0,1,
656607db0fc2ad7c7b0948fa,TCR,2024-06-11_13h09.41.688,LearnStrategy,2023.2.3,Win32,60.24096386,9,2,8,,,,,,,,4,03,,,,,,,,,,,4,7.342,1,,,,,,0.380555556,-0.243518519,1,0,0,7.3419,Gabbro_rect,7,0,7,0,1,
656607db0fc2ad7c7b0948fa,TCR,2024-06-11_13h09.41.688,LearnStrategy,2023.2.3,Win32,60.24096386,9,2,9,,,,,,,,5,10,,,,,,,,,,,5,0.914,1,,,,,,-0.385185185,-0.394444444,1,0,0,0.914,Obsidian_rect,8,0,8,0,1,
656607db0fc2ad7c7b0948fa,TCR,2024-06-11_13h09.41.688,LearnStrategy,2023.2.3,Win32,60.24096386,9,2,10,,,,,,,,6,10,,,,,,,,,,,6,3.404,1,,,,,,-0.12037037,-0.398148148,1,0,0,3.4042,Pegmatite_rect,9,0,9,0,1,
656607db0fc2ad7c7b0948fa,TCR,2024-06-11_13h09.41.688,LearnStrategy,2023.2.3,Win32,60.24096386,9,2,11,,,,,,,,5,04,,,,,,,,,,,5,0.964,1,,,,,,-0.423148148,-0.391666667,1,0,0,0.9643,Obsidian_rect,10,0,10,0,1,
656607db0fc2ad7c7b0948fa,TCR,2024-06-11_13h09.41.688,LearnStrategy,2023.2.3,Win32,60.24096386,9,2,12,,,,,,,,2,01,,,,,,,,,,,2,2.737,1,,,,,,-0.130555556,-0.247222222,1,0,0,2.7373,Basalt_rect,11,0,11,0,1,
656607db0fc2ad7c7b0948fa,TCR,2024-06-11_13h09.41.688,LearnStrategy,2023.2.3,Win32,60.24096386,9,2,13,,,,,,,,6,03,,,,,,,,,,,6,2.883,1,,,,,,-0.091666667,-0.401851852,1,0,0,2.8826,Pegmatite_rect,12,0,12,0,1,
656607db0fc2ad7c7b0948fa,TCR,2024-06-11_13h09.41.688,LearnStrategy,2023.2.3,Win32,60.24096386,9,2,14,,,,,,,,1,09,,,,,,,,,,,1,4.59,1,,,,,,-0.367592593,-0.253703704,1,0,0,4.5895,Andesite_rect,13,0,13,0,1,
656607db0fc2ad7c7b0948fa,TCR,2024-06-11_13h09.41.688,LearnStrategy,2023.2.3,Win32,60.24096386,9,2,15,,,,,,,,8,08,,,,,,,,,,,8,1.248,1,,,,,,0.39537037,-0.4,1,0,0,1.2479,Pumice_rect,14,0,14,0,1,
656607db0fc2ad7c7b0948fa,TCR,2024-06-11_13h09.41.688,LearnStrategy,2023.2.3,Win32,60.24096386,9,2,16,,,,,,,,8,04,,,,,,,,,,,8,0.685,1,,,,,,0.37962963,-0.397222222,1,0,0,0.6846,Pumice_rect,15,0,15,0,1,
656607db0fc2ad7c7b0948fa,TCR,2024-06-11_13h09.41.688,LearnStrategy,2023.2.3,Win32,60.24096386,,,,,,,,,,,,,,,,,,,,,,,,,,,,,,,,,,,,,,,,,,,1
656607db0fc2ad7c7b0948fa,TCR,2024-06-11_13h09.41.688,LearnStrategy,2023.2.3,Win32,60.24096386,,,,,,,,,,,,,,,,,,,,,,,,,,,,,,,,,,,,,,,,,,,
656607db0fc2ad7c7b0948fa,TCR,2024-06-11_13h09.41.688,LearnStrategy,2023.2.3,Win32,60.24096386,,,,,,,,,,,2,10,1,1,,,,,,,,,,,,,,,,,,,,,,,,,,,,,
656607db0fc2ad7c7b0948fa,TCR,2024-06-11_13h09.41.688,LearnStrategy,2023.2.3,Win32,60.24096386,,,,,,,,,,,3,12,1,2,,,,,,,,,,,,,,,,,,,,,,,,,,,,,
656607db0fc2ad7c7b0948fa,TCR,2024-06-11_13h09.41.688,LearnStrategy,2023.2.3,Win32,60.24096386,,,,,,,,,,,1,11,1,3,,,,,,,,,,,,,,,,,,,,,,,,,,,,,
656607db0fc2ad7c7b0948fa,TCR,2024-06-11_13h09.41.688,LearnStrategy,2023.2.3,Win32,60.24096386,,,,,,,,,,,1,10,1,4,,,,,,,,,,,,,,,,,,,,,,,,,,,,,
656607db0fc2ad7c7b0948fa,TCR,2024-06-11_13h09.41.688,LearnStrategy,2023.2.3,Win32,60.24096386,,,,,,,,,,,2,09,1,5,,,,,,,,,,,,,,,,,,,,,,,,,,,,,
656607db0fc2ad7c7b0948fa,TCR,2024-06-11_13h09.41.688,LearnStrategy,2023.2.3,Win32,60.24096386,,,,,,,,,,,7,12,1,6,,,,,,,,,,,,,,,,,,,,,,,,,,,,,
656607db0fc2ad7c7b0948fa,TCR,2024-06-11_13h09.41.688,LearnStrategy,2023.2.3,Win32,60.24096386,,,,,,,,,,,8,05,1,7,,,,,,,,,,,,,,,,,,,,,,,,,,,,,
656607db0fc2ad7c7b0948fa,TCR,2024-06-11_13h09.41.688,LearnStrategy,2023.2.3,Win32,60.24096386,,,,,,,,,,,8,03,1,8,,,,,,,,,,,,,,,,,,,,,,,,,,,,,
656607db0fc2ad7c7b0948fa,TCR,2024-06-11_13h09.41.688,LearnStrategy,2023.2.3,Win32,60.24096386,,,,,,,,,,,4,05,2,1,,,,,,,,,,,,,,,,,,,,,,,,,,,,,
656607db0fc2ad7c7b0948fa,TCR,2024-06-11_13h09.41.688,LearnStrategy,2023.2.3,Win32,60.24096386,,,,,,,,,,,7,10,2,2,,,,,,,,,,,,,,,,,,,,,,,,,,,,,
656607db0fc2ad7c7b0948fa,TCR,2024-06-11_13h09.41.688,LearnStrategy,2023.2.3,Win32,60.24096386,,,,,,,,,,,2,16,2,3,,,,,,,,,,,,,,,,,,,,,,,,,,,,,
656607db0fc2ad7c7b0948fa,TCR,2024-06-11_13h09.41.688,LearnStrategy,2023.2.3,Win32,60.24096386,,,,,,,,,,,6,08,2,4,,,,,,,,,,,,,,,,,,,,,,,,,,,,,
656607db0fc2ad7c7b0948fa,TCR,2024-06-11_13h09.41.688,LearnStrategy,2023.2.3,Win32,60.24096386,,,,,,,,,,,4,10,2,5,,,,,,,,,,,,,,,,,,,,,,,,,,,,,
656607db0fc2ad7c7b0948fa,TCR,2024-06-11_13h09.41.688,LearnStrategy,2023.2.3,Win32,60.24096386,,,,,,,,,,,2,08,2,6,,,,,,,,,,,,,,,,,,,,,,,,,,,,,
656607db0fc2ad7c7b0948fa,TCR,2024-06-11_13h09.41.688,LearnStrategy,2023.2.3,Win32,60.24096386,,,,,,,,,,,5,05,2,7,,,,,,,,,,,,,,,,,,,,,,,,,,,,,
656607db0fc2ad7c7b0948fa,TCR,2024-06-11_13h09.41.688,LearnStrategy,2023.2.3,Win32,60.24096386,,,,,,,,,,,6,06,2,8,,,,,,,,,,,,,,,,,,,,,,,,,,,,,
656607db0fc2ad7c7b0948fa,TCR,2024-06-11_13h09.41.688,LearnStrategy,2023.2.3,Win32,60.24096386,,,,,,,,,,,6,05,3,1,,,,,,,,,,,,,,,,,,,,,,,,,,,,,
656607db0fc2ad7c7b0948fa,TCR,2024-06-11_13h09.41.688,LearnStrategy,2023.2.3,Win32,60.24096386,,,,,,,,,,,7,14,3,2,,,,,,,,,,,,,,,,,,,,,,,,,,,,,
656607db0fc2ad7c7b0948fa,TCR,2024-06-11_13h09.41.688,LearnStrategy,2023.2.3,Win32,60.24096386,,,,,,,,,,,3,11,3,3,,,,,,,,,,,,,,,,,,,,,,,,,,,,,
656607db0fc2ad7c7b0948fa,TCR,2024-06-11_13h09.41.688,LearnStrategy,2023.2.3,Win32,60.24096386,,,,,,,,,,,5,12,3,4,,,,,,,,,,,,,,,,,,,,,,,,,,,,,
656607db0fc2ad7c7b0948fa,TCR,2024-06-11_13h09.41.688,LearnStrategy,2023.2.3,Win32,60.24096386,,,,,,,,,,,8,14,3,5,,,,,,,,,,,,,,,,,,,,,,,,,,,,,
656607db0fc2ad7c7b0948fa,TCR,2024-06-11_13h09.41.688,LearnStrategy,2023.2.3,Win32,60.24096386,,,,,,,,,,,3,16,3,6,,,,,,,,,,,,,,,,,,,,,,,,,,,,,
656607db0fc2ad7c7b0948fa,TCR,2024-06-11_13h09.41.688,LearnStrategy,2023.2.3,Win32,60.24096386,,,,,,,,,,,1,06,3,7,,,,,,,,,,,,,,,,,,,,,,,,,,,,,
656607db0fc2ad7c7b0948fa,TCR,2024-06-11_13h09.41.688,LearnStrategy,2023.2.3,Win32,60.24096386,,,,,,,,,,,8,06,3,8,,,,,,,,,,,,,,,,,,,,,,,,,,,,,
656607db0fc2ad7c7b0948fa,TCR,2024-06-11_13h09.41.688,LearnStrategy,2023.2.3,Win32,60.24096386,,,,,,,,,,,7,16,4,1,,,,,,,,,,,,,,,,,,,,,,,,,,,,,
656607db0fc2ad7c7b0948fa,TCR,2024-06-11_13h09.41.688,LearnStrategy,2023.2.3,Win32,60.24096386,,,,,,,,,,,1,07,4,2,,,,,,,,,,,,,,,,,,,,,,,,,,,,,
656607db0fc2ad7c7b0948fa,TCR,2024-06-11_13h09.41.688,LearnStrategy,2023.2.3,Win32,60.24096386,,,,,,,,,,,5,16,4,3,,,,,,,,,,,,,,,,,,,,,,,,,,,,,
656607db0fc2ad7c7b0948fa,TCR,2024-06-11_13h09.41.688,LearnStrategy,2023.2.3,Win32,60.24096386,,,,,,,,,,,2,12,4,4,,,,,,,,,,,,,,,,,,,,,,,,,,,,,
656607db0fc2ad7c7b0948fa,TCR,2024-06-11_13h09.41.688,LearnStrategy,2023.2.3,Win32,60.24096386,,,,,,,,,,,4,15,4,5,,,,,,,,,,,,,,,,,,,,,,,,,,,,,
656607db0fc2ad7c7b0948fa,TCR,2024-06-11_13h09.41.688,LearnStrategy,2023.2.3,Win32,60.24096386,,,,,,,,,,,7,05,4,6,,,,,,,,,,,,,,,,,,,,,,,,,,,,,
656607db0fc2ad7c7b0948fa,TCR,2024-06-11_13h09.41.688,LearnStrategy,2023.2.3,Win32,60.24096386,,,,,,,,,,,4,09,4,7,,,,,,,,,,,,,,,,,,,,,,,,,,,,,
656607db0fc2ad7c7b0948fa,TCR,2024-06-11_13h09.41.688,LearnStrategy,2023.2.3,Win32,60.24096386,,,,,,,,,,,5,14,4,8,,,,,,,,,,,,,,,,,,,,,,,,,,,,,
656607db0fc2ad7c7b0948fa,TCR,2024-06-11_13h09.41.688,LearnStrategy,2023.2.3,Win32,60.24096386,,,,,,,,,,,3,06,5,1,,,,,,,,,,,,,,,,,,,,,,,,,,,,,
656607db0fc2ad7c7b0948fa,TCR,2024-06-11_13h09.41.688,LearnStrategy,2023.2.3,Win32,60.24096386,,,,,,,,,,,2,02,5,2,,,,,,,,,,,,,,,,,,,,,,,,,,,,,
656607db0fc2ad7c7b0948fa,TCR,2024-06-11_13h09.41.688,LearnStrategy,2023.2.3,Win32,60.24096386,,,,,,,,,,,4,11,5,3,,,,,,,,,,,,,,,,,,,,,,,,,,,,,
656607db0fc2ad7c7b0948fa,TCR,2024-06-11_13h09.41.688,LearnStrategy,2023.2.3,Win32,60.24096386,,,,,,,,,,,1,01,5,4,,,,,,,,,,,,,,,,,,,,,,,,,,,,,
656607db0fc2ad7c7b0948fa,TCR,2024-06-11_13h09.41.688,LearnStrategy,2023.2.3,Win32,60.24096386,,,,,,,,,,,5,02,5,5,,,,,,,,,,,,,,,,,,,,,,,,,,,,,
656607db0fc2ad7c7b0948fa,TCR,2024-06-11_13h09.41.688,LearnStrategy,2023.2.3,Win32,60.24096386,,,,,,,,,,,5,11,5,6,,,,,,,,,,,,,,,,,,,,,,,,,,,,,
656607db0fc2ad7c7b0948fa,TCR,2024-06-11_13h09.41.688,LearnStrategy,2023.2.3,Win32,60.24096386,,,,,,,,,,,3,15,5,7,,,,,,,,,,,,,,,,,,,,,,,,,,,,,
656607db0fc2ad7c7b0948fa,TCR,2024-06-11_13h09.41.688,LearnStrategy,2023.2.3,Win32,60.24096386,,,,,,,,,,,6,07,5,8,,,,,,,,,,,,,,,,,,,,,,,,,,,,,
656607db0fc2ad7c7b0948fa,TCR,2024-06-11_13h09.41.688,LearnStrategy,2023.2.3,Win32,60.24096386,,,,,,,,,,,6,09,6,1,,,,,,,,,,,,,,,,,,,,,,,,,,,,,
656607db0fc2ad7c7b0948fa,TCR,2024-06-11_13h09.41.688,LearnStrategy,2023.2.3,Win32,60.24096386,,,,,,,,,,,4,12,6,2,,,,,,,,,,,,,,,,,,,,,,,,,,,,,
656607db0fc2ad7c7b0948fa,TCR,2024-06-11_13h09.41.688,LearnStrategy,2023.2.3,Win32,60.24096386,,,,,,,,,,,7,02,6,3,,,,,,,,,,,,,,,,,,,,,,,,,,,,,
656607db0fc2ad7c7b0948fa,TCR,2024-06-11_13h09.41.688,LearnStrategy,2023.2.3,Win32,60.24096386,,,,,,,,,,,8,15,6,4,,,,,,,,,,,,,,,,,,,,,,,,,,,,,
656607db0fc2ad7c7b0948fa,TCR,2024-06-11_13h09.41.688,LearnStrategy,2023.2.3,Win32,60.24096386,,,,,,,,,,,8,02,6,5,,,,,,,,,,,,,,,,,,,,,,,,,,,,,
656607db0fc2ad7c7b0948fa,TCR,2024-06-11_13h09.41.688,LearnStrategy,2023.2.3,Win32,60.24096386,,,,,,,,,,,1,16,6,6,,,,,,,,,,,,,,,,,,,,,,,,,,,,,
656607db0fc2ad7c7b0948fa,TCR,2024-06-11_13h09.41.688,LearnStrategy,2023.2.3,Win32,60.24096386,,,,,,,,,,,3,09,6,7,,,,,,,,,,,,,,,,,,,,,,,,,,,,,
656607db0fc2ad7c7b0948fa,TCR,2024-06-11_13h09.41.688,LearnStrategy,2023.2.3,Win32,60.24096386,,,,,,,,,,,6,16,6,8,,,,,,,,,,,,,,,,,,,,,,,,,,,,,