participant,condition,date,expName,psychopyVersion,OS,frameRate,block,phase,trial,learn_mouse.x,learn_mouse.y,learn_mouse.leftButton,learn_mouse.midButton,learn_mouse.rightButton,learn_mouse.time,learn_mouse.clicked_name,cat,token,row,col,t_select,cat_mouse_l.x,cat_mouse_l.y,cat_mouse_l.leftButton,cat_mouse_l.midButton,cat_mouse_l.rightButton,cat_mouse_l.time,cat_mouse_l.clicked_name,resp,t_resp,corr,train_trials.thisRepN,train_trials.thisTrialN,train_trials.thisN,train_trials.thisIndex,train_trials.ran,cat_mouse_t.x,cat_mouse_t.y,cat_mouse_t.leftButton,cat_mouse_t.midButton,cat_mouse_t.rightButton,cat_mouse_t.time,cat_mouse_t.clicked_name,test_trials.thisRepN,test_trials.thisTrialN,test_trials.thisN,test_trials.thisIndex,test_trials.ran,Bonus
6568ead5dfb561c3ba7850a4,SCN,2024-06-24_14h34.32.060,LearnStrategy,2023.2.3,Win32,143.6781609,,,,,,,,,,,,,,,,,,,,,,,,,,,,,,,,,,,,,,,,,,,
6568ead5dfb561c3ba7850a4,SCN,2024-06-24_14h34.32.060,LearnStrategy,2023.2.3,Win32,143.6781609,1,1,1,0.235416667,0.410416667,1,0,0,8.844,Diorite_06,3,06,6,6,8.844,0.209722222,-0.254166667,1,0,0,8.981,Diorite_rect,3,8.981,1,0,0,0,0,1,,,,,,,,,,,,,
6568ead5dfb561c3ba7850a4,SCN,2024-06-24_14h34.32.060,LearnStrategy,2023.2.3,Win32,143.6781609,1,1,2,0.551388889,0.411805556,1,0,0,3.864,Gabbro_12,4,12,6,8,3.864,-0.15,-0.265277778,1,0,0,4.881,Basalt_rect,2,4.881,0,1,0,1,0,1,,,,,,,,,,,,,
6568ead5dfb561c3ba7850a4,SCN,2024-06-24_14h34.32.060,LearnStrategy,2023.2.3,Win32,143.6781609,1,1,3,0.206944444,0.229166667,1,0,0,5.309,Diorite_14,3,14,5,6,5.309,0.102083333,-0.261111111,1,0,0,3.563,Diorite_rect,3,3.563,1,2,0,2,0,1,,,,,,,,,,,,,
6568ead5dfb561c3ba7850a4,SCN,2024-06-24_14h34.32.060,LearnStrategy,2023.2.3,Win32,143.6781609,1,1,4,-0.392361111,0.270138889,1,0,0,2.655,Diorite_07,3,07,5,2,2.655,0.077083333,-0.236111111,1,0,0,1.104,Diorite_rect,3,1.104,1,3,0,3,0,1,,,,,,,,,,,,,
6568ead5dfb561c3ba7850a4,SCN,2024-06-24_14h34.32.060,LearnStrategy,2023.2.3,Win32,143.6781609,1,1,5,0.227777778,-0.269444444,1,0,0,2.953,Pegmatite_05,6,05,2,6,2.953,0.180555556,-0.242361111,1,0,0,1.338,Diorite_rect,3,1.338,0,4,0,4,0,1,,,,,,,,,,,,,
6568ead5dfb561c3ba7850a4,SCN,2024-06-24_14h34.32.060,LearnStrategy,2023.2.3,Win32,143.6781609,1,1,6,-0.545833333,-0.120833333,1,0,0,3.336,Obsidian_05,5,05,3,1,3.336,-0.117361111,-0.407638889,1,0,0,2.621,Pegmatite_rect,6,2.621,0,5,0,5,0,1,,,,,,,,,,,,,
6568ead5dfb561c3ba7850a4,SCN,2024-06-24_14h34.32.060,LearnStrategy,2023.2.3,Win32,143.6781609,1,1,7,-0.384722222,-0.222916667,1,0,0,3.613,Pegmatite_07,6,07,2,2,3.613,0.335416667,-0.258333333,1,0,0,7.186,Gabbro_rect,4,7.186,0,6,0,6,0,1,,,,,,,,,,,,,
6568ead5dfb561c3ba7850a4,SCN,2024-06-24_14h34.32.060,LearnStrategy,2023.2.3,Win32,143.6781609,1,1,8,0.547916667,-0.452083333,1,0,0,3.573,Pegmatite_03,6,03,1,8,3.573,-0.056944444,-0.385416667,1,0,0,1.415,Pegmatite_rect,6,1.415,1,7,0,7,0,1,,,,,,,,,,,,,
6568ead5dfb561c3ba7850a4,SCN,2024-06-24_14h34.32.060,LearnStrategy,2023.2.3,Win32,143.6781609,1,1,9,0.21875,-0.244444444,1,0,0,3.003,Pegmatite_05,6,05,2,6,3.003,-0.104861111,-0.4,1,0,0,3.57,Pegmatite_rect,6,3.57,1,8,0,8,0,1,,,,,,,,,,,,,
6568ead5dfb561c3ba7850a4,SCN,2024-06-24_14h34.32.060,LearnStrategy,2023.2.3,Win32,143.6781609,1,1,10,-0.396527778,0.248611111,1,0,0,4.136,Diorite_07,3,07,5,2,4.136,0.063888889,-0.230555556,1,0,0,2.368,Diorite_rect,3,2.368,1,9,0,9,0,1,,,,,,,,,,,,,
6568ead5dfb561c3ba7850a4,SCN,2024-06-24_14h34.32.060,LearnStrategy,2023.2.3,Win32,143.6781609,1,1,11,-0.533333333,0.226388889,1,0,0,0.897,Pumice_09,8,09,5,1,0.897,0.341666667,-0.386111111,1,0,0,1.344,Pumice_rect,8,1.344,1,10,0,10,0,1,,,,,,,,,,,,,
6568ead5dfb561c3ba7850a4,SCN,2024-06-24_14h34.32.060,LearnStrategy,2023.2.3,Win32,143.6781609,1,1,12,-0.233333333,0.444444444,1,0,0,1.028,Obsidian_12,5,12,6,3,1.028,-0.421527778,-0.400694444,1,0,0,1.229,Obsidian_rect,5,1.229,1,11,0,11,0,1,,,,,,,,,,,,,
6568ead5dfb561c3ba7850a4,SCN,2024-06-24_14h34.32.060,LearnStrategy,2023.2.3,Win32,143.6781609,1,1,13,0.545138889,0.229166667,1,0,0,2.486,Basalt_14,2,14,5,8,2.486,-0.102083333,-0.2625,1,0,0,2.136,Basalt_rect,2,2.136,1,12,0,12,0,1,,,,,,,,,,,,,
6568ead5dfb561c3ba7850a4,SCN,2024-06-24_14h34.32.060,LearnStrategy,2023.2.3,Win32,143.6781609,1,1,14,-0.258333333,0.113194444,1,0,0,3.843,Gabbro_13,4,13,4,3,3.843,-0.052083333,-0.236111111,1,0,0,1.149,Basalt_rect,2,1.149,0,13,0,13,0,1,,,,,,,,,,,,,
6568ead5dfb561c3ba7850a4,SCN,2024-06-24_14h34.32.060,LearnStrategy,2023.2.3,Win32,143.6781609,1,1,15,0.098611111,0.084027778,1,0,0,1.237,Gabbro_14,4,14,4,5,1.237,0.406944444,-0.270833333,1,0,0,2.385,Gabbro_rect,4,2.385,1,14,0,14,0,1,,,,,,,,,,,,,
6568ead5dfb561c3ba7850a4,SCN,2024-06-24_14h34.32.060,LearnStrategy,2023.2.3,Win32,143.6781609,1,1,16,-0.196527778,0.263888889,1,0,0,9.398,Basalt_09,2,09,5,3,9.398,-0.376388889,-0.238888889,1,0,0,3.987,Andesite_rect,1,3.987,0,15,0,15,0,1,,,,,,,,,,,,,
6568ead5dfb561c3ba7850a4,SCN,2024-06-24_14h34.32.060,LearnStrategy,2023.2.3,Win32,143.6781609,1,2,1,,,,,,,,1,01,,,,,,,,,,,3,6.978,0,,,,,,0.186805556,-0.244444444,1,0,0,6.978,Diorite_rect,0,0,0,0,1,
6568ead5dfb561c3ba7850a4,SCN,2024-06-24_14h34.32.060,LearnStrategy,2023.2.3,Win32,143.6781609,1,2,2,,,,,,,,4,10,,,,,,,,,,,6,9.747,0,,,,,,-0.09375,-0.391666667,1,0,0,9.747,Pegmatite_rect,1,0,1,0,1,
6568ead5dfb561c3ba7850a4,SCN,2024-06-24_14h34.32.060,LearnStrategy,2023.2.3,Win32,143.6781609,1,2,3,,,,,,,,2,06,,,,,,,,,,,6,6.206,0,,,,,,-0.111111111,-0.4,1,0,0,6.206,Pegmatite_rect,2,0,2,0,1,
6568ead5dfb561c3ba7850a4,SCN,2024-06-24_14h34.32.060,LearnStrategy,2023.2.3,Win32,143.6781609,1,2,4,,,,,,,,3,12,,,,,,,,,,,3,1.377,1,,,,,,0.093055556,-0.232638889,1,0,0,1.377,Diorite_rect,3,0,3,0,1,
6568ead5dfb561c3ba7850a4,SCN,2024-06-24_14h34.32.060,LearnStrategy,2023.2.3,Win32,143.6781609,1,2,5,,,,,,,,2,02,,,,,,,,,,,2,6.549,1,,,,,,-0.117361111,-0.257638889,1,0,0,6.549,Basalt_rect,4,0,4,0,1,
6568ead5dfb561c3ba7850a4,SCN,2024-06-24_14h34.32.060,LearnStrategy,2023.2.3,Win32,143.6781609,1,2,6,,,,,,,,8,10,,,,,,,,,,,8,3.618,1,,,,,,0.3125,-0.393055556,1,0,0,3.618,Pumice_rect,5,0,5,0,1,
6568ead5dfb561c3ba7850a4,SCN,2024-06-24_14h34.32.060,LearnStrategy,2023.2.3,Win32,143.6781609,1,2,7,,,,,,,,7,14,,,,,,,,,,,7,2.716,1,,,,,,0.120138889,-0.398611111,1,0,0,2.716,Peridotite_rect,6,0,6,0,1,
6568ead5dfb561c3ba7850a4,SCN,2024-06-24_14h34.32.060,LearnStrategy,2023.2.3,Win32,143.6781609,1,2,8,,,,,,,,6,12,,,,,,,,,,,3,3.425,0,,,,,,0.065972222,-0.243055556,1,0,0,3.425,Diorite_rect,7,0,7,0,1,
6568ead5dfb561c3ba7850a4,SCN,2024-06-24_14h34.32.060,LearnStrategy,2023.2.3,Win32,143.6781609,1,2,9,,,,,,,,8,15,,,,,,,,,,,8,2.007,1,,,,,,0.311111111,-0.381944444,1,0,0,2.007,Pumice_rect,8,0,8,0,1,
6568ead5dfb561c3ba7850a4,SCN,2024-06-24_14h34.32.060,LearnStrategy,2023.2.3,Win32,143.6781609,1,2,10,,,,,,,,3,09,,,,,,,,,,,3,3.241,1,,,,,,0.071527778,-0.249305556,1,0,0,3.241,Diorite_rect,9,0,9,0,1,
6568ead5dfb561c3ba7850a4,SCN,2024-06-24_14h34.32.060,LearnStrategy,2023.2.3,Win32,143.6781609,1,2,11,,,,,,,,6,09,,,,,,,,,,,4,5.874,0,,,,,,0.380555556,-0.267361111,1,0,0,5.874,Gabbro_rect,10,0,10,0,1,
6568ead5dfb561c3ba7850a4,SCN,2024-06-24_14h34.32.060,LearnStrategy,2023.2.3,Win32,143.6781609,1,2,12,,,,,,,,7,02,,,,,,,,,,,6,5.283,0,,,,,,-0.109027778,-0.39375,1,0,0,5.283,Pegmatite_rect,11,0,11,0,1,
6568ead5dfb561c3ba7850a4,SCN,2024-06-24_14h34.32.060,LearnStrategy,2023.2.3,Win32,143.6781609,1,2,13,,,,,,,,1,10,,,,,,,,,,,2,2.783,0,,,,,,-0.079166667,-0.25625,1,0,0,2.783,Basalt_rect,12,0,12,0,1,
6568ead5dfb561c3ba7850a4,SCN,2024-06-24_14h34.32.060,LearnStrategy,2023.2.3,Win32,143.6781609,1,2,14,,,,,,,,4,08,,,,,,,,,,,6,8.96,0,,,,,,-0.117361111,-0.395138889,1,0,0,8.96,Pegmatite_rect,13,0,13,0,1,
6568ead5dfb561c3ba7850a4,SCN,2024-06-24_14h34.32.060,LearnStrategy,2023.2.3,Win32,143.6781609,1,2,15,,,,,,,,5,09,,,,,,,,,,,5,1.375,1,,,,,,-0.440277778,-0.393055556,1,0,0,1.375,Obsidian_rect,14,0,14,0,1,
6568ead5dfb561c3ba7850a4,SCN,2024-06-24_14h34.32.060,LearnStrategy,2023.2.3,Win32,143.6781609,1,2,16,,,,,,,,5,04,,,,,,,,,,,5,0.893,1,,,,,,-0.440277778,-0.393055556,1,0,0,0.893,Obsidian_rect,15,0,15,0,1,
6568ead5dfb561c3ba7850a4,SCN,2024-06-24_14h34.32.060,LearnStrategy,2023.2.3,Win32,143.6781609,2,1,1,0.254166667,0.388194444,1,0,0,2.784,Diorite_06,3,06,6,6,2.784,0.230555556,-0.235416667,1,0,0,1.168,Diorite_rect,3,1.168,1,0,0,0,0,1,,,,,,,,,,,,,
6568ead5dfb561c3ba7850a4,SCN,2024-06-24_14h34.32.060,LearnStrategy,2023.2.3,Win32,143.6781609,2,1,2,0.58125,0.228472222,1,0,0,3.405,Basalt_14,2,14,5,8,3.405,-0.119444444,-0.265277778,1,0,0,1.031,Basalt_rect,2,1.031,1,1,0,1,0,1,,,,,,,,,,,,,
6568ead5dfb561c3ba7850a4,SCN,2024-06-24_14h34.32.060,LearnStrategy,2023.2.3,Win32,143.6781609,2,1,3,0.20625,0.089583333,1,0,0,1.945,Pegmatite_16,6,16,4,6,1.945,-0.05625,-0.392361111,1,0,0,0.976,Pegmatite_rect,6,0.976,1,2,0,2,0,1,,,,,,,,,,,,,
6568ead5dfb561c3ba7850a4,SCN,2024-06-24_14h34.32.060,LearnStrategy,2023.2.3,Win32,143.6781609,2,1,4,0.547222222,0.081944444,1,0,0,2.078,Diorite_16,3,16,4,8,2.078,0.159722222,-0.236111111,1,0,0,1.707,Diorite_rect,3,1.707,1,3,0,3,0,1,,,,,,,,,,,,,
6568ead5dfb561c3ba7850a4,SCN,2024-06-24_14h34.32.060,LearnStrategy,2023.2.3,Win32,143.6781609,2,1,5,-0.557638889,0.089583333,1,0,0,2.391,Diorite_02,3,02,4,1,2.391,-0.184027778,-0.386805556,1,0,0,1.103,Pegmatite_rect,6,1.103,0,4,0,4,0,1,,,,,,,,,,,,,
6568ead5dfb561c3ba7850a4,SCN,2024-06-24_14h34.32.060,LearnStrategy,2023.2.3,Win32,143.6781609,2,1,6,0.247916667,-0.445138889,1,0,0,1.209,Peridotite_06,7,06,1,6,1.209,-0.068055556,-0.396527778,1,0,0,1.465,Pegmatite_rect,6,1.465,0,5,0,5,0,1,,,,,,,,,,,,,
6568ead5dfb561c3ba7850a4,SCN,2024-06-24_14h34.32.060,LearnStrategy,2023.2.3,Win32,143.6781609,2,1,7,0.511805556,-0.422916667,1,0,0,2.835,Pegmatite_03,6,03,1,8,2.835,0.139583333,-0.394444444,1,0,0,1.296,Peridotite_rect,7,1.296,0,6,0,6,0,1,,,,,,,,,,,,,
6568ead5dfb561c3ba7850a4,SCN,2024-06-24_14h34.32.060,LearnStrategy,2023.2.3,Win32,143.6781609,2,1,8,0.233333333,-0.442361111,1,0,0,2.613,Peridotite_06,7,06,1,6,2.613,-0.113888889,-0.385416667,1,0,0,1.775,Pegmatite_rect,6,1.775,0,7,0,7,0,1,,,,,,,,,,,,,
6568ead5dfb561c3ba7850a4,SCN,2024-06-24_14h34.32.060,LearnStrategy,2023.2.3,Win32,143.6781609,2,1,9,0.527083333,-0.405555556,1,0,0,0.994,Pegmatite_03,6,03,1,8,0.994,-0.100694444,-0.384722222,1,0,0,1.262,Pegmatite_rect,6,1.262,1,8,0,8,0,1,,,,,,,,,,,,,
6568ead5dfb561c3ba7850a4,SCN,2024-06-24_14h34.32.060,LearnStrategy,2023.2.3,Win32,143.6781609,2,1,10,0.567361111,-0.39375,1,0,0,1.126,Pegmatite_03,6,03,1,8,1.126,-0.096527778,-0.38125,1,0,0,0.903,Pegmatite_rect,6,0.903,1,9,0,9,0,1,,,,,,,,,,,,,
6568ead5dfb561c3ba7850a4,SCN,2024-06-24_14h34.32.060,LearnStrategy,2023.2.3,Win32,143.6781609,2,1,11,-0.525,-0.422222222,1,0,0,1.23,Pegmatite_15,6,15,1,1,1.23,0.183333333,-0.4,1,0,0,2.335,Peridotite_rect,7,2.335,0,10,0,10,0,1,,,,,,,,,,,,,
6568ead5dfb561c3ba7850a4,SCN,2024-06-24_14h34.32.060,LearnStrategy,2023.2.3,Win32,143.6781609,2,1,12,-0.404166667,-0.060416667,1,0,0,1.743,Pegmatite_10,6,10,3,2,1.743,0.152777778,-0.406944444,1,0,0,3.136,Peridotite_rect,7,3.136,0,11,0,11,0,1,,,,,,,,,,,,,
6568ead5dfb561c3ba7850a4,SCN,2024-06-24_14h34.32.060,LearnStrategy,2023.2.3,Win32,143.6781609,2,1,13,0.091666667,-0.109027778,1,0,0,2.439,Peridotite_08,7,08,3,5,2.439,-0.113888889,-0.403472222,1,0,0,1.699,Pegmatite_rect,6,1.699,0,12,0,12,0,1,,,,,,,,,,,,,
6568ead5dfb561c3ba7850a4,SCN,2024-06-24_14h34.32.060,LearnStrategy,2023.2.3,Win32,143.6781609,2,1,14,0.253472222,-0.415972222,1,0,0,2.218,Peridotite_06,7,06,1,6,2.218,0.175694444,-0.419444444,1,0,0,0.83,Peridotite_rect,7,0.83,1,13,0,13,0,1,,,,,,,,,,,,,
6568ead5dfb561c3ba7850a4,SCN,2024-06-24_14h34.32.060,LearnStrategy,2023.2.3,Win32,143.6781609,2,1,15,-0.386805556,-0.288888889,1,0,0,3.447,Pegmatite_07,6,07,2,2,3.447,-0.134722222,-0.397916667,1,0,0,1.151,Pegmatite_rect,6,1.151,1,14,0,14,0,1,,,,,,,,,,,,,
6568ead5dfb561c3ba7850a4,SCN,2024-06-24_14h34.32.060,LearnStrategy,2023.2.3,Win32,143.6781609,2,1,16,-0.359722222,-0.111805556,1,0,0,2.307,Pegmatite_10,6,10,3,2,2.307,-0.186111111,-0.403472222,1,0,0,1.855,Pegmatite_rect,6,1.855,1,15,0,15,0,1,,,,,,,,,,,,,
6568ead5dfb561c3ba7850a4,SCN,2024-06-24_14h34.32.060,LearnStrategy,2023.2.3,Win32,143.6781609,2,2,1,,,,,,,,2,05,,,,,,,,,,,2,6.283,1,,,,,,-0.08125,-0.251388889,1,0,0,6.283,Basalt_rect,0,0,0,0,1,
6568ead5dfb561c3ba7850a4,SCN,2024-06-24_14h34.32.060,LearnStrategy,2023.2.3,Win32,143.6781609,2,2,2,,,,,,,,8,14,,,,,,,,,,,8,1.916,1,,,,,,0.394444444,-0.390277778,1,0,0,1.916,Pumice_rect,1,0,1,0,1,
6568ead5dfb561c3ba7850a4,SCN,2024-06-24_14h34.32.060,LearnStrategy,2023.2.3,Win32,143.6781609,2,2,3,,,,,,,,6,11,,,,,,,,,,,6,2.88,1,,,,,,-0.063194444,-0.39375,1,0,0,2.88,Pegmatite_rect,2,0,2,0,1,
6568ead5dfb561c3ba7850a4,SCN,2024-06-24_14h34.32.060,LearnStrategy,2023.2.3,Win32,143.6781609,2,2,4,,,,,,,,6,06,,,,,,,,,,,4,7.21,0,,,,,,0.375694444,-0.23125,1,0,0,7.21,Gabbro_rect,3,0,3,0,1,
6568ead5dfb561c3ba7850a4,SCN,2024-06-24_14h34.32.060,LearnStrategy,2023.2.3,Win32,143.6781609,2,2,5,,,,,,,,4,09,,,,,,,,,,,2,2.097,0,,,,,,-0.069444444,-0.233333333,1,0,0,2.097,Basalt_rect,4,0,4,0,1,
6568ead5dfb561c3ba7850a4,SCN,2024-06-24_14h34.32.060,LearnStrategy,2023.2.3,Win32,143.6781609,2,2,6,,,,,,,,7,07,,,,,,,,,,,7,2.265,1,,,,,,0.163888889,-0.407638889,1,0,0,2.265,Peridotite_rect,5,0,5,0,1,
6568ead5dfb561c3ba7850a4,SCN,2024-06-24_14h34.32.060,LearnStrategy,2023.2.3,Win32,143.6781609,2,2,7,,,,,,,,5,08,,,,,,,,,,,5,1.147,1,,,,,,-0.376388889,-0.405555556,1,0,0,1.147,Obsidian_rect,6,0,6,0,1,
6568ead5dfb561c3ba7850a4,SCN,2024-06-24_14h34.32.060,LearnStrategy,2023.2.3,Win32,143.6781609,2,2,8,,,,,,,,4,16,,,,,,,,,,,2,1.946,0,,,,,,-0.177083333,-0.233333333,1,0,0,1.946,Basalt_rect,7,0,7,0,1,
6568ead5dfb561c3ba7850a4,SCN,2024-06-24_14h34.32.060,LearnStrategy,2023.2.3,Win32,143.6781609,2,2,9,,,,,,,,7,05,,,,,,,,,,,7,2.145,1,,,,,,0.101388889,-0.415277778,1,0,0,2.145,Peridotite_rect,8,0,8,0,1,
6568ead5dfb561c3ba7850a4,SCN,2024-06-24_14h34.32.060,LearnStrategy,2023.2.3,Win32,143.6781609,2,2,10,,,,,,,,3,15,,,,,,,,,,,3,1.58,1,,,,,,0.120138889,-0.254166667,1,0,0,1.58,Diorite_rect,9,0,9,0,1,
6568ead5dfb561c3ba7850a4,SCN,2024-06-24_14h34.32.060,LearnStrategy,2023.2.3,Win32,143.6781609,2,2,11,,,,,,,,3,11,,,,,,,,,,,3,2.119,1,,,,,,0.120138889,-0.254166667,1,0,0,2.119,Diorite_rect,10,0,10,0,1,
6568ead5dfb561c3ba7850a4,SCN,2024-06-24_14h34.32.060,LearnStrategy,2023.2.3,Win32,143.6781609,2,2,12,,,,,,,,2,08,,,,,,,,,,,2,2.367,1,,,,,,-0.136805556,-0.256944444,1,0,0,2.367,Basalt_rect,11,0,11,0,1,
6568ead5dfb561c3ba7850a4,SCN,2024-06-24_14h34.32.060,LearnStrategy,2023.2.3,Win32,143.6781609,2,2,13,,,,,,,,5,07,,,,,,,,,,,5,2.17,1,,,,,,-0.440972222,-0.399305556,1,0,0,2.17,Obsidian_rect,12,0,12,0,1,
6568ead5dfb561c3ba7850a4,SCN,2024-06-24_14h34.32.060,LearnStrategy,2023.2.3,Win32,143.6781609,2,2,14,,,,,,,,1,14,,,,,,,,,,,3,5.661,0,,,,,,0.040277778,-0.245138889,1,0,0,5.661,Diorite_rect,13,0,13,0,1,
6568ead5dfb561c3ba7850a4,SCN,2024-06-24_14h34.32.060,LearnStrategy,2023.2.3,Win32,143.6781609,2,2,15,,,,,,,,1,09,,,,,,,,,,,1,4.957,1,,,,,,-0.427777778,-0.245833333,1,0,0,4.957,Andesite_rect,14,0,14,0,1,
6568ead5dfb561c3ba7850a4,SCN,2024-06-24_14h34.32.060,LearnStrategy,2023.2.3,Win32,143.6781609,2,2,16,,,,,,,,8,02,,,,,,,,,,,8,1.906,1,,,,,,0.394444444,-0.402777778,1,0,0,1.906,Pumice_rect,15,0,15,0,1,
6568ead5dfb561c3ba7850a4,SCN,2024-06-24_14h34.32.060,LearnStrategy,2023.2.3,Win32,143.6781609,3,1,1,-0.534722222,-0.263194444,1,0,0,4.399,Peridotite_15,7,15,2,1,4.399,-0.421527778,-0.265277778,1,0,0,1.489,Andesite_rect,1,1.489,0,0,0,0,0,1,,,,,,,,,,,,,
6568ead5dfb561c3ba7850a4,SCN,2024-06-24_14h34.32.060,LearnStrategy,2023.2.3,Win32,143.6781609,3,1,2,0.365277778,-0.225694444,1,0,0,1.299,Peridotite_13,7,13,2,7,1.299,0.079166667,-0.396527778,1,0,0,2.068,Peridotite_rect,7,2.068,1,1,0,1,0,1,,,,,,,,,,,,,
6568ead5dfb561c3ba7850a4,SCN,2024-06-24_14h34.32.060,LearnStrategy,2023.2.3,Win32,143.6781609,3,1,3,0.509722222,-0.389583333,1,0,0,2.313,Pegmatite_03,6,03,1,8,2.313,-0.124305556,-0.416666667,1,0,0,0.923,Pegmatite_rect,6,0.923,1,2,0,2,0,1,,,,,,,,,,,,,
6568ead5dfb561c3ba7850a4,SCN,2024-06-24_14h34.32.060,LearnStrategy,2023.2.3,Win32,143.6781609,3,1,4,-0.247222222,-0.249305556,1,0,0,1.731,Andesite_04,1,04,2,3,1.731,-0.359027778,-0.241666667,1,0,0,1.008,Andesite_rect,1,1.008,1,3,0,3,0,1,,,,,,,,,,,,,
6568ead5dfb561c3ba7850a4,SCN,2024-06-24_14h34.32.060,LearnStrategy,2023.2.3,Win32,143.6781609,3,1,5,-0.220833333,-0.122222222,1,0,0,4.01,Andesite_02,1,02,3,3,4.01,-0.352777778,-0.252083333,1,0,0,2.51,Andesite_rect,1,2.51,1,4,0,4,0,1,,,,,,,,,,,,,
6568ead5dfb561c3ba7850a4,SCN,2024-06-24_14h34.32.060,LearnStrategy,2023.2.3,Win32,143.6781609,3,1,6,0.084722222,0.39375,1,0,0,2.334,Basalt_04,2,04,6,5,2.334,-0.166666667,-0.247916667,1,0,0,0.785,Basalt_rect,2,0.785,1,5,0,5,0,1,,,,,,,,,,,,,
6568ead5dfb561c3ba7850a4,SCN,2024-06-24_14h34.32.060,LearnStrategy,2023.2.3,Win32,143.6781609,3,1,7,-0.195833333,0.242361111,1,0,0,1.681,Basalt_09,2,09,5,3,1.681,-0.081944444,-0.249305556,1,0,0,1.002,Basalt_rect,2,1.002,1,6,0,6,0,1,,,,,,,,,,,,,
6568ead5dfb561c3ba7850a4,SCN,2024-06-24_14h34.32.060,LearnStrategy,2023.2.3,Win32,143.6781609,3,1,8,0.577083333,0.413194444,1,0,0,1.083,Gabbro_12,4,12,6,8,1.083,-0.089583333,-0.235416667,1,0,0,0.782,Basalt_rect,2,0.782,0,7,0,7,0,1,,,,,,,,,,,,,
6568ead5dfb561c3ba7850a4,SCN,2024-06-24_14h34.32.060,LearnStrategy,2023.2.3,Win32,143.6781609,3,1,9,-0.245833333,0.228472222,1,0,0,3.746,Basalt_09,2,09,5,3,3.746,0.345833333,-0.254861111,1,0,0,3.018,Gabbro_rect,4,3.018,0,8,0,8,0,1,,,,,,,,,,,,,
6568ead5dfb561c3ba7850a4,SCN,2024-06-24_14h34.32.060,LearnStrategy,2023.2.3,Win32,143.6781609,3,1,10,-0.377777778,0.376388889,1,0,0,1.592,Basalt_12,2,12,6,2,1.592,0.381944444,-0.393055556,1,0,0,2.861,Pumice_rect,8,2.861,0,9,0,9,0,1,,,,,,,,,,,,,
6568ead5dfb561c3ba7850a4,SCN,2024-06-24_14h34.32.060,LearnStrategy,2023.2.3,Win32,143.6781609,3,1,11,-0.201388889,0.086805556,1,0,0,5.087,Gabbro_13,4,13,4,3,5.087,-0.331944444,-0.259027778,1,0,0,1.622,Andesite_rect,1,1.622,0,10,0,10,0,1,,,,,,,,,,,,,
6568ead5dfb561c3ba7850a4,SCN,2024-06-24_14h34.32.060,LearnStrategy,2023.2.3,Win32,143.6781609,3,1,12,0.084722222,0.092361111,1,0,0,1.543,Gabbro_14,4,14,4,5,1.543,0.396527778,-0.263194444,1,0,0,1.237,Gabbro_rect,4,1.237,1,11,0,11,0,1,,,,,,,,,,,,,
6568ead5dfb561c3ba7850a4,SCN,2024-06-24_14h34.32.060,LearnStrategy,2023.2.3,Win32,143.6781609,3,1,13,0.559722222,0.275,1,0,0,1.8,Basalt_14,2,14,5,8,1.8,0.428472222,-0.252777778,1,0,0,2.182,Gabbro_rect,4,2.182,0,12,0,12,0,1,,,,,,,,,,,,,
6568ead5dfb561c3ba7850a4,SCN,2024-06-24_14h34.32.060,LearnStrategy,2023.2.3,Win32,143.6781609,3,1,14,-0.101388889,-0.090972222,1,0,0,3.801,Gabbro_11,4,11,3,4,3.801,-0.090972222,-0.248611111,1,0,0,0.951,Basalt_rect,2,0.951,0,13,0,13,0,1,,,,,,,,,,,,,
6568ead5dfb561c3ba7850a4,SCN,2024-06-24_14h34.32.060,LearnStrategy,2023.2.3,Win32,143.6781609,3,1,15,0.06875,-0.104166667,1,0,0,1.411,Peridotite_08,7,08,3,5,1.411,0.160416667,-0.400694444,1,0,0,3.159,Peridotite_rect,7,3.159,1,14,0,14,0,1,,,,,,,,,,,,,
6568ead5dfb561c3ba7850a4,SCN,2024-06-24_14h34.32.060,LearnStrategy,2023.2.3,Win32,143.6781609,3,1,16,-0.384722222,-0.425,1,0,0,1.556,Basalt_01,2,01,1,2,1.556,-0.097916667,-0.238194444,1,0,0,0.781,Basalt_rect,2,0.781,1,15,0,15,0,1,,,,,,,,,,,,,
6568ead5dfb561c3ba7850a4,SCN,2024-06-24_14h34.32.060,LearnStrategy,2023.2.3,Win32,143.6781609,3,2,1,,,,,,,,1,16,,,,,,,,,,,4,21.328,0,,,,,,0.352777778,-0.254166667,1,0,0,21.328,Gabbro_rect,0,0,0,0,1,
6568ead5dfb561c3ba7850a4,SCN,2024-06-24_14h34.32.060,LearnStrategy,2023.2.3,Win32,143.6781609,3,2,2,,,,,,,,1,06,,,,,,,,,,,4,4.694,0,,,,,,0.428472222,-0.239583333,1,0,0,4.694,Gabbro_rect,1,0,1,0,1,
6568ead5dfb561c3ba7850a4,SCN,2024-06-24_14h34.32.060,LearnStrategy,2023.2.3,Win32,143.6781609,3,2,3,,,,,,,,5,02,,,,,,,,,,,5,1.376,1,,,,,,-0.366666667,-0.378472222,1,0,0,1.376,Obsidian_rect,2,0,2,0,1,
6568ead5dfb561c3ba7850a4,SCN,2024-06-24_14h34.32.060,LearnStrategy,2023.2.3,Win32,143.6781609,3,2,4,,,,,,,,4,15,,,,,,,,,,,4,9.703,1,,,,,,0.429861111,-0.254861111,1,0,0,9.703,Gabbro_rect,3,0,3,0,1,
6568ead5dfb561c3ba7850a4,SCN,2024-06-24_14h34.32.060,LearnStrategy,2023.2.3,Win32,143.6781609,3,2,5,,,,,,,,8,13,,,,,,,,,,,1,7.466,0,,,,,,-0.396527778,-0.25,1,0,0,7.466,Andesite_rect,4,0,4,0,1,
6568ead5dfb561c3ba7850a4,SCN,2024-06-24_14h34.32.060,LearnStrategy,2023.2.3,Win32,143.6781609,3,2,6,,,,,,,,8,16,,,,,,,,,,,2,5.43,0,,,,,,-0.125694444,-0.265277778,1,0,0,5.43,Basalt_rect,5,0,5,0,1,
6568ead5dfb561c3ba7850a4,SCN,2024-06-24_14h34.32.060,LearnStrategy,2023.2.3,Win32,143.6781609,3,2,7,,,,,,,,5,10,,,,,,,,,,,5,2.144,1,,,,,,-0.335416667,-0.386111111,1,0,0,2.144,Obsidian_rect,6,0,6,0,1,
6568ead5dfb561c3ba7850a4,SCN,2024-06-24_14h34.32.060,LearnStrategy,2023.2.3,Win32,143.6781609,3,2,8,,,,,,,,3,08,,,,,,,,,,,3,3.681,1,,,,,,0.080555556,-0.233333333,1,0,0,3.681,Diorite_rect,7,0,7,0,1,
6568ead5dfb561c3ba7850a4,SCN,2024-06-24_14h34.32.060,LearnStrategy,2023.2.3,Win32,143.6781609,3,2,9,,,,,,,,2,10,,,,,,,,,,,2,1.576,1,,,,,,-0.060416667,-0.261805556,1,0,0,1.576,Basalt_rect,8,0,8,0,1,
6568ead5dfb561c3ba7850a4,SCN,2024-06-24_14h34.32.060,LearnStrategy,2023.2.3,Win32,143.6781609,3,2,10,,,,,,,,2,16,,,,,,,,,,,2,3.043,1,,,,,,-0.067361111,-0.252777778,1,0,0,3.043,Basalt_rect,9,0,9,0,1,
6568ead5dfb561c3ba7850a4,SCN,2024-06-24_14h34.32.060,LearnStrategy,2023.2.3,Win32,143.6781609,3,2,11,,,,,,,,7,16,,,,,,,,,,,6,4.111,0,,,,,,-0.055555556,-0.380555556,1,0,0,4.111,Pegmatite_rect,10,0,10,0,1,
6568ead5dfb561c3ba7850a4,SCN,2024-06-24_14h34.32.060,LearnStrategy,2023.2.3,Win32,143.6781609,3,2,12,,,,,,,,3,10,,,,,,,,,,,3,2.572,1,,,,,,0.136111111,-0.259722222,1,0,0,2.572,Diorite_rect,11,0,11,0,1,
6568ead5dfb561c3ba7850a4,SCN,2024-06-24_14h34.32.060,LearnStrategy,2023.2.3,Win32,143.6781609,3,2,13,,,,,,,,6,08,,,,,,,,,,,7,6.425,0,,,,,,0.193055556,-0.397222222,1,0,0,6.425,Peridotite_rect,12,0,12,0,1,
6568ead5dfb561c3ba7850a4,SCN,2024-06-24_14h34.32.060,LearnStrategy,2023.2.3,Win32,143.6781609,3,2,14,,,,,,,,6,13,,,,,,,,,,,7,2.345,0,,,,,,0.193055556,-0.397222222,1,0,0,2.345,Peridotite_rect,13,0,13,0,1,
6568ead5dfb561c3ba7850a4,SCN,2024-06-24_14h34.32.060,LearnStrategy,2023.2.3,Win32,143.6781609,3,2,15,,,,,,,,4,03,,,,,,,,,,,1,8.48,0,,,,,,-0.365277778,-0.2375,1,0,0,8.48,Andesite_rect,14,0,14,0,1,
6568ead5dfb561c3ba7850a4,SCN,2024-06-24_14h34.32.060,LearnStrategy,2023.2.3,Win32,143.6781609,3,2,16,,,,,,,,7,12,,,,,,,,,,,7,3.71,1,,,,,,0.107638889,-0.401388889,1,0,0,3.71,Peridotite_rect,15,0,15,0,1,
6568ead5dfb561c3ba7850a4,SCN,2024-06-24_14h34.32.060,LearnStrategy,2023.2.3,Win32,143.6781609,4,1,1,-0.536805556,0.101388889,1,0,0,4.607,Diorite_02,3,02,4,1,4.607,0.111111111,-0.246527778,1,0,0,1.316,Diorite_rect,3,1.316,1,0,0,0,0,1,,,,,,,,,,,,,
6568ead5dfb561c3ba7850a4,SCN,2024-06-24_14h34.32.060,LearnStrategy,2023.2.3,Win32,143.6781609,4,1,2,0.379861111,0.106944444,1,0,0,1.355,Obsidian_11,5,11,4,7,1.355,-0.371527778,-0.386111111,1,0,0,1.451,Obsidian_rect,5,1.451,1,1,0,1,0,1,,,,,,,,,,,,,
6568ead5dfb561c3ba7850a4,SCN,2024-06-24_14h34.32.060,LearnStrategy,2023.2.3,Win32,143.6781609,4,1,3,0.070138889,-0.222222222,1,0,0,1.021,Basalt_11,2,11,2,5,1.021,-0.373611111,-0.238888889,1,0,0,1.529,Andesite_rect,1,1.529,0,2,0,2,0,1,,,,,,,,,,,,,
6568ead5dfb561c3ba7850a4,SCN,2024-06-24_14h34.32.060,LearnStrategy,2023.2.3,Win32,143.6781609,4,1,4,0.522916667,-0.060416667,1,0,0,1.431,Obsidian_06,5,06,3,8,1.431,-0.345138889,-0.401388889,1,0,0,1.366,Obsidian_rect,5,1.366,1,3,0,3,0,1,,,,,,,,,,,,,
6568ead5dfb561c3ba7850a4,SCN,2024-06-24_14h34.32.060,LearnStrategy,2023.2.3,Win32,143.6781609,4,1,5,0.053472222,-0.378472222,1,0,0,1.265,Pumice_05,8,05,1,5,1.265,-0.409027778,-0.2375,1,0,0,1.477,Andesite_rect,1,1.477,0,4,0,4,0,1,,,,,,,,,,,,,
6568ead5dfb561c3ba7850a4,SCN,2024-06-24_14h34.32.060,LearnStrategy,2023.2.3,Win32,143.6781609,4,1,6,0.211805556,-0.3875,1,0,0,1.479,Peridotite_06,7,06,1,6,1.479,0.088888889,-0.380555556,1,0,0,1.71,Peridotite_rect,7,1.71,1,5,0,5,0,1,,,,,,,,,,,,,
6568ead5dfb561c3ba7850a4,SCN,2024-06-24_14h34.32.060,LearnStrategy,2023.2.3,Win32,143.6781609,4,1,7,0.50625,-0.384027778,1,0,0,0.791,Pegmatite_03,6,03,1,8,0.791,-0.143055556,-0.402777778,1,0,0,0.81,Pegmatite_rect,6,0.81,1,6,0,6,0,1,,,,,,,,,,,,,
6568ead5dfb561c3ba7850a4,SCN,2024-06-24_14h34.32.060,LearnStrategy,2023.2.3,Win32,143.6781609,4,1,8,-0.091666667,-0.2625,1,0,0,1.883,Andesite_07,1,07,2,4,1.883,0.088194444,-0.252083333,1,0,0,1.939,Diorite_rect,3,1.939,0,7,0,7,0,1,,,,,,,,,,,,,
6568ead5dfb561c3ba7850a4,SCN,2024-06-24_14h34.32.060,LearnStrategy,2023.2.3,Win32,143.6781609,4,1,9,-0.520833333,0.06875,1,0,0,3.438,Diorite_02,3,02,4,1,3.438,-0.336805556,-0.243055556,1,0,0,0.913,Andesite_rect,1,0.913,0,8,0,8,0,1,,,,,,,,,,,,,
6568ead5dfb561c3ba7850a4,SCN,2024-06-24_14h34.32.060,LearnStrategy,2023.2.3,Win32,143.6781609,4,1,10,-0.415277778,0.261805556,1,0,0,1.056,Diorite_07,3,07,5,2,1.056,-0.401388889,-0.250694444,1,0,0,0.899,Andesite_rect,1,0.899,0,9,0,9,0,1,,,,,,,,,,,,,
6568ead5dfb561c3ba7850a4,SCN,2024-06-24_14h34.32.060,LearnStrategy,2023.2.3,Win32,143.6781609,4,1,11,0.225694444,0.402777778,1,0,0,2.292,Diorite_06,3,06,6,6,2.292,-0.368055556,-0.261111111,1,0,0,1.83,Andesite_rect,1,1.83,0,10,0,10,0,1,,,,,,,,,,,,,
6568ead5dfb561c3ba7850a4,SCN,2024-06-24_14h34.32.060,LearnStrategy,2023.2.3,Win32,143.6781609,4,1,12,0.593055556,0.086111111,1,0,0,4.274,Diorite_16,3,16,4,8,4.274,-0.443055556,-0.229861111,1,0,0,1.412,Andesite_rect,1,1.412,0,11,0,11,0,1,,,,,,,,,,,,,
6568ead5dfb561c3ba7850a4,SCN,2024-06-24_14h34.32.060,LearnStrategy,2023.2.3,Win32,143.6781609,4,1,13,-0.24375,-0.097916667,1,0,0,1.536,Andesite_02,1,02,3,3,1.536,-0.377777778,-0.245138889,1,0,0,2.08,Andesite_rect,1,2.08,1,12,0,12,0,1,,,,,,,,,,,,,
6568ead5dfb561c3ba7850a4,SCN,2024-06-24_14h34.32.060,LearnStrategy,2023.2.3,Win32,143.6781609,4,1,14,-0.081944444,-0.274305556,1,0,0,3.669,Andesite_07,1,07,2,4,3.669,-0.388194444,-0.244444444,1,0,0,1.52,Andesite_rect,1,1.52,1,13,0,13,0,1,,,,,,,,,,,,,
6568ead5dfb561c3ba7850a4,SCN,2024-06-24_14h34.32.060,LearnStrategy,2023.2.3,Win32,143.6781609,4,1,15,-0.34375,-0.127083333,1,0,0,1.89,Pegmatite_10,6,10,3,2,1.89,0.059722222,-0.3875,1,0,0,1.454,Peridotite_rect,7,1.454,0,14,0,14,0,1,,,,,,,,,,,,,
6568ead5dfb561c3ba7850a4,SCN,2024-06-24_14h34.32.060,LearnStrategy,2023.2.3,Win32,143.6781609,4,1,16,-0.540277778,-0.211805556,1,0,0,5.081,Peridotite_15,7,15,2,1,5.081,0.154166667,-0.390972222,1,0,0,0.887,Peridotite_rect,7,0.887,1,15,0,15,0,1,,,,,,,,,,,,,
6568ead5dfb561c3ba7850a4,SCN,2024-06-24_14h34.32.060,LearnStrategy,2023.2.3,Win32,143.6781609,4,2,1,,,,,,,,5,08,,,,,,,,,,,5,1.466,1,,,,,,-0.368055556,-0.390277778,1,0,0,1.466,Obsidian_rect,0,0,0,0,1,
6568ead5dfb561c3ba7850a4,SCN,2024-06-24_14h34.32.060,LearnStrategy,2023.2.3,Win32,143.6781609,4,2,2,,,,,,,,7,07,,,,,,,,,,,7,3.631,1,,,,,,0.160416667,-0.421527778,1,0,0,3.631,Peridotite_rect,1,0,1,0,1,
6568ead5dfb561c3ba7850a4,SCN,2024-06-24_14h34.32.060,LearnStrategy,2023.2.3,Win32,143.6781609,4,2,3,,,,,,,,4,09,,,,,,,,,,,2,4.901,0,,,,,,-0.120833333,-0.257638889,1,0,0,4.901,Basalt_rect,2,0,2,0,1,
6568ead5dfb561c3ba7850a4,SCN,2024-06-24_14h34.32.060,LearnStrategy,2023.2.3,Win32,143.6781609,4,2,4,,,,,,,,8,02,,,,,,,,,,,8,1.926,1,,,,,,0.432638889,-0.400694444,1,0,0,1.926,Pumice_rect,3,0,3,0,1,
6568ead5dfb561c3ba7850a4,SCN,2024-06-24_14h34.32.060,LearnStrategy,2023.2.3,Win32,143.6781609,4,2,5,,,,,,,,3,10,,,,,,,,,,,3,3.064,1,,,,,,0.159027778,-0.271527778,1,0,0,3.064,Diorite_rect,4,0,4,0,1,
6568ead5dfb561c3ba7850a4,SCN,2024-06-24_14h34.32.060,LearnStrategy,2023.2.3,Win32,143.6781609,4,2,6,,,,,,,,1,16,,,,,,,,,,,1,2.697,1,,,,,,-0.366666667,-0.263888889,1,0,0,2.697,Andesite_rect,5,0,5,0,1,
6568ead5dfb561c3ba7850a4,SCN,2024-06-24_14h34.32.060,LearnStrategy,2023.2.3,Win32,143.6781609,4,2,7,,,,,,,,2,05,,,,,,,,,,,2,1.653,1,,,,,,-0.111111111,-0.254166667,1,0,0,1.653,Basalt_rect,6,0,6,0,1,
6568ead5dfb561c3ba7850a4,SCN,2024-06-24_14h34.32.060,LearnStrategy,2023.2.3,Win32,143.6781609,4,2,8,,,,,,,,1,09,,,,,,,,,,,4,15.103,0,,,,,,0.444444444,-0.267361111,1,0,0,15.103,Gabbro_rect,7,0,7,0,1,
6568ead5dfb561c3ba7850a4,SCN,2024-06-24_14h34.32.060,LearnStrategy,2023.2.3,Win32,143.6781609,4,2,9,,,,,,,,4,03,,,,,,,,,,,4,1.672,1,,,,,,0.392361111,-0.25,1,0,0,1.672,Gabbro_rect,8,0,8,0,1,
6568ead5dfb561c3ba7850a4,SCN,2024-06-24_14h34.32.060,LearnStrategy,2023.2.3,Win32,143.6781609,4,2,10,,,,,,,,8,15,,,,,,,,,,,8,1.83,1,,,,,,0.44375,-0.38125,1,0,0,1.83,Pumice_rect,9,0,9,0,1,
6568ead5dfb561c3ba7850a4,SCN,2024-06-24_14h34.32.060,LearnStrategy,2023.2.3,Win32,143.6781609,4,2,11,,,,,,,,6,13,,,,,,,,,,,4,13.069,0,,,,,,0.461111111,-0.242361111,1,0,0,13.069,Gabbro_rect,10,0,10,0,1,
6568ead5dfb561c3ba7850a4,SCN,2024-06-24_14h34.32.060,LearnStrategy,2023.2.3,Win32,143.6781609,4,2,12,,,,,,,,3,15,,,,,,,,,,,3,1.96,1,,,,,,0.100694444,-0.245138889,1,0,0,1.96,Diorite_rect,11,0,11,0,1,
6568ead5dfb561c3ba7850a4,SCN,2024-06-24_14h34.32.060,LearnStrategy,2023.2.3,Win32,143.6781609,4,2,13,,,,,,,,2,02,,,,,,,,,,,2,1.267,1,,,,,,-0.130555556,-0.25,1,0,0,1.267,Basalt_rect,12,0,12,0,1,
6568ead5dfb561c3ba7850a4,SCN,2024-06-24_14h34.32.060,LearnStrategy,2023.2.3,Win32,143.6781609,4,2,14,,,,,,,,6,12,,,,,,,,,,,3,12.367,0,,,,,,0.161805556,-0.268055556,1,0,0,12.367,Diorite_rect,13,0,13,0,1,
6568ead5dfb561c3ba7850a4,SCN,2024-06-24_14h34.32.060,LearnStrategy,2023.2.3,Win32,143.6781609,4,2,15,,,,,,,,5,04,,,,,,,,,,,5,1.301,1,,,,,,-0.344444444,-0.385416667,1,0,0,1.301,Obsidian_rect,14,0,14,0,1,
6568ead5dfb561c3ba7850a4,SCN,2024-06-24_14h34.32.060,LearnStrategy,2023.2.3,Win32,143.6781609,4,2,16,,,,,,,,7,16,,,,,,,,,,,6,4.972,0,,,,,,-0.108333333,-0.39375,1,0,0,4.972,Pegmatite_rect,15,0,15,0,1,
6568ead5dfb561c3ba7850a4,SCN,2024-06-24_14h34.32.060,LearnStrategy,2023.2.3,Win32,143.6781609,5,1,1,0.239583333,0.086111111,1,0,0,1.972,Pegmatite_16,6,16,4,6,1.972,0.127083333,-0.249305556,1,0,0,1.931,Diorite_rect,3,1.931,0,0,0,0,0,1,,,,,,,,,,,,,
6568ead5dfb561c3ba7850a4,SCN,2024-06-24_14h34.32.060,LearnStrategy,2023.2.3,Win32,143.6781609,5,1,2,-0.4,-0.259722222,1,0,0,2.153,Pegmatite_07,6,07,2,2,2.153,-0.141666667,-0.4125,1,0,0,2.837,Pegmatite_rect,6,2.837,1,1,0,1,0,1,,,,,,,,,,,,,
6568ead5dfb561c3ba7850a4,SCN,2024-06-24_14h34.32.060,LearnStrategy,2023.2.3,Win32,143.6781609,5,1,3,0.276388889,-0.259722222,1,0,0,1.865,Pegmatite_05,6,05,2,6,1.865,-0.063194444,-0.39375,1,0,0,0.837,Pegmatite_rect,6,0.837,1,2,0,2,0,1,,,,,,,,,,,,,
6568ead5dfb561c3ba7850a4,SCN,2024-06-24_14h34.32.060,LearnStrategy,2023.2.3,Win32,143.6781609,5,1,4,-0.53125,0.110416667,1,0,0,4.378,Diorite_02,3,02,4,1,4.378,0.175,-0.2625,1,0,0,0.835,Diorite_rect,3,0.835,1,3,0,3,0,1,,,,,,,,,,,,,
6568ead5dfb561c3ba7850a4,SCN,2024-06-24_14h34.32.060,LearnStrategy,2023.2.3,Win32,143.6781609,5,1,5,-0.379861111,-0.116666667,1,0,0,1.945,Pegmatite_10,6,10,3,2,1.945,-0.083333333,-0.420833333,1,0,0,1.523,Pegmatite_rect,6,1.523,1,4,0,4,0,1,,,,,,,,,,,,,
6568ead5dfb561c3ba7850a4,SCN,2024-06-24_14h34.32.060,LearnStrategy,2023.2.3,Win32,143.6781609,5,1,6,0.231944444,-0.422916667,1,0,0,1.187,Peridotite_06,7,06,1,6,1.187,0.151388889,-0.415277778,1,0,0,0.733,Peridotite_rect,7,0.733,1,5,0,5,0,1,,,,,,,,,,,,,
6568ead5dfb561c3ba7850a4,SCN,2024-06-24_14h34.32.060,LearnStrategy,2023.2.3,Win32,143.6781609,5,1,7,0.547222222,-0.413194444,1,0,0,1.383,Pegmatite_03,6,03,1,8,1.383,-0.060416667,-0.379861111,1,0,0,1.427,Pegmatite_rect,6,1.427,1,6,0,6,0,1,,,,,,,,,,,,,
6568ead5dfb561c3ba7850a4,SCN,2024-06-24_14h34.32.060,LearnStrategy,2023.2.3,Win32,143.6781609,5,1,8,-0.534027778,-0.4,1,0,0,1.96,Pegmatite_15,6,15,1,1,1.96,-0.15625,-0.397222222,1,0,0,0.778,Pegmatite_rect,6,0.778,1,7,0,7,0,1,,,,,,,,,,,,,
6568ead5dfb561c3ba7850a4,SCN,2024-06-24_14h34.32.060,LearnStrategy,2023.2.3,Win32,143.6781609,5,1,9,-0.242361111,-0.094444444,1,0,0,2.842,Andesite_02,1,02,3,3,2.842,0.377083333,-0.248611111,1,0,0,1.379,Gabbro_rect,4,1.379,0,8,0,8,0,1,,,,,,,,,,,,,
6568ead5dfb561c3ba7850a4,SCN,2024-06-24_14h34.32.060,LearnStrategy,2023.2.3,Win32,143.6781609,5,1,10,0.549305556,-0.248611111,1,0,0,3.015,Andesite_03,1,03,2,8,3.015,-0.3625,-0.245833333,1,0,0,1.352,Andesite_rect,1,1.352,1,9,0,9,0,1,,,,,,,,,,,,,
6568ead5dfb561c3ba7850a4,SCN,2024-06-24_14h34.32.060,LearnStrategy,2023.2.3,Win32,143.6781609,5,1,11,0.380555556,-0.103472222,1,0,0,1.258,Andesite_05,1,05,3,7,1.258,-0.321527778,-0.238888889,1,0,0,0.941,Andesite_rect,1,0.941,1,10,0,10,0,1,,,,,,,,,,,,,
6568ead5dfb561c3ba7850a4,SCN,2024-06-24_14h34.32.060,LearnStrategy,2023.2.3,Win32,143.6781609,5,1,12,-0.044444444,-0.292361111,1,0,0,3.077,Andesite_07,1,07,2,4,3.077,0.464583333,-0.253472222,1,0,0,2.386,Gabbro_rect,4,2.386,0,11,0,11,0,1,,,,,,,,,,,,,
6568ead5dfb561c3ba7850a4,SCN,2024-06-24_14h34.32.060,LearnStrategy,2023.2.3,Win32,143.6781609,5,1,13,-0.348611111,0.269444444,1,0,0,5.331,Diorite_07,3,07,5,2,5.331,0.161805556,-0.258333333,1,0,0,1.338,Diorite_rect,3,1.338,1,12,0,12,0,1,,,,,,,,,,,,,
6568ead5dfb561c3ba7850a4,SCN,2024-06-24_14h34.32.060,LearnStrategy,2023.2.3,Win32,143.6781609,5,1,14,-0.401388889,0.075694444,1,0,0,1.841,Gabbro_05,4,05,4,2,1.841,-0.40625,-0.259027778,1,0,0,1.549,Andesite_rect,1,1.549,0,13,0,13,0,1,,,,,,,,,,,,,
6568ead5dfb561c3ba7850a4,SCN,2024-06-24_14h34.32.060,LearnStrategy,2023.2.3,Win32,143.6781609,5,1,15,-0.031944444,0.081944444,1,0,0,1.93,Peridotite_10,7,10,4,4,1.93,0.103472222,-0.389583333,1,0,0,1.263,Peridotite_rect,7,1.263,1,14,0,14,0,1,,,,,,,,,,,,,
6568ead5dfb561c3ba7850a4,SCN,2024-06-24_14h34.32.060,LearnStrategy,2023.2.3,Win32,143.6781609,5,1,16,-0.211111111,0.100694444,1,0,0,1.682,Gabbro_13,4,13,4,3,1.682,-0.310416667,-0.265277778,1,0,0,4.328,Andesite_rect,1,4.328,0,15,0,15,0,1,,,,,,,,,,,,,
6568ead5dfb561c3ba7850a4,SCN,2024-06-24_14h34.32.060,LearnStrategy,2023.2.3,Win32,143.6781609,5,2,1,,,,,,,,8,10,,,,,,,,,,,8,1.647,1,,,,,,0.409027778,-0.402777778,1,0,0,1.647,Pumice_rect,0,0,0,0,1,
6568ead5dfb561c3ba7850a4,SCN,2024-06-24_14h34.32.060,LearnStrategy,2023.2.3,Win32,143.6781609,5,2,2,,,,,,,,1,01,,,,,,,,,,,2,7.242,0,,,,,,-0.0875,-0.253472222,1,0,0,7.242,Basalt_rect,1,0,1,0,1,
6568ead5dfb561c3ba7850a4,SCN,2024-06-24_14h34.32.060,LearnStrategy,2023.2.3,Win32,143.6781609,5,2,3,,,,,,,,7,02,,,,,,,,,,,6,3.723,0,,,,,,-0.06875,-0.404861111,1,0,0,3.723,Pegmatite_rect,2,0,2,0,1,
6568ead5dfb561c3ba7850a4,SCN,2024-06-24_14h34.32.060,LearnStrategy,2023.2.3,Win32,143.6781609,5,2,4,,,,,,,,6,11,,,,,,,,,,,7,1.178,0,,,,,,0.102083333,-0.382638889,1,0,0,1.178,Peridotite_rect,3,0,3,0,1,
6568ead5dfb561c3ba7850a4,SCN,2024-06-24_14h34.32.060,LearnStrategy,2023.2.3,Win32,143.6781609,5,2,5,,,,,,,,5,10,,,,,,,,,,,5,1.371,1,,,,,,-0.354166667,-0.403472222,1,0,0,1.371,Obsidian_rect,4,0,4,0,1,
6568ead5dfb561c3ba7850a4,SCN,2024-06-24_14h34.32.060,LearnStrategy,2023.2.3,Win32,143.6781609,5,2,6,,,,,,,,2,10,,,,,,,,,,,2,1.221,1,,,,,,-0.186111111,-0.231944444,1,0,0,1.221,Basalt_rect,5,0,5,0,1,
6568ead5dfb561c3ba7850a4,SCN,2024-06-24_14h34.32.060,LearnStrategy,2023.2.3,Win32,143.6781609,5,2,7,,,,,,,,3,08,,,,,,,,,,,3,1.197,1,,,,,,0.11875,-0.252777778,1,0,0,1.197,Diorite_rect,6,0,6,0,1,
6568ead5dfb561c3ba7850a4,SCN,2024-06-24_14h34.32.060,LearnStrategy,2023.2.3,Win32,143.6781609,5,2,8,,,,,,,,7,12,,,,,,,,,,,7,2.529,1,,,,,,0.161111111,-0.383333333,1,0,0,2.529,Peridotite_rect,7,0,7,0,1,
6568ead5dfb561c3ba7850a4,SCN,2024-06-24_14h34.32.060,LearnStrategy,2023.2.3,Win32,143.6781609,5,2,9,,,,,,,,5,02,,,,,,,,,,,5,1.646,1,,,,,,-0.431944444,-0.394444444,1,0,0,1.646,Obsidian_rect,8,0,8,0,1,
6568ead5dfb561c3ba7850a4,SCN,2024-06-24_14h34.32.060,LearnStrategy,2023.2.3,Win32,143.6781609,5,2,10,,,,,,,,2,06,,,,,,,,,,,2,1.485,1,,,,,,-0.072916667,-0.238888889,1,0,0,1.485,Basalt_rect,9,0,9,0,1,
6568ead5dfb561c3ba7850a4,SCN,2024-06-24_14h34.32.060,LearnStrategy,2023.2.3,Win32,143.6781609,5,2,11,,,,,,,,8,13,,,,,,,,,,,8,4.2,1,,,,,,0.390972222,-0.404166667,1,0,0,4.2,Pumice_rect,10,0,10,0,1,
6568ead5dfb561c3ba7850a4,SCN,2024-06-24_14h34.32.060,LearnStrategy,2023.2.3,Win32,143.6781609,5,2,12,,,,,,,,1,06,,,,,,,,,,,4,3.206,0,,,,,,0.371527778,-0.265277778,1,0,0,3.206,Gabbro_rect,11,0,11,0,1,
6568ead5dfb561c3ba7850a4,SCN,2024-06-24_14h34.32.060,LearnStrategy,2023.2.3,Win32,143.6781609,5,2,13,,,,,,,,4,15,,,,,,,,,,,4,2.468,1,,,,,,0.370138889,-0.268055556,1,0,0,2.468,Gabbro_rect,12,0,12,0,1,
6568ead5dfb561c3ba7850a4,SCN,2024-06-24_14h34.32.060,LearnStrategy,2023.2.3,Win32,143.6781609,5,2,14,,,,,,,,6,08,,,,,,,,,,,7,2.399,0,,,,,,0.111805556,-0.407638889,1,0,0,2.399,Peridotite_rect,13,0,13,0,1,
6568ead5dfb561c3ba7850a4,SCN,2024-06-24_14h34.32.060,LearnStrategy,2023.2.3,Win32,143.6781609,5,2,15,,,,,,,,3,12,,,,,,,,,,,3,1.508,1,,,,,,0.098611111,-0.231944444,1,0,0,1.508,Diorite_rect,14,0,14,0,1,
6568ead5dfb561c3ba7850a4,SCN,2024-06-24_14h34.32.060,LearnStrategy,2023.2.3,Win32,143.6781609,5,2,16,,,,,,,,4,08,,,,,,,,,,,1,3.782,0,,,,,,-0.3625,-0.247222222,1,0,0,3.782,Andesite_rect,15,0,15,0,1,
6568ead5dfb561c3ba7850a4,SCN,2024-06-24_14h34.32.060,LearnStrategy,2023.2.3,Win32,143.6781609,6,1,1,-0.384722222,-0.109722222,1,0,0,1.312,Pegmatite_10,6,10,3,2,1.312,0.1125,-0.378472222,1,0,0,1.199,Peridotite_rect,7,1.199,0,0,0,0,0,1,,,,,,,,,,,,,
6568ead5dfb561c3ba7850a4,SCN,2024-06-24_14h34.32.060,LearnStrategy,2023.2.3,Win32,143.6781609,6,1,2,0.21875,-0.388888889,1,0,0,2.669,Peridotite_06,7,06,1,6,2.669,-0.060416667,-0.378472222,1,0,0,0.746,Pegmatite_rect,6,0.746,0,1,0,1,0,1,,,,,,,,,,,,,
6568ead5dfb561c3ba7850a4,SCN,2024-06-24_14h34.32.060,LearnStrategy,2023.2.3,Win32,143.6781609,6,1,3,-0.199305556,-0.120833333,1,0,0,1.424,Andesite_02,1,02,3,3,1.424,-0.400694444,-0.233333333,1,0,0,1.1,Andesite_rect,1,1.1,1,2,0,2,0,1,,,,,,,,,,,,,
6568ead5dfb561c3ba7850a4,SCN,2024-06-24_14h34.32.060,LearnStrategy,2023.2.3,Win32,143.6781609,6,1,4,0.438888889,-0.109722222,1,0,0,1.696,Andesite_05,1,05,3,7,1.696,-0.335416667,-0.234722222,1,0,0,0.999,Andesite_rect,1,0.999,1,3,0,3,0,1,,,,,,,,,,,,,
6568ead5dfb561c3ba7850a4,SCN,2024-06-24_14h34.32.060,LearnStrategy,2023.2.3,Win32,143.6781609,6,1,5,-0.054166667,-0.422222222,1,0,0,2.849,Peridotite_04,7,04,1,4,2.849,0.396527778,-0.236805556,1,0,0,1.464,Gabbro_rect,4,1.464,0,4,0,4,0,1,,,,,,,,,,,,,
6568ead5dfb561c3ba7850a4,SCN,2024-06-24_14h34.32.060,LearnStrategy,2023.2.3,Win32,143.6781609,6,1,6,-0.072222222,-0.386111111,1,0,0,1.304,Peridotite_04,7,04,1,4,1.304,0.074305556,-0.390972222,1,0,0,2.665,Peridotite_rect,7,2.665,1,5,0,5,0,1,,,,,,,,,,,,,
6568ead5dfb561c3ba7850a4,SCN,2024-06-24_14h34.32.060,LearnStrategy,2023.2.3,Win32,143.6781609,6,1,7,-0.215972222,-0.365277778,1,0,0,1.195,Pumice_06,8,06,1,3,1.195,0.322222222,-0.38125,1,0,0,1.353,Pumice_rect,8,1.353,1,6,0,6,0,1,,,,,,,,,,,,,
6568ead5dfb561c3ba7850a4,SCN,2024-06-24_14h34.32.060,LearnStrategy,2023.2.3,Win32,143.6781609,6,1,8,-0.371527778,-0.395138889,1,0,0,1.041,Basalt_01,2,01,1,2,1.041,-0.142361111,-0.240972222,1,0,0,0.631,Basalt_rect,2,0.631,1,7,0,7,0,1,,,,,,,,,,,,,
6568ead5dfb561c3ba7850a4,SCN,2024-06-24_14h34.32.060,LearnStrategy,2023.2.3,Win32,143.6781609,6,1,9,-0.545138889,-0.391666667,1,0,0,1.118,Pegmatite_15,6,15,1,1,1.118,-0.103472222,-0.395833333,1,0,0,1.369,Pegmatite_rect,6,1.369,1,8,0,8,0,1,,,,,,,,,,,,,
6568ead5dfb561c3ba7850a4,SCN,2024-06-24_14h34.32.060,LearnStrategy,2023.2.3,Win32,143.6781609,6,1,10,-0.525,0.084722222,1,0,0,2.973,Diorite_02,3,02,4,1,2.973,0.131944444,-0.254861111,1,0,0,1.165,Diorite_rect,3,1.165,1,9,0,9,0,1,,,,,,,,,,,,,
6568ead5dfb561c3ba7850a4,SCN,2024-06-24_14h34.32.060,LearnStrategy,2023.2.3,Win32,143.6781609,6,1,11,-0.090972222,-0.254166667,1,0,0,0.986,Andesite_07,1,07,2,4,0.986,0.445138889,-0.239583333,1,0,0,1.478,Gabbro_rect,4,1.478,0,10,0,10,0,1,,,,,,,,,,,,,
6568ead5dfb561c3ba7850a4,SCN,2024-06-24_14h34.32.060,LearnStrategy,2023.2.3,Win32,143.6781609,6,1,12,0.529166667,-0.239583333,1,0,0,3.051,Andesite_03,1,03,2,8,3.051,0.425,-0.253472222,1,0,0,1.07,Gabbro_rect,4,1.07,0,11,0,11,0,1,,,,,,,,,,,,,
6568ead5dfb561c3ba7850a4,SCN,2024-06-24_14h34.32.060,LearnStrategy,2023.2.3,Win32,143.6781609,6,1,13,0.401388889,-0.255555556,1,0,0,1.194,Peridotite_13,7,13,2,7,1.194,0.428472222,-0.259027778,1,0,0,1.029,Gabbro_rect,4,1.029,0,12,0,12,0,1,,,,,,,,,,,,,
6568ead5dfb561c3ba7850a4,SCN,2024-06-24_14h34.32.060,LearnStrategy,2023.2.3,Win32,143.6781609,6,1,14,-0.194444444,-0.099305556,1,0,0,1.862,Andesite_02,1,02,3,3,1.862,0.346527778,-0.239583333,1,0,0,1.22,Gabbro_rect,4,1.22,0,13,0,13,0,1,,,,,,,,,,,,,
6568ead5dfb561c3ba7850a4,SCN,2024-06-24_14h34.32.060,LearnStrategy,2023.2.3,Win32,143.6781609,6,1,15,-0.361111111,0.385416667,1,0,0,2.167,Basalt_12,2,12,6,2,2.167,-0.189583333,-0.240277778,1,0,0,1.994,Basalt_rect,2,1.994,1,14,0,14,0,1,,,,,,,,,,,,,
6568ead5dfb561c3ba7850a4,SCN,2024-06-24_14h34.32.060,LearnStrategy,2023.2.3,Win32,143.6781609,6,1,16,0.563194444,0.431944444,1,0,0,2.96,Gabbro_12,4,12,6,8,2.96,-0.405555556,-0.236111111,1,0,0,0.933,Andesite_rect,1,0.933,0,15,0,15,0,1,,,,,,,,,,,,,
6568ead5dfb561c3ba7850a4,SCN,2024-06-24_14h34.32.060,LearnStrategy,2023.2.3,Win32,143.6781609,6,2,1,,,,,,,,4,10,,,,,,,,,,,4,5.735,1,,,,,,0.319444444,-0.231944444,1,0,0,5.735,Gabbro_rect,0,0,0,0,1,
6568ead5dfb561c3ba7850a4,SCN,2024-06-24_14h34.32.060,LearnStrategy,2023.2.3,Win32,143.6781609,6,2,2,,,,,,,,4,16,,,,,,,,,,,2,5.182,0,,,,,,-0.149305556,-0.249305556,1,0,0,5.182,Basalt_rect,1,0,1,0,1,
6568ead5dfb561c3ba7850a4,SCN,2024-06-24_14h34.32.060,LearnStrategy,2023.2.3,Win32,143.6781609,6,2,3,,,,,,,,7,14,,,,,,,,,,,7,3.499,1,,,,,,0.072916667,-0.401388889,1,0,0,3.499,Peridotite_rect,2,0,2,0,1,
6568ead5dfb561c3ba7850a4,SCN,2024-06-24_14h34.32.060,LearnStrategy,2023.2.3,Win32,143.6781609,6,2,4,,,,,,,,7,05,,,,,,,,,,,7,1.308,1,,,,,,0.072916667,-0.401388889,1,0,0,1.308,Peridotite_rect,3,0,3,0,1,
6568ead5dfb561c3ba7850a4,SCN,2024-06-24_14h34.32.060,LearnStrategy,2023.2.3,Win32,143.6781609,6,2,5,,,,,,,,8,16,,,,,,,,,,,8,1.83,1,,,,,,0.348611111,-0.396527778,1,0,0,1.83,Pumice_rect,4,0,4,0,1,
6568ead5dfb561c3ba7850a4,SCN,2024-06-24_14h34.32.060,LearnStrategy,2023.2.3,Win32,143.6781609,6,2,6,,,,,,,,8,14,,,,,,,,,,,8,1.096,1,,,,,,0.350694444,-0.403472222,1,0,0,1.096,Pumice_rect,5,0,5,0,1,
6568ead5dfb561c3ba7850a4,SCN,2024-06-24_14h34.32.060,LearnStrategy,2023.2.3,Win32,143.6781609,6,2,7,,,,,,,,5,09,,,,,,,,,,,5,1.112,1,,,,,,-0.375694444,-0.392361111,1,0,0,1.112,Obsidian_rect,6,0,6,0,1,
6568ead5dfb561c3ba7850a4,SCN,2024-06-24_14h34.32.060,LearnStrategy,2023.2.3,Win32,143.6781609,6,2,8,,,,,,,,3,09,,,,,,,,,,,3,2.157,1,,,,,,0.100694444,-0.25,1,0,0,2.157,Diorite_rect,7,0,7,0,1,
6568ead5dfb561c3ba7850a4,SCN,2024-06-24_14h34.32.060,LearnStrategy,2023.2.3,Win32,143.6781609,6,2,9,,,,,,,,1,10,,,,,,,,,,,4,4.3,0,,,,,,0.351388889,-0.25,1,0,0,4.3,Gabbro_rect,8,0,8,0,1,
6568ead5dfb561c3ba7850a4,SCN,2024-06-24_14h34.32.060,LearnStrategy,2023.2.3,Win32,143.6781609,6,2,10,,,,,,,,5,07,,,,,,,,,,,5,1.802,1,,,,,,-0.39375,-0.39375,1,0,0,1.802,Obsidian_rect,9,0,9,0,1,
6568ead5dfb561c3ba7850a4,SCN,2024-06-24_14h34.32.060,LearnStrategy,2023.2.3,Win32,143.6781609,6,2,11,,,,,,,,2,16,,,,,,,,,,,2,1.524,1,,,,,,-0.199305556,-0.254861111,1,0,0,1.524,Basalt_rect,10,0,10,0,1,
6568ead5dfb561c3ba7850a4,SCN,2024-06-24_14h34.32.060,LearnStrategy,2023.2.3,Win32,143.6781609,6,2,12,,,,,,,,3,11,,,,,,,,,,,3,1.752,1,,,,,,0.135416667,-0.248611111,1,0,0,1.752,Diorite_rect,11,0,11,0,1,
6568ead5dfb561c3ba7850a4,SCN,2024-06-24_14h34.32.060,LearnStrategy,2023.2.3,Win32,143.6781609,6,2,13,,,,,,,,2,08,,,,,,,,,,,2,1.214,1,,,,,,-0.140972222,-0.267361111,1,0,0,1.214,Basalt_rect,12,0,12,0,1,
6568ead5dfb561c3ba7850a4,SCN,2024-06-24_14h34.32.060,LearnStrategy,2023.2.3,Win32,143.6781609,6,2,14,,,,,,,,1,14,,,,,,,,,,,1,4.489,1,,,,,,-0.364583333,-0.247222222,1,0,0,4.489,Andesite_rect,13,0,13,0,1,
6568ead5dfb561c3ba7850a4,SCN,2024-06-24_14h34.32.060,LearnStrategy,2023.2.3,Win32,143.6781609,6,2,15,,,,,,,,6,09,,,,,,,,,,,7,1.748,0,,,,,,0.085416667,-0.383333333,1,0,0,1.748,Peridotite_rect,14,0,14,0,1,
6568ead5dfb561c3ba7850a4,SCN,2024-06-24_14h34.32.060,LearnStrategy,2023.2.3,Win32,143.6781609,6,2,16,,,,,,,,6,06,,,,,,,,,,,7,1.4,0,,,,,,0.085416667,-0.384027778,1,0,0,1.4,Peridotite_rect,15,0,15,0,1,
6568ead5dfb561c3ba7850a4,SCN,2024-06-24_14h34.32.060,LearnStrategy,2023.2.3,Win32,143.6781609,7,1,1,-0.405555556,-0.422222222,1,0,0,1.589,Basalt_01,2,01,1,2,1.589,-0.195833333,-0.254166667,1,0,0,1.977,Basalt_rect,2,1.977,1,0,0,0,0,1,,,,,,,,,,,,,
6568ead5dfb561c3ba7850a4,SCN,2024-06-24_14h34.32.060,LearnStrategy,2023.2.3,Win32,143.6781609,7,1,2,-0.079166667,-0.386805556,1,0,0,0.896,Peridotite_04,7,04,1,4,0.896,-0.060416667,-0.398611111,1,0,0,2.274,Pegmatite_rect,6,2.274,0,1,0,1,0,1,,,,,,,,,,,,,
6568ead5dfb561c3ba7850a4,SCN,2024-06-24_14h34.32.060,LearnStrategy,2023.2.3,Win32,143.6781609,7,1,3,0.225694444,-0.385416667,1,0,0,1.243,Peridotite_06,7,06,1,6,1.243,-0.097222222,-0.386111111,1,0,0,1.15,Pegmatite_rect,6,1.15,0,2,0,2,0,1,,,,,,,,,,,,,
6568ead5dfb561c3ba7850a4,SCN,2024-06-24_14h34.32.060,LearnStrategy,2023.2.3,Win32,143.6781609,7,1,4,0.541666667,-0.386111111,1,0,0,1.994,Pegmatite_03,6,03,1,8,1.994,0.090277778,-0.383333333,1,0,0,0.612,Peridotite_rect,7,0.612,0,3,0,3,0,1,,,,,,,,,,,,,
6568ead5dfb561c3ba7850a4,SCN,2024-06-24_14h34.32.060,LearnStrategy,2023.2.3,Win32,143.6781609,7,1,5,-0.383333333,-0.2625,1,0,0,1.32,Pegmatite_07,6,07,2,2,1.32,-0.141666667,-0.388888889,1,0,0,0.892,Pegmatite_rect,6,0.892,1,4,0,4,0,1,,,,,,,,,,,,,
6568ead5dfb561c3ba7850a4,SCN,2024-06-24_14h34.32.060,LearnStrategy,2023.2.3,Win32,143.6781609,7,1,6,-0.565277778,-0.389583333,1,0,0,1.206,Pegmatite_15,6,15,1,1,1.206,-0.109722222,-0.378472222,1,0,0,1.411,Pegmatite_rect,6,1.411,1,5,0,5,0,1,,,,,,,,,,,,,
6568ead5dfb561c3ba7850a4,SCN,2024-06-24_14h34.32.060,LearnStrategy,2023.2.3,Win32,143.6781609,7,1,7,-0.206944444,-0.109027778,1,0,0,1.737,Andesite_02,1,02,3,3,1.737,-0.361805556,-0.241666667,1,0,0,0.972,Andesite_rect,1,0.972,1,6,0,6,0,1,,,,,,,,,,,,,
6568ead5dfb561c3ba7850a4,SCN,2024-06-24_14h34.32.060,LearnStrategy,2023.2.3,Win32,143.6781609,7,1,8,0.10625,-0.075694444,1,0,0,1.105,Peridotite_08,7,08,3,5,1.105,0.4,-0.247916667,1,0,0,1.247,Gabbro_rect,4,1.247,0,7,0,7,0,1,,,,,,,,,,,,,
6568ead5dfb561c3ba7850a4,SCN,2024-06-24_14h34.32.060,LearnStrategy,2023.2.3,Win32,143.6781609,7,1,9,-0.056944444,-0.098611111,1,0,0,0.827,Gabbro_11,4,11,3,4,0.827,0.488888889,-0.261805556,1,0,0,0.611,Gabbro_rect,4,0.611,1,8,0,8,0,1,,,,,,,,,,,,,
6568ead5dfb561c3ba7850a4,SCN,2024-06-24_14h34.32.060,LearnStrategy,2023.2.3,Win32,143.6781609,7,1,10,-0.047222222,0.101388889,1,0,0,2.092,Peridotite_10,7,10,4,4,2.092,-0.034722222,-0.415277778,1,0,0,2.332,Pegmatite_rect,6,2.332,0,9,0,9,0,1,,,,,,,,,,,,,
6568ead5dfb561c3ba7850a4,SCN,2024-06-24_14h34.32.060,LearnStrategy,2023.2.3,Win32,143.6781609,7,1,11,0.084722222,-0.109027778,1,0,0,1.799,Peridotite_08,7,08,3,5,1.799,0.093055556,-0.384027778,1,0,0,0.778,Peridotite_rect,7,0.778,1,10,0,10,0,1,,,,,,,,,,,,,
6568ead5dfb561c3ba7850a4,SCN,2024-06-24_14h34.32.060,LearnStrategy,2023.2.3,Win32,143.6781609,7,1,12,0.520138889,-0.378472222,1,0,0,1.738,Pegmatite_03,6,03,1,8,1.738,-0.127083333,-0.388888889,1,0,0,0.844,Pegmatite_rect,6,0.844,1,11,0,11,0,1,,,,,,,,,,,,,
6568ead5dfb561c3ba7850a4,SCN,2024-06-24_14h34.32.060,LearnStrategy,2023.2.3,Win32,143.6781609,7,1,13,-0.529166667,0.424305556,1,0,0,4.435,Pumice_04,8,04,6,1,4.435,0.404861111,-0.393055556,1,0,0,1.98,Pumice_rect,8,1.98,1,12,0,12,0,1,,,,,,,,,,,,,
6568ead5dfb561c3ba7850a4,SCN,2024-06-24_14h34.32.060,LearnStrategy,2023.2.3,Win32,143.6781609,7,1,14,0.249305556,0.121527778,1,0,0,2.335,Pegmatite_16,6,16,4,6,2.335,0.097222222,-0.391666667,1,0,0,1.178,Peridotite_rect,7,1.178,0,13,0,13,0,1,,,,,,,,,,,,,
6568ead5dfb561c3ba7850a4,SCN,2024-06-24_14h34.32.060,LearnStrategy,2023.2.3,Win32,143.6781609,7,1,15,0.234027778,0.08125,1,0,0,2.481,Pegmatite_16,6,16,4,6,2.481,-0.152777778,-0.379166667,1,0,0,0.765,Pegmatite_rect,6,0.765,1,14,0,14,0,1,,,,,,,,,,,,,
6568ead5dfb561c3ba7850a4,SCN,2024-06-24_14h34.32.060,LearnStrategy,2023.2.3,Win32,143.6781609,7,1,16,-0.075694444,-0.102083333,1,0,0,1.34,Gabbro_11,4,11,3,4,1.34,-0.44375,-0.236111111,1,0,0,1.181,Andesite_rect,1,1.181,0,15,0,15,0,1,,,,,,,,,,,,,
6568ead5dfb561c3ba7850a4,SCN,2024-06-24_14h34.32.060,LearnStrategy,2023.2.3,Win32,143.6781609,7,2,1,,,,,,,,3,11,,,,,,,,,,,7,6.532,0,,,,,,0.09375,-0.402777778,1,0,0,6.532,Peridotite_rect,0,0,0,0,1,
6568ead5dfb561c3ba7850a4,SCN,2024-06-24_14h34.32.060,LearnStrategy,2023.2.3,Win32,143.6781609,7,2,2,,,,,,,,2,06,,,,,,,,,,,2,1.3,1,,,,,,-0.138888889,-0.265277778,1,0,0,1.3,Basalt_rect,1,0,1,0,1,
6568ead5dfb561c3ba7850a4,SCN,2024-06-24_14h34.32.060,LearnStrategy,2023.2.3,Win32,143.6781609,7,2,3,,,,,,,,5,02,,,,,,,,,,,5,1.199,1,,,,,,-0.399305556,-0.388194444,1,0,0,1.199,Obsidian_rect,2,0,2,0,1,
6568ead5dfb561c3ba7850a4,SCN,2024-06-24_14h34.32.060,LearnStrategy,2023.2.3,Win32,143.6781609,7,2,4,,,,,,,,7,16,,,,,,,,,,,7,4.555,1,,,,,,0.074305556,-0.39375,1,0,0,4.555,Peridotite_rect,3,0,3,0,1,
6568ead5dfb561c3ba7850a4,SCN,2024-06-24_14h34.32.060,LearnStrategy,2023.2.3,Win32,143.6781609,7,2,5,,,,,,,,8,02,,,,,,,,,,,8,2.622,1,,,,,,0.301388889,-0.378472222,1,0,0,2.622,Pumice_rect,4,0,4,0,1,
6568ead5dfb561c3ba7850a4,SCN,2024-06-24_14h34.32.060,LearnStrategy,2023.2.3,Win32,143.6781609,7,2,6,,,,,,,,5,08,,,,,,,,,,,5,1.255,1,,,,,,-0.394444444,-0.385416667,1,0,0,1.255,Obsidian_rect,5,0,5,0,1,
6568ead5dfb561c3ba7850a4,SCN,2024-06-24_14h34.32.060,LearnStrategy,2023.2.3,Win32,143.6781609,7,2,7,,,,,,,,6,09,,,,,,,,,,,7,1.546,0,,,,,,0.102083333,-0.398611111,1,0,0,1.546,Peridotite_rect,6,0,6,0,1,
6568ead5dfb561c3ba7850a4,SCN,2024-06-24_14h34.32.060,LearnStrategy,2023.2.3,Win32,143.6781609,7,2,8,,,,,,,,1,16,,,,,,,,,,,1,13.916,1,,,,,,-0.465972222,-0.243055556,1,0,0,13.916,Andesite_rect,7,0,7,0,1,
6568ead5dfb561c3ba7850a4,SCN,2024-06-24_14h34.32.060,LearnStrategy,2023.2.3,Win32,143.6781609,7,2,9,,,,,,,,2,16,,,,,,,,,,,2,2.995,1,,,,,,-0.111111111,-0.241666667,1,0,0,2.995,Basalt_rect,8,0,8,0,1,
6568ead5dfb561c3ba7850a4,SCN,2024-06-24_14h34.32.060,LearnStrategy,2023.2.3,Win32,143.6781609,7,2,10,,,,,,,,1,01,,,,,,,,,,,1,10.184,1,,,,,,-0.481944444,-0.240972222,1,0,0,10.184,Andesite_rect,9,0,9,0,1,
6568ead5dfb561c3ba7850a4,SCN,2024-06-24_14h34.32.060,LearnStrategy,2023.2.3,Win32,143.6781609,7,2,11,,,,,,,,4,08,,,,,,,,,,,4,5.403,1,,,,,,0.416666667,-0.259027778,1,0,0,5.403,Gabbro_rect,10,0,10,0,1,
6568ead5dfb561c3ba7850a4,SCN,2024-06-24_14h34.32.060,LearnStrategy,2023.2.3,Win32,143.6781609,7,2,12,,,,,,,,3,09,,,,,,,,,,,3,1.424,1,,,,,,0.103472222,-0.267361111,1,0,0,1.424,Diorite_rect,11,0,11,0,1,
6568ead5dfb561c3ba7850a4,SCN,2024-06-24_14h34.32.060,LearnStrategy,2023.2.3,Win32,143.6781609,7,2,13,,,,,,,,4,16,,,,,,,,,,,2,1.314,0,,,,,,-0.142361111,-0.245138889,1,0,0,1.314,Basalt_rect,12,0,12,0,1,
6568ead5dfb561c3ba7850a4,SCN,2024-06-24_14h34.32.060,LearnStrategy,2023.2.3,Win32,143.6781609,7,2,14,,,,,,,,8,15,,,,,,,,,,,8,2.064,1,,,,,,0.347222222,-0.402083333,1,0,0,2.064,Pumice_rect,13,0,13,0,1,
6568ead5dfb561c3ba7850a4,SCN,2024-06-24_14h34.32.060,LearnStrategy,2023.2.3,Win32,143.6781609,7,2,15,,,,,,,,6,12,,,,,,,,,,,7,6.328,0,,,,,,0.103472222,-0.417361111,1,0,0,6.328,Peridotite_rect,14,0,14,0,1,
6568ead5dfb561c3ba7850a4,SCN,2024-06-24_14h34.32.060,LearnStrategy,2023.2.3,Win32,143.6781609,7,2,16,,,,,,,,7,14,,,,,,,,,,,6,1.795,0,,,,,,-0.109722222,-0.395833333,1,0,0,1.795,Pegmatite_rect,15,0,15,0,1,
6568ead5dfb561c3ba7850a4,SCN,2024-06-24_14h34.32.060,LearnStrategy,2023.2.3,Win32,143.6781609,8,1,1,0.088888889,-0.097916667,1,0,0,0.966,Peridotite_08,7,08,3,5,0.966,0.079861111,-0.403472222,1,0,0,3.422,Peridotite_rect,7,3.422,1,0,0,0,0,1,,,,,,,,,,,,,
6568ead5dfb561c3ba7850a4,SCN,2024-06-24_14h34.32.060,LearnStrategy,2023.2.3,Win32,143.6781609,8,1,2,0.539583333,-0.375694444,1,0,0,0.93,Pegmatite_03,6,03,1,8,0.93,-0.079861111,-0.406944444,1,0,0,0.613,Pegmatite_rect,6,0.613,1,1,0,1,0,1,,,,,,,,,,,,,
6568ead5dfb561c3ba7850a4,SCN,2024-06-24_14h34.32.060,LearnStrategy,2023.2.3,Win32,143.6781609,8,1,3,-0.396527778,-0.256944444,1,0,0,2.69,Pegmatite_07,6,07,2,2,2.69,-0.363194444,-0.252777778,1,0,0,1.279,Andesite_rect,1,1.279,0,2,0,2,0,1,,,,,,,,,,,,,
6568ead5dfb561c3ba7850a4,SCN,2024-06-24_14h34.32.060,LearnStrategy,2023.2.3,Win32,143.6781609,8,1,4,-0.094444444,-0.08125,1,0,0,3.194,Gabbro_11,4,11,3,4,3.194,0.39375,-0.23125,1,0,0,1.18,Gabbro_rect,4,1.18,1,3,0,3,0,1,,,,,,,,,,,,,
6568ead5dfb561c3ba7850a4,SCN,2024-06-24_14h34.32.060,LearnStrategy,2023.2.3,Win32,143.6781609,8,1,5,-0.390277778,-0.409027778,1,0,0,1.883,Basalt_01,2,01,1,2,1.883,0.370138889,-0.25,1,0,0,1.012,Gabbro_rect,4,1.012,0,4,0,4,0,1,,,,,,,,,,,,,
6568ead5dfb561c3ba7850a4,SCN,2024-06-24_14h34.32.060,LearnStrategy,2023.2.3,Win32,143.6781609,8,1,6,0.573611111,-0.238888889,1,0,0,2.188,Andesite_03,1,03,2,8,2.188,0.430555556,-0.234027778,1,0,0,1.47,Gabbro_rect,4,1.47,0,5,0,5,0,1,,,,,,,,,,,,,
6568ead5dfb561c3ba7850a4,SCN,2024-06-24_14h34.32.060,LearnStrategy,2023.2.3,Win32,143.6781609,8,1,7,0.416666667,-0.102083333,1,0,0,1.466,Andesite_05,1,05,3,7,1.466,-0.35625,-0.25,1,0,0,1.258,Andesite_rect,1,1.258,1,6,0,6,0,1,,,,,,,,,,,,,
6568ead5dfb561c3ba7850a4,SCN,2024-06-24_14h34.32.060,LearnStrategy,2023.2.3,Win32,143.6781609,8,1,8,0.225,0.23125,1,0,0,1.681,Diorite_14,3,14,5,6,1.681,0.155555556,-0.23125,1,0,0,0.926,Diorite_rect,3,0.926,1,7,0,7,0,1,,,,,,,,,,,,,
6568ead5dfb561c3ba7850a4,SCN,2024-06-24_14h34.32.060,LearnStrategy,2023.2.3,Win32,143.6781609,8,1,9,0.050694444,0.244444444,1,0,0,1.146,Andesite_11,1,11,5,5,1.146,0.388194444,-0.259027778,1,0,0,2.121,Gabbro_rect,4,2.121,0,8,0,8,0,1,,,,,,,,,,,,,
6568ead5dfb561c3ba7850a4,SCN,2024-06-24_14h34.32.060,LearnStrategy,2023.2.3,Win32,143.6781609,8,1,10,-0.220138889,0.259027778,1,0,0,1.404,Basalt_09,2,09,5,3,1.404,0.381944444,-0.265972222,1,0,0,1.174,Gabbro_rect,4,1.174,0,9,0,9,0,1,,,,,,,,,,,,,
6568ead5dfb561c3ba7850a4,SCN,2024-06-24_14h34.32.060,LearnStrategy,2023.2.3,Win32,143.6781609,8,1,11,0.567361111,0.429861111,1,0,0,3.476,Gabbro_12,4,12,6,8,3.476,0.375694444,-0.236111111,1,0,0,1.15,Gabbro_rect,4,1.15,1,10,0,10,0,1,,,,,,,,,,,,,
6568ead5dfb561c3ba7850a4,SCN,2024-06-24_14h34.32.060,LearnStrategy,2023.2.3,Win32,143.6781609,8,1,12,0.540277778,-0.228472222,1,0,0,2.479,Andesite_03,1,03,2,8,2.479,-0.442361111,-0.258333333,1,0,0,1.005,Andesite_rect,1,1.005,1,11,0,11,0,1,,,,,,,,,,,,,
6568ead5dfb561c3ba7850a4,SCN,2024-06-24_14h34.32.060,LearnStrategy,2023.2.3,Win32,143.6781609,8,1,13,-0.065972222,-0.24375,1,0,0,1.411,Andesite_07,1,07,2,4,1.411,-0.315972222,-0.247916667,1,0,0,0.555,Andesite_rect,1,0.555,1,12,0,12,0,1,,,,,,,,,,,,,
6568ead5dfb561c3ba7850a4,SCN,2024-06-24_14h34.32.060,LearnStrategy,2023.2.3,Win32,143.6781609,8,1,14,-0.421527778,-0.386111111,1,0,0,2.299,Basalt_01,2,01,1,2,2.299,-0.135416667,-0.257638889,1,0,0,1.77,Basalt_rect,2,1.77,1,13,0,13,0,1,,,,,,,,,,,,,
6568ead5dfb561c3ba7850a4,SCN,2024-06-24_14h34.32.060,LearnStrategy,2023.2.3,Win32,143.6781609,8,1,15,0.346527778,-0.381944444,1,0,0,1.834,Pumice_08,8,08,1,7,1.834,0.379166667,-0.399305556,1,0,0,1.141,Pumice_rect,8,1.141,1,14,0,14,0,1,,,,,,,,,,,,,
6568ead5dfb561c3ba7850a4,SCN,2024-06-24_14h34.32.060,LearnStrategy,2023.2.3,Win32,143.6781609,8,1,16,0.0875,-0.113194444,1,0,0,1.166,Peridotite_08,7,08,3,5,1.166,0.123611111,-0.4125,1,0,0,2.09,Peridotite_rect,7,2.09,1,15,0,15,0,1,,,,,,,,,,,,,
6568ead5dfb561c3ba7850a4,SCN,2024-06-24_14h34.32.060,LearnStrategy,2023.2.3,Win32,143.6781609,8,2,1,,,,,,,,6,13,,,,,,,,,,,6,30.758,1,,,,,,-0.120138889,-0.399305556,1,0,0,30.758,Pegmatite_rect,0,0,0,0,1,
6568ead5dfb561c3ba7850a4,SCN,2024-06-24_14h34.32.060,LearnStrategy,2023.2.3,Win32,143.6781609,8,2,2,,,,,,,,3,12,,,,,,,,,,,3,1.251,1,,,,,,0.079861111,-0.229861111,1,0,0,1.251,Diorite_rect,1,0,1,0,1,
6568ead5dfb561c3ba7850a4,SCN,2024-06-24_14h34.32.060,LearnStrategy,2023.2.3,Win32,143.6781609,8,2,3,,,,,,,,4,10,,,,,,,,,,,4,3.897,1,,,,,,0.421527778,-0.246527778,1,0,0,3.897,Gabbro_rect,2,0,2,0,1,
6568ead5dfb561c3ba7850a4,SCN,2024-06-24_14h34.32.060,LearnStrategy,2023.2.3,Win32,143.6781609,8,2,4,,,,,,,,3,10,,,,,,,,,,,3,2.262,1,,,,,,0.097222222,-0.239583333,1,0,0,2.262,Diorite_rect,3,0,3,0,1,
6568ead5dfb561c3ba7850a4,SCN,2024-06-24_14h34.32.060,LearnStrategy,2023.2.3,Win32,143.6781609,8,2,5,,,,,,,,7,02,,,,,,,,,,,7,2.326,1,,,,,,0.145138889,-0.397916667,1,0,0,2.326,Peridotite_rect,4,0,4,0,1,
6568ead5dfb561c3ba7850a4,SCN,2024-06-24_14h34.32.060,LearnStrategy,2023.2.3,Win32,143.6781609,8,2,6,,,,,,,,2,05,,,,,,,,,,,2,1.641,1,,,,,,-0.118055556,-0.254861111,1,0,0,1.641,Basalt_rect,5,0,5,0,1,
6568ead5dfb561c3ba7850a4,SCN,2024-06-24_14h34.32.060,LearnStrategy,2023.2.3,Win32,143.6781609,8,2,7,,,,,,,,5,04,,,,,,,,,,,5,1.522,1,,,,,,-0.458333333,-0.403472222,1,0,0,1.522,Obsidian_rect,6,0,6,0,1,
6568ead5dfb561c3ba7850a4,SCN,2024-06-24_14h34.32.060,LearnStrategy,2023.2.3,Win32,143.6781609,8,2,8,,,,,,,,6,06,,,,,,,,,,,6,3.947,1,,,,,,-0.1125,-0.397222222,1,0,0,3.947,Pegmatite_rect,7,0,7,0,1,
6568ead5dfb561c3ba7850a4,SCN,2024-06-24_14h34.32.060,LearnStrategy,2023.2.3,Win32,143.6781609,8,2,9,,,,,,,,1,09,,,,,,,,,,,1,8.757,1,,,,,,-0.367361111,-0.249305556,1,0,0,8.757,Andesite_rect,8,0,8,0,1,
6568ead5dfb561c3ba7850a4,SCN,2024-06-24_14h34.32.060,LearnStrategy,2023.2.3,Win32,143.6781609,8,2,10,,,,,,,,2,08,,,,,,,,,,,2,1.761,1,,,,,,-0.097916667,-0.264583333,1,0,0,1.761,Basalt_rect,9,0,9,0,1,
6568ead5dfb561c3ba7850a4,SCN,2024-06-24_14h34.32.060,LearnStrategy,2023.2.3,Win32,143.6781609,8,2,11,,,,,,,,5,10,,,,,,,,,,,5,1.091,1,,,,,,-0.322916667,-0.389583333,1,0,0,1.091,Obsidian_rect,10,0,10,0,1,
6568ead5dfb561c3ba7850a4,SCN,2024-06-24_14h34.32.060,LearnStrategy,2023.2.3,Win32,143.6781609,8,2,12,,,,,,,,8,14,,,,,,,,,,,8,1.172,1,,,,,,0.430555556,-0.397222222,1,0,0,1.172,Pumice_rect,11,0,11,0,1,
6568ead5dfb561c3ba7850a4,SCN,2024-06-24_14h34.32.060,LearnStrategy,2023.2.3,Win32,143.6781609,8,2,13,,,,,,,,8,13,,,,,,,,,,,8,0.868,1,,,,,,0.430555556,-0.397222222,1,0,0,0.868,Pumice_rect,12,0,12,0,1,
6568ead5dfb561c3ba7850a4,SCN,2024-06-24_14h34.32.060,LearnStrategy,2023.2.3,Win32,143.6781609,8,2,14,,,,,,,,7,07,,,,,,,,,,,7,1.937,1,,,,,,0.128472222,-0.414583333,1,0,0,1.937,Peridotite_rect,13,0,13,0,1,
6568ead5dfb561c3ba7850a4,SCN,2024-06-24_14h34.32.060,LearnStrategy,2023.2.3,Win32,143.6781609,8,2,15,,,,,,,,1,10,,,,,,,,,,,1,2.6,1,,,,,,-0.399305556,-0.238888889,1,0,0,2.6,Andesite_rect,14,0,14,0,1,
6568ead5dfb561c3ba7850a4,SCN,2024-06-24_14h34.32.060,LearnStrategy,2023.2.3,Win32,143.6781609,8,2,16,,,,,,,,4,09,,,,,,,,,,,4,8.673,1,,,,,,0.472916667,-0.240972222,1,0,0,8.673,Gabbro_rect,15,0,15,0,1,
6568ead5dfb561c3ba7850a4,SCN,2024-06-24_14h34.32.060,LearnStrategy,2023.2.3,Win32,143.6781609,9,1,1,0.429861111,-0.113194444,1,0,0,1.853,Andesite_05,1,05,3,7,1.853,-0.386111111,-0.258333333,1,0,0,1.489,Andesite_rect,1,1.489,1,0,0,0,0,1,,,,,,,,,,,,,
6568ead5dfb561c3ba7850a4,SCN,2024-06-24_14h34.32.060,LearnStrategy,2023.2.3,Win32,143.6781609,9,1,2,-0.570138889,0.419444444,1,0,0,1.773,Pumice_04,8,04,6,1,1.773,0.422222222,-0.402083333,1,0,0,2.125,Pumice_rect,8,2.125,1,1,0,1,0,1,,,,,,,,,,,,,
6568ead5dfb561c3ba7850a4,SCN,2024-06-24_14h34.32.060,LearnStrategy,2023.2.3,Win32,143.6781609,9,1,3,-0.397222222,0.389583333,1,0,0,0.848,Basalt_12,2,12,6,2,0.848,-0.086805556,-0.269444444,1,0,0,1.726,Basalt_rect,2,1.726,1,2,0,2,0,1,,,,,,,,,,,,,
6568ead5dfb561c3ba7850a4,SCN,2024-06-24_14h34.32.060,LearnStrategy,2023.2.3,Win32,143.6781609,9,1,4,-0.24375,0.43125,1,0,0,1.007,Obsidian_12,5,12,6,3,1.007,-0.322916667,-0.409027778,1,0,0,1.261,Obsidian_rect,5,1.261,1,3,0,3,0,1,,,,,,,,,,,,,
6568ead5dfb561c3ba7850a4,SCN,2024-06-24_14h34.32.060,LearnStrategy,2023.2.3,Win32,143.6781609,9,1,5,-0.053472222,0.4,1,0,0,0.826,Gabbro_01,4,01,6,4,0.826,0.411805556,-0.239583333,1,0,0,3.061,Gabbro_rect,4,3.061,1,4,0,4,0,1,,,,,,,,,,,,,
6568ead5dfb561c3ba7850a4,SCN,2024-06-24_14h34.32.060,LearnStrategy,2023.2.3,Win32,143.6781609,9,1,6,0.055555556,0.422916667,1,0,0,1.042,Basalt_04,2,04,6,5,1.042,-0.096527778,-0.239583333,1,0,0,1.086,Basalt_rect,2,1.086,1,5,0,5,0,1,,,,,,,,,,,,,
6568ead5dfb561c3ba7850a4,SCN,2024-06-24_14h34.32.060,LearnStrategy,2023.2.3,Win32,143.6781609,9,1,7,0.242361111,0.375,1,0,0,0.806,Diorite_06,3,06,6,6,0.806,0.090277778,-0.254861111,1,0,0,1.215,Diorite_rect,3,1.215,1,6,0,6,0,1,,,,,,,,,,,,,
6568ead5dfb561c3ba7850a4,SCN,2024-06-24_14h34.32.060,LearnStrategy,2023.2.3,Win32,143.6781609,9,1,8,0.397916667,0.384722222,1,0,0,1.48,Obsidian_16,5,16,6,7,1.48,-0.374305556,-0.4125,1,0,0,1.306,Obsidian_rect,5,1.306,1,7,0,7,0,1,,,,,,,,,,,,,
6568ead5dfb561c3ba7850a4,SCN,2024-06-24_14h34.32.060,LearnStrategy,2023.2.3,Win32,143.6781609,9,1,9,0.579861111,0.384027778,1,0,0,0.848,Gabbro_12,4,12,6,8,0.848,0.388888889,-0.25625,1,0,0,1.753,Gabbro_rect,4,1.753,1,8,0,8,0,1,,,,,,,,,,,,,
6568ead5dfb561c3ba7850a4,SCN,2024-06-24_14h34.32.060,LearnStrategy,2023.2.3,Win32,143.6781609,9,1,10,-0.504166667,0.2375,1,0,0,1.383,Pumice_09,8,09,5,1,1.383,0.449305556,-0.397916667,1,0,0,1.577,Pumice_rect,8,1.577,1,9,0,9,0,1,,,,,,,,,,,,,
6568ead5dfb561c3ba7850a4,SCN,2024-06-24_14h34.32.060,LearnStrategy,2023.2.3,Win32,143.6781609,9,1,11,-0.408333333,0.247916667,1,0,0,1.355,Diorite_07,3,07,5,2,1.355,0.160416667,-0.25,1,0,0,0.919,Diorite_rect,3,0.919,1,10,0,10,0,1,,,,,,,,,,,,,
6568ead5dfb561c3ba7850a4,SCN,2024-06-24_14h34.32.060,LearnStrategy,2023.2.3,Win32,143.6781609,9,1,12,-0.248611111,0.209027778,1,0,0,1.194,Basalt_09,2,09,5,3,1.194,0.404861111,-0.236111111,1,0,0,1.245,Gabbro_rect,4,1.245,0,11,0,11,0,1,,,,,,,,,,,,,
6568ead5dfb561c3ba7850a4,SCN,2024-06-24_14h34.32.060,LearnStrategy,2023.2.3,Win32,143.6781609,9,1,13,-0.09375,0.266666667,1,0,0,1.221,Diorite_13,3,13,5,4,1.221,0.104861111,-0.254166667,1,0,0,0.983,Diorite_rect,3,0.983,1,12,0,12,0,1,,,,,,,,,,,,,
6568ead5dfb561c3ba7850a4,SCN,2024-06-24_14h34.32.060,LearnStrategy,2023.2.3,Win32,143.6781609,9,1,14,0.089583333,0.219444444,1,0,0,0.979,Andesite_11,1,11,5,5,0.979,-0.445833333,-0.25,1,0,0,0.956,Andesite_rect,1,0.956,1,13,0,13,0,1,,,,,,,,,,,,,
6568ead5dfb561c3ba7850a4,SCN,2024-06-24_14h34.32.060,LearnStrategy,2023.2.3,Win32,143.6781609,9,1,15,0.267361111,0.229166667,1,0,0,1.07,Diorite_14,3,14,5,6,1.07,0.140972222,-0.267361111,1,0,0,0.976,Diorite_rect,3,0.976,1,14,0,14,0,1,,,,,,,,,,,,,
6568ead5dfb561c3ba7850a4,SCN,2024-06-24_14h34.32.060,LearnStrategy,2023.2.3,Win32,143.6781609,9,1,16,0.420138889,0.2875,1,0,0,1.452,Obsidian_14,5,14,5,7,1.452,-0.420138889,-0.380555556,1,0,0,1.23,Obsidian_rect,5,1.23,1,15,0,15,0,1,,,,,,,,,,,,,
6568ead5dfb561c3ba7850a4,SCN,2024-06-24_14h34.32.060,LearnStrategy,2023.2.3,Win32,143.6781609,9,2,1,,,,,,,,8,10,,,,,,,,,,,8,1.582,1,,,,,,0.454861111,-0.391666667,1,0,0,1.582,Pumice_rect,0,0,0,0,1,
6568ead5dfb561c3ba7850a4,SCN,2024-06-24_14h34.32.060,LearnStrategy,2023.2.3,Win32,143.6781609,9,2,2,,,,,,,,3,15,,,,,,,,,,,3,1.774,1,,,,,,0.132638889,-0.236111111,1,0,0,1.774,Diorite_rect,1,0,1,0,1,
6568ead5dfb561c3ba7850a4,SCN,2024-06-24_14h34.32.060,LearnStrategy,2023.2.3,Win32,143.6781609,9,2,3,,,,,,,,5,09,,,,,,,,,,,5,1.819,1,,,,,,-0.34375,-0.380555556,1,0,0,1.819,Obsidian_rect,2,0,2,0,1,
6568ead5dfb561c3ba7850a4,SCN,2024-06-24_14h34.32.060,LearnStrategy,2023.2.3,Win32,143.6781609,9,2,4,,,,,,,,1,14,,,,,,,,,,,1,5.421,1,,,,,,-0.352777778,-0.238888889,1,0,0,5.421,Andesite_rect,3,0,3,0,1,
6568ead5dfb561c3ba7850a4,SCN,2024-06-24_14h34.32.060,LearnStrategy,2023.2.3,Win32,143.6781609,9,2,5,,,,,,,,7,05,,,,,,,,,,,7,1.799,1,,,,,,0.098611111,-0.393055556,1,0,0,1.799,Peridotite_rect,4,0,4,0,1,
6568ead5dfb561c3ba7850a4,SCN,2024-06-24_14h34.32.060,LearnStrategy,2023.2.3,Win32,143.6781609,9,2,6,,,,,,,,8,16,,,,,,,,,,,8,1.308,1,,,,,,0.392361111,-0.393055556,1,0,0,1.308,Pumice_rect,5,0,5,0,1,
6568ead5dfb561c3ba7850a4,SCN,2024-06-24_14h34.32.060,LearnStrategy,2023.2.3,Win32,143.6781609,9,2,7,,,,,,,,3,08,,,,,,,,,,,3,1.307,1,,,,,,0.088888889,-0.240972222,1,0,0,1.307,Diorite_rect,6,0,6,0,1,
6568ead5dfb561c3ba7850a4,SCN,2024-06-24_14h34.32.060,LearnStrategy,2023.2.3,Win32,143.6781609,9,2,8,,,,,,,,6,11,,,,,,,,,,,6,1.498,1,,,,,,-0.149305556,-0.384722222,1,0,0,1.498,Pegmatite_rect,7,0,7,0,1,
6568ead5dfb561c3ba7850a4,SCN,2024-06-24_14h34.32.060,LearnStrategy,2023.2.3,Win32,143.6781609,9,2,9,,,,,,,,6,08,,,,,,,,,,,6,0.977,1,,,,,,-0.149305556,-0.384722222,1,0,0,0.977,Pegmatite_rect,8,0,8,0,1,
6568ead5dfb561c3ba7850a4,SCN,2024-06-24_14h34.32.060,LearnStrategy,2023.2.3,Win32,143.6781609,9,2,10,,,,,,,,4,15,,,,,,,,,,,4,16.742,1,,,,,,0.382638889,-0.254861111,1,0,0,16.742,Gabbro_rect,9,0,9,0,1,
6568ead5dfb561c3ba7850a4,SCN,2024-06-24_14h34.32.060,LearnStrategy,2023.2.3,Win32,143.6781609,9,2,11,,,,,,,,1,06,,,,,,,,,,,1,1.419,1,,,,,,-0.404166667,-0.232638889,1,0,0,1.419,Andesite_rect,10,0,10,0,1,
6568ead5dfb561c3ba7850a4,SCN,2024-06-24_14h34.32.060,LearnStrategy,2023.2.3,Win32,143.6781609,9,2,12,,,,,,,,5,07,,,,,,,,,,,5,1.31,1,,,,,,-0.431944444,-0.406944444,1,0,0,1.31,Obsidian_rect,11,0,11,0,1,
6568ead5dfb561c3ba7850a4,SCN,2024-06-24_14h34.32.060,LearnStrategy,2023.2.3,Win32,143.6781609,9,2,13,,,,,,,,2,10,,,,,,,,,,,2,1.581,1,,,,,,-0.173611111,-0.245138889,1,0,0,1.581,Basalt_rect,12,0,12,0,1,
6568ead5dfb561c3ba7850a4,SCN,2024-06-24_14h34.32.060,LearnStrategy,2023.2.3,Win32,143.6781609,9,2,14,,,,,,,,2,02,,,,,,,,,,,2,5.777,1,,,,,,-0.109722222,-0.247222222,1,0,0,5.777,Basalt_rect,13,0,13,0,1,
6568ead5dfb561c3ba7850a4,SCN,2024-06-24_14h34.32.060,LearnStrategy,2023.2.3,Win32,143.6781609,9,2,15,,,,,,,,7,12,,,,,,,,,,,7,2.488,1,,,,,,0.097222222,-0.410416667,1,0,0,2.488,Peridotite_rect,14,0,14,0,1,
6568ead5dfb561c3ba7850a4,SCN,2024-06-24_14h34.32.060,LearnStrategy,2023.2.3,Win32,143.6781609,9,2,16,,,,,,,,4,03,,,,,,,,,,,1,6.693,0,,,,,,-0.410416667,-0.247222222,1,0,0,6.693,Andesite_rect,15,0,15,0,1,
6568ead5dfb561c3ba7850a4,SCN,2024-06-24_14h34.32.060,LearnStrategy,2023.2.3,Win32,143.6781609,,,,,,,,,,,,,,,,,,,,,,,,,,,,,,,,,,,,,,,,,,,1
6568ead5dfb561c3ba7850a4,SCN,2024-06-24_14h34.32.060,LearnStrategy,2023.2.3,Win32,143.6781609,,,,,,,,,,,,,,,,,,,,,,,,,,,,,,,,,,,,,,,,,,,
6568ead5dfb561c3ba7850a4,SCN,2024-06-24_14h34.32.060,LearnStrategy,2023.2.3,Win32,143.6781609,,,,,,,,,,,6,15,1,1,,,,,,,,,,,,,,,,,,,,,,,,,,,,,
6568ead5dfb561c3ba7850a4,SCN,2024-06-24_14h34.32.060,LearnStrategy,2023.2.3,Win32,143.6781609,,,,,,,,,,,2,01,1,2,,,,,,,,,,,,,,,,,,,,,,,,,,,,,
6568ead5dfb561c3ba7850a4,SCN,2024-06-24_14h34.32.060,LearnStrategy,2023.2.3,Win32,143.6781609,,,,,,,,,,,8,06,1,3,,,,,,,,,,,,,,,,,,,,,,,,,,,,,
6568ead5dfb561c3ba7850a4,SCN,2024-06-24_14h34.32.060,LearnStrategy,2023.2.3,Win32,143.6781609,,,,,,,,,,,7,04,1,4,,,,,,,,,,,,,,,,,,,,,,,,,,,,,
6568ead5dfb561c3ba7850a4,SCN,2024-06-24_14h34.32.060,LearnStrategy,2023.2.3,Win32,143.6781609,,,,,,,,,,,8,05,1,5,,,,,,,,,,,,,,,,,,,,,,,,,,,,,
6568ead5dfb561c3ba7850a4,SCN,2024-06-24_14h34.32.060,LearnStrategy,2023.2.3,Win32,143.6781609,,,,,,,,,,,7,06,1,6,,,,,,,,,,,,,,,,,,,,,,,,,,,,,
6568ead5dfb561c3ba7850a4,SCN,2024-06-24_14h34.32.060,LearnStrategy,2023.2.3,Win32,143.6781609,,,,,,,,,,,8,08,1,7,,,,,,,,,,,,,,,,,,,,,,,,,,,,,
6568ead5dfb561c3ba7850a4,SCN,2024-06-24_14h34.32.060,LearnStrategy,2023.2.3,Win32,143.6781609,,,,,,,,,,,6,03,1,8,,,,,,,,,,,,,,,,,,,,,,,,,,,,,
6568ead5dfb561c3ba7850a4,SCN,2024-06-24_14h34.32.060,LearnStrategy,2023.2.3,Win32,143.6781609,,,,,,,,,,,7,15,2,1,,,,,,,,,,,,,,,,,,,,,,,,,,,,,
6568ead5dfb561c3ba7850a4,SCN,2024-06-24_14h34.32.060,LearnStrategy,2023.2.3,Win32,143.6781609,,,,,,,,,,,6,07,2,2,,,,,,,,,,,,,,,,,,,,,,,,,,,,,
6568ead5dfb561c3ba7850a4,SCN,2024-06-24_14h34.32.060,LearnStrategy,2023.2.3,Win32,143.6781609,,,,,,,,,,,1,04,2,3,,,,,,,,,,,,,,,,,,,,,,,,,,,,,
6568ead5dfb561c3ba7850a4,SCN,2024-06-24_14h34.32.060,LearnStrategy,2023.2.3,Win32,143.6781609,,,,,,,,,,,1,07,2,4,,,,,,,,,,,,,,,,,,,,,,,,,,,,,
6568ead5dfb561c3ba7850a4,SCN,2024-06-24_14h34.32.060,LearnStrategy,2023.2.3,Win32,143.6781609,,,,,,,,,,,2,11,2,5,,,,,,,,,,,,,,,,,,,,,,,,,,,,,
6568ead5dfb561c3ba7850a4,SCN,2024-06-24_14h34.32.060,LearnStrategy,2023.2.3,Win32,143.6781609,,,,,,,,,,,6,05,2,6,,,,,,,,,,,,,,,,,,,,,,,,,,,,,
6568ead5dfb561c3ba7850a4,SCN,2024-06-24_14h34.32.060,LearnStrategy,2023.2.3,Win32,143.6781609,,,,,,,,,,,7,13,2,7,,,,,,,,,,,,,,,,,,,,,,,,,,,,,
6568ead5dfb561c3ba7850a4,SCN,2024-06-24_14h34.32.060,LearnStrategy,2023.2.3,Win32,143.6781609,,,,,,,,,,,1,03,2,8,,,,,,,,,,,,,,,,,,,,,,,,,,,,,
6568ead5dfb561c3ba7850a4,SCN,2024-06-24_14h34.32.060,LearnStrategy,2023.2.3,Win32,143.6781609,,,,,,,,,,,5,05,3,1,,,,,,,,,,,,,,,,,,,,,,,,,,,,,
6568ead5dfb561c3ba7850a4,SCN,2024-06-24_14h34.32.060,LearnStrategy,2023.2.3,Win32,143.6781609,,,,,,,,,,,6,10,3,2,,,,,,,,,,,,,,,,,,,,,,,,,,,,,
6568ead5dfb561c3ba7850a4,SCN,2024-06-24_14h34.32.060,LearnStrategy,2023.2.3,Win32,143.6781609,,,,,,,,,,,1,02,3,3,,,,,,,,,,,,,,,,,,,,,,,,,,,,,
6568ead5dfb561c3ba7850a4,SCN,2024-06-24_14h34.32.060,LearnStrategy,2023.2.3,Win32,143.6781609,,,,,,,,,,,4,11,3,4,,,,,,,,,,,,,,,,,,,,,,,,,,,,,
6568ead5dfb561c3ba7850a4,SCN,2024-06-24_14h34.32.060,LearnStrategy,2023.2.3,Win32,143.6781609,,,,,,,,,,,7,08,3,5,,,,,,,,,,,,,,,,,,,,,,,,,,,,,
6568ead5dfb561c3ba7850a4,SCN,2024-06-24_14h34.32.060,LearnStrategy,2023.2.3,Win32,143.6781609,,,,,,,,,,,8,03,3,6,,,,,,,,,,,,,,,,,,,,,,,,,,,,,
6568ead5dfb561c3ba7850a4,SCN,2024-06-24_14h34.32.060,LearnStrategy,2023.2.3,Win32,143.6781609,,,,,,,,,,,1,05,3,7,,,,,,,,,,,,,,,,,,,,,,,,,,,,,
6568ead5dfb561c3ba7850a4,SCN,2024-06-24_14h34.32.060,LearnStrategy,2023.2.3,Win32,143.6781609,,,,,,,,,,,5,06,3,8,,,,,,,,,,,,,,,,,,,,,,,,,,,,,
6568ead5dfb561c3ba7850a4,SCN,2024-06-24_14h34.32.060,LearnStrategy,2023.2.3,Win32,143.6781609,,,,,,,,,,,3,02,4,1,,,,,,,,,,,,,,,,,,,,,,,,,,,,,
6568ead5dfb561c3ba7850a4,SCN,2024-06-24_14h34.32.060,LearnStrategy,2023.2.3,Win32,143.6781609,,,,,,,,,,,4,05,4,2,,,,,,,,,,,,,,,,,,,,,,,,,,,,,
6568ead5dfb561c3ba7850a4,SCN,2024-06-24_14h34.32.060,LearnStrategy,2023.2.3,Win32,143.6781609,,,,,,,,,,,4,13,4,3,,,,,,,,,,,,,,,,,,,,,,,,,,,,,
6568ead5dfb561c3ba7850a4,SCN,2024-06-24_14h34.32.060,LearnStrategy,2023.2.3,Win32,143.6781609,,,,,,,,,,,7,10,4,4,,,,,,,,,,,,,,,,,,,,,,,,,,,,,
6568ead5dfb561c3ba7850a4,SCN,2024-06-24_14h34.32.060,LearnStrategy,2023.2.3,Win32,143.6781609,,,,,,,,,,,4,14,4,5,,,,,,,,,,,,,,,,,,,,,,,,,,,,,
6568ead5dfb561c3ba7850a4,SCN,2024-06-24_14h34.32.060,LearnStrategy,2023.2.3,Win32,143.6781609,,,,,,,,,,,6,16,4,6,,,,,,,,,,,,,,,,,,,,,,,,,,,,,
6568ead5dfb561c3ba7850a4,SCN,2024-06-24_14h34.32.060,LearnStrategy,2023.2.3,Win32,143.6781609,,,,,,,,,,,5,11,4,7,,,,,,,,,,,,,,,,,,,,,,,,,,,,,
6568ead5dfb561c3ba7850a4,SCN,2024-06-24_14h34.32.060,LearnStrategy,2023.2.3,Win32,143.6781609,,,,,,,,,,,3,16,4,8,,,,,,,,,,,,,,,,,,,,,,,,,,,,,
6568ead5dfb561c3ba7850a4,SCN,2024-06-24_14h34.32.060,LearnStrategy,2023.2.3,Win32,143.6781609,,,,,,,,,,,8,09,5,1,,,,,,,,,,,,,,,,,,,,,,,,,,,,,
6568ead5dfb561c3ba7850a4,SCN,2024-06-24_14h34.32.060,LearnStrategy,2023.2.3,Win32,143.6781609,,,,,,,,,,,3,07,5,2,,,,,,,,,,,,,,,,,,,,,,,,,,,,,
6568ead5dfb561c3ba7850a4,SCN,2024-06-24_14h34.32.060,LearnStrategy,2023.2.3,Win32,143.6781609,,,,,,,,,,,2,09,5,3,,,,,,,,,,,,,,,,,,,,,,,,,,,,,
6568ead5dfb561c3ba7850a4,SCN,2024-06-24_14h34.32.060,LearnStrategy,2023.2.3,Win32,143.6781609,,,,,,,,,,,3,13,5,4,,,,,,,,,,,,,,,,,,,,,,,,,,,,,
6568ead5dfb561c3ba7850a4,SCN,2024-06-24_14h34.32.060,LearnStrategy,2023.2.3,Win32,143.6781609,,,,,,,,,,,1,11,5,5,,,,,,,,,,,,,,,,,,,,,,,,,,,,,
6568ead5dfb561c3ba7850a4,SCN,2024-06-24_14h34.32.060,LearnStrategy,2023.2.3,Win32,143.6781609,,,,,,,,,,,3,14,5,6,,,,,,,,,,,,,,,,,,,,,,,,,,,,,
6568ead5dfb561c3ba7850a4,SCN,2024-06-24_14h34.32.060,LearnStrategy,2023.2.3,Win32,143.6781609,,,,,,,,,,,5,14,5,7,,,,,,,,,,,,,,,,,,,,,,,,,,,,,
6568ead5dfb561c3ba7850a4,SCN,2024-06-24_14h34.32.060,LearnStrategy,2023.2.3,Win32,143.6781609,,,,,,,,,,,2,14,5,8,,,,,,,,,,,,,,,,,,,,,,,,,,,,,
6568ead5dfb561c3ba7850a4,SCN,2024-06-24_14h34.32.060,LearnStrategy,2023.2.3,Win32,143.6781609,,,,,,,,,,,8,04,6,1,,,,,,,,,,,,,,,,,,,,,,,,,,,,,
6568ead5dfb561c3ba7850a4,SCN,2024-06-24_14h34.32.060,LearnStrategy,2023.2.3,Win32,143.6781609,,,,,,,,,,,2,12,6,2,,,,,,,,,,,,,,,,,,,,,,,,,,,,,
6568ead5dfb561c3ba7850a4,SCN,2024-06-24_14h34.32.060,LearnStrategy,2023.2.3,Win32,143.6781609,,,,,,,,,,,5,12,6,3,,,,,,,,,,,,,,,,,,,,,,,,,,,,,
6568ead5dfb561c3ba7850a4,SCN,2024-06-24_14h34.32.060,LearnStrategy,2023.2.3,Win32,143.6781609,,,,,,,,,,,4,01,6,4,,,,,,,,,,,,,,,,,,,,,,,,,,,,,
6568ead5dfb561c3ba7850a4,SCN,2024-06-24_14h34.32.060,LearnStrategy,2023.2.3,Win32,143.6781609,,,,,,,,,,,2,04,6,5,,,,,,,,,,,,,,,,,,,,,,,,,,,,,
6568ead5dfb561c3ba7850a4,SCN,2024-06-24_14h34.32.060,LearnStrategy,2023.2.3,Win32,143.6781609,,,,,,,,,,,3,06,6,6,,,,,,,,,,,,,,,,,,,,,,,,,,,,,
6568ead5dfb561c3ba7850a4,SCN,2024-06-24_14h34.32.060,LearnStrategy,2023.2.3,Win32,143.6781609,,,,,,,,,,,5,16,6,7,,,,,,,,,,,,,,,,,,,,,,,,,,,,,
6568ead5dfb561c3ba7850a4,SCN,2024-06-24_14h34.32.060,LearnStrategy,2023.2.3,Win32,143.6781609,,,,,,,,,,,4,12,6,8,,,,,,,,,,,,,,,,,,,,,,,,,,,,,